Ah_balance (normalized)	Ah_balance (mAh)	Voltage - fit (V)	Voltage -  interpolate (V)	dQ/dV (1/V)	Temperature (°C)	Temperature - diff (°C)	Current (C)	R_DC 0ms (mOhm)	R_DC 50ms (mOhm)	R_DC 50 ms PEC (mOhm)
0.0003	16.68	4.1630	4.1628	-0.1136	25.82	0.02	-0.750			
0.0007	43.16	4.1600	4.1599	-0.1590	25.81	0.01	-0.750			
0.0012	78.48	4.1570	4.1568	-0.2006	25.81	0.01	-0.750			
0.0019	121.14	4.1540	4.1540	-0.2390	25.81	0.01	-0.750			
0.0027	170.61	4.1510	4.1511	-0.2777	25.81	0.01	-0.750			
0.0036	228.79	4.1480	4.1480	-0.3185	25.81	0.01	-0.750			
0.0046	294.14	4.1450	4.1449	-0.3529	25.81	0.01	-0.750			
0.0057	365.73	4.1420	4.1419	-0.3845	25.80	0.00	-0.750			
0.0069	442.95	4.1390	4.1393	-0.4172	25.80	-0.00	-0.750			
0.0082	527.21	4.1360	4.1359	-0.4463	25.80	-0.00	-0.750			
0.0096	615.62	4.1330	4.1330	-0.4717	25.79	-0.01	-0.750			
0.0111	707.50	4.1300	4.1301	-0.4981	25.79	-0.01	-0.750			
0.0126	807.71	4.1270	4.1271	-0.5248	25.79	-0.01	-0.750			
0.0142	911.05	4.1240	4.1239	-0.5431	25.78	-0.02	-0.750			
0.0159	1018.43	4.1210	4.1210	-0.5611	25.78	-0.02	-0.750			
0.0176	1127.29	4.1180	4.1181	-0.5765	25.77	-0.03	-0.750			
0.0194	1240.71	4.1150	4.1151	-0.5917	25.77	-0.03	-0.750			
0.0212	1355.83	4.1120	4.1119	-0.6006	25.76	-0.04	-0.750			
0.0230	1470.79	4.1090	4.1091	-0.6104	25.76	-0.04	-0.750			
0.0248	1589.87	4.1060	4.1060	-0.6229	25.75	-0.05	-0.750			
0.0267	1711.08	4.1030	4.1031	-0.6349	25.75	-0.05	-0.750			
0.0287	1834.92	4.1000	4.0999	-0.6388	25.74	-0.06	-0.750			
0.0306	1957.64	4.0970	4.0971	-0.6456	25.73	-0.07	-0.750			
0.0326	2083.26	4.0940	4.0941	-0.6512	25.73	-0.07	-0.750			
0.0345	2208.89	4.0910	4.0911	-0.6583	25.73	-0.07	-0.750			
0.0365	2333.78	4.0880	4.0880	-0.6649	25.73	-0.07	-0.750			
0.0385	2461.45	4.0850	4.0851	-0.6719	25.72	-0.08	-0.750			
0.0405	2591.97	4.0820	4.0820	-0.6776	25.72	-0.08	-0.750			
0.0426	2725.36	4.0790	4.0789	-0.6854	25.72	-0.08	-0.750			
0.0446	2856.02	4.0760	4.0762	-0.6870	25.72	-0.08	-0.750			
0.0467	2989.34	4.0730	4.0730	-0.6912	25.72	-0.08	-0.750			
0.0488	3120.92	4.0700	4.0700	-0.6914	25.71	-0.09	-0.750			
0.0508	3254.21	4.0670	4.0670	-0.6930	25.71	-0.09	-0.750			
0.0529	3386.57	4.0640	4.0640	-0.6974	25.71	-0.09	-0.750			
0.0550	3520.82	4.0610	4.0609	-0.7017	25.70	-0.10	-0.750			
0.0571	3656.58	4.0580	4.0581	-0.7048	25.70	-0.10	-0.750			
0.0592	3791.36	4.0550	4.0550	-0.7081	25.70	-0.10	-0.750			
0.0614	3927.38	4.0520	4.0520	-0.7156	25.70	-0.10	-0.750			
0.0635	4066.45	4.0490	4.0490	-0.7157	25.70	-0.10	-0.750			
0.0657	4204.35	4.0460	4.0459	-0.7181	25.70	-0.10	-0.750			
0.0678	4342.26	4.0430	4.0429	-0.7168	25.70	-0.10	-0.750			
0.0700	4480.25	4.0400	4.0400	-0.7179	25.70	-0.10	-0.750			
0.0722	4617.81	4.0370	4.0370	-0.7185	25.70	-0.10	-0.750			
0.0743	4753.62	4.0340	4.0341	-0.7228	25.70	-0.10	-0.750			
0.0765	4893.19	4.0310	4.0309	-0.7219	25.70	-0.10	-0.750			
0.0787	5034.77	4.0280	4.0279	-0.7274	25.70	-0.10	-0.750			
0.0808	5173.81	4.0250	4.0250	-0.7271	25.70	-0.10	-0.750			
0.0830	5313.81	4.0220	4.0221	-0.7277	25.70	-0.10	-0.750			
0.0852	5452.95	4.0190	4.0189	-0.7299	25.70	-0.10	-0.750			
0.0874	5592.94	4.0160	4.0159	-0.7339	25.70	-0.10	-0.750			
0.0896	5732.51	4.0130	4.0130	-0.7341	25.70	-0.10	-0.750			
0.0918	5876.17	4.0100	4.0100	-0.7382	25.70	-0.10	-0.750			
0.0941	6019.33	4.0070	4.0071	-0.7393	25.70	-0.10	-0.750			
0.0963	6160.89	4.0040	4.0040	-0.7422	25.70	-0.10	-0.750			
0.0985	6302.26	4.0010	4.0009	-0.7455	25.71	-0.09	-0.750			
0.1007	6447.16	3.9980	3.9979	-0.7466	25.71	-0.09	-0.750			
0.1030	6590.68	3.9950	3.9950	-0.7469	25.71	-0.09	-0.750			
0.1052	6735.73	3.9920	3.9920	-0.7526	25.72	-0.08	-0.750			
0.1075	6880.44	3.9890	3.9891	-0.7528	25.72	-0.08	-0.750			
0.1098	7024.61	3.9860	3.9858	-0.7499	25.72	-0.08	-0.750			
0.1120	7166.78	3.9830	3.9830	-0.7554	25.72	-0.08	-0.750			
0.1142	7310.39	3.9800	3.9801	-0.7586	25.72	-0.08	-0.750			
0.1166	7460.19	3.9770	3.9769	-0.7633	25.72	-0.08	-0.750			
0.1189	7607.54	3.9740	3.9740	-0.7626	25.72	-0.08	-0.750			
0.1211	7752.99	3.9710	3.9710	-0.7646	25.72	-0.08	-0.750			
0.1234	7899.98	3.9680	3.9680	-0.7679	25.73	-0.07	-0.750			
0.1257	8047.55	3.9650	3.9649	-0.7693	25.74	-0.06	-0.750			
0.1280	8192.77	3.9620	3.9620	-0.7663	25.74	-0.06	-0.750			
0.1304	8343.32	3.9590	3.9590	-0.7726	25.75	-0.05	-0.750			
0.1327	8492.72	3.9560	3.9561	-0.7740	25.75	-0.05	-0.750			
0.1350	8640.69	3.9530	3.9530	-0.7763	25.75	-0.05	-0.750			
0.1373	8788.90	3.9500	3.9500	-0.7782	25.75	-0.05	-0.750			
0.1397	8938.64	3.9470	3.9469	-0.7788	25.74	-0.06	-0.750			
0.1420	9088.56	3.9440	3.9440	-0.7832	25.74	-0.06	-0.750			
0.1444	9239.48	3.9410	3.9411	-0.7868	25.74	-0.06	-0.750			
0.1467	9391.01	3.9380	3.9380	-0.7883	25.74	-0.06	-0.750			
0.1491	9543.03	3.9350	3.9350	-0.7958	25.74	-0.06	-0.750			
0.1515	9696.62	3.9320	3.9320	-0.7954	25.75	-0.05	-0.750			
0.1539	9851.05	3.9290	3.9289	-0.7945	25.75	-0.05	-0.750			
0.1563	10003.94	3.9260	3.9262	-0.7938	25.75	-0.05	-0.750			
0.1587	10155.03	3.9230	3.9229	-0.7927	25.75	-0.05	-0.750			
0.1610	10305.92	3.9200	3.9200	-0.7968	25.75	-0.05	-0.750			
0.1634	10458.81	3.9170	3.9169	-0.7919	25.76	-0.04	-0.750			
0.1658	10609.55	3.9140	3.9140	-0.7944	25.76	-0.04	-0.750			
0.1682	10765.26	3.9110	3.9111	-0.8030	25.76	-0.04	-0.750			
0.1706	10919.98	3.9080	3.9079	-0.8020	25.76	-0.04	-0.750			
0.1730	11072.59	3.9050	3.9049	-0.8057	25.77	-0.03	-0.750			
0.1754	11228.24	3.9020	3.9021	-0.8053	25.77	-0.03	-0.750			
0.1779	11382.64	3.8990	3.8990	-0.8056	25.77	-0.03	-0.750			
0.1803	11538.07	3.8960	3.8958	-0.8150	25.78	-0.02	-0.750			
0.1827	11692.68	3.8930	3.8931	-0.8193	25.78	-0.02	-0.750			
0.1852	11850.28	3.8900	3.8899	-0.8284	25.78	-0.02	-0.750			
0.1877	12012.63	3.8870	3.8869	-0.8325	25.78	-0.02	-0.750			
0.1902	12172.07	3.8840	3.8841	-0.8308	25.79	-0.01	-0.750			
0.1927	12335.51	3.8810	3.8809	-0.8327	25.79	-0.01	-0.750			
0.1952	12495.84	3.8780	3.8780	-0.8295	25.79	-0.01	-0.750			
0.1977	12653.41	3.8750	3.8750	-0.8211	25.79	-0.01	-0.750			
0.2001	12808.16	3.8720	3.8720	-0.8144	25.79	-0.01	-0.750			
0.2025	12962.75	3.8690	3.8690	-0.8129	25.79	-0.01	-0.750			
0.2050	13121.08	3.8660	3.8660	-0.8162	25.79	-0.01	-0.750			
0.2075	13277.57	3.8630	3.8630	-0.8168	25.79	-0.01	-0.750			
0.2099	13435.42	3.8600	3.8600	-0.8165	25.80	-0.00	-0.750			
0.2124	13591.52	3.8570	3.8570	-0.8204	25.80	-0.00	-0.750			
0.2148	13749.28	3.8540	3.8540	-0.8277	25.80	0.00	-0.750			
0.2173	13908.33	3.8510	3.8509	-0.8292	25.81	0.01	-0.750			
0.2198	14068.62	3.8480	3.8481	-0.8293	25.81	0.01	-0.750			
0.2223	14229.80	3.8450	3.8451	-0.8310	25.81	0.01	-0.750			
0.2248	14389.74	3.8420	3.8420	-0.8343	25.81	0.01	-0.750			
0.2274	14550.67	3.8390	3.8390	-0.8333	25.82	0.02	-0.750			
0.2298	14710.37	3.8360	3.8358	-0.8317	25.82	0.02	-0.750			
0.2323	14868.84	3.8330	3.8332	-0.8281	25.82	0.02	-0.750			
0.2348	15029.39	3.8300	3.8299	-0.8259	25.82	0.02	-0.750			
0.2373	15186.71	3.8270	3.8270	-0.8268	25.82	0.02	-0.750			
0.2397	15342.92	3.8240	3.8240	-0.8195	25.82	0.02	-0.750			
0.2422	15503.56	3.8210	3.8209	-0.8278	25.82	0.02	-0.750			
0.2447	15663.04	3.8180	3.8180	-0.8224	25.82	0.02	-0.750			
0.2472	15820.93	3.8150	3.8150	-0.8180	25.83	0.03	-0.750			
0.2496	15977.56	3.8120	3.8120	-0.8180	25.83	0.03	-0.750			
0.2521	16134.12	3.8090	3.8089	-0.8166	25.84	0.04	-0.750			
0.2545	16289.57	3.8060	3.8059	-0.8123	25.84	0.04	-0.750			
0.2570	16445.94	3.8030	3.8031	-0.8098	25.85	0.05	-0.750			
0.2594	16601.85	3.8000	3.8000	-0.8083	25.85	0.05	-0.750			
0.2618	16757.08	3.7970	3.7970	-0.8113	25.86	0.06	-0.750			
0.2643	16912.05	3.7940	3.7939	-0.8082	25.86	0.06	-0.750			
0.2667	17067.35	3.7910	3.7909	-0.8057	25.87	0.07	-0.750			
0.2691	17222.28	3.7880	3.7882	-0.8017	25.87	0.07	-0.750			
0.2715	17377.11	3.7850	3.7850	-0.7990	25.87	0.07	-0.750			
0.2739	17529.30	3.7820	3.7820	-0.7969	25.87	0.07	-0.750			
0.2763	17680.39	3.7790	3.7790	-0.7916	25.88	0.08	-0.750			
0.2786	17831.41	3.7760	3.7760	-0.7882	25.88	0.08	-0.750			
0.2810	17984.00	3.7730	3.7730	-0.7883	25.88	0.08	-0.750			
0.2834	18135.21	3.7700	3.7700	-0.7869	25.88	0.08	-0.750			
0.2857	18285.66	3.7670	3.7670	-0.7911	25.88	0.08	-0.750			
0.2881	18438.09	3.7640	3.7640	-0.7860	25.89	0.09	-0.750			
0.2904	18588.31	3.7610	3.7610	-0.7826	25.89	0.09	-0.750			
0.2928	18739.34	3.7580	3.7580	-0.7813	25.89	0.09	-0.750			
0.2951	18888.77	3.7550	3.7550	-0.7812	25.89	0.09	-0.750			
0.2975	19037.24	3.7520	3.7520	-0.7833	25.89	0.09	-0.750			
0.2998	19186.85	3.7490	3.7490	-0.7858	25.89	0.09	-0.750			
0.3021	19337.01	3.7460	3.7460	-0.7872	25.90	0.10	-0.750			
0.3046	19491.53	3.7430	3.7430	-0.7962	25.90	0.10	-0.750			
0.3069	19643.69	3.7400	3.7402	-0.8036	25.90	0.10	-0.750			
0.3094	19799.51	3.7370	3.7370	-0.8070	25.90	0.10	-0.750			
0.3118	19953.34	3.7340	3.7340	-0.8162	25.90	0.10	-0.750			
0.3142	20110.62	3.7310	3.7310	-0.8266	25.91	0.11	-0.750			
0.3167	20270.37	3.7280	3.7280	-0.8356	25.91	0.11	-0.750			
0.3193	20432.08	3.7250	3.7251	-0.8472	25.91	0.11	-0.750			
0.3218	20595.97	3.7220	3.7220	-0.8594	25.91	0.11	-0.750			
0.3244	20761.66	3.7190	3.7190	-0.8653	25.92	0.12	-0.750			
0.3270	20928.53	3.7160	3.7160	-0.8805	25.92	0.12	-0.750			
0.3296	21096.70	3.7130	3.7130	-0.8945	25.93	0.13	-0.750			
0.3323	21269.91	3.7100	3.7101	-0.9135	25.93	0.13	-0.750			
0.3351	21447.71	3.7070	3.7069	-0.9385	25.93	0.13	-0.750			
0.3380	21630.70	3.7040	3.7040	-0.9548	25.93	0.13	-0.750			
0.3409	21817.54	3.7010	3.7010	-0.9718	25.92	0.12	-0.750			
0.3439	22008.67	3.6980	3.6982	-0.9850	25.92	0.12	-0.750			
0.3468	22197.61	3.6950	3.6949	-1.0036	25.92	0.12	-0.750			
0.3498	22388.93	3.6920	3.6921	-1.0189	25.92	0.12	-0.750			
0.3529	22585.66	3.6890	3.6889	-1.0380	25.92	0.12	-0.750			
0.3561	22788.71	3.6860	3.6860	-1.0644	25.92	0.12	-0.750			
0.3593	22995.00	3.6830	3.6829	-1.0790	25.92	0.12	-0.750			
0.3626	23205.56	3.6800	3.6800	-1.0943	25.92	0.12	-0.750			
0.3659	23417.55	3.6770	3.6770	-1.1010	25.91	0.11	-0.750			
0.3691	23624.24	3.6740	3.6742	-1.1253	25.91	0.11	-0.750			
0.3725	23841.50	3.6710	3.6710	-1.1499	25.90	0.10	-0.750			
0.3760	24064.13	3.6680	3.6680	-1.1826	25.90	0.10	-0.750			
0.3795	24290.19	3.6650	3.6650	-1.2252	25.89	0.09	-0.750			
0.3833	24532.33	3.6620	3.6621	-1.2682	25.89	0.09	-0.750			
0.3872	24782.14	3.6590	3.6589	-1.2978	25.88	0.08	-0.750			
0.3912	25035.04	3.6560	3.6559	-1.3311	25.87	0.07	-0.750			
0.3952	25292.03	3.6530	3.6532	-1.3544	25.87	0.07	-0.750			
0.3993	25557.38	3.6500	3.6499	-1.3866	25.86	0.06	-0.750			
0.4035	25823.43	3.6470	3.6470	-1.4158	25.86	0.06	-0.750			
0.4078	26097.89	3.6440	3.6441	-1.4373	25.85	0.05	-0.750			
0.4122	26379.46	3.6410	3.6407	-1.4640	25.85	0.05	-0.750			
0.4166	26662.08	3.6380	3.6380	-1.4873	25.84	0.04	-0.750			
0.4210	26946.37	3.6350	3.6349	-1.5138	25.84	0.04	-0.750			
0.4257	27241.61	3.6320	3.6320	-1.5443	25.83	0.03	-0.750			
0.4303	27536.05	3.6290	3.6289	-1.5719	25.82	0.02	-0.750			
0.4350	27840.99	3.6260	3.6260	-1.6106	25.82	0.02	-0.750			
0.4400	28163.15	3.6230	3.6228	-1.6507	25.81	0.01	-0.750			
0.4451	28485.43	3.6200	3.6200	-1.6819	25.81	0.01	-0.750	0.387	0.510	
0.4501	28807.74	3.6170	3.6169	-1.7095	25.81	0.01	-0.750			
0.4553	29136.17	3.6140	3.6139	-1.7415	25.80	0.00	-0.750			
0.4606	29477.99	3.6110	3.6109	-1.7611	25.80	-0.00	-0.750			
0.4658	29813.73	3.6080	3.6079	-1.7859	25.79	-0.01	-0.750			
0.4713	30162.38	3.6050	3.6050	-1.8241	25.79	-0.01	-0.750			
0.4768	30515.88	3.6020	3.6020	-1.8508	25.78	-0.02	-0.750			
0.4824	30874.03	3.5990	3.5991	-1.9018	25.77	-0.03	-0.750			
0.4882	31246.91	3.5960	3.5958	-1.9362	25.77	-0.03	-0.750			
0.4940	31619.19	3.5930	3.5932	-1.9763	25.77	-0.03	-0.750			
0.5001	32005.58	3.5900	3.5901	-2.0318	25.77	-0.03	-0.750			
0.5062	32396.75	3.5870	3.5871	-2.0423	25.77	-0.03	-0.750			
0.5125	32798.54	3.5840	3.5840	-2.0771	25.77	-0.03	-0.750			
0.5188	33201.91	3.5810	3.5810	-2.1158	25.77	-0.03	-0.750			
0.5251	33603.47	3.5780	3.5778	-2.1473	25.77	-0.03	-0.750			
0.5316	34023.96	3.5750	3.5753	-2.1795	25.76	-0.04	-0.750			
0.5382	34442.81	3.5720	3.5719	-2.2084	25.77	-0.03	-0.750			
0.5449	34870.84	3.5690	3.5691	-2.2447	25.77	-0.03	-0.750			
0.5517	35309.79	3.5660	3.5660	-2.2626	25.76	-0.04	-0.750			
0.5587	35754.83	3.5630	3.5630	-2.2861	25.76	-0.04	-0.750			
0.5655	36189.04	3.5600	3.5600	-2.2719	25.77	-0.03	-0.750			
0.5723	36626.81	3.5570	3.5570	-2.2715	25.77	-0.03	-0.750			
0.5792	37066.15	3.5540	3.5541	-2.2780	25.77	-0.03	-0.750			
0.5859	37498.91	3.5510	3.5511	-2.2660	25.77	-0.03	-0.750			
0.5928	37936.60	3.5480	3.5478	-2.2518	25.77	-0.03	-0.750			
0.5996	38371.96	3.5450	3.5450	-2.2308	25.78	-0.02	-0.750			
0.6063	38800.46	3.5420	3.5421	-2.2082	25.79	-0.01	-0.750			
0.6128	39218.75	3.5390	3.5391	-2.1875	25.79	-0.01	-0.750			
0.6194	39638.82	3.5360	3.5358	-2.1431	25.79	-0.01	-0.750			
0.6257	40042.85	3.5330	3.5331	-2.1107	25.80	0.00	-0.750			
0.6320	40445.97	3.5300	3.5301	-2.0882	25.81	0.01	-0.750			
0.6383	40853.52	3.5270	3.5267	-2.0310	25.82	0.02	-0.750			
0.6443	41236.69	3.5240	3.5241	-1.9787	25.82	0.02	-0.750			
0.6502	41612.04	3.5210	3.5210	-1.9369	25.84	0.04	-0.750			
0.6558	41972.82	3.5180	3.5180	-1.8897	25.87	0.07	-0.750			
0.6614	42330.41	3.5150	3.5150	-1.8412	25.88	0.08	-0.750			
0.6669	42681.63	3.5120	3.5120	-1.7955	25.89	0.09	-0.750			
0.6723	43025.59	3.5090	3.5087	-1.7452	25.90	0.10	-0.750			
0.6775	43362.33	3.5060	3.5058	-1.7021	25.92	0.12	-0.750			
0.6825	43681.00	3.5030	3.5031	-1.6229	25.93	0.13	-0.750			
0.6873	43988.32	3.5000	3.5002	-1.5613	25.95	0.15	-0.750			
0.6918	44276.62	3.4970	3.4969	-1.4976	25.96	0.16	-0.750			
0.6962	44559.29	3.4940	3.4940	-1.4484	25.98	0.18	-0.750			
0.7006	44836.19	3.4910	3.4909	-1.4132	26.00	0.20	-0.750			
0.7047	45099.11	3.4880	3.4880	-1.3809	26.01	0.21	-0.750			
0.7088	45360.09	3.4850	3.4850	-1.3293	26.03	0.23	-0.750			
0.7128	45618.05	3.4820	3.4819	-1.2932	26.04	0.24	-0.750			
0.7166	45862.13	3.4790	3.4789	-1.2458	26.06	0.26	-0.750			
0.7202	46095.88	3.4760	3.4761	-1.2001	26.07	0.27	-0.750			
0.7238	46321.95	3.4730	3.4730	-1.1562	26.09	0.29	-0.750			
0.7271	46536.47	3.4700	3.4699	-1.1134	26.11	0.31	-0.750			
0.7304	46743.04	3.4670	3.4670	-1.0700	26.12	0.32	-0.750			
0.7336	46949.14	3.4640	3.4639	-1.0511	26.14	0.34	-0.750			
0.7367	47148.20	3.4610	3.4610	-1.0212	26.15	0.35	-0.750			
0.7397	47340.06	3.4580	3.4580	-0.9874	26.16	0.36	-0.750			
0.7426	47525.49	3.4550	3.4550	-0.9570	26.17	0.37	-0.750			
0.7454	47707.07	3.4520	3.4520	-0.9345	26.18	0.38	-0.750			
0.7481	47880.76	3.4490	3.4490	-0.9135	26.20	0.40	-0.750			
0.7509	48054.58	3.4460	3.4459	-0.8976	26.21	0.41	-0.750			
0.7535	48222.16	3.4430	3.4430	-0.8883	26.22	0.42	-0.750			
0.7561	48391.88	3.4400	3.4400	-0.8879	26.23	0.43	-0.750			
0.7587	48558.81	3.4370	3.4370	-0.9002	26.24	0.44	-0.750			
0.7614	48732.40	3.4340	3.4339	-0.9139	26.25	0.45	-0.750			
0.7642	48908.15	3.4310	3.4310	-0.9266	26.25	0.45	-0.750			
0.7670	49087.75	3.4280	3.4280	-0.9476	26.26	0.46	-0.750			
0.7699	49273.75	3.4250	3.4251	-0.9714	26.27	0.47	-0.750			
0.7728	49462.37	3.4220	3.4220	-0.9868	26.28	0.48	-0.750			
0.7759	49655.68	3.4190	3.4189	-0.9982	26.30	0.50	-0.750			
0.7789	49848.34	3.4160	3.4161	-1.0008	26.31	0.51	-0.750			
0.7820	50044.96	3.4130	3.4131	-0.9995	26.32	0.52	-0.750			
0.7850	50238.10	3.4100	3.4100	-0.9918	26.33	0.53	-0.750			
0.7880	50428.81	3.4070	3.4070	-0.9742	26.34	0.54	-0.750			
0.7909	50614.88	3.4040	3.4039	-0.9483	26.35	0.55	-0.750			
0.7937	50796.49	3.4010	3.4011	-0.9253	26.36	0.56	-0.750			
0.7964	50970.50	3.3980	3.3979	-0.8946	26.37	0.57	-0.750			
0.7991	51140.04	3.3950	3.3950	-0.8657	26.37	0.57	-0.750			
0.8016	51302.89	3.3920	3.3920	-0.8362	26.38	0.58	-0.750			
0.8040	51458.89	3.3890	3.3890	-0.8018	26.38	0.58	-0.750			
0.8065	51612.95	3.3860	3.3860	-0.7765	26.39	0.59	-0.750			
0.8087	51759.22	3.3830	3.3830	-0.7476	26.40	0.60	-0.750			
0.8109	51899.58	3.3800	3.3800	-0.7160	26.41	0.61	-0.750			
0.8130	52033.77	3.3770	3.3770	-0.6886	26.42	0.62	-0.750			
0.8150	52162.56	3.3740	3.3741	-0.6621	26.42	0.62	-0.750			
0.8170	52286.69	3.3710	3.3710	-0.6376	26.43	0.63	-0.750			
0.8189	52407.07	3.3680	3.3680	-0.6146	26.44	0.64	-0.750			
0.8207	52522.21	3.3650	3.3650	-0.5908	26.44	0.64	-0.750			
0.8224	52633.81	3.3620	3.3620	-0.5673	26.45	0.65	-0.750			
0.8241	52741.07	3.3590	3.3590	-0.5471	26.46	0.66	-0.750			
0.8257	52842.96	3.3560	3.3560	-0.5259	26.46	0.66	-0.750			
0.8272	52941.56	3.3530	3.3530	-0.5078	26.47	0.67	-0.750			
0.8287	53037.53	3.3500	3.3500	-0.4893	26.47	0.67	-0.750			
0.8301	53129.48	3.3470	3.3469	-0.4733	26.47	0.67	-0.750			
0.8315	53219.05	3.3440	3.3442	-0.4558	26.48	0.68	-0.750			
0.8329	53305.70	3.3410	3.3409	-0.4404	26.49	0.69	-0.750			
0.8342	53387.81	3.3380	3.3380	-0.4223	26.49	0.69	-0.750			
0.8354	53466.33	3.3350	3.3350	-0.4061	26.50	0.70	-0.750			
0.8366	53542.58	3.3320	3.3321	-0.3933	26.50	0.70	-0.750			
0.8378	53617.32	3.3290	3.3289	-0.3821	26.51	0.71	-0.750			
0.8389	53689.24	3.3260	3.3261	-0.3681	26.51	0.71	-0.750			
0.8400	53758.72	3.3230	3.3230	-0.3574	26.52	0.72	-0.750			
0.8410	53825.93	3.3200	3.3200	-0.3453	26.52	0.72	-0.750			
0.8420	53891.10	3.3170	3.3171	-0.3344	26.53	0.73	-0.750			
0.8430	53953.76	3.3140	3.3139	-0.3251	26.53	0.73	-0.750			
0.8440	54015.33	3.3110	3.3111	-0.3147	26.54	0.74	-0.750			
0.8449	54074.69	3.3080	3.3080	-0.3073	26.54	0.74	-0.750			
0.8458	54133.26	3.3050	3.3050	-0.3001	26.55	0.75	-0.750			
0.8467	54189.87	3.3020	3.3021	-0.2912	26.56	0.76	-0.750			
0.8476	54244.58	3.2990	3.2990	-0.2830	26.56	0.76	-0.750			
0.8484	54298.37	3.2960	3.2960	-0.2758	26.57	0.77	-0.750			
0.8492	54350.38	3.2930	3.2930	-0.2692	26.57	0.77	-0.750			
0.8500	54401.50	3.2900	3.2900	-0.2634	26.58	0.78	-0.750			
0.8508	54450.88	3.2870	3.2870	-0.2556	26.58	0.78	-0.750			
0.8516	54499.82	3.2840	3.2840	-0.2505	26.59	0.79	-0.750			
0.8523	54547.26	3.2810	3.2810	-0.2447	26.59	0.79	-0.750			
0.8530	54593.56	3.2780	3.2780	-0.2400	26.60	0.80	-0.750			
0.8537	54638.70	3.2750	3.2750	-0.2342	26.60	0.80	-0.750			
0.8544	54683.24	3.2720	3.2719	-0.2298	26.61	0.81	-0.750			
0.8551	54726.61	3.2690	3.2690	-0.2253	26.61	0.81	-0.750			
0.8558	54769.59	3.2660	3.2660	-0.2211	26.61	0.81	-0.750			
0.8564	54811.81	3.2630	3.2630	-0.2174	26.62	0.82	-0.750			
0.8571	54853.09	3.2600	3.2600	-0.2131	26.62	0.82	-0.750			
0.8577	54893.55	3.2570	3.2570	-0.2087	26.63	0.83	-0.750			
0.8583	54932.85	3.2540	3.2540	-0.2052	26.63	0.83	-0.750			
0.8589	54971.94	3.2510	3.2510	-0.2018	26.64	0.84	-0.750			
0.8595	55010.33	3.2480	3.2480	-0.1986	26.64	0.84	-0.750			
0.8601	55048.18	3.2450	3.2450	-0.1956	26.65	0.85	-0.750			
0.8607	55085.35	3.2420	3.2421	-0.1934	26.65	0.85	-0.750			
0.8613	55122.13	3.2390	3.2390	-0.1909	26.66	0.86	-0.750			
0.8619	55158.66	3.2360	3.2359	-0.1885	26.66	0.86	-0.750			
0.8624	55194.61	3.2330	3.2330	-0.1860	26.67	0.87	-0.750			
0.8630	55229.99	3.2300	3.2300	-0.1833	26.67	0.87	-0.750			
0.8635	55265.14	3.2270	3.2270	-0.1812	26.68	0.88	-0.750			
0.8641	55299.83	3.2240	3.2241	-0.1784	26.68	0.88	-0.750			
0.8646	55333.77	3.2210	3.2208	-0.1752	26.68	0.88	-0.750			
0.8651	55366.92	3.2180	3.2180	-0.1727	26.69	0.89	-0.750			
0.8656	55399.67	3.2150	3.2150	-0.1706	26.69	0.89	-0.750			
0.8661	55432.20	3.2120	3.2121	-0.1685	26.70	0.90	-0.750			
0.8666	55464.36	3.2090	3.2089	-0.1665	26.70	0.90	-0.750			
0.8671	55495.96	3.2060	3.2060	-0.1650	26.70	0.90	-0.750			
0.8676	55527.62	3.2030	3.2030	-0.1628	26.71	0.91	-0.750			
0.8681	55558.78	3.2000	3.2000	-0.1616	26.71	0.91	-0.750			
0.8686	55589.62	3.1970	3.1970	-0.1596	26.72	0.92	-0.750			
0.8691	55619.82	3.1940	3.1940	-0.1583	26.72	0.92	-0.750			
0.8695	55650.13	3.1910	3.1909	-0.1564	26.72	0.92	-0.750			
0.8700	55680.08	3.1880	3.1880	-0.1550	26.73	0.93	-0.750			
0.8705	55709.69	3.1850	3.1850	-0.1535	26.73	0.93	-0.750			
0.8709	55738.85	3.1820	3.1821	-0.1523	26.74	0.94	-0.750			
0.8714	55768.33	3.1790	3.1788	-0.1512	26.74	0.94	-0.750			
0.8718	55797.03	3.1760	3.1760	-0.1491	26.75	0.95	-0.750			
0.8723	55825.45	3.1730	3.1730	-0.1480	26.75	0.95	-0.750			
0.8727	55853.63	3.1700	3.1701	-0.1465	26.76	0.96	-0.750			
0.8732	55881.75	3.1670	3.1669	-0.1459	26.76	0.96	-0.750			
0.8736	55909.53	3.1640	3.1640	-0.1445	26.77	0.97	-0.750			
0.8740	55937.24	3.1610	3.1611	-0.1430	26.77	0.97	-0.750			
0.8744	55964.58	3.1580	3.1580	-0.1412	26.78	0.98	-0.750			
0.8749	55991.67	3.1550	3.1551	-0.1403	26.78	0.98	-0.750			
0.8753	56018.44	3.1520	3.1520	-0.1385	26.79	0.99	-0.750			
0.8757	56044.75	3.1490	3.1490	-0.1371	26.79	0.99	-0.750			
0.8761	56070.92	3.1460	3.1459	-0.1358	26.80	1.00	-0.750			
0.8765	56096.57	3.1430	3.1430	-0.1345	26.80	1.00	-0.750			
0.8769	56122.35	3.1400	3.1401	-0.1340	26.80	1.00	-0.750			
0.8773	56148.07	3.1370	3.1370	-0.1333	26.81	1.01	-0.750			
0.8777	56173.64	3.1340	3.1340	-0.1327	26.81	1.01	-0.750			
0.8781	56199.01	3.1310	3.1310	-0.1314	26.82	1.02	-0.750			
0.8785	56224.19	3.1280	3.1280	-0.1305	26.82	1.02	-0.750			
0.8789	56249.27	3.1250	3.1250	-0.1297	26.83	1.03	-0.750			
0.8793	56274.22	3.1220	3.1220	-0.1286	26.83	1.03	-0.750			
0.8797	56298.78	3.1190	3.1191	-0.1272	26.84	1.04	-0.750			
0.8800	56322.87	3.1160	3.1160	-0.1262	26.84	1.04	-0.750			
0.8804	56346.95	3.1130	3.1131	-0.1252	26.84	1.04	-0.750			
0.8808	56370.82	3.1100	3.1099	-0.1247	26.85	1.05	-0.750			
0.8812	56394.63	3.1070	3.1070	-0.1241	26.85	1.05	-0.750			
0.8815	56418.49	3.1040	3.1039	-0.1231	26.86	1.06	-0.750			
0.8819	56442.02	3.1010	3.1010	-0.1224	26.86	1.06	-0.750			
0.8823	56465.49	3.0980	3.0981	-0.1215	26.87	1.07	-0.750			
0.8826	56489.03	3.0950	3.0950	-0.1209	26.87	1.07	-0.750			
0.8830	56512.10	3.0920	3.0920	-0.1198	26.88	1.08	-0.750			
0.8834	56534.95	3.0890	3.0889	-0.1186	26.89	1.09	-0.750			
0.8837	56557.42	3.0860	3.0861	-0.1177	26.89	1.09	-0.750			
0.8841	56579.96	3.0830	3.0830	-0.1171	26.90	1.10	-0.750			
0.8844	56602.48	3.0800	3.0800	-0.1162	26.90	1.10	-0.750			
0.8848	56624.71	3.0770	3.0769	-0.1153	26.91	1.11	-0.750			
0.8851	56646.72	3.0740	3.0742	-0.1146	26.91	1.11	-0.750			
0.8854	56668.65	3.0710	3.0709	-0.1139	26.92	1.12	-0.750			
0.8858	56690.32	3.0680	3.0679	-0.1136	26.92	1.12	-0.750			
0.8861	56712.09	3.0650	3.0650	-0.1132	26.93	1.13	-0.750			
0.8865	56733.78	3.0620	3.0619	-0.1122	26.93	1.13	-0.750			
0.8868	56755.27	3.0590	3.0591	-0.1117	26.94	1.14	-0.750			
0.8871	56776.89	3.0560	3.0560	-0.1112	26.94	1.14	-0.750			
0.8875	56798.14	3.0530	3.0531	-0.1102	26.95	1.15	-0.750			
0.8878	56819.15	3.0500	3.0500	-0.1096	26.95	1.15	-0.750			
0.8881	56840.12	3.0470	3.0469	-0.1088	26.96	1.16	-0.750			
0.8884	56860.71	3.0440	3.0441	-0.1078	26.96	1.16	-0.750			
0.8888	56881.38	3.0410	3.0409	-0.1075	26.97	1.17	-0.750			
0.8891	56902.19	3.0380	3.0380	-0.1069	26.97	1.17	-0.750			
0.8894	56922.64	3.0350	3.0350	-0.1061	26.98	1.18	-0.750			
0.8897	56942.87	3.0320	3.0320	-0.1058	26.98	1.18	-0.750			
0.8900	56963.13	3.0290	3.0290	-0.1052	26.99	1.19	-0.750			
0.8904	56983.23	3.0260	3.0258	-0.1044	26.99	1.19	-0.750			
0.8907	57003.23	3.0230	3.0230	-0.1039	27.00	1.20	-0.750			
0.8910	57023.24	3.0200	3.0201	-0.1032	27.00	1.20	-0.750			
0.8913	57042.97	3.0170	3.0170	-0.1024	27.01	1.21	-0.750			
0.8916	57062.73	3.0140	3.0140	-0.1020	27.01	1.21	-0.750			
0.8919	57082.21	3.0110	3.0110	-0.1009	27.02	1.22	-0.750			
0.8922	57101.31	3.0080	3.0081	-0.1000	27.02	1.22	-0.750			
0.8925	57120.47	3.0050	3.0049	-0.0995	27.03	1.23	-0.751			
0.8928	57139.56	3.0020	3.0020	-0.1000	27.03	1.23	-0.751			
