Ah_balance (normalized)	Ah_balance (mAh)	Voltage - fit (V)	Voltage -  interpolate (V)	dQ/dV (1/V)	Temperature (°C)	Temperature - diff (°C)	Current (C)	R_DC 0ms (mOhm)	R_DC 50ms (mOhm)	R_DC 50 ms PEC (mOhm)
0.0002	15.88	4.1630	4.1629	-0.1157	25.84	0.01	-0.750			
0.0007	42.03	4.1600	4.1599	-0.1567	25.84	0.01	-0.750			
0.0012	75.97	4.1570	4.1570	-0.1977	25.84	0.01	-0.750			
0.0018	118.30	4.1540	4.1540	-0.2376	25.84	0.01	-0.750			
0.0026	167.86	4.1510	4.1510	-0.2768	25.84	0.01	-0.750			
0.0035	225.42	4.1480	4.1480	-0.3140	25.83	0.00	-0.750			
0.0045	289.70	4.1450	4.1450	-0.3502	25.83	0.00	-0.750			
0.0056	361.57	4.1420	4.1420	-0.3827	25.83	0.00	-0.750			
0.0068	437.89	4.1390	4.1390	-0.4144	25.83	-0.00	-0.750			
0.0081	520.79	4.1360	4.1361	-0.4443	25.83	-0.00	-0.750			
0.0095	609.26	4.1330	4.1330	-0.4707	25.83	-0.00	-0.750			
0.0110	702.33	4.1300	4.1299	-0.4973	25.82	-0.01	-0.750			
0.0125	800.60	4.1270	4.1271	-0.5216	25.82	-0.01	-0.750			
0.0141	903.28	4.1240	4.1239	-0.5442	25.82	-0.01	-0.750			
0.0158	1011.78	4.1210	4.1210	-0.5578	25.82	-0.01	-0.750			
0.0175	1120.65	4.1180	4.1179	-0.5730	25.81	-0.02	-0.750			
0.0193	1232.19	4.1150	4.1153	-0.5882	25.81	-0.02	-0.750			
0.0210	1346.74	4.1120	4.1119	-0.6001	25.81	-0.02	-0.750			
0.0228	1462.16	4.1090	4.1089	-0.6089	25.80	-0.03	-0.750			
0.0247	1580.17	4.1060	4.1060	-0.6204	25.80	-0.03	-0.750			
0.0266	1701.08	4.1030	4.1030	-0.6289	25.80	-0.03	-0.750			
0.0285	1823.67	4.1000	4.0999	-0.6378	25.79	-0.04	-0.750			
0.0304	1945.79	4.0970	4.0970	-0.6437	25.79	-0.04	-0.750			
0.0323	2070.25	4.0940	4.0940	-0.6513	25.79	-0.04	-0.750			
0.0343	2196.48	4.0910	4.0909	-0.6591	25.79	-0.04	-0.750			
0.0363	2324.25	4.0880	4.0880	-0.6639	25.78	-0.05	-0.750			
0.0383	2451.73	4.0850	4.0850	-0.6719	25.78	-0.05	-0.750			
0.0404	2582.73	4.0820	4.0820	-0.6745	25.78	-0.05	-0.750			
0.0424	2712.83	4.0790	4.0790	-0.6772	25.77	-0.06	-0.750			
0.0444	2842.76	4.0760	4.0761	-0.6808	25.77	-0.06	-0.750			
0.0465	2974.00	4.0730	4.0729	-0.6824	25.77	-0.06	-0.750			
0.0485	3103.69	4.0700	4.0700	-0.6901	25.77	-0.06	-0.750			
0.0506	3236.92	4.0670	4.0670	-0.6926	25.76	-0.07	-0.750			
0.0527	3370.75	4.0640	4.0639	-0.6999	25.76	-0.07	-0.750			
0.0548	3506.75	4.0610	4.0609	-0.7030	25.76	-0.07	-0.750			
0.0569	3642.24	4.0580	4.0582	-0.7048	25.76	-0.07	-0.750			
0.0590	3777.81	4.0550	4.0549	-0.7063	25.76	-0.07	-0.750			
0.0611	3913.47	4.0520	4.0520	-0.7107	25.76	-0.07	-0.750			
0.0633	4049.36	4.0490	4.0489	-0.7104	25.76	-0.07	-0.750			
0.0654	4186.62	4.0460	4.0460	-0.7135	25.76	-0.07	-0.750			
0.0676	4323.82	4.0430	4.0429	-0.7131	25.76	-0.07	-0.750			
0.0697	4461.48	4.0400	4.0401	-0.7145	25.76	-0.07	-0.750			
0.0718	4598.24	4.0370	4.0370	-0.7177	25.76	-0.07	-0.750			
0.0740	4736.19	4.0340	4.0340	-0.7211	25.76	-0.07	-0.750			
0.0762	4875.05	4.0310	4.0309	-0.7189	25.76	-0.07	-0.750			
0.0783	5014.09	4.0280	4.0280	-0.7222	25.76	-0.07	-0.750			
0.0805	5153.07	4.0250	4.0251	-0.7257	25.76	-0.07	-0.750			
0.0827	5292.55	4.0220	4.0219	-0.7250	25.76	-0.07	-0.750			
0.0849	5431.08	4.0190	4.0189	-0.7257	25.77	-0.06	-0.750			
0.0870	5569.05	4.0160	4.0161	-0.7316	25.77	-0.06	-0.750			
0.0892	5710.08	4.0130	4.0130	-0.7340	25.77	-0.06	-0.750			
0.0915	5854.31	4.0100	4.0098	-0.7370	25.78	-0.05	-0.750			
0.0937	5996.08	4.0070	4.0072	-0.7338	25.78	-0.05	-0.750			
0.0959	6136.17	4.0040	4.0040	-0.7376	25.78	-0.05	-0.750			
0.0981	6278.61	4.0010	4.0010	-0.7372	25.78	-0.05	-0.750			
0.1003	6419.97	3.9980	3.9979	-0.7438	25.78	-0.05	-0.750			
0.1025	6561.40	3.9950	3.9950	-0.7451	25.78	-0.05	-0.750			
0.1048	6707.45	3.9920	3.9919	-0.7540	25.78	-0.05	-0.750			
0.1071	6853.06	3.9890	3.9891	-0.7542	25.78	-0.05	-0.750			
0.1094	6999.21	3.9860	3.9859	-0.7533	25.78	-0.05	-0.750			
0.1116	7142.79	3.9830	3.9830	-0.7532	25.78	-0.05	-0.750			
0.1138	7285.71	3.9800	3.9800	-0.7485	25.79	-0.04	-0.750			
0.1161	7431.64	3.9770	3.9769	-0.7558	25.79	-0.04	-0.750			
0.1184	7575.03	3.9740	3.9741	-0.7583	25.79	-0.04	-0.750			
0.1206	7721.16	3.9710	3.9709	-0.7616	25.79	-0.04	-0.750			
0.1229	7868.21	3.9680	3.9680	-0.7710	25.80	-0.03	-0.750			
0.1253	8017.56	3.9650	3.9650	-0.7723	25.80	-0.03	-0.750			
0.1276	8166.50	3.9620	3.9621	-0.7712	25.80	-0.03	-0.750			
0.1299	8316.50	3.9590	3.9589	-0.7737	25.81	-0.02	-0.750			
0.1323	8465.26	3.9560	3.9561	-0.7683	25.81	-0.02	-0.750			
0.1345	8609.43	3.9530	3.9530	-0.7653	25.81	-0.02	-0.750			
0.1368	8756.08	3.9500	3.9500	-0.7687	25.81	-0.02	-0.750			
0.1391	8901.82	3.9470	3.9471	-0.7705	25.82	-0.01	-0.750			
0.1414	9051.37	3.9440	3.9438	-0.7798	25.82	-0.01	-0.750			
0.1438	9202.06	3.9410	3.9411	-0.7876	25.82	-0.01	-0.750			
0.1462	9354.76	3.9380	3.9380	-0.7907	25.82	-0.01	-0.750			
0.1486	9509.61	3.9350	3.9350	-0.7997	25.82	-0.01	-0.750			
0.1510	9663.08	3.9320	3.9320	-0.7980	25.82	-0.01	-0.750			
0.1534	9815.65	3.9290	3.9290	-0.7968	25.82	-0.01	-0.750			
0.1558	9968.21	3.9260	3.9261	-0.7968	25.82	-0.01	-0.750			
0.1581	10120.69	3.9230	3.9229	-0.7949	25.82	-0.01	-0.750			
0.1605	10271.59	3.9200	3.9200	-0.7993	25.83	-0.00	-0.750			
0.1629	10426.14	3.9170	3.9170	-0.7962	25.83	0.00	-0.750			
0.1653	10578.70	3.9140	3.9139	-0.7947	25.83	0.00	-0.750			
0.1677	10732.53	3.9110	3.9111	-0.8000	25.84	0.01	-0.750			
0.1701	10885.98	3.9080	3.9079	-0.8033	25.84	0.01	-0.750			
0.1725	11039.25	3.9050	3.9049	-0.8077	25.84	0.01	-0.750			
0.1749	11196.46	3.9020	3.9020	-0.8092	25.84	0.01	-0.750			
0.1774	11350.41	3.8990	3.8990	-0.8097	25.85	0.02	-0.750			
0.1798	11508.84	3.8960	3.8960	-0.8163	25.85	0.02	-0.750			
0.1823	11665.69	3.8930	3.8930	-0.8144	25.85	0.02	-0.750			
0.1847	11820.48	3.8900	3.8899	-0.8158	25.86	0.03	-0.750			
0.1871	11976.71	3.8870	3.8871	-0.8171	25.86	0.03	-0.750			
0.1896	12134.25	3.8840	3.8840	-0.8175	25.86	0.03	-0.750			
0.1921	12292.74	3.8810	3.8810	-0.8204	25.87	0.04	-0.750			
0.1945	12449.12	3.8780	3.8781	-0.8198	25.87	0.04	-0.750			
0.1970	12607.15	3.8750	3.8749	-0.8200	25.87	0.04	-0.750			
0.1995	12765.63	3.8720	3.8720	-0.8221	25.88	0.05	-0.750			
0.2019	12923.02	3.8690	3.8690	-0.8194	25.88	0.05	-0.750			
0.2044	13080.82	3.8660	3.8660	-0.8209	25.89	0.06	-0.750			
0.2069	13238.55	3.8630	3.8631	-0.8220	25.89	0.06	-0.750			
0.2093	13396.24	3.8600	3.8600	-0.8192	25.89	0.06	-0.750			
0.2118	13552.63	3.8570	3.8570	-0.8206	25.89	0.06	-0.750			
0.2142	13709.98	3.8540	3.8540	-0.8216	25.90	0.07	-0.750			
0.2167	13869.67	3.8510	3.8509	-0.8212	25.90	0.07	-0.750			
0.2192	14026.09	3.8480	3.8480	-0.8207	25.90	0.07	-0.750			
0.2216	14182.98	3.8450	3.8450	-0.8204	25.90	0.07	-0.750			
0.2241	14339.87	3.8420	3.8421	-0.8270	25.90	0.07	-0.750			
0.2266	14500.21	3.8390	3.8389	-0.8275	25.91	0.08	-0.750			
0.2290	14659.14	3.8360	3.8360	-0.8282	25.91	0.08	-0.750			
0.2316	14819.20	3.8330	3.8332	-0.8279	25.91	0.08	-0.750			
0.2341	14979.87	3.8300	3.8300	-0.8296	25.91	0.08	-0.750			
0.2365	15137.75	3.8270	3.8270	-0.8259	25.92	0.09	-0.750			
0.2390	15295.78	3.8240	3.8240	-0.8193	25.92	0.09	-0.750			
0.2414	15452.44	3.8210	3.8210	-0.8186	25.93	0.10	-0.750			
0.2439	15609.62	3.8180	3.8183	-0.8189	25.93	0.10	-0.750			
0.2463	15765.80	3.8150	3.8149	-0.8173	25.93	0.10	-0.750			
0.2488	15922.43	3.8120	3.8120	-0.8191	25.93	0.10	-0.750			
0.2512	16079.85	3.8090	3.8090	-0.8143	25.93	0.10	-0.750			
0.2537	16237.92	3.8060	3.8060	-0.8173	25.93	0.10	-0.750			
0.2562	16394.20	3.8030	3.8031	-0.8143	25.93	0.10	-0.750			
0.2586	16549.26	3.8000	3.8000	-0.8061	25.93	0.10	-0.750			
0.2610	16703.36	3.7970	3.7969	-0.8064	25.94	0.11	-0.750			
0.2634	16857.57	3.7940	3.7941	-0.8006	25.94	0.11	-0.750			
0.2658	17011.66	3.7910	3.7908	-0.7987	25.95	0.12	-0.750			
0.2682	17166.36	3.7880	3.7881	-0.8011	25.95	0.12	-0.750			
0.2706	17319.36	3.7850	3.7849	-0.7935	25.95	0.12	-0.750			
0.2730	17469.86	3.7820	3.7820	-0.7929	25.96	0.13	-0.750			
0.2754	17622.87	3.7790	3.7789	-0.7915	25.96	0.13	-0.750			
0.2777	17772.89	3.7760	3.7760	-0.7836	25.96	0.13	-0.750			
0.2801	17925.16	3.7730	3.7729	-0.7862	25.97	0.14	-0.750			
0.2824	18074.71	3.7700	3.7701	-0.7829	25.97	0.14	-0.750			
0.2848	18224.61	3.7670	3.7670	-0.7809	25.98	0.15	-0.750			
0.2871	18375.64	3.7640	3.7640	-0.7788	25.98	0.15	-0.750			
0.2894	18523.17	3.7610	3.7610	-0.7723	25.98	0.15	-0.750			
0.2918	18672.44	3.7580	3.7580	-0.7744	25.99	0.16	-0.750			
0.2941	18820.73	3.7550	3.7553	-0.7780	25.99	0.16	-0.750			
0.2964	18969.02	3.7520	3.7519	-0.7777	25.99	0.16	-0.750			
0.2987	19117.91	3.7490	3.7490	-0.7832	25.99	0.16	-0.750			
0.3011	19269.43	3.7460	3.7461	-0.7904	25.99	0.16	-0.750			
0.3035	19422.65	3.7430	3.7430	-0.7976	25.99	0.16	-0.750			
0.3059	19575.90	3.7400	3.7400	-0.8025	25.99	0.16	-0.750			
0.3083	19729.38	3.7370	3.7370	-0.8101	25.99	0.16	-0.750			
0.3107	19885.26	3.7340	3.7339	-0.8209	25.99	0.16	-0.750			
0.3132	20045.14	3.7310	3.7310	-0.8285	26.00	0.17	-0.750			
0.3157	20204.44	3.7280	3.7280	-0.8366	26.00	0.17	-0.750			
0.3182	20367.30	3.7250	3.7250	-0.8477	26.00	0.17	-0.750			
0.3208	20530.08	3.7220	3.7219	-0.8585	26.00	0.17	-0.750			
0.3234	20694.74	3.7190	3.7190	-0.8648	26.00	0.17	-0.750			
0.3259	20860.39	3.7160	3.7160	-0.8782	26.00	0.17	-0.750			
0.3286	21029.32	3.7130	3.7130	-0.8899	26.00	0.17	-0.750			
0.3313	21203.79	3.7100	3.7101	-0.9103	26.00	0.17	-0.750			
0.3340	21378.34	3.7070	3.7070	-0.9271	26.00	0.17	-0.750			
0.3368	21557.97	3.7040	3.7039	-0.9442	26.00	0.17	-0.750			
0.3397	21741.48	3.7010	3.7010	-0.9608	25.99	0.16	-0.750			
0.3426	21926.71	3.6980	3.6980	-0.9783	25.99	0.16	-0.750			
0.3456	22115.83	3.6950	3.6950	-1.0017	25.99	0.16	-0.750			
0.3486	22311.23	3.6920	3.6920	-1.0232	25.98	0.15	-0.750			
0.3517	22508.49	3.6890	3.6888	-1.0428	25.98	0.15	-0.750			
0.3549	22711.17	3.6860	3.6860	-1.0621	25.97	0.14	-0.750			
0.3581	22918.22	3.6830	3.6831	-1.0924	25.97	0.14	-0.750			
0.3614	23131.48	3.6800	3.6799	-1.1153	25.96	0.13	-0.750			
0.3648	23347.84	3.6770	3.6770	-1.1304	25.96	0.13	-0.750			
0.3682	23564.56	3.6740	3.6741	-1.1491	25.95	0.12	-0.750			
0.3717	23788.92	3.6710	3.6710	-1.1691	25.95	0.12	-0.750			
0.3752	24014.09	3.6680	3.6679	-1.1936	25.94	0.11	-0.750			
0.3788	24244.35	3.6650	3.6650	-1.2182	25.93	0.10	-0.750			
0.3825	24478.64	3.6620	3.6620	-1.2486	25.93	0.10	-0.750			
0.3863	24724.86	3.6590	3.6590	-1.2790	25.92	0.09	-0.750			
0.3902	24975.27	3.6560	3.6560	-1.3003	25.92	0.09	-0.750			
0.3942	25226.46	3.6530	3.6532	-1.3293	25.91	0.08	-0.750			
0.3982	25485.74	3.6500	3.6499	-1.3563	25.90	0.07	-0.750			
0.4023	25745.72	3.6470	3.6470	-1.3781	25.90	0.07	-0.750			
0.4064	26011.11	3.6440	3.6442	-1.4124	25.89	0.06	-0.750			
0.4107	26286.31	3.6410	3.6409	-1.4484	25.88	0.05	-0.750			
0.4151	26567.89	3.6380	3.6379	-1.4795	25.87	0.04	-0.750			
0.4196	26855.41	3.6350	3.6352	-1.5153	25.86	0.03	-0.750			
0.4242	27151.12	3.6320	3.6319	-1.5435	25.85	0.02	-0.750			
0.4289	27449.69	3.6290	3.6290	-1.5805	25.84	0.01	-0.750			
0.4336	27752.86	3.6260	3.6259	-1.6099	25.83	-0.00	-0.750			
0.4386	28069.98	3.6230	3.6230	-1.6388	25.82	-0.01	-0.750			
0.4436	28387.37	3.6200	3.6201	-1.6642	25.82	-0.01	-0.750	0.400	0.517	
0.4486	28708.31	3.6170	3.6170	-1.6921	25.82	-0.01	-0.750			
0.4537	29037.50	3.6140	3.6139	-1.7251	25.81	-0.02	-0.750			
0.4589	29367.16	3.6110	3.6112	-1.7624	25.81	-0.02	-0.750			
0.4642	29708.53	3.6080	3.6080	-1.7921	25.80	-0.03	-0.750			
0.4696	30056.90	3.6050	3.6051	-1.8209	25.79	-0.04	-0.750			
0.4752	30412.06	3.6020	3.6019	-1.8558	25.78	-0.05	-0.750			
0.4808	30771.17	3.5990	3.5989	-1.8762	25.77	-0.06	-0.750			
0.4865	31134.06	3.5960	3.5961	-1.9137	25.76	-0.07	-0.750			
0.4923	31505.12	3.5930	3.5930	-1.9325	25.75	-0.08	-0.750			
0.4981	31875.86	3.5900	3.5900	-1.9634	25.74	-0.09	-0.750			
0.5040	32254.71	3.5870	3.5871	-2.0165	25.73	-0.10	-0.750			
0.5101	32648.75	3.5840	3.5838	-2.0650	25.73	-0.10	-0.750			
0.5165	33053.05	3.5810	3.5810	-2.0997	25.72	-0.11	-0.750			
0.5229	33463.71	3.5780	3.5781	-2.1395	25.72	-0.11	-0.750			
0.5294	33879.13	3.5750	3.5751	-2.1655	25.71	-0.12	-0.750			
0.5359	34299.02	3.5720	3.5719	-2.1750	25.71	-0.12	-0.750			
0.5425	34718.29	3.5690	3.5690	-2.1940	25.71	-0.12	-0.750			
0.5490	35136.22	3.5660	3.5661	-2.2037	25.70	-0.13	-0.750			
0.5557	35563.83	3.5630	3.5629	-2.2109	25.69	-0.14	-0.750			
0.5624	35993.49	3.5600	3.5600	-2.2200	25.69	-0.14	-0.750			
0.5690	36418.53	3.5570	3.5570	-2.2195	25.70	-0.13	-0.750			
0.5757	36847.74	3.5540	3.5540	-2.2311	25.70	-0.13	-0.750			
0.5824	37274.46	3.5510	3.5511	-2.2187	25.70	-0.13	-0.750			
0.5891	37699.78	3.5480	3.5479	-2.2202	25.70	-0.13	-0.750			
0.5957	38124.29	3.5450	3.5451	-2.2302	25.70	-0.13	-0.750			
0.6025	38556.95	3.5420	3.5418	-2.2249	25.71	-0.12	-0.750			
0.6092	38988.88	3.5390	3.5390	-2.2106	25.71	-0.12	-0.750			
0.6159	39415.64	3.5360	3.5359	-2.1948	25.72	-0.11	-0.750			
0.6225	39837.78	3.5330	3.5330	-2.1638	25.72	-0.11	-0.750			
0.6290	40257.80	3.5300	3.5302	-2.0948	25.73	-0.10	-0.750			
0.6352	40651.26	3.5270	3.5268	-2.0521	25.74	-0.09	-0.750			
0.6412	41036.58	3.5240	3.5241	-1.9835	25.75	-0.08	-0.750			
0.6471	41413.62	3.5210	3.5206	-1.9372	25.76	-0.07	-0.750			
0.6528	41778.44	3.5180	3.5182	-1.8907	25.76	-0.07	-0.750			
0.6584	42140.47	3.5150	3.5150	-1.8391	25.77	-0.06	-0.750			
0.6640	42495.64	3.5120	3.5120	-1.7984	25.78	-0.05	-0.750			
0.6693	42833.67	3.5090	3.5091	-1.7410	25.79	-0.04	-0.750			
0.6744	43163.58	3.5060	3.5061	-1.6847	25.80	-0.03	-0.750			
0.6794	43484.27	3.5030	3.5030	-1.6370	25.82	-0.01	-0.750			
0.6842	43789.07	3.5000	3.4998	-1.5747	25.83	0.00	-0.750			
0.6889	44088.38	3.4970	3.4970	-1.5190	25.86	0.03	-0.750			
0.6933	44372.42	3.4940	3.4941	-1.4683	25.88	0.05	-0.750			
0.6976	44649.04	3.4910	3.4910	-1.4160	25.89	0.06	-0.750			
0.7018	44916.14	3.4880	3.4879	-1.3620	25.91	0.08	-0.750			
0.7058	45173.95	3.4850	3.4851	-1.3294	25.92	0.09	-0.750			
0.7097	45423.07	3.4820	3.4820	-1.2839	25.93	0.10	-0.750			
0.7136	45667.38	3.4790	3.4789	-1.2491	25.95	0.12	-0.750			
0.7173	45904.05	3.4760	3.4759	-1.2088	25.96	0.13	-0.750			
0.7208	46130.63	3.4730	3.4730	-1.1715	25.98	0.15	-0.750			
0.7243	46357.03	3.4700	3.4699	-1.1330	26.00	0.17	-0.750			
0.7277	46570.36	3.4670	3.4670	-1.0909	26.01	0.18	-0.750			
0.7308	46772.70	3.4640	3.4642	-1.0457	26.03	0.20	-0.750			
0.7339	46970.03	3.4610	3.4609	-1.0191	26.04	0.21	-0.750			
0.7369	47159.79	3.4580	3.4580	-0.9862	26.05	0.22	-0.750			
0.7398	47345.87	3.4550	3.4549	-0.9595	26.06	0.23	-0.750			
0.7426	47526.00	3.4520	3.4520	-0.9305	26.07	0.24	-0.750			
0.7454	47706.43	3.4490	3.4490	-0.9141	26.08	0.25	-0.750			
0.7481	47876.97	3.4460	3.4460	-0.8956	26.09	0.26	-0.750			
0.7507	48044.72	3.4430	3.4429	-0.8791	26.10	0.27	-0.750			
0.7532	48207.94	3.4400	3.4400	-0.8755	26.11	0.28	-0.750			
0.7559	48375.70	3.4370	3.4369	-0.8828	26.12	0.29	-0.750			
0.7585	48543.00	3.4340	3.4340	-0.9001	26.13	0.30	-0.750			
0.7612	48717.78	3.4310	3.4310	-0.9181	26.14	0.31	-0.750			
0.7640	48896.02	3.4280	3.4280	-0.9362	26.15	0.32	-0.750			
0.7668	49078.39	3.4250	3.4250	-0.9512	26.16	0.33	-0.750			
0.7698	49264.14	3.4220	3.4221	-0.9692	26.17	0.34	-0.750			
0.7727	49451.36	3.4190	3.4190	-0.9826	26.18	0.35	-0.750			
0.7757	49642.82	3.4160	3.4159	-0.9900	26.19	0.36	-0.750			
0.7786	49833.33	3.4130	3.4130	-0.9922	26.20	0.37	-0.750			
0.7817	50027.70	3.4100	3.4101	-0.9893	26.21	0.38	-0.750			
0.7847	50220.62	3.4070	3.4070	-0.9814	26.22	0.39	-0.750			
0.7876	50409.08	3.4040	3.4040	-0.9602	26.23	0.40	-0.750			
0.7905	50591.75	3.4010	3.4010	-0.9304	26.24	0.41	-0.750			
0.7933	50768.02	3.3980	3.3980	-0.9011	26.25	0.42	-0.750			
0.7959	50937.96	3.3950	3.3949	-0.8684	26.25	0.42	-0.750			
0.7984	51100.52	3.3920	3.3921	-0.8378	26.26	0.43	-0.750			
0.8009	51259.16	3.3890	3.3889	-0.8065	26.26	0.43	-0.750			
0.8033	51410.63	3.3860	3.3859	-0.7733	26.27	0.44	-0.750			
0.8056	51556.48	3.3830	3.3830	-0.7433	26.27	0.44	-0.750			
0.8077	51695.93	3.3800	3.3800	-0.7140	26.27	0.44	-0.750			
0.8098	51829.64	3.3770	3.3769	-0.6847	26.28	0.45	-0.750			
0.8118	51957.35	3.3740	3.3740	-0.6608	26.29	0.46	-0.750			
0.8137	52079.92	3.3710	3.3710	-0.6345	26.29	0.46	-0.750			
0.8156	52201.40	3.3680	3.3680	-0.6171	26.30	0.47	-0.750			
0.8175	52317.82	3.3650	3.3650	-0.5953	26.31	0.48	-0.750			
0.8192	52430.25	3.3620	3.3620	-0.5733	26.31	0.48	-0.750			
0.8209	52538.48	3.3590	3.3590	-0.5515	26.32	0.49	-0.750			
0.8225	52642.04	3.3560	3.3560	-0.5288	26.33	0.50	-0.750			
0.8241	52740.82	3.3530	3.3530	-0.5077	26.33	0.50	-0.750			
0.8256	52835.86	3.3500	3.3500	-0.4903	26.34	0.51	-0.750			
0.8270	52927.43	3.3470	3.3470	-0.4729	26.35	0.52	-0.750			
0.8284	53016.68	3.3440	3.3440	-0.4566	26.36	0.53	-0.750			
0.8297	53103.30	3.3410	3.3410	-0.4400	26.36	0.53	-0.750			
0.8310	53186.15	3.3380	3.3380	-0.4268	26.37	0.54	-0.750			
0.8323	53266.54	3.3350	3.3350	-0.4120	26.37	0.54	-0.750			
0.8335	53343.47	3.3320	3.3320	-0.3967	26.38	0.55	-0.750			
0.8347	53417.74	3.3290	3.3289	-0.3849	26.39	0.56	-0.750			
0.8358	53490.44	3.3260	3.3260	-0.3728	26.39	0.56	-0.750			
0.8369	53561.07	3.3230	3.3230	-0.3632	26.40	0.57	-0.750			
0.8380	53630.20	3.3200	3.3200	-0.3508	26.40	0.57	-0.750			
0.8390	53696.16	3.3170	3.3171	-0.3377	26.41	0.58	-0.750			
0.8400	53759.81	3.3140	3.3140	-0.3296	26.41	0.58	-0.750			
0.8410	53821.50	3.3110	3.3112	-0.3182	26.42	0.59	-0.750			
0.8419	53881.13	3.3080	3.3079	-0.3101	26.42	0.59	-0.750			
0.8428	53940.10	3.3050	3.3049	-0.3021	26.42	0.59	-0.750			
0.8437	53997.17	3.3020	3.3022	-0.2937	26.43	0.60	-0.750			
0.8446	54053.25	3.2990	3.2990	-0.2876	26.44	0.61	-0.750			
0.8454	54107.07	3.2960	3.2960	-0.2791	26.44	0.61	-0.750			
0.8462	54159.83	3.2930	3.2930	-0.2713	26.45	0.62	-0.750			
0.8470	54210.46	3.2900	3.2899	-0.2634	26.45	0.62	-0.750			
0.8478	54259.96	3.2870	3.2871	-0.2584	26.46	0.63	-0.750			
0.8486	54309.46	3.2840	3.2841	-0.2545	26.46	0.63	-0.750			
0.8493	54358.00	3.2810	3.2810	-0.2501	26.47	0.64	-0.750			
0.8501	54405.88	3.2780	3.2780	-0.2453	26.47	0.64	-0.750			
0.8508	54452.19	3.2750	3.2750	-0.2397	26.48	0.65	-0.750			
0.8515	54498.24	3.2720	3.2720	-0.2347	26.49	0.66	-0.750			
0.8522	54542.62	3.2690	3.2690	-0.2304	26.49	0.66	-0.750			
0.8529	54585.62	3.2660	3.2660	-0.2244	26.50	0.67	-0.750			
0.8536	54628.34	3.2630	3.2630	-0.2207	26.50	0.67	-0.750			
0.8542	54670.07	3.2600	3.2599	-0.2177	26.50	0.67	-0.750			
0.8549	54711.72	3.2570	3.2570	-0.2131	26.51	0.68	-0.750			
0.8555	54752.35	3.2540	3.2541	-0.2105	26.51	0.68	-0.750			
0.8561	54792.43	3.2510	3.2510	-0.2070	26.52	0.69	-0.750			
0.8568	54832.07	3.2480	3.2481	-0.2032	26.52	0.69	-0.750			
0.8574	54870.43	3.2450	3.2449	-0.1992	26.53	0.70	-0.750			
0.8579	54908.00	3.2420	3.2421	-0.1960	26.54	0.71	-0.750			
0.8585	54945.38	3.2390	3.2390	-0.1934	26.54	0.71	-0.750			
0.8591	54982.02	3.2360	3.2360	-0.1908	26.55	0.72	-0.750			
0.8597	55018.85	3.2330	3.2329	-0.1884	26.55	0.72	-0.750			
0.8602	55054.37	3.2300	3.2301	-0.1851	26.56	0.73	-0.750			
0.8608	55089.69	3.2270	3.2270	-0.1828	26.56	0.73	-0.750			
0.8613	55124.76	3.2240	3.2240	-0.1810	26.57	0.74	-0.750			
0.8619	55159.10	3.2210	3.2210	-0.1790	26.57	0.74	-0.750			
0.8624	55193.05	3.2180	3.2179	-0.1766	26.58	0.75	-0.750			
0.8629	55226.83	3.2150	3.2151	-0.1753	26.58	0.75	-0.750			
0.8634	55260.49	3.2120	3.2119	-0.1728	26.59	0.76	-0.750			
0.8640	55293.62	3.2090	3.2090	-0.1713	26.59	0.76	-0.750			
0.8645	55326.11	3.2060	3.2061	-0.1695	26.60	0.77	-0.750			
0.8650	55358.48	3.2030	3.2030	-0.1677	26.60	0.77	-0.750			
0.8655	55390.49	3.2000	3.2000	-0.1654	26.61	0.78	-0.750			
0.8660	55421.94	3.1970	3.1971	-0.1634	26.61	0.78	-0.750			
0.8665	55453.14	3.1940	3.1939	-0.1621	26.62	0.79	-0.750			
0.8669	55484.11	3.1910	3.1911	-0.1605	26.62	0.79	-0.750			
0.8674	55515.00	3.1880	3.1879	-0.1588	26.63	0.80	-0.750			
0.8679	55545.15	3.1850	3.1850	-0.1566	26.63	0.80	-0.750			
0.8684	55574.97	3.1820	3.1820	-0.1548	26.64	0.81	-0.750			
0.8688	55604.58	3.1790	3.1791	-0.1529	26.64	0.81	-0.750			
0.8693	55633.84	3.1760	3.1760	-0.1518	26.64	0.81	-0.750			
0.8697	55662.55	3.1730	3.1730	-0.1502	26.65	0.82	-0.750			
0.8702	55691.29	3.1700	3.1700	-0.1491	26.65	0.82	-0.750			
0.8706	55719.73	3.1670	3.1670	-0.1469	26.66	0.83	-0.750			
0.8711	55747.72	3.1640	3.1640	-0.1466	26.66	0.83	-0.750			
0.8715	55775.72	3.1610	3.1610	-0.1457	26.67	0.84	-0.750			
0.8719	55803.61	3.1580	3.1581	-0.1449	26.67	0.84	-0.750			
0.8724	55831.48	3.1550	3.1547	-0.1434	26.68	0.85	-0.750			
0.8728	55858.81	3.1520	3.1522	-0.1421	26.68	0.85	-0.750			
0.8732	55886.04	3.1490	3.1490	-0.1411	26.69	0.86	-0.750			
0.8736	55913.02	3.1460	3.1461	-0.1400	26.69	0.86	-0.750			
0.8741	55940.15	3.1430	3.1429	-0.1385	26.70	0.87	-0.750			
0.8745	55966.20	3.1400	3.1400	-0.1364	26.70	0.87	-0.750			
0.8749	55992.24	3.1370	3.1370	-0.1353	26.71	0.88	-0.750			
0.8753	56018.11	3.1340	3.1341	-0.1342	26.71	0.88	-0.750			
0.8757	56043.88	3.1310	3.1310	-0.1329	26.72	0.89	-0.750			
0.8761	56068.93	3.1280	3.1280	-0.1320	26.72	0.89	-0.750			
0.8765	56094.07	3.1250	3.1250	-0.1313	26.73	0.90	-0.750			
0.8769	56119.27	3.1220	3.1220	-0.1312	26.73	0.90	-0.750			
0.8773	56144.61	3.1190	3.1189	-0.1304	26.74	0.91	-0.750			
0.8777	56169.65	3.1160	3.1163	-0.1295	26.74	0.91	-0.750			
0.8780	56194.52	3.1130	3.1131	-0.1287	26.74	0.91	-0.750			
0.8784	56219.16	3.1100	3.1100	-0.1274	26.75	0.92	-0.750			
0.8788	56243.75	3.1070	3.1070	-0.1262	26.75	0.92	-0.750			
0.8792	56267.54	3.1040	3.1039	-0.1249	26.76	0.93	-0.750			
0.8796	56291.32	3.1010	3.1010	-0.1237	26.76	0.93	-0.750			
0.8799	56315.00	3.0980	3.0981	-0.1229	26.76	0.93	-0.750			
0.8803	56338.56	3.0950	3.0949	-0.1222	26.77	0.94	-0.750			
0.8807	56361.92	3.0920	3.0921	-0.1214	26.77	0.94	-0.750			
0.8810	56385.08	3.0890	3.0890	-0.1205	26.78	0.95	-0.750			
0.8814	56408.22	3.0860	3.0861	-0.1198	26.78	0.95	-0.750			
0.8817	56431.14	3.0830	3.0829	-0.1190	26.79	0.96	-0.750			
0.8821	56453.85	3.0800	3.0801	-0.1181	26.79	0.96	-0.750			
0.8824	56476.46	3.0770	3.0770	-0.1174	26.80	0.97	-0.750			
0.8828	56498.90	3.0740	3.0741	-0.1167	26.80	0.97	-0.750			
0.8831	56521.25	3.0710	3.0710	-0.1160	26.81	0.98	-0.750			
0.8835	56543.54	3.0680	3.0680	-0.1151	26.82	0.99	-0.750			
0.8838	56565.57	3.0650	3.0650	-0.1142	26.82	0.99	-0.750			
0.8842	56587.29	3.0620	3.0621	-0.1138	26.83	1.00	-0.750			
0.8845	56609.09	3.0590	3.0590	-0.1133	26.83	1.00	-0.750			
0.8849	56630.73	3.0560	3.0560	-0.1125	26.84	1.01	-0.750			
0.8852	56652.30	3.0530	3.0529	-0.1121	26.85	1.02	-0.750			
0.8855	56673.84	3.0500	3.0501	-0.1113	26.85	1.02	-0.750			
0.8859	56695.17	3.0470	3.0470	-0.1107	26.86	1.03	-0.750			
0.8862	56716.34	3.0440	3.0440	-0.1101	26.86	1.03	-0.750			
0.8865	56737.59	3.0410	3.0410	-0.1095	26.87	1.04	-0.750			
0.8869	56758.53	3.0380	3.0380	-0.1086	26.87	1.04	-0.750			
0.8872	56779.19	3.0350	3.0350	-0.1077	26.88	1.05	-0.750			
0.8875	56799.79	3.0320	3.0320	-0.1071	26.89	1.06	-0.750			
0.8878	56820.28	3.0290	3.0291	-0.1064	26.89	1.06	-0.750			
0.8881	56840.59	3.0260	3.0260	-0.1060	26.90	1.07	-0.750			
0.8885	56860.90	3.0230	3.0229	-0.1055	26.90	1.07	-0.750			
0.8888	56881.03	3.0200	3.0200	-0.1048	26.91	1.08	-0.750			
0.8891	56901.12	3.0170	3.0170	-0.1045	26.91	1.08	-0.750			
0.8894	56921.46	3.0140	3.0140	-0.1035	26.92	1.09	-0.750			
0.8897	56941.21	3.0110	3.0110	-0.1022	26.92	1.09	-0.750			
0.8900	56960.99	3.0080	3.0080	-0.1007	26.93	1.10	-0.750			
0.8903	56980.14	3.0050	3.0050	-0.0988	26.93	1.10	-0.751			
0.8906	56998.89	3.0020	3.0020	-0.0951	26.94	1.11	-0.751			
