Ah_balance (normalized)	Ah_balance (mAh)	Voltage - fit (V)	Voltage -  interpolate (V)	dQ/dV (1/V)	Temperature (°C)	Temperature - diff (°C)	Current (C)	R_DC 0ms (mOhm)	R_DC 50ms (mOhm)	R_DC 50 ms PEC (mOhm)
0.0003	20.96	4.1650	4.1648	-0.1257	26.00	0.03	-0.750			
0.0008	49.61	4.1620	4.1619	-0.1721	26.00	0.03	-0.750			
0.0014	87.25	4.1590	4.1590	-0.2173	26.00	0.03	-0.750			
0.0021	134.00	4.1560	4.1560	-0.2599	25.99	0.02	-0.750			
0.0029	187.92	4.1530	4.1530	-0.3023	25.99	0.02	-0.750			
0.0039	250.88	4.1500	4.1500	-0.3438	25.99	0.02	-0.750			
0.0050	321.36	4.1470	4.1471	-0.3823	25.98	0.01	-0.750			
0.0062	398.87	4.1440	4.1440	-0.4171	25.98	0.01	-0.750			
0.0076	483.54	4.1410	4.1411	-0.4505	25.98	0.01	-0.750			
0.0090	573.21	4.1380	4.1380	-0.4827	25.97	0.00	-0.750			
0.0105	669.86	4.1350	4.1350	-0.5118	25.97	-0.00	-0.750			
0.0120	770.93	4.1320	4.1320	-0.5347	25.96	-0.01	-0.750			
0.0137	876.99	4.1290	4.1290	-0.5582	25.96	-0.01	-0.750			
0.0154	985.60	4.1260	4.1261	-0.5825	25.95	-0.02	-0.750			
0.0172	1102.25	4.1230	4.1230	-0.5976	25.94	-0.03	-0.750			
0.0190	1218.54	4.1200	4.1200	-0.6105	25.94	-0.03	-0.750			
0.0209	1336.90	4.1170	4.1170	-0.6239	25.93	-0.04	-0.750			
0.0228	1458.43	4.1140	4.1141	-0.6367	25.93	-0.04	-0.750			
0.0247	1582.04	4.1110	4.1109	-0.6486	25.93	-0.04	-0.750			
0.0267	1707.30	4.1080	4.1080	-0.6553	25.92	-0.05	-0.750			
0.0286	1833.44	4.1050	4.1051	-0.6666	25.92	-0.05	-0.750			
0.0307	1966.04	4.1020	4.1020	-0.6704	25.92	-0.05	-0.750			
0.0327	2095.44	4.0990	4.0990	-0.6761	25.91	-0.06	-0.750			
0.0348	2225.05	4.0960	4.0962	-0.6818	25.91	-0.06	-0.750			
0.0368	2355.42	4.0930	4.0929	-0.6881	25.91	-0.06	-0.750			
0.0389	2486.73	4.0900	4.0899	-0.6996	25.91	-0.06	-0.750			
0.0410	2623.31	4.0870	4.0870	-0.7021	25.91	-0.06	-0.750			
0.0431	2759.94	4.0840	4.0840	-0.7111	25.91	-0.06	-0.750			
0.0453	2898.00	4.0810	4.0810	-0.7138	25.91	-0.06	-0.750			
0.0474	3034.07	4.0780	4.0781	-0.7149	25.91	-0.06	-0.750			
0.0496	3171.77	4.0750	4.0749	-0.7173	25.91	-0.06	-0.750			
0.0517	3307.59	4.0720	4.0720	-0.7236	25.90	-0.07	-0.750			
0.0539	3447.11	4.0690	4.0690	-0.7240	25.90	-0.07	-0.750			
0.0561	3589.50	4.0660	4.0659	-0.7313	25.90	-0.07	-0.750			
0.0583	3729.61	4.0630	4.0630	-0.7321	25.89	-0.08	-0.750			
0.0605	3871.16	4.0600	4.0599	-0.7332	25.89	-0.08	-0.750			
0.0627	4011.15	4.0570	4.0570	-0.7322	25.89	-0.08	-0.750			
0.0649	4151.76	4.0540	4.0539	-0.7377	25.89	-0.08	-0.750			
0.0671	4291.51	4.0510	4.0511	-0.7387	25.90	-0.07	-0.750			
0.0693	4436.29	4.0480	4.0480	-0.7435	25.90	-0.07	-0.750			
0.0716	4579.70	4.0450	4.0451	-0.7443	25.90	-0.07	-0.750			
0.0738	4722.26	4.0420	4.0420	-0.7450	25.90	-0.07	-0.750			
0.0760	4865.77	4.0390	4.0390	-0.7446	25.90	-0.07	-0.750			
0.0783	5008.65	4.0360	4.0360	-0.7480	25.89	-0.08	-0.750			
0.0805	5151.58	4.0330	4.0330	-0.7485	25.89	-0.08	-0.750			
0.0828	5296.61	4.0300	4.0300	-0.7507	25.89	-0.08	-0.750			
0.0850	5441.11	4.0270	4.0271	-0.7541	25.89	-0.08	-0.750			
0.0873	5586.26	4.0240	4.0239	-0.7557	25.89	-0.08	-0.750			
0.0895	5730.90	4.0210	4.0210	-0.7599	25.90	-0.07	-0.750			
0.0918	5876.44	4.0180	4.0180	-0.7575	25.90	-0.07	-0.750			
0.0941	6023.71	4.0150	4.0150	-0.7615	25.91	-0.06	-0.750			
0.0964	6169.44	4.0120	4.0120	-0.7649	25.91	-0.06	-0.750			
0.0987	6317.10	4.0090	4.0090	-0.7662	25.91	-0.06	-0.750			
0.1010	6463.24	4.0060	4.0058	-0.7666	25.91	-0.06	-0.750			
0.1033	6610.76	4.0030	4.0031	-0.7683	25.91	-0.06	-0.750			
0.1056	6757.96	4.0000	4.0001	-0.7686	25.91	-0.06	-0.750			
0.1079	6908.02	3.9970	3.9969	-0.7754	25.91	-0.06	-0.750			
0.1103	7056.19	3.9940	3.9940	-0.7769	25.91	-0.06	-0.750			
0.1126	7203.59	3.9910	3.9910	-0.7767	25.91	-0.06	-0.750			
0.1149	7354.06	3.9880	3.9880	-0.7821	25.91	-0.06	-0.750			
0.1173	7505.23	3.9850	3.9850	-0.7819	25.91	-0.06	-0.750			
0.1196	7655.79	3.9820	3.9820	-0.7847	25.91	-0.06	-0.750			
0.1220	7806.24	3.9790	3.9792	-0.7873	25.91	-0.06	-0.750			
0.1243	7957.36	3.9760	3.9759	-0.7871	25.91	-0.06	-0.750			
0.1267	8108.44	3.9730	3.9730	-0.7877	25.92	-0.05	-0.750			
0.1291	8260.42	3.9700	3.9700	-0.7893	25.92	-0.05	-0.750			
0.1314	8411.74	3.9670	3.9670	-0.7934	25.93	-0.04	-0.750			
0.1338	8563.98	3.9640	3.9639	-0.7994	25.93	-0.04	-0.750			
0.1362	8717.23	3.9610	3.9609	-0.7961	25.93	-0.04	-0.750			
0.1386	8869.86	3.9580	3.9580	-0.8020	25.93	-0.04	-0.750			
0.1410	9025.38	3.9550	3.9551	-0.8025	25.93	-0.04	-0.750			
0.1434	9179.37	3.9520	3.9519	-0.8031	25.93	-0.04	-0.750			
0.1458	9334.08	3.9490	3.9490	-0.8075	25.93	-0.04	-0.750			
0.1483	9488.60	3.9460	3.9459	-0.8093	25.93	-0.04	-0.750			
0.1507	9642.46	3.9430	3.9430	-0.8166	25.94	-0.03	-0.750			
0.1532	9802.73	3.9400	3.9400	-0.8201	25.94	-0.03	-0.750			
0.1556	9960.13	3.9370	3.9370	-0.8175	25.94	-0.03	-0.750			
0.1581	10118.64	3.9340	3.9340	-0.8187	25.95	-0.02	-0.750			
0.1606	10275.34	3.9310	3.9311	-0.8186	25.95	-0.02	-0.750			
0.1630	10430.87	3.9280	3.9279	-0.8227	25.95	-0.02	-0.750			
0.1654	10588.34	3.9250	3.9250	-0.8226	25.95	-0.02	-0.750			
0.1679	10746.18	3.9220	3.9220	-0.8217	25.96	-0.01	-0.750			
0.1704	10906.24	3.9190	3.9189	-0.8258	25.96	-0.01	-0.750			
0.1729	11066.18	3.9160	3.9161	-0.8272	25.96	-0.01	-0.750			
0.1754	11223.36	3.9130	3.9130	-0.8295	25.96	-0.01	-0.750			
0.1778	11381.85	3.9100	3.9099	-0.8291	25.96	-0.01	-0.750			
0.1803	11540.65	3.9070	3.9070	-0.8283	25.97	-0.00	-0.750			
0.1828	11701.78	3.9040	3.9039	-0.8349	25.97	-0.00	-0.750			
0.1854	11863.61	3.9010	3.9011	-0.8376	25.97	0.00	-0.750			
0.1879	12022.89	3.8980	3.8979	-0.8439	25.97	0.00	-0.750			
0.1904	12185.57	3.8950	3.8949	-0.8422	25.97	0.00	-0.750			
0.1929	12346.78	3.8920	3.8920	-0.8385	25.97	0.00	-0.750			
0.1955	12509.63	3.8890	3.8890	-0.8394	25.97	0.00	-0.750			
0.1980	12672.70	3.8860	3.8859	-0.8373	25.97	0.00	-0.750			
0.2005	12830.67	3.8830	3.8830	-0.8443	25.98	0.01	-0.750			
0.2030	12991.72	3.8800	3.8799	-0.8417	25.98	0.01	-0.750			
0.2055	13152.39	3.8770	3.8769	-0.8406	25.98	0.01	-0.750			
0.2081	13316.80	3.8740	3.8740	-0.8475	25.99	0.02	-0.750			
0.2106	13480.66	3.8710	3.8709	-0.8489	25.99	0.02	-0.750			
0.2132	13643.29	3.8680	3.8680	-0.8516	26.00	0.03	-0.750			
0.2157	13806.31	3.8650	3.8650	-0.8498	26.00	0.03	-0.750			
0.2183	13968.00	3.8620	3.8620	-0.8434	26.00	0.03	-0.750			
0.2208	14131.93	3.8590	3.8590	-0.8522	26.01	0.04	-0.750			
0.2234	14294.94	3.8560	3.8560	-0.8546	26.01	0.04	-0.750			
0.2259	14458.28	3.8530	3.8529	-0.8578	26.01	0.04	-0.750			
0.2285	14623.05	3.8500	3.8500	-0.8608	26.02	0.05	-0.750			
0.2311	14789.29	3.8470	3.8470	-0.8634	26.02	0.05	-0.750			
0.2337	14956.70	3.8440	3.8438	-0.8661	26.02	0.05	-0.750			
0.2363	15124.59	3.8410	3.8410	-0.8654	26.02	0.05	-0.750			
0.2389	15289.15	3.8380	3.8380	-0.8649	26.02	0.05	-0.750			
0.2415	15455.43	3.8350	3.8350	-0.8610	26.03	0.06	-0.750			
0.2441	15619.48	3.8320	3.8319	-0.8570	26.03	0.06	-0.750			
0.2466	15785.26	3.8290	3.8292	-0.8576	26.03	0.06	-0.750			
0.2492	15948.89	3.8260	3.8259	-0.8580	26.03	0.06	-0.750			
0.2518	16113.15	3.8230	3.8230	-0.8651	26.04	0.07	-0.750			
0.2544	16281.01	3.8200	3.8199	-0.8628	26.04	0.07	-0.750			
0.2570	16447.49	3.8170	3.8169	-0.8660	26.05	0.08	-0.750			
0.2596	16614.38	3.8140	3.8142	-0.8635	26.05	0.08	-0.750			
0.2622	16779.61	3.8110	3.8109	-0.8595	26.05	0.08	-0.750			
0.2648	16944.51	3.8080	3.8079	-0.8627	26.05	0.08	-0.750			
0.2673	17107.74	3.8050	3.8050	-0.8573	26.05	0.08	-0.750			
0.2699	17273.72	3.8020	3.8019	-0.8602	26.05	0.08	-0.750			
0.2725	17440.13	3.7990	3.7991	-0.8599	26.05	0.08	-0.750			
0.2751	17604.21	3.7960	3.7960	-0.8584	26.06	0.09	-0.750			
0.2776	17769.10	3.7930	3.7929	-0.8558	26.06	0.09	-0.750			
0.2802	17930.58	3.7900	3.7901	-0.8500	26.06	0.09	-0.750			
0.2828	18096.28	3.7870	3.7869	-0.8574	26.07	0.10	-0.750			
0.2853	18261.32	3.7840	3.7840	-0.8560	26.07	0.10	-0.750			
0.2879	18426.22	3.7810	3.7809	-0.8526	26.07	0.10	-0.750			
0.2905	18589.90	3.7780	3.7781	-0.8507	26.07	0.10	-0.750			
0.2930	18751.41	3.7750	3.7750	-0.8417	26.08	0.11	-0.750			
0.2955	18913.54	3.7720	3.7720	-0.8455	26.08	0.11	-0.750			
0.2980	19074.23	3.7690	3.7691	-0.8428	26.08	0.11	-0.750			
0.3006	19235.48	3.7660	3.7660	-0.8464	26.08	0.11	-0.750			
0.3031	19400.46	3.7630	3.7629	-0.8443	26.09	0.12	-0.750			
0.3057	19562.83	3.7600	3.7601	-0.8410	26.09	0.12	-0.750			
0.3082	19723.63	3.7570	3.7570	-0.8388	26.09	0.12	-0.750			
0.3107	19885.24	3.7540	3.7539	-0.8371	26.09	0.12	-0.750			
0.3132	20044.37	3.7510	3.7510	-0.8401	26.10	0.13	-0.750			
0.3157	20203.88	3.7480	3.7480	-0.8414	26.10	0.13	-0.750			
0.3182	20366.49	3.7450	3.7450	-0.8429	26.10	0.13	-0.750			
0.3208	20530.78	3.7420	3.7419	-0.8471	26.11	0.14	-0.750			
0.3233	20692.40	3.7390	3.7390	-0.8533	26.11	0.14	-0.750			
0.3259	20855.62	3.7360	3.7360	-0.8657	26.11	0.14	-0.750			
0.3285	21022.17	3.7330	3.7330	-0.8711	26.11	0.14	-0.750			
0.3311	21191.02	3.7300	3.7299	-0.8707	26.11	0.14	-0.750			
0.3338	21360.96	3.7270	3.7270	-0.8838	26.11	0.14	-0.750			
0.3364	21530.93	3.7240	3.7240	-0.8963	26.11	0.14	-0.750			
0.3391	21702.64	3.7210	3.7209	-0.9011	26.12	0.15	-0.750			
0.3418	21873.96	3.7180	3.7179	-0.9070	26.12	0.15	-0.750			
0.3445	22046.87	3.7150	3.7151	-0.9213	26.13	0.16	-0.750			
0.3473	22228.96	3.7120	3.7122	-0.9436	26.13	0.16	-0.750			
0.3502	22412.57	3.7090	3.7089	-0.9599	26.13	0.16	-0.750			
0.3531	22596.62	3.7060	3.7060	-0.9713	26.13	0.16	-0.750			
0.3560	22784.47	3.7030	3.7031	-0.9897	26.13	0.16	-0.750			
0.3590	22977.48	3.7000	3.7002	-1.0079	26.13	0.16	-0.750			
0.3621	23171.92	3.6970	3.6968	-1.0294	26.13	0.16	-0.750			
0.3651	23369.31	3.6940	3.6941	-1.0465	26.13	0.16	-0.750			
0.3683	23572.72	3.6910	3.6910	-1.0635	26.12	0.15	-0.750			
0.3716	23781.04	3.6880	3.6881	-1.0934	26.12	0.15	-0.750			
0.3749	23991.11	3.6850	3.6850	-1.1143	26.12	0.15	-0.750			
0.3782	24205.37	3.6820	3.6819	-1.1371	26.11	0.14	-0.750			
0.3817	24427.23	3.6790	3.6790	-1.1611	26.11	0.14	-0.750			
0.3852	24652.02	3.6760	3.6760	-1.1846	26.11	0.14	-0.750			
0.3888	24884.89	3.6730	3.6730	-1.2074	26.10	0.13	-0.750			
0.3925	25118.52	3.6700	3.6700	-1.2312	26.10	0.13	-0.750			
0.3962	25354.62	3.6670	3.6668	-1.2512	26.09	0.12	-0.750			
0.3999	25595.91	3.6640	3.6640	-1.2850	26.08	0.11	-0.750			
0.4038	25844.26	3.6610	3.6610	-1.3194	26.08	0.11	-0.750			
0.4078	26101.82	3.6580	3.6579	-1.3590	26.07	0.10	-0.750			
0.4120	26369.55	3.6550	3.6550	-1.3964	26.07	0.10	-0.750			
0.4162	26638.86	3.6520	3.6520	-1.4334	26.06	0.09	-0.750			
0.4206	26918.33	3.6490	3.6490	-1.4671	26.05	0.08	-0.750			
0.4251	27204.89	3.6460	3.6458	-1.4998	26.04	0.07	-0.750			
0.4296	27496.08	3.6430	3.6427	-1.5260	26.04	0.07	-0.750			
0.4343	27792.18	3.6400	3.6403	-1.5504	26.03	0.06	-0.750			
0.4389	28090.17	3.6370	3.6371	-1.5825	26.02	0.05	-0.750			
0.4437	28398.32	3.6340	3.6339	-1.6269	26.01	0.04	-0.750			
0.4486	28708.50	3.6310	3.6310	-1.6421	26.01	0.04	-0.750			
0.4536	29033.03	3.6280	3.6279	-1.7024	26.00	0.03	-0.750			
0.4588	29360.75	3.6250	3.6249	-1.7377	25.99	0.02	-0.750	0.396	0.486	
0.4642	29705.93	3.6220	3.6219	-1.7615	25.98	0.01	-0.750			
0.4695	30047.05	3.6190	3.6191	-1.7853	25.97	0.00	-0.750			
0.4748	30386.61	3.6160	3.6160	-1.8122	25.97	-0.00	-0.750			
0.4803	30739.49	3.6130	3.6128	-1.8360	25.96	-0.01	-0.750			
0.4858	31093.86	3.6100	3.6102	-1.8869	25.96	-0.01	-0.750			
0.4915	31458.13	3.6070	3.6068	-1.9131	25.95	-0.02	-0.750			
0.4973	31827.69	3.6040	3.6042	-1.9558	25.95	-0.02	-0.750			
0.5033	32213.70	3.6010	3.6011	-1.9930	25.94	-0.03	-0.750			
0.5093	32596.91	3.5980	3.5979	-2.0235	25.93	-0.04	-0.750			
0.5154	32987.65	3.5950	3.5950	-2.0741	25.93	-0.04	-0.750			
0.5217	33391.88	3.5920	3.5919	-2.1115	25.93	-0.04	-0.750			
0.5281	33797.09	3.5890	3.5893	-2.1523	25.92	-0.05	-0.750			
0.5347	34220.39	3.5860	3.5860	-2.1746	25.92	-0.05	-0.750			
0.5412	34638.79	3.5830	3.5828	-2.2074	25.91	-0.06	-0.750			
0.5479	35066.17	3.5800	3.5800	-2.2421	25.91	-0.06	-0.750			
0.5547	35502.22	3.5770	3.5769	-2.2761	25.91	-0.06	-0.750			
0.5616	35941.49	3.5740	3.5741	-2.2886	25.91	-0.06	-0.750			
0.5685	36384.31	3.5710	3.5710	-2.3112	25.91	-0.06	-0.750			
0.5755	36833.03	3.5680	3.5681	-2.3266	25.91	-0.06	-0.750			
0.5825	37282.00	3.5650	3.5651	-2.3420	25.91	-0.06	-0.750			
0.5896	37735.74	3.5620	3.5620	-2.3514	25.91	-0.06	-0.750			
0.5967	38185.79	3.5590	3.5589	-2.3586	25.91	-0.06	-0.750			
0.6038	38643.82	3.5560	3.5561	-2.3486	25.91	-0.06	-0.750			
0.6109	39095.97	3.5530	3.5530	-2.3426	25.91	-0.06	-0.750			
0.6179	39544.32	3.5500	3.5500	-2.3338	25.91	-0.06	-0.750			
0.6248	39988.32	3.5470	3.5468	-2.3133	25.91	-0.06	-0.750			
0.6318	40432.26	3.5440	3.5440	-2.2926	25.92	-0.05	-0.750			
0.6387	40874.87	3.5410	3.5410	-2.2735	25.92	-0.05	-0.750			
0.6455	41311.86	3.5380	3.5380	-2.2409	25.93	-0.04	-0.750			
0.6522	41740.29	3.5350	3.5350	-2.2057	25.93	-0.04	-0.750			
0.6588	42161.57	3.5320	3.5321	-2.1495	25.94	-0.03	-0.750			
0.6651	42567.88	3.5290	3.5290	-2.1009	25.94	-0.03	-0.750			
0.6713	42965.69	3.5260	3.5260	-2.0515	25.95	-0.02	-0.750			
0.6774	43355.58	3.5230	3.5228	-2.0008	25.96	-0.01	-0.750			
0.6834	43738.77	3.5200	3.5201	-1.9407	25.97	-0.00	-0.750			
0.6892	44106.06	3.5170	3.5170	-1.8831	25.99	0.02	-0.750			
0.6947	44462.34	3.5140	3.5141	-1.8119	26.00	0.03	-0.750			
0.7001	44805.35	3.5110	3.5111	-1.7526	26.02	0.05	-0.750			
0.7052	45133.73	3.5080	3.5081	-1.7014	26.02	0.05	-0.750			
0.7102	45455.90	3.5050	3.5050	-1.6369	26.03	0.06	-0.750			
0.7151	45765.27	3.5020	3.5022	-1.5759	26.05	0.08	-0.750			
0.7197	46063.46	3.4990	3.4991	-1.5330	26.06	0.09	-0.750			
0.7242	46348.87	3.4960	3.4960	-1.4707	26.08	0.11	-0.750			
0.7285	46627.02	3.4930	3.4929	-1.4208	26.10	0.13	-0.750			
0.7327	46892.44	3.4900	3.4899	-1.3712	26.11	0.14	-0.750			
0.7367	47150.15	3.4870	3.4869	-1.3266	26.13	0.16	-0.750			
0.7407	47402.73	3.4840	3.4840	-1.2836	26.15	0.18	-0.750			
0.7444	47642.05	3.4810	3.4810	-1.2415	26.16	0.19	-0.750			
0.7480	47872.63	3.4780	3.4781	-1.1971	26.17	0.20	-0.750			
0.7516	48102.96	3.4750	3.4750	-1.1666	26.19	0.22	-0.750			
0.7551	48323.62	3.4720	3.4719	-1.1293	26.20	0.23	-0.750			
0.7584	48536.97	3.4690	3.4691	-1.0908	26.21	0.24	-0.750			
0.7616	48742.82	3.4660	3.4660	-1.0574	26.22	0.25	-0.750			
0.7647	48942.83	3.4630	3.4629	-1.0220	26.23	0.26	-0.750			
0.7677	49134.10	3.4600	3.4600	-0.9844	26.24	0.27	-0.750			
0.7706	49317.87	3.4570	3.4569	-0.9569	26.25	0.28	-0.750			
0.7734	49499.35	3.4540	3.4540	-0.9361	26.26	0.29	-0.750			
0.7762	49674.80	3.4510	3.4509	-0.9259	26.26	0.29	-0.750			
0.7789	49847.43	3.4480	3.4480	-0.9171	26.27	0.30	-0.750			
0.7816	50019.71	3.4450	3.4450	-0.9214	26.28	0.31	-0.750			
0.7843	50197.15	3.4420	3.4421	-0.9407	26.29	0.32	-0.750			
0.7871	50376.29	3.4390	3.4390	-0.9666	26.30	0.33	-0.750			
0.7900	50562.71	3.4360	3.4360	-0.9992	26.31	0.34	-0.750			
0.7931	50757.10	3.4330	3.4330	-1.0338	26.33	0.36	-0.750			
0.7963	50960.54	3.4300	3.4299	-1.0714	26.34	0.37	-0.750			
0.7996	51172.65	3.4270	3.4270	-1.1076	26.34	0.37	-0.750			
0.8030	51392.88	3.4240	3.4240	-1.1204	26.35	0.38	-0.750			
0.8064	51612.42	3.4210	3.4209	-1.1236	26.36	0.39	-0.750			
0.8098	51828.44	3.4180	3.4182	-1.1139	26.36	0.39	-0.750			
0.8132	52045.82	3.4150	3.4149	-1.0954	26.37	0.40	-0.750			
0.8165	52255.27	3.4120	3.4119	-1.0646	26.38	0.41	-0.750			
0.8196	52457.24	3.4090	3.4091	-1.0287	26.39	0.42	-0.750			
0.8227	52653.18	3.4060	3.4061	-0.9979	26.39	0.42	-0.750			
0.8256	52840.52	3.4030	3.4029	-0.9616	26.40	0.43	-0.750			
0.8284	53020.08	3.4000	3.3999	-0.9208	26.41	0.44	-0.750			
0.8311	53192.14	3.3970	3.3970	-0.8853	26.41	0.44	-0.750			
0.8337	53359.99	3.3940	3.3941	-0.8555	26.42	0.45	-0.750			
0.8363	53522.70	3.3910	3.3909	-0.8219	26.43	0.46	-0.750			
0.8387	53675.40	3.3880	3.3880	-0.7902	26.43	0.46	-0.750			
0.8410	53822.45	3.3850	3.3850	-0.7583	26.44	0.47	-0.750			
0.8432	53964.84	3.3820	3.3820	-0.7318	26.45	0.48	-0.750			
0.8454	54104.23	3.3790	3.3789	-0.7043	26.46	0.49	-0.750			
0.8474	54236.26	3.3760	3.3761	-0.6755	26.46	0.49	-0.750			
0.8494	54364.17	3.3730	3.3730	-0.6480	26.47	0.50	-0.750			
0.8513	54485.61	3.3700	3.3700	-0.6218	26.47	0.50	-0.750			
0.8531	54600.15	3.3670	3.3670	-0.5936	26.48	0.51	-0.750			
0.8549	54712.39	3.3640	3.3640	-0.5719	26.49	0.52	-0.750			
0.8566	54819.63	3.3610	3.3609	-0.5477	26.49	0.52	-0.750			
0.8582	54923.21	3.3580	3.3580	-0.5275	26.50	0.53	-0.750			
0.8597	55022.30	3.3550	3.3550	-0.5059	26.50	0.53	-0.750			
0.8612	55117.55	3.3520	3.3520	-0.4851	26.51	0.54	-0.750			
0.8626	55207.67	3.3490	3.3490	-0.4652	26.52	0.55	-0.750			
0.8640	55295.01	3.3460	3.3459	-0.4463	26.52	0.55	-0.750			
0.8653	55379.55	3.3430	3.3430	-0.4311	26.53	0.56	-0.750			
0.8666	55460.84	3.3400	3.3401	-0.4131	26.54	0.57	-0.750			
0.8678	55537.39	3.3370	3.3370	-0.3984	26.54	0.57	-0.750			
0.8690	55612.92	3.3340	3.3340	-0.3834	26.55	0.58	-0.750			
0.8701	55684.60	3.3310	3.3309	-0.3679	26.55	0.58	-0.750			
0.8711	55753.53	3.3280	3.3279	-0.3532	26.56	0.59	-0.750			
0.8722	55820.68	3.3250	3.3251	-0.3398	26.56	0.59	-0.750			
0.8732	55884.25	3.3220	3.3219	-0.3261	26.57	0.60	-0.750			
0.8741	55945.31	3.3190	3.3190	-0.3147	26.57	0.60	-0.750			
0.8750	56003.02	3.3160	3.3160	-0.3018	26.58	0.61	-0.750			
0.8759	56060.66	3.3130	3.3130	-0.2940	26.58	0.61	-0.750			
0.8768	56116.12	3.3100	3.3100	-0.2841	26.58	0.61	-0.750			
0.8777	56169.82	3.3070	3.3070	-0.2754	26.59	0.62	-0.750			
0.8785	56222.14	3.3040	3.3041	-0.2671	26.59	0.62	-0.750			
0.8793	56272.41	3.3010	3.3009	-0.2582	26.60	0.63	-0.750			
0.8800	56320.54	3.2980	3.2980	-0.2490	26.60	0.63	-0.750			
0.8807	56367.59	3.2950	3.2951	-0.2426	26.60	0.63	-0.750			
0.8815	56413.14	3.2920	3.2920	-0.2356	26.61	0.64	-0.750			
0.8822	56457.68	3.2890	3.2890	-0.2299	26.61	0.64	-0.750			
0.8828	56501.10	3.2860	3.2860	-0.2232	26.61	0.64	-0.750			
0.8835	56543.47	3.2830	3.2830	-0.2172	26.62	0.65	-0.750			
0.8841	56584.41	3.2800	3.2801	-0.2121	26.62	0.65	-0.750			
0.8848	56624.63	3.2770	3.2769	-0.2067	26.62	0.65	-0.750			
0.8854	56663.70	3.2740	3.2740	-0.2017	26.63	0.66	-0.750			
0.8860	56701.38	3.2710	3.2710	-0.1969	26.63	0.66	-0.750			
0.8865	56738.91	3.2680	3.2680	-0.1927	26.63	0.66	-0.750			
0.8871	56775.56	3.2650	3.2650	-0.1890	26.64	0.67	-0.750			
0.8877	56811.66	3.2620	3.2620	-0.1857	26.64	0.67	-0.750			
0.8882	56847.01	3.2590	3.2590	-0.1820	26.65	0.68	-0.750			
0.8888	56881.17	3.2560	3.2559	-0.1783	26.65	0.68	-0.750			
0.8893	56915.12	3.2530	3.2531	-0.1753	26.65	0.68	-0.750			
0.8898	56948.44	3.2500	3.2500	-0.1726	26.66	0.69	-0.750			
0.8903	56981.17	3.2470	3.2470	-0.1692	26.66	0.69	-0.750			
0.8908	57013.53	3.2440	3.2440	-0.1671	26.66	0.69	-0.750			
0.8913	57045.33	3.2410	3.2410	-0.1642	26.67	0.70	-0.750			
0.8918	57076.50	3.2380	3.2380	-0.1616	26.67	0.70	-0.750			
0.8923	57107.40	3.2350	3.2349	-0.1591	26.67	0.70	-0.750			
0.8928	57137.36	3.2320	3.2320	-0.1563	26.67	0.70	-0.750			
0.8932	57167.17	3.2290	3.2291	-0.1543	26.68	0.71	-0.750			
0.8937	57196.70	3.2260	3.2260	-0.1516	26.68	0.71	-0.750			
0.8941	57225.51	3.2230	3.2230	-0.1499	26.68	0.71	-0.750			
0.8946	57253.94	3.2200	3.2200	-0.1476	26.69	0.72	-0.750			
0.8950	57282.12	3.2170	3.2170	-0.1459	26.69	0.72	-0.750			
0.8955	57309.80	3.2140	3.2139	-0.1448	26.69	0.72	-0.750			
0.8959	57337.53	3.2110	3.2110	-0.1433	26.69	0.72	-0.750			
0.8963	57364.94	3.2080	3.2079	-0.1416	26.70	0.73	-0.750			
0.8967	57391.99	3.2050	3.2050	-0.1402	26.70	0.73	-0.750			
0.8972	57419.13	3.2020	3.2020	-0.1385	26.71	0.74	-0.750			
0.8976	57445.31	3.1990	3.1990	-0.1367	26.71	0.74	-0.750			
0.8980	57471.33	3.1960	3.1960	-0.1352	26.71	0.74	-0.750			
0.8984	57497.15	3.1930	3.1930	-0.1337	26.72	0.75	-0.750			
0.8988	57522.34	3.1900	3.1900	-0.1323	26.72	0.75	-0.750			
0.8992	57547.68	3.1870	3.1870	-0.1315	26.73	0.76	-0.750			
0.8996	57572.82	3.1840	3.1841	-0.1307	26.73	0.76	-0.750			
0.9000	57597.93	3.1810	3.1809	-0.1295	26.74	0.77	-0.750			
0.9004	57622.85	3.1780	3.1780	-0.1286	26.74	0.77	-0.750			
0.9007	57647.52	3.1750	3.1751	-0.1269	26.75	0.78	-0.750			
0.9011	57671.92	3.1720	3.1719	-0.1256	26.75	0.78	-0.750			
0.9015	57695.63	3.1690	3.1691	-0.1243	26.75	0.78	-0.750			
0.9019	57719.26	3.1660	3.1660	-0.1228	26.76	0.79	-0.750			
0.9022	57742.66	3.1630	3.1629	-0.1218	26.76	0.79	-0.750			
0.9026	57765.78	3.1600	3.1600	-0.1207	26.77	0.80	-0.750			
0.9030	57788.88	3.1570	3.1571	-0.1198	26.77	0.80	-0.750			
0.9033	57811.71	3.1540	3.1540	-0.1189	26.78	0.81	-0.750			
0.9037	57834.47	3.1510	3.1510	-0.1180	26.78	0.81	-0.750			
0.9040	57857.22	3.1480	3.1480	-0.1173	26.78	0.81	-0.750			
0.9044	57879.63	3.1450	3.1450	-0.1164	26.79	0.82	-0.750			
0.9047	57901.79	3.1420	3.1420	-0.1154	26.79	0.82	-0.750			
0.9051	57923.82	3.1390	3.1391	-0.1150	26.80	0.83	-0.750			
0.9054	57945.78	3.1360	3.1360	-0.1144	26.80	0.83	-0.750			
0.9057	57967.79	3.1330	3.1331	-0.1131	26.80	0.83	-0.750			
0.9061	57989.53	3.1300	3.1298	-0.1123	26.81	0.84	-0.750			
0.9064	58010.95	3.1270	3.1271	-0.1114	26.81	0.84	-0.750			
0.9068	58032.30	3.1240	3.1240	-0.1105	26.81	0.84	-0.750			
0.9071	58053.29	3.1210	3.1209	-0.1099	26.82	0.85	-0.750			
0.9074	58074.32	3.1180	3.1180	-0.1092	26.82	0.85	-0.750			
0.9077	58095.12	3.1150	3.1150	-0.1080	26.82	0.85	-0.750			
0.9081	58115.80	3.1120	3.1120	-0.1074	26.83	0.86	-0.750			
0.9084	58136.56	3.1090	3.1091	-0.1072	26.83	0.86	-0.750			
0.9087	58157.05	3.1060	3.1060	-0.1063	26.83	0.86	-0.750			
0.9090	58177.30	3.1030	3.1029	-0.1055	26.84	0.87	-0.750			
0.9093	58197.50	3.1000	3.0999	-0.1049	26.84	0.87	-0.750			
0.9096	58217.44	3.0970	3.0972	-0.1040	26.85	0.88	-0.750			
0.9100	58237.37	3.0940	3.0939	-0.1036	26.85	0.88	-0.750			
0.9103	58257.31	3.0910	3.0910	-0.1032	26.86	0.89	-0.750			
0.9106	58277.07	3.0880	3.0880	-0.1026	26.86	0.89	-0.750			
0.9109	58296.73	3.0850	3.0850	-0.1017	26.87	0.90	-0.750			
0.9112	58316.19	3.0820	3.0820	-0.1010	26.87	0.90	-0.750			
0.9115	58335.53	3.0790	3.0790	-0.1003	26.88	0.91	-0.750			
0.9118	58354.71	3.0760	3.0760	-0.0995	26.88	0.91	-0.750			
0.9121	58373.55	3.0730	3.0730	-0.0992	26.89	0.92	-0.750			
0.9124	58392.57	3.0700	3.0700	-0.0989	26.89	0.92	-0.750			
0.9127	58411.55	3.0670	3.0671	-0.0982	26.90	0.93	-0.750			
0.9130	58430.37	3.0640	3.0639	-0.0979	26.90	0.93	-0.750			
0.9133	58449.25	3.0610	3.0611	-0.0976	26.90	0.93	-0.750			
0.9136	58467.92	3.0580	3.0580	-0.0969	26.91	0.94	-0.750			
0.9139	58486.48	3.0550	3.0549	-0.0966	26.91	0.94	-0.750			
0.9141	58504.97	3.0520	3.0520	-0.0960	26.92	0.95	-0.750			
0.9144	58523.34	3.0490	3.0488	-0.0953	26.92	0.95	-0.750			
0.9147	58541.42	3.0460	3.0461	-0.0945	26.93	0.96	-0.750			
0.9150	58559.53	3.0430	3.0430	-0.0941	26.93	0.96	-0.750			
0.9153	58577.64	3.0400	3.0400	-0.0937	26.94	0.97	-0.750			
0.9156	58595.51	3.0370	3.0370	-0.0934	26.94	0.97	-0.750			
0.9158	58613.33	3.0340	3.0340	-0.0929	26.95	0.98	-0.750			
0.9161	58631.19	3.0310	3.0310	-0.0923	26.95	0.98	-0.750			
0.9164	58648.83	3.0280	3.0280	-0.0917	26.95	0.98	-0.750			
0.9167	58666.47	3.0250	3.0250	-0.0910	26.96	0.99	-0.750			
0.9169	58684.05	3.0220	3.0221	-0.0906	26.96	0.99	-0.750			
0.9172	58701.40	3.0190	3.0190	-0.0896	26.97	1.00	-0.750			
0.9175	58718.60	3.0160	3.0160	-0.0887	26.97	1.00	-0.750			
0.9177	58735.53	3.0130	3.0130	-0.0876	26.98	1.01	-0.750			
0.9180	58752.21	3.0100	3.0100	-0.0866	26.98	1.01	-0.751			
0.9183	58768.74	3.0070	3.0070	-0.0856	26.98	1.01	-0.751			
0.9185	58785.06	3.0040	3.0039	-0.0838	26.99	1.02	-0.751			
