Ah_balance (normalized)	Ah_balance (mAh)	Voltage - fit (V)	Voltage -  interpolate (V)	dQ/dV (1/V)	Temperature (°C)	Temperature - diff (°C)	Current (C)	R_DC 0ms (mOhm)	R_DC 50ms (mOhm)	R_DC 50 ms PEC (mOhm)
0.0508	3249.29	4.1980	4.1980	0.7932	26.59	0.62	0.750			
0.0531	3400.33	4.1950	4.1950	0.7803	26.59	0.62	0.750			
0.0554	3546.83	4.1920	4.1922	0.7707	26.60	0.63	0.750			
0.0577	3695.56	4.1890	4.1890	0.7709	26.60	0.63	0.750			
0.0600	3843.04	4.1860	4.1859	0.7725	26.60	0.63	0.750			
0.0624	3990.89	4.1830	4.1831	0.7715	26.60	0.63	0.750			
0.0647	4140.43	4.1800	4.1800	0.7757	26.60	0.63	0.750			
0.0670	4289.82	4.1770	4.1770	0.7685	26.60	0.63	0.750			
0.0693	4436.20	4.1740	4.1741	0.7681	26.61	0.64	0.750			
0.0716	4581.32	4.1710	4.1711	0.7705	26.61	0.64	0.750			
0.0739	4729.64	4.1680	4.1676	0.7765	26.61	0.64	0.750			
0.0762	4877.50	4.1650	4.1651	0.7808	26.61	0.64	0.750			
0.0786	5029.44	4.1620	4.1620	0.7873	26.61	0.64	0.750			
0.0810	5184.60	4.1590	4.1590	0.7902	26.60	0.63	0.750			
0.0834	5337.71	4.1560	4.1560	0.7909	26.60	0.63	0.750			
0.0857	5486.45	4.1530	4.1530	0.7868	26.60	0.63	0.750			
0.0881	5637.41	4.1500	4.1500	0.7871	26.60	0.63	0.750			
0.0905	5789.12	4.1470	4.1469	0.7817	26.60	0.63	0.750			
0.0928	5937.17	4.1440	4.1441	0.7854	26.60	0.63	0.750			
0.0951	6088.63	4.1410	4.1411	0.7889	26.60	0.63	0.750			
0.0975	6239.80	4.1380	4.1380	0.7913	26.60	0.63	0.750			
0.0999	6391.59	4.1350	4.1350	0.7905	26.60	0.63	0.750			
0.1023	6545.80	4.1320	4.1321	0.7863	26.60	0.63	0.750			
0.1046	6697.26	4.1290	4.1290	0.7883	26.60	0.63	0.750			
0.1070	6847.46	4.1260	4.1262	0.7923	26.60	0.63	0.750			
0.1093	6996.00	4.1230	4.1230	0.7960	26.60	0.63	0.750			
0.1117	7150.05	4.1200	4.1198	0.8007	26.60	0.63	0.750			
0.1141	7304.86	4.1170	4.1170	0.8077	26.60	0.63	0.750			
0.1166	7463.92	4.1140	4.1140	0.8066	26.60	0.63	0.750			
0.1190	7617.99	4.1110	4.1111	0.8096	26.60	0.63	0.750			
0.1214	7771.93	4.1080	4.1080	0.8038	26.60	0.63	0.750			
0.1238	7925.28	4.1050	4.1046	0.8053	26.60	0.63	0.750			
0.1262	8077.46	4.1020	4.1021	0.8032	26.60	0.63	0.750			
0.1287	8234.19	4.0990	4.0991	0.8078	26.60	0.63	0.750			
0.1311	8390.32	4.0960	4.0960	0.8141	26.60	0.63	0.750			
0.1335	8546.93	4.0930	4.0930	0.8106	26.60	0.63	0.750			
0.1360	8701.92	4.0900	4.0898	0.8141	26.60	0.63	0.750			
0.1384	8859.02	4.0870	4.0871	0.8183	26.60	0.63	0.750			
0.1409	9016.33	4.0840	4.0841	0.8216	26.60	0.63	0.750			
0.1434	9175.82	4.0810	4.0810	0.8253	26.60	0.63	0.750			
0.1458	9332.29	4.0780	4.0781	0.8268	26.60	0.63	0.750			
0.1483	9493.03	4.0750	4.0750	0.8316	26.60	0.63	0.750			
0.1509	9654.65	4.0720	4.0719	0.8343	26.60	0.63	0.750			
0.1534	9815.86	4.0690	4.0690	0.8254	26.61	0.64	0.750			
0.1558	9973.17	4.0660	4.0661	0.8334	26.61	0.64	0.750			
0.1583	10132.55	4.0630	4.0631	0.8347	26.61	0.64	0.750			
0.1608	10292.48	4.0600	4.0598	0.8376	26.62	0.65	0.750			
0.1633	10452.72	4.0570	4.0571	0.8397	26.62	0.65	0.750			
0.1659	10615.65	4.0540	4.0540	0.8438	26.62	0.65	0.750			
0.1684	10777.74	4.0510	4.0511	0.8469	26.61	0.64	0.750			
0.1710	10941.31	4.0480	4.0480	0.8460	26.61	0.64	0.750			
0.1735	11103.09	4.0450	4.0449	0.8542	26.61	0.64	0.750			
0.1761	11267.54	4.0420	4.0420	0.8616	26.61	0.64	0.750			
0.1787	11435.01	4.0390	4.0390	0.8623	26.61	0.64	0.750			
0.1813	11602.72	4.0360	4.0361	0.8666	26.62	0.65	0.750			
0.1839	11769.37	4.0330	4.0330	0.8703	26.62	0.65	0.750			
0.1865	11936.27	4.0300	4.0298	0.8700	26.62	0.65	0.750			
0.1891	12102.26	4.0270	4.0269	0.8685	26.62	0.65	0.750			
0.1917	12267.88	4.0240	4.0241	0.8703	26.62	0.65	0.750			
0.1943	12436.24	4.0210	4.0210	0.8723	26.62	0.65	0.750			
0.1969	12604.62	4.0180	4.0179	0.8752	26.62	0.65	0.750			
0.1996	12772.04	4.0150	4.0151	0.8757	26.62	0.65	0.750			
0.2022	12940.50	4.0120	4.0120	0.8742	26.62	0.65	0.750			
0.2048	13108.73	4.0090	4.0090	0.8803	26.62	0.65	0.750			
0.2075	13278.60	4.0060	4.0060	0.8813	26.62	0.65	0.750			
0.2101	13446.65	4.0030	4.0030	0.8834	26.62	0.65	0.750			
0.2128	13617.17	4.0000	4.0001	0.8878	26.62	0.65	0.750			
0.2154	13787.04	3.9970	3.9970	0.8874	26.63	0.66	0.750			
0.2181	13956.48	3.9940	3.9940	0.8952	26.63	0.66	0.750			
0.2208	14130.07	3.9910	3.9910	0.8986	26.63	0.66	0.750			
0.2235	14301.56	3.9880	3.9878	0.9010	26.64	0.67	0.750			
0.2262	14477.80	3.9850	3.9851	0.9044	26.64	0.67	0.750			
0.2289	14650.24	3.9820	3.9821	0.9082	26.64	0.67	0.750			
0.2316	14825.44	3.9790	3.9790	0.9147	26.64	0.67	0.750			
0.2344	15001.16	3.9760	3.9760	0.9216	26.64	0.67	0.750			
0.2371	15177.04	3.9730	3.9729	0.9156	26.64	0.67	0.750			
0.2399	15355.94	3.9700	3.9700	0.9140	26.64	0.67	0.750			
0.2427	15531.38	3.9670	3.9671	0.9175	26.64	0.67	0.750			
0.2454	15706.00	3.9640	3.9641	0.9252	26.64	0.67	0.750			
0.2482	15882.42	3.9610	3.9608	0.9221	26.64	0.67	0.750			
0.2510	16061.62	3.9580	3.9580	0.9206	26.64	0.67	0.750			
0.2537	16237.80	3.9550	3.9551	0.9242	26.65	0.68	0.750			
0.2565	16416.81	3.9520	3.9522	0.9321	26.65	0.68	0.750			
0.2593	16597.19	3.9490	3.9490	0.9341	26.66	0.69	0.750			
0.2621	16774.20	3.9460	3.9459	0.9308	26.66	0.69	0.750			
0.2649	16952.14	3.9430	3.9430	0.9328	26.66	0.69	0.750			
0.2677	17133.28	3.9400	3.9400	0.9405	26.66	0.69	0.750			
0.2705	17314.15	3.9370	3.9370	0.9441	26.65	0.68	0.750			
0.2734	17494.92	3.9340	3.9339	0.9435	26.65	0.68	0.750			
0.2762	17679.42	3.9310	3.9310	0.9357	26.65	0.68	0.750			
0.2790	17857.99	3.9280	3.9281	0.9407	26.65	0.68	0.750			
0.2818	18037.87	3.9250	3.9251	0.9407	26.64	0.67	0.750			
0.2846	18216.57	3.9220	3.9220	0.9479	26.64	0.67	0.750			
0.2875	18397.63	3.9190	3.9189	0.9491	26.64	0.67	0.750			
0.2903	18580.74	3.9160	3.9160	0.9459	26.65	0.68	0.750			
0.2932	18763.62	3.9130	3.9130	0.9548	26.65	0.68	0.750			
0.2961	18948.32	3.9100	3.9102	0.9604	26.66	0.69	0.750			
0.2989	19131.31	3.9070	3.9066	0.9590	26.66	0.69	0.750			
0.3018	19316.96	3.9040	3.9041	0.9585	26.66	0.69	0.750			
0.3047	19500.76	3.9010	3.9010	0.9617	26.65	0.68	0.750			
0.3076	19687.39	3.8980	3.8981	0.9702	26.65	0.68	0.750			
0.3105	19871.90	3.8950	3.8950	0.9668	26.64	0.67	0.750			
0.3134	20059.88	3.8920	3.8920	0.9637	26.64	0.67	0.750			
0.3163	20244.23	3.8890	3.8891	0.9704	26.64	0.67	0.750			
0.3192	20430.67	3.8860	3.8861	0.9761	26.64	0.67	0.750			
0.3222	20619.84	3.8830	3.8831	0.9813	26.64	0.67	0.750			
0.3251	20807.43	3.8800	3.8800	0.9813	26.64	0.67	0.750			
0.3281	20995.57	3.8770	3.8771	0.9872	26.63	0.66	0.750			
0.3310	21185.05	3.8740	3.8741	0.9970	26.63	0.66	0.750			
0.3340	21378.50	3.8710	3.8710	1.0054	26.62	0.65	0.750			
0.3371	21573.17	3.8680	3.8679	1.0021	26.62	0.65	0.750			
0.3401	21766.55	3.8650	3.8650	1.0097	26.61	0.64	0.750			
0.3431	21960.09	3.8620	3.8621	1.0189	26.61	0.64	0.750			
0.3462	22154.79	3.8590	3.8590	1.0294	26.60	0.63	0.750			
0.3493	22353.22	3.8560	3.8558	1.0340	26.60	0.63	0.750			
0.3524	22551.87	3.8530	3.8530	1.0481	26.59	0.62	0.750			
0.3556	22756.16	3.8500	3.8501	1.0616	26.59	0.62	0.750			
0.3588	22961.87	3.8470	3.8471	1.0737	26.58	0.61	0.750			
0.3620	23169.74	3.8440	3.8439	1.0770	26.58	0.61	0.750			
0.3653	23376.06	3.8410	3.8410	1.0873	26.57	0.60	0.750			
0.3685	23584.18	3.8380	3.8380	1.0920	26.56	0.59	0.750			
0.3718	23795.74	3.8350	3.8350	1.1034	26.56	0.59	0.750			
0.3751	24008.17	3.8320	3.8320	1.1120	26.55	0.58	0.750			
0.3785	24223.29	3.8290	3.8291	1.1246	26.54	0.57	0.750			
0.3819	24439.29	3.8260	3.8260	1.1367	26.53	0.56	0.750			
0.3853	24659.60	3.8230	3.8230	1.1489	26.52	0.55	0.750			
0.3887	24879.93	3.8200	3.8200	1.1510	26.51	0.54	0.750			
0.3922	25102.77	3.8170	3.8170	1.1642	26.50	0.53	0.750			
0.3957	25327.62	3.8140	3.8141	1.1719	26.49	0.52	0.750			
0.3993	25555.25	3.8110	3.8107	1.1674	26.48	0.51	0.750			
0.4028	25777.77	3.8080	3.8081	1.1798	26.47	0.50	0.750			
0.4063	26003.71	3.8050	3.8051	1.1921	26.46	0.49	0.750			
0.4099	26235.80	3.8020	3.8019	1.1984	26.44	0.47	0.750			
0.4135	26464.82	3.7990	3.7990	1.2002	26.43	0.46	0.750			
0.4171	26697.21	3.7960	3.7961	1.2108	26.42	0.45	0.750			
0.4208	26931.28	3.7930	3.7931	1.2213	26.41	0.44	0.750			
0.4245	27166.93	3.7900	3.7900	1.2214	26.40	0.43	0.750			
0.4281	27400.44	3.7870	3.7870	1.2341	26.39	0.42	0.750			
0.4318	27637.13	3.7840	3.7840	1.2437	26.37	0.40	0.750			
0.4357	27882.25	3.7810	3.7808	1.2494	26.36	0.39	0.750			
0.4394	28118.65	3.7780	3.7781	1.2712	26.35	0.38	0.750			
0.4432	28365.09	3.7750	3.7751	1.2899	26.33	0.36	0.750			
0.4471	28616.14	3.7720	3.7721	1.3013	26.32	0.35	0.750			
0.4510	28866.05	3.7690	3.7691	1.3322	26.31	0.34	0.750			
0.4550	29118.16	3.7660	3.7662	1.3632	26.30	0.33	0.750			
0.4592	29388.59	3.7630	3.7629	1.3906	26.29	0.32	0.750			
0.4634	29659.51	3.7600	3.7599	1.4307	26.27	0.30	0.750	0.308	0.392	
0.4677	29932.57	3.7570	3.7572	1.4512	26.26	0.29	0.750			
0.4722	30217.65	3.7540	3.7541	1.4865	26.24	0.27	0.750			
0.4767	30510.39	3.7510	3.7510	1.5092	26.22	0.25	0.750			
0.4811	30789.66	3.7480	3.7481	1.5509	26.21	0.24	0.750			
0.4858	31094.01	3.7450	3.7447	1.5876	26.19	0.22	0.750			
0.4907	31402.63	3.7420	3.7421	1.6345	26.17	0.20	0.750			
0.4957	31727.27	3.7390	3.7390	1.6620	26.15	0.18	0.750			
0.5008	32053.62	3.7360	3.7363	1.7027	26.13	0.16	0.750			
0.5060	32385.17	3.7330	3.7329	1.7443	26.12	0.15	0.750			
0.5112	32715.13	3.7300	3.7298	1.7808	26.10	0.13	0.750			
0.5165	33054.80	3.7270	3.7270	1.8088	26.08	0.11	0.750			
0.5219	33404.42	3.7240	3.7239	1.8838	26.06	0.09	0.750			
0.5278	33779.49	3.7210	3.7209	1.9188	26.04	0.07	0.750			
0.5337	34156.62	3.7180	3.7177	1.9839	26.02	0.05	0.750			
0.5396	34535.91	3.7150	3.7149	2.0404	26.00	0.03	0.750			
0.5459	34934.94	3.7120	3.7117	2.0986	25.98	0.01	0.750			
0.5522	35342.48	3.7090	3.7091	2.1505	25.96	-0.01	0.750			
0.5587	35756.47	3.7060	3.7062	2.2217	25.94	-0.03	0.750			
0.5656	36196.02	3.7030	3.7031	2.2924	25.92	-0.05	0.750			
0.5727	36652.92	3.7000	3.6998	2.3627	25.89	-0.08	0.750			
0.5798	37107.02	3.6970	3.6970	2.4328	25.88	-0.09	0.750			
0.5872	37582.27	3.6940	3.6941	2.4813	25.86	-0.11	0.750			
0.5948	38066.26	3.6910	3.6911	2.5682	25.83	-0.14	0.750			
0.6025	38558.18	3.6880	3.6883	2.6548	25.81	-0.16	0.750			
0.6105	39071.95	3.6850	3.6849	2.7674	25.79	-0.18	0.750			
0.6190	39615.32	3.6820	3.6820	2.8949	25.77	-0.20	0.750			
0.6279	40185.04	3.6790	3.6790	2.9865	25.75	-0.22	0.750			
0.6372	40780.48	3.6760	3.6760	3.0827	25.73	-0.24	0.750			
0.6465	41378.64	3.6730	3.6730	3.1258	25.71	-0.26	0.750			
0.6560	41983.61	3.6700	3.6700	3.1984	25.70	-0.27	0.750			
0.6657	42606.14	3.6670	3.6671	3.1807	25.69	-0.28	0.750			
0.6755	43234.73	3.6640	3.6641	3.0983	25.68	-0.29	0.750			
0.6848	43829.02	3.6610	3.6609	2.8934	25.68	-0.29	0.750			
0.6933	44371.55	3.6580	3.6579	2.6310	25.68	-0.29	0.750			
0.7004	44822.66	3.6550	3.6553	2.3260	25.68	-0.29	0.750			
0.7071	45252.60	3.6520	3.6519	2.0699	25.69	-0.28	0.750			
0.7126	45608.21	3.6490	3.6489	1.8684	25.69	-0.28	0.750			
0.7177	45935.30	3.6460	3.6458	1.7032	25.69	-0.28	0.750			
0.7226	46243.29	3.6430	3.6430	1.5613	25.69	-0.28	0.750			
0.7271	46537.59	3.6400	3.6401	1.4602	25.69	-0.28	0.750			
0.7313	46802.04	3.6370	3.6371	1.3647	25.69	-0.28	0.750			
0.7352	47054.39	3.6340	3.6339	1.2958	25.69	-0.28	0.750			
0.7388	47285.24	3.6310	3.6310	1.2395	25.69	-0.28	0.750			
0.7423	47507.76	3.6280	3.6280	1.2107	25.69	-0.28	0.750			
0.7459	47739.29	3.6250	3.6251	1.2079	25.70	-0.27	0.750			
0.7495	47970.39	3.6220	3.6220	1.2114	25.70	-0.27	0.750			
0.7532	48204.13	3.6190	3.6191	1.2174	25.70	-0.27	0.750			
0.7569	48440.28	3.6160	3.6161	1.2266	25.70	-0.27	0.750			
0.7606	48680.89	3.6130	3.6129	1.2182	25.70	-0.27	0.750			
0.7643	48914.84	3.6100	3.6100	1.2083	25.70	-0.27	0.750			
0.7679	49147.01	3.6070	3.6070	1.1957	25.71	-0.26	0.750			
0.7715	49376.95	3.6040	3.6041	1.1846	25.71	-0.26	0.750			
0.7750	49600.27	3.6010	3.6010	1.1583	25.71	-0.26	0.750			
0.7784	49819.54	3.5980	3.5980	1.1581	25.71	-0.26	0.750			
0.7818	50036.85	3.5950	3.5951	1.1580	25.72	-0.25	0.750			
0.7853	50259.29	3.5920	3.5918	1.1727	25.72	-0.25	0.750			
0.7888	50480.89	3.5890	3.5891	1.1972	25.72	-0.25	0.750			
0.7924	50711.43	3.5860	3.5861	1.2343	25.72	-0.25	0.750			
0.7962	50953.81	3.5830	3.5830	1.2714	25.72	-0.25	0.750			
0.8000	51201.73	3.5800	3.5800	1.3244	25.72	-0.25	0.750			
0.8040	51459.06	3.5770	3.5771	1.3710	25.72	-0.25	0.750			
0.8082	51726.53	3.5740	3.5741	1.4249	25.72	-0.25	0.750			
0.8126	52007.03	3.5710	3.5710	1.4553	25.72	-0.25	0.750			
0.8170	52289.10	3.5680	3.5681	1.4934	25.72	-0.25	0.750			
0.8216	52580.76	3.5650	3.5651	1.5295	25.72	-0.25	0.750			
0.8262	52877.09	3.5620	3.5622	1.5711	25.72	-0.25	0.750			
0.8311	53187.58	3.5590	3.5589	1.5790	25.71	-0.26	0.750			
0.8358	53492.46	3.5560	3.5558	1.6025	25.71	-0.26	0.750			
0.8407	53805.30	3.5530	3.5531	1.6357	25.71	-0.26	0.750			
0.8455	54112.63	3.5500	3.5502	1.6403	25.72	-0.25	0.750			
0.8505	54428.90	3.5470	3.5469	1.6517	25.72	-0.25	0.750			
0.8554	54745.61	3.5440	3.5439	1.6612	25.72	-0.25	0.750			
0.8604	55064.92	3.5410	3.5410	1.6942	25.72	-0.25	0.750			
0.8655	55394.42	3.5380	3.5383	1.7491	25.72	-0.25	0.750			
0.8708	55733.86	3.5350	3.5349	1.7560	25.73	-0.24	0.750			
0.8765	56092.95	3.5320	3.5317	1.7169	25.74	-0.23	0.750			
0.8818	56436.28	3.5290	3.5289	1.6229	25.75	-0.22	0.750			
0.8870	56769.88	3.5260	3.5261	1.4420	25.76	-0.21	0.750			
0.8913	57043.99	3.5230	3.5233	1.1988	25.78	-0.19	0.750			
0.8942	57231.09	3.5200	3.5204	0.9187	25.79	-0.18	0.750			
0.8964	57368.59	3.5170	3.5168	0.6810	25.80	-0.17	0.750			
0.8977	57450.51	3.5140	3.5137	0.5065	25.80	-0.17	0.750			
0.8989	57527.06	3.5110	3.5106	0.4173	25.81	-0.16	0.750			
0.8999	57591.62	3.5080	3.5080	0.3663	25.82	-0.15	0.750			
0.9009	57658.04	3.5050	3.5049	0.3407	25.82	-0.15	0.750			
0.9019	57720.45	3.5020	3.5020	0.3236	25.83	-0.14	0.750			
0.9028	57780.47	3.4990	3.4990	0.3108	25.83	-0.14	0.750			
0.9037	57837.27	3.4960	3.4960	0.2967	25.84	-0.13	0.750			
0.9046	57893.85	3.4930	3.4930	0.2889	25.85	-0.12	0.750			
0.9054	57947.57	3.4900	3.4901	0.2800	25.85	-0.12	0.750			
0.9063	58000.80	3.4870	3.4870	0.2738	25.86	-0.11	0.750			
0.9071	58052.71	3.4840	3.4839	0.2684	25.86	-0.11	0.750			
0.9079	58103.09	3.4810	3.4810	0.2627	25.87	-0.10	0.750			
0.9086	58153.14	3.4780	3.4780	0.2572	25.87	-0.10	0.750			
0.9094	58201.72	3.4750	3.4751	0.2524	25.88	-0.09	0.750			
0.9102	58250.23	3.4720	3.4720	0.2477	25.88	-0.09	0.750			
0.9109	58297.16	3.4690	3.4691	0.2430	25.89	-0.08	0.750			
0.9116	58343.33	3.4660	3.4660	0.2380	25.89	-0.08	0.750			
0.9123	58388.26	3.4630	3.4631	0.2335	25.90	-0.07	0.750			
0.9130	58432.70	3.4600	3.4600	0.2300	25.90	-0.07	0.750			
0.9137	58476.45	3.4570	3.4570	0.2257	25.90	-0.07	0.750			
0.9144	58519.70	3.4540	3.4540	0.2222	25.91	-0.06	0.750			
0.9150	58561.58	3.4510	3.4510	0.2189	25.91	-0.06	0.750			
0.9157	58603.77	3.4480	3.4481	0.2152	25.92	-0.05	0.750			
0.9163	58644.96	3.4450	3.4448	0.2105	25.92	-0.05	0.750			
0.9170	58684.90	3.4420	3.4420	0.2055	25.93	-0.04	0.750			
0.9176	58723.97	3.4390	3.4391	0.2009	25.93	-0.04	0.750			
0.9182	58762.03	3.4360	3.4361	0.1962	25.93	-0.04	0.750			
0.9187	58799.01	3.4330	3.4330	0.1918	25.94	-0.03	0.750			
0.9193	58835.40	3.4300	3.4299	0.1874	25.94	-0.03	0.750			
0.9198	58870.37	3.4270	3.4270	0.1828	25.94	-0.03	0.750			
0.9204	58905.52	3.4240	3.4240	0.1790	25.95	-0.02	0.750			
0.9209	58939.76	3.4210	3.4210	0.1753	25.95	-0.02	0.750			
0.9215	58973.00	3.4180	3.4179	0.1702	25.95	-0.02	0.750			
0.9220	59005.39	3.4150	3.4150	0.1650	25.96	-0.01	0.750			
0.9224	59036.71	3.4120	3.4119	0.1597	25.96	-0.01	0.750			
0.9229	59066.48	3.4090	3.4091	0.1548	25.96	-0.01	0.750			
0.9234	59095.50	3.4060	3.4060	0.1495	25.97	-0.00	0.750			
0.9238	59123.61	3.4030	3.4028	0.1445	25.97	-0.00	0.750			
0.9242	59150.90	3.4000	3.3999	0.1400	25.97	0.00	0.750			
0.9246	59177.49	3.3970	3.3971	0.1348	25.97	0.00	0.750			
0.9250	59203.15	3.3940	3.3941	0.1294	25.98	0.01	0.750			
0.9254	59227.80	3.3910	3.3909	0.1244	25.98	0.01	0.750			
0.9258	59251.52	3.3880	3.3880	0.1182	25.98	0.01	0.750			
0.9261	59273.55	3.3850	3.3849	0.1113	25.98	0.01	0.750			
0.9265	59294.22	3.3820	3.3820	0.1043	25.99	0.02	0.750			
0.9268	59314.56	3.3790	3.3790	0.0964	25.99	0.02	0.750			
0.9271	59332.20	3.3760	3.3760	0.0872	25.99	0.02	0.750			
0.9273	59348.56	3.3730	3.3730	0.0790	25.99	0.02	0.750			
0.9275	59362.78	3.3700	3.3701	0.0692	25.99	0.02	0.750			
0.9277	59375.43	3.3670	3.3674	0.0594	25.99	0.02	0.750			
0.9279	59385.85	3.3640	3.3648	0.0491	26.00	0.03	0.750			
0.9280	59394.29	3.3610	3.3620	0.0388	26.00	0.03	0.750			
0.9281	59400.75	3.3580	3.3597	0.0285	26.00	0.03	0.750			
