Ah_balance (normalized)	Ah_balance (mAh)	Voltage - fit (V)	Voltage -  interpolate (V)	dQ/dV (1/V)	Temperature (°C)	Temperature - diff (°C)	Current (C)	R_DC 0ms (mOhm)	R_DC 50ms (mOhm)	R_DC 50 ms PEC (mOhm)
0.0563	3606.31	4.1960	4.1960	0.7035	26.81	0.86	0.750			
0.0585	3743.61	4.1930	4.1930	0.7201	26.80	0.85	0.750			
0.0607	3883.96	4.1900	4.1899	0.7292	26.80	0.85	0.750			
0.0629	4024.06	4.1870	4.1870	0.7382	26.80	0.85	0.750			
0.0651	4167.17	4.1840	4.1841	0.7470	26.80	0.85	0.750			
0.0674	4315.29	4.1810	4.1808	0.7419	26.80	0.85	0.750			
0.0696	4456.11	4.1780	4.1780	0.7475	26.79	0.84	0.750			
0.0718	4597.47	4.1750	4.1752	0.7576	26.79	0.84	0.750			
0.0741	4743.14	4.1720	4.1721	0.7697	26.79	0.84	0.750			
0.0765	4893.91	4.1690	4.1687	0.7733	26.79	0.84	0.750			
0.0788	5043.19	4.1660	4.1662	0.7733	26.79	0.84	0.750			
0.0812	5194.28	4.1630	4.1631	0.7770	26.79	0.84	0.750			
0.0835	5345.32	4.1600	4.1599	0.7731	26.79	0.84	0.750			
0.0858	5489.62	4.1570	4.1570	0.7597	26.79	0.84	0.750			
0.0881	5636.02	4.1540	4.1540	0.7578	26.79	0.84	0.750			
0.0903	5780.35	4.1510	4.1511	0.7579	26.79	0.84	0.750			
0.0926	5926.73	4.1480	4.1480	0.7602	26.79	0.84	0.750			
0.0949	6072.27	4.1450	4.1450	0.7616	26.80	0.85	0.750			
0.0972	6217.62	4.1420	4.1419	0.7650	26.80	0.85	0.750			
0.0995	6364.85	4.1390	4.1391	0.7706	26.80	0.85	0.750			
0.1018	6513.10	4.1360	4.1361	0.7717	26.80	0.85	0.750			
0.1041	6664.03	4.1330	4.1330	0.7741	26.80	0.85	0.750			
0.1064	6810.82	4.1300	4.1301	0.7757	26.80	0.85	0.750			
0.1088	6960.24	4.1270	4.1269	0.7759	26.79	0.84	0.750			
0.1111	7109.11	4.1240	4.1240	0.7750	26.79	0.84	0.750			
0.1134	7257.26	4.1210	4.1210	0.7774	26.79	0.84	0.750			
0.1157	7407.14	4.1180	4.1182	0.7804	26.79	0.84	0.750			
0.1181	7557.88	4.1150	4.1149	0.7810	26.79	0.84	0.750			
0.1204	7708.29	4.1120	4.1120	0.7830	26.80	0.85	0.750			
0.1227	7855.97	4.1090	4.1092	0.7790	26.80	0.85	0.750			
0.1251	8007.50	4.1060	4.1058	0.7851	26.80	0.85	0.750			
0.1275	8159.21	4.1030	4.1030	0.7912	26.80	0.85	0.750			
0.1299	8311.10	4.1000	4.1000	0.7865	26.80	0.85	0.750			
0.1322	8462.07	4.0970	4.0970	0.7897	26.79	0.84	0.750			
0.1346	8615.54	4.0940	4.0941	0.7925	26.79	0.84	0.750			
0.1370	8765.88	4.0910	4.0910	0.7903	26.79	0.84	0.750			
0.1393	8916.84	4.0880	4.0880	0.7935	26.79	0.84	0.750			
0.1418	9072.08	4.0850	4.0850	0.7903	26.79	0.84	0.750			
0.1441	9221.64	4.0820	4.0819	0.7928	26.79	0.84	0.750			
0.1465	9376.24	4.0790	4.0791	0.8005	26.80	0.85	0.750			
0.1489	9527.98	4.0760	4.0762	0.8010	26.80	0.85	0.750			
0.1513	9681.73	4.0730	4.0728	0.8064	26.80	0.85	0.750			
0.1537	9838.61	4.0700	4.0700	0.8059	26.80	0.85	0.750			
0.1561	9992.52	4.0670	4.0670	0.8075	26.80	0.85	0.750			
0.1586	10148.63	4.0640	4.0641	0.8132	26.81	0.86	0.750			
0.1610	10303.99	4.0610	4.0611	0.8145	26.81	0.86	0.750			
0.1635	10461.64	4.0580	4.0578	0.8169	26.81	0.86	0.750			
0.1659	10618.70	4.0550	4.0550	0.8202	26.81	0.86	0.750			
0.1684	10777.47	4.0520	4.0520	0.8161	26.81	0.86	0.750			
0.1708	10933.74	4.0490	4.0491	0.8222	26.82	0.87	0.750			
0.1733	11090.84	4.0460	4.0460	0.8206	26.82	0.87	0.750			
0.1757	11247.99	4.0430	4.0426	0.8250	26.82	0.87	0.750			
0.1782	11405.53	4.0400	4.0401	0.8275	26.82	0.87	0.750			
0.1807	11565.68	4.0370	4.0370	0.8319	26.82	0.87	0.750			
0.1832	11726.05	4.0340	4.0341	0.8404	26.82	0.87	0.750			
0.1857	11887.01	4.0310	4.0310	0.8410	26.82	0.87	0.750			
0.1883	12048.83	4.0280	4.0278	0.8505	26.82	0.87	0.750			
0.1909	12215.64	4.0250	4.0250	0.8483	26.82	0.87	0.750			
0.1934	12378.64	4.0220	4.0220	0.8494	26.82	0.87	0.750			
0.1960	12544.35	4.0190	4.0191	0.8477	26.82	0.87	0.750			
0.1985	12704.35	4.0160	4.0160	0.8472	26.82	0.87	0.750			
0.2010	12865.94	4.0130	4.0130	0.8469	26.82	0.87	0.750			
0.2036	13030.29	4.0100	4.0099	0.8475	26.82	0.87	0.750			
0.2061	13191.85	4.0070	4.0071	0.8544	26.82	0.87	0.750			
0.2087	13358.21	4.0040	4.0040	0.8619	26.82	0.87	0.750			
0.2113	13522.87	4.0010	4.0010	0.8614	26.82	0.87	0.750			
0.2139	13689.83	3.9980	3.9981	0.8656	26.82	0.87	0.750			
0.2165	13855.67	3.9950	3.9950	0.8614	26.82	0.87	0.750			
0.2191	14022.17	3.9920	3.9921	0.8665	26.82	0.87	0.750			
0.2217	14188.18	3.9890	3.9891	0.8685	26.83	0.88	0.750			
0.2243	14353.79	3.9860	3.9860	0.8677	26.83	0.88	0.750			
0.2269	14521.39	3.9830	3.9830	0.8705	26.83	0.88	0.750			
0.2295	14688.32	3.9800	3.9800	0.8716	26.83	0.88	0.750			
0.2321	14855.41	3.9770	3.9770	0.8758	26.83	0.88	0.750			
0.2348	15025.88	3.9740	3.9741	0.8802	26.83	0.88	0.750			
0.2374	15193.33	3.9710	3.9709	0.8794	26.83	0.88	0.750			
0.2400	15362.44	3.9680	3.9680	0.8802	26.83	0.88	0.750			
0.2427	15532.17	3.9650	3.9651	0.8811	26.83	0.88	0.750			
0.2453	15701.31	3.9620	3.9620	0.8832	26.82	0.87	0.750			
0.2480	15870.57	3.9590	3.9590	0.8851	26.82	0.87	0.750			
0.2506	16040.97	3.9560	3.9557	0.8814	26.82	0.87	0.750			
0.2533	16211.06	3.9530	3.9530	0.8836	26.82	0.87	0.750			
0.2559	16380.15	3.9500	3.9501	0.8841	26.82	0.87	0.750			
0.2586	16550.44	3.9470	3.9469	0.8874	26.82	0.87	0.750			
0.2613	16721.20	3.9440	3.9441	0.8849	26.82	0.87	0.750			
0.2639	16888.75	3.9410	3.9410	0.8838	26.82	0.87	0.750			
0.2665	17058.91	3.9380	3.9381	0.8829	26.81	0.86	0.750			
0.2692	17229.99	3.9350	3.9350	0.8852	26.81	0.86	0.750			
0.2718	17398.39	3.9320	3.9320	0.8815	26.81	0.86	0.750			
0.2745	17567.16	3.9290	3.9291	0.8855	26.80	0.85	0.750			
0.2772	17737.86	3.9260	3.9260	0.8886	26.80	0.85	0.750			
0.2798	17909.51	3.9230	3.9230	0.8903	26.79	0.84	0.750			
0.2825	18080.25	3.9200	3.9201	0.8904	26.79	0.84	0.750			
0.2852	18251.17	3.9170	3.9170	0.9011	26.78	0.83	0.750			
0.2879	18424.25	3.9140	3.9138	0.9049	26.78	0.83	0.750			
0.2906	18598.29	3.9110	3.9110	0.9064	26.78	0.83	0.750			
0.2933	18772.70	3.9080	3.9081	0.9088	26.77	0.82	0.750			
0.2961	18950.24	3.9050	3.9050	0.9171	26.77	0.82	0.750			
0.2988	19124.97	3.9020	3.9020	0.9154	26.76	0.81	0.750			
0.3016	19301.69	3.8990	3.8990	0.9200	26.76	0.81	0.750			
0.3043	19477.09	3.8960	3.8960	0.9219	26.75	0.80	0.750			
0.3071	19654.69	3.8930	3.8930	0.9303	26.75	0.80	0.750			
0.3099	19834.21	3.8900	3.8900	0.9359	26.75	0.80	0.750			
0.3127	20014.99	3.8870	3.8869	0.9382	26.74	0.79	0.750			
0.3156	20197.62	3.8840	3.8840	0.9364	26.73	0.78	0.750			
0.3184	20376.83	3.8810	3.8811	0.9422	26.72	0.77	0.750			
0.3212	20557.66	3.8780	3.8780	0.9462	26.71	0.76	0.750			
0.3240	20738.15	3.8750	3.8750	0.9477	26.71	0.76	0.750			
0.3269	20921.81	3.8720	3.8721	0.9488	26.70	0.75	0.750			
0.3297	21103.69	3.8690	3.8690	0.9543	26.69	0.74	0.750			
0.3326	21287.57	3.8660	3.8661	0.9590	26.69	0.74	0.750			
0.3355	21473.71	3.8630	3.8631	0.9621	26.68	0.73	0.750			
0.3384	21657.32	3.8600	3.8598	0.9592	26.68	0.73	0.750			
0.3413	21841.44	3.8570	3.8571	0.9603	26.67	0.72	0.750			
0.3441	22025.02	3.8540	3.8540	0.9616	26.66	0.71	0.750			
0.3470	22210.40	3.8510	3.8510	0.9661	26.65	0.70	0.750			
0.3499	22396.05	3.8480	3.8479	0.9663	26.64	0.69	0.750			
0.3529	22584.08	3.8450	3.8450	0.9610	26.63	0.68	0.750			
0.3558	22768.05	3.8420	3.8420	0.9663	26.62	0.67	0.750			
0.3586	22951.60	3.8390	3.8391	0.9719	26.60	0.65	0.750			
0.3615	23137.40	3.8360	3.8361	0.9733	26.59	0.64	0.750			
0.3645	23325.86	3.8330	3.8331	0.9788	26.58	0.63	0.750			
0.3674	23514.68	3.8300	3.8300	0.9846	26.57	0.62	0.750			
0.3704	23705.06	3.8270	3.8271	0.9932	26.57	0.62	0.750			
0.3734	23896.68	3.8240	3.8241	1.0009	26.56	0.61	0.750			
0.3764	24089.89	3.8210	3.8209	1.0031	26.56	0.61	0.750			
0.3794	24283.31	3.8180	3.8180	1.0087	26.55	0.60	0.750			
0.3825	24477.69	3.8150	3.8150	1.0176	26.54	0.59	0.750			
0.3855	24673.06	3.8120	3.8121	1.0259	26.53	0.58	0.750			
0.3887	24874.48	3.8090	3.8089	1.0260	26.52	0.57	0.750			
0.3917	25069.51	3.8060	3.8060	1.0308	26.51	0.56	0.750			
0.3948	25264.86	3.8030	3.8030	1.0450	26.50	0.55	0.750			
0.3979	25466.30	3.8000	3.8001	1.0619	26.49	0.54	0.750			
0.4012	25674.40	3.7970	3.7967	1.0714	26.48	0.53	0.750			
0.4044	25879.93	3.7940	3.7941	1.0913	26.47	0.52	0.750			
0.4077	26092.61	3.7910	3.7911	1.1120	26.46	0.51	0.750			
0.4111	26309.44	3.7880	3.7881	1.1330	26.45	0.50	0.750			
0.4145	26527.39	3.7850	3.7851	1.1391	26.43	0.48	0.750			
0.4179	26747.15	3.7820	3.7821	1.1577	26.42	0.47	0.750			
0.4214	26972.52	3.7790	3.7790	1.1733	26.41	0.46	0.750			
0.4250	27198.97	3.7760	3.7759	1.1949	26.39	0.44	0.750			
0.4285	27425.82	3.7730	3.7730	1.2250	26.38	0.43	0.750			
0.4322	27662.69	3.7700	3.7700	1.2634	26.36	0.41	0.750			
0.4361	27913.00	3.7670	3.7670	1.2877	26.35	0.40	0.750	0.314	0.435	
0.4401	28167.71	3.7640	3.7641	1.3056	26.33	0.38	0.750			
0.4440	28418.87	3.7610	3.7612	1.3392	26.32	0.37	0.750			
0.4481	28680.19	3.7580	3.7581	1.3621	26.30	0.35	0.750			
0.4521	28937.56	3.7550	3.7550	1.3883	26.29	0.34	0.750			
0.4563	29204.08	3.7520	3.7520	1.4237	26.27	0.32	0.750			
0.4607	29482.94	3.7490	3.7490	1.4508	26.26	0.31	0.750			
0.4651	29768.49	3.7460	3.7459	1.4773	26.24	0.29	0.750			
0.4696	30055.85	3.7430	3.7432	1.5143	26.23	0.28	0.750			
0.4741	30343.57	3.7400	3.7400	1.5444	26.21	0.26	0.750			
0.4789	30648.85	3.7370	3.7370	1.5719	26.20	0.25	0.750			
0.4835	30942.67	3.7340	3.7340	1.6312	26.18	0.23	0.750			
0.4885	31261.20	3.7310	3.7309	1.6897	26.17	0.22	0.750			
0.4937	31597.61	3.7280	3.7280	1.7371	26.14	0.19	0.750			
0.4990	31938.03	3.7250	3.7251	1.7766	26.12	0.17	0.750			
0.5044	32283.97	3.7220	3.7219	1.8329	26.10	0.15	0.750			
0.5101	32645.86	3.7190	3.7188	1.8842	26.09	0.14	0.750			
0.5159	33017.72	3.7160	3.7160	1.9299	26.07	0.12	0.750			
0.5217	33388.58	3.7130	3.7131	1.9964	26.05	0.10	0.750			
0.5277	33770.08	3.7100	3.7101	2.0300	26.04	0.09	0.750			
0.5339	34168.90	3.7070	3.7070	2.0981	26.02	0.07	0.750			
0.5402	34574.07	3.7040	3.7039	2.1624	26.00	0.05	0.750			
0.5467	34991.45	3.7010	3.7011	2.2139	25.98	0.03	0.750			
0.5535	35421.77	3.6980	3.6981	2.2998	25.96	0.01	0.750			
0.5605	35872.56	3.6950	3.6950	2.4079	25.94	-0.01	0.750			
0.5678	36341.72	3.6920	3.6919	2.5117	25.92	-0.03	0.750			
0.5756	36840.75	3.6890	3.6890	2.6001	25.90	-0.05	0.750			
0.5837	37356.64	3.6860	3.6860	2.6937	25.88	-0.07	0.750			
0.5919	37882.48	3.6830	3.6831	2.7225	25.86	-0.09	0.750			
0.6001	38406.78	3.6800	3.6800	2.8138	25.85	-0.10	0.750			
0.6087	38956.74	3.6770	3.6770	2.8792	25.82	-0.13	0.750			
0.6175	39521.05	3.6740	3.6741	2.9234	25.81	-0.14	0.750			
0.6265	40094.95	3.6710	3.6709	2.8366	25.80	-0.15	0.750			
0.6352	40654.37	3.6680	3.6680	2.6589	25.80	-0.15	0.750			
0.6425	41122.47	3.6650	3.6651	2.3729	25.80	-0.15	0.750			
0.6493	41552.74	3.6620	3.6620	2.1091	25.79	-0.16	0.750			
0.6549	41911.72	3.6590	3.6587	1.9014	25.79	-0.16	0.750			
0.6601	42247.14	3.6560	3.6561	1.7337	25.79	-0.16	0.750			
0.6650	42558.63	3.6530	3.6528	1.6017	25.79	-0.16	0.750			
0.6697	42858.21	3.6500	3.6502	1.5066	25.78	-0.17	0.750			
0.6741	43143.25	3.6470	3.6471	1.4174	25.78	-0.17	0.750			
0.6782	43404.15	3.6440	3.6440	1.3339	25.78	-0.17	0.750			
0.6819	43641.41	3.6410	3.6409	1.2515	25.77	-0.18	0.750			
0.6855	43870.56	3.6380	3.6381	1.2209	25.77	-0.18	0.750			
0.6890	44097.93	3.6350	3.6349	1.1924	25.77	-0.18	0.750			
0.6926	44324.20	3.6320	3.6320	1.1938	25.77	-0.18	0.750			
0.6961	44550.84	3.6290	3.6291	1.1937	25.78	-0.17	0.750			
0.6997	44781.58	3.6260	3.6258	1.1980	25.78	-0.17	0.750			
0.7034	45015.45	3.6230	3.6230	1.1991	25.78	-0.17	0.750			
0.7070	45246.74	3.6200	3.6200	1.1935	25.77	-0.18	0.750			
0.7106	45478.97	3.6170	3.6171	1.1751	25.77	-0.18	0.750			
0.7142	45708.07	3.6140	3.6141	1.1537	25.77	-0.18	0.750			
0.7176	45923.20	3.6110	3.6109	1.1329	25.77	-0.18	0.750			
0.7208	46133.54	3.6080	3.6080	1.1230	25.77	-0.18	0.750			
0.7242	46346.16	3.6050	3.6049	1.1177	25.77	-0.18	0.750			
0.7274	46555.47	3.6020	3.6021	1.1274	25.77	-0.18	0.750			
0.7308	46771.96	3.5990	3.5990	1.1545	25.77	-0.18	0.750			
0.7343	46996.85	3.5960	3.5960	1.1869	25.77	-0.18	0.750			
0.7380	47229.77	3.5930	3.5926	1.2080	25.77	-0.18	0.750			
0.7416	47461.72	3.5900	3.5901	1.2482	25.77	-0.18	0.750			
0.7454	47703.75	3.5870	3.5871	1.2918	25.76	-0.19	0.750			
0.7494	47959.05	3.5840	3.5838	1.3240	25.76	-0.19	0.750			
0.7534	48214.66	3.5810	3.5811	1.3659	25.76	-0.19	0.750			
0.7574	48475.28	3.5780	3.5781	1.4177	25.76	-0.19	0.750			
0.7618	48757.82	3.5750	3.5749	1.4613	25.76	-0.19	0.750			
0.7663	49040.99	3.5720	3.5725	1.5269	25.76	-0.19	0.750			
0.7709	49340.61	3.5690	3.5689	1.5637	25.75	-0.20	0.750			
0.7758	49649.60	3.5660	3.5658	1.5894	25.75	-0.20	0.750			
0.7807	49961.65	3.5630	3.5629	1.6313	25.75	-0.20	0.750			
0.7855	50272.15	3.5600	3.5602	1.6455	25.75	-0.20	0.750			
0.7905	50589.94	3.5570	3.5570	1.6659	25.75	-0.20	0.750			
0.7956	50915.52	3.5540	3.5539	1.6752	25.75	-0.20	0.750			
0.8006	51237.29	3.5510	3.5510	1.6849	25.75	-0.20	0.750			
0.8058	51569.58	3.5480	3.5481	1.7239	25.75	-0.20	0.750			
0.8109	51894.52	3.5450	3.5451	1.7418	25.75	-0.20	0.750			
0.8161	52228.12	3.5420	3.5421	1.7688	25.75	-0.20	0.750			
0.8216	52583.10	3.5390	3.5388	1.7460	25.76	-0.19	0.750			
0.8273	52946.43	3.5360	3.5358	1.6468	25.77	-0.18	0.750			
0.8325	53281.84	3.5330	3.5329	1.5145	25.79	-0.16	0.750			
0.8369	53560.27	3.5300	3.5305	1.2598	25.80	-0.15	0.750			
0.8405	53791.64	3.5270	3.5273	1.0146	25.81	-0.14	0.750			
0.8428	53942.07	3.5240	3.5236	0.7432	25.83	-0.12	0.750			
0.8442	54031.29	3.5210	3.5208	0.5478	25.83	-0.12	0.750			
0.8455	54109.50	3.5180	3.5181	0.4306	25.84	-0.11	0.750			
0.8466	54180.69	3.5150	3.5149	0.3821	25.85	-0.10	0.750			
0.8476	54246.08	3.5120	3.5119	0.3441	25.85	-0.10	0.750			
0.8486	54308.64	3.5090	3.5090	0.3268	25.86	-0.09	0.750			
0.8495	54368.29	3.5060	3.5060	0.3106	25.86	-0.09	0.750			
0.8504	54425.99	3.5030	3.5028	0.3007	25.87	-0.08	0.750			
0.8513	54482.76	3.5000	3.5000	0.2924	25.87	-0.08	0.750			
0.8522	54537.64	3.4970	3.4970	0.2836	25.88	-0.07	0.750			
0.8530	54591.43	3.4940	3.4940	0.2776	25.89	-0.06	0.750			
0.8538	54644.26	3.4910	3.4910	0.2716	25.89	-0.06	0.750			
0.8546	54695.52	3.4880	3.4880	0.2644	25.90	-0.05	0.750			
0.8554	54745.61	3.4850	3.4850	0.2587	25.90	-0.05	0.750			
0.8562	54794.27	3.4820	3.4820	0.2528	25.91	-0.04	0.750			
0.8569	54842.69	3.4790	3.4791	0.2472	25.91	-0.04	0.750			
0.8576	54889.34	3.4760	3.4759	0.2424	25.92	-0.03	0.750			
0.8584	54935.30	3.4730	3.4730	0.2370	25.92	-0.03	0.750			
0.8591	54980.06	3.4700	3.4700	0.2316	25.92	-0.03	0.750			
0.8598	55024.25	3.4670	3.4669	0.2267	25.93	-0.02	0.750			
0.8604	55067.27	3.4640	3.4640	0.2220	25.93	-0.02	0.750			
0.8611	55109.24	3.4610	3.4611	0.2170	25.94	-0.01	0.750			
0.8617	55150.44	3.4580	3.4580	0.2127	25.94	-0.01	0.750			
0.8624	55191.16	3.4550	3.4550	0.2083	25.95	-0.00	0.750			
0.8630	55230.08	3.4520	3.4520	0.2031	25.95	-0.00	0.750			
0.8636	55268.73	3.4490	3.4491	0.1995	25.95	0.00	0.750			
0.8642	55307.05	3.4460	3.4460	0.1941	25.96	0.01	0.750			
0.8647	55343.99	3.4430	3.4430	0.1895	25.96	0.01	0.750			
0.8653	55379.95	3.4400	3.4401	0.1840	25.96	0.01	0.750			
0.8659	55414.74	3.4370	3.4370	0.1784	25.97	0.02	0.750			
0.8664	55448.46	3.4340	3.4339	0.1732	25.97	0.02	0.750			
0.8669	55481.22	3.4310	3.4311	0.1679	25.97	0.02	0.750			
0.8674	55512.70	3.4280	3.4280	0.1619	25.98	0.03	0.750			
0.8679	55543.32	3.4250	3.4250	0.1570	25.98	0.03	0.750			
0.8683	55573.40	3.4220	3.4220	0.1518	25.98	0.03	0.750			
0.8688	55601.85	3.4190	3.4190	0.1457	25.99	0.04	0.750			
0.8692	55629.48	3.4160	3.4159	0.1404	25.99	0.04	0.750			
0.8696	55655.87	3.4130	3.4131	0.1343	25.99	0.04	0.750			
0.8700	55681.03	3.4100	3.4100	0.1282	25.99	0.04	0.750			
0.8704	55705.30	3.4070	3.4070	0.1216	26.00	0.05	0.750			
0.8708	55728.13	3.4040	3.4040	0.1151	26.00	0.05	0.750			
0.8711	55750.87	3.4010	3.4008	0.1054	26.00	0.05	0.750			
0.8714	55770.66	3.3980	3.3980	0.0975	26.00	0.05	0.750			
0.8717	55788.94	3.3950	3.3951	0.0890	26.01	0.06	0.750			
0.8720	55804.98	3.3920	3.3922	0.0782	26.01	0.06	0.750			
0.8722	55819.83	3.3890	3.3892	0.0682	26.01	0.06	0.750			
0.8724	55831.79	3.3860	3.3867	0.0564	26.01	0.06	0.750			
0.8725	55841.47	3.3830	3.3842	0.0445	26.01	0.06	0.750			
0.8726	55848.88	3.3800	3.3817	0.0326	26.01	0.06	0.750			
0.8727	55854.00	3.3770	3.3790	0.0208	26.01	0.06	0.750			
