Ah_balance (normalized)	Ah_balance (mAh)	Voltage - fit (V)	Voltage -  interpolate (V)	dQ/dV (1/V)	Temperature (°C)	Temperature - diff (°C)	Current (C)	R_DC 0ms (mOhm)	R_DC 50ms (mOhm)	R_DC 50 ms PEC (mOhm)
0.0585	3745.95	4.1990	4.1990	0.6795	25.99	0.06	0.750			
0.0607	3882.59	4.1960	4.1960	0.7234	25.98	0.05	0.750			
0.0628	4020.29	4.1930	4.1930	0.7343	25.98	0.05	0.750			
0.0651	4165.75	4.1900	4.1898	0.7420	25.98	0.05	0.750			
0.0673	4310.20	4.1870	4.1869	0.7464	25.98	0.05	0.750			
0.0696	4454.42	4.1840	4.1841	0.7444	25.98	0.05	0.750			
0.0718	4596.70	4.1810	4.1810	0.7473	25.97	0.04	0.750			
0.0740	4738.98	4.1780	4.1780	0.7432	25.97	0.04	0.750			
0.0763	4882.64	4.1750	4.1750	0.7528	25.97	0.04	0.750			
0.0785	5026.00	4.1720	4.1720	0.7480	25.97	0.04	0.750			
0.0808	5172.52	4.1690	4.1691	0.7548	25.97	0.04	0.750			
0.0831	5319.02	4.1660	4.1659	0.7519	25.97	0.04	0.750			
0.0854	5462.72	4.1630	4.1630	0.7506	25.98	0.05	0.750			
0.0876	5605.18	4.1600	4.1600	0.7452	25.98	0.05	0.750			
0.0898	5748.57	4.1570	4.1569	0.7457	25.98	0.05	0.750			
0.0920	5889.59	4.1540	4.1541	0.7453	25.98	0.05	0.750			
0.0943	6034.94	4.1510	4.1510	0.7499	25.98	0.05	0.750			
0.0965	6178.58	4.1480	4.1479	0.7530	25.98	0.05	0.750			
0.0988	6323.58	4.1450	4.1450	0.7590	25.98	0.05	0.750			
0.1011	6469.56	4.1420	4.1421	0.7628	25.98	0.05	0.750			
0.1034	6617.56	4.1390	4.1390	0.7670	25.98	0.05	0.750			
0.1057	6765.52	4.1360	4.1361	0.7684	25.98	0.05	0.750			
0.1080	6913.02	4.1330	4.1330	0.7655	25.98	0.05	0.750			
0.1103	7060.62	4.1300	4.1300	0.7656	25.99	0.06	0.750			
0.1126	7207.43	4.1270	4.1270	0.7621	25.99	0.06	0.750			
0.1149	7352.72	4.1240	4.1239	0.7618	25.99	0.06	0.750			
0.1172	7498.71	4.1210	4.1210	0.7650	25.99	0.06	0.750			
0.1195	7646.66	4.1180	4.1180	0.7636	25.99	0.06	0.750			
0.1218	7792.25	4.1150	4.1149	0.7681	25.99	0.06	0.750			
0.1241	7940.70	4.1120	4.1120	0.7689	25.99	0.06	0.750			
0.1264	8087.75	4.1090	4.1091	0.7718	25.99	0.06	0.750			
0.1287	8236.48	4.1060	4.1060	0.7729	25.99	0.06	0.750			
0.1310	8384.72	4.1030	4.1029	0.7736	25.99	0.06	0.750			
0.1333	8534.00	4.1000	4.1000	0.7686	25.99	0.06	0.750			
0.1356	8680.74	4.0970	4.0971	0.7781	25.99	0.06	0.750			
0.1379	8828.01	4.0940	4.0941	0.7792	25.99	0.06	0.750			
0.1403	8979.53	4.0910	4.0904	0.7883	25.99	0.06	0.750			
0.1427	9130.37	4.0880	4.0882	0.7917	25.99	0.06	0.750			
0.1451	9285.35	4.0850	4.0850	0.7950	26.00	0.07	0.750			
0.1475	9440.44	4.0820	4.0820	0.8006	26.00	0.07	0.750			
0.1499	9592.92	4.0790	4.0790	0.7907	26.01	0.08	0.750			
0.1523	9744.77	4.0760	4.0760	0.7921	26.01	0.08	0.750			
0.1547	9897.98	4.0730	4.0729	0.7918	26.01	0.08	0.750			
0.1571	10051.44	4.0700	4.0701	0.7830	26.01	0.08	0.750			
0.1594	10199.59	4.0670	4.0670	0.7871	26.01	0.08	0.750			
0.1617	10350.53	4.0640	4.0640	0.7865	26.01	0.08	0.750			
0.1641	10499.38	4.0610	4.0610	0.7860	26.01	0.08	0.750			
0.1664	10650.64	4.0580	4.0580	0.7925	26.01	0.08	0.750			
0.1689	10806.43	4.0550	4.0551	0.7907	26.02	0.09	0.750			
0.1712	10957.46	4.0520	4.0520	0.7997	26.02	0.09	0.750			
0.1736	11112.38	4.0490	4.0491	0.8085	26.02	0.09	0.750			
0.1760	11264.50	4.0460	4.0461	0.8106	26.03	0.10	0.750			
0.1785	11422.43	4.0430	4.0428	0.8161	26.03	0.10	0.750			
0.1810	11581.78	4.0400	4.0400	0.8110	26.03	0.10	0.750			
0.1834	11737.22	4.0370	4.0371	0.8175	26.03	0.10	0.750			
0.1859	11895.03	4.0340	4.0342	0.8182	26.04	0.11	0.750			
0.1883	12048.85	4.0310	4.0310	0.8200	26.04	0.11	0.750			
0.1907	12206.26	4.0280	4.0279	0.8234	26.04	0.11	0.750			
0.1932	12365.68	4.0250	4.0251	0.8279	26.04	0.11	0.750			
0.1957	12527.88	4.0220	4.0220	0.8368	26.04	0.11	0.750			
0.1983	12688.98	4.0190	4.0191	0.8375	26.04	0.11	0.750			
0.2008	12848.90	4.0160	4.0160	0.8322	26.04	0.11	0.750			
0.2033	13008.77	4.0130	4.0130	0.8373	26.04	0.11	0.750			
0.2058	13170.36	4.0100	4.0100	0.8317	26.04	0.11	0.750			
0.2083	13330.00	4.0070	4.0069	0.8373	26.04	0.11	0.750			
0.2108	13489.76	4.0040	4.0041	0.8393	26.05	0.12	0.750			
0.2133	13651.13	4.0010	4.0011	0.8407	26.05	0.12	0.750			
0.2158	13812.23	3.9980	3.9980	0.8441	26.05	0.12	0.750			
0.2184	13975.12	3.9950	3.9950	0.8479	26.05	0.12	0.750			
0.2209	14137.88	3.9920	3.9921	0.8462	26.05	0.12	0.750			
0.2235	14302.18	3.9890	3.9890	0.8489	26.05	0.12	0.750			
0.2260	14464.20	3.9860	3.9861	0.8495	26.05	0.12	0.750			
0.2286	14627.46	3.9830	3.9830	0.8547	26.05	0.12	0.750			
0.2312	14794.65	3.9800	3.9799	0.8455	26.05	0.12	0.750			
0.2337	14954.94	3.9770	3.9771	0.8458	26.05	0.12	0.750			
0.2362	15116.41	3.9740	3.9741	0.8491	26.06	0.13	0.750			
0.2387	15279.28	3.9710	3.9710	0.8518	26.06	0.13	0.750			
0.2413	15441.67	3.9680	3.9681	0.8541	26.06	0.13	0.750			
0.2439	15606.79	3.9650	3.9650	0.8506	26.06	0.13	0.750			
0.2464	15770.27	3.9620	3.9621	0.8586	26.06	0.13	0.750			
0.2490	15938.09	3.9590	3.9591	0.8621	26.06	0.13	0.750			
0.2516	16102.56	3.9560	3.9560	0.8597	26.06	0.13	0.750			
0.2542	16267.87	3.9530	3.9530	0.8603	26.06	0.13	0.750			
0.2568	16432.83	3.9500	3.9502	0.8579	26.06	0.13	0.750			
0.2593	16597.05	3.9470	3.9470	0.8619	26.05	0.12	0.750			
0.2619	16763.01	3.9440	3.9440	0.8650	26.05	0.12	0.750			
0.2645	16930.02	3.9410	3.9409	0.8691	26.05	0.12	0.750			
0.2672	17098.71	3.9380	3.9380	0.8713	26.05	0.12	0.750			
0.2698	17264.89	3.9350	3.9351	0.8711	26.05	0.12	0.750			
0.2724	17433.42	3.9320	3.9321	0.8745	26.05	0.12	0.750			
0.2750	17600.84	3.9290	3.9290	0.8758	26.05	0.12	0.750			
0.2776	17768.07	3.9260	3.9258	0.8735	26.05	0.12	0.750			
0.2802	17935.73	3.9230	3.9231	0.8713	26.04	0.11	0.750			
0.2829	18103.53	3.9200	3.9200	0.8766	26.04	0.11	0.750			
0.2855	18272.56	3.9170	3.9170	0.8864	26.03	0.10	0.750			
0.2881	18441.24	3.9140	3.9140	0.8875	26.02	0.09	0.750			
0.2908	18612.54	3.9110	3.9110	0.8929	26.02	0.09	0.750			
0.2935	18785.51	3.9080	3.9081	0.8952	26.01	0.08	0.750			
0.2962	18958.57	3.9050	3.9051	0.9036	26.01	0.08	0.750			
0.2989	19132.41	3.9020	3.9019	0.9064	26.00	0.07	0.750			
0.3017	19306.01	3.8990	3.8989	0.9037	25.99	0.06	0.750			
0.3044	19479.63	3.8960	3.8961	0.9043	25.99	0.06	0.750			
0.3071	19654.82	3.8930	3.8930	0.9008	25.98	0.05	0.750			
0.3098	19826.45	3.8900	3.8900	0.9038	25.98	0.05	0.750			
0.3125	19998.19	3.8870	3.8871	0.9077	25.97	0.04	0.750			
0.3152	20171.43	3.8840	3.8837	0.9080	25.97	0.04	0.750			
0.3179	20348.41	3.8810	3.8810	0.9019	25.97	0.04	0.750			
0.3207	20521.70	3.8780	3.8780	0.9090	25.96	0.03	0.750			
0.3234	20697.62	3.8750	3.8751	0.9117	25.96	0.03	0.750			
0.3261	20871.68	3.8720	3.8720	0.9094	25.95	0.02	0.750			
0.3288	21045.57	3.8690	3.8690	0.9097	25.95	0.02	0.750			
0.3316	21220.47	3.8660	3.8660	0.9072	25.94	0.01	0.750			
0.3343	21395.76	3.8630	3.8631	0.9128	25.93	0.00	0.750			
0.3371	21571.76	3.8600	3.8600	0.9137	25.93	-0.00	0.750			
0.3398	21744.26	3.8570	3.8569	0.9107	25.92	-0.01	0.750			
0.3425	21921.29	3.8540	3.8540	0.9139	25.91	-0.02	0.750			
0.3452	22095.61	3.8510	3.8511	0.9210	25.91	-0.02	0.750			
0.3480	22272.30	3.8480	3.8480	0.9329	25.90	-0.03	0.750			
0.3508	22453.24	3.8450	3.8450	0.9407	25.89	-0.04	0.750			
0.3536	22633.53	3.8420	3.8420	0.9446	25.89	-0.04	0.750			
0.3565	22817.18	3.8390	3.8391	0.9422	25.88	-0.05	0.750			
0.3593	22998.17	3.8360	3.8360	0.9479	25.88	-0.05	0.750			
0.3622	23179.47	3.8330	3.8332	0.9559	25.87	-0.06	0.750			
0.3650	23361.79	3.8300	3.8297	0.9583	25.87	-0.06	0.750			
0.3679	23545.18	3.8270	3.8270	0.9629	25.87	-0.06	0.750			
0.3708	23732.63	3.8240	3.8241	0.9802	25.86	-0.07	0.750			
0.3738	23923.54	3.8210	3.8210	0.9929	25.86	-0.07	0.750			
0.3768	24114.61	3.8180	3.8179	0.9981	25.85	-0.08	0.750			
0.3798	24307.79	3.8150	3.8151	0.9992	25.84	-0.09	0.750			
0.3828	24498.41	3.8120	3.8121	1.0167	25.84	-0.09	0.750			
0.3859	24694.72	3.8090	3.8090	1.0305	25.83	-0.10	0.750			
0.3890	24893.72	3.8060	3.8060	1.0367	25.82	-0.11	0.750			
0.3921	25097.32	3.8030	3.8030	1.0363	25.82	-0.11	0.750			
0.3953	25296.56	3.8000	3.8002	1.0574	25.81	-0.12	0.750			
0.3984	25498.35	3.7970	3.7971	1.0755	25.80	-0.13	0.750			
0.4017	25705.89	3.7940	3.7938	1.0943	25.79	-0.14	0.750			
0.4049	25915.09	3.7910	3.7911	1.1037	25.79	-0.14	0.750			
0.4083	26130.34	3.7880	3.7879	1.1244	25.78	-0.15	0.750			
0.4117	26350.53	3.7850	3.7851	1.1402	25.78	-0.15	0.750			
0.4152	26570.03	3.7820	3.7820	1.1644	25.77	-0.16	0.750			
0.4187	26794.11	3.7790	3.7790	1.1963	25.76	-0.17	0.750			
0.4223	27027.73	3.7760	3.7758	1.2300	25.76	-0.17	0.750	0.334	0.476	
0.4261	27269.97	3.7730	3.7731	1.2447	25.75	-0.18	0.750			
0.4299	27512.60	3.7700	3.7702	1.2762	25.74	-0.19	0.750			
0.4337	27759.72	3.7670	3.7671	1.2983	25.74	-0.19	0.750			
0.4377	28010.48	3.7640	3.7640	1.3208	25.73	-0.20	0.750			
0.4416	28262.44	3.7610	3.7611	1.3481	25.72	-0.21	0.750			
0.4457	28524.42	3.7580	3.7580	1.3751	25.70	-0.23	0.750			
0.4499	28795.57	3.7550	3.7550	1.4005	25.69	-0.24	0.750			
0.4542	29070.34	3.7520	3.7520	1.4201	25.68	-0.25	0.750			
0.4584	29340.27	3.7490	3.7492	1.4560	25.67	-0.26	0.750			
0.4628	29620.76	3.7460	3.7460	1.4935	25.66	-0.27	0.750			
0.4674	29913.04	3.7430	3.7429	1.5223	25.66	-0.27	0.750			
0.4720	30206.34	3.7400	3.7402	1.5664	25.65	-0.28	0.750			
0.4767	30511.81	3.7370	3.7369	1.6135	25.64	-0.29	0.750			
0.4817	30828.16	3.7340	3.7341	1.6566	25.63	-0.30	0.750			
0.4867	31151.47	3.7310	3.7312	1.6861	25.61	-0.32	0.750			
0.4918	31476.00	3.7280	3.7277	1.7256	25.60	-0.33	0.750			
0.4971	31815.13	3.7250	3.7247	1.7812	25.59	-0.34	0.750			
0.5025	32160.37	3.7220	3.7219	1.8410	25.58	-0.35	0.750			
0.5081	32516.75	3.7190	3.7191	1.8971	25.57	-0.36	0.750			
0.5138	32885.06	3.7160	3.7160	1.9775	25.56	-0.37	0.750			
0.5199	33275.75	3.7130	3.7131	2.0779	25.55	-0.38	0.750			
0.5263	33685.01	3.7100	3.7099	2.0885	25.54	-0.39	0.750			
0.5326	34089.13	3.7070	3.7070	2.1309	25.53	-0.40	0.750			
0.5391	34501.73	3.7040	3.7041	2.1716	25.52	-0.41	0.750			
0.5456	34919.77	3.7010	3.7009	2.2433	25.51	-0.42	0.750			
0.5524	35354.28	3.6980	3.6978	2.3027	25.50	-0.43	0.750			
0.5594	35799.98	3.6950	3.6952	2.4015	25.49	-0.44	0.750			
0.5669	36282.39	3.6920	3.6921	2.5116	25.48	-0.45	0.750			
0.5746	36776.65	3.6890	3.6889	2.6044	25.48	-0.45	0.750			
0.5826	37286.07	3.6860	3.6862	2.7096	25.48	-0.45	0.750			
0.5909	37820.34	3.6830	3.6830	2.7623	25.47	-0.46	0.750			
0.5995	38369.57	3.6800	3.6800	2.7076	25.48	-0.45	0.750			
0.6079	38902.55	3.6770	3.6768	2.5970	25.48	-0.45	0.750			
0.6153	39378.68	3.6740	3.6738	2.3661	25.48	-0.45	0.750			
0.6218	39797.23	3.6710	3.6709	2.1180	25.49	-0.44	0.750			
0.6278	40176.01	3.6680	3.6678	1.9225	25.49	-0.44	0.750			
0.6330	40509.28	3.6650	3.6649	1.7568	25.49	-0.44	0.750			
0.6379	40825.24	3.6620	3.6622	1.6272	25.50	-0.43	0.750			
0.6427	41130.77	3.6590	3.6592	1.5355	25.50	-0.43	0.750			
0.6472	41420.87	3.6560	3.6561	1.4504	25.51	-0.42	0.750			
0.6515	41695.59	3.6530	3.6529	1.3716	25.52	-0.41	0.750			
0.6553	41940.24	3.6500	3.6500	1.2885	25.52	-0.41	0.750			
0.6589	42172.74	3.6470	3.6471	1.2224	25.53	-0.40	0.750			
0.6625	42399.28	3.6440	3.6440	1.1944	25.54	-0.39	0.750			
0.6660	42621.92	3.6410	3.6409	1.1627	25.54	-0.39	0.750			
0.6694	42841.08	3.6380	3.6381	1.1592	25.54	-0.39	0.750			
0.6728	43059.87	3.6350	3.6351	1.1642	25.54	-0.39	0.750			
0.6764	43286.72	3.6320	3.6319	1.1630	25.54	-0.39	0.750			
0.6798	43509.47	3.6290	3.6290	1.1636	25.54	-0.39	0.750			
0.6834	43734.56	3.6260	3.6260	1.1656	25.55	-0.38	0.750			
0.6869	43959.55	3.6230	3.6231	1.1623	25.55	-0.38	0.750			
0.6904	44187.69	3.6200	3.6198	1.1446	25.56	-0.37	0.750			
0.6938	44404.46	3.6170	3.6170	1.1251	25.57	-0.36	0.750			
0.6971	44616.33	3.6140	3.6141	1.1051	25.57	-0.36	0.750			
0.7004	44826.43	3.6110	3.6111	1.1081	25.58	-0.35	0.750			
0.7037	45034.50	3.6080	3.6079	1.1014	25.58	-0.35	0.750			
0.7069	45244.33	3.6050	3.6050	1.1178	25.58	-0.35	0.750			
0.7103	45456.68	3.6020	3.6021	1.1416	25.59	-0.34	0.750			
0.7138	45680.99	3.5990	3.5989	1.1692	25.59	-0.34	0.750			
0.7173	45906.75	3.5960	3.5961	1.2035	25.59	-0.34	0.750			
0.7209	46138.28	3.5930	3.5930	1.2461	25.59	-0.34	0.750			
0.7247	46383.96	3.5900	3.5901	1.2768	25.60	-0.33	0.750			
0.7286	46630.76	3.5870	3.5869	1.3230	25.60	-0.33	0.750			
0.7326	46888.71	3.5840	3.5841	1.3618	25.60	-0.33	0.750			
0.7368	47155.00	3.5810	3.5812	1.4066	25.61	-0.32	0.750			
0.7411	47429.56	3.5780	3.5778	1.4528	25.61	-0.32	0.750			
0.7455	47711.92	3.5750	3.5751	1.4858	25.61	-0.32	0.750			
0.7500	48000.23	3.5720	3.5722	1.5197	25.62	-0.31	0.750			
0.7547	48299.46	3.5690	3.5690	1.5583	25.62	-0.31	0.750			
0.7594	48602.42	3.5660	3.5658	1.5842	25.62	-0.31	0.750			
0.7642	48911.44	3.5630	3.5630	1.6047	25.62	-0.31	0.750			
0.7691	49224.49	3.5600	3.5601	1.6311	25.63	-0.30	0.750			
0.7740	49536.18	3.5570	3.5571	1.6384	25.63	-0.30	0.750			
0.7789	49852.24	3.5540	3.5540	1.6531	25.64	-0.29	0.750			
0.7839	50172.61	3.5510	3.5511	1.6729	25.65	-0.28	0.750			
0.7889	50489.70	3.5480	3.5480	1.7146	25.66	-0.27	0.750			
0.7941	50823.10	3.5450	3.5450	1.7478	25.67	-0.26	0.750			
0.7996	51177.47	3.5420	3.5416	1.7170	25.69	-0.24	0.750			
0.8052	51534.75	3.5390	3.5390	1.6062	25.71	-0.22	0.750			
0.8101	51843.94	3.5360	3.5361	1.4054	25.73	-0.20	0.750			
0.8142	52111.79	3.5330	3.5333	1.1716	25.75	-0.18	0.750			
0.8173	52305.15	3.5300	3.5299	0.8900	25.77	-0.16	0.750			
0.8191	52422.89	3.5270	3.5266	0.6643	25.78	-0.15	0.750			
0.8204	52507.35	3.5240	3.5239	0.4919	25.79	-0.14	0.750			
0.8216	52580.59	3.5210	3.5209	0.4143	25.80	-0.13	0.750			
0.8227	52649.84	3.5180	3.5179	0.3676	25.80	-0.13	0.750			
0.8236	52712.04	3.5150	3.5149	0.3385	25.81	-0.12	0.750			
0.8246	52773.92	3.5120	3.5120	0.3208	25.82	-0.11	0.750			
0.8255	52833.06	3.5090	3.5090	0.3084	25.82	-0.11	0.750			
0.8264	52891.08	3.5060	3.5060	0.2988	25.83	-0.10	0.750			
0.8273	52947.38	3.5030	3.5029	0.2897	25.84	-0.09	0.750			
0.8282	53002.05	3.5000	3.5000	0.2813	25.84	-0.09	0.750			
0.8290	53055.05	3.4970	3.4970	0.2730	25.85	-0.08	0.750			
0.8298	53106.79	3.4940	3.4940	0.2664	25.86	-0.07	0.750			
0.8306	53157.07	3.4910	3.4910	0.2600	25.86	-0.07	0.750			
0.8313	53205.87	3.4880	3.4880	0.2527	25.87	-0.06	0.750			
0.8321	53254.01	3.4850	3.4849	0.2475	25.87	-0.06	0.750			
0.8328	53299.81	3.4820	3.4821	0.2444	25.88	-0.05	0.750			
0.8335	53347.20	3.4790	3.4790	0.2389	25.88	-0.05	0.750			
0.8343	53393.44	3.4760	3.4759	0.2340	25.89	-0.04	0.750			
0.8350	53437.79	3.4730	3.4728	0.2285	25.89	-0.04	0.750			
0.8356	53481.23	3.4700	3.4703	0.2224	25.90	-0.03	0.750			
0.8363	53523.10	3.4670	3.4668	0.2172	25.90	-0.03	0.750			
0.8369	53563.79	3.4640	3.4639	0.2134	25.91	-0.02	0.750			
0.8376	53604.04	3.4610	3.4609	0.2080	25.91	-0.02	0.750			
0.8382	53642.48	3.4580	3.4580	0.2031	25.92	-0.01	0.750			
0.8388	53682.82	3.4550	3.4549	0.2003	25.92	-0.01	0.750			
0.8394	53720.84	3.4520	3.4522	0.1952	25.92	-0.01	0.750			
0.8400	53757.80	3.4490	3.4490	0.1899	25.93	-0.00	0.750			
0.8405	53793.70	3.4460	3.4460	0.1840	25.93	0.00	0.750			
0.8411	53828.36	3.4430	3.4429	0.1781	25.94	0.01	0.750			
0.8416	53861.60	3.4400	3.4401	0.1718	25.94	0.01	0.750			
0.8421	53894.49	3.4370	3.4370	0.1675	25.94	0.01	0.750			
0.8426	53926.01	3.4340	3.4340	0.1626	25.95	0.02	0.750			
0.8431	53956.94	3.4310	3.4309	0.1566	25.95	0.02	0.750			
0.8435	53986.40	3.4280	3.4281	0.1506	25.95	0.02	0.750			
0.8440	54014.86	3.4250	3.4250	0.1449	25.96	0.03	0.750			
0.8444	54042.09	3.4220	3.4221	0.1389	25.96	0.03	0.750			
0.8448	54068.30	3.4190	3.4189	0.1330	25.96	0.03	0.750			
0.8452	54093.18	3.4160	3.4159	0.1266	25.97	0.04	0.750			
0.8456	54117.04	3.4130	3.4130	0.1197	25.97	0.04	0.750			
0.8459	54139.31	3.4100	3.4101	0.1130	25.97	0.04	0.750			
0.8463	54160.86	3.4070	3.4070	0.1067	25.97	0.04	0.750			
0.8466	54181.79	3.4040	3.4039	0.0971	25.98	0.05	0.750			
0.8469	54199.44	3.4010	3.4010	0.0868	25.98	0.05	0.750			
0.8471	54215.84	3.3980	3.3982	0.0777	25.98	0.05	0.750			
0.8473	54229.69	3.3950	3.3954	0.0666	25.98	0.05	0.750			
0.8475	54242.32	3.3920	3.3926	0.0555	25.98	0.05	0.750			
0.8477	54251.80	3.3890	3.3899	0.0432	25.98	0.05	0.750			
0.8478	54258.91	3.3860	3.3875	0.0309	25.99	0.06	0.750			
0.8479	54263.65	3.3830	3.3851	0.0186	25.99	0.06	0.750			
