Ah_balance (normalized)	Ah_balance (mAh)	Voltage - fit (V)	Voltage -  interpolate (V)	dQ/dV (1/V)	Temperature (°C)	Temperature - diff (°C)	Current (C)	R_DC 0ms (mOhm)	R_DC 50ms (mOhm)	R_DC 50 ms PEC (mOhm)
0.0005	32.61	4.1640	4.1639	-0.1570	25.52	0.00	-0.750			
0.0011	67.96	4.1610	4.1609	-0.2028	25.52	0.00	-0.750			
0.0017	110.94	4.1580	4.1580	-0.2460	25.52	0.00	-0.750			
0.0025	162.32	4.1550	4.1550	-0.2890	25.52	-0.00	-0.750			
0.0035	221.96	4.1520	4.1520	-0.3326	25.52	-0.00	-0.750			
0.0045	290.17	4.1490	4.1491	-0.3755	25.51	-0.01	-0.750			
0.0057	367.04	4.1460	4.1460	-0.4148	25.51	-0.01	-0.750			
0.0070	450.93	4.1430	4.1430	-0.4529	25.50	-0.02	-0.750			
0.0085	542.52	4.1400	4.1400	-0.4902	25.50	-0.02	-0.750			
0.0100	640.72	4.1370	4.1371	-0.5213	25.49	-0.03	-0.750			
0.0116	745.17	4.1340	4.1339	-0.5506	25.49	-0.03	-0.750			
0.0134	854.52	4.1310	4.1310	-0.5723	25.48	-0.04	-0.750			
0.0151	968.37	4.1280	4.1281	-0.5917	25.48	-0.04	-0.750			
0.0169	1083.24	4.1250	4.1251	-0.6126	25.48	-0.04	-0.750			
0.0188	1202.68	4.1220	4.1220	-0.6297	25.47	-0.05	-0.750			
0.0207	1324.52	4.1190	4.1190	-0.6465	25.47	-0.05	-0.750			
0.0227	1451.89	4.1160	4.1159	-0.6610	25.47	-0.05	-0.750			
0.0247	1581.84	4.1130	4.1131	-0.6746	25.46	-0.06	-0.750			
0.0268	1712.90	4.1100	4.1102	-0.6864	25.46	-0.06	-0.750			
0.0289	1846.71	4.1070	4.1069	-0.6944	25.46	-0.06	-0.750			
0.0309	1979.44	4.1040	4.1040	-0.6957	25.46	-0.06	-0.750			
0.0330	2112.61	4.1010	4.1010	-0.7063	25.46	-0.06	-0.750			
0.0352	2249.96	4.0980	4.0980	-0.7101	25.46	-0.06	-0.750			
0.0373	2388.43	4.0950	4.0949	-0.7204	25.46	-0.06	-0.750			
0.0395	2525.47	4.0920	4.0922	-0.7277	25.46	-0.06	-0.750			
0.0417	2666.66	4.0890	4.0890	-0.7300	25.46	-0.06	-0.750			
0.0439	2807.71	4.0860	4.0859	-0.7356	25.46	-0.06	-0.750			
0.0461	2950.19	4.0830	4.0830	-0.7351	25.46	-0.06	-0.750			
0.0483	3091.79	4.0800	4.0803	-0.7369	25.46	-0.06	-0.750			
0.0505	3233.05	4.0770	4.0768	-0.7384	25.46	-0.06	-0.750			
0.0527	3373.20	4.0740	4.0741	-0.7364	25.46	-0.06	-0.750			
0.0549	3514.52	4.0710	4.0710	-0.7401	25.46	-0.06	-0.750			
0.0572	3658.18	4.0680	4.0679	-0.7505	25.45	-0.07	-0.750			
0.0594	3800.36	4.0650	4.0650	-0.7513	25.45	-0.07	-0.750			
0.0617	3949.31	4.0620	4.0619	-0.7563	25.44	-0.08	-0.750			
0.0640	4094.85	4.0590	4.0591	-0.7597	25.44	-0.08	-0.750			
0.0663	4240.45	4.0560	4.0559	-0.7630	25.44	-0.08	-0.750			
0.0685	4385.46	4.0530	4.0530	-0.7670	25.44	-0.08	-0.750			
0.0708	4533.89	4.0500	4.0499	-0.7665	25.44	-0.08	-0.750			
0.0731	4680.10	4.0470	4.0471	-0.7658	25.44	-0.08	-0.750			
0.0755	4830.18	4.0440	4.0440	-0.7679	25.44	-0.08	-0.750			
0.0778	4978.20	4.0410	4.0411	-0.7698	25.44	-0.08	-0.750			
0.0801	5123.61	4.0380	4.0380	-0.7685	25.44	-0.08	-0.750			
0.0824	5270.49	4.0350	4.0350	-0.7741	25.44	-0.08	-0.750			
0.0847	5418.74	4.0320	4.0320	-0.7746	25.45	-0.07	-0.750			
0.0870	5569.87	4.0290	4.0289	-0.7821	25.45	-0.07	-0.750			
0.0894	5721.45	4.0260	4.0262	-0.7846	25.45	-0.07	-0.750			
0.0918	5872.81	4.0230	4.0230	-0.7815	25.45	-0.07	-0.750			
0.0941	6022.66	4.0200	4.0201	-0.7814	25.45	-0.07	-0.750			
0.0964	6171.59	4.0170	4.0170	-0.7838	25.46	-0.06	-0.750			
0.0987	6319.45	4.0140	4.0138	-0.7870	25.46	-0.06	-0.750			
0.1011	6471.73	4.0110	4.0111	-0.7974	25.46	-0.06	-0.750			
0.1035	6626.08	4.0080	4.0078	-0.7989	25.46	-0.06	-0.750			
0.1059	6780.30	4.0050	4.0050	-0.8135	25.47	-0.05	-0.750			
0.1084	6939.58	4.0020	4.0020	-0.8104	25.47	-0.05	-0.750			
0.1109	7094.83	3.9990	3.9990	-0.8063	25.47	-0.05	-0.750			
0.1133	7250.05	3.9960	3.9959	-0.8056	25.48	-0.04	-0.750			
0.1157	7404.64	3.9930	3.9928	-0.8025	25.48	-0.04	-0.750			
0.1181	7557.19	3.9900	3.9900	-0.8015	25.48	-0.04	-0.750			
0.1205	7711.25	3.9870	3.9871	-0.8021	25.48	-0.04	-0.750			
0.1229	7863.05	3.9840	3.9840	-0.7971	25.48	-0.04	-0.750			
0.1253	8019.76	3.9810	3.9810	-0.8030	25.48	-0.04	-0.750			
0.1277	8172.04	3.9780	3.9781	-0.8056	25.48	-0.04	-0.750			
0.1301	8325.76	3.9750	3.9749	-0.8112	25.49	-0.03	-0.750			
0.1325	8482.45	3.9720	3.9720	-0.8208	25.49	-0.03	-0.750			
0.1350	8642.12	3.9690	3.9690	-0.8223	25.49	-0.03	-0.750			
0.1375	8801.51	3.9660	3.9660	-0.8276	25.50	-0.02	-0.750			
0.1400	8961.66	3.9630	3.9631	-0.8275	25.50	-0.02	-0.750			
0.1425	9121.35	3.9600	3.9600	-0.8226	25.50	-0.02	-0.750			
0.1450	9278.28	3.9570	3.9569	-0.8218	25.51	-0.01	-0.750			
0.1474	9433.63	3.9540	3.9540	-0.8216	25.51	-0.01	-0.750			
0.1499	9591.70	3.9510	3.9509	-0.8281	25.52	-0.00	-0.750			
0.1524	9751.40	3.9480	3.9481	-0.8286	25.52	0.00	-0.750			
0.1548	9909.86	3.9450	3.9450	-0.8337	25.52	0.00	-0.750			
0.1574	10070.95	3.9420	3.9421	-0.8410	25.52	0.00	-0.750			
0.1599	10235.00	3.9390	3.9390	-0.8405	25.52	0.00	-0.750			
0.1625	10396.93	3.9360	3.9359	-0.8449	25.52	0.00	-0.750			
0.1650	10557.98	3.9330	3.9331	-0.8446	25.52	0.00	-0.750			
0.1675	10720.26	3.9300	3.9300	-0.8429	25.52	0.00	-0.750			
0.1701	10884.42	3.9270	3.9269	-0.8510	25.53	0.01	-0.750			
0.1726	11047.12	3.9240	3.9240	-0.8501	25.53	0.01	-0.750			
0.1752	11211.96	3.9210	3.9209	-0.8518	25.54	0.02	-0.750			
0.1778	11376.10	3.9180	3.9182	-0.8516	25.54	0.02	-0.750			
0.1803	11537.37	3.9150	3.9149	-0.8541	25.54	0.02	-0.750			
0.1828	11701.87	3.9120	3.9119	-0.8543	25.54	0.02	-0.750			
0.1854	11862.88	3.9090	3.9090	-0.8510	25.55	0.03	-0.750			
0.1880	12031.22	3.9060	3.9060	-0.8618	25.55	0.03	-0.750			
0.1906	12197.02	3.9030	3.9029	-0.8646	25.55	0.03	-0.750			
0.1932	12364.19	3.9000	3.9000	-0.8734	25.55	0.03	-0.750			
0.1958	12531.76	3.8970	3.8970	-0.8745	25.56	0.04	-0.750			
0.1984	12700.48	3.8940	3.8939	-0.8707	25.56	0.04	-0.750			
0.2011	12870.42	3.8910	3.8909	-0.8721	25.56	0.04	-0.750			
0.2037	13036.28	3.8880	3.8879	-0.8705	25.56	0.04	-0.750			
0.2063	13203.20	3.8850	3.8850	-0.8714	25.57	0.05	-0.750			
0.2089	13367.11	3.8820	3.8820	-0.8704	25.57	0.05	-0.750			
0.2115	13535.46	3.8790	3.8789	-0.8815	25.58	0.06	-0.750			
0.2141	13703.97	3.8760	3.8762	-0.8837	25.58	0.06	-0.750			
0.2168	13874.80	3.8730	3.8730	-0.8887	25.58	0.06	-0.750			
0.2195	14047.75	3.8700	3.8699	-0.8896	25.59	0.07	-0.750			
0.2222	14218.41	3.8670	3.8671	-0.8854	25.59	0.07	-0.750			
0.2248	14386.92	3.8640	3.8640	-0.8835	25.60	0.08	-0.750			
0.2275	14557.07	3.8610	3.8611	-0.8837	25.60	0.08	-0.750			
0.2301	14726.01	3.8580	3.8580	-0.8871	25.60	0.08	-0.750			
0.2327	14895.85	3.8550	3.8550	-0.8852	25.60	0.08	-0.750			
0.2354	15066.29	3.8520	3.8519	-0.8873	25.61	0.09	-0.750			
0.2381	15238.02	3.8490	3.8490	-0.8916	25.61	0.09	-0.750			
0.2408	15410.62	3.8460	3.8460	-0.8826	25.61	0.09	-0.750			
0.2434	15578.26	3.8430	3.8430	-0.8868	25.61	0.09	-0.750			
0.2461	15747.84	3.8400	3.8401	-0.8901	25.62	0.10	-0.750			
0.2487	15917.54	3.8370	3.8369	-0.8861	25.62	0.10	-0.750			
0.2514	16089.19	3.8340	3.8339	-0.8879	25.62	0.10	-0.750			
0.2541	16259.66	3.8310	3.8311	-0.8896	25.62	0.10	-0.750			
0.2567	16430.50	3.8280	3.8279	-0.8920	25.63	0.11	-0.750			
0.2594	16604.12	3.8250	3.8250	-0.8957	25.63	0.11	-0.750			
0.2621	16773.02	3.8220	3.8220	-0.8896	25.64	0.12	-0.750			
0.2648	16944.36	3.8190	3.8191	-0.8918	25.64	0.12	-0.750			
0.2675	17116.98	3.8160	3.8160	-0.8954	25.64	0.12	-0.750			
0.2701	17288.63	3.8130	3.8130	-0.8942	25.65	0.13	-0.750			
0.2728	17459.67	3.8100	3.8099	-0.8917	25.65	0.13	-0.750			
0.2755	17632.59	3.8070	3.8070	-0.8832	25.66	0.14	-0.750			
0.2782	17802.37	3.8040	3.8040	-0.8751	25.66	0.14	-0.750			
0.2808	17968.01	3.8010	3.8011	-0.8759	25.66	0.14	-0.750			
0.2834	18135.46	3.7980	3.7979	-0.8719	25.67	0.15	-0.750			
0.2859	18300.23	3.7950	3.7950	-0.8701	25.67	0.15	-0.750			
0.2885	18467.05	3.7920	3.7919	-0.8759	25.67	0.15	-0.750			
0.2912	18635.61	3.7890	3.7891	-0.8843	25.67	0.15	-0.750			
0.2939	18808.32	3.7860	3.7859	-0.8909	25.68	0.16	-0.750			
0.2966	18979.56	3.7830	3.7830	-0.8889	25.68	0.16	-0.750			
0.2992	19149.17	3.7800	3.7800	-0.8866	25.69	0.17	-0.750			
0.3019	19319.49	3.7770	3.7773	-0.8966	25.69	0.17	-0.750			
0.3045	19489.66	3.7740	3.7740	-0.9075	25.69	0.17	-0.750			
0.3073	19665.79	3.7710	3.7709	-0.9026	25.69	0.17	-0.750			
0.3100	19840.14	3.7680	3.7679	-0.9061	25.70	0.18	-0.750			
0.3128	20017.97	3.7650	3.7651	-0.9067	25.70	0.18	-0.750			
0.3155	20191.69	3.7620	3.7620	-0.9030	25.70	0.18	-0.750			
0.3182	20363.73	3.7590	3.7589	-0.8977	25.71	0.19	-0.750			
0.3208	20533.90	3.7560	3.7560	-0.8893	25.71	0.19	-0.750			
0.3235	20700.89	3.7530	3.7530	-0.8838	25.71	0.19	-0.750			
0.3261	20873.25	3.7500	3.7499	-0.8938	25.72	0.20	-0.750			
0.3288	21043.53	3.7470	3.7470	-0.8929	25.72	0.20	-0.750			
0.3315	21216.58	3.7440	3.7439	-0.8938	25.72	0.20	-0.750			
0.3342	21386.41	3.7410	3.7410	-0.8966	25.72	0.20	-0.750			
0.3369	21560.12	3.7380	3.7380	-0.9015	25.72	0.20	-0.750			
0.3396	21734.04	3.7350	3.7352	-0.9087	25.72	0.20	-0.750			
0.3423	21907.26	3.7320	3.7320	-0.9206	25.73	0.21	-0.750			
0.3451	22085.41	3.7290	3.7290	-0.9239	25.73	0.21	-0.750			
0.3479	22264.79	3.7260	3.7260	-0.9313	25.74	0.22	-0.750			
0.3507	22444.64	3.7230	3.7230	-0.9419	25.75	0.23	-0.750			
0.3535	22625.09	3.7200	3.7200	-0.9436	25.75	0.23	-0.750			
0.3564	22807.67	3.7170	3.7169	-0.9569	25.75	0.23	-0.750			
0.3592	22989.51	3.7140	3.7141	-0.9667	25.75	0.23	-0.750			
0.3621	23174.60	3.7110	3.7110	-0.9774	25.75	0.23	-0.750			
0.3651	23364.81	3.7080	3.7081	-1.0057	25.75	0.23	-0.750			
0.3681	23559.56	3.7050	3.7049	-1.0215	25.75	0.23	-0.750			
0.3712	23758.02	3.7020	3.7020	-1.0383	25.76	0.24	-0.750			
0.3744	23960.90	3.6990	3.6990	-1.0569	25.76	0.24	-0.750			
0.3776	24164.46	3.6960	3.6962	-1.0831	25.76	0.24	-0.750			
0.3809	24375.08	3.6930	3.6931	-1.0971	25.76	0.24	-0.750			
0.3842	24585.85	3.6900	3.6899	-1.1168	25.75	0.23	-0.750			
0.3875	24801.68	3.6870	3.6870	-1.1328	25.75	0.23	-0.750			
0.3910	25023.02	3.6840	3.6839	-1.1621	25.75	0.23	-0.750			
0.3945	25247.01	3.6810	3.6810	-1.1849	25.75	0.23	-0.750			
0.3981	25477.76	3.6780	3.6780	-1.2060	25.75	0.23	-0.750			
0.4017	25709.64	3.6750	3.6752	-1.2309	25.75	0.23	-0.750			
0.4055	25950.76	3.6720	3.6719	-1.2635	25.74	0.22	-0.750			
0.4093	26193.87	3.6690	3.6690	-1.2838	25.74	0.22	-0.750			
0.4132	26441.92	3.6660	3.6659	-1.3219	25.73	0.21	-0.750			
0.4172	26699.92	3.6630	3.6630	-1.3584	25.73	0.21	-0.750			
0.4213	26963.28	3.6600	3.6599	-1.3840	25.72	0.20	-0.750			
0.4255	27233.65	3.6570	3.6570	-1.4243	25.71	0.19	-0.750			
0.4299	27511.05	3.6540	3.6540	-1.4465	25.71	0.19	-0.750			
0.4342	27791.96	3.6510	3.6510	-1.4881	25.70	0.18	-0.750			
0.4388	28082.41	3.6480	3.6481	-1.5225	25.70	0.18	-0.750			
0.4434	28375.75	3.6450	3.6448	-1.5598	25.69	0.17	-0.750			
0.4482	28683.84	3.6420	3.6421	-1.6084	25.69	0.17	-0.750			
0.4530	28993.79	3.6390	3.6390	-1.6557	25.68	0.16	-0.750			
0.4581	29317.12	3.6360	3.6362	-1.6831	25.67	0.15	-0.750			
0.4633	29649.23	3.6330	3.6331	-1.7213	25.66	0.14	-0.750			
0.4685	29982.40	3.6300	3.6298	-1.7354	25.65	0.13	-0.750	0.418	0.506	
0.4737	30316.35	3.6270	3.6272	-1.7786	25.65	0.13	-0.750			
0.4790	30658.09	3.6240	3.6239	-1.8135	25.64	0.12	-0.750			
0.4844	31004.19	3.6210	3.6210	-1.8370	25.63	0.11	-0.750			
0.4900	31362.69	3.6180	3.6181	-1.8572	25.62	0.10	-0.750			
0.4957	31724.38	3.6150	3.6147	-1.9083	25.61	0.09	-0.750			
0.5015	32096.77	3.6120	3.6118	-1.9447	25.60	0.08	-0.750			
0.5074	32473.81	3.6090	3.6086	-1.9729	25.60	0.08	-0.750			
0.5133	32853.38	3.6060	3.6062	-1.9982	25.59	0.07	-0.750			
0.5194	33238.48	3.6030	3.6030	-2.0308	25.59	0.07	-0.750			
0.5255	33634.35	3.6000	3.6000	-2.0681	25.58	0.06	-0.750			
0.5318	34033.94	3.5970	3.5970	-2.1051	25.58	0.06	-0.750			
0.5382	34445.39	3.5940	3.5940	-2.1444	25.57	0.05	-0.750			
0.5447	34861.18	3.5910	3.5910	-2.1873	25.57	0.05	-0.750			
0.5513	35283.39	3.5880	3.5881	-2.2283	25.58	0.06	-0.750			
0.5581	35715.21	3.5850	3.5850	-2.2639	25.58	0.06	-0.750			
0.5649	36152.67	3.5820	3.5820	-2.3035	25.57	0.05	-0.750			
0.5719	36601.86	3.5790	3.5789	-2.3307	25.56	0.04	-0.750			
0.5790	37056.07	3.5760	3.5762	-2.3573	25.56	0.04	-0.750			
0.5862	37515.10	3.5730	3.5729	-2.3657	25.55	0.03	-0.750			
0.5932	37964.16	3.5700	3.5699	-2.3817	25.54	0.02	-0.750			
0.6003	38421.00	3.5670	3.5670	-2.3823	25.55	0.03	-0.750			
0.6076	38886.60	3.5640	3.5639	-2.4013	25.55	0.03	-0.750			
0.6147	39343.43	3.5610	3.5611	-2.4047	25.54	0.02	-0.750			
0.6220	39807.76	3.5580	3.5580	-2.4114	25.55	0.03	-0.750			
0.6293	40275.59	3.5550	3.5550	-2.4168	25.56	0.04	-0.750			
0.6366	40745.42	3.5520	3.5520	-2.3891	25.54	0.02	-0.750			
0.6438	41201.40	3.5490	3.5490	-2.3557	25.55	0.03	-0.750			
0.6508	41652.72	3.5460	3.5461	-2.3358	25.56	0.04	-0.750			
0.6578	42098.72	3.5430	3.5430	-2.3055	25.56	0.04	-0.750			
0.6646	42531.54	3.5400	3.5400	-2.2711	25.56	0.04	-0.750			
0.6714	42967.46	3.5370	3.5370	-2.2288	25.57	0.05	-0.750			
0.6781	43395.63	3.5340	3.5340	-2.2042	25.58	0.06	-0.750			
0.6847	43818.80	3.5310	3.5309	-2.1714	25.59	0.07	-0.750			
0.6911	44232.35	3.5280	3.5279	-2.1056	25.60	0.08	-0.750			
0.6973	44628.02	3.5250	3.5252	-2.0595	25.61	0.09	-0.750			
0.7034	45018.94	3.5220	3.5220	-2.0039	25.62	0.10	-0.750			
0.7094	45400.46	3.5190	3.5190	-1.9321	25.63	0.11	-0.750			
0.7152	45770.75	3.5160	3.5160	-1.8785	25.64	0.12	-0.750			
0.7206	46117.91	3.5130	3.5128	-1.8068	25.65	0.13	-0.750			
0.7260	46461.04	3.5100	3.5099	-1.7383	25.66	0.14	-0.750			
0.7311	46789.02	3.5070	3.5070	-1.6789	25.67	0.15	-0.750			
0.7359	47099.23	3.5040	3.5039	-1.6149	25.69	0.17	-0.750			
0.7407	47403.67	3.5010	3.5011	-1.5561	25.71	0.19	-0.750			
0.7454	47702.62	3.4980	3.4979	-1.5037	25.72	0.20	-0.750			
0.7498	47985.35	3.4950	3.4950	-1.4519	25.74	0.22	-0.750			
0.7541	48261.89	3.4920	3.4919	-1.4006	25.76	0.24	-0.750			
0.7582	48523.67	3.4890	3.4889	-1.3484	25.77	0.25	-0.750			
0.7621	48773.73	3.4860	3.4860	-1.3079	25.78	0.26	-0.750			
0.7659	49017.08	3.4830	3.4830	-1.2591	25.80	0.28	-0.750			
0.7697	49260.12	3.4800	3.4799	-1.2282	25.81	0.29	-0.750			
0.7733	49493.08	3.4770	3.4769	-1.1871	25.83	0.31	-0.750			
0.7768	49714.54	3.4740	3.4743	-1.1478	25.84	0.32	-0.750			
0.7802	49932.84	3.4710	3.4710	-1.1101	25.85	0.33	-0.750			
0.7835	50140.81	3.4680	3.4679	-1.0632	25.87	0.35	-0.750			
0.7866	50339.70	3.4650	3.4650	-1.0283	25.88	0.36	-0.750			
0.7896	50532.95	3.4620	3.4622	-1.0027	25.89	0.37	-0.750			
0.7925	50719.53	3.4590	3.4589	-0.9792	25.90	0.38	-0.750			
0.7954	50903.60	3.4560	3.4559	-0.9611	25.91	0.39	-0.750			
0.7982	51084.25	3.4530	3.4531	-0.9565	25.92	0.40	-0.750			
0.8010	51266.06	3.4500	3.4500	-0.9639	25.93	0.41	-0.750			
0.8039	51449.89	3.4470	3.4469	-0.9894	25.93	0.41	-0.750			
0.8068	51635.54	3.4440	3.4440	-1.0118	25.94	0.42	-0.750			
0.8099	51831.48	3.4410	3.4409	-1.0589	25.95	0.43	-0.750			
0.8131	52038.56	3.4380	3.4380	-1.1021	25.96	0.44	-0.750			
0.8165	52258.19	3.4350	3.4348	-1.1629	25.97	0.45	-0.750			
0.8202	52490.15	3.4320	3.4320	-1.1982	25.98	0.46	-0.750			
0.8239	52729.15	3.4290	3.4289	-1.2221	26.00	0.48	-0.750			
0.8276	52968.47	3.4260	3.4262	-1.2210	26.01	0.49	-0.750			
0.8314	53209.88	3.4230	3.4230	-1.2140	26.01	0.49	-0.750			
0.8350	53442.31	3.4200	3.4200	-1.1816	26.01	0.49	-0.750			
0.8386	53667.27	3.4170	3.4169	-1.1440	26.01	0.49	-0.750			
0.8419	53883.88	3.4140	3.4140	-1.1088	26.02	0.50	-0.750			
0.8452	54092.11	3.4110	3.4109	-1.0651	26.03	0.51	-0.750			
0.8483	54292.08	3.4080	3.4081	-1.0250	26.04	0.52	-0.750			
0.8513	54483.09	3.4050	3.4050	-0.9824	26.05	0.53	-0.750			
0.8542	54669.40	3.4020	3.4020	-0.9571	26.05	0.53	-0.750			
0.8570	54850.40	3.3990	3.3989	-0.9201	26.06	0.54	-0.750			
0.8598	55024.00	3.3960	3.3960	-0.8802	26.06	0.54	-0.750			
0.8623	55188.95	3.3930	3.3930	-0.8444	26.07	0.55	-0.750			
0.8648	55348.61	3.3900	3.3902	-0.8143	26.07	0.55	-0.750			
0.8672	55501.00	3.3870	3.3870	-0.7794	26.07	0.55	-0.750			
0.8695	55645.75	3.3840	3.3839	-0.7480	26.08	0.56	-0.750			
0.8716	55785.31	3.3810	3.3811	-0.7166	26.08	0.56	-0.750			
0.8738	55921.44	3.3780	3.3780	-0.6924	26.09	0.57	-0.750			
0.8758	56051.30	3.3750	3.3750	-0.6646	26.09	0.57	-0.750			
0.8777	56175.88	3.3720	3.3720	-0.6351	26.09	0.57	-0.750			
0.8796	56295.08	3.3690	3.3690	-0.6095	26.10	0.58	-0.750			
0.8814	56409.38	3.3660	3.3660	-0.5844	26.11	0.59	-0.750			
0.8831	56518.67	3.3630	3.3630	-0.5607	26.12	0.60	-0.750			
0.8848	56624.35	3.3600	3.3600	-0.5376	26.13	0.61	-0.750			
0.8863	56725.23	3.3570	3.3569	-0.5137	26.14	0.62	-0.750			
0.8878	56821.31	3.3540	3.3540	-0.4908	26.14	0.62	-0.750			
0.8893	56912.89	3.3510	3.3511	-0.4707	26.15	0.63	-0.750			
0.8906	57000.48	3.3480	3.3480	-0.4501	26.15	0.63	-0.750			
0.8920	57084.91	3.3450	3.3449	-0.4306	26.16	0.64	-0.750			
0.8932	57165.85	3.3420	3.3420	-0.4112	26.16	0.64	-0.750			
0.8944	57242.74	3.3390	3.3388	-0.3932	26.17	0.65	-0.750			
0.8956	57316.74	3.3360	3.3361	-0.3772	26.17	0.65	-0.750			
0.8967	57387.32	3.3330	3.3328	-0.3605	26.17	0.65	-0.750			
0.8977	57453.86	3.3300	3.3300	-0.3454	26.18	0.66	-0.750			
0.8987	57519.23	3.3270	3.3270	-0.3326	26.18	0.66	-0.750			
0.8997	57581.54	3.3240	3.3240	-0.3190	26.18	0.66	-0.750			
0.9007	57641.78	3.3210	3.3210	-0.3062	26.19	0.67	-0.750			
0.9015	57698.79	3.3180	3.3181	-0.2930	26.19	0.67	-0.750			
0.9024	57753.54	3.3150	3.3150	-0.2822	26.19	0.67	-0.750			
0.9032	57806.41	3.3120	3.3120	-0.2715	26.20	0.68	-0.750			
0.9040	57857.17	3.3090	3.3091	-0.2612	26.20	0.68	-0.750			
0.9048	57905.92	3.3060	3.3060	-0.2516	26.21	0.69	-0.750			
0.9055	57953.67	3.3030	3.3030	-0.2436	26.21	0.69	-0.750			
0.9062	57999.51	3.3000	3.3000	-0.2351	26.22	0.70	-0.750			
0.9069	58043.55	3.2970	3.2970	-0.2277	26.22	0.70	-0.750			
0.9076	58086.55	3.2940	3.2940	-0.2203	26.23	0.71	-0.750			
0.9082	58127.64	3.2910	3.2911	-0.2136	26.23	0.71	-0.750			
0.9089	58168.00	3.2880	3.2880	-0.2074	26.23	0.71	-0.750			
0.9095	58207.24	3.2850	3.2850	-0.2011	26.24	0.72	-0.750			
0.9101	58245.28	3.2820	3.2821	-0.1951	26.24	0.72	-0.750			
0.9107	58282.24	3.2790	3.2790	-0.1891	26.25	0.73	-0.750			
0.9112	58317.66	3.2760	3.2760	-0.1847	26.25	0.73	-0.750			
0.9118	58352.21	3.2730	3.2730	-0.1793	26.25	0.73	-0.750			
0.9123	58386.25	3.2700	3.2699	-0.1753	26.26	0.74	-0.750			
0.9128	58419.24	3.2670	3.2669	-0.1715	26.26	0.74	-0.750			
0.9133	58451.91	3.2640	3.2641	-0.1678	26.26	0.74	-0.750			
0.9138	58483.97	3.2610	3.2611	-0.1646	26.27	0.75	-0.750			
0.9143	58515.24	3.2580	3.2580	-0.1605	26.27	0.75	-0.750			
0.9148	58545.63	3.2550	3.2550	-0.1576	26.27	0.75	-0.750			
0.9152	58575.13	3.2520	3.2520	-0.1537	26.28	0.76	-0.750			
0.9157	58604.38	3.2490	3.2490	-0.1510	26.28	0.76	-0.750			
0.9161	58633.06	3.2460	3.2459	-0.1485	26.29	0.77	-0.750			
0.9166	58661.30	3.2430	3.2429	-0.1453	26.29	0.77	-0.750			
0.9170	58688.98	3.2400	3.2401	-0.1432	26.29	0.77	-0.750			
0.9174	58716.22	3.2370	3.2370	-0.1405	26.30	0.78	-0.750			
0.9179	58742.99	3.2340	3.2340	-0.1383	26.30	0.78	-0.750			
0.9183	58769.02	3.2310	3.2309	-0.1357	26.31	0.79	-0.750			
0.9187	58794.92	3.2280	3.2280	-0.1336	26.31	0.79	-0.750			
0.9191	58820.38	3.2250	3.2250	-0.1316	26.31	0.79	-0.750			
0.9195	58845.40	3.2220	3.2220	-0.1297	26.32	0.80	-0.750			
0.9198	58870.22	3.2190	3.2190	-0.1282	26.32	0.80	-0.750			
0.9202	58894.52	3.2160	3.2160	-0.1258	26.32	0.80	-0.750			
0.9206	58918.52	3.2130	3.2130	-0.1241	26.33	0.81	-0.750			
0.9210	58942.15	3.2100	3.2100	-0.1223	26.33	0.81	-0.750			
0.9213	58965.45	3.2070	3.2070	-0.1205	26.33	0.81	-0.750			
0.9217	58988.26	3.2040	3.2040	-0.1196	26.34	0.82	-0.750			
0.9220	59011.10	3.2010	3.2010	-0.1184	26.34	0.82	-0.750			
0.9224	59033.66	3.1980	3.1981	-0.1167	26.34	0.82	-0.750			
0.9227	59055.96	3.1950	3.1948	-0.1156	26.35	0.83	-0.750			
0.9231	59078.10	3.1920	3.1921	-0.1146	26.35	0.83	-0.750			
0.9234	59099.98	3.1890	3.1890	-0.1134	26.35	0.83	-0.750			
0.9238	59121.89	3.1860	3.1860	-0.1118	26.36	0.84	-0.750			
0.9241	59143.18	3.1830	3.1829	-0.1100	26.36	0.84	-0.750			
0.9244	59163.84	3.1800	3.1801	-0.1087	26.36	0.84	-0.750			
0.9248	59184.62	3.1770	3.1770	-0.1076	26.36	0.84	-0.750			
0.9251	59205.06	3.1740	3.1738	-0.1070	26.37	0.85	-0.750			
0.9254	59225.53	3.1710	3.1711	-0.1063	26.37	0.85	-0.750			
0.9257	59245.78	3.1680	3.1680	-0.1049	26.37	0.85	-0.750			
0.9260	59265.86	3.1650	3.1650	-0.1043	26.37	0.85	-0.750			
0.9263	59286.22	3.1620	3.1621	-0.1033	26.38	0.86	-0.750			
0.9267	59305.89	3.1590	3.1590	-0.1016	26.38	0.86	-0.750			
0.9270	59325.11	3.1560	3.1561	-0.1006	26.38	0.86	-0.750			
0.9273	59344.30	3.1530	3.1530	-0.0993	26.38	0.86	-0.750			
0.9275	59362.95	3.1500	3.1499	-0.0984	26.39	0.87	-0.750			
0.9278	59381.79	3.1470	3.1471	-0.0979	26.39	0.87	-0.750			
0.9281	59400.51	3.1440	3.1440	-0.0970	26.40	0.88	-0.750			
0.9284	59419.09	3.1410	3.1410	-0.0965	26.40	0.88	-0.750			
0.9287	59437.77	3.1380	3.1379	-0.0959	26.40	0.88	-0.750			
0.9290	59456.08	3.1350	3.1351	-0.0949	26.41	0.89	-0.750			
0.9293	59474.07	3.1320	3.1320	-0.0944	26.41	0.89	-0.750			
0.9296	59492.15	3.1290	3.1290	-0.0939	26.41	0.89	-0.750			
0.9298	59510.10	3.1260	3.1260	-0.0929	26.42	0.90	-0.750			
0.9301	59527.88	3.1230	3.1229	-0.0923	26.42	0.90	-0.750			
0.9304	59545.54	3.1200	3.1200	-0.0919	26.42	0.90	-0.750			
0.9307	59563.12	3.1170	3.1171	-0.0913	26.43	0.91	-0.750			
0.9309	59580.75	3.1140	3.1139	-0.0907	26.43	0.91	-0.750			
0.9312	59598.07	3.1110	3.1110	-0.0897	26.43	0.91	-0.750			
0.9315	59615.03	3.1080	3.1080	-0.0890	26.44	0.92	-0.750			
0.9318	59632.07	3.1050	3.1051	-0.0885	26.44	0.92	-0.750			
0.9320	59649.05	3.1020	3.1021	-0.0882	26.44	0.92	-0.750			
0.9323	59665.94	3.0990	3.0989	-0.0877	26.45	0.93	-0.750			
0.9325	59682.63	3.0960	3.0960	-0.0870	26.45	0.93	-0.750			
0.9328	59699.31	3.0930	3.0930	-0.0867	26.45	0.93	-0.750			
0.9331	59716.06	3.0900	3.0900	-0.0865	26.46	0.94	-0.750			
0.9333	59732.60	3.0870	3.0870	-0.0858	26.46	0.94	-0.750			
0.9336	59748.92	3.0840	3.0841	-0.0853	26.46	0.94	-0.750			
0.9338	59765.27	3.0810	3.0809	-0.0849	26.47	0.95	-0.750			
0.9341	59781.54	3.0780	3.0781	-0.0845	26.47	0.95	-0.750			
0.9343	59797.86	3.0750	3.0749	-0.0834	26.47	0.95	-0.750			
0.9346	59813.81	3.0720	3.0719	-0.0826	26.48	0.96	-0.750			
0.9348	59829.54	3.0690	3.0691	-0.0825	26.48	0.96	-0.750			
0.9351	59845.32	3.0660	3.0661	-0.0819	26.48	0.96	-0.750			
0.9353	59860.81	3.0630	3.0629	-0.0817	26.48	0.96	-0.750			
0.9356	59876.48	3.0600	3.0599	-0.0816	26.49	0.97	-0.750			
0.9358	59892.17	3.0570	3.0570	-0.0807	26.49	0.97	-0.750			
0.9361	59907.64	3.0540	3.0540	-0.0804	26.49	0.97	-0.750			
0.9363	59923.52	3.0510	3.0512	-0.0807	26.50	0.98	-0.750			
0.9365	59938.78	3.0480	3.0480	-0.0799	26.50	0.98	-0.750			
0.9368	59954.00	3.0450	3.0450	-0.0790	26.50	0.98	-0.750			
0.9370	59969.10	3.0420	3.0420	-0.0783	26.51	0.99	-0.750			
0.9372	59983.97	3.0390	3.0391	-0.0780	26.51	0.99	-0.750			
0.9375	59998.68	3.0360	3.0360	-0.0774	26.51	0.99	-0.750			
0.9377	60013.53	3.0330	3.0330	-0.0772	26.52	1.00	-0.750			
0.9379	60028.35	3.0300	3.0300	-0.0770	26.52	1.00	-0.750			
0.9382	60043.11	3.0270	3.0271	-0.0768	26.52	1.00	-0.750			
0.9384	60057.89	3.0240	3.0240	-0.0764	26.53	1.01	-0.750			
0.9386	60072.60	3.0210	3.0209	-0.0762	26.53	1.01	-0.750			
0.9389	60087.24	3.0180	3.0180	-0.0756	26.53	1.01	-0.750			
0.9391	60101.70	3.0150	3.0150	-0.0751	26.54	1.02	-0.750			
0.9393	60116.16	3.0120	3.0121	-0.0746	26.54	1.02	-0.750			
0.9395	60130.41	3.0090	3.0092	-0.0739	26.54	1.02	-0.750			
0.9398	60144.53	3.0060	3.0059	-0.0732	26.55	1.03	-0.751			
0.9400	60158.52	3.0030	3.0031	-0.0724	26.55	1.03	-0.751			
