Ah_balance (normalized)	Ah_balance (mAh)	Voltage - fit (V)	Voltage -  interpolate (V)	dQ/dV (1/V)	Temperature (°C)	Temperature - diff (°C)	Current (C)	R_DC 0ms (mOhm)	R_DC 50ms (mOhm)	R_DC 50 ms PEC (mOhm)
0.0003	19.01	4.1630	4.1627	-0.1278	25.67	0.01	-0.750			
0.0007	46.55	4.1600	4.1600	-0.1660	25.67	0.01	-0.750			
0.0013	82.76	4.1570	4.1571	-0.2071	25.67	0.01	-0.750			
0.0020	127.42	4.1540	4.1539	-0.2455	25.67	0.01	-0.750			
0.0028	178.02	4.1510	4.1511	-0.2839	25.67	0.01	-0.750			
0.0037	236.81	4.1480	4.1480	-0.3208	25.67	0.01	-0.750			
0.0047	301.77	4.1450	4.1452	-0.3588	25.67	0.01	-0.750			
0.0059	374.48	4.1420	4.1419	-0.3940	25.67	0.01	-0.750			
0.0071	453.40	4.1390	4.1390	-0.4268	25.66	0.00	-0.750			
0.0084	539.80	4.1360	4.1359	-0.4558	25.66	0.00	-0.750			
0.0098	630.39	4.1330	4.1331	-0.4848	25.66	-0.00	-0.750			
0.0114	727.51	4.1300	4.1301	-0.5091	25.66	-0.00	-0.750			
0.0129	828.15	4.1270	4.1268	-0.5316	25.65	-0.01	-0.750			
0.0146	931.58	4.1240	4.1241	-0.5520	25.65	-0.01	-0.750			
0.0163	1040.90	4.1210	4.1210	-0.5700	25.65	-0.01	-0.750			
0.0180	1153.73	4.1180	4.1179	-0.5843	25.65	-0.01	-0.750			
0.0198	1268.13	4.1150	4.1150	-0.5949	25.64	-0.02	-0.750			
0.0216	1382.79	4.1120	4.1124	-0.6043	25.64	-0.02	-0.750			
0.0234	1499.70	4.1090	4.1090	-0.6151	25.64	-0.02	-0.750			
0.0253	1618.26	4.1060	4.1060	-0.6249	25.63	-0.03	-0.750			
0.0272	1738.24	4.1030	4.1030	-0.6382	25.63	-0.03	-0.750			
0.0291	1863.24	4.1000	4.1000	-0.6483	25.62	-0.04	-0.750			
0.0311	1989.43	4.0970	4.0970	-0.6544	25.62	-0.04	-0.750			
0.0331	2117.01	4.0940	4.0940	-0.6591	25.61	-0.05	-0.750			
0.0351	2243.28	4.0910	4.0910	-0.6621	25.61	-0.05	-0.750			
0.0370	2369.85	4.0880	4.0880	-0.6655	25.61	-0.05	-0.750			
0.0390	2497.05	4.0850	4.0849	-0.6726	25.61	-0.05	-0.750			
0.0410	2626.44	4.0820	4.0820	-0.6772	25.60	-0.06	-0.750			
0.0431	2758.82	4.0790	4.0790	-0.6866	25.60	-0.06	-0.750			
0.0452	2892.55	4.0760	4.0759	-0.6929	25.60	-0.06	-0.750			
0.0473	3026.34	4.0730	4.0731	-0.6955	25.60	-0.06	-0.750			
0.0494	3159.05	4.0700	4.0700	-0.6963	25.60	-0.06	-0.750			
0.0514	3291.71	4.0670	4.0670	-0.7047	25.60	-0.06	-0.750			
0.0536	3427.66	4.0640	4.0640	-0.7046	25.60	-0.06	-0.750			
0.0557	3565.20	4.0610	4.0609	-0.7049	25.60	-0.06	-0.750			
0.0578	3701.20	4.0580	4.0580	-0.7090	25.60	-0.06	-0.750			
0.0600	3837.26	4.0550	4.0551	-0.7097	25.60	-0.06	-0.750			
0.0621	3972.86	4.0520	4.0520	-0.7123	25.60	-0.06	-0.750			
0.0642	4109.47	4.0490	4.0490	-0.7162	25.60	-0.06	-0.750			
0.0663	4245.46	4.0460	4.0460	-0.7162	25.59	-0.07	-0.750			
0.0685	4386.83	4.0430	4.0430	-0.7204	25.59	-0.07	-0.750			
0.0707	4526.75	4.0400	4.0401	-0.7244	25.59	-0.07	-0.750			
0.0729	4664.50	4.0370	4.0369	-0.7189	25.59	-0.07	-0.750			
0.0750	4801.70	4.0340	4.0339	-0.7210	25.59	-0.07	-0.750			
0.0772	4939.40	4.0310	4.0311	-0.7272	25.59	-0.07	-0.750			
0.0794	5078.46	4.0280	4.0280	-0.7288	25.59	-0.07	-0.750			
0.0816	5221.95	4.0250	4.0249	-0.7316	25.59	-0.07	-0.750			
0.0838	5363.24	4.0220	4.0222	-0.7325	25.59	-0.07	-0.750			
0.0860	5502.54	4.0190	4.0190	-0.7339	25.59	-0.07	-0.750			
0.0882	5643.79	4.0160	4.0159	-0.7367	25.59	-0.07	-0.750			
0.0904	5783.86	4.0130	4.0129	-0.7399	25.60	-0.06	-0.750			
0.0926	5924.98	4.0100	4.0101	-0.7384	25.60	-0.06	-0.750			
0.0948	6069.68	4.0070	4.0070	-0.7467	25.60	-0.06	-0.750			
0.0971	6214.82	4.0040	4.0040	-0.7412	25.60	-0.06	-0.750			
0.0993	6356.33	4.0010	4.0009	-0.7416	25.60	-0.06	-0.750			
0.1015	6497.32	3.9980	3.9981	-0.7487	25.60	-0.06	-0.750			
0.1038	6640.56	3.9950	3.9950	-0.7526	25.60	-0.06	-0.750			
0.1060	6786.03	3.9920	3.9918	-0.7560	25.60	-0.06	-0.750			
0.1083	6933.10	3.9890	3.9891	-0.7609	25.60	-0.06	-0.750			
0.1106	7080.30	3.9860	3.9860	-0.7627	25.60	-0.06	-0.750			
0.1129	7228.66	3.9830	3.9830	-0.7621	25.60	-0.06	-0.750			
0.1152	7372.91	3.9800	3.9800	-0.7605	25.60	-0.06	-0.750			
0.1175	7518.30	3.9770	3.9770	-0.7604	25.60	-0.06	-0.750			
0.1198	7665.60	3.9740	3.9739	-0.7641	25.60	-0.06	-0.750			
0.1221	7812.22	3.9710	3.9712	-0.7672	25.60	-0.06	-0.750			
0.1244	7959.55	3.9680	3.9679	-0.7709	25.60	-0.06	-0.750			
0.1267	8108.12	3.9650	3.9650	-0.7744	25.61	-0.05	-0.750			
0.1290	8257.08	3.9620	3.9620	-0.7784	25.61	-0.05	-0.750			
0.1314	8408.89	3.9590	3.9590	-0.7800	25.62	-0.04	-0.750			
0.1337	8558.85	3.9560	3.9560	-0.7788	25.62	-0.04	-0.750			
0.1361	8707.86	3.9530	3.9530	-0.7803	25.62	-0.04	-0.750			
0.1384	8856.50	3.9500	3.9500	-0.7851	25.63	-0.03	-0.750			
0.1407	9006.66	3.9470	3.9469	-0.7835	25.63	-0.03	-0.750			
0.1431	9158.16	3.9440	3.9440	-0.7806	25.63	-0.03	-0.750			
0.1455	9308.83	3.9410	3.9410	-0.7846	25.64	-0.02	-0.750			
0.1478	9459.94	3.9380	3.9379	-0.7880	25.64	-0.02	-0.750			
0.1502	9611.36	3.9350	3.9349	-0.7850	25.65	-0.01	-0.750			
0.1525	9761.40	3.9320	3.9321	-0.7840	25.65	-0.01	-0.750			
0.1549	9910.46	3.9290	3.9291	-0.7876	25.65	-0.01	-0.750			
0.1572	10063.07	3.9260	3.9260	-0.7946	25.66	-0.00	-0.750			
0.1597	10217.98	3.9230	3.9229	-0.7947	25.66	0.00	-0.750			
0.1620	10368.45	3.9200	3.9200	-0.7945	25.66	0.00	-0.750			
0.1644	10521.72	3.9170	3.9171	-0.8017	25.66	0.00	-0.750			
0.1668	10677.85	3.9140	3.9139	-0.8028	25.66	0.00	-0.750			
0.1692	10831.87	3.9110	3.9109	-0.8027	25.66	0.00	-0.750			
0.1716	10985.17	3.9080	3.9082	-0.8012	25.66	0.00	-0.750			
0.1741	11139.56	3.9050	3.9050	-0.8033	25.66	0.00	-0.750			
0.1765	11294.29	3.9020	3.9019	-0.8168	25.67	0.01	-0.750			
0.1789	11451.79	3.8990	3.8989	-0.8108	25.67	0.01	-0.750			
0.1814	11609.42	3.8960	3.8959	-0.8170	25.68	0.02	-0.750			
0.1838	11766.14	3.8930	3.8935	-0.8206	25.68	0.02	-0.750			
0.1863	11924.13	3.8900	3.8899	-0.8200	25.68	0.02	-0.750			
0.1888	12081.08	3.8870	3.8868	-0.8199	25.69	0.03	-0.750			
0.1912	12235.14	3.8840	3.8840	-0.8148	25.69	0.03	-0.750			
0.1937	12393.60	3.8810	3.8811	-0.8237	25.70	0.04	-0.750			
0.1961	12552.29	3.8780	3.8780	-0.8260	25.70	0.04	-0.750			
0.1986	12710.09	3.8750	3.8750	-0.8249	25.70	0.04	-0.750			
0.2011	12868.69	3.8720	3.8720	-0.8300	25.71	0.05	-0.750			
0.2036	13029.18	3.8690	3.8690	-0.8356	25.71	0.05	-0.750			
0.2061	13190.93	3.8660	3.8659	-0.8347	25.72	0.06	-0.750			
0.2086	13351.90	3.8630	3.8631	-0.8364	25.72	0.06	-0.750			
0.2111	13511.99	3.8600	3.8599	-0.8368	25.72	0.06	-0.750			
0.2136	13671.82	3.8570	3.8570	-0.8400	25.73	0.07	-0.750			
0.2161	13833.38	3.8540	3.8539	-0.8405	25.74	0.08	-0.750			
0.2187	13994.69	3.8510	3.8510	-0.8328	25.74	0.08	-0.750			
0.2212	14156.89	3.8480	3.8481	-0.8354	25.75	0.09	-0.750			
0.2237	14316.84	3.8450	3.8450	-0.8371	25.75	0.09	-0.750			
0.2262	14477.27	3.8420	3.8419	-0.8353	25.75	0.09	-0.750			
0.2287	14637.39	3.8390	3.8389	-0.8328	25.76	0.10	-0.750			
0.2312	14796.37	3.8360	3.8360	-0.8283	25.76	0.10	-0.750			
0.2337	14957.77	3.8330	3.8332	-0.8302	25.76	0.10	-0.750			
0.2362	15116.82	3.8300	3.8299	-0.8296	25.77	0.11	-0.750			
0.2387	15274.61	3.8270	3.8269	-0.8281	25.77	0.11	-0.750			
0.2412	15434.08	3.8240	3.8240	-0.8241	25.78	0.12	-0.750			
0.2436	15591.19	3.8210	3.8210	-0.8261	25.78	0.12	-0.750			
0.2461	15751.64	3.8180	3.8182	-0.8301	25.79	0.13	-0.750			
0.2486	15911.05	3.8150	3.8148	-0.8287	25.79	0.13	-0.750			
0.2511	16069.42	3.8120	3.8119	-0.8295	25.80	0.14	-0.750			
0.2536	16228.60	3.8090	3.8091	-0.8276	25.80	0.14	-0.750			
0.2560	16387.18	3.8060	3.8060	-0.8221	25.81	0.15	-0.750			
0.2586	16548.28	3.8030	3.8031	-0.8255	25.81	0.15	-0.750			
0.2610	16704.88	3.8000	3.8000	-0.8181	25.81	0.15	-0.750			
0.2634	16859.98	3.7970	3.7969	-0.8181	25.81	0.15	-0.750			
0.2659	17017.13	3.7940	3.7940	-0.8184	25.82	0.16	-0.750			
0.2683	17173.69	3.7910	3.7910	-0.8147	25.82	0.16	-0.750			
0.2708	17332.54	3.7880	3.7880	-0.8165	25.82	0.16	-0.750			
0.2733	17489.32	3.7850	3.7851	-0.8124	25.82	0.16	-0.750			
0.2757	17643.69	3.7820	3.7820	-0.8102	25.83	0.17	-0.750			
0.2781	17799.27	3.7790	3.7790	-0.8066	25.84	0.18	-0.750			
0.2805	17952.32	3.7760	3.7759	-0.8005	25.84	0.18	-0.750			
0.2829	18106.20	3.7730	3.7730	-0.7980	25.85	0.19	-0.750			
0.2853	18259.27	3.7700	3.7699	-0.7956	25.85	0.19	-0.750			
0.2877	18410.30	3.7670	3.7671	-0.8007	25.86	0.20	-0.750			
0.2901	18565.41	3.7640	3.7639	-0.7960	25.86	0.20	-0.750			
0.2925	18717.16	3.7610	3.7610	-0.7931	25.86	0.20	-0.750			
0.2949	18870.69	3.7580	3.7579	-0.7950	25.87	0.21	-0.750			
0.2972	19023.48	3.7550	3.7551	-0.7936	25.87	0.21	-0.750			
0.2996	19175.22	3.7520	3.7520	-0.7930	25.87	0.21	-0.750			
0.3020	19325.46	3.7490	3.7490	-0.7911	25.88	0.22	-0.750			
0.3043	19474.98	3.7460	3.7461	-0.7907	25.88	0.22	-0.750			
0.3067	19630.09	3.7430	3.7429	-0.8048	25.89	0.23	-0.750			
0.3091	19782.98	3.7400	3.7402	-0.8111	25.89	0.23	-0.750			
0.3116	19940.07	3.7370	3.7370	-0.8208	25.89	0.23	-0.750			
0.3141	20099.97	3.7340	3.7340	-0.8278	25.90	0.24	-0.750			
0.3166	20259.40	3.7310	3.7310	-0.8352	25.90	0.24	-0.750			
0.3191	20419.27	3.7280	3.7281	-0.8449	25.91	0.25	-0.750			
0.3216	20582.71	3.7250	3.7250	-0.8508	25.91	0.25	-0.750			
0.3241	20745.23	3.7220	3.7220	-0.8614	25.91	0.25	-0.750			
0.3267	20911.50	3.7190	3.7190	-0.8733	25.91	0.25	-0.750			
0.3294	21080.13	3.7160	3.7160	-0.8899	25.92	0.26	-0.750			
0.3321	21252.72	3.7130	3.7129	-0.9056	25.92	0.26	-0.750			
0.3348	21427.98	3.7100	3.7102	-0.9152	25.92	0.26	-0.750			
0.3376	21604.69	3.7070	3.7070	-0.9342	25.92	0.26	-0.750			
0.3404	21786.03	3.7040	3.7040	-0.9543	25.93	0.27	-0.750			
0.3433	21970.13	3.7010	3.7009	-0.9690	25.93	0.27	-0.750			
0.3462	22156.73	3.6980	3.6980	-0.9898	25.93	0.27	-0.750			
0.3492	22348.93	3.6950	3.6950	-1.0108	25.93	0.27	-0.750			
0.3523	22544.84	3.6920	3.6920	-1.0325	25.92	0.26	-0.750			
0.3554	22745.90	3.6890	3.6890	-1.0521	25.92	0.26	-0.750			
0.3586	22948.35	3.6860	3.6860	-1.0705	25.91	0.25	-0.750			
0.3618	23156.47	3.6830	3.6830	-1.1034	25.91	0.25	-0.750			
0.3652	23372.34	3.6800	3.6799	-1.1268	25.91	0.25	-0.750			
0.3686	23591.16	3.6770	3.6769	-1.1463	25.91	0.25	-0.750			
0.3721	23814.44	3.6740	3.6742	-1.1690	25.91	0.25	-0.750			
0.3756	24041.28	3.6710	3.6710	-1.1907	25.90	0.24	-0.750			
0.3793	24272.47	3.6680	3.6679	-1.2072	25.90	0.24	-0.750			
0.3828	24501.23	3.6650	3.6650	-1.2318	25.89	0.23	-0.750			
0.3866	24742.19	3.6620	3.6619	-1.2591	25.89	0.23	-0.750			
0.3904	24985.32	3.6590	3.6590	-1.2858	25.89	0.23	-0.750			
0.3942	25231.62	3.6560	3.6559	-1.3277	25.89	0.23	-0.750			
0.3983	25492.93	3.6530	3.6530	-1.3499	25.89	0.23	-0.750			
0.4025	25757.32	3.6500	3.6499	-1.3785	25.88	0.22	-0.750			
0.4066	26025.18	3.6470	3.6469	-1.4053	25.87	0.21	-0.750			
0.4108	26292.89	3.6440	3.6440	-1.4282	25.87	0.21	-0.750			
0.4152	26572.27	3.6410	3.6409	-1.4666	25.87	0.21	-0.750			
0.4196	26854.35	3.6380	3.6380	-1.4905	25.86	0.20	-0.750			
0.4241	27142.38	3.6350	3.6349	-1.5140	25.86	0.20	-0.750			
0.4288	27440.81	3.6320	3.6321	-1.5726	25.85	0.19	-0.750			
0.4336	27747.36	3.6290	3.6289	-1.5968	25.85	0.19	-0.750			
0.4384	28055.96	3.6260	3.6260	-1.6294	25.84	0.18	-0.750			
0.4433	28371.52	3.6230	3.6229	-1.6568	25.83	0.17	-0.750			
0.4483	28690.89	3.6200	3.6201	-1.6895	25.82	0.16	-0.750	0.396	0.509	
0.4534	29018.14	3.6170	3.6170	-1.7286	25.82	0.16	-0.750			
0.4587	29353.67	3.6140	3.6140	-1.7501	25.82	0.16	-0.750			
0.4639	29688.95	3.6110	3.6110	-1.7828	25.82	0.16	-0.750			
0.4694	30039.78	3.6080	3.6081	-1.8192	25.81	0.15	-0.750			
0.4749	30390.73	3.6050	3.6048	-1.8517	25.80	0.14	-0.750			
0.4805	30748.92	3.6020	3.6021	-1.8900	25.80	0.14	-0.750			
0.4862	31113.82	3.5990	3.5990	-1.9288	25.79	0.13	-0.750			
0.4920	31490.52	3.5960	3.5960	-1.9644	25.79	0.13	-0.750			
0.4980	31872.34	3.5930	3.5929	-1.9938	25.79	0.13	-0.750			
0.5040	32257.61	3.5900	3.5901	-2.0381	25.79	0.13	-0.750			
0.5103	32656.23	3.5870	3.5870	-2.0690	25.79	0.13	-0.750			
0.5164	33051.20	3.5840	3.5839	-2.1027	25.79	0.13	-0.750			
0.5228	33459.44	3.5810	3.5810	-2.1329	25.79	0.13	-0.750			
0.5293	33872.58	3.5780	3.5781	-2.1661	25.79	0.13	-0.750			
0.5359	34295.30	3.5750	3.5749	-2.2010	25.79	0.13	-0.750			
0.5426	34725.18	3.5720	3.5720	-2.2097	25.78	0.12	-0.750			
0.5492	35151.68	3.5690	3.5692	-2.2297	25.78	0.12	-0.750			
0.5559	35580.70	3.5660	3.5660	-2.2557	25.78	0.12	-0.750			
0.5627	36010.77	3.5630	3.5629	-2.2642	25.78	0.12	-0.750			
0.5695	36450.13	3.5600	3.5601	-2.2846	25.78	0.12	-0.750			
0.5765	36895.88	3.5570	3.5570	-2.2875	25.78	0.12	-0.750			
0.5833	37334.11	3.5540	3.5540	-2.2839	25.77	0.11	-0.750			
0.5903	37776.50	3.5510	3.5510	-2.2749	25.78	0.12	-0.750			
0.5971	38211.94	3.5480	3.5479	-2.2576	25.79	0.13	-0.750			
0.6038	38642.55	3.5450	3.5450	-2.2374	25.79	0.13	-0.750			
0.6104	39067.86	3.5420	3.5420	-2.2219	25.79	0.13	-0.750			
0.6172	39499.73	3.5390	3.5389	-2.1862	25.79	0.13	-0.750			
0.6237	39918.14	3.5360	3.5362	-2.1578	25.79	0.13	-0.750			
0.6301	40326.97	3.5330	3.5330	-2.1187	25.80	0.14	-0.750			
0.6365	40733.60	3.5300	3.5299	-2.0771	25.81	0.15	-0.750			
0.6426	41126.36	3.5270	3.5270	-2.0340	25.82	0.16	-0.750			
0.6486	41508.93	3.5240	3.5240	-1.9928	25.82	0.16	-0.750			
0.6545	41890.49	3.5210	3.5209	-1.9498	25.83	0.17	-0.750			
0.6604	42264.73	3.5180	3.5180	-1.9113	25.83	0.17	-0.750			
0.6660	42627.08	3.5150	3.5150	-1.8478	25.84	0.18	-0.750			
0.6715	42975.77	3.5120	3.5120	-1.7913	25.85	0.19	-0.750			
0.6768	43316.74	3.5090	3.5088	-1.7348	25.87	0.21	-0.750			
0.6819	43640.03	3.5060	3.5061	-1.6733	25.88	0.22	-0.750			
0.6868	43956.03	3.5030	3.5029	-1.6155	25.90	0.24	-0.750			
0.6916	44261.87	3.5000	3.5000	-1.5641	25.91	0.25	-0.750			
0.6962	44556.59	3.4970	3.4969	-1.5198	25.93	0.27	-0.750			
0.7007	44843.60	3.4940	3.4940	-1.4673	25.94	0.28	-0.750			
0.7050	45121.49	3.4910	3.4909	-1.4197	25.95	0.29	-0.750			
0.7092	45389.35	3.4880	3.4882	-1.3738	25.96	0.30	-0.750			
0.7133	45648.50	3.4850	3.4850	-1.3255	25.98	0.32	-0.750			
0.7172	45899.08	3.4820	3.4819	-1.2821	25.99	0.33	-0.750			
0.7209	46139.61	3.4790	3.4791	-1.2329	26.01	0.35	-0.750			
0.7245	46370.80	3.4760	3.4759	-1.1999	26.02	0.36	-0.750			
0.7281	46598.16	3.4730	3.4730	-1.1581	26.03	0.37	-0.750			
0.7315	46815.47	3.4700	3.4699	-1.1206	26.04	0.38	-0.750			
0.7348	47026.00	3.4670	3.4672	-1.0850	26.05	0.39	-0.750			
0.7380	47232.83	3.4640	3.4640	-1.0486	26.06	0.40	-0.750			
0.7411	47429.74	3.4610	3.4610	-1.0151	26.07	0.41	-0.750			
0.7441	47619.82	3.4580	3.4579	-0.9823	26.08	0.42	-0.750			
0.7470	47805.90	3.4550	3.4551	-0.9544	26.09	0.43	-0.750			
0.7498	47985.31	3.4520	3.4520	-0.9304	26.10	0.44	-0.750			
0.7525	48158.75	3.4490	3.4490	-0.9083	26.11	0.45	-0.750			
0.7552	48332.20	3.4460	3.4459	-0.8888	26.12	0.46	-0.750			
0.7578	48498.54	3.4430	3.4430	-0.8854	26.13	0.47	-0.750			
0.7604	48665.50	3.4400	3.4401	-0.8831	26.13	0.47	-0.750			
0.7630	48832.11	3.4370	3.4370	-0.9015	26.14	0.48	-0.750			
0.7657	49007.64	3.4340	3.4339	-0.9162	26.15	0.49	-0.750			
0.7685	49183.31	3.4310	3.4309	-0.9346	26.16	0.50	-0.750			
0.7713	49365.48	3.4280	3.4283	-0.9615	26.17	0.51	-0.750			
0.7743	49555.17	3.4250	3.4249	-0.9924	26.18	0.52	-0.750			
0.7773	49747.65	3.4220	3.4218	-1.0046	26.19	0.53	-0.750			
0.7804	49944.05	3.4190	3.4189	-1.0129	26.20	0.54	-0.750			
0.7835	50142.36	3.4160	3.4160	-1.0245	26.21	0.55	-0.750			
0.7866	50341.87	3.4130	3.4129	-1.0137	26.22	0.56	-0.750			
0.7896	50536.30	3.4100	3.4100	-0.9964	26.22	0.56	-0.750			
0.7926	50724.89	3.4070	3.4070	-0.9765	26.23	0.57	-0.750			
0.7955	50909.42	3.4040	3.4039	-0.9505	26.24	0.58	-0.750			
0.7983	51093.49	3.4010	3.4009	-0.9306	26.24	0.58	-0.750			
0.8011	51269.21	3.3980	3.3980	-0.9020	26.25	0.59	-0.750			
0.8038	51440.65	3.3950	3.3950	-0.8719	26.26	0.60	-0.750			
0.8063	51606.18	3.3920	3.3920	-0.8389	26.26	0.60	-0.750			
0.8088	51765.54	3.3890	3.3889	-0.8051	26.27	0.61	-0.750			
0.8112	51915.58	3.3860	3.3860	-0.7708	26.28	0.62	-0.750			
0.8134	52060.38	3.3830	3.3830	-0.7404	26.28	0.62	-0.750			
0.8156	52198.10	3.3800	3.3799	-0.7151	26.29	0.63	-0.750			
0.8177	52333.00	3.3770	3.3770	-0.6878	26.30	0.64	-0.750			
0.8197	52462.41	3.3740	3.3739	-0.6626	26.30	0.64	-0.750			
0.8217	52588.00	3.3710	3.3713	-0.6389	26.31	0.65	-0.750			
0.8236	52708.22	3.3680	3.3679	-0.6114	26.32	0.66	-0.750			
0.8253	52822.26	3.3650	3.3650	-0.5854	26.32	0.66	-0.750			
0.8270	52930.57	3.3620	3.3620	-0.5605	26.33	0.67	-0.750			
0.8287	53036.90	3.3590	3.3590	-0.5426	26.33	0.67	-0.750			
0.8303	53138.40	3.3560	3.3559	-0.5214	26.34	0.68	-0.750			
0.8318	53235.51	3.3530	3.3530	-0.5012	26.34	0.68	-0.750			
0.8333	53330.08	3.3500	3.3500	-0.4851	26.35	0.69	-0.750			
0.8347	53421.69	3.3470	3.3469	-0.4690	26.35	0.69	-0.750			
0.8361	53510.12	3.3440	3.3440	-0.4512	26.36	0.70	-0.750			
0.8374	53594.80	3.3410	3.3411	-0.4332	26.36	0.70	-0.750			
0.8387	53676.29	3.3380	3.3380	-0.4181	26.36	0.70	-0.750			
0.8399	53755.74	3.3350	3.3350	-0.4034	26.37	0.71	-0.750			
0.8411	53830.23	3.3320	3.3320	-0.3881	26.37	0.71	-0.750			
0.8422	53903.05	3.3290	3.3290	-0.3751	26.38	0.72	-0.750			
0.8433	53973.69	3.3260	3.3260	-0.3640	26.38	0.72	-0.750			
0.8444	54042.97	3.3230	3.3229	-0.3523	26.38	0.72	-0.750			
0.8455	54109.53	3.3200	3.3200	-0.3411	26.39	0.73	-0.750			
0.8465	54173.71	3.3170	3.3171	-0.3301	26.39	0.73	-0.750			
0.8474	54235.69	3.3140	3.3140	-0.3217	26.40	0.74	-0.750			
0.8484	54296.35	3.3110	3.3109	-0.3119	26.40	0.74	-0.750			
0.8493	54355.05	3.3080	3.3080	-0.3024	26.41	0.75	-0.750			
0.8502	54412.38	3.3050	3.3050	-0.2932	26.41	0.75	-0.750			
0.8511	54468.49	3.3020	3.3021	-0.2858	26.42	0.76	-0.750			
0.8519	54522.09	3.2990	3.2990	-0.2769	26.42	0.76	-0.750			
0.8527	54573.88	3.2960	3.2960	-0.2690	26.42	0.76	-0.750			
0.8535	54624.55	3.2930	3.2930	-0.2618	26.43	0.77	-0.750			
0.8543	54674.13	3.2900	3.2900	-0.2559	26.43	0.77	-0.750			
0.8550	54722.62	3.2870	3.2870	-0.2501	26.44	0.78	-0.750			
0.8558	54770.19	3.2840	3.2840	-0.2450	26.44	0.78	-0.750			
0.8565	54816.07	3.2810	3.2810	-0.2405	26.45	0.79	-0.750			
0.8572	54862.65	3.2780	3.2779	-0.2332	26.45	0.79	-0.750			
0.8579	54907.05	3.2750	3.2749	-0.2267	26.45	0.79	-0.750			
0.8586	54950.22	3.2720	3.2720	-0.2201	26.46	0.80	-0.750			
0.8592	54991.59	3.2690	3.2693	-0.2155	26.46	0.80	-0.750			
0.8599	55032.06	3.2660	3.2658	-0.2109	26.47	0.81	-0.750			
0.8605	55071.02	3.2630	3.2628	-0.2069	26.47	0.81	-0.750			
0.8611	55109.35	3.2600	3.2600	-0.2032	26.47	0.81	-0.750			
0.8617	55147.79	3.2570	3.2571	-0.2012	26.48	0.82	-0.750			
0.8623	55187.63	3.2540	3.2539	-0.2013	26.48	0.82	-0.750			
0.8629	55226.15	3.2510	3.2510	-0.1988	26.49	0.83	-0.750			
0.8635	55264.00	3.2480	3.2480	-0.1963	26.49	0.83	-0.750			
0.8641	55301.58	3.2450	3.2450	-0.1928	26.50	0.84	-0.750			
0.8647	55338.59	3.2420	3.2420	-0.1900	26.50	0.84	-0.750			
0.8652	55374.57	3.2390	3.2390	-0.1859	26.50	0.84	-0.750			
0.8658	55409.75	3.2360	3.2360	-0.1837	26.51	0.85	-0.750			
0.8663	55444.56	3.2330	3.2330	-0.1812	26.51	0.85	-0.750			
0.8669	55479.11	3.2300	3.2300	-0.1789	26.52	0.86	-0.750			
0.8674	55513.25	3.2270	3.2269	-0.1768	26.52	0.86	-0.750			
0.8679	55546.92	3.2240	3.2241	-0.1735	26.52	0.86	-0.750			
0.8684	55580.55	3.2210	3.2210	-0.1706	26.53	0.87	-0.750			
0.8689	55612.54	3.2180	3.2181	-0.1684	26.53	0.87	-0.750			
0.8694	55644.62	3.2150	3.2150	-0.1658	26.53	0.87	-0.750			
0.8699	55675.73	3.2120	3.2120	-0.1638	26.54	0.88	-0.750			
0.8704	55706.74	3.2090	3.2089	-0.1622	26.54	0.88	-0.750			
0.8709	55737.74	3.2060	3.2061	-0.1608	26.55	0.89	-0.750			
0.8714	55768.56	3.2030	3.2030	-0.1602	26.55	0.89	-0.750			
0.8719	55799.57	3.2000	3.2000	-0.1590	26.55	0.89	-0.750			
0.8723	55830.23	3.1970	3.1970	-0.1579	26.56	0.90	-0.750			
0.8728	55859.99	3.1940	3.1941	-0.1554	26.56	0.90	-0.750			
0.8733	55889.80	3.1910	3.1910	-0.1543	26.57	0.91	-0.750			
0.8737	55919.23	3.1880	3.1879	-0.1530	26.57	0.91	-0.750			
0.8742	55948.44	3.1850	3.1850	-0.1515	26.58	0.92	-0.750			
0.8746	55977.35	3.1820	3.1821	-0.1503	26.58	0.92	-0.750			
0.8751	56006.09	3.1790	3.1789	-0.1491	26.59	0.93	-0.750			
0.8755	56034.74	3.1760	3.1760	-0.1472	26.59	0.93	-0.750			
0.8760	56062.96	3.1730	3.1730	-0.1452	26.60	0.94	-0.750			
0.8764	56090.45	3.1700	3.1700	-0.1440	26.60	0.94	-0.750			
0.8768	56117.95	3.1670	3.1671	-0.1425	26.61	0.95	-0.750			
0.8773	56145.00	3.1640	3.1640	-0.1410	26.61	0.95	-0.750			
0.8777	56171.70	3.1610	3.1610	-0.1404	26.61	0.95	-0.750			
0.8781	56198.66	3.1580	3.1580	-0.1390	26.62	0.96	-0.750			
0.8785	56225.30	3.1550	3.1550	-0.1384	26.62	0.96	-0.750			
0.8789	56252.19	3.1520	3.1519	-0.1371	26.63	0.97	-0.750			
0.8793	56278.37	3.1490	3.1491	-0.1364	26.63	0.97	-0.750			
0.8798	56304.23	3.1460	3.1461	-0.1346	26.64	0.98	-0.750			
0.8802	56330.01	3.1430	3.1429	-0.1333	26.64	0.98	-0.750			
0.8806	56355.53	3.1400	3.1399	-0.1320	26.64	0.98	-0.750			
0.8809	56380.54	3.1370	3.1369	-0.1303	26.65	0.99	-0.750			
0.8813	56405.72	3.1340	3.1340	-0.1298	26.65	0.99	-0.750			
0.8817	56430.43	3.1310	3.1310	-0.1287	26.66	1.00	-0.750			
0.8821	56454.89	3.1280	3.1279	-0.1280	26.66	1.00	-0.750			
0.8825	56479.39	3.1250	3.1250	-0.1272	26.66	1.00	-0.750			
0.8829	56503.49	3.1220	3.1219	-0.1260	26.67	1.01	-0.750			
0.8832	56527.76	3.1190	3.1190	-0.1258	26.67	1.01	-0.750			
0.8836	56551.88	3.1160	3.1160	-0.1249	26.68	1.02	-0.750			
0.8840	56575.94	3.1130	3.1130	-0.1243	26.68	1.02	-0.750			
0.8844	56599.61	3.1100	3.1100	-0.1237	26.68	1.02	-0.750			
0.8847	56623.22	3.1070	3.1069	-0.1229	26.69	1.03	-0.750			
0.8851	56646.92	3.1040	3.1040	-0.1210	26.70	1.04	-0.750			
0.8855	56669.84	3.1010	3.1009	-0.1202	26.70	1.04	-0.750			
0.8858	56692.90	3.0980	3.0981	-0.1194	26.71	1.05	-0.750			
0.8862	56715.62	3.0950	3.0951	-0.1186	26.71	1.05	-0.750			
0.8865	56738.19	3.0920	3.0919	-0.1176	26.72	1.06	-0.750			
0.8869	56760.75	3.0890	3.0890	-0.1168	26.72	1.06	-0.750			
0.8872	56782.89	3.0860	3.0860	-0.1158	26.73	1.07	-0.750			
0.8876	56805.19	3.0830	3.0830	-0.1151	26.73	1.07	-0.750			
0.8879	56827.65	3.0800	3.0800	-0.1150	26.74	1.08	-0.750			
0.8883	56849.44	3.0770	3.0769	-0.1143	26.74	1.08	-0.750			
0.8886	56871.04	3.0740	3.0741	-0.1132	26.74	1.08	-0.750			
0.8890	56892.83	3.0710	3.0710	-0.1124	26.75	1.09	-0.750			
0.8893	56914.36	3.0680	3.0679	-0.1117	26.75	1.09	-0.750			
0.8896	56935.67	3.0650	3.0650	-0.1113	26.76	1.10	-0.750			
0.8900	56957.00	3.0620	3.0620	-0.1107	26.76	1.10	-0.750			
0.8903	56978.31	3.0590	3.0591	-0.1098	26.77	1.11	-0.750			
0.8906	56999.39	3.0560	3.0560	-0.1091	26.77	1.11	-0.750			
0.8909	57020.13	3.0530	3.0530	-0.1085	26.78	1.12	-0.750			
0.8913	57040.77	3.0500	3.0501	-0.1077	26.78	1.12	-0.750			
0.8916	57061.38	3.0470	3.0470	-0.1073	26.79	1.13	-0.750			
0.8919	57081.99	3.0440	3.0440	-0.1069	26.79	1.13	-0.750			
0.8922	57102.55	3.0410	3.0409	-0.1062	26.80	1.14	-0.750			
0.8925	57122.77	3.0380	3.0381	-0.1054	26.80	1.14	-0.750			
0.8929	57143.11	3.0350	3.0350	-0.1046	26.80	1.14	-0.750			
0.8932	57163.41	3.0320	3.0320	-0.1042	26.81	1.15	-0.750			
0.8935	57183.04	3.0290	3.0292	-0.1038	26.81	1.15	-0.750			
0.8938	57202.72	3.0260	3.0260	-0.1028	26.82	1.16	-0.750			
0.8941	57222.53	3.0230	3.0230	-0.1021	26.82	1.16	-0.750			
0.8944	57241.98	3.0200	3.0199	-0.1014	26.83	1.17	-0.750			
0.8947	57261.41	3.0170	3.0170	-0.1010	26.83	1.17	-0.750			
0.8950	57280.83	3.0140	3.0141	-0.1005	26.84	1.18	-0.750			
0.8953	57300.07	3.0110	3.0111	-0.0999	26.84	1.18	-0.750			
0.8956	57319.45	3.0080	3.0080	-0.0989	26.84	1.18	-0.751			
0.8959	57338.30	3.0050	3.0048	-0.0975	26.85	1.19	-0.751			
0.8962	57357.05	3.0020	3.0020	-0.1000	26.85	1.19	-0.751			
