Ah_balance (normalized)	Ah_balance (mAh)	Voltage - fit (V)	Voltage -  interpolate (V)	dQ/dV (1/V)	Temperature (°C)	Temperature - diff (°C)	Current (C)	R_DC 0ms (mOhm)	R_DC 50ms (mOhm)	R_DC 50 ms PEC (mOhm)
0.0526	3366.63	4.1980	4.1979	0.7383	26.57	0.58	0.750			
0.0548	3509.94	4.1950	4.1950	0.7502	26.57	0.58	0.750			
0.0571	3654.73	4.1920	4.1920	0.7572	26.57	0.58	0.750			
0.0594	3800.25	4.1890	4.1891	0.7655	26.57	0.58	0.750			
0.0617	3948.81	4.1860	4.1860	0.7726	26.57	0.58	0.750			
0.0640	4098.55	4.1830	4.1829	0.7683	26.57	0.58	0.750			
0.0664	4246.87	4.1800	4.1800	0.7687	26.56	0.57	0.750			
0.0687	4394.42	4.1770	4.1772	0.7661	26.56	0.57	0.750			
0.0709	4540.58	4.1740	4.1735	0.7659	26.56	0.57	0.750			
0.0732	4686.49	4.1710	4.1710	0.7649	26.56	0.57	0.750			
0.0755	4833.46	4.1680	4.1681	0.7638	26.56	0.57	0.750			
0.0778	4980.29	4.1650	4.1649	0.7730	26.56	0.57	0.750			
0.0802	5130.56	4.1620	4.1620	0.7792	26.56	0.57	0.750			
0.0825	5279.04	4.1590	4.1590	0.7757	26.56	0.57	0.750			
0.0848	5428.83	4.1560	4.1561	0.7766	26.56	0.57	0.750			
0.0872	5578.34	4.1530	4.1531	0.7768	26.56	0.57	0.750			
0.0895	5727.79	4.1500	4.1500	0.7779	26.56	0.57	0.750			
0.0918	5877.82	4.1470	4.1470	0.7777	26.56	0.57	0.750			
0.0941	6024.77	4.1440	4.1440	0.7759	26.56	0.57	0.750			
0.0965	6174.91	4.1410	4.1410	0.7777	26.56	0.57	0.750			
0.0988	6324.27	4.1380	4.1381	0.7816	26.56	0.57	0.750			
0.1012	6474.84	4.1350	4.1349	0.7787	26.56	0.57	0.750			
0.1035	6623.63	4.1320	4.1320	0.7779	26.56	0.57	0.750			
0.1058	6772.92	4.1290	4.1290	0.7799	26.56	0.57	0.750			
0.1082	6922.56	4.1260	4.1259	0.7829	26.56	0.57	0.750			
0.1105	7072.90	4.1230	4.1230	0.7826	26.56	0.57	0.750			
0.1129	7223.85	4.1200	4.1201	0.7881	26.56	0.57	0.750			
0.1152	7375.65	4.1170	4.1170	0.7912	26.56	0.57	0.750			
0.1176	7529.42	4.1140	4.1140	0.7964	26.56	0.57	0.750			
0.1200	7680.83	4.1110	4.1110	0.7996	26.56	0.57	0.750			
0.1224	7835.16	4.1080	4.1081	0.8014	26.56	0.57	0.750			
0.1249	7992.79	4.1050	4.1049	0.7969	26.56	0.57	0.750			
0.1272	8143.79	4.1020	4.1021	0.8000	26.56	0.57	0.750			
0.1296	8297.10	4.0990	4.0990	0.7960	26.56	0.57	0.750			
0.1320	8449.11	4.0960	4.0961	0.7955	26.56	0.57	0.750			
0.1344	8600.53	4.0930	4.0928	0.7951	26.56	0.57	0.750			
0.1368	8753.19	4.0900	4.0903	0.7958	26.56	0.57	0.750			
0.1392	8907.72	4.0870	4.0869	0.8031	26.55	0.56	0.750			
0.1416	9062.19	4.0840	4.0840	0.8074	26.55	0.56	0.750			
0.1440	9216.84	4.0810	4.0811	0.8071	26.54	0.55	0.750			
0.1465	9373.48	4.0780	4.0779	0.8131	26.54	0.55	0.750			
0.1489	9529.49	4.0750	4.0750	0.8135	26.54	0.55	0.750			
0.1513	9685.49	4.0720	4.0720	0.8111	26.54	0.55	0.750			
0.1538	9840.33	4.0690	4.0690	0.8162	26.54	0.55	0.750			
0.1562	9996.80	4.0660	4.0661	0.8193	26.54	0.55	0.750			
0.1587	10153.90	4.0630	4.0628	0.8277	26.54	0.55	0.750			
0.1611	10313.57	4.0600	4.0600	0.8330	26.54	0.55	0.750			
0.1637	10475.25	4.0570	4.0570	0.8302	26.54	0.55	0.750			
0.1662	10634.95	4.0540	4.0540	0.8362	26.54	0.55	0.750			
0.1687	10794.48	4.0510	4.0512	0.8356	26.54	0.55	0.750			
0.1712	10955.31	4.0480	4.0476	0.8383	26.54	0.55	0.750			
0.1737	11116.74	4.0450	4.0450	0.8395	26.54	0.55	0.750			
0.1762	11277.99	4.0420	4.0421	0.8418	26.54	0.55	0.750			
0.1788	11441.57	4.0390	4.0391	0.8494	26.54	0.55	0.750			
0.1813	11604.16	4.0360	4.0360	0.8482	26.54	0.55	0.750			
0.1839	11766.98	4.0330	4.0329	0.8473	26.54	0.55	0.750			
0.1864	11931.86	4.0300	4.0300	0.8477	26.54	0.55	0.750			
0.1890	12093.92	4.0270	4.0271	0.8519	26.54	0.55	0.750			
0.1915	12256.44	4.0240	4.0240	0.8562	26.54	0.55	0.750			
0.1941	12421.04	4.0210	4.0210	0.8602	26.54	0.55	0.750			
0.1966	12585.41	4.0180	4.0179	0.8621	26.54	0.55	0.750			
0.1993	12753.08	4.0150	4.0151	0.8626	26.54	0.55	0.750			
0.2019	12921.21	4.0120	4.0120	0.8686	26.54	0.55	0.750			
0.2045	13087.26	4.0090	4.0090	0.8714	26.53	0.54	0.750			
0.2071	13253.21	4.0060	4.0060	0.8736	26.53	0.54	0.750			
0.2097	13420.29	4.0030	4.0031	0.8751	26.53	0.54	0.750			
0.2123	13590.25	4.0000	4.0000	0.8768	26.53	0.54	0.750			
0.2150	13759.96	3.9970	3.9970	0.8799	26.54	0.55	0.750			
0.2176	13928.96	3.9940	3.9940	0.8834	26.54	0.55	0.750			
0.2203	14097.82	3.9910	3.9909	0.8828	26.54	0.55	0.750			
0.2229	14267.10	3.9880	3.9880	0.8849	26.54	0.55	0.750			
0.2256	14436.37	3.9850	3.9850	0.8841	26.54	0.55	0.750			
0.2282	14607.04	3.9820	3.9820	0.8907	26.54	0.55	0.750			
0.2309	14779.28	3.9790	3.9790	0.8979	26.54	0.55	0.750			
0.2336	14951.23	3.9760	3.9757	0.8988	26.54	0.55	0.750			
0.2363	15124.28	3.9730	3.9730	0.8971	26.54	0.55	0.750			
0.2390	15297.12	3.9700	3.9701	0.9032	26.54	0.55	0.750			
0.2417	15470.84	3.9670	3.9670	0.9092	26.54	0.55	0.750			
0.2445	15646.51	3.9640	3.9640	0.9104	26.54	0.55	0.750			
0.2472	15820.08	3.9610	3.9611	0.9080	26.54	0.55	0.750			
0.2499	15996.42	3.9580	3.9580	0.8980	26.54	0.55	0.750			
0.2526	16168.69	3.9550	3.9551	0.9059	26.54	0.55	0.750			
0.2553	16342.37	3.9520	3.9520	0.9064	26.54	0.55	0.750			
0.2580	16514.35	3.9490	3.9488	0.9061	26.54	0.55	0.750			
0.2608	16689.23	3.9460	3.9461	0.9081	26.54	0.55	0.750			
0.2635	16864.45	3.9430	3.9431	0.9123	26.54	0.55	0.750			
0.2663	17040.59	3.9400	3.9400	0.9155	26.54	0.55	0.750			
0.2690	17218.97	3.9370	3.9370	0.9181	26.54	0.55	0.750			
0.2718	17392.32	3.9340	3.9340	0.9137	26.54	0.55	0.750			
0.2745	17570.14	3.9310	3.9311	0.9047	26.54	0.55	0.750			
0.2772	17742.28	3.9280	3.9280	0.9085	26.54	0.55	0.750			
0.2799	17915.65	3.9250	3.9251	0.9155	26.53	0.54	0.750			
0.2827	18090.92	3.9220	3.9219	0.9154	26.53	0.54	0.750			
0.2854	18267.55	3.9190	3.9191	0.9167	26.53	0.54	0.750			
0.2882	18445.08	3.9160	3.9161	0.9225	26.53	0.54	0.750			
0.2910	18622.52	3.9130	3.9131	0.9284	26.52	0.53	0.750			
0.2938	18803.80	3.9100	3.9100	0.9339	26.52	0.53	0.750			
0.2966	18980.07	3.9070	3.9069	0.9285	26.52	0.53	0.750			
0.2994	19158.99	3.9040	3.9041	0.9254	26.51	0.52	0.750			
0.3021	19336.42	3.9010	3.9011	0.9374	26.51	0.52	0.750			
0.3049	19516.59	3.8980	3.8979	0.9410	26.51	0.52	0.750			
0.3078	19697.89	3.8950	3.8949	0.9420	26.50	0.51	0.750			
0.3106	19879.81	3.8920	3.8921	0.9440	26.50	0.51	0.750			
0.3135	20062.28	3.8890	3.8891	0.9503	26.50	0.51	0.750			
0.3163	20244.13	3.8860	3.8860	0.9577	26.49	0.50	0.750			
0.3192	20428.59	3.8830	3.8831	0.9608	26.49	0.50	0.750			
0.3220	20611.13	3.8800	3.8799	0.9594	26.49	0.50	0.750			
0.3250	20797.07	3.8770	3.8770	0.9733	26.48	0.49	0.750			
0.3279	20986.04	3.8740	3.8741	0.9816	26.47	0.48	0.750			
0.3309	21174.83	3.8710	3.8710	0.9880	26.47	0.48	0.750			
0.3338	21365.80	3.8680	3.8679	0.9904	26.46	0.47	0.750			
0.3368	21556.62	3.8650	3.8650	0.9944	26.45	0.46	0.750			
0.3398	21748.60	3.8620	3.8620	1.0000	26.45	0.46	0.750			
0.3428	21939.00	3.8590	3.8591	1.0054	26.45	0.46	0.750			
0.3458	22131.95	3.8560	3.8558	1.0114	26.44	0.45	0.750			
0.3489	22327.38	3.8530	3.8530	1.0157	26.43	0.44	0.750			
0.3519	22522.61	3.8500	3.8500	1.0219	26.42	0.43	0.750			
0.3550	22721.39	3.8470	3.8470	1.0288	26.41	0.42	0.750			
0.3581	22919.66	3.8440	3.8438	1.0221	26.40	0.41	0.750			
0.3612	23118.93	3.8410	3.8411	1.0175	26.39	0.40	0.750			
0.3642	23311.19	3.8380	3.8381	1.0204	26.39	0.40	0.750			
0.3673	23504.69	3.8350	3.8351	1.0299	26.38	0.39	0.750			
0.3703	23701.21	3.8320	3.8318	1.0344	26.37	0.38	0.750			
0.3735	23902.06	3.8290	3.8290	1.0391	26.36	0.37	0.750			
0.3766	24103.14	3.8260	3.8261	1.0515	26.36	0.37	0.750			
0.3798	24307.62	3.8230	3.8231	1.0693	26.35	0.36	0.750			
0.3831	24515.59	3.8200	3.8198	1.0812	26.34	0.35	0.750			
0.3863	24721.38	3.8170	3.8170	1.0780	26.33	0.34	0.750			
0.3895	24929.89	3.8140	3.8141	1.0816	26.32	0.33	0.750			
0.3928	25141.11	3.8110	3.8111	1.0882	26.30	0.31	0.750			
0.3961	25351.77	3.8080	3.8079	1.0896	26.29	0.30	0.750			
0.3993	25556.30	3.8050	3.8050	1.0879	26.28	0.29	0.750			
0.4026	25763.97	3.8020	3.8020	1.0908	26.27	0.28	0.750			
0.4058	25973.33	3.7990	3.7990	1.1001	26.27	0.28	0.750			
0.4092	26186.70	3.7960	3.7959	1.1060	26.26	0.27	0.750			
0.4125	26399.05	3.7930	3.7931	1.1266	26.24	0.25	0.750			
0.4159	26616.93	3.7900	3.7900	1.1425	26.23	0.24	0.750			
0.4193	26837.51	3.7870	3.7869	1.1575	26.22	0.23	0.750			
0.4228	27060.82	3.7840	3.7841	1.1666	26.21	0.22	0.750			
0.4264	27286.52	3.7810	3.7811	1.1888	26.20	0.21	0.750			
0.4299	27515.78	3.7780	3.7780	1.2072	26.20	0.21	0.750			
0.4336	27751.72	3.7750	3.7746	1.2172	26.19	0.20	0.750			
0.4373	27984.36	3.7720	3.7720	1.2293	26.17	0.18	0.750			
0.4409	28220.10	3.7690	3.7691	1.2772	26.15	0.16	0.750			
0.4449	28471.01	3.7660	3.7659	1.3011	26.14	0.15	0.750			
0.4488	28723.27	3.7630	3.7626	1.3416	26.13	0.14	0.750	0.331	0.424	
0.4529	28982.70	3.7600	3.7602	1.3566	26.12	0.13	0.750			
0.4570	29248.77	3.7570	3.7570	1.3806	26.11	0.12	0.750			
0.4612	29515.72	3.7540	3.7542	1.4227	26.10	0.11	0.750			
0.4654	29786.97	3.7510	3.7505	1.4254	26.09	0.10	0.750			
0.4697	30062.84	3.7480	3.7482	1.4808	26.07	0.08	0.750			
0.4743	30356.42	3.7450	3.7451	1.5144	26.06	0.07	0.750			
0.4789	30650.81	3.7420	3.7420	1.5596	26.05	0.06	0.750			
0.4836	30950.39	3.7390	3.7392	1.5811	26.03	0.04	0.750			
0.4884	31257.44	3.7360	3.7362	1.6409	26.01	0.02	0.750			
0.4933	31574.14	3.7330	3.7332	1.6735	26.00	0.01	0.750			
0.4985	31903.37	3.7300	3.7299	1.7216	25.98	-0.01	0.750			
0.5038	32240.18	3.7270	3.7270	1.7444	25.97	-0.02	0.750			
0.5091	32583.34	3.7240	3.7237	1.7866	25.95	-0.04	0.750			
0.5145	32925.57	3.7210	3.7209	1.8400	25.93	-0.06	0.750			
0.5199	33275.43	3.7180	3.7180	1.8641	25.91	-0.08	0.750			
0.5255	33635.16	3.7150	3.7148	1.9299	25.90	-0.09	0.750			
0.5315	34013.11	3.7120	3.7122	1.9950	25.89	-0.10	0.750			
0.5375	34402.73	3.7090	3.7088	2.0705	25.87	-0.12	0.750			
0.5439	34811.49	3.7060	3.7061	2.1646	25.86	-0.13	0.750			
0.5505	35231.13	3.7030	3.7030	2.2310	25.84	-0.15	0.750			
0.5575	35678.67	3.7000	3.7000	2.3323	25.81	-0.18	0.750			
0.5645	36129.88	3.6970	3.6970	2.4025	25.80	-0.19	0.750			
0.5719	36603.02	3.6940	3.6940	2.4666	25.78	-0.21	0.750			
0.5795	37089.29	3.6910	3.6908	2.5257	25.76	-0.23	0.750			
0.5872	37579.12	3.6880	3.6880	2.5680	25.74	-0.25	0.750			
0.5948	38067.91	3.6850	3.6853	2.6147	25.73	-0.26	0.750			
0.6029	38586.83	3.6820	3.6818	2.6994	25.71	-0.28	0.750			
0.6109	39098.05	3.6790	3.6790	2.7750	25.70	-0.29	0.750			
0.6193	39633.66	3.6760	3.6759	2.8777	25.68	-0.31	0.750			
0.6282	40204.60	3.6730	3.6730	2.9572	25.67	-0.32	0.750			
0.6373	40786.10	3.6700	3.6699	3.0388	25.67	-0.32	0.750			
0.6466	41380.33	3.6670	3.6669	3.0371	25.66	-0.33	0.750			
0.6560	41984.97	3.6640	3.6640	2.9171	25.66	-0.33	0.750			
0.6647	42538.48	3.6610	3.6610	2.6823	25.66	-0.33	0.750			
0.6719	43001.10	3.6580	3.6584	2.3382	25.65	-0.34	0.750			
0.6784	43418.34	3.6550	3.6551	2.0816	25.66	-0.33	0.750			
0.6842	43785.71	3.6520	3.6518	1.8953	25.66	-0.33	0.750			
0.6892	44108.35	3.6490	3.6490	1.7221	25.66	-0.33	0.750			
0.6942	44431.03	3.6460	3.6460	1.6054	25.66	-0.33	0.750			
0.6989	44730.56	3.6430	3.6431	1.4912	25.66	-0.33	0.750			
0.7031	44997.12	3.6400	3.6402	1.3830	25.66	-0.33	0.750			
0.7071	45253.07	3.6370	3.6371	1.3066	25.66	-0.33	0.750			
0.7107	45485.12	3.6340	3.6339	1.2463	25.66	-0.33	0.750			
0.7142	45706.86	3.6310	3.6310	1.2016	25.66	-0.33	0.750			
0.7177	45931.19	3.6280	3.6281	1.2063	25.67	-0.32	0.750			
0.7214	46167.83	3.6250	3.6246	1.2024	25.67	-0.32	0.750			
0.7250	46398.38	3.6220	3.6221	1.2113	25.67	-0.32	0.750			
0.7286	46631.35	3.6190	3.6191	1.2151	25.68	-0.31	0.750			
0.7324	46871.59	3.6160	3.6161	1.2054	25.68	-0.31	0.750			
0.7359	47099.87	3.6130	3.6131	1.1864	25.68	-0.31	0.750			
0.7395	47325.95	3.6100	3.6101	1.1749	25.68	-0.31	0.750			
0.7430	47550.42	3.6070	3.6071	1.1630	25.68	-0.31	0.750			
0.7465	47774.48	3.6040	3.6038	1.1386	25.68	-0.31	0.750			
0.7498	47989.61	3.6010	3.6011	1.1373	25.68	-0.31	0.750			
0.7532	48203.88	3.5980	3.5981	1.1425	25.68	-0.31	0.750			
0.7566	48424.53	3.5950	3.5950	1.1600	25.68	-0.31	0.750			
0.7601	48644.99	3.5920	3.5920	1.1739	25.68	-0.31	0.750			
0.7636	48869.71	3.5890	3.5891	1.2035	25.68	-0.31	0.750			
0.7673	49104.50	3.5860	3.5860	1.2432	25.68	-0.31	0.750			
0.7711	49347.97	3.5830	3.5827	1.2754	25.68	-0.31	0.750			
0.7749	49593.09	3.5800	3.5801	1.3158	25.69	-0.30	0.750			
0.7789	49851.93	3.5770	3.5770	1.3610	25.69	-0.30	0.750			
0.7831	50117.65	3.5740	3.5737	1.4133	25.70	-0.29	0.750			
0.7874	50394.05	3.5710	3.5712	1.4458	25.70	-0.29	0.750			
0.7918	50677.63	3.5680	3.5680	1.4924	25.70	-0.29	0.750			
0.7964	50969.29	3.5650	3.5650	1.5375	25.70	-0.29	0.750			
0.8010	51266.97	3.5620	3.5620	1.5587	25.70	-0.29	0.750			
0.8058	51573.85	3.5590	3.5591	1.5753	25.70	-0.29	0.750			
0.8106	51878.70	3.5560	3.5561	1.6061	25.70	-0.29	0.750			
0.8155	52190.63	3.5530	3.5529	1.6188	25.70	-0.29	0.750			
0.8204	52506.24	3.5500	3.5498	1.6466	25.70	-0.29	0.750			
0.8253	52820.35	3.5470	3.5469	1.6621	25.70	-0.29	0.750			
0.8303	53138.48	3.5440	3.5441	1.6802	25.71	-0.28	0.750			
0.8354	53465.33	3.5410	3.5411	1.7001	25.71	-0.28	0.750			
0.8406	53799.18	3.5380	3.5376	1.7313	25.72	-0.27	0.750			
0.8458	54128.60	3.5350	3.5349	1.7287	25.72	-0.27	0.750			
0.8512	54476.91	3.5320	3.5319	1.6983	25.73	-0.26	0.750			
0.8568	54834.68	3.5290	3.5287	1.5729	25.75	-0.24	0.750			
0.8616	55139.74	3.5260	3.5261	1.3777	25.76	-0.23	0.750			
0.8656	55399.24	3.5230	3.5236	1.1507	25.78	-0.21	0.750			
0.8687	55593.75	3.5200	3.5199	0.8872	25.80	-0.19	0.750			
0.8705	55711.42	3.5170	3.5167	0.6717	25.81	-0.18	0.750			
0.8718	55795.63	3.5140	3.5138	0.4883	25.81	-0.18	0.750			
0.8729	55864.72	3.5110	3.5110	0.4042	25.82	-0.17	0.750			
0.8740	55933.85	3.5080	3.5079	0.3646	25.83	-0.16	0.750			
0.8750	55998.82	3.5050	3.5049	0.3404	25.83	-0.16	0.750			
0.8759	56060.38	3.5020	3.5020	0.3214	25.84	-0.15	0.750			
0.8769	56120.11	3.4990	3.4990	0.3071	25.85	-0.14	0.750			
0.8778	56177.88	3.4960	3.4958	0.2959	25.85	-0.14	0.750			
0.8786	56233.05	3.4930	3.4931	0.2855	25.86	-0.13	0.750			
0.8795	56286.66	3.4900	3.4900	0.2766	25.86	-0.13	0.750			
0.8803	56338.47	3.4870	3.4870	0.2680	25.87	-0.12	0.750			
0.8811	56389.24	3.4840	3.4838	0.2626	25.87	-0.12	0.750			
0.8818	56438.15	3.4810	3.4810	0.2560	25.88	-0.11	0.750			
0.8826	56487.13	3.4780	3.4781	0.2520	25.88	-0.11	0.750			
0.8834	56534.92	3.4750	3.4749	0.2484	25.89	-0.10	0.750			
0.8841	56581.85	3.4720	3.4721	0.2441	25.89	-0.10	0.750			
0.8848	56628.31	3.4690	3.4691	0.2399	25.89	-0.10	0.750			
0.8855	56674.12	3.4660	3.4660	0.2365	25.90	-0.09	0.750			
0.8863	56720.11	3.4630	3.4629	0.2325	25.91	-0.08	0.750			
0.8869	56763.91	3.4600	3.4600	0.2267	25.91	-0.08	0.750			
0.8876	56806.49	3.4570	3.4570	0.2223	25.92	-0.07	0.750			
0.8883	56848.76	3.4540	3.4541	0.2180	25.92	-0.07	0.750			
0.8889	56890.04	3.4510	3.4510	0.2124	25.93	-0.06	0.750			
0.8895	56930.93	3.4480	3.4479	0.2063	25.93	-0.06	0.750			
0.8902	56970.64	3.4450	3.4450	0.2004	25.94	-0.05	0.750			
0.8908	57008.37	3.4420	3.4421	0.1926	25.94	-0.05	0.750			
0.8913	57044.86	3.4390	3.4391	0.1866	25.95	-0.04	0.750			
0.8918	57078.15	3.4360	3.4360	0.1837	25.95	-0.04	0.750			
0.8924	57112.37	3.4330	3.4331	0.1780	25.96	-0.03	0.750			
0.8929	57146.50	3.4300	3.4298	0.1776	25.96	-0.03	0.750			
0.8935	57180.96	3.4270	3.4267	0.1730	25.97	-0.02	0.750			
0.8940	57215.35	3.4240	3.4244	0.1690	25.97	-0.02	0.750			
0.8945	57248.62	3.4210	3.4211	0.1646	25.98	-0.01	0.750			
0.8950	57279.12	3.4180	3.4179	0.1558	25.98	-0.01	0.750			
0.8954	57308.18	3.4150	3.4149	0.1492	25.98	-0.01	0.750			
0.8958	57334.34	3.4120	3.4120	0.1400	25.99	-0.00	0.750			
0.8963	57360.81	3.4090	3.4090	0.1356	25.99	0.00	0.750			
0.8967	57386.58	3.4060	3.4060	0.1304	25.99	0.00	0.750			
0.8971	57411.20	3.4030	3.4030	0.1254	26.00	0.01	0.750			
0.8974	57435.37	3.4000	3.4000	0.1193	26.00	0.01	0.750			
0.8978	57457.97	3.3970	3.3970	0.1132	26.00	0.01	0.750			
0.8981	57480.05	3.3940	3.3939	0.1037	26.01	0.02	0.750			
0.8984	57499.39	3.3910	3.3910	0.0954	26.01	0.02	0.750			
0.8987	57517.20	3.3880	3.3881	0.0868	26.01	0.02	0.750			
0.8990	57532.85	3.3850	3.3851	0.0762	26.01	0.02	0.750			
0.8992	57547.08	3.3820	3.3823	0.0662	26.02	0.03	0.750			
0.8994	57558.70	3.3790	3.3795	0.0548	26.02	0.03	0.750			
0.8995	57568.12	3.3760	3.3769	0.0433	26.02	0.03	0.750			
0.8996	57575.34	3.3730	3.3742	0.0319	26.02	0.03	0.750			
0.8997	57580.38	3.3700	3.3720	0.0205	26.02	0.03	0.750			
