Ah_balance (normalized)	Ah_balance (mAh)	Voltage - fit (V)	Voltage -  interpolate (V)	dQ/dV (1/V)	Temperature (°C)	Temperature - diff (°C)	Current (C)	R_DC 0ms (mOhm)	R_DC 50ms (mOhm)	R_DC 50 ms PEC (mOhm)
0.0004	27.18	4.1600	4.1598	-0.1240	26.00	0.03	-0.750			
0.0009	56.64	4.1570	4.1569	-0.1703	26.00	0.03	-0.750			
0.0015	93.63	4.1540	4.1539	-0.2114	26.00	0.03	-0.750			
0.0022	138.22	4.1510	4.1511	-0.2516	25.99	0.02	-0.750			
0.0030	190.55	4.1480	4.1480	-0.2904	25.99	0.02	-0.750			
0.0039	251.11	4.1450	4.1450	-0.3270	25.99	0.02	-0.750			
0.0050	317.79	4.1420	4.1420	-0.3614	25.99	0.02	-0.750			
0.0061	390.95	4.1390	4.1391	-0.3942	25.98	0.01	-0.750			
0.0074	470.51	4.1360	4.1360	-0.4234	25.98	0.01	-0.750			
0.0087	555.23	4.1330	4.1330	-0.4516	25.97	0.00	-0.750			
0.0101	644.76	4.1300	4.1300	-0.4774	25.97	-0.00	-0.750			
0.0116	739.34	4.1270	4.1270	-0.5025	25.96	-0.01	-0.750			
0.0131	838.79	4.1240	4.1240	-0.5229	25.96	-0.01	-0.750			
0.0147	941.71	4.1210	4.1211	-0.5430	25.95	-0.02	-0.750			
0.0164	1048.70	4.1180	4.1180	-0.5602	25.95	-0.02	-0.750			
0.0181	1158.15	4.1150	4.1150	-0.5752	25.94	-0.03	-0.750			
0.0199	1270.58	4.1120	4.1120	-0.5861	25.94	-0.03	-0.750			
0.0216	1384.02	4.1090	4.1089	-0.5974	25.93	-0.04	-0.750			
0.0234	1499.70	4.1060	4.1060	-0.6099	25.93	-0.04	-0.750			
0.0253	1618.08	4.1030	4.1030	-0.6216	25.93	-0.04	-0.750			
0.0272	1738.11	4.1000	4.1000	-0.6314	25.92	-0.05	-0.750			
0.0291	1861.29	4.0970	4.0970	-0.6415	25.92	-0.05	-0.750			
0.0310	1986.95	4.0940	4.0940	-0.6484	25.92	-0.05	-0.750			
0.0330	2112.92	4.0910	4.0910	-0.6524	25.91	-0.06	-0.750			
0.0350	2237.11	4.0880	4.0882	-0.6568	25.91	-0.06	-0.750			
0.0369	2363.43	4.0850	4.0849	-0.6600	25.91	-0.06	-0.750			
0.0389	2490.62	4.0820	4.0820	-0.6630	25.91	-0.06	-0.750			
0.0409	2618.03	4.0790	4.0790	-0.6690	25.91	-0.06	-0.750			
0.0429	2748.25	4.0760	4.0761	-0.6758	25.91	-0.06	-0.750			
0.0450	2878.24	4.0730	4.0729	-0.6802	25.91	-0.06	-0.750			
0.0470	3009.82	4.0700	4.0700	-0.6802	25.91	-0.06	-0.750			
0.0491	3139.44	4.0670	4.0670	-0.6835	25.91	-0.06	-0.750			
0.0511	3271.27	4.0640	4.0641	-0.6886	25.91	-0.06	-0.750			
0.0532	3403.47	4.0610	4.0609	-0.6943	25.91	-0.06	-0.750			
0.0553	3536.51	4.0580	4.0580	-0.6963	25.91	-0.06	-0.750			
0.0574	3672.59	4.0550	4.0550	-0.6986	25.91	-0.06	-0.750			
0.0595	3806.67	4.0520	4.0520	-0.7011	25.91	-0.06	-0.750			
0.0616	3942.62	4.0490	4.0490	-0.7057	25.91	-0.06	-0.750			
0.0637	4076.78	4.0460	4.0460	-0.7056	25.91	-0.06	-0.750			
0.0658	4211.84	4.0430	4.0430	-0.7089	25.91	-0.06	-0.750			
0.0679	4348.58	4.0400	4.0399	-0.7098	25.90	-0.07	-0.750			
0.0701	4486.59	4.0370	4.0370	-0.7143	25.90	-0.07	-0.750			
0.0722	4623.77	4.0340	4.0342	-0.7161	25.90	-0.07	-0.750			
0.0744	4761.45	4.0310	4.0309	-0.7154	25.90	-0.07	-0.750			
0.0765	4898.40	4.0280	4.0280	-0.7191	25.90	-0.07	-0.750			
0.0787	5035.48	4.0250	4.0250	-0.7203	25.91	-0.06	-0.750			
0.0809	5175.33	4.0220	4.0220	-0.7247	25.91	-0.06	-0.750			
0.0830	5314.63	4.0190	4.0190	-0.7264	25.91	-0.06	-0.750			
0.0852	5454.09	4.0160	4.0160	-0.7280	25.91	-0.06	-0.750			
0.0874	5593.98	4.0130	4.0130	-0.7297	25.91	-0.06	-0.750			
0.0896	5733.54	4.0100	4.0100	-0.7352	25.91	-0.06	-0.750			
0.0918	5874.64	4.0070	4.0070	-0.7372	25.91	-0.06	-0.750			
0.0940	6017.45	4.0040	4.0039	-0.7400	25.91	-0.06	-0.750			
0.0963	6160.26	4.0010	4.0009	-0.7390	25.91	-0.06	-0.750			
0.0985	6302.35	3.9980	3.9980	-0.7391	25.91	-0.06	-0.750			
0.1007	6444.03	3.9950	3.9950	-0.7396	25.92	-0.05	-0.750			
0.1029	6585.40	3.9920	3.9919	-0.7436	25.92	-0.05	-0.750			
0.1051	6727.95	3.9890	3.9890	-0.7414	25.92	-0.05	-0.750			
0.1074	6872.31	3.9860	3.9859	-0.7472	25.93	-0.04	-0.750			
0.1097	7017.75	3.9830	3.9832	-0.7464	25.93	-0.04	-0.750			
0.1119	7160.33	3.9800	3.9800	-0.7472	25.93	-0.04	-0.750			
0.1141	7303.61	3.9770	3.9770	-0.7419	25.93	-0.04	-0.750			
0.1163	7445.03	3.9740	3.9740	-0.7490	25.93	-0.04	-0.750			
0.1186	7588.16	3.9710	3.9708	-0.7531	25.93	-0.04	-0.750			
0.1208	7733.49	3.9680	3.9679	-0.7571	25.93	-0.04	-0.750			
0.1231	7880.31	3.9650	3.9650	-0.7602	25.93	-0.04	-0.750			
0.1254	8025.98	3.9620	3.9621	-0.7679	25.94	-0.03	-0.750			
0.1277	8174.17	3.9590	3.9590	-0.7723	25.94	-0.03	-0.750			
0.1300	8321.29	3.9560	3.9560	-0.7676	25.94	-0.03	-0.750			
0.1324	8471.62	3.9530	3.9529	-0.7748	25.95	-0.02	-0.750			
0.1347	8620.07	3.9500	3.9502	-0.7751	25.95	-0.02	-0.750			
0.1370	8768.75	3.9470	3.9470	-0.7772	25.95	-0.02	-0.750			
0.1394	8918.58	3.9440	3.9440	-0.7797	25.96	-0.01	-0.750			
0.1417	9067.74	3.9410	3.9409	-0.7756	25.96	-0.01	-0.750			
0.1440	9216.66	3.9380	3.9380	-0.7789	25.96	-0.01	-0.750			
0.1464	9367.28	3.9350	3.9350	-0.7793	25.97	-0.00	-0.750			
0.1487	9515.58	3.9320	3.9320	-0.7822	25.97	0.00	-0.750			
0.1510	9665.52	3.9290	3.9289	-0.7847	25.98	0.01	-0.750			
0.1534	9816.08	3.9260	3.9260	-0.7838	25.98	0.01	-0.750			
0.1557	9967.24	3.9230	3.9230	-0.7880	25.98	0.01	-0.750			
0.1581	10120.74	3.9200	3.9201	-0.7925	25.99	0.02	-0.750			
0.1605	10272.05	3.9170	3.9171	-0.7929	25.99	0.02	-0.750			
0.1629	10424.63	3.9140	3.9139	-0.7956	25.99	0.02	-0.750			
0.1653	10576.96	3.9110	3.9110	-0.8007	25.99	0.02	-0.750			
0.1677	10731.97	3.9080	3.9080	-0.8019	25.99	0.02	-0.750			
0.1701	10886.94	3.9050	3.9049	-0.8029	25.99	0.02	-0.750			
0.1725	11041.48	3.9020	3.9023	-0.8037	25.99	0.02	-0.750			
0.1749	11195.92	3.8990	3.8988	-0.8016	25.99	0.02	-0.750			
0.1773	11348.84	3.8960	3.8960	-0.8073	26.00	0.03	-0.750			
0.1797	11503.85	3.8930	3.8930	-0.8038	26.00	0.03	-0.750			
0.1822	11660.85	3.8900	3.8899	-0.8092	26.01	0.04	-0.750			
0.1846	11815.31	3.8870	3.8873	-0.8084	26.01	0.04	-0.750			
0.1870	11969.84	3.8840	3.8840	-0.8076	26.01	0.04	-0.750			
0.1894	12123.99	3.8810	3.8809	-0.8112	26.02	0.05	-0.750			
0.1919	12280.39	3.8780	3.8779	-0.8064	26.02	0.05	-0.750			
0.1943	12435.60	3.8750	3.8750	-0.8120	26.03	0.06	-0.750			
0.1967	12591.85	3.8720	3.8721	-0.8126	26.03	0.06	-0.750			
0.1992	12748.02	3.8690	3.8689	-0.8133	26.03	0.06	-0.750			
0.2016	12903.39	3.8660	3.8660	-0.8147	26.04	0.07	-0.750			
0.2041	13059.91	3.8630	3.8630	-0.8131	26.04	0.07	-0.750			
0.2065	13216.28	3.8600	3.8600	-0.8119	26.04	0.07	-0.750			
0.2090	13374.74	3.8570	3.8570	-0.8185	26.05	0.08	-0.750			
0.2114	13530.03	3.8540	3.8539	-0.8143	26.05	0.08	-0.750			
0.2139	13686.56	3.8510	3.8509	-0.8178	26.05	0.08	-0.750			
0.2163	13843.82	3.8480	3.8480	-0.8176	26.05	0.08	-0.750			
0.2188	14001.16	3.8450	3.8450	-0.8151	26.05	0.08	-0.750			
0.2213	14161.20	3.8420	3.8419	-0.8165	26.05	0.08	-0.750			
0.2237	14316.92	3.8390	3.8389	-0.8113	26.05	0.08	-0.750			
0.2261	14470.57	3.8360	3.8360	-0.8067	26.06	0.09	-0.750			
0.2285	14624.66	3.8330	3.8330	-0.8061	26.06	0.09	-0.750			
0.2309	14777.19	3.8300	3.8300	-0.8054	26.06	0.09	-0.750			
0.2333	14934.13	3.8270	3.8269	-0.8123	26.07	0.10	-0.750			
0.2358	15090.79	3.8240	3.8240	-0.8146	26.07	0.10	-0.750			
0.2383	15248.50	3.8210	3.8209	-0.8164	26.08	0.11	-0.750			
0.2407	15405.71	3.8180	3.8181	-0.8148	26.08	0.11	-0.750			
0.2432	15563.01	3.8150	3.8149	-0.8086	26.08	0.11	-0.750			
0.2456	15717.57	3.8120	3.8120	-0.8063	26.09	0.12	-0.750			
0.2480	15870.76	3.8090	3.8091	-0.8024	26.09	0.12	-0.750			
0.2504	16024.38	3.8060	3.8059	-0.8010	26.09	0.12	-0.750			
0.2528	16179.23	3.8030	3.8030	-0.8025	26.10	0.13	-0.750			
0.2552	16334.26	3.8000	3.8000	-0.7965	26.10	0.13	-0.750			
0.2576	16487.45	3.7970	3.7970	-0.7954	26.11	0.14	-0.750			
0.2600	16640.64	3.7940	3.7941	-0.7891	26.11	0.14	-0.750			
0.2624	16790.65	3.7910	3.7910	-0.7805	26.11	0.14	-0.750			
0.2647	16939.49	3.7880	3.7880	-0.7789	26.11	0.14	-0.750			
0.2670	17088.16	3.7850	3.7850	-0.7734	26.12	0.15	-0.750			
0.2693	17236.71	3.7820	3.7819	-0.7713	26.12	0.15	-0.750			
0.2716	17383.91	3.7790	3.7791	-0.7697	26.12	0.15	-0.750			
0.2739	17530.94	3.7760	3.7760	-0.7656	26.12	0.15	-0.750			
0.2762	17677.65	3.7730	3.7729	-0.7692	26.13	0.16	-0.750			
0.2785	17825.47	3.7700	3.7700	-0.7660	26.13	0.16	-0.750			
0.2808	17972.75	3.7670	3.7670	-0.7627	26.13	0.16	-0.750			
0.2831	18121.01	3.7640	3.7639	-0.7648	26.14	0.17	-0.750			
0.2854	18267.03	3.7610	3.7612	-0.7623	26.14	0.17	-0.750			
0.2877	18412.00	3.7580	3.7579	-0.7584	26.14	0.17	-0.750			
0.2900	18557.35	3.7550	3.7550	-0.7649	26.14	0.17	-0.750			
0.2922	18702.72	3.7520	3.7520	-0.7655	26.15	0.18	-0.750			
0.2946	18851.52	3.7490	3.7490	-0.7715	26.15	0.18	-0.750			
0.2969	19001.59	3.7460	3.7460	-0.7756	26.15	0.18	-0.750			
0.2992	19150.07	3.7430	3.7430	-0.7785	26.15	0.18	-0.750			
0.3015	19298.16	3.7400	3.7399	-0.7857	26.16	0.19	-0.750			
0.3039	19449.71	3.7370	3.7370	-0.7935	26.16	0.19	-0.750			
0.3063	19601.12	3.7340	3.7341	-0.7998	26.16	0.19	-0.750			
0.3087	19758.63	3.7310	3.7309	-0.8118	26.17	0.20	-0.750			
0.3112	19915.34	3.7280	3.7280	-0.8228	26.17	0.20	-0.750			
0.3136	20073.35	3.7250	3.7250	-0.8365	26.17	0.20	-0.750			
0.3162	20234.02	3.7220	3.7220	-0.8487	26.17	0.20	-0.750			
0.3187	20397.67	3.7190	3.7190	-0.8587	26.17	0.20	-0.750			
0.3213	20564.75	3.7160	3.7159	-0.8764	26.17	0.20	-0.750			
0.3240	20734.81	3.7130	3.7130	-0.8923	26.17	0.20	-0.750			
0.3267	20908.16	3.7100	3.7100	-0.9147	26.17	0.20	-0.750			
0.3295	21085.64	3.7070	3.7069	-0.9289	26.17	0.20	-0.750			
0.3323	21264.78	3.7040	3.7040	-0.9437	26.17	0.20	-0.750			
0.3352	21450.10	3.7010	3.7012	-0.9614	26.17	0.20	-0.750			
0.3381	21636.01	3.6980	3.6979	-0.9808	26.17	0.20	-0.750			
0.3410	21823.82	3.6950	3.6950	-0.9956	26.17	0.20	-0.750			
0.3440	22016.24	3.6920	3.6919	-1.0109	26.17	0.20	-0.750			
0.3471	22213.90	3.6890	3.6891	-1.0330	26.17	0.20	-0.750			
0.3502	22414.06	3.6860	3.6860	-1.0552	26.17	0.20	-0.750			
0.3534	22618.50	3.6830	3.6829	-1.0741	26.16	0.19	-0.750			
0.3567	22826.67	3.6800	3.6799	-1.0954	26.15	0.18	-0.750			
0.3599	23036.08	3.6770	3.6773	-1.1204	26.15	0.18	-0.750			
0.3634	23256.12	3.6740	3.6739	-1.1396	26.14	0.17	-0.750			
0.3668	23477.55	3.6710	3.6710	-1.1617	26.14	0.17	-0.750			
0.3703	23700.59	3.6680	3.6679	-1.1837	26.13	0.16	-0.750			
0.3739	23931.57	3.6650	3.6650	-1.2141	26.13	0.16	-0.750			
0.3776	24166.44	3.6620	3.6619	-1.2298	26.12	0.15	-0.750			
0.3813	24403.00	3.6590	3.6589	-1.2516	26.12	0.15	-0.750			
0.3851	24643.37	3.6560	3.6562	-1.2840	26.11	0.14	-0.750			
0.3890	24898.15	3.6530	3.6530	-1.3174	26.10	0.13	-0.750			
0.3930	25154.71	3.6500	3.6498	-1.3372	26.10	0.13	-0.750			
0.3971	25413.09	3.6470	3.6473	-1.3655	26.09	0.12	-0.750			
0.4012	25676.90	3.6440	3.6440	-1.3933	26.08	0.11	-0.750			
0.4054	25947.33	3.6410	3.6410	-1.4213	26.08	0.11	-0.750			
0.4097	26218.02	3.6380	3.6381	-1.4513	26.07	0.10	-0.750			
0.4141	26504.13	3.6350	3.6350	-1.4857	26.06	0.09	-0.750			
0.4186	26791.53	3.6320	3.6320	-1.5200	26.06	0.09	-0.750			
0.4232	27087.81	3.6290	3.6291	-1.5489	26.05	0.08	-0.750			
0.4279	27384.96	3.6260	3.6260	-1.5850	26.04	0.07	-0.750			
0.4327	27694.25	3.6230	3.6229	-1.6194	26.03	0.06	-0.750			
0.4376	28007.23	3.6200	3.6199	-1.6596	26.03	0.06	-0.750			
0.4427	28329.82	3.6170	3.6173	-1.6841	26.02	0.05	-0.750	0.384	0.517	
0.4478	28658.09	3.6140	3.6141	-1.7268	26.01	0.04	-0.750			
0.4530	28993.27	3.6110	3.6110	-1.7425	26.01	0.04	-0.750			
0.4583	29328.83	3.6080	3.6080	-1.7663	26.01	0.04	-0.750			
0.4636	29667.30	3.6050	3.6051	-1.7819	26.00	0.03	-0.750			
0.4690	30016.74	3.6020	3.6018	-1.8150	26.00	0.03	-0.750			
0.4744	30362.40	3.5990	3.5989	-1.8563	25.99	0.02	-0.750			
0.4801	30725.40	3.5960	3.5960	-1.9038	25.99	0.02	-0.750			
0.4858	31092.23	3.5930	3.5931	-1.9482	25.99	0.02	-0.750			
0.4918	31475.26	3.5900	3.5901	-1.9885	25.98	0.01	-0.750			
0.4978	31860.52	3.5870	3.5869	-2.0116	25.97	0.00	-0.750			
0.5040	32255.87	3.5840	3.5841	-2.0506	25.97	0.00	-0.750			
0.5102	32650.16	3.5810	3.5809	-2.0760	25.97	-0.00	-0.750			
0.5163	33044.06	3.5780	3.5779	-2.0932	25.96	-0.01	-0.750			
0.5227	33451.57	3.5750	3.5751	-2.1259	25.95	-0.02	-0.750			
0.5292	33866.56	3.5720	3.5720	-2.1547	25.96	-0.01	-0.750			
0.5357	34282.09	3.5690	3.5688	-2.1786	25.96	-0.01	-0.750			
0.5422	34702.55	3.5660	3.5661	-2.1994	25.95	-0.02	-0.750			
0.5489	35132.41	3.5630	3.5631	-2.2217	25.95	-0.02	-0.750			
0.5556	35560.19	3.5600	3.5598	-2.2315	25.95	-0.02	-0.750			
0.5623	35988.74	3.5570	3.5569	-2.2145	25.95	-0.02	-0.750			
0.5690	36413.19	3.5540	3.5542	-2.2271	25.95	-0.02	-0.750			
0.5757	36843.29	3.5510	3.5510	-2.2237	25.95	-0.02	-0.750			
0.5823	37267.97	3.5480	3.5478	-2.2058	25.95	-0.02	-0.750			
0.5889	37692.24	3.5450	3.5450	-2.1965	25.96	-0.01	-0.750			
0.5956	38118.99	3.5420	3.5421	-2.1918	25.97	-0.00	-0.750			
0.6022	38539.10	3.5390	3.5389	-2.1662	25.97	0.00	-0.750			
0.6087	38953.97	3.5360	3.5360	-2.1265	25.97	0.00	-0.750			
0.6150	39358.04	3.5330	3.5331	-2.0884	25.98	0.01	-0.750			
0.6212	39756.64	3.5300	3.5299	-2.0615	25.99	0.02	-0.750			
0.6273	40144.46	3.5270	3.5269	-2.0188	26.00	0.03	-0.750			
0.6333	40531.21	3.5240	3.5239	-1.9776	26.01	0.04	-0.750			
0.6392	40909.91	3.5210	3.5210	-1.9498	26.02	0.05	-0.750			
0.6451	41283.92	3.5180	3.5180	-1.8921	26.03	0.06	-0.750			
0.6507	41646.09	3.5150	3.5150	-1.8366	26.05	0.08	-0.750			
0.6561	41990.91	3.5120	3.5120	-1.7819	26.06	0.09	-0.750			
0.6613	42326.35	3.5090	3.5089	-1.7155	26.08	0.11	-0.750			
0.6664	42650.03	3.5060	3.5060	-1.6623	26.09	0.12	-0.750			
0.6713	42964.97	3.5030	3.5030	-1.6107	26.11	0.14	-0.750			
0.6760	43266.72	3.5000	3.4999	-1.5566	26.12	0.15	-0.750			
0.6807	43563.73	3.4970	3.4972	-1.5165	26.14	0.17	-0.750			
0.6851	43846.01	3.4940	3.4941	-1.4628	26.15	0.18	-0.750			
0.6894	44120.72	3.4910	3.4909	-1.4097	26.16	0.19	-0.750			
0.6936	44390.00	3.4880	3.4880	-1.3710	26.18	0.21	-0.750			
0.6976	44648.20	3.4850	3.4851	-1.3375	26.19	0.22	-0.750			
0.7016	44901.89	3.4820	3.4818	-1.2936	26.21	0.24	-0.750			
0.7054	45144.24	3.4790	3.4789	-1.2498	26.23	0.26	-0.750			
0.7090	45379.19	3.4760	3.4762	-1.2079	26.25	0.28	-0.750			
0.7127	45610.26	3.4730	3.4730	-1.1762	26.26	0.29	-0.750			
0.7161	45832.95	3.4700	3.4699	-1.1307	26.28	0.31	-0.750			
0.7194	46043.15	3.4670	3.4670	-1.0841	26.29	0.32	-0.750			
0.7226	46245.65	3.4640	3.4641	-1.0487	26.30	0.33	-0.750			
0.7257	46445.16	3.4610	3.4610	-1.0246	26.32	0.35	-0.750			
0.7287	46637.76	3.4580	3.4579	-0.9900	26.33	0.36	-0.750			
0.7316	46823.60	3.4550	3.4550	-0.9611	26.35	0.38	-0.750			
0.7345	47006.47	3.4520	3.4522	-0.9367	26.36	0.39	-0.750			
0.7372	47183.37	3.4490	3.4489	-0.9139	26.37	0.40	-0.750			
0.7399	47355.05	3.4460	3.4460	-0.8886	26.39	0.42	-0.750			
0.7425	47520.49	3.4430	3.4430	-0.8762	26.40	0.43	-0.750			
0.7451	47685.62	3.4400	3.4400	-0.8697	26.41	0.44	-0.750			
0.7477	47850.79	3.4370	3.4371	-0.8722	26.42	0.45	-0.750			
0.7503	48016.63	3.4340	3.4340	-0.8799	26.43	0.46	-0.750			
0.7529	48185.26	3.4310	3.4310	-0.8930	26.44	0.47	-0.750			
0.7556	48357.16	3.4280	3.4279	-0.9131	26.45	0.48	-0.750			
0.7583	48534.32	3.4250	3.4250	-0.9317	26.46	0.49	-0.750			
0.7612	48715.49	3.4220	3.4220	-0.9473	26.46	0.49	-0.750			
0.7641	48900.27	3.4190	3.4190	-0.9674	26.47	0.50	-0.750			
0.7670	49089.30	3.4160	3.4160	-0.9750	26.48	0.51	-0.750			
0.7700	49279.49	3.4130	3.4130	-0.9757	26.49	0.52	-0.750			
0.7729	49468.11	3.4100	3.4101	-0.9708	26.50	0.53	-0.750			
0.7759	49655.87	3.4070	3.4070	-0.9587	26.51	0.54	-0.750			
0.7788	49841.19	3.4040	3.4039	-0.9385	26.52	0.55	-0.750			
0.7816	50019.66	3.4010	3.4010	-0.9147	26.53	0.56	-0.750			
0.7843	50192.89	3.3980	3.3981	-0.8901	26.54	0.57	-0.750			
0.7869	50361.13	3.3950	3.3949	-0.8646	26.55	0.58	-0.750			
0.7894	50524.57	3.3920	3.3919	-0.8393	26.56	0.59	-0.750			
0.7919	50682.73	3.3890	3.3890	-0.8082	26.56	0.59	-0.750			
0.7943	50836.17	3.3860	3.3860	-0.7810	26.57	0.60	-0.750			
0.7967	50985.79	3.3830	3.3830	-0.7552	26.58	0.61	-0.750			
0.7988	51126.19	3.3800	3.3800	-0.7240	26.59	0.62	-0.750			
0.8010	51261.11	3.3770	3.3770	-0.6947	26.59	0.62	-0.750			
0.8030	51391.02	3.3740	3.3739	-0.6697	26.60	0.63	-0.750			
0.8049	51516.53	3.3710	3.3709	-0.6457	26.60	0.63	-0.750			
0.8069	51639.41	3.3680	3.3681	-0.6247	26.61	0.64	-0.750			
0.8087	51756.44	3.3650	3.3649	-0.5998	26.62	0.65	-0.750			
0.8105	51870.21	3.3620	3.3621	-0.5796	26.62	0.65	-0.750			
0.8122	51979.16	3.3590	3.3590	-0.5589	26.63	0.66	-0.750			
0.8138	52083.18	3.3560	3.3559	-0.5379	26.63	0.66	-0.750			
0.8154	52183.90	3.3530	3.3530	-0.5157	26.64	0.67	-0.750			
0.8169	52281.60	3.3500	3.3500	-0.5016	26.64	0.67	-0.750			
0.8184	52376.63	3.3470	3.3470	-0.4861	26.65	0.68	-0.750			
0.8198	52468.60	3.3440	3.3440	-0.4676	26.65	0.68	-0.750			
0.8212	52556.29	3.3410	3.3409	-0.4502	26.66	0.69	-0.750			
0.8225	52641.06	3.3380	3.3381	-0.4355	26.66	0.69	-0.750			
0.8238	52722.77	3.3350	3.3350	-0.4205	26.67	0.70	-0.750			
0.8250	52802.23	3.3320	3.3319	-0.4069	26.68	0.71	-0.750			
0.8262	52878.35	3.3290	3.3291	-0.3915	26.69	0.72	-0.750			
0.8274	52952.56	3.3260	3.3260	-0.3804	26.69	0.72	-0.750			
0.8285	53024.58	3.3230	3.3230	-0.3695	26.70	0.73	-0.750			
0.8296	53093.96	3.3200	3.3199	-0.3571	26.71	0.74	-0.750			
0.8306	53161.10	3.3170	3.3171	-0.3469	26.71	0.74	-0.750			
0.8317	53226.58	3.3140	3.3140	-0.3373	26.72	0.75	-0.750			
0.8327	53290.31	3.3110	3.3110	-0.3293	26.73	0.76	-0.750			
0.8336	53352.78	3.3080	3.3080	-0.3214	26.73	0.76	-0.750			
0.8346	53413.63	3.3050	3.3050	-0.3123	26.74	0.77	-0.750			
0.8355	53472.98	3.3020	3.3020	-0.3034	26.75	0.78	-0.750			
0.8364	53530.66	3.2990	3.2991	-0.2951	26.75	0.78	-0.750			
0.8373	53586.08	3.2960	3.2960	-0.2876	26.76	0.79	-0.750			
0.8381	53640.53	3.2930	3.2929	-0.2801	26.76	0.79	-0.750			
0.8390	53693.21	3.2900	3.2900	-0.2719	26.77	0.80	-0.750			
0.8398	53744.64	3.2870	3.2871	-0.2669	26.77	0.80	-0.750			
0.8406	53795.49	3.2840	3.2840	-0.2626	26.78	0.81	-0.750			
0.8413	53845.34	3.2810	3.2809	-0.2574	26.78	0.81	-0.750			
0.8421	53893.78	3.2780	3.2779	-0.2519	26.79	0.82	-0.750			
0.8428	53941.43	3.2750	3.2751	-0.2472	26.79	0.82	-0.750			
0.8436	53988.89	3.2720	3.2720	-0.2429	26.80	0.83	-0.750			
0.8443	54035.28	3.2690	3.2691	-0.2391	26.80	0.83	-0.750			
0.8450	54080.90	3.2660	3.2659	-0.2344	26.81	0.84	-0.750			
0.8457	54125.05	3.2630	3.2630	-0.2287	26.81	0.84	-0.750			
0.8464	54168.52	3.2600	3.2600	-0.2245	26.81	0.84	-0.750			
0.8470	54211.12	3.2570	3.2571	-0.2204	26.82	0.85	-0.750			
0.8477	54253.05	3.2540	3.2539	-0.2163	26.82	0.85	-0.750			
0.8483	54293.83	3.2510	3.2510	-0.2131	26.83	0.86	-0.750			
0.8490	54334.58	3.2480	3.2479	-0.2093	26.84	0.87	-0.750			
0.8496	54374.09	3.2450	3.2451	-0.2057	26.84	0.87	-0.750			
0.8502	54413.33	3.2420	3.2419	-0.2030	26.85	0.88	-0.750			
0.8508	54452.11	3.2390	3.2391	-0.2011	26.85	0.88	-0.750			
0.8514	54490.42	3.2360	3.2359	-0.1982	26.86	0.89	-0.750			
0.8520	54528.37	3.2330	3.2330	-0.1952	26.86	0.89	-0.750			
0.8526	54565.57	3.2300	3.2299	-0.1923	26.87	0.90	-0.750			
0.8532	54602.21	3.2270	3.2271	-0.1891	26.87	0.90	-0.750			
0.8537	54638.49	3.2240	3.2240	-0.1870	26.88	0.91	-0.750			
0.8543	54673.50	3.2210	3.2210	-0.1839	26.88	0.91	-0.750			
0.8548	54708.62	3.2180	3.2180	-0.1819	26.89	0.92	-0.750			
0.8554	54742.94	3.2150	3.2150	-0.1800	26.89	0.92	-0.750			
0.8559	54777.56	3.2120	3.2119	-0.1782	26.90	0.93	-0.750			
0.8564	54811.99	3.2090	3.2090	-0.1767	26.90	0.93	-0.750			
0.8570	54845.68	3.2060	3.2060	-0.1742	26.91	0.94	-0.750			
0.8575	54878.98	3.2030	3.2031	-0.1726	26.91	0.94	-0.750			
0.8580	54911.91	3.2000	3.2000	-0.1702	26.92	0.95	-0.750			
0.8585	54944.11	3.1970	3.1970	-0.1674	26.92	0.95	-0.750			
0.8590	54975.99	3.1940	3.1939	-0.1660	26.93	0.96	-0.750			
0.8595	55007.76	3.1910	3.1910	-0.1636	26.93	0.96	-0.750			
0.8600	55039.08	3.1880	3.1878	-0.1622	26.93	0.96	-0.750			
0.8605	55070.10	3.1850	3.1851	-0.1603	26.94	0.97	-0.750			
0.8609	55100.49	3.1820	3.1821	-0.1594	26.95	0.98	-0.750			
0.8614	55130.79	3.1790	3.1789	-0.1575	26.95	0.98	-0.750			
0.8619	55161.09	3.1760	3.1760	-0.1562	26.96	0.99	-0.750			
0.8624	55190.92	3.1730	3.1730	-0.1546	26.96	0.99	-0.750			
0.8628	55220.38	3.1700	3.1701	-0.1530	26.97	1.00	-0.750			
0.8633	55249.80	3.1670	3.1670	-0.1523	26.98	1.01	-0.750			
0.8637	55278.72	3.1640	3.1640	-0.1505	26.98	1.01	-0.750			
0.8642	55307.48	3.1610	3.1610	-0.1492	26.99	1.02	-0.750			
0.8646	55335.80	3.1580	3.1580	-0.1474	26.99	1.02	-0.750			
0.8651	55364.18	3.1550	3.1551	-0.1466	27.00	1.03	-0.750			
0.8655	55392.20	3.1520	3.1521	-0.1454	27.00	1.03	-0.750			
0.8659	55419.99	3.1490	3.1489	-0.1440	27.01	1.04	-0.750			
0.8664	55447.44	3.1460	3.1460	-0.1427	27.01	1.04	-0.750			
0.8668	55474.63	3.1430	3.1430	-0.1413	27.02	1.05	-0.750			
0.8672	55501.75	3.1400	3.1400	-0.1402	27.02	1.05	-0.750			
0.8676	55528.55	3.1370	3.1371	-0.1389	27.03	1.06	-0.750			
0.8680	55555.14	3.1340	3.1340	-0.1380	27.03	1.06	-0.750			
0.8685	55581.53	3.1310	3.1310	-0.1364	27.04	1.07	-0.750			
0.8689	55607.61	3.1280	3.1279	-0.1350	27.04	1.07	-0.750			
0.8693	55633.32	3.1250	3.1251	-0.1342	27.04	1.07	-0.750			
0.8697	55658.96	3.1220	3.1221	-0.1332	27.04	1.07	-0.750			
0.8701	55684.51	3.1190	3.1189	-0.1321	27.05	1.08	-0.750			
0.8705	55709.79	3.1160	3.1159	-0.1310	27.05	1.08	-0.750			
0.8709	55734.78	3.1130	3.1131	-0.1301	27.05	1.08	-0.750			
0.8712	55759.59	3.1100	3.1100	-0.1290	27.05	1.08	-0.750			
0.8716	55784.36	3.1070	3.1070	-0.1285	27.06	1.09	-0.750			
0.8720	55808.93	3.1040	3.1039	-0.1274	27.06	1.09	-0.750			
0.8724	55833.10	3.1010	3.1010	-0.1265	27.06	1.09	-0.750			
0.8728	55857.42	3.0980	3.0980	-0.1257	27.07	1.10	-0.750			
0.8731	55881.59	3.0950	3.0950	-0.1251	27.08	1.11	-0.750			
0.8735	55905.40	3.0920	3.0920	-0.1247	27.08	1.11	-0.750			
0.8739	55929.17	3.0890	3.0890	-0.1241	27.09	1.12	-0.750			
0.8743	55953.19	3.0860	3.0860	-0.1227	27.10	1.13	-0.750			
0.8746	55976.75	3.0830	3.0828	-0.1216	27.11	1.14	-0.750			
0.8750	55999.85	3.0800	3.0801	-0.1207	27.11	1.14	-0.750			
0.8754	56022.97	3.0770	3.0771	-0.1196	27.12	1.15	-0.750			
0.8757	56045.70	3.0740	3.0739	-0.1189	27.13	1.16	-0.750			
0.8761	56068.45	3.0710	3.0709	-0.1181	27.13	1.16	-0.750			
0.8764	56090.64	3.0680	3.0679	-0.1170	27.14	1.17	-0.750			
0.8768	56113.10	3.0650	3.0651	-0.1171	27.15	1.18	-0.750			
0.8771	56135.87	3.0620	3.0620	-0.1172	27.15	1.18	-0.750			
0.8775	56158.31	3.0590	3.0590	-0.1166	27.16	1.19	-0.750			
0.8778	56180.80	3.0560	3.0560	-0.1155	27.17	1.20	-0.750			
0.8782	56202.87	3.0530	3.0530	-0.1144	27.17	1.20	-0.750			
0.8785	56224.80	3.0500	3.0500	-0.1137	27.18	1.21	-0.750			
0.8789	56246.53	3.0470	3.0471	-0.1126	27.19	1.22	-0.750			
0.8792	56267.93	3.0440	3.0439	-0.1117	27.19	1.22	-0.750			
0.8795	56289.29	3.0410	3.0410	-0.1108	27.20	1.23	-0.750			
0.8798	56310.27	3.0380	3.0380	-0.1100	27.20	1.23	-0.750			
0.8802	56331.37	3.0350	3.0350	-0.1098	27.21	1.24	-0.750			
0.8805	56352.60	3.0320	3.0320	-0.1092	27.22	1.25	-0.750			
0.8808	56373.50	3.0290	3.0290	-0.1085	27.22	1.25	-0.750			
0.8812	56394.15	3.0260	3.0261	-0.1080	27.23	1.26	-0.750			
0.8815	56414.83	3.0230	3.0230	-0.1075	27.23	1.26	-0.750			
0.8818	56435.38	3.0200	3.0201	-0.1071	27.24	1.27	-0.750			
0.8821	56455.89	3.0170	3.0169	-0.1067	27.25	1.28	-0.750			
0.8824	56476.34	3.0140	3.0140	-0.1058	27.25	1.28	-0.750			
0.8828	56496.60	3.0110	3.0110	-0.1053	27.26	1.29	-0.750			
0.8831	56517.06	3.0080	3.0080	-0.1044	27.27	1.30	-0.750			
0.8834	56536.96	3.0050	3.0051	-0.1030	27.27	1.30	-0.751			
0.8837	56556.53	3.0020	3.0020	-0.1000	27.28	1.31	-0.751			
