Ah_balance (normalized)	Ah_balance (mAh)	Voltage - fit (V)	Voltage -  interpolate (V)	dQ/dV (1/V)	Temperature (°C)	Temperature - diff (°C)	Current (C)	R_DC 0ms (mOhm)	R_DC 50ms (mOhm)	R_DC 50 ms PEC (mOhm)
0.0528	3378.23	4.1980	4.1981	0.7659	26.60	0.65	0.750			
0.0551	3524.31	4.1950	4.1949	0.7592	26.60	0.65	0.750			
0.0573	3669.64	4.1920	4.1920	0.7574	26.60	0.65	0.750			
0.0596	3814.09	4.1890	4.1890	0.7585	26.60	0.65	0.750			
0.0619	3959.57	4.1860	4.1860	0.7582	26.60	0.65	0.750			
0.0641	4105.43	4.1830	4.1830	0.7574	26.60	0.65	0.750			
0.0664	4251.10	4.1800	4.1800	0.7628	26.60	0.65	0.750			
0.0687	4398.71	4.1770	4.1770	0.7601	26.60	0.65	0.750			
0.0710	4544.07	4.1740	4.1740	0.7628	26.60	0.65	0.750			
0.0733	4690.23	4.1710	4.1710	0.7628	26.60	0.65	0.750			
0.0756	4836.30	4.1680	4.1681	0.7663	26.60	0.65	0.750			
0.0779	4984.59	4.1650	4.1650	0.7713	26.60	0.65	0.750			
0.0802	5134.52	4.1620	4.1619	0.7714	26.59	0.64	0.750			
0.0825	5282.42	4.1590	4.1590	0.7694	26.59	0.64	0.750			
0.0848	5430.14	4.1560	4.1560	0.7780	26.59	0.64	0.750			
0.0872	5578.37	4.1530	4.1530	0.7742	26.58	0.63	0.750			
0.0895	5727.00	4.1500	4.1502	0.7788	26.58	0.63	0.750			
0.0918	5876.76	4.1470	4.1470	0.7797	26.58	0.63	0.750			
0.0942	6027.68	4.1440	4.1441	0.7829	26.57	0.62	0.750			
0.0965	6179.12	4.1410	4.1410	0.7833	26.57	0.62	0.750			
0.0989	6329.56	4.1380	4.1380	0.7810	26.56	0.61	0.750			
0.1012	6477.99	4.1350	4.1346	0.7785	26.56	0.61	0.750			
0.1036	6628.06	4.1320	4.1321	0.7808	26.56	0.61	0.750			
0.1059	6777.20	4.1290	4.1290	0.7777	26.56	0.61	0.750			
0.1082	6927.12	4.1260	4.1260	0.7861	26.57	0.62	0.750			
0.1106	7078.40	4.1230	4.1230	0.7885	26.57	0.62	0.750			
0.1130	7230.11	4.1200	4.1200	0.7902	26.57	0.62	0.750			
0.1153	7382.05	4.1170	4.1171	0.7918	26.57	0.62	0.750			
0.1177	7535.51	4.1140	4.1140	0.7904	26.57	0.62	0.750			
0.1201	7686.55	4.1110	4.1111	0.7938	26.57	0.62	0.750			
0.1225	7838.48	4.1080	4.1080	0.7938	26.57	0.62	0.750			
0.1248	7989.24	4.1050	4.1050	0.7949	26.57	0.62	0.750			
0.1272	8143.10	4.1020	4.1020	0.7988	26.57	0.62	0.750			
0.1296	8296.50	4.0990	4.0990	0.8030	26.57	0.62	0.750			
0.1321	8451.49	4.0960	4.0960	0.8075	26.57	0.62	0.750			
0.1345	8608.38	4.0930	4.0930	0.8079	26.56	0.61	0.750			
0.1369	8762.92	4.0900	4.0900	0.8057	26.56	0.61	0.750			
0.1394	8918.55	4.0870	4.0873	0.8086	26.56	0.61	0.750			
0.1418	9073.28	4.0840	4.0841	0.8086	26.56	0.61	0.750			
0.1442	9228.34	4.0810	4.0809	0.8068	26.56	0.61	0.750			
0.1466	9381.68	4.0780	4.0780	0.8078	26.56	0.61	0.750			
0.1490	9536.61	4.0750	4.0751	0.8092	26.56	0.61	0.750			
0.1514	9692.17	4.0720	4.0717	0.8165	26.56	0.61	0.750			
0.1539	9849.59	4.0690	4.0690	0.8204	26.56	0.61	0.750			
0.1564	10008.03	4.0660	4.0660	0.8196	26.56	0.61	0.750			
0.1588	10165.71	4.0630	4.0631	0.8240	26.56	0.61	0.750			
0.1613	10323.23	4.0600	4.0601	0.8229	26.56	0.61	0.750			
0.1638	10482.39	4.0570	4.0568	0.8276	26.56	0.61	0.750			
0.1663	10641.38	4.0540	4.0540	0.8300	26.56	0.61	0.750			
0.1688	10800.39	4.0510	4.0511	0.8285	26.56	0.61	0.750			
0.1712	10959.03	4.0480	4.0481	0.8410	26.56	0.61	0.750			
0.1738	11120.04	4.0450	4.0450	0.8456	26.56	0.61	0.750			
0.1763	11285.23	4.0420	4.0418	0.8480	26.56	0.61	0.750			
0.1789	11449.15	4.0390	4.0390	0.8506	26.56	0.61	0.750			
0.1815	11613.60	4.0360	4.0362	0.8442	26.56	0.61	0.750			
0.1840	11775.13	4.0330	4.0330	0.8465	26.56	0.61	0.750			
0.1865	11934.83	4.0300	4.0301	0.8466	26.56	0.61	0.750			
0.1890	12096.24	4.0270	4.0266	0.8478	26.56	0.61	0.750			
0.1915	12258.80	4.0240	4.0240	0.8569	26.56	0.61	0.750			
0.1942	12426.14	4.0210	4.0211	0.8579	26.56	0.61	0.750			
0.1968	12593.77	4.0180	4.0180	0.8606	26.56	0.61	0.750			
0.1993	12757.51	4.0150	4.0151	0.8587	26.56	0.61	0.750			
0.2019	12920.43	4.0120	4.0120	0.8573	26.56	0.61	0.750			
0.2045	13085.98	4.0090	4.0090	0.8627	26.56	0.61	0.750			
0.2071	13253.18	4.0060	4.0060	0.8674	26.56	0.61	0.750			
0.2097	13420.56	4.0030	4.0030	0.8699	26.55	0.60	0.750			
0.2123	13588.85	4.0000	4.0000	0.8781	26.55	0.60	0.750			
0.2149	13755.74	3.9970	3.9971	0.8786	26.55	0.60	0.750			
0.2176	13924.46	3.9940	3.9939	0.8799	26.55	0.60	0.750			
0.2202	14094.36	3.9910	3.9910	0.8798	26.55	0.60	0.750			
0.2229	14263.55	3.9880	3.9880	0.8807	26.54	0.59	0.750			
0.2255	14433.30	3.9850	3.9850	0.8854	26.54	0.59	0.750			
0.2282	14602.73	3.9820	3.9819	0.8877	26.54	0.59	0.750			
0.2308	14772.43	3.9790	3.9790	0.8803	26.54	0.59	0.750			
0.2335	14941.58	3.9760	3.9761	0.8885	26.54	0.59	0.750			
0.2361	15111.47	3.9730	3.9730	0.8968	26.54	0.59	0.750			
0.2388	15284.42	3.9700	3.9697	0.9037	26.54	0.59	0.750			
0.2415	15458.69	3.9670	3.9670	0.9037	26.54	0.59	0.750			
0.2443	15632.58	3.9640	3.9640	0.9070	26.54	0.59	0.750			
0.2470	15809.70	3.9610	3.9611	0.9127	26.54	0.59	0.750			
0.2498	15987.02	3.9580	3.9580	0.9126	26.54	0.59	0.750			
0.2525	16158.78	3.9550	3.9549	0.9026	26.54	0.59	0.750			
0.2552	16332.62	3.9520	3.9520	0.8985	26.54	0.59	0.750			
0.2579	16503.81	3.9490	3.9490	0.9012	26.53	0.58	0.750			
0.2606	16676.73	3.9460	3.9460	0.9026	26.53	0.58	0.750			
0.2633	16849.01	3.9430	3.9428	0.9061	26.53	0.58	0.750			
0.2660	17023.10	3.9400	3.9402	0.9119	26.53	0.58	0.750			
0.2688	17200.38	3.9370	3.9370	0.9051	26.53	0.58	0.750			
0.2714	17372.62	3.9340	3.9341	0.9124	26.52	0.57	0.750			
0.2742	17548.43	3.9310	3.9311	0.9115	26.52	0.57	0.750			
0.2769	17721.36	3.9280	3.9276	0.9139	26.52	0.57	0.750			
0.2797	17899.28	3.9250	3.9250	0.9089	26.51	0.56	0.750			
0.2824	18073.09	3.9220	3.9222	0.9117	26.51	0.56	0.750			
0.2851	18249.56	3.9190	3.9190	0.9180	26.51	0.56	0.750			
0.2879	18424.78	3.9160	3.9161	0.9142	26.50	0.55	0.750			
0.2906	18601.01	3.9130	3.9131	0.9140	26.50	0.55	0.750			
0.2934	18777.15	3.9100	3.9100	0.9220	26.50	0.55	0.750			
0.2961	18953.02	3.9070	3.9070	0.9273	26.50	0.55	0.750			
0.2990	19133.94	3.9040	3.9040	0.9380	26.50	0.55	0.750			
0.3018	19313.21	3.9010	3.9008	0.9352	26.50	0.55	0.750			
0.3046	19495.03	3.8980	3.8980	0.9286	26.49	0.54	0.750			
0.3074	19673.04	3.8950	3.8951	0.9381	26.48	0.53	0.750			
0.3102	19852.31	3.8920	3.8921	0.9460	26.47	0.52	0.750			
0.3130	20032.52	3.8890	3.8889	0.9491	26.46	0.51	0.750			
0.3159	20217.25	3.8860	3.8861	0.9498	26.46	0.51	0.750			
0.3187	20399.44	3.8830	3.8831	0.9646	26.46	0.51	0.750			
0.3217	20587.47	3.8800	3.8800	0.9707	26.45	0.50	0.750			
0.3246	20775.59	3.8770	3.8770	0.9794	26.45	0.50	0.750			
0.3275	20963.04	3.8740	3.8741	0.9768	26.45	0.50	0.750			
0.3305	21150.97	3.8710	3.8710	0.9807	26.44	0.49	0.750			
0.3334	21339.83	3.8680	3.8680	0.9877	26.43	0.48	0.750			
0.3364	21530.27	3.8650	3.8651	0.9928	26.42	0.47	0.750			
0.3394	21719.39	3.8620	3.8619	0.9948	26.41	0.46	0.750			
0.3424	21912.04	3.8590	3.8590	1.0006	26.40	0.45	0.750			
0.3453	22102.27	3.8560	3.8560	1.0038	26.39	0.44	0.750			
0.3484	22296.94	3.8530	3.8531	1.0141	26.38	0.43	0.750			
0.3514	22491.89	3.8500	3.8496	1.0238	26.37	0.42	0.750			
0.3545	22689.84	3.8470	3.8471	1.0262	26.36	0.41	0.750			
0.3576	22888.90	3.8440	3.8441	1.0319	26.36	0.41	0.750			
0.3607	23086.31	3.8410	3.8410	1.0465	26.35	0.40	0.750			
0.3639	23286.90	3.8380	3.8377	1.0514	26.34	0.39	0.750			
0.3671	23492.14	3.8350	3.8349	1.0511	26.33	0.38	0.750			
0.3702	23694.37	3.8320	3.8321	1.0542	26.32	0.37	0.750			
0.3734	23898.74	3.8290	3.8292	1.0561	26.30	0.35	0.750			
0.3766	24103.14	3.8260	3.8258	1.0570	26.29	0.34	0.750			
0.3797	24303.96	3.8230	3.8229	1.0464	26.28	0.33	0.750			
0.3828	24499.66	3.8200	3.8201	1.0505	26.27	0.32	0.750			
0.3859	24700.00	3.8170	3.8171	1.0624	26.26	0.31	0.750			
0.3892	24909.28	3.8140	3.8135	1.0655	26.25	0.30	0.750			
0.3924	25112.61	3.8110	3.8111	1.0723	26.24	0.29	0.750			
0.3956	25319.10	3.8080	3.8082	1.0900	26.23	0.28	0.750			
0.3989	25531.30	3.8050	3.8051	1.1041	26.22	0.27	0.750			
0.4023	25746.81	3.8020	3.8017	1.0905	26.21	0.26	0.750			
0.4055	25954.42	3.7990	3.7992	1.1040	26.20	0.25	0.750			
0.4089	26166.51	3.7960	3.7961	1.1124	26.19	0.24	0.750			
0.4122	26381.22	3.7930	3.7931	1.1312	26.18	0.23	0.750			
0.4156	26596.96	3.7900	3.7900	1.1349	26.17	0.22	0.750			
0.4189	26812.27	3.7870	3.7872	1.1458	26.15	0.20	0.750			
0.4224	27034.19	3.7840	3.7842	1.1710	26.14	0.19	0.750			
0.4260	27265.36	3.7810	3.7806	1.1813	26.13	0.18	0.750			
0.4295	27490.84	3.7780	3.7783	1.2005	26.12	0.17	0.750			
0.4332	27723.73	3.7750	3.7751	1.2236	26.10	0.15	0.750			
0.4369	27959.76	3.7720	3.7721	1.2494	26.09	0.14	0.750			
0.4407	28203.70	3.7690	3.7690	1.2908	26.08	0.13	0.750			
0.4445	28447.17	3.7660	3.7660	1.3108	26.07	0.12	0.750			
0.4486	28708.23	3.7630	3.7629	1.3350	26.06	0.11	0.750	0.316	0.414	
0.4526	28969.60	3.7600	3.7601	1.3663	26.05	0.10	0.750			
0.4568	29232.22	3.7570	3.7571	1.3971	26.03	0.08	0.750			
0.4611	29508.41	3.7540	3.7541	1.4176	26.02	0.07	0.750			
0.4654	29784.55	3.7510	3.7510	1.4367	26.00	0.05	0.750			
0.4696	30053.84	3.7480	3.7481	1.4720	25.99	0.04	0.750			
0.4741	30342.25	3.7450	3.7452	1.5020	25.97	0.02	0.750			
0.4786	30631.95	3.7420	3.7419	1.5479	25.95	0.00	0.750			
0.4834	30934.42	3.7390	3.7393	1.5714	25.93	-0.02	0.750			
0.4882	31243.22	3.7360	3.7359	1.6022	25.91	-0.04	0.750			
0.4931	31559.21	3.7330	3.7328	1.6570	25.90	-0.05	0.750			
0.4980	31874.68	3.7300	3.7302	1.7081	25.90	-0.05	0.750			
0.5032	32205.47	3.7270	3.7271	1.7585	25.88	-0.07	0.750			
0.5086	32550.10	3.7240	3.7241	1.8004	25.87	-0.08	0.750			
0.5140	32897.75	3.7210	3.7211	1.8515	25.85	-0.10	0.750			
0.5197	33262.52	3.7180	3.7183	1.9110	25.84	-0.11	0.750			
0.5256	33638.78	3.7150	3.7148	1.9647	25.82	-0.13	0.750			
0.5314	34011.64	3.7120	3.7120	2.0131	25.80	-0.15	0.750			
0.5374	34394.64	3.7090	3.7090	2.0845	25.79	-0.16	0.750			
0.5439	34811.18	3.7060	3.7060	2.1686	25.77	-0.18	0.750			
0.5505	35233.26	3.7030	3.7029	2.2317	25.75	-0.20	0.750			
0.5574	35672.30	3.7000	3.6999	2.2814	25.74	-0.21	0.750			
0.5644	36118.59	3.6970	3.6970	2.3380	25.72	-0.23	0.750			
0.5715	36576.94	3.6940	3.6940	2.3865	25.71	-0.24	0.750			
0.5785	37026.62	3.6910	3.6909	2.4695	25.69	-0.26	0.750			
0.5862	37515.82	3.6880	3.6878	2.5362	25.67	-0.28	0.750			
0.5940	38015.28	3.6850	3.6849	2.5138	25.66	-0.29	0.750			
0.6016	38502.78	3.6820	3.6824	2.5727	25.65	-0.30	0.750			
0.6092	38990.56	3.6790	3.6788	2.6969	25.63	-0.32	0.750			
0.6172	39498.28	3.6760	3.6757	2.7818	25.62	-0.33	0.750			
0.6257	40043.11	3.6730	3.6733	3.0227	25.62	-0.33	0.750			
0.6356	40676.89	3.6700	3.6697	3.0763	25.61	-0.34	0.750			
0.6446	41253.33	3.6670	3.6673	2.9786	25.60	-0.35	0.750			
0.6536	41832.00	3.6640	3.6637	2.8252	25.60	-0.35	0.750			
0.6619	42362.93	3.6610	3.6607	2.5712	25.61	-0.34	0.750			
0.6691	42823.66	3.6580	3.6582	2.3225	25.61	-0.34	0.750			
0.6756	43238.12	3.6550	3.6551	2.1089	25.62	-0.33	0.750			
0.6815	43617.03	3.6520	3.6520	1.9047	25.62	-0.33	0.750			
0.6867	43950.80	3.6490	3.6491	1.7180	25.63	-0.32	0.750			
0.6917	44271.66	3.6460	3.6460	1.5995	25.63	-0.32	0.750			
0.6963	44563.35	3.6430	3.6432	1.4811	25.64	-0.31	0.750			
0.7006	44841.00	3.6400	3.6400	1.3914	25.64	-0.31	0.750			
0.7046	45092.74	3.6370	3.6369	1.3126	25.64	-0.31	0.750			
0.7082	45325.93	3.6340	3.6340	1.2395	25.65	-0.30	0.750			
0.7118	45552.06	3.6310	3.6310	1.2087	25.66	-0.29	0.750			
0.7154	45784.17	3.6280	3.6279	1.1847	25.66	-0.29	0.750			
0.7188	46003.22	3.6250	3.6251	1.1822	25.66	-0.29	0.750			
0.7223	46228.65	3.6220	3.6221	1.1939	25.66	-0.29	0.750			
0.7259	46460.57	3.6190	3.6186	1.1994	25.66	-0.29	0.750			
0.7295	46690.89	3.6160	3.6162	1.2116	25.66	-0.29	0.750			
0.7333	46928.56	3.6130	3.6130	1.2075	25.67	-0.28	0.750			
0.7369	47163.18	3.6100	3.6101	1.1997	25.67	-0.28	0.750			
0.7406	47400.28	3.6070	3.6071	1.1916	25.67	-0.28	0.750			
0.7440	47618.11	3.6040	3.6041	1.1595	25.67	-0.28	0.750			
0.7474	47836.20	3.6010	3.6010	1.1505	25.68	-0.27	0.750			
0.7509	48056.27	3.5980	3.5978	1.1392	25.68	-0.27	0.750			
0.7542	48270.14	3.5950	3.5950	1.1401	25.68	-0.27	0.750			
0.7576	48487.37	3.5920	3.5921	1.1709	25.69	-0.26	0.750			
0.7611	48711.86	3.5890	3.5891	1.1965	25.70	-0.25	0.750			
0.7647	48940.88	3.5860	3.5857	1.2287	25.70	-0.25	0.750			
0.7685	49181.27	3.5830	3.5831	1.2745	25.70	-0.25	0.750			
0.7724	49430.73	3.5800	3.5801	1.3159	25.70	-0.25	0.750			
0.7764	49689.20	3.5770	3.5768	1.3721	25.70	-0.25	0.750			
0.7806	49957.78	3.5740	3.5741	1.4058	25.70	-0.25	0.750			
0.7849	50235.99	3.5710	3.5710	1.4393	25.70	-0.25	0.750			
0.7893	50518.04	3.5680	3.5679	1.4770	25.70	-0.25	0.750			
0.7937	50798.91	3.5650	3.5651	1.5134	25.70	-0.25	0.750			
0.7983	51094.26	3.5620	3.5622	1.5458	25.71	-0.24	0.750			
0.8031	51396.76	3.5590	3.5587	1.5758	25.71	-0.24	0.750			
0.8079	51702.58	3.5560	3.5559	1.6028	25.71	-0.24	0.750			
0.8128	52018.48	3.5530	3.5532	1.6307	25.71	-0.24	0.750			
0.8177	52331.21	3.5500	3.5503	1.6463	25.71	-0.24	0.750			
0.8226	52648.98	3.5470	3.5471	1.6364	25.72	-0.23	0.750			
0.8276	52964.99	3.5440	3.5436	1.6488	25.72	-0.23	0.750			
0.8325	53281.99	3.5410	3.5410	1.6985	25.72	-0.23	0.750			
0.8376	53606.30	3.5380	3.5382	1.7339	25.73	-0.22	0.750			
0.8429	53943.94	3.5350	3.5352	1.7623	25.74	-0.21	0.750			
0.8484	54297.35	3.5320	3.5321	1.7338	25.75	-0.20	0.750			
0.8541	54660.05	3.5290	3.5285	1.6228	25.76	-0.19	0.750			
0.8591	54983.71	3.5260	3.5258	1.4387	25.77	-0.18	0.750			
0.8631	55240.39	3.5230	3.5235	1.1665	25.79	-0.16	0.750			
0.8664	55447.89	3.5200	3.5202	0.9038	25.81	-0.14	0.750			
0.8682	55565.75	3.5170	3.5166	0.6633	25.82	-0.13	0.750			
0.8695	55649.16	3.5140	3.5137	0.4867	25.83	-0.12	0.750			
0.8706	55719.59	3.5110	3.5108	0.4067	25.83	-0.12	0.750			
0.8717	55786.71	3.5080	3.5080	0.3605	25.84	-0.11	0.750			
0.8727	55850.36	3.5050	3.5049	0.3341	25.85	-0.10	0.750			
0.8736	55911.34	3.5020	3.5020	0.3137	25.85	-0.10	0.750			
0.8745	55968.41	3.4990	3.4991	0.3037	25.86	-0.09	0.750			
0.8754	56024.28	3.4960	3.4960	0.2945	25.86	-0.09	0.750			
0.8762	56079.43	3.4930	3.4928	0.2860	25.87	-0.08	0.750			
0.8771	56134.24	3.4900	3.4900	0.2802	25.87	-0.08	0.750			
0.8779	56187.89	3.4870	3.4871	0.2747	25.88	-0.07	0.750			
0.8788	56240.69	3.4840	3.4842	0.2681	25.88	-0.07	0.750			
0.8796	56291.50	3.4810	3.4807	0.2627	25.89	-0.06	0.750			
0.8803	56340.08	3.4780	3.4781	0.2536	25.89	-0.06	0.750			
0.8811	56387.47	3.4750	3.4749	0.2463	25.90	-0.05	0.750			
0.8818	56434.80	3.4720	3.4719	0.2428	25.90	-0.05	0.750			
0.8825	56480.54	3.4690	3.4691	0.2381	25.91	-0.04	0.750			
0.8832	56525.84	3.4660	3.4661	0.2338	25.91	-0.04	0.750			
0.8839	56570.18	3.4630	3.4629	0.2288	25.92	-0.03	0.750			
0.8846	56613.87	3.4600	3.4599	0.2247	25.92	-0.03	0.750			
0.8853	56656.21	3.4570	3.4571	0.2194	25.93	-0.02	0.750			
0.8859	56697.98	3.4540	3.4541	0.2156	25.93	-0.02	0.750			
0.8866	56739.73	3.4510	3.4509	0.2102	25.93	-0.02	0.750			
0.8872	56779.40	3.4480	3.4481	0.2050	25.94	-0.01	0.750			
0.8878	56817.99	3.4450	3.4451	0.1994	25.94	-0.01	0.750			
0.8884	56855.80	3.4420	3.4420	0.1945	25.95	-0.00	0.750			
0.8890	56892.81	3.4390	3.4388	0.1893	25.95	-0.00	0.750			
0.8895	56928.10	3.4360	3.4362	0.1852	25.95	0.00	0.750			
0.8901	56963.28	3.4330	3.4329	0.1804	25.96	0.01	0.750			
0.8906	56997.56	3.4300	3.4301	0.1766	25.96	0.01	0.750			
0.8911	57031.68	3.4270	3.4269	0.1714	25.96	0.01	0.750			
0.8916	57064.20	3.4240	3.4241	0.1656	25.97	0.02	0.750			
0.8921	57095.60	3.4210	3.4211	0.1604	25.97	0.02	0.750			
0.8926	57125.79	3.4180	3.4181	0.1541	25.97	0.02	0.750			
0.8930	57154.80	3.4150	3.4149	0.1486	25.98	0.03	0.750			
0.8935	57182.38	3.4120	3.4120	0.1415	25.98	0.03	0.750			
0.8939	57209.13	3.4090	3.4090	0.1363	25.98	0.03	0.750			
0.8943	57234.85	3.4060	3.4059	0.1301	25.98	0.03	0.750			
0.8947	57259.55	3.4030	3.4031	0.1243	25.99	0.04	0.750			
0.8950	57283.10	3.4000	3.4001	0.1173	25.99	0.04	0.750			
0.8954	57305.00	3.3970	3.3969	0.1100	25.99	0.04	0.750			
0.8957	57326.23	3.3940	3.3941	0.1007	25.99	0.04	0.750			
0.8960	57344.96	3.3910	3.3909	0.0922	25.99	0.04	0.750			
0.8963	57361.74	3.3880	3.3882	0.0825	26.00	0.05	0.750			
0.8965	57377.41	3.3850	3.3851	0.0735	26.00	0.05	0.750			
0.8967	57390.50	3.3820	3.3823	0.0629	26.00	0.05	0.750			
0.8969	57401.89	3.3790	3.3797	0.0519	26.00	0.05	0.750			
0.8970	57410.79	3.3760	3.3766	0.0408	26.00	0.05	0.750			
0.8971	57417.55	3.3730	3.3741	0.0296	26.00	0.05	0.750			
