Ah_balance (normalized)	Ah_balance (mAh)	Voltage - fit (V)	Voltage -  interpolate (V)	dQ/dV (1/V)	Temperature (°C)	Temperature - diff (°C)	Current (C)	R_DC 0ms (mOhm)	R_DC 50ms (mOhm)	R_DC 50 ms PEC (mOhm)
0.0553	3536.30	4.1980	4.1980	0.7151	26.76	0.83	0.750			
0.0575	3677.17	4.1950	4.1950	0.7412	26.76	0.83	0.750			
0.0597	3823.39	4.1920	4.1919	0.7510	26.76	0.83	0.750			
0.0620	3967.58	4.1890	4.1891	0.7549	26.76	0.83	0.750			
0.0643	4113.31	4.1860	4.1861	0.7568	26.76	0.83	0.750			
0.0665	4259.06	4.1830	4.1829	0.7597	26.76	0.83	0.750			
0.0688	4405.36	4.1800	4.1800	0.7556	26.76	0.83	0.750			
0.0711	4549.25	4.1770	4.1769	0.7545	26.76	0.83	0.750			
0.0733	4694.25	4.1740	4.1741	0.7579	26.76	0.83	0.750			
0.0756	4841.04	4.1710	4.1709	0.7569	26.76	0.83	0.750			
0.0779	4984.42	4.1680	4.1680	0.7602	26.75	0.82	0.750			
0.0802	5129.64	4.1650	4.1651	0.7666	26.75	0.82	0.750			
0.0825	5278.25	4.1620	4.1620	0.7692	26.75	0.82	0.750			
0.0848	5428.31	4.1590	4.1590	0.7723	26.75	0.82	0.750			
0.0871	5577.42	4.1560	4.1560	0.7680	26.75	0.82	0.750			
0.0894	5723.99	4.1530	4.1531	0.7681	26.75	0.82	0.750			
0.0918	5872.40	4.1500	4.1500	0.7667	26.74	0.81	0.750			
0.0940	6016.83	4.1470	4.1470	0.7627	26.74	0.81	0.750			
0.0963	6162.28	4.1440	4.1439	0.7610	26.74	0.81	0.750			
0.0986	6310.04	4.1410	4.1411	0.7677	26.74	0.81	0.750			
0.1009	6459.27	4.1380	4.1380	0.7665	26.74	0.81	0.750			
0.1032	6605.27	4.1350	4.1350	0.7705	26.74	0.81	0.750			
0.1055	6753.49	4.1320	4.1321	0.7696	26.74	0.81	0.750			
0.1078	6900.81	4.1290	4.1288	0.7713	26.74	0.81	0.750			
0.1101	7048.72	4.1260	4.1261	0.7708	26.74	0.81	0.750			
0.1125	7198.07	4.1230	4.1230	0.7707	26.74	0.81	0.750			
0.1148	7344.71	4.1200	4.1201	0.7728	26.74	0.81	0.750			
0.1171	7494.32	4.1170	4.1170	0.7787	26.73	0.80	0.750			
0.1194	7641.91	4.1140	4.1141	0.7793	26.73	0.80	0.750			
0.1218	7792.84	4.1110	4.1110	0.7853	26.73	0.80	0.750			
0.1241	7944.41	4.1080	4.1080	0.7843	26.73	0.80	0.750			
0.1265	8096.02	4.1050	4.1050	0.7858	26.73	0.80	0.750			
0.1289	8246.63	4.1020	4.1020	0.7863	26.74	0.81	0.750			
0.1312	8396.88	4.0990	4.0990	0.7832	26.74	0.81	0.750			
0.1335	8547.00	4.0960	4.0958	0.7881	26.74	0.81	0.750			
0.1359	8698.14	4.0930	4.0931	0.7902	26.74	0.81	0.750			
0.1383	8850.97	4.0900	4.0900	0.7907	26.74	0.81	0.750			
0.1407	9004.46	4.0870	4.0870	0.7969	26.73	0.80	0.750			
0.1430	9155.19	4.0840	4.0841	0.7947	26.73	0.80	0.750			
0.1455	9308.84	4.0810	4.0809	0.8027	26.73	0.80	0.750			
0.1479	9464.01	4.0780	4.0780	0.8043	26.73	0.80	0.750			
0.1503	9619.31	4.0750	4.0750	0.8003	26.73	0.80	0.750			
0.1527	9774.19	4.0720	4.0720	0.8061	26.73	0.80	0.750			
0.1551	9927.83	4.0690	4.0690	0.8092	26.73	0.80	0.750			
0.1575	10081.76	4.0660	4.0660	0.8068	26.73	0.80	0.750			
0.1600	10236.82	4.0630	4.0631	0.8099	26.73	0.80	0.750			
0.1624	10394.61	4.0600	4.0599	0.8056	26.73	0.80	0.750			
0.1648	10549.55	4.0570	4.0572	0.8111	26.72	0.79	0.750			
0.1673	10704.59	4.0540	4.0540	0.8184	26.72	0.79	0.750			
0.1697	10860.21	4.0510	4.0510	0.8199	26.72	0.79	0.750			
0.1722	11017.99	4.0480	4.0481	0.8262	26.72	0.79	0.750			
0.1747	11178.63	4.0450	4.0450	0.8306	26.72	0.79	0.750			
0.1772	11339.18	4.0420	4.0420	0.8323	26.72	0.79	0.750			
0.1797	11500.69	4.0390	4.0391	0.8310	26.72	0.79	0.750			
0.1822	11659.09	4.0360	4.0361	0.8288	26.72	0.79	0.750			
0.1846	11816.82	4.0330	4.0330	0.8280	26.72	0.79	0.750			
0.1871	11976.05	4.0300	4.0300	0.8262	26.72	0.79	0.750			
0.1896	12134.13	4.0270	4.0269	0.8317	26.72	0.79	0.750			
0.1921	12294.63	4.0240	4.0240	0.8432	26.73	0.80	0.750			
0.1946	12456.57	4.0210	4.0210	0.8449	26.73	0.80	0.750			
0.1972	12620.19	4.0180	4.0181	0.8505	26.73	0.80	0.750			
0.1997	12783.65	4.0150	4.0150	0.8552	26.73	0.80	0.750			
0.2023	12948.50	4.0120	4.0121	0.8517	26.73	0.80	0.750			
0.2049	13112.18	4.0090	4.0090	0.8527	26.73	0.80	0.750			
0.2074	13274.62	4.0060	4.0061	0.8519	26.73	0.80	0.750			
0.2100	13437.38	4.0030	4.0032	0.8510	26.73	0.80	0.750			
0.2125	13601.69	4.0000	4.0000	0.8578	26.73	0.80	0.750			
0.2151	13767.09	3.9970	3.9970	0.8592	26.73	0.80	0.750			
0.2177	13934.85	3.9940	3.9939	0.8683	26.73	0.80	0.750			
0.2203	14097.86	3.9910	3.9910	0.8592	26.73	0.80	0.750			
0.2229	14263.13	3.9880	3.9880	0.8632	26.73	0.80	0.750			
0.2255	14429.21	3.9850	3.9850	0.8633	26.73	0.80	0.750			
0.2280	14594.77	3.9820	3.9820	0.8662	26.74	0.81	0.750			
0.2306	14760.25	3.9790	3.9790	0.8668	26.74	0.81	0.750			
0.2332	14927.54	3.9760	3.9759	0.8733	26.74	0.81	0.750			
0.2359	15095.68	3.9730	3.9730	0.8755	26.74	0.81	0.750			
0.2385	15264.20	3.9700	3.9699	0.8783	26.73	0.80	0.750			
0.2412	15433.99	3.9670	3.9671	0.8804	26.73	0.80	0.750			
0.2438	15604.32	3.9640	3.9640	0.8822	26.72	0.79	0.750			
0.2465	15773.00	3.9610	3.9611	0.8797	26.72	0.79	0.750			
0.2491	15942.46	3.9580	3.9580	0.8783	26.72	0.79	0.750			
0.2517	16108.85	3.9550	3.9550	0.8768	26.72	0.79	0.750			
0.2543	16276.56	3.9520	3.9520	0.8813	26.71	0.78	0.750			
0.2570	16445.85	3.9490	3.9491	0.8835	26.71	0.78	0.750			
0.2596	16615.93	3.9460	3.9460	0.8855	26.71	0.78	0.750			
0.2623	16787.62	3.9430	3.9430	0.8871	26.71	0.78	0.750			
0.2650	16958.65	3.9400	3.9401	0.8883	26.70	0.77	0.750			
0.2677	17130.02	3.9370	3.9369	0.8860	26.70	0.77	0.750			
0.2703	17299.10	3.9340	3.9339	0.8827	26.70	0.77	0.750			
0.2729	17467.36	3.9310	3.9311	0.8811	26.70	0.77	0.750			
0.2756	17636.29	3.9280	3.9280	0.8832	26.69	0.76	0.750			
0.2782	17805.51	3.9250	3.9250	0.8852	26.69	0.76	0.750			
0.2808	17974.30	3.9220	3.9220	0.8899	26.68	0.75	0.750			
0.2835	18145.13	3.9190	3.9190	0.8952	26.68	0.75	0.750			
0.2862	18318.55	3.9160	3.9160	0.8990	26.68	0.75	0.750			
0.2889	18490.86	3.9130	3.9130	0.9059	26.67	0.74	0.750			
0.2917	18665.95	3.9100	3.9100	0.9114	26.67	0.74	0.750			
0.2944	18840.95	3.9070	3.9071	0.9172	26.66	0.73	0.750			
0.2972	19018.87	3.9040	3.9040	0.9209	26.66	0.73	0.750			
0.3000	19196.85	3.9010	3.9010	0.9147	26.65	0.72	0.750			
0.3027	19371.41	3.8980	3.8980	0.9178	26.65	0.72	0.750			
0.3054	19546.73	3.8950	3.8952	0.9200	26.65	0.72	0.750			
0.3081	19721.30	3.8920	3.8917	0.9232	26.64	0.71	0.750			
0.3109	19900.16	3.8890	3.8890	0.9244	26.63	0.70	0.750			
0.3137	20077.39	3.8860	3.8860	0.9309	26.62	0.69	0.750			
0.3165	20258.50	3.8830	3.8831	0.9445	26.61	0.68	0.750			
0.3194	20440.02	3.8800	3.8801	0.9438	26.61	0.68	0.750			
0.3222	20621.96	3.8770	3.8770	0.9509	26.60	0.67	0.750			
0.3251	20805.52	3.8740	3.8741	0.9497	26.59	0.66	0.750			
0.3279	20988.09	3.8710	3.8711	0.9544	26.58	0.65	0.750			
0.3308	21172.50	3.8680	3.8680	0.9557	26.57	0.64	0.750			
0.3337	21355.98	3.8650	3.8648	0.9554	26.56	0.63	0.750			
0.3365	21538.82	3.8620	3.8621	0.9508	26.55	0.62	0.750			
0.3394	21721.83	3.8590	3.8590	0.9557	26.55	0.62	0.750			
0.3423	21906.38	3.8560	3.8560	0.9563	26.54	0.61	0.750			
0.3451	22089.36	3.8530	3.8529	0.9540	26.53	0.60	0.750			
0.3480	22275.11	3.8500	3.8501	0.9449	26.53	0.60	0.750			
0.3509	22455.60	3.8470	3.8470	0.9521	26.52	0.59	0.750			
0.3537	22636.85	3.8440	3.8441	0.9565	26.51	0.58	0.750			
0.3566	22820.21	3.8410	3.8411	0.9622	26.50	0.57	0.750			
0.3595	23005.10	3.8380	3.8381	0.9670	26.50	0.57	0.750			
0.3624	23191.86	3.8350	3.8351	0.9746	26.49	0.56	0.750			
0.3653	23380.32	3.8320	3.8320	0.9831	26.48	0.55	0.750			
0.3683	23570.73	3.8290	3.8290	0.9910	26.47	0.54	0.750			
0.3713	23760.59	3.8260	3.8259	0.9878	26.46	0.53	0.750			
0.3742	23951.11	3.8230	3.8230	0.9927	26.45	0.52	0.750			
0.3772	24140.93	3.8200	3.8201	1.0007	26.44	0.51	0.750			
0.3802	24333.83	3.8170	3.8170	1.0078	26.43	0.50	0.750			
0.3832	24527.20	3.8140	3.8137	1.0190	26.42	0.49	0.750			
0.3863	24724.12	3.8110	3.8110	1.0224	26.41	0.48	0.750			
0.3894	24920.44	3.8080	3.8081	1.0364	26.40	0.47	0.750			
0.3925	25121.15	3.8050	3.8050	1.0535	26.38	0.45	0.750			
0.3957	25325.00	3.8020	3.8018	1.0643	26.37	0.44	0.750			
0.3989	25528.47	3.7990	3.7991	1.0742	26.36	0.43	0.750			
0.4021	25737.45	3.7960	3.7960	1.0901	26.36	0.43	0.750			
0.4054	25947.60	3.7930	3.7931	1.1069	26.35	0.42	0.750			
0.4088	26164.64	3.7900	3.7899	1.1080	26.34	0.41	0.750			
0.4121	26376.35	3.7870	3.7870	1.1229	26.33	0.40	0.750			
0.4155	26591.30	3.7840	3.7841	1.1401	26.31	0.38	0.750			
0.4189	26812.47	3.7810	3.7811	1.1590	26.30	0.37	0.750			
0.4224	27036.30	3.7780	3.7780	1.1729	26.29	0.36	0.750			
0.4259	27260.55	3.7750	3.7751	1.2117	26.28	0.35	0.750			
0.4296	27493.34	3.7720	3.7721	1.2460	26.27	0.34	0.750			
0.4334	27738.97	3.7690	3.7685	1.2797	26.26	0.33	0.750	0.325	0.442	
0.4373	27988.32	3.7660	3.7661	1.3053	26.25	0.32	0.750			
0.4413	28243.71	3.7630	3.7631	1.3378	26.24	0.31	0.750			
0.4455	28510.31	3.7600	3.7599	1.3543	26.23	0.30	0.750			
0.4495	28765.18	3.7570	3.7571	1.3641	26.22	0.29	0.750			
0.4536	29028.89	3.7540	3.7540	1.3904	26.21	0.28	0.750			
0.4577	29295.55	3.7510	3.7508	1.4128	26.19	0.26	0.750			
0.4620	29569.33	3.7480	3.7480	1.4373	26.18	0.25	0.750			
0.4663	29846.02	3.7450	3.7451	1.4870	26.16	0.23	0.750			
0.4709	30135.59	3.7420	3.7419	1.5284	26.15	0.22	0.750			
0.4755	30433.01	3.7390	3.7390	1.5577	26.14	0.21	0.750			
0.4802	30734.62	3.7360	3.7363	1.6119	26.12	0.19	0.750			
0.4852	31049.96	3.7330	3.7329	1.6610	26.10	0.17	0.750			
0.4902	31375.79	3.7300	3.7296	1.7006	26.09	0.16	0.750			
0.4954	31705.57	3.7270	3.7268	1.7464	26.07	0.14	0.750			
0.5008	32048.15	3.7240	3.7241	1.8006	26.05	0.12	0.750			
0.5062	32397.17	3.7210	3.7210	1.8500	26.04	0.11	0.750			
0.5117	32751.37	3.7180	3.7181	1.9049	26.02	0.09	0.750			
0.5177	33130.16	3.7150	3.7152	1.9569	26.01	0.08	0.750			
0.5237	33514.07	3.7120	3.7120	2.0200	25.99	0.06	0.750			
0.5298	33910.15	3.7090	3.7090	2.0795	25.98	0.05	0.750			
0.5361	34310.13	3.7060	3.7062	2.1298	25.96	0.03	0.750			
0.5426	34724.33	3.7030	3.7033	2.2014	25.94	0.01	0.750			
0.5492	35145.67	3.7000	3.7000	2.2594	25.92	-0.01	0.750			
0.5560	35582.62	3.6970	3.6970	2.3221	25.91	-0.02	0.750			
0.5630	36034.41	3.6940	3.6941	2.3951	25.90	-0.03	0.750			
0.5705	36512.13	3.6910	3.6910	2.4655	25.87	-0.06	0.750			
0.5780	36990.81	3.6880	3.6879	2.5439	25.86	-0.07	0.750			
0.5856	37475.99	3.6850	3.6852	2.6478	25.85	-0.08	0.750			
0.5937	37999.95	3.6820	3.6819	2.7841	25.83	-0.10	0.750			
0.6023	38549.01	3.6790	3.6789	2.8955	25.81	-0.12	0.750			
0.6114	39126.72	3.6760	3.6757	2.9491	25.81	-0.12	0.750			
0.6204	39705.07	3.6730	3.6730	2.8769	25.80	-0.13	0.750			
0.6289	40249.38	3.6700	3.6700	2.6725	25.79	-0.14	0.750			
0.6368	40752.88	3.6670	3.6671	2.4247	25.79	-0.14	0.750			
0.6435	41186.89	3.6640	3.6641	2.1858	25.79	-0.14	0.750			
0.6496	41574.06	3.6610	3.6612	1.9703	25.79	-0.14	0.750			
0.6549	41913.39	3.6580	3.6581	1.7736	25.79	-0.14	0.750			
0.6598	42229.99	3.6550	3.6546	1.6480	25.79	-0.14	0.750			
0.6646	42531.81	3.6520	3.6519	1.5454	25.79	-0.14	0.750			
0.6691	42823.10	3.6490	3.6492	1.4537	25.79	-0.14	0.750			
0.6733	43092.71	3.6460	3.6461	1.3683	25.79	-0.14	0.750			
0.6773	43344.62	3.6430	3.6431	1.2795	25.79	-0.14	0.750			
0.6809	43577.15	3.6400	3.6400	1.2402	25.79	-0.14	0.750			
0.6844	43803.85	3.6370	3.6370	1.1911	25.79	-0.14	0.750			
0.6879	44026.27	3.6340	3.6340	1.1894	25.79	-0.14	0.750			
0.6914	44251.82	3.6310	3.6310	1.1888	25.79	-0.14	0.750			
0.6950	44482.04	3.6280	3.6279	1.1948	25.79	-0.14	0.750			
0.6986	44712.07	3.6250	3.6251	1.1982	25.79	-0.14	0.750			
0.7022	44943.61	3.6220	3.6220	1.2046	25.80	-0.13	0.750			
0.7059	45177.81	3.6190	3.6190	1.1947	25.81	-0.12	0.750			
0.7095	45410.38	3.6160	3.6160	1.1695	25.81	-0.12	0.750			
0.7130	45634.47	3.6130	3.6131	1.1516	25.80	-0.13	0.750			
0.7164	45852.70	3.6100	3.6102	1.1416	25.80	-0.13	0.750			
0.7198	46067.62	3.6070	3.6069	1.1304	25.79	-0.14	0.750			
0.7231	46279.65	3.6040	3.6040	1.1268	25.79	-0.14	0.750			
0.7264	46490.63	3.6010	3.6011	1.1339	25.80	-0.13	0.750			
0.7298	46709.36	3.5980	3.5981	1.1641	25.80	-0.13	0.750			
0.7334	46938.37	3.5950	3.5948	1.1907	25.81	-0.12	0.750			
0.7370	47165.65	3.5920	3.5920	1.2201	25.80	-0.13	0.750			
0.7406	47399.50	3.5890	3.5890	1.2633	25.80	-0.13	0.750			
0.7445	47647.66	3.5860	3.5860	1.2994	25.79	-0.14	0.750			
0.7484	47900.27	3.5830	3.5830	1.3564	25.79	-0.14	0.750			
0.7526	48163.29	3.5800	3.5799	1.3976	25.78	-0.15	0.750			
0.7568	48436.56	3.5770	3.5772	1.4413	25.78	-0.15	0.750			
0.7613	48720.63	3.5740	3.5741	1.4869	25.78	-0.15	0.750			
0.7657	49007.98	3.5710	3.5708	1.5386	25.77	-0.16	0.750			
0.7705	49310.49	3.5680	3.5678	1.5772	25.77	-0.16	0.750			
0.7753	49617.76	3.5650	3.5651	1.6284	25.77	-0.16	0.750			
0.7803	49938.68	3.5620	3.5622	1.6401	25.77	-0.16	0.750			
0.7853	50259.91	3.5590	3.5589	1.6584	25.77	-0.16	0.750			
0.7904	50583.62	3.5560	3.5562	1.6817	25.77	-0.16	0.750			
0.7954	50905.53	3.5530	3.5528	1.6863	25.77	-0.16	0.750			
0.8005	51231.11	3.5500	3.5501	1.6899	25.77	-0.16	0.750			
0.8055	51552.37	3.5470	3.5473	1.7161	25.77	-0.16	0.750			
0.8106	51878.61	3.5440	3.5441	1.7461	25.77	-0.16	0.750			
0.8159	52219.10	3.5410	3.5410	1.7616	25.77	-0.16	0.750			
0.8216	52580.00	3.5380	3.5377	1.7139	25.77	-0.16	0.750			
0.8269	52924.76	3.5350	3.5348	1.6096	25.78	-0.15	0.750			
0.8320	53245.63	3.5320	3.5323	1.4027	25.80	-0.13	0.750			
0.8362	53514.43	3.5290	3.5293	1.1631	25.81	-0.12	0.750			
0.8389	53689.92	3.5260	3.5263	0.8881	25.83	-0.10	0.750			
0.8408	53808.64	3.5230	3.5229	0.6309	25.83	-0.10	0.750			
0.8421	53891.57	3.5200	3.5198	0.4797	25.84	-0.09	0.750			
0.8432	53967.37	3.5170	3.5168	0.4031	25.85	-0.08	0.750			
0.8442	54030.31	3.5140	3.5140	0.3556	25.85	-0.08	0.750			
0.8452	54094.62	3.5110	3.5110	0.3334	25.86	-0.07	0.750			
0.8462	54154.70	3.5080	3.5081	0.3165	25.86	-0.07	0.750			
0.8471	54213.46	3.5050	3.5050	0.3061	25.87	-0.06	0.750			
0.8480	54271.42	3.5020	3.5020	0.2966	25.87	-0.06	0.750			
0.8489	54328.17	3.4990	3.4990	0.2889	25.88	-0.05	0.750			
0.8497	54382.62	3.4960	3.4960	0.2798	25.88	-0.05	0.750			
0.8505	54435.17	3.4930	3.4932	0.2735	25.89	-0.04	0.750			
0.8514	54486.44	3.4900	3.4900	0.2666	25.89	-0.04	0.750			
0.8521	54537.22	3.4870	3.4869	0.2599	25.89	-0.04	0.750			
0.8529	54586.26	3.4840	3.4839	0.2537	25.90	-0.03	0.750			
0.8537	54634.38	3.4810	3.4811	0.2483	25.90	-0.03	0.750			
0.8544	54682.25	3.4780	3.4781	0.2439	25.91	-0.02	0.750			
0.8551	54728.11	3.4750	3.4749	0.2385	25.91	-0.02	0.750			
0.8558	54773.42	3.4720	3.4720	0.2332	25.92	-0.01	0.750			
0.8565	54816.89	3.4690	3.4690	0.2281	25.92	-0.01	0.750			
0.8572	54860.27	3.4660	3.4660	0.2244	25.92	-0.01	0.750			
0.8579	54903.42	3.4630	3.4630	0.2211	25.93	-0.00	0.750			
0.8585	54945.28	3.4600	3.4599	0.2164	25.93	0.00	0.750			
0.8592	54986.73	3.4570	3.4570	0.2120	25.93	0.00	0.750			
0.8598	55026.99	3.4540	3.4540	0.2073	25.94	0.01	0.750			
0.8604	55066.45	3.4510	3.4510	0.2023	25.94	0.01	0.750			
0.8610	55105.15	3.4480	3.4479	0.1977	25.94	0.01	0.750			
0.8616	55142.32	3.4450	3.4451	0.1915	25.95	0.02	0.750			
0.8622	55178.63	3.4420	3.4419	0.1855	25.95	0.02	0.750			
0.8627	55213.59	3.4390	3.4390	0.1806	25.95	0.02	0.750			
0.8632	55247.77	3.4360	3.4361	0.1749	25.96	0.03	0.750			
0.8638	55280.93	3.4330	3.4329	0.1697	25.96	0.03	0.750			
0.8643	55312.89	3.4300	3.4300	0.1647	25.96	0.03	0.750			
0.8647	55343.97	3.4270	3.4271	0.1591	25.97	0.04	0.750			
0.8652	55374.08	3.4240	3.4240	0.1538	25.97	0.04	0.750			
0.8657	55403.09	3.4210	3.4209	0.1484	25.97	0.04	0.750			
0.8661	55431.27	3.4180	3.4180	0.1428	25.97	0.04	0.750			
0.8665	55457.96	3.4150	3.4150	0.1367	25.97	0.04	0.750			
0.8669	55484.07	3.4120	3.4121	0.1309	25.98	0.05	0.750			
0.8673	55508.57	3.4090	3.4090	0.1243	25.98	0.05	0.750			
0.8677	55531.84	3.4060	3.4060	0.1173	25.98	0.05	0.750			
0.8680	55553.93	3.4030	3.4030	0.1107	25.98	0.05	0.750			
0.8684	55575.62	3.4000	3.3999	0.1001	25.99	0.06	0.750			
0.8687	55594.42	3.3970	3.3968	0.0918	25.99	0.06	0.750			
0.8689	55611.07	3.3940	3.3942	0.0815	25.99	0.06	0.750			
0.8692	55626.69	3.3910	3.3912	0.0720	25.99	0.06	0.750			
0.8694	55639.42	3.3880	3.3885	0.0606	25.99	0.06	0.750			
0.8695	55651.12	3.3850	3.3858	0.0479	25.99	0.06	0.750			
0.8697	55659.04	3.3820	3.3831	0.0346	25.99	0.06	0.750			
0.8698	55664.41	3.3790	3.3808	0.0213	25.99	0.06	0.750			
