Ah_balance (normalized)	Ah_balance (mAh)	Voltage - fit (V)	Voltage -  interpolate (V)	dQ/dV (1/V)	Temperature (°C)	Temperature - diff (°C)	Current (C)	R_DC 0ms (mOhm)	R_DC 50ms (mOhm)	R_DC 50 ms PEC (mOhm)
0.0005	32.04	4.1610	4.1607	-0.1448	25.88	0.00	-0.750			
0.0010	63.93	4.1580	4.1580	-0.1867	25.88	0.00	-0.750			
0.0016	104.01	4.1550	4.1550	-0.2275	25.88	0.00	-0.750			
0.0024	152.06	4.1520	4.1519	-0.2653	25.88	-0.00	-0.750			
0.0032	206.72	4.1490	4.1491	-0.3017	25.88	-0.00	-0.750			
0.0042	268.96	4.1460	4.1460	-0.3383	25.87	-0.01	-0.750			
0.0053	337.47	4.1430	4.1430	-0.3720	25.87	-0.01	-0.750			
0.0064	412.33	4.1400	4.1399	-0.4042	25.87	-0.01	-0.750			
0.0077	493.31	4.1370	4.1371	-0.4356	25.87	-0.01	-0.750			
0.0091	580.74	4.1340	4.1339	-0.4668	25.86	-0.02	-0.750			
0.0105	674.65	4.1310	4.1310	-0.4951	25.86	-0.02	-0.750			
0.0121	773.18	4.1280	4.1280	-0.5169	25.86	-0.02	-0.750			
0.0137	876.06	4.1250	4.1249	-0.5372	25.85	-0.03	-0.750			
0.0153	981.39	4.1220	4.1220	-0.5538	25.85	-0.03	-0.750			
0.0170	1089.10	4.1190	4.1190	-0.5702	25.84	-0.04	-0.750			
0.0187	1199.63	4.1160	4.1160	-0.5838	25.84	-0.04	-0.750			
0.0205	1312.95	4.1130	4.1130	-0.5974	25.83	-0.05	-0.750			
0.0224	1431.18	4.1100	4.1100	-0.6111	25.82	-0.06	-0.750			
0.0242	1550.08	4.1070	4.1070	-0.6204	25.82	-0.06	-0.750			
0.0261	1670.74	4.1040	4.1040	-0.6318	25.81	-0.07	-0.750			
0.0280	1792.56	4.1010	4.1010	-0.6382	25.81	-0.07	-0.750			
0.0299	1915.28	4.0980	4.0979	-0.6432	25.81	-0.07	-0.750			
0.0319	2040.07	4.0950	4.0950	-0.6483	25.81	-0.07	-0.750			
0.0338	2164.98	4.0920	4.0921	-0.6544	25.80	-0.08	-0.750			
0.0358	2292.39	4.0890	4.0890	-0.6646	25.80	-0.08	-0.750			
0.0378	2420.64	4.0860	4.0859	-0.6675	25.80	-0.08	-0.750			
0.0398	2548.76	4.0830	4.0830	-0.6719	25.80	-0.08	-0.750			
0.0418	2678.23	4.0800	4.0801	-0.6774	25.80	-0.08	-0.750			
0.0439	2808.27	4.0770	4.0770	-0.6822	25.80	-0.08	-0.750			
0.0459	2939.98	4.0740	4.0740	-0.6866	25.79	-0.09	-0.750			
0.0480	3073.11	4.0710	4.0710	-0.6877	25.79	-0.09	-0.750			
0.0501	3204.01	4.0680	4.0678	-0.6894	25.79	-0.09	-0.750			
0.0522	3337.98	4.0650	4.0653	-0.6950	25.79	-0.09	-0.750			
0.0542	3470.86	4.0620	4.0620	-0.6997	25.79	-0.09	-0.750			
0.0563	3604.54	4.0590	4.0590	-0.7055	25.79	-0.09	-0.750			
0.0585	3741.54	4.0560	4.0560	-0.7101	25.79	-0.09	-0.750			
0.0606	3878.79	4.0530	4.0530	-0.7132	25.79	-0.09	-0.750			
0.0628	4016.54	4.0500	4.0499	-0.7172	25.79	-0.09	-0.750			
0.0649	4154.92	4.0470	4.0472	-0.7161	25.79	-0.09	-0.750			
0.0671	4292.15	4.0440	4.0440	-0.7160	25.79	-0.09	-0.750			
0.0692	4427.62	4.0410	4.0410	-0.7202	25.79	-0.09	-0.750			
0.0714	4567.36	4.0380	4.0380	-0.7210	25.79	-0.09	-0.750			
0.0735	4706.15	4.0350	4.0348	-0.7219	25.79	-0.09	-0.750			
0.0757	4845.68	4.0320	4.0320	-0.7230	25.79	-0.09	-0.750			
0.0779	4983.91	4.0290	4.0291	-0.7211	25.79	-0.09	-0.750			
0.0800	5122.94	4.0260	4.0259	-0.7249	25.79	-0.09	-0.750			
0.0822	5261.10	4.0230	4.0229	-0.7323	25.79	-0.09	-0.750			
0.0844	5400.70	4.0200	4.0200	-0.7305	25.79	-0.09	-0.750			
0.0866	5544.08	4.0170	4.0169	-0.7351	25.79	-0.09	-0.750			
0.0889	5686.78	4.0140	4.0142	-0.7372	25.79	-0.09	-0.750			
0.0911	5828.45	4.0110	4.0109	-0.7351	25.79	-0.09	-0.750			
0.0933	5968.03	4.0080	4.0079	-0.7361	25.79	-0.09	-0.750			
0.0954	6108.09	4.0050	4.0050	-0.7402	25.79	-0.09	-0.750			
0.0976	6248.90	4.0020	4.0020	-0.7381	25.79	-0.09	-0.750			
0.0999	6395.42	3.9990	3.9989	-0.7489	25.79	-0.09	-0.750			
0.1022	6539.51	3.9960	3.9961	-0.7454	25.79	-0.09	-0.750			
0.1044	6682.97	3.9930	3.9930	-0.7454	25.79	-0.09	-0.750			
0.1066	6824.99	3.9900	3.9900	-0.7518	25.80	-0.08	-0.750			
0.1089	6967.43	3.9870	3.9870	-0.7511	25.80	-0.08	-0.750			
0.1112	7114.22	3.9840	3.9839	-0.7561	25.80	-0.08	-0.750			
0.1134	7259.39	3.9810	3.9811	-0.7598	25.81	-0.07	-0.750			
0.1157	7406.64	3.9780	3.9780	-0.7604	25.81	-0.07	-0.750			
0.1180	7552.70	3.9750	3.9750	-0.7649	25.81	-0.07	-0.750			
0.1203	7698.45	3.9720	3.9719	-0.7624	25.81	-0.07	-0.750			
0.1226	7843.80	3.9690	3.9690	-0.7621	25.81	-0.07	-0.750			
0.1249	7992.09	3.9660	3.9660	-0.7669	25.81	-0.07	-0.750			
0.1272	8139.39	3.9630	3.9632	-0.7696	25.81	-0.07	-0.750			
0.1295	8287.01	3.9600	3.9600	-0.7705	25.81	-0.07	-0.750			
0.1318	8436.21	3.9570	3.9570	-0.7748	25.81	-0.07	-0.750			
0.1341	8584.82	3.9540	3.9540	-0.7732	25.82	-0.06	-0.750			
0.1365	8733.50	3.9510	3.9510	-0.7770	25.82	-0.06	-0.750			
0.1388	8882.42	3.9480	3.9480	-0.7794	25.82	-0.06	-0.750			
0.1411	9032.13	3.9450	3.9449	-0.7835	25.82	-0.06	-0.750			
0.1435	9182.24	3.9420	3.9420	-0.7877	25.82	-0.06	-0.750			
0.1459	9334.78	3.9390	3.9390	-0.7868	25.82	-0.06	-0.750			
0.1482	9486.31	3.9360	3.9361	-0.7871	25.82	-0.06	-0.750			
0.1506	9639.11	3.9330	3.9330	-0.7905	25.82	-0.06	-0.750			
0.1530	9789.62	3.9300	3.9300	-0.7904	25.82	-0.06	-0.750			
0.1553	9938.69	3.9270	3.9270	-0.7983	25.82	-0.06	-0.750			
0.1577	10094.46	3.9240	3.9240	-0.7986	25.82	-0.06	-0.750			
0.1601	10248.95	3.9210	3.9209	-0.8030	25.83	-0.05	-0.750			
0.1626	10405.19	3.9180	3.9180	-0.8032	25.83	-0.05	-0.750			
0.1650	10559.54	3.9150	3.9151	-0.8031	25.83	-0.05	-0.750			
0.1674	10712.97	3.9120	3.9119	-0.8005	25.83	-0.05	-0.750			
0.1698	10865.34	3.9090	3.9090	-0.8041	25.84	-0.04	-0.750			
0.1722	11019.95	3.9060	3.9059	-0.8016	25.84	-0.04	-0.750			
0.1746	11176.39	3.9030	3.9030	-0.8100	25.85	-0.03	-0.750			
0.1771	11332.02	3.9000	3.9002	-0.8108	25.85	-0.03	-0.750			
0.1795	11488.34	3.8970	3.8969	-0.8121	25.85	-0.03	-0.750			
0.1819	11643.22	3.8940	3.8939	-0.8164	25.86	-0.02	-0.750			
0.1844	11801.64	3.8910	3.8910	-0.8146	25.86	-0.02	-0.750			
0.1869	11960.21	3.8880	3.8879	-0.8165	25.87	-0.01	-0.750			
0.1893	12115.64	3.8850	3.8855	-0.8169	25.87	-0.01	-0.750			
0.1917	12270.74	3.8820	3.8819	-0.8150	25.87	-0.01	-0.750			
0.1942	12427.02	3.8790	3.8789	-0.8221	25.88	-0.00	-0.750			
0.1966	12584.99	3.8760	3.8759	-0.8196	25.88	0.00	-0.750			
0.1992	12745.79	3.8730	3.8730	-0.8298	25.89	0.01	-0.750			
0.2016	12905.09	3.8700	3.8703	-0.8281	25.89	0.01	-0.750			
0.2041	13064.53	3.8670	3.8669	-0.8275	25.89	0.01	-0.750			
0.2066	13221.84	3.8640	3.8639	-0.8232	25.89	0.01	-0.750			
0.2090	13377.97	3.8610	3.8610	-0.8172	25.90	0.02	-0.750			
0.2115	13536.58	3.8580	3.8580	-0.8215	25.90	0.02	-0.750			
0.2140	13693.52	3.8550	3.8550	-0.8179	25.90	0.02	-0.750			
0.2164	13849.62	3.8520	3.8520	-0.8188	25.90	0.02	-0.750			
0.2188	14005.86	3.8490	3.8490	-0.8283	25.90	0.02	-0.750			
0.2213	14165.93	3.8460	3.8459	-0.8301	25.91	0.03	-0.750			
0.2239	14327.17	3.8430	3.8430	-0.8307	25.91	0.03	-0.750			
0.2264	14489.57	3.8400	3.8401	-0.8302	25.91	0.03	-0.750			
0.2289	14647.58	3.8370	3.8370	-0.8308	25.91	0.03	-0.750			
0.2313	14805.76	3.8340	3.8340	-0.8329	25.92	0.04	-0.750			
0.2338	14964.86	3.8310	3.8309	-0.8309	25.92	0.04	-0.750			
0.2363	15123.93	3.8280	3.8280	-0.8204	25.93	0.05	-0.750			
0.2388	15285.46	3.8250	3.8252	-0.8257	25.93	0.05	-0.750			
0.2413	15443.10	3.8220	3.8220	-0.8219	25.93	0.05	-0.750			
0.2437	15599.85	3.8190	3.8187	-0.8242	25.93	0.05	-0.750			
0.2462	15755.95	3.8160	3.8160	-0.8211	25.93	0.05	-0.750			
0.2486	15913.11	3.8130	3.8131	-0.8152	25.93	0.05	-0.750			
0.2512	16074.28	3.8100	3.8100	-0.8185	25.93	0.05	-0.750			
0.2536	16231.44	3.8070	3.8071	-0.8166	25.93	0.05	-0.750			
0.2560	16385.57	3.8040	3.8040	-0.8100	25.94	0.06	-0.750			
0.2584	16539.88	3.8010	3.8010	-0.8090	25.94	0.06	-0.750			
0.2608	16693.09	3.7980	3.7980	-0.8078	25.94	0.06	-0.750			
0.2633	16850.27	3.7950	3.7950	-0.8105	25.95	0.07	-0.750			
0.2657	17006.64	3.7920	3.7920	-0.8127	25.95	0.07	-0.750			
0.2682	17162.77	3.7890	3.7890	-0.8132	25.96	0.08	-0.750			
0.2706	17319.32	3.7860	3.7860	-0.8045	25.96	0.08	-0.750			
0.2730	17473.48	3.7830	3.7830	-0.7996	25.96	0.08	-0.750			
0.2754	17626.37	3.7800	3.7799	-0.7970	25.97	0.09	-0.750			
0.2778	17778.62	3.7770	3.7770	-0.7919	25.97	0.09	-0.750			
0.2802	17930.12	3.7740	3.7739	-0.7884	25.97	0.09	-0.750			
0.2825	18081.00	3.7710	3.7711	-0.7822	25.97	0.09	-0.750			
0.2848	18229.31	3.7680	3.7680	-0.7808	25.98	0.10	-0.750			
0.2872	18381.05	3.7650	3.7649	-0.7870	25.98	0.10	-0.750			
0.2896	18531.56	3.7620	3.7620	-0.7829	25.98	0.10	-0.750			
0.2919	18681.54	3.7590	3.7590	-0.7844	25.98	0.10	-0.750			
0.2943	18834.10	3.7560	3.7560	-0.7892	25.98	0.10	-0.750			
0.2967	18987.01	3.7530	3.7530	-0.7853	25.99	0.11	-0.750			
0.2990	19137.25	3.7500	3.7499	-0.7868	25.99	0.11	-0.750			
0.3013	19286.34	3.7470	3.7473	-0.7852	25.99	0.11	-0.750			
0.3037	19435.76	3.7440	3.7439	-0.7907	25.99	0.11	-0.750			
0.3061	19588.20	3.7410	3.7410	-0.8045	25.99	0.11	-0.750			
0.3085	19742.47	3.7380	3.7380	-0.8107	26.00	0.12	-0.750			
0.3110	19901.86	3.7350	3.7349	-0.8129	26.00	0.12	-0.750			
0.3135	20062.74	3.7320	3.7322	-0.8226	26.00	0.12	-0.750			
0.3159	20218.50	3.7290	3.7289	-0.8288	26.00	0.12	-0.750			
0.3184	20376.58	3.7260	3.7260	-0.8384	26.00	0.12	-0.750			
0.3209	20537.25	3.7230	3.7228	-0.8486	26.01	0.13	-0.750			
0.3234	20699.66	3.7200	3.7200	-0.8530	26.01	0.13	-0.750			
0.3261	20867.60	3.7170	3.7171	-0.8763	26.01	0.13	-0.750			
0.3287	21036.87	3.7140	3.7140	-0.8960	26.01	0.13	-0.750			
0.3314	21210.47	3.7110	3.7110	-0.9064	26.01	0.13	-0.750			
0.3341	21383.50	3.7080	3.7079	-0.9247	26.00	0.12	-0.750			
0.3369	21562.88	3.7050	3.7050	-0.9381	26.00	0.12	-0.750			
0.3398	21747.03	3.7020	3.7021	-0.9591	26.00	0.12	-0.750			
0.3427	21933.74	3.6990	3.6990	-0.9849	26.00	0.12	-0.750			
0.3457	22124.72	3.6960	3.6960	-0.9962	25.99	0.11	-0.750			
0.3487	22318.09	3.6930	3.6928	-1.0140	25.99	0.11	-0.750			
0.3518	22514.43	3.6900	3.6905	-1.0381	25.99	0.11	-0.750			
0.3549	22714.30	3.6870	3.6869	-1.0544	25.99	0.11	-0.750			
0.3581	22919.12	3.6840	3.6839	-1.0768	25.99	0.11	-0.750			
0.3613	23125.22	3.6810	3.6810	-1.0958	25.99	0.11	-0.750			
0.3646	23337.28	3.6780	3.6782	-1.1295	25.99	0.11	-0.750			
0.3681	23557.62	3.6750	3.6749	-1.1486	25.98	0.10	-0.750			
0.3716	23781.03	3.6720	3.6720	-1.1683	25.97	0.09	-0.750			
0.3751	24005.86	3.6690	3.6690	-1.1941	25.96	0.08	-0.750			
0.3787	24238.95	3.6660	3.6659	-1.2145	25.96	0.08	-0.750			
0.3824	24473.69	3.6630	3.6629	-1.2360	25.95	0.07	-0.750			
0.3861	24710.09	3.6600	3.6600	-1.2604	25.94	0.06	-0.750			
0.3899	24951.94	3.6570	3.6573	-1.2899	25.93	0.05	-0.750			
0.3939	25207.40	3.6540	3.6539	-1.3203	25.92	0.04	-0.750			
0.3979	25463.49	3.6510	3.6510	-1.3469	25.92	0.04	-0.750			
0.4019	25723.97	3.6480	3.6480	-1.3816	25.91	0.03	-0.750			
0.4061	25992.70	3.6450	3.6450	-1.4280	25.90	0.02	-0.750			
0.4105	26270.85	3.6420	3.6418	-1.4540	25.90	0.02	-0.750			
0.4149	26554.69	3.6390	3.6391	-1.4860	25.89	0.01	-0.750			
0.4195	26845.98	3.6360	3.6361	-1.5136	25.88	0.00	-0.750			
0.4240	27137.65	3.6330	3.6330	-1.5534	25.87	-0.01	-0.750			
0.4288	27441.25	3.6300	3.6297	-1.5670	25.87	-0.01	-0.750			
0.4334	27739.96	3.6270	3.6270	-1.5995	25.86	-0.02	-0.750			
0.4382	28047.19	3.6240	3.6240	-1.6283	25.85	-0.03	-0.750			
0.4432	28364.84	3.6210	3.6211	-1.6554	25.84	-0.04	-0.750			
0.4483	28693.18	3.6180	3.6180	-1.6938	25.83	-0.05	-0.750	0.395	0.520	
0.4534	29020.00	3.6150	3.6150	-1.7201	25.82	-0.06	-0.750			
0.4586	29347.61	3.6120	3.6121	-1.7572	25.81	-0.07	-0.750			
0.4639	29690.95	3.6090	3.6090	-1.7774	25.81	-0.07	-0.750			
0.4693	30033.21	3.6060	3.6061	-1.8164	25.81	-0.07	-0.750			
0.4748	30387.66	3.6030	3.6030	-1.8595	25.81	-0.07	-0.750			
0.4805	30749.09	3.6000	3.6001	-1.9005	25.80	-0.08	-0.750			
0.4862	31116.03	3.5970	3.5969	-1.9300	25.79	-0.09	-0.750			
0.4920	31488.99	3.5940	3.5941	-1.9653	25.79	-0.09	-0.750			
0.4979	31868.63	3.5910	3.5911	-2.0099	25.78	-0.10	-0.750			
0.5042	32265.94	3.5880	3.5878	-2.0526	25.78	-0.10	-0.750			
0.5103	32657.19	3.5850	3.5850	-2.0801	25.77	-0.11	-0.750			
0.5166	33063.43	3.5820	3.5820	-2.1222	25.77	-0.11	-0.750			
0.5231	33479.00	3.5790	3.5790	-2.1585	25.77	-0.11	-0.750			
0.5296	33893.68	3.5760	3.5760	-2.1754	25.77	-0.11	-0.750			
0.5362	34318.54	3.5730	3.5730	-2.1982	25.77	-0.11	-0.750			
0.5428	34741.50	3.5700	3.5701	-2.2221	25.77	-0.11	-0.750			
0.5496	35172.77	3.5670	3.5670	-2.2384	25.77	-0.11	-0.750			
0.5563	35602.84	3.5640	3.5641	-2.2444	25.76	-0.12	-0.750			
0.5630	36033.64	3.5610	3.5609	-2.2574	25.75	-0.13	-0.750			
0.5699	36472.03	3.5580	3.5580	-2.2541	25.75	-0.13	-0.750			
0.5766	36905.03	3.5550	3.5551	-2.2519	25.75	-0.13	-0.750			
0.5834	37338.54	3.5520	3.5520	-2.2413	25.75	-0.13	-0.750			
0.5901	37767.97	3.5490	3.5489	-2.2285	25.75	-0.13	-0.750			
0.5968	38195.12	3.5460	3.5460	-2.2157	25.76	-0.12	-0.750			
0.6035	38621.19	3.5430	3.5431	-2.2108	25.77	-0.11	-0.750			
0.6100	39042.08	3.5400	3.5399	-2.1871	25.78	-0.10	-0.750			
0.6167	39466.05	3.5370	3.5369	-2.1476	25.78	-0.10	-0.750			
0.6231	39875.57	3.5340	3.5343	-2.1236	25.78	-0.10	-0.750			
0.6293	40278.23	3.5310	3.5310	-2.0938	25.78	-0.10	-0.750			
0.6356	40679.39	3.5280	3.5277	-2.0547	25.79	-0.09	-0.750			
0.6417	41071.07	3.5250	3.5251	-2.0078	25.79	-0.09	-0.750			
0.6478	41457.20	3.5220	3.5220	-1.9845	25.80	-0.08	-0.750			
0.6537	41834.51	3.5190	3.5190	-1.9264	25.81	-0.07	-0.750			
0.6594	42199.34	3.5160	3.5161	-1.8680	25.82	-0.06	-0.750			
0.6649	42554.60	3.5130	3.5129	-1.8079	25.82	-0.06	-0.750			
0.6702	42894.60	3.5100	3.5099	-1.7529	25.84	-0.04	-0.750			
0.6754	43227.20	3.5070	3.5069	-1.7050	25.86	-0.02	-0.750			
0.6805	43549.90	3.5040	3.5041	-1.6394	25.87	-0.01	-0.750			
0.6853	43860.22	3.5010	3.5011	-1.5822	25.88	0.00	-0.750			
0.6900	44159.86	3.4980	3.4982	-1.5244	25.89	0.01	-0.750			
0.6945	44446.70	3.4950	3.4949	-1.4731	25.91	0.03	-0.750			
0.6988	44721.79	3.4920	3.4920	-1.4223	25.92	0.04	-0.750			
0.7029	44985.99	3.4890	3.4890	-1.3812	25.94	0.06	-0.750			
0.7071	45251.81	3.4860	3.4860	-1.3414	25.96	0.08	-0.750			
0.7110	45505.44	3.4830	3.4829	-1.2950	25.97	0.09	-0.750			
0.7148	45748.35	3.4800	3.4802	-1.2544	25.99	0.11	-0.750			
0.7185	45986.26	3.4770	3.4769	-1.2161	26.00	0.12	-0.750			
0.7221	46214.50	3.4740	3.4739	-1.1732	26.01	0.13	-0.750			
0.7255	46434.37	3.4710	3.4709	-1.1320	26.03	0.15	-0.750			
0.7289	46649.30	3.4680	3.4679	-1.1004	26.04	0.16	-0.750			
0.7321	46857.42	3.4650	3.4650	-1.0650	26.06	0.18	-0.750			
0.7353	47056.41	3.4620	3.4619	-1.0275	26.07	0.19	-0.750			
0.7383	47248.34	3.4590	3.4590	-0.9909	26.09	0.21	-0.750			
0.7412	47437.27	3.4560	3.4560	-0.9646	26.10	0.22	-0.750			
0.7440	47619.06	3.4530	3.4530	-0.9442	26.11	0.23	-0.750			
0.7468	47797.92	3.4500	3.4500	-0.9192	26.11	0.23	-0.750			
0.7496	47972.01	3.4470	3.4469	-0.8986	26.12	0.24	-0.750			
0.7522	48141.24	3.4440	3.4442	-0.8886	26.13	0.25	-0.750			
0.7548	48308.58	3.4410	3.4410	-0.8887	26.14	0.26	-0.750			
0.7575	48477.81	3.4380	3.4379	-0.8906	26.15	0.27	-0.750			
0.7601	48646.31	3.4350	3.4350	-0.8948	26.16	0.28	-0.750			
0.7628	48820.90	3.4320	3.4319	-0.9061	26.17	0.29	-0.750			
0.7656	48996.82	3.4290	3.4290	-0.9133	26.17	0.29	-0.750			
0.7683	49173.22	3.4260	3.4260	-0.9292	26.18	0.30	-0.750			
0.7711	49350.77	3.4230	3.4232	-0.9412	26.19	0.31	-0.750			
0.7739	49530.42	3.4200	3.4199	-0.9541	26.20	0.32	-0.750			
0.7768	49717.87	3.4170	3.4171	-0.9719	26.21	0.33	-0.750			
0.7798	49906.55	3.4140	3.4140	-0.9879	26.22	0.34	-0.750			
0.7828	50100.81	3.4110	3.4109	-0.9899	26.23	0.35	-0.750			
0.7859	50297.33	3.4080	3.4080	-0.9791	26.24	0.36	-0.750			
0.7888	50485.00	3.4050	3.4050	-0.9657	26.25	0.37	-0.750			
0.7917	50668.35	3.4020	3.4020	-0.9402	26.25	0.37	-0.750			
0.7945	50845.98	3.3990	3.3989	-0.9097	26.26	0.38	-0.750			
0.7972	51018.05	3.3960	3.3960	-0.8787	26.26	0.38	-0.750			
0.7997	51182.92	3.3930	3.3931	-0.8468	26.27	0.39	-0.750			
0.8023	51346.55	3.3900	3.3901	-0.8217	26.27	0.39	-0.750			
0.8047	51500.54	3.3870	3.3870	-0.7848	26.28	0.40	-0.750			
0.8070	51645.65	3.3840	3.3840	-0.7544	26.29	0.41	-0.750			
0.8092	51788.83	3.3810	3.3809	-0.7262	26.29	0.41	-0.750			
0.8113	51925.82	3.3780	3.3780	-0.6963	26.30	0.42	-0.750			
0.8134	52056.11	3.3750	3.3750	-0.6690	26.31	0.43	-0.750			
0.8153	52182.22	3.3720	3.3719	-0.6418	26.31	0.43	-0.750			
0.8172	52301.86	3.3690	3.3689	-0.6208	26.32	0.44	-0.750			
0.8190	52417.05	3.3660	3.3660	-0.5972	26.33	0.45	-0.750			
0.8208	52528.10	3.3630	3.3630	-0.5727	26.33	0.45	-0.750			
0.8225	52639.29	3.3600	3.3600	-0.5571	26.34	0.46	-0.750			
0.8241	52743.72	3.3570	3.3571	-0.5363	26.34	0.46	-0.750			
0.8257	52844.09	3.3540	3.3539	-0.5169	26.35	0.47	-0.750			
0.8272	52940.97	3.3510	3.3511	-0.4980	26.35	0.47	-0.750			
0.8287	53033.96	3.3480	3.3480	-0.4805	26.36	0.48	-0.750			
0.8301	53125.24	3.3450	3.3450	-0.4643	26.37	0.49	-0.750			
0.8315	53213.17	3.3420	3.3420	-0.4477	26.37	0.49	-0.750			
0.8328	53297.17	3.3390	3.3390	-0.4327	26.38	0.50	-0.750			
0.8340	53377.72	3.3360	3.3360	-0.4154	26.38	0.50	-0.750			
0.8352	53455.68	3.3330	3.3330	-0.4018	26.39	0.51	-0.750			
0.8364	53531.92	3.3300	3.3300	-0.3888	26.40	0.52	-0.750			
0.8376	53605.27	3.3270	3.3270	-0.3740	26.40	0.52	-0.750			
0.8387	53675.75	3.3240	3.3238	-0.3625	26.41	0.53	-0.750			
0.8398	53744.08	3.3210	3.3211	-0.3492	26.41	0.53	-0.750			
0.8408	53809.22	3.3180	3.3179	-0.3396	26.42	0.54	-0.750			
0.8418	53873.18	3.3150	3.3150	-0.3293	26.42	0.54	-0.750			
0.8427	53934.94	3.3120	3.3120	-0.3171	26.43	0.55	-0.750			
0.8437	53995.43	3.3090	3.3090	-0.3105	26.43	0.55	-0.750			
0.8446	54054.54	3.3060	3.3061	-0.3033	26.44	0.56	-0.750			
0.8455	54111.43	3.3030	3.3029	-0.2944	26.44	0.56	-0.750			
0.8464	54167.26	3.3000	3.3000	-0.2872	26.45	0.57	-0.750			
0.8472	54221.11	3.2970	3.2970	-0.2791	26.45	0.57	-0.750			
0.8480	54274.53	3.2940	3.2941	-0.2736	26.46	0.58	-0.750			
0.8488	54326.27	3.2910	3.2910	-0.2676	26.46	0.58	-0.750			
0.8496	54376.87	3.2880	3.2880	-0.2606	26.47	0.59	-0.750			
0.8504	54426.05	3.2850	3.2850	-0.2539	26.47	0.59	-0.750			
0.8512	54474.25	3.2820	3.2820	-0.2474	26.48	0.60	-0.750			
0.8519	54521.01	3.2790	3.2792	-0.2423	26.48	0.60	-0.750			
0.8526	54566.78	3.2760	3.2760	-0.2376	26.49	0.61	-0.750			
0.8533	54611.82	3.2730	3.2730	-0.2328	26.49	0.61	-0.750			
0.8540	54656.01	3.2700	3.2699	-0.2273	26.49	0.61	-0.750			
0.8547	54698.84	3.2670	3.2671	-0.2226	26.50	0.62	-0.750			
0.8553	54741.30	3.2640	3.2641	-0.2196	26.50	0.62	-0.750			
0.8560	54783.09	3.2610	3.2610	-0.2158	26.51	0.63	-0.750			
0.8566	54824.26	3.2580	3.2579	-0.2119	26.51	0.63	-0.750			
0.8573	54864.03	3.2550	3.2550	-0.2084	26.51	0.63	-0.750			
0.8579	54903.82	3.2520	3.2520	-0.2049	26.52	0.64	-0.750			
0.8585	54942.89	3.2490	3.2490	-0.2021	26.52	0.64	-0.750			
0.8591	54981.84	3.2460	3.2459	-0.1988	26.53	0.65	-0.750			
0.8597	55019.64	3.2430	3.2431	-0.1949	26.53	0.65	-0.750			
0.8603	55056.50	3.2400	3.2400	-0.1913	26.53	0.65	-0.750			
0.8608	55092.91	3.2370	3.2370	-0.1879	26.54	0.66	-0.750			
0.8614	55128.49	3.2340	3.2340	-0.1858	26.54	0.66	-0.750			
0.8619	55163.25	3.2310	3.2310	-0.1832	26.54	0.66	-0.750			
0.8625	55198.50	3.2280	3.2279	-0.1815	26.55	0.67	-0.750			
0.8630	55233.19	3.2250	3.2250	-0.1799	26.55	0.67	-0.750			
0.8636	55267.65	3.2220	3.2220	-0.1783	26.56	0.68	-0.750			
0.8641	55301.98	3.2190	3.2190	-0.1764	26.56	0.68	-0.750			
0.8646	55335.77	3.2160	3.2160	-0.1739	26.56	0.68	-0.750			
0.8651	55368.89	3.2130	3.2130	-0.1710	26.57	0.69	-0.750			
0.8656	55401.25	3.2100	3.2100	-0.1692	26.57	0.69	-0.750			
0.8661	55433.34	3.2070	3.2070	-0.1672	26.58	0.70	-0.750			
0.8666	55465.32	3.2040	3.2040	-0.1658	26.58	0.70	-0.750			
0.8671	55496.99	3.2010	3.2009	-0.1641	26.59	0.71	-0.750			
0.8676	55528.20	3.1980	3.1981	-0.1620	26.59	0.71	-0.750			
0.8681	55559.25	3.1950	3.1950	-0.1607	26.60	0.72	-0.750			
0.8686	55590.32	3.1920	3.1920	-0.1587	26.61	0.73	-0.750			
0.8691	55620.54	3.1890	3.1890	-0.1561	26.61	0.73	-0.750			
0.8695	55650.01	3.1860	3.1860	-0.1551	26.61	0.73	-0.750			
0.8700	55679.54	3.1830	3.1832	-0.1537	26.62	0.74	-0.750			
0.8705	55708.91	3.1800	3.1797	-0.1520	26.62	0.74	-0.750			
0.8709	55737.98	3.1770	3.1770	-0.1508	26.63	0.75	-0.750			
0.8714	55766.80	3.1740	3.1741	-0.1498	26.63	0.75	-0.750			
0.8718	55795.38	3.1710	3.1710	-0.1486	26.64	0.76	-0.750			
0.8723	55824.13	3.1680	3.1680	-0.1479	26.64	0.76	-0.750			
0.8727	55852.36	3.1650	3.1649	-0.1463	26.65	0.77	-0.750			
0.8731	55879.96	3.1620	3.1620	-0.1446	26.65	0.77	-0.750			
0.8736	55907.78	3.1590	3.1589	-0.1435	26.66	0.78	-0.750			
0.8740	55935.34	3.1560	3.1561	-0.1423	26.66	0.78	-0.750			
0.8744	55962.45	3.1530	3.1529	-0.1409	26.67	0.79	-0.750			
0.8748	55989.20	3.1500	3.1500	-0.1396	26.67	0.79	-0.750			
0.8752	56015.95	3.1470	3.1470	-0.1383	26.68	0.80	-0.750			
0.8757	56042.38	3.1440	3.1440	-0.1371	26.68	0.80	-0.750			
0.8761	56068.63	3.1410	3.1410	-0.1359	26.69	0.81	-0.750			
0.8765	56094.72	3.1380	3.1379	-0.1343	26.70	0.82	-0.750			
0.8769	56120.47	3.1350	3.1351	-0.1328	26.70	0.82	-0.750			
0.8773	56145.62	3.1320	3.1320	-0.1321	26.71	0.83	-0.750			
0.8777	56170.73	3.1290	3.1290	-0.1310	26.71	0.83	-0.750			
0.8781	56195.63	3.1260	3.1260	-0.1300	26.72	0.84	-0.750			
0.8784	56220.58	3.1230	3.1230	-0.1293	26.72	0.84	-0.750			
0.8788	56245.37	3.1200	3.1201	-0.1287	26.73	0.85	-0.750			
0.8792	56270.01	3.1170	3.1170	-0.1279	26.73	0.85	-0.750			
0.8796	56294.73	3.1140	3.1140	-0.1275	26.74	0.86	-0.750			
0.8800	56319.01	3.1110	3.1111	-0.1268	26.74	0.86	-0.750			
0.8804	56343.01	3.1080	3.1078	-0.1257	26.75	0.87	-0.750			
0.8807	56367.20	3.1050	3.1050	-0.1247	26.75	0.87	-0.750			
0.8811	56391.18	3.1020	3.1019	-0.1240	26.75	0.87	-0.750			
0.8815	56415.07	3.0990	3.0990	-0.1230	26.76	0.88	-0.750			
0.8819	56438.55	3.0960	3.0960	-0.1216	26.76	0.88	-0.750			
0.8822	56461.77	3.0930	3.0930	-0.1206	26.77	0.89	-0.750			
0.8826	56484.80	3.0900	3.0900	-0.1193	26.77	0.89	-0.750			
0.8829	56507.22	3.0870	3.0870	-0.1186	26.78	0.90	-0.750			
0.8833	56529.95	3.0840	3.0840	-0.1182	26.78	0.90	-0.750			
0.8836	56552.60	3.0810	3.0810	-0.1174	26.79	0.91	-0.750			
0.8840	56575.31	3.0780	3.0779	-0.1165	26.79	0.91	-0.750			
0.8843	56597.79	3.0750	3.0750	-0.1160	26.80	0.92	-0.750			
0.8847	56619.87	3.0720	3.0723	-0.1151	26.80	0.92	-0.750			
0.8850	56641.98	3.0690	3.0691	-0.1143	26.80	0.92	-0.750			
0.8854	56663.81	3.0660	3.0659	-0.1131	26.81	0.93	-0.750			
0.8857	56685.05	3.0630	3.0629	-0.1122	26.81	0.93	-0.750			
0.8860	56706.56	3.0600	3.0602	-0.1119	26.82	0.94	-0.750			
0.8864	56727.98	3.0570	3.0570	-0.1113	26.82	0.94	-0.750			
0.8867	56749.33	3.0540	3.0540	-0.1110	26.83	0.95	-0.750			
0.8870	56770.75	3.0510	3.0509	-0.1107	26.83	0.95	-0.750			
0.8874	56791.95	3.0480	3.0482	-0.1101	26.84	0.96	-0.750			
0.8877	56813.11	3.0450	3.0450	-0.1094	26.84	0.96	-0.750			
0.8880	56834.03	3.0420	3.0420	-0.1086	26.84	0.96	-0.750			
0.8884	56854.67	3.0390	3.0391	-0.1082	26.85	0.97	-0.750			
0.8887	56875.53	3.0360	3.0360	-0.1076	26.85	0.97	-0.750			
0.8890	56896.16	3.0330	3.0329	-0.1070	26.86	0.98	-0.750			
0.8893	56916.65	3.0300	3.0299	-0.1064	26.86	0.98	-0.750			
0.8896	56937.03	3.0270	3.0270	-0.1058	26.86	0.98	-0.750			
0.8900	56957.31	3.0240	3.0241	-0.1049	26.87	0.99	-0.750			
0.8903	56977.51	3.0210	3.0210	-0.1044	26.87	0.99	-0.750			
0.8906	56997.45	3.0180	3.0179	-0.1034	26.88	1.00	-0.750			
0.8909	57017.07	3.0150	3.0150	-0.1023	26.88	1.00	-0.750			
0.8912	57036.64	3.0120	3.0121	-0.1015	26.89	1.01	-0.750			
0.8915	57056.21	3.0090	3.0090	-0.1006	26.89	1.01	-0.750			
0.8918	57075.41	3.0060	3.0060	-0.0995	26.89	1.01	-0.750			
0.8921	57094.43	3.0030	3.0030	-0.0990	26.90	1.02	-0.750			
