Ah_balance (normalized)	Ah_balance (mAh)	Voltage - fit (V)	Voltage -  interpolate (V)	dQ/dV (1/V)	Temperature (°C)	Temperature - diff (°C)	Current (C)	R_DC 0ms (mOhm)	R_DC 50ms (mOhm)	R_DC 50 ms PEC (mOhm)
0.0003	18.86	4.1630	4.1628	-0.1218	25.99	0.00	-0.750			
0.0007	46.42	4.1600	4.1598	-0.1671	25.99	0.00	-0.750			
0.0013	83.50	4.1570	4.1570	-0.2126	25.99	0.00	-0.750			
0.0020	129.23	4.1540	4.1541	-0.2547	25.99	0.00	-0.750			
0.0028	182.20	4.1510	4.1510	-0.2965	25.99	-0.00	-0.750			
0.0038	244.27	4.1480	4.1480	-0.3361	25.99	-0.00	-0.750			
0.0049	312.98	4.1450	4.1450	-0.3723	25.98	-0.01	-0.750			
0.0061	387.79	4.1420	4.1420	-0.4086	25.98	-0.01	-0.750			
0.0073	470.20	4.1390	4.1390	-0.4425	25.98	-0.01	-0.750			
0.0087	558.72	4.1360	4.1360	-0.4751	25.97	-0.02	-0.750			
0.0102	653.45	4.1330	4.1330	-0.5047	25.97	-0.02	-0.750			
0.0118	754.57	4.1300	4.1300	-0.5288	25.97	-0.02	-0.750			
0.0134	859.26	4.1270	4.1270	-0.5519	25.96	-0.03	-0.750			
0.0151	968.45	4.1240	4.1242	-0.5693	25.96	-0.03	-0.750			
0.0169	1079.58	4.1210	4.1210	-0.5815	25.96	-0.03	-0.750			
0.0186	1192.93	4.1180	4.1180	-0.5974	25.96	-0.03	-0.750			
0.0204	1308.32	4.1150	4.1149	-0.6111	25.96	-0.03	-0.750			
0.0223	1427.00	4.1120	4.1120	-0.6245	25.95	-0.04	-0.750			
0.0242	1548.55	4.1090	4.1091	-0.6370	25.95	-0.04	-0.750			
0.0261	1672.70	4.1060	4.1060	-0.6482	25.95	-0.04	-0.750			
0.0281	1799.24	4.1030	4.1030	-0.6588	25.95	-0.04	-0.750			
0.0301	1928.38	4.1000	4.1000	-0.6620	25.95	-0.04	-0.750			
0.0321	2054.20	4.0970	4.0971	-0.6669	25.94	-0.05	-0.750			
0.0341	2182.88	4.0940	4.0940	-0.6715	25.94	-0.05	-0.750			
0.0361	2312.55	4.0910	4.0910	-0.6775	25.94	-0.05	-0.750			
0.0382	2442.85	4.0880	4.0878	-0.6809	25.93	-0.06	-0.750			
0.0402	2573.68	4.0850	4.0852	-0.6888	25.93	-0.06	-0.750			
0.0423	2707.40	4.0820	4.0821	-0.6959	25.93	-0.06	-0.750			
0.0444	2840.67	4.0790	4.0789	-0.7098	25.93	-0.06	-0.750			
0.0465	2978.61	4.0760	4.0761	-0.7056	25.93	-0.06	-0.750			
0.0487	3116.25	4.0730	4.0729	-0.7089	25.93	-0.06	-0.750			
0.0508	3252.63	4.0700	4.0699	-0.7079	25.93	-0.06	-0.750			
0.0530	3389.14	4.0670	4.0671	-0.7101	25.93	-0.06	-0.750			
0.0551	3523.59	4.0640	4.0639	-0.7106	25.93	-0.06	-0.750			
0.0572	3659.02	4.0610	4.0610	-0.7143	25.93	-0.06	-0.750			
0.0593	3794.50	4.0580	4.0580	-0.7128	25.93	-0.06	-0.750			
0.0615	3935.62	4.0550	4.0550	-0.7278	25.93	-0.06	-0.750			
0.0637	4077.01	4.0520	4.0520	-0.7299	25.93	-0.06	-0.750			
0.0659	4217.25	4.0490	4.0490	-0.7315	25.93	-0.06	-0.750			
0.0681	4357.24	4.0460	4.0460	-0.7333	25.93	-0.06	-0.750			
0.0703	4498.83	4.0430	4.0430	-0.7408	25.93	-0.06	-0.750			
0.0725	4641.64	4.0400	4.0399	-0.7414	25.92	-0.07	-0.750			
0.0748	4785.84	4.0370	4.0369	-0.7408	25.92	-0.07	-0.750			
0.0770	4928.19	4.0340	4.0342	-0.7409	25.92	-0.07	-0.750			
0.0792	5070.43	4.0310	4.0310	-0.7410	25.92	-0.07	-0.750			
0.0814	5211.82	4.0280	4.0280	-0.7383	25.92	-0.07	-0.750			
0.0837	5354.60	4.0250	4.0249	-0.7412	25.93	-0.06	-0.750			
0.0859	5497.75	4.0220	4.0219	-0.7456	25.93	-0.06	-0.750			
0.0881	5640.51	4.0190	4.0190	-0.7451	25.93	-0.06	-0.750			
0.0904	5784.01	4.0160	4.0161	-0.7474	25.93	-0.06	-0.750			
0.0926	5926.88	4.0130	4.0129	-0.7446	25.93	-0.06	-0.750			
0.0948	6069.12	4.0100	4.0100	-0.7490	25.93	-0.06	-0.750			
0.0970	6210.58	4.0070	4.0070	-0.7451	25.93	-0.06	-0.750			
0.0993	6358.27	4.0040	4.0039	-0.7568	25.93	-0.06	-0.750			
0.1016	6502.27	4.0010	4.0010	-0.7580	25.93	-0.06	-0.750			
0.1039	6647.50	3.9980	3.9980	-0.7636	25.93	-0.06	-0.750			
0.1062	6794.76	3.9950	3.9950	-0.7679	25.94	-0.05	-0.750			
0.1085	6943.66	3.9920	3.9919	-0.7722	25.94	-0.05	-0.750			
0.1108	7090.94	3.9890	3.9890	-0.7691	25.94	-0.05	-0.750			
0.1131	7240.93	3.9860	3.9861	-0.7752	25.95	-0.04	-0.750			
0.1155	7389.05	3.9830	3.9830	-0.7746	25.95	-0.04	-0.750			
0.1178	7537.21	3.9800	3.9798	-0.7710	25.95	-0.04	-0.750			
0.1201	7685.21	3.9770	3.9771	-0.7762	25.95	-0.04	-0.750			
0.1224	7835.34	3.9740	3.9740	-0.7779	25.95	-0.04	-0.750			
0.1248	7985.10	3.9710	3.9709	-0.7794	25.95	-0.04	-0.750			
0.1271	8134.98	3.9680	3.9679	-0.7817	25.95	-0.04	-0.750			
0.1294	8283.10	3.9650	3.9650	-0.7833	25.95	-0.04	-0.750			
0.1318	8434.44	3.9620	3.9620	-0.7865	25.96	-0.03	-0.750			
0.1342	8585.80	3.9590	3.9590	-0.7895	25.96	-0.03	-0.750			
0.1365	8737.85	3.9560	3.9560	-0.7948	25.96	-0.03	-0.750			
0.1389	8890.87	3.9530	3.9530	-0.7979	25.97	-0.02	-0.750			
0.1413	9044.93	3.9500	3.9499	-0.7969	25.97	-0.02	-0.750			
0.1437	9197.19	3.9470	3.9470	-0.7993	25.97	-0.02	-0.750			
0.1461	9350.80	3.9440	3.9440	-0.7955	25.98	-0.01	-0.750			
0.1485	9503.41	3.9410	3.9410	-0.7994	25.98	-0.01	-0.750			
0.1509	9656.38	3.9380	3.9379	-0.8035	25.98	-0.01	-0.750			
0.1533	9811.35	3.9350	3.9349	-0.8045	25.98	-0.01	-0.750			
0.1557	9964.84	3.9320	3.9320	-0.8113	25.98	-0.01	-0.750			
0.1582	10123.84	3.9290	3.9291	-0.8118	25.98	-0.01	-0.750			
0.1606	10279.71	3.9260	3.9260	-0.8126	25.99	-0.00	-0.750			
0.1631	10436.72	3.9230	3.9229	-0.8180	25.99	-0.00	-0.750			
0.1655	10592.38	3.9200	3.9201	-0.8132	25.99	0.00	-0.750			
0.1679	10748.69	3.9170	3.9169	-0.8132	26.00	0.01	-0.750			
0.1704	10906.00	3.9140	3.9141	-0.8166	26.00	0.01	-0.750			
0.1728	11061.23	3.9110	3.9110	-0.8143	26.00	0.01	-0.750			
0.1753	11219.32	3.9080	3.9080	-0.8224	26.01	0.02	-0.750			
0.1778	11376.59	3.9050	3.9050	-0.8228	26.01	0.02	-0.750			
0.1802	11532.93	3.9020	3.9020	-0.8237	26.01	0.02	-0.750			
0.1827	11693.07	3.8990	3.8990	-0.8270	26.01	0.02	-0.750			
0.1852	11853.17	3.8960	3.8959	-0.8235	26.02	0.03	-0.750			
0.1877	12011.13	3.8930	3.8931	-0.8255	26.02	0.03	-0.750			
0.1901	12168.46	3.8900	3.8901	-0.8274	26.02	0.03	-0.750			
0.1926	12325.94	3.8870	3.8869	-0.8283	26.02	0.03	-0.750			
0.1951	12487.42	3.8840	3.8839	-0.8387	26.02	0.03	-0.750			
0.1976	12649.20	3.8810	3.8810	-0.8416	26.03	0.04	-0.750			
0.2002	12813.83	3.8780	3.8779	-0.8455	26.03	0.04	-0.750			
0.2028	12976.45	3.8750	3.8752	-0.8429	26.03	0.04	-0.750			
0.2053	13136.82	3.8720	3.8720	-0.8378	26.03	0.04	-0.750			
0.2078	13297.27	3.8690	3.8690	-0.8382	26.04	0.05	-0.750			
0.2102	13455.06	3.8660	3.8659	-0.8305	26.04	0.05	-0.750			
0.2128	13618.84	3.8630	3.8630	-0.8404	26.05	0.06	-0.750			
0.2153	13779.37	3.8600	3.8601	-0.8441	26.05	0.06	-0.750			
0.2179	13942.49	3.8570	3.8570	-0.8437	26.05	0.06	-0.750			
0.2204	14104.40	3.8540	3.8539	-0.8458	26.05	0.06	-0.750			
0.2229	14266.20	3.8510	3.8511	-0.8437	26.06	0.07	-0.750			
0.2255	14429.84	3.8480	3.8480	-0.8469	26.06	0.07	-0.750			
0.2280	14591.62	3.8450	3.8450	-0.8460	26.06	0.07	-0.750			
0.2306	14755.21	3.8420	3.8420	-0.8392	26.06	0.07	-0.750			
0.2330	14914.81	3.8390	3.8390	-0.8435	26.06	0.07	-0.750			
0.2356	15077.86	3.8360	3.8360	-0.8440	26.07	0.08	-0.750			
0.2381	15239.65	3.8330	3.8329	-0.8442	26.07	0.08	-0.750			
0.2407	15401.77	3.8300	3.8301	-0.8450	26.07	0.08	-0.750			
0.2432	15563.68	3.8270	3.8270	-0.8479	26.08	0.09	-0.750			
0.2457	15726.87	3.8240	3.8240	-0.8502	26.08	0.09	-0.750			
0.2483	15889.60	3.8210	3.8209	-0.8472	26.08	0.09	-0.750			
0.2509	16054.90	3.8180	3.8180	-0.8515	26.09	0.10	-0.750			
0.2534	16220.59	3.8150	3.8151	-0.8496	26.09	0.10	-0.750			
0.2560	16381.67	3.8120	3.8120	-0.8515	26.09	0.10	-0.750			
0.2585	16545.69	3.8090	3.8090	-0.8475	26.09	0.10	-0.750			
0.2611	16707.25	3.8060	3.8059	-0.8442	26.09	0.10	-0.750			
0.2636	16869.83	3.8030	3.8029	-0.8399	26.09	0.10	-0.750			
0.2661	17031.85	3.8000	3.8000	-0.8361	26.09	0.10	-0.750			
0.2686	17190.97	3.7970	3.7970	-0.8395	26.10	0.11	-0.750			
0.2711	17351.70	3.7940	3.7939	-0.8395	26.10	0.11	-0.750			
0.2736	17511.01	3.7910	3.7910	-0.8355	26.10	0.11	-0.750			
0.2762	17674.12	3.7880	3.7879	-0.8354	26.11	0.12	-0.750			
0.2787	17835.05	3.7850	3.7850	-0.8336	26.11	0.12	-0.750			
0.2812	17995.46	3.7820	3.7820	-0.8352	26.12	0.13	-0.750			
0.2837	18154.90	3.7790	3.7788	-0.8302	26.12	0.13	-0.750			
0.2861	18312.38	3.7760	3.7760	-0.8191	26.12	0.13	-0.750			
0.2886	18472.66	3.7730	3.7728	-0.8185	26.13	0.14	-0.750			
0.2911	18629.67	3.7700	3.7699	-0.8144	26.13	0.14	-0.750			
0.2935	18784.34	3.7670	3.7670	-0.8157	26.14	0.15	-0.750			
0.2959	18938.84	3.7640	3.7640	-0.8091	26.14	0.15	-0.750			
0.2983	19092.37	3.7610	3.7609	-0.8025	26.14	0.15	-0.750			
0.3008	19249.33	3.7580	3.7580	-0.8100	26.15	0.16	-0.750			
0.3032	19404.83	3.7550	3.7551	-0.8135	26.15	0.16	-0.750			
0.3056	19559.34	3.7520	3.7519	-0.8234	26.15	0.16	-0.750			
0.3081	19718.19	3.7490	3.7490	-0.8213	26.15	0.16	-0.750			
0.3106	19876.07	3.7460	3.7459	-0.8221	26.15	0.16	-0.750			
0.3131	20036.07	3.7430	3.7429	-0.8308	26.15	0.16	-0.750			
0.3156	20196.58	3.7400	3.7400	-0.8345	26.15	0.16	-0.750			
0.3181	20355.82	3.7370	3.7370	-0.8338	26.16	0.17	-0.750			
0.3206	20515.52	3.7340	3.7340	-0.8358	26.16	0.17	-0.750			
0.3230	20674.63	3.7310	3.7311	-0.8375	26.16	0.17	-0.750			
0.3256	20839.36	3.7280	3.7280	-0.8555	26.17	0.18	-0.750			
0.3282	21003.16	3.7250	3.7251	-0.8621	26.17	0.18	-0.750			
0.3307	21167.95	3.7220	3.7219	-0.8749	26.17	0.18	-0.750			
0.3334	21336.39	3.7190	3.7190	-0.8893	26.17	0.18	-0.750			
0.3361	21508.59	3.7160	3.7159	-0.9044	26.17	0.18	-0.750			
0.3388	21683.98	3.7130	3.7130	-0.9202	26.17	0.18	-0.750			
0.3416	21864.08	3.7100	3.7100	-0.9391	26.17	0.18	-0.750			
0.3445	22047.39	3.7070	3.7070	-0.9544	26.17	0.18	-0.750			
0.3474	22232.85	3.7040	3.7040	-0.9690	26.17	0.18	-0.750			
0.3503	22418.55	3.7010	3.7010	-0.9803	26.17	0.18	-0.750			
0.3532	22607.42	3.6980	3.6982	-0.9988	26.17	0.18	-0.750			
0.3562	22799.71	3.6950	3.6949	-1.0198	26.17	0.18	-0.750			
0.3593	22996.79	3.6920	3.6919	-1.0374	26.17	0.18	-0.750			
0.3624	23196.00	3.6890	3.6891	-1.0588	26.17	0.18	-0.750			
0.3657	23405.61	3.6860	3.6861	-1.0887	26.17	0.18	-0.750			
0.3690	23618.66	3.6830	3.6831	-1.1050	26.16	0.17	-0.750			
0.3724	23832.39	3.6800	3.6799	-1.1233	26.16	0.17	-0.750			
0.3757	24044.85	3.6770	3.6770	-1.1466	26.15	0.16	-0.750			
0.3792	24267.42	3.6740	3.6739	-1.1751	26.15	0.16	-0.750			
0.3828	24496.53	3.6710	3.6709	-1.2038	26.14	0.15	-0.750			
0.3864	24732.38	3.6680	3.6680	-1.2256	26.14	0.15	-0.750			
0.3902	24970.87	3.6650	3.6652	-1.2577	26.13	0.14	-0.750			
0.3940	25216.85	3.6620	3.6620	-1.2839	26.12	0.13	-0.750			
0.3979	25463.12	3.6590	3.6590	-1.3083	26.12	0.13	-0.750			
0.4018	25714.37	3.6560	3.6561	-1.3428	26.11	0.12	-0.750			
0.4059	25977.19	3.6530	3.6530	-1.3724	26.10	0.11	-0.750			
0.4100	26242.10	3.6500	3.6500	-1.4058	26.10	0.11	-0.750			
0.4143	26516.57	3.6470	3.6471	-1.4569	26.09	0.10	-0.750			
0.4188	26801.96	3.6440	3.6439	-1.4751	26.08	0.09	-0.750			
0.4233	27091.04	3.6410	3.6406	-1.5142	26.08	0.09	-0.750			
0.4279	27385.01	3.6380	3.6384	-1.5456	26.07	0.08	-0.750			
0.4325	27682.94	3.6350	3.6349	-1.5770	26.06	0.07	-0.750			
0.4374	27990.97	3.6320	3.6320	-1.6217	26.05	0.06	-0.750			
0.4422	28299.22	3.6290	3.6292	-1.6485	26.05	0.06	-0.750			
0.4474	28630.49	3.6260	3.6258	-1.6956	26.04	0.05	-0.750			
0.4525	28959.23	3.6230	3.6231	-1.7292	26.03	0.04	-0.750	0.400	0.506	
0.4577	29295.12	3.6200	3.6202	-1.7695	26.02	0.03	-0.750			
0.4630	29633.95	3.6170	3.6170	-1.7994	26.01	0.02	-0.750			
0.4685	29986.50	3.6140	3.6137	-1.8182	26.01	0.02	-0.750			
0.4740	30338.79	3.6110	3.6113	-1.8259	26.00	0.01	-0.750			
0.4795	30687.33	3.6080	3.6080	-1.8569	26.00	0.01	-0.750			
0.4852	31053.30	3.6050	3.6050	-1.8876	25.99	-0.00	-0.750			
0.4908	31409.24	3.6020	3.6020	-1.9233	25.98	-0.01	-0.750			
0.4967	31788.89	3.5990	3.5990	-1.9585	25.97	-0.02	-0.750			
0.5026	32164.61	3.5960	3.5963	-2.0008	25.97	-0.02	-0.750			
0.5087	32557.71	3.5930	3.5931	-2.0579	25.97	-0.02	-0.750			
0.5149	32955.12	3.5900	3.5901	-2.1048	25.97	-0.02	-0.750			
0.5212	33357.78	3.5870	3.5871	-2.1402	25.97	-0.02	-0.750			
0.5278	33780.53	3.5840	3.5841	-2.1937	25.97	-0.02	-0.750			
0.5344	34201.56	3.5810	3.5810	-2.2197	25.96	-0.03	-0.750			
0.5413	34644.95	3.5780	3.5780	-2.2497	25.95	-0.04	-0.750			
0.5481	35075.90	3.5750	3.5751	-2.2517	25.95	-0.04	-0.750			
0.5548	35506.42	3.5720	3.5720	-2.2629	25.95	-0.04	-0.750			
0.5616	35939.52	3.5690	3.5690	-2.2700	25.95	-0.04	-0.750			
0.5684	36375.13	3.5660	3.5661	-2.2837	25.95	-0.04	-0.750			
0.5752	36815.85	3.5630	3.5629	-2.3026	25.95	-0.04	-0.750			
0.5822	37261.47	3.5600	3.5600	-2.3105	25.95	-0.04	-0.750			
0.5893	37712.31	3.5570	3.5569	-2.3158	25.95	-0.04	-0.750			
0.5962	38158.47	3.5540	3.5540	-2.3036	25.95	-0.04	-0.750			
0.6031	38597.25	3.5510	3.5511	-2.2742	25.95	-0.04	-0.750			
0.6099	39034.12	3.5480	3.5479	-2.2709	25.95	-0.04	-0.750			
0.6167	39467.17	3.5450	3.5449	-2.2479	25.95	-0.04	-0.750			
0.6234	39896.94	3.5420	3.5421	-2.2355	25.96	-0.03	-0.750			
0.6301	40325.90	3.5390	3.5390	-2.2193	25.96	-0.03	-0.750			
0.6368	40755.06	3.5360	3.5359	-2.1799	25.97	-0.02	-0.750			
0.6433	41171.32	3.5330	3.5331	-2.1491	25.98	-0.01	-0.750			
0.6498	41588.60	3.5300	3.5299	-2.1041	25.99	-0.00	-0.750			
0.6560	41981.22	3.5270	3.5268	-2.0507	26.00	0.01	-0.750			
0.6620	42368.28	3.5240	3.5243	-2.0117	26.01	0.02	-0.750			
0.6680	42751.56	3.5210	3.5211	-1.9681	26.01	0.02	-0.750			
0.6738	43126.17	3.5180	3.5179	-1.9097	26.01	0.02	-0.750			
0.6795	43489.16	3.5150	3.5151	-1.8548	26.01	0.02	-0.750			
0.6851	43843.81	3.5120	3.5120	-1.8121	26.02	0.03	-0.750			
0.6905	44190.32	3.5090	3.5091	-1.7557	26.03	0.04	-0.750			
0.6955	44514.91	3.5060	3.5061	-1.6691	26.05	0.06	-0.750			
0.7005	44829.80	3.5030	3.5031	-1.6129	26.06	0.07	-0.750			
0.7052	45135.63	3.5000	3.4999	-1.5560	26.08	0.09	-0.750			
0.7098	45426.94	3.4970	3.4970	-1.5003	26.09	0.10	-0.750			
0.7142	45705.87	3.4940	3.4940	-1.4455	26.11	0.12	-0.750			
0.7184	45978.42	3.4910	3.4910	-1.4011	26.13	0.14	-0.750			
0.7225	46242.01	3.4880	3.4880	-1.3535	26.15	0.16	-0.750			
0.7265	46497.63	3.4850	3.4851	-1.3103	26.17	0.18	-0.750			
0.7304	46742.96	3.4820	3.4819	-1.2630	26.18	0.19	-0.750			
0.7341	46981.69	3.4790	3.4790	-1.2216	26.19	0.20	-0.750			
0.7377	47210.47	3.4760	3.4760	-1.1844	26.20	0.21	-0.750			
0.7411	47433.30	3.4730	3.4730	-1.1466	26.22	0.23	-0.750			
0.7446	47652.00	3.4700	3.4700	-1.1123	26.23	0.24	-0.750			
0.7479	47862.88	3.4670	3.4670	-1.0752	26.25	0.26	-0.750			
0.7510	48065.98	3.4640	3.4641	-1.0395	26.26	0.27	-0.750			
0.7541	48260.39	3.4610	3.4609	-1.0112	26.28	0.29	-0.750			
0.7570	48450.55	3.4580	3.4580	-0.9758	26.29	0.30	-0.750			
0.7599	48634.45	3.4550	3.4549	-0.9430	26.29	0.30	-0.750			
0.7627	48810.47	3.4520	3.4519	-0.9221	26.30	0.31	-0.750			
0.7654	48985.34	3.4490	3.4492	-0.9088	26.31	0.32	-0.750			
0.7681	49155.59	3.4460	3.4459	-0.9045	26.32	0.33	-0.750			
0.7707	49324.87	3.4430	3.4430	-0.9007	26.33	0.34	-0.750			
0.7733	49494.10	3.4400	3.4400	-0.9077	26.34	0.35	-0.750			
0.7761	49671.65	3.4370	3.4370	-0.9405	26.35	0.36	-0.750			
0.7790	49853.90	3.4340	3.4340	-0.9695	26.36	0.37	-0.750			
0.7819	50042.06	3.4310	3.4310	-0.9966	26.37	0.38	-0.750			
0.7850	50237.04	3.4280	3.4279	-1.0267	26.37	0.38	-0.750			
0.7881	50438.65	3.4250	3.4250	-1.0539	26.38	0.39	-0.750			
0.7914	50646.92	3.4220	3.4221	-1.0741	26.39	0.40	-0.750			
0.7947	50859.17	3.4190	3.4189	-1.0836	26.40	0.41	-0.750			
0.7980	51070.97	3.4160	3.4160	-1.0719	26.41	0.42	-0.750			
0.8012	51278.65	3.4130	3.4131	-1.0590	26.42	0.43	-0.750			
0.8044	51481.18	3.4100	3.4100	-1.0354	26.43	0.44	-0.750			
0.8075	51679.54	3.4070	3.4069	-1.0033	26.44	0.45	-0.750			
0.8104	51867.84	3.4040	3.4039	-0.9685	26.45	0.46	-0.750			
0.8133	52049.88	3.4010	3.4010	-0.9325	26.46	0.47	-0.750			
0.8161	52227.63	3.3980	3.3981	-0.9023	26.46	0.47	-0.750			
0.8187	52396.75	3.3950	3.3949	-0.8718	26.47	0.48	-0.750			
0.8213	52560.32	3.3920	3.3920	-0.8348	26.48	0.49	-0.750			
0.8237	52716.73	3.3890	3.3889	-0.8013	26.49	0.50	-0.750			
0.8261	52868.83	3.3860	3.3860	-0.7718	26.50	0.51	-0.750			
0.8283	53013.69	3.3830	3.3829	-0.7394	26.50	0.51	-0.750			
0.8305	53152.59	3.3800	3.3800	-0.7110	26.51	0.52	-0.750			
0.8326	53284.67	3.3770	3.3770	-0.6839	26.52	0.53	-0.750			
0.8346	53413.19	3.3740	3.3740	-0.6566	26.52	0.53	-0.750			
0.8365	53538.08	3.3710	3.3710	-0.6351	26.53	0.54	-0.750			
0.8384	53656.88	3.3680	3.3680	-0.6096	26.54	0.55	-0.750			
0.8402	53771.85	3.3650	3.3651	-0.5866	26.54	0.55	-0.750			
0.8419	53881.94	3.3620	3.3620	-0.5623	26.55	0.56	-0.750			
0.8435	53987.07	3.3590	3.3590	-0.5407	26.55	0.56	-0.750			
0.8451	54087.82	3.3560	3.3560	-0.5180	26.56	0.57	-0.750			
0.8467	54185.90	3.3530	3.3530	-0.4998	26.56	0.57	-0.750			
0.8481	54279.42	3.3500	3.3500	-0.4799	26.57	0.58	-0.750			
0.8495	54369.78	3.3470	3.3470	-0.4625	26.57	0.58	-0.750			
0.8509	54456.64	3.3440	3.3439	-0.4442	26.58	0.59	-0.750			
0.8522	54540.61	3.3410	3.3410	-0.4264	26.58	0.59	-0.750			
0.8534	54620.17	3.3380	3.3380	-0.4107	26.59	0.60	-0.750			
0.8546	54697.21	3.3350	3.3350	-0.3960	26.59	0.60	-0.750			
0.8558	54771.65	3.3320	3.3319	-0.3810	26.60	0.61	-0.750			
0.8569	54842.86	3.3290	3.3290	-0.3664	26.60	0.61	-0.750			
0.8580	54911.75	3.3260	3.3261	-0.3533	26.61	0.62	-0.750			
0.8590	54978.61	3.3230	3.3229	-0.3404	26.61	0.62	-0.750			
0.8600	55042.66	3.3200	3.3200	-0.3284	26.62	0.63	-0.750			
0.8610	55104.14	3.3170	3.3170	-0.3148	26.62	0.63	-0.750			
0.8619	55162.94	3.3140	3.3140	-0.3052	26.63	0.64	-0.750			
0.8628	55220.56	3.3110	3.3110	-0.2965	26.63	0.64	-0.750			
0.8637	55275.91	3.3080	3.3080	-0.2878	26.64	0.65	-0.750			
0.8645	55330.47	3.3050	3.3050	-0.2799	26.64	0.65	-0.750			
0.8654	55383.61	3.3020	3.3020	-0.2730	26.64	0.65	-0.750			
0.8662	55435.32	3.2990	3.2990	-0.2655	26.65	0.66	-0.750			
0.8670	55485.92	3.2960	3.2961	-0.2584	26.65	0.66	-0.750			
0.8677	55534.19	3.2930	3.2930	-0.2503	26.66	0.67	-0.750			
0.8685	55581.58	3.2900	3.2900	-0.2433	26.66	0.67	-0.750			
0.8692	55627.41	3.2870	3.2870	-0.2372	26.67	0.68	-0.750			
0.8699	55672.05	3.2840	3.2841	-0.2308	26.67	0.68	-0.750			
0.8706	55715.80	3.2810	3.2810	-0.2259	26.68	0.69	-0.750			
0.8712	55758.19	3.2780	3.2779	-0.2210	26.68	0.69	-0.750			
0.8719	55800.29	3.2750	3.2750	-0.2164	26.69	0.70	-0.750			
0.8725	55841.45	3.2720	3.2720	-0.2123	26.69	0.70	-0.750			
0.8732	55881.92	3.2690	3.2690	-0.2077	26.69	0.70	-0.750			
0.8738	55921.50	3.2660	3.2661	-0.2036	26.70	0.71	-0.750			
0.8744	55959.90	3.2630	3.2630	-0.1991	26.70	0.71	-0.750			
0.8750	55997.72	3.2600	3.2600	-0.1949	26.71	0.72	-0.750			
0.8755	56034.54	3.2570	3.2570	-0.1911	26.71	0.72	-0.750			
0.8761	56070.43	3.2540	3.2540	-0.1875	26.71	0.72	-0.750			
0.8767	56106.23	3.2510	3.2510	-0.1848	26.72	0.73	-0.750			
0.8772	56141.45	3.2480	3.2482	-0.1821	26.72	0.73	-0.750			
0.8778	56176.41	3.2450	3.2449	-0.1782	26.73	0.74	-0.750			
0.8783	56210.04	3.2420	3.2421	-0.1758	26.73	0.74	-0.750			
0.8788	56243.46	3.2390	3.2390	-0.1733	26.74	0.75	-0.750			
0.8793	56276.37	3.2360	3.2360	-0.1706	26.74	0.75	-0.750			
0.8798	56308.63	3.2330	3.2329	-0.1687	26.75	0.76	-0.750			
0.8803	56340.98	3.2300	3.2300	-0.1656	26.75	0.76	-0.750			
0.8808	56372.54	3.2270	3.2270	-0.1640	26.76	0.77	-0.750			
0.8813	56403.82	3.2240	3.2240	-0.1618	26.76	0.77	-0.750			
0.8818	56434.91	3.2210	3.2211	-0.1604	26.77	0.78	-0.750			
0.8823	56465.23	3.2180	3.2178	-0.1571	26.78	0.79	-0.750			
0.8827	56495.27	3.2150	3.2150	-0.1552	26.78	0.79	-0.750			
0.8832	56524.77	3.2120	3.2120	-0.1538	26.79	0.80	-0.750			
0.8837	56553.96	3.2090	3.2091	-0.1520	26.79	0.80	-0.750			
0.8841	56583.26	3.2060	3.2059	-0.1513	26.80	0.81	-0.750			
0.8846	56612.13	3.2030	3.2030	-0.1494	26.80	0.81	-0.750			
0.8850	56640.32	3.2000	3.1999	-0.1476	26.81	0.82	-0.750			
0.8854	56668.67	3.1970	3.1970	-0.1460	26.81	0.82	-0.750			
0.8859	56696.91	3.1940	3.1940	-0.1448	26.81	0.82	-0.750			
0.8863	56724.40	3.1910	3.1910	-0.1432	26.82	0.83	-0.750			
0.8867	56751.51	3.1880	3.1880	-0.1415	26.82	0.83	-0.750			
0.8872	56778.58	3.1850	3.1850	-0.1399	26.82	0.83	-0.750			
0.8876	56805.23	3.1820	3.1820	-0.1383	26.83	0.84	-0.750			
0.8880	56831.60	3.1790	3.1790	-0.1372	26.83	0.84	-0.750			
0.8884	56857.86	3.1760	3.1761	-0.1357	26.83	0.84	-0.750			
0.8888	56883.77	3.1730	3.1729	-0.1347	26.83	0.84	-0.750			
0.8892	56909.51	3.1700	3.1701	-0.1334	26.84	0.85	-0.750			
0.8896	56934.79	3.1670	3.1670	-0.1325	26.84	0.85	-0.750			
0.8900	56960.20	3.1640	3.1641	-0.1315	26.84	0.85	-0.750			
0.8904	56985.42	3.1610	3.1609	-0.1308	26.85	0.86	-0.750			
0.8908	57010.48	3.1580	3.1580	-0.1295	26.86	0.87	-0.750			
0.8912	57035.25	3.1550	3.1551	-0.1283	26.86	0.87	-0.750			
0.8916	57060.00	3.1520	3.1520	-0.1274	26.87	0.88	-0.750			
0.8919	57084.04	3.1490	3.1490	-0.1262	26.87	0.88	-0.750			
0.8923	57108.24	3.1460	3.1459	-0.1252	26.88	0.89	-0.750			
0.8927	57132.07	3.1430	3.1430	-0.1240	26.88	0.89	-0.750			
0.8931	57155.81	3.1400	3.1400	-0.1233	26.89	0.90	-0.750			
0.8934	57179.40	3.1370	3.1371	-0.1225	26.89	0.90	-0.750			
0.8938	57202.98	3.1340	3.1340	-0.1215	26.90	0.91	-0.750			
0.8942	57226.24	3.1310	3.1310	-0.1204	26.90	0.91	-0.750			
0.8945	57249.15	3.1280	3.1281	-0.1194	26.91	0.92	-0.750			
0.8949	57271.84	3.1250	3.1250	-0.1183	26.92	0.93	-0.750			
0.8952	57294.43	3.1220	3.1220	-0.1177	26.92	0.93	-0.750			
0.8956	57316.98	3.1190	3.1189	-0.1171	26.93	0.94	-0.750			
0.8959	57339.35	3.1160	3.1160	-0.1161	26.93	0.94	-0.750			
0.8963	57361.58	3.1130	3.1130	-0.1155	26.94	0.95	-0.750			
0.8966	57383.97	3.1100	3.1100	-0.1148	26.94	0.95	-0.750			
0.8970	57405.90	3.1070	3.1070	-0.1136	26.95	0.96	-0.750			
0.8973	57427.45	3.1040	3.1039	-0.1131	26.95	0.96	-0.750			
0.8976	57449.09	3.1010	3.1011	-0.1124	26.96	0.97	-0.750			
0.8980	57470.49	3.0980	3.0980	-0.1114	26.96	0.97	-0.750			
0.8983	57491.83	3.0950	3.0949	-0.1109	26.96	0.97	-0.750			
0.8986	57513.14	3.0920	3.0920	-0.1102	26.97	0.98	-0.750			
0.8990	57534.24	3.0890	3.0891	-0.1095	26.97	0.98	-0.750			
0.8993	57555.29	3.0860	3.0860	-0.1092	26.98	0.99	-0.750			
0.8996	57576.17	3.0830	3.0830	-0.1084	26.98	0.99	-0.750			
0.8999	57596.64	3.0800	3.0799	-0.1076	26.99	1.00	-0.750			
0.9003	57617.28	3.0770	3.0770	-0.1074	26.99	1.00	-0.750			
0.9006	57638.04	3.0740	3.0740	-0.1067	27.00	1.01	-0.750			
0.9009	57658.47	3.0710	3.0710	-0.1061	27.00	1.01	-0.750			
0.9012	57678.93	3.0680	3.0681	-0.1055	27.01	1.02	-0.750			
0.9015	57699.08	3.0650	3.0650	-0.1044	27.01	1.02	-0.750			
0.9019	57719.00	3.0620	3.0621	-0.1037	27.02	1.03	-0.750			
0.9022	57738.82	3.0590	3.0589	-0.1028	27.02	1.03	-0.750			
0.9025	57758.24	3.0560	3.0560	-0.1021	27.02	1.03	-0.750			
0.9028	57777.82	3.0530	3.0530	-0.1018	27.03	1.04	-0.750			
0.9031	57797.33	3.0500	3.0500	-0.1015	27.03	1.04	-0.750			
0.9034	57816.80	3.0470	3.0469	-0.1012	27.04	1.05	-0.750			
0.9037	57836.39	3.0440	3.0440	-0.1006	27.04	1.05	-0.750			
0.9040	57855.62	3.0410	3.0410	-0.0998	27.05	1.06	-0.750			
0.9043	57874.70	3.0380	3.0380	-0.0995	27.05	1.06	-0.750			
0.9046	57893.75	3.0350	3.0351	-0.0989	27.05	1.06	-0.750			
0.9049	57912.58	3.0320	3.0321	-0.0983	27.06	1.07	-0.750			
0.9052	57931.41	3.0290	3.0288	-0.0979	27.06	1.07	-0.750			
0.9055	57950.11	3.0260	3.0261	-0.0972	27.07	1.08	-0.750			
0.9058	57968.75	3.0230	3.0230	-0.0969	27.07	1.08	-0.750			
0.9061	57987.57	3.0200	3.0200	-0.0965	27.07	1.08	-0.750			
0.9063	58006.00	3.0170	3.0170	-0.0955	27.08	1.09	-0.750			
0.9066	58024.27	3.0140	3.0140	-0.0945	27.08	1.09	-0.750			
0.9069	58042.32	3.0110	3.0110	-0.0936	27.09	1.10	-0.750			
0.9072	58060.26	3.0080	3.0080	-0.0925	27.09	1.10	-0.750			
0.9075	58077.92	3.0050	3.0050	-0.0914	27.09	1.10	-0.751			
0.9077	58095.35	3.0020	3.0020	-0.0906	27.10	1.11	-0.751			
