Ah_balance (normalized)	Ah_balance (mAh)	Voltage - fit (V)	Voltage -  interpolate (V)	dQ/dV (1/V)	Temperature (°C)	Temperature - diff (°C)	Current (C)	R_DC 0ms (mOhm)	R_DC 50ms (mOhm)	R_DC 50 ms PEC (mOhm)
0.0003	19.29	4.1590	4.1591	-0.1233	26.00	0.01	-0.750			
0.0007	45.70	4.1560	4.1559	-0.1582	26.00	0.01	-0.750			
0.0013	80.32	4.1530	4.1530	-0.1959	26.00	0.01	-0.750			
0.0019	121.52	4.1500	4.1500	-0.2322	26.00	0.01	-0.750			
0.0027	169.63	4.1470	4.1470	-0.2683	26.00	0.01	-0.750			
0.0035	225.25	4.1440	4.1440	-0.3027	25.99	0.00	-0.750			
0.0045	287.12	4.1410	4.1410	-0.3316	25.99	0.00	-0.750			
0.0055	354.08	4.1380	4.1381	-0.3644	25.99	-0.00	-0.750			
0.0067	427.12	4.1350	4.1351	-0.3945	25.98	-0.01	-0.750			
0.0079	507.19	4.1320	4.1319	-0.4194	25.98	-0.01	-0.750			
0.0092	590.30	4.1290	4.1289	-0.4455	25.98	-0.01	-0.750			
0.0106	678.21	4.1260	4.1262	-0.4718	25.97	-0.02	-0.750			
0.0121	772.34	4.1230	4.1231	-0.4974	25.97	-0.02	-0.750			
0.0136	872.05	4.1200	4.1198	-0.5194	25.96	-0.03	-0.750			
0.0152	973.46	4.1170	4.1170	-0.5332	25.96	-0.03	-0.750			
0.0169	1078.95	4.1140	4.1143	-0.5458	25.95	-0.04	-0.750			
0.0185	1185.20	4.1110	4.1109	-0.5578	25.95	-0.04	-0.750			
0.0202	1292.57	4.1080	4.1080	-0.5678	25.94	-0.05	-0.750			
0.0219	1401.85	4.1050	4.1050	-0.5803	25.94	-0.05	-0.750			
0.0237	1513.75	4.1020	4.1019	-0.5926	25.94	-0.05	-0.750			
0.0255	1631.06	4.0990	4.0990	-0.6053	25.94	-0.05	-0.750			
0.0273	1749.22	4.0960	4.0961	-0.6121	25.93	-0.06	-0.750			
0.0292	1869.40	4.0930	4.0930	-0.6210	25.93	-0.06	-0.750			
0.0311	1987.87	4.0900	4.0900	-0.6270	25.93	-0.06	-0.750			
0.0329	2107.88	4.0870	4.0869	-0.6301	25.93	-0.06	-0.750			
0.0348	2227.95	4.0840	4.0840	-0.6426	25.93	-0.06	-0.750			
0.0368	2353.28	4.0810	4.0810	-0.6474	25.92	-0.07	-0.750			
0.0388	2481.06	4.0780	4.0780	-0.6538	25.92	-0.07	-0.750			
0.0407	2607.32	4.0750	4.0748	-0.6531	25.92	-0.07	-0.750			
0.0427	2732.24	4.0720	4.0722	-0.6550	25.92	-0.07	-0.750			
0.0446	2856.49	4.0690	4.0690	-0.6608	25.92	-0.07	-0.750			
0.0466	2982.12	4.0660	4.0658	-0.6672	25.92	-0.07	-0.750			
0.0486	3109.46	4.0630	4.0630	-0.6688	25.92	-0.07	-0.750			
0.0507	3243.81	4.0600	4.0600	-0.6774	25.92	-0.07	-0.750			
0.0528	3376.67	4.0570	4.0570	-0.6837	25.92	-0.07	-0.750			
0.0548	3507.89	4.0540	4.0542	-0.6845	25.92	-0.07	-0.750			
0.0568	3637.06	4.0510	4.0509	-0.6808	25.92	-0.07	-0.750			
0.0588	3766.12	4.0480	4.0480	-0.6865	25.92	-0.07	-0.750			
0.0609	3897.06	4.0450	4.0452	-0.6924	25.92	-0.07	-0.750			
0.0630	4034.43	4.0420	4.0418	-0.7032	25.92	-0.07	-0.750			
0.0651	4169.19	4.0390	4.0390	-0.7059	25.92	-0.07	-0.750			
0.0673	4305.86	4.0360	4.0361	-0.7036	25.92	-0.07	-0.750			
0.0694	4440.99	4.0330	4.0330	-0.7032	25.92	-0.07	-0.750			
0.0715	4574.92	4.0300	4.0300	-0.7078	25.92	-0.07	-0.750			
0.0736	4710.94	4.0270	4.0270	-0.7065	25.93	-0.06	-0.750			
0.0757	4846.99	4.0240	4.0239	-0.7100	25.93	-0.06	-0.750			
0.0779	4984.23	4.0210	4.0210	-0.7118	25.93	-0.06	-0.750			
0.0800	5121.95	4.0180	4.0181	-0.7116	25.93	-0.06	-0.750			
0.0822	5259.71	4.0150	4.0151	-0.7127	25.93	-0.06	-0.750			
0.0843	5394.32	4.0120	4.0120	-0.7135	25.93	-0.06	-0.750			
0.0864	5532.76	4.0090	4.0090	-0.7029	25.93	-0.06	-0.750			
0.0886	5667.69	4.0060	4.0059	-0.7038	25.93	-0.06	-0.750			
0.0906	5800.31	4.0030	4.0031	-0.7029	25.93	-0.06	-0.750			
0.0927	5935.60	4.0000	3.9998	-0.7037	25.93	-0.06	-0.750			
0.0948	6069.21	3.9970	3.9969	-0.7116	25.93	-0.06	-0.750			
0.0970	6204.96	3.9940	3.9941	-0.7228	25.94	-0.05	-0.750			
0.0992	6346.10	3.9910	3.9910	-0.7329	25.94	-0.05	-0.750			
0.1015	6493.12	3.9880	3.9879	-0.7414	25.95	-0.04	-0.750			
0.1037	6635.39	3.9850	3.9850	-0.7388	25.95	-0.04	-0.750			
0.1059	6777.40	3.9820	3.9819	-0.7399	25.95	-0.04	-0.750			
0.1081	6919.04	3.9790	3.9790	-0.7388	25.95	-0.04	-0.750			
0.1103	7057.92	3.9760	3.9759	-0.7375	25.95	-0.04	-0.750			
0.1125	7196.92	3.9730	3.9731	-0.7408	25.95	-0.04	-0.750			
0.1148	7344.37	3.9700	3.9699	-0.7461	25.95	-0.04	-0.750			
0.1170	7487.92	3.9670	3.9670	-0.7474	25.95	-0.04	-0.750			
0.1192	7631.72	3.9640	3.9641	-0.7475	25.95	-0.04	-0.750			
0.1215	7773.73	3.9610	3.9610	-0.7524	25.96	-0.03	-0.750			
0.1237	7917.94	3.9580	3.9580	-0.7551	25.96	-0.03	-0.750			
0.1260	8063.91	3.9550	3.9550	-0.7571	25.96	-0.03	-0.750			
0.1283	8210.39	3.9520	3.9519	-0.7573	25.97	-0.02	-0.750			
0.1306	8357.02	3.9490	3.9490	-0.7612	25.97	-0.02	-0.750			
0.1329	8502.56	3.9460	3.9461	-0.7614	25.97	-0.02	-0.750			
0.1351	8648.81	3.9430	3.9429	-0.7642	25.97	-0.02	-0.750			
0.1374	8795.52	3.9400	3.9400	-0.7591	25.98	-0.01	-0.750			
0.1397	8942.24	3.9370	3.9369	-0.7623	25.98	-0.01	-0.750			
0.1420	9089.58	3.9340	3.9342	-0.7642	25.98	-0.01	-0.750			
0.1443	9235.20	3.9310	3.9309	-0.7692	25.99	-0.00	-0.750			
0.1466	9381.90	3.9280	3.9279	-0.7721	25.99	0.00	-0.750			
0.1489	9531.24	3.9250	3.9249	-0.7763	26.00	0.01	-0.750			
0.1513	9682.08	3.9220	3.9220	-0.7828	26.00	0.01	-0.750			
0.1536	9833.54	3.9190	3.9190	-0.7838	26.01	0.02	-0.750			
0.1560	9983.99	3.9160	3.9159	-0.7820	26.01	0.02	-0.750			
0.1583	10132.81	3.9130	3.9130	-0.7819	26.01	0.02	-0.750			
0.1606	10281.40	3.9100	3.9100	-0.7828	26.01	0.02	-0.750			
0.1630	10431.02	3.9070	3.9070	-0.7814	26.01	0.02	-0.750			
0.1654	10583.35	3.9040	3.9039	-0.7847	26.01	0.02	-0.750			
0.1677	10733.19	3.9010	3.9011	-0.7884	26.01	0.02	-0.750			
0.1701	10885.42	3.8980	3.8979	-0.7903	26.01	0.02	-0.750			
0.1725	11038.07	3.8950	3.8950	-0.7906	26.02	0.03	-0.750			
0.1749	11190.91	3.8920	3.8920	-0.7864	26.02	0.03	-0.750			
0.1772	11340.78	3.8890	3.8890	-0.7883	26.03	0.04	-0.750			
0.1796	11492.22	3.8860	3.8862	-0.7920	26.03	0.04	-0.750			
0.1819	11642.64	3.8830	3.8829	-0.7952	26.03	0.04	-0.750			
0.1843	11794.67	3.8800	3.8799	-0.8033	26.04	0.05	-0.750			
0.1867	11951.69	3.8770	3.8770	-0.8051	26.04	0.05	-0.750			
0.1892	12109.12	3.8740	3.8740	-0.8112	26.05	0.06	-0.750			
0.1916	12264.71	3.8710	3.8712	-0.8086	26.05	0.06	-0.750			
0.1940	12418.35	3.8680	3.8679	-0.8079	26.05	0.06	-0.750			
0.1964	12571.88	3.8650	3.8648	-0.8053	26.06	0.07	-0.750			
0.1988	12726.23	3.8620	3.8620	-0.8064	26.06	0.07	-0.750			
0.2013	12880.25	3.8590	3.8591	-0.8064	26.06	0.07	-0.750			
0.2037	13039.65	3.8560	3.8560	-0.8118	26.07	0.08	-0.750			
0.2062	13195.14	3.8530	3.8529	-0.8002	26.07	0.08	-0.750			
0.2085	13345.12	3.8500	3.8500	-0.8025	26.07	0.08	-0.750			
0.2109	13499.03	3.8470	3.8470	-0.7988	26.07	0.08	-0.750			
0.2133	13651.87	3.8440	3.8439	-0.7978	26.07	0.08	-0.750			
0.2157	13806.09	3.8410	3.8408	-0.7959	26.07	0.08	-0.750			
0.2181	13959.03	3.8380	3.8379	-0.7949	26.07	0.08	-0.750			
0.2205	14110.13	3.8350	3.8351	-0.8025	26.08	0.09	-0.750			
0.2229	14267.06	3.8320	3.8319	-0.7984	26.09	0.10	-0.750			
0.2253	14417.02	3.8290	3.8289	-0.7880	26.10	0.11	-0.750			
0.2277	14572.12	3.8260	3.8260	-0.7920	26.10	0.11	-0.750			
0.2301	14723.67	3.8230	3.8232	-0.7867	26.11	0.12	-0.750			
0.2324	14874.45	3.8200	3.8199	-0.7801	26.11	0.12	-0.750			
0.2347	15022.47	3.8170	3.8170	-0.7759	26.11	0.12	-0.750			
0.2370	15168.37	3.8140	3.8140	-0.7703	26.12	0.13	-0.750			
0.2394	15319.79	3.8110	3.8109	-0.7774	26.12	0.13	-0.750			
0.2417	15468.74	3.8080	3.8079	-0.7697	26.12	0.13	-0.750			
0.2440	15616.36	3.8050	3.8050	-0.7671	26.12	0.13	-0.750			
0.2463	15762.99	3.8020	3.8021	-0.7671	26.12	0.13	-0.750			
0.2486	15910.46	3.7990	3.7989	-0.7614	26.13	0.14	-0.750			
0.2509	16056.11	3.7960	3.7960	-0.7535	26.13	0.14	-0.750			
0.2531	16199.39	3.7930	3.7930	-0.7522	26.13	0.14	-0.750			
0.2554	16343.08	3.7900	3.7902	-0.7522	26.13	0.14	-0.750			
0.2576	16488.39	3.7870	3.7869	-0.7498	26.13	0.14	-0.750			
0.2599	16631.49	3.7840	3.7839	-0.7475	26.14	0.15	-0.750			
0.2621	16775.70	3.7810	3.7811	-0.7420	26.14	0.15	-0.750			
0.2644	16919.54	3.7780	3.7779	-0.7402	26.15	0.16	-0.750			
0.2666	17062.20	3.7750	3.7751	-0.7369	26.15	0.16	-0.750			
0.2688	17201.27	3.7720	3.7719	-0.7319	26.15	0.16	-0.750			
0.2709	17339.98	3.7690	3.7690	-0.7275	26.16	0.17	-0.750			
0.2731	17479.59	3.7660	3.7659	-0.7317	26.16	0.17	-0.750			
0.2753	17619.44	3.7630	3.7631	-0.7289	26.16	0.17	-0.750			
0.2775	17761.91	3.7600	3.7599	-0.7357	26.17	0.18	-0.750			
0.2797	17902.22	3.7570	3.7571	-0.7363	26.17	0.18	-0.750			
0.2819	18043.94	3.7540	3.7540	-0.7371	26.17	0.18	-0.750			
0.2841	18184.85	3.7510	3.7509	-0.7427	26.18	0.19	-0.750			
0.2864	18327.76	3.7480	3.7480	-0.7482	26.18	0.19	-0.750			
0.2886	18471.88	3.7450	3.7450	-0.7562	26.18	0.19	-0.750			
0.2909	18617.31	3.7420	3.7420	-0.7660	26.19	0.20	-0.750			
0.2932	18765.10	3.7390	3.7391	-0.7715	26.19	0.20	-0.750			
0.2955	18913.06	3.7360	3.7360	-0.7877	26.20	0.21	-0.750			
0.2979	19067.68	3.7330	3.7329	-0.7947	26.20	0.21	-0.750			
0.3003	19220.29	3.7300	3.7300	-0.8033	26.20	0.21	-0.750			
0.3027	19374.81	3.7270	3.7270	-0.8184	26.21	0.22	-0.750			
0.3052	19533.16	3.7240	3.7241	-0.8293	26.21	0.22	-0.750			
0.3077	19693.78	3.7210	3.7208	-0.8388	26.21	0.22	-0.750			
0.3102	19855.02	3.7180	3.7181	-0.8596	26.21	0.22	-0.750			
0.3128	20019.80	3.7150	3.7150	-0.8742	26.21	0.22	-0.750			
0.3155	20192.71	3.7120	3.7119	-0.8928	26.21	0.22	-0.750			
0.3182	20365.71	3.7090	3.7091	-0.9068	26.21	0.22	-0.750			
0.3209	20539.46	3.7060	3.7060	-0.9208	26.21	0.22	-0.750			
0.3238	20720.01	3.7030	3.7029	-0.9337	26.20	0.21	-0.750			
0.3265	20898.65	3.7000	3.7000	-0.9437	26.20	0.21	-0.750			
0.3294	21080.72	3.6970	3.6972	-0.9633	26.20	0.21	-0.750			
0.3323	21267.95	3.6940	3.6940	-0.9885	26.20	0.21	-0.750			
0.3353	21461.45	3.6910	3.6909	-1.0083	26.20	0.21	-0.750			
0.3384	21656.26	3.6880	3.6880	-1.0195	26.19	0.20	-0.750			
0.3415	21853.11	3.6850	3.6849	-1.0395	26.19	0.20	-0.750			
0.3446	22056.56	3.6820	3.6820	-1.0607	26.19	0.20	-0.750			
0.3478	22260.63	3.6790	3.6788	-1.0740	26.19	0.20	-0.750			
0.3510	22465.93	3.6760	3.6760	-1.0909	26.18	0.19	-0.750			
0.3544	22678.88	3.6730	3.6729	-1.1172	26.18	0.19	-0.750			
0.3578	22896.91	3.6700	3.6700	-1.1430	26.18	0.19	-0.750			
0.3612	23119.42	3.6670	3.6670	-1.1607	26.17	0.18	-0.750			
0.3647	23340.76	3.6640	3.6639	-1.1852	26.17	0.18	-0.750			
0.3683	23571.74	3.6610	3.6611	-1.2099	26.17	0.18	-0.750			
0.3720	23806.44	3.6580	3.6579	-1.2302	26.16	0.17	-0.750			
0.3757	24044.28	3.6550	3.6549	-1.2496	26.16	0.17	-0.750			
0.3794	24284.00	3.6520	3.6523	-1.2709	26.15	0.16	-0.750			
0.3834	24535.23	3.6490	3.6489	-1.3018	26.14	0.15	-0.750			
0.3873	24786.23	3.6460	3.6460	-1.3250	26.14	0.15	-0.750			
0.3913	25040.12	3.6430	3.6431	-1.3567	26.13	0.14	-0.750			
0.3954	25303.95	3.6400	3.6400	-1.3910	26.12	0.13	-0.750			
0.3996	25576.24	3.6370	3.6369	-1.4127	26.12	0.13	-0.750			
0.4040	25853.27	3.6340	3.6341	-1.4378	26.11	0.12	-0.750			
0.4083	26131.44	3.6310	3.6310	-1.4632	26.10	0.11	-0.750			
0.4127	26412.43	3.6280	3.6279	-1.5133	26.10	0.11	-0.750			
0.4173	26706.15	3.6250	3.6252	-1.5371	26.09	0.10	-0.750			
0.4220	27005.94	3.6220	3.6222	-1.5478	26.09	0.10	-0.750			
0.4267	27311.48	3.6190	3.6191	-1.5781	26.08	0.09	-0.750			
0.4315	27613.70	3.6160	3.6159	-1.6181	26.08	0.09	-0.750			
0.4363	27924.72	3.6130	3.6129	-1.6595	26.07	0.08	-0.750	0.402	0.554	
0.4413	28245.03	3.6100	3.6099	-1.6854	26.07	0.08	-0.750			
0.4464	28572.64	3.6070	3.6070	-1.7114	26.06	0.07	-0.750			
0.4517	28909.87	3.6040	3.6040	-1.7423	26.05	0.06	-0.750			
0.4571	29252.38	3.6010	3.6006	-1.7736	26.05	0.06	-0.750			
0.4623	29590.36	3.5980	3.5982	-1.8088	26.05	0.06	-0.750			
0.4677	29934.77	3.5950	3.5951	-1.8225	26.05	0.06	-0.750			
0.4733	30291.00	3.5920	3.5922	-1.8656	26.04	0.05	-0.750			
0.4789	30650.52	3.5890	3.5892	-1.9005	26.04	0.05	-0.750			
0.4847	31022.76	3.5860	3.5859	-1.9410	26.04	0.05	-0.750			
0.4907	31404.15	3.5830	3.5831	-1.9854	26.03	0.04	-0.750			
0.4967	31786.82	3.5800	3.5799	-2.0181	26.03	0.04	-0.750			
0.5028	32177.78	3.5770	3.5770	-2.0355	26.03	0.04	-0.750			
0.5090	32575.77	3.5740	3.5740	-2.0491	26.02	0.03	-0.750			
0.5152	32970.11	3.5710	3.5710	-2.0686	26.01	0.02	-0.750			
0.5214	33368.44	3.5680	3.5681	-2.0862	26.01	0.02	-0.750			
0.5277	33770.04	3.5650	3.5650	-2.1052	26.01	0.02	-0.750			
0.5340	34173.92	3.5620	3.5619	-2.1106	26.01	0.02	-0.750			
0.5404	34584.93	3.5590	3.5590	-2.1249	26.01	0.02	-0.750			
0.5468	34997.21	3.5560	3.5560	-2.1367	26.01	0.02	-0.750			
0.5532	35407.15	3.5530	3.5529	-2.1492	26.01	0.02	-0.750			
0.5597	35819.33	3.5500	3.5499	-2.1440	26.01	0.02	-0.750			
0.5662	36237.73	3.5470	3.5470	-2.1278	26.01	0.02	-0.750			
0.5725	36642.66	3.5440	3.5440	-2.1246	26.01	0.02	-0.750			
0.5789	37048.72	3.5410	3.5411	-2.0930	26.02	0.03	-0.750			
0.5852	37449.73	3.5380	3.5381	-2.0826	26.02	0.03	-0.750			
0.5913	37845.62	3.5350	3.5349	-2.0708	26.03	0.04	-0.750			
0.5975	38240.35	3.5320	3.5318	-2.0392	26.03	0.04	-0.750			
0.6037	38638.42	3.5290	3.5290	-2.0151	26.04	0.05	-0.750			
0.6098	39024.06	3.5260	3.5261	-1.9825	26.04	0.05	-0.750			
0.6156	39398.89	3.5230	3.5229	-1.9307	26.05	0.06	-0.750			
0.6214	39768.25	3.5200	3.5200	-1.8828	26.06	0.07	-0.750			
0.6269	40124.70	3.5170	3.5170	-1.8285	26.07	0.08	-0.750			
0.6324	40472.12	3.5140	3.5138	-1.7927	26.08	0.09	-0.750			
0.6377	40815.38	3.5110	3.5110	-1.7547	26.09	0.10	-0.750			
0.6430	41150.67	3.5080	3.5080	-1.7050	26.09	0.10	-0.750			
0.6480	41470.83	3.5050	3.5052	-1.6432	26.11	0.12	-0.750			
0.6528	41781.84	3.5020	3.5020	-1.5882	26.12	0.13	-0.750			
0.6576	42084.90	3.4990	3.4989	-1.5363	26.14	0.15	-0.750			
0.6621	42371.32	3.4960	3.4959	-1.4819	26.15	0.16	-0.750			
0.6664	42648.70	3.4930	3.4930	-1.4414	26.17	0.18	-0.750			
0.6706	42918.91	3.4900	3.4899	-1.3937	26.18	0.19	-0.750			
0.6748	43185.87	3.4870	3.4869	-1.3566	26.19	0.20	-0.750			
0.6788	43441.13	3.4840	3.4843	-1.3142	26.21	0.22	-0.750			
0.6826	43687.57	3.4810	3.4809	-1.2761	26.22	0.23	-0.750			
0.6864	43931.20	3.4780	3.4779	-1.2440	26.24	0.25	-0.750			
0.6901	44165.79	3.4750	3.4750	-1.2041	26.26	0.27	-0.750			
0.6936	44391.21	3.4720	3.4720	-1.1691	26.28	0.29	-0.750			
0.6972	44619.63	3.4690	3.4690	-1.1399	26.29	0.30	-0.750			
0.7005	44833.87	3.4660	3.4660	-1.1052	26.30	0.31	-0.750			
0.7038	45042.00	3.4630	3.4631	-1.0673	26.31	0.32	-0.750			
0.7069	45242.16	3.4600	3.4598	-1.0380	26.32	0.33	-0.750			
0.7100	45437.97	3.4570	3.4569	-1.0028	26.34	0.35	-0.750			
0.7129	45628.20	3.4540	3.4540	-0.9703	26.35	0.36	-0.750			
0.7158	45810.34	3.4510	3.4509	-0.9351	26.36	0.37	-0.750			
0.7186	45989.32	3.4480	3.4480	-0.9173	26.38	0.39	-0.750			
0.7213	46160.59	3.4450	3.4450	-0.8942	26.39	0.40	-0.750			
0.7239	46327.72	3.4420	3.4419	-0.8731	26.40	0.41	-0.750			
0.7264	46491.39	3.4390	3.4390	-0.8547	26.42	0.43	-0.750			
0.7290	46656.29	3.4360	3.4360	-0.8570	26.43	0.44	-0.750			
0.7315	46817.54	3.4330	3.4330	-0.8608	26.43	0.44	-0.750			
0.7341	46981.63	3.4300	3.4299	-0.8635	26.44	0.45	-0.750			
0.7367	47147.41	3.4270	3.4269	-0.8670	26.45	0.46	-0.750			
0.7393	47314.21	3.4240	3.4240	-0.8787	26.45	0.46	-0.750			
0.7420	47485.93	3.4210	3.4213	-0.8964	26.46	0.47	-0.750			
0.7447	47658.73	3.4180	3.4180	-0.9103	26.47	0.48	-0.750			
0.7474	47834.68	3.4150	3.4149	-0.9125	26.49	0.50	-0.750			
0.7502	48011.47	3.4120	3.4120	-0.9195	26.50	0.51	-0.750			
0.7530	48191.36	3.4090	3.4091	-0.9240	26.51	0.52	-0.750			
0.7558	48370.49	3.4060	3.4060	-0.9181	26.52	0.53	-0.750			
0.7585	48546.33	3.4030	3.4029	-0.9067	26.53	0.54	-0.750			
0.7612	48719.49	3.4000	3.4000	-0.8916	26.53	0.54	-0.750			
0.7639	48889.17	3.3970	3.3970	-0.8717	26.54	0.55	-0.750			
0.7665	49056.74	3.3940	3.3939	-0.8536	26.54	0.55	-0.750			
0.7691	49219.31	3.3910	3.3910	-0.8279	26.55	0.56	-0.750			
0.7715	49375.21	3.3880	3.3880	-0.8071	26.55	0.56	-0.750			
0.7739	49528.53	3.3850	3.3850	-0.7816	26.56	0.57	-0.750			
0.7762	49675.83	3.3820	3.3819	-0.7541	26.57	0.58	-0.750			
0.7784	49818.75	3.3790	3.3790	-0.7279	26.58	0.59	-0.750			
0.7806	49955.72	3.3760	3.3761	-0.7032	26.58	0.59	-0.750			
0.7826	50088.08	3.3730	3.3730	-0.6781	26.59	0.60	-0.750			
0.7846	50215.50	3.3700	3.3700	-0.6529	26.60	0.61	-0.750			
0.7865	50336.04	3.3670	3.3670	-0.6296	26.60	0.61	-0.750			
0.7884	50456.78	3.3640	3.3639	-0.6110	26.61	0.62	-0.750			
0.7902	50572.44	3.3610	3.3610	-0.5908	26.61	0.62	-0.750			
0.7919	50684.03	3.3580	3.3581	-0.5690	26.62	0.63	-0.750			
0.7936	50790.98	3.3550	3.3550	-0.5479	26.63	0.64	-0.750			
0.7952	50894.58	3.3520	3.3519	-0.5286	26.64	0.65	-0.750			
0.7968	50992.24	3.3490	3.3490	-0.5106	26.64	0.65	-0.750			
0.7982	51087.88	3.3460	3.3460	-0.4957	26.65	0.66	-0.750			
0.7997	51181.55	3.3430	3.3430	-0.4837	26.66	0.67	-0.750			
0.8011	51273.59	3.3400	3.3399	-0.4695	26.66	0.67	-0.750			
0.8025	51363.07	3.3370	3.3370	-0.4554	26.67	0.68	-0.750			
0.8039	51449.24	3.3340	3.3340	-0.4396	26.68	0.69	-0.750			
0.8052	51532.51	3.3310	3.3310	-0.4235	26.68	0.69	-0.750			
0.8064	51611.37	3.3280	3.3280	-0.4095	26.69	0.70	-0.750			
0.8076	51687.28	3.3250	3.3250	-0.3963	26.69	0.70	-0.750			
0.8088	51761.37	3.3220	3.3220	-0.3851	26.70	0.71	-0.750			
0.8099	51834.88	3.3190	3.3189	-0.3770	26.71	0.72	-0.750			
0.8110	51906.78	3.3160	3.3161	-0.3662	26.71	0.72	-0.750			
0.8121	51976.18	3.3130	3.3130	-0.3568	26.72	0.73	-0.750			
0.8132	52043.76	3.3100	3.3101	-0.3473	26.72	0.73	-0.750			
0.8142	52109.20	3.3070	3.3069	-0.3360	26.73	0.74	-0.750			
0.8152	52171.84	3.3040	3.3040	-0.3270	26.73	0.74	-0.750			
0.8162	52233.97	3.3010	3.3009	-0.3186	26.74	0.75	-0.750			
0.8171	52294.18	3.2980	3.2982	-0.3119	26.74	0.75	-0.750			
0.8180	52353.47	3.2950	3.2950	-0.3056	26.75	0.76	-0.750			
0.8189	52411.01	3.2920	3.2920	-0.2980	26.75	0.76	-0.750			
0.8198	52467.73	3.2890	3.2890	-0.2932	26.76	0.77	-0.750			
0.8207	52523.38	3.2860	3.2860	-0.2867	26.76	0.77	-0.750			
0.8215	52577.50	3.2830	3.2829	-0.2808	26.77	0.78	-0.750			
0.8224	52631.21	3.2800	3.2800	-0.2763	26.77	0.78	-0.750			
0.8232	52683.42	3.2770	3.2770	-0.2704	26.77	0.78	-0.750			
0.8240	52735.11	3.2740	3.2739	-0.2648	26.78	0.79	-0.750			
0.8248	52785.44	3.2710	3.2710	-0.2600	26.78	0.79	-0.750			
0.8255	52834.43	3.2680	3.2680	-0.2540	26.79	0.80	-0.750			
0.8263	52883.05	3.2650	3.2650	-0.2499	26.79	0.80	-0.750			
0.8270	52929.83	3.2620	3.2620	-0.2452	26.80	0.81	-0.750			
0.8278	52976.65	3.2590	3.2590	-0.2412	26.80	0.81	-0.750			
0.8285	53022.73	3.2560	3.2559	-0.2372	26.80	0.81	-0.750			
0.8292	53067.94	3.2530	3.2530	-0.2335	26.81	0.82	-0.750			
0.8299	53112.69	3.2500	3.2500	-0.2304	26.81	0.82	-0.750			
0.8306	53156.34	3.2470	3.2470	-0.2260	26.82	0.83	-0.750			
0.8312	53199.09	3.2440	3.2439	-0.2230	26.82	0.83	-0.750			
0.8319	53241.41	3.2410	3.2410	-0.2198	26.83	0.84	-0.750			
0.8325	53282.99	3.2380	3.2381	-0.2168	26.84	0.85	-0.750			
0.8332	53324.70	3.2350	3.2350	-0.2143	26.84	0.85	-0.750			
0.8338	53365.69	3.2320	3.2321	-0.2116	26.85	0.86	-0.750			
0.8345	53406.02	3.2290	3.2290	-0.2085	26.85	0.86	-0.750			
0.8351	53445.69	3.2260	3.2260	-0.2062	26.86	0.87	-0.750			
0.8357	53485.20	3.2230	3.2229	-0.2035	26.86	0.87	-0.750			
0.8363	53523.57	3.2200	3.2201	-0.2004	26.87	0.88	-0.750			
0.8369	53561.85	3.2170	3.2170	-0.1984	26.87	0.88	-0.750			
0.8375	53599.73	3.2140	3.2141	-0.1961	26.88	0.89	-0.750			
0.8381	53637.47	3.2110	3.2110	-0.1934	26.88	0.89	-0.750			
0.8387	53674.26	3.2080	3.2080	-0.1910	26.89	0.90	-0.750			
0.8392	53710.51	3.2050	3.2050	-0.1887	26.89	0.90	-0.750			
0.8398	53746.36	3.2020	3.2020	-0.1862	26.90	0.91	-0.750			
0.8403	53781.99	3.1990	3.1989	-0.1842	26.90	0.91	-0.750			
0.8409	53817.12	3.1960	3.1958	-0.1810	26.91	0.92	-0.750			
0.8414	53851.66	3.1930	3.1931	-0.1787	26.91	0.92	-0.750			
0.8420	53885.71	3.1900	3.1901	-0.1776	26.91	0.92	-0.750			
0.8425	53919.75	3.1870	3.1870	-0.1761	26.92	0.93	-0.750			
0.8430	53953.29	3.1840	3.1839	-0.1736	26.92	0.93	-0.750			
0.8435	53986.34	3.1810	3.1809	-0.1717	26.93	0.94	-0.750			
0.8440	54019.13	3.1780	3.1782	-0.1703	26.94	0.95	-0.750			
0.8446	54051.78	3.1750	3.1750	-0.1691	26.94	0.95	-0.750			
0.8451	54084.34	3.1720	3.1719	-0.1676	26.95	0.96	-0.750			
0.8456	54116.32	3.1690	3.1689	-0.1654	26.96	0.97	-0.750			
0.8461	54147.63	3.1660	3.1660	-0.1631	26.96	0.97	-0.750			
0.8465	54178.76	3.1630	3.1630	-0.1619	26.97	0.98	-0.750			
0.8470	54209.62	3.1600	3.1600	-0.1609	26.97	0.98	-0.750			
0.8475	54240.38	3.1570	3.1570	-0.1596	26.98	0.99	-0.750			
0.8480	54270.70	3.1540	3.1538	-0.1578	26.99	1.00	-0.750			
0.8485	54300.94	3.1510	3.1510	-0.1562	26.99	1.00	-0.750			
0.8489	54330.94	3.1480	3.1480	-0.1553	27.00	1.01	-0.750			
0.8494	54360.60	3.1450	3.1451	-0.1537	27.00	1.01	-0.750			
0.8498	54390.02	3.1420	3.1420	-0.1525	27.01	1.02	-0.750			
0.8503	54418.99	3.1390	3.1390	-0.1506	27.01	1.02	-0.750			
0.8507	54447.79	3.1360	3.1360	-0.1489	27.02	1.03	-0.750			
0.8512	54476.24	3.1330	3.1330	-0.1475	27.02	1.03	-0.750			
0.8516	54504.60	3.1300	3.1300	-0.1461	27.03	1.04	-0.750			
0.8521	54532.50	3.1270	3.1271	-0.1447	27.03	1.04	-0.750			
0.8525	54559.86	3.1240	3.1240	-0.1430	27.04	1.05	-0.750			
0.8529	54587.22	3.1210	3.1210	-0.1419	27.04	1.05	-0.750			
0.8533	54614.28	3.1180	3.1180	-0.1406	27.05	1.06	-0.750			
0.8538	54641.18	3.1150	3.1149	-0.1397	27.05	1.06	-0.750			
0.8542	54667.92	3.1120	3.1120	-0.1390	27.06	1.07	-0.750			
0.8546	54694.54	3.1090	3.1090	-0.1380	27.06	1.07	-0.750			
0.8550	54720.90	3.1060	3.1060	-0.1371	27.07	1.08	-0.750			
0.8554	54747.12	3.1030	3.1030	-0.1362	27.07	1.08	-0.750			
0.8558	54773.21	3.1000	3.1000	-0.1352	27.08	1.09	-0.750			
0.8562	54799.04	3.0970	3.0970	-0.1342	27.08	1.09	-0.750			
0.8566	54824.79	3.0940	3.0940	-0.1333	27.09	1.10	-0.750			
0.8570	54850.29	3.0910	3.0910	-0.1322	27.09	1.10	-0.750			
0.8574	54875.52	3.0880	3.0880	-0.1311	27.10	1.11	-0.750			
0.8578	54900.57	3.0850	3.0850	-0.1304	27.11	1.12	-0.750			
0.8582	54925.49	3.0820	3.0820	-0.1293	27.11	1.12	-0.750			
0.8586	54950.25	3.0790	3.0790	-0.1285	27.12	1.13	-0.750			
0.8590	54974.88	3.0760	3.0760	-0.1278	27.12	1.13	-0.750			
0.8594	54999.31	3.0730	3.0730	-0.1269	27.13	1.14	-0.750			
0.8597	55023.66	3.0700	3.0701	-0.1261	27.13	1.14	-0.750			
0.8601	55047.70	3.0670	3.0669	-0.1253	27.14	1.15	-0.750			
0.8605	55071.68	3.0640	3.0639	-0.1245	27.14	1.15	-0.750			
0.8609	55095.49	3.0610	3.0611	-0.1234	27.15	1.16	-0.750			
0.8612	55119.11	3.0580	3.0580	-0.1226	27.15	1.16	-0.750			
0.8616	55142.64	3.0550	3.0550	-0.1218	27.16	1.17	-0.750			
0.8620	55165.95	3.0520	3.0521	-0.1209	27.16	1.17	-0.750			
0.8623	55188.98	3.0490	3.0489	-0.1202	27.17	1.18	-0.750			
0.8627	55211.98	3.0460	3.0460	-0.1194	27.17	1.18	-0.750			
0.8630	55234.91	3.0430	3.0429	-0.1184	27.18	1.19	-0.750			
0.8634	55257.50	3.0400	3.0400	-0.1174	27.18	1.19	-0.750			
0.8637	55279.88	3.0370	3.0370	-0.1168	27.19	1.20	-0.750			
0.8641	55302.28	3.0340	3.0340	-0.1162	27.20	1.21	-0.750			
0.8644	55324.53	3.0310	3.0311	-0.1154	27.20	1.21	-0.750			
0.8648	55346.59	3.0280	3.0280	-0.1146	27.21	1.22	-0.750			
0.8651	55368.39	3.0250	3.0249	-0.1142	27.21	1.22	-0.750			
0.8655	55390.10	3.0220	3.0221	-0.1135	27.22	1.23	-0.750			
0.8658	55411.97	3.0190	3.0191	-0.1131	27.22	1.23	-0.750			
0.8662	55433.77	3.0160	3.0159	-0.1129	27.23	1.24	-0.750			
0.8665	55455.57	3.0130	3.0130	-0.1115	27.23	1.24	-0.750			
0.8668	55477.00	3.0100	3.0100	-0.1105	27.24	1.25	-0.750			
0.8672	55498.08	3.0070	3.0072	-0.1091	27.24	1.25	-0.751			
0.8675	55519.24	3.0040	3.0039	-0.1060	27.25	1.26	-0.751			
0.8678	55539.30	3.0010	3.0010	-0.1030	27.25	1.26	-0.751			
