Ah_balance (normalized)	Ah_balance (mAh)	Voltage - fit (V)	Voltage -  interpolate (V)	dQ/dV (1/V)	Temperature (°C)	Temperature - diff (°C)	Current (C)	R_DC 0ms (mOhm)	R_DC 50ms (mOhm)	R_DC 50 ms PEC (mOhm)
0.0555	3552.51	4.1980	4.1980	0.7723	26.76	0.77	0.750			
0.0578	3698.97	4.1950	4.1950	0.7577	26.76	0.77	0.750			
0.0600	3842.61	4.1920	4.1921	0.7500	26.76	0.77	0.750			
0.0623	3985.60	4.1890	4.1890	0.7493	26.76	0.77	0.750			
0.0645	4128.53	4.1860	4.1860	0.7493	26.76	0.77	0.750			
0.0667	4271.59	4.1830	4.1830	0.7520	26.76	0.77	0.750			
0.0690	4416.71	4.1800	4.1801	0.7567	26.76	0.77	0.750			
0.0713	4562.49	4.1770	4.1770	0.7615	26.76	0.77	0.750			
0.0736	4710.38	4.1740	4.1739	0.7601	26.76	0.77	0.750			
0.0759	4856.28	4.1710	4.1710	0.7595	26.76	0.77	0.750			
0.0782	5001.71	4.1680	4.1681	0.7576	26.76	0.77	0.750			
0.0804	5147.04	4.1650	4.1650	0.7597	26.76	0.77	0.750			
0.0827	5292.65	4.1620	4.1620	0.7605	26.76	0.77	0.750			
0.0850	5438.71	4.1590	4.1590	0.7561	26.76	0.77	0.750			
0.0872	5583.36	4.1560	4.1560	0.7560	26.76	0.77	0.750			
0.0895	5729.14	4.1530	4.1531	0.7619	26.76	0.77	0.750			
0.0918	5874.27	4.1500	4.1499	0.7610	26.76	0.77	0.750			
0.0941	6020.27	4.1470	4.1470	0.7623	26.76	0.77	0.750			
0.0964	6166.42	4.1440	4.1440	0.7659	26.76	0.77	0.750			
0.0987	6315.21	4.1410	4.1411	0.7670	26.75	0.76	0.750			
0.1010	6463.63	4.1380	4.1380	0.7693	26.75	0.76	0.750			
0.1033	6610.17	4.1350	4.1350	0.7681	26.74	0.75	0.750			
0.1056	6756.88	4.1320	4.1319	0.7693	26.74	0.75	0.750			
0.1079	6903.69	4.1290	4.1290	0.7731	26.74	0.75	0.750			
0.1102	7054.00	4.1260	4.1260	0.7721	26.74	0.75	0.750			
0.1125	7202.10	4.1230	4.1229	0.7762	26.74	0.75	0.750			
0.1149	7352.08	4.1200	4.1201	0.7812	26.74	0.75	0.750			
0.1172	7501.86	4.1170	4.1170	0.7793	26.74	0.75	0.750			
0.1196	7651.40	4.1140	4.1140	0.7816	26.74	0.75	0.750			
0.1219	7802.01	4.1110	4.1110	0.7830	26.74	0.75	0.750			
0.1243	7952.35	4.1080	4.1080	0.7785	26.74	0.75	0.750			
0.1266	8102.40	4.1050	4.1051	0.7796	26.74	0.75	0.750			
0.1289	8249.91	4.1020	4.1021	0.7811	26.74	0.75	0.750			
0.1313	8400.13	4.0990	4.0990	0.7867	26.74	0.75	0.750			
0.1336	8551.38	4.0960	4.0960	0.7895	26.74	0.75	0.750			
0.1360	8704.34	4.0930	4.0930	0.7825	26.74	0.75	0.750			
0.1384	8855.91	4.0900	4.0901	0.7922	26.75	0.76	0.750			
0.1408	9008.35	4.0870	4.0871	0.7948	26.75	0.76	0.750			
0.1431	9159.13	4.0840	4.0838	0.7938	26.75	0.76	0.750			
0.1455	9311.34	4.0810	4.0811	0.7989	26.75	0.76	0.750			
0.1479	9465.57	4.0780	4.0779	0.7990	26.75	0.76	0.750			
0.1503	9620.13	4.0750	4.0750	0.8034	26.75	0.76	0.750			
0.1528	9776.21	4.0720	4.0721	0.8103	26.75	0.76	0.750			
0.1552	9929.92	4.0690	4.0689	0.8054	26.75	0.76	0.750			
0.1576	10085.47	4.0660	4.0660	0.8074	26.75	0.76	0.750			
0.1600	10239.89	4.0630	4.0630	0.8060	26.75	0.76	0.750			
0.1624	10394.19	4.0600	4.0601	0.8096	26.74	0.75	0.750			
0.1649	10551.04	4.0570	4.0570	0.8162	26.74	0.75	0.750			
0.1673	10707.01	4.0540	4.0539	0.8165	26.74	0.75	0.750			
0.1697	10863.62	4.0510	4.0511	0.8200	26.74	0.75	0.750			
0.1722	11022.78	4.0480	4.0480	0.8246	26.75	0.76	0.750			
0.1747	11180.63	4.0450	4.0450	0.8301	26.75	0.76	0.750			
0.1772	11341.20	4.0420	4.0419	0.8309	26.75	0.76	0.750			
0.1797	11501.84	4.0390	4.0390	0.8302	26.76	0.77	0.750			
0.1822	11660.11	4.0360	4.0361	0.8316	26.76	0.77	0.750			
0.1847	11820.76	4.0330	4.0330	0.8318	26.75	0.76	0.750			
0.1872	11979.62	4.0300	4.0300	0.8330	26.75	0.76	0.750			
0.1897	12138.18	4.0270	4.0270	0.8370	26.75	0.76	0.750			
0.1922	12298.15	4.0240	4.0241	0.8434	26.74	0.75	0.750			
0.1947	12462.64	4.0210	4.0210	0.8483	26.74	0.75	0.750			
0.1973	12626.58	4.0180	4.0180	0.8541	26.74	0.75	0.750			
0.1998	12790.05	4.0150	4.0151	0.8540	26.74	0.75	0.750			
0.2024	12954.58	4.0120	4.0120	0.8553	26.74	0.75	0.750			
0.2050	13119.40	4.0090	4.0090	0.8546	26.74	0.75	0.750			
0.2076	13283.28	4.0060	4.0060	0.8555	26.74	0.75	0.750			
0.2101	13449.13	4.0030	4.0029	0.8461	26.74	0.75	0.750			
0.2126	13609.59	4.0000	4.0001	0.8595	26.74	0.75	0.750			
0.2152	13772.09	3.9970	3.9971	0.8683	26.74	0.75	0.750			
0.2178	13941.09	3.9940	3.9938	0.8720	26.74	0.75	0.750			
0.2205	14110.68	3.9910	3.9911	0.8755	26.74	0.75	0.750			
0.2231	14281.18	3.9880	3.9881	0.8739	26.74	0.75	0.750			
0.2258	14448.68	3.9850	3.9852	0.8731	26.74	0.75	0.750			
0.2284	14615.14	3.9820	3.9820	0.8640	26.74	0.75	0.750			
0.2309	14779.67	3.9790	3.9786	0.8640	26.74	0.75	0.750			
0.2335	14945.19	3.9760	3.9760	0.8606	26.74	0.75	0.750			
0.2361	15112.16	3.9730	3.9731	0.8680	26.74	0.75	0.750			
0.2388	15280.80	3.9700	3.9700	0.8755	26.73	0.74	0.750			
0.2414	15449.37	3.9670	3.9669	0.8776	26.73	0.74	0.750			
0.2440	15615.50	3.9640	3.9641	0.8733	26.73	0.74	0.750			
0.2466	15785.04	3.9610	3.9610	0.8756	26.73	0.74	0.750			
0.2493	15953.73	3.9580	3.9581	0.8780	26.73	0.74	0.750			
0.2519	16122.55	3.9550	3.9550	0.8809	26.72	0.73	0.750			
0.2545	16289.90	3.9520	3.9521	0.8803	26.72	0.73	0.750			
0.2572	16458.50	3.9490	3.9490	0.8861	26.72	0.73	0.750			
0.2599	16630.70	3.9460	3.9460	0.8856	26.72	0.73	0.750			
0.2625	16801.83	3.9430	3.9430	0.8909	26.72	0.73	0.750			
0.2652	16973.72	3.9400	3.9401	0.8886	26.72	0.73	0.750			
0.2679	17145.30	3.9370	3.9368	0.8861	26.72	0.73	0.750			
0.2705	17314.94	3.9340	3.9341	0.8829	26.72	0.73	0.750			
0.2732	17482.13	3.9310	3.9311	0.8832	26.71	0.72	0.750			
0.2758	17651.72	3.9280	3.9280	0.8850	26.71	0.72	0.750			
0.2785	17823.19	3.9250	3.9249	0.8908	26.70	0.71	0.750			
0.2811	17992.76	3.9220	3.9219	0.8912	26.70	0.71	0.750			
0.2838	18165.90	3.9190	3.9191	0.8944	26.70	0.71	0.750			
0.2865	18337.57	3.9160	3.9159	0.9026	26.69	0.70	0.750			
0.2892	18511.18	3.9130	3.9130	0.9037	26.69	0.70	0.750			
0.2919	18683.12	3.9100	3.9100	0.9049	26.68	0.69	0.750			
0.2947	18857.77	3.9070	3.9070	0.9148	26.68	0.69	0.750			
0.2974	19035.04	3.9040	3.9041	0.9157	26.67	0.68	0.750			
0.3002	19211.25	3.9010	3.9009	0.9192	26.66	0.67	0.750			
0.3030	19388.93	3.8980	3.8981	0.9217	26.66	0.67	0.750			
0.3057	19564.51	3.8950	3.8949	0.9236	26.65	0.66	0.750			
0.3085	19743.80	3.8920	3.8920	0.9274	26.64	0.65	0.750			
0.3113	19920.67	3.8890	3.8890	0.9305	26.64	0.65	0.750			
0.3140	20098.34	3.8860	3.8860	0.9360	26.63	0.64	0.750			
0.3169	20280.11	3.8830	3.8831	0.9382	26.62	0.63	0.750			
0.3197	20460.98	3.8800	3.8799	0.9423	26.62	0.63	0.750			
0.3226	20643.98	3.8770	3.8770	0.9376	26.61	0.62	0.750			
0.3253	20820.96	3.8740	3.8741	0.9423	26.60	0.61	0.750			
0.3281	21001.16	3.8710	3.8710	0.9498	26.59	0.60	0.750			
0.3310	21183.22	3.8680	3.8676	0.9525	26.58	0.59	0.750			
0.3339	21367.19	3.8650	3.8651	0.9519	26.57	0.58	0.750			
0.3367	21551.10	3.8620	3.8621	0.9621	26.56	0.57	0.750			
0.3397	21738.44	3.8590	3.8590	0.9643	26.55	0.56	0.750			
0.3425	21922.54	3.8560	3.8560	0.9561	26.54	0.55	0.750			
0.3454	22106.05	3.8530	3.8531	0.9553	26.54	0.55	0.750			
0.3483	22288.81	3.8500	3.8499	0.9566	26.53	0.54	0.750			
0.3511	22472.74	3.8470	3.8471	0.9640	26.53	0.54	0.750			
0.3540	22658.06	3.8440	3.8440	0.9705	26.52	0.53	0.750			
0.3569	22843.67	3.8410	3.8409	0.9709	26.52	0.53	0.750			
0.3599	23032.17	3.8380	3.8381	0.9756	26.50	0.51	0.750			
0.3628	23220.42	3.8350	3.8350	0.9782	26.49	0.50	0.750			
0.3658	23408.87	3.8320	3.8320	0.9785	26.47	0.48	0.750			
0.3687	23594.53	3.8290	3.8289	0.9805	26.46	0.47	0.750			
0.3716	23784.05	3.8260	3.8261	0.9797	26.45	0.46	0.750			
0.3746	23971.82	3.8230	3.8230	0.9913	26.45	0.46	0.750			
0.3775	24162.26	3.8200	3.8200	1.0036	26.44	0.45	0.750			
0.3806	24355.43	3.8170	3.8167	1.0100	26.43	0.44	0.750			
0.3836	24551.30	3.8140	3.8141	1.0153	26.42	0.43	0.750			
0.3867	24747.43	3.8110	3.8111	1.0261	26.40	0.41	0.750			
0.3897	24943.94	3.8080	3.8080	1.0386	26.39	0.40	0.750			
0.3929	25147.06	3.8050	3.8048	1.0558	26.37	0.38	0.750			
0.3960	25344.68	3.8020	3.8021	1.0553	26.36	0.37	0.750			
0.3992	25547.90	3.7990	3.7991	1.0743	26.36	0.37	0.750			
0.4025	25759.02	3.7960	3.7961	1.0958	26.35	0.36	0.750			
0.4058	25973.07	3.7930	3.7927	1.1064	26.34	0.35	0.750			
0.4091	26184.26	3.7900	3.7901	1.1158	26.33	0.34	0.750			
0.4125	26399.72	3.7870	3.7871	1.1308	26.31	0.32	0.750			
0.4159	26619.30	3.7840	3.7840	1.1438	26.30	0.31	0.750			
0.4194	26839.19	3.7810	3.7810	1.1434	26.29	0.30	0.750			
0.4228	27057.66	3.7780	3.7781	1.1711	26.28	0.29	0.750			
0.4262	27277.38	3.7750	3.7751	1.2064	26.27	0.28	0.750			
0.4299	27512.44	3.7720	3.7719	1.2458	26.25	0.26	0.750			
0.4337	27755.78	3.7690	3.7690	1.2775	26.24	0.25	0.750	0.316	0.440	
0.4376	28007.34	3.7660	3.7662	1.3131	26.23	0.24	0.750			
0.4417	28268.26	3.7630	3.7632	1.3339	26.22	0.23	0.750			
0.4458	28530.70	3.7600	3.7599	1.3704	26.20	0.21	0.750			
0.4499	28792.48	3.7570	3.7570	1.3936	26.19	0.20	0.750			
0.4540	29059.08	3.7540	3.7540	1.3986	26.18	0.19	0.750			
0.4583	29331.69	3.7510	3.7511	1.4370	26.16	0.17	0.750			
0.4626	29608.47	3.7480	3.7482	1.4622	26.14	0.15	0.750			
0.4671	29894.38	3.7450	3.7449	1.4725	26.13	0.14	0.750			
0.4715	30176.81	3.7420	3.7421	1.5180	26.11	0.12	0.750			
0.4759	30460.68	3.7390	3.7389	1.5709	26.10	0.11	0.750			
0.4808	30768.91	3.7360	3.7356	1.6066	26.09	0.10	0.750			
0.4857	31085.55	3.7330	3.7333	1.6550	26.08	0.09	0.750			
0.4908	31409.66	3.7300	3.7302	1.6976	26.06	0.07	0.750			
0.4960	31740.93	3.7270	3.7270	1.7406	26.04	0.05	0.750			
0.5012	32074.94	3.7240	3.7242	1.7799	26.02	0.03	0.750			
0.5065	32414.86	3.7210	3.7212	1.8396	26.00	0.01	0.750			
0.5122	32779.24	3.7180	3.7179	1.8949	25.98	-0.01	0.750			
0.5179	33146.75	3.7150	3.7150	1.9434	25.95	-0.04	0.750			
0.5238	33523.77	3.7120	3.7121	2.0174	25.94	-0.05	0.750			
0.5300	33922.67	3.7090	3.7089	2.0724	25.92	-0.07	0.750			
0.5363	34324.17	3.7060	3.7058	2.1171	25.91	-0.08	0.750			
0.5426	34727.24	3.7030	3.7032	2.1656	25.89	-0.10	0.750			
0.5493	35152.25	3.7000	3.7000	2.2342	25.87	-0.12	0.750			
0.5561	35590.21	3.6970	3.6969	2.3083	25.85	-0.14	0.750			
0.5630	36033.94	3.6940	3.6940	2.3944	25.83	-0.16	0.750			
0.5704	36504.90	3.6910	3.6910	2.5170	25.82	-0.17	0.750			
0.5781	36996.84	3.6880	3.6880	2.6200	25.80	-0.19	0.750			
0.5861	37510.72	3.6850	3.6849	2.6784	25.78	-0.21	0.750			
0.5943	38036.75	3.6820	3.6820	2.7793	25.77	-0.22	0.750			
0.6028	38582.27	3.6790	3.6787	2.8334	25.76	-0.23	0.750			
0.6114	39132.07	3.6760	3.6761	2.8685	25.75	-0.24	0.750			
0.6204	39706.75	3.6730	3.6730	2.8378	25.75	-0.24	0.750			
0.6291	40262.76	3.6700	3.6699	2.6954	25.73	-0.26	0.750			
0.6370	40765.84	3.6670	3.6672	2.4665	25.73	-0.26	0.750			
0.6438	41205.73	3.6640	3.6640	2.2398	25.72	-0.27	0.750			
0.6500	41603.17	3.6610	3.6607	1.9947	25.73	-0.26	0.750			
0.6554	41943.59	3.6580	3.6579	1.7878	25.73	-0.26	0.750			
0.6604	42265.10	3.6550	3.6547	1.6571	25.73	-0.26	0.750			
0.6651	42564.51	3.6520	3.6521	1.5364	25.73	-0.26	0.750			
0.6696	42852.32	3.6490	3.6490	1.4408	25.73	-0.26	0.750			
0.6738	43120.41	3.6460	3.6461	1.3548	25.73	-0.26	0.750			
0.6776	43363.40	3.6430	3.6431	1.2781	25.74	-0.25	0.750			
0.6813	43602.27	3.6400	3.6398	1.2274	25.74	-0.25	0.750			
0.6848	43824.06	3.6370	3.6370	1.1956	25.74	-0.25	0.750			
0.6883	44051.31	3.6340	3.6340	1.1936	25.73	-0.26	0.750			
0.6919	44278.42	3.6310	3.6310	1.1959	25.73	-0.26	0.750			
0.6954	44507.13	3.6280	3.6281	1.1975	25.73	-0.26	0.750			
0.6991	44739.46	3.6250	3.6251	1.2060	25.73	-0.26	0.750			
0.7027	44972.77	3.6220	3.6220	1.2040	25.73	-0.26	0.750			
0.7063	45205.61	3.6190	3.6188	1.1927	25.73	-0.26	0.750			
0.7099	45434.51	3.6160	3.6161	1.1864	25.73	-0.26	0.750			
0.7135	45664.32	3.6130	3.6130	1.1727	25.73	-0.26	0.750			
0.7170	45889.37	3.6100	3.6100	1.1568	25.73	-0.26	0.750			
0.7204	46106.43	3.6070	3.6071	1.1357	25.73	-0.26	0.750			
0.7238	46321.01	3.6040	3.6041	1.1308	25.73	-0.26	0.750			
0.7271	46532.28	3.6010	3.6010	1.1448	25.73	-0.26	0.750			
0.7305	46750.60	3.5980	3.5978	1.1547	25.73	-0.26	0.750			
0.7339	46969.51	3.5950	3.5951	1.1853	25.73	-0.26	0.750			
0.7375	47199.70	3.5920	3.5921	1.2362	25.73	-0.26	0.750			
0.7414	47448.18	3.5890	3.5890	1.2696	25.73	-0.26	0.750			
0.7452	47692.41	3.5860	3.5859	1.3042	25.73	-0.26	0.750			
0.7491	47945.08	3.5830	3.5832	1.3486	25.73	-0.26	0.750			
0.7533	48208.65	3.5800	3.5802	1.3864	25.72	-0.27	0.750			
0.7575	48477.99	3.5770	3.5767	1.4387	25.72	-0.27	0.750			
0.7618	48754.94	3.5740	3.5741	1.4924	25.72	-0.27	0.750			
0.7663	49044.39	3.5710	3.5711	1.5395	25.72	-0.27	0.750			
0.7711	49351.36	3.5680	3.5681	1.5924	25.72	-0.27	0.750			
0.7760	49662.69	3.5650	3.5649	1.6205	25.72	-0.27	0.750			
0.7810	49985.22	3.5620	3.5617	1.6485	25.72	-0.27	0.750			
0.7860	50305.23	3.5590	3.5591	1.6733	25.72	-0.27	0.750			
0.7910	50624.31	3.5560	3.5561	1.6667	25.72	-0.27	0.750			
0.7961	50948.67	3.5530	3.5530	1.6670	25.72	-0.27	0.750			
0.8010	51263.73	3.5500	3.5500	1.6778	25.72	-0.27	0.750			
0.8061	51588.63	3.5470	3.5469	1.7191	25.72	-0.27	0.750			
0.8112	51918.30	3.5440	3.5440	1.7525	25.73	-0.26	0.750			
0.8166	52265.01	3.5410	3.5410	1.7696	25.74	-0.25	0.750			
0.8223	52627.79	3.5380	3.5377	1.7400	25.75	-0.24	0.750			
0.8280	52989.87	3.5350	3.5348	1.5828	25.76	-0.23	0.750			
0.8329	53303.18	3.5320	3.5323	1.3938	25.78	-0.21	0.750			
0.8368	53557.53	3.5290	3.5295	1.1504	25.79	-0.20	0.750			
0.8397	53740.65	3.5260	3.5258	0.8575	25.80	-0.19	0.750			
0.8414	53847.79	3.5230	3.5228	0.6412	25.81	-0.18	0.750			
0.8427	53931.02	3.5200	3.5198	0.4778	25.82	-0.17	0.750			
0.8438	54002.29	3.5170	3.5166	0.4000	25.82	-0.17	0.750			
0.8449	54072.64	3.5140	3.5142	0.3608	25.83	-0.16	0.750			
0.8459	54135.77	3.5110	3.5111	0.3358	25.84	-0.15	0.750			
0.8468	54197.57	3.5080	3.5079	0.3186	25.84	-0.15	0.750			
0.8477	54255.57	3.5050	3.5049	0.3007	25.85	-0.14	0.750			
0.8486	54311.57	3.5020	3.5020	0.2904	25.86	-0.13	0.750			
0.8495	54366.75	3.4990	3.4991	0.2843	25.86	-0.13	0.750			
0.8503	54420.71	3.4960	3.4960	0.2780	25.87	-0.12	0.750			
0.8511	54473.03	3.4930	3.4929	0.2710	25.87	-0.12	0.750			
0.8519	54524.00	3.4900	3.4900	0.2646	25.88	-0.11	0.750			
0.8527	54574.24	3.4870	3.4870	0.2603	25.89	-0.10	0.750			
0.8535	54624.32	3.4840	3.4841	0.2552	25.89	-0.10	0.750			
0.8543	54672.71	3.4810	3.4809	0.2498	25.90	-0.09	0.750			
0.8550	54719.79	3.4780	3.4780	0.2443	25.90	-0.09	0.750			
0.8557	54766.15	3.4750	3.4751	0.2395	25.91	-0.08	0.750			
0.8564	54811.74	3.4720	3.4720	0.2353	25.91	-0.08	0.750			
0.8571	54856.60	3.4690	3.4690	0.2301	25.92	-0.07	0.750			
0.8578	54900.34	3.4660	3.4660	0.2252	25.92	-0.07	0.750			
0.8585	54943.04	3.4630	3.4631	0.2202	25.93	-0.06	0.750			
0.8591	54985.23	3.4600	3.4600	0.2157	25.93	-0.06	0.750			
0.8598	55025.70	3.4570	3.4570	0.2108	25.93	-0.06	0.750			
0.8604	55065.79	3.4540	3.4540	0.2056	25.94	-0.05	0.750			
0.8610	55104.73	3.4510	3.4509	0.2008	25.94	-0.05	0.750			
0.8616	55142.85	3.4480	3.4481	0.1964	25.95	-0.04	0.750			
0.8622	55180.54	3.4450	3.4451	0.1913	25.95	-0.04	0.750			
0.8628	55216.61	3.4420	3.4419	0.1864	25.95	-0.04	0.750			
0.8633	55251.91	3.4390	3.4390	0.1813	25.96	-0.03	0.750			
0.8638	55286.19	3.4360	3.4361	0.1761	25.96	-0.03	0.750			
0.8644	55319.46	3.4330	3.4329	0.1704	25.96	-0.03	0.750			
0.8649	55351.90	3.4300	3.4300	0.1655	25.97	-0.02	0.750			
0.8654	55383.13	3.4270	3.4270	0.1598	25.97	-0.02	0.750			
0.8658	55413.13	3.4240	3.4241	0.1546	25.97	-0.02	0.750			
0.8663	55442.61	3.4210	3.4209	0.1491	25.98	-0.01	0.750			
0.8667	55470.53	3.4180	3.4180	0.1428	25.98	-0.01	0.750			
0.8671	55497.41	3.4150	3.4150	0.1372	25.98	-0.01	0.750			
0.8676	55523.35	3.4120	3.4121	0.1314	25.98	-0.01	0.750			
0.8679	55548.16	3.4090	3.4089	0.1255	25.99	-0.00	0.750			
0.8683	55571.89	3.4060	3.4060	0.1186	25.99	-0.00	0.750			
0.8687	55594.00	3.4030	3.4029	0.1116	25.99	0.00	0.750			
0.8690	55616.32	3.4000	3.3998	0.1023	25.99	0.00	0.750			
0.8693	55635.50	3.3970	3.3970	0.0945	25.99	0.00	0.750			
0.8696	55652.63	3.3940	3.3941	0.0839	26.00	0.01	0.750			
0.8698	55668.47	3.3910	3.3911	0.0744	26.00	0.01	0.750			
0.8700	55681.66	3.3880	3.3885	0.0630	26.00	0.01	0.750			
0.8702	55693.44	3.3850	3.3855	0.0517	26.00	0.01	0.750			
0.8703	55702.20	3.3820	3.3829	0.0395	26.00	0.01	0.750			
0.8704	55708.62	3.3790	3.3805	0.0273	26.00	0.01	0.750			
0.8705	55712.70	3.3760	3.3784	0.0152	26.00	0.01	0.750			
