Ah_balance (normalized)	Ah_balance (mAh)	Voltage - fit (V)	Voltage -  interpolate (V)	dQ/dV (1/V)	Temperature (°C)	Temperature - diff (°C)	Current (C)	R_DC 0ms (mOhm)	R_DC 50ms (mOhm)	R_DC 50 ms PEC (mOhm)
0.0505	3231.72	4.1970	4.1971	0.7735	26.31	0.34	0.750			
0.0529	3383.32	4.1940	4.1940	0.7863	26.31	0.34	0.750			
0.0552	3535.12	4.1910	4.1910	0.7855	26.31	0.34	0.750			
0.0576	3685.74	4.1880	4.1881	0.7829	26.31	0.34	0.750			
0.0599	3835.18	4.1850	4.1851	0.7828	26.31	0.34	0.750			
0.0623	3986.18	4.1820	4.1820	0.7824	26.31	0.34	0.750			
0.0646	4134.72	4.1790	4.1790	0.7782	26.31	0.34	0.750			
0.0669	4284.08	4.1760	4.1758	0.7756	26.31	0.34	0.750			
0.0693	4433.01	4.1730	4.1731	0.7839	26.31	0.34	0.750			
0.0716	4584.76	4.1700	4.1700	0.7787	26.30	0.33	0.750			
0.0740	4734.10	4.1670	4.1670	0.7801	26.30	0.33	0.750			
0.0763	4882.91	4.1640	4.1640	0.7840	26.30	0.33	0.750			
0.0786	5033.33	4.1610	4.1611	0.7877	26.29	0.32	0.750			
0.0810	5184.80	4.1580	4.1579	0.7923	26.29	0.32	0.750			
0.0834	5339.48	4.1550	4.1550	0.7898	26.30	0.33	0.750			
0.0858	5489.38	4.1520	4.1521	0.7889	26.30	0.33	0.750			
0.0882	5642.46	4.1490	4.1490	0.7981	26.30	0.33	0.750			
0.0905	5793.57	4.1460	4.1460	0.7961	26.31	0.34	0.750			
0.0929	5945.20	4.1430	4.1429	0.7941	26.31	0.34	0.750			
0.0953	6099.97	4.1400	4.1400	0.7949	26.31	0.34	0.750			
0.0977	6252.35	4.1370	4.1371	0.8048	26.31	0.34	0.750			
0.1001	6408.85	4.1340	4.1340	0.8064	26.31	0.34	0.750			
0.1026	6563.24	4.1310	4.1310	0.8042	26.31	0.34	0.750			
0.1050	6717.28	4.1280	4.1278	0.8006	26.31	0.34	0.750			
0.1074	6871.91	4.1250	4.1250	0.8032	26.31	0.34	0.750			
0.1098	7027.05	4.1220	4.1220	0.7979	26.31	0.34	0.750			
0.1121	7176.99	4.1190	4.1190	0.7991	26.31	0.34	0.750			
0.1145	7328.21	4.1160	4.1161	0.7957	26.31	0.34	0.750			
0.1169	7483.38	4.1130	4.1127	0.8062	26.31	0.34	0.750			
0.1193	7637.91	4.1100	4.1101	0.8093	26.31	0.34	0.750			
0.1218	7795.01	4.1070	4.1071	0.8097	26.31	0.34	0.750			
0.1242	7950.94	4.1040	4.1040	0.8144	26.32	0.35	0.750			
0.1267	8106.91	4.1010	4.1011	0.8120	26.32	0.35	0.750			
0.1291	8262.74	4.0980	4.0979	0.8129	26.32	0.35	0.750			
0.1316	8419.33	4.0950	4.0950	0.8167	26.32	0.35	0.750			
0.1340	8577.08	4.0920	4.0921	0.8142	26.32	0.35	0.750			
0.1365	8733.03	4.0890	4.0890	0.8205	26.32	0.35	0.750			
0.1389	8889.55	4.0860	4.0860	0.8208	26.32	0.35	0.750			
0.1414	9047.60	4.0830	4.0829	0.8273	26.32	0.35	0.750			
0.1438	9206.29	4.0800	4.0800	0.8340	26.32	0.35	0.750			
0.1464	9368.91	4.0770	4.0770	0.8337	26.32	0.35	0.750			
0.1489	9529.29	4.0740	4.0741	0.8433	26.33	0.36	0.750			
0.1515	9693.97	4.0710	4.0710	0.8434	26.33	0.36	0.750			
0.1540	9855.12	4.0680	4.0678	0.8423	26.33	0.36	0.750			
0.1565	10016.51	4.0650	4.0652	0.8445	26.33	0.36	0.750			
0.1591	10179.62	4.0620	4.0620	0.8407	26.33	0.36	0.750			
0.1616	10339.67	4.0590	4.0590	0.8458	26.34	0.37	0.750			
0.1641	10500.27	4.0560	4.0560	0.8467	26.34	0.37	0.750			
0.1666	10664.55	4.0530	4.0527	0.8503	26.34	0.37	0.750			
0.1692	10830.16	4.0500	4.0501	0.8617	26.34	0.37	0.750			
0.1718	10996.09	4.0470	4.0471	0.8579	26.34	0.37	0.750			
0.1744	11161.03	4.0440	4.0440	0.8629	26.35	0.38	0.750			
0.1770	11326.13	4.0410	4.0410	0.8591	26.35	0.38	0.750			
0.1796	11491.48	4.0380	4.0378	0.8678	26.35	0.38	0.750			
0.1822	11660.33	4.0350	4.0349	0.8670	26.35	0.38	0.750			
0.1848	11827.72	4.0320	4.0321	0.8716	26.35	0.38	0.750			
0.1874	11993.92	4.0290	4.0290	0.8777	26.35	0.38	0.750			
0.1901	12163.82	4.0260	4.0261	0.8786	26.35	0.38	0.750			
0.1927	12331.57	4.0230	4.0230	0.8785	26.35	0.38	0.750			
0.1953	12501.95	4.0200	4.0200	0.8805	26.35	0.38	0.750			
0.1980	12670.94	4.0170	4.0171	0.8834	26.35	0.38	0.750			
0.2007	12842.61	4.0140	4.0139	0.8862	26.36	0.39	0.750			
0.2033	13011.14	4.0110	4.0110	0.8840	26.36	0.39	0.750			
0.2060	13181.29	4.0080	4.0081	0.8833	26.36	0.39	0.750			
0.2086	13351.68	4.0050	4.0050	0.8875	26.36	0.39	0.750			
0.2113	13520.84	4.0020	4.0020	0.8905	26.37	0.40	0.750			
0.2139	13691.15	3.9990	3.9992	0.9000	26.37	0.40	0.750			
0.2166	13863.88	3.9960	3.9957	0.9049	26.37	0.40	0.750			
0.2194	14041.83	3.9930	3.9930	0.9073	26.37	0.40	0.750			
0.2221	14215.68	3.9900	3.9901	0.9099	26.37	0.40	0.750			
0.2249	14391.84	3.9870	3.9871	0.9151	26.38	0.41	0.750			
0.2276	14566.76	3.9840	3.9840	0.9147	26.38	0.41	0.750			
0.2303	14740.71	3.9810	3.9809	0.9111	26.38	0.41	0.750			
0.2331	14916.19	3.9780	3.9780	0.9075	26.38	0.41	0.750			
0.2358	15090.97	3.9750	3.9751	0.9150	26.38	0.41	0.750			
0.2385	15266.58	3.9720	3.9719	0.9216	26.39	0.42	0.750			
0.2413	15442.41	3.9690	3.9689	0.9240	26.39	0.42	0.750			
0.2441	15620.65	3.9660	3.9660	0.9270	26.39	0.42	0.750			
0.2469	15800.11	3.9630	3.9631	0.9330	26.39	0.42	0.750			
0.2497	15981.72	3.9600	3.9600	0.9420	26.40	0.43	0.750			
0.2526	16164.78	3.9570	3.9570	0.9411	26.40	0.43	0.750			
0.2554	16344.14	3.9540	3.9540	0.9362	26.40	0.43	0.750			
0.2582	16522.87	3.9510	3.9509	0.9340	26.41	0.44	0.750			
0.2609	16699.79	3.9480	3.9481	0.9395	26.41	0.44	0.750			
0.2637	16879.69	3.9450	3.9450	0.9484	26.41	0.44	0.750			
0.2666	17062.19	3.9420	3.9417	0.9490	26.42	0.45	0.750			
0.2695	17248.35	3.9390	3.9391	0.9472	26.42	0.45	0.750			
0.2724	17430.82	3.9360	3.9361	0.9577	26.42	0.45	0.750			
0.2752	17614.71	3.9330	3.9331	0.9631	26.42	0.45	0.750			
0.2781	17797.67	3.9300	3.9301	0.9529	26.42	0.45	0.750			
0.2810	17984.48	3.9270	3.9271	0.9508	26.42	0.45	0.750			
0.2838	18165.57	3.9240	3.9241	0.9563	26.42	0.45	0.750			
0.2867	18350.90	3.9210	3.9212	0.9613	26.42	0.45	0.750			
0.2896	18534.96	3.9180	3.9180	0.9695	26.42	0.45	0.750			
0.2925	18718.89	3.9150	3.9149	0.9623	26.42	0.45	0.750			
0.2954	18904.24	3.9120	3.9121	0.9708	26.42	0.45	0.750			
0.2983	19093.04	3.9090	3.9090	0.9789	26.43	0.46	0.750			
0.3013	19282.44	3.9060	3.9060	0.9811	26.43	0.46	0.750			
0.3042	19469.99	3.9030	3.9029	0.9772	26.43	0.46	0.750			
0.3072	19660.58	3.9000	3.9000	0.9703	26.43	0.46	0.750			
0.3101	19844.86	3.8970	3.8970	0.9734	26.43	0.46	0.750			
0.3130	20031.20	3.8940	3.8941	0.9805	26.43	0.46	0.750			
0.3159	20216.64	3.8910	3.8910	0.9811	26.43	0.46	0.750			
0.3189	20407.87	3.8880	3.8881	0.9826	26.43	0.46	0.750			
0.3218	20596.56	3.8850	3.8850	0.9898	26.43	0.46	0.750			
0.3248	20787.08	3.8820	3.8821	1.0003	26.43	0.46	0.750			
0.3278	20982.37	3.8790	3.8790	1.0105	26.43	0.46	0.750			
0.3309	21174.52	3.8760	3.8760	1.0119	26.43	0.46	0.750			
0.3339	21370.07	3.8730	3.8731	1.0210	26.43	0.46	0.750			
0.3370	21568.11	3.8700	3.8700	1.0250	26.42	0.45	0.750			
0.3401	21766.47	3.8670	3.8671	1.0314	26.42	0.45	0.750			
0.3432	21964.48	3.8640	3.8640	1.0280	26.42	0.45	0.750			
0.3463	22160.16	3.8610	3.8610	1.0377	26.42	0.45	0.750			
0.3494	22359.20	3.8580	3.8580	1.0452	26.42	0.45	0.750			
0.3525	22560.07	3.8550	3.8550	1.0540	26.42	0.45	0.750			
0.3557	22765.57	3.8520	3.8520	1.0586	26.42	0.45	0.750			
0.3589	22969.66	3.8490	3.8491	1.0727	26.41	0.44	0.750			
0.3621	23174.89	3.8460	3.8460	1.0860	26.40	0.43	0.750			
0.3654	23385.50	3.8430	3.8431	1.0992	26.39	0.42	0.750			
0.3687	23596.82	3.8400	3.8401	1.1041	26.39	0.42	0.750			
0.3720	23810.55	3.8370	3.8371	1.1213	26.38	0.41	0.750			
0.3754	24027.39	3.8340	3.8341	1.1354	26.38	0.41	0.750			
0.3789	24247.90	3.8310	3.8309	1.1488	26.37	0.40	0.750			
0.3823	24466.35	3.8280	3.8280	1.1627	26.37	0.40	0.750			
0.3858	24690.63	3.8250	3.8250	1.1807	26.36	0.39	0.750			
0.3894	24922.08	3.8220	3.8220	1.1977	26.35	0.38	0.750			
0.3930	25152.95	3.8190	3.8190	1.2076	26.35	0.38	0.750			
0.3967	25385.98	3.8160	3.8161	1.2198	26.34	0.37	0.750			
0.4003	25621.84	3.8130	3.8131	1.2340	26.34	0.37	0.750			
0.4041	25860.35	3.8100	3.8096	1.2431	26.33	0.36	0.750			
0.4078	26096.26	3.8070	3.8071	1.2583	26.32	0.35	0.750			
0.4116	26340.07	3.8040	3.8041	1.2852	26.31	0.34	0.750			
0.4156	26598.13	3.8010	3.8008	1.2901	26.30	0.33	0.750			
0.4195	26844.99	3.7980	3.7981	1.2925	26.29	0.32	0.750			
0.4233	27092.92	3.7950	3.7951	1.2961	26.28	0.31	0.750			
0.4272	27341.91	3.7920	3.7922	1.2970	26.27	0.30	0.750			
0.4311	27588.64	3.7890	3.7888	1.3016	26.26	0.29	0.750			
0.4349	27835.24	3.7860	3.7861	1.3070	26.25	0.28	0.750			
0.4389	28088.23	3.7830	3.7831	1.3174	26.24	0.27	0.750			
0.4429	28343.30	3.7800	3.7799	1.3456	26.23	0.26	0.750			
0.4469	28601.96	3.7770	3.7770	1.3642	26.21	0.24	0.750			
0.4511	28869.15	3.7740	3.7740	1.3736	26.20	0.23	0.750			
0.4552	29135.08	3.7710	3.7709	1.3923	26.19	0.22	0.750			
0.4594	29402.22	3.7680	3.7681	1.4174	26.17	0.20	0.750			
0.4637	29676.83	3.7650	3.7651	1.4363	26.16	0.19	0.750			
0.4680	29953.30	3.7620	3.7620	1.4650	26.15	0.18	0.750			
0.4725	30238.49	3.7590	3.7587	1.4650	26.14	0.17	0.750	0.324	0.388	
0.4770	30525.95	3.7560	3.7560	1.4855	26.13	0.16	0.750			
0.4815	30813.05	3.7530	3.7531	1.5256	26.12	0.15	0.750			
0.4860	31105.18	3.7500	3.7498	1.5564	26.11	0.14	0.750			
0.4907	31405.12	3.7470	3.7471	1.6133	26.09	0.12	0.750			
0.4955	31713.82	3.7440	3.7442	1.6460	26.08	0.11	0.750			
0.5006	32035.41	3.7410	3.7411	1.6924	26.06	0.09	0.750			
0.5058	32374.36	3.7380	3.7379	1.7446	26.05	0.08	0.750			
0.5111	32710.76	3.7350	3.7347	1.7669	26.03	0.06	0.750			
0.5165	33053.15	3.7320	3.7317	1.8075	26.01	0.04	0.750			
0.5219	33401.93	3.7290	3.7292	1.8591	25.99	0.02	0.750			
0.5275	33759.21	3.7260	3.7258	1.9035	25.98	0.01	0.750			
0.5333	34128.27	3.7230	3.7230	1.9525	25.96	-0.01	0.750			
0.5393	34517.90	3.7200	3.7200	2.0144	25.94	-0.03	0.750			
0.5454	34902.46	3.7170	3.7168	2.0801	25.92	-0.05	0.750			
0.5517	35311.57	3.7140	3.7138	2.1436	25.90	-0.07	0.750			
0.5583	35728.01	3.7110	3.7108	2.2052	25.88	-0.09	0.750			
0.5650	36157.14	3.7080	3.7082	2.2709	25.87	-0.10	0.750			
0.5718	36597.99	3.7050	3.7049	2.3444	25.85	-0.12	0.750			
0.5791	37060.50	3.7020	3.7021	2.4168	25.82	-0.15	0.750			
0.5864	37531.45	3.6990	3.6991	2.4850	25.80	-0.17	0.750			
0.5940	38014.99	3.6960	3.6961	2.5541	25.79	-0.18	0.750			
0.6017	38508.61	3.6930	3.6930	2.6228	25.77	-0.20	0.750			
0.6097	39018.57	3.6900	3.6900	2.6988	25.74	-0.23	0.750			
0.6179	39543.27	3.6870	3.6870	2.7928	25.72	-0.25	0.750			
0.6263	40086.24	3.6840	3.6840	2.9139	25.71	-0.26	0.750			
0.6353	40656.41	3.6810	3.6809	2.9905	25.69	-0.28	0.750			
0.6443	41234.32	3.6780	3.6778	3.1358	25.68	-0.29	0.750			
0.6539	41847.48	3.6750	3.6746	3.1742	25.66	-0.31	0.750			
0.6635	42460.90	3.6720	3.6722	3.3040	25.65	-0.32	0.750			
0.6736	43113.59	3.6690	3.6688	3.3037	25.63	-0.34	0.750			
0.6838	43760.40	3.6660	3.6661	3.3064	25.62	-0.35	0.750			
0.6942	44426.74	3.6630	3.6629	3.2443	25.62	-0.35	0.750			
0.7035	45024.33	3.6600	3.6601	2.9262	25.62	-0.35	0.750			
0.7118	45555.69	3.6570	3.6571	2.6269	25.62	-0.35	0.750			
0.7192	46025.91	3.6540	3.6541	2.3437	25.62	-0.35	0.750			
0.7257	46443.10	3.6510	3.6510	2.0963	25.62	-0.35	0.750			
0.7313	46803.47	3.6480	3.6479	1.8718	25.62	-0.35	0.750			
0.7365	47135.96	3.6450	3.6447	1.6990	25.62	-0.35	0.750			
0.7413	47445.99	3.6420	3.6419	1.5644	25.62	-0.35	0.750			
0.7457	47727.48	3.6390	3.6391	1.4438	25.63	-0.34	0.750			
0.7498	47987.38	3.6360	3.6360	1.3449	25.63	-0.34	0.750			
0.7536	48229.24	3.6330	3.6329	1.2782	25.64	-0.33	0.750			
0.7573	48468.91	3.6300	3.6300	1.2452	25.64	-0.33	0.750			
0.7609	48694.94	3.6270	3.6270	1.2248	25.64	-0.33	0.750			
0.7645	48930.17	3.6240	3.6240	1.2319	25.64	-0.33	0.750			
0.7683	49168.08	3.6210	3.6210	1.2431	25.64	-0.33	0.750			
0.7719	49403.97	3.6180	3.6180	1.2429	25.64	-0.33	0.750			
0.7757	49645.69	3.6150	3.6150	1.2466	25.64	-0.33	0.750			
0.7795	49889.13	3.6120	3.6118	1.2309	25.64	-0.33	0.750			
0.7832	50127.14	3.6090	3.6090	1.2239	25.65	-0.32	0.750			
0.7869	50359.75	3.6060	3.6061	1.2074	25.65	-0.32	0.750			
0.7905	50589.10	3.6030	3.6031	1.1942	25.66	-0.31	0.750			
0.7940	50813.81	3.6000	3.6001	1.1799	25.66	-0.31	0.750			
0.7974	51034.29	3.5970	3.5971	1.1850	25.66	-0.31	0.750			
0.8009	51259.90	3.5940	3.5941	1.2090	25.66	-0.31	0.750			
0.8046	51496.19	3.5910	3.5907	1.2311	25.66	-0.31	0.750			
0.8083	51731.25	3.5880	3.5881	1.2561	25.66	-0.31	0.750			
0.8121	51975.63	3.5850	3.5850	1.2906	25.66	-0.31	0.750			
0.8161	52227.67	3.5820	3.5820	1.3260	25.66	-0.31	0.750			
0.8201	52483.26	3.5790	3.5790	1.3565	25.66	-0.31	0.750			
0.8242	52745.80	3.5760	3.5761	1.4055	25.67	-0.30	0.750			
0.8284	53020.54	3.5730	3.5729	1.4483	25.68	-0.29	0.750			
0.8330	53310.98	3.5700	3.5700	1.4790	25.68	-0.29	0.750			
0.8375	53597.22	3.5670	3.5670	1.5153	25.67	-0.30	0.750			
0.8421	53892.63	3.5640	3.5639	1.5483	25.67	-0.30	0.750			
0.8467	54191.08	3.5610	3.5609	1.5679	25.67	-0.30	0.750			
0.8515	54496.56	3.5580	3.5582	1.5752	25.67	-0.30	0.750			
0.8563	54800.57	3.5550	3.5549	1.5883	25.67	-0.30	0.750			
0.8610	55106.36	3.5520	3.5520	1.6092	25.68	-0.29	0.750			
0.8659	55420.68	3.5490	3.5490	1.6401	25.68	-0.29	0.750			
0.8708	55731.16	3.5460	3.5462	1.6467	25.68	-0.29	0.750			
0.8758	56050.95	3.5430	3.5431	1.6660	25.69	-0.28	0.750			
0.8807	56367.70	3.5400	3.5401	1.7055	25.69	-0.28	0.750			
0.8860	56702.52	3.5370	3.5369	1.7431	25.70	-0.27	0.750			
0.8915	57058.06	3.5340	3.5336	1.7423	25.70	-0.27	0.750			
0.8969	57404.44	3.5310	3.5308	1.6597	25.72	-0.25	0.750			
0.9024	57751.19	3.5280	3.5280	1.4942	25.74	-0.23	0.750			
0.9069	58043.74	3.5250	3.5254	1.2924	25.76	-0.21	0.750			
0.9105	58272.03	3.5220	3.5222	1.0099	25.78	-0.19	0.750			
0.9127	58415.75	3.5190	3.5187	0.7697	25.79	-0.18	0.750			
0.9142	58505.63	3.5160	3.5157	0.5373	25.80	-0.17	0.750			
0.9153	58582.23	3.5130	3.5129	0.4390	25.80	-0.17	0.750			
0.9164	58648.90	3.5100	3.5101	0.3731	25.81	-0.16	0.750			
0.9174	58715.17	3.5070	3.5070	0.3474	25.81	-0.16	0.750			
0.9184	58777.05	3.5040	3.5040	0.3243	25.82	-0.15	0.750			
0.9193	58837.76	3.5010	3.5010	0.3133	25.83	-0.14	0.750			
0.9202	58895.93	3.4980	3.4981	0.3049	25.83	-0.14	0.750			
0.9211	58953.33	3.4950	3.4950	0.2974	25.84	-0.13	0.750			
0.9220	59010.08	3.4920	3.4919	0.2902	25.84	-0.13	0.750			
0.9229	59065.14	3.4890	3.4889	0.2831	25.85	-0.12	0.750			
0.9237	59119.58	3.4860	3.4861	0.2767	25.85	-0.12	0.750			
0.9246	59172.38	3.4830	3.4830	0.2702	25.86	-0.11	0.750			
0.9254	59222.69	3.4800	3.4799	0.2625	25.86	-0.11	0.750			
0.9261	59270.99	3.4770	3.4771	0.2530	25.87	-0.10	0.750			
0.9269	59319.15	3.4740	3.4740	0.2487	25.87	-0.10	0.750			
0.9276	59366.37	3.4710	3.4710	0.2454	25.88	-0.09	0.750			
0.9283	59413.17	3.4680	3.4680	0.2419	25.88	-0.09	0.750			
0.9290	59458.99	3.4650	3.4650	0.2382	25.89	-0.08	0.750			
0.9298	59504.93	3.4620	3.4620	0.2342	25.89	-0.08	0.750			
0.9305	59549.91	3.4590	3.4591	0.2292	25.90	-0.07	0.750			
0.9311	59592.92	3.4560	3.4560	0.2248	25.90	-0.07	0.750			
0.9318	59635.66	3.4530	3.4531	0.2204	25.90	-0.07	0.750			
0.9325	59677.55	3.4500	3.4500	0.2163	25.91	-0.06	0.750			
0.9331	59718.39	3.4470	3.4469	0.2110	25.91	-0.06	0.750			
0.9337	59758.40	3.4440	3.4441	0.2073	25.92	-0.05	0.750			
0.9343	59797.86	3.4410	3.4411	0.2038	25.92	-0.05	0.750			
0.9350	59836.84	3.4380	3.4380	0.2004	25.92	-0.05	0.750			
0.9355	59875.14	3.4350	3.4349	0.1967	25.93	-0.04	0.750			
0.9361	59912.12	3.4320	3.4320	0.1916	25.93	-0.04	0.750			
0.9367	59948.57	3.4290	3.4290	0.1881	25.94	-0.03	0.750			
0.9373	59984.57	3.4260	3.4260	0.1845	25.94	-0.03	0.750			
0.9378	60019.73	3.4230	3.4230	0.1811	25.94	-0.03	0.750			
0.9383	60054.03	3.4200	3.4200	0.1764	25.95	-0.02	0.750			
0.9389	60087.54	3.4170	3.4169	0.1725	25.95	-0.02	0.750			
0.9394	60120.44	3.4140	3.4140	0.1680	25.95	-0.02	0.750			
0.9399	60152.57	3.4110	3.4110	0.1633	25.96	-0.01	0.750			
0.9404	60183.62	3.4080	3.4081	0.1584	25.96	-0.01	0.750			
0.9408	60213.28	3.4050	3.4050	0.1543	25.96	-0.01	0.750			
0.9413	60242.36	3.4020	3.4020	0.1495	25.97	-0.00	0.750			
0.9417	60270.73	3.3990	3.3989	0.1442	25.97	-0.00	0.750			
0.9422	60298.09	3.3960	3.3959	0.1397	25.97	0.00	0.750			
0.9426	60324.45	3.3930	3.3931	0.1345	25.97	0.00	0.750			
0.9430	60349.99	3.3900	3.3900	0.1296	25.98	0.01	0.750			
0.9434	60374.56	3.3870	3.3870	0.1244	25.98	0.01	0.750			
0.9437	60397.87	3.3840	3.3839	0.1184	25.98	0.01	0.750			
0.9441	60419.94	3.3810	3.3810	0.1117	25.98	0.01	0.750			
0.9444	60441.01	3.3780	3.3780	0.1060	25.99	0.02	0.750			
0.9447	60461.72	3.3750	3.3750	0.0975	25.99	0.02	0.750			
0.9450	60480.22	3.3720	3.3719	0.0909	25.99	0.02	0.750			
0.9453	60496.83	3.3690	3.3690	0.0821	25.99	0.02	0.750			
0.9455	60512.33	3.3660	3.3662	0.0738	25.99	0.02	0.750			
0.9457	60525.59	3.3630	3.3634	0.0643	25.99	0.02	0.750			
0.9459	60537.60	3.3600	3.3606	0.0543	26.00	0.03	0.750			
0.9460	60547.01	3.3570	3.3578	0.0438	26.00	0.03	0.750			
0.9462	60554.41	3.3540	3.3549	0.0333	26.00	0.03	0.750			
