Ah_balance (normalized)	Ah_balance (mAh)	Voltage - fit (V)	Voltage -  interpolate (V)	dQ/dV (1/V)	Temperature (°C)	Temperature - diff (°C)	Current (C)	R_DC 0ms (mOhm)	R_DC 50ms (mOhm)	R_DC 50 ms PEC (mOhm)
0.0552	3533.46	4.1980	4.1980	0.7579	26.60	0.65	0.750			
0.0575	3678.89	4.1950	4.1950	0.7567	26.60	0.65	0.750			
0.0598	3824.68	4.1920	4.1920	0.7547	26.60	0.65	0.750			
0.0620	3968.75	4.1890	4.1888	0.7520	26.60	0.65	0.750			
0.0643	4112.35	4.1860	4.1860	0.7503	26.60	0.65	0.750			
0.0665	4257.13	4.1830	4.1830	0.7457	26.60	0.65	0.750			
0.0688	4400.26	4.1800	4.1800	0.7517	26.60	0.65	0.750			
0.0710	4542.28	4.1770	4.1770	0.7504	26.60	0.65	0.750			
0.0733	4688.33	4.1740	4.1740	0.7553	26.60	0.65	0.750			
0.0755	4834.13	4.1710	4.1711	0.7582	26.60	0.65	0.750			
0.0778	4979.11	4.1680	4.1681	0.7613	26.60	0.65	0.750			
0.0801	5126.72	4.1650	4.1650	0.7595	26.60	0.65	0.750			
0.0824	5272.18	4.1620	4.1620	0.7623	26.60	0.65	0.750			
0.0846	5416.29	4.1590	4.1590	0.7630	26.60	0.65	0.750			
0.0870	5564.80	4.1560	4.1557	0.7648	26.60	0.65	0.750			
0.0893	5713.87	4.1530	4.1529	0.7673	26.60	0.65	0.750			
0.0916	5861.10	4.1500	4.1501	0.7640	26.60	0.65	0.750			
0.0939	6007.88	4.1470	4.1471	0.7633	26.60	0.65	0.750			
0.0962	6155.12	4.1440	4.1439	0.7658	26.60	0.65	0.750			
0.0984	6298.11	4.1410	4.1410	0.7580	26.60	0.65	0.750			
0.1007	6443.66	4.1380	4.1381	0.7626	26.60	0.65	0.750			
0.1030	6592.99	4.1350	4.1350	0.7706	26.60	0.65	0.750			
0.1053	6740.26	4.1320	4.1320	0.7690	26.60	0.65	0.750			
0.1076	6887.51	4.1290	4.1291	0.7713	26.60	0.65	0.750			
0.1099	7035.45	4.1260	4.1260	0.7742	26.60	0.65	0.750			
0.1123	7184.47	4.1230	4.1226	0.7772	26.60	0.65	0.750			
0.1146	7334.30	4.1200	4.1201	0.7793	26.60	0.65	0.750			
0.1169	7483.87	4.1170	4.1171	0.7821	26.60	0.65	0.750			
0.1193	7636.32	4.1140	4.1140	0.7847	26.60	0.65	0.750			
0.1217	7786.86	4.1110	4.1110	0.7864	26.60	0.65	0.750			
0.1240	7937.15	4.1080	4.1079	0.7840	26.60	0.65	0.750			
0.1264	8087.30	4.1050	4.1051	0.7873	26.60	0.65	0.750			
0.1287	8239.77	4.1020	4.1020	0.7868	26.60	0.65	0.750			
0.1311	8390.31	4.0990	4.0990	0.7864	26.60	0.65	0.750			
0.1334	8540.37	4.0960	4.0960	0.7887	26.60	0.65	0.750			
0.1358	8691.90	4.0930	4.0931	0.7900	26.60	0.65	0.750			
0.1382	8842.84	4.0900	4.0900	0.7913	26.60	0.65	0.750			
0.1406	8995.66	4.0870	4.0870	0.7951	26.60	0.65	0.750			
0.1430	9148.80	4.0840	4.0840	0.7906	26.60	0.65	0.750			
0.1453	9300.85	4.0810	4.0811	0.7969	26.61	0.66	0.750			
0.1477	9454.88	4.0780	4.0780	0.7970	26.61	0.66	0.750			
0.1501	9606.12	4.0750	4.0751	0.7966	26.61	0.66	0.750			
0.1525	9760.40	4.0720	4.0721	0.8004	26.61	0.66	0.750			
0.1549	9913.87	4.0690	4.0690	0.7967	26.61	0.66	0.750			
0.1573	10065.43	4.0660	4.0660	0.8051	26.61	0.66	0.750			
0.1597	10219.69	4.0630	4.0632	0.8085	26.61	0.66	0.750			
0.1621	10374.92	4.0600	4.0596	0.8103	26.61	0.66	0.750			
0.1646	10532.61	4.0570	4.0571	0.8178	26.61	0.66	0.750			
0.1670	10690.65	4.0540	4.0541	0.8166	26.61	0.66	0.750			
0.1695	10848.31	4.0510	4.0509	0.8220	26.61	0.66	0.750			
0.1719	11003.46	4.0480	4.0481	0.8172	26.61	0.66	0.750			
0.1744	11160.65	4.0450	4.0449	0.8224	26.61	0.66	0.750			
0.1769	11319.73	4.0420	4.0420	0.8281	26.61	0.66	0.750			
0.1794	11480.04	4.0390	4.0390	0.8294	26.61	0.66	0.750			
0.1819	11639.15	4.0360	4.0361	0.8343	26.62	0.67	0.750			
0.1844	11798.89	4.0330	4.0331	0.8370	26.62	0.67	0.750			
0.1869	11960.62	4.0300	4.0297	0.8352	26.62	0.67	0.750			
0.1894	12119.99	4.0270	4.0270	0.8359	26.62	0.67	0.750			
0.1919	12280.77	4.0240	4.0242	0.8400	26.62	0.67	0.750			
0.1944	12442.82	4.0210	4.0210	0.8457	26.63	0.68	0.750			
0.1969	12603.90	4.0180	4.0180	0.8404	26.63	0.68	0.750			
0.1995	12767.57	4.0150	4.0148	0.8486	26.63	0.68	0.750			
0.2020	12929.97	4.0120	4.0122	0.8525	26.63	0.68	0.750			
0.2046	13095.56	4.0090	4.0090	0.8600	26.63	0.68	0.750			
0.2072	13261.43	4.0060	4.0060	0.8589	26.62	0.67	0.750			
0.2098	13427.12	4.0030	4.0029	0.8570	26.62	0.67	0.750			
0.2124	13590.86	4.0000	4.0001	0.8540	26.62	0.67	0.750			
0.2149	13755.84	3.9970	3.9970	0.8498	26.62	0.67	0.750			
0.2175	13918.09	3.9940	3.9939	0.8484	26.62	0.67	0.750			
0.2200	14078.51	3.9910	3.9911	0.8501	26.62	0.67	0.750			
0.2225	14240.01	3.9880	3.9881	0.8526	26.62	0.67	0.750			
0.2251	14404.97	3.9850	3.9849	0.8610	26.62	0.67	0.750			
0.2277	14572.12	3.9820	3.9820	0.8622	26.62	0.67	0.750			
0.2303	14737.60	3.9790	3.9790	0.8681	26.63	0.68	0.750			
0.2329	14903.53	3.9760	3.9761	0.8776	26.63	0.68	0.750			
0.2355	15073.18	3.9730	3.9730	0.8765	26.64	0.69	0.750			
0.2382	15241.69	3.9700	3.9701	0.8781	26.64	0.69	0.750			
0.2408	15412.32	3.9670	3.9670	0.8808	26.64	0.69	0.750			
0.2435	15581.73	3.9640	3.9641	0.8832	26.64	0.69	0.750			
0.2461	15752.18	3.9610	3.9609	0.8822	26.63	0.68	0.750			
0.2488	15920.47	3.9580	3.9580	0.8797	26.63	0.68	0.750			
0.2514	16089.22	3.9550	3.9550	0.8813	26.63	0.68	0.750			
0.2541	16259.54	3.9520	3.9520	0.8825	26.63	0.68	0.750			
0.2567	16427.04	3.9490	3.9491	0.8834	26.63	0.68	0.750			
0.2593	16595.49	3.9460	3.9460	0.8825	26.63	0.68	0.750			
0.2620	16766.47	3.9430	3.9426	0.8845	26.63	0.68	0.750			
0.2646	16936.68	3.9400	3.9401	0.8850	26.63	0.68	0.750			
0.2673	17105.85	3.9370	3.9370	0.8856	26.63	0.68	0.750			
0.2699	17276.32	3.9340	3.9341	0.8902	26.62	0.67	0.750			
0.2726	17448.67	3.9310	3.9310	0.8912	26.62	0.67	0.750			
0.2753	17617.82	3.9280	3.9281	0.8888	26.62	0.67	0.750			
0.2780	17790.52	3.9250	3.9249	0.8904	26.61	0.66	0.750			
0.2806	17960.06	3.9220	3.9221	0.8978	26.61	0.66	0.750			
0.2833	18131.83	3.9190	3.9191	0.9019	26.61	0.66	0.750			
0.2860	18303.86	3.9160	3.9159	0.9084	26.60	0.65	0.750			
0.2887	18479.96	3.9130	3.9130	0.9144	26.60	0.65	0.750			
0.2915	18658.24	3.9100	3.9101	0.9109	26.59	0.64	0.750			
0.2943	18833.00	3.9070	3.9070	0.9083	26.59	0.64	0.750			
0.2970	19008.03	3.9040	3.9042	0.9119	26.58	0.63	0.750			
0.2997	19180.90	3.9010	3.9007	0.9091	26.58	0.63	0.750			
0.3024	19356.20	3.8980	3.8979	0.9058	26.57	0.62	0.750			
0.3051	19528.53	3.8950	3.8951	0.9145	26.57	0.62	0.750			
0.3079	19705.16	3.8920	3.8920	0.9266	26.56	0.61	0.750			
0.3107	19885.21	3.8890	3.8891	0.9327	26.55	0.60	0.750			
0.3135	20061.87	3.8860	3.8861	0.9386	26.55	0.60	0.750			
0.3163	20242.78	3.8830	3.8832	0.9462	26.54	0.59	0.750			
0.3192	20427.81	3.8800	3.8799	0.9475	26.53	0.58	0.750			
0.3220	20610.64	3.8770	3.8770	0.9495	26.53	0.58	0.750			
0.3249	20792.83	3.8740	3.8742	0.9445	26.52	0.57	0.750			
0.3278	20976.28	3.8710	3.8709	0.9355	26.51	0.56	0.750			
0.3305	21154.60	3.8680	3.8680	0.9456	26.50	0.55	0.750			
0.3334	21334.55	3.8650	3.8650	0.9464	26.49	0.54	0.750			
0.3362	21516.92	3.8620	3.8619	0.9514	26.48	0.53	0.750			
0.3391	21702.19	3.8590	3.8592	0.9515	26.48	0.53	0.750			
0.3419	21883.81	3.8560	3.8561	0.9563	26.47	0.52	0.750			
0.3448	22068.59	3.8530	3.8530	0.9605	26.47	0.52	0.750			
0.3477	22253.61	3.8500	3.8500	0.9662	26.46	0.51	0.750			
0.3506	22437.03	3.8470	3.8470	0.9649	26.46	0.51	0.750			
0.3535	22622.68	3.8440	3.8441	0.9718	26.45	0.50	0.750			
0.3564	22809.69	3.8410	3.8411	0.9800	26.44	0.49	0.750			
0.3594	22999.76	3.8380	3.8380	0.9820	26.43	0.48	0.750			
0.3623	23188.83	3.8350	3.8348	0.9794	26.42	0.47	0.750			
0.3653	23378.26	3.8320	3.8321	0.9819	26.41	0.46	0.750			
0.3682	23565.13	3.8290	3.8291	0.9886	26.40	0.45	0.750			
0.3712	23755.44	3.8260	3.8260	0.9942	26.38	0.43	0.750			
0.3741	23945.10	3.8230	3.8228	0.9938	26.37	0.42	0.750			
0.3772	24138.35	3.8200	3.8200	0.9948	26.36	0.41	0.750			
0.3801	24328.23	3.8170	3.8172	1.0162	26.36	0.41	0.750			
0.3832	24525.59	3.8140	3.8140	1.0280	26.35	0.40	0.750			
0.3863	24721.48	3.8110	3.8109	1.0365	26.34	0.39	0.750			
0.3894	24924.03	3.8080	3.8080	1.0413	26.33	0.38	0.750			
0.3926	25127.54	3.8050	3.8052	1.0504	26.32	0.37	0.750			
0.3958	25329.70	3.8020	3.8020	1.0623	26.31	0.36	0.750			
0.3990	25536.01	3.7990	3.7989	1.0686	26.30	0.35	0.750			
0.4021	25735.21	3.7960	3.7960	1.0627	26.29	0.34	0.750			
0.4053	25940.89	3.7930	3.7931	1.0838	26.28	0.33	0.750			
0.4086	26148.40	3.7900	3.7901	1.1017	26.27	0.32	0.750			
0.4119	26363.96	3.7870	3.7868	1.1259	26.26	0.31	0.750			
0.4153	26579.82	3.7840	3.7841	1.1353	26.25	0.30	0.750			
0.4187	26797.63	3.7810	3.7811	1.1556	26.23	0.28	0.750			
0.4222	27022.60	3.7780	3.7780	1.1865	26.22	0.27	0.750			
0.4258	27249.21	3.7750	3.7752	1.2134	26.21	0.26	0.750			
0.4295	27486.11	3.7720	3.7721	1.2504	26.19	0.24	0.750			
0.4333	27731.26	3.7690	3.7690	1.2821	26.18	0.23	0.750			
0.4373	27984.69	3.7660	3.7659	1.3031	26.17	0.22	0.750	0.312	0.432	
0.4412	28235.54	3.7630	3.7631	1.3262	26.16	0.21	0.750			
0.4452	28493.90	3.7600	3.7601	1.3482	26.16	0.21	0.750			
0.4493	28755.17	3.7570	3.7568	1.3557	26.15	0.20	0.750			
0.4533	29010.80	3.7540	3.7541	1.3785	26.13	0.18	0.750			
0.4575	29279.69	3.7510	3.7512	1.4087	26.11	0.16	0.750			
0.4617	29551.94	3.7480	3.7476	1.4410	26.09	0.14	0.750			
0.4661	29831.14	3.7450	3.7449	1.4646	26.08	0.13	0.750			
0.4705	30113.86	3.7420	3.7423	1.5100	26.06	0.11	0.750			
0.4752	30410.92	3.7390	3.7387	1.5596	26.05	0.10	0.750			
0.4798	30710.17	3.7360	3.7361	1.5991	26.03	0.08	0.750			
0.4847	31023.86	3.7330	3.7333	1.6459	26.02	0.07	0.750			
0.4899	31350.65	3.7300	3.7301	1.7005	26.00	0.05	0.750			
0.4950	31681.93	3.7270	3.7269	1.7591	25.99	0.04	0.750			
0.5003	32018.45	3.7240	3.7243	1.8156	25.97	0.02	0.750			
0.5059	32376.02	3.7210	3.7211	1.8619	25.96	0.01	0.750			
0.5115	32736.47	3.7180	3.7180	1.9045	25.95	0.00	0.750			
0.5174	33111.45	3.7150	3.7149	1.9428	25.93	-0.02	0.750			
0.5233	33492.43	3.7120	3.7122	1.9988	25.91	-0.04	0.750			
0.5293	33875.01	3.7090	3.7090	2.0521	25.90	-0.05	0.750			
0.5355	34271.96	3.7060	3.7059	2.0961	25.88	-0.07	0.750			
0.5418	34675.55	3.7030	3.7028	2.1575	25.86	-0.09	0.750			
0.5485	35105.81	3.7000	3.7001	2.2426	25.85	-0.10	0.750			
0.5554	35543.53	3.6970	3.6968	2.3172	25.83	-0.12	0.750			
0.5624	35995.17	3.6940	3.6940	2.4015	25.81	-0.14	0.750			
0.5696	36453.47	3.6910	3.6909	2.4916	25.80	-0.15	0.750			
0.5774	36950.73	3.6880	3.6879	2.5831	25.79	-0.16	0.750			
0.5851	37448.39	3.6850	3.6851	2.6460	25.77	-0.18	0.750			
0.5932	37963.71	3.6820	3.6820	2.7475	25.76	-0.19	0.750			
0.6016	38499.69	3.6790	3.6788	2.8316	25.75	-0.20	0.750			
0.6102	39054.32	3.6760	3.6760	2.8862	25.74	-0.21	0.750			
0.6193	39637.34	3.6730	3.6730	2.8789	25.73	-0.22	0.750			
0.6281	40197.43	3.6700	3.6699	2.7237	25.72	-0.23	0.750			
0.6361	40709.98	3.6670	3.6672	2.5020	25.72	-0.23	0.750			
0.6431	41159.84	3.6640	3.6643	2.2427	25.72	-0.23	0.750			
0.6494	41559.10	3.6610	3.6610	2.0182	25.72	-0.23	0.750			
0.6549	41910.60	3.6580	3.6579	1.8199	25.72	-0.23	0.750			
0.6601	42244.88	3.6550	3.6547	1.6769	25.71	-0.24	0.750			
0.6648	42544.96	3.6520	3.6521	1.5658	25.71	-0.24	0.750			
0.6692	42830.53	3.6490	3.6490	1.4596	25.72	-0.23	0.750			
0.6735	43105.84	3.6460	3.6459	1.3740	25.72	-0.23	0.750			
0.6774	43354.42	3.6430	3.6431	1.2998	25.72	-0.23	0.750			
0.6811	43592.41	3.6400	3.6401	1.2507	25.72	-0.23	0.750			
0.6848	43824.71	3.6370	3.6370	1.2164	25.72	-0.23	0.750			
0.6883	44048.31	3.6340	3.6341	1.1909	25.72	-0.23	0.750			
0.6918	44273.34	3.6310	3.6311	1.1995	25.72	-0.23	0.750			
0.6954	44503.19	3.6280	3.6280	1.2122	25.72	-0.23	0.750			
0.6991	44740.37	3.6250	3.6247	1.2054	25.72	-0.23	0.750			
0.7027	44973.70	3.6220	3.6220	1.2016	25.72	-0.23	0.750			
0.7064	45206.98	3.6190	3.6192	1.1985	25.72	-0.23	0.750			
0.7100	45440.12	3.6160	3.6159	1.1850	25.72	-0.23	0.750			
0.7136	45667.71	3.6130	3.6129	1.1495	25.72	-0.23	0.750			
0.7169	45878.81	3.6100	3.6101	1.1346	25.72	-0.23	0.750			
0.7202	46093.05	3.6070	3.6072	1.1236	25.72	-0.23	0.750			
0.7236	46307.57	3.6040	3.6038	1.1255	25.72	-0.23	0.750			
0.7268	46518.31	3.6010	3.6011	1.1353	25.72	-0.23	0.750			
0.7302	46734.74	3.5980	3.5981	1.1489	25.72	-0.23	0.750			
0.7337	46957.78	3.5950	3.5950	1.1780	25.72	-0.23	0.750			
0.7374	47190.77	3.5920	3.5919	1.1876	25.72	-0.23	0.750			
0.7409	47417.50	3.5890	3.5891	1.2355	25.72	-0.23	0.750			
0.7446	47655.25	3.5860	3.5860	1.2852	25.72	-0.23	0.750			
0.7486	47908.12	3.5830	3.5828	1.3108	25.72	-0.23	0.750			
0.7525	48160.70	3.5800	3.5802	1.3580	25.72	-0.23	0.750			
0.7567	48427.92	3.5770	3.5772	1.4190	25.72	-0.23	0.750			
0.7610	48702.58	3.5740	3.5740	1.4765	25.72	-0.23	0.750			
0.7655	48994.10	3.5710	3.5711	1.5318	25.72	-0.23	0.750			
0.7702	49290.66	3.5680	3.5680	1.5734	25.72	-0.23	0.750			
0.7751	49608.08	3.5650	3.5648	1.6075	25.72	-0.23	0.750			
0.7801	49929.36	3.5620	3.5621	1.6465	25.72	-0.23	0.750			
0.7850	50238.80	3.5590	3.5595	1.6363	25.72	-0.23	0.750			
0.7900	50560.57	3.5560	3.5560	1.6364	25.72	-0.23	0.750			
0.7949	50871.78	3.5530	3.5529	1.6535	25.72	-0.23	0.750			
0.7998	51185.03	3.5500	3.5497	1.6749	25.72	-0.23	0.750			
0.8048	51509.88	3.5470	3.5478	1.7045	25.72	-0.23	0.750			
0.8100	51841.63	3.5440	3.5443	1.7441	25.72	-0.23	0.750			
0.8153	52177.31	3.5410	3.5412	1.7747	25.72	-0.23	0.750			
0.8208	52531.35	3.5380	3.5380	1.7612	25.73	-0.22	0.750			
0.8265	52894.36	3.5350	3.5346	1.6560	25.75	-0.20	0.750			
0.8316	53224.48	3.5320	3.5320	1.4968	25.77	-0.18	0.750			
0.8362	53514.08	3.5290	3.5294	1.2618	25.79	-0.16	0.750			
0.8395	53727.72	3.5260	3.5262	0.9737	25.80	-0.15	0.750			
0.8417	53865.91	3.5230	3.5227	0.7260	25.81	-0.14	0.750			
0.8431	53955.76	3.5200	3.5196	0.5237	25.82	-0.13	0.750			
0.8442	54031.49	3.5170	3.5168	0.4292	25.83	-0.12	0.750			
0.8453	54100.98	3.5140	3.5140	0.3722	25.84	-0.11	0.750			
0.8463	54163.20	3.5110	3.5110	0.3411	25.84	-0.11	0.750			
0.8473	54225.45	3.5080	3.5079	0.3215	25.85	-0.10	0.750			
0.8482	54282.69	3.5050	3.5049	0.3045	25.85	-0.10	0.750			
0.8491	54339.81	3.5020	3.5021	0.2951	25.86	-0.09	0.750			
0.8499	54395.92	3.4990	3.4990	0.2889	25.86	-0.09	0.750			
0.8508	54450.64	3.4960	3.4959	0.2821	25.87	-0.08	0.750			
0.8516	54503.64	3.4930	3.4930	0.2748	25.87	-0.08	0.750			
0.8524	54555.73	3.4900	3.4900	0.2679	25.88	-0.07	0.750			
0.8532	54606.91	3.4870	3.4870	0.2626	25.89	-0.06	0.750			
0.8540	54656.69	3.4840	3.4841	0.2574	25.89	-0.06	0.750			
0.8548	54705.49	3.4810	3.4810	0.2511	25.90	-0.05	0.750			
0.8555	54752.60	3.4780	3.4779	0.2453	25.90	-0.05	0.750			
0.8562	54799.09	3.4750	3.4750	0.2402	25.91	-0.04	0.750			
0.8570	54844.92	3.4720	3.4720	0.2353	25.91	-0.04	0.750			
0.8577	54889.71	3.4690	3.4690	0.2300	25.92	-0.03	0.750			
0.8583	54933.54	3.4660	3.4660	0.2255	25.92	-0.03	0.750			
0.8590	54976.16	3.4630	3.4631	0.2200	25.93	-0.02	0.750			
0.8597	55017.81	3.4600	3.4600	0.2143	25.93	-0.02	0.750			
0.8603	55058.62	3.4570	3.4569	0.2102	25.94	-0.01	0.750			
0.8609	55098.15	3.4540	3.4541	0.2046	25.94	-0.01	0.750			
0.8615	55137.06	3.4510	3.4511	0.1998	25.94	-0.01	0.750			
0.8621	55174.95	3.4480	3.4480	0.1956	25.95	-0.00	0.750			
0.8627	55211.99	3.4450	3.4450	0.1913	25.95	0.00	0.750			
0.8633	55248.09	3.4420	3.4420	0.1868	25.96	0.01	0.750			
0.8638	55283.79	3.4390	3.4390	0.1817	25.96	0.01	0.750			
0.8644	55318.67	3.4360	3.4360	0.1767	25.97	0.02	0.750			
0.8649	55352.15	3.4330	3.4331	0.1711	25.97	0.02	0.750			
0.8654	55384.43	3.4300	3.4301	0.1652	25.97	0.02	0.750			
0.8659	55415.89	3.4270	3.4269	0.1589	25.98	0.03	0.750			
0.8663	55445.47	3.4240	3.4240	0.1529	25.98	0.03	0.750			
0.8668	55474.04	3.4210	3.4210	0.1468	25.98	0.03	0.750			
0.8672	55501.73	3.4180	3.4181	0.1413	25.99	0.04	0.750			
0.8676	55528.39	3.4150	3.4149	0.1359	25.99	0.04	0.750			
0.8680	55554.07	3.4120	3.4121	0.1295	25.99	0.04	0.750			
0.8684	55578.47	3.4090	3.4089	0.1236	25.99	0.04	0.750			
0.8688	55601.72	3.4060	3.4061	0.1165	26.00	0.05	0.750			
0.8691	55623.85	3.4030	3.4030	0.1099	26.00	0.05	0.750			
0.8695	55645.48	3.4000	3.3999	0.1003	26.00	0.05	0.750			
0.8697	55663.73	3.3970	3.3968	0.0898	26.00	0.05	0.750			
0.8700	55680.74	3.3940	3.3941	0.0810	26.01	0.06	0.750			
0.8702	55695.19	3.3910	3.3913	0.0695	26.01	0.06	0.750			
0.8704	55708.73	3.3880	3.3883	0.0586	26.01	0.06	0.750			
0.8706	55718.71	3.3850	3.3855	0.0453	26.01	0.06	0.750			
0.8707	55726.14	3.3820	3.3830	0.0321	26.01	0.06	0.750			
0.8708	55731.04	3.3790	3.3809	0.0189	26.01	0.06	0.750			
