Ah_balance (normalized)	Ah_balance (mAh)	Voltage - fit (V)	Voltage -  interpolate (V)	dQ/dV (1/V)	Temperature (°C)	Temperature - diff (°C)	Current (C)	R_DC 0ms (mOhm)	R_DC 50ms (mOhm)	R_DC 50 ms PEC (mOhm)
0.0003	19.92	4.1570	4.1567	-0.1058	25.11	0.00	-0.750			
0.0007	44.61	4.1540	4.1537	-0.1464	25.11	0.00	-0.750			
0.0012	76.59	4.1510	4.1510	-0.1842	25.11	0.00	-0.750			
0.0018	115.75	4.1480	4.1480	-0.2208	25.11	0.00	-0.750			
0.0025	162.02	4.1450	4.1450	-0.2554	25.11	0.00	-0.750			
0.0034	215.13	4.1420	4.1420	-0.2913	25.11	0.00	-0.750			
0.0043	274.70	4.1390	4.1390	-0.3208	25.11	0.00	-0.750			
0.0053	339.77	4.1360	4.1360	-0.3502	25.11	0.00	-0.750			
0.0064	410.51	4.1330	4.1330	-0.3811	25.11	0.00	-0.750			
0.0076	486.45	4.1300	4.1300	-0.4082	25.11	0.00	-0.750			
0.0089	567.81	4.1270	4.1269	-0.4336	25.11	0.00	-0.750			
0.0102	654.02	4.1240	4.1240	-0.4565	25.11	0.00	-0.750			
0.0116	744.87	4.1210	4.1210	-0.4777	25.11	0.00	-0.750			
0.0131	839.35	4.1180	4.1180	-0.4971	25.11	0.00	-0.750			
0.0146	936.73	4.1150	4.1151	-0.5163	25.11	0.00	-0.750			
0.0162	1037.48	4.1120	4.1120	-0.5307	25.11	0.00	-0.750			
0.0178	1141.35	4.1090	4.1089	-0.5478	25.11	0.00	-0.750			
0.0195	1248.09	4.1060	4.1061	-0.5633	25.11	0.00	-0.750			
0.0212	1358.08	4.1030	4.1030	-0.5778	25.11	0.00	-0.750			
0.0230	1470.58	4.1000	4.1000	-0.5884	25.11	0.00	-0.750			
0.0248	1585.05	4.0970	4.0970	-0.5986	25.11	0.00	-0.750			
0.0266	1700.84	4.0940	4.0940	-0.6065	25.11	0.00	-0.750			
0.0284	1818.86	4.0910	4.0910	-0.6182	25.11	0.00	-0.750			
0.0303	1938.06	4.0880	4.0879	-0.6240	25.12	0.01	-0.750			
0.0322	2058.53	4.0850	4.0850	-0.6280	25.12	0.01	-0.750			
0.0341	2180.12	4.0820	4.0820	-0.6325	25.12	0.01	-0.750			
0.0360	2302.20	4.0790	4.0792	-0.6405	25.12	0.01	-0.750			
0.0379	2425.61	4.0760	4.0758	-0.6437	25.12	0.01	-0.750			
0.0398	2549.07	4.0730	4.0730	-0.6497	25.12	0.01	-0.750			
0.0418	2674.18	4.0700	4.0700	-0.6580	25.12	0.01	-0.750			
0.0438	2802.95	4.0670	4.0669	-0.6628	25.12	0.01	-0.750			
0.0458	2931.56	4.0640	4.0640	-0.6641	25.12	0.01	-0.750			
0.0478	3059.24	4.0610	4.0612	-0.6657	25.12	0.01	-0.750			
0.0498	3186.35	4.0580	4.0579	-0.6664	25.12	0.01	-0.750			
0.0518	3313.87	4.0550	4.0550	-0.6710	25.13	0.02	-0.750			
0.0538	3442.24	4.0520	4.0520	-0.6740	25.13	0.02	-0.750			
0.0558	3571.32	4.0490	4.0490	-0.6760	25.13	0.02	-0.750			
0.0579	3704.10	4.0460	4.0460	-0.6842	25.14	0.03	-0.750			
0.0599	3835.64	4.0430	4.0431	-0.6851	25.14	0.03	-0.750			
0.0620	3967.17	4.0400	4.0399	-0.6889	25.14	0.03	-0.750			
0.0641	4099.85	4.0370	4.0370	-0.6913	25.14	0.03	-0.750			
0.0661	4231.72	4.0340	4.0340	-0.6916	25.14	0.03	-0.750			
0.0682	4365.10	4.0310	4.0310	-0.6974	25.15	0.04	-0.750			
0.0703	4500.74	4.0280	4.0280	-0.7019	25.15	0.04	-0.750			
0.0724	4635.83	4.0250	4.0249	-0.7012	25.15	0.04	-0.750			
0.0745	4770.74	4.0220	4.0220	-0.7040	25.15	0.04	-0.750			
0.0766	4905.03	4.0190	4.0191	-0.7065	25.16	0.05	-0.750			
0.0788	5041.27	4.0160	4.0160	-0.7131	25.16	0.05	-0.750			
0.0809	5179.56	4.0130	4.0129	-0.7120	25.17	0.06	-0.750			
0.0831	5316.84	4.0100	4.0100	-0.7128	25.17	0.06	-0.750			
0.0852	5454.20	4.0070	4.0073	-0.7133	25.18	0.07	-0.750			
0.0874	5591.85	4.0040	4.0038	-0.7159	25.18	0.07	-0.750			
0.0895	5728.05	4.0010	4.0010	-0.7138	25.19	0.08	-0.750			
0.0916	5862.23	3.9980	3.9980	-0.7170	25.19	0.08	-0.750			
0.0938	6001.39	3.9950	3.9950	-0.7201	25.19	0.08	-0.750			
0.0960	6144.04	3.9920	3.9919	-0.7249	25.20	0.09	-0.750			
0.0982	6282.58	3.9890	3.9892	-0.7235	25.20	0.09	-0.750			
0.1003	6421.78	3.9860	3.9860	-0.7255	25.20	0.09	-0.750			
0.1025	6559.51	3.9830	3.9830	-0.7323	25.21	0.10	-0.750			
0.1047	6700.70	3.9800	3.9800	-0.7287	25.21	0.10	-0.750			
0.1069	6841.06	3.9770	3.9769	-0.7335	25.21	0.10	-0.750			
0.1091	6982.25	3.9740	3.9740	-0.7379	25.22	0.11	-0.750			
0.1113	7124.93	3.9710	3.9710	-0.7413	25.22	0.11	-0.750			
0.1135	7266.67	3.9680	3.9679	-0.7400	25.23	0.12	-0.750			
0.1158	7408.19	3.9650	3.9650	-0.7436	25.24	0.13	-0.750			
0.1180	7551.11	3.9620	3.9620	-0.7447	25.24	0.13	-0.750			
0.1203	7697.36	3.9590	3.9589	-0.7506	25.25	0.14	-0.750			
0.1225	7840.30	3.9560	3.9561	-0.7495	25.26	0.15	-0.750			
0.1248	7984.02	3.9530	3.9529	-0.7509	25.26	0.15	-0.750			
0.1270	8128.38	3.9500	3.9499	-0.7527	25.26	0.15	-0.750			
0.1293	8272.41	3.9470	3.9470	-0.7576	25.26	0.15	-0.750			
0.1315	8418.24	3.9440	3.9440	-0.7547	25.27	0.16	-0.750			
0.1338	8566.12	3.9410	3.9410	-0.7602	25.27	0.16	-0.750			
0.1361	8711.83	3.9380	3.9381	-0.7619	25.27	0.16	-0.750			
0.1384	8857.43	3.9350	3.9351	-0.7614	25.27	0.16	-0.750			
0.1407	9004.08	3.9320	3.9319	-0.7648	25.27	0.16	-0.750			
0.1430	9150.64	3.9290	3.9291	-0.7638	25.28	0.17	-0.750			
0.1453	9297.52	3.9260	3.9260	-0.7648	25.28	0.17	-0.750			
0.1476	9444.92	3.9230	3.9231	-0.7668	25.28	0.17	-0.750			
0.1499	9592.47	3.9200	3.9199	-0.7649	25.28	0.17	-0.750			
0.1522	9737.92	3.9170	3.9169	-0.7690	25.29	0.18	-0.750			
0.1545	9885.23	3.9140	3.9141	-0.7710	25.29	0.18	-0.750			
0.1568	10033.44	3.9110	3.9110	-0.7744	25.29	0.18	-0.750			
0.1591	10184.04	3.9080	3.9079	-0.7797	25.30	0.19	-0.750			
0.1615	10334.42	3.9050	3.9050	-0.7799	25.30	0.19	-0.750			
0.1638	10483.63	3.9020	3.9021	-0.7836	25.31	0.20	-0.750			
0.1662	10635.09	3.8990	3.8990	-0.7840	25.31	0.20	-0.750			
0.1685	10784.95	3.8960	3.8960	-0.7801	25.31	0.20	-0.750			
0.1709	10935.19	3.8930	3.8930	-0.7848	25.32	0.21	-0.750			
0.1732	11085.21	3.8900	3.8903	-0.7870	25.32	0.21	-0.750			
0.1756	11236.90	3.8870	3.8869	-0.7868	25.32	0.21	-0.750			
0.1779	11388.39	3.8840	3.8840	-0.7896	25.33	0.22	-0.750			
0.1803	11539.67	3.8810	3.8810	-0.7889	25.33	0.22	-0.750			
0.1827	11692.70	3.8780	3.8780	-0.7919	25.34	0.23	-0.750			
0.1851	11844.35	3.8750	3.8750	-0.7913	25.34	0.23	-0.750			
0.1874	11996.15	3.8720	3.8720	-0.7837	25.34	0.23	-0.750			
0.1898	12145.06	3.8690	3.8690	-0.7902	25.35	0.24	-0.750			
0.1921	12297.14	3.8660	3.8660	-0.7918	25.35	0.24	-0.750			
0.1945	12449.11	3.8630	3.8629	-0.7895	25.35	0.24	-0.750			
0.1969	12602.69	3.8600	3.8599	-0.7877	25.36	0.25	-0.750			
0.1993	12753.29	3.8570	3.8571	-0.7874	25.36	0.25	-0.750			
0.2016	12903.86	3.8540	3.8540	-0.7891	25.37	0.26	-0.750			
0.2040	13055.83	3.8510	3.8510	-0.7909	25.37	0.26	-0.750			
0.2063	13205.17	3.8480	3.8479	-0.7823	25.37	0.26	-0.750			
0.2087	13357.85	3.8450	3.8450	-0.7872	25.38	0.27	-0.750			
0.2111	13509.88	3.8420	3.8421	-0.7887	25.38	0.27	-0.750			
0.2135	13661.01	3.8390	3.8390	-0.7864	25.38	0.27	-0.750			
0.2158	13810.99	3.8360	3.8360	-0.7849	25.38	0.27	-0.750			
0.2182	13961.81	3.8330	3.8330	-0.7852	25.39	0.28	-0.750			
0.2205	14113.31	3.8300	3.8300	-0.7837	25.39	0.28	-0.750			
0.2229	14264.71	3.8270	3.8271	-0.7802	25.39	0.28	-0.750			
0.2252	14414.22	3.8240	3.8240	-0.7797	25.39	0.28	-0.750			
0.2275	14563.16	3.8210	3.8210	-0.7781	25.39	0.28	-0.750			
0.2299	14711.50	3.8180	3.8179	-0.7749	25.40	0.29	-0.750			
0.2322	14859.82	3.8150	3.8150	-0.7727	25.40	0.29	-0.750			
0.2345	15009.88	3.8120	3.8120	-0.7669	25.40	0.29	-0.750			
0.2368	15156.68	3.8090	3.8090	-0.7630	25.40	0.29	-0.750			
0.2391	15302.08	3.8060	3.8061	-0.7634	25.41	0.30	-0.750			
0.2414	15447.05	3.8030	3.8029	-0.7610	25.41	0.30	-0.750			
0.2436	15593.09	3.8000	3.7999	-0.7566	25.41	0.30	-0.750			
0.2459	15739.25	3.7970	3.7970	-0.7536	25.42	0.31	-0.750			
0.2482	15885.04	3.7940	3.7943	-0.7503	25.42	0.31	-0.750			
0.2505	16029.32	3.7910	3.7910	-0.7445	25.42	0.31	-0.750			
0.2527	16170.07	3.7880	3.7880	-0.7387	25.43	0.32	-0.750			
0.2549	16311.08	3.7850	3.7850	-0.7333	25.43	0.32	-0.750			
0.2570	16450.71	3.7820	3.7820	-0.7307	25.43	0.32	-0.750			
0.2592	16591.37	3.7790	3.7790	-0.7292	25.44	0.33	-0.750			
0.2614	16731.01	3.7760	3.7760	-0.7292	25.44	0.33	-0.750			
0.2636	16870.35	3.7730	3.7730	-0.7282	25.44	0.33	-0.750			
0.2658	17010.08	3.7700	3.7700	-0.7295	25.44	0.33	-0.750			
0.2680	17150.94	3.7670	3.7669	-0.7289	25.45	0.34	-0.750			
0.2702	17290.90	3.7640	3.7640	-0.7311	25.45	0.34	-0.750			
0.2724	17431.44	3.7610	3.7610	-0.7315	25.45	0.34	-0.750			
0.2746	17572.17	3.7580	3.7579	-0.7313	25.45	0.34	-0.750			
0.2767	17711.69	3.7550	3.7550	-0.7292	25.45	0.34	-0.750			
0.2789	17850.97	3.7520	3.7521	-0.7368	25.45	0.34	-0.750			
0.2811	17992.00	3.7490	3.7490	-0.7411	25.46	0.35	-0.750			
0.2834	18136.95	3.7460	3.7459	-0.7494	25.46	0.35	-0.750			
0.2856	18280.52	3.7430	3.7432	-0.7535	25.46	0.35	-0.750			
0.2879	18425.68	3.7400	3.7401	-0.7634	25.46	0.35	-0.750			
0.2902	18573.29	3.7370	3.7370	-0.7729	25.46	0.35	-0.750			
0.2925	18720.81	3.7340	3.7339	-0.7823	25.46	0.35	-0.750			
0.2949	18872.12	3.7310	3.7310	-0.7921	25.46	0.35	-0.750			
0.2973	19025.51	3.7280	3.7280	-0.8037	25.46	0.35	-0.750			
0.2997	19181.42	3.7250	3.7249	-0.8181	25.46	0.35	-0.750			
0.3022	19339.43	3.7220	3.7220	-0.8317	25.46	0.35	-0.750			
0.3047	19499.00	3.7190	3.7190	-0.8435	25.46	0.35	-0.750			
0.3072	19662.98	3.7160	3.7160	-0.8584	25.46	0.35	-0.750			
0.3098	19830.00	3.7130	3.7130	-0.8703	25.46	0.35	-0.750			
0.3125	19997.85	3.7100	3.7099	-0.8902	25.46	0.35	-0.750			
0.3152	20169.68	3.7070	3.7070	-0.9024	25.46	0.35	-0.750			
0.3179	20344.34	3.7040	3.7040	-0.9142	25.46	0.35	-0.750			
0.3206	20520.18	3.7010	3.7009	-0.9283	25.46	0.35	-0.750			
0.3235	20701.78	3.6980	3.6982	-0.9429	25.46	0.35	-0.750			
0.3263	20883.30	3.6950	3.6950	-0.9629	25.45	0.34	-0.750			
0.3292	21070.01	3.6920	3.6920	-0.9792	25.45	0.34	-0.750			
0.3322	21258.77	3.6890	3.6890	-0.9924	25.45	0.34	-0.750			
0.3352	21451.15	3.6860	3.6860	-1.0138	25.44	0.33	-0.750			
0.3382	21647.04	3.6830	3.6831	-1.0411	25.44	0.33	-0.750			
0.3414	21850.39	3.6800	3.6799	-1.0560	25.44	0.33	-0.750			
0.3446	22055.62	3.6770	3.6769	-1.0737	25.43	0.32	-0.750			
0.3478	22262.35	3.6740	3.6742	-1.0902	25.43	0.32	-0.750			
0.3512	22475.31	3.6710	3.6710	-1.1112	25.42	0.31	-0.750			
0.3545	22690.10	3.6680	3.6679	-1.1260	25.41	0.30	-0.750			
0.3579	22904.61	3.6650	3.6650	-1.1428	25.41	0.30	-0.750			
0.3613	23126.21	3.6620	3.6621	-1.1689	25.40	0.29	-0.750			
0.3649	23353.51	3.6590	3.6590	-1.1953	25.39	0.28	-0.750			
0.3685	23584.05	3.6560	3.6560	-1.2202	25.39	0.28	-0.750			
0.3722	23820.49	3.6530	3.6530	-1.2495	25.38	0.27	-0.750			
0.3760	24064.81	3.6500	3.6499	-1.2697	25.38	0.27	-0.750			
0.3799	24312.08	3.6470	3.6470	-1.2877	25.37	0.26	-0.750			
0.3837	24559.06	3.6440	3.6441	-1.3149	25.36	0.25	-0.750			
0.3877	24815.07	3.6410	3.6409	-1.3311	25.36	0.25	-0.750			
0.3918	25072.06	3.6380	3.6379	-1.3538	25.35	0.24	-0.750			
0.3958	25331.98	3.6350	3.6350	-1.3859	25.34	0.23	-0.750			
0.4000	25602.09	3.6320	3.6320	-1.4115	25.34	0.23	-0.750			
0.4043	25877.58	3.6290	3.6289	-1.4473	25.33	0.22	-0.750			
0.4087	26158.43	3.6260	3.6259	-1.4719	25.32	0.21	-0.750			
0.4132	26443.42	3.6230	3.6230	-1.4933	25.32	0.21	-0.750			
0.4178	26737.04	3.6200	3.6200	-1.5205	25.31	0.20	-0.750			
0.4223	27027.52	3.6170	3.6170	-1.5498	25.30	0.19	-0.750			
0.4270	27325.00	3.6140	3.6140	-1.5743	25.30	0.19	-0.750			
0.4317	27631.21	3.6110	3.6109	-1.6132	25.29	0.18	-0.750	0.399	0.562	
0.4366	27942.52	3.6080	3.6081	-1.6338	25.29	0.18	-0.750			
0.4416	28261.61	3.6050	3.6049	-1.6780	25.28	0.17	-0.750			
0.4467	28587.35	3.6020	3.6020	-1.7064	25.27	0.16	-0.750			
0.4519	28919.04	3.5990	3.5991	-1.7499	25.27	0.16	-0.750			
0.4572	29258.61	3.5960	3.5962	-1.7694	25.27	0.16	-0.750			
0.4625	29601.04	3.5930	3.5930	-1.8081	25.27	0.16	-0.750			
0.4680	29952.46	3.5900	3.5900	-1.8531	25.25	0.14	-0.750			
0.4737	30314.09	3.5870	3.5870	-1.8797	25.24	0.13	-0.750			
0.4793	30677.51	3.5840	3.5842	-1.9097	25.25	0.14	-0.750			
0.4851	31046.00	3.5810	3.5810	-1.9403	25.25	0.14	-0.750			
0.4909	31420.69	3.5780	3.5778	-1.9564	25.25	0.14	-0.750			
0.4969	31799.75	3.5750	3.5751	-1.9920	25.24	0.13	-0.750			
0.5028	32180.21	3.5720	3.5720	-2.0219	25.24	0.13	-0.750			
0.5090	32574.02	3.5690	3.5689	-2.0433	25.24	0.13	-0.750			
0.5152	32973.80	3.5660	3.5660	-2.0608	25.24	0.13	-0.750			
0.5214	33371.78	3.5630	3.5630	-2.0899	25.24	0.13	-0.750			
0.5277	33775.24	3.5600	3.5600	-2.1078	25.24	0.13	-0.750			
0.5341	34179.23	3.5570	3.5571	-2.1221	25.24	0.13	-0.750			
0.5405	34589.81	3.5540	3.5538	-2.1268	25.24	0.13	-0.750			
0.5469	35002.27	3.5510	3.5510	-2.1222	25.25	0.14	-0.750			
0.5534	35414.82	3.5480	3.5481	-2.1142	25.25	0.14	-0.750			
0.5597	35823.12	3.5450	3.5449	-2.1166	25.26	0.15	-0.750			
0.5659	36220.25	3.5420	3.5419	-2.0674	25.26	0.15	-0.750			
0.5721	36615.16	3.5390	3.5391	-2.0508	25.26	0.15	-0.750			
0.5782	37007.29	3.5360	3.5360	-2.0363	25.26	0.15	-0.750			
0.5843	37397.68	3.5330	3.5330	-2.0143	25.27	0.16	-0.750			
0.5903	37781.87	3.5300	3.5300	-1.9922	25.27	0.16	-0.750			
0.5963	38162.61	3.5270	3.5270	-1.9617	25.28	0.17	-0.750			
0.6022	38538.06	3.5240	3.5241	-1.9313	25.29	0.18	-0.750			
0.6079	38907.98	3.5210	3.5210	-1.9058	25.30	0.19	-0.750			
0.6136	39267.58	3.5180	3.5177	-1.8726	25.30	0.19	-0.750			
0.6192	39627.69	3.5150	3.5149	-1.8329	25.31	0.20	-0.750			
0.6247	39979.14	3.5120	3.5121	-1.7845	25.32	0.21	-0.750			
0.6299	40316.16	3.5090	3.5090	-1.7466	25.34	0.23	-0.750			
0.6351	40647.67	3.5060	3.5060	-1.6885	25.35	0.24	-0.750			
0.6401	40967.25	3.5030	3.5028	-1.6354	25.36	0.25	-0.750			
0.6449	41273.37	3.5000	3.5001	-1.6085	25.37	0.26	-0.750			
0.6497	41580.86	3.4970	3.4971	-1.5657	25.39	0.28	-0.750			
0.6544	41881.42	3.4940	3.4938	-1.5228	25.40	0.29	-0.750			
0.6589	42172.15	3.4910	3.4912	-1.4813	25.42	0.31	-0.750			
0.6633	42451.34	3.4880	3.4880	-1.4264	25.43	0.32	-0.750			
0.6675	42723.00	3.4850	3.4849	-1.3772	25.44	0.33	-0.750			
0.6715	42977.47	3.4820	3.4820	-1.3312	25.46	0.35	-0.750			
0.6754	43228.16	3.4790	3.4790	-1.2866	25.47	0.36	-0.750			
0.6792	43471.49	3.4760	3.4759	-1.2467	25.48	0.37	-0.750			
0.6829	43707.20	3.4730	3.4730	-1.2063	25.50	0.39	-0.750			
0.6864	43931.46	3.4700	3.4702	-1.1699	25.51	0.40	-0.750			
0.6899	44155.41	3.4670	3.4669	-1.1346	25.53	0.42	-0.750			
0.6933	44369.24	3.4640	3.4640	-1.0967	25.54	0.43	-0.750			
0.6965	44574.68	3.4610	3.4609	-1.0605	25.55	0.44	-0.750			
0.6996	44776.54	3.4580	3.4580	-1.0317	25.57	0.46	-0.750			
0.7027	44970.10	3.4550	3.4549	-1.0026	25.57	0.46	-0.750			
0.7056	45159.89	3.4520	3.4519	-0.9737	25.58	0.47	-0.750			
0.7085	45343.17	3.4490	3.4490	-0.9401	25.59	0.48	-0.750			
0.7113	45523.78	3.4460	3.4461	-0.9138	25.60	0.49	-0.750			
0.7140	45696.72	3.4430	3.4430	-0.8843	25.62	0.51	-0.750			
0.7166	45861.98	3.4400	3.4400	-0.8659	25.63	0.52	-0.750			
0.7191	46021.17	3.4370	3.4371	-0.8430	25.64	0.53	-0.750			
0.7216	46182.08	3.4340	3.4339	-0.8378	25.65	0.54	-0.750			
0.7241	46340.78	3.4310	3.4311	-0.8326	25.66	0.55	-0.750			
0.7266	46500.32	3.4280	3.4280	-0.8336	25.67	0.56	-0.750			
0.7291	46660.18	3.4250	3.4250	-0.8379	25.68	0.57	-0.750			
0.7316	46819.54	3.4220	3.4220	-0.8388	25.69	0.58	-0.750			
0.7341	46981.81	3.4190	3.4189	-0.8469	25.70	0.59	-0.750			
0.7366	47145.15	3.4160	3.4160	-0.8521	25.70	0.59	-0.750			
0.7392	47310.63	3.4130	3.4130	-0.8572	25.71	0.60	-0.750			
0.7418	47475.53	3.4100	3.4100	-0.8619	25.73	0.62	-0.750			
0.7444	47641.46	3.4070	3.4070	-0.8622	25.74	0.63	-0.750			
0.7470	47808.94	3.4040	3.4039	-0.8596	25.75	0.64	-0.750			
0.7496	47975.27	3.4010	3.4009	-0.8529	25.75	0.64	-0.750			
0.7522	48139.29	3.3980	3.3981	-0.8433	25.76	0.65	-0.750			
0.7547	48301.77	3.3950	3.3951	-0.8295	25.77	0.66	-0.750			
0.7572	48460.13	3.3920	3.3919	-0.8074	25.77	0.66	-0.750			
0.7596	48612.97	3.3890	3.3890	-0.7848	25.78	0.67	-0.750			
0.7619	48761.84	3.3860	3.3860	-0.7637	25.78	0.67	-0.750			
0.7642	48907.40	3.3830	3.3829	-0.7426	25.79	0.68	-0.750			
0.7664	49047.00	3.3800	3.3799	-0.7161	25.79	0.68	-0.750			
0.7684	49180.49	3.3770	3.3771	-0.6915	25.80	0.69	-0.750			
0.7705	49312.63	3.3740	3.3740	-0.6720	25.80	0.69	-0.750			
0.7725	49439.24	3.3710	3.3710	-0.6496	25.81	0.70	-0.750			
0.7744	49560.81	3.3680	3.3679	-0.6262	25.81	0.70	-0.750			
0.7762	49678.88	3.3650	3.3650	-0.6070	25.82	0.71	-0.750			
0.7780	49793.90	3.3620	3.3620	-0.5882	25.83	0.72	-0.750			
0.7798	49904.39	3.3590	3.3590	-0.5717	25.83	0.72	-0.750			
0.7814	50012.79	3.3560	3.3560	-0.5518	25.84	0.73	-0.750			
0.7831	50117.10	3.3530	3.3530	-0.5355	25.84	0.73	-0.750			
0.7847	50217.74	3.3500	3.3500	-0.5180	25.85	0.74	-0.750			
0.7862	50315.50	3.3470	3.3470	-0.5022	25.85	0.74	-0.750			
0.7877	50410.22	3.3440	3.3440	-0.4855	25.86	0.75	-0.750			
0.7891	50501.98	3.3410	3.3408	-0.4698	25.86	0.75	-0.750			
0.7905	50589.66	3.3380	3.3381	-0.4540	25.87	0.76	-0.750			
0.7918	50676.24	3.3350	3.3350	-0.4426	25.87	0.76	-0.750			
0.7931	50759.03	3.3320	3.3320	-0.4294	25.87	0.76	-0.750			
0.7944	50840.54	3.3290	3.3289	-0.4183	25.88	0.77	-0.750			
0.7956	50919.22	3.3260	3.3260	-0.4053	25.88	0.77	-0.750			
0.7968	50996.13	3.3230	3.3230	-0.3951	25.89	0.78	-0.750			
0.7980	51071.07	3.3200	3.3202	-0.3842	25.89	0.78	-0.750			
0.7991	51143.24	3.3170	3.3170	-0.3743	25.90	0.79	-0.750			
0.8002	51213.56	3.3140	3.3140	-0.3646	25.90	0.79	-0.750			
0.8013	51282.30	3.3110	3.3110	-0.3577	25.91	0.80	-0.750			
0.8023	51350.08	3.3080	3.3079	-0.3503	25.91	0.80	-0.750			
0.8034	51417.14	3.3050	3.3050	-0.3424	25.92	0.81	-0.750			
0.8044	51482.09	3.3020	3.3020	-0.3346	25.93	0.82	-0.750			
0.8054	51545.80	3.2990	3.2991	-0.3275	25.93	0.82	-0.750			
0.8064	51607.45	3.2960	3.2960	-0.3193	25.94	0.83	-0.750			
0.8073	51668.08	3.2930	3.2930	-0.3133	25.94	0.83	-0.750			
0.8082	51727.29	3.2900	3.2900	-0.3066	25.95	0.84	-0.750			
0.8092	51785.77	3.2870	3.2870	-0.3010	25.95	0.84	-0.750			
0.8100	51842.75	3.2840	3.2839	-0.2958	25.96	0.85	-0.750			
0.8109	51898.95	3.2810	3.2810	-0.2894	25.96	0.85	-0.750			
0.8118	51954.03	3.2780	3.2780	-0.2837	25.97	0.86	-0.750			
0.8126	52007.82	3.2750	3.2749	-0.2789	25.97	0.86	-0.750			
0.8135	52060.93	3.2720	3.2721	-0.2743	25.98	0.87	-0.750			
0.8143	52113.14	3.2690	3.2689	-0.2695	25.98	0.87	-0.750			
0.8151	52164.42	3.2660	3.2660	-0.2655	25.99	0.88	-0.750			
0.8159	52214.69	3.2630	3.2631	-0.2614	25.99	0.88	-0.750			
0.8166	52264.19	3.2600	3.2600	-0.2575	25.99	0.88	-0.750			
0.8174	52313.72	3.2570	3.2569	-0.2550	26.00	0.89	-0.750			
0.8182	52362.03	3.2540	3.2540	-0.2501	26.00	0.89	-0.750			
0.8189	52409.94	3.2510	3.2511	-0.2469	26.01	0.90	-0.750			
0.8196	52457.35	3.2480	3.2480	-0.2437	26.01	0.90	-0.750			
0.8204	52503.69	3.2450	3.2450	-0.2406	26.02	0.91	-0.750			
0.8211	52549.47	3.2420	3.2419	-0.2360	26.02	0.91	-0.750			
0.8218	52593.83	3.2390	3.2391	-0.2336	26.02	0.91	-0.750			
0.8225	52638.58	3.2360	3.2359	-0.2311	26.03	0.92	-0.750			
0.8232	52682.67	3.2330	3.2330	-0.2283	26.03	0.92	-0.750			
0.8239	52726.48	3.2300	3.2301	-0.2264	26.04	0.93	-0.750			
0.8245	52769.69	3.2270	3.2270	-0.2237	26.04	0.93	-0.750			
0.8252	52812.56	3.2240	3.2240	-0.2201	26.05	0.94	-0.750			
0.8259	52854.60	3.2210	3.2210	-0.2177	26.06	0.95	-0.750			
0.8265	52895.67	3.2180	3.2180	-0.2134	26.06	0.95	-0.750			
0.8271	52936.40	3.2150	3.2151	-0.2108	26.07	0.96	-0.750			
0.8278	52976.62	3.2120	3.2119	-0.2091	26.07	0.96	-0.750			
0.8284	53016.46	3.2090	3.2090	-0.2064	26.08	0.97	-0.750			
0.8290	53055.73	3.2060	3.2059	-0.2039	26.08	0.97	-0.750			
0.8296	53094.68	3.2030	3.2030	-0.2019	26.09	0.98	-0.750			
0.8302	53133.53	3.2000	3.2001	-0.1998	26.09	0.98	-0.750			
0.8308	53171.62	3.1970	3.1970	-0.1970	26.10	0.99	-0.750			
0.8314	53209.14	3.1940	3.1941	-0.1951	26.10	0.99	-0.750			
0.8320	53246.38	3.1910	3.1909	-0.1927	26.11	1.00	-0.750			
0.8325	53282.82	3.1880	3.1880	-0.1908	26.11	1.00	-0.750			
0.8331	53319.32	3.1850	3.1849	-0.1894	26.12	1.01	-0.750			
0.8337	53355.43	3.1820	3.1821	-0.1875	26.12	1.01	-0.750			
0.8342	53391.55	3.1790	3.1790	-0.1854	26.13	1.02	-0.750			
0.8348	53427.14	3.1760	3.1760	-0.1836	26.13	1.02	-0.750			
0.8354	53462.45	3.1730	3.1730	-0.1814	26.13	1.02	-0.750			
0.8359	53496.69	3.1700	3.1701	-0.1793	26.13	1.02	-0.750			
0.8364	53530.86	3.1670	3.1671	-0.1776	26.14	1.03	-0.750			
0.8369	53564.63	3.1640	3.1639	-0.1757	26.15	1.04	-0.750			
0.8375	53598.06	3.1610	3.1609	-0.1738	26.15	1.04	-0.750			
0.8380	53631.38	3.1580	3.1580	-0.1719	26.16	1.05	-0.750			
0.8385	53664.59	3.1550	3.1550	-0.1707	26.16	1.05	-0.750			
0.8390	53697.13	3.1520	3.1520	-0.1683	26.17	1.06	-0.750			
0.8395	53729.09	3.1490	3.1490	-0.1671	26.18	1.07	-0.750			
0.8400	53760.68	3.1460	3.1460	-0.1650	26.18	1.07	-0.750			
0.8405	53792.17	3.1430	3.1429	-0.1637	26.19	1.08	-0.750			
0.8410	53823.53	3.1400	3.1400	-0.1629	26.19	1.08	-0.750			
0.8415	53854.80	3.1370	3.1371	-0.1613	26.20	1.09	-0.750			
0.8420	53885.99	3.1340	3.1341	-0.1597	26.20	1.09	-0.750			
0.8424	53916.73	3.1310	3.1310	-0.1579	26.21	1.10	-0.750			
0.8429	53946.56	3.1280	3.1280	-0.1569	26.21	1.10	-0.750			
0.8434	53976.28	3.1250	3.1250	-0.1550	26.22	1.11	-0.750			
0.8438	54005.96	3.1220	3.1218	-0.1537	26.22	1.11	-0.750			
0.8443	54035.10	3.1190	3.1191	-0.1524	26.23	1.12	-0.750			
0.8448	54064.30	3.1160	3.1161	-0.1517	26.23	1.12	-0.750			
0.8452	54093.55	3.1130	3.1130	-0.1505	26.24	1.13	-0.750			
0.8457	54122.60	3.1100	3.1099	-0.1491	26.24	1.13	-0.750			
0.8461	54150.84	3.1070	3.1071	-0.1468	26.25	1.14	-0.750			
0.8465	54178.93	3.1040	3.1041	-0.1450	26.25	1.14	-0.750			
0.8470	54206.54	3.1010	3.1010	-0.1448	26.26	1.15	-0.750			
0.8474	54234.06	3.0980	3.0979	-0.1436	26.26	1.15	-0.750			
0.8478	54261.18	3.0950	3.0950	-0.1424	26.27	1.16	-0.750			
0.8483	54288.59	3.0920	3.0919	-0.1424	26.27	1.16	-0.750			
0.8487	54316.25	3.0890	3.0891	-0.1414	26.28	1.17	-0.750			
0.8491	54343.70	3.0860	3.0860	-0.1405	26.29	1.18	-0.750			
0.8495	54370.78	3.0830	3.0830	-0.1391	26.29	1.18	-0.750			
0.8500	54397.10	3.0800	3.0801	-0.1376	26.30	1.19	-0.750			
0.8504	54423.09	3.0770	3.0770	-0.1355	26.30	1.19	-0.750			
0.8508	54448.92	3.0740	3.0740	-0.1343	26.31	1.20	-0.750			
0.8512	54474.59	3.0710	3.0710	-0.1331	26.31	1.20	-0.750			
0.8516	54499.72	3.0680	3.0681	-0.1323	26.32	1.21	-0.750			
0.8520	54525.21	3.0650	3.0649	-0.1318	26.33	1.22	-0.750			
0.8524	54550.42	3.0620	3.0619	-0.1310	26.33	1.22	-0.750			
0.8527	54575.55	3.0590	3.0590	-0.1300	26.34	1.23	-0.750			
0.8531	54600.28	3.0560	3.0562	-0.1294	26.34	1.23	-0.750			
0.8535	54625.21	3.0530	3.0529	-0.1290	26.35	1.24	-0.750			
0.8539	54649.93	3.0500	3.0500	-0.1280	26.35	1.24	-0.750			
0.8543	54674.40	3.0470	3.0469	-0.1270	26.36	1.25	-0.750			
0.8547	54698.67	3.0440	3.0440	-0.1257	26.36	1.25	-0.750			
0.8550	54722.71	3.0410	3.0411	-0.1247	26.37	1.26	-0.750			
0.8554	54746.65	3.0380	3.0381	-0.1242	26.37	1.26	-0.750			
0.8558	54770.43	3.0350	3.0349	-0.1232	26.38	1.27	-0.750			
0.8562	54794.01	3.0320	3.0319	-0.1221	26.39	1.28	-0.750			
0.8565	54817.14	3.0290	3.0290	-0.1210	26.39	1.28	-0.750			
0.8569	54840.29	3.0260	3.0261	-0.1205	26.40	1.29	-0.750			
0.8572	54863.37	3.0230	3.0229	-0.1199	26.40	1.29	-0.750			
0.8576	54886.41	3.0200	3.0199	-0.1190	26.41	1.30	-0.750			
0.8580	54909.17	3.0170	3.0170	-0.1181	26.41	1.30	-0.750			
0.8583	54931.79	3.0140	3.0140	-0.1166	26.42	1.31	-0.750			
0.8587	54954.07	3.0110	3.0111	-0.1154	26.42	1.31	-0.750			
0.8590	54976.47	3.0080	3.0080	-0.1139	26.43	1.32	-0.750			
0.8593	54998.13	3.0050	3.0050	-0.1118	26.43	1.32	-0.750			
0.8597	55019.39	3.0020	3.0020	-0.1098	26.44	1.33	-0.751			
