Ah_balance (normalized)	Ah_balance (mAh)	Voltage - fit (V)	Voltage -  interpolate (V)	dQ/dV (1/V)	Temperature (°C)	Temperature - diff (°C)	Current (C)	R_DC 0ms (mOhm)	R_DC 50ms (mOhm)	R_DC 50 ms PEC (mOhm)
0.0004	25.21	4.1620	4.1617	-0.1326	25.83	0.02	-0.750			
0.0008	54.14	4.1590	4.1589	-0.1721	25.83	0.02	-0.750			
0.0014	90.75	4.1560	4.1561	-0.2141	25.83	0.02	-0.750			
0.0021	136.73	4.1530	4.1530	-0.2536	25.83	0.02	-0.750			
0.0030	189.32	4.1500	4.1500	-0.2926	25.82	0.01	-0.750			
0.0039	249.93	4.1470	4.1471	-0.3308	25.82	0.01	-0.750			
0.0050	317.98	4.1440	4.1440	-0.3642	25.82	0.01	-0.750			
0.0061	391.95	4.1410	4.1410	-0.3979	25.81	0.00	-0.750			
0.0074	471.60	4.1380	4.1381	-0.4288	25.81	0.00	-0.750			
0.0087	556.80	4.1350	4.1350	-0.4576	25.81	-0.00	-0.750			
0.0101	648.60	4.1320	4.1319	-0.4859	25.80	-0.01	-0.750			
0.0116	744.63	4.1290	4.1290	-0.5072	25.80	-0.01	-0.750			
0.0132	845.14	4.1260	4.1260	-0.5307	25.79	-0.02	-0.750			
0.0148	949.99	4.1230	4.1230	-0.5518	25.79	-0.02	-0.750			
0.0165	1058.05	4.1200	4.1199	-0.5684	25.78	-0.03	-0.750			
0.0183	1169.07	4.1170	4.1170	-0.5833	25.78	-0.03	-0.750			
0.0200	1283.08	4.1140	4.1142	-0.5949	25.77	-0.04	-0.750			
0.0219	1399.24	4.1110	4.1109	-0.6067	25.77	-0.04	-0.750			
0.0237	1517.06	4.1080	4.1081	-0.6170	25.76	-0.05	-0.750			
0.0256	1635.50	4.1050	4.1050	-0.6267	25.76	-0.05	-0.750			
0.0275	1758.06	4.1020	4.1020	-0.6367	25.75	-0.06	-0.750			
0.0294	1881.10	4.0990	4.0991	-0.6418	25.75	-0.06	-0.750			
0.0313	2005.45	4.0960	4.0959	-0.6495	25.74	-0.07	-0.750			
0.0333	2131.07	4.0930	4.0931	-0.6543	25.74	-0.07	-0.750			
0.0353	2256.53	4.0900	4.0900	-0.6606	25.74	-0.07	-0.750			
0.0372	2383.46	4.0870	4.0870	-0.6658	25.73	-0.08	-0.750			
0.0392	2511.67	4.0840	4.0840	-0.6729	25.73	-0.08	-0.750			
0.0413	2642.71	4.0810	4.0811	-0.6781	25.73	-0.08	-0.750			
0.0433	2774.37	4.0780	4.0780	-0.6818	25.72	-0.09	-0.750			
0.0454	2905.36	4.0750	4.0751	-0.6835	25.72	-0.09	-0.750			
0.0474	3036.59	4.0720	4.0720	-0.6891	25.72	-0.09	-0.750			
0.0495	3167.48	4.0690	4.0690	-0.6974	25.72	-0.09	-0.750			
0.0516	3303.35	4.0660	4.0660	-0.6998	25.72	-0.09	-0.750			
0.0537	3439.78	4.0630	4.0629	-0.7021	25.72	-0.09	-0.750			
0.0559	3574.92	4.0600	4.0600	-0.7047	25.72	-0.09	-0.750			
0.0580	3710.75	4.0570	4.0571	-0.7067	25.72	-0.09	-0.750			
0.0601	3845.71	4.0540	4.0540	-0.7080	25.72	-0.09	-0.750			
0.0622	3978.32	4.0510	4.0509	-0.7150	25.72	-0.09	-0.750			
0.0643	4117.65	4.0480	4.0481	-0.7135	25.72	-0.09	-0.750			
0.0665	4257.86	4.0450	4.0450	-0.7208	25.72	-0.09	-0.750			
0.0687	4397.64	4.0420	4.0420	-0.7262	25.72	-0.09	-0.750			
0.0709	4536.66	4.0390	4.0389	-0.7222	25.72	-0.09	-0.750			
0.0730	4674.32	4.0360	4.0359	-0.7197	25.72	-0.09	-0.750			
0.0752	4811.30	4.0330	4.0331	-0.7211	25.72	-0.09	-0.750			
0.0773	4949.11	4.0300	4.0300	-0.7216	25.72	-0.09	-0.750			
0.0795	5090.53	4.0270	4.0270	-0.7274	25.72	-0.09	-0.750			
0.0817	5229.32	4.0240	4.0240	-0.7266	25.72	-0.09	-0.750			
0.0839	5368.31	4.0210	4.0210	-0.7277	25.72	-0.09	-0.750			
0.0861	5508.52	4.0180	4.0180	-0.7322	25.72	-0.09	-0.750			
0.0883	5649.23	4.0150	4.0150	-0.7361	25.72	-0.09	-0.750			
0.0905	5790.86	4.0120	4.0120	-0.7362	25.73	-0.08	-0.750			
0.0927	5934.09	4.0090	4.0090	-0.7403	25.73	-0.08	-0.750			
0.0949	6076.29	4.0060	4.0062	-0.7371	25.73	-0.08	-0.750			
0.0971	6217.50	4.0030	4.0030	-0.7355	25.73	-0.08	-0.750			
0.0993	6356.37	4.0000	4.0001	-0.7441	25.73	-0.08	-0.750			
0.1015	6498.53	3.9970	3.9968	-0.7451	25.74	-0.07	-0.750			
0.1038	6644.00	3.9940	3.9940	-0.7527	25.74	-0.07	-0.750			
0.1061	6790.12	3.9910	3.9910	-0.7530	25.74	-0.07	-0.750			
0.1084	6936.70	3.9880	3.9881	-0.7578	25.74	-0.07	-0.750			
0.1107	7081.74	3.9850	3.9849	-0.7637	25.74	-0.07	-0.750			
0.1129	7226.14	3.9820	3.9820	-0.7583	25.74	-0.07	-0.750			
0.1152	7370.29	3.9790	3.9789	-0.7570	25.75	-0.06	-0.750			
0.1175	7517.84	3.9760	3.9761	-0.7649	25.75	-0.06	-0.750			
0.1198	7665.83	3.9730	3.9732	-0.7690	25.75	-0.06	-0.750			
0.1221	7813.98	3.9700	3.9700	-0.7685	25.75	-0.06	-0.750			
0.1244	7960.88	3.9670	3.9670	-0.7690	25.76	-0.05	-0.750			
0.1267	8108.36	3.9640	3.9640	-0.7689	25.76	-0.05	-0.750			
0.1290	8257.87	3.9610	3.9610	-0.7741	25.76	-0.05	-0.750			
0.1313	8405.87	3.9580	3.9579	-0.7726	25.77	-0.04	-0.750			
0.1337	8554.13	3.9550	3.9551	-0.7736	25.77	-0.04	-0.750			
0.1360	8701.73	3.9520	3.9520	-0.7769	25.77	-0.04	-0.750			
0.1383	8850.96	3.9490	3.9490	-0.7807	25.77	-0.04	-0.750			
0.1406	9000.86	3.9460	3.9460	-0.7789	25.77	-0.04	-0.750			
0.1430	9150.91	3.9430	3.9429	-0.7831	25.77	-0.04	-0.750			
0.1453	9301.72	3.9400	3.9403	-0.7812	25.77	-0.04	-0.750			
0.1477	9451.79	3.9370	3.9369	-0.7827	25.77	-0.04	-0.750			
0.1500	9601.12	3.9340	3.9341	-0.7868	25.78	-0.03	-0.750			
0.1524	9752.31	3.9310	3.9307	-0.7913	25.78	-0.03	-0.750			
0.1547	9903.89	3.9280	3.9281	-0.7951	25.79	-0.02	-0.750			
0.1572	10057.92	3.9250	3.9250	-0.8015	25.79	-0.02	-0.750			
0.1596	10212.79	3.9220	3.9220	-0.8031	25.79	-0.02	-0.750			
0.1620	10368.69	3.9190	3.9188	-0.8075	25.79	-0.02	-0.750			
0.1644	10523.11	3.9160	3.9160	-0.8027	25.79	-0.02	-0.750			
0.1668	10676.36	3.9130	3.9130	-0.8028	25.79	-0.02	-0.750			
0.1692	10830.79	3.9100	3.9101	-0.8046	25.79	-0.02	-0.750			
0.1716	10984.80	3.9070	3.9069	-0.8077	25.79	-0.02	-0.750			
0.1740	11138.97	3.9040	3.9039	-0.8090	25.80	-0.01	-0.750			
0.1765	11295.47	3.9010	3.9010	-0.8114	25.80	-0.01	-0.750			
0.1789	11451.78	3.8980	3.8980	-0.8112	25.80	-0.01	-0.750			
0.1814	11609.93	3.8950	3.8950	-0.8150	25.81	-0.00	-0.750			
0.1838	11765.57	3.8920	3.8919	-0.8096	25.81	0.00	-0.750			
0.1862	11918.65	3.8890	3.8890	-0.8142	25.81	0.00	-0.750			
0.1887	12075.11	3.8860	3.8860	-0.8167	25.82	0.01	-0.750			
0.1911	12231.84	3.8830	3.8830	-0.8192	25.82	0.01	-0.750			
0.1936	12391.81	3.8800	3.8800	-0.8237	25.82	0.01	-0.750			
0.1961	12551.19	3.8770	3.8770	-0.8219	25.82	0.01	-0.750			
0.1986	12708.07	3.8740	3.8740	-0.8250	25.82	0.01	-0.750			
0.2010	12866.95	3.8710	3.8710	-0.8219	25.82	0.01	-0.750			
0.2035	13023.27	3.8680	3.8680	-0.8187	25.82	0.01	-0.750			
0.2060	13181.23	3.8650	3.8650	-0.8199	25.82	0.01	-0.750			
0.2084	13338.67	3.8620	3.8620	-0.8205	25.82	0.01	-0.750			
0.2109	13494.70	3.8590	3.8590	-0.8282	25.83	0.02	-0.750			
0.2134	13655.14	3.8560	3.8560	-0.8287	25.83	0.02	-0.750			
0.2158	13814.06	3.8530	3.8529	-0.8267	25.84	0.03	-0.750			
0.2184	13974.79	3.8500	3.8500	-0.8305	25.85	0.04	-0.750			
0.2209	14134.80	3.8470	3.8471	-0.8293	25.85	0.04	-0.750			
0.2233	14292.90	3.8440	3.8439	-0.8305	25.85	0.04	-0.750			
0.2258	14451.62	3.8410	3.8410	-0.8253	25.85	0.04	-0.750			
0.2283	14609.03	3.8380	3.8380	-0.8203	25.85	0.04	-0.750			
0.2308	14768.01	3.8350	3.8350	-0.8271	25.85	0.04	-0.750			
0.2332	14927.56	3.8320	3.8320	-0.8262	25.85	0.04	-0.750			
0.2357	15083.98	3.8290	3.8290	-0.8312	25.86	0.05	-0.750			
0.2382	15245.80	3.8260	3.8259	-0.8279	25.86	0.05	-0.750			
0.2407	15404.73	3.8230	3.8230	-0.8263	25.86	0.05	-0.750			
0.2432	15564.97	3.8200	3.8199	-0.8271	25.87	0.06	-0.750			
0.2457	15723.56	3.8170	3.8171	-0.8241	25.87	0.06	-0.750			
0.2481	15879.35	3.8140	3.8139	-0.8222	25.87	0.06	-0.750			
0.2506	16036.34	3.8110	3.8110	-0.8195	25.87	0.06	-0.750			
0.2530	16192.65	3.8080	3.8080	-0.8133	25.88	0.07	-0.750			
0.2555	16351.28	3.8050	3.8050	-0.8214	25.88	0.07	-0.750			
0.2580	16509.42	3.8020	3.8021	-0.8160	25.88	0.07	-0.750			
0.2604	16665.85	3.7990	3.7990	-0.8129	25.88	0.07	-0.750			
0.2628	16820.88	3.7960	3.7960	-0.8119	25.88	0.07	-0.750			
0.2653	16976.81	3.7930	3.7929	-0.8094	25.89	0.08	-0.750			
0.2677	17133.01	3.7900	3.7900	-0.8097	25.89	0.08	-0.750			
0.2701	17288.52	3.7870	3.7871	-0.8046	25.89	0.08	-0.750			
0.2725	17442.58	3.7840	3.7840	-0.8001	25.89	0.08	-0.750			
0.2749	17596.69	3.7810	3.7809	-0.8025	25.89	0.08	-0.750			
0.2773	17749.15	3.7780	3.7780	-0.7967	25.90	0.09	-0.750			
0.2797	17903.14	3.7750	3.7749	-0.7931	25.90	0.09	-0.750			
0.2821	18054.40	3.7720	3.7722	-0.7899	25.90	0.09	-0.750			
0.2845	18206.32	3.7690	3.7690	-0.7869	25.90	0.09	-0.750			
0.2868	18356.82	3.7660	3.7660	-0.7851	25.90	0.09	-0.750			
0.2892	18506.69	3.7630	3.7629	-0.7773	25.91	0.10	-0.750			
0.2915	18654.24	3.7600	3.7600	-0.7770	25.91	0.10	-0.750			
0.2938	18804.18	3.7570	3.7570	-0.7823	25.91	0.10	-0.750			
0.2962	18954.48	3.7540	3.7540	-0.7834	25.91	0.10	-0.750			
0.2985	19103.80	3.7510	3.7509	-0.7865	25.92	0.11	-0.750			
0.3009	19255.76	3.7480	3.7480	-0.7921	25.92	0.11	-0.750			
0.3033	19408.57	3.7450	3.7450	-0.7942	25.92	0.11	-0.750			
0.3057	19562.44	3.7420	3.7419	-0.7985	25.93	0.12	-0.750			
0.3081	19715.60	3.7390	3.7391	-0.7999	25.93	0.12	-0.750			
0.3105	19868.97	3.7360	3.7360	-0.8072	25.93	0.12	-0.750			
0.3129	20024.57	3.7330	3.7330	-0.8179	25.93	0.12	-0.750			
0.3153	20181.93	3.7300	3.7300	-0.8264	25.93	0.12	-0.750			
0.3178	20341.21	3.7270	3.7269	-0.8379	25.93	0.12	-0.750			
0.3204	20503.26	3.7240	3.7241	-0.8483	25.93	0.12	-0.750			
0.3229	20666.84	3.7210	3.7210	-0.8622	25.93	0.12	-0.750			
0.3255	20833.07	3.7180	3.7180	-0.8767	25.93	0.12	-0.750			
0.3281	21001.37	3.7150	3.7149	-0.8891	25.93	0.12	-0.750			
0.3309	21175.03	3.7120	3.7120	-0.9073	25.93	0.12	-0.750			
0.3336	21350.17	3.7090	3.7091	-0.9225	25.93	0.12	-0.750			
0.3364	21529.65	3.7060	3.7060	-0.9401	25.93	0.12	-0.750			
0.3393	21712.62	3.7030	3.7030	-0.9532	25.93	0.12	-0.750			
0.3421	21895.29	3.7000	3.7000	-0.9675	25.93	0.12	-0.750			
0.3450	22081.43	3.6970	3.6972	-0.9902	25.93	0.12	-0.750			
0.3480	22272.81	3.6940	3.6940	-1.0108	25.92	0.11	-0.750			
0.3511	22469.55	3.6910	3.6909	-1.0292	25.92	0.11	-0.750			
0.3542	22668.59	3.6880	3.6880	-1.0489	25.92	0.11	-0.750			
0.3574	22873.30	3.6850	3.6853	-1.0744	25.91	0.10	-0.750			
0.3607	23081.93	3.6820	3.6820	-1.0921	25.90	0.09	-0.750			
0.3639	23292.02	3.6790	3.6790	-1.1112	25.90	0.09	-0.750			
0.3673	23506.81	3.6760	3.6759	-1.1341	25.89	0.08	-0.750			
0.3707	23726.18	3.6730	3.6731	-1.1616	25.89	0.08	-0.750			
0.3743	23952.33	3.6700	3.6700	-1.1891	25.88	0.07	-0.750			
0.3779	24185.79	3.6670	3.6669	-1.2068	25.88	0.07	-0.750			
0.3815	24418.47	3.6640	3.6640	-1.2312	25.87	0.06	-0.750			
0.3853	24656.79	3.6610	3.6610	-1.2575	25.87	0.06	-0.750			
0.3891	24899.28	3.6580	3.6580	-1.2819	25.86	0.05	-0.750			
0.3929	25144.59	3.6550	3.6549	-1.3167	25.85	0.04	-0.750			
0.3969	25398.99	3.6520	3.6521	-1.3472	25.85	0.04	-0.750			
0.4010	25664.65	3.6490	3.6489	-1.3780	25.84	0.03	-0.750			
0.4052	25933.95	3.6460	3.6459	-1.4093	25.83	0.02	-0.750			
0.4095	26207.10	3.6430	3.6428	-1.4290	25.82	0.01	-0.750			
0.4138	26484.94	3.6400	3.6401	-1.4569	25.81	-0.00	-0.750			
0.4182	26766.69	3.6370	3.6369	-1.4895	25.80	-0.01	-0.750			
0.4227	27052.90	3.6340	3.6339	-1.5210	25.80	-0.01	-0.750			
0.4274	27350.47	3.6310	3.6310	-1.5663	25.79	-0.02	-0.750			
0.4321	27655.90	3.6280	3.6281	-1.6014	25.78	-0.03	-0.750			
0.4370	27968.71	3.6250	3.6251	-1.6196	25.77	-0.04	-0.750			
0.4420	28285.90	3.6220	3.6219	-1.6541	25.76	-0.05	-0.750			
0.4469	28603.74	3.6190	3.6195	-1.6775	25.76	-0.05	-0.750	0.389	0.513	
0.4520	28927.62	3.6160	3.6160	-1.7043	25.74	-0.07	-0.750			
0.4571	29253.35	3.6130	3.6131	-1.7357	25.73	-0.08	-0.750			
0.4624	29591.25	3.6100	3.6101	-1.7630	25.72	-0.09	-0.750			
0.4677	29933.05	3.6070	3.6070	-1.8113	25.71	-0.10	-0.750			
0.4732	30284.91	3.6040	3.6039	-1.8501	25.71	-0.10	-0.750			
0.4788	30640.58	3.6010	3.6008	-1.8837	25.70	-0.11	-0.750			
0.4845	31005.81	3.5980	3.5980	-1.9240	25.70	-0.11	-0.750			
0.4903	31382.30	3.5950	3.5952	-1.9645	25.69	-0.12	-0.750			
0.4963	31764.48	3.5920	3.5920	-2.0076	25.68	-0.13	-0.750			
0.5025	32160.06	3.5890	3.5889	-2.0235	25.67	-0.14	-0.750			
0.5086	32547.40	3.5860	3.5861	-2.0549	25.66	-0.15	-0.750			
0.5148	32945.86	3.5830	3.5829	-2.0899	25.66	-0.15	-0.750			
0.5211	33349.36	3.5800	3.5800	-2.1218	25.66	-0.15	-0.750			
0.5275	33761.53	3.5770	3.5771	-2.1421	25.65	-0.16	-0.750			
0.5340	34174.75	3.5740	3.5740	-2.1715	25.65	-0.16	-0.750			
0.5406	34595.65	3.5710	3.5709	-2.2008	25.64	-0.17	-0.750			
0.5473	35028.53	3.5680	3.5679	-2.2170	25.64	-0.17	-0.750			
0.5539	35450.50	3.5650	3.5652	-2.2314	25.64	-0.17	-0.750			
0.5607	35883.41	3.5620	3.5621	-2.2483	25.64	-0.17	-0.750			
0.5674	36313.82	3.5590	3.5591	-2.2604	25.63	-0.18	-0.750			
0.5743	36755.58	3.5560	3.5561	-2.2647	25.63	-0.18	-0.750			
0.5811	37191.95	3.5530	3.5530	-2.2701	25.62	-0.19	-0.750			
0.5880	37630.21	3.5500	3.5501	-2.2513	25.62	-0.19	-0.750			
0.5948	38064.87	3.5470	3.5471	-2.2472	25.63	-0.18	-0.750			
0.6014	38490.54	3.5440	3.5441	-2.2076	25.62	-0.19	-0.750			
0.6080	38911.05	3.5410	3.5408	-2.1970	25.62	-0.19	-0.750			
0.6146	39335.06	3.5380	3.5381	-2.1599	25.63	-0.18	-0.750			
0.6211	39750.37	3.5350	3.5350	-2.1497	25.64	-0.17	-0.750			
0.6275	40161.30	3.5320	3.5319	-2.1112	25.64	-0.17	-0.750			
0.6338	40562.42	3.5290	3.5289	-2.0720	25.64	-0.17	-0.750			
0.6400	40958.39	3.5260	3.5262	-2.0300	25.65	-0.16	-0.750			
0.6460	41345.80	3.5230	3.5230	-1.9882	25.66	-0.15	-0.750			
0.6519	41722.33	3.5200	3.5199	-1.9271	25.67	-0.14	-0.750			
0.6577	42092.09	3.5170	3.5170	-1.8895	25.67	-0.14	-0.750			
0.6632	42444.86	3.5140	3.5140	-1.8195	25.68	-0.13	-0.750			
0.6686	42792.87	3.5110	3.5109	-1.7593	25.70	-0.11	-0.750			
0.6738	43123.93	3.5080	3.5080	-1.7088	25.71	-0.10	-0.750			
0.6789	43446.79	3.5050	3.5048	-1.6582	25.71	-0.10	-0.750			
0.6837	43758.96	3.5020	3.5019	-1.6002	25.73	-0.08	-0.750			
0.6885	44062.87	3.4990	3.4992	-1.5509	25.74	-0.07	-0.750			
0.6930	44353.99	3.4960	3.4959	-1.5022	25.76	-0.05	-0.750			
0.6975	44638.96	3.4930	3.4930	-1.4516	25.78	-0.03	-0.750			
0.7018	44914.55	3.4900	3.4899	-1.4080	25.79	-0.02	-0.750			
0.7059	45177.80	3.4870	3.4870	-1.3661	25.81	-0.00	-0.750			
0.7099	45434.58	3.4840	3.4840	-1.3163	25.82	0.01	-0.750			
0.7138	45684.96	3.4810	3.4810	-1.2790	25.83	0.02	-0.750			
0.7176	45927.11	3.4780	3.4779	-1.2337	25.84	0.03	-0.750			
0.7212	46158.19	3.4750	3.4751	-1.1915	25.86	0.05	-0.750			
0.7248	46385.63	3.4720	3.4719	-1.1543	25.87	0.06	-0.750			
0.7282	46602.84	3.4690	3.4689	-1.1077	25.89	0.08	-0.750			
0.7314	46809.83	3.4660	3.4660	-1.0632	25.91	0.10	-0.750			
0.7345	47009.56	3.4630	3.4630	-1.0383	25.92	0.11	-0.750			
0.7376	47204.74	3.4600	3.4600	-1.0000	25.93	0.12	-0.750			
0.7405	47394.66	3.4570	3.4568	-0.9651	25.94	0.13	-0.750			
0.7433	47574.36	3.4540	3.4539	-0.9365	25.95	0.14	-0.750			
0.7461	47753.39	3.4510	3.4509	-0.9149	25.96	0.15	-0.750			
0.7488	47925.22	3.4480	3.4479	-0.8999	25.97	0.16	-0.750			
0.7515	48093.63	3.4450	3.4450	-0.8780	25.98	0.17	-0.750			
0.7540	48256.78	3.4420	3.4420	-0.8678	25.99	0.18	-0.750			
0.7566	48425.58	3.4390	3.4390	-0.8790	26.01	0.20	-0.750			
0.7592	48591.30	3.4360	3.4360	-0.8915	26.02	0.21	-0.750			
0.7619	48760.77	3.4330	3.4329	-0.9069	26.02	0.21	-0.750			
0.7646	48936.70	3.4300	3.4300	-0.9238	26.03	0.22	-0.750			
0.7674	49116.43	3.4270	3.4270	-0.9410	26.04	0.23	-0.750			
0.7704	49303.27	3.4240	3.4240	-0.9606	26.05	0.24	-0.750			
0.7733	49488.64	3.4210	3.4210	-0.9740	26.06	0.25	-0.750			
0.7762	49677.35	3.4180	3.4180	-0.9788	26.07	0.26	-0.750			
0.7792	49866.04	3.4150	3.4148	-0.9840	26.08	0.27	-0.750			
0.7821	50056.01	3.4120	3.4122	-0.9865	26.09	0.28	-0.750			
0.7851	50247.90	3.4090	3.4089	-0.9853	26.10	0.29	-0.750			
0.7881	50440.68	3.4060	3.4060	-0.9764	26.11	0.30	-0.750			
0.7911	50627.89	3.4030	3.4029	-0.9545	26.12	0.31	-0.750			
0.7939	50810.88	3.4000	3.4000	-0.9346	26.13	0.32	-0.750			
0.7967	50988.62	3.3970	3.3969	-0.9014	26.14	0.33	-0.750			
0.7993	51157.19	3.3940	3.3940	-0.8674	26.14	0.33	-0.750			
0.8019	51320.43	3.3910	3.3910	-0.8324	26.15	0.34	-0.750			
0.8043	51476.07	3.3880	3.3880	-0.7959	26.16	0.35	-0.750			
0.8067	51627.24	3.3850	3.3849	-0.7688	26.17	0.36	-0.750			
0.8089	51770.36	3.3820	3.3820	-0.7363	26.18	0.37	-0.750			
0.8111	51907.83	3.3790	3.3790	-0.7077	26.18	0.37	-0.750			
0.8131	52040.92	3.3760	3.3759	-0.6828	26.19	0.38	-0.750			
0.8151	52169.19	3.3730	3.3730	-0.6532	26.20	0.39	-0.750			
0.8171	52293.49	3.3700	3.3700	-0.6312	26.20	0.39	-0.750			
0.8189	52411.77	3.3670	3.3670	-0.6087	26.21	0.40	-0.750			
0.8207	52525.61	3.3640	3.3640	-0.5838	26.21	0.40	-0.750			
0.8224	52635.65	3.3610	3.3609	-0.5634	26.22	0.41	-0.750			
0.8241	52740.77	3.3580	3.3581	-0.5418	26.23	0.42	-0.750			
0.8257	52843.56	3.3550	3.3550	-0.5219	26.24	0.43	-0.750			
0.8272	52942.21	3.3520	3.3520	-0.5032	26.25	0.44	-0.750			
0.8287	53036.28	3.3490	3.3490	-0.4820	26.25	0.44	-0.750			
0.8301	53126.09	3.3460	3.3461	-0.4643	26.26	0.45	-0.750			
0.8315	53213.66	3.3430	3.3429	-0.4487	26.27	0.46	-0.750			
0.8328	53297.54	3.3400	3.3400	-0.4346	26.27	0.46	-0.750			
0.8341	53379.47	3.3370	3.3370	-0.4195	26.28	0.47	-0.750			
0.8353	53459.13	3.3340	3.3340	-0.4067	26.29	0.48	-0.750			
0.8365	53536.07	3.3310	3.3310	-0.3942	26.29	0.48	-0.750			
0.8377	53610.72	3.3280	3.3280	-0.3820	26.30	0.49	-0.750			
0.8388	53682.02	3.3250	3.3250	-0.3682	26.31	0.50	-0.750			
0.8399	53751.73	3.3220	3.3220	-0.3561	26.31	0.50	-0.750			
0.8409	53818.56	3.3190	3.3189	-0.3431	26.32	0.51	-0.750			
0.8419	53883.69	3.3160	3.3160	-0.3356	26.32	0.51	-0.750			
0.8429	53947.09	3.3130	3.3129	-0.3239	26.33	0.52	-0.750			
0.8439	54007.93	3.3100	3.3099	-0.3135	26.33	0.52	-0.750			
0.8448	54067.47	3.3070	3.3073	-0.3050	26.34	0.53	-0.750			
0.8457	54125.00	3.3040	3.3039	-0.2954	26.35	0.54	-0.750			
0.8466	54180.75	3.3010	3.3009	-0.2873	26.35	0.54	-0.750			
0.8474	54234.40	3.2980	3.2980	-0.2784	26.36	0.55	-0.750			
0.8482	54287.11	3.2950	3.2950	-0.2728	26.36	0.55	-0.750			
0.8490	54338.74	3.2920	3.2920	-0.2666	26.37	0.56	-0.750			
0.8498	54388.72	3.2890	3.2890	-0.2602	26.38	0.57	-0.750			
0.8506	54438.13	3.2860	3.2860	-0.2555	26.38	0.57	-0.750			
0.8514	54486.90	3.2830	3.2830	-0.2509	26.39	0.58	-0.750			
0.8521	54534.77	3.2800	3.2800	-0.2453	26.39	0.58	-0.750			
0.8528	54581.04	3.2770	3.2771	-0.2408	26.40	0.59	-0.750			
0.8535	54626.99	3.2740	3.2739	-0.2363	26.40	0.59	-0.750			
0.8542	54671.81	3.2710	3.2711	-0.2311	26.41	0.60	-0.750			
0.8549	54715.75	3.2680	3.2679	-0.2264	26.41	0.60	-0.750			
0.8556	54758.33	3.2650	3.2651	-0.2222	26.42	0.61	-0.750			
0.8563	54800.70	3.2620	3.2620	-0.2185	26.42	0.61	-0.750			
0.8569	54842.23	3.2590	3.2591	-0.2148	26.43	0.62	-0.750			
0.8576	54883.41	3.2560	3.2559	-0.2107	26.43	0.62	-0.750			
0.8582	54923.34	3.2530	3.2530	-0.2057	26.44	0.63	-0.750			
0.8588	54962.42	3.2500	3.2501	-0.2014	26.44	0.63	-0.750			
0.8594	55000.99	3.2470	3.2470	-0.1980	26.45	0.64	-0.750			
0.8600	55038.02	3.2440	3.2440	-0.1960	26.45	0.64	-0.750			
0.8605	55074.68	3.2410	3.2410	-0.1929	26.46	0.65	-0.750			
0.8611	55111.31	3.2380	3.2379	-0.1917	26.46	0.65	-0.750			
0.8617	55148.43	3.2350	3.2350	-0.1893	26.47	0.66	-0.750			
0.8623	55185.00	3.2320	3.2321	-0.1873	26.47	0.66	-0.750			
0.8628	55221.09	3.2290	3.2291	-0.1855	26.48	0.67	-0.750			
0.8634	55256.39	3.2260	3.2260	-0.1821	26.48	0.67	-0.750			
0.8639	55291.14	3.2230	3.2228	-0.1790	26.49	0.68	-0.750			
0.8644	55324.68	3.2200	3.2200	-0.1757	26.49	0.68	-0.750			
0.8650	55357.97	3.2170	3.2170	-0.1737	26.49	0.68	-0.750			
0.8655	55391.16	3.2140	3.2141	-0.1720	26.50	0.69	-0.750			
0.8660	55424.11	3.2110	3.2109	-0.1704	26.50	0.69	-0.750			
0.8665	55456.58	3.2080	3.2080	-0.1680	26.51	0.70	-0.750			
0.8670	55488.61	3.2050	3.2050	-0.1663	26.51	0.70	-0.750			
0.8675	55520.38	3.2020	3.2021	-0.1646	26.52	0.71	-0.750			
0.8680	55552.03	3.1990	3.1990	-0.1627	26.52	0.71	-0.750			
0.8685	55583.08	3.1960	3.1959	-0.1606	26.52	0.71	-0.750			
0.8690	55613.58	3.1930	3.1930	-0.1583	26.53	0.72	-0.750			
0.8694	55643.71	3.1900	3.1900	-0.1570	26.53	0.72	-0.750			
0.8699	55673.50	3.1870	3.1870	-0.1561	26.54	0.73	-0.750			
0.8704	55703.53	3.1840	3.1839	-0.1545	26.55	0.74	-0.750			
0.8708	55732.94	3.1810	3.1810	-0.1530	26.55	0.74	-0.750			
0.8713	55762.30	3.1780	3.1779	-0.1513	26.56	0.75	-0.750			
0.8717	55791.30	3.1750	3.1751	-0.1504	26.56	0.75	-0.750			
0.8722	55819.96	3.1720	3.1720	-0.1494	26.57	0.76	-0.750			
0.8726	55848.52	3.1690	3.1689	-0.1482	26.57	0.76	-0.750			
0.8731	55876.72	3.1660	3.1659	-0.1464	26.58	0.77	-0.750			
0.8735	55904.66	3.1630	3.1630	-0.1447	26.59	0.78	-0.750			
0.8739	55932.53	3.1600	3.1601	-0.1443	26.59	0.78	-0.750			
0.8744	55960.08	3.1570	3.1571	-0.1427	26.60	0.79	-0.750			
0.8748	55987.32	3.1540	3.1540	-0.1415	26.60	0.79	-0.750			
0.8752	56014.22	3.1510	3.1509	-0.1397	26.61	0.80	-0.750			
0.8756	56040.87	3.1480	3.1480	-0.1384	26.61	0.80	-0.750			
0.8761	56067.35	3.1450	3.1450	-0.1374	26.62	0.81	-0.750			
0.8765	56093.70	3.1420	3.1421	-0.1367	26.62	0.81	-0.750			
0.8769	56119.94	3.1390	3.1390	-0.1354	26.63	0.82	-0.750			
0.8773	56145.73	3.1360	3.1360	-0.1339	26.63	0.82	-0.750			
0.8777	56171.33	3.1330	3.1329	-0.1329	26.64	0.83	-0.750			
0.8781	56196.66	3.1300	3.1301	-0.1320	26.64	0.83	-0.750			
0.8785	56221.98	3.1270	3.1270	-0.1311	26.65	0.84	-0.750			
0.8789	56247.00	3.1240	3.1240	-0.1299	26.65	0.84	-0.750			
0.8792	56271.90	3.1210	3.1210	-0.1289	26.66	0.85	-0.750			
0.8796	56296.44	3.1180	3.1180	-0.1278	26.66	0.85	-0.750			
0.8800	56320.90	3.1150	3.1150	-0.1270	26.67	0.86	-0.750			
0.8804	56345.26	3.1120	3.1120	-0.1265	26.67	0.86	-0.750			
0.8808	56369.38	3.1090	3.1090	-0.1255	26.68	0.87	-0.750			
0.8811	56393.33	3.1060	3.1060	-0.1245	26.68	0.87	-0.750			
0.8815	56417.30	3.1030	3.1030	-0.1237	26.69	0.88	-0.750			
0.8819	56441.07	3.1000	3.0999	-0.1230	26.69	0.88	-0.750			
0.8823	56464.78	3.0970	3.0970	-0.1220	26.70	0.89	-0.750			
0.8826	56488.07	3.0940	3.0940	-0.1206	26.70	0.89	-0.750			
0.8830	56510.96	3.0910	3.0911	-0.1198	26.71	0.90	-0.750			
0.8833	56533.87	3.0880	3.0880	-0.1189	26.72	0.91	-0.750			
0.8837	56556.32	3.0850	3.0850	-0.1182	26.72	0.91	-0.750			
0.8840	56578.85	3.0820	3.0820	-0.1177	26.73	0.92	-0.750			
0.8844	56601.51	3.0790	3.0791	-0.1172	26.73	0.92	-0.750			
0.8847	56623.95	3.0760	3.0760	-0.1168	26.74	0.93	-0.750			
0.8851	56646.43	3.0730	3.0729	-0.1159	26.74	0.93	-0.750			
0.8855	56668.90	3.0700	3.0700	-0.1155	26.75	0.94	-0.750			
0.8858	56690.97	3.0670	3.0670	-0.1144	26.75	0.94	-0.750			
0.8861	56712.86	3.0640	3.0640	-0.1134	26.76	0.95	-0.750			
0.8865	56734.45	3.0610	3.0610	-0.1127	26.76	0.95	-0.750			
0.8868	56755.92	3.0580	3.0580	-0.1118	26.77	0.96	-0.750			
0.8871	56777.30	3.0550	3.0549	-0.1112	26.77	0.96	-0.750			
0.8875	56798.50	3.0520	3.0520	-0.1105	26.78	0.97	-0.750			
0.8878	56819.61	3.0490	3.0490	-0.1104	26.78	0.97	-0.750			
0.8881	56840.67	3.0460	3.0461	-0.1100	26.79	0.98	-0.750			
0.8885	56861.95	3.0430	3.0430	-0.1090	26.79	0.98	-0.750			
0.8888	56882.99	3.0400	3.0398	-0.1086	26.80	0.99	-0.750			
0.8891	56903.75	3.0370	3.0371	-0.1077	26.80	0.99	-0.750			
0.8894	56924.43	3.0340	3.0341	-0.1069	26.81	1.00	-0.750			
0.8898	56944.69	3.0310	3.0310	-0.1067	26.81	1.00	-0.750			
0.8901	56965.04	3.0280	3.0280	-0.1061	26.82	1.01	-0.750			
0.8904	56985.42	3.0250	3.0249	-0.1055	26.82	1.01	-0.750			
0.8907	57005.38	3.0220	3.0221	-0.1047	26.83	1.02	-0.750			
0.8910	57025.58	3.0190	3.0190	-0.1041	26.83	1.02	-0.750			
0.8913	57045.81	3.0160	3.0160	-0.1039	26.84	1.03	-0.750			
0.8917	57065.67	3.0130	3.0131	-0.1031	26.84	1.03	-0.750			
0.8920	57085.52	3.0100	3.0099	-0.1023	26.84	1.03	-0.750			
0.8923	57105.07	3.0070	3.0071	-0.1013	26.85	1.04	-0.751			
0.8926	57124.25	3.0040	3.0039	-0.1010	26.85	1.04	-0.751			
0.8929	57143.61	3.0010	3.0010	-0.1007	26.86	1.05	-0.751			
