Ah_balance (normalized)	Ah_balance (mAh)	Voltage - fit (V)	Voltage -  interpolate (V)	dQ/dV (1/V)	Temperature (°C)	Temperature - diff (°C)	Current (C)	R_DC 0ms (mOhm)	R_DC 50ms (mOhm)	R_DC 50 ms PEC (mOhm)
0.0005	29.12	4.1650	4.1649	-0.1522	25.73	0.01	-0.750			
0.0010	63.22	4.1620	4.1619	-0.1985	25.72	0.00	-0.750			
0.0016	105.46	4.1590	4.1591	-0.2432	25.72	0.00	-0.750			
0.0024	156.42	4.1560	4.1561	-0.2882	25.72	-0.00	-0.750			
0.0034	216.85	4.1530	4.1530	-0.3316	25.72	-0.00	-0.750			
0.0044	284.40	4.1500	4.1500	-0.3741	25.71	-0.01	-0.750			
0.0056	361.01	4.1470	4.1470	-0.4131	25.71	-0.01	-0.750			
0.0070	444.81	4.1440	4.1440	-0.4519	25.70	-0.02	-0.750			
0.0084	535.29	4.1410	4.1410	-0.4905	25.70	-0.02	-0.750			
0.0099	634.37	4.1380	4.1380	-0.5208	25.69	-0.03	-0.750			
0.0115	738.90	4.1350	4.1349	-0.5501	25.69	-0.03	-0.750			
0.0132	847.99	4.1320	4.1319	-0.5754	25.68	-0.04	-0.750			
0.0150	960.93	4.1290	4.1292	-0.5988	25.68	-0.04	-0.750			
0.0169	1079.34	4.1260	4.1259	-0.6177	25.68	-0.04	-0.750			
0.0188	1200.16	4.1230	4.1230	-0.6337	25.67	-0.05	-0.750			
0.0207	1322.00	4.1200	4.1200	-0.6455	25.67	-0.05	-0.750			
0.0226	1449.34	4.1170	4.1171	-0.6664	25.67	-0.05	-0.750			
0.0247	1579.41	4.1140	4.1139	-0.6773	25.66	-0.06	-0.750			
0.0267	1710.33	4.1110	4.1109	-0.6868	25.66	-0.06	-0.750			
0.0288	1844.01	4.1080	4.1081	-0.6945	25.66	-0.06	-0.750			
0.0309	1978.86	4.1050	4.1050	-0.7033	25.65	-0.07	-0.750			
0.0330	2114.80	4.1020	4.1020	-0.7114	25.65	-0.07	-0.750			
0.0352	2252.08	4.0990	4.0990	-0.7153	25.65	-0.07	-0.750			
0.0373	2389.26	4.0960	4.0960	-0.7208	25.64	-0.08	-0.750			
0.0395	2529.27	4.0930	4.0931	-0.7251	25.64	-0.08	-0.750			
0.0417	2668.59	4.0900	4.0900	-0.7306	25.64	-0.08	-0.750			
0.0439	2809.30	4.0870	4.0869	-0.7361	25.64	-0.08	-0.750			
0.0461	2950.96	4.0840	4.0840	-0.7439	25.64	-0.08	-0.750			
0.0484	3095.25	4.0810	4.0809	-0.7514	25.64	-0.08	-0.750			
0.0506	3241.21	4.0780	4.0780	-0.7532	25.64	-0.08	-0.750			
0.0529	3387.21	4.0750	4.0750	-0.7553	25.64	-0.08	-0.750			
0.0552	3532.52	4.0720	4.0720	-0.7564	25.64	-0.08	-0.750			
0.0574	3676.31	4.0690	4.0690	-0.7560	25.64	-0.08	-0.750			
0.0597	3819.19	4.0660	4.0660	-0.7518	25.64	-0.08	-0.750			
0.0620	3966.11	4.0630	4.0630	-0.7569	25.64	-0.08	-0.750			
0.0642	4110.45	4.0600	4.0600	-0.7602	25.64	-0.08	-0.750			
0.0665	4256.44	4.0570	4.0571	-0.7664	25.64	-0.08	-0.750			
0.0688	4403.67	4.0540	4.0539	-0.7712	25.64	-0.08	-0.750			
0.0711	4552.75	4.0510	4.0509	-0.7729	25.64	-0.08	-0.750			
0.0735	4702.00	4.0480	4.0480	-0.7729	25.64	-0.08	-0.750			
0.0758	4852.04	4.0450	4.0450	-0.7756	25.64	-0.08	-0.750			
0.0781	5000.55	4.0420	4.0420	-0.7742	25.64	-0.08	-0.750			
0.0804	5146.37	4.0390	4.0390	-0.7747	25.64	-0.08	-0.750			
0.0827	5295.65	4.0360	4.0359	-0.7775	25.64	-0.08	-0.750			
0.0851	5445.24	4.0330	4.0330	-0.7794	25.64	-0.08	-0.750			
0.0874	5596.02	4.0300	4.0300	-0.7835	25.64	-0.08	-0.750			
0.0898	5747.71	4.0270	4.0273	-0.7862	25.64	-0.08	-0.750			
0.0922	5898.22	4.0240	4.0240	-0.7868	25.64	-0.08	-0.750			
0.0945	6048.52	4.0210	4.0210	-0.7882	25.64	-0.08	-0.750			
0.0969	6200.05	4.0180	4.0180	-0.7892	25.64	-0.08	-0.750			
0.0993	6352.20	4.0150	4.0150	-0.7931	25.64	-0.08	-0.750			
0.1016	6505.12	4.0120	4.0120	-0.7909	25.64	-0.08	-0.750			
0.1040	6656.52	4.0090	4.0090	-0.7914	25.64	-0.08	-0.750			
0.1064	6807.40	4.0060	4.0061	-0.7986	25.65	-0.07	-0.750			
0.1088	6960.99	4.0030	4.0030	-0.7979	25.65	-0.07	-0.750			
0.1112	7114.99	4.0000	3.9998	-0.8009	25.65	-0.07	-0.750			
0.1136	7270.57	3.9970	3.9971	-0.8023	25.66	-0.06	-0.750			
0.1160	7424.23	3.9940	3.9941	-0.8040	25.66	-0.06	-0.750			
0.1184	7578.14	3.9910	3.9910	-0.8163	25.66	-0.06	-0.750			
0.1209	7735.78	3.9880	3.9879	-0.8098	25.66	-0.06	-0.750			
0.1233	7888.88	3.9850	3.9849	-0.8075	25.66	-0.06	-0.750			
0.1257	8047.08	3.9820	3.9820	-0.8146	25.66	-0.06	-0.750			
0.1282	8202.77	3.9790	3.9788	-0.8124	25.66	-0.06	-0.750			
0.1306	8359.06	3.9760	3.9760	-0.8154	25.66	-0.06	-0.750			
0.1330	8513.49	3.9730	3.9730	-0.8163	25.66	-0.06	-0.750			
0.1355	8669.71	3.9700	3.9700	-0.8132	25.67	-0.05	-0.750			
0.1380	8829.71	3.9670	3.9670	-0.8271	25.67	-0.05	-0.750			
0.1404	8987.35	3.9640	3.9641	-0.8279	25.67	-0.05	-0.750			
0.1429	9146.99	3.9610	3.9610	-0.8297	25.67	-0.05	-0.750			
0.1454	9306.89	3.9580	3.9579	-0.8319	25.67	-0.05	-0.750			
0.1479	9466.33	3.9550	3.9551	-0.8319	25.68	-0.04	-0.750			
0.1504	9626.41	3.9520	3.9520	-0.8344	25.68	-0.04	-0.750			
0.1530	9789.72	3.9490	3.9490	-0.8368	25.68	-0.04	-0.750			
0.1554	9947.09	3.9460	3.9460	-0.8371	25.68	-0.04	-0.750			
0.1579	10108.15	3.9430	3.9431	-0.8380	25.68	-0.04	-0.750			
0.1604	10268.66	3.9400	3.9400	-0.8416	25.69	-0.03	-0.750			
0.1630	10432.02	3.9370	3.9369	-0.8450	25.69	-0.03	-0.750			
0.1655	10594.18	3.9340	3.9340	-0.8478	25.69	-0.03	-0.750			
0.1681	10756.81	3.9310	3.9310	-0.8521	25.70	-0.02	-0.750			
0.1707	10922.70	3.9280	3.9281	-0.8565	25.70	-0.02	-0.750			
0.1732	11085.58	3.9250	3.9249	-0.8519	25.70	-0.02	-0.750			
0.1758	11251.01	3.9220	3.9220	-0.8560	25.71	-0.01	-0.750			
0.1784	11414.48	3.9190	3.9191	-0.8548	25.71	-0.01	-0.750			
0.1809	11579.05	3.9160	3.9160	-0.8577	25.71	-0.01	-0.750			
0.1835	11743.18	3.9130	3.9130	-0.8585	25.72	-0.00	-0.750			
0.1861	11907.94	3.9100	3.9100	-0.8576	25.72	-0.00	-0.750			
0.1887	12073.76	3.9070	3.9069	-0.8626	25.72	-0.00	-0.750			
0.1912	12239.76	3.9040	3.9040	-0.8657	25.72	0.00	-0.750			
0.1938	12406.00	3.9010	3.9010	-0.8668	25.73	0.01	-0.750			
0.1964	12571.92	3.8980	3.8981	-0.8680	25.74	0.02	-0.750			
0.1990	12738.52	3.8950	3.8950	-0.8656	25.74	0.02	-0.750			
0.2017	12905.90	3.8920	3.8920	-0.8692	25.75	0.03	-0.750			
0.2043	13072.65	3.8890	3.8890	-0.8740	25.75	0.03	-0.750			
0.2069	13240.15	3.8860	3.8859	-0.8739	25.76	0.04	-0.750			
0.2095	13408.46	3.8830	3.8830	-0.8754	25.76	0.04	-0.750			
0.2121	13575.63	3.8800	3.8800	-0.8747	25.77	0.05	-0.750			
0.2148	13744.61	3.8770	3.8772	-0.8794	25.77	0.05	-0.750			
0.2174	13913.66	3.8740	3.8740	-0.8844	25.77	0.05	-0.750			
0.2200	14082.49	3.8710	3.8710	-0.8859	25.77	0.05	-0.750			
0.2227	14252.88	3.8680	3.8679	-0.8907	25.78	0.06	-0.750			
0.2254	14426.04	3.8650	3.8650	-0.8919	25.78	0.06	-0.750			
0.2281	14597.55	3.8620	3.8621	-0.8918	25.78	0.06	-0.750			
0.2308	14769.69	3.8590	3.8590	-0.8941	25.78	0.06	-0.750			
0.2334	14940.76	3.8560	3.8560	-0.8926	25.79	0.07	-0.750			
0.2361	15111.13	3.8530	3.8529	-0.8898	25.79	0.07	-0.750			
0.2388	15282.56	3.8500	3.8500	-0.8891	25.79	0.07	-0.750			
0.2415	15452.94	3.8470	3.8469	-0.8893	25.79	0.07	-0.750			
0.2441	15624.21	3.8440	3.8440	-0.8900	25.80	0.08	-0.750			
0.2468	15793.95	3.8410	3.8410	-0.8870	25.80	0.08	-0.750			
0.2494	15963.80	3.8380	3.8380	-0.8864	25.81	0.09	-0.750			
0.2521	16134.70	3.8350	3.8351	-0.8879	25.81	0.09	-0.750			
0.2548	16304.20	3.8320	3.8321	-0.8954	25.81	0.09	-0.750			
0.2575	16477.81	3.8290	3.8290	-0.8954	25.81	0.09	-0.750			
0.2602	16649.64	3.8260	3.8259	-0.8966	25.82	0.10	-0.750			
0.2628	16821.78	3.8230	3.8230	-0.8999	25.82	0.10	-0.750			
0.2656	16995.60	3.8200	3.8200	-0.8999	25.82	0.10	-0.750			
0.2683	17169.32	3.8170	3.8169	-0.9005	25.83	0.11	-0.750			
0.2710	17341.42	3.8140	3.8140	-0.8992	25.84	0.12	-0.750			
0.2736	17513.16	3.8110	3.8111	-0.8938	25.84	0.12	-0.750			
0.2764	17686.74	3.8080	3.8080	-0.8967	25.85	0.13	-0.750			
0.2790	17857.48	3.8050	3.8050	-0.8937	25.85	0.13	-0.750			
0.2817	18028.36	3.8020	3.8020	-0.8938	25.85	0.13	-0.750			
0.2844	18200.33	3.7990	3.7990	-0.8964	25.86	0.14	-0.750			
0.2871	18371.83	3.7960	3.7960	-0.8967	25.86	0.14	-0.750			
0.2897	18543.52	3.7930	3.7930	-0.8973	25.86	0.14	-0.750			
0.2924	18716.11	3.7900	3.7900	-0.9040	25.86	0.14	-0.750			
0.2952	18891.41	3.7870	3.7870	-0.9006	25.86	0.14	-0.750			
0.2979	19064.32	3.7840	3.7839	-0.8988	25.87	0.15	-0.750			
0.3006	19236.10	3.7810	3.7811	-0.9002	25.87	0.15	-0.750			
0.3033	19409.40	3.7780	3.7779	-0.8993	25.87	0.15	-0.750			
0.3060	19583.06	3.7750	3.7749	-0.9016	25.88	0.16	-0.750			
0.3087	19756.79	3.7720	3.7720	-0.8994	25.88	0.16	-0.750			
0.3114	19928.41	3.7690	3.7690	-0.8948	25.88	0.16	-0.750			
0.3141	20101.54	3.7660	3.7662	-0.8958	25.89	0.17	-0.750			
0.3167	20271.32	3.7630	3.7629	-0.8919	25.89	0.17	-0.750			
0.3194	20441.66	3.7600	3.7599	-0.8879	25.89	0.17	-0.750			
0.3221	20611.54	3.7570	3.7570	-0.8873	25.90	0.18	-0.750			
0.3247	20780.80	3.7540	3.7540	-0.8876	25.90	0.18	-0.750			
0.3274	20953.76	3.7510	3.7511	-0.8927	25.90	0.18	-0.750			
0.3301	21124.88	3.7480	3.7480	-0.8961	25.90	0.18	-0.750			
0.3327	21295.75	3.7450	3.7450	-0.8959	25.90	0.18	-0.750			
0.3354	21467.87	3.7420	3.7420	-0.9035	25.91	0.19	-0.750			
0.3382	21641.62	3.7390	3.7391	-0.9115	25.91	0.19	-0.750			
0.3409	21817.62	3.7360	3.7359	-0.9148	25.91	0.19	-0.750			
0.3437	21994.37	3.7330	3.7330	-0.9270	25.92	0.20	-0.750			
0.3465	22174.09	3.7300	3.7300	-0.9324	25.92	0.20	-0.750			
0.3493	22354.20	3.7270	3.7270	-0.9366	25.93	0.21	-0.750			
0.3521	22534.26	3.7240	3.7243	-0.9456	25.93	0.21	-0.750			
0.3549	22714.29	3.7210	3.7210	-0.9505	25.93	0.21	-0.750			
0.3578	22897.40	3.7180	3.7180	-0.9610	25.93	0.21	-0.750			
0.3606	23081.07	3.7150	3.7150	-0.9747	25.93	0.21	-0.750			
0.3636	23270.16	3.7120	3.7120	-0.9893	25.93	0.21	-0.750			
0.3666	23461.13	3.7090	3.7090	-1.0048	25.93	0.21	-0.750			
0.3696	23656.51	3.7060	3.7060	-1.0172	25.93	0.21	-0.750			
0.3727	23852.49	3.7030	3.7029	-1.0280	25.93	0.21	-0.750			
0.3758	24050.17	3.7000	3.7000	-1.0465	25.93	0.21	-0.750			
0.3789	24252.05	3.6970	3.6969	-1.0657	25.93	0.21	-0.750			
0.3821	24457.51	3.6940	3.6940	-1.0842	25.93	0.21	-0.750			
0.3854	24668.09	3.6910	3.6910	-1.1082	25.93	0.21	-0.750			
0.3888	24882.25	3.6880	3.6881	-1.1315	25.93	0.21	-0.750			
0.3922	25103.42	3.6850	3.6849	-1.1554	25.93	0.21	-0.750			
0.3957	25326.31	3.6820	3.6820	-1.1810	25.92	0.20	-0.750			
0.3993	25554.52	3.6790	3.6790	-1.2065	25.91	0.19	-0.750			
0.4030	25788.87	3.6760	3.6760	-1.2380	25.91	0.19	-0.750			
0.4067	26031.38	3.6730	3.6730	-1.2649	25.90	0.18	-0.750			
0.4106	26276.32	3.6700	3.6700	-1.2922	25.90	0.18	-0.750			
0.4145	26526.88	3.6670	3.6672	-1.3287	25.89	0.17	-0.750			
0.4185	26786.85	3.6640	3.6639	-1.3576	25.89	0.17	-0.750			
0.4226	27048.74	3.6610	3.6609	-1.3845	25.89	0.17	-0.750			
0.4268	27317.52	3.6580	3.6583	-1.4149	25.89	0.17	-0.750			
0.4311	27590.26	3.6550	3.6550	-1.4559	25.88	0.16	-0.750			
0.4355	27872.64	3.6520	3.6520	-1.4897	25.86	0.14	-0.750			
0.4400	28159.08	3.6490	3.6490	-1.5307	25.85	0.13	-0.750			
0.4447	28460.82	3.6460	3.6458	-1.5786	25.85	0.13	-0.750			
0.4495	28771.10	3.6430	3.6431	-1.6110	25.84	0.12	-0.750			
0.4544	29084.44	3.6400	3.6398	-1.6478	25.84	0.12	-0.750			
0.4595	29404.81	3.6370	3.6369	-1.6806	25.83	0.11	-0.750			
0.4645	29726.44	3.6340	3.6342	-1.7177	25.82	0.10	-0.750			
0.4696	30057.22	3.6310	3.6311	-1.7351	25.82	0.10	-0.750	0.401	0.488	
0.4749	30396.35	3.6280	3.6279	-1.7689	25.81	0.09	-0.750			
0.4803	30739.53	3.6250	3.6249	-1.8151	25.80	0.08	-0.750			
0.4859	31095.21	3.6220	3.6217	-1.8458	25.79	0.07	-0.750			
0.4914	31451.15	3.6190	3.6189	-1.8770	25.78	0.06	-0.750			
0.4971	31811.37	3.6160	3.6161	-1.8936	25.77	0.05	-0.750			
0.5028	32177.17	3.6130	3.6132	-1.9196	25.76	0.04	-0.750			
0.5086	32548.87	3.6100	3.6101	-1.9486	25.75	0.03	-0.750			
0.5145	32928.33	3.6070	3.6070	-1.9954	25.75	0.03	-0.750			
0.5205	33310.58	3.6040	3.6042	-2.0203	25.74	0.02	-0.750			
0.5266	33703.70	3.6010	3.6009	-2.0813	25.72	0.00	-0.750			
0.5329	34108.77	3.5980	3.5980	-2.1191	25.71	-0.01	-0.750			
0.5394	34520.18	3.5950	3.5951	-2.1557	25.70	-0.02	-0.750			
0.5460	34941.47	3.5920	3.5920	-2.2139	25.70	-0.02	-0.750			
0.5526	35366.10	3.5890	3.5891	-2.2447	25.70	-0.02	-0.750			
0.5594	35804.43	3.5860	3.5860	-2.2765	25.69	-0.03	-0.750			
0.5664	36247.09	3.5830	3.5830	-2.3126	25.68	-0.04	-0.750			
0.5733	36691.83	3.5800	3.5800	-2.3307	25.68	-0.04	-0.750			
0.5804	37147.47	3.5770	3.5768	-2.3682	25.68	-0.04	-0.750			
0.5875	37602.05	3.5740	3.5740	-2.3767	25.67	-0.05	-0.750			
0.5947	38061.35	3.5710	3.5711	-2.3917	25.67	-0.05	-0.750			
0.6019	38522.70	3.5680	3.5681	-2.4110	25.66	-0.06	-0.750			
0.6092	38987.04	3.5650	3.5649	-2.4130	25.66	-0.06	-0.750			
0.6165	39453.05	3.5620	3.5619	-2.4148	25.66	-0.06	-0.750			
0.6238	39920.68	3.5590	3.5592	-2.4166	25.66	-0.06	-0.750			
0.6310	40382.93	3.5560	3.5560	-2.4076	25.66	-0.06	-0.750			
0.6382	40842.79	3.5530	3.5530	-2.3914	25.66	-0.06	-0.750			
0.6453	41300.15	3.5500	3.5500	-2.3834	25.66	-0.06	-0.750			
0.6525	41759.62	3.5470	3.5471	-2.3839	25.66	-0.06	-0.750			
0.6597	42219.31	3.5440	3.5440	-2.3687	25.66	-0.06	-0.750			
0.6668	42674.03	3.5410	3.5409	-2.3369	25.66	-0.06	-0.750			
0.6738	43123.65	3.5380	3.5381	-2.2910	25.67	-0.05	-0.750			
0.6807	43563.90	3.5350	3.5350	-2.2507	25.68	-0.04	-0.750			
0.6874	43991.16	3.5320	3.5320	-2.1892	25.69	-0.03	-0.750			
0.6938	44402.82	3.5290	3.5289	-2.1200	25.70	-0.02	-0.750			
0.7001	44804.83	3.5260	3.5260	-2.0756	25.71	-0.01	-0.750			
0.7062	45198.04	3.5230	3.5231	-2.0237	25.71	-0.01	-0.750			
0.7122	45582.36	3.5200	3.5198	-1.9618	25.72	-0.00	-0.750			
0.7181	45955.72	3.5170	3.5171	-1.8905	25.73	0.01	-0.750			
0.7236	46313.39	3.5140	3.5140	-1.7984	25.75	0.03	-0.750			
0.7289	46650.23	3.5110	3.5109	-1.7150	25.76	0.04	-0.750			
0.7339	46968.93	3.5080	3.5083	-1.6503	25.78	0.06	-0.750			
0.7386	47273.29	3.5050	3.5047	-1.5860	25.79	0.07	-0.750			
0.7433	47572.17	3.5020	3.5019	-1.5245	25.80	0.08	-0.750			
0.7478	47861.59	3.4990	3.4991	-1.4823	25.82	0.10	-0.750			
0.7523	48144.53	3.4960	3.4961	-1.4497	25.83	0.11	-0.750			
0.7565	48418.27	3.4930	3.4930	-1.3995	25.85	0.13	-0.750			
0.7606	48681.31	3.4900	3.4898	-1.3498	25.87	0.15	-0.750			
0.7646	48934.51	3.4870	3.4873	-1.3016	25.89	0.17	-0.750			
0.7685	49182.19	3.4840	3.4840	-1.2664	25.90	0.18	-0.750			
0.7722	49420.47	3.4810	3.4810	-1.2285	25.91	0.19	-0.750			
0.7758	49649.36	3.4780	3.4780	-1.1809	25.93	0.21	-0.750			
0.7793	49874.50	3.4750	3.4749	-1.1488	25.94	0.22	-0.750			
0.7827	50090.71	3.4720	3.4720	-1.1094	25.96	0.24	-0.750			
0.7859	50300.35	3.4690	3.4691	-1.0738	25.97	0.25	-0.750			
0.7891	50502.50	3.4660	3.4660	-1.0376	25.99	0.27	-0.750			
0.7921	50697.27	3.4630	3.4630	-1.0072	26.00	0.28	-0.750			
0.7951	50887.15	3.4600	3.4600	-0.9816	26.01	0.29	-0.750			
0.7980	51069.61	3.4570	3.4570	-0.9665	26.02	0.30	-0.750			
0.8008	51252.18	3.4540	3.4540	-0.9592	26.03	0.31	-0.750			
0.8036	51432.92	3.4510	3.4508	-0.9614	26.04	0.32	-0.750			
0.8065	51614.60	3.4480	3.4480	-0.9905	26.04	0.32	-0.750			
0.8094	51801.65	3.4450	3.4450	-1.0222	26.05	0.33	-0.750			
0.8125	51999.19	3.4420	3.4420	-1.0707	26.06	0.34	-0.750			
0.8158	52211.51	3.4390	3.4390	-1.1315	26.07	0.35	-0.750			
0.8193	52437.41	3.4360	3.4360	-1.1808	26.09	0.37	-0.750			
0.8230	52672.55	3.4330	3.4330	-1.2197	26.10	0.38	-0.750			
0.8268	52916.87	3.4300	3.4301	-1.2433	26.11	0.39	-0.750			
0.8307	53162.54	3.4270	3.4270	-1.2488	26.12	0.40	-0.750			
0.8345	53407.53	3.4240	3.4240	-1.2321	26.13	0.41	-0.750			
0.8382	53642.59	3.4210	3.4209	-1.1980	26.15	0.43	-0.750			
0.8417	53871.13	3.4180	3.4180	-1.1657	26.15	0.43	-0.750			
0.8452	54090.35	3.4150	3.4150	-1.1200	26.16	0.44	-0.750			
0.8484	54300.78	3.4120	3.4120	-1.0785	26.16	0.44	-0.750			
0.8516	54503.55	3.4090	3.4091	-1.0327	26.17	0.45	-0.750			
0.8547	54698.83	3.4060	3.4060	-0.9979	26.18	0.46	-0.750			
0.8576	54885.75	3.4030	3.4031	-0.9572	26.19	0.47	-0.750			
0.8604	55064.01	3.4000	3.3999	-0.9198	26.20	0.48	-0.750			
0.8631	55236.36	3.3970	3.3971	-0.8866	26.21	0.49	-0.750			
0.8657	55403.53	3.3940	3.3940	-0.8574	26.21	0.49	-0.750			
0.8682	55564.97	3.3910	3.3910	-0.8253	26.22	0.50	-0.750			
0.8707	55722.48	3.3880	3.3880	-0.7947	26.23	0.51	-0.750			
0.8730	55871.42	3.3850	3.3850	-0.7612	26.24	0.52	-0.750			
0.8752	56014.43	3.3820	3.3820	-0.7294	26.24	0.52	-0.750			
0.8773	56149.87	3.3790	3.3790	-0.6970	26.25	0.53	-0.750			
0.8794	56280.69	3.3760	3.3759	-0.6685	26.26	0.54	-0.750			
0.8813	56405.50	3.3730	3.3730	-0.6393	26.26	0.54	-0.750			
0.8832	56525.97	3.3700	3.3700	-0.6152	26.27	0.55	-0.750			
0.8850	56641.62	3.3670	3.3670	-0.5921	26.28	0.56	-0.750			
0.8868	56752.79	3.3640	3.3640	-0.5664	26.28	0.56	-0.750			
0.8884	56858.01	3.3610	3.3609	-0.5422	26.29	0.57	-0.750			
0.8900	56960.04	3.3580	3.3581	-0.5195	26.29	0.57	-0.750			
0.8915	57057.59	3.3550	3.3551	-0.4975	26.30	0.58	-0.750			
0.8930	57150.86	3.3520	3.3520	-0.4761	26.30	0.58	-0.750			
0.8944	57240.01	3.3490	3.3490	-0.4543	26.31	0.59	-0.750			
0.8957	57325.10	3.3460	3.3460	-0.4346	26.31	0.59	-0.750			
0.8970	57406.46	3.3430	3.3430	-0.4155	26.32	0.60	-0.750			
0.8982	57483.83	3.3400	3.3400	-0.3972	26.32	0.60	-0.750			
0.8994	57558.53	3.3370	3.3370	-0.3807	26.33	0.61	-0.750			
0.9005	57629.68	3.3340	3.3340	-0.3643	26.33	0.61	-0.750			
0.9015	57697.92	3.3310	3.3309	-0.3478	26.34	0.62	-0.750			
0.9025	57763.10	3.3280	3.3280	-0.3329	26.34	0.62	-0.750			
0.9035	57825.56	3.3250	3.3250	-0.3183	26.35	0.63	-0.750			
0.9045	57885.06	3.3220	3.3219	-0.3041	26.35	0.63	-0.750			
0.9053	57941.81	3.3190	3.3190	-0.2911	26.36	0.64	-0.750			
0.9062	57996.08	3.3160	3.3161	-0.2799	26.36	0.64	-0.750			
0.9070	58048.29	3.3130	3.3129	-0.2690	26.36	0.64	-0.750			
0.9078	58099.02	3.3100	3.3101	-0.2599	26.37	0.65	-0.750			
0.9086	58147.41	3.3070	3.3070	-0.2500	26.37	0.65	-0.750			
0.9093	58194.57	3.3040	3.3040	-0.2420	26.38	0.66	-0.750			
0.9100	58240.44	3.3010	3.3010	-0.2339	26.38	0.66	-0.750			
0.9107	58284.14	3.2980	3.2980	-0.2263	26.38	0.66	-0.750			
0.9114	58326.93	3.2950	3.2950	-0.2193	26.39	0.67	-0.750			
0.9120	58368.03	3.2920	3.2920	-0.2125	26.39	0.67	-0.750			
0.9126	58408.38	3.2890	3.2889	-0.2055	26.39	0.67	-0.750			
0.9132	58446.91	3.2860	3.2861	-0.1995	26.39	0.67	-0.750			
0.9138	58484.63	3.2830	3.2829	-0.1935	26.40	0.68	-0.750			
0.9144	58521.09	3.2800	3.2802	-0.1879	26.40	0.68	-0.750			
0.9149	58556.67	3.2770	3.2769	-0.1824	26.40	0.68	-0.750			
0.9155	58590.73	3.2740	3.2740	-0.1766	26.41	0.69	-0.750			
0.9160	58624.20	3.2710	3.2711	-0.1721	26.41	0.69	-0.750			
0.9165	58656.64	3.2680	3.2680	-0.1685	26.42	0.70	-0.750			
0.9170	58688.55	3.2650	3.2649	-0.1654	26.42	0.70	-0.750			
0.9175	58719.46	3.2620	3.2619	-0.1613	26.43	0.71	-0.750			
0.9180	58750.21	3.2590	3.2591	-0.1590	26.43	0.71	-0.750			
0.9184	58780.65	3.2560	3.2561	-0.1555	26.44	0.72	-0.750			
0.9189	58810.47	3.2530	3.2530	-0.1528	26.44	0.72	-0.750			
0.9194	58839.43	3.2500	3.2501	-0.1497	26.45	0.73	-0.750			
0.9198	58867.84	3.2470	3.2469	-0.1462	26.45	0.73	-0.750			
0.9202	58895.39	3.2440	3.2440	-0.1434	26.46	0.74	-0.750			
0.9207	58922.39	3.2410	3.2410	-0.1407	26.46	0.74	-0.750			
0.9211	58949.18	3.2380	3.2381	-0.1380	26.46	0.74	-0.750			
0.9215	58975.48	3.2350	3.2350	-0.1359	26.47	0.75	-0.750			
0.9219	59001.52	3.2320	3.2320	-0.1339	26.47	0.75	-0.750			
0.9223	59026.95	3.2290	3.2292	-0.1314	26.48	0.76	-0.750			
0.9227	59051.79	3.2260	3.2260	-0.1294	26.48	0.76	-0.750			
0.9231	59076.44	3.2230	3.2230	-0.1274	26.48	0.76	-0.750			
0.9234	59100.56	3.2200	3.2200	-0.1256	26.49	0.77	-0.750			
0.9238	59124.36	3.2170	3.2170	-0.1238	26.49	0.77	-0.750			
0.9242	59148.07	3.2140	3.2140	-0.1222	26.49	0.77	-0.750			
0.9246	59171.48	3.2110	3.2111	-0.1208	26.50	0.78	-0.750			
0.9249	59194.51	3.2080	3.2081	-0.1192	26.50	0.78	-0.750			
0.9253	59217.29	3.2050	3.2050	-0.1176	26.50	0.78	-0.750			
0.9256	59239.72	3.2020	3.2019	-0.1159	26.51	0.79	-0.750			
0.9260	59261.76	3.1990	3.1991	-0.1141	26.51	0.79	-0.750			
0.9263	59283.46	3.1960	3.1960	-0.1126	26.51	0.79	-0.750			
0.9266	59304.94	3.1930	3.1930	-0.1111	26.52	0.80	-0.750			
0.9270	59326.08	3.1900	3.1902	-0.1096	26.52	0.80	-0.750			
0.9273	59346.99	3.1870	3.1869	-0.1082	26.52	0.80	-0.750			
0.9276	59367.29	3.1840	3.1840	-0.1073	26.53	0.81	-0.750			
0.9279	59387.84	3.1810	3.1810	-0.1068	26.53	0.81	-0.750			
0.9283	59408.41	3.1780	3.1780	-0.1057	26.53	0.81	-0.750			
0.9286	59428.61	3.1750	3.1749	-0.1048	26.54	0.82	-0.750			
0.9289	59448.72	3.1720	3.1719	-0.1040	26.54	0.82	-0.750			
0.9292	59468.58	3.1690	3.1691	-0.1029	26.54	0.82	-0.750			
0.9295	59488.27	3.1660	3.1661	-0.1018	26.55	0.83	-0.750			
0.9298	59507.90	3.1630	3.1629	-0.1008	26.55	0.83	-0.750			
0.9301	59527.01	3.1600	3.1601	-0.1000	26.55	0.83	-0.750			
0.9304	59545.81	3.1570	3.1570	-0.0988	26.56	0.84	-0.750			
0.9307	59564.85	3.1540	3.1541	-0.0974	26.56	0.84	-0.750			
0.9310	59583.67	3.1510	3.1509	-0.0966	26.56	0.84	-0.750			
0.9313	59602.00	3.1480	3.1480	-0.0957	26.57	0.85	-0.750			
0.9316	59620.22	3.1450	3.1451	-0.0946	26.57	0.85	-0.750			
0.9318	59638.16	3.1420	3.1419	-0.0943	26.57	0.85	-0.750			
0.9321	59656.08	3.1390	3.1390	-0.0936	26.57	0.85	-0.750			
0.9324	59674.05	3.1360	3.1359	-0.0931	26.58	0.86	-0.750			
0.9327	59691.65	3.1330	3.1330	-0.0924	26.58	0.86	-0.750			
0.9330	59709.49	3.1300	3.1300	-0.0918	26.58	0.86	-0.750			
0.9332	59727.35	3.1270	3.1271	-0.0916	26.59	0.87	-0.750			
0.9335	59744.85	3.1240	3.1238	-0.0907	26.59	0.87	-0.750			
0.9338	59762.25	3.1210	3.1210	-0.0899	26.59	0.87	-0.750			
0.9341	59779.32	3.1180	3.1182	-0.0893	26.60	0.88	-0.750			
0.9343	59796.23	3.1150	3.1149	-0.0884	26.60	0.88	-0.750			
0.9346	59813.21	3.1120	3.1120	-0.0876	26.60	0.88	-0.750			
0.9348	59830.00	3.1090	3.1090	-0.0870	26.60	0.88	-0.750			
0.9351	59846.65	3.1060	3.1060	-0.0863	26.61	0.89	-0.750			
0.9354	59863.18	3.1030	3.1032	-0.0856	26.61	0.89	-0.750			
0.9356	59879.43	3.1000	3.0999	-0.0854	26.61	0.89	-0.750			
0.9359	59895.71	3.0970	3.0970	-0.0848	26.61	0.89	-0.750			
0.9361	59912.05	3.0940	3.0940	-0.0842	26.62	0.90	-0.750			
0.9364	59928.11	3.0910	3.0909	-0.0836	26.62	0.90	-0.750			
0.9366	59944.12	3.0880	3.0881	-0.0832	26.62	0.90	-0.750			
0.9369	59960.15	3.0850	3.0852	-0.0829	26.63	0.91	-0.750			
0.9371	59976.01	3.0820	3.0820	-0.0823	26.63	0.91	-0.750			
0.9374	59991.83	3.0790	3.0790	-0.0817	26.63	0.91	-0.750			
0.9376	60007.38	3.0760	3.0759	-0.0813	26.64	0.92	-0.750			
0.9379	60022.75	3.0730	3.0730	-0.0805	26.64	0.92	-0.750			
0.9381	60038.19	3.0700	3.0701	-0.0803	26.64	0.92	-0.750			
0.9383	60053.62	3.0670	3.0670	-0.0798	26.65	0.93	-0.750			
0.9386	60069.01	3.0640	3.0640	-0.0795	26.65	0.93	-0.750			
0.9388	60084.16	3.0610	3.0610	-0.0791	26.65	0.93	-0.750			
0.9391	60099.30	3.0580	3.0580	-0.0787	26.65	0.93	-0.750			
0.9393	60114.32	3.0550	3.0552	-0.0782	26.66	0.94	-0.750			
0.9395	60129.35	3.0520	3.0520	-0.0777	26.66	0.94	-0.750			
0.9398	60144.24	3.0490	3.0490	-0.0773	26.66	0.94	-0.750			
0.9400	60159.03	3.0460	3.0460	-0.0768	26.67	0.95	-0.750			
0.9402	60173.66	3.0430	3.0431	-0.0766	26.67	0.95	-0.750			
0.9404	60188.31	3.0400	3.0400	-0.0763	26.67	0.95	-0.750			
0.9407	60202.93	3.0370	3.0369	-0.0760	26.68	0.96	-0.750			
0.9409	60217.50	3.0340	3.0339	-0.0757	26.68	0.96	-0.750			
0.9411	60231.91	3.0310	3.0311	-0.0754	26.68	0.96	-0.750			
0.9414	60246.44	3.0280	3.0280	-0.0750	26.68	0.96	-0.750			
0.9416	60260.96	3.0250	3.0250	-0.0750	26.69	0.97	-0.750			
0.9418	60275.31	3.0220	3.0220	-0.0745	26.69	0.97	-0.750			
0.9420	60289.58	3.0190	3.0190	-0.0740	26.69	0.97	-0.750			
0.9422	60303.73	3.0160	3.0160	-0.0735	26.70	0.98	-0.750			
0.9425	60317.79	3.0130	3.0131	-0.0730	26.70	0.98	-0.750			
0.9427	60331.75	3.0100	3.0098	-0.0725	26.70	0.98	-0.750			
0.9429	60345.65	3.0070	3.0071	-0.0719	26.70	0.98	-0.751			
0.9431	60359.39	3.0040	3.0039	-0.0713	26.71	0.99	-0.751			
