Ah_balance (normalized)	Ah_balance (mAh)	Voltage - fit (V)	Voltage -  interpolate (V)	dQ/dV (1/V)	Temperature (°C)	Temperature - diff (°C)	Current (C)	R_DC 0ms (mOhm)	R_DC 50ms (mOhm)	R_DC 50 ms PEC (mOhm)
0.0498	3188.49	4.1980	4.1981	0.7724	26.23	0.24	0.750			
0.0521	3336.02	4.1950	4.1950	0.7690	26.23	0.24	0.750			
0.0544	3482.75	4.1920	4.1920	0.7704	26.23	0.24	0.750			
0.0567	3631.16	4.1890	4.1890	0.7743	26.23	0.24	0.750			
0.0591	3780.07	4.1860	4.1860	0.7752	26.23	0.24	0.750			
0.0614	3929.81	4.1830	4.1830	0.7807	26.23	0.24	0.750			
0.0638	4080.36	4.1800	4.1800	0.7817	26.23	0.24	0.750			
0.0661	4232.04	4.1770	4.1769	0.7815	26.23	0.24	0.750			
0.0685	4381.03	4.1740	4.1741	0.7803	26.23	0.24	0.750			
0.0708	4530.74	4.1710	4.1710	0.7792	26.23	0.24	0.750			
0.0731	4680.24	4.1680	4.1680	0.7817	26.23	0.24	0.750			
0.0755	4830.25	4.1650	4.1649	0.7842	26.23	0.24	0.750			
0.0778	4979.92	4.1620	4.1621	0.7867	26.23	0.24	0.750			
0.0802	5133.26	4.1590	4.1589	0.7902	26.23	0.24	0.750			
0.0826	5285.71	4.1560	4.1561	0.7894	26.23	0.24	0.750			
0.0849	5435.59	4.1530	4.1530	0.7906	26.23	0.24	0.750			
0.0873	5588.10	4.1500	4.1501	0.7916	26.23	0.24	0.750			
0.0897	5740.37	4.1470	4.1469	0.7894	26.23	0.24	0.750			
0.0921	5891.44	4.1440	4.1438	0.7923	26.23	0.24	0.750			
0.0944	6044.08	4.1410	4.1412	0.7934	26.23	0.24	0.750			
0.0969	6198.86	4.1380	4.1379	0.7867	26.23	0.24	0.750			
0.0992	6348.53	4.1350	4.1350	0.7961	26.22	0.23	0.750			
0.1016	6499.96	4.1320	4.1321	0.8021	26.22	0.23	0.750			
0.1040	6654.74	4.1290	4.1288	0.8061	26.22	0.23	0.750			
0.1064	6810.86	4.1260	4.1261	0.8044	26.22	0.23	0.750			
0.1088	6965.87	4.1230	4.1231	0.8040	26.22	0.23	0.750			
0.1113	7120.66	4.1200	4.1201	0.8078	26.23	0.24	0.750			
0.1137	7277.71	4.1170	4.1169	0.8094	26.23	0.24	0.750			
0.1161	7428.32	4.1140	4.1140	0.8040	26.23	0.24	0.750			
0.1185	7584.03	4.1110	4.1110	0.8086	26.23	0.24	0.750			
0.1210	7743.00	4.1080	4.1080	0.8095	26.23	0.24	0.750			
0.1234	7897.24	4.1050	4.1050	0.8145	26.23	0.24	0.750			
0.1258	8052.15	4.1020	4.1020	0.8175	26.23	0.24	0.750			
0.1283	8208.91	4.0990	4.0991	0.8209	26.23	0.24	0.750			
0.1307	8366.16	4.0960	4.0961	0.8279	26.23	0.24	0.750			
0.1332	8527.17	4.0930	4.0930	0.8260	26.23	0.24	0.750			
0.1357	8687.78	4.0900	4.0901	0.8286	26.23	0.24	0.750			
0.1382	8846.20	4.0870	4.0871	0.8303	26.22	0.23	0.750			
0.1407	9004.79	4.0840	4.0841	0.8267	26.22	0.23	0.750			
0.1432	9162.97	4.0810	4.0809	0.8332	26.22	0.23	0.750			
0.1457	9322.40	4.0780	4.0781	0.8366	26.22	0.23	0.750			
0.1482	9482.90	4.0750	4.0750	0.8459	26.22	0.23	0.750			
0.1508	9649.10	4.0720	4.0720	0.8505	26.23	0.24	0.750			
0.1533	9814.32	4.0690	4.0690	0.8485	26.23	0.24	0.750			
0.1559	9976.64	4.0660	4.0660	0.8498	26.23	0.24	0.750			
0.1585	10141.21	4.0630	4.0631	0.8477	26.23	0.24	0.750			
0.1610	10302.21	4.0600	4.0599	0.8449	26.23	0.24	0.750			
0.1635	10463.22	4.0570	4.0569	0.8475	26.23	0.24	0.750			
0.1660	10623.72	4.0540	4.0542	0.8513	26.23	0.24	0.750			
0.1686	10789.50	4.0510	4.0510	0.8590	26.23	0.24	0.750			
0.1712	10957.57	4.0480	4.0480	0.8619	26.23	0.24	0.750			
0.1738	11122.62	4.0450	4.0450	0.8639	26.23	0.24	0.750			
0.1764	11289.36	4.0420	4.0421	0.8702	26.23	0.24	0.750			
0.1790	11455.48	4.0390	4.0389	0.8694	26.23	0.24	0.750			
0.1816	11622.04	4.0360	4.0360	0.8733	26.23	0.24	0.750			
0.1842	11788.12	4.0330	4.0330	0.8756	26.23	0.24	0.750			
0.1868	11957.54	4.0300	4.0300	0.8834	26.23	0.24	0.750			
0.1895	12129.65	4.0270	4.0270	0.8870	26.23	0.24	0.750			
0.1922	12299.04	4.0240	4.0235	0.8871	26.23	0.24	0.750			
0.1949	12471.90	4.0210	4.0211	0.8829	26.23	0.24	0.750			
0.1975	12640.83	4.0180	4.0180	0.8886	26.24	0.25	0.750			
0.2002	12810.12	4.0150	4.0150	0.8915	26.24	0.25	0.750			
0.2028	12981.89	4.0120	4.0120	0.8950	26.25	0.26	0.750			
0.2055	13152.75	4.0090	4.0089	0.8976	26.25	0.26	0.750			
0.2082	13326.65	4.0060	4.0060	0.8994	26.25	0.26	0.750			
0.2109	13499.39	4.0030	4.0030	0.9051	26.25	0.26	0.750			
0.2136	13673.43	4.0000	4.0001	0.9138	26.26	0.27	0.750			
0.2164	13847.96	3.9970	3.9969	0.9090	26.26	0.27	0.750			
0.2192	14026.81	3.9940	3.9939	0.9074	26.26	0.27	0.750			
0.2219	14201.74	3.9910	3.9911	0.9101	26.26	0.27	0.750			
0.2246	14375.48	3.9880	3.9882	0.9130	26.27	0.28	0.750			
0.2274	14551.36	3.9850	3.9850	0.9143	26.27	0.28	0.750			
0.2301	14723.88	3.9820	3.9817	0.9134	26.27	0.28	0.750			
0.2328	14900.90	3.9790	3.9791	0.9137	26.27	0.28	0.750			
0.2356	15078.42	3.9760	3.9760	0.9302	26.27	0.28	0.750			
0.2384	15258.53	3.9730	3.9731	0.9299	26.27	0.28	0.750			
0.2412	15436.27	3.9700	3.9699	0.9291	26.27	0.28	0.750			
0.2440	15615.32	3.9670	3.9672	0.9317	26.27	0.28	0.750			
0.2468	15793.87	3.9640	3.9640	0.9375	26.27	0.28	0.750			
0.2496	15973.45	3.9610	3.9610	0.9428	26.27	0.28	0.750			
0.2524	16156.50	3.9580	3.9580	0.9497	26.27	0.28	0.750			
0.2553	16339.39	3.9550	3.9550	0.9498	26.27	0.28	0.750			
0.2582	16523.98	3.9520	3.9520	0.9474	26.28	0.29	0.750			
0.2610	16705.32	3.9490	3.9490	0.9443	26.28	0.29	0.750			
0.2638	16884.98	3.9460	3.9461	0.9500	26.28	0.29	0.750			
0.2667	17065.71	3.9430	3.9429	0.9501	26.29	0.30	0.750			
0.2695	17250.78	3.9400	3.9399	0.9476	26.29	0.30	0.750			
0.2724	17431.65	3.9370	3.9370	0.9586	26.29	0.30	0.750			
0.2753	17618.92	3.9340	3.9341	0.9666	26.30	0.31	0.750			
0.2782	17804.18	3.9310	3.9312	0.9714	26.30	0.31	0.750			
0.2811	17992.13	3.9280	3.9281	0.9612	26.30	0.31	0.750			
0.2840	18175.23	3.9250	3.9251	0.9626	26.30	0.31	0.750			
0.2869	18359.67	3.9220	3.9220	0.9652	26.31	0.32	0.750			
0.2898	18544.61	3.9190	3.9191	0.9680	26.31	0.32	0.750			
0.2927	18729.75	3.9160	3.9158	0.9641	26.31	0.32	0.750			
0.2956	18916.82	3.9130	3.9130	0.9657	26.31	0.32	0.750			
0.2984	19100.58	3.9100	3.9101	0.9700	26.31	0.32	0.750			
0.3014	19288.48	3.9070	3.9070	0.9828	26.31	0.32	0.750			
0.3043	19476.04	3.9040	3.9038	0.9841	26.31	0.32	0.750			
0.3073	19668.24	3.9010	3.9010	0.9820	26.31	0.32	0.750			
0.3102	19855.20	3.8980	3.8981	0.9936	26.31	0.32	0.750			
0.3133	20048.14	3.8950	3.8951	1.0032	26.31	0.32	0.750			
0.3163	20241.03	3.8920	3.8919	1.0019	26.31	0.32	0.750			
0.3193	20434.84	3.8890	3.8889	0.9998	26.31	0.32	0.750			
0.3223	20625.48	3.8860	3.8863	1.0055	26.31	0.32	0.750			
0.3253	20819.65	3.8830	3.8831	1.0155	26.32	0.33	0.750			
0.3284	21016.44	3.8800	3.8799	1.0159	26.32	0.33	0.750			
0.3314	21212.03	3.8770	3.8770	1.0166	26.32	0.33	0.750			
0.3345	21406.88	3.8740	3.8741	1.0273	26.33	0.34	0.750			
0.3376	21605.72	3.8710	3.8711	1.0352	26.33	0.34	0.750			
0.3407	21804.71	3.8680	3.8680	1.0491	26.34	0.35	0.750			
0.3439	22008.07	3.8650	3.8651	1.0375	26.34	0.35	0.750			
0.3470	22205.85	3.8620	3.8620	1.0469	26.34	0.35	0.750			
0.3501	22407.08	3.8590	3.8590	1.0607	26.33	0.34	0.750			
0.3533	22611.34	3.8560	3.8563	1.0705	26.33	0.34	0.750			
0.3565	22815.78	3.8530	3.8530	1.0791	26.33	0.34	0.750			
0.3598	23025.68	3.8500	3.8501	1.0916	26.33	0.34	0.750			
0.3631	23235.99	3.8470	3.8470	1.1061	26.32	0.33	0.750			
0.3665	23455.85	3.8440	3.8439	1.1234	26.32	0.33	0.750			
0.3698	23667.31	3.8410	3.8410	1.1201	26.32	0.33	0.750			
0.3732	23883.20	3.8380	3.8380	1.1307	26.31	0.32	0.750			
0.3766	24100.48	3.8350	3.8351	1.1472	26.31	0.32	0.750			
0.3800	24321.51	3.8320	3.8318	1.1569	26.30	0.31	0.750			
0.3835	24544.14	3.8290	3.8290	1.1789	26.30	0.31	0.750			
0.3870	24769.73	3.8260	3.8261	1.1977	26.29	0.30	0.750			
0.3907	25005.48	3.8230	3.8229	1.2159	26.29	0.30	0.750			
0.3944	25240.36	3.8200	3.8200	1.2389	26.29	0.30	0.750			
0.3981	25481.37	3.8170	3.8171	1.2576	26.28	0.29	0.750			
0.4020	25726.08	3.8140	3.8140	1.2691	26.27	0.28	0.750			
0.4058	25973.49	3.8110	3.8109	1.2843	26.27	0.28	0.750			
0.4097	26219.47	3.8080	3.8081	1.2902	26.26	0.27	0.750			
0.4135	26466.29	3.8050	3.8050	1.3063	26.26	0.27	0.750			
0.4175	26718.94	3.8020	3.8019	1.3176	26.25	0.26	0.750			
0.4214	26969.58	3.7990	3.7989	1.3308	26.24	0.25	0.750			
0.4254	27227.12	3.7960	3.7961	1.3559	26.22	0.23	0.750			
0.4295	27490.17	3.7930	3.7928	1.3721	26.21	0.22	0.750			
0.4337	27755.52	3.7900	3.7901	1.3979	26.20	0.21	0.750			
0.4379	28026.66	3.7870	3.7870	1.4199	26.20	0.21	0.750			
0.4422	28302.07	3.7840	3.7837	1.4185	26.19	0.20	0.750			
0.4465	28574.35	3.7810	3.7812	1.4253	26.18	0.19	0.750			
0.4508	28851.86	3.7780	3.7781	1.4285	26.18	0.19	0.750			
0.4551	29125.79	3.7750	3.7747	1.4390	26.17	0.18	0.750			
0.4593	29397.60	3.7720	3.7718	1.4525	26.16	0.17	0.750			
0.4637	29677.37	3.7690	3.7692	1.4821	26.14	0.15	0.750			
0.4683	29969.52	3.7660	3.7658	1.5089	26.13	0.14	0.750			
0.4728	30261.01	3.7630	3.7630	1.5331	26.12	0.13	0.750			
0.4775	30559.07	3.7600	3.7599	1.5472	26.11	0.12	0.750	0.335	0.395	
0.4822	30863.96	3.7570	3.7571	1.5688	26.10	0.11	0.750			
0.4869	31164.69	3.7540	3.7538	1.5914	26.09	0.10	0.750			
0.4917	31470.04	3.7510	3.7510	1.6280	26.07	0.08	0.750			
0.4966	31781.10	3.7480	3.7482	1.6694	26.06	0.07	0.750			
0.5017	32106.08	3.7450	3.7452	1.7061	26.04	0.05	0.750			
0.5069	32441.82	3.7420	3.7421	1.7293	26.03	0.04	0.750			
0.5121	32777.43	3.7390	3.7390	1.7748	26.02	0.03	0.750			
0.5176	33123.55	3.7360	3.7359	1.8212	26.01	0.02	0.750			
0.5230	33471.10	3.7330	3.7329	1.8502	25.99	0.00	0.750			
0.5286	33829.91	3.7300	3.7300	1.8942	25.97	-0.02	0.750			
0.5344	34199.19	3.7270	3.7272	1.9441	25.96	-0.03	0.750			
0.5403	34580.33	3.7240	3.7239	2.0000	25.94	-0.05	0.750			
0.5465	34973.38	3.7210	3.7209	2.0601	25.92	-0.07	0.750			
0.5526	35364.98	3.7180	3.7179	2.1321	25.91	-0.08	0.750			
0.5591	35779.72	3.7150	3.7150	2.1997	25.90	-0.09	0.750			
0.5659	36215.80	3.7120	3.7119	2.2480	25.87	-0.12	0.750			
0.5727	36654.33	3.7090	3.7092	2.3288	25.85	-0.14	0.750			
0.5798	37110.13	3.7060	3.7060	2.3898	25.83	-0.16	0.750			
0.5871	37574.66	3.7030	3.7028	2.4627	25.82	-0.17	0.750			
0.5945	38050.28	3.7000	3.7001	2.5231	25.80	-0.19	0.750			
0.6022	38541.76	3.6970	3.6969	2.5825	25.78	-0.21	0.750			
0.6101	39047.89	3.6940	3.6941	2.6586	25.77	-0.22	0.750			
0.6181	39555.44	3.6910	3.6910	2.7137	25.76	-0.23	0.750			
0.6263	40082.99	3.6880	3.6879	2.8224	25.74	-0.25	0.750			
0.6347	40622.84	3.6850	3.6850	2.9474	25.72	-0.27	0.750			
0.6439	41207.01	3.6820	3.6819	3.1211	25.70	-0.29	0.750			
0.6536	41830.85	3.6790	3.6790	3.2547	25.68	-0.31	0.750			
0.6637	42477.92	3.6760	3.6761	3.3762	25.67	-0.32	0.750			
0.6740	43134.64	3.6730	3.6731	3.4172	25.66	-0.33	0.750			
0.6842	43789.40	3.6700	3.6700	3.4628	25.65	-0.34	0.750			
0.6947	44463.58	3.6670	3.6670	3.4337	25.64	-0.35	0.750			
0.7053	45141.63	3.6640	3.6642	3.3597	25.64	-0.35	0.750			
0.7154	45783.29	3.6610	3.6611	3.1013	25.63	-0.36	0.750			
0.7243	46355.20	3.6580	3.6581	2.8057	25.64	-0.35	0.750			
0.7318	46838.38	3.6550	3.6552	2.4704	25.64	-0.35	0.750			
0.7388	47280.82	3.6520	3.6519	2.2103	25.64	-0.35	0.750			
0.7448	47666.34	3.6490	3.6490	1.9649	25.64	-0.35	0.750			
0.7502	48013.07	3.6460	3.6460	1.7634	25.65	-0.34	0.750			
0.7552	48335.08	3.6430	3.6429	1.6122	25.66	-0.33	0.750			
0.7598	48624.23	3.6400	3.6401	1.4932	25.66	-0.33	0.750			
0.7639	48889.76	3.6370	3.6370	1.3773	25.66	-0.33	0.750			
0.7677	49133.79	3.6340	3.6341	1.3019	25.66	-0.33	0.750			
0.7714	49371.80	3.6310	3.6310	1.2487	25.66	-0.33	0.750			
0.7751	49603.20	3.6280	3.6281	1.2313	25.66	-0.33	0.750			
0.7787	49839.09	3.6250	3.6249	1.2274	25.66	-0.33	0.750			
0.7824	50070.52	3.6220	3.6220	1.2338	25.66	-0.33	0.750			
0.7861	50308.11	3.6190	3.6190	1.2411	25.67	-0.32	0.750			
0.7898	50549.82	3.6160	3.6160	1.2558	25.68	-0.31	0.750			
0.7937	50793.79	3.6130	3.6131	1.2467	25.68	-0.31	0.750			
0.7974	51033.26	3.6100	3.6100	1.2396	25.68	-0.31	0.750			
0.8011	51271.73	3.6070	3.6071	1.2250	25.68	-0.31	0.750			
0.8048	51506.26	3.6040	3.6037	1.2150	25.68	-0.31	0.750			
0.8084	51734.72	3.6010	3.6011	1.2043	25.68	-0.31	0.750			
0.8120	51965.21	3.5980	3.5980	1.2044	25.68	-0.31	0.750			
0.8155	52194.91	3.5950	3.5949	1.2087	25.68	-0.31	0.750			
0.8192	52425.70	3.5920	3.5921	1.2360	25.68	-0.31	0.750			
0.8228	52657.66	3.5890	3.5890	1.2521	25.69	-0.30	0.750			
0.8266	52903.89	3.5860	3.5859	1.2788	25.70	-0.29	0.750			
0.8304	53148.67	3.5830	3.5829	1.3234	25.70	-0.29	0.750			
0.8345	53407.99	3.5800	3.5801	1.3632	25.70	-0.29	0.750			
0.8387	53676.22	3.5770	3.5770	1.4084	25.69	-0.30	0.750			
0.8430	53950.36	3.5740	3.5740	1.4550	25.69	-0.30	0.750			
0.8474	54233.45	3.5710	3.5710	1.4799	25.69	-0.30	0.750			
0.8519	54523.15	3.5680	3.5681	1.5149	25.70	-0.29	0.750			
0.8565	54815.71	3.5650	3.5652	1.5454	25.70	-0.29	0.750			
0.8612	55115.40	3.5620	3.5617	1.5585	25.70	-0.29	0.750			
0.8660	55421.06	3.5590	3.5590	1.5882	25.70	-0.29	0.750			
0.8708	55728.16	3.5560	3.5558	1.5999	25.70	-0.29	0.750			
0.8756	56040.52	3.5530	3.5532	1.6069	25.71	-0.28	0.750			
0.8804	56347.88	3.5500	3.5500	1.6083	25.71	-0.28	0.750			
0.8852	56654.92	3.5470	3.5470	1.6253	25.71	-0.28	0.750			
0.8901	56967.63	3.5440	3.5440	1.6293	25.72	-0.27	0.750			
0.8950	57281.98	3.5410	3.5411	1.6713	25.73	-0.26	0.750			
0.9000	57598.89	3.5380	3.5381	1.7264	25.74	-0.25	0.750			
0.9055	57949.71	3.5350	3.5349	1.7376	25.75	-0.24	0.750			
0.9111	58307.45	3.5320	3.5318	1.6889	25.76	-0.23	0.750			
0.9163	58644.37	3.5290	3.5290	1.4884	25.77	-0.22	0.750			
0.9209	58939.36	3.5260	3.5266	1.2822	25.79	-0.20	0.750			
0.9247	59179.73	3.5230	3.5233	1.0452	25.80	-0.19	0.750			
0.9268	59317.70	3.5200	3.5198	0.7740	25.81	-0.18	0.750			
0.9284	59415.66	3.5170	3.5168	0.5486	25.81	-0.18	0.750			
0.9296	59494.11	3.5140	3.5138	0.4498	25.82	-0.17	0.750			
0.9307	59564.27	3.5110	3.5109	0.3823	25.83	-0.16	0.750			
0.9317	59629.97	3.5080	3.5080	0.3492	25.83	-0.16	0.750			
0.9327	59692.03	3.5050	3.5050	0.3255	25.84	-0.15	0.750			
0.9336	59751.39	3.5020	3.5021	0.3088	25.85	-0.14	0.750			
0.9345	59808.72	3.4990	3.4989	0.2977	25.85	-0.14	0.750			
0.9354	59864.41	3.4960	3.4960	0.2886	25.86	-0.13	0.750			
0.9362	59919.16	3.4930	3.4930	0.2816	25.87	-0.12	0.750			
0.9371	59972.82	3.4900	3.4900	0.2755	25.87	-0.12	0.750			
0.9379	60024.53	3.4870	3.4869	0.2690	25.88	-0.11	0.750			
0.9387	60075.08	3.4840	3.4840	0.2625	25.88	-0.11	0.750			
0.9395	60125.11	3.4810	3.4810	0.2569	25.89	-0.10	0.750			
0.9402	60173.73	3.4780	3.4779	0.2525	25.90	-0.09	0.750			
0.9410	60222.05	3.4750	3.4751	0.2475	25.90	-0.09	0.750			
0.9417	60268.95	3.4720	3.4720	0.2420	25.91	-0.08	0.750			
0.9424	60315.10	3.4690	3.4689	0.2372	25.91	-0.08	0.750			
0.9431	60359.84	3.4660	3.4661	0.2330	25.92	-0.07	0.750			
0.9438	60403.71	3.4630	3.4631	0.2283	25.92	-0.07	0.750			
0.9445	60447.33	3.4600	3.4599	0.2248	25.92	-0.07	0.750			
0.9452	60490.27	3.4570	3.4569	0.2201	25.93	-0.06	0.750			
0.9458	60531.62	3.4540	3.4541	0.2159	25.93	-0.06	0.750			
0.9465	60573.45	3.4510	3.4511	0.2129	25.94	-0.05	0.750			
0.9471	60613.87	3.4480	3.4479	0.2080	25.94	-0.05	0.750			
0.9477	60653.53	3.4450	3.4449	0.2026	25.95	-0.04	0.750			
0.9483	60691.74	3.4420	3.4420	0.1973	25.95	-0.04	0.750			
0.9489	60729.26	3.4390	3.4390	0.1924	25.95	-0.04	0.750			
0.9495	60765.56	3.4360	3.4361	0.1881	25.96	-0.03	0.750			
0.9500	60801.19	3.4330	3.4329	0.1838	25.96	-0.03	0.750			
0.9506	60835.73	3.4300	3.4300	0.1781	25.96	-0.03	0.750			
0.9511	60869.56	3.4270	3.4271	0.1742	25.97	-0.02	0.750			
0.9516	60902.96	3.4240	3.4240	0.1698	25.97	-0.02	0.750			
0.9521	60935.32	3.4210	3.4210	0.1651	25.97	-0.02	0.750			
0.9526	60966.61	3.4180	3.4179	0.1597	25.98	-0.01	0.750			
0.9531	60996.75	3.4150	3.4150	0.1542	25.98	-0.01	0.750			
0.9535	61025.73	3.4120	3.4121	0.1488	25.98	-0.01	0.750			
0.9540	61053.91	3.4090	3.4090	0.1432	25.99	-0.00	0.750			
0.9544	61081.01	3.4060	3.4062	0.1378	25.99	-0.00	0.750			
0.9548	61106.86	3.4030	3.4030	0.1321	25.99	0.00	0.750			
0.9552	61131.62	3.4000	3.4000	0.1263	25.99	0.00	0.750			
0.9556	61155.64	3.3970	3.3968	0.1198	26.00	0.01	0.750			
0.9559	61178.26	3.3940	3.3942	0.1138	26.00	0.01	0.750			
0.9563	61200.98	3.3910	3.3907	0.1043	26.00	0.01	0.750			
0.9566	61220.49	3.3880	3.3880	0.0964	26.00	0.01	0.750			
0.9568	61238.04	3.3850	3.3852	0.0864	26.00	0.01	0.750			
0.9571	61254.82	3.3820	3.3821	0.0780	26.01	0.02	0.750			
0.9573	61268.70	3.3790	3.3792	0.0667	26.01	0.02	0.750			
0.9575	61281.12	3.3760	3.3762	0.0554	26.01	0.02	0.750			
0.9577	61290.59	3.3730	3.3737	0.0433	26.01	0.02	0.750			
0.9578	61297.74	3.3700	3.3714	0.0311	26.01	0.02	0.750			
0.9579	61302.55	3.3670	3.3691	0.0190	26.01	0.02	0.750			
