Ah_balance (normalized)	Ah_balance (mAh)	Voltage - fit (V)	Voltage -  interpolate (V)	dQ/dV (1/V)	Temperature (°C)	Temperature - diff (°C)	Current (C)	R_DC 0ms (mOhm)	R_DC 50ms (mOhm)	R_DC 50 ms PEC (mOhm)
0.0530	3389.19	4.1990	4.1989	0.8085	26.72	0.75	0.750			
0.0553	3541.61	4.1960	4.1960	0.7847	26.72	0.75	0.750			
0.0577	3692.75	4.1930	4.1930	0.7732	26.72	0.75	0.750			
0.0599	3836.77	4.1900	4.1901	0.7630	26.71	0.74	0.750			
0.0622	3981.06	4.1870	4.1870	0.7565	26.71	0.74	0.750			
0.0645	4126.14	4.1840	4.1839	0.7535	26.71	0.74	0.750			
0.0667	4269.07	4.1810	4.1810	0.7550	26.71	0.74	0.750			
0.0690	4414.85	4.1780	4.1781	0.7565	26.71	0.74	0.750			
0.0712	4559.96	4.1750	4.1750	0.7592	26.71	0.74	0.750			
0.0736	4707.30	4.1720	4.1719	0.7653	26.71	0.74	0.750			
0.0758	4852.59	4.1690	4.1691	0.7644	26.71	0.74	0.750			
0.0781	5000.14	4.1660	4.1660	0.7666	26.71	0.74	0.750			
0.0804	5148.42	4.1630	4.1630	0.7677	26.71	0.74	0.750			
0.0827	5295.78	4.1600	4.1600	0.7629	26.71	0.74	0.750			
0.0850	5442.26	4.1570	4.1570	0.7687	26.72	0.75	0.750			
0.0873	5589.58	4.1540	4.1540	0.7659	26.72	0.75	0.750			
0.0896	5736.28	4.1510	4.1509	0.7687	26.72	0.75	0.750			
0.0919	5884.01	4.1480	4.1481	0.7707	26.72	0.75	0.750			
0.0943	6034.78	4.1450	4.1450	0.7672	26.71	0.74	0.750			
0.0966	6179.78	4.1420	4.1420	0.7720	26.71	0.74	0.750			
0.0989	6327.56	4.1390	4.1391	0.7768	26.71	0.74	0.750			
0.1012	6476.03	4.1360	4.1361	0.7753	26.70	0.73	0.750			
0.1035	6625.41	4.1330	4.1328	0.7835	26.70	0.73	0.750			
0.1059	6776.12	4.1300	4.1302	0.7853	26.70	0.73	0.750			
0.1083	6929.34	4.1270	4.1270	0.7860	26.70	0.73	0.750			
0.1106	7081.58	4.1240	4.1240	0.7832	26.71	0.74	0.750			
0.1130	7230.81	4.1210	4.1211	0.7796	26.71	0.74	0.750			
0.1153	7377.96	4.1180	4.1179	0.7877	26.71	0.74	0.750			
0.1177	7531.64	4.1150	4.1149	0.7875	26.71	0.74	0.750			
0.1200	7683.17	4.1120	4.1120	0.7778	26.71	0.74	0.750			
0.1224	7833.82	4.1090	4.1090	0.7787	26.71	0.74	0.750			
0.1247	7982.79	4.1060	4.1061	0.7759	26.71	0.74	0.750			
0.1270	8128.81	4.1030	4.1029	0.7824	26.71	0.74	0.750			
0.1293	8277.35	4.1000	4.0999	0.7856	26.71	0.74	0.750			
0.1317	8429.53	4.0970	4.0970	0.7785	26.71	0.74	0.750			
0.1341	8582.39	4.0940	4.0942	0.7910	26.72	0.75	0.750			
0.1365	8737.43	4.0910	4.0911	0.7968	26.72	0.75	0.750			
0.1389	8887.65	4.0880	4.0881	0.7967	26.72	0.75	0.750			
0.1412	9038.69	4.0850	4.0850	0.7971	26.72	0.75	0.750			
0.1436	9192.09	4.0820	4.0820	0.7956	26.72	0.75	0.750			
0.1460	9346.45	4.0790	4.0790	0.8038	26.72	0.75	0.750			
0.1485	9501.64	4.0760	4.0761	0.8147	26.72	0.75	0.750			
0.1509	9658.06	4.0730	4.0730	0.8148	26.72	0.75	0.750			
0.1534	9816.07	4.0700	4.0698	0.8165	26.72	0.75	0.750			
0.1558	9973.31	4.0670	4.0672	0.8158	26.72	0.75	0.750			
0.1583	10129.60	4.0640	4.0641	0.8131	26.72	0.75	0.750			
0.1607	10283.98	4.0610	4.0610	0.8183	26.72	0.75	0.750			
0.1631	10439.64	4.0580	4.0581	0.8161	26.72	0.75	0.750			
0.1656	10595.51	4.0550	4.0546	0.8237	26.72	0.75	0.750			
0.1681	10757.21	4.0520	4.0521	0.8279	26.72	0.75	0.750			
0.1706	10917.44	4.0490	4.0491	0.8317	26.72	0.75	0.750			
0.1731	11079.71	4.0460	4.0459	0.8369	26.72	0.75	0.750			
0.1756	11237.83	4.0430	4.0430	0.8319	26.72	0.75	0.750			
0.1781	11397.35	4.0400	4.0399	0.8301	26.72	0.75	0.750			
0.1806	11558.35	4.0370	4.0370	0.8349	26.72	0.75	0.750			
0.1831	11718.64	4.0340	4.0341	0.8370	26.73	0.76	0.750			
0.1856	11880.85	4.0310	4.0310	0.8409	26.73	0.76	0.750			
0.1882	12041.63	4.0280	4.0280	0.8421	26.74	0.77	0.750			
0.1907	12202.74	4.0250	4.0250	0.8440	26.74	0.77	0.750			
0.1932	12364.63	4.0220	4.0220	0.8529	26.74	0.77	0.750			
0.1958	12530.28	4.0190	4.0190	0.8529	26.74	0.77	0.750			
0.1983	12691.56	4.0160	4.0160	0.8581	26.74	0.77	0.750			
0.2009	12855.16	4.0130	4.0131	0.8682	26.74	0.77	0.750			
0.2035	13024.52	4.0100	4.0102	0.8716	26.74	0.77	0.750			
0.2062	13193.82	4.0070	4.0070	0.8707	26.74	0.77	0.750			
0.2088	13362.61	4.0040	4.0041	0.8721	26.74	0.77	0.750			
0.2114	13529.98	4.0010	4.0011	0.8706	26.74	0.77	0.750			
0.2140	13696.19	3.9980	3.9980	0.8651	26.74	0.77	0.750			
0.2166	13860.62	3.9950	3.9949	0.8653	26.74	0.77	0.750			
0.2191	14024.85	3.9920	3.9921	0.8643	26.74	0.77	0.750			
0.2218	14193.71	3.9890	3.9890	0.8709	26.75	0.78	0.750			
0.2244	14362.04	3.9860	3.9859	0.8784	26.75	0.78	0.750			
0.2270	14529.59	3.9830	3.9830	0.8809	26.75	0.78	0.750			
0.2297	14697.72	3.9800	3.9800	0.8865	26.75	0.78	0.750			
0.2324	14870.82	3.9770	3.9769	0.8830	26.75	0.78	0.750			
0.2350	15039.38	3.9740	3.9741	0.8880	26.75	0.78	0.750			
0.2377	15211.37	3.9710	3.9710	0.8898	26.75	0.78	0.750			
0.2403	15381.73	3.9680	3.9676	0.8898	26.75	0.78	0.750			
0.2430	15551.96	3.9650	3.9650	0.8855	26.75	0.78	0.750			
0.2456	15721.26	3.9620	3.9621	0.8910	26.75	0.78	0.750			
0.2483	15893.29	3.9590	3.9590	0.8963	26.75	0.78	0.750			
0.2511	16068.18	3.9560	3.9560	0.9000	26.75	0.78	0.750			
0.2537	16238.69	3.9530	3.9531	0.8928	26.75	0.78	0.750			
0.2564	16412.73	3.9500	3.9500	0.8906	26.75	0.78	0.750			
0.2591	16582.63	3.9470	3.9470	0.8914	26.75	0.78	0.750			
0.2618	16753.09	3.9440	3.9440	0.8928	26.75	0.78	0.750			
0.2644	16922.25	3.9410	3.9409	0.8920	26.75	0.78	0.750			
0.2671	17094.37	3.9380	3.9380	0.8965	26.75	0.78	0.750			
0.2698	17267.62	3.9350	3.9350	0.8944	26.75	0.78	0.750			
0.2725	17438.74	3.9320	3.9321	0.8994	26.74	0.77	0.750			
0.2752	17613.23	3.9290	3.9290	0.9013	26.74	0.77	0.750			
0.2779	17784.52	3.9260	3.9256	0.9011	26.74	0.77	0.750			
0.2806	17958.17	3.9230	3.9231	0.8977	26.74	0.77	0.750			
0.2833	18130.31	3.9200	3.9201	0.9048	26.73	0.76	0.750			
0.2860	18306.12	3.9170	3.9170	0.9114	26.73	0.76	0.750			
0.2887	18478.37	3.9140	3.9140	0.9063	26.72	0.75	0.750			
0.2915	18653.64	3.9110	3.9110	0.9159	26.72	0.75	0.750			
0.2942	18831.79	3.9080	3.9080	0.9168	26.71	0.74	0.750			
0.2970	19006.78	3.9050	3.9050	0.9196	26.71	0.74	0.750			
0.2998	19184.21	3.9020	3.9022	0.9292	26.70	0.73	0.750			
0.3025	19361.91	3.8990	3.8988	0.9254	26.70	0.73	0.750			
0.3054	19542.81	3.8960	3.8960	0.9240	26.70	0.73	0.750			
0.3081	19718.12	3.8930	3.8930	0.9340	26.69	0.72	0.750			
0.3109	19896.79	3.8900	3.8901	0.9429	26.69	0.72	0.750			
0.3137	20079.19	3.8870	3.8870	0.9432	26.68	0.71	0.750			
0.3166	20260.76	3.8840	3.8840	0.9503	26.68	0.71	0.750			
0.3194	20442.83	3.8810	3.8812	0.9511	26.67	0.70	0.750			
0.3223	20627.55	3.8780	3.8781	0.9616	26.67	0.70	0.750			
0.3252	20812.31	3.8750	3.8750	0.9662	26.66	0.69	0.750			
0.3281	20995.84	3.8720	3.8716	0.9657	26.66	0.69	0.750			
0.3310	21183.01	3.8690	3.8692	0.9643	26.65	0.68	0.750			
0.3339	21367.54	3.8660	3.8661	0.9787	26.64	0.67	0.750			
0.3368	21557.86	3.8630	3.8631	0.9839	26.63	0.66	0.750			
0.3398	21744.95	3.8600	3.8597	0.9805	26.62	0.65	0.750			
0.3428	21936.57	3.8570	3.8571	0.9858	26.61	0.64	0.750			
0.3457	22127.19	3.8540	3.8541	0.9924	26.61	0.64	0.750			
0.3487	22319.21	3.8510	3.8510	0.9979	26.60	0.63	0.750			
0.3517	22510.55	3.8480	3.8480	0.9918	26.59	0.62	0.750			
0.3547	22701.58	3.8450	3.8450	0.9862	26.58	0.61	0.750			
0.3577	22891.59	3.8420	3.8420	0.9990	26.57	0.60	0.750			
0.3607	23082.79	3.8390	3.8391	1.0010	26.56	0.59	0.750			
0.3637	23274.69	3.8360	3.8359	1.0009	26.55	0.58	0.750			
0.3667	23468.20	3.8330	3.8331	1.0072	26.54	0.57	0.750			
0.3697	23662.12	3.8300	3.8300	1.0086	26.53	0.56	0.750			
0.3728	23856.33	3.8270	3.8270	1.0163	26.53	0.56	0.750			
0.3758	24052.02	3.8240	3.8240	1.0119	26.52	0.55	0.750			
0.3789	24248.51	3.8210	3.8210	1.0155	26.51	0.54	0.750			
0.3819	24442.83	3.8180	3.8181	1.0250	26.50	0.53	0.750			
0.3850	24639.48	3.8150	3.8150	1.0362	26.49	0.52	0.750			
0.3881	24839.27	3.8120	3.8120	1.0431	26.47	0.50	0.750			
0.3913	25042.99	3.8090	3.8089	1.0459	26.46	0.49	0.750			
0.3944	25241.74	3.8060	3.8061	1.0576	26.45	0.48	0.750			
0.3976	25446.66	3.8030	3.8030	1.0721	26.44	0.47	0.750			
0.4008	25653.33	3.8000	3.8001	1.0805	26.43	0.46	0.750			
0.4041	25862.58	3.7970	3.7969	1.0737	26.42	0.45	0.750			
0.4073	26069.05	3.7940	3.7941	1.0979	26.41	0.44	0.750			
0.4106	26280.49	3.7910	3.7911	1.1201	26.39	0.42	0.750			
0.4140	26496.86	3.7880	3.7878	1.1377	26.38	0.41	0.750			
0.4174	26715.48	3.7850	3.7852	1.1456	26.37	0.40	0.750			
0.4209	26937.51	3.7820	3.7820	1.1655	26.36	0.39	0.750			
0.4244	27164.64	3.7790	3.7791	1.1852	26.35	0.38	0.750			
0.4281	27397.81	3.7760	3.7759	1.1953	26.34	0.37	0.750			
0.4316	27622.21	3.7730	3.7731	1.2152	26.32	0.35	0.750			
0.4352	27854.16	3.7700	3.7701	1.2562	26.31	0.34	0.750			
0.4390	28098.37	3.7670	3.7669	1.2872	26.29	0.32	0.750			
0.4430	28351.48	3.7640	3.7642	1.3143	26.28	0.31	0.750	0.301	0.412	
0.4470	28605.97	3.7610	3.7613	1.3516	26.27	0.30	0.750			
0.4511	28872.13	3.7580	3.7580	1.3713	26.26	0.29	0.750			
0.4553	29142.21	3.7550	3.7549	1.4082	26.24	0.27	0.750			
0.4595	29405.64	3.7520	3.7522	1.4234	26.22	0.25	0.750			
0.4638	29685.68	3.7490	3.7489	1.4382	26.20	0.23	0.750			
0.4682	29966.98	3.7460	3.7461	1.4784	26.18	0.21	0.750			
0.4727	30252.80	3.7430	3.7430	1.5102	26.17	0.20	0.750			
0.4772	30539.97	3.7400	3.7400	1.5495	26.15	0.18	0.750			
0.4819	30838.49	3.7370	3.7372	1.5944	26.14	0.17	0.750			
0.4867	31150.02	3.7340	3.7342	1.6478	26.12	0.15	0.750			
0.4918	31473.31	3.7310	3.7310	1.6960	26.11	0.14	0.750			
0.4969	31803.69	3.7280	3.7279	1.7803	26.09	0.12	0.750			
0.5023	32147.69	3.7250	3.7248	1.8190	26.07	0.10	0.750			
0.5079	32505.53	3.7220	3.7221	1.8440	26.05	0.08	0.750			
0.5135	32864.41	3.7190	3.7191	1.8971	26.04	0.07	0.750			
0.5193	33236.44	3.7160	3.7159	1.9414	26.02	0.05	0.750			
0.5252	33613.30	3.7130	3.7124	1.9894	26.00	0.03	0.750			
0.5312	33998.85	3.7100	3.7104	2.0350	25.98	0.01	0.750			
0.5374	34393.84	3.7070	3.7070	2.1214	25.97	-0.00	0.750			
0.5438	34801.59	3.7040	3.7041	2.1618	25.95	-0.02	0.750			
0.5503	35220.60	3.7010	3.7008	2.2314	25.94	-0.03	0.750			
0.5573	35664.68	3.6980	3.6981	2.2998	25.92	-0.05	0.750			
0.5642	36111.70	3.6950	3.6950	2.3602	25.89	-0.08	0.750			
0.5714	36570.65	3.6920	3.6922	2.4401	25.88	-0.09	0.750			
0.5787	37038.08	3.6890	3.6889	2.5187	25.87	-0.10	0.750			
0.5864	37532.01	3.6860	3.6860	2.6216	25.84	-0.13	0.750			
0.5944	38042.23	3.6830	3.6831	2.7254	25.82	-0.15	0.750			
0.6029	38585.72	3.6800	3.6800	2.8140	25.81	-0.16	0.750			
0.6114	39129.85	3.6770	3.6770	2.8830	25.80	-0.17	0.750			
0.6203	39698.58	3.6740	3.6741	2.9572	25.79	-0.18	0.750			
0.6293	40274.11	3.6710	3.6710	2.9418	25.78	-0.19	0.750			
0.6382	40845.86	3.6680	3.6681	2.8213	25.77	-0.20	0.750			
0.6468	41392.80	3.6650	3.6649	2.6404	25.77	-0.20	0.750			
0.6541	41864.18	3.6620	3.6620	2.3628	25.77	-0.20	0.750			
0.6607	42287.75	3.6590	3.6592	2.1364	25.77	-0.20	0.750			
0.6666	42663.72	3.6560	3.6560	1.9384	25.77	-0.20	0.750			
0.6720	43005.46	3.6530	3.6529	1.7631	25.77	-0.20	0.750			
0.6770	43325.28	3.6500	3.6499	1.6206	25.77	-0.20	0.750			
0.6815	43618.04	3.6470	3.6471	1.5060	25.77	-0.20	0.750			
0.6860	43901.28	3.6440	3.6440	1.4176	25.77	-0.20	0.750			
0.6900	44157.03	3.6410	3.6407	1.3166	25.77	-0.20	0.750			
0.6937	44396.22	3.6380	3.6381	1.2497	25.77	-0.20	0.750			
0.6973	44626.35	3.6350	3.6350	1.2151	25.77	-0.20	0.750			
0.7008	44850.17	3.6320	3.6321	1.1893	25.77	-0.20	0.750			
0.7043	45073.47	3.6290	3.6291	1.1810	25.77	-0.20	0.750			
0.7078	45299.13	3.6260	3.6261	1.1892	25.77	-0.20	0.750			
0.7114	45527.33	3.6230	3.6230	1.2013	25.77	-0.20	0.750			
0.7150	45762.30	3.6200	3.6198	1.2114	25.77	-0.20	0.750			
0.7187	45998.17	3.6170	3.6170	1.2092	25.77	-0.20	0.750			
0.7224	46234.37	3.6140	3.6140	1.1972	25.77	-0.20	0.750			
0.7260	46465.77	3.6110	3.6111	1.1840	25.77	-0.20	0.750			
0.7296	46692.86	3.6080	3.6080	1.1537	25.77	-0.20	0.750			
0.7329	46906.72	3.6050	3.6050	1.1420	25.77	-0.20	0.750			
0.7363	47120.65	3.6020	3.6021	1.1389	25.78	-0.19	0.750			
0.7396	47336.19	3.5990	3.5988	1.1447	25.78	-0.19	0.750			
0.7430	47554.37	3.5960	3.5961	1.1624	25.78	-0.19	0.750			
0.7466	47780.51	3.5930	3.5931	1.1918	25.77	-0.20	0.750			
0.7502	48013.91	3.5900	3.5900	1.2210	25.77	-0.20	0.750			
0.7539	48248.90	3.5870	3.5870	1.2529	25.77	-0.20	0.750			
0.7576	48489.55	3.5840	3.5840	1.2931	25.77	-0.20	0.750			
0.7616	48742.91	3.5810	3.5810	1.3324	25.77	-0.20	0.750			
0.7656	49001.51	3.5780	3.5779	1.3799	25.77	-0.20	0.750			
0.7698	49267.74	3.5750	3.5751	1.4251	25.77	-0.20	0.750			
0.7742	49546.50	3.5720	3.5721	1.4765	25.76	-0.21	0.750			
0.7788	49841.90	3.5690	3.5686	1.5315	25.76	-0.21	0.750			
0.7834	50140.61	3.5660	3.5659	1.5753	25.76	-0.21	0.750			
0.7883	50451.52	3.5630	3.5631	1.6062	25.76	-0.21	0.750			
0.7932	50767.53	3.5600	3.5603	1.6253	25.76	-0.21	0.750			
0.7982	51082.24	3.5570	3.5568	1.6282	25.75	-0.22	0.750			
0.8031	51397.34	3.5540	3.5538	1.6482	25.75	-0.22	0.750			
0.8079	51705.29	3.5510	3.5512	1.6518	25.75	-0.22	0.750			
0.8130	52033.88	3.5480	3.5481	1.6815	25.76	-0.21	0.750			
0.8181	52357.17	3.5450	3.5451	1.6984	25.76	-0.21	0.750			
0.8231	52679.93	3.5420	3.5421	1.7338	25.75	-0.22	0.750			
0.8284	53016.72	3.5390	3.5392	1.7709	25.75	-0.22	0.750			
0.8339	53366.88	3.5360	3.5358	1.7724	25.76	-0.21	0.750			
0.8396	53732.19	3.5330	3.5327	1.6264	25.78	-0.19	0.750			
0.8447	54061.51	3.5300	3.5302	1.4741	25.79	-0.18	0.750			
0.8493	54355.88	3.5270	3.5276	1.2662	25.81	-0.16	0.750			
0.8526	54566.40	3.5240	3.5240	0.9756	25.82	-0.15	0.750			
0.8547	54697.64	3.5210	3.5208	0.7166	25.83	-0.14	0.750			
0.8563	54800.74	3.5180	3.5174	0.5435	25.84	-0.13	0.750			
0.8573	54864.44	3.5150	3.5149	0.4292	25.85	-0.12	0.750			
0.8584	54935.53	3.5120	3.5119	0.3748	25.85	-0.12	0.750			
0.8594	55000.15	3.5090	3.5090	0.3445	25.86	-0.11	0.750			
0.8604	55063.13	3.5060	3.5061	0.3246	25.86	-0.11	0.750			
0.8613	55122.70	3.5030	3.5029	0.3086	25.87	-0.10	0.750			
0.8622	55180.20	3.5000	3.5000	0.2962	25.87	-0.10	0.750			
0.8630	55234.99	3.4970	3.4970	0.2861	25.88	-0.09	0.750			
0.8639	55288.47	3.4940	3.4941	0.2816	25.88	-0.09	0.750			
0.8647	55342.05	3.4910	3.4909	0.2762	25.89	-0.08	0.750			
0.8655	55394.26	3.4880	3.4880	0.2699	25.89	-0.08	0.750			
0.8664	55446.46	3.4850	3.4849	0.2649	25.90	-0.07	0.750			
0.8671	55497.14	3.4820	3.4821	0.2593	25.90	-0.07	0.750			
0.8679	55546.97	3.4790	3.4789	0.2529	25.91	-0.06	0.750			
0.8687	55593.82	3.4760	3.4760	0.2467	25.91	-0.06	0.750			
0.8694	55639.70	3.4730	3.4729	0.2395	25.92	-0.05	0.750			
0.8701	55685.77	3.4700	3.4699	0.2360	25.92	-0.05	0.750			
0.8708	55730.83	3.4670	3.4670	0.2310	25.93	-0.04	0.750			
0.8715	55774.84	3.4640	3.4640	0.2260	25.93	-0.04	0.750			
0.8722	55818.21	3.4610	3.4610	0.2215	25.93	-0.04	0.750			
0.8728	55859.96	3.4580	3.4580	0.2161	25.94	-0.03	0.750			
0.8734	55900.45	3.4550	3.4550	0.2099	25.94	-0.03	0.750			
0.8741	55940.51	3.4520	3.4520	0.2062	25.95	-0.02	0.750			
0.8747	55979.65	3.4490	3.4490	0.2015	25.95	-0.02	0.750			
0.8753	56017.70	3.4460	3.4460	0.1970	25.95	-0.02	0.750			
0.8759	56055.27	3.4430	3.4429	0.1925	25.96	-0.01	0.750			
0.8764	56092.19	3.4400	3.4400	0.1875	25.96	-0.01	0.750			
0.8770	56127.65	3.4370	3.4370	0.1818	25.97	-0.00	0.750			
0.8775	56162.08	3.4340	3.4340	0.1766	25.97	-0.00	0.750			
0.8781	56195.42	3.4310	3.4311	0.1716	25.97	0.00	0.750			
0.8786	56227.67	3.4280	3.4280	0.1660	25.98	0.01	0.750			
0.8790	56259.06	3.4250	3.4249	0.1609	25.98	0.01	0.750			
0.8795	56289.44	3.4220	3.4220	0.1549	25.98	0.01	0.750			
0.8800	56318.75	3.4190	3.4192	0.1498	25.98	0.01	0.750			
0.8804	56347.35	3.4160	3.4160	0.1449	25.99	0.02	0.750			
0.8809	56374.55	3.4130	3.4130	0.1386	25.99	0.02	0.750			
0.8813	56400.57	3.4100	3.4099	0.1321	25.99	0.02	0.750			
0.8816	56425.30	3.4070	3.4072	0.1257	26.00	0.03	0.750			
0.8820	56448.96	3.4040	3.4039	0.1192	26.00	0.03	0.750			
0.8824	56471.21	3.4010	3.4011	0.1125	26.00	0.03	0.750			
0.8827	56493.46	3.3980	3.3978	0.1035	26.00	0.03	0.750			
0.8830	56512.73	3.3950	3.3950	0.0948	26.00	0.03	0.750			
0.8833	56529.94	3.3920	3.3924	0.0845	26.01	0.04	0.750			
0.8835	56546.00	3.3890	3.3892	0.0749	26.01	0.04	0.750			
0.8838	56560.34	3.3860	3.3861	0.0641	26.01	0.04	0.750			
0.8839	56571.43	3.3830	3.3834	0.0514	26.01	0.04	0.750			
0.8841	56580.09	3.3800	3.3810	0.0388	26.01	0.04	0.750			
0.8842	56586.31	3.3770	3.3788	0.0261	26.01	0.04	0.750			
