Ah_balance (normalized)	Ah_balance (mAh)	Voltage - fit (V)	Voltage -  interpolate (V)	dQ/dV (1/V)	Temperature (°C)	Temperature - diff (°C)	Current (C)	R_DC 0ms (mOhm)	R_DC 50ms (mOhm)	R_DC 50 ms PEC (mOhm)
0.0523	3349.48	4.1980	4.1980	0.7891	26.65	0.70	0.750			
0.0547	3498.26	4.1950	4.1950	0.7679	26.65	0.70	0.750			
0.0569	3643.76	4.1920	4.1921	0.7628	26.64	0.69	0.750			
0.0592	3790.10	4.1890	4.1890	0.7644	26.64	0.69	0.750			
0.0615	3937.27	4.1860	4.1859	0.7625	26.63	0.68	0.750			
0.0638	4083.32	4.1830	4.1830	0.7633	26.63	0.68	0.750			
0.0661	4231.17	4.1800	4.1800	0.7686	26.63	0.68	0.750			
0.0684	4378.18	4.1770	4.1770	0.7672	26.62	0.67	0.750			
0.0707	4525.19	4.1740	4.1740	0.7668	26.62	0.67	0.750			
0.0730	4671.78	4.1710	4.1710	0.7727	26.62	0.67	0.750			
0.0753	4821.27	4.1680	4.1680	0.7721	26.62	0.67	0.750			
0.0776	4969.31	4.1650	4.1650	0.7771	26.62	0.67	0.750			
0.0800	5118.92	4.1620	4.1621	0.7775	26.62	0.67	0.750			
0.0823	5267.83	4.1590	4.1589	0.7801	26.62	0.67	0.750			
0.0847	5417.94	4.1560	4.1559	0.7834	26.62	0.67	0.750			
0.0870	5569.89	4.1530	4.1530	0.7758	26.62	0.67	0.750			
0.0893	5718.14	4.1500	4.1499	0.7724	26.62	0.67	0.750			
0.0917	5867.80	4.1470	4.1471	0.7757	26.62	0.67	0.750			
0.0940	6014.73	4.1440	4.1439	0.7717	26.62	0.67	0.750			
0.0963	6160.78	4.1410	4.1410	0.7770	26.62	0.67	0.750			
0.0986	6309.32	4.1380	4.1380	0.7833	26.62	0.67	0.750			
0.1009	6460.39	4.1350	4.1350	0.7828	26.62	0.67	0.750			
0.1033	6612.56	4.1320	4.1320	0.7896	26.62	0.67	0.750			
0.1057	6764.90	4.1290	4.1291	0.7884	26.62	0.67	0.750			
0.1081	6916.17	4.1260	4.1261	0.7887	26.62	0.67	0.750			
0.1104	7067.06	4.1230	4.1230	0.7896	26.62	0.67	0.750			
0.1128	7218.33	4.1200	4.1201	0.7872	26.62	0.67	0.750			
0.1152	7370.15	4.1170	4.1170	0.7879	26.62	0.67	0.750			
0.1175	7522.16	4.1140	4.1140	0.7799	26.62	0.67	0.750			
0.1199	7671.04	4.1110	4.1109	0.7767	26.62	0.67	0.750			
0.1222	7820.07	4.1080	4.1081	0.7751	26.62	0.67	0.750			
0.1245	7967.22	4.1050	4.1049	0.7717	26.62	0.67	0.750			
0.1268	8113.20	4.1020	4.1021	0.7736	26.62	0.67	0.750			
0.1291	8262.74	4.0990	4.0990	0.7813	26.62	0.67	0.750			
0.1315	8413.12	4.0960	4.0959	0.7885	26.62	0.67	0.750			
0.1338	8566.14	4.0930	4.0931	0.7984	26.62	0.67	0.750			
0.1363	8722.22	4.0900	4.0899	0.7948	26.63	0.68	0.750			
0.1387	8874.72	4.0870	4.0870	0.7986	26.63	0.68	0.750			
0.1410	9026.51	4.0840	4.0840	0.8059	26.63	0.68	0.750			
0.1435	9181.02	4.0810	4.0811	0.8109	26.64	0.69	0.750			
0.1459	9337.45	4.0780	4.0777	0.8147	26.64	0.69	0.750			
0.1483	9494.16	4.0750	4.0752	0.8207	26.64	0.69	0.750			
0.1508	9652.06	4.0720	4.0721	0.8203	26.64	0.69	0.750			
0.1533	9810.73	4.0690	4.0690	0.8261	26.64	0.69	0.750			
0.1558	9968.59	4.0660	4.0661	0.8193	26.64	0.69	0.750			
0.1582	10125.12	4.0630	4.0627	0.8261	26.64	0.69	0.750			
0.1607	10284.97	4.0600	4.0602	0.8301	26.64	0.69	0.750			
0.1632	10444.58	4.0570	4.0571	0.8283	26.64	0.69	0.750			
0.1657	10604.43	4.0540	4.0539	0.8318	26.64	0.69	0.750			
0.1682	10761.76	4.0510	4.0512	0.8322	26.64	0.69	0.750			
0.1707	10922.58	4.0480	4.0478	0.8384	26.64	0.69	0.750			
0.1732	11087.16	4.0450	4.0450	0.8370	26.64	0.69	0.750			
0.1757	11247.61	4.0420	4.0420	0.8420	26.64	0.69	0.750			
0.1783	11410.74	4.0390	4.0391	0.8459	26.64	0.69	0.750			
0.1808	11571.16	4.0360	4.0360	0.8470	26.64	0.69	0.750			
0.1833	11733.01	4.0330	4.0329	0.8521	26.64	0.69	0.750			
0.1859	11898.82	4.0300	4.0300	0.8474	26.64	0.69	0.750			
0.1885	12063.38	4.0270	4.0271	0.8561	26.65	0.70	0.750			
0.1911	12227.25	4.0240	4.0241	0.8598	26.65	0.70	0.750			
0.1936	12390.70	4.0210	4.0210	0.8591	26.66	0.71	0.750			
0.1962	12556.04	4.0180	4.0180	0.8626	26.66	0.71	0.750			
0.1988	12722.43	4.0150	4.0150	0.8620	26.66	0.71	0.750			
0.2014	12887.97	4.0120	4.0121	0.8716	26.66	0.71	0.750			
0.2040	13057.59	4.0090	4.0090	0.8783	26.66	0.71	0.750			
0.2067	13226.41	4.0060	4.0060	0.8741	26.66	0.71	0.750			
0.2093	13393.88	4.0030	4.0031	0.8772	26.66	0.71	0.750			
0.2119	13563.27	4.0000	4.0002	0.8773	26.66	0.71	0.750			
0.2146	13731.98	3.9970	3.9970	0.8808	26.66	0.71	0.750			
0.2172	13900.55	3.9940	3.9939	0.8860	26.66	0.71	0.750			
0.2198	14068.36	3.9910	3.9908	0.8862	26.66	0.71	0.750			
0.2225	14241.39	3.9880	3.9880	0.8889	26.66	0.71	0.750			
0.2252	14412.29	3.9850	3.9850	0.8948	26.66	0.71	0.750			
0.2279	14584.31	3.9820	3.9821	0.8972	26.66	0.71	0.750			
0.2306	14757.16	3.9790	3.9790	0.9027	26.66	0.71	0.750			
0.2333	14930.92	3.9760	3.9760	0.8964	26.66	0.71	0.750			
0.2360	15103.15	3.9730	3.9731	0.8946	26.66	0.71	0.750			
0.2387	15274.65	3.9700	3.9700	0.8968	26.67	0.72	0.750			
0.2414	15447.43	3.9670	3.9670	0.8985	26.67	0.72	0.750			
0.2440	15616.61	3.9640	3.9639	0.8982	26.68	0.73	0.750			
0.2467	15790.11	3.9610	3.9611	0.9044	26.68	0.73	0.750			
0.2495	15965.15	3.9580	3.9580	0.9025	26.68	0.73	0.750			
0.2522	16139.12	3.9550	3.9551	0.9130	26.68	0.73	0.750			
0.2549	16314.89	3.9520	3.9521	0.9146	26.68	0.73	0.750			
0.2577	16490.65	3.9490	3.9487	0.9144	26.68	0.73	0.750			
0.2604	16668.58	3.9460	3.9460	0.9075	26.68	0.73	0.750			
0.2631	16840.11	3.9430	3.9432	0.9115	26.68	0.73	0.750			
0.2659	17017.63	3.9400	3.9400	0.9133	26.68	0.73	0.750			
0.2686	17192.11	3.9370	3.9370	0.9176	26.68	0.73	0.750			
0.2713	17364.34	3.9340	3.9339	0.9114	26.68	0.73	0.750			
0.2741	17541.60	3.9310	3.9311	0.9147	26.68	0.73	0.750			
0.2769	17718.68	3.9280	3.9280	0.9219	26.68	0.73	0.750			
0.2796	17896.21	3.9250	3.9250	0.9259	26.68	0.73	0.750			
0.2824	18072.11	3.9220	3.9217	0.9230	26.68	0.73	0.750			
0.2852	18255.78	3.9190	3.9189	0.9211	26.68	0.73	0.750			
0.2880	18428.88	3.9160	3.9161	0.9180	26.67	0.72	0.750			
0.2907	18605.05	3.9130	3.9131	0.9244	26.67	0.72	0.750			
0.2935	18781.69	3.9100	3.9102	0.9293	26.66	0.71	0.750			
0.2962	18957.13	3.9070	3.9068	0.9309	26.66	0.71	0.750			
0.2990	19138.19	3.9040	3.9041	0.9307	26.66	0.71	0.750			
0.3019	19318.78	3.9010	3.9011	0.9373	26.66	0.71	0.750			
0.3047	19500.56	3.8980	3.8980	0.9406	26.66	0.71	0.750			
0.3075	19680.14	3.8950	3.8948	0.9412	26.66	0.71	0.750			
0.3103	19859.67	3.8920	3.8921	0.9403	26.66	0.71	0.750			
0.3131	20040.48	3.8890	3.8890	0.9523	26.65	0.70	0.750			
0.3160	20224.71	3.8860	3.8860	0.9617	26.65	0.70	0.750			
0.3189	20412.34	3.8830	3.8830	0.9652	26.64	0.69	0.750			
0.3219	20599.84	3.8800	3.8800	0.9624	26.64	0.69	0.750			
0.3248	20784.48	3.8770	3.8771	0.9712	26.64	0.69	0.750			
0.3277	20970.00	3.8740	3.8741	0.9741	26.63	0.68	0.750			
0.3306	21156.74	3.8710	3.8710	0.9811	26.63	0.68	0.750			
0.3335	21343.95	3.8680	3.8680	0.9852	26.63	0.68	0.750			
0.3365	21534.46	3.8650	3.8651	0.9906	26.62	0.67	0.750			
0.3395	21726.71	3.8620	3.8620	1.0068	26.61	0.66	0.750			
0.3425	21920.43	3.8590	3.8590	1.0168	26.61	0.66	0.750			
0.3455	22114.54	3.8560	3.8558	1.0239	26.60	0.65	0.750			
0.3487	22314.73	3.8530	3.8530	1.0271	26.59	0.64	0.750			
0.3518	22512.76	3.8500	3.8501	1.0342	26.59	0.64	0.750			
0.3549	22713.42	3.8470	3.8470	1.0429	26.58	0.63	0.750			
0.3580	22915.02	3.8440	3.8438	1.0433	26.58	0.63	0.750			
0.3611	23111.58	3.8410	3.8410	1.0392	26.57	0.62	0.750			
0.3642	23311.26	3.8380	3.8381	1.0470	26.56	0.61	0.750			
0.3674	23513.34	3.8350	3.8350	1.0534	26.55	0.60	0.750			
0.3706	23719.72	3.8320	3.8320	1.0531	26.54	0.59	0.750			
0.3737	23919.00	3.8290	3.8290	1.0548	26.53	0.58	0.750			
0.3769	24120.90	3.8260	3.8261	1.0639	26.53	0.58	0.750			
0.3801	24325.80	3.8230	3.8231	1.0785	26.52	0.57	0.750			
0.3834	24534.96	3.8200	3.8197	1.0731	26.52	0.57	0.750			
0.3866	24740.92	3.8170	3.8170	1.0833	26.50	0.55	0.750			
0.3898	24950.32	3.8140	3.8141	1.0942	26.49	0.54	0.750			
0.3931	25161.28	3.8110	3.8111	1.1048	26.47	0.52	0.750			
0.3965	25377.07	3.8080	3.8078	1.0886	26.46	0.51	0.750			
0.3998	25585.67	3.8050	3.8050	1.0982	26.45	0.50	0.750			
0.4030	25792.91	3.8020	3.8021	1.1105	26.45	0.50	0.750			
0.4064	26009.47	3.7990	3.7992	1.1226	26.44	0.49	0.750			
0.4098	26224.30	3.7960	3.7961	1.1208	26.43	0.48	0.750			
0.4131	26439.11	3.7930	3.7931	1.1346	26.42	0.47	0.750			
0.4166	26659.67	3.7900	3.7902	1.1465	26.41	0.46	0.750			
0.4201	26885.76	3.7870	3.7868	1.1647	26.39	0.44	0.750			
0.4235	27105.34	3.7840	3.7841	1.1646	26.38	0.43	0.750			
0.4270	27328.28	3.7810	3.7810	1.1787	26.37	0.42	0.750			
0.4306	27557.14	3.7780	3.7781	1.2022	26.36	0.41	0.750			
0.4342	27790.15	3.7750	3.7750	1.2073	26.35	0.40	0.750			
0.4378	28018.22	3.7720	3.7720	1.2381	26.33	0.38	0.750			
0.4415	28256.53	3.7690	3.7691	1.2823	26.32	0.37	0.750			
0.4454	28506.12	3.7660	3.7657	1.3152	26.31	0.36	0.750			
0.4494	28763.66	3.7630	3.7630	1.3476	26.30	0.35	0.750			
0.4536	29027.45	3.7600	3.7602	1.3798	26.28	0.33	0.750	0.298	0.389	
0.4578	29298.80	3.7570	3.7568	1.4032	26.27	0.32	0.750			
0.4620	29571.15	3.7540	3.7540	1.4164	26.26	0.31	0.750			
0.4663	29842.52	3.7510	3.7510	1.4262	26.24	0.29	0.750			
0.4706	30118.17	3.7480	3.7478	1.4518	26.23	0.28	0.750			
0.4749	30392.56	3.7450	3.7451	1.4906	26.22	0.27	0.750			
0.4794	30681.22	3.7420	3.7422	1.5442	26.20	0.25	0.750			
0.4841	30981.00	3.7390	3.7386	1.5826	26.19	0.24	0.750			
0.4889	31289.82	3.7360	3.7360	1.6289	26.17	0.22	0.750			
0.4940	31613.60	3.7330	3.7331	1.6860	26.15	0.20	0.750			
0.4991	31943.75	3.7300	3.7297	1.7293	26.14	0.19	0.750			
0.5043	32277.87	3.7270	3.7272	1.7564	26.13	0.18	0.750			
0.5097	32622.73	3.7240	3.7240	1.8058	26.11	0.16	0.750			
0.5152	32974.81	3.7210	3.7209	1.8558	26.09	0.14	0.750			
0.5208	33329.06	3.7180	3.7179	1.9178	26.07	0.12	0.750			
0.5267	33705.82	3.7150	3.7153	1.9704	26.05	0.10	0.750			
0.5327	34090.41	3.7120	3.7120	2.0235	26.03	0.08	0.750			
0.5389	34488.82	3.7090	3.7090	2.0738	26.02	0.07	0.750			
0.5452	34895.98	3.7060	3.7057	2.1347	26.00	0.05	0.750			
0.5518	35314.01	3.7030	3.7028	2.2251	25.98	0.03	0.750			
0.5585	35742.21	3.7000	3.7003	2.2807	25.96	0.01	0.750			
0.5654	36183.39	3.6970	3.6971	2.3322	25.94	-0.01	0.750			
0.5726	36648.06	3.6940	3.6941	2.3832	25.92	-0.03	0.750			
0.5797	37101.75	3.6910	3.6911	2.4526	25.91	-0.04	0.750			
0.5871	37572.33	3.6880	3.6880	2.5400	25.89	-0.06	0.750			
0.5948	38066.18	3.6850	3.6848	2.6554	25.87	-0.08	0.750			
0.6031	38595.71	3.6820	3.6821	2.7520	25.85	-0.10	0.750			
0.6115	39134.42	3.6790	3.6790	2.8608	25.82	-0.13	0.750			
0.6202	39694.92	3.6760	3.6760	2.8982	25.81	-0.14	0.750			
0.6291	40259.59	3.6730	3.6729	2.9657	25.80	-0.15	0.750			
0.6381	40840.98	3.6700	3.6700	3.0274	25.80	-0.15	0.750			
0.6475	41438.68	3.6670	3.6670	3.0529	25.79	-0.16	0.750			
0.6568	42034.94	3.6640	3.6642	2.9790	25.77	-0.18	0.750			
0.6659	42615.12	3.6610	3.6610	2.7493	25.77	-0.18	0.750			
0.6735	43104.74	3.6580	3.6581	2.4468	25.77	-0.18	0.750			
0.6801	43528.83	3.6550	3.6555	2.1735	25.77	-0.18	0.750			
0.6863	43924.42	3.6520	3.6514	1.9514	25.77	-0.18	0.750			
0.6915	44255.44	3.6490	3.6488	1.7477	25.77	-0.18	0.750			
0.6964	44566.61	3.6460	3.6461	1.6170	25.77	-0.18	0.750			
0.7011	44868.21	3.6430	3.6432	1.5167	25.77	-0.18	0.750			
0.7055	45149.33	3.6400	3.6402	1.4185	25.77	-0.18	0.750			
0.7095	45410.26	3.6370	3.6371	1.3403	25.77	-0.18	0.750			
0.7133	45650.44	3.6340	3.6341	1.2638	25.77	-0.18	0.750			
0.7170	45885.02	3.6310	3.6310	1.2355	25.77	-0.18	0.750			
0.7205	46113.63	3.6280	3.6277	1.1991	25.77	-0.18	0.750			
0.7240	46336.19	3.6250	3.6251	1.1945	25.77	-0.18	0.750			
0.7276	46565.77	3.6220	3.6220	1.2036	25.77	-0.18	0.750			
0.7312	46797.57	3.6190	3.6190	1.2120	25.77	-0.18	0.750			
0.7349	47031.65	3.6160	3.6161	1.2000	25.77	-0.18	0.750			
0.7385	47265.06	3.6130	3.6132	1.2077	25.77	-0.18	0.750			
0.7422	47498.68	3.6100	3.6101	1.1966	25.77	-0.18	0.750			
0.7458	47729.96	3.6070	3.6067	1.1737	25.77	-0.18	0.750			
0.7493	47952.73	3.6040	3.6041	1.1660	25.77	-0.18	0.750			
0.7527	48173.62	3.6010	3.6011	1.1600	25.76	-0.19	0.750			
0.7562	48396.12	3.5980	3.5979	1.1598	25.76	-0.19	0.750			
0.7596	48614.02	3.5950	3.5952	1.1605	25.76	-0.19	0.750			
0.7630	48834.35	3.5920	3.5920	1.1766	25.76	-0.19	0.750			
0.7666	49062.45	3.5890	3.5890	1.2068	25.75	-0.20	0.750			
0.7703	49300.11	3.5860	3.5854	1.2190	25.75	-0.20	0.750			
0.7739	49531.64	3.5830	3.5832	1.2697	25.75	-0.20	0.750			
0.7778	49777.79	3.5800	3.5801	1.3151	25.76	-0.19	0.750			
0.7818	50036.74	3.5770	3.5767	1.3471	25.76	-0.19	0.750			
0.7860	50300.86	3.5740	3.5741	1.4085	25.76	-0.19	0.750			
0.7902	50573.28	3.5710	3.5711	1.4501	25.75	-0.20	0.750			
0.7947	50861.77	3.5680	3.5678	1.4751	25.75	-0.20	0.750			
0.7992	51148.62	3.5650	3.5652	1.5175	25.75	-0.20	0.750			
0.8038	51441.84	3.5620	3.5622	1.5742	25.75	-0.20	0.750			
0.8088	51762.24	3.5590	3.5585	1.5722	25.75	-0.20	0.750			
0.8134	52059.13	3.5560	3.5563	1.6054	25.75	-0.20	0.750			
0.8182	52365.57	3.5530	3.5534	1.6289	25.75	-0.20	0.750			
0.8232	52682.06	3.5500	3.5493	1.6687	25.75	-0.20	0.750			
0.8283	53009.84	3.5470	3.5471	1.7023	25.75	-0.20	0.750			
0.8334	53335.38	3.5440	3.5441	1.6952	25.75	-0.20	0.750			
0.8386	53670.56	3.5410	3.5411	1.7221	25.75	-0.20	0.750			
0.8438	54003.10	3.5380	3.5378	1.7571	25.76	-0.19	0.750			
0.8488	54322.21	3.5350	3.5348	1.7629	25.76	-0.19	0.750			
0.8544	54682.35	3.5320	3.5315	1.6990	25.77	-0.18	0.750			
0.8598	55025.89	3.5290	3.5294	1.6002	25.78	-0.17	0.750			
0.8651	55366.61	3.5260	3.5265	1.4390	25.79	-0.16	0.750			
0.8692	55630.78	3.5230	3.5234	1.1734	25.81	-0.14	0.750			
0.8722	55818.08	3.5200	3.5199	0.9218	25.82	-0.13	0.750			
0.8740	55937.08	3.5170	3.5167	0.6569	25.83	-0.12	0.750			
0.8752	56013.37	3.5140	3.5138	0.4863	25.83	-0.12	0.750			
0.8764	56088.31	3.5110	3.5109	0.4104	25.84	-0.11	0.750			
0.8774	56154.14	3.5080	3.5079	0.3605	25.84	-0.11	0.750			
0.8784	56219.61	3.5050	3.5049	0.3365	25.85	-0.10	0.750			
0.8794	56281.29	3.5020	3.5020	0.3178	25.85	-0.10	0.750			
0.8803	56339.93	3.4990	3.4991	0.3034	25.86	-0.09	0.750			
0.8812	56395.99	3.4960	3.4961	0.2940	25.86	-0.09	0.750			
0.8820	56451.00	3.4930	3.4930	0.2849	25.87	-0.08	0.750			
0.8829	56504.78	3.4900	3.4899	0.2775	25.87	-0.08	0.750			
0.8837	56556.48	3.4870	3.4870	0.2729	25.88	-0.07	0.750			
0.8845	56609.24	3.4840	3.4842	0.2684	25.88	-0.07	0.750			
0.8853	56660.47	3.4810	3.4809	0.2635	25.89	-0.06	0.750			
0.8861	56710.53	3.4780	3.4779	0.2571	25.89	-0.06	0.750			
0.8869	56759.48	3.4750	3.4750	0.2507	25.90	-0.05	0.750			
0.8876	56807.13	3.4720	3.4719	0.2444	25.90	-0.05	0.750			
0.8883	56853.30	3.4690	3.4690	0.2394	25.91	-0.04	0.750			
0.8890	56897.69	3.4660	3.4660	0.2331	25.91	-0.04	0.750			
0.8897	56942.56	3.4630	3.4630	0.2303	25.91	-0.04	0.750			
0.8904	56986.36	3.4600	3.4599	0.2259	25.92	-0.03	0.750			
0.8911	57028.95	3.4570	3.4570	0.2206	25.92	-0.03	0.750			
0.8917	57071.44	3.4540	3.4541	0.2163	25.93	-0.02	0.750			
0.8924	57112.68	3.4510	3.4510	0.2125	25.93	-0.02	0.750			
0.8930	57152.94	3.4480	3.4481	0.2068	25.94	-0.01	0.750			
0.8936	57191.89	3.4450	3.4450	0.2012	25.94	-0.01	0.750			
0.8942	57229.80	3.4420	3.4419	0.1957	25.94	-0.01	0.750			
0.8948	57266.84	3.4390	3.4391	0.1913	25.95	-0.00	0.750			
0.8954	57303.15	3.4360	3.4361	0.1869	25.95	0.00	0.750			
0.8959	57338.68	3.4330	3.4330	0.1819	25.95	0.00	0.750			
0.8965	57373.41	3.4300	3.4300	0.1769	25.96	0.01	0.750			
0.8970	57406.84	3.4270	3.4270	0.1714	25.96	0.01	0.750			
0.8975	57439.14	3.4240	3.4241	0.1661	25.96	0.01	0.750			
0.8980	57470.66	3.4210	3.4210	0.1611	25.97	0.02	0.750			
0.8985	57500.88	3.4180	3.4181	0.1559	25.97	0.02	0.750			
0.8989	57530.34	3.4150	3.4150	0.1509	25.97	0.02	0.750			
0.8994	57558.65	3.4120	3.4118	0.1454	25.98	0.03	0.750			
0.8998	57586.37	3.4090	3.4090	0.1399	25.98	0.03	0.750			
0.9002	57612.95	3.4060	3.4060	0.1346	25.98	0.03	0.750			
0.9006	57638.27	3.4030	3.4030	0.1279	25.98	0.03	0.750			
0.9010	57662.35	3.4000	3.4001	0.1214	25.99	0.04	0.750			
0.9013	57685.25	3.3970	3.3970	0.1143	25.99	0.04	0.750			
0.9017	57706.47	3.3940	3.3940	0.1069	25.99	0.04	0.750			
0.9020	57727.24	3.3910	3.3910	0.0963	25.99	0.04	0.750			
0.9023	57745.27	3.3880	3.3879	0.0877	25.99	0.04	0.750			
0.9025	57761.64	3.3850	3.3851	0.0786	26.00	0.05	0.750			
0.9027	57775.66	3.3820	3.3822	0.0675	26.00	0.05	0.750			
0.9029	57788.42	3.3790	3.3794	0.0567	26.00	0.05	0.750			
0.9031	57798.14	3.3760	3.3765	0.0445	26.00	0.05	0.750			
0.9032	57805.50	3.3730	3.3740	0.0322	26.00	0.05	0.750			
0.9033	57810.51	3.3700	3.3716	0.0200	26.00	0.05	0.750			
