Ah_balance (normalized)	Ah_balance (mAh)	Voltage - fit (V)	Voltage -  interpolate (V)	dQ/dV (1/V)	Temperature (°C)	Temperature - diff (°C)	Current (C)	R_DC 0ms (mOhm)	R_DC 50ms (mOhm)	R_DC 50 ms PEC (mOhm)
0.0002	12.85	4.1620	4.1619	-0.1158	25.80	0.03	-0.750			
0.0006	38.83	4.1590	4.1589	-0.1536	25.80	0.03	-0.750			
0.0011	71.60	4.1560	4.1559	-0.1892	25.80	0.03	-0.750			
0.0017	110.57	4.1530	4.1531	-0.2280	25.79	0.02	-0.750			
0.0025	158.23	4.1500	4.1501	-0.2666	25.79	0.02	-0.750			
0.0033	213.86	4.1470	4.1468	-0.3015	25.79	0.02	-0.750			
0.0043	275.53	4.1440	4.1441	-0.3376	25.79	0.02	-0.750			
0.0054	344.76	4.1410	4.1410	-0.3719	25.78	0.01	-0.750			
0.0066	419.60	4.1380	4.1380	-0.4027	25.78	0.01	-0.750			
0.0078	500.70	4.1350	4.1349	-0.4297	25.78	0.01	-0.750			
0.0091	585.06	4.1320	4.1322	-0.4569	25.77	0.00	-0.750			
0.0106	676.60	4.1290	4.1289	-0.4818	25.77	-0.00	-0.750			
0.0121	772.02	4.1260	4.1259	-0.5046	25.76	-0.01	-0.750			
0.0136	871.15	4.1230	4.1230	-0.5226	25.76	-0.01	-0.750			
0.0152	973.56	4.1200	4.1200	-0.5414	25.75	-0.02	-0.750			
0.0169	1080.36	4.1170	4.1170	-0.5649	25.75	-0.02	-0.750			
0.0186	1191.90	4.1140	4.1140	-0.5785	25.74	-0.03	-0.750			
0.0204	1304.25	4.1110	4.1109	-0.5903	25.73	-0.04	-0.750			
0.0222	1420.40	4.1080	4.1082	-0.5989	25.73	-0.04	-0.750			
0.0240	1537.23	4.1050	4.1049	-0.6053	25.73	-0.04	-0.750			
0.0258	1652.94	4.1020	4.1020	-0.6136	25.73	-0.04	-0.750			
0.0276	1769.17	4.0990	4.0990	-0.6219	25.73	-0.04	-0.750			
0.0295	1889.82	4.0960	4.0959	-0.6297	25.72	-0.05	-0.750			
0.0314	2012.43	4.0930	4.0930	-0.6373	25.72	-0.05	-0.750			
0.0334	2135.53	4.0900	4.0901	-0.6466	25.72	-0.05	-0.750			
0.0353	2261.24	4.0870	4.0868	-0.6542	25.72	-0.05	-0.750			
0.0373	2387.94	4.0840	4.0840	-0.6589	25.72	-0.05	-0.750			
0.0393	2514.25	4.0810	4.0810	-0.6613	25.71	-0.06	-0.750			
0.0413	2641.36	4.0780	4.0781	-0.6698	25.71	-0.06	-0.750			
0.0433	2772.48	4.0750	4.0749	-0.6740	25.71	-0.06	-0.750			
0.0453	2901.92	4.0720	4.0720	-0.6779	25.70	-0.07	-0.750			
0.0474	3031.95	4.0690	4.0692	-0.6795	25.70	-0.07	-0.750			
0.0494	3163.46	4.0660	4.0659	-0.6826	25.70	-0.07	-0.750			
0.0515	3293.84	4.0630	4.0630	-0.6877	25.70	-0.07	-0.750			
0.0535	3425.04	4.0600	4.0601	-0.6895	25.70	-0.07	-0.750			
0.0556	3559.15	4.0570	4.0569	-0.6937	25.70	-0.07	-0.750			
0.0577	3692.29	4.0540	4.0539	-0.6988	25.70	-0.07	-0.750			
0.0598	3826.55	4.0510	4.0512	-0.6999	25.70	-0.07	-0.750			
0.0619	3961.62	4.0480	4.0480	-0.7037	25.70	-0.07	-0.750			
0.0640	4096.32	4.0450	4.0450	-0.7104	25.70	-0.07	-0.750			
0.0662	4234.04	4.0420	4.0420	-0.7090	25.70	-0.07	-0.750			
0.0683	4370.98	4.0390	4.0389	-0.7113	25.70	-0.07	-0.750			
0.0704	4507.64	4.0360	4.0359	-0.7107	25.70	-0.07	-0.750			
0.0726	4643.99	4.0330	4.0331	-0.7076	25.70	-0.07	-0.750			
0.0747	4779.57	4.0300	4.0299	-0.7096	25.70	-0.07	-0.750			
0.0768	4913.38	4.0270	4.0270	-0.7148	25.70	-0.07	-0.750			
0.0789	5050.12	4.0240	4.0240	-0.7123	25.70	-0.07	-0.750			
0.0811	5190.28	4.0210	4.0209	-0.7211	25.70	-0.07	-0.750			
0.0833	5328.93	4.0180	4.0180	-0.7236	25.70	-0.07	-0.750			
0.0854	5468.60	4.0150	4.0150	-0.7255	25.70	-0.07	-0.750			
0.0876	5608.42	4.0120	4.0120	-0.7292	25.71	-0.06	-0.750			
0.0898	5747.99	4.0090	4.0089	-0.7309	25.71	-0.06	-0.750			
0.0920	5887.32	4.0060	4.0060	-0.7283	25.71	-0.06	-0.750			
0.0942	6029.40	4.0030	4.0030	-0.7345	25.72	-0.05	-0.750			
0.0964	6170.94	4.0000	4.0001	-0.7348	25.72	-0.05	-0.750			
0.0986	6311.34	3.9970	3.9969	-0.7367	25.72	-0.05	-0.750			
0.1008	6451.91	3.9940	3.9939	-0.7395	25.72	-0.05	-0.750			
0.1030	6594.24	3.9910	3.9910	-0.7459	25.72	-0.05	-0.750			
0.1053	6738.03	3.9880	3.9880	-0.7461	25.72	-0.05	-0.750			
0.1076	6884.15	3.9850	3.9849	-0.7535	25.72	-0.05	-0.750			
0.1098	7028.66	3.9820	3.9822	-0.7507	25.72	-0.05	-0.750			
0.1121	7172.99	3.9790	3.9789	-0.7493	25.73	-0.04	-0.750			
0.1143	7315.36	3.9760	3.9760	-0.7502	25.73	-0.04	-0.750			
0.1165	7458.07	3.9730	3.9729	-0.7491	25.74	-0.03	-0.750			
0.1188	7604.50	3.9700	3.9700	-0.7559	25.74	-0.03	-0.750			
0.1211	7748.90	3.9670	3.9670	-0.7560	25.75	-0.02	-0.750			
0.1233	7893.72	3.9640	3.9640	-0.7566	25.75	-0.02	-0.750			
0.1256	8039.21	3.9610	3.9610	-0.7657	25.75	-0.02	-0.750			
0.1279	8185.87	3.9580	3.9580	-0.7668	25.75	-0.02	-0.750			
0.1302	8332.85	3.9550	3.9550	-0.7665	25.76	-0.01	-0.750			
0.1325	8481.78	3.9520	3.9520	-0.7700	25.76	-0.01	-0.750			
0.1348	8629.84	3.9490	3.9492	-0.7722	25.76	-0.01	-0.750			
0.1372	8778.00	3.9460	3.9459	-0.7740	25.76	-0.01	-0.750			
0.1395	8926.42	3.9430	3.9430	-0.7769	25.76	-0.01	-0.750			
0.1418	9075.57	3.9400	3.9400	-0.7766	25.77	-0.00	-0.750			
0.1442	9226.43	3.9370	3.9370	-0.7821	25.77	-0.00	-0.750			
0.1465	9376.89	3.9340	3.9338	-0.7823	25.77	-0.00	-0.750			
0.1489	9526.89	3.9310	3.9309	-0.7825	25.77	0.00	-0.750			
0.1512	9676.03	3.9280	3.9280	-0.7866	25.78	0.01	-0.750			
0.1535	9826.64	3.9250	3.9250	-0.7840	25.78	0.01	-0.750			
0.1559	9978.76	3.9220	3.9220	-0.7859	25.78	0.01	-0.750			
0.1583	10129.43	3.9190	3.9190	-0.7869	25.79	0.02	-0.750			
0.1606	10280.49	3.9160	3.9159	-0.7854	25.79	0.02	-0.750			
0.1630	10429.35	3.9130	3.9130	-0.7931	25.79	0.02	-0.750			
0.1654	10582.95	3.9100	3.9101	-0.7925	25.79	0.02	-0.750			
0.1677	10734.76	3.9070	3.9069	-0.7930	25.80	0.03	-0.750			
0.1702	10889.83	3.9040	3.9039	-0.7917	25.80	0.03	-0.750			
0.1725	11042.68	3.9010	3.9011	-0.7864	25.80	0.03	-0.750			
0.1748	11190.39	3.8980	3.8980	-0.7862	25.80	0.03	-0.750			
0.1772	11340.42	3.8950	3.8950	-0.7861	25.81	0.04	-0.750			
0.1795	11489.01	3.8920	3.8920	-0.7813	25.81	0.04	-0.750			
0.1819	11641.00	3.8890	3.8889	-0.7948	25.82	0.05	-0.750			
0.1843	11795.09	3.8860	3.8861	-0.7971	25.82	0.05	-0.750			
0.1867	11950.24	3.8830	3.8830	-0.8013	25.82	0.05	-0.750			
0.1891	12103.54	3.8800	3.8799	-0.8046	25.82	0.05	-0.750			
0.1915	12256.42	3.8770	3.8770	-0.8039	25.83	0.06	-0.750			
0.1939	12411.24	3.8740	3.8740	-0.8045	25.83	0.06	-0.750			
0.1963	12566.23	3.8710	3.8709	-0.8060	25.83	0.06	-0.750			
0.1988	12720.19	3.8680	3.8681	-0.8070	25.83	0.06	-0.750			
0.2012	12876.97	3.8650	3.8650	-0.8154	25.84	0.07	-0.750			
0.2037	13033.74	3.8620	3.8619	-0.8174	25.84	0.07	-0.750			
0.2061	13191.72	3.8590	3.8589	-0.8133	25.84	0.07	-0.750			
0.2086	13347.63	3.8560	3.8560	-0.8147	25.85	0.08	-0.750			
0.2110	13504.47	3.8530	3.8529	-0.8151	25.85	0.08	-0.750			
0.2134	13659.71	3.8500	3.8500	-0.8181	25.86	0.09	-0.750			
0.2159	13816.01	3.8470	3.8469	-0.8195	25.86	0.09	-0.750			
0.2183	13973.72	3.8440	3.8440	-0.8170	25.86	0.09	-0.750			
0.2208	14133.96	3.8410	3.8410	-0.8216	25.87	0.10	-0.750			
0.2233	14292.27	3.8380	3.8379	-0.8225	25.87	0.10	-0.750			
0.2258	14448.20	3.8350	3.8350	-0.8207	25.88	0.11	-0.750			
0.2282	14606.58	3.8320	3.8319	-0.8170	25.88	0.11	-0.750			
0.2306	14760.48	3.8290	3.8290	-0.8116	25.88	0.11	-0.750			
0.2331	14921.46	3.8260	3.8259	-0.8078	25.89	0.12	-0.750			
0.2356	15075.66	3.8230	3.8230	-0.8040	25.89	0.12	-0.750			
0.2379	15226.41	3.8200	3.8200	-0.8081	25.90	0.13	-0.750			
0.2403	15382.32	3.8170	3.8170	-0.8044	25.90	0.13	-0.750			
0.2428	15536.06	3.8140	3.8137	-0.8016	25.90	0.13	-0.750			
0.2452	15693.49	3.8110	3.8110	-0.8001	25.91	0.14	-0.750			
0.2476	15847.09	3.8080	3.8082	-0.7995	25.91	0.14	-0.750			
0.2500	15998.83	3.8050	3.8049	-0.8075	25.91	0.14	-0.750			
0.2524	16152.78	3.8020	3.8020	-0.7958	25.92	0.15	-0.750			
0.2548	16304.92	3.7990	3.7987	-0.7870	25.92	0.15	-0.750			
0.2572	16458.79	3.7960	3.7960	-0.7901	25.93	0.16	-0.750			
0.2595	16611.14	3.7930	3.7934	-0.7884	25.93	0.16	-0.750			
0.2619	16761.68	3.7900	3.7899	-0.7845	25.93	0.16	-0.750			
0.2642	16910.59	3.7870	3.7869	-0.7762	25.94	0.17	-0.750			
0.2666	17059.83	3.7840	3.7841	-0.7711	25.94	0.17	-0.750			
0.2689	17210.73	3.7810	3.7809	-0.7736	25.95	0.18	-0.750			
0.2712	17357.19	3.7780	3.7778	-0.7663	25.95	0.18	-0.750			
0.2735	17502.91	3.7750	3.7749	-0.7588	25.95	0.18	-0.750			
0.2757	17646.74	3.7720	3.7720	-0.7557	25.96	0.19	-0.750			
0.2780	17790.81	3.7690	3.7690	-0.7582	25.96	0.19	-0.750			
0.2803	17939.30	3.7660	3.7659	-0.7631	25.96	0.19	-0.750			
0.2826	18085.05	3.7630	3.7629	-0.7615	25.97	0.20	-0.750			
0.2849	18230.45	3.7600	3.7602	-0.7584	25.97	0.20	-0.750			
0.2871	18374.50	3.7570	3.7570	-0.7621	25.97	0.20	-0.750			
0.2894	18521.94	3.7540	3.7540	-0.7692	25.98	0.21	-0.750			
0.2917	18667.67	3.7510	3.7508	-0.7702	25.98	0.21	-0.750			
0.2941	18819.59	3.7480	3.7480	-0.7744	25.99	0.22	-0.750			
0.2964	18968.13	3.7450	3.7450	-0.7742	25.99	0.22	-0.750			
0.2987	19116.06	3.7420	3.7420	-0.7793	25.99	0.22	-0.750			
0.3010	19265.16	3.7390	3.7389	-0.7876	26.00	0.23	-0.750			
0.3033	19412.81	3.7360	3.7360	-0.7893	26.00	0.23	-0.750			
0.3057	19566.09	3.7330	3.7330	-0.8015	26.00	0.23	-0.750			
0.3082	19722.96	3.7300	3.7300	-0.8144	26.01	0.24	-0.750			
0.3106	19880.90	3.7270	3.7269	-0.8273	26.01	0.24	-0.750			
0.3131	20040.08	3.7240	3.7240	-0.8385	26.01	0.24	-0.750			
0.3157	20202.08	3.7210	3.7209	-0.8494	26.01	0.24	-0.750			
0.3182	20366.96	3.7180	3.7180	-0.8580	26.01	0.24	-0.750			
0.3208	20533.38	3.7150	3.7149	-0.8723	26.01	0.24	-0.750			
0.3235	20702.39	3.7120	3.7119	-0.8820	26.01	0.24	-0.750			
0.3261	20872.53	3.7090	3.7090	-0.9019	26.01	0.24	-0.750			
0.3288	21044.87	3.7060	3.7058	-0.9158	26.01	0.24	-0.750			
0.3316	21221.31	3.7030	3.7030	-0.9329	26.01	0.24	-0.750			
0.3344	21404.47	3.7000	3.7004	-0.9578	26.01	0.24	-0.750			
0.3374	21590.72	3.6970	3.6969	-0.9769	26.01	0.24	-0.750			
0.3403	21781.84	3.6940	3.6940	-0.9928	26.01	0.24	-0.750			
0.3433	21972.58	3.6910	3.6910	-1.0094	26.01	0.24	-0.750			
0.3464	22170.26	3.6880	3.6880	-1.0311	26.01	0.24	-0.750			
0.3495	22367.13	3.6850	3.6850	-1.0569	26.01	0.24	-0.750			
0.3527	22571.48	3.6820	3.6820	-1.0729	26.00	0.23	-0.750			
0.3559	22779.94	3.6790	3.6789	-1.0929	26.00	0.23	-0.750			
0.3592	22991.02	3.6760	3.6763	-1.1253	25.99	0.22	-0.750			
0.3627	23212.23	3.6730	3.6729	-1.1406	25.98	0.21	-0.750			
0.3661	23432.49	3.6700	3.6700	-1.1526	25.98	0.21	-0.750			
0.3696	23654.35	3.6670	3.6669	-1.1720	25.97	0.20	-0.750			
0.3731	23880.11	3.6640	3.6640	-1.2000	25.97	0.20	-0.750			
0.3768	24112.84	3.6610	3.6609	-1.2303	25.97	0.20	-0.750			
0.3805	24350.27	3.6580	3.6579	-1.2508	25.97	0.20	-0.750			
0.3842	24591.34	3.6550	3.6552	-1.2788	25.97	0.20	-0.750			
0.3882	24847.05	3.6520	3.6520	-1.3210	25.96	0.19	-0.750			
0.3923	25104.54	3.6490	3.6489	-1.3399	25.94	0.17	-0.750			
0.3963	25361.57	3.6460	3.6462	-1.3674	25.93	0.16	-0.750			
0.4004	25625.02	3.6430	3.6429	-1.3917	25.92	0.15	-0.750			
0.4046	25894.97	3.6400	3.6398	-1.4104	25.92	0.15	-0.750			
0.4089	26167.23	3.6370	3.6371	-1.4500	25.91	0.14	-0.750			
0.4133	26448.24	3.6340	3.6340	-1.4749	25.90	0.13	-0.750			
0.4177	26734.97	3.6310	3.6309	-1.5283	25.90	0.13	-0.750			
0.4224	27033.00	3.6280	3.6282	-1.5633	25.89	0.12	-0.750			
0.4271	27335.11	3.6250	3.6249	-1.5867	25.88	0.11	-0.750			
0.4321	27651.46	3.6220	3.6220	-1.6192	25.87	0.10	-0.750			
0.4370	27966.21	3.6190	3.6189	-1.6462	25.87	0.10	-0.750			
0.4419	28283.69	3.6160	3.6163	-1.6784	25.87	0.10	-0.750	0.398	0.534	
0.4471	28611.82	3.6130	3.6132	-1.6936	25.87	0.10	-0.750			
0.4521	28935.94	3.6100	3.6103	-1.7142	25.86	0.09	-0.750			
0.4573	29269.04	3.6070	3.6071	-1.7566	25.85	0.08	-0.750			
0.4627	29610.56	3.6040	3.6041	-1.7900	25.84	0.07	-0.750			
0.4681	29960.85	3.6010	3.6014	-1.8219	25.83	0.06	-0.750			
0.4736	30313.00	3.5980	3.5980	-1.8614	25.82	0.05	-0.750			
0.4792	30670.41	3.5950	3.5950	-1.9040	25.82	0.05	-0.750			
0.4850	31040.85	3.5920	3.5921	-1.9542	25.82	0.05	-0.750			
0.4910	31421.06	3.5890	3.5891	-1.9798	25.81	0.04	-0.750			
0.4970	31805.63	3.5860	3.5859	-2.0332	25.80	0.03	-0.750			
0.5032	32201.77	3.5830	3.5831	-2.0560	25.79	0.02	-0.750			
0.5095	32605.73	3.5800	3.5802	-2.0923	25.79	0.02	-0.750			
0.5158	33009.01	3.5770	3.5770	-2.1020	25.78	0.01	-0.750			
0.5220	33407.73	3.5740	3.5741	-2.1474	25.78	0.01	-0.750			
0.5285	33826.13	3.5710	3.5710	-2.1835	25.77	0.00	-0.750			
0.5352	34252.74	3.5680	3.5678	-2.2271	25.77	-0.00	-0.750			
0.5420	34685.12	3.5650	3.5652	-2.2306	25.76	-0.01	-0.750			
0.5488	35121.65	3.5620	3.5621	-2.2436	25.76	-0.01	-0.750			
0.5555	35555.00	3.5590	3.5590	-2.2390	25.75	-0.02	-0.750			
0.5621	35975.97	3.5560	3.5560	-2.1953	25.75	-0.02	-0.750			
0.5688	36406.00	3.5530	3.5531	-2.2125	25.75	-0.02	-0.750			
0.5755	36829.27	3.5500	3.5500	-2.1994	25.76	-0.01	-0.750			
0.5822	37258.89	3.5470	3.5469	-2.1712	25.77	-0.00	-0.750			
0.5888	37680.26	3.5440	3.5440	-2.1355	25.77	0.00	-0.750			
0.5951	38085.08	3.5410	3.5412	-2.0992	25.77	0.00	-0.750			
0.6012	38475.40	3.5380	3.5381	-2.0822	25.77	0.00	-0.750			
0.6073	38868.59	3.5350	3.5347	-2.0591	25.77	0.00	-0.750			
0.6134	39257.08	3.5320	3.5321	-2.0576	25.78	0.01	-0.750			
0.6196	39651.48	3.5290	3.5291	-2.0228	25.79	0.02	-0.750			
0.6258	40050.66	3.5260	3.5261	-2.0031	25.79	0.02	-0.750			
0.6319	40440.47	3.5230	3.5231	-1.9664	25.80	0.03	-0.750			
0.6377	40814.95	3.5200	3.5197	-1.9227	25.81	0.04	-0.750			
0.6434	41176.37	3.5170	3.5170	-1.8588	25.81	0.04	-0.750			
0.6489	41530.19	3.5140	3.5142	-1.8106	25.82	0.05	-0.750			
0.6543	41872.88	3.5110	3.5110	-1.7648	25.84	0.07	-0.750			
0.6595	42209.96	3.5080	3.5081	-1.7134	25.85	0.08	-0.750			
0.6646	42534.67	3.5050	3.5051	-1.6577	25.87	0.10	-0.750			
0.6695	42847.05	3.5020	3.5019	-1.6009	25.88	0.11	-0.750			
0.6742	43151.90	3.4990	3.4988	-1.5472	25.90	0.13	-0.750			
0.6788	43443.47	3.4960	3.4960	-1.5099	25.91	0.14	-0.750			
0.6832	43725.56	3.4930	3.4933	-1.4626	25.93	0.16	-0.750			
0.6875	44002.71	3.4900	3.4897	-1.4107	25.94	0.17	-0.750			
0.6918	44273.05	3.4870	3.4871	-1.3795	25.96	0.19	-0.750			
0.6958	44530.31	3.4840	3.4840	-1.3401	25.98	0.21	-0.750			
0.6998	44786.44	3.4810	3.4810	-1.3024	25.99	0.22	-0.750			
0.7036	45032.86	3.4780	3.4779	-1.2499	26.01	0.24	-0.750			
0.7073	45264.44	3.4750	3.4750	-1.2019	26.02	0.25	-0.750			
0.7108	45493.45	3.4720	3.4721	-1.1703	26.04	0.27	-0.750			
0.7143	45717.26	3.4690	3.4689	-1.1355	26.05	0.28	-0.750			
0.7176	45927.50	3.4660	3.4659	-1.0894	26.07	0.30	-0.750			
0.7208	46131.32	3.4630	3.4631	-1.0520	26.08	0.31	-0.750			
0.7239	46331.71	3.4600	3.4600	-1.0279	26.10	0.33	-0.750			
0.7270	46527.24	3.4570	3.4569	-0.9952	26.11	0.34	-0.750			
0.7299	46712.69	3.4540	3.4540	-0.9617	26.13	0.36	-0.750			
0.7327	46892.86	3.4510	3.4510	-0.9317	26.14	0.37	-0.750			
0.7355	47070.60	3.4480	3.4480	-0.9119	26.16	0.39	-0.750			
0.7382	47242.31	3.4450	3.4450	-0.8945	26.17	0.40	-0.750			
0.7408	47410.08	3.4420	3.4420	-0.8760	26.18	0.41	-0.750			
0.7434	47574.83	3.4390	3.4390	-0.8680	26.19	0.42	-0.750			
0.7460	47741.43	3.4360	3.4359	-0.8708	26.21	0.44	-0.750			
0.7485	47904.76	3.4330	3.4329	-0.8739	26.21	0.44	-0.750			
0.7511	48072.60	3.4300	3.4300	-0.8880	26.22	0.45	-0.750			
0.7538	48242.93	3.4270	3.4270	-0.8989	26.23	0.46	-0.750			
0.7565	48417.38	3.4240	3.4240	-0.9147	26.23	0.46	-0.750			
0.7593	48596.03	3.4210	3.4211	-0.9351	26.24	0.47	-0.750			
0.7621	48777.58	3.4180	3.4180	-0.9533	26.25	0.48	-0.750			
0.7651	48965.01	3.4150	3.4150	-0.9604	26.26	0.49	-0.750			
0.7680	49152.21	3.4120	3.4119	-0.9611	26.27	0.50	-0.750			
0.7709	49339.19	3.4090	3.4091	-0.9592	26.29	0.52	-0.750			
0.7738	49522.08	3.4060	3.4060	-0.9576	26.30	0.53	-0.750			
0.7767	49708.01	3.4030	3.4029	-0.9387	26.31	0.54	-0.750			
0.7795	49886.29	3.4000	3.3999	-0.9134	26.32	0.55	-0.750			
0.7822	50058.35	3.3970	3.3969	-0.8871	26.33	0.56	-0.750			
0.7849	50231.86	3.3940	3.3943	-0.8650	26.34	0.57	-0.750			
0.7874	50392.72	3.3910	3.3909	-0.8317	26.35	0.58	-0.750			
0.7898	50548.80	3.3880	3.3880	-0.8004	26.35	0.58	-0.750			
0.7921	50695.91	3.3850	3.3850	-0.7636	26.36	0.59	-0.750			
0.7944	50844.34	3.3820	3.3820	-0.7461	26.36	0.59	-0.750			
0.7966	50984.17	3.3790	3.3791	-0.7201	26.37	0.60	-0.750			
0.7987	51119.32	3.3760	3.3759	-0.6957	26.38	0.61	-0.750			
0.8008	51250.82	3.3730	3.3729	-0.6717	26.39	0.62	-0.750			
0.8027	51375.46	3.3700	3.3700	-0.6474	26.39	0.62	-0.750			
0.8047	51499.55	3.3670	3.3670	-0.6231	26.40	0.63	-0.750			
0.8065	51618.27	3.3640	3.3640	-0.6007	26.41	0.64	-0.750			
0.8083	51730.49	3.3610	3.3610	-0.5754	26.42	0.65	-0.750			
0.8100	51837.12	3.3580	3.3580	-0.5497	26.42	0.65	-0.750			
0.8116	51939.57	3.3550	3.3549	-0.5330	26.43	0.66	-0.750			
0.8131	52039.34	3.3520	3.3519	-0.5127	26.44	0.67	-0.750			
0.8146	52135.37	3.3490	3.3491	-0.4960	26.45	0.68	-0.750			
0.8161	52230.64	3.3460	3.3460	-0.4822	26.45	0.68	-0.750			
0.8175	52321.53	3.3430	3.3432	-0.4682	26.46	0.69	-0.750			
0.8189	52410.82	3.3400	3.3399	-0.4522	26.47	0.70	-0.750			
0.8202	52494.82	3.3370	3.3370	-0.4372	26.47	0.70	-0.750			
0.8215	52577.35	3.3340	3.3341	-0.4207	26.48	0.71	-0.750			
0.8228	52657.12	3.3310	3.3309	-0.4091	26.48	0.71	-0.750			
0.8240	52733.65	3.3280	3.3280	-0.3930	26.49	0.72	-0.750			
0.8251	52807.48	3.3250	3.3251	-0.3802	26.49	0.72	-0.750			
0.8262	52878.00	3.3220	3.3220	-0.3679	26.49	0.72	-0.750			
0.8273	52948.28	3.3190	3.3190	-0.3584	26.50	0.73	-0.750			
0.8284	53015.62	3.3160	3.3160	-0.3464	26.50	0.73	-0.750			
0.8294	53081.02	3.3130	3.3130	-0.3396	26.50	0.73	-0.750			
0.8304	53145.07	3.3100	3.3100	-0.3296	26.51	0.74	-0.750			
0.8314	53207.90	3.3070	3.3071	-0.3226	26.51	0.74	-0.750			
0.8323	53269.15	3.3040	3.3039	-0.3131	26.51	0.74	-0.750			
0.8333	53328.12	3.3010	3.3011	-0.3047	26.52	0.75	-0.750			
0.8342	53386.34	3.2980	3.2980	-0.2976	26.52	0.75	-0.750			
0.8350	53442.39	3.2950	3.2950	-0.2892	26.53	0.76	-0.750			
0.8359	53496.48	3.2920	3.2920	-0.2802	26.53	0.76	-0.750			
0.8367	53549.47	3.2890	3.2891	-0.2743	26.54	0.77	-0.750			
0.8375	53601.18	3.2860	3.2860	-0.2676	26.55	0.78	-0.750			
0.8383	53652.12	3.2830	3.2830	-0.2636	26.55	0.78	-0.750			
0.8391	53702.19	3.2800	3.2800	-0.2575	26.56	0.79	-0.750			
0.8399	53751.24	3.2770	3.2769	-0.2529	26.56	0.79	-0.750			
0.8406	53799.35	3.2740	3.2740	-0.2488	26.57	0.80	-0.750			
0.8413	53846.40	3.2710	3.2711	-0.2442	26.58	0.81	-0.750			
0.8421	53892.66	3.2680	3.2681	-0.2396	26.58	0.81	-0.750			
0.8428	53938.32	3.2650	3.2648	-0.2355	26.59	0.82	-0.750			
0.8435	53982.86	3.2620	3.2620	-0.2313	26.59	0.82	-0.750			
0.8442	54026.82	3.2590	3.2592	-0.2282	26.60	0.83	-0.750			
0.8449	54071.18	3.2560	3.2559	-0.2250	26.60	0.83	-0.750			
0.8455	54113.91	3.2530	3.2529	-0.2200	26.61	0.84	-0.750			
0.8462	54155.59	3.2500	3.2500	-0.2150	26.61	0.84	-0.750			
0.8468	54196.24	3.2470	3.2470	-0.2113	26.62	0.85	-0.750			
0.8474	54236.20	3.2440	3.2440	-0.2079	26.62	0.85	-0.750			
0.8481	54275.64	3.2410	3.2409	-0.2043	26.63	0.86	-0.750			
0.8487	54313.78	3.2380	3.2380	-0.2021	26.64	0.87	-0.750			
0.8493	54352.64	3.2350	3.2350	-0.1984	26.64	0.87	-0.750			
0.8499	54391.19	3.2320	3.2319	-0.1972	26.65	0.88	-0.750			
0.8504	54428.50	3.2290	3.2290	-0.1951	26.65	0.88	-0.750			
0.8510	54465.91	3.2260	3.2261	-0.1921	26.66	0.89	-0.750			
0.8516	54502.29	3.2230	3.2229	-0.1893	26.66	0.89	-0.750			
0.8522	54538.27	3.2200	3.2200	-0.1865	26.66	0.89	-0.750			
0.8527	54573.72	3.2170	3.2170	-0.1850	26.67	0.90	-0.750			
0.8533	54608.79	3.2140	3.2139	-0.1823	26.67	0.90	-0.750			
0.8538	54644.26	3.2110	3.2110	-0.1812	26.68	0.91	-0.750			
0.8544	54678.76	3.2080	3.2080	-0.1783	26.68	0.91	-0.750			
0.8549	54712.35	3.2050	3.2051	-0.1757	26.69	0.92	-0.750			
0.8554	54745.89	3.2020	3.2020	-0.1751	26.69	0.92	-0.750			
0.8559	54778.91	3.1990	3.1991	-0.1733	26.70	0.93	-0.750			
0.8564	54812.13	3.1960	3.1959	-0.1727	26.70	0.93	-0.750			
0.8570	54845.04	3.1930	3.1928	-0.1709	26.71	0.94	-0.750			
0.8575	54877.91	3.1900	3.1900	-0.1706	26.71	0.94	-0.750			
0.8580	54911.07	3.1870	3.1872	-0.1695	26.71	0.94	-0.750			
0.8585	54943.55	3.1840	3.1838	-0.1670	26.72	0.95	-0.750			
0.8590	54975.61	3.1810	3.1808	-0.1648	26.72	0.95	-0.750			
0.8595	55006.87	3.1780	3.1781	-0.1621	26.72	0.95	-0.750			
0.8600	55037.83	3.1750	3.1751	-0.1595	26.73	0.96	-0.750			
0.8604	55068.18	3.1720	3.1720	-0.1566	26.73	0.96	-0.750			
0.8609	55097.94	3.1690	3.1689	-0.1555	26.74	0.97	-0.750			
0.8614	55127.15	3.1660	3.1660	-0.1531	26.75	0.98	-0.750			
0.8618	55156.53	3.1630	3.1628	-0.1518	26.75	0.98	-0.750			
0.8623	55185.57	3.1600	3.1601	-0.1504	26.76	0.99	-0.750			
0.8627	55214.22	3.1570	3.1570	-0.1495	26.76	0.99	-0.750			
0.8632	55242.85	3.1540	3.1540	-0.1482	26.77	1.00	-0.750			
0.8636	55271.39	3.1510	3.1509	-0.1469	26.78	1.01	-0.750			
0.8641	55299.43	3.1480	3.1480	-0.1451	26.78	1.01	-0.750			
0.8645	55326.84	3.1450	3.1450	-0.1443	26.79	1.02	-0.750			
0.8649	55354.55	3.1420	3.1420	-0.1435	26.79	1.02	-0.750			
0.8653	55382.08	3.1390	3.1390	-0.1422	26.80	1.03	-0.750			
0.8658	55409.21	3.1360	3.1358	-0.1411	26.80	1.03	-0.750			
0.8662	55436.05	3.1330	3.1331	-0.1399	26.81	1.04	-0.750			
0.8666	55463.06	3.1300	3.1301	-0.1387	26.81	1.04	-0.750			
0.8670	55489.61	3.1270	3.1268	-0.1375	26.82	1.05	-0.750			
0.8674	55515.86	3.1240	3.1240	-0.1359	26.82	1.05	-0.750			
0.8678	55541.57	3.1210	3.1211	-0.1344	26.83	1.06	-0.750			
0.8682	55567.35	3.1180	3.1179	-0.1331	26.83	1.06	-0.750			
0.8686	55592.61	3.1150	3.1151	-0.1323	26.84	1.07	-0.750			
0.8690	55617.94	3.1120	3.1120	-0.1315	26.84	1.07	-0.750			
0.8694	55642.81	3.1090	3.1090	-0.1310	26.84	1.07	-0.750			
0.8698	55668.10	3.1060	3.1059	-0.1304	26.85	1.08	-0.750			
0.8702	55693.03	3.1030	3.1030	-0.1298	26.85	1.08	-0.750			
0.8706	55717.98	3.1000	3.1000	-0.1288	26.86	1.09	-0.750			
0.8710	55742.77	3.0970	3.0971	-0.1282	26.86	1.09	-0.750			
0.8714	55767.50	3.0940	3.0940	-0.1274	26.86	1.09	-0.750			
0.8717	55791.61	3.0910	3.0909	-0.1259	26.87	1.10	-0.750			
0.8721	55815.69	3.0880	3.0880	-0.1249	26.87	1.10	-0.750			
0.8725	55839.49	3.0850	3.0850	-0.1238	26.88	1.11	-0.750			
0.8729	55863.29	3.0820	3.0820	-0.1231	26.89	1.12	-0.750			
0.8732	55886.80	3.0790	3.0791	-0.1222	26.89	1.12	-0.750			
0.8736	55910.20	3.0760	3.0759	-0.1213	26.90	1.13	-0.750			
0.8740	55933.28	3.0730	3.0730	-0.1204	26.90	1.13	-0.750			
0.8743	55956.33	3.0700	3.0700	-0.1197	26.91	1.14	-0.750			
0.8747	55979.29	3.0670	3.0670	-0.1189	26.92	1.15	-0.750			
0.8750	56002.05	3.0640	3.0640	-0.1182	26.92	1.15	-0.750			
0.8754	56024.73	3.0610	3.0611	-0.1174	26.93	1.16	-0.750			
0.8757	56047.18	3.0580	3.0579	-0.1165	26.93	1.16	-0.750			
0.8761	56069.46	3.0550	3.0550	-0.1156	26.94	1.17	-0.750			
0.8764	56091.56	3.0520	3.0520	-0.1146	26.94	1.17	-0.750			
0.8768	56113.25	3.0490	3.0490	-0.1143	26.95	1.18	-0.750			
0.8771	56135.31	3.0460	3.0460	-0.1138	26.95	1.18	-0.750			
0.8775	56157.08	3.0430	3.0431	-0.1132	26.96	1.19	-0.750			
0.8778	56178.78	3.0400	3.0398	-0.1128	26.97	1.20	-0.750			
0.8781	56200.67	3.0370	3.0371	-0.1118	26.97	1.20	-0.750			
0.8785	56222.02	3.0340	3.0340	-0.1106	26.98	1.21	-0.750			
0.8788	56243.04	3.0310	3.0310	-0.1105	26.98	1.21	-0.750			
0.8791	56264.20	3.0280	3.0280	-0.1098	26.99	1.22	-0.750			
0.8795	56284.93	3.0250	3.0249	-0.1087	26.99	1.22	-0.750			
0.8798	56305.77	3.0220	3.0219	-0.1084	27.00	1.23	-0.750			
0.8801	56326.75	3.0190	3.0191	-0.1077	27.00	1.23	-0.750			
0.8804	56347.37	3.0160	3.0160	-0.1070	27.01	1.24	-0.750			
0.8808	56368.29	3.0130	3.0132	-0.1065	27.01	1.24	-0.750			
0.8811	56388.56	3.0100	3.0099	-0.1048	27.02	1.25	-0.750			
0.8814	56408.37	3.0070	3.0069	-0.1033	27.02	1.25	-0.751			
0.8817	56428.08	3.0040	3.0041	-0.1020	27.03	1.26	-0.751			
0.8820	56447.52	3.0010	3.0010	-0.1000	27.03	1.26	-0.751			
