Ah_balance (normalized)	Ah_balance (mAh)	Voltage - fit (V)	Voltage -  interpolate (V)	dQ/dV (1/V)	Temperature (°C)	Temperature - diff (°C)	Current (C)	R_DC 0ms (mOhm)	R_DC 50ms (mOhm)	R_DC 50 ms PEC (mOhm)
0.0003	21.90	4.1600	4.1599	-0.1246	25.80	0.03	-0.750			
0.0008	51.50	4.1570	4.1568	-0.1709	25.80	0.03	-0.750			
0.0014	88.15	4.1540	4.1539	-0.2086	25.80	0.03	-0.750			
0.0021	131.96	4.1510	4.1511	-0.2447	25.80	0.03	-0.750			
0.0029	182.55	4.1480	4.1481	-0.2800	25.79	0.02	-0.750			
0.0038	240.52	4.1450	4.1449	-0.3142	25.79	0.02	-0.750			
0.0048	304.35	4.1420	4.1420	-0.3461	25.79	0.02	-0.750			
0.0058	373.37	4.1390	4.1391	-0.3789	25.78	0.01	-0.750			
0.0070	449.57	4.1360	4.1360	-0.4112	25.78	0.01	-0.750			
0.0083	532.61	4.1330	4.1330	-0.4394	25.78	0.01	-0.750			
0.0097	620.33	4.1300	4.1298	-0.4658	25.77	0.00	-0.750			
0.0112	713.69	4.1270	4.1270	-0.4896	25.77	-0.00	-0.750			
0.0127	810.41	4.1240	4.1240	-0.5094	25.76	-0.01	-0.750			
0.0142	909.75	4.1210	4.1210	-0.5280	25.76	-0.01	-0.750			
0.0158	1012.16	4.1180	4.1180	-0.5449	25.75	-0.02	-0.750			
0.0175	1119.15	4.1150	4.1149	-0.5657	25.75	-0.02	-0.750			
0.0192	1231.30	4.1120	4.1119	-0.5781	25.74	-0.03	-0.750			
0.0210	1344.18	4.1090	4.1090	-0.5923	25.74	-0.03	-0.750			
0.0228	1459.82	4.1060	4.1062	-0.6015	25.73	-0.04	-0.750			
0.0246	1576.61	4.1030	4.1029	-0.6115	25.73	-0.04	-0.750			
0.0265	1694.61	4.1000	4.0999	-0.6175	25.72	-0.05	-0.750			
0.0283	1812.67	4.0970	4.0971	-0.6240	25.72	-0.05	-0.750			
0.0302	1935.31	4.0940	4.0939	-0.6306	25.71	-0.06	-0.750			
0.0321	2056.38	4.0910	4.0911	-0.6367	25.71	-0.06	-0.750			
0.0340	2178.14	4.0880	4.0880	-0.6409	25.70	-0.07	-0.750			
0.0360	2301.70	4.0850	4.0850	-0.6492	25.70	-0.07	-0.750			
0.0379	2426.99	4.0820	4.0819	-0.6528	25.70	-0.07	-0.750			
0.0399	2552.75	4.0790	4.0791	-0.6634	25.70	-0.07	-0.750			
0.0419	2681.22	4.0760	4.0760	-0.6710	25.70	-0.07	-0.750			
0.0439	2812.31	4.0730	4.0730	-0.6745	25.70	-0.07	-0.750			
0.0460	2941.74	4.0700	4.0699	-0.6747	25.70	-0.07	-0.750			
0.0480	3071.47	4.0670	4.0672	-0.6783	25.70	-0.07	-0.750			
0.0500	3201.36	4.0640	4.0639	-0.6809	25.70	-0.07	-0.750			
0.0521	3331.36	4.0610	4.0610	-0.6899	25.70	-0.07	-0.750			
0.0541	3464.82	4.0580	4.0579	-0.6930	25.70	-0.07	-0.750			
0.0562	3598.52	4.0550	4.0550	-0.6979	25.70	-0.07	-0.750			
0.0584	3734.43	4.0520	4.0519	-0.7013	25.70	-0.07	-0.750			
0.0605	3870.25	4.0490	4.0493	-0.7027	25.70	-0.07	-0.750			
0.0626	4005.35	4.0460	4.0460	-0.7006	25.70	-0.07	-0.750			
0.0647	4138.18	4.0430	4.0430	-0.7016	25.70	-0.07	-0.750			
0.0668	4272.03	4.0400	4.0400	-0.7035	25.70	-0.07	-0.750			
0.0689	4407.91	4.0370	4.0369	-0.7040	25.70	-0.07	-0.750			
0.0710	4543.36	4.0340	4.0340	-0.7032	25.70	-0.07	-0.750			
0.0731	4677.77	4.0310	4.0312	-0.7076	25.70	-0.07	-0.750			
0.0752	4814.00	4.0280	4.0279	-0.7100	25.70	-0.07	-0.750			
0.0773	4948.63	4.0250	4.0250	-0.7195	25.69	-0.08	-0.750			
0.0795	5087.66	4.0220	4.0221	-0.7236	25.69	-0.08	-0.750			
0.0817	5228.73	4.0190	4.0189	-0.7268	25.69	-0.08	-0.750			
0.0839	5369.97	4.0160	4.0159	-0.7296	25.68	-0.09	-0.750			
0.0861	5511.21	4.0130	4.0130	-0.7272	25.68	-0.09	-0.750			
0.0883	5649.28	4.0100	4.0100	-0.7236	25.69	-0.08	-0.750			
0.0904	5787.29	4.0070	4.0070	-0.7286	25.69	-0.08	-0.750			
0.0926	5924.75	4.0040	4.0040	-0.7262	25.69	-0.08	-0.750			
0.0948	6067.90	4.0010	4.0008	-0.7303	25.70	-0.07	-0.750			
0.0970	6209.21	3.9980	3.9981	-0.7335	25.70	-0.07	-0.750			
0.0992	6349.23	3.9950	3.9950	-0.7356	25.70	-0.07	-0.750			
0.1014	6492.42	3.9920	3.9919	-0.7354	25.70	-0.07	-0.750			
0.1036	6632.27	3.9890	3.9889	-0.7372	25.70	-0.07	-0.750			
0.1058	6771.63	3.9860	3.9861	-0.7349	25.71	-0.06	-0.750			
0.1081	6915.83	3.9830	3.9830	-0.7418	25.71	-0.06	-0.750			
0.1103	7058.82	3.9800	3.9802	-0.7454	25.71	-0.06	-0.750			
0.1125	7201.20	3.9770	3.9770	-0.7452	25.71	-0.06	-0.750			
0.1147	7343.53	3.9740	3.9740	-0.7492	25.71	-0.06	-0.750			
0.1170	7489.63	3.9710	3.9710	-0.7498	25.72	-0.05	-0.750			
0.1193	7632.78	3.9680	3.9679	-0.7540	25.72	-0.05	-0.750			
0.1215	7778.00	3.9650	3.9648	-0.7514	25.72	-0.05	-0.750			
0.1238	7922.05	3.9620	3.9619	-0.7531	25.72	-0.05	-0.750			
0.1260	8064.75	3.9590	3.9591	-0.7616	25.72	-0.05	-0.750			
0.1283	8212.42	3.9560	3.9559	-0.7636	25.72	-0.05	-0.750			
0.1306	8359.90	3.9530	3.9529	-0.7598	25.73	-0.04	-0.750			
0.1329	8508.54	3.9500	3.9501	-0.7679	25.73	-0.04	-0.750			
0.1352	8655.26	3.9470	3.9473	-0.7677	25.73	-0.04	-0.750			
0.1376	8803.82	3.9440	3.9439	-0.7718	25.73	-0.04	-0.750			
0.1398	8949.61	3.9410	3.9409	-0.7701	25.74	-0.03	-0.750			
0.1421	9097.56	3.9380	3.9380	-0.7700	25.74	-0.03	-0.750			
0.1445	9247.74	3.9350	3.9350	-0.7795	25.74	-0.03	-0.750			
0.1468	9397.20	3.9320	3.9320	-0.7785	25.75	-0.02	-0.750			
0.1492	9546.24	3.9290	3.9291	-0.7773	25.75	-0.02	-0.750			
0.1515	9695.54	3.9260	3.9260	-0.7790	25.75	-0.02	-0.750			
0.1538	9844.98	3.9230	3.9229	-0.7775	25.75	-0.02	-0.750			
0.1562	9993.71	3.9200	3.9200	-0.7817	25.75	-0.02	-0.750			
0.1585	10143.93	3.9170	3.9169	-0.7838	25.75	-0.02	-0.750			
0.1608	10293.91	3.9140	3.9140	-0.7838	25.75	-0.02	-0.750			
0.1632	10444.75	3.9110	3.9110	-0.7923	25.75	-0.02	-0.750			
0.1656	10596.86	3.9080	3.9081	-0.8053	25.76	-0.01	-0.750			
0.1680	10753.91	3.9050	3.9047	-0.8064	25.76	-0.01	-0.750			
0.1705	10910.98	3.9020	3.9020	-0.8120	25.77	-0.00	-0.750			
0.1729	11067.76	3.8990	3.8993	-0.8078	25.77	0.00	-0.750			
0.1754	11225.07	3.8960	3.8960	-0.8060	25.77	0.00	-0.750			
0.1778	11378.64	3.8930	3.8929	-0.8056	25.77	0.00	-0.750			
0.1801	11528.70	3.8900	3.8900	-0.7969	25.78	0.01	-0.750			
0.1825	11682.28	3.8870	3.8870	-0.8009	25.78	0.01	-0.750			
0.1849	11835.36	3.8840	3.8841	-0.8047	25.78	0.01	-0.750			
0.1873	11990.14	3.8810	3.8810	-0.8052	25.79	0.02	-0.750			
0.1898	12145.66	3.8780	3.8779	-0.8107	25.79	0.02	-0.750			
0.1922	12302.18	3.8750	3.8750	-0.8088	25.80	0.03	-0.750			
0.1946	12456.57	3.8720	3.8720	-0.8082	25.80	0.03	-0.750			
0.1971	12613.91	3.8690	3.8691	-0.8108	25.81	0.04	-0.750			
0.1995	12768.43	3.8660	3.8660	-0.8119	25.81	0.04	-0.750			
0.2019	12923.29	3.8630	3.8629	-0.8114	25.81	0.04	-0.750			
0.2044	13080.44	3.8600	3.8600	-0.8125	25.81	0.04	-0.750			
0.2068	13236.26	3.8570	3.8570	-0.8083	25.81	0.04	-0.750			
0.2093	13394.13	3.8540	3.8541	-0.8099	25.81	0.04	-0.750			
0.2117	13547.45	3.8510	3.8509	-0.8069	25.81	0.04	-0.750			
0.2141	13700.47	3.8480	3.8479	-0.8054	25.81	0.04	-0.750			
0.2165	13854.35	3.8450	3.8451	-0.8048	25.82	0.05	-0.750			
0.2189	14007.74	3.8420	3.8420	-0.8085	25.82	0.05	-0.750			
0.2214	14166.53	3.8390	3.8390	-0.8127	25.82	0.05	-0.750			
0.2238	14323.35	3.8360	3.8360	-0.8119	25.82	0.05	-0.750			
0.2262	14477.69	3.8330	3.8330	-0.8161	25.83	0.06	-0.750			
0.2287	14635.16	3.8300	3.8300	-0.8120	25.83	0.06	-0.750			
0.2311	14791.50	3.8270	3.8269	-0.8078	25.84	0.07	-0.750			
0.2335	14946.81	3.8240	3.8240	-0.8048	25.85	0.08	-0.750			
0.2359	15100.45	3.8210	3.8211	-0.8019	25.85	0.08	-0.750			
0.2383	15253.14	3.8180	3.8180	-0.8063	25.86	0.09	-0.750			
0.2407	15407.33	3.8150	3.8149	-0.8011	25.86	0.09	-0.750			
0.2431	15560.99	3.8120	3.8119	-0.7947	25.86	0.09	-0.750			
0.2456	15715.41	3.8090	3.8090	-0.7957	25.87	0.10	-0.750			
0.2479	15868.08	3.8060	3.8062	-0.7961	25.87	0.10	-0.750			
0.2503	16020.20	3.8030	3.8028	-0.7896	25.87	0.10	-0.750			
0.2527	16170.15	3.8000	3.8000	-0.7852	25.88	0.11	-0.750			
0.2550	16320.79	3.7970	3.7970	-0.7827	25.88	0.11	-0.750			
0.2574	16473.20	3.7940	3.7940	-0.7836	25.89	0.12	-0.750			
0.2597	16622.96	3.7910	3.7910	-0.7784	25.89	0.12	-0.750			
0.2620	16770.29	3.7880	3.7880	-0.7773	25.89	0.12	-0.750			
0.2644	16918.81	3.7850	3.7850	-0.7758	25.90	0.13	-0.750			
0.2667	17069.05	3.7820	3.7819	-0.7711	25.90	0.13	-0.750			
0.2690	17216.56	3.7790	3.7791	-0.7650	25.90	0.13	-0.750			
0.2713	17364.42	3.7760	3.7760	-0.7632	25.91	0.14	-0.750			
0.2736	17510.52	3.7730	3.7730	-0.7553	25.91	0.14	-0.750			
0.2758	17651.13	3.7700	3.7700	-0.7584	25.92	0.15	-0.750			
0.2781	17796.88	3.7670	3.7670	-0.7572	25.92	0.15	-0.750			
0.2804	17943.07	3.7640	3.7640	-0.7621	25.92	0.15	-0.750			
0.2827	18090.59	3.7610	3.7610	-0.7682	25.93	0.16	-0.750			
0.2850	18240.59	3.7580	3.7582	-0.7677	25.93	0.16	-0.750			
0.2873	18388.51	3.7550	3.7550	-0.7632	25.93	0.16	-0.750			
0.2896	18534.36	3.7520	3.7520	-0.7634	25.93	0.16	-0.750			
0.2918	18677.51	3.7490	3.7491	-0.7639	25.93	0.16	-0.750			
0.2941	18825.13	3.7460	3.7459	-0.7716	25.93	0.16	-0.750			
0.2964	18972.26	3.7430	3.7430	-0.7733	25.93	0.16	-0.750			
0.2988	19121.48	3.7400	3.7401	-0.7826	25.93	0.16	-0.750			
0.3011	19273.12	3.7370	3.7371	-0.7957	25.94	0.17	-0.750			
0.3036	19427.39	3.7340	3.7340	-0.8033	25.94	0.17	-0.750			
0.3059	19580.20	3.7310	3.7310	-0.8120	25.94	0.17	-0.750			
0.3084	19738.77	3.7280	3.7279	-0.8196	25.95	0.18	-0.750			
0.3109	19898.00	3.7250	3.7250	-0.8301	25.95	0.18	-0.750			
0.3134	20058.20	3.7220	3.7219	-0.8385	25.95	0.18	-0.750			
0.3159	20219.58	3.7190	3.7191	-0.8511	25.95	0.18	-0.750			
0.3185	20383.40	3.7160	3.7159	-0.8602	25.96	0.19	-0.750			
0.3211	20549.55	3.7130	3.7130	-0.8785	25.96	0.19	-0.750			
0.3237	20717.98	3.7100	3.7101	-0.8920	25.96	0.19	-0.750			
0.3264	20892.67	3.7070	3.7070	-0.9155	25.96	0.19	-0.750			
0.3292	21071.35	3.7040	3.7039	-0.9305	25.96	0.19	-0.750			
0.3320	21249.59	3.7010	3.7011	-0.9469	25.96	0.19	-0.750			
0.3349	21435.05	3.6980	3.6981	-0.9702	25.96	0.19	-0.750			
0.3379	21623.08	3.6950	3.6949	-0.9915	25.96	0.19	-0.750			
0.3409	21814.81	3.6920	3.6920	-1.0086	25.96	0.19	-0.750			
0.3439	22010.32	3.6890	3.6890	-1.0241	25.95	0.18	-0.750			
0.3470	22208.98	3.6860	3.6860	-1.0387	25.95	0.18	-0.750			
0.3502	22411.60	3.6830	3.6830	-1.0705	25.95	0.18	-0.750			
0.3534	22619.06	3.6800	3.6799	-1.0838	25.94	0.17	-0.750			
0.3567	22829.16	3.6770	3.6769	-1.1010	25.94	0.17	-0.750			
0.3600	23041.83	3.6740	3.6744	-1.1221	25.93	0.16	-0.750			
0.3634	23259.78	3.6710	3.6710	-1.1461	25.92	0.15	-0.750			
0.3669	23480.76	3.6680	3.6679	-1.1709	25.92	0.15	-0.750			
0.3704	23705.88	3.6650	3.6651	-1.1886	25.91	0.14	-0.750			
0.3740	23936.62	3.6620	3.6619	-1.2257	25.91	0.14	-0.750			
0.3777	24175.77	3.6590	3.6590	-1.2496	25.90	0.13	-0.750			
0.3815	24418.41	3.6560	3.6560	-1.2759	25.90	0.13	-0.750			
0.3854	24667.52	3.6530	3.6531	-1.3084	25.89	0.12	-0.750			
0.3894	24921.04	3.6500	3.6499	-1.3280	25.88	0.11	-0.750			
0.3934	25177.95	3.6470	3.6470	-1.3450	25.88	0.11	-0.750			
0.3975	25438.83	3.6440	3.6443	-1.3746	25.87	0.10	-0.750			
0.4016	25703.03	3.6410	3.6409	-1.4001	25.87	0.10	-0.750			
0.4058	25973.50	3.6380	3.6380	-1.4320	25.86	0.09	-0.750			
0.4101	26248.49	3.6350	3.6351	-1.4545	25.86	0.09	-0.750			
0.4146	26534.84	3.6320	3.6320	-1.4972	25.85	0.08	-0.750			
0.4191	26824.31	3.6290	3.6290	-1.5336	25.85	0.08	-0.750			
0.4238	27124.07	3.6260	3.6260	-1.5645	25.84	0.07	-0.750			
0.4285	27426.03	3.6230	3.6231	-1.5961	25.83	0.06	-0.750			
0.4334	27737.33	3.6200	3.6200	-1.6184	25.82	0.05	-0.750			
0.4383	28051.67	3.6170	3.6170	-1.6415	25.82	0.05	-0.750	0.390	0.523	
0.4432	28367.20	3.6140	3.6139	-1.6789	25.81	0.04	-0.750			
0.4483	28693.32	3.6110	3.6111	-1.6971	25.81	0.04	-0.750			
0.4534	29016.98	3.6080	3.6082	-1.7328	25.81	0.04	-0.750			
0.4586	29352.78	3.6050	3.6049	-1.7752	25.81	0.04	-0.750			
0.4641	29700.40	3.6020	3.6021	-1.8012	25.80	0.03	-0.750			
0.4695	30048.27	3.5990	3.5989	-1.8480	25.79	0.02	-0.750			
0.4751	30406.65	3.5960	3.5960	-1.8982	25.79	0.02	-0.750			
0.4808	30774.32	3.5930	3.5930	-1.9264	25.78	0.01	-0.750			
0.4867	31151.97	3.5900	3.5898	-1.9785	25.77	0.00	-0.750			
0.4927	31533.17	3.5870	3.5871	-2.0034	25.77	0.00	-0.750			
0.4988	31924.08	3.5840	3.5842	-2.0393	25.77	0.00	-0.750			
0.5051	32324.52	3.5810	3.5808	-2.0637	25.77	0.00	-0.750			
0.5112	32718.28	3.5780	3.5781	-2.0832	25.77	-0.00	-0.750			
0.5176	33123.80	3.5750	3.5750	-2.0964	25.76	-0.01	-0.750			
0.5239	33526.74	3.5720	3.5720	-2.1258	25.75	-0.02	-0.750			
0.5303	33938.49	3.5690	3.5689	-2.1446	25.75	-0.02	-0.750			
0.5368	34356.99	3.5660	3.5661	-2.1368	25.75	-0.02	-0.750			
0.5432	34762.75	3.5630	3.5629	-2.1364	25.75	-0.02	-0.750			
0.5496	35173.79	3.5600	3.5602	-2.1407	25.75	-0.02	-0.750			
0.5560	35583.44	3.5570	3.5567	-2.1503	25.75	-0.02	-0.750			
0.5625	35997.28	3.5540	3.5539	-2.1727	25.75	-0.02	-0.750			
0.5690	36416.54	3.5510	3.5510	-2.1731	25.75	-0.02	-0.750			
0.5756	36841.31	3.5480	3.5482	-2.1957	25.75	-0.02	-0.750			
0.5824	37273.67	3.5450	3.5451	-2.1666	25.76	-0.01	-0.750			
0.5889	37689.24	3.5420	3.5418	-2.1298	25.76	-0.01	-0.750			
0.5953	38098.54	3.5390	3.5391	-2.0979	25.77	-0.00	-0.750			
0.6015	38495.83	3.5360	3.5360	-2.0795	25.77	0.00	-0.750			
0.6077	38889.61	3.5330	3.5329	-2.0528	25.78	0.01	-0.750			
0.6137	39276.50	3.5300	3.5302	-2.0231	25.78	0.01	-0.750			
0.6198	39664.04	3.5270	3.5272	-2.0005	25.79	0.02	-0.750			
0.6259	40057.21	3.5240	3.5237	-1.9823	25.80	0.03	-0.750			
0.6318	40433.70	3.5210	3.5212	-1.9301	25.80	0.03	-0.750			
0.6375	40798.37	3.5180	3.5180	-1.8988	25.82	0.05	-0.750			
0.6431	41158.95	3.5150	3.5150	-1.8436	25.83	0.06	-0.750			
0.6485	41505.15	3.5120	3.5121	-1.7703	25.84	0.07	-0.750			
0.6539	41847.03	3.5090	3.5089	-1.7358	25.86	0.09	-0.750			
0.6590	42174.68	3.5060	3.5059	-1.6778	25.87	0.10	-0.750			
0.6639	42491.94	3.5030	3.5029	-1.6364	25.88	0.11	-0.750			
0.6687	42799.24	3.5000	3.5002	-1.5902	25.90	0.13	-0.750			
0.6734	43097.27	3.4970	3.4971	-1.5246	25.91	0.14	-0.750			
0.6779	43388.59	3.4940	3.4943	-1.4816	25.94	0.17	-0.750			
0.6823	43668.66	3.4910	3.4909	-1.4488	25.96	0.19	-0.750			
0.6866	43941.57	3.4880	3.4879	-1.3888	25.97	0.20	-0.750			
0.6907	44207.04	3.4850	3.4849	-1.3498	25.99	0.22	-0.750			
0.6947	44458.99	3.4820	3.4819	-1.3035	26.00	0.23	-0.750			
0.6985	44701.75	3.4790	3.4793	-1.2578	26.01	0.24	-0.750			
0.7022	44943.72	3.4760	3.4758	-1.2307	26.03	0.26	-0.750			
0.7058	45172.09	3.4730	3.4729	-1.1835	26.05	0.28	-0.750			
0.7093	45392.04	3.4700	3.4701	-1.1420	26.07	0.30	-0.750			
0.7128	45616.12	3.4670	3.4670	-1.1223	26.08	0.31	-0.750			
0.7161	45828.02	3.4640	3.4639	-1.0797	26.10	0.33	-0.750			
0.7192	46031.61	3.4610	3.4610	-1.0441	26.11	0.34	-0.750			
0.7223	46226.50	3.4580	3.4581	-1.0040	26.13	0.36	-0.750			
0.7252	46413.29	3.4550	3.4549	-0.9802	26.14	0.37	-0.750			
0.7281	46600.27	3.4520	3.4520	-0.9510	26.15	0.38	-0.750			
0.7309	46778.45	3.4490	3.4489	-0.9203	26.16	0.39	-0.750			
0.7336	46952.78	3.4460	3.4459	-0.9014	26.17	0.40	-0.750			
0.7363	47124.16	3.4430	3.4430	-0.8845	26.18	0.41	-0.750			
0.7389	47289.67	3.4400	3.4399	-0.8764	26.19	0.42	-0.750			
0.7415	47455.60	3.4370	3.4370	-0.8637	26.20	0.43	-0.750			
0.7440	47616.46	3.4340	3.4340	-0.8615	26.21	0.44	-0.750			
0.7466	47784.30	3.4310	3.4310	-0.8772	26.23	0.46	-0.750			
0.7492	47950.39	3.4280	3.4281	-0.8939	26.24	0.47	-0.750			
0.7519	48123.52	3.4250	3.4249	-0.9060	26.25	0.48	-0.750			
0.7547	48298.82	3.4220	3.4220	-0.9202	26.26	0.49	-0.750			
0.7575	48476.95	3.4190	3.4190	-0.9371	26.28	0.51	-0.750			
0.7604	48664.66	3.4160	3.4162	-0.9494	26.29	0.52	-0.750			
0.7632	48846.70	3.4130	3.4129	-0.9507	26.30	0.53	-0.750			
0.7661	49030.95	3.4100	3.4100	-0.9483	26.30	0.53	-0.750			
0.7690	49213.13	3.4070	3.4069	-0.9381	26.30	0.53	-0.750			
0.7718	49394.70	3.4040	3.4041	-0.9332	26.31	0.54	-0.750			
0.7746	49571.60	3.4010	3.4009	-0.9130	26.32	0.55	-0.750			
0.7773	49745.87	3.3980	3.3979	-0.8908	26.33	0.56	-0.750			
0.7800	49917.36	3.3950	3.3950	-0.8654	26.34	0.57	-0.750			
0.7825	50078.94	3.3920	3.3920	-0.8323	26.35	0.58	-0.750			
0.7850	50239.18	3.3890	3.3892	-0.8113	26.36	0.59	-0.750			
0.7874	50390.85	3.3860	3.3860	-0.7852	26.37	0.60	-0.750			
0.7896	50537.56	3.3830	3.3829	-0.7557	26.37	0.60	-0.750			
0.7919	50681.35	3.3800	3.3800	-0.7301	26.38	0.61	-0.750			
0.7941	50819.87	3.3770	3.3770	-0.7070	26.39	0.62	-0.750			
0.7961	50953.04	3.3740	3.3740	-0.6799	26.40	0.63	-0.750			
0.7981	51081.46	3.3710	3.3709	-0.6541	26.40	0.63	-0.750			
0.8000	51202.70	3.3680	3.3680	-0.6244	26.41	0.64	-0.750			
0.8019	51319.51	3.3650	3.3650	-0.6058	26.42	0.65	-0.750			
0.8036	51433.54	3.3620	3.3620	-0.5836	26.43	0.66	-0.750			
0.8054	51543.96	3.3590	3.3589	-0.5685	26.44	0.67	-0.750			
0.8070	51650.58	3.3560	3.3560	-0.5466	26.45	0.68	-0.750			
0.8087	51754.35	3.3530	3.3530	-0.5277	26.45	0.68	-0.750			
0.8102	51854.22	3.3500	3.3502	-0.5077	26.46	0.69	-0.750			
0.8117	51950.07	3.3470	3.3469	-0.4876	26.47	0.70	-0.750			
0.8131	52040.07	3.3440	3.3441	-0.4707	26.47	0.70	-0.750			
0.8145	52128.63	3.3410	3.3410	-0.4549	26.48	0.71	-0.750			
0.8158	52214.19	3.3380	3.3379	-0.4394	26.49	0.72	-0.750			
0.8171	52297.35	3.3350	3.3350	-0.4254	26.49	0.72	-0.750			
0.8184	52377.44	3.3320	3.3321	-0.4131	26.50	0.73	-0.750			
0.8196	52455.02	3.3290	3.3290	-0.4015	26.51	0.74	-0.750			
0.8208	52530.31	3.3260	3.3259	-0.3898	26.51	0.74	-0.750			
0.8219	52603.68	3.3230	3.3230	-0.3785	26.52	0.75	-0.750			
0.8231	52676.03	3.3200	3.3199	-0.3696	26.52	0.75	-0.750			
0.8242	52746.37	3.3170	3.3171	-0.3578	26.53	0.76	-0.750			
0.8252	52814.60	3.3140	3.3140	-0.3460	26.53	0.76	-0.750			
0.8262	52878.76	3.3110	3.3111	-0.3365	26.54	0.77	-0.750			
0.8272	52942.66	3.3080	3.3079	-0.3257	26.54	0.77	-0.750			
0.8282	53003.17	3.3050	3.3050	-0.3169	26.55	0.78	-0.750			
0.8291	53063.45	3.3020	3.3020	-0.3095	26.55	0.78	-0.750			
0.8300	53122.47	3.2990	3.2991	-0.3023	26.56	0.79	-0.750			
0.8309	53180.00	3.2960	3.2960	-0.2951	26.56	0.79	-0.750			
0.8318	53235.29	3.2930	3.2930	-0.2884	26.56	0.79	-0.750			
0.8326	53289.44	3.2900	3.2900	-0.2810	26.57	0.80	-0.750			
0.8335	53343.69	3.2870	3.2869	-0.2752	26.57	0.80	-0.750			
0.8343	53394.97	3.2840	3.2840	-0.2684	26.58	0.81	-0.750			
0.8351	53446.30	3.2810	3.2811	-0.2643	26.58	0.81	-0.750			
0.8359	53496.44	3.2780	3.2780	-0.2589	26.59	0.82	-0.750			
0.8366	53545.21	3.2750	3.2748	-0.2531	26.59	0.82	-0.750			
0.8374	53593.07	3.2720	3.2721	-0.2485	26.60	0.83	-0.750			
0.8381	53640.64	3.2690	3.2691	-0.2442	26.60	0.83	-0.750			
0.8389	53687.35	3.2660	3.2660	-0.2406	26.61	0.84	-0.750			
0.8396	53733.67	3.2630	3.2629	-0.2367	26.61	0.84	-0.750			
0.8403	53777.77	3.2600	3.2600	-0.2315	26.62	0.85	-0.750			
0.8410	53821.79	3.2570	3.2569	-0.2282	26.62	0.85	-0.750			
0.8416	53865.28	3.2540	3.2540	-0.2250	26.63	0.86	-0.750			
0.8423	53908.39	3.2510	3.2509	-0.2200	26.63	0.86	-0.750			
0.8430	53950.17	3.2480	3.2480	-0.2161	26.64	0.87	-0.750			
0.8436	53990.90	3.2450	3.2451	-0.2139	26.64	0.87	-0.750			
0.8442	54031.69	3.2420	3.2420	-0.2110	26.65	0.88	-0.750			
0.8449	54071.53	3.2390	3.2390	-0.2083	26.65	0.88	-0.750			
0.8455	54110.95	3.2360	3.2359	-0.2061	26.65	0.88	-0.750			
0.8461	54150.82	3.2330	3.2331	-0.2029	26.66	0.89	-0.750			
0.8467	54189.78	3.2300	3.2300	-0.1991	26.66	0.89	-0.750			
0.8473	54228.47	3.2270	3.2270	-0.1960	26.67	0.90	-0.750			
0.8479	54265.51	3.2240	3.2239	-0.1937	26.67	0.90	-0.750			
0.8485	54301.59	3.2210	3.2210	-0.1900	26.68	0.91	-0.750			
0.8490	54337.96	3.2180	3.2180	-0.1882	26.68	0.91	-0.750			
0.8496	54373.45	3.2150	3.2150	-0.1859	26.69	0.92	-0.750			
0.8501	54409.26	3.2120	3.2120	-0.1837	26.70	0.93	-0.750			
0.8507	54444.76	3.2090	3.2090	-0.1826	26.70	0.93	-0.750			
0.8512	54479.77	3.2060	3.2059	-0.1805	26.71	0.94	-0.750			
0.8518	54514.16	3.2030	3.2031	-0.1777	26.71	0.94	-0.750			
0.8523	54547.43	3.2000	3.1999	-0.1765	26.72	0.95	-0.750			
0.8528	54581.37	3.1970	3.1970	-0.1743	26.72	0.95	-0.750			
0.8534	54614.50	3.1940	3.1941	-0.1733	26.73	0.96	-0.750			
0.8539	54647.66	3.1910	3.1909	-0.1721	26.73	0.96	-0.750			
0.8544	54680.84	3.1880	3.1881	-0.1699	26.74	0.97	-0.750			
0.8549	54713.38	3.1850	3.1849	-0.1675	26.74	0.97	-0.750			
0.8554	54745.19	3.1820	3.1820	-0.1662	26.75	0.98	-0.750			
0.8559	54776.91	3.1790	3.1791	-0.1642	26.75	0.98	-0.750			
0.8564	54808.01	3.1760	3.1760	-0.1614	26.76	0.99	-0.750			
0.8569	54838.86	3.1730	3.1729	-0.1607	26.76	0.99	-0.750			
0.8573	54869.26	3.1700	3.1701	-0.1581	26.77	1.00	-0.750			
0.8578	54899.52	3.1670	3.1673	-0.1572	26.77	1.00	-0.750			
0.8583	54929.89	3.1640	3.1639	-0.1562	26.77	1.00	-0.750			
0.8587	54959.82	3.1610	3.1611	-0.1548	26.77	1.00	-0.750			
0.8592	54989.17	3.1580	3.1580	-0.1528	26.78	1.01	-0.750			
0.8597	55018.44	3.1550	3.1550	-0.1512	26.78	1.01	-0.750			
0.8601	55047.54	3.1520	3.1521	-0.1503	26.78	1.01	-0.750			
0.8606	55075.83	3.1490	3.1491	-0.1483	26.79	1.02	-0.750			
0.8610	55104.30	3.1460	3.1459	-0.1475	26.79	1.02	-0.750			
0.8614	55132.60	3.1430	3.1430	-0.1457	26.80	1.03	-0.750			
0.8619	55160.31	3.1400	3.1400	-0.1444	26.81	1.04	-0.750			
0.8623	55187.80	3.1370	3.1370	-0.1434	26.81	1.04	-0.750			
0.8627	55215.25	3.1340	3.1341	-0.1425	26.82	1.05	-0.750			
0.8632	55242.59	3.1310	3.1309	-0.1411	26.83	1.06	-0.750			
0.8636	55269.38	3.1280	3.1280	-0.1399	26.83	1.06	-0.750			
0.8640	55296.18	3.1250	3.1251	-0.1390	26.84	1.07	-0.750			
0.8644	55322.77	3.1220	3.1220	-0.1381	26.85	1.08	-0.750			
0.8648	55349.44	3.1190	3.1189	-0.1370	26.85	1.08	-0.750			
0.8652	55375.58	3.1160	3.1161	-0.1354	26.86	1.09	-0.750			
0.8656	55401.41	3.1130	3.1130	-0.1340	26.87	1.10	-0.750			
0.8660	55426.92	3.1100	3.1100	-0.1331	26.87	1.10	-0.750			
0.8664	55452.36	3.1070	3.1070	-0.1325	26.88	1.11	-0.750			
0.8668	55477.47	3.1040	3.1040	-0.1313	26.88	1.11	-0.750			
0.8672	55502.80	3.1010	3.1009	-0.1302	26.89	1.12	-0.750			
0.8676	55527.73	3.0980	3.0979	-0.1294	26.89	1.12	-0.750			
0.8680	55552.56	3.0950	3.0952	-0.1289	26.90	1.13	-0.750			
0.8684	55577.26	3.0920	3.0920	-0.1279	26.90	1.13	-0.750			
0.8688	55601.84	3.0890	3.0889	-0.1271	26.91	1.14	-0.750			
0.8692	55625.99	3.0860	3.0860	-0.1258	26.91	1.14	-0.750			
0.8695	55650.07	3.0830	3.0831	-0.1250	26.92	1.15	-0.750			
0.8699	55673.89	3.0800	3.0800	-0.1242	26.92	1.15	-0.750			
0.8703	55697.83	3.0770	3.0770	-0.1238	26.93	1.16	-0.750			
0.8706	55721.41	3.0740	3.0740	-0.1231	26.93	1.16	-0.750			
0.8710	55744.78	3.0710	3.0710	-0.1221	26.94	1.17	-0.750			
0.8714	55768.29	3.0680	3.0680	-0.1212	26.94	1.17	-0.750			
0.8717	55791.64	3.0650	3.0650	-0.1206	26.95	1.18	-0.750			
0.8721	55814.69	3.0620	3.0620	-0.1196	26.95	1.18	-0.750			
0.8725	55837.64	3.0590	3.0591	-0.1187	26.96	1.19	-0.750			
0.8728	55860.29	3.0560	3.0560	-0.1179	26.96	1.19	-0.750			
0.8732	55882.79	3.0530	3.0530	-0.1169	26.97	1.20	-0.750			
0.8735	55904.95	3.0500	3.0502	-0.1160	26.98	1.21	-0.750			
0.8739	55927.18	3.0470	3.0469	-0.1156	26.98	1.21	-0.750			
0.8742	55949.44	3.0440	3.0440	-0.1151	26.99	1.22	-0.750			
0.8746	55971.46	3.0410	3.0410	-0.1144	26.99	1.22	-0.750			
0.8749	55993.32	3.0380	3.0380	-0.1139	27.00	1.23	-0.750			
0.8752	56015.14	3.0350	3.0350	-0.1134	27.01	1.24	-0.750			
0.8756	56036.93	3.0320	3.0318	-0.1127	27.01	1.24	-0.750			
0.8759	56058.51	3.0290	3.0290	-0.1120	27.02	1.25	-0.750			
0.8762	56079.91	3.0260	3.0260	-0.1113	27.02	1.25	-0.750			
0.8766	56101.23	3.0230	3.0230	-0.1107	27.03	1.26	-0.750			
0.8769	56122.46	3.0200	3.0200	-0.1100	27.03	1.26	-0.750			
0.8772	56143.60	3.0170	3.0170	-0.1093	27.04	1.27	-0.750			
0.8776	56164.46	3.0140	3.0140	-0.1088	27.05	1.28	-0.750			
0.8779	56185.17	3.0110	3.0110	-0.1081	27.05	1.28	-0.750			
0.8782	56205.87	3.0080	3.0081	-0.1076	27.06	1.29	-0.751			
0.8785	56226.48	3.0050	3.0049	-0.1070	27.06	1.29	-0.751			
0.8789	56246.98	3.0020	3.0021	-0.1065	27.07	1.30	-0.751			
