Ah_balance (normalized)	Ah_balance (mAh)	Voltage - fit (V)	Voltage -  interpolate (V)	dQ/dV (1/V)	Temperature (°C)	Temperature - diff (°C)	Current (C)	R_DC 0ms (mOhm)	R_DC 50ms (mOhm)	R_DC 50 ms PEC (mOhm)
0.0003	17.13	4.1600	4.1597	-0.0996	25.98	0.01	-0.750			
0.0006	41.13	4.1570	4.1568	-0.1455	25.97	0.00	-0.750			
0.0012	74.10	4.1540	4.1539	-0.1869	25.97	0.00	-0.750			
0.0018	114.73	4.1510	4.1509	-0.2234	25.97	0.00	-0.750			
0.0025	161.05	4.1480	4.1481	-0.2599	25.97	-0.00	-0.750			
0.0034	215.28	4.1450	4.1450	-0.2972	25.97	-0.00	-0.750			
0.0043	275.77	4.1420	4.1421	-0.3291	25.96	-0.01	-0.750			
0.0054	342.41	4.1390	4.1389	-0.3597	25.96	-0.01	-0.750			
0.0065	414.91	4.1360	4.1360	-0.3880	25.96	-0.01	-0.750			
0.0077	492.40	4.1330	4.1331	-0.4190	25.95	-0.02	-0.750			
0.0090	575.96	4.1300	4.1300	-0.4448	25.95	-0.02	-0.750			
0.0104	664.64	4.1270	4.1270	-0.4708	25.94	-0.03	-0.750			
0.0118	758.18	4.1240	4.1240	-0.4939	25.94	-0.03	-0.750			
0.0134	857.19	4.1210	4.1210	-0.5127	25.93	-0.04	-0.750			
0.0149	956.79	4.1180	4.1181	-0.5323	25.93	-0.04	-0.750			
0.0166	1062.15	4.1150	4.1150	-0.5444	25.93	-0.04	-0.750			
0.0182	1166.84	4.1120	4.1119	-0.5588	25.92	-0.05	-0.750			
0.0199	1274.65	4.1090	4.1090	-0.5705	25.92	-0.05	-0.750			
0.0217	1387.75	4.1060	4.1060	-0.5861	25.91	-0.06	-0.750			
0.0235	1502.77	4.1030	4.1030	-0.5978	25.91	-0.06	-0.750			
0.0253	1619.07	4.1000	4.1000	-0.6059	25.90	-0.07	-0.750			
0.0271	1736.24	4.0970	4.0972	-0.6058	25.90	-0.07	-0.750			
0.0290	1854.62	4.0940	4.0939	-0.6107	25.90	-0.07	-0.750			
0.0308	1968.63	4.0910	4.0911	-0.6186	25.90	-0.07	-0.750			
0.0326	2085.83	4.0880	4.0881	-0.6297	25.90	-0.07	-0.750			
0.0345	2209.76	4.0850	4.0848	-0.6399	25.89	-0.08	-0.750			
0.0365	2332.81	4.0820	4.0820	-0.6459	25.89	-0.08	-0.750			
0.0384	2458.97	4.0790	4.0791	-0.6558	25.89	-0.08	-0.750			
0.0404	2586.55	4.0760	4.0760	-0.6647	25.89	-0.08	-0.750			
0.0424	2715.35	4.0730	4.0729	-0.6663	25.89	-0.08	-0.750			
0.0444	2841.25	4.0700	4.0700	-0.6691	25.88	-0.09	-0.750			
0.0464	2970.56	4.0670	4.0670	-0.6712	25.88	-0.09	-0.750			
0.0485	3101.59	4.0640	4.0640	-0.6767	25.88	-0.09	-0.750			
0.0505	3232.27	4.0610	4.0609	-0.6771	25.87	-0.10	-0.750			
0.0525	3361.40	4.0580	4.0582	-0.6786	25.87	-0.10	-0.750			
0.0546	3491.31	4.0550	4.0551	-0.6813	25.87	-0.10	-0.750			
0.0566	3622.41	4.0520	4.0520	-0.6878	25.87	-0.10	-0.750			
0.0586	3753.29	4.0490	4.0489	-0.6907	25.87	-0.10	-0.750			
0.0608	3889.04	4.0460	4.0460	-0.6946	25.87	-0.10	-0.750			
0.0629	4022.98	4.0430	4.0429	-0.6978	25.87	-0.10	-0.750			
0.0650	4157.38	4.0400	4.0402	-0.6971	25.87	-0.10	-0.750			
0.0671	4292.71	4.0370	4.0370	-0.6889	25.87	-0.10	-0.750			
0.0691	4421.69	4.0340	4.0340	-0.6957	25.87	-0.10	-0.750			
0.0712	4554.62	4.0310	4.0311	-0.7020	25.87	-0.10	-0.750			
0.0733	4688.40	4.0280	4.0279	-0.7063	25.87	-0.10	-0.750			
0.0754	4825.19	4.0250	4.0249	-0.7152	25.87	-0.10	-0.750			
0.0776	4964.28	4.0220	4.0222	-0.7193	25.87	-0.10	-0.750			
0.0798	5104.53	4.0190	4.0190	-0.7234	25.87	-0.10	-0.750			
0.0820	5245.97	4.0160	4.0160	-0.7292	25.87	-0.10	-0.750			
0.0841	5382.58	4.0130	4.0130	-0.7203	25.87	-0.10	-0.750			
0.0863	5523.00	4.0100	4.0099	-0.7208	25.87	-0.10	-0.750			
0.0885	5661.31	4.0070	4.0069	-0.7207	25.87	-0.10	-0.750			
0.0906	5799.18	4.0040	4.0041	-0.7195	25.87	-0.10	-0.750			
0.0928	5936.43	4.0010	4.0009	-0.7241	25.87	-0.10	-0.750			
0.0949	6075.19	3.9980	3.9980	-0.7293	25.87	-0.10	-0.750			
0.0971	6215.21	3.9950	3.9950	-0.7300	25.87	-0.10	-0.750			
0.0993	6357.95	3.9920	3.9920	-0.7317	25.87	-0.10	-0.750			
0.1016	6500.20	3.9890	3.9892	-0.7378	25.87	-0.10	-0.750			
0.1038	6640.88	3.9860	3.9859	-0.7367	25.87	-0.10	-0.750			
0.1060	6782.38	3.9830	3.9829	-0.7332	25.88	-0.09	-0.750			
0.1081	6921.22	3.9800	3.9800	-0.7345	25.88	-0.09	-0.750			
0.1103	7060.94	3.9770	3.9771	-0.7379	25.88	-0.09	-0.750			
0.1126	7205.12	3.9740	3.9740	-0.7455	25.89	-0.08	-0.750			
0.1148	7348.60	3.9710	3.9710	-0.7476	25.89	-0.08	-0.750			
0.1171	7491.24	3.9680	3.9680	-0.7511	25.89	-0.08	-0.750			
0.1193	7637.63	3.9650	3.9651	-0.7565	25.89	-0.08	-0.750			
0.1216	7784.64	3.9620	3.9620	-0.7601	25.90	-0.07	-0.750			
0.1239	7929.74	3.9590	3.9590	-0.7579	25.90	-0.07	-0.750			
0.1262	8076.20	3.9560	3.9560	-0.7565	25.90	-0.07	-0.750			
0.1285	8221.86	3.9530	3.9530	-0.7545	25.90	-0.07	-0.750			
0.1307	8364.63	3.9500	3.9500	-0.7551	25.90	-0.07	-0.750			
0.1329	8508.34	3.9470	3.9470	-0.7509	25.90	-0.07	-0.750			
0.1352	8652.51	3.9440	3.9440	-0.7559	25.91	-0.06	-0.750			
0.1375	8797.85	3.9410	3.9408	-0.7597	25.91	-0.06	-0.750			
0.1398	8944.46	3.9380	3.9384	-0.7649	25.91	-0.06	-0.750			
0.1421	9092.34	3.9350	3.9350	-0.7699	25.91	-0.06	-0.750			
0.1444	9243.52	3.9320	3.9319	-0.7685	25.91	-0.06	-0.750			
0.1467	9391.79	3.9290	3.9290	-0.7612	25.92	-0.05	-0.750			
0.1490	9535.18	3.9260	3.9261	-0.7706	25.92	-0.05	-0.750			
0.1513	9681.21	3.9230	3.9232	-0.7747	25.92	-0.05	-0.750			
0.1536	9829.72	3.9200	3.9197	-0.7774	25.92	-0.05	-0.750			
0.1559	9979.03	3.9170	3.9170	-0.7853	25.93	-0.04	-0.750			
0.1583	10132.59	3.9140	3.9141	-0.7895	25.93	-0.04	-0.750			
0.1607	10286.46	3.9110	3.9111	-0.7933	25.93	-0.04	-0.750			
0.1632	10441.85	3.9080	3.9079	-0.7936	25.94	-0.03	-0.750			
0.1655	10590.79	3.9050	3.9051	-0.7845	25.94	-0.03	-0.750			
0.1678	10739.76	3.9020	3.9020	-0.7879	25.94	-0.03	-0.750			
0.1702	10892.17	3.8990	3.8990	-0.7897	25.94	-0.03	-0.750			
0.1725	11042.84	3.8960	3.8960	-0.7911	25.95	-0.02	-0.750			
0.1749	11196.35	3.8930	3.8930	-0.7930	25.95	-0.02	-0.750			
0.1773	11349.57	3.8900	3.8901	-0.7961	25.95	-0.02	-0.750			
0.1797	11502.62	3.8870	3.8870	-0.7973	25.95	-0.02	-0.750			
0.1821	11655.73	3.8840	3.8840	-0.7963	25.96	-0.01	-0.750			
0.1845	11808.68	3.8810	3.8810	-0.7931	25.96	-0.01	-0.750			
0.1869	11962.10	3.8780	3.8780	-0.7926	25.97	-0.00	-0.750			
0.1893	12112.55	3.8750	3.8751	-0.7914	25.97	-0.00	-0.750			
0.1916	12262.92	3.8720	3.8720	-0.8008	25.97	0.00	-0.750			
0.1940	12416.01	3.8690	3.8688	-0.8081	25.98	0.01	-0.750			
0.1964	12571.95	3.8660	3.8660	-0.8144	25.98	0.01	-0.750			
0.1989	12731.67	3.8630	3.8630	-0.8146	25.99	0.02	-0.750			
0.2014	12892.07	3.8600	3.8601	-0.8199	25.99	0.02	-0.750			
0.2039	13049.46	3.8570	3.8570	-0.8149	25.99	0.02	-0.750			
0.2063	13203.20	3.8540	3.8540	-0.8087	25.99	0.02	-0.750			
0.2087	13357.44	3.8510	3.8509	-0.8003	26.00	0.03	-0.750			
0.2111	13510.17	3.8480	3.8480	-0.7941	26.00	0.03	-0.750			
0.2135	13664.00	3.8450	3.8450	-0.7917	26.00	0.03	-0.750			
0.2159	13815.14	3.8420	3.8419	-0.7887	26.00	0.03	-0.750			
0.2182	13962.84	3.8390	3.8390	-0.7915	26.00	0.03	-0.750			
0.2206	14115.82	3.8360	3.8360	-0.7936	26.00	0.03	-0.750			
0.2229	14268.03	3.8330	3.8329	-0.7944	26.01	0.04	-0.750			
0.2254	14423.42	3.8300	3.8299	-0.7910	26.01	0.04	-0.750			
0.2277	14575.39	3.8270	3.8272	-0.7929	26.01	0.04	-0.750			
0.2301	14725.79	3.8240	3.8241	-0.7966	26.01	0.04	-0.750			
0.2325	14877.32	3.8210	3.8207	-0.7926	26.02	0.05	-0.750			
0.2348	15029.54	3.8180	3.8180	-0.7853	26.02	0.05	-0.750			
0.2372	15182.91	3.8150	3.8151	-0.7892	26.03	0.06	-0.750			
0.2396	15336.71	3.8120	3.8122	-0.7899	26.03	0.06	-0.750			
0.2420	15488.96	3.8090	3.8089	-0.7840	26.03	0.06	-0.750			
0.2443	15633.52	3.8060	3.8059	-0.7717	26.04	0.07	-0.750			
0.2466	15780.88	3.8030	3.8030	-0.7707	26.04	0.07	-0.750			
0.2489	15930.29	3.8000	3.8000	-0.7725	26.05	0.08	-0.750			
0.2512	16079.45	3.7970	3.7969	-0.7670	26.05	0.08	-0.750			
0.2536	16228.49	3.7940	3.7939	-0.7559	26.05	0.08	-0.750			
0.2558	16373.02	3.7910	3.7911	-0.7427	26.06	0.09	-0.750			
0.2580	16513.31	3.7880	3.7881	-0.7357	26.06	0.09	-0.750			
0.2602	16651.72	3.7850	3.7850	-0.7282	26.06	0.09	-0.750			
0.2623	16788.71	3.7820	3.7818	-0.7243	26.07	0.10	-0.750			
0.2645	16928.17	3.7790	3.7792	-0.7246	26.07	0.10	-0.750			
0.2667	17068.08	3.7760	3.7760	-0.7313	26.07	0.10	-0.750			
0.2689	17208.44	3.7730	3.7730	-0.7396	26.08	0.11	-0.750			
0.2711	17352.30	3.7700	3.7700	-0.7386	26.08	0.11	-0.750			
0.2734	17494.76	3.7670	3.7668	-0.7400	26.08	0.11	-0.750			
0.2756	17637.37	3.7640	3.7640	-0.7397	26.09	0.12	-0.750			
0.2778	17778.64	3.7610	3.7611	-0.7390	26.09	0.12	-0.750			
0.2800	17920.42	3.7580	3.7579	-0.7411	26.09	0.12	-0.750			
0.2822	18061.96	3.7550	3.7550	-0.7436	26.10	0.13	-0.750			
0.2845	18205.44	3.7520	3.7519	-0.7437	26.10	0.13	-0.750			
0.2867	18350.76	3.7490	3.7489	-0.7512	26.11	0.14	-0.750			
0.2890	18495.43	3.7460	3.7461	-0.7516	26.11	0.14	-0.750			
0.2912	18638.88	3.7430	3.7428	-0.7591	26.11	0.14	-0.750			
0.2935	18782.95	3.7400	3.7400	-0.7666	26.11	0.14	-0.750			
0.2958	18930.63	3.7370	3.7369	-0.7775	26.11	0.14	-0.750			
0.2981	19079.52	3.7340	3.7341	-0.7868	26.11	0.14	-0.750			
0.3006	19235.78	3.7310	3.7310	-0.8033	26.11	0.14	-0.750			
0.3030	19390.24	3.7280	3.7281	-0.8127	26.11	0.14	-0.750			
0.3054	19546.99	3.7250	3.7250	-0.8274	26.11	0.14	-0.750			
0.3079	19706.67	3.7220	3.7219	-0.8354	26.11	0.14	-0.750			
0.3104	19868.18	3.7190	3.7190	-0.8469	26.12	0.15	-0.750			
0.3130	20033.09	3.7160	3.7160	-0.8606	26.12	0.15	-0.750			
0.3156	20199.45	3.7130	3.7130	-0.8765	26.12	0.15	-0.750			
0.3183	20368.11	3.7100	3.7100	-0.8976	26.12	0.15	-0.750			
0.3210	20541.81	3.7070	3.7070	-0.9100	26.13	0.16	-0.750			
0.3237	20718.79	3.7040	3.7039	-0.9257	26.13	0.16	-0.750			
0.3266	20900.12	3.7010	3.7012	-0.9444	26.13	0.16	-0.750			
0.3294	21082.75	3.6980	3.6979	-0.9615	26.13	0.16	-0.750			
0.3323	21269.65	3.6950	3.6951	-0.9732	26.12	0.15	-0.750			
0.3352	21454.60	3.6920	3.6919	-0.9887	26.12	0.15	-0.750			
0.3382	21645.33	3.6890	3.6890	-1.0089	26.11	0.14	-0.750			
0.3413	21843.33	3.6860	3.6861	-1.0373	26.11	0.14	-0.750			
0.3444	22044.07	3.6830	3.6829	-1.0543	26.11	0.14	-0.750			
0.3477	22251.30	3.6800	3.6799	-1.0715	26.11	0.14	-0.750			
0.3509	22458.56	3.6770	3.6771	-1.0843	26.11	0.14	-0.750			
0.3542	22668.78	3.6740	3.6740	-1.1189	26.11	0.14	-0.750			
0.3576	22885.22	3.6710	3.6709	-1.1336	26.10	0.13	-0.750			
0.3610	23105.91	3.6680	3.6678	-1.1543	26.10	0.13	-0.750			
0.3645	23328.24	3.6650	3.6655	-1.1802	26.09	0.12	-0.750			
0.3681	23560.41	3.6620	3.6620	-1.2082	26.09	0.12	-0.750			
0.3718	23794.82	3.6590	3.6589	-1.2252	26.08	0.11	-0.750			
0.3754	24027.27	3.6560	3.6560	-1.2520	26.08	0.11	-0.750			
0.3793	24273.99	3.6530	3.6529	-1.2703	26.07	0.10	-0.750			
0.3831	24520.29	3.6500	3.6499	-1.2913	26.07	0.10	-0.750			
0.3870	24765.20	3.6470	3.6469	-1.3285	26.06	0.09	-0.750			
0.3910	25023.44	3.6440	3.6440	-1.3485	26.05	0.08	-0.750			
0.3952	25291.14	3.6410	3.6408	-1.3748	26.05	0.08	-0.750			
0.3993	25555.32	3.6380	3.6379	-1.4068	26.05	0.08	-0.750			
0.4035	25822.85	3.6350	3.6352	-1.4321	26.05	0.08	-0.750			
0.4079	26108.69	3.6320	3.6319	-1.4645	26.04	0.07	-0.750			
0.4123	26385.17	3.6290	3.6291	-1.4924	26.03	0.06	-0.750			
0.4168	26674.26	3.6260	3.6258	-1.5078	26.03	0.06	-0.750			
0.4214	26972.66	3.6230	3.6231	-1.5441	26.02	0.05	-0.750			
0.4261	27272.76	3.6200	3.6199	-1.5821	26.01	0.04	-0.750			
0.4309	27579.03	3.6170	3.6171	-1.5993	26.01	0.04	-0.750			
0.4357	27887.47	3.6140	3.6136	-1.6180	26.01	0.04	-0.750	0.402	0.546	
0.4407	28204.90	3.6110	3.6110	-1.6628	26.01	0.04	-0.750			
0.4457	28522.17	3.6080	3.6081	-1.6933	26.00	0.03	-0.750			
0.4509	28855.85	3.6050	3.6051	-1.7357	25.99	0.02	-0.750			
0.4560	29183.77	3.6020	3.6019	-1.7594	25.99	0.02	-0.750			
0.4615	29533.67	3.5990	3.5989	-1.8059	25.98	0.01	-0.750			
0.4669	29879.62	3.5960	3.5962	-1.8514	25.98	0.01	-0.750			
0.4725	30239.80	3.5930	3.5930	-1.8788	25.97	0.00	-0.750			
0.4781	30599.96	3.5900	3.5901	-1.9217	25.97	-0.00	-0.750			
0.4840	30974.03	3.5870	3.5871	-1.9543	25.96	-0.01	-0.750			
0.4899	31355.39	3.5840	3.5839	-1.9967	25.96	-0.01	-0.750			
0.4960	31744.58	3.5810	3.5811	-2.0301	25.96	-0.01	-0.750			
0.5022	32142.38	3.5780	3.5779	-2.0661	25.96	-0.01	-0.750			
0.5084	32538.57	3.5750	3.5750	-2.0706	25.95	-0.02	-0.750			
0.5147	32941.65	3.5720	3.5721	-2.1038	25.95	-0.02	-0.750			
0.5210	33345.50	3.5690	3.5690	-2.1083	25.95	-0.02	-0.750			
0.5274	33753.35	3.5660	3.5658	-2.1273	25.95	-0.02	-0.750			
0.5338	34165.58	3.5630	3.5632	-2.1348	25.95	-0.02	-0.750			
0.5403	34577.78	3.5600	3.5599	-2.1576	25.95	-0.02	-0.750			
0.5468	34995.94	3.5570	3.5570	-2.1556	25.95	-0.02	-0.750			
0.5533	35411.72	3.5540	3.5540	-2.1474	25.95	-0.02	-0.750			
0.5598	35826.51	3.5510	3.5511	-2.1633	25.95	-0.02	-0.750			
0.5662	36236.98	3.5480	3.5479	-2.1534	25.95	-0.02	-0.750			
0.5727	36654.13	3.5450	3.5449	-2.1327	25.95	-0.02	-0.750			
0.5791	37063.47	3.5420	3.5421	-2.1232	25.95	-0.02	-0.750			
0.5855	37473.96	3.5390	3.5389	-2.1122	25.96	-0.01	-0.750			
0.5919	37884.52	3.5360	3.5357	-2.0577	25.96	-0.01	-0.750			
0.5979	38266.42	3.5330	3.5333	-2.0199	25.97	-0.00	-0.750			
0.6039	38652.52	3.5300	3.5301	-1.9981	25.97	0.00	-0.750			
0.6098	39029.98	3.5270	3.5268	-1.9742	25.97	0.00	-0.750			
0.6157	39405.58	3.5240	3.5239	-1.9599	25.97	0.00	-0.750			
0.6217	39790.40	3.5210	3.5212	-1.9318	25.98	0.01	-0.750			
0.6276	40167.93	3.5180	3.5181	-1.9054	25.99	0.02	-0.750			
0.6334	40535.41	3.5150	3.5150	-1.8591	26.00	0.03	-0.750			
0.6387	40874.85	3.5120	3.5119	-1.7829	26.01	0.04	-0.750			
0.6439	41212.36	3.5090	3.5089	-1.7259	26.02	0.05	-0.750			
0.6491	41539.44	3.5060	3.5058	-1.6780	26.03	0.06	-0.750			
0.6540	41853.83	3.5030	3.5029	-1.6136	26.04	0.07	-0.750			
0.6588	42161.57	3.5000	3.5001	-1.5716	26.05	0.08	-0.750			
0.6634	42455.30	3.4970	3.4969	-1.5192	26.07	0.10	-0.750			
0.6679	42743.19	3.4940	3.4938	-1.4622	26.08	0.11	-0.750			
0.6722	43020.47	3.4910	3.4909	-1.4261	26.09	0.12	-0.750			
0.6764	43287.65	3.4880	3.4882	-1.3939	26.10	0.13	-0.750			
0.6805	43549.29	3.4850	3.4849	-1.3503	26.11	0.14	-0.750			
0.6846	43812.32	3.4820	3.4820	-1.3113	26.13	0.16	-0.750			
0.6884	44057.61	3.4790	3.4791	-1.2643	26.15	0.18	-0.750			
0.6921	44295.44	3.4760	3.4761	-1.2254	26.16	0.19	-0.750			
0.6958	44531.49	3.4730	3.4729	-1.1870	26.17	0.20	-0.750			
0.6992	44750.94	3.4700	3.4699	-1.1381	26.18	0.21	-0.750			
0.7025	44962.16	3.4670	3.4672	-1.0978	26.19	0.22	-0.750			
0.7058	45172.45	3.4640	3.4638	-1.0687	26.21	0.24	-0.750			
0.7090	45373.93	3.4610	3.4610	-1.0370	26.22	0.25	-0.750			
0.7120	45568.49	3.4580	3.4580	-0.9938	26.24	0.27	-0.750			
0.7150	45757.58	3.4550	3.4551	-0.9672	26.25	0.28	-0.750			
0.7178	45937.51	3.4520	3.4521	-0.9474	26.26	0.29	-0.750			
0.7205	46114.40	3.4490	3.4490	-0.9191	26.27	0.30	-0.750			
0.7233	46288.15	3.4460	3.4456	-0.8999	26.28	0.31	-0.750			
0.7259	46458.84	3.4430	3.4432	-0.8835	26.29	0.32	-0.750			
0.7285	46626.39	3.4400	3.4400	-0.8716	26.30	0.33	-0.750			
0.7312	46793.82	3.4370	3.4369	-0.8747	26.31	0.34	-0.750			
0.7337	46958.79	3.4340	3.4339	-0.8664	26.32	0.35	-0.750			
0.7362	47119.83	3.4310	3.4309	-0.8604	26.33	0.36	-0.750			
0.7389	47288.57	3.4280	3.4280	-0.8740	26.34	0.37	-0.750			
0.7415	47455.85	3.4250	3.4250	-0.8855	26.34	0.37	-0.750			
0.7442	47627.04	3.4220	3.4220	-0.8957	26.35	0.38	-0.750			
0.7469	47799.46	3.4190	3.4189	-0.9035	26.36	0.39	-0.750			
0.7496	47971.81	3.4160	3.4161	-0.9094	26.36	0.39	-0.750			
0.7524	48153.42	3.4130	3.4130	-0.9135	26.37	0.40	-0.750			
0.7551	48327.66	3.4100	3.4100	-0.9226	26.38	0.41	-0.750			
0.7579	48505.78	3.4070	3.4070	-0.9208	26.39	0.42	-0.750			
0.7607	48683.86	3.4040	3.4039	-0.9113	26.40	0.43	-0.750			
0.7635	48860.98	3.4010	3.4009	-0.9044	26.41	0.44	-0.750			
0.7662	49034.83	3.3980	3.3981	-0.8842	26.41	0.44	-0.750			
0.7688	49205.18	3.3950	3.3950	-0.8678	26.42	0.45	-0.750			
0.7714	49370.90	3.3920	3.3919	-0.8408	26.43	0.46	-0.750			
0.7739	49526.57	3.3890	3.3889	-0.8027	26.43	0.46	-0.750			
0.7763	49680.35	3.3860	3.3860	-0.7819	26.44	0.47	-0.750			
0.7785	49827.04	3.3830	3.3829	-0.7556	26.45	0.48	-0.750			
0.7808	49969.71	3.3800	3.3799	-0.7263	26.45	0.48	-0.750			
0.7829	50105.69	3.3770	3.3770	-0.7027	26.46	0.49	-0.750			
0.7849	50236.12	3.3740	3.3741	-0.6754	26.47	0.50	-0.750			
0.7870	50365.65	3.3710	3.3710	-0.6588	26.47	0.50	-0.750			
0.7889	50490.20	3.3680	3.3680	-0.6370	26.48	0.51	-0.750			
0.7908	50608.89	3.3650	3.3650	-0.6144	26.48	0.51	-0.750			
0.7926	50725.39	3.3620	3.3619	-0.5946	26.49	0.52	-0.750			
0.7944	50839.00	3.3590	3.3591	-0.5755	26.50	0.53	-0.750			
0.7960	50946.08	3.3560	3.3560	-0.5532	26.50	0.53	-0.750			
0.7977	51050.85	3.3530	3.3531	-0.5349	26.51	0.54	-0.750			
0.7992	51151.01	3.3500	3.3499	-0.5147	26.51	0.54	-0.750			
0.8007	51247.55	3.3470	3.3469	-0.4963	26.52	0.55	-0.750			
0.8022	51341.09	3.3440	3.3441	-0.4785	26.52	0.55	-0.750			
0.8036	51430.88	3.3410	3.3410	-0.4624	26.53	0.56	-0.750			
0.8050	51518.40	3.3380	3.3380	-0.4487	26.53	0.56	-0.750			
0.8063	51602.53	3.3350	3.3351	-0.4348	26.54	0.57	-0.750			
0.8076	51684.13	3.3320	3.3319	-0.4207	26.55	0.58	-0.750			
0.8088	51763.53	3.3290	3.3290	-0.4098	26.55	0.58	-0.750			
0.8100	51840.83	3.3260	3.3260	-0.3993	26.56	0.59	-0.750			
0.8112	51916.48	3.3230	3.3230	-0.3886	26.56	0.59	-0.750			
0.8123	51990.16	3.3200	3.3199	-0.3781	26.57	0.60	-0.750			
0.8135	52061.92	3.3170	3.3170	-0.3676	26.58	0.61	-0.750			
0.8146	52131.54	3.3140	3.3141	-0.3573	26.58	0.61	-0.750			
0.8156	52199.31	3.3110	3.3110	-0.3483	26.59	0.62	-0.750			
0.8166	52264.63	3.3080	3.3080	-0.3374	26.59	0.62	-0.750			
0.8176	52328.42	3.3050	3.3050	-0.3292	26.60	0.63	-0.750			
0.8186	52390.64	3.3020	3.3020	-0.3215	26.60	0.63	-0.750			
0.8196	52451.72	3.2990	3.2990	-0.3127	26.60	0.63	-0.750			
0.8205	52511.00	3.2960	3.2960	-0.3061	26.61	0.64	-0.750			
0.8214	52568.81	3.2930	3.2930	-0.2991	26.61	0.64	-0.750			
0.8223	52625.57	3.2900	3.2900	-0.2916	26.62	0.65	-0.750			
0.8231	52680.84	3.2870	3.2869	-0.2860	26.62	0.65	-0.750			
0.8240	52734.72	3.2840	3.2841	-0.2796	26.63	0.66	-0.750			
0.8248	52788.09	3.2810	3.2810	-0.2737	26.63	0.66	-0.750			
0.8256	52840.67	3.2780	3.2779	-0.2681	26.63	0.66	-0.750			
0.8264	52891.05	3.2750	3.2751	-0.2612	26.64	0.67	-0.750			
0.8272	52939.97	3.2720	3.2721	-0.2571	26.64	0.67	-0.750			
0.8280	52989.25	3.2690	3.2689	-0.2520	26.65	0.68	-0.750			
0.8287	53036.53	3.2660	3.2659	-0.2473	26.65	0.68	-0.750			
0.8294	53083.93	3.2630	3.2631	-0.2439	26.66	0.69	-0.750			
0.8302	53130.37	3.2600	3.2601	-0.2411	26.66	0.69	-0.750			
0.8309	53176.59	3.2570	3.2570	-0.2381	26.67	0.70	-0.750			
0.8316	53221.78	3.2540	3.2540	-0.2342	26.67	0.70	-0.750			
0.8323	53266.25	3.2510	3.2510	-0.2303	26.68	0.71	-0.750			
0.8330	53311.07	3.2480	3.2480	-0.2276	26.68	0.71	-0.750			
0.8337	53354.04	3.2450	3.2451	-0.2228	26.69	0.72	-0.750			
0.8343	53396.42	3.2420	3.2420	-0.2186	26.69	0.72	-0.750			
0.8350	53438.11	3.2390	3.2390	-0.2153	26.70	0.73	-0.750			
0.8356	53478.56	3.2360	3.2360	-0.2114	26.70	0.73	-0.750			
0.8362	53518.58	3.2330	3.2330	-0.2086	26.71	0.74	-0.750			
0.8369	53558.42	3.2300	3.2301	-0.2065	26.71	0.74	-0.750			
0.8375	53597.58	3.2270	3.2270	-0.2049	26.72	0.75	-0.750			
0.8381	53637.05	3.2240	3.2239	-0.2026	26.72	0.75	-0.750			
0.8387	53675.93	3.2210	3.2211	-0.2000	26.72	0.75	-0.750			
0.8393	53714.02	3.2180	3.2180	-0.1974	26.73	0.76	-0.750			
0.8399	53751.81	3.2150	3.2151	-0.1949	26.73	0.76	-0.750			
0.8405	53789.11	3.2120	3.2120	-0.1918	26.74	0.77	-0.750			
0.8410	53825.37	3.2090	3.2091	-0.1887	26.75	0.78	-0.750			
0.8416	53860.86	3.2060	3.2060	-0.1860	26.75	0.78	-0.750			
0.8421	53896.43	3.2030	3.2031	-0.1845	26.76	0.79	-0.750			
0.8427	53931.76	3.2000	3.2000	-0.1826	26.76	0.79	-0.750			
0.8432	53966.68	3.1970	3.1970	-0.1806	26.77	0.80	-0.750			
0.8438	54001.21	3.1940	3.1940	-0.1785	26.77	0.80	-0.750			
0.8443	54035.31	3.1910	3.1911	-0.1766	26.78	0.81	-0.750			
0.8448	54069.32	3.1880	3.1880	-0.1749	26.78	0.81	-0.750			
0.8454	54102.50	3.1850	3.1850	-0.1728	26.79	0.82	-0.750			
0.8459	54135.18	3.1820	3.1820	-0.1703	26.79	0.82	-0.750			
0.8464	54167.79	3.1790	3.1790	-0.1687	26.80	0.83	-0.750			
0.8469	54200.12	3.1760	3.1760	-0.1672	26.80	0.83	-0.750			
0.8474	54231.94	3.1730	3.1731	-0.1658	26.81	0.84	-0.750			
0.8479	54263.65	3.1700	3.1700	-0.1645	26.81	0.84	-0.750			
0.8484	54295.14	3.1670	3.1669	-0.1626	26.82	0.85	-0.750			
0.8488	54326.29	3.1640	3.1640	-0.1609	26.82	0.85	-0.750			
0.8493	54356.71	3.1610	3.1610	-0.1597	26.83	0.86	-0.750			
0.8498	54387.27	3.1580	3.1580	-0.1587	26.83	0.86	-0.750			
0.8503	54417.65	3.1550	3.1550	-0.1572	26.84	0.87	-0.750			
0.8507	54447.91	3.1520	3.1519	-0.1551	26.85	0.88	-0.750			
0.8512	54477.35	3.1490	3.1490	-0.1536	26.85	0.88	-0.750			
0.8517	54506.71	3.1460	3.1461	-0.1522	26.86	0.89	-0.750			
0.8521	54536.02	3.1430	3.1429	-0.1507	26.86	0.89	-0.750			
0.8526	54564.78	3.1400	3.1399	-0.1489	26.87	0.90	-0.750			
0.8530	54592.74	3.1370	3.1370	-0.1467	26.87	0.90	-0.750			
0.8535	54620.84	3.1340	3.1341	-0.1459	26.88	0.91	-0.750			
0.8539	54648.83	3.1310	3.1310	-0.1452	26.89	0.92	-0.750			
0.8543	54676.77	3.1280	3.1279	-0.1442	26.89	0.92	-0.750			
0.8548	54704.15	3.1250	3.1250	-0.1425	26.90	0.93	-0.750			
0.8552	54731.43	3.1220	3.1221	-0.1417	26.90	0.93	-0.750			
0.8556	54758.63	3.1190	3.1190	-0.1413	26.91	0.94	-0.750			
0.8560	54785.58	3.1160	3.1160	-0.1407	26.91	0.94	-0.750			
0.8564	54812.30	3.1130	3.1129	-0.1398	26.92	0.95	-0.750			
0.8569	54839.34	3.1100	3.1100	-0.1382	26.92	0.95	-0.750			
0.8573	54865.98	3.1070	3.1070	-0.1365	26.93	0.96	-0.750			
0.8577	54892.04	3.1040	3.1042	-0.1358	26.93	0.96	-0.750			
0.8581	54917.95	3.1010	3.1011	-0.1342	26.94	0.97	-0.750			
0.8585	54943.43	3.0980	3.0978	-0.1334	26.94	0.97	-0.750			
0.8589	54968.71	3.0950	3.0949	-0.1319	26.95	0.98	-0.750			
0.8593	54993.75	3.0920	3.0920	-0.1310	26.96	0.99	-0.750			
0.8597	55018.93	3.0890	3.0892	-0.1305	26.96	0.99	-0.750			
0.8601	55044.20	3.0860	3.0860	-0.1303	26.97	1.00	-0.750			
0.8605	55069.25	3.0830	3.0831	-0.1297	26.97	1.00	-0.750			
0.8608	55093.98	3.0800	3.0798	-0.1281	26.98	1.01	-0.750			
0.8612	55118.50	3.0770	3.0770	-0.1272	26.98	1.01	-0.750			
0.8616	55142.90	3.0740	3.0741	-0.1261	26.99	1.02	-0.750			
0.8620	55167.10	3.0710	3.0710	-0.1254	26.99	1.02	-0.750			
0.8624	55191.05	3.0680	3.0680	-0.1240	27.00	1.03	-0.750			
0.8627	55214.64	3.0650	3.0650	-0.1226	27.00	1.03	-0.750			
0.8631	55237.98	3.0620	3.0620	-0.1222	27.01	1.04	-0.750			
0.8635	55261.21	3.0590	3.0589	-0.1211	27.02	1.05	-0.750			
0.8638	55284.45	3.0560	3.0560	-0.1207	27.02	1.05	-0.750			
0.8642	55307.58	3.0530	3.0529	-0.1202	27.03	1.06	-0.750			
0.8645	55330.65	3.0500	3.0500	-0.1195	27.03	1.06	-0.750			
0.8649	55353.53	3.0470	3.0470	-0.1188	27.04	1.07	-0.750			
0.8653	55376.31	3.0440	3.0440	-0.1182	27.04	1.07	-0.750			
0.8656	55398.94	3.0410	3.0410	-0.1175	27.05	1.08	-0.750			
0.8660	55421.33	3.0380	3.0380	-0.1166	27.05	1.08	-0.750			
0.8663	55443.67	3.0350	3.0350	-0.1161	27.06	1.09	-0.750			
0.8667	55465.99	3.0320	3.0319	-0.1154	27.06	1.09	-0.750			
0.8670	55488.06	3.0290	3.0291	-0.1145	27.07	1.10	-0.750			
0.8673	55510.01	3.0260	3.0260	-0.1138	27.07	1.10	-0.750			
0.8677	55531.78	3.0230	3.0229	-0.1129	27.08	1.11	-0.750			
0.8680	55553.26	3.0200	3.0200	-0.1123	27.08	1.11	-0.750			
0.8684	55574.76	3.0170	3.0170	-0.1117	27.09	1.12	-0.750			
0.8687	55596.21	3.0140	3.0141	-0.1108	27.09	1.12	-0.750			
0.8690	55617.41	3.0110	3.0109	-0.1100	27.10	1.13	-0.750			
0.8694	55638.58	3.0080	3.0080	-0.1092	27.10	1.13	-0.751			
0.8697	55659.43	3.0050	3.0051	-0.1081	27.11	1.14	-0.751			
0.8700	55680.08	3.0020	3.0019	-0.1050	27.11	1.14	-0.751			
