Ah_balance (normalized)	Ah_balance (mAh)	Voltage - fit (V)	Voltage -  interpolate (V)	dQ/dV (1/V)	Temperature (°C)	Temperature - diff (°C)	Current (C)	R_DC 0ms (mOhm)	R_DC 50ms (mOhm)	R_DC 50 ms PEC (mOhm)
0.0546	3492.52	4.1970	4.1970	0.7648	26.81	0.86	0.750			
0.0568	3637.75	4.1940	4.1941	0.7558	26.80	0.85	0.750			
0.0591	3783.80	4.1910	4.1911	0.7563	26.80	0.85	0.750			
0.0614	3928.25	4.1880	4.1878	0.7557	26.80	0.85	0.750			
0.0636	4072.49	4.1850	4.1851	0.7561	26.80	0.85	0.750			
0.0659	4218.44	4.1820	4.1821	0.7560	26.80	0.85	0.750			
0.0682	4363.31	4.1790	4.1789	0.7596	26.79	0.84	0.750			
0.0705	4509.23	4.1760	4.1760	0.7608	26.79	0.84	0.750			
0.0727	4654.85	4.1730	4.1729	0.7641	26.79	0.84	0.750			
0.0750	4802.18	4.1700	4.1700	0.7702	26.79	0.84	0.750			
0.0774	4951.90	4.1670	4.1670	0.7701	26.79	0.84	0.750			
0.0797	5100.98	4.1640	4.1639	0.7695	26.79	0.84	0.750			
0.0820	5249.24	4.1610	4.1610	0.7751	26.78	0.83	0.750			
0.0843	5397.14	4.1580	4.1582	0.7717	26.78	0.83	0.750			
0.0866	5545.35	4.1550	4.1550	0.7706	26.78	0.83	0.750			
0.0890	5693.18	4.1520	4.1520	0.7695	26.78	0.83	0.750			
0.0912	5839.96	4.1490	4.1491	0.7669	26.78	0.83	0.750			
0.0936	5987.49	4.1460	4.1460	0.7689	26.78	0.83	0.750			
0.0959	6135.50	4.1430	4.1430	0.7723	26.78	0.83	0.750			
0.0982	6281.91	4.1400	4.1400	0.7760	26.78	0.83	0.750			
0.1005	6432.42	4.1370	4.1370	0.7807	26.78	0.83	0.750			
0.1029	6583.85	4.1340	4.1340	0.7814	26.78	0.83	0.750			
0.1052	6735.54	4.1310	4.1310	0.7825	26.78	0.83	0.750			
0.1076	6885.52	4.1280	4.1281	0.7825	26.78	0.83	0.750			
0.1099	7035.01	4.1250	4.1250	0.7783	26.78	0.83	0.750			
0.1122	7182.87	4.1220	4.1219	0.7781	26.78	0.83	0.750			
0.1146	7332.71	4.1190	4.1190	0.7731	26.78	0.83	0.750			
0.1169	7481.44	4.1160	4.1160	0.7768	26.78	0.83	0.750			
0.1192	7631.33	4.1130	4.1130	0.7825	26.78	0.83	0.750			
0.1216	7780.88	4.1100	4.1101	0.7837	26.78	0.83	0.750			
0.1239	7930.54	4.1070	4.1068	0.7877	26.78	0.83	0.750			
0.1263	8083.68	4.1040	4.1040	0.7924	26.78	0.83	0.750			
0.1287	8235.55	4.1010	4.1010	0.7905	26.78	0.83	0.750			
0.1311	8387.96	4.0980	4.0982	0.7973	26.77	0.82	0.750			
0.1335	8541.10	4.0950	4.0950	0.7981	26.77	0.82	0.750			
0.1359	8694.70	4.0920	4.0917	0.8003	26.77	0.82	0.750			
0.1383	8848.99	4.0890	4.0891	0.7981	26.77	0.82	0.750			
0.1407	9002.79	4.0860	4.0861	0.7939	26.77	0.82	0.750			
0.1431	9156.85	4.0830	4.0830	0.8035	26.77	0.82	0.750			
0.1455	9310.41	4.0800	4.0800	0.8052	26.77	0.82	0.750			
0.1478	9461.43	4.0770	4.0769	0.8074	26.77	0.82	0.750			
0.1503	9617.54	4.0740	4.0741	0.8196	26.77	0.82	0.750			
0.1528	9777.73	4.0710	4.0710	0.8221	26.77	0.82	0.750			
0.1553	9937.14	4.0680	4.0680	0.8286	26.76	0.81	0.750			
0.1578	10099.11	4.0650	4.0651	0.8306	26.76	0.81	0.750			
0.1603	10257.45	4.0620	4.0619	0.8273	26.76	0.81	0.750			
0.1628	10416.75	4.0590	4.0591	0.8271	26.76	0.81	0.750			
0.1652	10574.41	4.0560	4.0561	0.8192	26.76	0.81	0.750			
0.1677	10731.04	4.0530	4.0529	0.8163	26.76	0.81	0.750			
0.1701	10888.24	4.0500	4.0500	0.8218	26.76	0.81	0.750			
0.1726	11043.94	4.0470	4.0470	0.8202	26.76	0.81	0.750			
0.1750	11201.43	4.0440	4.0439	0.8244	26.76	0.81	0.750			
0.1775	11362.08	4.0410	4.0410	0.8225	26.76	0.81	0.750			
0.1800	11519.94	4.0380	4.0380	0.8283	26.76	0.81	0.750			
0.1825	11679.23	4.0350	4.0351	0.8376	26.76	0.81	0.750			
0.1850	11839.20	4.0320	4.0319	0.8400	26.76	0.81	0.750			
0.1875	12000.60	4.0290	4.0290	0.8439	26.76	0.81	0.750			
0.1901	12163.67	4.0260	4.0260	0.8488	26.76	0.81	0.750			
0.1926	12326.64	4.0230	4.0231	0.8571	26.76	0.81	0.750			
0.1952	12493.99	4.0200	4.0200	0.8596	26.76	0.81	0.750			
0.1978	12659.33	4.0170	4.0169	0.8610	26.76	0.81	0.750			
0.2004	12825.38	4.0140	4.0140	0.8618	26.76	0.81	0.750			
0.2030	12991.35	4.0110	4.0111	0.8630	26.76	0.81	0.750			
0.2056	13156.51	4.0080	4.0079	0.8659	26.76	0.81	0.750			
0.2082	13322.85	4.0050	4.0050	0.8658	26.76	0.81	0.750			
0.2108	13488.01	4.0020	4.0020	0.8660	26.76	0.81	0.750			
0.2134	13655.78	3.9990	3.9990	0.8678	26.76	0.81	0.750			
0.2160	13821.81	3.9960	3.9960	0.8709	26.76	0.81	0.750			
0.2186	13989.15	3.9930	3.9930	0.8738	26.76	0.81	0.750			
0.2212	14156.61	3.9900	3.9900	0.8762	26.76	0.81	0.750			
0.2238	14324.30	3.9870	3.9871	0.8766	26.76	0.81	0.750			
0.2265	14494.39	3.9840	3.9841	0.8822	26.76	0.81	0.750			
0.2291	14663.67	3.9810	3.9809	0.8850	26.75	0.80	0.750			
0.2318	14834.78	3.9780	3.9780	0.8860	26.75	0.80	0.750			
0.2344	15004.14	3.9750	3.9751	0.8824	26.74	0.79	0.750			
0.2371	15174.13	3.9720	3.9721	0.8857	26.74	0.79	0.750			
0.2398	15344.59	3.9690	3.9690	0.8841	26.74	0.79	0.750			
0.2424	15513.24	3.9660	3.9660	0.8923	26.74	0.79	0.750			
0.2451	15684.66	3.9630	3.9631	0.8943	26.74	0.79	0.750			
0.2478	15857.25	3.9600	3.9598	0.8974	26.74	0.79	0.750			
0.2505	16031.23	3.9570	3.9571	0.8971	26.74	0.79	0.750			
0.2532	16203.62	3.9540	3.9540	0.8959	26.74	0.79	0.750			
0.2559	16375.18	3.9510	3.9511	0.8931	26.74	0.79	0.750			
0.2585	16545.74	3.9480	3.9480	0.8958	26.74	0.79	0.750			
0.2612	16715.03	3.9450	3.9448	0.8993	26.74	0.79	0.750			
0.2639	16889.11	3.9420	3.9421	0.9038	26.74	0.79	0.750			
0.2666	17063.13	3.9390	3.9389	0.9060	26.73	0.78	0.750			
0.2694	17240.83	3.9360	3.9360	0.9096	26.73	0.78	0.750			
0.2721	17413.97	3.9330	3.9332	0.9034	26.72	0.77	0.750			
0.2748	17588.40	3.9300	3.9300	0.9076	26.72	0.77	0.750			
0.2775	17762.17	3.9270	3.9271	0.8959	26.72	0.77	0.750			
0.2802	17933.52	3.9240	3.9240	0.8954	26.71	0.76	0.750			
0.2829	18104.09	3.9210	3.9211	0.9011	26.71	0.76	0.750			
0.2856	18276.36	3.9180	3.9179	0.9035	26.71	0.76	0.750			
0.2883	18450.83	3.9150	3.9150	0.9049	26.71	0.76	0.750			
0.2910	18623.89	3.9120	3.9120	0.9078	26.70	0.75	0.750			
0.2937	18798.63	3.9090	3.9091	0.9158	26.70	0.75	0.750			
0.2965	18977.26	3.9060	3.9060	0.9233	26.69	0.74	0.750			
0.2992	19150.79	3.9030	3.9030	0.9284	26.69	0.74	0.750			
0.3021	19334.30	3.9000	3.8999	0.9143	26.68	0.73	0.750			
0.3048	19508.61	3.8970	3.8971	0.9319	26.68	0.73	0.750			
0.3076	19688.68	3.8940	3.8941	0.9364	26.68	0.73	0.750			
0.3104	19868.45	3.8910	3.8910	0.9364	26.67	0.72	0.750			
0.3133	20049.28	3.8880	3.8882	0.9350	26.66	0.71	0.750			
0.3161	20227.87	3.8850	3.8851	0.9415	26.66	0.71	0.750			
0.3189	20407.95	3.8820	3.8820	0.9476	26.65	0.70	0.750			
0.3218	20594.29	3.8790	3.8790	0.9613	26.64	0.69	0.750			
0.3246	20774.61	3.8760	3.8761	0.9507	26.64	0.69	0.750			
0.3275	20959.64	3.8730	3.8730	0.9646	26.63	0.68	0.750			
0.3304	21146.30	3.8700	3.8701	0.9715	26.62	0.67	0.750			
0.3333	21333.61	3.8670	3.8670	0.9747	26.62	0.67	0.750			
0.3363	21520.84	3.8640	3.8639	0.9760	26.61	0.66	0.750			
0.3392	21709.25	3.8610	3.8610	0.9743	26.60	0.65	0.750			
0.3421	21895.17	3.8580	3.8580	0.9816	26.60	0.65	0.750			
0.3451	22084.01	3.8550	3.8551	0.9879	26.59	0.64	0.750			
0.3480	22273.08	3.8520	3.8518	0.9899	26.58	0.63	0.750			
0.3510	22465.76	3.8490	3.8490	0.9917	26.57	0.62	0.750			
0.3540	22656.84	3.8460	3.8461	0.9981	26.56	0.61	0.750			
0.3570	22849.68	3.8430	3.8431	1.0024	26.55	0.60	0.750			
0.3600	23040.96	3.8400	3.8399	1.0014	26.54	0.59	0.750			
0.3630	23234.45	3.8370	3.8370	0.9951	26.53	0.58	0.750			
0.3660	23425.09	3.8340	3.8340	1.0002	26.52	0.57	0.750			
0.3690	23616.79	3.8310	3.8311	1.0055	26.51	0.56	0.750			
0.3720	23809.51	3.8280	3.8281	1.0095	26.50	0.55	0.750			
0.3751	24006.95	3.8250	3.8250	1.0030	26.50	0.55	0.750			
0.3781	24197.50	3.8220	3.8220	1.0135	26.49	0.54	0.750			
0.3811	24392.01	3.8190	3.8191	1.0237	26.48	0.53	0.750			
0.3842	24589.18	3.8160	3.8160	1.0397	26.47	0.52	0.750			
0.3873	24789.07	3.8130	3.8129	1.0388	26.47	0.52	0.750			
0.3905	24988.89	3.8100	3.8101	1.0541	26.46	0.51	0.750			
0.3936	25192.91	3.8070	3.8070	1.0682	26.45	0.50	0.750			
0.3969	25402.17	3.8040	3.8042	1.0791	26.44	0.49	0.750			
0.4002	25609.75	3.8010	3.8009	1.0704	26.43	0.48	0.750			
0.4034	25815.09	3.7980	3.7981	1.0862	26.42	0.47	0.750			
0.4066	26024.44	3.7950	3.7950	1.0971	26.41	0.46	0.750			
0.4099	26236.20	3.7920	3.7919	1.1145	26.39	0.44	0.750			
0.4133	26448.06	3.7890	3.7891	1.1171	26.38	0.43	0.750			
0.4166	26662.26	3.7860	3.7861	1.1349	26.37	0.42	0.750			
0.4200	26881.91	3.7830	3.7831	1.1600	26.36	0.41	0.750			
0.4236	27108.64	3.7800	3.7795	1.1764	26.35	0.40	0.750			
0.4271	27333.10	3.7770	3.7772	1.1983	26.34	0.39	0.750			
0.4307	27565.16	3.7740	3.7741	1.2292	26.33	0.38	0.750			
0.4345	27807.71	3.7710	3.7709	1.2516	26.31	0.36	0.750			
0.4383	28048.48	3.7680	3.7681	1.2770	26.30	0.35	0.750			
0.4421	28295.67	3.7650	3.7639	1.3084	26.29	0.34	0.750	0.299	0.417	
0.4461	28553.08	3.7620	3.7621	1.3207	26.27	0.32	0.750			
0.4502	28811.55	3.7590	3.7590	1.3537	26.26	0.31	0.750			
0.4542	29068.38	3.7560	3.7561	1.3741	26.25	0.30	0.750			
0.4583	29333.79	3.7530	3.7530	1.3856	26.24	0.29	0.750			
0.4625	29601.77	3.7500	3.7501	1.4329	26.23	0.28	0.750			
0.4669	29880.47	3.7470	3.7471	1.4498	26.21	0.26	0.750			
0.4713	30160.60	3.7440	3.7441	1.5001	26.20	0.25	0.750			
0.4759	30455.72	3.7410	3.7411	1.5382	26.18	0.23	0.750			
0.4805	30750.51	3.7380	3.7382	1.5831	26.17	0.22	0.750			
0.4853	31059.32	3.7350	3.7350	1.6325	26.15	0.20	0.750			
0.4903	31378.82	3.7320	3.7321	1.6711	26.14	0.19	0.750			
0.4954	31704.07	3.7290	3.7292	1.7200	26.12	0.17	0.750			
0.5007	32045.40	3.7260	3.7259	1.7826	26.10	0.15	0.750			
0.5060	32386.80	3.7230	3.7231	1.8142	26.09	0.14	0.750			
0.5116	32741.00	3.7200	3.7199	1.8657	26.07	0.12	0.750			
0.5172	33102.50	3.7170	3.7173	1.9108	26.05	0.10	0.750			
0.5230	33474.57	3.7140	3.7139	1.9749	26.03	0.08	0.750			
0.5290	33853.49	3.7110	3.7109	2.0513	26.01	0.06	0.750			
0.5353	34256.56	3.7080	3.7080	2.0921	25.99	0.04	0.750			
0.5417	34669.53	3.7050	3.7052	2.1598	25.98	0.03	0.750			
0.5482	35086.39	3.7020	3.7021	2.2155	25.96	0.01	0.750			
0.5549	35513.87	3.6990	3.6990	2.2710	25.94	-0.01	0.750			
0.5618	35953.17	3.6960	3.6959	2.3484	25.92	-0.03	0.750			
0.5689	36407.63	3.6930	3.6930	2.4207	25.90	-0.05	0.750			
0.5764	36891.32	3.6900	3.6899	2.5110	25.89	-0.06	0.750			
0.5841	37380.95	3.6870	3.6870	2.5630	25.87	-0.08	0.750			
0.5917	37870.13	3.6840	3.6840	2.6681	25.86	-0.09	0.750			
0.5999	38392.72	3.6810	3.6809	2.7777	25.85	-0.10	0.750			
0.6084	38938.37	3.6780	3.6781	2.8283	25.83	-0.12	0.750			
0.6172	39502.97	3.6750	3.6751	2.9408	25.82	-0.13	0.750			
0.6261	40069.33	3.6720	3.6719	2.9693	25.81	-0.14	0.750			
0.6352	40655.76	3.6690	3.6689	2.8853	25.79	-0.16	0.750			
0.6442	41231.00	3.6660	3.6659	2.7787	25.79	-0.16	0.750			
0.6521	41736.56	3.6630	3.6631	2.5027	25.79	-0.16	0.750			
0.6590	42178.76	3.6600	3.6600	2.2113	25.79	-0.16	0.750			
0.6652	42571.64	3.6570	3.6571	2.0026	25.79	-0.16	0.750			
0.6705	42914.83	3.6540	3.6540	1.8037	25.79	-0.16	0.750			
0.6756	43240.55	3.6510	3.6510	1.6676	25.79	-0.16	0.750			
0.6804	43542.41	3.6480	3.6481	1.5469	25.78	-0.17	0.750			
0.6850	43837.78	3.6450	3.6448	1.4531	25.78	-0.17	0.750			
0.6891	44099.66	3.6420	3.6422	1.3554	25.78	-0.17	0.750			
0.6928	44342.20	3.6390	3.6390	1.2921	25.79	-0.16	0.750			
0.6965	44576.57	3.6360	3.6361	1.2399	25.79	-0.16	0.750			
0.7001	44806.47	3.6330	3.6330	1.2081	25.79	-0.16	0.750			
0.7036	45028.04	3.6300	3.6301	1.1884	25.79	-0.16	0.750			
0.7071	45255.47	3.6270	3.6272	1.1961	25.79	-0.16	0.750			
0.7107	45487.26	3.6240	3.6236	1.1949	25.79	-0.16	0.750			
0.7143	45716.03	3.6210	3.6210	1.1954	25.79	-0.16	0.750			
0.7179	45947.42	3.6180	3.6182	1.1912	25.79	-0.16	0.750			
0.7216	46181.05	3.6150	3.6150	1.1929	25.79	-0.16	0.750			
0.7252	46412.17	3.6120	3.6120	1.1820	25.79	-0.16	0.750			
0.7286	46629.53	3.6090	3.6091	1.1578	25.79	-0.16	0.750			
0.7320	46850.29	3.6060	3.6060	1.1514	25.79	-0.16	0.750			
0.7355	47072.39	3.6030	3.6028	1.1509	25.79	-0.16	0.750			
0.7389	47290.08	3.6000	3.6001	1.1478	25.79	-0.16	0.750			
0.7423	47509.99	3.5970	3.5970	1.1599	25.78	-0.17	0.750			
0.7458	47730.98	3.5940	3.5940	1.1781	25.78	-0.17	0.750			
0.7493	47955.84	3.5910	3.5910	1.1955	25.78	-0.17	0.750			
0.7529	48186.42	3.5880	3.5880	1.2359	25.78	-0.17	0.750			
0.7566	48425.55	3.5850	3.5850	1.2819	25.78	-0.17	0.750			
0.7606	48675.45	3.5820	3.5819	1.3279	25.78	-0.17	0.750			
0.7646	48936.92	3.5790	3.5790	1.3708	25.78	-0.17	0.750			
0.7688	49201.93	3.5760	3.5761	1.4326	25.77	-0.18	0.750			
0.7732	49482.36	3.5730	3.5728	1.4782	25.77	-0.18	0.750			
0.7777	49772.73	3.5700	3.5701	1.5177	25.77	-0.18	0.750			
0.7824	50072.10	3.5670	3.5670	1.5480	25.77	-0.18	0.750			
0.7871	50374.69	3.5640	3.5642	1.5778	25.77	-0.18	0.750			
0.7919	50678.94	3.5610	3.5610	1.6036	25.77	-0.18	0.750			
0.7968	50993.03	3.5580	3.5580	1.6287	25.77	-0.18	0.750			
0.8016	51302.73	3.5550	3.5551	1.6635	25.77	-0.18	0.750			
0.8067	51630.71	3.5520	3.5520	1.6737	25.76	-0.19	0.750			
0.8119	51959.39	3.5490	3.5491	1.6906	25.76	-0.19	0.750			
0.8170	52289.48	3.5460	3.5463	1.7087	25.76	-0.19	0.750			
0.8221	52613.20	3.5430	3.5430	1.7056	25.76	-0.19	0.750			
0.8272	52937.71	3.5400	3.5402	1.7452	25.77	-0.18	0.750			
0.8324	53276.17	3.5370	3.5371	1.7671	25.77	-0.18	0.750			
0.8382	53641.63	3.5340	3.5338	1.7000	25.79	-0.16	0.750			
0.8435	53983.89	3.5310	3.5310	1.5678	25.80	-0.15	0.750			
0.8481	54277.25	3.5280	3.5284	1.3078	25.81	-0.14	0.750			
0.8520	54526.04	3.5250	3.5254	1.0516	25.83	-0.12	0.750			
0.8546	54692.33	3.5220	3.5217	0.8170	25.84	-0.11	0.750			
0.8561	54790.77	3.5190	3.5185	0.5749	25.85	-0.10	0.750			
0.8573	54864.47	3.5160	3.5158	0.4495	25.85	-0.10	0.750			
0.8584	54936.61	3.5130	3.5129	0.3867	25.86	-0.09	0.750			
0.8594	54999.59	3.5100	3.5102	0.3502	25.86	-0.09	0.750			
0.8604	55063.16	3.5070	3.5068	0.3281	25.87	-0.08	0.750			
0.8613	55121.75	3.5040	3.5039	0.3120	25.87	-0.08	0.750			
0.8622	55179.70	3.5010	3.5010	0.3008	25.88	-0.07	0.750			
0.8631	55237.00	3.4980	3.4981	0.2941	25.88	-0.07	0.750			
0.8640	55292.87	3.4950	3.4949	0.2860	25.89	-0.06	0.750			
0.8648	55346.41	3.4920	3.4921	0.2767	25.89	-0.06	0.750			
0.8656	55398.47	3.4890	3.4890	0.2698	25.90	-0.05	0.750			
0.8664	55449.28	3.4860	3.4861	0.2645	25.90	-0.05	0.750			
0.8672	55499.34	3.4830	3.4829	0.2576	25.91	-0.04	0.750			
0.8679	55547.82	3.4800	3.4800	0.2536	25.91	-0.04	0.750			
0.8687	55596.19	3.4770	3.4770	0.2488	25.92	-0.03	0.750			
0.8694	55644.27	3.4740	3.4741	0.2439	25.92	-0.03	0.750			
0.8702	55690.85	3.4710	3.4708	0.2382	25.93	-0.02	0.750			
0.8709	55735.92	3.4680	3.4681	0.2320	25.93	-0.02	0.750			
0.8716	55779.59	3.4650	3.4650	0.2268	25.94	-0.01	0.750			
0.8722	55822.00	3.4620	3.4619	0.2226	25.94	-0.01	0.750			
0.8729	55864.38	3.4590	3.4590	0.2189	25.95	-0.00	0.750			
0.8735	55905.15	3.4560	3.4559	0.2137	25.95	0.00	0.750			
0.8742	55946.50	3.4530	3.4530	0.2102	25.95	0.00	0.750			
0.8748	55987.12	3.4500	3.4501	0.2067	25.96	0.01	0.750			
0.8754	56026.29	3.4470	3.4470	0.2013	25.96	0.01	0.750			
0.8760	56064.89	3.4440	3.4440	0.1955	25.97	0.02	0.750			
0.8766	56101.67	3.4410	3.4410	0.1897	25.97	0.02	0.750			
0.8771	56137.07	3.4380	3.4380	0.1836	25.97	0.02	0.750			
0.8777	56171.86	3.4350	3.4350	0.1787	25.98	0.03	0.750			
0.8782	56205.74	3.4320	3.4319	0.1740	25.98	0.03	0.750			
0.8787	56238.59	3.4290	3.4290	0.1689	25.98	0.03	0.750			
0.8792	56270.62	3.4260	3.4259	0.1639	25.99	0.04	0.750			
0.8797	56301.63	3.4230	3.4231	0.1591	25.99	0.04	0.750			
0.8802	56331.98	3.4200	3.4200	0.1539	25.99	0.04	0.750			
0.8806	56360.85	3.4170	3.4170	0.1489	26.00	0.05	0.750			
0.8811	56389.27	3.4140	3.4140	0.1430	26.00	0.05	0.750			
0.8815	56416.16	3.4110	3.4110	0.1371	26.00	0.05	0.750			
0.8819	56442.11	3.4080	3.4079	0.1309	26.00	0.05	0.750			
0.8823	56466.80	3.4050	3.4052	0.1248	26.01	0.06	0.750			
0.8827	56490.26	3.4020	3.4020	0.1182	26.01	0.06	0.750			
0.8830	56512.27	3.3990	3.3989	0.1111	26.01	0.06	0.750			
0.8833	56534.23	3.3960	3.3958	0.1017	26.01	0.06	0.750			
0.8836	56553.02	3.3930	3.3930	0.0926	26.01	0.06	0.750			
0.8839	56569.84	3.3900	3.3901	0.0825	26.02	0.07	0.750			
0.8842	56585.91	3.3870	3.3873	0.0736	26.02	0.07	0.750			
0.8844	56598.92	3.3840	3.3843	0.0619	26.02	0.07	0.750			
0.8845	56610.64	3.3810	3.3812	0.0493	26.02	0.07	0.750			
0.8847	56618.84	3.3780	3.3789	0.0361	26.02	0.07	0.750			
0.8848	56624.49	3.3750	3.3768	0.0228	26.02	0.07	0.750			
