Ah_balance (normalized)	Ah_balance (mAh)	Voltage - fit (V)	Voltage -  interpolate (V)	dQ/dV (1/V)	Temperature (°C)	Temperature - diff (°C)	Current (C)	R_DC 0ms (mOhm)	R_DC 50ms (mOhm)	R_DC 50 ms PEC (mOhm)
-0.0028	-181.13	4.1990	4.1989	0.8420	24.37	-0.30	0.050			
-0.0020	-127.20	4.1980	4.1979	0.8432	24.35	-0.32	0.050			
-0.0011	-72.88	4.1970	4.1970	0.8484	24.34	-0.33	0.050			
-0.0003	-18.56	4.1960	4.1960	0.8484	24.32	-0.35	0.050			
0.0006	35.62	4.1950	4.1950	0.8479	24.30	-0.37	0.050			
0.0014	89.61	4.1940	4.1940	0.8477	24.29	-0.38	0.050			
0.0022	143.79	4.1930	4.1930	0.8483	24.28	-0.39	0.050			
0.0031	198.12	4.1920	4.1920	0.8491	24.27	-0.40	0.050			
0.0039	252.53	4.1910	4.1910	0.8497	24.26	-0.41	0.050			
0.0048	306.98	4.1900	4.1900	0.8502	24.26	-0.41	0.050			
0.0056	361.51	4.1890	4.1890	0.8505	24.24	-0.43	0.050			
0.0065	415.99	4.1880	4.1880	0.8503	24.23	-0.44	0.050			
0.0074	470.56	4.1870	4.1869	0.8508	24.22	-0.45	0.050			
0.0082	525.32	4.1860	4.1860	0.8517	24.22	-0.45	0.050			
0.0091	579.73	4.1850	4.1851	0.8511	24.22	-0.45	0.050			
0.0099	634.08	4.1840	4.1840	0.8513	24.20	-0.47	0.050			
0.0108	688.67	4.1830	4.1830	0.8512	24.20	-0.47	0.050			
0.0116	743.27	4.1820	4.1821	0.8516	24.20	-0.47	0.050			
0.0125	797.67	4.1810	4.1810	0.8520	24.21	-0.46	0.050			
0.0133	852.20	4.1800	4.1800	0.8521	24.20	-0.47	0.050			
0.0142	906.81	4.1790	4.1790	0.8520	24.20	-0.47	0.050			
0.0150	961.43	4.1780	4.1779	0.8523	24.20	-0.47	0.050			
0.0159	1016.14	4.1770	4.1769	0.8528	24.21	-0.46	0.050	0.251	0.493	
0.0167	1070.30	4.1760	4.1759	0.8532	24.24	-0.43	0.050			
0.0176	1124.72	4.1750	4.1749	0.8533	24.22	-0.45	0.050			
0.0184	1179.04	4.1740	4.1741	0.8533	24.24	-0.43	0.050			
0.0193	1233.96	4.1730	4.1730	0.8535	24.24	-0.43	0.050			
0.0201	1288.66	4.1720	4.1720	0.8537	24.25	-0.42	0.050			
0.0210	1343.39	4.1710	4.1711	0.8542	24.26	-0.41	0.050			
0.0218	1398.18	4.1700	4.1700	0.8543	24.26	-0.41	0.050			
0.0227	1452.93	4.1690	4.1690	0.8546	24.27	-0.40	0.050			
0.0236	1507.65	4.1680	4.1680	0.8551	24.27	-0.40	0.050			
0.0244	1562.18	4.1670	4.1670	0.8554	24.29	-0.38	0.050			
0.0253	1617.16	4.1660	4.1661	0.8563	24.30	-0.37	0.050			
0.0261	1671.80	4.1650	4.1650	0.8563	24.30	-0.37	0.050			
0.0270	1726.59	4.1640	4.1640	0.8563	24.31	-0.36	0.050			
0.0278	1781.47	4.1630	4.1631	0.8572	24.32	-0.35	0.050			
0.0287	1836.29	4.1620	4.1619	0.8576	24.33	-0.34	0.050			
0.0295	1890.83	4.1610	4.1610	0.8582	24.34	-0.33	0.050			
0.0304	1945.84	4.1600	4.1601	0.8592	24.34	-0.33	0.050			
0.0313	2000.78	4.1590	4.1589	0.8601	24.35	-0.32	0.050			
0.0321	2055.91	4.1580	4.1581	0.8598	24.36	-0.31	0.050			
0.0330	2110.90	4.1570	4.1570	0.8607	24.37	-0.30	0.050			
0.0338	2165.80	4.1560	4.1560	0.8609	24.38	-0.29	0.050			
0.0347	2221.05	4.1550	4.1550	0.8622	24.40	-0.27	0.050			
0.0356	2276.58	4.1540	4.1539	0.8624	24.40	-0.27	0.050	0.223	0.399	
0.0364	2332.04	4.1530	4.1530	0.8635	24.40	-0.27	0.050			
0.0373	2387.52	4.1520	4.1520	0.8634	24.42	-0.25	0.050			
0.0382	2442.72	4.1510	4.1510	0.8634	24.42	-0.25	0.050			
0.0390	2497.88	4.1500	4.1500	0.8640	24.43	-0.24	0.050			
0.0399	2553.29	4.1490	4.1490	0.8644	24.44	-0.23	0.050			
0.0408	2608.52	4.1480	4.1479	0.8641	24.44	-0.23	0.050			
0.0416	2663.63	4.1470	4.1470	0.8648	24.44	-0.23	0.050			
0.0425	2719.02	4.1460	4.1460	0.8655	24.46	-0.21	0.050			
0.0433	2774.33	4.1450	4.1451	0.8659	24.46	-0.21	0.050			
0.0442	2829.62	4.1440	4.1439	0.8666	24.47	-0.20	0.050			
0.0451	2885.14	4.1430	4.1430	0.8667	24.48	-0.19	0.050			
0.0459	2940.54	4.1420	4.1420	0.8665	24.48	-0.19	0.050			
0.0468	2996.12	4.1410	4.1410	0.8664	24.49	-0.18	0.050			
0.0477	3051.56	4.1400	4.1400	0.8663	24.50	-0.17	0.050			
0.0486	3107.32	4.1390	4.1390	0.8666	24.51	-0.16	0.050			
0.0494	3162.98	4.1380	4.1380	0.8675	24.52	-0.15	0.050			
0.0503	3218.36	4.1370	4.1371	0.8671	24.53	-0.14	0.050			
0.0512	3273.87	4.1360	4.1360	0.8676	24.54	-0.13	0.050			
0.0520	3329.50	4.1350	4.1350	0.8679	24.54	-0.13	0.050			
0.0529	3385.15	4.1340	4.1340	0.8689	24.54	-0.13	0.050			
0.0538	3440.69	4.1330	4.1331	0.8682	24.54	-0.13	0.050			
0.0546	3496.22	4.1320	4.1320	0.8685	24.53	-0.14	0.050			
0.0555	3551.61	4.1310	4.1310	0.8685	24.52	-0.15	0.050	0.249	0.426	
0.0564	3607.03	4.1300	4.1300	0.8688	24.51	-0.16	0.050			
0.0572	3662.63	4.1290	4.1290	0.8693	24.51	-0.16	0.050			
0.0581	3718.21	4.1280	4.1280	0.8700	24.50	-0.17	0.050			
0.0590	3773.65	4.1270	4.1270	0.8697	24.50	-0.17	0.050			
0.0598	3829.26	4.1260	4.1261	0.8708	24.48	-0.19	0.050			
0.0607	3884.96	4.1250	4.1250	0.8720	24.47	-0.20	0.050			
0.0616	3940.95	4.1240	4.1241	0.8727	24.48	-0.19	0.050			
0.0625	3996.90	4.1230	4.1230	0.8733	24.48	-0.19	0.050			
0.0633	4053.13	4.1220	4.1220	0.8742	24.46	-0.21	0.050			
0.0642	4109.38	4.1210	4.1209	0.8740	24.46	-0.21	0.050			
0.0651	4165.42	4.1200	4.1200	0.8744	24.44	-0.23	0.050			
0.0660	4221.54	4.1190	4.1190	0.8740	24.44	-0.23	0.050			
0.0668	4277.44	4.1180	4.1180	0.8732	24.43	-0.24	0.050			
0.0677	4333.28	4.1170	4.1170	0.8733	24.42	-0.25	0.050			
0.0686	4388.91	4.1160	4.1160	0.8747	24.41	-0.26	0.050			
0.0695	4445.07	4.1150	4.1150	0.8747	24.40	-0.27	0.050			
0.0703	4501.13	4.1140	4.1141	0.8742	24.40	-0.27	0.050			
0.0712	4557.06	4.1130	4.1130	0.8747	24.39	-0.28	0.050			
0.0721	4613.00	4.1120	4.1120	0.8748	24.37	-0.30	0.050			
0.0729	4668.63	4.1110	4.1110	0.8753	24.36	-0.31	0.050			
0.0738	4724.24	4.1100	4.1100	0.8760	24.35	-0.32	0.050			
0.0747	4780.38	4.1090	4.1089	0.8764	24.36	-0.31	0.050			
0.0756	4836.37	4.1080	4.1079	0.8777	24.36	-0.31	0.050	0.095	0.382	
0.0764	4892.47	4.1070	4.1070	0.8781	24.35	-0.32	0.050			
0.0773	4948.63	4.1060	4.1061	0.8784	24.36	-0.31	0.050			
0.0782	5004.88	4.1050	4.1050	0.8791	24.35	-0.32	0.050			
0.0791	5061.67	4.1040	4.1040	0.8797	24.35	-0.32	0.050			
0.0800	5118.19	4.1030	4.1030	0.8808	24.36	-0.31	0.050			
0.0809	5174.60	4.1020	4.1020	0.8812	24.36	-0.31	0.050			
0.0817	5231.12	4.1010	4.1010	0.8823	24.36	-0.31	0.050			
0.0826	5287.65	4.1000	4.1000	0.8827	24.38	-0.29	0.050			
0.0835	5344.14	4.0990	4.0990	0.8825	24.38	-0.29	0.050			
0.0844	5400.73	4.0980	4.0980	0.8825	24.38	-0.29	0.050			
0.0853	5457.13	4.0970	4.0971	0.8823	24.39	-0.28	0.050			
0.0861	5513.56	4.0960	4.0959	0.8820	24.40	-0.27	0.050			
0.0870	5570.07	4.0950	4.0950	0.8832	24.40	-0.27	0.050			
0.0879	5626.71	4.0940	4.0940	0.8840	24.40	-0.27	0.050			
0.0888	5683.01	4.0930	4.0930	0.8833	24.40	-0.27	0.050			
0.0897	5739.35	4.0920	4.0920	0.8839	24.40	-0.27	0.050			
0.0906	5795.72	4.0910	4.0910	0.8840	24.40	-0.27	0.050			
0.0914	5852.30	4.0900	4.0900	0.8850	24.40	-0.27	0.050			
0.0923	5909.07	4.0890	4.0889	0.8859	24.40	-0.27	0.050			
0.0932	5965.65	4.0880	4.0880	0.8867	24.42	-0.25	0.050			
0.0941	6022.35	4.0870	4.0871	0.8875	24.42	-0.25	0.050			
0.0950	6079.30	4.0860	4.0859	0.8888	24.42	-0.25	0.050			
0.0959	6136.24	4.0850	4.0849	0.8889	24.42	-0.25	0.050	0.413	0.463	
0.0968	6193.24	4.0840	4.0840	0.8903	24.43	-0.24	0.050			
0.0977	6250.33	4.0830	4.0830	0.8898	24.42	-0.25	0.050			
0.0986	6307.26	4.0820	4.0820	0.8904	24.43	-0.24	0.050			
0.0994	6364.40	4.0810	4.0809	0.8918	24.43	-0.24	0.050			
0.1003	6421.53	4.0800	4.0800	0.8916	24.43	-0.24	0.050			
0.1012	6478.91	4.0790	4.0790	0.8926	24.43	-0.24	0.050			
0.1021	6535.83	4.0780	4.0781	0.8926	24.42	-0.25	0.050			
0.1030	6593.11	4.0770	4.0770	0.8934	24.42	-0.25	0.050			
0.1039	6650.11	4.0760	4.0760	0.8944	24.44	-0.23	0.050			
0.1048	6707.28	4.0750	4.0750	0.8948	24.44	-0.23	0.050			
0.1057	6764.66	4.0740	4.0740	0.8948	24.42	-0.25	0.050			
0.1066	6822.08	4.0730	4.0730	0.8942	24.42	-0.25	0.050			
0.1075	6879.21	4.0720	4.0720	0.8947	24.42	-0.25	0.050			
0.1084	6936.34	4.0710	4.0711	0.8961	24.42	-0.25	0.050			
0.1093	6993.49	4.0700	4.0700	0.8968	24.43	-0.24	0.050			
0.1102	7050.86	4.0690	4.0689	0.8979	24.43	-0.24	0.050			
0.1111	7108.26	4.0680	4.0680	0.8989	24.44	-0.23	0.050			
0.1120	7165.98	4.0670	4.0670	0.8989	24.43	-0.24	0.050			
0.1129	7223.65	4.0660	4.0660	0.8993	24.44	-0.23	0.050			
0.1138	7281.50	4.0650	4.0649	0.8999	24.43	-0.24	0.050			
0.1147	7339.15	4.0640	4.0641	0.8996	24.44	-0.23	0.050			
0.1156	7397.06	4.0630	4.0629	0.9002	24.44	-0.23	0.050			
0.1165	7454.66	4.0620	4.0621	0.8997	24.44	-0.23	0.050			
0.1174	7512.31	4.0610	4.0609	0.8992	24.45	-0.22	0.050			
0.1183	7569.87	4.0600	4.0601	0.9003	24.44	-0.23	0.050			
0.1192	7627.34	4.0590	4.0590	0.9006	24.44	-0.23	0.050			
0.1201	7684.68	4.0580	4.0581	0.9006	24.45	-0.22	0.050			
0.1210	7742.32	4.0570	4.0570	0.9010	24.45	-0.22	0.050			
0.1219	7799.59	4.0560	4.0559	0.9019	24.46	-0.21	0.050			
0.1228	7857.23	4.0550	4.0550	0.9030	24.46	-0.21	0.050			
0.1237	7915.14	4.0540	4.0540	0.9042	24.46	-0.21	0.050			
0.1246	7972.90	4.0530	4.0530	0.9045	24.45	-0.22	0.050			
0.1255	8030.61	4.0520	4.0519	0.9053	24.44	-0.23	0.050			
0.1264	8088.15	4.0510	4.0509	0.9055	24.43	-0.24	0.050			
0.1273	8146.19	4.0500	4.0500	0.9062	24.42	-0.25	0.050			
0.1282	8204.32	4.0490	4.0490	0.9081	24.41	-0.26	0.050			
0.1291	8262.52	4.0480	4.0480	0.9099	24.40	-0.27	0.050			
0.1300	8320.95	4.0470	4.0470	0.9124	24.39	-0.28	0.050			
0.1309	8379.51	4.0460	4.0460	0.9136	24.38	-0.29	0.050			
0.1318	8438.28	4.0450	4.0450	0.9145	24.37	-0.30	0.050			
0.1328	8497.10	4.0440	4.0440	0.9155	24.35	-0.32	0.050			
0.1337	8555.93	4.0430	4.0430	0.9158	24.33	-0.34	0.050			
0.1346	8614.77	4.0420	4.0420	0.9159	24.32	-0.35	0.050			
0.1355	8673.48	4.0410	4.0409	0.9156	24.31	-0.36	0.050	0.075	0.393	
0.1364	8731.86	4.0400	4.0400	0.9160	24.30	-0.37	0.050			
0.1373	8790.33	4.0390	4.0390	0.9163	24.29	-0.38	0.050			
0.1383	8849.32	4.0380	4.0380	0.9169	24.27	-0.40	0.050			
0.1392	8907.91	4.0370	4.0371	0.9167	24.27	-0.40	0.050			
0.1401	8966.34	4.0360	4.0360	0.9177	24.27	-0.40	0.050			
0.1410	9024.87	4.0350	4.0351	0.9183	24.26	-0.41	0.050			
0.1419	9083.57	4.0340	4.0339	0.9205	24.25	-0.42	0.050			
0.1429	9142.58	4.0330	4.0330	0.9213	24.23	-0.44	0.050			
0.1438	9201.53	4.0320	4.0319	0.9216	24.22	-0.45	0.050			
0.1447	9260.38	4.0310	4.0309	0.9226	24.22	-0.45	0.050			
0.1456	9319.59	4.0300	4.0300	0.9225	24.22	-0.45	0.050			
0.1465	9378.56	4.0290	4.0291	0.9226	24.22	-0.45	0.050			
0.1475	9437.88	4.0280	4.0280	0.9228	24.20	-0.47	0.050			
0.1484	9496.86	4.0270	4.0270	0.9239	24.20	-0.47	0.050			
0.1493	9556.20	4.0260	4.0260	0.9250	24.22	-0.45	0.050			
0.1502	9615.58	4.0250	4.0250	0.9264	24.22	-0.45	0.050			
0.1512	9674.99	4.0240	4.0241	0.9278	24.24	-0.43	0.050			
0.1521	9734.29	4.0230	4.0230	0.9287	24.24	-0.43	0.050			
0.1530	9793.76	4.0220	4.0220	0.9295	24.24	-0.43	0.050			
0.1540	9853.34	4.0210	4.0211	0.9297	24.26	-0.41	0.050			
0.1549	9912.44	4.0200	4.0200	0.9300	24.26	-0.41	0.050			
0.1558	9971.98	4.0190	4.0189	0.9311	24.28	-0.39	0.050	0.339	0.415	
0.1567	10031.59	4.0180	4.0179	0.9323	24.28	-0.39	0.050			
0.1577	10091.22	4.0170	4.0170	0.9331	24.29	-0.38	0.050			
0.1586	10150.39	4.0160	4.0160	0.9337	24.30	-0.37	0.050			
0.1595	10210.39	4.0150	4.0150	0.9350	24.30	-0.37	0.050			
0.1605	10270.15	4.0140	4.0140	0.9360	24.30	-0.37	0.050			
0.1614	10330.30	4.0130	4.0130	0.9381	24.32	-0.35	0.050			
0.1624	10390.64	4.0120	4.0119	0.9393	24.33	-0.34	0.050			
0.1633	10450.91	4.0110	4.0110	0.9400	24.36	-0.31	0.050			
0.1642	10511.57	4.0100	4.0099	0.9409	24.35	-0.32	0.050			
0.1652	10571.84	4.0090	4.0090	0.9414	24.36	-0.31	0.050			
0.1661	10631.80	4.0080	4.0080	0.9427	24.38	-0.29	0.050			
0.1671	10692.05	4.0070	4.0070	0.9436	24.38	-0.29	0.050			
0.1680	10752.44	4.0060	4.0060	0.9439	24.40	-0.27	0.050			
0.1690	10812.88	4.0050	4.0050	0.9448	24.40	-0.27	0.050			
0.1699	10873.23	4.0040	4.0040	0.9457	24.42	-0.25	0.050			
0.1708	10933.55	4.0030	4.0030	0.9474	24.43	-0.24	0.050			
0.1718	10994.24	4.0020	4.0020	0.9490	24.44	-0.23	0.050			
0.1727	11055.02	4.0010	4.0010	0.9498	24.44	-0.23	0.050			
0.1737	11115.66	4.0000	4.0000	0.9508	24.45	-0.22	0.050			
0.1746	11176.57	3.9990	3.9990	0.9518	24.46	-0.21	0.050			
0.1756	11237.46	3.9980	3.9980	0.9533	24.47	-0.20	0.050	0.139	0.450	
0.1765	11298.59	3.9970	3.9970	0.9548	24.46	-0.21	0.050			
0.1775	11359.51	3.9960	3.9960	0.9565	24.48	-0.19	0.050			
0.1785	11420.85	3.9950	3.9950	0.9583	24.49	-0.18	0.050			
0.1794	11482.46	3.9940	3.9940	0.9593	24.50	-0.17	0.050			
0.1804	11544.10	3.9930	3.9930	0.9602	24.51	-0.16	0.050			
0.1813	11605.92	3.9920	3.9919	0.9615	24.52	-0.15	0.050			
0.1823	11667.84	3.9910	3.9910	0.9622	24.52	-0.15	0.050			
0.1833	11729.62	3.9900	3.9900	0.9623	24.53	-0.14	0.050			
0.1842	11791.23	3.9890	3.9890	0.9616	24.54	-0.13	0.050			
0.1852	11852.86	3.9880	3.9880	0.9614	24.54	-0.13	0.050			
0.1862	11914.47	3.9870	3.9870	0.9626	24.54	-0.13	0.050			
0.1871	11975.94	3.9860	3.9861	0.9631	24.54	-0.13	0.050			
0.1881	12037.61	3.9850	3.9850	0.9629	24.54	-0.13	0.050			
0.1890	12099.17	3.9840	3.9840	0.9628	24.54	-0.13	0.050			
0.1900	12160.44	3.9830	3.9830	0.9636	24.54	-0.13	0.050			
0.1910	12222.07	3.9820	3.9820	0.9642	24.55	-0.12	0.050			
0.1919	12283.85	3.9810	3.9810	0.9651	24.54	-0.13	0.050			
0.1929	12345.43	3.9800	3.9800	0.9661	24.54	-0.13	0.050			
0.1939	12407.08	3.9790	3.9790	0.9664	24.52	-0.15	0.050			
0.1948	12468.75	3.9780	3.9780	0.9674	24.51	-0.16	0.050			
0.1958	12530.49	3.9770	3.9770	0.9684	24.52	-0.15	0.050	0.313	0.371	
0.1968	12592.21	3.9760	3.9760	0.9699	24.51	-0.16	0.050			
0.1977	12654.63	3.9750	3.9750	0.9719	24.50	-0.17	0.050			
0.1987	12716.98	3.9740	3.9740	0.9734	24.48	-0.19	0.050			
0.1997	12779.37	3.9730	3.9730	0.9749	24.47	-0.20	0.050			
0.2007	12841.79	3.9720	3.9720	0.9767	24.47	-0.20	0.050			
0.2016	12904.49	3.9710	3.9710	0.9783	24.46	-0.21	0.050			
0.2026	12967.42	3.9700	3.9700	0.9792	24.44	-0.23	0.050			
0.2036	13030.16	3.9690	3.9690	0.9800	24.44	-0.23	0.050			
0.2046	13092.87	3.9680	3.9680	0.9808	24.43	-0.24	0.050			
0.2056	13155.83	3.9670	3.9670	0.9811	24.42	-0.25	0.050			
0.2065	13218.66	3.9660	3.9661	0.9820	24.41	-0.26	0.050			
0.2075	13281.54	3.9650	3.9650	0.9837	24.40	-0.27	0.050			
0.2085	13344.35	3.9640	3.9640	0.9847	24.39	-0.28	0.050			
0.2095	13407.27	3.9630	3.9630	0.9855	24.38	-0.29	0.050			
0.2105	13470.40	3.9620	3.9619	0.9872	24.38	-0.29	0.050			
0.2115	13533.61	3.9610	3.9610	0.9883	24.36	-0.31	0.050			
0.2125	13597.10	3.9600	3.9600	0.9887	24.36	-0.31	0.050			
0.2134	13660.45	3.9590	3.9590	0.9893	24.37	-0.30	0.050			
0.2144	13723.78	3.9580	3.9580	0.9896	24.37	-0.30	0.050			
0.2154	13787.13	3.9570	3.9569	0.9901	24.37	-0.30	0.050			
0.2164	13850.44	3.9560	3.9560	0.9909	24.36	-0.31	0.050	-0.044	0.368	
0.2174	13913.94	3.9550	3.9550	0.9926	24.38	-0.29	0.050			
0.2184	13977.45	3.9540	3.9541	0.9934	24.39	-0.28	0.050			
0.2194	14041.01	3.9530	3.9530	0.9939	24.38	-0.29	0.050			
0.2204	14104.90	3.9520	3.9521	0.9944	24.39	-0.28	0.050			
0.2214	14168.46	3.9510	3.9510	0.9952	24.38	-0.29	0.050			
0.2224	14232.51	3.9500	3.9499	0.9963	24.38	-0.29	0.050			
0.2234	14296.30	3.9490	3.9491	0.9967	24.40	-0.27	0.050			
0.2244	14360.11	3.9480	3.9480	0.9966	24.41	-0.26	0.050			
0.2254	14424.19	3.9470	3.9470	0.9967	24.41	-0.26	0.050			
0.2264	14487.66	3.9460	3.9460	0.9968	24.41	-0.26	0.050			
0.2274	14551.16	3.9450	3.9450	0.9972	24.42	-0.25	0.050			
0.2284	14614.86	3.9440	3.9441	0.9981	24.42	-0.25	0.050			
0.2294	14678.78	3.9430	3.9430	0.9988	24.42	-0.25	0.050			
0.2304	14742.61	3.9420	3.9420	1.0003	24.42	-0.25	0.050			
0.2314	14806.83	3.9410	3.9410	1.0015	24.43	-0.24	0.050			
0.2324	14871.06	3.9400	3.9400	1.0026	24.42	-0.25	0.050			
0.2334	14935.09	3.9390	3.9390	1.0034	24.43	-0.24	0.050			
0.2344	14999.33	3.9380	3.9380	1.0037	24.42	-0.25	0.050			
0.2354	15063.23	3.9370	3.9369	1.0049	24.43	-0.24	0.050			
0.2364	15127.51	3.9360	3.9359	1.0062	24.43	-0.24	0.050			
0.2374	15191.79	3.9350	3.9350	1.0074	24.44	-0.23	0.050			
0.2384	15256.62	3.9340	3.9340	1.0083	24.44	-0.23	0.050			
0.2394	15321.26	3.9330	3.9330	1.0099	24.44	-0.23	0.050			
0.2404	15386.05	3.9320	3.9320	1.0113	24.44	-0.23	0.050			
0.2414	15451.03	3.9310	3.9310	1.0111	24.44	-0.23	0.050			
0.2424	15516.08	3.9300	3.9300	1.0119	24.44	-0.23	0.050			
0.2435	15580.95	3.9290	3.9290	1.0121	24.45	-0.22	0.050			
0.2445	15645.87	3.9280	3.9280	1.0132	24.46	-0.21	0.050			
0.2455	15710.85	3.9270	3.9270	1.0133	24.46	-0.21	0.050			
0.2465	15775.42	3.9260	3.9260	1.0130	24.46	-0.21	0.050			
0.2475	15840.14	3.9250	3.9250	1.0139	24.48	-0.19	0.050			
0.2485	15905.07	3.9240	3.9239	1.0147	24.46	-0.21	0.050			
0.2495	15969.98	3.9230	3.9230	1.0148	24.46	-0.21	0.050			
0.2505	16034.81	3.9220	3.9220	1.0155	24.47	-0.20	0.050			
0.2516	16099.86	3.9210	3.9210	1.0164	24.46	-0.21	0.050			
0.2526	16164.75	3.9200	3.9200	1.0173	24.47	-0.20	0.050			
0.2536	16229.72	3.9190	3.9190	1.0179	24.48	-0.19	0.050			
0.2546	16294.82	3.9180	3.9181	1.0186	24.48	-0.19	0.050			
0.2556	16359.80	3.9170	3.9169	1.0192	24.48	-0.19	0.050	0.387	0.492	
0.2566	16425.20	3.9160	3.9160	1.0204	24.48	-0.19	0.050			
0.2577	16490.62	3.9150	3.9150	1.0214	24.48	-0.19	0.050			
0.2587	16556.47	3.9140	3.9140	1.0217	24.46	-0.21	0.050			
0.2597	16621.76	3.9130	3.9130	1.0225	24.46	-0.21	0.050			
0.2607	16687.28	3.9120	3.9120	1.0233	24.44	-0.23	0.050			
0.2618	16753.12	3.9110	3.9110	1.0247	24.44	-0.23	0.050			
0.2628	16818.60	3.9100	3.9101	1.0248	24.42	-0.25	0.050			
0.2638	16884.25	3.9090	3.9090	1.0257	24.40	-0.27	0.050			
0.2648	16949.68	3.9080	3.9080	1.0258	24.40	-0.27	0.050			
0.2659	17015.37	3.9070	3.9070	1.0267	24.38	-0.29	0.050			
0.2669	17080.78	3.9060	3.9059	1.0278	24.36	-0.31	0.050			
0.2679	17146.41	3.9050	3.9050	1.0290	24.34	-0.33	0.050			
0.2689	17212.31	3.9040	3.9040	1.0308	24.32	-0.35	0.050			
0.2700	17278.32	3.9030	3.9030	1.0315	24.32	-0.35	0.050			
0.2710	17344.13	3.9020	3.9020	1.0324	24.30	-0.37	0.050			
0.2720	17410.13	3.9010	3.9009	1.0335	24.29	-0.38	0.050			
0.2731	17476.38	3.9000	3.9000	1.0347	24.27	-0.40	0.050			
0.2741	17542.64	3.8990	3.8990	1.0365	24.26	-0.41	0.050			
0.2751	17609.17	3.8980	3.8980	1.0378	24.24	-0.43	0.050			
0.2762	17675.79	3.8970	3.8970	1.0388	24.23	-0.44	0.050			
0.2772	17742.38	3.8960	3.8961	1.0399	24.22	-0.45	0.050			
0.2783	17809.24	3.8950	3.8951	1.0413	24.22	-0.45	0.050			
0.2793	17876.03	3.8940	3.8940	1.0431	24.20	-0.47	0.050			
0.2804	17942.91	3.8930	3.8930	1.0435	24.20	-0.47	0.050			
0.2814	18009.73	3.8920	3.8920	1.0441	24.19	-0.48	0.050			
0.2824	18076.63	3.8910	3.8910	1.0450	24.18	-0.49	0.050			
0.2835	18143.76	3.8900	3.8900	1.0443	24.19	-0.48	0.050			
0.2845	18210.75	3.8890	3.8891	1.0447	24.21	-0.46	0.050			
0.2856	18277.82	3.8880	3.8880	1.0442	24.20	-0.47	0.050			
0.2866	18344.50	3.8870	3.8869	1.0442	24.22	-0.45	0.050			
0.2877	18410.92	3.8860	3.8860	1.0449	24.22	-0.45	0.050			
0.2887	18477.75	3.8850	3.8850	1.0458	24.24	-0.43	0.050			
0.2898	18544.78	3.8840	3.8840	1.0461	24.24	-0.43	0.050			
0.2908	18611.74	3.8830	3.8831	1.0470	24.25	-0.42	0.050			
0.2919	18678.45	3.8820	3.8820	1.0476	24.26	-0.41	0.050			
0.2929	18745.39	3.8810	3.8810	1.0485	24.27	-0.40	0.050			
0.2939	18812.26	3.8800	3.8800	1.0500	24.28	-0.39	0.050			
0.2950	18879.25	3.8790	3.8790	1.0509	24.28	-0.39	0.050			
0.2960	18946.50	3.8780	3.8779	1.0530	24.30	-0.37	0.050	0.346	0.450	
0.2971	19013.89	3.8770	3.8771	1.0540	24.31	-0.36	0.050			
0.2981	19081.25	3.8760	3.8760	1.0553	24.30	-0.37	0.050			
0.2992	19148.87	3.8750	3.8750	1.0570	24.32	-0.35	0.050			
0.3003	19216.43	3.8740	3.8740	1.0587	24.33	-0.34	0.050			
0.3013	19284.38	3.8730	3.8730	1.0614	24.35	-0.32	0.050			
0.3024	19352.63	3.8720	3.8720	1.0630	24.35	-0.32	0.050			
0.3035	19420.84	3.8710	3.8711	1.0645	24.37	-0.30	0.050			
0.3045	19489.53	3.8700	3.8700	1.0662	24.38	-0.29	0.050			
0.3056	19557.76	3.8690	3.8690	1.0672	24.40	-0.27	0.050			
0.3067	19626.04	3.8680	3.8679	1.0686	24.42	-0.25	0.050			
0.3077	19694.25	3.8670	3.8671	1.0692	24.42	-0.25	0.050			
0.3088	19762.60	3.8660	3.8659	1.0705	24.43	-0.24	0.050			
0.3099	19830.94	3.8650	3.8650	1.0730	24.46	-0.21	0.050			
0.3109	19899.91	3.8640	3.8641	1.0749	24.46	-0.21	0.050			
0.3120	19968.66	3.8630	3.8630	1.0754	24.47	-0.20	0.050			
0.3131	20037.82	3.8620	3.8619	1.0757	24.48	-0.19	0.050			
0.3142	20106.73	3.8610	3.8610	1.0766	24.48	-0.19	0.050			
0.3152	20175.69	3.8600	3.8600	1.0774	24.50	-0.17	0.050			
0.3163	20244.34	3.8590	3.8589	1.0793	24.51	-0.16	0.050	0.162	0.428	
0.3174	20313.62	3.8580	3.8580	1.0808	24.52	-0.15	0.050			
0.3185	20382.66	3.8570	3.8570	1.0831	24.52	-0.15	0.050			
0.3196	20451.81	3.8560	3.8560	1.0846	24.53	-0.14	0.050			
0.3206	20521.32	3.8550	3.8550	1.0862	24.56	-0.11	0.050			
0.3217	20590.78	3.8540	3.8540	1.0877	24.56	-0.11	0.050			
0.3228	20660.60	3.8530	3.8530	1.0894	24.56	-0.11	0.050			
0.3239	20730.31	3.8520	3.8520	1.0920	24.56	-0.11	0.050			
0.3250	20799.93	3.8510	3.8510	1.0951	24.57	-0.10	0.050			
0.3261	20870.05	3.8500	3.8499	1.0972	24.56	-0.11	0.050			
0.3272	20939.94	3.8490	3.8491	1.0994	24.57	-0.10	0.050			
0.3283	21010.40	3.8480	3.8480	1.1017	24.56	-0.11	0.050			
0.3294	21080.93	3.8470	3.8470	1.1046	24.55	-0.12	0.050			
0.3305	21151.61	3.8460	3.8460	1.1071	24.52	-0.15	0.050			
0.3316	21222.54	3.8450	3.8450	1.1100	24.52	-0.15	0.050			
0.3327	21293.70	3.8440	3.8440	1.1134	24.52	-0.15	0.050			
0.3338	21365.55	3.8430	3.8429	1.1171	24.52	-0.15	0.050			
0.3350	21437.33	3.8420	3.8419	1.1200	24.51	-0.16	0.050			
0.3361	21509.05	3.8410	3.8409	1.1219	24.49	-0.18	0.050	0.254	0.451	
0.3372	21580.86	3.8400	3.8400	1.1238	24.51	-0.16	0.050			
0.3383	21652.77	3.8390	3.8390	1.1258	24.48	-0.19	0.050			
0.3395	21725.00	3.8380	3.8380	1.1293	24.48	-0.19	0.050			
0.3406	21797.10	3.8370	3.8369	1.1317	24.47	-0.20	0.050			
0.3417	21869.84	3.8360	3.8360	1.1342	24.46	-0.21	0.050			
0.3429	21942.53	3.8350	3.8350	1.1377	24.46	-0.21	0.050			
0.3440	22015.45	3.8340	3.8340	1.1398	24.46	-0.21	0.050			
0.3451	22088.23	3.8330	3.8330	1.1427	24.45	-0.22	0.050			
0.3463	22161.05	3.8320	3.8320	1.1454	24.45	-0.22	0.050			
0.3474	22233.95	3.8310	3.8311	1.1485	24.44	-0.23	0.050			
0.3486	22307.55	3.8300	3.8299	1.1544	24.45	-0.22	0.050			
0.3497	22381.30	3.8290	3.8290	1.1580	24.48	-0.19	0.050			
0.3509	22455.72	3.8280	3.8281	1.1618	24.48	-0.19	0.050			
0.3520	22530.39	3.8270	3.8270	1.1656	24.50	-0.17	0.050			
0.3532	22604.88	3.8260	3.8260	1.1694	24.50	-0.17	0.050			
0.3544	22679.69	3.8250	3.8250	1.1736	24.51	-0.16	0.050			
0.3555	22755.07	3.8240	3.8240	1.1777	24.52	-0.15	0.050			
0.3567	22830.84	3.8230	3.8230	1.1819	24.53	-0.14	0.050	0.222	0.399	
0.3579	22906.85	3.8220	3.8219	1.1856	24.54	-0.13	0.050			
0.3591	22983.06	3.8210	3.8210	1.1889	24.55	-0.12	0.050			
0.3603	23059.34	3.8200	3.8201	1.1926	24.55	-0.12	0.050			
0.3615	23135.82	3.8190	3.8191	1.1963	24.56	-0.11	0.050			
0.3627	23212.56	3.8180	3.8180	1.1994	24.57	-0.10	0.050			
0.3639	23289.65	3.8170	3.8170	1.2028	24.58	-0.09	0.050			
0.3651	23366.99	3.8160	3.8161	1.2048	24.58	-0.09	0.050			
0.3663	23444.10	3.8150	3.8150	1.2079	24.58	-0.09	0.050			
0.3675	23521.76	3.8140	3.8140	1.2104	24.59	-0.08	0.050			
0.3687	23599.47	3.8130	3.8130	1.2110	24.61	-0.06	0.050			
0.3700	23677.32	3.8120	3.8120	1.2118	24.62	-0.05	0.050			
0.3712	23755.47	3.8110	3.8110	1.2111	24.63	-0.04	0.050			
0.3724	23833.59	3.8100	3.8100	1.2104	24.64	-0.03	0.050			
0.3736	23911.84	3.8090	3.8090	1.2106	24.65	-0.02	0.050			
0.3749	23990.40	3.8080	3.8079	1.2078	24.65	-0.02	0.050			
0.3761	24068.38	3.8070	3.8069	1.2039	24.64	-0.03	0.050	0.063	0.391	
0.3773	24146.01	3.8060	3.8060	1.1987	24.64	-0.03	0.050			
0.3785	24223.39	3.8050	3.8050	1.1936	24.64	-0.03	0.050			
0.3797	24300.23	3.8040	3.8041	1.1860	24.64	-0.03	0.050			
0.3809	24377.06	3.8030	3.8030	1.1775	24.64	-0.03	0.050			
0.3821	24453.25	3.8020	3.8021	1.1674	24.65	-0.02	0.050			
0.3833	24528.47	3.8010	3.8010	1.1563	24.65	-0.02	0.050			
0.3844	24603.17	3.8000	3.8000	1.1422	24.66	-0.01	0.050			
0.3856	24676.66	3.7990	3.7990	1.1284	24.67	-0.00	0.050			
0.3867	24749.30	3.7980	3.7980	1.1135	24.67	-0.00	0.050			
0.3878	24820.77	3.7970	3.7970	1.0976	24.65	-0.02	0.050			
0.3889	24891.14	3.7960	3.7961	1.0804	24.67	-0.00	0.050			
0.3900	24960.03	3.7950	3.7951	1.0618	24.68	0.01	0.050			
0.3911	25028.08	3.7940	3.7939	1.0444	24.68	0.01	0.050			
0.3921	25094.98	3.7930	3.7930	1.0254	24.69	0.02	0.050			
0.3931	25160.38	3.7920	3.7920	1.0053	24.70	0.03	0.050			
0.3941	25224.60	3.7910	3.7910	0.9849	24.70	0.03	0.050			
0.3951	25287.01	3.7900	3.7899	0.9637	24.71	0.04	0.050			
0.3961	25347.90	3.7890	3.7889	0.9431	24.71	0.04	0.050	0.160	0.422	
0.3970	25407.59	3.7880	3.7880	0.9226	24.69	0.02	0.050			
0.3979	25465.56	3.7870	3.7871	0.9016	24.68	0.01	0.050			
0.3988	25522.23	3.7860	3.7860	0.8813	24.67	0.00	0.050			
0.3997	25577.73	3.7850	3.7850	0.8618	24.66	-0.01	0.050			
0.4005	25631.73	3.7840	3.7840	0.8426	24.65	-0.02	0.050			
0.4013	25684.61	3.7830	3.7831	0.8248	24.64	-0.03	0.050			
0.4021	25736.36	3.7820	3.7820	0.8073	24.62	-0.05	0.050			
0.4029	25786.58	3.7810	3.7809	0.7929	24.61	-0.06	0.050			
0.4037	25835.82	3.7800	3.7800	0.7776	24.60	-0.07	0.050			
0.4044	25884.17	3.7790	3.7790	0.7633	24.59	-0.08	0.050			
0.4052	25931.24	3.7780	3.7780	0.7494	24.57	-0.10	0.050			
0.4059	25977.87	3.7770	3.7770	0.7386	24.56	-0.11	0.050			
0.4066	26023.52	3.7760	3.7760	0.7279	24.55	-0.12	0.050			
0.4073	26068.99	3.7750	3.7751	0.7196	24.54	-0.13	0.050			
0.4080	26113.88	3.7740	3.7740	0.7135	24.54	-0.13	0.050			
0.4087	26157.19	3.7730	3.7730	0.7096	24.55	-0.12	0.050			
0.4094	26201.82	3.7720	3.7720	0.7060	24.54	-0.13	0.050			
0.4101	26246.02	3.7710	3.7709	0.7039	24.53	-0.14	0.050			
0.4108	26290.02	3.7700	3.7700	0.7031	24.52	-0.15	0.050			
0.4115	26333.12	3.7690	3.7691	0.7031	24.50	-0.17	0.050			
0.4121	26377.32	3.7680	3.7680	0.7054	24.50	-0.17	0.050			
0.4128	26421.81	3.7670	3.7670	0.7087	24.49	-0.18	0.050			
0.4135	26466.63	3.7660	3.7659	0.7132	24.48	-0.19	0.050			
0.4142	26511.43	3.7650	3.7649	0.7201	24.47	-0.20	0.050			
0.4150	26557.15	3.7640	3.7640	0.7268	24.46	-0.21	0.050			
0.4157	26603.24	3.7630	3.7630	0.7346	24.46	-0.21	0.050			
0.4164	26649.66	3.7620	3.7620	0.7441	24.45	-0.22	0.050	0.309	0.495	
0.4171	26696.86	3.7610	3.7610	0.7527	24.45	-0.22	0.050			
0.4179	26744.58	3.7600	3.7600	0.7636	24.46	-0.21	0.050			
0.4186	26793.47	3.7590	3.7590	0.7754	24.46	-0.21	0.050			
0.4194	26843.00	3.7580	3.7580	0.7882	24.47	-0.20	0.050			
0.4202	26893.39	3.7570	3.7570	0.8010	24.48	-0.19	0.050			
0.4210	26944.58	3.7560	3.7560	0.8144	24.48	-0.19	0.050			
0.4218	26996.90	3.7550	3.7550	0.8283	24.49	-0.18	0.050			
0.4227	27049.81	3.7540	3.7540	0.8431	24.50	-0.17	0.050			
0.4235	27103.54	3.7530	3.7530	0.8577	24.50	-0.17	0.050			
0.4244	27158.99	3.7520	3.7520	0.8726	24.51	-0.16	0.050			
0.4252	27215.49	3.7510	3.7510	0.8891	24.52	-0.15	0.050			
0.4261	27272.44	3.7500	3.7500	0.9054	24.52	-0.15	0.050			
0.4270	27330.39	3.7490	3.7490	0.9226	24.52	-0.15	0.050			
0.4280	27389.82	3.7480	3.7480	0.9400	24.52	-0.15	0.050			
0.4289	27450.29	3.7470	3.7470	0.9573	24.52	-0.15	0.050			
0.4299	27511.56	3.7460	3.7460	0.9768	24.54	-0.13	0.050			
0.4308	27574.34	3.7450	3.7451	0.9945	24.53	-0.14	0.050			
0.4318	27638.22	3.7440	3.7440	1.0142	24.55	-0.12	0.050			
0.4329	27703.44	3.7430	3.7430	1.0342	24.56	-0.11	0.050			
0.4339	27770.08	3.7420	3.7419	1.0530	24.59	-0.08	0.050			
0.4350	27838.03	3.7410	3.7410	1.0724	24.60	-0.07	0.050			
0.4360	27907.15	3.7400	3.7400	1.0924	24.60	-0.07	0.050			
0.4372	27977.77	3.7390	3.7391	1.1124	24.61	-0.06	0.050			
0.4383	28049.65	3.7380	3.7380	1.1325	24.62	-0.05	0.050			
0.4394	28123.04	3.7370	3.7369	1.1519	24.63	-0.04	0.050			
0.4406	28197.67	3.7360	3.7360	1.1719	24.66	-0.01	0.050			
0.4418	28273.45	3.7350	3.7350	1.1918	24.65	-0.02	0.050			
0.4430	28350.47	3.7340	3.7340	1.2114	24.67	0.00	0.050			
0.4442	28428.60	3.7330	3.7330	1.2313	24.68	0.01	0.050			
0.4454	28508.37	3.7320	3.7319	1.2517	24.70	0.03	0.050			
0.4467	28589.19	3.7310	3.7310	1.2699	24.71	0.04	0.050			
0.4480	28671.41	3.7300	3.7300	1.2870	24.72	0.05	0.050			
0.4493	28754.66	3.7290	3.7290	1.3046	24.73	0.06	0.050			
0.4506	28839.29	3.7280	3.7280	1.3213	24.75	0.08	0.050			
0.4519	28924.36	3.7270	3.7269	1.3392	24.76	0.09	0.050			
0.4533	29010.45	3.7260	3.7260	1.3562	24.77	0.10	0.050			
0.4547	29097.97	3.7250	3.7251	1.3749	24.77	0.10	0.050			
0.4560	29185.99	3.7240	3.7240	1.3929	24.76	0.09	0.050	0.423	0.428	
0.4574	29275.53	3.7230	3.7230	1.4115	24.78	0.11	0.050			
0.4589	29366.43	3.7220	3.7220	1.4304	24.78	0.11	0.050			
0.4603	29458.40	3.7210	3.7210	1.4482	24.77	0.10	0.050			
0.4617	29551.03	3.7200	3.7199	1.4680	24.77	0.10	0.050			
0.4632	29645.35	3.7190	3.7189	1.4875	24.77	0.10	0.050			
0.4647	29741.13	3.7180	3.7180	1.5063	24.75	0.08	0.050			
0.4662	29837.89	3.7170	3.7169	1.5263	24.72	0.05	0.050			
0.4677	29935.46	3.7160	3.7160	1.5474	24.70	0.03	0.050			
0.4693	30034.67	3.7150	3.7150	1.5674	24.70	0.03	0.050			
0.4709	30135.65	3.7140	3.7141	1.5886	24.68	0.01	0.050			
0.4725	30237.98	3.7130	3.7130	1.6097	24.68	0.01	0.050			
0.4741	30341.87	3.7120	3.7120	1.6318	24.66	-0.01	0.050			
0.4757	30447.45	3.7110	3.7110	1.6543	24.64	-0.03	0.050	0.327	0.483	
0.4774	30554.22	3.7100	3.7099	1.6765	24.62	-0.05	0.050			
0.4791	30661.80	3.7090	3.7090	1.6987	24.60	-0.07	0.050			
0.4808	30771.40	3.7080	3.7080	1.7189	24.58	-0.09	0.050			
0.4825	30881.81	3.7070	3.7070	1.7401	24.58	-0.09	0.050			
0.4843	30993.70	3.7060	3.7061	1.7628	24.59	-0.08	0.050			
0.4860	31106.80	3.7050	3.7050	1.7854	24.59	-0.08	0.050			
0.4878	31221.44	3.7040	3.7040	1.8092	24.60	-0.07	0.050			
0.4897	31337.79	3.7030	3.7030	1.8328	24.62	-0.05	0.050			
0.4915	31455.22	3.7020	3.7020	1.8577	24.62	-0.05	0.050			
0.4934	31574.63	3.7010	3.7011	1.8819	24.62	-0.05	0.050			
0.4952	31695.92	3.7000	3.7000	1.9059	24.62	-0.05	0.050			
0.4972	31818.29	3.6990	3.6991	1.9310	24.62	-0.05	0.050	0.406	0.491	
0.4991	31942.50	3.6980	3.6979	1.9564	24.63	-0.04	0.050			
0.5011	32068.16	3.6970	3.6970	1.9811	24.63	-0.04	0.050			
0.5031	32195.69	3.6960	3.6960	2.0062	24.62	-0.05	0.050			
0.5051	32324.66	3.6950	3.6950	2.0335	24.63	-0.04	0.050			
0.5071	32455.51	3.6940	3.6940	2.0608	24.64	-0.03	0.050			
0.5092	32588.09	3.6930	3.6930	2.0881	24.63	-0.04	0.050			
0.5113	32722.49	3.6920	3.6920	2.1151	24.63	-0.04	0.050			
0.5134	32858.41	3.6910	3.6910	2.1432	24.64	-0.03	0.050			
0.5156	32995.87	3.6900	3.6900	2.1722	24.64	-0.03	0.050	0.260	0.442	
0.5177	33135.89	3.6890	3.6891	2.2013	24.63	-0.04	0.050			
0.5200	33277.60	3.6880	3.6880	2.2300	24.63	-0.04	0.050			
0.5222	33420.11	3.6870	3.6870	2.2588	24.64	-0.03	0.050			
0.5245	33565.24	3.6860	3.6860	2.2885	24.62	-0.05	0.050			
0.5268	33712.55	3.6850	3.6850	2.3193	24.64	-0.03	0.050			
0.5291	33861.21	3.6840	3.6840	2.3528	24.64	-0.03	0.050			
0.5314	34012.46	3.6830	3.6831	2.3854	24.62	-0.05	0.050			
0.5338	34165.51	3.6820	3.6820	2.4184	24.59	-0.08	0.050			
0.5363	34321.50	3.6810	3.6811	2.4525	24.56	-0.11	0.050			
0.5387	34479.29	3.6800	3.6801	2.4857	24.52	-0.15	0.050			
0.5412	34638.91	3.6790	3.6790	2.5207	24.50	-0.17	0.050			
0.5438	34801.35	3.6780	3.6780	2.5557	24.47	-0.20	0.050			
0.5463	34966.03	3.6770	3.6770	2.5907	24.44	-0.23	0.050			
0.5489	35132.75	3.6760	3.6760	2.6259	24.40	-0.27	0.050			
0.5516	35301.66	3.6750	3.6750	2.6605	24.40	-0.27	0.050			
0.5543	35472.91	3.6740	3.6740	2.6979	24.40	-0.27	0.050			
0.5570	35646.72	3.6730	3.6730	2.7346	24.43	-0.24	0.050	0.392	0.528	
0.5597	35822.34	3.6720	3.6720	2.7733	24.44	-0.23	0.050			
0.5625	36000.66	3.6710	3.6710	2.8105	24.45	-0.22	0.050			
0.5653	36181.86	3.6700	3.6700	2.8501	24.48	-0.19	0.050			
0.5682	36365.35	3.6690	3.6691	2.8872	24.51	-0.16	0.050			
0.5711	36552.26	3.6680	3.6680	2.9187	24.55	-0.12	0.050			
0.5741	36740.41	3.6670	3.6669	2.9551	24.58	-0.09	0.050			
0.5770	36930.38	3.6660	3.6660	2.9912	24.61	-0.06	0.050	-0.028	0.425	
0.5800	37122.93	3.6650	3.6650	3.0288	24.64	-0.03	0.050			
0.5831	37318.07	3.6640	3.6640	3.0663	24.65	-0.02	0.050			
0.5862	37516.10	3.6630	3.6630	3.1025	24.68	0.01	0.050			
0.5893	37715.93	3.6620	3.6620	3.1387	24.70	0.03	0.050			
0.5924	37916.71	3.6610	3.6611	3.1791	24.73	0.06	0.050			
0.5956	38120.66	3.6600	3.6600	3.2225	24.71	0.04	0.050	0.428	0.400	
0.5989	38327.61	3.6590	3.6590	3.2619	24.70	0.03	0.050			
0.6021	38537.45	3.6580	3.6580	3.2963	24.67	0.00	0.050			
0.6055	38750.40	3.6570	3.6570	3.3320	24.62	-0.05	0.050			
0.6088	38965.65	3.6560	3.6560	3.3629	24.59	-0.08	0.050			
0.6122	39183.38	3.6550	3.6550	3.3962	24.56	-0.11	0.050			
0.6157	39402.20	3.6540	3.6540	3.4343	24.54	-0.13	0.050	0.419	0.456	
0.6191	39624.53	3.6530	3.6529	3.4746	24.54	-0.13	0.050			
0.6226	39847.00	3.6520	3.6521	3.5043	24.56	-0.11	0.050			
0.6261	40072.24	3.6510	3.6510	3.5360	24.56	-0.11	0.050			
0.6297	40300.32	3.6500	3.6500	3.5651	24.57	-0.10	0.050			
0.6333	40530.43	3.6490	3.6490	3.5910	24.58	-0.09	0.050			
0.6369	40761.91	3.6480	3.6479	3.6110	24.59	-0.08	0.050	0.280	0.481	
0.6405	40992.93	3.6470	3.6470	3.6318	24.58	-0.09	0.050			
0.6442	41226.91	3.6460	3.6460	3.6528	24.59	-0.08	0.050			
0.6479	41463.71	3.6450	3.6451	3.6739	24.60	-0.07	0.050			
0.6516	41701.77	3.6440	3.6440	3.6916	24.58	-0.09	0.050			
0.6553	41939.10	3.6430	3.6430	3.7037	24.59	-0.08	0.050	0.343	0.457	
0.6590	42176.58	3.6420	3.6420	3.7159	24.61	-0.06	0.050			
0.6627	42412.37	3.6410	3.6410	3.7270	24.59	-0.08	0.050			
0.6664	42650.23	3.6400	3.6401	3.7409	24.54	-0.13	0.050			
0.6702	42891.61	3.6390	3.6391	3.7455	24.49	-0.18	0.050			
0.6739	43131.51	3.6380	3.6380	3.7550	24.43	-0.24	0.050			
0.6777	43374.22	3.6370	3.6370	3.7620	24.39	-0.28	0.050	0.249	0.445	
0.6815	43617.84	3.6360	3.6359	3.7597	24.33	-0.34	0.050			
0.6853	43861.16	3.6350	3.6350	3.7495	24.28	-0.39	0.050			
0.6891	44103.06	3.6340	3.6341	3.7301	24.28	-0.39	0.050			
0.6929	44344.87	3.6330	3.6330	3.7074	24.27	-0.40	0.050			
0.6966	44584.38	3.6320	3.6319	3.6715	24.31	-0.36	0.050	0.396	0.524	
0.7003	44820.87	3.6310	3.6310	3.6318	24.33	-0.34	0.050			
0.7040	45054.52	3.6300	3.6300	3.5747	24.34	-0.33	0.050			
0.7076	45284.29	3.6290	3.6290	3.5061	24.37	-0.30	0.050			
0.7111	45509.78	3.6280	3.6279	3.4296	24.40	-0.27	0.050			
0.7145	45729.87	3.6270	3.6270	3.3551	24.40	-0.27	0.050			
0.7179	45942.81	3.6260	3.6259	3.2786	24.42	-0.25	0.050	0.342	0.526	
0.7211	46149.07	3.6250	3.6251	3.1959	24.45	-0.22	0.050			
0.7242	46347.32	3.6240	3.6241	3.1165	24.46	-0.21	0.050			
0.7272	46541.92	3.6230	3.6230	3.0442	24.46	-0.21	0.050			
0.7301	46729.36	3.6220	3.6221	2.9762	24.44	-0.23	0.050			
0.7330	46913.74	3.6210	3.6210	2.9129	24.42	-0.25	0.050			
0.7358	47093.70	3.6200	3.6199	2.8533	24.38	-0.29	0.050	0.286	0.455	
0.7386	47272.90	3.6190	3.6190	2.7973	24.34	-0.33	0.050			
0.7414	47452.08	3.6180	3.6179	2.7371	24.32	-0.35	0.050			
0.7443	47633.81	3.6170	3.6169	2.6621	24.31	-0.36	0.050			
0.7471	47812.88	3.6160	3.6158	2.5819	24.27	-0.40	0.050			
0.7495	47968.92	3.6150	3.6149	2.5317	24.25	-0.42	0.050			
0.7521	48134.39	3.6140	3.6139	2.4473	24.24	-0.43	0.050			
0.7546	48296.52	3.6130	3.6131	2.3568	24.26	-0.41	0.050			
0.7571	48451.96	3.6120	3.6122	2.2574	24.28	-0.39	0.050	0.356	0.451	
0.7594	48601.48	3.6110	3.6112	2.1565	24.28	-0.39	0.050			
0.7616	48742.26	3.6100	3.6102	2.0501	24.28	-0.39	0.050			
0.7637	48875.92	3.6090	3.6092	1.9423	24.30	-0.37	0.050			
0.7656	48997.98	3.6080	3.6082	1.8329	24.30	-0.37	0.050			
0.7674	49110.97	3.6070	3.6071	1.7287	24.32	-0.35	0.050			
0.7690	49213.74	3.6060	3.6061	1.6291	24.33	-0.34	0.050			
0.7704	49307.96	3.6050	3.6048	1.5219	24.32	-0.35	0.050			
0.7717	49391.39	3.6040	3.6037	1.4364	24.32	-0.35	0.050			
0.7729	49465.15	3.6030	3.6028	1.3568	24.34	-0.33	0.050			
0.7740	49536.07	3.6020	3.6018	1.2926	24.34	-0.33	0.050			
0.7751	49603.69	3.6010	3.6009	1.2400	24.33	-0.34	0.050			
0.7761	49672.06	3.6000	3.5998	1.2042	24.35	-0.32	0.050	0.295	0.480	
0.7772	49738.14	3.5990	3.5989	1.1744	24.34	-0.33	0.050			
0.7782	49807.74	3.5980	3.5980	1.1633	24.32	-0.35	0.050			
0.7793	49876.04	3.5970	3.5970	1.1560	24.33	-0.34	0.050			
0.7804	49946.55	3.5960	3.5960	1.1592	24.32	-0.35	0.050			
0.7815	50017.90	3.5950	3.5950	1.1669	24.32	-0.35	0.050			
0.7827	50090.23	3.5940	3.5940	1.1798	24.33	-0.34	0.050			
0.7838	50163.96	3.5930	3.5930	1.1964	24.33	-0.34	0.050			
0.7850	50239.24	3.5920	3.5919	1.2151	24.34	-0.33	0.050			
0.7862	50316.13	3.5910	3.5910	1.2354	24.34	-0.33	0.050			
0.7874	50395.22	3.5900	3.5900	1.2589	24.34	-0.33	0.050			
0.7887	50475.87	3.5890	3.5890	1.2813	24.33	-0.34	0.050			
0.7900	50558.63	3.5880	3.5879	1.3033	24.34	-0.33	0.050			
0.7913	50644.92	3.5870	3.5870	1.3216	24.35	-0.32	0.050			
0.7927	50732.38	3.5860	3.5860	1.3395	24.35	-0.32	0.050			
0.7941	50821.43	3.5850	3.5849	1.3524	24.35	-0.32	0.050			
0.7955	50912.33	3.5840	3.5839	1.3609	24.34	-0.33	0.050			
0.7969	51002.73	3.5830	3.5830	1.3693	24.36	-0.31	0.050	0.284	0.569	
0.7984	51095.19	3.5820	3.5820	1.3673	24.36	-0.31	0.050			
0.7998	51187.29	3.5810	3.5809	1.3595	24.35	-0.32	0.050			
0.8012	51278.64	3.5800	3.5801	1.3484	24.32	-0.35	0.050			
0.8026	51367.84	3.5790	3.5792	1.3343	24.31	-0.36	0.050			
0.8040	51456.05	3.5780	3.5781	1.3132	24.28	-0.39	0.050			
0.8053	51541.62	3.5770	3.5771	1.2898	24.27	-0.40	0.050			
0.8066	51625.07	3.5760	3.5761	1.2646	24.25	-0.42	0.050			
0.8079	51705.60	3.5750	3.5751	1.2393	24.24	-0.43	0.050			
0.8091	51783.34	3.5740	3.5740	1.2136	24.21	-0.46	0.050			
0.8103	51858.82	3.5730	3.5730	1.1848	24.20	-0.47	0.050			
0.8114	51931.79	3.5720	3.5721	1.1617	24.20	-0.47	0.050			
0.8125	52001.87	3.5710	3.5710	1.1384	24.18	-0.49	0.050			
0.8136	52070.74	3.5700	3.5700	1.1193	24.17	-0.50	0.050			
0.8147	52139.44	3.5690	3.5689	1.1021	24.16	-0.51	0.050			
0.8157	52206.49	3.5680	3.5679	1.0911	24.14	-0.53	0.050			
0.8168	52272.48	3.5670	3.5670	1.0807	24.13	-0.54	0.050	0.177	0.462	
0.8178	52339.01	3.5660	3.5660	1.0751	24.12	-0.55	0.050			
0.8188	52406.20	3.5650	3.5651	1.0722	24.11	-0.56	0.050			
0.8199	52473.57	3.5640	3.5640	1.0722	24.09	-0.58	0.050			
0.8210	52541.55	3.5630	3.5629	1.0748	24.09	-0.58	0.050			
0.8220	52609.80	3.5620	3.5620	1.0776	24.08	-0.59	0.050			
0.8231	52678.32	3.5610	3.5609	1.0814	24.09	-0.58	0.050			
0.8242	52747.43	3.5600	3.5599	1.0853	24.10	-0.57	0.050			
0.8253	52817.37	3.5590	3.5590	1.0893	24.11	-0.56	0.050			
0.8264	52887.50	3.5580	3.5580	1.0934	24.12	-0.55	0.050			
0.8275	52958.20	3.5570	3.5570	1.0952	24.12	-0.55	0.050			
0.8286	53028.74	3.5560	3.5559	1.0980	24.13	-0.54	0.050			
0.8297	53100.10	3.5550	3.5550	1.0988	24.14	-0.53	0.050			
0.8308	53171.76	3.5540	3.5540	1.1000	24.15	-0.52	0.050			
0.8319	53242.65	3.5530	3.5530	1.0997	24.16	-0.51	0.050			
0.8330	53314.29	3.5520	3.5520	1.0984	24.17	-0.50	0.050			
0.8341	53385.43	3.5510	3.5510	1.0965	24.18	-0.49	0.050			
0.8352	53456.00	3.5500	3.5500	1.0935	24.19	-0.48	0.050			
0.8363	53526.06	3.5490	3.5490	1.0889	24.20	-0.47	0.050	0.298	0.482	
0.8374	53595.91	3.5480	3.5481	1.0843	24.22	-0.45	0.050			
0.8385	53665.39	3.5470	3.5469	1.0801	24.23	-0.44	0.050			
0.8396	53734.27	3.5460	3.5461	1.0750	24.24	-0.43	0.050			
0.8407	53802.68	3.5450	3.5450	1.0700	24.26	-0.41	0.050			
0.8417	53870.83	3.5440	3.5440	1.0656	24.27	-0.40	0.050			
0.8428	53938.23	3.5430	3.5430	1.0617	24.28	-0.39	0.050			
0.8438	54005.38	3.5420	3.5420	1.0582	24.30	-0.37	0.050			
0.8449	54072.27	3.5410	3.5410	1.0552	24.31	-0.36	0.050			
0.8459	54139.32	3.5400	3.5401	1.0538	24.32	-0.35	0.050			
0.8470	54206.05	3.5390	3.5390	1.0532	24.32	-0.35	0.050			
0.8480	54272.60	3.5380	3.5380	1.0530	24.32	-0.35	0.050			
0.8491	54339.43	3.5370	3.5370	1.0546	24.33	-0.34	0.050			
0.8501	54406.43	3.5360	3.5360	1.0566	24.34	-0.33	0.050			
0.8511	54473.57	3.5350	3.5350	1.0588	24.37	-0.30	0.050			
0.8522	54540.79	3.5340	3.5340	1.0616	24.38	-0.29	0.050			
0.8533	54608.32	3.5330	3.5330	1.0666	24.39	-0.28	0.050			
0.8543	54676.32	3.5320	3.5320	1.0708	24.39	-0.28	0.050			
0.8554	54744.21	3.5310	3.5310	1.0765	24.42	-0.25	0.050			
0.8564	54812.68	3.5300	3.5300	1.0844	24.42	-0.25	0.050	0.222	0.487	
0.8575	54881.61	3.5290	3.5290	1.0927	24.43	-0.24	0.050			
0.8586	54950.98	3.5280	3.5280	1.1021	24.44	-0.23	0.050			
0.8597	55021.22	3.5270	3.5270	1.1123	24.46	-0.21	0.050			
0.8608	55092.02	3.5260	3.5261	1.1235	24.47	-0.20	0.050			
0.8619	55163.27	3.5250	3.5250	1.1358	24.47	-0.20	0.050			
0.8631	55235.28	3.5240	3.5240	1.1516	24.48	-0.19	0.050			
0.8642	55307.70	3.5230	3.5230	1.1682	24.48	-0.19	0.050			
0.8653	55381.37	3.5220	3.5219	1.1867	24.47	-0.20	0.050			
0.8665	55455.75	3.5210	3.5211	1.2082	24.46	-0.21	0.050			
0.8677	55532.57	3.5200	3.5201	1.2319	24.44	-0.23	0.050			
0.8689	55610.22	3.5190	3.5190	1.2568	24.45	-0.22	0.050			
0.8702	55689.93	3.5180	3.5180	1.2830	24.43	-0.24	0.050			
0.8714	55770.84	3.5170	3.5171	1.3133	24.42	-0.25	0.050			
0.8727	55854.78	3.5160	3.5160	1.3470	24.40	-0.27	0.050			
0.8741	55940.45	3.5150	3.5149	1.3811	24.40	-0.27	0.050			
0.8754	56028.15	3.5140	3.5140	1.4175	24.38	-0.29	0.050			
0.8768	56118.27	3.5130	3.5130	1.4566	24.37	-0.30	0.050	0.381	0.593	
0.8783	56211.49	3.5120	3.5121	1.4996	24.37	-0.30	0.050			
0.8798	56307.25	3.5110	3.5110	1.5435	24.34	-0.33	0.050			
0.8813	56406.05	3.5100	3.5100	1.5895	24.34	-0.33	0.050			
0.8829	56507.82	3.5090	3.5090	1.6387	24.32	-0.35	0.050			
0.8846	56612.45	3.5080	3.5080	1.6909	24.30	-0.37	0.050			
0.8863	56721.22	3.5070	3.5070	1.7440	24.30	-0.37	0.050			
0.8880	56833.17	3.5060	3.5060	1.7989	24.32	-0.35	0.050			
0.8898	56949.28	3.5050	3.5050	1.8537	24.32	-0.35	0.050			
0.8917	57068.78	3.5040	3.5039	1.9087	24.32	-0.35	0.050			
0.8936	57192.54	3.5030	3.5030	1.9652	24.33	-0.34	0.050			
0.8956	57320.10	3.5020	3.5020	2.0240	24.34	-0.33	0.050	0.165	0.457	
0.8977	57452.14	3.5010	3.5010	2.0811	24.34	-0.33	0.050			
0.8998	57588.07	3.5000	3.4999	2.1378	24.34	-0.33	0.050			
0.9020	57728.38	3.4990	3.4990	2.1920	24.34	-0.33	0.050			
0.9042	57871.78	3.4980	3.4980	2.2443	24.36	-0.31	0.050			
0.9066	58019.28	3.4970	3.4970	2.2948	24.36	-0.31	0.050			
0.9089	58171.22	3.4960	3.4961	2.3400	24.36	-0.31	0.050			
0.9113	58325.76	3.4950	3.4949	2.3804	24.36	-0.31	0.050			
0.9138	58482.57	3.4940	3.4940	2.4162	24.36	-0.31	0.050			
0.9163	58643.85	3.4930	3.4930	2.4413	24.36	-0.31	0.050	0.266	0.540	
0.9189	58806.75	3.4920	3.4920	2.4569	24.36	-0.31	0.050			
0.9214	58972.38	3.4910	3.4910	2.4556	24.34	-0.33	0.050			
0.9240	59137.69	3.4900	3.4900	2.4438	24.34	-0.33	0.050			
0.9266	59304.72	3.4890	3.4889	2.4122	24.34	-0.33	0.050			
0.9292	59471.17	3.4880	3.4880	2.3571	24.32	-0.35	0.050			
0.9317	59629.72	3.4870	3.4870	2.2932	24.30	-0.37	0.050			
0.9341	59785.24	3.4860	3.4860	2.2136	24.29	-0.38	0.050			
0.9365	59935.25	3.4850	3.4851	2.1139	24.24	-0.43	0.050	0.314	0.503	
0.9387	60077.16	3.4840	3.4842	1.9985	24.18	-0.49	0.050			
0.9408	60210.79	3.4830	3.4833	1.8732	24.15	-0.52	0.050			
0.9427	60333.87	3.4820	3.4823	1.7406	24.11	-0.56	0.050			
0.9445	60447.03	3.4810	3.4813	1.6079	24.06	-0.61	0.050			
0.9461	60548.60	3.4800	3.4802	1.4782	24.03	-0.64	0.050			
0.9475	60640.77	3.4790	3.4790	1.3263	24.00	-0.67	0.050			
0.9487	60717.72	3.4780	3.4777	1.2039	23.98	-0.69	0.050			
0.9497	60782.29	3.4770	3.4765	1.0910	23.96	-0.71	0.050			
0.9505	60834.16	3.4760	3.4755	0.9867	23.94	-0.73	0.050			
0.9513	60882.09	3.4750	3.4743	0.8630	23.92	-0.75	0.050			
0.9519	60919.87	3.4740	3.4734	0.7861	23.91	-0.76	0.050			
0.9524	60953.66	3.4730	3.4724	0.6909	23.91	-0.76	0.050			
0.9528	60982.14	3.4720	3.4716	0.6343	23.89	-0.78	0.050			
0.9533	61008.72	3.4710	3.4708	0.5840	23.89	-0.78	0.050			
0.9537	61039.38	3.4700	3.4698	0.5366	23.88	-0.79	0.050			
0.9542	61065.91	3.4690	3.4688	0.5056	23.87	-0.80	0.050			
0.9546	61093.44	3.4680	3.4679	0.4730	23.86	-0.81	0.050			
0.9550	61119.99	3.4670	3.4669	0.4537	23.86	-0.81	0.050			
0.9554	61146.99	3.4660	3.4659	0.4333	23.86	-0.81	0.050			
0.9558	61171.92	3.4650	3.4649	0.4193	23.86	-0.81	0.050			
0.9562	61197.29	3.4640	3.4639	0.4040	23.86	-0.81	0.050			
0.9566	61220.89	3.4630	3.4629	0.3931	23.86	-0.81	0.050	0.255	0.661	
0.9569	61244.19	3.4620	3.4620	0.3828	23.86	-0.81	0.050			
0.9573	61267.74	3.4610	3.4610	0.3724	23.86	-0.81	0.050			
0.9577	61290.65	3.4600	3.4600	0.3630	23.85	-0.82	0.050			
0.9580	61313.29	3.4590	3.4589	0.3571	23.85	-0.82	0.050			
0.9584	61335.48	3.4580	3.4580	0.3494	23.86	-0.81	0.050			
0.9587	61356.88	3.4570	3.4570	0.3436	23.87	-0.80	0.050			
0.9590	61378.29	3.4560	3.4559	0.3371	23.87	-0.80	0.050			
0.9594	61399.45	3.4550	3.4550	0.3327	23.88	-0.79	0.050			
0.9597	61420.35	3.4540	3.4540	0.3274	23.88	-0.79	0.050			
0.9600	61440.90	3.4530	3.4530	0.3237	23.88	-0.79	0.050			
0.9603	61460.97	3.4520	3.4521	0.3184	23.88	-0.79	0.050			
0.9606	61480.98	3.4510	3.4510	0.3147	23.88	-0.79	0.050			
0.9610	61501.00	3.4500	3.4499	0.3111	23.88	-0.79	0.050			
0.9613	61520.44	3.4490	3.4490	0.3078	23.88	-0.79	0.050			
0.9616	61540.03	3.4480	3.4479	0.3046	23.88	-0.79	0.050			
0.9619	61559.00	3.4470	3.4470	0.3013	23.89	-0.78	0.050			
0.9622	61578.19	3.4460	3.4460	0.2985	23.90	-0.77	0.050			
0.9625	61597.23	3.4450	3.4450	0.2958	23.90	-0.77	0.050			
0.9628	61616.01	3.4440	3.4440	0.2933	23.91	-0.76	0.050			
0.9630	61634.45	3.4430	3.4430	0.2902	23.91	-0.76	0.050			
0.9633	61652.79	3.4420	3.4420	0.2876	23.91	-0.76	0.050			
0.9636	61671.12	3.4410	3.4410	0.2853	23.91	-0.76	0.050			
0.9639	61689.24	3.4400	3.4400	0.2833	23.91	-0.76	0.050			
0.9642	61707.30	3.4390	3.4389	0.2811	23.91	-0.76	0.050			
0.9645	61725.22	3.4380	3.4381	0.2789	23.92	-0.75	0.050			
0.9647	61742.83	3.4370	3.4369	0.2768	23.92	-0.75	0.050			
0.9650	61760.48	3.4360	3.4360	0.2748	23.93	-0.74	0.050			
0.9653	61777.76	3.4350	3.4350	0.2731	23.94	-0.73	0.050			
0.9655	61795.18	3.4340	3.4340	0.2714	23.95	-0.72	0.050			
0.9658	61812.42	3.4330	3.4331	0.2695	23.95	-0.72	0.050			
0.9661	61829.59	3.4320	3.4319	0.2679	23.96	-0.71	0.050			
0.9664	61846.59	3.4310	3.4310	0.2661	23.96	-0.71	0.050			
0.9666	61863.64	3.4300	3.4300	0.2643	23.96	-0.71	0.050			
0.9669	61880.49	3.4290	3.4290	0.2626	23.96	-0.71	0.050			
0.9671	61897.25	3.4280	3.4280	0.2610	23.96	-0.71	0.050			
0.9674	61913.72	3.4270	3.4270	0.2595	23.96	-0.71	0.050			
0.9677	61930.28	3.4260	3.4260	0.2581	23.97	-0.70	0.050			
0.9679	61946.73	3.4250	3.4249	0.2567	23.98	-0.69	0.050			
0.9682	61963.09	3.4240	3.4241	0.2553	23.98	-0.69	0.050			
0.9684	61979.38	3.4230	3.4230	0.2539	23.99	-0.68	0.050			
0.9687	61995.58	3.4220	3.4221	0.2528	24.00	-0.67	0.050			
0.9689	62011.72	3.4210	3.4210	0.2514	24.00	-0.67	0.050			
0.9692	62027.74	3.4200	3.4200	0.2500	24.00	-0.67	0.050			
0.9694	62043.70	3.4190	3.4190	0.2487	24.00	-0.67	0.050			
0.9697	62059.58	3.4180	3.4179	0.2474	24.00	-0.67	0.050			
0.9699	62075.36	3.4170	3.4170	0.2459	24.01	-0.66	0.050			
0.9702	62091.05	3.4160	3.4160	0.2445	24.01	-0.66	0.050			
0.9704	62106.63	3.4150	3.4150	0.2432	24.02	-0.65	0.050			
0.9707	62122.08	3.4140	3.4140	0.2421	24.02	-0.65	0.050			
0.9709	62137.53	3.4130	3.4130	0.2409	24.02	-0.65	0.050			
0.9711	62152.86	3.4120	3.4120	0.2394	24.02	-0.65	0.050			
0.9714	62168.14	3.4110	3.4111	0.2382	24.02	-0.65	0.050			
0.9716	62183.44	3.4100	3.4100	0.2372	24.02	-0.65	0.050			
0.9719	62198.49	3.4090	3.4090	0.2362	24.03	-0.64	0.050			
0.9721	62213.57	3.4080	3.4080	0.2350	24.03	-0.64	0.050			
0.9723	62228.63	3.4070	3.4070	0.2339	24.03	-0.64	0.050			
0.9726	62243.50	3.4060	3.4060	0.2329	24.03	-0.64	0.050			
0.9728	62258.22	3.4050	3.4050	0.2314	24.04	-0.63	0.050			
0.9730	62273.00	3.4040	3.4040	0.2304	24.04	-0.63	0.050			
0.9732	62287.76	3.4030	3.4031	0.2292	24.04	-0.63	0.050			
0.9735	62302.39	3.4020	3.4020	0.2282	24.04	-0.63	0.050			
0.9737	62316.96	3.4010	3.4010	0.2271	24.04	-0.63	0.050			
0.9739	62331.49	3.4000	3.3999	0.2258	24.04	-0.63	0.050			
0.9742	62345.91	3.3990	3.3990	0.2247	24.05	-0.62	0.050			
0.9744	62360.26	3.3980	3.3980	0.2236	24.05	-0.62	0.050			
0.9746	62374.54	3.3970	3.3970	0.2228	24.06	-0.61	0.050			
0.9748	62388.77	3.3960	3.3960	0.2218	24.06	-0.61	0.050			
0.9750	62402.93	3.3950	3.3951	0.2207	24.06	-0.61	0.050			
0.9753	62417.00	3.3940	3.3940	0.2198	24.07	-0.60	0.050			
0.9755	62431.04	3.3930	3.3930	0.2188	24.07	-0.60	0.050			
0.9757	62444.91	3.3920	3.3920	0.2175	24.08	-0.59	0.050			
0.9759	62458.77	3.3910	3.3910	0.2167	24.08	-0.59	0.050			
0.9761	62472.61	3.3900	3.3900	0.2158	24.09	-0.58	0.050			
0.9764	62486.41	3.3890	3.3890	0.2149	24.10	-0.57	0.050			
0.9766	62500.18	3.3880	3.3880	0.2138	24.10	-0.57	0.050	0.307	0.539	
0.9768	62513.83	3.3870	3.3869	0.2127	24.10	-0.57	0.050			
0.9770	62527.29	3.3860	3.3860	0.2116	24.10	-0.57	0.050			
0.9772	62540.82	3.3850	3.3850	0.2106	24.10	-0.57	0.050			
0.9774	62554.27	3.3840	3.3840	0.2097	24.10	-0.57	0.050			
0.9776	62567.68	3.3830	3.3830	0.2088	24.10	-0.57	0.050			
0.9778	62580.94	3.3820	3.3820	0.2081	24.11	-0.56	0.050			
0.9780	62594.24	3.3810	3.3810	0.2073	24.11	-0.56	0.050			
0.9782	62607.52	3.3800	3.3801	0.2065	24.11	-0.56	0.050			
0.9784	62620.76	3.3790	3.3790	0.2054	24.11	-0.56	0.050			
0.9787	62633.88	3.3780	3.3779	0.2045	24.12	-0.55	0.050			
0.9789	62646.98	3.3770	3.3771	0.2036	24.12	-0.55	0.050			
0.9791	62659.91	3.3760	3.3759	0.2028	24.12	-0.55	0.050			
0.9793	62672.86	3.3750	3.3749	0.2019	24.13	-0.54	0.050			
0.9795	62685.66	3.3740	3.3740	0.2008	24.13	-0.54	0.050			
0.9797	62698.50	3.3730	3.3729	0.1999	24.14	-0.53	0.050			
0.9799	62711.27	3.3720	3.3720	0.1991	24.14	-0.53	0.050			
0.9801	62723.97	3.3710	3.3711	0.1982	24.14	-0.53	0.050			
0.9803	62736.63	3.3700	3.3701	0.1973	24.14	-0.53	0.050			
0.9805	62749.22	3.3690	3.3690	0.1965	24.14	-0.53	0.050			
0.9807	62761.76	3.3680	3.3680	0.1957	24.14	-0.53	0.050			
0.9808	62774.26	3.3670	3.3670	0.1949	24.15	-0.52	0.050			
0.9810	62786.68	3.3660	3.3660	0.1942	24.15	-0.52	0.050			
0.9812	62799.13	3.3650	3.3650	0.1935	24.16	-0.51	0.050			
0.9814	62811.48	3.3640	3.3641	0.1926	24.16	-0.51	0.050			
0.9816	62823.75	3.3630	3.3630	0.1919	24.16	-0.51	0.050			
0.9818	62835.94	3.3620	3.3619	0.1910	24.16	-0.51	0.050			
0.9820	62848.14	3.3610	3.3610	0.1902	24.16	-0.51	0.050			
0.9822	62860.29	3.3600	3.3600	0.1895	24.16	-0.51	0.050			
0.9824	62872.37	3.3590	3.3590	0.1884	24.16	-0.51	0.050			
0.9826	62884.41	3.3580	3.3580	0.1877	24.17	-0.50	0.050			
0.9828	62896.39	3.3570	3.3570	0.1869	24.17	-0.50	0.050			
0.9829	62908.48	3.3560	3.3560	0.1863	24.18	-0.49	0.050			
0.9831	62920.37	3.3550	3.3550	0.1854	24.18	-0.49	0.050			
0.9833	62932.21	3.3540	3.3540	0.1845	24.19	-0.48	0.050			
0.9835	62943.97	3.3530	3.3530	0.1836	24.19	-0.48	0.050			
0.9837	62955.70	3.3520	3.3520	0.1827	24.20	-0.47	0.050			
0.9839	62967.37	3.3510	3.3510	0.1819	24.20	-0.47	0.050			
0.9840	62978.98	3.3500	3.3500	0.1810	24.20	-0.47	0.050			
0.9842	62990.53	3.3490	3.3490	0.1804	24.20	-0.47	0.050			
0.9844	63002.05	3.3480	3.3480	0.1796	24.20	-0.47	0.050			
0.9846	63013.51	3.3470	3.3470	0.1787	24.20	-0.47	0.050			
0.9848	63024.89	3.3460	3.3460	0.1778	24.20	-0.47	0.050			
0.9849	63036.07	3.3450	3.3451	0.1775	24.21	-0.46	0.050			
0.9851	63047.41	3.3440	3.3440	0.1768	24.21	-0.46	0.050			
0.9853	63058.56	3.3430	3.3430	0.1759	24.21	-0.46	0.050			
0.9855	63069.80	3.3420	3.3420	0.1753	24.22	-0.45	0.050			
0.9856	63081.05	3.3410	3.3410	0.1746	24.22	-0.45	0.050			
0.9858	63092.21	3.3400	3.3400	0.1740	24.22	-0.45	0.050			
0.9860	63103.23	3.3390	3.3389	0.1733	24.22	-0.45	0.050			
0.9862	63114.39	3.3380	3.3380	0.1726	24.22	-0.45	0.050			
0.9863	63125.42	3.3370	3.3370	0.1720	24.22	-0.45	0.050			
0.9865	63136.45	3.3360	3.3360	0.1715	24.22	-0.45	0.050			
0.9867	63147.40	3.3350	3.3350	0.1709	24.23	-0.44	0.050			
0.9868	63158.39	3.3340	3.3340	0.1701	24.23	-0.44	0.050			
0.9870	63169.25	3.3330	3.3331	0.1694	24.24	-0.43	0.050			
0.9872	63180.16	3.3320	3.3320	0.1689	24.24	-0.43	0.050			
0.9874	63190.95	3.3310	3.3310	0.1682	24.25	-0.42	0.050			
0.9875	63201.66	3.3300	3.3300	0.1675	24.25	-0.42	0.050			
0.9877	63212.44	3.3290	3.3290	0.1670	24.26	-0.41	0.050			
0.9879	63223.10	3.3280	3.3280	0.1662	24.26	-0.41	0.050			
0.9880	63233.71	3.3270	3.3270	0.1654	24.27	-0.40	0.050			
0.9882	63244.25	3.3260	3.3260	0.1647	24.27	-0.40	0.050			
0.9884	63254.75	3.3250	3.3250	0.1639	24.27	-0.40	0.050			
0.9885	63265.21	3.3240	3.3240	0.1631	24.28	-0.39	0.050			
0.9887	63275.63	3.3230	3.3230	0.1624	24.28	-0.39	0.050			
0.9888	63285.95	3.3220	3.3221	0.1618	24.28	-0.39	0.050			
0.9890	63296.16	3.3210	3.3209	0.1608	24.28	-0.39	0.050			
0.9892	63306.43	3.3200	3.3199	0.1602	24.29	-0.38	0.050			
0.9893	63316.66	3.3190	3.3190	0.1596	24.29	-0.38	0.050			
0.9895	63326.87	3.3180	3.3181	0.1590	24.29	-0.38	0.050			
0.9896	63337.03	3.3170	3.3170	0.1584	24.30	-0.37	0.050			
0.9898	63347.14	3.3160	3.3160	0.1578	24.30	-0.37	0.050			
0.9900	63357.22	3.3150	3.3150	0.1571	24.31	-0.36	0.050			
0.9901	63367.18	3.3140	3.3140	0.1565	24.31	-0.36	0.050			
0.9903	63377.18	3.3130	3.3130	0.1560	24.31	-0.36	0.050			
0.9904	63387.15	3.3120	3.3120	0.1554	24.32	-0.35	0.050			
0.9906	63397.08	3.3110	3.3110	0.1548	24.32	-0.35	0.050			
0.9907	63407.01	3.3100	3.3100	0.1541	24.32	-0.35	0.050			
0.9909	63416.86	3.3090	3.3090	0.1535	24.32	-0.35	0.050			
0.9910	63426.66	3.3080	3.3080	0.1529	24.33	-0.34	0.050			
0.9912	63436.43	3.3070	3.3070	0.1523	24.33	-0.34	0.050			
0.9913	63446.13	3.3060	3.3060	0.1517	24.33	-0.34	0.050			
0.9915	63455.82	3.3050	3.3050	0.1511	24.33	-0.34	0.050			
0.9916	63465.47	3.3040	3.3040	0.1505	24.34	-0.33	0.050			
0.9918	63475.08	3.3030	3.3030	0.1499	24.34	-0.33	0.050			
0.9919	63484.71	3.3020	3.3021	0.1494	24.34	-0.33	0.050			
0.9921	63494.21	3.3010	3.3010	0.1488	24.35	-0.32	0.050			
0.9922	63503.71	3.3000	3.3000	0.1482	24.35	-0.32	0.050			
0.9924	63513.18	3.2990	3.2990	0.1476	24.35	-0.32	0.050			
0.9925	63522.59	3.2980	3.2980	0.1470	24.35	-0.32	0.050			
0.9927	63531.95	3.2970	3.2970	0.1465	24.35	-0.32	0.050			
0.9928	63541.31	3.2960	3.2960	0.1459	24.35	-0.32	0.050			
0.9930	63550.63	3.2950	3.2950	0.1454	24.35	-0.32	0.050			
0.9931	63559.88	3.2940	3.2940	0.1448	24.35	-0.32	0.050			
0.9933	63569.13	3.2930	3.2930	0.1442	24.35	-0.32	0.050			
0.9934	63578.34	3.2920	3.2920	0.1437	24.35	-0.32	0.050			
0.9936	63587.52	3.2910	3.2910	0.1432	24.36	-0.31	0.050			
0.9937	63596.60	3.2900	3.2900	0.1425	24.36	-0.31	0.050			
0.9938	63605.71	3.2890	3.2891	0.1421	24.36	-0.31	0.050			
0.9940	63614.90	3.2880	3.2880	0.1413	24.36	-0.31	0.050			
0.9941	63623.92	3.2870	3.2870	0.1407	24.37	-0.30	0.050			
0.9943	63633.00	3.2860	3.2860	0.1404	24.37	-0.30	0.050			
0.9944	63641.97	3.2850	3.2850	0.1397	24.37	-0.30	0.050			
0.9945	63650.89	3.2840	3.2840	0.1391	24.38	-0.29	0.050			
0.9947	63659.70	3.2830	3.2830	0.1387	24.38	-0.29	0.050			
0.9948	63668.55	3.2820	3.2820	0.1381	24.38	-0.29	0.050			
0.9950	63677.36	3.2810	3.2810	0.1375	24.39	-0.28	0.050			
0.9951	63686.14	3.2800	3.2800	0.1369	24.39	-0.28	0.050			
0.9952	63694.88	3.2790	3.2790	0.1363	24.40	-0.27	0.050			
0.9954	63703.53	3.2780	3.2780	0.1360	24.40	-0.27	0.050			
0.9955	63712.16	3.2770	3.2770	0.1353	24.41	-0.26	0.050			
0.9956	63720.81	3.2760	3.2760	0.1348	24.41	-0.26	0.050			
0.9958	63729.42	3.2750	3.2750	0.1344	24.41	-0.26	0.050			
0.9959	63738.00	3.2740	3.2740	0.1339	24.41	-0.26	0.050			
0.9960	63746.55	3.2730	3.2729	0.1334	24.42	-0.25	0.050			
0.9962	63755.01	3.2720	3.2720	0.1328	24.42	-0.25	0.050			
0.9963	63763.49	3.2710	3.2710	0.1323	24.42	-0.25	0.050			
0.9964	63771.95	3.2700	3.2700	0.1319	24.42	-0.25	0.050			
0.9966	63780.41	3.2690	3.2690	0.1313	24.42	-0.25	0.050			
0.9967	63788.79	3.2680	3.2680	0.1308	24.42	-0.25	0.050	0.290	0.621	
0.9968	63797.15	3.2670	3.2671	0.1304	24.42	-0.25	0.050			
0.9970	63805.48	3.2660	3.2660	0.1299	24.42	-0.25	0.050			
0.9971	63813.78	3.2650	3.2650	0.1295	24.42	-0.25	0.050			
0.9972	63822.07	3.2640	3.2640	0.1290	24.42	-0.25	0.050			
0.9974	63830.40	3.2630	3.2630	0.1287	24.42	-0.25	0.050			
0.9975	63838.62	3.2620	3.2620	0.1282	24.42	-0.25	0.050			
0.9976	63846.81	3.2610	3.2610	0.1277	24.42	-0.25	0.050			
0.9977	63854.96	3.2600	3.2600	0.1271	24.42	-0.25	0.050			
0.9979	63863.04	3.2590	3.2590	0.1267	24.42	-0.25	0.050			
0.9980	63871.09	3.2580	3.2580	0.1261	24.42	-0.25	0.050			
0.9981	63879.15	3.2570	3.2570	0.1256	24.42	-0.25	0.050			
0.9982	63887.17	3.2560	3.2561	0.1252	24.42	-0.25	0.050			
0.9984	63895.17	3.2550	3.2550	0.1247	24.43	-0.24	0.050			
0.9985	63903.08	3.2540	3.2540	0.1241	24.43	-0.24	0.050			
0.9986	63911.01	3.2530	3.2529	0.1237	24.43	-0.24	0.050			
0.9987	63918.91	3.2520	3.2520	0.1232	24.44	-0.23	0.050			
0.9989	63926.79	3.2510	3.2510	0.1228	24.44	-0.23	0.050			
0.9990	63934.63	3.2500	3.2500	0.1224	24.44	-0.23	0.050			
0.9991	63942.44	3.2490	3.2490	0.1219	24.44	-0.23	0.050			
0.9992	63950.27	3.2480	3.2480	0.1214	24.44	-0.23	0.050			
0.9993	63958.02	3.2470	3.2470	0.1209	24.44	-0.23	0.050			
0.9995	63965.75	3.2460	3.2460	0.1205	24.44	-0.23	0.050			
0.9996	63973.45	3.2450	3.2450	0.1200	24.44	-0.23	0.050			
0.9997	63981.15	3.2440	3.2440	0.1196	24.44	-0.23	0.050			
0.9998	63988.72	3.2430	3.2430	0.1192	24.44	-0.23	0.050			
0.9999	63996.34	3.2420	3.2420	0.1188	24.45	-0.22	0.050			
1.0001	64003.93	3.2410	3.2410	0.1184	24.45	-0.22	0.050			
1.0002	64011.49	3.2400	3.2400	0.1179	24.45	-0.22	0.050			
1.0003	64018.99	3.2390	3.2390	0.1174	24.45	-0.22	0.050			
1.0004	64026.50	3.2380	3.2380	0.1170	24.46	-0.21	0.050			
1.0005	64034.01	3.2370	3.2370	0.1165	24.46	-0.21	0.050			
1.0006	64041.45	3.2360	3.2360	0.1161	24.46	-0.21	0.050			
1.0008	64048.86	3.2350	3.2350	0.1156	24.46	-0.21	0.050			
1.0009	64056.24	3.2340	3.2340	0.1151	24.46	-0.21	0.050			
1.0010	64063.59	3.2330	3.2330	0.1147	24.46	-0.21	0.050			
1.0011	64070.93	3.2320	3.2320	0.1142	24.46	-0.21	0.050			
1.0012	64078.23	3.2310	3.2310	0.1138	24.46	-0.21	0.050			
1.0013	64085.50	3.2300	3.2300	0.1133	24.46	-0.21	0.050			
1.0014	64092.74	3.2290	3.2290	0.1129	24.46	-0.21	0.050			
1.0016	64099.96	3.2280	3.2280	0.1125	24.46	-0.21	0.050			
1.0017	64107.14	3.2270	3.2270	0.1120	24.46	-0.21	0.050			
1.0018	64114.30	3.2260	3.2260	0.1115	24.46	-0.21	0.050			
1.0019	64121.34	3.2250	3.2250	0.1113	24.47	-0.20	0.050			
1.0020	64128.46	3.2240	3.2240	0.1109	24.47	-0.20	0.050			
1.0021	64135.53	3.2230	3.2230	0.1105	24.47	-0.20	0.050			
1.0022	64142.59	3.2220	3.2219	0.1101	24.47	-0.20	0.050			
1.0023	64149.62	3.2210	3.2210	0.1097	24.47	-0.20	0.050			
1.0024	64156.64	3.2200	3.2201	0.1093	24.47	-0.20	0.050			
1.0026	64163.63	3.2190	3.2190	0.1090	24.47	-0.20	0.050			
1.0027	64170.59	3.2180	3.2179	0.1086	24.48	-0.19	0.050			
1.0028	64177.43	3.2170	3.2170	0.1080	24.48	-0.19	0.050			
1.0029	64184.33	3.2160	3.2161	0.1077	24.48	-0.19	0.050			
1.0030	64191.22	3.2150	3.2150	0.1074	24.48	-0.19	0.050			
1.0031	64198.15	3.2140	3.2140	0.1068	24.48	-0.19	0.050			
1.0032	64204.97	3.2130	3.2130	0.1065	24.48	-0.19	0.050			
1.0033	64211.83	3.2120	3.2120	0.1062	24.48	-0.19	0.050			
1.0034	64218.62	3.2110	3.2110	0.1058	24.48	-0.19	0.050			
1.0035	64225.38	3.2100	3.2100	0.1054	24.48	-0.19	0.050			
1.0036	64232.11	3.2090	3.2091	0.1050	24.48	-0.19	0.050			
1.0037	64238.81	3.2080	3.2081	0.1045	24.48	-0.19	0.050			
1.0038	64245.48	3.2070	3.2070	0.1041	24.48	-0.19	0.050			
1.0039	64252.13	3.2060	3.2060	0.1037	24.48	-0.19	0.050			
1.0040	64258.82	3.2050	3.2050	0.1034	24.48	-0.19	0.050			
1.0041	64265.43	3.2040	3.2040	0.1029	24.49	-0.18	0.050			
1.0042	64272.00	3.2030	3.2030	0.1025	24.49	-0.18	0.050			
1.0044	64278.54	3.2020	3.2020	0.1020	24.49	-0.18	0.050			
1.0045	64284.99	3.2010	3.2010	0.1018	24.49	-0.18	0.050			
1.0046	64291.39	3.2000	3.2000	0.1012	24.50	-0.17	0.050			
1.0047	64297.86	3.1990	3.1989	0.1008	24.50	-0.17	0.050			
1.0048	64304.30	3.1980	3.1980	0.1005	24.50	-0.17	0.050			
1.0049	64310.72	3.1970	3.1971	0.1002	24.50	-0.17	0.050			
1.0050	64317.12	3.1960	3.1961	0.0998	24.50	-0.17	0.050			
1.0051	64323.52	3.1950	3.1951	0.0994	24.50	-0.17	0.050			
1.0052	64329.85	3.1940	3.1940	0.0990	24.50	-0.17	0.050			
1.0053	64336.18	3.1930	3.1930	0.0987	24.50	-0.17	0.050			
1.0054	64342.48	3.1920	3.1920	0.0983	24.50	-0.17	0.050			
1.0054	64348.77	3.1910	3.1909	0.0980	24.50	-0.17	0.050			
1.0055	64355.03	3.1900	3.1899	0.0976	24.50	-0.17	0.050			
1.0056	64361.29	3.1890	3.1890	0.0972	24.50	-0.17	0.050			
1.0057	64367.53	3.1880	3.1880	0.0969	24.50	-0.17	0.050			
1.0058	64373.72	3.1870	3.1870	0.0965	24.50	-0.17	0.050			
1.0059	64379.88	3.1860	3.1860	0.0961	24.50	-0.17	0.050			
1.0060	64386.02	3.1850	3.1850	0.0958	24.51	-0.16	0.050			
1.0061	64392.14	3.1840	3.1840	0.0954	24.51	-0.16	0.050			
1.0062	64398.23	3.1830	3.1830	0.0950	24.51	-0.16	0.050			
1.0063	64404.30	3.1820	3.1820	0.0946	24.51	-0.16	0.050			
1.0064	64410.32	3.1810	3.1810	0.0943	24.51	-0.16	0.050			
1.0065	64416.35	3.1800	3.1800	0.0940	24.51	-0.16	0.050			
1.0066	64422.35	3.1790	3.1790	0.0936	24.51	-0.16	0.050			
1.0067	64428.33	3.1780	3.1780	0.0932	24.51	-0.16	0.050			
1.0068	64434.29	3.1770	3.1770	0.0929	24.51	-0.16	0.050			
1.0069	64440.22	3.1760	3.1760	0.0925	24.51	-0.16	0.050			
1.0070	64446.05	3.1750	3.1750	0.0920	24.51	-0.16	0.050			
1.0071	64451.91	3.1740	3.1740	0.0918	24.51	-0.16	0.050			
1.0072	64457.77	3.1730	3.1730	0.0914	24.51	-0.16	0.050			
1.0072	64463.61	3.1720	3.1720	0.0911	24.51	-0.16	0.050			
1.0073	64469.43	3.1710	3.1710	0.0908	24.51	-0.16	0.050			
1.0074	64475.24	3.1700	3.1700	0.0905	24.52	-0.15	0.050			
1.0075	64480.98	3.1690	3.1690	0.0901	24.52	-0.15	0.050			
1.0076	64486.74	3.1680	3.1680	0.0899	24.52	-0.15	0.050			
1.0077	64492.53	3.1670	3.1670	0.0895	24.52	-0.15	0.050			
1.0078	64498.24	3.1660	3.1660	0.0892	24.52	-0.15	0.050			
1.0079	64503.94	3.1650	3.1650	0.0889	24.53	-0.14	0.050			
1.0080	64509.62	3.1640	3.1640	0.0885	24.53	-0.14	0.050			
1.0081	64515.27	3.1630	3.1630	0.0882	24.53	-0.14	0.050			
1.0081	64520.91	3.1620	3.1620	0.0879	24.53	-0.14	0.050			
1.0082	64526.60	3.1610	3.1610	0.0875	24.53	-0.14	0.050			
1.0083	64532.19	3.1600	3.1600	0.0872	24.54	-0.13	0.050			
1.0084	64537.76	3.1590	3.1590	0.0868	24.54	-0.13	0.050			
1.0085	64543.30	3.1580	3.1580	0.0864	24.54	-0.13	0.050			
1.0086	64548.82	3.1570	3.1570	0.0861	24.54	-0.13	0.050			
1.0087	64554.32	3.1560	3.1560	0.0857	24.55	-0.12	0.050			
1.0087	64559.80	3.1550	3.1550	0.0853	24.55	-0.12	0.050			
1.0088	64565.19	3.1540	3.1540	0.0852	24.55	-0.12	0.050			
1.0089	64570.63	3.1530	3.1530	0.0848	24.55	-0.12	0.050			
1.0090	64576.05	3.1520	3.1520	0.0845	24.55	-0.12	0.050			
1.0091	64581.45	3.1510	3.1510	0.0842	24.55	-0.12	0.050			
1.0092	64586.83	3.1500	3.1500	0.0839	24.55	-0.12	0.050			
1.0093	64592.18	3.1490	3.1490	0.0835	24.55	-0.12	0.050			
1.0093	64597.51	3.1480	3.1480	0.0833	24.56	-0.11	0.050			
1.0094	64602.78	3.1470	3.1470	0.0828	24.56	-0.11	0.050			
1.0095	64608.07	3.1460	3.1460	0.0825	24.56	-0.11	0.050			
1.0096	64613.34	3.1450	3.1450	0.0822	24.56	-0.11	0.050			
1.0097	64618.60	3.1440	3.1439	0.0819	24.56	-0.11	0.050			
1.0097	64623.83	3.1430	3.1430	0.0817	24.56	-0.11	0.050			
1.0098	64629.05	3.1420	3.1420	0.0814	24.56	-0.11	0.050			
1.0099	64634.25	3.1410	3.1410	0.0811	24.56	-0.11	0.050			
1.0100	64639.42	3.1400	3.1400	0.0808	24.56	-0.11	0.050			
1.0101	64644.58	3.1390	3.1391	0.0805	24.56	-0.11	0.050			
1.0102	64649.73	3.1380	3.1381	0.0802	24.57	-0.10	0.050			
1.0102	64654.85	3.1370	3.1370	0.0799	24.57	-0.10	0.050			
1.0103	64659.96	3.1360	3.1360	0.0796	24.57	-0.10	0.050			
1.0104	64665.04	3.1350	3.1350	0.0793	24.57	-0.10	0.050			
1.0105	64670.17	3.1340	3.1339	0.0791	24.57	-0.10	0.050			
1.0106	64675.20	3.1330	3.1329	0.0788	24.57	-0.10	0.050			
1.0106	64680.24	3.1320	3.1321	0.0785	24.57	-0.10	0.050			
1.0107	64685.25	3.1310	3.1310	0.0782	24.57	-0.10	0.050			
1.0108	64690.24	3.1300	3.1300	0.0779	24.58	-0.09	0.050			
1.0109	64695.22	3.1290	3.1290	0.0776	24.58	-0.09	0.050			
1.0109	64700.13	3.1280	3.1280	0.0772	24.58	-0.09	0.050			
1.0110	64705.06	3.1270	3.1270	0.0769	24.58	-0.09	0.050			
1.0111	64710.01	3.1260	3.1260	0.0766	24.58	-0.09	0.050			
1.0112	64714.91	3.1250	3.1250	0.0763	24.59	-0.08	0.050			
1.0112	64719.78	3.1240	3.1240	0.0760	24.59	-0.08	0.050			
1.0113	64724.63	3.1230	3.1230	0.0757	24.59	-0.08	0.050			
1.0114	64729.46	3.1220	3.1220	0.0753	24.59	-0.08	0.050			
1.0115	64734.32	3.1210	3.1210	0.0751	24.59	-0.08	0.050			
1.0115	64739.11	3.1200	3.1200	0.0748	24.59	-0.08	0.050			
1.0116	64743.89	3.1190	3.1190	0.0745	24.59	-0.08	0.050			
1.0117	64748.58	3.1180	3.1180	0.0742	24.59	-0.08	0.050			
1.0118	64753.32	3.1170	3.1170	0.0739	24.59	-0.08	0.050			
1.0118	64758.05	3.1160	3.1160	0.0736	24.60	-0.07	0.050			
1.0119	64762.75	3.1150	3.1151	0.0733	24.60	-0.07	0.050			
1.0120	64767.43	3.1140	3.1140	0.0730	24.60	-0.07	0.050			
1.0121	64772.06	3.1130	3.1130	0.0727	24.60	-0.07	0.050			
1.0121	64776.70	3.1120	3.1120	0.0724	24.60	-0.07	0.050			
1.0122	64781.33	3.1110	3.1109	0.0721	24.60	-0.07	0.050			
1.0123	64785.93	3.1100	3.1100	0.0719	24.60	-0.07	0.050			
1.0124	64790.48	3.1090	3.1090	0.0717	24.60	-0.07	0.050			
1.0124	64795.06	3.1080	3.1080	0.0715	24.61	-0.06	0.050			
1.0125	64799.63	3.1070	3.1070	0.0712	24.61	-0.06	0.050			
1.0126	64804.11	3.1060	3.1060	0.0708	24.61	-0.06	0.050			
1.0126	64808.64	3.1050	3.1050	0.0706	24.61	-0.06	0.050			
1.0127	64813.15	3.1040	3.1040	0.0704	24.61	-0.06	0.050			
1.0128	64817.65	3.1030	3.1030	0.0702	24.61	-0.06	0.050			
1.0128	64822.21	3.1020	3.1020	0.0699	24.62	-0.05	0.050			
1.0129	64826.67	3.1010	3.1010	0.0696	24.62	-0.05	0.050			
1.0130	64831.12	3.1000	3.1000	0.0694	24.62	-0.05	0.050			
1.0131	64835.55	3.0990	3.0990	0.0691	24.62	-0.05	0.050			
1.0131	64840.02	3.0980	3.0980	0.0690	24.62	-0.05	0.050			
1.0132	64844.42	3.0970	3.0970	0.0687	24.62	-0.05	0.050			
1.0133	64848.81	3.0960	3.0960	0.0684	24.62	-0.05	0.050			
1.0133	64853.18	3.0950	3.0950	0.0681	24.62	-0.05	0.050			
1.0134	64857.53	3.0940	3.0940	0.0679	24.62	-0.05	0.050			
1.0135	64861.89	3.0930	3.0930	0.0675	24.62	-0.05	0.050			
1.0135	64866.20	3.0920	3.0920	0.0672	24.62	-0.05	0.050			
1.0136	64870.50	3.0910	3.0911	0.0669	24.62	-0.05	0.050			
1.0137	64874.77	3.0900	3.0901	0.0667	24.62	-0.05	0.050			
1.0137	64879.08	3.0890	3.0890	0.0665	24.62	-0.05	0.050			
1.0138	64883.32	3.0880	3.0880	0.0661	24.62	-0.05	0.050			
1.0139	64887.54	3.0870	3.0870	0.0658	24.62	-0.05	0.050			
1.0139	64891.75	3.0860	3.0860	0.0655	24.62	-0.05	0.050			
1.0140	64895.93	3.0850	3.0850	0.0652	24.62	-0.05	0.050			
1.0141	64900.09	3.0840	3.0840	0.0649	24.63	-0.04	0.050			
1.0141	64904.20	3.0830	3.0830	0.0647	24.63	-0.04	0.050			
1.0142	64908.30	3.0820	3.0820	0.0643	24.63	-0.04	0.050			
1.0143	64912.41	3.0810	3.0810	0.0640	24.63	-0.04	0.050			
1.0143	64916.49	3.0800	3.0800	0.0637	24.64	-0.03	0.050			
1.0144	64920.57	3.0790	3.0790	0.0635	24.64	-0.03	0.050			
1.0144	64924.62	3.0780	3.0780	0.0632	24.64	-0.03	0.050			
1.0145	64928.65	3.0770	3.0770	0.0629	24.64	-0.03	0.050			
1.0146	64932.67	3.0760	3.0760	0.0626	24.65	-0.02	0.050			
1.0146	64936.67	3.0750	3.0749	0.0624	24.65	-0.02	0.050			
1.0147	64940.68	3.0740	3.0739	0.0620	24.65	-0.02	0.050			
1.0148	64944.65	3.0730	3.0730	0.0617	24.65	-0.02	0.050			
1.0148	64948.59	3.0720	3.0721	0.0615	24.65	-0.02	0.050			
1.0149	64952.52	3.0710	3.0711	0.0612	24.65	-0.02	0.050			
1.0149	64956.42	3.0700	3.0701	0.0609	24.66	-0.01	0.050			
1.0150	64960.31	3.0690	3.0690	0.0606	24.66	-0.01	0.050			
1.0151	64964.17	3.0680	3.0680	0.0603	24.66	-0.01	0.050			
1.0151	64968.02	3.0670	3.0671	0.0600	24.66	-0.01	0.050			
1.0152	64971.85	3.0660	3.0661	0.0597	24.66	-0.01	0.050			
1.0152	64975.66	3.0650	3.0651	0.0594	24.66	-0.01	0.050			
1.0153	64980.04	3.0640	3.0639	0.0573	24.66	-0.01	0.050			
1.0154	64983.96	3.0630	3.0629	0.0580	24.67	-0.00	0.050			
1.0154	64987.65	3.0620	3.0619	0.0573	24.67	-0.00	0.050			
1.0155	64991.30	3.0610	3.0608	0.0566	24.67	-0.00	0.050			
1.0155	64994.90	3.0600	3.0598	0.0559	24.67	0.00	0.050			
1.0156	64998.45	3.0590	3.0589	0.0552	24.67	0.00	0.050			
1.0157	65001.96	3.0580	3.0580	0.0545	24.67	0.00	0.050			
1.0157	65005.43	3.0570	3.0570	0.0538	24.67	0.00	0.050			
1.0158	65008.85	3.0560	3.0561	0.0531	24.67	0.00	0.050			
1.0158	65012.22	3.0550	3.0552	0.0524	24.67	0.00	0.050			
1.0159	65016.17	3.0540	3.0541	0.0526	24.67	0.00	0.050			
1.0159	65019.51	3.0530	3.0531	0.0517	24.67	0.00	0.050			
1.0160	65022.79	3.0520	3.0522	0.0508	24.67	0.00	0.050			
1.0160	65026.01	3.0510	3.0512	0.0498	24.67	0.00	0.050			
1.0161	65029.17	3.0500	3.0503	0.0489	24.67	0.00	0.050			
1.0161	65032.27	3.0490	3.0494	0.0480	24.67	0.00	0.050			
1.0162	65035.31	3.0480	3.0485	0.0470	24.67	0.00	0.050			
1.0162	65038.29	3.0470	3.0476	0.0461	24.67	0.00	0.050			
1.0163	65041.21	3.0460	3.0467	0.0452	24.67	0.00	0.050			
1.0163	65044.07	3.0450	3.0458	0.0443	24.67	0.00	0.050			
1.0164	65046.88	3.0440	3.0448	0.0433	24.67	0.00	0.050			
1.0164	65049.62	3.0430	3.0439	0.0424	24.67	0.00	0.050			
1.0164	65052.30	3.0420	3.0430	0.0415	24.67	0.00	0.050			
1.0165	65054.93	3.0410	3.0421	0.0405	24.67	0.00	0.050			
1.0165	65057.49	3.0400	3.0411	0.0396	24.67	0.00	0.050			
1.0166	65060.00	3.0390	3.0401	0.0387	24.67	0.00	0.050			
