Ah_balance (normalized)	Ah_balance (mAh)	Voltage - fit (V)	Voltage -  interpolate (V)	dQ/dV (1/V)	Temperature (°C)	Temperature - diff (°C)	Current (C)	R_DC 0ms (mOhm)	R_DC 50ms (mOhm)	R_DC 50 ms PEC (mOhm)
0.0002	13.78	4.1780	4.1779	-0.1472	24.27	0.01	-0.400			
0.0008	49.67	4.1750	4.1750	-0.2241	24.27	0.01	-0.400			
0.0016	100.25	4.1720	4.1720	-0.2982	24.27	0.01	-0.400			
0.0026	165.74	4.1690	4.1690	-0.3667	24.26	0.00	-0.400			
0.0038	243.20	4.1660	4.1660	-0.4299	24.26	0.00	-0.400			
0.0052	334.51	4.1630	4.1630	-0.4862	24.26	0.00	-0.400			
0.0068	435.76	4.1600	4.1600	-0.5341	24.26	-0.00	-0.400			
0.0085	545.40	4.1570	4.1570	-0.5749	24.26	-0.00	-0.400			
0.0103	660.96	4.1540	4.1540	-0.6025	24.25	-0.01	-0.400			
0.0122	780.78	4.1510	4.1511	-0.6275	24.25	-0.01	-0.400			
0.0141	903.94	4.1480	4.1480	-0.6464	24.25	-0.01	-0.400			
0.0161	1030.44	4.1450	4.1450	-0.6635	24.26	-0.00	-0.400			
0.0181	1159.28	4.1420	4.1420	-0.6773	24.26	-0.00	-0.400			
0.0202	1290.99	4.1390	4.1390	-0.6904	24.26	0.00	-0.400			
0.0223	1425.49	4.1360	4.1360	-0.7041	24.26	0.00	-0.400			
0.0244	1561.95	4.1330	4.1330	-0.7151	24.27	0.01	-0.400			
0.0266	1701.16	4.1300	4.1300	-0.7220	24.27	0.01	-0.400			
0.0288	1840.95	4.1270	4.1270	-0.7277	24.27	0.01	-0.400			
0.0310	1981.27	4.1240	4.1240	-0.7350	24.28	0.02	-0.400			
0.0332	2122.56	4.1210	4.1210	-0.7396	24.28	0.02	-0.400			
0.0354	2264.90	4.1180	4.1180	-0.7469	24.29	0.03	-0.400			
0.0376	2408.75	4.1150	4.1150	-0.7519	24.30	0.04	-0.400			
0.0399	2554.84	4.1120	4.1120	-0.7555	24.30	0.04	-0.400			
0.0422	2701.54	4.1090	4.1090	-0.7609	24.30	0.04	-0.400			
0.0445	2847.11	4.1060	4.1060	-0.7660	24.30	0.04	-0.400			
0.0468	2993.78	4.1030	4.1030	-0.7679	24.30	0.04	-0.400			
0.0491	3141.87	4.1000	4.0999	-0.7739	24.31	0.05	-0.400			
0.0514	3290.95	4.0970	4.0970	-0.7783	24.33	0.07	-0.400			
0.0538	3441.42	4.0940	4.0940	-0.7816	24.33	0.07	-0.400			
0.0561	3592.53	4.0910	4.0910	-0.7877	24.34	0.08	-0.400			
0.0585	3744.55	4.0880	4.0879	-0.7869	24.34	0.08	-0.400			
0.0609	3894.47	4.0850	4.0850	-0.7903	24.35	0.09	-0.400			
0.0632	4047.61	4.0820	4.0819	-0.7918	24.35	0.09	-0.400			
0.0656	4199.39	4.0790	4.0792	-0.7955	24.36	0.10	-0.400			
0.0680	4352.61	4.0760	4.0760	-0.7982	24.37	0.11	-0.400			
0.0704	4506.46	4.0730	4.0730	-0.8034	24.37	0.11	-0.400			
0.0728	4660.83	4.0700	4.0700	-0.8027	24.38	0.12	-0.400			
0.0752	4815.61	4.0670	4.0670	-0.8043	24.39	0.13	-0.400			
0.0776	4968.95	4.0640	4.0640	-0.8072	24.40	0.14	-0.400			
0.0801	5126.24	4.0610	4.0609	-0.8108	24.40	0.14	-0.400			
0.0825	5280.94	4.0580	4.0580	-0.8106	24.41	0.15	-0.400			
0.0850	5437.32	4.0550	4.0552	-0.8116	24.42	0.16	-0.400			
0.0874	5592.62	4.0520	4.0520	-0.8144	24.42	0.16	-0.400			
0.0898	5750.00	4.0490	4.0489	-0.8179	24.43	0.17	-0.400			
0.0923	5905.18	4.0460	4.0460	-0.8184	24.44	0.18	-0.400			
0.0947	6063.08	4.0430	4.0429	-0.8223	24.45	0.19	-0.400			
0.0972	6222.14	4.0400	4.0401	-0.8284	24.45	0.19	-0.400			
0.0997	6381.73	4.0370	4.0370	-0.8270	24.46	0.20	-0.400			
0.1022	6540.17	4.0340	4.0341	-0.8337	24.47	0.21	-0.400			
0.1047	6700.51	4.0310	4.0310	-0.8336	24.48	0.22	-0.400			
0.1072	6861.15	4.0280	4.0279	-0.8352	24.48	0.22	-0.400			
0.1097	7021.32	4.0250	4.0250	-0.8368	24.49	0.23	-0.400			
0.1122	7182.41	4.0220	4.0220	-0.8361	24.50	0.24	-0.400			
0.1147	7342.85	4.0190	4.0190	-0.8365	24.50	0.24	-0.400			
0.1172	7503.88	4.0160	4.0159	-0.8386	24.50	0.24	-0.400			
0.1197	7662.64	4.0130	4.0130	-0.8370	24.50	0.24	-0.400			
0.1223	7824.93	4.0100	4.0099	-0.8409	24.51	0.25	-0.400			
0.1248	7986.22	4.0070	4.0070	-0.8439	24.52	0.26	-0.400			
0.1273	8148.56	4.0040	4.0040	-0.8500	24.52	0.26	-0.400			
0.1299	8313.00	4.0010	4.0010	-0.8569	24.52	0.26	-0.400			
0.1325	8477.70	3.9980	3.9981	-0.8604	24.52	0.26	-0.400			
0.1351	8643.74	3.9950	3.9951	-0.8622	24.53	0.27	-0.400			
0.1377	8810.97	3.9920	3.9920	-0.8630	24.54	0.28	-0.400			
0.1403	8976.79	3.9890	3.9889	-0.8645	24.54	0.28	-0.400			
0.1428	9141.01	3.9860	3.9861	-0.8629	24.54	0.28	-0.400			
0.1454	9306.67	3.9830	3.9830	-0.8610	24.54	0.28	-0.400			
0.1480	9472.79	3.9800	3.9800	-0.8641	24.54	0.28	-0.400			
0.1506	9638.56	3.9770	3.9770	-0.8690	24.55	0.29	-0.400			
0.1532	9805.37	3.9740	3.9740	-0.8752	24.55	0.29	-0.400			
0.1558	9973.59	3.9710	3.9710	-0.8771	24.56	0.30	-0.400			
0.1585	10142.66	3.9680	3.9681	-0.8799	24.56	0.30	-0.400			
0.1611	10312.16	3.9650	3.9650	-0.8856	24.56	0.30	-0.400			
0.1638	10483.84	3.9620	3.9619	-0.8890	24.55	0.29	-0.400			
0.1665	10654.61	3.9590	3.9590	-0.8892	24.55	0.29	-0.400			
0.1691	10824.19	3.9560	3.9559	-0.8905	24.56	0.30	-0.400			
0.1718	10996.06	3.9530	3.9530	-0.8915	24.57	0.31	-0.400			
0.1745	11167.89	3.9500	3.9500	-0.8938	24.57	0.31	-0.400			
0.1772	11338.03	3.9470	3.9470	-0.8947	24.58	0.32	-0.400			
0.1798	11510.36	3.9440	3.9440	-0.8968	24.58	0.32	-0.400			
0.1826	11683.65	3.9410	3.9410	-0.8996	24.58	0.32	-0.400			
0.1853	11856.18	3.9380	3.9380	-0.9014	24.58	0.32	-0.400			
0.1880	12028.96	3.9350	3.9350	-0.9036	24.58	0.32	-0.400			
0.1907	12204.42	3.9320	3.9319	-0.9060	24.58	0.32	-0.400			
0.1934	12377.81	3.9290	3.9290	-0.9052	24.58	0.32	-0.400			
0.1961	12551.42	3.9260	3.9260	-0.9067	24.59	0.33	-0.400			
0.1988	12724.83	3.9230	3.9231	-0.9116	24.60	0.34	-0.400			
0.2016	12899.67	3.9200	3.9199	-0.9132	24.60	0.34	-0.400			
0.2043	13074.87	3.9170	3.9170	-0.9199	24.61	0.35	-0.400			
0.2071	13252.75	3.9140	3.9140	-0.9221	24.61	0.35	-0.400			
0.2099	13431.07	3.9110	3.9110	-0.9249	24.62	0.36	-0.400			
0.2127	13610.38	3.9080	3.9080	-0.9281	24.62	0.36	-0.400			
0.2154	13788.24	3.9050	3.9050	-0.9268	24.62	0.36	-0.400			
0.2182	13965.57	3.9020	3.9020	-0.9286	24.62	0.36	-0.400			
0.2210	14143.69	3.8990	3.8990	-0.9312	24.62	0.36	-0.400			
0.2238	14322.75	3.8960	3.8960	-0.9293	24.63	0.37	-0.400			
0.2266	14501.27	3.8930	3.8930	-0.9319	24.63	0.37	-0.400			
0.2294	14679.39	3.8900	3.8900	-0.9351	24.63	0.37	-0.400			
0.2322	14858.87	3.8870	3.8868	-0.9335	24.63	0.37	-0.400			
0.2350	15038.93	3.8840	3.8839	-0.9302	24.63	0.37	-0.400			
0.2378	15216.32	3.8810	3.8811	-0.9317	24.64	0.38	-0.400			
0.2406	15395.50	3.8780	3.8779	-0.9358	24.64	0.38	-0.400			
0.2434	15575.64	3.8750	3.8748	-0.9429	24.64	0.38	-0.400			
0.2462	15756.48	3.8720	3.8721	-0.9426	24.64	0.38	-0.400			
0.2490	15937.78	3.8690	3.8691	-0.9448	24.64	0.38	-0.400			
0.2519	16121.27	3.8660	3.8660	-0.9479	24.64	0.38	-0.400			
0.2548	16304.94	3.8630	3.8630	-0.9485	24.65	0.39	-0.400			
0.2576	16483.79	3.8600	3.8600	-0.9437	24.66	0.40	-0.400			
0.2604	16664.83	3.8570	3.8570	-0.9457	24.66	0.40	-0.400			
0.2632	16846.46	3.8540	3.8540	-0.9461	24.66	0.40	-0.400			
0.2661	17029.51	3.8510	3.8509	-0.9492	24.66	0.40	-0.400			
0.2689	17211.47	3.8480	3.8480	-0.9501	24.66	0.40	-0.400			
0.2718	17393.39	3.8450	3.8451	-0.9513	24.67	0.41	-0.400			
0.2746	17576.43	3.8420	3.8419	-0.9530	24.67	0.41	-0.400			
0.2775	17758.09	3.8390	3.8390	-0.9537	24.68	0.42	-0.400			
0.2803	17942.28	3.8360	3.8360	-0.9540	24.68	0.42	-0.400			
0.2832	18125.36	3.8330	3.8330	-0.9594	24.68	0.42	-0.400			
0.2861	18310.93	3.8300	3.8300	-0.9626	24.68	0.42	-0.400			
0.2890	18495.72	3.8270	3.8270	-0.9626	24.69	0.43	-0.400			
0.2919	18681.42	3.8240	3.8240	-0.9621	24.70	0.44	-0.400			
0.2948	18866.03	3.8210	3.8210	-0.9637	24.70	0.44	-0.400			
0.2977	19050.69	3.8180	3.8180	-0.9634	24.70	0.44	-0.400			
0.3006	19236.50	3.8150	3.8149	-0.9620	24.70	0.44	-0.400			
0.3034	19419.93	3.8120	3.8120	-0.9591	24.70	0.44	-0.400			
0.3063	19604.53	3.8090	3.8090	-0.9597	24.70	0.44	-0.400			
0.3092	19788.86	3.8060	3.8060	-0.9600	24.71	0.45	-0.400			
0.3121	19972.16	3.8030	3.8030	-0.9584	24.72	0.46	-0.400			
0.3150	20156.81	3.8000	3.8000	-0.9539	24.73	0.47	-0.400			
0.3178	20340.13	3.7970	3.7970	-0.9539	24.74	0.48	-0.400			
0.3207	20523.92	3.7940	3.7940	-0.9521	24.74	0.48	-0.400			
0.3235	20705.75	3.7910	3.7910	-0.9514	24.75	0.49	-0.400			
0.3264	20888.40	3.7880	3.7880	-0.9487	24.76	0.50	-0.400			
0.3292	21069.94	3.7850	3.7850	-0.9457	24.77	0.51	-0.400			
0.3321	21251.21	3.7820	3.7821	-0.9443	24.77	0.51	-0.400			
0.3349	21433.81	3.7790	3.7790	-0.9421	24.77	0.51	-0.400			
0.3377	21612.60	3.7760	3.7760	-0.9382	24.78	0.52	-0.400			
0.3405	21793.61	3.7730	3.7730	-0.9312	24.78	0.52	-0.400			
0.3433	21971.57	3.7700	3.7700	-0.9235	24.79	0.53	-0.400			
0.3461	22149.15	3.7670	3.7670	-0.9201	24.80	0.54	-0.400			
0.3488	22325.63	3.7640	3.7639	-0.9086	24.80	0.54	-0.400			
0.3515	22498.10	3.7610	3.7610	-0.9005	24.80	0.54	-0.400			
0.3542	22670.24	3.7580	3.7580	-0.8965	24.80	0.54	-0.400			
0.3569	22839.18	3.7550	3.7550	-0.8921	24.80	0.54	-0.400			
0.3596	23012.13	3.7520	3.7520	-0.8905	24.80	0.54	-0.400			
0.3622	23181.41	3.7490	3.7489	-0.8885	24.81	0.55	-0.400			
0.3649	23353.18	3.7460	3.7461	-0.8866	24.82	0.56	-0.400			
0.3676	23524.19	3.7430	3.7431	-0.8934	24.82	0.56	-0.400			
0.3702	23694.77	3.7400	3.7400	-0.8915	24.82	0.56	-0.400			
0.3729	23865.80	3.7370	3.7370	-0.8978	24.82	0.56	-0.400			
0.3756	24037.02	3.7340	3.7342	-0.9063	24.83	0.57	-0.400			
0.3783	24212.39	3.7310	3.7310	-0.9196	24.84	0.58	-0.400			
0.3811	24389.25	3.7280	3.7279	-0.9273	24.84	0.58	-0.400			
0.3839	24568.96	3.7250	3.7251	-0.9381	24.84	0.58	-0.400			
0.3867	24748.90	3.7220	3.7220	-0.9539	24.84	0.58	-0.400			
0.3896	24932.57	3.7190	3.7190	-0.9700	24.83	0.57	-0.400			
0.3925	25118.02	3.7160	3.7160	-0.9919	24.82	0.56	-0.400			
0.3955	25310.99	3.7130	3.7129	-1.0179	24.81	0.55	-0.400			
0.3986	25509.25	3.7100	3.7101	-1.0452	24.80	0.54	-0.400			
0.4018	25714.29	3.7070	3.7070	-1.0750	24.80	0.54	-0.400			
0.4050	25922.67	3.7040	3.7040	-1.1056	24.80	0.54	-0.400			
0.4084	26136.31	3.7010	3.7010	-1.1306	24.79	0.53	-0.400			
0.4118	26356.35	3.6980	3.6980	-1.1670	24.77	0.51	-0.400			
0.4154	26582.96	3.6950	3.6950	-1.1969	24.77	0.51	-0.400			
0.4190	26817.61	3.6920	3.6920	-1.2328	24.76	0.50	-0.400			
0.4228	27057.13	3.6890	3.6891	-1.2703	24.74	0.48	-0.400			
0.4266	27305.10	3.6860	3.6860	-1.3043	24.72	0.46	-0.400			
0.4306	27557.22	3.6830	3.6831	-1.3451	24.70	0.44	-0.400			
0.4347	27820.21	3.6800	3.6800	-1.3820	24.67	0.41	-0.400			
0.4389	28088.94	3.6770	3.6770	-1.4271	24.64	0.38	-0.400			
0.4432	28366.83	3.6740	3.6740	-1.4722	24.60	0.34	-0.400			
0.4477	28654.62	3.6710	3.6710	-1.5161	24.57	0.31	-0.400			
0.4523	28949.23	3.6680	3.6681	-1.5584	24.54	0.28	-0.400			
0.4571	29255.36	3.6650	3.6650	-1.5924	24.50	0.24	-0.400			
0.4619	29562.88	3.6620	3.6621	-1.6365	24.47	0.21	-0.400			
0.4669	29880.77	3.6590	3.6590	-1.6799	24.43	0.17	-0.400			
0.4719	30203.61	3.6560	3.6560	-1.7299	24.38	0.12	-0.400			
0.4771	30537.53	3.6530	3.6531	-1.7900	24.35	0.09	-0.400			
0.4826	30888.46	3.6500	3.6498	-1.8600	24.32	0.06	-0.400			
0.4883	31254.07	3.6470	3.6470	-1.9151	24.28	0.02	-0.400			
0.4942	31629.69	3.6440	3.6440	-1.9819	24.24	-0.02	-0.400	0.400	0.511	
0.5002	32014.16	3.6410	3.6411	-2.0354	24.19	-0.07	-0.400			
0.5064	32408.45	3.6380	3.6380	-2.0973	24.15	-0.11	-0.400			
0.5127	32812.93	3.6350	3.6351	-2.1655	24.11	-0.15	-0.400			
0.5193	33236.99	3.6320	3.6320	-2.2401	24.08	-0.18	-0.400			
0.5262	33677.32	3.6290	3.6290	-2.3194	24.04	-0.22	-0.400			
0.5333	34131.86	3.6260	3.6260	-2.3840	24.00	-0.26	-0.400			
0.5406	34596.81	3.6230	3.6230	-2.4414	23.96	-0.30	-0.400			
0.5480	35071.23	3.6200	3.6200	-2.4859	23.93	-0.33	-0.400			
0.5555	35554.18	3.6170	3.6170	-2.5353	23.90	-0.36	-0.400			
0.5632	36045.58	3.6140	3.6140	-2.5802	23.87	-0.39	-0.400			
0.5710	36546.05	3.6110	3.6110	-2.6198	23.84	-0.42	-0.400			
0.5789	37052.66	3.6080	3.6080	-2.6651	23.81	-0.45	-0.400			
0.5870	37569.78	3.6050	3.6050	-2.7025	23.80	-0.46	-0.400			
0.5952	38092.21	3.6020	3.6019	-2.7369	23.78	-0.48	-0.400			
0.6035	38622.91	3.5990	3.5990	-2.7702	23.77	-0.49	-0.400			
0.6118	39155.37	3.5960	3.5959	-2.8047	23.76	-0.50	-0.400			
0.6203	39699.22	3.5930	3.5930	-2.8249	23.75	-0.51	-0.400			
0.6288	40245.49	3.5900	3.5899	-2.8369	23.75	-0.51	-0.400			
0.6374	40793.55	3.5870	3.5871	-2.8362	23.75	-0.51	-0.400			
0.6459	41339.19	3.5840	3.5841	-2.8273	23.74	-0.52	-0.400			
0.6544	41878.83	3.5810	3.5810	-2.8067	23.76	-0.50	-0.400			
0.6628	42417.02	3.5780	3.5780	-2.7754	23.78	-0.48	-0.400			
0.6711	42949.34	3.5750	3.5750	-2.7325	23.80	-0.46	-0.400			
0.6793	43473.36	3.5720	3.5720	-2.6938	23.84	-0.42	-0.400			
0.6873	43985.14	3.5690	3.5690	-2.6321	23.86	-0.40	-0.400			
0.6951	44486.27	3.5660	3.5660	-2.5640	23.90	-0.36	-0.400			
0.7027	44972.91	3.5630	3.5630	-2.4923	23.93	-0.33	-0.400			
0.7101	45448.55	3.5600	3.5600	-2.4191	23.97	-0.29	-0.400			
0.7173	45904.81	3.5570	3.5570	-2.3273	24.02	-0.24	-0.400			
0.7241	46343.40	3.5540	3.5540	-2.2361	24.05	-0.21	-0.400			
0.7307	46764.28	3.5510	3.5509	-2.1459	24.12	-0.14	-0.400			
0.7370	47167.95	3.5480	3.5480	-2.0538	24.18	-0.08	-0.400			
0.7430	47551.93	3.5450	3.5450	-1.9673	24.25	-0.01	-0.400			
0.7487	47919.70	3.5420	3.5421	-1.8826	24.32	0.06	-0.400			
0.7543	48273.16	3.5390	3.5390	-1.8044	24.40	0.14	-0.400			
0.7596	48612.02	3.5360	3.5360	-1.7284	24.47	0.21	-0.400			
0.7646	48935.75	3.5330	3.5329	-1.6577	24.53	0.27	-0.400			
0.7695	49246.47	3.5300	3.5300	-1.5948	24.60	0.34	-0.400			
0.7742	49545.69	3.5270	3.5270	-1.5309	24.66	0.40	-0.400			
0.7787	49834.08	3.5240	3.5240	-1.4717	24.72	0.46	-0.400			
0.7830	50110.24	3.5210	3.5210	-1.4105	24.79	0.53	-0.400			
0.7871	50376.51	3.5180	3.5180	-1.3538	24.84	0.58	-0.400			
0.7911	50631.66	3.5150	3.5150	-1.2926	24.88	0.62	-0.400			
0.7949	50873.45	3.5120	3.5120	-1.2365	24.92	0.66	-0.400			
0.7985	51103.15	3.5090	3.5091	-1.1822	24.96	0.70	-0.400			
0.8019	51324.42	3.5060	3.5059	-1.1348	25.00	0.74	-0.400			
0.8053	51537.24	3.5030	3.5030	-1.0890	25.04	0.78	-0.400			
0.8084	51739.40	3.5000	3.5001	-1.0499	25.07	0.81	-0.400			
0.8115	51937.74	3.4970	3.4970	-1.0211	25.10	0.84	-0.400			
0.8145	52130.29	3.4940	3.4939	-0.9867	25.13	0.87	-0.400			
0.8174	52315.36	3.4910	3.4910	-0.9583	25.15	0.89	-0.400			
0.8203	52496.44	3.4880	3.4880	-0.9333	25.17	0.91	-0.400			
0.8230	52673.76	3.4850	3.4850	-0.9091	25.20	0.94	-0.400			
0.8257	52845.71	3.4820	3.4819	-0.8865	25.22	0.96	-0.400			
0.8283	53013.05	3.4790	3.4790	-0.8614	25.24	0.98	-0.400			
0.8308	53174.31	3.4760	3.4761	-0.8517	25.26	1.00	-0.400			
0.8333	53334.01	3.4730	3.4730	-0.8484	25.28	1.02	-0.400			
0.8358	53489.43	3.4700	3.4701	-0.8619	25.30	1.04	-0.400			
0.8383	53650.73	3.4670	3.4670	-0.9174	25.31	1.05	-0.400			
0.8409	53816.55	3.4640	3.4641	-1.0101	25.33	1.07	-0.400			
0.8439	54011.38	3.4610	3.4610	-1.1565	25.35	1.09	-0.400			
0.8475	54242.18	3.4580	3.4579	-1.3153	25.37	1.11	-0.400			
0.8518	54516.46	3.4550	3.4549	-1.4679	25.41	1.15	-0.400			
0.8567	54827.51	3.4520	3.4520	-1.5858	25.44	1.18	-0.400			
0.8618	55158.34	3.4490	3.4490	-1.6477	25.46	1.20	-0.400			
0.8670	55488.13	3.4460	3.4461	-1.6449	25.48	1.22	-0.400			
0.8720	55807.58	3.4430	3.4431	-1.6060	25.50	1.24	-0.400			
0.8767	56111.20	3.4400	3.4400	-1.5425	25.52	1.26	-0.400			
0.8813	56400.52	3.4370	3.4370	-1.4746	25.54	1.28	-0.400			
0.8856	56676.72	3.4340	3.4340	-1.4137	25.56	1.30	-0.400			
0.8897	56942.21	3.4310	3.4309	-1.3552	25.58	1.32	-0.400			
0.8937	57196.79	3.4280	3.4280	-1.2958	25.60	1.34	-0.400			
0.8975	57439.35	3.4250	3.4250	-1.2358	25.61	1.35	-0.400			
0.9011	57670.63	3.4220	3.4221	-1.1767	25.63	1.37	-0.400			
0.9046	57891.58	3.4190	3.4190	-1.1165	25.65	1.39	-0.400			
0.9078	58100.56	3.4160	3.4160	-1.0583	25.66	1.40	-0.400			
0.9109	58297.47	3.4130	3.4130	-0.9959	25.67	1.41	-0.400			
0.9138	58482.97	3.4100	3.4100	-0.9370	25.69	1.43	-0.400			
0.9165	58657.28	3.4070	3.4070	-0.8790	25.71	1.45	-0.400			
0.9191	58819.79	3.4040	3.4041	-0.8205	25.73	1.47	-0.400			
0.9214	58971.43	3.4010	3.4009	-0.7623	25.74	1.48	-0.400			
0.9236	59112.45	3.3980	3.3980	-0.7080	25.76	1.50	-0.400			
0.9257	59242.22	3.3950	3.3950	-0.6550	25.77	1.51	-0.400			
0.9275	59362.90	3.3920	3.3920	-0.6040	25.79	1.53	-0.400			
0.9293	59472.47	3.3890	3.3889	-0.5553	25.80	1.54	-0.400			
0.9308	59572.68	3.3860	3.3860	-0.5091	25.82	1.56	-0.400			
0.9323	59665.28	3.3830	3.3830	-0.4703	25.83	1.57	-0.400			
0.9336	59751.25	3.3800	3.3799	-0.4350	25.85	1.59	-0.400			
0.9348	59829.88	3.3770	3.3770	-0.4020	25.87	1.61	-0.400			
0.9360	59903.74	3.3740	3.3740	-0.3757	25.89	1.63	-0.400			
0.9371	59972.76	3.3710	3.3710	-0.3524	25.90	1.64	-0.400			
0.9381	60037.59	3.3680	3.3680	-0.3310	25.92	1.66	-0.400			
0.9390	60098.40	3.3650	3.3650	-0.3120	25.93	1.67	-0.400			
0.9399	60156.27	3.3620	3.3620	-0.2958	25.95	1.69	-0.400			
0.9408	60210.81	3.3590	3.3590	-0.2810	25.96	1.70	-0.400			
0.9416	60263.26	3.3560	3.3560	-0.2681	25.98	1.72	-0.400			
0.9424	60313.32	3.3530	3.3530	-0.2572	25.99	1.73	-0.400			
0.9431	60361.29	3.3500	3.3500	-0.2477	26.01	1.75	-0.400			
0.9439	60407.37	3.3470	3.3470	-0.2388	26.02	1.76	-0.400			
0.9446	60452.41	3.3440	3.3440	-0.2317	26.03	1.77	-0.400			
0.9453	60496.12	3.3410	3.3410	-0.2246	26.04	1.78	-0.400			
0.9459	60538.49	3.3380	3.3380	-0.2179	26.06	1.80	-0.400			
0.9466	60579.36	3.3350	3.3350	-0.2120	26.07	1.81	-0.400			
0.9472	60619.18	3.3320	3.3320	-0.2067	26.08	1.82	-0.400			
0.9478	60658.43	3.3290	3.3290	-0.2021	26.10	1.84	-0.400			
0.9484	60696.51	3.3260	3.3259	-0.1977	26.11	1.85	-0.400			
0.9490	60733.85	3.3230	3.3230	-0.1938	26.12	1.86	-0.400			
0.9495	60770.77	3.3200	3.3200	-0.1904	26.14	1.88	-0.400			
0.9501	60806.99	3.3170	3.3170	-0.1871	26.15	1.89	-0.400			
0.9507	60842.68	3.3140	3.3140	-0.1839	26.16	1.90	-0.400			
0.9512	60877.58	3.3110	3.3110	-0.1803	26.17	1.91	-0.400			
0.9517	60911.73	3.3080	3.3080	-0.1772	26.18	1.92	-0.400			
0.9523	60945.43	3.3050	3.3050	-0.1745	26.19	1.93	-0.400			
0.9528	60978.67	3.3020	3.3020	-0.1718	26.20	1.94	-0.400			
0.9533	61011.30	3.2990	3.2990	-0.1690	26.21	1.95	-0.400			
0.9538	61043.43	3.2960	3.2960	-0.1666	26.23	1.97	-0.400			
0.9543	61075.10	3.2930	3.2930	-0.1643	26.24	1.98	-0.400			
0.9548	61106.44	3.2900	3.2900	-0.1622	26.25	1.99	-0.400			
0.9553	61137.44	3.2870	3.2869	-0.1598	26.26	2.00	-0.400			
0.9557	61167.83	3.2840	3.2840	-0.1574	26.27	2.01	-0.400			
0.9562	61197.87	3.2810	3.2810	-0.1552	26.28	2.02	-0.400			
0.9567	61227.41	3.2780	3.2780	-0.1530	26.30	2.04	-0.400			
0.9571	61256.54	3.2750	3.2750	-0.1512	26.31	2.05	-0.400			
0.9576	61285.17	3.2720	3.2720	-0.1492	26.32	2.06	-0.400			
0.9580	61313.54	3.2690	3.2690	-0.1474	26.33	2.07	-0.400			
0.9585	61341.80	3.2660	3.2660	-0.1456	26.34	2.08	-0.400			
0.9589	61369.79	3.2630	3.2630	-0.1438	26.35	2.09	-0.400			
0.9593	61397.32	3.2600	3.2600	-0.1419	26.36	2.10	-0.400			
0.9598	61424.25	3.2570	3.2570	-0.1402	26.37	2.11	-0.400			
0.9602	61451.01	3.2540	3.2540	-0.1382	26.38	2.12	-0.400			
0.9606	61477.29	3.2510	3.2509	-0.1361	26.39	2.13	-0.400			
0.9610	61503.25	3.2480	3.2480	-0.1342	26.40	2.14	-0.400			
0.9614	61528.69	3.2450	3.2450	-0.1326	26.41	2.15	-0.400			
0.9618	61553.94	3.2420	3.2420	-0.1313	26.42	2.16	-0.400			
0.9622	61579.00	3.2390	3.2390	-0.1299	26.43	2.17	-0.400			
0.9626	61603.91	3.2360	3.2360	-0.1283	26.44	2.18	-0.400			
0.9629	61628.29	3.2330	3.2330	-0.1267	26.45	2.19	-0.400			
0.9633	61652.63	3.2300	3.2299	-0.1255	26.46	2.20	-0.400			
0.9637	61676.65	3.2270	3.2270	-0.1240	26.47	2.21	-0.400			
0.9641	61700.25	3.2240	3.2240	-0.1223	26.48	2.22	-0.400			
0.9644	61723.54	3.2210	3.2209	-0.1206	26.48	2.22	-0.400			
0.9648	61746.46	3.2180	3.2181	-0.1191	26.49	2.23	-0.400			
0.9651	61769.03	3.2150	3.2151	-0.1174	26.50	2.24	-0.400			
0.9655	61791.48	3.2120	3.2120	-0.1161	26.51	2.25	-0.400			
0.9658	61813.71	3.2090	3.2089	-0.1149	26.51	2.25	-0.400			
0.9662	61835.61	3.2060	3.2060	-0.1136	26.52	2.26	-0.400			
0.9665	61857.22	3.2030	3.2031	-0.1122	26.53	2.27	-0.400			
0.9669	61878.64	3.2000	3.2000	-0.1110	26.54	2.28	-0.400			
0.9672	61899.85	3.1970	3.1970	-0.1098	26.55	2.29	-0.400			
0.9675	61920.78	3.1940	3.1940	-0.1087	26.56	2.30	-0.400			
0.9678	61941.49	3.1910	3.1910	-0.1075	26.57	2.31	-0.400			
0.9682	61962.13	3.1880	3.1880	-0.1062	26.57	2.31	-0.400			
0.9685	61982.47	3.1850	3.1850	-0.1050	26.58	2.32	-0.400			
0.9688	62002.50	3.1820	3.1820	-0.1037	26.59	2.33	-0.400			
0.9691	62022.34	3.1790	3.1790	-0.1024	26.60	2.34	-0.400			
0.9694	62041.78	3.1760	3.1760	-0.1013	26.61	2.35	-0.400			
0.9697	62061.05	3.1730	3.1729	-0.1000	26.61	2.35	-0.400			
0.9700	62080.10	3.1700	3.1700	-0.0990	26.62	2.36	-0.400			
0.9703	62098.86	3.1670	3.1670	-0.0978	26.63	2.37	-0.400			
0.9706	62117.63	3.1640	3.1640	-0.0968	26.63	2.37	-0.400			
0.9709	62136.21	3.1610	3.1611	-0.0960	26.64	2.38	-0.400			
0.9712	62154.55	3.1580	3.1580	-0.0950	26.65	2.39	-0.400			
0.9714	62172.74	3.1550	3.1549	-0.0939	26.65	2.39	-0.400			
0.9717	62190.67	3.1520	3.1520	-0.0928	26.66	2.40	-0.400			
0.9720	62208.35	3.1490	3.1490	-0.0917	26.66	2.40	-0.400			
0.9723	62225.85	3.1460	3.1461	-0.0906	26.67	2.41	-0.400			
0.9725	62243.06	3.1430	3.1430	-0.0897	26.68	2.42	-0.400			
0.9728	62260.20	3.1400	3.1400	-0.0888	26.69	2.43	-0.400			
0.9731	62277.15	3.1370	3.1370	-0.0878	26.70	2.44	-0.400			
0.9733	62293.92	3.1340	3.1340	-0.0869	26.71	2.45	-0.400			
0.9736	62310.54	3.1310	3.1311	-0.0861	26.72	2.46	-0.400			
0.9739	62326.98	3.1280	3.1280	-0.0852	26.73	2.47	-0.400			
0.9741	62343.25	3.1250	3.1250	-0.0843	26.74	2.48	-0.400			
0.9744	62359.35	3.1220	3.1220	-0.0834	26.75	2.49	-0.400			
0.9746	62375.25	3.1190	3.1190	-0.0824	26.76	2.50	-0.400			
0.9749	62390.99	3.1160	3.1161	-0.0816	26.77	2.51	-0.400			
0.9751	62406.60	3.1130	3.1130	-0.0808	26.77	2.51	-0.400			
0.9753	62421.94	3.1100	3.1100	-0.0801	26.78	2.52	-0.400			
0.9756	62437.23	3.1070	3.1070	-0.0793	26.79	2.53	-0.400			
0.9758	62452.31	3.1040	3.1040	-0.0785	26.79	2.53	-0.400			
0.9761	62467.34	3.1010	3.1009	-0.0779	26.80	2.54	-0.400			
0.9763	62482.19	3.0980	3.0981	-0.0772	26.81	2.55	-0.400			
0.9765	62497.02	3.0950	3.0950	-0.0765	26.81	2.55	-0.400			
0.9767	62511.63	3.0920	3.0919	-0.0758	26.82	2.56	-0.400			
0.9770	62526.21	3.0890	3.0891	-0.0751	26.83	2.57	-0.400			
0.9772	62540.51	3.0860	3.0861	-0.0745	26.83	2.57	-0.400			
0.9774	62554.69	3.0830	3.0830	-0.0737	26.84	2.58	-0.400			
0.9776	62568.78	3.0800	3.0800	-0.0731	26.84	2.58	-0.400			
0.9779	62582.75	3.0770	3.0770	-0.0724	26.85	2.59	-0.400			
0.9781	62596.56	3.0740	3.0740	-0.0717	26.86	2.60	-0.400			
0.9783	62610.27	3.0710	3.0710	-0.0711	26.86	2.60	-0.400			
0.9785	62623.84	3.0680	3.0680	-0.0706	26.87	2.61	-0.400			
0.9787	62637.34	3.0650	3.0650	-0.0700	26.87	2.61	-0.400			
0.9789	62650.74	3.0620	3.0619	-0.0694	26.87	2.61	-0.400			
0.9791	62663.99	3.0590	3.0590	-0.0687	26.88	2.62	-0.400			
0.9793	62677.11	3.0560	3.0560	-0.0681	26.89	2.63	-0.400			
0.9795	62690.12	3.0530	3.0530	-0.0676	26.89	2.63	-0.400			
0.9797	62703.06	3.0500	3.0501	-0.0671	26.90	2.64	-0.400			
0.9799	62715.88	3.0470	3.0470	-0.0665	26.91	2.65	-0.400			
0.9801	62728.58	3.0440	3.0440	-0.0660	26.92	2.66	-0.400			
0.9803	62741.15	3.0410	3.0410	-0.0653	26.93	2.67	-0.400			
0.9805	62753.65	3.0380	3.0381	-0.0648	26.94	2.68	-0.400			
0.9807	62766.02	3.0350	3.0350	-0.0645	26.95	2.69	-0.400			
0.9809	62778.35	3.0320	3.0320	-0.0640	26.96	2.70	-0.400			
0.9811	62790.61	3.0290	3.0289	-0.0636	26.97	2.71	-0.400			
0.9813	62802.83	3.0260	3.0260	-0.0631	26.97	2.71	-0.400			
0.9815	62814.89	3.0230	3.0231	-0.0626	26.98	2.72	-0.400			
0.9817	62826.85	3.0200	3.0201	-0.0621	26.99	2.73	-0.400			
0.9819	62838.73	3.0170	3.0171	-0.0618	27.00	2.74	-0.400			
0.9820	62850.54	3.0140	3.0140	-0.0613	27.01	2.75	-0.400			
0.9822	62862.25	3.0110	3.0109	-0.0608	27.02	2.76	-0.400			
0.9824	62873.88	3.0080	3.0081	-0.0603	27.02	2.76	-0.400			
0.9826	62885.30	3.0050	3.0050	-0.0604	27.03	2.77	-0.400			
0.9828	62896.88	3.0020	3.0020	-0.0603	27.04	2.78	-0.400			
