Ah_balance (normalized)	Ah_balance (mAh)	Voltage - fit (V)	Voltage -  interpolate (V)	dQ/dV (1/V)	Temperature (°C)	Temperature - diff (°C)	Current (C)	R_DC 0ms (mOhm)	R_DC 50ms (mOhm)	R_DC 50 ms PEC (mOhm)
-0.0085	-543.77	4.1990	4.1988	0.8343	25.45	-0.51	0.050			
-0.0077	-489.76	4.1980	4.1978	0.7894	25.63	-0.33	0.050			
-0.0069	-439.33	4.1970	4.1972	0.7870	25.80	-0.16	0.050			
-0.0061	-388.54	4.1960	4.1962	0.7969	25.96	0.00	0.050			
-0.0053	-336.10	4.1950	4.1950	0.8100	26.12	0.16	0.050			
-0.0044	-284.35	4.1940	4.1939	0.8145	26.28	0.32	0.050			
-0.0036	-231.85	4.1930	4.1934	0.8201	26.42	0.46	0.050			
-0.0028	-179.92	4.1920	4.1920	0.8258	26.52	0.56	0.050			
-0.0020	-126.51	4.1910	4.1908	0.8317	26.62	0.66	0.050			
-0.0011	-72.21	4.1900	4.1901	0.8359	26.65	0.69	0.050			
-0.0003	-18.30	4.1890	4.1888	0.8398	26.63	0.67	0.050			
0.0006	35.67	4.1880	4.1880	0.8432	26.58	0.62	0.050			
0.0014	89.39	4.1870	4.1875	0.8441	26.54	0.58	0.050			
0.0023	144.36	4.1860	4.1859	0.8495	26.49	0.53	0.050			
0.0031	200.14	4.1850	4.1851	0.8536	26.45	0.49	0.050			
0.0040	256.10	4.1840	4.1841	0.8537	26.40	0.44	0.050			
0.0049	310.85	4.1830	4.1830	0.8544	26.36	0.40	0.050			
0.0057	365.50	4.1820	4.1821	0.8588	26.32	0.36	0.050			
0.0066	421.60	4.1810	4.1808	0.8568	26.27	0.31	0.050			
0.0075	477.14	4.1800	4.1802	0.8568	26.23	0.27	0.050			
0.0083	531.69	4.1790	4.1789	0.8564	26.20	0.24	0.050			
0.0091	584.42	4.1780	4.1782	0.8554	26.17	0.21	0.050			
0.0100	639.21	4.1770	4.1769	0.8566	26.14	0.18	0.050			
0.0109	695.00	4.1760	4.1760	0.8562	26.11	0.15	0.050			
0.0117	750.15	4.1750	4.1750	0.8582	26.09	0.13	0.050			
0.0126	804.85	4.1740	4.1738	0.8580	26.04	0.08	0.050			
0.0134	858.76	4.1730	4.1731	0.8583	25.96	0.00	0.050			
0.0143	912.98	4.1720	4.1721	0.8593	25.90	-0.06	0.050			
0.0151	968.63	4.1710	4.1712	0.8593	25.82	-0.14	0.050			
0.0160	1024.03	4.1700	4.1701	0.8612	25.74	-0.22	0.050			
0.0169	1079.64	4.1690	4.1688	0.8625	25.67	-0.29	0.050			
0.0177	1134.05	4.1680	4.1681	0.8628	25.60	-0.36	0.050			
0.0186	1190.03	4.1670	4.1669	0.8661	25.52	-0.44	0.050			
0.0195	1245.33	4.1660	4.1658	0.8668	25.44	-0.52	0.050			
0.0203	1301.16	4.1650	4.1647	0.8666	25.36	-0.60	0.050			
0.0212	1356.86	4.1640	4.1640	0.8678	25.27	-0.69	0.050			
0.0220	1411.07	4.1630	4.1630	0.8701	25.20	-0.76	0.050			
0.0229	1467.23	4.1620	4.1621	0.8691	25.11	-0.85	0.050			
0.0238	1523.75	4.1610	4.1608	0.8691	25.03	-0.93	0.050			
0.0247	1579.21	4.1600	4.1600	0.8703	24.95	-1.01	0.050			
0.0256	1635.23	4.1590	4.1589	0.8701	24.87	-1.09	0.050			
0.0264	1691.54	4.1580	4.1581	0.8672	24.79	-1.17	0.050			
0.0273	1747.17	4.1570	4.1571	0.8635	24.71	-1.25	0.050			
0.0282	1803.44	4.1560	4.1560	0.8684	24.64	-1.32	0.050			
0.0290	1858.88	4.1550	4.1549	0.8659	24.56	-1.40	0.050			
0.0299	1914.14	4.1540	4.1537	0.8629	24.49	-1.47	0.050			
0.0308	1969.81	4.1530	4.1535	0.8604	24.42	-1.54	0.050			
0.0316	2025.26	4.1520	4.1520	0.8545	24.36	-1.60	0.050			
0.0325	2080.94	4.1510	4.1511	0.8556	24.29	-1.67	0.050			
0.0334	2135.09	4.1500	4.1501	0.8524	24.24	-1.72	0.050			
0.0342	2189.43	4.1490	4.1490	0.8487	24.19	-1.77	0.050			
0.0350	2242.81	4.1480	4.1478	0.8465	24.14	-1.82	0.050			
0.0359	2296.68	4.1470	4.1468	0.8437	24.10	-1.86	0.050			
0.0367	2351.14	4.1460	4.1462	0.8402	24.07	-1.89	0.050			
0.0376	2404.73	4.1450	4.1452	0.8371	24.04	-1.92	0.050			
0.0384	2458.22	4.1440	4.1440	0.8340	24.02	-1.94	0.050			
0.0392	2510.54	4.1430	4.1430	0.8305	24.01	-1.95	0.050			
0.0401	2564.16	4.1420	4.1417	0.8314	24.01	-1.95	0.050			
0.0409	2618.26	4.1410	4.1411	0.8289	24.03	-1.93	0.050			
0.0417	2670.92	4.1400	4.1400	0.8222	24.06	-1.90	0.050			
0.0426	2724.24	4.1390	4.1389	0.8165	24.10	-1.86	0.050			
0.0434	2776.88	4.1380	4.1380	0.8137	24.15	-1.81	0.050			
0.0442	2828.34	4.1370	4.1371	0.8139	24.23	-1.73	0.050			
0.0450	2878.66	4.1360	4.1360	0.8074	24.31	-1.65	0.050			
0.0458	2930.12	4.1350	4.1350	0.8091	24.42	-1.54	0.050			
0.0466	2981.98	4.1340	4.1338	0.8096	24.54	-1.42	0.050			
0.0474	3033.80	4.1330	4.1331	0.8085	24.68	-1.28	0.050			
0.0482	3085.61	4.1320	4.1319	0.8064	24.82	-1.14	0.050			
0.0490	3135.55	4.1310	4.1310	0.8042	24.97	-0.99	0.050			
0.0498	3186.95	4.1300	4.1300	0.8046	25.14	-0.82	0.050			
0.0506	3236.91	4.1290	4.1286	0.8084	25.30	-0.66	0.050			
0.0514	3287.69	4.1280	4.1279	0.8129	25.48	-0.48	0.050			
0.0522	3339.04	4.1270	4.1271	0.8168	25.65	-0.31	0.050			
0.0530	3391.52	4.1260	4.1261	0.8217	25.82	-0.14	0.050			
0.0538	3444.63	4.1250	4.1251	0.8259	26.00	0.04	0.050			
0.0546	3497.20	4.1240	4.1242	0.8296	26.16	0.20	0.050			
0.0555	3549.61	4.1230	4.1231	0.8363	26.33	0.37	0.050			
0.0563	3603.11	4.1220	4.1216	0.8426	26.45	0.49	0.050			
0.0572	3658.00	4.1210	4.1212	0.8501	26.58	0.62	0.050			
0.0580	3713.78	4.1200	4.1197	0.8569	26.67	0.71	0.050			
0.0589	3769.28	4.1190	4.1190	0.8611	26.72	0.76	0.050			
0.0598	3824.38	4.1180	4.1180	0.8623	26.70	0.74	0.050			
0.0606	3879.32	4.1170	4.1171	0.8652	26.63	0.67	0.050			
0.0615	3935.78	4.1160	4.1160	0.8692	26.54	0.58	0.050			
0.0624	3991.56	4.1150	4.1150	0.8747	26.48	0.52	0.050			
0.0632	4047.95	4.1140	4.1141	0.8774	26.40	0.44	0.050			
0.0641	4104.94	4.1130	4.1131	0.8839	26.31	0.35	0.050			
0.0650	4162.57	4.1120	4.1120	0.8868	26.23	0.27	0.050			
0.0659	4218.59	4.1110	4.1112	0.8852	26.16	0.20	0.050			
0.0668	4275.44	4.1100	4.1100	0.8865	26.07	0.11	0.050			
0.0677	4332.83	4.1090	4.1089	0.8846	25.97	0.01	0.050			
0.0686	4390.17	4.1080	4.1079	0.8849	25.90	-0.06	0.050			
0.0695	4447.53	4.1070	4.1070	0.8854	25.81	-0.15	0.050			
0.0704	4503.88	4.1060	4.1058	0.8860	25.74	-0.22	0.050			
0.0713	4560.67	4.1050	4.1051	0.8868	25.65	-0.31	0.050			
0.0721	4617.39	4.1040	4.1039	0.8844	25.57	-0.39	0.050			
0.0730	4673.35	4.1030	4.1032	0.8821	25.48	-0.48	0.050			
0.0739	4729.82	4.1020	4.1019	0.8837	25.41	-0.55	0.050			
0.0748	4786.17	4.1010	4.1009	0.8862	25.32	-0.64	0.050			
0.0757	4843.95	4.1000	4.0999	0.8867	25.24	-0.72	0.050			
0.0766	4901.22	4.0990	4.0989	0.8834	25.16	-0.80	0.050			
0.0775	4957.73	4.0980	4.0978	0.8818	25.08	-0.88	0.050			
0.0783	5013.40	4.0970	4.0969	0.8800	25.01	-0.95	0.050			
0.0792	5069.74	4.0960	4.0960	0.8774	24.95	-1.01	0.050			
0.0801	5125.40	4.0950	4.0951	0.8759	24.88	-1.08	0.050			
0.0810	5181.56	4.0940	4.0941	0.8746	24.81	-1.15	0.050			
0.0818	5238.26	4.0930	4.0928	0.8725	24.75	-1.21	0.050			
0.0827	5293.80	4.0920	4.0920	0.8740	24.70	-1.26	0.050			
0.0836	5349.70	4.0910	4.0912	0.8756	24.64	-1.32	0.050			
0.0845	5406.22	4.0900	4.0901	0.8729	24.60	-1.36	0.050			
0.0854	5463.07	4.0890	4.0888	0.8703	24.56	-1.40	0.050			
0.0862	5518.67	4.0880	4.0878	0.8676	24.53	-1.43	0.050			
0.0871	5573.91	4.0870	4.0871	0.8645	24.50	-1.46	0.050			
0.0880	5629.60	4.0860	4.0860	0.8591	24.47	-1.49	0.050			
0.0888	5684.41	4.0850	4.0850	0.8550	24.46	-1.50	0.050			
0.0897	5739.56	4.0840	4.0841	0.8520	24.46	-1.50	0.050			
0.0905	5794.30	4.0830	4.0829	0.8474	24.47	-1.49	0.050			
0.0914	5847.33	4.0820	4.0822	0.8430	24.48	-1.48	0.050			
0.0922	5901.64	4.0810	4.0809	0.8419	24.51	-1.45	0.050			
0.0930	5954.71	4.0800	4.0805	0.8445	24.55	-1.41	0.050			
0.0939	6008.91	4.0790	4.0788	0.8437	24.61	-1.35	0.050			
0.0947	6061.85	4.0780	4.0779	0.8398	24.68	-1.28	0.050			
0.0955	6114.52	4.0770	4.0772	0.8399	24.78	-1.18	0.050			
0.0964	6168.19	4.0760	4.0757	0.8387	24.88	-1.08	0.050			
0.0972	6222.16	4.0750	4.0753	0.8352	25.01	-0.95	0.050			
0.0981	6275.40	4.0740	4.0740	0.8337	25.12	-0.84	0.050			
0.0989	6327.20	4.0730	4.0728	0.8372	25.24	-0.72	0.050			
0.0997	6379.93	4.0720	4.0720	0.8424	25.38	-0.58	0.050			
0.1005	6432.93	4.0710	4.0709	0.8455	25.51	-0.45	0.050			
0.1014	6487.71	4.0700	4.0702	0.8482	25.66	-0.30	0.050			
0.1022	6543.08	4.0690	4.0693	0.8534	25.79	-0.17	0.050			
0.1031	6597.02	4.0680	4.0679	0.8564	25.92	-0.04	0.050			
0.1039	6651.05	4.0670	4.0669	0.8649	26.05	0.09	0.050			
0.1048	6707.23	4.0660	4.0659	0.8704	26.16	0.20	0.050			
0.1057	6763.27	4.0650	4.0645	0.8771	26.26	0.30	0.050			
0.1066	6819.64	4.0640	4.0636	0.8798	26.34	0.38	0.050			
0.1074	6875.37	4.0630	4.0632	0.8841	26.37	0.41	0.050			
0.1083	6932.55	4.0620	4.0621	0.8876	26.38	0.42	0.050			
0.1092	6989.74	4.0610	4.0610	0.8910	26.32	0.36	0.050			
0.1101	7046.98	4.0600	4.0596	0.8940	26.24	0.28	0.050			
0.1110	7105.23	4.0590	4.0588	0.8976	26.16	0.20	0.050			
0.1119	7164.13	4.0580	4.0580	0.9011	26.08	0.12	0.050			
0.1129	7222.46	4.0570	4.0573	0.9053	25.99	0.03	0.050			
0.1138	7281.03	4.0560	4.0558	0.9070	25.90	-0.06	0.050			
0.1147	7340.15	4.0550	4.0551	0.9090	25.81	-0.15	0.050			
0.1156	7398.08	4.0540	4.0542	0.9096	25.73	-0.23	0.050			
0.1165	7455.09	4.0530	4.0531	0.9056	25.65	-0.31	0.050			
0.1174	7513.92	4.0520	4.0521	0.9059	25.55	-0.41	0.050			
0.1183	7572.74	4.0510	4.0510	0.9057	25.46	-0.50	0.050			
0.1192	7630.79	4.0500	4.0500	0.9054	25.38	-0.58	0.050			
0.1201	7687.87	4.0490	4.0490	0.9063	25.29	-0.67	0.050			
0.1210	7745.07	4.0480	4.0479	0.9066	25.21	-0.75	0.050			
0.1219	7802.43	4.0470	4.0472	0.9043	25.13	-0.83	0.050			
0.1228	7861.71	4.0460	4.0462	0.9068	25.05	-0.91	0.050			
0.1238	7920.10	4.0450	4.0450	0.9041	24.96	-1.00	0.050			
0.1247	7978.62	4.0440	4.0440	0.9038	24.88	-1.08	0.050			
0.1256	8036.35	4.0430	4.0430	0.9018	24.80	-1.16	0.050			
0.1265	8095.39	4.0420	4.0421	0.8987	24.74	-1.22	0.050			
0.1274	8153.08	4.0410	4.0407	0.8972	24.68	-1.28	0.050			
0.1283	8210.55	4.0400	4.0399	0.8946	24.62	-1.34	0.050			
0.1292	8267.87	4.0390	4.0392	0.8910	24.57	-1.39	0.050			
0.1301	8324.91	4.0380	4.0381	0.8891	24.51	-1.45	0.050			
0.1310	8381.08	4.0370	4.0368	0.8863	24.47	-1.49	0.050			
0.1318	8438.00	4.0360	4.0359	0.8856	24.43	-1.53	0.050			
0.1327	8495.27	4.0350	4.0351	0.8811	24.40	-1.56	0.050			
0.1336	8551.44	4.0340	4.0339	0.8770	24.38	-1.58	0.050			
0.1345	8606.28	4.0330	4.0330	0.8756	24.37	-1.59	0.050			
0.1353	8662.05	4.0320	4.0318	0.8763	24.38	-1.58	0.050			
0.1362	8718.66	4.0310	4.0311	0.8754	24.39	-1.57	0.050			
0.1371	8774.02	4.0300	4.0303	0.8707	24.41	-1.55	0.050			
0.1380	8829.04	4.0290	4.0289	0.8651	24.45	-1.51	0.050			
0.1388	8884.53	4.0280	4.0282	0.8641	24.51	-1.45	0.050			
0.1397	8940.26	4.0270	4.0271	0.8664	24.59	-1.37	0.050			
0.1406	8995.45	4.0260	4.0260	0.8659	24.67	-1.29	0.050			
0.1414	9050.15	4.0250	4.0252	0.8674	24.78	-1.18	0.050			
0.1423	9105.34	4.0240	4.0238	0.8704	24.90	-1.06	0.050			
0.1431	9160.35	4.0230	4.0231	0.8714	25.03	-0.93	0.050			
0.1440	9215.53	4.0220	4.0221	0.8742	25.17	-0.79	0.050			
0.1448	9270.35	4.0210	4.0213	0.8755	25.32	-0.64	0.050			
0.1457	9326.34	4.0200	4.0199	0.8760	25.48	-0.48	0.050			
0.1466	9383.09	4.0190	4.0189	0.8814	25.63	-0.33	0.050			
0.1475	9438.21	4.0180	4.0179	0.8860	25.79	-0.17	0.050			
0.1484	9494.56	4.0170	4.0168	0.8892	25.94	-0.02	0.050			
0.1492	9551.27	4.0160	4.0160	0.8952	26.10	0.14	0.050			
0.1501	9608.56	4.0150	4.0152	0.9017	26.24	0.28	0.050			
0.1510	9666.07	4.0140	4.0140	0.9104	26.37	0.41	0.050			
0.1520	9724.81	4.0130	4.0131	0.9130	26.49	0.53	0.050			
0.1529	9784.61	4.0120	4.0120	0.9191	26.57	0.61	0.050			
0.1538	9843.92	4.0110	4.0110	0.9258	26.62	0.66	0.050			
0.1548	9904.67	4.0100	4.0097	0.9311	26.61	0.65	0.050			
0.1557	9964.94	4.0090	4.0090	0.9360	26.54	0.58	0.050			
0.1566	10024.55	4.0080	4.0082	0.9398	26.46	0.50	0.050			
0.1576	10084.63	4.0070	4.0070	0.9427	26.37	0.41	0.050			
0.1585	10144.83	4.0060	4.0059	0.9475	26.28	0.32	0.050			
0.1595	10205.20	4.0050	4.0051	0.9516	26.19	0.23	0.050			
0.1604	10266.44	4.0040	4.0041	0.9561	26.11	0.15	0.050			
0.1614	10328.91	4.0030	4.0030	0.9592	26.02	0.06	0.050			
0.1624	10391.07	4.0020	4.0018	0.9621	25.93	-0.03	0.050			
0.1633	10453.35	4.0010	4.0009	0.9603	25.84	-0.12	0.050			
0.1643	10516.27	4.0000	3.9998	0.9625	25.75	-0.21	0.050			
0.1653	10577.36	3.9990	3.9991	0.9621	25.66	-0.30	0.050			
0.1662	10638.65	3.9980	3.9981	0.9606	25.57	-0.39	0.050			
0.1672	10700.68	3.9970	3.9968	0.9610	25.47	-0.49	0.050			
0.1682	10762.53	3.9960	3.9963	0.9589	25.39	-0.57	0.050			
0.1691	10822.90	3.9950	3.9951	0.9593	25.30	-0.66	0.050			
0.1701	10884.90	3.9940	3.9942	0.9597	25.20	-0.76	0.050			
0.1711	10947.46	3.9930	3.9931	0.9613	25.10	-0.86	0.050			
0.1720	11009.34	3.9920	3.9920	0.9624	25.00	-0.96	0.050			
0.1730	11069.59	3.9910	3.9908	0.9594	24.92	-1.04	0.050			
0.1739	11131.15	3.9900	3.9901	0.9576	24.83	-1.13	0.050			
0.1749	11191.24	3.9890	3.9890	0.9578	24.73	-1.23	0.050			
0.1758	11252.83	3.9880	3.9880	0.9567	24.63	-1.33	0.050			
0.1768	11314.01	3.9870	3.9869	0.9544	24.54	-1.42	0.050			
0.1777	11374.37	3.9860	3.9859	0.9538	24.45	-1.51	0.050			
0.1787	11435.60	3.9850	3.9849	0.9558	24.37	-1.59	0.050			
0.1796	11497.44	3.9840	3.9841	0.9563	24.29	-1.67	0.050			
0.1806	11559.57	3.9830	3.9827	0.9567	24.20	-1.76	0.050			
0.1816	11621.07	3.9820	3.9819	0.9573	24.12	-1.84	0.050			
0.1825	11682.90	3.9810	3.9811	0.9543	24.05	-1.91	0.050			
0.1835	11744.06	3.9800	3.9800	0.9506	23.99	-1.97	0.050			
0.1845	11805.11	3.9790	3.9793	0.9482	23.93	-2.03	0.050			
0.1854	11865.29	3.9780	3.9781	0.9456	23.88	-2.08	0.050			
0.1864	11926.62	3.9770	3.9767	0.9427	23.83	-2.13	0.050			
0.1873	11987.16	3.9760	3.9761	0.9386	23.81	-2.15	0.050			
0.1882	12047.39	3.9750	3.9751	0.9312	23.78	-2.18	0.050			
0.1892	12106.96	3.9740	3.9742	0.9305	23.78	-2.18	0.050			
0.1901	12166.75	3.9730	3.9731	0.9267	23.77	-2.19	0.050			
0.1910	12225.46	3.9720	3.9719	0.9211	23.79	-2.17	0.050			
0.1919	12284.18	3.9710	3.9709	0.9194	23.82	-2.14	0.050			
0.1928	12342.17	3.9700	3.9699	0.9176	23.87	-2.09	0.050			
0.1938	12400.27	3.9690	3.9691	0.9114	23.94	-2.02	0.050			
0.1947	12458.84	3.9680	3.9679	0.9086	24.02	-1.94	0.050			
0.1956	12517.08	3.9670	3.9672	0.9073	24.13	-1.83	0.050			
0.1965	12573.44	3.9660	3.9661	0.9045	24.27	-1.69	0.050			
0.1974	12630.70	3.9650	3.9648	0.9037	24.42	-1.54	0.050			
0.1983	12688.50	3.9640	3.9641	0.9028	24.59	-1.37	0.050			
0.1992	12746.32	3.9630	3.9632	0.9038	24.76	-1.20	0.050			
0.2000	12802.66	3.9620	3.9617	0.9055	24.95	-1.01	0.050			
0.2009	12859.70	3.9610	3.9612	0.9128	25.15	-0.81	0.050			
0.2018	12917.43	3.9600	3.9601	0.9159	25.37	-0.59	0.050			
0.2027	12975.49	3.9590	3.9589	0.9191	25.58	-0.38	0.050			
0.2037	13034.62	3.9580	3.9577	0.9234	25.79	-0.17	0.050			
0.2046	13093.06	3.9570	3.9570	0.9303	25.99	0.03	0.050			
0.2055	13151.79	3.9560	3.9558	0.9421	26.18	0.22	0.050			
0.2064	13211.65	3.9550	3.9549	0.9468	26.35	0.39	0.050			
0.2074	13272.54	3.9540	3.9537	0.9531	26.50	0.54	0.050			
0.2083	13334.24	3.9530	3.9531	0.9615	26.59	0.63	0.050			
0.2093	13397.04	3.9520	3.9522	0.9697	26.60	0.64	0.050			
0.2103	13459.05	3.9510	3.9507	0.9754	26.56	0.60	0.050			
0.2113	13522.27	3.9500	3.9502	0.9827	26.48	0.52	0.050			
0.2123	13585.61	3.9490	3.9488	0.9907	26.41	0.45	0.050			
0.2133	13651.24	3.9480	3.9479	0.9961	26.32	0.36	0.050			
0.2143	13715.17	3.9470	3.9471	0.9994	26.24	0.28	0.050			
0.2153	13780.69	3.9460	3.9461	1.0011	26.15	0.19	0.050			
0.2163	13845.28	3.9450	3.9450	1.0077	26.06	0.10	0.050			
0.2173	13910.35	3.9440	3.9440	1.0099	25.97	0.01	0.050			
0.2184	13975.34	3.9430	3.9430	1.0103	25.88	-0.08	0.050			
0.2194	14039.83	3.9420	3.9419	1.0093	25.79	-0.17	0.050			
0.2204	14104.89	3.9410	3.9410	1.0082	25.70	-0.26	0.050			
0.2214	14170.08	3.9400	3.9401	1.0124	25.63	-0.33	0.050			
0.2224	14236.26	3.9390	3.9393	1.0117	25.52	-0.44	0.050			
0.2234	14300.04	3.9380	3.9376	1.0095	25.44	-0.52	0.050			
0.2245	14364.97	3.9370	3.9372	1.0067	25.35	-0.61	0.050			
0.2255	14429.43	3.9360	3.9359	1.0009	25.27	-0.69	0.050			
0.2265	14493.45	3.9350	3.9350	1.0000	25.19	-0.77	0.050			
0.2275	14558.12	3.9340	3.9341	1.0009	25.11	-0.85	0.050			
0.2285	14621.56	3.9330	3.9333	0.9995	25.03	-0.93	0.050			
0.2295	14686.14	3.9320	3.9322	0.9964	24.97	-0.99	0.050			
0.2305	14749.76	3.9310	3.9308	0.9911	24.91	-1.05	0.050			
0.2315	14813.09	3.9300	3.9304	0.9896	24.84	-1.12	0.050			
0.2325	14876.81	3.9290	3.9287	0.9866	24.79	-1.17	0.050			
0.2334	14939.86	3.9280	3.9282	0.9831	24.76	-1.20	0.050			
0.2344	15002.95	3.9270	3.9269	0.9787	24.73	-1.23	0.050			
0.2354	15066.09	3.9260	3.9258	0.9740	24.70	-1.26	0.050			
0.2364	15127.76	3.9250	3.9251	0.9658	24.69	-1.27	0.050			
0.2373	15189.06	3.9240	3.9240	0.9637	24.69	-1.27	0.050			
0.2383	15250.96	3.9230	3.9231	0.9620	24.71	-1.25	0.050			
0.2392	15311.96	3.9220	3.9220	0.9591	24.75	-1.21	0.050			
0.2402	15373.13	3.9210	3.9209	0.9587	24.80	-1.16	0.050			
0.2411	15432.41	3.9200	3.9200	0.9568	24.87	-1.09	0.050			
0.2421	15494.60	3.9190	3.9189	0.9591	24.96	-1.00	0.050			
0.2430	15554.87	3.9180	3.9181	0.9562	25.09	-0.87	0.050			
0.2440	15614.13	3.9170	3.9171	0.9652	25.24	-0.72	0.050			
0.2449	15674.55	3.9160	3.9160	0.9683	25.41	-0.55	0.050			
0.2459	15734.74	3.9150	3.9147	0.9708	25.58	-0.38	0.050			
0.2468	15797.11	3.9140	3.9139	0.9760	25.76	-0.20	0.050			
0.2478	15859.98	3.9130	3.9130	0.9803	25.92	-0.04	0.050			
0.2488	15923.70	3.9120	3.9120	0.9847	26.08	0.12	0.050			
0.2498	15987.29	3.9110	3.9108	0.9928	26.22	0.26	0.050			
0.2508	16050.69	3.9100	3.9103	0.9966	26.32	0.36	0.050			
0.2518	16115.87	3.9090	3.9089	1.0028	26.40	0.44	0.050			
0.2528	16180.92	3.9080	3.9078	1.0063	26.40	0.44	0.050			
0.2538	16246.14	3.9070	3.9071	1.0138	26.33	0.37	0.050			
0.2549	16312.09	3.9060	3.9061	1.0175	26.28	0.32	0.050			
0.2559	16377.47	3.9050	3.9050	1.0213	26.20	0.24	0.050			
0.2569	16443.10	3.9040	3.9040	1.0216	26.13	0.17	0.050			
0.2579	16508.47	3.9030	3.9030	1.0279	26.07	0.11	0.050			
0.2590	16574.74	3.9020	3.9020	1.0298	26.00	0.04	0.050			
0.2600	16641.15	3.9010	3.9012	1.0291	25.95	-0.01	0.050			
0.2610	16707.09	3.9000	3.9000	1.0278	25.89	-0.07	0.050			
0.2621	16773.16	3.8990	3.8989	1.0293	25.85	-0.11	0.050			
0.2631	16838.65	3.8980	3.8980	1.0311	25.79	-0.17	0.050			
0.2641	16903.27	3.8970	3.8972	1.0280	25.76	-0.20	0.050			
0.2651	16968.98	3.8960	3.8959	1.0300	25.71	-0.25	0.050			
0.2662	17036.56	3.8950	3.8950	1.0334	25.63	-0.33	0.050			
0.2672	17103.22	3.8940	3.8944	1.0370	25.53	-0.43	0.050			
0.2683	17169.26	3.8930	3.8933	1.0390	25.43	-0.53	0.050			
0.2693	17235.07	3.8920	3.8922	1.0422	25.34	-0.62	0.050			
0.2703	17302.01	3.8910	3.8911	1.0438	25.24	-0.72	0.050			
0.2714	17369.08	3.8900	3.8898	1.0434	25.15	-0.81	0.050			
0.2724	17436.72	3.8890	3.8890	1.0423	25.05	-0.91	0.050			
0.2735	17503.43	3.8880	3.8882	1.0411	24.97	-0.99	0.050			
0.2745	17569.54	3.8870	3.8870	1.0398	24.89	-1.07	0.050			
0.2756	17636.48	3.8860	3.8865	1.0413	24.82	-1.14	0.050			
0.2766	17703.93	3.8850	3.8850	1.0403	24.75	-1.21	0.050			
0.2777	17770.46	3.8840	3.8841	1.0387	24.69	-1.27	0.050			
0.2787	17836.77	3.8830	3.8831	1.0385	24.64	-1.32	0.050			
0.2797	17903.88	3.8820	3.8822	1.0393	24.59	-1.37	0.050			
0.2808	17971.68	3.8810	3.8812	1.0391	24.56	-1.40	0.050			
0.2819	18038.48	3.8800	3.8800	1.0360	24.53	-1.43	0.050			
0.2829	18104.55	3.8790	3.8788	1.0305	24.51	-1.45	0.050			
0.2839	18170.71	3.8780	3.8780	1.0252	24.51	-1.45	0.050			
0.2850	18237.73	3.8770	3.8772	1.0210	24.53	-1.43	0.050			
0.2860	18302.84	3.8760	3.8762	1.0150	24.56	-1.40	0.050			
0.2870	18366.67	3.8750	3.8748	1.0138	24.62	-1.34	0.050			
0.2880	18429.55	3.8740	3.8740	1.0110	24.68	-1.28	0.050			
0.2890	18493.81	3.8730	3.8732	1.0116	24.78	-1.18	0.050			
0.2900	18556.87	3.8720	3.8720	1.0134	24.89	-1.07	0.050			
0.2910	18622.23	3.8710	3.8709	1.0151	25.03	-0.93	0.050			
0.2920	18687.34	3.8700	3.8701	1.0170	25.17	-0.79	0.050			
0.2930	18750.50	3.8690	3.8690	1.0219	25.33	-0.63	0.050			
0.2940	18814.56	3.8680	3.8679	1.0267	25.48	-0.48	0.050			
0.2950	18878.94	3.8670	3.8671	1.0318	25.64	-0.32	0.050			
0.2960	18943.82	3.8660	3.8660	1.0391	25.80	-0.16	0.050			
0.2970	19010.34	3.8650	3.8649	1.0480	25.96	0.00	0.050			
0.2981	19076.87	3.8640	3.8640	1.0549	26.10	0.14	0.050			
0.2991	19145.24	3.8630	3.8631	1.0599	26.24	0.28	0.050			
0.3002	19214.30	3.8620	3.8621	1.0661	26.34	0.38	0.050			
0.3013	19284.42	3.8610	3.8610	1.0742	26.41	0.45	0.050			
0.3024	19354.51	3.8600	3.8599	1.0823	26.41	0.45	0.050			
0.3035	19425.14	3.8590	3.8591	1.0882	26.34	0.38	0.050			
0.3046	19495.59	3.8580	3.8582	1.0920	26.25	0.29	0.050			
0.3057	19566.62	3.8570	3.8568	1.0951	26.15	0.19	0.050			
0.3068	19636.84	3.8560	3.8558	1.0955	26.05	0.09	0.050			
0.3079	19707.32	3.8550	3.8551	1.0939	25.95	-0.01	0.050			
0.3090	19777.43	3.8540	3.8543	1.0970	25.86	-0.10	0.050			
0.3101	19847.86	3.8530	3.8528	1.0975	25.75	-0.21	0.050			
0.3112	19918.47	3.8520	3.8516	1.0993	25.64	-0.32	0.050			
0.3123	19989.66	3.8510	3.8509	1.0999	25.54	-0.42	0.050			
0.3134	20059.91	3.8500	3.8502	1.0974	25.43	-0.53	0.050			
0.3145	20130.09	3.8490	3.8489	1.0889	25.31	-0.65	0.050			
0.3156	20200.43	3.8480	3.8479	1.0865	25.21	-0.75	0.050			
0.3167	20270.06	3.8470	3.8470	1.0838	25.10	-0.86	0.050			
0.3178	20340.23	3.8460	3.8461	1.0794	24.99	-0.97	0.050			
0.3189	20410.17	3.8450	3.8450	1.0744	24.89	-1.07	0.050			
0.3200	20480.25	3.8440	3.8440	1.0692	24.79	-1.17	0.050			
0.3211	20550.33	3.8430	3.8432	1.0632	24.69	-1.27	0.050			
0.3222	20618.46	3.8420	3.8420	1.0543	24.59	-1.37	0.050			
0.3232	20685.60	3.8410	3.8410	1.0441	24.50	-1.46	0.050			
0.3243	20752.27	3.8400	3.8400	1.0347	24.42	-1.54	0.050			
0.3253	20819.27	3.8390	3.8388	1.0233	24.33	-1.63	0.050			
0.3263	20884.76	3.8380	3.8381	1.0126	24.25	-1.71	0.050			
0.3273	20949.04	3.8370	3.8371	1.0001	24.19	-1.77	0.050			
0.3283	21013.42	3.8360	3.8360	0.9868	24.13	-1.83	0.050			
0.3293	21076.62	3.8350	3.8350	0.9717	24.09	-1.87	0.050			
0.3303	21138.02	3.8340	3.8339	0.9560	24.05	-1.91	0.050			
0.3312	21199.37	3.8330	3.8330	0.9422	24.02	-1.94	0.050			
0.3322	21260.37	3.8320	3.8319	0.9253	24.00	-1.96	0.050			
0.3331	21319.69	3.8310	3.8310	0.9098	24.00	-1.96	0.050			
0.3340	21377.28	3.8300	3.8301	0.8929	24.01	-1.95	0.050			
0.3349	21435.00	3.8290	3.8287	0.8776	24.03	-1.93	0.050			
0.3358	21489.78	3.8280	3.8282	0.8593	24.07	-1.89	0.050			
0.3366	21544.36	3.8270	3.8272	0.8420	24.11	-1.85	0.050			
0.3375	21598.32	3.8260	3.8260	0.8255	24.19	-1.77	0.050			
0.3383	21650.49	3.8250	3.8252	0.8082	24.27	-1.69	0.050			
0.3391	21701.41	3.8240	3.8240	0.7919	24.36	-1.60	0.050			
0.3399	21750.66	3.8230	3.8232	0.7749	24.48	-1.48	0.050			
0.3406	21799.22	3.8220	3.8220	0.7602	24.61	-1.35	0.050			
0.3413	21846.10	3.8210	3.8207	0.7439	24.74	-1.22	0.050			
0.3421	21892.29	3.8200	3.8201	0.7325	24.88	-1.08	0.050			
0.3428	21938.18	3.8190	3.8191	0.7205	25.04	-0.92	0.050			
0.3435	21982.67	3.8180	3.8178	0.7078	25.18	-0.78	0.050			
0.3442	22027.48	3.8170	3.8171	0.6997	25.35	-0.61	0.050			
0.3449	22070.69	3.8160	3.8159	0.6903	25.51	-0.45	0.050			
0.3455	22113.98	3.8150	3.8150	0.6822	25.68	-0.28	0.050			
0.3462	22156.96	3.8140	3.8141	0.6762	25.83	-0.13	0.050			
0.3469	22198.85	3.8130	3.8130	0.6715	25.99	0.03	0.050			
0.3475	22240.71	3.8120	3.8120	0.6674	26.15	0.19	0.050			
0.3482	22282.91	3.8110	3.8109	0.6643	26.30	0.34	0.050			
0.3488	22324.60	3.8100	3.8101	0.6595	26.45	0.49	0.050			
0.3495	22366.05	3.8090	3.8091	0.6569	26.58	0.62	0.050			
0.3501	22407.97	3.8080	3.8078	0.6550	26.71	0.75	0.050			
0.3508	22449.64	3.8070	3.8070	0.6530	26.81	0.85	0.050			
0.3514	22491.61	3.8060	3.8058	0.6536	26.92	0.96	0.050			
0.3521	22532.60	3.8050	3.8051	0.6549	26.99	1.03	0.050			
0.3527	22574.22	3.8040	3.8039	0.6538	27.04	1.08	0.050			
0.3534	22615.71	3.8030	3.8031	0.6540	27.05	1.09	0.050			
0.3540	22657.44	3.8020	3.8021	0.6544	27.03	1.07	0.050			
0.3547	22698.72	3.8010	3.8011	0.6570	26.97	1.01	0.050			
0.3553	22740.55	3.8000	3.7998	0.6591	26.91	0.95	0.050			
0.3560	22782.00	3.7990	3.7987	0.6619	26.85	0.89	0.050			
0.3566	22823.68	3.7980	3.7982	0.6699	26.80	0.84	0.050			
0.3573	22865.97	3.7970	3.7969	0.6746	26.75	0.79	0.050			
0.3580	22908.94	3.7960	3.7959	0.6787	26.69	0.73	0.050			
0.3586	22951.77	3.7950	3.7951	0.6856	26.63	0.67	0.050			
0.3593	22995.27	3.7940	3.7940	0.6929	26.56	0.60	0.050			
0.3600	23039.37	3.7930	3.7929	0.6991	26.51	0.55	0.050			
0.3607	23083.18	3.7920	3.7919	0.7094	26.45	0.49	0.050			
0.3614	23128.49	3.7910	3.7913	0.7208	26.37	0.41	0.050			
0.3621	23175.03	3.7900	3.7899	0.7308	26.31	0.35	0.050			
0.3628	23221.86	3.7890	3.7888	0.7420	26.24	0.28	0.050			
0.3636	23269.70	3.7880	3.7880	0.7518	26.17	0.21	0.050			
0.3644	23318.52	3.7870	3.7869	0.7619	26.09	0.13	0.050			
0.3651	23367.57	3.7860	3.7858	0.7719	26.02	0.06	0.050			
0.3659	23416.99	3.7850	3.7850	0.7827	25.95	-0.01	0.050			
0.3667	23466.85	3.7840	3.7841	0.7953	25.87	-0.09	0.050			
0.3675	23519.18	3.7830	3.7829	0.8081	25.80	-0.16	0.050			
0.3683	23571.22	3.7820	3.7824	0.8186	25.73	-0.23	0.050			
0.3691	23623.64	3.7810	3.7813	0.8306	25.65	-0.31	0.050			
0.3700	23676.92	3.7800	3.7798	0.8409	25.57	-0.39	0.050			
0.3708	23731.06	3.7790	3.7791	0.8538	25.49	-0.47	0.050			
0.3717	23785.88	3.7780	3.7781	0.8637	25.40	-0.56	0.050			
0.3725	23842.10	3.7770	3.7770	0.8747	25.31	-0.65	0.050			
0.3734	23899.00	3.7760	3.7759	0.8854	25.22	-0.74	0.050			
0.3743	23955.62	3.7750	3.7749	0.8980	25.14	-0.82	0.050			
0.3752	24013.11	3.7740	3.7742	0.9083	25.05	-0.91	0.050			
0.3761	24072.59	3.7730	3.7730	0.9178	24.95	-1.01	0.050			
0.3770	24131.10	3.7720	3.7718	0.9276	24.87	-1.09	0.050			
0.3780	24190.37	3.7710	3.7713	0.9400	24.78	-1.18	0.050			
0.3789	24251.16	3.7700	3.7700	0.9531	24.68	-1.28	0.050			
0.3799	24312.43	3.7690	3.7694	0.9640	24.59	-1.37	0.050			
0.3809	24374.76	3.7680	3.7679	0.9748	24.48	-1.48	0.050			
0.3818	24437.45	3.7670	3.7670	0.9870	24.39	-1.57	0.050			
0.3828	24500.84	3.7660	3.7657	0.9969	24.28	-1.68	0.050			
0.3838	24564.34	3.7650	3.7652	1.0063	24.18	-1.78	0.050			
0.3848	24628.97	3.7640	3.7639	1.0182	24.08	-1.88	0.050			
0.3859	24695.79	3.7630	3.7627	1.0265	23.97	-1.99	0.050			
0.3869	24763.74	3.7620	3.7620	1.0306	23.87	-2.09	0.050			
0.3880	24829.53	3.7610	3.7609	1.0386	23.80	-2.16	0.050			
0.3890	24895.95	3.7600	3.7601	1.0503	23.73	-2.23	0.050			
0.3901	24963.66	3.7590	3.7590	1.0585	23.67	-2.29	0.050			
0.3911	25032.39	3.7580	3.7579	1.0677	23.61	-2.35	0.050			
0.3922	25100.87	3.7570	3.7571	1.0763	23.56	-2.40	0.050			
0.3933	25170.59	3.7560	3.7561	1.0815	23.54	-2.42	0.050			
0.3944	25240.16	3.7550	3.7550	1.0860	23.54	-2.42	0.050			
0.3955	25309.51	3.7540	3.7542	1.0968	23.56	-2.40	0.050			
0.3966	25379.89	3.7530	3.7527	1.1029	23.60	-2.36	0.050			
0.3977	25449.82	3.7520	3.7519	1.1097	23.67	-2.29	0.050			
0.3987	25519.67	3.7510	3.7511	1.1195	23.76	-2.20	0.050			
0.3999	25591.44	3.7500	3.7500	1.1299	23.88	-2.08	0.050			
0.4010	25663.68	3.7490	3.7490	1.1398	24.05	-1.91	0.050			
0.4021	25735.68	3.7480	3.7481	1.1523	24.26	-1.70	0.050			
0.4033	25808.48	3.7470	3.7471	1.1651	24.49	-1.47	0.050			
0.4044	25882.81	3.7460	3.7459	1.1818	24.76	-1.20	0.050			
0.4056	25958.93	3.7450	3.7447	1.1956	25.06	-0.90	0.050			
0.4068	26036.29	3.7440	3.7440	1.2105	25.39	-0.57	0.050			
0.4080	26113.65	3.7430	3.7428	1.2278	25.73	-0.23	0.050			
0.4093	26193.04	3.7420	3.7419	1.2439	26.08	0.12	0.050			
0.4105	26272.27	3.7410	3.7411	1.2538	26.43	0.47	0.050			
0.4118	26353.85	3.7400	3.7400	1.2658	26.74	0.78	0.050			
0.4131	26436.55	3.7390	3.7388	1.2830	27.01	1.05	0.050			
0.4144	26519.91	3.7380	3.7379	1.2966	27.19	1.23	0.050			
0.4157	26604.18	3.7370	3.7372	1.3103	27.21	1.25	0.050			
0.4170	26689.50	3.7360	3.7359	1.3253	27.10	1.14	0.050			
0.4184	26774.84	3.7350	3.7348	1.3366	27.01	1.05	0.050			
0.4197	26861.03	3.7340	3.7340	1.3451	26.90	0.94	0.050			
0.4211	26947.88	3.7330	3.7330	1.3576	26.81	0.85	0.050			
0.4224	27035.33	3.7320	3.7322	1.3664	26.70	0.74	0.050			
0.4238	27122.07	3.7310	3.7311	1.3784	26.60	0.64	0.050			
0.4252	27210.81	3.7300	3.7300	1.3885	26.49	0.53	0.050			
0.4266	27299.97	3.7290	3.7292	1.3960	26.40	0.44	0.050			
0.4280	27389.17	3.7280	3.7279	1.4033	26.29	0.33	0.050			
0.4294	27478.80	3.7270	3.7270	1.4158	26.20	0.24	0.050			
0.4308	27568.85	3.7260	3.7261	1.4291	26.10	0.14	0.050			
0.4322	27660.84	3.7250	3.7250	1.4436	26.01	0.05	0.050			
0.4336	27753.49	3.7240	3.7240	1.4538	25.94	-0.02	0.050			
0.4351	27846.36	3.7230	3.7231	1.4654	25.88	-0.08	0.050			
0.4366	27941.16	3.7220	3.7220	1.4794	25.75	-0.21	0.050			
0.4381	28036.90	3.7210	3.7209	1.4926	25.60	-0.36	0.050			
0.4396	28132.55	3.7200	3.7200	1.5053	25.46	-0.50	0.050			
0.4411	28229.17	3.7190	3.7190	1.5152	25.30	-0.66	0.050			
0.4426	28326.86	3.7180	3.7180	1.5295	25.14	-0.82	0.050			
0.4442	28426.70	3.7170	3.7169	1.5373	24.98	-0.98	0.050			
0.4457	28525.19	3.7160	3.7161	1.5470	24.82	-1.14	0.050			
0.4473	28625.05	3.7150	3.7148	1.5579	24.66	-1.30	0.050			
0.4488	28725.55	3.7140	3.7138	1.5685	24.49	-1.47	0.050			
0.4504	28825.29	3.7130	3.7130	1.5807	24.33	-1.63	0.050			
0.4520	28928.05	3.7120	3.7119	1.5887	24.17	-1.79	0.050			
0.4536	29030.15	3.7110	3.7111	1.5967	24.02	-1.94	0.050			
0.4552	29133.63	3.7100	3.7101	1.6072	23.87	-2.09	0.050			
0.4568	29237.81	3.7090	3.7089	1.6112	23.75	-2.21	0.050			
0.4584	29338.51	3.7080	3.7080	1.6245	23.65	-2.31	0.050			
0.4600	29441.31	3.7070	3.7068	1.6310	23.58	-2.38	0.050			
0.4616	29543.31	3.7060	3.7061	1.6505	23.55	-2.41	0.050			
0.4633	29648.65	3.7050	3.7050	1.6665	23.57	-2.39	0.050			
0.4649	29754.98	3.7040	3.7041	1.6841	23.64	-2.32	0.050			
0.4666	29861.12	3.7030	3.7032	1.7033	23.76	-2.20	0.050			
0.4683	29968.46	3.7020	3.7019	1.7275	23.96	-2.00	0.050			
0.4700	30077.47	3.7010	3.7010	1.7473	24.26	-1.70	0.050			
0.4717	30189.67	3.7000	3.6997	1.7736	24.64	-1.32	0.050			
0.4735	30304.17	3.6990	3.6988	1.8000	25.11	-0.85	0.050			
0.4753	30419.47	3.6980	3.6977	1.8271	25.64	-0.32	0.050			
0.4772	30538.11	3.6970	3.6967	1.8556	26.20	0.24	0.050			
0.4790	30657.56	3.6960	3.6961	1.8758	26.73	0.77	0.050			
0.4809	30779.13	3.6950	3.6951	1.9043	27.18	1.22	0.050			
0.4828	30901.59	3.6940	3.6939	1.9339	27.46	1.50	0.050			
0.4848	31028.95	3.6930	3.6929	1.9615	27.37	1.41	0.050			
0.4868	31156.78	3.6920	3.6920	1.9905	27.23	1.27	0.050			
0.4888	31286.09	3.6910	3.6910	2.0119	27.06	1.10	0.050			
0.4909	31415.63	3.6900	3.6900	2.0371	26.91	0.95	0.050			
0.4929	31543.64	3.6890	3.6891	2.0634	26.74	0.78	0.050			
0.4949	31675.43	3.6880	3.6879	2.0843	26.57	0.61	0.050			
0.4970	31810.90	3.6870	3.6869	2.1086	26.38	0.42	0.050			
0.4992	31947.20	3.6860	3.6859	2.1307	26.18	0.22	0.050			
0.5013	32084.80	3.6850	3.6851	2.1544	25.98	0.02	0.050			
0.5035	32223.83	3.6840	3.6842	2.1748	25.79	-0.17	0.050			
0.5056	32361.45	3.6830	3.6829	2.2019	25.57	-0.39	0.050			
0.5079	32504.60	3.6820	3.6823	2.2239	25.36	-0.60	0.050			
0.5101	32648.11	3.6810	3.6809	2.2454	25.13	-0.83	0.050			
0.5124	32793.72	3.6800	3.6799	2.2703	24.90	-1.06	0.050			
0.5147	32941.60	3.6790	3.6793	2.2895	24.64	-1.32	0.050			
0.5170	33090.24	3.6780	3.6782	2.3057	24.34	-1.62	0.050			
0.5194	33239.83	3.6770	3.6767	2.3227	24.03	-1.93	0.050			
0.5217	33389.06	3.6760	3.6761	2.3402	23.69	-2.27	0.050			
0.5240	33539.04	3.6750	3.6749	2.3568	23.35	-2.61	0.050			
0.5264	33689.85	3.6740	3.6742	2.3787	23.03	-2.93	0.050			
0.5288	33842.30	3.6730	3.6732	2.4011	22.80	-3.16	0.050			
0.5312	33994.99	3.6720	3.6718	2.4200	22.68	-3.28	0.050			
0.5336	34147.68	3.6710	3.6712	2.4473	22.69	-3.27	0.050			
0.5360	34301.38	3.6700	3.6701	2.4726	22.87	-3.09	0.050			
0.5384	34456.50	3.6690	3.6691	2.5104	23.23	-2.73	0.050			
0.5409	34618.79	3.6680	3.6679	2.5486	23.84	-2.12	0.050			
0.5435	34780.93	3.6670	3.6670	2.5868	24.66	-1.30	0.050			
0.5460	34944.15	3.6660	3.6660	2.6313	25.60	-0.36	0.050			
0.5486	35111.68	3.6650	3.6649	2.6715	26.56	0.60	0.050			
0.5513	35281.62	3.6640	3.6641	2.7180	27.31	1.35	0.050			
0.5540	35457.37	3.6630	3.6630	2.7694	27.55	1.59	0.050			
0.5568	35636.07	3.6620	3.6617	2.8169	27.40	1.44	0.050			
0.5597	35820.33	3.6610	3.6608	2.8593	27.24	1.28	0.050			
0.5627	36010.26	3.6600	3.6600	2.8984	27.07	1.11	0.050			
0.5656	36197.26	3.6590	3.6590	2.9343	26.90	0.94	0.050			
0.5686	36388.56	3.6580	3.6580	2.9676	26.75	0.79	0.050			
0.5716	36580.38	3.6570	3.6568	3.0021	26.62	0.66	0.050			
0.5746	36773.64	3.6560	3.6560	3.0396	26.50	0.54	0.050			
0.5776	36968.35	3.6550	3.6552	3.0686	26.42	0.46	0.050			
0.5808	37168.06	3.6540	3.6539	3.0880	26.23	0.27	0.050			
0.5838	37366.01	3.6530	3.6529	3.1096	26.00	0.04	0.050			
0.5870	37567.38	3.6520	3.6521	3.1273	25.75	-0.21	0.050			
0.5901	37767.06	3.6510	3.6510	3.1555	25.48	-0.48	0.050			
0.5933	37970.18	3.6500	3.6500	3.1782	25.20	-0.76	0.050			
0.5965	38176.26	3.6490	3.6490	3.1918	24.92	-1.04	0.050			
0.5997	38381.08	3.6480	3.6482	3.2117	24.66	-1.30	0.050			
0.6030	38589.55	3.6470	3.6469	3.2259	24.42	-1.54	0.050			
0.6063	38801.06	3.6460	3.6461	3.2336	24.24	-1.72	0.050			
0.6095	39007.06	3.6450	3.6449	3.2351	24.14	-1.82	0.050			
0.6127	39211.81	3.6440	3.6441	3.2514	24.16	-1.80	0.050			
0.6159	39420.31	3.6430	3.6430	3.2627	24.38	-1.58	0.050			
0.6192	39626.68	3.6420	3.6421	3.2728	24.84	-1.12	0.050			
0.6224	39835.67	3.6410	3.6411	3.3010	25.45	-0.51	0.050			
0.6257	40045.73	3.6400	3.6398	3.3382	26.06	0.10	0.050			
0.6291	40260.30	3.6390	3.6388	3.3634	26.48	0.52	0.050			
0.6325	40477.80	3.6380	3.6378	3.3586	26.31	0.35	0.050			
0.6359	40697.36	3.6370	3.6369	3.3391	26.01	0.05	0.050			
0.6394	40920.44	3.6360	3.6360	3.3250	25.71	-0.25	0.050			
0.6428	41141.84	3.6350	3.6348	3.2840	25.44	-0.52	0.050			
0.6463	41363.87	3.6340	3.6339	3.2306	25.21	-0.75	0.050			
0.6497	41580.16	3.6330	3.6331	3.1807	25.04	-0.92	0.050			
0.6528	41780.72	3.6320	3.6323	3.0869	24.97	-0.99	0.050			
0.6558	41971.58	3.6310	3.6309	2.9792	25.00	-0.96	0.050			
0.6586	42152.31	3.6300	3.6299	2.8820	25.14	-0.82	0.050			
0.6614	42326.65	3.6290	3.6292	2.7958	25.43	-0.53	0.050			
0.6639	42490.69	3.6280	3.6282	2.7088	25.87	-0.09	0.050			
0.6664	42651.81	3.6270	3.6272	2.6446	26.34	0.38	0.050			
0.6689	42810.18	3.6260	3.6260	2.5927	26.68	0.72	0.050			
0.6714	42967.41	3.6250	3.6253	2.5630	26.79	0.83	0.050			
0.6738	43121.62	3.6240	3.6239	2.5488	26.63	0.67	0.050			
0.6762	43277.41	3.6230	3.6231	2.5440	26.43	0.47	0.050			
0.6787	43435.93	3.6220	3.6220	2.5390	26.23	0.27	0.050			
0.6812	43599.01	3.6210	3.6209	2.5335	26.00	0.04	0.050			
0.6838	43765.87	3.6200	3.6197	2.5125	25.78	-0.18	0.050			
0.6865	43934.52	3.6190	3.6189	2.4849	25.55	-0.41	0.050			
0.6891	44102.73	3.6180	3.6180	2.4507	25.31	-0.65	0.050			
0.6917	44270.38	3.6170	3.6172	2.4034	25.06	-0.90	0.050			
0.6943	44437.84	3.6160	3.6159	2.3455	24.80	-1.16	0.050			
0.6969	44598.55	3.6150	3.6150	2.2707	24.54	-1.42	0.050			
0.6992	44747.57	3.6140	3.6142	2.1775	24.28	-1.68	0.050			
0.7014	44890.67	3.6130	3.6131	2.0763	23.98	-1.98	0.050			
0.7036	45030.65	3.6120	3.6125	1.9725	23.71	-2.25	0.050			
0.7056	45158.20	3.6110	3.6113	1.8634	23.46	-2.50	0.050			
0.7074	45274.51	3.6100	3.6102	1.7552	23.24	-2.72	0.050			
0.7091	45379.78	3.6090	3.6092	1.6502	23.07	-2.89	0.050			
0.7106	45477.75	3.6080	3.6078	1.5400	22.96	-3.00	0.050			
0.7119	45559.35	3.6070	3.6069	1.4433	22.90	-3.06	0.050			
0.7131	45639.45	3.6060	3.6057	1.3509	22.87	-3.09	0.050			
0.7142	45707.14	3.6050	3.6048	1.2849	22.88	-3.08	0.050			
0.7153	45776.67	3.6040	3.6041	1.2166	22.91	-3.05	0.050			
0.7163	45841.12	3.6030	3.6028	1.1641	22.96	-3.00	0.050			
0.7173	45906.63	3.6020	3.6020	1.1286	23.04	-2.92	0.050			
0.7183	45971.43	3.6010	3.6007	1.1000	23.15	-2.81	0.050			
0.7193	46035.34	3.6000	3.5999	1.0783	23.29	-2.67	0.050			
0.7203	46101.16	3.5990	3.5989	1.0684	23.47	-2.49	0.050			
0.7213	46166.14	3.5980	3.5979	1.0641	23.69	-2.27	0.050			
0.7224	46231.86	3.5970	3.5968	1.0592	23.93	-2.03	0.050			
0.7234	46297.06	3.5960	3.5959	1.0599	24.23	-1.73	0.050			
0.7244	46361.12	3.5950	3.5951	1.0684	24.54	-1.42	0.050			
0.7254	46426.95	3.5940	3.5942	1.0795	24.88	-1.08	0.050			
0.7265	46494.82	3.5930	3.5930	1.0986	25.26	-0.70	0.050			
0.7275	46562.69	3.5920	3.5921	1.1216	25.64	-0.32	0.050			
0.7286	46630.92	3.5910	3.5910	1.1441	26.02	0.06	0.050			
0.7297	46702.94	3.5900	3.5901	1.1666	26.42	0.46	0.050			
0.7309	46776.69	3.5890	3.5889	1.1939	26.79	0.83	0.050			
0.7321	46853.70	3.5880	3.5881	1.2227	27.12	1.16	0.050			
0.7334	46934.55	3.5870	3.5869	1.2440	27.38	1.42	0.050			
0.7346	47016.06	3.5860	3.5857	1.2704	27.51	1.55	0.050			
0.7360	47100.81	3.5850	3.5851	1.2871	27.46	1.50	0.050			
0.7373	47188.56	3.5840	3.5840	1.2998	27.40	1.44	0.050			
0.7387	47278.49	3.5830	3.5828	1.3074	27.32	1.36	0.050			
0.7401	47366.31	3.5820	3.5821	1.3166	27.26	1.30	0.050			
0.7415	47456.09	3.5810	3.5811	1.3172	27.18	1.22	0.050			
0.7429	47545.31	3.5800	3.5799	1.3129	27.10	1.14	0.050			
0.7443	47633.42	3.5790	3.5791	1.3076	27.03	1.07	0.050			
0.7456	47720.53	3.5780	3.5781	1.2922	26.94	0.98	0.050			
0.7469	47804.75	3.5770	3.5767	1.2690	26.86	0.90	0.050			
0.7482	47887.32	3.5760	3.5763	1.2460	26.79	0.83	0.050			
0.7495	47966.74	3.5750	3.5750	1.2182	26.72	0.76	0.050			
0.7507	48043.91	3.5740	3.5740	1.1885	26.65	0.69	0.050			
0.7518	48116.57	3.5730	3.5731	1.1656	26.58	0.62	0.050			
0.7529	48187.94	3.5720	3.5719	1.1381	26.51	0.55	0.050			
0.7540	48256.99	3.5710	3.5710	1.1173	26.45	0.49	0.050			
0.7551	48325.71	3.5700	3.5701	1.1019	26.39	0.43	0.050			
0.7561	48391.81	3.5690	3.5690	1.0802	26.32	0.36	0.050			
0.7572	48458.25	3.5680	3.5679	1.0709	26.27	0.31	0.050			
0.7582	48523.78	3.5670	3.5669	1.0656	26.22	0.26	0.050			
0.7592	48588.19	3.5660	3.5662	1.0604	26.16	0.20	0.050			
0.7602	48654.91	3.5650	3.5652	1.0616	26.11	0.15	0.050			
0.7612	48719.94	3.5640	3.5639	1.0668	26.07	0.11	0.050			
0.7623	48786.47	3.5630	3.5631	1.0700	26.03	0.07	0.050			
0.7634	48855.42	3.5620	3.5621	1.0739	26.00	0.04	0.050			
0.7644	48923.08	3.5610	3.5609	1.0759	25.92	-0.04	0.050			
0.7655	48991.91	3.5600	3.5601	1.0809	25.82	-0.14	0.050			
0.7666	49061.50	3.5590	3.5588	1.0868	25.74	-0.22	0.050			
0.7677	49132.81	3.5580	3.5579	1.0961	25.64	-0.32	0.050			
0.7688	49205.00	3.5570	3.5569	1.1013	25.55	-0.41	0.050			
0.7699	49276.76	3.5560	3.5560	1.1067	25.45	-0.51	0.050			
0.7711	49348.94	3.5550	3.5552	1.1117	25.35	-0.61	0.050			
0.7722	49420.66	3.5540	3.5543	1.1126	25.25	-0.71	0.050			
0.7733	49492.50	3.5530	3.5530	1.1116	25.15	-0.81	0.050			
0.7745	49565.18	3.5520	3.5519	1.1112	25.05	-0.91	0.050			
0.7756	49638.04	3.5510	3.5509	1.1087	24.94	-1.02	0.050			
0.7767	49709.63	3.5500	3.5499	1.1054	24.85	-1.11	0.050			
0.7778	49780.81	3.5490	3.5491	1.1005	24.75	-1.21	0.050			
0.7789	49851.33	3.5480	3.5479	1.0909	24.65	-1.31	0.050			
0.7800	49920.69	3.5470	3.5467	1.0834	24.56	-1.40	0.050			
0.7811	49990.08	3.5460	3.5462	1.0747	24.46	-1.50	0.050			
0.7822	50058.85	3.5450	3.5450	1.0685	24.38	-1.58	0.050			
0.7832	50126.35	3.5440	3.5443	1.0603	24.29	-1.67	0.050			
0.7843	50194.73	3.5430	3.5431	1.0564	24.21	-1.75	0.050			
0.7853	50262.24	3.5420	3.5422	1.0548	24.13	-1.83	0.050			
0.7864	50328.18	3.5410	3.5409	1.0509	24.07	-1.89	0.050			
0.7874	50394.26	3.5400	3.5400	1.0446	24.00	-1.96	0.050			
0.7884	50460.30	3.5390	3.5392	1.0401	23.95	-2.01	0.050			
0.7895	50525.92	3.5380	3.5379	1.0364	23.90	-2.06	0.050			
0.7905	50591.50	3.5370	3.5372	1.0357	23.87	-2.09	0.050			
0.7915	50655.00	3.5360	3.5359	1.0321	23.85	-2.11	0.050			
0.7925	50721.10	3.5350	3.5349	1.0342	23.83	-2.13	0.050			
0.7936	50787.81	3.5340	3.5341	1.0338	23.83	-2.13	0.050			
0.7946	50855.10	3.5330	3.5329	1.0318	23.86	-2.10	0.050			
0.7957	50921.67	3.5320	3.5321	1.0313	23.88	-2.08	0.050			
0.7967	50988.37	3.5310	3.5311	1.0297	23.94	-2.02	0.050			
0.7977	51053.58	3.5300	3.5300	1.0312	24.02	-1.94	0.050			
0.7987	51119.56	3.5290	3.5289	1.0335	24.13	-1.83	0.050			
0.7998	51185.62	3.5280	3.5280	1.0375	24.25	-1.71	0.050			
0.8008	51251.22	3.5270	3.5275	1.0387	24.43	-1.53	0.050			
0.8018	51317.80	3.5260	3.5262	1.0435	24.63	-1.33	0.050			
0.8028	51382.12	3.5250	3.5251	1.0486	24.85	-1.11	0.050			
0.8039	51447.39	3.5240	3.5242	1.0570	25.09	-0.87	0.050			
0.8049	51510.86	3.5230	3.5228	1.0737	25.35	-0.61	0.050			
0.8059	51576.05	3.5220	3.5221	1.0879	25.62	-0.34	0.050			
0.8069	51642.99	3.5210	3.5208	1.1069	25.90	-0.06	0.050			
0.8080	51711.33	3.5200	3.5202	1.1370	26.19	0.23	0.050			
0.8091	51782.10	3.5190	3.5189	1.1623	26.48	0.52	0.050			
0.8102	51854.84	3.5180	3.5180	1.1965	26.75	0.79	0.050			
0.8114	51929.42	3.5170	3.5172	1.2300	26.99	1.03	0.050			
0.8126	52006.26	3.5160	3.5159	1.2707	27.17	1.21	0.050			
0.8139	52087.26	3.5150	3.5151	1.3170	27.25	1.29	0.050			
0.8152	52172.34	3.5140	3.5138	1.3637	27.17	1.21	0.050			
0.8166	52261.05	3.5130	3.5128	1.4135	27.09	1.13	0.050			
0.8180	52350.70	3.5120	3.5119	1.4634	26.99	1.03	0.050			
0.8195	52445.43	3.5110	3.5110	1.5152	26.89	0.93	0.050			
0.8210	52543.75	3.5100	3.5100	1.5658	26.79	0.83	0.050			
0.8226	52645.16	3.5090	3.5091	1.6226	26.67	0.71	0.050			
0.8242	52751.59	3.5080	3.5080	1.6783	26.54	0.58	0.050			
0.8260	52861.35	3.5070	3.5071	1.7338	26.40	0.44	0.050			
0.8277	52973.58	3.5060	3.5059	1.7896	26.27	0.31	0.050			
0.8295	53088.63	3.5050	3.5050	1.8455	26.11	0.15	0.050			
0.8314	53208.97	3.5040	3.5039	1.8997	25.95	-0.01	0.050			
0.8333	53329.55	3.5030	3.5029	1.9607	25.78	-0.18	0.050			
0.8352	53455.99	3.5020	3.5021	2.0238	25.61	-0.35	0.050			
0.8373	53587.13	3.5010	3.5011	2.0841	25.42	-0.54	0.050			
0.8394	53723.43	3.5000	3.4998	2.1421	25.22	-0.74	0.050			
0.8416	53865.52	3.4990	3.4989	2.1936	25.00	-0.96	0.050			
0.8439	54011.07	3.4980	3.4979	2.2373	24.79	-1.17	0.050			
0.8463	54161.43	3.4970	3.4970	2.2732	24.52	-1.44	0.050			
0.8487	54314.96	3.4960	3.4958	2.2991	24.23	-1.73	0.050			
0.8512	54474.32	3.4950	3.4947	2.3086	23.90	-2.06	0.050			
0.8536	54631.74	3.4940	3.4939	2.3039	23.56	-2.40	0.050			
0.8560	54787.01	3.4930	3.4933	2.2951	23.25	-2.71	0.050			
0.8585	54943.02	3.4920	3.4922	2.2695	23.01	-2.95	0.050			
0.8609	55099.00	3.4910	3.4916	2.2402	22.87	-3.09	0.050			
0.8633	55248.28	3.4900	3.4902	2.1934	22.84	-3.12	0.050			
0.8656	55395.80	3.4890	3.4892	2.1436	22.95	-3.01	0.050			
0.8678	55536.02	3.4880	3.4882	2.0798	23.20	-2.76	0.050			
0.8698	55669.61	3.4870	3.4870	2.0053	23.59	-2.37	0.050			
0.8719	55799.40	3.4860	3.4860	1.9286	24.10	-1.86	0.050			
0.8738	55920.78	3.4850	3.4851	1.8471	24.70	-1.26	0.050			
0.8755	56034.49	3.4840	3.4838	1.7583	25.32	-0.64	0.050			
0.8772	56140.05	3.4830	3.4827	1.6663	25.89	-0.07	0.050			
0.8788	56243.29	3.4820	3.4819	1.5786	26.44	0.48	0.050			
0.8803	56341.00	3.4810	3.4810	1.4897	26.90	0.94	0.050			
0.8818	56433.88	3.4800	3.4799	1.4053	27.22	1.26	0.050			
0.8832	56521.65	3.4790	3.4791	1.3222	27.38	1.42	0.050			
0.8844	56604.33	3.4780	3.4782	1.2409	27.35	1.39	0.050			
0.8857	56681.97	3.4770	3.4771	1.1601	27.27	1.31	0.050			
0.8868	56754.34	3.4760	3.4762	1.0831	27.21	1.25	0.050			
0.8878	56821.72	3.4750	3.4752	1.0118	27.16	1.20	0.050			
0.8888	56885.10	3.4740	3.4742	0.9305	27.11	1.15	0.050			
0.8897	56939.72	3.4730	3.4731	0.8640	27.06	1.10	0.050			
0.8904	56986.89	3.4720	3.4719	0.8008	27.03	1.07	0.050			
0.8911	57028.13	3.4710	3.4707	0.7448	27.00	1.04	0.050			
0.8917	57069.96	3.4700	3.4697	0.6796	26.96	1.00	0.050			
0.8922	57103.85	3.4690	3.4686	0.6326	26.94	0.98	0.050			
0.8927	57135.01	3.4680	3.4678	0.5753	26.91	0.95	0.050			
0.8932	57164.08	3.4670	3.4668	0.5412	26.89	0.93	0.050			
0.8937	57195.26	3.4660	3.4657	0.5071	26.86	0.90	0.050			
0.8941	57220.71	3.4650	3.4649	0.4797	26.84	0.88	0.050			
0.8945	57247.42	3.4640	3.4639	0.4534	26.82	0.86	0.050			
0.8949	57273.80	3.4630	3.4632	0.4382	26.80	0.84	0.050			
0.8953	57299.52	3.4620	3.4618	0.4233	26.77	0.81	0.050			
0.8957	57326.15	3.4610	3.4614	0.4104	26.75	0.79	0.050			
0.8961	57350.55	3.4600	3.4601	0.3993	26.74	0.78	0.050			
0.8965	57374.65	3.4590	3.4590	0.3857	26.72	0.76	0.050			
0.8969	57398.41	3.4580	3.4580	0.3783	26.70	0.74	0.050			
0.8972	57421.83	3.4570	3.4570	0.3685	26.68	0.72	0.050			
0.8976	57443.76	3.4560	3.4561	0.3615	26.66	0.70	0.050			
0.8979	57466.11	3.4550	3.4548	0.3536	26.65	0.69	0.050			
0.8983	57488.40	3.4540	3.4540	0.3478	26.63	0.67	0.050			
0.8986	57509.86	3.4530	3.4530	0.3407	26.61	0.65	0.050			
0.8989	57530.92	3.4520	3.4521	0.3344	26.60	0.64	0.050			
0.8992	57551.93	3.4510	3.4509	0.3289	26.58	0.62	0.050			
0.8996	57572.84	3.4500	3.4499	0.3243	26.57	0.61	0.050			
0.8999	57593.33	3.4490	3.4489	0.3206	26.55	0.59	0.050			
0.9002	57613.71	3.4480	3.4480	0.3162	26.54	0.58	0.050			
0.9005	57633.11	3.4470	3.4469	0.3125	26.53	0.57	0.050			
0.9008	57652.99	3.4460	3.4460	0.3089	26.52	0.56	0.050			
0.9011	57672.03	3.4450	3.4451	0.3064	26.51	0.55	0.050			
0.9014	57691.55	3.4440	3.4442	0.3036	26.50	0.54	0.050			
0.9017	57710.42	3.4430	3.4429	0.3019	26.48	0.52	0.050			
0.9020	57729.16	3.4420	3.4420	0.2985	26.46	0.50	0.050			
0.9023	57748.39	3.4410	3.4411	0.2962	26.44	0.48	0.050			
0.9026	57767.32	3.4400	3.4397	0.2943	26.43	0.47	0.050			
0.9029	57786.10	3.4390	3.4389	0.2923	26.42	0.46	0.050			
0.9032	57804.85	3.4380	3.4378	0.2880	26.41	0.45	0.050			
0.9035	57823.21	3.4370	3.4370	0.2858	26.40	0.44	0.050			
0.9038	57841.22	3.4360	3.4360	0.2837	26.40	0.44	0.050			
0.9041	57859.31	3.4350	3.4350	0.2817	26.39	0.43	0.050			
0.9043	57877.17	3.4340	3.4341	0.2796	26.38	0.42	0.050			
0.9046	57895.00	3.4330	3.4331	0.2777	26.37	0.41	0.050			
0.9049	57913.43	3.4320	3.4319	0.2771	26.36	0.40	0.050			
0.9052	57930.76	3.4310	3.4313	0.2756	26.35	0.39	0.050			
0.9054	57948.34	3.4300	3.4303	0.2735	26.34	0.38	0.050			
0.9057	57965.64	3.4290	3.4290	0.2720	26.34	0.38	0.050			
0.9060	57982.98	3.4280	3.4279	0.2700	26.33	0.37	0.050			
0.9062	57999.96	3.4270	3.4268	0.2676	26.33	0.37	0.050			
0.9065	58016.92	3.4260	3.4258	0.2663	26.33	0.37	0.050			
0.9068	58033.52	3.4250	3.4247	0.2639	26.32	0.36	0.050			
0.9070	58050.27	3.4240	3.4242	0.2630	26.31	0.35	0.050			
0.9073	58066.63	3.4230	3.4232	0.2609	26.30	0.34	0.050			
0.9076	58083.41	3.4220	3.4220	0.2598	26.29	0.33	0.050			
0.9078	58099.83	3.4210	3.4209	0.2585	26.28	0.32	0.050			
0.9081	58116.36	3.4200	3.4200	0.2578	26.27	0.31	0.050			
0.9083	58133.44	3.4190	3.4191	0.2548	26.24	0.28	0.050			
0.9086	58150.26	3.4180	3.4180	0.2545	26.22	0.26	0.050			
0.9089	58166.49	3.4170	3.4170	0.2526	26.20	0.24	0.050			
0.9091	58182.79	3.4160	3.4160	0.2527	26.18	0.22	0.050			
0.9094	58198.90	3.4150	3.4150	0.2508	26.16	0.20	0.050			
0.9096	58214.11	3.4140	3.4140	0.2495	26.14	0.18	0.050			
0.9098	58230.04	3.4130	3.4130	0.2483	26.12	0.16	0.050			
0.9101	58245.90	3.4120	3.4121	0.2472	26.10	0.14	0.050			
0.9103	58261.61	3.4110	3.4112	0.2460	26.08	0.12	0.050			
0.9106	58277.31	3.4100	3.4101	0.2449	26.05	0.09	0.050			
0.9108	58292.68	3.4090	3.4090	0.2434	26.03	0.07	0.050			
0.9111	58308.35	3.4080	3.4079	0.2421	26.01	0.05	0.050			
0.9113	58323.81	3.4070	3.4067	0.2412	25.99	0.03	0.050			
0.9115	58339.05	3.4060	3.4058	0.2404	25.97	0.01	0.050			
0.9118	58354.41	3.4050	3.4049	0.2396	25.95	-0.01	0.050			
0.9120	58369.56	3.4040	3.4040	0.2386	25.93	-0.03	0.050			
0.9123	58384.58	3.4030	3.4031	0.2387	25.91	-0.05	0.050			
0.9125	58399.60	3.4020	3.4021	0.2377	25.90	-0.06	0.050			
0.9127	58414.99	3.4010	3.4013	0.2372	25.88	-0.08	0.050			
0.9130	58430.16	3.4000	3.4001	0.2369	25.86	-0.10	0.050			
0.9132	58445.41	3.3990	3.3989	0.2367	25.84	-0.12	0.050			
0.9135	58461.09	3.3980	3.3980	0.2350	25.82	-0.14	0.050			
0.9137	58476.10	3.3970	3.3969	0.2340	25.80	-0.16	0.050			
0.9139	58491.71	3.3960	3.3959	0.2343	25.78	-0.18	0.050			
0.9142	58506.65	3.3950	3.3948	0.2327	25.76	-0.20	0.050			
0.9144	58521.37	3.3940	3.3940	0.2299	25.74	-0.22	0.050			
0.9146	58536.04	3.3930	3.3930	0.2284	25.73	-0.23	0.050			
0.9149	58550.63	3.3920	3.3921	0.2269	25.71	-0.25	0.050			
0.9151	58565.15	3.3910	3.3912	0.2256	25.69	-0.27	0.050			
0.9153	58579.54	3.3900	3.3901	0.2241	25.67	-0.29	0.050			
0.9155	58593.54	3.3890	3.3892	0.2237	25.65	-0.31	0.050			
0.9158	58608.20	3.3880	3.3880	0.2232	25.63	-0.33	0.050			
0.9160	58622.44	3.3870	3.3871	0.2216	25.61	-0.35	0.050			
0.9162	58636.66	3.3860	3.3859	0.2202	25.59	-0.37	0.050			
0.9164	58650.70	3.3850	3.3849	0.2186	25.57	-0.39	0.050			
0.9166	58664.64	3.3840	3.3839	0.2170	25.56	-0.40	0.050			
0.9168	58677.95	3.3830	3.3828	0.2153	25.54	-0.42	0.050			
0.9171	58691.69	3.3820	3.3819	0.2143	25.52	-0.44	0.050			
0.9173	58704.91	3.3810	3.3811	0.2122	25.50	-0.46	0.050			
0.9175	58718.44	3.3800	3.3801	0.2117	25.49	-0.47	0.050			
0.9177	58731.96	3.3790	3.3788	0.2111	25.47	-0.49	0.050			
0.9179	58745.39	3.3780	3.3781	0.2104	25.45	-0.51	0.050			
0.9181	58758.79	3.3770	3.3773	0.2100	25.43	-0.53	0.050			
0.9183	58772.22	3.3760	3.3761	0.2096	25.42	-0.54	0.050			
0.9185	58785.62	3.3750	3.3751	0.2092	25.40	-0.56	0.050			
0.9187	58799.30	3.3740	3.3740	0.2087	25.38	-0.58	0.050			
0.9189	58812.64	3.3730	3.3728	0.2080	25.36	-0.60	0.050			
0.9192	58826.00	3.3720	3.3719	0.2074	25.34	-0.62	0.050			
0.9194	58839.28	3.3710	3.3709	0.2066	25.32	-0.64	0.050			
0.9196	58852.48	3.3700	3.3700	0.2058	25.30	-0.66	0.050			
0.9198	58865.51	3.3690	3.3690	0.2047	25.28	-0.68	0.050			
0.9200	58878.30	3.3680	3.3680	0.2047	25.27	-0.69	0.050			
0.9202	58891.39	3.3670	3.3671	0.2043	25.25	-0.71	0.050			
0.9204	58904.13	3.3660	3.3660	0.2032	25.23	-0.73	0.050			
0.9206	58917.24	3.3650	3.3650	0.2028	25.21	-0.75	0.050			
0.9208	58930.21	3.3640	3.3641	0.2026	25.20	-0.76	0.050			
0.9210	58943.50	3.3630	3.3631	0.2030	25.18	-0.78	0.050			
0.9212	58956.48	3.3620	3.3620	0.2025	25.16	-0.80	0.050			
0.9214	58969.74	3.3610	3.3610	0.2007	25.15	-0.81	0.050			
0.9216	58982.58	3.3600	3.3598	0.1999	25.13	-0.83	0.050			
0.9218	58995.34	3.3590	3.3589	0.1990	25.11	-0.85	0.050			
0.9220	59008.35	3.3580	3.3579	0.1971	25.10	-0.86	0.050			
0.9222	59021.09	3.3570	3.3568	0.1963	25.08	-0.88	0.050			
0.9224	59033.61	3.3560	3.3561	0.1950	25.06	-0.90	0.050			
0.9226	59046.05	3.3550	3.3549	0.1936	25.04	-0.92	0.050			
0.9228	59058.30	3.3540	3.3542	0.1935	25.02	-0.94	0.050			
0.9230	59070.64	3.3530	3.3532	0.1923	25.00	-0.96	0.050			
0.9232	59082.91	3.3520	3.3521	0.1911	24.99	-0.97	0.050			
0.9234	59095.01	3.3510	3.3511	0.1911	24.97	-0.99	0.050			
0.9236	59107.20	3.3500	3.3500	0.1900	24.96	-1.00	0.050			
0.9237	59119.33	3.3490	3.3489	0.1889	24.94	-1.02	0.050			
0.9239	59130.94	3.3480	3.3480	0.1881	24.92	-1.04	0.050			
0.9241	59142.96	3.3470	3.3471	0.1874	24.91	-1.05	0.050			
0.9243	59154.93	3.3460	3.3457	0.1868	24.89	-1.07	0.050			
0.9245	59166.17	3.3450	3.3449	0.1849	24.87	-1.09	0.050			
0.9247	59178.59	3.3440	3.3439	0.1834	24.85	-1.11	0.050			
0.9248	59190.31	3.3430	3.3429	0.1829	24.84	-1.12	0.050			
0.9250	59202.00	3.3420	3.3421	0.1823	24.82	-1.14	0.050			
0.9252	59213.42	3.3410	3.3411	0.1822	24.81	-1.15	0.050			
0.9254	59225.07	3.3400	3.3400	0.1818	24.79	-1.17	0.050			
0.9256	59236.70	3.3390	3.3391	0.1814	24.78	-1.18	0.050			
0.9258	59248.64	3.3380	3.3380	0.1816	24.76	-1.20	0.050			
0.9259	59260.45	3.3370	3.3371	0.1803	24.74	-1.22	0.050			
0.9261	59271.96	3.3360	3.3362	0.1795	24.73	-1.23	0.050			
0.9263	59283.42	3.3350	3.3351	0.1786	24.71	-1.25	0.050			
0.9265	59295.19	3.3340	3.3340	0.1781	24.70	-1.26	0.050			
0.9267	59306.37	3.3330	3.3329	0.1775	24.68	-1.28	0.050			
0.9268	59317.70	3.3320	3.3318	0.1765	24.67	-1.29	0.050			
0.9270	59328.68	3.3310	3.3309	0.1751	24.65	-1.31	0.050			
0.9272	59339.82	3.3300	3.3297	0.1744	24.64	-1.32	0.050			
0.9274	59350.97	3.3290	3.3289	0.1737	24.62	-1.34	0.050			
0.9275	59361.95	3.3280	3.3282	0.1728	24.61	-1.35	0.050			
0.9277	59372.99	3.3270	3.3273	0.1722	24.59	-1.37	0.050			
0.9279	59384.13	3.3260	3.3261	0.1711	24.57	-1.39	0.050			
0.9280	59395.06	3.3250	3.3250	0.1703	24.56	-1.40	0.050			
0.9282	59405.93	3.3240	3.3239	0.1696	24.54	-1.42	0.050			
0.9284	59416.76	3.3230	3.3229	0.1688	24.53	-1.43	0.050			
0.9286	59427.45	3.3220	3.3219	0.1684	24.52	-1.44	0.050			
0.9287	59438.50	3.3210	3.3209	0.1684	24.50	-1.46	0.050			
0.9289	59449.25	3.3200	3.3199	0.1675	24.49	-1.47	0.050			
0.9291	59459.94	3.3190	3.3193	0.1666	24.47	-1.49	0.050			
0.9292	59470.39	3.3180	3.3180	0.1664	24.46	-1.50	0.050			
0.9294	59480.54	3.3170	3.3169	0.1647	24.45	-1.51	0.050			
0.9295	59491.06	3.3160	3.3160	0.1643	24.43	-1.53	0.050			
0.9297	59501.57	3.3150	3.3153	0.1640	24.42	-1.54	0.050			
0.9299	59512.12	3.3140	3.3140	0.1634	24.40	-1.56	0.050			
0.9300	59522.76	3.3130	3.3129	0.1633	24.39	-1.57	0.050			
0.9302	59533.20	3.3120	3.3119	0.1628	24.38	-1.58	0.050			
0.9304	59543.60	3.3110	3.3109	0.1622	24.36	-1.60	0.050			
0.9305	59554.06	3.3100	3.3100	0.1608	24.35	-1.61	0.050			
0.9307	59564.33	3.3090	3.3091	0.1601	24.34	-1.62	0.050			
0.9309	59574.56	3.3080	3.3080	0.1595	24.32	-1.64	0.050			
0.9310	59584.75	3.3070	3.3069	0.1588	24.31	-1.65	0.050			
0.9312	59594.90	3.3060	3.3060	0.1586	24.30	-1.66	0.050			
0.9313	59605.03	3.3050	3.3049	0.1579	24.28	-1.68	0.050			
0.9315	59615.11	3.3040	3.3041	0.1573	24.27	-1.69	0.050			
0.9316	59625.15	3.3030	3.3032	0.1566	24.26	-1.70	0.050			
0.9318	59635.31	3.3020	3.3021	0.1564	24.24	-1.72	0.050			
0.9320	59645.29	3.3010	3.3010	0.1556	24.23	-1.73	0.050			
0.9321	59655.23	3.3000	3.3000	0.1549	24.22	-1.74	0.050			
0.9323	59665.12	3.2990	3.2989	0.1541	24.20	-1.76	0.050			
0.9324	59674.80	3.2980	3.2978	0.1531	24.19	-1.77	0.050			
0.9326	59684.57	3.2970	3.2969	0.1525	24.18	-1.78	0.050			
0.9327	59694.31	3.2960	3.2960	0.1518	24.16	-1.80	0.050			
0.9329	59704.01	3.2950	3.2950	0.1512	24.15	-1.81	0.050			
0.9330	59713.53	3.2940	3.2940	0.1504	24.14	-1.82	0.050			
0.9332	59723.26	3.2930	3.2930	0.1495	24.13	-1.83	0.050			
0.9333	59732.80	3.2920	3.2920	0.1488	24.12	-1.84	0.050			
0.9335	59742.30	3.2910	3.2911	0.1481	24.11	-1.85	0.050			
0.9336	59751.82	3.2900	3.2901	0.1476	24.10	-1.86	0.050			
0.9338	59761.21	3.2890	3.2891	0.1469	24.10	-1.86	0.050			
0.9339	59770.60	3.2880	3.2880	0.1462	24.09	-1.87	0.050			
0.9341	59779.93	3.2870	3.2870	0.1456	24.07	-1.89	0.050			
0.9342	59789.47	3.2860	3.2858	0.1452	24.06	-1.90	0.050			
0.9343	59798.17	3.2850	3.2849	0.1455	24.05	-1.91	0.050			
0.9345	59807.47	3.2840	3.2839	0.1451	24.04	-1.92	0.050			
0.9346	59816.74	3.2830	3.2830	0.1447	24.03	-1.93	0.050			
0.9348	59825.60	3.2820	3.2822	0.1436	24.02	-1.94	0.050			
0.9349	59834.78	3.2810	3.2809	0.1434	24.01	-1.95	0.050			
0.9351	59844.08	3.2800	3.2800	0.1428	24.00	-1.96	0.050			
0.9352	59853.21	3.2790	3.2790	0.1426	23.99	-1.97	0.050			
0.9353	59862.14	3.2780	3.2780	0.1421	23.98	-1.98	0.050			
0.9355	59871.36	3.2770	3.2769	0.1417	23.97	-1.99	0.050			
0.9356	59880.42	3.2760	3.2759	0.1415	23.96	-2.00	0.050			
0.9358	59889.47	3.2750	3.2749	0.1413	23.96	-2.00	0.050			
0.9359	59898.50	3.2740	3.2740	0.1411	23.95	-2.01	0.050			
0.9361	59907.92	3.2730	3.2730	0.1401	23.94	-2.02	0.050			
0.9362	59916.87	3.2720	3.2722	0.1396	23.94	-2.02	0.050			
0.9363	59925.79	3.2710	3.2715	0.1390	23.93	-2.03	0.050			
0.9365	59934.66	3.2700	3.2702	0.1385	23.92	-2.04	0.050			
0.9366	59943.83	3.2690	3.2690	0.1384	23.91	-2.05	0.050			
0.9368	59952.75	3.2680	3.2679	0.1373	23.91	-2.05	0.050			
0.9369	59961.51	3.2670	3.2669	0.1364	23.90	-2.06	0.050			
0.9370	59970.22	3.2660	3.2659	0.1355	23.89	-2.07	0.050			
0.9372	59979.14	3.2650	3.2649	0.1352	23.88	-2.08	0.050			
0.9373	59987.75	3.2640	3.2639	0.1341	23.87	-2.09	0.050			
0.9374	59995.99	3.2630	3.2629	0.1338	23.87	-2.09	0.050			
0.9376	60004.53	3.2620	3.2622	0.1330	23.86	-2.10	0.050			
0.9377	60013.01	3.2610	3.2612	0.1321	23.86	-2.10	0.050			
0.9378	60020.96	3.2600	3.2602	0.1308	23.85	-2.11	0.050			
0.9380	60029.31	3.2590	3.2589	0.1303	23.84	-2.12	0.050			
0.9381	60037.60	3.2580	3.2579	0.1298	23.84	-2.12	0.050			
0.9382	60045.95	3.2570	3.2570	0.1295	23.83	-2.13	0.050			
0.9383	60054.22	3.2560	3.2559	0.1289	23.83	-2.13	0.050			
0.9385	60062.45	3.2550	3.2549	0.1283	23.82	-2.14	0.050			
0.9386	60070.64	3.2540	3.2539	0.1278	23.82	-2.14	0.050			
0.9387	60078.36	3.2530	3.2529	0.1271	23.81	-2.15	0.050			
0.9389	60086.49	3.2520	3.2519	0.1269	23.81	-2.15	0.050			
0.9390	60094.60	3.2510	3.2510	0.1267	23.81	-2.15	0.050			
0.9391	60102.71	3.2500	3.2500	0.1265	23.80	-2.16	0.050			
0.9392	60110.80	3.2490	3.2490	0.1263	23.80	-2.16	0.050			
0.9394	60119.01	3.2480	3.2481	0.1257	23.79	-2.17	0.050			
0.9395	60127.05	3.2470	3.2472	0.1254	23.79	-2.17	0.050			
0.9396	60135.06	3.2460	3.2459	0.1251	23.78	-2.18	0.050			
0.9397	60143.05	3.2450	3.2448	0.1247	23.78	-2.18	0.050			
0.9399	60151.03	3.2440	3.2440	0.1244	23.78	-2.18	0.050			
0.9400	60159.09	3.2430	3.2430	0.1245	23.77	-2.19	0.050			
0.9401	60167.05	3.2420	3.2420	0.1241	23.77	-2.19	0.050			
0.9402	60174.98	3.2410	3.2411	0.1237	23.77	-2.19	0.050			
0.9404	60182.89	3.2400	3.2401	0.1234	23.76	-2.20	0.050			
0.9405	60190.77	3.2390	3.2390	0.1230	23.76	-2.20	0.050			
0.9406	60198.49	3.2380	3.2380	0.1224	23.76	-2.20	0.050			
0.9407	60206.32	3.2370	3.2370	0.1221	23.76	-2.20	0.050			
0.9408	60214.12	3.2360	3.2360	0.1218	23.76	-2.20	0.050			
0.9410	60221.90	3.2350	3.2350	0.1215	23.75	-2.21	0.050			
0.9411	60229.67	3.2340	3.2340	0.1212	23.75	-2.21	0.050			
0.9412	60237.60	3.2330	3.2329	0.1209	23.75	-2.21	0.050			
0.9413	60245.32	3.2320	3.2319	0.1204	23.75	-2.21	0.050			
0.9415	60253.01	3.2310	3.2309	0.1200	23.75	-2.21	0.050			
0.9416	60260.68	3.2300	3.2299	0.1196	23.75	-2.21	0.050			
0.9417	60268.32	3.2290	3.2289	0.1191	23.75	-2.21	0.050			
0.9418	60275.83	3.2280	3.2280	0.1186	23.74	-2.22	0.050			
0.9419	60283.69	3.2270	3.2271	0.1177	23.74	-2.22	0.050			
0.9420	60291.20	3.2260	3.2261	0.1171	23.74	-2.22	0.050			
0.9422	60298.67	3.2250	3.2248	0.1165	23.74	-2.22	0.050			
0.9423	60306.11	3.2240	3.2243	0.1159	23.74	-2.22	0.050			
0.9424	60313.87	3.2230	3.2231	0.1160	23.74	-2.22	0.050			
0.9425	60321.26	3.2220	3.2220	0.1151	23.74	-2.22	0.050			
0.9426	60328.40	3.2210	3.2208	0.1148	23.75	-2.21	0.050			
0.9427	60335.72	3.2200	3.2201	0.1141	23.75	-2.21	0.050			
0.9429	60343.00	3.2190	3.2193	0.1134	23.75	-2.21	0.050			
0.9430	60350.17	3.2180	3.2180	0.1126	23.75	-2.21	0.050			
0.9431	60357.36	3.2170	3.2170	0.1120	23.75	-2.21	0.050			
0.9432	60364.51	3.2160	3.2160	0.1114	23.76	-2.20	0.050			
0.9433	60371.72	3.2150	3.2150	0.1106	23.76	-2.20	0.050			
0.9434	60378.77	3.2140	3.2139	0.1099	23.76	-2.20	0.050			
0.9435	60385.76	3.2130	3.2129	0.1092	23.77	-2.19	0.050			
0.9436	60392.72	3.2120	3.2121	0.1085	23.77	-2.19	0.050			
0.9437	60399.65	3.2110	3.2110	0.1078	23.78	-2.18	0.050			
0.9438	60406.17	3.2100	3.2098	0.1080	23.78	-2.18	0.050			
0.9440	60413.07	3.2090	3.2090	0.1076	23.78	-2.18	0.050			
0.9441	60419.95	3.2080	3.2081	0.1072	23.79	-2.17	0.050			
0.9442	60426.55	3.2070	3.2071	0.1063	23.79	-2.17	0.050			
0.9443	60433.35	3.2060	3.2061	0.1060	23.79	-2.17	0.050			
0.9444	60440.13	3.2050	3.2051	0.1058	23.79	-2.17	0.050			
0.9445	60446.84	3.2040	3.2041	0.1057	23.80	-2.16	0.050			
0.9446	60453.60	3.2030	3.2029	0.1055	23.80	-2.16	0.050			
0.9447	60460.34	3.2020	3.2018	0.1053	23.80	-2.16	0.050			
0.9448	60466.96	3.2010	3.2010	0.1049	23.81	-2.15	0.050			
0.9449	60473.67	3.2000	3.2001	0.1047	23.81	-2.15	0.050			
0.9450	60480.57	3.1990	3.1989	0.1042	23.82	-2.14	0.050			
0.9451	60487.23	3.1980	3.1977	0.1039	23.83	-2.13	0.050			
0.9452	60493.87	3.1970	3.1969	0.1036	23.83	-2.13	0.050			
0.9453	60500.49	3.1960	3.1960	0.1033	23.84	-2.12	0.050			
0.9454	60507.00	3.1950	3.1950	0.1029	23.84	-2.12	0.050			
0.9455	60513.58	3.1940	3.1940	0.1027	23.85	-2.11	0.050			
0.9456	60520.32	3.1930	3.1931	0.1020	23.86	-2.10	0.050			
0.9457	60526.84	3.1920	3.1919	0.1016	23.86	-2.10	0.050			
0.9458	60533.33	3.1910	3.1909	0.1013	23.87	-2.09	0.050			
0.9459	60540.18	3.1900	3.1901	0.1018	23.88	-2.08	0.050			
0.9460	60546.68	3.1890	3.1892	0.1012	23.88	-2.08	0.050			
0.9461	60553.13	3.1880	3.1881	0.1006	23.89	-2.07	0.050			
0.9462	60559.55	3.1870	3.1870	0.0999	23.89	-2.07	0.050			
0.9463	60565.77	3.1860	3.1858	0.0998	23.90	-2.06	0.050			
0.9464	60572.14	3.1850	3.1851	0.0993	23.91	-2.05	0.050			
0.9465	60578.29	3.1840	3.1841	0.0984	23.92	-2.04	0.050			
0.9466	60584.58	3.1830	3.1831	0.0980	23.93	-2.03	0.050			
0.9467	60590.84	3.1820	3.1820	0.0976	23.94	-2.02	0.050			
0.9468	60597.08	3.1810	3.1810	0.0972	23.95	-2.01	0.050			
0.9469	60603.29	3.1800	3.1800	0.0969	23.96	-2.00	0.050			
0.9470	60609.37	3.1790	3.1790	0.0963	23.96	-2.00	0.050			
0.9471	60615.52	3.1780	3.1779	0.0960	23.97	-1.99	0.050			
0.9472	60621.65	3.1770	3.1769	0.0957	23.98	-1.98	0.050			
0.9473	60627.76	3.1760	3.1760	0.0953	23.99	-1.97	0.050			
0.9474	60633.85	3.1750	3.1751	0.0950	24.01	-1.95	0.050			
0.9475	60639.92	3.1740	3.1741	0.0947	24.02	-1.94	0.050			
0.9476	60646.09	3.1730	3.1731	0.0943	24.03	-1.93	0.050			
0.9477	60652.11	3.1720	3.1721	0.0939	24.04	-1.92	0.050			
0.9478	60658.11	3.1710	3.1711	0.0935	24.05	-1.91	0.050			
0.9479	60664.08	3.1700	3.1702	0.0931	24.06	-1.90	0.050			
0.9480	60670.02	3.1690	3.1690	0.0927	24.07	-1.89	0.050			
0.9481	60675.94	3.1680	3.1679	0.0923	24.08	-1.88	0.050			
0.9482	60681.88	3.1670	3.1669	0.0917	24.08	-1.88	0.050			
0.9482	60687.82	3.1660	3.1659	0.0915	24.10	-1.86	0.050			
0.9483	60693.66	3.1650	3.1650	0.0910	24.11	-1.85	0.050			
0.9484	60699.47	3.1640	3.1640	0.0905	24.13	-1.83	0.050			
0.9485	60705.24	3.1630	3.1630	0.0901	24.14	-1.82	0.050			
0.9486	60710.99	3.1620	3.1620	0.0896	24.15	-1.81	0.050			
0.9487	60716.71	3.1610	3.1611	0.0891	24.17	-1.79	0.050			
0.9488	60722.29	3.1600	3.1601	0.0892	24.18	-1.78	0.050			
0.9489	60727.88	3.1590	3.1590	0.0886	24.19	-1.77	0.050			
0.9490	60733.54	3.1580	3.1580	0.0882	24.20	-1.76	0.050			
0.9490	60739.18	3.1570	3.1570	0.0879	24.22	-1.74	0.050			
0.9491	60744.79	3.1560	3.1560	0.0876	24.23	-1.73	0.050			
0.9492	60750.39	3.1550	3.1550	0.0873	24.25	-1.71	0.050			
0.9493	60755.98	3.1540	3.1540	0.0868	24.26	-1.70	0.050			
0.9494	60761.47	3.1530	3.1529	0.0863	24.28	-1.68	0.050			
0.9495	60766.98	3.1520	3.1519	0.0860	24.29	-1.67	0.050			
0.9496	60772.48	3.1510	3.1509	0.0857	24.31	-1.65	0.050			
0.9497	60777.95	3.1500	3.1498	0.0854	24.32	-1.64	0.050			
0.9497	60783.41	3.1490	3.1490	0.0851	24.34	-1.62	0.050			
0.9498	60788.85	3.1480	3.1481	0.0848	24.35	-1.61	0.050			
0.9499	60794.35	3.1470	3.1467	0.0844	24.37	-1.59	0.050			
0.9500	60799.74	3.1460	3.1460	0.0841	24.38	-1.58	0.050			
0.9501	60805.11	3.1450	3.1452	0.0837	24.40	-1.56	0.050			
0.9502	60810.45	3.1440	3.1442	0.0834	24.41	-1.55	0.050			
0.9502	60815.78	3.1430	3.1432	0.0830	24.43	-1.53	0.050			
0.9503	60821.08	3.1420	3.1422	0.0826	24.45	-1.51	0.050			
0.9504	60826.35	3.1410	3.1411	0.0823	24.46	-1.50	0.050			
0.9505	60831.46	3.1400	3.1399	0.0824	24.48	-1.48	0.050			
0.9506	60836.73	3.1390	3.1391	0.0822	24.49	-1.47	0.050			
0.9507	60841.98	3.1380	3.1383	0.0819	24.51	-1.45	0.050			
0.9507	60847.22	3.1370	3.1372	0.0817	24.53	-1.43	0.050			
0.9508	60852.44	3.1360	3.1360	0.0815	24.54	-1.42	0.050			
0.9509	60857.64	3.1350	3.1348	0.0812	24.56	-1.40	0.050			
0.9510	60862.51	3.1340	3.1339	0.0806	24.58	-1.38	0.050			
0.9511	60867.97	3.1330	3.1330	0.0802	24.60	-1.36	0.050			
0.9511	60873.10	3.1320	3.1320	0.0799	24.62	-1.34	0.050			
0.9512	60878.20	3.1310	3.1309	0.0797	24.64	-1.32	0.050			
0.9513	60883.30	3.1300	3.1298	0.0794	24.66	-1.30	0.050			
0.9514	60888.37	3.1290	3.1288	0.0792	24.68	-1.28	0.050			
0.9515	60893.43	3.1280	3.1280	0.0790	24.69	-1.27	0.050			
0.9515	60898.60	3.1270	3.1270	0.0789	24.71	-1.25	0.050			
0.9516	60903.64	3.1260	3.1260	0.0786	24.72	-1.24	0.050			
0.9517	60908.72	3.1250	3.1250	0.0781	24.74	-1.22	0.050			
0.9518	60913.71	3.1240	3.1239	0.0778	24.75	-1.21	0.050			
0.9519	60918.68	3.1230	3.1230	0.0774	24.77	-1.19	0.050			
0.9519	60923.62	3.1220	3.1221	0.0771	24.79	-1.17	0.050			
0.9520	60928.55	3.1210	3.1213	0.0767	24.81	-1.15	0.050			
0.9521	60933.71	3.1200	3.1203	0.0767	24.83	-1.13	0.050			
0.9522	60938.61	3.1190	3.1190	0.0762	24.85	-1.11	0.050			
0.9522	60943.19	3.1180	3.1181	0.0761	24.87	-1.09	0.050			
0.9523	60948.05	3.1170	3.1172	0.0758	24.89	-1.07	0.050			
0.9524	60952.89	3.1160	3.1161	0.0754	24.90	-1.06	0.050			
0.9525	60957.71	3.1150	3.1150	0.0751	24.92	-1.04	0.050			
0.9525	60962.51	3.1140	3.1139	0.0748	24.93	-1.03	0.050			
0.9526	60966.98	3.1130	3.1130	0.0740	24.95	-1.01	0.050			
0.9527	60971.71	3.1120	3.1122	0.0738	24.97	-0.99	0.050			
0.9528	60976.43	3.1110	3.1114	0.0736	24.99	-0.97	0.050			
0.9528	60981.37	3.1100	3.1102	0.0730	25.01	-0.95	0.050			
0.9529	60986.03	3.1090	3.1089	0.0726	25.03	-0.93	0.050			
0.9530	60990.66	3.1080	3.1076	0.0723	25.05	-0.91	0.050			
0.9531	60995.28	3.1070	3.1066	0.0720	25.07	-0.89	0.050			
0.9531	60999.88	3.1060	3.1059	0.0717	25.09	-0.87	0.050			
0.9532	61004.63	3.1050	3.1050	0.0716	25.11	-0.85	0.050			
0.9533	61009.20	3.1040	3.1040	0.0712	25.13	-0.83	0.050			
0.9533	61013.52	3.1030	3.1030	0.0711	25.14	-0.82	0.050			
0.9534	61018.07	3.1020	3.1019	0.0708	25.16	-0.80	0.050			
0.9535	61022.59	3.1010	3.1014	0.0706	25.18	-0.78	0.050			
0.9535	61027.10	3.1000	3.1003	0.0703	25.20	-0.76	0.050			
0.9536	61031.58	3.0990	3.0992	0.0700	25.22	-0.74	0.050			
0.9537	61036.03	3.0980	3.0981	0.0696	25.24	-0.72	0.050			
0.9538	61040.48	3.0970	3.0970	0.0694	25.26	-0.70	0.050			
0.9538	61044.91	3.0960	3.0958	0.0691	25.27	-0.69	0.050			
0.9539	61049.32	3.0950	3.0950	0.0689	25.30	-0.66	0.050			
0.9540	61053.72	3.0940	3.0939	0.0686	25.32	-0.64	0.050			
0.9540	61058.17	3.0930	3.0929	0.0681	25.33	-0.63	0.050			
0.9541	61062.52	3.0920	3.0919	0.0678	25.35	-0.61	0.050			
0.9542	61066.85	3.0910	3.0910	0.0675	25.37	-0.59	0.050			
0.9542	61071.03	3.0900	3.0899	0.0670	25.38	-0.58	0.050			
0.9543	61075.31	3.0890	3.0888	0.0667	25.40	-0.56	0.050			
0.9544	61079.58	3.0880	3.0879	0.0665	25.42	-0.54	0.050			
0.9544	61083.82	3.0870	3.0870	0.0662	25.44	-0.52	0.050			
0.9545	61088.05	3.0860	3.0861	0.0660	25.46	-0.50	0.050			
0.9546	61092.35	3.0850	3.0852	0.0656	25.48	-0.48	0.050			
0.9546	61096.54	3.0840	3.0842	0.0653	25.50	-0.46	0.050			
0.9547	61100.87	3.0830	3.0831	0.0655	25.51	-0.45	0.050			
0.9548	61105.05	3.0820	3.0821	0.0651	25.52	-0.44	0.050			
0.9548	61109.20	3.0810	3.0810	0.0647	25.54	-0.42	0.050			
0.9549	61113.33	3.0800	3.0800	0.0643	25.56	-0.40	0.050			
0.9550	61117.44	3.0790	3.0790	0.0640	25.58	-0.38	0.050			
0.9550	61121.52	3.0780	3.0779	0.0636	25.60	-0.36	0.050			
0.9551	61125.58	3.0770	3.0769	0.0632	25.61	-0.35	0.050			
0.9552	61130.37	3.0760	3.0759	0.0610	25.63	-0.33	0.050			
0.9552	61134.24	3.0750	3.0749	0.0602	25.65	-0.31	0.050			
0.9553	61138.07	3.0740	3.0739	0.0595	25.67	-0.29	0.050			
0.9553	61142.24	3.0730	3.0727	0.0601	25.68	-0.28	0.050			
0.9554	61146.05	3.0720	3.0717	0.0591	25.70	-0.26	0.050			
0.9555	61149.81	3.0710	3.0707	0.0582	25.72	-0.24	0.050			
0.9555	61153.50	3.0700	3.0697	0.0573	25.73	-0.23	0.050			
0.9556	61157.14	3.0690	3.0690	0.0564	25.75	-0.21	0.050			
0.9556	61160.72	3.0680	3.0682	0.0555	25.76	-0.20	0.050			
0.9557	61164.24	3.0670	3.0674	0.0546	25.78	-0.18	0.050			
0.9557	61167.70	3.0660	3.0666	0.0536	25.79	-0.17	0.050			
0.9558	61172.05	3.0650	3.0653	0.0539	25.81	-0.15	0.050			
0.9559	61175.46	3.0640	3.0643	0.0526	25.83	-0.13	0.050			
0.9559	61178.78	3.0630	3.0633	0.0513	25.84	-0.12	0.050			
0.9560	61182.03	3.0620	3.0625	0.0501	25.86	-0.10	0.050			
0.9560	61185.19	3.0610	3.0615	0.0488	25.87	-0.09	0.050			
0.9561	61188.27	3.0600	3.0605	0.0475	25.88	-0.08	0.050			
0.9561	61191.27	3.0590	3.0596	0.0462	25.90	-0.06	0.050			
0.9562	61194.19	3.0580	3.0587	0.0449	25.91	-0.05	0.050			
0.9562	61197.02	3.0570	3.0579	0.0437	25.92	-0.04	0.050			
0.9562	61199.77	3.0560	3.0571	0.0424	25.93	-0.03	0.050			
0.9563	61202.44	3.0550	3.0563	0.0411	25.94	-0.02	0.050			
0.9563	61205.03	3.0540	3.0550	0.0398	25.95	-0.01	0.050			
0.9564	61207.54	3.0530	3.0541	0.0385	25.96	0.00	0.050			
0.9564	61209.96	3.0520	3.0532	0.0373	25.97	0.01	0.050			
