Ah_balance (normalized)	Ah_balance (mAh)	Voltage - fit (V)	Voltage -  interpolate (V)	dQ/dV (1/V)	Temperature (°C)	Temperature - diff (°C)	Current (C)	R_DC 0ms (mOhm)	R_DC 50ms (mOhm)	R_DC 50 ms PEC (mOhm)
0.0003	18.60	4.1830	4.1827	-0.3310	22.84	-0.00	-0.050			
0.0006	40.41	4.1820	4.1816	-0.3506	22.85	0.01	-0.050			
0.0010	63.60	4.1810	4.1806	-0.3713	22.87	0.03	-0.050			
0.0014	88.97	4.1800	4.1797	-0.3948	22.89	0.05	-0.050			
0.0018	115.29	4.1790	4.1789	-0.4124	22.91	0.07	-0.050			
0.0022	143.46	4.1780	4.1779	-0.4292	22.94	0.10	-0.050			
0.0027	171.34	4.1770	4.1772	-0.4422	22.97	0.13	-0.050			
0.0031	200.96	4.1760	4.1760	-0.4539	23.01	0.17	-0.050			
0.0036	230.28	4.1750	4.1749	-0.4657	23.05	0.21	-0.050			
0.0041	260.35	4.1740	4.1739	-0.4777	23.09	0.25	-0.050			
0.0046	291.65	4.1730	4.1728	-0.4884	23.14	0.30	-0.050			
0.0051	323.41	4.1720	4.1721	-0.4993	23.19	0.35	-0.050			
0.0056	358.05	4.1710	4.1714	-0.5134	23.24	0.40	-0.050			
0.0061	391.53	4.1700	4.1700	-0.5208	23.31	0.47	-0.050			
0.0067	425.60	4.1690	4.1688	-0.5271	23.37	0.53	-0.050			
0.0072	459.56	4.1680	4.1680	-0.5338	23.44	0.60	-0.050			
0.0077	494.86	4.1670	4.1668	-0.5395	23.51	0.67	-0.050			
0.0083	529.62	4.1660	4.1658	-0.5457	23.58	0.74	-0.050			
0.0088	565.56	4.1650	4.1651	-0.5537	23.66	0.82	-0.050			
0.0094	601.43	4.1640	4.1640	-0.5601	23.73	0.89	-0.050			
0.0100	637.78	4.1630	4.1632	-0.5634	23.80	0.96	-0.050			
0.0105	673.98	4.1620	4.1621	-0.5679	23.88	1.04	-0.050			
0.0111	710.25	4.1610	4.1610	-0.5747	23.94	1.10	-0.050			
0.0117	747.81	4.1600	4.1600	-0.5786	24.03	1.19	-0.050			
0.0123	785.54	4.1590	4.1593	-0.5841	24.11	1.27	-0.050			
0.0129	823.32	4.1580	4.1580	-0.5874	24.20	1.36	-0.050			
0.0135	861.10	4.1570	4.1569	-0.5906	24.28	1.44	-0.050			
0.0141	899.58	4.1560	4.1558	-0.5940	24.35	1.51	-0.050			
0.0146	937.50	4.1550	4.1550	-0.5961	24.43	1.59	-0.050			
0.0152	975.25	4.1540	4.1540	-0.5978	24.50	1.66	-0.050			
0.0158	1013.62	4.1530	4.1530	-0.6009	24.57	1.73	-0.050			
0.0164	1052.63	4.1520	4.1518	-0.6036	24.64	1.80	-0.050			
0.0171	1091.60	4.1510	4.1512	-0.6054	24.71	1.87	-0.050			
0.0177	1130.82	4.1500	4.1500	-0.6082	24.78	1.94	-0.050			
0.0183	1170.17	4.1490	4.1490	-0.6111	24.85	2.01	-0.050			
0.0189	1208.56	4.1480	4.1479	-0.6161	24.91	2.07	-0.050			
0.0195	1247.63	4.1470	4.1470	-0.6188	24.97	2.13	-0.050			
0.0201	1287.50	4.1460	4.1461	-0.6219	25.03	2.19	-0.050	0.337	0.455	
0.0207	1326.58	4.1450	4.1450	-0.6236	25.09	2.25	-0.050			
0.0214	1367.12	4.1440	4.1440	-0.6253	25.15	2.31	-0.050			
0.0220	1407.04	4.1430	4.1429	-0.6286	25.22	2.38	-0.050			
0.0226	1447.55	4.1420	4.1419	-0.6316	25.29	2.45	-0.050			
0.0232	1487.93	4.1410	4.1409	-0.6325	25.35	2.51	-0.050			
0.0239	1528.74	4.1400	4.1399	-0.6368	25.41	2.57	-0.050			
0.0245	1570.05	4.1390	4.1390	-0.6384	25.48	2.64	-0.050			
0.0252	1611.09	4.1380	4.1380	-0.6435	25.54	2.70	-0.050			
0.0258	1651.93	4.1370	4.1371	-0.6466	25.60	2.76	-0.050			
0.0265	1694.19	4.1360	4.1361	-0.6501	25.67	2.83	-0.050			
0.0271	1736.29	4.1350	4.1350	-0.6507	25.74	2.90	-0.050			
0.0278	1778.73	4.1340	4.1341	-0.6500	25.79	2.95	-0.050			
0.0284	1820.31	4.1330	4.1328	-0.6518	25.85	3.01	-0.050			
0.0291	1862.10	4.1320	4.1320	-0.6541	25.92	3.08	-0.050			
0.0297	1903.59	4.1310	4.1309	-0.6582	25.98	3.14	-0.050			
0.0304	1945.90	4.1300	4.1300	-0.6589	26.03	3.19	-0.050			
0.0311	1987.68	4.1290	4.1288	-0.6600	26.09	3.25	-0.050			
0.0317	2029.02	4.1280	4.1280	-0.6603	26.15	3.31	-0.050			
0.0324	2071.58	4.1270	4.1273	-0.6625	26.21	3.37	-0.050			
0.0330	2115.16	4.1260	4.1261	-0.6628	26.26	3.42	-0.050			
0.0337	2157.28	4.1250	4.1249	-0.6666	26.32	3.48	-0.050			
0.0344	2199.75	4.1240	4.1238	-0.6688	26.37	3.53	-0.050			
0.0350	2243.16	4.1230	4.1230	-0.6710	26.42	3.58	-0.050			
0.0357	2286.16	4.1220	4.1220	-0.6699	26.47	3.63	-0.050			
0.0364	2329.00	4.1210	4.1211	-0.6730	26.52	3.68	-0.050			
0.0371	2371.37	4.1200	4.1205	-0.6773	26.57	3.73	-0.050			
0.0377	2414.70	4.1190	4.1189	-0.6787	26.63	3.79	-0.050			
0.0384	2458.44	4.1180	4.1180	-0.6809	26.68	3.84	-0.050			
0.0391	2501.42	4.1170	4.1172	-0.6828	26.72	3.88	-0.050			
0.0398	2546.26	4.1160	4.1159	-0.6848	26.77	3.93	-0.050	0.382	0.453	
0.0405	2590.54	4.1150	4.1151	-0.6893	26.82	3.98	-0.050			
0.0412	2635.22	4.1140	4.1142	-0.6903	26.87	4.03	-0.050			
0.0419	2679.36	4.1130	4.1129	-0.6909	26.90	4.06	-0.050			
0.0426	2723.26	4.1120	4.1118	-0.6892	26.95	4.11	-0.050			
0.0432	2767.70	4.1110	4.1111	-0.6900	26.99	4.15	-0.050			
0.0439	2812.14	4.1100	4.1102	-0.6924	27.02	4.18	-0.050			
0.0446	2856.60	4.1090	4.1090	-0.6954	27.06	4.22	-0.050			
0.0453	2900.74	4.1080	4.1079	-0.6965	27.10	4.26	-0.050			
0.0460	2945.08	4.1070	4.1071	-0.6996	27.15	4.31	-0.050			
0.0467	2990.00	4.1060	4.1061	-0.7029	27.18	4.34	-0.050			
0.0474	3034.97	4.1050	4.1049	-0.7048	27.22	4.38	-0.050			
0.0481	3078.88	4.1040	4.1038	-0.7049	27.26	4.42	-0.050			
0.0488	3124.73	4.1030	4.1031	-0.7075	27.30	4.46	-0.050			
0.0495	3170.42	4.1020	4.1018	-0.7092	27.34	4.50	-0.050			
0.0502	3215.85	4.1010	4.1009	-0.7095	27.37	4.53	-0.050			
0.0509	3260.48	4.1000	4.0998	-0.7093	27.41	4.57	-0.050			
0.0517	3307.23	4.0990	4.0991	-0.7116	27.44	4.60	-0.050			
0.0524	3353.58	4.0980	4.0980	-0.7114	27.47	4.63	-0.050			
0.0531	3399.31	4.0970	4.0971	-0.7119	27.51	4.67	-0.050			
0.0538	3445.34	4.0960	4.0962	-0.7111	27.55	4.71	-0.050			
0.0546	3491.85	4.0950	4.0949	-0.7112	27.58	4.74	-0.050			
0.0553	3536.63	4.0940	4.0939	-0.7113	27.61	4.77	-0.050			
0.0560	3582.82	4.0930	4.0930	-0.7124	27.64	4.80	-0.050			
0.0567	3628.44	4.0920	4.0917	-0.7110	27.67	4.83	-0.050			
0.0574	3673.07	4.0910	4.0909	-0.7115	27.70	4.86	-0.050			
0.0581	3718.61	4.0900	4.0900	-0.7115	27.73	4.89	-0.050			
0.0588	3763.95	4.0890	4.0889	-0.7079	27.75	4.91	-0.050			
0.0595	3809.10	4.0880	4.0878	-0.7059	27.79	4.95	-0.050			
0.0602	3854.00	4.0870	4.0872	-0.7056	27.81	4.97	-0.050	0.251	0.584	
0.0609	3899.11	4.0860	4.0860	-0.7041	27.83	4.99	-0.050			
0.0616	3944.74	4.0850	4.0850	-0.7031	27.85	5.01	-0.050			
0.0623	3990.38	4.0840	4.0841	-0.7006	27.84	5.00	-0.050			
0.0630	4034.95	4.0830	4.0830	-0.6995	27.76	4.92	-0.050			
0.0638	4080.36	4.0820	4.0818	-0.6991	27.64	4.80	-0.050			
0.0645	4125.48	4.0810	4.0811	-0.6960	27.47	4.63	-0.050			
0.0652	4170.08	4.0800	4.0800	-0.6940	27.29	4.45	-0.050			
0.0658	4213.97	4.0790	4.0789	-0.6933	27.08	4.24	-0.050			
0.0665	4258.61	4.0780	4.0778	-0.6921	26.85	4.01	-0.050			
0.0672	4301.94	4.0770	4.0770	-0.6898	26.62	3.78	-0.050			
0.0679	4345.95	4.0760	4.0760	-0.6894	26.38	3.54	-0.050			
0.0686	4390.16	4.0750	4.0750	-0.6866	26.12	3.28	-0.050			
0.0693	4433.67	4.0740	4.0739	-0.6834	25.86	3.02	-0.050			
0.0699	4476.16	4.0730	4.0730	-0.6829	25.61	2.77	-0.050			
0.0706	4519.82	4.0720	4.0722	-0.6842	25.36	2.52	-0.050			
0.0713	4562.29	4.0710	4.0709	-0.6848	25.11	2.27	-0.050			
0.0720	4606.30	4.0700	4.0699	-0.6874	24.87	2.03	-0.050			
0.0727	4650.39	4.0690	4.0691	-0.6901	24.63	1.79	-0.050			
0.0734	4694.58	4.0680	4.0681	-0.6935	24.40	1.56	-0.050			
0.0740	4738.88	4.0670	4.0672	-0.6946	24.18	1.34	-0.050			
0.0747	4783.37	4.0660	4.0661	-0.6965	23.97	1.13	-0.050			
0.0754	4827.74	4.0650	4.0649	-0.7021	23.78	0.94	-0.050			
0.0761	4872.75	4.0640	4.0638	-0.7056	23.61	0.77	-0.050			
0.0768	4917.99	4.0630	4.0632	-0.7061	23.44	0.60	-0.050			
0.0775	4962.51	4.0620	4.0621	-0.7111	23.29	0.45	-0.050			
0.0783	5008.12	4.0610	4.0612	-0.7181	23.17	0.33	-0.050			
0.0790	5054.22	4.0600	4.0601	-0.7226	23.06	0.22	-0.050			
0.0797	5099.94	4.0590	4.0590	-0.7261	22.97	0.13	-0.050			
0.0804	5146.85	4.0580	4.0580	-0.7297	22.89	0.05	-0.050	0.446	0.526	
0.0812	5194.55	4.0570	4.0571	-0.7336	22.82	-0.02	-0.050			
0.0819	5241.56	4.0560	4.0557	-0.7380	22.79	-0.05	-0.050			
0.0827	5289.73	4.0550	4.0550	-0.7419	22.75	-0.09	-0.050			
0.0834	5337.62	4.0540	4.0540	-0.7465	22.72	-0.12	-0.050			
0.0841	5384.36	4.0530	4.0530	-0.7497	22.71	-0.13	-0.050			
0.0849	5433.13	4.0520	4.0520	-0.7535	22.70	-0.14	-0.050			
0.0856	5481.21	4.0510	4.0512	-0.7572	22.71	-0.13	-0.050			
0.0864	5529.33	4.0500	4.0499	-0.7622	22.74	-0.10	-0.050			
0.0872	5579.03	4.0490	4.0489	-0.7665	22.77	-0.07	-0.050			
0.0879	5628.44	4.0480	4.0477	-0.7697	22.81	-0.03	-0.050			
0.0887	5678.14	4.0470	4.0470	-0.7729	22.88	0.04	-0.050			
0.0895	5728.83	4.0460	4.0459	-0.7733	22.95	0.11	-0.050			
0.0903	5778.01	4.0450	4.0450	-0.7737	23.03	0.19	-0.050			
0.0911	5827.66	4.0440	4.0436	-0.7769	23.12	0.28	-0.050			
0.0918	5877.72	4.0430	4.0432	-0.7790	23.21	0.37	-0.050			
0.0926	5927.95	4.0420	4.0418	-0.7793	23.32	0.48	-0.050			
0.0934	5977.10	4.0410	4.0410	-0.7791	23.42	0.58	-0.050			
0.0942	6028.25	4.0400	4.0400	-0.7824	23.53	0.69	-0.050			
0.0950	6077.82	4.0390	4.0391	-0.7866	23.64	0.80	-0.050			
0.0958	6128.43	4.0380	4.0379	-0.7875	23.75	0.91	-0.050			
0.0965	6178.67	4.0370	4.0372	-0.7914	23.85	1.01	-0.050			
0.0973	6229.57	4.0360	4.0358	-0.7911	23.96	1.12	-0.050			
0.0981	6279.98	4.0350	4.0350	-0.7906	24.07	1.23	-0.050			
0.0989	6330.25	4.0340	4.0342	-0.7931	24.18	1.34	-0.050			
0.0997	6380.50	4.0330	4.0331	-0.7937	24.28	1.44	-0.050			
0.1005	6431.26	4.0320	4.0320	-0.7950	24.38	1.54	-0.050			
0.1013	6482.63	4.0310	4.0310	-0.7953	24.48	1.64	-0.050			
0.1021	6533.95	4.0300	4.0298	-0.7957	24.57	1.73	-0.050			
0.1029	6584.59	4.0290	4.0291	-0.7989	24.66	1.82	-0.050			
0.1037	6636.52	4.0280	4.0280	-0.8016	24.75	1.91	-0.050			
0.1045	6688.31	4.0270	4.0271	-0.8023	24.83	1.99	-0.050			
0.1053	6740.45	4.0260	4.0261	-0.8051	24.90	2.06	-0.050			
0.1061	6791.83	4.0250	4.0248	-0.8063	24.98	2.14	-0.050			
0.1069	6842.86	4.0240	4.0243	-0.8052	25.06	2.22	-0.050			
0.1077	6894.66	4.0230	4.0229	-0.8062	25.13	2.29	-0.050			
0.1085	6946.69	4.0220	4.0220	-0.8064	25.20	2.36	-0.050			
0.1094	6998.41	4.0210	4.0208	-0.8063	25.27	2.43	-0.050			
0.1101	7049.21	4.0200	4.0200	-0.8074	25.34	2.50	-0.050			
0.1109	7100.49	4.0190	4.0193	-0.8065	25.41	2.57	-0.050			
0.1117	7151.48	4.0180	4.0182	-0.8091	25.47	2.63	-0.050			
0.1126	7203.44	4.0170	4.0169	-0.8112	25.54	2.70	-0.050			
0.1134	7256.00	4.0160	4.0159	-0.8114	25.61	2.77	-0.050			
0.1142	7308.49	4.0150	4.0150	-0.8133	25.68	2.84	-0.050			
0.1150	7359.83	4.0140	4.0141	-0.8123	25.74	2.90	-0.050			
0.1158	7411.98	4.0130	4.0130	-0.8137	25.81	2.97	-0.050			
0.1166	7464.90	4.0120	4.0120	-0.8160	25.88	3.04	-0.050			
0.1175	7516.98	4.0110	4.0111	-0.8174	25.94	3.10	-0.050			
0.1183	7569.48	4.0100	4.0101	-0.8194	26.00	3.16	-0.050			
0.1191	7621.21	4.0090	4.0090	-0.8182	26.06	3.22	-0.050			
0.1199	7674.63	4.0080	4.0079	-0.8203	26.13	3.29	-0.050	0.182	0.498	
0.1207	7727.69	4.0070	4.0071	-0.8197	26.19	3.35	-0.050			
0.1216	7780.39	4.0060	4.0059	-0.8184	26.25	3.41	-0.050			
0.1224	7832.78	4.0050	4.0049	-0.8179	26.30	3.46	-0.050			
0.1232	7884.40	4.0040	4.0041	-0.8203	26.36	3.52	-0.050			
0.1240	7937.18	4.0030	4.0030	-0.8217	26.42	3.58	-0.050			
0.1248	7989.05	4.0020	4.0020	-0.8256	26.48	3.64	-0.050			
0.1256	8041.52	4.0010	4.0011	-0.8267	26.53	3.69	-0.050			
0.1265	8093.16	4.0000	4.0001	-0.8273	26.58	3.74	-0.050			
0.1273	8146.79	3.9990	3.9990	-0.8302	26.63	3.79	-0.050			
0.1281	8200.08	3.9980	3.9979	-0.8311	26.68	3.84	-0.050			
0.1290	8253.41	3.9970	3.9971	-0.8316	26.73	3.89	-0.050			
0.1298	8307.77	3.9960	3.9957	-0.8343	26.79	3.95	-0.050			
0.1306	8361.55	3.9950	3.9949	-0.8328	26.83	3.99	-0.050			
0.1315	8414.71	3.9940	3.9940	-0.8338	26.88	4.04	-0.050			
0.1323	8468.01	3.9930	3.9930	-0.8348	26.92	4.08	-0.050			
0.1331	8521.59	3.9920	3.9923	-0.8369	26.97	4.13	-0.050			
0.1340	8574.97	3.9910	3.9912	-0.8381	27.01	4.17	-0.050			
0.1348	8629.55	3.9900	3.9902	-0.8373	27.06	4.22	-0.050			
0.1357	8683.74	3.9890	3.9890	-0.8385	27.10	4.26	-0.050			
0.1365	8737.59	3.9880	3.9880	-0.8384	27.15	4.31	-0.050			
0.1374	8790.92	3.9870	3.9869	-0.8407	27.19	4.35	-0.050			
0.1382	8844.72	3.9860	3.9860	-0.8410	27.23	4.39	-0.050			
0.1390	8897.94	3.9850	3.9846	-0.8398	27.27	4.43	-0.050			
0.1398	8949.71	3.9840	3.9840	-0.8395	27.31	4.47	-0.050	0.223	0.607	
0.1407	9003.74	3.9830	3.9831	-0.8402	27.35	4.51	-0.050			
0.1415	9057.00	3.9820	3.9820	-0.8399	27.39	4.55	-0.050			
0.1424	9111.52	3.9810	3.9811	-0.8419	27.43	4.59	-0.050			
0.1432	9166.12	3.9800	3.9796	-0.8413	27.46	4.62	-0.050			
0.1441	9219.95	3.9790	3.9789	-0.8429	27.47	4.63	-0.050			
0.1449	9274.15	3.9780	3.9779	-0.8470	27.46	4.62	-0.050			
0.1458	9328.52	3.9770	3.9772	-0.8491	27.46	4.62	-0.050			
0.1466	9383.20	3.9760	3.9759	-0.8500	27.47	4.63	-0.050			
0.1475	9437.46	3.9750	3.9749	-0.8512	27.47	4.63	-0.050			
0.1483	9491.57	3.9740	3.9741	-0.8504	27.49	4.65	-0.050			
0.1492	9545.83	3.9730	3.9734	-0.8501	27.49	4.65	-0.050			
0.1500	9600.09	3.9720	3.9720	-0.8550	27.50	4.66	-0.050			
0.1509	9654.97	3.9710	3.9711	-0.8573	27.52	4.68	-0.050			
0.1517	9710.80	3.9700	3.9697	-0.8579	27.53	4.69	-0.050			
0.1526	9766.49	3.9690	3.9690	-0.8560	27.55	4.71	-0.050			
0.1535	9821.51	3.9680	3.9681	-0.8554	27.57	4.73	-0.050			
0.1543	9876.99	3.9670	3.9670	-0.8516	27.58	4.74	-0.050			
0.1552	9932.35	3.9660	3.9659	-0.8484	27.61	4.77	-0.050			
0.1561	9987.71	3.9650	3.9649	-0.8442	27.62	4.78	-0.050			
0.1569	10041.59	3.9640	3.9639	-0.8436	27.64	4.80	-0.050			
0.1577	10095.71	3.9630	3.9631	-0.8405	27.66	4.82	-0.050			
0.1586	10150.74	3.9620	3.9621	-0.8386	27.66	4.82	-0.050			
0.1594	10204.23	3.9610	3.9611	-0.8338	27.58	4.74	-0.050			
0.1603	10258.01	3.9600	3.9598	-0.8286	27.43	4.59	-0.050	0.422	0.574	
0.1611	10309.88	3.9590	3.9587	-0.8215	27.22	4.38	-0.050			
0.1619	10362.03	3.9580	3.9581	-0.8163	26.99	4.15	-0.050			
0.1627	10414.42	3.9570	3.9567	-0.8106	26.72	3.88	-0.050			
0.1635	10465.41	3.9560	3.9559	-0.8082	26.45	3.61	-0.050			
0.1643	10515.43	3.9550	3.9549	-0.8066	26.16	3.32	-0.050			
0.1651	10566.82	3.9540	3.9541	-0.8031	25.85	3.01	-0.050			
0.1659	10616.88	3.9530	3.9532	-0.7991	25.55	2.71	-0.050			
0.1667	10667.61	3.9520	3.9520	-0.7984	25.25	2.41	-0.050			
0.1675	10717.83	3.9510	3.9510	-0.7967	24.95	2.11	-0.050			
0.1683	10768.96	3.9500	3.9500	-0.7995	24.66	1.82	-0.050			
0.1691	10820.63	3.9490	3.9490	-0.8040	24.37	1.53	-0.050			
0.1699	10871.01	3.9480	3.9480	-0.8036	24.10	1.26	-0.050			
0.1707	10922.73	3.9470	3.9468	-0.8087	23.85	1.01	-0.050			
0.1715	10975.01	3.9460	3.9461	-0.8099	23.62	0.78	-0.050			
0.1723	11025.50	3.9450	3.9451	-0.8106	23.40	0.56	-0.050			
0.1731	11076.48	3.9440	3.9440	-0.8151	23.22	0.38	-0.050			
0.1739	11128.74	3.9430	3.9430	-0.8197	23.06	0.22	-0.050			
0.1747	11181.08	3.9420	3.9419	-0.8254	22.93	0.09	-0.050			
0.1755	11234.16	3.9410	3.9409	-0.8310	22.81	-0.03	-0.050			
0.1764	11287.33	3.9400	3.9399	-0.8374	22.72	-0.12	-0.050			
0.1772	11341.62	3.9390	3.9393	-0.8423	22.65	-0.19	-0.050			
0.1780	11394.41	3.9380	3.9378	-0.8503	22.59	-0.25	-0.050			
0.1789	11448.88	3.9370	3.9370	-0.8578	22.56	-0.28	-0.050			
0.1797	11503.07	3.9360	3.9356	-0.8633	22.54	-0.30	-0.050	0.281	0.613	
0.1806	11557.95	3.9350	3.9351	-0.8708	22.52	-0.32	-0.050			
0.1815	11615.50	3.9340	3.9342	-0.8797	22.52	-0.32	-0.050			
0.1824	11672.55	3.9330	3.9331	-0.8860	22.54	-0.30	-0.050			
0.1833	11730.10	3.9320	3.9320	-0.8884	22.57	-0.27	-0.050			
0.1842	11787.78	3.9310	3.9308	-0.8937	22.62	-0.22	-0.050			
0.1851	11845.37	3.9300	3.9299	-0.8968	22.69	-0.15	-0.050			
0.1860	11903.76	3.9290	3.9287	-0.9003	22.77	-0.07	-0.050			
0.1869	11962.17	3.9280	3.9283	-0.9069	22.85	0.01	-0.050			
0.1878	12020.89	3.9270	3.9270	-0.9070	22.95	0.11	-0.050			
0.1887	12079.74	3.9260	3.9260	-0.9079	23.06	0.22	-0.050			
0.1897	12138.37	3.9250	3.9251	-0.9093	23.19	0.35	-0.050			
0.1906	12195.74	3.9240	3.9242	-0.9106	23.31	0.47	-0.050			
0.1915	12254.79	3.9230	3.9229	-0.9136	23.45	0.61	-0.050			
0.1924	12312.98	3.9220	3.9217	-0.9177	23.57	0.73	-0.050			
0.1933	12371.04	3.9210	3.9208	-0.9181	23.71	0.87	-0.050			
0.1942	12429.88	3.9200	3.9199	-0.9192	23.84	1.00	-0.050			
0.1951	12488.84	3.9190	3.9190	-0.9174	23.97	1.13	-0.050			
0.1960	12546.27	3.9180	3.9183	-0.9184	24.10	1.26	-0.050			
0.1970	12605.32	3.9170	3.9169	-0.9218	24.22	1.38	-0.050			
0.1979	12665.13	3.9160	3.9158	-0.9215	24.35	1.51	-0.050			
0.1988	12723.55	3.9150	3.9150	-0.9255	24.46	1.62	-0.050			
0.1997	12783.78	3.9140	3.9142	-0.9273	24.58	1.74	-0.050	0.491	0.575	
0.2007	12844.10	3.9130	3.9130	-0.9295	24.69	1.85	-0.050			
0.2016	12904.32	3.9120	3.9122	-0.9287	24.79	1.95	-0.050			
0.2026	12963.91	3.9110	3.9112	-0.9263	24.89	2.05	-0.050			
0.2035	13023.65	3.9100	3.9099	-0.9250	24.99	2.15	-0.050			
0.2044	13082.18	3.9090	3.9087	-0.9281	25.07	2.23	-0.050			
0.2053	13141.79	3.9080	3.9081	-0.9261	25.17	2.33	-0.050			
0.2063	13202.06	3.9070	3.9071	-0.9299	25.26	2.42	-0.050			
0.2072	13260.71	3.9060	3.9058	-0.9287	25.35	2.51	-0.050			
0.2081	13319.75	3.9050	3.9053	-0.9276	25.44	2.60	-0.050			
0.2090	13377.56	3.9040	3.9041	-0.9285	25.52	2.68	-0.050			
0.2100	13437.17	3.9030	3.9029	-0.9302	25.61	2.77	-0.050			
0.2109	13495.59	3.9020	3.9018	-0.9318	25.69	2.85	-0.050			
0.2118	13555.33	3.9010	3.9008	-0.9361	25.78	2.94	-0.050			
0.2128	13616.14	3.9000	3.8998	-0.9363	25.87	3.03	-0.050			
0.2137	13676.11	3.8990	3.8992	-0.9385	25.95	3.11	-0.050			
0.2146	13736.05	3.8980	3.8979	-0.9360	26.03	3.19	-0.050			
0.2156	13796.38	3.8970	3.8972	-0.9392	26.11	3.27	-0.050			
0.2165	13856.69	3.8960	3.8961	-0.9432	26.18	3.34	-0.050			
0.2175	13916.80	3.8950	3.8948	-0.9434	26.26	3.42	-0.050			
0.2184	13978.02	3.8940	3.8941	-0.9472	26.34	3.50	-0.050			
0.2194	14040.06	3.8930	3.8930	-0.9488	26.42	3.58	-0.050			
0.2203	14100.81	3.8920	3.8919	-0.9486	26.49	3.65	-0.050	0.320	0.467	
0.2213	14161.27	3.8910	3.8911	-0.9498	26.55	3.71	-0.050			
0.2222	14222.56	3.8900	3.8901	-0.9500	26.61	3.77	-0.050			
0.2232	14282.97	3.8890	3.8891	-0.9458	26.68	3.84	-0.050			
0.2241	14344.52	3.8880	3.8877	-0.9450	26.75	3.91	-0.050			
0.2251	14405.04	3.8870	3.8869	-0.9440	26.80	3.96	-0.050			
0.2260	14465.42	3.8860	3.8860	-0.9429	26.87	4.03	-0.050			
0.2270	14525.96	3.8850	3.8850	-0.9409	26.92	4.08	-0.050			
0.2279	14585.01	3.8840	3.8841	-0.9404	26.97	4.13	-0.050			
0.2288	14644.58	3.8830	3.8829	-0.9432	27.03	4.19	-0.050			
0.2298	14704.64	3.8820	3.8819	-0.9436	27.08	4.24	-0.050			
0.2307	14765.51	3.8810	3.8812	-0.9413	27.14	4.30	-0.050			
0.2317	14827.38	3.8800	3.8801	-0.9412	27.18	4.34	-0.050			
0.2326	14887.89	3.8790	3.8787	-0.9395	27.19	4.35	-0.050			
0.2336	14947.21	3.8780	3.8779	-0.9376	27.19	4.35	-0.050			
0.2345	15006.54	3.8770	3.8771	-0.9353	27.21	4.37	-0.050			
0.2354	15066.29	3.8760	3.8760	-0.9347	27.22	4.38	-0.050			
0.2363	15126.12	3.8750	3.8750	-0.9340	27.24	4.40	-0.050			
0.2373	15185.43	3.8740	3.8739	-0.9368	27.26	4.42	-0.050			
0.2382	15245.96	3.8730	3.8734	-0.9375	27.27	4.43	-0.050			
0.2392	15306.03	3.8720	3.8720	-0.9351	27.29	4.45	-0.050			
0.2401	15365.98	3.8710	3.8710	-0.9344	27.32	4.48	-0.050	0.381	0.535	
0.2410	15425.76	3.8700	3.8700	-0.9384	27.34	4.50	-0.050			
0.2420	15485.61	3.8690	3.8689	-0.9410	27.36	4.52	-0.050			
0.2429	15545.02	3.8680	3.8682	-0.9425	27.39	4.55	-0.050			
0.2438	15605.54	3.8670	3.8670	-0.9397	27.40	4.56	-0.050			
0.2448	15665.94	3.8660	3.8661	-0.9391	27.42	4.58	-0.050			
0.2457	15726.08	3.8650	3.8651	-0.9391	27.40	4.56	-0.050			
0.2466	15785.27	3.8640	3.8640	-0.9389	27.37	4.53	-0.050			
0.2476	15845.54	3.8630	3.8630	-0.9402	27.37	4.53	-0.050			
0.2485	15906.68	3.8620	3.8618	-0.9438	27.36	4.52	-0.050			
0.2495	15967.00	3.8610	3.8610	-0.9476	27.36	4.52	-0.050			
0.2504	16027.83	3.8600	3.8602	-0.9502	27.37	4.53	-0.050			
0.2514	16088.58	3.8590	3.8592	-0.9514	27.36	4.52	-0.050			
0.2523	16149.12	3.8580	3.8581	-0.9503	27.38	4.54	-0.050			
0.2533	16210.47	3.8570	3.8566	-0.9495	27.38	4.54	-0.050			
0.2543	16273.07	3.8560	3.8561	-0.9439	27.40	4.56	-0.050			
0.2552	16333.88	3.8550	3.8550	-0.9403	27.41	4.57	-0.050			
0.2562	16395.55	3.8540	3.8539	-0.9324	27.42	4.58	-0.050			
0.2571	16456.55	3.8530	3.8529	-0.9301	27.45	4.61	-0.050			
0.2581	16516.68	3.8520	3.8517	-0.9242	27.46	4.62	-0.050			
0.2590	16575.91	3.8510	3.8511	-0.9150	27.48	4.64	-0.050			
0.2599	16634.12	3.8500	3.8501	-0.9039	27.49	4.65	-0.050	0.081	0.647	
0.2608	16692.35	3.8490	3.8492	-0.8989	27.45	4.61	-0.050			
0.2617	16750.07	3.8480	3.8481	-0.8929	27.32	4.48	-0.050			
0.2626	16807.00	3.8470	3.8468	-0.8837	27.12	4.28	-0.050			
0.2635	16862.76	3.8460	3.8459	-0.8786	26.88	4.04	-0.050			
0.2643	16918.17	3.8450	3.8451	-0.8703	26.61	3.77	-0.050			
0.2652	16971.73	3.8440	3.8438	-0.8630	26.32	3.48	-0.050			
0.2660	17026.16	3.8430	3.8430	-0.8567	26.00	3.16	-0.050			
0.2669	17079.40	3.8420	3.8419	-0.8497	25.68	2.84	-0.050			
0.2677	17131.89	3.8410	3.8409	-0.8439	25.36	2.52	-0.050			
0.2685	17185.13	3.8400	3.8399	-0.8438	25.03	2.19	-0.050			
0.2693	17238.26	3.8390	3.8391	-0.8440	24.72	1.88	-0.050			
0.2702	17292.02	3.8380	3.8380	-0.8449	24.41	1.57	-0.050			
0.2710	17346.26	3.8370	3.8370	-0.8476	24.11	1.27	-0.050			
0.2719	17400.16	3.8360	3.8360	-0.8523	23.83	0.99	-0.050			
0.2727	17453.69	3.8350	3.8351	-0.8569	23.57	0.73	-0.050			
0.2736	17508.37	3.8340	3.8342	-0.8608	23.35	0.51	-0.050			
0.2744	17562.94	3.8330	3.8331	-0.8657	23.15	0.31	-0.050			
0.2753	17618.09	3.8320	3.8318	-0.8695	22.99	0.15	-0.050			
0.2762	17674.06	3.8310	3.8309	-0.8727	22.85	0.01	-0.050			
0.2770	17730.27	3.8300	3.8301	-0.8804	22.74	-0.10	-0.050			
0.2779	17786.46	3.8290	3.8289	-0.8831	22.65	-0.19	-0.050			
0.2788	17843.50	3.8280	3.8278	-0.8894	22.58	-0.26	-0.050			
0.2797	17900.58	3.8270	3.8271	-0.8937	22.53	-0.31	-0.050			
0.2806	17958.20	3.8260	3.8261	-0.8984	22.50	-0.34	-0.050	0.402	0.593	
0.2815	18015.01	3.8250	3.8253	-0.9060	22.48	-0.36	-0.050			
0.2824	18073.82	3.8240	3.8240	-0.9142	22.47	-0.37	-0.050			
0.2833	18133.01	3.8230	3.8233	-0.9206	22.48	-0.36	-0.050			
0.2843	18192.95	3.8220	3.8221	-0.9241	22.52	-0.32	-0.050			
0.2852	18252.79	3.8210	3.8208	-0.9264	22.56	-0.28	-0.050			
0.2861	18312.55	3.8200	3.8201	-0.9283	22.62	-0.22	-0.050			
0.2871	18373.05	3.8190	3.8188	-0.9292	22.68	-0.16	-0.050			
0.2880	18432.86	3.8180	3.8180	-0.9291	22.78	-0.06	-0.050			
0.2890	18493.09	3.8170	3.8170	-0.9290	22.88	0.04	-0.050			
0.2899	18553.04	3.8160	3.8159	-0.9270	22.98	0.14	-0.050			
0.2908	18612.62	3.8150	3.8150	-0.9264	23.10	0.26	-0.050			
0.2918	18673.35	3.8140	3.8141	-0.9267	23.23	0.39	-0.050			
0.2927	18733.37	3.8130	3.8132	-0.9231	23.36	0.52	-0.050			
0.2936	18792.89	3.8120	3.8122	-0.9195	23.49	0.65	-0.050			
0.2946	18852.17	3.8110	3.8108	-0.9152	23.61	0.77	-0.050			
0.2955	18911.08	3.8100	3.8099	-0.9076	23.74	0.90	-0.050			
0.2964	18969.48	3.8090	3.8088	-0.9029	23.87	1.03	-0.050			
0.2973	19026.88	3.8080	3.8079	-0.8961	23.99	1.15	-0.050			
0.2982	19084.18	3.8070	3.8071	-0.8908	24.11	1.27	-0.050			
0.2991	19139.91	3.8060	3.8059	-0.8837	24.22	1.38	-0.050			
0.2999	19195.27	3.8050	3.8050	-0.8759	24.34	1.50	-0.050	0.237	0.405	
0.3008	19251.76	3.8040	3.8041	-0.8687	24.44	1.60	-0.050			
0.3017	19308.18	3.8030	3.8031	-0.8635	24.54	1.70	-0.050			
0.3026	19364.62	3.8020	3.8019	-0.8558	24.64	1.80	-0.050			
0.3034	19420.42	3.8010	3.8009	-0.8472	24.73	1.89	-0.050			
0.3043	19473.15	3.8000	3.8000	-0.8420	24.81	1.97	-0.050			
0.3051	19526.92	3.7990	3.7990	-0.8332	24.90	2.06	-0.050			
0.3059	19579.78	3.7980	3.7981	-0.8240	24.99	2.15	-0.050			
0.3068	19632.37	3.7970	3.7970	-0.8158	25.07	2.23	-0.050			
0.3076	19684.83	3.7960	3.7960	-0.8079	25.16	2.32	-0.050			
0.3084	19736.14	3.7950	3.7952	-0.7988	25.24	2.40	-0.050			
0.3092	19787.08	3.7940	3.7942	-0.7888	25.32	2.48	-0.050			
0.3100	19837.25	3.7930	3.7929	-0.7817	25.40	2.56	-0.050			
0.3107	19887.84	3.7920	3.7919	-0.7712	25.48	2.64	-0.050			
0.3115	19936.72	3.7910	3.7907	-0.7607	25.55	2.71	-0.050			
0.3123	19985.48	3.7900	3.7901	-0.7500	25.62	2.78	-0.050			
0.3130	20032.92	3.7890	3.7894	-0.7415	25.69	2.85	-0.050			
0.3137	20079.13	3.7880	3.7881	-0.7310	25.76	2.92	-0.050			
0.3145	20125.02	3.7870	3.7871	-0.7230	25.82	2.98	-0.050			
0.3152	20170.79	3.7860	3.7860	-0.7126	25.89	3.05	-0.050			
0.3159	20215.92	3.7850	3.7850	-0.7079	25.95	3.11	-0.050			
0.3166	20261.89	3.7840	3.7839	-0.7008	26.02	3.18	-0.050			
0.3173	20306.64	3.7830	3.7831	-0.6938	26.08	3.24	-0.050			
0.3180	20350.11	3.7820	3.7820	-0.6858	26.15	3.31	-0.050			
0.3187	20393.75	3.7810	3.7808	-0.6774	26.21	3.37	-0.050			
0.3193	20434.55	3.7800	3.7799	-0.6662	26.26	3.42	-0.050			
0.3199	20476.60	3.7790	3.7788	-0.6617	26.32	3.48	-0.050			
0.3206	20520.12	3.7780	3.7781	-0.6569	26.38	3.54	-0.050			
0.3213	20562.11	3.7770	3.7770	-0.6491	26.43	3.59	-0.050			
0.3219	20603.16	3.7760	3.7759	-0.6438	26.49	3.65	-0.050			
0.3226	20644.48	3.7750	3.7752	-0.6370	26.54	3.70	-0.050			
0.3232	20684.94	3.7740	3.7740	-0.6313	26.58	3.74	-0.050			
0.3238	20724.99	3.7730	3.7729	-0.6259	26.63	3.79	-0.050			
0.3245	20765.08	3.7720	3.7720	-0.6219	26.67	3.83	-0.050			
0.3251	20804.69	3.7710	3.7709	-0.6159	26.72	3.88	-0.050			
0.3257	20843.95	3.7700	3.7699	-0.6108	26.76	3.92	-0.050			
0.3263	20881.93	3.7690	3.7694	-0.6055	26.81	3.97	-0.050			
0.3269	20918.92	3.7680	3.7682	-0.6039	26.85	4.01	-0.050			
0.3275	20957.26	3.7670	3.7668	-0.6012	26.88	4.04	-0.050			
0.3281	20995.25	3.7660	3.7660	-0.5985	26.92	4.08	-0.050			
0.3286	21033.31	3.7650	3.7650	-0.5974	26.96	4.12	-0.050			
0.3292	21070.59	3.7640	3.7640	-0.5947	26.99	4.15	-0.050			
0.3298	21108.67	3.7630	3.7629	-0.5967	27.03	4.19	-0.050			
0.3304	21145.69	3.7620	3.7620	-0.5970	27.06	4.22	-0.050			
0.3310	21183.19	3.7610	3.7612	-0.5988	27.08	4.24	-0.050			
0.3316	21221.50	3.7600	3.7599	-0.6005	27.09	4.25	-0.050			
0.3322	21259.24	3.7590	3.7590	-0.6022	27.09	4.25	-0.050			
0.3328	21296.95	3.7580	3.7583	-0.6092	27.10	4.26	-0.050			
0.3334	21336.79	3.7570	3.7570	-0.6141	27.11	4.27	-0.050			
0.3340	21375.74	3.7560	3.7559	-0.6178	27.12	4.28	-0.050			
0.3346	21414.17	3.7550	3.7550	-0.6237	27.13	4.29	-0.050			
0.3352	21454.06	3.7540	3.7539	-0.6315	27.14	4.30	-0.050			
0.3358	21493.31	3.7530	3.7531	-0.6395	27.16	4.32	-0.050			
0.3365	21534.35	3.7520	3.7520	-0.6465	27.18	4.34	-0.050			
0.3371	21576.41	3.7510	3.7511	-0.6539	27.19	4.35	-0.050			
0.3378	21617.81	3.7500	3.7498	-0.6638	27.21	4.37	-0.050			
0.3384	21660.04	3.7490	3.7490	-0.6733	27.23	4.39	-0.050			
0.3391	21702.28	3.7480	3.7482	-0.6822	27.24	4.40	-0.050			
0.3398	21746.42	3.7470	3.7471	-0.6935	27.26	4.42	-0.050			
0.3405	21791.60	3.7460	3.7458	-0.7053	27.28	4.44	-0.050	0.383	0.575	
0.3412	21836.88	3.7450	3.7449	-0.7176	27.31	4.47	-0.050			
0.3419	21883.34	3.7440	3.7440	-0.7276	27.33	4.49	-0.050			
0.3426	21929.29	3.7430	3.7430	-0.7416	27.35	4.51	-0.050			
0.3434	21976.35	3.7420	3.7420	-0.7550	27.37	4.53	-0.050			
0.3441	22024.86	3.7410	3.7409	-0.7686	27.40	4.56	-0.050			
0.3449	22074.33	3.7400	3.7400	-0.7831	27.42	4.58	-0.050			
0.3457	22124.90	3.7390	3.7389	-0.7970	27.44	4.60	-0.050			
0.3465	22175.82	3.7380	3.7381	-0.8086	27.46	4.62	-0.050			
0.3473	22228.02	3.7370	3.7370	-0.8245	27.49	4.65	-0.050			
0.3481	22280.65	3.7360	3.7360	-0.8424	27.51	4.67	-0.050			
0.3490	22335.20	3.7350	3.7350	-0.8541	27.53	4.69	-0.050			
0.3499	22390.62	3.7340	3.7339	-0.8663	27.55	4.71	-0.050			
0.3507	22447.51	3.7330	3.7331	-0.8799	27.57	4.73	-0.050			
0.3517	22506.00	3.7320	3.7323	-0.8892	27.60	4.76	-0.050			
0.3526	22565.03	3.7310	3.7307	-0.9008	27.62	4.78	-0.050			
0.3535	22623.56	3.7300	3.7297	-0.9098	27.63	4.79	-0.050			
0.3544	22684.36	3.7290	3.7290	-0.9147	27.67	4.83	-0.050			
0.3554	22744.85	3.7280	3.7277	-0.9178	27.69	4.85	-0.050			
0.3563	22805.96	3.7270	3.7269	-0.9237	27.71	4.87	-0.050			
0.3573	22865.74	3.7260	3.7263	-0.9258	27.73	4.89	-0.050			
0.3582	22926.33	3.7250	3.7249	-0.9234	27.70	4.86	-0.050			
0.3592	22986.50	3.7240	3.7240	-0.9233	27.59	4.75	-0.050			
0.3601	23045.00	3.7230	3.7232	-0.9226	27.39	4.55	-0.050			
0.3610	23103.24	3.7220	3.7222	-0.9234	27.14	4.30	-0.050			
0.3619	23162.04	3.7210	3.7208	-0.9243	26.85	4.01	-0.050			
0.3628	23220.19	3.7200	3.7201	-0.9244	26.53	3.69	-0.050			
0.3637	23276.62	3.7190	3.7191	-0.9309	26.20	3.36	-0.050			
0.3646	23335.34	3.7180	3.7176	-0.9326	25.84	3.00	-0.050			
0.3655	23391.86	3.7170	3.7169	-0.9394	25.49	2.65	-0.050			
0.3664	23449.47	3.7160	3.7162	-0.9470	25.12	2.28	-0.050			
0.3673	23508.64	3.7150	3.7148	-0.9643	24.77	1.93	-0.050			
0.3682	23567.91	3.7140	3.7140	-0.9797	24.42	1.58	-0.050			
0.3692	23630.23	3.7130	3.7130	-0.9978	24.07	1.23	-0.050			
0.3702	23693.22	3.7120	3.7120	-1.0156	23.75	0.91	-0.050			
0.3712	23757.93	3.7110	3.7108	-1.0416	23.46	0.62	-0.050			
0.3723	23824.72	3.7100	3.7098	-1.0609	23.18	0.34	-0.050			
0.3733	23893.40	3.7090	3.7093	-1.0885	22.95	0.11	-0.050			
0.3744	23963.79	3.7080	3.7075	-1.1170	22.78	-0.06	-0.050			
0.3755	24035.10	3.7070	3.7071	-1.1413	22.64	-0.20	-0.050			
0.3767	24107.26	3.7060	3.7062	-1.1744	22.53	-0.31	-0.050			
0.3779	24183.69	3.7050	3.7049	-1.2055	22.45	-0.39	-0.050			
0.3791	24261.10	3.7040	3.7042	-1.2365	22.40	-0.44	-0.050			
0.3803	24341.29	3.7030	3.7028	-1.2633	22.39	-0.45	-0.050	0.461	0.574	
0.3816	24422.06	3.7020	3.7019	-1.2976	22.40	-0.44	-0.050			
0.3829	24506.54	3.7010	3.7009	-1.3289	22.46	-0.38	-0.050			
0.3843	24593.17	3.7000	3.6998	-1.3599	22.56	-0.28	-0.050			
0.3856	24681.04	3.6990	3.6989	-1.3880	22.69	-0.15	-0.050			
0.3871	24772.80	3.6980	3.6978	-1.4168	22.86	0.02	-0.050			
0.3885	24864.67	3.6970	3.6968	-1.4421	23.05	0.21	-0.050			
0.3900	24959.68	3.6960	3.6961	-1.4657	23.27	0.43	-0.050			
0.3915	25055.66	3.6950	3.6951	-1.4913	23.50	0.66	-0.050			
0.3930	25153.17	3.6940	3.6940	-1.5176	23.73	0.89	-0.050			
0.3946	25252.76	3.6930	3.6928	-1.5439	23.95	1.11	-0.050			
0.3962	25353.80	3.6920	3.6923	-1.5616	24.18	1.34	-0.050			
0.3977	25455.29	3.6910	3.6912	-1.5776	24.40	1.56	-0.050			
0.3994	25559.03	3.6900	3.6902	-1.5951	24.60	1.76	-0.050			
0.4010	25662.02	3.6890	3.6887	-1.6067	24.78	1.94	-0.050			
0.4026	25765.60	3.6880	3.6882	-1.6229	24.95	2.11	-0.050			
0.4042	25868.70	3.6870	3.6870	-1.6390	25.11	2.27	-0.050			
0.4058	25972.83	3.6860	3.6860	-1.6538	25.28	2.44	-0.050			
0.4075	26078.80	3.6850	3.6850	-1.6737	25.44	2.60	-0.050			
0.4091	26184.73	3.6840	3.6841	-1.6931	25.60	2.76	-0.050			
0.4108	26293.87	3.6830	3.6832	-1.7062	25.76	2.92	-0.050			
0.4126	26403.62	3.6820	3.6820	-1.7216	25.92	3.08	-0.050			
0.4143	26514.91	3.6810	3.6809	-1.7416	26.09	3.25	-0.050			
0.4160	26625.95	3.6800	3.6800	-1.7598	26.24	3.40	-0.050			
0.4178	26739.84	3.6790	3.6791	-1.7813	26.40	3.56	-0.050			
0.4196	26851.88	3.6780	3.6780	-1.8012	26.54	3.70	-0.050	0.646	0.704	
0.4214	26969.06	3.6770	3.6771	-1.8227	26.68	3.84	-0.050			
0.4232	27085.80	3.6760	3.6759	-1.8399	26.82	3.98	-0.050			
0.4251	27207.18	3.6750	3.6752	-1.8527	26.94	4.10	-0.050			
0.4270	27330.00	3.6740	3.6739	-1.8611	27.08	4.24	-0.050			
0.4290	27452.82	3.6730	3.6728	-1.8707	27.19	4.35	-0.050			
0.4309	27579.02	3.6720	3.6720	-1.8650	27.31	4.47	-0.050			
0.4328	27701.21	3.6710	3.6708	-1.8556	27.41	4.57	-0.050			
0.4348	27825.21	3.6700	3.6699	-1.8443	27.51	4.67	-0.050			
0.4367	27946.63	3.6690	3.6688	-1.8199	27.60	4.76	-0.050			
0.4385	28063.63	3.6680	3.6682	-1.8012	27.69	4.85	-0.050			
0.4403	28180.70	3.6670	3.6673	-1.7845	27.77	4.93	-0.050	0.513	0.559	
0.4421	28294.38	3.6660	3.6662	-1.7654	27.83	4.99	-0.050			
0.4438	28404.90	3.6650	3.6652	-1.7477	27.71	4.87	-0.050			
0.4456	28515.73	3.6640	3.6642	-1.7308	27.31	4.47	-0.050			
0.4472	28622.92	3.6630	3.6629	-1.7270	26.79	3.95	-0.050			
0.4488	28725.47	3.6620	3.6620	-1.7132	26.22	3.38	-0.050			
0.4504	28826.79	3.6610	3.6612	-1.7229	25.63	2.79	-0.050			
0.4520	28925.22	3.6600	3.6598	-1.7328	25.06	2.22	-0.050			
0.4535	29026.65	3.6590	3.6591	-1.7684	24.51	1.67	-0.050			
0.4551	29127.47	3.6580	3.6584	-1.8010	24.01	1.17	-0.050			
0.4568	29236.99	3.6570	3.6568	-1.8574	23.55	0.71	-0.050			
0.4585	29344.38	3.6560	3.6559	-1.9232	23.18	0.34	-0.050			
0.4604	29463.29	3.6550	3.6550	-1.9987	22.88	0.04	-0.050	0.451	0.645	
0.4623	29590.07	3.6540	3.6537	-2.0784	22.69	-0.15	-0.050			
0.4645	29726.06	3.6530	3.6531	-2.1735	22.60	-0.24	-0.050			
0.4667	29870.84	3.6520	3.6518	-2.2502	22.62	-0.22	-0.050			
0.4691	30020.73	3.6510	3.6510	-2.3323	22.77	-0.07	-0.050			
0.4715	30173.32	3.6500	3.6499	-2.4373	23.02	0.18	-0.050			
0.4739	30331.14	3.6490	3.6489	-2.5166	23.35	0.51	-0.050			
0.4765	30498.48	3.6480	3.6481	-2.5816	23.74	0.90	-0.050			
0.4792	30669.48	3.6470	3.6468	-2.6514	24.13	1.29	-0.050	0.252	0.483	
0.4820	30850.72	3.6460	3.6462	-2.7147	24.50	1.66	-0.050			
0.4849	31035.92	3.6450	3.6453	-2.7694	24.84	2.00	-0.050			
0.4878	31219.71	3.6440	3.6443	-2.8183	25.11	2.27	-0.050			
0.4907	31404.76	3.6430	3.6429	-2.8458	25.38	2.54	-0.050			
0.4936	31589.86	3.6420	3.6419	-2.8735	25.63	2.79	-0.050			
0.4965	31774.64	3.6410	3.6410	-2.8946	25.85	3.01	-0.050			
0.4994	31959.03	3.6400	3.6398	-2.9150	26.10	3.26	-0.050	0.399	0.617	
0.5023	32148.29	3.6390	3.6390	-2.9172	26.31	3.47	-0.050			
0.5052	32333.53	3.6380	3.6379	-2.9266	26.53	3.69	-0.050			
0.5082	32523.18	3.6370	3.6370	-2.9542	26.71	3.87	-0.050			
0.5112	32714.02	3.6360	3.6361	-2.9666	26.89	4.05	-0.050			
0.5142	32905.83	3.6350	3.6349	-2.9874	27.06	4.22	-0.050			
0.5172	33100.48	3.6340	3.6340	-2.9862	27.21	4.37	-0.050			
0.5204	33302.49	3.6330	3.6328	-2.9561	27.22	4.38	-0.050			
0.5234	33500.00	3.6320	3.6320	-2.9086	27.26	4.42	-0.050			
0.5265	33693.40	3.6310	3.6309	-2.8497	27.33	4.49	-0.050			
0.5294	33880.66	3.6300	3.6300	-2.7989	27.40	4.56	-0.050			
0.5322	34059.83	3.6290	3.6293	-2.7397	27.48	4.64	-0.050			
0.5348	34230.14	3.6280	3.6281	-2.6836	27.56	4.72	-0.050			
0.5374	34391.51	3.6270	3.6274	-2.6224	27.59	4.75	-0.050			
0.5398	34549.20	3.6260	3.6269	-2.5705	27.10	4.26	-0.050			
0.5422	34701.63	3.6250	3.6253	-2.5384	26.34	3.50	-0.050			
0.5446	34854.96	3.6240	3.6241	-2.5149	25.45	2.61	-0.050			
0.5468	34997.17	3.6230	3.6227	-2.5282	24.62	1.78	-0.050			
0.5491	35144.36	3.6220	3.6219	-2.5684	23.83	0.99	-0.050			
0.5515	35296.05	3.6210	3.6208	-2.6153	23.17	0.33	-0.050			
0.5539	35452.43	3.6200	3.6197	-2.7170	22.71	-0.13	-0.050			
0.5565	35616.27	3.6190	3.6188	-2.8373	22.43	-0.41	-0.050			
0.5592	35791.19	3.6180	3.6176	-2.9697	22.31	-0.53	-0.050	0.330	0.525	
0.5621	35976.45	3.6170	3.6173	-3.0923	22.39	-0.45	-0.050			
0.5653	36181.16	3.6160	3.6161	-3.2042	22.69	-0.15	-0.050			
0.5687	36398.12	3.6150	3.6149	-3.2822	23.16	0.32	-0.050			
0.5723	36627.04	3.6140	3.6141	-3.3339	23.73	0.89	-0.050			
0.5760	36863.29	3.6130	3.6131	-3.4030	24.31	1.47	-0.050			
0.5796	37093.62	3.6120	3.6118	-3.4013	24.79	1.95	-0.050			
0.5832	37324.64	3.6110	3.6109	-3.3768	25.17	2.33	-0.050			
0.5867	37545.65	3.6100	3.6098	-3.2916	25.53	2.69	-0.050			
0.5899	37753.74	3.6090	3.6090	-3.1874	25.85	3.01	-0.050			
0.5930	37954.02	3.6080	3.6080	-3.0712	26.15	3.31	-0.050			
0.5960	38146.86	3.6070	3.6069	-2.9629	26.41	3.57	-0.050			
0.5990	38332.93	3.6060	3.6064	-2.8486	26.65	3.81	-0.050			
0.6018	38512.15	3.6050	3.6049	-2.7420	26.84	4.00	-0.050	0.277	0.672	
0.6044	38681.15	3.6040	3.6040	-2.6332	27.03	4.19	-0.050			
0.6069	38843.14	3.6030	3.6034	-2.5221	27.18	4.34	-0.050			
0.6093	38993.86	3.6020	3.6021	-2.4158	27.32	4.48	-0.050			
0.6116	39140.25	3.6010	3.6011	-2.3199	27.44	4.60	-0.050			
0.6140	39292.91	3.6000	3.6001	-2.2151	27.57	4.73	-0.050			
0.6160	39425.14	3.5990	3.5991	-2.1343	27.67	4.83	-0.050			
0.6180	39551.94	3.5980	3.5981	-2.0539	27.68	4.84	-0.050			
0.6199	39674.25	3.5970	3.5970	-1.9813	27.38	4.54	-0.050	0.523	0.556	
0.6217	39789.27	3.5960	3.5959	-1.9286	26.90	4.06	-0.050			
0.6235	39906.09	3.5950	3.5949	-1.8806	26.33	3.49	-0.050			
0.6252	40015.94	3.5940	3.5940	-1.8401	25.74	2.90	-0.050			
0.6269	40123.02	3.5930	3.5930	-1.8186	25.18	2.34	-0.050			
0.6286	40230.40	3.5920	3.5920	-1.7995	24.66	1.82	-0.050			
0.6303	40338.09	3.5910	3.5909	-1.7815	24.19	1.35	-0.050			
0.6320	40445.74	3.5900	3.5897	-1.7779	23.79	0.95	-0.050			
0.6337	40556.50	3.5890	3.5888	-1.7787	23.46	0.62	-0.050			
0.6354	40666.49	3.5880	3.5880	-1.7881	23.23	0.39	-0.050			
0.6372	40781.41	3.5870	3.5870	-1.8033	23.08	0.24	-0.050			
0.6390	40898.65	3.5860	3.5861	-1.8179	23.00	0.16	-0.050			
0.6409	41016.40	3.5850	3.5847	-1.8308	23.00	0.16	-0.050	0.141	0.631	
0.6428	41136.22	3.5840	3.5839	-1.8442	23.06	0.22	-0.050			
0.6446	41256.68	3.5830	3.5832	-1.8567	23.20	0.36	-0.050			
0.6466	41379.86	3.5820	3.5820	-1.8641	23.39	0.55	-0.050			
0.6485	41501.88	3.5810	3.5809	-1.8677	23.62	0.78	-0.050			
0.6504	41623.45	3.5800	3.5803	-1.8658	23.85	1.01	-0.050			
0.6523	41745.77	3.5790	3.5788	-1.8671	24.09	1.25	-0.050			
0.6542	41867.54	3.5780	3.5783	-1.8605	24.34	1.50	-0.050			
0.6560	41986.61	3.5770	3.5769	-1.8512	24.56	1.72	-0.050			
0.6579	42106.03	3.5760	3.5759	-1.8448	24.77	1.93	-0.050			
0.6598	42225.02	3.5750	3.5750	-1.8331	24.95	2.11	-0.050	0.189	0.469	
0.6616	42342.22	3.5740	3.5743	-1.8163	25.12	2.28	-0.050			
0.6634	42458.68	3.5730	3.5729	-1.8014	25.29	2.45	-0.050			
0.6652	42574.24	3.5720	3.5719	-1.7855	25.47	2.63	-0.050			
0.6670	42688.69	3.5710	3.5711	-1.7694	25.63	2.79	-0.050			
0.6688	42800.82	3.5700	3.5698	-1.7484	25.78	2.94	-0.050			
0.6705	42913.16	3.5690	3.5689	-1.7278	25.93	3.09	-0.050			
0.6722	43023.02	3.5680	3.5680	-1.7119	26.08	3.24	-0.050			
0.6739	43131.94	3.5670	3.5673	-1.6969	26.21	3.37	-0.050			
0.6756	43239.29	3.5660	3.5662	-1.6818	26.35	3.51	-0.050			
0.6773	43345.67	3.5650	3.5650	-1.6672	26.47	3.63	-0.050			
0.6789	43451.48	3.5640	3.5639	-1.6548	26.60	3.76	-0.050			
0.6805	43554.30	3.5630	3.5630	-1.6488	26.70	3.86	-0.050			
0.6822	43658.05	3.5620	3.5620	-1.6394	26.82	3.98	-0.050			
0.6838	43760.00	3.5610	3.5609	-1.6291	26.91	4.07	-0.050			
0.6853	43861.67	3.5600	3.5600	-1.6307	27.01	4.17	-0.050			
0.6869	43964.44	3.5590	3.5588	-1.6265	27.10	4.26	-0.050			
0.6885	44065.46	3.5580	3.5580	-1.6229	27.20	4.36	-0.050			
0.6901	44167.97	3.5570	3.5570	-1.6260	27.28	4.44	-0.050			
0.6917	44271.85	3.5560	3.5560	-1.6330	27.37	4.53	-0.050			
0.6934	44377.30	3.5550	3.5550	-1.6386	27.35	4.51	-0.050			
0.6950	44483.09	3.5540	3.5539	-1.6429	27.25	4.41	-0.050			
0.6967	44589.04	3.5530	3.5531	-1.6458	27.21	4.37	-0.050			
0.6984	44695.39	3.5520	3.5521	-1.6489	27.18	4.34	-0.050			
0.7001	44803.84	3.5510	3.5510	-1.6505	27.18	4.34	-0.050	0.335	0.648	
0.7017	44911.82	3.5500	3.5500	-1.6483	27.18	4.34	-0.050			
0.7034	45019.97	3.5490	3.5491	-1.6436	27.19	4.35	-0.050			
0.7051	45126.84	3.5480	3.5483	-1.6304	27.23	4.39	-0.050			
0.7068	45233.23	3.5470	3.5470	-1.6179	27.26	4.42	-0.050			
0.7084	45339.67	3.5460	3.5459	-1.6040	27.30	4.46	-0.050			
0.7101	45444.41	3.5450	3.5450	-1.5816	27.34	4.50	-0.050			
0.7117	45546.89	3.5440	3.5441	-1.5574	27.39	4.55	-0.050			
0.7133	45648.19	3.5430	3.5434	-1.5293	27.32	4.48	-0.050			
0.7148	45748.41	3.5420	3.5421	-1.5019	27.02	4.18	-0.050			
0.7163	45845.44	3.5410	3.5410	-1.4691	26.60	3.76	-0.050			
0.7178	45938.05	3.5400	3.5400	-1.4336	26.11	3.27	-0.050			
0.7192	46029.75	3.5390	3.5389	-1.4018	25.61	2.77	-0.050			
0.7206	46118.58	3.5380	3.5381	-1.3630	25.09	2.25	-0.050	0.203	0.602	
0.7219	46202.24	3.5370	3.5371	-1.3322	24.63	1.79	-0.050			
0.7232	46286.82	3.5360	3.5359	-1.3016	24.20	1.36	-0.050			
0.7245	46368.09	3.5350	3.5354	-1.2692	23.81	0.97	-0.050			
0.7257	46445.56	3.5340	3.5341	-1.2389	23.50	0.66	-0.050			
0.7269	46521.78	3.5330	3.5327	-1.2107	23.26	0.42	-0.050			
0.7281	46597.26	3.5320	3.5321	-1.1852	23.06	0.22	-0.050			
0.7292	46671.25	3.5310	3.5308	-1.1610	22.93	0.09	-0.050			
0.7304	46743.36	3.5300	3.5301	-1.1381	22.84	-0.00	-0.050			
0.7315	46814.80	3.5290	3.5291	-1.1158	22.77	-0.07	-0.050			
0.7326	46883.61	3.5280	3.5276	-1.0953	22.73	-0.11	-0.050			
0.7336	46952.33	3.5270	3.5270	-1.0807	22.72	-0.12	-0.050			
0.7347	47019.75	3.5260	3.5261	-1.0670	22.71	-0.13	-0.050			
0.7357	47086.65	3.5250	3.5249	-1.0531	22.74	-0.10	-0.050			
0.7368	47153.44	3.5240	3.5239	-1.0422	22.76	-0.08	-0.050			
0.7378	47219.66	3.5230	3.5233	-1.0312	22.81	-0.03	-0.050			
0.7388	47284.32	3.5220	3.5220	-1.0177	22.87	0.03	-0.050			
0.7398	47348.58	3.5210	3.5209	-1.0091	22.94	0.10	-0.050			
0.7408	47412.16	3.5200	3.5201	-0.9985	23.02	0.18	-0.050	0.244	0.631	
0.7418	47474.70	3.5190	3.5188	-0.9921	23.13	0.29	-0.050			
0.7428	47537.18	3.5180	3.5180	-0.9886	23.22	0.38	-0.050			
0.7437	47596.05	3.5170	3.5171	-0.9834	23.33	0.49	-0.050			
0.7447	47658.40	3.5160	3.5162	-0.9841	23.45	0.61	-0.050			
0.7456	47721.19	3.5150	3.5150	-0.9843	23.57	0.73	-0.050			
0.7466	47783.15	3.5140	3.5141	-0.9805	23.70	0.86	-0.050			
0.7476	47845.44	3.5130	3.5128	-0.9826	23.83	0.99	-0.050			
0.7486	47909.34	3.5120	3.5118	-0.9854	23.96	1.12	-0.050			
0.7496	47972.99	3.5110	3.5109	-0.9863	24.10	1.26	-0.050			
0.7506	48036.67	3.5100	3.5098	-0.9846	24.22	1.38	-0.050			
0.7516	48101.07	3.5090	3.5089	-0.9825	24.35	1.51	-0.050			
0.7526	48163.32	3.5080	3.5079	-0.9810	24.47	1.63	-0.050			
0.7535	48226.74	3.5070	3.5072	-0.9784	24.58	1.74	-0.050			
0.7545	48290.68	3.5060	3.5062	-0.9737	24.69	1.85	-0.050			
0.7555	48354.87	3.5050	3.5048	-0.9724	24.81	1.97	-0.050			
0.7565	48418.01	3.5040	3.5039	-0.9650	24.90	2.06	-0.050			
0.7575	48481.82	3.5030	3.5030	-0.9590	25.01	2.17	-0.050			
0.7585	48543.74	3.5020	3.5022	-0.9499	25.12	2.28	-0.050			
0.7594	48604.65	3.5010	3.5010	-0.9406	25.21	2.37	-0.050			
0.7604	48664.55	3.5000	3.5000	-0.9283	25.31	2.47	-0.050	0.117	0.537	
0.7613	48723.92	3.4990	3.4987	-0.9144	25.40	2.56	-0.050			
0.7622	48780.69	3.4980	3.4981	-0.9038	25.50	2.66	-0.050			
0.7631	48837.17	3.4970	3.4971	-0.8903	25.58	2.74	-0.050			
0.7640	48893.36	3.4960	3.4958	-0.8829	25.67	2.83	-0.050			
0.7648	48949.64	3.4950	3.4950	-0.8772	25.76	2.92	-0.050			
0.7657	49004.85	3.4940	3.4941	-0.8693	25.83	2.99	-0.050			
0.7665	49058.20	3.4930	3.4931	-0.8620	25.91	3.07	-0.050			
0.7674	49112.06	3.4920	3.4921	-0.8572	26.00	3.16	-0.050			
0.7682	49164.84	3.4910	3.4911	-0.8619	26.08	3.24	-0.050			
0.7690	49218.40	3.4900	3.4900	-0.8617	26.15	3.31	-0.050			
0.7699	49271.53	3.4890	3.4888	-0.8667	26.23	3.39	-0.050			
0.7707	49322.89	3.4880	3.4881	-0.8719	26.30	3.46	-0.050			
0.7715	49375.84	3.4870	3.4870	-0.8843	26.37	3.53	-0.050			
0.7723	49429.79	3.4860	3.4861	-0.9048	26.44	3.60	-0.050			
0.7732	49482.65	3.4850	3.4850	-0.9348	26.51	3.67	-0.050			
0.7740	49536.72	3.4840	3.4843	-0.9623	26.58	3.74	-0.050			
0.7749	49593.05	3.4830	3.4833	-1.0062	26.65	3.81	-0.050			
0.7758	49651.75	3.4820	3.4819	-1.0589	26.71	3.87	-0.050			
0.7767	49710.14	3.4810	3.4812	-1.1147	26.77	3.93	-0.050			
0.7778	49777.67	3.4800	3.4803	-1.1827	26.84	4.00	-0.050			
0.7789	49847.78	3.4790	3.4791	-1.2635	26.91	4.07	-0.050			
0.7801	49924.46	3.4780	3.4780	-1.3365	26.95	4.11	-0.050	0.405	0.606	
0.7814	50010.39	3.4770	3.4769	-1.4255	26.98	4.14	-0.050			
0.7828	50101.94	3.4760	3.4760	-1.5109	27.01	4.17	-0.050			
0.7844	50200.56	3.4750	3.4749	-1.6112	27.05	4.21	-0.050			
0.7861	50310.74	3.4740	3.4738	-1.7024	27.11	4.27	-0.050			
0.7880	50429.12	3.4730	3.4729	-1.7879	27.17	4.33	-0.050			
0.7899	50552.86	3.4720	3.4717	-1.8676	27.24	4.40	-0.050			
0.7920	50685.45	3.4710	3.4710	-1.9320	27.32	4.48	-0.050			
0.7941	50823.07	3.4700	3.4698	-1.9718	27.40	4.56	-0.050			
0.7963	50963.30	3.4690	3.4690	-2.0181	27.48	4.64	-0.050			
0.7985	51103.36	3.4680	3.4681	-2.0444	27.56	4.72	-0.050			
0.8007	51243.98	3.4670	3.4670	-2.0530	27.64	4.80	-0.050	0.282	0.562	
0.8029	51382.84	3.4660	3.4659	-2.0507	27.69	4.85	-0.050			
0.8050	51521.46	3.4650	3.4654	-2.0486	27.32	4.48	-0.050			
0.8071	51654.89	3.4640	3.4642	-2.0330	26.71	3.87	-0.050			
0.8092	51788.63	3.4630	3.4630	-2.0123	25.96	3.12	-0.050			
0.8112	51917.08	3.4620	3.4619	-1.9900	25.23	2.39	-0.050			
0.8131	52039.82	3.4610	3.4609	-1.9674	24.56	1.72	-0.050			
0.8150	52163.17	3.4600	3.4601	-1.9406	23.96	1.12	-0.050			
0.8169	52280.63	3.4590	3.4590	-1.9107	23.52	0.68	-0.050			
0.8187	52397.40	3.4580	3.4581	-1.8866	23.24	0.40	-0.050			
0.8205	52514.86	3.4570	3.4572	-1.8737	23.04	0.20	-0.050	0.267	0.620	
0.8223	52628.79	3.4560	3.4559	-1.8534	22.94	0.10	-0.050			
0.8241	52744.62	3.4550	3.4551	-1.8446	22.90	0.06	-0.050			
0.8260	52865.64	3.4540	3.4541	-1.8263	22.92	0.08	-0.050			
0.8279	52984.78	3.4530	3.4527	-1.8184	22.97	0.13	-0.050			
0.8297	53103.92	3.4520	3.4521	-1.8029	23.07	0.23	-0.050			
0.8316	53224.65	3.4510	3.4512	-1.7813	23.21	0.37	-0.050			
0.8334	53340.62	3.4500	3.4501	-1.7572	23.39	0.55	-0.050			
0.8353	53457.41	3.4490	3.4490	-1.7284	23.58	0.74	-0.050			
0.8371	53571.51	3.4480	3.4481	-1.6915	23.78	0.94	-0.050			
0.8388	53682.30	3.4470	3.4471	-1.6548	23.99	1.15	-0.050			
0.8404	53788.78	3.4460	3.4461	-1.6058	24.17	1.33	-0.050	0.496	0.622	
0.8421	53891.93	3.4450	3.4448	-1.5565	24.36	1.52	-0.050			
0.8436	53991.77	3.4440	3.4438	-1.5069	24.52	1.68	-0.050			
0.8451	54088.85	3.4430	3.4435	-1.4566	24.69	1.85	-0.050			
0.8465	54178.80	3.4420	3.4421	-1.3984	24.82	1.98	-0.050			
0.8479	54267.89	3.4410	3.4411	-1.3465	24.95	2.11	-0.050			
0.8493	54352.59	3.4400	3.4400	-1.2919	25.09	2.25	-0.050			
0.8505	54432.65	3.4390	3.4389	-1.2338	25.20	2.36	-0.050			
0.8517	54508.42	3.4380	3.4382	-1.1764	25.33	2.49	-0.050			
0.8528	54581.21	3.4370	3.4372	-1.1232	25.43	2.59	-0.050			
0.8539	54650.82	3.4360	3.4360	-1.0694	25.54	2.70	-0.050			
0.8550	54717.00	3.4350	3.4353	-1.0193	25.64	2.80	-0.050			
0.8559	54779.83	3.4340	3.4342	-0.9711	25.74	2.90	-0.050			
0.8569	54839.08	3.4330	3.4330	-0.9236	25.82	2.98	-0.050			
0.8578	54896.06	3.4320	3.4320	-0.8748	25.90	3.06	-0.050			
0.8586	54947.32	3.4310	3.4312	-0.8357	25.97	3.13	-0.050			
0.8594	54999.45	3.4300	3.4300	-0.7933	26.05	3.21	-0.050			
0.8601	55046.52	3.4290	3.4289	-0.7539	26.12	3.28	-0.050			
0.8608	55090.03	3.4280	3.4278	-0.7144	26.19	3.35	-0.050	0.502	0.557	
0.8615	55134.66	3.4270	3.4271	-0.6796	26.26	3.42	-0.050			
0.8621	55174.54	3.4260	3.4259	-0.6472	26.31	3.47	-0.050			
0.8627	55211.71	3.4250	3.4247	-0.6163	26.36	3.52	-0.050			
0.8633	55249.62	3.4240	3.4240	-0.5877	26.41	3.57	-0.050			
0.8638	55283.27	3.4230	3.4230	-0.5613	26.45	3.61	-0.050			
0.8643	55317.01	3.4220	3.4218	-0.5393	26.50	3.66	-0.050			
0.8648	55349.87	3.4210	3.4214	-0.5163	26.55	3.71	-0.050			
0.8653	55381.01	3.4200	3.4201	-0.4976	26.59	3.75	-0.050			
0.8658	55412.17	3.4190	3.4189	-0.4788	26.63	3.79	-0.050			
0.8663	55440.82	3.4180	3.4180	-0.4627	26.67	3.83	-0.050			
0.8667	55469.16	3.4170	3.4170	-0.4446	26.70	3.86	-0.050			
0.8671	55495.95	3.4160	3.4158	-0.4297	26.74	3.90	-0.050			
0.8675	55522.81	3.4150	3.4148	-0.4150	26.77	3.93	-0.050			
0.8679	55547.00	3.4140	3.4139	-0.4009	26.80	3.96	-0.050			
0.8683	55571.56	3.4130	3.4132	-0.3875	26.82	3.98	-0.050			
0.8687	55595.79	3.4120	3.4121	-0.3772	26.85	4.01	-0.050			
0.8690	55618.28	3.4110	3.4111	-0.3632	26.87	4.03	-0.050			
0.8694	55640.70	3.4100	3.4099	-0.3556	26.89	4.05	-0.050			
0.8697	55663.66	3.4090	3.4091	-0.3478	26.92	4.08	-0.050			
0.8701	55684.59	3.4080	3.4079	-0.3403	26.95	4.11	-0.050			
0.8704	55706.11	3.4070	3.4072	-0.3323	26.97	4.13	-0.050			
0.8707	55726.56	3.4060	3.4060	-0.3235	26.99	4.15	-0.050			
0.8710	55745.75	3.4050	3.4049	-0.3172	27.00	4.16	-0.050			
0.8713	55765.86	3.4040	3.4040	-0.3113	27.01	4.17	-0.050			
0.8716	55784.48	3.4030	3.4031	-0.3043	27.02	4.18	-0.050			
0.8719	55803.49	3.4020	3.4021	-0.2989	27.03	4.19	-0.050			
0.8722	55822.36	3.4010	3.4006	-0.2948	27.03	4.19	-0.050			
0.8725	55840.97	3.4000	3.3999	-0.2902	27.04	4.20	-0.050			
0.8728	55859.40	3.3990	3.3991	-0.2860	27.04	4.20	-0.050			
0.8731	55877.02	3.3980	3.3980	-0.2817	27.05	4.21	-0.050			
0.8734	55894.93	3.3970	3.3969	-0.2781	27.05	4.21	-0.050			
0.8736	55911.63	3.3960	3.3960	-0.2756	27.06	4.22	-0.050			
0.8739	55929.19	3.3950	3.3952	-0.2732	27.07	4.23	-0.050			
0.8742	55946.62	3.3940	3.3941	-0.2707	27.08	4.24	-0.050			
0.8744	55963.71	3.3930	3.3932	-0.2688	27.09	4.25	-0.050			
0.8747	55980.49	3.3920	3.3920	-0.2658	27.09	4.25	-0.050			
0.8750	55997.88	3.3910	3.3909	-0.2626	27.10	4.26	-0.050			
0.8752	56014.92	3.3900	3.3899	-0.2610	27.11	4.27	-0.050			
0.8755	56031.54	3.3890	3.3889	-0.2582	27.12	4.28	-0.050			
0.8757	56047.34	3.3880	3.3878	-0.2550	27.13	4.29	-0.050			
0.8760	56063.59	3.3870	3.3867	-0.2529	27.14	4.30	-0.050			
0.8762	56079.72	3.3860	3.3859	-0.2509	27.15	4.31	-0.050			
0.8765	56095.30	3.3850	3.3852	-0.2497	27.16	4.32	-0.050			
0.8767	56111.23	3.3840	3.3842	-0.2482	27.17	4.33	-0.050			
0.8770	56126.65	3.3830	3.3833	-0.2473	27.18	4.34	-0.050			
0.8772	56142.44	3.3820	3.3822	-0.2462	27.19	4.35	-0.050			
0.8775	56158.38	3.3810	3.3812	-0.2455	27.20	4.36	-0.050			
0.8777	56174.32	3.3800	3.3799	-0.2434	27.21	4.37	-0.050			
0.8780	56189.84	3.3790	3.3787	-0.2418	27.21	4.37	-0.050			
0.8782	56205.26	3.3780	3.3778	-0.2402	27.22	4.38	-0.050			
0.8784	56220.28	3.3770	3.3769	-0.2399	27.22	4.38	-0.050			
0.8787	56235.27	3.3760	3.3758	-0.2380	27.23	4.39	-0.050			
0.8789	56250.34	3.3750	3.3751	-0.2374	27.24	4.40	-0.050			
0.8791	56265.52	3.3740	3.3741	-0.2367	27.26	4.42	-0.050			
0.8794	56279.95	3.3730	3.3730	-0.2348	27.27	4.43	-0.050			
0.8796	56295.38	3.3720	3.3722	-0.2334	27.28	4.44	-0.050			
0.8799	56310.65	3.3710	3.3710	-0.2336	27.28	4.44	-0.050			
0.8801	56325.57	3.3700	3.3702	-0.2327	27.29	4.45	-0.050			
0.8803	56340.70	3.3690	3.3689	-0.2308	27.29	4.45	-0.050			
0.8806	56356.13	3.3680	3.3677	-0.2310	27.30	4.46	-0.050			
0.8808	56370.86	3.3670	3.3670	-0.2292	27.32	4.48	-0.050	0.180	0.582	
0.8810	56385.26	3.3660	3.3661	-0.2282	27.33	4.49	-0.050			
0.8812	56399.64	3.3650	3.3651	-0.2263	27.34	4.50	-0.050			
0.8815	56414.07	3.3640	3.3641	-0.2249	27.35	4.51	-0.050			
0.8817	56428.11	3.3630	3.3632	-0.2235	27.35	4.51	-0.050			
0.8819	56442.38	3.3620	3.3621	-0.2224	27.36	4.52	-0.050			
0.8821	56456.58	3.3610	3.3610	-0.2213	27.36	4.52	-0.050			
0.8823	56470.38	3.3600	3.3601	-0.2206	27.37	4.53	-0.050			
0.8826	56484.48	3.3590	3.3589	-0.2199	27.38	4.54	-0.050			
0.8828	56498.77	3.3580	3.3578	-0.2184	27.39	4.55	-0.050			
0.8830	56513.03	3.3570	3.3570	-0.2180	27.39	4.55	-0.050			
0.8832	56526.94	3.3560	3.3559	-0.2168	27.38	4.54	-0.050			
0.8834	56540.28	3.3550	3.3550	-0.2146	27.38	4.54	-0.050			
0.8837	56554.25	3.3540	3.3540	-0.2130	27.37	4.53	-0.050			
0.8839	56567.85	3.3530	3.3530	-0.2120	27.36	4.52	-0.050			
0.8841	56581.46	3.3520	3.3519	-0.2111	27.36	4.52	-0.050			
0.8843	56594.81	3.3510	3.3510	-0.2104	27.35	4.51	-0.050			
0.8845	56608.25	3.3500	3.3501	-0.2094	27.34	4.50	-0.050			
0.8847	56621.97	3.3490	3.3492	-0.2090	27.34	4.50	-0.050			
0.8849	56635.00	3.3480	3.3482	-0.2087	27.34	4.50	-0.050			
0.8851	56648.33	3.3470	3.3470	-0.2078	27.34	4.50	-0.050			
0.8853	56661.65	3.3460	3.3458	-0.2069	27.34	4.50	-0.050			
0.8855	56674.48	3.3450	3.3450	-0.2072	27.34	4.50	-0.050			
0.8857	56687.72	3.3440	3.3440	-0.2067	27.34	4.50	-0.050			
0.8859	56700.46	3.3430	3.3430	-0.2056	27.34	4.50	-0.050			
0.8862	56713.90	3.3420	3.3419	-0.2045	27.34	4.50	-0.050			
0.8864	56726.98	3.3410	3.3407	-0.2040	27.34	4.50	-0.050			
0.8866	56739.78	3.3400	3.3398	-0.2033	27.34	4.50	-0.050			
0.8868	56752.78	3.3390	3.3390	-0.2030	27.34	4.50	-0.050			
0.8870	56765.57	3.3380	3.3381	-0.2023	27.34	4.50	-0.050			
0.8872	56778.52	3.3370	3.3371	-0.2022	27.34	4.50	-0.050			
0.8874	56792.00	3.3360	3.3360	-0.2006	27.34	4.50	-0.050			
0.8876	56804.82	3.3350	3.3350	-0.2000	27.35	4.51	-0.050			
0.8878	56818.20	3.3340	3.3341	-0.2004	27.35	4.51	-0.050			
0.8880	56830.99	3.3330	3.3332	-0.1993	27.35	4.51	-0.050			
0.8882	56843.79	3.3320	3.3321	-0.1979	27.35	4.51	-0.050			
0.8884	56856.86	3.3310	3.3310	-0.1975	27.35	4.51	-0.050			
0.8886	56869.46	3.3300	3.3300	-0.1960	27.35	4.51	-0.050			
0.8888	56881.61	3.3290	3.3289	-0.1958	27.35	4.51	-0.050			
0.8890	56894.01	3.3280	3.3279	-0.1944	27.36	4.52	-0.050			
0.8892	56906.42	3.3270	3.3270	-0.1933	27.36	4.52	-0.050			
0.8894	56918.46	3.3260	3.3262	-0.1932	27.37	4.53	-0.050			
0.8895	56930.50	3.3250	3.3253	-0.1918	27.37	4.53	-0.050			
0.8897	56942.76	3.3240	3.3240	-0.1912	27.37	4.53	-0.050			
0.8899	56955.02	3.3230	3.3229	-0.1905	27.37	4.53	-0.050			
0.8901	56966.87	3.3220	3.3219	-0.1892	27.38	4.54	-0.050			
0.8903	56978.96	3.3210	3.3208	-0.1888	27.38	4.54	-0.050			
0.8905	56991.04	3.3200	3.3199	-0.1885	27.38	4.54	-0.050			
0.8907	57003.49	3.3190	3.3190	-0.1876	27.39	4.55	-0.050			
0.8909	57015.47	3.3180	3.3180	-0.1869	27.39	4.55	-0.050			
0.8911	57027.41	3.3170	3.3170	-0.1861	27.40	4.56	-0.050			
0.8912	57039.09	3.3160	3.3161	-0.1851	27.40	4.56	-0.050			
0.8914	57050.97	3.3150	3.3151	-0.1844	27.40	4.56	-0.050			
0.8916	57062.76	3.3140	3.3141	-0.1838	27.41	4.57	-0.050			
0.8918	57074.50	3.3130	3.3132	-0.1832	27.41	4.57	-0.050			
0.8920	57086.51	3.3120	3.3121	-0.1840	27.41	4.57	-0.050			
0.8922	57098.26	3.3110	3.3110	-0.1832	27.41	4.57	-0.050			
0.8923	57109.96	3.3100	3.3101	-0.1824	27.41	4.57	-0.050			
0.8925	57121.72	3.3090	3.3091	-0.1814	27.42	4.58	-0.050			
0.8927	57133.30	3.3080	3.3080	-0.1805	27.42	4.58	-0.050			
0.8929	57144.83	3.3070	3.3070	-0.1796	27.42	4.58	-0.050			
0.8931	57156.01	3.3060	3.3058	-0.1783	27.43	4.59	-0.050			
0.8932	57167.67	3.3050	3.3049	-0.1770	27.43	4.59	-0.050			
0.8934	57178.97	3.3040	3.3038	-0.1761	27.43	4.59	-0.050			
0.8936	57190.20	3.3030	3.3029	-0.1751	27.44	4.60	-0.050			
0.8938	57201.38	3.3020	3.3020	-0.1743	27.44	4.60	-0.050			
0.8939	57212.27	3.3010	3.3011	-0.1741	27.45	4.61	-0.050			
0.8941	57223.39	3.3000	3.3002	-0.1735	27.46	4.62	-0.050			
0.8943	57234.61	3.2990	3.2990	-0.1730	27.46	4.62	-0.050			
0.8945	57245.66	3.2980	3.2982	-0.1723	27.47	4.63	-0.050			
0.8946	57256.50	3.2970	3.2971	-0.1721	27.47	4.63	-0.050			
0.8948	57267.49	3.2960	3.2960	-0.1715	27.47	4.63	-0.050			
0.8950	57278.52	3.2950	3.2951	-0.1710	27.48	4.64	-0.050			
0.8951	57289.14	3.2940	3.2940	-0.1712	27.48	4.64	-0.050			
0.8953	57300.08	3.2930	3.2927	-0.1708	27.48	4.64	-0.050			
0.8955	57310.59	3.2920	3.2919	-0.1697	27.48	4.64	-0.050			
0.8956	57321.45	3.2910	3.2910	-0.1696	27.49	4.65	-0.050			
0.8958	57332.68	3.2900	3.2899	-0.1684	27.50	4.66	-0.050			
0.8960	57343.25	3.2890	3.2890	-0.1675	27.50	4.66	-0.050			
0.8962	57353.96	3.2880	3.2880	-0.1673	27.51	4.67	-0.050			
0.8963	57364.66	3.2870	3.2871	-0.1671	27.51	4.67	-0.050			
0.8965	57375.52	3.2860	3.2861	-0.1663	27.51	4.67	-0.050			
0.8967	57386.52	3.2850	3.2851	-0.1668	27.52	4.68	-0.050			
0.8968	57397.17	3.2840	3.2840	-0.1661	27.52	4.68	-0.050			
0.8970	57407.78	3.2830	3.2828	-0.1655	27.52	4.68	-0.050			
0.8972	57418.08	3.2820	3.2821	-0.1659	27.53	4.69	-0.050			
0.8973	57428.91	3.2810	3.2813	-0.1659	27.54	4.70	-0.050			
0.8975	57439.51	3.2800	3.2802	-0.1654	27.54	4.70	-0.050			
0.8977	57450.08	3.2790	3.2788	-0.1648	27.55	4.71	-0.050			
0.8978	57460.64	3.2780	3.2779	-0.1641	27.56	4.72	-0.050			
0.8980	57470.87	3.2770	3.2768	-0.1630	27.56	4.72	-0.050			
0.8981	57481.29	3.2760	3.2759	-0.1626	27.57	4.73	-0.050			
0.8983	57491.69	3.2750	3.2750	-0.1622	27.57	4.73	-0.050			
0.8985	57502.54	3.2740	3.2740	-0.1606	27.58	4.74	-0.050			
0.8986	57512.79	3.2730	3.2729	-0.1597	27.58	4.74	-0.050			
0.8988	57522.98	3.2720	3.2718	-0.1589	27.58	4.74	-0.050			
0.8990	57533.12	3.2710	3.2709	-0.1580	27.59	4.75	-0.050			
0.8991	57543.24	3.2700	3.2702	-0.1572	27.59	4.75	-0.050			
0.8993	57552.99	3.2690	3.2691	-0.1574	27.59	4.75	-0.050			
0.8994	57563.05	3.2680	3.2682	-0.1568	27.60	4.76	-0.050			
0.8996	57573.06	3.2670	3.2674	-0.1562	27.60	4.76	-0.050			
0.8997	57583.09	3.2660	3.2664	-0.1571	27.60	4.76	-0.050			
0.8999	57593.12	3.2650	3.2648	-0.1565	27.60	4.76	-0.050			
0.9000	57603.12	3.2640	3.2639	-0.1560	27.61	4.77	-0.050			
0.9002	57613.08	3.2630	3.2629	-0.1554	27.61	4.77	-0.050			
0.9004	57622.86	3.2620	3.2618	-0.1543	27.61	4.77	-0.050			
0.9005	57632.72	3.2610	3.2610	-0.1538	27.62	4.78	-0.050			
0.9007	57642.55	3.2600	3.2600	-0.1534	27.62	4.78	-0.050	0.085	0.577	
0.9008	57652.35	3.2590	3.2590	-0.1530	27.63	4.79	-0.050			
0.9010	57661.80	3.2580	3.2581	-0.1515	27.63	4.79	-0.050			
0.9011	57671.49	3.2570	3.2571	-0.1513	27.64	4.80	-0.050			
0.9013	57681.17	3.2560	3.2561	-0.1512	27.64	4.80	-0.050			
0.9014	57690.84	3.2550	3.2549	-0.1510	27.65	4.81	-0.050			
0.9016	57700.78	3.2540	3.2540	-0.1510	27.65	4.81	-0.050			
0.9017	57710.43	3.2530	3.2531	-0.1505	27.66	4.82	-0.050			
0.9019	57720.05	3.2520	3.2522	-0.1501	27.67	4.83	-0.050			
0.9020	57729.65	3.2510	3.2512	-0.1497	27.67	4.83	-0.050			
0.9022	57739.22	3.2500	3.2502	-0.1493	27.67	4.83	-0.050			
0.9023	57749.51	3.2490	3.2490	-0.1492	27.68	4.84	-0.050			
0.9025	57759.02	3.2480	3.2478	-0.1482	27.68	4.84	-0.050			
0.9026	57768.48	3.2470	3.2467	-0.1472	27.68	4.84	-0.050			
0.9028	57777.53	3.2460	3.2458	-0.1457	27.69	4.85	-0.050			
0.9029	57786.43	3.2450	3.2450	-0.1460	27.69	4.85	-0.050			
0.9031	57795.76	3.2440	3.2440	-0.1456	27.70	4.86	-0.050			
0.9032	57805.07	3.2430	3.2431	-0.1453	27.70	4.86	-0.050			
0.9033	57814.09	3.2420	3.2421	-0.1446	27.70	4.86	-0.050			
0.9035	57823.68	3.2410	3.2410	-0.1437	27.71	4.87	-0.050			
0.9036	57832.86	3.2400	3.2401	-0.1433	27.71	4.87	-0.050			
0.9038	57842.02	3.2390	3.2391	-0.1429	27.71	4.87	-0.050			
0.9039	57851.35	3.2380	3.2379	-0.1428	27.72	4.88	-0.050			
0.9041	57860.48	3.2370	3.2367	-0.1423	27.72	4.88	-0.050			
0.9042	57869.72	3.2360	3.2358	-0.1413	27.72	4.88	-0.050			
0.9044	57878.74	3.2350	3.2349	-0.1406	27.73	4.89	-0.050			
0.9045	57887.76	3.2340	3.2339	-0.1400	27.73	4.89	-0.050			
0.9046	57896.69	3.2330	3.2330	-0.1393	27.73	4.89	-0.050			
0.9048	57905.58	3.2320	3.2321	-0.1385	27.74	4.90	-0.050			
0.9049	57914.18	3.2310	3.2311	-0.1387	27.74	4.90	-0.050			
0.9050	57923.04	3.2300	3.2302	-0.1382	27.75	4.91	-0.050			
0.9052	57931.83	3.2290	3.2292	-0.1376	27.75	4.91	-0.050			
0.9053	57940.62	3.2280	3.2278	-0.1371	27.76	4.92	-0.050			
0.9055	57949.14	3.2270	3.2270	-0.1373	27.76	4.92	-0.050			
0.9056	57957.92	3.2260	3.2260	-0.1370	27.77	4.93	-0.050			
0.9057	57966.66	3.2250	3.2252	-0.1367	27.77	4.93	-0.050			
0.9059	57975.40	3.2240	3.2239	-0.1364	27.78	4.94	-0.050			
0.9060	57984.12	3.2230	3.2227	-0.1362	27.78	4.94	-0.050			
0.9061	57992.86	3.2220	3.2219	-0.1358	27.79	4.95	-0.050			
0.9063	58001.07	3.2210	3.2210	-0.1342	27.79	4.95	-0.050			
0.9064	58009.65	3.2200	3.2200	-0.1343	27.80	4.96	-0.050			
0.9065	58018.25	3.2190	3.2190	-0.1344	27.80	4.96	-0.050			
0.9067	58026.85	3.2180	3.2181	-0.1344	27.80	4.96	-0.050			
0.9068	58035.99	3.2170	3.2170	-0.1326	27.81	4.97	-0.050			
0.9070	58044.92	3.2160	3.2159	-0.1333	27.81	4.97	-0.050			
0.9071	58053.43	3.2150	3.2150	-0.1326	27.81	4.97	-0.050			
0.9072	58061.89	3.2140	3.2141	-0.1319	27.81	4.97	-0.050			
0.9073	58070.31	3.2130	3.2131	-0.1312	27.81	4.97	-0.050			
0.9075	58078.44	3.2120	3.2121	-0.1316	27.81	4.97	-0.050			
0.9076	58087.11	3.2110	3.2111	-0.1317	27.81	4.97	-0.050			
0.9077	58095.52	3.2100	3.2102	-0.1310	27.81	4.97	-0.050			
0.9079	58103.88	3.2090	3.2092	-0.1303	27.81	4.97	-0.050			
0.9080	58112.20	3.2080	3.2079	-0.1297	27.80	4.96	-0.050			
0.9081	58120.23	3.2070	3.2070	-0.1287	27.79	4.95	-0.050			
0.9083	58128.45	3.2060	3.2062	-0.1282	27.78	4.94	-0.050			
0.9084	58136.64	3.2050	3.2047	-0.1278	27.76	4.92	-0.050			
0.9085	58144.80	3.2040	3.2036	-0.1273	27.75	4.91	-0.050			
0.9086	58152.94	3.2030	3.2028	-0.1269	27.74	4.90	-0.050			
0.9088	58160.85	3.2020	3.2019	-0.1258	27.72	4.88	-0.050			
0.9089	58168.89	3.2010	3.2011	-0.1255	27.70	4.86	-0.050			
0.9090	58176.91	3.2000	3.2000	-0.1252	27.67	4.83	-0.050			
0.9091	58184.91	3.1990	3.1990	-0.1248	27.65	4.81	-0.050			
0.9093	58192.89	3.1980	3.1981	-0.1245	27.62	4.78	-0.050			
0.9094	58201.18	3.1970	3.1973	-0.1237	27.60	4.76	-0.050			
0.9095	58209.08	3.1960	3.1962	-0.1231	27.58	4.74	-0.050			
0.9096	58216.93	3.1950	3.1953	-0.1225	27.55	4.71	-0.050			
0.9098	58224.75	3.1940	3.1943	-0.1219	27.52	4.68	-0.050			
0.9099	58232.54	3.1930	3.1928	-0.1213	27.49	4.65	-0.050			
0.9100	58240.71	3.1920	3.1920	-0.1217	27.46	4.62	-0.050			
0.9101	58248.46	3.1910	3.1907	-0.1208	27.43	4.59	-0.050			
0.9103	58256.16	3.1900	3.1898	-0.1199	27.40	4.56	-0.050			
0.9104	58263.81	3.1890	3.1889	-0.1190	27.37	4.53	-0.050			
0.9105	58271.40	3.1880	3.1877	-0.1181	27.34	4.50	-0.050			
0.9106	58278.35	3.1870	3.1870	-0.1172	27.31	4.47	-0.050			
0.9107	58285.84	3.1860	3.1865	-0.1168	27.27	4.43	-0.050			
0.9108	58293.30	3.1850	3.1849	-0.1164	27.24	4.40	-0.050			
0.9109	58300.73	3.1840	3.1839	-0.1159	27.20	4.36	-0.050			
0.9111	58308.14	3.1830	3.1831	-0.1155	27.17	4.33	-0.050			
0.9112	58315.22	3.1820	3.1822	-0.1154	27.14	4.30	-0.050			
0.9113	58322.60	3.1810	3.1809	-0.1153	27.10	4.26	-0.050			
0.9114	58329.97	3.1800	3.1799	-0.1151	27.06	4.22	-0.050			
0.9115	58337.33	3.1790	3.1790	-0.1149	27.02	4.18	-0.050			
0.9116	58344.67	3.1780	3.1779	-0.1147	26.98	4.14	-0.050			
0.9118	58352.06	3.1770	3.1769	-0.1135	26.95	4.11	-0.050			
0.9119	58359.31	3.1760	3.1760	-0.1133	26.91	4.07	-0.050			
0.9120	58366.55	3.1750	3.1751	-0.1130	26.88	4.04	-0.050			
0.9121	58373.78	3.1740	3.1740	-0.1128	26.84	4.00	-0.050			
0.9122	58380.99	3.1730	3.1729	-0.1125	26.79	3.95	-0.050			
0.9123	58388.53	3.1720	3.1720	-0.1122	26.74	3.90	-0.050			
0.9124	58395.70	3.1710	3.1708	-0.1117	26.71	3.87	-0.050			
0.9125	58402.83	3.1700	3.1699	-0.1112	26.67	3.83	-0.050			
0.9127	58409.93	3.1690	3.1690	-0.1107	26.63	3.79	-0.050			
0.9128	58417.00	3.1680	3.1683	-0.1101	26.60	3.76	-0.050			
0.9129	58424.12	3.1670	3.1671	-0.1101	26.56	3.72	-0.050			
0.9130	58431.15	3.1660	3.1660	-0.1095	26.51	3.67	-0.050			
0.9131	58438.13	3.1650	3.1652	-0.1089	26.47	3.63	-0.050			
0.9132	58445.08	3.1640	3.1643	-0.1083	26.43	3.59	-0.050			
0.9133	58452.00	3.1630	3.1628	-0.1077	26.39	3.55	-0.050			
0.9134	58458.89	3.1620	3.1618	-0.1072	26.34	3.50	-0.050			
0.9135	58465.56	3.1610	3.1608	-0.1070	26.30	3.46	-0.050			
0.9136	58472.39	3.1600	3.1597	-0.1065	26.27	3.43	-0.050			
0.9137	58479.19	3.1590	3.1591	-0.1061	26.23	3.39	-0.050			
0.9138	58485.97	3.1580	3.1578	-0.1056	26.19	3.35	-0.050			
0.9139	58492.32	3.1570	3.1571	-0.1048	26.15	3.31	-0.050			
0.9140	58499.11	3.1560	3.1560	-0.1044	26.11	3.27	-0.050			
0.9142	58505.78	3.1550	3.1548	-0.1041	26.06	3.22	-0.050			
0.9143	58512.44	3.1540	3.1540	-0.1039	26.02	3.18	-0.050			
0.9144	58519.08	3.1530	3.1529	-0.1036	25.98	3.14	-0.050			
0.9145	58525.80	3.1520	3.1520	-0.1035	25.95	3.11	-0.050			
0.9146	58532.53	3.1510	3.1511	-0.1029	25.90	3.06	-0.050			
0.9147	58539.10	3.1500	3.1499	-0.1025	25.86	3.02	-0.050			
0.9148	58545.65	3.1490	3.1493	-0.1021	25.82	2.98	-0.050			
0.9149	58552.17	3.1480	3.1480	-0.1017	25.78	2.94	-0.050			
0.9150	58558.76	3.1470	3.1469	-0.1015	25.74	2.90	-0.050			
0.9151	58565.24	3.1460	3.1460	-0.1010	25.70	2.86	-0.050			
0.9152	58571.64	3.1450	3.1449	-0.1006	25.66	2.82	-0.050			
0.9153	58578.06	3.1440	3.1440	-0.1002	25.62	2.78	-0.050			
0.9154	58584.46	3.1430	3.1431	-0.0997	25.58	2.74	-0.050			
0.9155	58590.83	3.1420	3.1420	-0.0993	25.54	2.70	-0.050			
0.9156	58597.20	3.1410	3.1410	-0.0989	25.50	2.66	-0.050			
0.9157	58603.51	3.1400	3.1400	-0.0984	25.46	2.62	-0.050			
0.9158	58609.76	3.1390	3.1389	-0.0981	25.42	2.58	-0.050			
0.9159	58616.02	3.1380	3.1381	-0.0976	25.38	2.54	-0.050			
0.9160	58622.26	3.1370	3.1370	-0.0972	25.35	2.51	-0.050			
0.9161	58628.40	3.1360	3.1358	-0.0967	25.31	2.47	-0.050			
0.9162	58634.58	3.1350	3.1350	-0.0963	25.27	2.43	-0.050			
0.9163	58640.73	3.1340	3.1340	-0.0959	25.23	2.39	-0.050			
0.9164	58646.73	3.1330	3.1329	-0.0959	25.19	2.35	-0.050			
0.9165	58652.86	3.1320	3.1321	-0.0956	25.15	2.31	-0.050			
0.9165	58658.87	3.1310	3.1311	-0.0951	25.12	2.28	-0.050			
0.9166	58664.95	3.1300	3.1301	-0.0949	25.08	2.24	-0.050			
0.9167	58671.02	3.1290	3.1291	-0.0946	25.04	2.20	-0.050			
0.9168	58677.06	3.1280	3.1279	-0.0944	25.01	2.17	-0.050			
0.9169	58683.09	3.1270	3.1269	-0.0942	24.97	2.13	-0.050			
0.9170	58689.11	3.1260	3.1259	-0.0940	24.94	2.10	-0.050			
0.9171	58695.08	3.1250	3.1249	-0.0937	24.90	2.06	-0.050			
0.9172	58701.07	3.1240	3.1239	-0.0935	24.86	2.02	-0.050			
0.9173	58707.04	3.1230	3.1232	-0.0933	24.83	1.99	-0.050			
0.9174	58713.01	3.1220	3.1219	-0.0931	24.79	1.95	-0.050			
0.9175	58718.99	3.1210	3.1209	-0.0927	24.75	1.91	-0.050			
0.9176	58724.92	3.1200	3.1200	-0.0925	24.72	1.88	-0.050			
0.9177	58730.81	3.1190	3.1189	-0.0923	24.69	1.85	-0.050			
0.9178	58736.71	3.1180	3.1179	-0.0920	24.66	1.82	-0.050			
0.9179	58742.60	3.1170	3.1171	-0.0918	24.63	1.79	-0.050			
0.9179	58748.46	3.1160	3.1161	-0.0916	24.59	1.75	-0.050			
0.9180	58754.28	3.1150	3.1150	-0.0915	24.56	1.72	-0.050			
0.9181	58760.13	3.1140	3.1140	-0.0913	24.52	1.68	-0.050			
0.9182	58766.01	3.1130	3.1130	-0.0913	24.49	1.65	-0.050			
0.9183	58771.85	3.1120	3.1119	-0.0910	24.46	1.62	-0.050			
0.9184	58777.67	3.1110	3.1111	-0.0908	24.42	1.58	-0.050			
0.9185	58783.47	3.1100	3.1101	-0.0906	24.39	1.55	-0.050			
0.9186	58789.33	3.1090	3.1089	-0.0902	24.36	1.52	-0.050			
0.9187	58795.09	3.1080	3.1080	-0.0900	24.33	1.49	-0.050			
0.9188	58800.81	3.1070	3.1069	-0.0896	24.30	1.46	-0.050			
0.9189	58806.54	3.1060	3.1058	-0.0894	24.26	1.42	-0.050			
0.9189	58812.26	3.1050	3.1050	-0.0892	24.23	1.39	-0.050			
0.9190	58817.96	3.1040	3.1040	-0.0889	24.20	1.36	-0.050			
0.9191	58823.64	3.1030	3.1029	-0.0887	24.16	1.32	-0.050			
0.9192	58829.17	3.1020	3.1021	-0.0890	24.13	1.29	-0.050			
0.9193	58834.80	3.1010	3.1012	-0.0887	24.10	1.26	-0.050			
0.9194	58840.47	3.1000	3.1001	-0.0886	24.07	1.23	-0.050			
0.9195	58846.13	3.0990	3.0991	-0.0885	24.04	1.20	-0.050			
0.9196	58851.79	3.0980	3.0981	-0.0884	24.01	1.17	-0.050			
0.9196	58857.44	3.0970	3.0969	-0.0883	23.98	1.14	-0.050			
0.9197	58863.09	3.0960	3.0959	-0.0882	23.96	1.12	-0.050			
0.9198	58868.65	3.0950	3.0949	-0.0880	23.93	1.09	-0.050			
0.9199	58874.62	3.0940	3.0939	-0.0872	23.90	1.06	-0.050			
0.9200	58880.19	3.0930	3.0927	-0.0869	23.87	1.03	-0.050			
0.9201	58885.74	3.0920	3.0918	-0.0866	23.85	1.01	-0.050			
0.9202	58891.27	3.0910	3.0908	-0.0863	23.82	0.98	-0.050			
0.9203	58896.78	3.0900	3.0900	-0.0860	23.79	0.95	-0.050			
0.9204	58902.50	3.0890	3.0890	-0.0856	23.77	0.93	-0.050			
0.9204	58907.96	3.0880	3.0879	-0.0851	23.74	0.90	-0.050			
0.9205	58913.40	3.0870	3.0867	-0.0847	23.71	0.87	-0.050			
0.9206	58918.80	3.0860	3.0855	-0.0842	23.69	0.85	-0.050			
0.9207	58924.17	3.0850	3.0848	-0.0837	23.66	0.82	-0.050	0.271	0.646	
0.9208	58929.52	3.0840	3.0839	-0.0833	23.64	0.80	-0.050			
0.9209	58934.67	3.0830	3.0829	-0.0833	23.61	0.77	-0.050			
0.9209	58940.07	3.0820	3.0819	-0.0832	23.59	0.75	-0.050			
0.9210	58945.38	3.0810	3.0810	-0.0828	23.57	0.73	-0.050			
0.9211	58950.66	3.0800	3.0801	-0.0824	23.54	0.70	-0.050			
0.9212	58955.92	3.0790	3.0790	-0.0820	23.53	0.69	-0.050			
0.9213	58961.15	3.0780	3.0779	-0.0815	23.50	0.66	-0.050			
0.9213	58966.36	3.0770	3.0768	-0.0811	23.48	0.64	-0.050			
0.9214	58971.54	3.0760	3.0758	-0.0807	23.46	0.62	-0.050			
0.9215	58976.63	3.0750	3.0748	-0.0806	23.43	0.59	-0.050			
0.9216	58981.35	3.0740	3.0740	-0.0794	23.41	0.57	-0.050			
0.9217	58986.43	3.0730	3.0730	-0.0793	23.39	0.55	-0.050			
0.9217	58991.50	3.0720	3.0720	-0.0791	23.37	0.53	-0.050			
0.9218	58996.56	3.0710	3.0710	-0.0789	23.36	0.52	-0.050			
0.9219	59001.60	3.0700	3.0701	-0.0788	23.34	0.50	-0.050			
0.9220	59006.83	3.0690	3.0692	-0.0788	23.32	0.48	-0.050			
0.9221	59011.71	3.0680	3.0682	-0.0787	23.30	0.46	-0.050			
0.9221	59016.74	3.0670	3.0672	-0.0786	23.28	0.44	-0.050			
0.9222	59021.76	3.0660	3.0661	-0.0784	23.26	0.42	-0.050			
0.9223	59026.77	3.0650	3.0650	-0.0782	23.24	0.40	-0.050			
0.9224	59031.77	3.0640	3.0640	-0.0780	23.23	0.39	-0.050			
0.9224	59036.75	3.0630	3.0629	-0.0778	23.21	0.37	-0.050			
0.9225	59041.72	3.0620	3.0620	-0.0776	23.19	0.35	-0.050			
0.9226	59046.53	3.0610	3.0609	-0.0777	23.18	0.34	-0.050			
0.9227	59051.50	3.0600	3.0599	-0.0776	23.16	0.32	-0.050			
0.9228	59056.47	3.0590	3.0589	-0.0776	23.15	0.31	-0.050			
0.9228	59061.43	3.0580	3.0580	-0.0775	23.13	0.29	-0.050			
0.9229	59066.38	3.0570	3.0570	-0.0774	23.12	0.28	-0.050			
0.9230	59071.34	3.0560	3.0560	-0.0773	23.10	0.26	-0.050			
0.9231	59076.00	3.0550	3.0550	-0.0770	23.09	0.25	-0.050			
0.9231	59081.18	3.0540	3.0539	-0.0768	23.07	0.23	-0.050			
0.9232	59086.09	3.0530	3.0529	-0.0767	23.06	0.22	-0.050			
0.9233	59091.00	3.0520	3.0519	-0.0766	23.04	0.20	-0.050			
0.9234	59095.90	3.0510	3.0511	-0.0766	23.02	0.18	-0.050			
0.9234	59100.80	3.0500	3.0501	-0.0765	23.01	0.17	-0.050			
0.9235	59105.69	3.0490	3.0490	-0.0764	23.00	0.16	-0.050			
0.9236	59110.80	3.0480	3.0481	-0.0767	22.99	0.15	-0.050			
0.9237	59115.70	3.0470	3.0471	-0.0765	22.98	0.14	-0.050			
0.9238	59120.67	3.0460	3.0460	-0.0761	22.97	0.13	-0.050			
0.9238	59125.54	3.0450	3.0449	-0.0759	22.95	0.11	-0.050			
0.9239	59130.39	3.0440	3.0440	-0.0757	22.94	0.10	-0.050			
0.9240	59135.22	3.0430	3.0430	-0.0754	22.93	0.09	-0.050			
0.9241	59140.04	3.0420	3.0421	-0.0752	22.91	0.07	-0.050			
0.9241	59144.96	3.0410	3.0410	-0.0752	22.90	0.06	-0.050			
0.9242	59149.76	3.0400	3.0400	-0.0748	22.89	0.05	-0.050			
0.9243	59154.54	3.0390	3.0390	-0.0745	22.87	0.03	-0.050			
0.9244	59159.30	3.0380	3.0379	-0.0742	22.86	0.02	-0.050			
0.9244	59163.91	3.0370	3.0369	-0.0743	22.86	0.02	-0.050			
0.9245	59168.66	3.0360	3.0364	-0.0740	22.85	0.01	-0.050			
0.9246	59173.39	3.0350	3.0351	-0.0738	22.84	0.00	-0.050			
0.9247	59177.98	3.0340	3.0339	-0.0734	22.83	-0.01	-0.050			
0.9247	59182.67	3.0330	3.0329	-0.0732	22.82	-0.02	-0.050			
0.9248	59187.35	3.0320	3.0319	-0.0730	22.81	-0.03	-0.050			
0.9249	59192.02	3.0310	3.0309	-0.0729	22.81	-0.03	-0.050			
0.9249	59196.68	3.0300	3.0299	-0.0727	22.80	-0.04	-0.050			
0.9250	59201.28	3.0290	3.0288	-0.0727	22.79	-0.05	-0.050			
0.9251	59205.93	3.0280	3.0278	-0.0726	22.78	-0.06	-0.050			
0.9252	59210.57	3.0270	3.0268	-0.0724	22.77	-0.07	-0.050			
0.9252	59215.11	3.0260	3.0260	-0.0721	22.76	-0.08	-0.050			
0.9253	59219.72	3.0250	3.0253	-0.0721	22.75	-0.09	-0.050			
0.9254	59224.33	3.0240	3.0243	-0.0720	22.75	-0.09	-0.050			
0.9255	59228.94	3.0230	3.0231	-0.0719	22.74	-0.10	-0.050			
0.9255	59233.66	3.0220	3.0220	-0.0716	22.73	-0.11	-0.050			
0.9256	59238.24	3.0210	3.0210	-0.0714	22.73	-0.11	-0.050			
0.9257	59242.81	3.0200	3.0200	-0.0713	22.72	-0.12	-0.050			
0.9257	59247.36	3.0190	3.0190	-0.0711	22.72	-0.12	-0.050			
0.9258	59251.91	3.0180	3.0180	-0.0710	22.71	-0.13	-0.050			
0.9259	59256.58	3.0170	3.0170	-0.0710	22.70	-0.14	-0.050			
0.9260	59261.12	3.0160	3.0160	-0.0708	22.70	-0.14	-0.050			
0.9260	59265.65	3.0150	3.0150	-0.0706	22.69	-0.15	-0.050			
0.9261	59270.16	3.0140	3.0139	-0.0704	22.69	-0.15	-0.050			
0.9262	59274.66	3.0130	3.0129	-0.0702	22.68	-0.16	-0.050			
0.9262	59279.15	3.0120	3.0121	-0.0700	22.67	-0.17	-0.050			
0.9263	59283.62	3.0110	3.0110	-0.0698	22.67	-0.17	-0.050			
0.9264	59288.08	3.0100	3.0100	-0.0696	22.66	-0.18	-0.050			
0.9264	59292.62	3.0090	3.0090	-0.0692	22.66	-0.18	-0.050			
0.9265	59297.04	3.0080	3.0080	-0.0689	22.65	-0.19	-0.050			
0.9266	59301.44	3.0070	3.0070	-0.0687	22.65	-0.19	-0.050			
0.9267	59305.83	3.0060	3.0060	-0.0684	22.64	-0.20	-0.050			
0.9267	59310.20	3.0050	3.0050	-0.0681	22.63	-0.21	-0.050			
0.9268	59314.54	3.0040	3.0040	-0.0678	22.63	-0.21	-0.050			
