Ah_balance (normalized)	Ah_balance (mAh)	Voltage - fit (V)	Voltage -  interpolate (V)	dQ/dV (1/V)	Temperature (°C)	Temperature - diff (°C)	Current (C)	R_DC 0ms (mOhm)	R_DC 50ms (mOhm)	R_DC 50 ms PEC (mOhm)
-0.0094	-603.99	4.1980	4.1981	0.8057	24.08	0.70	0.050			
-0.0086	-552.12	4.1970	4.1970	0.8218	24.00	0.62	0.050			
-0.0078	-499.32	4.1960	4.1965	0.8254	23.91	0.53	0.050			
-0.0070	-446.05	4.1950	4.1954	0.8285	23.84	0.46	0.050			
-0.0061	-392.67	4.1940	4.1938	0.8294	23.78	0.40	0.050			
-0.0053	-339.84	4.1930	4.1931	0.8284	23.69	0.31	0.050			
-0.0045	-286.26	4.1920	4.1921	0.8278	23.63	0.25	0.050			
-0.0036	-232.74	4.1910	4.1909	0.8257	23.56	0.18	0.050			
-0.0028	-180.24	4.1900	4.1899	0.8240	23.50	0.12	0.050			
-0.0020	-127.53	4.1890	4.1890	0.8227	23.44	0.06	0.050			
-0.0012	-75.07	4.1880	4.1881	0.8223	23.39	0.01	0.050			
-0.0003	-21.99	4.1870	4.1869	0.8203	23.35	-0.03	0.050			
0.0005	29.96	4.1860	4.1860	0.8172	23.30	-0.08	0.050			
0.0013	84.05	4.1850	4.1849	0.8138	23.27	-0.11	0.050			
0.0021	136.97	4.1840	4.1839	0.8117	23.23	-0.15	0.050			
0.0029	188.05	4.1830	4.1831	0.8078	23.21	-0.17	0.050			
0.0037	239.64	4.1820	4.1820	0.8031	23.18	-0.20	0.050			
0.0046	291.32	4.1810	4.1808	0.8005	23.17	-0.21	0.050			
0.0053	342.01	4.1800	4.1799	0.7969	23.18	-0.20	0.050			
0.0061	391.68	4.1790	4.1786	0.7912	23.19	-0.19	0.050			
0.0069	442.78	4.1780	4.1779	0.7883	23.20	-0.18	0.050			
0.0077	493.64	4.1770	4.1770	0.7847	23.23	-0.15	0.050			
0.0085	544.41	4.1760	4.1761	0.7811	23.27	-0.11	0.050			
0.0093	593.87	4.1750	4.1750	0.7776	23.32	-0.06	0.050			
0.0101	643.27	4.1740	4.1736	0.7724	23.40	0.02	0.050			
0.0108	692.45	4.1730	4.1732	0.7698	23.48	0.10	0.050			
0.0116	741.43	4.1720	4.1722	0.7663	23.58	0.20	0.050			
0.0123	790.14	4.1710	4.1709	0.7629	23.70	0.32	0.050			
0.0131	838.59	4.1700	4.1700	0.7590	23.84	0.46	0.050			
0.0138	885.96	4.1690	4.1691	0.7554	23.99	0.61	0.050			
0.0146	935.00	4.1680	4.1679	0.7548	24.19	0.81	0.050			
0.0154	982.44	4.1670	4.1668	0.7521	24.40	1.02	0.050			
0.0161	1029.72	4.1660	4.1660	0.7559	24.62	1.24	0.050			
0.0168	1077.70	4.1650	4.1651	0.7555	24.85	1.47	0.050			
0.0176	1125.26	4.1640	4.1639	0.7597	25.09	1.71	0.050			
0.0183	1171.94	4.1630	4.1630	0.7621	25.34	1.96	0.050			
0.0191	1220.61	4.1620	4.1621	0.7665	25.59	2.21	0.050			
0.0198	1268.95	4.1610	4.1610	0.7723	25.86	2.48	0.050			
0.0206	1318.26	4.1600	4.1599	0.7737	26.12	2.74	0.050			
0.0214	1367.11	4.1590	4.1588	0.7820	26.39	3.01	0.050			
0.0221	1417.10	4.1580	4.1578	0.7896	26.64	3.26	0.050			
0.0229	1467.23	4.1570	4.1570	0.7988	26.87	3.49	0.050			
0.0237	1517.93	4.1560	4.1560	0.8067	27.11	3.73	0.050			
0.0245	1570.67	4.1550	4.1550	0.8136	27.32	3.94	0.050			
0.0254	1623.61	4.1540	4.1543	0.8185	27.50	4.12	0.050			
0.0262	1677.19	4.1530	4.1529	0.8254	27.63	4.25	0.050			
0.0270	1730.76	4.1520	4.1518	0.8308	27.69	4.31	0.050			
0.0279	1785.32	4.1510	4.1509	0.8386	27.68	4.30	0.050			
0.0288	1840.32	4.1500	4.1496	0.8432	27.65	4.27	0.050			
0.0296	1894.31	4.1490	4.1488	0.8475	27.61	4.23	0.050			
0.0304	1948.38	4.1480	4.1480	0.8519	27.57	4.19	0.050			
0.0313	2003.07	4.1470	4.1471	0.8571	27.53	4.15	0.050			
0.0321	2057.51	4.1460	4.1463	0.8581	27.50	4.12	0.050			
0.0330	2113.21	4.1450	4.1449	0.8590	27.45	4.07	0.050			
0.0339	2169.55	4.1440	4.1440	0.8589	27.41	4.03	0.050			
0.0348	2224.70	4.1430	4.1429	0.8603	27.37	3.99	0.050			
0.0356	2280.99	4.1420	4.1421	0.8623	27.33	3.95	0.050			
0.0365	2335.92	4.1410	4.1408	0.8622	27.29	3.91	0.050			
0.0374	2390.82	4.1400	4.1399	0.8624	27.25	3.87	0.050			
0.0382	2446.05	4.1390	4.1391	0.8595	27.20	3.82	0.050			
0.0391	2500.18	4.1380	4.1382	0.8612	27.16	3.78	0.050			
0.0399	2555.15	4.1370	4.1369	0.8644	27.12	3.74	0.050			
0.0408	2609.99	4.1360	4.1362	0.8658	27.08	3.70	0.050			
0.0417	2666.68	4.1350	4.1349	0.8676	27.03	3.65	0.050			
0.0425	2722.28	4.1340	4.1339	0.8697	26.98	3.60	0.050			
0.0434	2777.52	4.1330	4.1329	0.8719	26.93	3.55	0.050			
0.0443	2833.31	4.1320	4.1319	0.8705	26.88	3.50	0.050			
0.0451	2889.44	4.1310	4.1309	0.8716	26.83	3.45	0.050			
0.0460	2945.12	4.1300	4.1297	0.8715	26.78	3.40	0.050			
0.0469	3000.70	4.1290	4.1288	0.8692	26.73	3.35	0.050			
0.0477	3055.78	4.1280	4.1282	0.8717	26.67	3.29	0.050			
0.0486	3112.75	4.1270	4.1272	0.8724	26.62	3.24	0.050			
0.0495	3168.43	4.1260	4.1260	0.8747	26.56	3.18	0.050			
0.0504	3225.47	4.1250	4.1248	0.8775	26.50	3.12	0.050			
0.0513	3281.54	4.1240	4.1241	0.8803	26.45	3.07	0.050			
0.0522	3337.78	4.1230	4.1230	0.8800	26.39	3.01	0.050			
0.0530	3394.09	4.1220	4.1219	0.8789	26.32	2.94	0.050			
0.0539	3450.43	4.1210	4.1210	0.8774	26.26	2.88	0.050			
0.0548	3507.51	4.1200	4.1198	0.8768	26.19	2.81	0.050			
0.0557	3562.81	4.1190	4.1188	0.8767	26.13	2.75	0.050			
0.0565	3617.98	4.1180	4.1180	0.8760	26.07	2.69	0.050			
0.0574	3674.90	4.1170	4.1167	0.8745	25.99	2.61	0.050			
0.0583	3730.92	4.1160	4.1162	0.8774	25.92	2.54	0.050			
0.0592	3787.31	4.1150	4.1150	0.8766	25.85	2.47	0.050			
0.0601	3843.27	4.1140	4.1142	0.8765	25.79	2.41	0.050			
0.0609	3899.14	4.1130	4.1132	0.8766	25.72	2.34	0.050			
0.0618	3956.70	4.1120	4.1121	0.8778	25.65	2.27	0.050			
0.0627	4013.29	4.1110	4.1110	0.8766	25.57	2.19	0.050			
0.0636	4069.18	4.1100	4.1098	0.8750	25.50	2.12	0.050			
0.0645	4125.00	4.1090	4.1089	0.8738	25.43	2.05	0.050			
0.0653	4180.45	4.1080	4.1079	0.8708	25.37	1.99	0.050			
0.0662	4235.74	4.1070	4.1072	0.8694	25.29	1.91	0.050			
0.0670	4290.98	4.1060	4.1061	0.8701	25.21	1.83	0.050			
0.0679	4347.05	4.1050	4.1048	0.8705	25.14	1.76	0.050			
0.0688	4401.95	4.1040	4.1040	0.8714	25.07	1.69	0.050			
0.0696	4457.29	4.1030	4.1030	0.8729	25.00	1.62	0.050			
0.0705	4513.60	4.1020	4.1021	0.8760	24.92	1.54	0.050			
0.0714	4570.07	4.1010	4.1007	0.8775	24.86	1.48	0.050			
0.0723	4625.91	4.1000	4.1000	0.8780	24.78	1.40	0.050			
0.0732	4681.91	4.0990	4.0991	0.8745	24.71	1.33	0.050			
0.0740	4738.10	4.0980	4.0981	0.8731	24.64	1.26	0.050			
0.0749	4794.59	4.0970	4.0968	0.8738	24.57	1.19	0.050			
0.0758	4850.82	4.0960	4.0959	0.8717	24.49	1.11	0.050			
0.0767	4907.23	4.0950	4.0948	0.8739	24.41	1.03	0.050			
0.0776	4963.22	4.0940	4.0942	0.8730	24.33	0.95	0.050			
0.0784	5019.50	4.0930	4.0930	0.8724	24.25	0.87	0.050			
0.0793	5075.00	4.0920	4.0921	0.8764	24.17	0.79	0.050			
0.0802	5131.90	4.0910	4.0910	0.8769	24.08	0.70	0.050			
0.0811	5188.06	4.0900	4.0900	0.8727	24.00	0.62	0.050			
0.0819	5244.04	4.0890	4.0889	0.8700	23.92	0.54	0.050			
0.0828	5298.70	4.0880	4.0880	0.8719	23.85	0.47	0.050			
0.0837	5354.66	4.0870	4.0870	0.8695	23.77	0.39	0.050			
0.0845	5410.11	4.0860	4.0858	0.8653	23.70	0.32	0.050			
0.0854	5464.75	4.0850	4.0850	0.8649	23.63	0.25	0.050			
0.0863	5520.71	4.0840	4.0839	0.8608	23.57	0.19	0.050			
0.0871	5576.46	4.0830	4.0830	0.8596	23.51	0.13	0.050			
0.0880	5631.63	4.0820	4.0825	0.8577	23.46	0.08	0.050			
0.0889	5687.69	4.0810	4.0809	0.8556	23.43	0.05	0.050			
0.0897	5741.81	4.0800	4.0799	0.8550	23.39	0.01	0.050			
0.0906	5797.29	4.0790	4.0788	0.8539	23.36	-0.02	0.050			
0.0914	5852.49	4.0780	4.0781	0.8495	23.35	-0.03	0.050			
0.0923	5906.57	4.0770	4.0770	0.8456	23.34	-0.04	0.050			
0.0931	5960.73	4.0760	4.0759	0.8393	23.33	-0.05	0.050			
0.0940	6014.58	4.0750	4.0751	0.8322	23.35	-0.03	0.050			
0.0948	6067.85	4.0740	4.0736	0.8252	23.37	-0.01	0.050			
0.0956	6120.30	4.0730	4.0730	0.8209	23.41	0.03	0.050			
0.0964	6171.87	4.0720	4.0720	0.8144	23.46	0.08	0.050			
0.0973	6224.86	4.0710	4.0707	0.8112	23.53	0.15	0.050			
0.0981	6277.29	4.0700	4.0700	0.8054	23.59	0.21	0.050			
0.0989	6328.32	4.0690	4.0693	0.8005	23.70	0.32	0.050			
0.0996	6377.58	4.0680	4.0682	0.7952	23.81	0.43	0.050			
0.1004	6428.15	4.0670	4.0669	0.7941	23.95	0.57	0.050			
0.1012	6478.39	4.0660	4.0660	0.7950	24.11	0.73	0.050			
0.1020	6527.53	4.0650	4.0649	0.7915	24.29	0.91	0.050			
0.1028	6577.94	4.0640	4.0639	0.7944	24.49	1.11	0.050			
0.1036	6627.70	4.0630	4.0631	0.7919	24.70	1.32	0.050			
0.1043	6677.48	4.0620	4.0621	0.7930	24.93	1.55	0.050			
0.1051	6727.66	4.0610	4.0609	0.7962	25.17	1.79	0.050			
0.1059	6776.81	4.0600	4.0598	0.7983	25.41	2.03	0.050			
0.1067	6827.71	4.0590	4.0591	0.8056	25.67	2.29	0.050			
0.1075	6879.20	4.0580	4.0581	0.8140	25.92	2.54	0.050			
0.1083	6931.33	4.0570	4.0572	0.8194	26.19	2.81	0.050			
0.1091	6984.50	4.0560	4.0559	0.8241	26.45	3.07	0.050			
0.1100	7038.18	4.0550	4.0552	0.8324	26.70	3.32	0.050			
0.1108	7091.94	4.0540	4.0541	0.8377	26.92	3.54	0.050			
0.1116	7144.78	4.0530	4.0528	0.8448	27.13	3.75	0.050			
0.1125	7199.32	4.0520	4.0518	0.8520	27.29	3.91	0.050			
0.1133	7254.16	4.0510	4.0510	0.8607	27.44	4.06	0.050			
0.1142	7310.65	4.0500	4.0501	0.8662	27.51	4.13	0.050			
0.1151	7366.76	4.0490	4.0490	0.8688	27.51	4.13	0.050			
0.1160	7423.03	4.0480	4.0483	0.8697	27.47	4.09	0.050			
0.1169	7479.20	4.0470	4.0471	0.8765	27.44	4.06	0.050			
0.1177	7535.65	4.0460	4.0457	0.8804	27.41	4.03	0.050			
0.1186	7592.26	4.0450	4.0450	0.8832	27.37	3.99	0.050			
0.1195	7648.59	4.0440	4.0437	0.8903	27.34	3.96	0.050			
0.1204	7706.21	4.0430	4.0433	0.8919	27.31	3.93	0.050			
0.1213	7764.46	4.0420	4.0420	0.8935	27.27	3.89	0.050			
0.1222	7820.58	4.0410	4.0412	0.8989	27.23	3.85	0.050			
0.1231	7878.05	4.0400	4.0401	0.9009	27.20	3.82	0.050			
0.1240	7936.15	4.0390	4.0389	0.9010	27.16	3.78	0.050			
0.1249	7994.17	4.0380	4.0379	0.9060	27.13	3.75	0.050			
0.1258	8052.14	4.0370	4.0369	0.9097	27.10	3.72	0.050			
0.1267	8110.26	4.0360	4.0361	0.9158	27.07	3.69	0.050			
0.1276	8168.22	4.0350	4.0350	0.9171	27.04	3.66	0.050			
0.1286	8227.34	4.0340	4.0342	0.9183	27.02	3.64	0.050			
0.1295	8286.43	4.0330	4.0328	0.9177	27.00	3.62	0.050			
0.1304	8346.01	4.0320	4.0318	0.9209	26.97	3.59	0.050			
0.1313	8406.15	4.0310	4.0311	0.9222	26.92	3.54	0.050			
0.1323	8466.12	4.0300	4.0301	0.9247	26.85	3.47	0.050			
0.1332	8526.05	4.0290	4.0287	0.9265	26.77	3.39	0.050			
0.1341	8585.18	4.0280	4.0281	0.9264	26.70	3.32	0.050			
0.1351	8643.88	4.0270	4.0271	0.9226	26.63	3.25	0.050			
0.1360	8703.26	4.0260	4.0260	0.9241	26.54	3.16	0.050			
0.1369	8762.22	4.0250	4.0249	0.9242	26.45	3.07	0.050			
0.1378	8820.99	4.0240	4.0240	0.9226	26.38	3.00	0.050			
0.1387	8879.53	4.0230	4.0230	0.9286	26.29	2.91	0.050			
0.1397	8939.21	4.0220	4.0221	0.9301	26.21	2.83	0.050			
0.1406	8996.96	4.0210	4.0207	0.9293	26.12	2.74	0.050			
0.1415	9056.95	4.0200	4.0200	0.9323	26.02	2.64	0.050			
0.1425	9117.69	4.0190	4.0190	0.9324	25.93	2.55	0.050			
0.1434	9176.16	4.0180	4.0182	0.9307	25.85	2.47	0.050			
0.1443	9235.62	4.0170	4.0168	0.9349	25.75	2.37	0.050			
0.1452	9295.31	4.0160	4.0161	0.9360	25.66	2.28	0.050			
0.1462	9356.62	4.0150	4.0148	0.9361	25.57	2.19	0.050			
0.1471	9417.45	4.0140	4.0139	0.9393	25.47	2.09	0.050			
0.1481	9478.60	4.0130	4.0131	0.9395	25.36	1.98	0.050			
0.1491	9539.35	4.0120	4.0120	0.9390	25.26	1.88	0.050			
0.1500	9600.24	4.0110	4.0113	0.9407	25.17	1.79	0.050			
0.1509	9659.38	4.0100	4.0100	0.9436	25.07	1.69	0.050			
0.1519	9719.13	4.0090	4.0089	0.9439	24.97	1.59	0.050			
0.1528	9778.79	4.0080	4.0079	0.9445	24.86	1.48	0.050			
0.1537	9839.61	4.0070	4.0073	0.9474	24.75	1.37	0.050			
0.1547	9899.45	4.0060	4.0061	0.9479	24.64	1.26	0.050			
0.1556	9959.59	4.0050	4.0048	0.9495	24.53	1.15	0.050			
0.1566	10020.83	4.0040	4.0043	0.9482	24.39	1.01	0.050			
0.1575	10080.54	4.0030	4.0029	0.9483	24.27	0.89	0.050			
0.1585	10142.23	4.0020	4.0018	0.9470	24.12	0.74	0.050			
0.1594	10204.03	4.0010	4.0008	0.9490	23.97	0.59	0.050			
0.1604	10265.37	4.0000	4.0002	0.9495	23.82	0.44	0.050			
0.1614	10327.02	3.9990	3.9989	0.9489	23.67	0.29	0.050			
0.1623	10388.10	3.9980	3.9979	0.9475	23.51	0.13	0.050			
0.1633	10448.53	3.9970	3.9973	0.9450	23.36	-0.02	0.050			
0.1642	10510.70	3.9960	3.9962	0.9444	23.20	-0.18	0.050			
0.1652	10572.02	3.9950	3.9949	0.9424	23.05	-0.33	0.050			
0.1661	10632.32	3.9940	3.9940	0.9363	22.91	-0.47	0.050			
0.1671	10693.31	3.9930	3.9932	0.9339	22.79	-0.59	0.050			
0.1680	10752.70	3.9920	3.9921	0.9271	22.67	-0.71	0.050			
0.1689	10811.26	3.9910	3.9909	0.9181	22.58	-0.80	0.050			
0.1698	10869.39	3.9900	3.9899	0.9090	22.51	-0.87	0.050			
0.1707	10927.32	3.9890	3.9890	0.9055	22.46	-0.92	0.050			
0.1716	10985.19	3.9880	3.9881	0.9013	22.42	-0.96	0.050			
0.1725	11042.66	3.9870	3.9870	0.8940	22.41	-0.97	0.050			
0.1734	11099.94	3.9860	3.9863	0.8886	22.42	-0.96	0.050			
0.1743	11156.67	3.9850	3.9848	0.8844	22.46	-0.92	0.050			
0.1752	11213.57	3.9840	3.9840	0.8791	22.51	-0.87	0.050			
0.1761	11269.67	3.9830	3.9830	0.8719	22.58	-0.80	0.050			
0.1770	11325.11	3.9820	3.9819	0.8665	22.69	-0.69	0.050			
0.1778	11380.62	3.9810	3.9807	0.8614	22.81	-0.57	0.050			
0.1787	11434.18	3.9800	3.9798	0.8550	22.95	-0.43	0.050			
0.1795	11488.50	3.9790	3.9792	0.8492	23.12	-0.26	0.050			
0.1803	11541.67	3.9780	3.9785	0.8470	23.31	-0.07	0.050			
0.1812	11595.17	3.9770	3.9771	0.8465	23.53	0.15	0.050			
0.1820	11648.10	3.9760	3.9760	0.8456	23.75	0.37	0.050			
0.1829	11702.42	3.9750	3.9752	0.8465	24.00	0.62	0.050			
0.1837	11755.36	3.9740	3.9739	0.8466	24.27	0.89	0.050			
0.1845	11808.56	3.9730	3.9729	0.8476	24.55	1.17	0.050			
0.1854	11862.40	3.9720	3.9722	0.8492	24.85	1.47	0.050			
0.1862	11916.18	3.9710	3.9708	0.8549	25.17	1.79	0.050			
0.1870	11970.44	3.9700	3.9700	0.8569	25.49	2.11	0.050			
0.1879	12024.05	3.9690	3.9688	0.8643	25.81	2.43	0.050			
0.1887	12078.36	3.9680	3.9681	0.8725	26.13	2.75	0.050			
0.1896	12134.36	3.9670	3.9672	0.8820	26.45	3.07	0.050			
0.1905	12191.48	3.9660	3.9658	0.8889	26.77	3.39	0.050			
0.1914	12248.02	3.9650	3.9650	0.8970	27.04	3.66	0.050			
0.1923	12305.94	3.9640	3.9641	0.9065	27.28	3.90	0.050			
0.1932	12364.69	3.9630	3.9633	0.9153	27.48	4.10	0.050			
0.1941	12423.76	3.9620	3.9618	0.9221	27.61	4.23	0.050			
0.1951	12483.25	3.9610	3.9610	0.9290	27.65	4.27	0.050			
0.1960	12542.88	3.9600	3.9596	0.9385	27.63	4.25	0.050			
0.1969	12604.47	3.9590	3.9590	0.9424	27.60	4.22	0.050			
0.1979	12665.37	3.9580	3.9580	0.9473	27.58	4.20	0.050			
0.1989	12727.17	3.9570	3.9570	0.9530	27.56	4.18	0.050			
0.1998	12789.60	3.9560	3.9559	0.9571	27.54	4.16	0.050			
0.2008	12850.56	3.9550	3.9550	0.9609	27.52	4.14	0.050			
0.2018	12912.93	3.9540	3.9538	0.9658	27.50	4.12	0.050			
0.2028	12976.35	3.9530	3.9529	0.9674	27.47	4.09	0.050			
0.2037	13037.32	3.9520	3.9519	0.9705	27.46	4.08	0.050			
0.2047	13099.32	3.9510	3.9510	0.9731	27.44	4.06	0.050			
0.2057	13162.09	3.9500	3.9500	0.9756	27.43	4.05	0.050			
0.2066	13224.14	3.9490	3.9487	0.9738	27.42	4.04	0.050			
0.2076	13287.00	3.9480	3.9482	0.9747	27.41	4.03	0.050			
0.2086	13349.83	3.9470	3.9472	0.9758	27.42	4.04	0.050			
0.2096	13412.12	3.9460	3.9458	0.9799	27.39	4.01	0.050			
0.2106	13475.24	3.9450	3.9448	0.9779	27.36	3.98	0.050			
0.2115	13538.20	3.9440	3.9440	0.9788	27.30	3.92	0.050			
0.2125	13599.94	3.9430	3.9428	0.9796	27.25	3.87	0.050			
0.2135	13663.48	3.9420	3.9420	0.9811	27.19	3.81	0.050			
0.2145	13725.68	3.9410	3.9414	0.9811	27.14	3.76	0.050			
0.2154	13788.31	3.9400	3.9400	0.9837	27.09	3.71	0.050			
0.2164	13852.45	3.9390	3.9389	0.9880	27.03	3.65	0.050			
0.2174	13914.49	3.9380	3.9381	0.9916	26.97	3.59	0.050			
0.2184	13977.60	3.9370	3.9369	0.9922	26.91	3.53	0.050			
0.2194	14041.01	3.9360	3.9362	0.9969	26.85	3.47	0.050			
0.2204	14103.60	3.9350	3.9348	0.9982	26.79	3.41	0.050			
0.2214	14168.02	3.9340	3.9337	1.0002	26.72	3.34	0.050			
0.2224	14232.39	3.9330	3.9331	1.0040	26.66	3.28	0.050			
0.2234	14295.44	3.9320	3.9318	1.0066	26.59	3.21	0.050			
0.2244	14360.44	3.9310	3.9309	1.0121	26.52	3.14	0.050			
0.2254	14427.01	3.9300	3.9300	1.0160	26.43	3.05	0.050			
0.2264	14492.59	3.9290	3.9289	1.0171	26.35	2.97	0.050			
0.2275	14557.97	3.9280	3.9282	1.0197	26.27	2.89	0.050			
0.2285	14623.74	3.9270	3.9269	1.0200	26.19	2.81	0.050			
0.2295	14689.47	3.9260	3.9261	1.0197	26.10	2.72	0.050			
0.2306	14756.21	3.9250	3.9250	1.0230	26.00	2.62	0.050			
0.2316	14821.52	3.9240	3.9238	1.0229	25.91	2.53	0.050			
0.2326	14887.26	3.9230	3.9231	1.0223	25.82	2.44	0.050			
0.2336	14952.54	3.9220	3.9222	1.0227	25.72	2.34	0.050			
0.2346	15016.98	3.9210	3.9212	1.0266	25.62	2.24	0.050			
0.2357	15082.64	3.9200	3.9198	1.0253	25.53	2.15	0.050			
0.2367	15148.45	3.9190	3.9189	1.0245	25.43	2.05	0.050			
0.2377	15213.12	3.9180	3.9181	1.0253	25.33	1.95	0.050			
0.2387	15278.56	3.9170	3.9168	1.0287	25.22	1.84	0.050			
0.2398	15345.02	3.9160	3.9157	1.0274	25.10	1.72	0.050			
0.2408	15410.88	3.9150	3.9151	1.0286	25.00	1.62	0.050			
0.2418	15476.50	3.9140	3.9140	1.0316	24.89	1.51	0.050			
0.2428	15541.92	3.9130	3.9129	1.0331	24.79	1.41	0.050			
0.2439	15608.15	3.9120	3.9120	1.0343	24.68	1.30	0.050			
0.2449	15675.40	3.9110	3.9112	1.0348	24.54	1.16	0.050			
0.2460	15742.31	3.9100	3.9100	1.0387	24.40	1.02	0.050			
0.2470	15809.39	3.9090	3.9089	1.0375	24.26	0.88	0.050			
0.2481	15877.28	3.9080	3.9081	1.0330	24.11	0.73	0.050			
0.2491	15943.98	3.9070	3.9071	1.0343	23.97	0.59	0.050			
0.2502	16010.15	3.9060	3.9059	1.0322	23.81	0.43	0.050			
0.2512	16075.79	3.9050	3.9050	1.0290	23.67	0.29	0.050			
0.2522	16141.76	3.9040	3.9040	1.0262	23.53	0.15	0.050			
0.2532	16207.59	3.9030	3.9030	1.0221	23.38	0.00	0.050			
0.2543	16272.36	3.9020	3.9019	1.0201	23.24	-0.14	0.050			
0.2553	16337.69	3.9010	3.9009	1.0144	23.11	-0.27	0.050			
0.2563	16404.17	3.9000	3.9001	1.0130	22.98	-0.40	0.050			
0.2573	16469.44	3.8990	3.8988	1.0061	22.87	-0.51	0.050			
0.2583	16533.21	3.8980	3.8979	0.9979	22.77	-0.61	0.050			
0.2593	16597.23	3.8970	3.8970	0.9925	22.70	-0.68	0.050			
0.2603	16660.32	3.8960	3.8959	0.9913	22.64	-0.74	0.050			
0.2613	16722.85	3.8950	3.8950	0.9845	22.59	-0.79	0.050			
0.2623	16785.92	3.8940	3.8940	0.9765	22.58	-0.80	0.050			
0.2633	16848.44	3.8930	3.8931	0.9720	22.57	-0.81	0.050			
0.2642	16910.85	3.8920	3.8924	0.9684	22.59	-0.79	0.050			
0.2652	16973.11	3.8910	3.8909	0.9644	22.62	-0.76	0.050			
0.2662	17034.77	3.8900	3.8900	0.9558	22.68	-0.70	0.050			
0.2671	17096.23	3.8890	3.8891	0.9483	22.75	-0.63	0.050			
0.2681	17157.74	3.8880	3.8880	0.9432	22.84	-0.54	0.050			
0.2690	17216.58	3.8870	3.8871	0.9336	22.95	-0.43	0.050			
0.2699	17275.04	3.8860	3.8864	0.9303	23.10	-0.28	0.050			
0.2708	17334.38	3.8850	3.8850	0.9266	23.29	-0.09	0.050			
0.2718	17393.59	3.8840	3.8839	0.9219	23.51	0.13	0.050			
0.2727	17451.63	3.8830	3.8828	0.9199	23.75	0.37	0.050			
0.2736	17509.21	3.8820	3.8822	0.9169	24.02	0.64	0.050			
0.2745	17568.07	3.8810	3.8812	0.9176	24.31	0.93	0.050			
0.2754	17626.18	3.8800	3.8800	0.9190	24.62	1.24	0.050			
0.2763	17683.10	3.8790	3.8787	0.9208	24.94	1.56	0.050			
0.2772	17740.53	3.8780	3.8782	0.9229	25.26	1.88	0.050			
0.2781	17797.87	3.8770	3.8769	0.9252	25.58	2.20	0.050			
0.2790	17855.39	3.8760	3.8760	0.9291	25.91	2.53	0.050			
0.2799	17915.19	3.8750	3.8750	0.9393	26.24	2.86	0.050			
0.2809	17975.96	3.8740	3.8739	0.9446	26.56	3.18	0.050			
0.2818	18037.40	3.8730	3.8729	0.9505	26.86	3.48	0.050			
0.2828	18099.07	3.8720	3.8719	0.9528	27.12	3.74	0.050			
0.2838	18160.60	3.8710	3.8710	0.9601	27.32	3.94	0.050			
0.2847	18223.80	3.8700	3.8699	0.9662	27.46	4.08	0.050			
0.2857	18286.50	3.8690	3.8691	0.9700	27.47	4.09	0.050			
0.2867	18348.96	3.8680	3.8680	0.9719	27.45	4.07	0.050			
0.2877	18412.21	3.8670	3.8670	0.9731	27.42	4.04	0.050			
0.2887	18475.27	3.8660	3.8660	0.9729	27.38	4.00	0.050			
0.2897	18538.58	3.8650	3.8653	0.9731	27.36	3.98	0.050			
0.2907	18602.02	3.8640	3.8640	0.9721	27.34	3.96	0.050			
0.2917	18665.90	3.8630	3.8628	0.9659	27.32	3.94	0.050			
0.2926	18729.03	3.8620	3.8617	0.9608	27.30	3.92	0.050			
0.2936	18790.20	3.8610	3.8613	0.9546	27.29	3.91	0.050			
0.2945	18850.55	3.8600	3.8599	0.9500	27.26	3.88	0.050			
0.2955	18910.52	3.8590	3.8591	0.9433	27.24	3.86	0.050			
0.2964	18970.90	3.8580	3.8580	0.9378	27.23	3.85	0.050			
0.2974	19030.73	3.8570	3.8571	0.9316	27.21	3.83	0.050			
0.2983	19090.78	3.8560	3.8557	0.9223	27.19	3.81	0.050			
0.2992	19150.47	3.8550	3.8550	0.9160	27.18	3.80	0.050			
0.3001	19209.45	3.8540	3.8539	0.9094	27.18	3.80	0.050			
0.3011	19267.85	3.8530	3.8526	0.9018	27.17	3.79	0.050			
0.3020	19325.06	3.8520	3.8519	0.8916	27.17	3.79	0.050			
0.3028	19381.08	3.8510	3.8509	0.8808	27.19	3.81	0.050			
0.3037	19438.35	3.8500	3.8500	0.8720	27.17	3.79	0.050			
0.3046	19493.61	3.8490	3.8489	0.8644	27.14	3.76	0.050			
0.3054	19548.34	3.8480	3.8484	0.8540	27.11	3.73	0.050			
0.3063	19603.02	3.8470	3.8470	0.8465	27.07	3.69	0.050			
0.3071	19657.40	3.8460	3.8460	0.8373	27.03	3.65	0.050			
0.3080	19710.35	3.8450	3.8449	0.8296	26.99	3.61	0.050			
0.3088	19763.33	3.8440	3.8438	0.8199	26.96	3.58	0.050			
0.3096	19815.65	3.8430	3.8432	0.8105	26.92	3.54	0.050			
0.3104	19866.78	3.8420	3.8421	0.7998	26.89	3.51	0.050			
0.3112	19917.17	3.8410	3.8410	0.7910	26.86	3.48	0.050			
0.3120	19966.55	3.8400	3.8398	0.7798	26.82	3.44	0.050			
0.3128	20016.32	3.8390	3.8391	0.7727	26.79	3.41	0.050			
0.3135	20065.50	3.8380	3.8379	0.7656	26.76	3.38	0.050			
0.3143	20115.47	3.8370	3.8371	0.7589	26.73	3.35	0.050			
0.3150	20163.05	3.8360	3.8361	0.7525	26.70	3.32	0.050			
0.3158	20211.17	3.8350	3.8348	0.7459	26.67	3.29	0.050			
0.3165	20258.06	3.8340	3.8342	0.7356	26.63	3.25	0.050			
0.3173	20304.50	3.8330	3.8329	0.7270	26.61	3.23	0.050			
0.3180	20351.22	3.8320	3.8321	0.7208	26.58	3.20	0.050			
0.3187	20397.33	3.8310	3.8309	0.7125	26.56	3.18	0.050			
0.3194	20442.95	3.8300	3.8300	0.7062	26.52	3.14	0.050			
0.3201	20486.73	3.8290	3.8291	0.6991	26.49	3.11	0.050			
0.3208	20530.57	3.8280	3.8280	0.6939	26.46	3.08	0.050			
0.3215	20574.25	3.8270	3.8269	0.6904	26.44	3.06	0.050			
0.3222	20617.70	3.8260	3.8261	0.6864	26.42	3.04	0.050			
0.3228	20661.19	3.8250	3.8251	0.6831	26.40	3.02	0.050			
0.3235	20703.91	3.8240	3.8240	0.6796	26.37	2.99	0.050			
0.3242	20747.36	3.8230	3.8230	0.6791	26.34	2.96	0.050			
0.3248	20790.11	3.8220	3.8219	0.6771	26.29	2.91	0.050			
0.3255	20832.20	3.8210	3.8209	0.6756	26.24	2.86	0.050			
0.3262	20875.32	3.8200	3.8200	0.6747	26.19	2.81	0.050			
0.3268	20917.94	3.8190	3.8188	0.6759	26.15	2.77	0.050			
0.3275	20960.72	3.8180	3.8179	0.6765	26.09	2.71	0.050			
0.3282	21003.57	3.8170	3.8171	0.6787	26.04	2.66	0.050			
0.3289	21046.70	3.8160	3.8162	0.6819	25.98	2.60	0.050			
0.3295	21089.96	3.8150	3.8150	0.6828	25.93	2.55	0.050			
0.3302	21133.14	3.8140	3.8141	0.6921	25.88	2.50	0.050			
0.3309	21177.81	3.8130	3.8131	0.6971	25.83	2.45	0.050			
0.3316	21222.62	3.8120	3.8118	0.7001	25.77	2.39	0.050			
0.3323	21267.50	3.8110	3.8111	0.7046	25.71	2.33	0.050			
0.3330	21312.58	3.8100	3.8099	0.7098	25.65	2.27	0.050			
0.3337	21357.89	3.8090	3.8089	0.7122	25.59	2.21	0.050			
0.3344	21403.75	3.8080	3.8080	0.7151	25.54	2.16	0.050			
0.3352	21449.97	3.8070	3.8068	0.7180	25.48	2.10	0.050			
0.3359	21495.80	3.8060	3.8060	0.7237	25.41	2.03	0.050			
0.3366	21541.72	3.8050	3.8048	0.7326	25.34	1.96	0.050			
0.3373	21588.66	3.8040	3.8042	0.7389	25.28	1.90	0.050			
0.3381	21635.45	3.8030	3.8033	0.7464	25.21	1.83	0.050			
0.3388	21682.53	3.8020	3.8021	0.7556	25.15	1.77	0.050			
0.3395	21731.04	3.8010	3.8008	0.7633	25.08	1.70	0.050			
0.3403	21780.19	3.8000	3.8002	0.7699	25.00	1.62	0.050			
0.3411	21829.25	3.7990	3.7988	0.7771	24.93	1.55	0.050			
0.3419	21879.01	3.7980	3.7978	0.7852	24.85	1.47	0.050			
0.3427	21930.04	3.7970	3.7968	0.7910	24.78	1.40	0.050			
0.3434	21980.56	3.7960	3.7960	0.7994	24.70	1.32	0.050			
0.3442	22031.83	3.7950	3.7952	0.8079	24.61	1.23	0.050			
0.3450	22083.14	3.7940	3.7941	0.8152	24.52	1.14	0.050			
0.3459	22136.37	3.7930	3.7930	0.8251	24.42	1.04	0.050			
0.3467	22189.91	3.7920	3.7919	0.8374	24.33	0.95	0.050			
0.3476	22243.91	3.7910	3.7911	0.8471	24.22	0.84	0.050			
0.3484	22298.48	3.7900	3.7899	0.8554	24.11	0.73	0.050			
0.3493	22353.94	3.7890	3.7891	0.8639	23.99	0.61	0.050			
0.3502	22410.54	3.7880	3.7880	0.8711	23.87	0.49	0.050			
0.3510	22466.19	3.7870	3.7866	0.8786	23.75	0.37	0.050			
0.3519	22522.23	3.7860	3.7861	0.8833	23.63	0.25	0.050			
0.3528	22578.57	3.7850	3.7850	0.8897	23.50	0.12	0.050			
0.3537	22635.79	3.7840	3.7840	0.8988	23.38	-0.00	0.050			
0.3546	22693.55	3.7830	3.7829	0.9063	23.26	-0.12	0.050			
0.3555	22752.48	3.7820	3.7818	0.9116	23.16	-0.22	0.050			
0.3564	22811.37	3.7810	3.7812	0.9183	23.04	-0.34	0.050			
0.3574	22871.66	3.7800	3.7803	0.9238	22.95	-0.43	0.050			
0.3583	22930.88	3.7790	3.7789	0.9301	22.87	-0.51	0.050			
0.3592	22990.99	3.7780	3.7779	0.9356	22.81	-0.57	0.050			
0.3602	23050.56	3.7770	3.7771	0.9428	22.76	-0.62	0.050			
0.3611	23110.69	3.7760	3.7762	0.9468	22.73	-0.65	0.050			
0.3621	23171.82	3.7750	3.7752	0.9537	22.70	-0.68	0.050			
0.3630	23233.13	3.7740	3.7740	0.9565	22.70	-0.68	0.050			
0.3640	23295.00	3.7730	3.7731	0.9595	22.72	-0.66	0.050			
0.3650	23357.03	3.7720	3.7718	0.9606	22.77	-0.61	0.050			
0.3659	23417.89	3.7710	3.7709	0.9658	22.82	-0.56	0.050			
0.3669	23480.33	3.7700	3.7699	0.9726	22.90	-0.48	0.050			
0.3678	23542.03	3.7690	3.7692	0.9809	23.01	-0.37	0.050			
0.3688	23603.62	3.7680	3.7680	0.9886	23.14	-0.24	0.050			
0.3698	23666.41	3.7670	3.7673	0.9959	23.33	-0.05	0.050			
0.3708	23730.80	3.7660	3.7661	1.0006	23.54	0.16	0.050			
0.3718	23792.72	3.7650	3.7650	1.0117	23.79	0.41	0.050			
0.3728	23857.37	3.7640	3.7639	1.0244	24.09	0.71	0.050			
0.3738	23922.94	3.7630	3.7630	1.0343	24.44	1.06	0.050			
0.3748	23989.22	3.7620	3.7617	1.0470	24.79	1.41	0.050			
0.3759	24055.68	3.7610	3.7610	1.0595	25.18	1.80	0.050			
0.3769	24124.00	3.7600	3.7598	1.0698	25.60	2.22	0.050			
0.3780	24192.32	3.7590	3.7594	1.0796	26.02	2.64	0.050			
0.3791	24262.34	3.7580	3.7581	1.0928	26.45	3.07	0.050			
0.3802	24332.76	3.7570	3.7571	1.1038	26.86	3.48	0.050			
0.3813	24404.98	3.7560	3.7557	1.1191	27.26	3.88	0.050			
0.3825	24477.34	3.7550	3.7551	1.1342	27.61	4.23	0.050			
0.3836	24550.41	3.7540	3.7542	1.1469	27.89	4.51	0.050			
0.3848	24624.45	3.7530	3.7529	1.1617	28.07	4.69	0.050			
0.3859	24699.32	3.7520	3.7520	1.1732	28.11	4.73	0.050			
0.3871	24775.08	3.7510	3.7512	1.1806	28.06	4.68	0.050			
0.3883	24851.50	3.7500	3.7499	1.1902	28.02	4.64	0.050			
0.3895	24927.77	3.7490	3.7490	1.1984	27.96	4.58	0.050			
0.3907	25005.38	3.7480	3.7480	1.2079	27.90	4.52	0.050			
0.3919	25083.02	3.7470	3.7469	1.2206	27.85	4.47	0.050			
0.3932	25163.05	3.7460	3.7459	1.2303	27.78	4.40	0.050			
0.3944	25241.22	3.7450	3.7450	1.2330	27.72	4.34	0.050			
0.3957	25321.95	3.7440	3.7440	1.2407	27.65	4.27	0.050			
0.3969	25401.44	3.7430	3.7431	1.2499	27.58	4.20	0.050			
0.3981	25481.25	3.7420	3.7421	1.2585	27.50	4.12	0.050			
0.3994	25560.91	3.7410	3.7411	1.2711	27.42	4.04	0.050			
0.4007	25643.29	3.7400	3.7399	1.2801	27.35	3.97	0.050			
0.4020	25724.80	3.7390	3.7391	1.2882	27.26	3.88	0.050			
0.4032	25807.63	3.7380	3.7380	1.2950	27.16	3.78	0.050			
0.4045	25890.24	3.7370	3.7370	1.3044	27.06	3.68	0.050			
0.4058	25974.11	3.7360	3.7359	1.3098	26.97	3.59	0.050			
0.4072	26057.70	3.7350	3.7348	1.3156	26.87	3.49	0.050			
0.4085	26142.17	3.7340	3.7336	1.3247	26.77	3.39	0.050			
0.4098	26226.47	3.7330	3.7330	1.3363	26.66	3.28	0.050			
0.4111	26312.77	3.7320	3.7319	1.3491	26.55	3.17	0.050			
0.4125	26399.75	3.7310	3.7313	1.3606	26.43	3.05	0.050			
0.4139	26486.60	3.7300	3.7299	1.3722	26.32	2.94	0.050			
0.4152	26574.49	3.7290	3.7292	1.3830	26.20	2.82	0.050			
0.4166	26663.07	3.7280	3.7279	1.3948	26.07	2.69	0.050			
0.4180	26752.70	3.7270	3.7272	1.4042	25.95	2.57	0.050			
0.4194	26843.68	3.7260	3.7258	1.4187	25.82	2.44	0.050			
0.4209	26934.81	3.7250	3.7249	1.4304	25.70	2.32	0.050			
0.4223	27027.08	3.7240	3.7240	1.4384	25.57	2.19	0.050			
0.4237	27119.42	3.7230	3.7232	1.4433	25.44	2.06	0.050			
0.4252	27212.01	3.7220	3.7221	1.4490	25.31	1.93	0.050			
0.4267	27306.05	3.7210	3.7208	1.4596	25.17	1.79	0.050			
0.4282	27401.71	3.7200	3.7201	1.4722	25.03	1.65	0.050			
0.4296	27495.72	3.7190	3.7190	1.4817	24.90	1.52	0.050			
0.4311	27590.77	3.7180	3.7178	1.4938	24.75	1.37	0.050			
0.4326	27686.69	3.7170	3.7170	1.5024	24.57	1.19	0.050			
0.4341	27782.43	3.7160	3.7161	1.5138	24.39	1.01	0.050			
0.4356	27879.09	3.7150	3.7149	1.5220	24.19	0.81	0.050			
0.4371	27975.76	3.7140	3.7137	1.5316	23.97	0.59	0.050			
0.4387	28073.66	3.7130	3.7129	1.5366	23.74	0.36	0.050			
0.4402	28173.20	3.7120	3.7118	1.5458	23.52	0.14	0.050			
0.4418	28273.34	3.7110	3.7109	1.5512	23.28	-0.10	0.050			
0.4433	28373.90	3.7100	3.7098	1.5592	23.05	-0.33	0.050			
0.4449	28473.39	3.7090	3.7089	1.5677	22.86	-0.52	0.050			
0.4465	28573.97	3.7080	3.7081	1.5763	22.69	-0.69	0.050			
0.4480	28674.98	3.7070	3.7070	1.5850	22.57	-0.81	0.050			
0.4496	28777.29	3.7060	3.7060	1.5926	22.48	-0.90	0.050			
0.4513	28880.63	3.7050	3.7052	1.6062	22.46	-0.92	0.050			
0.4529	28982.71	3.7040	3.7041	1.6186	22.49	-0.89	0.050			
0.4544	29084.42	3.7030	3.7029	1.6335	22.58	-0.80	0.050			
0.4561	29188.05	3.7020	3.7020	1.6428	22.73	-0.65	0.050			
0.4577	29291.56	3.7010	3.7005	1.6573	22.95	-0.43	0.050			
0.4593	29395.18	3.7000	3.7000	1.6779	23.28	-0.10	0.050			
0.4609	29500.07	3.6990	3.6991	1.6970	23.74	0.36	0.050			
0.4626	29608.52	3.6980	3.6980	1.7197	24.30	0.92	0.050			
0.4644	29719.12	3.6970	3.6969	1.7404	24.95	1.57	0.050			
0.4661	29828.97	3.6960	3.6959	1.7685	25.63	2.25	0.050			
0.4679	29943.07	3.6950	3.6950	1.7942	26.35	2.97	0.050			
0.4697	30059.24	3.6940	3.6941	1.8218	27.02	3.64	0.050			
0.4715	30177.35	3.6930	3.6933	1.8528	27.57	4.19	0.050			
0.4734	30295.73	3.6920	3.6921	1.8867	27.92	4.54	0.050			
0.4753	30416.84	3.6910	3.6910	1.9193	27.93	4.55	0.050			
0.4772	30541.02	3.6900	3.6903	1.9454	27.86	4.48	0.050			
0.4792	30667.38	3.6890	3.6890	1.9733	27.77	4.39	0.050			
0.4812	30796.62	3.6880	3.6880	1.9991	27.69	4.31	0.050			
0.4832	30926.80	3.6870	3.6869	2.0269	27.61	4.23	0.050			
0.4853	31057.50	3.6860	3.6862	2.0537	27.52	4.14	0.050			
0.4873	31190.00	3.6850	3.6849	2.0787	27.44	4.06	0.050			
0.4894	31323.14	3.6840	3.6837	2.1024	27.37	3.99	0.050			
0.4916	31461.09	3.6830	3.6830	2.1272	27.30	3.92	0.050			
0.4937	31598.17	3.6820	3.6821	2.1491	27.23	3.85	0.050			
0.4959	31735.55	3.6810	3.6811	2.1717	27.19	3.81	0.050			
0.4980	31874.74	3.6800	3.6800	2.1967	27.17	3.79	0.050			
0.5002	32014.89	3.6790	3.6788	2.2250	27.19	3.81	0.050			
0.5024	32156.75	3.6780	3.6780	2.2569	27.24	3.86	0.050			
0.5047	32302.42	3.6770	3.6771	2.2825	27.11	3.73	0.050			
0.5070	32447.99	3.6760	3.6763	2.3047	26.94	3.56	0.050			
0.5093	32596.62	3.6750	3.6749	2.3325	26.76	3.38	0.050			
0.5117	32746.22	3.6740	3.6741	2.3646	26.57	3.19	0.050			
0.5140	32896.54	3.6730	3.6730	2.3948	26.39	3.01	0.050			
0.5164	33049.25	3.6720	3.6721	2.4233	26.18	2.80	0.050			
0.5188	33205.71	3.6710	3.6710	2.4567	25.97	2.59	0.050			
0.5213	33365.26	3.6700	3.6700	2.4990	25.75	2.37	0.050			
0.5238	33525.16	3.6690	3.6691	2.5338	25.53	2.15	0.050			
0.5264	33689.94	3.6680	3.6682	2.5538	25.29	1.91	0.050			
0.5290	33856.05	3.6670	3.6668	2.5791	25.03	1.65	0.050			
0.5317	34026.14	3.6660	3.6657	2.5971	24.75	1.37	0.050			
0.5343	34196.27	3.6650	3.6649	2.6123	24.43	1.05	0.050			
0.5370	34369.57	3.6640	3.6640	2.6230	24.04	0.66	0.050			
0.5397	34538.50	3.6630	3.6628	2.6260	23.62	0.24	0.050			
0.5423	34708.12	3.6620	3.6620	2.6337	23.20	-0.18	0.050			
0.5449	34875.93	3.6610	3.6611	2.6441	22.81	-0.57	0.050			
0.5476	35046.26	3.6600	3.6602	2.6493	22.49	-0.89	0.050			
0.5502	35214.78	3.6590	3.6590	2.6546	22.32	-1.06	0.050			
0.5529	35383.98	3.6580	3.6581	2.6687	22.31	-1.07	0.050			
0.5555	35551.94	3.6570	3.6571	2.6805	22.49	-0.89	0.050			
0.5581	35719.16	3.6560	3.6560	2.7012	22.87	-0.51	0.050			
0.5608	35888.22	3.6550	3.6550	2.7292	23.52	0.14	0.050			
0.5634	36058.27	3.6540	3.6541	2.7724	24.39	1.01	0.050			
0.5661	36233.58	3.6530	3.6531	2.8007	25.45	2.07	0.050			
0.5690	36412.96	3.6520	3.6521	2.8479	26.59	3.21	0.050			
0.5718	36595.81	3.6510	3.6512	2.9055	27.57	4.19	0.050			
0.5748	36784.26	3.6500	3.6501	2.9447	28.03	4.65	0.050			
0.5778	36976.62	3.6490	3.6490	2.9934	27.97	4.59	0.050			
0.5808	37171.01	3.6480	3.6479	3.0342	27.90	4.52	0.050			
0.5839	37369.77	3.6470	3.6472	3.0637	27.82	4.44	0.050			
0.5870	37568.24	3.6460	3.6460	3.1041	27.76	4.38	0.050			
0.5901	37768.55	3.6450	3.6447	3.1415	27.70	4.32	0.050			
0.5934	37976.37	3.6440	3.6443	3.1649	27.66	4.28	0.050			
0.5966	38180.72	3.6430	3.6429	3.1690	27.64	4.26	0.050			
0.5998	38387.65	3.6420	3.6419	3.1578	27.64	4.26	0.050			
0.6030	38591.08	3.6410	3.6410	3.1575	27.68	4.30	0.050			
0.6062	38794.65	3.6400	3.6399	3.1458	27.56	4.18	0.050			
0.6094	38998.42	3.6390	3.6390	3.1581	27.43	4.05	0.050			
0.6125	39200.28	3.6380	3.6382	3.1430	27.30	3.92	0.050			
0.6157	39403.63	3.6370	3.6369	3.1104	27.17	3.79	0.050			
0.6188	39605.54	3.6360	3.6361	3.0837	27.04	3.66	0.050			
0.6220	39806.72	3.6350	3.6349	3.0382	26.93	3.55	0.050			
0.6250	40002.96	3.6340	3.6340	2.9855	26.78	3.40	0.050			
0.6280	40193.24	3.6330	3.6333	2.9386	26.55	3.17	0.050			
0.6309	40378.30	3.6320	3.6320	2.8817	26.30	2.92	0.050			
0.6338	40561.25	3.6310	3.6312	2.8441	26.04	2.66	0.050			
0.6366	40739.66	3.6300	3.6302	2.7980	25.79	2.41	0.050			
0.6393	40914.60	3.6290	3.6290	2.7601	25.53	2.15	0.050			
0.6420	41086.73	3.6280	3.6280	2.7227	25.28	1.90	0.050			
0.6447	41258.07	3.6270	3.6270	2.6750	25.03	1.65	0.050			
0.6473	41426.97	3.6260	3.6257	2.6306	24.78	1.40	0.050			
0.6499	41595.60	3.6250	3.6249	2.5793	24.50	1.12	0.050			
0.6526	41763.22	3.6240	3.6239	2.5253	24.19	0.81	0.050			
0.6552	41929.76	3.6230	3.6230	2.4602	23.83	0.45	0.050			
0.6578	42097.73	3.6220	3.6218	2.3949	23.47	0.09	0.050			
0.6601	42244.48	3.6210	3.6211	2.3404	23.17	-0.21	0.050			
0.6625	42401.51	3.6200	3.6201	2.2666	22.88	-0.50	0.050			
0.6649	42550.76	3.6190	3.6193	2.1798	22.69	-0.69	0.050			
0.6671	42696.36	3.6180	3.6179	2.0951	22.58	-0.80	0.050			
0.6693	42833.28	3.6170	3.6173	1.9977	22.58	-0.80	0.050			
0.6713	42962.28	3.6160	3.6159	1.8983	22.66	-0.72	0.050			
0.6731	43081.12	3.6150	3.6150	1.7890	22.81	-0.57	0.050			
0.6749	43193.50	3.6140	3.6142	1.6920	23.04	-0.34	0.050			
0.6765	43295.72	3.6130	3.6128	1.5967	23.37	-0.01	0.050			
0.6780	43388.98	3.6120	3.6120	1.5062	23.75	0.37	0.050			
0.6792	43471.51	3.6110	3.6110	1.4194	24.14	0.76	0.050			
0.6805	43550.48	3.6100	3.6097	1.3351	24.55	1.17	0.050			
0.6816	43621.51	3.6090	3.6090	1.2818	24.95	1.57	0.050			
0.6828	43696.63	3.6080	3.6080	1.2282	25.39	2.01	0.050			
0.6838	43760.94	3.6070	3.6068	1.1804	25.76	2.38	0.050			
0.6848	43828.49	3.6060	3.6061	1.1513	26.15	2.77	0.050			
0.6858	43891.50	3.6050	3.6046	1.1142	26.49	3.11	0.050			
0.6869	43959.40	3.6040	3.6040	1.1016	26.82	3.44	0.050			
0.6879	44024.00	3.6030	3.6027	1.0925	27.10	3.72	0.050			
0.6889	44090.00	3.6020	3.6020	1.0975	27.30	3.92	0.050			
0.6900	44157.89	3.6010	3.6012	1.1011	27.42	4.04	0.050			
0.6910	44226.07	3.6000	3.6001	1.1105	27.43	4.05	0.050			
0.6921	44295.46	3.5990	3.5992	1.1215	27.41	4.03	0.050			
0.6932	44366.35	3.5980	3.5976	1.1343	27.39	4.01	0.050			
0.6944	44438.83	3.5970	3.5970	1.1496	27.37	3.99	0.050			
0.6955	44513.39	3.5960	3.5960	1.1620	27.36	3.98	0.050			
0.6967	44587.53	3.5950	3.5950	1.1810	27.36	3.98	0.050			
0.6979	44663.37	3.5940	3.5936	1.1996	27.35	3.97	0.050			
0.6991	44740.17	3.5930	3.5930	1.2203	27.35	3.97	0.050			
0.7003	44817.56	3.5920	3.5922	1.2375	27.37	3.99	0.050			
0.7015	44897.99	3.5910	3.5911	1.2528	27.38	4.00	0.050			
0.7028	44979.50	3.5900	3.5901	1.2716	27.33	3.95	0.050			
0.7041	45064.35	3.5890	3.5890	1.2849	27.27	3.89	0.050			
0.7055	45151.14	3.5880	3.5879	1.2939	27.21	3.83	0.050			
0.7068	45235.63	3.5870	3.5867	1.2992	27.16	3.78	0.050			
0.7081	45321.49	3.5860	3.5858	1.3097	27.11	3.73	0.050			
0.7095	45407.51	3.5850	3.5851	1.3099	27.05	3.67	0.050			
0.7108	45493.91	3.5840	3.5841	1.3085	27.00	3.62	0.050			
0.7122	45578.33	3.5830	3.5831	1.3010	26.96	3.58	0.050			
0.7135	45665.13	3.5820	3.5823	1.2936	26.90	3.52	0.050			
0.7149	45750.55	3.5810	3.5810	1.2791	26.86	3.48	0.050			
0.7162	45833.86	3.5800	3.5802	1.2643	26.81	3.43	0.050			
0.7174	45916.01	3.5790	3.5789	1.2510	26.77	3.39	0.050			
0.7187	45997.15	3.5780	3.5778	1.2342	26.73	3.35	0.050			
0.7199	46076.00	3.5770	3.5769	1.2168	26.69	3.31	0.050			
0.7211	46152.29	3.5760	3.5761	1.1978	26.60	3.22	0.050			
0.7223	46226.52	3.5750	3.5750	1.1778	26.50	3.12	0.050			
0.7234	46299.46	3.5740	3.5742	1.1576	26.40	3.02	0.050			
0.7246	46371.32	3.5730	3.5730	1.1441	26.30	2.92	0.050			
0.7257	46442.82	3.5720	3.5720	1.1323	26.19	2.81	0.050			
0.7268	46514.45	3.5710	3.5708	1.1216	26.08	2.70	0.050			
0.7279	46584.25	3.5700	3.5698	1.1113	25.97	2.59	0.050			
0.7290	46654.35	3.5690	3.5690	1.1061	25.86	2.48	0.050			
0.7300	46722.73	3.5680	3.5679	1.0998	25.76	2.38	0.050			
0.7311	46790.21	3.5670	3.5669	1.0934	25.66	2.28	0.050			
0.7322	46858.41	3.5660	3.5660	1.0912	25.55	2.17	0.050			
0.7333	46928.29	3.5650	3.5651	1.0922	25.44	2.06	0.050			
0.7343	46997.79	3.5640	3.5639	1.0937	25.31	1.93	0.050			
0.7354	47068.14	3.5630	3.5632	1.0975	25.20	1.82	0.050			
0.7365	47138.83	3.5620	3.5620	1.0985	25.06	1.68	0.050			
0.7377	47209.67	3.5610	3.5607	1.0988	24.95	1.57	0.050			
0.7387	47278.83	3.5600	3.5599	1.1006	24.82	1.44	0.050			
0.7398	47348.99	3.5590	3.5591	1.1021	24.70	1.32	0.050			
0.7409	47419.96	3.5580	3.5581	1.1041	24.57	1.19	0.050			
0.7420	47491.12	3.5570	3.5572	1.1065	24.44	1.06	0.050			
0.7432	47562.63	3.5560	3.5560	1.1077	24.30	0.92	0.050			
0.7443	47634.12	3.5550	3.5550	1.1097	24.16	0.78	0.050			
0.7454	47705.88	3.5540	3.5539	1.1098	24.01	0.63	0.050			
0.7465	47777.48	3.5530	3.5532	1.1070	23.85	0.47	0.050			
0.7477	47849.93	3.5520	3.5521	1.1043	23.70	0.32	0.050			
0.7488	47920.76	3.5510	3.5509	1.1003	23.55	0.17	0.050			
0.7499	47991.84	3.5500	3.5501	1.0967	23.41	0.03	0.050			
0.7510	48062.39	3.5490	3.5489	1.0899	23.27	-0.11	0.050			
0.7521	48132.12	3.5480	3.5480	1.0845	23.13	-0.25	0.050			
0.7532	48202.43	3.5470	3.5473	1.0763	23.01	-0.37	0.050			
0.7543	48272.02	3.5460	3.5461	1.0689	22.91	-0.47	0.050			
0.7553	48340.67	3.5450	3.5452	1.0605	22.83	-0.55	0.050			
0.7564	48408.08	3.5440	3.5441	1.0538	22.75	-0.63	0.050			
0.7574	48475.43	3.5430	3.5430	1.0458	22.70	-0.68	0.050			
0.7585	48542.41	3.5420	3.5419	1.0375	22.66	-0.72	0.050			
0.7595	48608.00	3.5410	3.5411	1.0282	22.64	-0.74	0.050			
0.7605	48671.85	3.5400	3.5403	1.0213	22.64	-0.74	0.050			
0.7615	48736.53	3.5390	3.5389	1.0146	22.66	-0.72	0.050			
0.7625	48801.37	3.5380	3.5382	1.0072	22.70	-0.68	0.050			
0.7635	48865.17	3.5370	3.5369	0.9994	22.74	-0.64	0.050			
0.7645	48929.76	3.5360	3.5359	0.9923	22.82	-0.56	0.050			
0.7655	48992.36	3.5350	3.5349	0.9847	22.92	-0.46	0.050			
0.7665	49055.14	3.5340	3.5339	0.9798	23.05	-0.33	0.050			
0.7675	49117.47	3.5330	3.5329	0.9775	23.21	-0.17	0.050			
0.7684	49178.72	3.5320	3.5320	0.9742	23.41	0.03	0.050			
0.7694	49239.67	3.5310	3.5310	0.9716	23.64	0.26	0.050			
0.7703	49301.37	3.5300	3.5301	0.9697	23.91	0.53	0.050			
0.7713	49362.77	3.5290	3.5290	0.9731	24.22	0.84	0.050			
0.7722	49422.27	3.5280	3.5282	0.9785	24.53	1.15	0.050			
0.7732	49483.07	3.5270	3.5270	0.9900	24.86	1.48	0.050			
0.7741	49541.63	3.5260	3.5259	1.0063	25.20	1.82	0.050			
0.7751	49604.05	3.5250	3.5251	1.0235	25.57	2.19	0.050			
0.7760	49666.57	3.5240	3.5240	1.0422	25.95	2.57	0.050			
0.7770	49730.99	3.5230	3.5230	1.0652	26.33	2.95	0.050			
0.7781	49796.17	3.5220	3.5220	1.0916	26.70	3.32	0.050			
0.7791	49864.79	3.5210	3.5210	1.1238	27.05	3.67	0.050			
0.7802	49933.56	3.5200	3.5199	1.1606	27.37	3.99	0.050			
0.7814	50008.71	3.5190	3.5188	1.1958	27.65	4.27	0.050			
0.7826	50086.04	3.5180	3.5177	1.2340	27.80	4.42	0.050			
0.7838	50166.06	3.5170	3.5168	1.2769	27.81	4.43	0.050			
0.7851	50248.07	3.5160	3.5159	1.3202	27.76	4.38	0.050			
0.7865	50333.89	3.5150	3.5149	1.3648	27.71	4.33	0.050			
0.7878	50422.11	3.5140	3.5142	1.4090	27.66	4.28	0.050			
0.7892	50511.07	3.5130	3.5131	1.4626	27.59	4.21	0.050			
0.7907	50606.56	3.5120	3.5120	1.5120	27.54	4.16	0.050			
0.7923	50706.26	3.5110	3.5109	1.5584	27.47	4.09	0.050			
0.7939	50808.28	3.5100	3.5102	1.6062	27.40	4.02	0.050			
0.7955	50912.17	3.5090	3.5089	1.6514	27.32	3.94	0.050			
0.7972	51019.53	3.5080	3.5078	1.6941	27.24	3.86	0.050			
0.7989	51128.84	3.5070	3.5068	1.7429	27.16	3.78	0.050			
0.8007	51241.87	3.5060	3.5060	1.7911	27.07	3.69	0.050			
0.8025	51357.73	3.5050	3.5050	1.8436	26.97	3.59	0.050			
0.8043	51476.39	3.5040	3.5040	1.8943	26.88	3.50	0.050			
0.8062	51599.81	3.5030	3.5034	1.9424	26.76	3.38	0.050			
0.8082	51726.10	3.5020	3.5021	1.9895	26.66	3.28	0.050			
0.8102	51855.41	3.5010	3.5013	2.0369	26.53	3.15	0.050			
0.8123	51988.40	3.5000	3.4997	2.0841	26.39	3.01	0.050			
0.8144	52123.66	3.4990	3.4988	2.1371	26.25	2.87	0.050			
0.8166	52262.16	3.4980	3.4979	2.1793	26.09	2.71	0.050			
0.8188	52404.71	3.4970	3.4971	2.2180	25.92	2.54	0.050			
0.8211	52549.05	3.4960	3.4961	2.2593	25.74	2.36	0.050			
0.8234	52698.01	3.4950	3.4947	2.2949	25.55	2.17	0.050			
0.8258	52851.30	3.4940	3.4941	2.3147	25.35	1.97	0.050			
0.8282	53005.32	3.4930	3.4928	2.3319	25.16	1.78	0.050			
0.8307	53163.74	3.4920	3.4920	2.3438	24.95	1.57	0.050			
0.8332	53322.40	3.4910	3.4908	2.3399	24.75	1.37	0.050			
0.8356	53479.30	3.4900	3.4900	2.3196	24.53	1.15	0.050			
0.8381	53640.05	3.4890	3.4891	2.2774	24.29	0.91	0.050			
0.8405	53791.59	3.4880	3.4883	2.2274	24.05	0.67	0.050			
0.8429	53942.89	3.4870	3.4871	2.1549	23.80	0.42	0.050			
0.8451	54087.70	3.4860	3.4861	2.0758	23.59	0.21	0.050			
0.8473	54228.61	3.4850	3.4850	1.9834	23.41	0.03	0.050			
0.8494	54361.33	3.4840	3.4839	1.8786	23.26	-0.12	0.050			
0.8513	54485.51	3.4830	3.4831	1.7626	23.17	-0.21	0.050			
0.8531	54599.06	3.4820	3.4822	1.6390	23.13	-0.25	0.050			
0.8548	54704.43	3.4810	3.4809	1.5197	23.12	-0.26	0.050			
0.8562	54795.84	3.4800	3.4801	1.3976	23.16	-0.22	0.050			
0.8575	54882.14	3.4790	3.4792	1.2648	23.23	-0.15	0.050			
0.8587	54954.66	3.4780	3.4778	1.1501	23.33	-0.05	0.050			
0.8597	55018.88	3.4770	3.4769	1.0450	23.43	0.05	0.050			
0.8605	55072.22	3.4760	3.4755	0.9463	23.55	0.17	0.050			
0.8612	55119.67	3.4750	3.4745	0.8630	23.68	0.30	0.050			
0.8619	55161.45	3.4740	3.4737	0.7615	23.80	0.42	0.050			
0.8624	55194.11	3.4730	3.4728	0.6958	23.90	0.52	0.050			
0.8629	55228.12	3.4720	3.4716	0.6219	24.03	0.65	0.050			
0.8634	55257.76	3.4710	3.4706	0.5779	24.14	0.76	0.050			
0.8639	55287.56	3.4700	3.4696	0.5258	24.28	0.90	0.050			
0.8642	55310.39	3.4690	3.4686	0.4870	24.38	1.00	0.050			
0.8647	55339.05	3.4680	3.4679	0.4573	24.51	1.13	0.050			
0.8650	55362.50	3.4670	3.4670	0.4316	24.62	1.24	0.050			
0.8654	55388.73	3.4660	3.4660	0.4107	24.75	1.37	0.050			
0.8658	55412.31	3.4650	3.4651	0.3974	24.87	1.49	0.050			
0.8662	55434.82	3.4640	3.4642	0.3843	24.98	1.60	0.050			
0.8665	55457.68	3.4630	3.4628	0.3683	25.10	1.72	0.050			
0.8669	55479.60	3.4620	3.4621	0.3547	25.21	1.83	0.050			
0.8672	55500.48	3.4610	3.4612	0.3453	25.32	1.94	0.050			
0.8675	55521.49	3.4600	3.4598	0.3353	25.44	2.06	0.050			
0.8678	55542.04	3.4590	3.4587	0.3297	25.56	2.18	0.050			
0.8682	55562.15	3.4580	3.4580	0.3215	25.66	2.28	0.050			
0.8685	55581.30	3.4570	3.4568	0.3132	25.76	2.38	0.050			
0.8688	55600.13	3.4560	3.4559	0.3087	25.85	2.47	0.050			
0.8691	55619.38	3.4550	3.4547	0.3041	25.96	2.58	0.050			
0.8694	55639.02	3.4540	3.4543	0.2999	26.06	2.68	0.050			
0.8697	55658.23	3.4530	3.4529	0.2966	26.18	2.80	0.050			
0.8700	55677.10	3.4520	3.4522	0.2928	26.27	2.89	0.050			
0.8703	55696.11	3.4510	3.4508	0.2898	26.36	2.98	0.050			
0.8705	55714.52	3.4500	3.4498	0.2857	26.47	3.09	0.050			
0.8708	55731.94	3.4490	3.4489	0.2840	26.56	3.18	0.050			
0.8711	55750.02	3.4480	3.4481	0.2809	26.65	3.27	0.050			
0.8714	55766.98	3.4470	3.4468	0.2786	26.73	3.35	0.050			
0.8716	55784.74	3.4460	3.4461	0.2764	26.81	3.43	0.050			
0.8719	55801.86	3.4450	3.4450	0.2749	26.89	3.51	0.050			
0.8722	55818.52	3.4440	3.4444	0.2706	26.97	3.59	0.050			
0.8724	55835.77	3.4430	3.4430	0.2702	27.05	3.67	0.050			
0.8727	55853.04	3.4420	3.4418	0.2696	27.12	3.74	0.050			
0.8730	55870.26	3.4410	3.4410	0.2690	27.19	3.81	0.050			
0.8732	55887.16	3.4400	3.4398	0.2697	27.26	3.88	0.050			
0.8735	55904.29	3.4390	3.4389	0.2693	27.32	3.94	0.050			
0.8738	55921.51	3.4380	3.4381	0.2693	27.38	4.00	0.050			
0.8740	55938.75	3.4370	3.4368	0.2693	27.44	4.06	0.050			
0.8743	55955.86	3.4360	3.4360	0.2676	27.49	4.11	0.050			
0.8746	55972.99	3.4350	3.4350	0.2676	27.54	4.16	0.050			
0.8748	55989.97	3.4340	3.4341	0.2674	27.57	4.19	0.050			
0.8751	56007.32	3.4330	3.4328	0.2668	27.60	4.22	0.050			
0.8754	56025.09	3.4320	3.4319	0.2681	27.64	4.26	0.050			
0.8757	56042.34	3.4310	3.4310	0.2670	27.65	4.27	0.050			
0.8759	56059.40	3.4300	3.4299	0.2661	27.66	4.28	0.050			
0.8762	56076.64	3.4290	3.4293	0.2655	27.67	4.29	0.050			
0.8765	56093.40	3.4280	3.4279	0.2652	27.67	4.29	0.050			
0.8767	56110.09	3.4270	3.4271	0.2639	27.66	4.28	0.050			
0.8770	56127.10	3.4260	3.4260	0.2627	27.65	4.27	0.050			
0.8773	56144.10	3.4250	3.4251	0.2624	27.63	4.25	0.050			
0.8775	56160.86	3.4240	3.4240	0.2614	27.62	4.24	0.050			
0.8778	56177.72	3.4230	3.4228	0.2606	27.60	4.22	0.050			
0.8780	56194.36	3.4220	3.4221	0.2594	27.59	4.21	0.050			
0.8783	56210.82	3.4210	3.4209	0.2586	27.58	4.20	0.050			
0.8786	56227.24	3.4200	3.4199	0.2574	27.57	4.19	0.050			
0.8788	56243.68	3.4190	3.4190	0.2564	27.56	4.18	0.050			
0.8791	56260.24	3.4180	3.4179	0.2533	27.55	4.17	0.050			
0.8793	56276.42	3.4170	3.4171	0.2521	27.54	4.16	0.050			
0.8796	56292.64	3.4160	3.4161	0.2517	27.52	4.14	0.050			
0.8798	56308.70	3.4150	3.4149	0.2503	27.51	4.13	0.050			
0.8801	56324.68	3.4140	3.4139	0.2489	27.50	4.12	0.050			
0.8803	56340.83	3.4130	3.4132	0.2481	27.48	4.10	0.050			
0.8806	56356.65	3.4120	3.4121	0.2465	27.47	4.09	0.050			
0.8808	56372.39	3.4110	3.4109	0.2449	27.46	4.08	0.050			
0.8811	56387.89	3.4100	3.4102	0.2436	27.45	4.07	0.050			
0.8813	56403.44	3.4090	3.4090	0.2421	27.44	4.06	0.050			
0.8815	56418.80	3.4080	3.4080	0.2408	27.43	4.05	0.050			
0.8818	56434.17	3.4070	3.4069	0.2394	27.42	4.04	0.050			
0.8820	56449.13	3.4060	3.4058	0.2375	27.41	4.03	0.050			
0.8823	56464.19	3.4050	3.4049	0.2367	27.40	4.02	0.050			
0.8825	56479.31	3.4040	3.4040	0.2357	27.38	4.00	0.050			
0.8827	56494.39	3.4030	3.4031	0.2347	27.37	3.99	0.050			
0.8830	56509.12	3.4020	3.4022	0.2347	27.36	3.98	0.050			
0.8832	56523.83	3.4010	3.4009	0.2334	27.35	3.97	0.050			
0.8834	56538.86	3.4000	3.3999	0.2327	27.33	3.95	0.050			
0.8837	56553.74	3.3990	3.3990	0.2322	27.32	3.94	0.050			
0.8839	56568.39	3.3980	3.3979	0.2313	27.31	3.93	0.050			
0.8841	56583.70	3.3970	3.3971	0.2294	27.29	3.91	0.050			
0.8844	56598.78	3.3960	3.3959	0.2297	27.28	3.90	0.050			
0.8846	56613.43	3.3950	3.3949	0.2284	27.26	3.88	0.050			
0.8848	56628.01	3.3940	3.3939	0.2271	27.25	3.87	0.050			
0.8850	56642.21	3.3930	3.3930	0.2259	27.25	3.87	0.050			
0.8853	56656.63	3.3920	3.3920	0.2249	27.24	3.86	0.050			
0.8855	56671.16	3.3910	3.3910	0.2233	27.23	3.85	0.050			
0.8857	56685.70	3.3900	3.3904	0.2227	27.21	3.83	0.050			
0.8859	56699.91	3.3890	3.3888	0.2213	27.20	3.82	0.050			
0.8861	56713.60	3.3880	3.3880	0.2217	27.18	3.80	0.050			
0.8864	56727.75	3.3870	3.3871	0.2208	27.17	3.79	0.050			
0.8866	56741.86	3.3860	3.3862	0.2199	27.16	3.78	0.050			
0.8868	56755.70	3.3850	3.3850	0.2192	27.15	3.77	0.050			
0.8870	56769.71	3.3840	3.3841	0.2185	27.14	3.76	0.050			
0.8872	56783.67	3.3830	3.3830	0.2178	27.12	3.74	0.050			
0.8875	56797.70	3.3820	3.3820	0.2154	27.11	3.73	0.050			
0.8877	56811.46	3.3810	3.3811	0.2146	27.10	3.72	0.050			
0.8879	56824.90	3.3800	3.3800	0.2131	27.09	3.71	0.050			
0.8881	56838.77	3.3790	3.3788	0.2118	27.07	3.69	0.050			
0.8883	56852.30	3.3780	3.3778	0.2109	27.06	3.68	0.050			
0.8885	56866.08	3.3770	3.3770	0.2107	27.04	3.66	0.050			
0.8887	56879.39	3.3760	3.3764	0.2099	27.03	3.65	0.050			
0.8889	56892.78	3.3750	3.3752	0.2088	27.01	3.63	0.050			
0.8892	56906.12	3.3740	3.3743	0.2078	27.00	3.62	0.050			
0.8894	56919.98	3.3730	3.3731	0.2072	26.99	3.61	0.050			
0.8896	56933.19	3.3720	3.3719	0.2057	26.98	3.60	0.050			
0.8898	56946.21	3.3710	3.3710	0.2039	26.97	3.59	0.050			
0.8900	56959.22	3.3700	3.3699	0.2025	26.96	3.58	0.050			
0.8902	56972.01	3.3690	3.3688	0.2015	26.95	3.57	0.050			
0.8904	56985.01	3.3680	3.3678	0.2005	26.94	3.56	0.050			
0.8906	56997.79	3.3670	3.3669	0.1991	26.92	3.54	0.050			
0.8908	57010.23	3.3660	3.3660	0.1986	26.91	3.53	0.050			
0.8910	57022.25	3.3650	3.3651	0.1961	26.89	3.51	0.050			
0.8912	57034.78	3.3640	3.3643	0.1955	26.87	3.49	0.050			
0.8914	57047.16	3.3630	3.3632	0.1954	26.86	3.48	0.050			
0.8916	57059.58	3.3620	3.3618	0.1948	26.85	3.47	0.050			
0.8918	57072.03	3.3610	3.3609	0.1944	26.83	3.45	0.050			
0.8919	57084.42	3.3600	3.3601	0.1941	26.82	3.44	0.050			
0.8921	57096.96	3.3590	3.3589	0.1941	26.81	3.43	0.050			
0.8923	57109.36	3.3580	3.3579	0.1936	26.80	3.42	0.050			
0.8925	57121.73	3.3570	3.3569	0.1931	26.79	3.41	0.050			
0.8927	57133.98	3.3560	3.3560	0.1919	26.78	3.40	0.050			
0.8929	57146.26	3.3550	3.3551	0.1916	26.77	3.39	0.050			
0.8931	57158.50	3.3540	3.3540	0.1912	26.75	3.37	0.050			
0.8933	57170.54	3.3530	3.3529	0.1904	26.74	3.36	0.050			
0.8935	57182.71	3.3520	3.3519	0.1902	26.73	3.35	0.050			
0.8937	57194.88	3.3510	3.3510	0.1899	26.71	3.33	0.050			
0.8939	57207.17	3.3500	3.3500	0.1892	26.70	3.32	0.050			
0.8941	57219.61	3.3490	3.3491	0.1895	26.68	3.30	0.050			
0.8942	57231.72	3.3480	3.3480	0.1889	26.67	3.29	0.050			
0.8944	57243.79	3.3470	3.3469	0.1883	26.66	3.28	0.050			
0.8946	57256.13	3.3460	3.3461	0.1872	26.64	3.26	0.050			
0.8948	57268.08	3.3450	3.3449	0.1863	26.63	3.25	0.050			
0.8950	57279.98	3.3440	3.3440	0.1854	26.62	3.24	0.050			
0.8952	57291.81	3.3430	3.3430	0.1848	26.60	3.22	0.050			
0.8954	57303.61	3.3420	3.3419	0.1839	26.59	3.21	0.050			
0.8956	57315.35	3.3410	3.3409	0.1830	26.58	3.20	0.050			
0.8957	57327.01	3.3400	3.3400	0.1820	26.56	3.18	0.050			
0.8959	57338.65	3.3390	3.3393	0.1811	26.54	3.16	0.050			
0.8961	57350.21	3.3380	3.3381	0.1802	26.53	3.15	0.050			
0.8963	57361.72	3.3370	3.3370	0.1793	26.51	3.13	0.050			
0.8965	57373.20	3.3360	3.3360	0.1784	26.50	3.12	0.050			
0.8966	57384.70	3.3350	3.3349	0.1772	26.49	3.11	0.050			
0.8968	57396.00	3.3340	3.3339	0.1761	26.48	3.10	0.050			
0.8970	57407.39	3.3330	3.3329	0.1753	26.46	3.08	0.050			
0.8972	57418.42	3.3320	3.3320	0.1745	26.45	3.07	0.050			
0.8973	57429.55	3.3310	3.3310	0.1735	26.44	3.06	0.050			
0.8975	57440.44	3.3300	3.3300	0.1721	26.42	3.04	0.050			
0.8977	57451.42	3.3290	3.3290	0.1712	26.41	3.03	0.050			
0.8978	57462.11	3.3280	3.3280	0.1710	26.39	3.01	0.050			
0.8980	57473.03	3.3270	3.3269	0.1704	26.38	3.00	0.050			
0.8982	57483.80	3.3260	3.3261	0.1696	26.37	2.99	0.050			
0.8984	57494.64	3.3250	3.3252	0.1690	26.35	2.97	0.050			
0.8985	57505.39	3.3240	3.3241	0.1686	26.34	2.96	0.050			
0.8987	57516.13	3.3230	3.3230	0.1680	26.33	2.95	0.050			
0.8989	57526.87	3.3220	3.3219	0.1676	26.32	2.94	0.050			
0.8990	57537.58	3.3210	3.3209	0.1671	26.30	2.92	0.050			
0.8992	57548.43	3.3200	3.3198	0.1660	26.28	2.90	0.050			
0.8994	57558.87	3.3190	3.3190	0.1650	26.27	2.89	0.050			
0.8995	57569.41	3.3180	3.3181	0.1645	26.25	2.87	0.050			
0.8997	57579.92	3.3170	3.3170	0.1639	26.24	2.86	0.050			
0.8998	57590.34	3.3160	3.3162	0.1637	26.22	2.84	0.050			
0.9000	57600.86	3.3150	3.3151	0.1633	26.21	2.83	0.050			
0.9002	57611.30	3.3140	3.3140	0.1628	26.20	2.82	0.050			
0.9003	57621.71	3.3130	3.3129	0.1623	26.18	2.80	0.050			
0.9005	57632.56	3.3120	3.3121	0.1617	26.17	2.79	0.050			
0.9007	57642.88	3.3110	3.3110	0.1608	26.15	2.77	0.050			
0.9008	57653.14	3.3100	3.3100	0.1598	26.14	2.76	0.050			
0.9010	57663.34	3.3090	3.3090	0.1589	26.12	2.74	0.050			
0.9011	57673.29	3.3080	3.3080	0.1586	26.11	2.73	0.050			
0.9013	57683.42	3.3070	3.3069	0.1579	26.09	2.71	0.050			
0.9015	57693.50	3.3060	3.3059	0.1571	26.08	2.70	0.050			
0.9016	57703.53	3.3050	3.3049	0.1564	26.07	2.69	0.050			
0.9018	57712.99	3.3040	3.3041	0.1559	26.05	2.67	0.050			
0.9019	57722.96	3.3030	3.3032	0.1557	26.04	2.66	0.050			
0.9021	57732.92	3.3020	3.3022	0.1554	26.03	2.65	0.050			
0.9022	57742.85	3.3010	3.3011	0.1551	26.01	2.63	0.050			
0.9024	57752.77	3.3000	3.3000	0.1542	26.00	2.62	0.050			
0.9025	57762.63	3.2990	3.2991	0.1539	25.99	2.61	0.050			
0.9027	57772.47	3.2980	3.2978	0.1535	25.98	2.60	0.050			
0.9028	57782.28	3.2970	3.2966	0.1532	25.96	2.58	0.050			
0.9030	57792.65	3.2960	3.2956	0.1521	25.95	2.57	0.050			
0.9032	57802.36	3.2950	3.2953	0.1513	25.94	2.56	0.050			
0.9033	57812.01	3.2940	3.2943	0.1504	25.92	2.54	0.050			
0.9035	57821.62	3.2930	3.2929	0.1496	25.91	2.53	0.050			
0.9036	57831.19	3.2920	3.2925	0.1488	25.90	2.52	0.050			
0.9038	57840.56	3.2910	3.2911	0.1484	25.89	2.51	0.050			
0.9039	57850.04	3.2900	3.2899	0.1477	25.87	2.49	0.050			
0.9041	57859.47	3.2890	3.2889	0.1470	25.86	2.48	0.050			
0.9042	57869.40	3.2880	3.2880	0.1469	25.84	2.46	0.050			
0.9043	57878.20	3.2870	3.2871	0.1471	25.83	2.45	0.050			
0.9045	57887.59	3.2860	3.2860	0.1465	25.82	2.44	0.050			
0.9046	57896.95	3.2850	3.2851	0.1459	25.80	2.42	0.050			
0.9048	57905.87	3.2840	3.2840	0.1447	25.79	2.41	0.050			
0.9049	57915.64	3.2830	3.2828	0.1434	25.77	2.39	0.050			
0.9051	57924.79	3.2820	3.2817	0.1426	25.76	2.38	0.050			
0.9052	57933.90	3.2810	3.2808	0.1419	25.75	2.37	0.050			
0.9054	57942.75	3.2800	3.2799	0.1407	25.73	2.35	0.050			
0.9055	57951.74	3.2790	3.2790	0.1402	25.72	2.34	0.050			
0.9056	57960.69	3.2780	3.2779	0.1396	25.71	2.33	0.050			
0.9058	57969.41	3.2770	3.2770	0.1399	25.70	2.32	0.050			
0.9059	57978.38	3.2760	3.2761	0.1396	25.68	2.30	0.050			
0.9061	57987.31	3.2750	3.2750	0.1392	25.67	2.29	0.050			
0.9062	57996.20	3.2740	3.2740	0.1388	25.66	2.28	0.050			
0.9063	58005.04	3.2730	3.2732	0.1386	25.65	2.27	0.050			
0.9065	58013.90	3.2720	3.2724	0.1382	25.64	2.26	0.050			
0.9066	58023.06	3.2710	3.2713	0.1383	25.62	2.24	0.050			
0.9067	58031.89	3.2700	3.2703	0.1377	25.61	2.23	0.050			
0.9069	58040.81	3.2690	3.2691	0.1368	25.60	2.22	0.050			
0.9070	58049.54	3.2680	3.2678	0.1362	25.58	2.20	0.050			
0.9072	58058.08	3.2670	3.2668	0.1351	25.57	2.19	0.050			
0.9073	58066.70	3.2660	3.2660	0.1345	25.56	2.18	0.050			
0.9074	58075.30	3.2650	3.2651	0.1340	25.54	2.16	0.050			
0.9076	58083.85	3.2640	3.2641	0.1335	25.53	2.15	0.050			
0.9077	58092.20	3.2630	3.2631	0.1323	25.52	2.14	0.050			
0.9078	58100.66	3.2620	3.2622	0.1319	25.51	2.13	0.050			
0.9080	58109.09	3.2610	3.2612	0.1315	25.49	2.11	0.050			
0.9081	58117.49	3.2600	3.2601	0.1311	25.48	2.10	0.050			
0.9082	58125.87	3.2590	3.2588	0.1307	25.47	2.09	0.050			
0.9083	58134.06	3.2580	3.2581	0.1313	25.46	2.08	0.050			
0.9085	58142.90	3.2570	3.2571	0.1318	25.45	2.07	0.050			
0.9086	58151.32	3.2560	3.2558	0.1313	25.44	2.06	0.050			
0.9087	58159.70	3.2550	3.2548	0.1308	25.43	2.05	0.050			
0.9089	58168.24	3.2540	3.2538	0.1299	25.41	2.03	0.050			
0.9090	58176.12	3.2530	3.2532	0.1283	25.40	2.02	0.050			
0.9091	58184.33	3.2520	3.2521	0.1280	25.38	2.00	0.050			
0.9093	58192.51	3.2510	3.2507	0.1277	25.37	1.99	0.050			
0.9094	58200.67	3.2500	3.2498	0.1274	25.35	1.97	0.050			
0.9095	58208.81	3.2490	3.2489	0.1270	25.34	1.96	0.050			
0.9096	58216.93	3.2480	3.2480	0.1267	25.32	1.94	0.050			
0.9098	58225.03	3.2470	3.2471	0.1264	25.31	1.93	0.050			
0.9099	58233.11	3.2460	3.2462	0.1261	25.30	1.92	0.050			
0.9100	58241.17	3.2450	3.2453	0.1258	25.29	1.91	0.050			
0.9102	58249.79	3.2440	3.2442	0.1256	25.28	1.90	0.050			
0.9103	58257.81	3.2430	3.2431	0.1248	25.27	1.89	0.050			
0.9104	58265.77	3.2420	3.2419	0.1240	25.26	1.88	0.050			
0.9105	58273.68	3.2410	3.2408	0.1232	25.25	1.87	0.050			
0.9106	58281.54	3.2400	3.2399	0.1225	25.24	1.86	0.050			
0.9108	58289.35	3.2390	3.2390	0.1217	25.22	1.84	0.050			
0.9109	58297.03	3.2380	3.2380	0.1216	25.21	1.83	0.050			
0.9110	58304.79	3.2370	3.2371	0.1209	25.20	1.82	0.050			
0.9111	58312.51	3.2360	3.2363	0.1203	25.19	1.81	0.050			
0.9113	58320.19	3.2350	3.2350	0.1196	25.18	1.80	0.050			
0.9114	58327.31	3.2340	3.2343	0.1183	25.17	1.79	0.050			
0.9115	58334.85	3.2330	3.2331	0.1180	25.16	1.78	0.050			
0.9116	58342.40	3.2320	3.2321	0.1177	25.14	1.76	0.050			
0.9117	58349.92	3.2310	3.2312	0.1174	25.13	1.75	0.050			
0.9118	58357.42	3.2300	3.2301	0.1171	25.12	1.74	0.050			
0.9120	58365.15	3.2290	3.2289	0.1170	25.11	1.73	0.050			
0.9121	58372.26	3.2280	3.2279	0.1172	25.10	1.72	0.050			
0.9122	58379.75	3.2270	3.2267	0.1170	25.09	1.71	0.050			
0.9123	58387.23	3.2260	3.2258	0.1167	25.08	1.70	0.050			
0.9124	58394.70	3.2250	3.2249	0.1165	25.07	1.69	0.050			
0.9125	58401.65	3.2240	3.2240	0.1155	25.06	1.68	0.050			
0.9126	58409.04	3.2230	3.2230	0.1156	25.05	1.67	0.050			
0.9128	58416.91	3.2220	3.2221	0.1146	25.04	1.66	0.050			
0.9129	58424.24	3.2210	3.2210	0.1144	25.03	1.65	0.050			
0.9130	58431.55	3.2200	3.2198	0.1141	25.02	1.64	0.050			
0.9131	58438.85	3.2190	3.2192	0.1139	25.01	1.63	0.050			
0.9132	58446.58	3.2180	3.2176	0.1143	25.00	1.62	0.050			
0.9133	58453.88	3.2170	3.2168	0.1138	24.99	1.61	0.050			
0.9135	58461.46	3.2160	3.2159	0.1126	24.98	1.60	0.050			
0.9136	58468.64	3.2150	3.2150	0.1119	24.96	1.58	0.050			
0.9137	58475.78	3.2140	3.2140	0.1111	24.95	1.57	0.050			
0.9138	58483.18	3.2130	3.2128	0.1109	24.94	1.56	0.050			
0.9139	58490.25	3.2120	3.2124	0.1100	24.93	1.55	0.050			
0.9140	58497.26	3.2110	3.2111	0.1090	24.92	1.54	0.050			
0.9141	58503.82	3.2100	3.2101	0.1091	24.91	1.53	0.050			
0.9142	58510.78	3.2090	3.2091	0.1085	24.90	1.52	0.050			
0.9143	58517.76	3.2080	3.2081	0.1079	24.88	1.50	0.050			
0.9144	58524.64	3.2070	3.2070	0.1072	24.87	1.49	0.050			
0.9146	58531.48	3.2060	3.2059	0.1065	24.86	1.48	0.050			
0.9147	58537.83	3.2050	3.2049	0.1069	24.85	1.47	0.050			
0.9148	58544.66	3.2040	3.2042	0.1065	24.84	1.46	0.050			
0.9149	58551.46	3.2030	3.2031	0.1061	24.83	1.45	0.050			
0.9150	58557.65	3.2020	3.2021	0.1045	24.82	1.44	0.050			
0.9151	58564.34	3.2010	3.2006	0.1045	24.81	1.43	0.050			
0.9152	58571.03	3.2000	3.1997	0.1045	24.80	1.42	0.050			
0.9153	58577.86	3.1990	3.1989	0.1041	24.79	1.41	0.050			
0.9154	58584.52	3.1980	3.1979	0.1040	24.78	1.40	0.050			
0.9155	58591.17	3.1970	3.1969	0.1038	24.77	1.39	0.050			
0.9156	58597.69	3.1960	3.1960	0.1035	24.76	1.38	0.050			
0.9157	58604.32	3.1950	3.1952	0.1035	24.75	1.37	0.050			
0.9158	58611.35	3.1940	3.1942	0.1027	24.74	1.36	0.050			
0.9159	58617.92	3.1930	3.1931	0.1024	24.73	1.35	0.050			
0.9160	58624.46	3.1920	3.1920	0.1020	24.71	1.33	0.050			
0.9161	58630.98	3.1910	3.1910	0.1017	24.70	1.32	0.050			
0.9162	58638.04	3.1900	3.1899	0.1022	24.69	1.31	0.050			
0.9163	58644.56	3.1890	3.1889	0.1016	24.68	1.30	0.050			
0.9164	58650.94	3.1880	3.1881	0.1010	24.67	1.29	0.050			
0.9165	58657.38	3.1870	3.1870	0.1004	24.66	1.28	0.050			
0.9166	58663.79	3.1860	3.1857	0.0998	24.65	1.27	0.050			
0.9167	58670.16	3.1850	3.1850	0.0992	24.64	1.26	0.050			
0.9168	58676.48	3.1840	3.1843	0.0986	24.63	1.25	0.050			
0.9169	58682.77	3.1830	3.1832	0.0979	24.62	1.24	0.050			
0.9170	58689.02	3.1820	3.1821	0.0973	24.61	1.23	0.050			
0.9171	58695.23	3.1810	3.1809	0.0967	24.60	1.22	0.050			
0.9172	58701.19	3.1800	3.1799	0.0970	24.59	1.21	0.050			
0.9173	58707.11	3.1790	3.1792	0.0959	24.58	1.20	0.050			
0.9174	58713.24	3.1780	3.1781	0.0956	24.56	1.18	0.050			
0.9175	58719.35	3.1770	3.1770	0.0953	24.55	1.17	0.050			
0.9176	58725.45	3.1760	3.1760	0.0951	24.54	1.16	0.050			
0.9177	58731.52	3.1750	3.1750	0.0948	24.53	1.15	0.050			
0.9178	58737.40	3.1740	3.1740	0.0942	24.52	1.14	0.050			
0.9179	58743.42	3.1730	3.1730	0.0940	24.51	1.13	0.050			
0.9180	58749.44	3.1720	3.1718	0.0939	24.50	1.12	0.050			
0.9181	58755.44	3.1710	3.1709	0.0937	24.49	1.11	0.050			
0.9181	58761.43	3.1700	3.1702	0.0935	24.48	1.10	0.050			
0.9182	58767.41	3.1690	3.1692	0.0934	24.47	1.09	0.050			
0.9183	58773.68	3.1680	3.1682	0.0928	24.46	1.08	0.050			
0.9184	58779.60	3.1670	3.1672	0.0924	24.44	1.06	0.050			
0.9185	58785.50	3.1660	3.1662	0.0920	24.43	1.05	0.050			
0.9186	58791.38	3.1650	3.1652	0.0916	24.42	1.04	0.050			
0.9187	58797.23	3.1640	3.1641	0.0913	24.41	1.03	0.050			
0.9188	58803.06	3.1630	3.1628	0.0909	24.39	1.01	0.050			
0.9189	58808.80	3.1620	3.1619	0.0907	24.38	1.00	0.050			
0.9190	58814.60	3.1610	3.1611	0.0904	24.37	0.99	0.050			
0.9191	58820.49	3.1600	3.1601	0.0903	24.36	0.98	0.050			
0.9192	58826.26	3.1590	3.1589	0.0899	24.35	0.97	0.050			
0.9193	58832.00	3.1580	3.1580	0.0895	24.34	0.96	0.050			
0.9193	58837.72	3.1570	3.1571	0.0891	24.33	0.95	0.050			
0.9194	58843.41	3.1560	3.1559	0.0887	24.32	0.94	0.050			
0.9195	58849.03	3.1550	3.1548	0.0885	24.31	0.93	0.050			
0.9196	58854.51	3.1540	3.1537	0.0878	24.30	0.92	0.050			
0.9197	58860.12	3.1530	3.1527	0.0875	24.29	0.91	0.050			
0.9198	58865.71	3.1520	3.1520	0.0872	24.28	0.90	0.050			
0.9199	58871.28	3.1510	3.1512	0.0869	24.27	0.89	0.050			
0.9200	58876.84	3.1500	3.1502	0.0866	24.26	0.88	0.050			
0.9200	58882.49	3.1490	3.1492	0.0860	24.25	0.87	0.050			
0.9201	58887.97	3.1480	3.1481	0.0856	24.24	0.86	0.050			
0.9202	58893.44	3.1470	3.1470	0.0853	24.23	0.85	0.050			
0.9203	58898.89	3.1460	3.1460	0.0849	24.22	0.84	0.050			
0.9204	58904.31	3.1450	3.1450	0.0846	24.21	0.83	0.050			
0.9205	58909.72	3.1440	3.1440	0.0843	24.20	0.82	0.050			
0.9205	58914.98	3.1430	3.1431	0.0843	24.19	0.81	0.050			
0.9206	58920.44	3.1420	3.1420	0.0842	24.18	0.80	0.050			
0.9207	58925.82	3.1410	3.1410	0.0839	24.17	0.79	0.050			
0.9208	58931.18	3.1400	3.1400	0.0836	24.16	0.78	0.050			
0.9209	58936.52	3.1390	3.1391	0.0833	24.15	0.77	0.050			
0.9210	58941.84	3.1380	3.1381	0.0830	24.14	0.76	0.050			
0.9210	58947.14	3.1370	3.1371	0.0827	24.13	0.75	0.050			
0.9211	58952.44	3.1360	3.1360	0.0823	24.12	0.74	0.050			
0.9212	58957.56	3.1350	3.1350	0.0817	24.11	0.73	0.050			
0.9213	58962.77	3.1340	3.1339	0.0814	24.09	0.71	0.050			
0.9214	58967.98	3.1330	3.1328	0.0812	24.08	0.70	0.050			
0.9215	58973.16	3.1320	3.1319	0.0809	24.07	0.69	0.050			
0.9215	58978.36	3.1310	3.1310	0.0806	24.06	0.68	0.050			
0.9216	58983.51	3.1300	3.1300	0.0803	24.05	0.67	0.050			
0.9217	58988.65	3.1290	3.1290	0.0801	24.04	0.66	0.050			
0.9218	58993.77	3.1280	3.1280	0.0798	24.03	0.65	0.050			
0.9219	58998.87	3.1270	3.1270	0.0795	24.02	0.64	0.050			
0.9219	59003.95	3.1260	3.1261	0.0793	24.01	0.63	0.050			
0.9220	59009.01	3.1250	3.1252	0.0790	24.00	0.62	0.050			
0.9221	59014.06	3.1240	3.1240	0.0787	23.99	0.61	0.050			
0.9222	59019.30	3.1230	3.1227	0.0787	23.98	0.60	0.050			
0.9223	59024.28	3.1220	3.1220	0.0783	23.97	0.59	0.050			
0.9223	59029.28	3.1210	3.1211	0.0779	23.96	0.58	0.050			
0.9224	59034.26	3.1200	3.1201	0.0776	23.94	0.56	0.050			
0.9225	59039.21	3.1190	3.1191	0.0772	23.93	0.55	0.050			
0.9226	59044.14	3.1180	3.1182	0.0768	23.92	0.54	0.050			
0.9226	59049.04	3.1170	3.1172	0.0764	23.91	0.53	0.050			
0.9227	59053.72	3.1160	3.1163	0.0759	23.90	0.52	0.050			
0.9228	59058.68	3.1150	3.1152	0.0755	23.89	0.51	0.050			
0.9229	59063.50	3.1140	3.1142	0.0751	23.88	0.50	0.050			
0.9229	59068.30	3.1130	3.1130	0.0748	23.87	0.49	0.050			
0.9230	59073.07	3.1120	3.1118	0.0745	23.86	0.48	0.050			
0.9231	59077.95	3.1110	3.1109	0.0744	23.85	0.47	0.050			
0.9232	59082.70	3.1100	3.1100	0.0740	23.84	0.46	0.050			
0.9232	59087.42	3.1090	3.1090	0.0735	23.83	0.45	0.050			
0.9233	59092.11	3.1080	3.1080	0.0731	23.82	0.44	0.050			
0.9234	59096.64	3.1070	3.1070	0.0731	23.81	0.43	0.050			
0.9235	59101.30	3.1060	3.1061	0.0727	23.80	0.42	0.050			
0.9235	59105.95	3.1050	3.1051	0.0724	23.79	0.41	0.050			
0.9236	59110.57	3.1040	3.1041	0.0721	23.78	0.40	0.050			
0.9237	59115.17	3.1030	3.1029	0.0717	23.77	0.39	0.050			
0.9237	59119.61	3.1020	3.1018	0.0712	23.76	0.38	0.050			
0.9238	59124.16	3.1010	3.1007	0.0709	23.75	0.37	0.050			
0.9239	59128.69	3.1000	3.0997	0.0707	23.74	0.36	0.050			
0.9240	59133.21	3.0990	3.0989	0.0704	23.74	0.36	0.050			
0.9240	59137.70	3.0980	3.0981	0.0702	23.73	0.35	0.050			
0.9241	59142.18	3.0970	3.0972	0.0699	23.72	0.34	0.050			
0.9242	59146.65	3.0960	3.0962	0.0697	23.71	0.33	0.050			
0.9242	59151.04	3.0950	3.0952	0.0693	23.69	0.31	0.050			
0.9243	59155.46	3.0940	3.0942	0.0691	23.68	0.30	0.050			
0.9244	59159.88	3.0930	3.0932	0.0688	23.67	0.29	0.050			
0.9244	59164.28	3.0920	3.0922	0.0686	23.66	0.28	0.050			
0.9245	59168.77	3.0910	3.0911	0.0682	23.65	0.27	0.050			
0.9246	59173.12	3.0900	3.0899	0.0679	23.64	0.26	0.050			
0.9246	59177.46	3.0890	3.0888	0.0676	23.63	0.25	0.050			
0.9247	59181.77	3.0880	3.0881	0.0673	23.63	0.25	0.050			
0.9248	59186.17	3.0870	3.0870	0.0672	23.62	0.24	0.050			
0.9249	59190.46	3.0860	3.0860	0.0669	23.61	0.23	0.050			
0.9249	59194.73	3.0850	3.0850	0.0666	23.60	0.22	0.050			
0.9250	59198.98	3.0840	3.0840	0.0662	23.59	0.21	0.050			
0.9251	59203.21	3.0830	3.0830	0.0659	23.58	0.20	0.050			
0.9251	59207.47	3.0820	3.0820	0.0654	23.57	0.19	0.050			
0.9252	59211.65	3.0810	3.0810	0.0651	23.56	0.18	0.050			
0.9252	59215.80	3.0800	3.0800	0.0647	23.55	0.17	0.050			
0.9253	59219.93	3.0790	3.0790	0.0644	23.54	0.16	0.050			
0.9254	59224.10	3.0780	3.0780	0.0641	23.53	0.15	0.050			
0.9254	59228.19	3.0770	3.0769	0.0637	23.52	0.14	0.050			
0.9255	59232.26	3.0760	3.0758	0.0633	23.51	0.13	0.050			
0.9256	59236.30	3.0750	3.0750	0.0629	23.50	0.12	0.050			
0.9256	59240.32	3.0740	3.0740	0.0626	23.50	0.12	0.050			
0.9257	59244.31	3.0730	3.0729	0.0622	23.49	0.11	0.050			
0.9258	59249.35	3.0720	3.0719	0.0593	23.48	0.10	0.050			
0.9258	59253.41	3.0710	3.0709	0.0605	23.47	0.09	0.050			
0.9259	59257.24	3.0700	3.0699	0.0593	23.46	0.08	0.050			
0.9260	59261.01	3.0690	3.0688	0.0582	23.45	0.07	0.050			
0.9260	59264.70	3.0680	3.0679	0.0571	23.44	0.06	0.050			
0.9261	59268.32	3.0670	3.0670	0.0560	23.43	0.05	0.050			
0.9261	59271.87	3.0660	3.0661	0.0549	23.42	0.04	0.050			
0.9262	59275.35	3.0650	3.0652	0.0538	23.41	0.03	0.050			
0.9262	59278.75	3.0640	3.0643	0.0527	23.40	0.02	0.050			
0.9263	59282.09	3.0630	3.0632	0.0516	23.39	0.01	0.050			
0.9263	59286.32	3.0620	3.0620	0.0520	23.38	-0.00	0.050			
0.9264	59289.60	3.0610	3.0612	0.0505	23.37	-0.01	0.050			
0.9264	59292.79	3.0600	3.0602	0.0491	23.36	-0.02	0.050			
0.9265	59295.89	3.0590	3.0593	0.0477	23.35	-0.03	0.050			
0.9265	59298.89	3.0580	3.0584	0.0462	23.34	-0.04	0.050			
0.9266	59301.80	3.0570	3.0574	0.0448	23.33	-0.05	0.050			
0.9266	59304.62	3.0560	3.0566	0.0433	23.33	-0.05	0.050			
0.9267	59307.35	3.0550	3.0557	0.0419	23.32	-0.06	0.050			
0.9267	59309.98	3.0540	3.0549	0.0404	23.31	-0.07	0.050			
0.9268	59312.53	3.0530	3.0540	0.0390	23.30	-0.08	0.050			
0.9268	59314.98	3.0520	3.0531	0.0376	23.30	-0.08	0.050			
0.9268	59317.33	3.0510	3.0523	0.0361	23.29	-0.09	0.050			
0.9269	59319.60	3.0500	3.0515	0.0347	23.28	-0.10	0.050			
0.9269	59321.77	3.0490	3.0507	0.0332	23.28	-0.10	0.050			
0.9269	59323.85	3.0480	3.0498	0.0318	23.27	-0.11	0.050			
0.9270	59325.84	3.0470	3.0489	0.0304	23.27	-0.11	0.050			
