Ah_balance (normalized)	Ah_balance (mAh)	Voltage - fit (V)	Voltage -  interpolate (V)	dQ/dV (1/V)	Temperature (°C)	Temperature - diff (°C)	Current (C)	R_DC 0ms (mOhm)	R_DC 50ms (mOhm)	R_DC 50 ms PEC (mOhm)
0.0001	7.31	4.1670	4.1670	-0.1146	35.96	-0.01	-0.750			
0.0006	37.00	4.1640	4.1638	-0.1908	35.96	-0.01	-0.750			
0.0012	79.92	4.1610	4.1610	-0.2607	35.96	-0.01	-0.750			
0.0021	136.87	4.1580	4.1581	-0.3321	35.96	-0.01	-0.750			
0.0033	208.58	4.1550	4.1550	-0.3973	35.96	-0.01	-0.750			
0.0046	292.94	4.1520	4.1520	-0.4624	35.97	-0.00	-0.750			
0.0061	389.16	4.1490	4.1490	-0.5204	35.97	-0.00	-0.750			
0.0078	496.35	4.1460	4.1460	-0.5677	35.97	-0.00	-0.750			
0.0096	612.56	4.1430	4.1430	-0.6106	35.97	-0.00	-0.750			
0.0115	734.06	4.1400	4.1400	-0.6436	35.97	0.00	-0.750			
0.0135	861.96	4.1370	4.1370	-0.6749	35.97	0.00	-0.750			
0.0156	995.88	4.1340	4.1340	-0.6996	35.97	0.00	-0.750			
0.0177	1132.99	4.1310	4.1310	-0.7187	35.98	0.01	-0.750			
0.0199	1274.87	4.1280	4.1280	-0.7323	35.98	0.01	-0.750			
0.0222	1417.62	4.1250	4.1251	-0.7412	35.98	0.01	-0.750			
0.0244	1561.69	4.1220	4.1220	-0.7498	35.99	0.02	-0.750			
0.0266	1705.07	4.1190	4.1190	-0.7559	35.99	0.02	-0.750			
0.0289	1849.59	4.1160	4.1160	-0.7621	36.00	0.03	-0.750			
0.0312	1996.45	4.1130	4.1129	-0.7716	36.01	0.04	-0.750			
0.0335	2146.61	4.1100	4.1100	-0.7784	36.02	0.05	-0.750			
0.0359	2297.31	4.1070	4.1070	-0.7855	36.03	0.06	-0.750			
0.0383	2449.67	4.1040	4.1040	-0.7915	36.04	0.07	-0.750			
0.0407	2602.11	4.1010	4.1009	-0.7942	36.05	0.08	-0.750			
0.0430	2754.85	4.0980	4.0980	-0.7926	36.06	0.09	-0.750			
0.0454	2906.93	4.0950	4.0950	-0.7962	36.07	0.10	-0.750			
0.0478	3059.59	4.0920	4.0921	-0.7997	36.08	0.11	-0.750			
0.0502	3214.06	4.0890	4.0889	-0.8016	36.09	0.12	-0.750			
0.0526	3367.39	4.0860	4.0860	-0.8039	36.10	0.13	-0.750			
0.0550	3522.07	4.0830	4.0830	-0.8075	36.10	0.13	-0.750			
0.0575	3677.48	4.0800	4.0800	-0.8130	36.11	0.14	-0.750			
0.0599	3834.68	4.0770	4.0770	-0.8157	36.12	0.15	-0.750			
0.0624	3990.78	4.0740	4.0740	-0.8152	36.13	0.16	-0.750			
0.0648	4148.24	4.0710	4.0710	-0.8181	36.15	0.18	-0.750			
0.0673	4306.20	4.0680	4.0680	-0.8212	36.16	0.19	-0.750			
0.0697	4463.64	4.0650	4.0650	-0.8216	36.18	0.21	-0.750			
0.0722	4621.53	4.0620	4.0621	-0.8208	36.19	0.22	-0.750			
0.0747	4778.39	4.0590	4.0590	-0.8224	36.20	0.23	-0.750			
0.0771	4936.61	4.0560	4.0560	-0.8283	36.21	0.24	-0.750			
0.0796	5095.49	4.0530	4.0530	-0.8321	36.23	0.26	-0.750			
0.0821	5256.15	4.0500	4.0500	-0.8326	36.24	0.27	-0.750			
0.0846	5416.75	4.0470	4.0471	-0.8352	36.25	0.28	-0.750			
0.0872	5578.03	4.0440	4.0440	-0.8352	36.27	0.30	-0.750			
0.0897	5739.08	4.0410	4.0410	-0.8365	36.29	0.32	-0.750			
0.0922	5898.82	4.0380	4.0380	-0.8348	36.30	0.33	-0.750			
0.0947	6058.13	4.0350	4.0350	-0.8349	36.32	0.35	-0.750			
0.0972	6218.42	4.0320	4.0320	-0.8384	36.34	0.37	-0.750			
0.0997	6380.09	4.0290	4.0290	-0.8424	36.35	0.38	-0.750			
0.1022	6541.80	4.0260	4.0260	-0.8450	36.37	0.40	-0.750			
0.1048	6705.04	4.0230	4.0230	-0.8469	36.38	0.41	-0.750			
0.1073	6867.98	4.0200	4.0201	-0.8487	36.40	0.43	-0.750			
0.1099	7031.53	4.0170	4.0170	-0.8492	36.41	0.44	-0.750			
0.1124	7194.11	4.0140	4.0140	-0.8514	36.43	0.46	-0.750			
0.1149	7356.66	4.0110	4.0110	-0.8517	36.45	0.48	-0.750			
0.1175	7520.56	4.0080	4.0079	-0.8537	36.47	0.50	-0.750			
0.1201	7684.90	4.0050	4.0050	-0.8575	36.49	0.52	-0.750			
0.1227	7850.02	4.0020	4.0020	-0.8609	36.51	0.54	-0.750			
0.1252	8015.56	3.9990	3.9990	-0.8640	36.53	0.56	-0.750			
0.1278	8182.26	3.9960	3.9960	-0.8673	36.55	0.58	-0.750			
0.1304	8347.59	3.9930	3.9930	-0.8692	36.57	0.60	-0.750			
0.1331	8515.67	3.9900	3.9900	-0.8722	36.59	0.62	-0.750			
0.1357	8683.52	3.9870	3.9870	-0.8750	36.61	0.64	-0.750			
0.1383	8851.53	3.9840	3.9840	-0.8767	36.62	0.65	-0.750			
0.1409	9020.17	3.9810	3.9810	-0.8772	36.64	0.67	-0.750			
0.1436	9188.49	3.9780	3.9780	-0.8790	36.66	0.69	-0.750			
0.1462	9357.15	3.9750	3.9750	-0.8821	36.67	0.70	-0.750			
0.1488	9526.14	3.9720	3.9719	-0.8847	36.69	0.72	-0.750			
0.1515	9696.97	3.9690	3.9690	-0.8909	36.72	0.75	-0.750			
0.1542	9868.29	3.9660	3.9660	-0.8944	36.74	0.77	-0.750			
0.1569	10041.44	3.9630	3.9630	-0.8958	36.76	0.79	-0.750			
0.1596	10214.25	3.9600	3.9600	-0.8963	36.78	0.81	-0.750			
0.1623	10385.63	3.9570	3.9570	-0.8979	36.80	0.83	-0.750			
0.1650	10557.98	3.9540	3.9540	-0.8983	36.82	0.85	-0.750			
0.1677	10730.06	3.9510	3.9510	-0.8982	36.84	0.87	-0.750			
0.1704	10902.62	3.9480	3.9480	-0.9017	36.87	0.90	-0.750			
0.1731	11075.79	3.9450	3.9450	-0.9025	36.89	0.92	-0.750			
0.1758	11249.39	3.9420	3.9420	-0.9071	36.91	0.94	-0.750			
0.1785	11423.70	3.9390	3.9390	-0.9097	36.93	0.96	-0.750			
0.1812	11598.56	3.9360	3.9360	-0.9097	36.96	0.99	-0.750			
0.1840	11774.23	3.9330	3.9330	-0.9133	36.98	1.01	-0.750			
0.1867	11948.82	3.9300	3.9300	-0.9186	37.00	1.03	-0.750			
0.1895	12125.40	3.9270	3.9270	-0.9214	37.02	1.05	-0.750			
0.1922	12303.75	3.9240	3.9239	-0.9223	37.04	1.07	-0.750			
0.1950	12480.30	3.9210	3.9210	-0.9261	37.06	1.09	-0.750			
0.1978	12659.02	3.9180	3.9181	-0.9287	37.08	1.11	-0.750			
0.2006	12837.65	3.9150	3.9150	-0.9327	37.11	1.14	-0.750			
0.2034	13016.78	3.9120	3.9119	-0.9325	37.13	1.16	-0.750			
0.2062	13195.39	3.9090	3.9090	-0.9328	37.15	1.18	-0.750			
0.2090	13375.63	3.9060	3.9060	-0.9367	37.18	1.21	-0.750			
0.2118	13555.13	3.9030	3.9030	-0.9407	37.20	1.23	-0.750			
0.2146	13735.53	3.9000	3.9000	-0.9399	37.22	1.25	-0.750			
0.2174	13916.62	3.8970	3.8970	-0.9438	37.24	1.27	-0.750			
0.2203	14097.82	3.8940	3.8940	-0.9433	37.27	1.30	-0.750			
0.2231	14280.10	3.8910	3.8910	-0.9473	37.29	1.32	-0.750			
0.2260	14461.93	3.8880	3.8880	-0.9487	37.31	1.34	-0.750			
0.2288	14643.99	3.8850	3.8850	-0.9499	37.33	1.36	-0.750			
0.2317	14825.82	3.8820	3.8820	-0.9495	37.36	1.39	-0.750			
0.2345	15009.43	3.8790	3.8790	-0.9539	37.38	1.41	-0.750			
0.2374	15192.68	3.8760	3.8760	-0.9542	37.41	1.44	-0.750			
0.2403	15376.53	3.8730	3.8730	-0.9555	37.44	1.47	-0.750			
0.2431	15559.53	3.8700	3.8700	-0.9537	37.47	1.50	-0.750			
0.2460	15742.08	3.8670	3.8670	-0.9549	37.50	1.53	-0.750			
0.2488	15925.63	3.8640	3.8640	-0.9561	37.52	1.55	-0.750			
0.2517	16109.22	3.8610	3.8610	-0.9596	37.54	1.57	-0.750			
0.2546	16293.46	3.8580	3.8580	-0.9617	37.56	1.59	-0.750			
0.2575	16478.94	3.8550	3.8550	-0.9635	37.58	1.61	-0.750			
0.2604	16663.96	3.8520	3.8520	-0.9667	37.60	1.63	-0.750			
0.2633	16850.61	3.8490	3.8490	-0.9709	37.62	1.65	-0.750			
0.2662	17036.95	3.8460	3.8460	-0.9728	37.65	1.68	-0.750			
0.2691	17223.92	3.8430	3.8430	-0.9740	37.68	1.71	-0.750			
0.2721	17411.48	3.8400	3.8401	-0.9757	37.69	1.72	-0.750			
0.2750	17599.05	3.8370	3.8370	-0.9794	37.72	1.75	-0.750			
0.2779	17787.99	3.8340	3.8340	-0.9802	37.74	1.77	-0.750			
0.2809	17975.49	3.8310	3.8310	-0.9802	37.77	1.80	-0.750			
0.2838	18163.75	3.8280	3.8281	-0.9809	37.79	1.82	-0.750			
0.2868	18353.06	3.8250	3.8250	-0.9823	37.82	1.85	-0.750			
0.2897	18541.70	3.8220	3.8220	-0.9831	37.85	1.88	-0.750			
0.2927	18730.17	3.8190	3.8190	-0.9809	37.87	1.90	-0.750			
0.2956	18919.22	3.8160	3.8160	-0.9817	37.90	1.93	-0.750			
0.2986	19107.96	3.8130	3.8130	-0.9828	37.92	1.95	-0.750			
0.3015	19295.90	3.8100	3.8100	-0.9830	37.94	1.97	-0.750			
0.3044	19484.41	3.8070	3.8070	-0.9865	37.96	1.99	-0.750			
0.3074	19674.21	3.8040	3.8039	-0.9905	37.97	2.00	-0.750			
0.3104	19864.51	3.8010	3.8010	-0.9936	38.00	2.03	-0.750			
0.3134	20056.32	3.7980	3.7980	-0.9970	38.02	2.05	-0.750			
0.3164	20248.35	3.7950	3.7950	-0.9975	38.05	2.08	-0.750			
0.3194	20440.36	3.7920	3.7920	-0.9977	38.08	2.11	-0.750			
0.3224	20631.45	3.7890	3.7891	-1.0002	38.10	2.13	-0.750			
0.3254	20823.20	3.7860	3.7860	-1.0003	38.12	2.15	-0.750			
0.3284	21015.01	3.7830	3.7830	-1.0018	38.14	2.17	-0.750			
0.3314	21207.63	3.7800	3.7800	-1.0033	38.17	2.20	-0.750			
0.3344	21401.32	3.7770	3.7770	-1.0067	38.19	2.22	-0.750			
0.3374	21594.55	3.7740	3.7740	-1.0106	38.21	2.24	-0.750			
0.3405	21789.34	3.7710	3.7710	-1.0103	38.24	2.27	-0.750			
0.3435	21982.68	3.7680	3.7680	-1.0129	38.27	2.30	-0.750			
0.3465	22177.42	3.7650	3.7650	-1.0151	38.29	2.32	-0.750			
0.3496	22373.27	3.7620	3.7620	-1.0158	38.31	2.34	-0.750			
0.3526	22568.53	3.7590	3.7590	-1.0161	38.33	2.36	-0.750			
0.3557	22763.42	3.7560	3.7560	-1.0158	38.35	2.38	-0.750			
0.3587	22957.82	3.7530	3.7530	-1.0161	38.37	2.40	-0.750			
0.3618	23153.69	3.7500	3.7500	-1.0200	38.39	2.42	-0.750			
0.3648	23348.10	3.7470	3.7470	-1.0225	38.42	2.45	-0.750			
0.3679	23544.43	3.7440	3.7440	-1.0287	38.44	2.47	-0.750			
0.3710	23742.87	3.7410	3.7410	-1.0348	38.46	2.49	-0.750			
0.3741	23941.93	3.7380	3.7380	-1.0429	38.48	2.51	-0.750			
0.3772	24143.67	3.7350	3.7350	-1.0484	38.51	2.54	-0.750			
0.3804	24345.41	3.7320	3.7320	-1.0551	38.53	2.56	-0.750			
0.3836	24547.93	3.7290	3.7290	-1.0652	38.55	2.58	-0.750			
0.3868	24753.04	3.7260	3.7260	-1.0769	38.57	2.60	-0.750			
0.3900	24960.19	3.7230	3.7229	-1.0884	38.59	2.62	-0.750			
0.3933	25170.38	3.7200	3.7200	-1.1033	38.61	2.64	-0.750			
0.3966	25382.57	3.7170	3.7170	-1.1189	38.63	2.66	-0.750			
0.4000	25599.63	3.7140	3.7140	-1.1421	38.64	2.67	-0.750			
0.4035	25820.84	3.7110	3.7110	-1.1578	38.66	2.69	-0.750			
0.4070	26045.13	3.7080	3.7079	-1.1733	38.68	2.71	-0.750			
0.4105	26272.08	3.7050	3.7051	-1.1927	38.69	2.72	-0.750			
0.4141	26503.12	3.7020	3.7020	-1.2115	38.70	2.73	-0.750			
0.4178	26736.30	3.6990	3.6990	-1.2319	38.72	2.75	-0.750			
0.4214	26972.12	3.6960	3.6960	-1.2577	38.73	2.76	-0.750			
0.4253	27216.52	3.6930	3.6930	-1.2906	38.73	2.76	-0.750			
0.4292	27467.64	3.6900	3.6900	-1.3202	38.74	2.77	-0.750			
0.4332	27724.41	3.6870	3.6870	-1.3527	38.75	2.78	-0.750			
0.4373	27987.10	3.6840	3.6840	-1.3825	38.75	2.78	-0.750			
0.4415	28256.53	3.6810	3.6810	-1.4176	38.75	2.78	-0.750			
0.4458	28531.15	3.6780	3.6779	-1.4483	38.75	2.78	-0.750			
0.4502	28810.75	3.6750	3.6750	-1.4769	38.74	2.77	-0.750			
0.4547	29097.91	3.6720	3.6721	-1.5162	38.73	2.76	-0.750			
0.4593	29393.33	3.6690	3.6689	-1.5539	38.72	2.75	-0.750			
0.4640	29693.85	3.6660	3.6660	-1.5863	38.71	2.74	-0.750			
0.4688	30003.45	3.6630	3.6630	-1.6297	38.71	2.74	-0.750			
0.4737	30317.15	3.6600	3.6601	-1.6781	38.69	2.72	-0.750			
0.4788	30645.67	3.6570	3.6569	-1.7244	38.67	2.70	-0.750			
0.4841	30979.90	3.6540	3.6541	-1.7756	38.65	2.68	-0.750			
0.4895	31326.85	3.6510	3.6510	-1.8163	38.63	2.66	-0.750			
0.4950	31680.85	3.6480	3.6480	-1.8634	38.62	2.65	-0.750			
0.5007	32043.38	3.6450	3.6451	-1.9126	38.60	2.63	-0.750			
0.5064	32412.74	3.6420	3.6420	-1.9596	38.58	2.61	-0.750			
0.5124	32792.83	3.6390	3.6389	-2.0088	38.56	2.59	-0.750	0.363	0.390	
0.5185	33184.83	3.6360	3.6360	-2.0615	38.54	2.57	-0.750			
0.5248	33588.16	3.6330	3.6330	-2.1067	38.52	2.55	-0.750			
0.5313	34000.42	3.6300	3.6301	-2.1543	38.51	2.54	-0.750			
0.5377	34415.51	3.6270	3.6270	-2.1900	38.49	2.52	-0.750			
0.5443	34838.29	3.6240	3.6241	-2.2319	38.46	2.49	-0.750			
0.5511	35270.36	3.6210	3.6210	-2.2688	38.44	2.47	-0.750			
0.5579	35707.91	3.6180	3.6180	-2.3279	38.42	2.45	-0.750			
0.5650	36159.30	3.6150	3.6150	-2.3794	38.39	2.42	-0.750			
0.5722	36622.07	3.6120	3.6119	-2.4460	38.36	2.39	-0.750			
0.5796	37097.15	3.6090	3.6090	-2.5055	38.34	2.37	-0.750			
0.5873	37584.05	3.6060	3.6060	-2.5597	38.32	2.35	-0.750			
0.5951	38085.17	3.6030	3.6031	-2.6138	38.30	2.33	-0.750			
0.6030	38592.81	3.6000	3.6001	-2.6545	38.30	2.33	-0.750			
0.6110	39105.95	3.5970	3.5970	-2.6886	38.31	2.34	-0.750			
0.6192	39628.15	3.5940	3.5940	-2.7185	38.29	2.32	-0.750			
0.6274	40153.74	3.5910	3.5910	-2.7420	38.29	2.32	-0.750			
0.6357	40683.96	3.5880	3.5880	-2.7610	38.28	2.31	-0.750			
0.6440	41215.19	3.5850	3.5850	-2.7679	38.29	2.32	-0.750			
0.6523	41748.64	3.5820	3.5820	-2.7788	38.29	2.32	-0.750			
0.6607	42282.33	3.5790	3.5790	-2.7857	38.29	2.32	-0.750			
0.6691	42819.30	3.5760	3.5759	-2.7843	38.32	2.35	-0.750			
0.6775	43357.27	3.5730	3.5730	-2.7735	38.34	2.37	-0.750			
0.6858	43888.84	3.5700	3.5701	-2.7519	38.35	2.38	-0.750			
0.6940	44418.41	3.5670	3.5670	-2.7295	38.37	2.40	-0.750			
0.7022	44939.31	3.5640	3.5640	-2.6957	38.40	2.43	-0.750			
0.7102	45455.90	3.5610	3.5610	-2.6559	38.43	2.46	-0.750			
0.7182	45967.02	3.5580	3.5580	-2.6000	38.46	2.49	-0.750			
0.7260	46463.71	3.5550	3.5551	-2.5249	38.49	2.52	-0.750			
0.7335	46944.57	3.5520	3.5520	-2.4478	38.52	2.55	-0.750			
0.7407	47406.23	3.5490	3.5490	-2.3552	38.57	2.60	-0.750			
0.7476	47846.92	3.5460	3.5461	-2.2678	38.61	2.64	-0.750			
0.7542	48271.82	3.5430	3.5430	-2.1880	38.67	2.70	-0.750			
0.7607	48682.89	3.5400	3.5400	-2.1173	38.72	2.75	-0.750			
0.7669	49084.57	3.5370	3.5370	-2.0456	38.82	2.85	-0.750			
0.7730	49472.40	3.5340	3.5340	-1.9731	38.90	2.93	-0.750			
0.7788	49842.55	3.5310	3.5311	-1.8913	38.99	3.02	-0.750			
0.7844	50199.67	3.5280	3.5280	-1.8129	39.08	3.11	-0.750			
0.7897	50538.79	3.5250	3.5250	-1.7369	39.18	3.21	-0.750			
0.7947	50862.73	3.5220	3.5220	-1.6646	39.27	3.30	-0.750			
0.7996	51173.25	3.5190	3.5189	-1.5963	39.35	3.38	-0.750			
0.8043	51474.63	3.5160	3.5160	-1.5338	39.43	3.46	-0.750			
0.8088	51761.74	3.5130	3.5130	-1.4763	39.51	3.54	-0.750			
0.8131	52040.27	3.5100	3.5100	-1.4196	39.58	3.61	-0.750			
0.8173	52306.44	3.5070	3.5070	-1.3640	39.65	3.68	-0.750			
0.8213	52563.71	3.5040	3.5039	-1.3106	39.71	3.74	-0.750			
0.8251	52808.43	3.5010	3.5010	-1.2624	39.76	3.79	-0.750			
0.8288	53045.87	3.4980	3.4981	-1.2180	39.82	3.85	-0.750			
0.8324	53275.29	3.4950	3.4949	-1.1766	39.87	3.90	-0.750			
0.8359	53495.48	3.4920	3.4920	-1.1333	39.92	3.95	-0.750			
0.8392	53709.99	3.4890	3.4890	-1.0956	39.96	3.99	-0.750			
0.8424	53916.08	3.4860	3.4860	-1.0571	40.01	4.04	-0.750			
0.8456	54116.63	3.4830	3.4830	-1.0199	40.04	4.07	-0.750			
0.8486	54308.12	3.4800	3.4800	-0.9859	40.08	4.11	-0.750			
0.8515	54493.47	3.4770	3.4770	-0.9537	40.12	4.15	-0.750			
0.8542	54671.92	3.4740	3.4740	-0.9250	40.16	4.19	-0.750			
0.8570	54844.85	3.4710	3.4710	-0.9069	40.19	4.22	-0.750			
0.8596	55015.66	3.4680	3.4680	-0.8973	40.22	4.25	-0.750			
0.8622	55181.24	3.4650	3.4650	-0.9075	40.25	4.28	-0.750			
0.8648	55346.41	3.4620	3.4621	-0.9491	40.28	4.31	-0.750			
0.8676	55524.43	3.4590	3.4590	-1.0317	40.31	4.34	-0.750			
0.8706	55719.67	3.4560	3.4559	-1.1816	40.33	4.36	-0.750			
0.8742	55950.34	3.4530	3.4528	-1.3225	40.36	4.39	-0.750			
0.8785	56227.13	3.4500	3.4498	-1.4587	40.39	4.42	-0.750			
0.8834	56535.03	3.4470	3.4470	-1.5773	40.43	4.46	-0.750			
0.8885	56865.22	3.4440	3.4441	-1.6260	40.46	4.49	-0.750			
0.8936	57189.96	3.4410	3.4411	-1.6302	40.49	4.52	-0.750			
0.8985	57507.19	3.4380	3.4381	-1.6002	40.52	4.55	-0.750			
0.9033	57808.46	3.4350	3.4349	-1.5509	40.55	4.58	-0.750			
0.9078	58099.71	3.4320	3.4320	-1.5077	40.59	4.62	-0.750			
0.9123	58384.36	3.4290	3.4290	-1.4690	40.62	4.65	-0.750			
0.9167	58665.62	3.4260	3.4260	-1.4321	40.66	4.69	-0.750			
0.9209	58936.92	3.4230	3.4230	-1.3891	40.69	4.72	-0.750			
0.9250	59199.88	3.4200	3.4200	-1.3442	40.72	4.75	-0.750			
0.9290	59454.33	3.4170	3.4170	-1.2976	40.75	4.78	-0.750			
0.9328	59699.67	3.4140	3.4140	-1.2484	40.78	4.81	-0.750			
0.9365	59934.90	3.4110	3.4110	-1.1931	40.81	4.84	-0.750			
0.9400	60161.06	3.4080	3.4080	-1.1376	40.84	4.87	-0.750			
0.9434	60375.35	3.4050	3.4050	-1.0744	40.86	4.89	-0.750			
0.9465	60576.33	3.4020	3.4021	-1.0066	40.89	4.92	-0.750			
0.9494	60763.22	3.3990	3.3990	-0.9353	40.91	4.94	-0.750			
0.9521	60937.30	3.3960	3.3960	-0.8607	40.94	4.97	-0.750			
0.9546	61094.75	3.3930	3.3930	-0.7857	40.97	5.00	-0.750			
0.9568	61237.80	3.3900	3.3900	-0.7104	40.99	5.02	-0.750			
0.9588	61366.16	3.3870	3.3870	-0.6424	41.02	5.05	-0.750			
0.9606	61481.37	3.3840	3.3840	-0.5777	41.04	5.07	-0.750			
0.9622	61582.99	3.3810	3.3810	-0.5219	41.07	5.10	-0.750			
0.9637	61676.32	3.3780	3.3780	-0.4729	41.09	5.12	-0.750			
0.9650	61761.38	3.3750	3.3750	-0.4335	41.11	5.14	-0.750			
0.9662	61839.39	3.3720	3.3720	-0.3983	41.13	5.16	-0.750			
0.9674	61911.56	3.3690	3.3689	-0.3695	41.15	5.18	-0.750			
0.9684	61978.57	3.3660	3.3660	-0.3457	41.17	5.20	-0.750			
0.9694	62041.86	3.3630	3.3630	-0.3244	41.19	5.22	-0.750			
0.9703	62101.80	3.3600	3.3600	-0.3067	41.22	5.25	-0.750			
0.9712	62157.95	3.3570	3.3570	-0.2915	41.24	5.27	-0.750			
0.9721	62212.25	3.3540	3.3540	-0.2799	41.26	5.29	-0.750			
0.9729	62264.39	3.3510	3.3510	-0.2680	41.28	5.31	-0.750			
0.9737	62314.64	3.3480	3.3479	-0.2589	41.30	5.33	-0.750			
0.9744	62363.44	3.3450	3.3451	-0.2513	41.32	5.35	-0.750			
0.9752	62410.52	3.3420	3.3420	-0.2441	41.33	5.36	-0.750			
0.9759	62456.75	3.3390	3.3390	-0.2377	41.35	5.38	-0.750			
0.9766	62501.61	3.3360	3.3360	-0.2322	41.37	5.40	-0.750			
0.9773	62545.08	3.3330	3.3330	-0.2269	41.39	5.42	-0.750			
0.9779	62588.10	3.3300	3.3300	-0.2228	41.41	5.44	-0.750			
0.9786	62630.53	3.3270	3.3270	-0.2191	41.43	5.46	-0.750			
0.9793	62672.20	3.3240	3.3240	-0.2151	41.45	5.48	-0.750			
0.9799	62713.13	3.3210	3.3210	-0.2117	41.46	5.49	-0.750			
0.9805	62753.35	3.3180	3.3180	-0.2083	41.48	5.51	-0.750			
0.9811	62793.02	3.3150	3.3150	-0.2049	41.49	5.52	-0.750			
0.9817	62831.99	3.3120	3.3120	-0.2017	41.50	5.53	-0.750			
0.9823	62870.16	3.3090	3.3090	-0.1991	41.52	5.55	-0.750			
0.9829	62908.06	3.3060	3.3061	-0.1965	41.53	5.56	-0.750			
0.9835	62945.60	3.3030	3.3030	-0.1941	41.54	5.57	-0.750			
0.9841	62982.69	3.3000	3.2999	-0.1918	41.55	5.58	-0.750			
0.9847	63019.25	3.2970	3.2971	-0.1893	41.57	5.60	-0.750			
0.9852	63055.45	3.2940	3.2940	-0.1868	41.59	5.62	-0.750			
0.9858	63091.02	3.2910	3.2910	-0.1844	41.61	5.64	-0.750			
0.9863	63126.10	3.2880	3.2880	-0.1824	41.62	5.65	-0.750			
0.9869	63160.68	3.2850	3.2851	-0.1801	41.64	5.67	-0.750			
0.9874	63195.04	3.2820	3.2820	-0.1784	41.66	5.69	-0.750			
0.9880	63229.11	3.2790	3.2790	-0.1765	41.67	5.70	-0.750			
0.9885	63262.88	3.2760	3.2760	-0.1748	41.69	5.72	-0.750			
0.9890	63296.30	3.2730	3.2730	-0.1731	41.70	5.73	-0.750			
0.9895	63329.54	3.2700	3.2700	-0.1711	41.72	5.75	-0.750			
0.9900	63362.09	3.2670	3.2670	-0.1693	41.73	5.76	-0.750			
0.9905	63394.30	3.2640	3.2640	-0.1672	41.74	5.77	-0.750			
0.9910	63426.24	3.2610	3.2610	-0.1655	41.76	5.79	-0.750			
0.9915	63457.86	3.2580	3.2580	-0.1635	41.77	5.80	-0.750			
0.9920	63489.14	3.2550	3.2550	-0.1615	41.78	5.81	-0.750			
0.9925	63519.99	3.2520	3.2520	-0.1596	41.79	5.82	-0.750			
0.9930	63550.43	3.2490	3.2490	-0.1575	41.80	5.83	-0.750			
0.9934	63580.52	3.2460	3.2460	-0.1556	41.82	5.85	-0.750			
0.9939	63610.00	3.2430	3.2430	-0.1538	41.83	5.86	-0.750			
0.9944	63639.20	3.2400	3.2400	-0.1524	41.84	5.87	-0.750			
0.9948	63668.36	3.2370	3.2370	-0.1513	41.85	5.88	-0.750			
0.9953	63697.33	3.2340	3.2340	-0.1497	41.86	5.89	-0.750			
0.9957	63726.02	3.2310	3.2310	-0.1484	41.87	5.90	-0.750			
0.9962	63754.45	3.2280	3.2280	-0.1470	41.88	5.91	-0.750			
0.9966	63782.50	3.2250	3.2251	-0.1454	41.89	5.92	-0.750			
0.9970	63810.37	3.2220	3.2220	-0.1437	41.91	5.94	-0.750			
0.9975	63837.62	3.2190	3.2190	-0.1423	41.92	5.95	-0.750			
0.9979	63864.80	3.2160	3.2160	-0.1409	41.93	5.96	-0.750			
0.9983	63891.55	3.2130	3.2130	-0.1394	41.94	5.97	-0.750			
0.9987	63918.35	3.2100	3.2099	-0.1381	41.96	5.99	-0.750			
0.9991	63944.66	3.2070	3.2070	-0.1368	41.97	6.00	-0.750			
0.9995	63970.81	3.2040	3.2041	-0.1356	41.98	6.01	-0.750			
0.9999	63996.77	3.2010	3.2010	-0.1341	41.99	6.02	-0.750			
1.0004	64022.45	3.1980	3.1980	-0.1328	42.00	6.03	-0.750			
1.0007	64047.70	3.1950	3.1950	-0.1311	42.02	6.05	-0.750			
1.0011	64072.73	3.1920	3.1920	-0.1297	42.03	6.06	-0.750			
1.0015	64097.56	3.1890	3.1890	-0.1284	42.04	6.07	-0.750			
1.0019	64122.13	3.1860	3.1860	-0.1270	42.05	6.08	-0.750			
1.0023	64146.15	3.1830	3.1831	-0.1258	42.06	6.09	-0.750			
1.0027	64170.31	3.1800	3.1800	-0.1247	42.07	6.10	-0.750			
1.0030	64194.20	3.1770	3.1770	-0.1238	42.08	6.11	-0.750			
1.0034	64217.84	3.1740	3.1740	-0.1226	42.09	6.12	-0.750			
1.0038	64241.28	3.1710	3.1710	-0.1215	42.10	6.13	-0.750			
1.0041	64264.62	3.1680	3.1681	-0.1203	42.11	6.14	-0.750			
1.0045	64287.70	3.1650	3.1650	-0.1192	42.12	6.15	-0.750			
1.0048	64310.37	3.1620	3.1620	-0.1179	42.13	6.16	-0.750			
1.0052	64332.77	3.1590	3.1590	-0.1164	42.15	6.18	-0.750			
1.0055	64355.05	3.1560	3.1560	-0.1152	42.16	6.19	-0.750			
1.0059	64377.11	3.1530	3.1530	-0.1140	42.17	6.20	-0.750			
1.0062	64398.81	3.1500	3.1500	-0.1129	42.18	6.21	-0.750			
1.0066	64420.30	3.1470	3.1470	-0.1117	42.19	6.22	-0.750			
1.0069	64441.60	3.1440	3.1440	-0.1108	42.20	6.23	-0.750			
1.0072	64462.77	3.1410	3.1410	-0.1099	42.21	6.24	-0.750			
1.0076	64483.82	3.1380	3.1380	-0.1089	42.22	6.25	-0.750			
1.0079	64504.59	3.1350	3.1350	-0.1079	42.22	6.25	-0.750			
1.0082	64525.22	3.1320	3.1320	-0.1069	42.23	6.26	-0.750			
1.0085	64545.74	3.1290	3.1290	-0.1061	42.24	6.27	-0.750			
1.0088	64565.98	3.1260	3.1260	-0.1051	42.24	6.27	-0.750			
1.0092	64586.05	3.1230	3.1230	-0.1041	42.25	6.28	-0.750			
1.0095	64605.97	3.1200	3.1200	-0.1029	42.26	6.29	-0.750			
1.0098	64625.62	3.1170	3.1170	-0.1018	42.26	6.29	-0.750			
1.0101	64645.05	3.1140	3.1141	-0.1009	42.27	6.30	-0.750			
1.0104	64664.37	3.1110	3.1110	-0.0999	42.28	6.31	-0.750			
1.0107	64683.43	3.1080	3.1079	-0.0989	42.28	6.31	-0.750			
1.0110	64702.27	3.1050	3.1050	-0.0979	42.29	6.32	-0.750			
1.0113	64721.00	3.1020	3.1020	-0.0968	42.30	6.33	-0.750			
1.0116	64739.47	3.0990	3.0990	-0.0958	42.31	6.34	-0.750			
1.0118	64757.74	3.0960	3.0960	-0.0949	42.31	6.34	-0.750			
1.0121	64775.92	3.0930	3.0930	-0.0940	42.32	6.35	-0.750			
1.0124	64793.83	3.0900	3.0900	-0.0932	42.33	6.36	-0.750			
1.0127	64811.54	3.0870	3.0869	-0.0922	42.34	6.37	-0.750			
1.0130	64829.21	3.0840	3.0840	-0.0913	42.34	6.37	-0.750			
1.0132	64846.66	3.0810	3.0810	-0.0905	42.35	6.38	-0.750			
1.0135	64863.93	3.0780	3.0780	-0.0898	42.36	6.39	-0.750			
1.0138	64881.14	3.0750	3.0750	-0.0891	42.36	6.39	-0.750			
1.0140	64898.17	3.0720	3.0720	-0.0882	42.37	6.40	-0.750			
1.0143	64915.00	3.0690	3.0690	-0.0874	42.38	6.41	-0.750			
1.0146	64931.70	3.0660	3.0659	-0.0866	42.39	6.42	-0.750			
1.0148	64948.22	3.0630	3.0630	-0.0857	42.39	6.42	-0.750			
1.0151	64964.61	3.0600	3.0601	-0.0850	42.40	6.43	-0.750			
1.0153	64980.91	3.0570	3.0570	-0.0842	42.41	6.44	-0.750			
1.0156	64997.00	3.0540	3.0540	-0.0833	42.42	6.45	-0.750			
1.0158	65012.81	3.0510	3.0510	-0.0824	42.43	6.46	-0.750			
1.0161	65028.56	3.0480	3.0480	-0.0817	42.43	6.46	-0.750			
1.0163	65044.18	3.0450	3.0450	-0.0810	42.44	6.47	-0.750			
1.0166	65059.67	3.0420	3.0420	-0.0802	42.45	6.48	-0.750			
1.0168	65074.97	3.0390	3.0390	-0.0794	42.45	6.48	-0.750			
1.0170	65090.14	3.0360	3.0360	-0.0786	42.46	6.49	-0.750			
1.0173	65105.15	3.0330	3.0330	-0.0780	42.47	6.50	-0.750			
1.0175	65120.07	3.0300	3.0301	-0.0773	42.48	6.51	-0.750			
1.0177	65134.82	3.0270	3.0270	-0.0766	42.48	6.51	-0.750			
1.0180	65149.46	3.0240	3.0240	-0.0759	42.49	6.52	-0.750			
1.0182	65163.91	3.0210	3.0211	-0.0752	42.50	6.53	-0.750			
1.0184	65178.33	3.0180	3.0180	-0.0744	42.50	6.53	-0.750			
1.0186	65192.62	3.0150	3.0150	-0.0738	42.51	6.54	-0.750			
1.0189	65206.70	3.0120	3.0120	-0.0729	42.52	6.55	-0.750			
1.0191	65220.63	3.0090	3.0090	-0.0721	42.52	6.55	-0.750			
1.0193	65234.42	3.0060	3.0061	-0.0711	42.53	6.56	-0.750			
1.0195	65247.99	3.0030	3.0030	-0.0702	42.54	6.57	-0.750			
