Ah_balance (normalized)	Ah_balance (mAh)	Voltage - fit (V)	Voltage -  interpolate (V)	dQ/dV (1/V)	Temperature (°C)	Temperature - diff (°C)	Current (C)	R_DC 0ms (mOhm)	R_DC 50ms (mOhm)	R_DC 50 ms PEC (mOhm)
-0.0036	-230.84	4.1990	4.1988	0.7684	26.06	1.66	0.050			
-0.0028	-181.51	4.1980	4.1981	0.7797	26.28	1.88	0.050			
-0.0021	-131.64	4.1970	4.1971	0.7823	26.52	2.12	0.050			
-0.0013	-80.38	4.1960	4.1961	0.7980	26.73	2.33	0.050			
-0.0005	-29.94	4.1950	4.1948	0.7990	26.95	2.55	0.050			
0.0003	21.45	4.1940	4.1938	0.8050	27.16	2.76	0.050			
0.0011	73.37	4.1930	4.1931	0.8107	27.37	2.97	0.050			
0.0020	125.04	4.1920	4.1920	0.8163	27.54	3.14	0.050			
0.0028	177.12	4.1910	4.1911	0.8228	27.69	3.29	0.050			
0.0036	230.23	4.1900	4.1900	0.8287	27.81	3.41	0.050			
0.0044	283.92	4.1890	4.1889	0.8333	27.90	3.50	0.050			
0.0053	337.24	4.1880	4.1879	0.8352	27.93	3.53	0.050			
0.0061	391.35	4.1870	4.1872	0.8397	27.91	3.51	0.050			
0.0070	446.64	4.1860	4.1858	0.8452	27.86	3.46	0.050			
0.0078	501.79	4.1850	4.1850	0.8485	27.82	3.42	0.050			
0.0087	557.25	4.1840	4.1840	0.8490	27.77	3.37	0.050			
0.0096	611.68	4.1830	4.1829	0.8474	27.71	3.31	0.050			
0.0104	666.07	4.1820	4.1820	0.8482	27.65	3.25	0.050			
0.0113	721.15	4.1810	4.1811	0.8491	27.60	3.20	0.050			
0.0121	775.07	4.1800	4.1800	0.8499	27.54	3.14	0.050			
0.0130	829.38	4.1790	4.1790	0.8498	27.48	3.08	0.050			
0.0138	883.39	4.1780	4.1780	0.8498	27.43	3.03	0.050			
0.0147	938.40	4.1770	4.1770	0.8482	27.37	2.97	0.050			
0.0155	993.09	4.1760	4.1759	0.8502	27.30	2.90	0.050			
0.0164	1047.00	4.1750	4.1749	0.8503	27.24	2.84	0.050			
0.0172	1100.64	4.1740	4.1737	0.8485	27.17	2.77	0.050			
0.0180	1155.05	4.1730	4.1729	0.8481	27.10	2.70	0.050			
0.0189	1208.48	4.1720	4.1722	0.8493	27.04	2.64	0.050			
0.0197	1261.95	4.1710	4.1709	0.8509	26.98	2.58	0.050			
0.0206	1316.74	4.1700	4.1700	0.8530	26.90	2.50	0.050			
0.0214	1372.29	4.1690	4.1689	0.8523	26.84	2.44	0.050			
0.0223	1426.89	4.1680	4.1681	0.8532	26.78	2.38	0.050			
0.0231	1481.34	4.1670	4.1670	0.8553	26.71	2.31	0.050			
0.0240	1536.72	4.1660	4.1659	0.8554	26.65	2.25	0.050			
0.0249	1591.77	4.1650	4.1650	0.8562	26.58	2.18	0.050			
0.0257	1647.00	4.1640	4.1641	0.8559	26.51	2.11	0.050			
0.0266	1702.48	4.1630	4.1628	0.8555	26.45	2.05	0.050			
0.0274	1756.44	4.1620	4.1620	0.8543	26.39	1.99	0.050			
0.0283	1811.35	4.1610	4.1613	0.8556	26.32	1.92	0.050			
0.0292	1865.72	4.1600	4.1599	0.8541	26.24	1.84	0.050			
0.0300	1920.54	4.1590	4.1588	0.8539	26.19	1.79	0.050			
0.0309	1975.23	4.1580	4.1578	0.8550	26.12	1.72	0.050			
0.0317	2030.11	4.1570	4.1569	0.8565	26.05	1.65	0.050			
0.0326	2083.92	4.1560	4.1560	0.8592	25.98	1.58	0.050			
0.0334	2137.86	4.1550	4.1548	0.8590	25.93	1.53	0.050			
0.0343	2193.44	4.1540	4.1539	0.8605	25.86	1.46	0.050			
0.0351	2248.65	4.1530	4.1529	0.8597	25.80	1.40	0.050			
0.0360	2303.78	4.1520	4.1521	0.8573	25.73	1.33	0.050			
0.0369	2359.12	4.1510	4.1511	0.8562	25.67	1.27	0.050			
0.0377	2414.75	4.1500	4.1500	0.8553	25.61	1.21	0.050			
0.0386	2469.69	4.1490	4.1488	0.8585	25.55	1.15	0.050			
0.0394	2524.56	4.1480	4.1479	0.8568	25.49	1.09	0.050			
0.0403	2579.67	4.1470	4.1470	0.8561	25.43	1.03	0.050			
0.0412	2634.57	4.1460	4.1460	0.8577	25.37	0.97	0.050			
0.0420	2689.96	4.1450	4.1453	0.8578	25.32	0.92	0.050			
0.0429	2744.32	4.1440	4.1441	0.8580	25.25	0.85	0.050			
0.0437	2799.87	4.1430	4.1430	0.8567	25.19	0.79	0.050			
0.0446	2854.62	4.1420	4.1419	0.8536	25.14	0.74	0.050			
0.0455	2909.47	4.1410	4.1409	0.8498	25.07	0.67	0.050			
0.0463	2963.98	4.1400	4.1398	0.8490	25.01	0.61	0.050			
0.0471	3016.75	4.1390	4.1392	0.8516	24.95	0.55	0.050			
0.0480	3069.34	4.1380	4.1381	0.8537	24.88	0.48	0.050			
0.0488	3123.60	4.1370	4.1370	0.8551	24.82	0.42	0.050			
0.0497	3178.10	4.1360	4.1361	0.8542	24.76	0.36	0.050			
0.0505	3233.01	4.1350	4.1352	0.8541	24.69	0.29	0.050			
0.0514	3288.91	4.1340	4.1338	0.8576	24.61	0.21	0.050			
0.0523	3344.67	4.1330	4.1329	0.8596	24.53	0.13	0.050			
0.0531	3400.51	4.1320	4.1319	0.8575	24.48	0.08	0.050			
0.0540	3456.23	4.1310	4.1307	0.8568	24.40	0.00	0.050			
0.0549	3510.97	4.1300	4.1298	0.8548	24.33	-0.07	0.050			
0.0557	3565.34	4.1290	4.1292	0.8504	24.28	-0.12	0.050			
0.0566	3620.53	4.1280	4.1282	0.8509	24.22	-0.18	0.050			
0.0574	3675.27	4.1270	4.1272	0.8498	24.17	-0.23	0.050			
0.0583	3729.39	4.1260	4.1260	0.8473	24.13	-0.27	0.050			
0.0591	3783.66	4.1250	4.1248	0.8473	24.08	-0.32	0.050			
0.0600	3838.48	4.1240	4.1241	0.8451	24.06	-0.34	0.050			
0.0608	3892.22	4.1230	4.1230	0.8416	24.03	-0.37	0.050			
0.0617	3946.94	4.1220	4.1218	0.8400	24.03	-0.37	0.050			
0.0625	4000.46	4.1210	4.1210	0.8344	24.02	-0.38	0.050			
0.0633	4052.69	4.1200	4.1200	0.8302	24.04	-0.36	0.050			
0.0641	4104.41	4.1190	4.1188	0.8227	24.06	-0.34	0.050			
0.0650	4157.59	4.1180	4.1179	0.8178	24.10	-0.30	0.050			
0.0658	4210.25	4.1170	4.1171	0.8188	24.15	-0.25	0.050			
0.0666	4262.70	4.1160	4.1161	0.8183	24.20	-0.20	0.050			
0.0674	4315.42	4.1150	4.1151	0.8163	24.27	-0.13	0.050			
0.0682	4366.80	4.1140	4.1142	0.8135	24.36	-0.04	0.050			
0.0690	4418.15	4.1130	4.1132	0.8162	24.46	0.06	0.050			
0.0699	4470.46	4.1120	4.1121	0.8146	24.56	0.16	0.050			
0.0707	4522.25	4.1110	4.1111	0.8120	24.68	0.28	0.050			
0.0715	4573.58	4.1100	4.1100	0.8121	24.81	0.41	0.050			
0.0723	4625.64	4.1090	4.1089	0.8106	24.96	0.56	0.050			
0.0731	4676.69	4.1080	4.1079	0.8095	25.11	0.71	0.050			
0.0739	4727.04	4.1070	4.1071	0.8135	25.27	0.87	0.050			
0.0747	4778.92	4.1060	4.1061	0.8159	25.46	1.06	0.050			
0.0755	4830.21	4.1050	4.1050	0.8193	25.63	1.23	0.050			
0.0763	4882.64	4.1040	4.1042	0.8262	25.82	1.42	0.050			
0.0771	4936.13	4.1030	4.1030	0.8293	26.02	1.62	0.050			
0.0780	4989.42	4.1020	4.1023	0.8322	26.23	1.83	0.050			
0.0788	5042.83	4.1010	4.1009	0.8382	26.43	2.03	0.050			
0.0797	5097.67	4.1000	4.1001	0.8423	26.64	2.24	0.050			
0.0805	5150.64	4.0990	4.0987	0.8473	26.83	2.43	0.050			
0.0813	5205.72	4.0980	4.0978	0.8526	27.01	2.61	0.050			
0.0822	5259.52	4.0970	4.0971	0.8553	27.19	2.79	0.050			
0.0830	5314.38	4.0960	4.0962	0.8611	27.34	2.94	0.050			
0.0839	5370.51	4.0950	4.0951	0.8647	27.46	3.06	0.050			
0.0848	5425.97	4.0940	4.0944	0.8684	27.57	3.17	0.050			
0.0856	5481.47	4.0930	4.0929	0.8722	27.62	3.22	0.050			
0.0865	5537.90	4.0920	4.0918	0.8757	27.58	3.18	0.050			
0.0874	5595.10	4.0910	4.0913	0.8820	27.53	3.13	0.050			
0.0883	5651.45	4.0900	4.0897	0.8852	27.47	3.07	0.050			
0.0892	5708.30	4.0890	4.0889	0.8888	27.41	3.01	0.050			
0.0901	5765.53	4.0880	4.0881	0.8878	27.35	2.95	0.050			
0.0910	5822.90	4.0870	4.0870	0.8847	27.29	2.89	0.050			
0.0919	5880.08	4.0860	4.0859	0.8874	27.22	2.82	0.050			
0.0928	5936.65	4.0850	4.0849	0.8913	27.15	2.75	0.050			
0.0937	5993.96	4.0840	4.0839	0.8925	27.08	2.68	0.050			
0.0946	6052.70	4.0830	4.0831	0.8946	27.00	2.60	0.050			
0.0955	6109.34	4.0820	4.0821	0.8972	26.94	2.54	0.050			
0.0963	6165.52	4.0810	4.0811	0.8983	26.88	2.48	0.050			
0.0973	6224.41	4.0800	4.0802	0.8988	26.81	2.41	0.050			
0.0981	6281.52	4.0790	4.0792	0.8960	26.74	2.34	0.050			
0.0990	6338.96	4.0780	4.0780	0.8951	26.66	2.26	0.050			
0.0999	6396.71	4.0770	4.0766	0.8969	26.59	2.19	0.050			
0.1008	6453.93	4.0760	4.0761	0.8972	26.52	2.12	0.050			
0.1018	6512.35	4.0750	4.0750	0.8951	26.44	2.04	0.050			
0.1027	6569.61	4.0740	4.0740	0.8937	26.37	1.97	0.050			
0.1035	6626.00	4.0730	4.0728	0.8952	26.30	1.90	0.050			
0.1044	6682.69	4.0720	4.0722	0.8976	26.22	1.82	0.050			
0.1053	6740.04	4.0710	4.0713	0.8994	26.15	1.75	0.050			
0.1062	6797.45	4.0700	4.0699	0.8993	26.08	1.68	0.050			
0.1071	6855.91	4.0690	4.0689	0.9001	26.00	1.60	0.050			
0.1080	6914.26	4.0680	4.0680	0.9013	25.92	1.52	0.050			
0.1089	6971.87	4.0670	4.0672	0.9030	25.85	1.45	0.050			
0.1098	7029.18	4.0660	4.0658	0.9027	25.77	1.37	0.050			
0.1107	7085.97	4.0650	4.0648	0.8989	25.71	1.31	0.050			
0.1116	7143.82	4.0640	4.0640	0.9004	25.63	1.23	0.050			
0.1125	7201.47	4.0630	4.0628	0.9021	25.56	1.16	0.050			
0.1134	7258.20	4.0620	4.0622	0.9020	25.49	1.09	0.050			
0.1143	7316.69	4.0610	4.0612	0.9033	25.42	1.02	0.050			
0.1152	7375.76	4.0600	4.0602	0.9068	25.35	0.95	0.050			
0.1162	7434.27	4.0590	4.0589	0.9078	25.28	0.88	0.050			
0.1171	7492.12	4.0580	4.0579	0.9058	25.20	0.80	0.050			
0.1180	7549.22	4.0570	4.0570	0.9075	25.12	0.72	0.050			
0.1189	7607.68	4.0560	4.0560	0.9103	25.05	0.65	0.050			
0.1198	7666.46	4.0550	4.0549	0.9080	24.98	0.58	0.050			
0.1207	7725.52	4.0540	4.0539	0.9058	24.90	0.50	0.050			
0.1216	7782.46	4.0530	4.0530	0.9012	24.82	0.42	0.050			
0.1225	7840.01	4.0520	4.0520	0.9016	24.73	0.33	0.050			
0.1234	7898.03	4.0510	4.0510	0.9024	24.65	0.25	0.050			
0.1243	7956.33	4.0500	4.0497	0.9034	24.56	0.16	0.050			
0.1252	8014.64	4.0490	4.0492	0.9027	24.47	0.07	0.050			
0.1261	8072.40	4.0480	4.0481	0.9006	24.38	-0.02	0.050			
0.1270	8129.43	4.0470	4.0470	0.8975	24.29	-0.11	0.050			
0.1279	8186.96	4.0460	4.0461	0.8961	24.19	-0.21	0.050			
0.1288	8244.50	4.0450	4.0449	0.8957	24.10	-0.30	0.050			
0.1297	8301.83	4.0440	4.0437	0.8921	24.02	-0.38	0.050			
0.1306	8358.57	4.0430	4.0429	0.8892	23.95	-0.45	0.050			
0.1315	8415.25	4.0420	4.0423	0.8870	23.88	-0.52	0.050			
0.1324	8472.56	4.0410	4.0408	0.8859	23.81	-0.59	0.050			
0.1333	8529.38	4.0400	4.0400	0.8847	23.77	-0.63	0.050			
0.1342	8585.74	4.0390	4.0391	0.8807	23.72	-0.68	0.050			
0.1350	8641.68	4.0380	4.0381	0.8786	23.69	-0.71	0.050			
0.1359	8697.09	4.0370	4.0369	0.8766	23.67	-0.73	0.050			
0.1368	8753.71	4.0360	4.0359	0.8764	23.66	-0.74	0.050			
0.1377	8810.31	4.0350	4.0352	0.8761	23.67	-0.73	0.050			
0.1386	8867.54	4.0340	4.0339	0.8737	23.70	-0.70	0.050			
0.1394	8922.61	4.0330	4.0330	0.8687	23.74	-0.66	0.050			
0.1403	8977.79	4.0320	4.0322	0.8652	23.79	-0.61	0.050			
0.1411	9033.02	4.0310	4.0307	0.8633	23.87	-0.53	0.050			
0.1420	9087.97	4.0300	4.0301	0.8614	23.95	-0.45	0.050			
0.1429	9143.35	4.0290	4.0289	0.8598	24.05	-0.35	0.050			
0.1437	9198.12	4.0280	4.0280	0.8571	24.17	-0.23	0.050			
0.1446	9252.84	4.0270	4.0272	0.8554	24.30	-0.10	0.050			
0.1454	9306.53	4.0260	4.0260	0.8570	24.45	0.05	0.050			
0.1463	9361.28	4.0250	4.0249	0.8577	24.61	0.21	0.050			
0.1471	9415.06	4.0240	4.0239	0.8602	24.79	0.39	0.050			
0.1480	9469.77	4.0230	4.0230	0.8604	24.99	0.59	0.050			
0.1488	9524.29	4.0220	4.0220	0.8608	25.19	0.79	0.050			
0.1497	9579.41	4.0210	4.0211	0.8643	25.42	1.02	0.050			
0.1505	9634.22	4.0200	4.0201	0.8667	25.66	1.26	0.050			
0.1514	9689.07	4.0190	4.0187	0.8696	25.89	1.49	0.050			
0.1522	9743.31	4.0180	4.0179	0.8782	26.14	1.74	0.050			
0.1531	9798.42	4.0170	4.0170	0.8859	26.39	1.99	0.050			
0.1540	9855.30	4.0160	4.0161	0.8935	26.63	2.23	0.050			
0.1549	9912.88	4.0150	4.0152	0.9011	26.88	2.48	0.050			
0.1558	9972.04	4.0140	4.0141	0.9060	27.12	2.72	0.050			
0.1567	10030.90	4.0130	4.0130	0.9113	27.34	2.94	0.050			
0.1576	10089.50	4.0120	4.0119	0.9159	27.53	3.13	0.050			
0.1586	10148.91	4.0110	4.0108	0.9213	27.68	3.28	0.050			
0.1595	10208.78	4.0100	4.0098	0.9241	27.80	3.40	0.050			
0.1604	10268.71	4.0090	4.0089	0.9277	27.87	3.47	0.050			
0.1614	10328.44	4.0080	4.0081	0.9335	27.86	3.46	0.050			
0.1623	10389.16	4.0070	4.0074	0.9338	27.80	3.40	0.050			
0.1633	10448.40	4.0060	4.0061	0.9368	27.74	3.34	0.050			
0.1642	10509.48	4.0050	4.0050	0.9397	27.70	3.30	0.050			
0.1652	10569.61	4.0040	4.0038	0.9436	27.63	3.23	0.050			
0.1661	10630.34	4.0030	4.0029	0.9456	27.56	3.16	0.050			
0.1670	10690.83	4.0020	4.0021	0.9494	27.50	3.10	0.050			
0.1680	10751.08	4.0010	4.0009	0.9517	27.44	3.04	0.050			
0.1689	10811.86	4.0000	4.0000	0.9515	27.39	2.99	0.050			
0.1699	10872.42	3.9990	3.9988	0.9505	27.31	2.91	0.050			
0.1708	10932.14	3.9980	3.9981	0.9502	27.24	2.84	0.050			
0.1718	10993.01	3.9970	3.9968	0.9538	27.16	2.76	0.050			
0.1727	11055.34	3.9960	3.9961	0.9594	27.08	2.68	0.050			
0.1737	11117.09	3.9950	3.9949	0.9625	27.00	2.60	0.050			
0.1747	11179.81	3.9940	3.9941	0.9650	26.93	2.53	0.050			
0.1757	11241.91	3.9930	3.9931	0.9655	26.86	2.46	0.050			
0.1766	11303.61	3.9920	3.9920	0.9655	26.79	2.39	0.050			
0.1776	11365.93	3.9910	3.9909	0.9673	26.73	2.33	0.050			
0.1786	11428.21	3.9900	3.9899	0.9677	26.64	2.24	0.050			
0.1795	11489.54	3.9890	3.9890	0.9696	26.57	2.17	0.050			
0.1805	11551.36	3.9880	3.9881	0.9689	26.50	2.10	0.050			
0.1815	11613.75	3.9870	3.9872	0.9695	26.43	2.03	0.050			
0.1824	11675.45	3.9860	3.9859	0.9689	26.35	1.95	0.050			
0.1834	11737.74	3.9850	3.9851	0.9689	26.28	1.88	0.050			
0.1844	11799.73	3.9840	3.9839	0.9676	26.21	1.81	0.050			
0.1853	11862.39	3.9830	3.9830	0.9677	26.13	1.73	0.050			
0.1863	11924.39	3.9820	3.9820	0.9687	26.05	1.65	0.050			
0.1873	11986.37	3.9810	3.9810	0.9686	25.98	1.58	0.050			
0.1883	12048.39	3.9800	3.9799	0.9699	25.91	1.51	0.050			
0.1892	12110.15	3.9790	3.9791	0.9709	25.84	1.44	0.050			
0.1902	12171.96	3.9780	3.9781	0.9715	25.76	1.36	0.050			
0.1912	12234.48	3.9770	3.9769	0.9691	25.69	1.29	0.050			
0.1921	12296.56	3.9760	3.9762	0.9699	25.62	1.22	0.050			
0.1931	12358.88	3.9750	3.9749	0.9695	25.57	1.17	0.050			
0.1941	12420.90	3.9740	3.9741	0.9708	25.49	1.09	0.050			
0.1950	12482.81	3.9730	3.9729	0.9711	25.42	1.02	0.050			
0.1960	12544.25	3.9720	3.9720	0.9735	25.36	0.96	0.050			
0.1970	12606.48	3.9710	3.9709	0.9731	25.30	0.90	0.050			
0.1979	12668.07	3.9700	3.9703	0.9755	25.24	0.84	0.050			
0.1989	12730.09	3.9690	3.9692	0.9770	25.17	0.77	0.050			
0.1999	12792.91	3.9680	3.9681	0.9806	25.09	0.69	0.050			
0.2009	12856.02	3.9670	3.9667	0.9829	25.03	0.63	0.050			
0.2019	12918.96	3.9660	3.9661	0.9845	24.94	0.54	0.050			
0.2029	12983.33	3.9650	3.9651	0.9845	24.87	0.47	0.050			
0.2039	13046.90	3.9640	3.9639	0.9838	24.80	0.40	0.050			
0.2049	13110.43	3.9630	3.9628	0.9842	24.70	0.30	0.050			
0.2058	13172.49	3.9620	3.9621	0.9852	24.62	0.22	0.050			
0.2068	13236.15	3.9610	3.9610	0.9850	24.53	0.13	0.050			
0.2078	13299.47	3.9600	3.9603	0.9840	24.44	0.04	0.050			
0.2088	13362.88	3.9590	3.9588	0.9853	24.36	-0.04	0.050			
0.2098	13426.51	3.9580	3.9581	0.9819	24.28	-0.12	0.050			
0.2108	13490.64	3.9570	3.9573	0.9789	24.19	-0.21	0.050			
0.2118	13553.95	3.9560	3.9558	0.9745	24.12	-0.28	0.050			
0.2128	13616.83	3.9550	3.9548	0.9701	24.06	-0.34	0.050			
0.2137	13678.34	3.9540	3.9538	0.9644	24.00	-0.40	0.050			
0.2147	13739.57	3.9530	3.9531	0.9621	23.96	-0.44	0.050			
0.2156	13800.50	3.9520	3.9522	0.9566	23.92	-0.48	0.050			
0.2166	13861.84	3.9510	3.9514	0.9542	23.90	-0.50	0.050			
0.2175	13922.23	3.9500	3.9500	0.9486	23.89	-0.51	0.050			
0.2185	13982.98	3.9490	3.9490	0.9454	23.90	-0.50	0.050			
0.2194	14042.96	3.9480	3.9479	0.9425	23.92	-0.48	0.050			
0.2204	14102.84	3.9470	3.9470	0.9398	23.96	-0.44	0.050			
0.2213	14163.26	3.9460	3.9459	0.9407	24.02	-0.38	0.050			
0.2222	14222.59	3.9450	3.9449	0.9382	24.10	-0.30	0.050			
0.2232	14282.58	3.9440	3.9440	0.9356	24.19	-0.21	0.050			
0.2241	14341.72	3.9430	3.9430	0.9294	24.29	-0.11	0.050			
0.2250	14400.34	3.9420	3.9422	0.9276	24.41	0.01	0.050			
0.2259	14460.01	3.9410	3.9408	0.9271	24.55	0.15	0.050			
0.2269	14519.63	3.9400	3.9399	0.9290	24.70	0.30	0.050			
0.2278	14578.32	3.9390	3.9388	0.9295	24.88	0.48	0.050			
0.2287	14638.38	3.9380	3.9381	0.9319	25.07	0.67	0.050			
0.2297	14697.94	3.9370	3.9370	0.9332	25.28	0.88	0.050			
0.2306	14757.05	3.9360	3.9361	0.9356	25.50	1.10	0.050			
0.2315	14816.15	3.9350	3.9349	0.9372	25.73	1.33	0.050			
0.2324	14874.95	3.9340	3.9340	0.9424	25.96	1.56	0.050			
0.2333	14933.69	3.9330	3.9330	0.9478	26.20	1.80	0.050			
0.2343	14993.52	3.9320	3.9324	0.9561	26.44	2.04	0.050			
0.2352	15054.56	3.9310	3.9309	0.9628	26.69	2.29	0.050			
0.2362	15116.12	3.9300	3.9300	0.9711	26.92	2.52	0.050			
0.2372	15178.33	3.9290	3.9292	0.9771	27.14	2.74	0.050			
0.2381	15240.84	3.9280	3.9279	0.9834	27.34	2.94	0.050			
0.2391	15304.26	3.9270	3.9270	0.9924	27.51	3.11	0.050			
0.2401	15368.57	3.9260	3.9259	0.9985	27.64	3.24	0.050			
0.2412	15434.27	3.9250	3.9249	1.0056	27.71	3.31	0.050			
0.2422	15499.99	3.9240	3.9239	1.0141	27.70	3.30	0.050			
0.2432	15566.48	3.9230	3.9230	1.0184	27.63	3.23	0.050			
0.2442	15631.76	3.9220	3.9221	1.0223	27.56	3.16	0.050			
0.2453	15697.65	3.9210	3.9210	1.0277	27.50	3.10	0.050			
0.2463	15763.76	3.9200	3.9201	1.0322	27.43	3.03	0.050			
0.2474	15831.15	3.9190	3.9191	1.0336	27.35	2.95	0.050			
0.2484	15898.56	3.9180	3.9181	1.0345	27.28	2.88	0.050			
0.2495	15966.28	3.9170	3.9172	1.0302	27.20	2.80	0.050			
0.2505	16031.45	3.9160	3.9160	1.0308	27.13	2.73	0.050			
0.2515	16096.80	3.9150	3.9149	1.0312	27.04	2.64	0.050			
0.2525	16162.44	3.9140	3.9141	1.0288	26.95	2.55	0.050			
0.2536	16228.11	3.9130	3.9127	1.0278	26.89	2.49	0.050			
0.2546	16293.83	3.9120	3.9121	1.0270	26.80	2.40	0.050			
0.2556	16360.05	3.9110	3.9109	1.0291	26.73	2.33	0.050			
0.2567	16425.97	3.9100	3.9102	1.0263	26.64	2.24	0.050			
0.2577	16490.73	3.9090	3.9089	1.0307	26.56	2.16	0.050			
0.2587	16556.79	3.9080	3.9081	1.0282	26.48	2.08	0.050			
0.2597	16622.00	3.9070	3.9065	1.0290	26.39	1.99	0.050			
0.2608	16688.27	3.9060	3.9061	1.0311	26.31	1.91	0.050			
0.2618	16752.70	3.9050	3.9051	1.0349	26.23	1.83	0.050			
0.2628	16818.98	3.9040	3.9039	1.0344	26.15	1.75	0.050			
0.2638	16886.09	3.9030	3.9030	1.0380	26.07	1.67	0.050			
0.2649	16951.90	3.9020	3.9021	1.0361	25.98	1.58	0.050			
0.2659	17018.54	3.9010	3.9011	1.0370	25.90	1.50	0.050			
0.2670	17085.50	3.9000	3.8999	1.0402	25.83	1.43	0.050			
0.2680	17152.58	3.8990	3.8991	1.0461	25.74	1.34	0.050			
0.2691	17219.99	3.8980	3.8980	1.0477	25.66	1.26	0.050			
0.2701	17287.92	3.8970	3.8971	1.0470	25.59	1.19	0.050			
0.2712	17353.87	3.8960	3.8960	1.0446	25.51	1.11	0.050			
0.2722	17421.64	3.8950	3.8951	1.0454	25.43	1.03	0.050			
0.2733	17488.77	3.8940	3.8938	1.0462	25.36	0.96	0.050			
0.2743	17556.17	3.8930	3.8930	1.0471	25.29	0.89	0.050			
0.2754	17623.66	3.8920	3.8919	1.0451	25.20	0.80	0.050			
0.2764	17690.69	3.8910	3.8909	1.0427	25.13	0.73	0.050			
0.2775	17757.22	3.8900	3.8900	1.0430	25.05	0.65	0.050			
0.2785	17822.99	3.8890	3.8891	1.0418	24.97	0.57	0.050			
0.2795	17890.21	3.8880	3.8882	1.0434	24.89	0.49	0.050			
0.2806	17956.46	3.8870	3.8867	1.0403	24.80	0.40	0.050			
0.2816	18022.59	3.8860	3.8860	1.0420	24.72	0.32	0.050			
0.2826	18088.92	3.8850	3.8849	1.0402	24.63	0.23	0.050			
0.2837	18156.69	3.8840	3.8842	1.0433	24.54	0.14	0.050			
0.2847	18223.23	3.8830	3.8830	1.0431	24.44	0.04	0.050			
0.2858	18290.76	3.8820	3.8818	1.0412	24.34	-0.06	0.050			
0.2868	18357.43	3.8810	3.8808	1.0380	24.26	-0.14	0.050			
0.2879	18423.66	3.8800	3.8801	1.0352	24.18	-0.22	0.050			
0.2889	18489.56	3.8790	3.8791	1.0344	24.10	-0.30	0.050			
0.2899	18556.20	3.8780	3.8781	1.0346	24.04	-0.36	0.050			
0.2910	18622.82	3.8770	3.8769	1.0346	23.98	-0.42	0.050			
0.2920	18688.66	3.8760	3.8759	1.0327	23.93	-0.47	0.050			
0.2931	18755.74	3.8750	3.8750	1.0306	23.90	-0.50	0.050			
0.2941	18822.59	3.8740	3.8740	1.0249	23.89	-0.51	0.050			
0.2951	18888.89	3.8730	3.8732	1.0225	23.89	-0.51	0.050			
0.2962	18954.60	3.8720	3.8718	1.0187	23.92	-0.48	0.050			
0.2972	19019.41	3.8710	3.8709	1.0154	23.95	-0.45	0.050			
0.2982	19083.63	3.8700	3.8699	1.0095	24.01	-0.39	0.050			
0.2992	19147.95	3.8690	3.8690	1.0061	24.09	-0.31	0.050			
0.3002	19211.54	3.8680	3.8681	1.0055	24.19	-0.21	0.050			
0.3012	19275.53	3.8670	3.8671	1.0024	24.31	-0.09	0.050			
0.3022	19338.52	3.8660	3.8664	1.0015	24.45	0.05	0.050			
0.3032	19402.71	3.8650	3.8648	1.0014	24.60	0.20	0.050			
0.3042	19466.70	3.8640	3.8641	1.0000	24.78	0.38	0.050			
0.3052	19530.25	3.8630	3.8628	0.9986	24.97	0.57	0.050			
0.3062	19594.62	3.8620	3.8619	1.0001	25.19	0.79	0.050			
0.3072	19658.15	3.8610	3.8610	0.9974	25.43	1.03	0.050			
0.3081	19720.95	3.8600	3.8602	0.9966	25.67	1.27	0.050			
0.3091	19783.27	3.8590	3.8590	0.9991	25.91	1.51	0.050			
0.3101	19847.00	3.8580	3.8583	1.0040	26.17	1.77	0.050			
0.3111	19911.11	3.8570	3.8570	1.0069	26.43	2.03	0.050			
0.3121	19977.07	3.8560	3.8560	1.0070	26.69	2.29	0.050			
0.3132	20042.19	3.8550	3.8551	1.0107	26.94	2.54	0.050			
0.3142	20107.60	3.8540	3.8539	1.0121	27.17	2.77	0.050			
0.3152	20172.30	3.8530	3.8530	1.0131	27.36	2.96	0.050			
0.3162	20237.73	3.8520	3.8522	1.0122	27.54	3.14	0.050			
0.3172	20302.97	3.8510	3.8508	1.0118	27.66	3.26	0.050			
0.3183	20368.75	3.8500	3.8497	1.0081	27.72	3.32	0.050			
0.3193	20434.49	3.8490	3.8490	1.0048	27.67	3.27	0.050			
0.3203	20498.79	3.8480	3.8480	0.9990	27.61	3.21	0.050			
0.3213	20563.17	3.8470	3.8473	0.9950	27.54	3.14	0.050			
0.3223	20627.43	3.8460	3.8456	0.9912	27.48	3.08	0.050			
0.3233	20692.12	3.8450	3.8452	0.9875	27.39	2.99	0.050			
0.3243	20755.79	3.8440	3.8441	0.9782	27.32	2.92	0.050			
0.3253	20818.61	3.8430	3.8432	0.9714	27.24	2.84	0.050			
0.3263	20880.86	3.8420	3.8420	0.9614	27.16	2.76	0.050			
0.3272	20943.12	3.8410	3.8410	0.9513	27.09	2.69	0.050			
0.3282	21003.17	3.8400	3.8401	0.9373	27.01	2.61	0.050			
0.3291	21062.55	3.8390	3.8389	0.9241	26.95	2.55	0.050			
0.3300	21121.68	3.8380	3.8381	0.9122	26.87	2.47	0.050			
0.3310	21181.11	3.8370	3.8370	0.9023	26.80	2.40	0.050			
0.3319	21239.31	3.8360	3.8359	0.8922	26.72	2.32	0.050			
0.3327	21295.09	3.8350	3.8350	0.8772	26.65	2.25	0.050			
0.3336	21350.61	3.8340	3.8340	0.8660	26.59	2.19	0.050			
0.3345	21406.22	3.8330	3.8331	0.8536	26.52	2.12	0.050			
0.3353	21459.95	3.8320	3.8320	0.8426	26.46	2.06	0.050			
0.3362	21513.69	3.8310	3.8309	0.8295	26.40	2.00	0.050			
0.3370	21566.58	3.8300	3.8302	0.8178	26.32	1.92	0.050			
0.3378	21618.58	3.8290	3.8290	0.8072	26.26	1.86	0.050			
0.3386	21668.57	3.8280	3.8279	0.7925	26.20	1.80	0.050			
0.3393	21718.36	3.8270	3.8269	0.7824	26.14	1.74	0.050			
0.3401	21767.68	3.8260	3.8260	0.7701	26.08	1.68	0.050			
0.3409	21816.81	3.8250	3.8251	0.7607	26.02	1.62	0.050			
0.3416	21864.89	3.8240	3.8241	0.7518	25.95	1.55	0.050			
0.3424	21912.83	3.8230	3.8231	0.7394	25.90	1.50	0.050			
0.3431	21959.50	3.8220	3.8221	0.7291	25.85	1.45	0.050			
0.3438	22006.15	3.8210	3.8210	0.7241	25.79	1.39	0.050			
0.3446	22052.31	3.8200	3.8197	0.7156	25.74	1.34	0.050			
0.3453	22097.79	3.8190	3.8190	0.7062	25.69	1.29	0.050			
0.3460	22141.80	3.8180	3.8180	0.7004	25.64	1.24	0.050			
0.3466	22185.48	3.8170	3.8171	0.6922	25.58	1.18	0.050			
0.3473	22228.47	3.8160	3.8162	0.6863	25.53	1.13	0.050			
0.3480	22271.02	3.8150	3.8148	0.6834	25.49	1.09	0.050			
0.3487	22313.87	3.8140	3.8140	0.6809	25.44	1.04	0.050			
0.3493	22356.61	3.8130	3.8132	0.6789	25.40	1.00	0.050			
0.3500	22398.97	3.8120	3.8117	0.6761	25.34	0.94	0.050			
0.3507	22442.23	3.8110	3.8111	0.6739	25.28	0.88	0.050			
0.3513	22485.50	3.8100	3.8099	0.6728	25.25	0.85	0.050			
0.3520	22527.35	3.8090	3.8089	0.6730	25.21	0.81	0.050			
0.3527	22569.82	3.8080	3.8079	0.6738	25.16	0.76	0.050			
0.3533	22612.58	3.8070	3.8069	0.6764	25.11	0.71	0.050			
0.3540	22655.53	3.8060	3.8060	0.6794	25.05	0.65	0.050			
0.3547	22698.89	3.8050	3.8052	0.6832	25.00	0.60	0.050			
0.3553	22742.32	3.8040	3.8041	0.6864	24.94	0.54	0.050			
0.3560	22786.37	3.8030	3.8030	0.6902	24.89	0.49	0.050			
0.3567	22830.73	3.8020	3.8020	0.6939	24.83	0.43	0.050			
0.3574	22874.26	3.8010	3.8008	0.6985	24.78	0.38	0.050			
0.3581	22918.62	3.8000	3.7999	0.7059	24.72	0.32	0.050			
0.3588	22964.19	3.7990	3.7990	0.7113	24.67	0.27	0.050			
0.3595	23009.30	3.7980	3.7981	0.7162	24.60	0.20	0.050			
0.3602	23054.62	3.7970	3.7970	0.7233	24.54	0.14	0.050			
0.3610	23100.88	3.7960	3.7961	0.7312	24.47	0.07	0.050			
0.3617	23147.71	3.7950	3.7950	0.7368	24.41	0.01	0.050			
0.3624	23194.71	3.7940	3.7940	0.7454	24.35	-0.05	0.050			
0.3632	23243.21	3.7930	3.7929	0.7547	24.29	-0.11	0.050			
0.3639	23291.99	3.7920	3.7919	0.7635	24.23	-0.17	0.050			
0.3647	23341.75	3.7910	3.7910	0.7704	24.17	-0.23	0.050			
0.3655	23391.55	3.7900	3.7899	0.7790	24.12	-0.28	0.050			
0.3663	23441.11	3.7890	3.7891	0.7851	24.07	-0.33	0.050			
0.3671	23491.31	3.7880	3.7879	0.7925	24.03	-0.37	0.050			
0.3678	23542.34	3.7870	3.7871	0.8016	23.99	-0.41	0.050			
0.3687	23593.66	3.7860	3.7863	0.8102	23.96	-0.44	0.050			
0.3695	23645.11	3.7850	3.7849	0.8221	23.95	-0.45	0.050			
0.3703	23697.80	3.7840	3.7840	0.8322	23.94	-0.46	0.050			
0.3711	23750.64	3.7830	3.7832	0.8442	23.95	-0.45	0.050			
0.3720	23805.03	3.7820	3.7821	0.8533	23.96	-0.44	0.050			
0.3728	23859.85	3.7810	3.7809	0.8621	23.99	-0.41	0.050			
0.3737	23915.22	3.7800	3.7801	0.8715	24.03	-0.37	0.050			
0.3746	23971.34	3.7790	3.7789	0.8830	24.10	-0.30	0.050			
0.3754	24028.35	3.7780	3.7779	0.8939	24.17	-0.23	0.050			
0.3763	24086.30	3.7770	3.7768	0.9014	24.25	-0.15	0.050			
0.3773	24144.36	3.7760	3.7759	0.9123	24.36	-0.04	0.050			
0.3782	24203.55	3.7750	3.7752	0.9250	24.50	0.10	0.050			
0.3791	24263.17	3.7740	3.7740	0.9338	24.63	0.23	0.050			
0.3801	24323.63	3.7730	3.7731	0.9438	24.79	0.39	0.050			
0.3810	24383.41	3.7720	3.7721	0.9563	24.97	0.57	0.050			
0.3820	24445.01	3.7710	3.7710	0.9689	25.18	0.78	0.050			
0.3829	24506.86	3.7700	3.7702	0.9785	25.40	1.00	0.050			
0.3839	24570.05	3.7690	3.7691	0.9903	25.64	1.24	0.050			
0.3849	24632.54	3.7680	3.7681	1.0034	25.88	1.48	0.050			
0.3859	24696.91	3.7670	3.7669	1.0135	26.15	1.75	0.050			
0.3869	24762.14	3.7660	3.7660	1.0253	26.42	2.02	0.050			
0.3879	24827.12	3.7650	3.7648	1.0365	26.68	2.28	0.050			
0.3890	24894.33	3.7640	3.7640	1.0515	26.93	2.53	0.050			
0.3900	24962.64	3.7630	3.7629	1.0620	27.19	2.79	0.050			
0.3911	25032.80	3.7620	3.7623	1.0701	27.41	3.01	0.050			
0.3922	25102.37	3.7610	3.7608	1.0819	27.60	3.20	0.050			
0.3933	25172.21	3.7600	3.7600	1.0924	27.74	3.34	0.050			
0.3944	25243.74	3.7590	3.7591	1.1006	27.78	3.38	0.050			
0.3956	25315.21	3.7580	3.7581	1.1093	27.74	3.34	0.050			
0.3967	25386.35	3.7570	3.7570	1.1207	27.67	3.27	0.050			
0.3978	25458.20	3.7560	3.7560	1.1281	27.60	3.20	0.050			
0.3989	25530.29	3.7550	3.7551	1.1377	27.54	3.14	0.050			
0.4001	25603.89	3.7540	3.7543	1.1439	27.45	3.05	0.050			
0.4012	25676.81	3.7530	3.7529	1.1525	27.37	2.97	0.050			
0.4023	25749.53	3.7520	3.7517	1.1601	27.28	2.88	0.050			
0.4035	25824.17	3.7510	3.7511	1.1692	27.21	2.81	0.050			
0.4047	25899.61	3.7500	3.7499	1.1782	27.11	2.71	0.050			
0.4059	25974.64	3.7490	3.7486	1.1866	27.02	2.62	0.050			
0.4070	26050.85	3.7480	3.7478	1.1927	26.92	2.52	0.050			
0.4083	26128.10	3.7470	3.7472	1.2031	26.84	2.44	0.050			
0.4095	26205.90	3.7460	3.7460	1.2127	26.73	2.33	0.050			
0.4107	26283.00	3.7450	3.7450	1.2213	26.64	2.24	0.050			
0.4119	26362.41	3.7440	3.7441	1.2308	26.56	2.16	0.050			
0.4132	26442.64	3.7430	3.7428	1.2413	26.45	2.05	0.050			
0.4144	26522.31	3.7420	3.7421	1.2507	26.35	1.95	0.050			
0.4157	26601.97	3.7410	3.7410	1.2558	26.25	1.85	0.050			
0.4169	26682.66	3.7400	3.7399	1.2648	26.16	1.76	0.050			
0.4182	26764.16	3.7390	3.7391	1.2715	26.06	1.66	0.050			
0.4195	26845.11	3.7380	3.7380	1.2792	25.98	1.58	0.050			
0.4207	26926.76	3.7370	3.7372	1.2859	25.88	1.48	0.050			
0.4220	27009.12	3.7360	3.7360	1.2981	25.79	1.39	0.050			
0.4233	27091.58	3.7350	3.7351	1.3093	25.71	1.31	0.050			
0.4246	27176.22	3.7340	3.7339	1.3184	25.61	1.21	0.050			
0.4259	27260.23	3.7330	3.7329	1.3265	25.54	1.14	0.050			
0.4273	27346.06	3.7320	3.7320	1.3347	25.45	1.05	0.050			
0.4286	27431.59	3.7310	3.7309	1.3472	25.38	0.98	0.050			
0.4300	27518.22	3.7300	3.7300	1.3576	25.29	0.89	0.050			
0.4313	27604.92	3.7290	3.7289	1.3684	25.20	0.80	0.050			
0.4327	27694.06	3.7280	3.7283	1.3787	25.09	0.69	0.050			
0.4341	27782.87	3.7270	3.7270	1.3844	24.97	0.57	0.050			
0.4355	27871.99	3.7260	3.7262	1.3962	24.87	0.47	0.050			
0.4369	27961.30	3.7250	3.7251	1.4081	24.74	0.34	0.050			
0.4383	28052.60	3.7240	3.7241	1.4165	24.63	0.23	0.050			
0.4398	28144.34	3.7230	3.7229	1.4225	24.51	0.11	0.050			
0.4412	28235.80	3.7220	3.7217	1.4288	24.39	-0.01	0.050			
0.4426	28326.86	3.7210	3.7211	1.4422	24.27	-0.13	0.050			
0.4440	28418.42	3.7200	3.7200	1.4533	24.17	-0.23	0.050			
0.4455	28511.81	3.7190	3.7191	1.4628	24.08	-0.32	0.050			
0.4469	28603.93	3.7180	3.7180	1.4733	24.02	-0.38	0.050			
0.4484	28698.99	3.7170	3.7166	1.4855	23.98	-0.42	0.050			
0.4499	28791.79	3.7160	3.7159	1.4975	23.98	-0.42	0.050			
0.4514	28886.82	3.7150	3.7151	1.5170	24.01	-0.39	0.050			
0.4529	28983.39	3.7140	3.7139	1.5342	24.09	-0.31	0.050			
0.4544	29080.67	3.7130	3.7130	1.5549	24.21	-0.19	0.050			
0.4559	29180.63	3.7120	3.7120	1.5748	24.38	-0.02	0.050			
0.4575	29279.89	3.7110	3.7109	1.5949	24.60	0.20	0.050			
0.4591	29382.37	3.7100	3.7100	1.6201	24.88	0.48	0.050			
0.4607	29486.25	3.7090	3.7088	1.6437	25.20	0.80	0.050			
0.4624	29593.30	3.7080	3.7078	1.6673	25.60	1.20	0.050			
0.4641	29701.34	3.7070	3.7068	1.6875	26.02	1.62	0.050			
0.4658	29809.43	3.7060	3.7058	1.7129	26.46	2.06	0.050			
0.4675	29920.96	3.7050	3.7052	1.7344	26.88	2.48	0.050			
0.4693	30034.71	3.7040	3.7042	1.7570	27.28	2.88	0.050			
0.4711	30148.12	3.7030	3.7030	1.7795	27.59	3.19	0.050			
0.4729	30263.00	3.7020	3.7020	1.7980	27.75	3.35	0.050			
0.4747	30379.60	3.7010	3.7010	1.8170	27.67	3.27	0.050			
0.4765	30497.26	3.7000	3.7002	1.8374	27.56	3.16	0.050			
0.4784	30615.98	3.6990	3.6991	1.8572	27.43	3.03	0.050			
0.4803	30736.49	3.6980	3.6980	1.8717	27.29	2.89	0.050			
0.4821	30856.17	3.6970	3.6970	1.8909	27.15	2.75	0.050			
0.4840	30975.72	3.6960	3.6961	1.9094	27.00	2.60	0.050			
0.4859	31097.30	3.6950	3.6950	1.9290	26.87	2.47	0.050			
0.4878	31221.22	3.6940	3.6941	1.9486	26.73	2.33	0.050			
0.4898	31346.38	3.6930	3.6932	1.9692	26.58	2.18	0.050			
0.4918	31473.02	3.6920	3.6919	1.9905	26.44	2.04	0.050			
0.4938	31600.70	3.6910	3.6909	2.0105	26.29	1.89	0.050			
0.4958	31728.68	3.6900	3.6902	2.0330	26.15	1.75	0.050			
0.4978	31859.83	3.6890	3.6889	2.0588	26.01	1.61	0.050			
0.4999	31993.26	3.6880	3.6878	2.0794	25.88	1.48	0.050			
0.5020	32126.35	3.6870	3.6870	2.1040	25.74	1.34	0.050			
0.5041	32260.37	3.6860	3.6860	2.1319	25.62	1.22	0.050			
0.5062	32397.65	3.6850	3.6852	2.1606	25.50	1.10	0.050			
0.5084	32537.43	3.6840	3.6838	2.1790	25.38	0.98	0.050			
0.5106	32678.76	3.6830	3.6829	2.2036	25.28	0.88	0.050			
0.5128	32821.95	3.6820	3.6821	2.2245	25.12	0.72	0.050			
0.5151	32965.06	3.6810	3.6811	2.2491	24.96	0.56	0.050			
0.5173	33109.11	3.6800	3.6800	2.2726	24.80	0.40	0.050			
0.5196	33255.11	3.6790	3.6790	2.2978	24.63	0.23	0.050			
0.5219	33401.58	3.6780	3.6779	2.3250	24.47	0.07	0.050			
0.5242	33549.14	3.6770	3.6772	2.3508	24.34	-0.06	0.050			
0.5265	33697.32	3.6760	3.6764	2.3874	24.24	-0.16	0.050			
0.5289	33849.42	3.6750	3.6750	2.4195	24.20	-0.20	0.050			
0.5313	34005.40	3.6740	3.6740	2.4550	24.25	-0.15	0.050			
0.5338	34162.51	3.6730	3.6731	2.4892	24.40	0.00	0.050			
0.5363	34321.68	3.6720	3.6718	2.5287	24.65	0.25	0.050			
0.5388	34483.50	3.6710	3.6712	2.5647	25.02	0.62	0.050			
0.5414	34646.92	3.6700	3.6696	2.6087	25.51	1.11	0.050			
0.5440	34813.49	3.6690	3.6690	2.6576	26.07	1.67	0.050			
0.5466	34982.88	3.6680	3.6681	2.6992	26.68	2.28	0.050			
0.5493	35158.13	3.6670	3.6672	2.7363	27.22	2.82	0.050			
0.5521	35337.54	3.6660	3.6660	2.7852	27.55	3.15	0.050			
0.5550	35518.96	3.6650	3.6648	2.8298	27.43	3.03	0.050			
0.5579	35702.64	3.6640	3.6640	2.8663	27.21	2.81	0.050			
0.5608	35888.00	3.6630	3.6631	2.9051	26.99	2.59	0.050			
0.5637	36075.11	3.6620	3.6621	2.9493	26.75	2.35	0.050			
0.5666	36263.39	3.6610	3.6611	2.9894	26.51	2.11	0.050			
0.5697	36457.64	3.6600	3.6600	3.0199	26.28	1.88	0.050			
0.5727	36652.88	3.6590	3.6590	3.0465	26.04	1.64	0.050			
0.5758	36848.50	3.6580	3.6580	3.0757	25.81	1.41	0.050			
0.5789	37050.64	3.6570	3.6571	3.1106	25.58	1.18	0.050			
0.5820	37251.02	3.6560	3.6561	3.1315	25.35	0.95	0.050			
0.5852	37452.71	3.6550	3.6550	3.1555	25.13	0.73	0.050			
0.5884	37655.32	3.6540	3.6542	3.1735	24.90	0.50	0.050			
0.5916	37861.77	3.6530	3.6530	3.2040	24.67	0.27	0.050			
0.5948	38065.92	3.6520	3.6519	3.2325	24.47	0.07	0.050			
0.5980	38271.05	3.6510	3.6511	3.2566	24.34	-0.06	0.050			
0.6012	38477.99	3.6500	3.6499	3.2833	24.32	-0.08	0.050			
0.6045	38687.82	3.6490	3.6489	3.3179	24.44	0.04	0.050			
0.6078	38897.62	3.6480	3.6482	3.3525	24.74	0.34	0.050			
0.6111	39113.47	3.6470	3.6469	3.3871	25.24	0.84	0.050			
0.6145	39330.89	3.6460	3.6457	3.4312	25.91	1.51	0.050			
0.6181	39555.77	3.6450	3.6451	3.4712	26.67	2.27	0.050			
0.6215	39778.91	3.6440	3.6442	3.4989	27.27	2.87	0.050			
0.6251	40006.61	3.6430	3.6431	3.5280	27.38	2.98	0.050			
0.6287	40235.80	3.6420	3.6418	3.5480	27.09	2.69	0.050			
0.6324	40470.56	3.6410	3.6411	3.5477	26.80	2.40	0.050			
0.6360	40704.44	3.6400	3.6401	3.5323	26.51	2.11	0.050			
0.6396	40932.93	3.6390	3.6388	3.4826	26.22	1.82	0.050			
0.6431	41159.69	3.6380	3.6380	3.4527	25.95	1.55	0.050			
0.6466	41380.70	3.6370	3.6370	3.3930	25.69	1.29	0.050			
0.6500	41600.56	3.6360	3.6359	3.3266	25.42	1.02	0.050			
0.6534	41814.41	3.6350	3.6349	3.2529	25.17	0.77	0.050			
0.6566	42023.02	3.6340	3.6339	3.1655	24.92	0.52	0.050			
0.6597	42221.09	3.6330	3.6330	3.0717	24.69	0.29	0.050			
0.6627	42414.64	3.6320	3.6319	2.9862	24.45	0.05	0.050			
0.6656	42599.41	3.6310	3.6310	2.8920	24.24	-0.16	0.050			
0.6684	42779.05	3.6300	3.6300	2.8099	24.09	-0.31	0.050			
0.6711	42952.49	3.6290	3.6290	2.7301	24.01	-0.39	0.050			
0.6737	43118.53	3.6280	3.6283	2.6593	24.05	-0.35	0.050			
0.6763	43282.89	3.6270	3.6270	2.5930	24.20	-0.20	0.050			
0.6788	43443.74	3.6260	3.6261	2.5385	24.45	0.05	0.050			
0.6813	43604.99	3.6250	3.6248	2.4809	24.82	0.42	0.050			
0.6839	43766.65	3.6240	3.6236	2.4114	25.32	0.92	0.050			
0.6862	43916.79	3.6230	3.6230	2.3652	25.85	1.45	0.050			
0.6885	44065.81	3.6220	3.6220	2.2923	26.42	2.02	0.050			
0.6908	44212.90	3.6210	3.6209	2.2233	26.94	2.54	0.050			
0.6931	44357.44	3.6200	3.6198	2.1547	27.34	2.94	0.050			
0.6953	44497.47	3.6190	3.6189	2.0834	27.55	3.15	0.050			
0.6974	44631.38	3.6180	3.6183	2.0068	27.45	3.05	0.050			
0.6994	44764.00	3.6170	3.6172	1.9331	27.31	2.91	0.050			
0.7014	44890.08	3.6160	3.6163	1.8545	27.15	2.75	0.050			
0.7032	45007.64	3.6150	3.6151	1.7719	27.01	2.61	0.050			
0.7050	45117.58	3.6140	3.6143	1.6987	26.87	2.47	0.050			
0.7066	45224.43	3.6130	3.6128	1.6191	26.73	2.33	0.050			
0.7081	45321.20	3.6120	3.6120	1.5460	26.60	2.20	0.050			
0.7095	45410.88	3.6110	3.6107	1.4775	26.51	2.11	0.050			
0.7109	45495.21	3.6100	3.6100	1.4167	26.39	1.99	0.050			
0.7121	45573.07	3.6090	3.6090	1.3631	26.28	1.88	0.050			
0.7132	45645.47	3.6080	3.6079	1.3243	26.19	1.79	0.050			
0.7144	45720.81	3.6070	3.6070	1.2988	26.08	1.68	0.050			
0.7155	45793.96	3.6060	3.6059	1.2767	25.98	1.58	0.050			
0.7167	45870.09	3.6050	3.6050	1.2772	25.88	1.48	0.050			
0.7179	45945.98	3.6040	3.6041	1.2765	25.79	1.39	0.050			
0.7191	46025.34	3.6030	3.6030	1.2832	25.68	1.28	0.050			
0.7204	46103.72	3.6020	3.6019	1.2890	25.57	1.17	0.050			
0.7216	46184.35	3.6010	3.6008	1.3093	25.46	1.06	0.050			
0.7229	46266.52	3.6000	3.5999	1.3306	25.36	0.96	0.050			
0.7242	46351.42	3.5990	3.5990	1.3525	25.24	0.84	0.050			
0.7256	46440.36	3.5980	3.5978	1.3719	25.12	0.72	0.050			
0.7271	46531.25	3.5970	3.5970	1.3917	25.01	0.61	0.050			
0.7285	46623.56	3.5960	3.5960	1.4038	24.89	0.49	0.050			
0.7300	46718.32	3.5950	3.5951	1.4074	24.75	0.35	0.050			
0.7314	46812.62	3.5940	3.5940	1.4160	24.61	0.21	0.050			
0.7329	46906.33	3.5930	3.5930	1.4187	24.45	0.05	0.050			
0.7344	47002.62	3.5920	3.5919	1.4130	24.30	-0.10	0.050			
0.7359	47098.44	3.5910	3.5911	1.4017	24.13	-0.27	0.050			
0.7374	47191.16	3.5900	3.5901	1.3856	23.99	-0.41	0.050			
0.7388	47281.78	3.5890	3.5891	1.3612	23.85	-0.55	0.050			
0.7402	47372.46	3.5880	3.5880	1.3392	23.73	-0.67	0.050			
0.7416	47459.26	3.5870	3.5869	1.3085	23.63	-0.77	0.050			
0.7429	47545.04	3.5860	3.5860	1.2752	23.54	-0.86	0.050			
0.7442	47626.40	3.5850	3.5851	1.2409	23.49	-0.91	0.050			
0.7454	47704.97	3.5840	3.5842	1.2070	23.46	-0.94	0.050			
0.7466	47779.74	3.5830	3.5831	1.1764	23.46	-0.94	0.050			
0.7477	47851.53	3.5820	3.5819	1.1402	23.49	-0.91	0.050			
0.7488	47920.18	3.5810	3.5809	1.1058	23.55	-0.85	0.050			
0.7498	47986.43	3.5800	3.5800	1.0822	23.62	-0.78	0.050			
0.7508	48052.01	3.5790	3.5790	1.0614	23.71	-0.69	0.050			
0.7518	48116.98	3.5780	3.5781	1.0440	23.84	-0.56	0.050			
0.7528	48180.76	3.5770	3.5769	1.0242	23.97	-0.43	0.050			
0.7538	48244.09	3.5760	3.5757	1.0082	24.13	-0.27	0.050			
0.7548	48304.75	3.5750	3.5749	0.9955	24.32	-0.08	0.050			
0.7557	48364.77	3.5740	3.5738	0.9907	24.51	0.11	0.050			
0.7567	48427.06	3.5730	3.5731	0.9887	24.73	0.33	0.050			
0.7576	48488.81	3.5720	3.5720	0.9880	24.96	0.56	0.050			
0.7586	48549.72	3.5710	3.5708	0.9910	25.21	0.81	0.050			
0.7596	48612.14	3.5700	3.5702	0.9950	25.49	1.09	0.050			
0.7605	48674.89	3.5690	3.5691	0.9996	25.78	1.38	0.050			
0.7615	48738.47	3.5680	3.5681	1.0069	26.06	1.66	0.050			
0.7625	48802.27	3.5670	3.5668	1.0183	26.35	1.95	0.050			
0.7636	48867.68	3.5660	3.5658	1.0287	26.64	2.24	0.050			
0.7646	48932.38	3.5650	3.5648	1.0383	26.91	2.51	0.050			
0.7656	48999.11	3.5640	3.5641	1.0476	27.17	2.77	0.050			
0.7667	49066.56	3.5630	3.5629	1.0537	27.39	2.99	0.050			
0.7677	49135.13	3.5620	3.5620	1.0648	27.56	3.16	0.050			
0.7688	49205.52	3.5610	3.5613	1.0677	27.67	3.27	0.050			
0.7699	49274.96	3.5600	3.5600	1.0726	27.71	3.31	0.050			
0.7710	49345.85	3.5590	3.5588	1.0799	27.65	3.25	0.050			
0.7721	49417.56	3.5580	3.5579	1.0846	27.59	3.19	0.050			
0.7732	49487.81	3.5570	3.5570	1.0875	27.53	3.13	0.050			
0.7743	49558.19	3.5560	3.5561	1.0860	27.47	3.07	0.050			
0.7754	49628.14	3.5550	3.5551	1.0827	27.41	3.01	0.050			
0.7765	49698.01	3.5540	3.5539	1.0782	27.36	2.96	0.050			
0.7776	49768.81	3.5530	3.5529	1.0771	27.30	2.90	0.050			
0.7787	49837.55	3.5520	3.5521	1.0727	27.24	2.84	0.050			
0.7798	49905.27	3.5510	3.5509	1.0680	27.17	2.77	0.050			
0.7808	49973.94	3.5500	3.5501	1.0647	27.12	2.72	0.050			
0.7819	50040.50	3.5490	3.5490	1.0617	27.06	2.66	0.050			
0.7829	50107.52	3.5480	3.5480	1.0592	27.02	2.62	0.050			
0.7839	50172.48	3.5470	3.5471	1.0559	26.96	2.56	0.050			
0.7850	50239.13	3.5460	3.5460	1.0594	26.92	2.52	0.050			
0.7860	50305.42	3.5450	3.5449	1.0595	26.86	2.46	0.050			
0.7871	50373.61	3.5440	3.5438	1.0645	26.81	2.41	0.050			
0.7881	50441.26	3.5430	3.5429	1.0690	26.77	2.37	0.050			
0.7892	50509.47	3.5420	3.5419	1.0739	26.72	2.32	0.050			
0.7903	50577.78	3.5410	3.5409	1.0817	26.67	2.27	0.050			
0.7913	50645.33	3.5400	3.5398	1.0881	26.64	2.24	0.050			
0.7924	50715.02	3.5390	3.5389	1.0996	26.60	2.20	0.050			
0.7935	50784.46	3.5380	3.5381	1.1088	26.57	2.17	0.050			
0.7946	50854.53	3.5370	3.5371	1.1205	26.53	2.13	0.050			
0.7957	50926.30	3.5360	3.5361	1.1366	26.51	2.11	0.050			
0.7969	50998.47	3.5350	3.5351	1.1533	26.48	2.08	0.050			
0.7980	51072.05	3.5340	3.5339	1.1695	26.47	2.07	0.050			
0.7992	51146.44	3.5330	3.5331	1.1871	26.47	2.07	0.050			
0.8003	51221.21	3.5320	3.5319	1.2070	26.47	2.07	0.050			
0.8015	51297.21	3.5310	3.5309	1.2294	26.41	2.01	0.050			
0.8027	51374.19	3.5300	3.5300	1.2573	26.33	1.93	0.050			
0.8039	51452.57	3.5290	3.5291	1.2837	26.23	1.83	0.050			
0.8052	51534.67	3.5280	3.5280	1.3140	26.13	1.73	0.050			
0.8065	51618.31	3.5270	3.5272	1.3452	26.04	1.64	0.050			
0.8079	51703.00	3.5260	3.5262	1.3834	25.93	1.53	0.050			
0.8092	51790.93	3.5250	3.5251	1.4235	25.84	1.44	0.050			
0.8107	51881.92	3.5240	3.5238	1.4669	25.74	1.34	0.050			
0.8121	51974.94	3.5230	3.5228	1.5114	25.64	1.24	0.050			
0.8136	52070.25	3.5220	3.5218	1.5604	25.54	1.14	0.050			
0.8152	52170.61	3.5210	3.5210	1.6067	25.43	1.03	0.050			
0.8168	52274.18	3.5200	3.5201	1.6563	25.32	0.92	0.050			
0.8185	52383.23	3.5190	3.5190	1.7029	25.21	0.81	0.050			
0.8202	52494.37	3.5180	3.5177	1.7519	25.11	0.71	0.050			
0.8220	52608.82	3.5170	3.5169	1.7996	25.01	0.61	0.050			
0.8239	52728.49	3.5160	3.5160	1.8447	24.94	0.54	0.050			
0.8258	52849.24	3.5150	3.5150	1.8891	24.86	0.46	0.050			
0.8277	52973.75	3.5140	3.5141	1.9322	24.81	0.41	0.050			
0.8297	53099.93	3.5130	3.5129	1.9721	24.79	0.39	0.050			
0.8317	53228.71	3.5120	3.5120	2.0137	24.79	0.39	0.050			
0.8337	53359.42	3.5110	3.5111	2.0503	24.82	0.42	0.050			
0.8358	53493.27	3.5100	3.5101	2.0869	24.90	0.50	0.050			
0.8380	53628.96	3.5090	3.5089	2.1283	25.03	0.63	0.050			
0.8401	53764.67	3.5080	3.5080	2.1676	25.21	0.81	0.050			
0.8423	53904.31	3.5070	3.5070	2.1996	25.46	1.06	0.050			
0.8445	54047.39	3.5060	3.5058	2.2273	25.74	1.34	0.050			
0.8467	54191.92	3.5050	3.5050	2.2555	26.04	1.64	0.050			
0.8491	54340.33	3.5040	3.5037	2.2757	26.36	1.96	0.050			
0.8514	54490.42	3.5030	3.5029	2.2932	26.63	2.23	0.050			
0.8538	54645.05	3.5020	3.5018	2.2935	26.79	2.39	0.050			
0.8563	54800.78	3.5010	3.5007	2.2847	26.75	2.35	0.050			
0.8587	54955.55	3.5000	3.5000	2.2711	26.57	2.17	0.050			
0.8611	55109.52	3.4990	3.4990	2.2389	26.41	2.01	0.050			
0.8634	55258.78	3.4980	3.4983	2.1968	26.26	1.86	0.050			
0.8658	55410.64	3.4970	3.4969	2.1341	26.10	1.70	0.050			
0.8680	55553.63	3.4960	3.4960	2.0612	25.96	1.56	0.050			
0.8702	55693.07	3.4950	3.4951	1.9669	25.84	1.44	0.050			
0.8722	55823.73	3.4940	3.4943	1.8686	25.73	1.33	0.050			
0.8742	55947.44	3.4930	3.4931	1.7629	25.66	1.26	0.050			
0.8760	56062.73	3.4920	3.4920	1.6522	25.56	1.16	0.050			
0.8776	56167.52	3.4910	3.4912	1.5363	25.44	1.04	0.050			
0.8791	56260.69	3.4900	3.4901	1.4195	25.34	0.94	0.050			
0.8804	56344.15	3.4890	3.4891	1.3087	25.26	0.86	0.050			
0.8816	56421.18	3.4880	3.4879	1.1854	25.18	0.78	0.050			
0.8827	56490.26	3.4870	3.4868	1.0890	25.10	0.70	0.050			
0.8835	56544.65	3.4860	3.4858	0.9919	25.06	0.66	0.050			
0.8843	56596.42	3.4850	3.4847	0.9123	25.01	0.61	0.050			
0.8851	56643.78	3.4840	3.4838	0.8197	24.97	0.57	0.050			
0.8858	56688.06	3.4830	3.4827	0.7618	24.94	0.54	0.050			
0.8863	56724.89	3.4820	3.4817	0.7046	24.91	0.51	0.050			
0.8869	56760.72	3.4810	3.4810	0.6413	24.88	0.48	0.050			
0.8874	56793.18	3.4800	3.4799	0.6030	24.86	0.46	0.050			
0.8879	56827.11	3.4790	3.4787	0.5610	24.83	0.43	0.050			
0.8884	56860.35	3.4780	3.4775	0.5267	24.81	0.41	0.050			
0.8889	56887.75	3.4770	3.4769	0.5060	24.80	0.40	0.050			
0.8893	56917.78	3.4760	3.4760	0.4802	24.78	0.38	0.050			
0.8897	56943.87	3.4750	3.4751	0.4587	24.76	0.36	0.050			
0.8902	56971.31	3.4740	3.4738	0.4390	24.75	0.35	0.050			
0.8906	56996.88	3.4730	3.4730	0.4263	24.73	0.33	0.050			
0.8910	57022.51	3.4720	3.4722	0.4111	24.72	0.32	0.050			
0.8913	57046.34	3.4710	3.4713	0.4014	24.71	0.31	0.050			
0.8917	57070.63	3.4700	3.4701	0.3934	24.70	0.30	0.050			
0.8921	57095.06	3.4690	3.4692	0.3843	24.69	0.29	0.050			
0.8925	57119.20	3.4680	3.4680	0.3775	24.69	0.29	0.050			
0.8929	57142.50	3.4670	3.4670	0.3691	24.68	0.28	0.050			
0.8932	57164.81	3.4660	3.4660	0.3595	24.68	0.28	0.050			
0.8936	57187.53	3.4650	3.4650	0.3539	24.67	0.27	0.050			
0.8939	57210.01	3.4640	3.4638	0.3487	24.66	0.26	0.050			
0.8942	57231.83	3.4630	3.4630	0.3438	24.66	0.26	0.050			
0.8946	57253.09	3.4620	3.4620	0.3377	24.65	0.25	0.050			
0.8949	57274.79	3.4610	3.4612	0.3327	24.65	0.25	0.050			
0.8953	57296.19	3.4600	3.4602	0.3287	24.65	0.25	0.050			
0.8956	57317.15	3.4590	3.4592	0.3237	24.65	0.25	0.050			
0.8959	57337.71	3.4580	3.4581	0.3189	24.65	0.25	0.050			
0.8962	57358.00	3.4570	3.4570	0.3157	24.66	0.26	0.050			
0.8965	57378.07	3.4560	3.4561	0.3114	24.66	0.26	0.050			
0.8968	57397.57	3.4550	3.4548	0.3076	24.66	0.26	0.050			
0.8971	57417.13	3.4540	3.4537	0.3036	24.67	0.27	0.050			
0.8974	57436.28	3.4530	3.4530	0.2994	24.67	0.27	0.050			
0.8977	57455.16	3.4520	3.4522	0.2963	24.68	0.28	0.050			
0.8980	57473.25	3.4510	3.4511	0.2914	24.69	0.29	0.050			
0.8983	57491.18	3.4500	3.4500	0.2878	24.69	0.29	0.050			
0.8986	57509.53	3.4490	3.4489	0.2856	24.70	0.30	0.050			
0.8989	57527.70	3.4480	3.4478	0.2834	24.71	0.31	0.050			
0.8992	57545.77	3.4470	3.4470	0.2812	24.73	0.33	0.050			
0.8994	57563.91	3.4460	3.4464	0.2794	24.74	0.34	0.050			
0.8997	57581.42	3.4450	3.4451	0.2781	24.75	0.35	0.050			
0.9000	57599.16	3.4440	3.4440	0.2761	24.77	0.37	0.050			
0.9003	57616.57	3.4430	3.4431	0.2741	24.78	0.38	0.050			
0.9005	57634.06	3.4420	3.4419	0.2723	24.79	0.39	0.050			
0.9008	57651.12	3.4410	3.4410	0.2699	24.81	0.41	0.050			
0.9011	57668.35	3.4400	3.4399	0.2684	24.83	0.43	0.050			
0.9013	57685.70	3.4390	3.4388	0.2672	24.86	0.46	0.050			
0.9016	57702.79	3.4380	3.4381	0.2653	24.88	0.48	0.050			
0.9019	57719.63	3.4370	3.4371	0.2634	24.89	0.49	0.050			
0.9021	57736.82	3.4360	3.4357	0.2606	24.91	0.51	0.050			
0.9024	57753.15	3.4350	3.4350	0.2577	24.93	0.53	0.050			
0.9026	57769.58	3.4340	3.4341	0.2559	24.95	0.55	0.050			
0.9029	57786.09	3.4330	3.4331	0.2533	24.98	0.58	0.050			
0.9032	57802.85	3.4320	3.4320	0.2523	25.01	0.61	0.050			
0.9034	57818.92	3.4310	3.4310	0.2498	25.03	0.63	0.050			
0.9037	57834.72	3.4300	3.4302	0.2489	25.07	0.67	0.050			
0.9039	57850.57	3.4290	3.4290	0.2465	25.11	0.71	0.050			
0.9042	57866.22	3.4280	3.4281	0.2440	25.14	0.74	0.050			
0.9044	57881.59	3.4270	3.4271	0.2422	25.16	0.76	0.050			
0.9046	57897.02	3.4260	3.4260	0.2401	25.19	0.79	0.050			
0.9049	57912.23	3.4250	3.4251	0.2378	25.21	0.81	0.050			
0.9051	57926.95	3.4240	3.4239	0.2377	25.24	0.84	0.050			
0.9053	57941.55	3.4230	3.4230	0.2353	25.27	0.87	0.050			
0.9056	57956.55	3.4220	3.4219	0.2344	25.30	0.90	0.050			
0.9058	57971.28	3.4210	3.4209	0.2329	25.33	0.93	0.050			
0.9060	57986.16	3.4200	3.4201	0.2322	25.36	0.96	0.050			
0.9063	58001.18	3.4190	3.4189	0.2308	25.39	0.99	0.050			
0.9065	58015.68	3.4180	3.4183	0.2294	25.43	1.03	0.050			
0.9067	58030.34	3.4170	3.4171	0.2287	25.46	1.06	0.050			
0.9070	58045.40	3.4160	3.4159	0.2270	25.49	1.09	0.050			
0.9072	58059.89	3.4150	3.4148	0.2259	25.53	1.13	0.050			
0.9074	58074.31	3.4140	3.4139	0.2247	25.56	1.16	0.050			
0.9076	58088.72	3.4130	3.4132	0.2259	25.59	1.19	0.050			
0.9079	58103.14	3.4120	3.4121	0.2248	25.62	1.22	0.050			
0.9081	58117.50	3.4110	3.4112	0.2236	25.66	1.26	0.050			
0.9083	58131.80	3.4100	3.4101	0.2226	25.69	1.29	0.050			
0.9085	58146.01	3.4090	3.4090	0.2214	25.73	1.33	0.050			
0.9088	58160.09	3.4080	3.4081	0.2204	25.77	1.37	0.050			
0.9090	58173.97	3.4070	3.4069	0.2189	25.80	1.40	0.050			
0.9092	58187.94	3.4060	3.4059	0.2179	25.83	1.43	0.050			
0.9094	58201.86	3.4050	3.4048	0.2170	25.86	1.46	0.050			
0.9096	58215.91	3.4040	3.4038	0.2158	25.89	1.49	0.050			
0.9098	58229.69	3.4030	3.4028	0.2147	25.92	1.52	0.050			
0.9100	58243.05	3.4020	3.4022	0.2128	25.95	1.55	0.050			
0.9103	58256.64	3.4010	3.4013	0.2120	25.98	1.58	0.050			
0.9105	58270.17	3.4000	3.4001	0.2114	26.02	1.62	0.050			
0.9107	58284.00	3.3990	3.3991	0.2108	26.05	1.65	0.050			
0.9109	58297.46	3.3980	3.3979	0.2097	26.08	1.68	0.050			
0.9111	58310.85	3.3970	3.3969	0.2087	26.12	1.72	0.050			
0.9113	58324.49	3.3960	3.3959	0.2080	26.15	1.75	0.050			
0.9115	58337.53	3.3950	3.3950	0.2074	26.18	1.78	0.050			
0.9117	58350.77	3.3940	3.3941	0.2063	26.21	1.81	0.050			
0.9119	58364.01	3.3930	3.3930	0.2053	26.24	1.84	0.050			
0.9121	58376.88	3.3920	3.3921	0.2049	26.28	1.88	0.050			
0.9123	58389.45	3.3910	3.3912	0.2025	26.31	1.91	0.050			
0.9125	58402.40	3.3900	3.3899	0.2021	26.33	1.93	0.050			
0.9127	58415.71	3.3890	3.3890	0.2004	26.36	1.96	0.050			
0.9129	58428.77	3.3880	3.3881	0.2003	26.39	1.99	0.050			
0.9131	58441.56	3.3870	3.3869	0.1993	26.43	2.03	0.050			
0.9133	58454.25	3.3860	3.3859	0.1984	26.44	2.04	0.050			
0.9135	58466.91	3.3850	3.3851	0.1974	26.46	2.06	0.050			
0.9137	58479.56	3.3840	3.3842	0.1965	26.49	2.09	0.050			
0.9139	58492.10	3.3830	3.3831	0.1954	26.52	2.12	0.050			
0.9141	58504.26	3.3820	3.3820	0.1958	26.54	2.14	0.050			
0.9143	58516.77	3.3810	3.3811	0.1951	26.57	2.17	0.050			
0.9145	58529.19	3.3800	3.3802	0.1944	26.59	2.19	0.050			
0.9147	58541.77	3.3790	3.3790	0.1928	26.61	2.21	0.050			
0.9149	58554.09	3.3780	3.3780	0.1920	26.64	2.24	0.050			
0.9151	58566.35	3.3770	3.3770	0.1912	26.66	2.26	0.050			
0.9153	58578.47	3.3760	3.3759	0.1908	26.68	2.28	0.050			
0.9155	58590.68	3.3750	3.3747	0.1902	26.70	2.30	0.050			
0.9157	58602.83	3.3740	3.3740	0.1895	26.72	2.32	0.050			
0.9159	58614.93	3.3730	3.3728	0.1888	26.74	2.34	0.050			
0.9160	58626.74	3.3720	3.3719	0.1878	26.75	2.35	0.050			
0.9162	58638.74	3.3710	3.3712	0.1874	26.77	2.37	0.050			
0.9164	58650.72	3.3700	3.3702	0.1869	26.79	2.39	0.050			
0.9166	58662.25	3.3690	3.3692	0.1870	26.81	2.41	0.050			
0.9168	58674.22	3.3680	3.3680	0.1870	26.82	2.42	0.050			
0.9170	58686.18	3.3670	3.3669	0.1869	26.83	2.43	0.050			
0.9172	58698.59	3.3660	3.3659	0.1869	26.85	2.45	0.050			
0.9174	58710.54	3.3650	3.3649	0.1865	26.86	2.46	0.050			
0.9175	58722.46	3.3640	3.3640	0.1860	26.86	2.46	0.050			
0.9177	58734.35	3.3630	3.3630	0.1856	26.87	2.47	0.050			
0.9179	58746.29	3.3620	3.3619	0.1841	26.87	2.47	0.050			
0.9181	58758.06	3.3610	3.3608	0.1835	26.88	2.48	0.050			
0.9183	58769.78	3.3600	3.3599	0.1829	26.88	2.48	0.050			
0.9185	58781.28	3.3590	3.3590	0.1821	26.88	2.48	0.050			
0.9186	58793.07	3.3580	3.3580	0.1812	26.88	2.48	0.050			
0.9188	58804.65	3.3570	3.3572	0.1806	26.88	2.48	0.050			
0.9190	58816.89	3.3560	3.3562	0.1813	26.88	2.48	0.050			
0.9192	58827.91	3.3550	3.3551	0.1814	26.87	2.47	0.050			
0.9194	58839.50	3.3540	3.3540	0.1807	26.86	2.46	0.050			
0.9195	58851.05	3.3530	3.3531	0.1801	26.85	2.45	0.050			
0.9197	58862.37	3.3520	3.3520	0.1792	26.84	2.44	0.050			
0.9199	58873.90	3.3510	3.3509	0.1784	26.83	2.43	0.050			
0.9201	58885.30	3.3500	3.3499	0.1779	26.82	2.42	0.050			
0.9203	58896.56	3.3490	3.3488	0.1771	26.81	2.41	0.050			
0.9204	58908.18	3.3480	3.3479	0.1759	26.79	2.39	0.050			
0.9206	58919.41	3.3470	3.3468	0.1751	26.78	2.38	0.050			
0.9208	58930.32	3.3460	3.3459	0.1737	26.77	2.37	0.050			
0.9210	58941.42	3.3450	3.3450	0.1732	26.76	2.36	0.050			
0.9211	58952.91	3.3440	3.3440	0.1715	26.74	2.34	0.050			
0.9213	58963.85	3.3430	3.3431	0.1705	26.73	2.33	0.050			
0.9215	58975.25	3.3420	3.3421	0.1707	26.71	2.31	0.050			
0.9217	58986.13	3.3410	3.3412	0.1693	26.70	2.30	0.050			
0.9218	58996.73	3.3400	3.3401	0.1686	26.68	2.28	0.050			
0.9220	59007.49	3.3390	3.3391	0.1675	26.67	2.27	0.050			
0.9222	59018.55	3.3380	3.3381	0.1669	26.66	2.26	0.050			
0.9223	59029.19	3.3370	3.3370	0.1655	26.64	2.24	0.050			
0.9225	59039.27	3.3360	3.3362	0.1657	26.63	2.23	0.050			
0.9227	59049.62	3.3350	3.3351	0.1642	26.61	2.21	0.050			
0.9228	59060.10	3.3340	3.3339	0.1634	26.60	2.20	0.050			
0.9230	59070.53	3.3330	3.3329	0.1625	26.59	2.19	0.050			
0.9231	59080.64	3.3320	3.3319	0.1627	26.57	2.17	0.050			
0.9233	59090.32	3.3310	3.3310	0.1607	26.56	2.16	0.050			
0.9234	59100.61	3.3300	3.3299	0.1606	26.55	2.15	0.050			
0.9236	59110.89	3.3290	3.3288	0.1606	26.54	2.14	0.050			
0.9238	59121.17	3.3280	3.3278	0.1599	26.53	2.13	0.050			
0.9239	59131.40	3.3270	3.3270	0.1598	26.52	2.12	0.050			
0.9241	59141.63	3.3260	3.3260	0.1598	26.50	2.10	0.050			
0.9242	59151.86	3.3250	3.3251	0.1598	26.49	2.09	0.050			
0.9244	59162.56	3.3240	3.3240	0.1590	26.48	2.08	0.050			
0.9246	59172.72	3.3230	3.3230	0.1585	26.47	2.07	0.050			
0.9247	59182.85	3.3220	3.3221	0.1580	26.46	2.06	0.050			
0.9249	59192.94	3.3210	3.3211	0.1575	26.45	2.05	0.050			
0.9251	59203.43	3.3200	3.3198	0.1579	26.43	2.03	0.050			
0.9252	59213.51	3.3190	3.3189	0.1571	26.42	2.02	0.050			
0.9254	59223.54	3.3180	3.3181	0.1563	26.41	2.01	0.050			
0.9255	59233.51	3.3170	3.3173	0.1555	26.40	2.00	0.050			
0.9257	59243.71	3.3160	3.3161	0.1544	26.39	1.99	0.050			
0.9258	59253.56	3.3150	3.3150	0.1533	26.38	1.98	0.050			
0.9260	59263.33	3.3140	3.3140	0.1523	26.36	1.96	0.050			
0.9261	59273.04	3.3130	3.3130	0.1512	26.35	1.95	0.050			
0.9263	59282.70	3.3120	3.3120	0.1501	26.34	1.94	0.050			
0.9264	59292.12	3.3110	3.3110	0.1495	26.33	1.93	0.050			
0.9266	59301.66	3.3100	3.3099	0.1486	26.31	1.91	0.050			
0.9267	59311.14	3.3090	3.3089	0.1476	26.30	1.90	0.050			
0.9269	59320.51	3.3080	3.3081	0.1467	26.29	1.89	0.050			
0.9270	59329.53	3.3070	3.3072	0.1466	26.28	1.88	0.050			
0.9272	59338.89	3.3060	3.3062	0.1460	26.26	1.86	0.050			
0.9273	59348.22	3.3050	3.3050	0.1454	26.25	1.85	0.050			
0.9275	59357.27	3.3040	3.3041	0.1445	26.24	1.84	0.050			
0.9276	59366.22	3.3030	3.3031	0.1447	26.23	1.83	0.050			
0.9277	59375.47	3.3020	3.3020	0.1445	26.22	1.82	0.050			
0.9279	59384.71	3.3010	3.3008	0.1443	26.21	1.81	0.050			
0.9280	59393.70	3.3000	3.2998	0.1437	26.20	1.80	0.050			
0.9282	59402.90	3.2990	3.2990	0.1437	26.19	1.79	0.050			
0.9283	59412.50	3.2980	3.2979	0.1426	26.18	1.78	0.050			
0.9285	59421.61	3.2970	3.2969	0.1423	26.17	1.77	0.050			
0.9286	59430.54	3.2960	3.2960	0.1416	26.15	1.75	0.050			
0.9287	59439.60	3.2950	3.2951	0.1414	26.14	1.74	0.050			
0.9289	59448.64	3.2940	3.2941	0.1412	26.13	1.73	0.050			
0.9290	59458.04	3.2930	3.2929	0.1396	26.12	1.72	0.050			
0.9292	59466.95	3.2920	3.2920	0.1390	26.11	1.71	0.050			
0.9293	59476.50	3.2910	3.2911	0.1395	26.10	1.70	0.050			
0.9295	59485.39	3.2900	3.2902	0.1385	26.09	1.69	0.050			
0.9296	59493.92	3.2890	3.2892	0.1382	26.08	1.68	0.050			
0.9297	59502.75	3.2880	3.2881	0.1374	26.07	1.67	0.050			
0.9299	59511.66	3.2870	3.2871	0.1369	26.06	1.66	0.050			
0.9300	59520.39	3.2860	3.2862	0.1360	26.04	1.64	0.050			
0.9301	59529.07	3.2850	3.2851	0.1352	26.03	1.63	0.050			
0.9303	59536.88	3.2840	3.2838	0.1365	26.02	1.62	0.050			
0.9304	59545.19	3.2830	3.2829	0.1348	26.01	1.61	0.050			
0.9305	59553.81	3.2820	3.2820	0.1349	25.99	1.59	0.050			
0.9307	59562.45	3.2810	3.2808	0.1350	25.98	1.58	0.050			
0.9308	59571.09	3.2800	3.2798	0.1350	25.97	1.57	0.050			
0.9309	59579.73	3.2790	3.2788	0.1351	25.96	1.56	0.050			
0.9311	59588.23	3.2780	3.2780	0.1323	25.96	1.56	0.050			
0.9312	59596.70	3.2770	3.2770	0.1323	25.95	1.55	0.050			
0.9313	59605.16	3.2760	3.2759	0.1323	25.94	1.54	0.050			
0.9315	59613.63	3.2750	3.2749	0.1323	25.93	1.53	0.050			
0.9316	59622.36	3.2740	3.2739	0.1314	25.92	1.52	0.050			
0.9317	59631.20	3.2730	3.2731	0.1319	25.91	1.51	0.050			
0.9319	59639.62	3.2720	3.2723	0.1314	25.90	1.50	0.050			
0.9320	59648.01	3.2710	3.2713	0.1309	25.89	1.49	0.050			
0.9321	59656.57	3.2700	3.2698	0.1298	25.88	1.48	0.050			
0.9323	59665.26	3.2690	3.2689	0.1305	25.87	1.47	0.050			
0.9324	59673.58	3.2680	3.2679	0.1295	25.86	1.46	0.050			
0.9325	59681.84	3.2670	3.2669	0.1285	25.85	1.45	0.050			
0.9327	59690.03	3.2660	3.2658	0.1276	25.84	1.44	0.050			
0.9328	59698.16	3.2650	3.2648	0.1266	25.83	1.43	0.050			
0.9329	59706.14	3.2640	3.2638	0.1262	25.82	1.42	0.050			
0.9330	59714.19	3.2630	3.2628	0.1253	25.81	1.41	0.050			
0.9332	59722.18	3.2620	3.2619	0.1244	25.80	1.40	0.050			
0.9333	59730.11	3.2610	3.2610	0.1235	25.79	1.39	0.050			
0.9334	59737.99	3.2600	3.2602	0.1227	25.78	1.38	0.050			
0.9335	59745.56	3.2590	3.2591	0.1231	25.77	1.37	0.050			
0.9336	59752.48	3.2580	3.2582	0.1209	25.76	1.36	0.050			
0.9338	59760.22	3.2570	3.2573	0.1208	25.75	1.35	0.050			
0.9339	59767.95	3.2560	3.2563	0.1208	25.74	1.34	0.050			
0.9340	59775.67	3.2550	3.2551	0.1207	25.73	1.33	0.050			
0.9341	59783.68	3.2540	3.2539	0.1214	25.72	1.32	0.050			
0.9342	59791.44	3.2530	3.2529	0.1211	25.71	1.31	0.050			
0.9344	59799.19	3.2520	3.2520	0.1208	25.70	1.30	0.050			
0.9345	59806.91	3.2510	3.2511	0.1206	25.69	1.29	0.050			
0.9346	59814.15	3.2500	3.2498	0.1197	25.68	1.28	0.050			
0.9347	59822.35	3.2490	3.2487	0.1187	25.67	1.27	0.050			
0.9348	59829.94	3.2480	3.2479	0.1184	25.66	1.26	0.050			
0.9350	59837.51	3.2470	3.2471	0.1181	25.65	1.25	0.050			
0.9351	59845.06	3.2460	3.2462	0.1178	25.64	1.24	0.050			
0.9352	59852.59	3.2450	3.2450	0.1175	25.63	1.23	0.050			
0.9353	59860.37	3.2440	3.2439	0.1174	25.63	1.23	0.050			
0.9354	59867.94	3.2430	3.2429	0.1168	25.62	1.22	0.050			
0.9356	59875.40	3.2420	3.2420	0.1162	25.61	1.21	0.050			
0.9357	59882.82	3.2410	3.2410	0.1156	25.60	1.20	0.050			
0.9358	59890.20	3.2400	3.2402	0.1150	25.59	1.19	0.050			
0.9359	59898.01	3.2390	3.2388	0.1152	25.59	1.19	0.050			
0.9360	59905.36	3.2380	3.2380	0.1143	25.58	1.18	0.050			
0.9361	59912.21	3.2370	3.2373	0.1144	25.57	1.17	0.050			
0.9362	59919.52	3.2360	3.2361	0.1138	25.57	1.17	0.050			
0.9364	59926.78	3.2350	3.2350	0.1133	25.56	1.16	0.050			
0.9365	59933.66	3.2340	3.2339	0.1121	25.55	1.15	0.050			
0.9366	59940.82	3.2330	3.2329	0.1118	25.54	1.14	0.050			
0.9367	59947.97	3.2320	3.2321	0.1115	25.54	1.14	0.050			
0.9368	59955.39	3.2310	3.2310	0.1103	25.53	1.13	0.050			
0.9369	59962.43	3.2300	3.2299	0.1098	25.52	1.12	0.050			
0.9370	59969.33	3.2290	3.2289	0.1090	25.51	1.11	0.050			
0.9371	59976.29	3.2280	3.2280	0.1085	25.50	1.10	0.050			
0.9372	59983.22	3.2270	3.2270	0.1081	25.49	1.09	0.050			
0.9373	59989.85	3.2260	3.2260	0.1083	25.48	1.08	0.050			
0.9374	59996.77	3.2250	3.2250	0.1080	25.47	1.07	0.050			
0.9376	60003.68	3.2240	3.2242	0.1078	25.46	1.06	0.050			
0.9377	60010.64	3.2230	3.2232	0.1076	25.46	1.06	0.050			
0.9378	60017.52	3.2220	3.2221	0.1073	25.45	1.05	0.050			
0.9379	60024.38	3.2210	3.2211	0.1070	25.44	1.04	0.050			
0.9380	60031.35	3.2200	3.2201	0.1063	25.43	1.03	0.050			
0.9381	60038.13	3.2190	3.2189	0.1058	25.43	1.03	0.050			
0.9382	60044.89	3.2180	3.2178	0.1054	25.42	1.02	0.050			
0.9383	60051.65	3.2170	3.2169	0.1050	25.41	1.01	0.050			
0.9384	60058.36	3.2160	3.2160	0.1046	25.40	1.00	0.050			
0.9385	60064.75	3.2150	3.2149	0.1047	25.40	1.00	0.050			
0.9386	60071.45	3.2140	3.2137	0.1045	25.39	0.99	0.050			
0.9387	60078.13	3.2130	3.2130	0.1042	25.38	0.98	0.050			
0.9388	60084.79	3.2120	3.2122	0.1040	25.37	0.97	0.050			
0.9389	60091.07	3.2110	3.2112	0.1033	25.37	0.97	0.050			
0.9390	60097.68	3.2100	3.2101	0.1033	25.36	0.96	0.050			
0.9391	60104.67	3.2090	3.2092	0.1024	25.35	0.95	0.050			
0.9392	60111.22	3.2080	3.2079	0.1021	25.34	0.94	0.050			
0.9393	60117.74	3.2070	3.2069	0.1018	25.34	0.94	0.050			
0.9394	60124.67	3.2060	3.2061	0.1025	25.33	0.93	0.050			
0.9396	60131.21	3.2050	3.2050	0.1019	25.32	0.92	0.050			
0.9397	60137.72	3.2040	3.2036	0.1014	25.31	0.91	0.050			
0.9398	60144.19	3.2030	3.2029	0.1008	25.31	0.91	0.050			
0.9399	60150.62	3.2020	3.2022	0.1002	25.30	0.90	0.050			
0.9400	60157.02	3.2010	3.2011	0.0997	25.29	0.89	0.050			
0.9401	60163.23	3.2000	3.2001	0.0988	25.29	0.89	0.050			
0.9401	60169.54	3.1990	3.1991	0.0983	25.28	0.88	0.050			
0.9402	60175.82	3.1980	3.1981	0.0979	25.27	0.87	0.050			
0.9403	60182.07	3.1970	3.1971	0.0974	25.26	0.86	0.050			
0.9404	60188.28	3.1960	3.1962	0.0969	25.26	0.86	0.050			
0.9405	60194.35	3.1950	3.1952	0.0977	25.25	0.85	0.050			
0.9406	60200.59	3.1940	3.1938	0.0973	25.24	0.84	0.050			
0.9407	60206.81	3.1930	3.1928	0.0969	25.24	0.84	0.050			
0.9408	60213.00	3.1920	3.1921	0.0966	25.23	0.83	0.050			
0.9409	60219.17	3.1910	3.1911	0.0962	25.22	0.82	0.050			
0.9410	60225.32	3.1900	3.1901	0.0959	25.22	0.82	0.050			
0.9411	60231.10	3.1890	3.1891	0.0947	25.21	0.81	0.050			
0.9412	60237.15	3.1880	3.1880	0.0945	25.20	0.80	0.050			
0.9413	60243.20	3.1870	3.1871	0.0944	25.20	0.80	0.050			
0.9414	60249.24	3.1860	3.1860	0.0943	25.19	0.79	0.050			
0.9415	60255.27	3.1850	3.1846	0.0941	25.18	0.78	0.050			
0.9416	60261.29	3.1840	3.1839	0.0940	25.17	0.77	0.050			
0.9417	60267.54	3.1830	3.1829	0.0930	25.17	0.77	0.050			
0.9418	60273.67	3.1820	3.1819	0.0933	25.16	0.76	0.050			
0.9419	60279.63	3.1810	3.1810	0.0928	25.15	0.75	0.050			
0.9420	60285.56	3.1800	3.1801	0.0924	25.15	0.75	0.050			
0.9421	60291.46	3.1790	3.1792	0.0920	25.14	0.74	0.050			
0.9421	60297.33	3.1780	3.1782	0.0916	25.13	0.73	0.050			
0.9422	60303.18	3.1770	3.1772	0.0911	25.13	0.73	0.050			
0.9423	60309.00	3.1760	3.1760	0.0907	25.12	0.72	0.050			
0.9424	60315.00	3.1750	3.1751	0.0910	25.11	0.71	0.050			
0.9425	60320.81	3.1740	3.1742	0.0905	25.11	0.71	0.050			
0.9426	60326.58	3.1730	3.1731	0.0900	25.10	0.70	0.050			
0.9427	60332.32	3.1720	3.1720	0.0894	25.09	0.69	0.050			
0.9428	60338.03	3.1710	3.1709	0.0889	25.09	0.69	0.050			
0.9429	60343.70	3.1700	3.1699	0.0884	25.08	0.68	0.050			
0.9430	60348.95	3.1690	3.1690	0.0876	25.08	0.68	0.050			
0.9430	60354.33	3.1680	3.1681	0.0877	25.07	0.67	0.050			
0.9431	60359.94	3.1670	3.1670	0.0876	25.06	0.66	0.050			
0.9432	60365.54	3.1660	3.1660	0.0874	25.06	0.66	0.050			
0.9433	60371.13	3.1650	3.1650	0.0873	25.05	0.65	0.050			
0.9434	60376.71	3.1640	3.1640	0.0871	25.04	0.64	0.050			
0.9435	60382.44	3.1630	3.1629	0.0864	25.04	0.64	0.050			
0.9436	60387.96	3.1620	3.1620	0.0861	25.03	0.63	0.050			
0.9436	60393.46	3.1610	3.1611	0.0859	25.03	0.63	0.050			
0.9437	60398.95	3.1600	3.1601	0.0857	25.02	0.62	0.050			
0.9438	60404.43	3.1590	3.1590	0.0854	25.01	0.61	0.050			
0.9439	60409.89	3.1580	3.1579	0.0852	25.01	0.61	0.050			
0.9440	60415.33	3.1570	3.1568	0.0850	25.00	0.60	0.050			
0.9441	60420.82	3.1560	3.1562	0.0844	25.00	0.60	0.050			
0.9442	60426.38	3.1550	3.1551	0.0846	24.99	0.59	0.050			
0.9442	60431.78	3.1540	3.1541	0.0842	24.98	0.58	0.050			
0.9443	60437.16	3.1530	3.1531	0.0838	24.98	0.58	0.050			
0.9444	60442.51	3.1520	3.1521	0.0834	24.97	0.57	0.050			
0.9445	60447.84	3.1510	3.1510	0.0830	24.96	0.56	0.050			
0.9446	60453.14	3.1500	3.1500	0.0827	24.96	0.56	0.050			
0.9447	60458.33	3.1490	3.1491	0.0826	24.95	0.55	0.050			
0.9447	60463.60	3.1480	3.1481	0.0823	24.95	0.55	0.050			
0.9448	60468.85	3.1470	3.1469	0.0820	24.94	0.54	0.050			
0.9449	60474.09	3.1460	3.1460	0.0817	24.93	0.53	0.050			
0.9450	60479.31	3.1450	3.1449	0.0813	24.93	0.53	0.050			
0.9451	60484.50	3.1440	3.1439	0.0810	24.92	0.52	0.050			
0.9451	60489.37	3.1430	3.1430	0.0803	24.91	0.51	0.050			
0.9452	60494.80	3.1420	3.1419	0.0798	24.91	0.51	0.050			
0.9453	60499.90	3.1410	3.1410	0.0795	24.90	0.50	0.050			
0.9454	60504.98	3.1400	3.1400	0.0792	24.89	0.49	0.050			
0.9455	60510.04	3.1390	3.1390	0.0789	24.89	0.49	0.050			
0.9455	60515.08	3.1380	3.1380	0.0786	24.88	0.48	0.050			
0.9456	60520.10	3.1370	3.1370	0.0783	24.87	0.47	0.050			
0.9457	60525.33	3.1360	3.1360	0.0783	24.87	0.47	0.050			
0.9458	60530.32	3.1350	3.1350	0.0778	24.86	0.46	0.050			
0.9459	60535.18	3.1340	3.1341	0.0776	24.86	0.46	0.050			
0.9459	60540.14	3.1330	3.1331	0.0772	24.85	0.45	0.050			
0.9460	60545.07	3.1320	3.1321	0.0769	24.85	0.45	0.050			
0.9461	60549.98	3.1310	3.1311	0.0765	24.85	0.45	0.050			
0.9462	60554.86	3.1300	3.1301	0.0761	24.84	0.44	0.050			
0.9462	60559.75	3.1290	3.1290	0.0758	24.84	0.44	0.050			
0.9463	60564.59	3.1280	3.1280	0.0754	24.83	0.43	0.050			
0.9464	60569.41	3.1270	3.1270	0.0751	24.83	0.43	0.050			
0.9465	60573.91	3.1260	3.1259	0.0753	24.82	0.42	0.050			
0.9465	60578.73	3.1250	3.1248	0.0751	24.82	0.42	0.050			
0.9466	60583.53	3.1240	3.1240	0.0750	24.81	0.41	0.050			
0.9467	60588.32	3.1230	3.1230	0.0748	24.81	0.41	0.050			
0.9468	60592.74	3.1220	3.1221	0.0740	24.80	0.40	0.050			
0.9468	60597.47	3.1210	3.1211	0.0740	24.80	0.40	0.050			
0.9469	60602.21	3.1200	3.1201	0.0740	24.79	0.39	0.050			
0.9470	60607.26	3.1190	3.1190	0.0734	24.79	0.39	0.050			
0.9471	60611.96	3.1180	3.1180	0.0732	24.78	0.38	0.050			
0.9471	60616.64	3.1170	3.1170	0.0731	24.78	0.38	0.050			
0.9472	60621.31	3.1160	3.1160	0.0729	24.77	0.37	0.050			
0.9473	60625.96	3.1150	3.1148	0.0727	24.76	0.36	0.050			
0.9474	60630.82	3.1140	3.1137	0.0728	24.76	0.36	0.050			
0.9474	60635.48	3.1130	3.1128	0.0725	24.75	0.35	0.050			
0.9475	60640.11	3.1120	3.1120	0.0723	24.75	0.35	0.050			
0.9476	60644.79	3.1110	3.1111	0.0718	24.74	0.34	0.050			
0.9476	60649.38	3.1100	3.1102	0.0715	24.74	0.34	0.050			
0.9477	60653.95	3.1090	3.1092	0.0712	24.73	0.33	0.050			
0.9478	60658.49	3.1080	3.1082	0.0709	24.73	0.33	0.050			
0.9479	60663.02	3.1070	3.1072	0.0705	24.72	0.32	0.050			
0.9479	60667.73	3.1060	3.1060	0.0705	24.72	0.32	0.050			
0.9480	60672.23	3.1050	3.1051	0.0701	24.71	0.31	0.050			
0.9481	60676.71	3.1040	3.1040	0.0697	24.71	0.31	0.050			
0.9481	60681.15	3.1030	3.1028	0.0692	24.70	0.30	0.050			
0.9482	60685.30	3.1020	3.1020	0.0694	24.70	0.30	0.050			
0.9483	60689.73	3.1010	3.1011	0.0692	24.69	0.29	0.050			
0.9483	60694.15	3.1000	3.1000	0.0689	24.69	0.29	0.050			
0.9484	60698.24	3.0990	3.0991	0.0680	24.68	0.28	0.050			
0.9485	60702.59	3.0980	3.0981	0.0678	24.68	0.28	0.050			
0.9485	60706.92	3.0970	3.0971	0.0677	24.67	0.27	0.050			
0.9486	60711.25	3.0960	3.0960	0.0676	24.67	0.27	0.050			
0.9487	60715.57	3.0950	3.0950	0.0675	24.66	0.26	0.050			
0.9487	60719.89	3.0940	3.0939	0.0673	24.66	0.26	0.050			
0.9488	60724.40	3.0930	3.0929	0.0666	24.65	0.25	0.050			
0.9489	60728.66	3.0920	3.0919	0.0664	24.65	0.25	0.050			
0.9490	60732.99	3.0910	3.0908	0.0663	24.64	0.24	0.050			
0.9490	60737.22	3.0900	3.0898	0.0661	24.64	0.24	0.050			
0.9491	60741.44	3.0890	3.0890	0.0658	24.63	0.23	0.050			
0.9492	60745.64	3.0880	3.0881	0.0655	24.63	0.23	0.050			
0.9492	60749.82	3.0870	3.0870	0.0652	24.62	0.22	0.050			
0.9493	60753.98	3.0860	3.0861	0.0649	24.62	0.22	0.050			
0.9493	60758.07	3.0850	3.0852	0.0648	24.61	0.21	0.050			
0.9494	60762.20	3.0840	3.0842	0.0645	24.61	0.21	0.050			
0.9495	60766.32	3.0830	3.0832	0.0642	24.60	0.20	0.050			
0.9495	60770.51	3.0820	3.0821	0.0642	24.60	0.20	0.050			
0.9496	60774.61	3.0810	3.0811	0.0639	24.59	0.19	0.050			
0.9497	60778.69	3.0800	3.0801	0.0636	24.58	0.18	0.050			
0.9497	60782.75	3.0790	3.0790	0.0633	24.58	0.18	0.050			
0.9498	60786.79	3.0780	3.0778	0.0630	24.57	0.17	0.050			
0.9499	60790.81	3.0770	3.0767	0.0627	24.57	0.17	0.050			
0.9499	60794.81	3.0760	3.0758	0.0624	24.57	0.17	0.050			
0.9500	60798.66	3.0750	3.0750	0.0625	24.56	0.16	0.050			
0.9500	60802.66	3.0740	3.0740	0.0623	24.56	0.16	0.050			
0.9501	60806.36	3.0730	3.0731	0.0615	24.55	0.15	0.050			
0.9502	60810.29	3.0720	3.0721	0.0614	24.55	0.15	0.050			
0.9502	60814.22	3.0710	3.0710	0.0614	24.55	0.15	0.050			
0.9503	60818.15	3.0700	3.0700	0.0613	24.54	0.14	0.050			
0.9503	60822.06	3.0690	3.0690	0.0612	24.54	0.14	0.050			
0.9504	60825.98	3.0680	3.0680	0.0611	24.54	0.14	0.050			
0.9505	60830.10	3.0670	3.0670	0.0604	24.53	0.13	0.050			
0.9505	60833.96	3.0660	3.0661	0.0602	24.53	0.13	0.050			
0.9506	60837.96	3.0650	3.0651	0.0605	24.53	0.13	0.050			
0.9507	60841.82	3.0640	3.0639	0.0602	24.52	0.12	0.050			
0.9507	60845.67	3.0630	3.0630	0.0599	24.52	0.12	0.050			
0.9508	60849.49	3.0620	3.0620	0.0596	24.51	0.11	0.050			
0.9508	60853.30	3.0610	3.0611	0.0594	24.51	0.11	0.050			
0.9509	60857.09	3.0600	3.0601	0.0591	24.50	0.10	0.050			
0.9510	60860.86	3.0590	3.0592	0.0588	24.50	0.10	0.050			
0.9510	60864.61	3.0580	3.0581	0.0585	24.50	0.10	0.050			
0.9511	60868.76	3.0570	3.0569	0.0572	24.49	0.09	0.050			
0.9511	60872.40	3.0560	3.0560	0.0567	24.49	0.09	0.050			
0.9512	60876.28	3.0550	3.0549	0.0572	24.48	0.08	0.050			
0.9512	60879.92	3.0540	3.0539	0.0567	24.48	0.08	0.050			
0.9513	60883.53	3.0530	3.0529	0.0561	24.47	0.07	0.050			
0.9514	60887.10	3.0520	3.0519	0.0555	24.47	0.07	0.050			
0.9514	60890.63	3.0510	3.0509	0.0549	24.47	0.07	0.050			
0.9515	60894.12	3.0500	3.0499	0.0543	24.46	0.06	0.050			
0.9515	60897.58	3.0490	3.0489	0.0537	24.46	0.06	0.050			
0.9516	60900.99	3.0480	3.0481	0.0531	24.46	0.06	0.050			
0.9516	60904.61	3.0470	3.0471	0.0529	24.45	0.05	0.050			
0.9517	60907.97	3.0460	3.0461	0.0522	24.45	0.05	0.050			
0.9517	60911.29	3.0450	3.0452	0.0515	24.44	0.04	0.050			
0.9518	60914.57	3.0440	3.0442	0.0508	24.44	0.04	0.050			
0.9518	60917.80	3.0430	3.0433	0.0502	24.44	0.04	0.050			
0.9519	60920.99	3.0420	3.0423	0.0495	24.43	0.03	0.050			
0.9519	60924.13	3.0410	3.0414	0.0488	24.43	0.03	0.050			
0.9520	60927.24	3.0400	3.0405	0.0481	24.43	0.03	0.050			
0.9520	60930.29	3.0390	3.0395	0.0474	24.42	0.02	0.050			
0.9521	60933.31	3.0380	3.0385	0.0467	24.42	0.02	0.050			
0.9521	60936.28	3.0370	3.0376	0.0461	24.42	0.02	0.050			
0.9522	60939.20	3.0360	3.0367	0.0454	24.41	0.01	0.050			
0.9522	60942.08	3.0350	3.0357	0.0447	24.41	0.01	0.050			
0.9523	60944.92	3.0340	3.0348	0.0440	24.41	0.01	0.050			
0.9523	60947.72	3.0330	3.0336	0.0433	24.40	0.00	0.050			
0.9524	60950.47	3.0320	3.0324	0.0426	24.40	-0.00	0.050			
