Ah_balance (normalized)	Ah_balance (mAh)	Voltage - fit (V)	Voltage -  interpolate (V)	dQ/dV (1/V)	Temperature (°C)	Temperature - diff (°C)	Current (C)	R_DC 0ms (mOhm)	R_DC 50ms (mOhm)	R_DC 50 ms PEC (mOhm)
0.0000	3.04	4.1870	4.1872	-0.4068	25.99	0.01	-0.050			
0.0005	29.93	4.1860	4.1857	-0.4358	25.89	-0.09	-0.050			
0.0009	59.24	4.1850	4.1844	-0.4739	25.77	-0.21	-0.050			
0.0014	90.62	4.1840	4.1838	-0.4986	25.66	-0.32	-0.050			
0.0019	124.14	4.1830	4.1828	-0.5229	25.55	-0.43	-0.050			
0.0025	159.41	4.1820	4.1819	-0.5435	25.42	-0.56	-0.050			
0.0030	194.94	4.1810	4.1810	-0.5593	25.30	-0.68	-0.050			
0.0036	232.10	4.1800	4.1799	-0.5743	25.18	-0.80	-0.050			
0.0042	269.05	4.1790	4.1790	-0.5883	25.06	-0.92	-0.050			
0.0048	307.64	4.1780	4.1781	-0.6015	24.94	-1.04	-0.050			
0.0054	347.24	4.1770	4.1769	-0.6131	24.84	-1.14	-0.050			
0.0060	387.17	4.1760	4.1761	-0.6245	24.74	-1.24	-0.050			
0.0067	430.30	4.1750	4.1748	-0.6404	24.64	-1.34	-0.050			
0.0074	471.84	4.1740	4.1739	-0.6478	24.56	-1.42	-0.050			
0.0080	514.25	4.1730	4.1728	-0.6536	24.49	-1.49	-0.050			
0.0087	557.16	4.1720	4.1720	-0.6589	24.42	-1.56	-0.050			
0.0094	599.13	4.1710	4.1710	-0.6659	24.35	-1.63	-0.050			
0.0100	642.49	4.1700	4.1700	-0.6718	24.30	-1.68	-0.050			
0.0107	685.94	4.1690	4.1689	-0.6789	24.26	-1.72	-0.050			
0.0114	730.12	4.1680	4.1683	-0.6831	24.22	-1.76	-0.050			
0.0121	774.41	4.1670	4.1668	-0.6886	24.19	-1.79	-0.050			
0.0128	819.14	4.1660	4.1659	-0.6911	24.17	-1.81	-0.050			
0.0135	863.99	4.1650	4.1653	-0.6930	24.17	-1.81	-0.050			
0.0142	908.41	4.1640	4.1639	-0.6994	24.15	-1.83	-0.050			
0.0149	952.68	4.1630	4.1628	-0.7040	24.16	-1.82	-0.050			
0.0156	997.04	4.1620	4.1619	-0.7097	24.17	-1.81	-0.050			
0.0163	1042.93	4.1610	4.1611	-0.7128	24.18	-1.80	-0.050			
0.0170	1088.12	4.1600	4.1601	-0.7172	24.20	-1.78	-0.050			
0.0177	1134.42	4.1590	4.1591	-0.7211	24.24	-1.74	-0.050			
0.0184	1180.26	4.1580	4.1580	-0.7248	24.27	-1.71	-0.050			
0.0192	1227.28	4.1570	4.1570	-0.7303	24.31	-1.67	-0.050			
0.0199	1274.27	4.1560	4.1560	-0.7348	24.35	-1.63	-0.050	0.123	0.581	
0.0206	1321.16	4.1550	4.1548	-0.7398	24.40	-1.58	-0.050			
0.0214	1369.89	4.1540	4.1541	-0.7416	24.45	-1.53	-0.050			
0.0222	1418.38	4.1530	4.1530	-0.7439	24.51	-1.47	-0.050			
0.0229	1466.47	4.1520	4.1520	-0.7469	24.56	-1.42	-0.050			
0.0237	1513.65	4.1510	4.1512	-0.7495	24.62	-1.36	-0.050			
0.0244	1562.19	4.1500	4.1498	-0.7513	24.67	-1.31	-0.050			
0.0252	1611.18	4.1490	4.1491	-0.7546	24.74	-1.24	-0.050			
0.0259	1659.21	4.1480	4.1478	-0.7578	24.80	-1.18	-0.050			
0.0267	1708.45	4.1470	4.1470	-0.7606	24.86	-1.12	-0.050			
0.0275	1757.29	4.1460	4.1460	-0.7611	24.91	-1.07	-0.050			
0.0282	1806.37	4.1450	4.1452	-0.7627	24.98	-1.00	-0.050			
0.0290	1854.15	4.1440	4.1439	-0.7609	25.04	-0.94	-0.050			
0.0297	1902.72	4.1430	4.1427	-0.7609	25.09	-0.89	-0.050			
0.0305	1952.23	4.1420	4.1420	-0.7603	25.14	-0.84	-0.050			
0.0313	2001.01	4.1410	4.1412	-0.7632	25.20	-0.78	-0.050			
0.0320	2049.40	4.1400	4.1400	-0.7672	25.25	-0.73	-0.050			
0.0328	2098.36	4.1390	4.1389	-0.7666	25.30	-0.68	-0.050			
0.0336	2147.44	4.1380	4.1381	-0.7697	25.36	-0.62	-0.050			
0.0343	2195.96	4.1370	4.1370	-0.7727	25.40	-0.58	-0.050			
0.0351	2245.69	4.1360	4.1360	-0.7735	25.45	-0.53	-0.050			
0.0359	2295.69	4.1350	4.1351	-0.7733	25.51	-0.47	-0.050			
0.0366	2345.56	4.1340	4.1341	-0.7757	25.56	-0.42	-0.050			
0.0374	2396.11	4.1330	4.1329	-0.7782	25.63	-0.35	-0.050			
0.0382	2445.78	4.1320	4.1316	-0.7761	25.68	-0.30	-0.050			
0.0390	2495.07	4.1310	4.1308	-0.7748	25.72	-0.26	-0.050			
0.0398	2545.80	4.1300	4.1300	-0.7741	25.77	-0.21	-0.050	0.334	0.452	
0.0406	2595.37	4.1290	4.1290	-0.7761	25.83	-0.15	-0.050			
0.0413	2643.70	4.1280	4.1280	-0.7784	25.88	-0.10	-0.050			
0.0421	2693.98	4.1270	4.1271	-0.7799	25.93	-0.05	-0.050			
0.0429	2744.01	4.1260	4.1260	-0.7822	25.99	0.01	-0.050			
0.0437	2793.61	4.1250	4.1247	-0.7854	26.05	0.07	-0.050			
0.0444	2843.58	4.1240	4.1240	-0.7877	26.10	0.12	-0.050			
0.0452	2894.01	4.1230	4.1230	-0.7899	26.16	0.18	-0.050			
0.0460	2944.74	4.1220	4.1218	-0.7900	26.23	0.25	-0.050			
0.0468	2994.92	4.1210	4.1208	-0.7904	26.28	0.30	-0.050			
0.0476	3044.59	4.1200	4.1197	-0.7926	26.34	0.36	-0.050			
0.0484	3096.21	4.1190	4.1188	-0.7953	26.41	0.43	-0.050			
0.0492	3147.04	4.1180	4.1181	-0.7983	26.46	0.48	-0.050			
0.0500	3198.16	4.1170	4.1172	-0.7991	26.52	0.54	-0.050			
0.0508	3250.15	4.1160	4.1159	-0.8010	26.58	0.60	-0.050			
0.0516	3303.57	4.1150	4.1152	-0.8014	26.64	0.66	-0.050			
0.0524	3355.16	4.1140	4.1140	-0.8015	26.70	0.72	-0.050			
0.0532	3405.75	4.1130	4.1129	-0.8036	26.76	0.78	-0.050			
0.0540	3457.82	4.1120	4.1120	-0.8065	26.82	0.84	-0.050			
0.0548	3509.87	4.1110	4.1107	-0.8066	26.89	0.91	-0.050			
0.0556	3561.11	4.1100	4.1103	-0.8065	26.94	0.96	-0.050			
0.0564	3611.85	4.1090	4.1090	-0.8039	27.00	1.02	-0.050			
0.0572	3663.34	4.1080	4.1080	-0.8022	27.07	1.09	-0.050			
0.0581	3715.42	4.1070	4.1071	-0.8026	27.13	1.15	-0.050			
0.0589	3766.59	4.1060	4.1061	-0.8033	27.20	1.22	-0.050			
0.0596	3817.23	4.1050	4.1047	-0.8032	27.26	1.28	-0.050	0.259	0.467	
0.0605	3869.14	4.1040	4.1040	-0.8026	27.32	1.34	-0.050			
0.0613	3921.01	4.1030	4.1031	-0.8031	27.37	1.39	-0.050			
0.0621	3972.31	4.1020	4.1020	-0.8023	27.43	1.45	-0.050			
0.0629	4023.40	4.1010	4.1011	-0.8032	27.49	1.51	-0.050			
0.0637	4074.44	4.1000	4.1001	-0.8003	27.51	1.53	-0.050			
0.0645	4126.65	4.0990	4.0990	-0.8016	27.46	1.48	-0.050			
0.0653	4178.21	4.0980	4.0981	-0.8008	27.39	1.41	-0.050			
0.0661	4229.79	4.0970	4.0970	-0.7995	27.30	1.32	-0.050			
0.0669	4280.94	4.0960	4.0960	-0.7998	27.17	1.19	-0.050			
0.0677	4332.77	4.0950	4.0950	-0.7981	27.01	1.03	-0.050			
0.0685	4383.90	4.0940	4.0940	-0.7953	26.86	0.88	-0.050			
0.0693	4433.31	4.0930	4.0932	-0.7914	26.70	0.72	-0.050			
0.0701	4483.75	4.0920	4.0920	-0.7915	26.54	0.56	-0.050			
0.0709	4534.61	4.0910	4.0911	-0.7915	26.35	0.37	-0.050			
0.0716	4584.69	4.0900	4.0899	-0.7931	26.18	0.20	-0.050			
0.0724	4635.05	4.0890	4.0893	-0.7944	26.00	0.02	-0.050			
0.0732	4685.12	4.0880	4.0879	-0.7983	25.83	-0.15	-0.050			
0.0740	4736.74	4.0870	4.0870	-0.7980	25.66	-0.32	-0.050			
0.0748	4787.42	4.0860	4.0864	-0.7958	25.49	-0.49	-0.050			
0.0756	4838.46	4.0850	4.0850	-0.7953	25.33	-0.65	-0.050			
0.0764	4890.07	4.0840	4.0840	-0.7946	25.18	-0.80	-0.050			
0.0772	4940.46	4.0830	4.0829	-0.8005	25.05	-0.93	-0.050			
0.0780	4991.00	4.0820	4.0822	-0.8015	24.92	-1.06	-0.050			
0.0788	5042.62	4.0810	4.0807	-0.8026	24.80	-1.18	-0.050			
0.0796	5093.77	4.0800	4.0801	-0.8052	24.70	-1.28	-0.050			
0.0804	5145.95	4.0790	4.0790	-0.8070	24.61	-1.37	-0.050	0.521	0.622	
0.0812	5199.16	4.0780	4.0783	-0.8086	24.52	-1.46	-0.050			
0.0820	5250.35	4.0770	4.0770	-0.8101	24.45	-1.53	-0.050			
0.0828	5301.93	4.0760	4.0759	-0.8121	24.39	-1.59	-0.050			
0.0837	5354.31	4.0750	4.0749	-0.8156	24.35	-1.63	-0.050			
0.0845	5406.42	4.0740	4.0738	-0.8174	24.30	-1.68	-0.050			
0.0853	5458.42	4.0730	4.0733	-0.8176	24.26	-1.72	-0.050			
0.0861	5510.26	4.0720	4.0719	-0.8183	24.24	-1.74	-0.050			
0.0869	5562.43	4.0710	4.0709	-0.8205	24.24	-1.74	-0.050			
0.0877	5614.54	4.0700	4.0702	-0.8211	24.24	-1.74	-0.050			
0.0885	5667.17	4.0690	4.0689	-0.8218	24.25	-1.73	-0.050			
0.0894	5719.87	4.0680	4.0680	-0.8264	24.27	-1.71	-0.050			
0.0902	5773.66	4.0670	4.0670	-0.8309	24.30	-1.68	-0.050			
0.0910	5826.57	4.0660	4.0662	-0.8382	24.33	-1.65	-0.050			
0.0919	5880.30	4.0650	4.0649	-0.8392	24.37	-1.61	-0.050			
0.0927	5934.01	4.0640	4.0640	-0.8401	24.42	-1.56	-0.050			
0.0936	5987.21	4.0630	4.0630	-0.8378	24.47	-1.51	-0.050			
0.0944	6042.08	4.0620	4.0620	-0.8408	24.53	-1.45	-0.050			
0.0953	6096.94	4.0610	4.0611	-0.8426	24.58	-1.40	-0.050			
0.0961	6151.22	4.0600	4.0599	-0.8430	24.65	-1.33	-0.050			
0.0969	6204.28	4.0590	4.0590	-0.8462	24.71	-1.27	-0.050			
0.0978	6258.95	4.0580	4.0581	-0.8480	24.77	-1.21	-0.050			
0.0986	6313.44	4.0570	4.0572	-0.8490	24.84	-1.14	-0.050			
0.0995	6367.54	4.0560	4.0560	-0.8478	24.90	-1.08	-0.050			
0.1004	6422.77	4.0550	4.0552	-0.8484	24.96	-1.02	-0.050	0.443	0.513	
0.1012	6477.19	4.0540	4.0540	-0.8467	25.03	-0.95	-0.050			
0.1020	6531.17	4.0530	4.0531	-0.8486	25.09	-0.89	-0.050			
0.1029	6585.07	4.0520	4.0519	-0.8507	25.15	-0.83	-0.050			
0.1037	6638.96	4.0510	4.0510	-0.8512	25.21	-0.77	-0.050			
0.1046	6693.78	4.0500	4.0499	-0.8512	25.27	-0.71	-0.050			
0.1054	6748.01	4.0490	4.0492	-0.8515	25.32	-0.66	-0.050			
0.1063	6801.65	4.0480	4.0482	-0.8540	25.38	-0.60	-0.050			
0.1071	6855.79	4.0470	4.0470	-0.8547	25.44	-0.54	-0.050			
0.1080	6909.78	4.0460	4.0459	-0.8578	25.49	-0.49	-0.050			
0.1088	6965.05	4.0450	4.0450	-0.8600	25.55	-0.43	-0.050			
0.1097	7021.27	4.0440	4.0438	-0.8649	25.61	-0.37	-0.050			
0.1106	7076.19	4.0430	4.0431	-0.8679	25.67	-0.31	-0.050			
0.1115	7132.92	4.0420	4.0421	-0.8696	25.73	-0.25	-0.050			
0.1123	7188.71	4.0410	4.0411	-0.8682	25.79	-0.19	-0.050			
0.1132	7244.75	4.0400	4.0398	-0.8681	25.85	-0.13	-0.050			
0.1141	7300.43	4.0390	4.0390	-0.8656	25.91	-0.07	-0.050			
0.1150	7356.97	4.0380	4.0380	-0.8656	25.97	-0.01	-0.050			
0.1158	7412.50	4.0370	4.0370	-0.8694	26.03	0.05	-0.050			
0.1167	7468.42	4.0360	4.0362	-0.8694	26.10	0.12	-0.050			
0.1176	7524.34	4.0350	4.0349	-0.8708	26.17	0.19	-0.050			
0.1184	7579.71	4.0340	4.0338	-0.8700	26.22	0.24	-0.050			
0.1193	7633.94	4.0330	4.0331	-0.8699	26.29	0.31	-0.050			
0.1201	7689.38	4.0320	4.0322	-0.8733	26.36	0.38	-0.050	0.009	0.471	
0.1210	7745.01	4.0310	4.0309	-0.8730	26.43	0.45	-0.050			
0.1219	7801.25	4.0300	4.0298	-0.8755	26.48	0.50	-0.050			
0.1228	7857.25	4.0290	4.0287	-0.8735	26.55	0.57	-0.050			
0.1236	7912.22	4.0280	4.0277	-0.8739	26.62	0.64	-0.050			
0.1245	7967.97	4.0270	4.0271	-0.8763	26.69	0.71	-0.050			
0.1254	8024.29	4.0260	4.0260	-0.8770	26.75	0.77	-0.050			
0.1263	8081.21	4.0250	4.0252	-0.8785	26.82	0.84	-0.050			
0.1272	8137.86	4.0240	4.0239	-0.8811	26.88	0.90	-0.050			
0.1280	8193.63	4.0230	4.0231	-0.8852	26.95	0.97	-0.050			
0.1289	8250.39	4.0220	4.0220	-0.8887	27.01	1.03	-0.050			
0.1298	8308.56	4.0210	4.0210	-0.8928	27.08	1.10	-0.050			
0.1307	8365.91	4.0200	4.0201	-0.8930	27.15	1.17	-0.050			
0.1316	8423.20	4.0190	4.0187	-0.8933	27.20	1.22	-0.050			
0.1325	8480.99	4.0180	4.0179	-0.8936	27.27	1.29	-0.050			
0.1334	8537.60	4.0170	4.0172	-0.8898	27.35	1.37	-0.050			
0.1343	8594.69	4.0160	4.0159	-0.8908	27.40	1.42	-0.050			
0.1352	8651.71	4.0150	4.0149	-0.8917	27.47	1.49	-0.050			
0.1361	8709.03	4.0140	4.0139	-0.8939	27.53	1.55	-0.050			
0.1370	8766.03	4.0130	4.0133	-0.8913	27.59	1.61	-0.050			
0.1379	8822.96	4.0120	4.0122	-0.8927	27.64	1.66	-0.050			
0.1388	8880.50	4.0110	4.0111	-0.8928	27.69	1.71	-0.050			
0.1397	8938.39	4.0100	4.0102	-0.8941	27.74	1.76	-0.050			
0.1406	8995.42	4.0090	4.0089	-0.8938	27.79	1.81	-0.050	0.384	0.464	
0.1414	9052.06	4.0080	4.0081	-0.8938	27.85	1.87	-0.050			
0.1423	9109.03	4.0070	4.0068	-0.8948	27.89	1.91	-0.050			
0.1432	9166.63	4.0060	4.0062	-0.8952	27.95	1.97	-0.050			
0.1441	9224.03	4.0050	4.0051	-0.8945	27.99	2.01	-0.050			
0.1450	9281.30	4.0040	4.0039	-0.8932	28.05	2.07	-0.050			
0.1459	9337.85	4.0030	4.0028	-0.8896	28.09	2.11	-0.050			
0.1468	9396.19	4.0020	4.0020	-0.8889	28.14	2.16	-0.050			
0.1477	9454.55	4.0010	4.0011	-0.8864	28.15	2.17	-0.050			
0.1486	9512.13	4.0000	4.0000	-0.8821	28.09	2.11	-0.050			
0.1495	9568.91	3.9990	3.9989	-0.8799	27.97	1.99	-0.050			
0.1504	9625.29	3.9980	3.9982	-0.8770	27.82	1.84	-0.050			
0.1513	9681.50	3.9970	3.9970	-0.8728	27.64	1.66	-0.050			
0.1521	9736.58	3.9960	3.9958	-0.8682	27.43	1.45	-0.050			
0.1530	9790.67	3.9950	3.9951	-0.8682	27.20	1.22	-0.050			
0.1538	9846.34	3.9940	3.9939	-0.8645	26.94	0.96	-0.050			
0.1547	9900.56	3.9930	3.9929	-0.8649	26.70	0.72	-0.050			
0.1555	9954.34	3.9920	3.9921	-0.8642	26.43	0.45	-0.050			
0.1564	10009.58	3.9910	3.9908	-0.8616	26.16	0.18	-0.050			
0.1573	10064.15	3.9900	3.9900	-0.8600	25.89	-0.09	-0.050			
0.1581	10118.99	3.9890	3.9890	-0.8611	25.64	-0.34	-0.050			
0.1590	10173.29	3.9880	3.9881	-0.8614	25.39	-0.59	-0.050			
0.1598	10228.52	3.9870	3.9868	-0.8617	25.14	-0.84	-0.050			
0.1607	10283.44	3.9860	3.9859	-0.8640	24.91	-1.07	-0.050			
0.1616	10339.41	3.9850	3.9854	-0.8660	24.70	-1.28	-0.050			
0.1624	10394.66	3.9840	3.9842	-0.8711	24.50	-1.48	-0.050			
0.1633	10451.00	3.9830	3.9831	-0.8738	24.33	-1.65	-0.050			
0.1642	10507.11	3.9820	3.9821	-0.8787	24.16	-1.82	-0.050			
0.1651	10564.14	3.9810	3.9807	-0.8834	24.01	-1.97	-0.050			
0.1659	10620.70	3.9800	3.9800	-0.8854	23.89	-2.09	-0.050			
0.1668	10676.02	3.9790	3.9791	-0.8873	23.78	-2.20	-0.050			
0.1677	10732.55	3.9780	3.9780	-0.8911	23.70	-2.28	-0.050			
0.1686	10789.58	3.9770	3.9771	-0.8950	23.62	-2.36	-0.050			
0.1695	10847.08	3.9760	3.9759	-0.8967	23.57	-2.41	-0.050			
0.1704	10903.63	3.9750	3.9748	-0.8992	23.53	-2.45	-0.050			
0.1713	10961.69	3.9740	3.9740	-0.9025	23.51	-2.47	-0.050			
0.1722	11019.02	3.9730	3.9731	-0.9074	23.50	-2.48	-0.050			
0.1731	11077.54	3.9720	3.9719	-0.9127	23.52	-2.46	-0.050			
0.1740	11136.35	3.9710	3.9713	-0.9173	23.55	-2.43	-0.050			
0.1749	11196.66	3.9700	3.9696	-0.9209	23.58	-2.40	-0.050			
0.1759	11256.11	3.9690	3.9691	-0.9231	23.65	-2.33	-0.050			
0.1768	11315.43	3.9680	3.9681	-0.9249	23.71	-2.27	-0.050			
0.1777	11375.40	3.9670	3.9670	-0.9273	23.79	-2.19	-0.050			
0.1787	11435.25	3.9660	3.9659	-0.9297	23.87	-2.11	-0.050			
0.1796	11494.67	3.9650	3.9650	-0.9286	23.96	-2.02	-0.050			
0.1805	11553.63	3.9640	3.9638	-0.9299	24.05	-1.93	-0.050	0.317	0.448	
0.1814	11612.71	3.9630	3.9632	-0.9352	24.15	-1.83	-0.050			
0.1824	11673.07	3.9620	3.9621	-0.9380	24.26	-1.72	-0.050			
0.1833	11732.13	3.9610	3.9610	-0.9404	24.37	-1.61	-0.050			
0.1843	11792.73	3.9600	3.9599	-0.9438	24.45	-1.53	-0.050			
0.1852	11852.42	3.9590	3.9590	-0.9442	24.56	-1.42	-0.050			
0.1862	11914.11	3.9580	3.9580	-0.9457	24.66	-1.32	-0.050			
0.1871	11974.67	3.9570	3.9570	-0.9479	24.75	-1.23	-0.050			
0.1881	12035.25	3.9560	3.9559	-0.9523	24.83	-1.15	-0.050			
0.1890	12095.67	3.9550	3.9549	-0.9549	24.92	-1.06	-0.050			
0.1900	12158.44	3.9540	3.9540	-0.9527	25.01	-0.97	-0.050			
0.1909	12219.31	3.9530	3.9531	-0.9522	25.09	-0.89	-0.050			
0.1919	12281.05	3.9520	3.9519	-0.9532	25.18	-0.80	-0.050			
0.1929	12342.70	3.9510	3.9510	-0.9562	25.27	-0.71	-0.050			
0.1938	12404.06	3.9500	3.9503	-0.9574	25.35	-0.63	-0.050			
0.1948	12464.83	3.9490	3.9489	-0.9616	25.43	-0.55	-0.050			
0.1957	12525.99	3.9480	3.9480	-0.9625	25.50	-0.48	-0.050			
0.1967	12587.21	3.9470	3.9469	-0.9659	25.59	-0.39	-0.050			
0.1977	12649.80	3.9460	3.9461	-0.9653	25.67	-0.31	-0.050			
0.1986	12711.61	3.9450	3.9455	-0.9641	25.75	-0.23	-0.050			
0.1996	12772.36	3.9440	3.9439	-0.9654	25.82	-0.16	-0.050			
0.2005	12834.01	3.9430	3.9429	-0.9643	25.90	-0.08	-0.050			
0.2015	12896.42	3.9420	3.9418	-0.9652	25.97	-0.01	-0.050			
0.2025	12957.73	3.9410	3.9410	-0.9681	26.07	0.09	-0.050			
0.2034	13020.05	3.9400	3.9398	-0.9681	26.14	0.16	-0.050			
0.2044	13082.42	3.9390	3.9394	-0.9712	26.21	0.23	-0.050			
0.2054	13145.32	3.9380	3.9380	-0.9719	26.30	0.32	-0.050			
0.2064	13208.30	3.9370	3.9371	-0.9705	26.38	0.40	-0.050			
0.2073	13269.32	3.9360	3.9361	-0.9715	26.46	0.48	-0.050			
0.2083	13331.84	3.9350	3.9347	-0.9729	26.54	0.56	-0.050			
0.2093	13396.43	3.9340	3.9341	-0.9745	26.62	0.64	-0.050			
0.2103	13458.96	3.9330	3.9327	-0.9729	26.70	0.72	-0.050			
0.2112	13519.28	3.9320	3.9318	-0.9718	26.77	0.79	-0.050			
0.2122	13580.19	3.9310	3.9312	-0.9704	26.85	0.87	-0.050			
0.2132	13641.68	3.9300	3.9299	-0.9725	26.93	0.95	-0.050			
0.2141	13703.42	3.9290	3.9290	-0.9708	27.00	1.02	-0.050			
0.2151	13766.55	3.9280	3.9277	-0.9723	27.08	1.10	-0.050			
0.2161	13829.69	3.9270	3.9268	-0.9701	27.15	1.17	-0.050			
0.2171	13893.28	3.9260	3.9262	-0.9706	27.23	1.25	-0.050			
0.2181	13955.88	3.9250	3.9250	-0.9694	27.31	1.33	-0.050			
0.2190	14016.90	3.9240	3.9239	-0.9658	27.38	1.40	-0.050			
0.2200	14079.87	3.9230	3.9231	-0.9646	27.44	1.46	-0.050			
0.2210	14141.83	3.9220	3.9220	-0.9626	27.40	1.42	-0.050			
0.2219	14203.11	3.9210	3.9212	-0.9575	27.30	1.32	-0.050			
0.2229	14264.86	3.9200	3.9202	-0.9581	27.17	1.19	-0.050			
0.2238	14325.90	3.9190	3.9191	-0.9534	27.02	1.04	-0.050			
0.2248	14387.94	3.9180	3.9179	-0.9500	26.84	0.86	-0.050			
0.2257	14447.63	3.9170	3.9170	-0.9473	26.66	0.68	-0.050			
0.2267	14507.65	3.9160	3.9160	-0.9432	26.47	0.49	-0.050			
0.2276	14568.21	3.9150	3.9150	-0.9422	26.27	0.29	-0.050			
0.2286	14627.89	3.9140	3.9139	-0.9418	26.06	0.08	-0.050			
0.2295	14686.95	3.9130	3.9129	-0.9380	25.87	-0.11	-0.050			
0.2304	14745.56	3.9120	3.9120	-0.9341	25.68	-0.30	-0.050			
0.2313	14805.25	3.9110	3.9110	-0.9340	25.50	-0.48	-0.050			
0.2323	14865.25	3.9100	3.9102	-0.9348	25.31	-0.67	-0.050			
0.2332	14925.59	3.9090	3.9092	-0.9382	25.14	-0.84	-0.050			
0.2342	14985.80	3.9080	3.9077	-0.9401	24.99	-0.99	-0.050			
0.2351	15045.25	3.9070	3.9072	-0.9427	24.86	-1.12	-0.050			
0.2360	15105.05	3.9060	3.9061	-0.9435	24.75	-1.23	-0.050			
0.2370	15164.88	3.9050	3.9050	-0.9456	24.65	-1.33	-0.050			
0.2379	15225.49	3.9040	3.9043	-0.9487	24.56	-1.42	-0.050			
0.2389	15286.58	3.9030	3.9031	-0.9516	24.49	-1.49	-0.050			
0.2398	15348.47	3.9020	3.9019	-0.9525	24.44	-1.54	-0.050	0.315	0.570	
0.2408	15409.51	3.9010	3.9011	-0.9536	24.39	-1.59	-0.050			
0.2417	15469.55	3.9000	3.8997	-0.9585	24.35	-1.63	-0.050			
0.2427	15531.78	3.8990	3.8989	-0.9619	24.34	-1.64	-0.050			
0.2437	15593.82	3.8980	3.8980	-0.9643	24.33	-1.65	-0.050			
0.2446	15654.67	3.8970	3.8972	-0.9661	24.32	-1.66	-0.050			
0.2456	15716.99	3.8960	3.8960	-0.9706	24.34	-1.64	-0.050			
0.2465	15779.12	3.8950	3.8953	-0.9734	24.37	-1.61	-0.050			
0.2475	15841.45	3.8940	3.8939	-0.9749	24.40	-1.58	-0.050			
0.2485	15904.44	3.8930	3.8930	-0.9794	24.44	-1.54	-0.050			
0.2495	15967.32	3.8920	3.8920	-0.9808	24.48	-1.50	-0.050			
0.2505	16029.71	3.8910	3.8910	-0.9865	24.54	-1.44	-0.050			
0.2515	16092.92	3.8900	3.8903	-0.9854	24.60	-1.38	-0.050			
0.2524	16156.59	3.8890	3.8892	-0.9861	24.66	-1.32	-0.050			
0.2534	16220.27	3.8880	3.8881	-0.9864	24.72	-1.26	-0.050			
0.2544	16283.33	3.8870	3.8871	-0.9895	24.78	-1.20	-0.050			
0.2554	16346.89	3.8860	3.8861	-0.9914	24.85	-1.13	-0.050			
0.2564	16410.95	3.8850	3.8849	-0.9911	24.92	-1.06	-0.050			
0.2574	16475.52	3.8840	3.8840	-0.9943	24.99	-0.99	-0.050			
0.2584	16538.66	3.8830	3.8831	-0.9948	25.06	-0.92	-0.050			
0.2594	16602.47	3.8820	3.8819	-0.9957	25.13	-0.85	-0.050			
0.2604	16665.87	3.8810	3.8811	-0.9945	25.20	-0.78	-0.050	0.231	0.378	
0.2614	16728.52	3.8800	3.8800	-0.9930	25.26	-0.72	-0.050			
0.2624	16792.38	3.8790	3.8792	-0.9972	25.34	-0.64	-0.050			
0.2634	16857.14	3.8780	3.8780	-0.9976	25.40	-0.58	-0.050			
0.2644	16920.56	3.8770	3.8769	-0.9935	25.48	-0.50	-0.050			
0.2654	16983.80	3.8760	3.8760	-0.9954	25.54	-0.44	-0.050			
0.2664	17047.39	3.8750	3.8749	-0.9988	25.61	-0.37	-0.050			
0.2674	17111.07	3.8740	3.8740	-0.9993	25.68	-0.30	-0.050			
0.2684	17175.14	3.8730	3.8732	-0.9987	25.75	-0.23	-0.050			
0.2694	17239.38	3.8720	3.8718	-0.9994	25.82	-0.16	-0.050			
0.2704	17302.42	3.8710	3.8709	-1.0013	25.89	-0.09	-0.050			
0.2714	17367.38	3.8700	3.8702	-1.0053	25.96	-0.02	-0.050			
0.2724	17432.88	3.8690	3.8691	-1.0070	26.04	0.06	-0.050			
0.2734	17496.53	3.8680	3.8680	-1.0071	26.11	0.13	-0.050			
0.2744	17560.62	3.8670	3.8667	-1.0073	26.19	0.21	-0.050			
0.2754	17624.93	3.8660	3.8660	-1.0104	26.27	0.29	-0.050			
0.2764	17689.91	3.8650	3.8651	-1.0140	26.35	0.37	-0.050			
0.2774	17754.87	3.8640	3.8640	-1.0138	26.43	0.45	-0.050			
0.2784	17819.82	3.8630	3.8627	-1.0148	26.50	0.52	-0.050			
0.2795	17885.33	3.8620	3.8622	-1.0161	26.58	0.60	-0.050			
0.2805	17949.87	3.8610	3.8610	-1.0175	26.66	0.68	-0.050			
0.2815	18015.43	3.8600	3.8601	-1.0196	26.74	0.76	-0.050			
0.2825	18081.21	3.8590	3.8589	-1.0200	26.82	0.84	-0.050			
0.2836	18147.72	3.8580	3.8580	-1.0196	26.89	0.91	-0.050			
0.2846	18214.01	3.8570	3.8569	-1.0172	26.97	0.99	-0.050			
0.2856	18278.85	3.8560	3.8561	-1.0117	27.04	1.06	-0.050			
0.2866	18343.83	3.8550	3.8550	-1.0113	27.13	1.15	-0.050			
0.2876	18409.54	3.8540	3.8539	-1.0103	27.19	1.21	-0.050			
0.2887	18474.38	3.8530	3.8532	-1.0080	27.27	1.29	-0.050			
0.2897	18538.35	3.8520	3.8520	-1.0049	27.35	1.37	-0.050			
0.2907	18603.16	3.8510	3.8509	-0.9980	27.42	1.44	-0.050			
0.2917	18666.87	3.8500	3.8503	-0.9932	27.49	1.51	-0.050			
0.2927	18730.97	3.8490	3.8490	-0.9910	27.55	1.57	-0.050			
0.2936	18793.09	3.8480	3.8479	-0.9871	27.58	1.60	-0.050			
0.2946	18856.62	3.8470	3.8469	-0.9834	27.53	1.55	-0.050			
0.2956	18920.27	3.8460	3.8459	-0.9727	27.42	1.44	-0.050			
0.2966	18982.46	3.8450	3.8450	-0.9678	27.27	1.29	-0.050			
0.2976	19044.35	3.8440	3.8442	-0.9646	27.10	1.12	-0.050			
0.2985	19105.49	3.8430	3.8429	-0.9578	26.90	0.92	-0.050			
0.2995	19166.53	3.8420	3.8421	-0.9558	26.68	0.70	-0.050			
0.3004	19226.90	3.8410	3.8409	-0.9483	26.47	0.49	-0.050	0.061	0.527	
0.3014	19286.83	3.8400	3.8399	-0.9479	26.24	0.26	-0.050			
0.3023	19348.41	3.8390	3.8391	-0.9452	26.02	0.04	-0.050			
0.3033	19408.35	3.8380	3.8381	-0.9428	25.80	-0.18	-0.050			
0.3042	19468.02	3.8370	3.8371	-0.9387	25.59	-0.39	-0.050			
0.3051	19527.44	3.8360	3.8360	-0.9364	25.40	-0.58	-0.050			
0.3060	19585.89	3.8350	3.8350	-0.9329	25.20	-0.78	-0.050			
0.3069	19644.69	3.8340	3.8340	-0.9336	25.02	-0.96	-0.050			
0.3079	19704.39	3.8330	3.8330	-0.9347	24.87	-1.11	-0.050			
0.3088	19763.40	3.8320	3.8322	-0.9347	24.72	-1.26	-0.050			
0.3097	19823.51	3.8310	3.8309	-0.9379	24.60	-1.38	-0.050			
0.3107	19883.06	3.8300	3.8300	-0.9388	24.49	-1.49	-0.050			
0.3116	19942.65	3.8290	3.8289	-0.9384	24.39	-1.59	-0.050			
0.3126	20003.69	3.8280	3.8281	-0.9390	24.32	-1.66	-0.050			
0.3135	20064.10	3.8270	3.8269	-0.9397	24.26	-1.72	-0.050			
0.3145	20126.79	3.8260	3.8257	-0.9426	24.21	-1.77	-0.050			
0.3154	20186.76	3.8250	3.8248	-0.9406	24.18	-1.80	-0.050			
0.3164	20247.33	3.8240	3.8240	-0.9360	24.15	-1.83	-0.050			
0.3173	20307.02	3.8230	3.8230	-0.9345	24.15	-1.83	-0.050			
0.3182	20366.71	3.8220	3.8220	-0.9358	24.16	-1.82	-0.050			
0.3192	20426.75	3.8210	3.8212	-0.9343	24.17	-1.81	-0.050			
0.3201	20487.03	3.8200	3.8200	-0.9319	24.20	-1.78	-0.050	0.220	0.528	
0.3210	20547.04	3.8190	3.8190	-0.9283	24.24	-1.74	-0.050			
0.3220	20607.48	3.8180	3.8179	-0.9247	24.28	-1.70	-0.050			
0.3229	20667.58	3.8170	3.8169	-0.9198	24.34	-1.64	-0.050			
0.3238	20726.03	3.8160	3.8161	-0.9144	24.40	-1.58	-0.050			
0.3248	20784.00	3.8150	3.8150	-0.9081	24.45	-1.53	-0.050			
0.3257	20842.26	3.8140	3.8137	-0.9020	24.51	-1.47	-0.050			
0.3266	20900.45	3.8130	3.8131	-0.8953	24.58	-1.40	-0.050			
0.3275	20957.90	3.8120	3.8122	-0.8883	24.64	-1.34	-0.050			
0.3284	21015.06	3.8110	3.8110	-0.8800	24.70	-1.28	-0.050			
0.3292	21071.80	3.8100	3.8101	-0.8733	24.77	-1.21	-0.050			
0.3301	21127.85	3.8090	3.8091	-0.8638	24.83	-1.15	-0.050			
0.3310	21184.15	3.8080	3.8080	-0.8547	24.91	-1.07	-0.050			
0.3319	21239.48	3.8070	3.8071	-0.8437	24.97	-1.01	-0.050			
0.3327	21293.73	3.8060	3.8061	-0.8306	25.03	-0.95	-0.050			
0.3335	21346.60	3.8050	3.8051	-0.8196	25.08	-0.90	-0.050			
0.3344	21398.57	3.8040	3.8041	-0.8063	25.13	-0.85	-0.050			
0.3351	21449.43	3.8030	3.8029	-0.7921	25.18	-0.80	-0.050			
0.3359	21499.22	3.8020	3.8018	-0.7791	25.24	-0.74	-0.050			
0.3367	21549.54	3.8010	3.8010	-0.7671	25.30	-0.68	-0.050			
0.3375	21598.83	3.8000	3.8002	-0.7549	25.35	-0.63	-0.050			
0.3382	21647.33	3.7990	3.7990	-0.7428	25.40	-0.58	-0.050			
0.3390	21694.01	3.7980	3.7978	-0.7298	25.45	-0.53	-0.050			
0.3397	21739.65	3.7970	3.7971	-0.7159	25.50	-0.48	-0.050			
0.3404	21784.54	3.7960	3.7960	-0.7026	25.55	-0.43	-0.050			
0.3411	21828.33	3.7950	3.7952	-0.6905	25.60	-0.38	-0.050			
0.3417	21871.45	3.7940	3.7942	-0.6806	25.64	-0.34	-0.050			
0.3424	21914.67	3.7930	3.7931	-0.6698	25.69	-0.29	-0.050			
0.3431	21957.03	3.7920	3.7919	-0.6589	25.73	-0.25	-0.050			
0.3437	21998.17	3.7910	3.7911	-0.6490	25.77	-0.21	-0.050			
0.3443	22038.36	3.7900	3.7900	-0.6389	25.82	-0.16	-0.050			
0.3450	22079.01	3.7890	3.7890	-0.6322	25.86	-0.12	-0.050			
0.3456	22118.82	3.7880	3.7880	-0.6253	25.91	-0.07	-0.050			
0.3462	22158.70	3.7870	3.7871	-0.6169	25.95	-0.03	-0.050			
0.3468	22197.48	3.7860	3.7860	-0.6097	26.00	0.02	-0.050			
0.3474	22234.88	3.7850	3.7851	-0.6008	26.04	0.06	-0.050			
0.3480	22273.29	3.7840	3.7840	-0.5950	26.08	0.10	-0.050			
0.3486	22311.35	3.7830	3.7832	-0.5896	26.13	0.15	-0.050			
0.3492	22348.58	3.7820	3.7820	-0.5862	26.18	0.20	-0.050			
0.3498	22385.78	3.7810	3.7812	-0.5809	26.22	0.24	-0.050			
0.3504	22422.99	3.7800	3.7800	-0.5774	26.26	0.28	-0.050			
0.3509	22459.31	3.7790	3.7789	-0.5728	26.30	0.32	-0.050			
0.3515	22495.18	3.7780	3.7781	-0.5691	26.35	0.37	-0.050			
0.3520	22530.53	3.7770	3.7770	-0.5664	26.39	0.41	-0.050			
0.3526	22566.31	3.7760	3.7761	-0.5649	26.43	0.45	-0.050			
0.3532	22601.91	3.7750	3.7750	-0.5628	26.47	0.49	-0.050			
0.3537	22636.86	3.7740	3.7741	-0.5620	26.51	0.53	-0.050			
0.3542	22671.94	3.7730	3.7727	-0.5630	26.56	0.58	-0.050			
0.3548	22708.23	3.7720	3.7722	-0.5639	26.60	0.62	-0.050			
0.3554	22744.46	3.7710	3.7709	-0.5654	26.65	0.67	-0.050			
0.3559	22780.03	3.7700	3.7699	-0.5657	26.69	0.71	-0.050			
0.3565	22815.90	3.7690	3.7691	-0.5674	26.73	0.75	-0.050			
0.3570	22850.68	3.7680	3.7679	-0.5743	26.76	0.78	-0.050			
0.3576	22886.81	3.7670	3.7671	-0.5798	26.81	0.83	-0.050			
0.3582	22923.67	3.7660	3.7662	-0.5863	26.85	0.87	-0.050			
0.3588	22960.25	3.7650	3.7650	-0.5920	26.89	0.91	-0.050			
0.3593	22997.81	3.7640	3.7640	-0.5992	26.94	0.96	-0.050			
0.3599	23036.64	3.7630	3.7630	-0.6069	26.99	1.01	-0.050			
0.3605	23074.69	3.7620	3.7619	-0.6142	27.03	1.05	-0.050	0.021	0.486	
0.3612	23113.74	3.7610	3.7606	-0.6258	27.07	1.09	-0.050			
0.3618	23154.15	3.7600	3.7598	-0.6357	27.11	1.13	-0.050			
0.3624	23194.45	3.7590	3.7590	-0.6464	27.16	1.18	-0.050			
0.3631	23235.48	3.7580	3.7580	-0.6579	27.22	1.24	-0.050			
0.3637	23278.13	3.7570	3.7572	-0.6672	27.27	1.29	-0.050			
0.3644	23321.42	3.7560	3.7560	-0.6772	27.31	1.33	-0.050			
0.3651	23365.99	3.7550	3.7549	-0.6869	27.36	1.38	-0.050			
0.3658	23410.99	3.7540	3.7542	-0.6961	27.42	1.44	-0.050			
0.3665	23456.09	3.7530	3.7529	-0.7048	27.47	1.49	-0.050			
0.3672	23501.98	3.7520	3.7520	-0.7150	27.51	1.53	-0.050			
0.3679	23547.81	3.7510	3.7512	-0.7241	27.52	1.54	-0.050			
0.3687	23595.14	3.7500	3.7500	-0.7359	27.48	1.50	-0.050			
0.3694	23642.71	3.7490	3.7489	-0.7432	27.41	1.43	-0.050			
0.3702	23690.29	3.7480	3.7484	-0.7490	27.30	1.32	-0.050			
0.3709	23737.28	3.7470	3.7469	-0.7599	27.18	1.20	-0.050			
0.3717	23786.32	3.7460	3.7461	-0.7707	27.04	1.06	-0.050			
0.3724	23835.94	3.7450	3.7449	-0.7801	26.90	0.92	-0.050			
0.3732	23885.48	3.7440	3.7441	-0.7911	26.72	0.74	-0.050			
0.3740	23935.71	3.7430	3.7431	-0.8037	26.56	0.58	-0.050			
0.3748	23987.00	3.7420	3.7419	-0.8152	26.38	0.40	-0.050			
0.3756	24038.41	3.7410	3.7410	-0.8244	26.18	0.20	-0.050			
0.3764	24091.15	3.7400	3.7401	-0.8388	26.00	0.02	-0.050			
0.3773	24145.30	3.7390	3.7390	-0.8516	25.81	-0.17	-0.050			
0.3781	24198.91	3.7380	3.7378	-0.8682	25.62	-0.36	-0.050			
0.3790	24254.94	3.7370	3.7373	-0.8850	25.44	-0.54	-0.050			
0.3799	24312.23	3.7360	3.7362	-0.9031	25.25	-0.73	-0.050			
0.3808	24370.52	3.7350	3.7348	-0.9187	25.08	-0.90	-0.050			
0.3817	24430.07	3.7340	3.7340	-0.9325	24.90	-1.08	-0.050			
0.3827	24490.74	3.7330	3.7331	-0.9485	24.76	-1.22	-0.050			
0.3836	24550.52	3.7320	3.7322	-0.9674	24.64	-1.34	-0.050			
0.3846	24612.51	3.7310	3.7310	-0.9860	24.52	-1.46	-0.050			
0.3856	24675.40	3.7300	3.7300	-1.0065	24.41	-1.57	-0.050			
0.3866	24741.16	3.7290	3.7289	-1.0253	24.32	-1.66	-0.050			
0.3876	24807.71	3.7280	3.7281	-1.0435	24.27	-1.71	-0.050			
0.3887	24874.43	3.7270	3.7271	-1.0595	24.21	-1.77	-0.050			
0.3897	24942.85	3.7260	3.7261	-1.0792	24.17	-1.81	-0.050			
0.3908	25013.53	3.7250	3.7251	-1.0969	24.15	-1.83	-0.050			
0.3919	25083.63	3.7240	3.7238	-1.1164	24.16	-1.82	-0.050			
0.3931	25155.49	3.7230	3.7228	-1.1357	24.17	-1.81	-0.050			
0.3942	25229.53	3.7220	3.7222	-1.1543	24.20	-1.78	-0.050			
0.3954	25303.52	3.7210	3.7211	-1.1751	24.24	-1.74	-0.050			
0.3965	25378.86	3.7200	3.7204	-1.1934	24.30	-1.68	-0.050			
0.3978	25456.02	3.7190	3.7189	-1.2135	24.37	-1.61	-0.050			
0.3990	25534.29	3.7180	3.7180	-1.2289	24.45	-1.53	-0.050			
0.4002	25613.49	3.7170	3.7171	-1.2513	24.53	-1.45	-0.050	0.402	0.431	
0.4015	25694.64	3.7160	3.7161	-1.2711	24.63	-1.35	-0.050			
0.4028	25776.54	3.7150	3.7151	-1.2907	24.73	-1.25	-0.050			
0.4041	25861.22	3.7140	3.7142	-1.3054	24.82	-1.16	-0.050			
0.4054	25945.04	3.7130	3.7131	-1.3221	24.91	-1.07	-0.050			
0.4067	26029.94	3.7120	3.7119	-1.3355	25.02	-0.96	-0.050			
0.4081	26117.06	3.7110	3.7111	-1.3515	25.11	-0.87	-0.050			
0.4094	26204.34	3.7100	3.7100	-1.3682	25.20	-0.78	-0.050			
0.4108	26294.11	3.7090	3.7091	-1.3837	25.31	-0.67	-0.050			
0.4122	26383.55	3.7080	3.7079	-1.3971	25.41	-0.57	-0.050			
0.4137	26474.04	3.7070	3.7071	-1.4091	25.51	-0.47	-0.050			
0.4151	26564.59	3.7060	3.7058	-1.4227	25.61	-0.37	-0.050			
0.4165	26656.35	3.7050	3.7053	-1.4359	25.72	-0.26	-0.050			
0.4179	26747.42	3.7040	3.7039	-1.4478	25.82	-0.16	-0.050			
0.4194	26839.90	3.7030	3.7030	-1.4638	25.93	-0.05	-0.050			
0.4208	26934.06	3.7020	3.7020	-1.4769	26.04	0.06	-0.050	-0.122	0.359	
0.4223	27027.66	3.7010	3.7011	-1.4925	26.15	0.17	-0.050			
0.4238	27122.77	3.7000	3.7000	-1.5096	26.27	0.29	-0.050			
0.4253	27220.22	3.6990	3.6989	-1.5236	26.39	0.41	-0.050			
0.4269	27320.07	3.6980	3.6981	-1.5326	26.51	0.53	-0.050			
0.4284	27419.22	3.6970	3.6967	-1.5396	26.63	0.65	-0.050			
0.4300	27521.38	3.6960	3.6960	-1.5457	26.76	0.78	-0.050			
0.4316	27623.39	3.6950	3.6949	-1.5482	26.88	0.90	-0.050			
0.4332	27725.33	3.6940	3.6938	-1.5513	27.00	1.02	-0.050			
0.4348	27826.31	3.6930	3.6932	-1.5502	27.12	1.14	-0.050			
0.4364	27927.54	3.6920	3.6920	-1.5489	27.24	1.26	-0.050			
0.4379	28027.48	3.6910	3.6911	-1.5480	27.33	1.35	-0.050			
0.4395	28127.57	3.6900	3.6904	-1.5443	27.27	1.29	-0.050			
0.4410	28226.93	3.6890	3.6893	-1.5419	27.09	1.11	-0.050	0.436	0.482	
0.4426	28324.54	3.6880	3.6880	-1.5380	26.84	0.86	-0.050			
0.4441	28422.09	3.6870	3.6871	-1.5351	26.54	0.56	-0.050			
0.4456	28517.05	3.6860	3.6858	-1.5342	26.23	0.25	-0.050			
0.4470	28610.76	3.6850	3.6851	-1.5372	25.93	-0.05	-0.050			
0.4485	28704.47	3.6840	3.6838	-1.5487	25.63	-0.35	-0.050			
0.4500	28798.75	3.6830	3.6831	-1.5591	25.35	-0.63	-0.050			
0.4515	28894.91	3.6820	3.6820	-1.5813	25.07	-0.91	-0.050			
0.4530	28990.54	3.6810	3.6812	-1.6063	24.85	-1.13	-0.050			
0.4545	29090.68	3.6800	3.6800	-1.6362	24.66	-1.32	-0.050			
0.4562	29197.18	3.6790	3.6791	-1.6688	24.48	-1.50	-0.050			
0.4579	29303.83	3.6780	3.6781	-1.7036	24.37	-1.61	-0.050			
0.4596	29412.97	3.6770	3.6769	-1.7421	24.29	-1.69	-0.050			
0.4613	29524.31	3.6760	3.6758	-1.7829	24.25	-1.73	-0.050			
0.4631	29638.89	3.6750	3.6750	-1.8259	24.25	-1.73	-0.050			
0.4650	29756.92	3.6740	3.6740	-1.8723	24.30	-1.68	-0.050			
0.4669	29880.45	3.6730	3.6729	-1.9054	24.38	-1.60	-0.050			
0.4688	30006.36	3.6720	3.6721	-1.9436	24.49	-1.49	-0.050			
0.4708	30133.06	3.6710	3.6710	-1.9807	24.61	-1.37	-0.050			
0.4728	30262.36	3.6700	3.6700	-2.0231	24.75	-1.23	-0.050			
0.4749	30393.98	3.6690	3.6688	-2.0623	24.88	-1.10	-0.050			
0.4770	30526.50	3.6680	3.6679	-2.1001	25.01	-0.97	-0.050			
0.4791	30663.79	3.6670	3.6670	-2.1323	25.16	-0.82	-0.050			
0.4813	30801.13	3.6660	3.6659	-2.1638	25.31	-0.67	-0.050	0.020	0.480	
0.4834	30939.10	3.6650	3.6653	-2.1964	25.45	-0.53	-0.050			
0.4856	31080.03	3.6640	3.6641	-2.2311	25.61	-0.37	-0.050			
0.4879	31225.76	3.6630	3.6628	-2.2621	25.77	-0.21	-0.050			
0.4902	31372.77	3.6620	3.6618	-2.2851	25.90	-0.08	-0.050			
0.4926	31523.27	3.6610	3.6608	-2.3107	26.08	0.10	-0.050			
0.4950	31678.69	3.6600	3.6601	-2.3260	26.23	0.25	-0.050			
0.4974	31830.41	3.6590	3.6589	-2.3372	26.40	0.42	-0.050			
0.4998	31984.26	3.6580	3.6578	-2.3354	26.57	0.59	-0.050			
0.5021	32136.93	3.6570	3.6570	-2.3387	26.73	0.75	-0.050			
0.5045	32290.96	3.6560	3.6559	-2.3399	26.88	0.90	-0.050			
0.5069	32442.48	3.6550	3.6550	-2.3394	27.03	1.05	-0.050			
0.5093	32595.36	3.6540	3.6541	-2.3434	27.16	1.18	-0.050			
0.5116	32744.63	3.6530	3.6532	-2.3486	27.03	1.05	-0.050			
0.5139	32889.98	3.6520	3.6522	-2.3515	26.73	0.75	-0.050			
0.5162	33035.50	3.6510	3.6511	-2.3557	26.35	0.37	-0.050			
0.5184	33179.90	3.6500	3.6501	-2.3731	25.94	-0.04	-0.050			
0.5207	33326.40	3.6490	3.6491	-2.3937	25.55	-0.43	-0.050	0.447	0.562	
0.5230	33474.67	3.6480	3.6479	-2.4269	25.18	-0.80	-0.050			
0.5254	33623.01	3.6470	3.6467	-2.4712	24.91	-1.07	-0.050			
0.5277	33772.90	3.6460	3.6460	-2.5240	24.72	-1.26	-0.050			
0.5301	33929.20	3.6450	3.6448	-2.5835	24.59	-1.39	-0.050			
0.5327	34093.63	3.6440	3.6439	-2.6457	24.53	-1.45	-0.050			
0.5354	34262.46	3.6430	3.6430	-2.7149	24.54	-1.44	-0.050			
0.5381	34436.55	3.6420	3.6418	-2.7926	24.63	-1.35	-0.050			
0.5409	34618.65	3.6410	3.6412	-2.8614	24.76	-1.22	-0.050	0.737	0.632	
0.5438	34805.65	3.6400	3.6400	-2.9348	24.91	-1.07	-0.050			
0.5468	34998.35	3.6390	3.6391	-3.0095	25.10	-0.88	-0.050			
0.5499	35196.64	3.6380	3.6381	-3.0821	25.28	-0.70	-0.050			
0.5531	35396.14	3.6370	3.6368	-3.1551	25.43	-0.55	-0.050			
0.5563	35601.77	3.6360	3.6360	-3.2142	25.63	-0.35	-0.050			
0.5595	35810.20	3.6350	3.6349	-3.2753	25.85	-0.13	-0.050	0.566	0.549	
0.5629	36025.44	3.6340	3.6339	-3.3064	26.08	0.10	-0.050			
0.5663	36243.89	3.6330	3.6330	-3.3204	26.35	0.37	-0.050			
0.5698	36470.39	3.6320	3.6316	-3.2901	26.62	0.64	-0.050			
0.5733	36688.08	3.6310	3.6309	-3.2613	26.87	0.89	-0.050			
0.5768	36912.17	3.6300	3.6302	-3.2284	27.14	1.16	-0.050			
0.5800	37122.73	3.6290	3.6293	-3.1810	27.37	1.39	-0.050	0.321	0.577	
0.5832	37324.10	3.6280	3.6280	-3.1078	27.59	1.61	-0.050			
0.5862	37516.59	3.6270	3.6272	-3.0346	27.46	1.48	-0.050			
0.5891	37703.49	3.6260	3.6262	-2.9529	26.92	0.94	-0.050			
0.5918	37876.88	3.6250	3.6250	-2.8939	26.26	0.28	-0.050			
0.5945	38049.91	3.6240	3.6240	-2.8479	25.58	-0.40	-0.050			
0.5972	38220.58	3.6230	3.6230	-2.8200	24.98	-1.00	-0.050			
0.5998	38388.61	3.6220	3.6218	-2.8009	24.52	-1.46	-0.050			
0.6025	38560.74	3.6210	3.6208	-2.8192	24.19	-1.79	-0.050			
0.6052	38734.77	3.6200	3.6200	-2.8392	23.98	-2.00	-0.050			
0.6081	38917.71	3.6190	3.6189	-2.8569	23.93	-2.05	-0.050			
0.6110	39106.23	3.6180	3.6177	-2.8492	24.01	-1.97	-0.050			
0.6141	39300.84	3.6170	3.6169	-2.8401	24.19	-1.79	-0.050			
0.6171	39494.52	3.6160	3.6160	-2.8154	24.43	-1.55	-0.050			
0.6202	39690.91	3.6150	3.6148	-2.8015	24.68	-1.30	-0.050	0.361	0.620	
0.6231	39881.56	3.6140	3.6141	-2.7633	24.91	-1.07	-0.050			
0.6260	40061.27	3.6130	3.6130	-2.6955	25.12	-0.86	-0.050			
0.6287	40235.50	3.6120	3.6123	-2.6412	25.28	-0.70	-0.050			
0.6312	40399.67	3.6110	3.6112	-2.5497	25.42	-0.56	-0.050			
0.6337	40554.13	3.6100	3.6102	-2.4561	25.54	-0.44	-0.050			
0.6361	40712.63	3.6090	3.6090	-2.3425	25.68	-0.30	-0.050			
0.6384	40858.79	3.6080	3.6080	-2.2518	25.83	-0.15	-0.050			
0.6405	40990.33	3.6070	3.6071	-2.1704	25.97	-0.01	-0.050	0.563	0.595	
0.6425	41121.62	3.6060	3.6061	-2.0932	26.12	0.14	-0.050			
0.6444	41239.39	3.6050	3.6048	-2.0314	26.26	0.28	-0.050			
0.6462	41357.69	3.6040	3.6041	-1.9720	26.39	0.41	-0.050			
0.6480	41471.23	3.6030	3.6031	-1.9372	26.53	0.55	-0.050			
0.6497	41582.79	3.6020	3.6021	-1.9197	26.59	0.61	-0.050			
0.6515	41698.62	3.6010	3.6008	-1.9033	26.57	0.59	-0.050			
0.6533	41810.76	3.6000	3.6000	-1.9057	26.47	0.49	-0.050			
0.6551	41928.65	3.5990	3.5990	-1.9060	26.31	0.33	-0.050			
0.6569	42044.62	3.5980	3.5979	-1.9182	26.14	0.16	-0.050			
0.6588	42166.29	3.5970	3.5971	-1.9264	25.93	-0.05	-0.050			
0.6608	42290.30	3.5960	3.5959	-1.9468	25.73	-0.25	-0.050	0.366	0.628	
0.6628	42416.58	3.5950	3.5954	-1.9650	25.54	-0.44	-0.050			
0.6648	42546.04	3.5940	3.5939	-1.9831	25.37	-0.61	-0.050			
0.6668	42677.04	3.5930	3.5928	-1.9989	25.25	-0.73	-0.050			
0.6689	42808.64	3.5920	3.5922	-2.0133	25.19	-0.79	-0.050			
0.6710	42941.86	3.5910	3.5910	-2.0240	25.16	-0.82	-0.050			
0.6731	43075.62	3.5900	3.5900	-2.0255	25.19	-0.79	-0.050			
0.6752	43210.36	3.5890	3.5890	-2.0250	25.23	-0.75	-0.050			
0.6772	43342.47	3.5880	3.5880	-2.0157	25.30	-0.68	-0.050			
0.6793	43474.52	3.5870	3.5868	-2.0021	25.40	-0.58	-0.050			
0.6813	43604.09	3.5860	3.5858	-1.9857	25.51	-0.47	-0.050	0.513	0.541	
0.6833	43731.98	3.5850	3.5851	-1.9678	25.62	-0.36	-0.050			
0.6853	43858.18	3.5840	3.5841	-1.9456	25.73	-0.25	-0.050			
0.6872	43981.48	3.5830	3.5830	-1.9214	25.86	-0.12	-0.050			
0.6891	44103.90	3.5820	3.5820	-1.8927	25.98	0.00	-0.050			
0.6910	44225.69	3.5810	3.5811	-1.8701	26.11	0.13	-0.050			
0.6929	44343.50	3.5800	3.5800	-1.8455	26.24	0.26	-0.050			
0.6947	44460.84	3.5790	3.5791	-1.8247	26.36	0.38	-0.050			
0.6965	44576.19	3.5780	3.5782	-1.7997	26.49	0.51	-0.050			
0.6983	44689.97	3.5770	3.5770	-1.7813	26.62	0.64	-0.050			
0.7000	44799.76	3.5760	3.5764	-1.7631	26.73	0.75	-0.050	0.226	0.470	
0.7017	44911.03	3.5750	3.5751	-1.7456	26.85	0.87	-0.050			
0.7035	45021.49	3.5740	3.5739	-1.7292	26.85	0.87	-0.050			
0.7051	45129.60	3.5730	3.5731	-1.7173	26.73	0.75	-0.050			
0.7068	45236.84	3.5720	3.5719	-1.7044	26.56	0.58	-0.050			
0.7085	45343.97	3.5710	3.5712	-1.6978	26.35	0.37	-0.050			
0.7102	45451.64	3.5700	3.5700	-1.6929	26.12	0.14	-0.050			
0.7118	45558.33	3.5690	3.5691	-1.6896	25.90	-0.08	-0.050			
0.7135	45664.94	3.5680	3.5679	-1.6847	25.69	-0.29	-0.050			
0.7152	45771.23	3.5670	3.5672	-1.6838	25.50	-0.48	-0.050			
0.7168	45877.86	3.5660	3.5660	-1.6830	25.33	-0.65	-0.050			
0.7185	45986.08	3.5650	3.5649	-1.6844	25.20	-0.78	-0.050			
0.7202	46094.17	3.5640	3.5638	-1.6865	25.12	-0.86	-0.050	0.367	0.440	
0.7219	46202.95	3.5630	3.5631	-1.6885	25.07	-0.91	-0.050			
0.7236	46312.98	3.5620	3.5618	-1.6872	25.05	-0.93	-0.050			
0.7253	46420.76	3.5610	3.5608	-1.6802	25.06	-0.92	-0.050			
0.7270	46529.04	3.5600	3.5597	-1.6781	25.07	-0.91	-0.050			
0.7287	46638.16	3.5590	3.5590	-1.6745	25.11	-0.87	-0.050			
0.7304	46746.77	3.5580	3.5579	-1.6659	25.15	-0.83	-0.050			
0.7321	46853.78	3.5570	3.5570	-1.6543	25.21	-0.77	-0.050			
0.7338	46962.82	3.5560	3.5559	-1.6411	25.28	-0.70	-0.050			
0.7355	47070.53	3.5550	3.5551	-1.6267	25.35	-0.63	-0.050			
0.7371	47175.60	3.5540	3.5541	-1.6072	25.43	-0.55	-0.050			
0.7387	47278.62	3.5530	3.5532	-1.5824	25.51	-0.47	-0.050			
0.7403	47381.37	3.5520	3.5519	-1.5597	25.59	-0.39	-0.050	0.264	0.573	
0.7419	47482.19	3.5510	3.5509	-1.5350	25.68	-0.30	-0.050			
0.7434	47580.70	3.5500	3.5501	-1.5035	25.75	-0.23	-0.050			
0.7450	47677.73	3.5490	3.5491	-1.4733	25.85	-0.13	-0.050			
0.7464	47772.32	3.5480	3.5480	-1.4436	25.92	-0.06	-0.050			
0.7479	47863.63	3.5470	3.5470	-1.4092	26.00	0.02	-0.050			
0.7493	47953.52	3.5460	3.5458	-1.3749	26.09	0.11	-0.050			
0.7506	48040.82	3.5450	3.5450	-1.3391	26.17	0.19	-0.050			
0.7520	48125.95	3.5440	3.5440	-1.3042	26.25	0.27	-0.050			
0.7532	48207.92	3.5430	3.5430	-1.2693	26.32	0.34	-0.050			
0.7545	48288.40	3.5420	3.5420	-1.2351	26.35	0.37	-0.050			
0.7557	48364.19	3.5410	3.5411	-1.1983	26.34	0.36	-0.050			
0.7568	48438.12	3.5400	3.5400	-1.1679	26.32	0.34	-0.050			
0.7580	48510.84	3.5390	3.5389	-1.1442	26.32	0.34	-0.050			
0.7591	48581.27	3.5380	3.5383	-1.1150	26.31	0.33	-0.050			
0.7602	48651.16	3.5370	3.5371	-1.0893	26.34	0.36	-0.050	-0.046	0.447	
0.7612	48718.34	3.5360	3.5360	-1.0699	26.35	0.37	-0.050			
0.7622	48783.11	3.5350	3.5351	-1.0494	26.38	0.40	-0.050			
0.7632	48846.85	3.5340	3.5339	-1.0288	26.40	0.42	-0.050			
0.7642	48909.83	3.5330	3.5329	-1.0179	26.43	0.45	-0.050			
0.7652	48972.80	3.5320	3.5319	-1.0056	26.46	0.48	-0.050			
0.7662	49034.67	3.5310	3.5310	-1.0027	26.49	0.51	-0.050			
0.7671	49095.78	3.5300	3.5299	-0.9992	26.52	0.54	-0.050			
0.7681	49157.34	3.5290	3.5290	-0.9950	26.56	0.58	-0.050			
0.7690	49218.78	3.5280	3.5281	-0.9959	26.59	0.61	-0.050			
0.7700	49281.79	3.5270	3.5267	-0.9995	26.64	0.66	-0.050			
0.7710	49345.72	3.5260	3.5259	-1.0033	26.68	0.70	-0.050			
0.7720	49410.15	3.5250	3.5250	-1.0062	26.72	0.74	-0.050			
0.7730	49474.68	3.5240	3.5239	-1.0115	26.77	0.79	-0.050			
0.7741	49539.98	3.5230	3.5230	-1.0141	26.81	0.83	-0.050			
0.7751	49606.47	3.5220	3.5217	-1.0166	26.86	0.88	-0.050			
0.7761	49672.25	3.5210	3.5211	-1.0170	26.91	0.93	-0.050			
0.7772	49738.77	3.5200	3.5199	-1.0149	26.95	0.97	-0.050			
0.7782	49805.47	3.5190	3.5188	-1.0137	26.99	1.01	-0.050			
0.7793	49873.00	3.5180	3.5182	-1.0084	27.04	1.06	-0.050			
0.7803	49939.29	3.5170	3.5170	-1.0016	27.09	1.11	-0.050	0.246	0.547	
0.7813	50005.06	3.5160	3.5160	-0.9917	27.14	1.16	-0.050			
0.7823	50070.21	3.5150	3.5149	-0.9822	27.18	1.20	-0.050			
0.7833	50133.01	3.5140	3.5141	-0.9695	27.23	1.25	-0.050			
0.7843	50195.07	3.5130	3.5131	-0.9554	27.27	1.29	-0.050			
0.7853	50256.15	3.5120	3.5120	-0.9402	27.23	1.25	-0.050			
0.7862	50315.78	3.5110	3.5111	-0.9234	27.12	1.14	-0.050			
0.7871	50374.71	3.5100	3.5101	-0.9083	26.98	1.00	-0.050			
0.7880	50431.61	3.5090	3.5090	-0.8947	26.82	0.84	-0.050			
0.7889	50487.47	3.5080	3.5080	-0.8804	26.63	0.65	-0.050			
0.7897	50542.41	3.5070	3.5068	-0.8676	26.44	0.46	-0.050			
0.7906	50596.74	3.5060	3.5059	-0.8587	26.22	0.24	-0.050			
0.7914	50648.97	3.5050	3.5049	-0.8479	26.02	0.04	-0.050			
0.7922	50700.80	3.5040	3.5041	-0.8382	25.81	-0.17	-0.050			
0.7930	50751.81	3.5030	3.5030	-0.8368	25.61	-0.37	-0.050			
0.7938	50802.27	3.5020	3.5020	-0.8431	25.41	-0.57	-0.050			
0.7946	50852.79	3.5010	3.5010	-0.8532	25.23	-0.75	-0.050			
0.7954	50904.16	3.5000	3.4999	-0.8583	25.03	-0.95	-0.050			
0.7961	50953.36	3.4990	3.4991	-0.8839	24.87	-1.11	-0.050			
0.7969	51001.14	3.4980	3.4981	-0.9145	24.72	-1.26	-0.050			
0.7977	51052.29	3.4970	3.4974	-0.9578	24.56	-1.42	-0.050			
0.7985	51106.02	3.4960	3.4960	-1.0120	24.41	-1.57	-0.050			
0.7994	51158.65	3.4950	3.4952	-1.0681	24.28	-1.70	-0.050			
0.8003	51221.56	3.4940	3.4942	-1.1415	24.13	-1.85	-0.050	0.246	0.644	
0.8013	51285.41	3.4930	3.4932	-1.2361	24.01	-1.97	-0.050			
0.8024	51354.40	3.4920	3.4922	-1.3265	23.90	-2.08	-0.050			
0.8037	51436.48	3.4910	3.4910	-1.4373	23.81	-2.17	-0.050			
0.8051	51526.65	3.4900	3.4899	-1.5587	23.74	-2.24	-0.050			
0.8067	51627.41	3.4890	3.4890	-1.6730	23.71	-2.27	-0.050			
0.8084	51740.28	3.4880	3.4879	-1.8013	23.72	-2.26	-0.050			
0.8104	51863.32	3.4870	3.4870	-1.9265	23.79	-2.19	-0.050			
0.8125	51999.03	3.4860	3.4859	-2.0420	23.93	-2.05	-0.050			
0.8147	52139.08	3.4850	3.4848	-2.1566	24.10	-1.88	-0.050			
0.8170	52287.74	3.4840	3.4838	-2.2606	24.32	-1.66	-0.050			
0.8195	52445.89	3.4830	3.4830	-2.3561	24.56	-1.42	-0.050			
0.8220	52610.44	3.4820	3.4820	-2.4396	24.80	-1.18	-0.050			
0.8247	52779.06	3.4810	3.4810	-2.5136	25.03	-0.95	-0.050			
0.8272	52938.95	3.4800	3.4800	-2.5570	25.24	-0.74	-0.050			
0.8301	53123.39	3.4790	3.4791	-2.6049	25.46	-0.52	-0.050			
0.8329	53306.23	3.4780	3.4783	-2.6348	25.70	-0.28	-0.050			
0.8357	53482.34	3.4770	3.4770	-2.6389	25.92	-0.06	-0.050			
0.8384	53660.75	3.4760	3.4760	-2.6245	26.17	0.19	-0.050			
0.8412	53836.59	3.4750	3.4750	-2.5912	26.39	0.41	-0.050	0.230	0.619	
0.8439	54007.67	3.4740	3.4739	-2.5395	26.60	0.62	-0.050			
0.8464	54168.45	3.4730	3.4729	-2.4851	26.81	0.83	-0.050			
0.8489	54330.90	3.4720	3.4720	-2.4274	26.99	1.01	-0.050			
0.8514	54489.88	3.4710	3.4708	-2.3580	27.19	1.21	-0.050			
0.8538	54642.82	3.4700	3.4703	-2.2870	27.35	1.37	-0.050			
0.8561	54791.17	3.4690	3.4690	-2.2113	27.50	1.52	-0.050			
0.8583	54934.02	3.4680	3.4682	-2.1314	27.59	1.61	-0.050			
0.8605	55071.67	3.4670	3.4670	-2.0452	27.38	1.40	-0.050	0.261	0.565	
0.8625	55199.49	3.4660	3.4662	-1.9517	27.03	1.05	-0.050			
0.8644	55321.90	3.4650	3.4650	-1.8606	26.60	0.62	-0.050			
0.8662	55438.87	3.4640	3.4640	-1.7689	26.17	0.19	-0.050			
0.8679	55547.69	3.4630	3.4630	-1.6793	25.76	-0.22	-0.050			
0.8695	55650.29	3.4620	3.4620	-1.5958	25.40	-0.58	-0.050			
0.8711	55747.41	3.4610	3.4608	-1.5089	25.09	-0.89	-0.050			
0.8725	55837.10	3.4600	3.4601	-1.4223	24.84	-1.14	-0.050			
0.8738	55923.86	3.4590	3.4590	-1.3445	24.62	-1.36	-0.050			
0.8751	56004.60	3.4580	3.4579	-1.2678	24.46	-1.52	-0.050			
0.8763	56080.97	3.4570	3.4568	-1.2033	24.34	-1.64	-0.050			
0.8774	56152.97	3.4560	3.4562	-1.1299	24.24	-1.74	-0.050			
0.8785	56221.48	3.4550	3.4548	-1.0671	24.17	-1.81	-0.050			
0.8795	56285.29	3.4540	3.4537	-1.0060	24.12	-1.86	-0.050			
0.8804	56345.84	3.4530	3.4530	-0.9508	24.10	-1.88	-0.050	0.172	0.538	
0.8813	56400.65	3.4520	3.4524	-0.8938	24.09	-1.89	-0.050			
0.8821	56454.88	3.4510	3.4510	-0.8397	24.09	-1.89	-0.050			
0.8829	56504.42	3.4500	3.4500	-0.7917	24.10	-1.88	-0.050			
0.8836	56551.79	3.4490	3.4491	-0.7506	24.11	-1.87	-0.050			
0.8843	56596.61	3.4480	3.4478	-0.7120	24.14	-1.84	-0.050			
0.8850	56639.42	3.4470	3.4471	-0.6689	24.17	-1.81	-0.050			
0.8856	56677.94	3.4460	3.4461	-0.6344	24.20	-1.78	-0.050			
0.8862	56714.27	3.4450	3.4450	-0.6025	24.23	-1.75	-0.050			
0.8867	56750.23	3.4440	3.4438	-0.5682	24.26	-1.72	-0.050			
0.8872	56782.15	3.4430	3.4430	-0.5399	24.29	-1.69	-0.050			
0.8877	56813.07	3.4420	3.4422	-0.5087	24.32	-1.66	-0.050			
0.8882	56844.05	3.4410	3.4408	-0.4913	24.36	-1.62	-0.050			
0.8887	56873.82	3.4400	3.4398	-0.4684	24.40	-1.58	-0.050			
0.8891	56901.13	3.4390	3.4390	-0.4506	24.42	-1.56	-0.050			
0.8895	56928.38	3.4380	3.4382	-0.4313	24.46	-1.52	-0.050			
0.8899	56952.49	3.4370	3.4368	-0.4132	24.49	-1.49	-0.050			
0.8903	56978.52	3.4360	3.4359	-0.4000	24.53	-1.45	-0.050			
0.8907	57002.60	3.4350	3.4349	-0.3894	24.55	-1.43	-0.050			
0.8910	57026.55	3.4340	3.4340	-0.3766	24.58	-1.40	-0.050			
0.8914	57048.82	3.4330	3.4330	-0.3677	24.61	-1.37	-0.050			
0.8917	57071.08	3.4320	3.4321	-0.3563	24.64	-1.34	-0.050			
0.8921	57093.31	3.4310	3.4309	-0.3491	24.67	-1.31	-0.050			
0.8924	57115.32	3.4300	3.4302	-0.3411	24.69	-1.29	-0.050			
0.8927	57135.43	3.4290	3.4289	-0.3342	24.72	-1.26	-0.050			
0.8931	57155.55	3.4280	3.4279	-0.3253	24.74	-1.24	-0.050			
0.8934	57176.13	3.4270	3.4270	-0.3205	24.77	-1.21	-0.050			
0.8937	57196.56	3.4260	3.4260	-0.3157	24.80	-1.18	-0.050			
0.8940	57215.89	3.4250	3.4248	-0.3091	24.82	-1.16	-0.050			
0.8943	57235.38	3.4240	3.4239	-0.3054	24.85	-1.13	-0.050			
0.8946	57254.83	3.4230	3.4230	-0.3014	24.87	-1.11	-0.050			
0.8949	57273.83	3.4220	3.4222	-0.2979	24.89	-1.09	-0.050			
0.8952	57292.56	3.4210	3.4211	-0.2936	24.91	-1.07	-0.050			
0.8955	57310.76	3.4200	3.4199	-0.2915	24.93	-1.05	-0.050			
0.8958	57328.83	3.4190	3.4189	-0.2873	24.94	-1.04	-0.050			
0.8960	57347.13	3.4180	3.4180	-0.2846	24.97	-1.01	-0.050			
0.8963	57365.28	3.4170	3.4172	-0.2827	24.99	-0.99	-0.050			
0.8966	57383.29	3.4160	3.4160	-0.2801	25.02	-0.96	-0.050			
0.8969	57401.11	3.4150	3.4150	-0.2766	25.04	-0.94	-0.050			
0.8972	57418.72	3.4140	3.4139	-0.2740	25.06	-0.92	-0.050			
0.8974	57435.90	3.4130	3.4130	-0.2709	25.08	-0.90	-0.050			
0.8977	57453.46	3.4120	3.4119	-0.2674	25.10	-0.88	-0.050			
0.8980	57470.38	3.4110	3.4109	-0.2645	25.12	-0.86	-0.050			
0.8982	57487.22	3.4100	3.4100	-0.2619	25.14	-0.84	-0.050			
0.8985	57503.71	3.4090	3.4089	-0.2627	25.16	-0.82	-0.050			
0.8988	57520.16	3.4080	3.4081	-0.2613	25.18	-0.80	-0.050			
0.8990	57536.39	3.4070	3.4074	-0.2584	25.20	-0.78	-0.050			
0.8993	57552.89	3.4060	3.4060	-0.2570	25.22	-0.76	-0.050			
0.8995	57569.47	3.4050	3.4052	-0.2550	25.24	-0.74	-0.050			
0.8998	57585.98	3.4040	3.4040	-0.2539	25.26	-0.72	-0.050			
0.9000	57602.16	3.4030	3.4029	-0.2521	25.28	-0.70	-0.050			
0.9003	57617.50	3.4020	3.4018	-0.2515	25.29	-0.69	-0.050			
0.9005	57633.57	3.4010	3.4008	-0.2506	25.31	-0.67	-0.050			
0.9008	57649.33	3.4000	3.4001	-0.2489	25.32	-0.66	-0.050	0.317	0.469	
0.9010	57665.24	3.3990	3.3992	-0.2482	25.34	-0.64	-0.050			
0.9013	57681.10	3.3980	3.3983	-0.2475	25.36	-0.62	-0.050			
0.9015	57696.77	3.3970	3.3970	-0.2450	25.38	-0.60	-0.050			
0.9018	57712.43	3.3960	3.3960	-0.2443	25.39	-0.59	-0.050			
0.9020	57728.29	3.3950	3.3951	-0.2441	25.40	-0.58	-0.050			
0.9023	57744.12	3.3940	3.3939	-0.2424	25.42	-0.56	-0.050			
0.9025	57759.60	3.3930	3.3929	-0.2412	25.43	-0.55	-0.050			
0.9027	57775.54	3.3920	3.3919	-0.2413	25.44	-0.54	-0.050			
0.9030	57790.93	3.3910	3.3910	-0.2397	25.46	-0.52	-0.050			
0.9032	57806.21	3.3900	3.3902	-0.2380	25.48	-0.50	-0.050			
0.9035	57821.87	3.3890	3.3893	-0.2363	25.50	-0.48	-0.050			
0.9037	57836.42	3.3880	3.3881	-0.2326	25.51	-0.47	-0.050			
0.9039	57851.26	3.3870	3.3869	-0.2311	25.52	-0.46	-0.050			
0.9042	57865.74	3.3860	3.3860	-0.2306	25.54	-0.44	-0.050			
0.9044	57880.77	3.3850	3.3850	-0.2300	25.55	-0.43	-0.050			
0.9046	57895.45	3.3840	3.3840	-0.2285	25.57	-0.41	-0.050			
0.9048	57909.81	3.3830	3.3828	-0.2278	25.58	-0.40	-0.050			
0.9051	57924.40	3.3820	3.3821	-0.2267	25.60	-0.38	-0.050			
0.9053	57938.87	3.3810	3.3810	-0.2254	25.61	-0.37	-0.050			
0.9055	57952.33	3.3800	3.3802	-0.2233	25.63	-0.35	-0.050			
0.9057	57966.60	3.3790	3.3791	-0.2229	25.64	-0.34	-0.050			
0.9060	57980.86	3.3780	3.3780	-0.2225	25.65	-0.33	-0.050			
0.9062	57995.44	3.3770	3.3768	-0.2210	25.67	-0.31	-0.050			
0.9064	58009.56	3.3760	3.3758	-0.2203	25.69	-0.29	-0.050			
0.9066	58023.63	3.3750	3.3748	-0.2195	25.70	-0.28	-0.050			
0.9068	58037.47	3.3740	3.3740	-0.2197	25.72	-0.26	-0.050			
0.9071	58051.52	3.3730	3.3732	-0.2192	25.74	-0.24	-0.050			
0.9073	58065.16	3.3720	3.3721	-0.2191	25.76	-0.22	-0.050			
0.9075	58079.18	3.3710	3.3710	-0.2190	25.77	-0.21	-0.050			
0.9077	58093.19	3.3700	3.3700	-0.2188	25.79	-0.19	-0.050			
0.9079	58107.71	3.3690	3.3690	-0.2171	25.80	-0.18	-0.050			
0.9081	58121.58	3.3680	3.3681	-0.2165	25.81	-0.17	-0.050			
0.9084	58135.42	3.3670	3.3670	-0.2158	25.82	-0.16	-0.050			
0.9086	58149.74	3.3660	3.3657	-0.2159	25.83	-0.15	-0.050			
0.9088	58163.83	3.3650	3.3646	-0.2137	25.85	-0.13	-0.050			
0.9090	58177.46	3.3640	3.3640	-0.2122	25.87	-0.11	-0.050			
0.9092	58190.88	3.3630	3.3630	-0.2105	25.88	-0.10	-0.050			
0.9094	58204.21	3.3620	3.3621	-0.2095	25.90	-0.08	-0.050			
0.9096	58217.57	3.3610	3.3611	-0.2082	25.92	-0.06	-0.050			
0.9099	58231.13	3.3600	3.3604	-0.2073	25.93	-0.05	-0.050			
0.9101	58244.03	3.3590	3.3593	-0.2068	25.95	-0.03	-0.050			
0.9103	58257.23	3.3580	3.3580	-0.2057	25.97	-0.01	-0.050			
0.9105	58270.37	3.3570	3.3571	-0.2045	25.98	0.00	-0.050			
0.9107	58283.23	3.3560	3.3559	-0.2039	26.00	0.02	-0.050			
0.9109	58296.25	3.3550	3.3549	-0.2030	26.01	0.03	-0.050			
0.9111	58309.35	3.3540	3.3537	-0.2021	26.02	0.04	-0.050			
0.9113	58322.13	3.3530	3.3530	-0.2014	26.04	0.06	-0.050			
0.9115	58334.34	3.3520	3.3519	-0.1987	26.05	0.07	-0.050			
0.9117	58347.04	3.3510	3.3511	-0.1983	26.07	0.09	-0.050			
0.9119	58359.69	3.3500	3.3499	-0.1980	26.08	0.10	-0.050			
0.9121	58372.01	3.3490	3.3489	-0.1967	26.10	0.12	-0.050			
0.9123	58384.60	3.3480	3.3481	-0.1967	26.12	0.14	-0.050			
0.9125	58397.19	3.3470	3.3471	-0.1967	26.14	0.16	-0.050			
0.9127	58410.09	3.3460	3.3460	-0.1953	26.16	0.18	-0.050			
0.9129	58423.14	3.3450	3.3450	-0.1959	26.17	0.19	-0.050			
0.9131	58435.65	3.3440	3.3439	-0.1950	26.19	0.21	-0.050			
0.9133	58448.27	3.3430	3.3430	-0.1936	26.20	0.22	-0.050			
0.9135	58461.00	3.3420	3.3420	-0.1933	26.22	0.24	-0.050			
0.9136	58473.33	3.3410	3.3409	-0.1920	26.23	0.25	-0.050			
0.9138	58485.17	3.3400	3.3401	-0.1921	26.24	0.26	-0.050			
0.9140	58497.26	3.3390	3.3389	-0.1908	26.26	0.28	-0.050			
0.9142	58509.45	3.3380	3.3381	-0.1901	26.27	0.29	-0.050			
0.9144	58521.59	3.3370	3.3371	-0.1893	26.28	0.30	-0.050			
0.9146	58533.30	3.3360	3.3361	-0.1886	26.30	0.32	-0.050			
0.9148	58545.36	3.3350	3.3350	-0.1882	26.31	0.33	-0.050			
0.9150	58557.40	3.3340	3.3340	-0.1878	26.32	0.34	-0.050			
0.9151	58569.41	3.3330	3.3330	-0.1869	26.34	0.36	-0.050			
0.9153	58581.36	3.3320	3.3320	-0.1865	26.36	0.38	-0.050			
0.9155	58593.29	3.3310	3.3308	-0.1861	26.38	0.40	-0.050			
0.9157	58605.10	3.3300	3.3298	-0.1856	26.39	0.41	-0.050			
0.9159	58617.02	3.3290	3.3289	-0.1851	26.41	0.43	-0.050			
0.9161	58628.86	3.3280	3.3282	-0.1847	26.42	0.44	-0.050			
0.9163	58640.66	3.3270	3.3270	-0.1843	26.44	0.46	-0.050			
0.9164	58652.61	3.3260	3.3260	-0.1829	26.45	0.47	-0.050			
0.9166	58664.30	3.3250	3.3251	-0.1823	26.46	0.48	-0.050			
0.9168	58675.94	3.3240	3.3241	-0.1817	26.48	0.50	-0.050			
0.9170	58688.04	3.3230	3.3230	-0.1818	26.49	0.51	-0.050			
0.9172	58699.58	3.3220	3.3219	-0.1809	26.51	0.53	-0.050			
0.9174	58711.13	3.3210	3.3207	-0.1800	26.52	0.54	-0.050			
0.9175	58722.94	3.3200	3.3201	-0.1796	26.54	0.56	-0.050			
0.9177	58734.07	3.3190	3.3192	-0.1791	26.55	0.57	-0.050			
0.9179	58745.51	3.3180	3.3180	-0.1782	26.57	0.59	-0.050			
0.9181	58756.88	3.3170	3.3170	-0.1773	26.58	0.60	-0.050			
0.9182	58767.76	3.3160	3.3161	-0.1758	26.59	0.61	-0.050			
0.9184	58779.13	3.3150	3.3151	-0.1749	26.60	0.62	-0.050			
0.9186	58790.29	3.3140	3.3139	-0.1742	26.62	0.64	-0.050			
0.9188	58801.41	3.3130	3.3131	-0.1735	26.63	0.65	-0.050			
0.9189	58812.49	3.3120	3.3119	-0.1728	26.65	0.67	-0.050			
0.9191	58823.60	3.3110	3.3109	-0.1718	26.66	0.68	-0.050			
0.9193	58834.57	3.3100	3.3100	-0.1711	26.68	0.70	-0.050			
0.9195	58845.57	3.3090	3.3090	-0.1705	26.69	0.71	-0.050			
0.9196	58856.46	3.3080	3.3079	-0.1696	26.70	0.72	-0.050			
0.9198	58867.22	3.3070	3.3071	-0.1691	26.72	0.74	-0.050			
0.9200	58877.95	3.3060	3.3060	-0.1682	26.73	0.75	-0.050			
0.9201	58888.69	3.3050	3.3051	-0.1675	26.75	0.77	-0.050			
0.9203	58899.36	3.3040	3.3041	-0.1669	26.76	0.78	-0.050			
0.9205	58910.02	3.3030	3.3029	-0.1663	26.77	0.79	-0.050			
0.9206	58920.79	3.3020	3.3020	-0.1659	26.78	0.80	-0.050	0.313	0.674	
0.9208	58931.39	3.3010	3.3009	-0.1651	26.79	0.81	-0.050			
0.9210	58941.75	3.3000	3.3000	-0.1649	26.81	0.83	-0.050			
0.9211	58952.11	3.2990	3.2990	-0.1638	26.82	0.84	-0.050			
0.9213	58962.58	3.2980	3.2978	-0.1633	26.83	0.85	-0.050			
0.9215	58973.02	3.2970	3.2970	-0.1628	26.84	0.86	-0.050			
0.9216	58983.46	3.2960	3.2960	-0.1623	26.85	0.87	-0.050			
0.9218	58993.64	3.2950	3.2949	-0.1613	26.87	0.89	-0.050			
0.9219	59003.95	3.2940	3.2939	-0.1609	26.88	0.90	-0.050			
0.9221	59014.24	3.2930	3.2932	-0.1606	26.89	0.91	-0.050			
0.9223	59024.49	3.2920	3.2921	-0.1603	26.91	0.93	-0.050			
0.9224	59034.82	3.2910	3.2910	-0.1601	26.92	0.94	-0.050			
0.9226	59045.06	3.2900	3.2900	-0.1597	26.93	0.95	-0.050			
0.9227	59055.27	3.2890	3.2889	-0.1593	26.94	0.96	-0.050			
0.9229	59065.51	3.2880	3.2880	-0.1587	26.96	0.98	-0.050			
0.9231	59075.71	3.2870	3.2870	-0.1584	26.97	0.99	-0.050			
0.9232	59085.83	3.2860	3.2860	-0.1579	26.98	1.00	-0.050			
0.9234	59095.92	3.2850	3.2850	-0.1574	26.99	1.01	-0.050			
0.9235	59106.10	3.2840	3.2839	-0.1567	27.00	1.02	-0.050			
0.9237	59116.11	3.2830	3.2829	-0.1561	27.02	1.04	-0.050			
0.9238	59126.08	3.2820	3.2820	-0.1555	27.03	1.05	-0.050			
0.9240	59136.02	3.2810	3.2811	-0.1549	27.04	1.06	-0.050			
0.9242	59146.03	3.2800	3.2800	-0.1545	27.06	1.08	-0.050			
0.9243	59155.65	3.2790	3.2790	-0.1545	27.07	1.09	-0.050			
0.9245	59165.52	3.2780	3.2780	-0.1540	27.08	1.10	-0.050			
0.9246	59175.37	3.2770	3.2772	-0.1536	27.09	1.11	-0.050			
0.9248	59185.04	3.2760	3.2762	-0.1530	27.11	1.13	-0.050			
0.9249	59194.74	3.2750	3.2751	-0.1529	27.12	1.14	-0.050			
0.9251	59204.51	3.2740	3.2740	-0.1526	27.13	1.15	-0.050			
0.9252	59214.27	3.2730	3.2730	-0.1524	27.14	1.16	-0.050			
0.9254	59223.96	3.2720	3.2719	-0.1520	27.15	1.17	-0.050			
0.9255	59233.98	3.2710	3.2708	-0.1511	27.16	1.18	-0.050			
0.9257	59243.64	3.2700	3.2698	-0.1507	27.17	1.19	-0.050			
0.9258	59253.27	3.2690	3.2690	-0.1502	27.18	1.20	-0.050			
0.9260	59262.80	3.2680	3.2681	-0.1496	27.19	1.21	-0.050			
0.9261	59272.36	3.2670	3.2671	-0.1492	27.20	1.22	-0.050			
0.9263	59281.90	3.2660	3.2660	-0.1488	27.21	1.23	-0.050			
0.9264	59291.41	3.2650	3.2650	-0.1484	27.23	1.25	-0.050			
0.9266	59301.06	3.2640	3.2640	-0.1482	27.24	1.26	-0.050			
0.9267	59310.48	3.2630	3.2632	-0.1478	27.25	1.27	-0.050			
0.9269	59319.92	3.2620	3.2621	-0.1473	27.26	1.28	-0.050			
0.9270	59329.33	3.2610	3.2610	-0.1467	27.27	1.29	-0.050			
0.9272	59338.71	3.2600	3.2600	-0.1462	27.28	1.30	-0.050			
0.9273	59348.24	3.2590	3.2589	-0.1459	27.29	1.31	-0.050			
0.9275	59357.55	3.2580	3.2579	-0.1453	27.30	1.32	-0.050			
0.9276	59366.82	3.2570	3.2569	-0.1446	27.31	1.33	-0.050			
0.9278	59376.06	3.2560	3.2560	-0.1440	27.32	1.34	-0.050			
0.9279	59385.04	3.2550	3.2550	-0.1430	27.33	1.35	-0.050			
0.9280	59394.29	3.2540	3.2540	-0.1423	27.34	1.36	-0.050			
0.9282	59403.38	3.2530	3.2530	-0.1417	27.35	1.37	-0.050			
0.9283	59412.43	3.2520	3.2520	-0.1411	27.36	1.38	-0.050			
0.9285	59421.42	3.2510	3.2510	-0.1405	27.37	1.39	-0.050			
0.9286	59430.39	3.2500	3.2500	-0.1399	27.38	1.40	-0.050			
0.9287	59439.30	3.2490	3.2491	-0.1394	27.39	1.41	-0.050			
0.9289	59448.20	3.2480	3.2481	-0.1388	27.40	1.42	-0.050			
0.9290	59457.29	3.2470	3.2470	-0.1388	27.41	1.43	-0.050			
0.9292	59466.15	3.2460	3.2459	-0.1380	27.42	1.44	-0.050			
0.9293	59474.96	3.2450	3.2449	-0.1373	27.42	1.44	-0.050			
0.9294	59483.64	3.2440	3.2439	-0.1368	27.43	1.45	-0.050			
0.9296	59492.23	3.2430	3.2431	-0.1358	27.44	1.46	-0.050			
0.9297	59500.91	3.2420	3.2422	-0.1353	27.45	1.47	-0.050			
0.9298	59509.55	3.2410	3.2410	-0.1347	27.46	1.48	-0.050			
0.9300	59518.15	3.2400	3.2399	-0.1342	27.47	1.49	-0.050			
0.9301	59526.68	3.2390	3.2389	-0.1338	27.47	1.49	-0.050			
0.9302	59535.12	3.2380	3.2380	-0.1331	27.48	1.50	-0.050			
0.9304	59543.62	3.2370	3.2370	-0.1326	27.49	1.51	-0.050			
0.9305	59552.10	3.2360	3.2361	-0.1322	27.50	1.52	-0.050			
0.9306	59560.52	3.2350	3.2353	-0.1318	27.51	1.53	-0.050			
0.9308	59568.94	3.2340	3.2340	-0.1314	27.52	1.54	-0.050			
0.9309	59577.33	3.2330	3.2330	-0.1310	27.53	1.55	-0.050			
0.9310	59585.70	3.2320	3.2320	-0.1306	27.54	1.56	-0.050			
0.9312	59594.05	3.2310	3.2310	-0.1302	27.55	1.57	-0.050			
0.9313	59602.30	3.2300	3.2300	-0.1300	27.56	1.58	-0.050			
0.9314	59610.60	3.2290	3.2290	-0.1297	27.57	1.59	-0.050			
0.9315	59618.88	3.2280	3.2280	-0.1293	27.58	1.60	-0.050			
0.9317	59627.15	3.2270	3.2272	-0.1290	27.59	1.61	-0.050			
0.9318	59635.39	3.2260	3.2260	-0.1286	27.59	1.61	-0.050			
0.9319	59643.61	3.2250	3.2248	-0.1283	27.60	1.62	-0.050			
0.9321	59651.70	3.2240	3.2239	-0.1278	27.61	1.63	-0.050			
0.9322	59659.87	3.2230	3.2230	-0.1275	27.61	1.63	-0.050			
0.9323	59668.02	3.2220	3.2220	-0.1273	27.62	1.64	-0.050			
0.9324	59676.16	3.2210	3.2211	-0.1270	27.62	1.64	-0.050			
0.9326	59684.29	3.2200	3.2201	-0.1268	27.63	1.65	-0.050			
0.9327	59692.40	3.2190	3.2188	-0.1266	27.64	1.66	-0.050			
0.9328	59700.49	3.2180	3.2178	-0.1263	27.65	1.67	-0.050			
0.9329	59708.56	3.2170	3.2170	-0.1260	27.66	1.68	-0.050			
0.9331	59716.62	3.2160	3.2160	-0.1258	27.67	1.69	-0.050			
0.9332	59724.88	3.2150	3.2149	-0.1253	27.68	1.70	-0.050			
0.9333	59732.88	3.2140	3.2139	-0.1249	27.69	1.71	-0.050			
0.9335	59740.86	3.2130	3.2130	-0.1245	27.69	1.71	-0.050			
0.9336	59748.81	3.2120	3.2120	-0.1241	27.70	1.72	-0.050			
0.9337	59756.74	3.2110	3.2110	-0.1236	27.71	1.73	-0.050			
0.9338	59764.77	3.2100	3.2100	-0.1234	27.71	1.73	-0.050			
0.9339	59772.57	3.2090	3.2090	-0.1230	27.72	1.74	-0.050			
0.9341	59780.43	3.2080	3.2081	-0.1226	27.72	1.74	-0.050			
0.9342	59788.26	3.2070	3.2071	-0.1221	27.73	1.75	-0.050			
0.9343	59796.06	3.2060	3.2060	-0.1217	27.73	1.75	-0.050			
0.9344	59803.83	3.2050	3.2048	-0.1212	27.73	1.75	-0.050			
0.9346	59811.70	3.2040	3.2041	-0.1205	27.73	1.75	-0.050			
0.9347	59819.40	3.2030	3.2031	-0.1200	27.73	1.75	-0.050			
0.9348	59827.06	3.2020	3.2018	-0.1194	27.73	1.75	-0.050			
0.9349	59834.68	3.2010	3.2009	-0.1189	27.73	1.75	-0.050			
0.9350	59842.35	3.2000	3.2000	-0.1184	27.73	1.75	-0.050			
0.9352	59849.66	3.1990	3.1990	-0.1182	27.72	1.74	-0.050			
0.9353	59857.22	3.1980	3.1981	-0.1178	27.72	1.74	-0.050			
0.9354	59864.74	3.1970	3.1971	-0.1174	27.71	1.73	-0.050			
0.9355	59872.24	3.1960	3.1961	-0.1170	27.70	1.72	-0.050			
0.9356	59879.54	3.1950	3.1949	-0.1163	27.70	1.72	-0.050			
0.9357	59886.86	3.1940	3.1940	-0.1162	27.69	1.71	-0.050			
0.9358	59894.30	3.1930	3.1931	-0.1160	27.68	1.70	-0.050			
0.9360	59901.71	3.1920	3.1919	-0.1158	27.67	1.69	-0.050			
0.9361	59909.12	3.1910	3.1908	-0.1156	27.66	1.68	-0.050			
0.9362	59916.51	3.1900	3.1900	-0.1154	27.64	1.66	-0.050			
0.9363	59923.82	3.1890	3.1891	-0.1151	27.63	1.65	-0.050			
0.9364	59931.30	3.1880	3.1879	-0.1147	27.61	1.63	-0.050			
0.9365	59938.63	3.1870	3.1869	-0.1144	27.60	1.62	-0.050			
0.9367	59945.94	3.1860	3.1859	-0.1142	27.59	1.61	-0.050			
0.9368	59953.24	3.1850	3.1850	-0.1139	27.57	1.59	-0.050			
0.9369	59960.43	3.1840	3.1838	-0.1135	27.55	1.57	-0.050			
0.9370	59967.69	3.1830	3.1830	-0.1133	27.53	1.55	-0.050			
0.9371	59975.22	3.1820	3.1823	-0.1125	27.51	1.53	-0.050			
0.9372	59982.41	3.1810	3.1812	-0.1121	27.49	1.51	-0.050			
0.9373	59989.57	3.1800	3.1802	-0.1117	27.47	1.49	-0.050			
0.9375	59997.11	3.1790	3.1790	-0.1120	27.46	1.48	-0.050			
0.9376	60004.26	3.1780	3.1780	-0.1114	27.45	1.47	-0.050			
0.9377	60011.36	3.1770	3.1769	-0.1107	27.42	1.44	-0.050			
0.9378	60018.39	3.1760	3.1759	-0.1101	27.40	1.42	-0.050			
0.9379	60025.42	3.1750	3.1749	-0.1095	27.38	1.40	-0.050			
0.9380	60032.45	3.1740	3.1740	-0.1089	27.36	1.38	-0.050			
0.9381	60039.40	3.1730	3.1730	-0.1083	27.34	1.36	-0.050			
0.9382	60046.31	3.1720	3.1720	-0.1076	27.32	1.34	-0.050			
0.9383	60052.79	3.1710	3.1711	-0.1078	27.30	1.32	-0.050			
0.9384	60059.67	3.1700	3.1701	-0.1074	27.28	1.30	-0.050			
0.9385	60066.54	3.1690	3.1690	-0.1070	27.26	1.28	-0.050			
0.9386	60073.12	3.1680	3.1681	-0.1062	27.24	1.26	-0.050			
0.9387	60079.91	3.1670	3.1673	-0.1060	27.22	1.24	-0.050			
0.9389	60086.77	3.1660	3.1659	-0.1055	27.20	1.22	-0.050			
0.9390	60093.51	3.1650	3.1650	-0.1052	27.18	1.20	-0.050			
0.9391	60100.24	3.1640	3.1639	-0.1049	27.16	1.18	-0.050			
0.9392	60106.95	3.1630	3.1629	-0.1046	27.14	1.16	-0.050			
0.9393	60113.44	3.1620	3.1620	-0.1040	27.12	1.14	-0.050			
0.9394	60120.09	3.1610	3.1610	-0.1039	27.09	1.11	-0.050			
0.9395	60126.62	3.1600	3.1599	-0.1041	27.07	1.09	-0.050			
0.9396	60133.29	3.1590	3.1589	-0.1041	27.04	1.06	-0.050			
0.9397	60139.95	3.1580	3.1583	-0.1040	27.02	1.04	-0.050			
0.9398	60147.02	3.1570	3.1568	-0.1029	26.99	1.01	-0.050			
0.9399	60153.75	3.1560	3.1558	-0.1032	26.97	0.99	-0.050			
0.9400	60160.34	3.1550	3.1550	-0.1028	26.95	0.97	-0.050			
0.9401	60166.91	3.1540	3.1540	-0.1024	26.93	0.95	-0.050			
0.9402	60173.45	3.1530	3.1528	-0.1019	26.90	0.92	-0.050			
0.9403	60179.96	3.1520	3.1518	-0.1015	26.87	0.89	-0.050			
0.9404	60186.70	3.1510	3.1508	-0.1016	26.85	0.87	-0.050			
0.9405	60193.18	3.1500	3.1501	-0.1009	26.82	0.84	-0.050			
0.9406	60199.60	3.1490	3.1488	-0.1004	26.80	0.82	-0.050			
0.9407	60206.01	3.1480	3.1480	-0.0998	26.78	0.80	-0.050	0.127	0.457	
0.9408	60212.37	3.1470	3.1471	-0.0991	26.76	0.78	-0.050			
0.9409	60218.66	3.1460	3.1461	-0.0985	26.74	0.76	-0.050			
0.9410	60224.94	3.1450	3.1449	-0.0979	26.71	0.73	-0.050			
0.9411	60231.19	3.1440	3.1438	-0.0973	26.69	0.71	-0.050			
0.9412	60237.10	3.1430	3.1428	-0.0973	26.66	0.68	-0.050			
0.9413	60243.32	3.1420	3.1423	-0.0970	26.64	0.66	-0.050			
0.9414	60249.51	3.1410	3.1411	-0.0966	26.62	0.64	-0.050			
0.9415	60255.59	3.1400	3.1399	-0.0961	26.59	0.61	-0.050			
0.9416	60261.73	3.1390	3.1388	-0.0958	26.57	0.59	-0.050			
0.9417	60267.84	3.1380	3.1379	-0.0954	26.55	0.57	-0.050			
0.9418	60273.59	3.1370	3.1370	-0.0945	26.53	0.55	-0.050			
0.9419	60279.73	3.1360	3.1358	-0.0943	26.50	0.52	-0.050			
0.9420	60285.76	3.1350	3.1349	-0.0942	26.48	0.50	-0.050			
0.9421	60291.78	3.1340	3.1339	-0.0941	26.46	0.48	-0.050			
0.9422	60297.80	3.1330	3.1330	-0.0940	26.43	0.45	-0.050			
0.9422	60303.81	3.1320	3.1320	-0.0939	26.41	0.43	-0.050			
0.9423	60309.81	3.1310	3.1310	-0.0937	26.39	0.41	-0.050			
0.9424	60315.84	3.1300	3.1300	-0.0935	26.37	0.39	-0.050			
0.9425	60321.83	3.1290	3.1290	-0.0934	26.34	0.36	-0.050			
0.9426	60327.81	3.1280	3.1281	-0.0933	26.32	0.34	-0.050			
0.9427	60333.77	3.1270	3.1269	-0.0932	26.30	0.32	-0.050			
0.9428	60339.73	3.1260	3.1259	-0.0930	26.28	0.30	-0.050			
0.9429	60345.68	3.1250	3.1249	-0.0929	26.25	0.27	-0.050			
0.9430	60351.62	3.1240	3.1241	-0.0927	26.23	0.25	-0.050			
0.9431	60358.01	3.1230	3.1229	-0.0924	26.21	0.23	-0.050			
0.9432	60363.91	3.1220	3.1218	-0.0920	26.19	0.21	-0.050			
0.9433	60369.78	3.1210	3.1208	-0.0915	26.16	0.18	-0.050			
0.9434	60375.62	3.1200	3.1200	-0.0911	26.14	0.16	-0.050			
0.9435	60381.44	3.1190	3.1191	-0.0906	26.12	0.14	-0.050			
0.9436	60387.23	3.1180	3.1180	-0.0902	26.09	0.11	-0.050			
0.9436	60392.98	3.1170	3.1170	-0.0897	26.07	0.09	-0.050			
0.9437	60398.66	3.1160	3.1161	-0.0896	26.04	0.06	-0.050			
0.9438	60404.38	3.1150	3.1153	-0.0892	26.02	0.04	-0.050			
0.9439	60410.08	3.1140	3.1140	-0.0888	26.00	0.02	-0.050			
0.9440	60415.75	3.1130	3.1130	-0.0884	25.98	-0.00	-0.050			
0.9441	60421.39	3.1120	3.1119	-0.0880	25.96	-0.02	-0.050			
0.9442	60427.01	3.1110	3.1110	-0.0876	25.94	-0.04	-0.050			
0.9443	60432.62	3.1100	3.1100	-0.0872	25.92	-0.06	-0.050			
0.9443	60438.07	3.1090	3.1089	-0.0869	25.90	-0.08	-0.050			
0.9444	60443.63	3.1080	3.1078	-0.0866	25.88	-0.10	-0.050			
0.9445	60449.16	3.1070	3.1068	-0.0863	25.85	-0.13	-0.050			
0.9446	60454.67	3.1060	3.1061	-0.0859	25.83	-0.15	-0.050			
0.9447	60460.16	3.1050	3.1052	-0.0856	25.81	-0.17	-0.050			
0.9448	60465.62	3.1040	3.1039	-0.0852	25.79	-0.19	-0.050			
0.9449	60470.80	3.1030	3.1029	-0.0847	25.77	-0.21	-0.050			
0.9449	60476.22	3.1020	3.1020	-0.0845	25.75	-0.23	-0.050			
0.9450	60481.63	3.1010	3.1013	-0.0844	25.74	-0.24	-0.050			
0.9451	60487.02	3.1000	3.1002	-0.0842	25.71	-0.27	-0.050			
0.9452	60492.40	3.0990	3.0989	-0.0840	25.69	-0.29	-0.050			
0.9453	60497.77	3.0980	3.0979	-0.0838	25.67	-0.31	-0.050			
0.9454	60503.13	3.0970	3.0969	-0.0837	25.65	-0.33	-0.050			
0.9454	60508.56	3.0960	3.0960	-0.0836	25.63	-0.35	-0.050			
0.9455	60513.90	3.0950	3.0950	-0.0834	25.61	-0.37	-0.050			
0.9456	60519.23	3.0940	3.0940	-0.0832	25.60	-0.38	-0.050			
0.9457	60524.55	3.0930	3.0930	-0.0829	25.58	-0.40	-0.050			
0.9458	60529.85	3.0920	3.0920	-0.0827	25.57	-0.41	-0.050			
0.9459	60535.14	3.0910	3.0909	-0.0825	25.55	-0.43	-0.050			
0.9459	60540.41	3.0900	3.0899	-0.0823	25.53	-0.45	-0.050			
0.9460	60545.60	3.0890	3.0889	-0.0820	25.52	-0.46	-0.050			
0.9461	60550.84	3.0880	3.0879	-0.0818	25.50	-0.48	-0.050			
0.9462	60556.07	3.0870	3.0869	-0.0816	25.48	-0.50	-0.050			
0.9463	60561.29	3.0860	3.0860	-0.0815	25.46	-0.52	-0.050			
0.9464	60566.50	3.0850	3.0852	-0.0813	25.44	-0.54	-0.050			
0.9464	60571.70	3.0840	3.0841	-0.0811	25.42	-0.56	-0.050			
0.9465	60576.88	3.0830	3.0831	-0.0810	25.41	-0.57	-0.050			
0.9466	60582.12	3.0820	3.0820	-0.0808	25.39	-0.59	-0.050			
0.9467	60587.40	3.0810	3.0810	-0.0804	25.38	-0.60	-0.050			
0.9468	60592.54	3.0800	3.0800	-0.0802	25.36	-0.62	-0.050			
0.9468	60597.66	3.0790	3.0790	-0.0799	25.34	-0.64	-0.050			
0.9469	60602.76	3.0780	3.0780	-0.0796	25.32	-0.66	-0.050			
0.9470	60607.85	3.0770	3.0770	-0.0793	25.30	-0.68	-0.050			
0.9471	60612.98	3.0760	3.0760	-0.0791	25.29	-0.69	-0.050			
0.9472	60618.04	3.0750	3.0752	-0.0788	25.27	-0.71	-0.050			
0.9472	60623.07	3.0740	3.0741	-0.0785	25.25	-0.73	-0.050			
0.9473	60628.08	3.0730	3.0729	-0.0782	25.24	-0.74	-0.050			
0.9474	60633.08	3.0720	3.0719	-0.0779	25.23	-0.75	-0.050			
0.9475	60638.05	3.0710	3.0709	-0.0775	25.21	-0.77	-0.050			
0.9475	60643.00	3.0700	3.0702	-0.0772	25.20	-0.78	-0.050			
0.9476	60648.00	3.0690	3.0691	-0.0770	25.18	-0.80	-0.050			
0.9477	60652.92	3.0680	3.0680	-0.0766	25.17	-0.81	-0.050			
0.9478	60657.81	3.0670	3.0670	-0.0763	25.15	-0.83	-0.050			
0.9479	60662.57	3.0660	3.0660	-0.0762	25.13	-0.85	-0.050			
0.9479	60667.44	3.0650	3.0650	-0.0759	25.12	-0.86	-0.050			
0.9480	60672.28	3.0640	3.0640	-0.0756	25.10	-0.88	-0.050			
0.9481	60677.11	3.0630	3.0630	-0.0753	25.09	-0.89	-0.050			
0.9482	60681.92	3.0620	3.0620	-0.0750	25.08	-0.90	-0.050			
0.9482	60686.58	3.0610	3.0610	-0.0745	25.06	-0.92	-0.050			
0.9483	60691.34	3.0600	3.0600	-0.0743	25.05	-0.93	-0.050			
0.9484	60696.09	3.0590	3.0591	-0.0741	25.04	-0.94	-0.050			
0.9485	60700.83	3.0580	3.0580	-0.0739	25.03	-0.95	-0.050			
0.9485	60705.55	3.0570	3.0569	-0.0737	25.01	-0.97	-0.050			
0.9486	60710.26	3.0560	3.0559	-0.0734	25.00	-0.98	-0.050			
0.9487	60714.95	3.0550	3.0549	-0.0732	24.99	-0.99	-0.050			
0.9487	60719.63	3.0540	3.0540	-0.0730	24.97	-1.01	-0.050			
0.9488	60724.29	3.0530	3.0530	-0.0728	24.96	-1.02	-0.050			
0.9489	60728.94	3.0520	3.0520	-0.0726	24.94	-1.04	-0.050			
0.9490	60733.58	3.0510	3.0512	-0.0724	24.93	-1.05	-0.050			
0.9490	60738.12	3.0500	3.0500	-0.0723	24.92	-1.06	-0.050			
0.9491	60742.74	3.0490	3.0489	-0.0722	24.91	-1.07	-0.050			
0.9492	60747.36	3.0480	3.0481	-0.0720	24.90	-1.08	-0.050			
0.9492	60751.96	3.0470	3.0471	-0.0718	24.88	-1.10	-0.050			
0.9493	60756.49	3.0460	3.0460	-0.0716	24.87	-1.11	-0.050			
0.9494	60761.07	3.0450	3.0450	-0.0714	24.86	-1.12	-0.050			
0.9495	60765.64	3.0440	3.0440	-0.0713	24.85	-1.13	-0.050			
0.9495	60770.20	3.0430	3.0430	-0.0712	24.84	-1.14	-0.050			
0.9496	60774.73	3.0420	3.0419	-0.0711	24.83	-1.15	-0.050			
0.9497	60779.27	3.0410	3.0409	-0.0710	24.82	-1.16	-0.050			
0.9497	60783.81	3.0400	3.0399	-0.0709	24.81	-1.17	-0.050			
0.9498	60788.34	3.0390	3.0389	-0.0707	24.80	-1.18	-0.050			
0.9499	60792.80	3.0380	3.0379	-0.0705	24.79	-1.19	-0.050			
0.9500	60797.31	3.0370	3.0372	-0.0704	24.78	-1.20	-0.050			
0.9500	60801.81	3.0360	3.0361	-0.0704	24.76	-1.22	-0.050			
0.9501	60806.31	3.0350	3.0351	-0.0703	24.75	-1.23	-0.050			
0.9502	60810.98	3.0340	3.0340	-0.0697	24.74	-1.24	-0.050			
0.9502	60815.43	3.0330	3.0330	-0.0695	24.73	-1.25	-0.050			
0.9503	60819.87	3.0320	3.0320	-0.0693	24.72	-1.26	-0.050			
0.9504	60824.30	3.0310	3.0310	-0.0691	24.71	-1.27	-0.050			
0.9505	60828.94	3.0300	3.0299	-0.0692	24.70	-1.28	-0.050			
0.9505	60833.36	3.0290	3.0289	-0.0689	24.69	-1.29	-0.050			
0.9506	60837.76	3.0280	3.0280	-0.0686	24.68	-1.30	-0.050			
0.9507	60842.14	3.0270	3.0270	-0.0683	24.67	-1.31	-0.050			
0.9507	60846.43	3.0260	3.0260	-0.0682	24.66	-1.32	-0.050			
0.9508	60850.78	3.0250	3.0251	-0.0679	24.65	-1.33	-0.050			
0.9509	60855.12	3.0240	3.0242	-0.0677	24.65	-1.33	-0.050			
0.9509	60859.44	3.0230	3.0231	-0.0674	24.64	-1.34	-0.050			
0.9510	60863.76	3.0220	3.0220	-0.0671	24.63	-1.35	-0.050			
0.9511	60868.05	3.0210	3.0210	-0.0669	24.62	-1.36	-0.050			
0.9511	60872.32	3.0200	3.0199	-0.0666	24.62	-1.36	-0.050			
0.9512	60876.50	3.0190	3.0190	-0.0665	24.61	-1.37	-0.050			
0.9513	60880.75	3.0180	3.0180	-0.0663	24.60	-1.38	-0.050			
0.9513	60884.99	3.0170	3.0170	-0.0660	24.59	-1.39	-0.050			
0.9514	60889.21	3.0160	3.0159	-0.0658	24.58	-1.40	-0.050			
0.9515	60893.41	3.0150	3.0149	-0.0656	24.57	-1.41	-0.050			
0.9515	60897.44	3.0140	3.0141	-0.0652	24.56	-1.42	-0.050			
0.9516	60901.61	3.0130	3.0131	-0.0651	24.55	-1.43	-0.050			
0.9517	60905.77	3.0120	3.0120	-0.0649	24.54	-1.44	-0.050			
0.9517	60909.92	3.0110	3.0111	-0.0648	24.54	-1.44	-0.050			
0.9518	60914.06	3.0100	3.0101	-0.0646	24.54	-1.44	-0.050			
0.9518	60918.19	3.0090	3.0090	-0.0645	24.54	-1.44	-0.050			
0.9519	60922.32	3.0080	3.0080	-0.0644	24.54	-1.44	-0.050			
0.9520	60926.43	3.0070	3.0070	-0.0642	24.54	-1.44	-0.050			
0.9520	60930.61	3.0060	3.0060	-0.0638	24.54	-1.44	-0.050			
0.9521	60934.68	3.0050	3.0049	-0.0636	24.54	-1.44	-0.050			
0.9522	60938.75	3.0040	3.0040	-0.0634	24.54	-1.44	-0.050			
0.9522	60942.80	3.0030	3.0030	-0.0632	24.54	-1.44	-0.050			
