Ah_balance (normalized)	Ah_balance (mAh)	Voltage - fit (V)	Voltage -  interpolate (V)	dQ/dV (1/V)	Temperature (°C)	Temperature - diff (°C)	Current (C)	R_DC 0ms (mOhm)	R_DC 50ms (mOhm)	R_DC 50 ms PEC (mOhm)
-0.0041	-263.84	4.1990	4.1991	0.8616	25.84	-0.09	0.050			
-0.0033	-208.93	4.1980	4.1979	0.8544	25.78	-0.15	0.050			
-0.0024	-155.38	4.1970	4.1969	0.8350	25.73	-0.20	0.050			
-0.0016	-102.57	4.1960	4.1959	0.8297	25.69	-0.24	0.050			
-0.0008	-49.86	4.1950	4.1948	0.8290	25.64	-0.29	0.050			
0.0000	2.40	4.1940	4.1942	0.8296	25.59	-0.34	0.050			
0.0009	56.34	4.1930	4.1931	0.8329	25.54	-0.39	0.050			
0.0017	110.05	4.1920	4.1922	0.8345	25.50	-0.43	0.050			
0.0026	164.12	4.1910	4.1910	0.8347	25.45	-0.48	0.050			
0.0034	217.71	4.1900	4.1899	0.8344	25.40	-0.53	0.050			
0.0042	271.40	4.1890	4.1891	0.8354	25.35	-0.58	0.050			
0.0051	325.98	4.1880	4.1881	0.8345	25.31	-0.62	0.050			
0.0059	379.60	4.1870	4.1873	0.8312	25.25	-0.68	0.050			
0.0068	432.79	4.1860	4.1860	0.8282	25.22	-0.71	0.050			
0.0076	485.64	4.1850	4.1849	0.8273	25.18	-0.75	0.050			
0.0084	538.03	4.1840	4.1842	0.8230	25.14	-0.79	0.050			
0.0092	590.53	4.1830	4.1832	0.8230	25.10	-0.83	0.050			
0.0101	643.24	4.1820	4.1822	0.8250	25.07	-0.86	0.050			
0.0109	696.66	4.1810	4.1810	0.8251	25.04	-0.89	0.050			
0.0117	749.76	4.1800	4.1798	0.8236	25.01	-0.92	0.050			
0.0125	801.91	4.1790	4.1791	0.8228	24.98	-0.95	0.050			
0.0133	854.38	4.1780	4.1780	0.8216	24.95	-0.98	0.050			
0.0141	905.15	4.1770	4.1770	0.8154	24.93	-1.00	0.050			
0.0150	957.43	4.1760	4.1758	0.8169	24.90	-1.03	0.050			
0.0158	1008.97	4.1750	4.1751	0.8177	24.89	-1.04	0.050			
0.0166	1061.75	4.1740	4.1741	0.8173	24.88	-1.05	0.050			
0.0174	1115.25	4.1730	4.1727	0.8174	24.87	-1.06	0.050			
0.0183	1168.49	4.1720	4.1723	0.8171	24.87	-1.06	0.050			
0.0191	1221.10	4.1710	4.1709	0.8148	24.88	-1.05	0.050			
0.0199	1274.13	4.1700	4.1699	0.8115	24.87	-1.06	0.050			
0.0207	1325.50	4.1690	4.1692	0.8095	24.88	-1.05	0.050			
0.0215	1377.82	4.1680	4.1680	0.8101	24.90	-1.03	0.050			
0.0223	1429.66	4.1670	4.1670	0.8109	24.92	-1.01	0.050			
0.0231	1480.72	4.1660	4.1660	0.8086	24.95	-0.98	0.050			
0.0239	1531.72	4.1650	4.1653	0.8062	24.99	-0.94	0.050			
0.0247	1582.96	4.1640	4.1639	0.8055	25.03	-0.90	0.050			
0.0255	1633.92	4.1630	4.1631	0.8062	25.08	-0.85	0.050			
0.0263	1684.02	4.1620	4.1617	0.8049	25.14	-0.79	0.050			
0.0271	1735.84	4.1610	4.1609	0.8066	25.22	-0.71	0.050			
0.0279	1787.56	4.1600	4.1598	0.8089	25.31	-0.62	0.050			
0.0287	1839.57	4.1590	4.1589	0.8081	25.40	-0.53	0.050			
0.0295	1890.36	4.1580	4.1580	0.8105	25.51	-0.42	0.050			
0.0303	1942.30	4.1570	4.1573	0.8121	25.64	-0.29	0.050			
0.0312	1995.01	4.1560	4.1555	0.8114	25.77	-0.16	0.050			
0.0320	2046.79	4.1550	4.1551	0.8144	25.90	-0.03	0.050			
0.0328	2100.15	4.1540	4.1541	0.8203	26.04	0.11	0.050			
0.0336	2153.25	4.1530	4.1529	0.8229	26.19	0.26	0.050			
0.0345	2205.30	4.1520	4.1521	0.8275	26.33	0.40	0.050			
0.0353	2257.88	4.1510	4.1512	0.8299	26.48	0.55	0.050			
0.0361	2310.78	4.1500	4.1500	0.8329	26.61	0.68	0.050			
0.0369	2363.38	4.1490	4.1489	0.8332	26.75	0.82	0.050			
0.0378	2416.03	4.1480	4.1482	0.8384	26.86	0.93	0.050			
0.0386	2469.75	4.1470	4.1471	0.8409	26.96	1.03	0.050			
0.0394	2524.14	4.1460	4.1459	0.8441	27.07	1.14	0.050			
0.0403	2578.23	4.1450	4.1450	0.8471	27.16	1.23	0.050			
0.0411	2633.24	4.1440	4.1441	0.8485	27.22	1.29	0.050			
0.0420	2687.51	4.1430	4.1427	0.8511	27.23	1.30	0.050			
0.0428	2741.98	4.1420	4.1418	0.8540	27.20	1.27	0.050			
0.0437	2797.76	4.1410	4.1411	0.8569	27.15	1.22	0.050			
0.0446	2852.98	4.1400	4.1400	0.8605	27.09	1.16	0.050			
0.0454	2907.83	4.1390	4.1391	0.8626	27.04	1.11	0.050			
0.0463	2963.56	4.1380	4.1382	0.8628	26.97	1.04	0.050			
0.0472	3019.71	4.1370	4.1371	0.8653	26.92	0.99	0.050			
0.0481	3075.32	4.1360	4.1356	0.8680	26.86	0.93	0.050			
0.0489	3130.61	4.1350	4.1352	0.8702	26.80	0.87	0.050			
0.0498	3185.33	4.1340	4.1338	0.8699	26.75	0.82	0.050			
0.0507	3241.82	4.1330	4.1330	0.8696	26.68	0.75	0.050			
0.0515	3296.12	4.1320	4.1321	0.8701	26.62	0.69	0.050			
0.0524	3352.22	4.1310	4.1309	0.8711	26.56	0.63	0.050			
0.0533	3408.56	4.1300	4.1300	0.8718	26.50	0.57	0.050			
0.0541	3464.72	4.1290	4.1291	0.8722	26.43	0.50	0.050			
0.0550	3521.06	4.1280	4.1280	0.8707	26.38	0.45	0.050			
0.0559	3577.28	4.1270	4.1268	0.8715	26.33	0.40	0.050			
0.0568	3633.77	4.1260	4.1259	0.8729	26.25	0.32	0.050			
0.0576	3689.38	4.1250	4.1250	0.8694	26.20	0.27	0.050			
0.0585	3745.25	4.1240	4.1239	0.8719	26.14	0.21	0.050			
0.0594	3801.24	4.1230	4.1229	0.8690	26.07	0.14	0.050			
0.0602	3855.86	4.1220	4.1223	0.8710	26.01	0.08	0.050			
0.0611	3911.56	4.1210	4.1210	0.8719	25.96	0.03	0.050			
0.0620	3966.44	4.1200	4.1200	0.8724	25.90	-0.03	0.050			
0.0628	4022.25	4.1190	4.1188	0.8717	25.84	-0.09	0.050			
0.0637	4077.96	4.1180	4.1181	0.8747	25.79	-0.14	0.050			
0.0646	4134.52	4.1170	4.1169	0.8734	25.73	-0.20	0.050			
0.0655	4189.94	4.1160	4.1160	0.8702	25.67	-0.26	0.050			
0.0663	4245.86	4.1150	4.1150	0.8715	25.61	-0.32	0.050			
0.0672	4302.18	4.1140	4.1142	0.8708	25.55	-0.38	0.050			
0.0681	4358.28	4.1130	4.1128	0.8697	25.49	-0.44	0.050			
0.0690	4413.69	4.1120	4.1121	0.8695	25.44	-0.49	0.050			
0.0698	4469.71	4.1110	4.1110	0.8735	25.38	-0.55	0.050			
0.0707	4525.68	4.1100	4.1102	0.8765	25.32	-0.61	0.050			
0.0716	4581.80	4.1090	4.1089	0.8769	25.26	-0.67	0.050			
0.0725	4637.96	4.1080	4.1081	0.8769	25.20	-0.73	0.050			
0.0733	4693.83	4.1070	4.1068	0.8756	25.13	-0.80	0.050			
0.0742	4750.23	4.1060	4.1060	0.8742	25.05	-0.88	0.050			
0.0751	4805.92	4.1050	4.1049	0.8754	24.98	-0.95	0.050			
0.0759	4860.47	4.1040	4.1038	0.8754	24.91	-1.02	0.050			
0.0768	4917.24	4.1030	4.1029	0.8758	24.84	-1.09	0.050			
0.0777	4972.92	4.1020	4.1019	0.8722	24.77	-1.16	0.050			
0.0786	5029.48	4.1010	4.1012	0.8725	24.69	-1.24	0.050			
0.0795	5085.53	4.1000	4.1001	0.8732	24.62	-1.31	0.050			
0.0803	5141.56	4.0990	4.0993	0.8734	24.53	-1.40	0.050			
0.0812	5198.31	4.0980	4.0981	0.8733	24.46	-1.47	0.050			
0.0821	5254.87	4.0970	4.0970	0.8739	24.38	-1.55	0.050			
0.0830	5311.45	4.0960	4.0958	0.8728	24.31	-1.62	0.050			
0.0839	5367.29	4.0950	4.0951	0.8704	24.24	-1.69	0.050			
0.0847	5423.30	4.0940	4.0942	0.8670	24.17	-1.76	0.050			
0.0856	5478.88	4.0930	4.0930	0.8630	24.11	-1.82	0.050			
0.0865	5533.09	4.0920	4.0919	0.8600	24.05	-1.88	0.050			
0.0873	5587.84	4.0910	4.0909	0.8565	24.01	-1.92	0.050			
0.0882	5643.41	4.0900	4.0901	0.8548	23.97	-1.96	0.050			
0.0890	5697.99	4.0890	4.0890	0.8540	23.94	-1.99	0.050			
0.0899	5753.12	4.0880	4.0880	0.8498	23.92	-2.01	0.050			
0.0907	5807.71	4.0870	4.0870	0.8455	23.91	-2.02	0.050			
0.0916	5861.40	4.0860	4.0861	0.8437	23.91	-2.02	0.050			
0.0924	5915.05	4.0850	4.0849	0.8376	23.92	-2.01	0.050			
0.0933	5968.81	4.0840	4.0839	0.8332	23.95	-1.98	0.050			
0.0941	6022.33	4.0830	4.0828	0.8332	23.98	-1.95	0.050			
0.0949	6075.63	4.0820	4.0822	0.8318	24.03	-1.90	0.050			
0.0958	6128.07	4.0810	4.0808	0.8296	24.10	-1.83	0.050			
0.0965	6178.89	4.0800	4.0801	0.8293	24.17	-1.76	0.050			
0.0974	6231.46	4.0790	4.0790	0.8292	24.25	-1.68	0.050			
0.0982	6284.43	4.0780	4.0781	0.8280	24.36	-1.57	0.050			
0.0990	6337.60	4.0770	4.0769	0.8265	24.46	-1.47	0.050			
0.0998	6390.11	4.0760	4.0761	0.8268	24.59	-1.34	0.050			
0.1007	6442.76	4.0750	4.0748	0.8272	24.74	-1.19	0.050			
0.1015	6495.39	4.0740	4.0738	0.8286	24.89	-1.04	0.050			
0.1023	6548.50	4.0730	4.0730	0.8298	25.05	-0.88	0.050			
0.1031	6601.01	4.0720	4.0719	0.8292	25.24	-0.69	0.050			
0.1040	6653.89	4.0710	4.0710	0.8352	25.43	-0.50	0.050			
0.1048	6707.14	4.0700	4.0701	0.8376	25.64	-0.29	0.050			
0.1056	6761.30	4.0690	4.0692	0.8413	25.86	-0.07	0.050			
0.1065	6814.84	4.0680	4.0680	0.8437	26.07	0.14	0.050			
0.1073	6869.33	4.0670	4.0669	0.8491	26.30	0.37	0.050			
0.1082	6923.15	4.0660	4.0661	0.8512	26.52	0.59	0.050			
0.1090	6978.44	4.0650	4.0649	0.8561	26.73	0.80	0.050			
0.1099	7032.99	4.0640	4.0638	0.8609	26.95	1.02	0.050			
0.1107	7087.58	4.0630	4.0630	0.8607	27.14	1.21	0.050			
0.1116	7143.07	4.0620	4.0622	0.8625	27.32	1.39	0.050			
0.1125	7197.83	4.0610	4.0611	0.8676	27.48	1.55	0.050			
0.1133	7253.67	4.0600	4.0601	0.8708	27.62	1.69	0.050			
0.1142	7308.94	4.0590	4.0589	0.8756	27.71	1.78	0.050			
0.1151	7365.51	4.0580	4.0579	0.8855	27.74	1.81	0.050			
0.1160	7423.05	4.0570	4.0569	0.8900	27.73	1.80	0.050			
0.1169	7479.45	4.0560	4.0560	0.8941	27.69	1.76	0.050			
0.1178	7537.66	4.0550	4.0550	0.8958	27.65	1.72	0.050			
0.1187	7595.84	4.0540	4.0539	0.8977	27.60	1.67	0.050			
0.1196	7653.55	4.0530	4.0531	0.8991	27.55	1.62	0.050			
0.1205	7710.66	4.0520	4.0518	0.9046	27.50	1.57	0.050			
0.1214	7768.82	4.0510	4.0513	0.9054	27.45	1.52	0.050			
0.1223	7827.70	4.0500	4.0499	0.9088	27.40	1.47	0.050			
0.1232	7886.52	4.0490	4.0490	0.9104	27.35	1.42	0.050			
0.1241	7945.27	4.0480	4.0482	0.9107	27.29	1.36	0.050			
0.1251	8003.58	4.0470	4.0472	0.9129	27.24	1.31	0.050			
0.1260	8062.32	4.0460	4.0460	0.9142	27.20	1.27	0.050			
0.1269	8121.17	4.0450	4.0449	0.9168	27.14	1.21	0.050			
0.1278	8179.33	4.0440	4.0439	0.9178	27.09	1.16	0.050			
0.1287	8238.20	4.0430	4.0428	0.9191	27.03	1.10	0.050			
0.1296	8297.40	4.0420	4.0420	0.9204	26.97	1.04	0.050			
0.1306	8355.84	4.0410	4.0412	0.9167	26.90	0.97	0.050			
0.1315	8414.58	4.0400	4.0399	0.9183	26.84	0.91	0.050			
0.1324	8472.50	4.0390	4.0390	0.9181	26.79	0.86	0.050			
0.1333	8530.95	4.0380	4.0379	0.9188	26.72	0.79	0.050			
0.1342	8590.31	4.0370	4.0372	0.9216	26.66	0.73	0.050			
0.1352	8650.38	4.0360	4.0359	0.9225	26.59	0.66	0.050			
0.1361	8709.49	4.0350	4.0352	0.9220	26.52	0.59	0.050			
0.1370	8768.64	4.0340	4.0341	0.9228	26.47	0.54	0.050			
0.1379	8827.23	4.0330	4.0331	0.9210	26.41	0.48	0.050			
0.1388	8885.10	4.0320	4.0319	0.9229	26.35	0.42	0.050			
0.1398	8945.44	4.0310	4.0307	0.9266	26.27	0.34	0.050			
0.1407	9004.56	4.0300	4.0300	0.9318	26.22	0.29	0.050			
0.1416	9064.27	4.0290	4.0291	0.9312	26.16	0.23	0.050			
0.1426	9124.49	4.0280	4.0280	0.9282	26.09	0.16	0.050			
0.1435	9183.33	4.0270	4.0270	0.9297	26.04	0.11	0.050			
0.1444	9243.07	4.0260	4.0259	0.9295	25.97	0.04	0.050			
0.1454	9302.45	4.0250	4.0249	0.9284	25.91	-0.02	0.050			
0.1463	9362.79	4.0240	4.0240	0.9295	25.85	-0.08	0.050			
0.1472	9421.37	4.0230	4.0228	0.9313	25.79	-0.14	0.050			
0.1482	9482.31	4.0220	4.0220	0.9312	25.72	-0.21	0.050			
0.1491	9541.31	4.0210	4.0209	0.9322	25.67	-0.26	0.050			
0.1500	9600.85	4.0200	4.0202	0.9324	25.61	-0.32	0.050			
0.1509	9660.19	4.0190	4.0189	0.9324	25.54	-0.39	0.050			
0.1519	9719.98	4.0180	4.0178	0.9355	25.48	-0.45	0.050			
0.1528	9779.64	4.0170	4.0171	0.9366	25.43	-0.50	0.050			
0.1538	9840.34	4.0160	4.0160	0.9375	25.36	-0.57	0.050			
0.1547	9900.27	4.0150	4.0150	0.9380	25.30	-0.63	0.050			
0.1556	9959.60	4.0140	4.0139	0.9376	25.24	-0.69	0.050			
0.1566	10019.80	4.0130	4.0131	0.9372	25.18	-0.75	0.050			
0.1575	10080.35	4.0120	4.0118	0.9337	25.11	-0.82	0.050			
0.1584	10139.93	4.0110	4.0110	0.9340	25.04	-0.89	0.050			
0.1594	10199.57	4.0100	4.0101	0.9382	24.97	-0.96	0.050			
0.1603	10260.88	4.0090	4.0088	0.9394	24.90	-1.03	0.050			
0.1613	10322.06	4.0080	4.0080	0.9395	24.82	-1.11	0.050			
0.1622	10381.49	4.0070	4.0073	0.9374	24.74	-1.19	0.050			
0.1632	10442.41	4.0060	4.0061	0.9386	24.66	-1.27	0.050			
0.1641	10502.53	4.0050	4.0051	0.9366	24.59	-1.34	0.050			
0.1650	10562.41	4.0040	4.0042	0.9354	24.49	-1.44	0.050			
0.1660	10621.77	4.0030	4.0029	0.9321	24.43	-1.50	0.050			
0.1669	10681.58	4.0020	4.0021	0.9310	24.35	-1.58	0.050			
0.1678	10740.72	4.0010	4.0010	0.9299	24.28	-1.65	0.050			
0.1688	10800.48	4.0000	4.0005	0.9287	24.20	-1.73	0.050			
0.1697	10859.35	3.9990	3.9990	0.9277	24.14	-1.79	0.050			
0.1706	10917.57	3.9980	3.9980	0.9293	24.08	-1.85	0.050			
0.1715	10976.89	3.9970	3.9970	0.9300	24.02	-1.91	0.050			
0.1724	11036.59	3.9960	3.9960	0.9305	23.98	-1.95	0.050			
0.1734	11096.90	3.9950	3.9950	0.9288	23.95	-1.98	0.050			
0.1743	11156.15	3.9940	3.9941	0.9262	23.94	-1.99	0.050			
0.1753	11217.13	3.9930	3.9927	0.9253	23.92	-2.01	0.050			
0.1762	11276.76	3.9920	3.9919	0.9203	23.92	-2.01	0.050			
0.1771	11335.88	3.9910	3.9910	0.9178	23.93	-2.00	0.050			
0.1780	11393.93	3.9900	3.9898	0.9116	23.96	-1.97	0.050			
0.1790	11454.05	3.9890	3.9892	0.9099	24.00	-1.93	0.050			
0.1799	11512.76	3.9880	3.9882	0.9053	24.05	-1.88	0.050			
0.1808	11569.73	3.9870	3.9873	0.9027	24.12	-1.81	0.050			
0.1817	11627.18	3.9860	3.9861	0.9016	24.21	-1.72	0.050			
0.1826	11684.50	3.9850	3.9849	0.8991	24.29	-1.64	0.050			
0.1835	11741.78	3.9840	3.9842	0.8943	24.41	-1.52	0.050			
0.1844	11798.78	3.9830	3.9829	0.8913	24.52	-1.41	0.050			
0.1852	11854.87	3.9820	3.9818	0.8897	24.66	-1.27	0.050			
0.1861	11910.01	3.9810	3.9809	0.8886	24.82	-1.11	0.050			
0.1870	11965.70	3.9800	3.9801	0.8906	24.99	-0.94	0.050			
0.1878	12021.22	3.9790	3.9789	0.8907	25.18	-0.75	0.050			
0.1887	12076.97	3.9780	3.9779	0.8916	25.39	-0.54	0.050			
0.1896	12133.64	3.9770	3.9771	0.8977	25.61	-0.32	0.050			
0.1905	12191.65	3.9760	3.9761	0.9037	25.84	-0.09	0.050			
0.1914	12250.07	3.9750	3.9751	0.9080	26.08	0.15	0.050			
0.1923	12307.58	3.9740	3.9739	0.9144	26.32	0.39	0.050			
0.1932	12365.97	3.9730	3.9730	0.9201	26.56	0.63	0.050			
0.1941	12425.56	3.9720	3.9721	0.9256	26.81	0.88	0.050			
0.1951	12484.54	3.9710	3.9710	0.9348	27.02	1.09	0.050			
0.1960	12544.33	3.9700	3.9701	0.9421	27.25	1.32	0.050			
0.1970	12605.06	3.9690	3.9691	0.9485	27.44	1.51	0.050			
0.1979	12666.55	3.9680	3.9680	0.9543	27.59	1.66	0.050			
0.1989	12728.01	3.9670	3.9669	0.9561	27.70	1.77	0.050			
0.1998	12790.08	3.9660	3.9659	0.9631	27.74	1.81	0.050			
0.2008	12852.84	3.9650	3.9647	0.9684	27.72	1.79	0.050			
0.2018	12915.50	3.9640	3.9641	0.9718	27.69	1.76	0.050			
0.2028	12978.41	3.9630	3.9632	0.9755	27.64	1.71	0.050			
0.2038	13040.76	3.9620	3.9618	0.9777	27.59	1.66	0.050			
0.2047	13102.85	3.9610	3.9611	0.9818	27.55	1.62	0.050			
0.2057	13165.87	3.9600	3.9600	0.9848	27.52	1.59	0.050			
0.2067	13229.09	3.9590	3.9590	0.9908	27.47	1.54	0.050			
0.2077	13292.94	3.9580	3.9578	0.9930	27.42	1.49	0.050			
0.2087	13356.82	3.9570	3.9568	0.9938	27.37	1.44	0.050			
0.2097	13420.07	3.9560	3.9560	0.9998	27.32	1.39	0.050			
0.2107	13484.02	3.9550	3.9549	1.0022	27.27	1.34	0.050			
0.2117	13546.98	3.9540	3.9540	1.0042	27.22	1.29	0.050			
0.2127	13612.62	3.9530	3.9531	1.0045	27.16	1.23	0.050			
0.2137	13677.81	3.9520	3.9519	1.0041	27.11	1.18	0.050			
0.2147	13741.70	3.9510	3.9509	1.0043	27.05	1.12	0.050			
0.2157	13807.82	3.9500	3.9496	1.0039	26.99	1.06	0.050			
0.2168	13872.62	3.9490	3.9490	1.0087	26.93	1.00	0.050			
0.2178	13937.42	3.9480	3.9480	1.0086	26.86	0.93	0.050			
0.2188	14003.40	3.9470	3.9469	1.0074	26.81	0.88	0.050			
0.2198	14067.63	3.9460	3.9461	1.0068	26.73	0.80	0.050			
0.2208	14132.10	3.9450	3.9449	1.0056	26.67	0.74	0.050			
0.2218	14195.96	3.9440	3.9441	1.0055	26.60	0.67	0.050			
0.2228	14259.98	3.9430	3.9426	1.0047	26.53	0.60	0.050			
0.2238	14323.58	3.9420	3.9420	1.0026	26.46	0.53	0.050			
0.2248	14386.94	3.9410	3.9410	1.0010	26.39	0.46	0.050			
0.2258	14450.86	3.9400	3.9400	1.0038	26.31	0.38	0.050			
0.2268	14514.21	3.9390	3.9391	1.0040	26.25	0.32	0.050			
0.2278	14578.76	3.9380	3.9381	1.0062	26.18	0.25	0.050			
0.2288	14642.63	3.9370	3.9368	1.0066	26.10	0.17	0.050			
0.2298	14706.05	3.9360	3.9361	1.0059	26.03	0.10	0.050			
0.2308	14771.58	3.9350	3.9350	1.0066	25.95	0.02	0.050			
0.2318	14837.07	3.9340	3.9341	1.0084	25.89	-0.04	0.050			
0.2329	14902.53	3.9330	3.9328	1.0117	25.81	-0.12	0.050			
0.2339	14967.91	3.9320	3.9318	1.0108	25.74	-0.19	0.050			
0.2349	15032.01	3.9310	3.9310	1.0122	25.65	-0.28	0.050			
0.2359	15096.03	3.9300	3.9300	1.0160	25.58	-0.35	0.050			
0.2369	15160.44	3.9290	3.9290	1.0159	25.49	-0.44	0.050			
0.2379	15226.50	3.9280	3.9280	1.0198	25.42	-0.51	0.050			
0.2389	15292.53	3.9270	3.9270	1.0206	25.33	-0.60	0.050			
0.2400	15357.43	3.9260	3.9258	1.0198	25.27	-0.66	0.050			
0.2410	15422.60	3.9250	3.9251	1.0218	25.18	-0.75	0.050			
0.2420	15488.07	3.9240	3.9236	1.0240	25.09	-0.84	0.050			
0.2430	15553.61	3.9230	3.9230	1.0246	25.00	-0.93	0.050			
0.2440	15618.70	3.9220	3.9218	1.0255	24.91	-1.02	0.050			
0.2451	15684.65	3.9210	3.9210	1.0266	24.83	-1.10	0.050			
0.2461	15750.36	3.9200	3.9201	1.0263	24.72	-1.21	0.050			
0.2471	15816.53	3.9190	3.9191	1.0280	24.61	-1.32	0.050			
0.2482	15883.21	3.9180	3.9179	1.0275	24.51	-1.42	0.050			
0.2492	15950.13	3.9170	3.9171	1.0260	24.40	-1.53	0.050			
0.2503	16016.67	3.9160	3.9160	1.0218	24.28	-1.65	0.050			
0.2513	16083.02	3.9150	3.9152	1.0214	24.16	-1.77	0.050			
0.2523	16149.59	3.9140	3.9140	1.0163	24.05	-1.88	0.050			
0.2533	16213.57	3.9130	3.9130	1.0104	23.94	-1.99	0.050			
0.2543	16278.10	3.9120	3.9121	1.0092	23.84	-2.09	0.050			
0.2553	16341.35	3.9110	3.9110	1.0044	23.75	-2.18	0.050			
0.2563	16405.35	3.9100	3.9102	0.9997	23.66	-2.27	0.050			
0.2573	16469.25	3.9090	3.9090	0.9976	23.58	-2.35	0.050			
0.2583	16532.96	3.9080	3.9080	0.9972	23.51	-2.42	0.050			
0.2593	16596.75	3.9070	3.9070	0.9927	23.47	-2.46	0.050			
0.2603	16660.88	3.9060	3.9058	0.9894	23.43	-2.50	0.050			
0.2613	16723.63	3.9050	3.9051	0.9806	23.41	-2.52	0.050			
0.2623	16786.30	3.9040	3.9036	0.9794	23.41	-2.52	0.050			
0.2633	16848.61	3.9030	3.9029	0.9752	23.42	-2.51	0.050			
0.2642	16909.61	3.9020	3.9023	0.9745	23.47	-2.46	0.050			
0.2652	16971.87	3.9010	3.9008	0.9745	23.53	-2.40	0.050			
0.2662	17034.19	3.9000	3.9003	0.9729	23.61	-2.32	0.050			
0.2671	17097.52	3.8990	3.8992	0.9686	23.71	-2.22	0.050			
0.2681	17160.18	3.8980	3.8981	0.9664	23.83	-2.10	0.050			
0.2691	17221.01	3.8970	3.8971	0.9649	23.96	-1.97	0.050			
0.2700	17282.19	3.8960	3.8958	0.9672	24.11	-1.82	0.050			
0.2710	17343.28	3.8950	3.8947	0.9652	24.30	-1.63	0.050			
0.2720	17404.91	3.8940	3.8941	0.9663	24.50	-1.43	0.050			
0.2729	17465.27	3.8930	3.8929	0.9652	24.72	-1.21	0.050			
0.2738	17525.75	3.8920	3.8920	0.9665	24.95	-0.98	0.050			
0.2748	17588.25	3.8910	3.8913	0.9721	25.21	-0.72	0.050			
0.2758	17650.40	3.8900	3.8900	0.9740	25.48	-0.45	0.050			
0.2767	17711.59	3.8890	3.8889	0.9779	25.76	-0.17	0.050			
0.2777	17774.20	3.8880	3.8876	0.9824	26.04	0.11	0.050			
0.2787	17837.59	3.8870	3.8871	0.9890	26.33	0.40	0.050			
0.2797	17900.26	3.8860	3.8862	0.9975	26.61	0.68	0.050			
0.2807	17963.90	3.8850	3.8850	1.0041	26.88	0.95	0.050			
0.2817	18027.45	3.8840	3.8838	1.0070	27.13	1.20	0.050			
0.2827	18092.28	3.8830	3.8831	1.0131	27.36	1.43	0.050			
0.2837	18156.78	3.8820	3.8821	1.0187	27.53	1.60	0.050			
0.2847	18222.15	3.8810	3.8808	1.0278	27.66	1.73	0.050			
0.2858	18290.20	3.8800	3.8799	1.0332	27.72	1.79	0.050			
0.2868	18358.03	3.8790	3.8791	1.0398	27.69	1.76	0.050			
0.2879	18424.58	3.8780	3.8779	1.0440	27.65	1.72	0.050			
0.2889	18491.74	3.8770	3.8769	1.0429	27.62	1.69	0.050			
0.2900	18559.13	3.8760	3.8760	1.0458	27.58	1.65	0.050			
0.2910	18627.05	3.8750	3.8751	1.0489	27.54	1.61	0.050			
0.2921	18695.11	3.8740	3.8742	1.0514	27.50	1.57	0.050			
0.2932	18761.96	3.8730	3.8732	1.0561	27.45	1.52	0.050			
0.2942	18829.93	3.8720	3.8722	1.0580	27.41	1.48	0.050			
0.2953	18898.33	3.8710	3.8713	1.0570	27.36	1.43	0.050			
0.2964	18966.80	3.8700	3.8700	1.0557	27.31	1.38	0.050			
0.2974	19034.12	3.8690	3.8689	1.0533	27.28	1.35	0.050			
0.2985	19101.38	3.8680	3.8680	1.0539	27.23	1.30	0.050			
0.2995	19168.47	3.8670	3.8668	1.0535	27.18	1.25	0.050			
0.3006	19235.24	3.8660	3.8659	1.0515	27.13	1.20	0.050			
0.3016	19303.11	3.8650	3.8648	1.0482	27.09	1.16	0.050			
0.3027	19371.20	3.8640	3.8637	1.0492	27.04	1.11	0.050			
0.3037	19437.96	3.8630	3.8633	1.0475	26.98	1.05	0.050			
0.3048	19505.97	3.8620	3.8620	1.0424	26.95	1.02	0.050			
0.3058	19573.81	3.8610	3.8610	1.0389	26.90	0.97	0.050			
0.3069	19641.46	3.8600	3.8600	1.0366	26.86	0.93	0.050			
0.3079	19707.79	3.8590	3.8588	1.0310	26.81	0.88	0.050			
0.3090	19774.07	3.8580	3.8581	1.0230	26.77	0.84	0.050			
0.3100	19840.31	3.8570	3.8570	1.0191	26.72	0.79	0.050			
0.3110	19904.51	3.8560	3.8561	1.0125	26.70	0.77	0.050			
0.3120	19969.30	3.8550	3.8548	1.0056	26.65	0.72	0.050			
0.3130	20033.31	3.8540	3.8542	0.9966	26.62	0.69	0.050			
0.3140	20096.22	3.8530	3.8530	0.9885	26.58	0.65	0.050			
0.3150	20160.57	3.8520	3.8520	0.9838	26.54	0.61	0.050			
0.3160	20223.25	3.8510	3.8506	0.9781	26.50	0.57	0.050			
0.3170	20286.10	3.8500	3.8500	0.9685	26.47	0.54	0.050			
0.3179	20347.54	3.8490	3.8492	0.9581	26.45	0.52	0.050			
0.3189	20408.37	3.8480	3.8477	0.9480	26.42	0.49	0.050			
0.3198	20468.82	3.8470	3.8470	0.9410	26.39	0.46	0.050			
0.3208	20529.14	3.8460	3.8460	0.9325	26.37	0.44	0.050			
0.3217	20589.71	3.8450	3.8449	0.9228	26.36	0.43	0.050			
0.3226	20648.18	3.8440	3.8442	0.9120	26.35	0.42	0.050			
0.3235	20707.17	3.8430	3.8432	0.9031	26.31	0.38	0.050			
0.3245	20765.42	3.8420	3.8420	0.8946	26.26	0.33	0.050			
0.3254	20822.46	3.8410	3.8413	0.8839	26.22	0.29	0.050			
0.3262	20878.00	3.8400	3.8404	0.8716	26.16	0.23	0.050			
0.3271	20933.39	3.8390	3.8389	0.8605	26.11	0.18	0.050			
0.3279	20988.80	3.8380	3.8380	0.8502	26.07	0.14	0.050			
0.3288	21042.51	3.8370	3.8371	0.8384	26.02	0.09	0.050			
0.3296	21095.52	3.8360	3.8362	0.8238	25.97	0.04	0.050			
0.3304	21148.31	3.8350	3.8349	0.8127	25.94	0.01	0.050			
0.3312	21199.70	3.8340	3.8340	0.8026	25.90	-0.03	0.050			
0.3320	21250.17	3.8330	3.8329	0.7930	25.86	-0.07	0.050			
0.3328	21300.16	3.8320	3.8321	0.7809	25.82	-0.11	0.050			
0.3336	21349.69	3.8310	3.8310	0.7708	25.78	-0.15	0.050			
0.3344	21399.03	3.8300	3.8300	0.7610	25.75	-0.18	0.050			
0.3351	21447.92	3.8290	3.8293	0.7517	25.70	-0.23	0.050			
0.3359	21494.69	3.8280	3.8279	0.7415	25.67	-0.26	0.050			
0.3366	21540.76	3.8270	3.8272	0.7319	25.64	-0.29	0.050			
0.3373	21587.35	3.8260	3.8258	0.7227	25.61	-0.32	0.050			
0.3380	21633.63	3.8250	3.8251	0.7158	25.58	-0.35	0.050			
0.3387	21678.37	3.8240	3.8241	0.7060	25.54	-0.39	0.050			
0.3394	21723.03	3.8230	3.8231	0.6993	25.52	-0.41	0.050			
0.3401	21766.10	3.8220	3.8223	0.6968	25.49	-0.44	0.050			
0.3408	21809.80	3.8210	3.8209	0.6913	25.47	-0.46	0.050			
0.3415	21853.34	3.8200	3.8202	0.6863	25.44	-0.49	0.050			
0.3421	21896.50	3.8190	3.8189	0.6820	25.42	-0.51	0.050			
0.3428	21940.42	3.8180	3.8180	0.6788	25.41	-0.52	0.050			
0.3435	21983.59	3.8170	3.8172	0.6761	25.39	-0.54	0.050			
0.3442	22026.29	3.8160	3.8159	0.6737	25.37	-0.56	0.050			
0.3448	22069.27	3.8150	3.8149	0.6723	25.36	-0.57	0.050			
0.3455	22110.44	3.8140	3.8140	0.6702	25.36	-0.57	0.050			
0.3461	22152.84	3.8130	3.8131	0.6713	25.34	-0.59	0.050			
0.3468	22195.58	3.8120	3.8120	0.6712	25.32	-0.61	0.050			
0.3475	22238.97	3.8110	3.8113	0.6736	25.33	-0.60	0.050			
0.3482	22281.99	3.8100	3.8099	0.6737	25.34	-0.59	0.050			
0.3488	22324.57	3.8090	3.8089	0.6768	25.34	-0.59	0.050			
0.3495	22366.89	3.8080	3.8080	0.6804	25.33	-0.60	0.050			
0.3502	22409.73	3.8070	3.8068	0.6837	25.34	-0.59	0.050			
0.3508	22453.54	3.8060	3.8059	0.6882	25.36	-0.57	0.050			
0.3515	22497.52	3.8050	3.8049	0.6941	25.37	-0.56	0.050			
0.3522	22541.53	3.8040	3.8042	0.6979	25.39	-0.54	0.050			
0.3529	22586.13	3.8030	3.8032	0.7022	25.42	-0.51	0.050			
0.3536	22629.98	3.8020	3.8020	0.7064	25.45	-0.48	0.050			
0.3543	22674.99	3.8010	3.8011	0.7135	25.49	-0.44	0.050			
0.3550	22721.88	3.8000	3.7998	0.7221	25.53	-0.40	0.050			
0.3558	22768.82	3.7990	3.7989	0.7280	25.59	-0.34	0.050			
0.3565	22815.48	3.7980	3.7981	0.7351	25.66	-0.27	0.050			
0.3572	22861.78	3.7970	3.7972	0.7459	25.73	-0.20	0.050			
0.3580	22909.03	3.7960	3.7960	0.7538	25.81	-0.12	0.050			
0.3587	22957.34	3.7950	3.7949	0.7616	25.90	-0.03	0.050			
0.3595	23005.90	3.7940	3.7939	0.7715	26.01	0.08	0.050			
0.3602	23054.92	3.7930	3.7929	0.7814	26.14	0.21	0.050			
0.3610	23104.43	3.7920	3.7921	0.7965	26.26	0.33	0.050			
0.3618	23155.90	3.7910	3.7912	0.8084	26.39	0.46	0.050			
0.3626	23207.54	3.7900	3.7901	0.8201	26.51	0.58	0.050			
0.3634	23259.40	3.7890	3.7890	0.8312	26.63	0.70	0.050			
0.3643	23312.42	3.7880	3.7879	0.8440	26.75	0.82	0.050			
0.3651	23367.29	3.7870	3.7872	0.8554	26.86	0.93	0.050			
0.3660	23423.56	3.7860	3.7859	0.8674	26.96	1.03	0.050			
0.3669	23480.30	3.7850	3.7848	0.8786	27.05	1.12	0.050			
0.3678	23537.11	3.7840	3.7839	0.8921	27.12	1.19	0.050			
0.3687	23595.33	3.7830	3.7829	0.9021	27.16	1.23	0.050			
0.3696	23653.78	3.7820	3.7821	0.9124	27.17	1.24	0.050			
0.3705	23712.79	3.7810	3.7812	0.9254	27.14	1.21	0.050			
0.3715	23773.23	3.7800	3.7800	0.9357	27.08	1.15	0.050			
0.3724	23833.89	3.7790	3.7792	0.9447	27.01	1.08	0.050			
0.3734	23894.48	3.7780	3.7781	0.9533	26.97	1.04	0.050			
0.3743	23955.25	3.7770	3.7768	0.9598	26.91	0.98	0.050			
0.3753	24017.76	3.7760	3.7759	0.9672	26.84	0.91	0.050			
0.3763	24080.07	3.7750	3.7749	0.9750	26.78	0.85	0.050			
0.3772	24142.34	3.7740	3.7740	0.9825	26.72	0.79	0.050			
0.3782	24205.85	3.7730	3.7731	0.9892	26.66	0.73	0.050			
0.3792	24268.43	3.7720	3.7719	0.9958	26.60	0.67	0.050			
0.3802	24333.71	3.7710	3.7712	1.0026	26.52	0.59	0.050			
0.3812	24398.04	3.7700	3.7700	1.0110	26.46	0.53	0.050			
0.3822	24461.91	3.7690	3.7690	1.0196	26.39	0.46	0.050			
0.3832	24527.98	3.7680	3.7680	1.0288	26.32	0.39	0.050			
0.3843	24593.54	3.7670	3.7671	1.0379	26.25	0.32	0.050			
0.3853	24660.04	3.7660	3.7659	1.0468	26.19	0.26	0.050			
0.3864	24727.30	3.7650	3.7652	1.0562	26.11	0.18	0.050			
0.3874	24794.34	3.7640	3.7641	1.0622	26.04	0.11	0.050			
0.3885	24862.58	3.7630	3.7630	1.0731	25.97	0.04	0.050			
0.3896	24931.76	3.7620	3.7621	1.0798	25.90	-0.03	0.050			
0.3906	25001.11	3.7610	3.7607	1.0870	25.84	-0.09	0.050			
0.3918	25072.20	3.7600	3.7600	1.0961	25.75	-0.18	0.050			
0.3929	25143.00	3.7590	3.7591	1.1048	25.69	-0.24	0.050			
0.3940	25214.82	3.7580	3.7580	1.1098	25.62	-0.31	0.050			
0.3951	25287.11	3.7570	3.7570	1.1159	25.56	-0.37	0.050			
0.3962	25359.51	3.7560	3.7561	1.1219	25.49	-0.44	0.050			
0.3974	25431.13	3.7550	3.7549	1.1282	25.42	-0.51	0.050			
0.3985	25504.14	3.7540	3.7539	1.1325	25.36	-0.57	0.050			
0.3996	25576.61	3.7530	3.7531	1.1392	25.29	-0.64	0.050			
0.4008	25649.74	3.7520	3.7519	1.1432	25.22	-0.71	0.050			
0.4019	25722.24	3.7510	3.7512	1.1521	25.15	-0.78	0.050			
0.4030	25794.76	3.7500	3.7498	1.1573	25.10	-0.83	0.050			
0.4042	25868.59	3.7490	3.7492	1.1627	25.02	-0.91	0.050			
0.4053	25941.58	3.7480	3.7482	1.1757	24.96	-0.97	0.050			
0.4065	26016.10	3.7470	3.7471	1.1834	24.89	-1.04	0.050			
0.4077	26091.51	3.7460	3.7462	1.1935	24.83	-1.10	0.050			
0.4089	26169.05	3.7450	3.7450	1.2025	24.76	-1.17	0.050			
0.4101	26246.91	3.7440	3.7438	1.2096	24.71	-1.22	0.050			
0.4113	26324.99	3.7430	3.7430	1.2168	24.67	-1.26	0.050			
0.4126	26404.12	3.7420	3.7418	1.2269	24.63	-1.30	0.050			
0.4138	26483.05	3.7410	3.7412	1.2356	24.59	-1.34	0.050			
0.4151	26563.21	3.7400	3.7401	1.2446	24.55	-1.38	0.050			
0.4163	26644.07	3.7390	3.7388	1.2532	24.54	-1.39	0.050			
0.4176	26725.62	3.7380	3.7380	1.2605	24.54	-1.39	0.050			
0.4188	26805.21	3.7370	3.7370	1.2701	24.55	-1.38	0.050			
0.4201	26885.59	3.7360	3.7361	1.2808	24.58	-1.35	0.050			
0.4214	26967.75	3.7350	3.7350	1.2879	24.61	-1.32	0.050			
0.4227	27049.78	3.7340	3.7338	1.2994	24.67	-1.26	0.050			
0.4239	27131.88	3.7330	3.7330	1.3098	24.75	-1.18	0.050			
0.4252	27215.58	3.7320	3.7320	1.3217	24.85	-1.08	0.050			
0.4265	27298.42	3.7310	3.7308	1.3306	24.97	-0.96	0.050			
0.4279	27383.72	3.7300	3.7300	1.3442	25.13	-0.80	0.050			
0.4292	27469.92	3.7290	3.7289	1.3586	25.35	-0.58	0.050			
0.4305	27554.77	3.7280	3.7278	1.3782	25.59	-0.34	0.050			
0.4319	27644.00	3.7270	3.7272	1.3969	25.87	-0.06	0.050			
0.4334	27734.56	3.7260	3.7262	1.4132	26.17	0.24	0.050			
0.4348	27826.61	3.7250	3.7249	1.4312	26.49	0.56	0.050			
0.4362	27919.22	3.7240	3.7241	1.4476	26.79	0.86	0.050			
0.4377	28012.85	3.7230	3.7230	1.4621	27.08	1.15	0.050			
0.4392	28107.72	3.7220	3.7218	1.4756	27.32	1.39	0.050			
0.4407	28203.84	3.7210	3.7208	1.4883	27.49	1.56	0.050			
0.4422	28299.84	3.7200	3.7201	1.5042	27.54	1.61	0.050			
0.4437	28396.89	3.7190	3.7188	1.5178	27.47	1.54	0.050			
0.4452	28494.81	3.7180	3.7181	1.5289	27.38	1.45	0.050			
0.4468	28593.45	3.7170	3.7169	1.5369	27.31	1.38	0.050			
0.4483	28691.77	3.7160	3.7160	1.5519	27.21	1.28	0.050			
0.4499	28793.87	3.7150	3.7152	1.5616	27.12	1.19	0.050			
0.4514	28892.45	3.7140	3.7141	1.5743	27.02	1.09	0.050			
0.4530	28992.67	3.7130	3.7128	1.5897	26.92	0.99	0.050			
0.4546	29094.78	3.7120	3.7122	1.6011	26.81	0.88	0.050			
0.4562	29196.71	3.7110	3.7106	1.6156	26.70	0.77	0.050			
0.4578	29300.22	3.7100	3.7099	1.6263	26.59	0.66	0.050			
0.4594	29403.31	3.7090	3.7092	1.6404	26.47	0.54	0.050			
0.4610	29506.61	3.7080	3.7081	1.6576	26.35	0.42	0.050			
0.4627	29614.55	3.7070	3.7069	1.6769	26.23	0.30	0.050			
0.4644	29721.28	3.7060	3.7061	1.6945	26.11	0.18	0.050			
0.4661	29829.96	3.7050	3.7053	1.7114	25.97	0.04	0.050			
0.4678	29941.52	3.7040	3.7041	1.7276	25.85	-0.08	0.050			
0.4696	30051.62	3.7030	3.7031	1.7497	25.73	-0.20	0.050			
0.4713	30163.20	3.7020	3.7019	1.7698	25.61	-0.32	0.050			
0.4731	30277.66	3.7010	3.7012	1.7889	25.46	-0.47	0.050			
0.4749	30392.97	3.7000	3.6999	1.8060	25.32	-0.61	0.050			
0.4767	30510.72	3.6990	3.6990	1.8246	25.18	-0.75	0.050			
0.4786	30629.32	3.6980	3.6982	1.8420	25.02	-0.91	0.050			
0.4804	30748.00	3.6970	3.6968	1.8592	24.85	-1.08	0.050			
0.4823	30867.86	3.6960	3.6961	1.8726	24.69	-1.24	0.050			
0.4842	30989.59	3.6950	3.6949	1.8877	24.51	-1.42	0.050			
0.4861	31108.92	3.6940	3.6937	1.9000	24.32	-1.61	0.050			
0.4880	31232.43	3.6930	3.6932	1.9167	24.14	-1.79	0.050			
0.4899	31356.06	3.6920	3.6920	1.9328	23.98	-1.95	0.050			
0.4918	31478.17	3.6910	3.6911	1.9524	23.84	-2.09	0.050			
0.4938	31603.17	3.6900	3.6900	1.9710	23.76	-2.17	0.050			
0.4957	31726.26	3.6890	3.6890	1.9922	23.73	-2.20	0.050			
0.4977	31850.76	3.6880	3.6878	2.0195	23.75	-2.18	0.050			
0.4997	31980.76	3.6870	3.6871	2.0482	23.86	-2.07	0.050			
0.5017	32109.17	3.6860	3.6858	2.0767	24.05	-1.88	0.050			
0.5038	32244.27	3.6850	3.6850	2.1023	24.31	-1.62	0.050			
0.5059	32378.89	3.6840	3.6842	2.1304	24.68	-1.25	0.050			
0.5080	32513.69	3.6830	3.6828	2.1585	25.12	-0.81	0.050			
0.5102	32652.76	3.6820	3.6820	2.1972	25.66	-0.27	0.050			
0.5124	32793.74	3.6810	3.6812	2.2350	26.25	0.32	0.050			
0.5147	32937.72	3.6800	3.6797	2.2757	26.81	0.88	0.050			
0.5169	33084.62	3.6790	3.6792	2.3124	27.28	1.35	0.050			
0.5193	33233.92	3.6780	3.6782	2.3543	27.52	1.59	0.050			
0.5217	33385.70	3.6770	3.6769	2.3903	27.45	1.52	0.050			
0.5241	33539.93	3.6760	3.6758	2.4293	27.38	1.45	0.050			
0.5265	33697.62	3.6750	3.6748	2.4719	27.30	1.37	0.050			
0.5290	33856.66	3.6740	3.6738	2.5100	27.23	1.30	0.050			
0.5315	34019.19	3.6730	3.6731	2.5485	27.15	1.22	0.050			
0.5341	34182.46	3.6720	3.6718	2.5804	27.09	1.16	0.050			
0.5367	34348.62	3.6710	3.6710	2.6138	27.05	1.12	0.050			
0.5393	34517.19	3.6700	3.6701	2.6541	27.03	1.10	0.050			
0.5420	34688.04	3.6690	3.6692	2.6945	27.04	1.11	0.050			
0.5448	34865.13	3.6680	3.6682	2.7317	27.04	1.11	0.050			
0.5476	35044.09	3.6670	3.6669	2.7577	26.86	0.93	0.050			
0.5504	35222.49	3.6660	3.6660	2.7935	26.68	0.75	0.050			
0.5532	35402.20	3.6650	3.6650	2.8178	26.49	0.56	0.050			
0.5559	35580.28	3.6640	3.6640	2.8568	26.32	0.39	0.050			
0.5588	35763.50	3.6630	3.6632	2.8946	26.12	0.19	0.050			
0.5617	35950.08	3.6620	3.6620	2.9286	25.92	-0.01	0.050			
0.5647	36139.84	3.6610	3.6607	2.9503	25.73	-0.20	0.050			
0.5677	36330.34	3.6600	3.6601	2.9793	25.55	-0.38	0.050			
0.5707	36524.09	3.6590	3.6587	2.9990	25.38	-0.55	0.050			
0.5737	36718.48	3.6580	3.6581	3.0178	25.20	-0.73	0.050			
0.5768	36912.54	3.6570	3.6569	3.0469	25.03	-0.90	0.050			
0.5798	37107.59	3.6560	3.6561	3.0786	24.87	-1.06	0.050			
0.5829	37304.07	3.6550	3.6551	3.1024	24.73	-1.20	0.050			
0.5860	37503.79	3.6540	3.6542	3.1226	24.62	-1.31	0.050			
0.5891	37703.43	3.6530	3.6529	3.1587	24.60	-1.33	0.050			
0.5923	37906.08	3.6520	3.6519	3.2048	24.64	-1.29	0.050			
0.5955	38110.98	3.6510	3.6510	3.2288	24.79	-1.14	0.050			
0.5987	38315.72	3.6500	3.6499	3.2666	25.07	-0.86	0.050			
0.6019	38521.51	3.6490	3.6490	3.3102	25.53	-0.40	0.050			
0.6053	38737.01	3.6480	3.6481	3.3511	26.08	0.15	0.050			
0.6087	38956.40	3.6470	3.6468	3.3882	26.65	0.72	0.050			
0.6122	39177.79	3.6460	3.6463	3.4287	27.02	1.09	0.050			
0.6156	39401.34	3.6450	3.6454	3.4635	26.91	0.98	0.050			
0.6192	39626.48	3.6440	3.6439	3.4746	26.72	0.79	0.050			
0.6227	39850.71	3.6430	3.6428	3.4862	26.54	0.61	0.050			
0.6262	40078.94	3.6420	3.6422	3.4772	26.35	0.42	0.050			
0.6298	40308.02	3.6410	3.6409	3.4656	26.19	0.26	0.050			
0.6333	40533.64	3.6400	3.6400	3.4240	26.04	0.11	0.050			
0.6368	40756.03	3.6390	3.6392	3.3615	25.94	0.01	0.050			
0.6402	40973.91	3.6380	3.6379	3.3168	25.73	-0.20	0.050			
0.6436	41188.59	3.6370	3.6369	3.2474	25.53	-0.40	0.050			
0.6468	41397.14	3.6360	3.6362	3.1600	25.36	-0.57	0.050			
0.6500	41599.43	3.6350	3.6349	3.0853	25.20	-0.73	0.050			
0.6530	41794.13	3.6340	3.6342	2.9949	25.07	-0.86	0.050			
0.6559	41977.93	3.6330	3.6331	2.8995	24.98	-0.95	0.050			
0.6587	42154.45	3.6320	3.6320	2.8128	24.94	-0.99	0.050			
0.6613	42323.33	3.6310	3.6311	2.7418	24.96	-0.97	0.050			
0.6639	42490.81	3.6300	3.6303	2.6909	25.03	-0.90	0.050			
0.6665	42654.40	3.6290	3.6289	2.6347	25.16	-0.77	0.050			
0.6690	42816.46	3.6280	3.6279	2.5934	25.37	-0.56	0.050			
0.6715	42977.56	3.6270	3.6269	2.5647	25.66	-0.27	0.050			
0.6741	43139.46	3.6260	3.6259	2.5265	26.10	0.17	0.050			
0.6766	43303.71	3.6250	3.6247	2.4792	26.59	0.66	0.050			
0.6791	43462.79	3.6240	3.6238	2.4427	27.00	1.07	0.050			
0.6816	43624.11	3.6230	3.6227	2.3863	27.30	1.37	0.050			
0.6841	43781.62	3.6220	3.6221	2.3195	27.31	1.38	0.050			
0.6864	43931.81	3.6210	3.6212	2.2587	27.16	1.23	0.050			
0.6888	44085.05	3.6200	3.6200	2.1879	27.01	1.08	0.050			
0.6911	44230.33	3.6190	3.6191	2.1140	26.85	0.92	0.050			
0.6933	44372.20	3.6180	3.6183	2.0354	26.70	0.77	0.050			
0.6954	44507.49	3.6170	3.6173	1.9435	26.57	0.64	0.050			
0.6974	44634.06	3.6160	3.6162	1.8530	26.43	0.50	0.050			
0.6992	44750.30	3.6150	3.6151	1.7587	26.32	0.39	0.050			
0.7009	44854.77	3.6140	3.6139	1.6638	26.21	0.28	0.050			
0.7024	44950.67	3.6130	3.6126	1.5761	26.12	0.19	0.050			
0.7037	45037.10	3.6120	3.6119	1.4929	26.03	0.10	0.050			
0.7050	45119.49	3.6110	3.6106	1.4247	25.94	0.01	0.050			
0.7062	45199.24	3.6100	3.6100	1.3865	25.86	-0.07	0.050			
0.7074	45270.64	3.6090	3.6092	1.3216	25.80	-0.13	0.050			
0.7085	45343.79	3.6080	3.6079	1.2869	25.74	-0.19	0.050			
0.7096	45417.38	3.6070	3.6067	1.2740	25.66	-0.27	0.050			
0.7108	45493.88	3.6060	3.6059	1.2683	25.60	-0.33	0.050			
0.7120	45569.41	3.6050	3.6050	1.2661	25.53	-0.40	0.050			
0.7132	45647.97	3.6040	3.6040	1.2721	25.46	-0.47	0.050			
0.7145	45726.30	3.6030	3.6029	1.2859	25.39	-0.54	0.050			
0.7157	45804.68	3.6020	3.6021	1.2963	25.32	-0.61	0.050			
0.7170	45888.47	3.6010	3.6008	1.3160	25.25	-0.68	0.050			
0.7183	45972.64	3.6000	3.6001	1.3307	25.18	-0.75	0.050			
0.7197	46059.94	3.5990	3.5987	1.3495	25.10	-0.83	0.050			
0.7211	46149.56	3.5980	3.5977	1.3673	25.01	-0.92	0.050			
0.7225	46239.57	3.5970	3.5973	1.3825	24.93	-1.00	0.050			
0.7239	46330.64	3.5960	3.5960	1.3878	24.86	-1.07	0.050			
0.7254	46423.64	3.5950	3.5949	1.3943	24.78	-1.15	0.050			
0.7268	46516.15	3.5940	3.5940	1.3973	24.71	-1.22	0.050			
0.7283	46609.40	3.5930	3.5931	1.3944	24.64	-1.29	0.050			
0.7297	46703.03	3.5920	3.5923	1.3830	24.57	-1.36	0.050			
0.7312	46795.23	3.5910	3.5910	1.3621	24.52	-1.41	0.050			
0.7326	46886.29	3.5900	3.5900	1.3454	24.50	-1.43	0.050			
0.7340	46973.69	3.5890	3.5891	1.3206	24.47	-1.46	0.050			
0.7353	47060.09	3.5880	3.5880	1.2941	24.48	-1.45	0.050			
0.7366	47142.82	3.5870	3.5871	1.2663	24.50	-1.43	0.050			
0.7379	47224.05	3.5860	3.5862	1.2405	24.52	-1.41	0.050			
0.7391	47302.06	3.5850	3.5851	1.2113	24.55	-1.38	0.050			
0.7403	47377.93	3.5840	3.5843	1.1838	24.60	-1.33	0.050			
0.7414	47449.75	3.5830	3.5829	1.1494	24.65	-1.28	0.050			
0.7425	47520.96	3.5820	3.5819	1.1230	24.73	-1.20	0.050			
0.7436	47591.30	3.5810	3.5808	1.0973	24.83	-1.10	0.050			
0.7446	47656.77	3.5800	3.5800	1.0805	24.93	-1.00	0.050			
0.7457	47722.79	3.5790	3.5789	1.0606	25.06	-0.87	0.050			
0.7467	47786.71	3.5780	3.5780	1.0487	25.20	-0.73	0.050			
0.7477	47850.45	3.5770	3.5771	1.0379	25.36	-0.57	0.050			
0.7487	47914.77	3.5760	3.5762	1.0316	25.53	-0.40	0.050			
0.7497	47978.48	3.5750	3.5752	1.0259	25.69	-0.24	0.050			
0.7507	48042.11	3.5740	3.5740	1.0257	25.87	-0.06	0.050			
0.7517	48106.51	3.5730	3.5729	1.0314	26.06	0.13	0.050			
0.7527	48171.52	3.5720	3.5719	1.0352	26.24	0.31	0.050			
0.7537	48237.08	3.5710	3.5706	1.0393	26.43	0.50	0.050			
0.7547	48300.98	3.5700	3.5703	1.0465	26.60	0.67	0.050			
0.7557	48367.32	3.5690	3.5689	1.0538	26.77	0.84	0.050			
0.7568	48435.17	3.5680	3.5677	1.0626	26.91	0.98	0.050			
0.7579	48503.91	3.5670	3.5668	1.0672	27.02	1.09	0.050			
0.7590	48573.35	3.5660	3.5660	1.0754	27.07	1.14	0.050			
0.7601	48643.80	3.5650	3.5647	1.0810	27.04	1.11	0.050			
0.7612	48714.59	3.5640	3.5641	1.0920	26.99	1.06	0.050			
0.7623	48786.29	3.5630	3.5629	1.0971	26.93	1.00	0.050			
0.7634	48857.77	3.5620	3.5621	1.1019	26.86	0.93	0.050			
0.7645	48929.06	3.5610	3.5608	1.1030	26.81	0.88	0.050			
0.7656	49000.83	3.5600	3.5600	1.1016	26.75	0.82	0.050			
0.7668	49072.62	3.5590	3.5590	1.1014	26.68	0.75	0.050			
0.7679	49144.06	3.5580	3.5582	1.0966	26.62	0.69	0.050			
0.7690	49215.28	3.5570	3.5570	1.0962	26.56	0.63	0.050			
0.7701	49285.42	3.5560	3.5559	1.0920	26.50	0.57	0.050			
0.7712	49355.91	3.5550	3.5549	1.0869	26.44	0.51	0.050			
0.7722	49423.84	3.5540	3.5542	1.0822	26.37	0.44	0.050			
0.7733	49492.53	3.5530	3.5531	1.0773	26.31	0.38	0.050			
0.7744	49560.80	3.5520	3.5520	1.0740	26.23	0.30	0.050			
0.7754	49628.70	3.5510	3.5511	1.0733	26.18	0.25	0.050			
0.7765	49695.34	3.5500	3.5500	1.0666	26.11	0.18	0.050			
0.7776	49763.47	3.5490	3.5491	1.0697	26.05	0.12	0.050			
0.7786	49832.15	3.5480	3.5477	1.0712	25.97	0.04	0.050			
0.7797	49899.96	3.5470	3.5468	1.0740	25.93	-0.00	0.050			
0.7808	49968.37	3.5460	3.5459	1.0756	25.85	-0.08	0.050			
0.7818	50036.25	3.5450	3.5449	1.0752	25.80	-0.13	0.050			
0.7829	50103.91	3.5440	3.5440	1.0772	25.74	-0.19	0.050			
0.7840	50173.26	3.5430	3.5429	1.0830	25.68	-0.25	0.050			
0.7850	50242.60	3.5420	3.5420	1.0873	25.60	-0.33	0.050			
0.7861	50311.86	3.5410	3.5411	1.0948	25.55	-0.38	0.050			
0.7872	50382.33	3.5400	3.5400	1.1021	25.49	-0.44	0.050			
0.7883	50450.78	3.5390	3.5391	1.1158	25.44	-0.49	0.050			
0.7894	50520.93	3.5380	3.5380	1.1280	25.39	-0.54	0.050			
0.7905	50592.24	3.5370	3.5371	1.1372	25.34	-0.59	0.050			
0.7916	50664.52	3.5360	3.5360	1.1504	25.29	-0.64	0.050			
0.7928	50738.71	3.5350	3.5349	1.1639	25.25	-0.68	0.050			
0.7939	50811.94	3.5340	3.5339	1.1772	25.21	-0.72	0.050			
0.7951	50886.91	3.5330	3.5329	1.1957	25.17	-0.76	0.050			
0.7963	50962.86	3.5320	3.5318	1.2125	25.15	-0.78	0.050			
0.7975	51040.18	3.5310	3.5310	1.2308	25.12	-0.81	0.050			
0.7987	51118.91	3.5300	3.5298	1.2537	25.12	-0.81	0.050			
0.8000	51199.26	3.5290	3.5292	1.2743	25.12	-0.81	0.050			
0.8013	51281.52	3.5280	3.5283	1.2991	25.12	-0.81	0.050			
0.8026	51363.35	3.5270	3.5271	1.3270	25.13	-0.80	0.050			
0.8039	51448.51	3.5260	3.5262	1.3560	25.17	-0.76	0.050			
0.8052	51533.73	3.5250	3.5249	1.3896	25.20	-0.73	0.050			
0.8066	51620.16	3.5240	3.5240	1.4261	25.27	-0.66	0.050			
0.8080	51710.28	3.5230	3.5231	1.4666	25.36	-0.57	0.050			
0.8094	51801.15	3.5220	3.5221	1.5122	25.46	-0.47	0.050			
0.8109	51895.72	3.5210	3.5212	1.5578	25.60	-0.33	0.050			
0.8124	51992.72	3.5200	3.5201	1.6113	25.78	-0.15	0.050			
0.8139	52092.51	3.5190	3.5190	1.6644	25.99	0.06	0.050			
0.8156	52199.46	3.5180	3.5179	1.7249	26.23	0.30	0.050			
0.8173	52309.47	3.5170	3.5169	1.7974	26.45	0.52	0.050			
0.8191	52424.94	3.5160	3.5157	1.8601	26.66	0.73	0.050			
0.8210	52546.64	3.5150	3.5149	1.9305	26.79	0.86	0.050			
0.8230	52672.47	3.5140	3.5140	1.9938	26.83	0.90	0.050			
0.8250	52802.43	3.5130	3.5130	2.0654	26.71	0.78	0.050			
0.8272	52938.69	3.5120	3.5120	2.1347	26.57	0.64	0.050			
0.8294	53082.45	3.5110	3.5109	2.1934	26.42	0.49	0.050			
0.8317	53228.57	3.5100	3.5098	2.2506	26.27	0.34	0.050			
0.8341	53380.64	3.5090	3.5091	2.3011	26.11	0.18	0.050			
0.8365	53534.32	3.5080	3.5081	2.3417	25.97	0.04	0.050			
0.8389	53691.78	3.5070	3.5070	2.3737	25.81	-0.12	0.050			
0.8414	53851.70	3.5060	3.5057	2.3941	25.68	-0.25	0.050			
0.8440	54015.05	3.5050	3.5049	2.4039	25.54	-0.39	0.050			
0.8465	54177.25	3.5040	3.5038	2.3979	25.40	-0.53	0.050			
0.8491	54340.11	3.5030	3.5028	2.3768	25.28	-0.65	0.050			
0.8516	54500.51	3.5020	3.5016	2.3457	25.17	-0.76	0.050			
0.8540	54657.92	3.5010	3.5010	2.2978	25.08	-0.85	0.050			
0.8565	54813.29	3.5000	3.5001	2.2359	25.02	-0.91	0.050			
0.8588	54962.77	3.4990	3.4991	2.1590	24.99	-0.94	0.050			
0.8610	55104.90	3.4980	3.4982	2.0732	24.98	-0.95	0.050			
0.8632	55241.67	3.4970	3.4970	1.9797	25.00	-0.93	0.050			
0.8652	55371.61	3.4960	3.4962	1.8766	25.07	-0.86	0.050			
0.8671	55493.41	3.4950	3.4950	1.7692	25.19	-0.74	0.050			
0.8688	55604.41	3.4940	3.4942	1.6552	25.33	-0.60	0.050			
0.8705	55709.03	3.4930	3.4931	1.5460	25.52	-0.41	0.050			
0.8719	55803.44	3.4920	3.4920	1.4354	25.73	-0.20	0.050			
0.8733	55889.60	3.4910	3.4911	1.3294	25.95	0.02	0.050			
0.8744	55964.72	3.4900	3.4899	1.2255	26.16	0.23	0.050			
0.8756	56035.70	3.4890	3.4890	1.1147	26.35	0.42	0.050			
0.8765	56096.50	3.4880	3.4879	1.0264	26.51	0.58	0.050			
0.8774	56153.49	3.4870	3.4869	0.9501	26.66	0.73	0.050			
0.8782	56202.93	3.4860	3.4857	0.8780	26.76	0.83	0.050			
0.8789	56249.35	3.4850	3.4850	0.8164	26.86	0.93	0.050			
0.8796	56292.51	3.4840	3.4839	0.7469	26.95	1.02	0.050			
0.8802	56332.66	3.4830	3.4828	0.7008	27.02	1.09	0.050			
0.8808	56370.38	3.4820	3.4820	0.6610	27.06	1.13	0.050			
0.8813	56406.28	3.4810	3.4809	0.6245	27.10	1.17	0.050			
0.8819	56442.11	3.4800	3.4800	0.5881	27.13	1.20	0.050			
0.8824	56475.34	3.4790	3.4789	0.5590	27.13	1.20	0.050			
0.8830	56509.45	3.4780	3.4778	0.5340	27.12	1.19	0.050			
0.8835	56541.02	3.4770	3.4770	0.5150	27.10	1.17	0.050			
0.8839	56571.15	3.4760	3.4759	0.4967	27.07	1.14	0.050			
0.8844	56600.20	3.4750	3.4749	0.4750	27.04	1.11	0.050			
0.8848	56628.99	3.4740	3.4739	0.4610	27.02	1.09	0.050			
0.8853	56657.59	3.4730	3.4730	0.4465	26.99	1.06	0.050			
0.8857	56684.33	3.4720	3.4719	0.4342	26.96	1.03	0.050			
0.8861	56711.57	3.4710	3.4709	0.4225	26.94	1.01	0.050			
0.8865	56737.39	3.4700	3.4702	0.4127	26.91	0.98	0.050			
0.8869	56763.48	3.4690	3.4690	0.4028	26.89	0.96	0.050			
0.8873	56788.09	3.4680	3.4677	0.3942	26.86	0.93	0.050			
0.8877	56812.16	3.4670	3.4668	0.3858	26.83	0.90	0.050			
0.8881	56836.04	3.4660	3.4661	0.3766	26.81	0.88	0.050			
0.8884	56859.28	3.4650	3.4648	0.3698	26.79	0.86	0.050			
0.8888	56882.74	3.4640	3.4640	0.3632	26.77	0.84	0.050			
0.8891	56904.81	3.4630	3.4630	0.3558	26.76	0.83	0.050			
0.8895	56927.24	3.4620	3.4619	0.3499	26.73	0.80	0.050			
0.8898	56948.63	3.4610	3.4610	0.3426	26.70	0.77	0.050			
0.8902	56970.33	3.4600	3.4601	0.3385	26.68	0.75	0.050			
0.8905	56992.39	3.4590	3.4590	0.3350	26.66	0.73	0.050			
0.8908	57013.35	3.4580	3.4581	0.3315	26.64	0.71	0.050			
0.8912	57034.58	3.4570	3.4569	0.3272	26.62	0.69	0.050			
0.8915	57054.66	3.4560	3.4559	0.3210	26.60	0.67	0.050			
0.8918	57075.08	3.4550	3.4551	0.3172	26.58	0.65	0.050			
0.8921	57095.42	3.4540	3.4539	0.3128	26.56	0.63	0.050			
0.8924	57115.31	3.4530	3.4531	0.3088	26.54	0.61	0.050			
0.8927	57134.46	3.4520	3.4520	0.3063	26.52	0.59	0.050			
0.8930	57153.96	3.4510	3.4511	0.3029	26.50	0.57	0.050			
0.8933	57172.58	3.4500	3.4499	0.3000	26.48	0.55	0.050			
0.8936	57191.69	3.4490	3.4489	0.2973	26.46	0.53	0.050			
0.8939	57210.49	3.4480	3.4480	0.2944	26.44	0.51	0.050			
0.8942	57228.81	3.4470	3.4471	0.2925	26.42	0.49	0.050			
0.8945	57247.46	3.4460	3.4462	0.2905	26.40	0.47	0.050			
0.8948	57265.75	3.4450	3.4449	0.2881	26.38	0.45	0.050			
0.8951	57284.13	3.4440	3.4441	0.2863	26.36	0.43	0.050			
0.8953	57302.14	3.4430	3.4428	0.2839	26.34	0.41	0.050			
0.8956	57320.27	3.4420	3.4418	0.2824	26.32	0.39	0.050			
0.8959	57338.29	3.4410	3.4410	0.2809	26.30	0.37	0.050			
0.8962	57356.21	3.4400	3.4401	0.2788	26.28	0.35	0.050			
0.8965	57374.00	3.4390	3.4392	0.2773	26.27	0.34	0.050			
0.8968	57392.01	3.4380	3.4379	0.2739	26.25	0.32	0.050			
0.8970	57409.48	3.4370	3.4370	0.2720	26.23	0.30	0.050			
0.8973	57426.96	3.4360	3.4362	0.2702	26.22	0.29	0.050			
0.8976	57444.00	3.4350	3.4350	0.2691	26.20	0.27	0.050			
0.8978	57461.77	3.4340	3.4341	0.2683	26.18	0.25	0.050			
0.8981	57478.93	3.4330	3.4329	0.2657	26.16	0.23	0.050			
0.8984	57496.17	3.4320	3.4320	0.2639	26.14	0.21	0.050			
0.8986	57512.97	3.4310	3.4309	0.2612	26.13	0.20	0.050			
0.8989	57529.13	3.4300	3.4300	0.2578	26.11	0.18	0.050			
0.8991	57545.56	3.4290	3.4291	0.2555	26.09	0.16	0.050			
0.8994	57561.71	3.4280	3.4280	0.2537	26.07	0.14	0.050			
0.8997	57577.83	3.4270	3.4268	0.2515	26.06	0.13	0.050			
0.8999	57593.86	3.4260	3.4257	0.2495	26.04	0.11	0.050			
0.9001	57609.55	3.4250	3.4251	0.2473	26.03	0.10	0.050			
0.9004	57625.32	3.4240	3.4241	0.2454	26.01	0.08	0.050			
0.9006	57640.96	3.4230	3.4232	0.2436	25.99	0.06	0.050			
0.9009	57656.04	3.4220	3.4220	0.2434	25.97	0.04	0.050			
0.9011	57671.57	3.4210	3.4211	0.2421	25.96	0.03	0.050			
0.9014	57686.59	3.4200	3.4199	0.2407	25.95	0.02	0.050			
0.9016	57701.97	3.4190	3.4191	0.2399	25.94	0.01	0.050			
0.9018	57717.10	3.4180	3.4179	0.2387	25.93	-0.00	0.050			
0.9021	57732.34	3.4170	3.4168	0.2380	25.91	-0.02	0.050			
0.9023	57747.55	3.4160	3.4159	0.2374	25.89	-0.04	0.050			
0.9025	57762.71	3.4150	3.4151	0.2367	25.87	-0.06	0.050			
0.9028	57777.93	3.4140	3.4140	0.2356	25.86	-0.07	0.050			
0.9030	57792.48	3.4130	3.4130	0.2338	25.84	-0.09	0.050			
0.9032	57807.89	3.4120	3.4117	0.2323	25.82	-0.11	0.050			
0.9035	57822.74	3.4110	3.4111	0.2315	25.81	-0.12	0.050			
0.9037	57838.00	3.4100	3.4101	0.2316	25.79	-0.14	0.050			
0.9039	57852.79	3.4090	3.4091	0.2304	25.78	-0.15	0.050			
0.9042	57867.73	3.4080	3.4081	0.2298	25.77	-0.16	0.050			
0.9044	57882.39	3.4070	3.4069	0.2284	25.75	-0.18	0.050			
0.9046	57896.74	3.4060	3.4061	0.2279	25.74	-0.19	0.050			
0.9049	57911.38	3.4050	3.4050	0.2269	25.72	-0.21	0.050			
0.9051	57925.86	3.4040	3.4040	0.2257	25.71	-0.22	0.050			
0.9053	57940.24	3.4030	3.4030	0.2246	25.70	-0.23	0.050			
0.9055	57954.64	3.4020	3.4020	0.2235	25.68	-0.25	0.050			
0.9058	57968.91	3.4010	3.4010	0.2223	25.67	-0.26	0.050			
0.9060	57982.89	3.4000	3.3999	0.2198	25.66	-0.27	0.050			
0.9062	57996.92	3.3990	3.3989	0.2187	25.64	-0.29	0.050			
0.9064	58010.89	3.3980	3.3979	0.2176	25.63	-0.30	0.050			
0.9066	58024.79	3.3970	3.3970	0.2168	25.62	-0.31	0.050			
0.9069	58038.63	3.3960	3.3960	0.2158	25.60	-0.33	0.050			
0.9071	58052.41	3.3950	3.3950	0.2147	25.59	-0.34	0.050			
0.9073	58066.16	3.3940	3.3942	0.2133	25.57	-0.36	0.050			
0.9075	58079.78	3.3930	3.3931	0.2122	25.56	-0.37	0.050			
0.9077	58093.47	3.3920	3.3919	0.2114	25.54	-0.39	0.050			
0.9079	58106.52	3.3910	3.3911	0.2114	25.53	-0.40	0.050			
0.9081	58120.02	3.3900	3.3901	0.2106	25.52	-0.41	0.050			
0.9083	58133.47	3.3890	3.3890	0.2098	25.51	-0.42	0.050			
0.9085	58146.87	3.3880	3.3880	0.2092	25.49	-0.44	0.050			
0.9088	58160.23	3.3870	3.3869	0.2084	25.48	-0.45	0.050			
0.9090	58173.22	3.3860	3.3858	0.2070	25.46	-0.47	0.050			
0.9092	58186.70	3.3850	3.3849	0.2059	25.45	-0.48	0.050			
0.9094	58199.86	3.3840	3.3841	0.2052	25.44	-0.49	0.050			
0.9096	58212.72	3.3830	3.3831	0.2040	25.43	-0.50	0.050			
0.9098	58226.09	3.3820	3.3819	0.2027	25.42	-0.51	0.050			
0.9100	58239.04	3.3810	3.3808	0.2019	25.41	-0.52	0.050			
0.9102	58252.21	3.3800	3.3799	0.2017	25.39	-0.54	0.050			
0.9104	58265.08	3.3790	3.3792	0.2006	25.38	-0.55	0.050			
0.9106	58277.96	3.3780	3.3781	0.1993	25.37	-0.56	0.050			
0.9108	58291.07	3.3770	3.3770	0.1990	25.36	-0.57	0.050			
0.9110	58303.76	3.3760	3.3760	0.1975	25.34	-0.59	0.050			
0.9112	58316.10	3.3750	3.3751	0.1970	25.33	-0.60	0.050			
0.9114	58328.65	3.3740	3.3741	0.1958	25.31	-0.62	0.050			
0.9116	58341.14	3.3730	3.3730	0.1946	25.30	-0.63	0.050			
0.9118	58353.35	3.3720	3.3720	0.1940	25.28	-0.65	0.050			
0.9120	58365.70	3.3710	3.3711	0.1930	25.27	-0.66	0.050			
0.9122	58378.02	3.3700	3.3701	0.1920	25.26	-0.67	0.050			
0.9123	58390.28	3.3690	3.3689	0.1911	25.25	-0.68	0.050			
0.9125	58402.22	3.3680	3.3679	0.1884	25.23	-0.70	0.050			
0.9127	58414.26	3.3670	3.3668	0.1877	25.22	-0.71	0.050			
0.9129	58426.25	3.3660	3.3658	0.1869	25.22	-0.71	0.050			
0.9131	58438.15	3.3650	3.3650	0.1866	25.21	-0.72	0.050			
0.9133	58450.07	3.3640	3.3641	0.1859	25.20	-0.73	0.050			
0.9135	58461.94	3.3630	3.3631	0.1852	25.19	-0.74	0.050			
0.9137	58473.89	3.3620	3.3621	0.1847	25.17	-0.76	0.050			
0.9138	58485.79	3.3610	3.3610	0.1836	25.16	-0.77	0.050			
0.9140	58497.51	3.3600	3.3600	0.1827	25.15	-0.78	0.050			
0.9142	58509.17	3.3590	3.3590	0.1817	25.13	-0.80	0.050			
0.9144	58520.79	3.3580	3.3581	0.1814	25.12	-0.81	0.050			
0.9146	58532.37	3.3570	3.3571	0.1805	25.11	-0.82	0.050			
0.9147	58543.90	3.3560	3.3559	0.1796	25.10	-0.83	0.050			
0.9149	58555.34	3.3550	3.3548	0.1786	25.09	-0.84	0.050			
0.9151	58566.56	3.3540	3.3539	0.1782	25.08	-0.85	0.050			
0.9153	58577.94	3.3530	3.3531	0.1774	25.06	-0.87	0.050			
0.9155	58588.96	3.3520	3.3522	0.1761	25.05	-0.88	0.050			
0.9156	58600.21	3.3510	3.3510	0.1756	25.03	-0.90	0.050			
0.9158	58611.44	3.3500	3.3498	0.1751	25.01	-0.92	0.050			
0.9160	58622.64	3.3490	3.3488	0.1747	25.00	-0.93	0.050			
0.9162	58633.67	3.3480	3.3480	0.1740	24.98	-0.95	0.050			
0.9163	58644.92	3.3470	3.3471	0.1734	24.97	-0.96	0.050			
0.9165	58656.00	3.3460	3.3460	0.1729	24.96	-0.97	0.050			
0.9167	58667.29	3.3450	3.3450	0.1729	24.95	-0.98	0.050			
0.9168	58678.33	3.3440	3.3440	0.1723	24.93	-1.00	0.050			
0.9170	58689.31	3.3430	3.3429	0.1717	24.92	-1.01	0.050			
0.9172	58700.28	3.3420	3.3419	0.1711	24.91	-1.02	0.050			
0.9174	58711.01	3.3410	3.3409	0.1701	24.90	-1.03	0.050			
0.9175	58721.88	3.3400	3.3401	0.1696	24.89	-1.04	0.050			
0.9177	58732.69	3.3390	3.3392	0.1692	24.87	-1.06	0.050			
0.9179	58743.67	3.3380	3.3380	0.1692	24.86	-1.07	0.050			
0.9180	58754.48	3.3370	3.3370	0.1686	24.85	-1.08	0.050			
0.9182	58765.25	3.3360	3.3360	0.1680	24.84	-1.09	0.050			
0.9184	58776.02	3.3350	3.3348	0.1672	24.82	-1.11	0.050			
0.9185	58786.65	3.3340	3.3339	0.1664	24.81	-1.12	0.050			
0.9187	58797.29	3.3330	3.3331	0.1658	24.80	-1.13	0.050			
0.9189	58807.88	3.3320	3.3321	0.1652	24.79	-1.14	0.050			
0.9190	58818.40	3.3310	3.3310	0.1648	24.78	-1.15	0.050			
0.9192	58828.88	3.3300	3.3300	0.1641	24.76	-1.17	0.050			
0.9194	58839.37	3.3290	3.3290	0.1636	24.75	-1.18	0.050			
0.9195	58849.82	3.3280	3.3280	0.1630	24.74	-1.19	0.050			
0.9197	58860.42	3.3270	3.3269	0.1622	24.72	-1.21	0.050			
0.9199	58870.77	3.3260	3.3260	0.1615	24.71	-1.22	0.050			
0.9200	58881.08	3.3250	3.3251	0.1608	24.70	-1.23	0.050			
0.9202	58891.35	3.3240	3.3241	0.1600	24.68	-1.25	0.050			
0.9203	58901.58	3.3230	3.3230	0.1598	24.67	-1.26	0.050			
0.9205	58911.78	3.3220	3.3220	0.1591	24.66	-1.27	0.050			
0.9207	58921.94	3.3210	3.3209	0.1584	24.64	-1.29	0.050			
0.9208	58932.06	3.3200	3.3200	0.1577	24.63	-1.30	0.050			
0.9210	58942.26	3.3190	3.3191	0.1567	24.62	-1.31	0.050			
0.9211	58952.26	3.3180	3.3179	0.1558	24.60	-1.33	0.050			
0.9213	58962.20	3.3170	3.3170	0.1550	24.59	-1.34	0.050			
0.9214	58972.10	3.3160	3.3160	0.1542	24.58	-1.35	0.050			
0.9216	58982.06	3.3150	3.3149	0.1530	24.56	-1.37	0.050			
0.9217	58991.83	3.3140	3.3139	0.1521	24.55	-1.38	0.050			
0.9219	59001.53	3.3130	3.3130	0.1512	24.54	-1.39	0.050			
0.9220	59011.18	3.3120	3.3120	0.1502	24.53	-1.40	0.050			
0.9222	59020.96	3.3110	3.3111	0.1495	24.51	-1.42	0.050			
0.9223	59030.11	3.3100	3.3100	0.1496	24.50	-1.43	0.050			
0.9225	59039.66	3.3090	3.3091	0.1489	24.49	-1.44	0.050			
0.9226	59049.16	3.3080	3.3081	0.1482	24.48	-1.45	0.050			
0.9228	59058.39	3.3070	3.3070	0.1472	24.47	-1.46	0.050			
0.9229	59067.74	3.3060	3.3060	0.1469	24.46	-1.47	0.050			
0.9231	59077.13	3.3050	3.3050	0.1464	24.46	-1.47	0.050			
0.9232	59086.48	3.3040	3.3041	0.1459	24.45	-1.48	0.050			
0.9234	59095.70	3.3030	3.3030	0.1453	24.44	-1.49	0.050			
0.9235	59105.07	3.3020	3.3019	0.1447	24.43	-1.50	0.050			
0.9237	59114.31	3.3010	3.3007	0.1442	24.42	-1.51	0.050			
0.9238	59123.52	3.3000	3.2999	0.1437	24.40	-1.53	0.050			
0.9239	59132.45	3.2990	3.2990	0.1429	24.39	-1.54	0.050			
0.9241	59141.59	3.2980	3.2980	0.1426	24.38	-1.55	0.050			
0.9242	59150.58	3.2970	3.2972	0.1427	24.36	-1.57	0.050			
0.9244	59159.70	3.2960	3.2962	0.1425	24.35	-1.58	0.050			
0.9245	59168.90	3.2950	3.2951	0.1425	24.35	-1.58	0.050			
0.9247	59178.01	3.2940	3.2941	0.1422	24.34	-1.59	0.050			
0.9248	59187.11	3.2930	3.2930	0.1420	24.33	-1.60	0.050			
0.9249	59196.47	3.2920	3.2919	0.1406	24.32	-1.61	0.050			
0.9251	59205.45	3.2910	3.2911	0.1401	24.31	-1.62	0.050			
0.9252	59214.73	3.2900	3.2900	0.1400	24.30	-1.63	0.050			
0.9254	59223.67	3.2890	3.2890	0.1393	24.29	-1.64	0.050			
0.9255	59232.47	3.2880	3.2878	0.1388	24.28	-1.65	0.050			
0.9256	59241.33	3.2870	3.2868	0.1381	24.27	-1.66	0.050			
0.9258	59249.99	3.2860	3.2859	0.1371	24.26	-1.67	0.050			
0.9259	59258.75	3.2850	3.2852	0.1365	24.25	-1.68	0.050			
0.9261	59267.47	3.2840	3.2841	0.1360	24.24	-1.69	0.050			
0.9262	59276.08	3.2830	3.2830	0.1357	24.24	-1.69	0.050			
0.9263	59284.85	3.2820	3.2820	0.1354	24.23	-1.70	0.050			
0.9265	59293.49	3.2810	3.2809	0.1348	24.22	-1.71	0.050			
0.9266	59302.11	3.2800	3.2799	0.1343	24.22	-1.71	0.050			
0.9267	59310.70	3.2790	3.2788	0.1336	24.21	-1.72	0.050			
0.9269	59319.24	3.2780	3.2780	0.1330	24.20	-1.73	0.050			
0.9270	59327.78	3.2770	3.2770	0.1325	24.20	-1.73	0.050			
0.9271	59336.24	3.2760	3.2760	0.1319	24.19	-1.74	0.050			
0.9273	59344.66	3.2750	3.2749	0.1313	24.18	-1.75	0.050			
0.9274	59353.03	3.2740	3.2735	0.1307	24.17	-1.76	0.050			
0.9275	59361.38	3.2730	3.2728	0.1301	24.16	-1.77	0.050			
0.9276	59369.40	3.2720	3.2723	0.1290	24.16	-1.77	0.050			
0.9278	59377.64	3.2710	3.2710	0.1285	24.15	-1.78	0.050			
0.9279	59385.86	3.2700	3.2699	0.1281	24.15	-1.78	0.050			
0.9280	59393.96	3.2690	3.2690	0.1280	24.14	-1.79	0.050			
0.9282	59402.33	3.2680	3.2682	0.1282	24.13	-1.80	0.050			
0.9283	59410.52	3.2670	3.2673	0.1277	24.13	-1.80	0.050			
0.9284	59418.68	3.2660	3.2660	0.1272	24.12	-1.81	0.050			
0.9285	59426.81	3.2650	3.2650	0.1267	24.12	-1.81	0.050			
0.9287	59434.90	3.2640	3.2640	0.1262	24.11	-1.82	0.050			
0.9288	59442.76	3.2630	3.2631	0.1255	24.11	-1.82	0.050			
0.9289	59450.79	3.2620	3.2620	0.1252	24.11	-1.82	0.050			
0.9290	59458.79	3.2610	3.2607	0.1248	24.11	-1.82	0.050			
0.9292	59466.77	3.2600	3.2598	0.1245	24.10	-1.83	0.050			
0.9293	59474.50	3.2590	3.2591	0.1239	24.10	-1.83	0.050			
0.9294	59482.86	3.2580	3.2580	0.1229	24.10	-1.83	0.050			
0.9295	59490.70	3.2570	3.2570	0.1223	24.09	-1.84	0.050			
0.9297	59498.52	3.2560	3.2560	0.1218	24.09	-1.84	0.050			
0.9298	59506.29	3.2550	3.2551	0.1213	24.09	-1.84	0.050			
0.9299	59514.31	3.2540	3.2542	0.1210	24.08	-1.85	0.050			
0.9300	59521.87	3.2530	3.2530	0.1206	24.08	-1.85	0.050			
0.9301	59529.58	3.2520	3.2520	0.1200	24.08	-1.85	0.050			
0.9303	59537.24	3.2510	3.2510	0.1194	24.08	-1.85	0.050			
0.9304	59544.86	3.2500	3.2500	0.1188	24.08	-1.85	0.050			
0.9305	59552.61	3.2490	3.2490	0.1184	24.08	-1.85	0.050			
0.9306	59560.17	3.2480	3.2481	0.1177	24.07	-1.86	0.050			
0.9307	59567.39	3.2470	3.2473	0.1177	24.07	-1.86	0.050			
0.9309	59574.91	3.2460	3.2461	0.1172	24.07	-1.86	0.050			
0.9310	59582.39	3.2450	3.2450	0.1166	24.07	-1.86	0.050			
0.9311	59589.84	3.2440	3.2438	0.1161	24.07	-1.86	0.050			
0.9312	59596.82	3.2430	3.2428	0.1151	24.07	-1.86	0.050			
0.9313	59604.18	3.2420	3.2420	0.1149	24.07	-1.86	0.050			
0.9314	59611.55	3.2410	3.2409	0.1146	24.07	-1.86	0.050			
0.9315	59618.87	3.2400	3.2397	0.1144	24.07	-1.86	0.050			
0.9317	59626.18	3.2390	3.2389	0.1141	24.07	-1.86	0.050			
0.9318	59633.28	3.2380	3.2381	0.1136	24.07	-1.86	0.050			
0.9319	59640.55	3.2370	3.2370	0.1135	24.07	-1.86	0.050			
0.9320	59648.05	3.2360	3.2362	0.1128	24.08	-1.85	0.050			
0.9321	59655.26	3.2350	3.2352	0.1125	24.08	-1.85	0.050			
0.9322	59662.45	3.2340	3.2339	0.1122	24.08	-1.85	0.050			
0.9323	59669.91	3.2330	3.2331	0.1123	24.08	-1.85	0.050			
0.9325	59677.08	3.2320	3.2323	0.1118	24.09	-1.84	0.050			
0.9326	59684.34	3.2310	3.2309	0.1111	24.09	-1.84	0.050			
0.9327	59691.43	3.2300	3.2300	0.1105	24.09	-1.84	0.050			
0.9328	59698.49	3.2290	3.2291	0.1099	24.10	-1.83	0.050			
0.9329	59705.50	3.2280	3.2280	0.1094	24.10	-1.83	0.050			
0.9330	59712.63	3.2270	3.2269	0.1090	24.10	-1.83	0.050			
0.9331	59719.58	3.2260	3.2259	0.1084	24.11	-1.82	0.050			
0.9332	59726.50	3.2250	3.2251	0.1077	24.11	-1.82	0.050			
0.9333	59733.11	3.2240	3.2240	0.1078	24.12	-1.81	0.050			
0.9334	59739.99	3.2230	3.2229	0.1074	24.12	-1.81	0.050			
0.9335	59746.85	3.2220	3.2220	0.1069	24.12	-1.81	0.050			
0.9336	59753.49	3.2210	3.2212	0.1062	24.13	-1.80	0.050			
0.9338	59760.28	3.2200	3.2201	0.1058	24.13	-1.80	0.050			
0.9339	59767.04	3.2190	3.2191	0.1055	24.14	-1.79	0.050			
0.9340	59773.81	3.2180	3.2180	0.1050	24.14	-1.79	0.050			
0.9341	59780.52	3.2170	3.2170	0.1047	24.14	-1.79	0.050			
0.9342	59787.05	3.2160	3.2158	0.1040	24.15	-1.78	0.050			
0.9343	59793.70	3.2150	3.2147	0.1037	24.15	-1.78	0.050			
0.9344	59800.33	3.2140	3.2142	0.1034	24.16	-1.77	0.050			
0.9345	59806.94	3.2130	3.2129	0.1032	24.16	-1.77	0.050			
0.9346	59813.58	3.2120	3.2119	0.1027	24.17	-1.76	0.050			
0.9347	59820.15	3.2110	3.2111	0.1024	24.17	-1.76	0.050			
0.9348	59826.70	3.2100	3.2102	0.1021	24.18	-1.75	0.050			
0.9349	59833.23	3.2090	3.2092	0.1018	24.18	-1.75	0.050			
0.9350	59839.73	3.2080	3.2080	0.1015	24.18	-1.75	0.050			
0.9351	59846.22	3.2070	3.2068	0.1012	24.19	-1.74	0.050			
0.9352	59852.76	3.2060	3.2062	0.1006	24.20	-1.73	0.050			
0.9353	59859.19	3.2050	3.2051	0.1002	24.21	-1.72	0.050			
0.9354	59865.78	3.2040	3.2040	0.1003	24.22	-1.71	0.050			
0.9355	59872.18	3.2030	3.2028	0.0998	24.23	-1.70	0.050			
0.9356	59878.56	3.2020	3.2018	0.0994	24.24	-1.69	0.050			
0.9357	59884.90	3.2010	3.2010	0.0989	24.25	-1.68	0.050			
0.9358	59891.21	3.2000	3.2000	0.0984	24.26	-1.67	0.050			
0.9359	59897.34	3.1990	3.1989	0.0985	24.27	-1.66	0.050			
0.9360	59903.40	3.1980	3.1980	0.0976	24.27	-1.66	0.050			
0.9361	59909.64	3.1970	3.1971	0.0973	24.28	-1.65	0.050			
0.9362	59915.86	3.1960	3.1961	0.0971	24.29	-1.64	0.050			
0.9363	59922.07	3.1950	3.1951	0.0969	24.30	-1.63	0.050			
0.9364	59928.26	3.1940	3.1941	0.0967	24.30	-1.63	0.050			
0.9365	59934.46	3.1930	3.1930	0.0964	24.31	-1.62	0.050			
0.9366	59940.62	3.1920	3.1920	0.0961	24.32	-1.61	0.050			
0.9367	59946.76	3.1910	3.1908	0.0959	24.32	-1.61	0.050			
0.9368	59952.89	3.1900	3.1896	0.0957	24.33	-1.60	0.050			
0.9369	59959.00	3.1890	3.1891	0.0954	24.34	-1.59	0.050			
0.9370	59965.10	3.1880	3.1881	0.0952	24.35	-1.58	0.050			
0.9371	59971.51	3.1870	3.1871	0.0940	24.36	-1.57	0.050			
0.9372	59977.63	3.1860	3.1860	0.0939	24.37	-1.56	0.050			
0.9372	59983.62	3.1850	3.1850	0.0934	24.38	-1.55	0.050			
0.9373	59989.58	3.1840	3.1840	0.0928	24.39	-1.54	0.050			
0.9374	59995.50	3.1830	3.1830	0.0923	24.40	-1.53	0.050			
0.9375	60001.39	3.1820	3.1820	0.0918	24.41	-1.52	0.050			
0.9376	60007.25	3.1810	3.1810	0.0913	24.42	-1.51	0.050			
0.9377	60012.92	3.1800	3.1801	0.0914	24.43	-1.50	0.050			
0.9378	60018.84	3.1790	3.1791	0.0912	24.44	-1.49	0.050			
0.9379	60024.66	3.1780	3.1781	0.0908	24.45	-1.48	0.050			
0.9380	60030.46	3.1770	3.1771	0.0903	24.46	-1.47	0.050			
0.9381	60036.22	3.1760	3.1761	0.0898	24.48	-1.45	0.050			
0.9382	60041.96	3.1750	3.1751	0.0894	24.49	-1.44	0.050			
0.9382	60047.66	3.1740	3.1740	0.0889	24.50	-1.43	0.050			
0.9383	60052.98	3.1730	3.1729	0.0881	24.51	-1.42	0.050			
0.9384	60058.57	3.1720	3.1718	0.0880	24.52	-1.41	0.050			
0.9385	60064.20	3.1710	3.1706	0.0877	24.52	-1.41	0.050			
0.9386	60069.81	3.1700	3.1700	0.0875	24.53	-1.40	0.050			
0.9387	60075.40	3.1690	3.1690	0.0873	24.54	-1.39	0.050			
0.9388	60080.98	3.1680	3.1681	0.0871	24.56	-1.37	0.050			
0.9388	60086.24	3.1670	3.1671	0.0865	24.57	-1.36	0.050			
0.9389	60091.78	3.1660	3.1662	0.0865	24.58	-1.35	0.050			
0.9390	60097.64	3.1650	3.1652	0.0858	24.59	-1.34	0.050			
0.9391	60103.13	3.1640	3.1642	0.0856	24.61	-1.32	0.050			
0.9392	60108.60	3.1630	3.1630	0.0854	24.62	-1.31	0.050			
0.9393	60114.06	3.1620	3.1621	0.0851	24.63	-1.30	0.050			
0.9394	60119.50	3.1610	3.1610	0.0849	24.64	-1.29	0.050			
0.9395	60125.38	3.1600	3.1598	0.0852	24.65	-1.28	0.050			
0.9395	60130.82	3.1590	3.1590	0.0847	24.67	-1.26	0.050			
0.9396	60136.17	3.1580	3.1581	0.0843	24.68	-1.25	0.050			
0.9397	60141.55	3.1570	3.1571	0.0838	24.70	-1.23	0.050			
0.9398	60146.89	3.1560	3.1561	0.0833	24.71	-1.22	0.050			
0.9399	60152.21	3.1550	3.1551	0.0829	24.72	-1.21	0.050			
0.9400	60157.50	3.1540	3.1541	0.0824	24.74	-1.19	0.050			
0.9400	60162.76	3.1530	3.1530	0.0820	24.75	-1.18	0.050			
0.9401	60167.99	3.1520	3.1519	0.0815	24.76	-1.17	0.050			
0.9402	60173.19	3.1510	3.1510	0.0810	24.77	-1.16	0.050			
0.9403	60178.04	3.1500	3.1499	0.0813	24.78	-1.15	0.050			
0.9404	60183.23	3.1490	3.1489	0.0811	24.79	-1.14	0.050			
0.9404	60188.42	3.1480	3.1480	0.0808	24.80	-1.13	0.050			
0.9405	60193.58	3.1470	3.1471	0.0806	24.82	-1.11	0.050			
0.9406	60198.73	3.1460	3.1460	0.0803	24.83	-1.10	0.050			
0.9407	60203.48	3.1450	3.1451	0.0797	24.84	-1.09	0.050			
0.9408	60208.58	3.1440	3.1440	0.0797	24.86	-1.07	0.050			
0.9408	60213.88	3.1430	3.1429	0.0793	24.87	-1.06	0.050			
0.9409	60218.95	3.1420	3.1418	0.0791	24.89	-1.04	0.050			
0.9410	60224.01	3.1410	3.1409	0.0790	24.90	-1.03	0.050			
0.9411	60229.06	3.1400	3.1400	0.0788	24.91	-1.02	0.050			
0.9412	60234.10	3.1390	3.1390	0.0787	24.92	-1.01	0.050			
0.9412	60239.14	3.1380	3.1379	0.0785	24.93	-1.00	0.050			
0.9413	60244.16	3.1370	3.1371	0.0784	24.95	-0.98	0.050			
0.9414	60249.38	3.1360	3.1361	0.0778	24.96	-0.97	0.050			
0.9415	60254.35	3.1350	3.1351	0.0776	24.98	-0.95	0.050			
0.9416	60259.30	3.1340	3.1341	0.0773	24.99	-0.94	0.050			
0.9416	60264.24	3.1330	3.1331	0.0770	25.01	-0.92	0.050			
0.9417	60269.16	3.1320	3.1321	0.0767	25.03	-0.90	0.050			
0.9418	60274.06	3.1310	3.1311	0.0764	25.04	-0.89	0.050			
0.9419	60279.32	3.1300	3.1301	0.0765	25.05	-0.88	0.050			
0.9419	60284.19	3.1290	3.1291	0.0760	25.07	-0.86	0.050			
0.9420	60288.80	3.1280	3.1281	0.0760	25.08	-0.85	0.050			
0.9421	60293.65	3.1270	3.1270	0.0757	25.09	-0.84	0.050			
0.9422	60298.48	3.1260	3.1260	0.0753	25.10	-0.83	0.050			
0.9422	60303.29	3.1250	3.1250	0.0750	25.12	-0.81	0.050			
0.9423	60308.08	3.1240	3.1240	0.0747	25.14	-0.79	0.050			
0.9424	60312.58	3.1230	3.1230	0.0740	25.15	-0.78	0.050			
0.9425	60317.31	3.1220	3.1220	0.0738	25.17	-0.76	0.050			
0.9425	60322.16	3.1210	3.1209	0.0734	25.19	-0.74	0.050			
0.9426	60326.85	3.1200	3.1199	0.0731	25.20	-0.73	0.050			
0.9427	60331.52	3.1190	3.1190	0.0729	25.21	-0.72	0.050			
0.9428	60336.18	3.1180	3.1179	0.0726	25.23	-0.70	0.050			
0.9428	60340.82	3.1170	3.1169	0.0724	25.24	-0.69	0.050			
0.9429	60345.46	3.1160	3.1159	0.0721	25.26	-0.67	0.050			
0.9430	60350.07	3.1150	3.1150	0.0718	25.27	-0.66	0.050			
0.9430	60354.66	3.1140	3.1141	0.0716	25.29	-0.64	0.050			
0.9431	60359.29	3.1130	3.1131	0.0712	25.30	-0.63	0.050			
0.9432	60363.83	3.1120	3.1121	0.0709	25.32	-0.61	0.050			
0.9433	60368.36	3.1110	3.1111	0.0705	25.33	-0.60	0.050			
0.9433	60372.86	3.1100	3.1102	0.0702	25.35	-0.58	0.050			
0.9434	60377.35	3.1090	3.1090	0.0699	25.36	-0.57	0.050			
0.9435	60381.95	3.1080	3.1080	0.0698	25.38	-0.55	0.050			
0.9435	60386.41	3.1070	3.1072	0.0695	25.39	-0.54	0.050			
0.9436	60390.84	3.1060	3.1061	0.0691	25.40	-0.53	0.050			
0.9437	60395.25	3.1050	3.1050	0.0687	25.41	-0.52	0.050			
0.9437	60399.47	3.1040	3.1038	0.0687	25.43	-0.50	0.050			
0.9438	60403.86	3.1030	3.1028	0.0684	25.44	-0.49	0.050			
0.9439	60408.23	3.1020	3.1020	0.0682	25.45	-0.48	0.050			
0.9439	60412.39	3.1010	3.1010	0.0675	25.47	-0.46	0.050			
0.9440	60416.70	3.1000	3.1001	0.0673	25.48	-0.45	0.050			
0.9441	60421.00	3.0990	3.0991	0.0671	25.50	-0.43	0.050			
0.9441	60425.29	3.0980	3.0982	0.0669	25.51	-0.42	0.050			
0.9442	60429.56	3.0970	3.0970	0.0667	25.53	-0.40	0.050			
0.9443	60433.83	3.0960	3.0959	0.0665	25.54	-0.39	0.050			
0.9443	60438.17	3.0950	3.0950	0.0660	25.56	-0.37	0.050			
0.9444	60442.39	3.0940	3.0940	0.0658	25.57	-0.36	0.050			
0.9445	60446.63	3.0930	3.0930	0.0656	25.58	-0.35	0.050			
0.9445	60450.82	3.0920	3.0919	0.0654	25.60	-0.33	0.050			
0.9446	60454.99	3.0910	3.0909	0.0651	25.61	-0.32	0.050			
0.9447	60459.15	3.0900	3.0900	0.0648	25.63	-0.30	0.050			
0.9447	60463.29	3.0890	3.0891	0.0646	25.64	-0.29	0.050			
0.9448	60467.42	3.0880	3.0880	0.0643	25.66	-0.27	0.050			
0.9449	60471.53	3.0870	3.0870	0.0641	25.67	-0.26	0.050			
0.9449	60476.20	3.0860	3.0858	0.0622	25.69	-0.24	0.050			
0.9450	60480.16	3.0850	3.0849	0.0616	25.71	-0.22	0.050			
0.9451	60484.47	3.0840	3.0838	0.0625	25.72	-0.21	0.050			
0.9451	60488.45	3.0830	3.0830	0.0617	25.74	-0.19	0.050			
0.9452	60492.37	3.0820	3.0821	0.0610	25.75	-0.18	0.050			
0.9453	60496.25	3.0810	3.0811	0.0603	25.76	-0.17	0.050			
0.9453	60500.09	3.0800	3.0800	0.0595	25.77	-0.16	0.050			
0.9454	60503.87	3.0790	3.0791	0.0588	25.79	-0.14	0.050			
0.9454	60507.61	3.0780	3.0781	0.0580	25.80	-0.13	0.050			
0.9455	60511.30	3.0770	3.0771	0.0573	25.81	-0.12	0.050			
0.9455	60514.94	3.0760	3.0761	0.0565	25.82	-0.11	0.050			
0.9456	60519.04	3.0750	3.0751	0.0562	25.84	-0.09	0.050			
0.9457	60522.60	3.0740	3.0742	0.0552	25.86	-0.07	0.050			
0.9457	60526.10	3.0730	3.0732	0.0543	25.87	-0.06	0.050			
0.9458	60529.55	3.0720	3.0722	0.0533	25.89	-0.04	0.050			
0.9458	60532.92	3.0710	3.0713	0.0523	25.90	-0.03	0.050			
0.9459	60536.24	3.0700	3.0703	0.0514	25.91	-0.02	0.050			
0.9459	60539.50	3.0690	3.0691	0.0504	25.93	-0.00	0.050			
0.9460	60542.70	3.0680	3.0684	0.0494	25.94	0.01	0.050			
0.9460	60545.83	3.0670	3.0677	0.0485	25.96	0.03	0.050			
0.9461	60548.90	3.0660	3.0668	0.0475	25.97	0.04	0.050			
0.9461	60551.91	3.0650	3.0659	0.0466	25.98	0.05	0.050			
0.9462	60554.86	3.0640	3.0646	0.0456	25.99	0.06	0.050			
