Ah_balance (normalized)	Ah_balance (mAh)	Voltage - fit (V)	Voltage -  interpolate (V)	dQ/dV (1/V)	Temperature (°C)	Temperature - diff (°C)	Current (C)	R_DC 0ms (mOhm)	R_DC 50ms (mOhm)	R_DC 50 ms PEC (mOhm)
-0.0025	-162.50	4.1980	4.1978	0.8614	25.58	2.07	0.050			
-0.0017	-107.50	4.1970	4.1970	0.8581	25.53	2.02	0.050			
-0.0008	-53.05	4.1960	4.1962	0.8483	25.49	1.98	0.050			
0.0000	0.32	4.1950	4.1950	0.8388	25.46	1.95	0.050			
0.0008	53.43	4.1940	4.1939	0.8340	25.43	1.92	0.050			
0.0017	106.69	4.1930	4.1929	0.8314	25.40	1.89	0.050			
0.0025	160.39	4.1920	4.1918	0.8286	25.36	1.85	0.050			
0.0033	213.08	4.1910	4.1909	0.8252	25.33	1.82	0.050			
0.0041	265.55	4.1900	4.1902	0.8225	25.31	1.80	0.050			
0.0050	317.94	4.1890	4.1891	0.8200	25.29	1.78	0.050			
0.0058	370.06	4.1880	4.1882	0.8186	25.27	1.76	0.050			
0.0066	421.68	4.1870	4.1868	0.8166	25.26	1.75	0.050			
0.0074	472.89	4.1860	4.1859	0.8150	25.26	1.75	0.050			
0.0082	526.34	4.1850	4.1851	0.8115	25.25	1.74	0.050			
0.0090	577.80	4.1840	4.1840	0.8119	25.25	1.74	0.050			
0.0098	629.63	4.1830	4.1831	0.8111	25.26	1.75	0.050			
0.0107	681.84	4.1820	4.1820	0.8120	25.27	1.76	0.050			
0.0115	733.71	4.1810	4.1810	0.8099	25.30	1.79	0.050			
0.0123	784.93	4.1800	4.1802	0.8073	25.33	1.82	0.050			
0.0131	837.29	4.1790	4.1789	0.8069	25.37	1.86	0.050			
0.0139	889.15	4.1780	4.1782	0.8065	25.41	1.90	0.050			
0.0147	940.57	4.1770	4.1772	0.8062	25.47	1.96	0.050			
0.0155	991.55	4.1760	4.1759	0.8049	25.53	2.02	0.050			
0.0163	1042.42	4.1750	4.1753	0.8044	25.60	2.09	0.050			
0.0171	1093.46	4.1740	4.1740	0.8047	25.70	2.19	0.050			
0.0179	1145.76	4.1730	4.1730	0.8047	25.81	2.30	0.050			
0.0187	1197.07	4.1720	4.1722	0.8084	25.93	2.42	0.050			
0.0195	1248.18	4.1710	4.1711	0.8092	26.07	2.56	0.050			
0.0203	1299.20	4.1700	4.1699	0.8098	26.23	2.72	0.050			
0.0211	1350.06	4.1690	4.1689	0.8130	26.38	2.87	0.050			
0.0219	1401.50	4.1680	4.1680	0.8168	26.53	3.02	0.050			
0.0227	1453.25	4.1670	4.1670	0.8199	26.67	3.16	0.050			
0.0235	1506.40	4.1660	4.1659	0.8251	26.82	3.31	0.050			
0.0244	1558.58	4.1650	4.1648	0.8304	26.94	3.43	0.050			
0.0252	1611.97	4.1640	4.1640	0.8380	27.05	3.54	0.050			
0.0260	1664.67	4.1630	4.1626	0.8418	27.14	3.63	0.050			
0.0269	1719.17	4.1620	4.1621	0.8489	27.21	3.70	0.050			
0.0277	1774.19	4.1610	4.1613	0.8539	27.23	3.72	0.050			
0.0286	1830.40	4.1600	4.1599	0.8568	27.17	3.66	0.050			
0.0295	1886.63	4.1590	4.1588	0.8565	27.10	3.59	0.050			
0.0304	1942.52	4.1580	4.1580	0.8575	27.03	3.52	0.050			
0.0312	1997.14	4.1570	4.1572	0.8608	26.96	3.45	0.050			
0.0321	2052.21	4.1560	4.1557	0.8638	26.91	3.40	0.050			
0.0330	2108.99	4.1550	4.1551	0.8650	26.82	3.31	0.050			
0.0338	2164.87	4.1540	4.1542	0.8645	26.75	3.24	0.050			
0.0347	2220.68	4.1530	4.1531	0.8639	26.68	3.17	0.050			
0.0356	2275.88	4.1520	4.1520	0.8625	26.62	3.11	0.050			
0.0364	2330.64	4.1510	4.1513	0.8612	26.54	3.03	0.050			
0.0373	2385.97	4.1500	4.1499	0.8609	26.47	2.96	0.050			
0.0381	2440.43	4.1490	4.1488	0.8601	26.39	2.88	0.050			
0.0390	2495.31	4.1480	4.1480	0.8602	26.33	2.82	0.050			
0.0398	2550.12	4.1470	4.1471	0.8585	26.25	2.74	0.050			
0.0407	2604.75	4.1460	4.1463	0.8602	26.19	2.68	0.050			
0.0415	2658.07	4.1450	4.1449	0.8591	26.11	2.60	0.050			
0.0424	2713.33	4.1440	4.1440	0.8591	26.03	2.52	0.050			
0.0433	2768.35	4.1430	4.1430	0.8614	25.97	2.46	0.050			
0.0441	2824.00	4.1420	4.1421	0.8638	25.90	2.39	0.050			
0.0450	2879.57	4.1410	4.1408	0.8671	25.84	2.33	0.050			
0.0459	2935.48	4.1400	4.1402	0.8705	25.76	2.25	0.050			
0.0468	2992.19	4.1390	4.1389	0.8704	25.69	2.18	0.050			
0.0476	3047.42	4.1380	4.1381	0.8672	25.62	2.11	0.050			
0.0485	3102.36	4.1370	4.1369	0.8660	25.54	2.03	0.050			
0.0493	3158.39	4.1360	4.1361	0.8644	25.47	1.96	0.050			
0.0502	3214.57	4.1350	4.1350	0.8658	25.40	1.89	0.050			
0.0511	3270.56	4.1340	4.1341	0.8683	25.33	1.82	0.050			
0.0520	3326.16	4.1330	4.1331	0.8682	25.26	1.75	0.050			
0.0528	3381.51	4.1320	4.1319	0.8678	25.20	1.69	0.050			
0.0537	3437.43	4.1310	4.1309	0.8659	25.10	1.59	0.050			
0.0546	3492.33	4.1300	4.1301	0.8662	25.05	1.54	0.050			
0.0554	3547.88	4.1290	4.1290	0.8645	24.98	1.47	0.050			
0.0563	3601.96	4.1280	4.1279	0.8666	24.91	1.40	0.050			
0.0572	3657.73	4.1270	4.1268	0.8663	24.84	1.33	0.050			
0.0580	3712.78	4.1260	4.1257	0.8644	24.77	1.26	0.050			
0.0589	3768.63	4.1250	4.1251	0.8620	24.69	1.18	0.050			
0.0598	3824.39	4.1240	4.1240	0.8621	24.62	1.11	0.050			
0.0606	3879.63	4.1230	4.1231	0.8611	24.55	1.04	0.050			
0.0615	3934.23	4.1220	4.1222	0.8601	24.47	0.96	0.050			
0.0623	3988.94	4.1210	4.1207	0.8601	24.41	0.90	0.050			
0.0632	4044.44	4.1200	4.1199	0.8592	24.33	0.82	0.050			
0.0641	4100.08	4.1190	4.1188	0.8618	24.25	0.74	0.050			
0.0649	4155.28	4.1180	4.1182	0.8616	24.17	0.66	0.050			
0.0658	4210.85	4.1170	4.1171	0.8584	24.10	0.59	0.050			
0.0667	4265.83	4.1160	4.1159	0.8555	24.04	0.53	0.050			
0.0675	4319.85	4.1150	4.1149	0.8539	23.97	0.46	0.050			
0.0683	4373.86	4.1140	4.1140	0.8520	23.91	0.40	0.050			
0.0692	4429.17	4.1130	4.1130	0.8528	23.86	0.35	0.050			
0.0701	4483.94	4.1120	4.1122	0.8486	23.82	0.31	0.050			
0.0709	4537.82	4.1110	4.1111	0.8488	23.79	0.28	0.050			
0.0717	4591.88	4.1100	4.1100	0.8462	23.76	0.25	0.050			
0.0726	4646.07	4.1090	4.1090	0.8431	23.74	0.23	0.050			
0.0734	4700.24	4.1080	4.1082	0.8406	23.73	0.22	0.050			
0.0743	4754.71	4.1070	4.1069	0.8387	23.75	0.24	0.050			
0.0752	4809.68	4.1060	4.1061	0.8371	23.77	0.26	0.050			
0.0760	4862.97	4.1050	4.1051	0.8365	23.79	0.28	0.050			
0.0768	4916.53	4.1040	4.1041	0.8296	23.83	0.32	0.050			
0.0777	4969.62	4.1030	4.1032	0.8266	23.88	0.37	0.050			
0.0785	5021.92	4.1020	4.1018	0.8228	23.95	0.44	0.050			
0.0793	5074.11	4.1010	4.1012	0.8213	24.03	0.52	0.050			
0.0801	5126.55	4.1000	4.1000	0.8197	24.12	0.61	0.050			
0.0809	5178.67	4.0990	4.0989	0.8168	24.21	0.70	0.050			
0.0817	5230.67	4.0980	4.0981	0.8137	24.33	0.82	0.050			
0.0825	5282.53	4.0970	4.0969	0.8150	24.45	0.94	0.050			
0.0833	5333.94	4.0960	4.0958	0.8149	24.59	1.08	0.050			
0.0841	5385.50	4.0950	4.0952	0.8128	24.74	1.23	0.050			
0.0849	5436.25	4.0940	4.0942	0.8145	24.91	1.40	0.050			
0.0857	5487.71	4.0930	4.0928	0.8160	25.09	1.58	0.050			
0.0866	5539.59	4.0920	4.0920	0.8215	25.27	1.76	0.050			
0.0874	5591.63	4.0910	4.0912	0.8210	25.48	1.97	0.050			
0.0882	5644.78	4.0900	4.0899	0.8233	25.69	2.18	0.050			
0.0890	5697.38	4.0890	4.0890	0.8297	25.91	2.40	0.050			
0.0898	5749.55	4.0880	4.0878	0.8355	26.13	2.62	0.050			
0.0907	5803.87	4.0870	4.0870	0.8408	26.35	2.84	0.050			
0.0915	5857.35	4.0860	4.0861	0.8464	26.56	3.05	0.050			
0.0924	5910.89	4.0850	4.0849	0.8511	26.76	3.25	0.050			
0.0932	5965.88	4.0840	4.0840	0.8575	26.94	3.43	0.050			
0.0941	6022.18	4.0830	4.0830	0.8625	27.11	3.60	0.050			
0.0950	6076.85	4.0820	4.0822	0.8667	27.24	3.73	0.050			
0.0958	6132.65	4.0810	4.0806	0.8719	27.34	3.83	0.050			
0.0967	6189.76	4.0800	4.0800	0.8762	27.39	3.88	0.050			
0.0976	6245.94	4.0790	4.0791	0.8805	27.39	3.88	0.050			
0.0985	6303.42	4.0780	4.0780	0.8816	27.33	3.82	0.050			
0.0994	6359.49	4.0770	4.0769	0.8851	27.26	3.75	0.050			
0.1003	6416.72	4.0760	4.0762	0.8871	27.19	3.68	0.050			
0.1012	6473.76	4.0750	4.0751	0.8887	27.13	3.62	0.050			
0.1020	6531.10	4.0740	4.0739	0.8900	27.05	3.54	0.050			
0.1030	6588.99	4.0730	4.0727	0.8907	27.00	3.49	0.050			
0.1038	6645.33	4.0720	4.0720	0.8948	26.93	3.42	0.050			
0.1047	6703.72	4.0710	4.0711	0.8982	26.87	3.36	0.050			
0.1056	6761.53	4.0700	4.0699	0.8976	26.80	3.29	0.050			
0.1065	6817.49	4.0690	4.0691	0.8972	26.74	3.23	0.050			
0.1075	6876.87	4.0680	4.0678	0.8929	26.67	3.16	0.050			
0.1083	6934.36	4.0670	4.0671	0.8925	26.61	3.10	0.050			
0.1092	6991.68	4.0660	4.0659	0.8933	26.56	3.05	0.050			
0.1101	7048.40	4.0650	4.0650	0.8932	26.49	2.98	0.050			
0.1110	7105.46	4.0640	4.0641	0.8936	26.44	2.93	0.050			
0.1119	7162.19	4.0630	4.0629	0.8969	26.37	2.86	0.050			
0.1128	7218.67	4.0620	4.0622	0.8971	26.32	2.81	0.050			
0.1137	7276.82	4.0610	4.0612	0.8978	26.27	2.76	0.050			
0.1146	7334.91	4.0600	4.0600	0.8973	26.21	2.70	0.050			
0.1155	7391.89	4.0590	4.0593	0.8971	26.16	2.65	0.050			
0.1164	7449.40	4.0580	4.0580	0.8970	26.10	2.59	0.050			
0.1173	7506.20	4.0570	4.0569	0.8970	26.06	2.55	0.050			
0.1182	7563.68	4.0560	4.0561	0.8980	26.01	2.50	0.050			
0.1191	7621.98	4.0550	4.0551	0.8962	25.97	2.46	0.050			
0.1200	7679.20	4.0540	4.0540	0.8955	25.93	2.42	0.050			
0.1209	7737.04	4.0530	4.0532	0.8957	25.89	2.38	0.050			
0.1218	7794.26	4.0520	4.0521	0.8898	25.86	2.35	0.050			
0.1227	7852.31	4.0510	4.0508	0.8890	25.83	2.32	0.050			
0.1236	7909.43	4.0500	4.0499	0.8899	25.80	2.29	0.050			
0.1245	7966.26	4.0490	4.0489	0.8892	25.77	2.26	0.050			
0.1254	8024.67	4.0480	4.0481	0.8891	25.75	2.24	0.050			
0.1263	8080.81	4.0470	4.0468	0.8923	25.75	2.24	0.050			
0.1271	8135.15	4.0460	4.0463	0.8896	25.74	2.23	0.050			
0.1280	8191.75	4.0450	4.0449	0.8907	25.73	2.22	0.050			
0.1289	8248.46	4.0440	4.0440	0.8885	25.74	2.23	0.050			
0.1298	8304.82	4.0430	4.0430	0.8869	25.74	2.23	0.050			
0.1307	8361.99	4.0420	4.0420	0.8889	25.76	2.25	0.050			
0.1315	8418.79	4.0410	4.0406	0.8917	25.78	2.27	0.050			
0.1324	8476.48	4.0400	4.0400	0.8928	25.80	2.29	0.050			
0.1333	8533.52	4.0390	4.0390	0.8949	25.83	2.32	0.050			
0.1342	8590.85	4.0380	4.0378	0.8939	25.82	2.31	0.050			
0.1351	8648.64	4.0370	4.0371	0.8939	25.81	2.30	0.050			
0.1360	8705.70	4.0360	4.0363	0.8935	25.79	2.28	0.050			
0.1370	8764.91	4.0350	4.0352	0.8971	25.78	2.27	0.050			
0.1379	8822.50	4.0340	4.0342	0.8977	25.76	2.25	0.050			
0.1387	8879.99	4.0330	4.0330	0.8961	25.77	2.26	0.050			
0.1396	8937.33	4.0320	4.0321	0.8998	25.77	2.26	0.050			
0.1405	8994.90	4.0310	4.0310	0.9001	25.77	2.26	0.050			
0.1414	9050.95	4.0300	4.0302	0.8978	25.78	2.27	0.050			
0.1423	9108.13	4.0290	4.0288	0.8993	25.80	2.29	0.050			
0.1432	9165.01	4.0280	4.0279	0.9009	25.82	2.31	0.050			
0.1441	9222.07	4.0270	4.0267	0.8986	25.85	2.34	0.050			
0.1450	9279.26	4.0260	4.0261	0.9023	25.89	2.38	0.050			
0.1459	9337.98	4.0250	4.0252	0.9054	25.93	2.42	0.050			
0.1468	9395.83	4.0240	4.0239	0.9085	25.99	2.48	0.050			
0.1477	9454.19	4.0230	4.0229	0.9119	26.06	2.55	0.050			
0.1486	9511.88	4.0220	4.0222	0.9124	26.14	2.63	0.050			
0.1495	9570.80	4.0210	4.0210	0.9142	26.22	2.71	0.050			
0.1504	9628.78	4.0200	4.0202	0.9206	26.28	2.77	0.050			
0.1514	9688.51	4.0190	4.0191	0.9246	26.35	2.84	0.050			
0.1523	9747.96	4.0180	4.0179	0.9255	26.39	2.88	0.050			
0.1532	9807.94	4.0170	4.0168	0.9281	26.42	2.91	0.050			
0.1542	9867.32	4.0160	4.0159	0.9283	26.45	2.94	0.050			
0.1551	9926.89	4.0150	4.0150	0.9314	26.44	2.93	0.050			
0.1560	9986.88	4.0140	4.0141	0.9360	26.40	2.89	0.050			
0.1570	10046.52	4.0130	4.0130	0.9349	26.32	2.81	0.050			
0.1579	10106.50	4.0120	4.0122	0.9346	26.24	2.73	0.050			
0.1588	10165.67	4.0110	4.0109	0.9391	26.17	2.66	0.050			
0.1598	10225.81	4.0100	4.0102	0.9443	26.09	2.58	0.050			
0.1607	10286.45	4.0090	4.0089	0.9467	26.02	2.51	0.050			
0.1617	10347.50	4.0080	4.0077	0.9487	25.95	2.44	0.050			
0.1626	10408.36	4.0070	4.0069	0.9478	25.87	2.36	0.050			
0.1636	10470.10	4.0060	4.0058	0.9482	25.81	2.30	0.050			
0.1645	10530.77	4.0050	4.0050	0.9483	25.72	2.21	0.050			
0.1655	10592.16	4.0040	4.0042	0.9477	25.65	2.14	0.050			
0.1664	10652.75	4.0030	4.0027	0.9491	25.59	2.08	0.050			
0.1674	10714.04	4.0020	4.0018	0.9487	25.51	2.00	0.050			
0.1684	10774.72	4.0010	4.0011	0.9483	25.44	1.93	0.050			
0.1693	10835.13	4.0000	4.0001	0.9461	25.38	1.87	0.050			
0.1703	10897.65	3.9990	3.9992	0.9471	25.31	1.80	0.050			
0.1712	10957.06	3.9980	3.9979	0.9502	25.24	1.73	0.050			
0.1721	11016.99	3.9970	3.9972	0.9523	25.18	1.67	0.050			
0.1731	11077.44	3.9960	3.9960	0.9543	25.11	1.60	0.050			
0.1740	11138.30	3.9950	3.9949	0.9518	25.04	1.53	0.050			
0.1750	11199.11	3.9940	3.9939	0.9531	24.98	1.47	0.050			
0.1759	11260.58	3.9930	3.9930	0.9530	24.91	1.40	0.050			
0.1769	11322.01	3.9920	3.9919	0.9503	24.85	1.34	0.050			
0.1778	11381.97	3.9910	3.9908	0.9479	24.79	1.28	0.050			
0.1788	11443.13	3.9900	3.9901	0.9498	24.74	1.23	0.050			
0.1797	11503.84	3.9890	3.9887	0.9524	24.67	1.16	0.050			
0.1807	11565.79	3.9880	3.9881	0.9535	24.61	1.10	0.050			
0.1817	11627.58	3.9870	3.9872	0.9536	24.55	1.04	0.050			
0.1826	11689.20	3.9860	3.9860	0.9528	24.50	0.99	0.050			
0.1836	11751.46	3.9850	3.9848	0.9495	24.45	0.94	0.050			
0.1846	11811.79	3.9840	3.9840	0.9469	24.40	0.89	0.050			
0.1855	11872.49	3.9830	3.9829	0.9433	24.36	0.85	0.050			
0.1865	11933.09	3.9820	3.9819	0.9406	24.31	0.80	0.050			
0.1874	11993.18	3.9810	3.9811	0.9378	24.27	0.76	0.050			
0.1883	12052.20	3.9800	3.9801	0.9386	24.25	0.74	0.050			
0.1892	12111.38	3.9790	3.9793	0.9379	24.22	0.71	0.050			
0.1902	12169.93	3.9780	3.9781	0.9322	24.21	0.70	0.050			
0.1911	12229.75	3.9770	3.9772	0.9321	24.20	0.69	0.050			
0.1920	12290.16	3.9760	3.9760	0.9320	24.21	0.70	0.050			
0.1930	12349.99	3.9750	3.9751	0.9306	24.20	0.69	0.050			
0.1939	12410.35	3.9740	3.9739	0.9276	24.22	0.71	0.050			
0.1948	12470.15	3.9730	3.9729	0.9265	24.25	0.74	0.050			
0.1958	12528.52	3.9720	3.9719	0.9274	24.28	0.77	0.050			
0.1967	12587.26	3.9710	3.9707	0.9239	24.33	0.82	0.050			
0.1976	12645.91	3.9700	3.9703	0.9238	24.39	0.88	0.050			
0.1985	12705.21	3.9690	3.9691	0.9215	24.45	0.94	0.050			
0.1994	12764.17	3.9680	3.9682	0.9246	24.54	1.03	0.050			
0.2004	12823.70	3.9670	3.9670	0.9246	24.64	1.13	0.050			
0.2013	12883.60	3.9660	3.9660	0.9250	24.76	1.25	0.050			
0.2022	12941.73	3.9650	3.9649	0.9276	24.89	1.38	0.050			
0.2031	13001.29	3.9640	3.9637	0.9271	25.05	1.54	0.050			
0.2041	13059.24	3.9630	3.9627	0.9281	25.21	1.70	0.050			
0.2050	13117.48	3.9620	3.9624	0.9317	25.40	1.89	0.050			
0.2059	13176.53	3.9610	3.9609	0.9357	25.60	2.09	0.050			
0.2068	13234.98	3.9600	3.9601	0.9388	25.81	2.30	0.050			
0.2078	13296.12	3.9590	3.9588	0.9427	26.02	2.51	0.050			
0.2087	13356.16	3.9580	3.9582	0.9492	26.23	2.72	0.050			
0.2097	13417.90	3.9570	3.9569	0.9544	26.43	2.92	0.050			
0.2106	13478.96	3.9560	3.9559	0.9601	26.61	3.10	0.050			
0.2116	13540.60	3.9550	3.9549	0.9646	26.77	3.26	0.050			
0.2125	13602.95	3.9540	3.9536	0.9693	26.91	3.40	0.050			
0.2135	13664.98	3.9530	3.9530	0.9720	27.00	3.49	0.050			
0.2145	13727.51	3.9520	3.9520	0.9736	26.99	3.48	0.050			
0.2155	13791.15	3.9510	3.9511	0.9785	26.96	3.45	0.050			
0.2165	13854.53	3.9500	3.9502	0.9819	26.90	3.39	0.050			
0.2175	13917.57	3.9490	3.9488	0.9850	26.84	3.33	0.050			
0.2185	13981.09	3.9480	3.9480	0.9866	26.79	3.28	0.050			
0.2194	14044.76	3.9470	3.9468	0.9915	26.74	3.23	0.050			
0.2204	14107.99	3.9460	3.9460	0.9934	26.69	3.18	0.050			
0.2214	14171.20	3.9450	3.9449	0.9930	26.63	3.12	0.050			
0.2224	14235.33	3.9440	3.9440	0.9947	26.57	3.06	0.050			
0.2234	14298.58	3.9430	3.9429	0.9958	26.52	3.01	0.050			
0.2244	14362.35	3.9420	3.9418	0.9957	26.45	2.94	0.050			
0.2254	14425.75	3.9410	3.9407	0.9967	26.39	2.88	0.050			
0.2264	14490.14	3.9400	3.9400	1.0001	26.34	2.83	0.050			
0.2274	14553.99	3.9390	3.9391	1.0031	26.28	2.77	0.050			
0.2284	14617.83	3.9380	3.9378	1.0041	26.21	2.70	0.050			
0.2294	14682.39	3.9370	3.9369	1.0035	26.15	2.64	0.050			
0.2304	14747.16	3.9360	3.9362	1.0057	26.10	2.59	0.050			
0.2315	14813.38	3.9350	3.9347	1.0035	26.04	2.53	0.050			
0.2325	14877.73	3.9340	3.9338	1.0014	25.99	2.48	0.050			
0.2335	14942.50	3.9330	3.9331	1.0021	25.93	2.42	0.050			
0.2345	15006.17	3.9320	3.9318	1.0043	25.89	2.38	0.050			
0.2355	15070.83	3.9310	3.9311	1.0033	25.85	2.34	0.050			
0.2365	15135.60	3.9300	3.9300	0.9977	25.80	2.29	0.050			
0.2375	15199.51	3.9290	3.9290	0.9953	25.77	2.26	0.050			
0.2385	15263.17	3.9280	3.9281	0.9955	25.73	2.22	0.050			
0.2395	15325.96	3.9270	3.9269	0.9936	25.70	2.19	0.050			
0.2405	15389.06	3.9260	3.9261	0.9935	25.67	2.16	0.050			
0.2414	15452.75	3.9250	3.9249	0.9942	25.65	2.14	0.050			
0.2424	15516.30	3.9240	3.9239	0.9911	25.64	2.13	0.050			
0.2434	15579.50	3.9230	3.9231	0.9893	25.62	2.11	0.050			
0.2444	15642.40	3.9220	3.9222	0.9886	25.61	2.10	0.050			
0.2454	15703.78	3.9210	3.9210	0.9896	25.61	2.10	0.050			
0.2464	15767.65	3.9200	3.9199	0.9911	25.62	2.11	0.050			
0.2474	15830.52	3.9190	3.9189	0.9916	25.65	2.14	0.050			
0.2483	15893.94	3.9180	3.9180	0.9950	25.68	2.17	0.050			
0.2494	15958.42	3.9170	3.9170	0.9983	25.72	2.21	0.050			
0.2504	16022.47	3.9160	3.9161	1.0012	25.77	2.26	0.050			
0.2514	16087.03	3.9150	3.9149	1.0032	25.84	2.33	0.050			
0.2524	16151.04	3.9140	3.9138	1.0058	25.92	2.41	0.050			
0.2534	16214.53	3.9130	3.9129	1.0049	25.99	2.48	0.050			
0.2544	16278.68	3.9120	3.9121	1.0077	26.05	2.54	0.050			
0.2554	16343.52	3.9110	3.9112	1.0112	26.10	2.59	0.050			
0.2564	16410.25	3.9100	3.9099	1.0137	26.12	2.61	0.050			
0.2574	16475.67	3.9090	3.9091	1.0125	26.11	2.60	0.050			
0.2584	16539.47	3.9080	3.9081	1.0121	26.05	2.54	0.050			
0.2594	16604.37	3.9070	3.9069	1.0133	25.99	2.48	0.050			
0.2605	16669.03	3.9060	3.9060	1.0176	25.93	2.42	0.050			
0.2615	16734.66	3.9050	3.9049	1.0196	25.87	2.36	0.050			
0.2625	16800.18	3.9040	3.9040	1.0203	25.81	2.30	0.050			
0.2635	16865.21	3.9030	3.9029	1.0207	25.76	2.25	0.050			
0.2645	16930.37	3.9020	3.9023	1.0217	25.71	2.20	0.050			
0.2655	16994.81	3.9010	3.9010	1.0225	25.64	2.13	0.050			
0.2666	17060.42	3.9000	3.8998	1.0281	25.60	2.09	0.050			
0.2676	17126.63	3.8990	3.8990	1.0281	25.55	2.04	0.050			
0.2686	17192.25	3.8980	3.8982	1.0282	25.50	1.99	0.050			
0.2697	17258.68	3.8970	3.8971	1.0290	25.47	1.96	0.050			
0.2707	17325.33	3.8960	3.8962	1.0298	25.42	1.91	0.050			
0.2717	17391.61	3.8950	3.8949	1.0281	25.39	1.88	0.050			
0.2728	17457.11	3.8940	3.8938	1.0282	25.35	1.84	0.050			
0.2738	17523.29	3.8930	3.8930	1.0281	25.32	1.81	0.050			
0.2748	17590.30	3.8920	3.8921	1.0253	25.30	1.79	0.050			
0.2759	17656.60	3.8910	3.8910	1.0252	25.28	1.77	0.050			
0.2769	17723.46	3.8900	3.8899	1.0223	25.27	1.76	0.050			
0.2779	17788.71	3.8890	3.8888	1.0180	25.27	1.76	0.050			
0.2790	17853.62	3.8880	3.8881	1.0142	25.28	1.77	0.050			
0.2800	17917.42	3.8870	3.8868	1.0128	25.29	1.78	0.050			
0.2810	17981.08	3.8860	3.8861	1.0104	25.32	1.81	0.050			
0.2820	18045.64	3.8850	3.8850	1.0119	25.35	1.84	0.050			
0.2830	18109.01	3.8840	3.8841	1.0130	25.39	1.88	0.050			
0.2840	18172.95	3.8830	3.8830	1.0111	25.46	1.95	0.050			
0.2850	18237.05	3.8820	3.8817	1.0138	25.53	2.02	0.050			
0.2859	18300.09	3.8810	3.8810	1.0171	25.61	2.10	0.050			
0.2870	18365.00	3.8800	3.8798	1.0188	25.73	2.22	0.050			
0.2880	18430.64	3.8790	3.8791	1.0239	25.86	2.35	0.050			
0.2890	18496.60	3.8780	3.8778	1.0258	25.99	2.48	0.050			
0.2900	18561.69	3.8770	3.8773	1.0305	26.13	2.62	0.050			
0.2911	18627.38	3.8760	3.8762	1.0376	26.27	2.76	0.050			
0.2921	18694.09	3.8750	3.8752	1.0433	26.40	2.89	0.050			
0.2931	18761.45	3.8740	3.8740	1.0472	26.52	3.01	0.050			
0.2942	18829.59	3.8730	3.8728	1.0526	26.60	3.09	0.050			
0.2953	18897.57	3.8720	3.8718	1.0574	26.65	3.14	0.050			
0.2963	18965.50	3.8710	3.8713	1.0625	26.63	3.12	0.050			
0.2974	19033.72	3.8700	3.8703	1.0667	26.57	3.06	0.050			
0.2985	19102.27	3.8690	3.8690	1.0716	26.52	3.01	0.050			
0.2996	19171.33	3.8680	3.8679	1.0728	26.45	2.94	0.050			
0.3006	19239.92	3.8670	3.8671	1.0732	26.40	2.89	0.050			
0.3017	19308.77	3.8660	3.8660	1.0786	26.34	2.83	0.050			
0.3028	19378.28	3.8650	3.8650	1.0814	26.28	2.77	0.050			
0.3039	19447.75	3.8640	3.8639	1.0833	26.20	2.69	0.050			
0.3050	19517.24	3.8630	3.8630	1.0835	26.14	2.63	0.050			
0.3061	19587.68	3.8620	3.8622	1.0848	26.07	2.56	0.050			
0.3071	19657.43	3.8610	3.8611	1.0868	26.00	2.49	0.050			
0.3083	19728.30	3.8600	3.8599	1.0889	25.93	2.42	0.050			
0.3093	19798.35	3.8590	3.8591	1.0830	25.87	2.36	0.050			
0.3104	19868.08	3.8580	3.8581	1.0835	25.80	2.29	0.050			
0.3115	19937.04	3.8570	3.8567	1.0792	25.72	2.21	0.050			
0.3126	20005.86	3.8560	3.8562	1.0797	25.65	2.14	0.050			
0.3137	20075.18	3.8550	3.8549	1.0793	25.57	2.06	0.050			
0.3148	20144.40	3.8540	3.8541	1.0799	25.50	1.99	0.050			
0.3158	20213.55	3.8530	3.8530	1.0762	25.42	1.91	0.050			
0.3169	20282.26	3.8520	3.8519	1.0744	25.34	1.83	0.050			
0.3180	20350.10	3.8510	3.8511	1.0719	25.25	1.74	0.050			
0.3190	20419.12	3.8500	3.8499	1.0693	25.17	1.66	0.050			
0.3201	20488.09	3.8490	3.8488	1.0647	25.09	1.58	0.050			
0.3212	20556.78	3.8480	3.8479	1.0625	24.99	1.48	0.050			
0.3223	20625.93	3.8470	3.8468	1.0551	24.90	1.39	0.050			
0.3233	20693.05	3.8460	3.8462	1.0468	24.82	1.31	0.050			
0.3244	20761.24	3.8450	3.8452	1.0417	24.73	1.22	0.050			
0.3254	20828.28	3.8440	3.8441	1.0330	24.64	1.13	0.050			
0.3265	20895.17	3.8430	3.8429	1.0254	24.54	1.03	0.050			
0.3275	20960.08	3.8420	3.8420	1.0184	24.44	0.93	0.050			
0.3285	21026.42	3.8410	3.8412	1.0090	24.35	0.84	0.050			
0.3296	21091.54	3.8400	3.8399	0.9998	24.24	0.73	0.050			
0.3306	21155.62	3.8390	3.8390	0.9906	24.15	0.64	0.050			
0.3315	21217.91	3.8380	3.8380	0.9766	24.04	0.53	0.050			
0.3325	21280.43	3.8370	3.8370	0.9645	23.94	0.43	0.050			
0.3335	21341.87	3.8360	3.8360	0.9492	23.84	0.33	0.050			
0.3344	21402.75	3.8350	3.8350	0.9365	23.74	0.23	0.050			
0.3354	21462.60	3.8340	3.8339	0.9216	23.64	0.13	0.050			
0.3363	21521.75	3.8330	3.8330	0.9082	23.56	0.05	0.050			
0.3372	21579.33	3.8320	3.8321	0.8936	23.46	-0.05	0.050			
0.3381	21636.20	3.8310	3.8311	0.8800	23.36	-0.15	0.050			
0.3389	21692.26	3.8300	3.8301	0.8671	23.29	-0.22	0.050			
0.3398	21748.18	3.8290	3.8291	0.8539	23.22	-0.29	0.050			
0.3407	21801.96	3.8280	3.8279	0.8394	23.16	-0.35	0.050			
0.3415	21855.02	3.8270	3.8269	0.8304	23.11	-0.40	0.050			
0.3423	21907.72	3.8260	3.8258	0.8146	23.05	-0.46	0.050			
0.3431	21958.88	3.8250	3.8251	0.7994	23.00	-0.51	0.050			
0.3439	22008.63	3.8240	3.8241	0.7873	22.96	-0.55	0.050			
0.3447	22057.68	3.8230	3.8229	0.7735	22.93	-0.58	0.050			
0.3454	22106.30	3.8220	3.8222	0.7589	22.89	-0.62	0.050			
0.3462	22154.98	3.8210	3.8210	0.7483	22.87	-0.64	0.050			
0.3469	22202.65	3.8200	3.8200	0.7389	22.86	-0.65	0.050			
0.3476	22248.24	3.8190	3.8189	0.7273	22.86	-0.65	0.050			
0.3484	22294.71	3.8180	3.8180	0.7203	22.86	-0.65	0.050			
0.3491	22340.24	3.8170	3.8174	0.7116	22.86	-0.65	0.050			
0.3498	22384.92	3.8160	3.8160	0.7062	22.86	-0.65	0.050			
0.3505	22429.27	3.8150	3.8148	0.6968	22.86	-0.65	0.050			
0.3511	22473.04	3.8140	3.8140	0.6915	22.87	-0.64	0.050			
0.3518	22516.80	3.8130	3.8131	0.6858	22.86	-0.65	0.050			
0.3525	22559.39	3.8120	3.8120	0.6773	22.86	-0.65	0.050			
0.3532	22601.79	3.8110	3.8108	0.6745	22.86	-0.65	0.050			
0.3538	22644.24	3.8100	3.8099	0.6696	22.86	-0.65	0.050			
0.3545	22686.25	3.8090	3.8090	0.6671	22.86	-0.65	0.050			
0.3551	22728.24	3.8080	3.8081	0.6655	22.86	-0.65	0.050			
0.3558	22769.55	3.8070	3.8069	0.6619	22.86	-0.65	0.050			
0.3564	22812.75	3.8060	3.8061	0.6642	22.86	-0.65	0.050			
0.3571	22854.98	3.8050	3.8048	0.6647	22.86	-0.65	0.050			
0.3578	22896.79	3.8040	3.8042	0.6641	22.86	-0.65	0.050			
0.3584	22938.53	3.8030	3.8031	0.6674	22.86	-0.65	0.050			
0.3591	22981.15	3.8020	3.8017	0.6716	22.86	-0.65	0.050			
0.3597	23024.00	3.8010	3.8009	0.6752	22.86	-0.65	0.050			
0.3604	23066.22	3.8000	3.7998	0.6783	22.86	-0.65	0.050			
0.3611	23108.82	3.7990	3.7992	0.6817	22.86	-0.65	0.050			
0.3618	23152.34	3.7980	3.7978	0.6854	22.86	-0.65	0.050			
0.3624	23195.29	3.7970	3.7970	0.6936	22.86	-0.65	0.050			
0.3631	23238.79	3.7960	3.7958	0.7025	22.85	-0.66	0.050			
0.3638	23283.05	3.7950	3.7950	0.7110	22.86	-0.65	0.050			
0.3645	23329.14	3.7940	3.7939	0.7207	22.85	-0.66	0.050			
0.3652	23375.28	3.7930	3.7931	0.7279	22.86	-0.65	0.050			
0.3660	23422.24	3.7920	3.7920	0.7385	22.85	-0.66	0.050			
0.3667	23469.85	3.7910	3.7910	0.7451	22.85	-0.66	0.050			
0.3675	23518.08	3.7900	3.7898	0.7548	22.85	-0.66	0.050			
0.3682	23566.66	3.7890	3.7890	0.7656	22.85	-0.66	0.050			
0.3690	23616.47	3.7880	3.7876	0.7761	22.86	-0.65	0.050			
0.3698	23666.09	3.7870	3.7871	0.7856	22.86	-0.65	0.050			
0.3706	23717.07	3.7860	3.7860	0.7954	22.85	-0.66	0.050			
0.3714	23768.00	3.7850	3.7853	0.8059	22.86	-0.65	0.050			
0.3722	23819.51	3.7840	3.7841	0.8154	22.86	-0.65	0.050			
0.3730	23871.87	3.7830	3.7829	0.8253	22.85	-0.66	0.050			
0.3738	23924.16	3.7820	3.7821	0.8373	22.86	-0.65	0.050			
0.3747	23978.63	3.7810	3.7809	0.8491	22.86	-0.65	0.050			
0.3755	24033.26	3.7800	3.7802	0.8605	22.86	-0.65	0.050			
0.3764	24088.09	3.7790	3.7787	0.8702	22.87	-0.64	0.050			
0.3773	24144.66	3.7780	3.7778	0.8800	22.87	-0.64	0.050			
0.3781	24201.00	3.7770	3.7771	0.8873	22.87	-0.64	0.050			
0.3790	24258.51	3.7760	3.7759	0.8980	22.87	-0.64	0.050			
0.3799	24316.01	3.7750	3.7751	0.9093	22.87	-0.64	0.050			
0.3809	24375.04	3.7740	3.7741	0.9221	22.88	-0.63	0.050			
0.3818	24434.24	3.7730	3.7730	0.9361	22.88	-0.63	0.050			
0.3827	24494.78	3.7720	3.7721	0.9458	22.88	-0.63	0.050			
0.3837	24556.07	3.7710	3.7710	0.9555	22.88	-0.63	0.050			
0.3847	24618.00	3.7700	3.7701	0.9640	22.88	-0.63	0.050			
0.3856	24680.72	3.7690	3.7691	0.9746	22.88	-0.63	0.050			
0.3866	24742.24	3.7680	3.7678	0.9862	22.89	-0.62	0.050			
0.3876	24805.85	3.7670	3.7669	0.9962	22.90	-0.61	0.050			
0.3886	24870.41	3.7660	3.7658	1.0050	22.89	-0.62	0.050			
0.3896	24934.36	3.7650	3.7649	1.0153	22.90	-0.61	0.050			
0.3906	25000.11	3.7640	3.7639	1.0253	22.90	-0.61	0.050			
0.3917	25065.87	3.7630	3.7629	1.0349	22.90	-0.61	0.050			
0.3927	25131.93	3.7620	3.7619	1.0447	22.91	-0.60	0.050			
0.3938	25200.64	3.7610	3.7610	1.0538	22.91	-0.60	0.050			
0.3948	25268.27	3.7600	3.7599	1.0639	22.91	-0.60	0.050			
0.3959	25336.69	3.7590	3.7588	1.0741	22.91	-0.60	0.050			
0.3970	25405.35	3.7580	3.7580	1.0843	22.91	-0.60	0.050			
0.3981	25475.82	3.7570	3.7568	1.0918	22.93	-0.58	0.050			
0.3991	25545.32	3.7560	3.7558	1.1029	22.92	-0.59	0.050			
0.4002	25615.94	3.7550	3.7552	1.1095	22.92	-0.59	0.050			
0.4014	25687.06	3.7540	3.7542	1.1198	22.92	-0.59	0.050			
0.4025	25759.25	3.7530	3.7531	1.1288	22.93	-0.58	0.050			
0.4036	25832.38	3.7520	3.7520	1.1376	22.94	-0.57	0.050			
0.4048	25906.44	3.7510	3.7507	1.1464	22.94	-0.57	0.050			
0.4059	25979.88	3.7500	3.7499	1.1544	22.94	-0.57	0.050			
0.4071	26053.10	3.7490	3.7490	1.1634	22.94	-0.57	0.050			
0.4082	26126.87	3.7480	3.7480	1.1727	22.93	-0.58	0.050			
0.4094	26202.91	3.7470	3.7468	1.1857	22.94	-0.57	0.050			
0.4106	26278.81	3.7460	3.7463	1.1956	22.94	-0.57	0.050			
0.4118	26355.19	3.7450	3.7451	1.2040	22.94	-0.57	0.050			
0.4130	26433.50	3.7440	3.7441	1.2131	22.94	-0.57	0.050			
0.4143	26512.32	3.7430	3.7429	1.2233	22.94	-0.57	0.050			
0.4155	26590.01	3.7420	3.7420	1.2330	22.94	-0.57	0.050			
0.4167	26669.31	3.7410	3.7410	1.2429	22.94	-0.57	0.050			
0.4179	26748.18	3.7400	3.7400	1.2517	22.94	-0.57	0.050			
0.4192	26829.45	3.7390	3.7390	1.2600	22.94	-0.57	0.050			
0.4205	26910.11	3.7380	3.7380	1.2709	22.94	-0.57	0.050			
0.4217	26991.87	3.7370	3.7370	1.2819	22.94	-0.57	0.050			
0.4230	27074.34	3.7360	3.7358	1.2895	22.94	-0.57	0.050			
0.4243	27157.79	3.7350	3.7350	1.3018	22.94	-0.57	0.050			
0.4256	27240.33	3.7340	3.7338	1.3143	22.93	-0.58	0.050			
0.4269	27324.44	3.7330	3.7331	1.3283	22.93	-0.58	0.050			
0.4283	27410.31	3.7320	3.7320	1.3379	22.94	-0.57	0.050			
0.4296	27496.11	3.7310	3.7309	1.3472	22.94	-0.57	0.050			
0.4310	27582.24	3.7300	3.7301	1.3563	22.93	-0.58	0.050			
0.4323	27668.95	3.7290	3.7290	1.3666	22.94	-0.57	0.050			
0.4337	27756.54	3.7280	3.7280	1.3801	22.92	-0.59	0.050			
0.4351	27845.77	3.7270	3.7269	1.3912	22.92	-0.59	0.050			
0.4365	27935.11	3.7260	3.7261	1.4046	22.92	-0.59	0.050			
0.4379	28026.04	3.7250	3.7250	1.4167	22.92	-0.59	0.050			
0.4393	28117.17	3.7240	3.7242	1.4300	22.92	-0.59	0.050			
0.4407	28207.91	3.7230	3.7229	1.4416	22.92	-0.59	0.050			
0.4422	28300.63	3.7220	3.7219	1.4528	22.92	-0.59	0.050			
0.4437	28395.03	3.7210	3.7210	1.4645	22.91	-0.60	0.050			
0.4451	28488.37	3.7200	3.7201	1.4791	22.91	-0.60	0.050			
0.4466	28583.57	3.7190	3.7190	1.4938	22.91	-0.60	0.050			
0.4481	28678.55	3.7180	3.7182	1.5055	22.92	-0.59	0.050			
0.4496	28774.78	3.7170	3.7172	1.5221	22.91	-0.60	0.050			
0.4511	28871.32	3.7160	3.7162	1.5364	22.90	-0.61	0.050			
0.4527	28970.71	3.7150	3.7150	1.5484	22.90	-0.61	0.050			
0.4542	29070.88	3.7140	3.7139	1.5587	22.89	-0.62	0.050			
0.4558	29171.67	3.7130	3.7131	1.5773	22.89	-0.62	0.050			
0.4574	29272.66	3.7120	3.7119	1.5985	22.89	-0.62	0.050			
0.4590	29374.68	3.7110	3.7109	1.6114	22.89	-0.62	0.050			
0.4606	29479.14	3.7100	3.7100	1.6271	22.88	-0.63	0.050			
0.4622	29583.10	3.7090	3.7091	1.6442	22.89	-0.62	0.050			
0.4639	29688.36	3.7080	3.7080	1.6599	22.89	-0.62	0.050			
0.4656	29795.80	3.7070	3.7069	1.6794	22.88	-0.63	0.050			
0.4672	29903.33	3.7060	3.7063	1.6935	22.87	-0.64	0.050			
0.4689	30012.32	3.7050	3.7046	1.7128	22.87	-0.64	0.050			
0.4707	30121.89	3.7040	3.7039	1.7322	22.86	-0.65	0.050			
0.4724	30233.63	3.7030	3.7032	1.7485	22.87	-0.64	0.050			
0.4741	30345.38	3.7020	3.7020	1.7707	22.87	-0.64	0.050			
0.4759	30459.09	3.7010	3.7011	1.7901	22.86	-0.65	0.050			
0.4777	30573.92	3.7000	3.7003	1.8061	22.87	-0.64	0.050			
0.4795	30688.91	3.6990	3.6989	1.8275	22.87	-0.64	0.050			
0.4814	30807.37	3.6980	3.6980	1.8463	22.88	-0.63	0.050			
0.4832	30926.11	3.6970	3.6970	1.8672	22.87	-0.64	0.050			
0.4851	31046.50	3.6960	3.6962	1.8910	22.88	-0.63	0.050			
0.4870	31169.07	3.6950	3.6950	1.9129	22.89	-0.62	0.050			
0.4889	31291.05	3.6940	3.6941	1.9315	22.89	-0.62	0.050			
0.4908	31413.02	3.6930	3.6929	1.9535	22.89	-0.62	0.050			
0.4928	31538.78	3.6920	3.6922	1.9782	22.89	-0.62	0.050			
0.4948	31667.43	3.6910	3.6910	2.0019	22.90	-0.61	0.050			
0.4968	31795.97	3.6900	3.6901	2.0272	22.91	-0.60	0.050			
0.4988	31924.06	3.6890	3.6893	2.0546	22.90	-0.61	0.050			
0.5009	32056.70	3.6880	3.6879	2.0806	22.91	-0.60	0.050			
0.5030	32190.68	3.6870	3.6871	2.1053	22.92	-0.59	0.050			
0.5051	32326.37	3.6860	3.6860	2.1304	22.92	-0.59	0.050			
0.5072	32463.14	3.6850	3.6849	2.1547	22.93	-0.58	0.050			
0.5094	32601.45	3.6840	3.6839	2.1835	22.92	-0.59	0.050			
0.5116	32740.55	3.6830	3.6830	2.2160	22.93	-0.58	0.050			
0.5138	32884.08	3.6820	3.6820	2.2447	22.93	-0.58	0.050			
0.5161	33029.22	3.6810	3.6809	2.2742	22.93	-0.58	0.050			
0.5184	33175.19	3.6800	3.6800	2.3022	22.93	-0.58	0.050			
0.5207	33323.12	3.6790	3.6792	2.3333	22.93	-0.58	0.050			
0.5230	33473.28	3.6780	3.6780	2.3688	22.92	-0.59	0.050			
0.5254	33624.30	3.6770	3.6770	2.3974	22.92	-0.59	0.050			
0.5278	33779.04	3.6760	3.6761	2.4297	22.92	-0.59	0.050			
0.5302	33935.65	3.6750	3.6750	2.4626	22.91	-0.60	0.050			
0.5327	34094.47	3.6740	3.6737	2.4906	22.91	-0.60	0.050			
0.5352	34253.57	3.6730	3.6728	2.5283	22.92	-0.59	0.050			
0.5377	34415.60	3.6720	3.6722	2.5684	22.91	-0.60	0.050			
0.5403	34580.19	3.6710	3.6711	2.6016	22.90	-0.61	0.050			
0.5429	34746.99	3.6700	3.6701	2.6391	22.90	-0.61	0.050			
0.5456	34918.76	3.6690	3.6693	2.6721	22.90	-0.61	0.050			
0.5483	35091.89	3.6680	3.6681	2.7059	22.88	-0.63	0.050			
0.5510	35264.65	3.6670	3.6669	2.7481	22.88	-0.63	0.050			
0.5538	35440.25	3.6660	3.6661	2.7845	22.87	-0.64	0.050			
0.5566	35620.12	3.6650	3.6648	2.8209	22.87	-0.64	0.050			
0.5594	35802.54	3.6640	3.6641	2.8648	22.85	-0.66	0.050			
0.5623	35987.84	3.6630	3.6627	2.9039	22.86	-0.65	0.050			
0.5653	36176.64	3.6620	3.6620	2.9308	22.84	-0.67	0.050			
0.5682	36364.68	3.6610	3.6610	2.9591	22.85	-0.66	0.050			
0.5712	36555.68	3.6600	3.6598	2.9886	22.84	-0.67	0.050			
0.5742	36747.26	3.6590	3.6592	3.0340	22.83	-0.68	0.050			
0.5772	36942.20	3.6580	3.6579	3.0714	22.82	-0.69	0.050			
0.5803	37140.45	3.6570	3.6570	3.1045	22.83	-0.68	0.050			
0.5834	37337.80	3.6560	3.6563	3.1396	22.83	-0.68	0.050			
0.5866	37540.66	3.6550	3.6550	3.1850	22.83	-0.68	0.050			
0.5898	37745.52	3.6540	3.6539	3.2252	22.84	-0.67	0.050			
0.5930	37954.87	3.6530	3.6528	3.2598	22.85	-0.66	0.050			
0.5963	38164.41	3.6520	3.6519	3.2809	22.85	-0.66	0.050			
0.5996	38375.93	3.6510	3.6510	3.3172	22.85	-0.66	0.050			
0.6029	38588.49	3.6500	3.6501	3.3655	22.86	-0.65	0.050			
0.6063	38805.64	3.6490	3.6490	3.3987	22.85	-0.66	0.050			
0.6098	39027.12	3.6480	3.6479	3.4270	22.86	-0.65	0.050			
0.6133	39249.46	3.6470	3.6470	3.4647	22.87	-0.64	0.050			
0.6167	39471.18	3.6460	3.6460	3.4797	22.87	-0.64	0.050			
0.6202	39692.39	3.6450	3.6449	3.5031	22.87	-0.64	0.050			
0.6237	39919.43	3.6440	3.6438	3.5318	22.86	-0.65	0.050			
0.6273	40147.14	3.6430	3.6432	3.5547	22.85	-0.66	0.050			
0.6309	40377.57	3.6420	3.6420	3.5677	22.85	-0.66	0.050			
0.6345	40606.21	3.6410	3.6411	3.5839	22.85	-0.66	0.050			
0.6381	40840.94	3.6400	3.6399	3.5929	22.83	-0.68	0.050			
0.6418	41073.84	3.6390	3.6392	3.5862	22.83	-0.68	0.050			
0.6454	41306.85	3.6380	3.6379	3.5485	22.81	-0.70	0.050			
0.6491	41541.92	3.6370	3.6369	3.4928	22.81	-0.70	0.050			
0.6527	41770.34	3.6360	3.6359	3.4522	22.79	-0.72	0.050			
0.6561	41993.51	3.6350	3.6351	3.3870	22.78	-0.73	0.050			
0.6595	42207.68	3.6340	3.6339	3.3091	22.77	-0.74	0.050			
0.6628	42417.38	3.6330	3.6331	3.2342	22.76	-0.75	0.050			
0.6659	42616.72	3.6320	3.6320	3.1569	22.75	-0.76	0.050			
0.6690	42813.11	3.6310	3.6311	3.0857	22.75	-0.76	0.050			
0.6720	43004.91	3.6300	3.6299	3.0177	22.74	-0.77	0.050			
0.6749	43192.51	3.6290	3.6289	2.9560	22.73	-0.78	0.050			
0.6778	43376.04	3.6280	3.6277	2.8906	22.72	-0.79	0.050			
0.6806	43560.74	3.6270	3.6269	2.8237	22.72	-0.79	0.050			
0.6835	43744.90	3.6260	3.6260	2.7635	22.73	-0.78	0.050			
0.6863	43925.14	3.6250	3.6246	2.6883	22.72	-0.79	0.050			
0.6892	44107.71	3.6240	3.6239	2.6140	22.73	-0.78	0.050			
0.6919	44280.44	3.6230	3.6232	2.5357	22.74	-0.77	0.050			
0.6942	44431.97	3.6220	3.6222	2.4420	22.75	-0.76	0.050			
0.6968	44594.15	3.6210	3.6209	2.3490	22.75	-0.76	0.050			
0.6992	44748.87	3.6200	3.6200	2.2508	22.77	-0.74	0.050			
0.7014	44892.73	3.6190	3.6193	2.1428	22.77	-0.74	0.050			
0.7036	45030.43	3.6180	3.6183	2.0369	22.78	-0.73	0.050			
0.7056	45158.79	3.6170	3.6172	1.9323	22.79	-0.72	0.050			
0.7075	45277.89	3.6160	3.6161	1.8299	22.79	-0.72	0.050			
0.7092	45388.15	3.6150	3.6150	1.7311	22.80	-0.71	0.050			
0.7107	45487.26	3.6140	3.6141	1.6347	22.80	-0.71	0.050			
0.7122	45579.31	3.6130	3.6129	1.5487	22.81	-0.70	0.050			
0.7135	45665.86	3.6120	3.6117	1.4737	22.82	-0.69	0.050			
0.7148	45749.19	3.6110	3.6107	1.3992	22.81	-0.70	0.050			
0.7160	45824.67	3.6100	3.6099	1.3396	22.82	-0.69	0.050			
0.7172	45899.77	3.6090	3.6088	1.3042	22.82	-0.69	0.050			
0.7184	45975.70	3.6080	3.6077	1.2773	22.82	-0.69	0.050			
0.7195	46050.12	3.6070	3.6067	1.2470	22.82	-0.69	0.050			
0.7207	46122.35	3.6060	3.6061	1.2344	22.83	-0.68	0.050			
0.7218	46196.18	3.6050	3.6048	1.2269	22.83	-0.68	0.050			
0.7230	46271.61	3.6040	3.6040	1.2294	22.83	-0.68	0.050			
0.7242	46347.59	3.6030	3.6029	1.2375	22.83	-0.68	0.050			
0.7254	46423.32	3.6020	3.6024	1.2543	22.83	-0.68	0.050			
0.7266	46500.41	3.6010	3.6007	1.2686	22.84	-0.67	0.050			
0.7278	46579.79	3.6000	3.5999	1.2848	22.84	-0.67	0.050			
0.7291	46662.48	3.5990	3.5992	1.3010	22.83	-0.68	0.050			
0.7304	46746.52	3.5980	3.5981	1.3192	22.84	-0.67	0.050			
0.7318	46832.31	3.5970	3.5966	1.3343	22.84	-0.67	0.050			
0.7331	46921.00	3.5960	3.5961	1.3511	22.85	-0.66	0.050			
0.7345	47010.70	3.5950	3.5947	1.3682	22.85	-0.66	0.050			
0.7360	47102.46	3.5940	3.5940	1.3730	22.84	-0.67	0.050			
0.7374	47193.28	3.5930	3.5930	1.3807	22.85	-0.66	0.050			
0.7388	47286.32	3.5920	3.5920	1.3839	22.85	-0.66	0.050			
0.7403	47378.44	3.5910	3.5911	1.3783	22.85	-0.66	0.050			
0.7417	47469.78	3.5900	3.5900	1.3648	22.85	-0.66	0.050			
0.7431	47560.93	3.5890	3.5890	1.3526	22.85	-0.66	0.050			
0.7445	47650.78	3.5880	3.5880	1.3335	22.85	-0.66	0.050			
0.7459	47737.71	3.5870	3.5871	1.3089	22.85	-0.66	0.050			
0.7472	47823.85	3.5860	3.5862	1.2851	22.85	-0.66	0.050			
0.7485	47905.28	3.5850	3.5849	1.2568	22.85	-0.66	0.050			
0.7498	47984.24	3.5840	3.5842	1.2293	22.85	-0.66	0.050			
0.7509	48060.10	3.5830	3.5830	1.2034	22.85	-0.66	0.050			
0.7521	48134.62	3.5820	3.5820	1.1743	22.85	-0.66	0.050			
0.7532	48206.76	3.5810	3.5811	1.1531	22.85	-0.66	0.050			
0.7543	48277.55	3.5800	3.5803	1.1358	22.85	-0.66	0.050			
0.7554	48346.84	3.5790	3.5789	1.1215	22.85	-0.66	0.050			
0.7565	48414.40	3.5780	3.5781	1.1081	22.85	-0.66	0.050			
0.7575	48481.47	3.5770	3.5771	1.0923	22.85	-0.66	0.050			
0.7586	48550.12	3.5760	3.5759	1.0832	22.85	-0.66	0.050			
0.7597	48618.02	3.5750	3.5749	1.0803	22.84	-0.67	0.050			
0.7607	48684.88	3.5740	3.5738	1.0739	22.85	-0.66	0.050			
0.7618	48752.97	3.5730	3.5731	1.0753	22.85	-0.66	0.050			
0.7628	48819.51	3.5720	3.5717	1.0775	22.85	-0.66	0.050			
0.7639	48887.79	3.5710	3.5710	1.0818	22.83	-0.68	0.050			
0.7650	48956.82	3.5700	3.5697	1.0889	22.84	-0.67	0.050			
0.7661	49027.74	3.5690	3.5691	1.0924	22.84	-0.67	0.050			
0.7672	49098.79	3.5680	3.5683	1.0921	22.83	-0.68	0.050			
0.7683	49170.08	3.5670	3.5671	1.0925	22.83	-0.68	0.050			
0.7694	49240.03	3.5660	3.5658	1.0915	22.84	-0.67	0.050			
0.7705	49310.71	3.5650	3.5649	1.0936	22.85	-0.66	0.050			
0.7716	49381.23	3.5640	3.5640	1.0941	22.84	-0.67	0.050			
0.7727	49451.93	3.5630	3.5628	1.0933	22.84	-0.67	0.050			
0.7738	49523.09	3.5620	3.5621	1.0897	22.83	-0.68	0.050			
0.7749	49593.23	3.5610	3.5612	1.0844	22.84	-0.67	0.050			
0.7760	49662.93	3.5600	3.5601	1.0816	22.84	-0.67	0.050			
0.7771	49732.39	3.5590	3.5589	1.0770	22.83	-0.68	0.050			
0.7782	49801.82	3.5580	3.5580	1.0733	22.83	-0.68	0.050			
0.7792	49871.57	3.5570	3.5570	1.0699	22.82	-0.69	0.050			
0.7803	49939.20	3.5560	3.5559	1.0658	22.83	-0.68	0.050			
0.7814	50006.83	3.5550	3.5551	1.0582	22.83	-0.68	0.050			
0.7824	50074.35	3.5540	3.5542	1.0513	22.82	-0.69	0.050			
0.7834	50139.09	3.5530	3.5531	1.0482	22.82	-0.69	0.050			
0.7844	50204.34	3.5520	3.5521	1.0459	22.83	-0.68	0.050			
0.7855	50270.92	3.5510	3.5508	1.0450	22.83	-0.68	0.050			
0.7865	50337.82	3.5500	3.5499	1.0442	22.83	-0.68	0.050			
0.7876	50404.96	3.5490	3.5489	1.0427	22.83	-0.68	0.050			
0.7886	50472.93	3.5480	3.5479	1.0416	22.83	-0.68	0.050			
0.7897	50538.24	3.5470	3.5469	1.0420	22.83	-0.68	0.050			
0.7907	50603.87	3.5460	3.5461	1.0441	22.83	-0.68	0.050			
0.7917	50669.06	3.5450	3.5450	1.0466	22.84	-0.67	0.050			
0.7927	50735.51	3.5440	3.5438	1.0516	22.85	-0.66	0.050			
0.7938	50803.23	3.5430	3.5431	1.0568	22.83	-0.68	0.050			
0.7949	50870.83	3.5420	3.5422	1.0618	22.85	-0.66	0.050			
0.7959	50938.73	3.5410	3.5410	1.0659	22.85	-0.66	0.050			
0.7970	51005.86	3.5400	3.5400	1.0715	22.85	-0.66	0.050			
0.7980	51074.03	3.5390	3.5389	1.0803	22.85	-0.66	0.050			
0.7991	51142.93	3.5380	3.5377	1.0871	22.85	-0.66	0.050			
0.8002	51212.00	3.5370	3.5371	1.0968	22.86	-0.65	0.050			
0.8013	51281.86	3.5360	3.5358	1.1046	22.86	-0.65	0.050			
0.8024	51351.19	3.5350	3.5350	1.1205	22.87	-0.64	0.050			
0.8035	51422.06	3.5340	3.5342	1.1361	22.88	-0.63	0.050			
0.8046	51492.06	3.5330	3.5331	1.1516	22.88	-0.63	0.050			
0.8057	51566.07	3.5320	3.5321	1.1700	22.88	-0.63	0.050			
0.8069	51640.09	3.5310	3.5309	1.1943	22.89	-0.62	0.050			
0.8081	51715.56	3.5300	3.5300	1.2186	22.89	-0.62	0.050			
0.8093	51793.46	3.5290	3.5291	1.2436	22.90	-0.61	0.050			
0.8105	51872.40	3.5280	3.5279	1.2668	22.90	-0.61	0.050			
0.8117	51951.48	3.5270	3.5270	1.2950	22.90	-0.61	0.050			
0.8130	52033.73	3.5260	3.5260	1.3258	22.91	-0.60	0.050			
0.8143	52117.64	3.5250	3.5252	1.3608	22.91	-0.60	0.050			
0.8157	52205.28	3.5240	3.5241	1.3966	22.91	-0.60	0.050			
0.8171	52292.80	3.5230	3.5231	1.4435	22.92	-0.59	0.050			
0.8185	52385.44	3.5220	3.5218	1.4840	22.93	-0.58	0.050			
0.8200	52479.54	3.5210	3.5210	1.5305	22.93	-0.58	0.050			
0.8215	52576.18	3.5200	3.5201	1.5794	22.93	-0.58	0.050			
0.8231	52677.61	3.5190	3.5189	1.6294	22.93	-0.58	0.050			
0.8247	52781.59	3.5180	3.5179	1.6849	22.94	-0.57	0.050			
0.8264	52890.89	3.5170	3.5167	1.7357	22.94	-0.57	0.050			
0.8282	53003.67	3.5160	3.5159	1.7905	22.95	-0.56	0.050			
0.8300	53119.00	3.5150	3.5150	1.8429	22.95	-0.56	0.050			
0.8318	53238.19	3.5140	3.5139	1.9024	22.95	-0.56	0.050			
0.8338	53361.99	3.5130	3.5132	1.9607	22.96	-0.55	0.050			
0.8358	53489.77	3.5120	3.5120	2.0218	22.96	-0.55	0.050			
0.8379	53623.13	3.5110	3.5110	2.0736	22.96	-0.55	0.050			
0.8400	53760.50	3.5100	3.5101	2.1253	22.97	-0.54	0.050			
0.8422	53901.62	3.5090	3.5087	2.1734	22.97	-0.54	0.050			
0.8445	54045.80	3.5080	3.5081	2.2118	22.97	-0.54	0.050			
0.8467	54191.75	3.5070	3.5070	2.2521	22.98	-0.53	0.050			
0.8491	54341.10	3.5060	3.5058	2.2842	22.97	-0.54	0.050			
0.8514	54492.79	3.5050	3.5049	2.3095	22.97	-0.54	0.050			
0.8538	54645.39	3.5040	3.5040	2.3254	22.96	-0.55	0.050			
0.8563	54800.85	3.5030	3.5028	2.3337	22.97	-0.54	0.050			
0.8587	54956.27	3.5020	3.5023	2.3346	22.96	-0.55	0.050			
0.8611	55111.18	3.5010	3.5010	2.3230	22.96	-0.55	0.050			
0.8636	55268.54	3.5000	3.5001	2.2959	22.95	-0.56	0.050			
0.8660	55422.66	3.4990	3.4989	2.2561	22.94	-0.57	0.050			
0.8684	55575.97	3.4980	3.4980	2.2069	22.96	-0.55	0.050			
0.8707	55722.88	3.4970	3.4971	2.1476	22.94	-0.57	0.050			
0.8729	55864.68	3.4960	3.4963	2.0726	22.94	-0.57	0.050			
0.8750	56002.66	3.4950	3.4950	1.9742	22.94	-0.57	0.050			
0.8771	56132.39	3.4940	3.4940	1.8775	22.94	-0.57	0.050			
0.8790	56254.43	3.4930	3.4932	1.7722	22.93	-0.58	0.050			
0.8808	56371.71	3.4920	3.4924	1.6672	22.93	-0.58	0.050			
0.8825	56480.89	3.4910	3.4913	1.5583	22.93	-0.58	0.050			
0.8840	56579.06	3.4900	3.4900	1.4461	22.92	-0.59	0.050			
0.8854	56667.46	3.4890	3.4892	1.3358	22.92	-0.59	0.050			
0.8866	56744.28	3.4880	3.4882	1.2278	22.92	-0.59	0.050			
0.8877	56815.72	3.4870	3.4870	1.1083	22.92	-0.59	0.050			
0.8887	56877.95	3.4860	3.4858	1.0185	22.92	-0.59	0.050			
0.8895	56930.29	3.4850	3.4848	0.9334	22.91	-0.60	0.050			
0.8903	56976.76	3.4840	3.4837	0.8588	22.92	-0.59	0.050			
0.8909	57018.85	3.4830	3.4826	0.7700	22.92	-0.59	0.050			
0.8915	57056.10	3.4820	3.4818	0.7115	22.92	-0.59	0.050			
0.8921	57095.77	3.4810	3.4808	0.6531	22.93	-0.58	0.050			
0.8926	57126.79	3.4800	3.4799	0.6097	22.93	-0.58	0.050			
0.8931	57158.97	3.4790	3.4788	0.5737	22.93	-0.58	0.050			
0.8936	57190.99	3.4780	3.4779	0.5363	22.93	-0.58	0.050			
0.8941	57222.15	3.4770	3.4769	0.5134	22.93	-0.58	0.050			
0.8946	57252.80	3.4760	3.4760	0.4877	22.93	-0.58	0.050			
0.8950	57279.94	3.4750	3.4748	0.4683	22.92	-0.59	0.050			
0.8954	57307.37	3.4740	3.4740	0.4518	22.92	-0.59	0.050			
0.8959	57334.79	3.4730	3.4728	0.4342	22.93	-0.58	0.050			
0.8963	57360.03	3.4720	3.4719	0.4209	22.94	-0.57	0.050			
0.8966	57385.47	3.4710	3.4707	0.4066	22.94	-0.57	0.050			
0.8970	57409.58	3.4700	3.4699	0.3959	22.94	-0.57	0.050			
0.8974	57433.99	3.4690	3.4693	0.3854	22.94	-0.57	0.050			
0.8978	57457.41	3.4680	3.4681	0.3774	22.94	-0.57	0.050			
0.8981	57481.33	3.4670	3.4669	0.3699	22.94	-0.57	0.050			
0.8985	57503.84	3.4660	3.4659	0.3633	22.94	-0.57	0.050			
0.8989	57526.48	3.4650	3.4649	0.3561	22.94	-0.57	0.050			
0.8992	57548.91	3.4640	3.4642	0.3490	22.95	-0.56	0.050			
0.8995	57571.06	3.4630	3.4630	0.3432	22.95	-0.56	0.050			
0.8999	57593.01	3.4620	3.4618	0.3378	22.95	-0.56	0.050			
0.9002	57614.44	3.4610	3.4610	0.3318	22.95	-0.56	0.050			
0.9005	57634.69	3.4600	3.4599	0.3271	22.95	-0.56	0.050			
0.9009	57654.59	3.4590	3.4591	0.3200	22.96	-0.55	0.050			
0.9012	57674.82	3.4580	3.4580	0.3163	22.96	-0.55	0.050			
0.9015	57695.21	3.4570	3.4571	0.3129	22.96	-0.55	0.050			
0.9018	57715.09	3.4560	3.4561	0.3086	22.96	-0.55	0.050			
0.9021	57734.53	3.4550	3.4552	0.3056	22.96	-0.55	0.050			
0.9024	57753.49	3.4540	3.4541	0.3006	22.96	-0.55	0.050			
0.9027	57772.17	3.4530	3.4530	0.2987	22.97	-0.54	0.050			
0.9030	57791.20	3.4520	3.4519	0.2958	22.97	-0.54	0.050			
0.9033	57809.67	3.4510	3.4508	0.2940	22.97	-0.54	0.050			
0.9036	57827.74	3.4500	3.4499	0.2901	22.97	-0.54	0.050			
0.9038	57846.29	3.4490	3.4491	0.2881	22.97	-0.54	0.050			
0.9041	57864.30	3.4480	3.4480	0.2853	22.98	-0.53	0.050			
0.9044	57882.52	3.4470	3.4470	0.2838	22.98	-0.53	0.050			
0.9047	57900.68	3.4460	3.4460	0.2803	22.98	-0.53	0.050			
0.9050	57918.57	3.4450	3.4449	0.2787	22.98	-0.53	0.050			
0.9053	57936.71	3.4440	3.4439	0.2761	22.98	-0.53	0.050			
0.9055	57954.32	3.4430	3.4429	0.2741	22.98	-0.53	0.050			
0.9058	57972.53	3.4420	3.4421	0.2733	22.99	-0.52	0.050			
0.9061	57989.60	3.4410	3.4411	0.2716	22.99	-0.52	0.050			
0.9064	58007.04	3.4400	3.4401	0.2695	22.99	-0.52	0.050			
0.9066	58024.13	3.4390	3.4390	0.2671	22.99	-0.52	0.050			
0.9069	58040.91	3.4380	3.4381	0.2640	22.99	-0.52	0.050			
0.9072	58057.74	3.4370	3.4371	0.2618	22.99	-0.52	0.050			
0.9074	58074.24	3.4360	3.4360	0.2603	22.99	-0.52	0.050			
0.9077	58091.01	3.4350	3.4351	0.2586	23.00	-0.51	0.050			
0.9079	58106.97	3.4340	3.4339	0.2581	23.00	-0.51	0.050			
0.9082	58123.09	3.4330	3.4329	0.2558	23.00	-0.51	0.050			
0.9084	58139.42	3.4320	3.4319	0.2545	23.01	-0.50	0.050			
0.9087	58155.29	3.4310	3.4309	0.2517	23.01	-0.50	0.050			
0.9089	58171.37	3.4300	3.4301	0.2508	23.02	-0.49	0.050			
0.9092	58187.14	3.4290	3.4291	0.2494	23.02	-0.49	0.050			
0.9094	58203.29	3.4280	3.4280	0.2481	23.03	-0.48	0.050			
0.9097	58219.14	3.4270	3.4269	0.2472	23.03	-0.48	0.050			
0.9099	58235.31	3.4260	3.4260	0.2458	23.03	-0.48	0.050			
0.9102	58251.00	3.4250	3.4249	0.2445	23.02	-0.49	0.050			
0.9104	58266.98	3.4240	3.4240	0.2439	23.02	-0.49	0.050			
0.9107	58282.22	3.4230	3.4230	0.2433	23.03	-0.48	0.050			
0.9109	58297.75	3.4220	3.4222	0.2420	23.03	-0.48	0.050			
0.9111	58313.47	3.4210	3.4211	0.2404	23.04	-0.47	0.050			
0.9114	58328.81	3.4200	3.4200	0.2388	23.04	-0.47	0.050			
0.9116	58343.88	3.4190	3.4190	0.2369	23.05	-0.46	0.050			
0.9119	58359.23	3.4180	3.4179	0.2349	23.05	-0.46	0.050			
0.9121	58374.21	3.4170	3.4170	0.2333	23.05	-0.46	0.050			
0.9123	58389.49	3.4160	3.4159	0.2323	23.05	-0.46	0.050			
0.9126	58404.16	3.4150	3.4149	0.2307	23.05	-0.46	0.050			
0.9128	58418.74	3.4140	3.4139	0.2284	23.05	-0.46	0.050			
0.9130	58433.30	3.4130	3.4129	0.2267	23.05	-0.46	0.050			
0.9132	58447.64	3.4120	3.4121	0.2253	23.05	-0.46	0.050			
0.9135	58461.74	3.4110	3.4112	0.2231	23.05	-0.46	0.050			
0.9137	58475.97	3.4100	3.4102	0.2217	23.05	-0.46	0.050			
0.9139	58489.91	3.4090	3.4090	0.2210	23.05	-0.46	0.050			
0.9141	58504.25	3.4080	3.4081	0.2203	23.06	-0.45	0.050			
0.9143	58518.30	3.4070	3.4069	0.2189	23.06	-0.45	0.050			
0.9146	58531.60	3.4060	3.4061	0.2182	23.06	-0.45	0.050			
0.9148	58545.55	3.4050	3.4049	0.2175	23.07	-0.44	0.050			
0.9150	58559.44	3.4040	3.4039	0.2168	23.07	-0.44	0.050			
0.9152	58572.94	3.4030	3.4029	0.2155	23.08	-0.43	0.050			
0.9154	58586.60	3.4020	3.4020	0.2156	23.08	-0.43	0.050			
0.9156	58599.71	3.4010	3.4011	0.2139	23.08	-0.43	0.050			
0.9158	58613.88	3.4000	3.3998	0.2132	23.08	-0.43	0.050			
0.9161	58627.53	3.3990	3.3990	0.2132	23.08	-0.43	0.050			
0.9163	58641.42	3.3980	3.3981	0.2136	23.08	-0.43	0.050			
0.9165	58655.36	3.3970	3.3970	0.2127	23.08	-0.43	0.050			
0.9167	58668.96	3.3960	3.3959	0.2121	23.09	-0.42	0.050			
0.9169	58682.80	3.3950	3.3949	0.2121	23.09	-0.42	0.050			
0.9171	58696.22	3.3940	3.3940	0.2116	23.09	-0.42	0.050			
0.9173	58709.74	3.3930	3.3930	0.2110	23.09	-0.42	0.050			
0.9176	58723.35	3.3920	3.3923	0.2105	23.09	-0.42	0.050			
0.9178	58737.10	3.3910	3.3912	0.2089	23.09	-0.42	0.050			
0.9180	58750.44	3.3900	3.3900	0.2078	23.09	-0.42	0.050			
0.9182	58763.99	3.3890	3.3889	0.2073	23.10	-0.41	0.050			
0.9184	58777.04	3.3880	3.3880	0.2064	23.10	-0.41	0.050			
0.9186	58790.21	3.3870	3.3869	0.2051	23.11	-0.40	0.050			
0.9188	58803.26	3.3860	3.3860	0.2038	23.11	-0.40	0.050			
0.9190	58816.27	3.3850	3.3850	0.2027	23.11	-0.40	0.050			
0.9192	58829.06	3.3840	3.3839	0.2020	23.12	-0.39	0.050			
0.9194	58841.96	3.3830	3.3829	0.2010	23.12	-0.39	0.050			
0.9196	58854.51	3.3820	3.3820	0.1997	23.12	-0.39	0.050			
0.9198	58867.28	3.3810	3.3812	0.1989	23.12	-0.39	0.050			
0.9200	58879.90	3.3800	3.3802	0.1978	23.12	-0.39	0.050			
0.9202	58892.54	3.3790	3.3790	0.1971	23.12	-0.39	0.050			
0.9204	58905.61	3.3780	3.3779	0.1948	23.12	-0.39	0.050			
0.9206	58918.36	3.3770	3.3767	0.1944	23.12	-0.39	0.050			
0.9208	58930.75	3.3760	3.3760	0.1929	23.13	-0.38	0.050			
0.9210	58943.05	3.3750	3.3749	0.1914	23.13	-0.38	0.050			
0.9212	58955.24	3.3740	3.3740	0.1905	23.13	-0.38	0.050			
0.9214	58967.38	3.3730	3.3732	0.1890	23.13	-0.38	0.050			
0.9216	58979.43	3.3720	3.3721	0.1876	23.13	-0.38	0.050			
0.9217	58990.86	3.3710	3.3710	0.1869	23.14	-0.37	0.050			
0.9219	59002.79	3.3700	3.3700	0.1860	23.14	-0.37	0.050			
0.9221	59014.66	3.3690	3.3691	0.1850	23.14	-0.37	0.050			
0.9223	59026.73	3.3680	3.3682	0.1845	23.14	-0.37	0.050			
0.9225	59038.54	3.3670	3.3671	0.1832	23.15	-0.36	0.050			
0.9227	59050.23	3.3660	3.3660	0.1820	23.15	-0.36	0.050			
0.9228	59061.84	3.3650	3.3648	0.1808	23.15	-0.36	0.050			
0.9230	59072.66	3.3640	3.3638	0.1799	23.15	-0.36	0.050			
0.9232	59084.16	3.3630	3.3627	0.1794	23.15	-0.36	0.050			
0.9234	59095.62	3.3620	3.3618	0.1788	23.15	-0.36	0.050			
0.9235	59106.64	3.3610	3.3610	0.1777	23.15	-0.36	0.050			
0.9237	59117.73	3.3600	3.3602	0.1782	23.15	-0.36	0.050			
0.9239	59129.14	3.3590	3.3593	0.1783	23.15	-0.36	0.050			
0.9241	59140.25	3.3580	3.3581	0.1778	23.15	-0.36	0.050			
0.9242	59151.88	3.3570	3.3571	0.1775	23.16	-0.35	0.050			
0.9244	59163.25	3.3560	3.3560	0.1776	23.16	-0.35	0.050			
0.9246	59174.62	3.3550	3.3548	0.1777	23.16	-0.35	0.050			
0.9248	59186.34	3.3540	3.3538	0.1782	23.16	-0.35	0.050			
0.9250	59198.04	3.3530	3.3529	0.1772	23.17	-0.34	0.050			
0.9251	59209.37	3.3520	3.3520	0.1767	23.17	-0.34	0.050			
0.9253	59220.60	3.3510	3.3509	0.1761	23.17	-0.34	0.050			
0.9255	59231.86	3.3500	3.3499	0.1757	23.17	-0.34	0.050			
0.9257	59243.52	3.3490	3.3489	0.1737	23.17	-0.34	0.050			
0.9259	59254.61	3.3480	3.3480	0.1729	23.18	-0.33	0.050			
0.9260	59265.82	3.3470	3.3471	0.1723	23.18	-0.33	0.050			
0.9262	59276.81	3.3460	3.3463	0.1712	23.18	-0.33	0.050			
0.9264	59287.71	3.3450	3.3452	0.1703	23.18	-0.33	0.050			
0.9266	59299.33	3.3440	3.3441	0.1710	23.18	-0.33	0.050			
0.9267	59310.22	3.3430	3.3430	0.1694	23.18	-0.33	0.050			
0.9269	59320.44	3.3420	3.3420	0.1692	23.18	-0.33	0.050			
0.9271	59331.23	3.3410	3.3410	0.1681	23.18	-0.33	0.050			
0.9272	59341.60	3.3400	3.3400	0.1663	23.18	-0.33	0.050			
0.9274	59352.22	3.3390	3.3391	0.1655	23.19	-0.32	0.050			
0.9275	59362.63	3.3380	3.3380	0.1651	23.19	-0.32	0.050			
0.9277	59372.71	3.3370	3.3370	0.1631	23.20	-0.31	0.050			
0.9279	59383.14	3.3360	3.3358	0.1628	23.20	-0.31	0.050			
0.9280	59393.54	3.3350	3.3349	0.1625	23.20	-0.31	0.050			
0.9282	59403.89	3.3340	3.3339	0.1623	23.20	-0.31	0.050			
0.9283	59414.06	3.3330	3.3329	0.1615	23.20	-0.31	0.050			
0.9285	59424.40	3.3320	3.3319	0.1614	23.20	-0.31	0.050			
0.9287	59434.73	3.3310	3.3311	0.1613	23.20	-0.31	0.050			
0.9288	59445.41	3.3300	3.3300	0.1599	23.20	-0.31	0.050			
0.9290	59455.77	3.3290	3.3290	0.1598	23.20	-0.31	0.050			
0.9292	59465.98	3.3280	3.3282	0.1593	23.21	-0.30	0.050			
0.9293	59476.16	3.3270	3.3271	0.1587	23.21	-0.30	0.050			
0.9295	59486.42	3.3260	3.3260	0.1577	23.21	-0.30	0.050			
0.9296	59496.94	3.3250	3.3249	0.1581	23.21	-0.30	0.050			
0.9298	59507.03	3.3240	3.3238	0.1571	23.22	-0.29	0.050			
0.9300	59517.05	3.3230	3.3231	0.1561	23.22	-0.29	0.050			
0.9301	59527.12	3.3220	3.3221	0.1552	23.22	-0.29	0.050			
0.9303	59536.86	3.3210	3.3211	0.1546	23.23	-0.28	0.050			
0.9304	59546.72	3.3200	3.3201	0.1536	23.23	-0.28	0.050			
0.9306	59556.52	3.3190	3.3191	0.1527	23.23	-0.28	0.050			
0.9307	59566.09	3.3180	3.3178	0.1515	23.23	-0.28	0.050			
0.9309	59575.56	3.3170	3.3169	0.1512	23.24	-0.27	0.050			
0.9310	59585.22	3.3160	3.3161	0.1506	23.24	-0.27	0.050			
0.9312	59594.84	3.3150	3.3151	0.1501	23.24	-0.27	0.050			
0.9313	59604.34	3.3140	3.3140	0.1493	23.24	-0.27	0.050			
0.9315	59613.74	3.3130	3.3130	0.1491	23.24	-0.27	0.050			
0.9316	59623.27	3.3120	3.3121	0.1487	23.24	-0.27	0.050			
0.9318	59632.77	3.3110	3.3110	0.1483	23.24	-0.27	0.050			
0.9319	59641.89	3.3100	3.3099	0.1472	23.24	-0.27	0.050			
0.9321	59651.30	3.3090	3.3089	0.1471	23.24	-0.27	0.050			
0.9322	59660.77	3.3080	3.3080	0.1468	23.24	-0.27	0.050			
0.9323	59670.16	3.3070	3.3070	0.1466	23.24	-0.27	0.050			
0.9325	59679.67	3.3060	3.3060	0.1466	23.25	-0.26	0.050			
0.9326	59689.05	3.3050	3.3048	0.1463	23.25	-0.26	0.050			
0.9328	59698.68	3.3040	3.3039	0.1453	23.25	-0.26	0.050			
0.9329	59707.97	3.3030	3.3030	0.1448	23.25	-0.26	0.050			
0.9331	59717.22	3.3020	3.3022	0.1443	23.25	-0.26	0.050			
0.9332	59726.57	3.3010	3.3011	0.1439	23.25	-0.26	0.050			
0.9334	59735.74	3.3000	3.3000	0.1433	23.26	-0.25	0.050			
0.9335	59744.89	3.2990	3.2989	0.1427	23.26	-0.25	0.050			
0.9337	59754.01	3.2980	3.2981	0.1421	23.26	-0.25	0.050			
0.9338	59763.26	3.2970	3.2969	0.1417	23.26	-0.25	0.050			
0.9339	59772.31	3.2960	3.2959	0.1410	23.26	-0.25	0.050			
0.9341	59781.33	3.2950	3.2949	0.1402	23.26	-0.25	0.050			
0.9342	59790.27	3.2940	3.2941	0.1394	23.25	-0.26	0.050			
0.9344	59799.20	3.2930	3.2933	0.1387	23.25	-0.26	0.050			
0.9345	59808.05	3.2920	3.2920	0.1379	23.25	-0.26	0.050			
0.9346	59816.85	3.2910	3.2909	0.1371	23.25	-0.26	0.050			
0.9348	59825.45	3.2900	3.2899	0.1369	23.25	-0.26	0.050			
0.9349	59834.19	3.2890	3.2890	0.1362	23.25	-0.26	0.050			
0.9350	59842.75	3.2880	3.2881	0.1354	23.26	-0.25	0.050			
0.9352	59851.39	3.2870	3.2872	0.1348	23.26	-0.25	0.050			
0.9353	59859.86	3.2860	3.2861	0.1346	23.26	-0.25	0.050			
0.9354	59868.46	3.2850	3.2850	0.1341	23.26	-0.25	0.050			
0.9356	59876.85	3.2840	3.2840	0.1333	23.26	-0.25	0.050			
0.9357	59885.37	3.2830	3.2830	0.1329	23.27	-0.24	0.050			
0.9358	59893.86	3.2820	3.2820	0.1326	23.27	-0.24	0.050			
0.9360	59902.34	3.2810	3.2809	0.1323	23.27	-0.24	0.050			
0.9361	59910.84	3.2800	3.2799	0.1320	23.28	-0.23	0.050			
0.9362	59919.48	3.2790	3.2789	0.1315	23.28	-0.23	0.050			
0.9364	59927.88	3.2780	3.2779	0.1310	23.28	-0.23	0.050			
0.9365	59936.25	3.2770	3.2769	0.1305	23.28	-0.23	0.050			
0.9366	59944.59	3.2760	3.2760	0.1300	23.29	-0.22	0.050			
0.9368	59952.86	3.2750	3.2750	0.1295	23.29	-0.22	0.050			
0.9369	59961.13	3.2740	3.2740	0.1290	23.29	-0.22	0.050			
0.9370	59969.38	3.2730	3.2729	0.1286	23.29	-0.22	0.050			
0.9372	59977.65	3.2720	3.2719	0.1279	23.29	-0.22	0.050			
0.9373	59985.82	3.2710	3.2710	0.1273	23.29	-0.22	0.050			
0.9374	59994.18	3.2700	3.2698	0.1273	23.29	-0.22	0.050			
0.9375	60002.30	3.2690	3.2690	0.1266	23.29	-0.22	0.050			
0.9377	60010.28	3.2680	3.2680	0.1262	23.29	-0.22	0.050			
0.9378	60018.34	3.2670	3.2671	0.1256	23.29	-0.22	0.050			
0.9379	60026.31	3.2660	3.2660	0.1249	23.29	-0.22	0.050			
0.9380	60034.28	3.2650	3.2652	0.1243	23.29	-0.22	0.050			
0.9382	60042.22	3.2640	3.2641	0.1237	23.29	-0.22	0.050			
0.9383	60050.12	3.2630	3.2627	0.1231	23.29	-0.22	0.050			
0.9384	60057.83	3.2620	3.2619	0.1230	23.30	-0.21	0.050			
0.9385	60065.69	3.2610	3.2610	0.1226	23.30	-0.21	0.050			
0.9386	60073.31	3.2600	3.2599	0.1219	23.30	-0.21	0.050			
0.9388	60081.08	3.2590	3.2590	0.1215	23.30	-0.21	0.050			
0.9389	60088.85	3.2580	3.2580	0.1212	23.30	-0.21	0.050			
0.9390	60096.59	3.2570	3.2571	0.1208	23.30	-0.21	0.050			
0.9391	60104.27	3.2560	3.2562	0.1207	23.31	-0.20	0.050			
0.9392	60111.98	3.2550	3.2550	0.1204	23.31	-0.20	0.050			
0.9394	60119.68	3.2540	3.2539	0.1202	23.31	-0.20	0.050			
0.9395	60127.37	3.2530	3.2530	0.1199	23.31	-0.20	0.050			
0.9396	60134.88	3.2520	3.2519	0.1195	23.31	-0.20	0.050			
0.9397	60142.85	3.2510	3.2511	0.1186	23.31	-0.20	0.050			
0.9399	60150.43	3.2500	3.2500	0.1182	23.31	-0.20	0.050			
0.9400	60157.98	3.2490	3.2488	0.1178	23.32	-0.19	0.050			
0.9401	60165.67	3.2480	3.2479	0.1176	23.32	-0.19	0.050			
0.9402	60173.18	3.2470	3.2470	0.1171	23.32	-0.19	0.050			
0.9403	60180.60	3.2460	3.2460	0.1166	23.32	-0.19	0.050			
0.9404	60188.05	3.2450	3.2452	0.1161	23.32	-0.19	0.050			
0.9406	60195.47	3.2440	3.2439	0.1156	23.32	-0.19	0.050			
0.9407	60202.85	3.2430	3.2430	0.1151	23.32	-0.19	0.050			
0.9408	60210.33	3.2420	3.2423	0.1148	23.32	-0.19	0.050			
0.9409	60217.66	3.2410	3.2412	0.1142	23.33	-0.18	0.050			
0.9410	60224.70	3.2400	3.2401	0.1141	23.33	-0.18	0.050			
0.9411	60231.99	3.2390	3.2390	0.1137	23.33	-0.18	0.050			
0.9412	60239.25	3.2380	3.2380	0.1133	23.33	-0.18	0.050			
0.9414	60246.49	3.2370	3.2369	0.1128	23.33	-0.18	0.050			
0.9415	60253.48	3.2360	3.2358	0.1121	23.33	-0.18	0.050			
0.9416	60260.64	3.2350	3.2350	0.1119	23.33	-0.18	0.050			
0.9417	60268.00	3.2340	3.2340	0.1111	23.34	-0.17	0.050			
0.9418	60275.09	3.2330	3.2327	0.1106	23.34	-0.17	0.050			
0.9419	60282.16	3.2320	3.2317	0.1102	23.34	-0.17	0.050			
0.9420	60289.07	3.2310	3.2309	0.1096	23.34	-0.17	0.050			
0.9421	60296.07	3.2300	3.2301	0.1092	23.34	-0.17	0.050			
0.9422	60303.04	3.2290	3.2292	0.1088	23.34	-0.17	0.050			
0.9423	60309.89	3.2280	3.2283	0.1088	23.34	-0.17	0.050			
0.9425	60316.84	3.2270	3.2271	0.1085	23.34	-0.17	0.050			
0.9426	60323.93	3.2260	3.2261	0.1085	23.35	-0.16	0.050			
0.9427	60330.86	3.2250	3.2253	0.1081	23.35	-0.16	0.050			
0.9428	60337.77	3.2240	3.2242	0.1077	23.35	-0.16	0.050			
0.9429	60344.54	3.2230	3.2229	0.1077	23.35	-0.16	0.050			
0.9430	60351.42	3.2220	3.2220	0.1074	23.35	-0.16	0.050			
0.9431	60358.28	3.2210	3.2208	0.1070	23.35	-0.16	0.050			
0.9432	60365.01	3.2200	3.2199	0.1065	23.35	-0.16	0.050			
0.9433	60371.82	3.2190	3.2191	0.1063	23.35	-0.16	0.050			
0.9434	60378.62	3.2180	3.2179	0.1061	23.35	-0.16	0.050			
0.9435	60385.40	3.2170	3.2169	0.1058	23.35	-0.16	0.050			
0.9436	60392.37	3.2160	3.2160	0.1048	23.35	-0.16	0.050			
0.9437	60399.07	3.2150	3.2148	0.1044	23.35	-0.16	0.050			
0.9438	60405.73	3.2140	3.2140	0.1040	23.35	-0.16	0.050			
0.9439	60412.37	3.2130	3.2132	0.1036	23.36	-0.15	0.050			
0.9440	60418.99	3.2120	3.2121	0.1032	23.36	-0.15	0.050			
0.9441	60425.58	3.2110	3.2111	0.1028	23.36	-0.15	0.050			
0.9443	60432.15	3.2100	3.2102	0.1024	23.36	-0.15	0.050			
0.9444	60438.66	3.2090	3.2092	0.1022	23.37	-0.14	0.050			
0.9445	60445.52	3.2080	3.2081	0.1024	23.37	-0.14	0.050			
0.9446	60452.05	3.2070	3.2071	0.1019	23.37	-0.14	0.050			
0.9447	60458.56	3.2060	3.2062	0.1013	23.37	-0.14	0.050			
0.9448	60465.02	3.2050	3.2049	0.1008	23.37	-0.14	0.050			
0.9449	60471.46	3.2040	3.2039	0.1002	23.37	-0.14	0.050			
0.9450	60477.87	3.2030	3.2030	0.0993	23.38	-0.13	0.050			
0.9451	60484.20	3.2020	3.2021	0.0987	23.38	-0.13	0.050			
0.9452	60490.50	3.2010	3.2010	0.0981	23.38	-0.13	0.050			
0.9453	60496.76	3.2000	3.1998	0.0976	23.38	-0.13	0.050			
0.9454	60502.99	3.1990	3.1986	0.0970	23.38	-0.13	0.050			
0.9455	60509.18	3.1980	3.1979	0.0965	23.38	-0.13	0.050			
0.9455	60515.14	3.1970	3.1971	0.0967	23.38	-0.13	0.050			
0.9456	60521.16	3.1960	3.1962	0.0958	23.38	-0.13	0.050			
0.9457	60527.28	3.1950	3.1952	0.0955	23.38	-0.13	0.050			
0.9458	60533.38	3.1940	3.1941	0.0952	23.39	-0.12	0.050			
0.9459	60539.46	3.1930	3.1931	0.0949	23.39	-0.12	0.050			
0.9460	60545.52	3.1920	3.1921	0.0945	23.39	-0.12	0.050			
0.9461	60551.56	3.1910	3.1909	0.0942	23.39	-0.12	0.050			
0.9462	60557.55	3.1900	3.1897	0.0940	23.39	-0.12	0.050			
0.9463	60563.56	3.1890	3.1890	0.0937	23.39	-0.12	0.050			
0.9464	60569.55	3.1880	3.1880	0.0934	23.39	-0.12	0.050			
0.9465	60575.52	3.1870	3.1870	0.0931	23.39	-0.12	0.050			
0.9466	60581.47	3.1860	3.1859	0.0928	23.39	-0.12	0.050			
0.9467	60587.40	3.1850	3.1849	0.0925	23.39	-0.12	0.050			
0.9468	60593.31	3.1840	3.1840	0.0923	23.39	-0.12	0.050			
0.9469	60598.79	3.1830	3.1831	0.0918	23.39	-0.12	0.050			
0.9469	60604.66	3.1820	3.1820	0.0917	23.39	-0.12	0.050			
0.9470	60610.53	3.1810	3.1809	0.0917	23.39	-0.12	0.050			
0.9471	60616.40	3.1800	3.1801	0.0917	23.39	-0.12	0.050			
0.9472	60622.27	3.1790	3.1791	0.0917	23.39	-0.12	0.050			
0.9473	60628.40	3.1780	3.1781	0.0909	23.39	-0.12	0.050			
0.9474	60634.43	3.1770	3.1771	0.0913	23.39	-0.12	0.050			
0.9475	60640.26	3.1760	3.1761	0.0910	23.40	-0.11	0.050			
0.9476	60646.07	3.1750	3.1751	0.0906	23.40	-0.11	0.050			
0.9477	60651.86	3.1740	3.1739	0.0903	23.40	-0.11	0.050			
0.9478	60657.63	3.1730	3.1728	0.0900	23.40	-0.11	0.050			
0.9479	60663.38	3.1720	3.1718	0.0896	23.40	-0.11	0.050			
0.9480	60669.17	3.1710	3.1710	0.0890	23.40	-0.11	0.050			
0.9480	60674.91	3.1700	3.1702	0.0888	23.40	-0.11	0.050			
0.9481	60680.59	3.1690	3.1691	0.0884	23.41	-0.10	0.050			
0.9482	60686.23	3.1680	3.1680	0.0880	23.41	-0.10	0.050			
0.9483	60691.84	3.1670	3.1670	0.0875	23.41	-0.10	0.050			
0.9484	60697.43	3.1660	3.1661	0.0871	23.41	-0.10	0.050			
0.9485	60702.99	3.1650	3.1651	0.0867	23.41	-0.10	0.050			
0.9486	60708.53	3.1640	3.1641	0.0862	23.42	-0.09	0.050			
0.9487	60714.17	3.1630	3.1629	0.0861	23.42	-0.09	0.050			
0.9487	60719.66	3.1620	3.1621	0.0856	23.42	-0.09	0.050			
0.9488	60725.12	3.1610	3.1610	0.0851	23.42	-0.09	0.050			
0.9489	60730.55	3.1600	3.1600	0.0846	23.42	-0.09	0.050			
0.9490	60735.94	3.1590	3.1590	0.0841	23.42	-0.09	0.050			
0.9491	60741.11	3.1580	3.1580	0.0833	23.42	-0.09	0.050			
0.9492	60746.43	3.1570	3.1570	0.0829	23.42	-0.09	0.050			
0.9492	60751.62	3.1560	3.1560	0.0828	23.42	-0.09	0.050			
0.9493	60756.90	3.1550	3.1550	0.0825	23.42	-0.09	0.050			
0.9494	60762.17	3.1540	3.1540	0.0821	23.42	-0.09	0.050			
0.9495	60767.42	3.1530	3.1530	0.0818	23.42	-0.09	0.050			
0.9496	60772.65	3.1520	3.1520	0.0815	23.42	-0.09	0.050			
0.9497	60777.80	3.1510	3.1510	0.0812	23.42	-0.09	0.050			
0.9497	60782.98	3.1500	3.1500	0.0809	23.42	-0.09	0.050			
0.9498	60787.97	3.1490	3.1490	0.0810	23.42	-0.09	0.050			
0.9499	60793.15	3.1480	3.1479	0.0808	23.42	-0.09	0.050			
0.9500	60798.32	3.1470	3.1469	0.0807	23.43	-0.08	0.050			
0.9501	60803.48	3.1460	3.1460	0.0805	23.43	-0.08	0.050			
0.9501	60808.63	3.1450	3.1450	0.0804	23.43	-0.08	0.050			
0.9502	60813.77	3.1440	3.1440	0.0802	23.43	-0.08	0.050			
0.9503	60818.66	3.1430	3.1429	0.0799	23.43	-0.08	0.050			
0.9504	60823.91	3.1420	3.1416	0.0796	23.43	-0.08	0.050			
0.9505	60829.00	3.1410	3.1411	0.0795	23.43	-0.08	0.050			
0.9505	60834.08	3.1400	3.1401	0.0794	23.43	-0.08	0.050			
0.9506	60839.16	3.1390	3.1391	0.0793	23.44	-0.07	0.050			
0.9507	60844.23	3.1380	3.1381	0.0792	23.44	-0.07	0.050			
0.9508	60849.30	3.1370	3.1371	0.0791	23.44	-0.07	0.050			
0.9509	60854.45	3.1360	3.1361	0.0790	23.44	-0.07	0.050			
0.9509	60859.90	3.1350	3.1351	0.0783	23.44	-0.07	0.050			
0.9510	60864.90	3.1340	3.1341	0.0779	23.45	-0.06	0.050			
0.9511	60869.88	3.1330	3.1330	0.0775	23.45	-0.06	0.050			
0.9512	60874.83	3.1320	3.1319	0.0771	23.45	-0.06	0.050			
0.9512	60879.75	3.1310	3.1309	0.0767	23.45	-0.06	0.050			
0.9513	60884.65	3.1300	3.1300	0.0763	23.45	-0.06	0.050			
0.9514	60889.88	3.1290	3.1290	0.0763	23.45	-0.06	0.050			
0.9515	60894.74	3.1280	3.1281	0.0757	23.45	-0.06	0.050			
0.9516	60899.23	3.1270	3.1272	0.0757	23.45	-0.06	0.050			
0.9516	60904.07	3.1260	3.1262	0.0753	23.45	-0.06	0.050			
0.9517	60908.87	3.1250	3.1251	0.0749	23.45	-0.06	0.050			
0.9518	60913.66	3.1240	3.1240	0.0745	23.45	-0.06	0.050			
0.9519	60918.41	3.1230	3.1230	0.0741	23.45	-0.06	0.050			
0.9519	60922.99	3.1220	3.1221	0.0735	23.45	-0.06	0.050			
0.9520	60927.68	3.1210	3.1209	0.0732	23.45	-0.06	0.050			
0.9521	60932.35	3.1200	3.1198	0.0729	23.45	-0.06	0.050			
0.9521	60936.86	3.1190	3.1189	0.0729	23.45	-0.06	0.050			
0.9522	60941.52	3.1180	3.1180	0.0726	23.45	-0.06	0.050			
0.9523	60946.16	3.1170	3.1169	0.0724	23.46	-0.05	0.050			
0.9524	60950.78	3.1160	3.1159	0.0722	23.46	-0.05	0.050			
0.9524	60955.06	3.1150	3.1150	0.0713	23.46	-0.05	0.050			
0.9525	60959.62	3.1140	3.1140	0.0713	23.46	-0.05	0.050			
0.9526	60964.18	3.1130	3.1130	0.0712	23.46	-0.05	0.050			
0.9526	60968.74	3.1120	3.1120	0.0712	23.46	-0.05	0.050			
0.9527	60973.57	3.1110	3.1110	0.0705	23.47	-0.04	0.050			
0.9528	60978.07	3.1100	3.1100	0.0703	23.47	-0.04	0.050			
0.9529	60982.57	3.1090	3.1088	0.0701	23.47	-0.04	0.050			
0.9529	60987.05	3.1080	3.1082	0.0699	23.47	-0.04	0.050			
0.9530	60991.83	3.1070	3.1070	0.0702	23.47	-0.04	0.050			
0.9531	60996.31	3.1060	3.1060	0.0698	23.47	-0.04	0.050			
0.9531	61000.77	3.1050	3.1051	0.0695	23.47	-0.04	0.050			
0.9532	61005.20	3.1040	3.1041	0.0691	23.47	-0.04	0.050			
0.9533	61009.41	3.1030	3.1031	0.0692	23.47	-0.04	0.050			
0.9533	61013.83	3.1020	3.1021	0.0689	23.47	-0.04	0.050			
0.9534	61018.23	3.1010	3.1011	0.0687	23.47	-0.04	0.050			
0.9535	61022.62	3.1000	3.1000	0.0684	23.47	-0.04	0.050			
0.9535	61026.89	3.0990	3.0991	0.0679	23.47	-0.04	0.050			
0.9536	61031.23	3.0980	3.0980	0.0677	23.47	-0.04	0.050			
0.9537	61035.56	3.0970	3.0968	0.0675	23.47	-0.04	0.050			
0.9537	61039.88	3.0960	3.0959	0.0673	23.47	-0.04	0.050			
0.9538	61044.18	3.0950	3.0950	0.0671	23.47	-0.04	0.050			
0.9539	61048.50	3.0940	3.0940	0.0668	23.47	-0.04	0.050			
0.9539	61052.77	3.0930	3.0930	0.0666	23.47	-0.04	0.050			
0.9540	61057.03	3.0920	3.0920	0.0663	23.47	-0.04	0.050			
0.9541	61061.16	3.0910	3.0910	0.0659	23.47	-0.04	0.050			
0.9541	61065.38	3.0900	3.0901	0.0657	23.48	-0.03	0.050			
0.9542	61069.58	3.0890	3.0891	0.0655	23.48	-0.03	0.050			
0.9543	61073.77	3.0880	3.0882	0.0654	23.48	-0.03	0.050			
0.9543	61077.94	3.0870	3.0872	0.0652	23.48	-0.03	0.050			
0.9544	61082.11	3.0860	3.0862	0.0650	23.48	-0.03	0.050			
0.9545	61086.29	3.0850	3.0851	0.0647	23.48	-0.03	0.050			
0.9545	61090.42	3.0840	3.0839	0.0646	23.48	-0.03	0.050			
0.9546	61094.68	3.0830	3.0831	0.0646	23.48	-0.03	0.050			
0.9547	61098.81	3.0820	3.0820	0.0643	23.48	-0.03	0.050			
0.9547	61102.92	3.0810	3.0810	0.0641	23.48	-0.03	0.050			
0.9548	61107.01	3.0800	3.0800	0.0638	23.48	-0.03	0.050			
0.9549	61111.08	3.0790	3.0790	0.0636	23.48	-0.03	0.050			
0.9549	61115.25	3.0780	3.0780	0.0630	23.48	-0.03	0.050			
0.9550	61119.27	3.0770	3.0770	0.0627	23.48	-0.03	0.050			
0.9551	61123.28	3.0760	3.0759	0.0624	23.48	-0.03	0.050			
0.9551	61127.26	3.0750	3.0749	0.0621	23.48	-0.03	0.050			
0.9552	61131.25	3.0740	3.0739	0.0618	23.48	-0.03	0.050			
0.9552	61135.20	3.0730	3.0729	0.0615	23.48	-0.03	0.050			
0.9553	61139.12	3.0720	3.0720	0.0612	23.48	-0.03	0.050			
0.9554	61143.03	3.0710	3.0710	0.0608	23.48	-0.03	0.050			
0.9554	61146.91	3.0700	3.0701	0.0605	23.48	-0.03	0.050			
0.9555	61150.77	3.0690	3.0691	0.0602	23.48	-0.03	0.050			
0.9555	61154.49	3.0680	3.0681	0.0603	23.48	-0.03	0.050			
0.9556	61158.34	3.0670	3.0672	0.0600	23.48	-0.03	0.050			
0.9557	61162.17	3.0660	3.0662	0.0598	23.48	-0.03	0.050			
0.9557	61165.95	3.0650	3.0650	0.0594	23.48	-0.03	0.050			
0.9558	61169.75	3.0640	3.0639	0.0592	23.48	-0.03	0.050			
0.9558	61173.53	3.0630	3.0629	0.0590	23.49	-0.02	0.050			
0.9559	61177.30	3.0620	3.0619	0.0587	23.49	-0.02	0.050			
0.9560	61181.05	3.0610	3.0609	0.0585	23.49	-0.02	0.050			
0.9560	61184.79	3.0600	3.0599	0.0583	23.49	-0.02	0.050			
0.9561	61189.09	3.0590	3.0588	0.0568	23.49	-0.02	0.050			
0.9561	61192.79	3.0580	3.0577	0.0569	23.49	-0.02	0.050			
0.9562	61196.42	3.0570	3.0567	0.0564	23.49	-0.02	0.050			
0.9563	61200.01	3.0560	3.0559	0.0558	23.49	-0.02	0.050			
0.9563	61203.56	3.0550	3.0550	0.0552	23.49	-0.02	0.050			
0.9564	61207.08	3.0540	3.0540	0.0547	23.49	-0.02	0.050			
0.9564	61210.56	3.0530	3.0530	0.0541	23.50	-0.01	0.050			
0.9565	61214.01	3.0520	3.0521	0.0536	23.50	-0.01	0.050			
0.9565	61217.42	3.0510	3.0512	0.0530	23.50	-0.01	0.050			
0.9566	61220.79	3.0500	3.0502	0.0524	23.50	-0.01	0.050			
0.9566	61224.13	3.0490	3.0493	0.0519	23.50	-0.01	0.050			
0.9567	61228.33	3.0480	3.0481	0.0524	23.50	-0.01	0.050			
0.9567	61231.66	3.0470	3.0471	0.0515	23.50	-0.01	0.050			
0.9568	61234.93	3.0460	3.0462	0.0506	23.50	-0.01	0.050			
0.9568	61238.14	3.0450	3.0453	0.0498	23.51	-0.00	0.050			
0.9569	61241.30	3.0440	3.0443	0.0489	23.51	-0.00	0.050			
0.9569	61244.40	3.0430	3.0433	0.0480	23.51	-0.00	0.050			
0.9570	61247.44	3.0420	3.0423	0.0471	23.51	-0.00	0.050			
0.9570	61250.43	3.0410	3.0413	0.0463	23.51	0.00	0.050			
0.9571	61253.37	3.0400	3.0404	0.0454	23.51	0.00	0.050			
0.9571	61256.24	3.0390	3.0395	0.0445	23.51	0.00	0.050			
0.9572	61259.06	3.0380	3.0386	0.0437	23.51	0.00	0.050			
0.9572	61261.83	3.0370	3.0378	0.0428	23.51	0.00	0.050			
0.9573	61264.54	3.0360	3.0368	0.0419	23.52	0.01	0.050			
0.9573	61267.19	3.0350	3.0358	0.0410	23.52	0.01	0.050			
0.9573	61269.79	3.0340	3.0348	0.0402	23.52	0.01	0.050			
