Ah_balance (normalized)	Ah_balance (mAh)	Voltage - fit (V)	Voltage -  interpolate (V)	dQ/dV (1/V)	Temperature (°C)	Temperature - diff (°C)	Current (C)	R_DC 0ms (mOhm)	R_DC 50ms (mOhm)	R_DC 50 ms PEC (mOhm)
0.0001	7.48	4.1870	4.1869	-0.3196	25.11	-0.04	-0.050			
0.0004	28.49	4.1860	4.1860	-0.4019	25.14	-0.01	-0.050			
0.0009	55.11	4.1850	4.1850	-0.4300	25.18	0.03	-0.050			
0.0013	85.45	4.1840	4.1840	-0.4734	25.22	0.07	-0.050			
0.0018	117.69	4.1830	4.1828	-0.4997	25.26	0.11	-0.050			
0.0023	150.22	4.1820	4.1817	-0.5168	25.30	0.15	-0.050			
0.0029	185.17	4.1810	4.1808	-0.5348	25.35	0.20	-0.050			
0.0035	221.19	4.1800	4.1798	-0.5495	25.39	0.24	-0.050			
0.0040	256.77	4.1790	4.1789	-0.5621	25.43	0.28	-0.050			
0.0046	293.77	4.1780	4.1777	-0.5735	25.46	0.31	-0.050			
0.0052	331.43	4.1770	4.1772	-0.5838	25.50	0.35	-0.050			
0.0058	369.59	4.1760	4.1764	-0.5933	25.55	0.40	-0.050			
0.0064	410.18	4.1750	4.1748	-0.6090	25.60	0.45	-0.050			
0.0070	449.24	4.1740	4.1739	-0.6170	25.65	0.50	-0.050			
0.0077	490.06	4.1730	4.1731	-0.6262	25.69	0.54	-0.050			
0.0083	530.81	4.1720	4.1719	-0.6338	25.73	0.58	-0.050			
0.0089	572.31	4.1710	4.1712	-0.6388	25.78	0.63	-0.050			
0.0096	612.77	4.1700	4.1699	-0.6448	25.83	0.68	-0.050			
0.0102	653.74	4.1690	4.1688	-0.6494	25.88	0.73	-0.050			
0.0109	695.81	4.1680	4.1681	-0.6544	25.92	0.77	-0.050			
0.0115	736.91	4.1670	4.1671	-0.6581	25.96	0.81	-0.050			
0.0122	779.46	4.1660	4.1659	-0.6655	26.01	0.86	-0.050			
0.0129	822.54	4.1650	4.1650	-0.6714	26.06	0.91	-0.050			
0.0135	866.96	4.1640	4.1642	-0.6784	26.10	0.95	-0.050			
0.0142	911.06	4.1630	4.1631	-0.6834	26.14	0.99	-0.050			
0.0149	954.46	4.1620	4.1621	-0.6896	26.18	1.03	-0.050			
0.0156	998.81	4.1610	4.1607	-0.6940	26.23	1.08	-0.050			
0.0163	1043.73	4.1600	4.1601	-0.7003	26.28	1.13	-0.050			
0.0170	1088.70	4.1590	4.1593	-0.7049	26.33	1.18	-0.050			
0.0177	1134.15	4.1580	4.1579	-0.7069	26.38	1.23	-0.050			
0.0184	1179.88	4.1570	4.1569	-0.7115	26.42	1.27	-0.050			
0.0192	1226.31	4.1560	4.1561	-0.7136	26.46	1.31	-0.050			
0.0199	1272.09	4.1550	4.1551	-0.7161	26.50	1.35	-0.050	0.278	0.492	
0.0206	1317.65	4.1540	4.1539	-0.7195	26.55	1.40	-0.050			
0.0213	1363.93	4.1530	4.1529	-0.7234	26.59	1.44	-0.050			
0.0221	1411.21	4.1520	4.1520	-0.7254	26.63	1.48	-0.050			
0.0228	1458.10	4.1510	4.1511	-0.7268	26.67	1.52	-0.050			
0.0235	1505.22	4.1500	4.1500	-0.7260	26.71	1.56	-0.050			
0.0242	1551.79	4.1490	4.1491	-0.7265	26.75	1.60	-0.050			
0.0250	1598.78	4.1480	4.1478	-0.7306	26.78	1.63	-0.050			
0.0257	1644.77	4.1470	4.1470	-0.7323	26.81	1.66	-0.050			
0.0264	1691.75	4.1460	4.1461	-0.7332	26.85	1.70	-0.050			
0.0272	1738.48	4.1450	4.1449	-0.7359	26.88	1.73	-0.050			
0.0279	1785.36	4.1440	4.1442	-0.7389	26.92	1.77	-0.050			
0.0286	1832.35	4.1430	4.1431	-0.7408	26.94	1.79	-0.050			
0.0294	1878.88	4.1420	4.1419	-0.7414	26.97	1.82	-0.050			
0.0301	1926.61	4.1410	4.1410	-0.7421	27.01	1.86	-0.050			
0.0309	1974.84	4.1400	4.1398	-0.7453	27.04	1.89	-0.050			
0.0316	2022.87	4.1390	4.1388	-0.7463	27.07	1.92	-0.050			
0.0323	2070.39	4.1380	4.1380	-0.7513	27.10	1.95	-0.050			
0.0331	2118.56	4.1370	4.1372	-0.7552	27.13	1.98	-0.050			
0.0339	2167.10	4.1360	4.1360	-0.7566	27.17	2.02	-0.050			
0.0346	2216.45	4.1350	4.1351	-0.7583	27.20	2.05	-0.050			
0.0354	2264.50	4.1340	4.1341	-0.7597	27.22	2.07	-0.050			
0.0361	2313.27	4.1330	4.1333	-0.7619	27.25	2.10	-0.050			
0.0369	2362.76	4.1320	4.1321	-0.7654	27.29	2.14	-0.050			
0.0377	2412.99	4.1310	4.1309	-0.7664	27.32	2.17	-0.050			
0.0385	2462.03	4.1300	4.1299	-0.7669	27.35	2.20	-0.050			
0.0392	2510.37	4.1290	4.1289	-0.7682	27.37	2.22	-0.050			
0.0400	2559.71	4.1280	4.1281	-0.7687	27.40	2.25	-0.050			
0.0408	2608.35	4.1270	4.1267	-0.7688	27.43	2.28	-0.050			
0.0415	2657.47	4.1260	4.1263	-0.7719	27.46	2.31	-0.050			
0.0423	2706.68	4.1250	4.1247	-0.7746	27.48	2.33	-0.050			
0.0431	2756.90	4.1240	4.1242	-0.7741	27.51	2.36	-0.050			
0.0439	2806.47	4.1230	4.1231	-0.7758	27.53	2.38	-0.050			
0.0446	2856.58	4.1220	4.1220	-0.7773	27.57	2.42	-0.050			
0.0454	2906.60	4.1210	4.1209	-0.7798	27.59	2.44	-0.050			
0.0462	2957.46	4.1200	4.1198	-0.7798	27.61	2.46	-0.050			
0.0470	3006.97	4.1190	4.1190	-0.7795	27.63	2.48	-0.050			
0.0478	3056.19	4.1180	4.1180	-0.7784	27.66	2.51	-0.050			
0.0485	3106.64	4.1170	4.1171	-0.7811	27.68	2.53	-0.050			
0.0493	3156.94	4.1160	4.1160	-0.7817	27.70	2.55	-0.050			
0.0501	3207.48	4.1150	4.1153	-0.7832	27.72	2.57	-0.050			
0.0509	3257.61	4.1140	4.1140	-0.7828	27.75	2.60	-0.050			
0.0517	3307.48	4.1130	4.1129	-0.7809	27.78	2.63	-0.050			
0.0525	3358.03	4.1120	4.1119	-0.7811	27.80	2.65	-0.050			
0.0533	3408.50	4.1110	4.1112	-0.7827	27.81	2.66	-0.050			
0.0540	3458.69	4.1100	4.1099	-0.7806	27.81	2.66	-0.050			
0.0548	3507.65	4.1090	4.1087	-0.7784	27.77	2.62	-0.050			
0.0556	3557.75	4.1080	4.1081	-0.7783	27.67	2.52	-0.050			
0.0564	3607.44	4.1070	4.1068	-0.7780	27.54	2.39	-0.050			
0.0571	3657.12	4.1060	4.1059	-0.7756	27.39	2.24	-0.050			
0.0579	3706.61	4.1050	4.1049	-0.7762	27.22	2.07	-0.050			
0.0587	3756.78	4.1040	4.1041	-0.7757	27.02	1.87	-0.050			
0.0595	3807.20	4.1030	4.1029	-0.7745	26.81	1.66	-0.050			
0.0603	3856.47	4.1020	4.1021	-0.7704	26.59	1.44	-0.050	0.196	0.521	
0.0610	3905.64	4.1010	4.1011	-0.7688	26.39	1.24	-0.050			
0.0618	3955.71	4.1000	4.1001	-0.7677	26.17	1.02	-0.050			
0.0626	4003.88	4.0990	4.0990	-0.7681	25.94	0.79	-0.050			
0.0633	4051.54	4.0980	4.0981	-0.7670	25.73	0.58	-0.050			
0.0641	4100.77	4.0970	4.0970	-0.7668	25.52	0.37	-0.050			
0.0648	4149.94	4.0960	4.0958	-0.7678	25.31	0.16	-0.050			
0.0656	4198.69	4.0950	4.0954	-0.7690	25.11	-0.04	-0.050			
0.0664	4247.89	4.0940	4.0942	-0.7687	24.92	-0.23	-0.050			
0.0671	4297.36	4.0930	4.0929	-0.7681	24.74	-0.41	-0.050			
0.0679	4345.67	4.0920	4.0919	-0.7698	24.59	-0.56	-0.050			
0.0687	4394.86	4.0910	4.0910	-0.7728	24.43	-0.72	-0.050			
0.0694	4442.94	4.0900	4.0897	-0.7768	24.29	-0.86	-0.050			
0.0702	4491.80	4.0890	4.0890	-0.7804	24.16	-0.99	-0.050			
0.0710	4542.08	4.0880	4.0883	-0.7838	24.04	-1.11	-0.050			
0.0718	4592.54	4.0870	4.0869	-0.7878	23.94	-1.21	-0.050			
0.0726	4643.50	4.0860	4.0861	-0.7901	23.85	-1.30	-0.050			
0.0734	4694.91	4.0850	4.0850	-0.7922	23.77	-1.38	-0.050			
0.0742	4745.88	4.0840	4.0839	-0.7976	23.70	-1.45	-0.050			
0.0750	4798.22	4.0830	4.0828	-0.8004	23.64	-1.51	-0.050			
0.0758	4849.17	4.0820	4.0820	-0.8049	23.59	-1.56	-0.050			
0.0766	4900.88	4.0810	4.0811	-0.8061	23.55	-1.60	-0.050			
0.0774	4952.61	4.0800	4.0800	-0.8075	23.52	-1.63	-0.050			
0.0782	5003.81	4.0790	4.0792	-0.8094	23.51	-1.64	-0.050			
0.0790	5055.01	4.0780	4.0780	-0.8109	23.51	-1.64	-0.050			
0.0798	5107.90	4.0770	4.0772	-0.8147	23.52	-1.63	-0.050	0.285	0.424	
0.0806	5160.91	4.0760	4.0761	-0.8175	23.54	-1.61	-0.050			
0.0815	5213.97	4.0750	4.0750	-0.8191	23.58	-1.57	-0.050			
0.0823	5266.01	4.0740	4.0741	-0.8208	23.62	-1.53	-0.050			
0.0831	5318.86	4.0730	4.0731	-0.8230	23.67	-1.48	-0.050			
0.0839	5370.60	4.0720	4.0721	-0.8219	23.73	-1.42	-0.050			
0.0847	5423.25	4.0710	4.0710	-0.8227	23.80	-1.35	-0.050			
0.0855	5475.17	4.0700	4.0700	-0.8241	23.88	-1.27	-0.050			
0.0864	5527.84	4.0690	4.0690	-0.8272	23.95	-1.20	-0.050			
0.0872	5580.77	4.0680	4.0680	-0.8329	24.04	-1.11	-0.050			
0.0880	5634.87	4.0670	4.0669	-0.8370	24.12	-1.03	-0.050			
0.0889	5689.30	4.0660	4.0657	-0.8368	24.20	-0.95	-0.050			
0.0897	5742.86	4.0650	4.0650	-0.8388	24.30	-0.85	-0.050			
0.0906	5796.23	4.0640	4.0640	-0.8414	24.38	-0.77	-0.050			
0.0914	5849.90	4.0630	4.0630	-0.8431	24.48	-0.67	-0.050			
0.0922	5903.66	4.0620	4.0621	-0.8475	24.56	-0.59	-0.050			
0.0931	5957.73	4.0610	4.0611	-0.8472	24.66	-0.49	-0.050			
0.0940	6013.66	4.0600	4.0600	-0.8476	24.75	-0.40	-0.050			
0.0948	6068.11	4.0590	4.0591	-0.8488	24.83	-0.32	-0.050			
0.0956	6121.52	4.0580	4.0580	-0.8523	24.90	-0.25	-0.050			
0.0965	6176.66	4.0570	4.0570	-0.8542	24.98	-0.17	-0.050			
0.0974	6232.34	4.0560	4.0557	-0.8547	25.06	-0.09	-0.050			
0.0982	6287.35	4.0550	4.0550	-0.8533	25.13	-0.02	-0.050			
0.0991	6341.77	4.0540	4.0542	-0.8547	25.20	0.05	-0.050			
0.0999	6396.50	4.0530	4.0531	-0.8560	25.28	0.13	-0.050	0.491	0.586	
0.1008	6451.68	4.0520	4.0522	-0.8551	25.34	0.19	-0.050			
0.1017	6506.50	4.0510	4.0510	-0.8548	25.40	0.25	-0.050			
0.1025	6561.85	4.0500	4.0497	-0.8524	25.47	0.32	-0.050			
0.1034	6615.42	4.0490	4.0491	-0.8523	25.53	0.38	-0.050			
0.1042	6670.09	4.0480	4.0481	-0.8524	25.59	0.44	-0.050			
0.1051	6723.89	4.0470	4.0474	-0.8555	25.65	0.50	-0.050			
0.1059	6780.17	4.0460	4.0458	-0.8545	25.71	0.56	-0.050			
0.1068	6834.22	4.0450	4.0449	-0.8524	25.77	0.62	-0.050			
0.1076	6888.11	4.0440	4.0439	-0.8528	25.83	0.68	-0.050			
0.1085	6942.50	4.0430	4.0430	-0.8538	25.89	0.74	-0.050			
0.1093	6997.44	4.0420	4.0420	-0.8539	25.94	0.79	-0.050			
0.1102	7052.18	4.0410	4.0409	-0.8563	26.00	0.85	-0.050			
0.1110	7107.04	4.0400	4.0397	-0.8597	26.07	0.92	-0.050			
0.1119	7161.26	4.0390	4.0391	-0.8573	26.12	0.97	-0.050			
0.1127	7215.85	4.0380	4.0380	-0.8562	26.19	1.04	-0.050			
0.1136	7271.55	4.0370	4.0371	-0.8562	26.24	1.09	-0.050			
0.1145	7326.34	4.0360	4.0362	-0.8626	26.30	1.15	-0.050			
0.1153	7380.97	4.0350	4.0348	-0.8640	26.35	1.20	-0.050			
0.1162	7436.77	4.0340	4.0342	-0.8655	26.41	1.26	-0.050			
0.1171	7491.65	4.0330	4.0331	-0.8661	26.46	1.31	-0.050			
0.1179	7548.34	4.0320	4.0319	-0.8686	26.51	1.36	-0.050			
0.1188	7603.91	4.0310	4.0310	-0.8706	26.57	1.42	-0.050			
0.1197	7659.91	4.0300	4.0299	-0.8702	26.62	1.47	-0.050	0.245	0.422	
0.1205	7715.18	4.0290	4.0291	-0.8689	26.67	1.52	-0.050			
0.1214	7770.12	4.0280	4.0278	-0.8709	26.72	1.57	-0.050			
0.1223	7825.23	4.0270	4.0268	-0.8762	26.76	1.61	-0.050			
0.1232	7882.42	4.0260	4.0264	-0.8794	26.82	1.67	-0.050			
0.1240	7939.14	4.0250	4.0249	-0.8833	26.87	1.72	-0.050			
0.1249	7996.23	4.0240	4.0238	-0.8787	26.91	1.76	-0.050			
0.1258	8052.95	4.0230	4.0231	-0.8812	26.94	1.79	-0.050			
0.1267	8110.13	4.0220	4.0218	-0.8784	26.99	1.84	-0.050			
0.1276	8166.54	4.0210	4.0211	-0.8785	27.04	1.89	-0.050			
0.1285	8223.39	4.0200	4.0197	-0.8765	27.08	1.93	-0.050			
0.1294	8279.15	4.0190	4.0190	-0.8775	27.12	1.97	-0.050			
0.1302	8335.80	4.0180	4.0180	-0.8787	27.16	2.01	-0.050			
0.1311	8391.31	4.0170	4.0171	-0.8767	27.19	2.04	-0.050			
0.1320	8446.46	4.0160	4.0163	-0.8756	27.23	2.08	-0.050			
0.1329	8502.65	4.0150	4.0150	-0.8769	27.26	2.11	-0.050			
0.1337	8558.04	4.0140	4.0140	-0.8826	27.31	2.16	-0.050			
0.1346	8614.68	4.0130	4.0130	-0.8827	27.34	2.19	-0.050			
0.1355	8671.18	4.0120	4.0117	-0.8849	27.37	2.22	-0.050			
0.1364	8727.73	4.0110	4.0113	-0.8828	27.40	2.25	-0.050			
0.1373	8784.62	4.0100	4.0097	-0.8854	27.44	2.29	-0.050			
0.1381	8841.18	4.0090	4.0089	-0.8856	27.46	2.31	-0.050			
0.1390	8897.02	4.0080	4.0080	-0.8839	27.43	2.28	-0.050			
0.1399	8954.30	4.0070	4.0068	-0.8822	27.39	2.24	-0.050	0.303	0.437	
0.1408	9011.87	4.0060	4.0060	-0.8847	27.37	2.22	-0.050			
0.1417	9069.30	4.0050	4.0049	-0.8866	27.36	2.21	-0.050			
0.1426	9127.09	4.0040	4.0041	-0.8890	27.35	2.20	-0.050			
0.1435	9184.69	4.0030	4.0029	-0.8881	27.34	2.19	-0.050			
0.1444	9241.13	4.0020	4.0022	-0.8843	27.35	2.20	-0.050			
0.1453	9297.56	4.0010	4.0009	-0.8833	27.34	2.19	-0.050			
0.1462	9354.65	4.0000	4.0002	-0.8836	27.34	2.19	-0.050			
0.1470	9409.71	3.9990	3.9988	-0.8804	27.34	2.19	-0.050			
0.1479	9465.87	3.9980	3.9981	-0.8780	27.35	2.20	-0.050			
0.1488	9522.25	3.9970	3.9970	-0.8765	27.34	2.19	-0.050			
0.1497	9577.69	3.9960	3.9958	-0.8749	27.29	2.14	-0.050			
0.1505	9633.70	3.9950	3.9948	-0.8725	27.18	2.03	-0.050			
0.1514	9689.12	3.9940	3.9941	-0.8689	27.04	1.89	-0.050			
0.1523	9745.32	3.9930	3.9930	-0.8689	26.87	1.72	-0.050			
0.1531	9800.47	3.9920	3.9920	-0.8714	26.68	1.53	-0.050			
0.1540	9856.71	3.9910	3.9911	-0.8714	26.47	1.32	-0.050			
0.1549	9912.23	3.9900	3.9899	-0.8690	26.26	1.11	-0.050			
0.1558	9968.55	3.9890	3.9890	-0.8718	26.03	0.88	-0.050			
0.1566	10023.27	3.9880	3.9881	-0.8743	25.82	0.67	-0.050			
0.1575	10079.16	3.9870	3.9870	-0.8754	25.60	0.45	-0.050			
0.1584	10135.33	3.9860	3.9862	-0.8754	25.39	0.24	-0.050			
0.1592	10190.93	3.9850	3.9851	-0.8737	25.18	0.03	-0.050			
0.1601	10247.17	3.9840	3.9838	-0.8741	24.97	-0.18	-0.050	0.348	0.431	
0.1610	10303.36	3.9830	3.9830	-0.8739	24.79	-0.36	-0.050			
0.1619	10359.38	3.9820	3.9820	-0.8741	24.63	-0.52	-0.050			
0.1627	10415.61	3.9810	3.9810	-0.8722	24.47	-0.68	-0.050			
0.1636	10471.20	3.9800	3.9800	-0.8741	24.34	-0.81	-0.050			
0.1645	10526.81	3.9790	3.9791	-0.8738	24.22	-0.93	-0.050			
0.1654	10583.20	3.9780	3.9784	-0.8783	24.11	-1.04	-0.050			
0.1662	10639.39	3.9770	3.9770	-0.8792	24.01	-1.14	-0.050			
0.1671	10695.11	3.9760	3.9761	-0.8819	23.95	-1.20	-0.050			
0.1680	10751.42	3.9750	3.9750	-0.8841	23.88	-1.27	-0.050			
0.1689	10807.30	3.9740	3.9739	-0.8876	23.82	-1.33	-0.050			
0.1697	10862.94	3.9730	3.9728	-0.8882	23.78	-1.37	-0.050			
0.1706	10918.98	3.9720	3.9720	-0.8944	23.74	-1.41	-0.050			
0.1715	10976.14	3.9710	3.9707	-0.8954	23.72	-1.43	-0.050			
0.1724	11034.20	3.9700	3.9701	-0.9020	23.72	-1.43	-0.050			
0.1733	11091.03	3.9690	3.9689	-0.9043	23.71	-1.44	-0.050			
0.1742	11148.98	3.9680	3.9681	-0.9074	23.73	-1.42	-0.050			
0.1751	11208.05	3.9670	3.9669	-0.9152	23.76	-1.39	-0.050			
0.1760	11266.91	3.9660	3.9660	-0.9214	23.80	-1.35	-0.050			
0.1770	11326.91	3.9650	3.9650	-0.9267	23.85	-1.30	-0.050			
0.1779	11387.41	3.9640	3.9639	-0.9290	23.89	-1.26	-0.050			
0.1789	11447.85	3.9630	3.9630	-0.9309	23.96	-1.19	-0.050			
0.1798	11507.93	3.9620	3.9620	-0.9337	24.04	-1.11	-0.050	0.194	0.500	
0.1808	11568.71	3.9610	3.9609	-0.9354	24.12	-1.03	-0.050			
0.1817	11628.54	3.9600	3.9601	-0.9349	24.20	-0.95	-0.050			
0.1826	11688.59	3.9590	3.9590	-0.9363	24.29	-0.86	-0.050			
0.1836	11748.12	3.9580	3.9581	-0.9388	24.38	-0.77	-0.050			
0.1845	11808.41	3.9570	3.9572	-0.9401	24.46	-0.69	-0.050			
0.1854	11868.68	3.9560	3.9560	-0.9389	24.56	-0.59	-0.050			
0.1864	11927.90	3.9550	3.9553	-0.9425	24.64	-0.51	-0.050			
0.1873	11987.53	3.9540	3.9540	-0.9447	24.73	-0.42	-0.050			
0.1882	12047.59	3.9530	3.9529	-0.9462	24.82	-0.33	-0.050			
0.1892	12109.10	3.9520	3.9521	-0.9447	24.90	-0.25	-0.050			
0.1901	12168.80	3.9510	3.9509	-0.9475	24.98	-0.17	-0.050			
0.1911	12230.28	3.9500	3.9499	-0.9488	25.06	-0.09	-0.050			
0.1921	12291.52	3.9490	3.9488	-0.9496	25.13	-0.02	-0.050			
0.1930	12351.66	3.9480	3.9481	-0.9524	25.21	0.06	-0.050			
0.1939	12412.29	3.9470	3.9471	-0.9566	25.27	0.12	-0.050			
0.1949	12473.86	3.9460	3.9458	-0.9572	25.33	0.18	-0.050			
0.1959	12536.34	3.9450	3.9452	-0.9598	25.39	0.24	-0.050			
0.1969	12599.44	3.9440	3.9442	-0.9612	25.46	0.31	-0.050			
0.1978	12660.59	3.9430	3.9429	-0.9633	25.51	0.36	-0.050			
0.1988	12721.76	3.9420	3.9418	-0.9622	25.57	0.42	-0.050			
0.1997	12783.68	3.9410	3.9412	-0.9624	25.63	0.48	-0.050	0.432	0.482	
0.2007	12845.32	3.9400	3.9398	-0.9622	25.69	0.54	-0.050			
0.2017	12906.29	3.9390	3.9389	-0.9628	25.75	0.60	-0.050			
0.2026	12967.84	3.9380	3.9381	-0.9624	25.82	0.67	-0.050			
0.2036	13029.11	3.9370	3.9374	-0.9651	25.87	0.72	-0.050			
0.2045	13091.16	3.9360	3.9358	-0.9654	25.93	0.78	-0.050			
0.2055	13151.83	3.9350	3.9349	-0.9639	25.98	0.83	-0.050			
0.2065	13214.39	3.9340	3.9338	-0.9653	26.06	0.91	-0.050			
0.2074	13276.15	3.9330	3.9332	-0.9669	26.11	0.96	-0.050			
0.2084	13339.58	3.9320	3.9320	-0.9690	26.17	1.02	-0.050			
0.2094	13400.48	3.9310	3.9309	-0.9677	26.23	1.08	-0.050			
0.2104	13462.85	3.9300	3.9302	-0.9682	26.30	1.15	-0.050			
0.2113	13525.32	3.9290	3.9291	-0.9695	26.34	1.19	-0.050			
0.2123	13586.14	3.9280	3.9280	-0.9693	26.40	1.25	-0.050			
0.2133	13649.18	3.9270	3.9271	-0.9684	26.45	1.30	-0.050			
0.2143	13712.59	3.9260	3.9261	-0.9682	26.51	1.36	-0.050			
0.2152	13775.42	3.9250	3.9251	-0.9664	26.56	1.41	-0.050			
0.2162	13836.60	3.9240	3.9238	-0.9656	26.60	1.45	-0.050			
0.2171	13897.29	3.9230	3.9230	-0.9652	26.65	1.50	-0.050			
0.2181	13958.92	3.9220	3.9220	-0.9674	26.69	1.54	-0.050			
0.2191	14021.03	3.9210	3.9213	-0.9685	26.74	1.59	-0.050			
0.2200	14082.59	3.9200	3.9197	-0.9681	26.78	1.63	-0.050	0.192	0.502	
0.2210	14144.28	3.9190	3.9189	-0.9661	26.82	1.67	-0.050			
0.2220	14205.88	3.9180	3.9183	-0.9668	26.87	1.72	-0.050			
0.2229	14267.84	3.9170	3.9170	-0.9674	26.91	1.76	-0.050			
0.2239	14329.92	3.9160	3.9157	-0.9680	26.94	1.79	-0.050			
0.2249	14391.43	3.9150	3.9149	-0.9707	26.98	1.83	-0.050			
0.2258	14453.51	3.9140	3.9141	-0.9710	27.02	1.87	-0.050			
0.2268	14514.93	3.9130	3.9129	-0.9730	27.07	1.92	-0.050			
0.2278	14577.00	3.9120	3.9120	-0.9754	27.10	1.95	-0.050			
0.2287	14639.69	3.9110	3.9111	-0.9748	27.14	1.99	-0.050			
0.2297	14703.09	3.9100	3.9098	-0.9782	27.19	2.04	-0.050			
0.2307	14765.82	3.9090	3.9088	-0.9785	27.22	2.07	-0.050			
0.2317	14828.70	3.9080	3.9079	-0.9783	27.25	2.10	-0.050			
0.2327	14893.64	3.9070	3.9070	-0.9796	27.29	2.14	-0.050			
0.2337	14956.76	3.9060	3.9060	-0.9777	27.32	2.17	-0.050			
0.2347	15018.40	3.9050	3.9050	-0.9770	27.37	2.22	-0.050			
0.2356	15080.09	3.9040	3.9041	-0.9769	27.37	2.22	-0.050			
0.2366	15143.01	3.9030	3.9030	-0.9735	27.37	2.22	-0.050			
0.2376	15206.03	3.9020	3.9022	-0.9725	27.38	2.23	-0.050			
0.2386	15268.05	3.9010	3.9010	-0.9722	27.39	2.24	-0.050			
0.2395	15330.01	3.9000	3.9001	-0.9746	27.39	2.24	-0.050			
0.2405	15392.34	3.8990	3.8991	-0.9737	27.42	2.27	-0.050			
0.2415	15453.99	3.8980	3.8978	-0.9732	27.43	2.28	-0.050			
0.2424	15515.25	3.8970	3.8970	-0.9744	27.45	2.30	-0.050			
0.2434	15577.28	3.8960	3.8959	-0.9744	27.45	2.30	-0.050			
0.2444	15639.29	3.8950	3.8949	-0.9730	27.48	2.33	-0.050			
0.2453	15701.43	3.8940	3.8941	-0.9758	27.49	2.34	-0.050			
0.2463	15763.32	3.8930	3.8932	-0.9774	27.51	2.36	-0.050			
0.2473	15826.14	3.8920	3.8920	-0.9796	27.52	2.37	-0.050			
0.2483	15890.16	3.8910	3.8911	-0.9812	27.54	2.39	-0.050			
0.2493	15953.46	3.8900	3.8902	-0.9812	27.53	2.38	-0.050			
0.2503	16016.69	3.8890	3.8889	-0.9806	27.52	2.37	-0.050			
0.2513	16080.06	3.8880	3.8879	-0.9834	27.50	2.35	-0.050			
0.2522	16143.27	3.8870	3.8870	-0.9830	27.51	2.36	-0.050			
0.2532	16206.28	3.8860	3.8862	-0.9830	27.50	2.35	-0.050			
0.2542	16268.90	3.8850	3.8849	-0.9787	27.51	2.36	-0.050			
0.2552	16332.32	3.8840	3.8840	-0.9799	27.51	2.36	-0.050			
0.2562	16395.45	3.8830	3.8829	-0.9791	27.52	2.37	-0.050			
0.2572	16458.45	3.8820	3.8818	-0.9764	27.52	2.37	-0.050			
0.2581	16520.72	3.8810	3.8809	-0.9734	27.53	2.38	-0.050			
0.2591	16581.78	3.8800	3.8800	-0.9723	27.51	2.36	-0.050			
0.2601	16643.46	3.8790	3.8789	-0.9740	27.50	2.35	-0.050	0.006	0.612	
0.2610	16705.58	3.8780	3.8781	-0.9752	27.48	2.33	-0.050			
0.2620	16767.36	3.8770	3.8771	-0.9725	27.46	2.31	-0.050			
0.2630	16829.77	3.8760	3.8760	-0.9738	27.46	2.31	-0.050			
0.2639	16892.54	3.8750	3.8748	-0.9721	27.45	2.30	-0.050			
0.2649	16954.20	3.8740	3.8741	-0.9712	27.45	2.30	-0.050			
0.2659	17015.67	3.8730	3.8730	-0.9751	27.46	2.31	-0.050			
0.2669	17078.85	3.8720	3.8720	-0.9760	27.47	2.32	-0.050			
0.2678	17141.24	3.8710	3.8706	-0.9786	27.48	2.33	-0.050			
0.2688	17203.98	3.8700	3.8700	-0.9824	27.48	2.33	-0.050			
0.2698	17266.21	3.8690	3.8692	-0.9824	27.49	2.34	-0.050			
0.2708	17328.48	3.8680	3.8683	-0.9841	27.50	2.35	-0.050			
0.2718	17392.33	3.8670	3.8667	-0.9848	27.51	2.36	-0.050			
0.2727	17455.76	3.8660	3.8660	-0.9876	27.53	2.38	-0.050			
0.2737	17519.78	3.8650	3.8648	-0.9875	27.54	2.39	-0.050			
0.2747	17583.28	3.8640	3.8641	-0.9876	27.56	2.41	-0.050			
0.2757	17647.41	3.8630	3.8633	-0.9861	27.58	2.43	-0.050			
0.2767	17710.75	3.8620	3.8618	-0.9863	27.59	2.44	-0.050			
0.2777	17773.68	3.8610	3.8612	-0.9858	27.62	2.47	-0.050			
0.2787	17836.82	3.8600	3.8600	-0.9814	27.64	2.49	-0.050			
0.2797	17900.01	3.8590	3.8591	-0.9804	27.66	2.51	-0.050			
0.2807	17963.91	3.8580	3.8582	-0.9765	27.69	2.54	-0.050	0.371	0.567	
0.2817	18027.92	3.8570	3.8571	-0.9741	27.72	2.57	-0.050			
0.2827	18090.29	3.8560	3.8561	-0.9663	27.75	2.60	-0.050			
0.2836	18152.72	3.8550	3.8549	-0.9626	27.75	2.60	-0.050			
0.2846	18214.72	3.8540	3.8539	-0.9546	27.67	2.52	-0.050			
0.2855	18274.82	3.8530	3.8529	-0.9460	27.55	2.40	-0.050			
0.2865	18335.45	3.8520	3.8523	-0.9408	27.38	2.23	-0.050			
0.2874	18394.87	3.8510	3.8511	-0.9327	27.17	2.02	-0.050			
0.2884	18454.48	3.8500	3.8500	-0.9278	26.94	1.79	-0.050			
0.2893	18513.42	3.8490	3.8490	-0.9218	26.71	1.56	-0.050			
0.2902	18572.12	3.8480	3.8479	-0.9184	26.45	1.30	-0.050			
0.2911	18630.41	3.8470	3.8470	-0.9131	26.19	1.04	-0.050			
0.2920	18688.46	3.8460	3.8461	-0.9078	25.93	0.78	-0.050			
0.2929	18746.36	3.8450	3.8449	-0.9010	25.68	0.53	-0.050			
0.2938	18802.21	3.8440	3.8439	-0.8985	25.43	0.28	-0.050			
0.2947	18858.47	3.8430	3.8430	-0.8975	25.19	0.04	-0.050			
0.2955	18914.09	3.8420	3.8420	-0.8956	24.97	-0.18	-0.050			
0.2964	18971.92	3.8410	3.8409	-0.8951	24.75	-0.40	-0.050			
0.2973	19029.57	3.8400	3.8399	-0.8938	24.55	-0.60	-0.050			
0.2982	19085.79	3.8390	3.8390	-0.8954	24.36	-0.79	-0.050			
0.2991	19144.06	3.8380	3.8381	-0.8933	24.17	-0.98	-0.050			
0.3000	19201.00	3.8370	3.8371	-0.8935	24.01	-1.14	-0.050	0.352	0.457	
0.3009	19258.87	3.8360	3.8359	-0.8935	23.85	-1.30	-0.050			
0.3018	19315.93	3.8350	3.8347	-0.8952	23.73	-1.42	-0.050			
0.3027	19372.57	3.8340	3.8341	-0.8961	23.61	-1.54	-0.050			
0.3036	19430.35	3.8330	3.8330	-0.8954	23.51	-1.64	-0.050			
0.3045	19487.49	3.8320	3.8320	-0.8955	23.43	-1.72	-0.050			
0.3054	19545.98	3.8310	3.8309	-0.8938	23.38	-1.77	-0.050			
0.3063	19603.85	3.8300	3.8298	-0.8903	23.33	-1.82	-0.050			
0.3072	19660.82	3.8290	3.8291	-0.8890	23.30	-1.85	-0.050			
0.3081	19718.16	3.8280	3.8276	-0.8874	23.29	-1.86	-0.050			
0.3090	19775.19	3.8270	3.8271	-0.8857	23.30	-1.85	-0.050			
0.3099	19832.08	3.8260	3.8258	-0.8838	23.32	-1.83	-0.050			
0.3108	19888.33	3.8250	3.8252	-0.8795	23.35	-1.80	-0.050			
0.3116	19943.83	3.8240	3.8239	-0.8727	23.41	-1.74	-0.050			
0.3125	19999.26	3.8230	3.8229	-0.8710	23.47	-1.68	-0.050			
0.3134	20055.78	3.8220	3.8221	-0.8690	23.54	-1.61	-0.050			
0.3143	20112.76	3.8210	3.8207	-0.8633	23.62	-1.53	-0.050			
0.3151	20168.19	3.8200	3.8196	-0.8596	23.70	-1.45	-0.050			
0.3160	20222.04	3.8190	3.8189	-0.8537	23.79	-1.36	-0.050			
0.3168	20277.60	3.8180	3.8179	-0.8484	23.88	-1.27	-0.050			
0.3177	20332.34	3.8170	3.8169	-0.8395	23.98	-1.17	-0.050			
0.3185	20386.84	3.8160	3.8159	-0.8303	24.08	-1.07	-0.050			
0.3194	20439.56	3.8150	3.8150	-0.8224	24.17	-0.98	-0.050			
0.3202	20492.37	3.8140	3.8140	-0.8151	24.28	-0.87	-0.050	0.326	0.528	
0.3210	20544.56	3.8130	3.8131	-0.8069	24.37	-0.78	-0.050			
0.3218	20597.19	3.8120	3.8122	-0.7997	24.47	-0.68	-0.050			
0.3226	20648.38	3.8110	3.8108	-0.7903	24.56	-0.59	-0.050			
0.3234	20700.09	3.8100	3.8099	-0.7803	24.64	-0.51	-0.050			
0.3242	20749.02	3.8090	3.8093	-0.7664	24.73	-0.42	-0.050			
0.3250	20797.60	3.8080	3.8081	-0.7545	24.81	-0.34	-0.050			
0.3257	20845.86	3.8070	3.8070	-0.7434	24.89	-0.26	-0.050			
0.3265	20893.20	3.8060	3.8059	-0.7305	24.95	-0.20	-0.050			
0.3272	20939.78	3.8050	3.8047	-0.7181	25.02	-0.13	-0.050			
0.3279	20985.41	3.8040	3.8042	-0.7066	25.08	-0.07	-0.050			
0.3286	21029.64	3.8030	3.8031	-0.6946	25.14	-0.01	-0.050			
0.3293	21074.32	3.8020	3.8020	-0.6816	25.20	0.05	-0.050			
0.3300	21117.90	3.8010	3.8010	-0.6712	25.26	0.11	-0.050			
0.3306	21159.43	3.8000	3.8000	-0.6575	25.32	0.17	-0.050			
0.3313	21200.02	3.7990	3.7990	-0.6481	25.36	0.21	-0.050			
0.3319	21240.90	3.7980	3.7980	-0.6400	25.41	0.26	-0.050			
0.3325	21281.45	3.7970	3.7972	-0.6319	25.47	0.32	-0.050			
0.3331	21321.40	3.7960	3.7960	-0.6236	25.52	0.37	-0.050			
0.3338	21361.16	3.7950	3.7949	-0.6127	25.56	0.41	-0.050			
0.3344	21399.13	3.7940	3.7941	-0.6015	25.61	0.46	-0.050			
0.3350	21436.92	3.7930	3.7933	-0.5956	25.66	0.51	-0.050			
0.3355	21474.15	3.7920	3.7917	-0.5900	25.69	0.54	-0.050			
0.3361	21511.43	3.7910	3.7910	-0.5842	25.74	0.59	-0.050			
0.3367	21548.13	3.7900	3.7899	-0.5796	25.78	0.63	-0.050			
0.3373	21584.69	3.7890	3.7889	-0.5764	25.82	0.67	-0.050			
0.3378	21620.72	3.7880	3.7883	-0.5724	25.86	0.71	-0.050			
0.3384	21656.92	3.7870	3.7871	-0.5683	25.90	0.75	-0.050			
0.3390	21693.08	3.7860	3.7860	-0.5650	25.94	0.79	-0.050			
0.3395	21729.29	3.7850	3.7850	-0.5617	25.97	0.82	-0.050			
0.3401	21764.34	3.7840	3.7841	-0.5604	26.01	0.86	-0.050			
0.3406	21799.57	3.7830	3.7831	-0.5586	26.05	0.90	-0.050			
0.3412	21834.52	3.7820	3.7820	-0.5597	26.08	0.93	-0.050			
0.3417	21869.87	3.7810	3.7811	-0.5619	26.12	0.97	-0.050			
0.3423	21904.48	3.7800	3.7799	-0.5618	26.15	1.00	-0.050			
0.3428	21939.67	3.7790	3.7790	-0.5633	26.19	1.04	-0.050			
0.3434	21974.90	3.7780	3.7781	-0.5651	26.22	1.07	-0.050			
0.3439	22011.42	3.7770	3.7771	-0.5689	26.26	1.11	-0.050			
0.3445	22048.14	3.7760	3.7759	-0.5723	26.30	1.15	-0.050			
0.3451	22085.14	3.7750	3.7747	-0.5762	26.33	1.18	-0.050			
0.3457	22121.69	3.7740	3.7741	-0.5814	26.37	1.22	-0.050			
0.3462	22158.80	3.7730	3.7728	-0.5868	26.40	1.25	-0.050			
0.3468	22195.02	3.7720	3.7721	-0.5921	26.44	1.29	-0.050			
0.3474	22232.93	3.7710	3.7713	-0.5982	26.47	1.32	-0.050			
0.3480	22271.57	3.7700	3.7701	-0.6045	26.51	1.36	-0.050			
0.3486	22310.07	3.7690	3.7691	-0.6111	26.54	1.39	-0.050			
0.3492	22349.34	3.7680	3.7681	-0.6181	26.57	1.42	-0.050			
0.3498	22388.66	3.7670	3.7670	-0.6279	26.61	1.46	-0.050			
0.3504	22428.60	3.7660	3.7660	-0.6378	26.65	1.50	-0.050			
0.3511	22469.32	3.7650	3.7650	-0.6480	26.68	1.53	-0.050			
0.3517	22510.87	3.7640	3.7639	-0.6560	26.71	1.56	-0.050			
0.3524	22552.25	3.7630	3.7631	-0.6652	26.75	1.60	-0.050			
0.3530	22594.47	3.7620	3.7623	-0.6771	26.78	1.63	-0.050			
0.3537	22636.65	3.7610	3.7611	-0.6907	26.82	1.67	-0.050			
0.3544	22680.91	3.7600	3.7599	-0.7041	26.86	1.71	-0.050			
0.3551	22726.71	3.7590	3.7592	-0.7166	26.88	1.73	-0.050			
0.3558	22772.92	3.7580	3.7578	-0.7304	26.92	1.77	-0.050			
0.3566	22820.12	3.7570	3.7569	-0.7440	26.96	1.81	-0.050			
0.3573	22868.27	3.7560	3.7560	-0.7583	26.99	1.84	-0.050			
0.3581	22917.51	3.7550	3.7550	-0.7709	27.04	1.89	-0.050			
0.3589	22966.72	3.7540	3.7537	-0.7850	27.08	1.93	-0.050			
0.3596	23017.46	3.7530	3.7531	-0.7968	27.12	1.97	-0.050			
0.3605	23068.87	3.7520	3.7520	-0.8114	27.16	2.01	-0.050	0.367	0.494	
0.3613	23120.74	3.7510	3.7514	-0.8276	27.20	2.05	-0.050			
0.3621	23174.77	3.7500	3.7499	-0.8438	27.21	2.06	-0.050			
0.3630	23228.89	3.7490	3.7489	-0.8585	27.19	2.04	-0.050			
0.3638	23284.58	3.7480	3.7480	-0.8722	27.17	2.02	-0.050			
0.3647	23341.83	3.7470	3.7470	-0.8831	27.16	2.01	-0.050			
0.3656	23398.82	3.7460	3.7459	-0.8955	27.16	2.01	-0.050			
0.3665	23455.91	3.7450	3.7450	-0.9111	27.16	2.01	-0.050			
0.3674	23514.35	3.7440	3.7440	-0.9274	27.16	2.01	-0.050			
0.3683	23573.65	3.7430	3.7430	-0.9412	27.16	2.01	-0.050			
0.3693	23634.58	3.7420	3.7420	-0.9564	27.17	2.02	-0.050			
0.3702	23695.82	3.7410	3.7412	-0.9689	27.18	2.03	-0.050			
0.3712	23759.18	3.7400	3.7400	-0.9849	27.19	2.04	-0.050			
0.3722	23823.26	3.7390	3.7390	-0.9990	27.21	2.06	-0.050			
0.3733	23888.01	3.7380	3.7379	-1.0130	27.22	2.07	-0.050			
0.3743	23953.87	3.7370	3.7367	-1.0245	27.24	2.09	-0.050			
0.3753	24020.17	3.7360	3.7358	-1.0350	27.25	2.10	-0.050			
0.3764	24087.68	3.7350	3.7349	-1.0475	27.28	2.13	-0.050			
0.3775	24157.03	3.7340	3.7341	-1.0529	27.29	2.14	-0.050			
0.3785	24224.70	3.7330	3.7331	-1.0610	27.32	2.17	-0.050			
0.3796	24293.81	3.7320	3.7321	-1.0682	27.34	2.19	-0.050			
0.3807	24363.45	3.7310	3.7311	-1.0726	27.36	2.21	-0.050			
0.3818	24433.20	3.7300	3.7301	-1.0798	27.37	2.22	-0.050			
0.3829	24503.40	3.7290	3.7291	-1.0853	27.41	2.26	-0.050			
0.3840	24573.98	3.7280	3.7280	-1.0881	27.43	2.28	-0.050			
0.3851	24645.10	3.7270	3.7270	-1.0895	27.37	2.22	-0.050			
0.3862	24714.53	3.7260	3.7259	-1.0893	27.23	2.08	-0.050			
0.3872	24783.13	3.7250	3.7250	-1.0895	27.04	1.89	-0.050			
0.3883	24853.09	3.7240	3.7241	-1.0893	26.80	1.65	-0.050			
0.3894	24922.18	3.7230	3.7230	-1.0954	26.54	1.39	-0.050			
0.3905	24991.95	3.7220	3.7220	-1.0980	26.25	1.10	-0.050			
0.3916	25062.67	3.7210	3.7210	-1.0998	25.94	0.79	-0.050			
0.3927	25131.19	3.7200	3.7202	-1.1059	25.64	0.49	-0.050			
0.3938	25200.87	3.7190	3.7192	-1.1113	25.35	0.20	-0.050			
0.3948	25270.08	3.7180	3.7180	-1.1222	25.06	-0.09	-0.050			
0.3960	25341.12	3.7170	3.7169	-1.1322	24.79	-0.36	-0.050			
0.3971	25413.45	3.7160	3.7159	-1.1438	24.54	-0.61	-0.050			
0.3982	25484.57	3.7150	3.7151	-1.1602	24.31	-0.84	-0.050			
0.3994	25558.71	3.7140	3.7138	-1.1758	24.09	-1.06	-0.050			
0.4005	25632.81	3.7130	3.7132	-1.1898	23.92	-1.23	-0.050	0.468	0.524	
0.4017	25708.82	3.7120	3.7121	-1.2114	23.78	-1.37	-0.050			
0.4029	25784.76	3.7110	3.7108	-1.2357	23.65	-1.50	-0.050			
0.4041	25862.87	3.7100	3.7102	-1.2592	23.55	-1.60	-0.050			
0.4054	25944.95	3.7090	3.7090	-1.2812	23.48	-1.67	-0.050			
0.4067	26028.17	3.7080	3.7082	-1.3068	23.42	-1.73	-0.050			
0.4080	26112.57	3.7070	3.7069	-1.3304	23.39	-1.76	-0.050			
0.4093	26198.20	3.7060	3.7059	-1.3553	23.40	-1.75	-0.050			
0.4107	26286.55	3.7050	3.7052	-1.3794	23.44	-1.71	-0.050			
0.4121	26375.72	3.7040	3.7038	-1.4046	23.50	-1.65	-0.050			
0.4135	26466.91	3.7030	3.7028	-1.4278	23.58	-1.57	-0.050			
0.4150	26561.49	3.7020	3.7018	-1.4510	23.70	-1.45	-0.050			
0.4165	26656.48	3.7010	3.7010	-1.4701	23.83	-1.32	-0.050			
0.4180	26751.34	3.7000	3.6999	-1.4849	23.97	-1.18	-0.050			
0.4195	26847.27	3.6990	3.6988	-1.5059	24.14	-1.01	-0.050			
0.4210	26944.90	3.6980	3.6978	-1.5258	24.29	-0.86	-0.050	0.314	0.463	
0.4226	27044.72	3.6970	3.6971	-1.5404	24.46	-0.69	-0.050			
0.4241	27142.92	3.6960	3.6961	-1.5607	24.62	-0.53	-0.050			
0.4257	27243.16	3.6950	3.6950	-1.5771	24.77	-0.38	-0.050			
0.4273	27344.66	3.6940	3.6940	-1.5949	24.92	-0.23	-0.050			
0.4289	27447.30	3.6930	3.6929	-1.6070	25.06	-0.09	-0.050			
0.4305	27549.57	3.6920	3.6920	-1.6229	25.19	0.04	-0.050			
0.4321	27653.97	3.6910	3.6910	-1.6367	25.32	0.17	-0.050			
0.4338	27760.68	3.6900	3.6899	-1.6566	25.45	0.30	-0.050			
0.4354	27866.28	3.6890	3.6891	-1.6768	25.59	0.44	-0.050			
0.4371	27973.66	3.6880	3.6881	-1.6902	25.71	0.56	-0.050			
0.4388	28082.30	3.6870	3.6868	-1.7024	25.83	0.68	-0.050			
0.4405	28191.68	3.6860	3.6859	-1.7222	25.96	0.81	-0.050	0.268	0.570	
0.4422	28302.33	3.6850	3.6850	-1.7420	26.08	0.93	-0.050			
0.4440	28414.92	3.6840	3.6842	-1.7571	26.22	1.07	-0.050			
0.4458	28528.50	3.6830	3.6828	-1.7763	26.34	1.19	-0.050			
0.4476	28644.11	3.6820	3.6820	-1.7909	26.46	1.31	-0.050			
0.4494	28759.48	3.6810	3.6810	-1.8009	26.58	1.43	-0.050			
0.4512	28876.08	3.6800	3.6799	-1.8123	26.67	1.52	-0.050			
0.4530	28992.17	3.6790	3.6787	-1.8257	26.77	1.62	-0.050			
0.4549	29111.14	3.6780	3.6781	-1.8353	26.87	1.72	-0.050			
0.4567	29229.99	3.6770	3.6768	-1.8456	26.96	1.81	-0.050			
0.4586	29349.79	3.6760	3.6763	-1.8480	27.05	1.90	-0.050			
0.4605	29470.98	3.6750	3.6752	-1.8519	27.14	1.99	-0.050	0.190	0.416	
0.4624	29591.61	3.6740	3.6738	-1.8561	27.14	1.99	-0.050			
0.4643	29712.81	3.6730	3.6728	-1.8509	27.12	1.97	-0.050			
0.4661	29831.78	3.6720	3.6719	-1.8491	27.12	1.97	-0.050			
0.4680	29950.01	3.6710	3.6711	-1.8490	27.13	1.98	-0.050			
0.4698	30067.82	3.6700	3.6700	-1.8478	27.11	1.96	-0.050			
0.4716	30184.37	3.6690	3.6693	-1.8512	26.91	1.76	-0.050			
0.4734	30300.43	3.6680	3.6682	-1.8548	26.61	1.46	-0.050			
0.4753	30416.41	3.6670	3.6672	-1.8684	26.26	1.11	-0.050			
0.4771	30531.55	3.6660	3.6662	-1.8754	25.89	0.74	-0.050			
0.4789	30647.72	3.6650	3.6649	-1.8984	25.51	0.36	-0.050			
0.4807	30765.50	3.6640	3.6637	-1.9265	25.17	0.02	-0.050	0.185	0.533	
0.4826	30884.37	3.6630	3.6630	-1.9543	24.86	-0.29	-0.050			
0.4845	31005.99	3.6620	3.6620	-1.9898	24.64	-0.51	-0.050			
0.4864	31128.52	3.6610	3.6609	-2.0248	24.45	-0.70	-0.050			
0.4884	31256.24	3.6600	3.6598	-2.0682	24.33	-0.82	-0.050			
0.4904	31387.78	3.6590	3.6591	-2.1193	24.24	-0.91	-0.050			
0.4926	31523.98	3.6580	3.6579	-2.1784	24.21	-0.94	-0.050			
0.4947	31663.94	3.6570	3.6569	-2.2360	24.21	-0.94	-0.050			
0.4970	31810.78	3.6560	3.6558	-2.2923	24.23	-0.92	-0.050			
0.4994	31959.95	3.6550	3.6551	-2.3504	24.32	-0.83	-0.050			
0.5018	32112.02	3.6540	3.6542	-2.4124	24.43	-0.72	-0.050			
0.5042	32269.32	3.6530	3.6529	-2.4693	24.58	-0.57	-0.050			
0.5067	32430.37	3.6520	3.6517	-2.5154	24.73	-0.42	-0.050			
0.5093	32593.86	3.6510	3.6511	-2.5694	24.90	-0.25	-0.050			
0.5119	32762.71	3.6500	3.6500	-2.6196	25.07	-0.08	-0.050			
0.5146	32933.01	3.6490	3.6490	-2.6678	25.23	0.08	-0.050			
0.5173	33106.43	3.6480	3.6480	-2.7086	25.40	0.25	-0.050			
0.5201	33285.30	3.6470	3.6471	-2.7542	25.57	0.42	-0.050	0.432	0.513	
0.5228	33462.10	3.6460	3.6458	-2.7920	25.75	0.60	-0.050			
0.5257	33642.94	3.6450	3.6449	-2.8295	25.93	0.78	-0.050			
0.5286	33827.81	3.6440	3.6438	-2.8544	26.12	0.97	-0.050			
0.5314	34011.44	3.6430	3.6428	-2.8896	26.30	1.15	-0.050			
0.5343	34197.69	3.6420	3.6421	-2.9200	26.49	1.34	-0.050			
0.5373	34386.01	3.6410	3.6409	-2.9458	26.67	1.52	-0.050			
0.5403	34577.30	3.6400	3.6399	-2.9727	26.83	1.68	-0.050			
0.5433	34771.61	3.6390	3.6390	-2.9824	26.90	1.75	-0.050			
0.5464	34968.55	3.6380	3.6382	-2.9716	26.96	1.81	-0.050			
0.5495	35165.52	3.6370	3.6373	-2.9582	27.07	1.92	-0.050			
0.5526	35364.20	3.6360	3.6357	-2.9323	27.15	2.00	-0.050			
0.5555	35553.55	3.6350	3.6352	-2.9015	27.24	2.09	-0.050			
0.5584	35740.62	3.6340	3.6341	-2.8603	27.34	2.19	-0.050			
0.5613	35922.68	3.6330	3.6331	-2.8146	27.43	2.28	-0.050			
0.5641	36099.44	3.6320	3.6323	-2.7895	27.22	2.07	-0.050			
0.5668	36272.05	3.6310	3.6311	-2.7432	26.69	1.54	-0.050			
0.5694	36438.49	3.6300	3.6301	-2.7223	26.06	0.91	-0.050			
0.5719	36604.74	3.6290	3.6290	-2.7155	25.43	0.28	-0.050			
0.5745	36768.30	3.6280	3.6281	-2.7182	24.86	-0.29	-0.050			
0.5771	36933.74	3.6270	3.6269	-2.7395	24.40	-0.75	-0.050			
0.5797	37098.06	3.6260	3.6259	-2.7678	24.07	-1.08	-0.050			
0.5824	37273.19	3.6250	3.6247	-2.8285	23.86	-1.29	-0.050			
0.5852	37450.94	3.6240	3.6240	-2.8760	23.74	-1.41	-0.050			
0.5880	37633.71	3.6230	3.6229	-2.9333	23.75	-1.40	-0.050			
0.5911	37828.87	3.6220	3.6222	-2.9584	23.88	-1.27	-0.050			
0.5942	38027.48	3.6210	3.6209	-2.9796	24.10	-1.05	-0.050			
0.5974	38230.52	3.6200	3.6200	-2.9991	24.38	-0.77	-0.050			
0.6005	38434.98	3.6190	3.6190	-2.9917	24.67	-0.48	-0.050			
0.6038	38643.48	3.6180	3.6181	-2.9805	24.94	-0.21	-0.050			
0.6069	38843.15	3.6170	3.6171	-2.9204	25.17	0.02	-0.050			
0.6100	39038.38	3.6160	3.6158	-2.8552	25.39	0.24	-0.050			
0.6128	39217.16	3.6150	3.6149	-2.7500	25.60	0.45	-0.050			
0.6155	39389.28	3.6140	3.6140	-2.6484	25.79	0.64	-0.050			
0.6180	39551.98	3.6130	3.6130	-2.5469	25.97	0.82	-0.050			
0.6203	39702.35	3.6120	3.6123	-2.4420	26.12	0.97	-0.050			
0.6226	39849.13	3.6110	3.6115	-2.3439	26.28	1.13	-0.050			
0.6251	40005.67	3.6100	3.6100	-2.2402	26.44	1.29	-0.050			
0.6272	40139.56	3.6090	3.6092	-2.1552	26.59	1.44	-0.050			
0.6292	40267.06	3.6080	3.6080	-2.0679	26.70	1.55	-0.050			
0.6311	40389.00	3.6070	3.6070	-2.0104	26.80	1.65	-0.050			
0.6329	40507.26	3.6060	3.6058	-1.9483	26.89	1.74	-0.050			
0.6347	40619.07	3.6050	3.6051	-1.8999	26.98	1.83	-0.050			
0.6364	40726.47	3.6040	3.6040	-1.8705	27.06	1.91	-0.050			
0.6380	40833.98	3.6030	3.6030	-1.8551	27.14	1.99	-0.050			
0.6397	40943.44	3.6020	3.6020	-1.8458	27.22	2.07	-0.050	0.301	0.602	
0.6415	41055.21	3.6010	3.6010	-1.8480	27.29	2.14	-0.050			
0.6433	41169.14	3.6000	3.6001	-1.8617	27.24	2.09	-0.050			
0.6451	41286.02	3.5990	3.5990	-1.8786	27.21	2.06	-0.050			
0.6470	41405.48	3.5980	3.5979	-1.8987	27.21	2.06	-0.050			
0.6489	41527.10	3.5970	3.5970	-1.9219	27.21	2.06	-0.050			
0.6508	41652.76	3.5960	3.5958	-1.9410	27.23	2.08	-0.050			
0.6528	41778.43	3.5950	3.5950	-1.9599	27.25	2.10	-0.050			
0.6548	41908.81	3.5940	3.5940	-1.9810	27.29	2.14	-0.050			
0.6569	42040.34	3.5930	3.5931	-1.9918	27.32	2.17	-0.050			
0.6589	42171.72	3.5920	3.5919	-1.9942	27.36	2.21	-0.050			
0.6610	42305.62	3.5910	3.5910	-2.0063	27.41	2.26	-0.050	0.141	0.480	
0.6631	42436.12	3.5900	3.5899	-2.0068	27.47	2.32	-0.050			
0.6651	42568.44	3.5890	3.5889	-2.0021	27.51	2.36	-0.050			
0.6672	42700.42	3.5880	3.5880	-1.9910	27.56	2.41	-0.050			
0.6692	42830.50	3.5870	3.5871	-1.9720	27.62	2.47	-0.050			
0.6712	42957.44	3.5860	3.5860	-1.9497	27.64	2.49	-0.050			
0.6732	43082.87	3.5850	3.5852	-1.9271	27.40	2.25	-0.050			
0.6751	43205.30	3.5840	3.5841	-1.9000	27.01	1.86	-0.050			
0.6770	43327.32	3.5830	3.5828	-1.8746	26.52	1.37	-0.050			
0.6789	43446.88	3.5820	3.5820	-1.8471	25.99	0.84	-0.050			
0.6807	43563.60	3.5810	3.5810	-1.8171	25.49	0.34	-0.050	0.557	0.621	
0.6825	43678.49	3.5800	3.5802	-1.7890	25.00	-0.15	-0.050			
0.6842	43791.38	3.5790	3.5791	-1.7679	24.59	-0.56	-0.050			
0.6860	43902.06	3.5780	3.5779	-1.7430	24.23	-0.92	-0.050			
0.6877	44011.66	3.5770	3.5768	-1.7212	23.94	-1.21	-0.050			
0.6894	44119.93	3.5760	3.5761	-1.7084	23.71	-1.44	-0.050			
0.6910	44225.55	3.5750	3.5750	-1.6919	23.54	-1.61	-0.050			
0.6927	44332.09	3.5740	3.5738	-1.6803	23.43	-1.72	-0.050			
0.6943	44437.91	3.5730	3.5730	-1.6694	23.38	-1.77	-0.050			
0.6959	44539.23	3.5720	3.5722	-1.6586	23.38	-1.77	-0.050			
0.6975	44641.96	3.5710	3.5709	-1.6520	23.43	-1.72	-0.050			
0.6992	44746.92	3.5700	3.5700	-1.6495	23.53	-1.62	-0.050			
0.7008	44852.84	3.5690	3.5689	-1.6519	23.66	-1.49	-0.050	0.254	0.491	
0.7025	44957.11	3.5680	3.5680	-1.6526	23.81	-1.34	-0.050			
0.7041	45062.62	3.5670	3.5670	-1.6552	24.00	-1.15	-0.050			
0.7057	45167.94	3.5660	3.5661	-1.6545	24.19	-0.96	-0.050			
0.7074	45274.09	3.5650	3.5651	-1.6586	24.37	-0.78	-0.050			
0.7091	45381.31	3.5640	3.5642	-1.6624	24.57	-0.58	-0.050			
0.7107	45487.87	3.5630	3.5629	-1.6668	24.74	-0.41	-0.050			
0.7124	45595.76	3.5620	3.5623	-1.6695	24.91	-0.24	-0.050			
0.7141	45703.64	3.5610	3.5611	-1.6687	25.08	-0.07	-0.050			
0.7158	45811.05	3.5600	3.5600	-1.6672	25.22	0.07	-0.050			
0.7175	45919.20	3.5590	3.5589	-1.6629	25.35	0.20	-0.050			
0.7192	46027.63	3.5580	3.5578	-1.6572	25.49	0.34	-0.050			
0.7209	46135.15	3.5570	3.5572	-1.6451	25.62	0.47	-0.050	0.167	0.513	
0.7225	46242.27	3.5560	3.5562	-1.6306	25.74	0.59	-0.050			
0.7242	46349.70	3.5550	3.5549	-1.6156	25.87	0.72	-0.050			
0.7259	46454.59	3.5540	3.5541	-1.5961	25.98	0.83	-0.050			
0.7275	46557.97	3.5530	3.5531	-1.5712	26.10	0.95	-0.050			
0.7291	46659.43	3.5520	3.5518	-1.5470	26.22	1.07	-0.050			
0.7307	46761.80	3.5510	3.5511	-1.5221	26.33	1.18	-0.050			
0.7322	46859.53	3.5500	3.5498	-1.4938	26.44	1.29	-0.050			
0.7337	46954.38	3.5490	3.5489	-1.4620	26.54	1.39	-0.050			
0.7351	47047.59	3.5480	3.5479	-1.4304	26.63	1.48	-0.050			
0.7365	47138.60	3.5470	3.5470	-1.3970	26.73	1.58	-0.050			
0.7379	47226.56	3.5460	3.5459	-1.3589	26.81	1.66	-0.050			
0.7393	47312.74	3.5450	3.5448	-1.3222	26.89	1.74	-0.050			
0.7406	47395.87	3.5440	3.5439	-1.2871	26.96	1.81	-0.050	0.434	0.509	
0.7418	47475.59	3.5430	3.5430	-1.2540	27.04	1.89	-0.050			
0.7430	47554.55	3.5420	3.5421	-1.2218	27.10	1.95	-0.050			
0.7442	47630.70	3.5410	3.5409	-1.1885	27.17	2.02	-0.050			
0.7454	47704.21	3.5400	3.5403	-1.1606	27.22	2.07	-0.050			
0.7465	47777.06	3.5390	3.5389	-1.1343	27.29	2.14	-0.050			
0.7476	47847.77	3.5380	3.5381	-1.1071	27.34	2.19	-0.050			
0.7487	47916.25	3.5370	3.5370	-1.0861	27.39	2.24	-0.050			
0.7497	47982.84	3.5360	3.5359	-1.0659	27.42	2.27	-0.050			
0.7507	48047.70	3.5350	3.5348	-1.0509	27.47	2.32	-0.050			
0.7518	48113.06	3.5340	3.5339	-1.0350	27.46	2.31	-0.050			
0.7527	48174.49	3.5330	3.5331	-1.0186	27.41	2.26	-0.050			
0.7537	48237.87	3.5320	3.5320	-1.0096	27.30	2.15	-0.050			
0.7547	48300.05	3.5310	3.5309	-1.0020	27.17	2.02	-0.050			
0.7557	48361.90	3.5300	3.5299	-0.9933	27.00	1.85	-0.050			
0.7566	48423.78	3.5290	3.5289	-0.9914	26.82	1.67	-0.050			
0.7576	48485.62	3.5280	3.5279	-0.9934	26.63	1.48	-0.050			
0.7586	48549.44	3.5270	3.5270	-0.9941	26.43	1.28	-0.050			
0.7596	48614.09	3.5260	3.5259	-0.9942	26.22	1.07	-0.050			
0.7606	48678.19	3.5250	3.5250	-0.9950	26.01	0.86	-0.050	0.242	0.568	
0.7616	48741.08	3.5240	3.5242	-0.9938	25.81	0.66	-0.050			
0.7626	48805.20	3.5230	3.5229	-0.9926	25.62	0.47	-0.050			
0.7636	48869.96	3.5220	3.5220	-0.9914	25.44	0.29	-0.050			
0.7646	48935.28	3.5210	3.5209	-0.9910	25.28	0.13	-0.050			
0.7656	48999.09	3.5200	3.5199	-0.9851	25.12	-0.03	-0.050			
0.7666	49062.79	3.5190	3.5189	-0.9810	24.98	-0.17	-0.050			
0.7676	49126.31	3.5180	3.5182	-0.9750	24.86	-0.29	-0.050			
0.7686	49189.73	3.5170	3.5170	-0.9656	24.76	-0.39	-0.050			
0.7696	49252.28	3.5160	3.5161	-0.9584	24.68	-0.47	-0.050			
0.7705	49314.21	3.5150	3.5150	-0.9494	24.62	-0.53	-0.050			
0.7715	49376.58	3.5140	3.5142	-0.9364	24.55	-0.60	-0.050			
0.7724	49435.95	3.5130	3.5128	-0.9237	24.52	-0.63	-0.050			
0.7734	49494.71	3.5120	3.5120	-0.9130	24.48	-0.67	-0.050			
0.7743	49552.69	3.5110	3.5111	-0.9014	24.45	-0.70	-0.050			
0.7751	49609.55	3.5100	3.5099	-0.8899	24.44	-0.71	-0.050			
0.7760	49664.26	3.5090	3.5092	-0.8794	24.42	-0.73	-0.050			
0.7769	49718.60	3.5080	3.5082	-0.8706	24.42	-0.73	-0.050			
0.7777	49773.64	3.5070	3.5069	-0.8654	24.43	-0.72	-0.050			
0.7786	49828.22	3.5060	3.5062	-0.8580	24.44	-0.71	-0.050			
0.7794	49881.29	3.5050	3.5051	-0.8573	24.45	-0.70	-0.050			
0.7802	49932.31	3.5040	3.5040	-0.8563	24.47	-0.68	-0.050			
0.7810	49985.65	3.5030	3.5030	-0.8591	24.50	-0.65	-0.050	0.267	0.499	
0.7818	50037.16	3.5020	3.5022	-0.8668	24.53	-0.62	-0.050			
0.7826	50087.53	3.5010	3.5012	-0.8878	24.56	-0.59	-0.050			
0.7834	50140.20	3.5000	3.4999	-0.9113	24.60	-0.55	-0.050			
0.7843	50192.31	3.4990	3.4994	-0.9359	24.64	-0.51	-0.050			
0.7851	50243.56	3.4980	3.4980	-0.9859	24.68	-0.47	-0.050			
0.7859	50297.38	3.4970	3.4974	-1.0316	24.72	-0.43	-0.050			
0.7867	50351.08	3.4960	3.4962	-1.1067	24.77	-0.38	-0.050			
0.7877	50415.01	3.4950	3.4952	-1.1847	24.83	-0.32	-0.050			
0.7888	50482.72	3.4940	3.4943	-1.2583	24.89	-0.26	-0.050			
0.7899	50556.20	3.4930	3.4930	-1.3639	24.96	-0.19	-0.050			
0.7912	50638.60	3.4920	3.4919	-1.4784	25.04	-0.11	-0.050			
0.7927	50730.48	3.4910	3.4910	-1.5846	25.13	-0.02	-0.050			
0.7943	50835.59	3.4900	3.4900	-1.7088	25.23	0.08	-0.050			
0.7961	50949.57	3.4890	3.4887	-1.8271	25.33	0.18	-0.050			
0.7981	51075.44	3.4880	3.4880	-1.9529	25.45	0.30	-0.050			
0.8001	51208.65	3.4870	3.4868	-2.0756	25.58	0.43	-0.050	0.362	0.507	
0.8024	51354.19	3.4860	3.4861	-2.1838	25.73	0.58	-0.050			
0.8048	51507.35	3.4850	3.4850	-2.2893	25.88	0.73	-0.050			
0.8073	51670.05	3.4840	3.4839	-2.3804	26.04	0.89	-0.050			
0.8099	51834.04	3.4830	3.4831	-2.4497	26.21	1.06	-0.050			
0.8124	51992.90	3.4820	3.4822	-2.5148	26.37	1.22	-0.050			
0.8151	52167.70	3.4810	3.4810	-2.5720	26.54	1.39	-0.050			
0.8180	52352.40	3.4800	3.4801	-2.6095	26.71	1.56	-0.050			
0.8209	52534.55	3.4790	3.4792	-2.6223	26.81	1.66	-0.050	0.422	0.533	
0.8236	52711.69	3.4780	3.4779	-2.6128	26.88	1.73	-0.050			
0.8264	52890.18	3.4770	3.4767	-2.5859	26.95	1.80	-0.050			
0.8291	53060.10	3.4760	3.4760	-2.5435	27.04	1.89	-0.050			
0.8316	53223.04	3.4750	3.4750	-2.4823	27.12	1.97	-0.050			
0.8341	53383.28	3.4740	3.4739	-2.4247	27.21	2.06	-0.050			
0.8365	53534.10	3.4730	3.4729	-2.3529	27.28	2.13	-0.050			
0.8388	53686.23	3.4720	3.4721	-2.2840	27.18	2.03	-0.050			
0.8411	53833.49	3.4710	3.4710	-2.2142	26.85	1.70	-0.050	0.358	0.548	
0.8434	53974.57	3.4700	3.4702	-2.1375	26.44	1.29	-0.050			
0.8454	54108.20	3.4690	3.4689	-2.0572	26.02	0.87	-0.050			
0.8475	54238.28	3.4680	3.4678	-1.9810	25.63	0.48	-0.050			
0.8494	54362.65	3.4670	3.4670	-1.8997	25.27	0.12	-0.050			
0.8513	54481.31	3.4660	3.4658	-1.8204	24.98	-0.17	-0.050			
0.8531	54595.22	3.4650	3.4649	-1.7429	24.75	-0.40	-0.050			
0.8547	54702.66	3.4640	3.4639	-1.6606	24.60	-0.55	-0.050			
0.8563	54804.09	3.4630	3.4628	-1.5824	24.48	-0.67	-0.050			
0.8578	54901.63	3.4620	3.4620	-1.5058	24.40	-0.75	-0.050			
0.8593	54994.72	3.4610	3.4610	-1.4317	24.35	-0.80	-0.050			
0.8607	55084.19	3.4600	3.4600	-1.3655	24.31	-0.84	-0.050	0.283	0.566	
0.8620	55169.86	3.4590	3.4592	-1.2949	24.32	-0.83	-0.050			
0.8633	55249.85	3.4580	3.4579	-1.2312	24.33	-0.82	-0.050			
0.8645	55324.83	3.4570	3.4568	-1.1636	24.35	-0.80	-0.050			
0.8656	55396.57	3.4560	3.4560	-1.0953	24.38	-0.77	-0.050			
0.8666	55459.85	3.4550	3.4550	-1.0363	24.43	-0.72	-0.050			
0.8675	55522.98	3.4540	3.4540	-0.9746	24.47	-0.68	-0.050			
0.8684	55580.73	3.4530	3.4530	-0.9191	24.53	-0.62	-0.050			
0.8693	55635.60	3.4520	3.4519	-0.8684	24.57	-0.58	-0.050			
0.8701	55686.85	3.4510	3.4510	-0.8205	24.62	-0.53	-0.050			
0.8709	55736.63	3.4500	3.4503	-0.7710	24.67	-0.48	-0.050			
0.8716	55781.38	3.4490	3.4489	-0.7288	24.72	-0.43	-0.050			
0.8722	55822.83	3.4480	3.4481	-0.6869	24.76	-0.39	-0.050			
0.8729	55865.21	3.4470	3.4469	-0.6492	24.80	-0.35	-0.050			
0.8735	55903.11	3.4460	3.4458	-0.6154	24.84	-0.31	-0.050			
0.8741	55940.04	3.4450	3.4452	-0.5801	24.88	-0.27	-0.050			
0.8746	55974.62	3.4440	3.4440	-0.5539	24.92	-0.23	-0.050			
0.8751	56005.79	3.4430	3.4429	-0.5266	24.95	-0.20	-0.050			
0.8756	56038.06	3.4420	3.4420	-0.5006	24.99	-0.16	-0.050			
0.8761	56067.28	3.4410	3.4409	-0.4805	25.01	-0.14	-0.050			
0.8765	56094.54	3.4400	3.4401	-0.4535	25.04	-0.11	-0.050			
0.8769	56122.26	3.4390	3.4391	-0.4391	25.07	-0.08	-0.050			
0.8773	56147.47	3.4380	3.4381	-0.4217	25.10	-0.05	-0.050			
0.8777	56173.24	3.4370	3.4369	-0.4051	25.13	-0.02	-0.050			
0.8781	56198.72	3.4360	3.4358	-0.3912	25.16	0.01	-0.050			
0.8784	56220.41	3.4350	3.4350	-0.3769	25.18	0.03	-0.050			
0.8788	56244.19	3.4340	3.4339	-0.3664	25.21	0.06	-0.050			
0.8792	56266.33	3.4330	3.4330	-0.3580	25.23	0.08	-0.050			
0.8795	56288.43	3.4320	3.4321	-0.3477	25.25	0.10	-0.050			
0.8798	56308.98	3.4310	3.4310	-0.3398	25.27	0.12	-0.050			
0.8802	56330.50	3.4300	3.4301	-0.3327	25.29	0.14	-0.050			
0.8805	56350.00	3.4290	3.4289	-0.3269	25.31	0.16	-0.050			
0.8808	56370.25	3.4280	3.4280	-0.3205	25.33	0.18	-0.050	0.388	0.623	
0.8811	56390.60	3.4270	3.4268	-0.3157	25.35	0.20	-0.050			
0.8814	56410.48	3.4260	3.4257	-0.3106	25.37	0.22	-0.050			
0.8817	56430.21	3.4250	3.4248	-0.3059	25.39	0.24	-0.050			
0.8820	56449.03	3.4240	3.4239	-0.3015	25.41	0.26	-0.050			
0.8823	56467.58	3.4230	3.4230	-0.2962	25.43	0.28	-0.050			
0.8826	56486.49	3.4220	3.4220	-0.2926	25.45	0.30	-0.050			
0.8829	56504.70	3.4210	3.4209	-0.2882	25.46	0.31	-0.050			
0.8832	56523.04	3.4200	3.4199	-0.2852	25.48	0.33	-0.050			
0.8835	56540.93	3.4190	3.4191	-0.2829	25.50	0.35	-0.050			
0.8837	56558.78	3.4180	3.4182	-0.2797	25.52	0.37	-0.050			
0.8840	56576.43	3.4170	3.4173	-0.2778	25.54	0.39	-0.050			
0.8843	56594.13	3.4160	3.4161	-0.2755	25.55	0.40	-0.050			
0.8846	56612.44	3.4150	3.4148	-0.2744	25.57	0.42	-0.050			
0.8848	56629.90	3.4140	3.4140	-0.2714	25.58	0.43	-0.050			
0.8851	56646.67	3.4130	3.4130	-0.2674	25.60	0.45	-0.050			
0.8854	56663.37	3.4120	3.4119	-0.2660	25.61	0.46	-0.050			
0.8856	56680.13	3.4110	3.4109	-0.2635	25.63	0.48	-0.050			
0.8859	56696.85	3.4100	3.4099	-0.2618	25.65	0.50	-0.050			
0.8861	56713.11	3.4090	3.4089	-0.2588	25.67	0.52	-0.050			
0.8864	56729.63	3.4080	3.4080	-0.2575	25.68	0.53	-0.050			
0.8866	56745.58	3.4070	3.4071	-0.2556	25.70	0.55	-0.050			
0.8869	56761.91	3.4060	3.4061	-0.2548	25.72	0.57	-0.050			
0.8872	56778.19	3.4050	3.4052	-0.2540	25.74	0.59	-0.050			
0.8874	56794.69	3.4040	3.4040	-0.2544	25.75	0.60	-0.050			
0.8877	56810.94	3.4030	3.4029	-0.2534	25.76	0.61	-0.050			
0.8879	56827.19	3.4020	3.4019	-0.2513	25.78	0.63	-0.050			
0.8882	56843.24	3.4010	3.4010	-0.2502	25.79	0.64	-0.050			
0.8884	56859.21	3.4000	3.4000	-0.2490	25.81	0.66	-0.050			
0.8887	56875.23	3.3990	3.3990	-0.2480	25.83	0.68	-0.050			
0.8889	56891.06	3.3980	3.3979	-0.2467	25.85	0.70	-0.050			
0.8892	56906.85	3.3970	3.3969	-0.2443	25.86	0.71	-0.050			
0.8894	56922.45	3.3960	3.3959	-0.2430	25.88	0.73	-0.050			
0.8897	56938.14	3.3950	3.3950	-0.2421	25.90	0.75	-0.050			
0.8899	56953.53	3.3940	3.3942	-0.2408	25.92	0.77	-0.050			
0.8901	56968.90	3.3930	3.3933	-0.2394	25.93	0.78	-0.050			
0.8904	56984.64	3.3920	3.3920	-0.2387	25.95	0.80	-0.050			
0.8906	56999.63	3.3910	3.3910	-0.2376	25.97	0.82	-0.050			
0.8909	57014.60	3.3900	3.3899	-0.2356	25.98	0.83	-0.050			
0.8911	57029.63	3.3890	3.3889	-0.2342	26.00	0.85	-0.050			
0.8913	57044.45	3.3880	3.3882	-0.2332	26.01	0.86	-0.050			
0.8916	57059.37	3.3870	3.3868	-0.2320	26.03	0.88	-0.050			
0.8918	57074.18	3.3860	3.3861	-0.2307	26.04	0.89	-0.050			
0.8920	57088.84	3.3850	3.3850	-0.2297	26.06	0.91	-0.050			
0.8922	57103.13	3.3840	3.3839	-0.2279	26.08	0.93	-0.050			
0.8925	57117.60	3.3830	3.3828	-0.2273	26.09	0.94	-0.050			
0.8927	57131.88	3.3820	3.3820	-0.2259	26.11	0.96	-0.050			
0.8929	57146.32	3.3810	3.3810	-0.2253	26.13	0.98	-0.050			
0.8931	57160.74	3.3800	3.3801	-0.2247	26.15	1.00	-0.050			
0.8934	57175.25	3.3790	3.3790	-0.2244	26.16	1.01	-0.050			
0.8936	57189.59	3.3780	3.3780	-0.2237	26.17	1.02	-0.050			
0.8938	57203.75	3.3770	3.3771	-0.2227	26.18	1.03	-0.050			
0.8940	57217.99	3.3760	3.3760	-0.2221	26.19	1.04	-0.050			
0.8943	57232.18	3.3750	3.3750	-0.2215	26.21	1.06	-0.050			
0.8945	57246.59	3.3740	3.3740	-0.2211	26.22	1.07	-0.050			
0.8947	57260.71	3.3730	3.3729	-0.2203	26.23	1.08	-0.050			
0.8949	57274.79	3.3720	3.3719	-0.2194	26.25	1.10	-0.050			
0.8951	57288.92	3.3710	3.3709	-0.2179	26.28	1.13	-0.050			
0.8954	57302.83	3.3700	3.3700	-0.2169	26.30	1.15	-0.050			
0.8956	57316.68	3.3690	3.3692	-0.2159	26.32	1.17	-0.050			
0.8958	57330.62	3.3680	3.3680	-0.2149	26.33	1.18	-0.050			
0.8960	57344.34	3.3670	3.3669	-0.2138	26.35	1.20	-0.050			
0.8962	57357.98	3.3660	3.3660	-0.2126	26.36	1.21	-0.050			
0.8964	57371.61	3.3650	3.3650	-0.2121	26.37	1.22	-0.050			
0.8966	57385.14	3.3640	3.3641	-0.2109	26.38	1.23	-0.050			
0.8969	57398.74	3.3630	3.3630	-0.2100	26.40	1.25	-0.050			
0.8971	57412.04	3.3620	3.3620	-0.2090	26.41	1.26	-0.050			
0.8973	57425.38	3.3610	3.3611	-0.2079	26.42	1.27	-0.050			
0.8975	57438.52	3.3600	3.3601	-0.2065	26.43	1.28	-0.050			
0.8977	57451.76	3.3590	3.3589	-0.2053	26.45	1.30	-0.050			
0.8979	57464.87	3.3580	3.3579	-0.2042	26.46	1.31	-0.050			
0.8981	57477.83	3.3570	3.3570	-0.2029	26.48	1.33	-0.050			
0.8983	57490.78	3.3560	3.3560	-0.2019	26.49	1.34	-0.050			
0.8985	57503.62	3.3550	3.3549	-0.2010	26.50	1.35	-0.050			
0.8987	57516.33	3.3540	3.3540	-0.1999	26.51	1.36	-0.050			
0.8989	57528.70	3.3530	3.3531	-0.1999	26.52	1.37	-0.050			
0.8991	57541.47	3.3520	3.3520	-0.1994	26.54	1.39	-0.050			
0.8993	57554.08	3.3510	3.3510	-0.1986	26.55	1.40	-0.050			
0.8995	57566.77	3.3500	3.3498	-0.1982	26.57	1.42	-0.050			
0.8997	57579.54	3.3490	3.3493	-0.1974	26.58	1.43	-0.050			
0.8999	57592.17	3.3480	3.3481	-0.1969	26.60	1.45	-0.050			
0.9001	57604.76	3.3470	3.3471	-0.1964	26.61	1.46	-0.050			
0.9003	57617.33	3.3460	3.3460	-0.1958	26.62	1.47	-0.050			
0.9005	57629.75	3.3450	3.3447	-0.1950	26.64	1.49	-0.050			
0.9007	57642.22	3.3440	3.3438	-0.1946	26.65	1.50	-0.050	0.349	0.598	
0.9009	57654.66	3.3430	3.3431	-0.1941	26.66	1.51	-0.050			
0.9010	57667.07	3.3420	3.3422	-0.1932	26.67	1.52	-0.050			
0.9012	57679.42	3.3410	3.3412	-0.1927	26.68	1.53	-0.050			
0.9014	57691.74	3.3400	3.3401	-0.1922	26.70	1.55	-0.050			
0.9016	57704.24	3.3390	3.3391	-0.1919	26.71	1.56	-0.050			
0.9018	57716.50	3.3380	3.3380	-0.1913	26.73	1.58	-0.050			
0.9020	57728.72	3.3370	3.3370	-0.1906	26.74	1.59	-0.050			
0.9022	57741.00	3.3360	3.3360	-0.1896	26.75	1.60	-0.050			
0.9024	57753.38	3.3350	3.3349	-0.1894	26.76	1.61	-0.050			
0.9026	57765.47	3.3340	3.3338	-0.1884	26.78	1.63	-0.050			
0.9028	57777.48	3.3330	3.3330	-0.1874	26.79	1.64	-0.050			
0.9030	57789.36	3.3320	3.3322	-0.1867	26.80	1.65	-0.050			
0.9031	57801.28	3.3310	3.3311	-0.1859	26.81	1.66	-0.050			
0.9033	57813.15	3.3300	3.3299	-0.1850	26.82	1.67	-0.050			
0.9035	57824.52	3.3290	3.3290	-0.1841	26.84	1.69	-0.050			
0.9037	57836.29	3.3280	3.3281	-0.1836	26.85	1.70	-0.050			
0.9039	57848.03	3.3270	3.3271	-0.1831	26.86	1.71	-0.050			
0.9041	57859.83	3.3260	3.3260	-0.1828	26.87	1.72	-0.050			
0.9042	57871.46	3.3250	3.3250	-0.1824	26.88	1.73	-0.050			
0.9044	57883.11	3.3240	3.3242	-0.1818	26.90	1.75	-0.050			
0.9046	57894.73	3.3230	3.3229	-0.1813	26.91	1.76	-0.050			
0.9048	57906.54	3.3220	3.3218	-0.1799	26.92	1.77	-0.050			
0.9050	57918.03	3.3210	3.3208	-0.1791	26.92	1.77	-0.050			
0.9051	57929.47	3.3200	3.3198	-0.1784	26.93	1.78	-0.050			
0.9053	57940.95	3.3190	3.3189	-0.1778	26.94	1.79	-0.050			
0.9055	57952.29	3.3180	3.3182	-0.1770	26.95	1.80	-0.050			
0.9057	57963.60	3.3170	3.3172	-0.1762	26.96	1.81	-0.050			
0.9059	57974.94	3.3160	3.3159	-0.1756	26.98	1.83	-0.050			
0.9060	57986.15	3.3150	3.3150	-0.1748	26.99	1.84	-0.050			
0.9062	57997.24	3.3140	3.3142	-0.1741	27.00	1.85	-0.050			
0.9064	58008.36	3.3130	3.3132	-0.1733	27.01	1.86	-0.050			
0.9066	58019.61	3.3120	3.3120	-0.1728	27.02	1.87	-0.050			
0.9067	58030.64	3.3110	3.3110	-0.1718	27.03	1.88	-0.050			
0.9069	58041.46	3.3100	3.3098	-0.1713	27.04	1.89	-0.050			
0.9071	58052.31	3.3090	3.3089	-0.1703	27.05	1.90	-0.050			
0.9072	58063.19	3.3080	3.3080	-0.1696	27.06	1.91	-0.050			
0.9074	58074.09	3.3070	3.3070	-0.1687	27.07	1.92	-0.050			
0.9076	58084.85	3.3060	3.3060	-0.1679	27.08	1.93	-0.050			
0.9077	58095.36	3.3050	3.3051	-0.1666	27.09	1.94	-0.050			
0.9079	58106.01	3.3040	3.3040	-0.1660	27.10	1.95	-0.050			
0.9081	58116.45	3.3030	3.3029	-0.1659	27.11	1.96	-0.050			
0.9082	58126.95	3.3020	3.3020	-0.1651	27.12	1.97	-0.050			
0.9084	58137.50	3.3010	3.3010	-0.1647	27.13	1.98	-0.050			
0.9086	58148.03	3.3000	3.3001	-0.1643	27.14	1.99	-0.050			
0.9087	58158.34	3.2990	3.2991	-0.1645	27.14	1.99	-0.050			
0.9089	58168.93	3.2980	3.2981	-0.1644	27.15	2.00	-0.050			
0.9091	58179.44	3.2970	3.2972	-0.1642	27.16	2.01	-0.050			
0.9092	58189.94	3.2960	3.2960	-0.1639	27.17	2.02	-0.050			
0.9094	58200.57	3.2950	3.2949	-0.1631	27.18	2.03	-0.050			
0.9095	58210.85	3.2940	3.2939	-0.1623	27.19	2.04	-0.050			
0.9097	58221.23	3.2930	3.2930	-0.1620	27.20	2.05	-0.050			
0.9099	58231.59	3.2920	3.2918	-0.1617	27.21	2.06	-0.050			
0.9100	58242.05	3.2910	3.2909	-0.1610	27.22	2.07	-0.050			
0.9102	58252.37	3.2900	3.2899	-0.1606	27.23	2.08	-0.050			
0.9104	58262.63	3.2890	3.2889	-0.1602	27.23	2.08	-0.050			
0.9105	58272.87	3.2880	3.2882	-0.1598	27.24	2.09	-0.050			
0.9107	58283.13	3.2870	3.2872	-0.1597	27.25	2.10	-0.050			
0.9108	58293.33	3.2860	3.2861	-0.1592	27.26	2.11	-0.050			
0.9110	58303.51	3.2850	3.2851	-0.1587	27.27	2.12	-0.050			
0.9112	58313.65	3.2840	3.2841	-0.1583	27.28	2.13	-0.050			
0.9113	58324.13	3.2830	3.2829	-0.1582	27.29	2.14	-0.050			
0.9115	58334.23	3.2820	3.2820	-0.1574	27.30	2.15	-0.050			
0.9116	58344.28	3.2810	3.2810	-0.1566	27.30	2.15	-0.050			
0.9118	58354.27	3.2800	3.2799	-0.1558	27.31	2.16	-0.050			
0.9119	58364.13	3.2790	3.2790	-0.1547	27.31	2.16	-0.050			
0.9121	58374.01	3.2780	3.2779	-0.1540	27.32	2.17	-0.050			
0.9122	58383.84	3.2770	3.2769	-0.1532	27.32	2.17	-0.050			
0.9124	58393.63	3.2760	3.2760	-0.1525	27.33	2.18	-0.050			
0.9126	58403.20	3.2750	3.2750	-0.1516	27.34	2.19	-0.050			
0.9127	58412.76	3.2740	3.2741	-0.1514	27.35	2.20	-0.050			
0.9129	58422.44	3.2730	3.2731	-0.1509	27.36	2.21	-0.050			
0.9130	58432.08	3.2720	3.2721	-0.1504	27.37	2.22	-0.050			
0.9132	58441.90	3.2710	3.2711	-0.1502	27.38	2.23	-0.050			
0.9133	58451.31	3.2700	3.2701	-0.1500	27.38	2.23	-0.050			
0.9135	58460.90	3.2690	3.2690	-0.1496	27.39	2.24	-0.050			
0.9136	58470.46	3.2680	3.2679	-0.1491	27.40	2.25	-0.050			
0.9137	58479.82	3.2670	3.2670	-0.1484	27.41	2.26	-0.050			
0.9139	58489.39	3.2660	3.2660	-0.1479	27.41	2.26	-0.050			
0.9140	58498.85	3.2650	3.2649	-0.1475	27.42	2.27	-0.050			
0.9142	58508.27	3.2640	3.2639	-0.1471	27.43	2.28	-0.050			
0.9143	58517.44	3.2630	3.2630	-0.1463	27.43	2.28	-0.050			
0.9145	58527.28	3.2620	3.2620	-0.1452	27.44	2.29	-0.050			
0.9146	58536.55	3.2610	3.2609	-0.1445	27.45	2.30	-0.050			
0.9148	58545.78	3.2600	3.2600	-0.1439	27.45	2.30	-0.050			
0.9149	58555.31	3.2590	3.2591	-0.1440	27.45	2.30	-0.050			
0.9151	58564.50	3.2580	3.2582	-0.1431	27.45	2.30	-0.050			
0.9152	58573.33	3.2570	3.2571	-0.1431	27.45	2.30	-0.050			
0.9154	58582.47	3.2560	3.2560	-0.1424	27.45	2.30	-0.050			
0.9155	58591.56	3.2550	3.2549	-0.1418	27.45	2.30	-0.050			
0.9156	58600.79	3.2540	3.2540	-0.1414	27.44	2.29	-0.050			
0.9158	58609.82	3.2530	3.2531	-0.1407	27.44	2.29	-0.050			
0.9159	58618.60	3.2520	3.2520	-0.1406	27.43	2.28	-0.050			
0.9161	58627.58	3.2510	3.2510	-0.1400	27.42	2.27	-0.050			
0.9162	58636.25	3.2500	3.2500	-0.1390	27.42	2.27	-0.050			
0.9163	58645.14	3.2490	3.2489	-0.1386	27.41	2.26	-0.050			
0.9165	58654.00	3.2480	3.2478	-0.1383	27.40	2.25	-0.050			
0.9166	58662.75	3.2470	3.2468	-0.1383	27.39	2.24	-0.050			
0.9167	58671.29	3.2460	3.2459	-0.1374	27.38	2.23	-0.050			
0.9169	58680.08	3.2450	3.2450	-0.1373	27.36	2.21	-0.050			
0.9170	58688.87	3.2440	3.2441	-0.1373	27.35	2.20	-0.050			
0.9172	58697.75	3.2430	3.2432	-0.1369	27.34	2.19	-0.050			
0.9173	58706.46	3.2420	3.2421	-0.1366	27.33	2.18	-0.050			
0.9174	58715.20	3.2410	3.2410	-0.1365	27.31	2.16	-0.050			
0.9176	58724.33	3.2400	3.2401	-0.1356	27.30	2.15	-0.050			
0.9177	58733.00	3.2390	3.2392	-0.1352	27.28	2.13	-0.050			
0.9178	58741.64	3.2380	3.2381	-0.1348	27.27	2.12	-0.050			
0.9180	58750.75	3.2370	3.2367	-0.1352	27.25	2.10	-0.050			
0.9181	58759.38	3.2360	3.2360	-0.1344	27.23	2.08	-0.050			
0.9182	58767.89	3.2350	3.2351	-0.1338	27.21	2.06	-0.050			
0.9184	58776.43	3.2340	3.2340	-0.1331	27.19	2.04	-0.050			
0.9185	58784.92	3.2330	3.2330	-0.1323	27.17	2.02	-0.050			
0.9186	58793.29	3.2320	3.2320	-0.1315	27.15	2.00	-0.050			
0.9188	58801.68	3.2310	3.2311	-0.1308	27.14	1.99	-0.050			
0.9189	58809.84	3.2300	3.2301	-0.1308	27.13	1.98	-0.050			
0.9190	58818.19	3.2290	3.2290	-0.1303	27.11	1.96	-0.050			
0.9192	58826.52	3.2280	3.2282	-0.1298	27.09	1.94	-0.050			
0.9193	58834.77	3.2270	3.2272	-0.1293	27.07	1.92	-0.050			
0.9194	58843.03	3.2260	3.2257	-0.1288	27.04	1.89	-0.050			
0.9196	58851.43	3.2250	3.2250	-0.1278	27.02	1.87	-0.050			
0.9197	58859.59	3.2240	3.2237	-0.1272	27.01	1.86	-0.050			
0.9198	58867.58	3.2230	3.2228	-0.1264	26.99	1.84	-0.050			
0.9199	58875.65	3.2220	3.2219	-0.1258	26.96	1.81	-0.050			
0.9201	58883.69	3.2210	3.2209	-0.1253	26.94	1.79	-0.050			
0.9202	58891.54	3.2200	3.2200	-0.1251	26.92	1.77	-0.050			
0.9203	58899.53	3.2190	3.2191	-0.1247	26.90	1.75	-0.050			
0.9204	58907.50	3.2180	3.2181	-0.1243	26.88	1.73	-0.050			
0.9206	58915.44	3.2170	3.2171	-0.1238	26.86	1.71	-0.050			
0.9207	58923.35	3.2160	3.2161	-0.1234	26.84	1.69	-0.050	0.133	0.597	
0.9208	58931.21	3.2150	3.2151	-0.1235	26.82	1.67	-0.050			
0.9209	58939.10	3.2140	3.2138	-0.1231	26.80	1.65	-0.050			
0.9210	58946.96	3.2130	3.2129	-0.1227	26.78	1.63	-0.050			
0.9212	58954.80	3.2120	3.2120	-0.1223	26.76	1.61	-0.050			
0.9213	58962.62	3.2110	3.2109	-0.1220	26.74	1.59	-0.050			
0.9214	58970.29	3.2100	3.2098	-0.1215	26.72	1.57	-0.050			
0.9215	58978.06	3.2090	3.2088	-0.1212	26.69	1.54	-0.050			
0.9217	58985.80	3.2080	3.2078	-0.1209	26.67	1.52	-0.050			
0.9218	58993.53	3.2070	3.2069	-0.1206	26.65	1.50	-0.050			
0.9219	59001.24	3.2060	3.2059	-0.1203	26.62	1.47	-0.050			
0.9220	59008.92	3.2050	3.2050	-0.1192	26.60	1.45	-0.050			
0.9221	59016.54	3.2040	3.2041	-0.1189	26.59	1.44	-0.050			
0.9223	59024.14	3.2030	3.2029	-0.1186	26.56	1.41	-0.050			
0.9224	59031.72	3.2020	3.2017	-0.1183	26.54	1.39	-0.050			
0.9225	59039.29	3.2010	3.2010	-0.1180	26.52	1.37	-0.050			
0.9226	59047.14	3.2000	3.2002	-0.1185	26.49	1.34	-0.050			
0.9227	59054.71	3.1990	3.1992	-0.1180	26.47	1.32	-0.050			
0.9228	59062.24	3.1980	3.1980	-0.1175	26.45	1.30	-0.050			
0.9230	59069.74	3.1970	3.1969	-0.1169	26.44	1.29	-0.050			
0.9231	59077.12	3.1960	3.1960	-0.1167	26.41	1.26	-0.050			
0.9232	59084.46	3.1950	3.1951	-0.1160	26.39	1.24	-0.050			
0.9233	59091.87	3.1940	3.1942	-0.1156	26.36	1.21	-0.050			
0.9234	59099.26	3.1930	3.1932	-0.1152	26.34	1.19	-0.050			
0.9235	59106.62	3.1920	3.1919	-0.1149	26.32	1.17	-0.050			
0.9237	59113.96	3.1910	3.1908	-0.1145	26.30	1.15	-0.050			
0.9238	59121.16	3.1900	3.1899	-0.1140	26.29	1.14	-0.050			
0.9239	59128.45	3.1890	3.1891	-0.1137	26.27	1.12	-0.050			
0.9240	59135.72	3.1880	3.1881	-0.1134	26.25	1.10	-0.050			
0.9241	59142.97	3.1870	3.1870	-0.1132	26.22	1.07	-0.050			
0.9242	59150.20	3.1860	3.1858	-0.1129	26.20	1.05	-0.050			
0.9243	59157.51	3.1850	3.1851	-0.1124	26.18	1.03	-0.050			
0.9244	59164.69	3.1840	3.1841	-0.1120	26.15	1.00	-0.050			
0.9246	59171.85	3.1830	3.1829	-0.1117	26.13	0.98	-0.050			
0.9247	59178.99	3.1820	3.1822	-0.1113	26.11	0.96	-0.050			
0.9248	59186.10	3.1810	3.1810	-0.1110	26.09	0.94	-0.050			
0.9249	59193.40	3.1800	3.1799	-0.1109	26.07	0.92	-0.050			
0.9250	59200.48	3.1790	3.1790	-0.1104	26.05	0.90	-0.050			
0.9251	59207.61	3.1780	3.1780	-0.1098	26.03	0.88	-0.050			
0.9252	59214.61	3.1770	3.1769	-0.1092	26.01	0.86	-0.050			
0.9253	59221.60	3.1760	3.1760	-0.1087	25.99	0.84	-0.050			
0.9254	59228.54	3.1750	3.1748	-0.1082	25.97	0.82	-0.050			
0.9256	59235.45	3.1740	3.1741	-0.1077	25.95	0.80	-0.050			
0.9257	59242.32	3.1730	3.1731	-0.1071	25.93	0.78	-0.050			
0.9258	59249.12	3.1720	3.1720	-0.1067	25.91	0.76	-0.050			
0.9259	59255.93	3.1710	3.1709	-0.1062	25.89	0.74	-0.050			
0.9260	59262.77	3.1700	3.1700	-0.1058	25.87	0.72	-0.050			
0.9261	59269.52	3.1690	3.1692	-0.1052	25.85	0.70	-0.050			
0.9262	59276.24	3.1680	3.1681	-0.1047	25.83	0.68	-0.050			
0.9263	59282.61	3.1670	3.1669	-0.1048	25.82	0.67	-0.050			
0.9264	59289.31	3.1660	3.1660	-0.1044	25.81	0.66	-0.050			
0.9265	59295.81	3.1650	3.1651	-0.1036	25.79	0.64	-0.050			
0.9266	59302.43	3.1640	3.1641	-0.1034	25.77	0.62	-0.050			
0.9267	59309.04	3.1630	3.1631	-0.1031	25.75	0.60	-0.050			
0.9268	59315.63	3.1620	3.1620	-0.1029	25.73	0.58	-0.050			
0.9269	59322.21	3.1610	3.1609	-0.1027	25.72	0.57	-0.050			
0.9270	59328.60	3.1600	3.1599	-0.1031	25.70	0.55	-0.050			
0.9271	59335.20	3.1590	3.1589	-0.1030	25.69	0.54	-0.050			
0.9272	59341.50	3.1580	3.1582	-0.1022	25.67	0.52	-0.050			
0.9273	59348.05	3.1570	3.1569	-0.1023	25.66	0.51	-0.050			
0.9274	59354.60	3.1560	3.1558	-0.1024	25.64	0.49	-0.050			
0.9275	59361.15	3.1550	3.1548	-0.1025	25.62	0.47	-0.050			
0.9276	59368.04	3.1540	3.1538	-0.1015	25.60	0.45	-0.050			
0.9277	59374.53	3.1530	3.1528	-0.1013	25.59	0.44	-0.050			
0.9278	59381.26	3.1520	3.1520	-0.1016	25.57	0.42	-0.050			
0.9279	59387.75	3.1510	3.1511	-0.1013	25.56	0.41	-0.050			
0.9280	59394.23	3.1500	3.1501	-0.1010	25.54	0.39	-0.050			
0.9281	59400.68	3.1490	3.1490	-0.1007	25.53	0.38	-0.050			
0.9282	59407.41	3.1480	3.1480	-0.0996	25.51	0.36	-0.050			
0.9283	59414.09	3.1470	3.1470	-0.1000	25.49	0.34	-0.050			
0.9284	59420.46	3.1460	3.1460	-0.0993	25.47	0.32	-0.050			
0.9285	59426.80	3.1450	3.1450	-0.0986	25.46	0.31	-0.050			
0.9286	59433.08	3.1440	3.1442	-0.0978	25.44	0.29	-0.050			
0.9287	59439.32	3.1430	3.1431	-0.0971	25.43	0.28	-0.050			
0.9288	59445.35	3.1420	3.1423	-0.0969	25.42	0.27	-0.050			
0.9289	59451.53	3.1410	3.1412	-0.0962	25.41	0.26	-0.050			
0.9290	59457.74	3.1400	3.1400	-0.0958	25.39	0.24	-0.050			
0.9291	59463.85	3.1390	3.1390	-0.0951	25.38	0.23	-0.050			
0.9292	59469.92	3.1380	3.1380	-0.0945	25.36	0.21	-0.050			
0.9293	59475.94	3.1370	3.1370	-0.0938	25.35	0.20	-0.050			
0.9294	59481.92	3.1360	3.1359	-0.0931	25.34	0.19	-0.050			
0.9295	59487.86	3.1350	3.1348	-0.0925	25.32	0.17	-0.050			
0.9296	59492.98	3.1340	3.1342	-0.0917	25.31	0.16	-0.050			
0.9297	59498.85	3.1330	3.1331	-0.0916	25.30	0.15	-0.050			
0.9298	59504.71	3.1320	3.1320	-0.0915	25.29	0.14	-0.050			
0.9299	59510.56	3.1310	3.1309	-0.0913	25.28	0.13	-0.050			
0.9299	59516.40	3.1300	3.1299	-0.0912	25.27	0.12	-0.050			
0.9300	59522.23	3.1290	3.1289	-0.0911	25.26	0.11	-0.050			
0.9301	59527.79	3.1280	3.1280	-0.0907	25.25	0.10	-0.050			
0.9302	59533.72	3.1270	3.1269	-0.0905	25.23	0.08	-0.050			
0.9303	59539.51	3.1260	3.1259	-0.0905	25.22	0.07	-0.050			
0.9304	59545.30	3.1250	3.1249	-0.0904	25.21	0.06	-0.050			
0.9305	59551.09	3.1240	3.1241	-0.0904	25.20	0.05	-0.050			
0.9306	59556.87	3.1230	3.1230	-0.0903	25.19	0.04	-0.050			
0.9307	59562.63	3.1220	3.1219	-0.0902	25.18	0.03	-0.050			
0.9308	59568.41	3.1210	3.1210	-0.0902	25.17	0.02	-0.050			
0.9308	59574.27	3.1200	3.1200	-0.0899	25.16	0.01	-0.050			
0.9309	59580.02	3.1190	3.1190	-0.0898	25.15	0.00	-0.050			
0.9310	59585.77	3.1180	3.1179	-0.0897	25.14	-0.01	-0.050			
0.9311	59591.50	3.1170	3.1169	-0.0896	25.13	-0.02	-0.050			
0.9312	59597.23	3.1160	3.1159	-0.0895	25.12	-0.03	-0.050			
0.9313	59602.96	3.1150	3.1152	-0.0894	25.11	-0.04	-0.050			
0.9314	59608.92	3.1140	3.1142	-0.0893	25.10	-0.05	-0.050			
0.9315	59614.63	3.1130	3.1131	-0.0891	25.10	-0.05	-0.050			
0.9316	59620.32	3.1120	3.1120	-0.0888	25.09	-0.06	-0.050			
0.9317	59625.99	3.1110	3.1109	-0.0885	25.08	-0.07	-0.050			
0.9317	59631.65	3.1100	3.1099	-0.0883	25.07	-0.08	-0.050			
0.9318	59637.29	3.1090	3.1089	-0.0880	25.06	-0.09	-0.050			
0.9319	59642.91	3.1080	3.1080	-0.0877	25.05	-0.10	-0.050			
0.9320	59648.50	3.1070	3.1070	-0.0874	25.05	-0.10	-0.050			
0.9321	59654.24	3.1060	3.1061	-0.0870	25.04	-0.11	-0.050			
0.9322	59659.80	3.1050	3.1052	-0.0866	25.03	-0.12	-0.050			
0.9323	59665.33	3.1040	3.1040	-0.0863	25.02	-0.13	-0.050			
0.9324	59670.84	3.1030	3.1029	-0.0859	25.01	-0.14	-0.050			
0.9324	59676.32	3.1020	3.1019	-0.0855	25.01	-0.14	-0.050			
0.9325	59681.78	3.1010	3.1009	-0.0852	25.00	-0.15	-0.050			
0.9326	59687.40	3.1000	3.1000	-0.0850	24.99	-0.16	-0.050			
0.9327	59692.82	3.0990	3.0991	-0.0845	24.99	-0.16	-0.050			
0.9328	59698.07	3.0980	3.0979	-0.0844	24.98	-0.17	-0.050			
0.9329	59703.46	3.0970	3.0969	-0.0840	24.97	-0.18	-0.050			
0.9330	59708.82	3.0960	3.0959	-0.0837	24.96	-0.19	-0.050			
0.9330	59714.17	3.0950	3.0952	-0.0833	24.96	-0.19	-0.050			
0.9331	59719.40	3.0940	3.0940	-0.0829	24.95	-0.20	-0.050			
0.9332	59724.70	3.0930	3.0930	-0.0826	24.95	-0.20	-0.050			
0.9333	59729.78	3.0920	3.0920	-0.0825	24.94	-0.21	-0.050			
0.9334	59735.06	3.0910	3.0910	-0.0823	24.94	-0.21	-0.050			
0.9334	59740.32	3.0900	3.0899	-0.0822	24.93	-0.22	-0.050			
0.9335	59745.57	3.0890	3.0889	-0.0820	24.93	-0.22	-0.050			
0.9336	59750.81	3.0880	3.0880	-0.0818	24.92	-0.23	-0.050			
0.9337	59756.04	3.0870	3.0870	-0.0816	24.92	-0.23	-0.050			
0.9338	59761.02	3.0860	3.0860	-0.0811	24.91	-0.24	-0.050			
0.9338	59766.20	3.0850	3.0850	-0.0810	24.91	-0.24	-0.050			
0.9339	59771.55	3.0840	3.0840	-0.0806	24.90	-0.25	-0.050			
0.9340	59776.71	3.0830	3.0830	-0.0805	24.90	-0.25	-0.050			
0.9341	59781.86	3.0820	3.0820	-0.0803	24.89	-0.26	-0.050			
0.9342	59786.99	3.0810	3.0810	-0.0802	24.89	-0.26	-0.050			
0.9343	59792.12	3.0800	3.0800	-0.0800	24.88	-0.27	-0.050			
0.9343	59797.23	3.0790	3.0789	-0.0798	24.88	-0.27	-0.050			
0.9344	59802.50	3.0780	3.0780	-0.0798	24.88	-0.27	-0.050			
0.9345	59807.60	3.0770	3.0770	-0.0796	24.87	-0.28	-0.050			
0.9346	59812.73	3.0760	3.0759	-0.0792	24.87	-0.28	-0.050			
0.9347	59817.80	3.0750	3.0751	-0.0790	24.86	-0.29	-0.050			
0.9347	59822.84	3.0740	3.0742	-0.0787	24.86	-0.29	-0.050			
0.9348	59827.87	3.0730	3.0731	-0.0784	24.85	-0.30	-0.050			
0.9349	59832.97	3.0720	3.0720	-0.0783	24.85	-0.30	-0.050			
0.9350	59837.97	3.0710	3.0710	-0.0780	24.85	-0.30	-0.050			
0.9350	59842.95	3.0700	3.0700	-0.0776	24.84	-0.31	-0.050			
0.9351	59847.86	3.0690	3.0690	-0.0774	24.84	-0.31	-0.050			
0.9352	59852.80	3.0680	3.0679	-0.0771	24.83	-0.32	-0.050			
0.9353	59857.72	3.0670	3.0669	-0.0767	24.83	-0.32	-0.050			
0.9354	59862.62	3.0660	3.0660	-0.0764	24.83	-0.32	-0.050			
0.9354	59867.51	3.0650	3.0650	-0.0761	24.82	-0.33	-0.050			
0.9355	59872.31	3.0640	3.0641	-0.0757	24.82	-0.33	-0.050			
0.9356	59877.14	3.0630	3.0631	-0.0755	24.82	-0.33	-0.050			
0.9357	59881.97	3.0620	3.0620	-0.0752	24.81	-0.34	-0.050			
0.9357	59886.61	3.0610	3.0610	-0.0753	24.81	-0.34	-0.050			
0.9358	59891.42	3.0600	3.0600	-0.0751	24.81	-0.34	-0.050			
0.9359	59896.22	3.0590	3.0590	-0.0749	24.81	-0.34	-0.050			
0.9360	59901.01	3.0580	3.0580	-0.0748	24.80	-0.35	-0.050			
0.9360	59905.79	3.0570	3.0570	-0.0746	24.80	-0.35	-0.050			
0.9361	59910.40	3.0560	3.0560	-0.0742	24.80	-0.35	-0.050			
0.9362	59915.15	3.0550	3.0550	-0.0742	24.80	-0.35	-0.050			
0.9362	59919.98	3.0540	3.0540	-0.0739	24.79	-0.36	-0.050			
0.9363	59924.71	3.0530	3.0530	-0.0738	24.79	-0.36	-0.050			
0.9364	59929.43	3.0520	3.0519	-0.0737	24.79	-0.36	-0.050			
0.9365	59934.14	3.0510	3.0509	-0.0735	24.78	-0.37	-0.050			
0.9365	59938.84	3.0500	3.0499	-0.0734	24.78	-0.37	-0.050			
0.9366	59943.53	3.0490	3.0490	-0.0733	24.78	-0.37	-0.050			
0.9367	59948.21	3.0480	3.0479	-0.0731	24.78	-0.37	-0.050			
0.9368	59952.89	3.0470	3.0469	-0.0730	24.77	-0.38	-0.050			
0.9368	59957.60	3.0460	3.0459	-0.0728	24.77	-0.38	-0.050			
0.9369	59962.25	3.0450	3.0449	-0.0726	24.77	-0.38	-0.050			
0.9370	59966.90	3.0440	3.0440	-0.0725	24.77	-0.38	-0.050			
0.9371	59971.53	3.0430	3.0431	-0.0723	24.76	-0.39	-0.050			
0.9371	59976.15	3.0420	3.0422	-0.0722	24.76	-0.39	-0.050			
0.9372	59980.90	3.0410	3.0412	-0.0722	24.76	-0.39	-0.050			
0.9373	59985.51	3.0400	3.0400	-0.0719	24.76	-0.39	-0.050			
0.9373	59990.14	3.0390	3.0390	-0.0716	24.76	-0.39	-0.050			
0.9374	59994.72	3.0380	3.0380	-0.0714	24.76	-0.39	-0.050			
0.9375	59999.28	3.0370	3.0370	-0.0711	24.76	-0.39	-0.050			
0.9376	60003.83	3.0360	3.0360	-0.0709	24.76	-0.39	-0.050			
0.9376	60008.36	3.0350	3.0350	-0.0706	24.76	-0.39	-0.050			
0.9377	60012.85	3.0340	3.0340	-0.0703	24.76	-0.39	-0.050			
0.9378	60017.34	3.0330	3.0330	-0.0701	24.76	-0.39	-0.050			
0.9378	60021.82	3.0320	3.0319	-0.0699	24.76	-0.39	-0.050			
0.9379	60026.29	3.0310	3.0311	-0.0696	24.76	-0.39	-0.050			
0.9380	60030.76	3.0300	3.0303	-0.0693	24.76	-0.39	-0.050			
0.9380	60035.19	3.0290	3.0291	-0.0691	24.76	-0.39	-0.050			
0.9381	60039.60	3.0280	3.0279	-0.0688	24.76	-0.39	-0.050			
0.9382	60044.00	3.0270	3.0269	-0.0685	24.76	-0.39	-0.050			
0.9383	60048.46	3.0260	3.0259	-0.0684	24.75	-0.40	-0.050			
0.9383	60052.82	3.0250	3.0249	-0.0681	24.75	-0.40	-0.050			
0.9384	60057.17	3.0240	3.0239	-0.0678	24.75	-0.40	-0.050			
0.9385	60061.50	3.0230	3.0229	-0.0675	24.75	-0.40	-0.050			
0.9385	60065.80	3.0220	3.0219	-0.0672	24.75	-0.40	-0.050			
0.9386	60070.09	3.0210	3.0209	-0.0670	24.75	-0.40	-0.050			
0.9387	60074.37	3.0200	3.0199	-0.0667	24.74	-0.41	-0.050			
0.9387	60078.59	3.0190	3.0190	-0.0663	24.74	-0.41	-0.050			
0.9388	60082.83	3.0180	3.0181	-0.0660	24.74	-0.41	-0.050			
0.9389	60087.05	3.0170	3.0173	-0.0658	24.74	-0.41	-0.050			
0.9389	60091.25	3.0160	3.0161	-0.0655	24.74	-0.41	-0.050			
0.9390	60095.43	3.0150	3.0151	-0.0652	24.74	-0.41	-0.050			
0.9391	60099.60	3.0140	3.0140	-0.0650	24.74	-0.41	-0.050			
0.9391	60103.74	3.0130	3.0130	-0.0647	24.74	-0.41	-0.050			
0.9392	60107.87	3.0120	3.0120	-0.0644	24.74	-0.41	-0.050			
0.9392	60111.99	3.0110	3.0110	-0.0641	24.73	-0.42	-0.050			
0.9393	60116.11	3.0100	3.0099	-0.0638	24.73	-0.42	-0.050			
0.9394	60120.18	3.0090	3.0089	-0.0636	24.73	-0.42	-0.050			
0.9394	60124.24	3.0080	3.0078	-0.0633	24.73	-0.42	-0.050			
0.9395	60128.28	3.0070	3.0069	-0.0630	24.73	-0.42	-0.050			
0.9396	60132.30	3.0060	3.0059	-0.0627	24.73	-0.42	-0.050			
0.9396	60136.30	3.0050	3.0051	-0.0624	24.73	-0.42	-0.050			
