Ah_balance (normalized)	Ah_balance (mAh)	Voltage - fit (V)	Voltage -  interpolate (V)	dQ/dV (1/V)	Temperature (°C)	Temperature - diff (°C)	Current (C)	R_DC 0ms (mOhm)	R_DC 50ms (mOhm)	R_DC 50 ms PEC (mOhm)
-0.0049	-314.47	4.1990	4.1990	0.8384	26.63	1.57	0.050			
-0.0041	-260.73	4.1980	4.1978	0.8508	26.57	1.51	0.050			
-0.0032	-206.45	4.1970	4.1972	0.8477	26.52	1.46	0.050			
-0.0024	-152.10	4.1960	4.1958	0.8475	26.46	1.40	0.050			
-0.0015	-97.57	4.1950	4.1950	0.8471	26.39	1.33	0.050			
-0.0007	-43.55	4.1940	4.1937	0.8446	26.34	1.28	0.050			
0.0002	10.54	4.1930	4.1928	0.8425	26.28	1.22	0.050			
0.0010	63.10	4.1920	4.1917	0.8421	26.22	1.16	0.050			
0.0018	116.82	4.1910	4.1913	0.8424	26.16	1.10	0.050			
0.0027	171.61	4.1900	4.1902	0.8404	26.10	1.04	0.050			
0.0035	225.31	4.1890	4.1890	0.8397	26.04	0.98	0.050			
0.0044	278.75	4.1880	4.1879	0.8388	25.98	0.92	0.050			
0.0052	332.09	4.1870	4.1869	0.8379	25.92	0.86	0.050			
0.0060	385.78	4.1860	4.1860	0.8378	25.87	0.81	0.050			
0.0069	439.55	4.1850	4.1849	0.8382	25.80	0.74	0.050			
0.0077	493.08	4.1840	4.1839	0.8388	25.74	0.68	0.050			
0.0085	546.28	4.1830	4.1829	0.8412	25.69	0.63	0.050			
0.0094	599.87	4.1820	4.1821	0.8416	25.62	0.56	0.050			
0.0102	652.94	4.1810	4.1810	0.8388	25.57	0.51	0.050			
0.0110	707.09	4.1800	4.1798	0.8403	25.51	0.45	0.050			
0.0119	761.52	4.1790	4.1791	0.8429	25.45	0.39	0.050			
0.0127	815.57	4.1780	4.1782	0.8459	25.38	0.32	0.050			
0.0136	869.43	4.1770	4.1769	0.8462	25.33	0.27	0.050			
0.0144	924.09	4.1760	4.1759	0.8472	25.26	0.20	0.050			
0.0153	978.63	4.1750	4.1749	0.8475	25.19	0.13	0.050			
0.0161	1033.16	4.1740	4.1740	0.8462	25.12	0.06	0.050			
0.0170	1087.14	4.1730	4.1730	0.8445	25.07	0.01	0.050			
0.0178	1141.40	4.1720	4.1721	0.8432	25.00	-0.06	0.050			
0.0187	1195.69	4.1710	4.1710	0.8467	24.93	-0.13	0.050			
0.0195	1250.09	4.1700	4.1699	0.8486	24.85	-0.21	0.050			
0.0204	1304.58	4.1690	4.1692	0.8474	24.78	-0.28	0.050			
0.0212	1358.97	4.1680	4.1681	0.8475	24.70	-0.36	0.050			
0.0221	1412.92	4.1670	4.1671	0.8468	24.63	-0.43	0.050			
0.0229	1467.04	4.1660	4.1659	0.8463	24.53	-0.53	0.050			
0.0238	1521.23	4.1650	4.1652	0.8447	24.46	-0.60	0.050			
0.0246	1575.71	4.1640	4.1638	0.8413	24.37	-0.69	0.050			
0.0255	1629.55	4.1630	4.1630	0.8394	24.30	-0.76	0.050			
0.0263	1683.48	4.1620	4.1619	0.8386	24.22	-0.84	0.050			
0.0271	1737.48	4.1610	4.1611	0.8370	24.14	-0.92	0.050			
0.0280	1791.21	4.1600	4.1600	0.8334	24.07	-0.99	0.050			
0.0288	1844.83	4.1590	4.1589	0.8305	23.99	-1.07	0.050			
0.0297	1898.33	4.1580	4.1580	0.8289	23.93	-1.13	0.050			
0.0305	1951.11	4.1570	4.1571	0.8246	23.87	-1.19	0.050			
0.0313	2004.34	4.1560	4.1561	0.8246	23.82	-1.24	0.050			
0.0321	2056.89	4.1550	4.1550	0.8213	23.78	-1.28	0.050			
0.0330	2109.50	4.1540	4.1538	0.8189	23.74	-1.32	0.050			
0.0338	2161.21	4.1530	4.1530	0.8150	23.71	-1.35	0.050			
0.0346	2212.47	4.1520	4.1521	0.8154	23.70	-1.36	0.050			
0.0354	2263.72	4.1510	4.1510	0.8096	23.69	-1.37	0.050			
0.0362	2315.78	4.1500	4.1500	0.8097	23.70	-1.36	0.050			
0.0370	2367.12	4.1490	4.1490	0.8085	23.72	-1.34	0.050			
0.0378	2418.70	4.1480	4.1481	0.8094	23.76	-1.30	0.050			
0.0386	2470.03	4.1470	4.1469	0.8084	23.79	-1.27	0.050			
0.0394	2521.57	4.1460	4.1462	0.8087	23.85	-1.21	0.050			
0.0402	2573.95	4.1450	4.1450	0.8076	23.91	-1.15	0.050			
0.0410	2626.53	4.1440	4.1439	0.8056	23.99	-1.07	0.050			
0.0418	2678.06	4.1430	4.1429	0.8054	24.08	-0.98	0.050			
0.0427	2729.69	4.1420	4.1421	0.8023	24.19	-0.87	0.050			
0.0435	2781.56	4.1410	4.1409	0.8012	24.31	-0.75	0.050			
0.0443	2833.18	4.1400	4.1400	0.7997	24.43	-0.63	0.050			
0.0451	2884.33	4.1390	4.1389	0.7988	24.57	-0.49	0.050			
0.0458	2934.39	4.1380	4.1380	0.7996	24.71	-0.35	0.050			
0.0466	2985.29	4.1370	4.1370	0.7989	24.85	-0.21	0.050			
0.0474	3034.67	4.1360	4.1362	0.8000	25.01	-0.05	0.050			
0.0482	3086.01	4.1350	4.1351	0.8014	25.18	0.12	0.050			
0.0490	3136.91	4.1340	4.1339	0.8020	25.36	0.30	0.050			
0.0498	3187.13	4.1330	4.1331	0.8057	25.55	0.49	0.050			
0.0506	3237.63	4.1320	4.1318	0.8070	25.74	0.68	0.050			
0.0514	3289.13	4.1310	4.1311	0.8123	25.93	0.87	0.050			
0.0522	3341.12	4.1300	4.1299	0.8177	26.13	1.07	0.050			
0.0530	3393.43	4.1290	4.1290	0.8203	26.32	1.26	0.050			
0.0538	3445.51	4.1280	4.1281	0.8249	26.51	1.45	0.050			
0.0547	3498.32	4.1270	4.1268	0.8301	26.69	1.63	0.050			
0.0555	3551.93	4.1260	4.1261	0.8379	26.85	1.79	0.050			
0.0563	3605.85	4.1250	4.1252	0.8451	27.00	1.94	0.050			
0.0572	3660.79	4.1240	4.1238	0.8517	27.15	2.09	0.050			
0.0581	3716.03	4.1230	4.1230	0.8535	27.26	2.20	0.050			
0.0589	3771.69	4.1220	4.1222	0.8577	27.32	2.26	0.050			
0.0598	3827.64	4.1210	4.1210	0.8607	27.32	2.26	0.050			
0.0607	3883.51	4.1200	4.1199	0.8614	27.30	2.24	0.050			
0.0615	3939.10	4.1190	4.1188	0.8630	27.27	2.21	0.050			
0.0624	3994.33	4.1180	4.1179	0.8629	27.25	2.19	0.050			
0.0633	4050.65	4.1170	4.1167	0.8617	27.23	2.17	0.050			
0.0642	4105.79	4.1160	4.1161	0.8622	27.20	2.14	0.050			
0.0650	4161.10	4.1150	4.1153	0.8627	27.18	2.12	0.050			
0.0659	4216.01	4.1140	4.1140	0.8668	27.17	2.11	0.050			
0.0667	4270.69	4.1130	4.1131	0.8655	27.15	2.09	0.050			
0.0676	4325.87	4.1120	4.1119	0.8676	27.13	2.07	0.050			
0.0685	4381.61	4.1110	4.1112	0.8676	27.11	2.05	0.050			
0.0693	4436.85	4.1100	4.1100	0.8686	27.09	2.03	0.050			
0.0702	4493.46	4.1090	4.1089	0.8660	27.09	2.03	0.050			
0.0711	4548.61	4.1080	4.1081	0.8671	27.07	2.01	0.050			
0.0719	4603.43	4.1070	4.1068	0.8658	27.06	2.00	0.050			
0.0728	4658.30	4.1060	4.1061	0.8656	27.07	2.01	0.050			
0.0737	4714.21	4.1050	4.1049	0.8666	27.06	2.00	0.050			
0.0745	4770.72	4.1040	4.1042	0.8655	27.06	2.00	0.050			
0.0754	4827.14	4.1030	4.1030	0.8643	27.05	1.99	0.050			
0.0763	4881.84	4.1020	4.1022	0.8673	27.06	2.00	0.050			
0.0771	4935.72	4.1010	4.1008	0.8712	27.08	2.02	0.050			
0.0780	4991.73	4.1000	4.1002	0.8744	27.09	2.03	0.050			
0.0789	5047.61	4.0990	4.0991	0.8756	27.07	2.01	0.050			
0.0798	5104.14	4.0980	4.0982	0.8749	27.02	1.96	0.050			
0.0806	5160.23	4.0970	4.0970	0.8763	26.98	1.92	0.050			
0.0815	5215.40	4.0960	4.0961	0.8754	26.93	1.87	0.050			
0.0824	5270.96	4.0950	4.0948	0.8747	26.88	1.82	0.050			
0.0832	5327.26	4.0940	4.0937	0.8748	26.83	1.77	0.050			
0.0841	5383.10	4.0930	4.0928	0.8755	26.78	1.72	0.050			
0.0850	5439.41	4.0920	4.0920	0.8813	26.73	1.67	0.050			
0.0859	5496.85	4.0910	4.0912	0.8833	26.68	1.62	0.050			
0.0868	5553.71	4.0900	4.0901	0.8854	26.62	1.56	0.050			
0.0877	5610.49	4.0890	4.0892	0.8908	26.56	1.50	0.050			
0.0886	5668.29	4.0880	4.0878	0.8916	26.51	1.45	0.050			
0.0895	5725.40	4.0870	4.0872	0.8909	26.44	1.38	0.050			
0.0904	5782.69	4.0860	4.0859	0.8921	26.37	1.31	0.050			
0.0912	5839.90	4.0850	4.0851	0.8935	26.33	1.27	0.050			
0.0921	5897.57	4.0840	4.0839	0.8942	26.27	1.21	0.050			
0.0930	5954.25	4.0830	4.0829	0.8925	26.21	1.15	0.050			
0.0939	6010.49	4.0820	4.0822	0.8870	26.14	1.08	0.050			
0.0948	6067.22	4.0810	4.0813	0.8862	26.07	1.01	0.050			
0.0957	6124.90	4.0800	4.0797	0.8887	26.01	0.95	0.050			
0.0966	6182.71	4.0790	4.0791	0.8886	25.95	0.89	0.050			
0.0975	6240.12	4.0780	4.0779	0.8880	25.89	0.83	0.050			
0.0984	6295.53	4.0770	4.0771	0.8907	25.83	0.77	0.050			
0.0993	6352.49	4.0760	4.0762	0.8928	25.77	0.71	0.050			
0.1002	6409.66	4.0750	4.0749	0.8912	25.72	0.66	0.050			
0.1010	6466.51	4.0740	4.0741	0.8925	25.65	0.59	0.050			
0.1019	6523.63	4.0730	4.0730	0.8911	25.59	0.53	0.050			
0.1028	6579.73	4.0720	4.0719	0.8880	25.54	0.48	0.050			
0.1037	6636.90	4.0710	4.0708	0.8885	25.49	0.43	0.050			
0.1046	6693.49	4.0700	4.0698	0.8907	25.42	0.36	0.050			
0.1055	6749.87	4.0690	4.0688	0.8920	25.36	0.30	0.050			
0.1064	6807.38	4.0680	4.0680	0.8961	25.29	0.23	0.050			
0.1073	6864.72	4.0670	4.0672	0.8967	25.25	0.19	0.050			
0.1082	6922.54	4.0660	4.0663	0.8956	25.19	0.13	0.050			
0.1091	6980.82	4.0650	4.0648	0.8970	25.13	0.07	0.050			
0.1100	7038.28	4.0640	4.0640	0.8964	25.06	0.00	0.050			
0.1109	7096.95	4.0630	4.0629	0.8966	25.00	-0.06	0.050			
0.1118	7154.05	4.0620	4.0617	0.8981	24.94	-0.12	0.050			
0.1127	7211.98	4.0610	4.0608	0.8984	24.87	-0.19	0.050			
0.1136	7269.35	4.0600	4.0601	0.8960	24.81	-0.25	0.050			
0.1145	7326.45	4.0590	4.0591	0.8957	24.74	-0.32	0.050			
0.1154	7382.98	4.0580	4.0580	0.8952	24.69	-0.37	0.050			
0.1162	7438.74	4.0570	4.0571	0.8932	24.63	-0.43	0.050			
0.1171	7497.04	4.0560	4.0558	0.8949	24.56	-0.50	0.050			
0.1180	7555.02	4.0550	4.0551	0.8955	24.50	-0.56	0.050			
0.1190	7613.53	4.0540	4.0538	0.8929	24.45	-0.61	0.050			
0.1199	7670.83	4.0530	4.0528	0.8908	24.40	-0.66	0.050			
0.1208	7728.36	4.0520	4.0520	0.8894	24.34	-0.72	0.050			
0.1216	7785.25	4.0510	4.0511	0.8841	24.30	-0.76	0.050			
0.1225	7841.41	4.0500	4.0499	0.8804	24.27	-0.79	0.050			
0.1234	7897.22	4.0490	4.0492	0.8797	24.24	-0.82	0.050			
0.1243	7953.56	4.0480	4.0482	0.8790	24.22	-0.84	0.050			
0.1252	8010.80	4.0470	4.0472	0.8773	24.22	-0.84	0.050			
0.1260	8066.98	4.0460	4.0462	0.8758	24.22	-0.84	0.050			
0.1269	8123.03	4.0450	4.0449	0.8720	24.23	-0.83	0.050			
0.1278	8179.03	4.0440	4.0438	0.8700	24.23	-0.83	0.050			
0.1287	8234.42	4.0430	4.0428	0.8650	24.26	-0.80	0.050			
0.1295	8288.49	4.0420	4.0420	0.8610	24.29	-0.77	0.050			
0.1304	8342.49	4.0410	4.0409	0.8628	24.33	-0.73	0.050			
0.1312	8396.89	4.0400	4.0399	0.8629	24.38	-0.68	0.050			
0.1321	8451.71	4.0390	4.0390	0.8612	24.44	-0.62	0.050			
0.1329	8506.07	4.0380	4.0382	0.8599	24.51	-0.55	0.050			
0.1338	8561.86	4.0370	4.0370	0.8599	24.59	-0.47	0.050			
0.1346	8617.10	4.0360	4.0359	0.8625	24.69	-0.37	0.050			
0.1355	8673.79	4.0350	4.0349	0.8617	24.80	-0.26	0.050			
0.1364	8728.73	4.0340	4.0336	0.8614	24.91	-0.15	0.050			
0.1373	8784.20	4.0330	4.0330	0.8610	25.06	-0.00	0.050			
0.1381	8838.82	4.0320	4.0318	0.8595	25.20	0.14	0.050			
0.1390	8893.60	4.0310	4.0310	0.8611	25.37	0.31	0.050			
0.1398	8948.01	4.0300	4.0301	0.8606	25.53	0.47	0.050			
0.1407	9002.29	4.0290	4.0291	0.8628	25.70	0.64	0.050			
0.1415	9057.07	4.0280	4.0282	0.8650	25.87	0.81	0.050			
0.1424	9111.87	4.0270	4.0271	0.8730	26.05	0.99	0.050			
0.1432	9167.53	4.0260	4.0258	0.8773	26.25	1.19	0.050			
0.1441	9222.43	4.0250	4.0246	0.8832	26.43	1.37	0.050			
0.1450	9277.96	4.0240	4.0238	0.8897	26.62	1.56	0.050			
0.1459	9335.14	4.0230	4.0229	0.8924	26.80	1.74	0.050			
0.1468	9392.23	4.0220	4.0219	0.8950	26.96	1.90	0.050			
0.1477	9449.75	4.0210	4.0210	0.8988	27.13	2.07	0.050			
0.1486	9508.33	4.0200	4.0200	0.9061	27.27	2.21	0.050			
0.1495	9566.48	4.0190	4.0189	0.9154	27.39	2.33	0.050			
0.1504	9626.12	4.0180	4.0178	0.9208	27.45	2.39	0.050			
0.1513	9686.12	4.0170	4.0169	0.9265	27.50	2.44	0.050			
0.1523	9747.02	4.0160	4.0159	0.9302	27.47	2.41	0.050			
0.1532	9806.45	4.0150	4.0151	0.9341	27.42	2.36	0.050			
0.1542	9867.08	4.0140	4.0143	0.9376	27.37	2.31	0.050			
0.1551	9927.90	4.0130	4.0131	0.9376	27.33	2.27	0.050			
0.1561	9988.55	4.0120	4.0118	0.9394	27.28	2.22	0.050			
0.1570	10048.34	4.0110	4.0107	0.9409	27.23	2.17	0.050			
0.1580	10108.83	4.0100	4.0099	0.9413	27.17	2.11	0.050			
0.1589	10168.54	4.0090	4.0092	0.9419	27.13	2.07	0.050			
0.1598	10228.80	4.0080	4.0080	0.9425	27.07	2.01	0.050			
0.1608	10288.03	4.0070	4.0071	0.9429	27.01	1.95	0.050			
0.1617	10348.23	4.0060	4.0057	0.9433	26.96	1.90	0.050			
0.1626	10408.89	4.0050	4.0051	0.9462	26.90	1.84	0.050			
0.1636	10469.38	4.0040	4.0042	0.9512	26.84	1.78	0.050			
0.1646	10531.91	4.0030	4.0029	0.9530	26.79	1.73	0.050			
0.1655	10594.35	4.0020	4.0019	0.9522	26.72	1.66	0.050			
0.1665	10654.59	4.0010	4.0012	0.9507	26.65	1.59	0.050			
0.1674	10714.63	4.0000	3.9998	0.9513	26.58	1.52	0.050			
0.1684	10775.41	3.9990	3.9990	0.9516	26.52	1.46	0.050			
0.1693	10836.43	3.9980	3.9979	0.9525	26.45	1.39	0.050			
0.1703	10897.87	3.9970	3.9969	0.9563	26.37	1.31	0.050			
0.1712	10958.81	3.9960	3.9961	0.9571	26.32	1.26	0.050			
0.1722	11020.05	3.9950	3.9950	0.9573	26.25	1.19	0.050			
0.1732	11081.62	3.9940	3.9943	0.9575	26.18	1.12	0.050			
0.1741	11143.49	3.9930	3.9927	0.9605	26.10	1.04	0.050			
0.1751	11205.13	3.9920	3.9922	0.9604	26.03	0.97	0.050			
0.1760	11265.65	3.9910	3.9909	0.9606	25.96	0.90	0.050			
0.1770	11327.06	3.9900	3.9899	0.9631	25.89	0.83	0.050			
0.1779	11388.48	3.9890	3.9890	0.9635	25.82	0.76	0.050			
0.1789	11450.53	3.9880	3.9878	0.9649	25.74	0.68	0.050			
0.1799	11511.90	3.9870	3.9873	0.9652	25.67	0.61	0.050			
0.1808	11574.25	3.9860	3.9860	0.9651	25.60	0.54	0.050			
0.1818	11635.79	3.9850	3.9849	0.9678	25.53	0.47	0.050			
0.1828	11696.82	3.9840	3.9839	0.9715	25.45	0.39	0.050			
0.1838	11760.73	3.9830	3.9831	0.9761	25.37	0.31	0.050			
0.1847	11822.96	3.9820	3.9819	0.9771	25.29	0.23	0.050			
0.1857	11885.94	3.9810	3.9811	0.9774	25.22	0.16	0.050			
0.1867	11947.89	3.9800	3.9802	0.9757	25.15	0.09	0.050			
0.1877	12010.47	3.9790	3.9789	0.9774	25.06	0.00	0.050			
0.1886	12073.34	3.9780	3.9779	0.9802	24.97	-0.09	0.050			
0.1896	12136.17	3.9770	3.9771	0.9780	24.89	-0.17	0.050			
0.1906	12199.10	3.9760	3.9758	0.9786	24.80	-0.26	0.050			
0.1916	12262.23	3.9750	3.9752	0.9798	24.70	-0.36	0.050			
0.1926	12325.49	3.9740	3.9742	0.9795	24.60	-0.46	0.050			
0.1936	12388.18	3.9730	3.9730	0.9773	24.49	-0.57	0.050			
0.1945	12450.86	3.9720	3.9723	0.9769	24.39	-0.67	0.050			
0.1955	12513.50	3.9710	3.9708	0.9742	24.29	-0.77	0.050			
0.1965	12576.53	3.9700	3.9701	0.9724	24.18	-0.88	0.050			
0.1975	12639.31	3.9690	3.9690	0.9719	24.07	-0.99	0.050			
0.1985	12701.41	3.9680	3.9682	0.9690	23.97	-1.09	0.050			
0.1994	12762.98	3.9670	3.9670	0.9677	23.88	-1.18	0.050			
0.2004	12825.04	3.9660	3.9661	0.9639	23.79	-1.27	0.050			
0.2013	12885.83	3.9650	3.9649	0.9604	23.71	-1.35	0.050			
0.2023	12947.23	3.9640	3.9640	0.9569	23.64	-1.42	0.050			
0.2033	13008.93	3.9630	3.9628	0.9548	23.58	-1.48	0.050			
0.2042	13070.51	3.9620	3.9623	0.9526	23.54	-1.52	0.050			
0.2052	13132.41	3.9610	3.9610	0.9486	23.50	-1.56	0.050			
0.2061	13193.22	3.9600	3.9600	0.9432	23.49	-1.57	0.050			
0.2071	13252.88	3.9590	3.9591	0.9407	23.48	-1.58	0.050			
0.2080	13313.22	3.9580	3.9580	0.9357	23.49	-1.57	0.050			
0.2090	13372.95	3.9570	3.9573	0.9332	23.53	-1.53	0.050			
0.2099	13432.41	3.9560	3.9562	0.9299	23.58	-1.48	0.050			
0.2108	13491.35	3.9550	3.9549	0.9273	23.64	-1.42	0.050			
0.2117	13550.08	3.9540	3.9539	0.9245	23.72	-1.34	0.050			
0.2126	13609.17	3.9530	3.9531	0.9221	23.82	-1.24	0.050			
0.2136	13667.49	3.9520	3.9521	0.9204	23.94	-1.12	0.050			
0.2145	13726.82	3.9510	3.9508	0.9189	24.07	-0.99	0.050			
0.2154	13784.68	3.9500	3.9498	0.9196	24.23	-0.83	0.050			
0.2163	13842.45	3.9490	3.9492	0.9173	24.40	-0.66	0.050			
0.2172	13900.70	3.9480	3.9479	0.9185	24.57	-0.49	0.050			
0.2181	13958.62	3.9470	3.9470	0.9187	24.76	-0.30	0.050			
0.2190	14017.63	3.9460	3.9460	0.9209	24.97	-0.09	0.050			
0.2199	14076.74	3.9450	3.9451	0.9234	25.20	0.14	0.050			
0.2209	14134.68	3.9440	3.9441	0.9283	25.44	0.38	0.050			
0.2218	14194.46	3.9430	3.9432	0.9307	25.68	0.62	0.050			
0.2227	14254.17	3.9420	3.9421	0.9343	25.94	0.88	0.050			
0.2237	14314.18	3.9410	3.9408	0.9404	26.20	1.14	0.050			
0.2246	14374.09	3.9400	3.9401	0.9451	26.46	1.40	0.050			
0.2255	14433.69	3.9390	3.9391	0.9477	26.71	1.65	0.050			
0.2265	14494.94	3.9380	3.9381	0.9545	26.94	1.88	0.050			
0.2274	14556.04	3.9370	3.9369	0.9578	27.16	2.10	0.050			
0.2284	14617.79	3.9360	3.9358	0.9623	27.37	2.31	0.050			
0.2294	14679.27	3.9350	3.9349	0.9673	27.54	2.48	0.050			
0.2303	14740.97	3.9340	3.9343	0.9751	27.66	2.60	0.050			
0.2313	14803.97	3.9330	3.9328	0.9809	27.71	2.65	0.050			
0.2323	14866.89	3.9320	3.9321	0.9850	27.69	2.63	0.050			
0.2333	14930.33	3.9310	3.9310	0.9923	27.66	2.60	0.050			
0.2343	14994.15	3.9300	3.9302	0.9932	27.64	2.58	0.050			
0.2353	15059.16	3.9290	3.9289	0.9965	27.61	2.55	0.050			
0.2363	15123.80	3.9280	3.9281	0.9983	27.58	2.52	0.050			
0.2373	15187.30	3.9270	3.9271	1.0024	27.55	2.49	0.050			
0.2383	15251.77	3.9260	3.9260	1.0069	27.52	2.46	0.050			
0.2393	15316.32	3.9250	3.9249	1.0103	27.49	2.43	0.050			
0.2403	15380.94	3.9240	3.9242	1.0100	27.46	2.40	0.050			
0.2414	15446.42	3.9230	3.9228	1.0165	27.44	2.38	0.050			
0.2424	15511.77	3.9220	3.9220	1.0166	27.41	2.35	0.050			
0.2434	15576.22	3.9210	3.9210	1.0189	27.38	2.32	0.050			
0.2444	15642.39	3.9200	3.9199	1.0181	27.36	2.30	0.050			
0.2454	15707.82	3.9190	3.9189	1.0204	27.34	2.28	0.050			
0.2465	15773.17	3.9180	3.9178	1.0213	27.32	2.26	0.050			
0.2475	15838.83	3.9170	3.9171	1.0224	27.30	2.24	0.050			
0.2485	15904.16	3.9160	3.9161	1.0224	27.27	2.21	0.050			
0.2495	15969.73	3.9150	3.9150	1.0224	27.22	2.16	0.050			
0.2505	16034.48	3.9140	3.9138	1.0233	27.16	2.10	0.050			
0.2516	16100.10	3.9130	3.9130	1.0228	27.12	2.06	0.050			
0.2526	16166.96	3.9120	3.9119	1.0233	27.06	2.00	0.050			
0.2536	16232.89	3.9110	3.9110	1.0240	27.00	1.94	0.050			
0.2547	16298.52	3.9100	3.9096	1.0238	26.95	1.89	0.050			
0.2557	16364.38	3.9090	3.9091	1.0250	26.89	1.83	0.050			
0.2567	16428.78	3.9080	3.9081	1.0241	26.83	1.77	0.050			
0.2577	16493.13	3.9070	3.9072	1.0254	26.77	1.71	0.050			
0.2587	16557.74	3.9060	3.9060	1.0306	26.70	1.64	0.050			
0.2597	16623.70	3.9050	3.9052	1.0327	26.64	1.58	0.050			
0.2608	16690.44	3.9040	3.9041	1.0332	26.58	1.52	0.050			
0.2618	16756.77	3.9030	3.9029	1.0330	26.51	1.45	0.050			
0.2629	16823.40	3.9020	3.9018	1.0343	26.44	1.38	0.050			
0.2639	16889.59	3.9010	3.9010	1.0373	26.36	1.30	0.050			
0.2650	16957.10	3.9000	3.8999	1.0393	26.29	1.23	0.050			
0.2660	17023.14	3.8990	3.8992	1.0400	26.22	1.16	0.050			
0.2670	17090.41	3.8980	3.8980	1.0408	26.15	1.09	0.050			
0.2681	17157.24	3.8970	3.8971	1.0425	26.07	1.01	0.050			
0.2691	17224.38	3.8960	3.8963	1.0438	26.00	0.94	0.050			
0.2702	17290.54	3.8950	3.8953	1.0475	25.93	0.87	0.050			
0.2712	17357.11	3.8940	3.8941	1.0502	25.87	0.81	0.050			
0.2723	17425.65	3.8930	3.8929	1.0533	25.79	0.73	0.050			
0.2733	17493.77	3.8920	3.8920	1.0517	25.72	0.66	0.050			
0.2744	17561.36	3.8910	3.8912	1.0482	25.63	0.57	0.050			
0.2754	17628.74	3.8900	3.8898	1.0476	25.58	0.52	0.050			
0.2765	17695.38	3.8890	3.8891	1.0451	25.50	0.44	0.050			
0.2775	17762.26	3.8880	3.8879	1.0419	25.43	0.37	0.050			
0.2786	17828.38	3.8870	3.8869	1.0409	25.37	0.31	0.050			
0.2796	17894.37	3.8860	3.8860	1.0433	25.30	0.24	0.050			
0.2807	17961.62	3.8850	3.8851	1.0465	25.23	0.17	0.050			
0.2817	18029.87	3.8840	3.8841	1.0471	25.16	0.10	0.050			
0.2828	18097.00	3.8830	3.8830	1.0466	25.09	0.03	0.050			
0.2838	18163.27	3.8820	3.8820	1.0441	25.03	-0.03	0.050			
0.2848	18229.84	3.8810	3.8808	1.0430	24.95	-0.11	0.050			
0.2859	18297.29	3.8800	3.8800	1.0413	24.88	-0.18	0.050			
0.2869	18363.74	3.8790	3.8788	1.0390	24.81	-0.25	0.050			
0.2880	18430.28	3.8780	3.8778	1.0378	24.75	-0.31	0.050			
0.2890	18497.39	3.8770	3.8770	1.0311	24.67	-0.39	0.050			
0.2901	18563.46	3.8760	3.8762	1.0268	24.60	-0.46	0.050			
0.2911	18629.22	3.8750	3.8752	1.0215	24.54	-0.52	0.050			
0.2921	18695.19	3.8740	3.8741	1.0215	24.48	-0.58	0.050			
0.2931	18761.41	3.8730	3.8730	1.0227	24.43	-0.63	0.050			
0.2942	18827.84	3.8720	3.8722	1.0183	24.39	-0.67	0.050			
0.2952	18893.17	3.8710	3.8711	1.0134	24.35	-0.71	0.050			
0.2962	18956.32	3.8700	3.8701	1.0100	24.33	-0.73	0.050			
0.2972	19020.68	3.8690	3.8691	1.0062	24.31	-0.75	0.050			
0.2982	19084.61	3.8680	3.8682	1.0026	24.31	-0.75	0.050			
0.2992	19147.94	3.8670	3.8668	0.9963	24.31	-0.75	0.050			
0.3002	19211.09	3.8660	3.8658	0.9911	24.33	-0.73	0.050			
0.3012	19275.29	3.8650	3.8648	0.9869	24.37	-0.69	0.050			
0.3022	19338.51	3.8640	3.8641	0.9821	24.41	-0.65	0.050			
0.3032	19402.18	3.8630	3.8631	0.9749	24.47	-0.59	0.050			
0.3041	19464.71	3.8620	3.8618	0.9698	24.52	-0.54	0.050			
0.3051	19527.43	3.8610	3.8611	0.9650	24.60	-0.46	0.050			
0.3061	19589.88	3.8600	3.8601	0.9584	24.70	-0.36	0.050			
0.3071	19652.13	3.8590	3.8593	0.9499	24.81	-0.25	0.050			
0.3080	19713.39	3.8580	3.8582	0.9411	24.94	-0.12	0.050			
0.3090	19774.88	3.8570	3.8571	0.9346	25.08	0.02	0.050			
0.3099	19834.30	3.8560	3.8559	0.9235	25.22	0.16	0.050			
0.3108	19892.59	3.8550	3.8549	0.9116	25.38	0.32	0.050			
0.3117	19949.15	3.8540	3.8541	0.9030	25.54	0.48	0.050			
0.3126	20006.70	3.8530	3.8529	0.8946	25.71	0.65	0.050			
0.3135	20062.64	3.8520	3.8522	0.8876	25.88	0.82	0.050			
0.3143	20118.37	3.8510	3.8509	0.8801	26.05	0.99	0.050			
0.3152	20172.49	3.8500	3.8499	0.8730	26.22	1.16	0.050			
0.3161	20227.85	3.8490	3.8490	0.8678	26.40	1.34	0.050			
0.3169	20283.94	3.8480	3.8480	0.8634	26.59	1.53	0.050			
0.3178	20338.35	3.8470	3.8470	0.8574	26.73	1.67	0.050			
0.3186	20393.22	3.8460	3.8459	0.8555	26.91	1.85	0.050			
0.3195	20447.60	3.8450	3.8451	0.8503	27.04	1.98	0.050			
0.3203	20501.57	3.8440	3.8443	0.8452	27.18	2.12	0.050			
0.3212	20556.42	3.8430	3.8430	0.8401	27.29	2.23	0.050			
0.3220	20610.65	3.8420	3.8418	0.8309	27.37	2.31	0.050			
0.3229	20664.99	3.8410	3.8410	0.8251	27.43	2.37	0.050			
0.3237	20718.02	3.8400	3.8400	0.8180	27.44	2.38	0.050			
0.3246	20771.35	3.8390	3.8392	0.8102	27.41	2.35	0.050			
0.3254	20824.08	3.8380	3.8379	0.8019	27.37	2.31	0.050			
0.3262	20875.76	3.8370	3.8372	0.7936	27.32	2.26	0.050			
0.3270	20925.72	3.8360	3.8360	0.7840	27.29	2.23	0.050			
0.3277	20975.41	3.8350	3.8351	0.7750	27.25	2.19	0.050			
0.3285	21024.31	3.8340	3.8340	0.7642	27.22	2.16	0.050			
0.3293	21072.43	3.8330	3.8331	0.7559	27.17	2.11	0.050			
0.3300	21120.13	3.8320	3.8319	0.7468	27.13	2.07	0.050			
0.3307	21167.68	3.8310	3.8310	0.7363	27.09	2.03	0.050			
0.3315	21213.94	3.8300	3.8301	0.7270	27.05	1.99	0.050			
0.3322	21259.75	3.8290	3.8288	0.7187	27.02	1.96	0.050			
0.3329	21305.88	3.8280	3.8279	0.7117	26.98	1.92	0.050			
0.3336	21350.27	3.8270	3.8270	0.7018	26.94	1.88	0.050			
0.3343	21394.77	3.8260	3.8261	0.6959	26.91	1.85	0.050			
0.3350	21438.25	3.8250	3.8249	0.6909	26.87	1.81	0.050			
0.3357	21482.49	3.8240	3.8241	0.6867	26.82	1.76	0.050			
0.3363	21525.08	3.8230	3.8230	0.6864	26.79	1.73	0.050			
0.3370	21568.64	3.8220	3.8221	0.6846	26.73	1.67	0.050			
0.3377	21611.03	3.8210	3.8210	0.6797	26.70	1.64	0.050			
0.3384	21654.78	3.8200	3.8199	0.6765	26.65	1.59	0.050			
0.3390	21697.28	3.8190	3.8190	0.6755	26.61	1.55	0.050			
0.3397	21739.83	3.8180	3.8178	0.6761	26.57	1.51	0.050			
0.3404	21782.50	3.8170	3.8168	0.6747	26.53	1.47	0.050			
0.3410	21824.35	3.8160	3.8159	0.6749	26.48	1.42	0.050			
0.3417	21866.84	3.8150	3.8150	0.6788	26.43	1.37	0.050			
0.3423	21910.24	3.8140	3.8140	0.6806	26.38	1.32	0.050			
0.3430	21954.33	3.8130	3.8132	0.6830	26.33	1.27	0.050			
0.3437	21997.66	3.8120	3.8121	0.6867	26.29	1.23	0.050			
0.3444	22041.96	3.8110	3.8111	0.6921	26.24	1.18	0.050			
0.3451	22086.52	3.8100	3.8099	0.6973	26.19	1.13	0.050			
0.3458	22131.02	3.8090	3.8086	0.6999	26.15	1.09	0.050			
0.3465	22175.45	3.8080	3.8082	0.7062	26.10	1.04	0.050			
0.3472	22220.39	3.8070	3.8069	0.7124	26.05	0.99	0.050			
0.3479	22265.75	3.8060	3.8061	0.7172	26.00	0.94	0.050			
0.3486	22310.75	3.8050	3.8051	0.7241	25.94	0.88	0.050			
0.3493	22357.07	3.8040	3.8040	0.7296	25.89	0.83	0.050			
0.3501	22403.58	3.8030	3.8028	0.7350	25.85	0.79	0.050			
0.3508	22450.83	3.8020	3.8017	0.7418	25.80	0.74	0.050			
0.3515	22498.95	3.8010	3.8009	0.7512	25.74	0.68	0.050			
0.3523	22547.53	3.8000	3.8000	0.7589	25.69	0.63	0.050			
0.3531	22596.39	3.7990	3.7989	0.7666	25.63	0.57	0.050			
0.3538	22644.33	3.7980	3.7982	0.7744	25.58	0.52	0.050			
0.3546	22693.79	3.7970	3.7970	0.7840	25.52	0.46	0.050			
0.3554	22743.89	3.7960	3.7960	0.7950	25.47	0.41	0.050			
0.3562	22794.59	3.7950	3.7949	0.8035	25.41	0.35	0.050			
0.3570	22847.42	3.7940	3.7941	0.8132	25.35	0.29	0.050			
0.3578	22899.59	3.7930	3.7929	0.8243	25.29	0.23	0.050			
0.3586	22952.96	3.7920	3.7919	0.8321	25.23	0.17	0.050			
0.3595	23005.80	3.7910	3.7908	0.8409	25.16	0.10	0.050			
0.3603	23059.61	3.7900	3.7900	0.8525	25.10	0.04	0.050			
0.3612	23115.22	3.7890	3.7891	0.8604	25.03	-0.03	0.050			
0.3620	23170.42	3.7880	3.7881	0.8692	24.97	-0.09	0.050			
0.3629	23226.68	3.7870	3.7870	0.8793	24.89	-0.17	0.050			
0.3638	23282.52	3.7860	3.7860	0.8915	24.82	-0.24	0.050			
0.3647	23340.43	3.7850	3.7851	0.9012	24.73	-0.33	0.050			
0.3656	23399.30	3.7840	3.7840	0.9080	24.66	-0.40	0.050			
0.3665	23458.06	3.7830	3.7831	0.9193	24.57	-0.49	0.050			
0.3675	23516.91	3.7820	3.7819	0.9287	24.48	-0.58	0.050			
0.3684	23577.14	3.7810	3.7811	0.9357	24.39	-0.67	0.050			
0.3693	23636.85	3.7800	3.7802	0.9456	24.31	-0.75	0.050			
0.3703	23697.30	3.7790	3.7787	0.9534	24.23	-0.83	0.050			
0.3712	23759.11	3.7780	3.7781	0.9583	24.14	-0.92	0.050			
0.3722	23821.40	3.7770	3.7770	0.9622	24.07	-0.99	0.050			
0.3732	23884.35	3.7760	3.7764	0.9686	23.99	-1.07	0.050			
0.3742	23947.73	3.7750	3.7749	0.9704	23.93	-1.13	0.050			
0.3752	24010.59	3.7740	3.7738	0.9780	23.88	-1.18	0.050			
0.3762	24073.99	3.7730	3.7728	0.9810	23.84	-1.22	0.050			
0.3771	24136.08	3.7720	3.7719	0.9843	23.82	-1.24	0.050			
0.3781	24198.96	3.7710	3.7710	0.9896	23.80	-1.26	0.050			
0.3791	24262.18	3.7700	3.7701	0.9940	23.81	-1.25	0.050			
0.3801	24325.48	3.7690	3.7692	1.0012	23.82	-1.24	0.050			
0.3811	24388.32	3.7680	3.7680	1.0066	23.86	-1.20	0.050			
0.3821	24452.75	3.7670	3.7670	1.0122	23.91	-1.15	0.050			
0.3831	24516.47	3.7660	3.7659	1.0177	23.98	-1.08	0.050			
0.3841	24581.57	3.7650	3.7648	1.0293	24.07	-0.99	0.050			
0.3851	24647.51	3.7640	3.7642	1.0386	24.17	-0.89	0.050			
0.3861	24711.57	3.7630	3.7628	1.0444	24.30	-0.76	0.050			
0.3872	24778.65	3.7620	3.7619	1.0553	24.44	-0.62	0.050			
0.3882	24846.12	3.7610	3.7610	1.0696	24.62	-0.44	0.050			
0.3893	24915.60	3.7600	3.7599	1.0806	24.81	-0.25	0.050			
0.3904	24986.08	3.7590	3.7590	1.0913	25.03	-0.03	0.050			
0.3915	25056.76	3.7580	3.7582	1.1038	25.26	0.20	0.050			
0.3926	25128.32	3.7570	3.7569	1.1173	25.52	0.46	0.050			
0.3937	25199.71	3.7560	3.7559	1.1293	25.78	0.72	0.050			
0.3949	25274.35	3.7550	3.7550	1.1358	26.05	0.99	0.050			
0.3960	25346.81	3.7540	3.7538	1.1439	26.33	1.27	0.050			
0.3972	25421.04	3.7530	3.7531	1.1540	26.60	1.54	0.050			
0.3984	25494.51	3.7520	3.7520	1.1647	26.84	1.78	0.050			
0.3995	25569.53	3.7510	3.7511	1.1752	27.07	2.01	0.050			
0.4007	25645.23	3.7500	3.7499	1.1853	27.25	2.19	0.050			
0.4019	25720.71	3.7490	3.7489	1.1950	27.37	2.31	0.050			
0.4031	25797.23	3.7480	3.7479	1.2054	27.37	2.31	0.050			
0.4043	25875.61	3.7470	3.7472	1.2147	27.33	2.27	0.050			
0.4055	25953.75	3.7460	3.7461	1.2210	27.29	2.23	0.050			
0.4067	26031.76	3.7450	3.7448	1.2290	27.26	2.20	0.050			
0.4080	26110.39	3.7440	3.7440	1.2400	27.22	2.16	0.050			
0.4092	26191.17	3.7430	3.7428	1.2439	27.19	2.13	0.050			
0.4105	26271.61	3.7420	3.7422	1.2528	27.14	2.08	0.050			
0.4117	26351.99	3.7410	3.7410	1.2611	27.11	2.05	0.050			
0.4130	26432.80	3.7400	3.7400	1.2740	27.07	2.01	0.050			
0.4143	26514.37	3.7390	3.7392	1.2823	27.03	1.97	0.050			
0.4156	26596.63	3.7380	3.7381	1.2883	27.00	1.94	0.050			
0.4169	26679.26	3.7370	3.7370	1.2978	26.97	1.91	0.050			
0.4182	26762.18	3.7360	3.7361	1.3101	26.94	1.88	0.050			
0.4195	26847.40	3.7350	3.7349	1.3204	26.91	1.85	0.050			
0.4208	26930.82	3.7340	3.7341	1.3261	26.89	1.83	0.050			
0.4221	27015.57	3.7330	3.7326	1.3354	26.87	1.81	0.050			
0.4234	27100.43	3.7320	3.7318	1.3447	26.85	1.79	0.050			
0.4248	27187.17	3.7310	3.7309	1.3559	26.85	1.79	0.050			
0.4261	27273.31	3.7300	3.7299	1.3703	26.85	1.79	0.050			
0.4275	27361.24	3.7290	3.7290	1.3834	26.85	1.79	0.050			
0.4289	27451.01	3.7280	3.7280	1.3968	26.79	1.73	0.050			
0.4303	27541.10	3.7270	3.7272	1.4086	26.71	1.65	0.050			
0.4317	27630.81	3.7260	3.7261	1.4212	26.62	1.56	0.050			
0.4332	27723.47	3.7250	3.7250	1.4313	26.52	1.46	0.050			
0.4346	27815.74	3.7240	3.7239	1.4440	26.44	1.38	0.050			
0.4361	27908.18	3.7230	3.7230	1.4599	26.35	1.29	0.050			
0.4375	28001.91	3.7220	3.7222	1.4666	26.24	1.18	0.050			
0.4390	28097.13	3.7210	3.7210	1.4748	26.14	1.08	0.050			
0.4405	28191.64	3.7200	3.7200	1.4841	26.04	0.98	0.050			
0.4420	28287.95	3.7190	3.7188	1.4985	25.94	0.88	0.050			
0.4435	28384.02	3.7180	3.7178	1.5110	25.83	0.77	0.050			
0.4450	28481.31	3.7170	3.7169	1.5179	25.74	0.68	0.050			
0.4465	28578.43	3.7160	3.7161	1.5294	25.64	0.58	0.050			
0.4481	28677.76	3.7150	3.7147	1.5400	25.54	0.48	0.050			
0.4496	28775.53	3.7140	3.7139	1.5515	25.45	0.39	0.050			
0.4512	28874.36	3.7130	3.7132	1.5637	25.35	0.29	0.050			
0.4527	28973.55	3.7120	3.7119	1.5753	25.26	0.20	0.050			
0.4543	29075.45	3.7110	3.7108	1.5868	25.17	0.11	0.050			
0.4559	29175.63	3.7100	3.7101	1.6024	25.09	0.03	0.050			
0.4575	29277.97	3.7090	3.7091	1.6182	25.01	-0.05	0.050			
0.4591	29382.39	3.7080	3.7080	1.6324	24.94	-0.12	0.050			
0.4607	29486.05	3.7070	3.7068	1.6494	24.87	-0.19	0.050			
0.4624	29591.88	3.7060	3.7060	1.6642	24.81	-0.25	0.050			
0.4641	29700.61	3.7050	3.7048	1.6769	24.75	-0.31	0.050			
0.4657	29807.75	3.7040	3.7040	1.6898	24.72	-0.34	0.050			
0.4675	29916.97	3.7030	3.7031	1.7087	24.68	-0.38	0.050			
0.4692	30027.48	3.7020	3.7020	1.7251	24.67	-0.39	0.050			
0.4709	30137.08	3.7010	3.7009	1.7477	24.67	-0.39	0.050			
0.4726	30247.35	3.7000	3.7001	1.7680	24.70	-0.36	0.050			
0.4744	30359.57	3.6990	3.6991	1.7887	24.75	-0.31	0.050			
0.4762	30474.01	3.6980	3.6980	1.8131	24.84	-0.22	0.050			
0.4780	30590.08	3.6970	3.6971	1.8395	24.97	-0.09	0.050			
0.4798	30707.75	3.6960	3.6959	1.8623	25.16	0.10	0.050			
0.4817	30826.75	3.6950	3.6949	1.8898	25.41	0.35	0.050			
0.4835	30946.79	3.6940	3.6940	1.9173	25.74	0.68	0.050			
0.4855	31069.18	3.6930	3.6929	1.9461	26.09	1.03	0.050			
0.4874	31195.47	3.6920	3.6918	1.9729	26.47	1.41	0.050			
0.4894	31322.37	3.6910	3.6909	2.0042	26.84	1.78	0.050			
0.4914	31451.54	3.6900	3.6898	2.0305	27.14	2.08	0.050			
0.4935	31583.57	3.6890	3.6888	2.0619	27.36	2.30	0.050			
0.4956	31717.46	3.6880	3.6880	2.0927	27.35	2.29	0.050			
0.4977	31853.16	3.6870	3.6871	2.1257	27.25	2.19	0.050			
0.4999	31991.58	3.6860	3.6860	2.1544	27.15	2.09	0.050			
0.5020	32130.65	3.6850	3.6847	2.1828	27.04	1.98	0.050			
0.5042	32270.80	3.6840	3.6842	2.2054	26.92	1.86	0.050			
0.5065	32413.61	3.6830	3.6831	2.2296	26.80	1.74	0.050			
0.5087	32555.96	3.6820	3.6819	2.2566	26.67	1.61	0.050			
0.5110	32701.45	3.6810	3.6809	2.2783	26.51	1.45	0.050			
0.5133	32848.61	3.6800	3.6801	2.3053	26.36	1.30	0.050			
0.5156	32998.07	3.6790	3.6789	2.3309	26.20	1.14	0.050			
0.5179	33147.56	3.6780	3.6780	2.3549	26.04	0.98	0.050			
0.5203	33299.06	3.6770	3.6768	2.3798	25.86	0.80	0.050			
0.5227	33451.73	3.6760	3.6760	2.4067	25.69	0.63	0.050			
0.5251	33606.09	3.6750	3.6747	2.4331	25.52	0.46	0.050			
0.5275	33762.96	3.6740	3.6738	2.4569	25.33	0.27	0.050			
0.5300	33921.44	3.6730	3.6731	2.4819	25.14	0.08	0.050			
0.5325	34080.14	3.6720	3.6721	2.5095	24.93	-0.13	0.050			
0.5350	34242.67	3.6710	3.6710	2.5328	24.71	-0.35	0.050			
0.5376	34406.21	3.6700	3.6700	2.5555	24.45	-0.61	0.050			
0.5401	34569.10	3.6690	3.6688	2.5789	24.17	-0.89	0.050			
0.5427	34733.95	3.6680	3.6678	2.6138	23.90	-1.16	0.050			
0.5453	34902.28	3.6670	3.6671	2.6456	23.67	-1.39	0.050			
0.5480	35072.37	3.6660	3.6658	2.6697	23.50	-1.56	0.050			
0.5507	35243.53	3.6650	3.6649	2.7051	23.44	-1.62	0.050			
0.5534	35415.55	3.6640	3.6639	2.7412	23.49	-1.57	0.050			
0.5561	35589.26	3.6630	3.6630	2.7880	23.67	-1.39	0.050			
0.5588	35766.36	3.6620	3.6621	2.8335	23.98	-1.08	0.050			
0.5617	35947.14	3.6610	3.6608	2.8840	24.49	-0.57	0.050			
0.5646	36132.30	3.6600	3.6600	2.9214	25.14	0.08	0.050			
0.5675	36319.89	3.6590	3.6589	2.9746	25.90	0.84	0.050			
0.5705	36513.53	3.6580	3.6580	3.0250	26.68	1.62	0.050			
0.5736	36707.63	3.6570	3.6569	3.0713	27.23	2.17	0.050			
0.5767	36910.05	3.6560	3.6559	3.1044	27.29	2.23	0.050			
0.5799	37111.32	3.6550	3.6551	3.1524	27.20	2.14	0.050			
0.5831	37319.16	3.6540	3.6542	3.1845	27.10	2.04	0.050			
0.5863	37523.63	3.6530	3.6529	3.2151	27.00	1.94	0.050			
0.5896	37732.06	3.6520	3.6521	3.2475	26.92	1.86	0.050			
0.5929	37942.65	3.6510	3.6513	3.2829	26.83	1.77	0.050			
0.5961	38149.45	3.6500	3.6501	3.3126	26.77	1.71	0.050			
0.5994	38361.13	3.6490	3.6491	3.3310	26.72	1.66	0.050			
0.6027	38573.72	3.6480	3.6481	3.3589	26.58	1.52	0.050			
0.6061	38790.94	3.6470	3.6469	3.3810	26.46	1.40	0.050			
0.6096	39012.12	3.6460	3.6460	3.4063	26.37	1.31	0.050			
0.6130	39230.45	3.6450	3.6450	3.4170	26.34	1.28	0.050			
0.6165	39457.02	3.6440	3.6443	3.4182	26.14	1.08	0.050			
0.6200	39682.05	3.6430	3.6430	3.4117	25.92	0.86	0.050			
0.6235	39904.90	3.6420	3.6420	3.3837	25.72	0.66	0.050			
0.6269	40122.48	3.6410	3.6410	3.3400	25.52	0.46	0.050			
0.6304	40344.16	3.6400	3.6401	3.2816	25.36	0.30	0.050			
0.6337	40555.08	3.6390	3.6390	3.2125	25.24	0.18	0.050			
0.6369	40760.96	3.6380	3.6382	3.1267	25.15	0.09	0.050			
0.6400	40957.47	3.6370	3.6371	3.0348	25.11	0.05	0.050			
0.6429	41147.70	3.6360	3.6361	2.9596	25.12	0.06	0.050			
0.6458	41329.90	3.6350	3.6351	2.8862	25.21	0.15	0.050			
0.6485	41502.09	3.6340	3.6341	2.8176	25.37	0.31	0.050			
0.6512	41674.20	3.6330	3.6330	2.7602	25.64	0.58	0.050			
0.6538	41841.62	3.6320	3.6320	2.7157	26.02	0.96	0.050			
0.6563	42006.02	3.6310	3.6311	2.6864	26.44	1.38	0.050			
0.6590	42173.01	3.6300	3.6298	2.6703	26.83	1.77	0.050			
0.6616	42341.43	3.6290	3.6290	2.6516	27.10	2.04	0.050			
0.6642	42509.68	3.6280	3.6280	2.6328	27.12	2.06	0.050			
0.6669	42681.04	3.6270	3.6269	2.5969	27.00	1.94	0.050			
0.6696	42856.85	3.6260	3.6259	2.5596	26.87	1.81	0.050			
0.6724	43035.42	3.6250	3.6249	2.5027	26.74	1.68	0.050			
0.6749	43191.77	3.6240	3.6240	2.4600	26.61	1.55	0.050			
0.6775	43358.51	3.6230	3.6229	2.3976	26.47	1.41	0.050			
0.6800	43519.85	3.6220	3.6220	2.3196	26.32	1.26	0.050			
0.6824	43674.78	3.6210	3.6211	2.2439	26.16	1.10	0.050			
0.6848	43827.28	3.6200	3.6201	2.1512	26.02	0.96	0.050			
0.6870	43965.86	3.6190	3.6192	2.0507	25.90	0.84	0.050			
0.6890	44097.91	3.6180	3.6182	1.9438	25.79	0.73	0.050			
0.6909	44217.86	3.6170	3.6172	1.8378	25.69	0.63	0.050			
0.6926	44327.76	3.6160	3.6158	1.7360	25.60	0.54	0.050			
0.6942	44428.80	3.6150	3.6150	1.6415	25.52	0.46	0.050			
0.6956	44521.19	3.6140	3.6139	1.5531	25.45	0.39	0.050			
0.6970	44610.05	3.6130	3.6126	1.4820	25.39	0.33	0.050			
0.6983	44690.94	3.6120	3.6121	1.4157	25.34	0.28	0.050			
0.6995	44769.46	3.6110	3.6107	1.3508	25.30	0.24	0.050			
0.7006	44841.52	3.6100	3.6097	1.3134	25.24	0.18	0.050			
0.7018	44916.63	3.6090	3.6090	1.2839	25.19	0.13	0.050			
0.7030	44991.24	3.6080	3.6081	1.2642	25.12	0.06	0.050			
0.7041	45065.07	3.6070	3.6069	1.2480	25.06	-0.00	0.050			
0.7053	45141.57	3.6060	3.6060	1.2481	24.99	-0.07	0.050			
0.7065	45215.97	3.6050	3.6051	1.2562	24.94	-0.12	0.050			
0.7077	45294.14	3.6040	3.6038	1.2637	24.87	-0.19	0.050			
0.7089	45372.61	3.6030	3.6032	1.2751	24.81	-0.25	0.050			
0.7102	45452.58	3.6020	3.6020	1.2836	24.75	-0.31	0.050			
0.7115	45535.38	3.6010	3.6008	1.3004	24.68	-0.38	0.050			
0.7128	45621.19	3.6000	3.6003	1.3155	24.63	-0.43	0.050			
0.7142	45706.58	3.5990	3.5989	1.3244	24.59	-0.47	0.050			
0.7155	45793.33	3.5980	3.5980	1.3372	24.55	-0.51	0.050			
0.7169	45883.46	3.5970	3.5968	1.3411	24.52	-0.54	0.050			
0.7183	45971.67	3.5960	3.5959	1.3459	24.50	-0.56	0.050			
0.7197	46060.69	3.5950	3.5947	1.3465	24.50	-0.56	0.050			
0.7211	46150.97	3.5940	3.5941	1.3430	24.50	-0.56	0.050			
0.7225	46239.32	3.5930	3.5930	1.3339	24.52	-0.54	0.050			
0.7239	46329.15	3.5920	3.5919	1.3194	24.56	-0.50	0.050			
0.7252	46415.30	3.5910	3.5912	1.3005	24.61	-0.45	0.050			
0.7266	46500.31	3.5900	3.5897	1.2793	24.69	-0.37	0.050			
0.7279	46584.93	3.5890	3.5892	1.2585	24.79	-0.27	0.050			
0.7292	46665.91	3.5880	3.5879	1.2330	24.90	-0.16	0.050			
0.7304	46744.79	3.5870	3.5873	1.2056	25.04	-0.02	0.050			
0.7315	46819.04	3.5860	3.5859	1.1772	25.21	0.15	0.050			
0.7327	46890.80	3.5850	3.5852	1.1502	25.38	0.32	0.050			
0.7338	46962.77	3.5840	3.5840	1.1333	25.56	0.50	0.050			
0.7349	47033.00	3.5830	3.5829	1.1093	25.75	0.69	0.050			
0.7359	47100.73	3.5820	3.5821	1.0955	25.94	0.88	0.050			
0.7370	47166.27	3.5810	3.5810	1.0850	26.12	1.06	0.050			
0.7380	47233.99	3.5800	3.5801	1.0705	26.31	1.25	0.050			
0.7390	47298.50	3.5790	3.5788	1.0588	26.48	1.42	0.050			
0.7401	47364.48	3.5780	3.5780	1.0589	26.65	1.59	0.050			
0.7411	47428.79	3.5770	3.5770	1.0534	26.80	1.74	0.050			
0.7421	47495.22	3.5760	3.5759	1.0568	26.93	1.87	0.050			
0.7431	47561.50	3.5750	3.5750	1.0570	27.03	1.97	0.050			
0.7442	47629.04	3.5740	3.5742	1.0628	27.07	2.01	0.050			
0.7453	47696.56	3.5730	3.5727	1.0704	27.06	2.00	0.050			
0.7463	47765.75	3.5720	3.5721	1.0760	27.02	1.96	0.050			
0.7474	47834.39	3.5710	3.5712	1.0812	26.98	1.92	0.050			
0.7485	47904.98	3.5700	3.5696	1.0879	26.94	1.88	0.050			
0.7496	47977.53	3.5690	3.5688	1.0889	26.88	1.82	0.050			
0.7507	48047.47	3.5680	3.5680	1.0911	26.83	1.77	0.050			
0.7518	48116.94	3.5670	3.5670	1.0957	26.79	1.73	0.050			
0.7529	48187.77	3.5660	3.5662	1.0971	26.74	1.68	0.050			
0.7540	48258.72	3.5650	3.5650	1.0994	26.69	1.63	0.050			
0.7551	48329.18	3.5640	3.5639	1.1000	26.63	1.57	0.050			
0.7563	48400.36	3.5630	3.5632	1.1006	26.58	1.52	0.050			
0.7574	48470.54	3.5620	3.5620	1.0982	26.53	1.47	0.050			
0.7585	48541.26	3.5610	3.5611	1.0979	26.47	1.41	0.050			
0.7596	48613.02	3.5600	3.5599	1.0978	26.41	1.35	0.050			
0.7607	48683.90	3.5590	3.5586	1.0930	26.36	1.30	0.050			
0.7618	48753.32	3.5580	3.5581	1.0875	26.31	1.25	0.050			
0.7629	48823.35	3.5570	3.5572	1.0838	26.27	1.21	0.050			
0.7640	48892.89	3.5560	3.5560	1.0789	26.21	1.15	0.050			
0.7650	48961.54	3.5550	3.5550	1.0782	26.16	1.10	0.050			
0.7661	49029.78	3.5540	3.5541	1.0739	26.11	1.05	0.050			
0.7672	49098.36	3.5530	3.5530	1.0707	26.07	1.01	0.050			
0.7682	49166.88	3.5520	3.5523	1.0722	26.03	0.97	0.050			
0.7693	49235.11	3.5510	3.5510	1.0704	26.00	0.94	0.050			
0.7704	49303.31	3.5500	3.5503	1.0720	25.95	0.89	0.050			
0.7714	49371.32	3.5490	3.5490	1.0727	25.90	0.84	0.050			
0.7725	49437.51	3.5480	3.5480	1.0695	25.83	0.77	0.050			
0.7735	49504.49	3.5470	3.5467	1.0711	25.77	0.71	0.050			
0.7746	49572.56	3.5460	3.5461	1.0770	25.69	0.63	0.050			
0.7756	49641.22	3.5450	3.5451	1.0812	25.62	0.56	0.050			
0.7767	49709.67	3.5440	3.5440	1.0860	25.56	0.50	0.050			
0.7778	49779.65	3.5430	3.5431	1.0899	25.48	0.42	0.050			
0.7789	49848.78	3.5420	3.5421	1.0977	25.42	0.36	0.050			
0.7800	49919.74	3.5410	3.5409	1.1060	25.36	0.30	0.050			
0.7811	49990.03	3.5400	3.5401	1.1154	25.29	0.23	0.050			
0.7822	50061.58	3.5390	3.5389	1.1254	25.23	0.17	0.050			
0.7833	50133.43	3.5380	3.5381	1.1363	25.16	0.10	0.050			
0.7845	50205.81	3.5370	3.5372	1.1455	25.10	0.04	0.050			
0.7856	50277.31	3.5360	3.5362	1.1608	25.04	-0.02	0.050			
0.7867	50350.05	3.5350	3.5349	1.1745	24.98	-0.08	0.050			
0.7879	50424.62	3.5340	3.5340	1.1946	24.93	-0.13	0.050			
0.7891	50500.01	3.5330	3.5327	1.2135	24.88	-0.18	0.050			
0.7903	50577.33	3.5320	3.5320	1.2301	24.84	-0.22	0.050			
0.7915	50654.92	3.5310	3.5310	1.2540	24.79	-0.27	0.050			
0.7927	50733.80	3.5300	3.5301	1.2774	24.75	-0.31	0.050			
0.7940	50815.34	3.5290	3.5291	1.3058	24.72	-0.34	0.050			
0.7953	50897.89	3.5280	3.5281	1.3361	24.69	-0.37	0.050			
0.7966	50983.58	3.5270	3.5269	1.3654	24.68	-0.38	0.050			
0.7980	51071.90	3.5260	3.5260	1.3952	24.68	-0.38	0.050			
0.7994	51161.81	3.5250	3.5250	1.4293	24.67	-0.39	0.050			
0.8008	51253.98	3.5240	3.5243	1.4628	24.69	-0.37	0.050			
0.8023	51347.75	3.5230	3.5231	1.5000	24.73	-0.33	0.050			
0.8038	51443.70	3.5220	3.5219	1.5356	24.79	-0.27	0.050			
0.8053	51541.32	3.5210	3.5211	1.5791	24.88	-0.18	0.050			
0.8069	51641.11	3.5200	3.5201	1.6230	25.00	-0.06	0.050			
0.8085	51743.26	3.5190	3.5192	1.6731	25.17	0.11	0.050			
0.8101	51846.95	3.5180	3.5179	1.7304	25.39	0.33	0.050			
0.8118	51956.86	3.5170	3.5168	1.7852	25.65	0.59	0.050			
0.8136	52071.79	3.5160	3.5160	1.8348	25.94	0.88	0.050			
0.8154	52188.64	3.5150	3.5152	1.8967	26.23	1.17	0.050			
0.8174	52312.98	3.5140	3.5140	1.9528	26.52	1.46	0.050			
0.8193	52438.22	3.5130	3.5130	2.0165	26.76	1.70	0.050			
0.8214	52569.75	3.5120	3.5119	2.0808	26.89	1.83	0.050			
0.8235	52706.24	3.5110	3.5109	2.1382	26.86	1.80	0.050			
0.8258	52848.76	3.5100	3.5099	2.1925	26.77	1.71	0.050			
0.8280	52994.44	3.5090	3.5091	2.2439	26.69	1.63	0.050			
0.8304	53144.37	3.5080	3.5082	2.2950	26.62	1.56	0.050			
0.8328	53298.01	3.5070	3.5065	2.3397	26.53	1.47	0.050			
0.8353	53456.19	3.5060	3.5060	2.3646	26.46	1.40	0.050			
0.8378	53616.14	3.5050	3.5051	2.3793	26.41	1.35	0.050			
0.8403	53779.52	3.5040	3.5040	2.3824	26.37	1.31	0.050			
0.8428	53940.71	3.5030	3.5030	2.3751	26.19	1.13	0.050			
0.8453	54100.79	3.5020	3.5021	2.3385	26.02	0.96	0.050			
0.8478	54258.97	3.5010	3.5009	2.2999	25.86	0.80	0.050			
0.8502	54414.47	3.5000	3.4998	2.2454	25.70	0.64	0.050			
0.8525	54562.91	3.4990	3.4992	2.1792	25.55	0.49	0.050			
0.8549	54710.79	3.4980	3.4979	2.1070	25.41	0.35	0.050			
0.8571	54852.19	3.4970	3.4972	2.0097	25.27	0.21	0.050			
0.8591	54982.20	3.4960	3.4961	1.9028	25.16	0.10	0.050			
0.8611	55107.86	3.4950	3.4953	1.7957	25.05	-0.01	0.050			
0.8628	55221.05	3.4940	3.4941	1.6766	24.96	-0.10	0.050			
0.8645	55327.76	3.4930	3.4930	1.5616	24.89	-0.17	0.050			
0.8660	55424.84	3.4920	3.4921	1.4473	24.82	-0.24	0.050			
0.8674	55513.47	3.4910	3.4912	1.3377	24.76	-0.30	0.050			
0.8686	55589.35	3.4900	3.4902	1.2281	24.72	-0.34	0.050			
0.8697	55659.29	3.4890	3.4888	1.1083	24.69	-0.37	0.050			
0.8706	55719.57	3.4880	3.4877	1.0163	24.67	-0.39	0.050			
0.8715	55774.33	3.4870	3.4870	0.9355	24.65	-0.41	0.050			
0.8723	55824.88	3.4860	3.4857	0.8419	24.63	-0.43	0.050			
0.8729	55868.13	3.4850	3.4848	0.7768	24.62	-0.44	0.050			
0.8735	55905.87	3.4840	3.4839	0.7170	24.62	-0.44	0.050			
0.8741	55945.19	3.4830	3.4828	0.6551	24.61	-0.45	0.050			
0.8746	55975.76	3.4820	3.4817	0.6083	24.61	-0.45	0.050			
0.8751	56006.99	3.4810	3.4807	0.5714	24.62	-0.44	0.050			
0.8756	56038.86	3.4800	3.4799	0.5333	24.62	-0.44	0.050			
0.8761	56069.34	3.4790	3.4789	0.5106	24.63	-0.43	0.050			
0.8766	56099.63	3.4780	3.4777	0.4844	24.63	-0.43	0.050			
0.8770	56125.34	3.4770	3.4770	0.4626	24.63	-0.43	0.050			
0.8774	56152.03	3.4760	3.4759	0.4453	24.64	-0.42	0.050			
0.8778	56179.49	3.4750	3.4751	0.4301	24.65	-0.41	0.050			
0.8782	56204.80	3.4740	3.4742	0.4172	24.67	-0.39	0.050			
0.8786	56230.32	3.4730	3.4729	0.4041	24.69	-0.37	0.050			
0.8790	56254.59	3.4720	3.4721	0.3949	24.70	-0.36	0.050			
0.8794	56279.04	3.4710	3.4710	0.3845	24.71	-0.35	0.050			
0.8797	56302.39	3.4700	3.4699	0.3740	24.72	-0.34	0.050			
0.8801	56326.08	3.4690	3.4690	0.3665	24.74	-0.32	0.050			
0.8804	56348.68	3.4680	3.4680	0.3597	24.76	-0.30	0.050			
0.8808	56371.33	3.4670	3.4670	0.3525	24.78	-0.28	0.050			
0.8811	56393.39	3.4660	3.4660	0.3468	24.80	-0.26	0.050			
0.8815	56415.02	3.4650	3.4649	0.3397	24.83	-0.23	0.050			
0.8818	56435.81	3.4640	3.4639	0.3331	24.85	-0.21	0.050			
0.8821	56456.96	3.4630	3.4629	0.3279	24.87	-0.19	0.050			
0.8825	56477.86	3.4620	3.4620	0.3228	24.90	-0.16	0.050			
0.8828	56497.60	3.4610	3.4613	0.3191	24.92	-0.14	0.050			
0.8831	56517.88	3.4600	3.4601	0.3148	24.95	-0.11	0.050			
0.8834	56537.66	3.4590	3.4589	0.3103	24.98	-0.08	0.050			
0.8837	56557.39	3.4580	3.4579	0.3063	25.01	-0.05	0.050			
0.8840	56576.25	3.4570	3.4569	0.3021	25.04	-0.02	0.050			
0.8843	56595.26	3.4560	3.4560	0.2982	25.07	0.01	0.050			
0.8846	56614.28	3.4550	3.4551	0.2949	25.11	0.05	0.050			
0.8849	56633.07	3.4540	3.4537	0.2917	25.15	0.09	0.050			
0.8852	56651.63	3.4530	3.4530	0.2884	25.19	0.13	0.050			
0.8855	56669.32	3.4520	3.4520	0.2854	25.22	0.16	0.050			
0.8857	56687.51	3.4510	3.4508	0.2829	25.26	0.20	0.050			
0.8860	56705.39	3.4500	3.4501	0.2796	25.31	0.25	0.050			
0.8863	56723.21	3.4490	3.4493	0.2772	25.35	0.29	0.050			
0.8866	56741.18	3.4480	3.4479	0.2759	25.39	0.33	0.050			
0.8869	56758.75	3.4470	3.4469	0.2732	25.43	0.37	0.050			
0.8871	56775.77	3.4460	3.4460	0.2703	25.47	0.41	0.050			
0.8874	56793.00	3.4450	3.4450	0.2681	25.52	0.46	0.050			
0.8877	56810.10	3.4440	3.4439	0.2659	25.57	0.51	0.050			
0.8879	56826.79	3.4430	3.4430	0.2646	25.61	0.55	0.050			
0.8882	56843.66	3.4420	3.4419	0.2626	25.65	0.59	0.050			
0.8884	56860.11	3.4410	3.4412	0.2607	25.70	0.64	0.050			
0.8887	56876.75	3.4400	3.4401	0.2591	25.74	0.68	0.050			
0.8890	56892.98	3.4390	3.4389	0.2564	25.77	0.71	0.050			
0.8892	56909.35	3.4380	3.4380	0.2551	25.83	0.77	0.050			
0.8895	56925.90	3.4370	3.4369	0.2543	25.88	0.82	0.050			
0.8897	56941.94	3.4360	3.4361	0.2533	25.91	0.85	0.050			
0.8900	56957.92	3.4350	3.4350	0.2515	25.96	0.90	0.050			
0.8902	56973.89	3.4340	3.4338	0.2506	26.01	0.95	0.050			
0.8905	56989.90	3.4330	3.4331	0.2495	26.05	0.99	0.050			
0.8907	57005.86	3.4320	3.4320	0.2485	26.09	1.03	0.050			
0.8910	57021.88	3.4310	3.4311	0.2469	26.15	1.09	0.050			
0.8912	57037.42	3.4300	3.4299	0.2452	26.19	1.13	0.050			
0.8915	57053.12	3.4290	3.4290	0.2440	26.22	1.16	0.050			
0.8917	57068.95	3.4280	3.4279	0.2435	26.26	1.20	0.050			
0.8919	57084.49	3.4270	3.4268	0.2421	26.31	1.25	0.050			
0.8922	57099.92	3.4260	3.4259	0.2408	26.35	1.29	0.050			
0.8924	57115.29	3.4250	3.4251	0.2394	26.39	1.33	0.050			
0.8927	57130.57	3.4240	3.4240	0.2381	26.43	1.37	0.050			
0.8929	57145.82	3.4230	3.4230	0.2368	26.47	1.41	0.050			
0.8931	57160.92	3.4220	3.4221	0.2354	26.50	1.44	0.050			
0.8934	57175.82	3.4210	3.4210	0.2338	26.54	1.48	0.050			
0.8936	57190.73	3.4200	3.4201	0.2326	26.59	1.53	0.050			
0.8938	57205.71	3.4190	3.4190	0.2317	26.62	1.56	0.050			
0.8941	57220.49	3.4180	3.4179	0.2303	26.66	1.60	0.050			
0.8943	57235.08	3.4170	3.4169	0.2294	26.69	1.63	0.050			
0.8945	57249.77	3.4160	3.4162	0.2283	26.72	1.66	0.050			
0.8948	57264.22	3.4150	3.4149	0.2273	26.75	1.69	0.050			
0.8950	57278.45	3.4140	3.4140	0.2254	26.79	1.73	0.050			
0.8952	57292.85	3.4130	3.4130	0.2245	26.82	1.76	0.050			
0.8954	57307.39	3.4120	3.4119	0.2231	26.85	1.79	0.050			
0.8957	57321.61	3.4110	3.4110	0.2219	26.88	1.82	0.050			
0.8959	57335.78	3.4100	3.4100	0.2209	26.90	1.84	0.050			
0.8961	57349.64	3.4090	3.4090	0.2211	26.93	1.87	0.050			
0.8963	57363.76	3.4080	3.4081	0.2203	26.95	1.89	0.050			
0.8965	57377.84	3.4070	3.4069	0.2195	26.97	1.91	0.050			
0.8967	57391.94	3.4060	3.4061	0.2177	26.99	1.93	0.050			
0.8970	57405.84	3.4050	3.4052	0.2168	27.01	1.95	0.050			
0.8972	57419.69	3.4040	3.4038	0.2160	27.03	1.97	0.050			
0.8974	57433.59	3.4030	3.4032	0.2150	27.05	1.99	0.050			
0.8976	57447.32	3.4020	3.4019	0.2140	27.07	2.01	0.050			
0.8978	57460.98	3.4010	3.4009	0.2130	27.08	2.02	0.050			
0.8980	57474.12	3.4000	3.3999	0.2134	27.09	2.03	0.050			
0.8982	57487.77	3.3990	3.3988	0.2129	27.09	2.03	0.050			
0.8985	57501.38	3.3980	3.3980	0.2124	27.10	2.04	0.050			
0.8987	57514.82	3.3970	3.3971	0.2115	27.10	2.04	0.050			
0.8989	57528.35	3.3960	3.3963	0.2111	27.10	2.04	0.050			
0.8991	57541.67	3.3950	3.3951	0.2103	27.10	2.04	0.050			
0.8993	57555.34	3.3940	3.3938	0.2095	27.10	2.04	0.050			
0.8995	57568.73	3.3930	3.3930	0.2090	27.10	2.04	0.050			
0.8997	57582.11	3.3920	3.3920	0.2086	27.09	2.03	0.050			
0.8999	57595.51	3.3910	3.3912	0.2079	27.08	2.02	0.050			
0.9001	57608.80	3.3900	3.3901	0.2074	27.08	2.02	0.050			
0.9003	57622.26	3.3890	3.3893	0.2072	27.07	2.01	0.050			
0.9006	57635.57	3.3880	3.3882	0.2063	27.06	2.00	0.050			
0.9008	57648.75	3.3870	3.3871	0.2055	27.05	1.99	0.050			
0.9010	57661.64	3.3860	3.3860	0.2042	27.04	1.98	0.050			
0.9012	57674.69	3.3850	3.3850	0.2036	27.03	1.97	0.050			
0.9014	57688.03	3.3840	3.3841	0.2019	27.02	1.96	0.050			
0.9016	57701.61	3.3830	3.3830	0.2024	27.01	1.95	0.050			
0.9018	57714.51	3.3820	3.3819	0.2008	27.01	1.95	0.050			
0.9020	57726.88	3.3810	3.3810	0.2008	27.00	1.94	0.050			
0.9022	57739.65	3.3800	3.3799	0.1996	26.99	1.93	0.050			
0.9024	57752.39	3.3790	3.3789	0.1986	26.98	1.92	0.050			
0.9026	57764.74	3.3780	3.3783	0.1987	26.98	1.92	0.050			
0.9028	57776.81	3.3770	3.3770	0.1967	26.97	1.91	0.050			
0.9030	57789.39	3.3760	3.3760	0.1965	26.96	1.90	0.050			
0.9032	57802.46	3.3750	3.3750	0.1950	26.95	1.89	0.050			
0.9034	57815.05	3.3740	3.3740	0.1947	26.94	1.88	0.050			
0.9036	57827.49	3.3730	3.3730	0.1940	26.92	1.86	0.050			
0.9037	57839.88	3.3720	3.3719	0.1933	26.91	1.85	0.050			
0.9039	57852.36	3.3710	3.3707	0.1926	26.90	1.84	0.050			
0.9041	57864.65	3.3700	3.3697	0.1917	26.90	1.84	0.050			
0.9043	57876.89	3.3690	3.3690	0.1908	26.89	1.83	0.050			
0.9045	57889.32	3.3680	3.3681	0.1896	26.88	1.82	0.050			
0.9047	57901.42	3.3670	3.3671	0.1885	26.87	1.81	0.050			
0.9049	57913.45	3.3660	3.3661	0.1874	26.86	1.80	0.050			
0.9051	57925.41	3.3650	3.3653	0.1863	26.86	1.80	0.050			
0.9053	57937.43	3.3640	3.3642	0.1861	26.85	1.79	0.050			
0.9055	57949.30	3.3630	3.3631	0.1849	26.84	1.78	0.050			
0.9056	57961.10	3.3620	3.3619	0.1837	26.83	1.77	0.050			
0.9058	57972.94	3.3610	3.3608	0.1834	26.82	1.76	0.050			
0.9060	57984.64	3.3600	3.3599	0.1821	26.82	1.76	0.050			
0.9062	57996.25	3.3590	3.3590	0.1809	26.81	1.75	0.050			
0.9064	58007.21	3.3580	3.3579	0.1786	26.80	1.74	0.050			
0.9065	58018.38	3.3570	3.3572	0.1785	26.79	1.73	0.050			
0.9067	58029.79	3.3560	3.3561	0.1780	26.78	1.72	0.050			
0.9069	58040.79	3.3550	3.3549	0.1767	26.77	1.71	0.050			
0.9071	58052.10	3.3540	3.3539	0.1765	26.76	1.70	0.050			
0.9072	58063.61	3.3530	3.3530	0.1756	26.76	1.70	0.050			
0.9074	58074.83	3.3520	3.3521	0.1751	26.75	1.69	0.050			
0.9076	58086.33	3.3510	3.3510	0.1752	26.74	1.68	0.050			
0.9078	58097.54	3.3500	3.3500	0.1744	26.73	1.67	0.050			
0.9079	58108.68	3.3490	3.3490	0.1737	26.72	1.66	0.050			
0.9081	58119.64	3.3480	3.3479	0.1727	26.71	1.65	0.050			
0.9083	58130.68	3.3470	3.3469	0.1722	26.71	1.65	0.050			
0.9085	58141.82	3.3460	3.3460	0.1712	26.70	1.64	0.050			
0.9086	58152.75	3.3450	3.3451	0.1704	26.69	1.63	0.050			
0.9088	58163.92	3.3440	3.3441	0.1702	26.68	1.62	0.050			
0.9090	58174.79	3.3430	3.3431	0.1693	26.67	1.61	0.050			
0.9091	58185.56	3.3420	3.3421	0.1685	26.66	1.60	0.050			
0.9093	58196.29	3.3410	3.3410	0.1675	26.66	1.60	0.050			
0.9095	58206.99	3.3400	3.3399	0.1667	26.65	1.59	0.050			
0.9097	58217.63	3.3390	3.3390	0.1658	26.64	1.58	0.050			
0.9098	58227.87	3.3380	3.3382	0.1662	26.63	1.57	0.050			
0.9100	58238.41	3.3370	3.3371	0.1655	26.62	1.56	0.050			
0.9101	58248.99	3.3360	3.3360	0.1650	26.61	1.55	0.050			
0.9103	58259.53	3.3350	3.3349	0.1645	26.60	1.54	0.050			
0.9105	58270.03	3.3340	3.3340	0.1641	26.59	1.53	0.050			
0.9106	58280.15	3.3330	3.3329	0.1629	26.58	1.52	0.050			
0.9108	58290.57	3.3320	3.3319	0.1627	26.57	1.51	0.050			
0.9110	58300.97	3.3310	3.3310	0.1625	26.56	1.50	0.050			
0.9111	58311.75	3.3300	3.3299	0.1616	26.55	1.49	0.050			
0.9113	58322.07	3.3290	3.3290	0.1610	26.54	1.48	0.050			
0.9114	58332.36	3.3280	3.3279	0.1605	26.53	1.47	0.050			
0.9116	58342.61	3.3270	3.3269	0.1599	26.53	1.47	0.050			
0.9118	58352.96	3.3260	3.3262	0.1593	26.52	1.46	0.050			
0.9119	58363.14	3.3250	3.3251	0.1587	26.51	1.45	0.050			
0.9121	58373.27	3.3240	3.3241	0.1580	26.50	1.44	0.050			
0.9122	58383.36	3.3230	3.3232	0.1573	26.49	1.43	0.050			
0.9124	58393.77	3.3220	3.3221	0.1570	26.48	1.42	0.050			
0.9126	58403.78	3.3210	3.3210	0.1560	26.47	1.41	0.050			
0.9127	58413.74	3.3200	3.3200	0.1550	26.46	1.40	0.050			
0.9129	58423.62	3.3190	3.3189	0.1540	26.46	1.40	0.050			
0.9130	58433.36	3.3180	3.3179	0.1537	26.45	1.39	0.050			
0.9132	58443.17	3.3170	3.3168	0.1528	26.44	1.38	0.050			
0.9133	58452.92	3.3160	3.3160	0.1520	26.43	1.37	0.050			
0.9135	58462.62	3.3150	3.3151	0.1511	26.42	1.36	0.050			
0.9136	58471.44	3.3140	3.3141	0.1504	26.41	1.35	0.050			
0.9138	58481.05	3.3130	3.3132	0.1502	26.40	1.34	0.050			
0.9139	58490.66	3.3120	3.3121	0.1499	26.39	1.33	0.050			
0.9141	58500.24	3.3110	3.3109	0.1497	26.38	1.32	0.050			
0.9142	58509.79	3.3100	3.3099	0.1489	26.37	1.31	0.050			
0.9144	58519.31	3.3090	3.3090	0.1487	26.37	1.31	0.050			
0.9145	58528.83	3.3080	3.3080	0.1485	26.36	1.30	0.050			
0.9147	58538.33	3.3070	3.3069	0.1483	26.35	1.29	0.050			
0.9148	58547.80	3.3060	3.3059	0.1481	26.34	1.28	0.050			
0.9150	58557.65	3.3050	3.3049	0.1469	26.33	1.27	0.050			
0.9151	58567.04	3.3040	3.3040	0.1464	26.32	1.26	0.050			
0.9153	58576.39	3.3030	3.3029	0.1459	26.31	1.25	0.050			
0.9154	58585.80	3.3020	3.3020	0.1455	26.30	1.24	0.050			
0.9155	58595.10	3.3010	3.3010	0.1449	26.29	1.23	0.050			
0.9157	58604.41	3.3000	3.2999	0.1441	26.29	1.23	0.050			
0.9158	58613.61	3.2990	3.2992	0.1434	26.28	1.22	0.050			
0.9160	58623.16	3.2980	3.2983	0.1435	26.27	1.21	0.050			
0.9161	58632.31	3.2970	3.2974	0.1425	26.26	1.20	0.050			
0.9163	58641.07	3.2960	3.2961	0.1425	26.25	1.19	0.050			
0.9164	58650.17	3.2950	3.2949	0.1418	26.24	1.18	0.050			
0.9165	58659.15	3.2940	3.2939	0.1410	26.23	1.17	0.050			
0.9167	58668.15	3.2930	3.2931	0.1404	26.23	1.17	0.050			
0.9168	58677.11	3.2920	3.2920	0.1397	26.22	1.16	0.050			
0.9170	58686.16	3.2910	3.2907	0.1387	26.21	1.15	0.050			
0.9171	58694.70	3.2900	3.2898	0.1372	26.20	1.14	0.050			
0.9172	58703.47	3.2890	3.2889	0.1367	26.19	1.13	0.050			
0.9174	58712.20	3.2880	3.2879	0.1363	26.18	1.12	0.050			
0.9175	58720.90	3.2870	3.2870	0.1358	26.18	1.12	0.050			
0.9176	58729.57	3.2860	3.2860	0.1354	26.17	1.11	0.050			
0.9178	58738.27	3.2850	3.2849	0.1350	26.16	1.10	0.050			
0.9179	58746.89	3.2840	3.2840	0.1345	26.15	1.09	0.050			
0.9181	58755.48	3.2830	3.2830	0.1340	26.14	1.08	0.050			
0.9182	58764.13	3.2820	3.2819	0.1331	26.13	1.07	0.050			
0.9183	58772.63	3.2810	3.2812	0.1326	26.12	1.06	0.050			
0.9185	58781.35	3.2800	3.2804	0.1323	26.11	1.05	0.050			
0.9186	58789.80	3.2790	3.2790	0.1316	26.10	1.04	0.050			
0.9187	58797.88	3.2780	3.2779	0.1315	26.10	1.04	0.050			
0.9188	58806.28	3.2770	3.2769	0.1310	26.09	1.03	0.050			
0.9190	58814.53	3.2760	3.2760	0.1302	26.09	1.03	0.050			
0.9191	58822.85	3.2750	3.2750	0.1297	26.08	1.02	0.050			
0.9192	58831.14	3.2740	3.2740	0.1293	26.08	1.02	0.050			
0.9194	58839.40	3.2730	3.2730	0.1289	26.07	1.01	0.050			
0.9195	58847.68	3.2720	3.2719	0.1282	26.07	1.01	0.050			
0.9196	58855.61	3.2710	3.2712	0.1271	26.06	1.00	0.050			
0.9197	58863.74	3.2700	3.2702	0.1268	26.05	0.99	0.050			
0.9199	58871.85	3.2690	3.2689	0.1265	26.04	0.98	0.050			
0.9200	58879.93	3.2680	3.2682	0.1262	26.03	0.97	0.050			
0.9201	58888.17	3.2670	3.2671	0.1264	26.02	0.96	0.050			
0.9203	58896.25	3.2660	3.2662	0.1260	26.01	0.95	0.050			
0.9204	58904.30	3.2650	3.2652	0.1256	26.01	0.95	0.050			
0.9205	58912.32	3.2640	3.2643	0.1251	26.00	0.94	0.050			
0.9206	58920.31	3.2630	3.2631	0.1247	25.99	0.93	0.050			
0.9208	58928.25	3.2620	3.2619	0.1240	25.99	0.93	0.050			
0.9209	58936.17	3.2610	3.2610	0.1236	25.98	0.92	0.050			
0.9210	58944.06	3.2600	3.2600	0.1232	25.98	0.92	0.050			
0.9211	58951.94	3.2590	3.2589	0.1228	25.97	0.91	0.050			
0.9212	58959.94	3.2580	3.2579	0.1227	25.96	0.90	0.050			
0.9214	58967.77	3.2570	3.2568	0.1222	25.96	0.90	0.050			
0.9215	58975.61	3.2560	3.2560	0.1216	25.95	0.89	0.050			
0.9216	58983.37	3.2550	3.2549	0.1210	25.94	0.88	0.050			
0.9217	58991.10	3.2540	3.2537	0.1205	25.93	0.87	0.050			
0.9219	58998.79	3.2530	3.2529	0.1199	25.93	0.87	0.050			
0.9220	59006.33	3.2520	3.2521	0.1192	25.92	0.86	0.050			
0.9221	59013.92	3.2510	3.2512	0.1188	25.91	0.85	0.050			
0.9222	59021.50	3.2500	3.2502	0.1183	25.90	0.84	0.050			
0.9223	59029.06	3.2490	3.2490	0.1179	25.90	0.84	0.050			
0.9224	59036.59	3.2480	3.2480	0.1174	25.89	0.83	0.050			
0.9226	59044.28	3.2470	3.2471	0.1172	25.88	0.82	0.050			
0.9227	59051.52	3.2460	3.2460	0.1170	25.88	0.82	0.050			
0.9228	59058.99	3.2450	3.2448	0.1166	25.87	0.81	0.050			
0.9229	59066.44	3.2440	3.2442	0.1162	25.86	0.80	0.050			
0.9230	59073.86	3.2430	3.2428	0.1158	25.86	0.80	0.050			
0.9231	59081.02	3.2420	3.2419	0.1149	25.85	0.79	0.050			
0.9233	59088.37	3.2410	3.2410	0.1146	25.84	0.78	0.050			
0.9234	59095.80	3.2400	3.2401	0.1142	25.84	0.78	0.050			
0.9235	59103.10	3.2390	3.2391	0.1139	25.83	0.77	0.050			
0.9236	59110.37	3.2380	3.2378	0.1135	25.82	0.76	0.050			
0.9237	59117.63	3.2370	3.2370	0.1132	25.82	0.76	0.050			
0.9238	59124.86	3.2360	3.2362	0.1129	25.81	0.75	0.050			
0.9239	59132.07	3.2350	3.2352	0.1126	25.80	0.74	0.050			
0.9241	59139.27	3.2340	3.2340	0.1123	25.80	0.74	0.050			
0.9242	59146.62	3.2330	3.2330	0.1114	25.79	0.73	0.050			
0.9243	59153.74	3.2320	3.2321	0.1109	25.79	0.73	0.050			
0.9244	59161.05	3.2310	3.2311	0.1109	25.78	0.72	0.050			
0.9245	59168.13	3.2300	3.2300	0.1102	25.78	0.72	0.050			
0.9246	59175.16	3.2290	3.2289	0.1096	25.77	0.71	0.050			
0.9247	59181.95	3.2280	3.2280	0.1095	25.76	0.70	0.050			
0.9248	59188.94	3.2270	3.2271	0.1090	25.76	0.70	0.050			
0.9249	59195.91	3.2260	3.2262	0.1086	25.75	0.69	0.050			
0.9250	59202.84	3.2250	3.2251	0.1081	25.74	0.68	0.050			
0.9252	59209.74	3.2240	3.2240	0.1076	25.74	0.68	0.050			
0.9253	59216.62	3.2230	3.2229	0.1072	25.73	0.67	0.050			
0.9254	59223.46	3.2220	3.2220	0.1067	25.73	0.67	0.050			
0.9255	59230.28	3.2210	3.2210	0.1062	25.72	0.66	0.050			
0.9256	59236.95	3.2200	3.2199	0.1055	25.71	0.65	0.050			
0.9257	59243.68	3.2190	3.2187	0.1051	25.71	0.65	0.050			
0.9258	59250.39	3.2180	3.2178	0.1047	25.70	0.64	0.050			
0.9259	59257.08	3.2170	3.2170	0.1043	25.69	0.63	0.050			
0.9260	59263.57	3.2160	3.2161	0.1044	25.69	0.63	0.050			
0.9261	59270.24	3.2150	3.2150	0.1041	25.68	0.62	0.050			
0.9262	59276.90	3.2140	3.2141	0.1038	25.68	0.62	0.050			
0.9263	59283.37	3.2130	3.2132	0.1033	25.67	0.61	0.050			
0.9264	59289.98	3.2120	3.2122	0.1031	25.67	0.61	0.050			
0.9265	59296.57	3.2110	3.2112	0.1029	25.66	0.60	0.050			
0.9266	59303.16	3.2100	3.2101	0.1028	25.66	0.60	0.050			
0.9267	59309.84	3.2090	3.2091	0.1022	25.65	0.59	0.050			
0.9268	59316.48	3.2080	3.2080	0.1022	25.65	0.59	0.050			
0.9269	59323.01	3.2070	3.2069	0.1018	25.64	0.58	0.050			
0.9270	59329.51	3.2060	3.2056	0.1015	25.64	0.58	0.050			
0.9271	59336.00	3.2050	3.2048	0.1012	25.63	0.57	0.050			
0.9272	59342.46	3.2040	3.2041	0.1008	25.63	0.57	0.050			
0.9273	59348.84	3.2030	3.2029	0.1002	25.62	0.56	0.050			
0.9274	59355.24	3.2020	3.2018	0.1000	25.62	0.56	0.050			
0.9275	59361.63	3.2010	3.2011	0.0997	25.61	0.55	0.050			
0.9276	59368.00	3.2000	3.2002	0.0994	25.61	0.55	0.050			
0.9277	59374.35	3.1990	3.1991	0.0991	25.60	0.54	0.050			
0.9278	59380.68	3.1980	3.1981	0.0988	25.60	0.54	0.050			
0.9279	59387.04	3.1970	3.1972	0.0984	25.59	0.53	0.050			
0.9280	59393.48	3.1960	3.1960	0.0986	25.59	0.53	0.050			
0.9281	59399.78	3.1950	3.1950	0.0982	25.58	0.52	0.050			
0.9282	59406.05	3.1940	3.1940	0.0978	25.57	0.51	0.050			
0.9283	59412.29	3.1930	3.1930	0.0973	25.57	0.51	0.050			
0.9284	59418.51	3.1920	3.1919	0.0969	25.56	0.50	0.050			
0.9285	59424.70	3.1910	3.1909	0.0965	25.56	0.50	0.050			
0.9286	59430.89	3.1900	3.1899	0.0960	25.55	0.49	0.050			
0.9287	59436.92	3.1890	3.1890	0.0953	25.55	0.49	0.050			
0.9288	59443.01	3.1880	3.1880	0.0949	25.54	0.48	0.050			
0.9289	59449.07	3.1870	3.1868	0.0946	25.54	0.48	0.050			
0.9290	59455.11	3.1860	3.1860	0.0942	25.53	0.47	0.050			
0.9291	59461.13	3.1850	3.1852	0.0938	25.53	0.47	0.050			
0.9292	59467.12	3.1840	3.1842	0.0934	25.52	0.46	0.050			
0.9293	59473.29	3.1830	3.1831	0.0932	25.52	0.46	0.050			
0.9294	59479.21	3.1820	3.1820	0.0928	25.51	0.45	0.050			
0.9295	59485.13	3.1810	3.1809	0.0923	25.51	0.45	0.050			
0.9295	59491.02	3.1800	3.1800	0.0918	25.51	0.45	0.050			
0.9296	59496.88	3.1790	3.1790	0.0913	25.50	0.44	0.050			
0.9297	59502.71	3.1780	3.1780	0.0908	25.50	0.44	0.050			
0.9298	59508.54	3.1770	3.1770	0.0904	25.49	0.43	0.050			
0.9299	59514.12	3.1760	3.1761	0.0902	25.49	0.43	0.050			
0.9300	59519.88	3.1750	3.1751	0.0898	25.48	0.42	0.050			
0.9301	59525.61	3.1740	3.1741	0.0894	25.48	0.42	0.050			
0.9302	59531.32	3.1730	3.1730	0.0890	25.48	0.42	0.050			
0.9303	59537.00	3.1720	3.1718	0.0886	25.47	0.41	0.050			
0.9304	59542.66	3.1710	3.1709	0.0882	25.47	0.41	0.050			
0.9304	59548.03	3.1700	3.1701	0.0878	25.46	0.40	0.050			
0.9305	59553.65	3.1690	3.1691	0.0876	25.46	0.40	0.050			
0.9306	59559.24	3.1680	3.1681	0.0874	25.45	0.39	0.050			
0.9307	59564.83	3.1670	3.1670	0.0872	25.45	0.39	0.050			
0.9308	59570.40	3.1660	3.1660	0.0869	25.44	0.38	0.050			
0.9309	59575.96	3.1650	3.1649	0.0867	25.43	0.37	0.050			
0.9310	59581.50	3.1640	3.1639	0.0865	25.43	0.37	0.050			
0.9310	59587.08	3.1630	3.1629	0.0861	25.42	0.36	0.050			
0.9311	59592.58	3.1620	3.1619	0.0858	25.42	0.36	0.050			
0.9312	59598.07	3.1610	3.1610	0.0856	25.42	0.36	0.050			
0.9313	59603.54	3.1600	3.1600	0.0854	25.41	0.35	0.050			
0.9314	59608.99	3.1590	3.1591	0.0851	25.41	0.35	0.050			
0.9315	59614.43	3.1580	3.1581	0.0849	25.40	0.34	0.050			
0.9316	59619.86	3.1570	3.1571	0.0846	25.40	0.34	0.050			
0.9316	59625.53	3.1560	3.1560	0.0843	25.39	0.33	0.050			
0.9317	59630.92	3.1550	3.1550	0.0839	25.39	0.33	0.050			
0.9318	59636.27	3.1540	3.1540	0.0835	25.39	0.33	0.050			
0.9319	59641.60	3.1530	3.1529	0.0830	25.38	0.32	0.050			
0.9320	59646.90	3.1520	3.1520	0.0826	25.38	0.32	0.050			
0.9321	59652.17	3.1510	3.1511	0.0822	25.38	0.32	0.050			
0.9321	59657.15	3.1500	3.1501	0.0822	25.38	0.32	0.050			
0.9322	59662.40	3.1490	3.1491	0.0819	25.37	0.31	0.050			
0.9323	59667.64	3.1480	3.1482	0.0816	25.37	0.31	0.050			
0.9324	59672.85	3.1470	3.1472	0.0814	25.37	0.31	0.050			
0.9325	59678.05	3.1460	3.1461	0.0811	25.37	0.31	0.050			
0.9326	59683.23	3.1450	3.1450	0.0808	25.37	0.31	0.050			
0.9326	59688.40	3.1440	3.1439	0.0806	25.36	0.30	0.050			
0.9327	59693.30	3.1430	3.1428	0.0801	25.36	0.30	0.050			
0.9328	59698.45	3.1420	3.1417	0.0799	25.36	0.30	0.050			
0.9329	59703.56	3.1410	3.1410	0.0798	25.36	0.30	0.050			
0.9329	59708.66	3.1400	3.1400	0.0796	25.35	0.29	0.050			
0.9330	59713.75	3.1390	3.1390	0.0795	25.35	0.29	0.050			
0.9331	59718.84	3.1380	3.1380	0.0794	25.34	0.28	0.050			
0.9332	59723.91	3.1370	3.1370	0.0792	25.34	0.28	0.050			
0.9333	59728.82	3.1360	3.1360	0.0789	25.33	0.27	0.050			
0.9333	59734.32	3.1350	3.1349	0.0783	25.33	0.27	0.050			
0.9334	59739.32	3.1340	3.1340	0.0780	25.32	0.26	0.050			
0.9335	59744.30	3.1330	3.1331	0.0777	25.32	0.26	0.050			
0.9336	59749.25	3.1320	3.1320	0.0773	25.31	0.25	0.050			
0.9337	59754.19	3.1310	3.1310	0.0770	25.31	0.25	0.050			
0.9337	59759.53	3.1300	3.1301	0.0774	25.30	0.24	0.050			
0.9338	59764.46	3.1290	3.1291	0.0768	25.30	0.24	0.050			
0.9339	59769.36	3.1280	3.1281	0.0763	25.29	0.23	0.050			
0.9340	59774.06	3.1270	3.1272	0.0760	25.29	0.23	0.050			
0.9340	59778.91	3.1260	3.1262	0.0756	25.28	0.22	0.050			
0.9341	59783.73	3.1250	3.1252	0.0751	25.28	0.22	0.050			
0.9342	59788.52	3.1240	3.1241	0.0746	25.28	0.22	0.050			
0.9343	59793.29	3.1230	3.1230	0.0742	25.27	0.21	0.050			
0.9343	59797.97	3.1220	3.1218	0.0736	25.27	0.21	0.050			
0.9344	59802.67	3.1210	3.1208	0.0732	25.26	0.20	0.050			
0.9345	59807.34	3.1200	3.1198	0.0728	25.26	0.20	0.050			
0.9346	59811.72	3.1190	3.1190	0.0729	25.26	0.20	0.050			
0.9346	59816.38	3.1180	3.1181	0.0726	25.26	0.20	0.050			
0.9347	59821.01	3.1170	3.1170	0.0723	25.25	0.19	0.050			
0.9348	59825.63	3.1160	3.1160	0.0720	25.25	0.19	0.050			
0.9348	59829.89	3.1150	3.1151	0.0711	25.25	0.19	0.050			
0.9349	59834.44	3.1140	3.1140	0.0710	25.25	0.19	0.050			
0.9350	59838.99	3.1130	3.1130	0.0709	25.25	0.19	0.050			
0.9351	59843.52	3.1120	3.1120	0.0708	25.25	0.19	0.050			
0.9351	59848.07	3.1110	3.1110	0.0707	25.24	0.18	0.050			
0.9352	59852.59	3.1100	3.1100	0.0706	25.24	0.18	0.050			
0.9353	59857.11	3.1090	3.1088	0.0705	25.24	0.18	0.050			
0.9353	59861.61	3.1080	3.1081	0.0704	25.24	0.18	0.050			
0.9354	59866.10	3.1070	3.1071	0.0702	25.24	0.18	0.050			
0.9355	59870.59	3.1060	3.1061	0.0701	25.23	0.17	0.050			
0.9355	59875.08	3.1050	3.1051	0.0700	25.23	0.17	0.050			
0.9356	59879.56	3.1040	3.1041	0.0699	25.23	0.17	0.050			
0.9357	59884.29	3.1030	3.1030	0.0692	25.23	0.17	0.050			
0.9358	59888.71	3.1020	3.1020	0.0690	25.22	0.16	0.050			
0.9358	59893.11	3.1010	3.1010	0.0687	25.22	0.16	0.050			
0.9359	59897.50	3.1000	3.1000	0.0684	25.22	0.16	0.050			
0.9360	59902.10	3.0990	3.0989	0.0686	25.22	0.16	0.050			
0.9360	59906.48	3.0980	3.0979	0.0683	25.21	0.15	0.050			
0.9361	59910.83	3.0970	3.0969	0.0679	25.21	0.15	0.050			
0.9362	59915.17	3.0960	3.0960	0.0675	25.21	0.15	0.050			
0.9362	59919.48	3.0950	3.0951	0.0672	25.20	0.14	0.050			
0.9363	59923.68	3.0940	3.0941	0.0670	25.20	0.14	0.050			
0.9364	59927.95	3.0930	3.0931	0.0667	25.20	0.14	0.050			
0.9364	59932.21	3.0920	3.0922	0.0664	25.19	0.13	0.050			
0.9365	59936.47	3.0910	3.0912	0.0661	25.19	0.13	0.050			
0.9366	59940.69	3.0900	3.0902	0.0658	25.19	0.13	0.050			
0.9366	59944.89	3.0890	3.0891	0.0654	25.19	0.13	0.050			
0.9367	59949.06	3.0880	3.0880	0.0651	25.18	0.12	0.050			
0.9368	59953.22	3.0870	3.0871	0.0648	25.18	0.12	0.050			
0.9368	59957.35	3.0860	3.0862	0.0644	25.18	0.12	0.050			
0.9369	59961.32	3.0850	3.0850	0.0646	25.17	0.11	0.050			
0.9370	59965.45	3.0840	3.0837	0.0643	25.17	0.11	0.050			
0.9370	59969.35	3.0830	3.0829	0.0636	25.17	0.11	0.050			
0.9371	59973.41	3.0820	3.0820	0.0635	25.16	0.10	0.050			
0.9371	59977.47	3.0810	3.0810	0.0633	25.16	0.10	0.050			
0.9372	59981.52	3.0800	3.0800	0.0632	25.15	0.09	0.050			
0.9373	59985.56	3.0790	3.0790	0.0631	25.15	0.09	0.050			
0.9373	59989.59	3.0780	3.0779	0.0629	25.15	0.09	0.050			
0.9374	59993.71	3.0770	3.0769	0.0625	25.14	0.08	0.050			
0.9375	59997.70	3.0760	3.0759	0.0623	25.14	0.08	0.050			
0.9375	60001.69	3.0750	3.0750	0.0621	25.14	0.08	0.050			
0.9376	60005.73	3.0740	3.0740	0.0621	25.13	0.07	0.050			
0.9377	60009.70	3.0730	3.0731	0.0619	25.13	0.07	0.050			
0.9377	60013.66	3.0720	3.0721	0.0617	25.12	0.06	0.050			
0.9378	60017.60	3.0710	3.0710	0.0615	25.12	0.06	0.050			
0.9378	60021.53	3.0700	3.0701	0.0612	25.12	0.06	0.050			
0.9379	60025.44	3.0690	3.0692	0.0610	25.12	0.06	0.050			
0.9380	60029.33	3.0680	3.0682	0.0608	25.11	0.05	0.050			
0.9380	60033.24	3.0670	3.0671	0.0605	25.11	0.05	0.050			
0.9381	60037.10	3.0660	3.0661	0.0602	25.11	0.05	0.050			
0.9381	60041.00	3.0650	3.0650	0.0601	25.11	0.05	0.050			
0.9382	60044.85	3.0640	3.0640	0.0599	25.11	0.05	0.050			
0.9383	60048.67	3.0630	3.0629	0.0596	25.10	0.04	0.050			
0.9383	60052.47	3.0620	3.0620	0.0593	25.10	0.04	0.050			
0.9384	60056.26	3.0610	3.0610	0.0591	25.10	0.04	0.050			
0.9384	60060.04	3.0600	3.0600	0.0588	25.10	0.04	0.050			
0.9385	60063.79	3.0590	3.0589	0.0586	25.09	0.03	0.050			
0.9386	60067.53	3.0580	3.0579	0.0583	25.09	0.03	0.050			
0.9386	60071.81	3.0570	3.0567	0.0576	25.09	0.03	0.050			
0.9387	60075.48	3.0560	3.0560	0.0570	25.09	0.03	0.050			
0.9387	60079.11	3.0550	3.0550	0.0565	25.09	0.03	0.050			
0.9388	60082.71	3.0540	3.0539	0.0559	25.08	0.02	0.050			
0.9388	60086.27	3.0530	3.0529	0.0554	25.08	0.02	0.050			
0.9389	60089.79	3.0520	3.0520	0.0548	25.08	0.02	0.050			
0.9390	60093.29	3.0510	3.0510	0.0543	25.08	0.02	0.050			
0.9390	60096.74	3.0500	3.0500	0.0537	25.08	0.02	0.050			
0.9391	60100.16	3.0490	3.0490	0.0532	25.07	0.01	0.050			
0.9391	60103.55	3.0480	3.0481	0.0526	25.07	0.01	0.050			
0.9392	60107.45	3.0470	3.0470	0.0528	25.07	0.01	0.050			
0.9392	60110.81	3.0460	3.0462	0.0521	25.07	0.01	0.050			
0.9393	60114.12	3.0450	3.0452	0.0513	25.07	0.01	0.050			
0.9393	60117.38	3.0440	3.0442	0.0506	25.06	0.00	0.050			
0.9394	60120.59	3.0430	3.0432	0.0498	25.06	0.00	0.050			
0.9394	60123.76	3.0420	3.0422	0.0491	25.06	0.00	0.050			
0.9395	60126.87	3.0410	3.0413	0.0483	25.06	-0.00	0.050			
0.9395	60129.94	3.0400	3.0404	0.0476	25.06	-0.00	0.050			
0.9396	60132.96	3.0390	3.0395	0.0468	25.06	-0.00	0.050			
0.9396	60135.93	3.0380	3.0385	0.0460	25.05	-0.01	0.050			
0.9397	60138.85	3.0370	3.0376	0.0453	25.05	-0.01	0.050			
0.9397	60141.73	3.0360	3.0367	0.0445	25.05	-0.01	0.050			
0.9398	60144.56	3.0350	3.0359	0.0438	25.05	-0.01	0.050			
0.9398	60147.33	3.0340	3.0349	0.0430	25.05	-0.01	0.050			
0.9398	60150.06	3.0330	3.0339	0.0423	25.05	-0.01	0.050			
