Ah_balance (normalized)	Ah_balance (mAh)	Voltage - fit (V)	Voltage -  interpolate (V)	dQ/dV (1/V)	Temperature (°C)	Temperature - diff (°C)	Current (C)	R_DC 0ms (mOhm)	R_DC 50ms (mOhm)	R_DC 50 ms PEC (mOhm)
0.0001	4.31	4.1880	4.1878	-0.2868	23.89	-0.01	-0.050			
0.0004	23.98	4.1870	4.1870	-0.3373	23.90	-0.00	-0.050			
0.0007	47.05	4.1860	4.1860	-0.3801	23.90	0.00	-0.050			
0.0012	73.82	4.1850	4.1847	-0.4261	23.91	0.01	-0.050			
0.0016	102.94	4.1840	4.1839	-0.4609	23.93	0.03	-0.050			
0.0021	135.58	4.1830	4.1829	-0.4944	23.95	0.05	-0.050			
0.0026	169.41	4.1820	4.1818	-0.5198	23.97	0.07	-0.050			
0.0032	204.51	4.1810	4.1809	-0.5413	24.00	0.10	-0.050			
0.0038	240.47	4.1800	4.1802	-0.5607	24.02	0.12	-0.050			
0.0044	278.65	4.1790	4.1791	-0.5775	24.06	0.16	-0.050			
0.0050	317.42	4.1780	4.1778	-0.5916	24.11	0.21	-0.050			
0.0056	356.38	4.1770	4.1769	-0.6049	24.15	0.25	-0.050			
0.0062	395.77	4.1760	4.1760	-0.6183	24.21	0.31	-0.050			
0.0069	439.92	4.1750	4.1750	-0.6372	24.27	0.37	-0.050			
0.0075	483.04	4.1740	4.1743	-0.6472	24.33	0.43	-0.050			
0.0082	525.59	4.1730	4.1728	-0.6504	24.38	0.48	-0.050			
0.0089	568.55	4.1720	4.1719	-0.6563	24.46	0.56	-0.050			
0.0095	611.05	4.1710	4.1707	-0.6619	24.51	0.61	-0.050			
0.0102	653.43	4.1700	4.1704	-0.6650	24.58	0.68	-0.050			
0.0109	696.47	4.1690	4.1692	-0.6670	24.64	0.74	-0.050			
0.0116	740.07	4.1680	4.1679	-0.6703	24.71	0.81	-0.050			
0.0122	783.34	4.1670	4.1670	-0.6734	24.78	0.88	-0.050			
0.0129	825.74	4.1660	4.1660	-0.6772	24.84	0.94	-0.050			
0.0136	869.02	4.1650	4.1652	-0.6809	24.90	1.00	-0.050			
0.0143	912.60	4.1640	4.1640	-0.6860	24.96	1.06	-0.050			
0.0149	956.42	4.1630	4.1627	-0.6892	25.02	1.12	-0.050			
0.0156	1000.93	4.1620	4.1620	-0.6928	25.09	1.19	-0.050			
0.0163	1044.77	4.1610	4.1612	-0.6957	25.15	1.25	-0.050			
0.0170	1088.47	4.1600	4.1602	-0.6976	25.21	1.31	-0.050			
0.0177	1133.49	4.1590	4.1589	-0.7018	25.26	1.36	-0.050			
0.0184	1180.17	4.1580	4.1580	-0.7044	25.32	1.42	-0.050			
0.0191	1225.11	4.1570	4.1570	-0.7066	25.38	1.48	-0.050			
0.0199	1270.60	4.1560	4.1559	-0.7068	25.43	1.53	-0.050			
0.0206	1315.84	4.1550	4.1549	-0.7103	25.47	1.57	-0.050			
0.0213	1362.01	4.1540	4.1540	-0.7147	25.52	1.62	-0.050			
0.0220	1408.13	4.1530	4.1531	-0.7202	25.57	1.67	-0.050			
0.0227	1454.62	4.1520	4.1520	-0.7224	25.62	1.72	-0.050			
0.0234	1500.73	4.1510	4.1513	-0.7227	25.66	1.76	-0.050			
0.0242	1547.03	4.1500	4.1499	-0.7244	25.71	1.81	-0.050			
0.0249	1593.53	4.1490	4.1490	-0.7286	25.76	1.86	-0.050			
0.0256	1639.73	4.1480	4.1482	-0.7314	25.79	1.89	-0.050			
0.0263	1685.49	4.1470	4.1468	-0.7356	25.84	1.94	-0.050			
0.0271	1732.73	4.1460	4.1459	-0.7365	25.88	1.98	-0.050			
0.0278	1779.77	4.1450	4.1451	-0.7381	25.93	2.03	-0.050			
0.0285	1827.17	4.1440	4.1439	-0.7423	25.97	2.07	-0.050			
0.0293	1875.23	4.1430	4.1431	-0.7430	26.02	2.12	-0.050			
0.0301	1923.27	4.1420	4.1420	-0.7462	26.07	2.17	-0.050			
0.0308	1971.10	4.1410	4.1409	-0.7494	26.11	2.21	-0.050			
0.0315	2019.02	4.1400	4.1400	-0.7524	26.16	2.26	-0.050			
0.0323	2067.74	4.1390	4.1391	-0.7574	26.20	2.30	-0.050			
0.0331	2117.60	4.1380	4.1381	-0.7595	26.24	2.34	-0.050			
0.0339	2166.99	4.1370	4.1371	-0.7576	26.29	2.39	-0.050			
0.0346	2215.88	4.1360	4.1361	-0.7585	26.33	2.43	-0.050			
0.0354	2263.81	4.1350	4.1346	-0.7585	26.38	2.48	-0.050			
0.0361	2311.66	4.1340	4.1341	-0.7613	26.42	2.52	-0.050			
0.0369	2360.73	4.1330	4.1328	-0.7618	26.47	2.57	-0.050			
0.0377	2410.04	4.1320	4.1318	-0.7619	26.51	2.61	-0.050			
0.0384	2458.19	4.1310	4.1312	-0.7661	26.55	2.65	-0.050			
0.0392	2506.79	4.1300	4.1301	-0.7675	26.59	2.69	-0.050			
0.0399	2555.30	4.1290	4.1291	-0.7687	26.64	2.74	-0.050	0.395	0.497	
0.0407	2603.95	4.1280	4.1282	-0.7700	26.68	2.78	-0.050			
0.0415	2653.48	4.1270	4.1268	-0.7726	26.72	2.82	-0.050			
0.0422	2703.77	4.1260	4.1261	-0.7709	26.77	2.87	-0.050			
0.0430	2754.22	4.1250	4.1249	-0.7750	26.81	2.91	-0.050			
0.0438	2803.43	4.1240	4.1241	-0.7763	26.85	2.95	-0.050			
0.0446	2852.50	4.1230	4.1230	-0.7795	26.89	2.99	-0.050			
0.0453	2902.15	4.1220	4.1218	-0.7810	26.93	3.03	-0.050			
0.0461	2951.66	4.1210	4.1211	-0.7827	26.97	3.07	-0.050			
0.0469	3002.25	4.1200	4.1202	-0.7849	27.01	3.11	-0.050			
0.0477	3053.50	4.1190	4.1189	-0.7864	27.05	3.15	-0.050			
0.0485	3104.86	4.1180	4.1181	-0.7886	27.09	3.19	-0.050			
0.0493	3155.88	4.1170	4.1168	-0.7910	27.12	3.22	-0.050			
0.0501	3206.83	4.1160	4.1156	-0.7887	27.16	3.26	-0.050			
0.0509	3256.57	4.1150	4.1149	-0.7867	27.20	3.30	-0.050			
0.0517	3307.08	4.1140	4.1139	-0.7866	27.24	3.34	-0.050			
0.0525	3357.35	4.1130	4.1129	-0.7861	27.28	3.38	-0.050			
0.0533	3408.64	4.1120	4.1123	-0.7864	27.31	3.41	-0.050			
0.0540	3457.84	4.1110	4.1111	-0.7842	27.34	3.44	-0.050			
0.0548	3508.62	4.1100	4.1099	-0.7848	27.37	3.47	-0.050			
0.0556	3559.31	4.1090	4.1089	-0.7835	27.38	3.48	-0.050			
0.0564	3609.31	4.1080	4.1079	-0.7844	27.34	3.44	-0.050			
0.0572	3659.56	4.1070	4.1070	-0.7850	27.26	3.36	-0.050			
0.0580	3710.31	4.1060	4.1057	-0.7838	27.15	3.25	-0.050			
0.0587	3759.62	4.1050	4.1050	-0.7808	27.04	3.14	-0.050			
0.0595	3809.10	4.1040	4.1039	-0.7809	26.91	3.01	-0.050			
0.0603	3858.79	4.1030	4.1030	-0.7783	26.78	2.88	-0.050	0.050	0.446	
0.0611	3908.57	4.1020	4.1019	-0.7778	26.63	2.73	-0.050			
0.0619	3958.48	4.1010	4.1012	-0.7797	26.48	2.58	-0.050			
0.0626	4008.43	4.1000	4.1000	-0.7803	26.34	2.44	-0.050			
0.0634	4058.52	4.0990	4.0989	-0.7819	26.17	2.27	-0.050			
0.0642	4108.51	4.0980	4.0981	-0.7819	26.02	2.12	-0.050			
0.0650	4158.44	4.0970	4.0971	-0.7827	25.87	1.97	-0.050			
0.0658	4208.29	4.0960	4.0959	-0.7830	25.73	1.83	-0.050			
0.0665	4258.01	4.0950	4.0948	-0.7846	25.60	1.70	-0.050			
0.0673	4308.12	4.0940	4.0940	-0.7862	25.47	1.57	-0.050			
0.0681	4358.12	4.0930	4.0928	-0.7891	25.36	1.46	-0.050			
0.0689	4408.36	4.0920	4.0918	-0.7918	25.26	1.36	-0.050			
0.0697	4459.32	4.0910	4.0911	-0.7910	25.17	1.27	-0.050			
0.0705	4510.37	4.0900	4.0898	-0.7944	25.11	1.21	-0.050			
0.0713	4561.06	4.0890	4.0891	-0.7972	25.04	1.14	-0.050			
0.0721	4611.93	4.0880	4.0879	-0.7969	24.98	1.08	-0.050			
0.0729	4663.20	4.0870	4.0869	-0.7993	24.93	1.03	-0.050			
0.0737	4714.75	4.0860	4.0861	-0.8034	24.89	0.99	-0.050			
0.0745	4766.10	4.0850	4.0850	-0.8069	24.85	0.95	-0.050			
0.0753	4817.69	4.0840	4.0838	-0.8077	24.82	0.92	-0.050			
0.0761	4870.04	4.0830	4.0830	-0.8085	24.79	0.89	-0.050			
0.0769	4922.43	4.0820	4.0821	-0.8103	24.78	0.88	-0.050			
0.0777	4974.08	4.0810	4.0809	-0.8100	24.77	0.87	-0.050			
0.0785	5026.18	4.0800	4.0800	-0.8131	24.77	0.87	-0.050			
0.0794	5078.48	4.0790	4.0792	-0.8123	24.76	0.86	-0.050			
0.0802	5130.23	4.0780	4.0778	-0.8139	24.75	0.85	-0.050	0.213	0.610	
0.0810	5182.33	4.0770	4.0768	-0.8151	24.76	0.86	-0.050			
0.0818	5234.62	4.0760	4.0759	-0.8155	24.77	0.87	-0.050			
0.0826	5286.43	4.0750	4.0750	-0.8153	24.78	0.88	-0.050			
0.0834	5339.00	4.0740	4.0740	-0.8177	24.80	0.90	-0.050			
0.0842	5390.73	4.0730	4.0730	-0.8192	24.81	0.91	-0.050			
0.0850	5442.96	4.0720	4.0720	-0.8208	24.82	0.92	-0.050			
0.0859	5496.21	4.0710	4.0709	-0.8236	24.84	0.94	-0.050			
0.0867	5549.38	4.0700	4.0700	-0.8225	24.87	0.97	-0.050			
0.0875	5602.19	4.0690	4.0689	-0.8203	24.90	1.00	-0.050			
0.0883	5654.05	4.0680	4.0680	-0.8235	24.92	1.02	-0.050			
0.0892	5706.32	4.0670	4.0671	-0.8253	24.95	1.05	-0.050			
0.0900	5759.09	4.0660	4.0660	-0.8259	24.98	1.08	-0.050			
0.0908	5811.63	4.0650	4.0649	-0.8287	25.01	1.11	-0.050			
0.0916	5865.55	4.0640	4.0641	-0.8323	25.05	1.15	-0.050			
0.0925	5919.44	4.0630	4.0632	-0.8331	25.08	1.18	-0.050			
0.0933	5972.78	4.0620	4.0620	-0.8350	25.12	1.22	-0.050			
0.0942	6025.65	4.0610	4.0611	-0.8363	25.15	1.25	-0.050			
0.0950	6078.52	4.0600	4.0599	-0.8391	25.19	1.29	-0.050			
0.0958	6131.89	4.0590	4.0588	-0.8429	25.23	1.33	-0.050			
0.0967	6186.40	4.0580	4.0579	-0.8432	25.28	1.38	-0.050			
0.0975	6240.46	4.0570	4.0572	-0.8456	25.31	1.41	-0.050			
0.0984	6294.93	4.0560	4.0558	-0.8479	25.36	1.46	-0.050			
0.0992	6349.89	4.0550	4.0551	-0.8475	25.40	1.50	-0.050			
0.1001	6404.93	4.0540	4.0539	-0.8464	25.45	1.55	-0.050			
0.1009	6458.69	4.0530	4.0528	-0.8486	25.49	1.59	-0.050			
0.1018	6513.92	4.0520	4.0519	-0.8503	25.54	1.64	-0.050			
0.1026	6568.89	4.0510	4.0508	-0.8492	25.58	1.68	-0.050			
0.1035	6624.01	4.0500	4.0501	-0.8492	25.63	1.73	-0.050			
0.1043	6678.05	4.0490	4.0491	-0.8507	25.67	1.77	-0.050			
0.1052	6731.29	4.0480	4.0481	-0.8476	25.72	1.82	-0.050			
0.1060	6785.39	4.0470	4.0471	-0.8472	25.76	1.86	-0.050			
0.1069	6840.14	4.0460	4.0459	-0.8488	25.80	1.90	-0.050			
0.1077	6893.64	4.0450	4.0447	-0.8495	25.84	1.94	-0.050			
0.1086	6947.62	4.0440	4.0438	-0.8511	25.88	1.98	-0.050			
0.1094	7001.92	4.0430	4.0432	-0.8544	25.91	2.01	-0.050			
0.1102	7055.98	4.0420	4.0421	-0.8554	25.93	2.03	-0.050			
0.1111	7110.67	4.0410	4.0408	-0.8523	25.97	2.07	-0.050			
0.1120	7165.23	4.0400	4.0400	-0.8538	26.01	2.11	-0.050			
0.1128	7219.52	4.0390	4.0389	-0.8560	26.04	2.14	-0.050			
0.1137	7275.08	4.0380	4.0379	-0.8615	26.07	2.17	-0.050			
0.1145	7330.59	4.0370	4.0368	-0.8637	26.11	2.21	-0.050			
0.1154	7385.94	4.0360	4.0359	-0.8647	26.15	2.25	-0.050			
0.1163	7441.66	4.0350	4.0351	-0.8674	26.19	2.29	-0.050			
0.1172	7497.76	4.0340	4.0339	-0.8678	26.24	2.34	-0.050			
0.1180	7552.85	4.0330	4.0330	-0.8675	26.28	2.38	-0.050			
0.1189	7609.49	4.0320	4.0321	-0.8700	26.31	2.41	-0.050			
0.1198	7665.67	4.0310	4.0310	-0.8709	26.36	2.46	-0.050	0.378	0.493	
0.1206	7721.29	4.0300	4.0298	-0.8713	26.40	2.50	-0.050			
0.1215	7776.77	4.0290	4.0288	-0.8695	26.45	2.55	-0.050			
0.1224	7832.29	4.0280	4.0281	-0.8693	26.49	2.59	-0.050			
0.1232	7887.87	4.0270	4.0271	-0.8724	26.53	2.63	-0.050			
0.1241	7943.46	4.0260	4.0259	-0.8727	26.57	2.67	-0.050			
0.1250	7999.00	4.0250	4.0250	-0.8715	26.62	2.72	-0.050			
0.1259	8055.16	4.0240	4.0241	-0.8720	26.65	2.75	-0.050			
0.1267	8110.52	4.0230	4.0231	-0.8731	26.70	2.80	-0.050			
0.1276	8166.75	4.0220	4.0220	-0.8755	26.74	2.84	-0.050			
0.1285	8223.59	4.0210	4.0209	-0.8780	26.78	2.88	-0.050			
0.1294	8279.97	4.0200	4.0201	-0.8775	26.81	2.91	-0.050			
0.1302	8335.04	4.0190	4.0191	-0.8758	26.85	2.95	-0.050			
0.1311	8390.64	4.0180	4.0180	-0.8784	26.89	2.99	-0.050			
0.1320	8447.33	4.0170	4.0171	-0.8798	26.92	3.02	-0.050			
0.1329	8504.40	4.0160	4.0159	-0.8801	26.97	3.07	-0.050			
0.1338	8560.50	4.0150	4.0149	-0.8781	26.99	3.09	-0.050			
0.1346	8617.55	4.0140	4.0141	-0.8813	27.03	3.13	-0.050			
0.1355	8673.91	4.0130	4.0130	-0.8815	27.07	3.17	-0.050			
0.1364	8729.92	4.0120	4.0118	-0.8826	27.11	3.21	-0.050			
0.1373	8785.24	4.0110	4.0110	-0.8869	27.14	3.24	-0.050			
0.1382	8841.77	4.0100	4.0098	-0.8894	27.18	3.28	-0.050			
0.1390	8898.31	4.0090	4.0090	-0.8914	27.22	3.32	-0.050			
0.1399	8956.03	4.0080	4.0085	-0.8924	27.26	3.36	-0.050			
0.1408	9013.35	4.0070	4.0073	-0.8893	27.29	3.39	-0.050			
0.1417	9071.35	4.0060	4.0056	-0.8915	27.33	3.43	-0.050			
0.1426	9128.82	4.0050	4.0047	-0.8910	27.36	3.46	-0.050			
0.1435	9186.66	4.0040	4.0040	-0.8890	27.40	3.50	-0.050			
0.1444	9244.14	4.0030	4.0028	-0.8889	27.43	3.53	-0.050			
0.1453	9301.05	4.0020	4.0018	-0.8874	27.46	3.56	-0.050			
0.1462	9358.12	4.0010	4.0012	-0.8864	27.49	3.59	-0.050			
0.1471	9415.46	4.0000	4.0002	-0.8826	27.46	3.56	-0.050			
0.1480	9472.18	3.9990	3.9990	-0.8787	27.38	3.48	-0.050			
0.1489	9527.57	3.9980	3.9981	-0.8785	27.25	3.35	-0.050			
0.1498	9584.16	3.9970	3.9968	-0.8789	27.10	3.20	-0.050			
0.1506	9640.91	3.9960	3.9962	-0.8798	26.92	3.02	-0.050			
0.1515	9696.69	3.9950	3.9950	-0.8757	26.73	2.83	-0.050			
0.1524	9750.97	3.9940	3.9937	-0.8729	26.54	2.64	-0.050			
0.1532	9806.76	3.9930	3.9931	-0.8703	26.33	2.43	-0.050			
0.1541	9861.68	3.9920	3.9921	-0.8660	26.13	2.23	-0.050			
0.1549	9916.12	3.9910	3.9910	-0.8628	25.91	2.01	-0.050			
0.1558	9971.90	3.9900	3.9898	-0.8640	25.71	1.81	-0.050			
0.1567	10027.08	3.9890	3.9889	-0.8666	25.52	1.62	-0.050			
0.1575	10083.00	3.9880	3.9880	-0.8673	25.33	1.43	-0.050			
0.1584	10138.53	3.9870	3.9870	-0.8693	25.16	1.26	-0.050			
0.1593	10193.03	3.9860	3.9861	-0.8717	24.99	1.09	-0.050			
0.1601	10249.42	3.9850	3.9852	-0.8755	24.83	0.93	-0.050			
0.1610	10305.69	3.9840	3.9841	-0.8754	24.69	0.79	-0.050			
0.1619	10360.95	3.9830	3.9832	-0.8764	24.56	0.66	-0.050			
0.1628	10416.99	3.9820	3.9820	-0.8791	24.45	0.55	-0.050			
0.1636	10473.27	3.9810	3.9809	-0.8815	24.35	0.45	-0.050			
0.1645	10529.72	3.9800	3.9798	-0.8842	24.26	0.36	-0.050			
0.1654	10586.81	3.9790	3.9790	-0.8863	24.18	0.28	-0.050			
0.1663	10642.35	3.9780	3.9781	-0.8866	24.11	0.21	-0.050			
0.1672	10698.95	3.9770	3.9772	-0.8927	24.06	0.16	-0.050			
0.1681	10756.69	3.9760	3.9762	-0.8966	24.03	0.13	-0.050			
0.1690	10814.32	3.9750	3.9750	-0.9010	24.01	0.11	-0.050			
0.1699	10872.45	3.9740	3.9740	-0.9039	24.01	0.11	-0.050			
0.1708	10930.76	3.9730	3.9730	-0.9086	24.01	0.11	-0.050			
0.1717	10989.53	3.9720	3.9719	-0.9125	24.03	0.13	-0.050			
0.1726	11047.47	3.9710	3.9708	-0.9149	24.06	0.16	-0.050			
0.1735	11106.48	3.9700	3.9702	-0.9172	24.11	0.21	-0.050			
0.1745	11165.11	3.9690	3.9689	-0.9179	24.17	0.27	-0.050			
0.1754	11223.97	3.9680	3.9680	-0.9209	24.23	0.33	-0.050			
0.1763	11282.81	3.9670	3.9669	-0.9249	24.28	0.38	-0.050			
0.1772	11341.21	3.9660	3.9662	-0.9285	24.37	0.47	-0.050			
0.1781	11400.56	3.9650	3.9649	-0.9330	24.45	0.55	-0.050			
0.1791	11461.92	3.9640	3.9640	-0.9355	24.53	0.63	-0.050			
0.1800	11522.50	3.9630	3.9629	-0.9365	24.61	0.71	-0.050			
0.1810	11582.86	3.9620	3.9622	-0.9359	24.70	0.80	-0.050			
0.1819	11642.78	3.9610	3.9609	-0.9367	24.78	0.88	-0.050			
0.1829	11702.41	3.9600	3.9601	-0.9399	24.86	0.96	-0.050			
0.1838	11762.91	3.9590	3.9590	-0.9435	24.94	1.04	-0.050			
0.1847	11822.03	3.9580	3.9581	-0.9443	25.02	1.12	-0.050			
0.1857	11882.90	3.9570	3.9571	-0.9477	25.10	1.20	-0.050			
0.1866	11944.17	3.9560	3.9559	-0.9488	25.18	1.28	-0.050			
0.1876	12005.39	3.9550	3.9551	-0.9509	25.25	1.35	-0.050			
0.1885	12066.60	3.9540	3.9537	-0.9500	25.31	1.41	-0.050			
0.1895	12127.77	3.9530	3.9530	-0.9502	25.39	1.49	-0.050			
0.1904	12188.34	3.9520	3.9519	-0.9510	25.45	1.55	-0.050			
0.1914	12249.45	3.9510	3.9508	-0.9516	25.51	1.61	-0.050			
0.1924	12310.40	3.9500	3.9501	-0.9526	25.57	1.67	-0.050			
0.1933	12371.17	3.9490	3.9491	-0.9542	25.62	1.72	-0.050			
0.1942	12431.89	3.9480	3.9481	-0.9522	25.68	1.78	-0.050			
0.1952	12492.88	3.9470	3.9471	-0.9526	25.74	1.84	-0.050			
0.1962	12553.88	3.9460	3.9460	-0.9535	25.79	1.89	-0.050			
0.1971	12614.23	3.9450	3.9450	-0.9577	25.84	1.94	-0.050			
0.1981	12675.91	3.9440	3.9437	-0.9615	25.90	2.00	-0.050			
0.1990	12737.69	3.9430	3.9429	-0.9632	25.95	2.05	-0.050			
0.2000	12799.05	3.9420	3.9421	-0.9633	26.01	2.11	-0.050	0.348	0.521	
0.2010	12860.90	3.9410	3.9408	-0.9628	26.07	2.17	-0.050			
0.2019	12921.64	3.9400	3.9401	-0.9617	26.12	2.22	-0.050			
0.2029	12983.51	3.9390	3.9390	-0.9636	26.18	2.28	-0.050			
0.2038	13045.56	3.9380	3.9379	-0.9651	26.23	2.33	-0.050			
0.2048	13107.87	3.9370	3.9369	-0.9667	26.28	2.38	-0.050			
0.2058	13171.03	3.9360	3.9360	-0.9678	26.34	2.44	-0.050			
0.2068	13233.29	3.9350	3.9349	-0.9698	26.40	2.50	-0.050			
0.2077	13295.28	3.9340	3.9342	-0.9711	26.45	2.55	-0.050			
0.2087	13357.55	3.9330	3.9331	-0.9701	26.50	2.60	-0.050			
0.2097	13419.87	3.9320	3.9317	-0.9676	26.56	2.66	-0.050			
0.2106	13481.01	3.9310	3.9310	-0.9702	26.61	2.71	-0.050			
0.2116	13542.85	3.9300	3.9300	-0.9714	26.66	2.76	-0.050			
0.2126	13605.31	3.9290	3.9290	-0.9695	26.72	2.82	-0.050			
0.2135	13667.17	3.9280	3.9282	-0.9718	26.77	2.87	-0.050			
0.2145	13729.63	3.9270	3.9270	-0.9690	26.83	2.93	-0.050			
0.2155	13792.14	3.9260	3.9258	-0.9665	26.88	2.98	-0.050			
0.2164	13852.77	3.9250	3.9252	-0.9658	26.93	3.03	-0.050			
0.2174	13913.86	3.9240	3.9242	-0.9696	26.98	3.08	-0.050			
0.2184	13976.86	3.9230	3.9230	-0.9715	27.03	3.13	-0.050			
0.2194	14039.48	3.9220	3.9218	-0.9736	27.07	3.17	-0.050			
0.2203	14101.95	3.9210	3.9210	-0.9732	27.12	3.22	-0.050	0.344	0.527	
0.2213	14163.75	3.9200	3.9201	-0.9734	27.17	3.27	-0.050			
0.2223	14225.65	3.9190	3.9187	-0.9758	27.21	3.31	-0.050			
0.2233	14288.01	3.9180	3.9180	-0.9775	27.25	3.35	-0.050			
0.2242	14350.80	3.9170	3.9168	-0.9807	27.30	3.40	-0.050			
0.2252	14413.46	3.9160	3.9158	-0.9806	27.35	3.45	-0.050			
0.2262	14476.42	3.9150	3.9150	-0.9796	27.40	3.50	-0.050			
0.2272	14539.02	3.9140	3.9142	-0.9810	27.43	3.53	-0.050			
0.2282	14603.73	3.9130	3.9129	-0.9793	27.48	3.58	-0.050			
0.2292	14666.54	3.9120	3.9119	-0.9782	27.51	3.61	-0.050			
0.2301	14729.47	3.9110	3.9109	-0.9725	27.56	3.66	-0.050			
0.2311	14791.70	3.9100	3.9100	-0.9727	27.60	3.70	-0.050			
0.2321	14855.14	3.9090	3.9092	-0.9717	27.64	3.74	-0.050			
0.2331	14918.98	3.9080	3.9080	-0.9662	27.68	3.78	-0.050			
0.2341	14982.68	3.9070	3.9071	-0.9635	27.65	3.75	-0.050			
0.2351	15043.60	3.9060	3.9061	-0.9594	27.54	3.64	-0.050			
0.2360	15103.66	3.9050	3.9050	-0.9522	27.39	3.49	-0.050			
0.2369	15163.98	3.9040	3.9040	-0.9482	27.21	3.31	-0.050			
0.2379	15225.27	3.9030	3.9030	-0.9432	27.01	3.11	-0.050			
0.2388	15285.88	3.9020	3.9019	-0.9371	26.78	2.88	-0.050			
0.2398	15344.41	3.9010	3.9009	-0.9353	26.56	2.66	-0.050	0.025	0.471	
0.2407	15402.44	3.9000	3.9001	-0.9323	26.34	2.44	-0.050			
0.2416	15461.23	3.8990	3.8992	-0.9274	26.10	2.20	-0.050			
0.2425	15520.58	3.8980	3.8978	-0.9263	25.85	1.95	-0.050			
0.2434	15579.56	3.8970	3.8967	-0.9225	25.63	1.73	-0.050			
0.2443	15638.15	3.8960	3.8960	-0.9238	25.41	1.51	-0.050			
0.2453	15696.65	3.8950	3.8951	-0.9258	25.21	1.31	-0.050			
0.2462	15755.10	3.8940	3.8941	-0.9253	25.02	1.12	-0.050			
0.2471	15814.46	3.8930	3.8929	-0.9280	24.86	0.96	-0.050			
0.2480	15873.70	3.8920	3.8918	-0.9314	24.71	0.81	-0.050			
0.2489	15932.44	3.8910	3.8911	-0.9320	24.59	0.69	-0.050			
0.2499	15991.50	3.8900	3.8902	-0.9341	24.49	0.59	-0.050			
0.2508	16051.83	3.8890	3.8890	-0.9403	24.38	0.48	-0.050			
0.2518	16113.38	3.8880	3.8881	-0.9461	24.29	0.39	-0.050			
0.2527	16175.05	3.8870	3.8867	-0.9447	24.21	0.31	-0.050			
0.2536	16233.16	3.8860	3.8863	-0.9471	24.16	0.26	-0.050			
0.2546	16293.90	3.8850	3.8850	-0.9513	24.11	0.21	-0.050			
0.2556	16355.58	3.8840	3.8839	-0.9562	24.08	0.18	-0.050			
0.2565	16416.95	3.8830	3.8829	-0.9598	24.06	0.16	-0.050			
0.2575	16478.75	3.8820	3.8821	-0.9640	24.05	0.15	-0.050			
0.2584	16539.37	3.8810	3.8810	-0.9649	24.05	0.15	-0.050			
0.2594	16601.79	3.8800	3.8802	-0.9696	24.07	0.17	-0.050			
0.2604	16664.55	3.8790	3.8791	-0.9754	24.10	0.20	-0.050	0.291	0.597	
0.2614	16728.31	3.8780	3.8779	-0.9758	24.14	0.24	-0.050			
0.2624	16791.11	3.8770	3.8766	-0.9765	24.19	0.29	-0.050			
0.2633	16852.15	3.8760	3.8762	-0.9788	24.25	0.35	-0.050			
0.2643	16915.12	3.8750	3.8749	-0.9839	24.32	0.42	-0.050			
0.2653	16977.95	3.8740	3.8740	-0.9850	24.39	0.49	-0.050			
0.2663	17040.90	3.8730	3.8730	-0.9905	24.46	0.56	-0.050			
0.2672	17103.78	3.8720	3.8720	-0.9947	24.54	0.64	-0.050			
0.2682	17167.54	3.8710	3.8711	-0.9983	24.63	0.73	-0.050			
0.2693	17232.37	3.8700	3.8698	-0.9996	24.71	0.81	-0.050			
0.2703	17296.75	3.8690	3.8690	-1.0041	24.79	0.89	-0.050			
0.2713	17361.57	3.8680	3.8676	-1.0064	24.88	0.98	-0.050			
0.2723	17427.25	3.8670	3.8667	-1.0071	24.96	1.06	-0.050			
0.2733	17491.07	3.8660	3.8661	-1.0060	25.04	1.14	-0.050			
0.2743	17556.86	3.8650	3.8650	-1.0059	25.13	1.23	-0.050			
0.2753	17620.81	3.8640	3.8640	-1.0102	25.20	1.30	-0.050			
0.2763	17685.96	3.8630	3.8633	-1.0105	25.29	1.39	-0.050			
0.2774	17750.98	3.8620	3.8622	-1.0106	25.35	1.45	-0.050			
0.2784	17815.95	3.8610	3.8609	-1.0103	25.42	1.52	-0.050			
0.2794	17880.86	3.8600	3.8599	-1.0118	25.48	1.58	-0.050			
0.2804	17945.84	3.8590	3.8591	-1.0090	25.54	1.64	-0.050	0.286	0.475	
0.2814	18011.34	3.8580	3.8578	-1.0098	25.60	1.70	-0.050			
0.2824	18075.86	3.8570	3.8571	-1.0056	25.67	1.77	-0.050			
0.2834	18138.80	3.8560	3.8559	-1.0016	25.73	1.83	-0.050			
0.2844	18202.81	3.8550	3.8548	-1.0018	25.78	1.88	-0.050			
0.2854	18266.83	3.8540	3.8542	-1.0008	25.84	1.94	-0.050			
0.2864	18330.47	3.8530	3.8529	-0.9976	25.90	2.00	-0.050			
0.2874	18394.22	3.8520	3.8519	-0.9978	25.96	2.06	-0.050			
0.2884	18458.60	3.8510	3.8509	-0.9967	26.01	2.11	-0.050			
0.2894	18522.24	3.8500	3.8499	-0.9986	26.08	2.18	-0.050			
0.2904	18585.35	3.8490	3.8489	-0.9984	26.13	2.23	-0.050			
0.2914	18649.68	3.8480	3.8480	-0.9966	26.19	2.29	-0.050			
0.2924	18713.97	3.8470	3.8469	-0.9970	26.24	2.34	-0.050			
0.2934	18778.15	3.8460	3.8459	-0.9986	26.30	2.40	-0.050			
0.2944	18841.23	3.8450	3.8449	-0.9967	26.36	2.46	-0.050			
0.2954	18904.23	3.8440	3.8439	-0.9926	26.42	2.52	-0.050			
0.2964	18967.89	3.8430	3.8428	-0.9944	26.48	2.58	-0.050			
0.2974	19032.52	3.8420	3.8419	-0.9951	26.54	2.64	-0.050			
0.2984	19096.14	3.8410	3.8408	-0.9941	26.59	2.69	-0.050			
0.2994	19160.37	3.8400	3.8402	-0.9924	26.64	2.74	-0.050			
0.3004	19224.48	3.8390	3.8389	-0.9932	26.70	2.80	-0.050	0.297	0.536	
0.3014	19287.92	3.8380	3.8378	-0.9917	26.75	2.85	-0.050			
0.3024	19351.55	3.8370	3.8369	-0.9901	26.80	2.90	-0.050			
0.3034	19414.57	3.8360	3.8361	-0.9891	26.85	2.95	-0.050			
0.3043	19477.99	3.8350	3.8351	-0.9863	26.90	3.00	-0.050			
0.3053	19541.83	3.8340	3.8338	-0.9836	26.94	3.04	-0.050			
0.3063	19605.48	3.8330	3.8331	-0.9796	26.99	3.09	-0.050			
0.3073	19667.58	3.8320	3.8321	-0.9767	27.02	3.12	-0.050			
0.3083	19730.00	3.8310	3.8310	-0.9723	27.08	3.18	-0.050			
0.3093	19792.46	3.8300	3.8299	-0.9661	27.12	3.22	-0.050			
0.3102	19855.59	3.8290	3.8290	-0.9604	27.17	3.27	-0.050			
0.3112	19917.03	3.8280	3.8279	-0.9534	27.21	3.31	-0.050			
0.3122	19978.35	3.8270	3.8269	-0.9488	27.26	3.36	-0.050			
0.3131	20039.22	3.8260	3.8262	-0.9408	27.28	3.38	-0.050			
0.3141	20099.79	3.8250	3.8249	-0.9335	27.33	3.43	-0.050			
0.3150	20159.86	3.8240	3.8239	-0.9256	27.32	3.42	-0.050			
0.3159	20218.99	3.8230	3.8229	-0.9153	27.26	3.36	-0.050			
0.3169	20278.78	3.8220	3.8221	-0.9059	27.15	3.25	-0.050			
0.3178	20336.46	3.8210	3.8210	-0.8954	27.03	3.13	-0.050			
0.3187	20393.97	3.8200	3.8200	-0.8836	26.89	2.99	-0.050			
0.3195	20450.11	3.8190	3.8188	-0.8715	26.73	2.83	-0.050			
0.3204	20504.93	3.8180	3.8180	-0.8608	26.58	2.68	-0.050			
0.3212	20559.67	3.8170	3.8171	-0.8491	26.42	2.52	-0.050			
0.3221	20613.68	3.8160	3.8160	-0.8366	26.25	2.35	-0.050			
0.3229	20667.18	3.8150	3.8151	-0.8283	26.10	2.20	-0.050			
0.3237	20719.72	3.8140	3.8139	-0.8160	25.93	2.03	-0.050			
0.3246	20771.49	3.8130	3.8131	-0.8052	25.78	1.88	-0.050			
0.3253	20821.86	3.8120	3.8117	-0.7914	25.63	1.73	-0.050			
0.3261	20872.73	3.8110	3.8111	-0.7824	25.50	1.60	-0.050			
0.3269	20922.38	3.8100	3.8097	-0.7727	25.38	1.48	-0.050			
0.3277	20971.12	3.8090	3.8090	-0.7629	25.27	1.37	-0.050			
0.3284	21019.01	3.8080	3.8081	-0.7509	25.17	1.27	-0.050			
0.3292	21066.19	3.8070	3.8070	-0.7396	25.09	1.19	-0.050			
0.3299	21113.69	3.8060	3.8059	-0.7324	25.02	1.12	-0.050			
0.3306	21160.13	3.8050	3.8050	-0.7230	24.95	1.05	-0.050			
0.3313	21206.23	3.8040	3.8042	-0.7138	24.90	1.00	-0.050			
0.3321	21251.57	3.8030	3.8029	-0.7044	24.85	0.95	-0.050			
0.3328	21297.14	3.8020	3.8020	-0.6951	24.81	0.91	-0.050			
0.3335	21341.49	3.8010	3.8010	-0.6849	24.78	0.88	-0.050			
0.3341	21384.27	3.8000	3.8002	-0.6750	24.75	0.85	-0.050			
0.3348	21427.19	3.7990	3.7990	-0.6653	24.72	0.82	-0.050			
0.3355	21468.81	3.7980	3.7980	-0.6576	24.70	0.80	-0.050			
0.3361	21510.32	3.7970	3.7969	-0.6487	24.69	0.79	-0.050			
0.3368	21552.48	3.7960	3.7961	-0.6397	24.67	0.77	-0.050			
0.3374	21593.13	3.7950	3.7949	-0.6282	24.66	0.76	-0.050			
0.3380	21633.17	3.7940	3.7940	-0.6190	24.66	0.76	-0.050			
0.3386	21672.92	3.7930	3.7931	-0.6102	24.65	0.75	-0.050			
0.3392	21710.33	3.7920	3.7920	-0.6045	24.65	0.75	-0.050			
0.3398	21748.71	3.7910	3.7910	-0.5964	24.65	0.75	-0.050			
0.3404	21785.72	3.7900	3.7898	-0.5893	24.66	0.76	-0.050	0.170	0.578	
0.3410	21822.43	3.7890	3.7890	-0.5835	24.67	0.77	-0.050			
0.3415	21858.76	3.7880	3.7884	-0.5797	24.67	0.77	-0.050			
0.3421	21895.53	3.7870	3.7872	-0.5748	24.67	0.77	-0.050			
0.3427	21930.92	3.7860	3.7861	-0.5683	24.68	0.78	-0.050			
0.3432	21966.88	3.7850	3.7848	-0.5665	24.69	0.79	-0.050			
0.3438	22003.57	3.7840	3.7838	-0.5640	24.70	0.80	-0.050			
0.3444	22039.07	3.7830	3.7827	-0.5601	24.72	0.82	-0.050			
0.3449	22074.69	3.7820	3.7821	-0.5571	24.74	0.84	-0.050			
0.3455	22109.78	3.7810	3.7811	-0.5566	24.76	0.86	-0.050			
0.3460	22144.37	3.7800	3.7801	-0.5539	24.78	0.88	-0.050			
0.3466	22179.42	3.7790	3.7791	-0.5552	24.80	0.90	-0.050			
0.3471	22213.71	3.7780	3.7782	-0.5553	24.82	0.92	-0.050			
0.3476	22249.18	3.7770	3.7772	-0.5572	24.85	0.95	-0.050			
0.3482	22285.43	3.7760	3.7760	-0.5603	24.88	0.98	-0.050			
0.3488	22321.21	3.7750	3.7750	-0.5641	24.90	1.00	-0.050			
0.3493	22357.52	3.7740	3.7742	-0.5651	24.92	1.02	-0.050			
0.3499	22393.40	3.7730	3.7730	-0.5664	24.95	1.05	-0.050			
0.3504	22428.17	3.7720	3.7717	-0.5653	24.98	1.08	-0.050			
0.3510	22464.00	3.7710	3.7710	-0.5705	25.01	1.11	-0.050			
0.3516	22500.26	3.7700	3.7700	-0.5749	25.03	1.13	-0.050			
0.3521	22536.71	3.7690	3.7691	-0.5800	25.06	1.16	-0.050			
0.3527	22573.52	3.7680	3.7681	-0.5852	25.09	1.19	-0.050			
0.3533	22610.70	3.7670	3.7671	-0.5914	25.11	1.21	-0.050			
0.3539	22649.11	3.7660	3.7660	-0.5982	25.15	1.25	-0.050			
0.3545	22685.47	3.7650	3.7651	-0.6089	25.17	1.27	-0.050			
0.3551	22724.40	3.7640	3.7642	-0.6166	25.20	1.30	-0.050			
0.3557	22764.17	3.7630	3.7630	-0.6260	25.25	1.35	-0.050			
0.3563	22804.63	3.7620	3.7619	-0.6350	25.28	1.38	-0.050			
0.3570	22844.83	3.7610	3.7610	-0.6436	25.31	1.41	-0.050			
0.3576	22885.60	3.7600	3.7600	-0.6525	25.34	1.44	-0.050			
0.3582	22927.31	3.7590	3.7590	-0.6638	25.37	1.47	-0.050			
0.3589	22969.05	3.7580	3.7579	-0.6770	25.40	1.50	-0.050			
0.3596	23012.47	3.7570	3.7571	-0.6901	25.43	1.53	-0.050			
0.3603	23056.91	3.7560	3.7559	-0.7043	25.47	1.57	-0.050	0.375	0.478	
0.3610	23103.04	3.7550	3.7553	-0.7156	25.50	1.60	-0.050			
0.3617	23149.32	3.7540	3.7541	-0.7279	25.53	1.63	-0.050			
0.3624	23195.77	3.7530	3.7532	-0.7460	25.56	1.66	-0.050			
0.3632	23243.63	3.7520	3.7519	-0.7593	25.59	1.69	-0.050			
0.3639	23292.01	3.7510	3.7510	-0.7739	25.63	1.73	-0.050			
0.3647	23342.15	3.7500	3.7497	-0.7874	25.65	1.75	-0.050			
0.3655	23392.12	3.7490	3.7488	-0.8060	25.70	1.80	-0.050			
0.3663	23443.91	3.7480	3.7482	-0.8220	25.73	1.83	-0.050			
0.3671	23497.44	3.7470	3.7471	-0.8367	25.78	1.88	-0.050			
0.3680	23551.93	3.7460	3.7460	-0.8505	25.81	1.91	-0.050			
0.3688	23605.27	3.7450	3.7446	-0.8668	25.85	1.95	-0.050			
0.3697	23662.77	3.7440	3.7439	-0.8841	25.88	1.98	-0.050			
0.3706	23719.96	3.7430	3.7432	-0.8999	25.93	2.03	-0.050			
0.3715	23778.99	3.7420	3.7420	-0.9166	25.98	2.08	-0.050			
0.3725	23838.45	3.7410	3.7410	-0.9304	26.02	2.12	-0.050			
0.3734	23898.23	3.7400	3.7400	-0.9454	26.07	2.17	-0.050			
0.3744	23959.34	3.7390	3.7391	-0.9598	26.11	2.21	-0.050			
0.3753	24021.30	3.7380	3.7379	-0.9734	26.16	2.26	-0.050			
0.3763	24083.54	3.7370	3.7369	-0.9924	26.22	2.32	-0.050			
0.3773	24147.27	3.7360	3.7358	-1.0092	26.26	2.36	-0.050			
0.3783	24212.81	3.7350	3.7352	-1.0252	26.32	2.42	-0.050			
0.3793	24278.32	3.7340	3.7342	-1.0398	26.38	2.48	-0.050			
0.3804	24344.68	3.7330	3.7329	-1.0519	26.42	2.52	-0.050	0.569	0.511	
0.3815	24414.07	3.7320	3.7320	-1.0671	26.47	2.57	-0.050			
0.3825	24482.63	3.7310	3.7310	-1.0811	26.54	2.64	-0.050			
0.3836	24551.66	3.7300	3.7301	-1.0978	26.59	2.69	-0.050			
0.3847	24621.70	3.7290	3.7289	-1.1129	26.65	2.75	-0.050			
0.3858	24693.35	3.7280	3.7280	-1.1311	26.70	2.80	-0.050			
0.3870	24767.10	3.7270	3.7272	-1.1485	26.76	2.86	-0.050			
0.3881	24840.82	3.7260	3.7259	-1.1653	26.81	2.91	-0.050			
0.3893	24915.93	3.7250	3.7249	-1.1778	26.87	2.97	-0.050			
0.3905	24993.95	3.7240	3.7241	-1.1930	26.92	3.02	-0.050			
0.3917	25071.31	3.7230	3.7230	-1.2053	26.98	3.08	-0.050			
0.3929	25148.66	3.7220	3.7218	-1.2207	27.03	3.13	-0.050			
0.3942	25227.31	3.7210	3.7209	-1.2348	27.09	3.19	-0.050			
0.3954	25306.83	3.7200	3.7200	-1.2470	27.16	3.26	-0.050			
0.3967	25387.21	3.7190	3.7191	-1.2613	27.21	3.31	-0.050			
0.3980	25469.04	3.7180	3.7181	-1.2701	27.28	3.38	-0.050			
0.3992	25550.75	3.7170	3.7171	-1.2786	27.34	3.44	-0.050			
0.4005	25634.47	3.7160	3.7160	-1.2902	27.41	3.51	-0.050			
0.4018	25718.22	3.7150	3.7150	-1.2968	27.46	3.56	-0.050			
0.4032	25803.34	3.7140	3.7139	-1.3033	27.52	3.62	-0.050			
0.4045	25889.16	3.7130	3.7128	-1.3073	27.59	3.69	-0.050			
0.4058	25974.04	3.7120	3.7120	-1.3098	27.65	3.75	-0.050			
0.4072	26059.28	3.7110	3.7110	-1.3053	27.71	3.81	-0.050			
0.4085	26143.85	3.7100	3.7100	-1.3011	27.77	3.87	-0.050			
0.4098	26227.94	3.7090	3.7090	-1.3004	27.83	3.93	-0.050			
0.4111	26311.80	3.7080	3.7078	-1.2988	27.88	3.98	-0.050			
0.4124	26396.22	3.7070	3.7072	-1.2955	27.88	3.98	-0.050			
0.4137	26479.63	3.7060	3.7059	-1.2899	27.74	3.84	-0.050			
0.4150	26561.71	3.7050	3.7051	-1.2887	27.53	3.63	-0.050			
0.4163	26642.67	3.7040	3.7040	-1.2854	27.25	3.35	-0.050			
0.4176	26723.66	3.7030	3.7032	-1.2830	26.92	3.02	-0.050			
0.4188	26803.12	3.7020	3.7020	-1.2790	26.57	2.67	-0.050			
0.4200	26883.11	3.7010	3.7011	-1.2823	26.19	2.29	-0.050			
0.4213	26963.24	3.7000	3.6998	-1.2872	25.83	1.93	-0.050			
0.4225	27042.22	3.6990	3.6992	-1.2992	25.46	1.56	-0.050			
0.4238	27123.64	3.6980	3.6981	-1.3125	25.12	1.22	-0.050			
0.4251	27203.26	3.6970	3.6969	-1.3276	24.80	0.90	-0.050			
0.4264	27287.00	3.6960	3.6956	-1.3471	24.52	0.62	-0.050			
0.4277	27373.02	3.6950	3.6953	-1.3665	24.23	0.33	-0.050			
0.4291	27459.47	3.6940	3.6941	-1.3907	23.99	0.09	-0.050			
0.4304	27546.75	3.6930	3.6931	-1.4208	23.80	-0.10	-0.050			
0.4318	27637.04	3.6920	3.6919	-1.4518	23.67	-0.23	-0.050			
0.4333	27729.12	3.6910	3.6908	-1.4890	23.55	-0.35	-0.050			
0.4348	27824.81	3.6900	3.6901	-1.5221	23.48	-0.42	-0.050			
0.4363	27923.42	3.6890	3.6891	-1.5535	23.47	-0.43	-0.050			
0.4379	28022.87	3.6880	3.6880	-1.5934	23.49	-0.41	-0.050			
0.4395	28127.22	3.6870	3.6870	-1.6302	23.58	-0.32	-0.050			
0.4412	28233.64	3.6860	3.6859	-1.6643	23.69	-0.21	-0.050	0.393	0.589	
0.4429	28343.54	3.6850	3.6848	-1.6931	23.82	-0.08	-0.050			
0.4446	28454.89	3.6840	3.6840	-1.7246	24.01	0.11	-0.050			
0.4464	28568.38	3.6830	3.6830	-1.7549	24.20	0.30	-0.050			
0.4482	28683.08	3.6820	3.6820	-1.7823	24.39	0.49	-0.050			
0.4500	28799.00	3.6810	3.6812	-1.8093	24.60	0.70	-0.050			
0.4518	28916.86	3.6800	3.6798	-1.8305	24.79	0.89	-0.050			
0.4537	29034.56	3.6790	3.6788	-1.8591	24.98	1.08	-0.050			
0.4555	29154.48	3.6780	3.6781	-1.8845	25.14	1.24	-0.050			
0.4574	29275.89	3.6770	3.6772	-1.9112	25.29	1.39	-0.050			
0.4594	29399.17	3.6760	3.6762	-1.9375	25.45	1.55	-0.050			
0.4613	29523.84	3.6750	3.6751	-1.9584	25.59	1.69	-0.050			
0.4633	29648.19	3.6740	3.6741	-1.9766	25.75	1.85	-0.050			
0.4652	29773.63	3.6730	3.6731	-2.0023	25.89	1.99	-0.050			
0.4672	29902.13	3.6720	3.6721	-2.0291	26.04	2.14	-0.050			
0.4693	30032.43	3.6710	3.6709	-2.0499	26.20	2.30	-0.050			
0.4713	30166.13	3.6700	3.6697	-2.0759	26.35	2.45	-0.050			
0.4735	30301.36	3.6690	3.6692	-2.0952	26.49	2.59	-0.050			
0.4756	30439.12	3.6680	3.6678	-2.1072	26.64	2.74	-0.050			
0.4778	30578.62	3.6670	3.6671	-2.1253	26.79	2.89	-0.050			
0.4800	30721.75	3.6660	3.6661	-2.1257	26.94	3.04	-0.050	0.203	0.283	
0.4822	30862.17	3.6650	3.6650	-2.1227	27.08	3.18	-0.050			
0.4844	31001.51	3.6640	3.6640	-2.1173	27.21	3.31	-0.050			
0.4866	31139.99	3.6630	3.6629	-2.1069	27.34	3.44	-0.050			
0.4887	31276.03	3.6620	3.6621	-2.0987	27.46	3.56	-0.050			
0.4908	31410.29	3.6610	3.6610	-2.0977	27.57	3.67	-0.050			
0.4929	31543.85	3.6600	3.6601	-2.0879	27.45	3.55	-0.050			
0.4949	31671.63	3.6590	3.6592	-2.0880	27.11	3.21	-0.050			
0.4969	31800.34	3.6580	3.6580	-2.0960	26.68	2.78	-0.050			
0.4989	31928.76	3.6570	3.6570	-2.1003	26.20	2.30	-0.050			
0.5009	32055.22	3.6560	3.6559	-2.1201	25.72	1.82	-0.050	-0.082	0.488	
0.5029	32183.25	3.6550	3.6549	-2.1469	25.27	1.37	-0.050			
0.5049	32312.25	3.6540	3.6540	-2.1847	24.87	0.97	-0.050			
0.5069	32441.83	3.6530	3.6527	-2.2235	24.54	0.64	-0.050			
0.5091	32581.57	3.6520	3.6519	-2.2736	24.28	0.38	-0.050			
0.5113	32724.27	3.6510	3.6513	-2.3313	24.09	0.19	-0.050			
0.5137	32879.17	3.6500	3.6499	-2.4083	23.97	0.07	-0.050			
0.5161	33032.31	3.6490	3.6492	-2.4819	23.95	0.05	-0.050			
0.5186	33188.16	3.6480	3.6481	-2.5602	24.03	0.13	-0.050			
0.5212	33354.45	3.6470	3.6468	-2.6406	24.18	0.28	-0.050	0.292	0.471	
0.5239	33527.49	3.6460	3.6458	-2.7155	24.40	0.50	-0.050			
0.5266	33704.36	3.6450	3.6451	-2.7972	24.63	0.73	-0.050			
0.5295	33889.35	3.6440	3.6440	-2.8570	24.87	0.97	-0.050			
0.5324	34076.52	3.6430	3.6432	-2.9199	25.10	1.20	-0.050			
0.5354	34266.90	3.6420	3.6422	-2.9850	25.31	1.41	-0.050			
0.5385	34463.84	3.6410	3.6412	-3.0349	25.53	1.63	-0.050			
0.5416	34663.72	3.6400	3.6399	-3.0742	25.76	1.86	-0.050			
0.5448	34865.56	3.6390	3.6391	-3.1145	25.97	2.07	-0.050			
0.5479	35068.20	3.6380	3.6379	-3.1538	26.19	2.29	-0.050			
0.5511	35269.45	3.6370	3.6368	-3.1834	26.43	2.53	-0.050			
0.5543	35475.91	3.6360	3.6361	-3.2134	26.63	2.73	-0.050			
0.5576	35684.88	3.6350	3.6351	-3.2392	26.84	2.94	-0.050			
0.5608	35891.82	3.6340	3.6340	-3.2550	27.03	3.13	-0.050	0.479	0.445	
0.5641	36102.68	3.6330	3.6329	-3.2736	27.12	3.22	-0.050			
0.5674	36316.00	3.6320	3.6320	-3.2663	27.22	3.32	-0.050			
0.5708	36530.13	3.6310	3.6309	-3.2553	27.33	3.43	-0.050			
0.5743	36754.72	3.6300	3.6298	-3.2161	27.45	3.55	-0.050			
0.5776	36964.86	3.6290	3.6291	-3.1468	27.57	3.67	-0.050			
0.5808	37170.41	3.6280	3.6279	-3.0900	27.69	3.79	-0.050			
0.5839	37371.07	3.6270	3.6268	-3.0191	27.79	3.89	-0.050			
0.5869	37561.34	3.6260	3.6259	-2.9444	27.90	4.00	-0.050			
0.5897	37740.95	3.6250	3.6249	-2.8545	27.73	3.83	-0.050			
0.5924	37911.93	3.6240	3.6240	-2.7745	27.16	3.26	-0.050			
0.5949	38075.43	3.6230	3.6233	-2.6998	26.43	2.53	-0.050			
0.5975	38240.34	3.6220	3.6219	-2.6479	25.65	1.75	-0.050			
0.6000	38399.39	3.6210	3.6210	-2.6133	24.93	1.03	-0.050	0.358	0.426	
0.6024	38555.15	3.6200	3.6200	-2.5798	24.35	0.45	-0.050			
0.6049	38712.73	3.6190	3.6190	-2.5642	23.89	-0.01	-0.050			
0.6074	38871.10	3.6180	3.6177	-2.5642	23.58	-0.32	-0.050			
0.6099	39033.61	3.6170	3.6170	-2.5636	23.39	-0.51	-0.050			
0.6125	39198.01	3.6160	3.6160	-2.5458	23.36	-0.54	-0.050			
0.6151	39365.93	3.6150	3.6150	-2.5294	23.45	-0.45	-0.050			
0.6178	39537.47	3.6140	3.6141	-2.5071	23.66	-0.24	-0.050			
0.6204	39705.31	3.6130	3.6131	-2.4844	23.93	0.03	-0.050	0.431	0.484	
0.6230	39873.18	3.6120	3.6123	-2.4484	24.23	0.33	-0.050			
0.6257	40043.66	3.6110	3.6109	-2.4191	24.53	0.63	-0.050			
0.6281	40196.92	3.6100	3.6102	-2.3603	24.78	0.88	-0.050			
0.6305	40353.58	3.6090	3.6092	-2.3030	25.02	1.12	-0.050			
0.6328	40501.28	3.6080	3.6081	-2.2400	25.22	1.32	-0.050			
0.6350	40642.41	3.6070	3.6072	-2.1813	25.39	1.49	-0.050			
0.6371	40776.07	3.6060	3.6060	-2.1205	25.56	1.66	-0.050			
0.6391	40904.93	3.6050	3.6050	-2.0685	25.72	1.82	-0.050			
0.6410	41024.63	3.6040	3.6038	-2.0222	25.86	1.96	-0.050			
0.6428	41141.22	3.6030	3.6031	-1.9786	25.99	2.09	-0.050			
0.6447	41257.61	3.6020	3.6020	-1.9515	26.12	2.22	-0.050			
0.6465	41372.83	3.6010	3.6008	-1.9308	26.26	2.36	-0.050			
0.6482	41486.83	3.6000	3.6000	-1.9206	26.40	2.50	-0.050			
0.6500	41602.56	3.5990	3.5989	-1.9172	26.53	2.63	-0.050			
0.6519	41723.12	3.5980	3.5979	-1.9346	26.68	2.78	-0.050			
0.6538	41843.59	3.5970	3.5969	-1.9407	26.82	2.92	-0.050			
0.6558	41968.29	3.5960	3.5960	-1.9596	26.95	3.05	-0.050			
0.6577	42095.61	3.5950	3.5951	-1.9777	27.09	3.19	-0.050			
0.6598	42224.41	3.5940	3.5943	-1.9953	27.21	3.31	-0.050	0.327	0.509	
0.6618	42356.18	3.5930	3.5932	-2.0074	27.34	3.44	-0.050			
0.6639	42489.78	3.5920	3.5922	-2.0189	27.47	3.57	-0.050			
0.6660	42623.37	3.5910	3.5908	-2.0233	27.47	3.57	-0.050			
0.6681	42758.49	3.5900	3.5900	-2.0247	27.21	3.31	-0.050			
0.6702	42891.47	3.5890	3.5889	-2.0199	26.83	2.93	-0.050			
0.6722	43022.35	3.5880	3.5880	-2.0057	26.41	2.51	-0.050			
0.6743	43154.26	3.5870	3.5871	-1.9940	25.96	2.06	-0.050			
0.6763	43283.71	3.5860	3.5862	-1.9718	25.55	1.65	-0.050			
0.6783	43410.81	3.5850	3.5850	-1.9467	25.21	1.31	-0.050			
0.6803	43536.19	3.5840	3.5839	-1.9217	24.92	1.02	-0.050	0.060	0.614	
0.6822	43659.09	3.5830	3.5830	-1.8951	24.71	0.81	-0.050			
0.6841	43779.21	3.5820	3.5822	-1.8716	24.58	0.68	-0.050			
0.6859	43898.73	3.5810	3.5812	-1.8435	24.49	0.59	-0.050			
0.6877	44014.52	3.5800	3.5799	-1.8131	24.43	0.53	-0.050			
0.6895	44128.54	3.5790	3.5790	-1.7858	24.41	0.51	-0.050			
0.6913	44241.15	3.5780	3.5780	-1.7605	24.44	0.54	-0.050			
0.6930	44350.96	3.5770	3.5772	-1.7384	24.48	0.58	-0.050			
0.6947	44458.94	3.5760	3.5760	-1.7215	24.54	0.64	-0.050			
0.6963	44565.74	3.5750	3.5749	-1.7049	24.63	0.73	-0.050			
0.6980	44673.82	3.5740	3.5738	-1.6895	24.73	0.83	-0.050			
0.6997	44778.58	3.5730	3.5730	-1.6826	24.84	0.94	-0.050			
0.7013	44882.94	3.5720	3.5721	-1.6753	24.93	1.03	-0.050	0.298	0.606	
0.7029	44988.29	3.5710	3.5711	-1.6728	25.04	1.14	-0.050			
0.7046	45094.48	3.5700	3.5699	-1.6694	25.14	1.24	-0.050			
0.7062	45198.04	3.5690	3.5689	-1.6679	25.25	1.35	-0.050			
0.7079	45304.29	3.5680	3.5680	-1.6715	25.35	1.45	-0.050			
0.7095	45410.49	3.5670	3.5670	-1.6765	25.45	1.55	-0.050			
0.7112	45518.03	3.5660	3.5660	-1.6817	25.55	1.65	-0.050			
0.7129	45625.49	3.5650	3.5651	-1.6811	25.66	1.76	-0.050			
0.7146	45733.43	3.5640	3.5638	-1.6851	25.76	1.86	-0.050			
0.7163	45841.66	3.5630	3.5633	-1.6897	25.86	1.96	-0.050			
0.7180	45951.81	3.5620	3.5618	-1.6954	25.98	2.08	-0.050			
0.7197	46062.71	3.5610	3.5610	-1.6982	26.10	2.20	-0.050	0.334	0.615	
0.7214	46172.32	3.5600	3.5599	-1.6968	26.21	2.31	-0.050			
0.7232	46282.53	3.5590	3.5592	-1.6954	26.32	2.42	-0.050			
0.7249	46391.88	3.5580	3.5580	-1.6889	26.44	2.54	-0.050			
0.7266	46502.41	3.5570	3.5570	-1.6774	26.56	2.66	-0.050			
0.7283	46611.62	3.5560	3.5560	-1.6667	26.68	2.78	-0.050			
0.7300	46721.86	3.5550	3.5546	-1.6482	26.79	2.89	-0.050			
0.7317	46829.02	3.5540	3.5539	-1.6266	26.90	3.00	-0.050			
0.7333	46933.22	3.5530	3.5531	-1.6006	27.00	3.10	-0.050			
0.7350	47038.52	3.5520	3.5520	-1.5787	27.12	3.22	-0.050			
0.7366	47140.32	3.5510	3.5509	-1.5488	27.21	3.31	-0.050			
0.7381	47240.73	3.5500	3.5501	-1.5176	27.31	3.41	-0.050			
0.7397	47337.75	3.5490	3.5493	-1.4841	27.39	3.49	-0.050			
0.7411	47433.21	3.5480	3.5482	-1.4500	27.48	3.58	-0.050	0.347	0.526	
0.7426	47526.44	3.5470	3.5470	-1.4143	27.56	3.66	-0.050			
0.7440	47616.26	3.5460	3.5459	-1.3753	27.63	3.73	-0.050			
0.7454	47703.44	3.5450	3.5448	-1.3396	27.66	3.76	-0.050			
0.7467	47786.49	3.5440	3.5438	-1.2972	27.58	3.68	-0.050			
0.7479	47868.21	3.5430	3.5431	-1.2586	27.40	3.50	-0.050			
0.7492	47946.13	3.5420	3.5419	-1.2234	27.19	3.29	-0.050			
0.7503	48021.65	3.5410	3.5412	-1.1905	26.95	3.05	-0.050			
0.7515	48093.04	3.5400	3.5400	-1.1544	26.70	2.80	-0.050			
0.7526	48165.74	3.5390	3.5393	-1.1262	26.44	2.54	-0.050			
0.7537	48235.83	3.5380	3.5380	-1.1009	26.19	2.29	-0.050			
0.7548	48304.82	3.5370	3.5368	-1.0761	25.93	2.03	-0.050			
0.7558	48371.17	3.5360	3.5360	-1.0563	25.70	1.80	-0.050			
0.7568	48435.45	3.5350	3.5351	-1.0329	25.49	1.59	-0.050			
0.7578	48497.52	3.5340	3.5338	-1.0166	25.29	1.39	-0.050			
0.7587	48559.70	3.5330	3.5329	-1.0008	25.11	1.21	-0.050			
0.7597	48621.11	3.5320	3.5321	-0.9899	24.94	1.04	-0.050			
0.7607	48682.29	3.5310	3.5308	-0.9801	24.81	0.91	-0.050	0.374	0.561	
0.7616	48742.44	3.5300	3.5301	-0.9768	24.68	0.78	-0.050			
0.7625	48802.09	3.5290	3.5290	-0.9756	24.58	0.68	-0.050			
0.7635	48864.08	3.5280	3.5280	-0.9768	24.49	0.59	-0.050			
0.7645	48925.36	3.5270	3.5268	-0.9773	24.41	0.51	-0.050			
0.7654	48987.55	3.5260	3.5260	-0.9774	24.35	0.45	-0.050			
0.7664	49048.96	3.5250	3.5250	-0.9833	24.31	0.41	-0.050			
0.7674	49112.93	3.5240	3.5242	-0.9861	24.27	0.37	-0.050			
0.7684	49176.26	3.5230	3.5231	-0.9911	24.25	0.35	-0.050			
0.7694	49239.56	3.5220	3.5219	-0.9923	24.24	0.34	-0.050			
0.7704	49305.18	3.5210	3.5209	-0.9930	24.25	0.35	-0.050			
0.7714	49370.81	3.5200	3.5201	-0.9923	24.28	0.38	-0.050			
0.7724	49435.85	3.5190	3.5191	-0.9909	24.31	0.41	-0.050			
0.7734	49500.75	3.5180	3.5178	-0.9888	24.34	0.44	-0.050			
0.7745	49565.17	3.5170	3.5170	-0.9835	24.40	0.50	-0.050			
0.7755	49628.93	3.5160	3.5159	-0.9761	24.46	0.56	-0.050			
0.7764	49692.50	3.5150	3.5151	-0.9678	24.51	0.61	-0.050			
0.7774	49755.07	3.5140	3.5137	-0.9569	24.58	0.68	-0.050			
0.7784	49817.59	3.5130	3.5133	-0.9439	24.65	0.75	-0.050			
0.7794	49878.53	3.5120	3.5121	-0.9318	24.71	0.81	-0.050			
0.7803	49937.52	3.5110	3.5111	-0.9170	24.78	0.88	-0.050	0.427	0.501	
0.7812	49994.64	3.5100	3.5101	-0.9044	24.85	0.95	-0.050			
0.7821	50051.58	3.5090	3.5089	-0.8920	24.92	1.02	-0.050			
0.7829	50107.33	3.5080	3.5080	-0.8809	24.98	1.08	-0.050			
0.7838	50162.75	3.5070	3.5070	-0.8720	25.04	1.14	-0.050			
0.7846	50217.57	3.5060	3.5062	-0.8653	25.11	1.21	-0.050			
0.7855	50268.90	3.5050	3.5051	-0.8586	25.16	1.26	-0.050			
0.7863	50322.46	3.5040	3.5040	-0.8555	25.22	1.32	-0.050			
0.7871	50372.45	3.5030	3.5030	-0.8584	25.27	1.37	-0.050			
0.7879	50425.24	3.5020	3.5019	-0.8672	25.33	1.43	-0.050			
0.7887	50477.42	3.5010	3.5010	-0.8817	25.38	1.48	-0.050			
0.7895	50528.86	3.5000	3.5000	-0.9001	25.44	1.54	-0.050			
0.7903	50580.98	3.4990	3.4993	-0.9185	25.50	1.60	-0.050			
0.7911	50631.96	3.4980	3.4983	-0.9614	25.55	1.65	-0.050			
0.7920	50688.81	3.4970	3.4971	-1.0055	25.61	1.71	-0.050			
0.7928	50737.24	3.4960	3.4962	-1.0724	25.67	1.77	-0.050			
0.7937	50798.00	3.4950	3.4953	-1.1485	25.73	1.83	-0.050			
0.7947	50862.89	3.4940	3.4943	-1.2393	25.79	1.89	-0.050			
0.7959	50936.28	3.4930	3.4934	-1.3374	25.87	1.97	-0.050			
0.7971	51012.78	3.4920	3.4919	-1.4361	25.95	2.05	-0.050			
0.7985	51105.13	3.4910	3.4909	-1.5504	26.04	2.14	-0.050			
0.8001	51205.09	3.4900	3.4898	-1.6587	26.16	2.26	-0.050	0.436	0.542	
0.8018	51316.69	3.4890	3.4888	-1.7820	26.29	2.39	-0.050			
0.8037	51437.77	3.4880	3.4876	-1.9047	26.42	2.52	-0.050			
0.8057	51567.00	3.4870	3.4866	-2.0271	26.56	2.66	-0.050			
0.8080	51710.18	3.4860	3.4862	-2.1328	26.72	2.82	-0.050			
0.8103	51859.52	3.4850	3.4848	-2.2399	26.87	2.97	-0.050			
0.8128	52019.13	3.4840	3.4840	-2.3123	27.03	3.13	-0.050			
0.8153	52180.89	3.4830	3.4827	-2.3860	27.19	3.29	-0.050			
0.8180	52349.42	3.4820	3.4819	-2.4486	27.34	3.44	-0.050			
0.8206	52517.33	3.4810	3.4809	-2.4871	27.44	3.54	-0.050	0.466	0.512	
0.8233	52689.43	3.4800	3.4803	-2.5196	27.19	3.29	-0.050			
0.8260	52861.32	3.4790	3.4789	-2.5352	26.74	2.84	-0.050			
0.8286	53028.90	3.4780	3.4780	-2.5224	26.22	2.32	-0.050			
0.8312	53195.59	3.4770	3.4770	-2.4965	25.72	1.82	-0.050			
0.8337	53359.34	3.4760	3.4761	-2.4718	25.27	1.37	-0.050			
0.8362	53519.48	3.4750	3.4749	-2.4314	24.97	1.07	-0.050			
0.8387	53675.25	3.4740	3.4739	-2.3804	24.78	0.88	-0.050			
0.8410	53825.90	3.4730	3.4729	-2.3272	24.66	0.76	-0.050	0.494	0.600	
0.8434	53974.62	3.4720	3.4721	-2.2766	24.61	0.71	-0.050			
0.8456	54118.86	3.4710	3.4712	-2.2207	24.60	0.70	-0.050			
0.8478	54257.88	3.4700	3.4700	-2.1629	24.62	0.72	-0.050			
0.8499	54395.79	3.4690	3.4691	-2.1020	24.68	0.78	-0.050			
0.8520	54529.85	3.4680	3.4681	-2.0419	24.76	0.86	-0.050			
0.8541	54661.45	3.4670	3.4668	-1.9826	24.85	0.95	-0.050			
0.8561	54790.87	3.4660	3.4661	-1.9160	24.96	1.06	-0.050			
0.8580	54914.41	3.4650	3.4651	-1.8464	25.05	1.15	-0.050			
0.8599	55030.75	3.4640	3.4640	-1.7719	25.16	1.26	-0.050	0.112	0.473	
0.8616	55142.48	3.4630	3.4630	-1.6941	25.25	1.35	-0.050			
0.8633	55250.04	3.4620	3.4619	-1.6174	25.34	1.44	-0.050			
0.8649	55351.77	3.4610	3.4612	-1.5400	25.43	1.53	-0.050			
0.8664	55448.11	3.4600	3.4603	-1.4608	25.52	1.62	-0.050			
0.8678	55540.40	3.4590	3.4592	-1.3878	25.59	1.69	-0.050			
0.8692	55627.64	3.4580	3.4579	-1.3135	25.68	1.78	-0.050			
0.8705	55708.99	3.4570	3.4571	-1.2398	25.75	1.85	-0.050			
0.8716	55782.54	3.4560	3.4558	-1.1640	25.82	1.92	-0.050			
0.8727	55853.32	3.4550	3.4549	-1.0958	25.89	1.99	-0.050			
0.8737	55917.21	3.4540	3.4540	-1.0274	25.95	2.05	-0.050			
0.8747	55977.86	3.4530	3.4527	-0.9558	26.01	2.11	-0.050			
0.8755	56032.46	3.4520	3.4522	-0.8956	26.06	2.16	-0.050			
0.8763	56083.80	3.4510	3.4508	-0.8411	26.12	2.22	-0.050			
0.8771	56132.85	3.4500	3.4497	-0.7925	26.17	2.27	-0.050			
0.8778	56181.45	3.4490	3.4489	-0.7444	26.22	2.32	-0.050			
0.8785	56223.89	3.4480	3.4479	-0.7013	26.26	2.36	-0.050			
0.8791	56264.18	3.4470	3.4471	-0.6633	26.31	2.41	-0.050			
0.8798	56304.52	3.4460	3.4461	-0.6246	26.35	2.45	-0.050			
0.8803	56339.43	3.4450	3.4449	-0.5909	26.39	2.49	-0.050			
0.8808	56373.85	3.4440	3.4439	-0.5644	26.42	2.52	-0.050	0.224	0.684	
0.8814	56408.06	3.4430	3.4428	-0.5348	26.46	2.56	-0.050			
0.8818	56438.02	3.4420	3.4419	-0.5086	26.49	2.59	-0.050			
0.8823	56468.92	3.4410	3.4409	-0.4839	26.52	2.62	-0.050			
0.8828	56497.13	3.4400	3.4400	-0.4646	26.55	2.65	-0.050			
0.8832	56524.17	3.4390	3.4390	-0.4410	26.58	2.68	-0.050			
0.8836	56549.47	3.4380	3.4379	-0.4247	26.61	2.71	-0.050			
0.8840	56575.50	3.4370	3.4369	-0.4086	26.64	2.74	-0.050			
0.8844	56599.61	3.4360	3.4360	-0.3956	26.66	2.76	-0.050			
0.8848	56624.14	3.4350	3.4350	-0.3825	26.68	2.78	-0.050			
0.8851	56646.69	3.4340	3.4342	-0.3729	26.70	2.80	-0.050			
0.8855	56670.24	3.4330	3.4331	-0.3629	26.73	2.83	-0.050			
0.8858	56691.52	3.4320	3.4322	-0.3549	26.75	2.85	-0.050			
0.8861	56713.19	3.4310	3.4309	-0.3453	26.77	2.87	-0.050			
0.8865	56733.61	3.4300	3.4298	-0.3376	26.79	2.89	-0.050			
0.8868	56755.04	3.4290	3.4287	-0.3318	26.82	2.92	-0.050			
0.8871	56775.48	3.4280	3.4279	-0.3256	26.84	2.94	-0.050			
0.8874	56795.69	3.4270	3.4269	-0.3193	26.86	2.96	-0.050			
0.8877	56815.97	3.4260	3.4262	-0.3146	26.88	2.98	-0.050			
0.8881	56835.44	3.4250	3.4250	-0.3083	26.90	3.00	-0.050			
0.8884	56854.69	3.4240	3.4238	-0.3033	26.92	3.02	-0.050			
0.8886	56873.53	3.4230	3.4230	-0.3010	26.94	3.04	-0.050			
0.8889	56892.49	3.4220	3.4221	-0.2973	26.96	3.06	-0.050			
0.8892	56911.16	3.4210	3.4210	-0.2951	26.98	3.08	-0.050			
0.8895	56930.58	3.4200	3.4201	-0.2937	26.99	3.09	-0.050			
0.8898	56949.27	3.4190	3.4192	-0.2904	27.01	3.11	-0.050			
0.8901	56967.24	3.4180	3.4180	-0.2874	27.04	3.14	-0.050			
0.8904	56985.55	3.4170	3.4170	-0.2847	27.06	3.16	-0.050			
0.8907	57003.25	3.4160	3.4160	-0.2808	27.08	3.18	-0.050			
0.8910	57021.14	3.4150	3.4148	-0.2784	27.10	3.20	-0.050			
0.8912	57038.82	3.4140	3.4138	-0.2764	27.12	3.22	-0.050			
0.8915	57056.44	3.4130	3.4127	-0.2742	27.14	3.24	-0.050			
0.8918	57073.38	3.4120	3.4121	-0.2709	27.15	3.25	-0.050			
0.8920	57090.72	3.4110	3.4111	-0.2690	27.16	3.26	-0.050			
0.8923	57107.79	3.4100	3.4101	-0.2670	27.18	3.28	-0.050			
0.8926	57125.03	3.4090	3.4091	-0.2648	27.20	3.30	-0.050			
0.8928	57142.12	3.4080	3.4081	-0.2635	27.22	3.32	-0.050			
0.8931	57158.92	3.4070	3.4071	-0.2614	27.23	3.33	-0.050			
0.8934	57175.39	3.4060	3.4060	-0.2600	27.25	3.35	-0.050			
0.8936	57192.38	3.4050	3.4049	-0.2589	27.27	3.37	-0.050			
0.8939	57208.73	3.4040	3.4039	-0.2571	27.28	3.38	-0.050			
0.8941	57225.15	3.4030	3.4030	-0.2551	27.29	3.39	-0.050			
0.8944	57241.40	3.4020	3.4020	-0.2529	27.31	3.41	-0.050			
0.8946	57256.66	3.4010	3.4011	-0.2499	27.32	3.42	-0.050			
0.8949	57272.62	3.4000	3.4002	-0.2486	27.33	3.43	-0.050			
0.8951	57288.49	3.3990	3.3989	-0.2474	27.35	3.45	-0.050			
0.8954	57304.31	3.3980	3.3980	-0.2456	27.36	3.46	-0.050			
0.8956	57319.98	3.3970	3.3969	-0.2443	27.38	3.48	-0.050			
0.8959	57335.63	3.3960	3.3959	-0.2431	27.39	3.49	-0.050			
0.8961	57351.00	3.3950	3.3949	-0.2423	27.40	3.50	-0.050			
0.8964	57366.54	3.3940	3.3940	-0.2413	27.42	3.52	-0.050			
0.8966	57381.90	3.3930	3.3933	-0.2402	27.43	3.53	-0.050			
0.8968	57397.23	3.3920	3.3921	-0.2391	27.44	3.54	-0.050			
0.8971	57412.32	3.3910	3.3909	-0.2376	27.45	3.55	-0.050			
0.8973	57427.56	3.3900	3.3900	-0.2364	27.46	3.56	-0.050			
0.8975	57442.68	3.3890	3.3890	-0.2354	27.48	3.58	-0.050			
0.8978	57457.72	3.3880	3.3880	-0.2343	27.49	3.59	-0.050			
0.8980	57472.95	3.3870	3.3869	-0.2322	27.51	3.61	-0.050			
0.8982	57487.98	3.3860	3.3860	-0.2312	27.52	3.62	-0.050			
0.8985	57502.73	3.3850	3.3848	-0.2296	27.53	3.63	-0.050			
0.8987	57516.72	3.3840	3.3841	-0.2292	27.53	3.63	-0.050			
0.8989	57531.36	3.3830	3.3831	-0.2283	27.54	3.64	-0.050			
0.8992	57546.06	3.3820	3.3820	-0.2272	27.56	3.66	-0.050			
0.8994	57560.63	3.3810	3.3810	-0.2264	27.58	3.68	-0.050			
0.8996	57575.09	3.3800	3.3800	-0.2253	27.59	3.69	-0.050			
0.8998	57589.12	3.3790	3.3791	-0.2256	27.60	3.70	-0.050			
0.9001	57603.31	3.3780	3.3780	-0.2244	27.61	3.71	-0.050			
0.9003	57617.66	3.3770	3.3770	-0.2240	27.62	3.72	-0.050			
0.9005	57632.00	3.3760	3.3759	-0.2235	27.63	3.73	-0.050			
0.9007	57646.23	3.3750	3.3749	-0.2229	27.64	3.74	-0.050	0.420	0.595	
0.9009	57660.49	3.3740	3.3740	-0.2225	27.65	3.75	-0.050			
0.9012	57674.90	3.3730	3.3731	-0.2202	27.65	3.75	-0.050			
0.9014	57688.98	3.3720	3.3722	-0.2196	27.66	3.76	-0.050			
0.9016	57703.01	3.3710	3.3710	-0.2189	27.68	3.78	-0.050			
0.9018	57717.44	3.3700	3.3698	-0.2178	27.69	3.79	-0.050			
0.9021	57731.34	3.3690	3.3690	-0.2167	27.71	3.81	-0.050			
0.9023	57745.18	3.3680	3.3679	-0.2156	27.72	3.82	-0.050			
0.9025	57759.21	3.3670	3.3670	-0.2154	27.72	3.82	-0.050			
0.9027	57772.95	3.3660	3.3662	-0.2141	27.73	3.83	-0.050			
0.9029	57786.61	3.3650	3.3653	-0.2128	27.73	3.83	-0.050			
0.9031	57800.36	3.3640	3.3642	-0.2130	27.72	3.82	-0.050			
0.9033	57813.94	3.3630	3.3630	-0.2116	27.71	3.81	-0.050			
0.9035	57826.67	3.3620	3.3620	-0.2098	27.69	3.79	-0.050			
0.9038	57840.08	3.3610	3.3610	-0.2091	27.68	3.78	-0.050			
0.9040	57853.44	3.3600	3.3599	-0.2085	27.66	3.76	-0.050			
0.9042	57866.75	3.3590	3.3589	-0.2080	27.63	3.73	-0.050			
0.9044	57880.05	3.3580	3.3579	-0.2074	27.61	3.71	-0.050			
0.9046	57893.30	3.3570	3.3569	-0.2067	27.58	3.68	-0.050			
0.9048	57906.06	3.3560	3.3559	-0.2047	27.56	3.66	-0.050			
0.9050	57919.15	3.3550	3.3549	-0.2044	27.53	3.63	-0.050			
0.9052	57932.23	3.3540	3.3541	-0.2042	27.49	3.59	-0.050			
0.9054	57945.51	3.3530	3.3529	-0.2036	27.46	3.56	-0.050			
0.9056	57958.52	3.3520	3.3521	-0.2032	27.44	3.54	-0.050			
0.9058	57971.51	3.3510	3.3512	-0.2027	27.40	3.50	-0.050			
0.9060	57985.18	3.3500	3.3501	-0.2023	27.36	3.46	-0.050			
0.9062	57998.10	3.3490	3.3489	-0.2012	27.32	3.42	-0.050			
0.9064	58010.94	3.3480	3.3480	-0.2001	27.29	3.39	-0.050			
0.9066	58023.79	3.3470	3.3470	-0.1999	27.24	3.34	-0.050			
0.9068	58036.54	3.3460	3.3458	-0.1987	27.20	3.30	-0.050			
0.9070	58049.22	3.3450	3.3451	-0.1975	27.16	3.26	-0.050			
0.9072	58061.79	3.3440	3.3439	-0.1963	27.12	3.22	-0.050			
0.9074	58074.12	3.3430	3.3431	-0.1959	27.07	3.17	-0.050			
0.9076	58086.48	3.3420	3.3421	-0.1946	27.03	3.13	-0.050			
0.9078	58098.91	3.3410	3.3411	-0.1939	26.99	3.09	-0.050			
0.9080	58111.53	3.3400	3.3400	-0.1922	26.96	3.06	-0.050			
0.9082	58123.80	3.3390	3.3388	-0.1911	26.91	3.01	-0.050			
0.9084	58136.00	3.3380	3.3379	-0.1901	26.87	2.97	-0.050			
0.9086	58148.06	3.3370	3.3369	-0.1893	26.82	2.92	-0.050			
0.9088	58160.14	3.3360	3.3359	-0.1883	26.78	2.88	-0.050			
0.9089	58172.17	3.3350	3.3351	-0.1874	26.73	2.83	-0.050			
0.9091	58184.15	3.3340	3.3341	-0.1864	26.69	2.79	-0.050			
0.9093	58196.04	3.3330	3.3330	-0.1854	26.65	2.75	-0.050			
0.9095	58207.87	3.3320	3.3321	-0.1844	26.61	2.71	-0.050			
0.9097	58219.65	3.3310	3.3311	-0.1835	26.56	2.66	-0.050			
0.9099	58231.37	3.3300	3.3301	-0.1829	26.52	2.62	-0.050			
0.9100	58243.04	3.3290	3.3290	-0.1819	26.48	2.58	-0.050			
0.9102	58254.65	3.3280	3.3280	-0.1809	26.43	2.53	-0.050			
0.9104	58266.35	3.3270	3.3268	-0.1802	26.39	2.49	-0.050			
0.9106	58277.51	3.3260	3.3259	-0.1801	26.34	2.44	-0.050			
0.9108	58289.02	3.3250	3.3250	-0.1794	26.30	2.40	-0.050			
0.9109	58300.48	3.3240	3.3240	-0.1787	26.25	2.35	-0.050			
0.9111	58311.46	3.3230	3.3231	-0.1774	26.21	2.31	-0.050			
0.9113	58322.80	3.3220	3.3221	-0.1770	26.17	2.27	-0.050			
0.9115	58334.12	3.3210	3.3210	-0.1766	26.13	2.23	-0.050			
0.9116	58345.17	3.3200	3.3200	-0.1759	26.09	2.19	-0.050			
0.9118	58356.56	3.3190	3.3190	-0.1754	26.04	2.14	-0.050			
0.9120	58367.77	3.3180	3.3180	-0.1750	26.00	2.10	-0.050			
0.9122	58379.23	3.3170	3.3168	-0.1753	25.96	2.06	-0.050			
0.9124	58390.43	3.3160	3.3159	-0.1747	25.92	2.02	-0.050			
0.9125	58401.70	3.3150	3.3150	-0.1738	25.88	1.98	-0.050			
0.9127	58412.74	3.3140	3.3141	-0.1730	25.84	1.94	-0.050			
0.9129	58423.78	3.3130	3.3131	-0.1723	25.80	1.90	-0.050			
0.9130	58434.84	3.3120	3.3121	-0.1716	25.77	1.87	-0.050			
0.9132	58445.80	3.3110	3.3109	-0.1710	25.72	1.82	-0.050			
0.9134	58456.97	3.3100	3.3100	-0.1708	25.68	1.78	-0.050			
0.9136	58467.87	3.3090	3.3090	-0.1699	25.64	1.74	-0.050			
0.9137	58478.56	3.3080	3.3080	-0.1696	25.61	1.71	-0.050			
0.9139	58489.39	3.3070	3.3069	-0.1689	25.57	1.67	-0.050			
0.9141	58500.19	3.3060	3.3060	-0.1682	25.53	1.63	-0.050			
0.9142	58510.93	3.3050	3.3051	-0.1675	25.49	1.59	-0.050			
0.9144	58521.56	3.3040	3.3040	-0.1671	25.46	1.56	-0.050			
0.9146	58532.00	3.3030	3.3029	-0.1660	25.43	1.53	-0.050			
0.9147	58542.61	3.3020	3.3020	-0.1655	25.40	1.50	-0.050			
0.9149	58553.39	3.3010	3.3010	-0.1646	25.36	1.46	-0.050			
0.9151	58563.90	3.3000	3.3000	-0.1640	25.33	1.43	-0.050			
0.9152	58574.47	3.2990	3.2990	-0.1636	25.29	1.39	-0.050			
0.9154	58584.92	3.2980	3.2980	-0.1629	25.26	1.36	-0.050			
0.9156	58595.32	3.2970	3.2969	-0.1623	25.23	1.33	-0.050			
0.9157	58605.76	3.2960	3.2958	-0.1613	25.19	1.29	-0.050			
0.9159	58616.12	3.2950	3.2950	-0.1607	25.16	1.26	-0.050			
0.9160	58626.38	3.2940	3.2942	-0.1599	25.13	1.23	-0.050			
0.9162	58636.59	3.2930	3.2931	-0.1592	25.10	1.20	-0.050			
0.9164	58646.83	3.2920	3.2922	-0.1590	25.07	1.17	-0.050			
0.9165	58656.98	3.2910	3.2910	-0.1582	25.04	1.14	-0.050			
0.9167	58667.08	3.2900	3.2900	-0.1574	25.01	1.11	-0.050			
0.9168	58677.12	3.2890	3.2891	-0.1565	24.98	1.08	-0.050			
0.9170	58686.81	3.2880	3.2880	-0.1563	24.96	1.06	-0.050			
0.9171	58696.80	3.2870	3.2870	-0.1558	24.94	1.04	-0.050			
0.9173	58706.75	3.2860	3.2860	-0.1553	24.91	1.01	-0.050			
0.9174	58716.50	3.2850	3.2850	-0.1553	24.89	0.99	-0.050			
0.9176	58726.12	3.2840	3.2840	-0.1542	24.86	0.96	-0.050			
0.9177	58735.98	3.2830	3.2830	-0.1540	24.84	0.94	-0.050			
0.9179	58745.84	3.2820	3.2819	-0.1539	24.81	0.91	-0.050			
0.9181	58755.88	3.2810	3.2809	-0.1527	24.79	0.89	-0.050			
0.9182	58765.64	3.2800	3.2800	-0.1524	24.77	0.87	-0.050			
0.9184	58775.39	3.2790	3.2789	-0.1520	24.75	0.85	-0.050			
0.9185	58785.11	3.2780	3.2779	-0.1517	24.73	0.83	-0.050			
0.9187	58795.19	3.2770	3.2770	-0.1499	24.70	0.80	-0.050			
0.9188	58805.10	3.2760	3.2760	-0.1500	24.68	0.78	-0.050			
0.9190	58814.67	3.2750	3.2750	-0.1491	24.66	0.76	-0.050			
0.9191	58824.18	3.2740	3.2741	-0.1481	24.64	0.74	-0.050			
0.9193	58833.63	3.2730	3.2733	-0.1472	24.62	0.72	-0.050			
0.9194	58843.04	3.2720	3.2721	-0.1478	24.60	0.70	-0.050			
0.9196	58852.47	3.2710	3.2710	-0.1469	24.58	0.68	-0.050			
0.9197	58861.85	3.2700	3.2701	-0.1460	24.58	0.68	-0.050			
0.9199	58871.16	3.2690	3.2690	-0.1451	24.56	0.66	-0.050			
0.9200	58879.88	3.2680	3.2680	-0.1452	24.54	0.64	-0.050			
0.9201	58889.16	3.2670	3.2670	-0.1448	24.53	0.63	-0.050			
0.9203	58898.42	3.2660	3.2661	-0.1444	24.51	0.61	-0.050			
0.9204	58907.19	3.2650	3.2651	-0.1432	24.49	0.59	-0.050			
0.9206	58916.46	3.2640	3.2640	-0.1430	24.48	0.58	-0.050			
0.9207	58925.61	3.2630	3.2629	-0.1429	24.46	0.56	-0.050	0.010	0.585	
0.9209	58934.75	3.2620	3.2619	-0.1428	24.45	0.55	-0.050			
0.9210	58943.47	3.2610	3.2611	-0.1419	24.44	0.54	-0.050			
0.9211	58952.56	3.2600	3.2600	-0.1421	24.42	0.52	-0.050			
0.9213	58962.24	3.2590	3.2590	-0.1407	24.41	0.51	-0.050			
0.9214	58971.24	3.2580	3.2580	-0.1404	24.39	0.49	-0.050			
0.9216	58980.51	3.2570	3.2570	-0.1408	24.38	0.48	-0.050			
0.9217	58989.51	3.2560	3.2561	-0.1403	24.37	0.47	-0.050			
0.9219	58998.47	3.2550	3.2552	-0.1398	24.36	0.46	-0.050			
0.9220	59007.39	3.2540	3.2541	-0.1393	24.35	0.45	-0.050			
0.9221	59016.29	3.2530	3.2531	-0.1387	24.34	0.44	-0.050			
0.9223	59025.79	3.2520	3.2520	-0.1392	24.32	0.42	-0.050			
0.9224	59034.67	3.2510	3.2510	-0.1383	24.32	0.42	-0.050			
0.9225	59043.09	3.2500	3.2500	-0.1383	24.31	0.41	-0.050			
0.9227	59051.92	3.2490	3.2490	-0.1377	24.30	0.40	-0.050			
0.9228	59060.42	3.2480	3.2482	-0.1364	24.29	0.39	-0.050			
0.9230	59069.13	3.2470	3.2470	-0.1359	24.28	0.38	-0.050			
0.9231	59077.82	3.2460	3.2459	-0.1355	24.28	0.38	-0.050			
0.9232	59086.56	3.2450	3.2449	-0.1348	24.27	0.37	-0.050			
0.9234	59094.90	3.2440	3.2439	-0.1336	24.26	0.36	-0.050			
0.9235	59103.44	3.2430	3.2429	-0.1333	24.25	0.35	-0.050			
0.9236	59111.96	3.2420	3.2420	-0.1329	24.24	0.34	-0.050			
0.9238	59120.45	3.2410	3.2410	-0.1326	24.24	0.34	-0.050			
0.9239	59128.98	3.2400	3.2400	-0.1322	24.23	0.33	-0.050			
0.9240	59137.43	3.2390	3.2390	-0.1318	24.23	0.33	-0.050			
0.9242	59145.86	3.2380	3.2381	-0.1315	24.22	0.32	-0.050			
0.9243	59154.26	3.2370	3.2372	-0.1311	24.22	0.32	-0.050			
0.9244	59162.69	3.2360	3.2359	-0.1306	24.22	0.32	-0.050			
0.9245	59171.04	3.2350	3.2350	-0.1303	24.21	0.31	-0.050			
0.9247	59179.64	3.2340	3.2343	-0.1305	24.21	0.31	-0.050			
0.9248	59187.97	3.2330	3.2330	-0.1299	24.21	0.31	-0.050			
0.9249	59196.27	3.2320	3.2319	-0.1293	24.20	0.30	-0.050			
0.9251	59204.52	3.2310	3.2308	-0.1287	24.20	0.30	-0.050			
0.9252	59212.75	3.2300	3.2299	-0.1278	24.19	0.29	-0.050			
0.9253	59220.91	3.2290	3.2291	-0.1272	24.19	0.29	-0.050			
0.9255	59229.04	3.2280	3.2278	-0.1267	24.18	0.28	-0.050			
0.9256	59237.12	3.2270	3.2271	-0.1261	24.18	0.28	-0.050			
0.9257	59245.17	3.2260	3.2261	-0.1255	24.18	0.28	-0.050			
0.9258	59252.97	3.2250	3.2251	-0.1249	24.18	0.28	-0.050			
0.9260	59260.95	3.2240	3.2241	-0.1245	24.17	0.27	-0.050			
0.9261	59268.91	3.2230	3.2231	-0.1241	24.17	0.27	-0.050			
0.9262	59276.84	3.2220	3.2220	-0.1237	24.17	0.27	-0.050			
0.9263	59284.74	3.2210	3.2208	-0.1232	24.17	0.27	-0.050			
0.9264	59292.67	3.2200	3.2202	-0.1232	24.17	0.27	-0.050			
0.9266	59300.54	3.2190	3.2193	-0.1227	24.17	0.27	-0.050			
0.9267	59308.38	3.2180	3.2180	-0.1223	24.17	0.27	-0.050			
0.9268	59316.20	3.2170	3.2169	-0.1218	24.18	0.28	-0.050			
0.9269	59323.81	3.2160	3.2160	-0.1212	24.18	0.28	-0.050			
0.9271	59331.26	3.2150	3.2150	-0.1214	24.18	0.28	-0.050			
0.9272	59339.03	3.2140	3.2138	-0.1213	24.18	0.28	-0.050			
0.9273	59346.79	3.2130	3.2131	-0.1212	24.18	0.28	-0.050			
0.9274	59354.54	3.2120	3.2120	-0.1211	24.18	0.28	-0.050			
0.9275	59362.29	3.2110	3.2112	-0.1210	24.18	0.28	-0.050			
0.9277	59370.22	3.2100	3.2101	-0.1198	24.18	0.28	-0.050			
0.9278	59377.88	3.2090	3.2087	-0.1196	24.18	0.28	-0.050			
0.9279	59385.53	3.2080	3.2078	-0.1193	24.18	0.28	-0.050			
0.9280	59393.15	3.2070	3.2070	-0.1190	24.18	0.28	-0.050			
0.9281	59400.77	3.2060	3.2059	-0.1188	24.19	0.29	-0.050			
0.9283	59408.72	3.2050	3.2048	-0.1190	24.19	0.29	-0.050			
0.9284	59416.31	3.2040	3.2040	-0.1185	24.20	0.30	-0.050			
0.9285	59423.88	3.2030	3.2031	-0.1180	24.20	0.30	-0.050			
0.9286	59431.41	3.2020	3.2019	-0.1175	24.21	0.31	-0.050			
0.9287	59438.92	3.2010	3.2011	-0.1170	24.21	0.31	-0.050			
0.9289	59446.55	3.2000	3.2003	-0.1167	24.22	0.32	-0.050			
0.9290	59454.00	3.1990	3.1992	-0.1161	24.22	0.32	-0.050			
0.9291	59461.17	3.1980	3.1983	-0.1161	24.23	0.33	-0.050			
0.9292	59468.59	3.1970	3.1971	-0.1157	24.23	0.33	-0.050			
0.9293	59475.98	3.1960	3.1959	-0.1152	24.24	0.34	-0.050			
0.9294	59483.36	3.1950	3.1948	-0.1148	24.24	0.34	-0.050			
0.9295	59490.72	3.1940	3.1939	-0.1143	24.24	0.34	-0.050			
0.9297	59498.03	3.1930	3.1930	-0.1139	24.25	0.35	-0.050			
0.9298	59505.30	3.1920	3.1919	-0.1134	24.25	0.35	-0.050			
0.9299	59512.54	3.1910	3.1909	-0.1130	24.25	0.35	-0.050			
0.9300	59519.45	3.1900	3.1899	-0.1119	24.26	0.36	-0.050			
0.9301	59526.61	3.1890	3.1888	-0.1116	24.26	0.36	-0.050			
0.9302	59533.74	3.1880	3.1880	-0.1114	24.26	0.36	-0.050			
0.9303	59540.75	3.1870	3.1872	-0.1115	24.27	0.37	-0.050			
0.9304	59547.88	3.1860	3.1861	-0.1114	24.27	0.37	-0.050			
0.9305	59555.00	3.1850	3.1852	-0.1113	24.27	0.37	-0.050			
0.9307	59562.25	3.1840	3.1840	-0.1114	24.28	0.38	-0.050			
0.9308	59569.37	3.1830	3.1830	-0.1111	24.29	0.39	-0.050			
0.9309	59576.47	3.1820	3.1822	-0.1109	24.30	0.40	-0.050			
0.9310	59583.80	3.1810	3.1810	-0.1100	24.30	0.40	-0.050			
0.9311	59590.83	3.1800	3.1798	-0.1096	24.31	0.41	-0.050			
0.9312	59597.84	3.1790	3.1789	-0.1092	24.32	0.42	-0.050			
0.9313	59604.89	3.1780	3.1779	-0.1089	24.33	0.43	-0.050			
0.9314	59611.85	3.1770	3.1769	-0.1085	24.33	0.43	-0.050			
0.9315	59618.74	3.1760	3.1759	-0.1081	24.34	0.44	-0.050			
0.9317	59625.65	3.1750	3.1750	-0.1077	24.34	0.44	-0.050			
0.9318	59632.50	3.1740	3.1741	-0.1072	24.35	0.45	-0.050			
0.9319	59639.34	3.1730	3.1730	-0.1068	24.35	0.45	-0.050			
0.9320	59646.16	3.1720	3.1719	-0.1064	24.36	0.46	-0.050			
0.9321	59652.96	3.1710	3.1711	-0.1060	24.36	0.46	-0.050			
0.9322	59659.61	3.1700	3.1703	-0.1059	24.37	0.47	-0.050			
0.9323	59666.37	3.1690	3.1691	-0.1056	24.38	0.48	-0.050			
0.9324	59673.12	3.1680	3.1680	-0.1052	24.39	0.49	-0.050			
0.9325	59679.96	3.1670	3.1669	-0.1051	24.40	0.50	-0.050			
0.9326	59686.68	3.1660	3.1659	-0.1047	24.40	0.50	-0.050			
0.9327	59693.37	3.1650	3.1649	-0.1043	24.41	0.51	-0.050			
0.9328	59699.91	3.1640	3.1639	-0.1042	24.42	0.52	-0.050			
0.9329	59706.57	3.1630	3.1628	-0.1039	24.43	0.53	-0.050			
0.9330	59713.21	3.1620	3.1619	-0.1036	24.44	0.54	-0.050			
0.9331	59719.41	3.1610	3.1609	-0.1025	24.45	0.55	-0.050			
0.9332	59725.97	3.1600	3.1599	-0.1024	24.45	0.55	-0.050			
0.9333	59732.52	3.1590	3.1591	-0.1024	24.46	0.56	-0.050			
0.9334	59739.07	3.1580	3.1583	-0.1023	24.47	0.57	-0.050			
0.9335	59745.83	3.1570	3.1572	-0.1015	24.48	0.58	-0.050			
0.9336	59752.58	3.1560	3.1560	-0.1020	24.48	0.58	-0.050			
0.9337	59759.10	3.1550	3.1550	-0.1016	24.49	0.59	-0.050			
0.9338	59765.59	3.1540	3.1541	-0.1012	24.50	0.60	-0.050			
0.9339	59772.05	3.1530	3.1530	-0.1008	24.51	0.61	-0.050			
0.9340	59778.49	3.1520	3.1519	-0.1004	24.51	0.61	-0.050			
0.9341	59784.81	3.1510	3.1508	-0.1004	24.52	0.62	-0.050			
0.9342	59791.23	3.1500	3.1498	-0.1001	24.53	0.63	-0.050			
0.9343	59797.62	3.1490	3.1491	-0.0998	24.53	0.63	-0.050			
0.9344	59804.00	3.1480	3.1483	-0.0994	24.54	0.64	-0.050			
0.9345	59810.35	3.1470	3.1471	-0.0991	24.55	0.65	-0.050			
0.9346	59816.68	3.1460	3.1460	-0.0988	24.56	0.66	-0.050			
0.9347	59823.02	3.1450	3.1451	-0.0984	24.56	0.66	-0.050			
0.9348	59829.27	3.1440	3.1439	-0.0979	24.57	0.67	-0.050			
0.9349	59835.52	3.1430	3.1429	-0.0976	24.58	0.68	-0.050			
0.9350	59841.76	3.1420	3.1419	-0.0973	24.59	0.69	-0.050			
0.9351	59847.98	3.1410	3.1409	-0.0970	24.60	0.70	-0.050			
0.9352	59854.17	3.1400	3.1400	-0.0966	24.60	0.70	-0.050			
0.9353	59860.35	3.1390	3.1390	-0.0963	24.61	0.71	-0.050			
0.9354	59866.56	3.1380	3.1380	-0.0958	24.62	0.72	-0.050			
0.9355	59872.71	3.1370	3.1372	-0.0955	24.63	0.73	-0.050			
0.9356	59878.80	3.1360	3.1361	-0.0951	24.64	0.74	-0.050			
0.9357	59884.88	3.1350	3.1350	-0.0947	24.64	0.74	-0.050			
0.9358	59890.92	3.1340	3.1339	-0.0943	24.65	0.75	-0.050			
0.9359	59896.95	3.1330	3.1329	-0.0939	24.66	0.76	-0.050			
0.9360	59902.95	3.1320	3.1320	-0.0936	24.67	0.77	-0.050			
0.9361	59908.92	3.1310	3.1311	-0.0937	24.68	0.78	-0.050			
0.9362	59914.90	3.1300	3.1300	-0.0933	24.68	0.78	-0.050			
0.9363	59920.86	3.1290	3.1290	-0.0930	24.69	0.79	-0.050			
0.9364	59926.80	3.1280	3.1281	-0.0926	24.70	0.80	-0.050			
0.9364	59932.72	3.1270	3.1270	-0.0922	24.71	0.81	-0.050			
0.9365	59938.61	3.1260	3.1259	-0.0919	24.72	0.82	-0.050			
0.9366	59944.23	3.1250	3.1248	-0.0913	24.72	0.82	-0.050			
0.9367	59950.07	3.1240	3.1238	-0.0911	24.73	0.83	-0.050			
0.9368	59955.89	3.1230	3.1229	-0.0909	24.74	0.84	-0.050			
0.9369	59961.70	3.1220	3.1219	-0.0907	24.75	0.85	-0.050			
0.9370	59967.50	3.1210	3.1209	-0.0905	24.75	0.85	-0.050			
0.9371	59973.28	3.1200	3.1200	-0.0903	24.76	0.86	-0.050			
0.9372	59979.06	3.1190	3.1192	-0.0901	24.77	0.87	-0.050			
0.9373	59984.74	3.1180	3.1182	-0.0898	24.78	0.88	-0.050			
0.9374	59990.48	3.1170	3.1171	-0.0897	24.78	0.88	-0.050			
0.9374	59996.22	3.1160	3.1161	-0.0895	24.79	0.89	-0.050			
0.9375	60001.94	3.1150	3.1151	-0.0893	24.80	0.90	-0.050			
0.9376	60007.65	3.1140	3.1140	-0.0892	24.81	0.91	-0.050			
0.9377	60013.36	3.1130	3.1130	-0.0890	24.81	0.91	-0.050			
0.9378	60019.05	3.1120	3.1120	-0.0889	24.82	0.92	-0.050			
0.9379	60024.81	3.1110	3.1110	-0.0888	24.83	0.93	-0.050			
0.9380	60030.53	3.1100	3.1101	-0.0885	24.84	0.94	-0.050			
0.9381	60036.18	3.1090	3.1091	-0.0882	24.84	0.94	-0.050			
0.9382	60041.82	3.1080	3.1079	-0.0880	24.85	0.95	-0.050			
0.9382	60047.45	3.1070	3.1068	-0.0878	24.86	0.96	-0.050			
0.9383	60053.06	3.1060	3.1058	-0.0875	24.87	0.97	-0.050			
0.9384	60058.63	3.1050	3.1049	-0.0873	24.88	0.98	-0.050			
0.9385	60064.20	3.1040	3.1039	-0.0870	24.89	0.99	-0.050			
0.9386	60069.80	3.1030	3.1029	-0.0868	24.89	0.99	-0.050			
0.9387	60075.35	3.1020	3.1019	-0.0865	24.90	1.00	-0.050			
0.9388	60080.87	3.1010	3.1010	-0.0863	24.91	1.01	-0.050			
0.9388	60086.39	3.1000	3.1002	-0.0860	24.92	1.02	-0.050			
0.9389	60091.89	3.0990	3.0992	-0.0858	24.93	1.03	-0.050			
0.9390	60097.47	3.0980	3.0980	-0.0856	24.93	1.03	-0.050			
0.9391	60102.84	3.0970	3.0971	-0.0854	24.94	1.04	-0.050			
0.9392	60108.30	3.0960	3.0961	-0.0852	24.95	1.05	-0.050			
0.9393	60113.74	3.0950	3.0951	-0.0849	24.96	1.06	-0.050			
0.9394	60119.17	3.0940	3.0940	-0.0847	24.96	1.06	-0.050			
0.9394	60124.58	3.0930	3.0930	-0.0844	24.97	1.07	-0.050			
0.9395	60129.97	3.0920	3.0920	-0.0842	24.98	1.08	-0.050			
0.9396	60135.35	3.0910	3.0909	-0.0839	24.98	1.08	-0.050			
0.9397	60140.64	3.0900	3.0904	-0.0835	24.99	1.09	-0.050			
0.9398	60145.98	3.0890	3.0891	-0.0833	25.00	1.10	-0.050			
0.9399	60151.30	3.0880	3.0880	-0.0831	25.00	1.10	-0.050			
0.9399	60156.77	3.0870	3.0869	-0.0824	25.01	1.11	-0.050			
0.9400	60162.03	3.0860	3.0858	-0.0820	25.01	1.11	-0.050			
0.9401	60167.27	3.0850	3.0848	-0.0817	25.02	1.12	-0.050			
0.9402	60172.49	3.0840	3.0838	-0.0814	25.03	1.13	-0.050			
0.9403	60177.97	3.0830	3.0828	-0.0812	25.03	1.13	-0.050			
0.9404	60183.15	3.0820	3.0818	-0.0808	25.04	1.14	-0.050			
0.9404	60188.10	3.0810	3.0808	-0.0806	25.04	1.14	-0.050			
0.9405	60193.24	3.0800	3.0800	-0.0802	25.05	1.15	-0.050			
0.9406	60198.36	3.0790	3.0789	-0.0798	25.06	1.16	-0.050			
0.9407	60203.46	3.0780	3.0778	-0.0795	25.06	1.16	-0.050			
0.9408	60208.56	3.0770	3.0771	-0.0791	25.07	1.17	-0.050	0.390	0.646	
0.9408	60213.61	3.0760	3.0759	-0.0788	25.08	1.18	-0.050			
0.9409	60218.64	3.0750	3.0747	-0.0784	25.08	1.18	-0.050			
0.9410	60223.39	3.0740	3.0738	-0.0786	25.09	1.19	-0.050			
0.9411	60228.41	3.0730	3.0728	-0.0784	25.10	1.20	-0.050			
0.9411	60233.42	3.0720	3.0719	-0.0782	25.10	1.20	-0.050			
0.9412	60238.41	3.0710	3.0710	-0.0779	25.11	1.21	-0.050			
0.9413	60243.40	3.0700	3.0701	-0.0777	25.12	1.22	-0.050			
0.9414	60248.36	3.0690	3.0691	-0.0775	25.12	1.22	-0.050			
0.9415	60253.32	3.0680	3.0680	-0.0773	25.13	1.23	-0.050			
0.9415	60257.93	3.0670	3.0671	-0.0766	25.13	1.23	-0.050			
0.9416	60262.83	3.0660	3.0661	-0.0766	25.14	1.24	-0.050			
0.9417	60267.73	3.0650	3.0650	-0.0765	25.14	1.24	-0.050			
0.9418	60272.63	3.0640	3.0639	-0.0765	25.15	1.25	-0.050			
0.9418	60277.52	3.0630	3.0629	-0.0765	25.15	1.25	-0.050			
0.9419	60282.41	3.0620	3.0619	-0.0764	25.16	1.26	-0.050			
0.9420	60287.45	3.0610	3.0609	-0.0765	25.17	1.27	-0.050			
0.9421	60292.34	3.0600	3.0599	-0.0764	25.17	1.27	-0.050			
0.9421	60297.30	3.0590	3.0591	-0.0761	25.18	1.28	-0.050			
0.9422	60302.16	3.0580	3.0582	-0.0759	25.18	1.28	-0.050			
0.9423	60307.01	3.0570	3.0570	-0.0758	25.19	1.29	-0.050			
0.9424	60311.86	3.0560	3.0560	-0.0756	25.20	1.30	-0.050			
0.9424	60316.69	3.0550	3.0549	-0.0754	25.20	1.30	-0.050			
0.9425	60321.65	3.0540	3.0539	-0.0754	25.21	1.31	-0.050			
0.9426	60326.47	3.0530	3.0529	-0.0751	25.21	1.31	-0.050			
0.9427	60331.24	3.0520	3.0519	-0.0749	25.22	1.32	-0.050			
0.9428	60336.03	3.0510	3.0510	-0.0746	25.23	1.33	-0.050			
0.9428	60340.80	3.0500	3.0499	-0.0744	25.23	1.33	-0.050			
0.9429	60345.55	3.0490	3.0489	-0.0741	25.24	1.34	-0.050			
0.9430	60350.29	3.0480	3.0481	-0.0739	25.25	1.35	-0.050			
0.9430	60354.97	3.0470	3.0472	-0.0736	25.25	1.35	-0.050			
0.9431	60359.67	3.0460	3.0460	-0.0734	25.26	1.36	-0.050			
0.9432	60364.36	3.0450	3.0450	-0.0731	25.26	1.36	-0.050			
0.9433	60369.07	3.0440	3.0440	-0.0729	25.27	1.37	-0.050			
0.9433	60373.72	3.0430	3.0430	-0.0726	25.28	1.38	-0.050			
0.9434	60378.36	3.0420	3.0420	-0.0724	25.28	1.38	-0.050			
0.9435	60382.99	3.0410	3.0410	-0.0721	25.29	1.39	-0.050			
0.9436	60387.59	3.0400	3.0401	-0.0719	25.29	1.39	-0.050			
0.9436	60392.22	3.0390	3.0391	-0.0717	25.30	1.40	-0.050			
0.9437	60396.80	3.0380	3.0380	-0.0714	25.31	1.41	-0.050			
0.9438	60401.36	3.0370	3.0370	-0.0712	25.31	1.41	-0.050			
0.9438	60405.85	3.0360	3.0362	-0.0710	25.32	1.42	-0.050			
0.9439	60410.38	3.0350	3.0351	-0.0708	25.32	1.42	-0.050			
0.9440	60414.91	3.0340	3.0340	-0.0706	25.33	1.43	-0.050			
0.9441	60419.42	3.0330	3.0329	-0.0704	25.33	1.43	-0.050			
0.9441	60423.87	3.0320	3.0319	-0.0701	25.34	1.44	-0.050			
0.9442	60428.35	3.0310	3.0309	-0.0699	25.34	1.44	-0.050			
0.9443	60432.81	3.0300	3.0299	-0.0697	25.35	1.45	-0.050			
0.9443	60437.27	3.0290	3.0289	-0.0695	25.35	1.45	-0.050			
0.9444	60441.71	3.0280	3.0280	-0.0693	25.36	1.46	-0.050			
0.9445	60446.14	3.0270	3.0269	-0.0691	25.36	1.46	-0.050			
0.9445	60450.55	3.0260	3.0259	-0.0689	25.37	1.47	-0.050			
0.9446	60454.95	3.0250	3.0249	-0.0687	25.37	1.47	-0.050			
0.9447	60459.31	3.0240	3.0239	-0.0684	25.38	1.48	-0.050			
0.9447	60463.68	3.0230	3.0232	-0.0682	25.38	1.48	-0.050			
0.9448	60468.04	3.0220	3.0220	-0.0680	25.39	1.49	-0.050			
0.9449	60472.39	3.0210	3.0211	-0.0679	25.39	1.49	-0.050			
0.9449	60476.73	3.0200	3.0202	-0.0677	25.40	1.50	-0.050			
0.9450	60481.05	3.0190	3.0190	-0.0675	25.40	1.50	-0.050			
0.9451	60485.37	3.0180	3.0179	-0.0673	25.41	1.51	-0.050			
0.9452	60489.67	3.0170	3.0170	-0.0671	25.41	1.51	-0.050			
0.9452	60494.00	3.0160	3.0160	-0.0670	25.42	1.52	-0.050			
0.9453	60498.28	3.0150	3.0149	-0.0667	25.42	1.52	-0.050			
0.9454	60502.54	3.0140	3.0139	-0.0665	25.43	1.53	-0.050			
0.9454	60506.79	3.0130	3.0130	-0.0663	25.43	1.53	-0.050			
0.9455	60511.03	3.0120	3.0120	-0.0661	25.44	1.54	-0.050			
0.9456	60515.25	3.0110	3.0112	-0.0659	25.44	1.54	-0.050			
0.9456	60519.46	3.0100	3.0101	-0.0657	25.45	1.55	-0.050			
0.9457	60523.61	3.0090	3.0090	-0.0656	25.45	1.55	-0.050			
0.9457	60527.80	3.0080	3.0078	-0.0654	25.46	1.56	-0.050			
0.9458	60531.98	3.0070	3.0068	-0.0652	25.46	1.56	-0.050			
0.9459	60536.15	3.0060	3.0060	-0.0651	25.47	1.57	-0.050			
0.9459	60540.31	3.0050	3.0050	-0.0649	25.47	1.57	-0.050			
0.9460	60544.46	3.0040	3.0041	-0.0647	25.47	1.57	-0.050			
