Ah_balance (normalized)	Ah_balance (mAh)	Voltage - fit (V)	Voltage -  interpolate (V)	dQ/dV (1/V)	Temperature (°C)	Temperature - diff (°C)	Current (C)	R_DC 0ms (mOhm)	R_DC 50ms (mOhm)	R_DC 50 ms PEC (mOhm)
-0.0071	-456.48	4.1990	4.1990	0.8162	24.81	-1.15	0.050			
-0.0063	-404.16	4.1980	4.1980	0.8186	24.77	-1.19	0.050			
-0.0055	-351.48	4.1970	4.1970	0.8234	24.75	-1.21	0.050			
-0.0047	-298.50	4.1960	4.1961	0.8257	24.73	-1.23	0.050			
-0.0038	-245.48	4.1950	4.1950	0.8265	24.72	-1.24	0.050			
-0.0030	-192.33	4.1940	4.1940	0.8268	24.70	-1.26	0.050			
-0.0022	-139.23	4.1930	4.1931	0.8263	24.68	-1.28	0.050	0.145	0.394	
-0.0013	-86.24	4.1920	4.1921	0.8253	24.66	-1.30	0.050			
-0.0005	-33.27	4.1910	4.1909	0.8239	24.64	-1.32	0.050			
0.0003	19.45	4.1900	4.1900	0.8225	24.62	-1.34	0.050			
0.0011	72.18	4.1890	4.1890	0.8222	24.59	-1.37	0.050			
0.0019	124.78	4.1880	4.1880	0.8218	24.57	-1.39	0.050			
0.0028	177.48	4.1870	4.1870	0.8213	24.56	-1.40	0.050			
0.0036	229.46	4.1860	4.1861	0.8196	24.54	-1.42	0.050			
0.0044	282.15	4.1850	4.1850	0.8187	24.54	-1.42	0.050			
0.0052	334.82	4.1840	4.1840	0.8165	24.53	-1.43	0.050			
0.0060	386.74	4.1830	4.1830	0.8143	24.52	-1.44	0.050			
0.0069	438.57	4.1820	4.1820	0.8128	24.52	-1.44	0.050			
0.0077	490.53	4.1810	4.1809	0.8120	24.54	-1.42	0.050			
0.0085	542.47	4.1800	4.1799	0.8115	24.54	-1.42	0.050			
0.0093	594.33	4.1790	4.1790	0.8107	24.56	-1.40	0.050			
0.0101	645.96	4.1780	4.1780	0.8092	24.58	-1.38	0.050			
0.0109	697.87	4.1770	4.1770	0.8086	24.60	-1.36	0.050			
0.0117	749.90	4.1760	4.1761	0.8075	24.62	-1.34	0.050			
0.0125	801.42	4.1750	4.1750	0.8062	24.66	-1.30	0.050			
0.0133	853.18	4.1740	4.1739	0.8055	24.69	-1.27	0.050			
0.0141	904.54	4.1730	4.1730	0.8051	24.73	-1.23	0.050			
0.0149	955.43	4.1720	4.1720	0.8065	24.79	-1.17	0.050			
0.0157	1006.88	4.1710	4.1711	0.8066	24.84	-1.12	0.050			
0.0165	1058.06	4.1700	4.1701	0.8057	24.90	-1.06	0.050			
0.0173	1109.18	4.1690	4.1691	0.8072	24.97	-0.99	0.050			
0.0181	1160.42	4.1680	4.1680	0.8084	25.05	-0.91	0.050	0.408	0.469	
0.0189	1212.00	4.1670	4.1671	0.8102	25.13	-0.83	0.050			
0.0197	1263.65	4.1660	4.1660	0.8127	25.21	-0.75	0.050			
0.0206	1315.84	4.1650	4.1650	0.8159	25.31	-0.65	0.050			
0.0214	1368.06	4.1640	4.1639	0.8186	25.41	-0.55	0.050			
0.0222	1420.39	4.1630	4.1630	0.8195	25.51	-0.45	0.050			
0.0230	1472.69	4.1620	4.1622	0.8224	25.61	-0.35	0.050			
0.0238	1525.56	4.1610	4.1611	0.8246	25.71	-0.25	0.050			
0.0247	1578.47	4.1600	4.1600	0.8274	25.80	-0.16	0.050			
0.0255	1631.79	4.1590	4.1590	0.8304	25.90	-0.06	0.050			
0.0263	1685.21	4.1580	4.1580	0.8334	25.98	0.02	0.050			
0.0272	1738.86	4.1570	4.1570	0.8359	26.05	0.09	0.050			
0.0280	1792.89	4.1560	4.1560	0.8382	26.12	0.16	0.050			
0.0289	1847.04	4.1550	4.1550	0.8389	26.17	0.21	0.050			
0.0297	1900.77	4.1540	4.1541	0.8396	26.20	0.24	0.050			
0.0305	1954.51	4.1530	4.1531	0.8408	26.22	0.26	0.050			
0.0314	2008.20	4.1520	4.1521	0.8416	26.20	0.24	0.050			
0.0322	2062.11	4.1510	4.1510	0.8428	26.18	0.22	0.050			
0.0331	2116.46	4.1500	4.1499	0.8443	26.15	0.19	0.050			
0.0339	2170.35	4.1490	4.1490	0.8446	26.11	0.15	0.050			
0.0348	2224.46	4.1480	4.1481	0.8454	26.08	0.12	0.050			
0.0356	2278.62	4.1470	4.1471	0.8460	26.05	0.09	0.050			
0.0364	2332.58	4.1460	4.1460	0.8471	26.02	0.06	0.050			
0.0373	2387.00	4.1450	4.1449	0.8477	25.99	0.03	0.050			
0.0381	2441.06	4.1440	4.1440	0.8490	25.95	-0.01	0.050	0.413	0.524	
0.0390	2495.53	4.1430	4.1430	0.8499	25.91	-0.05	0.050			
0.0398	2550.13	4.1420	4.1420	0.8503	25.89	-0.07	0.050			
0.0407	2604.44	4.1410	4.1410	0.8506	25.86	-0.10	0.050			
0.0416	2659.20	4.1400	4.1400	0.8508	25.82	-0.14	0.050			
0.0424	2713.74	4.1390	4.1390	0.8504	25.79	-0.17	0.050			
0.0433	2768.46	4.1380	4.1380	0.8501	25.76	-0.20	0.050			
0.0441	2823.07	4.1370	4.1371	0.8511	25.73	-0.23	0.050			
0.0450	2877.46	4.1360	4.1359	0.8516	25.70	-0.26	0.050			
0.0458	2932.09	4.1350	4.1349	0.8522	25.66	-0.30	0.050			
0.0467	2986.57	4.1340	4.1340	0.8518	25.62	-0.34	0.050			
0.0475	3040.99	4.1330	4.1330	0.8510	25.59	-0.37	0.050			
0.0484	3095.32	4.1320	4.1320	0.8511	25.56	-0.40	0.050			
0.0492	3149.90	4.1310	4.1310	0.8510	25.52	-0.44	0.050			
0.0501	3204.28	4.1300	4.1299	0.8507	25.49	-0.47	0.050			
0.0509	3258.83	4.1290	4.1290	0.8501	25.46	-0.50	0.050			
0.0518	3313.31	4.1280	4.1280	0.8494	25.44	-0.52	0.050			
0.0526	3367.39	4.1270	4.1270	0.8493	25.40	-0.56	0.050			
0.0535	3421.72	4.1260	4.1260	0.8497	25.37	-0.59	0.050			
0.0543	3475.86	4.1250	4.1250	0.8493	25.34	-0.62	0.050			
0.0552	3530.09	4.1240	4.1240	0.8495	25.31	-0.65	0.050			
0.0560	3584.54	4.1230	4.1230	0.8502	25.29	-0.67	0.050			
0.0569	3639.33	4.1220	4.1220	0.8501	25.26	-0.70	0.050			
0.0577	3693.98	4.1210	4.1210	0.8493	25.22	-0.74	0.050	0.403	0.560	
0.0586	3748.46	4.1200	4.1199	0.8486	25.20	-0.76	0.050			
0.0594	3802.76	4.1190	4.1190	0.8486	25.18	-0.78	0.050			
0.0603	3857.32	4.1180	4.1180	0.8488	25.16	-0.80	0.050			
0.0611	3911.34	4.1170	4.1170	0.8478	25.14	-0.82	0.050			
0.0620	3965.30	4.1160	4.1160	0.8473	25.12	-0.84	0.050			
0.0628	4019.69	4.1150	4.1150	0.8465	25.10	-0.86	0.050			
0.0637	4073.83	4.1140	4.1140	0.8469	25.07	-0.89	0.050			
0.0645	4128.10	4.1130	4.1130	0.8471	25.06	-0.90	0.050			
0.0653	4182.27	4.1120	4.1121	0.8465	25.06	-0.90	0.050			
0.0662	4236.54	4.1110	4.1110	0.8456	25.06	-0.90	0.050			
0.0670	4290.51	4.1100	4.1100	0.8464	25.06	-0.90	0.050			
0.0679	4344.24	4.1090	4.1091	0.8465	25.05	-0.91	0.050			
0.0687	4398.48	4.1080	4.1081	0.8474	25.05	-0.91	0.050			
0.0696	4452.33	4.1070	4.1070	0.8464	25.06	-0.90	0.050			
0.0704	4506.46	4.1060	4.1060	0.8467	25.06	-0.90	0.050			
0.0713	4561.05	4.1050	4.1050	0.8460	25.05	-0.91	0.050			
0.0721	4615.22	4.1040	4.1040	0.8464	25.05	-0.91	0.050			
0.0730	4669.54	4.1030	4.1029	0.8461	25.06	-0.90	0.050			
0.0738	4724.00	4.1020	4.1020	0.8473	25.05	-0.91	0.050			
0.0747	4778.37	4.1010	4.1010	0.8479	25.05	-0.91	0.050			
0.0755	4832.50	4.1000	4.1000	0.8479	25.05	-0.91	0.050			
0.0764	4886.48	4.0990	4.0991	0.8472	25.06	-0.90	0.050			
0.0772	4940.82	4.0980	4.0980	0.8467	25.06	-0.90	0.050			
0.0781	4995.22	4.0970	4.0970	0.8464	25.06	-0.90	0.050	0.347	0.499	
0.0789	5049.50	4.0960	4.0960	0.8459	25.06	-0.90	0.050			
0.0797	5103.81	4.0950	4.0950	0.8464	25.06	-0.90	0.050			
0.0806	5157.94	4.0940	4.0939	0.8456	25.06	-0.90	0.050			
0.0814	5211.69	4.0930	4.0929	0.8461	25.06	-0.90	0.050			
0.0823	5265.65	4.0920	4.0920	0.8460	25.06	-0.90	0.050			
0.0831	5319.61	4.0910	4.0911	0.8471	25.07	-0.89	0.050			
0.0840	5373.46	4.0900	4.0901	0.8461	25.08	-0.88	0.050			
0.0848	5427.27	4.0890	4.0891	0.8472	25.08	-0.88	0.050			
0.0856	5481.53	4.0880	4.0879	0.8490	25.08	-0.88	0.050			
0.0865	5535.90	4.0870	4.0869	0.8497	25.08	-0.88	0.050			
0.0873	5590.19	4.0860	4.0860	0.8521	25.08	-0.88	0.050			
0.0882	5644.74	4.0850	4.0851	0.8535	25.08	-0.88	0.050			
0.0891	5699.60	4.0840	4.0840	0.8544	25.08	-0.88	0.050			
0.0899	5754.42	4.0830	4.0830	0.8536	25.08	-0.88	0.050			
0.0908	5808.95	4.0820	4.0820	0.8544	25.08	-0.88	0.050			
0.0916	5863.83	4.0810	4.0810	0.8560	25.08	-0.88	0.050			
0.0925	5918.48	4.0800	4.0801	0.8574	25.07	-0.89	0.050			
0.0933	5973.76	4.0790	4.0791	0.8590	25.08	-0.88	0.050			
0.0942	6029.10	4.0780	4.0780	0.8608	25.06	-0.90	0.050			
0.0951	6084.22	4.0770	4.0771	0.8617	25.06	-0.90	0.050			
0.0959	6139.39	4.0760	4.0761	0.8620	25.06	-0.90	0.050			
0.0968	6194.80	4.0750	4.0751	0.8614	25.06	-0.90	0.050			
0.0977	6250.03	4.0740	4.0740	0.8611	25.06	-0.90	0.050	0.347	0.519	
0.0985	6304.97	4.0730	4.0729	0.8614	25.06	-0.90	0.050			
0.0994	6359.97	4.0720	4.0719	0.8632	25.05	-0.91	0.050			
0.1002	6415.05	4.0710	4.0710	0.8634	25.05	-0.91	0.050			
0.1011	6470.72	4.0700	4.0701	0.8629	25.04	-0.92	0.050			
0.1020	6525.67	4.0690	4.0689	0.8643	25.05	-0.91	0.050			
0.1028	6580.96	4.0680	4.0681	0.8643	25.04	-0.92	0.050			
0.1037	6636.55	4.0670	4.0670	0.8640	25.04	-0.92	0.050			
0.1046	6691.65	4.0660	4.0660	0.8643	25.03	-0.93	0.050			
0.1054	6746.92	4.0650	4.0650	0.8654	25.02	-0.94	0.050			
0.1063	6802.76	4.0640	4.0639	0.8659	25.02	-0.94	0.050			
0.1072	6858.25	4.0630	4.0630	0.8666	25.02	-0.94	0.050			
0.1080	6913.62	4.0620	4.0621	0.8658	25.01	-0.95	0.050			
0.1089	6969.02	4.0610	4.0611	0.8649	25.01	-0.95	0.050			
0.1098	7024.36	4.0600	4.0598	0.8647	25.02	-0.94	0.050			
0.1106	7079.89	4.0590	4.0591	0.8649	25.01	-0.95	0.050			
0.1115	7135.21	4.0580	4.0580	0.8650	25.00	-0.96	0.050			
0.1124	7190.42	4.0570	4.0569	0.8663	25.01	-0.95	0.050			
0.1132	7245.95	4.0560	4.0560	0.8661	25.00	-0.96	0.050			
0.1141	7301.69	4.0550	4.0550	0.8662	25.00	-0.96	0.050			
0.1150	7357.25	4.0540	4.0540	0.8650	25.00	-0.96	0.050			
0.1158	7412.42	4.0530	4.0531	0.8641	25.00	-0.96	0.050			
0.1167	7467.31	4.0520	4.0520	0.8639	25.00	-0.96	0.050			
0.1175	7522.57	4.0510	4.0510	0.8646	25.02	-0.94	0.050	0.352	0.503	
0.1184	7578.04	4.0500	4.0500	0.8653	25.01	-0.95	0.050			
0.1193	7632.74	4.0490	4.0489	0.8660	25.02	-0.94	0.050			
0.1201	7688.12	4.0480	4.0480	0.8674	25.02	-0.94	0.050			
0.1210	7743.91	4.0470	4.0471	0.8679	25.02	-0.94	0.050			
0.1219	7799.38	4.0460	4.0459	0.8676	25.04	-0.92	0.050			
0.1227	7854.66	4.0450	4.0450	0.8689	25.04	-0.92	0.050			
0.1236	7910.62	4.0440	4.0439	0.8693	25.04	-0.92	0.050			
0.1245	7966.42	4.0430	4.0430	0.8707	25.04	-0.92	0.050			
0.1253	8022.38	4.0420	4.0420	0.8710	25.04	-0.92	0.050			
0.1262	8078.48	4.0410	4.0409	0.8708	25.04	-0.92	0.050			
0.1271	8134.37	4.0400	4.0400	0.8706	25.05	-0.91	0.050			
0.1280	8190.08	4.0390	4.0390	0.8702	25.06	-0.90	0.050			
0.1288	8245.67	4.0380	4.0380	0.8695	25.06	-0.90	0.050			
0.1297	8301.27	4.0370	4.0370	0.8708	25.06	-0.90	0.050			
0.1306	8357.10	4.0360	4.0360	0.8720	25.06	-0.90	0.050			
0.1315	8412.95	4.0350	4.0351	0.8734	25.06	-0.90	0.050			
0.1323	8468.69	4.0340	4.0341	0.8740	25.06	-0.90	0.050			
0.1332	8524.21	4.0330	4.0331	0.8744	25.06	-0.90	0.050			
0.1341	8579.86	4.0320	4.0320	0.8739	25.07	-0.89	0.050			
0.1349	8635.65	4.0310	4.0309	0.8751	25.07	-0.89	0.050			
0.1358	8691.43	4.0300	4.0300	0.8763	25.08	-0.88	0.050			
0.1367	8747.01	4.0290	4.0290	0.8778	25.07	-0.89	0.050			
0.1376	8803.25	4.0280	4.0279	0.8802	25.08	-0.88	0.050	0.200	0.403	
0.1384	8859.82	4.0270	4.0271	0.8827	25.08	-0.88	0.050			
0.1393	8916.41	4.0260	4.0259	0.8846	25.08	-0.88	0.050			
0.1402	8972.99	4.0250	4.0251	0.8866	25.08	-0.88	0.050			
0.1411	9029.97	4.0240	4.0240	0.8889	25.09	-0.87	0.050			
0.1420	9087.40	4.0230	4.0230	0.8907	25.08	-0.88	0.050			
0.1429	9144.91	4.0220	4.0220	0.8918	25.08	-0.88	0.050			
0.1438	9202.26	4.0210	4.0209	0.8931	25.08	-0.88	0.050			
0.1447	9259.38	4.0200	4.0200	0.8950	25.08	-0.88	0.050			
0.1456	9316.86	4.0190	4.0190	0.8948	25.09	-0.87	0.050			
0.1465	9374.12	4.0180	4.0181	0.8948	25.08	-0.88	0.050			
0.1474	9431.34	4.0170	4.0170	0.8949	25.08	-0.88	0.050			
0.1483	9488.66	4.0160	4.0160	0.8969	25.08	-0.88	0.050			
0.1492	9545.75	4.0150	4.0151	0.8974	25.08	-0.88	0.050			
0.1501	9603.27	4.0140	4.0141	0.8991	25.08	-0.88	0.050			
0.1509	9660.72	4.0130	4.0130	0.9002	25.08	-0.88	0.050			
0.1518	9718.32	4.0120	4.0119	0.9014	25.08	-0.88	0.050			
0.1528	9776.24	4.0110	4.0110	0.9021	25.07	-0.89	0.050			
0.1537	9833.71	4.0100	4.0100	0.9020	25.07	-0.89	0.050			
0.1546	9891.41	4.0090	4.0090	0.9023	25.07	-0.89	0.050			
0.1555	9949.41	4.0080	4.0079	0.9026	25.06	-0.90	0.050			
0.1564	10007.36	4.0070	4.0070	0.9034	25.06	-0.90	0.050			
0.1573	10065.21	4.0060	4.0060	0.9040	25.06	-0.90	0.050			
0.1582	10123.07	4.0050	4.0050	0.9051	25.06	-0.90	0.050	0.327	0.493	
0.1591	10181.17	4.0040	4.0040	0.9059	25.06	-0.90	0.050			
0.1600	10239.51	4.0030	4.0030	0.9070	25.04	-0.92	0.050			
0.1609	10297.43	4.0020	4.0020	0.9084	25.04	-0.92	0.050			
0.1618	10355.49	4.0010	4.0009	0.9093	25.05	-0.91	0.050			
0.1627	10413.18	4.0000	4.0000	0.9103	25.04	-0.92	0.050			
0.1636	10471.21	3.9990	3.9989	0.9128	25.05	-0.91	0.050			
0.1645	10529.61	3.9980	3.9980	0.9142	25.04	-0.92	0.050			
0.1654	10587.95	3.9970	3.9969	0.9149	25.04	-0.92	0.050			
0.1664	10646.45	3.9960	3.9959	0.9156	25.04	-0.92	0.050			
0.1673	10705.25	3.9950	3.9950	0.9167	25.03	-0.93	0.050			
0.1682	10763.86	3.9940	3.9939	0.9172	25.02	-0.94	0.050			
0.1691	10823.03	3.9930	3.9931	0.9184	25.03	-0.93	0.050			
0.1700	10882.34	3.9920	3.9920	0.9195	25.02	-0.94	0.050			
0.1710	10941.53	3.9910	3.9909	0.9203	25.02	-0.94	0.050			
0.1719	11000.69	3.9900	3.9901	0.9211	25.02	-0.94	0.050			
0.1728	11059.73	3.9890	3.9891	0.9214	25.02	-0.94	0.050			
0.1737	11119.11	3.9880	3.9880	0.9218	25.02	-0.94	0.050			
0.1747	11178.21	3.9870	3.9870	0.9218	25.02	-0.94	0.050			
0.1756	11236.96	3.9860	3.9860	0.9216	25.02	-0.94	0.050			
0.1765	11295.71	3.9850	3.9850	0.9222	25.02	-0.94	0.050			
0.1774	11354.48	3.9840	3.9839	0.9224	25.03	-0.93	0.050			
0.1783	11413.52	3.9830	3.9831	0.9222	25.02	-0.94	0.050	0.318	0.532	
0.1793	11472.69	3.9820	3.9820	0.9218	25.02	-0.94	0.050			
0.1802	11531.54	3.9810	3.9809	0.9207	25.02	-0.94	0.050			
0.1811	11590.29	3.9800	3.9800	0.9206	25.02	-0.94	0.050			
0.1820	11649.26	3.9790	3.9789	0.9203	25.02	-0.94	0.050			
0.1829	11708.29	3.9780	3.9779	0.9204	25.02	-0.94	0.050			
0.1839	11767.57	3.9770	3.9770	0.9212	25.02	-0.94	0.050			
0.1848	11826.61	3.9760	3.9759	0.9207	25.02	-0.94	0.050			
0.1857	11885.73	3.9750	3.9750	0.9209	25.03	-0.93	0.050			
0.1866	11944.15	3.9740	3.9741	0.9223	25.02	-0.94	0.050			
0.1875	12003.14	3.9730	3.9732	0.9234	25.03	-0.93	0.050			
0.1885	12061.69	3.9720	3.9719	0.9249	25.03	-0.93	0.050			
0.1894	12120.57	3.9710	3.9709	0.9260	25.03	-0.93	0.050			
0.1903	12179.40	3.9700	3.9701	0.9280	25.04	-0.92	0.050			
0.1912	12238.19	3.9690	3.9690	0.9309	25.04	-0.92	0.050			
0.1922	12297.68	3.9680	3.9681	0.9335	25.04	-0.92	0.050			
0.1931	12357.27	3.9670	3.9670	0.9351	25.05	-0.91	0.050			
0.1940	12417.26	3.9660	3.9660	0.9382	25.06	-0.90	0.050			
0.1950	12477.28	3.9650	3.9649	0.9400	25.06	-0.90	0.050			
0.1959	12537.73	3.9640	3.9641	0.9430	25.06	-0.90	0.050			
0.1969	12599.09	3.9630	3.9630	0.9453	25.06	-0.90	0.050			
0.1978	12660.33	3.9620	3.9619	0.9490	25.07	-0.89	0.050	0.299	0.528	
0.1988	12721.26	3.9610	3.9610	0.9497	25.08	-0.88	0.050			
0.1997	12782.34	3.9600	3.9599	0.9507	25.08	-0.88	0.050			
0.2007	12843.94	3.9590	3.9591	0.9513	25.08	-0.88	0.050			
0.2016	12905.32	3.9580	3.9581	0.9516	25.09	-0.87	0.050			
0.2026	12966.57	3.9570	3.9571	0.9523	25.09	-0.87	0.050			
0.2036	13027.55	3.9560	3.9560	0.9520	25.09	-0.87	0.050			
0.2045	13088.32	3.9550	3.9550	0.9511	25.09	-0.87	0.050			
0.2054	13148.65	3.9540	3.9540	0.9502	25.10	-0.86	0.050			
0.2064	13209.42	3.9530	3.9529	0.9506	25.10	-0.86	0.050			
0.2073	13270.22	3.9520	3.9520	0.9495	25.09	-0.87	0.050			
0.2083	13330.35	3.9510	3.9510	0.9495	25.08	-0.88	0.050			
0.2092	13391.20	3.9500	3.9499	0.9494	25.08	-0.88	0.050			
0.2102	13451.75	3.9490	3.9490	0.9483	25.08	-0.88	0.050			
0.2111	13512.78	3.9480	3.9480	0.9488	25.08	-0.88	0.050			
0.2121	13573.51	3.9470	3.9469	0.9489	25.08	-0.88	0.050			
0.2130	13634.48	3.9460	3.9460	0.9494	25.07	-0.89	0.050			
0.2140	13694.97	3.9450	3.9449	0.9495	25.06	-0.90	0.050			
0.2149	13755.80	3.9440	3.9441	0.9503	25.06	-0.90	0.050			
0.2159	13816.64	3.9430	3.9430	0.9510	25.06	-0.90	0.050			
0.2168	13877.00	3.9420	3.9420	0.9529	25.06	-0.90	0.050			
0.2178	13937.91	3.9410	3.9409	0.9536	25.05	-0.91	0.050	0.304	0.611	
0.2187	13998.92	3.9400	3.9400	0.9553	25.04	-0.92	0.050			
0.2197	14060.03	3.9390	3.9389	0.9567	25.04	-0.92	0.050			
0.2206	14120.84	3.9380	3.9379	0.9586	25.03	-0.93	0.050			
0.2216	14181.86	3.9370	3.9370	0.9599	25.02	-0.94	0.050			
0.2226	14243.30	3.9360	3.9360	0.9619	25.02	-0.94	0.050			
0.2235	14305.16	3.9350	3.9350	0.9630	25.02	-0.94	0.050			
0.2245	14366.68	3.9340	3.9340	0.9650	25.02	-0.94	0.050			
0.2254	14428.32	3.9330	3.9330	0.9685	25.02	-0.94	0.050			
0.2264	14490.63	3.9320	3.9320	0.9711	25.01	-0.95	0.050			
0.2274	14552.89	3.9310	3.9310	0.9729	25.00	-0.96	0.050			
0.2284	14615.29	3.9300	3.9300	0.9744	25.00	-0.96	0.050			
0.2294	14678.40	3.9290	3.9290	0.9778	25.00	-0.96	0.050			
0.2303	14740.81	3.9280	3.9280	0.9795	25.00	-0.96	0.050			
0.2313	14804.06	3.9270	3.9270	0.9806	25.00	-0.96	0.050			
0.2323	14866.88	3.9260	3.9260	0.9824	25.00	-0.96	0.050			
0.2333	14929.81	3.9250	3.9250	0.9834	25.00	-0.96	0.050			
0.2343	14993.45	3.9240	3.9240	0.9822	25.00	-0.96	0.050			
0.2353	15056.51	3.9230	3.9231	0.9830	25.00	-0.96	0.050			
0.2362	15119.32	3.9220	3.9220	0.9822	25.01	-0.95	0.050			
0.2372	15182.50	3.9210	3.9210	0.9814	25.02	-0.94	0.050			
0.2382	15245.55	3.9200	3.9200	0.9819	25.01	-0.95	0.050	0.332	0.562	
0.2392	15308.33	3.9190	3.9191	0.9816	25.01	-0.95	0.050			
0.2402	15370.95	3.9180	3.9180	0.9814	25.02	-0.94	0.050			
0.2412	15433.97	3.9170	3.9169	0.9809	25.02	-0.94	0.050			
0.2421	15496.86	3.9160	3.9160	0.9805	25.02	-0.94	0.050			
0.2431	15559.30	3.9150	3.9150	0.9809	25.02	-0.94	0.050			
0.2441	15621.98	3.9140	3.9140	0.9799	25.02	-0.94	0.050			
0.2451	15684.24	3.9130	3.9130	0.9785	25.02	-0.94	0.050			
0.2460	15746.96	3.9120	3.9119	0.9791	25.02	-0.94	0.050			
0.2470	15809.57	3.9110	3.9109	0.9787	25.03	-0.93	0.050			
0.2480	15872.14	3.9100	3.9101	0.9787	25.02	-0.94	0.050			
0.2490	15934.81	3.9090	3.9090	0.9773	25.03	-0.93	0.050			
0.2500	15997.81	3.9080	3.9081	0.9761	25.04	-0.92	0.050			
0.2509	16060.59	3.9070	3.9069	0.9747	25.04	-0.92	0.050			
0.2519	16122.99	3.9060	3.9060	0.9745	25.04	-0.92	0.050			
0.2529	16185.63	3.9050	3.9051	0.9736	25.04	-0.92	0.050			
0.2539	16248.46	3.9040	3.9040	0.9739	25.04	-0.92	0.050			
0.2548	16310.14	3.9030	3.9030	0.9725	25.04	-0.92	0.050			
0.2558	16372.05	3.9020	3.9021	0.9735	25.04	-0.92	0.050			
0.2568	16433.81	3.9010	3.9010	0.9752	25.04	-0.92	0.050			
0.2577	16495.50	3.9000	3.9001	0.9756	25.04	-0.92	0.050	0.302	0.492	
0.2587	16557.52	3.8990	3.8989	0.9766	25.04	-0.92	0.050			
0.2597	16619.25	3.8980	3.8980	0.9798	25.04	-0.92	0.050			
0.2607	16681.60	3.8970	3.8970	0.9827	25.04	-0.92	0.050			
0.2616	16744.31	3.8960	3.8960	0.9853	25.05	-0.91	0.050			
0.2626	16807.08	3.8950	3.8950	0.9874	25.05	-0.91	0.050			
0.2636	16870.68	3.8940	3.8939	0.9901	25.05	-0.91	0.050			
0.2646	16934.45	3.8930	3.8930	0.9927	25.06	-0.90	0.050			
0.2656	16998.23	3.8920	3.8920	0.9949	25.06	-0.90	0.050			
0.2666	17062.76	3.8910	3.8910	0.9949	25.06	-0.90	0.050			
0.2676	17127.57	3.8900	3.8901	0.9966	25.06	-0.90	0.050			
0.2686	17192.44	3.8890	3.8890	0.9969	25.06	-0.90	0.050			
0.2696	17257.26	3.8880	3.8880	0.9968	25.05	-0.91	0.050			
0.2707	17321.72	3.8870	3.8870	0.9949	25.05	-0.91	0.050			
0.2717	17385.69	3.8860	3.8860	0.9922	25.06	-0.90	0.050			
0.2726	17449.31	3.8850	3.8850	0.9898	25.05	-0.91	0.050			
0.2736	17513.05	3.8840	3.8840	0.9866	25.05	-0.91	0.050			
0.2746	17575.89	3.8830	3.8831	0.9823	25.04	-0.92	0.050			
0.2756	17638.60	3.8820	3.8821	0.9788	25.04	-0.92	0.050			
0.2766	17700.76	3.8810	3.8810	0.9750	25.04	-0.92	0.050			
0.2775	17762.96	3.8800	3.8800	0.9713	25.03	-0.93	0.050			
0.2785	17825.02	3.8790	3.8790	0.9677	25.03	-0.93	0.050	0.344	0.486	
0.2795	17886.61	3.8780	3.8781	0.9611	25.02	-0.94	0.050			
0.2804	17947.92	3.8770	3.8769	0.9573	25.02	-0.94	0.050			
0.2814	18009.15	3.8760	3.8760	0.9545	25.02	-0.94	0.050			
0.2823	18070.22	3.8750	3.8751	0.9507	25.01	-0.95	0.050			
0.2833	18131.08	3.8740	3.8740	0.9462	25.00	-0.96	0.050			
0.2843	18192.18	3.8730	3.8730	0.9405	25.00	-0.96	0.050			
0.2852	18252.71	3.8720	3.8721	0.9353	24.99	-0.97	0.050			
0.2861	18313.32	3.8710	3.8710	0.9295	24.98	-0.98	0.050			
0.2871	18372.86	3.8700	3.8700	0.9237	24.97	-0.99	0.050			
0.2880	18431.88	3.8690	3.8690	0.9164	24.96	-1.00	0.050			
0.2889	18490.74	3.8680	3.8679	0.9089	24.96	-1.00	0.050			
0.2898	18548.60	3.8670	3.8670	0.9035	24.95	-1.01	0.050			
0.2907	18605.92	3.8660	3.8660	0.8963	24.96	-1.00	0.050			
0.2916	18662.96	3.8650	3.8651	0.8906	24.95	-1.01	0.050			
0.2925	18719.46	3.8640	3.8640	0.8840	24.95	-1.01	0.050			
0.2934	18775.95	3.8630	3.8630	0.8768	24.95	-1.01	0.050			
0.2942	18831.72	3.8620	3.8620	0.8684	24.95	-1.01	0.050			
0.2951	18887.24	3.8610	3.8610	0.8609	24.95	-1.01	0.050			
0.2960	18942.18	3.8600	3.8599	0.8537	24.95	-1.01	0.050			
0.2968	18996.61	3.8590	3.8590	0.8463	24.94	-1.02	0.050			
0.2977	19050.96	3.8580	3.8579	0.8385	24.95	-1.01	0.050	0.369	0.581	
0.2985	19104.41	3.8570	3.8571	0.8292	24.94	-1.02	0.050			
0.2993	19157.48	3.8560	3.8560	0.8200	24.95	-1.01	0.050			
0.3002	19209.90	3.8550	3.8550	0.8110	24.96	-1.00	0.050			
0.3010	19262.10	3.8540	3.8540	0.8033	24.95	-1.01	0.050			
0.3018	19313.97	3.8530	3.8530	0.7948	24.96	-1.00	0.050			
0.3026	19364.75	3.8520	3.8519	0.7859	24.96	-1.00	0.050			
0.3034	19414.85	3.8510	3.8510	0.7758	24.96	-1.00	0.050			
0.3041	19463.77	3.8500	3.8500	0.7677	24.96	-1.00	0.050			
0.3049	19512.29	3.8490	3.8490	0.7573	24.96	-1.00	0.050			
0.3056	19560.36	3.8480	3.8480	0.7484	24.96	-1.00	0.050			
0.3064	19606.99	3.8470	3.8470	0.7383	24.96	-1.00	0.050			
0.3071	19653.61	3.8460	3.8460	0.7298	24.96	-1.00	0.050			
0.3078	19699.67	3.8450	3.8448	0.7217	24.96	-1.00	0.050			
0.3085	19745.42	3.8440	3.8441	0.7149	24.96	-1.00	0.050			
0.3092	19790.62	3.8430	3.8430	0.7084	24.96	-1.00	0.050			
0.3099	19835.80	3.8420	3.8420	0.7022	24.96	-1.00	0.050			
0.3106	19879.73	3.8410	3.8410	0.6954	24.96	-1.00	0.050			
0.3113	19923.68	3.8400	3.8400	0.6892	24.96	-1.00	0.050			
0.3120	19967.34	3.8390	3.8391	0.6848	24.96	-1.00	0.050			
0.3127	20010.62	3.8380	3.8379	0.6811	24.95	-1.01	0.050			
0.3133	20053.71	3.8370	3.8370	0.6770	24.95	-1.01	0.050			
0.3140	20096.59	3.8360	3.8361	0.6748	24.94	-1.02	0.050			
0.3147	20139.24	3.8350	3.8350	0.6728	24.94	-1.02	0.050			
0.3153	20181.88	3.8340	3.8340	0.6696	24.94	-1.02	0.050			
0.3160	20223.94	3.8330	3.8330	0.6689	24.94	-1.02	0.050			
0.3167	20266.32	3.8320	3.8319	0.6684	24.93	-1.03	0.050			
0.3173	20308.52	3.8310	3.8309	0.6678	24.92	-1.04	0.050			
0.3180	20350.74	3.8300	3.8300	0.6667	24.92	-1.04	0.050	0.262	0.471	
0.3186	20393.13	3.8290	3.8291	0.6675	24.92	-1.04	0.050			
0.3193	20436.08	3.8280	3.8279	0.6687	24.91	-1.05	0.050			
0.3200	20478.48	3.8270	3.8269	0.6698	24.90	-1.06	0.050			
0.3206	20521.25	3.8260	3.8260	0.6711	24.90	-1.06	0.050			
0.3213	20564.25	3.8250	3.8251	0.6732	24.89	-1.07	0.050			
0.3220	20607.19	3.8240	3.8239	0.6753	24.87	-1.09	0.050			
0.3227	20650.26	3.8230	3.8230	0.6777	24.86	-1.10	0.050			
0.3233	20693.45	3.8220	3.8220	0.6810	24.86	-1.10	0.050			
0.3240	20736.99	3.8210	3.8210	0.6845	24.85	-1.11	0.050			
0.3247	20780.38	3.8200	3.8200	0.6883	24.83	-1.13	0.050			
0.3254	20824.32	3.8190	3.8190	0.6928	24.83	-1.13	0.050			
0.3261	20868.25	3.8180	3.8181	0.6969	24.82	-1.14	0.050			
0.3268	20912.67	3.8170	3.8170	0.7015	24.80	-1.16	0.050			
0.3275	20957.59	3.8160	3.8160	0.7066	24.78	-1.18	0.050			
0.3282	21002.59	3.8150	3.8149	0.7113	24.77	-1.19	0.050			
0.3289	21048.32	3.8140	3.8140	0.7170	24.75	-1.21	0.050			
0.3296	21094.01	3.8130	3.8129	0.7222	24.73	-1.23	0.050			
0.3303	21140.13	3.8120	3.8120	0.7289	24.71	-1.25	0.050			
0.3310	21186.80	3.8110	3.8110	0.7359	24.70	-1.26	0.050			
0.3318	21234.09	3.8100	3.8100	0.7429	24.68	-1.28	0.050			
0.3325	21282.14	3.8090	3.8090	0.7493	24.66	-1.30	0.050			
0.3333	21330.15	3.8080	3.8080	0.7562	24.63	-1.33	0.050			
0.3340	21378.69	3.8070	3.8070	0.7638	24.60	-1.36	0.050			
0.3348	21427.62	3.8060	3.8060	0.7705	24.58	-1.38	0.050			
0.3356	21477.26	3.8050	3.8050	0.7780	24.55	-1.41	0.050			
0.3364	21527.36	3.8040	3.8039	0.7846	24.53	-1.43	0.050			
0.3372	21577.86	3.8030	3.8030	0.7916	24.50	-1.46	0.050			
0.3379	21628.64	3.8020	3.8019	0.7978	24.47	-1.49	0.050			
0.3387	21679.89	3.8010	3.8011	0.8047	24.45	-1.51	0.050			
0.3396	21731.56	3.8000	3.8000	0.8122	24.43	-1.53	0.050			
0.3404	21784.03	3.7990	3.7990	0.8180	24.41	-1.55	0.050			
0.3412	21836.52	3.7980	3.7980	0.8271	24.40	-1.56	0.050			
0.3420	21889.55	3.7970	3.7970	0.8348	24.39	-1.57	0.050			
0.3429	21942.80	3.7960	3.7961	0.8436	24.38	-1.58	0.050			
0.3437	21997.29	3.7950	3.7950	0.8506	24.37	-1.59	0.050			
0.3446	22051.80	3.7940	3.7940	0.8581	24.37	-1.59	0.050			
0.3454	22107.07	3.7930	3.7931	0.8645	24.37	-1.59	0.050			
0.3463	22163.33	3.7920	3.7919	0.8689	24.38	-1.58	0.050			
0.3472	22219.53	3.7910	3.7910	0.8741	24.39	-1.57	0.050			
0.3481	22276.27	3.7900	3.7900	0.8806	24.41	-1.55	0.050			
0.3490	22333.19	3.7890	3.7888	0.8853	24.45	-1.51	0.050			
0.3498	22389.55	3.7880	3.7881	0.8936	24.49	-1.47	0.050			
0.3507	22446.32	3.7870	3.7871	0.9008	24.53	-1.43	0.050			
0.3516	22503.66	3.7860	3.7862	0.9081	24.59	-1.37	0.050			
0.3525	22561.84	3.7850	3.7850	0.9163	24.64	-1.32	0.050			
0.3534	22620.17	3.7840	3.7840	0.9249	24.71	-1.25	0.050			
0.3544	22679.38	3.7830	3.7830	0.9338	24.79	-1.17	0.050			
0.3553	22738.96	3.7820	3.7820	0.9420	24.86	-1.10	0.050			
0.3562	22798.75	3.7810	3.7808	0.9506	24.96	-1.00	0.050			
0.3572	22859.87	3.7800	3.7798	0.9602	25.05	-0.91	0.050			
0.3581	22921.04	3.7790	3.7790	0.9690	25.15	-0.81	0.050	0.154	0.371	
0.3591	22982.78	3.7780	3.7780	0.9784	25.25	-0.71	0.050			
0.3601	23045.63	3.7770	3.7770	0.9887	25.35	-0.61	0.050			
0.3611	23109.42	3.7760	3.7760	1.0002	25.46	-0.50	0.050			
0.3621	23174.45	3.7750	3.7751	1.0118	25.56	-0.40	0.050			
0.3631	23239.79	3.7740	3.7740	1.0231	25.66	-0.30	0.050			
0.3642	23306.20	3.7730	3.7730	1.0324	25.75	-0.21	0.050			
0.3652	23373.94	3.7720	3.7719	1.0426	25.83	-0.13	0.050			
0.3663	23441.35	3.7710	3.7710	1.0507	25.91	-0.05	0.050			
0.3673	23509.05	3.7700	3.7700	1.0572	25.96	-0.00	0.050			
0.3684	23577.05	3.7690	3.7690	1.0635	25.98	0.02	0.050			
0.3695	23645.49	3.7680	3.7680	1.0682	25.98	0.02	0.050			
0.3705	23714.78	3.7670	3.7671	1.0754	25.95	-0.01	0.050			
0.3716	23784.11	3.7660	3.7660	1.0819	25.90	-0.06	0.050			
0.3727	23853.82	3.7650	3.7650	1.0866	25.86	-0.10	0.050			
0.3738	23923.70	3.7640	3.7641	1.0920	25.82	-0.14	0.050			
0.3749	23994.22	3.7630	3.7629	1.0958	25.78	-0.18	0.050			
0.3760	24064.77	3.7620	3.7619	1.1005	25.75	-0.21	0.050			
0.3771	24135.00	3.7610	3.7611	1.1050	25.72	-0.24	0.050			
0.3782	24205.89	3.7600	3.7600	1.1095	25.68	-0.28	0.050	0.261	0.537	
0.3793	24276.42	3.7590	3.7590	1.1148	25.64	-0.32	0.050			
0.3804	24347.33	3.7580	3.7580	1.1200	25.62	-0.34	0.050			
0.3815	24418.69	3.7570	3.7571	1.1261	25.59	-0.37	0.050			
0.3827	24490.68	3.7560	3.7560	1.1329	25.58	-0.38	0.050			
0.3838	24563.11	3.7550	3.7550	1.1384	25.54	-0.42	0.050			
0.3849	24635.86	3.7540	3.7540	1.1448	25.49	-0.47	0.050			
0.3861	24709.83	3.7530	3.7530	1.1516	25.43	-0.53	0.050			
0.3872	24783.23	3.7520	3.7520	1.1592	25.35	-0.61	0.050			
0.3884	24857.26	3.7510	3.7510	1.1670	25.29	-0.67	0.050			
0.3896	24931.40	3.7500	3.7500	1.1770	25.23	-0.73	0.050			
0.3907	25007.08	3.7490	3.7491	1.1861	25.16	-0.80	0.050			
0.3919	25082.88	3.7480	3.7479	1.1963	25.09	-0.87	0.050			
0.3931	25159.55	3.7470	3.7470	1.2055	25.03	-0.93	0.050			
0.3943	25237.26	3.7460	3.7460	1.2150	24.97	-0.99	0.050			
0.3956	25315.62	3.7450	3.7450	1.2243	24.92	-1.04	0.050			
0.3968	25394.51	3.7440	3.7440	1.2330	24.86	-1.10	0.050			
0.3980	25474.06	3.7430	3.7430	1.2427	24.80	-1.16	0.050	0.428	0.678	
0.3993	25553.93	3.7420	3.7420	1.2504	24.74	-1.22	0.050			
0.4005	25634.56	3.7410	3.7409	1.2575	24.69	-1.27	0.050			
0.4018	25715.63	3.7400	3.7401	1.2647	24.64	-1.32	0.050			
0.4031	25796.94	3.7390	3.7389	1.2727	24.61	-1.35	0.050			
0.4044	25879.02	3.7380	3.7380	1.2807	24.58	-1.38	0.050			
0.4056	25961.31	3.7370	3.7370	1.2893	24.55	-1.41	0.050			
0.4069	26044.52	3.7360	3.7360	1.2969	24.54	-1.42	0.050			
0.4083	26128.69	3.7350	3.7350	1.3024	24.52	-1.44	0.050			
0.4096	26212.32	3.7340	3.7339	1.3079	24.52	-1.44	0.050			
0.4109	26295.93	3.7330	3.7330	1.3144	24.54	-1.42	0.050			
0.4122	26378.48	3.7320	3.7320	1.3234	24.55	-1.41	0.050			
0.4135	26462.04	3.7310	3.7310	1.3339	24.58	-1.38	0.050			
0.4148	26546.40	3.7300	3.7299	1.3444	24.63	-1.33	0.050			
0.4161	26632.64	3.7290	3.7290	1.3559	24.67	-1.29	0.050			
0.4175	26718.70	3.7280	3.7281	1.3677	24.76	-1.20	0.050	0.277	0.517	
0.4189	26806.51	3.7270	3.7270	1.3799	24.84	-1.12	0.050			
0.4202	26895.14	3.7260	3.7259	1.3921	24.95	-1.01	0.050			
0.4216	26983.85	3.7250	3.7250	1.4042	25.05	-0.91	0.050			
0.4230	27074.26	3.7240	3.7239	1.4201	25.18	-0.78	0.050			
0.4245	27165.41	3.7230	3.7230	1.4334	25.30	-0.66	0.050			
0.4259	27258.11	3.7220	3.7220	1.4470	25.43	-0.53	0.050			
0.4274	27351.31	3.7210	3.7210	1.4620	25.56	-0.40	0.050			
0.4288	27445.85	3.7200	3.7201	1.4747	25.67	-0.29	0.050			
0.4303	27541.25	3.7190	3.7190	1.4864	25.77	-0.19	0.050			
0.4318	27637.69	3.7180	3.7180	1.4982	25.84	-0.12	0.050			
0.4333	27734.37	3.7170	3.7170	1.5110	25.89	-0.07	0.050			
0.4349	27832.37	3.7160	3.7158	1.5238	25.87	-0.09	0.050			
0.4364	27930.59	3.7150	3.7150	1.5360	25.82	-0.14	0.050			
0.4379	28028.08	3.7140	3.7140	1.5474	25.76	-0.20	0.050	0.375	0.510	
0.4395	28126.85	3.7130	3.7129	1.5571	25.70	-0.26	0.050			
0.4410	28226.04	3.7120	3.7120	1.5672	25.63	-0.33	0.050			
0.4426	28326.51	3.7110	3.7111	1.5802	25.54	-0.42	0.050			
0.4442	28427.97	3.7100	3.7099	1.5950	25.44	-0.52	0.050			
0.4458	28530.54	3.7090	3.7089	1.6077	25.34	-0.62	0.050			
0.4474	28633.10	3.7080	3.7080	1.6220	25.25	-0.71	0.050			
0.4490	28737.05	3.7070	3.7070	1.6380	25.15	-0.81	0.050			
0.4506	28841.48	3.7060	3.7060	1.6524	25.06	-0.90	0.050			
0.4523	28946.83	3.7050	3.7050	1.6688	24.97	-0.99	0.050			
0.4540	29053.52	3.7040	3.7041	1.6869	24.88	-1.08	0.050			
0.4557	29162.42	3.7030	3.7030	1.7035	24.80	-1.16	0.050			
0.4574	29272.05	3.7020	3.7019	1.7190	24.73	-1.23	0.050	0.418	0.558	
0.4591	29383.18	3.7010	3.7011	1.7351	24.64	-1.32	0.050			
0.4609	29495.76	3.7000	3.7000	1.7523	24.57	-1.39	0.050			
0.4626	29609.20	3.6990	3.6989	1.7661	24.49	-1.47	0.050			
0.4644	29722.33	3.6980	3.6980	1.7811	24.41	-1.55	0.050			
0.4662	29837.61	3.6970	3.6970	1.7954	24.35	-1.61	0.050			
0.4680	29953.51	3.6960	3.6960	1.8081	24.29	-1.67	0.050			
0.4698	30069.92	3.6950	3.6951	1.8219	24.24	-1.72	0.050			
0.4717	30186.47	3.6940	3.6942	1.8371	24.22	-1.74	0.050			
0.4735	30303.62	3.6930	3.6930	1.8562	24.20	-1.76	0.050			
0.4753	30421.82	3.6920	3.6921	1.8740	24.22	-1.74	0.050			
0.4772	30540.50	3.6910	3.6909	1.8936	24.27	-1.69	0.050			
0.4791	30660.31	3.6900	3.6900	1.9147	24.33	-1.63	0.050	0.253	0.567	
0.4810	30781.73	3.6890	3.6890	1.9400	24.47	-1.49	0.050			
0.4829	30904.59	3.6880	3.6881	1.9628	24.61	-1.35	0.050			
0.4848	31029.35	3.6870	3.6870	1.9901	24.80	-1.16	0.050			
0.4868	31156.43	3.6860	3.6859	2.0167	25.02	-0.94	0.050			
0.4888	31284.97	3.6850	3.6850	2.0471	25.27	-0.69	0.050			
0.4909	31416.55	3.6840	3.6840	2.0799	25.52	-0.44	0.050			
0.4930	31550.94	3.6830	3.6831	2.1130	25.77	-0.19	0.050			
0.4951	31687.66	3.6820	3.6819	2.1452	25.99	0.03	0.050			
0.4973	31827.85	3.6810	3.6811	2.1737	26.14	0.18	0.050	0.338	0.495	
0.4995	31970.44	3.6800	3.6799	2.1999	26.16	0.20	0.050			
0.5018	32115.22	3.6790	3.6790	2.2218	26.06	0.10	0.050			
0.5041	32260.16	3.6780	3.6780	2.2449	25.95	-0.01	0.050			
0.5064	32406.76	3.6770	3.6770	2.2693	25.85	-0.11	0.050			
0.5086	32553.06	3.6760	3.6760	2.2905	25.74	-0.22	0.050			
0.5109	32699.52	3.6750	3.6750	2.3111	25.64	-0.32	0.050			
0.5132	32847.05	3.6740	3.6740	2.3309	25.53	-0.43	0.050			
0.5156	32996.38	3.6730	3.6731	2.3527	25.44	-0.52	0.050			
0.5179	33147.15	3.6720	3.6720	2.3754	25.34	-0.62	0.050	0.300	0.516	
0.5203	33298.06	3.6710	3.6710	2.4009	25.23	-0.73	0.050			
0.5227	33450.99	3.6700	3.6699	2.4248	25.08	-0.88	0.050			
0.5251	33605.45	3.6690	3.6689	2.4529	24.95	-1.01	0.050			
0.5275	33761.65	3.6680	3.6680	2.4803	24.82	-1.14	0.050			
0.5300	33919.64	3.6670	3.6671	2.5069	24.68	-1.28	0.050			
0.5325	34079.99	3.6660	3.6660	2.5340	24.56	-1.40	0.050			
0.5350	34242.71	3.6650	3.6650	2.5637	24.44	-1.52	0.050			
0.5376	34409.19	3.6640	3.6640	2.5919	24.29	-1.67	0.050	0.339	0.545	
0.5403	34578.03	3.6630	3.6629	2.6189	24.15	-1.81	0.050			
0.5430	34749.07	3.6620	3.6621	2.6563	24.02	-1.94	0.050			
0.5456	34919.94	3.6610	3.6610	2.6921	23.93	-2.03	0.050			
0.5483	35091.40	3.6600	3.6601	2.7270	23.87	-2.09	0.050			
0.5510	35265.59	3.6590	3.6591	2.7612	23.90	-2.06	0.050			
0.5538	35441.45	3.6580	3.6579	2.7956	24.03	-1.93	0.050			
0.5566	35620.50	3.6570	3.6570	2.8302	24.27	-1.69	0.050			
0.5594	35802.10	3.6560	3.6560	2.8654	24.58	-1.38	0.050	0.237	0.437	
0.5623	35985.30	3.6550	3.6548	2.9059	25.01	-0.95	0.050			
0.5652	36171.94	3.6540	3.6541	2.9435	25.50	-0.46	0.050			
0.5682	36362.38	3.6530	3.6530	2.9797	25.98	0.02	0.050			
0.5712	36555.63	3.6520	3.6521	3.0107	26.38	0.42	0.050			
0.5743	36752.67	3.6510	3.6510	3.0404	26.57	0.61	0.050			
0.5774	36951.21	3.6500	3.6501	3.0701	26.44	0.48	0.050	0.275	0.389	
0.5805	37150.68	3.6490	3.6490	3.0958	26.25	0.29	0.050			
0.5836	37352.43	3.6480	3.6480	3.1150	26.06	0.10	0.050			
0.5868	37552.59	3.6470	3.6470	3.1222	25.86	-0.10	0.050			
0.5899	37752.10	3.6460	3.6461	3.1185	25.65	-0.31	0.050			
0.5930	37953.33	3.6450	3.6449	3.1248	25.45	-0.51	0.050			
0.5962	38155.89	3.6440	3.6440	3.1270	25.26	-0.70	0.050			
0.5993	38358.24	3.6430	3.6430	3.1204	25.07	-0.89	0.050	0.370	0.482	
0.6025	38561.23	3.6420	3.6420	3.1031	24.88	-1.08	0.050			
0.6057	38762.36	3.6410	3.6410	3.0736	24.73	-1.23	0.050			
0.6088	38964.88	3.6400	3.6400	3.0341	24.56	-1.40	0.050			
0.6120	39165.67	3.6390	3.6389	2.9812	24.43	-1.53	0.050			
0.6150	39361.23	3.6380	3.6380	2.9228	24.28	-1.68	0.050			
0.6180	39549.27	3.6370	3.6371	2.8539	24.17	-1.79	0.050	0.344	0.633	
0.6208	39729.57	3.6360	3.6360	2.7728	24.08	-1.88	0.050			
0.6235	39902.30	3.6350	3.6352	2.6972	24.04	-1.92	0.050			
0.6261	40068.99	3.6340	3.6341	2.6224	24.07	-1.89	0.050			
0.6286	40228.39	3.6330	3.6331	2.5517	24.14	-1.82	0.050			
0.6310	40381.89	3.6320	3.6321	2.4836	24.27	-1.69	0.050			
0.6333	40533.12	3.6310	3.6309	2.4267	24.46	-1.50	0.050			
0.6356	40678.17	3.6300	3.6301	2.3743	24.69	-1.27	0.050			
0.6379	40823.78	3.6290	3.6289	2.3312	24.96	-1.00	0.050	0.238	0.439	
0.6401	40965.06	3.6280	3.6279	2.2976	25.25	-0.71	0.050			
0.6423	41108.77	3.6270	3.6269	2.2734	25.53	-0.43	0.050			
0.6445	41248.64	3.6260	3.6258	2.2451	25.79	-0.17	0.050			
0.6467	41390.55	3.6250	3.6248	2.2213	25.98	0.02	0.050			
0.6490	41534.41	3.6240	3.6239	2.1961	26.11	0.15	0.050			
0.6512	41677.24	3.6230	3.6230	2.1696	26.05	0.09	0.050			
0.6534	41820.45	3.6220	3.6220	2.1417	25.90	-0.06	0.050			
0.6557	41964.14	3.6210	3.6210	2.1073	25.77	-0.19	0.050			
0.6579	42104.03	3.6200	3.6200	2.0585	25.64	-0.32	0.050	0.371	0.563	
0.6600	42240.71	3.6190	3.6191	2.0025	25.51	-0.45	0.050			
0.6621	42374.82	3.6180	3.6181	1.9425	25.37	-0.59	0.050			
0.6641	42502.82	3.6170	3.6172	1.8729	25.26	-0.70	0.050			
0.6660	42626.15	3.6160	3.6162	1.8021	25.15	-0.81	0.050			
0.6678	42740.90	3.6150	3.6151	1.7258	25.04	-0.92	0.050			
0.6695	42849.88	3.6140	3.6141	1.6448	24.96	-1.00	0.050			
0.6711	42949.83	3.6130	3.6130	1.5682	24.87	-1.09	0.050			
0.6726	43044.14	3.6120	3.6120	1.4981	24.80	-1.16	0.050			
0.6739	43132.19	3.6110	3.6109	1.4332	24.73	-1.23	0.050			
0.6752	43214.22	3.6100	3.6100	1.3732	24.67	-1.29	0.050			
0.6765	43293.13	3.6090	3.6090	1.3230	24.62	-1.34	0.050			
0.6776	43368.19	3.6080	3.6079	1.2703	24.57	-1.39	0.050			
0.6788	43441.35	3.6070	3.6069	1.2354	24.52	-1.44	0.050	0.237	0.635	
0.6799	43512.67	3.6060	3.6059	1.2078	24.48	-1.48	0.050			
0.6810	43583.40	3.6050	3.6049	1.1869	24.46	-1.50	0.050			
0.6821	43653.76	3.6040	3.6039	1.1726	24.43	-1.53	0.050			
0.6832	43725.23	3.6030	3.6030	1.1666	24.40	-1.56	0.050			
0.6843	43796.92	3.6020	3.6020	1.1642	24.39	-1.57	0.050			
0.6855	43869.37	3.6010	3.6011	1.1663	24.36	-1.60	0.050			
0.6866	43942.26	3.6000	3.6000	1.1713	24.36	-1.60	0.050			
0.6878	44016.16	3.5990	3.5990	1.1774	24.36	-1.60	0.050			
0.6889	44091.17	3.5980	3.5979	1.1856	24.37	-1.59	0.050			
0.6901	44166.24	3.5970	3.5968	1.1981	24.39	-1.57	0.050			
0.6913	44242.73	3.5960	3.5959	1.2095	24.42	-1.54	0.050			
0.6925	44320.50	3.5950	3.5950	1.2199	24.48	-1.48	0.050			
0.6937	44399.21	3.5940	3.5940	1.2305	24.52	-1.44	0.050			
0.6950	44479.16	3.5930	3.5930	1.2399	24.60	-1.36	0.050			
0.6962	44559.86	3.5920	3.5920	1.2489	24.68	-1.28	0.050			
0.6975	44641.61	3.5910	3.5910	1.2557	24.78	-1.18	0.050			
0.6988	44724.15	3.5900	3.5899	1.2608	24.91	-1.05	0.050	0.440	0.570	
0.7001	44806.64	3.5890	3.5889	1.2649	25.05	-0.91	0.050			
0.7014	44889.36	3.5880	3.5878	1.2631	25.19	-0.77	0.050			
0.7027	44972.55	3.5870	3.5870	1.2607	25.33	-0.63	0.050			
0.7040	45055.26	3.5860	3.5861	1.2547	25.47	-0.49	0.050			
0.7053	45137.71	3.5850	3.5849	1.2468	25.62	-0.34	0.050			
0.7065	45218.61	3.5840	3.5840	1.2376	25.74	-0.22	0.050			
0.7078	45299.13	3.5830	3.5830	1.2255	25.85	-0.11	0.050			
0.7090	45378.47	3.5820	3.5820	1.2122	25.94	-0.02	0.050			
0.7103	45456.35	3.5810	3.5810	1.1976	25.99	0.03	0.050			
0.7115	45533.08	3.5800	3.5799	1.1808	26.03	0.07	0.050			
0.7126	45608.39	3.5790	3.5790	1.1643	26.02	0.06	0.050			
0.7138	45681.85	3.5780	3.5780	1.1466	25.95	-0.01	0.050			
0.7149	45753.56	3.5770	3.5771	1.1304	25.89	-0.07	0.050			
0.7160	45824.03	3.5760	3.5760	1.1173	25.81	-0.15	0.050			
0.7171	45894.28	3.5750	3.5750	1.1041	25.75	-0.21	0.050			
0.7182	45962.85	3.5740	3.5739	1.0931	25.69	-0.27	0.050	0.308	0.525	
0.7192	46030.62	3.5730	3.5731	1.0848	25.62	-0.34	0.050			
0.7203	46097.72	3.5720	3.5721	1.0780	25.55	-0.41	0.050			
0.7213	46165.35	3.5710	3.5710	1.0722	25.48	-0.48	0.050			
0.7224	46232.33	3.5700	3.5699	1.0690	25.41	-0.55	0.050			
0.7234	46299.99	3.5690	3.5689	1.0679	25.35	-0.61	0.050			
0.7245	46366.90	3.5680	3.5679	1.0672	25.28	-0.68	0.050			
0.7255	46434.15	3.5670	3.5669	1.0676	25.22	-0.74	0.050			
0.7266	46501.96	3.5660	3.5660	1.0694	25.14	-0.82	0.050			
0.7277	46570.54	3.5650	3.5650	1.0705	25.08	-0.88	0.050			
0.7287	46639.21	3.5640	3.5641	1.0729	25.01	-0.95	0.050			
0.7298	46708.39	3.5630	3.5630	1.0744	24.95	-1.01	0.050			
0.7309	46777.64	3.5620	3.5621	1.0772	24.89	-1.07	0.050			
0.7320	46847.56	3.5610	3.5611	1.0782	24.82	-1.14	0.050			
0.7331	46917.44	3.5600	3.5599	1.0803	24.75	-1.21	0.050			
0.7342	46987.08	3.5590	3.5589	1.0808	24.70	-1.26	0.050			
0.7353	47056.41	3.5580	3.5580	1.0799	24.64	-1.32	0.050			
0.7363	47125.72	3.5570	3.5571	1.0797	24.58	-1.38	0.050			
0.7374	47194.99	3.5560	3.5561	1.0781	24.52	-1.44	0.050			
0.7385	47264.10	3.5550	3.5551	1.0769	24.47	-1.49	0.050	0.449	0.598	
0.7396	47333.56	3.5540	3.5541	1.0739	24.42	-1.54	0.050			
0.7407	47402.40	3.5530	3.5530	1.0700	24.37	-1.59	0.050			
0.7417	47471.17	3.5520	3.5520	1.0665	24.32	-1.64	0.050			
0.7428	47539.46	3.5510	3.5510	1.0634	24.28	-1.68	0.050			
0.7439	47607.80	3.5500	3.5500	1.0586	24.23	-1.73	0.050			
0.7449	47675.31	3.5490	3.5491	1.0555	24.19	-1.77	0.050			
0.7460	47742.59	3.5480	3.5480	1.0505	24.16	-1.80	0.050			
0.7470	47809.69	3.5470	3.5471	1.0471	24.12	-1.84	0.050			
0.7481	47876.83	3.5460	3.5460	1.0436	24.09	-1.87	0.050			
0.7491	47943.08	3.5450	3.5451	1.0428	24.07	-1.89	0.050			
0.7501	48009.23	3.5440	3.5439	1.0397	24.04	-1.92	0.050			
0.7512	48075.40	3.5430	3.5430	1.0372	24.03	-1.93	0.050			
0.7522	48140.88	3.5420	3.5420	1.0350	24.03	-1.93	0.050			
0.7532	48207.00	3.5410	3.5410	1.0334	24.03	-1.93	0.050			
0.7543	48272.82	3.5400	3.5400	1.0312	24.04	-1.92	0.050			
0.7553	48338.16	3.5390	3.5391	1.0298	24.07	-1.89	0.050			
0.7563	48403.54	3.5380	3.5379	1.0293	24.10	-1.86	0.050			
0.7573	48468.69	3.5370	3.5370	1.0304	24.14	-1.82	0.050			
0.7583	48534.25	3.5360	3.5360	1.0337	24.20	-1.76	0.050	0.398	0.503	
0.7594	48599.10	3.5350	3.5351	1.0397	24.26	-1.70	0.050			
0.7604	48664.88	3.5340	3.5341	1.0476	24.35	-1.61	0.050			
0.7614	48730.59	3.5330	3.5331	1.0555	24.44	-1.52	0.050			
0.7625	48796.91	3.5320	3.5321	1.0642	24.54	-1.42	0.050			
0.7635	48864.12	3.5310	3.5310	1.0766	24.64	-1.32	0.050			
0.7646	48931.50	3.5300	3.5300	1.0898	24.76	-1.20	0.050			
0.7656	48999.28	3.5290	3.5290	1.1047	24.89	-1.07	0.050			
0.7667	49068.37	3.5280	3.5280	1.1266	25.03	-0.93	0.050			
0.7678	49138.73	3.5270	3.5270	1.1477	25.18	-0.78	0.050			
0.7689	49211.04	3.5260	3.5260	1.1745	25.34	-0.62	0.050			
0.7701	49283.41	3.5250	3.5251	1.2007	25.49	-0.47	0.050			
0.7712	49359.36	3.5240	3.5241	1.2349	25.65	-0.31	0.050			
0.7725	49437.64	3.5230	3.5230	1.2691	25.81	-0.15	0.050			
0.7737	49517.50	3.5220	3.5219	1.3073	25.94	-0.02	0.050			
0.7750	49601.25	3.5210	3.5209	1.3499	26.07	0.11	0.050			
0.7764	49687.41	3.5200	3.5201	1.3923	26.17	0.21	0.050			
0.7778	49777.85	3.5190	3.5189	1.4326	26.22	0.26	0.050	0.365	0.529	
0.7792	49870.90	3.5180	3.5180	1.4761	26.20	0.24	0.050			
0.7807	49967.09	3.5170	3.5170	1.5177	26.11	0.15	0.050			
0.7823	50066.58	3.5160	3.5159	1.5583	26.02	0.06	0.050			
0.7839	50168.11	3.5150	3.5150	1.5998	25.94	-0.02	0.050			
0.7855	50272.48	3.5140	3.5140	1.6451	25.85	-0.11	0.050			
0.7872	50378.88	3.5130	3.5129	1.6919	25.74	-0.22	0.050			
0.7889	50488.83	3.5120	3.5121	1.7372	25.65	-0.31	0.050			
0.7906	50600.56	3.5110	3.5111	1.7838	25.54	-0.42	0.050			
0.7924	50715.96	3.5100	3.5101	1.8280	25.43	-0.53	0.050			
0.7943	50834.31	3.5090	3.5090	1.8715	25.31	-0.65	0.050			
0.7962	50954.85	3.5080	3.5080	1.9158	25.19	-0.77	0.050			
0.7981	51079.04	3.5070	3.5069	1.9588	25.07	-0.89	0.050	0.391	0.584	
0.8001	51205.78	3.5060	3.5060	2.0011	24.95	-1.01	0.050			
0.8021	51335.59	3.5050	3.5049	2.0427	24.84	-1.12	0.050			
0.8042	51468.91	3.5040	3.5040	2.0810	24.72	-1.24	0.050			
0.8063	51605.76	3.5030	3.5030	2.1150	24.59	-1.37	0.050			
0.8085	51745.35	3.5020	3.5019	2.1449	24.49	-1.47	0.050			
0.8107	51887.58	3.5010	3.5011	2.1715	24.36	-1.60	0.050			
0.8130	52032.95	3.5000	3.5001	2.1928	24.27	-1.69	0.050			
0.8153	52180.82	3.4990	3.4991	2.2043	24.17	-1.79	0.050			
0.8176	52328.76	3.4980	3.4980	2.2032	24.08	-1.88	0.050	0.382	0.570	
0.8200	52476.96	3.4970	3.4970	2.1967	24.00	-1.96	0.050			
0.8222	52622.90	3.4960	3.4960	2.1777	23.95	-2.01	0.050			
0.8245	52765.96	3.4950	3.4950	2.1525	23.94	-2.02	0.050			
0.8267	52908.56	3.4940	3.4940	2.1137	23.96	-2.00	0.050			
0.8289	53049.86	3.4930	3.4929	2.0700	24.03	-1.93	0.050			
0.8310	53185.46	3.4920	3.4920	2.0185	24.14	-1.82	0.050			
0.8331	53319.65	3.4910	3.4911	1.9543	24.29	-1.67	0.050			
0.8351	53447.50	3.4900	3.4901	1.8835	24.49	-1.47	0.050			
0.8370	53570.20	3.4890	3.4889	1.7975	24.71	-1.25	0.050			
0.8388	53686.36	3.4880	3.4879	1.7117	24.97	-0.99	0.050	0.220	0.483	
0.8406	53796.07	3.4870	3.4870	1.6202	25.21	-0.75	0.050			
0.8422	53898.94	3.4860	3.4861	1.5253	25.45	-0.51	0.050			
0.8437	53995.61	3.4850	3.4852	1.4307	25.67	-0.29	0.050			
0.8451	54085.27	3.4840	3.4841	1.3369	25.85	-0.11	0.050			
0.8464	54166.90	3.4830	3.4831	1.2443	26.00	0.04	0.050			
0.8476	54243.62	3.4820	3.4821	1.1457	26.12	0.16	0.050			
0.8486	54312.20	3.4810	3.4810	1.0607	26.19	0.23	0.050			
0.8496	54374.46	3.4800	3.4800	0.9829	26.23	0.27	0.050			
0.8505	54432.59	3.4790	3.4789	0.8920	26.24	0.28	0.050			
0.8513	54480.34	3.4780	3.4778	0.8234	26.22	0.26	0.050			
0.8519	54521.29	3.4770	3.4769	0.7591	26.18	0.22	0.050			
0.8525	54561.12	3.4760	3.4757	0.6864	26.15	0.19	0.050			
0.8531	54595.90	3.4750	3.4748	0.6398	26.12	0.16	0.050			
0.8536	54629.33	3.4740	3.4738	0.5846	26.10	0.14	0.050			
0.8540	54658.34	3.4730	3.4729	0.5513	26.07	0.11	0.050			
0.8545	54690.35	3.4720	3.4718	0.5149	26.05	0.09	0.050			
0.8550	54717.01	3.4710	3.4709	0.4873	26.02	0.06	0.050			
0.8554	54744.18	3.4700	3.4699	0.4663	26.00	0.04	0.050			
0.8558	54770.02	3.4690	3.4689	0.4402	25.98	0.02	0.050			
0.8562	54795.08	3.4680	3.4680	0.4246	25.96	-0.00	0.050			
0.8566	54820.60	3.4670	3.4670	0.4083	25.93	-0.03	0.050			
0.8569	54844.45	3.4660	3.4659	0.3969	25.91	-0.05	0.050			
0.8573	54868.65	3.4650	3.4649	0.3846	25.89	-0.07	0.050			
0.8577	54891.63	3.4640	3.4640	0.3754	25.87	-0.09	0.050			
0.8580	54914.74	3.4630	3.4630	0.3657	25.85	-0.11	0.050			
0.8584	54937.39	3.4620	3.4620	0.3602	25.83	-0.13	0.050	0.340	0.578	
0.8587	54959.73	3.4610	3.4610	0.3525	25.81	-0.15	0.050			
0.8591	54981.11	3.4600	3.4601	0.3461	25.79	-0.17	0.050			
0.8594	55003.09	3.4590	3.4589	0.3409	25.77	-0.19	0.050			
0.8598	55024.16	3.4580	3.4579	0.3357	25.75	-0.21	0.050			
0.8601	55045.15	3.4570	3.4570	0.3304	25.73	-0.23	0.050			
0.8604	55066.01	3.4560	3.4560	0.3267	25.71	-0.25	0.050			
0.8607	55086.64	3.4550	3.4550	0.3224	25.69	-0.27	0.050			
0.8610	55107.03	3.4540	3.4540	0.3190	25.67	-0.29	0.050			
0.8614	55127.11	3.4530	3.4529	0.3148	25.66	-0.30	0.050			
0.8617	55147.01	3.4520	3.4520	0.3118	25.64	-0.32	0.050			
0.8620	55166.60	3.4510	3.4510	0.3080	25.62	-0.34	0.050			
0.8623	55185.93	3.4500	3.4500	0.3050	25.60	-0.36	0.050			
0.8626	55205.36	3.4490	3.4490	0.3022	25.58	-0.38	0.050			
0.8629	55224.69	3.4480	3.4480	0.2995	25.56	-0.40	0.050			
0.8632	55243.67	3.4470	3.4469	0.2969	25.55	-0.41	0.050			
0.8635	55262.39	3.4460	3.4460	0.2938	25.53	-0.43	0.050			
0.8638	55281.02	3.4450	3.4450	0.2915	25.51	-0.45	0.050			
0.8641	55299.50	3.4440	3.4441	0.2888	25.49	-0.47	0.050			
0.8643	55317.84	3.4430	3.4430	0.2866	25.47	-0.49	0.050			
0.8646	55336.05	3.4420	3.4420	0.2841	25.46	-0.50	0.050			
0.8649	55354.16	3.4410	3.4410	0.2818	25.44	-0.52	0.050			
0.8652	55371.92	3.4400	3.4400	0.2792	25.43	-0.53	0.050			
0.8655	55389.72	3.4390	3.4390	0.2771	25.41	-0.55	0.050			
0.8657	55407.36	3.4380	3.4380	0.2752	25.39	-0.57	0.050			
0.8660	55424.91	3.4370	3.4370	0.2731	25.38	-0.58	0.050			
0.8663	55442.36	3.4360	3.4360	0.2711	25.36	-0.60	0.050			
0.8666	55459.51	3.4350	3.4350	0.2696	25.34	-0.62	0.050			
0.8668	55476.62	3.4340	3.4339	0.2675	25.33	-0.63	0.050			
0.8671	55493.40	3.4330	3.4330	0.2666	25.32	-0.64	0.050			
0.8673	55510.31	3.4320	3.4321	0.2649	25.31	-0.65	0.050			
0.8676	55527.03	3.4310	3.4311	0.2640	25.29	-0.67	0.050			
0.8679	55543.67	3.4300	3.4300	0.2622	25.28	-0.68	0.050			
0.8681	55560.42	3.4290	3.4290	0.2613	25.26	-0.70	0.050			
0.8684	55577.10	3.4280	3.4280	0.2603	25.24	-0.72	0.050			
0.8686	55593.51	3.4270	3.4269	0.2590	25.23	-0.73	0.050			
0.8689	55610.23	3.4260	3.4259	0.2577	25.21	-0.75	0.050			
0.8692	55626.66	3.4250	3.4251	0.2567	25.20	-0.76	0.050			
0.8694	55643.05	3.4240	3.4240	0.2558	25.18	-0.78	0.050			
0.8697	55659.47	3.4230	3.4229	0.2546	25.16	-0.80	0.050			
0.8699	55675.73	3.4220	3.4220	0.2536	25.14	-0.82	0.050			
0.8702	55691.92	3.4210	3.4210	0.2526	25.13	-0.83	0.050			
0.8704	55708.38	3.4200	3.4200	0.2511	25.12	-0.84	0.050			
0.8707	55724.41	3.4190	3.4190	0.2497	25.10	-0.86	0.050			
0.8709	55740.55	3.4180	3.4181	0.2491	25.09	-0.87	0.050			
0.8712	55756.44	3.4170	3.4171	0.2475	25.08	-0.88	0.050			
0.8714	55772.23	3.4160	3.4160	0.2460	25.07	-0.89	0.050			
0.8717	55787.88	3.4150	3.4150	0.2452	25.06	-0.90	0.050			
0.8719	55803.53	3.4140	3.4140	0.2438	25.04	-0.92	0.050			
0.8722	55819.01	3.4130	3.4130	0.2422	25.02	-0.94	0.050			
0.8724	55834.38	3.4120	3.4119	0.2411	25.00	-0.96	0.050			
0.8726	55849.52	3.4110	3.4111	0.2393	24.99	-0.97	0.050			
0.8729	55864.88	3.4100	3.4101	0.2381	24.98	-0.98	0.050			
0.8731	55880.08	3.4090	3.4090	0.2370	24.98	-0.98	0.050			
0.8734	55895.12	3.4080	3.4079	0.2357	24.97	-0.99	0.050			
0.8736	55910.20	3.4070	3.4069	0.2346	24.95	-1.01	0.050			
0.8738	55925.16	3.4060	3.4060	0.2336	24.94	-1.02	0.050			
0.8741	55940.08	3.4050	3.4050	0.2325	24.92	-1.04	0.050			
0.8743	55954.84	3.4040	3.4040	0.2318	24.91	-1.05	0.050			
0.8745	55969.67	3.4030	3.4030	0.2310	24.90	-1.06	0.050			
0.8748	55984.42	3.4020	3.4021	0.2300	24.88	-1.08	0.050			
0.8750	55999.08	3.4010	3.4010	0.2292	24.87	-1.09	0.050			
0.8752	56013.65	3.4000	3.4001	0.2282	24.86	-1.10	0.050			
0.8754	56028.28	3.3990	3.3990	0.2272	24.85	-1.11	0.050			
0.8757	56042.88	3.3980	3.3980	0.2266	24.84	-1.12	0.050			
0.8759	56057.35	3.3970	3.3970	0.2256	24.82	-1.14	0.050			
0.8761	56071.76	3.3960	3.3959	0.2247	24.81	-1.15	0.050			
0.8763	56086.21	3.3950	3.3949	0.2227	24.80	-1.16	0.050			
0.8766	56100.43	3.3940	3.3940	0.2216	24.78	-1.18	0.050			
0.8768	56114.47	3.3930	3.3930	0.2208	24.77	-1.19	0.050			
0.8770	56128.52	3.3920	3.3920	0.2197	24.76	-1.20	0.050			
0.8772	56142.55	3.3910	3.3911	0.2187	24.75	-1.21	0.050			
0.8774	56156.52	3.3900	3.3901	0.2180	24.74	-1.22	0.050			
0.8777	56170.44	3.3890	3.3891	0.2170	24.73	-1.23	0.050			
0.8779	56184.29	3.3880	3.3880	0.2160	24.72	-1.24	0.050			
0.8781	56198.07	3.3870	3.3870	0.2154	24.71	-1.25	0.050			
0.8783	56211.82	3.3860	3.3861	0.2144	24.70	-1.26	0.050			
0.8785	56225.51	3.3850	3.3850	0.2134	24.69	-1.27	0.050	0.354	0.576	
0.8787	56239.04	3.3840	3.3839	0.2122	24.68	-1.28	0.050			
0.8789	56252.60	3.3830	3.3829	0.2113	24.67	-1.29	0.050			
0.8792	56266.09	3.3820	3.3818	0.2104	24.66	-1.30	0.050			
0.8794	56279.42	3.3810	3.3810	0.2090	24.65	-1.31	0.050			
0.8796	56292.77	3.3800	3.3800	0.2082	24.64	-1.32	0.050			
0.8798	56306.04	3.3790	3.3791	0.2073	24.63	-1.33	0.050			
0.8800	56319.29	3.3780	3.3780	0.2065	24.62	-1.34	0.050			
0.8802	56332.49	3.3770	3.3770	0.2057	24.61	-1.35	0.050			
0.8804	56345.63	3.3760	3.3761	0.2049	24.60	-1.36	0.050			
0.8806	56358.85	3.3750	3.3751	0.2042	24.59	-1.37	0.050			
0.8808	56371.81	3.3740	3.3740	0.2036	24.58	-1.38	0.050			
0.8810	56385.01	3.3730	3.3730	0.2033	24.57	-1.39	0.050			
0.8812	56397.98	3.3720	3.3720	0.2022	24.56	-1.40	0.050			
0.8814	56410.77	3.3710	3.3710	0.2016	24.55	-1.41	0.050			
0.8816	56423.40	3.3700	3.3700	0.2001	24.54	-1.42	0.050			
0.8818	56436.18	3.3690	3.3690	0.1994	24.53	-1.43	0.050			
0.8820	56448.96	3.3680	3.3680	0.1986	24.53	-1.43	0.050			
0.8822	56461.61	3.3670	3.3670	0.1978	24.52	-1.44	0.050			
0.8824	56474.25	3.3660	3.3660	0.1971	24.51	-1.45	0.050			
0.8826	56486.84	3.3650	3.3650	0.1965	24.50	-1.46	0.050			
0.8828	56499.45	3.3640	3.3640	0.1955	24.50	-1.46	0.050			
0.8830	56511.94	3.3630	3.3630	0.1947	24.49	-1.47	0.050			
0.8832	56524.38	3.3620	3.3620	0.1940	24.48	-1.48	0.050			
0.8834	56536.84	3.3610	3.3610	0.1935	24.48	-1.48	0.050			
0.8836	56549.20	3.3600	3.3600	0.1927	24.47	-1.49	0.050			
0.8838	56561.51	3.3590	3.3590	0.1919	24.46	-1.50	0.050			
0.8840	56573.78	3.3580	3.3580	0.1910	24.45	-1.51	0.050			
0.8842	56586.05	3.3570	3.3571	0.1904	24.44	-1.52	0.050			
0.8843	56598.21	3.3560	3.3561	0.1895	24.43	-1.53	0.050			
0.8845	56610.31	3.3550	3.3549	0.1886	24.42	-1.54	0.050			
0.8847	56622.31	3.3540	3.3539	0.1878	24.41	-1.55	0.050			
0.8849	56634.30	3.3530	3.3529	0.1869	24.40	-1.56	0.050			
0.8851	56646.24	3.3520	3.3520	0.1861	24.39	-1.57	0.050			
0.8853	56658.09	3.3510	3.3510	0.1851	24.39	-1.57	0.050			
0.8855	56669.91	3.3500	3.3500	0.1843	24.38	-1.58	0.050			
0.8857	56681.68	3.3490	3.3490	0.1835	24.38	-1.58	0.050			
0.8858	56693.37	3.3480	3.3480	0.1826	24.37	-1.59	0.050			
0.8860	56704.93	3.3470	3.3471	0.1821	24.36	-1.60	0.050			
0.8862	56716.56	3.3460	3.3459	0.1815	24.36	-1.60	0.050			
0.8864	56728.15	3.3450	3.3450	0.1808	24.35	-1.61	0.050			
0.8866	56739.68	3.3440	3.3441	0.1801	24.34	-1.62	0.050			
0.8867	56751.18	3.3430	3.3430	0.1794	24.33	-1.63	0.050			
0.8869	56762.65	3.3420	3.3420	0.1788	24.33	-1.63	0.050			
0.8871	56774.04	3.3410	3.3410	0.1781	24.32	-1.64	0.050			
0.8873	56785.44	3.3400	3.3401	0.1774	24.31	-1.65	0.050			
0.8874	56796.77	3.3390	3.3389	0.1767	24.30	-1.66	0.050			
0.8876	56807.98	3.3380	3.3379	0.1759	24.29	-1.67	0.050			
0.8878	56819.22	3.3370	3.3370	0.1753	24.29	-1.67	0.050			
0.8880	56830.58	3.3360	3.3360	0.1742	24.28	-1.68	0.050			
0.8882	56841.70	3.3350	3.3350	0.1734	24.27	-1.69	0.050			
0.8883	56852.88	3.3340	3.3340	0.1729	24.27	-1.69	0.050			
0.8885	56863.81	3.3330	3.3331	0.1723	24.26	-1.70	0.050			
0.8887	56874.81	3.3320	3.3321	0.1715	24.26	-1.70	0.050			
0.8888	56885.81	3.3310	3.3310	0.1709	24.25	-1.71	0.050			
0.8890	56896.72	3.3300	3.3300	0.1701	24.24	-1.72	0.050			
0.8892	56907.47	3.3290	3.3290	0.1697	24.24	-1.72	0.050			
0.8893	56918.31	3.3280	3.3280	0.1690	24.23	-1.73	0.050			
0.8895	56929.10	3.3270	3.3270	0.1683	24.23	-1.73	0.050			
0.8897	56939.85	3.3260	3.3260	0.1677	24.23	-1.73	0.050			
0.8899	56950.54	3.3250	3.3250	0.1671	24.22	-1.74	0.050			
0.8900	56961.06	3.3240	3.3240	0.1660	24.22	-1.74	0.050			
0.8902	56971.67	3.3230	3.3229	0.1655	24.21	-1.75	0.050			
0.8903	56982.25	3.3220	3.3219	0.1650	24.20	-1.76	0.050			
0.8905	56992.83	3.3210	3.3210	0.1644	24.19	-1.77	0.050			
0.8907	57003.30	3.3200	3.3200	0.1638	24.19	-1.77	0.050			
0.8908	57013.76	3.3190	3.3190	0.1632	24.18	-1.78	0.050			
0.8910	57024.19	3.3180	3.3181	0.1627	24.17	-1.79	0.050			
0.8912	57034.66	3.3170	3.3170	0.1619	24.17	-1.79	0.050			
0.8913	57045.05	3.3160	3.3160	0.1614	24.17	-1.79	0.050			
0.8915	57055.36	3.3150	3.3150	0.1607	24.16	-1.80	0.050			
0.8917	57065.63	3.3140	3.3140	0.1601	24.16	-1.80	0.050			
0.8918	57075.99	3.3130	3.3130	0.1599	24.16	-1.80	0.050			
0.8920	57086.21	3.3120	3.3120	0.1592	24.15	-1.81	0.050			
0.8921	57096.37	3.3110	3.3110	0.1584	24.15	-1.81	0.050			
0.8923	57106.49	3.3100	3.3100	0.1577	24.14	-1.82	0.050			
0.8924	57116.39	3.3090	3.3091	0.1569	24.14	-1.82	0.050			
0.8926	57126.42	3.3080	3.3080	0.1563	24.14	-1.82	0.050			
0.8928	57136.40	3.3070	3.3070	0.1557	24.13	-1.83	0.050			
0.8929	57146.34	3.3060	3.3060	0.1551	24.13	-1.83	0.050			
0.8931	57156.16	3.3050	3.3049	0.1544	24.13	-1.83	0.050			
0.8932	57166.02	3.3040	3.3040	0.1538	24.12	-1.84	0.050			
0.8934	57175.85	3.3030	3.3030	0.1533	24.12	-1.84	0.050			
0.8935	57185.64	3.3020	3.3019	0.1528	24.11	-1.85	0.050			
0.8937	57195.46	3.3010	3.3010	0.1521	24.11	-1.85	0.050			
0.8938	57205.17	3.3000	3.3000	0.1515	24.11	-1.85	0.050			
0.8940	57214.85	3.2990	3.2990	0.1509	24.10	-1.86	0.050			
0.8941	57224.49	3.2980	3.2981	0.1503	24.10	-1.86	0.050			
0.8943	57234.09	3.2970	3.2970	0.1497	24.10	-1.86	0.050			
0.8944	57243.66	3.2960	3.2960	0.1491	24.10	-1.86	0.050			
0.8946	57253.19	3.2950	3.2950	0.1485	24.09	-1.87	0.050			
0.8947	57262.68	3.2940	3.2941	0.1479	24.09	-1.87	0.050			
0.8949	57272.21	3.2930	3.2930	0.1474	24.09	-1.87	0.050			
0.8950	57281.61	3.2920	3.2920	0.1468	24.09	-1.87	0.050			
0.8952	57290.99	3.2910	3.2910	0.1461	24.09	-1.87	0.050			
0.8953	57300.32	3.2900	3.2900	0.1455	24.09	-1.87	0.050			
0.8955	57309.60	3.2890	3.2890	0.1448	24.08	-1.88	0.050			
0.8956	57318.85	3.2880	3.2879	0.1442	24.08	-1.88	0.050			
0.8957	57327.92	3.2870	3.2870	0.1440	24.08	-1.88	0.050			
0.8959	57337.12	3.2860	3.2860	0.1434	24.08	-1.88	0.050			
0.8960	57346.20	3.2850	3.2850	0.1428	24.08	-1.88	0.050			
0.8962	57355.32	3.2840	3.2840	0.1423	24.08	-1.88	0.050			
0.8963	57364.46	3.2830	3.2830	0.1417	24.08	-1.88	0.050			
0.8965	57373.51	3.2820	3.2820	0.1413	24.08	-1.88	0.050			
0.8966	57382.49	3.2810	3.2811	0.1406	24.08	-1.88	0.050			
0.8967	57391.47	3.2800	3.2800	0.1402	24.08	-1.88	0.050			
0.8969	57400.43	3.2790	3.2789	0.1397	24.08	-1.88	0.050			
0.8970	57409.36	3.2780	3.2780	0.1393	24.08	-1.88	0.050			
0.8972	57418.27	3.2770	3.2770	0.1387	24.08	-1.88	0.050			
0.8973	57427.18	3.2760	3.2760	0.1383	24.08	-1.88	0.050			
0.8974	57436.02	3.2750	3.2750	0.1378	24.08	-1.88	0.050			
0.8976	57444.85	3.2740	3.2740	0.1372	24.08	-1.88	0.050			
0.8977	57453.62	3.2730	3.2730	0.1367	24.08	-1.88	0.050			
0.8978	57462.40	3.2720	3.2720	0.1362	24.08	-1.88	0.050			
0.8980	57471.10	3.2710	3.2710	0.1357	24.08	-1.88	0.050			
0.8981	57479.76	3.2700	3.2700	0.1351	24.08	-1.88	0.050			
0.8983	57488.33	3.2690	3.2689	0.1347	24.08	-1.88	0.050			
0.8984	57496.94	3.2680	3.2679	0.1342	24.08	-1.88	0.050			
0.8985	57505.55	3.2670	3.2669	0.1337	24.09	-1.87	0.050	0.294	0.599	
0.8987	57514.09	3.2660	3.2660	0.1332	24.09	-1.87	0.050			
0.8988	57522.59	3.2650	3.2650	0.1326	24.09	-1.87	0.050			
0.8989	57531.07	3.2640	3.2640	0.1320	24.10	-1.86	0.050			
0.8991	57539.42	3.2630	3.2630	0.1312	24.10	-1.86	0.050			
0.8992	57547.80	3.2620	3.2620	0.1307	24.10	-1.86	0.050			
0.8993	57556.15	3.2610	3.2609	0.1302	24.10	-1.86	0.050			
0.8994	57564.47	3.2600	3.2600	0.1297	24.11	-1.85	0.050			
0.8996	57572.74	3.2590	3.2590	0.1293	24.11	-1.85	0.050			
0.8997	57581.00	3.2580	3.2580	0.1288	24.11	-1.85	0.050			
0.8998	57589.24	3.2570	3.2570	0.1284	24.12	-1.84	0.050			
0.9000	57597.44	3.2560	3.2560	0.1279	24.12	-1.84	0.050			
0.9001	57605.62	3.2550	3.2550	0.1274	24.12	-1.84	0.050			
0.9002	57613.78	3.2540	3.2540	0.1269	24.13	-1.83	0.050			
0.9003	57621.88	3.2530	3.2530	0.1264	24.13	-1.83	0.050			
0.9005	57629.96	3.2520	3.2519	0.1259	24.13	-1.83	0.050			
0.9006	57638.00	3.2510	3.2509	0.1254	24.14	-1.82	0.050			
0.9007	57646.01	3.2500	3.2499	0.1249	24.14	-1.82	0.050			
0.9008	57653.99	3.2490	3.2490	0.1244	24.14	-1.82	0.050			
0.9010	57661.94	3.2480	3.2481	0.1239	24.14	-1.82	0.050			
0.9011	57669.85	3.2470	3.2471	0.1234	24.15	-1.81	0.050			
0.9012	57677.74	3.2460	3.2460	0.1229	24.15	-1.81	0.050			
0.9013	57685.59	3.2450	3.2450	0.1224	24.15	-1.81	0.050			
0.9015	57693.35	3.2440	3.2440	0.1219	24.16	-1.80	0.050			
0.9016	57701.09	3.2430	3.2431	0.1215	24.16	-1.80	0.050			
0.9017	57708.86	3.2420	3.2421	0.1211	24.16	-1.80	0.050			
0.9018	57716.59	3.2410	3.2411	0.1207	24.17	-1.79	0.050			
0.9019	57724.31	3.2400	3.2400	0.1203	24.18	-1.78	0.050			
0.9021	57732.01	3.2390	3.2389	0.1199	24.18	-1.78	0.050			
0.9022	57739.59	3.2380	3.2380	0.1196	24.19	-1.77	0.050			
0.9023	57747.23	3.2370	3.2370	0.1192	24.19	-1.77	0.050			
0.9024	57754.85	3.2360	3.2359	0.1188	24.20	-1.76	0.050			
0.9025	57762.44	3.2350	3.2350	0.1185	24.20	-1.76	0.050			
0.9027	57769.89	3.2340	3.2340	0.1179	24.21	-1.75	0.050			
0.9028	57777.43	3.2330	3.2330	0.1176	24.22	-1.74	0.050			
0.9029	57785.10	3.2320	3.2320	0.1169	24.22	-1.74	0.050			
0.9030	57792.57	3.2310	3.2310	0.1165	24.23	-1.73	0.050			
0.9031	57800.01	3.2300	3.2300	0.1160	24.23	-1.73	0.050			
0.9032	57807.53	3.2290	3.2290	0.1158	24.24	-1.72	0.050			
0.9034	57814.92	3.2280	3.2280	0.1153	24.25	-1.71	0.050			
0.9035	57822.34	3.2270	3.2270	0.1147	24.25	-1.71	0.050			
0.9036	57829.66	3.2260	3.2260	0.1141	24.26	-1.70	0.050			
0.9037	57836.95	3.2250	3.2250	0.1136	24.27	-1.69	0.050			
0.9038	57844.20	3.2240	3.2240	0.1131	24.28	-1.68	0.050			
0.9039	57851.56	3.2230	3.2229	0.1127	24.29	-1.67	0.050			
0.9040	57858.55	3.2220	3.2221	0.1124	24.29	-1.67	0.050			
0.9042	57865.73	3.2210	3.2212	0.1119	24.30	-1.66	0.050			
0.9043	57872.88	3.2200	3.2201	0.1114	24.31	-1.65	0.050			
0.9044	57879.99	3.2190	3.2190	0.1109	24.31	-1.65	0.050			
0.9045	57887.01	3.2180	3.2179	0.1103	24.32	-1.64	0.050			
0.9046	57894.06	3.2170	3.2169	0.1099	24.32	-1.64	0.050			
0.9047	57901.07	3.2160	3.2160	0.1094	24.33	-1.63	0.050			
0.9048	57908.02	3.2150	3.2150	0.1091	24.33	-1.63	0.050			
0.9049	57914.99	3.2140	3.2139	0.1087	24.34	-1.62	0.050			
0.9050	57921.94	3.2130	3.2129	0.1083	24.35	-1.61	0.050			
0.9051	57928.66	3.2120	3.2120	0.1076	24.35	-1.61	0.050			
0.9052	57935.54	3.2110	3.2110	0.1073	24.36	-1.60	0.050			
0.9053	57942.39	3.2100	3.2101	0.1070	24.37	-1.59	0.050			
0.9055	57949.22	3.2090	3.2091	0.1067	24.38	-1.58	0.050			
0.9056	57956.04	3.2080	3.2081	0.1064	24.38	-1.58	0.050			
0.9057	57962.87	3.2070	3.2070	0.1062	24.39	-1.57	0.050			
0.9058	57969.66	3.2060	3.2060	0.1059	24.40	-1.56	0.050			
0.9059	57976.42	3.2050	3.2050	0.1055	24.41	-1.55	0.050			
0.9060	57983.17	3.2040	3.2041	0.1052	24.41	-1.55	0.050			
0.9061	57989.97	3.2030	3.2030	0.1047	24.42	-1.54	0.050			
0.9062	57996.72	3.2020	3.2019	0.1045	24.43	-1.53	0.050			
0.9063	58003.40	3.2010	3.2009	0.1041	24.44	-1.52	0.050			
0.9064	58010.05	3.2000	3.2000	0.1037	24.44	-1.52	0.050			
0.9065	58016.67	3.1990	3.1990	0.1033	24.45	-1.51	0.050			
0.9066	58023.27	3.1980	3.1980	0.1029	24.46	-1.50	0.050			
0.9067	58029.84	3.1970	3.1970	0.1024	24.47	-1.49	0.050			
0.9068	58036.38	3.1960	3.1961	0.1020	24.48	-1.48	0.050			
0.9069	58042.90	3.1950	3.1950	0.1016	24.49	-1.47	0.050			
0.9070	58049.39	3.1940	3.1940	0.1012	24.50	-1.46	0.050			
0.9071	58055.85	3.1930	3.1930	0.1008	24.51	-1.45	0.050			
0.9072	58062.29	3.1920	3.1920	0.1004	24.52	-1.44	0.050			
0.9073	58068.70	3.1910	3.1910	0.1000	24.53	-1.43	0.050			
0.9074	58075.12	3.1900	3.1900	0.0994	24.54	-1.42	0.050			
0.9075	58081.54	3.1890	3.1890	0.0992	24.55	-1.41	0.050			
0.9076	58087.87	3.1880	3.1880	0.0987	24.56	-1.40	0.050			
0.9077	58094.17	3.1870	3.1870	0.0982	24.57	-1.39	0.050			
0.9078	58100.44	3.1860	3.1860	0.0977	24.58	-1.38	0.050			
0.9079	58106.68	3.1850	3.1850	0.0972	24.59	-1.37	0.050			
0.9080	58112.89	3.1840	3.1840	0.0967	24.60	-1.36	0.050			
0.9081	58118.91	3.1830	3.1830	0.0963	24.61	-1.35	0.050			
0.9082	58125.07	3.1820	3.1820	0.0959	24.62	-1.34	0.050			
0.9083	58131.19	3.1810	3.1810	0.0956	24.63	-1.33	0.050			
0.9084	58137.30	3.1800	3.1800	0.0952	24.64	-1.32	0.050			
0.9085	58143.38	3.1790	3.1790	0.0948	24.65	-1.31	0.050			
0.9086	58149.43	3.1780	3.1780	0.0944	24.66	-1.30	0.050			
0.9087	58155.40	3.1770	3.1770	0.0941	24.67	-1.29	0.050			
0.9088	58161.41	3.1760	3.1760	0.0937	24.68	-1.28	0.050			
0.9089	58167.40	3.1750	3.1750	0.0934	24.69	-1.27	0.050			
0.9090	58173.36	3.1740	3.1740	0.0930	24.70	-1.26	0.050			
0.9091	58179.31	3.1730	3.1730	0.0927	24.71	-1.25	0.050			
0.9091	58185.23	3.1720	3.1720	0.0923	24.72	-1.24	0.050			
0.9092	58191.13	3.1710	3.1710	0.0920	24.73	-1.23	0.050			
0.9093	58196.91	3.1700	3.1700	0.0916	24.74	-1.22	0.050			
0.9094	58202.76	3.1690	3.1690	0.0913	24.75	-1.21	0.050			
0.9095	58208.60	3.1680	3.1680	0.0910	24.76	-1.20	0.050			
0.9096	58214.41	3.1670	3.1670	0.0907	24.77	-1.19	0.050			
0.9097	58220.21	3.1660	3.1660	0.0905	24.79	-1.17	0.050			
0.9098	58225.99	3.1650	3.1651	0.0902	24.80	-1.16	0.050			
0.9099	58231.75	3.1640	3.1640	0.0899	24.81	-1.15	0.050			
0.9100	58237.55	3.1630	3.1630	0.0897	24.82	-1.14	0.050			
0.9101	58243.31	3.1620	3.1620	0.0893	24.83	-1.13	0.050			
0.9101	58249.02	3.1610	3.1610	0.0890	24.84	-1.12	0.050			
0.9102	58254.70	3.1600	3.1600	0.0886	24.85	-1.11	0.050			
0.9103	58260.36	3.1590	3.1590	0.0883	24.86	-1.10	0.050			
0.9104	58266.01	3.1580	3.1580	0.0880	24.87	-1.09	0.050			
0.9105	58271.62	3.1570	3.1570	0.0876	24.88	-1.08	0.050			
0.9106	58277.22	3.1560	3.1560	0.0873	24.89	-1.07	0.050			
0.9107	58282.79	3.1550	3.1550	0.0870	24.91	-1.05	0.050			
0.9108	58288.34	3.1540	3.1540	0.0867	24.92	-1.04	0.050			
0.9108	58293.88	3.1530	3.1530	0.0863	24.93	-1.03	0.050			
0.9109	58299.39	3.1520	3.1520	0.0860	24.94	-1.02	0.050			
0.9110	58304.89	3.1510	3.1511	0.0857	24.95	-1.01	0.050			
0.9111	58310.36	3.1500	3.1500	0.0854	24.96	-1.00	0.050			
0.9112	58315.82	3.1490	3.1490	0.0851	24.98	-0.98	0.050			
0.9113	58321.25	3.1480	3.1480	0.0847	24.99	-0.97	0.050			
0.9114	58326.66	3.1470	3.1470	0.0844	25.00	-0.96	0.050			
0.9114	58332.05	3.1460	3.1460	0.0841	25.01	-0.95	0.050			
0.9115	58337.42	3.1450	3.1450	0.0837	25.03	-0.93	0.050			
0.9116	58342.77	3.1440	3.1439	0.0834	25.04	-0.92	0.050			
0.9117	58348.05	3.1430	3.1429	0.0833	25.05	-0.91	0.050			
0.9118	58353.30	3.1420	3.1420	0.0828	25.06	-0.90	0.050			
0.9119	58358.59	3.1410	3.1410	0.0826	25.07	-0.89	0.050			
0.9119	58363.87	3.1400	3.1400	0.0823	25.08	-0.88	0.050			
0.9120	58369.13	3.1390	3.1390	0.0821	25.09	-0.87	0.050			
0.9121	58374.37	3.1380	3.1381	0.0818	25.10	-0.86	0.050			
0.9122	58379.60	3.1370	3.1371	0.0815	25.11	-0.85	0.050			
0.9123	58384.87	3.1360	3.1360	0.0811	25.12	-0.84	0.050			
0.9123	58390.08	3.1350	3.1350	0.0808	25.14	-0.82	0.050			
0.9124	58395.25	3.1340	3.1339	0.0805	25.15	-0.81	0.050			
0.9125	58400.39	3.1330	3.1330	0.0802	25.16	-0.80	0.050			
0.9126	58405.52	3.1320	3.1319	0.0799	25.17	-0.79	0.050			
0.9127	58410.62	3.1310	3.1311	0.0796	25.18	-0.78	0.050			
0.9127	58415.74	3.1300	3.1301	0.0793	25.19	-0.77	0.050			
0.9128	58420.80	3.1290	3.1291	0.0790	25.20	-0.76	0.050			
0.9129	58425.79	3.1280	3.1281	0.0787	25.21	-0.75	0.050			
0.9130	58430.82	3.1270	3.1271	0.0784	25.22	-0.74	0.050			
0.9131	58435.83	3.1260	3.1261	0.0781	25.24	-0.72	0.050			
0.9131	58440.83	3.1250	3.1250	0.0778	25.25	-0.71	0.050			
0.9132	58445.80	3.1240	3.1240	0.0775	25.26	-0.70	0.050			
0.9133	58450.78	3.1230	3.1230	0.0773	25.27	-0.69	0.050			
0.9134	58455.72	3.1220	3.1218	0.0770	25.28	-0.68	0.050			
0.9134	58460.48	3.1210	3.1209	0.0769	25.29	-0.67	0.050			
0.9135	58465.39	3.1200	3.1201	0.0766	25.30	-0.66	0.050			
0.9136	58470.29	3.1190	3.1190	0.0764	25.31	-0.65	0.050			
0.9137	58475.17	3.1180	3.1180	0.0762	25.32	-0.64	0.050			
0.9138	58480.04	3.1170	3.1170	0.0760	25.33	-0.63	0.050			
0.9138	58484.71	3.1160	3.1161	0.0754	25.34	-0.62	0.050			
0.9139	58489.54	3.1150	3.1151	0.0753	25.35	-0.61	0.050			
0.9140	58494.35	3.1140	3.1141	0.0752	25.36	-0.60	0.050			
0.9140	58499.16	3.1130	3.1131	0.0750	25.37	-0.59	0.050			
0.9141	58504.14	3.1120	3.1120	0.0744	25.38	-0.58	0.050			
0.9142	58508.90	3.1110	3.1109	0.0742	25.39	-0.57	0.050			
0.9143	58513.64	3.1100	3.1098	0.0740	25.41	-0.55	0.050			
0.9143	58518.37	3.1090	3.1090	0.0737	25.42	-0.54	0.050			
0.9144	58523.23	3.1080	3.1081	0.0737	25.43	-0.53	0.050			
0.9145	58527.94	3.1070	3.1071	0.0734	25.44	-0.52	0.050			
0.9146	58532.63	3.1060	3.1061	0.0731	25.45	-0.51	0.050			
0.9146	58537.29	3.1050	3.1051	0.0728	25.46	-0.50	0.050			
0.9147	58541.96	3.1040	3.1041	0.0724	25.47	-0.49	0.050			
0.9148	58546.58	3.1030	3.1031	0.0721	25.49	-0.47	0.050			
0.9149	58551.18	3.1020	3.1020	0.0717	25.50	-0.46	0.050			
0.9149	58555.86	3.1010	3.1010	0.0716	25.51	-0.45	0.050			
0.9150	58560.43	3.1000	3.1000	0.0712	25.51	-0.45	0.050			
0.9151	58564.97	3.0990	3.0990	0.0709	25.52	-0.44	0.050			
0.9151	58569.50	3.0980	3.0980	0.0705	25.52	-0.44	0.050			
0.9152	58574.00	3.0970	3.0970	0.0701	25.53	-0.43	0.050			
0.9153	58578.47	3.0960	3.0960	0.0697	25.54	-0.42	0.050			
0.9154	58582.82	3.0950	3.0950	0.0696	25.55	-0.41	0.050			
0.9154	58587.27	3.0940	3.0940	0.0693	25.56	-0.40	0.050			
0.9155	58591.69	3.0930	3.0930	0.0690	25.57	-0.39	0.050			
0.9156	58595.96	3.0920	3.0920	0.0684	25.58	-0.38	0.050			
0.9156	58600.33	3.0910	3.0910	0.0681	25.60	-0.36	0.050			
0.9157	58604.68	3.0900	3.0900	0.0679	25.61	-0.35	0.050			
0.9158	58609.02	3.0890	3.0889	0.0676	25.62	-0.34	0.050			
0.9158	58613.34	3.0880	3.0880	0.0673	25.62	-0.34	0.050			
0.9159	58617.64	3.0870	3.0870	0.0671	25.63	-0.33	0.050			
0.9160	58621.92	3.0860	3.0859	0.0668	25.64	-0.32	0.050			
0.9160	58626.19	3.0850	3.0850	0.0666	25.65	-0.31	0.050			
0.9161	58630.44	3.0840	3.0841	0.0663	25.66	-0.30	0.050			
0.9162	58634.67	3.0830	3.0831	0.0660	25.67	-0.29	0.050			
0.9162	58638.89	3.0820	3.0821	0.0658	25.68	-0.28	0.050			
0.9163	58643.09	3.0810	3.0810	0.0655	25.69	-0.27	0.050			
0.9164	58647.27	3.0800	3.0800	0.0652	25.70	-0.26	0.050			
0.9164	58651.44	3.0790	3.0790	0.0650	25.71	-0.25	0.050			
0.9165	58655.59	3.0780	3.0780	0.0647	25.72	-0.24	0.050			
0.9166	58659.72	3.0770	3.0770	0.0645	25.73	-0.23	0.050			
0.9166	58663.90	3.0760	3.0760	0.0640	25.74	-0.22	0.050			
0.9167	58668.04	3.0750	3.0750	0.0638	25.74	-0.22	0.050			
0.9168	58672.12	3.0740	3.0739	0.0635	25.75	-0.21	0.050			
0.9168	58676.17	3.0730	3.0730	0.0632	25.76	-0.20	0.050			
0.9169	58680.20	3.0720	3.0720	0.0628	25.77	-0.19	0.050			
0.9169	58684.21	3.0710	3.0711	0.0625	25.77	-0.19	0.050			
0.9170	58688.20	3.0700	3.0700	0.0622	25.78	-0.18	0.050			
0.9171	58692.17	3.0690	3.0690	0.0619	25.79	-0.17	0.050			
0.9171	58696.79	3.0680	3.0678	0.0600	25.80	-0.16	0.050			
0.9172	58700.61	3.0670	3.0669	0.0593	25.81	-0.15	0.050			
0.9173	58704.63	3.0660	3.0659	0.0602	25.82	-0.14	0.050			
0.9173	58708.46	3.0650	3.0649	0.0594	25.83	-0.13	0.050			
0.9174	58712.24	3.0640	3.0639	0.0586	25.84	-0.12	0.050			
0.9174	58715.96	3.0630	3.0630	0.0578	25.85	-0.11	0.050			
0.9175	58719.64	3.0620	3.0620	0.0571	25.86	-0.10	0.050			
0.9176	58723.27	3.0610	3.0611	0.0563	25.87	-0.09	0.050			
0.9176	58726.85	3.0600	3.0601	0.0555	25.87	-0.09	0.050			
0.9177	58730.37	3.0590	3.0591	0.0547	25.88	-0.08	0.050			
0.9177	58733.85	3.0580	3.0582	0.0540	25.89	-0.07	0.050			
0.9178	58737.28	3.0570	3.0573	0.0532	25.89	-0.07	0.050			
0.9178	58741.27	3.0560	3.0561	0.0531	25.90	-0.06	0.050			
0.9179	58744.64	3.0550	3.0552	0.0521	25.91	-0.05	0.050			
0.9179	58747.94	3.0540	3.0543	0.0511	25.92	-0.04	0.050			
0.9180	58751.18	3.0530	3.0534	0.0501	25.92	-0.04	0.050			
0.9180	58754.36	3.0520	3.0524	0.0491	25.93	-0.03	0.050			
0.9181	58757.47	3.0510	3.0516	0.0482	25.93	-0.03	0.050			
0.9181	58760.52	3.0500	3.0507	0.0472	25.94	-0.02	0.050			
0.9182	58763.51	3.0490	3.0498	0.0462	25.95	-0.01	0.050			
0.9182	58766.43	3.0480	3.0489	0.0452	25.95	-0.01	0.050			
0.9183	58769.30	3.0470	3.0480	0.0442	25.96	-0.00	0.050			
0.9183	58772.10	3.0460	3.0470	0.0433	25.96	0.00	0.050			
0.9184	58774.83	3.0450	3.0461	0.0423	25.97	0.01	0.050			
0.9184	58777.51	3.0440	3.0451	0.0413	25.97	0.01	0.050			
0.9184	58780.12	3.0430	3.0442	0.0403	25.98	0.02	0.050			
