Ah_balance (normalized)	Ah_balance (mAh)	Voltage - fit (V)	Voltage -  interpolate (V)	dQ/dV (1/V)	Temperature (°C)	Temperature - diff (°C)	Current (C)	R_DC 0ms (mOhm)	R_DC 50ms (mOhm)	R_DC 50 ms PEC (mOhm)
-0.0102	-655.86	4.1990	4.1990	0.8112	25.44	-0.03	0.050			
-0.0094	-604.03	4.1980	4.1981	0.8048	25.44	-0.03	0.050			
-0.0086	-552.57	4.1970	4.1970	0.8051	25.43	-0.04	0.050			
-0.0078	-501.11	4.1960	4.1960	0.8066	25.43	-0.04	0.050			
-0.0070	-449.35	4.1950	4.1951	0.8095	25.42	-0.05	0.050			
-0.0062	-397.47	4.1940	4.1940	0.8120	25.41	-0.06	0.050			
-0.0054	-345.19	4.1930	4.1930	0.8145	25.41	-0.06	0.050			
-0.0046	-292.70	4.1920	4.1920	0.8164	25.40	-0.07	0.050			
-0.0038	-240.41	4.1910	4.1910	0.8182	25.39	-0.08	0.050			
-0.0029	-187.92	4.1900	4.1900	0.8197	25.39	-0.08	0.050			
-0.0021	-135.13	4.1890	4.1889	0.8203	25.39	-0.08	0.050			
-0.0013	-82.43	4.1880	4.1880	0.8208	25.38	-0.09	0.050			
-0.0005	-29.42	4.1870	4.1870	0.8213	25.37	-0.10	0.050			
0.0004	23.47	4.1860	4.1860	0.8211	25.37	-0.10	0.050			
0.0012	76.61	4.1850	4.1850	0.8199	25.36	-0.11	0.050	0.293	0.648	
0.0020	129.53	4.1840	4.1840	0.8192	25.37	-0.10	0.050			
0.0028	182.23	4.1830	4.1830	0.8179	25.36	-0.11	0.050			
0.0037	234.66	4.1820	4.1820	0.8168	25.37	-0.10	0.050			
0.0045	287.22	4.1810	4.1811	0.8151	25.35	-0.12	0.050			
0.0053	339.50	4.1800	4.1800	0.8128	25.35	-0.12	0.050			
0.0061	391.59	4.1790	4.1790	0.8093	25.35	-0.12	0.050			
0.0069	443.30	4.1780	4.1780	0.8059	25.35	-0.12	0.050			
0.0077	494.97	4.1770	4.1770	0.8024	25.34	-0.13	0.050			
0.0085	546.32	4.1760	4.1760	0.7986	25.35	-0.12	0.050			
0.0093	597.48	4.1750	4.1749	0.7954	25.35	-0.12	0.050			
0.0101	648.19	4.1740	4.1740	0.7924	25.35	-0.12	0.050			
0.0109	698.09	4.1730	4.1731	0.7917	25.35	-0.12	0.050			
0.0117	748.07	4.1720	4.1720	0.7902	25.36	-0.11	0.050			
0.0125	797.62	4.1710	4.1710	0.7912	25.37	-0.10	0.050			
0.0132	847.69	4.1700	4.1701	0.7909	25.36	-0.11	0.050			
0.0140	897.69	4.1690	4.1690	0.7915	25.37	-0.10	0.050			
0.0148	947.89	4.1680	4.1681	0.7930	25.37	-0.10	0.050			
0.0156	998.66	4.1670	4.1670	0.7939	25.38	-0.09	0.050			
0.0164	1049.54	4.1660	4.1659	0.7948	25.39	-0.08	0.050			
0.0172	1100.19	4.1650	4.1649	0.7954	25.40	-0.07	0.050			
0.0180	1151.07	4.1640	4.1638	0.7963	25.41	-0.06	0.050			
0.0188	1202.34	4.1630	4.1630	0.7973	25.42	-0.05	0.050			
0.0196	1253.77	4.1620	4.1620	0.7976	25.42	-0.05	0.050			
0.0204	1305.32	4.1610	4.1611	0.7989	25.44	-0.03	0.050			
0.0212	1356.76	4.1600	4.1600	0.8009	25.46	-0.01	0.050	0.371	0.620	
0.0220	1408.33	4.1590	4.1591	0.8024	25.46	-0.01	0.050			
0.0228	1459.94	4.1580	4.1581	0.8050	25.47	0.00	0.050			
0.0236	1510.43	4.1570	4.1570	0.8112	25.47	0.00	0.050			
0.0244	1561.77	4.1560	4.1560	0.8152	25.48	0.01	0.050			
0.0252	1612.95	4.1550	4.1550	0.8202	25.49	0.02	0.050			
0.0260	1665.01	4.1540	4.1540	0.8236	25.50	0.03	0.050			
0.0268	1716.48	4.1530	4.1531	0.8263	25.50	0.03	0.050			
0.0276	1769.40	4.1520	4.1519	0.8308	25.51	0.04	0.050			
0.0285	1822.62	4.1510	4.1508	0.8336	25.51	0.04	0.050			
0.0293	1876.68	4.1500	4.1499	0.8380	25.51	0.04	0.050			
0.0302	1931.56	4.1490	4.1488	0.8401	25.51	0.04	0.050			
0.0310	1986.05	4.1480	4.1478	0.8429	25.50	0.03	0.050			
0.0319	2041.53	4.1470	4.1471	0.8466	25.49	0.02	0.050			
0.0328	2096.89	4.1460	4.1461	0.8465	25.49	0.02	0.050			
0.0336	2152.01	4.1450	4.1451	0.8471	25.47	0.00	0.050			
0.0345	2206.95	4.1440	4.1441	0.8463	25.48	0.01	0.050			
0.0353	2262.39	4.1430	4.1430	0.8471	25.47	-0.00	0.050			
0.0362	2317.12	4.1420	4.1422	0.8461	25.46	-0.01	0.050			
0.0371	2371.53	4.1410	4.1410	0.8431	25.45	-0.02	0.050			
0.0379	2424.79	4.1400	4.1400	0.8400	25.45	-0.02	0.050			
0.0387	2478.08	4.1390	4.1390	0.8363	25.45	-0.02	0.050			
0.0395	2530.83	4.1380	4.1379	0.8330	25.44	-0.03	0.050			
0.0403	2582.05	4.1370	4.1369	0.8298	25.42	-0.05	0.050			
0.0412	2634.62	4.1360	4.1360	0.8294	25.41	-0.06	0.050			
0.0420	2687.04	4.1350	4.1349	0.8297	25.41	-0.06	0.050	0.367	0.581	
0.0428	2739.61	4.1340	4.1340	0.8310	25.39	-0.08	0.050			
0.0436	2792.59	4.1330	4.1330	0.8331	25.39	-0.08	0.050			
0.0445	2845.33	4.1320	4.1320	0.8351	25.39	-0.08	0.050			
0.0453	2899.13	4.1310	4.1310	0.8380	25.37	-0.10	0.050			
0.0461	2953.00	4.1300	4.1300	0.8401	25.37	-0.10	0.050			
0.0470	3006.93	4.1290	4.1290	0.8410	25.37	-0.10	0.050			
0.0478	3061.59	4.1280	4.1279	0.8425	25.35	-0.12	0.050			
0.0487	3115.83	4.1270	4.1270	0.8427	25.33	-0.14	0.050			
0.0495	3170.56	4.1260	4.1260	0.8429	25.31	-0.16	0.050			
0.0504	3225.73	4.1250	4.1250	0.8398	25.31	-0.16	0.050			
0.0513	3280.20	4.1240	4.1240	0.8368	25.30	-0.17	0.050			
0.0521	3335.06	4.1230	4.1230	0.8331	25.29	-0.18	0.050			
0.0530	3389.02	4.1220	4.1221	0.8276	25.28	-0.19	0.050			
0.0538	3442.57	4.1210	4.1211	0.8216	25.27	-0.20	0.050			
0.0546	3495.96	4.1200	4.1200	0.8172	25.26	-0.21	0.050			
0.0554	3548.13	4.1190	4.1190	0.8107	25.25	-0.22	0.050			
0.0562	3599.27	4.1180	4.1181	0.8058	25.25	-0.22	0.050			
0.0570	3649.88	4.1170	4.1171	0.8000	25.25	-0.22	0.050			
0.0578	3700.08	4.1160	4.1161	0.7952	25.23	-0.24	0.050			
0.0586	3750.07	4.1150	4.1149	0.7920	25.23	-0.24	0.050			
0.0594	3798.50	4.1140	4.1140	0.7908	25.25	-0.22	0.050			
0.0601	3847.88	4.1130	4.1129	0.7897	25.25	-0.22	0.050			
0.0609	3896.57	4.1120	4.1119	0.7890	25.27	-0.20	0.050			
0.0617	3946.50	4.1110	4.1109	0.7904	25.28	-0.19	0.050	0.350	0.658	
0.0624	3996.74	4.1100	4.1099	0.7924	25.29	-0.18	0.050			
0.0632	4046.65	4.1090	4.1089	0.7935	25.29	-0.18	0.050			
0.0640	4097.91	4.1080	4.1080	0.7952	25.30	-0.17	0.050			
0.0648	4149.24	4.1070	4.1069	0.7989	25.31	-0.16	0.050			
0.0656	4200.66	4.1060	4.1060	0.8018	25.33	-0.14	0.050			
0.0665	4252.82	4.1050	4.1050	0.8064	25.34	-0.13	0.050			
0.0673	4304.89	4.1040	4.1041	0.8100	25.36	-0.11	0.050			
0.0681	4357.21	4.1030	4.1030	0.8141	25.37	-0.10	0.050			
0.0689	4410.02	4.1020	4.1021	0.8166	25.38	-0.09	0.050			
0.0697	4462.50	4.1010	4.1010	0.8188	25.40	-0.07	0.050			
0.0705	4514.90	4.1000	4.1000	0.8211	25.41	-0.06	0.050			
0.0714	4566.88	4.0990	4.0990	0.8244	25.42	-0.05	0.050			
0.0722	4619.27	4.0980	4.0980	0.8268	25.44	-0.03	0.050			
0.0730	4671.43	4.0970	4.0969	0.8308	25.45	-0.02	0.050			
0.0738	4724.27	4.0960	4.0959	0.8340	25.46	-0.01	0.050			
0.0746	4777.56	4.0950	4.0950	0.8374	25.47	0.00	0.050			
0.0755	4830.75	4.0940	4.0940	0.8402	25.47	0.00	0.050			
0.0763	4884.92	4.0930	4.0931	0.8441	25.48	0.01	0.050			
0.0772	4939.46	4.0920	4.0920	0.8475	25.49	0.02	0.050			
0.0780	4994.54	4.0910	4.0910	0.8511	25.49	0.02	0.050			
0.0789	5049.85	4.0900	4.0900	0.8529	25.48	0.01	0.050			
0.0798	5105.46	4.0890	4.0890	0.8540	25.47	0.00	0.050			
0.0806	5161.31	4.0880	4.0879	0.8557	25.47	0.00	0.050			
0.0815	5216.56	4.0870	4.0871	0.8554	25.46	-0.01	0.050	0.313	0.587	
0.0824	5271.60	4.0860	4.0861	0.8548	25.45	-0.02	0.050			
0.0832	5326.70	4.0850	4.0850	0.8546	25.45	-0.02	0.050			
0.0841	5381.69	4.0840	4.0840	0.8533	25.44	-0.03	0.050			
0.0849	5436.35	4.0830	4.0831	0.8520	25.43	-0.04	0.050			
0.0858	5491.51	4.0820	4.0820	0.8503	25.43	-0.04	0.050			
0.0867	5545.69	4.0810	4.0810	0.8473	25.42	-0.05	0.050			
0.0875	5599.13	4.0800	4.0801	0.8456	25.41	-0.06	0.050			
0.0883	5652.51	4.0790	4.0790	0.8430	25.41	-0.06	0.050			
0.0892	5705.85	4.0780	4.0778	0.8422	25.40	-0.07	0.050			
0.0900	5758.96	4.0770	4.0771	0.8414	25.39	-0.08	0.050			
0.0908	5812.42	4.0760	4.0760	0.8425	25.39	-0.08	0.050			
0.0917	5865.71	4.0750	4.0750	0.8434	25.38	-0.09	0.050			
0.0925	5919.18	4.0740	4.0741	0.8450	25.37	-0.10	0.050			
0.0933	5973.03	4.0730	4.0729	0.8463	25.36	-0.11	0.050			
0.0942	6027.35	4.0720	4.0719	0.8491	25.35	-0.12	0.050			
0.0950	6081.98	4.0710	4.0710	0.8511	25.35	-0.12	0.050			
0.0959	6137.53	4.0700	4.0700	0.8499	25.34	-0.13	0.050			
0.0968	6192.81	4.0690	4.0689	0.8495	25.33	-0.14	0.050			
0.0976	6248.26	4.0680	4.0679	0.8476	25.33	-0.14	0.050			
0.0985	6302.89	4.0670	4.0670	0.8443	25.31	-0.16	0.050			
0.0993	6357.61	4.0660	4.0661	0.8413	25.31	-0.16	0.050			
0.1002	6411.87	4.0650	4.0650	0.8384	25.31	-0.16	0.050			
0.1010	6466.20	4.0640	4.0640	0.8369	25.31	-0.16	0.050			
0.1019	6520.13	4.0630	4.0631	0.8338	25.30	-0.17	0.050	0.382	0.576	
0.1027	6573.04	4.0620	4.0621	0.8301	25.31	-0.16	0.050			
0.1035	6626.10	4.0610	4.0611	0.8271	25.31	-0.16	0.050			
0.1043	6677.74	4.0600	4.0601	0.8247	25.32	-0.15	0.050			
0.1052	6729.89	4.0590	4.0590	0.8223	25.33	-0.14	0.050			
0.1060	6781.34	4.0580	4.0579	0.8196	25.35	-0.12	0.050			
0.1068	6832.46	4.0570	4.0569	0.8192	25.35	-0.12	0.050			
0.1076	6883.90	4.0560	4.0560	0.8194	25.35	-0.12	0.050			
0.1084	6934.99	4.0550	4.0550	0.8201	25.37	-0.10	0.050			
0.1092	6986.82	4.0540	4.0540	0.8226	25.38	-0.09	0.050			
0.1100	7038.68	4.0530	4.0530	0.8255	25.39	-0.08	0.050			
0.1108	7090.75	4.0520	4.0520	0.8306	25.39	-0.08	0.050			
0.1116	7143.68	4.0510	4.0510	0.8378	25.40	-0.07	0.050			
0.1125	7197.96	4.0500	4.0501	0.8442	25.41	-0.06	0.050			
0.1133	7252.59	4.0490	4.0490	0.8506	25.41	-0.06	0.050			
0.1142	7307.63	4.0480	4.0480	0.8556	25.42	-0.05	0.050			
0.1151	7363.48	4.0470	4.0470	0.8585	25.43	-0.04	0.050			
0.1159	7419.05	4.0460	4.0460	0.8613	25.43	-0.04	0.050			
0.1168	7474.78	4.0450	4.0450	0.8642	25.43	-0.04	0.050			
0.1177	7531.13	4.0440	4.0439	0.8648	25.43	-0.04	0.050			
0.1185	7586.88	4.0430	4.0429	0.8664	25.43	-0.04	0.050			
0.1194	7643.27	4.0420	4.0420	0.8687	25.43	-0.04	0.050			
0.1203	7699.13	4.0410	4.0411	0.8695	25.43	-0.04	0.050			
0.1212	7754.85	4.0400	4.0400	0.8710	25.43	-0.04	0.050			
0.1220	7810.59	4.0390	4.0391	0.8719	25.43	-0.04	0.050	0.323	0.560	
0.1229	7866.23	4.0380	4.0380	0.8727	25.43	-0.04	0.050			
0.1238	7921.63	4.0370	4.0369	0.8739	25.43	-0.04	0.050			
0.1246	7977.29	4.0360	4.0360	0.8739	25.43	-0.04	0.050			
0.1255	8032.71	4.0350	4.0350	0.8754	25.43	-0.04	0.050			
0.1264	8088.33	4.0340	4.0339	0.8760	25.42	-0.05	0.050			
0.1273	8144.06	4.0330	4.0329	0.8772	25.42	-0.05	0.050			
0.1281	8199.83	4.0320	4.0320	0.8767	25.42	-0.05	0.050			
0.1290	8255.93	4.0310	4.0309	0.8790	25.42	-0.05	0.050			
0.1299	8312.59	4.0300	4.0301	0.8806	25.43	-0.04	0.050			
0.1308	8369.64	4.0290	4.0289	0.8826	25.42	-0.05	0.050			
0.1317	8426.39	4.0280	4.0281	0.8847	25.41	-0.06	0.050			
0.1326	8484.01	4.0270	4.0271	0.8869	25.41	-0.06	0.050			
0.1335	8541.22	4.0260	4.0260	0.8871	25.39	-0.08	0.050			
0.1343	8598.17	4.0250	4.0250	0.8879	25.39	-0.08	0.050			
0.1352	8655.33	4.0240	4.0240	0.8885	25.38	-0.09	0.050			
0.1361	8712.00	4.0230	4.0230	0.8883	25.38	-0.09	0.050			
0.1370	8768.80	4.0220	4.0220	0.8875	25.37	-0.10	0.050			
0.1379	8825.56	4.0210	4.0210	0.8870	25.36	-0.11	0.050			
0.1388	8882.59	4.0200	4.0201	0.8849	25.36	-0.11	0.050			
0.1397	8939.97	4.0190	4.0189	0.8821	25.35	-0.12	0.050			
0.1406	8996.74	4.0180	4.0181	0.8782	25.35	-0.12	0.050			
0.1415	9053.37	4.0170	4.0169	0.8750	25.34	-0.13	0.050	0.374	0.660	
0.1423	9109.61	4.0160	4.0159	0.8712	25.33	-0.14	0.050			
0.1432	9165.38	4.0150	4.0150	0.8680	25.33	-0.14	0.050			
0.1441	9220.79	4.0140	4.0140	0.8653	25.32	-0.15	0.050			
0.1449	9275.89	4.0130	4.0131	0.8628	25.32	-0.15	0.050			
0.1458	9330.93	4.0120	4.0120	0.8606	25.32	-0.15	0.050			
0.1466	9385.37	4.0110	4.0111	0.8602	25.32	-0.15	0.050			
0.1475	9439.67	4.0100	4.0101	0.8580	25.32	-0.15	0.050			
0.1483	9493.88	4.0090	4.0090	0.8585	25.33	-0.14	0.050			
0.1492	9548.51	4.0080	4.0079	0.8568	25.35	-0.12	0.050			
0.1500	9602.59	4.0070	4.0069	0.8554	25.35	-0.12	0.050			
0.1509	9656.77	4.0060	4.0059	0.8555	25.35	-0.12	0.050			
0.1517	9710.60	4.0050	4.0049	0.8547	25.37	-0.10	0.050			
0.1526	9764.73	4.0040	4.0039	0.8568	25.37	-0.10	0.050			
0.1534	9818.97	4.0030	4.0031	0.8594	25.39	-0.08	0.050			
0.1543	9873.53	4.0020	4.0020	0.8652	25.39	-0.08	0.050			
0.1551	9928.77	4.0010	4.0011	0.8704	25.39	-0.08	0.050			
0.1560	9984.47	4.0000	4.0001	0.8775	25.40	-0.07	0.050			
0.1569	10040.99	3.9990	3.9991	0.8841	25.41	-0.06	0.050			
0.1578	10098.14	3.9980	3.9980	0.8895	25.42	-0.05	0.050			
0.1587	10155.25	3.9970	3.9970	0.8933	25.42	-0.05	0.050			
0.1596	10212.44	3.9960	3.9959	0.8970	25.43	-0.04	0.050			
0.1605	10269.93	3.9950	3.9949	0.9014	25.44	-0.03	0.050			
0.1614	10327.92	3.9940	3.9940	0.9055	25.45	-0.02	0.050	0.341	0.536	
0.1623	10386.02	3.9930	3.9930	0.9089	25.45	-0.02	0.050			
0.1632	10444.70	3.9920	3.9920	0.9126	25.45	-0.02	0.050			
0.1641	10504.39	3.9910	3.9909	0.9143	25.45	-0.02	0.050			
0.1651	10563.72	3.9900	3.9901	0.9170	25.45	-0.02	0.050			
0.1660	10623.51	3.9890	3.9891	0.9193	25.45	-0.02	0.050			
0.1669	10683.02	3.9880	3.9881	0.9207	25.45	-0.02	0.050			
0.1679	10742.60	3.9870	3.9869	0.9210	25.45	-0.02	0.050			
0.1688	10801.83	3.9860	3.9860	0.9210	25.45	-0.02	0.050			
0.1697	10860.78	3.9850	3.9850	0.9195	25.44	-0.03	0.050			
0.1706	10919.42	3.9840	3.9841	0.9179	25.42	-0.05	0.050			
0.1715	10977.68	3.9830	3.9831	0.9176	25.41	-0.06	0.050			
0.1724	11035.62	3.9820	3.9820	0.9164	25.40	-0.07	0.050			
0.1733	11093.82	3.9810	3.9810	0.9166	25.39	-0.08	0.050			
0.1743	11152.23	3.9800	3.9800	0.9167	25.37	-0.10	0.050			
0.1752	11210.92	3.9790	3.9790	0.9180	25.37	-0.10	0.050			
0.1761	11269.84	3.9780	3.9780	0.9179	25.35	-0.12	0.050			
0.1770	11328.61	3.9770	3.9770	0.9185	25.34	-0.13	0.050			
0.1779	11387.07	3.9760	3.9760	0.9178	25.33	-0.14	0.050			
0.1788	11445.81	3.9750	3.9749	0.9182	25.33	-0.14	0.050			
0.1798	11504.71	3.9740	3.9740	0.9191	25.32	-0.15	0.050			
0.1807	11563.72	3.9730	3.9730	0.9201	25.31	-0.16	0.050			
0.1816	11623.08	3.9720	3.9720	0.9205	25.31	-0.16	0.050	0.235	0.599	
0.1825	11682.57	3.9710	3.9711	0.9210	25.32	-0.15	0.050			
0.1835	11742.08	3.9700	3.9700	0.9198	25.31	-0.16	0.050			
0.1844	11801.34	3.9690	3.9690	0.9175	25.31	-0.16	0.050			
0.1853	11860.33	3.9680	3.9679	0.9149	25.31	-0.16	0.050			
0.1862	11919.47	3.9670	3.9671	0.9128	25.32	-0.15	0.050			
0.1872	11977.82	3.9660	3.9660	0.9095	25.31	-0.16	0.050			
0.1881	12036.46	3.9650	3.9650	0.9068	25.32	-0.15	0.050			
0.1890	12094.35	3.9640	3.9641	0.9030	25.33	-0.14	0.050			
0.1899	12151.88	3.9630	3.9631	0.8988	25.33	-0.14	0.050			
0.1908	12209.03	3.9620	3.9621	0.8956	25.33	-0.14	0.050			
0.1917	12266.48	3.9610	3.9610	0.8921	25.33	-0.14	0.050			
0.1926	12323.72	3.9600	3.9600	0.8881	25.33	-0.14	0.050			
0.1934	12380.35	3.9590	3.9589	0.8841	25.35	-0.12	0.050			
0.1943	12436.93	3.9580	3.9580	0.8801	25.35	-0.12	0.050			
0.1952	12492.82	3.9570	3.9570	0.8755	25.37	-0.10	0.050			
0.1961	12548.50	3.9560	3.9560	0.8721	25.37	-0.10	0.050			
0.1969	12604.01	3.9550	3.9550	0.8686	25.37	-0.10	0.050			
0.1978	12658.77	3.9540	3.9540	0.8657	25.39	-0.08	0.050			
0.1987	12713.83	3.9530	3.9530	0.8646	25.39	-0.08	0.050			
0.1995	12767.85	3.9520	3.9521	0.8655	25.40	-0.07	0.050			
0.2004	12822.60	3.9510	3.9510	0.8671	25.41	-0.06	0.050			
0.2012	12876.80	3.9500	3.9500	0.8700	25.41	-0.06	0.050			
0.2021	12932.49	3.9490	3.9490	0.8719	25.43	-0.04	0.050	0.281	0.590	
0.2029	12988.07	3.9480	3.9479	0.8742	25.43	-0.04	0.050			
0.2038	13043.28	3.9470	3.9470	0.8756	25.44	-0.03	0.050			
0.2047	13099.54	3.9460	3.9460	0.8775	25.45	-0.02	0.050			
0.2056	13156.74	3.9450	3.9449	0.8768	25.45	-0.02	0.050			
0.2065	13213.51	3.9440	3.9439	0.8772	25.45	-0.02	0.050			
0.2073	13270.28	3.9430	3.9429	0.8770	25.45	-0.02	0.050			
0.2082	13327.50	3.9420	3.9420	0.8766	25.45	-0.02	0.050			
0.2091	13385.23	3.9410	3.9411	0.8727	25.44	-0.03	0.050			
0.2100	13443.00	3.9400	3.9401	0.8705	25.41	-0.06	0.050			
0.2109	13499.57	3.9390	3.9390	0.8640	25.42	-0.05	0.050			
0.2118	13555.67	3.9380	3.9380	0.8577	25.41	-0.06	0.050			
0.2127	13611.78	3.9370	3.9371	0.8521	25.41	-0.06	0.050			
0.2135	13666.48	3.9360	3.9360	0.8432	25.41	-0.06	0.050			
0.2144	13720.23	3.9350	3.9350	0.8337	25.41	-0.06	0.050			
0.2152	13773.33	3.9340	3.9340	0.8244	25.40	-0.07	0.050			
0.2160	13824.83	3.9330	3.9331	0.8153	25.39	-0.08	0.050			
0.2168	13875.59	3.9320	3.9320	0.8047	25.39	-0.08	0.050			
0.2176	13925.95	3.9310	3.9310	0.7966	25.39	-0.08	0.050			
0.2184	13975.75	3.9300	3.9300	0.7894	25.39	-0.08	0.050			
0.2192	14025.65	3.9290	3.9290	0.7834	25.37	-0.10	0.050			
0.2199	14075.13	3.9280	3.9280	0.7793	25.37	-0.10	0.050			
0.2207	14123.87	3.9270	3.9270	0.7725	25.37	-0.10	0.050			
0.2215	14173.31	3.9260	3.9260	0.7679	25.36	-0.11	0.050	0.323	0.577	
0.2222	14222.21	3.9250	3.9250	0.7633	25.36	-0.11	0.050			
0.2230	14270.81	3.9240	3.9240	0.7593	25.35	-0.12	0.050			
0.2237	14319.18	3.9230	3.9230	0.7554	25.36	-0.11	0.050			
0.2245	14367.50	3.9220	3.9220	0.7512	25.35	-0.12	0.050			
0.2253	14416.11	3.9210	3.9210	0.7467	25.33	-0.14	0.050			
0.2260	14464.35	3.9200	3.9201	0.7414	25.33	-0.14	0.050			
0.2268	14512.63	3.9190	3.9190	0.7341	25.33	-0.14	0.050			
0.2275	14559.57	3.9180	3.9181	0.7276	25.33	-0.14	0.050			
0.2282	14606.55	3.9170	3.9171	0.7201	25.32	-0.15	0.050			
0.2290	14652.86	3.9160	3.9160	0.7125	25.33	-0.14	0.050			
0.2297	14698.81	3.9150	3.9150	0.7036	25.32	-0.15	0.050			
0.2304	14743.83	3.9140	3.9140	0.6947	25.31	-0.16	0.050			
0.2311	14788.63	3.9130	3.9130	0.6855	25.31	-0.16	0.050			
0.2318	14832.43	3.9120	3.9120	0.6753	25.31	-0.16	0.050			
0.2324	14875.04	3.9110	3.9110	0.6657	25.30	-0.17	0.050			
0.2331	14916.81	3.9100	3.9101	0.6570	25.30	-0.17	0.050			
0.2337	14958.12	3.9090	3.9091	0.6494	25.31	-0.16	0.050			
0.2344	14998.47	3.9080	3.9080	0.6425	25.31	-0.16	0.050			
0.2350	15038.51	3.9070	3.9070	0.6371	25.31	-0.16	0.050			
0.2356	15077.34	3.9060	3.9062	0.6350	25.32	-0.15	0.050			
0.2362	15116.59	3.9050	3.9051	0.6319	25.33	-0.14	0.050			
0.2368	15155.62	3.9040	3.9040	0.6291	25.33	-0.14	0.050			
0.2374	15194.61	3.9030	3.9029	0.6281	25.34	-0.13	0.050			
0.2380	15234.00	3.9020	3.9019	0.6280	25.36	-0.11	0.050			
0.2386	15273.53	3.9010	3.9010	0.6293	25.37	-0.10	0.050			
0.2393	15313.36	3.9000	3.9000	0.6311	25.37	-0.10	0.050			
0.2399	15353.29	3.8990	3.8989	0.6314	25.38	-0.09	0.050			
0.2405	15394.21	3.8980	3.8980	0.6339	25.39	-0.08	0.050			
0.2412	15435.10	3.8970	3.8970	0.6351	25.39	-0.08	0.050			
0.2418	15476.23	3.8960	3.8960	0.6375	25.41	-0.06	0.050	0.308	0.615	
0.2425	15517.95	3.8950	3.8950	0.6405	25.42	-0.05	0.050			
0.2431	15559.03	3.8940	3.8941	0.6416	25.43	-0.04	0.050			
0.2438	15600.88	3.8930	3.8930	0.6441	25.44	-0.03	0.050			
0.2444	15642.58	3.8920	3.8921	0.6450	25.45	-0.02	0.050			
0.2451	15684.06	3.8910	3.8910	0.6462	25.45	-0.02	0.050			
0.2457	15725.26	3.8900	3.8900	0.6467	25.46	-0.01	0.050			
0.2464	15766.61	3.8890	3.8891	0.6472	25.47	0.00	0.050			
0.2470	15807.96	3.8880	3.8880	0.6479	25.48	0.01	0.050			
0.2476	15849.01	3.8870	3.8870	0.6487	25.49	0.02	0.050			
0.2483	15889.78	3.8860	3.8860	0.6497	25.49	0.02	0.050			
0.2489	15930.65	3.8850	3.8849	0.6525	25.50	0.03	0.050			
0.2496	15971.81	3.8840	3.8840	0.6555	25.51	0.04	0.050			
0.2502	16013.51	3.8830	3.8830	0.6585	25.51	0.04	0.050			
0.2509	16055.36	3.8820	3.8820	0.6618	25.52	0.05	0.050			
0.2515	16097.59	3.8810	3.8810	0.6664	25.53	0.06	0.050			
0.2522	16140.00	3.8800	3.8800	0.6711	25.53	0.06	0.050			
0.2529	16183.06	3.8790	3.8789	0.6765	25.53	0.06	0.050			
0.2535	16226.42	3.8780	3.8779	0.6831	25.53	0.06	0.050			
0.2542	16270.18	3.8770	3.8770	0.6891	25.54	0.07	0.050			
0.2549	16314.58	3.8760	3.8761	0.6945	25.55	0.08	0.050			
0.2556	16359.10	3.8750	3.8750	0.7000	25.55	0.08	0.050			
0.2563	16404.25	3.8740	3.8740	0.7056	25.54	0.07	0.050			
0.2570	16449.83	3.8730	3.8730	0.7104	25.53	0.06	0.050			
0.2577	16495.80	3.8720	3.8719	0.7158	25.53	0.06	0.050			
0.2585	16542.16	3.8710	3.8710	0.7207	25.52	0.05	0.050			
0.2592	16588.75	3.8700	3.8699	0.7245	25.53	0.06	0.050			
0.2599	16635.80	3.8690	3.8689	0.7283	25.52	0.05	0.050			
0.2607	16682.95	3.8680	3.8680	0.7320	25.51	0.04	0.050			
0.2614	16730.03	3.8670	3.8670	0.7353	25.51	0.04	0.050	0.298	0.640	
0.2621	16777.17	3.8660	3.8661	0.7384	25.50	0.03	0.050			
0.2629	16824.77	3.8650	3.8650	0.7416	25.49	0.02	0.050			
0.2636	16872.16	3.8640	3.8640	0.7450	25.50	0.03	0.050			
0.2644	16919.77	3.8630	3.8630	0.7482	25.49	0.02	0.050			
0.2651	16967.79	3.8620	3.8620	0.7520	25.49	0.02	0.050			
0.2659	17015.60	3.8610	3.8610	0.7557	25.47	0.00	0.050			
0.2666	17063.39	3.8600	3.8600	0.7604	25.47	0.00	0.050			
0.2674	17111.64	3.8590	3.8589	0.7653	25.47	0.00	0.050			
0.2681	17160.04	3.8580	3.8580	0.7695	25.47	0.00	0.050			
0.2689	17209.15	3.8570	3.8570	0.7752	25.46	-0.01	0.050			
0.2697	17258.74	3.8560	3.8560	0.7813	25.45	-0.02	0.050			
0.2705	17308.88	3.8550	3.8549	0.7876	25.45	-0.02	0.050			
0.2712	17359.46	3.8540	3.8539	0.7932	25.44	-0.03	0.050			
0.2720	17410.73	3.8530	3.8530	0.7984	25.43	-0.04	0.050			
0.2729	17462.62	3.8520	3.8520	0.8036	25.43	-0.04	0.050			
0.2737	17515.43	3.8510	3.8510	0.8057	25.43	-0.04	0.050			
0.2745	17568.08	3.8500	3.8500	0.8082	25.41	-0.06	0.050			
0.2753	17621.00	3.8490	3.8490	0.8091	25.40	-0.07	0.050			
0.2762	17674.41	3.8480	3.8480	0.8090	25.39	-0.08	0.050			
0.2770	17726.90	3.8470	3.8470	0.8077	25.38	-0.09	0.050			
0.2778	17778.91	3.8460	3.8460	0.8073	25.37	-0.10	0.050			
0.2786	17830.81	3.8450	3.8451	0.8063	25.37	-0.10	0.050			
0.2794	17882.15	3.8440	3.8441	0.8078	25.37	-0.10	0.050			
0.2802	17933.28	3.8430	3.8432	0.8073	25.36	-0.11	0.050			
0.2810	17983.67	3.8420	3.8421	0.8094	25.37	-0.10	0.050			
0.2818	18034.83	3.8410	3.8411	0.8100	25.37	-0.10	0.050	0.334	0.620	
0.2826	18085.42	3.8400	3.8400	0.8102	25.37	-0.10	0.050			
0.2834	18136.20	3.8390	3.8389	0.8130	25.39	-0.08	0.050			
0.2842	18187.75	3.8380	3.8378	0.8157	25.40	-0.07	0.050			
0.2850	18238.85	3.8370	3.8369	0.8184	25.41	-0.06	0.050			
0.2858	18291.07	3.8360	3.8359	0.8226	25.41	-0.06	0.050			
0.2866	18343.37	3.8350	3.8350	0.8281	25.42	-0.05	0.050			
0.2874	18395.90	3.8340	3.8340	0.8343	25.43	-0.04	0.050			
0.2883	18449.23	3.8330	3.8331	0.8428	25.44	-0.03	0.050			
0.2891	18503.21	3.8320	3.8321	0.8531	25.45	-0.02	0.050			
0.2900	18558.22	3.8310	3.8311	0.8632	25.45	-0.02	0.050			
0.2908	18613.97	3.8300	3.8300	0.8719	25.47	-0.00	0.050			
0.2917	18670.65	3.8290	3.8290	0.8801	25.47	0.00	0.050			
0.2926	18727.74	3.8280	3.8279	0.8874	25.49	0.02	0.050			
0.2935	18784.91	3.8270	3.8270	0.8930	25.49	0.02	0.050			
0.2944	18842.53	3.8260	3.8259	0.8982	25.51	0.04	0.050			
0.2953	18900.61	3.8250	3.8249	0.9030	25.51	0.04	0.050			
0.2962	18959.08	3.8240	3.8239	0.9076	25.51	0.04	0.050			
0.2971	19017.54	3.8230	3.8230	0.9118	25.51	0.04	0.050			
0.2981	19076.56	3.8220	3.8221	0.9176	25.51	0.04	0.050			
0.2990	19135.57	3.8210	3.8211	0.9233	25.51	0.04	0.050			
0.2999	19195.28	3.8200	3.8201	0.9281	25.51	0.04	0.050			
0.3009	19255.19	3.8190	3.8190	0.9332	25.50	0.03	0.050			
0.3018	19315.42	3.8180	3.8180	0.9362	25.49	0.02	0.050	0.365	0.634	
0.3027	19375.75	3.8170	3.8170	0.9393	25.49	0.02	0.050			
0.3037	19436.04	3.8160	3.8160	0.9420	25.49	0.02	0.050			
0.3046	19495.96	3.8150	3.8149	0.9433	25.49	0.02	0.050			
0.3056	19556.07	3.8140	3.8139	0.9449	25.48	0.01	0.050			
0.3065	19616.75	3.8130	3.8129	0.9451	25.47	0.00	0.050			
0.3075	19677.10	3.8120	3.8120	0.9471	25.46	-0.01	0.050			
0.3084	19737.69	3.8110	3.8111	0.9503	25.45	-0.02	0.050			
0.3094	19799.04	3.8100	3.8101	0.9535	25.45	-0.02	0.050			
0.3103	19860.28	3.8090	3.8091	0.9561	25.43	-0.04	0.050			
0.3113	19921.44	3.8080	3.8080	0.9591	25.43	-0.04	0.050			
0.3122	19983.16	3.8070	3.8070	0.9627	25.42	-0.05	0.050			
0.3132	20045.15	3.8060	3.8061	0.9649	25.40	-0.07	0.050			
0.3142	20106.99	3.8050	3.8051	0.9664	25.39	-0.08	0.050			
0.3151	20169.01	3.8040	3.8040	0.9678	25.39	-0.08	0.050			
0.3161	20231.03	3.8030	3.8029	0.9677	25.38	-0.09	0.050			
0.3171	20293.53	3.8020	3.8020	0.9663	25.37	-0.10	0.050			
0.3181	20355.68	3.8010	3.8010	0.9655	25.36	-0.11	0.050			
0.3190	20418.20	3.8000	3.8000	0.9635	25.34	-0.13	0.050			
0.3200	20480.39	3.7990	3.7990	0.9631	25.33	-0.14	0.050			
0.3210	20542.03	3.7980	3.7980	0.9630	25.33	-0.14	0.050			
0.3219	20603.91	3.7970	3.7971	0.9621	25.31	-0.16	0.050	0.399	0.595	
0.3229	20665.64	3.7960	3.7961	0.9612	25.31	-0.16	0.050			
0.3239	20726.77	3.7950	3.7951	0.9612	25.31	-0.16	0.050			
0.3248	20788.13	3.7940	3.7940	0.9601	25.32	-0.15	0.050			
0.3258	20849.07	3.7930	3.7929	0.9612	25.33	-0.14	0.050			
0.3267	20909.06	3.7920	3.7920	0.9615	25.33	-0.14	0.050			
0.3277	20969.97	3.7910	3.7909	0.9634	25.35	-0.12	0.050			
0.3286	21030.33	3.7900	3.7899	0.9666	25.35	-0.12	0.050			
0.3296	21091.22	3.7890	3.7889	0.9713	25.36	-0.11	0.050			
0.3305	21152.32	3.7880	3.7881	0.9754	25.37	-0.10	0.050			
0.3315	21214.11	3.7870	3.7869	0.9813	25.38	-0.09	0.050			
0.3324	21276.70	3.7860	3.7860	0.9894	25.40	-0.07	0.050			
0.3334	21339.70	3.7850	3.7850	0.9971	25.41	-0.06	0.050			
0.3344	21403.85	3.7840	3.7839	1.0071	25.41	-0.06	0.050			
0.3354	21468.60	3.7830	3.7830	1.0165	25.42	-0.05	0.050			
0.3365	21534.72	3.7820	3.7820	1.0245	25.43	-0.04	0.050			
0.3375	21601.04	3.7810	3.7810	1.0323	25.44	-0.03	0.050			
0.3386	21668.32	3.7800	3.7800	1.0378	25.46	-0.01	0.050			
0.3396	21735.67	3.7790	3.7790	1.0424	25.46	-0.01	0.050			
0.3407	21803.28	3.7780	3.7780	1.0470	25.47	0.00	0.050			
0.3417	21871.84	3.7770	3.7770	1.0524	25.47	0.00	0.050	0.312	0.592	
0.3428	21939.60	3.7760	3.7760	1.0552	25.47	0.00	0.050			
0.3439	22007.45	3.7750	3.7750	1.0602	25.47	0.00	0.050			
0.3449	22075.45	3.7740	3.7741	1.0637	25.47	0.00	0.050			
0.3460	22143.24	3.7730	3.7731	1.0682	25.49	0.02	0.050			
0.3470	22211.03	3.7720	3.7720	1.0725	25.47	0.00	0.050			
0.3481	22279.15	3.7710	3.7711	1.0792	25.47	0.00	0.050			
0.3492	22347.67	3.7700	3.7700	1.0832	25.47	0.00	0.050			
0.3503	22416.52	3.7690	3.7690	1.0878	25.47	0.00	0.050			
0.3513	22486.30	3.7680	3.7679	1.0927	25.47	0.00	0.050			
0.3524	22555.99	3.7670	3.7669	1.0976	25.47	0.00	0.050			
0.3535	22626.20	3.7660	3.7659	1.1016	25.47	-0.00	0.050			
0.3546	22697.26	3.7650	3.7650	1.1065	25.46	-0.01	0.050			
0.3558	22768.40	3.7640	3.7640	1.1111	25.47	-0.00	0.050			
0.3569	22840.20	3.7630	3.7630	1.1170	25.45	-0.02	0.050			
0.3580	22912.91	3.7620	3.7620	1.1234	25.45	-0.02	0.050			
0.3592	22985.72	3.7610	3.7611	1.1265	25.43	-0.04	0.050			
0.3603	23059.57	3.7600	3.7600	1.1283	25.45	-0.02	0.050			
0.3615	23133.04	3.7590	3.7590	1.1292	25.43	-0.04	0.050	0.334	0.590	
0.3626	23205.59	3.7580	3.7579	1.1292	25.43	-0.04	0.050			
0.3637	23278.20	3.7570	3.7570	1.1295	25.43	-0.04	0.050			
0.3648	23350.09	3.7560	3.7560	1.1301	25.43	-0.04	0.050			
0.3660	23421.61	3.7550	3.7550	1.1299	25.43	-0.04	0.050			
0.3671	23493.75	3.7540	3.7540	1.1300	25.42	-0.05	0.050			
0.3682	23565.81	3.7530	3.7530	1.1294	25.42	-0.05	0.050			
0.3693	23637.62	3.7520	3.7522	1.1299	25.42	-0.05	0.050			
0.3705	23709.19	3.7510	3.7511	1.1318	25.41	-0.06	0.050			
0.3716	23781.55	3.7500	3.7499	1.1347	25.43	-0.04	0.050			
0.3727	23853.79	3.7490	3.7488	1.1369	25.43	-0.04	0.050			
0.3738	23926.03	3.7480	3.7480	1.1413	25.45	-0.02	0.050			
0.3749	23996.73	3.7470	3.7470	1.1514	25.47	-0.00	0.050			
0.3761	24068.45	3.7460	3.7461	1.1628	25.47	0.00	0.050			
0.3772	24141.20	3.7450	3.7451	1.1746	25.48	0.01	0.050			
0.3784	24215.13	3.7440	3.7441	1.1873	25.49	0.02	0.050			
0.3795	24290.95	3.7430	3.7430	1.2023	25.50	0.03	0.050			
0.3808	24368.08	3.7420	3.7420	1.2158	25.51	0.04	0.050			
0.3820	24446.91	3.7410	3.7409	1.2295	25.51	0.04	0.050	0.379	0.596	
0.3832	24526.82	3.7400	3.7399	1.2429	25.53	0.06	0.050			
0.3845	24607.67	3.7390	3.7388	1.2539	25.53	0.06	0.050			
0.3858	24688.68	3.7380	3.7378	1.2642	25.53	0.06	0.050			
0.3871	24771.41	3.7370	3.7370	1.2735	25.52	0.05	0.050			
0.3884	24854.59	3.7360	3.7361	1.2830	25.50	0.03	0.050			
0.3897	24938.65	3.7350	3.7352	1.2937	25.49	0.02	0.050			
0.3910	25023.17	3.7340	3.7341	1.3044	25.47	0.00	0.050			
0.3923	25107.47	3.7330	3.7331	1.3118	25.46	-0.01	0.050			
0.3936	25191.76	3.7320	3.7320	1.3203	25.45	-0.02	0.050			
0.3949	25276.59	3.7310	3.7310	1.3301	25.45	-0.02	0.050			
0.3963	25361.29	3.7300	3.7300	1.3368	25.43	-0.04	0.050			
0.3976	25446.20	3.7290	3.7290	1.3441	25.42	-0.05	0.050			
0.3989	25531.21	3.7280	3.7279	1.3482	25.41	-0.06	0.050			
0.4003	25616.04	3.7270	3.7269	1.3494	25.40	-0.07	0.050			
0.4016	25703.42	3.7260	3.7259	1.3531	25.39	-0.08	0.050	0.399	0.560	
0.4030	25791.80	3.7250	3.7250	1.3565	25.37	-0.10	0.050			
0.4044	25880.07	3.7240	3.7240	1.3598	25.36	-0.11	0.050			
0.4058	25968.31	3.7230	3.7229	1.3638	25.35	-0.12	0.050			
0.4071	26056.40	3.7220	3.7219	1.3694	25.35	-0.12	0.050			
0.4085	26144.26	3.7210	3.7211	1.3758	25.33	-0.14	0.050			
0.4099	26231.81	3.7200	3.7201	1.3837	25.33	-0.14	0.050			
0.4113	26320.12	3.7190	3.7191	1.3910	25.33	-0.14	0.050			
0.4126	26408.66	3.7180	3.7181	1.3976	25.33	-0.14	0.050			
0.4140	26497.50	3.7170	3.7171	1.4057	25.34	-0.13	0.050			
0.4154	26586.67	3.7160	3.7160	1.4128	25.35	-0.12	0.050			
0.4168	26675.58	3.7150	3.7149	1.4213	25.37	-0.10	0.050			
0.4182	26765.30	3.7140	3.7139	1.4306	25.38	-0.09	0.050			
0.4196	26855.18	3.7130	3.7128	1.4439	25.39	-0.08	0.050			
0.4210	26944.75	3.7120	3.7120	1.4595	25.41	-0.06	0.050			
0.4224	27036.50	3.7110	3.7110	1.4798	25.43	-0.04	0.050	0.291	0.570	
0.4239	27130.38	3.7100	3.7101	1.5034	25.44	-0.03	0.050			
0.4254	27226.95	3.7090	3.7090	1.5257	25.46	-0.01	0.050			
0.4270	27325.84	3.7080	3.7080	1.5495	25.47	0.00	0.050			
0.4285	27427.08	3.7070	3.7069	1.5729	25.48	0.01	0.050			
0.4302	27529.98	3.7060	3.7059	1.5959	25.49	0.02	0.050			
0.4318	27633.42	3.7050	3.7050	1.6173	25.51	0.04	0.050			
0.4334	27737.91	3.7040	3.7039	1.6361	25.51	0.04	0.050			
0.4350	27843.10	3.7030	3.7030	1.6556	25.50	0.03	0.050			
0.4367	27949.12	3.7020	3.7020	1.6770	25.47	0.00	0.050			
0.4384	28056.80	3.7010	3.7011	1.6985	25.47	0.00	0.050			
0.4401	28167.00	3.7000	3.7001	1.7204	25.46	-0.01	0.050			
0.4419	28279.36	3.6990	3.6990	1.7385	25.45	-0.02	0.050	0.361	0.573	
0.4437	28394.51	3.6980	3.6980	1.7521	25.43	-0.04	0.050			
0.4455	28511.15	3.6970	3.6970	1.7559	25.41	-0.06	0.050			
0.4473	28626.64	3.6960	3.6959	1.7566	25.39	-0.08	0.050			
0.4491	28741.26	3.6950	3.6949	1.7585	25.37	-0.10	0.050			
0.4508	28854.33	3.6940	3.6939	1.7604	25.37	-0.10	0.050			
0.4526	28966.29	3.6930	3.6930	1.7639	25.35	-0.12	0.050			
0.4543	29078.06	3.6920	3.6921	1.7705	25.35	-0.12	0.050			
0.4561	29189.10	3.6910	3.6913	1.7835	25.35	-0.12	0.050			
0.4578	29299.05	3.6900	3.6903	1.8041	25.35	-0.12	0.050			
0.4596	29411.89	3.6890	3.6892	1.8246	25.35	-0.12	0.050			
0.4613	29525.60	3.6880	3.6879	1.8440	25.36	-0.11	0.050	0.369	0.641	
0.4631	29640.63	3.6870	3.6868	1.8645	25.40	-0.07	0.050			
0.4650	29757.12	3.6860	3.6859	1.8873	25.43	-0.04	0.050			
0.4668	29874.97	3.6850	3.6848	1.9145	25.46	-0.01	0.050			
0.4687	29995.74	3.6840	3.6839	1.9440	25.48	0.01	0.050			
0.4706	30120.34	3.6830	3.6829	1.9790	25.51	0.04	0.050			
0.4726	30247.15	3.6820	3.6820	2.0108	25.52	0.05	0.050			
0.4747	30378.28	3.6810	3.6810	2.0512	25.52	0.05	0.050			
0.4768	30513.44	3.6800	3.6802	2.0946	25.51	0.04	0.050			
0.4789	30651.75	3.6790	3.6791	2.1361	25.49	0.02	0.050			
0.4812	30793.69	3.6780	3.6780	2.1704	25.47	0.00	0.050	0.301	0.603	
0.4834	30936.32	3.6770	3.6769	2.1996	25.46	-0.01	0.050			
0.4857	31082.49	3.6760	3.6759	2.2160	25.45	-0.02	0.050			
0.4879	31227.89	3.6750	3.6750	2.2302	25.43	-0.04	0.050			
0.4902	31374.35	3.6740	3.6740	2.2398	25.41	-0.06	0.050			
0.4925	31520.16	3.6730	3.6730	2.2470	25.39	-0.08	0.050			
0.4948	31665.04	3.6720	3.6719	2.2501	25.38	-0.09	0.050			
0.4970	31809.44	3.6710	3.6710	2.2534	25.35	-0.12	0.050			
0.4993	31953.90	3.6700	3.6701	2.2669	25.34	-0.13	0.050			
0.5015	32098.08	3.6690	3.6691	2.2841	25.33	-0.14	0.050	0.400	0.660	
0.5038	32242.17	3.6680	3.6681	2.2999	25.34	-0.13	0.050			
0.5060	32386.99	3.6670	3.6670	2.3166	25.35	-0.12	0.050			
0.5083	32531.65	3.6660	3.6660	2.3345	25.37	-0.10	0.050			
0.5106	32678.13	3.6650	3.6650	2.3566	25.39	-0.08	0.050			
0.5129	32827.20	3.6640	3.6640	2.3847	25.41	-0.06	0.050			
0.5153	32976.55	3.6630	3.6628	2.4185	25.43	-0.04	0.050			
0.5176	33129.42	3.6620	3.6619	2.4531	25.45	-0.02	0.050			
0.5201	33287.07	3.6610	3.6609	2.4842	25.48	0.01	0.050			
0.5226	33449.10	3.6600	3.6601	2.5129	25.49	0.02	0.050	0.378	0.623	
0.5253	33616.39	3.6590	3.6591	2.5368	25.49	0.02	0.050			
0.5280	33789.43	3.6580	3.6580	2.5379	25.47	0.00	0.050			
0.5306	33959.74	3.6570	3.6569	2.5299	25.46	-0.01	0.050			
0.5333	34132.48	3.6560	3.6560	2.5169	25.43	-0.04	0.050			
0.5359	34300.69	3.6550	3.6550	2.4924	25.39	-0.08	0.050			
0.5385	34464.96	3.6540	3.6540	2.4587	25.37	-0.10	0.050			
0.5410	34620.97	3.6530	3.6531	2.4094	25.34	-0.13	0.050	0.380	0.586	
0.5433	34770.16	3.6520	3.6522	2.3648	25.31	-0.16	0.050			
0.5456	34916.32	3.6510	3.6512	2.3200	25.29	-0.18	0.050			
0.5478	35058.39	3.6500	3.6501	2.2844	25.28	-0.19	0.050			
0.5500	35198.71	3.6490	3.6490	2.2472	25.29	-0.18	0.050			
0.5521	35336.66	3.6480	3.6479	2.2128	25.30	-0.17	0.050			
0.5542	35470.81	3.6470	3.6471	2.1783	25.33	-0.14	0.050			
0.5563	35606.24	3.6460	3.6459	2.1515	25.35	-0.12	0.050			
0.5585	35741.35	3.6450	3.6448	2.1337	25.37	-0.10	0.050			
0.5605	35874.57	3.6440	3.6437	2.1164	25.38	-0.09	0.050			
0.5626	36006.90	3.6430	3.6427	2.1063	25.39	-0.08	0.050	0.409	0.616	
0.5647	36139.79	3.6420	3.6420	2.1001	25.37	-0.10	0.050			
0.5668	36274.58	3.6410	3.6411	2.0967	25.35	-0.12	0.050			
0.5689	36412.08	3.6400	3.6401	2.0907	25.35	-0.12	0.050			
0.5711	36549.77	3.6390	3.6391	2.0810	25.31	-0.16	0.050			
0.5733	36688.06	3.6380	3.6380	2.0604	25.31	-0.16	0.050			
0.5754	36825.64	3.6370	3.6370	2.0276	25.30	-0.17	0.050			
0.5775	36962.24	3.6360	3.6358	1.9839	25.29	-0.18	0.050			
0.5796	37094.62	3.6350	3.6348	1.9317	25.29	-0.18	0.050			
0.5816	37221.70	3.6340	3.6339	1.8728	25.29	-0.18	0.050	0.397	0.620	
0.5835	37342.61	3.6330	3.6331	1.8081	25.29	-0.18	0.050			
0.5853	37456.81	3.6320	3.6322	1.7400	25.27	-0.20	0.050			
0.5870	37569.06	3.6310	3.6313	1.6799	25.27	-0.20	0.050			
0.5887	37676.10	3.6300	3.6302	1.6181	25.27	-0.20	0.050			
0.5903	37779.19	3.6290	3.6292	1.5529	25.27	-0.20	0.050			
0.5918	37876.21	3.6280	3.6281	1.4926	25.27	-0.20	0.050			
0.5932	37967.56	3.6270	3.6269	1.4340	25.28	-0.19	0.050			
0.5946	38054.08	3.6260	3.6257	1.3703	25.29	-0.18	0.050			
0.5958	38132.85	3.6250	3.6247	1.3170	25.30	-0.17	0.050			
0.5970	38205.59	3.6240	3.6238	1.2660	25.31	-0.16	0.050			
0.5981	38277.31	3.6230	3.6229	1.2258	25.33	-0.14	0.050			
0.5992	38347.98	3.6220	3.6220	1.1948	25.35	-0.12	0.050			
0.6003	38417.96	3.6210	3.6211	1.1724	25.35	-0.12	0.050			
0.6014	38487.56	3.6200	3.6200	1.1594	25.37	-0.10	0.050			
0.6025	38558.05	3.6190	3.6191	1.1557	25.37	-0.10	0.050	0.390	0.627	
0.6036	38629.16	3.6180	3.6181	1.1574	25.39	-0.08	0.050			
0.6047	38700.66	3.6170	3.6171	1.1616	25.40	-0.07	0.050			
0.6058	38772.37	3.6160	3.6159	1.1685	25.41	-0.06	0.050			
0.6069	38844.48	3.6150	3.6150	1.1760	25.42	-0.05	0.050			
0.6081	38917.79	3.6140	3.6140	1.1855	25.43	-0.04	0.050			
0.6093	38992.68	3.6130	3.6129	1.1966	25.43	-0.04	0.050			
0.6105	39069.33	3.6120	3.6119	1.2085	25.45	-0.02	0.050			
0.6117	39147.13	3.6110	3.6109	1.2229	25.45	-0.02	0.050			
0.6129	39226.83	3.6100	3.6100	1.2386	25.43	-0.04	0.050			
0.6142	39307.36	3.6090	3.6091	1.2538	25.42	-0.05	0.050			
0.6155	39389.61	3.6080	3.6081	1.2683	25.41	-0.06	0.050			
0.6168	39473.06	3.6070	3.6070	1.2825	25.41	-0.06	0.050			
0.6181	39557.31	3.6060	3.6060	1.2904	25.39	-0.08	0.050			
0.6194	39642.33	3.6050	3.6050	1.2963	25.39	-0.08	0.050			
0.6207	39727.97	3.6040	3.6041	1.3005	25.38	-0.09	0.050			
0.6221	39814.04	3.6030	3.6030	1.2997	25.37	-0.10	0.050	0.348	0.635	
0.6234	39899.84	3.6020	3.6019	1.2943	25.35	-0.12	0.050			
0.6247	39983.96	3.6010	3.6010	1.2867	25.33	-0.14	0.050			
0.6261	40068.64	3.6000	3.6000	1.2701	25.33	-0.14	0.050			
0.6274	40151.60	3.5990	3.5991	1.2550	25.31	-0.16	0.050			
0.6287	40234.35	3.5980	3.5980	1.2339	25.31	-0.16	0.050			
0.6299	40314.79	3.5970	3.5971	1.2135	25.31	-0.16	0.050			
0.6311	40393.42	3.5960	3.5960	1.1904	25.31	-0.16	0.050			
0.6323	40470.10	3.5950	3.5951	1.1685	25.31	-0.16	0.050			
0.6335	40545.38	3.5940	3.5940	1.1461	25.31	-0.16	0.050			
0.6346	40617.03	3.5930	3.5931	1.1243	25.31	-0.16	0.050			
0.6357	40686.39	3.5920	3.5921	1.1038	25.31	-0.16	0.050			
0.6368	40754.63	3.5910	3.5912	1.0812	25.33	-0.14	0.050			
0.6378	40820.18	3.5900	3.5900	1.0643	25.34	-0.13	0.050			
0.6388	40885.14	3.5890	3.5889	1.0462	25.35	-0.12	0.050			
0.6398	40948.41	3.5880	3.5878	1.0347	25.36	-0.11	0.050			
0.6408	41011.01	3.5870	3.5869	1.0252	25.37	-0.10	0.050			
0.6418	41074.04	3.5860	3.5859	1.0180	25.39	-0.08	0.050	0.350	0.581	
0.6428	41136.12	3.5850	3.5850	1.0150	25.41	-0.06	0.050			
0.6437	41198.19	3.5840	3.5840	1.0165	25.42	-0.05	0.050			
0.6447	41261.33	3.5830	3.5831	1.0212	25.43	-0.04	0.050			
0.6457	41326.14	3.5820	3.5820	1.0260	25.44	-0.03	0.050			
0.6468	41392.02	3.5810	3.5810	1.0334	25.47	-0.00	0.050			
0.6478	41459.03	3.5800	3.5801	1.0414	25.45	-0.02	0.050			
0.6489	41526.88	3.5790	3.5789	1.0473	25.45	-0.02	0.050			
0.6499	41594.58	3.5780	3.5779	1.0533	25.45	-0.02	0.050			
0.6510	41662.92	3.5770	3.5769	1.0576	25.46	-0.01	0.050			
0.6521	41731.25	3.5760	3.5759	1.0614	25.45	-0.02	0.050			
0.6531	41800.16	3.5750	3.5749	1.0646	25.44	-0.03	0.050			
0.6542	41868.56	3.5740	3.5741	1.0681	25.44	-0.03	0.050			
0.6553	41937.65	3.5730	3.5731	1.0709	25.43	-0.04	0.050			
0.6564	42007.09	3.5720	3.5721	1.0739	25.41	-0.06	0.050			
0.6574	42076.37	3.5710	3.5710	1.0749	25.41	-0.06	0.050			
0.6585	42146.24	3.5700	3.5700	1.0749	25.40	-0.07	0.050			
0.6596	42215.72	3.5690	3.5689	1.0728	25.39	-0.08	0.050			
0.6607	42284.99	3.5680	3.5679	1.0706	25.39	-0.08	0.050			
0.6618	42353.68	3.5670	3.5669	1.0674	25.39	-0.08	0.050	0.343	0.617	
0.6628	42421.64	3.5660	3.5660	1.0643	25.38	-0.09	0.050			
0.6639	42489.15	3.5650	3.5650	1.0604	25.36	-0.11	0.050			
0.6649	42556.16	3.5640	3.5641	1.0577	25.35	-0.12	0.050			
0.6660	42623.80	3.5630	3.5631	1.0562	25.35	-0.12	0.050			
0.6671	42691.75	3.5620	3.5620	1.0557	25.35	-0.12	0.050			
0.6681	42759.04	3.5610	3.5610	1.0544	25.34	-0.13	0.050			
0.6692	42826.16	3.5600	3.5600	1.0535	25.34	-0.13	0.050			
0.6702	42893.78	3.5590	3.5590	1.0518	25.33	-0.14	0.050			
0.6713	42961.24	3.5580	3.5579	1.0480	25.33	-0.14	0.050			
0.6723	43028.34	3.5570	3.5569	1.0445	25.31	-0.16	0.050			
0.6734	43095.41	3.5560	3.5560	1.0397	25.31	-0.16	0.050			
0.6744	43161.84	3.5550	3.5550	1.0368	25.29	-0.18	0.050			
0.6754	43227.88	3.5540	3.5541	1.0341	25.29	-0.18	0.050			
0.6765	43293.73	3.5530	3.5530	1.0328	25.28	-0.19	0.050			
0.6775	43359.33	3.5520	3.5521	1.0331	25.29	-0.18	0.050			
0.6785	43424.89	3.5510	3.5510	1.0344	25.29	-0.18	0.050			
0.6795	43490.88	3.5500	3.5501	1.0355	25.29	-0.18	0.050			
0.6806	43556.19	3.5490	3.5490	1.0378	25.29	-0.18	0.050			
0.6816	43621.72	3.5480	3.5480	1.0416	25.30	-0.17	0.050	0.417	0.689	
0.6826	43686.53	3.5470	3.5469	1.0457	25.31	-0.16	0.050			
0.6836	43751.43	3.5460	3.5459	1.0518	25.31	-0.16	0.050			
0.6846	43817.07	3.5450	3.5450	1.0630	25.31	-0.16	0.050			
0.6857	43882.84	3.5440	3.5440	1.0752	25.33	-0.14	0.050			
0.6867	43949.62	3.5430	3.5430	1.0905	25.35	-0.12	0.050			
0.6878	44017.19	3.5420	3.5421	1.1135	25.35	-0.12	0.050			
0.6888	44086.12	3.5410	3.5411	1.1356	25.38	-0.09	0.050			
0.6899	44156.31	3.5400	3.5401	1.1632	25.39	-0.08	0.050			
0.6911	44230.58	3.5390	3.5390	1.1938	25.41	-0.06	0.050			
0.6923	44306.78	3.5380	3.5380	1.2233	25.42	-0.05	0.050			
0.6935	44385.75	3.5370	3.5369	1.2553	25.45	-0.02	0.050			
0.6948	44466.80	3.5360	3.5359	1.2857	25.46	-0.01	0.050			
0.6961	44550.31	3.5350	3.5349	1.3155	25.49	0.02	0.050			
0.6974	44635.53	3.5340	3.5340	1.3493	25.50	0.03	0.050			
0.6988	44722.31	3.5330	3.5329	1.3856	25.51	0.04	0.050			
0.7002	44811.34	3.5320	3.5320	1.4238	25.50	0.03	0.050			
0.7016	44903.16	3.5310	3.5312	1.4633	25.49	0.02	0.050	0.361	0.602	
0.7031	44996.80	3.5300	3.5301	1.5055	25.48	0.01	0.050			
0.7046	45094.20	3.5290	3.5291	1.5462	25.47	0.00	0.050			
0.7062	45193.76	3.5280	3.5281	1.5883	25.47	0.00	0.050			
0.7078	45296.43	3.5270	3.5270	1.6282	25.47	-0.00	0.050			
0.7094	45402.37	3.5260	3.5259	1.6659	25.45	-0.02	0.050			
0.7111	45511.53	3.5250	3.5249	1.6999	25.43	-0.04	0.050			
0.7128	45622.28	3.5240	3.5239	1.7352	25.42	-0.05	0.050			
0.7146	45735.87	3.5230	3.5229	1.7674	25.41	-0.06	0.050			
0.7164	45851.14	3.5220	3.5220	1.7992	25.39	-0.08	0.050			
0.7183	45968.69	3.5210	3.5210	1.8312	25.38	-0.09	0.050			
0.7201	46089.27	3.5200	3.5200	1.8633	25.37	-0.10	0.050			
0.7220	46209.59	3.5190	3.5191	1.8992	25.36	-0.11	0.050	0.379	0.619	
0.7239	46330.19	3.5180	3.5181	1.9412	25.35	-0.12	0.050			
0.7258	46453.93	3.5170	3.5171	1.9814	25.35	-0.12	0.050			
0.7278	46579.76	3.5160	3.5161	2.0233	25.36	-0.11	0.050			
0.7298	46709.06	3.5150	3.5150	2.0600	25.38	-0.09	0.050			
0.7319	46841.11	3.5140	3.5140	2.0926	25.39	-0.08	0.050			
0.7340	46976.96	3.5130	3.5129	2.1219	25.42	-0.05	0.050			
0.7362	47115.73	3.5120	3.5119	2.1488	25.44	-0.03	0.050			
0.7384	47256.10	3.5110	3.5108	2.1754	25.45	-0.02	0.050			
0.7406	47398.50	3.5100	3.5097	2.2009	25.47	0.00	0.050			
0.7429	47543.55	3.5090	3.5090	2.2229	25.45	-0.02	0.050	0.348	0.643	
0.7453	47696.21	3.5080	3.5081	2.2223	25.43	-0.04	0.050			
0.7476	47847.41	3.5070	3.5070	2.2186	25.42	-0.05	0.050			
0.7500	48000.32	3.5060	3.5062	2.1977	25.41	-0.06	0.050			
0.7523	48149.32	3.5050	3.5050	2.1678	25.43	-0.04	0.050			
0.7547	48299.66	3.5040	3.5040	2.1006	25.43	-0.04	0.050			
0.7570	48445.95	3.5030	3.5029	2.0380	25.41	-0.06	0.050			
0.7591	48583.46	3.5020	3.5020	1.9488	25.39	-0.08	0.050			
0.7611	48713.50	3.5010	3.5011	1.8469	25.37	-0.10	0.050			
0.7630	48834.93	3.5000	3.5003	1.7358	25.34	-0.13	0.050	0.372	0.648	
0.7648	48945.05	3.4990	3.4992	1.6171	25.32	-0.15	0.050			
0.7664	49048.35	3.4980	3.4983	1.5026	25.31	-0.16	0.050			
0.7679	49143.74	3.4970	3.4973	1.3919	25.31	-0.16	0.050			
0.7692	49228.70	3.4960	3.4962	1.2843	25.29	-0.18	0.050			
0.7704	49308.54	3.4950	3.4949	1.1598	25.28	-0.19	0.050			
0.7715	49373.75	3.4940	3.4936	1.0610	25.28	-0.19	0.050			
0.7723	49428.29	3.4930	3.4925	0.9700	25.29	-0.18	0.050			
0.7731	49475.86	3.4920	3.4914	0.8561	25.29	-0.18	0.050			
0.7736	49512.10	3.4910	3.4905	0.7794	25.29	-0.18	0.050			
0.7742	49550.29	3.4900	3.4896	0.6971	25.29	-0.18	0.050			
0.7747	49581.89	3.4890	3.4887	0.6444	25.29	-0.18	0.050			
0.7752	49611.00	3.4880	3.4878	0.5951	25.29	-0.18	0.050			
0.7757	49643.25	3.4870	3.4868	0.5492	25.29	-0.18	0.050			
0.7761	49671.75	3.4860	3.4861	0.5177	25.30	-0.17	0.050			
0.7766	49702.42	3.4850	3.4849	0.4885	25.31	-0.16	0.050			
0.7770	49729.02	3.4840	3.4840	0.4658	25.31	-0.16	0.050			
0.7775	49757.01	3.4830	3.4830	0.4435	25.31	-0.16	0.050			
0.7779	49782.56	3.4820	3.4819	0.4278	25.31	-0.16	0.050			
0.7783	49808.31	3.4810	3.4809	0.4099	25.31	-0.16	0.050			
0.7786	49832.06	3.4800	3.4800	0.3962	25.31	-0.16	0.050			
0.7790	49854.80	3.4790	3.4789	0.3851	25.32	-0.15	0.050			
0.7793	49878.26	3.4780	3.4779	0.3731	25.32	-0.15	0.050			
0.7797	49900.87	3.4770	3.4770	0.3621	25.33	-0.14	0.050			
0.7800	49922.52	3.4760	3.4760	0.3541	25.33	-0.14	0.050			
0.7804	49944.97	3.4750	3.4750	0.3475	25.33	-0.14	0.050			
0.7807	49966.11	3.4740	3.4741	0.3418	25.34	-0.13	0.050			
0.7811	49987.41	3.4730	3.4730	0.3355	25.34	-0.13	0.050			
0.7814	50008.50	3.4720	3.4720	0.3313	25.35	-0.12	0.050			
0.7817	50029.25	3.4710	3.4710	0.3260	25.35	-0.12	0.050			
0.7820	50049.77	3.4700	3.4700	0.3225	25.35	-0.12	0.050	0.369	0.637	
0.7823	50069.91	3.4690	3.4690	0.3177	25.35	-0.12	0.050			
0.7827	50089.63	3.4680	3.4680	0.3141	25.35	-0.12	0.050			
0.7830	50109.63	3.4670	3.4670	0.3108	25.36	-0.11	0.050			
0.7833	50128.94	3.4660	3.4660	0.3076	25.37	-0.10	0.050			
0.7836	50148.54	3.4650	3.4650	0.3048	25.37	-0.10	0.050			
0.7839	50167.69	3.4640	3.4640	0.3018	25.37	-0.10	0.050			
0.7842	50186.93	3.4630	3.4630	0.2993	25.37	-0.10	0.050			
0.7845	50206.00	3.4620	3.4620	0.2968	25.37	-0.10	0.050			
0.7848	50224.85	3.4610	3.4610	0.2946	25.38	-0.09	0.050			
0.7851	50243.53	3.4600	3.4599	0.2920	25.38	-0.09	0.050			
0.7853	50261.92	3.4590	3.4590	0.2901	25.38	-0.09	0.050			
0.7856	50280.43	3.4580	3.4580	0.2881	25.39	-0.08	0.050			
0.7859	50298.57	3.4570	3.4569	0.2870	25.39	-0.08	0.050			
0.7862	50316.66	3.4560	3.4561	0.2848	25.39	-0.08	0.050			
0.7865	50334.79	3.4550	3.4551	0.2834	25.39	-0.08	0.050			
0.7868	50352.71	3.4540	3.4540	0.2816	25.39	-0.08	0.050			
0.7870	50370.69	3.4530	3.4530	0.2802	25.39	-0.08	0.050			
0.7873	50388.49	3.4520	3.4520	0.2783	25.39	-0.08	0.050			
0.7876	50406.26	3.4510	3.4510	0.2770	25.39	-0.08	0.050			
0.7879	50424.01	3.4500	3.4500	0.2757	25.40	-0.07	0.050			
0.7882	50441.61	3.4490	3.4489	0.2743	25.40	-0.07	0.050			
0.7884	50459.07	3.4480	3.4480	0.2728	25.41	-0.06	0.050			
0.7887	50476.57	3.4470	3.4470	0.2712	25.41	-0.06	0.050			
0.7890	50493.87	3.4460	3.4460	0.2698	25.41	-0.06	0.050			
0.7892	50511.08	3.4450	3.4451	0.2684	25.41	-0.06	0.050			
0.7895	50528.29	3.4440	3.4440	0.2672	25.41	-0.06	0.050			
0.7898	50545.34	3.4430	3.4430	0.2658	25.41	-0.06	0.050			
0.7900	50562.30	3.4420	3.4421	0.2643	25.41	-0.06	0.050			
0.7903	50579.34	3.4410	3.4410	0.2632	25.41	-0.06	0.050			
0.7906	50596.10	3.4400	3.4400	0.2616	25.40	-0.07	0.050			
0.7908	50612.81	3.4390	3.4390	0.2601	25.40	-0.07	0.050			
0.7911	50629.41	3.4380	3.4380	0.2585	25.40	-0.07	0.050			
0.7913	50645.64	3.4370	3.4370	0.2570	25.39	-0.08	0.050			
0.7916	50662.05	3.4360	3.4360	0.2557	25.39	-0.08	0.050			
0.7918	50678.23	3.4350	3.4350	0.2539	25.39	-0.08	0.050			
0.7921	50694.45	3.4340	3.4340	0.2528	25.39	-0.08	0.050			
0.7924	50710.58	3.4330	3.4330	0.2516	25.39	-0.08	0.050			
0.7926	50726.71	3.4320	3.4320	0.2505	25.39	-0.08	0.050			
0.7929	50742.70	3.4310	3.4310	0.2493	25.38	-0.09	0.050			
0.7931	50758.61	3.4300	3.4300	0.2482	25.38	-0.09	0.050			
0.7934	50774.45	3.4290	3.4289	0.2470	25.37	-0.10	0.050			
0.7936	50790.22	3.4280	3.4280	0.2458	25.37	-0.10	0.050			
0.7938	50805.94	3.4270	3.4270	0.2443	25.37	-0.10	0.050			
0.7941	50821.53	3.4260	3.4260	0.2431	25.37	-0.10	0.050			
0.7943	50837.10	3.4250	3.4250	0.2419	25.37	-0.10	0.050			
0.7946	50852.49	3.4240	3.4240	0.2408	25.37	-0.10	0.050			
0.7948	50867.86	3.4230	3.4230	0.2395	25.37	-0.10	0.050			
0.7950	50883.06	3.4220	3.4220	0.2383	25.37	-0.10	0.050			
0.7953	50898.28	3.4210	3.4210	0.2371	25.37	-0.10	0.050			
0.7955	50913.44	3.4200	3.4200	0.2360	25.37	-0.10	0.050			
0.7958	50928.41	3.4190	3.4190	0.2351	25.37	-0.10	0.050			
0.7960	50943.42	3.4180	3.4180	0.2340	25.37	-0.10	0.050			
0.7962	50958.33	3.4170	3.4170	0.2329	25.37	-0.10	0.050			
0.7965	50973.24	3.4160	3.4160	0.2317	25.36	-0.11	0.050			
0.7967	50987.94	3.4150	3.4150	0.2304	25.36	-0.11	0.050			
0.7969	51002.65	3.4140	3.4139	0.2294	25.36	-0.11	0.050			
0.7971	51017.29	3.4130	3.4129	0.2284	25.36	-0.11	0.050			
0.7974	51031.90	3.4120	3.4120	0.2274	25.37	-0.10	0.050			
0.7976	51046.42	3.4110	3.4110	0.2264	25.37	-0.10	0.050			
0.7978	51060.92	3.4100	3.4100	0.2250	25.36	-0.11	0.050			
0.7981	51075.29	3.4090	3.4090	0.2240	25.36	-0.11	0.050			
0.7983	51089.59	3.4080	3.4080	0.2229	25.35	-0.12	0.050			
0.7985	51103.76	3.4070	3.4070	0.2220	25.35	-0.12	0.050			
0.7987	51117.94	3.4060	3.4060	0.2210	25.35	-0.12	0.050			
0.7989	51132.05	3.4050	3.4050	0.2199	25.35	-0.12	0.050			
0.7992	51146.12	3.4040	3.4040	0.2192	25.35	-0.12	0.050			
0.7994	51160.12	3.4030	3.4030	0.2182	25.35	-0.12	0.050			
0.7996	51173.97	3.4020	3.4020	0.2170	25.35	-0.12	0.050			
0.7998	51187.86	3.4010	3.4010	0.2159	25.34	-0.13	0.050			
0.8000	51201.64	3.4000	3.4000	0.2149	25.34	-0.13	0.050			
0.8002	51215.39	3.3990	3.3989	0.2138	25.34	-0.13	0.050			
0.8005	51229.04	3.3980	3.3980	0.2127	25.34	-0.13	0.050			
0.8007	51242.62	3.3970	3.3970	0.2117	25.35	-0.12	0.050			
0.8009	51256.09	3.3960	3.3960	0.2106	25.35	-0.12	0.050			
0.8011	51269.44	3.3950	3.3950	0.2099	25.35	-0.12	0.050			
0.8013	51282.84	3.3940	3.3940	0.2091	25.34	-0.13	0.050			
0.8015	51296.24	3.3930	3.3930	0.2083	25.34	-0.13	0.050			
0.8017	51309.43	3.3920	3.3921	0.2077	25.33	-0.14	0.050			
0.8019	51322.70	3.3910	3.3910	0.2070	25.33	-0.14	0.050			
0.8021	51335.82	3.3900	3.3900	0.2060	25.33	-0.14	0.050	0.439	0.673	
0.8023	51348.93	3.3890	3.3891	0.2055	25.33	-0.14	0.050			
0.8025	51362.06	3.3880	3.3881	0.2048	25.33	-0.14	0.050			
0.8027	51375.12	3.3870	3.3870	0.2042	25.33	-0.14	0.050			
0.8029	51388.18	3.3860	3.3859	0.2035	25.33	-0.14	0.050			
0.8031	51401.19	3.3850	3.3849	0.2028	25.33	-0.14	0.050			
0.8033	51413.97	3.3840	3.3841	0.2020	25.33	-0.14	0.050			
0.8035	51427.01	3.3830	3.3830	0.2011	25.33	-0.14	0.050			
0.8037	51439.87	3.3820	3.3820	0.2005	25.33	-0.14	0.050			
0.8039	51452.70	3.3810	3.3810	0.1999	25.33	-0.14	0.050			
0.8041	51465.47	3.3800	3.3800	0.1993	25.33	-0.14	0.050			
0.8043	51478.37	3.3790	3.3790	0.1987	25.33	-0.14	0.050			
0.8045	51491.06	3.3780	3.3780	0.1979	25.33	-0.14	0.050			
0.8047	51503.70	3.3770	3.3770	0.1970	25.33	-0.14	0.050			
0.8049	51516.26	3.3760	3.3760	0.1963	25.33	-0.14	0.050			
0.8051	51528.96	3.3750	3.3750	0.1958	25.33	-0.14	0.050			
0.8053	51541.46	3.3740	3.3740	0.1949	25.33	-0.14	0.050			
0.8055	51553.79	3.3730	3.3730	0.1944	25.33	-0.14	0.050			
0.8057	51566.10	3.3720	3.3720	0.1934	25.33	-0.14	0.050			
0.8059	51578.46	3.3710	3.3708	0.1927	25.33	-0.14	0.050			
0.8061	51590.71	3.3700	3.3701	0.1921	25.33	-0.14	0.050			
0.8063	51602.88	3.3690	3.3691	0.1912	25.32	-0.15	0.050			
0.8065	51615.10	3.3680	3.3680	0.1906	25.32	-0.15	0.050			
0.8067	51627.28	3.3670	3.3670	0.1900	25.31	-0.16	0.050			
0.8069	51639.43	3.3660	3.3660	0.1891	25.31	-0.16	0.050			
0.8071	51651.52	3.3650	3.3649	0.1885	25.31	-0.16	0.050			
0.8072	51663.56	3.3640	3.3639	0.1879	25.31	-0.16	0.050			
0.8074	51675.68	3.3630	3.3630	0.1871	25.31	-0.16	0.050			
0.8076	51687.63	3.3620	3.3620	0.1864	25.31	-0.16	0.050			
0.8078	51699.54	3.3610	3.3610	0.1857	25.32	-0.15	0.050			
0.8080	51711.40	3.3600	3.3600	0.1850	25.32	-0.15	0.050			
0.8082	51723.35	3.3590	3.3590	0.1844	25.32	-0.15	0.050			
0.8084	51735.13	3.3580	3.3581	0.1836	25.33	-0.14	0.050			
0.8085	51746.85	3.3570	3.3570	0.1828	25.33	-0.14	0.050			
0.8087	51758.50	3.3560	3.3560	0.1823	25.32	-0.15	0.050			
0.8089	51770.14	3.3550	3.3550	0.1815	25.32	-0.15	0.050			
0.8091	51781.73	3.3540	3.3540	0.1808	25.31	-0.16	0.050			
0.8093	51793.24	3.3530	3.3530	0.1799	25.31	-0.16	0.050			
0.8094	51804.79	3.3520	3.3520	0.1790	25.32	-0.15	0.050			
0.8096	51816.22	3.3510	3.3510	0.1782	25.32	-0.15	0.050			
0.8098	51827.54	3.3500	3.3500	0.1773	25.32	-0.15	0.050			
0.8100	51838.86	3.3490	3.3490	0.1766	25.33	-0.14	0.050			
0.8102	51850.14	3.3480	3.3480	0.1758	25.33	-0.14	0.050			
0.8103	51861.37	3.3470	3.3470	0.1751	25.32	-0.15	0.050			
0.8105	51872.52	3.3460	3.3460	0.1743	25.32	-0.15	0.050			
0.8107	51883.63	3.3450	3.3450	0.1736	25.32	-0.15	0.050			
0.8109	51894.72	3.3440	3.3441	0.1729	25.31	-0.16	0.050			
0.8110	51905.80	3.3430	3.3430	0.1723	25.31	-0.16	0.050			
0.8112	51916.80	3.3420	3.3420	0.1715	25.31	-0.16	0.050			
0.8114	51927.72	3.3410	3.3410	0.1709	25.31	-0.16	0.050			
0.8115	51938.63	3.3400	3.3399	0.1702	25.31	-0.16	0.050			
0.8117	51949.51	3.3390	3.3390	0.1695	25.31	-0.16	0.050			
0.8119	51960.34	3.3380	3.3380	0.1688	25.31	-0.16	0.050			
0.8120	51971.06	3.3370	3.3370	0.1683	25.31	-0.16	0.050			
0.8122	51981.74	3.3360	3.3360	0.1675	25.31	-0.16	0.050			
0.8124	51992.44	3.3350	3.3350	0.1669	25.31	-0.16	0.050			
0.8125	52003.10	3.3340	3.3340	0.1663	25.31	-0.16	0.050			
0.8127	52013.80	3.3330	3.3330	0.1654	25.31	-0.16	0.050			
0.8129	52024.31	3.3320	3.3320	0.1646	25.31	-0.16	0.050			
0.8130	52034.82	3.3310	3.3310	0.1640	25.31	-0.16	0.050			
0.8132	52045.29	3.3300	3.3300	0.1633	25.31	-0.16	0.050			
0.8134	52055.78	3.3290	3.3290	0.1625	25.31	-0.16	0.050			
0.8135	52066.29	3.3280	3.3280	0.1621	25.31	-0.16	0.050			
0.8137	52076.64	3.3270	3.3270	0.1613	25.31	-0.16	0.050			
0.8139	52086.94	3.3260	3.3260	0.1606	25.31	-0.16	0.050			
0.8140	52097.14	3.3250	3.3250	0.1600	25.31	-0.16	0.050			
0.8142	52107.36	3.3240	3.3241	0.1593	25.31	-0.16	0.050			
0.8143	52117.53	3.3230	3.3230	0.1586	25.31	-0.16	0.050			
0.8145	52127.65	3.3220	3.3220	0.1578	25.31	-0.16	0.050			
0.8147	52137.77	3.3210	3.3210	0.1570	25.31	-0.16	0.050			
0.8148	52147.79	3.3200	3.3200	0.1562	25.31	-0.16	0.050			
0.8150	52157.76	3.3190	3.3190	0.1555	25.31	-0.16	0.050			
0.8151	52167.69	3.3180	3.3180	0.1547	25.31	-0.16	0.050			
0.8153	52177.40	3.3170	3.3170	0.1542	25.31	-0.16	0.050			
0.8154	52187.25	3.3160	3.3160	0.1536	25.31	-0.16	0.050			
0.8156	52197.06	3.3150	3.3150	0.1529	25.32	-0.15	0.050			
0.8157	52206.83	3.3140	3.3140	0.1523	25.32	-0.15	0.050			
0.8159	52216.43	3.3130	3.3130	0.1516	25.32	-0.15	0.050			
0.8160	52226.11	3.3120	3.3121	0.1511	25.32	-0.15	0.050			
0.8162	52235.76	3.3110	3.3111	0.1505	25.32	-0.15	0.050			
0.8163	52245.38	3.3100	3.3100	0.1500	25.33	-0.14	0.050			
0.8165	52254.99	3.3090	3.3089	0.1495	25.33	-0.14	0.050			
0.8166	52264.52	3.3080	3.3080	0.1491	25.33	-0.14	0.050			
0.8168	52274.04	3.3070	3.3070	0.1486	25.33	-0.14	0.050			
0.8169	52283.54	3.3060	3.3059	0.1480	25.33	-0.14	0.050			
0.8171	52292.94	3.3050	3.3050	0.1475	25.33	-0.14	0.050			
0.8172	52302.37	3.3040	3.3040	0.1470	25.33	-0.14	0.050			
0.8174	52311.76	3.3030	3.3030	0.1465	25.33	-0.14	0.050			
0.8175	52321.12	3.3020	3.3020	0.1460	25.33	-0.14	0.050			
0.8177	52330.40	3.3010	3.3010	0.1455	25.33	-0.14	0.050			
0.8178	52339.69	3.3000	3.3000	0.1450	25.33	-0.14	0.050			
0.8180	52348.97	3.2990	3.2990	0.1446	25.33	-0.14	0.050			
0.8181	52358.21	3.2980	3.2980	0.1441	25.34	-0.13	0.050			
0.8182	52367.53	3.2970	3.2970	0.1439	25.34	-0.13	0.050			
0.8184	52376.72	3.2960	3.2960	0.1434	25.34	-0.13	0.050			
0.8185	52385.84	3.2950	3.2950	0.1429	25.34	-0.13	0.050			
0.8187	52394.98	3.2940	3.2940	0.1424	25.34	-0.13	0.050			
0.8188	52403.98	3.2930	3.2930	0.1417	25.34	-0.13	0.050			
0.8190	52413.04	3.2920	3.2920	0.1413	25.35	-0.12	0.050			
0.8191	52422.07	3.2910	3.2910	0.1409	25.35	-0.12	0.050			
0.8192	52431.13	3.2900	3.2900	0.1403	25.35	-0.12	0.050			
0.8194	52440.09	3.2890	3.2890	0.1398	25.35	-0.12	0.050			
0.8195	52449.07	3.2880	3.2880	0.1394	25.36	-0.11	0.050			
0.8197	52457.98	3.2870	3.2870	0.1389	25.36	-0.11	0.050			
0.8198	52466.76	3.2860	3.2860	0.1386	25.36	-0.11	0.050			
0.8199	52475.62	3.2850	3.2850	0.1382	25.37	-0.10	0.050			
0.8201	52484.42	3.2840	3.2840	0.1377	25.37	-0.10	0.050			
0.8202	52493.22	3.2830	3.2830	0.1373	25.37	-0.10	0.050			
0.8203	52501.99	3.2820	3.2820	0.1368	25.37	-0.10	0.050			
0.8205	52510.81	3.2810	3.2810	0.1361	25.37	-0.10	0.050			
0.8206	52519.51	3.2800	3.2800	0.1356	25.37	-0.10	0.050			
0.8208	52528.21	3.2790	3.2790	0.1351	25.37	-0.10	0.050			
0.8209	52536.68	3.2780	3.2780	0.1349	25.37	-0.10	0.050			
0.8210	52545.30	3.2770	3.2770	0.1345	25.37	-0.10	0.050			
0.8212	52553.90	3.2760	3.2760	0.1340	25.37	-0.10	0.050			
0.8213	52562.41	3.2750	3.2750	0.1335	25.37	-0.10	0.050			
0.8214	52570.94	3.2740	3.2740	0.1331	25.37	-0.10	0.050			
0.8216	52579.45	3.2730	3.2731	0.1328	25.37	-0.10	0.050			
0.8217	52587.93	3.2720	3.2720	0.1324	25.37	-0.10	0.050			
0.8218	52596.39	3.2710	3.2711	0.1320	25.37	-0.10	0.050			
0.8219	52604.78	3.2700	3.2701	0.1316	25.37	-0.10	0.050			
0.8221	52613.19	3.2690	3.2691	0.1312	25.37	-0.10	0.050			
0.8222	52621.58	3.2680	3.2680	0.1309	25.38	-0.09	0.050	0.385	0.678	
0.8223	52630.00	3.2670	3.2670	0.1304	25.38	-0.09	0.050			
0.8225	52638.37	3.2660	3.2660	0.1301	25.38	-0.09	0.050			
0.8226	52646.69	3.2650	3.2650	0.1297	25.38	-0.09	0.050			
0.8227	52654.97	3.2640	3.2640	0.1293	25.38	-0.09	0.050			
0.8229	52663.23	3.2630	3.2630	0.1288	25.39	-0.08	0.050			
0.8230	52671.56	3.2620	3.2620	0.1282	25.39	-0.08	0.050			
0.8231	52679.75	3.2610	3.2610	0.1277	25.39	-0.08	0.050			
0.8232	52687.91	3.2600	3.2600	0.1272	25.40	-0.07	0.050			
0.8234	52696.04	3.2590	3.2590	0.1267	25.40	-0.07	0.050			
0.8235	52704.33	3.2580	3.2580	0.1267	25.40	-0.07	0.050			
0.8236	52712.42	3.2570	3.2570	0.1260	25.40	-0.07	0.050			
0.8238	52720.42	3.2560	3.2560	0.1254	25.40	-0.07	0.050			
0.8239	52728.43	3.2550	3.2550	0.1248	25.41	-0.06	0.050			
0.8240	52736.39	3.2540	3.2540	0.1241	25.41	-0.06	0.050			
0.8241	52744.32	3.2530	3.2530	0.1235	25.41	-0.06	0.050			
0.8243	52752.16	3.2520	3.2520	0.1228	25.41	-0.06	0.050			
0.8244	52759.92	3.2510	3.2510	0.1224	25.41	-0.06	0.050			
0.8245	52767.73	3.2500	3.2500	0.1218	25.41	-0.06	0.050			
0.8246	52775.51	3.2490	3.2490	0.1213	25.41	-0.06	0.050			
0.8247	52783.26	3.2480	3.2480	0.1207	25.42	-0.05	0.050			
0.8249	52790.91	3.2470	3.2470	0.1201	25.42	-0.05	0.050			
0.8250	52798.49	3.2460	3.2460	0.1198	25.42	-0.05	0.050			
0.8251	52806.14	3.2450	3.2450	0.1194	25.42	-0.05	0.050			
0.8252	52813.77	3.2440	3.2440	0.1189	25.42	-0.05	0.050			
0.8253	52821.36	3.2430	3.2430	0.1185	25.42	-0.05	0.050			
0.8255	52828.82	3.2420	3.2420	0.1179	25.42	-0.05	0.050			
0.8256	52836.36	3.2410	3.2410	0.1176	25.43	-0.04	0.050			
0.8257	52843.95	3.2400	3.2399	0.1170	25.43	-0.04	0.050			
0.8258	52851.42	3.2390	3.2390	0.1166	25.43	-0.04	0.050			
0.8259	52858.87	3.2380	3.2380	0.1162	25.43	-0.04	0.050			
0.8260	52866.30	3.2370	3.2370	0.1158	25.43	-0.04	0.050			
0.8262	52873.72	3.2360	3.2360	0.1154	25.43	-0.04	0.050			
0.8263	52881.10	3.2350	3.2350	0.1150	25.43	-0.04	0.050			
0.8264	52888.41	3.2340	3.2340	0.1147	25.43	-0.04	0.050			
0.8265	52895.74	3.2330	3.2330	0.1143	25.43	-0.04	0.050			
0.8266	52903.04	3.2320	3.2320	0.1139	25.43	-0.04	0.050			
0.8267	52910.35	3.2310	3.2310	0.1135	25.43	-0.04	0.050			
0.8268	52917.60	3.2300	3.2300	0.1131	25.43	-0.04	0.050			
0.8270	52924.83	3.2290	3.2290	0.1127	25.44	-0.03	0.050			
0.8271	52932.02	3.2280	3.2280	0.1122	25.44	-0.03	0.050			
0.8272	52939.19	3.2270	3.2270	0.1118	25.44	-0.03	0.050			
0.8273	52946.33	3.2260	3.2260	0.1114	25.44	-0.03	0.050			
0.8274	52953.45	3.2250	3.2250	0.1110	25.45	-0.02	0.050			
0.8275	52960.45	3.2240	3.2240	0.1107	25.45	-0.02	0.050			
0.8276	52967.53	3.2230	3.2230	0.1104	25.45	-0.02	0.050			
0.8277	52974.58	3.2220	3.2220	0.1100	25.45	-0.02	0.050			
0.8278	52981.61	3.2210	3.2210	0.1096	25.45	-0.02	0.050			
0.8279	52988.53	3.2200	3.2200	0.1091	25.45	-0.02	0.050			
0.8281	52995.50	3.2190	3.2190	0.1088	25.45	-0.02	0.050			
0.8282	53002.46	3.2180	3.2180	0.1085	25.45	-0.02	0.050			
0.8283	53009.40	3.2170	3.2170	0.1082	25.45	-0.02	0.050			
0.8284	53016.32	3.2160	3.2159	0.1079	25.45	-0.02	0.050			
0.8285	53023.21	3.2150	3.2150	0.1076	25.45	-0.02	0.050			
0.8286	53030.11	3.2140	3.2141	0.1073	25.45	-0.02	0.050			
0.8287	53036.97	3.2130	3.2131	0.1070	25.45	-0.02	0.050			
0.8288	53043.81	3.2120	3.2120	0.1067	25.45	-0.02	0.050			
0.8289	53050.67	3.2110	3.2110	0.1063	25.46	-0.01	0.050			
0.8290	53057.46	3.2100	3.2100	0.1059	25.46	-0.01	0.050			
0.8291	53064.21	3.2090	3.2090	0.1055	25.46	-0.01	0.050			
0.8292	53070.95	3.2080	3.2080	0.1052	25.46	-0.01	0.050			
0.8293	53077.67	3.2070	3.2070	0.1049	25.46	-0.01	0.050			
0.8294	53084.37	3.2060	3.2060	0.1045	25.46	-0.01	0.050			
0.8295	53091.09	3.2050	3.2050	0.1040	25.46	-0.01	0.050			
0.8297	53097.82	3.2040	3.2040	0.1039	25.47	-0.00	0.050			
0.8298	53104.46	3.2030	3.2030	0.1035	25.47	-0.00	0.050			
0.8299	53111.07	3.2020	3.2020	0.1030	25.47	-0.00	0.050			
0.8300	53117.65	3.2010	3.2010	0.1026	25.47	-0.00	0.050			
0.8301	53124.20	3.2000	3.2000	0.1022	25.47	-0.00	0.050			
0.8302	53130.69	3.1990	3.1991	0.1019	25.47	0.00	0.050			
0.8303	53137.20	3.1980	3.1980	0.1015	25.47	0.00	0.050			
0.8304	53143.66	3.1970	3.1970	0.1011	25.48	0.01	0.050			
0.8305	53150.12	3.1960	3.1960	0.1007	25.48	0.01	0.050			
0.8306	53156.55	3.1950	3.1950	0.1003	25.48	0.01	0.050			
0.8307	53162.95	3.1940	3.1940	0.0999	25.48	0.01	0.050			
0.8308	53169.34	3.1930	3.1930	0.0995	25.49	0.02	0.050			
0.8309	53175.66	3.1920	3.1920	0.0993	25.49	0.02	0.050			
0.8310	53181.94	3.1910	3.1910	0.0988	25.49	0.02	0.050			
0.8311	53188.25	3.1900	3.1900	0.0984	25.49	0.02	0.050			
0.8312	53194.54	3.1890	3.1890	0.0981	25.49	0.02	0.050			
0.8313	53200.81	3.1880	3.1880	0.0978	25.49	0.02	0.050			
0.8314	53207.06	3.1870	3.1870	0.0975	25.49	0.02	0.050			
0.8315	53213.29	3.1860	3.1860	0.0971	25.49	0.02	0.050			
0.8316	53219.40	3.1850	3.1850	0.0969	25.49	0.02	0.050			
0.8316	53225.59	3.1840	3.1840	0.0967	25.49	0.02	0.050			
0.8317	53231.77	3.1830	3.1830	0.0964	25.49	0.02	0.050			
0.8318	53237.93	3.1820	3.1820	0.0962	25.49	0.02	0.050			
0.8319	53244.08	3.1810	3.1810	0.0959	25.49	0.02	0.050			
0.8320	53250.20	3.1800	3.1800	0.0956	25.49	0.02	0.050			
0.8321	53256.36	3.1790	3.1790	0.0952	25.49	0.02	0.050			
0.8322	53262.44	3.1780	3.1780	0.0949	25.48	0.01	0.050			
0.8323	53268.51	3.1770	3.1770	0.0947	25.48	0.01	0.050			
0.8324	53274.56	3.1760	3.1760	0.0944	25.48	0.01	0.050			
0.8325	53280.59	3.1750	3.1749	0.0941	25.48	0.01	0.050			
0.8326	53286.60	3.1740	3.1739	0.0938	25.48	0.01	0.050			
0.8327	53292.60	3.1730	3.1730	0.0935	25.48	0.01	0.050			
0.8328	53298.68	3.1720	3.1720	0.0932	25.48	0.01	0.050			
0.8329	53304.63	3.1710	3.1710	0.0928	25.48	0.01	0.050			
0.8330	53310.56	3.1700	3.1701	0.0924	25.48	0.01	0.050			
0.8331	53316.46	3.1690	3.1691	0.0921	25.47	0.00	0.050			
0.8332	53322.34	3.1680	3.1680	0.0917	25.47	0.00	0.050			
0.8333	53328.20	3.1670	3.1670	0.0914	25.47	0.00	0.050			
0.8333	53334.03	3.1660	3.1660	0.0911	25.47	0.00	0.050			
0.8334	53339.90	3.1650	3.1650	0.0908	25.47	0.00	0.050			
0.8335	53345.70	3.1640	3.1640	0.0905	25.47	0.00	0.050			
0.8336	53351.48	3.1630	3.1630	0.0901	25.47	0.00	0.050			
0.8337	53357.23	3.1620	3.1621	0.0897	25.47	0.00	0.050			
0.8338	53362.96	3.1610	3.1610	0.0893	25.47	0.00	0.050			
0.8339	53368.66	3.1600	3.1600	0.0889	25.47	0.00	0.050			
0.8340	53374.29	3.1590	3.1590	0.0884	25.47	0.00	0.050			
0.8341	53379.94	3.1580	3.1580	0.0881	25.47	0.00	0.050			
0.8341	53385.56	3.1570	3.1570	0.0877	25.47	0.00	0.050			
0.8342	53391.17	3.1560	3.1560	0.0874	25.47	0.00	0.050			
0.8343	53396.75	3.1550	3.1550	0.0870	25.47	0.00	0.050			
0.8344	53402.29	3.1540	3.1540	0.0868	25.47	0.00	0.050			
0.8345	53407.83	3.1530	3.1530	0.0864	25.47	0.00	0.050			
0.8346	53413.35	3.1520	3.1521	0.0861	25.47	0.00	0.050			
0.8347	53418.85	3.1510	3.1510	0.0857	25.47	0.00	0.050			
0.8348	53424.32	3.1500	3.1500	0.0854	25.47	0.00	0.050			
0.8348	53429.78	3.1490	3.1490	0.0851	25.47	0.00	0.050			
0.8349	53435.21	3.1480	3.1480	0.0847	25.47	0.00	0.050			
0.8350	53440.60	3.1470	3.1469	0.0845	25.47	0.00	0.050			
0.8351	53445.99	3.1460	3.1460	0.0842	25.47	0.00	0.050			
0.8352	53451.36	3.1450	3.1450	0.0838	25.47	0.00	0.050			
0.8353	53456.72	3.1440	3.1440	0.0835	25.47	0.00	0.050			
0.8353	53462.06	3.1430	3.1430	0.0832	25.47	0.00	0.050			
0.8354	53467.37	3.1420	3.1420	0.0829	25.47	0.00	0.050			
0.8355	53472.67	3.1410	3.1410	0.0826	25.47	0.00	0.050			
0.8356	53477.90	3.1400	3.1400	0.0822	25.47	0.00	0.050			
0.8357	53483.15	3.1390	3.1390	0.0820	25.47	0.00	0.050			
0.8358	53488.39	3.1380	3.1380	0.0817	25.47	0.00	0.050			
0.8358	53493.61	3.1370	3.1370	0.0814	25.47	0.00	0.050			
0.8359	53498.81	3.1360	3.1360	0.0812	25.47	0.00	0.050			
0.8360	53503.99	3.1350	3.1350	0.0809	25.47	0.00	0.050			
0.8361	53509.20	3.1340	3.1340	0.0806	25.47	0.00	0.050			
0.8362	53514.35	3.1330	3.1330	0.0803	25.47	0.00	0.050			
0.8362	53519.48	3.1320	3.1320	0.0801	25.47	0.00	0.050			
0.8363	53524.59	3.1310	3.1310	0.0798	25.47	0.00	0.050			
0.8364	53529.69	3.1300	3.1300	0.0795	25.47	0.00	0.050			
0.8365	53534.77	3.1290	3.1290	0.0792	25.47	0.00	0.050			
0.8366	53539.83	3.1280	3.1280	0.0789	25.47	0.00	0.050			
0.8366	53544.87	3.1270	3.1270	0.0786	25.47	0.00	0.050			
0.8367	53549.89	3.1260	3.1259	0.0783	25.47	0.00	0.050			
0.8368	53554.95	3.1250	3.1250	0.0779	25.47	0.00	0.050			
0.8369	53559.92	3.1240	3.1240	0.0775	25.47	0.00	0.050			
0.8370	53564.88	3.1230	3.1231	0.0772	25.47	0.00	0.050			
0.8370	53569.81	3.1220	3.1220	0.0769	25.47	0.00	0.050			
0.8371	53574.72	3.1210	3.1210	0.0765	25.47	0.00	0.050			
0.8372	53579.65	3.1200	3.1200	0.0763	25.47	0.00	0.050			
0.8373	53584.52	3.1190	3.1190	0.0759	25.47	0.00	0.050			
0.8373	53589.27	3.1180	3.1181	0.0757	25.47	0.00	0.050			
0.8374	53594.10	3.1170	3.1171	0.0754	25.47	0.00	0.050			
0.8375	53598.92	3.1160	3.1160	0.0751	25.47	0.00	0.050			
0.8376	53603.72	3.1150	3.1150	0.0748	25.47	0.00	0.050			
0.8376	53608.50	3.1140	3.1140	0.0745	25.47	0.00	0.050			
0.8377	53613.21	3.1130	3.1131	0.0741	25.47	0.00	0.050			
0.8378	53617.95	3.1120	3.1120	0.0739	25.47	0.00	0.050			
0.8379	53622.67	3.1110	3.1110	0.0736	25.47	0.00	0.050			
0.8379	53627.34	3.1100	3.1100	0.0734	25.47	0.00	0.050			
0.8380	53632.02	3.1090	3.1090	0.0731	25.47	0.00	0.050			
0.8381	53636.69	3.1080	3.1080	0.0728	25.47	0.00	0.050			
0.8381	53641.35	3.1070	3.1070	0.0726	25.47	0.00	0.050			
0.8382	53645.98	3.1060	3.1060	0.0723	25.47	0.00	0.050			
0.8383	53650.51	3.1050	3.1050	0.0719	25.47	0.00	0.050			
0.8384	53655.11	3.1040	3.1040	0.0717	25.47	0.00	0.050			
0.8384	53659.69	3.1030	3.1030	0.0715	25.47	0.00	0.050			
0.8385	53664.30	3.1020	3.1020	0.0712	25.47	0.00	0.050			
0.8386	53668.85	3.1010	3.1010	0.0710	25.47	0.00	0.050			
0.8386	53673.38	3.1000	3.1000	0.0708	25.47	0.00	0.050			
0.8387	53677.90	3.0990	3.0990	0.0705	25.47	0.00	0.050			
0.8388	53682.47	3.0980	3.0981	0.0704	25.47	0.00	0.050			
0.8389	53686.96	3.0970	3.0971	0.0701	25.47	0.00	0.050			
0.8389	53691.44	3.0960	3.0960	0.0699	25.47	0.00	0.050			
0.8390	53695.91	3.0950	3.0950	0.0696	25.47	0.00	0.050			
0.8391	53700.38	3.0940	3.0940	0.0693	25.47	0.00	0.050			
0.8391	53704.81	3.0930	3.0930	0.0690	25.47	0.00	0.050			
0.8392	53709.21	3.0920	3.0920	0.0687	25.47	0.00	0.050			
0.8393	53713.60	3.0910	3.0910	0.0684	25.47	0.00	0.050			
0.8393	53717.98	3.0900	3.0900	0.0681	25.47	0.00	0.050			
0.8394	53722.33	3.0890	3.0890	0.0679	25.47	0.00	0.050			
0.8395	53726.67	3.0880	3.0880	0.0676	25.47	0.00	0.050			
0.8395	53730.98	3.0870	3.0870	0.0673	25.47	0.00	0.050			
0.8396	53735.28	3.0860	3.0860	0.0670	25.47	0.00	0.050			
0.8397	53739.56	3.0850	3.0850	0.0667	25.47	0.00	0.050			
0.8397	53743.82	3.0840	3.0840	0.0664	25.47	0.00	0.050			
0.8398	53748.06	3.0830	3.0831	0.0661	25.47	0.00	0.050			
0.8399	53752.31	3.0820	3.0820	0.0659	25.47	0.00	0.050			
0.8399	53756.51	3.0810	3.0810	0.0656	25.47	0.00	0.050			
0.8400	53760.70	3.0800	3.0800	0.0653	25.47	0.00	0.050			
0.8401	53764.86	3.0790	3.0790	0.0650	25.47	0.00	0.050			
0.8401	53769.01	3.0780	3.0780	0.0646	25.47	0.00	0.050			
0.8402	53773.14	3.0770	3.0770	0.0643	25.47	0.00	0.050			
0.8403	53777.26	3.0760	3.0760	0.0640	25.47	0.00	0.050			
0.8403	53781.34	3.0750	3.0750	0.0637	25.47	0.00	0.050			
0.8404	53785.40	3.0740	3.0740	0.0634	25.47	0.00	0.050			
0.8405	53789.45	3.0730	3.0730	0.0631	25.47	0.00	0.050			
0.8405	53793.48	3.0720	3.0720	0.0628	25.48	0.01	0.050			
0.8406	53797.48	3.0710	3.0710	0.0625	25.48	0.01	0.050			
0.8406	53801.47	3.0700	3.0700	0.0621	25.48	0.01	0.050			
0.8407	53805.44	3.0690	3.0690	0.0618	25.48	0.01	0.050			
0.8408	53809.39	3.0680	3.0680	0.0615	25.48	0.01	0.050			
0.8408	53814.27	3.0670	3.0667	0.0591	25.48	0.01	0.050			
0.8409	53818.03	3.0660	3.0657	0.0583	25.48	0.01	0.050			
0.8410	53822.06	3.0650	3.0648	0.0593	25.48	0.01	0.050			
0.8410	53825.83	3.0640	3.0639	0.0584	25.48	0.01	0.050			
0.8411	53829.54	3.0630	3.0629	0.0575	25.48	0.01	0.050			
0.8411	53833.19	3.0620	3.0619	0.0565	25.48	0.01	0.050			
0.8412	53836.78	3.0610	3.0610	0.0556	25.48	0.01	0.050			
0.8413	53840.31	3.0600	3.0600	0.0547	25.48	0.01	0.050			
0.8413	53843.78	3.0590	3.0591	0.0538	25.48	0.01	0.050			
0.8414	53847.19	3.0580	3.0582	0.0529	25.47	0.00	0.050			
0.8414	53850.54	3.0570	3.0573	0.0519	25.47	0.00	0.050			
0.8415	53854.75	3.0560	3.0561	0.0522	25.47	0.00	0.050			
0.8415	53858.05	3.0550	3.0552	0.0510	25.47	0.00	0.050			
0.8416	53861.28	3.0540	3.0543	0.0498	25.47	0.00	0.050			
0.8416	53864.42	3.0530	3.0534	0.0486	25.47	0.00	0.050			
0.8417	53867.49	3.0520	3.0525	0.0473	25.47	0.00	0.050			
0.8417	53870.48	3.0510	3.0516	0.0461	25.47	0.00	0.050			
0.8418	53873.39	3.0500	3.0508	0.0449	25.47	-0.00	0.050			
0.8418	53876.22	3.0490	3.0499	0.0436	25.47	-0.00	0.050			
0.8419	53878.98	3.0480	3.0491	0.0424	25.47	-0.00	0.050			
0.8419	53881.65	3.0470	3.0482	0.0412	25.47	-0.00	0.050			
0.8419	53884.25	3.0460	3.0474	0.0400	25.47	-0.00	0.050			
0.8420	53886.77	3.0450	3.0465	0.0387	25.47	-0.00	0.050			
0.8420	53889.21	3.0440	3.0457	0.0375	25.47	-0.00	0.050			
0.8421	53891.57	3.0430	3.0448	0.0363	25.47	-0.00	0.050			
0.8421	53893.85	3.0420	3.0439	0.0350	25.47	-0.00	0.050			
0.8421	53896.05	3.0410	3.0429	0.0338	25.47	-0.00	0.050			
