Ah_balance (normalized)	Ah_balance (mAh)	Voltage - fit (V)	Voltage -  interpolate (V)	dQ/dV (1/V)	Temperature (°C)	Temperature - diff (°C)	Current (C)	R_DC 0ms (mOhm)	R_DC 50ms (mOhm)	R_DC 50 ms PEC (mOhm)
0.1863	11923.98	3.9030	3.9022	-0.0460	5.99	-0.01	-0.750			
0.1865	11937.36	3.9000	3.8997	-0.0867	5.99	-0.01	-0.750			
0.1868	11958.21	3.8970	3.8967	-0.1205	5.99	-0.01	-0.750			
0.1872	11983.91	3.8940	3.8940	-0.1517	5.99	-0.01	-0.750			
0.1878	12016.77	3.8910	3.8911	-0.1812	5.99	-0.01	-0.750			
0.1883	12054.34	3.8880	3.8881	-0.2116	6.00	-0.00	-0.750			
0.1890	12098.86	3.8850	3.8849	-0.2398	6.00	-0.00	-0.750			
0.1898	12147.77	3.8820	3.8821	-0.2649	6.00	-0.00	-0.750			
0.1906	12201.58	3.8790	3.8789	-0.2887	6.00	0.00	-0.750			
0.1916	12259.79	3.8760	3.8760	-0.3127	6.00	0.00	-0.750			
0.1925	12320.73	3.8730	3.8732	-0.3413	6.01	0.01	-0.750			
0.1936	12387.62	3.8700	3.8700	-0.3695	6.01	0.01	-0.750			
0.1947	12460.92	3.8670	3.8669	-0.3963	6.01	0.01	-0.750			
0.1959	12540.23	3.8640	3.8639	-0.4288	6.01	0.01	-0.750			
0.1973	12625.25	3.8610	3.8612	-0.4639	6.02	0.02	-0.750			
0.1987	12718.93	3.8580	3.8580	-0.4929	6.02	0.02	-0.750			
0.2003	12817.14	3.8550	3.8549	-0.5233	6.02	0.02	-0.750			
0.2019	12920.09	3.8520	3.8521	-0.5478	6.03	0.03	-0.750			
0.2036	13027.47	3.8490	3.8491	-0.5760	6.03	0.03	-0.750			
0.2053	13141.23	3.8460	3.8459	-0.6027	6.04	0.04	-0.750			
0.2072	13259.59	3.8430	3.8429	-0.6241	6.04	0.04	-0.750			
0.2091	13381.30	3.8400	3.8400	-0.6511	6.05	0.05	-0.750			
0.2111	13510.49	3.8370	3.8370	-0.6728	6.06	0.06	-0.750			
0.2132	13642.98	3.8340	3.8339	-0.6916	6.06	0.06	-0.750			
0.2153	13779.40	3.8310	3.8313	-0.6995	6.07	0.07	-0.750			
0.2174	13915.09	3.8280	3.8279	-0.7081	6.08	0.08	-0.750			
0.2195	14050.46	3.8250	3.8251	-0.7242	6.09	0.09	-0.750			
0.2217	14188.51	3.8220	3.8219	-0.7360	6.10	0.10	-0.750			
0.2240	14333.34	3.8190	3.8188	-0.7469	6.11	0.11	-0.750			
0.2262	14478.44	3.8160	3.8159	-0.7521	6.12	0.12	-0.750			
0.2285	14624.67	3.8130	3.8131	-0.7627	6.13	0.13	-0.750			
0.2308	14772.01	3.8100	3.8102	-0.7755	6.14	0.14	-0.750			
0.2331	14920.42	3.8070	3.8070	-0.7781	6.15	0.15	-0.750			
0.2354	15068.69	3.8040	3.8038	-0.7801	6.16	0.16	-0.750			
0.2378	15220.39	3.8010	3.8011	-0.7951	6.17	0.17	-0.750			
0.2403	15378.30	3.7980	3.7981	-0.7958	6.18	0.18	-0.750			
0.2427	15529.86	3.7950	3.7950	-0.7910	6.19	0.19	-0.750			
0.2450	15682.10	3.7920	3.7920	-0.7887	6.20	0.20	-0.750			
0.2474	15831.27	3.7890	3.7890	-0.7906	6.21	0.21	-0.750			
0.2497	15983.44	3.7860	3.7859	-0.7900	6.23	0.23	-0.750			
0.2521	16133.85	3.7830	3.7829	-0.7935	6.24	0.24	-0.750			
0.2545	16286.77	3.7800	3.7800	-0.7949	6.25	0.25	-0.750			
0.2569	16440.37	3.7770	3.7770	-0.8138	6.26	0.26	-0.750			
0.2593	16596.93	3.7740	3.7740	-0.8125	6.27	0.27	-0.750			
0.2618	16753.59	3.7710	3.7709	-0.8144	6.28	0.28	-0.750			
0.2642	16910.75	3.7680	3.7680	-0.8166	6.30	0.30	-0.750			
0.2667	17069.81	3.7650	3.7652	-0.8233	6.31	0.31	-0.750			
0.2692	17227.26	3.7620	3.7617	-0.8231	6.32	0.32	-0.750			
0.2717	17386.11	3.7590	3.7591	-0.8230	6.33	0.33	-0.750			
0.2741	17541.77	3.7560	3.7561	-0.8174	6.34	0.34	-0.750			
0.2766	17703.47	3.7530	3.7529	-0.8255	6.36	0.36	-0.750			
0.2791	17861.17	3.7500	3.7499	-0.8182	6.37	0.37	-0.750			
0.2815	18014.75	3.7470	3.7470	-0.8209	6.38	0.38	-0.750			
0.2839	18171.75	3.7440	3.7440	-0.8228	6.39	0.39	-0.750			
0.2864	18332.00	3.7410	3.7409	-0.8223	6.40	0.40	-0.750			
0.2889	18489.00	3.7380	3.7380	-0.8359	6.41	0.41	-0.750			
0.2914	18650.51	3.7350	3.7349	-0.8411	6.43	0.43	-0.750			
0.2940	18813.80	3.7320	3.7318	-0.8459	6.44	0.44	-0.750			
0.2965	18977.15	3.7290	3.7290	-0.8495	6.45	0.45	-0.750			
0.2991	19139.47	3.7260	3.7261	-0.8484	6.46	0.46	-0.750			
0.3017	19306.36	3.7230	3.7230	-0.8545	6.48	0.48	-0.750			
0.3042	19471.54	3.7200	3.7198	-0.8484	6.49	0.49	-0.750			
0.3067	19631.84	3.7170	3.7170	-0.8377	6.50	0.50	-0.750			
0.3093	19793.10	3.7140	3.7141	-0.8346	6.51	0.51	-0.750			
0.3117	19948.65	3.7110	3.7110	-0.8393	6.52	0.52	-0.750			
0.3142	20109.26	3.7080	3.7080	-0.8435	6.54	0.54	-0.750			
0.3168	20272.43	3.7050	3.7048	-0.8511	6.55	0.55	-0.750			
0.3193	20437.52	3.7020	3.7020	-0.8675	6.56	0.56	-0.750			
0.3220	20607.53	3.6990	3.6991	-0.8778	6.57	0.57	-0.750			
0.3247	20778.49	3.6960	3.6959	-0.8793	6.58	0.58	-0.750			
0.3273	20949.75	3.6930	3.6931	-0.8827	6.59	0.59	-0.750			
0.3299	21115.99	3.6900	3.6900	-0.8880	6.60	0.60	-0.750			
0.3326	21286.62	3.6870	3.6870	-0.8935	6.61	0.61	-0.750			
0.3353	21458.30	3.6840	3.6839	-0.9019	6.63	0.63	-0.750			
0.3380	21631.69	3.6810	3.6810	-0.9158	6.64	0.64	-0.750			
0.3408	21808.88	3.6780	3.6781	-0.9225	6.65	0.65	-0.750			
0.3436	21990.26	3.6750	3.6750	-0.9354	6.67	0.67	-0.750			
0.3464	22167.64	3.6720	3.6720	-0.9425	6.68	0.68	-0.750			
0.3492	22349.43	3.6690	3.6689	-0.9484	6.69	0.69	-0.750			
0.3521	22533.67	3.6660	3.6661	-0.9547	6.71	0.71	-0.750			
0.3549	22715.29	3.6630	3.6629	-0.9735	6.72	0.72	-0.750			
0.3579	22903.04	3.6600	3.6601	-0.9873	6.73	0.73	-0.750			
0.3609	23095.74	3.6570	3.6568	-1.0004	6.74	0.74	-0.750			
0.3639	23288.89	3.6540	3.6540	-1.0120	6.75	0.75	-0.750			
0.3669	23484.47	3.6510	3.6511	-1.0237	6.76	0.76	-0.750			
0.3701	23684.81	3.6480	3.6479	-1.0374	6.77	0.77	-0.750			
0.3732	23884.34	3.6450	3.6451	-1.0511	6.78	0.78	-0.750			
0.3763	24083.77	3.6420	3.6420	-1.0609	6.79	0.79	-0.750			
0.3795	24289.48	3.6390	3.6391	-1.0919	6.81	0.81	-0.750			
0.3828	24501.89	3.6360	3.6359	-1.1173	6.82	0.82	-0.750			
0.3862	24718.08	3.6330	3.6329	-1.1419	6.83	0.83	-0.750			
0.3897	24942.19	3.6300	3.6302	-1.1612	6.85	0.85	-0.750			
0.3932	25167.98	3.6270	3.6270	-1.1833	6.86	0.86	-0.750			
0.3969	25398.93	3.6240	3.6239	-1.1953	6.87	0.87	-0.750			
0.4004	25627.93	3.6210	3.6210	-1.2202	6.88	0.88	-0.750			
0.4041	25863.23	3.6180	3.6180	-1.2376	6.89	0.89	-0.750			
0.4078	26100.69	3.6150	3.6150	-1.2558	6.91	0.91	-0.750			
0.4116	26344.06	3.6120	3.6120	-1.2798	6.92	0.92	-0.750			
0.4155	26594.17	3.6090	3.6091	-1.3006	6.93	0.93	-0.750			
0.4195	26846.20	3.6060	3.6060	-1.3135	6.94	0.94	-0.750			
0.4234	27099.96	3.6030	3.6030	-1.3540	6.95	0.95	-0.750			
0.4275	27361.89	3.6000	3.6000	-1.3756	6.96	0.96	-0.750			
0.4318	27632.58	3.5970	3.5968	-1.4058	6.97	0.97	-0.750			
0.4360	27905.74	3.5940	3.5942	-1.4175	6.99	0.99	-0.750			
0.4403	28182.20	3.5910	3.5912	-1.4386	7.00	1.00	-0.750			
0.4447	28459.91	3.5880	3.5882	-1.4533	7.01	1.01	-0.750			
0.4491	28739.98	3.5850	3.5848	-1.4635	7.02	1.02	-0.750			
0.4534	29014.84	3.5820	3.5821	-1.4826	7.03	1.03	-0.750			
0.4579	29302.98	3.5790	3.5790	-1.5191	7.04	1.04	-0.750			
0.4624	29593.03	3.5760	3.5760	-1.5662	7.05	1.05	-0.750			
0.4672	29902.75	3.5730	3.5728	-1.6122	7.07	1.07	-0.750			
0.4722	30218.60	3.5700	3.5700	-1.6531	7.08	1.08	-0.750			
0.4772	30543.78	3.5670	3.5671	-1.6840	7.10	1.10	-0.750			
0.4825	30879.51	3.5640	3.5641	-1.7042	7.11	1.11	-0.750			
0.4877	31210.73	3.5610	3.5608	-1.7146	7.12	1.12	-0.750			
0.4927	31532.98	3.5580	3.5583	-1.7366	7.14	1.14	-0.750			
0.4979	31866.61	3.5550	3.5552	-1.7414	7.15	1.15	-0.750			
0.5031	32201.06	3.5520	3.5521	-1.7474	7.16	1.16	-0.750			
0.5084	32536.99	3.5490	3.5491	-1.7791	7.17	1.17	-0.750	0.406	1.130	
0.5138	32885.77	3.5460	3.5459	-1.8003	7.19	1.19	-0.750			
0.5194	33238.43	3.5430	3.5428	-1.8038	7.20	1.20	-0.750			
0.5247	33581.49	3.5400	3.5403	-1.8134	7.21	1.21	-0.750			
0.5301	33929.31	3.5370	3.5369	-1.8450	7.23	1.23	-0.750			
0.5356	34279.96	3.5340	3.5338	-1.8655	7.24	1.24	-0.750			
0.5413	34640.46	3.5310	3.5311	-1.8603	7.25	1.25	-0.750			
0.5470	35004.87	3.5280	3.5280	-1.8761	7.26	1.26	-0.750			
0.5526	35369.44	3.5250	3.5250	-1.8664	7.27	1.27	-0.750			
0.5582	35723.17	3.5220	3.5218	-1.8691	7.29	1.29	-0.750			
0.5638	36081.95	3.5190	3.5189	-1.8552	7.31	1.31	-0.750			
0.5694	36438.91	3.5160	3.5158	-1.8357	7.32	1.32	-0.750			
0.5749	36791.82	3.5130	3.5133	-1.8642	7.33	1.33	-0.750			
0.5806	37157.14	3.5100	3.5098	-1.8410	7.35	1.35	-0.750			
0.5862	37514.64	3.5070	3.5066	-1.8244	7.36	1.36	-0.750			
0.5915	37854.24	3.5040	3.5041	-1.7977	7.37	1.37	-0.750			
0.5969	38203.09	3.5010	3.5008	-1.7972	7.38	1.38	-0.750			
0.6023	38546.18	3.4980	3.4978	-1.7769	7.39	1.39	-0.750			
0.6076	38884.49	3.4950	3.4949	-1.7755	7.41	1.41	-0.750			
0.6129	39222.52	3.4920	3.4921	-1.7837	7.42	1.42	-0.750			
0.6183	39568.42	3.4890	3.4890	-1.7779	7.44	1.44	-0.750			
0.6236	39913.10	3.4860	3.4861	-1.7476	7.46	1.46	-0.750			
0.6289	40252.04	3.4830	3.4830	-1.7282	7.47	1.47	-0.750			
0.6340	40576.94	3.4800	3.4800	-1.7152	7.49	1.49	-0.750			
0.6392	40907.69	3.4770	3.4769	-1.6799	7.50	1.50	-0.750			
0.6441	41220.98	3.4740	3.4738	-1.6525	7.51	1.51	-0.750			
0.6490	41534.96	3.4710	3.4710	-1.6236	7.53	1.53	-0.750			
0.6538	41846.23	3.4680	3.4682	-1.6005	7.55	1.55	-0.750			
0.6587	42157.56	3.4650	3.4647	-1.5667	7.56	1.56	-0.750			
0.6634	42454.67	3.4620	3.4620	-1.5364	7.58	1.58	-0.750			
0.6679	42743.83	3.4590	3.4588	-1.4896	7.60	1.60	-0.750			
0.6724	43030.44	3.4560	3.4560	-1.4711	7.61	1.61	-0.750			
0.6766	43304.90	3.4530	3.4530	-1.4346	7.62	1.62	-0.750			
0.6810	43582.72	3.4500	3.4499	-1.4115	7.64	1.64	-0.750			
0.6851	43847.96	3.4470	3.4470	-1.3782	7.66	1.66	-0.750			
0.6893	44114.00	3.4440	3.4441	-1.3629	7.68	1.68	-0.750			
0.6933	44369.68	3.4410	3.4410	-1.3304	7.69	1.69	-0.750			
0.6973	44629.75	3.4380	3.4379	-1.3030	7.71	1.71	-0.750			
0.7011	44872.80	3.4350	3.4351	-1.2693	7.72	1.72	-0.750			
0.7049	45113.79	3.4320	3.4320	-1.2307	7.74	1.74	-0.750			
0.7086	45348.34	3.4290	3.4290	-1.2058	7.75	1.75	-0.750			
0.7121	45573.79	3.4260	3.4260	-1.1711	7.77	1.77	-0.750			
0.7155	45791.16	3.4230	3.4232	-1.1510	7.78	1.78	-0.750			
0.7190	46015.62	3.4200	3.4197	-1.1191	7.80	1.80	-0.750			
0.7224	46230.71	3.4170	3.4171	-1.0902	7.82	1.82	-0.750			
0.7256	46436.37	3.4140	3.4141	-1.0493	7.84	1.84	-0.750			
0.7287	46637.11	3.4110	3.4110	-1.0205	7.86	1.86	-0.750			
0.7317	46827.23	3.4080	3.4079	-0.9825	7.87	1.87	-0.750			
0.7345	47007.83	3.4050	3.4050	-0.9446	7.88	1.88	-0.750			
0.7372	47183.68	3.4020	3.4019	-0.9155	7.90	1.90	-0.750			
0.7400	47361.36	3.3990	3.3992	-0.8954	7.91	1.91	-0.750			
0.7426	47528.92	3.3960	3.3959	-0.8674	7.93	1.93	-0.750			
0.7452	47692.43	3.3930	3.3930	-0.8474	7.94	1.94	-0.750			
0.7477	47853.29	3.3900	3.3900	-0.8147	7.96	1.96	-0.750			
0.7502	48010.09	3.3870	3.3868	-0.7916	7.97	1.97	-0.750			
0.7525	48158.15	3.3840	3.3843	-0.7611	7.99	1.99	-0.750			
0.7547	48299.70	3.3810	3.3809	-0.7334	8.00	2.00	-0.750			
0.7568	48436.68	3.3780	3.3781	-0.7139	8.02	2.02	-0.750			
0.7589	48567.88	3.3750	3.3750	-0.6886	8.03	2.03	-0.750			
0.7610	48701.33	3.3720	3.3719	-0.6741	8.04	2.04	-0.750			
0.7630	48830.85	3.3690	3.3690	-0.6587	8.06	2.06	-0.750			
0.7649	48955.30	3.3660	3.3660	-0.6394	8.07	2.07	-0.750			
0.7668	49076.03	3.3630	3.3630	-0.6146	8.08	2.08	-0.750			
0.7686	49190.75	3.3600	3.3599	-0.5894	8.10	2.10	-0.750			
0.7703	49301.59	3.3570	3.3570	-0.5682	8.11	2.11	-0.750			
0.7720	49408.31	3.3540	3.3542	-0.5476	8.12	2.12	-0.750			
0.7736	49512.12	3.3510	3.3509	-0.5277	8.13	2.13	-0.750			
0.7752	49611.32	3.3480	3.3479	-0.5044	8.14	2.14	-0.750			
0.7766	49704.84	3.3450	3.3450	-0.4879	8.15	2.15	-0.750			
0.7781	49795.85	3.3420	3.3421	-0.4722	8.16	2.16	-0.750			
0.7794	49884.20	3.3390	3.3389	-0.4582	8.17	2.17	-0.750			
0.7808	49970.94	3.3360	3.3359	-0.4455	8.19	2.19	-0.750			
0.7821	50055.13	3.3330	3.3331	-0.4326	8.20	2.20	-0.750			
0.7834	50137.63	3.3300	3.3300	-0.4205	8.21	2.21	-0.750			
0.7847	50218.37	3.3270	3.3270	-0.4091	8.22	2.22	-0.750			
0.7858	50294.28	3.3240	3.3239	-0.3951	8.23	2.23	-0.750			
0.7870	50367.93	3.3210	3.3211	-0.3841	8.24	2.24	-0.750			
0.7881	50440.69	3.3180	3.3180	-0.3745	8.24	2.24	-0.750			
0.7893	50512.01	3.3150	3.3149	-0.3657	8.25	2.25	-0.750			
0.7903	50581.68	3.3120	3.3121	-0.3568	8.26	2.26	-0.750			
0.7914	50649.09	3.3090	3.3090	-0.3466	8.27	2.27	-0.750			
0.7924	50715.24	3.3060	3.3059	-0.3382	8.28	2.28	-0.750			
0.7934	50779.31	3.3030	3.3031	-0.3278	8.29	2.29	-0.750			
0.7944	50840.97	3.3000	3.2999	-0.3169	8.30	2.30	-0.750			
0.7953	50900.83	3.2970	3.2972	-0.3078	8.31	2.31	-0.750			
0.7962	50958.62	3.2940	3.2940	-0.2989	8.32	2.32	-0.750			
0.7971	51014.48	3.2910	3.2910	-0.2917	8.33	2.33	-0.750			
0.7980	51069.51	3.2880	3.2880	-0.2857	8.34	2.34	-0.750			
0.7988	51123.96	3.2850	3.2849	-0.2795	8.34	2.34	-0.750			
0.7997	51177.79	3.2820	3.2820	-0.2754	8.35	2.35	-0.750			
0.8005	51230.80	3.2790	3.2790	-0.2684	8.36	2.36	-0.750			
0.8013	51282.11	3.2760	3.2760	-0.2608	8.37	2.37	-0.750			
0.8021	51331.49	3.2730	3.2730	-0.2530	8.37	2.37	-0.750			
0.8028	51378.71	3.2700	3.2701	-0.2444	8.37	2.37	-0.750			
0.8035	51424.35	3.2670	3.2669	-0.2380	8.38	2.38	-0.750			
0.8042	51469.09	3.2640	3.2640	-0.2317	8.39	2.39	-0.750			
0.8049	51512.30	3.2610	3.2611	-0.2284	8.40	2.40	-0.750			
0.8056	51556.03	3.2580	3.2579	-0.2233	8.40	2.40	-0.750			
0.8062	51599.29	3.2550	3.2549	-0.2198	8.41	2.41	-0.750			
0.8069	51641.00	3.2520	3.2521	-0.2147	8.42	2.42	-0.750			
0.8075	51681.79	3.2490	3.2491	-0.2099	8.43	2.43	-0.750			
0.8082	51721.61	3.2460	3.2459	-0.2065	8.43	2.43	-0.750			
0.8088	51760.47	3.2430	3.2430	-0.2011	8.44	2.44	-0.750			
0.8094	51798.69	3.2400	3.2399	-0.1971	8.45	2.45	-0.750			
0.8099	51835.51	3.2370	3.2370	-0.1936	8.45	2.45	-0.750			
0.8105	51873.07	3.2340	3.2341	-0.1901	8.46	2.46	-0.750			
0.8111	51909.38	3.2310	3.2310	-0.1859	8.47	2.47	-0.750			
0.8116	51944.50	3.2280	3.2279	-0.1815	8.47	2.47	-0.750			
0.8122	51978.94	3.2250	3.2252	-0.1769	8.48	2.48	-0.750			
0.8127	52012.01	3.2220	3.2220	-0.1733	8.49	2.49	-0.750			
0.8132	52044.81	3.2190	3.2190	-0.1705	8.49	2.49	-0.750			
0.8137	52077.39	3.2160	3.2160	-0.1676	8.50	2.50	-0.750			
0.8142	52108.90	3.2130	3.2129	-0.1646	8.50	2.50	-0.750			
0.8147	52140.50	3.2100	3.2100	-0.1625	8.51	2.51	-0.750			
0.8152	52171.58	3.2070	3.2071	-0.1598	8.51	2.51	-0.750			
0.8157	52202.11	3.2040	3.2040	-0.1568	8.52	2.52	-0.750			
0.8161	52231.91	3.2010	3.2010	-0.1535	8.52	2.52	-0.750			
0.8166	52260.79	3.1980	3.1980	-0.1513	8.53	2.53	-0.750			
0.8170	52289.62	3.1950	3.1950	-0.1484	8.54	2.54	-0.750			
0.8175	52318.14	3.1920	3.1918	-0.1457	8.54	2.54	-0.750			
0.8179	52345.82	3.1890	3.1890	-0.1426	8.55	2.55	-0.750			
0.8183	52372.70	3.1860	3.1862	-0.1402	8.56	2.56	-0.750			
0.8187	52399.28	3.1830	3.1830	-0.1383	8.56	2.56	-0.750			
0.8191	52425.56	3.1800	3.1800	-0.1360	8.57	2.57	-0.750			
0.8196	52451.57	3.1770	3.1769	-0.1333	8.57	2.57	-0.750			
0.8199	52476.49	3.1740	3.1740	-0.1313	8.58	2.58	-0.750			
0.8203	52501.69	3.1710	3.1712	-0.1300	8.58	2.58	-0.750			
0.8207	52526.51	3.1680	3.1680	-0.1285	8.59	2.59	-0.750			
0.8211	52551.01	3.1650	3.1649	-0.1268	8.59	2.59	-0.750			
0.8215	52575.07	3.1620	3.1621	-0.1245	8.60	2.60	-0.750			
0.8219	52598.79	3.1590	3.1590	-0.1228	8.60	2.60	-0.750			
0.8222	52622.10	3.1560	3.1562	-0.1217	8.61	2.61	-0.750			
0.8226	52645.89	3.1530	3.1529	-0.1202	8.61	2.61	-0.750			
0.8229	52668.74	3.1500	3.1499	-0.1178	8.62	2.62	-0.750			
0.8233	52690.77	3.1470	3.1470	-0.1160	8.62	2.62	-0.750			
0.8236	52712.90	3.1440	3.1441	-0.1145	8.63	2.63	-0.750			
0.8240	52734.82	3.1410	3.1411	-0.1126	8.64	2.64	-0.750			
0.8243	52756.40	3.1380	3.1377	-0.1111	8.64	2.64	-0.750			
0.8246	52777.35	3.1350	3.1350	-0.1096	8.65	2.65	-0.750			
0.8250	52797.92	3.1320	3.1321	-0.1075	8.65	2.65	-0.750			
0.8253	52818.58	3.1290	3.1292	-0.1062	8.66	2.66	-0.750			
0.8256	52839.17	3.1260	3.1259	-0.1054	8.66	2.66	-0.750			
0.8259	52859.19	3.1230	3.1230	-0.1037	8.66	2.66	-0.750			
0.8262	52878.71	3.1200	3.1201	-0.1017	8.67	2.67	-0.750			
0.8265	52898.11	3.1170	3.1170	-0.1004	8.67	2.67	-0.750			
0.8268	52917.35	3.1140	3.1140	-0.0997	8.68	2.68	-0.750			
0.8271	52936.37	3.1110	3.1111	-0.0984	8.68	2.68	-0.750			
0.8274	52954.92	3.1080	3.1080	-0.0970	8.69	2.69	-0.750			
0.8277	52973.46	3.1050	3.1048	-0.0961	8.69	2.69	-0.750			
0.8280	52991.71	3.1020	3.1019	-0.0957	8.70	2.70	-0.750			
0.8283	53010.02	3.0990	3.0992	-0.0952	8.70	2.70	-0.750			
0.8286	53028.36	3.0960	3.0958	-0.0943	8.71	2.71	-0.750			
0.8288	53046.40	3.0930	3.0930	-0.0935	8.71	2.71	-0.750			
0.8291	53064.35	3.0900	3.0901	-0.0924	8.72	2.72	-0.750			
0.8294	53081.99	3.0870	3.0871	-0.0913	8.72	2.72	-0.750			
0.8297	53099.50	3.0840	3.0841	-0.0907	8.73	2.73	-0.750			
0.8300	53116.80	3.0810	3.0810	-0.0896	8.73	2.73	-0.750			
0.8302	53133.73	3.0780	3.0779	-0.0881	8.74	2.74	-0.750			
0.8305	53150.57	3.0750	3.0750	-0.0872	8.74	2.74	-0.750			
0.8307	53167.38	3.0720	3.0721	-0.0863	8.75	2.75	-0.750			
0.8310	53183.84	3.0690	3.0690	-0.0852	8.75	2.75	-0.750			
0.8313	53200.23	3.0660	3.0659	-0.0842	8.76	2.76	-0.750			
0.8315	53216.17	3.0630	3.0631	-0.0831	8.76	2.76	-0.750			
0.8318	53232.00	3.0600	3.0599	-0.0818	8.77	2.77	-0.750			
0.8320	53247.50	3.0570	3.0570	-0.0806	8.77	2.77	-0.750			
0.8322	53262.82	3.0540	3.0540	-0.0799	8.77	2.77	-0.750			
0.8325	53277.95	3.0510	3.0509	-0.0789	8.78	2.78	-0.750			
0.8327	53292.85	3.0480	3.0481	-0.0788	8.78	2.78	-0.750			
0.8329	53307.95	3.0450	3.0450	-0.0785	8.79	2.79	-0.750			
0.8332	53323.08	3.0420	3.0416	-0.0777	8.79	2.79	-0.750			
0.8334	53337.95	3.0390	3.0391	-0.0772	8.80	2.80	-0.750			
0.8336	53352.90	3.0360	3.0362	-0.0768	8.80	2.80	-0.750			
0.8339	53367.45	3.0330	3.0330	-0.0765	8.80	2.80	-0.750			
0.8341	53382.09	3.0300	3.0301	-0.0760	8.81	2.81	-0.750			
0.8343	53396.71	3.0270	3.0269	-0.0756	8.81	2.81	-0.750			
0.8346	53411.22	3.0240	3.0239	-0.0746	8.82	2.82	-0.750			
0.8348	53425.33	3.0210	3.0210	-0.0737	8.82	2.82	-0.750			
0.8350	53439.44	3.0180	3.0182	-0.0730	8.82	2.82	-0.750			
0.8352	53453.67	3.0150	3.0150	-0.0728	8.83	2.83	-0.750			
0.8354	53467.54	3.0120	3.0119	-0.0717	8.83	2.83	-0.750			
0.8356	53481.20	3.0090	3.0090	-0.0706	8.84	2.84	-0.750			
0.8359	53494.44	3.0060	3.0059	-0.0708	8.84	2.84	-0.750			
0.8361	53508.04	3.0030	3.0030	-0.0708	8.84	2.84	-0.750			
