Ah_balance (normalized)	Ah_balance (mAh)	Voltage - fit (V)	Voltage -  interpolate (V)	dQ/dV (1/V)	Temperature (°C)	Temperature - diff (°C)	Current (C)	R_DC 0ms (mOhm)	R_DC 50ms (mOhm)	R_DC 50 ms PEC (mOhm)
0.0004	26.68	4.1790	4.1789	-0.2135	25.75	0.01	-0.250			
0.0013	84.17	4.1760	4.1759	-0.3442	25.74	-0.00	-0.250			
0.0025	162.41	4.1730	4.1729	-0.4349	25.73	-0.01	-0.250			
0.0040	259.16	4.1700	4.1698	-0.4951	25.71	-0.03	-0.250			
0.0057	366.47	4.1670	4.1671	-0.5519	25.70	-0.04	-0.250			
0.0075	479.81	4.1640	4.1640	-0.5968	25.68	-0.06	-0.250			
0.0094	598.58	4.1610	4.1608	-0.6248	25.66	-0.08	-0.250			
0.0112	719.89	4.1580	4.1580	-0.6422	25.65	-0.09	-0.250			
0.0132	846.64	4.1550	4.1551	-0.6694	25.64	-0.10	-0.250			
0.0153	976.24	4.1520	4.1521	-0.6898	25.63	-0.11	-0.250			
0.0174	1114.45	4.1490	4.1489	-0.7020	25.62	-0.12	-0.250			
0.0195	1250.41	4.1460	4.1459	-0.7092	25.61	-0.13	-0.250	0.459	0.484	
0.0217	1387.35	4.1430	4.1431	-0.7179	25.59	-0.15	-0.250			
0.0239	1528.88	4.1400	4.1398	-0.7200	25.58	-0.16	-0.250			
0.0260	1666.64	4.1370	4.1369	-0.7262	25.56	-0.18	-0.250			
0.0282	1806.24	4.1340	4.1341	-0.7211	25.56	-0.18	-0.250			
0.0304	1945.38	4.1310	4.1313	-0.7283	25.55	-0.19	-0.250			
0.0326	2084.20	4.1280	4.1279	-0.7360	25.54	-0.20	-0.250			
0.0348	2224.35	4.1250	4.1253	-0.7452	25.53	-0.21	-0.250			
0.0370	2368.45	4.1220	4.1221	-0.7568	25.52	-0.22	-0.250			
0.0394	2519.86	4.1190	4.1189	-0.7678	25.51	-0.23	-0.250	0.425	0.506	
0.0416	2664.85	4.1160	4.1162	-0.7713	25.49	-0.25	-0.250			
0.0440	2817.58	4.1130	4.1129	-0.7785	25.48	-0.26	-0.250			
0.0464	2966.62	4.1100	4.1099	-0.7776	25.48	-0.26	-0.250			
0.0487	3114.62	4.1070	4.1071	-0.7825	25.47	-0.27	-0.250			
0.0510	3265.77	4.1040	4.1038	-0.7879	25.45	-0.29	-0.250			
0.0534	3417.57	4.1010	4.1009	-0.7880	25.44	-0.30	-0.250			
0.0558	3569.74	4.0980	4.0983	-0.7886	25.43	-0.31	-0.250			
0.0581	3720.20	4.0950	4.0950	-0.7922	25.42	-0.32	-0.250			
0.0605	3870.36	4.0920	4.0921	-0.7984	25.41	-0.33	-0.250			
0.0629	4022.81	4.0890	4.0888	-0.8078	25.41	-0.33	-0.250			
0.0653	4181.38	4.0860	4.0860	-0.8145	25.39	-0.35	-0.250			
0.0678	4340.31	4.0830	4.0828	-0.8181	25.37	-0.37	-0.250			
0.0703	4500.58	4.0800	4.0801	-0.8190	25.38	-0.36	-0.250			
0.0727	4655.45	4.0770	4.0770	-0.8184	25.38	-0.36	-0.250			
0.0752	4811.73	4.0740	4.0741	-0.8127	25.37	-0.37	-0.250			
0.0776	4964.72	4.0710	4.0708	-0.8083	25.37	-0.37	-0.250			
0.0800	5121.16	4.0680	4.0682	-0.8161	25.36	-0.38	-0.250	0.381	0.476	
0.0825	5277.64	4.0650	4.0649	-0.8316	25.36	-0.38	-0.250			
0.0850	5439.26	4.0620	4.0619	-0.8414	25.37	-0.37	-0.250			
0.0875	5601.38	4.0590	4.0588	-0.8414	25.37	-0.37	-0.250			
0.0901	5767.11	4.0560	4.0561	-0.8446	25.37	-0.37	-0.250			
0.0927	5930.83	4.0530	4.0529	-0.8452	25.38	-0.36	-0.250			
0.0952	6091.65	4.0500	4.0500	-0.8437	25.38	-0.36	-0.250			
0.0977	6253.89	4.0470	4.0470	-0.8348	25.38	-0.36	-0.250			
0.1002	6413.48	4.0440	4.0440	-0.8347	25.37	-0.37	-0.250	0.398	0.496	
0.1027	6573.30	4.0410	4.0412	-0.8364	25.37	-0.37	-0.250			
0.1052	6734.22	4.0380	4.0380	-0.8397	25.37	-0.37	-0.250			
0.1077	6895.55	4.0350	4.0351	-0.8482	25.38	-0.36	-0.250			
0.1103	7056.28	4.0320	4.0320	-0.8541	25.38	-0.36	-0.250			
0.1129	7223.91	4.0290	4.0289	-0.8634	25.38	-0.36	-0.250			
0.1155	7392.01	4.0260	4.0260	-0.8685	25.38	-0.36	-0.250			
0.1181	7559.95	4.0230	4.0230	-0.8678	25.38	-0.36	-0.250			
0.1207	7723.99	4.0200	4.0201	-0.8764	25.38	-0.36	-0.250	0.340	0.475	
0.1233	7890.39	4.0170	4.0171	-0.8789	25.38	-0.36	-0.250			
0.1260	8062.11	4.0140	4.0138	-0.8838	25.38	-0.36	-0.250			
0.1286	8232.16	4.0110	4.0110	-0.8881	25.38	-0.36	-0.250			
0.1314	8406.88	4.0080	4.0080	-0.8932	25.38	-0.36	-0.250			
0.1340	8577.63	4.0050	4.0050	-0.8951	25.38	-0.36	-0.250			
0.1367	8749.66	4.0020	4.0020	-0.8883	25.38	-0.36	-0.250			
0.1394	8918.47	3.9990	3.9990	-0.8840	25.38	-0.36	-0.250	0.377	0.476	
0.1420	9088.35	3.9960	3.9962	-0.8906	25.37	-0.37	-0.250			
0.1447	9260.36	3.9930	3.9930	-0.8932	25.37	-0.37	-0.250			
0.1474	9431.94	3.9900	3.9901	-0.8903	25.38	-0.36	-0.250			
0.1500	9602.47	3.9870	3.9870	-0.8908	25.37	-0.37	-0.250			
0.1527	9771.65	3.9840	3.9841	-0.8975	25.37	-0.37	-0.250			
0.1554	9944.70	3.9810	3.9807	-0.9054	25.37	-0.37	-0.250			
0.1581	10118.27	3.9780	3.9779	-0.9184	25.36	-0.38	-0.250			
0.1609	10295.94	3.9750	3.9750	-0.9195	25.36	-0.38	-0.250	0.394	0.472	
0.1637	10479.61	3.9720	3.9718	-0.9216	25.37	-0.37	-0.250			
0.1665	10656.32	3.9690	3.9689	-0.9132	25.37	-0.37	-0.250			
0.1692	10828.01	3.9660	3.9661	-0.9148	25.37	-0.37	-0.250			
0.1719	11001.61	3.9630	3.9629	-0.9195	25.37	-0.37	-0.250			
0.1746	11177.48	3.9600	3.9600	-0.9257	25.38	-0.36	-0.250			
0.1774	11354.28	3.9570	3.9573	-0.9403	25.38	-0.36	-0.250			
0.1803	11542.20	3.9540	3.9540	-0.9529	25.39	-0.35	-0.250	0.361	0.489	
0.1833	11730.01	3.9510	3.9510	-0.9528	25.40	-0.34	-0.250			
0.1861	11910.27	3.9480	3.9481	-0.9517	25.40	-0.34	-0.250			
0.1889	12091.81	3.9450	3.9451	-0.9495	25.40	-0.34	-0.250			
0.1918	12274.02	3.9420	3.9417	-0.9461	25.39	-0.35	-0.250			
0.1946	12455.72	3.9390	3.9390	-0.9449	25.40	-0.34	-0.250			
0.1975	12637.54	3.9360	3.9359	-0.9400	25.42	-0.32	-0.250			
0.2003	12817.75	3.9330	3.9330	-0.9503	25.42	-0.32	-0.250	0.359	0.502	
0.2031	12999.18	3.9300	3.9300	-0.9512	25.43	-0.31	-0.250			
0.2060	13181.58	3.9270	3.9266	-0.9468	25.44	-0.30	-0.250			
0.2088	13362.05	3.9240	3.9240	-0.9556	25.44	-0.30	-0.250			
0.2117	13549.71	3.9210	3.9212	-0.9725	25.45	-0.29	-0.250			
0.2147	13738.16	3.9180	3.9179	-0.9673	25.45	-0.29	-0.250			
0.2176	13923.35	3.9150	3.9150	-0.9669	25.47	-0.27	-0.250			
0.2204	14107.62	3.9120	3.9120	-0.9692	25.48	-0.26	-0.250	0.480	0.496	
0.2234	14297.47	3.9090	3.9090	-0.9665	25.48	-0.26	-0.250			
0.2263	14480.69	3.9060	3.9059	-0.9744	25.48	-0.26	-0.250			
0.2291	14664.35	3.9030	3.9031	-0.9820	25.49	-0.25	-0.250			
0.2322	14859.69	3.9000	3.8997	-0.9925	25.50	-0.24	-0.250			
0.2352	15051.10	3.8970	3.8970	-0.9871	25.51	-0.23	-0.250			
0.2382	15242.33	3.8940	3.8941	-0.9780	25.51	-0.23	-0.250			
0.2411	15430.85	3.8910	3.8910	-0.9707	25.52	-0.22	-0.250	0.380	0.487	
0.2439	15611.39	3.8880	3.8880	-0.9662	25.53	-0.21	-0.250			
0.2468	15792.54	3.8850	3.8851	-0.9675	25.54	-0.20	-0.250			
0.2497	15979.01	3.8820	3.8819	-0.9780	25.54	-0.20	-0.250			
0.2527	16171.59	3.8790	3.8791	-0.9908	25.54	-0.20	-0.250			
0.2557	16362.51	3.8760	3.8760	-0.9994	25.55	-0.19	-0.250			
0.2587	16558.90	3.8730	3.8730	-1.0034	25.56	-0.18	-0.250	0.419	0.473	
0.2617	16750.74	3.8700	3.8700	-0.9910	25.57	-0.17	-0.250			
0.2647	16939.36	3.8670	3.8670	-0.9816	25.57	-0.17	-0.250			
0.2676	17124.84	3.8640	3.8640	-0.9805	25.57	-0.17	-0.250			
0.2705	17311.40	3.8610	3.8610	-0.9887	25.57	-0.17	-0.250			
0.2734	17500.38	3.8580	3.8578	-0.9985	25.57	-0.17	-0.250			
0.2765	17693.91	3.8550	3.8550	-0.9983	25.58	-0.16	-0.250			
0.2795	17890.86	3.8520	3.8520	-1.0016	25.59	-0.15	-0.250	0.349	0.486	
0.2826	18086.76	3.8490	3.8492	-0.9993	25.59	-0.15	-0.250			
0.2855	18273.69	3.8460	3.8459	-0.9945	25.59	-0.15	-0.250			
0.2885	18462.00	3.8430	3.8430	-0.9863	25.59	-0.15	-0.250			
0.2914	18650.59	3.8400	3.8399	-0.9891	25.59	-0.15	-0.250			
0.2944	18843.25	3.8370	3.8371	-0.9991	25.59	-0.15	-0.250			
0.2974	19036.50	3.8340	3.8338	-1.0006	25.58	-0.16	-0.250			
0.3004	19228.16	3.8310	3.8310	-0.9972	25.57	-0.17	-0.250	0.408	0.499	
0.3034	19419.50	3.8280	3.8281	-0.9945	25.57	-0.17	-0.250			
0.3064	19608.54	3.8250	3.8251	-0.9958	25.57	-0.17	-0.250			
0.3094	19802.08	3.8220	3.8220	-0.9896	25.58	-0.16	-0.250			
0.3124	19993.48	3.8190	3.8191	-0.9819	25.57	-0.17	-0.250			
0.3153	20182.26	3.8160	3.8160	-0.9770	25.56	-0.18	-0.250			
0.3183	20368.91	3.8130	3.8131	-0.9715	25.56	-0.18	-0.250			
0.3211	20553.35	3.8100	3.8098	-0.9669	25.56	-0.18	-0.250	0.373	0.493	
0.3240	20736.79	3.8070	3.8070	-0.9651	25.56	-0.18	-0.250			
0.3269	20918.57	3.8040	3.8041	-0.9673	25.57	-0.17	-0.250			
0.3298	21109.66	3.8010	3.8010	-0.9735	25.57	-0.17	-0.250			
0.3328	21299.00	3.7980	3.7977	-0.9620	25.56	-0.18	-0.250			
0.3357	21483.70	3.7950	3.7951	-0.9453	25.56	-0.18	-0.250			
0.3385	21664.89	3.7920	3.7920	-0.9368	25.57	-0.17	-0.250			
0.3413	21842.80	3.7890	3.7889	-0.9232	25.58	-0.16	-0.250	0.433	0.487	
0.3440	22013.08	3.7860	3.7859	-0.9083	25.58	-0.16	-0.250			
0.3467	22187.64	3.7830	3.7832	-0.9086	25.57	-0.17	-0.250			
0.3494	22363.83	3.7800	3.7800	-0.9096	25.57	-0.17	-0.250			
0.3522	22539.62	3.7770	3.7770	-0.9005	25.57	-0.17	-0.250			
0.3549	22711.31	3.7740	3.7739	-0.8881	25.56	-0.18	-0.250			
0.3575	22880.32	3.7710	3.7711	-0.8931	25.57	-0.17	-0.250			
0.3602	23050.06	3.7680	3.7682	-0.8941	25.57	-0.17	-0.250	0.370	0.476	
0.3628	23220.69	3.7650	3.7649	-0.8918	25.58	-0.16	-0.250			
0.3655	23393.79	3.7620	3.7620	-0.8874	25.58	-0.16	-0.250			
0.3682	23567.79	3.7590	3.7590	-0.8799	25.59	-0.15	-0.250			
0.3709	23737.49	3.7560	3.7563	-0.8711	25.59	-0.15	-0.250			
0.3734	23900.54	3.7530	3.7530	-0.8694	25.59	-0.15	-0.250			
0.3760	24063.56	3.7500	3.7498	-0.8640	25.59	-0.15	-0.250			
0.3786	24227.42	3.7470	3.7471	-0.8714	25.59	-0.15	-0.250			
0.3812	24396.67	3.7440	3.7441	-0.8987	25.59	-0.15	-0.250	0.362	0.499	
0.3840	24574.12	3.7410	3.7409	-0.9101	25.58	-0.16	-0.250			
0.3867	24749.34	3.7380	3.7381	-0.9232	25.58	-0.16	-0.250			
0.3895	24927.65	3.7350	3.7353	-0.9336	25.58	-0.16	-0.250			
0.3923	25108.89	3.7320	3.7320	-0.9428	25.57	-0.17	-0.250			
0.3951	25289.52	3.7290	3.7289	-0.9636	25.57	-0.17	-0.250			
0.3980	25471.10	3.7260	3.7261	-0.9813	25.57	-0.17	-0.250			
0.4010	25663.51	3.7230	3.7229	-1.0129	25.56	-0.18	-0.250	0.374	0.472	
0.4041	25862.45	3.7200	3.7201	-1.0430	25.55	-0.19	-0.250			
0.4072	26061.94	3.7170	3.7172	-1.0735	25.55	-0.19	-0.250			
0.4105	26272.20	3.7140	3.7142	-1.1206	25.54	-0.20	-0.250			
0.4139	26491.56	3.7110	3.7108	-1.1546	25.53	-0.21	-0.250			
0.4174	26716.35	3.7080	3.7080	-1.1810	25.50	-0.24	-0.250			
0.4211	26947.35	3.7050	3.7051	-1.2215	25.49	-0.25	-0.250	0.403	0.501	
0.4248	27187.52	3.7020	3.7020	-1.2575	25.48	-0.26	-0.250			
0.4286	27427.33	3.6990	3.6988	-1.2967	25.47	-0.27	-0.250			
0.4325	27679.38	3.6960	3.6960	-1.3410	25.45	-0.29	-0.250			
0.4366	27943.46	3.6930	3.6930	-1.3846	25.42	-0.32	-0.250			
0.4409	28218.90	3.6900	3.6901	-1.4258	25.40	-0.34	-0.250	0.358	0.504	
0.4453	28496.12	3.6870	3.6869	-1.4570	25.37	-0.37	-0.250			
0.4497	28777.91	3.6840	3.6839	-1.4935	25.35	-0.39	-0.250			
0.4542	29066.09	3.6810	3.6810	-1.5314	25.33	-0.41	-0.250			
0.4588	29360.57	3.6780	3.6782	-1.5751	25.30	-0.44	-0.250	0.422	0.499	
0.4636	29671.22	3.6750	3.6750	-1.6161	25.27	-0.47	-0.250			
0.4685	29986.88	3.6720	3.6721	-1.6631	25.24	-0.50	-0.250			
0.4736	30310.84	3.6690	3.6690	-1.7133	25.21	-0.53	-0.250			
0.4788	30642.11	3.6660	3.6658	-1.7685	25.19	-0.55	-0.250	0.380	0.507	
0.4842	30987.61	3.6630	3.6631	-1.8095	25.16	-0.58	-0.250			
0.4897	31339.85	3.6600	3.6602	-1.8590	25.14	-0.60	-0.250			
0.4954	31705.26	3.6570	3.6572	-1.9202	25.11	-0.63	-0.250			
0.5012	32074.57	3.6540	3.6539	-1.9762	25.09	-0.65	-0.250	0.423	0.519	
0.5071	32455.58	3.6510	3.6507	-2.0516	25.06	-0.68	-0.250			
0.5133	32853.03	3.6480	3.6480	-2.1222	25.05	-0.69	-0.250			
0.5199	33274.73	3.6450	3.6450	-2.2210	25.01	-0.73	-0.250	0.404	0.518	
0.5268	33713.34	3.6420	3.6421	-2.2957	24.98	-0.76	-0.250			
0.5338	34160.45	3.6390	3.6390	-2.3647	24.94	-0.80	-0.250			
0.5410	34625.00	3.6360	3.6361	-2.4215	24.92	-0.82	-0.250	0.422	0.519	
0.5482	35087.18	3.6330	3.6331	-2.5012	24.88	-0.86	-0.250			
0.5559	35580.02	3.6300	3.6300	-2.5647	24.85	-0.89	-0.250			
0.5637	36074.72	3.6270	3.6269	-2.6341	24.83	-0.91	-0.250	0.440	0.526	
0.5717	36585.74	3.6240	3.6242	-2.7281	24.83	-0.91	-0.250			
0.5800	37120.09	3.6210	3.6208	-2.8138	24.83	-0.91	-0.250			
0.5887	37674.14	3.6180	3.6180	-2.8515	24.82	-0.92	-0.250			
0.5974	38234.24	3.6150	3.6151	-2.9105	24.82	-0.92	-0.250	0.434	0.530	
0.6062	38795.87	3.6120	3.6122	-2.9512	24.82	-0.92	-0.250			
0.6149	39353.02	3.6090	3.6089	-2.9655	24.83	-0.91	-0.250			
0.6238	39923.11	3.6060	3.6062	-3.0109	24.84	-0.90	-0.250	0.386	0.494	
0.6330	40514.11	3.6030	3.6028	-3.0406	24.87	-0.87	-0.250			
0.6422	41102.54	3.6000	3.6002	-3.0393	24.88	-0.86	-0.250	0.451	0.534	
0.6513	41682.97	3.5970	3.5967	-3.0464	24.90	-0.84	-0.250			
0.6605	42269.99	3.5940	3.5939	-3.0120	24.93	-0.81	-0.250	0.448	0.531	
0.6695	42849.08	3.5910	3.5912	-2.9713	24.96	-0.78	-0.250			
0.6784	43418.59	3.5880	3.5879	-2.9093	25.00	-0.74	-0.250	0.388	0.559	
0.6870	43967.00	3.5850	3.5849	-2.8130	25.03	-0.71	-0.250			
0.6953	44502.30	3.5820	3.5822	-2.7023	25.07	-0.67	-0.250			
0.7034	45018.04	3.5790	3.5790	-2.5997	25.12	-0.62	-0.250	0.357	0.538	
0.7110	45504.75	3.5760	3.5760	-2.4638	25.17	-0.57	-0.250			
0.7181	45960.06	3.5730	3.5729	-2.3259	25.22	-0.52	-0.250	0.405	0.542	
0.7249	46394.09	3.5700	3.5698	-2.2147	25.27	-0.47	-0.250			
0.7313	46804.44	3.5670	3.5672	-2.0899	25.32	-0.42	-0.250			
0.7374	47196.39	3.5640	3.5636	-1.9958	25.36	-0.38	-0.250			
0.7433	47568.99	3.5610	3.5610	-1.8925	25.40	-0.34	-0.250	0.424	0.519	
0.7488	47920.26	3.5580	3.5578	-1.8132	25.44	-0.30	-0.250			
0.7540	48258.98	3.5550	3.5550	-1.7316	25.49	-0.25	-0.250			
0.7591	48580.90	3.5520	3.5519	-1.6654	25.54	-0.20	-0.250	0.395	0.546	
0.7640	48895.90	3.5490	3.5491	-1.6242	25.57	-0.17	-0.250			
0.7687	49198.74	3.5460	3.5460	-1.5808	25.60	-0.14	-0.250			
0.7734	49498.96	3.5430	3.5430	-1.5585	25.64	-0.10	-0.250			
0.7780	49793.92	3.5400	3.5400	-1.5191	25.67	-0.07	-0.250			
0.7826	50086.38	3.5370	3.5371	-1.4862	25.70	-0.04	-0.250	0.400	0.554	
0.7871	50373.51	3.5340	3.5340	-1.4299	25.72	-0.02	-0.250			
0.7913	50643.29	3.5310	3.5309	-1.3579	25.74	0.00	-0.250			
0.7953	50897.40	3.5280	3.5280	-1.2897	25.76	0.02	-0.250			
0.7990	51136.24	3.5250	3.5249	-1.2249	25.79	0.05	-0.250	0.379	0.534	
0.8025	51362.09	3.5220	3.5218	-1.1583	25.81	0.07	-0.250			
0.8059	51579.20	3.5190	3.5190	-1.0986	25.83	0.09	-0.250			
0.8091	51785.07	3.5160	3.5161	-1.0492	25.85	0.11	-0.250			
0.8122	51980.20	3.5130	3.5129	-1.0236	25.85	0.11	-0.250			
0.8151	52167.32	3.5100	3.5099	-0.9879	25.86	0.12	-0.250			
0.8180	52351.95	3.5070	3.5071	-0.9675	25.87	0.13	-0.250			
0.8209	52537.91	3.5040	3.5039	-0.9574	25.89	0.15	-0.250	0.398	0.568	
0.8238	52720.28	3.5010	3.5012	-0.9514	25.90	0.16	-0.250			
0.8266	52904.80	3.4980	3.4979	-0.9388	25.89	0.15	-0.250			
0.8295	53085.48	3.4950	3.4948	-0.9183	25.90	0.16	-0.250			
0.8321	53256.53	3.4920	3.4920	-0.8979	25.90	0.16	-0.250			
0.8348	53429.43	3.4890	3.4890	-0.8862	25.91	0.17	-0.250			
0.8374	53594.97	3.4860	3.4860	-0.8731	25.92	0.18	-0.250			
0.8399	53756.47	3.4830	3.4830	-0.8822	25.92	0.18	-0.250	0.394	0.552	
0.8425	53917.29	3.4800	3.4802	-0.9184	25.93	0.19	-0.250			
0.8451	54083.31	3.4770	3.4772	-1.0103	25.94	0.20	-0.250			
0.8479	54268.57	3.4740	3.4740	-1.1789	25.94	0.20	-0.250			
0.8516	54505.01	3.4710	3.4710	-1.3855	25.93	0.19	-0.250			
0.8562	54793.93	3.4680	3.4677	-1.6172	25.94	0.20	-0.250			
0.8617	55145.66	3.4650	3.4651	-1.7948	25.95	0.21	-0.250	0.349	0.565	
0.8675	55522.05	3.4620	3.4620	-1.9197	25.94	0.20	-0.250			
0.8737	55915.59	3.4590	3.4592	-1.9628	25.95	0.21	-0.250			
0.8797	56297.95	3.4560	3.4558	-1.9268	25.94	0.20	-0.250	0.373	0.584	
0.8854	56667.31	3.4530	3.4530	-1.8396	25.95	0.21	-0.250			
0.8908	57011.21	3.4500	3.4499	-1.7445	25.96	0.22	-0.250			
0.8960	57342.98	3.4470	3.4471	-1.6702	25.97	0.23	-0.250			
0.9008	57649.30	3.4440	3.4442	-1.5843	25.95	0.21	-0.250	0.388	0.600	
0.9054	57946.43	3.4410	3.4409	-1.4914	25.97	0.23	-0.250			
0.9098	58225.77	3.4380	3.4380	-1.3902	25.98	0.24	-0.250			
0.9140	58493.06	3.4350	3.4351	-1.2838	25.98	0.24	-0.250			
0.9176	58729.44	3.4320	3.4318	-1.1687	25.99	0.25	-0.250			
0.9209	58936.76	3.4290	3.4288	-1.0470	25.99	0.25	-0.250	0.401	0.605	
0.9237	59117.43	3.4260	3.4261	-0.9335	25.99	0.25	-0.250			
0.9264	59287.44	3.4230	3.4230	-0.8518	25.99	0.25	-0.250			
0.9288	59443.29	3.4200	3.4201	-0.7709	26.00	0.26	-0.250			
0.9310	59585.36	3.4170	3.4169	-0.7041	26.01	0.27	-0.250			
0.9330	59711.99	3.4140	3.4140	-0.6384	26.02	0.28	-0.250			
0.9347	59822.96	3.4110	3.4110	-0.5776	26.03	0.29	-0.250			
0.9364	59928.69	3.4080	3.4081	-0.5309	26.04	0.30	-0.250			
0.9379	60025.16	3.4050	3.4049	-0.4866	26.05	0.31	-0.250			
0.9393	60114.28	3.4020	3.4021	-0.4465	26.05	0.31	-0.250			
0.9406	60196.61	3.3990	3.3992	-0.4120	26.05	0.31	-0.250	0.375	0.587	
0.9417	60270.91	3.3960	3.3959	-0.3760	26.06	0.32	-0.250			
0.9428	60336.97	3.3930	3.3932	-0.3474	26.06	0.32	-0.250			
0.9438	60400.23	3.3900	3.3900	-0.3255	26.07	0.33	-0.250			
0.9447	60459.75	3.3870	3.3869	-0.3055	26.08	0.34	-0.250			
0.9456	60516.07	3.3840	3.3840	-0.2903	26.09	0.35	-0.250			
0.9464	60569.43	3.3810	3.3811	-0.2791	26.10	0.36	-0.250			
0.9472	60621.53	3.3780	3.3780	-0.2696	26.10	0.36	-0.250			
0.9480	60671.93	3.3750	3.3749	-0.2611	26.12	0.38	-0.250			
0.9488	60721.00	3.3720	3.3720	-0.2526	26.13	0.39	-0.250			
0.9495	60769.07	3.3690	3.3691	-0.2462	26.14	0.40	-0.250			
0.9502	60815.97	3.3660	3.3660	-0.2399	26.15	0.41	-0.250			
0.9510	60861.43	3.3630	3.3631	-0.2337	26.16	0.42	-0.250			
0.9516	60905.13	3.3600	3.3600	-0.2288	26.17	0.43	-0.250			
0.9523	60948.11	3.3570	3.3569	-0.2246	26.17	0.43	-0.250			
0.9530	60990.92	3.3540	3.3540	-0.2204	26.18	0.44	-0.250			
0.9536	61032.77	3.3510	3.3510	-0.2169	26.18	0.44	-0.250			
0.9543	61074.46	3.3480	3.3480	-0.2136	26.19	0.45	-0.250			
0.9549	61115.22	3.3450	3.3450	-0.2101	26.20	0.46	-0.250			
0.9555	61155.11	3.3420	3.3418	-0.2058	26.20	0.46	-0.250			
0.9562	61194.20	3.3390	3.3390	-0.2016	26.21	0.47	-0.250			
0.9567	61231.90	3.3360	3.3360	-0.1993	26.21	0.47	-0.250			
0.9573	61269.72	3.3330	3.3330	-0.1965	26.22	0.48	-0.250			
0.9579	61307.57	3.3300	3.3298	-0.1946	26.23	0.49	-0.250			
0.9585	61344.44	3.3270	3.3271	-0.1937	26.23	0.49	-0.250			
0.9591	61381.67	3.3240	3.3240	-0.1908	26.24	0.50	-0.250			
0.9597	61418.27	3.3210	3.3208	-0.1888	26.24	0.50	-0.250			
0.9602	61454.64	3.3180	3.3179	-0.1863	26.25	0.51	-0.250			
0.9608	61489.93	3.3150	3.3154	-0.1838	26.25	0.51	-0.250	0.426	0.618	
0.9613	61524.61	3.3120	3.3120	-0.1810	26.26	0.52	-0.250			
0.9619	61559.31	3.3090	3.3088	-0.1789	26.26	0.52	-0.250			
0.9624	61593.29	3.3060	3.3061	-0.1759	26.27	0.53	-0.250			
0.9629	61626.40	3.3030	3.3031	-0.1731	26.27	0.53	-0.250			
0.9634	61659.90	3.3000	3.3000	-0.1725	26.28	0.54	-0.250			
0.9640	61692.81	3.2970	3.2971	-0.1703	26.28	0.54	-0.250			
0.9645	61725.23	3.2940	3.2940	-0.1681	26.29	0.55	-0.250			
0.9650	61757.20	3.2910	3.2910	-0.1656	26.29	0.55	-0.250			
0.9654	61788.55	3.2880	3.2880	-0.1642	26.30	0.56	-0.250			
0.9659	61819.96	3.2850	3.2851	-0.1630	26.30	0.56	-0.250			
0.9664	61851.35	3.2820	3.2820	-0.1610	26.31	0.57	-0.250			
0.9669	61881.98	3.2790	3.2789	-0.1590	26.31	0.57	-0.250			
0.9674	61912.28	3.2760	3.2760	-0.1572	26.32	0.58	-0.250			
0.9678	61942.18	3.2730	3.2732	-0.1563	26.32	0.58	-0.250			
0.9683	61972.28	3.2700	3.2699	-0.1547	26.33	0.59	-0.250			
0.9688	62001.92	3.2670	3.2670	-0.1532	26.33	0.59	-0.250			
0.9692	62031.16	3.2640	3.2640	-0.1514	26.34	0.60	-0.250			
0.9697	62059.85	3.2610	3.2611	-0.1492	26.34	0.60	-0.250			
0.9701	62088.57	3.2580	3.2579	-0.1484	26.35	0.61	-0.250			
0.9706	62116.76	3.2550	3.2550	-0.1465	26.35	0.61	-0.250			
0.9710	62144.73	3.2520	3.2520	-0.1449	26.36	0.62	-0.250			
0.9714	62172.16	3.2490	3.2490	-0.1432	26.36	0.62	-0.250			
0.9719	62199.82	3.2460	3.2462	-0.1419	26.37	0.63	-0.250			
0.9723	62226.98	3.2430	3.2429	-0.1402	26.38	0.64	-0.250			
0.9727	62253.72	3.2400	3.2400	-0.1383	26.38	0.64	-0.250			
0.9731	62279.99	3.2370	3.2371	-0.1374	26.39	0.65	-0.250			
0.9735	62305.93	3.2340	3.2341	-0.1360	26.39	0.65	-0.250			
0.9739	62332.11	3.2310	3.2309	-0.1347	26.40	0.66	-0.250			
0.9743	62357.88	3.2280	3.2279	-0.1336	26.41	0.67	-0.250			
0.9747	62383.59	3.2250	3.2250	-0.1320	26.41	0.67	-0.250			
0.9751	62408.88	3.2220	3.2220	-0.1310	26.42	0.68	-0.250			
0.9755	62433.96	3.2190	3.2190	-0.1295	26.42	0.68	-0.250			
0.9759	62458.62	3.2160	3.2159	-0.1275	26.43	0.69	-0.250			
0.9763	62482.68	3.2130	3.2129	-0.1254	26.43	0.69	-0.250			
0.9767	62506.31	3.2100	3.2101	-0.1244	26.43	0.69	-0.250			
0.9770	62530.17	3.2070	3.2071	-0.1236	26.44	0.70	-0.250			
0.9774	62553.84	3.2040	3.2040	-0.1228	26.44	0.70	-0.250			
0.9778	62577.55	3.2010	3.2009	-0.1218	26.44	0.70	-0.250			
0.9781	62600.81	3.1980	3.1981	-0.1205	26.45	0.71	-0.250			
0.9785	62623.79	3.1950	3.1950	-0.1193	26.45	0.71	-0.250			
0.9789	62646.89	3.1920	3.1921	-0.1187	26.45	0.71	-0.250			
0.9792	62669.05	3.1890	3.1890	-0.1184	26.45	0.71	-0.250			
0.9796	62691.23	3.1860	3.1860	-0.1174	26.46	0.72	-0.250			
0.9799	62714.34	3.1830	3.1829	-0.1151	26.46	0.72	-0.250			
0.9803	62736.53	3.1800	3.1800	-0.1140	26.46	0.72	-0.250			
0.9806	62758.26	3.1770	3.1769	-0.1122	26.46	0.72	-0.250			
0.9809	62780.16	3.1740	3.1739	-0.1109	26.47	0.73	-0.250	0.351	0.617	
0.9813	62801.01	3.1710	3.1708	-0.1093	26.47	0.73	-0.250			
0.9816	62821.66	3.1680	3.1679	-0.1072	26.47	0.73	-0.250			
0.9819	62841.28	3.1650	3.1650	-0.1051	26.48	0.74	-0.250			
0.9822	62861.46	3.1620	3.1621	-0.1051	26.48	0.74	-0.250			
0.9825	62881.96	3.1590	3.1589	-0.1052	26.48	0.74	-0.250			
0.9828	62902.08	3.1560	3.1560	-0.1045	26.49	0.75	-0.250			
0.9832	62922.06	3.1530	3.1530	-0.1035	26.49	0.75	-0.250			
0.9835	62941.87	3.1500	3.1500	-0.1028	26.49	0.75	-0.250			
0.9838	62961.82	3.1470	3.1470	-0.1018	26.49	0.75	-0.250			
0.9841	62981.23	3.1440	3.1440	-0.1004	26.50	0.76	-0.250			
0.9844	63000.42	3.1410	3.1412	-0.0990	26.50	0.76	-0.250			
0.9847	63019.28	3.1380	3.1379	-0.0975	26.50	0.76	-0.250			
0.9850	63037.61	3.1350	3.1350	-0.0964	26.51	0.77	-0.250			
0.9853	63056.04	3.1320	3.1320	-0.0956	26.51	0.77	-0.250			
0.9855	63074.27	3.1290	3.1290	-0.0942	26.51	0.77	-0.250			
0.9858	63092.27	3.1260	3.1258	-0.0933	26.52	0.78	-0.250			
0.9861	63110.02	3.1230	3.1231	-0.0928	26.52	0.78	-0.250			
0.9864	63127.77	3.1200	3.1201	-0.0921	26.52	0.78	-0.250			
0.9866	63145.37	3.1170	3.1170	-0.0916	26.53	0.79	-0.250			
0.9869	63162.91	3.1140	3.1139	-0.0911	26.53	0.79	-0.250			
0.9872	63180.25	3.1110	3.1111	-0.0902	26.53	0.79	-0.250			
0.9875	63197.52	3.1080	3.1080	-0.0898	26.54	0.80	-0.250			
0.9877	63215.17	3.1050	3.1050	-0.0892	26.54	0.80	-0.250			
0.9880	63232.15	3.1020	3.1020	-0.0877	26.54	0.80	-0.250			
0.9883	63248.67	3.0990	3.0990	-0.0868	26.55	0.81	-0.250			
0.9885	63265.25	3.0960	3.0962	-0.0858	26.55	0.81	-0.250			
0.9888	63281.52	3.0930	3.0929	-0.0847	26.55	0.81	-0.250			
0.9890	63297.70	3.0900	3.0899	-0.0839	26.56	0.82	-0.250			
0.9893	63313.74	3.0870	3.0870	-0.0831	26.56	0.82	-0.250			
0.9895	63329.56	3.0840	3.0841	-0.0822	26.56	0.82	-0.250			
0.9898	63345.26	3.0810	3.0810	-0.0815	26.57	0.83	-0.250			
0.9900	63361.12	3.0780	3.0778	-0.0809	26.57	0.83	-0.250			
0.9903	63376.47	3.0750	3.0751	-0.0801	26.57	0.83	-0.250			
0.9905	63391.63	3.0720	3.0720	-0.0790	26.58	0.84	-0.250			
0.9907	63406.72	3.0690	3.0690	-0.0782	26.58	0.84	-0.250			
0.9910	63421.66	3.0660	3.0661	-0.0775	26.59	0.85	-0.250			
0.9912	63436.47	3.0630	3.0629	-0.0768	26.59	0.85	-0.250			
0.9914	63451.14	3.0600	3.0601	-0.0761	26.59	0.85	-0.250			
0.9917	63465.69	3.0570	3.0570	-0.0754	26.59	0.85	-0.250			
0.9919	63480.09	3.0540	3.0540	-0.0747	26.60	0.86	-0.250			
0.9921	63494.33	3.0510	3.0510	-0.0741	26.60	0.86	-0.250			
0.9923	63508.46	3.0480	3.0480	-0.0734	26.60	0.86	-0.250			
0.9925	63522.49	3.0450	3.0450	-0.0728	26.61	0.87	-0.250			
0.9928	63536.43	3.0420	3.0420	-0.0720	26.61	0.87	-0.250			
0.9930	63550.20	3.0390	3.0390	-0.0714	26.61	0.87	-0.250			
0.9932	63563.84	3.0360	3.0361	-0.0707	26.62	0.88	-0.250			
0.9934	63577.38	3.0330	3.0329	-0.0697	26.62	0.88	-0.250			
0.9936	63590.79	3.0300	3.0300	-0.0690	26.62	0.88	-0.250			
0.9938	63603.85	3.0270	3.0270	-0.0683	26.63	0.89	-0.250			
0.9940	63616.89	3.0240	3.0240	-0.0675	26.63	0.89	-0.250			
0.9942	63629.70	3.0210	3.0210	-0.0667	26.63	0.89	-0.250			
0.9944	63642.37	3.0180	3.0180	-0.0664	26.63	0.89	-0.250			
0.9946	63654.90	3.0150	3.0150	-0.0658	26.64	0.90	-0.250			
0.9948	63667.52	3.0120	3.0120	-0.0656	26.64	0.90	-0.250			
0.9950	63680.09	3.0090	3.0089	-0.0654	26.64	0.90	-0.250			
0.9952	63692.61	3.0060	3.0060	-0.0654	26.65	0.91	-0.250			
0.9954	63705.15	3.0030	3.0031	-0.0653	26.65	0.91	-0.250			
