Ah_balance (normalized)	Ah_balance (mAh)	Voltage - fit (V)	Voltage -  interpolate (V)	dQ/dV (1/V)	Temperature (°C)	Temperature - diff (°C)	Current (C)	R_DC 0ms (mOhm)	R_DC 50ms (mOhm)	R_DC 50 ms PEC (mOhm)
0.0160	1025.78	4.1990	4.1994	0.8122	25.52	-0.34	0.250			
0.0184	1180.28	4.1960	4.1960	0.7982	25.51	-0.35	0.250			
0.0208	1332.66	4.1930	4.1930	0.7890	25.51	-0.35	0.250			
0.0232	1482.84	4.1900	4.1901	0.7886	25.52	-0.34	0.250			
0.0255	1632.82	4.1870	4.1868	0.7789	25.52	-0.34	0.250			
0.0278	1782.31	4.1840	4.1839	0.7835	25.51	-0.35	0.250			
0.0302	1935.51	4.1810	4.1812	0.7892	25.51	-0.35	0.250			
0.0326	2085.41	4.1780	4.1779	0.7973	25.51	-0.35	0.250	0.317	0.481	
0.0350	2237.95	4.1750	4.1750	0.8012	25.51	-0.35	0.250			
0.0374	2392.45	4.1720	4.1719	0.8002	25.51	-0.35	0.250			
0.0399	2551.12	4.1690	4.1690	0.8027	25.52	-0.34	0.250			
0.0423	2706.21	4.1660	4.1661	0.7940	25.52	-0.34	0.250			
0.0446	2854.90	4.1630	4.1630	0.7973	25.53	-0.33	0.250			
0.0470	3007.47	4.1600	4.1600	0.8051	25.53	-0.33	0.250			
0.0494	3158.55	4.1570	4.1568	0.8083	25.53	-0.33	0.250			
0.0518	3318.21	4.1540	4.1540	0.8155	25.52	-0.34	0.250			
0.0543	3475.82	4.1510	4.1512	0.8289	25.52	-0.34	0.250	0.368	0.472	
0.0569	3638.82	4.1480	4.1478	0.8351	25.52	-0.34	0.250			
0.0594	3799.54	4.1450	4.1449	0.8341	25.52	-0.34	0.250			
0.0619	3959.67	4.1420	4.1420	0.8272	25.51	-0.35	0.250			
0.0644	4119.84	4.1390	4.1390	0.8282	25.50	-0.36	0.250			
0.0669	4278.66	4.1360	4.1361	0.8193	25.49	-0.37	0.250			
0.0693	4435.96	4.1330	4.1331	0.8237	25.48	-0.38	0.250			
0.0717	4590.35	4.1300	4.1301	0.8184	25.48	-0.38	0.250			
0.0742	4746.43	4.1270	4.1270	0.8305	25.47	-0.39	0.250	0.369	0.480	
0.0767	4907.21	4.1240	4.1241	0.8438	25.46	-0.40	0.250			
0.0793	5072.74	4.1210	4.1209	0.8476	25.46	-0.40	0.250			
0.0818	5237.16	4.1180	4.1180	0.8491	25.45	-0.41	0.250			
0.0844	5400.21	4.1150	4.1152	0.8477	25.44	-0.42	0.250			
0.0869	5561.96	4.1120	4.1118	0.8455	25.43	-0.43	0.250			
0.0894	5723.50	4.1090	4.1089	0.8437	25.44	-0.42	0.250			
0.0919	5882.12	4.1060	4.1061	0.8469	25.44	-0.42	0.250			
0.0945	6049.57	4.1030	4.1030	0.8582	25.44	-0.42	0.250	0.293	0.488	
0.0971	6215.59	4.1000	4.1000	0.8547	25.44	-0.42	0.250			
0.0996	6377.37	4.0970	4.0970	0.8606	25.43	-0.43	0.250			
0.1022	6543.34	4.0940	4.0941	0.8664	25.43	-0.43	0.250			
0.1049	6710.57	4.0910	4.0908	0.8731	25.43	-0.43	0.250			
0.1075	6879.17	4.0880	4.0880	0.8763	25.44	-0.42	0.250			
0.1101	7046.77	4.0850	4.0852	0.8788	25.44	-0.42	0.250			
0.1128	7220.32	4.0820	4.0818	0.8855	25.44	-0.42	0.250	0.305	0.497	
0.1155	7389.27	4.0790	4.0790	0.8784	25.43	-0.43	0.250			
0.1181	7556.50	4.0760	4.0761	0.8716	25.43	-0.43	0.250			
0.1207	7723.95	4.0730	4.0730	0.8768	25.44	-0.42	0.250			
0.1233	7890.75	4.0700	4.0699	0.8742	25.44	-0.42	0.250			
0.1259	8058.63	4.0670	4.0671	0.8804	25.44	-0.42	0.250			
0.1285	8226.36	4.0640	4.0640	0.8858	25.45	-0.41	0.250			
0.1312	8396.99	4.0610	4.0608	0.8956	25.46	-0.40	0.250			
0.1339	8571.70	4.0580	4.0580	0.8955	25.46	-0.40	0.250	0.363	0.460	
0.1366	8744.84	4.0550	4.0550	0.9010	25.46	-0.40	0.250			
0.1393	8918.14	4.0520	4.0521	0.9018	25.47	-0.39	0.250			
0.1421	9091.46	4.0490	4.0489	0.8973	25.48	-0.38	0.250			
0.1447	9261.84	4.0460	4.0459	0.9027	25.48	-0.38	0.250			
0.1474	9434.71	4.0430	4.0430	0.9071	25.48	-0.38	0.250			
0.1501	9609.05	4.0400	4.0399	0.9224	25.49	-0.37	0.250			
0.1530	9790.17	4.0370	4.0368	0.9219	25.49	-0.37	0.250	0.344	0.454	
0.1557	9965.70	4.0340	4.0340	0.9214	25.49	-0.37	0.250			
0.1585	10144.02	4.0310	4.0312	0.9263	25.50	-0.36	0.250			
0.1613	10322.85	4.0280	4.0277	0.9304	25.51	-0.35	0.250			
0.1641	10499.69	4.0250	4.0251	0.9259	25.51	-0.35	0.250			
0.1668	10677.50	4.0220	4.0219	0.9291	25.51	-0.35	0.250			
0.1697	10857.62	4.0190	4.0190	0.9369	25.52	-0.34	0.250			
0.1725	11038.57	4.0160	4.0161	0.9357	25.53	-0.33	0.250	0.383	0.486	
0.1753	11218.10	4.0130	4.0129	0.9423	25.54	-0.32	0.250			
0.1781	11399.26	4.0100	4.0101	0.9405	25.54	-0.32	0.250			
0.1810	11582.74	4.0070	4.0069	0.9358	25.54	-0.32	0.250			
0.1838	11762.53	4.0040	4.0042	0.9429	25.54	-0.32	0.250			
0.1866	11940.08	4.0010	4.0011	0.9510	25.54	-0.32	0.250			
0.1894	12123.31	3.9980	3.9977	0.9636	25.55	-0.31	0.250			
0.1924	12311.14	3.9950	3.9950	0.9627	25.56	-0.30	0.250	0.351	0.460	
0.1953	12497.10	3.9920	3.9920	0.9689	25.56	-0.30	0.250			
0.1982	12686.62	3.9890	3.9892	0.9764	25.56	-0.30	0.250			
0.2011	12871.64	3.9860	3.9859	0.9675	25.56	-0.30	0.250			
0.2040	13055.78	3.9830	3.9829	0.9644	25.57	-0.29	0.250			
0.2069	13242.79	3.9800	3.9802	0.9692	25.58	-0.28	0.250			
0.2099	13430.43	3.9770	3.9769	0.9811	25.58	-0.28	0.250			
0.2128	13619.12	3.9740	3.9741	0.9825	25.58	-0.28	0.250	0.292	0.472	
0.2157	13806.08	3.9710	3.9711	0.9831	25.59	-0.27	0.250			
0.2187	13997.62	3.9680	3.9680	0.9876	25.58	-0.28	0.250			
0.2217	14187.88	3.9650	3.9650	0.9894	25.58	-0.28	0.250			
0.2247	14378.18	3.9620	3.9621	0.9992	25.59	-0.27	0.250			
0.2277	14573.34	3.9590	3.9588	0.9946	25.59	-0.27	0.250			
0.2306	14761.43	3.9560	3.9558	0.9919	25.59	-0.27	0.250			
0.2336	14953.18	3.9530	3.9531	0.9909	25.60	-0.26	0.250	0.337	0.467	
0.2366	15142.91	3.9500	3.9499	0.9913	25.60	-0.26	0.250			
0.2396	15331.43	3.9470	3.9471	0.9932	25.59	-0.27	0.250			
0.2425	15519.25	3.9440	3.9440	0.9904	25.59	-0.27	0.250			
0.2455	15713.73	3.9410	3.9409	1.0047	25.60	-0.26	0.250			
0.2485	15906.07	3.9380	3.9383	1.0111	25.60	-0.26	0.250			
0.2516	16100.36	3.9350	3.9350	1.0177	25.61	-0.25	0.250			
0.2547	16297.85	3.9320	3.9322	1.0204	25.62	-0.24	0.250	0.334	0.468	
0.2577	16493.83	3.9290	3.9289	1.0178	25.62	-0.24	0.250			
0.2608	16692.30	3.9260	3.9261	1.0203	25.62	-0.24	0.250			
0.2638	16885.62	3.9230	3.9232	1.0237	25.62	-0.24	0.250			
0.2669	17082.52	3.9200	3.9199	1.0333	25.63	-0.23	0.250			
0.2700	17278.58	3.9170	3.9170	1.0283	25.65	-0.21	0.250			
0.2731	17479.02	3.9140	3.9141	1.0282	25.65	-0.21	0.250	0.361	0.461	
0.2762	17679.05	3.9110	3.9112	1.0382	25.67	-0.19	0.250			
0.2793	17876.37	3.9080	3.9080	1.0304	25.69	-0.17	0.250			
0.2824	18073.36	3.9050	3.9048	1.0359	25.70	-0.16	0.250			
0.2855	18269.49	3.9020	3.9022	1.0316	25.71	-0.15	0.250			
0.2886	18469.19	3.8990	3.8990	1.0468	25.72	-0.14	0.250			
0.2918	18673.37	3.8960	3.8959	1.0459	25.73	-0.13	0.250			
0.2949	18873.65	3.8930	3.8928	1.0412	25.76	-0.10	0.250	0.373	0.467	
0.2980	19074.37	3.8900	3.8902	1.0444	25.76	-0.10	0.250			
0.3012	19273.81	3.8870	3.8868	1.0494	25.76	-0.10	0.250			
0.3043	19474.97	3.8840	3.8841	1.0448	25.77	-0.09	0.250			
0.3074	19674.51	3.8810	3.8811	1.0529	25.79	-0.07	0.250			
0.3106	19878.81	3.8780	3.8782	1.0585	25.79	-0.07	0.250			
0.3138	20083.13	3.8750	3.8750	1.0546	25.80	-0.06	0.250	0.327	0.451	
0.3170	20285.60	3.8720	3.8722	1.0683	25.82	-0.04	0.250			
0.3202	20490.63	3.8690	3.8689	1.0697	25.83	-0.03	0.250			
0.3234	20697.56	3.8660	3.8659	1.0769	25.84	-0.02	0.250			
0.3266	20902.66	3.8630	3.8633	1.0738	25.86	-0.00	0.250			
0.3299	21110.92	3.8600	3.8601	1.0951	25.86	0.00	0.250			
0.3332	21322.09	3.8570	3.8570	1.0998	25.87	0.01	0.250	0.263	0.443	
0.3365	21533.61	3.8540	3.8539	1.0947	25.90	0.04	0.250			
0.3398	21748.02	3.8510	3.8513	1.1040	25.92	0.06	0.250			
0.3431	21959.58	3.8480	3.8479	1.1084	25.94	0.08	0.250			
0.3464	22172.00	3.8450	3.8448	1.1028	25.96	0.10	0.250			
0.3497	22381.83	3.8420	3.8419	1.1032	25.98	0.12	0.250			
0.3530	22594.36	3.8390	3.8391	1.1080	26.01	0.15	0.250	0.298	0.450	
0.3564	22809.04	3.8360	3.8359	1.1109	26.04	0.18	0.250			
0.3597	23022.97	3.8330	3.8330	1.1053	26.05	0.19	0.250			
0.3631	23235.33	3.8300	3.8299	1.1052	26.07	0.21	0.250			
0.3664	23450.45	3.8270	3.8270	1.0938	26.11	0.25	0.250			
0.3697	23662.21	3.8240	3.8240	1.0656	26.12	0.26	0.250			
0.3729	23865.83	3.8210	3.8211	1.0422	26.13	0.27	0.250	0.281	0.442	
0.3760	24062.25	3.8180	3.8181	1.0165	26.15	0.29	0.250			
0.3790	24254.02	3.8150	3.8149	0.9891	26.16	0.30	0.250			
0.3819	24438.98	3.8120	3.8122	0.9645	26.18	0.32	0.250			
0.3847	24623.19	3.8090	3.8090	0.9393	26.19	0.33	0.250			
0.3876	24804.41	3.8060	3.8060	0.9195	26.18	0.32	0.250			
0.3903	24976.75	3.8030	3.8030	0.8945	26.20	0.34	0.250			
0.3928	25141.71	3.8000	3.8001	0.8737	26.21	0.35	0.250	0.360	0.481	
0.3954	25307.52	3.7970	3.7969	0.8588	26.21	0.35	0.250			
0.3980	25471.06	3.7940	3.7940	0.8503	26.20	0.34	0.250			
0.4005	25630.37	3.7910	3.7912	0.8537	26.20	0.34	0.250			
0.4030	25793.86	3.7880	3.7879	0.8731	26.20	0.34	0.250			
0.4056	25960.93	3.7850	3.7849	0.8879	26.20	0.34	0.250			
0.4083	26131.92	3.7820	3.7820	0.9106	26.21	0.35	0.250			
0.4111	26309.95	3.7790	3.7791	0.9417	26.21	0.35	0.250			
0.4140	26493.01	3.7760	3.7761	0.9748	26.21	0.35	0.250	0.347	0.446	
0.4169	26681.32	3.7730	3.7730	1.0187	26.22	0.36	0.250			
0.4200	26877.11	3.7700	3.7700	1.0683	26.20	0.34	0.250			
0.4233	27090.04	3.7670	3.7668	1.1178	26.20	0.34	0.250			
0.4268	27314.07	3.7640	3.7641	1.1754	26.20	0.34	0.250			
0.4304	27545.22	3.7610	3.7610	1.2145	26.20	0.34	0.250			
0.4341	27785.10	3.7580	3.7579	1.2473	26.18	0.32	0.250	0.347	0.461	
0.4379	28024.81	3.7550	3.7550	1.2761	26.17	0.31	0.250			
0.4417	28271.52	3.7520	3.7520	1.3080	26.17	0.31	0.250			
0.4457	28525.39	3.7490	3.7490	1.3443	26.16	0.30	0.250			
0.4498	28784.33	3.7460	3.7462	1.3890	26.15	0.29	0.250			
0.4541	29059.25	3.7430	3.7431	1.4394	26.14	0.28	0.250	0.307	0.480	
0.4585	29342.11	3.7400	3.7399	1.4761	26.13	0.27	0.250			
0.4629	29626.24	3.7370	3.7371	1.5212	26.11	0.25	0.250			
0.4676	29926.14	3.7340	3.7339	1.5688	26.10	0.24	0.250			
0.4723	30230.16	3.7310	3.7308	1.6125	26.11	0.25	0.250	0.399	0.473	
0.4772	30542.79	3.7280	3.7280	1.6605	26.09	0.23	0.250			
0.4823	30867.60	3.7250	3.7250	1.7044	26.05	0.19	0.250			
0.4875	31198.17	3.7220	3.7220	1.7616	26.05	0.19	0.250			
0.4927	31535.35	3.7190	3.7191	1.8217	26.03	0.17	0.250	0.297	0.456	
0.4983	31893.16	3.7160	3.7157	1.8874	26.02	0.16	0.250			
0.5041	32264.02	3.7130	3.7130	1.9511	26.00	0.14	0.250			
0.5101	32647.38	3.7100	3.7102	2.0250	25.99	0.13	0.250			
0.5163	33044.83	3.7070	3.7070	2.1019	25.98	0.12	0.250	0.280	0.465	
0.5227	33452.36	3.7040	3.7039	2.1584	25.95	0.09	0.250			
0.5293	33872.51	3.7010	3.7011	2.2102	25.92	0.06	0.250			
0.5360	34302.34	3.6980	3.6983	2.2911	25.87	0.01	0.250	0.279	0.471	
0.5430	34749.97	3.6950	3.6951	2.3861	25.85	-0.01	0.250			
0.5502	35211.50	3.6920	3.6920	2.4494	25.81	-0.05	0.250	0.334	0.468	
0.5577	35692.04	3.6890	3.6891	2.5362	25.75	-0.11	0.250			
0.5655	36188.91	3.6860	3.6861	2.6289	25.70	-0.16	0.250			
0.5735	36705.95	3.6830	3.6830	2.7111	25.66	-0.20	0.250	0.231	0.462	
0.5816	37224.13	3.6800	3.6800	2.7920	25.62	-0.24	0.250			
0.5902	37771.78	3.6770	3.6769	2.8887	25.57	-0.29	0.250	0.380	0.492	
0.5990	38336.74	3.6740	3.6740	2.9940	25.51	-0.35	0.250			
0.6081	38920.20	3.6710	3.6710	3.1220	25.48	-0.38	0.250			
0.6177	39532.60	3.6680	3.6680	3.2603	25.42	-0.44	0.250	0.395	0.498	
0.6277	40174.60	3.6650	3.6652	3.2787	25.36	-0.50	0.250			
0.6378	40818.23	3.6620	3.6622	3.3425	25.32	-0.54	0.250	0.290	0.512	
0.6478	41456.69	3.6590	3.6589	3.3669	25.27	-0.59	0.250			
0.6579	42103.43	3.6560	3.6561	3.3843	25.25	-0.61	0.250	0.259	0.504	
0.6682	42764.48	3.6530	3.6533	3.4824	25.23	-0.63	0.250			
0.6787	43436.15	3.6500	3.6499	3.5087	25.21	-0.65	0.250	0.321	0.496	
0.6893	44114.94	3.6470	3.6471	3.4549	25.17	-0.69	0.250	0.335	0.512	
0.6999	44793.73	3.6440	3.6441	3.3713	25.14	-0.72	0.250			
0.7096	45415.04	3.6410	3.6410	3.1683	25.12	-0.74	0.250	0.373	0.525	
0.7190	46013.68	3.6380	3.6379	2.9578	25.10	-0.76	0.250			
0.7276	46566.51	3.6350	3.6351	2.7252	25.10	-0.76	0.250			
0.7354	47067.93	3.6320	3.6320	2.4443	25.12	-0.74	0.250	0.286	0.532	
0.7424	47514.37	3.6290	3.6291	2.1554	25.12	-0.74	0.250			
0.7483	47892.47	3.6260	3.6262	1.8565	25.14	-0.72	0.250			
0.7534	48215.82	3.6230	3.6230	1.6204	25.15	-0.71	0.250	0.353	0.523	
0.7577	48494.15	3.6200	3.6200	1.4284	25.15	-0.71	0.250			
0.7614	48730.99	3.6170	3.6168	1.2999	25.15	-0.71	0.250			
0.7650	48959.94	3.6140	3.6140	1.2284	25.15	-0.71	0.250			
0.7685	49183.83	3.6110	3.6110	1.2173	25.15	-0.71	0.250			
0.7721	49413.97	3.6080	3.6081	1.2327	25.15	-0.71	0.250			
0.7758	49649.48	3.6050	3.6048	1.2584	25.16	-0.70	0.250	0.299	0.525	
0.7797	49899.86	3.6020	3.6020	1.2776	25.17	-0.69	0.250			
0.7836	50149.88	3.5990	3.5990	1.2898	25.16	-0.70	0.250			
0.7876	50405.40	3.5960	3.5962	1.2871	25.17	-0.69	0.250			
0.7914	50652.57	3.5930	3.5928	1.2539	25.18	-0.68	0.250			
0.7952	50889.87	3.5900	3.5900	1.2080	25.19	-0.67	0.250	0.363	0.538	
0.7987	51117.20	3.5870	3.5870	1.1735	25.19	-0.67	0.250			
0.8021	51337.21	3.5840	3.5840	1.1457	25.19	-0.67	0.250			
0.8055	51549.23	3.5810	3.5810	1.1238	25.19	-0.67	0.250			
0.8088	51762.55	3.5780	3.5779	1.1045	25.20	-0.66	0.250			
0.8121	51974.39	3.5750	3.5748	1.1067	25.19	-0.67	0.250			
0.8154	52185.27	3.5720	3.5722	1.1112	25.20	-0.66	0.250	0.348	0.526	
0.8188	52400.01	3.5690	3.5688	1.1125	25.20	-0.66	0.250			
0.8221	52613.48	3.5660	3.5661	1.1173	25.20	-0.66	0.250			
0.8254	52828.16	3.5630	3.5631	1.1153	25.21	-0.65	0.250			
0.8288	53044.01	3.5600	3.5601	1.1295	25.21	-0.65	0.250			
0.8322	53259.68	3.5570	3.5570	1.1329	25.21	-0.65	0.250			
0.8356	53476.73	3.5540	3.5539	1.1373	25.22	-0.64	0.250	0.333	0.545	
0.8390	53694.56	3.5510	3.5509	1.1580	25.21	-0.65	0.250			
0.8425	53918.23	3.5480	3.5482	1.1888	25.21	-0.65	0.250			
0.8460	54144.94	3.5450	3.5448	1.2251	25.21	-0.65	0.250			
0.8497	54381.77	3.5420	3.5421	1.2821	25.21	-0.65	0.250			
0.8535	54624.60	3.5390	3.5393	1.3655	25.23	-0.63	0.250	0.360	0.533	
0.8578	54897.18	3.5360	3.5361	1.4603	25.22	-0.64	0.250			
0.8622	55180.79	3.5330	3.5329	1.5809	25.21	-0.65	0.250			
0.8671	55493.69	3.5300	3.5301	1.7116	25.21	-0.65	0.250			
0.8724	55833.42	3.5270	3.5267	1.8499	25.20	-0.66	0.250	0.320	0.576	
0.8782	56204.10	3.5240	3.5241	1.9757	25.19	-0.67	0.250			
0.8844	56599.89	3.5210	3.5209	2.0876	25.15	-0.71	0.250			
0.8910	57021.15	3.5180	3.5179	2.1817	25.12	-0.74	0.250	0.309	0.552	
0.8977	57451.43	3.5150	3.5150	2.2356	25.10	-0.76	0.250			
0.9047	57898.67	3.5120	3.5118	2.2537	25.06	-0.80	0.250			
0.9116	58344.38	3.5090	3.5089	2.1748	25.04	-0.82	0.250	0.415	0.581	
0.9183	58771.55	3.5060	3.5061	1.9893	25.02	-0.84	0.250			
0.9243	59157.36	3.5030	3.5031	1.7195	25.00	-0.86	0.250			
0.9293	59475.11	3.5000	3.5002	1.3878	24.99	-0.87	0.250			
0.9328	59700.33	3.4970	3.4971	1.0495	25.00	-0.86	0.250			
0.9350	59838.15	3.4940	3.4939	0.7746	25.02	-0.84	0.250	0.372	0.605	
0.9365	59934.20	3.4910	3.4907	0.5671	25.03	-0.83	0.250			
0.9377	60010.36	3.4880	3.4880	0.4499	25.04	-0.82	0.250			
0.9388	60085.40	3.4850	3.4847	0.3926	25.04	-0.82	0.250			
0.9398	60149.78	3.4820	3.4821	0.3553	25.05	-0.81	0.250			
0.9409	60214.47	3.4790	3.4789	0.3329	25.06	-0.80	0.250			
0.9418	60274.83	3.4760	3.4760	0.3156	25.07	-0.79	0.250			
0.9427	60333.18	3.4730	3.4731	0.3056	25.08	-0.78	0.250			
0.9436	60389.39	3.4700	3.4701	0.2959	25.09	-0.77	0.250			
0.9445	60445.74	3.4670	3.4668	0.2914	25.10	-0.76	0.250			
0.9453	60500.11	3.4640	3.4639	0.2846	25.11	-0.75	0.250			
0.9462	60554.89	3.4610	3.4611	0.2799	25.12	-0.74	0.250			
0.9470	60609.62	3.4580	3.4580	0.2760	25.13	-0.73	0.250			
0.9478	60662.00	3.4550	3.4549	0.2694	25.14	-0.72	0.250			
0.9486	60712.27	3.4520	3.4521	0.2634	25.15	-0.71	0.250			
0.9494	60761.52	3.4490	3.4488	0.2578	25.16	-0.70	0.250			
0.9502	60810.43	3.4460	3.4459	0.2537	25.17	-0.69	0.250			
0.9509	60858.93	3.4430	3.4431	0.2501	25.18	-0.68	0.250			
0.9517	60906.33	3.4400	3.4401	0.2467	25.19	-0.67	0.250			
0.9524	60953.48	3.4370	3.4370	0.2455	25.20	-0.66	0.250			
0.9531	61000.30	3.4340	3.4340	0.2416	25.21	-0.65	0.250			
0.9539	61046.41	3.4310	3.4308	0.2378	25.21	-0.65	0.250			
0.9546	61091.98	3.4280	3.4280	0.2343	25.22	-0.64	0.250	0.272	0.595	
0.9553	61137.15	3.4250	3.4250	0.2314	25.24	-0.62	0.250			
0.9560	61181.66	3.4220	3.4220	0.2277	25.25	-0.61	0.250			
0.9566	61224.72	3.4190	3.4190	0.2222	25.25	-0.61	0.250			
0.9573	61266.45	3.4160	3.4160	0.2174	25.26	-0.60	0.250			
0.9579	61307.82	3.4130	3.4131	0.2155	25.27	-0.59	0.250			
0.9586	61348.87	3.4100	3.4099	0.2127	25.28	-0.58	0.250			
0.9592	61389.15	3.4070	3.4070	0.2097	25.30	-0.56	0.250			
0.9598	61429.19	3.4040	3.4040	0.2065	25.31	-0.55	0.250			
0.9604	61468.37	3.4010	3.4011	0.2047	25.32	-0.54	0.250			
0.9611	61507.54	3.3980	3.3981	0.2034	25.33	-0.53	0.250			
0.9617	61546.50	3.3950	3.3949	0.2011	25.34	-0.52	0.250			
0.9623	61584.85	3.3920	3.3921	0.1989	25.35	-0.51	0.250			
0.9629	61622.74	3.3890	3.3890	0.1961	25.35	-0.51	0.250			
0.9634	61660.55	3.3860	3.3860	0.1941	25.36	-0.50	0.250			
0.9640	61697.46	3.3830	3.3830	0.1913	25.37	-0.49	0.250			
0.9646	61734.23	3.3800	3.3800	0.1886	25.38	-0.48	0.250			
0.9652	61769.74	3.3770	3.3770	0.1855	25.39	-0.47	0.250			
0.9657	61804.94	3.3740	3.3742	0.1830	25.40	-0.46	0.250			
0.9663	61840.02	3.3710	3.3709	0.1810	25.40	-0.46	0.250			
0.9668	61874.55	3.3680	3.3680	0.1787	25.41	-0.45	0.250			
0.9673	61908.59	3.3650	3.3650	0.1768	25.42	-0.44	0.250			
0.9678	61942.20	3.3620	3.3620	0.1751	25.43	-0.43	0.250			
0.9684	61975.52	3.3590	3.3590	0.1733	25.43	-0.43	0.250			
0.9689	62008.67	3.3560	3.3560	0.1720	25.44	-0.42	0.250			
0.9694	62041.58	3.3530	3.3530	0.1702	25.45	-0.41	0.250			
0.9699	62074.25	3.3500	3.3500	0.1685	25.46	-0.40	0.250			
0.9704	62106.66	3.3470	3.3471	0.1670	25.46	-0.40	0.250			
0.9709	62138.48	3.3440	3.3439	0.1646	25.47	-0.39	0.250			
0.9714	62169.85	3.3410	3.3410	0.1623	25.48	-0.38	0.250			
0.9719	62200.98	3.3380	3.3379	0.1594	25.49	-0.37	0.250			
0.9724	62231.32	3.3350	3.3351	0.1566	25.50	-0.36	0.250			
0.9728	62261.15	3.3320	3.3320	0.1547	25.50	-0.36	0.250			
0.9733	62290.64	3.3290	3.3290	0.1522	25.51	-0.35	0.250			
0.9737	62319.36	3.3260	3.3261	0.1505	25.52	-0.34	0.250			
0.9742	62347.97	3.3230	3.3230	0.1493	25.53	-0.33	0.250	0.321	0.595	
0.9746	62376.28	3.3200	3.3200	0.1478	25.54	-0.32	0.250			
0.9751	62404.32	3.3170	3.3169	0.1470	25.54	-0.32	0.250			
0.9755	62432.66	3.3140	3.3139	0.1466	25.55	-0.31	0.250			
0.9760	62461.02	3.3110	3.3111	0.1445	25.56	-0.30	0.250			
0.9764	62488.64	3.3080	3.3080	0.1432	25.57	-0.29	0.250			
0.9768	62516.73	3.3050	3.3050	0.1412	25.58	-0.28	0.250			
0.9772	62543.44	3.3020	3.3022	0.1389	25.59	-0.27	0.250			
0.9777	62569.86	3.2990	3.2989	0.1363	25.59	-0.27	0.250			
0.9781	62595.58	3.2960	3.2960	0.1350	25.60	-0.26	0.250			
0.9785	62620.83	3.2930	3.2928	0.1337	25.61	-0.25	0.250			
0.9788	62646.34	3.2900	3.2900	0.1322	25.62	-0.24	0.250			
0.9792	62671.89	3.2870	3.2870	0.1321	25.63	-0.23	0.250			
0.9796	62697.15	3.2840	3.2840	0.1313	25.63	-0.23	0.250			
0.9800	62722.68	3.2810	3.2811	0.1299	25.64	-0.22	0.250			
0.9804	62747.55	3.2780	3.2779	0.1281	25.65	-0.21	0.250			
0.9808	62771.85	3.2750	3.2750	0.1266	25.66	-0.20	0.250			
0.9812	62795.92	3.2720	3.2721	0.1247	25.67	-0.19	0.250			
0.9816	62819.52	3.2690	3.2690	0.1235	25.68	-0.18	0.250			
0.9819	62843.12	3.2660	3.2659	0.1224	25.68	-0.18	0.250			
0.9823	62866.57	3.2630	3.2630	0.1209	25.69	-0.17	0.250			
0.9826	62889.44	3.2600	3.2599	0.1195	25.70	-0.16	0.250			
0.9830	62912.70	3.2570	3.2570	0.1185	25.71	-0.15	0.250			
0.9834	62935.25	3.2540	3.2540	0.1165	25.71	-0.15	0.250			
0.9837	62957.37	3.2510	3.2510	0.1150	25.72	-0.14	0.250			
0.9841	62979.30	3.2480	3.2480	0.1133	25.73	-0.13	0.250			
0.9844	63000.78	3.2450	3.2450	0.1115	25.73	-0.13	0.250			
0.9847	63022.06	3.2420	3.2420	0.1101	25.74	-0.12	0.250			
0.9850	63042.95	3.2390	3.2391	0.1091	25.75	-0.11	0.250			
0.9854	63063.78	3.2360	3.2360	0.1080	25.75	-0.11	0.250			
0.9857	63084.48	3.2330	3.2329	0.1065	25.76	-0.10	0.250			
0.9860	63104.80	3.2300	3.2301	0.1052	25.76	-0.10	0.250			
0.9863	63124.76	3.2270	3.2271	0.1041	25.77	-0.09	0.250			
0.9866	63144.65	3.2240	3.2241	0.1031	25.78	-0.08	0.250			
0.9869	63164.39	3.2210	3.2209	0.1021	25.78	-0.08	0.250			
0.9872	63183.89	3.2180	3.2180	0.1010	25.79	-0.07	0.250			
0.9875	63203.19	3.2150	3.2151	0.0994	25.79	-0.07	0.250			
0.9878	63222.15	3.2120	3.2120	0.0981	25.80	-0.06	0.250			
0.9881	63241.13	3.2090	3.2090	0.0969	25.80	-0.06	0.250			
0.9884	63259.56	3.2060	3.2061	0.0951	25.81	-0.05	0.250			
0.9887	63277.37	3.2030	3.2030	0.0938	25.82	-0.04	0.250			
0.9890	63295.27	3.2000	3.2000	0.0926	25.82	-0.04	0.250			
0.9893	63312.79	3.1970	3.1969	0.0912	25.83	-0.03	0.250			
0.9895	63330.22	3.1940	3.1940	0.0904	25.83	-0.03	0.250			
0.9898	63347.61	3.1910	3.1910	0.0894	25.84	-0.02	0.250			
0.9901	63364.67	3.1880	3.1880	0.0883	25.84	-0.02	0.250			
0.9903	63381.77	3.1850	3.1850	0.0873	25.85	-0.01	0.250			
0.9906	63398.37	3.1820	3.1820	0.0856	25.85	-0.01	0.250			
0.9909	63414.62	3.1790	3.1790	0.0840	25.86	-0.00	0.250			
0.9911	63430.57	3.1760	3.1761	0.0823	25.86	0.00	0.250			
0.9913	63446.22	3.1730	3.1731	0.0807	25.87	0.01	0.250			
0.9916	63461.66	3.1700	3.1700	0.0790	25.87	0.01	0.250			
0.9918	63476.66	3.1670	3.1669	0.0772	25.88	0.02	0.250			
0.9921	63491.31	3.1640	3.1641	0.0754	25.88	0.02	0.250			
0.9923	63505.73	3.1610	3.1610	0.0733	25.88	0.02	0.250			
0.9925	63519.75	3.1580	3.1580	0.0715	25.89	0.03	0.250			
0.9927	63533.27	3.1550	3.1551	0.0693	25.89	0.03	0.250			
0.9929	63546.99	3.1520	3.1520	0.0649	25.90	0.04	0.250			
0.9931	63559.59	3.1490	3.1488	0.0628	25.90	0.04	0.250			
0.9933	63571.27	3.1460	3.1460	0.0589	25.90	0.04	0.250			
0.9935	63582.21	3.1430	3.1433	0.0550	25.91	0.05	0.250			
0.9936	63593.17	3.1400	3.1403	0.0515	25.91	0.05	0.250			
0.9938	63602.63	3.1370	3.1376	0.0470	25.91	0.05	0.250			
0.9939	63611.21	3.1340	3.1351	0.0424	25.92	0.06	0.250			
0.9940	63618.92	3.1310	3.1320	0.0378	25.92	0.06	0.250			
0.9942	63625.74	3.1280	3.1295	0.0333	25.92	0.06	0.250			
