Ah_balance (normalized)	Ah_balance (mAh)	Voltage - fit (V)	Voltage -  interpolate (V)	dQ/dV (1/V)	Temperature (°C)	Temperature - diff (°C)	Current (C)	R_DC 0ms (mOhm)	R_DC 50ms (mOhm)	R_DC 50 ms PEC (mOhm)
0.0003	16.16	4.1640	4.1636	-0.1123	24.88	-0.05	-0.750			
0.0007	42.29	4.1610	4.1610	-0.1578	24.88	-0.05	-0.750			
0.0012	77.51	4.1580	4.1579	-0.2006	24.88	-0.05	-0.750			
0.0019	119.47	4.1550	4.1551	-0.2430	24.89	-0.04	-0.750			
0.0027	170.67	4.1520	4.1520	-0.2832	24.89	-0.04	-0.750			
0.0036	229.88	4.1490	4.1489	-0.3213	24.89	-0.04	-0.750			
0.0046	296.07	4.1460	4.1460	-0.3579	24.90	-0.03	-0.750			
0.0058	368.65	4.1430	4.1431	-0.3906	24.90	-0.03	-0.750			
0.0070	446.75	4.1400	4.1400	-0.4289	24.91	-0.02	-0.750			
0.0083	533.15	4.1370	4.1370	-0.4601	24.92	-0.01	-0.750			
0.0098	624.79	4.1340	4.1339	-0.4885	24.92	-0.01	-0.750			
0.0113	721.91	4.1310	4.1313	-0.5186	24.93	0.00	-0.750			
0.0129	825.86	4.1280	4.1280	-0.5457	24.94	0.01	-0.750			
0.0146	933.89	4.1250	4.1250	-0.5726	24.95	0.02	-0.750			
0.0164	1047.71	4.1220	4.1219	-0.5923	24.95	0.02	-0.750			
0.0182	1164.39	4.1190	4.1190	-0.6102	24.96	0.03	-0.750			
0.0201	1283.94	4.1160	4.1163	-0.6219	24.97	0.04	-0.750	0.436	0.570	
0.0220	1404.87	4.1130	4.1129	-0.6346	24.98	0.05	-0.750			
0.0238	1526.29	4.1100	4.1100	-0.6471	24.99	0.06	-0.750			
0.0258	1650.02	4.1070	4.1069	-0.6589	25.00	0.07	-0.750			
0.0278	1778.37	4.1040	4.1040	-0.6721	25.02	0.09	-0.750			
0.0299	1910.71	4.1010	4.1011	-0.6863	25.03	0.10	-0.750			
0.0319	2044.08	4.0980	4.0980	-0.6970	25.04	0.11	-0.750			
0.0341	2179.37	4.0950	4.0950	-0.7064	25.06	0.13	-0.750			
0.0362	2315.32	4.0920	4.0922	-0.7073	25.07	0.14	-0.750			
0.0383	2451.46	4.0890	4.0889	-0.7093	25.09	0.16	-0.750			
0.0404	2588.06	4.0860	4.0861	-0.7184	25.10	0.17	-0.750	0.379	0.560	
0.0426	2726.55	4.0830	4.0830	-0.7290	25.12	0.19	-0.750			
0.0448	2866.81	4.0800	4.0798	-0.7353	25.13	0.20	-0.750			
0.0470	3008.82	4.0770	4.0770	-0.7436	25.15	0.22	-0.750			
0.0493	3152.14	4.0740	4.0740	-0.7493	25.16	0.23	-0.750			
0.0516	3300.18	4.0710	4.0711	-0.7562	25.18	0.25	-0.750			
0.0538	3444.79	4.0680	4.0680	-0.7646	25.20	0.27	-0.750			
0.0561	3589.81	4.0650	4.0650	-0.7659	25.22	0.29	-0.750			
0.0584	3739.05	4.0620	4.0619	-0.7770	25.24	0.31	-0.750			
0.0607	3887.66	4.0590	4.0592	-0.7789	25.26	0.33	-0.750	0.444	0.541	
0.0631	4039.12	4.0560	4.0559	-0.7859	25.28	0.35	-0.750			
0.0655	4190.38	4.0530	4.0530	-0.7943	25.30	0.37	-0.750			
0.0679	4343.38	4.0500	4.0500	-0.7996	25.32	0.39	-0.750			
0.0703	4496.28	4.0470	4.0470	-0.7992	25.34	0.41	-0.750			
0.0727	4652.68	4.0440	4.0440	-0.8061	25.36	0.43	-0.750			
0.0751	4807.66	4.0410	4.0411	-0.8067	25.38	0.45	-0.750			
0.0775	4962.55	4.0380	4.0380	-0.8115	25.39	0.46	-0.750			
0.0800	5119.10	4.0350	4.0351	-0.8092	25.41	0.48	-0.750	0.390	0.527	
0.0824	5273.57	4.0320	4.0319	-0.8095	25.42	0.49	-0.750			
0.0848	5429.53	4.0290	4.0290	-0.8152	25.43	0.50	-0.750			
0.0873	5587.37	4.0260	4.0261	-0.8180	25.46	0.53	-0.750			
0.0897	5742.44	4.0230	4.0229	-0.8235	25.49	0.56	-0.750			
0.0922	5900.41	4.0200	4.0201	-0.8337	25.52	0.59	-0.750			
0.0947	6062.79	4.0170	4.0169	-0.8327	25.55	0.62	-0.750			
0.0973	6224.83	4.0140	4.0139	-0.8388	25.56	0.63	-0.750			
0.0998	6386.68	4.0110	4.0111	-0.8421	25.57	0.64	-0.750	0.392	0.512	
0.1023	6547.97	4.0080	4.0078	-0.8498	25.59	0.66	-0.750			
0.1049	6712.25	4.0050	4.0049	-0.8524	25.60	0.67	-0.750			
0.1074	6873.39	4.0020	4.0021	-0.8529	25.62	0.69	-0.750			
0.1100	7041.23	3.9990	3.9989	-0.8605	25.64	0.71	-0.750			
0.1126	7208.77	3.9960	3.9960	-0.8674	25.66	0.73	-0.750			
0.1152	7374.88	3.9930	3.9929	-0.8646	25.69	0.76	-0.750			
0.1178	7541.05	3.9900	3.9900	-0.8595	25.71	0.78	-0.750			
0.1204	7705.69	3.9870	3.9870	-0.8566	25.73	0.80	-0.750	0.411	0.513	
0.1230	7870.30	3.9840	3.9840	-0.8611	25.76	0.83	-0.750			
0.1255	8034.95	3.9810	3.9810	-0.8578	25.78	0.85	-0.750			
0.1281	8199.10	3.9780	3.9779	-0.8626	25.80	0.87	-0.750			
0.1307	8364.96	3.9750	3.9750	-0.8629	25.82	0.89	-0.750			
0.1333	8533.58	3.9720	3.9721	-0.8656	25.84	0.91	-0.750			
0.1359	8700.55	3.9690	3.9691	-0.8719	25.86	0.93	-0.750			
0.1385	8866.58	3.9660	3.9659	-0.8737	25.88	0.95	-0.750			
0.1411	9032.50	3.9630	3.9631	-0.8815	25.90	0.97	-0.750	0.411	0.498	
0.1438	9203.52	3.9600	3.9600	-0.8931	25.92	0.99	-0.750			
0.1465	9374.91	3.9570	3.9569	-0.9031	25.94	1.01	-0.750			
0.1492	9551.47	3.9540	3.9541	-0.9055	25.97	1.04	-0.750			
0.1520	9730.53	3.9510	3.9509	-0.9241	25.99	1.06	-0.750			
0.1548	9907.73	3.9480	3.9480	-0.9170	26.02	1.09	-0.750			
0.1576	10085.67	3.9450	3.9447	-0.9079	26.04	1.11	-0.750			
0.1603	10259.51	3.9420	3.9423	-0.9075	26.06	1.13	-0.750	0.392	0.490	
0.1630	10431.49	3.9390	3.9389	-0.9077	26.08	1.15	-0.750			
0.1657	10603.32	3.9360	3.9359	-0.9046	26.10	1.17	-0.750			
0.1684	10776.63	3.9330	3.9328	-0.9080	26.12	1.19	-0.750			
0.1711	10947.47	3.9300	3.9301	-0.9210	26.14	1.21	-0.750			
0.1739	11131.63	3.9270	3.9271	-0.9238	26.16	1.23	-0.750			
0.1767	11310.52	3.9240	3.9239	-0.9180	26.18	1.25	-0.750			
0.1795	11485.38	3.9210	3.9210	-0.9130	26.20	1.27	-0.750	0.408	0.484	
0.1822	11660.76	3.9180	3.9179	-0.9070	26.22	1.29	-0.750			
0.1849	11833.00	3.9150	3.9148	-0.9066	26.24	1.31	-0.750			
0.1876	12004.51	3.9120	3.9120	-0.9083	26.26	1.33	-0.750			
0.1902	12174.04	3.9090	3.9091	-0.9264	26.28	1.35	-0.750			
0.1931	12360.04	3.9060	3.9059	-0.9417	26.30	1.37	-0.750			
0.1960	12544.48	3.9030	3.9028	-0.9455	26.32	1.39	-0.750			
0.1989	12727.67	3.9000	3.9001	-0.9422	26.34	1.41	-0.750	0.402	0.476	
0.2017	12911.95	3.8970	3.8971	-0.9467	26.37	1.44	-0.750			
0.2046	13091.83	3.8940	3.8938	-0.9373	26.39	1.46	-0.750			
0.2073	13267.61	3.8910	3.8910	-0.9298	26.42	1.49	-0.750			
0.2100	13441.35	3.8880	3.8880	-0.9328	26.44	1.51	-0.750			
0.2129	13624.44	3.8850	3.8848	-0.9427	26.45	1.52	-0.750			
0.2158	13808.93	3.8820	3.8819	-0.9499	26.48	1.55	-0.750			
0.2186	13991.78	3.8790	3.8789	-0.9478	26.50	1.57	-0.750			
0.2215	14174.48	3.8760	3.8760	-0.9421	26.52	1.59	-0.750	0.410	0.481	
0.2243	14357.04	3.8730	3.8732	-0.9451	26.55	1.62	-0.750			
0.2271	14537.21	3.8700	3.8699	-0.9424	26.58	1.65	-0.750			
0.2299	14711.93	3.8670	3.8670	-0.9440	26.61	1.68	-0.750			
0.2327	14895.09	3.8640	3.8638	-0.9428	26.64	1.71	-0.750			
0.2356	15081.47	3.8610	3.8610	-0.9415	26.65	1.72	-0.750			
0.2385	15262.99	3.8580	3.8579	-0.9434	26.66	1.73	-0.750			
0.2413	15443.65	3.8550	3.8551	-0.9420	26.68	1.75	-0.750	0.375	0.476	
0.2441	15620.39	3.8520	3.8519	-0.9343	26.69	1.76	-0.750			
0.2469	15800.19	3.8490	3.8489	-0.9346	26.71	1.78	-0.750			
0.2496	15975.13	3.8460	3.8461	-0.9524	26.73	1.80	-0.750			
0.2526	16163.39	3.8430	3.8430	-0.9586	26.75	1.82	-0.750			
0.2555	16350.00	3.8400	3.8398	-0.9562	26.76	1.83	-0.750			
0.2583	16533.51	3.8370	3.8369	-0.9499	26.78	1.85	-0.750			
0.2612	16716.86	3.8340	3.8339	-0.9455	26.80	1.87	-0.750	0.409	0.475	
0.2640	16896.88	3.8310	3.8308	-0.9460	26.82	1.89	-0.750			
0.2668	17076.44	3.8280	3.8281	-0.9473	26.85	1.92	-0.750			
0.2695	17250.30	3.8250	3.8250	-0.9532	26.87	1.94	-0.750			
0.2725	17440.32	3.8220	3.8219	-0.9718	26.89	1.96	-0.750			
0.2755	17629.64	3.8190	3.8188	-0.9758	26.91	1.98	-0.750			
0.2784	17820.18	3.8160	3.8159	-0.9741	26.93	2.00	-0.750			
0.2814	18007.04	3.8130	3.8132	-0.9687	26.95	2.02	-0.750	0.413	0.461	
0.2842	18190.29	3.8100	3.8100	-0.9554	26.97	2.04	-0.750			
0.2871	18371.26	3.8070	3.8069	-0.9489	26.99	2.06	-0.750			
0.2898	18546.94	3.8040	3.8041	-0.9582	27.01	2.08	-0.750			
0.2928	18737.98	3.8010	3.8010	-0.9731	27.03	2.10	-0.750			
0.2957	18926.94	3.7980	3.7978	-0.9702	27.06	2.13	-0.750			
0.2987	19114.97	3.7950	3.7951	-0.9751	27.08	2.15	-0.750			
0.3016	19301.78	3.7920	3.7921	-0.9786	27.09	2.16	-0.750	0.404	0.460	
0.3045	19490.97	3.7890	3.7888	-0.9776	27.10	2.17	-0.750			
0.3074	19676.11	3.7860	3.7859	-0.9670	27.12	2.19	-0.750			
0.3103	19858.49	3.7830	3.7831	-0.9677	27.13	2.20	-0.750			
0.3133	20049.63	3.7800	3.7800	-0.9843	27.15	2.22	-0.750			
0.3162	20237.97	3.7770	3.7768	-0.9839	27.17	2.24	-0.750			
0.3192	20426.10	3.7740	3.7738	-0.9789	27.20	2.27	-0.750	0.417	0.459	
0.3221	20613.43	3.7710	3.7710	-0.9848	27.22	2.29	-0.750			
0.3251	20805.93	3.7680	3.7679	-0.9894	27.24	2.31	-0.750			
0.3281	20995.62	3.7650	3.7650	-0.9971	27.25	2.32	-0.750			
0.3310	21183.26	3.7620	3.7620	-1.0016	27.26	2.33	-0.750			
0.3341	21380.48	3.7590	3.7590	-1.0103	27.27	2.34	-0.750			
0.3371	21576.82	3.7560	3.7560	-1.0123	27.29	2.36	-0.750			
0.3402	21772.31	3.7530	3.7532	-1.0175	27.31	2.38	-0.750	0.394	0.449	
0.3432	21965.15	3.7500	3.7500	-1.0224	27.33	2.40	-0.750			
0.3463	22160.18	3.7470	3.7469	-1.0219	27.35	2.42	-0.750			
0.3493	22355.60	3.7440	3.7440	-1.0384	27.37	2.44	-0.750			
0.3524	22556.30	3.7410	3.7410	-1.0497	27.38	2.45	-0.750			
0.3557	22763.93	3.7380	3.7380	-1.0732	27.39	2.46	-0.750			
0.3589	22971.49	3.7350	3.7349	-1.0815	27.40	2.47	-0.750	0.405	0.457	
0.3622	23179.94	3.7320	3.7320	-1.0883	27.41	2.48	-0.750			
0.3655	23390.97	3.7290	3.7290	-1.0861	27.42	2.49	-0.750			
0.3688	23602.69	3.7260	3.7260	-1.0808	27.42	2.49	-0.750			
0.3720	23806.25	3.7230	3.7231	-1.0846	27.43	2.50	-0.750			
0.3752	24013.35	3.7200	3.7199	-1.1005	27.44	2.51	-0.750			
0.3784	24220.62	3.7170	3.7169	-1.1126	27.45	2.52	-0.750			
0.3818	24435.77	3.7140	3.7141	-1.1395	27.47	2.54	-0.750	0.392	0.453	
0.3853	24656.95	3.7110	3.7109	-1.1710	27.49	2.56	-0.750			
0.3889	24888.67	3.7080	3.7080	-1.2023	27.49	2.56	-0.750			
0.3926	25124.20	3.7050	3.7049	-1.2183	27.50	2.57	-0.750			
0.3963	25363.71	3.7020	3.7020	-1.2322	27.50	2.57	-0.750			
0.4000	25600.76	3.6990	3.6991	-1.2378	27.51	2.58	-0.750	0.412	0.453	
0.4038	25840.80	3.6960	3.6959	-1.2408	27.53	2.60	-0.750			
0.4075	26078.20	3.6930	3.6929	-1.2503	27.54	2.61	-0.750			
0.4112	26314.63	3.6900	3.6902	-1.2649	27.56	2.63	-0.750			
0.4150	26558.29	3.6870	3.6871	-1.2893	27.55	2.62	-0.750			
0.4189	26808.93	3.6840	3.6838	-1.3221	27.55	2.62	-0.750	0.396	0.450	
0.4229	27066.62	3.6810	3.6810	-1.3480	27.54	2.61	-0.750			
0.4270	27327.72	3.6780	3.6779	-1.3732	27.55	2.62	-0.750			
0.4312	27595.22	3.6750	3.6750	-1.3996	27.55	2.62	-0.750			
0.4354	27865.65	3.6720	3.6721	-1.4238	27.56	2.63	-0.750			
0.4397	28141.22	3.6690	3.6689	-1.4536	27.56	2.63	-0.750	0.389	0.446	
0.4441	28423.89	3.6660	3.6660	-1.4678	27.55	2.62	-0.750			
0.4486	28708.98	3.6630	3.6632	-1.4917	27.55	2.62	-0.750			
0.4531	28997.44	3.6600	3.6598	-1.5198	27.54	2.61	-0.750			
0.4576	29288.43	3.6570	3.6572	-1.5627	27.54	2.61	-0.750			
0.4624	29591.98	3.6540	3.6539	-1.5967	27.53	2.60	-0.750	0.415	0.452	
0.4673	29905.95	3.6510	3.6510	-1.6345	27.52	2.59	-0.750			
0.4722	30219.50	3.6480	3.6482	-1.6750	27.52	2.59	-0.750			
0.4773	30545.97	3.6450	3.6451	-1.7049	27.52	2.59	-0.750			
0.4825	30881.55	3.6420	3.6420	-1.7650	27.53	2.60	-0.750	0.373	0.461	
0.4878	31220.79	3.6390	3.6389	-1.7978	27.52	2.59	-0.750			
0.4933	31569.10	3.6360	3.6361	-1.8271	27.50	2.57	-0.750			
0.4988	31925.67	3.6330	3.6333	-1.8836	27.48	2.55	-0.750	0.380	0.456	
0.5046	32292.01	3.6300	3.6298	-1.9369	27.48	2.55	-0.750			
0.5104	32665.03	3.6270	3.6269	-1.9743	27.48	2.55	-0.750			
0.5164	33052.80	3.6240	3.6239	-2.0007	27.47	2.54	-0.750			
0.5225	33442.54	3.6210	3.6211	-2.0270	27.46	2.53	-0.750	0.397	0.456	
0.5287	33839.23	3.6180	3.6181	-2.0315	27.45	2.52	-0.750			
0.5347	34221.99	3.6150	3.6151	-2.0573	27.44	2.51	-0.750			
0.5408	34608.01	3.6120	3.6121	-2.1063	27.44	2.51	-0.750	0.387	0.459	
0.5472	35018.20	3.6090	3.6085	-2.1502	27.43	2.50	-0.750			
0.5538	35442.09	3.6060	3.6060	-2.2013	27.43	2.50	-0.750			
0.5605	35873.37	3.6030	3.6032	-2.2556	27.44	2.51	-0.750	0.424	0.468	
0.5675	36320.36	3.6000	3.6000	-2.2959	27.46	2.53	-0.750			
0.5744	36759.28	3.5970	3.5968	-2.3169	27.48	2.55	-0.750			
0.5812	37196.94	3.5940	3.5943	-2.3568	27.45	2.52	-0.750	0.406	0.459	
0.5885	37663.31	3.5910	3.5909	-2.4059	27.43	2.50	-0.750			
0.5958	38133.49	3.5880	3.5880	-2.4307	27.45	2.52	-0.750			
0.6031	38599.82	3.5850	3.5851	-2.4285	27.46	2.53	-0.750	0.421	0.459	
0.6105	39070.54	3.5820	3.5821	-2.4487	27.47	2.54	-0.750			
0.6178	39536.75	3.5790	3.5790	-2.4464	27.47	2.54	-0.750	0.404	0.457	
0.6250	39999.52	3.5760	3.5759	-2.4618	27.47	2.54	-0.750			
0.6325	40482.13	3.5730	3.5730	-2.4835	27.48	2.55	-0.750			
0.6401	40964.45	3.5700	3.5700	-2.4996	27.48	2.55	-0.750	0.398	0.460	
0.6476	41445.96	3.5670	3.5670	-2.5112	27.47	2.54	-0.750			
0.6551	41924.38	3.5640	3.5640	-2.5061	27.48	2.55	-0.750			
0.6627	42410.28	3.5610	3.5610	-2.4897	27.49	2.56	-0.750	0.394	0.467	
0.6701	42886.25	3.5580	3.5580	-2.4753	27.51	2.58	-0.750			
0.6775	43357.59	3.5550	3.5550	-2.4833	27.53	2.60	-0.750	0.399	0.468	
0.6850	43839.77	3.5520	3.5518	-2.4748	27.56	2.63	-0.750			
0.6924	44313.76	3.5490	3.5491	-2.4501	27.55	2.62	-0.750			
0.6997	44781.28	3.5460	3.5459	-2.4455	27.54	2.61	-0.750	0.402	0.477	
0.7072	45259.33	3.5430	3.5429	-2.4352	27.55	2.62	-0.750			
0.7145	45725.42	3.5400	3.5398	-2.3768	27.58	2.65	-0.750			
0.7215	46177.85	3.5370	3.5370	-2.3168	27.62	2.69	-0.750	0.404	0.472	
0.7284	46620.80	3.5340	3.5341	-2.2628	27.65	2.72	-0.750			
0.7352	47051.64	3.5310	3.5310	-2.1862	27.69	2.76	-0.750			
0.7415	47455.95	3.5280	3.5278	-2.1141	27.70	2.77	-0.750	0.386	0.480	
0.7477	47853.62	3.5250	3.5252	-2.0354	27.71	2.78	-0.750			
0.7538	48241.18	3.5220	3.5218	-1.9723	27.77	2.84	-0.750			
0.7596	48613.99	3.5190	3.5189	-1.8937	27.83	2.90	-0.750	0.378	0.481	
0.7652	48970.41	3.5160	3.5162	-1.8227	27.87	2.94	-0.750			
0.7706	49318.67	3.5130	3.5130	-1.7602	27.91	2.98	-0.750			
0.7757	49647.24	3.5100	3.5098	-1.6691	27.95	3.02	-0.750			
0.7805	49953.72	3.5070	3.5070	-1.5887	27.99	3.06	-0.750	0.391	0.483	
0.7852	50253.44	3.5040	3.5041	-1.5498	28.03	3.10	-0.750			
0.7897	50543.79	3.5010	3.5008	-1.4798	28.06	3.13	-0.750			
0.7941	50824.03	3.4980	3.4978	-1.4147	28.09	3.16	-0.750			
0.7982	51087.04	3.4950	3.4951	-1.3557	28.12	3.19	-0.750			
0.8022	51343.12	3.4920	3.4920	-1.3010	28.19	3.26	-0.750	0.385	0.482	
0.8060	51585.97	3.4890	3.4890	-1.2622	28.24	3.31	-0.750			
0.8097	51820.46	3.4860	3.4858	-1.2180	28.25	3.32	-0.750			
0.8132	52045.29	3.4830	3.4829	-1.1728	28.29	3.36	-0.750			
0.8168	52274.73	3.4800	3.4799	-1.1373	28.33	3.40	-0.750			
0.8202	52492.11	3.4770	3.4771	-1.0933	28.37	3.44	-0.750	0.403	0.490	
0.8234	52696.04	3.4740	3.4741	-1.0541	28.39	3.46	-0.750			
0.8264	52890.32	3.4710	3.4709	-1.0239	28.43	3.50	-0.750			
0.8294	53079.45	3.4680	3.4679	-1.0026	28.47	3.54	-0.750			
0.8323	53267.91	3.4650	3.4652	-1.0065	28.50	3.57	-0.750			
0.8353	53459.95	3.4620	3.4622	-1.0171	28.51	3.58	-0.750			
0.8384	53655.68	3.4590	3.4589	-1.0371	28.53	3.60	-0.750			
0.8415	53853.89	3.4560	3.4562	-1.0595	28.55	3.62	-0.750	0.386	0.492	
0.8446	54053.73	3.4530	3.4529	-1.1170	28.57	3.64	-0.750			
0.8480	54269.65	3.4500	3.4501	-1.2010	28.60	3.67	-0.750			
0.8516	54504.16	3.4470	3.4468	-1.2865	28.62	3.69	-0.750			
0.8557	54766.70	3.4440	3.4439	-1.3614	28.64	3.71	-0.750			
0.8600	55041.31	3.4410	3.4409	-1.4145	28.67	3.74	-0.750	0.372	0.497	
0.8644	55324.70	3.4380	3.4379	-1.4387	28.68	3.75	-0.750			
0.8690	55616.27	3.4350	3.4348	-1.4468	28.70	3.77	-0.750			
0.8734	55895.47	3.4320	3.4322	-1.3993	28.72	3.79	-0.750			
0.8775	56162.14	3.4290	3.4288	-1.3448	28.74	3.81	-0.750			
0.8815	56416.61	3.4260	3.4263	-1.2976	28.76	3.83	-0.750	0.404	0.508	
0.8853	56661.19	3.4230	3.4230	-1.2429	28.78	3.85	-0.750			
0.8889	56892.30	3.4200	3.4198	-1.1935	28.79	3.86	-0.750			
0.8924	57113.69	3.4170	3.4171	-1.1485	28.79	3.86	-0.750			
0.8958	57332.18	3.4140	3.4139	-1.1096	28.80	3.87	-0.750			
0.8991	57539.99	3.4110	3.4110	-1.0644	28.80	3.87	-0.750			
0.9022	57740.82	3.4080	3.4080	-1.0265	28.82	3.89	-0.750	0.355	0.513	
0.9052	57931.20	3.4050	3.4049	-0.9796	28.83	3.90	-0.750			
0.9081	58115.84	3.4020	3.4019	-0.9410	28.84	3.91	-0.750			
0.9108	58292.40	3.3990	3.3992	-0.8979	28.85	3.92	-0.750			
0.9135	58463.27	3.3960	3.3959	-0.8642	28.85	3.92	-0.750			
0.9160	58624.80	3.3930	3.3930	-0.8205	28.86	3.93	-0.750			
0.9184	58776.87	3.3900	3.3899	-0.7762	28.86	3.93	-0.750			
0.9207	58922.57	3.3870	3.3871	-0.7379	28.87	3.94	-0.750	0.378	0.523	
0.9228	59060.73	3.3840	3.3840	-0.6960	28.87	3.94	-0.750			
0.9248	59189.96	3.3810	3.3809	-0.6565	28.90	3.97	-0.750			
0.9267	59311.91	3.3780	3.3780	-0.6196	28.93	4.00	-0.750			
0.9285	59425.07	3.3750	3.3750	-0.5793	28.96	4.03	-0.750			
0.9302	59532.07	3.3720	3.3721	-0.5513	28.98	4.05	-0.750			
0.9318	59635.20	3.3690	3.3690	-0.5207	28.99	4.06	-0.750			
0.9333	59732.39	3.3660	3.3659	-0.4923	29.00	4.07	-0.750			
0.9347	59823.77	3.3630	3.3630	-0.4666	29.01	4.08	-0.750			
0.9361	59910.14	3.3600	3.3601	-0.4435	29.02	4.09	-0.750			
0.9374	59992.85	3.3570	3.3570	-0.4210	29.04	4.11	-0.750			
0.9386	60071.68	3.3540	3.3539	-0.3989	29.06	4.13	-0.750			
0.9398	60144.64	3.3510	3.3510	-0.3765	29.07	4.14	-0.750			
0.9409	60216.32	3.3480	3.3485	-0.3596	29.08	4.15	-0.750	0.375	0.538	
0.9419	60283.60	3.3450	3.3449	-0.3403	29.10	4.17	-0.750			
0.9429	60346.50	3.3420	3.3419	-0.3205	29.11	4.18	-0.750			
0.9438	60405.04	3.3390	3.3391	-0.3051	29.12	4.19	-0.750			
0.9447	60460.96	3.3360	3.3360	-0.2916	29.13	4.20	-0.750			
0.9456	60515.89	3.3330	3.3329	-0.2817	29.14	4.21	-0.750			
0.9464	60568.02	3.3300	3.3300	-0.2705	29.15	4.22	-0.750			
0.9472	60619.27	3.3270	3.3271	-0.2624	29.17	4.24	-0.750			
0.9480	60669.32	3.3240	3.3239	-0.2540	29.18	4.25	-0.750			
0.9487	60717.55	3.3210	3.3208	-0.2451	29.19	4.26	-0.750			
0.9494	60763.33	3.3180	3.3180	-0.2364	29.20	4.27	-0.750			
0.9501	60807.61	3.3150	3.3151	-0.2284	29.21	4.28	-0.750			
0.9508	60850.30	3.3120	3.3120	-0.2205	29.22	4.29	-0.750			
0.9514	60891.98	3.3090	3.3088	-0.2137	29.23	4.30	-0.750			
0.9521	60931.94	3.3060	3.3060	-0.2079	29.24	4.31	-0.750			
0.9527	60970.83	3.3030	3.3031	-0.2028	29.25	4.32	-0.750			
0.9533	61009.48	3.3000	3.2998	-0.1983	29.26	4.33	-0.750			
0.9539	61047.12	3.2970	3.2971	-0.1938	29.27	4.34	-0.750			
0.9544	61083.82	3.2940	3.2940	-0.1885	29.28	4.35	-0.750			
0.9550	61119.69	3.2910	3.2910	-0.1844	29.29	4.36	-0.750			
0.9555	61154.34	3.2880	3.2881	-0.1807	29.30	4.37	-0.750			
0.9561	61188.65	3.2850	3.2849	-0.1768	29.31	4.38	-0.750			
0.9566	61221.83	3.2820	3.2820	-0.1731	29.33	4.40	-0.750			
0.9571	61254.62	3.2790	3.2790	-0.1695	29.34	4.41	-0.750			
0.9576	61287.01	3.2760	3.2760	-0.1671	29.35	4.42	-0.750			
0.9581	61318.81	3.2730	3.2731	-0.1642	29.37	4.44	-0.750			
0.9586	61350.11	3.2700	3.2700	-0.1619	29.38	4.45	-0.750			
0.9591	61380.82	3.2670	3.2668	-0.1590	29.39	4.46	-0.750			
0.9595	61410.48	3.2640	3.2642	-0.1576	29.40	4.47	-0.750			
0.9600	61441.03	3.2610	3.2609	-0.1549	29.41	4.48	-0.750			
0.9605	61470.95	3.2580	3.2579	-0.1519	29.42	4.49	-0.750			
0.9609	61500.33	3.2550	3.2554	-0.1487	29.42	4.49	-0.750	0.375	0.544	
0.9614	61528.30	3.2520	3.2521	-0.1451	29.43	4.50	-0.750			
0.9618	61555.88	3.2490	3.2489	-0.1413	29.44	4.51	-0.750			
0.9622	61581.97	3.2460	3.2460	-0.1386	29.44	4.51	-0.750			
0.9626	61607.90	3.2430	3.2429	-0.1357	29.45	4.52	-0.750			
0.9630	61634.02	3.2400	3.2400	-0.1354	29.46	4.53	-0.750			
0.9634	61659.92	3.2370	3.2370	-0.1344	29.46	4.53	-0.750			
0.9638	61685.53	3.2340	3.2341	-0.1330	29.47	4.54	-0.750			
0.9642	61711.28	3.2310	3.2309	-0.1321	29.48	4.55	-0.750			
0.9646	61736.52	3.2280	3.2280	-0.1305	29.48	4.55	-0.750			
0.9650	61761.51	3.2250	3.2250	-0.1282	29.49	4.56	-0.750			
0.9654	61785.97	3.2220	3.2220	-0.1261	29.49	4.56	-0.750			
0.9658	61810.18	3.2190	3.2191	-0.1242	29.50	4.57	-0.750			
0.9661	61833.34	3.2160	3.2161	-0.1223	29.51	4.58	-0.750			
0.9665	61856.69	3.2130	3.2129	-0.1209	29.51	4.58	-0.750			
0.9669	61879.64	3.2100	3.2101	-0.1195	29.52	4.59	-0.750			
0.9672	61902.26	3.2070	3.2069	-0.1181	29.52	4.59	-0.750			
0.9676	61925.17	3.2040	3.2040	-0.1158	29.53	4.60	-0.750			
0.9679	61947.66	3.2010	3.2009	-0.1144	29.53	4.60	-0.750			
0.9683	61969.18	3.1980	3.1981	-0.1133	29.54	4.61	-0.750			
0.9686	61990.82	3.1950	3.1951	-0.1117	29.55	4.62	-0.750			
0.9689	62011.72	3.1920	3.1919	-0.1097	29.56	4.63	-0.750			
0.9693	62032.69	3.1890	3.1888	-0.1088	29.56	4.63	-0.750			
0.9696	62053.49	3.1860	3.1861	-0.1075	29.57	4.64	-0.750			
0.9699	62074.03	3.1830	3.1831	-0.1065	29.58	4.65	-0.750			
0.9702	62094.65	3.1800	3.1800	-0.1063	29.58	4.65	-0.750			
0.9705	62114.93	3.1770	3.1770	-0.1049	29.59	4.66	-0.750			
0.9709	62134.74	3.1740	3.1739	-0.1032	29.60	4.67	-0.750			
0.9712	62154.46	3.1710	3.1710	-0.1022	29.60	4.67	-0.750			
0.9715	62174.20	3.1680	3.1681	-0.1010	29.61	4.68	-0.750			
0.9718	62193.46	3.1650	3.1650	-0.0995	29.62	4.69	-0.750			
0.9721	62212.42	3.1620	3.1620	-0.0987	29.62	4.69	-0.750			
0.9724	62231.27	3.1590	3.1590	-0.0973	29.63	4.70	-0.750			
0.9727	62249.69	3.1560	3.1559	-0.0957	29.63	4.70	-0.750			
0.9729	62267.95	3.1530	3.1531	-0.0945	29.64	4.71	-0.750			
0.9732	62285.97	3.1500	3.1501	-0.0937	29.64	4.71	-0.750			
0.9735	62303.86	3.1470	3.1472	-0.0926	29.65	4.72	-0.750			
0.9738	62321.66	3.1440	3.1439	-0.0914	29.65	4.72	-0.750			
0.9740	62339.09	3.1410	3.1409	-0.0901	29.66	4.73	-0.750			
0.9743	62356.15	3.1380	3.1381	-0.0888	29.67	4.74	-0.750			
0.9746	62373.10	3.1350	3.1351	-0.0877	29.67	4.74	-0.750			
0.9748	62389.69	3.1320	3.1321	-0.0875	29.68	4.75	-0.750			
0.9751	62406.44	3.1290	3.1289	-0.0870	29.69	4.76	-0.750			
0.9754	62423.03	3.1260	3.1260	-0.0857	29.69	4.76	-0.750			
0.9756	62439.43	3.1230	3.1229	-0.0851	29.70	4.77	-0.750			
0.9759	62456.01	3.1200	3.1201	-0.0845	29.71	4.78	-0.750			
0.9761	62472.11	3.1170	3.1171	-0.0833	29.71	4.78	-0.750			
0.9764	62488.27	3.1140	3.1141	-0.0824	29.72	4.79	-0.750			
0.9766	62503.75	3.1110	3.1108	-0.0812	29.72	4.79	-0.750			
0.9769	62518.94	3.1080	3.1081	-0.0795	29.73	4.80	-0.750			
0.9771	62534.12	3.1050	3.1051	-0.0788	29.73	4.80	-0.750			
0.9773	62549.16	3.1020	3.1020	-0.0780	29.74	4.81	-0.750			
0.9776	62564.05	3.0990	3.0990	-0.0772	29.75	4.82	-0.750			
0.9778	62578.80	3.0960	3.0960	-0.0764	29.75	4.82	-0.750			
0.9780	62593.39	3.0930	3.0930	-0.0756	29.76	4.83	-0.750			
0.9782	62607.84	3.0900	3.0900	-0.0749	29.77	4.84	-0.750			
0.9785	62622.16	3.0870	3.0870	-0.0741	29.78	4.85	-0.750			
0.9787	62636.33	3.0840	3.0841	-0.0733	29.79	4.86	-0.750			
0.9789	62650.31	3.0810	3.0809	-0.0725	29.79	4.86	-0.750			
0.9791	62664.15	3.0780	3.0781	-0.0717	29.80	4.87	-0.750			
0.9793	62677.83	3.0750	3.0750	-0.0709	29.81	4.88	-0.750			
0.9795	62690.80	3.0720	3.0722	-0.0721	29.82	4.89	-0.750			
0.9798	62704.11	3.0690	3.0691	-0.0715	29.83	4.90	-0.750			
0.9800	62717.96	3.0660	3.0660	-0.0728	29.83	4.90	-0.750			
0.9802	62732.65	3.0630	3.0627	-0.0709	29.84	4.91	-0.750			
0.9804	62746.72	3.0600	3.0594	-0.0710	29.85	4.92	-0.750			
0.9806	62760.59	3.0570	3.0563	-0.0692	29.86	4.93	-0.750			
0.9808	62773.73	3.0540	3.0572	-0.0676	29.87	4.94	-0.750	0.371	0.569	
0.9811	62787.64	3.0510	3.0512	-0.0666	29.88	4.95	-0.750			
0.9812	62799.42	3.0480	3.0480	-0.0658	29.88	4.95	-0.750			
0.9814	62810.92	3.0450	3.0449	-0.0621	29.89	4.96	-0.750			
0.9816	62822.82	3.0420	3.0419	-0.0619	29.90	4.97	-0.750			
0.9818	62834.73	3.0390	3.0390	-0.0616	29.91	4.98	-0.750			
0.9820	62846.48	3.0360	3.0360	-0.0612	29.91	4.98	-0.750			
0.9822	62858.21	3.0330	3.0331	-0.0610	29.92	4.99	-0.750			
0.9823	62869.98	3.0300	3.0301	-0.0605	29.93	5.00	-0.750			
0.9825	62881.72	3.0270	3.0270	-0.0604	29.94	5.01	-0.750			
0.9827	62893.27	3.0240	3.0239	-0.0599	29.94	5.01	-0.750			
0.9829	62904.71	3.0210	3.0210	-0.0593	29.95	5.02	-0.750			
0.9831	62915.93	3.0180	3.0180	-0.0590	29.96	5.03	-0.750			
0.9832	62927.23	3.0150	3.0151	-0.0587	29.97	5.04	-0.750			
0.9834	62938.47	3.0120	3.0120	-0.0584	29.97	5.04	-0.750			
0.9836	62949.54	3.0090	3.0089	-0.0582	29.98	5.05	-0.750			
0.9838	62960.71	3.0060	3.0060	-0.0581	29.99	5.06	-0.750			
0.9839	62971.85	3.0030	3.0030	-0.0580	29.99	5.06	-0.750			
