Ah_balance (normalized)	Ah_balance (mAh)	Voltage - fit (V)	Voltage -  interpolate (V)	dQ/dV (1/V)	Temperature (°C)	Temperature - diff (°C)	Current (C)	R_DC 0ms (mOhm)	R_DC 50ms (mOhm)	R_DC 50 ms PEC (mOhm)
-0.0071	-451.58	4.1990	4.1989	0.7858	24.04	0.00	0.050			
-0.0063	-401.15	4.1980	4.1981	0.7904	24.10	0.06	0.050			
-0.0055	-350.99	4.1970	4.1970	0.7889	24.16	0.12	0.050			
-0.0047	-300.51	4.1960	4.1961	0.7940	24.25	0.21	0.050			
-0.0039	-249.18	4.1950	4.1950	0.8012	24.33	0.29	0.050			
-0.0031	-197.35	4.1940	4.1939	0.8078	24.43	0.39	0.050			
-0.0023	-145.59	4.1930	4.1930	0.8133	24.52	0.48	0.050			
-0.0014	-92.34	4.1920	4.1918	0.8176	24.64	0.60	0.050			
-0.0006	-39.50	4.1910	4.1909	0.8208	24.76	0.72	0.050			
0.0002	13.22	4.1900	4.1900	0.8241	24.88	0.84	0.050			
0.0010	66.33	4.1890	4.1890	0.8276	25.01	0.97	0.050			
0.0019	119.41	4.1880	4.1879	0.8298	25.15	1.11	0.050			
0.0027	172.71	4.1870	4.1872	0.8342	25.27	1.23	0.050			
0.0035	226.64	4.1860	4.1861	0.8372	25.41	1.37	0.050			
0.0044	280.69	4.1850	4.1850	0.8402	25.56	1.52	0.050			
0.0052	334.13	4.1840	4.1841	0.8436	25.70	1.66	0.050			
0.0061	388.06	4.1830	4.1830	0.8466	25.84	1.80	0.050			
0.0069	442.28	4.1820	4.1820	0.8495	25.97	1.93	0.050			
0.0078	497.41	4.1810	4.1810	0.8510	26.10	2.06	0.050			
0.0086	551.68	4.1800	4.1799	0.8525	26.20	2.16	0.050			
0.0095	605.44	4.1790	4.1791	0.8573	26.31	2.27	0.050			
0.0103	660.05	4.1780	4.1779	0.8605	26.39	2.35	0.050			
0.0112	714.60	4.1770	4.1770	0.8616	26.46	2.42	0.050			
0.0120	770.78	4.1760	4.1761	0.8636	26.51	2.47	0.050			
0.0129	826.20	4.1750	4.1749	0.8662	26.50	2.46	0.050			
0.0138	881.98	4.1740	4.1740	0.8689	26.46	2.42	0.050			
0.0147	938.52	4.1730	4.1730	0.8722	26.39	2.35	0.050			
0.0155	995.08	4.1720	4.1720	0.8744	26.33	2.29	0.050			
0.0164	1051.80	4.1710	4.1709	0.8743	26.29	2.25	0.050			
0.0173	1107.74	4.1700	4.1699	0.8738	26.23	2.19	0.050			
0.0182	1163.70	4.1690	4.1691	0.8742	26.18	2.14	0.050			
0.0191	1219.45	4.1680	4.1682	0.8757	26.12	2.08	0.050			
0.0199	1275.66	4.1670	4.1670	0.8752	26.07	2.03	0.050			
0.0208	1331.56	4.1660	4.1661	0.8766	26.01	1.97	0.050			
0.0217	1387.69	4.1650	4.1648	0.8769	25.94	1.90	0.050			
0.0226	1443.27	4.1640	4.1640	0.8761	25.89	1.85	0.050			
0.0234	1499.49	4.1630	4.1630	0.8758	25.83	1.79	0.050			
0.0243	1555.59	4.1620	4.1620	0.8768	25.78	1.74	0.050			
0.0252	1611.64	4.1610	4.1609	0.8783	25.73	1.69	0.050			
0.0261	1667.27	4.1600	4.1600	0.8788	25.68	1.64	0.050			
0.0269	1722.98	4.1590	4.1590	0.8769	25.62	1.58	0.050			
0.0278	1779.56	4.1580	4.1581	0.8780	25.57	1.53	0.050			
0.0287	1836.39	4.1570	4.1569	0.8794	25.51	1.47	0.050			
0.0296	1893.43	4.1560	4.1560	0.8801	25.45	1.41	0.050			
0.0305	1950.00	4.1550	4.1550	0.8792	25.39	1.35	0.050			
0.0313	2006.13	4.1540	4.1540	0.8794	25.33	1.29	0.050			
0.0322	2062.65	4.1530	4.1530	0.8789	25.28	1.24	0.050			
0.0331	2119.34	4.1520	4.1519	0.8791	25.22	1.18	0.050			
0.0340	2176.07	4.1510	4.1510	0.8782	25.18	1.14	0.050			
0.0349	2232.13	4.1500	4.1501	0.8755	25.12	1.08	0.050			
0.0358	2288.24	4.1490	4.1490	0.8730	25.07	1.03	0.050			
0.0366	2343.67	4.1480	4.1480	0.8713	25.02	0.98	0.050			
0.0375	2399.22	4.1470	4.1471	0.8701	24.97	0.93	0.050			
0.0384	2454.76	4.1460	4.1460	0.8700	24.93	0.89	0.050			
0.0392	2510.27	4.1450	4.1449	0.8685	24.88	0.84	0.050			
0.0401	2566.08	4.1440	4.1441	0.8670	24.84	0.80	0.050			
0.0410	2621.30	4.1430	4.1431	0.8661	24.79	0.75	0.050			
0.0418	2676.20	4.1420	4.1421	0.8667	24.74	0.70	0.050			
0.0427	2731.02	4.1410	4.1409	0.8655	24.71	0.67	0.050			
0.0435	2786.58	4.1400	4.1399	0.8645	24.66	0.62	0.050			
0.0444	2841.97	4.1390	4.1389	0.8657	24.63	0.59	0.050			
0.0453	2897.42	4.1380	4.1379	0.8666	24.60	0.56	0.050			
0.0461	2952.56	4.1370	4.1370	0.8662	24.55	0.51	0.050	0.402	0.474	
0.0470	3008.54	4.1360	4.1360	0.8657	24.51	0.47	0.050			
0.0479	3064.34	4.1350	4.1348	0.8646	24.46	0.42	0.050			
0.0487	3119.57	4.1340	4.1340	0.8629	24.42	0.38	0.050			
0.0496	3174.91	4.1330	4.1330	0.8621	24.38	0.34	0.050			
0.0505	3230.88	4.1320	4.1321	0.8616	24.34	0.30	0.050			
0.0514	3286.45	4.1310	4.1310	0.8606	24.30	0.26	0.050			
0.0522	3341.63	4.1300	4.1299	0.8590	24.25	0.21	0.050			
0.0531	3396.44	4.1290	4.1290	0.8575	24.21	0.17	0.050			
0.0539	3451.33	4.1280	4.1282	0.8544	24.17	0.13	0.050			
0.0548	3505.18	4.1270	4.1272	0.8523	24.13	0.09	0.050			
0.0556	3560.20	4.1260	4.1261	0.8508	24.10	0.06	0.050			
0.0565	3614.74	4.1250	4.1250	0.8477	24.07	0.03	0.050			
0.0573	3668.87	4.1240	4.1241	0.8470	24.03	-0.01	0.050			
0.0582	3722.49	4.1230	4.1230	0.8441	23.99	-0.05	0.050			
0.0590	3776.14	4.1220	4.1221	0.8418	23.97	-0.07	0.050			
0.0599	3830.50	4.1210	4.1210	0.8392	23.95	-0.09	0.050			
0.0607	3883.71	4.1200	4.1199	0.8387	23.93	-0.11	0.050			
0.0615	3937.47	4.1190	4.1190	0.8366	23.92	-0.12	0.050			
0.0623	3990.38	4.1180	4.1179	0.8350	23.91	-0.13	0.050			
0.0632	4044.04	4.1170	4.1170	0.8338	23.90	-0.14	0.050			
0.0640	4098.16	4.1160	4.1161	0.8316	23.91	-0.13	0.050			
0.0649	4151.86	4.1150	4.1148	0.8291	23.92	-0.12	0.050			
0.0657	4204.36	4.1140	4.1142	0.8282	23.94	-0.10	0.050			
0.0665	4257.05	4.1130	4.1130	0.8260	23.97	-0.07	0.050			
0.0673	4310.07	4.1120	4.1119	0.8235	24.00	-0.04	0.050			
0.0682	4362.79	4.1110	4.1108	0.8221	24.05	0.01	0.050			
0.0690	4414.98	4.1100	4.1102	0.8194	24.10	0.06	0.050			
0.0698	4466.45	4.1090	4.1090	0.8199	24.16	0.12	0.050			
0.0706	4518.64	4.1080	4.1082	0.8194	24.22	0.18	0.050			
0.0714	4570.00	4.1070	4.1070	0.8210	24.30	0.26	0.050			
0.0722	4622.29	4.1060	4.1059	0.8222	24.37	0.33	0.050			
0.0730	4675.15	4.1050	4.1048	0.8235	24.45	0.41	0.050			
0.0739	4727.45	4.1040	4.1041	0.8246	24.55	0.51	0.050			
0.0747	4780.23	4.1030	4.1030	0.8245	24.65	0.61	0.050			
0.0755	4833.02	4.1020	4.1019	0.8255	24.77	0.73	0.050			
0.0763	4885.78	4.1010	4.1009	0.8281	24.88	0.84	0.050			
0.0772	4937.78	4.1000	4.0999	0.8310	25.00	0.96	0.050			
0.0780	4991.13	4.0990	4.0989	0.8348	25.12	1.08	0.050			
0.0788	5044.83	4.0980	4.0980	0.8377	25.25	1.21	0.050			
0.0797	5098.79	4.0970	4.0972	0.8413	25.38	1.34	0.050			
0.0805	5153.13	4.0960	4.0961	0.8452	25.50	1.46	0.050			
0.0814	5207.93	4.0950	4.0950	0.8469	25.63	1.59	0.050			
0.0822	5261.88	4.0940	4.0940	0.8472	25.76	1.72	0.050			
0.0831	5316.62	4.0930	4.0929	0.8498	25.87	1.83	0.050			
0.0839	5371.64	4.0920	4.0918	0.8531	25.98	1.94	0.050			
0.0848	5426.43	4.0910	4.0910	0.8535	26.08	2.04	0.050			
0.0856	5480.81	4.0900	4.0901	0.8544	26.17	2.13	0.050	-0.021	0.415	
0.0865	5535.06	4.0890	4.0891	0.8551	26.25	2.21	0.050			
0.0873	5589.62	4.0880	4.0879	0.8572	26.31	2.27	0.050			
0.0882	5644.69	4.0870	4.0871	0.8583	26.32	2.28	0.050			
0.0891	5700.24	4.0860	4.0860	0.8599	26.30	2.26	0.050			
0.0899	5755.69	4.0850	4.0850	0.8616	26.26	2.22	0.050			
0.0908	5811.17	4.0840	4.0838	0.8624	26.22	2.18	0.050			
0.0917	5866.34	4.0830	4.0828	0.8634	26.17	2.13	0.050			
0.0925	5921.30	4.0820	4.0820	0.8653	26.13	2.09	0.050			
0.0934	5976.19	4.0810	4.0810	0.8652	26.09	2.05	0.050			
0.0942	6031.10	4.0800	4.0799	0.8649	26.03	1.99	0.050			
0.0951	6086.83	4.0790	4.0791	0.8668	25.98	1.94	0.050			
0.0960	6142.25	4.0780	4.0780	0.8697	25.93	1.89	0.050			
0.0968	6198.10	4.0770	4.0770	0.8702	25.88	1.84	0.050			
0.0977	6254.19	4.0760	4.0761	0.8710	25.82	1.78	0.050			
0.0986	6310.36	4.0750	4.0750	0.8725	25.78	1.74	0.050			
0.0995	6366.09	4.0740	4.0740	0.8751	25.73	1.69	0.050			
0.1003	6421.74	4.0730	4.0730	0.8761	25.67	1.63	0.050			
0.1012	6477.81	4.0720	4.0721	0.8766	25.61	1.57	0.050			
0.1021	6534.48	4.0710	4.0710	0.8767	25.57	1.53	0.050			
0.1030	6590.99	4.0700	4.0700	0.8752	25.52	1.48	0.050			
0.1039	6647.07	4.0690	4.0689	0.8747	25.46	1.42	0.050			
0.1047	6703.43	4.0680	4.0681	0.8753	25.42	1.38	0.050			
0.1056	6760.03	4.0670	4.0670	0.8743	25.37	1.33	0.050			
0.1065	6816.64	4.0660	4.0659	0.8726	25.32	1.28	0.050			
0.1074	6871.94	4.0650	4.0650	0.8726	25.28	1.24	0.050			
0.1082	6927.28	4.0640	4.0641	0.8724	25.23	1.19	0.050			
0.1091	6982.81	4.0630	4.0631	0.8726	25.18	1.14	0.050			
0.1100	7038.01	4.0620	4.0620	0.8722	25.13	1.09	0.050			
0.1108	7093.52	4.0610	4.0610	0.8735	25.08	1.04	0.050			
0.1117	7149.72	4.0600	4.0598	0.8729	25.03	0.99	0.050			
0.1126	7205.50	4.0590	4.0590	0.8733	24.99	0.95	0.050			
0.1135	7261.16	4.0580	4.0581	0.8722	24.93	0.89	0.050			
0.1143	7317.19	4.0570	4.0569	0.8735	24.88	0.84	0.050			
0.1152	7373.23	4.0560	4.0559	0.8743	24.85	0.81	0.050			
0.1161	7428.85	4.0550	4.0550	0.8724	24.80	0.76	0.050			
0.1169	7484.44	4.0540	4.0541	0.8732	24.74	0.70	0.050			
0.1178	7540.61	4.0530	4.0531	0.8747	24.69	0.65	0.050			
0.1187	7597.49	4.0520	4.0520	0.8749	24.65	0.61	0.050			
0.1196	7653.71	4.0510	4.0512	0.8761	24.61	0.57	0.050			
0.1205	7709.40	4.0500	4.0501	0.8795	24.56	0.52	0.050			
0.1213	7765.46	4.0490	4.0490	0.8790	24.52	0.48	0.050			
0.1222	7821.58	4.0480	4.0482	0.8807	24.47	0.43	0.050			
0.1231	7877.97	4.0470	4.0468	0.8822	24.42	0.38	0.050			
0.1240	7934.30	4.0460	4.0460	0.8814	24.39	0.35	0.050			
0.1249	7991.21	4.0450	4.0449	0.8765	24.35	0.31	0.050			
0.1257	8047.45	4.0440	4.0439	0.8756	24.30	0.26	0.050	0.341	0.557	
0.1266	8103.88	4.0430	4.0429	0.8752	24.25	0.21	0.050			
0.1275	8160.07	4.0420	4.0420	0.8757	24.19	0.15	0.050			
0.1284	8216.03	4.0410	4.0410	0.8739	24.14	0.10	0.050			
0.1293	8272.83	4.0400	4.0401	0.8741	24.09	0.05	0.050			
0.1301	8328.89	4.0390	4.0391	0.8747	24.05	0.01	0.050			
0.1310	8384.93	4.0380	4.0380	0.8716	24.00	-0.04	0.050			
0.1319	8440.99	4.0370	4.0370	0.8711	23.95	-0.09	0.050			
0.1328	8496.36	4.0360	4.0362	0.8682	23.92	-0.12	0.050			
0.1336	8552.70	4.0350	4.0349	0.8634	23.89	-0.15	0.050			
0.1345	8607.70	4.0340	4.0339	0.8604	23.84	-0.20	0.050			
0.1354	8662.41	4.0330	4.0329	0.8574	23.82	-0.22	0.050			
0.1362	8717.19	4.0320	4.0321	0.8555	23.80	-0.24	0.050			
0.1371	8771.47	4.0310	4.0311	0.8524	23.78	-0.26	0.050			
0.1379	8824.64	4.0300	4.0300	0.8497	23.76	-0.28	0.050			
0.1387	8878.91	4.0290	4.0290	0.8495	23.76	-0.28	0.050			
0.1396	8933.49	4.0280	4.0279	0.8481	23.76	-0.28	0.050			
0.1404	8987.90	4.0270	4.0270	0.8477	23.78	-0.26	0.050			
0.1413	9041.55	4.0260	4.0261	0.8499	23.78	-0.26	0.050			
0.1421	9096.07	4.0250	4.0248	0.8518	23.82	-0.22	0.050			
0.1430	9150.55	4.0240	4.0240	0.8510	23.84	-0.20	0.050			
0.1438	9204.72	4.0230	4.0230	0.8486	23.89	-0.15	0.050			
0.1447	9258.85	4.0220	4.0220	0.8461	23.95	-0.09	0.050			
0.1455	9312.93	4.0210	4.0210	0.8468	24.02	-0.02	0.050	0.047	0.298	
0.1464	9366.59	4.0200	4.0200	0.8497	24.09	0.05	0.050			
0.1472	9420.18	4.0190	4.0191	0.8517	24.15	0.11	0.050			
0.1480	9474.29	4.0180	4.0180	0.8550	24.25	0.21	0.050			
0.1489	9529.09	4.0170	4.0169	0.8583	24.35	0.31	0.050			
0.1498	9584.19	4.0160	4.0162	0.8612	24.45	0.41	0.050			
0.1506	9640.19	4.0150	4.0151	0.8629	24.57	0.53	0.050			
0.1515	9695.65	4.0140	4.0140	0.8625	24.70	0.66	0.050			
0.1524	9750.64	4.0130	4.0129	0.8649	24.83	0.79	0.050			
0.1532	9805.65	4.0120	4.0119	0.8678	24.98	0.94	0.050			
0.1541	9860.48	4.0110	4.0110	0.8726	25.12	1.08	0.050			
0.1550	9917.59	4.0100	4.0101	0.8745	25.28	1.24	0.050			
0.1558	9972.93	4.0090	4.0091	0.8780	25.44	1.40	0.050			
0.1567	10029.31	4.0080	4.0080	0.8831	25.58	1.54	0.050			
0.1576	10085.12	4.0070	4.0072	0.8885	25.73	1.69	0.050			
0.1585	10141.28	4.0060	4.0060	0.8916	25.89	1.85	0.050			
0.1594	10198.68	4.0050	4.0051	0.8977	26.02	1.98	0.050			
0.1603	10256.78	4.0040	4.0038	0.9031	26.16	2.12	0.050			
0.1612	10315.59	4.0030	4.0030	0.9072	26.26	2.22	0.050			
0.1621	10373.75	4.0020	4.0020	0.9102	26.36	2.32	0.050			
0.1630	10431.56	4.0010	4.0011	0.9137	26.45	2.41	0.050			
0.1639	10489.27	4.0000	4.0000	0.9176	26.50	2.46	0.050			
0.1648	10547.83	3.9990	3.9990	0.9232	26.51	2.47	0.050			
0.1657	10607.74	3.9980	3.9981	0.9289	26.47	2.43	0.050	0.051	0.338	
0.1667	10668.01	3.9970	3.9971	0.9332	26.41	2.37	0.050			
0.1676	10728.94	3.9960	3.9961	0.9356	26.36	2.32	0.050			
0.1686	10791.00	3.9950	3.9951	0.9361	26.29	2.25	0.050			
0.1696	10851.49	3.9940	3.9940	0.9370	26.24	2.20	0.050			
0.1705	10911.20	3.9930	3.9928	0.9362	26.16	2.12	0.050			
0.1714	10970.91	3.9920	3.9919	0.9357	26.11	2.07	0.050			
0.1724	11031.39	3.9910	3.9909	0.9363	26.04	2.00	0.050			
0.1733	11091.69	3.9900	3.9902	0.9369	25.98	1.94	0.050			
0.1742	11151.05	3.9890	3.9891	0.9358	25.94	1.90	0.050			
0.1752	11210.83	3.9880	3.9882	0.9344	25.87	1.83	0.050			
0.1761	11270.23	3.9870	3.9871	0.9350	25.80	1.76	0.050			
0.1770	11330.48	3.9860	3.9858	0.9344	25.74	1.70	0.050			
0.1780	11390.22	3.9850	3.9849	0.9348	25.68	1.64	0.050			
0.1789	11449.62	3.9840	3.9840	0.9376	25.62	1.58	0.050			
0.1798	11508.92	3.9830	3.9830	0.9383	25.56	1.52	0.050			
0.1808	11568.04	3.9820	3.9821	0.9398	25.50	1.46	0.050			
0.1817	11626.86	3.9810	3.9810	0.9416	25.45	1.41	0.050			
0.1826	11686.37	3.9800	3.9801	0.9442	25.39	1.35	0.050			
0.1836	11747.22	3.9790	3.9791	0.9480	25.33	1.29	0.050			
0.1845	11808.67	3.9780	3.9779	0.9526	25.27	1.23	0.050			
0.1855	11870.31	3.9770	3.9770	0.9564	25.20	1.16	0.050	0.138	0.268	
0.1864	11932.41	3.9760	3.9759	0.9596	25.15	1.11	0.050			
0.1874	11995.25	3.9750	3.9750	0.9590	25.08	1.04	0.050			
0.1884	12056.36	3.9740	3.9740	0.9581	25.01	0.97	0.050			
0.1893	12118.35	3.9730	3.9730	0.9579	24.96	0.92	0.050			
0.1903	12179.66	3.9720	3.9720	0.9593	24.91	0.87	0.050			
0.1913	12241.78	3.9710	3.9710	0.9605	24.85	0.81	0.050			
0.1922	12303.73	3.9700	3.9701	0.9592	24.79	0.75	0.050			
0.1932	12365.62	3.9690	3.9690	0.9582	24.73	0.69	0.050			
0.1942	12426.89	3.9680	3.9679	0.9569	24.68	0.64	0.050			
0.1951	12488.18	3.9670	3.9670	0.9573	24.62	0.58	0.050			
0.1961	12548.69	3.9660	3.9660	0.9603	24.57	0.53	0.050			
0.1970	12608.80	3.9650	3.9649	0.9592	24.51	0.47	0.050			
0.1980	12670.16	3.9640	3.9639	0.9561	24.46	0.42	0.050			
0.1989	12731.69	3.9630	3.9630	0.9530	24.41	0.37	0.050			
0.1999	12792.71	3.9620	3.9622	0.9520	24.35	0.31	0.050			
0.2008	12853.44	3.9610	3.9611	0.9505	24.30	0.26	0.050			
0.2018	12914.19	3.9600	3.9599	0.9501	24.25	0.21	0.050			
0.2027	12975.48	3.9590	3.9590	0.9512	24.19	0.15	0.050			
0.2037	13037.21	3.9580	3.9581	0.9486	24.14	0.10	0.050			
0.2047	13098.39	3.9570	3.9570	0.9473	24.08	0.04	0.050			
0.2056	13158.88	3.9560	3.9562	0.9476	24.03	-0.01	0.050	0.398	0.532	
0.2066	13220.11	3.9550	3.9552	0.9476	23.98	-0.06	0.050			
0.2075	13280.65	3.9540	3.9538	0.9442	23.94	-0.10	0.050			
0.2085	13341.14	3.9530	3.9529	0.9407	23.89	-0.15	0.050			
0.2094	13400.29	3.9520	3.9522	0.9397	23.85	-0.19	0.050			
0.2103	13460.91	3.9510	3.9509	0.9385	23.82	-0.22	0.050			
0.2113	13521.18	3.9500	3.9501	0.9356	23.79	-0.25	0.050			
0.2122	13581.62	3.9490	3.9490	0.9291	23.78	-0.26	0.050			
0.2131	13640.60	3.9480	3.9480	0.9232	23.76	-0.28	0.050			
0.2141	13699.54	3.9470	3.9468	0.9188	23.75	-0.29	0.050			
0.2150	13758.19	3.9460	3.9461	0.9138	23.76	-0.28	0.050			
0.2159	13816.96	3.9450	3.9451	0.9122	23.77	-0.27	0.050			
0.2168	13875.74	3.9440	3.9440	0.9111	23.79	-0.25	0.050			
0.2177	13933.84	3.9430	3.9429	0.9110	23.82	-0.22	0.050			
0.2186	13991.37	3.9420	3.9421	0.9065	23.86	-0.18	0.050			
0.2195	14049.42	3.9410	3.9412	0.9036	23.92	-0.12	0.050			
0.2204	14106.69	3.9400	3.9400	0.8999	23.98	-0.06	0.050			
0.2213	14163.33	3.9390	3.9391	0.8999	24.07	0.03	0.050			
0.2222	14220.60	3.9380	3.9379	0.8993	24.14	0.10	0.050			
0.2231	14277.63	3.9370	3.9369	0.8986	24.24	0.20	0.050			
0.2240	14333.95	3.9360	3.9359	0.8951	24.35	0.31	0.050			
0.2249	14390.81	3.9350	3.9350	0.8970	24.47	0.43	0.050			
0.2258	14448.01	3.9340	3.9340	0.8987	24.60	0.56	0.050			
0.2266	14505.16	3.9330	3.9332	0.9023	24.74	0.70	0.050			
0.2275	14561.88	3.9320	3.9321	0.9036	24.90	0.86	0.050			
0.2284	14619.99	3.9310	3.9309	0.9088	25.05	1.01	0.050			
0.2294	14679.09	3.9300	3.9299	0.9135	25.21	1.17	0.050			
0.2303	14738.22	3.9290	3.9290	0.9176	25.37	1.33	0.050			
0.2312	14797.19	3.9280	3.9281	0.9199	25.53	1.49	0.050			
0.2321	14855.84	3.9270	3.9271	0.9221	25.70	1.66	0.050			
0.2331	14915.26	3.9260	3.9259	0.9226	25.86	1.82	0.050			
0.2340	14974.57	3.9250	3.9249	0.9229	26.01	1.97	0.050			
0.2349	15034.21	3.9240	3.9239	0.9231	26.17	2.13	0.050			
0.2358	15093.90	3.9230	3.9230	0.9233	26.30	2.26	0.050			
0.2368	15153.11	3.9220	3.9220	0.9281	26.42	2.38	0.050			
0.2377	15212.93	3.9210	3.9211	0.9295	26.52	2.48	0.050			
0.2386	15272.69	3.9200	3.9199	0.9300	26.59	2.55	0.050			
0.2396	15331.98	3.9190	3.9191	0.9290	26.64	2.60	0.050			
0.2405	15391.75	3.9180	3.9179	0.9286	26.63	2.59	0.050			
0.2414	15452.10	3.9170	3.9171	0.9284	26.58	2.54	0.050			
0.2424	15511.58	3.9160	3.9158	0.9268	26.52	2.48	0.050			
0.2433	15570.11	3.9150	3.9150	0.9260	26.45	2.41	0.050			
0.2442	15629.32	3.9140	3.9140	0.9249	26.38	2.34	0.050			
0.2451	15687.91	3.9130	3.9128	0.9246	26.33	2.29	0.050			
0.2460	15747.04	3.9120	3.9119	0.9241	26.27	2.23	0.050	0.399	0.491	
0.2470	15806.83	3.9110	3.9110	0.9222	26.20	2.16	0.050			
0.2479	15866.44	3.9100	3.9100	0.9212	26.14	2.10	0.050			
0.2488	15925.43	3.9090	3.9090	0.9185	26.06	2.02	0.050			
0.2498	15984.59	3.9080	3.9081	0.9174	26.00	1.96	0.050			
0.2507	16043.18	3.9070	3.9069	0.9154	25.94	1.90	0.050			
0.2516	16101.80	3.9060	3.9058	0.9146	25.87	1.83	0.050			
0.2525	16160.63	3.9050	3.9052	0.9123	25.80	1.76	0.050			
0.2534	16218.81	3.9040	3.9040	0.9098	25.74	1.70	0.050			
0.2543	16277.10	3.9030	3.9030	0.9067	25.68	1.64	0.050			
0.2552	16334.27	3.9020	3.9021	0.9007	25.62	1.58	0.050			
0.2561	16392.61	3.9010	3.9008	0.8994	25.56	1.52	0.050			
0.2570	16450.33	3.9000	3.8999	0.8975	25.49	1.45	0.050			
0.2579	16507.64	3.8990	3.8990	0.8966	25.44	1.40	0.050			
0.2588	16564.74	3.8980	3.8981	0.8941	25.36	1.32	0.050			
0.2597	16621.69	3.8970	3.8970	0.8922	25.31	1.27	0.050			
0.2606	16678.62	3.8960	3.8960	0.8893	25.25	1.21	0.050			
0.2615	16734.65	3.8950	3.8950	0.8857	25.20	1.16	0.050			
0.2624	16791.49	3.8940	3.8941	0.8840	25.15	1.11	0.050			
0.2633	16848.04	3.8930	3.8930	0.8816	25.08	1.04	0.050			
0.2641	16904.71	3.8920	3.8920	0.8794	25.03	0.99	0.050			
0.2650	16961.73	3.8910	3.8909	0.8778	24.98	0.94	0.050			
0.2659	17017.90	3.8900	3.8900	0.8740	24.91	0.87	0.050	0.215	0.354	
0.2668	17073.61	3.8890	3.8891	0.8708	24.86	0.82	0.050			
0.2676	17129.24	3.8880	3.8881	0.8677	24.82	0.78	0.050			
0.2685	17184.43	3.8870	3.8869	0.8647	24.77	0.73	0.050			
0.2694	17239.15	3.8860	3.8861	0.8649	24.71	0.67	0.050			
0.2702	17293.99	3.8850	3.8850	0.8640	24.68	0.64	0.050			
0.2711	17349.41	3.8840	3.8840	0.8630	24.62	0.58	0.050			
0.2719	17404.22	3.8830	3.8830	0.8632	24.57	0.53	0.050			
0.2728	17459.57	3.8820	3.8819	0.8622	24.53	0.49	0.050			
0.2737	17514.54	3.8810	3.8809	0.8587	24.48	0.44	0.050			
0.2745	17570.02	3.8800	3.8801	0.8557	24.44	0.40	0.050			
0.2754	17624.22	3.8790	3.8790	0.8531	24.39	0.35	0.050			
0.2762	17678.89	3.8780	3.8778	0.8515	24.34	0.30	0.050			
0.2771	17733.60	3.8770	3.8770	0.8505	24.30	0.26	0.050			
0.2779	17788.20	3.8760	3.8762	0.8484	24.26	0.22	0.050			
0.2788	17842.83	3.8750	3.8751	0.8467	24.22	0.18	0.050			
0.2797	17897.67	3.8740	3.8739	0.8441	24.17	0.13	0.050			
0.2805	17952.46	3.8730	3.8731	0.8397	24.14	0.10	0.050			
0.2813	18006.31	3.8720	3.8721	0.8367	24.10	0.06	0.050			
0.2822	18059.55	3.8710	3.8708	0.8355	24.07	0.03	0.050			
0.2830	18112.63	3.8700	3.8699	0.8325	24.03	-0.01	0.050			
0.2838	18165.97	3.8690	3.8689	0.8282	24.00	-0.04	0.050			
0.2847	18218.61	3.8680	3.8680	0.8232	23.98	-0.06	0.050			
0.2855	18271.15	3.8670	3.8670	0.8176	23.96	-0.08	0.050			
0.2863	18323.00	3.8660	3.8660	0.8103	23.94	-0.10	0.050	0.326	0.531	
0.2871	18374.91	3.8650	3.8650	0.8077	23.92	-0.12	0.050			
0.2879	18426.40	3.8640	3.8639	0.8033	23.91	-0.13	0.050			
0.2887	18477.56	3.8630	3.8629	0.8006	23.91	-0.13	0.050			
0.2895	18528.62	3.8620	3.8621	0.7990	23.90	-0.14	0.050			
0.2903	18579.45	3.8610	3.8610	0.7982	23.92	-0.12	0.050			
0.2911	18629.86	3.8600	3.8601	0.7962	23.93	-0.11	0.050			
0.2919	18680.19	3.8590	3.8591	0.7941	23.95	-0.09	0.050			
0.2927	18730.31	3.8580	3.8581	0.7924	23.98	-0.06	0.050			
0.2934	18780.73	3.8570	3.8569	0.7903	24.02	-0.02	0.050			
0.2942	18831.37	3.8560	3.8558	0.7904	24.06	0.02	0.050			
0.2950	18881.97	3.8550	3.8550	0.7891	24.12	0.08	0.050			
0.2958	18932.13	3.8540	3.8539	0.7890	24.17	0.13	0.050			
0.2966	18982.02	3.8530	3.8529	0.7905	24.23	0.19	0.050			
0.2974	19032.19	3.8520	3.8520	0.7916	24.31	0.27	0.050			
0.2982	19082.62	3.8510	3.8511	0.7888	24.39	0.35	0.050			
0.2990	19133.26	3.8500	3.8501	0.7909	24.48	0.44	0.050			
0.2998	19184.72	3.8490	3.8490	0.7912	24.57	0.53	0.050			
0.3006	19236.23	3.8480	3.8480	0.7924	24.67	0.63	0.050			
0.3014	19287.10	3.8470	3.8471	0.7927	24.79	0.75	0.050			
0.3022	19338.02	3.8460	3.8461	0.7931	24.91	0.87	0.050			
0.3029	19388.50	3.8450	3.8449	0.7916	25.02	0.98	0.050			
0.3037	19439.15	3.8440	3.8440	0.7914	25.15	1.11	0.050			
0.3045	19489.43	3.8430	3.8430	0.7921	25.29	1.25	0.050			
0.3053	19539.68	3.8420	3.8422	0.7915	25.41	1.37	0.050			
0.3061	19590.13	3.8410	3.8412	0.7928	25.54	1.50	0.050	0.292	0.430	
0.3069	19639.97	3.8400	3.8401	0.7949	25.67	1.63	0.050			
0.3077	19690.91	3.8390	3.8391	0.7980	25.80	1.76	0.050			
0.3085	19741.27	3.8380	3.8378	0.8005	25.92	1.88	0.050			
0.3093	19792.40	3.8370	3.8370	0.8042	26.04	2.00	0.050			
0.3101	19844.11	3.8360	3.8360	0.8071	26.15	2.11	0.050			
0.3109	19895.49	3.8350	3.8349	0.8087	26.25	2.21	0.050			
0.3117	19947.25	3.8340	3.8340	0.8103	26.34	2.30	0.050			
0.3125	19999.18	3.8330	3.8330	0.8124	26.41	2.37	0.050			
0.3133	20051.38	3.8320	3.8319	0.8145	26.47	2.43	0.050			
0.3141	20104.93	3.8310	3.8308	0.8206	26.50	2.46	0.050			
0.3150	20157.70	3.8300	3.8300	0.8218	26.48	2.44	0.050			
0.3158	20210.88	3.8290	3.8291	0.8244	26.44	2.40	0.050			
0.3166	20263.57	3.8280	3.8281	0.8247	26.39	2.35	0.050			
0.3175	20316.84	3.8270	3.8272	0.8270	26.34	2.30	0.050			
0.3183	20369.89	3.8260	3.8261	0.8294	26.30	2.26	0.050			
0.3191	20423.22	3.8250	3.8250	0.8303	26.26	2.22	0.050			
0.3199	20476.18	3.8240	3.8241	0.8325	26.22	2.18	0.050			
0.3208	20529.11	3.8230	3.8229	0.8336	26.16	2.12	0.050			
0.3216	20582.58	3.8220	3.8220	0.8336	26.11	2.07	0.050			
0.3224	20635.88	3.8210	3.8210	0.8345	26.07	2.03	0.050			
0.3233	20688.76	3.8200	3.8200	0.8346	26.02	1.98	0.050			
0.3241	20742.32	3.8190	3.8189	0.8351	25.97	1.93	0.050			
0.3249	20796.12	3.8180	3.8180	0.8356	25.92	1.88	0.050			
0.3258	20849.84	3.8170	3.8171	0.8373	25.87	1.83	0.050	0.360	0.480	
0.3266	20903.79	3.8160	3.8161	0.8394	25.82	1.78	0.050			
0.3275	20957.45	3.8150	3.8149	0.8409	25.77	1.73	0.050			
0.3283	21011.15	3.8140	3.8140	0.8426	25.72	1.68	0.050			
0.3291	21064.97	3.8130	3.8130	0.8458	25.66	1.62	0.050			
0.3300	21119.06	3.8120	3.8120	0.8469	25.62	1.58	0.050			
0.3308	21172.79	3.8110	3.8110	0.8498	25.57	1.53	0.050			
0.3317	21226.71	3.8100	3.8100	0.8525	25.53	1.49	0.050			
0.3325	21280.77	3.8090	3.8090	0.8560	25.48	1.44	0.050			
0.3334	21335.33	3.8080	3.8080	0.8598	25.43	1.39	0.050			
0.3342	21390.16	3.8070	3.8070	0.8618	25.38	1.34	0.050			
0.3351	21445.23	3.8060	3.8060	0.8666	25.34	1.30	0.050			
0.3359	21500.41	3.8050	3.8050	0.8707	25.29	1.25	0.050			
0.3368	21555.96	3.8040	3.8040	0.8751	25.24	1.20	0.050			
0.3377	21611.93	3.8030	3.8029	0.8820	25.20	1.16	0.050			
0.3386	21668.56	3.8020	3.8019	0.8878	25.16	1.12	0.050			
0.3395	21725.62	3.8010	3.8010	0.8935	25.09	1.05	0.050			
0.3404	21783.26	3.8000	3.8000	0.8993	25.04	1.00	0.050			
0.3413	21841.54	3.7990	3.7990	0.9046	24.99	0.95	0.050			
0.3422	21900.86	3.7980	3.7980	0.9055	24.94	0.90	0.050			
0.3431	21959.08	3.7970	3.7969	0.9096	24.89	0.85	0.050			
0.3440	22017.38	3.7960	3.7960	0.9127	24.84	0.80	0.050			
0.3449	22075.27	3.7950	3.7949	0.9186	24.79	0.75	0.050			
0.3458	22133.98	3.7940	3.7939	0.9230	24.75	0.71	0.050	0.371	0.559	
0.3468	22193.16	3.7930	3.7930	0.9277	24.70	0.66	0.050			
0.3477	22252.60	3.7920	3.7921	0.9307	24.66	0.62	0.050			
0.3486	22312.76	3.7910	3.7910	0.9337	24.61	0.57	0.050			
0.3496	22372.44	3.7900	3.7901	0.9372	24.57	0.53	0.050			
0.3505	22433.00	3.7890	3.7888	0.9405	24.52	0.48	0.050			
0.3515	22493.43	3.7880	3.7879	0.9434	24.47	0.43	0.050			
0.3524	22553.80	3.7870	3.7871	0.9477	24.43	0.39	0.050			
0.3533	22614.31	3.7860	3.7860	0.9505	24.39	0.35	0.050			
0.3543	22674.90	3.7850	3.7852	0.9548	24.35	0.31	0.050			
0.3552	22735.76	3.7840	3.7841	0.9588	24.29	0.25	0.050			
0.3562	22796.38	3.7830	3.7830	0.9639	24.25	0.21	0.050			
0.3572	22858.26	3.7820	3.7821	0.9697	24.19	0.15	0.050			
0.3581	22920.47	3.7810	3.7810	0.9765	24.15	0.11	0.050			
0.3591	22983.46	3.7800	3.7800	0.9819	24.11	0.07	0.050			
0.3601	23046.55	3.7790	3.7789	0.9881	24.07	0.03	0.050			
0.3611	23110.20	3.7780	3.7779	0.9946	24.04	0.00	0.050			
0.3621	23173.21	3.7770	3.7770	0.9988	24.02	-0.02	0.050			
0.3631	23237.25	3.7760	3.7760	1.0018	23.99	-0.05	0.050			
0.3641	23301.04	3.7750	3.7750	1.0061	23.98	-0.06	0.050			
0.3651	23366.49	3.7740	3.7740	1.0112	23.97	-0.07	0.050			
0.3661	23432.06	3.7730	3.7731	1.0182	23.98	-0.06	0.050	0.275	0.384	
0.3672	23497.68	3.7720	3.7720	1.0235	23.99	-0.05	0.050			
0.3682	23563.35	3.7710	3.7711	1.0308	24.03	-0.01	0.050			
0.3692	23629.42	3.7700	3.7700	1.0365	24.07	0.03	0.050			
0.3702	23695.44	3.7690	3.7689	1.0437	24.13	0.09	0.050			
0.3713	23761.86	3.7680	3.7681	1.0508	24.20	0.16	0.050			
0.3723	23828.36	3.7670	3.7671	1.0575	24.27	0.23	0.050			
0.3734	23895.98	3.7660	3.7659	1.0659	24.36	0.32	0.050			
0.3744	23964.53	3.7650	3.7650	1.0710	24.47	0.43	0.050			
0.3755	24032.66	3.7640	3.7639	1.0788	24.59	0.55	0.050			
0.3766	24101.49	3.7630	3.7630	1.0857	24.71	0.67	0.050			
0.3777	24171.46	3.7620	3.7620	1.0947	24.87	0.83	0.050			
0.3788	24240.95	3.7610	3.7612	1.1058	25.04	1.00	0.050			
0.3799	24311.73	3.7600	3.7600	1.1177	25.19	1.15	0.050			
0.3810	24383.35	3.7590	3.7589	1.1277	25.37	1.33	0.050			
0.3821	24456.86	3.7580	3.7581	1.1356	25.55	1.51	0.050			
0.3833	24530.70	3.7570	3.7570	1.1442	25.73	1.69	0.050			
0.3845	24604.86	3.7560	3.7561	1.1539	25.91	1.87	0.050			
0.3856	24678.98	3.7550	3.7550	1.1625	26.07	2.03	0.050	0.242	0.272	
0.3868	24753.90	3.7540	3.7539	1.1718	26.21	2.17	0.050			
0.3880	24829.02	3.7530	3.7530	1.1790	26.33	2.29	0.050			
0.3891	24905.44	3.7520	3.7519	1.1850	26.43	2.39	0.050			
0.3903	24981.48	3.7510	3.7510	1.1904	26.48	2.44	0.050			
0.3915	25058.56	3.7500	3.7501	1.1956	26.44	2.40	0.050			
0.3927	25135.72	3.7490	3.7492	1.2001	26.37	2.33	0.050			
0.3940	25212.88	3.7480	3.7475	1.2064	26.30	2.26	0.050			
0.3952	25290.47	3.7470	3.7470	1.2122	26.23	2.19	0.050			
0.3964	25367.86	3.7460	3.7460	1.2210	26.15	2.11	0.050			
0.3976	25446.04	3.7450	3.7450	1.2281	26.08	2.04	0.050			
0.3988	25523.82	3.7440	3.7441	1.2334	26.00	1.96	0.050			
0.4000	25602.03	3.7430	3.7431	1.2415	25.94	1.90	0.050			
0.4013	25681.23	3.7420	3.7420	1.2501	25.86	1.82	0.050			
0.4025	25760.10	3.7410	3.7412	1.2559	25.79	1.75	0.050			
0.4038	25840.32	3.7400	3.7399	1.2675	25.70	1.66	0.050			
0.4050	25922.52	3.7390	3.7389	1.2779	25.62	1.58	0.050			
0.4063	26005.23	3.7380	3.7381	1.2898	25.54	1.50	0.050			
0.4076	26087.14	3.7370	3.7369	1.2988	25.47	1.43	0.050			
0.4089	26170.86	3.7360	3.7360	1.3054	25.39	1.35	0.050			
0.4102	26254.77	3.7350	3.7350	1.3148	25.30	1.26	0.050			
0.4116	26340.07	3.7340	3.7340	1.3234	25.23	1.19	0.050			
0.4129	26425.53	3.7330	3.7331	1.3354	25.15	1.11	0.050			
0.4143	26512.02	3.7320	3.7321	1.3466	25.08	1.04	0.050			
0.4156	26598.02	3.7310	3.7309	1.3577	25.00	0.96	0.050			
0.4169	26684.20	3.7300	3.7301	1.3718	24.92	0.88	0.050			
0.4183	26771.46	3.7290	3.7290	1.3832	24.85	0.81	0.050			
0.4197	26860.11	3.7280	3.7280	1.3933	24.78	0.74	0.050			
0.4211	26949.04	3.7270	3.7270	1.4048	24.71	0.67	0.050			
0.4225	27039.82	3.7260	3.7259	1.4126	24.63	0.59	0.050			
0.4239	27131.68	3.7250	3.7249	1.4187	24.56	0.52	0.050			
0.4254	27222.89	3.7240	3.7239	1.4272	24.48	0.44	0.050			
0.4268	27314.88	3.7230	3.7230	1.4355	24.41	0.37	0.050	0.276	0.485	
0.4282	27407.42	3.7220	3.7222	1.4451	24.35	0.31	0.050			
0.4297	27500.72	3.7210	3.7206	1.4532	24.27	0.23	0.050			
0.4312	27594.40	3.7200	3.7202	1.4621	24.20	0.16	0.050			
0.4326	27688.77	3.7190	3.7190	1.4724	24.15	0.11	0.050			
0.4341	27782.81	3.7180	3.7179	1.4813	24.10	0.06	0.050			
0.4356	27877.24	3.7170	3.7170	1.4929	24.05	0.01	0.050			
0.4371	27973.65	3.7160	3.7158	1.5030	24.04	0.00	0.050			
0.4386	28069.23	3.7150	3.7150	1.5112	24.04	0.00	0.050			
0.4401	28164.00	3.7140	3.7140	1.5250	24.06	0.02	0.050			
0.4416	28259.89	3.7130	3.7129	1.5381	24.09	0.05	0.050			
0.4431	28357.89	3.7120	3.7120	1.5520	24.15	0.11	0.050			
0.4446	28455.60	3.7110	3.7109	1.5662	24.23	0.19	0.050			
0.4462	28556.09	3.7100	3.7102	1.5790	24.32	0.28	0.050	0.288	0.356	
0.4478	28657.43	3.7090	3.7089	1.6011	24.44	0.40	0.050			
0.4494	28760.64	3.7080	3.7080	1.6224	24.61	0.57	0.050			
0.4510	28865.11	3.7070	3.7070	1.6422	24.81	0.77	0.050			
0.4527	28971.98	3.7060	3.7060	1.6632	25.03	0.99	0.050			
0.4543	29077.99	3.7050	3.7049	1.6816	25.27	1.23	0.050			
0.4560	29187.13	3.7040	3.7041	1.6998	25.53	1.49	0.050			
0.4578	29297.25	3.7030	3.7031	1.7192	25.77	1.73	0.050			
0.4595	29407.44	3.7020	3.7021	1.7397	26.02	1.98	0.050			
0.4612	29519.16	3.7010	3.7012	1.7604	26.21	2.17	0.050			
0.4630	29634.16	3.7000	3.6998	1.7744	26.35	2.31	0.050			
0.4648	29749.45	3.6990	3.6991	1.7890	26.36	2.32	0.050			
0.4666	29864.49	3.6980	3.6979	1.8038	26.26	2.22	0.050	0.176	0.506	
0.4685	29981.03	3.6970	3.6970	1.8205	26.16	2.12	0.050			
0.4703	30097.91	3.6960	3.6959	1.8381	26.04	2.00	0.050			
0.4721	30213.98	3.6950	3.6951	1.8580	25.93	1.89	0.050			
0.4739	30331.59	3.6940	3.6940	1.8776	25.82	1.78	0.050			
0.4758	30451.41	3.6930	3.6929	1.9016	25.71	1.67	0.050			
0.4777	30572.20	3.6920	3.6922	1.9262	25.58	1.54	0.050			
0.4796	30694.36	3.6910	3.6912	1.9503	25.46	1.42	0.050			
0.4816	30820.36	3.6900	3.6899	1.9750	25.34	1.30	0.050			
0.4835	30946.23	3.6890	3.6888	1.9967	25.23	1.19	0.050			
0.4855	31074.48	3.6880	3.6879	2.0234	25.10	1.06	0.050	0.310	0.460	
0.4876	31205.39	3.6870	3.6870	2.0467	24.98	0.94	0.050			
0.4897	31338.47	3.6860	3.6858	2.0675	24.85	0.81	0.050			
0.4918	31473.10	3.6850	3.6851	2.0877	24.72	0.68	0.050			
0.4939	31608.38	3.6840	3.6841	2.1124	24.60	0.56	0.050			
0.4960	31745.12	3.6830	3.6831	2.1346	24.47	0.43	0.050			
0.4982	31882.75	3.6820	3.6821	2.1555	24.34	0.30	0.050			
0.5004	32023.82	3.6810	3.6811	2.1837	24.21	0.17	0.050			
0.5026	32165.99	3.6800	3.6801	2.2032	24.08	0.04	0.050			
0.5048	32306.20	3.6790	3.6790	2.2220	23.95	-0.09	0.050			
0.5070	32449.64	3.6780	3.6782	2.2400	23.82	-0.22	0.050	0.313	0.527	
0.5093	32592.23	3.6770	3.6770	2.2599	23.71	-0.33	0.050			
0.5115	32735.93	3.6760	3.6759	2.2807	23.62	-0.42	0.050			
0.5137	32879.68	3.6750	3.6750	2.3056	23.58	-0.46	0.050			
0.5160	33025.67	3.6740	3.6741	2.3335	23.61	-0.43	0.050			
0.5184	33174.95	3.6730	3.6729	2.3594	23.72	-0.32	0.050			
0.5207	33325.25	3.6720	3.6721	2.3887	23.91	-0.13	0.050			
0.5231	33478.61	3.6710	3.6712	2.4195	24.19	0.15	0.050			
0.5256	33635.22	3.6700	3.6698	2.4489	24.55	0.51	0.050			
0.5280	33792.56	3.6690	3.6689	2.4799	24.99	0.95	0.050			
0.5305	33953.35	3.6680	3.6678	2.5119	25.47	1.43	0.050			
0.5331	34116.23	3.6670	3.6670	2.5414	25.97	1.93	0.050			
0.5356	34278.80	3.6660	3.6659	2.5695	26.40	2.36	0.050			
0.5382	34444.18	3.6650	3.6651	2.5996	26.68	2.64	0.050			
0.5408	34612.15	3.6640	3.6640	2.6307	26.69	2.65	0.050			
0.5434	34780.69	3.6630	3.6630	2.6625	26.55	2.51	0.050			
0.5462	34956.57	3.6620	3.6620	2.6814	26.40	2.36	0.050	0.072	0.402	
0.5489	35128.71	3.6610	3.6610	2.7068	26.23	2.19	0.050			
0.5516	35303.13	3.6600	3.6599	2.7310	26.07	2.03	0.050			
0.5543	35477.10	3.6590	3.6590	2.7501	25.88	1.84	0.050			
0.5571	35653.35	3.6580	3.6579	2.7773	25.70	1.66	0.050			
0.5599	35831.49	3.6570	3.6569	2.8070	25.51	1.47	0.050			
0.5627	36011.86	3.6560	3.6561	2.8390	25.33	1.29	0.050			
0.5655	36193.40	3.6550	3.6550	2.8729	25.14	1.10	0.050	0.380	0.428	
0.5684	36379.90	3.6540	3.6540	2.8919	24.95	0.91	0.050			
0.5714	36567.30	3.6530	3.6531	2.9091	24.75	0.71	0.050			
0.5743	36755.34	3.6520	3.6519	2.9264	24.55	0.51	0.050			
0.5773	36945.86	3.6510	3.6509	2.9331	24.36	0.32	0.050			
0.5803	37138.95	3.6500	3.6501	2.9241	24.16	0.12	0.050			
0.5833	37330.44	3.6490	3.6490	2.9199	23.97	-0.07	0.050			
0.5863	37521.17	3.6480	3.6475	2.9061	23.77	-0.27	0.050	0.297	0.540	
0.5893	37716.13	3.6470	3.6470	2.8807	23.59	-0.45	0.050			
0.5922	37903.28	3.6460	3.6458	2.8447	23.45	-0.59	0.050			
0.5951	38083.98	3.6450	3.6450	2.7947	23.42	-0.62	0.050			
0.5979	38262.41	3.6440	3.6438	2.7472	23.47	-0.57	0.050			
0.6005	38433.36	3.6430	3.6429	2.6963	23.66	-0.38	0.050			
0.6032	38601.73	3.6420	3.6420	2.6493	23.93	-0.11	0.050			
0.6057	38765.80	3.6410	3.6411	2.6105	24.32	0.28	0.050	-0.102	0.259	
0.6082	38925.72	3.6400	3.6400	2.5748	24.79	0.75	0.050			
0.6107	39087.61	3.6390	3.6389	2.5479	25.32	1.28	0.050			
0.6133	39248.12	3.6380	3.6381	2.5221	25.85	1.81	0.050			
0.6157	39406.08	3.6370	3.6370	2.4928	26.32	2.28	0.050			
0.6182	39563.90	3.6360	3.6359	2.4662	26.68	2.64	0.050			
0.6207	39723.29	3.6350	3.6349	2.4412	26.81	2.77	0.050			
0.6231	39880.15	3.6340	3.6340	2.4140	26.70	2.66	0.050			
0.6256	40036.23	3.6330	3.6330	2.3869	26.57	2.53	0.050	0.436	0.549	
0.6280	40192.05	3.6320	3.6320	2.3586	26.45	2.41	0.050			
0.6304	40347.98	3.6310	3.6311	2.3319	26.31	2.27	0.050			
0.6327	40495.95	3.6300	3.6302	2.2923	26.20	2.16	0.050			
0.6351	40646.62	3.6290	3.6291	2.2536	26.07	2.03	0.050			
0.6374	40792.82	3.6280	3.6281	2.2060	25.93	1.89	0.050			
0.6396	40934.79	3.6270	3.6270	2.1555	25.80	1.76	0.050			
0.6418	41074.04	3.6260	3.6258	2.1036	25.68	1.64	0.050			
0.6439	41208.09	3.6250	3.6248	2.0469	25.56	1.52	0.050			
0.6459	41335.61	3.6240	3.6241	1.9897	25.44	1.40	0.050	0.392	0.518	
0.6478	41460.31	3.6230	3.6230	1.9329	25.33	1.29	0.050			
0.6497	41579.91	3.6220	3.6220	1.8783	25.23	1.19	0.050			
0.6515	41697.12	3.6210	3.6212	1.8259	25.13	1.09	0.050			
0.6533	41812.16	3.6200	3.6200	1.7785	25.03	0.99	0.050			
0.6551	41923.21	3.6190	3.6190	1.7303	24.94	0.90	0.050			
0.6567	42030.42	3.6180	3.6180	1.6844	24.85	0.81	0.050			
0.6583	42134.18	3.6170	3.6169	1.6453	24.77	0.73	0.050			
0.6599	42235.55	3.6160	3.6159	1.6050	24.69	0.65	0.050			
0.6615	42334.50	3.6150	3.6150	1.5629	24.61	0.57	0.050			
0.6630	42431.12	3.6140	3.6141	1.5227	24.54	0.50	0.050			
0.6645	42526.43	3.6130	3.6129	1.4902	24.48	0.44	0.050			
0.6659	42618.97	3.6120	3.6119	1.4613	24.41	0.37	0.050	0.286	0.528	
0.6674	42710.70	3.6110	3.6109	1.4338	24.34	0.30	0.050			
0.6688	42801.93	3.6100	3.6100	1.4117	24.27	0.23	0.050			
0.6702	42890.10	3.6090	3.6090	1.3875	24.21	0.17	0.050			
0.6715	42976.34	3.6080	3.6079	1.3647	24.14	0.10	0.050			
0.6728	43061.32	3.6070	3.6071	1.3460	24.08	0.04	0.050			
0.6741	43145.30	3.6060	3.6061	1.3273	24.02	-0.02	0.050			
0.6754	43228.03	3.6050	3.6049	1.3112	23.96	-0.08	0.050			
0.6767	43309.30	3.6040	3.6040	1.2943	23.92	-0.12	0.050			
0.6780	43391.46	3.6030	3.6030	1.2816	23.88	-0.16	0.050			
0.6792	43471.58	3.6020	3.6020	1.2696	23.85	-0.19	0.050			
0.6805	43551.97	3.6010	3.6009	1.2591	23.82	-0.22	0.050			
0.6817	43631.21	3.6000	3.6001	1.2501	23.82	-0.22	0.050			
0.6830	43709.96	3.5990	3.5989	1.2432	23.82	-0.22	0.050			
0.6842	43788.30	3.5980	3.5980	1.2365	23.85	-0.19	0.050			
0.6854	43867.65	3.5970	3.5971	1.2275	23.89	-0.15	0.050			
0.6867	43947.69	3.5960	3.5960	1.2199	23.95	-0.09	0.050	0.171	0.478	
0.6879	44026.71	3.5950	3.5949	1.2146	24.02	-0.02	0.050			
0.6891	44104.19	3.5940	3.5940	1.2053	24.11	0.07	0.050			
0.6903	44180.94	3.5930	3.5928	1.1949	24.22	0.18	0.050			
0.6915	44257.08	3.5920	3.5921	1.1844	24.35	0.31	0.050			
0.6927	44333.09	3.5910	3.5909	1.1775	24.52	0.48	0.050			
0.6939	44408.07	3.5900	3.5899	1.1679	24.66	0.62	0.050			
0.6950	44482.17	3.5890	3.5892	1.1588	24.83	0.79	0.050			
0.6962	44555.51	3.5880	3.5881	1.1511	25.02	0.98	0.050			
0.6973	44627.56	3.5870	3.5869	1.1461	25.19	1.15	0.050			
0.6984	44699.94	3.5860	3.5861	1.1428	25.38	1.34	0.050			
0.6996	44771.79	3.5850	3.5850	1.1378	25.57	1.53	0.050			
0.7007	44843.77	3.5840	3.5840	1.1339	25.75	1.71	0.050			
0.7018	44915.74	3.5830	3.5830	1.1315	25.92	1.88	0.050			
0.7029	44986.31	3.5820	3.5819	1.1285	26.07	2.03	0.050			
0.7040	45058.46	3.5810	3.5809	1.1277	26.19	2.15	0.050			
0.7052	45129.86	3.5800	3.5800	1.1248	26.31	2.27	0.050			
0.7063	45202.04	3.5790	3.5790	1.1228	26.38	2.34	0.050	0.204	0.342	
0.7074	45275.12	3.5780	3.5779	1.1216	26.37	2.33	0.050			
0.7086	45348.08	3.5770	3.5771	1.1205	26.31	2.27	0.050			
0.7097	45420.55	3.5760	3.5760	1.1169	26.25	2.21	0.050			
0.7108	45492.09	3.5750	3.5750	1.1142	26.18	2.14	0.050			
0.7119	45563.81	3.5740	3.5741	1.1121	26.12	2.08	0.050			
0.7131	45635.60	3.5730	3.5730	1.1091	26.06	2.02	0.050			
0.7142	45706.70	3.5720	3.5721	1.1064	25.99	1.95	0.050			
0.7153	45776.74	3.5710	3.5711	1.1037	25.94	1.90	0.050			
0.7164	45847.21	3.5700	3.5701	1.1006	25.88	1.84	0.050			
0.7174	45916.40	3.5690	3.5691	1.0985	25.81	1.77	0.050			
0.7185	45985.56	3.5680	3.5678	1.0948	25.75	1.71	0.050			
0.7196	46054.59	3.5670	3.5668	1.0904	25.69	1.65	0.050			
0.7207	46123.31	3.5660	3.5660	1.0918	25.63	1.59	0.050			
0.7218	46192.81	3.5650	3.5651	1.0933	25.56	1.52	0.050			
0.7229	46262.60	3.5640	3.5641	1.0937	25.51	1.47	0.050			
0.7239	46332.63	3.5630	3.5628	1.0919	25.44	1.40	0.050			
0.7250	46402.34	3.5620	3.5620	1.0921	25.37	1.33	0.050			
0.7261	46472.40	3.5610	3.5610	1.0964	25.31	1.27	0.050	0.222	0.483	
0.7272	46542.91	3.5600	3.5599	1.0990	25.24	1.20	0.050			
0.7283	46613.53	3.5590	3.5591	1.1016	25.18	1.14	0.050			
0.7295	46685.44	3.5580	3.5579	1.1014	25.11	1.07	0.050			
0.7306	46756.45	3.5570	3.5569	1.0999	25.05	1.01	0.050			
0.7317	46826.54	3.5560	3.5560	1.1013	24.99	0.95	0.050			
0.7328	46896.58	3.5550	3.5550	1.1023	24.93	0.89	0.050			
0.7339	46966.57	3.5540	3.5541	1.1054	24.88	0.84	0.050			
0.7349	47036.06	3.5530	3.5529	1.1123	24.83	0.79	0.050			
0.7360	47106.27	3.5520	3.5520	1.1154	24.77	0.73	0.050			
0.7371	47176.53	3.5510	3.5511	1.1205	24.72	0.68	0.050			
0.7382	47247.66	3.5500	3.5500	1.1270	24.65	0.61	0.050			
0.7394	47319.25	3.5490	3.5491	1.1313	24.60	0.56	0.050			
0.7405	47392.23	3.5480	3.5477	1.1382	24.55	0.51	0.050			
0.7416	47465.32	3.5470	3.5467	1.1440	24.50	0.46	0.050			
0.7428	47537.31	3.5460	3.5461	1.1526	24.45	0.41	0.050			
0.7439	47610.84	3.5450	3.5449	1.1649	24.41	0.37	0.050			
0.7451	47685.69	3.5440	3.5440	1.1771	24.35	0.31	0.050			
0.7463	47760.52	3.5430	3.5430	1.1903	24.31	0.27	0.050	0.387	0.519	
0.7474	47836.20	3.5420	3.5421	1.2018	24.25	0.21	0.050			
0.7486	47912.89	3.5410	3.5412	1.2151	24.20	0.16	0.050			
0.7499	47991.06	3.5400	3.5401	1.2289	24.16	0.12	0.050			
0.7511	48070.39	3.5390	3.5389	1.2456	24.10	0.06	0.050			
0.7524	48151.37	3.5380	3.5378	1.2608	24.06	0.02	0.050			
0.7536	48232.39	3.5370	3.5369	1.2760	24.02	-0.02	0.050			
0.7549	48313.37	3.5360	3.5360	1.2867	23.99	-0.05	0.050			
0.7562	48396.04	3.5350	3.5350	1.3012	23.96	-0.08	0.050			
0.7575	48479.51	3.5340	3.5338	1.3148	23.94	-0.10	0.050			
0.7588	48562.92	3.5330	3.5330	1.3318	23.94	-0.10	0.050			
0.7601	48647.38	3.5320	3.5321	1.3555	23.97	-0.07	0.050			
0.7615	48734.46	3.5310	3.5310	1.3766	24.01	-0.03	0.050			
0.7628	48821.45	3.5300	3.5300	1.4030	24.05	0.01	0.050			
0.7642	48911.15	3.5290	3.5290	1.4278	24.12	0.08	0.050			
0.7657	49001.92	3.5280	3.5280	1.4557	24.22	0.18	0.050			
0.7671	49094.42	3.5270	3.5270	1.4814	24.33	0.29	0.050	0.087	0.478	
0.7686	49188.28	3.5260	3.5259	1.5060	24.48	0.44	0.050			
0.7701	49283.90	3.5250	3.5250	1.5370	24.66	0.62	0.050			
0.7716	49382.26	3.5240	3.5240	1.5696	24.85	0.81	0.050			
0.7731	49481.50	3.5230	3.5229	1.6068	25.07	1.03	0.050			
0.7747	49583.85	3.5220	3.5221	1.6482	25.31	1.27	0.050			
0.7764	49689.41	3.5210	3.5209	1.6889	25.56	1.52	0.050			
0.7781	49797.88	3.5200	3.5202	1.7298	25.81	1.77	0.050			
0.7799	49911.17	3.5190	3.5192	1.7684	26.04	2.00	0.050			
0.7817	50026.86	3.5180	3.5181	1.8084	26.21	2.17	0.050			
0.7835	50145.46	3.5170	3.5169	1.8441	26.31	2.27	0.050			
0.7854	50266.91	3.5160	3.5160	1.8793	26.23	2.19	0.050			
0.7873	50390.24	3.5150	3.5151	1.9119	26.13	2.09	0.050	0.266	0.480	
0.7893	50515.28	3.5140	3.5139	1.9417	26.02	1.98	0.050			
0.7913	50641.81	3.5130	3.5131	1.9689	25.89	1.85	0.050			
0.7933	50771.66	3.5120	3.5121	1.9922	25.78	1.74	0.050			
0.7954	50902.99	3.5110	3.5110	2.0133	25.64	1.60	0.050			
0.7974	51036.23	3.5100	3.5101	2.0307	25.53	1.49	0.050			
0.7995	51169.47	3.5090	3.5089	2.0419	25.41	1.37	0.050			
0.8016	51304.26	3.5080	3.5080	2.0464	25.29	1.25	0.050			
0.8037	51439.37	3.5070	3.5071	2.0525	25.16	1.12	0.050			
0.8058	51573.48	3.5060	3.5060	2.0434	25.05	1.01	0.050			
0.8079	51706.52	3.5050	3.5049	2.0316	24.93	0.89	0.050			
0.8100	51838.93	3.5040	3.5040	2.0163	24.82	0.78	0.050			
0.8120	51971.20	3.5030	3.5031	1.9895	24.72	0.68	0.050			
0.8141	52102.46	3.5020	3.5019	1.9599	24.61	0.57	0.050			
0.8161	52231.95	3.5010	3.5008	1.9226	24.52	0.48	0.050			
0.8181	52358.91	3.5000	3.5000	1.8841	24.42	0.38	0.050			
0.8201	52484.38	3.4990	3.4989	1.8329	24.33	0.29	0.050			
0.8219	52604.15	3.4980	3.4981	1.7737	24.24	0.20	0.050			
0.8237	52719.82	3.4970	3.4970	1.7112	24.14	0.10	0.050			
0.8255	52830.94	3.4960	3.4960	1.6371	24.07	0.03	0.050			
0.8271	52935.87	3.4950	3.4951	1.5614	24.01	-0.03	0.050	0.334	0.654	
0.8287	53037.02	3.4940	3.4942	1.4863	23.96	-0.08	0.050			
0.8302	53131.96	3.4930	3.4932	1.4083	23.92	-0.12	0.050			
0.8316	53220.59	3.4920	3.4919	1.3274	23.89	-0.15	0.050			
0.8329	53303.58	3.4910	3.4910	1.2471	23.88	-0.16	0.050			
0.8341	53379.62	3.4900	3.4900	1.1675	23.88	-0.16	0.050			
0.8352	53449.84	3.4890	3.4890	1.0918	23.89	-0.15	0.050			
0.8361	53513.11	3.4880	3.4880	1.0058	23.91	-0.13	0.050			
0.8371	53572.58	3.4870	3.4870	0.9396	23.94	-0.10	0.050			
0.8379	53625.95	3.4860	3.4859	0.8762	23.97	-0.07	0.050			
0.8387	53674.59	3.4850	3.4849	0.8166	24.01	-0.03	0.050			
0.8394	53722.66	3.4840	3.4840	0.7557	24.06	0.02	0.050			
0.8401	53763.88	3.4830	3.4832	0.7078	24.10	0.06	0.050			
0.8407	53803.03	3.4820	3.4822	0.6655	24.13	0.09	0.050			
0.8413	53841.19	3.4810	3.4809	0.6186	24.18	0.14	0.050			
0.8418	53876.30	3.4800	3.4797	0.5869	24.23	0.19	0.050			
0.8423	53907.49	3.4790	3.4789	0.5541	24.28	0.24	0.050			
0.8428	53938.72	3.4780	3.4779	0.5195	24.32	0.28	0.050			
0.8433	53970.10	3.4770	3.4770	0.4930	24.37	0.33	0.050			
0.8437	53997.78	3.4760	3.4759	0.4718	24.41	0.37	0.050			
0.8441	54025.05	3.4750	3.4750	0.4546	24.46	0.42	0.050			
0.8446	54052.50	3.4740	3.4738	0.4352	24.50	0.46	0.050			
0.8450	54077.64	3.4730	3.4730	0.4200	24.55	0.51	0.050			
0.8454	54103.00	3.4720	3.4720	0.4044	24.59	0.55	0.050			
0.8457	54127.23	3.4710	3.4711	0.3941	24.64	0.60	0.050			
0.8461	54151.75	3.4700	3.4701	0.3827	24.69	0.65	0.050			
0.8465	54174.26	3.4690	3.4686	0.3729	24.74	0.70	0.050	0.111	0.352	
0.8468	54197.85	3.4680	3.4678	0.3644	24.80	0.76	0.050			
0.8472	54219.72	3.4670	3.4669	0.3559	24.84	0.80	0.050			
0.8475	54241.63	3.4660	3.4659	0.3474	24.89	0.85	0.050			
0.8479	54262.94	3.4650	3.4649	0.3410	24.94	0.90	0.050			
0.8482	54284.58	3.4640	3.4640	0.3352	24.98	0.94	0.050			
0.8485	54305.08	3.4630	3.4630	0.3295	25.04	1.00	0.050			
0.8488	54325.61	3.4620	3.4620	0.3235	25.07	1.03	0.050			
0.8492	54346.03	3.4610	3.4610	0.3193	25.12	1.08	0.050			
0.8495	54365.86	3.4600	3.4600	0.3138	25.17	1.13	0.050			
0.8498	54385.80	3.4590	3.4592	0.3098	25.22	1.18	0.050			
0.8501	54405.46	3.4580	3.4582	0.3060	25.26	1.22	0.050			
0.8504	54424.68	3.4570	3.4571	0.3030	25.30	1.26	0.050			
0.8507	54444.26	3.4560	3.4561	0.2999	25.35	1.31	0.050			
0.8510	54462.65	3.4550	3.4549	0.2959	25.40	1.36	0.050			
0.8513	54481.49	3.4540	3.4540	0.2927	25.44	1.40	0.050			
0.8516	54499.77	3.4530	3.4530	0.2889	25.48	1.44	0.050			
0.8518	54517.83	3.4520	3.4520	0.2872	25.52	1.48	0.050			
0.8521	54535.91	3.4510	3.4510	0.2843	25.56	1.52	0.050			
0.8524	54553.92	3.4500	3.4501	0.2826	25.60	1.56	0.050			
0.8527	54571.58	3.4490	3.4490	0.2797	25.64	1.60	0.050			
0.8530	54589.43	3.4480	3.4480	0.2780	25.68	1.64	0.050			
0.8532	54607.02	3.4470	3.4469	0.2760	25.72	1.68	0.050			
0.8535	54624.63	3.4460	3.4459	0.2745	25.76	1.72	0.050			
0.8538	54642.17	3.4450	3.4450	0.2732	25.78	1.74	0.050			
0.8541	54659.60	3.4440	3.4441	0.2717	25.82	1.78	0.050			
0.8543	54676.69	3.4430	3.4429	0.2699	25.86	1.82	0.050			
0.8546	54693.92	3.4420	3.4420	0.2687	25.89	1.85	0.050			
0.8549	54711.09	3.4410	3.4411	0.2674	25.92	1.88	0.050			
0.8551	54728.34	3.4400	3.4400	0.2657	25.95	1.91	0.050			
0.8554	54745.30	3.4390	3.4391	0.2642	25.98	1.94	0.050			
0.8557	54762.23	3.4380	3.4381	0.2631	26.01	1.97	0.050			
0.8559	54779.07	3.4370	3.4368	0.2617	26.04	2.00	0.050			
0.8562	54795.77	3.4360	3.4360	0.2602	26.07	2.03	0.050			
0.8564	54812.36	3.4350	3.4350	0.2584	26.08	2.04	0.050			
0.8567	54828.85	3.4340	3.4340	0.2568	26.10	2.06	0.050			
0.8570	54845.24	3.4330	3.4330	0.2553	26.12	2.08	0.050			
0.8572	54861.58	3.4320	3.4320	0.2539	26.14	2.10	0.050			
0.8575	54877.77	3.4310	3.4310	0.2523	26.16	2.12	0.050			
0.8577	54893.36	3.4300	3.4300	0.2513	26.18	2.14	0.050			
0.8580	54909.41	3.4290	3.4290	0.2502	26.19	2.15	0.050			
0.8582	54925.39	3.4280	3.4280	0.2492	26.20	2.16	0.050			
0.8585	54941.16	3.4270	3.4270	0.2486	26.20	2.16	0.050			
0.8587	54957.04	3.4260	3.4261	0.2477	26.21	2.17	0.050			
0.8589	54972.79	3.4250	3.4250	0.2464	26.21	2.17	0.050			
0.8592	54988.54	3.4240	3.4239	0.2456	26.20	2.16	0.050			
0.8594	55004.04	3.4230	3.4230	0.2444	26.20	2.16	0.050			
0.8597	55020.00	3.4220	3.4219	0.2428	26.19	2.15	0.050			
0.8599	55035.51	3.4210	3.4209	0.2418	26.18	2.14	0.050			
0.8602	55050.94	3.4200	3.4198	0.2408	26.16	2.12	0.050			
0.8604	55066.37	3.4190	3.4190	0.2396	26.15	2.11	0.050			
0.8607	55081.94	3.4180	3.4180	0.2391	26.14	2.10	0.050			
0.8609	55097.22	3.4170	3.4171	0.2377	26.13	2.09	0.050			
0.8611	55112.39	3.4160	3.4162	0.2363	26.12	2.08	0.050			
0.8614	55127.54	3.4150	3.4150	0.2351	26.10	2.06	0.050			
0.8616	55142.48	3.4140	3.4140	0.2339	26.08	2.04	0.050			
0.8618	55157.41	3.4130	3.4130	0.2326	26.07	2.03	0.050			
0.8621	55172.52	3.4120	3.4121	0.2316	26.05	2.01	0.050			
0.8623	55187.15	3.4110	3.4109	0.2305	26.04	2.00	0.050			
0.8625	55201.81	3.4100	3.4100	0.2290	26.03	1.99	0.050			
0.8628	55216.42	3.4090	3.4089	0.2276	26.02	1.98	0.050			
0.8630	55230.87	3.4080	3.4079	0.2265	26.00	1.96	0.050			
0.8632	55244.95	3.4070	3.4072	0.2245	25.99	1.95	0.050			
0.8634	55259.28	3.4060	3.4060	0.2235	25.97	1.93	0.050			
0.8636	55273.50	3.4050	3.4050	0.2223	25.96	1.92	0.050			
0.8639	55287.70	3.4040	3.4040	0.2214	25.95	1.91	0.050			
0.8641	55301.84	3.4030	3.4030	0.2205	25.94	1.90	0.050			
0.8643	55315.97	3.4020	3.4020	0.2196	25.93	1.89	0.050			
0.8645	55329.76	3.4010	3.4010	0.2199	25.91	1.87	0.050			
0.8647	55343.83	3.4000	3.4000	0.2192	25.90	1.86	0.050			
0.8650	55357.88	3.3990	3.3990	0.2187	25.88	1.84	0.050			
0.8652	55371.86	3.3980	3.3980	0.2180	25.87	1.83	0.050			
0.8654	55385.54	3.3970	3.3969	0.2169	25.85	1.81	0.050			
0.8656	55399.66	3.3960	3.3959	0.2158	25.84	1.80	0.050			
0.8658	55413.45	3.3950	3.3951	0.2151	25.83	1.79	0.050			
0.8661	55427.25	3.3940	3.3940	0.2145	25.81	1.77	0.050			
0.8663	55441.22	3.3930	3.3929	0.2130	25.80	1.76	0.050			
0.8665	55454.82	3.3920	3.3919	0.2119	25.78	1.74	0.050	0.223	0.427	
0.8667	55468.47	3.3910	3.3912	0.2111	25.77	1.73	0.050			
0.8669	55481.92	3.3900	3.3901	0.2100	25.75	1.71	0.050			
0.8671	55495.33	3.3890	3.3891	0.2089	25.74	1.70	0.050			
0.8673	55508.84	3.3880	3.3881	0.2081	25.73	1.69	0.050			
0.8675	55522.02	3.3870	3.3870	0.2071	25.72	1.68	0.050			
0.8677	55535.24	3.3860	3.3860	0.2059	25.71	1.67	0.050			
0.8679	55548.56	3.3850	3.3849	0.2050	25.70	1.66	0.050			
0.8681	55561.53	3.3840	3.3842	0.2040	25.69	1.65	0.050			
0.8684	55574.55	3.3830	3.3830	0.2028	25.67	1.63	0.050			
0.8686	55587.49	3.3820	3.3820	0.2016	25.66	1.62	0.050			
0.8688	55600.07	3.3810	3.3809	0.2006	25.65	1.61	0.050			
0.8689	55612.54	3.3800	3.3799	0.1985	25.64	1.60	0.050			
0.8691	55625.23	3.3790	3.3790	0.1978	25.63	1.59	0.050			
0.8693	55637.87	3.3780	3.3781	0.1972	25.62	1.58	0.050			
0.8695	55650.44	3.3770	3.3770	0.1967	25.60	1.56	0.050			
0.8697	55662.99	3.3760	3.3760	0.1961	25.59	1.55	0.050			
0.8699	55675.52	3.3750	3.3751	0.1955	25.57	1.53	0.050			
0.8701	55688.19	3.3740	3.3740	0.1943	25.56	1.52	0.050			
0.8703	55700.69	3.3730	3.3730	0.1937	25.55	1.51	0.050			
0.8705	55713.06	3.3720	3.3720	0.1929	25.54	1.50	0.050			
0.8707	55725.40	3.3710	3.3711	0.1921	25.53	1.49	0.050			
0.8709	55737.79	3.3700	3.3698	0.1915	25.52	1.48	0.050			
0.8711	55750.02	3.3690	3.3691	0.1906	25.51	1.47	0.050			
0.8713	55762.18	3.3680	3.3681	0.1896	25.50	1.46	0.050			
0.8715	55774.23	3.3670	3.3669	0.1887	25.48	1.44	0.050			
0.8717	55786.28	3.3660	3.3660	0.1878	25.47	1.43	0.050			
0.8718	55798.27	3.3650	3.3651	0.1869	25.46	1.42	0.050			
0.8720	55809.96	3.3640	3.3641	0.1866	25.45	1.41	0.050			
0.8722	55821.89	3.3630	3.3630	0.1860	25.44	1.40	0.050			
0.8724	55833.77	3.3620	3.3621	0.1853	25.43	1.39	0.050			
0.8726	55845.55	3.3610	3.3610	0.1846	25.42	1.38	0.050			
0.8728	55857.32	3.3600	3.3598	0.1841	25.41	1.37	0.050			
0.8730	55869.08	3.3590	3.3589	0.1836	25.40	1.36	0.050			
0.8731	55880.81	3.3580	3.3580	0.1830	25.39	1.35	0.050			
0.8733	55892.53	3.3570	3.3570	0.1817	25.38	1.34	0.050			
0.8735	55904.14	3.3560	3.3559	0.1811	25.37	1.33	0.050			
0.8737	55915.71	3.3550	3.3549	0.1805	25.35	1.31	0.050			
0.8739	55927.18	3.3540	3.3540	0.1798	25.34	1.30	0.050			
0.8740	55938.75	3.3530	3.3530	0.1790	25.33	1.29	0.050			
0.8742	55950.18	3.3520	3.3521	0.1783	25.32	1.28	0.050			
0.8744	55961.84	3.3510	3.3511	0.1782	25.31	1.27	0.050			
0.8746	55973.25	3.3500	3.3500	0.1772	25.30	1.26	0.050			
0.8748	55984.56	3.3490	3.3490	0.1763	25.29	1.25	0.050			
0.8749	55995.82	3.3480	3.3480	0.1754	25.28	1.24	0.050			
0.8751	56007.13	3.3470	3.3471	0.1747	25.27	1.23	0.050			
0.8753	56018.26	3.3460	3.3460	0.1737	25.26	1.22	0.050			
0.8755	56029.35	3.3450	3.3448	0.1728	25.25	1.21	0.050			
0.8756	56040.47	3.3440	3.3439	0.1720	25.24	1.20	0.050			
0.8758	56051.44	3.3430	3.3430	0.1709	25.23	1.19	0.050			
0.8760	56062.24	3.3420	3.3421	0.1702	25.22	1.18	0.050			
0.8761	56073.10	3.3410	3.3411	0.1692	25.21	1.17	0.050			
0.8763	56083.66	3.3400	3.3399	0.1679	25.20	1.16	0.050			
0.8765	56094.38	3.3390	3.3390	0.1671	25.19	1.15	0.050			
0.8766	56104.94	3.3380	3.3380	0.1667	25.18	1.14	0.050			
0.8768	56115.52	3.3370	3.3371	0.1659	25.18	1.14	0.050			
0.8770	56126.12	3.3360	3.3361	0.1653	25.17	1.13	0.050			
0.8771	56136.68	3.3350	3.3348	0.1647	25.16	1.12	0.050			
0.8773	56147.12	3.3340	3.3339	0.1644	25.15	1.11	0.050			
0.8775	56157.60	3.3330	3.3330	0.1639	25.14	1.10	0.050			
0.8776	56168.07	3.3320	3.3320	0.1634	25.14	1.10	0.050			
0.8778	56178.51	3.3310	3.3310	0.1629	25.13	1.09	0.050			
0.8780	56188.88	3.3300	3.3299	0.1618	25.12	1.08	0.050			
0.8781	56199.21	3.3290	3.3289	0.1613	25.10	1.06	0.050			
0.8783	56209.52	3.3280	3.3280	0.1608	25.09	1.05	0.050			
0.8784	56219.80	3.3270	3.3270	0.1603	25.08	1.04	0.050			
0.8786	56230.11	3.3260	3.3259	0.1599	25.07	1.03	0.050			
0.8788	56240.33	3.3250	3.3251	0.1593	25.06	1.02	0.050			
0.8789	56250.51	3.3240	3.3240	0.1588	25.05	1.01	0.050			
0.8791	56260.66	3.3230	3.3230	0.1583	25.05	1.01	0.050			
0.8792	56270.98	3.3220	3.3221	0.1577	25.04	1.00	0.050			
0.8794	56281.05	3.3210	3.3211	0.1570	25.03	0.99	0.050			
0.8795	56291.08	3.3200	3.3200	0.1563	25.02	0.98	0.050			
0.8797	56301.06	3.3190	3.3190	0.1556	25.02	0.98	0.050			
0.8799	56310.94	3.3180	3.3180	0.1553	25.01	0.97	0.050			
0.8800	56320.86	3.3170	3.3170	0.1546	25.00	0.96	0.050			
0.8802	56330.74	3.3160	3.3160	0.1540	24.99	0.95	0.050			
0.8803	56340.57	3.3150	3.3149	0.1533	24.99	0.95	0.050			
0.8805	56350.30	3.3140	3.3139	0.1525	24.97	0.93	0.050			
0.8806	56360.04	3.3130	3.3131	0.1518	24.96	0.92	0.050			
0.8808	56369.73	3.3120	3.3121	0.1512	24.95	0.91	0.050			
0.8809	56379.39	3.3110	3.3110	0.1506	24.94	0.90	0.050			
0.8811	56388.92	3.3100	3.3100	0.1499	24.93	0.89	0.050			
0.8812	56398.50	3.3090	3.3089	0.1493	24.92	0.88	0.050			
0.8814	56408.04	3.3080	3.3079	0.1488	24.92	0.88	0.050			
0.8815	56417.54	3.3070	3.3070	0.1482	24.91	0.87	0.050			
0.8817	56427.09	3.3060	3.3060	0.1478	24.90	0.86	0.050			
0.8818	56436.47	3.3050	3.3051	0.1473	24.90	0.86	0.050			
0.8820	56445.88	3.3040	3.3041	0.1467	24.89	0.85	0.050			
0.8821	56455.25	3.3030	3.3029	0.1462	24.88	0.84	0.050			
0.8823	56464.50	3.3020	3.3020	0.1455	24.87	0.83	0.050			
0.8824	56473.95	3.3010	3.3010	0.1447	24.87	0.83	0.050			
0.8825	56483.19	3.3000	3.3000	0.1440	24.86	0.82	0.050			
0.8827	56492.39	3.2990	3.2989	0.1434	24.85	0.81	0.050			
0.8828	56501.68	3.2980	3.2979	0.1430	24.85	0.81	0.050			
0.8830	56510.81	3.2970	3.2970	0.1423	24.84	0.80	0.050			
0.8831	56519.79	3.2960	3.2961	0.1419	24.83	0.79	0.050			
0.8833	56528.85	3.2950	3.2950	0.1413	24.83	0.79	0.050			
0.8834	56537.77	3.2940	3.2939	0.1404	24.82	0.78	0.050			
0.8835	56546.74	3.2930	3.2930	0.1399	24.81	0.77	0.050			
0.8837	56555.68	3.2920	3.2921	0.1393	24.81	0.77	0.050			
0.8838	56564.53	3.2910	3.2911	0.1389	24.80	0.76	0.050			
0.8840	56573.41	3.2900	3.2900	0.1384	24.79	0.75	0.050			
0.8841	56582.28	3.2890	3.2890	0.1380	24.79	0.75	0.050			
0.8842	56591.10	3.2880	3.2881	0.1374	24.78	0.74	0.050			
0.8844	56599.67	3.2870	3.2870	0.1374	24.77	0.73	0.050			
0.8845	56608.45	3.2860	3.2859	0.1370	24.76	0.72	0.050			
0.8846	56617.05	3.2850	3.2849	0.1362	24.75	0.71	0.050			
0.8848	56625.76	3.2840	3.2840	0.1360	24.74	0.70	0.050			
0.8849	56634.46	3.2830	3.2831	0.1357	24.73	0.69	0.050			
0.8850	56643.13	3.2820	3.2821	0.1354	24.73	0.69	0.050			
0.8852	56651.89	3.2810	3.2810	0.1343	24.72	0.68	0.050			
0.8853	56660.48	3.2800	3.2799	0.1339	24.71	0.67	0.050			
0.8855	56669.03	3.2790	3.2790	0.1335	24.71	0.67	0.050			
0.8856	56677.56	3.2780	3.2780	0.1331	24.70	0.66	0.050			
0.8857	56686.14	3.2770	3.2770	0.1325	24.70	0.66	0.050			
0.8859	56694.81	3.2760	3.2759	0.1325	24.70	0.66	0.050			
0.8860	56703.27	3.2750	3.2750	0.1320	24.69	0.65	0.050			
0.8861	56711.70	3.2740	3.2740	0.1314	24.69	0.65	0.050			
0.8863	56720.09	3.2730	3.2730	0.1308	24.68	0.64	0.050			
0.8864	56728.43	3.2720	3.2720	0.1302	24.68	0.64	0.050			
0.8865	56736.77	3.2710	3.2709	0.1297	24.67	0.63	0.050	0.302	0.533	
0.8866	56745.06	3.2700	3.2700	0.1291	24.66	0.62	0.050			
0.8868	56753.30	3.2690	3.2690	0.1285	24.66	0.62	0.050			
0.8869	56761.50	3.2680	3.2679	0.1279	24.65	0.61	0.050			
0.8870	56769.68	3.2670	3.2669	0.1274	24.64	0.60	0.050			
0.8872	56777.81	3.2660	3.2659	0.1268	24.64	0.60	0.050			
0.8873	56785.91	3.2650	3.2650	0.1262	24.63	0.59	0.050			
0.8874	56793.97	3.2640	3.2640	0.1256	24.62	0.58	0.050			
0.8875	56801.99	3.2630	3.2631	0.1250	24.61	0.57	0.050			
0.8877	56809.94	3.2620	3.2620	0.1246	24.61	0.57	0.050			
0.8878	56817.71	3.2610	3.2610	0.1236	24.60	0.56	0.050			
0.8879	56825.60	3.2600	3.2600	0.1232	24.59	0.55	0.050			
0.8880	56833.47	3.2590	3.2590	0.1227	24.59	0.55	0.050			
0.8881	56841.32	3.2580	3.2582	0.1223	24.58	0.54	0.050			
0.8883	56849.25	3.2570	3.2571	0.1223	24.58	0.54	0.050			
0.8884	56857.06	3.2560	3.2559	0.1217	24.57	0.53	0.050			
0.8885	56864.83	3.2550	3.2550	0.1212	24.56	0.52	0.050			
0.8886	56872.57	3.2540	3.2540	0.1206	24.56	0.52	0.050			
0.8888	56880.27	3.2530	3.2530	0.1201	24.55	0.51	0.050			
0.8889	56887.78	3.2520	3.2520	0.1194	24.55	0.51	0.050			
0.8890	56895.30	3.2510	3.2510	0.1191	24.54	0.50	0.050			
0.8891	56902.92	3.2500	3.2500	0.1188	24.54	0.50	0.050			
0.8892	56910.51	3.2490	3.2490	0.1184	24.53	0.49	0.050			
0.8893	56918.08	3.2480	3.2481	0.1181	24.52	0.48	0.050			
0.8895	56925.54	3.2470	3.2468	0.1176	24.52	0.48	0.050			
0.8896	56933.12	3.2460	3.2460	0.1172	24.51	0.47	0.050			
0.8897	56940.61	3.2450	3.2451	0.1169	24.51	0.47	0.050			
0.8898	56948.08	3.2440	3.2442	0.1165	24.50	0.46	0.050			
0.8899	56955.53	3.2430	3.2430	0.1162	24.50	0.46	0.050			
0.8900	56962.94	3.2420	3.2419	0.1158	24.49	0.45	0.050			
0.8902	56970.60	3.2410	3.2409	0.1151	24.48	0.44	0.050			
0.8903	56977.95	3.2400	3.2398	0.1145	24.48	0.44	0.050			
0.8904	56985.26	3.2390	3.2390	0.1140	24.47	0.43	0.050			
0.8905	56992.54	3.2380	3.2381	0.1135	24.47	0.43	0.050			
0.8906	56999.94	3.2370	3.2369	0.1133	24.46	0.42	0.050			
0.8907	57007.17	3.2360	3.2359	0.1127	24.46	0.42	0.050			
0.8908	57014.36	3.2350	3.2350	0.1121	24.45	0.41	0.050			
0.8910	57021.34	3.2340	3.2340	0.1120	24.45	0.41	0.050			
0.8911	57028.49	3.2330	3.2329	0.1115	24.44	0.40	0.050			
0.8912	57035.62	3.2320	3.2321	0.1110	24.44	0.40	0.050			
0.8913	57042.72	3.2310	3.2312	0.1106	24.43	0.39	0.050			
0.8914	57049.78	3.2300	3.2301	0.1101	24.43	0.39	0.050			
0.8915	57056.81	3.2290	3.2291	0.1096	24.42	0.38	0.050			
0.8916	57063.70	3.2280	3.2281	0.1095	24.41	0.37	0.050			
0.8917	57070.69	3.2270	3.2271	0.1091	24.41	0.37	0.050			
0.8918	57077.42	3.2260	3.2259	0.1083	24.40	0.36	0.050			
0.8919	57084.34	3.2250	3.2249	0.1080	24.40	0.36	0.050			
0.8921	57091.24	3.2240	3.2240	0.1078	24.40	0.36	0.050			
0.8922	57098.15	3.2230	3.2227	0.1075	24.39	0.35	0.050			
0.8923	57105.02	3.2220	3.2219	0.1073	24.39	0.35	0.050			
0.8924	57111.78	3.2210	3.2212	0.1068	24.39	0.35	0.050			
0.8925	57118.61	3.2200	3.2201	0.1066	24.39	0.35	0.050			
0.8926	57125.43	3.2190	3.2190	0.1064	24.38	0.34	0.050			
0.8927	57132.23	3.2180	3.2179	0.1062	24.38	0.34	0.050			
0.8928	57139.20	3.2170	3.2171	0.1055	24.38	0.34	0.050			
0.8929	57145.95	3.2160	3.2161	0.1052	24.37	0.33	0.050			
0.8930	57152.67	3.2150	3.2150	0.1049	24.37	0.33	0.050			
0.8931	57159.62	3.2140	3.2139	0.1051	24.36	0.32	0.050			
0.8932	57166.33	3.2130	3.2129	0.1046	24.36	0.32	0.050			
0.8933	57173.01	3.2120	3.2120	0.1041	24.35	0.31	0.050			
0.8934	57179.66	3.2110	3.2111	0.1037	24.35	0.31	0.050			
0.8935	57186.30	3.2100	3.2099	0.1032	24.34	0.30	0.050			
0.8936	57192.88	3.2090	3.2091	0.1027	24.34	0.30	0.050			
0.8937	57199.46	3.2080	3.2081	0.1022	24.33	0.29	0.050			
0.8938	57205.98	3.2070	3.2071	0.1018	24.33	0.29	0.050			
0.8939	57212.48	3.2060	3.2061	0.1013	24.32	0.28	0.050			
0.8940	57218.95	3.2050	3.2051	0.1008	24.32	0.28	0.050			
0.8941	57225.38	3.2040	3.2040	0.1003	24.31	0.27	0.050			
0.8942	57231.62	3.2030	3.2031	0.1002	24.31	0.27	0.050			
0.8943	57238.03	3.2020	3.2020	0.0998	24.30	0.26	0.050			
0.8944	57244.40	3.2010	3.2009	0.0995	24.30	0.26	0.050			
0.8945	57250.76	3.2000	3.2001	0.0991	24.30	0.26	0.050			
0.8946	57257.09	3.1990	3.1991	0.0988	24.29	0.25	0.050			
0.8947	57263.40	3.1980	3.1980	0.0984	24.29	0.25	0.050			
0.8948	57269.64	3.1970	3.1970	0.0977	24.29	0.25	0.050			
0.8949	57275.88	3.1960	3.1960	0.0974	24.29	0.25	0.050			
0.8950	57282.11	3.1950	3.1951	0.0971	24.29	0.25	0.050			
0.8951	57288.31	3.1940	3.1940	0.0968	24.28	0.24	0.050			
0.8952	57294.49	3.1930	3.1928	0.0965	24.28	0.24	0.050			
0.8953	57300.66	3.1920	3.1919	0.0961	24.28	0.24	0.050			
0.8954	57306.86	3.1910	3.1910	0.0956	24.27	0.23	0.050			
0.8955	57313.02	3.1900	3.1900	0.0954	24.27	0.23	0.050			
0.8956	57319.11	3.1890	3.1891	0.0950	24.26	0.22	0.050			
0.8957	57325.17	3.1880	3.1881	0.0946	24.26	0.22	0.050			
0.8958	57331.21	3.1870	3.1871	0.0942	24.25	0.21	0.050			
0.8959	57337.22	3.1860	3.1860	0.0938	24.25	0.21	0.050			
0.8960	57343.21	3.1850	3.1850	0.0934	24.24	0.20	0.050			
0.8961	57349.17	3.1840	3.1840	0.0930	24.24	0.20	0.050			
0.8962	57355.21	3.1830	3.1830	0.0928	24.24	0.20	0.050			
0.8963	57361.14	3.1820	3.1820	0.0924	24.23	0.19	0.050			
0.8964	57367.04	3.1810	3.1810	0.0919	24.23	0.19	0.050			
0.8965	57372.91	3.1800	3.1800	0.0915	24.22	0.18	0.050			
0.8965	57378.75	3.1790	3.1790	0.0911	24.22	0.18	0.050			
0.8966	57384.57	3.1780	3.1780	0.0906	24.21	0.17	0.050			
0.8967	57390.26	3.1770	3.1771	0.0900	24.21	0.17	0.050			
0.8968	57396.01	3.1760	3.1760	0.0896	24.21	0.17	0.050			
0.8969	57401.73	3.1750	3.1749	0.0892	24.20	0.16	0.050			
0.8970	57407.42	3.1740	3.1739	0.0888	24.20	0.16	0.050			
0.8971	57412.99	3.1730	3.1730	0.0887	24.19	0.15	0.050			
0.8972	57418.66	3.1720	3.1720	0.0883	24.19	0.15	0.050			
0.8973	57424.28	3.1710	3.1710	0.0879	24.18	0.14	0.050			
0.8973	57429.89	3.1700	3.1701	0.0876	24.18	0.14	0.050			
0.8974	57435.49	3.1690	3.1691	0.0873	24.18	0.14	0.050			
0.8975	57441.07	3.1680	3.1681	0.0870	24.17	0.13	0.050			
0.8976	57446.63	3.1670	3.1670	0.0867	24.17	0.13	0.050			
0.8977	57452.11	3.1660	3.1658	0.0866	24.16	0.12	0.050			
0.8978	57457.65	3.1650	3.1648	0.0863	24.16	0.12	0.050			
0.8979	57463.06	3.1640	3.1639	0.0859	24.16	0.12	0.050			
0.8979	57468.55	3.1630	3.1630	0.0857	24.16	0.12	0.050			
0.8980	57474.03	3.1620	3.1621	0.0855	24.15	0.11	0.050			
0.8981	57479.49	3.1610	3.1611	0.0853	24.15	0.11	0.050			
0.8982	57485.02	3.1600	3.1601	0.0848	24.15	0.11	0.050			
0.8983	57490.44	3.1590	3.1591	0.0846	24.15	0.11	0.050			
0.8984	57495.82	3.1580	3.1581	0.0842	24.15	0.11	0.050			
0.8985	57501.20	3.1570	3.1570	0.0840	24.14	0.10	0.050			
0.8985	57506.57	3.1560	3.1559	0.0837	24.14	0.10	0.050			
0.8986	57511.92	3.1550	3.1551	0.0835	24.14	0.10	0.050			
0.8987	57517.26	3.1540	3.1540	0.0832	24.13	0.09	0.050			
0.8988	57522.73	3.1530	3.1530	0.0832	24.13	0.09	0.050			
0.8989	57528.05	3.1520	3.1520	0.0828	24.13	0.09	0.050			
0.8990	57533.34	3.1510	3.1511	0.0825	24.12	0.08	0.050			
0.8990	57538.60	3.1500	3.1500	0.0821	24.12	0.08	0.050			
0.8991	57543.85	3.1490	3.1490	0.0818	24.11	0.07	0.050			
0.8992	57549.07	3.1480	3.1480	0.0814	24.11	0.07	0.050			
0.8993	57554.27	3.1470	3.1470	0.0810	24.11	0.07	0.050			
0.8994	57559.44	3.1460	3.1460	0.0807	24.10	0.06	0.050			
0.8994	57564.52	3.1450	3.1450	0.0804	24.10	0.06	0.050			
0.8995	57569.66	3.1440	3.1440	0.0801	24.10	0.06	0.050			
0.8996	57574.78	3.1430	3.1430	0.0798	24.10	0.06	0.050			
0.8997	57579.88	3.1420	3.1420	0.0795	24.09	0.05	0.050			
0.8998	57584.96	3.1410	3.1410	0.0792	24.09	0.05	0.050			
0.8998	57589.92	3.1400	3.1400	0.0788	24.09	0.05	0.050			
0.8999	57594.96	3.1390	3.1390	0.0785	24.09	0.05	0.050			
0.9000	57600.02	3.1380	3.1380	0.0782	24.09	0.05	0.050			
0.9001	57605.02	3.1370	3.1371	0.0779	24.08	0.04	0.050			
0.9002	57609.99	3.1360	3.1360	0.0776	24.08	0.04	0.050			
0.9002	57614.95	3.1350	3.1349	0.0774	24.08	0.04	0.050			
0.9003	57619.89	3.1340	3.1340	0.0771	24.08	0.04	0.050			
0.9004	57624.85	3.1330	3.1330	0.0768	24.08	0.04	0.050			
0.9005	57629.76	3.1320	3.1320	0.0765	24.07	0.03	0.050			
0.9005	57634.63	3.1310	3.1310	0.0763	24.07	0.03	0.050			
0.9006	57639.50	3.1300	3.1300	0.0760	24.07	0.03	0.050			
0.9007	57644.35	3.1290	3.1290	0.0757	24.07	0.03	0.050			
0.9008	57649.19	3.1280	3.1280	0.0754	24.07	0.03	0.050			
0.9008	57654.00	3.1270	3.1270	0.0751	24.07	0.03	0.050			
0.9009	57658.80	3.1260	3.1261	0.0748	24.06	0.02	0.050			
0.9010	57663.58	3.1250	3.1250	0.0745	24.06	0.02	0.050			
0.9011	57668.35	3.1240	3.1240	0.0742	24.06	0.02	0.050			
0.9011	57673.09	3.1230	3.1230	0.0740	24.06	0.02	0.050			
0.9012	57677.80	3.1220	3.1220	0.0737	24.06	0.02	0.050			
0.9013	57682.50	3.1210	3.1210	0.0734	24.06	0.02	0.050			
0.9014	57687.19	3.1200	3.1200	0.0731	24.05	0.01	0.050			
0.9014	57691.86	3.1190	3.1190	0.0729	24.05	0.01	0.050			
0.9015	57696.48	3.1180	3.1180	0.0725	24.05	0.01	0.050			
0.9016	57701.11	3.1170	3.1170	0.0723	24.05	0.01	0.050			
0.9017	57705.73	3.1160	3.1160	0.0720	24.05	0.01	0.050			
0.9017	57710.35	3.1150	3.1150	0.0717	24.04	0.00	0.050			
0.9018	57714.93	3.1140	3.1140	0.0714	24.04	0.00	0.050			
0.9019	57719.49	3.1130	3.1130	0.0712	24.04	0.00	0.050			
0.9019	57724.03	3.1120	3.1120	0.0709	24.04	-0.00	0.050			
0.9020	57728.58	3.1110	3.1110	0.0706	24.04	-0.00	0.050			
0.9021	57733.09	3.1100	3.1100	0.0704	24.04	-0.00	0.050			
0.9021	57737.59	3.1090	3.1090	0.0701	24.03	-0.01	0.050			
0.9022	57742.06	3.1080	3.1080	0.0698	24.03	-0.01	0.050			
0.9023	57746.48	3.1070	3.1070	0.0696	24.03	-0.01	0.050			
0.9024	57750.93	3.1060	3.1060	0.0693	24.03	-0.01	0.050			
0.9024	57755.36	3.1050	3.1050	0.0691	24.03	-0.01	0.050			
0.9025	57759.77	3.1040	3.1040	0.0688	24.03	-0.01	0.050			
0.9026	57764.17	3.1030	3.1030	0.0685	24.02	-0.02	0.050			
0.9026	57768.52	3.1020	3.1020	0.0682	24.02	-0.02	0.050			
0.9027	57772.87	3.1010	3.1009	0.0680	24.02	-0.02	0.050			
0.9028	57777.22	3.1000	3.0999	0.0677	24.02	-0.02	0.050			
0.9028	57781.55	3.0990	3.0990	0.0675	24.02	-0.02	0.050			
0.9029	57785.86	3.0980	3.0980	0.0672	24.02	-0.02	0.050			
0.9030	57790.13	3.0970	3.0970	0.0671	24.02	-0.02	0.050			
0.9030	57794.41	3.0960	3.0960	0.0669	24.02	-0.02	0.050			
0.9031	57798.64	3.0950	3.0951	0.0665	24.02	-0.02	0.050			
0.9032	57802.89	3.0940	3.0941	0.0663	24.02	-0.02	0.050			
0.9032	57807.13	3.0930	3.0931	0.0661	24.02	-0.02	0.050			
0.9033	57811.35	3.0920	3.0921	0.0659	24.02	-0.02	0.050			
0.9034	57815.56	3.0910	3.0911	0.0657	24.02	-0.02	0.050			
0.9034	57819.76	3.0900	3.0901	0.0655	24.02	-0.02	0.050			
0.9035	57824.04	3.0890	3.0890	0.0650	24.02	-0.02	0.050			
0.9036	57828.19	3.0880	3.0879	0.0648	24.02	-0.02	0.050			
0.9036	57832.38	3.0870	3.0869	0.0647	24.02	-0.02	0.050			
0.9037	57836.51	3.0860	3.0859	0.0644	24.02	-0.02	0.050			
0.9038	57840.62	3.0850	3.0850	0.0641	24.02	-0.02	0.050			
0.9038	57844.72	3.0840	3.0840	0.0638	24.02	-0.02	0.050			
0.9039	57848.79	3.0830	3.0830	0.0635	24.02	-0.02	0.050			
0.9040	57852.85	3.0820	3.0820	0.0632	24.02	-0.02	0.050			
0.9040	57856.88	3.0810	3.0810	0.0629	24.02	-0.02	0.050			
0.9041	57860.88	3.0800	3.0801	0.0628	24.02	-0.02	0.050			
0.9041	57864.88	3.0790	3.0791	0.0625	24.02	-0.02	0.050			
0.9042	57868.87	3.0780	3.0781	0.0622	24.02	-0.02	0.050			
0.9043	57872.86	3.0770	3.0771	0.0620	24.02	-0.02	0.050			
0.9043	57876.82	3.0760	3.0760	0.0617	24.02	-0.02	0.050			
0.9044	57880.76	3.0750	3.0748	0.0614	24.02	-0.02	0.050			
0.9044	57884.68	3.0740	3.0741	0.0612	24.02	-0.02	0.050			
0.9045	57888.59	3.0730	3.0731	0.0609	24.02	-0.02	0.050			
0.9046	57892.47	3.0720	3.0721	0.0606	24.02	-0.02	0.050			
0.9046	57896.34	3.0710	3.0710	0.0603	24.02	-0.02	0.050			
0.9047	57900.19	3.0700	3.0700	0.0601	24.02	-0.02	0.050			
0.9047	57903.97	3.0690	3.0690	0.0597	24.02	-0.02	0.050			
0.9048	57907.78	3.0680	3.0680	0.0594	24.02	-0.02	0.050			
0.9049	57911.57	3.0670	3.0671	0.0592	24.02	-0.02	0.050			
0.9049	57915.35	3.0660	3.0661	0.0589	24.02	-0.02	0.050			
0.9050	57919.12	3.0650	3.0651	0.0587	24.02	-0.02	0.050			
0.9050	57922.86	3.0640	3.0641	0.0584	24.02	-0.02	0.050			
0.9051	57926.60	3.0630	3.0631	0.0582	24.02	-0.02	0.050			
0.9052	57930.31	3.0620	3.0622	0.0579	24.02	-0.02	0.050			
0.9052	57934.67	3.0610	3.0607	0.0562	24.02	-0.02	0.050			
0.9053	57938.45	3.0600	3.0597	0.0569	24.02	-0.02	0.050			
0.9053	57942.07	3.0590	3.0589	0.0562	24.02	-0.02	0.050			
0.9054	57945.65	3.0580	3.0579	0.0556	24.02	-0.02	0.050			
0.9055	57949.19	3.0570	3.0569	0.0549	24.02	-0.02	0.050			
0.9055	57952.68	3.0560	3.0560	0.0543	24.03	-0.01	0.050			
0.9056	57956.13	3.0550	3.0550	0.0536	24.03	-0.01	0.050			
0.9056	57959.55	3.0540	3.0541	0.0530	24.03	-0.01	0.050			
0.9057	57962.92	3.0530	3.0531	0.0523	24.03	-0.01	0.050			
0.9057	57966.25	3.0520	3.0522	0.0517	24.03	-0.01	0.050			
0.9058	57969.54	3.0510	3.0512	0.0511	24.03	-0.01	0.050			
0.9058	57973.43	3.0500	3.0501	0.0512	24.03	-0.01	0.050			
0.9059	57976.67	3.0490	3.0491	0.0503	24.04	-0.00	0.050			
0.9059	57979.86	3.0480	3.0481	0.0494	24.04	-0.00	0.050			
0.9060	57983.00	3.0470	3.0472	0.0485	24.04	-0.00	0.050			
0.9060	57986.07	3.0460	3.0462	0.0477	24.04	-0.00	0.050			
0.9061	57989.10	3.0450	3.0452	0.0468	24.04	-0.00	0.050			
0.9061	57992.06	3.0440	3.0444	0.0459	24.04	0.00	0.050			
0.9062	57994.97	3.0430	3.0435	0.0450	24.04	0.00	0.050			
0.9062	57997.82	3.0420	3.0426	0.0441	24.04	0.00	0.050			
0.9063	58000.62	3.0410	3.0417	0.0433	24.04	0.00	0.050			
0.9063	58003.36	3.0400	3.0407	0.0424	24.05	0.01	0.050			
0.9063	58006.04	3.0390	3.0398	0.0415	24.05	0.01	0.050			
0.9064	58008.67	3.0380	3.0389	0.0406	24.05	0.01	0.050			
0.9064	58011.24	3.0370	3.0382	0.0397	24.05	0.01	0.050			
