Ah_balance (normalized)	Ah_balance (mAh)	Voltage - fit (V)	Voltage -  interpolate (V)	dQ/dV (1/V)	Temperature (°C)	Temperature - diff (°C)	Current (C)	R_DC 0ms (mOhm)	R_DC 50ms (mOhm)	R_DC 50 ms PEC (mOhm)
-0.0082	-525.32	4.2000	4.1965	0.7817	26.42	0.46	0.019	0.132	0.355	
-0.0074	-475.07	4.1990	4.1990	0.7973	26.38	0.42	0.050			
-0.0066	-423.74	4.1980	4.1979	0.8064	26.34	0.38	0.050			
-0.0058	-371.61	4.1970	4.1971	0.8178	26.30	0.34	0.050			
-0.0050	-319.54	4.1960	4.1961	0.8236	26.26	0.30	0.050			
-0.0042	-266.22	4.1950	4.1950	0.8339	26.22	0.26	0.050			
-0.0033	-211.33	4.1940	4.1939	0.8440	26.18	0.22	0.050			
-0.0024	-156.56	4.1930	4.1930	0.8506	26.12	0.16	0.050			
-0.0016	-101.86	4.1920	4.1920	0.8565	26.07	0.11	0.050			
-0.0007	-46.01	4.1910	4.1909	0.8604	26.02	0.06	0.050	0.360	0.506	
0.0001	9.49	4.1900	4.1900	0.8641	25.97	0.01	0.050			
0.0010	65.50	4.1890	4.1891	0.8697	25.92	-0.04	0.050			
0.0019	121.11	4.1880	4.1880	0.8718	25.86	-0.10	0.050			
0.0028	178.03	4.1870	4.1870	0.8752	25.80	-0.16	0.050			
0.0037	235.18	4.1860	4.1860	0.8757	25.75	-0.21	0.050			
0.0046	292.12	4.1850	4.1850	0.8769	25.69	-0.27	0.050			
0.0055	348.82	4.1840	4.1840	0.8763	25.63	-0.33	0.050			
0.0063	405.36	4.1830	4.1829	0.8749	25.58	-0.38	0.050			
0.0072	461.57	4.1820	4.1820	0.8740	25.52	-0.44	0.050			
0.0081	517.80	4.1810	4.1810	0.8721	25.48	-0.48	0.050			
0.0090	573.45	4.1800	4.1800	0.8689	25.42	-0.54	0.050			
0.0098	629.32	4.1790	4.1791	0.8662	25.37	-0.59	0.050			
0.0107	684.20	4.1780	4.1782	0.8655	25.32	-0.64	0.050			
0.0115	739.11	4.1770	4.1770	0.8638	25.27	-0.69	0.050			
0.0124	793.22	4.1760	4.1760	0.8636	25.23	-0.73	0.050			
0.0133	848.30	4.1750	4.1750	0.8627	25.17	-0.79	0.050			
0.0141	903.70	4.1740	4.1741	0.8635	25.13	-0.83	0.050			
0.0150	959.22	4.1730	4.1731	0.8633	25.08	-0.88	0.050			
0.0158	1014.09	4.1720	4.1720	0.8617	25.03	-0.93	0.050			
0.0167	1068.89	4.1710	4.1711	0.8613	24.99	-0.97	0.050			
0.0176	1123.87	4.1700	4.1699	0.8616	24.94	-1.02	0.050			
0.0184	1178.49	4.1690	4.1689	0.8606	24.89	-1.07	0.050			
0.0193	1233.20	4.1680	4.1681	0.8641	24.85	-1.11	0.050			
0.0201	1288.17	4.1670	4.1670	0.8686	24.81	-1.15	0.050			
0.0210	1343.55	4.1660	4.1662	0.8724	24.75	-1.21	0.050			
0.0219	1399.57	4.1650	4.1651	0.8746	24.70	-1.26	0.050			
0.0227	1455.64	4.1640	4.1641	0.8770	24.65	-1.31	0.050			
0.0236	1512.01	4.1630	4.1630	0.8787	24.61	-1.35	0.050			
0.0245	1568.69	4.1620	4.1619	0.8807	24.56	-1.40	0.050			
0.0254	1625.62	4.1610	4.1610	0.8821	24.51	-1.45	0.050			
0.0263	1682.57	4.1600	4.1600	0.8834	24.48	-1.48	0.050			
0.0272	1739.16	4.1590	4.1589	0.8839	24.42	-1.54	0.050			
0.0281	1795.81	4.1580	4.1580	0.8827	24.37	-1.59	0.050			
0.0289	1852.79	4.1570	4.1571	0.8823	24.33	-1.63	0.050			
0.0298	1909.56	4.1560	4.1561	0.8834	24.27	-1.69	0.050			
0.0307	1966.87	4.1550	4.1550	0.8835	24.22	-1.74	0.050			
0.0316	2024.03	4.1540	4.1542	0.8831	24.18	-1.78	0.050			
0.0325	2081.22	4.1530	4.1529	0.8824	24.14	-1.82	0.050			
0.0334	2137.80	4.1520	4.1519	0.8808	24.09	-1.87	0.050			
0.0343	2194.20	4.1510	4.1510	0.8771	24.04	-1.92	0.050			
0.0352	2250.01	4.1500	4.1502	0.8743	23.99	-1.97	0.050			
0.0360	2305.98	4.1490	4.1490	0.8705	23.94	-2.02	0.050			
0.0369	2361.02	4.1480	4.1480	0.8646	23.89	-2.07	0.050			
0.0378	2416.59	4.1470	4.1469	0.8588	23.85	-2.11	0.050			
0.0386	2472.18	4.1460	4.1461	0.8558	23.80	-2.16	0.050			
0.0395	2527.46	4.1450	4.1449	0.8507	23.76	-2.20	0.050	0.245	0.398	
0.0403	2582.08	4.1440	4.1441	0.8465	23.72	-2.24	0.050			
0.0412	2636.65	4.1430	4.1432	0.8424	23.69	-2.27	0.050			
0.0420	2690.25	4.1420	4.1421	0.8372	23.66	-2.30	0.050			
0.0429	2743.03	4.1410	4.1408	0.8337	23.64	-2.32	0.050			
0.0437	2795.89	4.1400	4.1402	0.8303	23.62	-2.34	0.050			
0.0445	2847.92	4.1390	4.1391	0.8271	23.60	-2.36	0.050			
0.0453	2900.27	4.1380	4.1380	0.8245	23.60	-2.36	0.050			
0.0461	2952.25	4.1370	4.1371	0.8248	23.59	-2.37	0.050			
0.0469	3003.83	4.1360	4.1359	0.8210	23.60	-2.36	0.050			
0.0478	3056.20	4.1350	4.1348	0.8197	23.60	-2.36	0.050			
0.0486	3108.65	4.1340	4.1341	0.8189	23.62	-2.34	0.050			
0.0494	3160.34	4.1330	4.1328	0.8173	23.64	-2.32	0.050			
0.0502	3212.67	4.1320	4.1319	0.8177	23.67	-2.29	0.050			
0.0510	3265.16	4.1310	4.1309	0.8162	23.71	-2.25	0.050			
0.0518	3317.79	4.1300	4.1300	0.8156	23.77	-2.19	0.050			
0.0527	3370.39	4.1290	4.1292	0.8159	23.81	-2.15	0.050			
0.0535	3423.39	4.1280	4.1282	0.8152	23.87	-2.09	0.050			
0.0543	3476.46	4.1270	4.1269	0.8148	23.94	-2.02	0.050			
0.0551	3528.93	4.1260	4.1261	0.8129	24.02	-1.94	0.050			
0.0559	3580.68	4.1250	4.1250	0.8122	24.11	-1.85	0.050			
0.0568	3632.32	4.1240	4.1241	0.8106	24.21	-1.75	0.050			
0.0576	3683.78	4.1230	4.1230	0.8106	24.31	-1.65	0.050			
0.0583	3734.19	4.1220	4.1220	0.8125	24.42	-1.54	0.050			
0.0591	3784.88	4.1210	4.1210	0.8118	24.55	-1.41	0.050			
0.0599	3835.95	4.1200	4.1202	0.8150	24.69	-1.27	0.050	0.178	0.294	
0.0607	3887.56	4.1190	4.1189	0.8169	24.82	-1.14	0.050			
0.0616	3939.34	4.1180	4.1180	0.8205	24.97	-0.99	0.050			
0.0624	3991.12	4.1170	4.1169	0.8253	25.11	-0.85	0.050			
0.0632	4043.85	4.1160	4.1158	0.8304	25.27	-0.69	0.050			
0.0640	4097.00	4.1150	4.1149	0.8376	25.43	-0.53	0.050			
0.0648	4150.34	4.1140	4.1140	0.8427	25.58	-0.38	0.050			
0.0657	4204.66	4.1130	4.1130	0.8481	25.74	-0.22	0.050			
0.0666	4259.47	4.1120	4.1121	0.8537	25.88	-0.08	0.050			
0.0674	4315.30	4.1110	4.1111	0.8595	26.03	0.07	0.050			
0.0683	4371.14	4.1100	4.1100	0.8644	26.17	0.21	0.050			
0.0692	4427.33	4.1090	4.1091	0.8686	26.29	0.33	0.050			
0.0701	4483.49	4.1080	4.1079	0.8721	26.39	0.43	0.050			
0.0709	4540.49	4.1070	4.1071	0.8750	26.48	0.52	0.050			
0.0718	4596.83	4.1060	4.1059	0.8771	26.53	0.57	0.050			
0.0727	4653.65	4.1050	4.1049	0.8772	26.56	0.60	0.050			
0.0736	4710.07	4.1040	4.1041	0.8771	26.53	0.57	0.050			
0.0745	4766.39	4.1030	4.1029	0.8761	26.48	0.52	0.050			
0.0754	4823.07	4.1020	4.1020	0.8739	26.44	0.48	0.050			
0.0763	4880.05	4.1010	4.1009	0.8696	26.41	0.45	0.050			
0.0771	4936.04	4.1000	4.1000	0.8681	26.38	0.42	0.050			
0.0780	4991.79	4.0990	4.0990	0.8656	26.33	0.37	0.050			
0.0789	5047.07	4.0980	4.0980	0.8619	26.29	0.33	0.050			
0.0797	5101.57	4.0970	4.0971	0.8586	26.25	0.29	0.050	0.243	0.298	
0.0806	5156.08	4.0960	4.0961	0.8592	26.21	0.25	0.050			
0.0814	5210.20	4.0950	4.0950	0.8560	26.18	0.22	0.050			
0.0823	5264.53	4.0940	4.0941	0.8545	26.13	0.17	0.050			
0.0831	5319.23	4.0930	4.0930	0.8539	26.09	0.13	0.050			
0.0840	5373.13	4.0920	4.0919	0.8527	26.06	0.10	0.050			
0.0848	5427.32	4.0910	4.0909	0.8531	26.03	0.07	0.050			
0.0856	5481.18	4.0900	4.0900	0.8519	25.98	0.02	0.050			
0.0865	5535.57	4.0890	4.0891	0.8526	25.92	-0.04	0.050			
0.0873	5589.84	4.0880	4.0879	0.8543	25.88	-0.08	0.050			
0.0882	5644.30	4.0870	4.0870	0.8555	25.83	-0.13	0.050			
0.0890	5699.01	4.0860	4.0861	0.8560	25.79	-0.17	0.050			
0.0899	5753.95	4.0850	4.0850	0.8590	25.74	-0.22	0.050			
0.0908	5809.43	4.0840	4.0840	0.8602	25.69	-0.27	0.050			
0.0916	5864.70	4.0830	4.0829	0.8615	25.63	-0.33	0.050			
0.0925	5920.49	4.0820	4.0820	0.8644	25.59	-0.37	0.050			
0.0934	5976.62	4.0810	4.0810	0.8653	25.53	-0.43	0.050			
0.0942	6031.49	4.0800	4.0800	0.8659	25.47	-0.49	0.050			
0.0951	6087.07	4.0790	4.0789	0.8658	25.42	-0.54	0.050			
0.0960	6142.48	4.0780	4.0781	0.8680	25.36	-0.60	0.050			
0.0968	6197.66	4.0770	4.0770	0.8679	25.32	-0.64	0.050			
0.0977	6253.22	4.0760	4.0760	0.8674	25.28	-0.68	0.050			
0.0986	6309.28	4.0750	4.0749	0.8670	25.22	-0.74	0.050			
0.0995	6365.41	4.0740	4.0739	0.8675	25.16	-0.80	0.050	0.349	0.465	
0.1003	6421.43	4.0730	4.0730	0.8663	25.10	-0.86	0.050			
0.1012	6476.50	4.0720	4.0721	0.8660	25.05	-0.91	0.050			
0.1021	6531.37	4.0710	4.0708	0.8674	24.99	-0.97	0.050			
0.1029	6586.35	4.0700	4.0701	0.8679	24.95	-1.01	0.050			
0.1038	6641.90	4.0690	4.0688	0.8690	24.90	-1.06	0.050			
0.1046	6697.10	4.0680	4.0681	0.8695	24.84	-1.12	0.050			
0.1055	6752.82	4.0670	4.0671	0.8715	24.80	-1.16	0.050			
0.1064	6808.32	4.0660	4.0660	0.8724	24.74	-1.22	0.050			
0.1073	6864.05	4.0650	4.0650	0.8746	24.69	-1.27	0.050			
0.1081	6919.58	4.0640	4.0639	0.8767	24.63	-1.33	0.050			
0.1090	6975.94	4.0630	4.0629	0.8775	24.57	-1.39	0.050			
0.1099	7032.56	4.0620	4.0620	0.8784	24.51	-1.45	0.050			
0.1108	7088.91	4.0610	4.0610	0.8790	24.46	-1.50	0.050			
0.1116	7144.96	4.0600	4.0601	0.8804	24.41	-1.55	0.050			
0.1125	7201.92	4.0590	4.0590	0.8811	24.34	-1.62	0.050			
0.1134	7258.81	4.0580	4.0581	0.8807	24.29	-1.67	0.050			
0.1143	7315.80	4.0570	4.0571	0.8812	24.23	-1.73	0.050			
0.1152	7373.33	4.0560	4.0560	0.8825	24.17	-1.79	0.050			
0.1161	7430.42	4.0550	4.0550	0.8813	24.12	-1.84	0.050			
0.1170	7487.09	4.0540	4.0540	0.8798	24.07	-1.89	0.050			
0.1179	7543.13	4.0530	4.0530	0.8775	24.00	-1.96	0.050			
0.1187	7598.88	4.0520	4.0519	0.8742	23.95	-2.01	0.050			
0.1196	7654.69	4.0510	4.0510	0.8711	23.89	-2.07	0.050	0.116	0.359	
0.1205	7709.99	4.0500	4.0502	0.8710	23.83	-2.13	0.050			
0.1213	7765.64	4.0490	4.0490	0.8692	23.77	-2.19	0.050			
0.1222	7820.92	4.0480	4.0480	0.8685	23.73	-2.23	0.050			
0.1231	7876.29	4.0470	4.0470	0.8675	23.67	-2.29	0.050			
0.1239	7931.50	4.0460	4.0460	0.8650	23.60	-2.36	0.050			
0.1248	7986.77	4.0450	4.0449	0.8643	23.55	-2.41	0.050			
0.1257	8041.90	4.0440	4.0440	0.8627	23.50	-2.46	0.050			
0.1265	8097.69	4.0430	4.0431	0.8618	23.44	-2.52	0.050			
0.1274	8153.10	4.0420	4.0420	0.8611	23.39	-2.57	0.050			
0.1283	8208.13	4.0410	4.0409	0.8592	23.34	-2.62	0.050			
0.1291	8262.91	4.0400	4.0402	0.8565	23.30	-2.66	0.050			
0.1300	8317.93	4.0390	4.0390	0.8557	23.27	-2.69	0.050			
0.1308	8373.36	4.0380	4.0380	0.8540	23.24	-2.72	0.050			
0.1317	8427.81	4.0370	4.0371	0.8510	23.22	-2.74	0.050			
0.1325	8482.84	4.0360	4.0360	0.8487	23.22	-2.74	0.050			
0.1334	8537.03	4.0350	4.0351	0.8466	23.23	-2.73	0.050			
0.1342	8591.02	4.0340	4.0340	0.8445	23.25	-2.71	0.050			
0.1351	8644.78	4.0330	4.0329	0.8414	23.27	-2.69	0.050			
0.1359	8698.80	4.0320	4.0321	0.8394	23.30	-2.66	0.050			
0.1368	8752.35	4.0310	4.0310	0.8355	23.34	-2.62	0.050			
0.1376	8805.23	4.0300	4.0300	0.8319	23.40	-2.56	0.050			
0.1384	8857.76	4.0290	4.0291	0.8329	23.47	-2.49	0.050			
0.1392	8910.21	4.0280	4.0282	0.8321	23.55	-2.41	0.050			
0.1400	8962.45	4.0270	4.0270	0.8340	23.64	-2.32	0.050	0.285	0.418	
0.1409	9015.58	4.0260	4.0260	0.8352	23.73	-2.23	0.050			
0.1417	9068.62	4.0250	4.0251	0.8352	23.83	-2.13	0.050			
0.1425	9121.92	4.0240	4.0240	0.8373	23.95	-2.01	0.050			
0.1434	9175.49	4.0230	4.0230	0.8392	24.08	-1.88	0.050			
0.1442	9228.64	4.0220	4.0220	0.8404	24.22	-1.74	0.050			
0.1450	9283.07	4.0210	4.0208	0.8423	24.37	-1.59	0.050			
0.1459	9336.81	4.0200	4.0199	0.8450	24.53	-1.43	0.050			
0.1467	9390.51	4.0190	4.0191	0.8487	24.69	-1.27	0.050			
0.1476	9444.61	4.0180	4.0180	0.8544	24.87	-1.09	0.050			
0.1484	9498.79	4.0170	4.0171	0.8616	25.04	-0.92	0.050			
0.1493	9553.62	4.0160	4.0163	0.8670	25.21	-0.75	0.050			
0.1501	9608.84	4.0150	4.0149	0.8730	25.40	-0.56	0.050			
0.1510	9664.74	4.0140	4.0140	0.8787	25.57	-0.39	0.050			
0.1519	9721.48	4.0130	4.0129	0.8854	25.76	-0.20	0.050			
0.1528	9778.52	4.0120	4.0120	0.8913	25.94	-0.02	0.050			
0.1537	9836.12	4.0110	4.0109	0.8959	26.10	0.14	0.050			
0.1546	9893.27	4.0100	4.0098	0.9008	26.24	0.28	0.050			
0.1555	9951.01	4.0090	4.0090	0.9028	26.37	0.41	0.050			
0.1564	10010.71	4.0080	4.0080	0.9047	26.47	0.51	0.050			
0.1573	10069.61	4.0070	4.0071	0.9076	26.54	0.58	0.050			
0.1583	10128.47	4.0060	4.0061	0.9110	26.59	0.63	0.050			
0.1592	10187.67	4.0050	4.0051	0.9136	26.59	0.63	0.050			
0.1601	10247.12	4.0040	4.0039	0.9157	26.55	0.59	0.050	0.328	0.444	
0.1610	10305.82	4.0030	4.0031	0.9168	26.52	0.56	0.050			
0.1619	10364.74	4.0020	4.0020	0.9178	26.48	0.52	0.050			
0.1629	10423.90	4.0010	4.0010	0.9181	26.44	0.48	0.050			
0.1638	10482.35	4.0000	4.0000	0.9168	26.42	0.46	0.050			
0.1647	10540.17	3.9990	3.9990	0.9138	26.38	0.42	0.050			
0.1656	10598.01	3.9980	3.9979	0.9149	26.35	0.39	0.050			
0.1665	10655.81	3.9970	3.9968	0.9139	26.31	0.35	0.050			
0.1674	10713.93	3.9960	3.9960	0.9158	26.28	0.32	0.050			
0.1683	10772.04	3.9950	3.9950	0.9181	26.24	0.28	0.050			
0.1692	10830.39	3.9940	3.9940	0.9216	26.21	0.25	0.050			
0.1701	10889.25	3.9930	3.9931	0.9231	26.17	0.21	0.050			
0.1711	10948.51	3.9920	3.9921	0.9264	26.14	0.18	0.050			
0.1720	11007.95	3.9910	3.9910	0.9289	26.10	0.14	0.050			
0.1729	11067.77	3.9900	3.9899	0.9319	26.06	0.10	0.050			
0.1739	11127.82	3.9890	3.9889	0.9343	26.02	0.06	0.050			
0.1748	11189.02	3.9880	3.9880	0.9361	25.99	0.03	0.050			
0.1758	11249.04	3.9870	3.9869	0.9376	25.95	-0.01	0.050			
0.1767	11309.33	3.9860	3.9861	0.9352	25.91	-0.05	0.050			
0.1776	11369.56	3.9850	3.9850	0.9367	25.88	-0.08	0.050			
0.1786	11429.86	3.9840	3.9841	0.9371	25.84	-0.12	0.050			
0.1795	11489.84	3.9830	3.9830	0.9364	25.81	-0.15	0.050	0.233	0.405	
0.1805	11550.54	3.9820	3.9819	0.9365	25.78	-0.18	0.050			
0.1814	11610.54	3.9810	3.9809	0.9357	25.74	-0.22	0.050			
0.1824	11670.60	3.9800	3.9801	0.9356	25.71	-0.25	0.050			
0.1833	11730.12	3.9790	3.9790	0.9344	25.68	-0.28	0.050			
0.1842	11789.48	3.9780	3.9780	0.9322	25.66	-0.30	0.050			
0.1851	11849.53	3.9770	3.9771	0.9306	25.63	-0.33	0.050			
0.1861	11908.57	3.9760	3.9759	0.9282	25.60	-0.36	0.050			
0.1870	11967.89	3.9750	3.9749	0.9280	25.57	-0.39	0.050			
0.1879	12026.84	3.9740	3.9740	0.9269	25.55	-0.41	0.050			
0.1888	12086.23	3.9730	3.9730	0.9258	25.53	-0.43	0.050			
0.1898	12145.24	3.9720	3.9720	0.9263	25.50	-0.46	0.050			
0.1907	12204.04	3.9710	3.9710	0.9273	25.48	-0.48	0.050			
0.1916	12262.17	3.9700	3.9702	0.9318	25.46	-0.50	0.050			
0.1925	12321.69	3.9690	3.9691	0.9343	25.43	-0.53	0.050			
0.1935	12381.52	3.9680	3.9681	0.9364	25.41	-0.55	0.050			
0.1944	12441.24	3.9670	3.9669	0.9381	25.39	-0.57	0.050			
0.1953	12501.42	3.9660	3.9660	0.9407	25.37	-0.59	0.050			
0.1963	12561.48	3.9650	3.9649	0.9430	25.35	-0.61	0.050			
0.1972	12621.87	3.9640	3.9640	0.9448	25.30	-0.66	0.050			
0.1982	12682.56	3.9630	3.9629	0.9480	25.27	-0.69	0.050			
0.1991	12743.28	3.9620	3.9621	0.9515	25.23	-0.73	0.050			
0.2001	12804.93	3.9610	3.9610	0.9521	25.18	-0.78	0.050	0.370	0.511	
0.2010	12866.49	3.9600	3.9602	0.9531	25.14	-0.82	0.050			
0.2020	12928.24	3.9590	3.9591	0.9537	25.09	-0.87	0.050			
0.2030	12990.28	3.9580	3.9579	0.9552	25.06	-0.90	0.050			
0.2039	13051.98	3.9570	3.9569	0.9553	25.02	-0.94	0.050			
0.2049	13113.48	3.9560	3.9560	0.9542	24.99	-0.97	0.050			
0.2059	13174.59	3.9550	3.9550	0.9531	24.96	-1.00	0.050			
0.2068	13235.52	3.9540	3.9540	0.9527	24.92	-1.04	0.050			
0.2078	13296.65	3.9530	3.9531	0.9510	24.89	-1.07	0.050			
0.2087	13357.17	3.9520	3.9520	0.9463	24.86	-1.10	0.050			
0.2097	13417.70	3.9510	3.9509	0.9435	24.83	-1.13	0.050			
0.2106	13477.64	3.9500	3.9500	0.9397	24.80	-1.16	0.050			
0.2115	13538.00	3.9490	3.9490	0.9386	24.78	-1.18	0.050			
0.2125	13598.45	3.9480	3.9479	0.9385	24.76	-1.20	0.050			
0.2134	13658.38	3.9470	3.9470	0.9351	24.74	-1.22	0.050			
0.2143	13717.91	3.9460	3.9460	0.9332	24.71	-1.25	0.050			
0.2153	13777.36	3.9450	3.9450	0.9311	24.71	-1.25	0.050			
0.2162	13836.78	3.9440	3.9440	0.9289	24.70	-1.26	0.050			
0.2171	13896.09	3.9430	3.9431	0.9275	24.70	-1.26	0.050			
0.2180	13954.97	3.9420	3.9419	0.9267	24.69	-1.27	0.050			
0.2190	14014.65	3.9410	3.9410	0.9263	24.69	-1.27	0.050			
0.2199	14074.15	3.9400	3.9398	0.9241	24.69	-1.27	0.050	0.429	0.459	
0.2208	14133.32	3.9390	3.9389	0.9219	24.71	-1.25	0.050			
0.2218	14192.50	3.9380	3.9380	0.9181	24.72	-1.24	0.050			
0.2227	14251.38	3.9370	3.9369	0.9139	24.74	-1.22	0.050			
0.2236	14310.00	3.9360	3.9360	0.9111	24.76	-1.20	0.050			
0.2245	14368.18	3.9350	3.9350	0.9087	24.79	-1.17	0.050			
0.2254	14426.36	3.9340	3.9339	0.9057	24.81	-1.15	0.050			
0.2263	14484.44	3.9330	3.9330	0.9032	24.86	-1.10	0.050			
0.2272	14542.48	3.9320	3.9321	0.9018	24.90	-1.06	0.050			
0.2281	14600.10	3.9310	3.9312	0.8991	24.95	-1.01	0.050			
0.2290	14657.07	3.9300	3.9300	0.8974	25.01	-0.95	0.050			
0.2299	14714.32	3.9290	3.9290	0.8947	25.08	-0.88	0.050			
0.2308	14770.75	3.9280	3.9278	0.8919	25.15	-0.81	0.050			
0.2317	14827.16	3.9270	3.9269	0.8917	25.24	-0.72	0.050			
0.2326	14883.56	3.9260	3.9260	0.8901	25.32	-0.64	0.050			
0.2334	14939.88	3.9250	3.9250	0.8909	25.42	-0.54	0.050			
0.2343	14996.20	3.9240	3.9240	0.8909	25.51	-0.45	0.050			
0.2352	15052.64	3.9230	3.9230	0.8921	25.60	-0.36	0.050			
0.2361	15108.98	3.9220	3.9219	0.8940	25.68	-0.28	0.050			
0.2370	15166.20	3.9210	3.9211	0.8967	25.76	-0.20	0.050			
0.2379	15224.48	3.9200	3.9200	0.9008	25.82	-0.14	0.050			
0.2388	15282.00	3.9190	3.9189	0.9033	25.90	-0.06	0.050			
0.2397	15340.05	3.9180	3.9180	0.9058	25.95	-0.01	0.050	0.274	0.433	
0.2406	15398.37	3.9170	3.9169	0.9076	25.98	0.02	0.050			
0.2415	15456.64	3.9160	3.9159	0.9087	26.00	0.04	0.050			
0.2424	15515.15	3.9150	3.9151	0.9102	25.98	0.02	0.050			
0.2433	15573.78	3.9140	3.9140	0.9102	25.95	-0.01	0.050			
0.2443	15632.89	3.9130	3.9130	0.9117	25.90	-0.06	0.050			
0.2452	15691.53	3.9120	3.9120	0.9109	25.85	-0.11	0.050			
0.2461	15750.60	3.9110	3.9110	0.9084	25.79	-0.17	0.050			
0.2470	15809.90	3.9100	3.9099	0.9065	25.75	-0.21	0.050			
0.2479	15868.73	3.9090	3.9090	0.9015	25.70	-0.26	0.050			
0.2489	15927.05	3.9080	3.9080	0.8977	25.65	-0.31	0.050			
0.2498	15984.52	3.9070	3.9070	0.8932	25.60	-0.36	0.050			
0.2506	16041.42	3.9060	3.9060	0.8896	25.56	-0.40	0.050			
0.2515	16098.01	3.9050	3.9050	0.8854	25.51	-0.45	0.050			
0.2524	16154.22	3.9040	3.9039	0.8823	25.46	-0.50	0.050			
0.2533	16210.30	3.9030	3.9030	0.8776	25.41	-0.55	0.050			
0.2542	16265.69	3.9020	3.9020	0.8743	25.37	-0.59	0.050			
0.2550	16321.24	3.9010	3.9010	0.8711	25.33	-0.63	0.050			
0.2559	16376.43	3.9000	3.9000	0.8676	25.28	-0.68	0.050			
0.2567	16431.56	3.8990	3.8988	0.8649	25.24	-0.72	0.050			
0.2576	16486.10	3.8980	3.8979	0.8624	25.20	-0.76	0.050			
0.2585	16541.14	3.8970	3.8969	0.8613	25.15	-0.81	0.050			
0.2593	16595.60	3.8960	3.8960	0.8595	25.10	-0.86	0.050			
0.2602	16650.37	3.8950	3.8947	0.8582	25.06	-0.90	0.050	0.213	0.391	
0.2610	16705.45	3.8940	3.8943	0.8580	25.02	-0.94	0.050			
0.2619	16760.13	3.8930	3.8929	0.8573	24.97	-0.99	0.050			
0.2627	16815.17	3.8920	3.8920	0.8572	24.93	-1.03	0.050			
0.2636	16871.03	3.8910	3.8910	0.8575	24.89	-1.07	0.050			
0.2645	16926.25	3.8900	3.8899	0.8560	24.85	-1.11	0.050			
0.2653	16981.60	3.8890	3.8890	0.8543	24.81	-1.15	0.050			
0.2662	17035.92	3.8880	3.8881	0.8514	24.75	-1.21	0.050			
0.2670	17090.32	3.8870	3.8869	0.8486	24.73	-1.23	0.050			
0.2679	17144.81	3.8860	3.8860	0.8451	24.69	-1.27	0.050			
0.2687	17199.10	3.8850	3.8849	0.8415	24.65	-1.31	0.050			
0.2696	17253.08	3.8840	3.8841	0.8387	24.61	-1.35	0.050			
0.2704	17307.28	3.8830	3.8831	0.8371	24.57	-1.39	0.050			
0.2713	17360.04	3.8820	3.8821	0.8343	24.53	-1.43	0.050			
0.2721	17412.98	3.8810	3.8811	0.8316	24.50	-1.46	0.050			
0.2729	17466.20	3.8800	3.8800	0.8304	24.46	-1.50	0.050			
0.2737	17518.32	3.8790	3.8790	0.8297	24.44	-1.52	0.050			
0.2745	17570.62	3.8780	3.8781	0.8283	24.40	-1.56	0.050			
0.2754	17623.74	3.8770	3.8770	0.8270	24.37	-1.59	0.050			
0.2762	17676.57	3.8760	3.8759	0.8247	24.34	-1.62	0.050			
0.2770	17729.08	3.8750	3.8750	0.8234	24.30	-1.66	0.050			
0.2778	17781.40	3.8740	3.8740	0.8232	24.28	-1.68	0.050			
0.2787	17834.03	3.8730	3.8730	0.8233	24.25	-1.71	0.050			
0.2795	17886.54	3.8720	3.8720	0.8234	24.22	-1.74	0.050			
0.2803	17939.14	3.8710	3.8709	0.8246	24.20	-1.76	0.050	0.352	0.497	
0.2811	17992.35	3.8700	3.8700	0.8250	24.17	-1.79	0.050			
0.2820	18045.16	3.8690	3.8691	0.8249	24.14	-1.82	0.050			
0.2828	18098.03	3.8680	3.8682	0.8248	24.12	-1.84	0.050			
0.2836	18151.25	3.8670	3.8670	0.8239	24.11	-1.85	0.050			
0.2844	18204.52	3.8660	3.8658	0.8233	24.10	-1.86	0.050			
0.2853	18257.38	3.8650	3.8650	0.8229	24.08	-1.88	0.050			
0.2861	18310.80	3.8640	3.8641	0.8202	24.07	-1.89	0.050			
0.2869	18363.38	3.8630	3.8629	0.8163	24.06	-1.90	0.050			
0.2877	18415.50	3.8620	3.8620	0.8132	24.06	-1.90	0.050			
0.2886	18467.37	3.8610	3.8611	0.8102	24.06	-1.90	0.050			
0.2894	18519.19	3.8600	3.8600	0.8081	24.08	-1.88	0.050			
0.2902	18570.77	3.8590	3.8591	0.8059	24.10	-1.86	0.050			
0.2910	18622.49	3.8580	3.8582	0.8038	24.11	-1.85	0.050			
0.2918	18673.73	3.8570	3.8571	0.8030	24.13	-1.83	0.050			
0.2926	18725.28	3.8560	3.8559	0.8010	24.17	-1.79	0.050			
0.2934	18775.71	3.8550	3.8551	0.7994	24.19	-1.77	0.050			
0.2942	18826.33	3.8540	3.8539	0.7976	24.24	-1.72	0.050			
0.2949	18876.59	3.8530	3.8529	0.7961	24.28	-1.68	0.050			
0.2957	18927.30	3.8520	3.8519	0.7955	24.32	-1.64	0.050			
0.2965	18977.91	3.8510	3.8510	0.7945	24.38	-1.58	0.050			
0.2973	19028.80	3.8500	3.8500	0.7939	24.44	-1.52	0.050			
0.2981	19079.51	3.8490	3.8490	0.7931	24.50	-1.46	0.050			
0.2989	19130.24	3.8480	3.8480	0.7936	24.57	-1.39	0.050			
0.2997	19180.95	3.8470	3.8470	0.7947	24.65	-1.31	0.050	0.410	0.558	
0.3005	19231.95	3.8460	3.8460	0.7946	24.73	-1.23	0.050			
0.3013	19282.39	3.8450	3.8450	0.7957	24.82	-1.14	0.050			
0.3021	19333.54	3.8440	3.8441	0.7978	24.92	-1.04	0.050			
0.3029	19384.70	3.8430	3.8432	0.7994	25.04	-0.92	0.050			
0.3037	19435.84	3.8420	3.8420	0.8004	25.15	-0.81	0.050			
0.3045	19486.82	3.8410	3.8410	0.8013	25.29	-0.67	0.050			
0.3053	19538.53	3.8400	3.8401	0.8008	25.40	-0.56	0.050			
0.3061	19589.75	3.8390	3.8388	0.8016	25.52	-0.44	0.050			
0.3069	19641.33	3.8380	3.8380	0.8017	25.63	-0.33	0.050			
0.3077	19692.35	3.8370	3.8370	0.8027	25.76	-0.20	0.050			
0.3085	19743.66	3.8360	3.8360	0.8028	25.87	-0.09	0.050			
0.3093	19794.78	3.8350	3.8351	0.8054	25.98	0.02	0.050			
0.3101	19846.03	3.8340	3.8340	0.8077	26.09	0.13	0.050			
0.3109	19897.79	3.8330	3.8331	0.8098	26.18	0.22	0.050			
0.3117	19949.21	3.8320	3.8321	0.8139	26.26	0.30	0.050			
0.3125	20001.24	3.8310	3.8310	0.8174	26.32	0.36	0.050			
0.3133	20053.56	3.8300	3.8299	0.8200	26.38	0.42	0.050			
0.3142	20106.33	3.8290	3.8290	0.8223	26.41	0.45	0.050			
0.3150	20158.43	3.8280	3.8279	0.8242	26.40	0.44	0.050			
0.3158	20211.21	3.8270	3.8270	0.8274	26.37	0.41	0.050			
0.3166	20263.95	3.8260	3.8259	0.8310	26.33	0.37	0.050			
0.3175	20317.31	3.8250	3.8250	0.8329	26.27	0.31	0.050			
0.3183	20371.08	3.8240	3.8239	0.8356	26.22	0.26	0.050			
0.3191	20424.86	3.8230	3.8230	0.8385	26.17	0.21	0.050			
0.3200	20479.15	3.8220	3.8221	0.8425	26.13	0.17	0.050	0.294	0.472	
0.3208	20533.69	3.8210	3.8211	0.8457	26.08	0.12	0.050			
0.3217	20587.88	3.8200	3.8200	0.8484	26.03	0.07	0.050			
0.3225	20642.82	3.8190	3.8188	0.8511	25.98	0.02	0.050			
0.3234	20696.60	3.8180	3.8180	0.8540	25.93	-0.03	0.050			
0.3242	20751.07	3.8170	3.8169	0.8563	25.89	-0.07	0.050			
0.3251	20805.57	3.8160	3.8160	0.8607	25.83	-0.13	0.050			
0.3259	20860.10	3.8150	3.8149	0.8624	25.78	-0.18	0.050			
0.3268	20915.37	3.8140	3.8140	0.8655	25.73	-0.23	0.050			
0.3277	20970.80	3.8130	3.8130	0.8689	25.68	-0.28	0.050			
0.3285	21026.66	3.8120	3.8120	0.8703	25.62	-0.34	0.050			
0.3294	21083.83	3.8110	3.8108	0.8709	25.57	-0.39	0.050			
0.3303	21139.77	3.8100	3.8101	0.8729	25.53	-0.43	0.050			
0.3312	21196.13	3.8090	3.8089	0.8760	25.47	-0.49	0.050			
0.3321	21252.17	3.8080	3.8080	0.8771	25.42	-0.54	0.050			
0.3329	21308.52	3.8070	3.8071	0.8782	25.36	-0.60	0.050			
0.3338	21365.16	3.8060	3.8060	0.8802	25.31	-0.65	0.050			
0.3347	21421.73	3.8050	3.8050	0.8821	25.26	-0.70	0.050			
0.3356	21478.74	3.8040	3.8041	0.8833	25.21	-0.75	0.050			
0.3365	21534.86	3.8030	3.8031	0.8843	25.16	-0.80	0.050			
0.3374	21591.05	3.8020	3.8020	0.8861	25.11	-0.85	0.050			
0.3382	21647.40	3.8010	3.8007	0.8878	25.07	-0.89	0.050			
0.3391	21703.53	3.8000	3.8000	0.8900	25.02	-0.94	0.050			
0.3400	21759.94	3.7990	3.7990	0.8932	24.97	-0.99	0.050	0.334	0.491	
0.3409	21816.11	3.7980	3.7980	0.8959	24.91	-1.05	0.050			
0.3418	21872.85	3.7970	3.7970	0.9005	24.86	-1.10	0.050			
0.3427	21930.00	3.7960	3.7959	0.9057	24.80	-1.16	0.050			
0.3436	21987.96	3.7950	3.7951	0.9128	24.75	-1.21	0.050			
0.3445	22046.51	3.7940	3.7939	0.9188	24.71	-1.25	0.050			
0.3454	22105.64	3.7930	3.7930	0.9266	24.65	-1.31	0.050			
0.3463	22165.44	3.7920	3.7919	0.9326	24.59	-1.37	0.050			
0.3473	22225.77	3.7910	3.7910	0.9390	24.52	-1.44	0.050			
0.3482	22286.06	3.7900	3.7900	0.9438	24.47	-1.49	0.050			
0.3492	22346.87	3.7890	3.7890	0.9477	24.41	-1.55	0.050			
0.3501	22408.09	3.7880	3.7879	0.9544	24.35	-1.61	0.050			
0.3511	22469.60	3.7870	3.7870	0.9593	24.29	-1.67	0.050			
0.3521	22531.38	3.7860	3.7862	0.9655	24.24	-1.72	0.050			
0.3530	22593.52	3.7850	3.7851	0.9701	24.17	-1.79	0.050			
0.3540	22656.69	3.7840	3.7841	0.9744	24.10	-1.86	0.050			
0.3550	22719.49	3.7830	3.7830	0.9766	24.05	-1.91	0.050			
0.3560	22782.36	3.7820	3.7820	0.9797	23.99	-1.97	0.050			
0.3570	22844.92	3.7810	3.7811	0.9823	23.92	-2.04	0.050			
0.3579	22908.12	3.7800	3.7800	0.9853	23.87	-2.09	0.050			
0.3589	22970.86	3.7790	3.7788	0.9895	23.81	-2.15	0.050			
0.3599	23033.48	3.7780	3.7779	0.9942	23.75	-2.21	0.050	0.408	0.588	
0.3609	23096.36	3.7770	3.7770	1.0008	23.69	-2.27	0.050			
0.3619	23159.70	3.7760	3.7761	1.0063	23.65	-2.31	0.050			
0.3629	23223.21	3.7750	3.7752	1.0134	23.60	-2.36	0.050			
0.3639	23288.61	3.7740	3.7739	1.0194	23.57	-2.39	0.050			
0.3649	23353.77	3.7730	3.7728	1.0252	23.55	-2.41	0.050			
0.3659	23419.96	3.7720	3.7719	1.0321	23.53	-2.43	0.050			
0.3670	23485.70	3.7710	3.7708	1.0401	23.52	-2.44	0.050			
0.3680	23552.72	3.7700	3.7700	1.0474	23.54	-2.42	0.050			
0.3691	23619.97	3.7690	3.7690	1.0542	23.56	-2.40	0.050			
0.3701	23687.54	3.7680	3.7681	1.0621	23.59	-2.37	0.050			
0.3712	23755.54	3.7670	3.7670	1.0706	23.65	-2.31	0.050			
0.3723	23824.62	3.7660	3.7662	1.0783	23.72	-2.24	0.050			
0.3734	23894.98	3.7650	3.7651	1.0863	23.81	-2.15	0.050			
0.3745	23965.48	3.7640	3.7639	1.0943	23.92	-2.04	0.050			
0.3756	24035.43	3.7630	3.7629	1.1027	24.04	-1.92	0.050			
0.3767	24105.83	3.7620	3.7619	1.1092	24.19	-1.77	0.050			
0.3778	24177.46	3.7610	3.7611	1.1144	24.35	-1.61	0.050			
0.3789	24249.41	3.7600	3.7599	1.1188	24.52	-1.44	0.050			
0.3800	24321.33	3.7590	3.7589	1.1220	24.72	-1.24	0.050	0.151	0.456	
0.3811	24393.58	3.7580	3.7580	1.1252	24.92	-1.04	0.050			
0.3823	24465.13	3.7570	3.7571	1.1317	25.12	-0.84	0.050			
0.3834	24537.57	3.7560	3.7559	1.1373	25.34	-0.62	0.050			
0.3845	24610.42	3.7550	3.7549	1.1465	25.56	-0.40	0.050			
0.3857	24683.84	3.7540	3.7540	1.1562	25.76	-0.20	0.050			
0.3868	24757.39	3.7530	3.7531	1.1632	25.97	0.01	0.050			
0.3880	24831.29	3.7520	3.7521	1.1712	26.15	0.19	0.050			
0.3892	24905.91	3.7510	3.7510	1.1780	26.31	0.35	0.050			
0.3903	24981.25	3.7500	3.7501	1.1876	26.44	0.48	0.050			
0.3915	25057.66	3.7490	3.7488	1.1958	26.52	0.56	0.050			
0.3927	25133.94	3.7480	3.7478	1.2043	26.52	0.56	0.050			
0.3939	25211.28	3.7470	3.7470	1.2125	26.47	0.51	0.050			
0.3952	25290.26	3.7460	3.7459	1.2193	26.43	0.47	0.050			
0.3964	25368.98	3.7450	3.7451	1.2272	26.39	0.43	0.050			
0.3976	25447.70	3.7440	3.7440	1.2344	26.35	0.39	0.050			
0.3989	25526.89	3.7430	3.7431	1.2429	26.31	0.35	0.050			
0.4001	25607.44	3.7420	3.7420	1.2536	26.26	0.30	0.050	0.314	0.443	
0.4014	25688.48	3.7410	3.7409	1.2647	26.23	0.27	0.050			
0.4026	25769.21	3.7400	3.7400	1.2756	26.19	0.23	0.050			
0.4039	25851.18	3.7390	3.7390	1.2842	26.15	0.19	0.050			
0.4052	25932.67	3.7380	3.7382	1.2926	26.12	0.16	0.050			
0.4065	26013.81	3.7370	3.7370	1.3023	26.09	0.13	0.050			
0.4078	26096.78	3.7360	3.7360	1.3143	26.06	0.10	0.050			
0.4091	26179.86	3.7350	3.7350	1.3254	26.03	0.07	0.050			
0.4104	26264.77	3.7340	3.7339	1.3371	26.01	0.05	0.050			
0.4117	26351.58	3.7330	3.7330	1.3479	25.98	0.02	0.050			
0.4131	26439.02	3.7320	3.7319	1.3579	25.96	-0.00	0.050			
0.4145	26528.46	3.7310	3.7310	1.3639	25.94	-0.02	0.050			
0.4159	26616.65	3.7300	3.7300	1.3727	25.95	-0.01	0.050			
0.4173	26705.98	3.7290	3.7289	1.3818	25.92	-0.04	0.050			
0.4187	26795.17	3.7280	3.7281	1.3903	25.85	-0.11	0.050			
0.4201	26884.97	3.7270	3.7270	1.4012	25.78	-0.18	0.050	0.051	0.356	
0.4215	26975.14	3.7260	3.7261	1.4110	25.70	-0.26	0.050			
0.4229	27065.30	3.7250	3.7253	1.4162	25.62	-0.34	0.050			
0.4243	27155.82	3.7240	3.7240	1.4229	25.54	-0.42	0.050			
0.4257	27246.81	3.7230	3.7231	1.4288	25.47	-0.49	0.050			
0.4272	27337.83	3.7220	3.7219	1.4367	25.40	-0.56	0.050			
0.4286	27428.70	3.7210	3.7210	1.4439	25.33	-0.63	0.050			
0.4300	27519.66	3.7200	3.7200	1.4547	25.24	-0.72	0.050			
0.4314	27612.79	3.7190	3.7190	1.4657	25.16	-0.80	0.050			
0.4329	27705.99	3.7180	3.7181	1.4752	25.09	-0.87	0.050			
0.4344	27799.49	3.7170	3.7170	1.4854	25.01	-0.95	0.050			
0.4359	27895.44	3.7160	3.7161	1.4979	24.94	-1.02	0.050			
0.4374	27992.84	3.7150	3.7151	1.5083	24.85	-1.11	0.050			
0.4389	28090.89	3.7140	3.7140	1.5211	24.78	-1.18	0.050			
0.4405	28189.70	3.7130	3.7129	1.5377	24.71	-1.25	0.050	0.245	0.556	
0.4420	28287.65	3.7120	3.7119	1.5531	24.63	-1.33	0.050			
0.4435	28386.51	3.7110	3.7111	1.5654	24.56	-1.40	0.050			
0.4451	28486.86	3.7100	3.7100	1.5767	24.50	-1.46	0.050			
0.4467	28587.61	3.7090	3.7091	1.5897	24.43	-1.53	0.050			
0.4483	28688.87	3.7080	3.7081	1.6048	24.38	-1.58	0.050			
0.4499	28791.22	3.7070	3.7069	1.6211	24.32	-1.64	0.050			
0.4515	28895.79	3.7060	3.7060	1.6364	24.26	-1.70	0.050			
0.4531	29001.15	3.7050	3.7048	1.6529	24.21	-1.75	0.050			
0.4548	29107.47	3.7040	3.7040	1.6656	24.16	-1.80	0.050			
0.4565	29213.91	3.7030	3.7031	1.6830	24.12	-1.84	0.050			
0.4581	29321.57	3.7020	3.7022	1.6982	24.10	-1.86	0.050			
0.4598	29429.89	3.7010	3.7010	1.7165	24.10	-1.86	0.050	0.327	0.521	
0.4616	29539.51	3.7000	3.7000	1.7362	24.11	-1.85	0.050			
0.4633	29651.53	3.6990	3.6990	1.7583	24.15	-1.81	0.050			
0.4651	29764.14	3.6980	3.6980	1.7798	24.21	-1.75	0.050			
0.4669	29878.74	3.6970	3.6970	1.8009	24.27	-1.69	0.050			
0.4687	29995.19	3.6960	3.6960	1.8235	24.38	-1.58	0.050			
0.4705	30112.68	3.6950	3.6950	1.8432	24.54	-1.42	0.050			
0.4723	30229.72	3.6940	3.6938	1.8616	24.71	-1.25	0.050			
0.4742	30348.22	3.6930	3.6930	1.8827	24.91	-1.05	0.050			
0.4761	30468.02	3.6920	3.6920	1.9091	25.12	-0.84	0.050			
0.4780	30591.85	3.6910	3.6911	1.9372	25.35	-0.61	0.050			
0.4799	30716.72	3.6900	3.6901	1.9620	25.59	-0.37	0.050			
0.4819	30841.93	3.6890	3.6889	1.9860	25.79	-0.17	0.050			
0.4839	30969.67	3.6880	3.6880	2.0124	25.94	-0.02	0.050			
0.4859	31100.22	3.6870	3.6869	2.0383	26.00	0.04	0.050			
0.4880	31232.09	3.6860	3.6857	2.0642	25.91	-0.05	0.050			
0.4901	31364.99	3.6850	3.6848	2.0906	25.80	-0.16	0.050			
0.4922	31499.77	3.6840	3.6840	2.1157	25.71	-0.25	0.050			
0.4943	31635.77	3.6830	3.6829	2.1380	25.62	-0.34	0.050			
0.4965	31774.11	3.6820	3.6819	2.1603	25.53	-0.43	0.050			
0.4987	31913.65	3.6810	3.6810	2.1820	25.45	-0.51	0.050			
0.5008	32054.07	3.6800	3.6801	2.2073	25.36	-0.60	0.050	0.240	0.371	
0.5031	32196.52	3.6790	3.6791	2.2314	25.28	-0.68	0.050			
0.5053	32340.23	3.6780	3.6779	2.2554	25.22	-0.74	0.050			
0.5076	32486.74	3.6770	3.6770	2.2772	25.17	-0.79	0.050			
0.5099	32634.62	3.6760	3.6760	2.2951	25.11	-0.85	0.050			
0.5122	32783.71	3.6750	3.6750	2.3076	25.01	-0.95	0.050			
0.5146	32931.92	3.6740	3.6740	2.3207	24.93	-1.03	0.050			
0.5169	33080.98	3.6730	3.6730	2.3375	24.83	-1.13	0.050			
0.5192	33229.70	3.6720	3.6719	2.3637	24.76	-1.20	0.050	0.247	0.386	
0.5216	33380.69	3.6710	3.6712	2.3914	24.68	-1.28	0.050			
0.5239	33532.39	3.6700	3.6701	2.4135	24.62	-1.34	0.050			
0.5263	33686.15	3.6690	3.6689	2.4430	24.56	-1.40	0.050			
0.5288	33842.69	3.6680	3.6680	2.4682	24.54	-1.42	0.050			
0.5313	34000.28	3.6670	3.6669	2.4980	24.54	-1.42	0.050			
0.5337	34158.76	3.6660	3.6659	2.5291	24.57	-1.39	0.050			
0.5363	34320.79	3.6650	3.6649	2.5610	24.65	-1.31	0.050			
0.5388	34485.93	3.6640	3.6638	2.5892	24.75	-1.21	0.050			
0.5414	34652.14	3.6630	3.6631	2.6184	24.89	-1.07	0.050			
0.5441	34821.77	3.6620	3.6621	2.6435	25.12	-0.84	0.050			
0.5468	34992.90	3.6610	3.6610	2.6730	25.42	-0.54	0.050			
0.5495	35166.76	3.6600	3.6601	2.7056	25.78	-0.18	0.050			
0.5522	35342.45	3.6590	3.6590	2.7413	26.07	0.11	0.050			
0.5550	35520.98	3.6580	3.6579	2.7731	26.21	0.25	0.050			
0.5578	35701.20	3.6570	3.6570	2.7940	26.12	0.16	0.050			
0.5606	35880.01	3.6560	3.6558	2.8069	25.95	-0.01	0.050	0.062	0.225	
0.5634	36057.28	3.6550	3.6550	2.8224	25.80	-0.16	0.050			
0.5662	36237.85	3.6540	3.6539	2.8500	25.62	-0.34	0.050			
0.5691	36420.90	3.6530	3.6531	2.8830	25.44	-0.52	0.050			
0.5720	36606.37	3.6520	3.6520	2.9068	25.27	-0.69	0.050			
0.5750	36799.50	3.6510	3.6511	2.9015	25.10	-0.86	0.050			
0.5780	36991.94	3.6500	3.6500	2.8877	24.94	-1.02	0.050			
0.5810	37181.61	3.6490	3.6489	2.8798	24.80	-1.16	0.050	0.297	0.435	
0.5839	37369.44	3.6480	3.6480	2.8659	24.66	-1.30	0.050			
0.5868	37555.63	3.6470	3.6469	2.8440	24.54	-1.42	0.050			
0.5897	37741.50	3.6460	3.6461	2.8202	24.42	-1.54	0.050			
0.5925	37921.70	3.6450	3.6450	2.7767	24.31	-1.65	0.050			
0.5953	38097.44	3.6440	3.6440	2.7334	24.22	-1.74	0.050			
0.5980	38270.93	3.6430	3.6428	2.6886	24.14	-1.82	0.050			
0.6007	38443.22	3.6420	3.6417	2.6401	24.06	-1.90	0.050	0.296	0.510	
0.6033	38611.17	3.6410	3.6409	2.5929	23.99	-1.97	0.050			
0.6058	38772.32	3.6400	3.6401	2.5358	23.97	-1.99	0.050			
0.6083	38931.21	3.6390	3.6391	2.4835	23.99	-1.97	0.050			
0.6107	39086.33	3.6380	3.6381	2.4350	24.05	-1.91	0.050			
0.6131	39239.91	3.6370	3.6370	2.3935	24.14	-1.82	0.050			
0.6155	39391.75	3.6360	3.6359	2.3622	24.30	-1.66	0.050			
0.6179	39542.78	3.6350	3.6352	2.3358	24.49	-1.47	0.050			
0.6202	39691.48	3.6340	3.6341	2.3017	24.75	-1.21	0.050	0.206	0.463	
0.6225	39837.16	3.6330	3.6329	2.2609	25.03	-0.93	0.050			
0.6247	39979.41	3.6320	3.6319	2.2193	25.31	-0.65	0.050			
0.6269	40119.10	3.6310	3.6310	2.1769	25.58	-0.38	0.050			
0.6290	40256.06	3.6300	3.6301	2.1356	25.80	-0.16	0.050			
0.6311	40392.16	3.6290	3.6288	2.0993	25.94	-0.02	0.050			
0.6332	40525.44	3.6280	3.6280	2.0650	25.91	-0.05	0.050			
0.6353	40656.81	3.6270	3.6271	2.0284	25.81	-0.15	0.050			
0.6373	40786.75	3.6260	3.6261	1.9912	25.71	-0.25	0.050			
0.6393	40913.76	3.6250	3.6251	1.9527	25.62	-0.34	0.050	0.346	0.503	
0.6412	41039.86	3.6240	3.6240	1.9138	25.54	-0.42	0.050			
0.6432	41162.67	3.6230	3.6230	1.8720	25.46	-0.50	0.050			
0.6450	41282.02	3.6220	3.6219	1.8261	25.38	-0.58	0.050			
0.6468	41397.73	3.6210	3.6209	1.7813	25.29	-0.67	0.050			
0.6486	41510.26	3.6200	3.6198	1.7365	25.21	-0.75	0.050			
0.6503	41620.43	3.6190	3.6190	1.6939	25.13	-0.83	0.050			
0.6520	41725.31	3.6180	3.6179	1.6486	25.05	-0.91	0.050			
0.6536	41827.82	3.6170	3.6171	1.6079	24.99	-0.97	0.050			
0.6551	41927.70	3.6160	3.6159	1.5687	24.93	-1.03	0.050			
0.6566	42024.94	3.6150	3.6150	1.5338	24.86	-1.10	0.050			
0.6581	42120.04	3.6140	3.6140	1.5057	24.81	-1.15	0.050			
0.6596	42213.60	3.6130	3.6130	1.4764	24.75	-1.21	0.050	0.350	0.503	
0.6610	42305.63	3.6120	3.6120	1.4491	24.71	-1.25	0.050			
0.6624	42394.95	3.6110	3.6110	1.4228	24.66	-1.30	0.050			
0.6638	42482.61	3.6100	3.6101	1.3964	24.63	-1.33	0.050			
0.6651	42569.13	3.6090	3.6090	1.3696	24.59	-1.37	0.050			
0.6665	42655.38	3.6080	3.6079	1.3475	24.56	-1.40	0.050			
0.6678	42740.46	3.6070	3.6070	1.3313	24.54	-1.42	0.050			
0.6691	42824.74	3.6060	3.6060	1.3164	24.53	-1.43	0.050			
0.6704	42907.81	3.6050	3.6051	1.3026	24.53	-1.43	0.050			
0.6717	42990.50	3.6040	3.6041	1.2921	24.53	-1.43	0.050			
0.6730	43072.18	3.6030	3.6029	1.2813	24.53	-1.43	0.050			
0.6743	43153.76	3.6020	3.6021	1.2697	24.54	-1.42	0.050			
0.6755	43233.53	3.6010	3.6011	1.2554	24.57	-1.39	0.050			
0.6768	43312.60	3.6000	3.6000	1.2472	24.61	-1.35	0.050			
0.6780	43391.27	3.5990	3.5987	1.2377	24.65	-1.31	0.050			
0.6792	43469.29	3.5980	3.5977	1.2279	24.71	-1.25	0.050			
0.6804	43547.11	3.5970	3.5968	1.2194	24.76	-1.20	0.050	0.386	0.512	
0.6816	43624.61	3.5960	3.5959	1.2116	24.83	-1.13	0.050			
0.6828	43701.16	3.5950	3.5950	1.2035	24.90	-1.06	0.050			
0.6840	43777.73	3.5940	3.5941	1.1961	24.99	-0.97	0.050			
0.6852	43853.98	3.5930	3.5930	1.1928	25.10	-0.86	0.050			
0.6864	43930.01	3.5920	3.5920	1.1897	25.22	-0.74	0.050			
0.6876	44006.15	3.5910	3.5909	1.1865	25.33	-0.63	0.050			
0.6888	44082.60	3.5900	3.5902	1.1846	25.44	-0.52	0.050			
0.6900	44158.23	3.5890	3.5890	1.1805	25.55	-0.41	0.050			
0.6911	44233.52	3.5880	3.5880	1.1759	25.61	-0.35	0.050			
0.6923	44308.02	3.5870	3.5871	1.1681	25.70	-0.26	0.050			
0.6935	44382.54	3.5860	3.5859	1.1627	25.76	-0.20	0.050			
0.6946	44457.27	3.5850	3.5851	1.1553	25.77	-0.19	0.050			
0.6958	44530.93	3.5840	3.5840	1.1504	25.77	-0.19	0.050			
0.6970	44605.33	3.5830	3.5830	1.1440	25.71	-0.25	0.050			
0.6981	44678.61	3.5820	3.5820	1.1383	25.64	-0.32	0.050			
0.6992	44751.78	3.5810	3.5809	1.1330	25.58	-0.38	0.050			
0.7004	44823.30	3.5800	3.5801	1.1274	25.52	-0.44	0.050	0.231	0.389	
0.7015	44895.25	3.5790	3.5791	1.1254	25.45	-0.51	0.050			
0.7026	44966.52	3.5780	3.5780	1.1236	25.40	-0.56	0.050			
0.7037	45037.33	3.5770	3.5771	1.1226	25.34	-0.62	0.050			
0.7048	45107.80	3.5760	3.5762	1.1223	25.28	-0.68	0.050			
0.7059	45179.27	3.5750	3.5751	1.1198	25.22	-0.74	0.050			
0.7070	45250.24	3.5740	3.5741	1.1172	25.17	-0.79	0.050			
0.7081	45320.98	3.5730	3.5729	1.1132	25.12	-0.84	0.050			
0.7093	45392.26	3.5720	3.5719	1.1113	25.06	-0.90	0.050			
0.7104	45463.55	3.5710	3.5709	1.1099	25.00	-0.96	0.050			
0.7115	45534.46	3.5700	3.5700	1.1101	24.95	-1.01	0.050			
0.7126	45605.93	3.5690	3.5690	1.1095	24.90	-1.06	0.050			
0.7137	45677.44	3.5680	3.5680	1.1079	24.83	-1.13	0.050			
0.7148	45749.31	3.5670	3.5673	1.1087	24.79	-1.17	0.050			
0.7160	45821.10	3.5660	3.5662	1.1073	24.74	-1.22	0.050			
0.7171	45892.82	3.5650	3.5649	1.1069	24.71	-1.25	0.050			
0.7182	45963.44	3.5640	3.5641	1.1053	24.67	-1.29	0.050			
0.7193	46034.45	3.5630	3.5629	1.1023	24.63	-1.33	0.050			
0.7204	46104.03	3.5620	3.5620	1.0993	24.61	-1.35	0.050	-0.284	0.329	
0.7215	46173.60	3.5610	3.5609	1.0983	24.58	-1.38	0.050			
0.7225	46242.50	3.5600	3.5600	1.0964	24.55	-1.41	0.050			
0.7236	46311.86	3.5590	3.5590	1.0944	24.53	-1.43	0.050			
0.7247	46380.95	3.5580	3.5581	1.0935	24.50	-1.46	0.050			
0.7258	46450.59	3.5570	3.5570	1.0928	24.48	-1.48	0.050			
0.7269	46521.16	3.5560	3.5560	1.0922	24.47	-1.49	0.050			
0.7280	46591.67	3.5550	3.5549	1.0935	24.45	-1.51	0.050			
0.7291	46661.97	3.5540	3.5540	1.0949	24.44	-1.52	0.050			
0.7302	46731.99	3.5530	3.5530	1.0962	24.45	-1.51	0.050			
0.7313	46802.25	3.5520	3.5519	1.0961	24.46	-1.50	0.050			
0.7324	46872.02	3.5510	3.5509	1.0975	24.47	-1.49	0.050			
0.7335	46941.73	3.5500	3.5501	1.0988	24.48	-1.48	0.050			
0.7346	47012.00	3.5490	3.5491	1.1029	24.51	-1.45	0.050			
0.7357	47081.72	3.5480	3.5481	1.1081	24.54	-1.42	0.050			
0.7367	47151.70	3.5470	3.5470	1.1150	24.58	-1.38	0.050			
0.7378	47222.17	3.5460	3.5460	1.1207	24.63	-1.33	0.050			
0.7389	47292.61	3.5450	3.5450	1.1280	24.69	-1.27	0.050			
0.7400	47362.59	3.5440	3.5440	1.1389	24.76	-1.20	0.050	0.403	0.548	
0.7412	47435.17	3.5430	3.5431	1.1499	24.84	-1.12	0.050			
0.7423	47507.06	3.5420	3.5419	1.1640	24.94	-1.02	0.050			
0.7434	47579.79	3.5410	3.5411	1.1812	25.03	-0.93	0.050			
0.7446	47653.22	3.5400	3.5402	1.2037	25.16	-0.80	0.050			
0.7458	47729.02	3.5390	3.5391	1.2278	25.29	-0.67	0.050			
0.7470	47806.21	3.5380	3.5381	1.2583	25.43	-0.53	0.050			
0.7482	47884.66	3.5370	3.5371	1.2911	25.58	-0.38	0.050			
0.7495	47966.97	3.5360	3.5359	1.3220	25.72	-0.24	0.050			
0.7508	48052.42	3.5350	3.5350	1.3549	25.85	-0.11	0.050			
0.7522	48139.80	3.5340	3.5341	1.3857	25.97	0.01	0.050			
0.7536	48231.45	3.5330	3.5328	1.4132	26.04	0.08	0.050			
0.7551	48324.23	3.5320	3.5319	1.4443	26.07	0.11	0.050			
0.7565	48417.99	3.5310	3.5309	1.4753	26.01	0.05	0.050			
0.7580	48514.22	3.5300	3.5300	1.5068	25.92	-0.04	0.050			
0.7596	48612.04	3.5290	3.5290	1.5389	25.84	-0.12	0.050	0.245	0.341	
0.7611	48711.77	3.5280	3.5281	1.5700	25.76	-0.20	0.050			
0.7627	48813.89	3.5270	3.5274	1.6027	25.67	-0.29	0.050			
0.7643	48917.73	3.5260	3.5262	1.6365	25.59	-0.37	0.050			
0.7660	49023.17	3.5250	3.5250	1.6679	25.50	-0.46	0.050			
0.7677	49131.47	3.5240	3.5240	1.6950	25.42	-0.54	0.050			
0.7694	49240.62	3.5230	3.5228	1.7255	25.34	-0.62	0.050			
0.7711	49351.29	3.5220	3.5218	1.7513	25.25	-0.71	0.050			
0.7729	49464.04	3.5210	3.5210	1.7775	25.14	-0.82	0.050			
0.7746	49577.14	3.5200	3.5200	1.8072	25.04	-0.92	0.050			
0.7764	49691.71	3.5190	3.5191	1.8428	24.93	-1.03	0.050			
0.7783	49810.42	3.5180	3.5180	1.8716	24.84	-1.12	0.050			
0.7802	49933.73	3.5170	3.5171	1.9001	24.73	-1.23	0.050	0.164	0.389	
0.7822	50058.66	3.5160	3.5161	1.9290	24.64	-1.32	0.050			
0.7842	50187.17	3.5150	3.5151	1.9525	24.54	-1.42	0.050			
0.7862	50316.49	3.5140	3.5138	1.9682	24.43	-1.53	0.050			
0.7882	50446.94	3.5130	3.5129	1.9801	24.32	-1.64	0.050			
0.7903	50577.97	3.5120	3.5118	1.9864	24.21	-1.75	0.050			
0.7923	50707.42	3.5110	3.5110	1.9878	24.09	-1.87	0.050			
0.7944	50839.35	3.5100	3.5100	1.9813	23.97	-1.99	0.050			
0.7964	50971.11	3.5090	3.5091	1.9726	23.86	-2.10	0.050			
0.7985	51101.14	3.5080	3.5081	1.9523	23.78	-2.18	0.050			
0.8005	51229.86	3.5070	3.5069	1.9294	23.73	-2.23	0.050	0.198	0.529	
0.8025	51358.00	3.5060	3.5061	1.9032	23.71	-2.25	0.050			
0.8044	51482.09	3.5050	3.5047	1.8702	23.74	-2.22	0.050			
0.8063	51603.03	3.5040	3.5039	1.8330	23.80	-2.16	0.050			
0.8081	51721.01	3.5030	3.5030	1.7947	23.91	-2.05	0.050			
0.8099	51835.08	3.5020	3.5021	1.7499	24.07	-1.89	0.050			
0.8116	51945.20	3.5010	3.5011	1.7026	24.25	-1.71	0.050			
0.8133	52051.74	3.5000	3.5001	1.6541	24.45	-1.51	0.050			
0.8149	52156.61	3.4990	3.4988	1.6092	24.69	-1.27	0.050			
0.8166	52259.34	3.4980	3.4980	1.5637	24.93	-1.03	0.050			
0.8181	52358.59	3.4970	3.4968	1.5156	25.18	-0.78	0.050			
0.8196	52453.71	3.4960	3.4959	1.4646	25.42	-0.54	0.050	0.387	0.538	
0.8211	52547.46	3.4950	3.4952	1.4113	25.65	-0.31	0.050			
0.8224	52636.24	3.4940	3.4939	1.3575	25.86	-0.10	0.050			
0.8238	52721.17	3.4930	3.4930	1.3022	26.04	0.08	0.050			
0.8251	52803.98	3.4920	3.4919	1.2485	26.18	0.22	0.050			
0.8263	52883.73	3.4910	3.4910	1.1947	26.27	0.31	0.050			
0.8275	52960.86	3.4900	3.4901	1.1402	26.33	0.37	0.050			
0.8286	53033.28	3.4890	3.4892	1.0842	26.32	0.36	0.050			
0.8297	53101.38	3.4880	3.4882	1.0282	26.26	0.30	0.050			
0.8307	53165.30	3.4870	3.4870	0.9734	26.22	0.26	0.050			
0.8316	53224.42	3.4860	3.4861	0.9188	26.17	0.21	0.050			
0.8325	53279.51	3.4850	3.4849	0.8586	26.11	0.15	0.050			
0.8333	53330.91	3.4840	3.4839	0.8102	26.07	0.11	0.050			
0.8340	53377.99	3.4830	3.4831	0.7632	26.04	0.08	0.050			
0.8347	53422.50	3.4820	3.4819	0.7204	26.00	0.04	0.050			
0.8354	53464.96	3.4810	3.4809	0.6730	25.95	-0.01	0.050			
0.8360	53502.55	3.4800	3.4799	0.6366	25.92	-0.04	0.050			
0.8366	53539.36	3.4790	3.4790	0.5964	25.89	-0.07	0.050			
0.8371	53572.82	3.4780	3.4780	0.5667	25.86	-0.10	0.050			
0.8376	53605.94	3.4770	3.4770	0.5423	25.82	-0.14	0.050			
0.8381	53638.60	3.4760	3.4760	0.5150	25.79	-0.17	0.050			
0.8386	53667.63	3.4750	3.4749	0.4930	25.77	-0.19	0.050			
0.8390	53697.54	3.4740	3.4740	0.4712	25.74	-0.22	0.050			
0.8395	53724.93	3.4730	3.4730	0.4538	25.72	-0.24	0.050			
0.8399	53752.51	3.4720	3.4718	0.4359	25.69	-0.27	0.050			
0.8403	53778.44	3.4710	3.4706	0.4229	25.67	-0.29	0.050	0.262	0.442	
0.8407	53803.41	3.4700	3.4699	0.4104	25.64	-0.32	0.050			
0.8411	53828.69	3.4690	3.4687	0.3975	25.62	-0.34	0.050			
0.8414	53852.30	3.4680	3.4681	0.3866	25.60	-0.36	0.050			
0.8418	53876.13	3.4670	3.4670	0.3757	25.57	-0.39	0.050			
0.8422	53899.19	3.4660	3.4659	0.3666	25.56	-0.40	0.050			
0.8425	53922.39	3.4650	3.4650	0.3584	25.54	-0.42	0.050			
0.8429	53944.85	3.4640	3.4640	0.3499	25.52	-0.44	0.050			
0.8432	53965.79	3.4630	3.4629	0.3435	25.49	-0.47	0.050			
0.8436	53987.39	3.4620	3.4619	0.3367	25.47	-0.49	0.050			
0.8439	54008.51	3.4610	3.4611	0.3312	25.45	-0.51	0.050			
0.8442	54028.90	3.4600	3.4600	0.3241	25.44	-0.52	0.050			
0.8445	54049.04	3.4590	3.4590	0.3206	25.42	-0.54	0.050			
0.8448	54069.08	3.4580	3.4581	0.3153	25.41	-0.55	0.050			
0.8451	54088.57	3.4570	3.4571	0.3106	25.39	-0.57	0.050			
0.8454	54108.33	3.4560	3.4559	0.3067	25.37	-0.59	0.050			
0.8457	54127.23	3.4550	3.4550	0.3033	25.35	-0.61	0.050			
0.8460	54146.54	3.4540	3.4539	0.3000	25.33	-0.63	0.050			
0.8463	54165.25	3.4530	3.4528	0.2962	25.32	-0.64	0.050			
0.8466	54184.00	3.4520	3.4521	0.2938	25.30	-0.66	0.050			
0.8469	54202.58	3.4510	3.4510	0.2909	25.29	-0.67	0.050			
0.8472	54220.84	3.4500	3.4499	0.2875	25.28	-0.68	0.050			
0.8475	54239.17	3.4490	3.4489	0.2852	25.26	-0.70	0.050			
0.8478	54256.95	3.4480	3.4481	0.2831	25.25	-0.71	0.050			
0.8480	54275.01	3.4470	3.4471	0.2813	25.23	-0.73	0.050			
0.8483	54292.97	3.4460	3.4460	0.2794	25.22	-0.74	0.050			
0.8486	54310.67	3.4450	3.4449	0.2779	25.21	-0.75	0.050			
0.8489	54328.41	3.4440	3.4440	0.2762	25.19	-0.77	0.050			
0.8492	54345.93	3.4430	3.4431	0.2749	25.18	-0.78	0.050			
0.8494	54363.47	3.4420	3.4420	0.2733	25.17	-0.79	0.050			
0.8497	54380.53	3.4410	3.4410	0.2707	25.16	-0.80	0.050			
0.8500	54397.81	3.4400	3.4400	0.2695	25.14	-0.82	0.050			
0.8502	54415.26	3.4390	3.4389	0.2686	25.13	-0.83	0.050			
0.8505	54432.40	3.4380	3.4379	0.2671	25.12	-0.84	0.050			
0.8508	54449.15	3.4370	3.4370	0.2651	25.10	-0.86	0.050			
0.8510	54466.14	3.4360	3.4360	0.2637	25.09	-0.87	0.050			
0.8513	54483.15	3.4350	3.4351	0.2629	25.07	-0.89	0.050			
0.8516	54499.93	3.4340	3.4341	0.2615	25.05	-0.91	0.050			
0.8518	54516.74	3.4330	3.4329	0.2595	25.03	-0.93	0.050			
0.8521	54533.25	3.4320	3.4321	0.2579	25.02	-0.94	0.050			
0.8523	54549.68	3.4310	3.4310	0.2564	25.00	-0.96	0.050			
0.8526	54566.24	3.4300	3.4299	0.2553	24.99	-0.97	0.050			
0.8529	54582.53	3.4290	3.4291	0.2536	24.97	-0.99	0.050			
0.8531	54598.66	3.4280	3.4279	0.2527	24.96	-1.00	0.050			
0.8534	54614.78	3.4270	3.4270	0.2511	24.94	-1.02	0.050			
0.8536	54630.80	3.4260	3.4260	0.2495	24.93	-1.03	0.050			
0.8539	54646.46	3.4250	3.4251	0.2475	24.92	-1.04	0.050			
0.8541	54662.26	3.4240	3.4240	0.2461	24.90	-1.06	0.050			
0.8543	54677.85	3.4230	3.4230	0.2449	24.89	-1.07	0.050			
0.8546	54693.48	3.4220	3.4221	0.2437	24.88	-1.08	0.050			
0.8548	54708.93	3.4210	3.4208	0.2422	24.87	-1.09	0.050			
0.8551	54724.42	3.4200	3.4200	0.2410	24.86	-1.10	0.050			
0.8553	54739.80	3.4190	3.4190	0.2398	24.84	-1.12	0.050			
0.8555	54755.12	3.4180	3.4180	0.2386	24.83	-1.13	0.050			
0.8558	54770.51	3.4170	3.4170	0.2369	24.81	-1.15	0.050			
0.8560	54785.62	3.4160	3.4161	0.2355	24.79	-1.17	0.050			
0.8563	54800.65	3.4150	3.4150	0.2342	24.78	-1.18	0.050			
0.8565	54815.56	3.4140	3.4141	0.2329	24.77	-1.19	0.050			
0.8567	54830.48	3.4130	3.4129	0.2317	24.76	-1.20	0.050			
0.8570	54845.02	3.4120	3.4119	0.2311	24.75	-1.21	0.050			
0.8572	54859.84	3.4110	3.4110	0.2302	24.74	-1.22	0.050			
0.8574	54874.53	3.4100	3.4101	0.2290	24.72	-1.24	0.050			
0.8576	54888.93	3.4090	3.4091	0.2286	24.71	-1.25	0.050			
0.8579	54903.27	3.4080	3.4080	0.2271	24.70	-1.26	0.050			
0.8581	54917.79	3.4070	3.4070	0.2264	24.69	-1.27	0.050			
0.8583	54932.57	3.4060	3.4060	0.2246	24.68	-1.28	0.050			
0.8585	54946.82	3.4050	3.4047	0.2234	24.67	-1.29	0.050			
0.8588	54961.09	3.4040	3.4040	0.2225	24.66	-1.30	0.050			
0.8590	54975.43	3.4030	3.4029	0.2215	24.65	-1.31	0.050			
0.8592	54989.57	3.4020	3.4019	0.2204	24.64	-1.32	0.050			
0.8594	55003.64	3.4010	3.4009	0.2194	24.63	-1.33	0.050			
0.8596	55017.57	3.4000	3.4000	0.2183	24.62	-1.34	0.050			
0.8599	55031.51	3.3990	3.3991	0.2173	24.61	-1.35	0.050			
0.8601	55045.39	3.3980	3.3980	0.2163	24.60	-1.36	0.050			
0.8603	55059.19	3.3970	3.3969	0.2160	24.59	-1.37	0.050	0.355	0.555	
0.8605	55072.98	3.3960	3.3961	0.2150	24.57	-1.39	0.050			
0.8607	55086.71	3.3950	3.3950	0.2140	24.56	-1.40	0.050			
0.8609	55100.49	3.3940	3.3940	0.2135	24.55	-1.41	0.050			
0.8612	55114.12	3.3930	3.3929	0.2124	24.53	-1.43	0.050			
0.8614	55127.49	3.3920	3.3919	0.2110	24.52	-1.44	0.050			
0.8616	55141.12	3.3910	3.3910	0.2098	24.51	-1.45	0.050			
0.8618	55154.51	3.3900	3.3899	0.2088	24.50	-1.46	0.050			
0.8620	55167.56	3.3890	3.3889	0.2072	24.49	-1.47	0.050			
0.8622	55180.76	3.3880	3.3880	0.2065	24.48	-1.48	0.050			
0.8624	55193.96	3.3870	3.3870	0.2058	24.47	-1.49	0.050			
0.8626	55207.03	3.3860	3.3860	0.2049	24.46	-1.50	0.050			
0.8628	55220.13	3.3850	3.3851	0.2042	24.44	-1.52	0.050			
0.8630	55233.18	3.3840	3.3841	0.2035	24.43	-1.53	0.050			
0.8632	55246.58	3.3830	3.3830	0.2035	24.42	-1.54	0.050			
0.8634	55259.58	3.3820	3.3821	0.2025	24.41	-1.55	0.050			
0.8636	55272.52	3.3810	3.3810	0.2014	24.40	-1.56	0.050			
0.8638	55285.31	3.3800	3.3799	0.2003	24.39	-1.57	0.050			
0.8640	55298.10	3.3790	3.3789	0.1993	24.38	-1.58	0.050			
0.8642	55310.83	3.3780	3.3779	0.1983	24.38	-1.58	0.050			
0.8644	55323.43	3.3770	3.3769	0.1972	24.37	-1.59	0.050			
0.8646	55336.02	3.3760	3.3761	0.1962	24.36	-1.60	0.050			
0.8648	55348.49	3.3750	3.3749	0.1955	24.34	-1.62	0.050			
0.8650	55360.85	3.3740	3.3740	0.1944	24.33	-1.63	0.050			
0.8652	55373.27	3.3730	3.3730	0.1936	24.32	-1.64	0.050			
0.8654	55385.63	3.3720	3.3722	0.1928	24.31	-1.65	0.050			
0.8656	55397.90	3.3710	3.3710	0.1925	24.30	-1.66	0.050			
0.8658	55410.20	3.3700	3.3700	0.1918	24.29	-1.67	0.050			
0.8660	55422.45	3.3690	3.3690	0.1911	24.28	-1.68	0.050			
0.8662	55434.93	3.3680	3.3680	0.1902	24.27	-1.69	0.050			
0.8664	55447.07	3.3670	3.3669	0.1893	24.27	-1.69	0.050			
0.8665	55459.15	3.3660	3.3659	0.1883	24.26	-1.70	0.050			
0.8667	55471.04	3.3650	3.3649	0.1870	24.25	-1.71	0.050			
0.8669	55482.98	3.3640	3.3641	0.1862	24.24	-1.72	0.050			
0.8671	55494.87	3.3630	3.3630	0.1854	24.23	-1.73	0.050			
0.8673	55506.71	3.3620	3.3620	0.1845	24.22	-1.74	0.050			
0.8675	55518.31	3.3610	3.3610	0.1842	24.21	-1.75	0.050			
0.8677	55530.07	3.3600	3.3600	0.1835	24.20	-1.76	0.050			
0.8678	55541.80	3.3590	3.3591	0.1829	24.19	-1.77	0.050			
0.8680	55553.39	3.3580	3.3582	0.1827	24.18	-1.78	0.050			
0.8682	55565.07	3.3570	3.3571	0.1821	24.17	-1.79	0.050			
0.8684	55576.70	3.3560	3.3560	0.1815	24.16	-1.80	0.050			
0.8686	55588.20	3.3550	3.3549	0.1808	24.15	-1.81	0.050			
0.8687	55599.88	3.3540	3.3539	0.1801	24.14	-1.82	0.050			
0.8689	55611.38	3.3530	3.3531	0.1795	24.13	-1.83	0.050			
0.8691	55622.85	3.3520	3.3519	0.1789	24.12	-1.84	0.050			
0.8693	55634.12	3.3510	3.3508	0.1782	24.12	-1.84	0.050			
0.8695	55645.57	3.3500	3.3499	0.1775	24.11	-1.85	0.050			
0.8696	55656.91	3.3490	3.3490	0.1770	24.09	-1.87	0.050			
0.8698	55668.14	3.3480	3.3481	0.1764	24.08	-1.88	0.050			
0.8700	55679.49	3.3470	3.3470	0.1758	24.07	-1.89	0.050			
0.8702	55690.73	3.3460	3.3461	0.1753	24.06	-1.90	0.050			
0.8703	55702.23	3.3450	3.3450	0.1754	24.05	-1.91	0.050			
0.8705	55713.44	3.3440	3.3440	0.1747	24.05	-1.91	0.050			
0.8707	55724.59	3.3430	3.3430	0.1739	24.04	-1.92	0.050			
0.8709	55735.70	3.3420	3.3419	0.1731	24.03	-1.93	0.050			
0.8710	55746.82	3.3410	3.3411	0.1724	24.02	-1.94	0.050			
0.8712	55757.83	3.3400	3.3399	0.1716	24.01	-1.95	0.050			
0.8714	55768.81	3.3390	3.3389	0.1707	24.00	-1.96	0.050			
0.8716	55779.61	3.3380	3.3380	0.1696	24.00	-1.96	0.050			
0.8717	55790.44	3.3370	3.3370	0.1688	23.99	-1.97	0.050			
0.8719	55801.22	3.3360	3.3360	0.1681	23.98	-1.98	0.050			
0.8721	55811.95	3.3350	3.3351	0.1673	23.97	-1.99	0.050			
0.8722	55822.62	3.3340	3.3340	0.1665	23.96	-2.00	0.050			
0.8724	55833.26	3.3330	3.3330	0.1658	23.96	-2.00	0.050			
0.8726	55843.84	3.3320	3.3321	0.1650	23.95	-2.01	0.050			
0.8727	55854.45	3.3310	3.3309	0.1640	23.94	-2.02	0.050			
0.8729	55865.07	3.3300	3.3300	0.1635	23.93	-2.03	0.050			
0.8731	55875.51	3.3290	3.3291	0.1625	23.92	-2.04	0.050			
0.8732	55885.88	3.3280	3.3280	0.1616	23.92	-2.04	0.050			
0.8734	55896.18	3.3270	3.3269	0.1606	23.91	-2.05	0.050			
0.8735	55906.43	3.3260	3.3259	0.1597	23.90	-2.06	0.050			
0.8737	55916.62	3.3250	3.3250	0.1587	23.89	-2.07	0.050			
0.8739	55926.75	3.3240	3.3240	0.1578	23.89	-2.07	0.050			
0.8740	55936.62	3.3230	3.3230	0.1572	23.88	-2.08	0.050			
0.8742	55946.66	3.3220	3.3221	0.1565	23.88	-2.08	0.050			
0.8743	55956.65	3.3210	3.3210	0.1557	23.87	-2.09	0.050			
0.8745	55966.59	3.3200	3.3200	0.1550	23.87	-2.09	0.050			
0.8746	55976.34	3.3190	3.3191	0.1544	23.86	-2.10	0.050			
0.8748	55986.20	3.3180	3.3181	0.1538	23.86	-2.10	0.050			
0.8749	55996.02	3.3170	3.3170	0.1532	23.85	-2.11	0.050			
0.8751	56005.80	3.3160	3.3160	0.1525	23.84	-2.12	0.050			
0.8752	56015.31	3.3150	3.3151	0.1521	23.84	-2.12	0.050			
0.8754	56025.03	3.3140	3.3141	0.1517	23.83	-2.13	0.050			
0.8755	56034.73	3.3130	3.3129	0.1513	23.82	-2.14	0.050			
0.8757	56044.40	3.3120	3.3118	0.1509	23.82	-2.14	0.050			
0.8758	56054.08	3.3110	3.3110	0.1498	23.81	-2.15	0.050			
0.8760	56063.65	3.3100	3.3101	0.1493	23.80	-2.16	0.050			
0.8761	56073.19	3.3090	3.3090	0.1489	23.80	-2.16	0.050			
0.8763	56082.71	3.3080	3.3080	0.1484	23.79	-2.17	0.050			
0.8764	56092.30	3.3070	3.3072	0.1481	23.79	-2.17	0.050			
0.8766	56101.81	3.3060	3.3060	0.1474	23.79	-2.17	0.050			
0.8767	56111.22	3.3050	3.3049	0.1468	23.78	-2.18	0.050			
0.8769	56120.60	3.3040	3.3038	0.1462	23.78	-2.18	0.050			
0.8770	56130.13	3.3030	3.3029	0.1459	23.78	-2.18	0.050			
0.8772	56139.43	3.3020	3.3020	0.1451	23.77	-2.19	0.050			
0.8773	56148.70	3.3010	3.3011	0.1444	23.77	-2.19	0.050			
0.8775	56157.92	3.3000	3.3001	0.1437	23.77	-2.19	0.050			
0.8776	56167.11	3.2990	3.2990	0.1430	23.76	-2.20	0.050			
0.8778	56176.24	3.2980	3.2979	0.1422	23.76	-2.20	0.050			
0.8779	56185.19	3.2970	3.2971	0.1419	23.76	-2.20	0.050			
0.8780	56194.25	3.2960	3.2960	0.1413	23.75	-2.21	0.050			
0.8782	56203.23	3.2950	3.2950	0.1406	23.75	-2.21	0.050			
0.8783	56212.21	3.2940	3.2940	0.1400	23.75	-2.21	0.050			
0.8785	56221.15	3.2930	3.2930	0.1394	23.74	-2.22	0.050			
0.8786	56230.05	3.2920	3.2920	0.1388	23.74	-2.22	0.050			
0.8787	56238.74	3.2910	3.2911	0.1378	23.74	-2.22	0.050			
0.8789	56247.54	3.2900	3.2901	0.1374	23.74	-2.22	0.050			
0.8790	56256.32	3.2890	3.2891	0.1369	23.74	-2.22	0.050			
0.8791	56265.11	3.2880	3.2880	0.1363	23.74	-2.22	0.050			
0.8793	56273.82	3.2870	3.2869	0.1358	23.74	-2.22	0.050			
0.8794	56282.59	3.2860	3.2859	0.1355	23.74	-2.22	0.050			
0.8796	56291.25	3.2850	3.2850	0.1350	23.74	-2.22	0.050			
0.8797	56299.87	3.2840	3.2841	0.1344	23.73	-2.23	0.050			
0.8798	56308.31	3.2830	3.2830	0.1344	23.73	-2.23	0.050			
0.8799	56316.79	3.2820	3.2820	0.1338	23.73	-2.23	0.050			
0.8801	56325.34	3.2810	3.2810	0.1334	23.72	-2.24	0.050			
0.8802	56333.87	3.2800	3.2800	0.1331	23.72	-2.24	0.050			
0.8803	56342.37	3.2790	3.2790	0.1327	23.72	-2.24	0.050	0.180	0.422	
0.8805	56350.90	3.2780	3.2781	0.1322	23.72	-2.24	0.050			
0.8806	56359.34	3.2770	3.2770	0.1318	23.72	-2.24	0.050			
0.8807	56367.77	3.2760	3.2759	0.1315	23.72	-2.24	0.050			
0.8809	56376.17	3.2750	3.2749	0.1311	23.72	-2.24	0.050			
0.8810	56384.55	3.2740	3.2739	0.1307	23.72	-2.24	0.050			
0.8811	56392.93	3.2730	3.2730	0.1300	23.72	-2.24	0.050			
0.8813	56401.23	3.2720	3.2720	0.1296	23.72	-2.24	0.050			
0.8814	56409.51	3.2710	3.2710	0.1292	23.72	-2.24	0.050			
0.8815	56417.76	3.2700	3.2701	0.1288	23.72	-2.24	0.050			
0.8817	56425.95	3.2690	3.2691	0.1285	23.72	-2.24	0.050			
0.8818	56434.24	3.2680	3.2681	0.1283	23.72	-2.24	0.050			
0.8819	56442.44	3.2670	3.2671	0.1279	23.72	-2.24	0.050			
0.8820	56450.61	3.2660	3.2660	0.1275	23.72	-2.24	0.050			
0.8822	56458.75	3.2650	3.2650	0.1270	23.73	-2.23	0.050			
0.8823	56466.87	3.2640	3.2641	0.1266	23.73	-2.23	0.050			
0.8824	56475.04	3.2630	3.2630	0.1262	23.73	-2.23	0.050			
0.8825	56483.10	3.2620	3.2620	0.1257	23.74	-2.22	0.050			
0.8827	56491.13	3.2610	3.2611	0.1252	23.74	-2.22	0.050			
0.8828	56499.13	3.2600	3.2599	0.1247	23.74	-2.22	0.050			
0.8829	56507.10	3.2590	3.2589	0.1242	23.74	-2.22	0.050			
0.8830	56514.89	3.2580	3.2580	0.1235	23.75	-2.21	0.050			
0.8832	56522.78	3.2570	3.2570	0.1231	23.75	-2.21	0.050			
0.8833	56530.65	3.2560	3.2562	0.1227	23.75	-2.21	0.050			
0.8834	56538.49	3.2550	3.2552	0.1223	23.76	-2.20	0.050			
0.8835	56546.30	3.2540	3.2540	0.1219	23.76	-2.20	0.050			
0.8837	56554.35	3.2530	3.2529	0.1213	23.77	-2.19	0.050			
0.8838	56562.10	3.2520	3.2519	0.1207	23.77	-2.19	0.050			
0.8839	56569.81	3.2510	3.2510	0.1202	23.78	-2.18	0.050			
0.8840	56577.48	3.2500	3.2500	0.1196	23.78	-2.18	0.050			
0.8841	56585.27	3.2490	3.2490	0.1192	23.79	-2.17	0.050			
0.8843	56592.62	3.2480	3.2480	0.1190	23.79	-2.17	0.050			
0.8844	56600.21	3.2470	3.2471	0.1184	23.80	-2.16	0.050			
0.8845	56607.78	3.2460	3.2460	0.1179	23.81	-2.15	0.050			
0.8846	56615.31	3.2450	3.2450	0.1174	23.82	-2.14	0.050			
0.8847	56622.81	3.2440	3.2440	0.1169	23.82	-2.14	0.050			
0.8848	56630.09	3.2430	3.2430	0.1162	23.83	-2.13	0.050			
0.8850	56637.65	3.2420	3.2421	0.1155	23.84	-2.12	0.050			
0.8851	56645.03	3.2410	3.2411	0.1150	23.85	-2.11	0.050			
0.8852	56652.37	3.2400	3.2400	0.1145	23.86	-2.10	0.050			
0.8853	56659.69	3.2390	3.2390	0.1140	23.86	-2.10	0.050			
0.8854	56667.01	3.2380	3.2381	0.1136	23.87	-2.09	0.050			
0.8855	56674.27	3.2370	3.2370	0.1131	23.88	-2.08	0.050			
0.8856	56681.49	3.2360	3.2357	0.1126	23.88	-2.08	0.050			
0.8858	56688.55	3.2350	3.2350	0.1125	23.89	-2.07	0.050			
0.8859	56695.74	3.2340	3.2341	0.1121	23.89	-2.07	0.050			
0.8860	56702.79	3.2330	3.2331	0.1115	23.90	-2.06	0.050			
0.8861	56709.91	3.2320	3.2321	0.1111	23.90	-2.06	0.050			
0.8862	56717.02	3.2310	3.2311	0.1108	23.91	-2.05	0.050			
0.8863	56724.18	3.2300	3.2300	0.1102	23.93	-2.03	0.050			
0.8864	56731.22	3.2290	3.2290	0.1098	23.94	-2.02	0.050			
0.8865	56738.35	3.2280	3.2280	0.1097	23.95	-2.01	0.050			
0.8866	56745.35	3.2270	3.2270	0.1092	23.96	-2.00	0.050			
0.8868	56752.33	3.2260	3.2260	0.1087	23.97	-1.99	0.050			
0.8869	56759.21	3.2250	3.2248	0.1084	23.98	-1.98	0.050			
0.8870	56766.13	3.2240	3.2239	0.1079	23.99	-1.97	0.050			
0.8871	56773.02	3.2230	3.2231	0.1075	24.00	-1.96	0.050			
0.8872	56779.75	3.2220	3.2221	0.1067	24.01	-1.95	0.050			
0.8873	56786.57	3.2210	3.2210	0.1064	24.02	-1.94	0.050			
0.8874	56793.37	3.2200	3.2200	0.1060	24.03	-1.93	0.050			
0.8875	56800.14	3.2190	3.2191	0.1057	24.04	-1.92	0.050			
0.8876	56806.95	3.2180	3.2180	0.1052	24.05	-1.91	0.050			
0.8877	56813.66	3.2170	3.2169	0.1048	24.06	-1.90	0.050			
0.8878	56820.36	3.2160	3.2160	0.1044	24.07	-1.89	0.050			
0.8879	56827.21	3.2150	3.2150	0.1043	24.08	-1.88	0.050			
0.8880	56833.86	3.2140	3.2140	0.1038	24.09	-1.87	0.050			
0.8881	56840.49	3.2130	3.2130	0.1033	24.10	-1.86	0.050			
0.8882	56847.09	3.2120	3.2120	0.1028	24.11	-1.85	0.050			
0.8883	56853.58	3.2110	3.2110	0.1026	24.12	-1.84	0.050			
0.8884	56859.96	3.2100	3.2100	0.1019	24.13	-1.83	0.050			
0.8885	56866.47	3.2090	3.2090	0.1015	24.14	-1.82	0.050			
0.8886	56872.96	3.2080	3.2080	0.1012	24.15	-1.81	0.050			
0.8887	56879.43	3.2070	3.2071	0.1009	24.16	-1.80	0.050			
0.8888	56885.87	3.2060	3.2061	0.1006	24.17	-1.79	0.050			
0.8889	56892.49	3.2050	3.2051	0.1001	24.18	-1.78	0.050			
0.8890	56898.88	3.2040	3.2040	0.0996	24.19	-1.77	0.050			
0.8891	56905.24	3.2030	3.2030	0.0992	24.20	-1.76	0.050			
0.8892	56911.58	3.2020	3.2019	0.0987	24.21	-1.75	0.050			
0.8893	56917.88	3.2010	3.2009	0.0982	24.22	-1.74	0.050			
0.8894	56924.15	3.2000	3.2000	0.0978	24.22	-1.74	0.050			
0.8895	56930.33	3.1990	3.1991	0.0976	24.23	-1.73	0.050			
0.8896	56936.54	3.1980	3.1980	0.0971	24.25	-1.71	0.050			
0.8897	56942.74	3.1970	3.1971	0.0967	24.26	-1.70	0.050			
0.8898	56948.91	3.1960	3.1961	0.0963	24.27	-1.69	0.050			
0.8899	56955.06	3.1950	3.1951	0.0959	24.28	-1.68	0.050			
0.8900	56961.19	3.1940	3.1941	0.0955	24.29	-1.67	0.050			
0.8901	56967.28	3.1930	3.1930	0.0951	24.31	-1.65	0.050			
0.8902	56973.31	3.1920	3.1919	0.0949	24.32	-1.64	0.050			
0.8903	56979.31	3.1910	3.1908	0.0944	24.33	-1.63	0.050			
0.8904	56985.34	3.1900	3.1899	0.0941	24.35	-1.61	0.050			
0.8905	56991.35	3.1890	3.1890	0.0937	24.36	-1.60	0.050			
0.8906	56997.34	3.1880	3.1881	0.0934	24.37	-1.59	0.050			
0.8907	57003.31	3.1870	3.1871	0.0931	24.39	-1.57	0.050			
0.8908	57009.25	3.1860	3.1861	0.0927	24.40	-1.56	0.050			
0.8909	57015.03	3.1850	3.1851	0.0922	24.41	-1.55	0.050			
0.8910	57020.92	3.1840	3.1840	0.0920	24.43	-1.53	0.050			
0.8910	57026.80	3.1830	3.1829	0.0917	24.44	-1.52	0.050			
0.8911	57032.66	3.1820	3.1820	0.0915	24.45	-1.51	0.050			
0.8912	57038.51	3.1810	3.1810	0.0912	24.46	-1.50	0.050			
0.8913	57044.47	3.1800	3.1800	0.0907	24.47	-1.49	0.050			
0.8914	57050.34	3.1790	3.1790	0.0907	24.48	-1.48	0.050			
0.8915	57056.13	3.1780	3.1781	0.0903	24.50	-1.46	0.050			
0.8916	57061.90	3.1770	3.1771	0.0899	24.51	-1.45	0.050			
0.8917	57067.64	3.1760	3.1760	0.0895	24.53	-1.43	0.050			
0.8918	57073.36	3.1750	3.1750	0.0891	24.54	-1.42	0.050			
0.8919	57079.05	3.1740	3.1739	0.0888	24.56	-1.40	0.050			
0.8919	57084.72	3.1730	3.1731	0.0884	24.57	-1.39	0.050			
0.8920	57090.32	3.1720	3.1720	0.0882	24.58	-1.38	0.050			
0.8921	57095.95	3.1710	3.1710	0.0879	24.59	-1.37	0.050			
0.8922	57101.56	3.1700	3.1701	0.0875	24.61	-1.35	0.050			
0.8923	57107.16	3.1690	3.1690	0.0872	24.62	-1.34	0.050			
0.8924	57112.72	3.1680	3.1680	0.0868	24.64	-1.32	0.050			
0.8925	57118.27	3.1670	3.1671	0.0865	24.65	-1.31	0.050			
0.8926	57123.80	3.1660	3.1661	0.0862	24.66	-1.30	0.050			
0.8926	57129.21	3.1650	3.1650	0.0858	24.68	-1.28	0.050			
0.8927	57134.70	3.1640	3.1639	0.0855	24.69	-1.27	0.050			
0.8928	57140.16	3.1630	3.1630	0.0853	24.70	-1.26	0.050			
0.8929	57145.61	3.1620	3.1620	0.0850	24.71	-1.25	0.050			
0.8930	57151.04	3.1610	3.1609	0.0847	24.73	-1.23	0.050			
0.8931	57156.37	3.1600	3.1601	0.0843	24.74	-1.22	0.050			
0.8932	57161.85	3.1590	3.1590	0.0840	24.76	-1.20	0.050			
0.8932	57167.22	3.1580	3.1581	0.0837	24.77	-1.19	0.050			
0.8933	57172.56	3.1570	3.1571	0.0834	24.79	-1.17	0.050			
0.8934	57177.89	3.1560	3.1561	0.0831	24.80	-1.16	0.050			
0.8935	57183.20	3.1550	3.1550	0.0828	24.82	-1.14	0.050			
0.8936	57188.49	3.1540	3.1540	0.0825	24.83	-1.13	0.050			
0.8937	57193.76	3.1530	3.1531	0.0822	24.84	-1.12	0.050			
0.8937	57199.07	3.1520	3.1521	0.0821	24.85	-1.11	0.050			
0.8938	57204.31	3.1510	3.1510	0.0818	24.86	-1.10	0.050			
0.8939	57209.53	3.1500	3.1500	0.0814	24.87	-1.09	0.050			
0.8940	57214.74	3.1490	3.1490	0.0811	24.89	-1.07	0.050			
0.8941	57219.92	3.1480	3.1481	0.0808	24.91	-1.05	0.050			
0.8941	57225.08	3.1470	3.1471	0.0805	24.92	-1.04	0.050			
0.8942	57230.22	3.1460	3.1461	0.0802	24.94	-1.02	0.050			
0.8943	57235.28	3.1450	3.1450	0.0798	24.95	-1.01	0.050			
0.8944	57240.38	3.1440	3.1438	0.0795	24.97	-0.99	0.050			
0.8945	57245.46	3.1430	3.1430	0.0793	24.98	-0.98	0.050			
0.8945	57250.53	3.1420	3.1421	0.0790	24.99	-0.97	0.050			
0.8946	57255.57	3.1410	3.1410	0.0787	25.00	-0.96	0.050			
0.8947	57260.60	3.1400	3.1399	0.0784	25.01	-0.95	0.050			
0.8948	57265.58	3.1390	3.1391	0.0781	25.03	-0.93	0.050			
0.8949	57270.57	3.1380	3.1381	0.0778	25.04	-0.92	0.050			
0.8949	57275.55	3.1370	3.1371	0.0775	25.06	-0.90	0.050			
0.8950	57280.51	3.1360	3.1361	0.0773	25.07	-0.89	0.050			
0.8951	57285.44	3.1350	3.1350	0.0770	25.09	-0.87	0.050			
0.8952	57290.36	3.1340	3.1339	0.0767	25.10	-0.86	0.050			
0.8952	57295.26	3.1330	3.1329	0.0764	25.11	-0.85	0.050			
0.8953	57300.17	3.1320	3.1321	0.0762	25.12	-0.84	0.050			
0.8954	57305.04	3.1310	3.1311	0.0759	25.13	-0.83	0.050			
0.8955	57309.89	3.1300	3.1300	0.0756	25.14	-0.82	0.050			
0.8955	57314.72	3.1290	3.1289	0.0753	25.15	-0.81	0.050			
0.8956	57319.53	3.1280	3.1280	0.0750	25.16	-0.80	0.050			
0.8957	57324.33	3.1270	3.1270	0.0748	25.18	-0.78	0.050			
0.8958	57329.10	3.1260	3.1260	0.0745	25.19	-0.77	0.050			
0.8958	57333.85	3.1250	3.1251	0.0742	25.21	-0.75	0.050			
0.8959	57338.59	3.1240	3.1241	0.0739	25.22	-0.74	0.050			
0.8960	57343.31	3.1230	3.1230	0.0736	25.24	-0.72	0.050			
0.8961	57348.01	3.1220	3.1220	0.0733	25.25	-0.71	0.050			
0.8961	57352.67	3.1210	3.1210	0.0731	25.26	-0.70	0.050			
0.8962	57357.34	3.1200	3.1200	0.0728	25.27	-0.69	0.050			
0.8963	57361.99	3.1190	3.1190	0.0725	25.28	-0.68	0.050			
0.8964	57366.63	3.1180	3.1180	0.0723	25.29	-0.67	0.050			
0.8964	57371.23	3.1170	3.1170	0.0720	25.31	-0.65	0.050			
0.8965	57375.83	3.1160	3.1160	0.0717	25.32	-0.64	0.050			
0.8966	57380.41	3.1150	3.1150	0.0715	25.33	-0.63	0.050			
0.8966	57384.97	3.1140	3.1140	0.0712	25.34	-0.62	0.050			
0.8967	57389.52	3.1130	3.1130	0.0709	25.36	-0.60	0.050			
0.8968	57394.05	3.1120	3.1120	0.0707	25.37	-0.59	0.050			
0.8969	57398.57	3.1110	3.1109	0.0704	25.38	-0.58	0.050			
0.8969	57403.06	3.1100	3.1100	0.0702	25.40	-0.56	0.050			
0.8970	57407.53	3.1090	3.1091	0.0699	25.41	-0.55	0.050			
0.8971	57411.99	3.1080	3.1079	0.0696	25.42	-0.54	0.050			
0.8971	57416.44	3.1070	3.1069	0.0694	25.43	-0.53	0.050			
0.8972	57420.87	3.1060	3.1061	0.0691	25.44	-0.52	0.050			
0.8973	57425.26	3.1050	3.1050	0.0689	25.46	-0.50	0.050			
0.8973	57429.67	3.1040	3.1040	0.0687	25.47	-0.49	0.050			
0.8974	57434.05	3.1030	3.1030	0.0684	25.48	-0.48	0.050			
0.8975	57438.43	3.1020	3.1021	0.0682	25.49	-0.47	0.050			
0.8975	57442.78	3.1010	3.1011	0.0679	25.50	-0.46	0.050			
0.8976	57447.12	3.1000	3.1000	0.0677	25.51	-0.45	0.050			
0.8977	57451.44	3.0990	3.0989	0.0675	25.52	-0.44	0.050			
0.8977	57455.76	3.0980	3.0979	0.0672	25.54	-0.42	0.050			
0.8978	57460.05	3.0970	3.0971	0.0670	25.55	-0.41	0.050			
0.8979	57464.38	3.0960	3.0959	0.0667	25.56	-0.40	0.050			
0.8979	57468.64	3.0950	3.0949	0.0664	25.57	-0.39	0.050			
0.8980	57472.89	3.0940	3.0940	0.0662	25.58	-0.38	0.050			
0.8981	57477.12	3.0930	3.0931	0.0659	25.59	-0.37	0.050			
0.8981	57481.33	3.0920	3.0921	0.0656	25.60	-0.36	0.050			
0.8982	57485.52	3.0910	3.0911	0.0654	25.61	-0.35	0.050			
0.8983	57489.70	3.0900	3.0900	0.0651	25.63	-0.33	0.050			
0.8983	57493.86	3.0890	3.0890	0.0649	25.64	-0.32	0.050			
0.8984	57498.07	3.0880	3.0880	0.0644	25.65	-0.31	0.050			
0.8985	57502.18	3.0870	3.0870	0.0641	25.66	-0.30	0.050			
0.8985	57506.27	3.0860	3.0860	0.0638	25.67	-0.29	0.050			
0.8986	57510.43	3.0850	3.0851	0.0637	25.68	-0.28	0.050			
0.8987	57514.50	3.0840	3.0840	0.0634	25.69	-0.27	0.050			
0.8987	57518.54	3.0830	3.0830	0.0630	25.70	-0.26	0.050			
0.8988	57522.56	3.0820	3.0820	0.0627	25.72	-0.24	0.050			
0.8989	57526.56	3.0810	3.0810	0.0623	25.73	-0.23	0.050			
0.8989	57530.54	3.0800	3.0800	0.0620	25.74	-0.22	0.050			
0.8990	57534.50	3.0790	3.0790	0.0616	25.75	-0.21	0.050			
0.8990	57538.83	3.0780	3.0779	0.0602	25.76	-0.20	0.050			
0.8991	57542.67	3.0770	3.0769	0.0596	25.77	-0.19	0.050			
0.8992	57546.68	3.0760	3.0759	0.0599	25.78	-0.18	0.050			
0.8992	57550.49	3.0750	3.0749	0.0592	25.79	-0.17	0.050			
0.8993	57554.26	3.0740	3.0739	0.0586	25.80	-0.16	0.050			
0.8993	57557.98	3.0730	3.0729	0.0579	25.81	-0.15	0.050			
0.8994	57561.67	3.0720	3.0720	0.0572	25.82	-0.14	0.050			
0.8995	57565.31	3.0710	3.0711	0.0566	25.83	-0.13	0.050			
0.8995	57568.91	3.0700	3.0701	0.0559	25.84	-0.12	0.050			
0.8996	57572.47	3.0690	3.0691	0.0552	25.84	-0.12	0.050			
0.8996	57576.40	3.0680	3.0679	0.0551	25.85	-0.11	0.050			
0.8997	57579.90	3.0670	3.0672	0.0543	25.86	-0.10	0.050			
0.8997	57583.35	3.0660	3.0662	0.0535	25.87	-0.09	0.050			
0.8998	57586.75	3.0650	3.0653	0.0526	25.88	-0.08	0.050			
0.8998	57590.09	3.0640	3.0643	0.0518	25.89	-0.07	0.050			
0.8999	57593.38	3.0630	3.0633	0.0510	25.90	-0.06	0.050			
0.8999	57596.62	3.0620	3.0624	0.0502	25.91	-0.05	0.050			
0.9000	57599.80	3.0610	3.0615	0.0493	25.92	-0.04	0.050			
0.9000	57602.93	3.0600	3.0606	0.0485	25.93	-0.03	0.050			
0.9001	57606.01	3.0590	3.0596	0.0477	25.94	-0.02	0.050			
0.9001	57609.03	3.0580	3.0587	0.0468	25.95	-0.01	0.050			
0.9002	57612.00	3.0570	3.0577	0.0460	25.95	-0.01	0.050			
0.9002	57614.92	3.0560	3.0567	0.0452	25.96	0.00	0.050			
0.9003	57617.79	3.0550	3.0556	0.0444	25.97	0.01	0.050			
