Ah_balance (normalized)	Ah_balance (mAh)	Voltage - fit (V)	Voltage -  interpolate (V)	dQ/dV (1/V)	Temperature (°C)	Temperature - diff (°C)	Current (C)	R_DC 0ms (mOhm)	R_DC 50ms (mOhm)	R_DC 50 ms PEC (mOhm)
-0.0237	-1519.03	4.1990	4.1988	0.8380	25.08	-0.13	0.050			
-0.0229	-1465.35	4.1980	4.1980	0.8388	25.08	-0.13	0.050			
-0.0221	-1411.44	4.1970	4.1970	0.8426	25.08	-0.13	0.050			
-0.0212	-1357.67	4.1960	4.1960	0.8426	25.07	-0.14	0.050			
-0.0204	-1303.62	4.1950	4.1952	0.8443	25.07	-0.14	0.050			
-0.0195	-1249.23	4.1940	4.1939	0.8461	25.08	-0.13	0.050			
-0.0187	-1195.29	4.1930	4.1929	0.8470	25.07	-0.14	0.050			
-0.0178	-1141.15	4.1920	4.1920	0.8485	25.08	-0.13	0.050			
-0.0170	-1086.82	4.1910	4.1910	0.8500	25.06	-0.15	0.050			
-0.0161	-1032.19	4.1900	4.1901	0.8509	25.06	-0.15	0.050			
-0.0153	-977.47	4.1890	4.1890	0.8512	25.06	-0.15	0.050			
-0.0144	-922.66	4.1880	4.1880	0.8513	25.06	-0.15	0.050			
-0.0136	-868.31	4.1870	4.1869	0.8519	25.06	-0.15	0.050			
-0.0127	-813.94	4.1860	4.1860	0.8520	25.06	-0.15	0.050			
-0.0119	-759.19	4.1850	4.1850	0.8528	25.06	-0.15	0.050			
-0.0110	-704.53	4.1840	4.1840	0.8548	25.06	-0.15	0.050			
-0.0101	-649.32	4.1830	4.1830	0.8559	25.06	-0.15	0.050			
-0.0093	-594.37	4.1820	4.1821	0.8549	25.06	-0.15	0.050			
-0.0084	-539.73	4.1810	4.1811	0.8551	25.06	-0.15	0.050			
-0.0076	-485.10	4.1800	4.1799	0.8542	25.06	-0.15	0.050			
-0.0067	-430.40	4.1790	4.1790	0.8547	25.05	-0.16	0.050			
-0.0059	-375.64	4.1780	4.1779	0.8549	25.06	-0.15	0.050			
-0.0050	-320.79	4.1770	4.1769	0.8551	25.04	-0.17	0.050	0.277	0.389	
-0.0042	-266.54	4.1760	4.1761	0.8553	25.04	-0.17	0.050			
-0.0033	-211.77	4.1750	4.1749	0.8553	25.04	-0.17	0.050			
-0.0025	-157.10	4.1740	4.1741	0.8560	25.04	-0.17	0.050			
-0.0016	-102.11	4.1730	4.1731	0.8562	25.04	-0.17	0.050			
-0.0007	-47.38	4.1720	4.1719	0.8556	25.04	-0.17	0.050			
0.0001	7.71	4.1710	4.1711	0.8559	25.04	-0.17	0.050			
0.0010	62.67	4.1700	4.1701	0.8554	25.04	-0.17	0.050			
0.0018	117.62	4.1690	4.1690	0.8556	25.04	-0.17	0.050			
0.0027	172.41	4.1680	4.1680	0.8544	25.04	-0.17	0.050			
0.0036	227.48	4.1670	4.1670	0.8525	25.05	-0.16	0.050			
0.0044	281.69	4.1660	4.1660	0.8522	25.06	-0.15	0.050			
0.0053	336.44	4.1650	4.1651	0.8507	25.05	-0.16	0.050			
0.0061	390.86	4.1640	4.1640	0.8495	25.06	-0.15	0.050			
0.0070	445.49	4.1630	4.1630	0.8487	25.06	-0.15	0.050			
0.0078	500.08	4.1620	4.1620	0.8476	25.06	-0.15	0.050			
0.0087	554.28	4.1610	4.1609	0.8452	25.07	-0.14	0.050			
0.0095	607.94	4.1600	4.1600	0.8459	25.08	-0.13	0.050			
0.0103	661.59	4.1590	4.1590	0.8455	25.08	-0.13	0.050			
0.0112	715.04	4.1580	4.1580	0.8452	25.08	-0.13	0.050			
0.0120	768.81	4.1570	4.1570	0.8454	25.08	-0.13	0.050			
0.0128	822.38	4.1560	4.1560	0.8449	25.09	-0.12	0.050			
0.0137	876.29	4.1550	4.1549	0.8463	25.09	-0.12	0.050			
0.0145	930.39	4.1540	4.1541	0.8480	25.10	-0.11	0.050			
0.0154	984.65	4.1530	4.1530	0.8487	25.10	-0.11	0.050	0.348	0.472	
0.0162	1039.18	4.1520	4.1519	0.8498	25.10	-0.11	0.050			
0.0171	1093.61	4.1510	4.1509	0.8512	25.10	-0.11	0.050			
0.0179	1148.01	4.1500	4.1500	0.8523	25.11	-0.10	0.050			
0.0188	1202.64	4.1490	4.1490	0.8535	25.10	-0.11	0.050			
0.0196	1257.37	4.1480	4.1481	0.8555	25.11	-0.10	0.050			
0.0205	1312.60	4.1470	4.1470	0.8569	25.11	-0.10	0.050			
0.0214	1367.78	4.1460	4.1460	0.8572	25.12	-0.09	0.050			
0.0222	1422.53	4.1450	4.1450	0.8574	25.11	-0.10	0.050			
0.0231	1477.77	4.1440	4.1441	0.8594	25.12	-0.09	0.050			
0.0240	1533.24	4.1430	4.1428	0.8597	25.11	-0.10	0.050			
0.0248	1588.59	4.1420	4.1419	0.8601	25.11	-0.10	0.050			
0.0257	1643.28	4.1410	4.1410	0.8603	25.11	-0.10	0.050			
0.0265	1697.72	4.1400	4.1401	0.8589	25.12	-0.09	0.050			
0.0274	1752.79	4.1390	4.1390	0.8599	25.10	-0.11	0.050			
0.0282	1807.65	4.1380	4.1380	0.8602	25.11	-0.10	0.050			
0.0291	1863.02	4.1370	4.1369	0.8610	25.11	-0.10	0.050			
0.0300	1918.14	4.1360	4.1359	0.8616	25.10	-0.11	0.050			
0.0308	1973.16	4.1350	4.1350	0.8619	25.10	-0.11	0.050			
0.0317	2028.59	4.1340	4.1340	0.8615	25.10	-0.11	0.050			
0.0326	2084.05	4.1330	4.1331	0.8622	25.10	-0.11	0.050			
0.0334	2139.22	4.1320	4.1320	0.8621	25.10	-0.11	0.050			
0.0343	2194.27	4.1310	4.1311	0.8612	25.09	-0.12	0.050			
0.0351	2249.57	4.1300	4.1300	0.8610	25.10	-0.11	0.050	0.234	0.484	
0.0360	2304.82	4.1290	4.1290	0.8603	25.09	-0.12	0.050			
0.0369	2360.15	4.1280	4.1280	0.8596	25.08	-0.13	0.050			
0.0377	2415.21	4.1270	4.1270	0.8586	25.08	-0.13	0.050			
0.0386	2470.52	4.1260	4.1260	0.8578	25.08	-0.13	0.050			
0.0395	2525.24	4.1250	4.1250	0.8568	25.08	-0.13	0.050			
0.0403	2579.96	4.1240	4.1240	0.8556	25.07	-0.14	0.050			
0.0412	2634.89	4.1230	4.1230	0.8542	25.08	-0.13	0.050			
0.0420	2689.70	4.1220	4.1220	0.8531	25.08	-0.13	0.050			
0.0429	2743.85	4.1210	4.1211	0.8508	25.08	-0.13	0.050			
0.0437	2798.53	4.1200	4.1200	0.8493	25.07	-0.14	0.050			
0.0446	2852.65	4.1190	4.1190	0.8480	25.08	-0.13	0.050			
0.0454	2906.97	4.1180	4.1179	0.8461	25.08	-0.13	0.050			
0.0463	2960.88	4.1170	4.1170	0.8455	25.08	-0.13	0.050			
0.0471	3014.65	4.1160	4.1160	0.8447	25.08	-0.13	0.050			
0.0479	3068.63	4.1150	4.1150	0.8447	25.08	-0.13	0.050			
0.0488	3122.46	4.1140	4.1140	0.8446	25.08	-0.13	0.050			
0.0496	3176.19	4.1130	4.1131	0.8441	25.08	-0.13	0.050			
0.0505	3229.88	4.1120	4.1119	0.8448	25.08	-0.13	0.050			
0.0513	3283.66	4.1110	4.1110	0.8453	25.08	-0.13	0.050			
0.0521	3337.59	4.1100	4.1100	0.8463	25.08	-0.13	0.050			
0.0530	3392.10	4.1090	4.1090	0.8463	25.09	-0.12	0.050			
0.0538	3446.10	4.1080	4.1079	0.8468	25.08	-0.13	0.050			
0.0547	3500.33	4.1070	4.1071	0.8471	25.08	-0.13	0.050			
0.0555	3554.68	4.1060	4.1060	0.8475	25.08	-0.13	0.050	0.217	0.338	
0.0564	3609.02	4.1050	4.1050	0.8476	25.08	-0.13	0.050			
0.0572	3663.52	4.1040	4.1040	0.8481	25.09	-0.12	0.050			
0.0581	3718.33	4.1030	4.1029	0.8486	25.08	-0.13	0.050			
0.0590	3772.86	4.1020	4.1021	0.8483	25.08	-0.13	0.050			
0.0598	3827.19	4.1010	4.1009	0.8481	25.08	-0.13	0.050			
0.0606	3881.43	4.1000	4.1000	0.8486	25.08	-0.13	0.050			
0.0615	3935.72	4.0990	4.0991	0.8485	25.08	-0.13	0.050			
0.0623	3990.03	4.0980	4.0980	0.8480	25.08	-0.13	0.050			
0.0632	4044.21	4.0970	4.0969	0.8467	25.08	-0.13	0.050			
0.0640	4098.39	4.0960	4.0960	0.8470	25.08	-0.13	0.050			
0.0649	4152.30	4.0950	4.0950	0.8464	25.08	-0.13	0.050			
0.0657	4206.77	4.0940	4.0940	0.8451	25.08	-0.13	0.050			
0.0666	4260.69	4.0930	4.0929	0.8449	25.08	-0.13	0.050			
0.0674	4314.54	4.0920	4.0919	0.8439	25.08	-0.13	0.050			
0.0683	4368.53	4.0910	4.0910	0.8441	25.07	-0.14	0.050			
0.0691	4422.33	4.0900	4.0901	0.8445	25.08	-0.13	0.050			
0.0699	4476.65	4.0890	4.0890	0.8452	25.08	-0.13	0.050			
0.0708	4530.63	4.0880	4.0880	0.8458	25.08	-0.13	0.050			
0.0716	4584.48	4.0870	4.0869	0.8456	25.06	-0.15	0.050			
0.0725	4638.88	4.0860	4.0860	0.8454	25.07	-0.14	0.050			
0.0733	4693.22	4.0850	4.0851	0.8452	25.08	-0.13	0.050			
0.0742	4747.31	4.0840	4.0839	0.8454	25.06	-0.15	0.050			
0.0750	4801.45	4.0830	4.0829	0.8448	25.06	-0.15	0.050	0.282	0.491	
0.0759	4855.47	4.0820	4.0820	0.8439	25.06	-0.15	0.050			
0.0767	4909.59	4.0810	4.0809	0.8433	25.06	-0.15	0.050			
0.0776	4963.44	4.0800	4.0800	0.8424	25.06	-0.15	0.050			
0.0784	5017.51	4.0790	4.0791	0.8427	25.06	-0.15	0.050			
0.0792	5071.52	4.0780	4.0780	0.8417	25.06	-0.15	0.050			
0.0801	5125.90	4.0770	4.0770	0.8406	25.06	-0.15	0.050			
0.0809	5179.75	4.0760	4.0761	0.8390	25.06	-0.15	0.050			
0.0818	5233.33	4.0750	4.0750	0.8378	25.06	-0.15	0.050			
0.0826	5287.01	4.0740	4.0740	0.8386	25.06	-0.15	0.050			
0.0834	5340.49	4.0730	4.0730	0.8379	25.06	-0.15	0.050			
0.0843	5393.51	4.0720	4.0720	0.8372	25.06	-0.15	0.050			
0.0851	5446.56	4.0710	4.0710	0.8377	25.06	-0.15	0.050			
0.0859	5499.83	4.0700	4.0700	0.8377	25.06	-0.15	0.050			
0.0868	5553.28	4.0690	4.0690	0.8382	25.06	-0.15	0.050			
0.0876	5606.33	4.0680	4.0680	0.8405	25.06	-0.15	0.050			
0.0884	5659.88	4.0670	4.0670	0.8421	25.06	-0.15	0.050			
0.0893	5714.05	4.0660	4.0658	0.8435	25.06	-0.15	0.050			
0.0901	5768.12	4.0650	4.0650	0.8452	25.06	-0.15	0.050			
0.0910	5822.33	4.0640	4.0640	0.8461	25.06	-0.15	0.050			
0.0918	5876.40	4.0630	4.0629	0.8481	25.06	-0.15	0.050			
0.0927	5930.72	4.0620	4.0620	0.8495	25.07	-0.14	0.050			
0.0935	5985.35	4.0610	4.0611	0.8517	25.07	-0.14	0.050			
0.0944	6039.97	4.0600	4.0600	0.8536	25.07	-0.14	0.050			
0.0952	6094.64	4.0590	4.0590	0.8555	25.07	-0.14	0.050	0.218	0.342	
0.0961	6150.03	4.0580	4.0581	0.8563	25.07	-0.14	0.050			
0.0970	6205.33	4.0570	4.0570	0.8584	25.08	-0.13	0.050			
0.0978	6260.39	4.0560	4.0560	0.8587	25.08	-0.13	0.050			
0.0987	6315.16	4.0550	4.0548	0.8594	25.08	-0.13	0.050			
0.0995	6369.88	4.0540	4.0540	0.8596	25.08	-0.13	0.050			
0.1004	6425.27	4.0530	4.0531	0.8603	25.08	-0.13	0.050			
0.1013	6480.26	4.0520	4.0520	0.8601	25.08	-0.13	0.050			
0.1021	6535.31	4.0510	4.0510	0.8605	25.08	-0.13	0.050			
0.1030	6590.91	4.0500	4.0501	0.8607	25.08	-0.13	0.050			
0.1038	6645.96	4.0490	4.0490	0.8600	25.08	-0.13	0.050			
0.1047	6700.49	4.0480	4.0479	0.8606	25.08	-0.13	0.050			
0.1056	6755.73	4.0470	4.0470	0.8613	25.09	-0.12	0.050			
0.1064	6811.34	4.0460	4.0460	0.8622	25.09	-0.12	0.050			
0.1073	6865.85	4.0450	4.0450	0.8637	25.09	-0.12	0.050			
0.1081	6921.00	4.0440	4.0440	0.8648	25.09	-0.12	0.050			
0.1090	6975.97	4.0430	4.0430	0.8651	25.09	-0.12	0.050			
0.1099	7031.16	4.0420	4.0419	0.8666	25.08	-0.13	0.050			
0.1107	7086.74	4.0410	4.0410	0.8671	25.10	-0.11	0.050			
0.1116	7142.51	4.0400	4.0399	0.8671	25.08	-0.13	0.050			
0.1125	7198.19	4.0390	4.0388	0.8682	25.09	-0.12	0.050			
0.1133	7254.26	4.0380	4.0381	0.8691	25.09	-0.12	0.050			
0.1142	7309.86	4.0370	4.0371	0.8688	25.09	-0.12	0.050			
0.1151	7365.30	4.0360	4.0360	0.8697	25.08	-0.13	0.050	0.127	0.394	
0.1160	7421.04	4.0350	4.0350	0.8704	25.08	-0.13	0.050			
0.1168	7476.70	4.0340	4.0341	0.8717	25.09	-0.12	0.050			
0.1177	7532.95	4.0330	4.0331	0.8732	25.08	-0.13	0.050			
0.1186	7588.64	4.0320	4.0321	0.8740	25.08	-0.13	0.050			
0.1194	7644.55	4.0310	4.0310	0.8753	25.09	-0.12	0.050			
0.1203	7700.42	4.0300	4.0300	0.8769	25.10	-0.11	0.050			
0.1212	7756.51	4.0290	4.0290	0.8770	25.09	-0.12	0.050			
0.1221	7812.48	4.0280	4.0280	0.8758	25.08	-0.13	0.050			
0.1229	7868.62	4.0270	4.0270	0.8769	25.09	-0.12	0.050			
0.1238	7924.88	4.0260	4.0260	0.8774	25.08	-0.13	0.050			
0.1247	7980.61	4.0250	4.0250	0.8770	25.08	-0.13	0.050			
0.1256	8036.80	4.0240	4.0240	0.8783	25.07	-0.14	0.050			
0.1265	8093.14	4.0230	4.0230	0.8807	25.08	-0.13	0.050			
0.1273	8149.61	4.0220	4.0220	0.8826	25.08	-0.13	0.050			
0.1282	8206.16	4.0210	4.0210	0.8841	25.08	-0.13	0.050			
0.1291	8263.11	4.0200	4.0200	0.8860	25.09	-0.12	0.050			
0.1300	8319.73	4.0190	4.0190	0.8869	25.08	-0.13	0.050			
0.1309	8376.70	4.0180	4.0180	0.8872	25.08	-0.13	0.050			
0.1318	8433.46	4.0170	4.0170	0.8876	25.08	-0.13	0.050			
0.1327	8489.92	4.0160	4.0160	0.8887	25.08	-0.13	0.050			
0.1335	8546.90	4.0150	4.0150	0.8896	25.08	-0.13	0.050			
0.1344	8603.84	4.0140	4.0140	0.8905	25.08	-0.13	0.050			
0.1353	8660.78	4.0130	4.0129	0.8914	25.08	-0.13	0.050	0.298	0.463	
0.1362	8718.00	4.0120	4.0120	0.8920	25.08	-0.13	0.050			
0.1371	8775.36	4.0110	4.0110	0.8918	25.08	-0.13	0.050			
0.1380	8832.73	4.0100	4.0100	0.8933	25.08	-0.13	0.050			
0.1389	8889.94	4.0090	4.0091	0.8938	25.08	-0.13	0.050			
0.1398	8947.67	4.0080	4.0079	0.8951	25.08	-0.13	0.050			
0.1407	9004.80	4.0070	4.0070	0.8955	25.08	-0.13	0.050			
0.1416	9061.93	4.0060	4.0061	0.8958	25.08	-0.13	0.050			
0.1425	9119.32	4.0050	4.0049	0.8952	25.08	-0.13	0.050			
0.1434	9176.32	4.0040	4.0041	0.8955	25.08	-0.13	0.050			
0.1443	9233.10	4.0030	4.0030	0.8970	25.07	-0.14	0.050			
0.1452	9290.48	4.0020	4.0020	0.8977	25.08	-0.13	0.050			
0.1461	9347.77	4.0010	4.0010	0.8998	25.08	-0.13	0.050			
0.1470	9405.65	4.0000	4.0000	0.9006	25.07	-0.14	0.050			
0.1479	9463.28	3.9990	3.9989	0.9018	25.08	-0.13	0.050			
0.1488	9521.09	3.9980	3.9979	0.9031	25.08	-0.13	0.050			
0.1497	9578.94	3.9970	3.9970	0.9033	25.08	-0.13	0.050			
0.1506	9636.49	3.9960	3.9961	0.9046	25.08	-0.13	0.050			
0.1515	9694.46	3.9950	3.9950	0.9064	25.08	-0.13	0.050			
0.1524	9752.41	3.9940	3.9940	0.9090	25.08	-0.13	0.050			
0.1533	9810.66	3.9930	3.9931	0.9107	25.09	-0.12	0.050			
0.1542	9869.16	3.9920	3.9920	0.9127	25.08	-0.13	0.050			
0.1551	9927.68	3.9910	3.9910	0.9149	25.09	-0.12	0.050	0.286	0.504	
0.1560	9986.42	3.9900	3.9899	0.9159	25.09	-0.12	0.050			
0.1570	10044.99	3.9890	3.9890	0.9174	25.08	-0.13	0.050			
0.1579	10103.82	3.9880	3.9880	0.9180	25.08	-0.13	0.050			
0.1588	10162.60	3.9870	3.9869	0.9200	25.08	-0.13	0.050			
0.1597	10221.40	3.9860	3.9861	0.9215	25.08	-0.13	0.050			
0.1606	10280.35	3.9850	3.9849	0.9238	25.08	-0.13	0.050			
0.1615	10339.19	3.9840	3.9841	0.9258	25.09	-0.12	0.050			
0.1625	10398.42	3.9830	3.9830	0.9268	25.09	-0.12	0.050			
0.1634	10458.22	3.9820	3.9821	0.9289	25.08	-0.13	0.050			
0.1643	10517.93	3.9810	3.9810	0.9306	25.08	-0.13	0.050			
0.1653	10577.64	3.9800	3.9800	0.9333	25.09	-0.12	0.050			
0.1662	10637.71	3.9790	3.9791	0.9336	25.08	-0.13	0.050			
0.1671	10697.54	3.9780	3.9780	0.9349	25.08	-0.13	0.050			
0.1681	10757.47	3.9770	3.9770	0.9358	25.09	-0.12	0.050			
0.1690	10817.33	3.9760	3.9760	0.9358	25.08	-0.13	0.050			
0.1700	10877.51	3.9750	3.9750	0.9361	25.09	-0.12	0.050			
0.1709	10937.59	3.9740	3.9741	0.9362	25.09	-0.12	0.050			
0.1718	10997.79	3.9730	3.9730	0.9365	25.09	-0.12	0.050			
0.1728	11058.11	3.9720	3.9720	0.9368	25.09	-0.12	0.050			
0.1737	11118.28	3.9710	3.9710	0.9362	25.08	-0.13	0.050			
0.1747	11178.43	3.9700	3.9700	0.9363	25.08	-0.13	0.050			
0.1756	11238.53	3.9690	3.9688	0.9352	25.08	-0.13	0.050	0.296	0.452	
0.1765	11298.51	3.9680	3.9681	0.9335	25.09	-0.12	0.050			
0.1775	11358.10	3.9670	3.9670	0.9317	25.09	-0.12	0.050			
0.1784	11417.43	3.9660	3.9661	0.9303	25.10	-0.11	0.050			
0.1793	11476.72	3.9650	3.9650	0.9300	25.09	-0.12	0.050			
0.1803	11536.17	3.9640	3.9640	0.9288	25.09	-0.12	0.050			
0.1812	11595.56	3.9630	3.9630	0.9288	25.10	-0.11	0.050			
0.1821	11654.84	3.9620	3.9621	0.9282	25.10	-0.11	0.050			
0.1830	11714.11	3.9610	3.9609	0.9274	25.10	-0.11	0.050			
0.1840	11773.24	3.9600	3.9601	0.9260	25.10	-0.11	0.050			
0.1849	11832.44	3.9590	3.9590	0.9258	25.09	-0.12	0.050			
0.1858	11891.70	3.9580	3.9579	0.9247	25.09	-0.12	0.050			
0.1867	11951.11	3.9570	3.9570	0.9248	25.08	-0.13	0.050			
0.1877	12010.00	3.9560	3.9561	0.9250	25.08	-0.13	0.050			
0.1886	12069.10	3.9550	3.9550	0.9248	25.09	-0.12	0.050			
0.1895	12128.30	3.9540	3.9540	0.9248	25.09	-0.12	0.050			
0.1904	12187.22	3.9530	3.9531	0.9257	25.09	-0.12	0.050			
0.1914	12246.42	3.9520	3.9520	0.9261	25.09	-0.12	0.050			
0.1923	12305.97	3.9510	3.9511	0.9265	25.08	-0.13	0.050			
0.1932	12365.28	3.9500	3.9499	0.9263	25.08	-0.13	0.050			
0.1941	12424.89	3.9490	3.9490	0.9257	25.08	-0.13	0.050			
0.1951	12484.49	3.9480	3.9479	0.9246	25.08	-0.13	0.050	0.180	0.431	
0.1960	12543.78	3.9470	3.9470	0.9228	25.07	-0.14	0.050			
0.1969	12602.89	3.9460	3.9460	0.9212	25.08	-0.13	0.050			
0.1978	12661.85	3.9450	3.9450	0.9203	25.07	-0.14	0.050			
0.1988	12721.18	3.9440	3.9440	0.9188	25.08	-0.13	0.050			
0.1997	12780.13	3.9430	3.9431	0.9168	25.08	-0.13	0.050			
0.2006	12838.73	3.9420	3.9420	0.9148	25.07	-0.14	0.050			
0.2015	12897.45	3.9410	3.9410	0.9144	25.07	-0.14	0.050			
0.2024	12955.71	3.9400	3.9400	0.9133	25.08	-0.13	0.050			
0.2033	13013.96	3.9390	3.9390	0.9116	25.07	-0.14	0.050			
0.2043	13072.15	3.9380	3.9379	0.9104	25.08	-0.13	0.050			
0.2052	13129.91	3.9370	3.9370	0.9088	25.08	-0.13	0.050			
0.2061	13187.78	3.9360	3.9359	0.9070	25.08	-0.13	0.050			
0.2070	13245.45	3.9350	3.9350	0.9065	25.07	-0.14	0.050			
0.2079	13303.25	3.9340	3.9340	0.9058	25.08	-0.13	0.050			
0.2088	13361.07	3.9330	3.9329	0.9039	25.08	-0.13	0.050			
0.2097	13418.83	3.9320	3.9321	0.9043	25.08	-0.13	0.050			
0.2106	13477.15	3.9310	3.9310	0.9039	25.08	-0.13	0.050			
0.2115	13535.20	3.9300	3.9299	0.9033	25.08	-0.13	0.050			
0.2124	13593.36	3.9290	3.9290	0.9020	25.08	-0.13	0.050			
0.2133	13651.63	3.9280	3.9280	0.9002	25.08	-0.13	0.050			
0.2142	13709.20	3.9270	3.9270	0.8978	25.09	-0.12	0.050			
0.2151	13767.18	3.9260	3.9259	0.8955	25.10	-0.11	0.050	0.349	0.426	
0.2160	13824.83	3.9250	3.9251	0.8922	25.10	-0.11	0.050			
0.2169	13882.32	3.9240	3.9240	0.8898	25.10	-0.11	0.050			
0.2178	13939.38	3.9230	3.9230	0.8866	25.09	-0.12	0.050			
0.2187	13995.84	3.9220	3.9220	0.8827	25.10	-0.11	0.050			
0.2196	14052.18	3.9210	3.9211	0.8791	25.10	-0.11	0.050			
0.2204	14107.87	3.9200	3.9199	0.8767	25.09	-0.12	0.050			
0.2213	14163.63	3.9190	3.9190	0.8734	25.10	-0.11	0.050			
0.2222	14219.29	3.9180	3.9180	0.8710	25.10	-0.11	0.050			
0.2230	14274.45	3.9170	3.9170	0.8689	25.10	-0.11	0.050			
0.2239	14329.66	3.9160	3.9159	0.8678	25.10	-0.11	0.050			
0.2248	14384.32	3.9150	3.9150	0.8661	25.10	-0.11	0.050			
0.2256	14439.48	3.9140	3.9140	0.8654	25.10	-0.11	0.050			
0.2265	14494.52	3.9130	3.9131	0.8645	25.10	-0.11	0.050			
0.2273	14549.86	3.9120	3.9119	0.8631	25.10	-0.11	0.050			
0.2282	14605.08	3.9110	3.9109	0.8627	25.10	-0.11	0.050			
0.2291	14660.42	3.9100	3.9100	0.8625	25.10	-0.11	0.050			
0.2299	14715.64	3.9090	3.9090	0.8624	25.10	-0.11	0.050			
0.2308	14771.28	3.9080	3.9079	0.8613	25.10	-0.11	0.050			
0.2317	14826.68	3.9070	3.9069	0.8602	25.10	-0.11	0.050			
0.2325	14882.00	3.9060	3.9060	0.8588	25.10	-0.11	0.050			
0.2334	14937.22	3.9050	3.9051	0.8583	25.10	-0.11	0.050			
0.2343	14992.15	3.9040	3.9041	0.8568	25.10	-0.11	0.050			
0.2351	15047.14	3.9030	3.9030	0.8551	25.10	-0.11	0.050			
0.2360	15101.97	3.9020	3.9019	0.8532	25.10	-0.11	0.050			
0.2368	15156.46	3.9010	3.9009	0.8504	25.10	-0.11	0.050			
0.2377	15210.74	3.9000	3.9001	0.8482	25.10	-0.11	0.050			
0.2385	15265.12	3.8990	3.8990	0.8461	25.10	-0.11	0.050			
0.2394	15319.20	3.8980	3.8978	0.8436	25.10	-0.11	0.050			
0.2402	15372.92	3.8970	3.8970	0.8409	25.10	-0.11	0.050			
0.2410	15426.49	3.8960	3.8959	0.8384	25.10	-0.11	0.050			
0.2419	15479.91	3.8950	3.8950	0.8368	25.10	-0.11	0.050			
0.2427	15533.49	3.8940	3.8940	0.8348	25.10	-0.11	0.050			
0.2435	15586.76	3.8930	3.8930	0.8336	25.10	-0.11	0.050			
0.2444	15639.92	3.8920	3.8919	0.8329	25.10	-0.11	0.050			
0.2452	15693.23	3.8910	3.8910	0.8310	25.11	-0.10	0.050			
0.2460	15746.19	3.8900	3.8900	0.8286	25.11	-0.10	0.050			
0.2469	15799.20	3.8890	3.8890	0.8267	25.11	-0.10	0.050			
0.2477	15852.06	3.8880	3.8880	0.8259	25.12	-0.09	0.050			
0.2485	15904.64	3.8870	3.8870	0.8248	25.11	-0.10	0.050			
0.2493	15957.29	3.8860	3.8860	0.8230	25.11	-0.10	0.050			
0.2502	16009.75	3.8850	3.8850	0.8215	25.12	-0.09	0.050			
0.2510	16062.48	3.8840	3.8840	0.8211	25.12	-0.09	0.050			
0.2518	16115.11	3.8830	3.8830	0.8194	25.12	-0.09	0.050			
0.2526	16167.64	3.8820	3.8821	0.8184	25.12	-0.09	0.050			
0.2534	16219.93	3.8810	3.8810	0.8177	25.12	-0.09	0.050			
0.2543	16272.28	3.8800	3.8800	0.8163	25.12	-0.09	0.050			
0.2551	16324.44	3.8790	3.8790	0.8153	25.13	-0.08	0.050	0.291	0.383	
0.2559	16376.64	3.8780	3.8781	0.8147	25.13	-0.08	0.050			
0.2567	16428.67	3.8770	3.8770	0.8130	25.14	-0.07	0.050			
0.2575	16480.61	3.8760	3.8760	0.8113	25.14	-0.07	0.050			
0.2583	16532.53	3.8750	3.8751	0.8110	25.14	-0.07	0.050			
0.2591	16584.28	3.8740	3.8741	0.8088	25.14	-0.07	0.050			
0.2599	16636.23	3.8730	3.8730	0.8075	25.15	-0.06	0.050			
0.2607	16687.93	3.8720	3.8720	0.8060	25.15	-0.06	0.050			
0.2616	16739.30	3.8710	3.8710	0.8052	25.15	-0.06	0.050			
0.2624	16790.94	3.8700	3.8699	0.8050	25.16	-0.05	0.050			
0.2632	16842.12	3.8690	3.8689	0.8040	25.16	-0.05	0.050			
0.2640	16893.31	3.8680	3.8680	0.8030	25.16	-0.05	0.050			
0.2648	16944.59	3.8670	3.8670	0.8020	25.16	-0.05	0.050			
0.2656	16996.24	3.8660	3.8660	0.8001	25.16	-0.05	0.050			
0.2664	17047.36	3.8650	3.8651	0.8000	25.16	-0.05	0.050			
0.2672	17098.10	3.8640	3.8640	0.8002	25.16	-0.05	0.050			
0.2680	17149.48	3.8630	3.8630	0.7996	25.17	-0.04	0.050			
0.2688	17200.43	3.8620	3.8619	0.7998	25.16	-0.05	0.050			
0.2696	17251.37	3.8610	3.8611	0.7992	25.17	-0.04	0.050			
0.2704	17302.41	3.8600	3.8601	0.7993	25.16	-0.05	0.050			
0.2712	17353.69	3.8590	3.8590	0.7986	25.16	-0.05	0.050			
0.2719	17404.54	3.8580	3.8580	0.7991	25.15	-0.06	0.050			
0.2727	17455.68	3.8570	3.8571	0.7996	25.16	-0.05	0.050			
0.2735	17506.80	3.8560	3.8558	0.8004	25.15	-0.06	0.050			
0.2743	17558.28	3.8550	3.8550	0.7988	25.14	-0.07	0.050			
0.2751	17609.47	3.8540	3.8540	0.7993	25.14	-0.07	0.050	0.352	0.486	
0.2759	17660.70	3.8530	3.8530	0.7998	25.14	-0.07	0.050			
0.2768	17712.08	3.8520	3.8520	0.8001	25.14	-0.07	0.050			
0.2776	17763.24	3.8510	3.8510	0.7987	25.14	-0.07	0.050			
0.2783	17814.15	3.8500	3.8500	0.7983	25.14	-0.07	0.050			
0.2792	17865.62	3.8490	3.8489	0.7983	25.14	-0.07	0.050			
0.2800	17916.87	3.8480	3.8480	0.7981	25.14	-0.07	0.050			
0.2808	17968.07	3.8470	3.8470	0.7975	25.14	-0.07	0.050			
0.2816	18019.30	3.8460	3.8461	0.7969	25.14	-0.07	0.050			
0.2823	18070.07	3.8450	3.8450	0.7950	25.13	-0.08	0.050			
0.2831	18120.59	3.8440	3.8439	0.7945	25.12	-0.09	0.050			
0.2839	18171.25	3.8430	3.8431	0.7946	25.13	-0.08	0.050			
0.2847	18222.14	3.8420	3.8421	0.7946	25.12	-0.09	0.050			
0.2855	18272.76	3.8410	3.8409	0.7950	25.12	-0.09	0.050			
0.2863	18323.29	3.8400	3.8401	0.7965	25.12	-0.09	0.050			
0.2871	18374.27	3.8390	3.8391	0.7966	25.12	-0.09	0.050			
0.2879	18424.68	3.8380	3.8380	0.7971	25.12	-0.09	0.050			
0.2887	18475.41	3.8370	3.8369	0.7987	25.12	-0.09	0.050			
0.2895	18526.55	3.8360	3.8360	0.8007	25.12	-0.09	0.050			
0.2903	18577.88	3.8350	3.8349	0.8030	25.12	-0.09	0.050			
0.2911	18628.96	3.8340	3.8340	0.8052	25.12	-0.09	0.050			
0.2919	18680.28	3.8330	3.8330	0.8068	25.12	-0.09	0.050			
0.2927	18732.06	3.8320	3.8320	0.8092	25.12	-0.09	0.050			
0.2935	18784.28	3.8310	3.8310	0.8114	25.12	-0.09	0.050			
0.2943	18836.17	3.8300	3.8300	0.8131	25.12	-0.09	0.050			
0.2951	18888.46	3.8290	3.8290	0.8155	25.12	-0.09	0.050	0.263	0.387	
0.2960	18940.85	3.8280	3.8280	0.8184	25.12	-0.09	0.050			
0.2968	18993.21	3.8270	3.8271	0.8214	25.12	-0.09	0.050			
0.2976	19045.93	3.8260	3.8261	0.8233	25.13	-0.08	0.050			
0.2984	19098.50	3.8250	3.8250	0.8268	25.14	-0.07	0.050			
0.2992	19151.21	3.8240	3.8240	0.8290	25.13	-0.08	0.050			
0.3001	19204.18	3.8230	3.8230	0.8327	25.12	-0.09	0.050			
0.3009	19257.42	3.8220	3.8220	0.8354	25.13	-0.08	0.050			
0.3017	19311.09	3.8210	3.8209	0.8381	25.14	-0.07	0.050			
0.3026	19364.75	3.8200	3.8200	0.8406	25.14	-0.07	0.050			
0.3034	19418.64	3.8190	3.8190	0.8441	25.14	-0.07	0.050			
0.3043	19472.83	3.8180	3.8180	0.8474	25.14	-0.07	0.050			
0.3051	19527.29	3.8170	3.8171	0.8490	25.14	-0.07	0.050			
0.3060	19581.70	3.8160	3.8159	0.8524	25.14	-0.07	0.050			
0.3068	19636.62	3.8150	3.8150	0.8545	25.14	-0.07	0.050			
0.3077	19691.45	3.8140	3.8140	0.8572	25.14	-0.07	0.050			
0.3085	19746.54	3.8130	3.8131	0.8600	25.14	-0.07	0.050			
0.3094	19801.81	3.8120	3.8120	0.8631	25.14	-0.07	0.050			
0.3103	19857.20	3.8110	3.8110	0.8664	25.14	-0.07	0.050			
0.3111	19912.41	3.8100	3.8100	0.8696	25.14	-0.07	0.050			
0.3120	19967.94	3.8090	3.8090	0.8726	25.14	-0.07	0.050			
0.3129	20023.34	3.8080	3.8080	0.8758	25.14	-0.07	0.050			
0.3137	20079.19	3.8070	3.8070	0.8796	25.14	-0.07	0.050			
0.3146	20135.36	3.8060	3.8061	0.8835	25.14	-0.07	0.050			
0.3155	20191.78	3.8050	3.8050	0.8864	25.14	-0.07	0.050	0.152	0.343	
0.3164	20248.67	3.8040	3.8040	0.8914	25.14	-0.07	0.050			
0.3173	20305.68	3.8030	3.8029	0.8950	25.13	-0.08	0.050			
0.3182	20363.22	3.8020	3.8020	0.8997	25.14	-0.07	0.050			
0.3191	20421.01	3.8010	3.8010	0.9045	25.14	-0.07	0.050			
0.3200	20478.89	3.8000	3.8000	0.9092	25.14	-0.07	0.050			
0.3209	20537.46	3.7990	3.7990	0.9137	25.14	-0.07	0.050			
0.3218	20596.01	3.7980	3.7980	0.9185	25.14	-0.07	0.050			
0.3227	20655.43	3.7970	3.7971	0.9233	25.14	-0.07	0.050			
0.3237	20714.88	3.7960	3.7960	0.9273	25.14	-0.07	0.050			
0.3246	20774.54	3.7950	3.7950	0.9317	25.14	-0.07	0.050			
0.3255	20833.99	3.7940	3.7940	0.9365	25.14	-0.07	0.050			
0.3265	20893.94	3.7930	3.7930	0.9404	25.15	-0.06	0.050			
0.3274	20954.20	3.7920	3.7919	0.9446	25.15	-0.06	0.050			
0.3283	21014.39	3.7910	3.7911	0.9490	25.16	-0.05	0.050			
0.3293	21074.82	3.7900	3.7900	0.9546	25.16	-0.05	0.050			
0.3303	21136.09	3.7890	3.7890	0.9600	25.16	-0.05	0.050			
0.3312	21197.44	3.7880	3.7881	0.9649	25.16	-0.05	0.050			
0.3322	21259.24	3.7870	3.7870	0.9704	25.16	-0.05	0.050			
0.3332	21321.85	3.7860	3.7860	0.9755	25.17	-0.04	0.050			
0.3341	21384.74	3.7850	3.7849	0.9800	25.16	-0.05	0.050			
0.3351	21447.64	3.7840	3.7840	0.9845	25.17	-0.04	0.050	0.407	0.431	
0.3361	21510.96	3.7830	3.7829	0.9899	25.18	-0.03	0.050			
0.3371	21574.16	3.7820	3.7820	0.9954	25.18	-0.03	0.050			
0.3381	21638.04	3.7810	3.7810	1.0007	25.18	-0.03	0.050			
0.3391	21702.32	3.7800	3.7801	1.0057	25.18	-0.03	0.050			
0.3401	21766.68	3.7790	3.7791	1.0117	25.18	-0.03	0.050			
0.3411	21831.62	3.7780	3.7780	1.0173	25.19	-0.02	0.050			
0.3421	21897.02	3.7770	3.7771	1.0236	25.18	-0.03	0.050			
0.3432	21962.63	3.7760	3.7760	1.0286	25.20	-0.01	0.050			
0.3442	22028.88	3.7750	3.7750	1.0331	25.20	-0.01	0.050			
0.3452	22094.84	3.7740	3.7740	1.0379	25.20	-0.01	0.050			
0.3463	22161.27	3.7730	3.7730	1.0443	25.20	-0.01	0.050			
0.3473	22228.26	3.7720	3.7720	1.0491	25.20	-0.01	0.050			
0.3484	22295.42	3.7710	3.7710	1.0542	25.20	-0.01	0.050			
0.3494	22363.15	3.7700	3.7700	1.0590	25.20	-0.01	0.050			
0.3505	22431.31	3.7690	3.7689	1.0649	25.20	-0.01	0.050			
0.3516	22500.05	3.7680	3.7680	1.0701	25.20	-0.01	0.050			
0.3526	22568.78	3.7670	3.7671	1.0751	25.19	-0.02	0.050			
0.3537	22638.13	3.7660	3.7659	1.0808	25.18	-0.03	0.050			
0.3548	22707.66	3.7650	3.7649	1.0854	25.19	-0.02	0.050			
0.3559	22777.19	3.7640	3.7640	1.0900	25.18	-0.03	0.050	0.200	0.431	
0.3570	22846.65	3.7630	3.7630	1.0947	25.18	-0.03	0.050			
0.3581	22916.32	3.7620	3.7620	1.1002	25.18	-0.03	0.050			
0.3592	22986.43	3.7610	3.7611	1.1070	25.18	-0.03	0.050			
0.3603	23057.36	3.7600	3.7600	1.1134	25.17	-0.04	0.050			
0.3614	23128.12	3.7590	3.7591	1.1201	25.17	-0.04	0.050			
0.3625	23199.77	3.7580	3.7580	1.1269	25.16	-0.05	0.050			
0.3636	23271.96	3.7570	3.7570	1.1351	25.17	-0.04	0.050			
0.3648	23344.81	3.7560	3.7560	1.1425	25.16	-0.05	0.050			
0.3659	23417.97	3.7550	3.7550	1.1501	25.15	-0.06	0.050			
0.3671	23491.77	3.7540	3.7540	1.1580	25.14	-0.07	0.050			
0.3682	23565.58	3.7530	3.7531	1.1666	25.14	-0.07	0.050			
0.3694	23640.78	3.7520	3.7521	1.1756	25.14	-0.07	0.050			
0.3706	23716.34	3.7510	3.7510	1.1839	25.14	-0.07	0.050			
0.3718	23792.59	3.7500	3.7500	1.1934	25.14	-0.07	0.050			
0.3730	23869.57	3.7490	3.7491	1.2005	25.14	-0.07	0.050			
0.3742	23947.25	3.7480	3.7480	1.2083	25.14	-0.07	0.050			
0.3754	24025.04	3.7470	3.7469	1.2156	25.14	-0.07	0.050	0.328	0.452	
0.3766	24102.99	3.7460	3.7460	1.2239	25.14	-0.07	0.050			
0.3778	24181.68	3.7450	3.7449	1.2317	25.14	-0.07	0.050			
0.3791	24260.83	3.7440	3.7440	1.2381	25.14	-0.07	0.050			
0.3803	24340.31	3.7430	3.7430	1.2445	25.14	-0.07	0.050			
0.3816	24419.84	3.7420	3.7420	1.2519	25.12	-0.09	0.050			
0.3828	24500.04	3.7410	3.7410	1.2596	25.12	-0.09	0.050			
0.3841	24580.85	3.7400	3.7401	1.2679	25.13	-0.08	0.050			
0.3853	24662.17	3.7390	3.7390	1.2749	25.12	-0.09	0.050			
0.3866	24744.07	3.7380	3.7379	1.2835	25.13	-0.08	0.050			
0.3879	24825.79	3.7370	3.7369	1.2925	25.12	-0.09	0.050			
0.3892	24909.01	3.7360	3.7360	1.3011	25.13	-0.08	0.050			
0.3905	24992.22	3.7350	3.7350	1.3091	25.12	-0.09	0.050			
0.3918	25076.01	3.7340	3.7340	1.3177	25.12	-0.09	0.050			
0.3931	25160.51	3.7330	3.7330	1.3260	25.12	-0.09	0.050			
0.3945	25245.51	3.7320	3.7321	1.3368	25.13	-0.08	0.050			
0.3958	25331.25	3.7310	3.7310	1.3463	25.12	-0.09	0.050	0.062	0.443	
0.3972	25417.88	3.7300	3.7300	1.3551	25.12	-0.09	0.050			
0.3985	25505.30	3.7290	3.7288	1.3650	25.12	-0.09	0.050			
0.3999	25592.56	3.7280	3.7280	1.3746	25.14	-0.07	0.050			
0.4013	25680.44	3.7270	3.7272	1.3847	25.13	-0.08	0.050			
0.4026	25769.25	3.7260	3.7260	1.3953	25.14	-0.07	0.050			
0.4040	25858.69	3.7250	3.7250	1.4066	25.14	-0.07	0.050			
0.4055	25949.18	3.7240	3.7240	1.4170	25.14	-0.07	0.050			
0.4069	26039.85	3.7230	3.7229	1.4276	25.14	-0.07	0.050			
0.4083	26131.24	3.7220	3.7221	1.4378	25.14	-0.07	0.050			
0.4097	26223.81	3.7210	3.7210	1.4483	25.14	-0.07	0.050			
0.4112	26316.77	3.7200	3.7201	1.4596	25.14	-0.07	0.050			
0.4127	26410.54	3.7190	3.7190	1.4708	25.15	-0.06	0.050			
0.4141	26504.87	3.7180	3.7180	1.4819	25.16	-0.05	0.050			
0.4156	26599.64	3.7170	3.7170	1.4936	25.16	-0.05	0.050	0.240	0.496	
0.4171	26695.76	3.7160	3.7160	1.5073	25.17	-0.04	0.050			
0.4186	26792.56	3.7150	3.7150	1.5186	25.18	-0.03	0.050			
0.4202	26889.78	3.7140	3.7140	1.5321	25.18	-0.03	0.050			
0.4217	26987.93	3.7130	3.7131	1.5451	25.18	-0.03	0.050			
0.4232	27086.80	3.7120	3.7120	1.5583	25.18	-0.03	0.050			
0.4248	27186.73	3.7110	3.7110	1.5739	25.20	-0.01	0.050			
0.4264	27287.36	3.7100	3.7100	1.5880	25.20	-0.01	0.050			
0.4279	27388.50	3.7090	3.7090	1.6053	25.20	-0.01	0.050			
0.4295	27490.81	3.7080	3.7080	1.6208	25.20	-0.01	0.050			
0.4312	27594.86	3.7070	3.7070	1.6377	25.19	-0.02	0.050			
0.4328	27700.10	3.7060	3.7061	1.6552	25.19	-0.02	0.050			
0.4345	27806.53	3.7050	3.7049	1.6730	25.19	-0.02	0.050			
0.4362	27914.72	3.7040	3.7039	1.6899	25.18	-0.03	0.050	0.338	0.562	
0.4379	28023.27	3.7030	3.7030	1.7074	25.18	-0.03	0.050			
0.4396	28133.17	3.7020	3.7020	1.7263	25.18	-0.03	0.050			
0.4413	28244.14	3.7010	3.7011	1.7453	25.18	-0.03	0.050			
0.4431	28355.99	3.7000	3.6999	1.7645	25.18	-0.03	0.050			
0.4448	28469.18	3.6990	3.6990	1.7843	25.17	-0.04	0.050			
0.4466	28583.87	3.6980	3.6980	1.8040	25.16	-0.05	0.050			
0.4484	28700.14	3.6970	3.6970	1.8227	25.14	-0.07	0.050			
0.4503	28817.41	3.6960	3.6960	1.8413	25.14	-0.07	0.050			
0.4521	28936.27	3.6950	3.6951	1.8605	25.14	-0.07	0.050			
0.4540	29055.91	3.6940	3.6939	1.8796	25.14	-0.07	0.050			
0.4559	29176.27	3.6930	3.6930	1.8988	25.13	-0.08	0.050	0.258	0.451	
0.4578	29298.46	3.6920	3.6920	1.9176	25.12	-0.09	0.050			
0.4597	29421.06	3.6910	3.6910	1.9384	25.12	-0.09	0.050			
0.4617	29545.74	3.6900	3.6900	1.9576	25.11	-0.10	0.050			
0.4636	29671.74	3.6890	3.6890	1.9780	25.10	-0.11	0.050			
0.4656	29799.27	3.6880	3.6880	1.9997	25.10	-0.11	0.050			
0.4676	29927.95	3.6870	3.6870	2.0201	25.10	-0.11	0.050			
0.4697	30058.03	3.6860	3.6860	2.0404	25.10	-0.11	0.050			
0.4717	30189.32	3.6850	3.6849	2.0613	25.10	-0.11	0.050			
0.4738	30321.75	3.6840	3.6839	2.0822	25.09	-0.12	0.050			
0.4759	30454.78	3.6830	3.6830	2.1023	25.08	-0.13	0.050	0.263	0.413	
0.4780	30589.91	3.6820	3.6819	2.1219	25.09	-0.12	0.050			
0.4801	30726.78	3.6810	3.6811	2.1423	25.10	-0.11	0.050			
0.4823	30864.02	3.6800	3.6799	2.1643	25.10	-0.11	0.050			
0.4844	31002.99	3.6790	3.6790	2.1882	25.10	-0.11	0.050			
0.4866	31143.51	3.6780	3.6780	2.2121	25.12	-0.09	0.050			
0.4888	31285.34	3.6770	3.6770	2.2361	25.13	-0.08	0.050			
0.4911	31428.91	3.6760	3.6759	2.2600	25.14	-0.07	0.050			
0.4933	31573.89	3.6750	3.6750	2.2838	25.14	-0.07	0.050			
0.4956	31720.41	3.6740	3.6740	2.3083	25.16	-0.05	0.050	0.256	0.436	
0.4979	31868.27	3.6730	3.6730	2.3344	25.18	-0.03	0.050			
0.5003	32018.41	3.6720	3.6720	2.3607	25.18	-0.03	0.050			
0.5027	32169.92	3.6710	3.6710	2.3860	25.18	-0.03	0.050			
0.5051	32323.37	3.6700	3.6700	2.4158	25.18	-0.03	0.050			
0.5075	32478.59	3.6690	3.6690	2.4421	25.18	-0.03	0.050			
0.5099	32635.78	3.6680	3.6680	2.4681	25.18	-0.03	0.050			
0.5124	32795.23	3.6670	3.6669	2.4927	25.16	-0.05	0.050			
0.5149	32955.66	3.6660	3.6660	2.5202	25.16	-0.05	0.050	0.225	0.337	
0.5175	33118.23	3.6650	3.6650	2.5473	25.16	-0.05	0.050			
0.5200	33282.53	3.6640	3.6640	2.5721	25.14	-0.07	0.050			
0.5226	33448.90	3.6630	3.6630	2.5973	25.13	-0.08	0.050			
0.5253	33616.75	3.6620	3.6620	2.6180	25.12	-0.09	0.050			
0.5279	33784.63	3.6610	3.6611	2.6383	25.11	-0.10	0.050			
0.5306	33955.68	3.6600	3.6600	2.6577	25.12	-0.09	0.050			
0.5332	34127.35	3.6590	3.6590	2.6757	25.11	-0.10	0.050			
0.5359	34300.34	3.6580	3.6580	2.6910	25.10	-0.11	0.050	0.204	0.426	
0.5387	34474.03	3.6570	3.6571	2.7027	25.10	-0.11	0.050			
0.5414	34648.11	3.6560	3.6561	2.7129	25.08	-0.13	0.050			
0.5441	34823.38	3.6550	3.6550	2.7225	25.08	-0.13	0.050			
0.5469	34998.62	3.6540	3.6541	2.7302	25.06	-0.15	0.050			
0.5496	35174.69	3.6530	3.6530	2.7342	25.06	-0.15	0.050			
0.5524	35351.11	3.6520	3.6520	2.7387	25.05	-0.16	0.050			
0.5551	35527.10	3.6510	3.6510	2.7385	25.04	-0.17	0.050	0.195	0.341	
0.5579	35702.84	3.6500	3.6500	2.7378	25.03	-0.18	0.050			
0.5606	35878.37	3.6490	3.6490	2.7340	25.04	-0.17	0.050			
0.5634	36054.86	3.6480	3.6480	2.7309	25.04	-0.17	0.050			
0.5661	36230.94	3.6470	3.6470	2.7195	25.04	-0.17	0.050			
0.5688	36405.78	3.6460	3.6461	2.7068	25.04	-0.17	0.050			
0.5716	36581.88	3.6450	3.6450	2.6881	25.04	-0.17	0.050			
0.5743	36755.63	3.6440	3.6440	2.6697	25.04	-0.17	0.050	0.275	0.458	
0.5770	36927.36	3.6430	3.6431	2.6474	25.06	-0.15	0.050			
0.5796	37097.55	3.6420	3.6420	2.6227	25.06	-0.15	0.050			
0.5823	37266.56	3.6410	3.6410	2.5930	25.08	-0.13	0.050			
0.5849	37433.00	3.6400	3.6401	2.5574	25.08	-0.13	0.050			
0.5875	37597.64	3.6390	3.6390	2.5208	25.07	-0.14	0.050			
0.5900	37759.85	3.6380	3.6380	2.4806	25.07	-0.14	0.050			
0.5925	37919.08	3.6370	3.6369	2.4371	25.07	-0.14	0.050			
0.5949	38074.34	3.6360	3.6360	2.3926	25.07	-0.14	0.050	0.210	0.454	
0.5973	38226.76	3.6350	3.6349	2.3436	25.06	-0.15	0.050			
0.5996	38375.16	3.6340	3.6340	2.2937	25.06	-0.15	0.050			
0.6019	38520.84	3.6330	3.6330	2.2438	25.04	-0.17	0.050			
0.6041	38663.52	3.6320	3.6320	2.1926	25.04	-0.17	0.050			
0.6063	38802.85	3.6310	3.6311	2.1414	25.03	-0.18	0.050			
0.6084	38938.75	3.6300	3.6300	2.0894	25.03	-0.18	0.050			
0.6105	39071.45	3.6290	3.6289	2.0368	25.04	-0.17	0.050			
0.6125	39200.16	3.6280	3.6279	1.9843	25.03	-0.18	0.050			
0.6145	39325.37	3.6270	3.6270	1.9345	25.02	-0.19	0.050			
0.6163	39446.38	3.6260	3.6260	1.8825	25.03	-0.18	0.050	0.342	0.481	
0.6182	39563.60	3.6250	3.6250	1.8304	25.03	-0.18	0.050			
0.6200	39678.13	3.6240	3.6240	1.7797	25.04	-0.17	0.050			
0.6217	39789.48	3.6230	3.6230	1.7347	25.03	-0.18	0.050			
0.6234	39898.36	3.6220	3.6220	1.6898	25.03	-0.18	0.050			
0.6251	40003.65	3.6210	3.6210	1.6461	25.02	-0.19	0.050			
0.6267	40106.29	3.6200	3.6200	1.6048	25.03	-0.18	0.050			
0.6282	40205.97	3.6190	3.6190	1.5665	25.02	-0.19	0.050			
0.6297	40303.10	3.6180	3.6180	1.5316	25.02	-0.19	0.050			
0.6312	40397.33	3.6170	3.6170	1.4963	25.02	-0.19	0.050			
0.6327	40489.71	3.6160	3.6161	1.4651	25.01	-0.20	0.050			
0.6341	40581.08	3.6150	3.6150	1.4372	25.01	-0.20	0.050			
0.6355	40670.49	3.6140	3.6139	1.4107	25.00	-0.21	0.050	0.141	0.394	
0.6368	40758.17	3.6130	3.6131	1.3880	25.00	-0.21	0.050			
0.6382	40845.09	3.6120	3.6120	1.3682	25.00	-0.21	0.050			
0.6395	40930.18	3.6110	3.6109	1.3486	24.99	-0.22	0.050			
0.6409	41014.84	3.6100	3.6099	1.3323	24.99	-0.22	0.050			
0.6422	41098.19	3.6090	3.6090	1.3173	24.98	-0.23	0.050			
0.6434	41180.56	3.6080	3.6081	1.3040	24.98	-0.23	0.050			
0.6447	41262.08	3.6070	3.6070	1.2935	24.98	-0.23	0.050			
0.6460	41343.84	3.6060	3.6060	1.2854	24.98	-0.23	0.050			
0.6473	41425.47	3.6050	3.6050	1.2782	24.98	-0.23	0.050			
0.6485	41506.42	3.6040	3.6039	1.2720	24.98	-0.23	0.050			
0.6498	41586.63	3.6030	3.6030	1.2644	24.98	-0.23	0.050			
0.6511	41667.22	3.6020	3.6020	1.2590	25.00	-0.21	0.050			
0.6523	41747.30	3.6010	3.6009	1.2526	25.00	-0.21	0.050			
0.6535	41826.96	3.6000	3.5999	1.2473	25.00	-0.21	0.050			
0.6548	41906.30	3.5990	3.5990	1.2421	25.00	-0.21	0.050			
0.6560	41985.74	3.5980	3.5980	1.2377	25.02	-0.19	0.050	0.160	0.527	
0.6573	42065.32	3.5970	3.5970	1.2342	25.02	-0.19	0.050			
0.6585	42144.55	3.5960	3.5960	1.2290	25.03	-0.18	0.050			
0.6597	42223.69	3.5950	3.5950	1.2243	25.04	-0.17	0.050			
0.6610	42302.23	3.5940	3.5940	1.2180	25.04	-0.17	0.050			
0.6622	42380.33	3.5930	3.5930	1.2106	25.04	-0.17	0.050			
0.6634	42458.23	3.5920	3.5920	1.2039	25.06	-0.15	0.050			
0.6646	42535.34	3.5910	3.5909	1.1971	25.06	-0.15	0.050			
0.6658	42611.76	3.5900	3.5901	1.1901	25.06	-0.15	0.050			
0.6670	42687.59	3.5890	3.5890	1.1820	25.06	-0.15	0.050			
0.6682	42762.95	3.5880	3.5881	1.1737	25.06	-0.15	0.050			
0.6693	42837.88	3.5870	3.5869	1.1650	25.08	-0.13	0.050			
0.6705	42912.27	3.5860	3.5859	1.1578	25.06	-0.15	0.050			
0.6717	42986.15	3.5850	3.5850	1.1500	25.07	-0.14	0.050			
0.6728	43059.40	3.5840	3.5840	1.1417	25.06	-0.15	0.050			
0.6739	43131.93	3.5830	3.5830	1.1355	25.06	-0.15	0.050			
0.6751	43204.08	3.5820	3.5820	1.1286	25.06	-0.15	0.050			
0.6762	43275.83	3.5810	3.5810	1.1215	25.06	-0.15	0.050	0.193	0.469	
0.6773	43346.80	3.5800	3.5800	1.1151	25.06	-0.15	0.050			
0.6784	43417.58	3.5790	3.5791	1.1091	25.06	-0.15	0.050			
0.6795	43488.11	3.5780	3.5780	1.1036	25.06	-0.15	0.050			
0.6806	43558.26	3.5770	3.5770	1.0991	25.06	-0.15	0.050			
0.6817	43628.33	3.5760	3.5759	1.0943	25.05	-0.16	0.050			
0.6828	43697.95	3.5750	3.5750	1.0902	25.05	-0.16	0.050			
0.6839	43767.34	3.5740	3.5740	1.0866	25.06	-0.15	0.050			
0.6850	43836.95	3.5730	3.5730	1.0819	25.05	-0.16	0.050			
0.6860	43905.70	3.5720	3.5719	1.0782	25.04	-0.17	0.050			
0.6871	43974.14	3.5710	3.5710	1.0751	25.04	-0.17	0.050			
0.6882	44042.47	3.5700	3.5700	1.0732	25.04	-0.17	0.050			
0.6892	44110.94	3.5690	3.5690	1.0723	25.04	-0.17	0.050			
0.6903	44179.19	3.5680	3.5680	1.0716	25.04	-0.17	0.050			
0.6914	44247.62	3.5670	3.5671	1.0702	25.04	-0.17	0.050			
0.6924	44315.87	3.5660	3.5660	1.0680	25.04	-0.17	0.050			
0.6935	44383.88	3.5650	3.5650	1.0669	25.04	-0.17	0.050			
0.6946	44452.01	3.5640	3.5640	1.0669	25.04	-0.17	0.050			
0.6956	44519.65	3.5630	3.5631	1.0666	25.04	-0.17	0.050	0.253	0.452	
0.6967	44587.37	3.5620	3.5620	1.0690	25.04	-0.17	0.050			
0.6977	44655.64	3.5610	3.5611	1.0696	25.04	-0.17	0.050			
0.6988	44723.78	3.5600	3.5600	1.0715	25.04	-0.17	0.050			
0.6999	44792.29	3.5590	3.5590	1.0734	25.04	-0.17	0.050			
0.7010	44860.89	3.5580	3.5580	1.0765	25.04	-0.17	0.050			
0.7020	44929.53	3.5570	3.5570	1.0788	25.04	-0.17	0.050			
0.7031	44998.45	3.5560	3.5560	1.0828	25.04	-0.17	0.050			
0.7042	45067.71	3.5550	3.5550	1.0858	25.05	-0.16	0.050			
0.7053	45136.63	3.5540	3.5540	1.0919	25.04	-0.17	0.050			
0.7063	45206.25	3.5530	3.5530	1.0978	25.04	-0.17	0.050			
0.7074	45275.30	3.5520	3.5520	1.1040	25.04	-0.17	0.050			
0.7085	45345.42	3.5510	3.5509	1.1132	25.04	-0.17	0.050			
0.7096	45415.87	3.5500	3.5500	1.1221	25.04	-0.17	0.050			
0.7107	45487.28	3.5490	3.5491	1.1317	25.04	-0.17	0.050			
0.7119	45559.24	3.5480	3.5480	1.1430	25.04	-0.17	0.050			
0.7130	45632.41	3.5470	3.5468	1.1555	25.04	-0.17	0.050			
0.7142	45706.18	3.5460	3.5460	1.1687	25.04	-0.17	0.050			
0.7153	45780.66	3.5450	3.5449	1.1811	25.04	-0.17	0.050	0.218	0.429	
0.7165	45856.12	3.5440	3.5440	1.1969	25.03	-0.18	0.050			
0.7177	45932.41	3.5430	3.5430	1.2118	25.03	-0.18	0.050			
0.7189	46010.02	3.5420	3.5420	1.2276	25.02	-0.19	0.050			
0.7201	46088.91	3.5410	3.5410	1.2463	25.02	-0.19	0.050			
0.7214	46168.76	3.5400	3.5401	1.2645	25.02	-0.19	0.050			
0.7227	46249.71	3.5390	3.5390	1.2846	25.01	-0.20	0.050			
0.7239	46331.72	3.5380	3.5380	1.3051	25.02	-0.19	0.050			
0.7252	46414.80	3.5370	3.5370	1.3281	25.00	-0.21	0.050			
0.7266	46499.46	3.5360	3.5359	1.3507	25.01	-0.20	0.050			
0.7279	46585.71	3.5350	3.5350	1.3763	25.00	-0.21	0.050			
0.7293	46672.57	3.5340	3.5341	1.3996	25.00	-0.21	0.050			
0.7307	46762.56	3.5330	3.5330	1.4277	25.00	-0.21	0.050			
0.7321	46854.06	3.5320	3.5320	1.4548	25.00	-0.21	0.050			
0.7336	46947.55	3.5310	3.5309	1.4835	25.00	-0.21	0.050			
0.7350	47042.90	3.5300	3.5300	1.5137	25.00	-0.21	0.050	0.347	0.556	
0.7366	47140.75	3.5290	3.5290	1.5433	25.00	-0.21	0.050			
0.7381	47240.11	3.5280	3.5280	1.5739	25.00	-0.21	0.050			
0.7397	47341.75	3.5270	3.5270	1.6056	25.02	-0.19	0.050			
0.7413	47445.67	3.5260	3.5260	1.6368	25.02	-0.19	0.050			
0.7430	47551.92	3.5250	3.5250	1.6680	25.02	-0.19	0.050			
0.7447	47660.18	3.5240	3.5240	1.6971	25.03	-0.18	0.050			
0.7464	47770.63	3.5230	3.5230	1.7272	25.04	-0.17	0.050			
0.7482	47882.98	3.5220	3.5220	1.7552	25.04	-0.17	0.050			
0.7499	47996.72	3.5210	3.5210	1.7827	25.05	-0.16	0.050			
0.7518	48112.68	3.5200	3.5200	1.8079	25.06	-0.15	0.050			
0.7536	48230.09	3.5190	3.5189	1.8316	25.06	-0.15	0.050			
0.7555	48350.06	3.5180	3.5180	1.8520	25.06	-0.15	0.050	0.268	0.474	
0.7574	48470.45	3.5170	3.5170	1.8720	25.06	-0.15	0.050			
0.7592	48591.77	3.5160	3.5160	1.8913	25.07	-0.14	0.050			
0.7612	48714.80	3.5150	3.5151	1.9093	25.06	-0.15	0.050			
0.7631	48838.96	3.5140	3.5140	1.9248	25.06	-0.15	0.050			
0.7651	48964.35	3.5130	3.5130	1.9359	25.06	-0.15	0.050			
0.7670	49090.84	3.5120	3.5120	1.9444	25.04	-0.17	0.050			
0.7690	49217.88	3.5110	3.5111	1.9490	25.04	-0.17	0.050			
0.7710	49344.72	3.5100	3.5100	1.9510	25.04	-0.17	0.050			
0.7730	49472.15	3.5090	3.5089	1.9465	25.04	-0.17	0.050			
0.7750	49599.66	3.5080	3.5080	1.9384	25.04	-0.17	0.050	0.352	0.555	
0.7770	49726.59	3.5070	3.5070	1.9280	25.02	-0.19	0.050			
0.7790	49853.28	3.5060	3.5061	1.9102	25.02	-0.19	0.050			
0.7809	49977.84	3.5050	3.5050	1.8907	25.02	-0.19	0.050			
0.7828	50101.34	3.5040	3.5040	1.8642	25.02	-0.19	0.050			
0.7847	50223.69	3.5030	3.5031	1.8308	25.01	-0.20	0.050			
0.7866	50343.22	3.5020	3.5020	1.7934	25.01	-0.20	0.050			
0.7884	50460.16	3.5010	3.5011	1.7549	25.00	-0.21	0.050			
0.7902	50574.74	3.5000	3.5000	1.7087	25.00	-0.21	0.050			
0.7920	50685.39	3.4990	3.4990	1.6538	25.00	-0.21	0.050			
0.7936	50792.28	3.4980	3.4980	1.5983	25.00	-0.21	0.050			
0.7952	50894.98	3.4970	3.4969	1.5351	24.98	-0.23	0.050	0.204	0.444	
0.7968	50993.31	3.4960	3.4961	1.4720	24.98	-0.23	0.050			
0.7982	51087.45	3.4950	3.4951	1.4067	24.98	-0.23	0.050			
0.7996	51176.96	3.4940	3.4940	1.3390	24.98	-0.23	0.050			
0.8010	51261.74	3.4930	3.4931	1.2698	24.96	-0.25	0.050			
0.8022	51341.58	3.4920	3.4921	1.2008	24.96	-0.25	0.050			
0.8034	51416.07	3.4910	3.4910	1.1317	24.96	-0.25	0.050			
0.8045	51485.48	3.4900	3.4903	1.0648	24.95	-0.26	0.050			
0.8055	51549.89	3.4890	3.4890	1.0006	24.95	-0.26	0.050			
0.8064	51610.66	3.4880	3.4880	0.9307	24.94	-0.27	0.050			
0.8073	51665.86	3.4870	3.4869	0.8727	24.94	-0.27	0.050			
0.8080	51714.94	3.4860	3.4860	0.8154	24.94	-0.27	0.050			
0.8088	51763.38	3.4850	3.4849	0.7563	24.94	-0.27	0.050			
0.8095	51806.50	3.4840	3.4839	0.7112	24.92	-0.29	0.050			
0.8101	51844.35	3.4830	3.4829	0.6667	24.92	-0.29	0.050			
0.8107	51882.86	3.4820	3.4820	0.6203	24.93	-0.28	0.050			
0.8112	51918.69	3.4810	3.4809	0.5875	24.92	-0.29	0.050			
0.8117	51949.74	3.4800	3.4799	0.5558	24.92	-0.29	0.050			
0.8122	51981.64	3.4790	3.4790	0.5224	24.92	-0.29	0.050			
0.8127	52011.27	3.4780	3.4780	0.5003	24.92	-0.29	0.050			
0.8131	52039.81	3.4770	3.4769	0.4730	24.92	-0.29	0.050			
0.8135	52066.98	3.4760	3.4759	0.4551	24.92	-0.29	0.050			
0.8140	52094.66	3.4750	3.4750	0.4370	24.92	-0.29	0.050			
0.8144	52120.24	3.4740	3.4740	0.4229	24.92	-0.29	0.050			
0.8148	52145.94	3.4730	3.4729	0.4080	24.92	-0.29	0.050			
0.8152	52170.26	3.4720	3.4719	0.3967	24.92	-0.29	0.050			
0.8155	52194.47	3.4710	3.4709	0.3845	24.92	-0.29	0.050			
0.8159	52217.79	3.4700	3.4700	0.3752	24.92	-0.29	0.050	0.297	0.489	
0.8163	52240.92	3.4690	3.4691	0.3653	24.92	-0.29	0.050			
0.8166	52263.54	3.4680	3.4681	0.3594	24.92	-0.29	0.050			
0.8170	52285.86	3.4670	3.4671	0.3514	24.92	-0.29	0.050			
0.8173	52307.45	3.4660	3.4660	0.3452	24.92	-0.29	0.050			
0.8176	52329.35	3.4650	3.4651	0.3393	24.92	-0.29	0.050			
0.8180	52350.25	3.4640	3.4639	0.3336	24.92	-0.29	0.050			
0.8183	52371.22	3.4630	3.4630	0.3279	24.92	-0.29	0.050			
0.8186	52391.76	3.4620	3.4619	0.3239	24.92	-0.29	0.050			
0.8189	52412.05	3.4610	3.4609	0.3186	24.92	-0.29	0.050			
0.8192	52431.74	3.4600	3.4600	0.3141	24.92	-0.29	0.050			
0.8196	52451.73	3.4590	3.4590	0.3104	24.92	-0.29	0.050			
0.8199	52470.94	3.4580	3.4579	0.3057	24.92	-0.29	0.050			
0.8202	52490.32	3.4570	3.4571	0.3029	24.93	-0.28	0.050			
0.8205	52509.58	3.4560	3.4560	0.2997	24.93	-0.28	0.050			
0.8208	52528.46	3.4550	3.4550	0.2975	24.93	-0.28	0.050			
0.8211	52547.20	3.4540	3.4540	0.2943	24.92	-0.29	0.050			
0.8213	52565.88	3.4530	3.4531	0.2919	24.92	-0.29	0.050			
0.8216	52584.43	3.4520	3.4519	0.2893	24.92	-0.29	0.050			
0.8219	52602.87	3.4510	3.4510	0.2869	24.93	-0.28	0.050			
0.8222	52620.97	3.4500	3.4500	0.2845	24.93	-0.28	0.050			
0.8225	52639.10	3.4490	3.4489	0.2822	24.93	-0.28	0.050			
0.8228	52657.25	3.4480	3.4479	0.2791	24.94	-0.27	0.050			
0.8230	52675.03	3.4470	3.4471	0.2767	24.94	-0.27	0.050			
0.8233	52692.38	3.4460	3.4460	0.2742	24.94	-0.27	0.050			
0.8236	52709.86	3.4450	3.4449	0.2720	24.94	-0.27	0.050			
0.8239	52727.35	3.4440	3.4441	0.2701	24.94	-0.27	0.050			
0.8241	52744.38	3.4430	3.4430	0.2685	24.94	-0.27	0.050			
0.8244	52761.55	3.4420	3.4421	0.2666	24.94	-0.27	0.050			
0.8247	52778.23	3.4410	3.4411	0.2654	24.94	-0.27	0.050			
0.8249	52795.01	3.4400	3.4400	0.2632	24.95	-0.26	0.050			
0.8252	52811.80	3.4390	3.4391	0.2616	24.95	-0.26	0.050			
0.8254	52828.39	3.4380	3.4380	0.2603	24.96	-0.25	0.050			
0.8257	52844.81	3.4370	3.4370	0.2585	24.96	-0.25	0.050			
0.8260	52861.39	3.4360	3.4358	0.2569	24.96	-0.25	0.050			
0.8262	52877.64	3.4350	3.4349	0.2552	24.96	-0.25	0.050			
0.8265	52893.93	3.4340	3.4340	0.2539	24.96	-0.25	0.050			
0.8267	52910.03	3.4330	3.4329	0.2519	24.96	-0.25	0.050			
0.8270	52926.11	3.4320	3.4320	0.2507	24.96	-0.25	0.050			
0.8272	52942.12	3.4310	3.4310	0.2495	24.96	-0.25	0.050			
0.8275	52958.12	3.4300	3.4300	0.2482	24.96	-0.25	0.050			
0.8277	52973.96	3.4290	3.4291	0.2469	24.96	-0.25	0.050			
0.8280	52989.72	3.4280	3.4281	0.2461	24.96	-0.25	0.050			
0.8282	53005.43	3.4270	3.4271	0.2449	24.96	-0.25	0.050			
0.8285	53021.42	3.4260	3.4260	0.2443	24.97	-0.24	0.050			
0.8287	53036.92	3.4250	3.4250	0.2429	24.97	-0.24	0.050			
0.8289	53052.42	3.4240	3.4240	0.2413	24.97	-0.24	0.050			
0.8292	53067.62	3.4230	3.4229	0.2395	24.97	-0.24	0.050			
0.8294	53082.90	3.4220	3.4220	0.2382	24.96	-0.25	0.050			
0.8297	53097.98	3.4210	3.4210	0.2366	24.96	-0.25	0.050			
0.8299	53112.96	3.4200	3.4199	0.2356	24.96	-0.25	0.050			
0.8301	53128.00	3.4190	3.4190	0.2345	24.97	-0.24	0.050			
0.8304	53142.77	3.4180	3.4180	0.2331	24.97	-0.24	0.050			
0.8306	53157.65	3.4170	3.4171	0.2322	24.97	-0.24	0.050			
0.8308	53172.50	3.4160	3.4161	0.2313	24.97	-0.24	0.050			
0.8311	53187.28	3.4150	3.4150	0.2304	24.98	-0.23	0.050			
0.8313	53202.04	3.4140	3.4140	0.2293	24.98	-0.23	0.050			
0.8315	53216.78	3.4130	3.4130	0.2286	24.98	-0.23	0.050			
0.8317	53231.38	3.4120	3.4119	0.2275	24.98	-0.23	0.050			
0.8320	53245.86	3.4110	3.4110	0.2266	24.98	-0.23	0.050			
0.8322	53260.32	3.4100	3.4100	0.2256	24.98	-0.23	0.050			
0.8324	53274.72	3.4090	3.4089	0.2246	24.98	-0.23	0.050			
0.8326	53289.09	3.4080	3.4080	0.2232	24.98	-0.23	0.050			
0.8329	53303.34	3.4070	3.4070	0.2222	24.98	-0.23	0.050			
0.8331	53317.53	3.4060	3.4060	0.2211	24.98	-0.23	0.050			
0.8333	53331.63	3.4050	3.4050	0.2198	24.99	-0.22	0.050			
0.8335	53345.66	3.4040	3.4040	0.2188	24.99	-0.22	0.050			
0.8337	53359.67	3.4030	3.4030	0.2176	25.00	-0.21	0.050			
0.8340	53373.72	3.4020	3.4020	0.2169	25.00	-0.21	0.050			
0.8342	53387.56	3.4010	3.4009	0.2157	25.00	-0.21	0.050			
0.8344	53401.42	3.4000	3.4000	0.2146	24.99	-0.22	0.050			
0.8346	53415.02	3.3990	3.3990	0.2136	24.99	-0.22	0.050			
0.8348	53428.65	3.3980	3.3980	0.2124	24.99	-0.22	0.050			
0.8350	53442.09	3.3970	3.3970	0.2110	24.99	-0.22	0.050			
0.8352	53455.43	3.3960	3.3960	0.2102	25.00	-0.21	0.050			
0.8355	53468.86	3.3950	3.3950	0.2093	25.00	-0.21	0.050			
0.8357	53482.15	3.3940	3.3940	0.2082	25.00	-0.21	0.050			
0.8359	53495.38	3.3930	3.3930	0.2075	25.00	-0.21	0.050	0.378	0.623	
0.8361	53508.63	3.3920	3.3920	0.2067	25.00	-0.21	0.050			
0.8363	53521.74	3.3910	3.3910	0.2057	25.00	-0.21	0.050			
0.8365	53534.84	3.3900	3.3900	0.2051	25.00	-0.21	0.050			
0.8367	53547.94	3.3890	3.3889	0.2044	25.00	-0.21	0.050			
0.8369	53560.83	3.3880	3.3880	0.2034	25.00	-0.21	0.050			
0.8371	53573.84	3.3870	3.3870	0.2028	25.00	-0.21	0.050			
0.8373	53586.81	3.3860	3.3860	0.2022	25.00	-0.21	0.050			
0.8375	53599.74	3.3850	3.3850	0.2017	25.00	-0.21	0.050			
0.8377	53612.69	3.3840	3.3840	0.2009	25.01	-0.20	0.050			
0.8379	53625.54	3.3830	3.3830	0.2003	25.01	-0.20	0.050			
0.8381	53638.34	3.3820	3.3820	0.1997	25.01	-0.20	0.050			
0.8383	53651.10	3.3810	3.3811	0.1990	25.01	-0.20	0.050			
0.8385	53663.86	3.3800	3.3800	0.1981	25.00	-0.21	0.050			
0.8387	53676.60	3.3790	3.3789	0.1976	25.00	-0.21	0.050			
0.8389	53689.22	3.3780	3.3780	0.1968	25.00	-0.21	0.050			
0.8391	53701.83	3.3770	3.3770	0.1959	25.00	-0.21	0.050			
0.8393	53714.42	3.3760	3.3760	0.1952	25.01	-0.20	0.050			
0.8395	53726.88	3.3750	3.3750	0.1943	25.01	-0.20	0.050			
0.8397	53739.33	3.3740	3.3740	0.1933	25.01	-0.20	0.050			
0.8399	53751.70	3.3730	3.3730	0.1925	25.01	-0.20	0.050			
0.8401	53763.98	3.3720	3.3720	0.1915	25.01	-0.20	0.050			
0.8403	53776.21	3.3710	3.3710	0.1906	25.02	-0.19	0.050			
0.8404	53788.38	3.3700	3.3700	0.1899	25.02	-0.19	0.050			
0.8406	53800.50	3.3690	3.3690	0.1889	25.02	-0.19	0.050			
0.8408	53812.56	3.3680	3.3680	0.1880	25.02	-0.19	0.050			
0.8410	53824.52	3.3670	3.3670	0.1871	25.02	-0.19	0.050			
0.8412	53836.46	3.3660	3.3660	0.1862	25.02	-0.19	0.050			
0.8414	53848.35	3.3650	3.3650	0.1853	25.02	-0.19	0.050			
0.8416	53860.14	3.3640	3.3640	0.1843	25.02	-0.19	0.050			
0.8417	53871.86	3.3630	3.3630	0.1835	25.02	-0.19	0.050			
0.8419	53883.58	3.3620	3.3620	0.1827	25.02	-0.19	0.050			
0.8421	53895.25	3.3610	3.3610	0.1819	25.02	-0.19	0.050			
0.8423	53906.91	3.3600	3.3600	0.1809	25.02	-0.19	0.050			
0.8425	53918.46	3.3590	3.3590	0.1800	25.02	-0.19	0.050			
0.8427	53929.95	3.3580	3.3580	0.1791	25.02	-0.19	0.050			
0.8428	53941.39	3.3570	3.3570	0.1783	25.02	-0.19	0.050			
0.8430	53952.61	3.3560	3.3560	0.1778	25.02	-0.19	0.050			
0.8432	53963.97	3.3550	3.3550	0.1771	25.02	-0.19	0.050			
0.8434	53975.25	3.3540	3.3540	0.1763	25.02	-0.19	0.050			
0.8435	53986.51	3.3530	3.3530	0.1757	25.02	-0.19	0.050			
0.8437	53997.68	3.3520	3.3520	0.1752	25.02	-0.19	0.050			
0.8439	54008.87	3.3510	3.3510	0.1745	25.02	-0.19	0.050			
0.8441	54019.98	3.3500	3.3500	0.1738	25.02	-0.19	0.050			
0.8442	54031.08	3.3490	3.3490	0.1733	25.02	-0.19	0.050			
0.8444	54042.15	3.3480	3.3480	0.1727	25.03	-0.18	0.050			
0.8446	54053.09	3.3470	3.3469	0.1719	25.03	-0.18	0.050			
0.8448	54064.08	3.3460	3.3459	0.1714	25.03	-0.18	0.050			
0.8449	54075.22	3.3450	3.3450	0.1703	25.03	-0.18	0.050			
0.8451	54086.10	3.3440	3.3440	0.1697	25.04	-0.17	0.050			
0.8453	54097.00	3.3430	3.3430	0.1691	25.04	-0.17	0.050			
0.8454	54107.80	3.3420	3.3420	0.1684	25.04	-0.17	0.050			
0.8456	54118.43	3.3410	3.3410	0.1681	25.04	-0.17	0.050			
0.8458	54129.18	3.3400	3.3400	0.1675	25.04	-0.17	0.050			
0.8459	54139.88	3.3390	3.3391	0.1669	25.03	-0.18	0.050			
0.8461	54150.54	3.3380	3.3380	0.1663	25.03	-0.18	0.050			
0.8463	54161.15	3.3370	3.3371	0.1657	25.03	-0.18	0.050			
0.8464	54171.83	3.3360	3.3361	0.1653	25.03	-0.18	0.050			
0.8466	54182.39	3.3350	3.3350	0.1646	25.03	-0.18	0.050			
0.8468	54192.90	3.3340	3.3340	0.1639	25.04	-0.17	0.050			
0.8469	54203.47	3.3330	3.3329	0.1628	25.04	-0.17	0.050			
0.8471	54213.76	3.3320	3.3319	0.1618	25.04	-0.17	0.050			
0.8473	54224.10	3.3310	3.3309	0.1611	25.04	-0.17	0.050			
0.8474	54234.39	3.3300	3.3299	0.1604	25.04	-0.17	0.050			
0.8476	54244.57	3.3290	3.3291	0.1599	25.04	-0.17	0.050			
0.8477	54254.78	3.3280	3.3281	0.1593	25.04	-0.17	0.050			
0.8479	54264.96	3.3270	3.3271	0.1586	25.04	-0.17	0.050			
0.8480	54275.09	3.3260	3.3261	0.1580	25.04	-0.17	0.050			
0.8482	54285.16	3.3250	3.3251	0.1574	25.04	-0.17	0.050			
0.8484	54295.21	3.3240	3.3240	0.1568	25.04	-0.17	0.050			
0.8485	54305.23	3.3230	3.3230	0.1562	25.04	-0.17	0.050			
0.8487	54315.20	3.3220	3.3220	0.1555	25.04	-0.17	0.050			
0.8488	54325.15	3.3210	3.3209	0.1553	25.04	-0.17	0.050			
0.8490	54335.07	3.3200	3.3199	0.1546	25.04	-0.17	0.050			
0.8491	54344.95	3.3190	3.3189	0.1540	25.04	-0.17	0.050			
0.8493	54354.78	3.3180	3.3180	0.1534	25.04	-0.17	0.050			
0.8494	54364.34	3.3170	3.3170	0.1522	25.04	-0.17	0.050			
0.8496	54374.07	3.3160	3.3160	0.1518	25.04	-0.17	0.050			
0.8497	54383.77	3.3150	3.3150	0.1513	25.04	-0.17	0.050			
0.8499	54393.44	3.3140	3.3140	0.1509	25.04	-0.17	0.050			
0.8500	54403.08	3.3130	3.3130	0.1504	25.04	-0.17	0.050			
0.8502	54412.71	3.3120	3.3120	0.1499	25.04	-0.17	0.050			
0.8503	54422.29	3.3110	3.3110	0.1494	25.04	-0.17	0.050			
0.8505	54431.83	3.3100	3.3100	0.1489	25.04	-0.17	0.050			
0.8506	54441.54	3.3090	3.3090	0.1487	25.04	-0.17	0.050			
0.8508	54451.04	3.3080	3.3080	0.1480	25.04	-0.17	0.050			
0.8509	54460.50	3.3070	3.3070	0.1474	25.04	-0.17	0.050			
0.8511	54469.91	3.3060	3.3060	0.1468	25.04	-0.17	0.050			
0.8512	54479.21	3.3050	3.3050	0.1460	25.04	-0.17	0.050			
0.8514	54488.66	3.3040	3.3040	0.1452	25.04	-0.17	0.050			
0.8515	54497.93	3.3030	3.3030	0.1446	25.04	-0.17	0.050			
0.8517	54507.17	3.3020	3.3019	0.1439	25.04	-0.17	0.050			
0.8518	54516.45	3.3010	3.3010	0.1434	25.05	-0.16	0.050			
0.8520	54525.60	3.3000	3.3000	0.1426	25.05	-0.16	0.050			
0.8521	54534.56	3.2990	3.2990	0.1423	25.05	-0.16	0.050			
0.8522	54543.65	3.2980	3.2980	0.1417	25.05	-0.16	0.050			
0.8524	54552.66	3.2970	3.2970	0.1410	25.05	-0.16	0.050			
0.8525	54561.66	3.2960	3.2961	0.1404	25.05	-0.16	0.050			
0.8527	54570.63	3.2950	3.2950	0.1398	25.06	-0.15	0.050			
0.8528	54579.55	3.2940	3.2940	0.1393	25.06	-0.15	0.050			
0.8529	54588.45	3.2930	3.2930	0.1388	25.06	-0.15	0.050			
0.8531	54597.28	3.2920	3.2920	0.1381	25.06	-0.15	0.050			
0.8532	54606.10	3.2910	3.2910	0.1376	25.06	-0.15	0.050			
0.8534	54614.75	3.2900	3.2899	0.1374	25.06	-0.15	0.050			
0.8535	54623.53	3.2890	3.2889	0.1370	25.06	-0.15	0.050			
0.8536	54632.13	3.2880	3.2880	0.1362	25.06	-0.15	0.050			
0.8538	54640.83	3.2870	3.2870	0.1359	25.06	-0.15	0.050			
0.8539	54649.52	3.2860	3.2861	0.1355	25.06	-0.15	0.050			
0.8540	54658.31	3.2850	3.2851	0.1348	25.06	-0.15	0.050			
0.8542	54666.94	3.2840	3.2840	0.1344	25.06	-0.15	0.050			
0.8543	54675.53	3.2830	3.2830	0.1339	25.06	-0.15	0.050			
0.8544	54684.09	3.2820	3.2820	0.1335	25.06	-0.15	0.050			
0.8546	54692.55	3.2810	3.2810	0.1332	25.06	-0.15	0.050			
0.8547	54701.06	3.2800	3.2799	0.1328	25.06	-0.15	0.050			
0.8548	54709.63	3.2790	3.2790	0.1326	25.06	-0.15	0.050			
0.8550	54718.10	3.2780	3.2781	0.1321	25.06	-0.15	0.050			
0.8551	54726.55	3.2770	3.2771	0.1317	25.06	-0.15	0.050			
0.8552	54734.96	3.2760	3.2761	0.1312	25.06	-0.15	0.050			
0.8554	54743.34	3.2750	3.2750	0.1307	25.06	-0.15	0.050			
0.8555	54751.61	3.2740	3.2741	0.1300	25.06	-0.15	0.050			
0.8556	54759.92	3.2730	3.2730	0.1296	25.06	-0.15	0.050			
0.8558	54768.21	3.2720	3.2720	0.1292	25.06	-0.15	0.050			
0.8559	54776.46	3.2710	3.2710	0.1288	25.06	-0.15	0.050	0.212	0.473	
0.8560	54784.86	3.2700	3.2700	0.1283	25.06	-0.15	0.050			
0.8561	54793.05	3.2690	3.2690	0.1277	25.06	-0.15	0.050			
0.8563	54801.21	3.2680	3.2681	0.1272	25.06	-0.15	0.050			
0.8564	54809.33	3.2670	3.2671	0.1266	25.06	-0.15	0.050			
0.8565	54817.42	3.2660	3.2660	0.1261	25.06	-0.15	0.050			
0.8566	54825.43	3.2650	3.2650	0.1254	25.06	-0.15	0.050			
0.8568	54833.44	3.2640	3.2640	0.1249	25.07	-0.14	0.050			
0.8569	54841.42	3.2630	3.2631	0.1244	25.07	-0.14	0.050			
0.8570	54849.36	3.2620	3.2621	0.1238	25.07	-0.14	0.050			
0.8571	54857.48	3.2610	3.2610	0.1236	25.07	-0.14	0.050			
0.8573	54865.18	3.2600	3.2600	0.1233	25.07	-0.14	0.050			
0.8574	54873.05	3.2590	3.2589	0.1227	25.07	-0.14	0.050			
0.8575	54880.89	3.2580	3.2580	0.1222	25.07	-0.14	0.050			
0.8576	54888.69	3.2570	3.2570	0.1216	25.07	-0.14	0.050			
0.8578	54896.45	3.2560	3.2560	0.1211	25.07	-0.14	0.050			
0.8579	54903.91	3.2550	3.2550	0.1204	25.07	-0.14	0.050			
0.8580	54911.61	3.2540	3.2540	0.1201	25.07	-0.14	0.050			
0.8581	54919.28	3.2530	3.2531	0.1197	25.07	-0.14	0.050			
0.8582	54926.93	3.2520	3.2521	0.1194	25.08	-0.13	0.050			
0.8584	54934.56	3.2510	3.2510	0.1190	25.08	-0.13	0.050			
0.8585	54942.09	3.2500	3.2499	0.1186	25.08	-0.13	0.050			
0.8586	54949.84	3.2490	3.2489	0.1179	25.08	-0.13	0.050			
0.8587	54957.37	3.2480	3.2480	0.1175	25.09	-0.12	0.050			
0.8588	54964.88	3.2470	3.2471	0.1170	25.09	-0.12	0.050			
0.8589	54972.35	3.2460	3.2461	0.1166	25.09	-0.12	0.050			
0.8591	54979.94	3.2450	3.2451	0.1163	25.09	-0.12	0.050			
0.8592	54987.37	3.2440	3.2439	0.1158	25.09	-0.12	0.050			
0.8593	54994.68	3.2430	3.2429	0.1155	25.08	-0.13	0.050			
0.8594	55002.05	3.2420	3.2420	0.1150	25.08	-0.13	0.050			
0.8595	55009.40	3.2410	3.2411	0.1146	25.08	-0.13	0.050			
0.8596	55016.77	3.2400	3.2401	0.1142	25.08	-0.13	0.050			
0.8598	55024.07	3.2390	3.2390	0.1137	25.08	-0.13	0.050			
0.8599	55031.28	3.2380	3.2380	0.1133	25.08	-0.13	0.050			
0.8600	55038.52	3.2370	3.2370	0.1128	25.08	-0.13	0.050			
0.8601	55045.72	3.2360	3.2359	0.1124	25.09	-0.12	0.050			
0.8602	55052.82	3.2350	3.2350	0.1118	25.09	-0.12	0.050			
0.8603	55059.96	3.2340	3.2340	0.1113	25.09	-0.12	0.050			
0.8604	55067.04	3.2330	3.2330	0.1110	25.09	-0.12	0.050			
0.8605	55074.13	3.2320	3.2320	0.1106	25.09	-0.12	0.050			
0.8606	55081.20	3.2310	3.2310	0.1102	25.09	-0.12	0.050			
0.8608	55088.24	3.2300	3.2300	0.1098	25.09	-0.12	0.050			
0.8609	55095.16	3.2290	3.2290	0.1093	25.09	-0.12	0.050			
0.8610	55102.15	3.2280	3.2280	0.1089	25.10	-0.11	0.050			
0.8611	55109.11	3.2270	3.2271	0.1086	25.10	-0.11	0.050			
0.8612	55116.04	3.2260	3.2261	0.1083	25.10	-0.11	0.050			
0.8613	55122.96	3.2250	3.2250	0.1080	25.10	-0.11	0.050			
0.8614	55129.86	3.2240	3.2240	0.1077	25.10	-0.11	0.050			
0.8615	55136.81	3.2230	3.2230	0.1075	25.10	-0.11	0.050			
0.8616	55143.68	3.2220	3.2220	0.1071	25.10	-0.11	0.050			
0.8617	55150.52	3.2210	3.2211	0.1068	25.10	-0.11	0.050			
0.8618	55157.39	3.2200	3.2201	0.1063	25.10	-0.11	0.050			
0.8619	55164.18	3.2190	3.2190	0.1059	25.10	-0.11	0.050			
0.8620	55170.90	3.2180	3.2180	0.1054	25.10	-0.11	0.050			
0.8622	55177.63	3.2170	3.2169	0.1050	25.10	-0.11	0.050			
0.8623	55184.34	3.2160	3.2160	0.1046	25.10	-0.11	0.050			
0.8624	55191.02	3.2150	3.2150	0.1042	25.10	-0.11	0.050			
0.8625	55197.71	3.2140	3.2140	0.1038	25.10	-0.11	0.050			
0.8626	55204.40	3.2130	3.2131	0.1036	25.10	-0.11	0.050			
0.8627	55211.01	3.2120	3.2121	0.1032	25.10	-0.11	0.050			
0.8628	55217.60	3.2110	3.2110	0.1027	25.10	-0.11	0.050			
0.8629	55224.16	3.2100	3.2100	0.1023	25.10	-0.11	0.050			
0.8630	55230.69	3.2090	3.2090	0.1019	25.10	-0.11	0.050			
0.8631	55237.17	3.2080	3.2080	0.1015	25.10	-0.11	0.050			
0.8632	55243.66	3.2070	3.2070	0.1011	25.10	-0.11	0.050			
0.8633	55250.12	3.2060	3.2060	0.1007	25.10	-0.11	0.050			
0.8634	55256.55	3.2050	3.2050	0.1003	25.10	-0.11	0.050			
0.8635	55262.96	3.2040	3.2040	0.0999	25.11	-0.10	0.050			
0.8636	55269.33	3.2030	3.2030	0.0995	25.11	-0.10	0.050			
0.8637	55275.69	3.2020	3.2020	0.0990	25.11	-0.10	0.050			
0.8638	55281.98	3.2010	3.2010	0.0987	25.11	-0.10	0.050			
0.8639	55288.21	3.2000	3.2000	0.0981	25.11	-0.10	0.050			
0.8640	55294.48	3.1990	3.1990	0.0978	25.11	-0.10	0.050			
0.8641	55300.73	3.1980	3.1980	0.0974	25.11	-0.10	0.050			
0.8642	55306.95	3.1970	3.1970	0.0971	25.11	-0.10	0.050			
0.8643	55313.16	3.1960	3.1960	0.0967	25.12	-0.09	0.050			
0.8644	55319.34	3.1950	3.1950	0.0964	25.12	-0.09	0.050			
0.8645	55325.49	3.1940	3.1940	0.0961	25.12	-0.09	0.050			
0.8646	55331.63	3.1930	3.1930	0.0958	25.12	-0.09	0.050			
0.8647	55337.75	3.1920	3.1920	0.0954	25.12	-0.09	0.050			
0.8647	55343.85	3.1910	3.1910	0.0951	25.12	-0.09	0.050			
0.8648	55349.92	3.1900	3.1900	0.0948	25.12	-0.09	0.050			
0.8649	55355.98	3.1890	3.1891	0.0944	25.12	-0.09	0.050			
0.8650	55361.97	3.1880	3.1881	0.0940	25.12	-0.09	0.050			
0.8651	55368.00	3.1870	3.1871	0.0937	25.12	-0.09	0.050			
0.8652	55373.98	3.1860	3.1860	0.0934	25.12	-0.09	0.050			
0.8653	55379.95	3.1850	3.1850	0.0930	25.12	-0.09	0.050			
0.8654	55385.89	3.1840	3.1840	0.0927	25.12	-0.09	0.050			
0.8655	55391.81	3.1830	3.1829	0.0924	25.12	-0.09	0.050			
0.8656	55397.71	3.1820	3.1820	0.0920	25.12	-0.09	0.050			
0.8657	55403.61	3.1810	3.1810	0.0917	25.12	-0.09	0.050			
0.8658	55409.46	3.1800	3.1800	0.0914	25.12	-0.09	0.050			
0.8659	55415.30	3.1790	3.1790	0.0910	25.12	-0.09	0.050			
0.8660	55421.12	3.1780	3.1780	0.0907	25.13	-0.08	0.050			
0.8660	55426.91	3.1770	3.1770	0.0904	25.13	-0.08	0.050			
0.8661	55432.68	3.1760	3.1760	0.0900	25.13	-0.08	0.050			
0.8662	55438.43	3.1750	3.1750	0.0897	25.13	-0.08	0.050			
0.8663	55444.19	3.1740	3.1740	0.0894	25.13	-0.08	0.050			
0.8664	55449.87	3.1730	3.1730	0.0891	25.13	-0.08	0.050			
0.8665	55455.56	3.1720	3.1720	0.0887	25.13	-0.08	0.050			
0.8666	55461.22	3.1710	3.1710	0.0884	25.13	-0.08	0.050			
0.8667	55466.87	3.1700	3.1700	0.0880	25.13	-0.08	0.050			
0.8668	55472.49	3.1690	3.1690	0.0877	25.14	-0.07	0.050			
0.8668	55478.10	3.1680	3.1681	0.0874	25.14	-0.07	0.050			
0.8669	55483.64	3.1670	3.1671	0.0870	25.14	-0.07	0.050			
0.8670	55489.20	3.1660	3.1660	0.0867	25.14	-0.07	0.050			
0.8671	55494.74	3.1650	3.1650	0.0864	25.14	-0.07	0.050			
0.8672	55500.26	3.1640	3.1639	0.0860	25.14	-0.07	0.050			
0.8673	55505.76	3.1630	3.1630	0.0857	25.14	-0.07	0.050			
0.8674	55511.23	3.1620	3.1620	0.0854	25.14	-0.07	0.050			
0.8674	55516.68	3.1610	3.1610	0.0851	25.14	-0.07	0.050			
0.8675	55522.11	3.1600	3.1600	0.0848	25.14	-0.07	0.050			
0.8676	55527.53	3.1590	3.1590	0.0845	25.14	-0.07	0.050			
0.8677	55532.93	3.1580	3.1580	0.0842	25.14	-0.07	0.050			
0.8678	55538.30	3.1570	3.1570	0.0839	25.14	-0.07	0.050			
0.8679	55543.66	3.1560	3.1560	0.0835	25.14	-0.07	0.050			
0.8680	55549.00	3.1550	3.1550	0.0832	25.14	-0.07	0.050			
0.8680	55554.31	3.1540	3.1540	0.0829	25.14	-0.07	0.050			
0.8681	55559.58	3.1530	3.1530	0.0827	25.14	-0.07	0.050			
0.8682	55564.86	3.1520	3.1520	0.0824	25.14	-0.07	0.050			
0.8683	55570.12	3.1510	3.1510	0.0821	25.14	-0.07	0.050			
0.8684	55575.36	3.1500	3.1500	0.0818	25.14	-0.07	0.050			
0.8684	55580.59	3.1490	3.1490	0.0815	25.14	-0.07	0.050			
0.8685	55585.80	3.1480	3.1480	0.0812	25.14	-0.07	0.050			
0.8686	55590.99	3.1470	3.1470	0.0809	25.14	-0.07	0.050			
0.8687	55596.13	3.1460	3.1460	0.0806	25.14	-0.07	0.050			
0.8688	55601.28	3.1450	3.1449	0.0803	25.14	-0.07	0.050			
0.8689	55606.41	3.1440	3.1439	0.0801	25.14	-0.07	0.050			
0.8689	55611.53	3.1430	3.1430	0.0798	25.14	-0.07	0.050			
0.8690	55616.62	3.1420	3.1420	0.0795	25.15	-0.06	0.050			
0.8691	55621.70	3.1410	3.1411	0.0792	25.15	-0.06	0.050			
0.8692	55626.77	3.1400	3.1401	0.0790	25.15	-0.06	0.050			
0.8692	55631.87	3.1390	3.1391	0.0786	25.16	-0.05	0.050			
0.8693	55636.89	3.1380	3.1380	0.0783	25.16	-0.05	0.050			
0.8694	55641.89	3.1370	3.1370	0.0780	25.16	-0.05	0.050			
0.8695	55646.87	3.1360	3.1360	0.0777	25.16	-0.05	0.050			
0.8696	55651.84	3.1350	3.1350	0.0774	25.17	-0.04	0.050			
0.8696	55656.78	3.1340	3.1339	0.0771	25.17	-0.04	0.050			
0.8697	55661.76	3.1330	3.1330	0.0768	25.17	-0.04	0.050			
0.8698	55666.66	3.1320	3.1320	0.0765	25.17	-0.04	0.050			
0.8699	55671.48	3.1310	3.1311	0.0763	25.17	-0.04	0.050			
0.8699	55676.35	3.1300	3.1301	0.0760	25.17	-0.04	0.050			
0.8700	55681.21	3.1290	3.1290	0.0757	25.17	-0.04	0.050			
0.8701	55686.04	3.1280	3.1280	0.0754	25.17	-0.04	0.050			
0.8702	55690.85	3.1270	3.1270	0.0751	25.17	-0.04	0.050			
0.8702	55695.61	3.1260	3.1260	0.0747	25.17	-0.04	0.050			
0.8703	55700.39	3.1250	3.1250	0.0745	25.17	-0.04	0.050			
0.8704	55705.14	3.1240	3.1240	0.0742	25.17	-0.04	0.050			
0.8705	55709.85	3.1230	3.1229	0.0740	25.17	-0.04	0.050			
0.8705	55714.57	3.1220	3.1219	0.0737	25.17	-0.04	0.050			
0.8706	55719.28	3.1210	3.1210	0.0735	25.17	-0.04	0.050			
0.8707	55723.98	3.1200	3.1200	0.0732	25.17	-0.04	0.050			
0.8708	55728.59	3.1190	3.1190	0.0729	25.17	-0.04	0.050			
0.8708	55733.25	3.1180	3.1180	0.0727	25.17	-0.04	0.050			
0.8709	55737.89	3.1170	3.1171	0.0724	25.17	-0.04	0.050			
0.8710	55742.59	3.1160	3.1161	0.0721	25.18	-0.03	0.050			
0.8710	55747.20	3.1150	3.1151	0.0719	25.18	-0.03	0.050			
0.8711	55751.79	3.1140	3.1140	0.0716	25.18	-0.03	0.050			
0.8712	55756.36	3.1130	3.1130	0.0713	25.18	-0.03	0.050			
0.8713	55760.92	3.1120	3.1120	0.0711	25.18	-0.03	0.050			
0.8713	55765.53	3.1110	3.1109	0.0709	25.18	-0.03	0.050			
0.8714	55770.06	3.1100	3.1100	0.0706	25.18	-0.03	0.050			
0.8715	55774.57	3.1090	3.1090	0.0704	25.18	-0.03	0.050			
0.8715	55779.07	3.1080	3.1080	0.0701	25.18	-0.03	0.050			
0.8716	55783.53	3.1070	3.1070	0.0698	25.18	-0.03	0.050			
0.8717	55787.99	3.1060	3.1060	0.0695	25.18	-0.03	0.050			
0.8718	55792.43	3.1050	3.1050	0.0692	25.18	-0.03	0.050			
0.8718	55796.85	3.1040	3.1040	0.0690	25.18	-0.03	0.050			
0.8719	55801.27	3.1030	3.1030	0.0687	25.18	-0.03	0.050			
0.8720	55805.65	3.1020	3.1020	0.0684	25.18	-0.03	0.050			
0.8720	55810.02	3.1010	3.1010	0.0681	25.18	-0.03	0.050			
0.8721	55814.38	3.1000	3.1000	0.0678	25.18	-0.03	0.050			
0.8722	55818.71	3.0990	3.0990	0.0676	25.18	-0.03	0.050			
0.8722	55822.96	3.0980	3.0980	0.0674	25.18	-0.03	0.050			
0.8723	55827.27	3.0970	3.0970	0.0672	25.18	-0.03	0.050			
0.8724	55831.49	3.0960	3.0960	0.0668	25.18	-0.03	0.050			
0.8724	55835.76	3.0950	3.0950	0.0666	25.18	-0.03	0.050			
0.8725	55840.01	3.0940	3.0940	0.0664	25.18	-0.03	0.050			
0.8726	55844.25	3.0930	3.0930	0.0661	25.18	-0.03	0.050			
0.8726	55848.48	3.0920	3.0920	0.0659	25.18	-0.03	0.050			
0.8727	55852.69	3.0910	3.0910	0.0657	25.18	-0.03	0.050			
0.8728	55856.93	3.0900	3.0900	0.0654	25.18	-0.03	0.050			
0.8728	55861.11	3.0890	3.0890	0.0652	25.18	-0.03	0.050			
0.8729	55865.27	3.0880	3.0880	0.0649	25.18	-0.03	0.050			
0.8730	55869.43	3.0870	3.0869	0.0647	25.18	-0.03	0.050			
0.8730	55873.57	3.0860	3.0859	0.0645	25.18	-0.03	0.050			
0.8731	55877.69	3.0850	3.0851	0.0642	25.18	-0.03	0.050			
0.8732	55881.79	3.0840	3.0841	0.0640	25.18	-0.03	0.050			
0.8732	55885.87	3.0830	3.0831	0.0637	25.18	-0.03	0.050			
0.8733	55889.95	3.0820	3.0820	0.0635	25.18	-0.03	0.050			
0.8733	55894.02	3.0810	3.0810	0.0632	25.18	-0.03	0.050			
0.8734	55898.06	3.0800	3.0800	0.0629	25.18	-0.03	0.050			
0.8735	55902.08	3.0790	3.0790	0.0627	25.19	-0.02	0.050			
0.8735	55906.13	3.0780	3.0780	0.0625	25.19	-0.02	0.050			
0.8736	55910.12	3.0770	3.0770	0.0623	25.19	-0.02	0.050			
0.8737	55914.10	3.0760	3.0760	0.0620	25.19	-0.02	0.050			
0.8737	55918.06	3.0750	3.0750	0.0617	25.19	-0.02	0.050			
0.8738	55922.00	3.0740	3.0740	0.0614	25.19	-0.02	0.050			
0.8738	55925.92	3.0730	3.0730	0.0611	25.19	-0.02	0.050			
0.8739	55929.82	3.0720	3.0720	0.0609	25.19	-0.02	0.050			
0.8740	55933.72	3.0710	3.0711	0.0606	25.19	-0.02	0.050			
0.8740	55937.58	3.0700	3.0700	0.0603	25.19	-0.02	0.050			
0.8741	55941.43	3.0690	3.0690	0.0600	25.19	-0.02	0.050			
0.8741	55945.26	3.0680	3.0680	0.0597	25.19	-0.02	0.050			
0.8742	55949.07	3.0670	3.0670	0.0594	25.19	-0.02	0.050			
0.8743	55952.86	3.0660	3.0660	0.0591	25.20	-0.01	0.050			
0.8743	55956.64	3.0650	3.0650	0.0589	25.20	-0.01	0.050			
0.8744	55960.40	3.0640	3.0640	0.0586	25.20	-0.01	0.050			
0.8744	55964.14	3.0630	3.0630	0.0583	25.20	-0.01	0.050			
0.8745	55967.86	3.0620	3.0620	0.0580	25.20	-0.01	0.050			
0.8746	55972.19	3.0610	3.0609	0.0573	25.20	-0.01	0.050			
0.8746	55975.84	3.0600	3.0598	0.0567	25.20	-0.01	0.050			
0.8747	55979.45	3.0590	3.0588	0.0561	25.20	-0.01	0.050			
0.8747	55983.02	3.0580	3.0579	0.0555	25.20	-0.01	0.050			
0.8748	55986.56	3.0570	3.0569	0.0549	25.20	-0.01	0.050			
0.8748	55990.06	3.0560	3.0559	0.0543	25.20	-0.01	0.050			
0.8749	55993.51	3.0550	3.0550	0.0537	25.20	-0.01	0.050			
0.8750	55996.93	3.0540	3.0541	0.0531	25.20	-0.01	0.050			
0.8750	56000.31	3.0530	3.0531	0.0525	25.20	-0.01	0.050			
0.8751	56003.65	3.0520	3.0522	0.0519	25.20	-0.01	0.050			
0.8751	56007.49	3.0510	3.0511	0.0520	25.21	-0.00	0.050			
0.8752	56010.79	3.0500	3.0501	0.0512	25.21	-0.00	0.050			
0.8752	56014.04	3.0490	3.0492	0.0504	25.21	-0.00	0.050			
0.8753	56017.24	3.0480	3.0482	0.0496	25.21	-0.00	0.050			
0.8753	56020.39	3.0470	3.0473	0.0488	25.21	-0.00	0.050			
0.8754	56023.48	3.0460	3.0463	0.0480	25.21	-0.00	0.050			
0.8754	56026.53	3.0450	3.0454	0.0472	25.21	-0.00	0.050			
0.8755	56029.52	3.0440	3.0444	0.0464	25.21	-0.00	0.050			
0.8755	56032.47	3.0430	3.0435	0.0456	25.21	0.00	0.050			
0.8756	56035.36	3.0420	3.0426	0.0448	25.21	0.00	0.050			
0.8756	56038.20	3.0410	3.0416	0.0440	25.21	0.00	0.050			
0.8756	56040.99	3.0400	3.0407	0.0432	25.21	0.00	0.050			
0.8757	56043.73	3.0390	3.0397	0.0424	25.21	0.00	0.050			
0.8757	56046.41	3.0380	3.0388	0.0416	25.21	0.00	0.050			
0.8758	56049.05	3.0370	3.0377	0.0408	25.21	0.00	0.050			
