Ah_balance (normalized)	Ah_balance (mAh)	Voltage - fit (V)	Voltage -  interpolate (V)	dQ/dV (1/V)	Temperature (°C)	Temperature - diff (°C)	Current (C)	R_DC 0ms (mOhm)	R_DC 50ms (mOhm)	R_DC 50 ms PEC (mOhm)
0.1940	12414.02	3.9370	3.9368	-0.1146	25.58	0.00	-0.750			
0.1944	12442.49	3.9340	3.9339	-0.1706	25.58	0.00	-0.750			
0.1950	12479.65	3.9310	3.9309	-0.2164	25.58	0.00	-0.750			
0.1957	12525.72	3.9280	3.9279	-0.2624	25.58	0.00	-0.750			
0.1966	12580.50	3.9250	3.9251	-0.3080	25.58	0.00	-0.750			
0.1976	12644.28	3.9220	3.9219	-0.3535	25.58	0.00	-0.750			
0.1987	12716.61	3.9190	3.9191	-0.3976	25.58	0.00	-0.750			
0.2000	12797.43	3.9160	3.9160	-0.4392	25.58	0.00	-0.750			
0.2014	12886.99	3.9130	3.9130	-0.4776	25.58	0.00	-0.750			
0.2029	12983.48	3.9100	3.9100	-0.5138	25.58	0.00	-0.750			
0.2045	13086.85	3.9070	3.9070	-0.5405	25.58	0.00	-0.750			
0.2062	13194.72	3.9040	3.9040	-0.5673	25.58	0.00	-0.750			
0.2079	13306.49	3.9010	3.9010	-0.5889	25.58	0.00	-0.750			
0.2097	13421.65	3.8980	3.8980	-0.6083	25.58	0.00	-0.750			
0.2116	13540.92	3.8950	3.8950	-0.6271	25.58	0.00	-0.750			
0.2135	13663.65	3.8920	3.8921	-0.6394	25.58	0.00	-0.750			
0.2154	13788.33	3.8890	3.8890	-0.6525	25.58	0.00	-0.750			
0.2174	13915.39	3.8860	3.8860	-0.6641	25.58	0.00	-0.750			
0.2194	14043.75	3.8830	3.8830	-0.6714	25.58	0.00	-0.750			
0.2215	14173.66	3.8800	3.8800	-0.6781	25.58	0.00	-0.750			
0.2235	14305.00	3.8770	3.8770	-0.6838	25.58	0.00	-0.750			
0.2256	14437.34	3.8740	3.8740	-0.6901	25.58	0.00	-0.750			
0.2277	14570.78	3.8710	3.8710	-0.6955	25.58	0.00	-0.750			
0.2298	14704.42	3.8680	3.8680	-0.6981	25.58	0.00	-0.750			
0.2319	14839.36	3.8650	3.8650	-0.6985	25.58	0.00	-0.750			
0.2340	14973.90	3.8620	3.8620	-0.7028	25.58	0.00	-0.750			
0.2361	15109.16	3.8590	3.8590	-0.7029	25.58	0.00	-0.750			
0.2382	15244.17	3.8560	3.8560	-0.7042	25.58	0.00	-0.750			
0.2403	15379.05	3.8530	3.8531	-0.7049	25.58	0.00	-0.750			
0.2424	15514.67	3.8500	3.8500	-0.7041	25.58	-0.00	-0.750			
0.2445	15649.80	3.8470	3.8470	-0.7062	25.57	-0.01	-0.750			
0.2467	15785.84	3.8440	3.8441	-0.7084	25.57	-0.01	-0.750			
0.2488	15921.11	3.8410	3.8409	-0.7075	25.57	-0.01	-0.750			
0.2509	16058.40	3.8380	3.8380	-0.7079	25.56	-0.02	-0.750			
0.2530	16194.14	3.8350	3.8351	-0.7059	25.56	-0.02	-0.750			
0.2551	16329.26	3.8320	3.8320	-0.7064	25.56	-0.02	-0.750			
0.2573	16465.05	3.8290	3.8290	-0.7066	25.56	-0.02	-0.750			
0.2594	16599.31	3.8260	3.8260	-0.7050	25.56	-0.02	-0.750			
0.2615	16735.43	3.8230	3.8230	-0.7052	25.56	-0.02	-0.750			
0.2636	16871.49	3.8200	3.8200	-0.7058	25.56	-0.02	-0.750			
0.2657	17007.08	3.8170	3.8170	-0.7062	25.56	-0.02	-0.750			
0.2679	17143.34	3.8140	3.8140	-0.7033	25.56	-0.02	-0.750			
0.2700	17277.24	3.8110	3.8109	-0.7040	25.56	-0.02	-0.750			
0.2721	17412.62	3.8080	3.8080	-0.7010	25.57	-0.01	-0.750			
0.2742	17546.76	3.8050	3.8050	-0.6999	25.57	-0.01	-0.750			
0.2763	17681.20	3.8020	3.8020	-0.6992	25.57	-0.01	-0.750			
0.2784	17815.01	3.7990	3.7991	-0.7001	25.57	-0.01	-0.750			
0.2805	17949.21	3.7960	3.7960	-0.7012	25.57	-0.01	-0.750			
0.2826	18083.52	3.7930	3.7930	-0.7061	25.57	-0.01	-0.750			
0.2847	18218.98	3.7900	3.7900	-0.7061	25.56	-0.02	-0.750			
0.2868	18356.68	3.7870	3.7870	-0.7087	25.56	-0.02	-0.750			
0.2889	18492.23	3.7840	3.7839	-0.7077	25.56	-0.02	-0.750			
0.2911	18628.45	3.7810	3.7811	-0.7077	25.56	-0.02	-0.750			
0.2932	18763.81	3.7780	3.7780	-0.7065	25.56	-0.02	-0.750			
0.2953	18897.73	3.7750	3.7750	-0.7118	25.56	-0.02	-0.750			
0.2974	19034.86	3.7720	3.7719	-0.7142	25.56	-0.02	-0.750			
0.2996	19172.95	3.7690	3.7690	-0.7197	25.56	-0.02	-0.750			
0.3017	19311.44	3.7660	3.7659	-0.7234	25.56	-0.02	-0.750			
0.3039	19451.36	3.7630	3.7630	-0.7258	25.56	-0.02	-0.750			
0.3061	19591.11	3.7600	3.7600	-0.7299	25.56	-0.02	-0.750			
0.3083	19731.04	3.7570	3.7570	-0.7344	25.56	-0.02	-0.750			
0.3105	19871.17	3.7540	3.7540	-0.7355	25.56	-0.02	-0.750			
0.3127	20013.92	3.7510	3.7509	-0.7457	25.56	-0.02	-0.750			
0.3150	20157.03	3.7480	3.7481	-0.7528	25.56	-0.02	-0.750			
0.3172	20302.26	3.7450	3.7449	-0.7599	25.56	-0.02	-0.750			
0.3195	20449.53	3.7420	3.7420	-0.7676	25.56	-0.02	-0.750			
0.3218	20596.97	3.7390	3.7390	-0.7734	25.56	-0.02	-0.750			
0.3241	20745.11	3.7360	3.7361	-0.7801	25.56	-0.02	-0.750			
0.3265	20897.27	3.7330	3.7330	-0.7898	25.56	-0.02	-0.750			
0.3289	21049.01	3.7300	3.7300	-0.7964	25.56	-0.02	-0.750			
0.3313	21201.45	3.7270	3.7270	-0.8069	25.55	-0.03	-0.750			
0.3337	21357.90	3.7240	3.7240	-0.8177	25.55	-0.03	-0.750			
0.3362	21516.38	3.7210	3.7210	-0.8271	25.55	-0.03	-0.750			
0.3387	21675.87	3.7180	3.7180	-0.8366	25.54	-0.04	-0.750			
0.3412	21837.25	3.7150	3.7150	-0.8487	25.54	-0.04	-0.750			
0.3438	22000.39	3.7120	3.7119	-0.8621	25.53	-0.05	-0.750			
0.3464	22167.66	3.7090	3.7090	-0.8714	25.53	-0.05	-0.750			
0.3490	22335.48	3.7060	3.7060	-0.8826	25.53	-0.05	-0.750			
0.3517	22507.30	3.7030	3.7030	-0.8972	25.52	-0.06	-0.750			
0.3544	22681.02	3.7000	3.7000	-0.9087	25.52	-0.06	-0.750			
0.3571	22855.45	3.6970	3.6970	-0.9207	25.52	-0.06	-0.750			
0.3599	23033.02	3.6940	3.6941	-0.9340	25.51	-0.07	-0.750			
0.3627	23212.99	3.6910	3.6910	-0.9485	25.51	-0.07	-0.750			
0.3656	23396.80	3.6880	3.6880	-0.9701	25.51	-0.07	-0.750			
0.3685	23584.32	3.6850	3.6850	-0.9875	25.50	-0.08	-0.750			
0.3715	23776.18	3.6820	3.6820	-1.0048	25.50	-0.08	-0.750			
0.3745	23970.38	3.6790	3.6790	-1.0336	25.49	-0.09	-0.750			
0.3777	24170.69	3.6760	3.6761	-1.0602	25.48	-0.10	-0.750			
0.3809	24376.88	3.6730	3.6729	-1.0882	25.48	-0.10	-0.750			
0.3842	24588.47	3.6700	3.6701	-1.1161	25.48	-0.10	-0.750			
0.3876	24805.81	3.6670	3.6670	-1.1385	25.47	-0.11	-0.750			
0.3911	25028.46	3.6640	3.6641	-1.1604	25.47	-0.11	-0.750			
0.3946	25254.70	3.6610	3.6610	-1.1844	25.47	-0.11	-0.750			
0.3982	25482.01	3.6580	3.6580	-1.1998	25.46	-0.12	-0.750			
0.4018	25713.26	3.6550	3.6550	-1.2261	25.46	-0.12	-0.750			
0.4055	25950.76	3.6520	3.6520	-1.2500	25.46	-0.12	-0.750			
0.4093	26192.29	3.6490	3.6490	-1.2753	25.46	-0.12	-0.750			
0.4131	26440.23	3.6460	3.6460	-1.3072	25.46	-0.12	-0.750			
0.4171	26694.17	3.6430	3.6430	-1.3330	25.46	-0.12	-0.750			
0.4211	26951.54	3.6400	3.6401	-1.3629	25.45	-0.13	-0.750			
0.4252	27215.33	3.6370	3.6370	-1.3983	25.44	-0.14	-0.750			
0.4295	27487.72	3.6340	3.6340	-1.4249	25.44	-0.14	-0.750			
0.4338	27764.20	3.6310	3.6310	-1.4661	25.43	-0.15	-0.750			
0.4383	28049.76	3.6280	3.6280	-1.4948	25.42	-0.16	-0.750			
0.4428	28339.70	3.6250	3.6250	-1.5248	25.42	-0.16	-0.750			
0.4474	28635.54	3.6220	3.6220	-1.5599	25.41	-0.17	-0.750			
0.4521	28937.29	3.6190	3.6189	-1.5820	25.41	-0.17	-0.750			
0.4569	29243.52	3.6160	3.6159	-1.6142	25.41	-0.17	-0.750			
0.4619	29559.85	3.6130	3.6128	-1.6493	25.40	-0.18	-0.750			
0.4668	29876.46	3.6100	3.6101	-1.6772	25.40	-0.18	-0.750			
0.4719	30202.95	3.6070	3.6071	-1.7154	25.39	-0.19	-0.750			
0.4771	30536.72	3.6040	3.6041	-1.7545	25.39	-0.19	-0.750			
0.4824	30875.06	3.6010	3.6009	-1.7819	25.39	-0.19	-0.750			
0.4879	31223.94	3.5980	3.5980	-1.8204	25.39	-0.19	-0.750			
0.4934	31576.00	3.5950	3.5950	-1.8611	25.39	-0.19	-0.750			
0.4991	31939.88	3.5920	3.5919	-1.8882	25.38	-0.20	-0.750			
0.5047	32301.50	3.5890	3.5890	-1.9119	25.38	-0.20	-0.750			
0.5105	32672.82	3.5860	3.5861	-1.9425	25.39	-0.19	-0.750			
0.5164	33048.10	3.5830	3.5829	-1.9685	25.39	-0.19	-0.750			
0.5223	33427.09	3.5800	3.5801	-1.9964	25.40	-0.18	-0.750			
0.5283	33813.45	3.5770	3.5770	-2.0247	25.40	-0.18	-0.750			
0.5345	34208.64	3.5740	3.5740	-2.0490	25.39	-0.19	-0.750	0.385	0.553	
0.5407	34602.08	3.5710	3.5711	-2.0615	25.39	-0.19	-0.750			
0.5469	35002.26	3.5680	3.5680	-2.0801	25.41	-0.17	-0.750			
0.5531	35401.59	3.5650	3.5650	-2.0945	25.42	-0.16	-0.750			
0.5594	35802.16	3.5620	3.5620	-2.1129	25.41	-0.17	-0.750			
0.5658	36211.31	3.5590	3.5590	-2.1331	25.40	-0.18	-0.750			
0.5723	36626.17	3.5560	3.5560	-2.1397	25.41	-0.17	-0.750			
0.5787	37038.17	3.5530	3.5530	-2.1394	25.42	-0.16	-0.750			
0.5852	37451.64	3.5500	3.5500	-2.1218	25.43	-0.15	-0.750			
0.5915	37856.48	3.5470	3.5470	-2.0956	25.44	-0.14	-0.750			
0.5977	38255.81	3.5440	3.5440	-2.0789	25.45	-0.13	-0.750			
0.6039	38650.50	3.5410	3.5410	-2.0646	25.45	-0.13	-0.750			
0.6101	39046.16	3.5380	3.5380	-2.0628	25.46	-0.12	-0.750			
0.6163	39442.68	3.5350	3.5350	-2.0414	25.47	-0.11	-0.750			
0.6225	39837.14	3.5320	3.5321	-2.0153	25.48	-0.10	-0.750			
0.6285	40223.86	3.5290	3.5290	-1.9757	25.49	-0.09	-0.750			
0.6343	40597.22	3.5260	3.5260	-1.9321	25.50	-0.08	-0.750			
0.6400	40960.83	3.5230	3.5230	-1.8774	25.50	-0.08	-0.750			
0.6456	41320.42	3.5200	3.5200	-1.8461	25.52	-0.06	-0.750			
0.6511	41672.97	3.5170	3.5170	-1.7970	25.53	-0.05	-0.750			
0.6565	42013.50	3.5140	3.5139	-1.7499	25.55	-0.03	-0.750			
0.6616	42345.59	3.5110	3.5112	-1.7046	25.55	-0.03	-0.750			
0.6667	42668.79	3.5080	3.5079	-1.6513	25.56	-0.02	-0.750			
0.6715	42978.25	3.5050	3.5051	-1.6015	25.58	-0.00	-0.750			
0.6763	43280.03	3.5020	3.5021	-1.5586	25.59	0.01	-0.750			
0.6809	43576.16	3.4990	3.4989	-1.5132	25.61	0.03	-0.750			
0.6854	43865.83	3.4960	3.4959	-1.4736	25.62	0.04	-0.750			
0.6897	44142.65	3.4930	3.4930	-1.4281	25.64	0.06	-0.750			
0.6940	44413.23	3.4900	3.4899	-1.3817	25.65	0.07	-0.750			
0.6981	44675.33	3.4870	3.4870	-1.3453	25.66	0.08	-0.750			
0.7020	44925.80	3.4840	3.4841	-1.2988	25.68	0.10	-0.750			
0.7058	45170.17	3.4810	3.4810	-1.2573	25.69	0.11	-0.750			
0.7096	45411.74	3.4780	3.4779	-1.2291	25.70	0.12	-0.750			
0.7131	45641.26	3.4750	3.4751	-1.1946	25.70	0.12	-0.750			
0.7166	45865.35	3.4720	3.4721	-1.1684	25.71	0.13	-0.750			
0.7201	46087.98	3.4690	3.4690	-1.1493	25.72	0.14	-0.750			
0.7235	46305.15	3.4660	3.4659	-1.1279	25.74	0.16	-0.750			
0.7269	46519.60	3.4630	3.4630	-1.1127	25.75	0.17	-0.750			
0.7302	46731.36	3.4600	3.4600	-1.1028	25.76	0.18	-0.750			
0.7335	46941.45	3.4570	3.4570	-1.0915	25.77	0.19	-0.750			
0.7367	47148.89	3.4540	3.4540	-1.0867	25.78	0.20	-0.750			
0.7399	47356.15	3.4510	3.4510	-1.0738	25.79	0.21	-0.750			
0.7432	47563.16	3.4480	3.4480	-1.0719	25.80	0.22	-0.750			
0.7464	47768.56	3.4450	3.4450	-1.0683	25.80	0.22	-0.750			
0.7496	47972.60	3.4420	3.4421	-1.0627	25.81	0.23	-0.750			
0.7527	48175.26	3.4390	3.4390	-1.0597	25.82	0.24	-0.750			
0.7559	48378.97	3.4360	3.4360	-1.0586	25.82	0.24	-0.750			
0.7591	48582.62	3.4330	3.4330	-1.0532	25.82	0.24	-0.750			
0.7623	48787.12	3.4300	3.4300	-1.0509	25.83	0.25	-0.750			
0.7654	48987.45	3.4270	3.4271	-1.0369	25.83	0.25	-0.750			
0.7685	49186.49	3.4240	3.4240	-1.0261	25.83	0.25	-0.750			
0.7716	49382.87	3.4210	3.4210	-1.0114	25.84	0.26	-0.750			
0.7746	49575.46	3.4180	3.4180	-0.9905	25.84	0.26	-0.750			
0.7776	49765.73	3.4150	3.4150	-0.9746	25.85	0.27	-0.750			
0.7805	49949.41	3.4120	3.4120	-0.9540	25.85	0.27	-0.750			
0.7833	50130.74	3.4090	3.4090	-0.9320	25.86	0.28	-0.750			
0.7861	50307.85	3.4060	3.4060	-0.9081	25.86	0.28	-0.750			
0.7888	50480.81	3.4030	3.4029	-0.8837	25.87	0.29	-0.750			
0.7914	50648.27	3.4000	3.4001	-0.8603	25.87	0.29	-0.750			
0.7939	50810.84	3.3970	3.3970	-0.8371	25.88	0.30	-0.750			
0.7964	50969.11	3.3940	3.3940	-0.8112	25.88	0.30	-0.750			
0.7988	51122.41	3.3910	3.3909	-0.7765	25.88	0.30	-0.750			
0.8011	51271.19	3.3880	3.3880	-0.7477	25.89	0.31	-0.750			
0.8033	51411.83	3.3850	3.3852	-0.7195	25.89	0.31	-0.750			
0.8054	51546.48	3.3820	3.3820	-0.6868	25.90	0.32	-0.750			
0.8074	51673.31	3.3790	3.3789	-0.6562	25.90	0.32	-0.750			
0.8093	51796.30	3.3760	3.3760	-0.6285	25.91	0.33	-0.750			
0.8112	51914.78	3.3730	3.3730	-0.6007	25.91	0.33	-0.750			
0.8129	52028.39	3.3700	3.3700	-0.5746	25.91	0.33	-0.750			
0.8146	52136.32	3.3670	3.3670	-0.5482	25.92	0.34	-0.750			
0.8162	52237.67	3.3640	3.3640	-0.5192	25.92	0.34	-0.750			
0.8177	52334.27	3.3610	3.3610	-0.4932	25.92	0.34	-0.750			
0.8191	52425.50	3.3580	3.3580	-0.4702	25.93	0.35	-0.750			
0.8205	52513.51	3.3550	3.3550	-0.4489	25.93	0.35	-0.750			
0.8218	52597.37	3.3520	3.3520	-0.4300	25.93	0.35	-0.750			
0.8231	52677.29	3.3490	3.3490	-0.4107	25.93	0.35	-0.750			
0.8243	52754.32	3.3460	3.3460	-0.3938	25.93	0.35	-0.750			
0.8254	52828.10	3.3430	3.3430	-0.3785	25.94	0.36	-0.750			
0.8266	52899.48	3.3400	3.3400	-0.3637	25.94	0.36	-0.750			
0.8276	52966.97	3.3370	3.3371	-0.3490	25.94	0.36	-0.750			
0.8286	53033.16	3.3340	3.3340	-0.3372	25.94	0.36	-0.750			
0.8296	53096.02	3.3310	3.3310	-0.3239	25.95	0.37	-0.750			
0.8306	53157.24	3.3280	3.3279	-0.3136	25.95	0.37	-0.750			
0.8315	53215.95	3.3250	3.3250	-0.3031	25.96	0.38	-0.750			
0.8324	53273.13	3.3220	3.3220	-0.2937	25.96	0.38	-0.750			
0.8333	53328.59	3.3190	3.3190	-0.2844	25.97	0.39	-0.750			
0.8341	53382.20	3.3160	3.3160	-0.2751	25.97	0.39	-0.750			
0.8349	53433.77	3.3130	3.3130	-0.2680	25.97	0.39	-0.750			
0.8357	53484.36	3.3100	3.3100	-0.2610	25.98	0.40	-0.750			
0.8365	53533.44	3.3070	3.3069	-0.2538	25.98	0.40	-0.750			
0.8372	53581.52	3.3040	3.3040	-0.2474	25.98	0.40	-0.750			
0.8379	53628.41	3.3010	3.3011	-0.2419	25.99	0.41	-0.750			
0.8387	53674.60	3.2980	3.2980	-0.2366	25.99	0.41	-0.750			
0.8394	53719.18	3.2950	3.2950	-0.2311	25.99	0.41	-0.750			
0.8400	53762.77	3.2920	3.2919	-0.2253	26.00	0.42	-0.750			
0.8407	53805.20	3.2890	3.2891	-0.2210	26.00	0.42	-0.750			
0.8414	53847.44	3.2860	3.2859	-0.2166	26.00	0.42	-0.750			
0.8420	53888.61	3.2830	3.2830	-0.2123	26.01	0.43	-0.750			
0.8426	53928.88	3.2800	3.2800	-0.2089	26.01	0.43	-0.750			
0.8433	53968.57	3.2770	3.2771	-0.2046	26.02	0.44	-0.750			
0.8439	54007.50	3.2740	3.2739	-0.2016	26.02	0.44	-0.750			
0.8445	54045.85	3.2710	3.2710	-0.1979	26.02	0.44	-0.750			
0.8451	54083.24	3.2680	3.2680	-0.1946	26.03	0.45	-0.750			
0.8456	54120.03	3.2650	3.2650	-0.1919	26.03	0.45	-0.750			
0.8462	54156.83	3.2620	3.2620	-0.1897	26.03	0.45	-0.750			
0.8468	54192.99	3.2590	3.2590	-0.1870	26.04	0.46	-0.750			
0.8473	54228.40	3.2560	3.2560	-0.1844	26.04	0.46	-0.750			
0.8479	54263.85	3.2530	3.2530	-0.1823	26.04	0.46	-0.750			
0.8484	54298.53	3.2500	3.2499	-0.1794	26.04	0.46	-0.750			
0.8489	54332.73	3.2470	3.2470	-0.1768	26.05	0.47	-0.750			
0.8495	54366.53	3.2440	3.2441	-0.1742	26.05	0.47	-0.750			
0.8500	54399.44	3.2410	3.2410	-0.1720	26.05	0.47	-0.750			
0.8505	54432.34	3.2380	3.2380	-0.1698	26.06	0.48	-0.750			
0.8510	54464.73	3.2350	3.2350	-0.1676	26.06	0.48	-0.750			
0.8515	54496.56	3.2320	3.2320	-0.1656	26.06	0.48	-0.750			
0.8520	54528.20	3.2290	3.2291	-0.1636	26.06	0.48	-0.750			
0.8525	54559.51	3.2260	3.2260	-0.1618	26.07	0.49	-0.750			
0.8530	54590.28	3.2230	3.2230	-0.1605	26.07	0.49	-0.750			
0.8535	54620.97	3.2200	3.2200	-0.1586	26.07	0.49	-0.750			
0.8539	54651.10	3.2170	3.2169	-0.1567	26.08	0.50	-0.750			
0.8544	54681.22	3.2140	3.2140	-0.1556	26.08	0.50	-0.750			
0.8549	54710.86	3.2110	3.2111	-0.1542	26.08	0.50	-0.750			
0.8553	54740.23	3.2080	3.2080	-0.1527	26.09	0.51	-0.750			
0.8558	54769.58	3.2050	3.2050	-0.1511	26.09	0.51	-0.750			
0.8562	54798.42	3.2020	3.2020	-0.1494	26.10	0.52	-0.750			
0.8567	54826.81	3.1990	3.1991	-0.1480	26.10	0.52	-0.750			
0.8571	54855.16	3.1960	3.1960	-0.1471	26.10	0.52	-0.750			
0.8576	54883.24	3.1930	3.1930	-0.1455	26.11	0.53	-0.750			
0.8580	54911.04	3.1900	3.1899	-0.1441	26.11	0.53	-0.750			
0.8584	54938.58	3.1870	3.1870	-0.1422	26.11	0.53	-0.750			
0.8588	54965.70	3.1840	3.1841	-0.1411	26.12	0.54	-0.750			
0.8593	54992.72	3.1810	3.1810	-0.1402	26.12	0.54	-0.750			
0.8597	55019.51	3.1780	3.1780	-0.1388	26.12	0.54	-0.750			
0.8601	55045.85	3.1750	3.1749	-0.1375	26.13	0.55	-0.750			
0.8605	55072.06	3.1720	3.1721	-0.1362	26.13	0.55	-0.750			
0.8609	55098.30	3.1690	3.1690	-0.1353	26.13	0.55	-0.750			
0.8613	55124.14	3.1660	3.1661	-0.1339	26.14	0.56	-0.750			
0.8617	55149.79	3.1630	3.1630	-0.1334	26.14	0.56	-0.750			
0.8621	55175.21	3.1600	3.1600	-0.1318	26.14	0.56	-0.750			
0.8625	55200.41	3.1570	3.1569	-0.1307	26.15	0.57	-0.750			
0.8629	55225.39	3.1540	3.1541	-0.1297	26.15	0.57	-0.750			
0.8633	55250.19	3.1510	3.1510	-0.1287	26.15	0.57	-0.750			
0.8637	55274.81	3.1480	3.1480	-0.1277	26.16	0.58	-0.750			
0.8640	55299.18	3.1450	3.1449	-0.1269	26.16	0.58	-0.750			
0.8644	55323.45	3.1420	3.1420	-0.1260	26.16	0.58	-0.750			
0.8648	55347.44	3.1390	3.1391	-0.1246	26.16	0.58	-0.750			
0.8652	55371.50	3.1360	3.1359	-0.1241	26.17	0.59	-0.750			
0.8656	55395.22	3.1330	3.1331	-0.1228	26.17	0.59	-0.750			
0.8659	55418.72	3.1300	3.1300	-0.1215	26.17	0.59	-0.750			
0.8663	55441.85	3.1270	3.1270	-0.1207	26.18	0.60	-0.750			
0.8666	55464.86	3.1240	3.1240	-0.1196	26.18	0.60	-0.750			
0.8670	55487.54	3.1210	3.1210	-0.1186	26.18	0.60	-0.750			
0.8673	55510.25	3.1180	3.1180	-0.1180	26.19	0.61	-0.750			
0.8677	55532.84	3.1150	3.1150	-0.1174	26.19	0.61	-0.750			
0.8681	55555.33	3.1120	3.1120	-0.1169	26.19	0.61	-0.750			
0.8684	55577.81	3.1090	3.1089	-0.1162	26.20	0.62	-0.750			
0.8688	55600.05	3.1060	3.1060	-0.1154	26.20	0.62	-0.750			
0.8691	55622.23	3.1030	3.1031	-0.1145	26.20	0.62	-0.750			
0.8694	55644.11	3.1000	3.1000	-0.1134	26.21	0.63	-0.750			
0.8698	55665.77	3.0970	3.0970	-0.1127	26.21	0.63	-0.750			
0.8701	55687.32	3.0940	3.0940	-0.1118	26.21	0.63	-0.750			
0.8704	55708.65	3.0910	3.0910	-0.1108	26.22	0.64	-0.750			
0.8708	55729.84	3.0880	3.0880	-0.1100	26.22	0.64	-0.750			
0.8711	55750.91	3.0850	3.0850	-0.1090	26.22	0.64	-0.750			
0.8714	55771.76	3.0820	3.0821	-0.1081	26.22	0.64	-0.750			
0.8718	55792.42	3.0790	3.0790	-0.1076	26.23	0.65	-0.750			
0.8721	55813.00	3.0760	3.0760	-0.1068	26.23	0.65	-0.750			
0.8724	55833.33	3.0730	3.0729	-0.1059	26.23	0.65	-0.750			
0.8727	55853.60	3.0700	3.0700	-0.1053	26.24	0.66	-0.750			
0.8730	55873.70	3.0670	3.0671	-0.1048	26.24	0.66	-0.750			
0.8733	55893.79	3.0640	3.0640	-0.1044	26.24	0.66	-0.750			
0.8737	55913.90	3.0610	3.0610	-0.1038	26.25	0.67	-0.750			
0.8740	55933.77	3.0580	3.0580	-0.1031	26.25	0.67	-0.750			
0.8743	55953.51	3.0550	3.0551	-0.1023	26.25	0.67	-0.750			
0.8746	55973.09	3.0520	3.0520	-0.1016	26.25	0.67	-0.750			
0.8749	55992.60	3.0490	3.0490	-0.1010	26.26	0.68	-0.750			
0.8752	56011.90	3.0460	3.0460	-0.1001	26.26	0.68	-0.750			
0.8755	56030.88	3.0430	3.0430	-0.0992	26.26	0.68	-0.750			
0.8758	56049.87	3.0400	3.0401	-0.0986	26.26	0.68	-0.750			
0.8761	56068.76	3.0370	3.0369	-0.0980	26.27	0.69	-0.750			
0.8764	56087.52	3.0340	3.0341	-0.0974	26.27	0.69	-0.750			
0.8767	56106.19	3.0310	3.0309	-0.0967	26.27	0.69	-0.750			
0.8769	56124.70	3.0280	3.0280	-0.0961	26.27	0.69	-0.750			
0.8772	56143.06	3.0250	3.0250	-0.0956	26.28	0.70	-0.750			
0.8775	56161.37	3.0220	3.0220	-0.0950	26.28	0.70	-0.750			
0.8778	56179.53	3.0190	3.0190	-0.0945	26.28	0.70	-0.750			
0.8781	56197.56	3.0160	3.0160	-0.0939	26.28	0.70	-0.750			
0.8784	56215.58	3.0130	3.0129	-0.0930	26.28	0.70	-0.750			
0.8786	56233.44	3.0100	3.0100	-0.0923	26.28	0.70	-0.750			
0.8789	56251.10	3.0070	3.0071	-0.0916	26.29	0.71	-0.750			
0.8792	56268.68	3.0040	3.0040	-0.0901	26.29	0.71	-0.750			
0.8795	56285.80	3.0010	3.0010	-0.0874	26.29	0.71	-0.750			
