Ah_balance (normalized)	Ah_balance (mAh)	Voltage - fit (V)	Voltage -  interpolate (V)	dQ/dV (1/V)	Temperature (°C)	Temperature - diff (°C)	Current (C)	R_DC 0ms (mOhm)	R_DC 50ms (mOhm)	R_DC 50 ms PEC (mOhm)
0.1924	12315.61	3.9260	3.9258	-0.1008	25.78	0.00	-1.500			
0.1928	12338.88	3.9230	3.9228	-0.1344	25.78	0.00	-1.500			
0.1932	12367.61	3.9200	3.9199	-0.1631	25.78	0.00	-1.500			
0.1938	12401.65	3.9170	3.9170	-0.1913	25.78	0.00	-1.500			
0.1944	12441.57	3.9140	3.9141	-0.2183	25.78	0.00	-1.500			
0.1951	12487.08	3.9110	3.9109	-0.2451	25.78	0.00	-1.500			
0.1959	12536.59	3.9080	3.9080	-0.2698	25.78	0.00	-1.500			
0.1967	12590.74	3.9050	3.9051	-0.2952	25.78	0.00	-1.500			
0.1977	12649.87	3.9020	3.9019	-0.3199	25.78	0.00	-1.500			
0.1987	12713.65	3.8990	3.8991	-0.3458	25.78	0.00	-1.500			
0.1997	12782.72	3.8960	3.8960	-0.3686	25.78	0.00	-1.500			
0.2009	12855.68	3.8930	3.8930	-0.3938	25.78	0.00	-1.500			
0.2021	12934.02	3.8900	3.8900	-0.4181	25.78	0.00	-1.500			
0.2034	13016.85	3.8870	3.8871	-0.4421	25.78	0.00	-1.500			
0.2047	13103.44	3.8840	3.8840	-0.4645	25.78	0.00	-1.500			
0.2062	13195.33	3.8810	3.8810	-0.4873	25.78	0.00	-1.500			
0.2077	13290.64	3.8780	3.8780	-0.5087	25.78	0.00	-1.500			
0.2092	13391.29	3.8750	3.8750	-0.5284	25.78	0.00	-1.500			
0.2109	13495.22	3.8720	3.8720	-0.5453	25.78	0.00	-1.500			
0.2125	13602.12	3.8690	3.8690	-0.5621	25.78	0.00	-1.500			
0.2142	13711.56	3.8660	3.8661	-0.5787	25.78	0.00	-1.500			
0.2160	13824.29	3.8630	3.8629	-0.5927	25.78	0.00	-1.500			
0.2178	13940.14	3.8600	3.8600	-0.6059	25.78	0.00	-1.500			
0.2197	14058.04	3.8570	3.8570	-0.6161	25.78	0.00	-1.500			
0.2215	14178.77	3.8540	3.8540	-0.6264	25.78	0.00	-1.500			
0.2234	14299.78	3.8510	3.8510	-0.6328	25.78	0.00	-1.500			
0.2253	14421.56	3.8480	3.8480	-0.6392	25.78	0.00	-1.500			
0.2273	14544.27	3.8450	3.8450	-0.6464	25.78	0.00	-1.500			
0.2292	14669.29	3.8420	3.8420	-0.6529	25.78	0.00	-1.500			
0.2312	14795.14	3.8390	3.8389	-0.6595	25.79	0.01	-1.500			
0.2332	14923.00	3.8360	3.8361	-0.6658	25.79	0.01	-1.500			
0.2352	15051.65	3.8330	3.8330	-0.6696	25.79	0.01	-1.500			
0.2372	15181.47	3.8300	3.8300	-0.6714	25.79	0.01	-1.500			
0.2392	15310.44	3.8270	3.8270	-0.6739	25.79	0.01	-1.500			
0.2412	15438.82	3.8240	3.8241	-0.6755	25.79	0.01	-1.500			
0.2433	15569.40	3.8210	3.8209	-0.6772	25.80	0.02	-1.500			
0.2453	15700.01	3.8180	3.8180	-0.6773	25.80	0.02	-1.500			
0.2473	15830.19	3.8150	3.8150	-0.6785	25.80	0.02	-1.500			
0.2494	15960.27	3.8120	3.8121	-0.6824	25.80	0.02	-1.500			
0.2514	16091.57	3.8090	3.8090	-0.6846	25.81	0.03	-1.500			
0.2535	16222.07	3.8060	3.8060	-0.6852	25.81	0.03	-1.500			
0.2555	16354.00	3.8030	3.8030	-0.6867	25.82	0.04	-1.500			
0.2576	16486.89	3.8000	3.8001	-0.6922	25.82	0.04	-1.500			
0.2597	16621.16	3.7970	3.7970	-0.6939	25.83	0.05	-1.500			
0.2618	16754.02	3.7940	3.7940	-0.6930	25.83	0.05	-1.500			
0.2639	16887.26	3.7910	3.7910	-0.6892	25.84	0.06	-1.500			
0.2659	17019.22	3.7880	3.7881	-0.6909	25.84	0.06	-1.500			
0.2680	17152.42	3.7850	3.7849	-0.6878	25.85	0.07	-1.500			
0.2701	17283.50	3.7820	3.7820	-0.6898	25.85	0.07	-1.500			
0.2721	17414.91	3.7790	3.7789	-0.6890	25.86	0.08	-1.500			
0.2742	17547.86	3.7760	3.7760	-0.6910	25.86	0.08	-1.500			
0.2763	17680.57	3.7730	3.7731	-0.6944	25.87	0.09	-1.500			
0.2784	17815.19	3.7700	3.7700	-0.6960	25.87	0.09	-1.500			
0.2804	17948.77	3.7670	3.7669	-0.6968	25.88	0.10	-1.500			
0.2825	18082.92	3.7640	3.7640	-0.7006	25.88	0.10	-1.500			
0.2846	18216.32	3.7610	3.7610	-0.7021	25.89	0.11	-1.500			
0.2867	18351.69	3.7580	3.7579	-0.7064	25.89	0.11	-1.500			
0.2889	18487.77	3.7550	3.7551	-0.7087	25.90	0.12	-1.500			
0.2910	18623.29	3.7520	3.7520	-0.7115	25.90	0.12	-1.500			
0.2931	18760.89	3.7490	3.7490	-0.7159	25.91	0.13	-1.500			
0.2953	18899.20	3.7460	3.7460	-0.7155	25.91	0.13	-1.500			
0.2974	19036.26	3.7430	3.7429	-0.7180	25.92	0.14	-1.500			
0.2996	19174.50	3.7400	3.7401	-0.7206	25.92	0.14	-1.500			
0.3018	19313.60	3.7370	3.7370	-0.7214	25.93	0.15	-1.500			
0.3039	19451.43	3.7340	3.7340	-0.7262	25.94	0.16	-1.500			
0.3061	19590.43	3.7310	3.7310	-0.7268	25.94	0.16	-1.500			
0.3083	19730.55	3.7280	3.7280	-0.7355	25.95	0.17	-1.500			
0.3105	19873.05	3.7250	3.7249	-0.7418	25.96	0.18	-1.500			
0.3127	20015.60	3.7220	3.7220	-0.7437	25.97	0.19	-1.500			
0.3150	20158.22	3.7190	3.7190	-0.7549	25.97	0.19	-1.500			
0.3173	20304.52	3.7160	3.7160	-0.7631	25.98	0.20	-1.500			
0.3195	20450.92	3.7130	3.7129	-0.7655	25.99	0.21	-1.500			
0.3219	20598.74	3.7100	3.7100	-0.7776	25.99	0.21	-1.500			
0.3242	20747.91	3.7070	3.7071	-0.7856	26.00	0.22	-1.500			
0.3266	20900.50	3.7040	3.7039	-0.7973	26.01	0.23	-1.500			
0.3290	21054.78	3.7010	3.7010	-0.8050	26.01	0.23	-1.500			
0.3314	21209.18	3.6980	3.6979	-0.8108	26.02	0.24	-1.500			
0.3339	21366.53	3.6950	3.6951	-0.8232	26.02	0.24	-1.500			
0.3363	21525.93	3.6920	3.6919	-0.8305	26.03	0.25	-1.500			
0.3388	21684.23	3.6890	3.6890	-0.8396	26.04	0.26	-1.500			
0.3414	21847.38	3.6860	3.6859	-0.8499	26.04	0.26	-1.500			
0.3439	22011.73	3.6830	3.6830	-0.8575	26.05	0.27	-1.500			
0.3465	22177.04	3.6800	3.6801	-0.8696	26.05	0.27	-1.500			
0.3491	22343.80	3.6770	3.6772	-0.8813	26.06	0.28	-1.500			
0.3518	22514.11	3.6740	3.6739	-0.8908	26.07	0.29	-1.500			
0.3545	22685.42	3.6710	3.6710	-0.9030	26.07	0.29	-1.500			
0.3572	22859.10	3.6680	3.6679	-0.9165	26.08	0.30	-1.500			
0.3600	23037.18	3.6650	3.6651	-0.9387	26.08	0.30	-1.500			
0.3628	23219.40	3.6620	3.6619	-0.9542	26.09	0.31	-1.500			
0.3657	23405.30	3.6590	3.6589	-0.9709	26.09	0.31	-1.500			
0.3687	23594.85	3.6560	3.6561	-0.9865	26.10	0.32	-1.500			
0.3717	23786.43	3.6530	3.6529	-1.0031	26.11	0.33	-1.500			
0.3747	23979.75	3.6500	3.6501	-1.0137	26.11	0.33	-1.500			
0.3777	24174.88	3.6470	3.6469	-1.0225	26.12	0.34	-1.500			
0.3808	24370.56	3.6440	3.6440	-1.0342	26.12	0.34	-1.500			
0.3839	24569.13	3.6410	3.6410	-1.0454	26.13	0.35	-1.500			
0.3871	24773.21	3.6380	3.6380	-1.0731	26.13	0.35	-1.500			
0.3903	24979.72	3.6350	3.6350	-1.0915	26.14	0.36	-1.500			
0.3936	25191.45	3.6320	3.6320	-1.1104	26.14	0.36	-1.500			
0.3970	25407.83	3.6290	3.6290	-1.1307	26.15	0.37	-1.500			
0.4004	25627.61	3.6260	3.6260	-1.1505	26.15	0.37	-1.500			
0.4039	25851.74	3.6230	3.6230	-1.1644	26.16	0.38	-1.500			
0.4074	26076.40	3.6200	3.6200	-1.1793	26.16	0.38	-1.500			
0.4110	26302.30	3.6170	3.6170	-1.1915	26.16	0.38	-1.500			
0.4146	26534.14	3.6140	3.6140	-1.2052	26.17	0.39	-1.500			
0.4182	26766.71	3.6110	3.6109	-1.2230	26.17	0.39	-1.500			
0.4219	27000.91	3.6080	3.6081	-1.2461	26.18	0.40	-1.500			
0.4256	27241.03	3.6050	3.6050	-1.2674	26.18	0.40	-1.500			
0.4295	27487.38	3.6020	3.6019	-1.2927	26.19	0.41	-1.500			
0.4334	27737.21	3.5990	3.5990	-1.3181	26.19	0.41	-1.500			
0.4374	27996.40	3.5960	3.5960	-1.3398	26.20	0.42	-1.500			
0.4415	28257.48	3.5930	3.5930	-1.3546	26.20	0.42	-1.500			
0.4456	28519.33	3.5900	3.5900	-1.3637	26.21	0.43	-1.500			
0.4497	28780.68	3.5870	3.5870	-1.3802	26.21	0.43	-1.500			
0.4539	29047.37	3.5840	3.5840	-1.3901	26.22	0.44	-1.500			
0.4580	29312.99	3.5810	3.5810	-1.4135	26.22	0.44	-1.500			
0.4622	29583.64	3.5780	3.5781	-1.4358	26.23	0.45	-1.500			
0.4666	29864.68	3.5750	3.5750	-1.4666	26.23	0.45	-1.500			
0.4711	30148.58	3.5720	3.5720	-1.4853	26.24	0.46	-1.500			
0.4756	30436.46	3.5690	3.5690	-1.5114	26.24	0.46	-1.500			
0.4801	30729.17	3.5660	3.5661	-1.5304	26.25	0.47	-1.500			
0.4848	31027.17	3.5630	3.5630	-1.5545	26.25	0.47	-1.500			
0.4895	31326.70	3.5600	3.5599	-1.5656	26.26	0.48	-1.500			
0.4942	31628.78	3.5570	3.5570	-1.5833	26.26	0.48	-1.500			
0.4990	31935.00	3.5540	3.5541	-1.5976	26.27	0.49	-1.500			
0.5038	32241.87	3.5510	3.5510	-1.6136	26.28	0.50	-1.500			
0.5086	32550.79	3.5480	3.5480	-1.6331	26.28	0.50	-1.500			
0.5136	32867.58	3.5450	3.5450	-1.6539	26.29	0.51	-1.500			
0.5186	33188.05	3.5420	3.5419	-1.6714	26.29	0.51	-1.500			
0.5236	33511.83	3.5390	3.5391	-1.6919	26.30	0.52	-1.500			
0.5287	33837.87	3.5360	3.5360	-1.7113	26.31	0.53	-1.500			
0.5339	34170.75	3.5330	3.5339	-1.7227	26.32	0.54	-1.500	0.381	0.525	
0.5391	34503.12	3.5300	3.5299	-1.7218	26.32	0.54	-1.500			
0.5443	34835.32	3.5270	3.5271	-1.7311	26.33	0.55	-1.500			
0.5495	35169.24	3.5240	3.5240	-1.7292	26.34	0.56	-1.500			
0.5546	35497.20	3.5210	3.5210	-1.7515	26.35	0.57	-1.500			
0.5599	35833.93	3.5180	3.5180	-1.7516	26.36	0.58	-1.500			
0.5652	36171.41	3.5150	3.5149	-1.7686	26.37	0.59	-1.500			
0.5706	36515.68	3.5120	3.5120	-1.7846	26.38	0.60	-1.500			
0.5760	36862.96	3.5090	3.5090	-1.7794	26.39	0.61	-1.500			
0.5813	37204.54	3.5060	3.5059	-1.7655	26.40	0.62	-1.500			
0.5866	37540.03	3.5030	3.5031	-1.7603	26.41	0.63	-1.500			
0.5919	37878.41	3.5000	3.5000	-1.7534	26.42	0.64	-1.500			
0.5971	38216.51	3.4970	3.4969	-1.7525	26.44	0.66	-1.500			
0.6023	38550.15	3.4940	3.4940	-1.7465	26.45	0.67	-1.500			
0.6076	38886.49	3.4910	3.4910	-1.7537	26.46	0.68	-1.500			
0.6129	39225.53	3.4880	3.4880	-1.7510	26.47	0.69	-1.500			
0.6182	39562.35	3.4850	3.4849	-1.7412	26.49	0.71	-1.500			
0.6234	39896.53	3.4820	3.4821	-1.7268	26.50	0.72	-1.500			
0.6286	40227.80	3.4790	3.4790	-1.7168	26.51	0.73	-1.500			
0.6337	40555.24	3.4760	3.4760	-1.7058	26.52	0.74	-1.500			
0.6388	40880.07	3.4730	3.4729	-1.6855	26.54	0.76	-1.500			
0.6438	41204.58	3.4700	3.4700	-1.6667	26.55	0.77	-1.500			
0.6488	41523.25	3.4670	3.4671	-1.6447	26.56	0.78	-1.500			
0.6537	41836.40	3.4640	3.4640	-1.6220	26.58	0.80	-1.500			
0.6585	42145.59	3.4610	3.4610	-1.6001	26.59	0.81	-1.500			
0.6633	42448.39	3.4580	3.4580	-1.5772	26.61	0.83	-1.500			
0.6680	42749.58	3.4550	3.4550	-1.5552	26.62	0.84	-1.500			
0.6726	43046.84	3.4520	3.4521	-1.5353	26.64	0.86	-1.500			
0.6772	43341.31	3.4490	3.4490	-1.5101	26.65	0.87	-1.500			
0.6817	43628.04	3.4460	3.4459	-1.4791	26.67	0.89	-1.500			
0.6861	43907.22	3.4430	3.4431	-1.4605	26.68	0.90	-1.500			
0.6904	44185.45	3.4400	3.4400	-1.4418	26.70	0.92	-1.500			
0.6947	44460.09	3.4370	3.4369	-1.4270	26.72	0.94	-1.500			
0.6990	44734.28	3.4340	3.4342	-1.4099	26.73	0.95	-1.500			
0.7031	45001.48	3.4310	3.4310	-1.3994	26.75	0.97	-1.500			
0.7073	45270.22	3.4280	3.4280	-1.3864	26.77	0.99	-1.500			
0.7115	45533.20	3.4250	3.4250	-1.3741	26.78	1.00	-1.500			
0.7156	45799.24	3.4220	3.4219	-1.3573	26.80	1.02	-1.500			
0.7197	46057.88	3.4190	3.4189	-1.3393	26.82	1.04	-1.500			
0.7236	46313.57	3.4160	3.4162	-1.3182	26.83	1.05	-1.500			
0.7276	46565.54	3.4130	3.4129	-1.2972	26.85	1.07	-1.500			
0.7314	46810.31	3.4100	3.4100	-1.2691	26.87	1.09	-1.500			
0.7352	47053.49	3.4070	3.4070	-1.2479	26.89	1.11	-1.500			
0.7390	47292.99	3.4040	3.4040	-1.2184	26.91	1.13	-1.500			
0.7426	47524.88	3.4010	3.4010	-1.1862	26.93	1.15	-1.500			
0.7461	47748.21	3.3980	3.3980	-1.1478	26.94	1.16	-1.500			
0.7495	47965.81	3.3950	3.3950	-1.1108	26.94	1.16	-1.500			
0.7527	48173.80	3.3920	3.3920	-1.0728	26.96	1.18	-1.500			
0.7559	48375.74	3.3890	3.3891	-1.0357	26.98	1.20	-1.500			
0.7589	48571.22	3.3860	3.3860	-1.0003	26.99	1.21	-1.500			
0.7619	48762.82	3.3830	3.3830	-0.9650	27.01	1.23	-1.500			
0.7647	48942.00	3.3800	3.3799	-0.9270	27.02	1.24	-1.500			
0.7674	49115.60	3.3770	3.3771	-0.8919	27.03	1.25	-1.500			
0.7700	49283.05	3.3740	3.3740	-0.8630	27.04	1.26	-1.500			
0.7726	49444.49	3.3710	3.3709	-0.8312	27.05	1.27	-1.500			
0.7750	49601.94	3.3680	3.3679	-0.8035	27.06	1.28	-1.500			
0.7774	49753.70	3.3650	3.3650	-0.7754	27.07	1.29	-1.500			
0.7797	49900.36	3.3620	3.3620	-0.7484	27.08	1.30	-1.500			
0.7819	50039.62	3.3590	3.3590	-0.7208	27.09	1.31	-1.500			
0.7840	50176.15	3.3560	3.3561	-0.7006	27.10	1.32	-1.500			
0.7860	50306.90	3.3530	3.3529	-0.6765	27.11	1.33	-1.500			
0.7881	50435.54	3.3500	3.3500	-0.6572	27.12	1.34	-1.500			
0.7900	50559.49	3.3470	3.3470	-0.6382	27.13	1.35	-1.500			
0.7919	50679.85	3.3440	3.3441	-0.6190	27.14	1.36	-1.500			
0.7937	50796.90	3.3410	3.3410	-0.5995	27.15	1.37	-1.500			
0.7955	50909.64	3.3380	3.3380	-0.5814	27.15	1.37	-1.500			
0.7972	51019.22	3.3350	3.3350	-0.5630	27.16	1.38	-1.500			
0.7988	51125.79	3.3320	3.3321	-0.5495	27.16	1.38	-1.500			
0.8005	51230.12	3.3290	3.3289	-0.5333	27.17	1.39	-1.500			
0.8020	51330.85	3.3260	3.3260	-0.5183	27.18	1.40	-1.500			
0.8036	51429.56	3.3230	3.3230	-0.5031	27.18	1.40	-1.500			
0.8051	51524.24	3.3200	3.3200	-0.4901	27.19	1.41	-1.500			
0.8065	51617.34	3.3170	3.3171	-0.4739	27.20	1.42	-1.500			
0.8079	51705.98	3.3140	3.3139	-0.4604	27.21	1.43	-1.500			
0.8093	51792.45	3.3110	3.3110	-0.4458	27.21	1.43	-1.500			
0.8106	51876.48	3.3080	3.3081	-0.4374	27.22	1.44	-1.500			
0.8119	51959.17	3.3050	3.3050	-0.4262	27.23	1.45	-1.500			
0.8131	52041.08	3.3020	3.3020	-0.4169	27.23	1.45	-1.500			
0.8144	52119.82	3.2990	3.2991	-0.4059	27.24	1.46	-1.500			
0.8156	52197.41	3.2960	3.2960	-0.3987	27.24	1.46	-1.500			
0.8168	52272.40	3.2930	3.2930	-0.3872	27.25	1.47	-1.500			
0.8179	52345.41	3.2900	3.2899	-0.3776	27.26	1.48	-1.500			
0.8190	52416.20	3.2870	3.2871	-0.3676	27.26	1.48	-1.500			
0.8201	52486.94	3.2840	3.2840	-0.3601	27.27	1.49	-1.500			
0.8212	52555.02	3.2810	3.2810	-0.3506	27.27	1.49	-1.500			
0.8222	52621.70	3.2780	3.2781	-0.3409	27.27	1.49	-1.500			
0.8232	52685.84	3.2750	3.2749	-0.3321	27.28	1.50	-1.500			
0.8242	52748.61	3.2720	3.2720	-0.3246	27.28	1.50	-1.500			
0.8252	52810.00	3.2690	3.2690	-0.3174	27.29	1.51	-1.500			
0.8261	52869.63	3.2660	3.2659	-0.3117	27.30	1.52	-1.500			
0.8270	52929.34	3.2630	3.2630	-0.3061	27.30	1.52	-1.500			
0.8279	52987.54	3.2600	3.2600	-0.3003	27.31	1.53	-1.500			
0.8288	53045.04	3.2570	3.2570	-0.2957	27.31	1.53	-1.500			
0.8297	53101.31	3.2540	3.2540	-0.2892	27.32	1.54	-1.500			
0.8306	53156.04	3.2510	3.2509	-0.2826	27.33	1.55	-1.500			
0.8314	53209.81	3.2480	3.2481	-0.2764	27.33	1.55	-1.500			
0.8322	53261.76	3.2450	3.2450	-0.2702	27.34	1.56	-1.500			
0.8330	53313.14	3.2420	3.2420	-0.2665	27.34	1.56	-1.500			
0.8338	53363.43	3.2390	3.2390	-0.2620	27.35	1.57	-1.500			
0.8346	53413.23	3.2360	3.2359	-0.2581	27.35	1.57	-1.500			
0.8354	53463.05	3.2330	3.2330	-0.2541	27.36	1.58	-1.500			
0.8361	53511.48	3.2300	3.2301	-0.2501	27.36	1.58	-1.500			
0.8369	53559.19	3.2270	3.2270	-0.2455	27.37	1.59	-1.500			
0.8376	53606.10	3.2240	3.2240	-0.2408	27.37	1.59	-1.500			
0.8383	53651.08	3.2210	3.2210	-0.2357	27.38	1.60	-1.500			
0.8390	53695.82	3.2180	3.2181	-0.2326	27.38	1.60	-1.500			
0.8397	53740.20	3.2150	3.2150	-0.2296	27.38	1.60	-1.500			
0.8404	53783.75	3.2120	3.2120	-0.2269	27.39	1.61	-1.500			
0.8411	53827.39	3.2090	3.2090	-0.2239	27.39	1.61	-1.500			
0.8417	53869.87	3.2060	3.2060	-0.2205	27.40	1.62	-1.500			
0.8424	53911.95	3.2030	3.2030	-0.2178	27.40	1.62	-1.500			
0.8430	53953.68	3.2000	3.2001	-0.2154	27.41	1.63	-1.500			
0.8437	53994.71	3.1970	3.1969	-0.2122	27.41	1.63	-1.500			
0.8443	54034.83	3.1940	3.1940	-0.2097	27.42	1.64	-1.500			
0.8449	54074.89	3.1910	3.1910	-0.2076	27.42	1.64	-1.500			
0.8455	54114.55	3.1880	3.1880	-0.2047	27.43	1.65	-1.500			
0.8462	54153.84	3.1850	3.1849	-0.2024	27.43	1.65	-1.500			
0.8468	54192.43	3.1820	3.1821	-0.1995	27.44	1.66	-1.500			
0.8473	54230.33	3.1790	3.1790	-0.1972	27.44	1.66	-1.500			
0.8479	54267.89	3.1760	3.1760	-0.1947	27.45	1.67	-1.500			
0.8485	54304.95	3.1730	3.1730	-0.1931	27.45	1.67	-1.500			
0.8491	54341.35	3.1700	3.1700	-0.1911	27.45	1.67	-1.500			
0.8497	54378.18	3.1670	3.1670	-0.1899	27.46	1.68	-1.500			
0.8502	54414.67	3.1640	3.1640	-0.1889	27.46	1.68	-1.500			
0.8508	54451.03	3.1610	3.1609	-0.1864	27.47	1.69	-1.500			
0.8514	54486.82	3.1580	3.1581	-0.1849	27.47	1.69	-1.500			
0.8519	54522.02	3.1550	3.1551	-0.1825	27.48	1.70	-1.500			
0.8525	54556.83	3.1520	3.1519	-0.1801	27.48	1.70	-1.500			
0.8530	54591.04	3.1490	3.1489	-0.1779	27.49	1.71	-1.500			
0.8535	54624.57	3.1460	3.1461	-0.1762	27.49	1.71	-1.500			
0.8540	54658.36	3.1430	3.1431	-0.1751	27.50	1.72	-1.500			
0.8546	54691.86	3.1400	3.1399	-0.1740	27.50	1.72	-1.500			
0.8551	54725.29	3.1370	3.1369	-0.1727	27.51	1.73	-1.500			
0.8556	54758.18	3.1340	3.1342	-0.1712	27.51	1.73	-1.500			
0.8561	54791.24	3.1310	3.1310	-0.1699	27.52	1.74	-1.500			
0.8566	54823.68	3.1280	3.1279	-0.1680	27.52	1.74	-1.500			
0.8571	54855.87	3.1250	3.1249	-0.1663	27.53	1.75	-1.500			
0.8576	54887.23	3.1220	3.1221	-0.1649	27.53	1.75	-1.500			
0.8581	54918.72	3.1190	3.1189	-0.1637	27.53	1.75	-1.500			
0.8586	54950.12	3.1160	3.1161	-0.1623	27.54	1.76	-1.500			
0.8591	54981.01	3.1130	3.1130	-0.1616	27.54	1.76	-1.500			
0.8596	55011.89	3.1100	3.1101	-0.1605	27.55	1.77	-1.500			
0.8600	55042.94	3.1070	3.1070	-0.1600	27.55	1.77	-1.500			
0.8605	55073.53	3.1040	3.1039	-0.1586	27.56	1.78	-1.500			
0.8610	55103.87	3.1010	3.1010	-0.1576	27.56	1.78	-1.500			
0.8615	55133.98	3.0980	3.0980	-0.1560	27.57	1.79	-1.500			
0.8619	55163.71	3.0950	3.0950	-0.1555	27.57	1.79	-1.500			
0.8624	55193.47	3.0920	3.0920	-0.1545	27.58	1.80	-1.500			
0.8629	55222.85	3.0890	3.0890	-0.1531	27.59	1.81	-1.500			
0.8633	55252.24	3.0860	3.0859	-0.1522	27.59	1.81	-1.500			
0.8638	55281.57	3.0830	3.0830	-0.1513	27.60	1.82	-1.500			
0.8642	55310.49	3.0800	3.0801	-0.1500	27.60	1.82	-1.500			
0.8647	55339.08	3.0770	3.0770	-0.1491	27.61	1.83	-1.500			
0.8651	55367.71	3.0740	3.0739	-0.1482	27.61	1.83	-1.500			
0.8656	55395.76	3.0710	3.0710	-0.1466	27.62	1.84	-1.500			
0.8660	55423.91	3.0680	3.0680	-0.1456	27.62	1.84	-1.500			
0.8664	55451.91	3.0650	3.0650	-0.1447	27.63	1.85	-1.500			
0.8669	55479.43	3.0620	3.0619	-0.1440	27.63	1.85	-1.500			
0.8673	55507.01	3.0590	3.0591	-0.1433	27.64	1.86	-1.500			
0.8677	55534.50	3.0560	3.0559	-0.1423	27.64	1.86	-1.500			
0.8681	55561.60	3.0530	3.0530	-0.1412	27.65	1.87	-1.500			
0.8686	55588.74	3.0500	3.0500	-0.1407	27.65	1.87	-1.500			
0.8690	55615.68	3.0470	3.0471	-0.1399	27.66	1.88	-1.500			
0.8694	55642.60	3.0440	3.0440	-0.1389	27.67	1.89	-1.500			
0.8698	55669.18	3.0410	3.0410	-0.1381	27.67	1.89	-1.500			
0.8702	55695.58	3.0380	3.0380	-0.1370	27.68	1.90	-1.500			
0.8706	55721.56	3.0350	3.0350	-0.1362	27.68	1.90	-1.500			
0.8711	55747.70	3.0320	3.0321	-0.1358	27.69	1.91	-1.500			
0.8715	55773.62	3.0290	3.0290	-0.1350	27.69	1.91	-1.500			
0.8719	55799.51	3.0260	3.0259	-0.1347	27.70	1.92	-1.500			
0.8723	55825.38	3.0230	3.0230	-0.1338	27.70	1.92	-1.500			
0.8727	55851.17	3.0200	3.0200	-0.1333	27.71	1.93	-1.500			
0.8731	55876.76	3.0170	3.0170	-0.1322	27.71	1.93	-1.500			
0.8735	55901.92	3.0140	3.0140	-0.1315	27.72	1.94	-1.500			
0.8739	55927.03	3.0110	3.0111	-0.1306	27.72	1.94	-1.500			
0.8742	55951.98	3.0080	3.0080	-0.1299	27.73	1.95	-1.500			
0.8746	55976.86	3.0050	3.0049	-0.1293	27.73	1.95	-1.500			
0.8750	56001.77	3.0020	3.0020	-0.1310	27.74	1.96	-1.500			
