Ah_balance (normalized)	Ah_balance (mAh)	Voltage - fit (V)	Voltage -  interpolate (V)	dQ/dV (1/V)	Temperature (°C)	Temperature - diff (°C)	Current (C)	R_DC 0ms (mOhm)	R_DC 50ms (mOhm)	R_DC 50 ms PEC (mOhm)
0.2003	12817.49	3.9350	3.9348	-0.1413	25.68	0.01	-0.750			
0.2008	12849.50	3.9320	3.9319	-0.1905	25.68	0.01	-0.750			
0.2014	12890.75	3.9290	3.9290	-0.2388	25.68	0.01	-0.750			
0.2022	12942.05	3.9260	3.9260	-0.2830	25.67	0.00	-0.750			
0.2031	13001.01	3.9230	3.9230	-0.3248	25.67	0.00	-0.750			
0.2042	13068.39	3.9200	3.9200	-0.3694	25.67	0.00	-0.750			
0.2054	13143.80	3.9170	3.9171	-0.4096	25.67	-0.00	-0.750			
0.2067	13227.04	3.9140	3.9140	-0.4465	25.67	-0.00	-0.750			
0.2081	13316.58	3.9110	3.9110	-0.4809	25.67	-0.00	-0.750			
0.2096	13413.46	3.9080	3.9081	-0.5131	25.66	-0.01	-0.750			
0.2112	13515.84	3.9050	3.9050	-0.5434	25.66	-0.01	-0.750			
0.2129	13624.86	3.9020	3.9020	-0.5660	25.66	-0.01	-0.750			
0.2146	13735.49	3.8990	3.8990	-0.5828	25.65	-0.02	-0.750			
0.2164	13850.03	3.8960	3.8960	-0.6017	25.65	-0.02	-0.750			
0.2182	13967.40	3.8930	3.8930	-0.6153	25.65	-0.02	-0.750			
0.2201	14087.05	3.8900	3.8900	-0.6276	25.65	-0.02	-0.750			
0.2220	14208.94	3.8870	3.8870	-0.6375	25.65	-0.02	-0.750			
0.2240	14333.02	3.8840	3.8841	-0.6463	25.64	-0.03	-0.750			
0.2259	14458.90	3.8810	3.8810	-0.6549	25.64	-0.03	-0.750			
0.2279	14585.57	3.8780	3.8780	-0.6593	25.64	-0.03	-0.750			
0.2299	14711.99	3.8750	3.8751	-0.6645	25.64	-0.03	-0.750			
0.2319	14839.86	3.8720	3.8720	-0.6687	25.64	-0.03	-0.750			
0.2339	14968.76	3.8690	3.8689	-0.6709	25.64	-0.03	-0.750			
0.2359	15098.25	3.8660	3.8660	-0.6763	25.64	-0.03	-0.750			
0.2379	15228.52	3.8630	3.8630	-0.6784	25.64	-0.03	-0.750			
0.2400	15359.56	3.8600	3.8600	-0.6818	25.64	-0.03	-0.750			
0.2421	15491.36	3.8570	3.8570	-0.6822	25.64	-0.03	-0.750			
0.2441	15621.68	3.8540	3.8540	-0.6818	25.64	-0.03	-0.750			
0.2461	15753.07	3.8510	3.8510	-0.6836	25.63	-0.04	-0.750			
0.2482	15884.27	3.8480	3.8480	-0.6841	25.63	-0.04	-0.750			
0.2502	16015.02	3.8450	3.8449	-0.6826	25.63	-0.04	-0.750			
0.2523	16146.55	3.8420	3.8421	-0.6844	25.62	-0.05	-0.750			
0.2543	16277.83	3.8390	3.8391	-0.6843	25.62	-0.05	-0.750			
0.2564	16410.45	3.8360	3.8360	-0.6857	25.62	-0.05	-0.750			
0.2585	16541.30	3.8330	3.8330	-0.6858	25.62	-0.05	-0.750			
0.2605	16672.13	3.8300	3.8300	-0.6867	25.62	-0.05	-0.750			
0.2626	16804.39	3.8270	3.8270	-0.6885	25.62	-0.05	-0.750			
0.2646	16937.20	3.8240	3.8239	-0.6898	25.62	-0.05	-0.750			
0.2667	17069.96	3.8210	3.8210	-0.6886	25.62	-0.05	-0.750			
0.2688	17202.70	3.8180	3.8180	-0.6895	25.62	-0.05	-0.750			
0.2709	17334.91	3.8150	3.8150	-0.6883	25.62	-0.05	-0.750			
0.2729	17466.08	3.8120	3.8120	-0.6892	25.62	-0.05	-0.750			
0.2750	17597.51	3.8090	3.8090	-0.6875	25.62	-0.05	-0.750			
0.2770	17730.30	3.8060	3.8060	-0.6869	25.62	-0.05	-0.750			
0.2791	17861.88	3.8030	3.8030	-0.6877	25.62	-0.05	-0.750			
0.2812	17994.37	3.8000	3.7999	-0.6908	25.62	-0.05	-0.750			
0.2832	18126.66	3.7970	3.7970	-0.6920	25.62	-0.05	-0.750			
0.2853	18259.39	3.7940	3.7940	-0.6917	25.62	-0.05	-0.750			
0.2874	18392.36	3.7910	3.7910	-0.6922	25.62	-0.05	-0.750			
0.2895	18526.10	3.7880	3.7880	-0.6964	25.62	-0.05	-0.750			
0.2916	18660.40	3.7850	3.7849	-0.6973	25.62	-0.05	-0.750			
0.2936	18793.33	3.7820	3.7820	-0.6986	25.62	-0.05	-0.750			
0.2957	18926.82	3.7790	3.7790	-0.7004	25.62	-0.05	-0.750			
0.2978	19061.83	3.7760	3.7760	-0.7046	25.62	-0.05	-0.750			
0.3000	19197.74	3.7730	3.7730	-0.7089	25.62	-0.05	-0.750			
0.3021	19334.59	3.7700	3.7700	-0.7082	25.62	-0.05	-0.750			
0.3042	19469.89	3.7670	3.7670	-0.7119	25.62	-0.05	-0.750			
0.3064	19607.33	3.7640	3.7640	-0.7161	25.62	-0.05	-0.750			
0.3085	19744.07	3.7610	3.7610	-0.7198	25.62	-0.05	-0.750			
0.3107	19883.79	3.7580	3.7579	-0.7255	25.62	-0.05	-0.750			
0.3129	20024.25	3.7550	3.7550	-0.7286	25.62	-0.05	-0.750			
0.3151	20164.59	3.7520	3.7521	-0.7320	25.62	-0.05	-0.750			
0.3173	20306.39	3.7490	3.7492	-0.7360	25.62	-0.05	-0.750			
0.3195	20446.60	3.7460	3.7459	-0.7394	25.62	-0.05	-0.750			
0.3217	20587.62	3.7430	3.7430	-0.7447	25.62	-0.05	-0.750			
0.3239	20731.84	3.7400	3.7400	-0.7482	25.61	-0.06	-0.750			
0.3262	20876.42	3.7370	3.7370	-0.7522	25.61	-0.06	-0.750			
0.3285	21022.36	3.7340	3.7340	-0.7611	25.61	-0.06	-0.750			
0.3308	21168.90	3.7310	3.7311	-0.7636	25.61	-0.06	-0.750			
0.3330	21314.85	3.7280	3.7279	-0.7706	25.61	-0.06	-0.750			
0.3354	21462.63	3.7250	3.7250	-0.7776	25.61	-0.06	-0.750			
0.3377	21611.48	3.7220	3.7221	-0.7872	25.60	-0.07	-0.750			
0.3401	21763.93	3.7190	3.7190	-0.8016	25.60	-0.07	-0.750			
0.3425	21919.44	3.7160	3.7160	-0.8139	25.60	-0.07	-0.750			
0.3449	22076.31	3.7130	3.7130	-0.8260	25.60	-0.07	-0.750			
0.3475	22237.17	3.7100	3.7100	-0.8435	25.59	-0.08	-0.750			
0.3500	22400.33	3.7070	3.7070	-0.8544	25.59	-0.08	-0.750			
0.3526	22566.20	3.7040	3.7040	-0.8688	25.58	-0.09	-0.750			
0.3552	22734.40	3.7010	3.7011	-0.8796	25.58	-0.09	-0.750			
0.3579	22903.66	3.6980	3.6980	-0.8927	25.58	-0.09	-0.750			
0.3606	23075.68	3.6950	3.6950	-0.9092	25.58	-0.09	-0.750			
0.3633	23250.68	3.6920	3.6920	-0.9243	25.58	-0.09	-0.750			
0.3661	23429.83	3.6890	3.6889	-0.9446	25.58	-0.09	-0.750			
0.3690	23613.18	3.6860	3.6860	-0.9634	25.58	-0.09	-0.750			
0.3719	23800.35	3.6830	3.6830	-0.9861	25.57	-0.10	-0.750			
0.3749	23991.63	3.6800	3.6800	-1.0094	25.57	-0.10	-0.750			
0.3779	24187.86	3.6770	3.6770	-1.0260	25.56	-0.11	-0.750			
0.3810	24386.17	3.6740	3.6741	-1.0522	25.56	-0.11	-0.750			
0.3842	24589.70	3.6710	3.6710	-1.0775	25.55	-0.12	-0.750			
0.3875	24799.11	3.6680	3.6679	-1.1000	25.55	-0.12	-0.750			
0.3908	25011.03	3.6650	3.6650	-1.1231	25.54	-0.13	-0.750			
0.3942	25230.88	3.6620	3.6620	-1.1570	25.54	-0.13	-0.750			
0.3978	25457.62	3.6590	3.6590	-1.1803	25.53	-0.14	-0.750			
0.4014	25687.56	3.6560	3.6559	-1.2049	25.53	-0.14	-0.750			
0.4050	25918.92	3.6530	3.6532	-1.2246	25.52	-0.15	-0.750			
0.4087	26157.42	3.6500	3.6500	-1.2514	25.52	-0.15	-0.750			
0.4125	26399.93	3.6470	3.6469	-1.2783	25.52	-0.15	-0.750			
0.4164	26646.51	3.6440	3.6440	-1.3049	25.52	-0.15	-0.750			
0.4203	26899.80	3.6410	3.6410	-1.3366	25.52	-0.15	-0.750			
0.4244	27159.77	3.6380	3.6380	-1.3631	25.51	-0.16	-0.750			
0.4285	27424.02	3.6350	3.6350	-1.3898	25.50	-0.17	-0.750			
0.4327	27692.04	3.6320	3.6319	-1.4216	25.50	-0.17	-0.750			
0.4370	27968.26	3.6290	3.6290	-1.4506	25.50	-0.17	-0.750			
0.4414	28250.10	3.6260	3.6260	-1.4775	25.50	-0.17	-0.750			
0.4459	28536.30	3.6230	3.6230	-1.5085	25.49	-0.18	-0.750			
0.4505	28830.24	3.6200	3.6200	-1.5436	25.49	-0.18	-0.750			
0.4551	29129.41	3.6170	3.6170	-1.5767	25.48	-0.19	-0.750			
0.4599	29435.85	3.6140	3.6141	-1.5988	25.48	-0.19	-0.750			
0.4648	29745.95	3.6110	3.6109	-1.6266	25.47	-0.20	-0.750			
0.4697	30062.58	3.6080	3.6079	-1.6614	25.47	-0.20	-0.750			
0.4748	30384.23	3.6050	3.6050	-1.6929	25.46	-0.21	-0.750			
0.4798	30709.39	3.6020	3.6021	-1.7232	25.46	-0.21	-0.750			
0.4851	31044.95	3.5990	3.5991	-1.7547	25.46	-0.21	-0.750			
0.4904	31387.41	3.5960	3.5959	-1.7826	25.46	-0.21	-0.750			
0.4958	31732.38	3.5930	3.5930	-1.8150	25.46	-0.21	-0.750			
0.5013	32080.94	3.5900	3.5900	-1.8519	25.47	-0.20	-0.750			
0.5068	32437.68	3.5870	3.5870	-1.8990	25.47	-0.20	-0.750			
0.5126	32806.86	3.5840	3.5839	-1.9221	25.47	-0.20	-0.750			
0.5185	33181.40	3.5810	3.5810	-1.9526	25.47	-0.20	-0.750			
0.5244	33562.19	3.5780	3.5782	-1.9826	25.47	-0.20	-0.750			
0.5304	33948.64	3.5750	3.5748	-1.9978	25.47	-0.20	-0.750			
0.5364	34331.39	3.5720	3.5720	-2.0119	25.46	-0.21	-0.750	0.391	0.557	
0.5424	34716.43	3.5690	3.5692	-2.0283	25.46	-0.21	-0.750			
0.5486	35113.23	3.5660	3.5659	-2.0560	25.47	-0.20	-0.750			
0.5548	35504.33	3.5630	3.5630	-2.0663	25.48	-0.19	-0.750			
0.5610	35901.08	3.5600	3.5601	-2.0758	25.49	-0.18	-0.750			
0.5673	36308.33	3.5570	3.5571	-2.0825	25.50	-0.17	-0.750			
0.5736	36709.31	3.5540	3.5541	-2.0883	25.50	-0.17	-0.750			
0.5798	37107.06	3.5510	3.5511	-2.0754	25.50	-0.17	-0.750			
0.5860	37504.01	3.5480	3.5479	-2.0669	25.50	-0.17	-0.750			
0.5922	37900.38	3.5450	3.5450	-2.0647	25.51	-0.16	-0.750			
0.5984	38296.51	3.5420	3.5421	-2.0671	25.51	-0.16	-0.750			
0.6047	38698.91	3.5390	3.5390	-2.0588	25.52	-0.15	-0.750			
0.6109	39095.47	3.5360	3.5360	-2.0399	25.52	-0.15	-0.750			
0.6169	39481.59	3.5330	3.5331	-2.0081	25.53	-0.14	-0.750			
0.6229	39867.45	3.5300	3.5300	-1.9708	25.54	-0.13	-0.750			
0.6288	40244.47	3.5270	3.5269	-1.9283	25.56	-0.11	-0.750			
0.6345	40608.74	3.5240	3.5241	-1.8888	25.57	-0.10	-0.750			
0.6402	40971.93	3.5210	3.5209	-1.8439	25.58	-0.09	-0.750			
0.6456	41320.66	3.5180	3.5181	-1.7954	25.59	-0.08	-0.750			
0.6509	41658.03	3.5150	3.5151	-1.7539	25.59	-0.08	-0.750			
0.6561	41990.86	3.5120	3.5120	-1.7065	25.60	-0.07	-0.750			
0.6612	42314.65	3.5090	3.5090	-1.6598	25.62	-0.05	-0.750			
0.6661	42632.17	3.5060	3.5061	-1.6209	25.64	-0.03	-0.750			
0.6709	42935.76	3.5030	3.5031	-1.5669	25.65	-0.02	-0.750			
0.6756	43236.34	3.5000	3.4999	-1.5304	25.65	-0.02	-0.750			
0.6801	43524.39	3.4970	3.4971	-1.4815	25.66	-0.01	-0.750			
0.6844	43802.48	3.4940	3.4940	-1.4332	25.67	0.00	-0.750			
0.6887	44075.78	3.4910	3.4910	-1.3986	25.69	0.02	-0.750			
0.6928	44339.37	3.4880	3.4881	-1.3558	25.70	0.03	-0.750			
0.6968	44595.41	3.4850	3.4849	-1.3155	25.71	0.04	-0.750			
0.7007	44842.85	3.4820	3.4820	-1.2794	25.71	0.04	-0.750			
0.7044	45083.43	3.4790	3.4791	-1.2380	25.72	0.05	-0.750			
0.7081	45320.13	3.4760	3.4759	-1.2158	25.73	0.06	-0.750			
0.7117	45547.83	3.4730	3.4730	-1.1823	25.74	0.07	-0.750			
0.7151	45769.31	3.4700	3.4700	-1.1581	25.75	0.08	-0.750			
0.7186	45988.91	3.4670	3.4670	-1.1460	25.76	0.09	-0.750			
0.7220	46207.47	3.4640	3.4639	-1.1302	25.77	0.10	-0.750			
0.7254	46422.70	3.4610	3.4609	-1.1177	25.79	0.12	-0.750			
0.7287	46636.04	3.4580	3.4581	-1.1060	25.80	0.13	-0.750			
0.7320	46849.92	3.4550	3.4549	-1.1017	25.80	0.13	-0.750			
0.7353	47059.64	3.4520	3.4519	-1.0896	25.81	0.14	-0.750			
0.7385	47266.73	3.4490	3.4490	-1.0810	25.81	0.14	-0.750			
0.7417	47471.26	3.4460	3.4461	-1.0701	25.82	0.15	-0.750			
0.7450	47678.93	3.4430	3.4429	-1.0737	25.82	0.15	-0.750			
0.7482	47884.62	3.4400	3.4400	-1.0653	25.83	0.16	-0.750			
0.7514	48088.48	3.4370	3.4370	-1.0571	25.83	0.16	-0.750			
0.7546	48291.49	3.4340	3.4341	-1.0462	25.84	0.17	-0.750			
0.7577	48492.65	3.4310	3.4310	-1.0394	25.84	0.17	-0.750			
0.7608	48691.29	3.4280	3.4280	-1.0269	25.85	0.18	-0.750			
0.7639	48887.51	3.4250	3.4249	-1.0119	25.85	0.18	-0.750			
0.7669	49079.92	3.4220	3.4219	-0.9928	25.86	0.19	-0.750			
0.7698	49269.91	3.4190	3.4190	-0.9852	25.87	0.20	-0.750			
0.7728	49457.79	3.4160	3.4160	-0.9681	25.87	0.20	-0.750			
0.7757	49642.74	3.4130	3.4129	-0.9519	25.88	0.21	-0.750			
0.7785	49823.22	3.4100	3.4099	-0.9316	25.89	0.22	-0.750			
0.7813	50001.79	3.4070	3.4070	-0.9153	25.89	0.22	-0.750			
0.7840	50176.66	3.4040	3.4040	-0.8921	25.90	0.23	-0.750			
0.7867	50346.84	3.4010	3.4010	-0.8707	25.90	0.23	-0.750			
0.7892	50509.44	3.3980	3.3980	-0.8428	25.90	0.23	-0.750			
0.7917	50671.24	3.3950	3.3950	-0.8219	25.91	0.24	-0.750			
0.7942	50827.25	3.3920	3.3919	-0.7949	25.91	0.24	-0.750			
0.7965	50977.12	3.3890	3.3891	-0.7683	25.91	0.24	-0.750			
0.7988	51123.25	3.3860	3.3860	-0.7370	25.92	0.25	-0.750			
0.8010	51262.09	3.3830	3.3830	-0.7082	25.92	0.25	-0.750			
0.8030	51394.64	3.3800	3.3800	-0.6738	25.92	0.25	-0.750			
0.8050	51520.69	3.3770	3.3771	-0.6433	25.92	0.25	-0.750			
0.8069	51641.93	3.3740	3.3740	-0.6127	25.93	0.26	-0.750			
0.8087	51755.88	3.3710	3.3710	-0.5812	25.93	0.26	-0.750			
0.8104	51863.64	3.3680	3.3680	-0.5541	25.94	0.27	-0.750			
0.8120	51966.59	3.3650	3.3650	-0.5308	25.94	0.27	-0.750			
0.8135	52065.08	3.3620	3.3619	-0.5050	25.95	0.28	-0.750			
0.8150	52160.40	3.3590	3.3589	-0.4826	25.95	0.28	-0.750			
0.8164	52250.46	3.3560	3.3561	-0.4610	25.96	0.29	-0.750			
0.8178	52337.77	3.3530	3.3530	-0.4421	25.96	0.29	-0.750			
0.8191	52420.13	3.3500	3.3499	-0.4222	25.97	0.30	-0.750			
0.8203	52497.40	3.3470	3.3470	-0.4025	25.97	0.30	-0.750			
0.8215	52573.35	3.3440	3.3440	-0.3865	25.97	0.30	-0.750			
0.8226	52646.46	3.3410	3.3410	-0.3729	25.98	0.31	-0.750			
0.8237	52716.36	3.3380	3.3380	-0.3586	25.98	0.31	-0.750			
0.8247	52783.24	3.3350	3.3350	-0.3445	25.98	0.31	-0.750			
0.8258	52848.06	3.3320	3.3320	-0.3329	25.99	0.32	-0.750			
0.8267	52910.28	3.3290	3.3290	-0.3206	25.99	0.32	-0.750			
0.8277	52970.93	3.3260	3.3259	-0.3104	25.99	0.32	-0.750			
0.8286	53029.80	3.3230	3.3230	-0.3011	26.00	0.33	-0.750			
0.8295	53086.33	3.3200	3.3200	-0.2904	26.00	0.33	-0.750			
0.8303	53140.82	3.3170	3.3170	-0.2817	26.00	0.33	-0.750			
0.8312	53193.98	3.3140	3.3140	-0.2743	26.01	0.34	-0.750			
0.8320	53244.95	3.3110	3.3110	-0.2662	26.01	0.34	-0.750			
0.8327	53295.34	3.3080	3.3080	-0.2603	26.01	0.34	-0.750			
0.8335	53345.03	3.3050	3.3050	-0.2547	26.02	0.35	-0.750			
0.8343	53393.24	3.3020	3.3020	-0.2490	26.02	0.35	-0.750			
0.8350	53440.41	3.2990	3.2990	-0.2434	26.02	0.35	-0.750			
0.8357	53486.86	3.2960	3.2960	-0.2382	26.03	0.36	-0.750			
0.8364	53531.74	3.2930	3.2929	-0.2325	26.03	0.36	-0.750			
0.8371	53575.76	3.2900	3.2900	-0.2281	26.03	0.36	-0.750			
0.8378	53618.99	3.2870	3.2871	-0.2231	26.04	0.37	-0.750			
0.8385	53661.42	3.2840	3.2840	-0.2188	26.04	0.37	-0.750			
0.8391	53703.04	3.2810	3.2810	-0.2148	26.04	0.37	-0.750			
0.8397	53743.57	3.2780	3.2781	-0.2112	26.05	0.38	-0.750			
0.8404	53783.86	3.2750	3.2750	-0.2074	26.05	0.38	-0.750			
0.8410	53823.37	3.2720	3.2719	-0.2038	26.05	0.38	-0.750			
0.8416	53862.19	3.2690	3.2690	-0.2002	26.06	0.39	-0.750			
0.8422	53900.06	3.2660	3.2661	-0.1970	26.06	0.39	-0.750			
0.8428	53937.64	3.2630	3.2630	-0.1942	26.06	0.39	-0.750			
0.8434	53974.50	3.2600	3.2600	-0.1915	26.07	0.40	-0.750			
0.8439	54010.82	3.2570	3.2570	-0.1886	26.07	0.40	-0.750			
0.8445	54046.52	3.2540	3.2540	-0.1860	26.07	0.40	-0.750			
0.8450	54082.29	3.2510	3.2510	-0.1840	26.08	0.41	-0.750			
0.8456	54117.49	3.2480	3.2480	-0.1816	26.08	0.41	-0.750			
0.8461	54152.08	3.2450	3.2449	-0.1788	26.08	0.41	-0.750			
0.8467	54186.05	3.2420	3.2420	-0.1764	26.09	0.42	-0.750			
0.8472	54219.52	3.2390	3.2390	-0.1746	26.09	0.42	-0.750			
0.8477	54252.86	3.2360	3.2360	-0.1720	26.09	0.42	-0.750			
0.8482	54285.70	3.2330	3.2329	-0.1701	26.10	0.43	-0.750			
0.8487	54318.12	3.2300	3.2300	-0.1683	26.10	0.43	-0.750			
0.8492	54350.32	3.2270	3.2271	-0.1665	26.10	0.43	-0.750			
0.8497	54382.23	3.2240	3.2240	-0.1647	26.11	0.44	-0.750			
0.8502	54413.62	3.2210	3.2210	-0.1627	26.11	0.44	-0.750			
0.8507	54444.52	3.2180	3.2180	-0.1609	26.11	0.44	-0.750			
0.8512	54475.04	3.2150	3.2150	-0.1591	26.12	0.45	-0.750			
0.8517	54505.64	3.2120	3.2120	-0.1582	26.12	0.45	-0.750			
0.8521	54535.89	3.2090	3.2089	-0.1563	26.12	0.45	-0.750			
0.8526	54565.66	3.2060	3.2060	-0.1545	26.13	0.46	-0.750			
0.8530	54595.18	3.2030	3.2031	-0.1530	26.13	0.46	-0.750			
0.8535	54624.37	3.2000	3.2000	-0.1515	26.13	0.46	-0.750			
0.8540	54653.32	3.1970	3.1970	-0.1500	26.13	0.46	-0.750			
0.8544	54681.80	3.1940	3.1940	-0.1487	26.14	0.47	-0.750			
0.8548	54710.32	3.1910	3.1910	-0.1471	26.14	0.47	-0.750			
0.8553	54738.43	3.1880	3.1880	-0.1458	26.14	0.47	-0.750			
0.8557	54766.33	3.1850	3.1851	-0.1450	26.15	0.48	-0.750			
0.8562	54794.06	3.1820	3.1821	-0.1437	26.15	0.48	-0.750			
0.8566	54821.42	3.1790	3.1789	-0.1427	26.16	0.49	-0.750			
0.8570	54848.73	3.1760	3.1759	-0.1417	26.16	0.49	-0.750			
0.8574	54875.87	3.1730	3.1731	-0.1403	26.16	0.49	-0.750			
0.8579	54902.62	3.1700	3.1700	-0.1393	26.17	0.50	-0.750			
0.8583	54929.50	3.1670	3.1670	-0.1384	26.17	0.50	-0.750			
0.8587	54955.93	3.1640	3.1640	-0.1369	26.18	0.51	-0.750			
0.8591	54981.99	3.1610	3.1609	-0.1351	26.18	0.51	-0.750			
0.8595	55007.89	3.1580	3.1580	-0.1339	26.18	0.51	-0.750			
0.8599	55033.06	3.1550	3.1550	-0.1329	26.19	0.52	-0.750			
0.8603	55058.52	3.1520	3.1520	-0.1323	26.19	0.52	-0.750			
0.8607	55083.89	3.1490	3.1490	-0.1312	26.19	0.52	-0.750			
0.8611	55108.92	3.1460	3.1459	-0.1299	26.20	0.53	-0.750			
0.8615	55133.94	3.1430	3.1430	-0.1293	26.20	0.53	-0.750			
0.8619	55158.66	3.1400	3.1402	-0.1284	26.21	0.54	-0.750			
0.8622	55183.38	3.1370	3.1369	-0.1275	26.21	0.54	-0.750			
0.8626	55207.77	3.1340	3.1340	-0.1262	26.21	0.54	-0.750			
0.8630	55231.54	3.1310	3.1310	-0.1245	26.22	0.55	-0.750			
0.8634	55255.35	3.1280	3.1281	-0.1238	26.22	0.55	-0.750			
0.8637	55279.21	3.1250	3.1251	-0.1233	26.22	0.55	-0.750			
0.8641	55302.69	3.1220	3.1220	-0.1225	26.23	0.56	-0.750			
0.8645	55326.16	3.1190	3.1190	-0.1219	26.23	0.56	-0.750			
0.8648	55349.54	3.1160	3.1160	-0.1206	26.23	0.56	-0.750			
0.8652	55372.60	3.1130	3.1130	-0.1196	26.24	0.57	-0.750			
0.8656	55395.66	3.1100	3.1101	-0.1190	26.24	0.57	-0.750			
0.8659	55418.39	3.1070	3.1070	-0.1177	26.24	0.57	-0.750			
0.8663	55440.68	3.1040	3.1040	-0.1168	26.25	0.58	-0.750			
0.8666	55463.04	3.1010	3.1010	-0.1161	26.25	0.58	-0.750			
0.8670	55485.06	3.0980	3.0980	-0.1152	26.26	0.59	-0.750			
0.8673	55507.14	3.0950	3.0949	-0.1149	26.26	0.59	-0.750			
0.8676	55529.41	3.0920	3.0920	-0.1141	26.26	0.59	-0.750			
0.8680	55551.22	3.0890	3.0890	-0.1131	26.27	0.60	-0.750			
0.8683	55572.83	3.0860	3.0860	-0.1125	26.27	0.60	-0.750			
0.8687	55594.35	3.0830	3.0831	-0.1117	26.27	0.60	-0.750			
0.8690	55615.70	3.0800	3.0799	-0.1106	26.28	0.61	-0.750			
0.8693	55636.84	3.0770	3.0770	-0.1097	26.28	0.61	-0.750			
0.8697	55657.70	3.0740	3.0740	-0.1089	26.28	0.61	-0.750			
0.8700	55678.56	3.0710	3.0711	-0.1083	26.29	0.62	-0.750			
0.8703	55699.44	3.0680	3.0679	-0.1076	26.29	0.62	-0.750			
0.8706	55720.02	3.0650	3.0650	-0.1067	26.29	0.62	-0.750			
0.8709	55740.26	3.0620	3.0621	-0.1058	26.30	0.63	-0.750			
0.8713	55760.52	3.0590	3.0590	-0.1053	26.30	0.63	-0.750			
0.8716	55780.83	3.0560	3.0559	-0.1045	26.30	0.63	-0.750			
0.8719	55800.81	3.0530	3.0530	-0.1036	26.31	0.64	-0.750			
0.8722	55820.42	3.0500	3.0500	-0.1029	26.31	0.64	-0.750			
0.8725	55840.14	3.0470	3.0471	-0.1024	26.31	0.64	-0.750			
0.8728	55859.73	3.0440	3.0439	-0.1020	26.32	0.65	-0.750			
0.8731	55879.28	3.0410	3.0410	-0.1016	26.32	0.65	-0.750			
0.8734	55898.77	3.0380	3.0381	-0.1008	26.32	0.65	-0.750			
0.8737	55918.06	3.0350	3.0350	-0.1002	26.33	0.66	-0.750			
0.8740	55937.42	3.0320	3.0320	-0.0998	26.33	0.66	-0.750			
0.8743	55956.50	3.0290	3.0290	-0.0989	26.33	0.66	-0.750			
0.8746	55975.30	3.0260	3.0260	-0.0982	26.34	0.67	-0.750			
0.8749	55994.09	3.0230	3.0230	-0.0976	26.34	0.67	-0.750			
0.8752	56012.80	3.0200	3.0200	-0.0966	26.34	0.67	-0.750			
0.8755	56031.28	3.0170	3.0170	-0.0959	26.35	0.68	-0.750			
0.8758	56049.65	3.0140	3.0140	-0.0955	26.35	0.68	-0.750			
0.8761	56067.92	3.0110	3.0110	-0.0948	26.35	0.68	-0.750			
0.8763	56086.00	3.0080	3.0079	-0.0941	26.36	0.69	-0.750			
0.8766	56104.02	3.0050	3.0050	-0.0936	26.36	0.69	-0.750			
0.8769	56121.93	3.0020	3.0020	-0.0951	26.36	0.69	-0.750			
