Ah_balance (normalized)	Ah_balance (mAh)	Voltage - fit (V)	Voltage -  interpolate (V)	dQ/dV (1/V)	Temperature (°C)	Temperature - diff (°C)	Current (C)	R_DC 0ms (mOhm)	R_DC 50ms (mOhm)	R_DC 50 ms PEC (mOhm)
0.1992	12750.20	3.9360	3.9358	-0.1194	25.78	0.00	-0.750			
0.1997	12778.43	3.9330	3.9330	-0.1723	25.78	0.00	-0.750			
0.2003	12817.49	3.9300	3.9299	-0.2225	25.78	0.00	-0.750			
0.2010	12864.94	3.9270	3.9270	-0.2688	25.78	0.00	-0.750			
0.2019	12921.30	3.9240	3.9241	-0.3128	25.78	0.00	-0.750			
0.2029	12986.80	3.9210	3.9210	-0.3571	25.78	0.00	-0.750			
0.2041	13059.91	3.9180	3.9180	-0.3972	25.78	0.00	-0.750			
0.2053	13140.26	3.9150	3.9150	-0.4350	25.78	0.00	-0.750			
0.2067	13227.81	3.9120	3.9120	-0.4710	25.78	0.00	-0.750			
0.2082	13322.29	3.9090	3.9090	-0.5040	25.78	0.00	-0.750			
0.2097	13423.59	3.9060	3.9060	-0.5335	25.78	0.00	-0.750			
0.2114	13529.58	3.9030	3.9030	-0.5594	25.78	0.00	-0.750			
0.2131	13641.12	3.9000	3.9000	-0.5807	25.78	0.00	-0.750			
0.2149	13754.82	3.8970	3.8970	-0.5986	25.78	0.00	-0.750			
0.2168	13872.23	3.8940	3.8940	-0.6115	25.78	0.00	-0.750			
0.2186	13991.80	3.8910	3.8910	-0.6240	25.78	0.00	-0.750			
0.2205	14112.50	3.8880	3.8880	-0.6340	25.78	0.00	-0.750			
0.2224	14235.71	3.8850	3.8851	-0.6424	25.78	0.00	-0.750			
0.2244	14358.81	3.8820	3.8820	-0.6514	25.78	0.00	-0.750			
0.2263	14485.52	3.8790	3.8790	-0.6612	25.78	0.00	-0.750			
0.2283	14612.84	3.8760	3.8760	-0.6663	25.78	0.00	-0.750			
0.2304	14743.15	3.8730	3.8730	-0.6741	25.79	0.01	-0.750			
0.2324	14872.88	3.8700	3.8701	-0.6766	25.79	0.01	-0.750			
0.2344	15003.34	3.8670	3.8669	-0.6795	25.79	0.01	-0.750			
0.2365	15134.66	3.8640	3.8640	-0.6814	25.79	0.01	-0.750			
0.2385	15265.19	3.8610	3.8610	-0.6804	25.79	0.01	-0.750			
0.2406	15395.38	3.8580	3.8580	-0.6833	25.79	0.01	-0.750			
0.2426	15525.82	3.8550	3.8550	-0.6827	25.80	0.02	-0.750			
0.2447	15658.85	3.8520	3.8520	-0.6854	25.80	0.02	-0.750			
0.2467	15790.18	3.8490	3.8489	-0.6857	25.80	0.02	-0.750			
0.2488	15922.21	3.8460	3.8461	-0.6867	25.80	0.02	-0.750			
0.2509	16054.43	3.8430	3.8430	-0.6890	25.80	0.02	-0.750			
0.2529	16186.45	3.8400	3.8400	-0.6902	25.80	0.02	-0.750			
0.2550	16318.59	3.8370	3.8370	-0.6897	25.80	0.02	-0.750			
0.2571	16451.24	3.8340	3.8341	-0.6916	25.80	0.02	-0.750			
0.2591	16585.12	3.8310	3.8309	-0.6926	25.80	0.02	-0.750			
0.2612	16717.97	3.8280	3.8279	-0.6896	25.80	0.02	-0.750			
0.2633	16849.81	3.8250	3.8250	-0.6906	25.80	0.02	-0.750			
0.2653	16981.53	3.8220	3.8220	-0.6931	25.80	0.02	-0.750			
0.2674	17115.44	3.8190	3.8190	-0.6928	25.80	0.02	-0.750			
0.2695	17248.89	3.8160	3.8160	-0.6943	25.80	0.02	-0.750			
0.2716	17382.40	3.8130	3.8130	-0.6936	25.80	0.02	-0.750			
0.2737	17515.85	3.8100	3.8100	-0.6942	25.80	0.02	-0.750			
0.2758	17649.82	3.8070	3.8070	-0.6923	25.80	0.02	-0.750			
0.2778	17781.53	3.8040	3.8040	-0.6901	25.80	0.02	-0.750			
0.2799	17913.04	3.8010	3.8010	-0.6882	25.80	0.02	-0.750			
0.2820	18045.53	3.7980	3.7980	-0.6907	25.80	0.02	-0.750			
0.2840	18177.61	3.7950	3.7950	-0.6917	25.80	0.02	-0.750			
0.2861	18310.48	3.7920	3.7920	-0.6953	25.80	0.02	-0.750			
0.2882	18444.34	3.7890	3.7890	-0.6949	25.80	0.02	-0.750			
0.2903	18577.79	3.7860	3.7860	-0.7018	25.80	0.02	-0.750			
0.2924	18712.69	3.7830	3.7830	-0.7021	25.80	0.02	-0.750			
0.2945	18848.15	3.7800	3.7799	-0.7055	25.80	0.02	-0.750			
0.2966	18983.64	3.7770	3.7770	-0.7068	25.80	0.02	-0.750			
0.2987	19119.66	3.7740	3.7739	-0.7098	25.80	0.02	-0.750			
0.3009	19256.32	3.7710	3.7710	-0.7111	25.80	0.02	-0.750			
0.3030	19393.27	3.7680	3.7680	-0.7170	25.80	0.02	-0.750			
0.3052	19529.61	3.7650	3.7650	-0.7175	25.79	0.01	-0.750			
0.3073	19669.48	3.7620	3.7619	-0.7204	25.79	0.01	-0.750			
0.3095	19807.74	3.7590	3.7591	-0.7213	25.79	0.01	-0.750			
0.3116	19945.47	3.7560	3.7560	-0.7273	25.79	0.01	-0.750			
0.3138	20084.88	3.7530	3.7529	-0.7315	25.79	0.01	-0.750			
0.3160	20225.68	3.7500	3.7500	-0.7399	25.79	0.01	-0.750			
0.3182	20367.68	3.7470	3.7469	-0.7416	25.78	0.00	-0.750			
0.3205	20513.01	3.7440	3.7441	-0.7489	25.78	0.00	-0.750			
0.3228	20657.20	3.7410	3.7411	-0.7561	25.78	0.00	-0.750			
0.3250	20802.02	3.7380	3.7379	-0.7611	25.78	0.00	-0.750			
0.3273	20948.66	3.7350	3.7350	-0.7649	25.78	0.00	-0.750			
0.3296	21094.79	3.7320	3.7320	-0.7723	25.78	0.00	-0.750			
0.3320	21244.87	3.7290	3.7290	-0.7795	25.78	0.00	-0.750			
0.3343	21395.37	3.7260	3.7261	-0.7881	25.78	0.00	-0.750			
0.3367	21547.00	3.7230	3.7229	-0.7950	25.78	-0.00	-0.750			
0.3390	21698.43	3.7200	3.7200	-0.8052	25.78	-0.00	-0.750			
0.3415	21853.17	3.7170	3.7170	-0.8148	25.77	-0.01	-0.750			
0.3439	22011.15	3.7140	3.7140	-0.8288	25.77	-0.01	-0.750			
0.3464	22172.14	3.7110	3.7110	-0.8397	25.77	-0.01	-0.750			
0.3490	22335.63	3.7080	3.7080	-0.8525	25.77	-0.01	-0.750			
0.3516	22500.30	3.7050	3.7050	-0.8636	25.77	-0.01	-0.750			
0.3542	22667.52	3.7020	3.7020	-0.8748	25.76	-0.02	-0.750			
0.3568	22834.07	3.6990	3.6990	-0.8874	25.76	-0.02	-0.750			
0.3595	23006.98	3.6960	3.6960	-0.9041	25.76	-0.02	-0.750			
0.3622	23181.56	3.6930	3.6929	-0.9185	25.76	-0.02	-0.750			
0.3650	23358.41	3.6900	3.6900	-0.9404	25.75	-0.03	-0.750			
0.3678	23539.48	3.6870	3.6871	-0.9624	25.75	-0.03	-0.750			
0.3707	23726.36	3.6840	3.6839	-0.9848	25.74	-0.04	-0.750			
0.3737	23917.76	3.6810	3.6810	-1.0119	25.74	-0.04	-0.750			
0.3768	24115.43	3.6780	3.6780	-1.0324	25.73	-0.05	-0.750			
0.3800	24318.09	3.6750	3.6750	-1.0564	25.73	-0.05	-0.750			
0.3832	24522.23	3.6720	3.6720	-1.0735	25.72	-0.06	-0.750			
0.3864	24730.02	3.6690	3.6690	-1.0935	25.72	-0.06	-0.750			
0.3897	24941.40	3.6660	3.6660	-1.1139	25.71	-0.07	-0.750			
0.3931	25156.21	3.6630	3.6630	-1.1400	25.71	-0.07	-0.750			
0.3965	25376.46	3.6600	3.6600	-1.1619	25.70	-0.08	-0.750			
0.4001	25604.49	3.6570	3.6569	-1.1917	25.70	-0.08	-0.750			
0.4037	25835.61	3.6540	3.6540	-1.2193	25.70	-0.08	-0.750			
0.4074	26070.42	3.6510	3.6511	-1.2521	25.69	-0.09	-0.750			
0.4112	26313.77	3.6480	3.6480	-1.2782	25.69	-0.09	-0.750			
0.4151	26564.18	3.6450	3.6449	-1.3024	25.69	-0.09	-0.750			
0.4190	26817.32	3.6420	3.6420	-1.3213	25.68	-0.10	-0.750			
0.4230	27072.26	3.6390	3.6392	-1.3449	25.68	-0.10	-0.750			
0.4271	27333.47	3.6360	3.6360	-1.3819	25.68	-0.10	-0.750			
0.4312	27597.72	3.6330	3.6330	-1.4032	25.67	-0.11	-0.750			
0.4355	27871.15	3.6300	3.6300	-1.4367	25.67	-0.11	-0.750			
0.4399	28150.44	3.6270	3.6270	-1.4797	25.66	-0.12	-0.750			
0.4444	28439.99	3.6240	3.6240	-1.5105	25.65	-0.13	-0.750			
0.4490	28736.00	3.6210	3.6210	-1.5396	25.65	-0.13	-0.750			
0.4537	29033.92	3.6180	3.6179	-1.5655	25.65	-0.13	-0.750			
0.4584	29335.97	3.6150	3.6150	-1.5891	25.64	-0.14	-0.750			
0.4632	29642.18	3.6120	3.6119	-1.6243	25.64	-0.14	-0.750			
0.4681	29956.56	3.6090	3.6091	-1.6694	25.64	-0.14	-0.750			
0.4731	30280.24	3.6060	3.6059	-1.6942	25.64	-0.14	-0.750			
0.4783	30609.82	3.6030	3.6032	-1.7347	25.64	-0.14	-0.750			
0.4836	30950.73	3.6000	3.6000	-1.7682	25.64	-0.14	-0.750			
0.4889	31289.98	3.5970	3.5971	-1.8078	25.63	-0.15	-0.750			
0.4944	31643.24	3.5940	3.5941	-1.8202	25.62	-0.16	-0.750			
0.4999	31996.30	3.5910	3.5909	-1.8505	25.62	-0.16	-0.750			
0.5055	32349.26	3.5880	3.5882	-1.8802	25.63	-0.15	-0.750			
0.5112	32718.13	3.5850	3.5849	-1.9064	25.63	-0.15	-0.750			
0.5169	33081.83	3.5820	3.5820	-1.9439	25.62	-0.16	-0.750			
0.5228	33458.37	3.5790	3.5790	-1.9594	25.62	-0.16	-0.750			
0.5288	33841.89	3.5760	3.5758	-2.0021	25.62	-0.16	-0.750			
0.5348	34224.80	3.5730	3.5732	-2.0323	25.62	-0.16	-0.750			
0.5409	34620.74	3.5700	3.5699	-2.0427	25.62	-0.16	-0.750	0.382	0.560	
0.5472	35017.88	3.5670	3.5669	-2.0705	25.62	-0.16	-0.750			
0.5533	35412.88	3.5640	3.5642	-2.0768	25.62	-0.16	-0.750			
0.5597	35818.28	3.5610	3.5609	-2.0791	25.61	-0.17	-0.750			
0.5659	36217.08	3.5580	3.5580	-2.0817	25.61	-0.17	-0.750			
0.5721	36614.63	3.5550	3.5551	-2.0799	25.62	-0.16	-0.750			
0.5784	37016.12	3.5520	3.5519	-2.0782	25.62	-0.16	-0.750			
0.5846	37415.06	3.5490	3.5489	-2.0843	25.62	-0.16	-0.750			
0.5909	37815.06	3.5460	3.5460	-2.0793	25.63	-0.15	-0.750			
0.5971	38216.14	3.5430	3.5430	-2.0639	25.64	-0.14	-0.750			
0.6034	38614.48	3.5400	3.5400	-2.0518	25.65	-0.13	-0.750			
0.6094	39002.96	3.5370	3.5370	-2.0391	25.67	-0.11	-0.750			
0.6155	39393.17	3.5340	3.5340	-2.0147	25.68	-0.10	-0.750			
0.6215	39777.77	3.5310	3.5309	-1.9898	25.70	-0.08	-0.750			
0.6275	40161.26	3.5280	3.5281	-1.9673	25.71	-0.07	-0.750			
0.6334	40538.84	3.5250	3.5249	-1.9224	25.73	-0.05	-0.750			
0.6391	40902.75	3.5220	3.5220	-1.8789	25.74	-0.04	-0.750			
0.6447	41259.32	3.5190	3.5190	-1.8194	25.75	-0.03	-0.750			
0.6501	41603.35	3.5160	3.5159	-1.7905	25.77	-0.01	-0.750			
0.6553	41941.48	3.5130	3.5130	-1.7439	25.79	0.01	-0.750			
0.6605	42272.65	3.5100	3.5100	-1.6981	25.81	0.03	-0.750			
0.6656	42596.96	3.5070	3.5072	-1.6576	25.83	0.05	-0.750			
0.6705	42912.95	3.5040	3.5039	-1.6128	25.84	0.06	-0.750			
0.6753	43217.08	3.5010	3.5010	-1.5599	25.86	0.08	-0.750			
0.6799	43512.62	3.4980	3.4980	-1.5089	25.87	0.09	-0.750			
0.6843	43792.79	3.4950	3.4950	-1.4560	25.89	0.11	-0.750			
0.6886	44071.03	3.4920	3.4920	-1.4169	25.90	0.12	-0.750			
0.6928	44338.33	3.4890	3.4890	-1.3699	25.92	0.14	-0.750			
0.6968	44595.83	3.4860	3.4860	-1.3262	25.93	0.15	-0.750			
0.7007	44845.37	3.4830	3.4830	-1.2894	25.94	0.16	-0.750			
0.7045	45089.48	3.4800	3.4800	-1.2563	25.95	0.17	-0.750			
0.7082	45326.88	3.4770	3.4769	-1.2227	25.96	0.18	-0.750			
0.7118	45557.50	3.4740	3.4740	-1.1923	25.97	0.19	-0.750			
0.7154	45783.53	3.4710	3.4710	-1.1686	25.98	0.20	-0.750			
0.7188	46005.24	3.4680	3.4680	-1.1461	25.99	0.21	-0.750			
0.7222	46221.75	3.4650	3.4651	-1.1225	26.00	0.22	-0.750			
0.7255	46433.95	3.4620	3.4620	-1.1128	26.01	0.23	-0.750			
0.7288	46645.04	3.4590	3.4589	-1.1013	26.02	0.24	-0.750			
0.7321	46856.35	3.4560	3.4560	-1.0928	26.02	0.24	-0.750			
0.7354	47063.55	3.4530	3.4531	-1.0890	26.03	0.25	-0.750			
0.7386	47273.54	3.4500	3.4500	-1.0832	26.04	0.26	-0.750			
0.7419	47482.16	3.4470	3.4470	-1.0782	26.05	0.27	-0.750			
0.7451	47687.49	3.4440	3.4439	-1.0745	26.05	0.27	-0.750			
0.7483	47893.63	3.4410	3.4411	-1.0679	26.06	0.28	-0.750			
0.7515	48098.97	3.4380	3.4380	-1.0625	26.07	0.29	-0.750			
0.7547	48303.29	3.4350	3.4350	-1.0541	26.07	0.29	-0.750			
0.7579	48502.96	3.4320	3.4321	-1.0408	26.08	0.30	-0.750			
0.7610	48703.12	3.4290	3.4290	-1.0381	26.08	0.30	-0.750			
0.7641	48901.49	3.4260	3.4260	-1.0234	26.09	0.31	-0.750			
0.7671	49097.23	3.4230	3.4230	-1.0072	26.10	0.32	-0.750			
0.7702	49290.02	3.4200	3.4200	-0.9963	26.10	0.32	-0.750			
0.7731	49481.08	3.4170	3.4171	-0.9784	26.11	0.33	-0.750			
0.7761	49667.65	3.4140	3.4140	-0.9606	26.12	0.34	-0.750			
0.7789	49850.18	3.4110	3.4110	-0.9396	26.13	0.35	-0.750			
0.7817	50028.66	3.4080	3.4080	-0.9187	26.13	0.35	-0.750			
0.7844	50204.04	3.4050	3.4050	-0.9018	26.14	0.36	-0.750			
0.7871	50374.67	3.4020	3.4020	-0.8795	26.14	0.36	-0.750			
0.7897	50541.57	3.3990	3.3990	-0.8576	26.15	0.37	-0.750			
0.7923	50705.90	3.3960	3.3959	-0.8334	26.15	0.37	-0.750			
0.7948	50864.35	3.3930	3.3930	-0.8043	26.16	0.38	-0.750			
0.7971	51017.54	3.3900	3.3901	-0.7747	26.16	0.38	-0.750			
0.7994	51163.01	3.3870	3.3869	-0.7397	26.16	0.38	-0.750			
0.8016	51301.13	3.3840	3.3840	-0.7042	26.17	0.39	-0.750			
0.8036	51432.27	3.3810	3.3810	-0.6736	26.17	0.39	-0.750			
0.8056	51557.31	3.3780	3.3779	-0.6441	26.17	0.39	-0.750			
0.8075	51679.18	3.3750	3.3750	-0.6172	26.18	0.40	-0.750			
0.8093	51794.63	3.3720	3.3720	-0.5886	26.18	0.40	-0.750			
0.8110	51905.47	3.3690	3.3690	-0.5622	26.18	0.40	-0.750			
0.8127	52010.88	3.3660	3.3660	-0.5361	26.19	0.41	-0.750			
0.8142	52110.21	3.3630	3.3630	-0.5113	26.19	0.41	-0.750			
0.8157	52205.58	3.3600	3.3600	-0.4849	26.19	0.41	-0.750			
0.8171	52296.12	3.3570	3.3570	-0.4623	26.20	0.42	-0.750			
0.8185	52382.65	3.3540	3.3541	-0.4422	26.20	0.42	-0.750			
0.8198	52465.33	3.3510	3.3509	-0.4220	26.20	0.42	-0.750			
0.8210	52543.96	3.3480	3.3479	-0.4036	26.21	0.43	-0.750			
0.8222	52619.34	3.3450	3.3450	-0.3863	26.21	0.43	-0.750			
0.8233	52691.03	3.3420	3.3420	-0.3705	26.21	0.43	-0.750			
0.8244	52761.12	3.3390	3.3391	-0.3583	26.22	0.44	-0.750			
0.8254	52827.94	3.3360	3.3359	-0.3440	26.22	0.44	-0.750			
0.8264	52892.72	3.3330	3.3330	-0.3310	26.23	0.45	-0.750			
0.8274	52954.87	3.3300	3.3300	-0.3196	26.23	0.45	-0.750			
0.8284	53014.82	3.3270	3.3270	-0.3089	26.23	0.45	-0.750			
0.8293	53072.96	3.3240	3.3240	-0.2990	26.24	0.46	-0.750			
0.8301	53129.22	3.3210	3.3210	-0.2898	26.24	0.46	-0.750			
0.8310	53183.43	3.3180	3.3181	-0.2817	26.24	0.46	-0.750			
0.8318	53236.99	3.3150	3.3150	-0.2758	26.25	0.47	-0.750			
0.8326	53289.39	3.3120	3.3120	-0.2693	26.25	0.47	-0.750			
0.8334	53340.43	3.3090	3.3089	-0.2621	26.25	0.47	-0.750			
0.8342	53390.22	3.3060	3.3060	-0.2555	26.26	0.48	-0.750			
0.8350	53438.64	3.3030	3.3031	-0.2485	26.26	0.48	-0.750			
0.8357	53485.58	3.3000	3.3000	-0.2424	26.26	0.48	-0.750			
0.8364	53531.38	3.2970	3.2970	-0.2367	26.27	0.49	-0.750			
0.8371	53575.64	3.2940	3.2939	-0.2309	26.27	0.49	-0.750			
0.8378	53619.32	3.2910	3.2910	-0.2261	26.27	0.49	-0.750			
0.8385	53662.27	3.2880	3.2880	-0.2215	26.28	0.50	-0.750			
0.8391	53704.34	3.2850	3.2851	-0.2173	26.28	0.50	-0.750			
0.8398	53745.47	3.2820	3.2820	-0.2136	26.28	0.50	-0.750			
0.8404	53786.14	3.2790	3.2790	-0.2100	26.29	0.51	-0.750			
0.8410	53825.95	3.2760	3.2760	-0.2063	26.29	0.51	-0.750			
0.8416	53865.10	3.2730	3.2730	-0.2032	26.29	0.51	-0.750			
0.8422	53903.78	3.2700	3.2700	-0.2000	26.30	0.52	-0.750			
0.8428	53941.93	3.2670	3.2670	-0.1973	26.30	0.52	-0.750			
0.8434	53979.60	3.2640	3.2640	-0.1950	26.30	0.52	-0.750			
0.8440	54016.89	3.2610	3.2610	-0.1918	26.30	0.52	-0.750			
0.8446	54053.29	3.2580	3.2581	-0.1887	26.31	0.53	-0.750			
0.8451	54089.25	3.2550	3.2549	-0.1859	26.31	0.53	-0.750			
0.8457	54124.73	3.2520	3.2521	-0.1835	26.31	0.53	-0.750			
0.8462	54159.54	3.2490	3.2490	-0.1806	26.31	0.53	-0.750			
0.8468	54193.93	3.2460	3.2460	-0.1781	26.32	0.54	-0.750			
0.8473	54227.90	3.2430	3.2429	-0.1757	26.32	0.54	-0.750			
0.8478	54261.19	3.2400	3.2400	-0.1735	26.32	0.54	-0.750			
0.8484	54294.41	3.2370	3.2370	-0.1719	26.33	0.55	-0.750			
0.8489	54327.22	3.2340	3.2340	-0.1698	26.33	0.55	-0.750			
0.8494	54359.59	3.2310	3.2310	-0.1672	26.33	0.55	-0.750			
0.8499	54391.25	3.2280	3.2280	-0.1658	26.34	0.56	-0.750			
0.8504	54422.90	3.2250	3.2250	-0.1643	26.34	0.56	-0.750			
0.8508	54454.31	3.2220	3.2220	-0.1629	26.34	0.56	-0.750			
0.8513	54485.50	3.2190	3.2189	-0.1612	26.35	0.57	-0.750			
0.8518	54516.30	3.2160	3.2161	-0.1593	26.35	0.57	-0.750			
0.8523	54546.82	3.2130	3.2131	-0.1578	26.36	0.58	-0.750			
0.8528	54576.94	3.2100	3.2100	-0.1559	26.36	0.58	-0.750			
0.8532	54606.87	3.2070	3.2070	-0.1546	26.36	0.58	-0.750			
0.8537	54635.96	3.2040	3.2039	-0.1524	26.37	0.59	-0.750			
0.8541	54665.15	3.2010	3.2010	-0.1512	26.37	0.59	-0.750			
0.8546	54694.06	3.1980	3.1980	-0.1499	26.37	0.59	-0.750			
0.8550	54722.91	3.1950	3.1950	-0.1480	26.37	0.59	-0.750			
0.8555	54751.14	3.1920	3.1920	-0.1466	26.38	0.60	-0.750			
0.8559	54778.96	3.1890	3.1891	-0.1452	26.38	0.60	-0.750			
0.8564	54806.70	3.1860	3.1860	-0.1438	26.38	0.60	-0.750			
0.8568	54834.04	3.1830	3.1829	-0.1424	26.39	0.61	-0.750			
0.8572	54861.17	3.1800	3.1800	-0.1412	26.39	0.61	-0.750			
0.8576	54888.19	3.1770	3.1771	-0.1404	26.39	0.61	-0.750			
0.8580	54915.07	3.1740	3.1740	-0.1396	26.40	0.62	-0.750			
0.8585	54941.99	3.1710	3.1710	-0.1387	26.40	0.62	-0.750			
0.8589	54968.49	3.1680	3.1679	-0.1372	26.40	0.62	-0.750			
0.8593	54994.73	3.1650	3.1650	-0.1358	26.41	0.63	-0.750			
0.8597	55020.68	3.1620	3.1621	-0.1345	26.41	0.63	-0.750			
0.8601	55046.48	3.1590	3.1590	-0.1332	26.41	0.63	-0.750			
0.8605	55071.71	3.1560	3.1559	-0.1320	26.42	0.64	-0.750			
0.8609	55096.81	3.1530	3.1530	-0.1307	26.42	0.64	-0.750			
0.8613	55121.78	3.1500	3.1500	-0.1304	26.42	0.64	-0.750			
0.8617	55146.80	3.1470	3.1470	-0.1295	26.43	0.65	-0.750			
0.8621	55171.66	3.1440	3.1441	-0.1290	26.43	0.65	-0.750			
0.8624	55196.58	3.1410	3.1409	-0.1282	26.43	0.65	-0.750			
0.8628	55221.07	3.1380	3.1381	-0.1270	26.44	0.66	-0.750			
0.8632	55245.51	3.1350	3.1350	-0.1260	26.44	0.66	-0.750			
0.8636	55269.56	3.1320	3.1320	-0.1245	26.44	0.66	-0.750			
0.8640	55293.22	3.1290	3.1289	-0.1236	26.45	0.67	-0.750			
0.8643	55316.74	3.1260	3.1261	-0.1222	26.45	0.67	-0.750			
0.8647	55340.12	3.1230	3.1229	-0.1214	26.45	0.67	-0.750			
0.8651	55363.31	3.1200	3.1200	-0.1207	26.46	0.68	-0.750			
0.8654	55386.40	3.1170	3.1170	-0.1199	26.46	0.68	-0.750			
0.8658	55409.41	3.1140	3.1140	-0.1189	26.46	0.68	-0.750			
0.8661	55432.19	3.1110	3.1110	-0.1180	26.47	0.69	-0.750			
0.8665	55454.69	3.1080	3.1079	-0.1171	26.47	0.69	-0.750			
0.8668	55477.02	3.1050	3.1050	-0.1161	26.47	0.69	-0.750			
0.8672	55499.18	3.1020	3.1021	-0.1155	26.48	0.70	-0.750			
0.8675	55521.31	3.0990	3.0989	-0.1148	26.48	0.70	-0.750			
0.8679	55543.28	3.0960	3.0961	-0.1142	26.48	0.70	-0.750			
0.8682	55565.00	3.0930	3.0930	-0.1133	26.48	0.70	-0.750			
0.8685	55586.81	3.0900	3.0901	-0.1126	26.49	0.71	-0.750			
0.8689	55608.51	3.0870	3.0871	-0.1122	26.49	0.71	-0.750			
0.8692	55630.04	3.0840	3.0839	-0.1110	26.49	0.71	-0.750			
0.8696	55651.36	3.0810	3.0810	-0.1101	26.50	0.72	-0.750			
0.8699	55672.27	3.0780	3.0780	-0.1092	26.50	0.72	-0.750			
0.8702	55693.10	3.0750	3.0750	-0.1082	26.50	0.72	-0.750			
0.8705	55713.78	3.0720	3.0720	-0.1072	26.51	0.73	-0.750			
0.8708	55734.11	3.0690	3.0689	-0.1066	26.51	0.73	-0.750			
0.8712	55754.53	3.0660	3.0660	-0.1061	26.51	0.73	-0.750			
0.8715	55774.86	3.0630	3.0630	-0.1052	26.51	0.73	-0.750			
0.8718	55794.98	3.0600	3.0601	-0.1047	26.52	0.74	-0.750			
0.8721	55815.13	3.0570	3.0570	-0.1043	26.52	0.74	-0.750			
0.8724	55835.06	3.0540	3.0541	-0.1037	26.52	0.74	-0.750			
0.8727	55854.85	3.0510	3.0509	-0.1030	26.52	0.74	-0.750			
0.8730	55874.64	3.0480	3.0480	-0.1023	26.52	0.74	-0.750			
0.8733	55894.19	3.0450	3.0450	-0.1016	26.53	0.75	-0.750			
0.8737	55913.62	3.0420	3.0421	-0.1010	26.53	0.75	-0.750			
0.8740	55933.04	3.0390	3.0390	-0.1006	26.53	0.75	-0.750			
0.8743	55952.29	3.0360	3.0360	-0.0998	26.53	0.75	-0.750			
0.8746	55971.32	3.0330	3.0330	-0.0989	26.53	0.75	-0.750			
0.8748	55990.24	3.0300	3.0300	-0.0982	26.54	0.76	-0.750			
0.8751	56008.96	3.0270	3.0270	-0.0977	26.54	0.76	-0.750			
0.8754	56027.67	3.0240	3.0240	-0.0972	26.54	0.76	-0.750			
0.8757	56046.37	3.0210	3.0210	-0.0965	26.54	0.76	-0.750			
0.8760	56064.83	3.0180	3.0179	-0.0958	26.54	0.76	-0.750			
0.8763	56083.17	3.0150	3.0150	-0.0948	26.55	0.77	-0.750			
0.8766	56101.29	3.0120	3.0121	-0.0939	26.55	0.77	-0.750			
0.8769	56119.42	3.0090	3.0090	-0.0928	26.55	0.77	-0.750			
0.8771	56137.11	3.0060	3.0061	-0.0914	26.55	0.77	-0.750			
0.8774	56154.55	3.0030	3.0030	-0.0906	26.55	0.77	-0.750			
