Ah_balance (normalized)	Ah_balance (mAh)	Voltage - fit (V)	Voltage -  interpolate (V)	dQ/dV (1/V)	Temperature (°C)	Temperature - diff (°C)	Current (C)	R_DC 0ms (mOhm)	R_DC 50ms (mOhm)	R_DC 50 ms PEC (mOhm)
0.1978	12658.91	3.9360	3.9358	-0.1207	25.36	0.00	-0.750			
0.1982	12687.77	3.9330	3.9328	-0.1723	25.36	0.00	-0.750			
0.1988	12726.34	3.9300	3.9299	-0.2177	25.36	-0.00	-0.750			
0.1996	12772.02	3.9270	3.9269	-0.2604	25.36	-0.00	-0.750			
0.2004	12825.54	3.9240	3.9241	-0.3068	25.36	-0.00	-0.750			
0.2014	12888.94	3.9210	3.9211	-0.3512	25.36	-0.00	-0.750			
0.2025	12960.98	3.9180	3.9179	-0.3936	25.35	-0.01	-0.750			
0.2038	13040.92	3.9150	3.9150	-0.4342	25.35	-0.01	-0.750			
0.2052	13129.74	3.9120	3.9121	-0.4727	25.35	-0.01	-0.750			
0.2066	13224.77	3.9090	3.9091	-0.5064	25.35	-0.01	-0.750			
0.2082	13327.02	3.9060	3.9060	-0.5337	25.34	-0.02	-0.750			
0.2099	13432.42	3.9030	3.9031	-0.5567	25.34	-0.02	-0.750			
0.2116	13542.71	3.9000	3.9001	-0.5784	25.34	-0.02	-0.750			
0.2134	13655.66	3.8970	3.8970	-0.5973	25.33	-0.03	-0.750			
0.2152	13773.14	3.8940	3.8940	-0.6121	25.33	-0.03	-0.750			
0.2171	13891.82	3.8910	3.8910	-0.6274	25.33	-0.03	-0.750			
0.2190	14014.79	3.8880	3.8880	-0.6383	25.32	-0.04	-0.750			
0.2209	14138.91	3.8850	3.8850	-0.6487	25.32	-0.04	-0.750			
0.2229	14265.08	3.8820	3.8820	-0.6546	25.31	-0.05	-0.750			
0.2249	14391.15	3.8790	3.8790	-0.6603	25.31	-0.05	-0.750			
0.2268	14518.18	3.8760	3.8760	-0.6671	25.31	-0.05	-0.750			
0.2289	14647.21	3.8730	3.8729	-0.6730	25.31	-0.05	-0.750			
0.2309	14777.41	3.8700	3.8700	-0.6748	25.31	-0.05	-0.750			
0.2329	14908.00	3.8670	3.8671	-0.6795	25.31	-0.05	-0.750			
0.2350	15038.98	3.8640	3.8640	-0.6815	25.31	-0.05	-0.750			
0.2370	15170.63	3.8610	3.8610	-0.6826	25.31	-0.05	-0.750			
0.2391	15300.89	3.8580	3.8579	-0.6843	25.31	-0.05	-0.750			
0.2411	15431.91	3.8550	3.8550	-0.6876	25.31	-0.05	-0.750			
0.2432	15564.79	3.8520	3.8520	-0.6897	25.32	-0.04	-0.750			
0.2453	15697.56	3.8490	3.8490	-0.6926	25.32	-0.04	-0.750			
0.2474	15831.21	3.8460	3.8460	-0.6925	25.32	-0.04	-0.750			
0.2495	15965.15	3.8430	3.8430	-0.6910	25.32	-0.04	-0.750			
0.2515	16097.13	3.8400	3.8400	-0.6914	25.32	-0.04	-0.750			
0.2536	16228.87	3.8370	3.8370	-0.6907	25.32	-0.04	-0.750			
0.2556	16361.42	3.8340	3.8340	-0.6906	25.32	-0.04	-0.750			
0.2577	16494.39	3.8310	3.8309	-0.6930	25.32	-0.04	-0.750			
0.2598	16627.76	3.8280	3.8281	-0.6932	25.32	-0.04	-0.750			
0.2619	16761.91	3.8250	3.8250	-0.6939	25.32	-0.04	-0.750			
0.2640	16895.79	3.8220	3.8220	-0.6959	25.32	-0.04	-0.750			
0.2661	17028.54	3.8190	3.8190	-0.6930	25.32	-0.04	-0.750			
0.2681	17161.20	3.8160	3.8160	-0.6913	25.33	-0.03	-0.750			
0.2702	17294.00	3.8130	3.8130	-0.6904	25.33	-0.03	-0.750			
0.2723	17426.31	3.8100	3.8100	-0.6874	25.33	-0.03	-0.750			
0.2743	17557.33	3.8070	3.8071	-0.6888	25.33	-0.03	-0.750			
0.2764	17688.87	3.8040	3.8040	-0.6913	25.33	-0.03	-0.750			
0.2785	17821.23	3.8010	3.8009	-0.6939	25.33	-0.03	-0.750			
0.2806	17956.99	3.7980	3.7980	-0.6933	25.33	-0.03	-0.750			
0.2827	18089.96	3.7950	3.7951	-0.6961	25.33	-0.03	-0.750			
0.2848	18224.27	3.7920	3.7920	-0.6984	25.33	-0.03	-0.750			
0.2868	18358.38	3.7890	3.7890	-0.6990	25.33	-0.03	-0.750			
0.2889	18490.57	3.7860	3.7858	-0.6941	25.33	-0.03	-0.750			
0.2910	18623.36	3.7830	3.7830	-0.6995	25.34	-0.02	-0.750			
0.2931	18758.76	3.7800	3.7801	-0.7036	25.34	-0.02	-0.750			
0.2952	18894.65	3.7770	3.7770	-0.7098	25.34	-0.02	-0.750			
0.2974	19030.98	3.7740	3.7739	-0.7095	25.35	-0.01	-0.750			
0.2995	19168.52	3.7710	3.7710	-0.7136	25.35	-0.01	-0.750			
0.3017	19305.66	3.7680	3.7680	-0.7153	25.35	-0.01	-0.750			
0.3038	19442.89	3.7650	3.7650	-0.7202	25.35	-0.01	-0.750			
0.3060	19580.85	3.7620	3.7620	-0.7199	25.36	-0.00	-0.750			
0.3081	19719.79	3.7590	3.7590	-0.7255	25.36	-0.00	-0.750			
0.3103	19859.08	3.7560	3.7560	-0.7257	25.36	-0.00	-0.750			
0.3125	19999.05	3.7530	3.7530	-0.7309	25.36	-0.00	-0.750			
0.3147	20139.21	3.7500	3.7500	-0.7357	25.36	-0.00	-0.750			
0.3169	20280.19	3.7470	3.7469	-0.7427	25.36	-0.00	-0.750			
0.3191	20422.86	3.7440	3.7440	-0.7472	25.35	-0.01	-0.750			
0.3214	20568.47	3.7410	3.7409	-0.7564	25.35	-0.01	-0.750			
0.3237	20714.17	3.7380	3.7381	-0.7627	25.35	-0.01	-0.750			
0.3260	20861.91	3.7350	3.7350	-0.7704	25.35	-0.01	-0.750			
0.3283	21009.19	3.7320	3.7320	-0.7795	25.35	-0.01	-0.750			
0.3306	21160.16	3.7290	3.7290	-0.7862	25.36	-0.00	-0.750			
0.3330	21311.87	3.7260	3.7259	-0.7929	25.36	-0.00	-0.750			
0.3354	21464.77	3.7230	3.7231	-0.8021	25.36	-0.00	-0.750			
0.3378	21619.62	3.7200	3.7200	-0.8098	25.36	0.00	-0.750			
0.3402	21775.00	3.7170	3.7170	-0.8171	25.36	0.00	-0.750			
0.3427	21931.72	3.7140	3.7140	-0.8261	25.36	0.00	-0.750			
0.3452	22090.87	3.7110	3.7110	-0.8366	25.36	0.00	-0.750			
0.3477	22254.10	3.7080	3.7080	-0.8537	25.36	0.00	-0.750			
0.3503	22419.12	3.7050	3.7051	-0.8645	25.36	-0.00	-0.750			
0.3529	22585.58	3.7020	3.7020	-0.8813	25.36	-0.00	-0.750			
0.3556	22756.65	3.6990	3.6990	-0.8981	25.35	-0.01	-0.750			
0.3583	22930.16	3.6960	3.6960	-0.9114	25.35	-0.01	-0.750			
0.3610	23106.76	3.6930	3.6932	-0.9274	25.35	-0.01	-0.750			
0.3639	23286.65	3.6900	3.6899	-0.9465	25.35	-0.01	-0.750			
0.3667	23469.82	3.6870	3.6871	-0.9613	25.35	-0.01	-0.750			
0.3696	23655.20	3.6840	3.6840	-0.9816	25.35	-0.01	-0.750			
0.3726	23844.93	3.6810	3.6810	-1.0047	25.35	-0.01	-0.750			
0.3756	24039.43	3.6780	3.6780	-1.0302	25.35	-0.01	-0.750			
0.3788	24240.53	3.6750	3.6749	-1.0521	25.35	-0.01	-0.750			
0.3819	24444.63	3.6720	3.6720	-1.0728	25.34	-0.02	-0.750			
0.3852	24652.44	3.6690	3.6691	-1.0939	25.34	-0.02	-0.750			
0.3885	24865.78	3.6660	3.6660	-1.1242	25.34	-0.02	-0.750			
0.3919	25082.92	3.6630	3.6629	-1.1444	25.34	-0.02	-0.750			
0.3954	25304.77	3.6600	3.6599	-1.1641	25.33	-0.03	-0.750			
0.3989	25529.66	3.6570	3.6572	-1.1913	25.33	-0.03	-0.750			
0.4025	25762.97	3.6540	3.6540	-1.2220	25.33	-0.03	-0.750			
0.4062	25998.95	3.6510	3.6510	-1.2418	25.33	-0.03	-0.750			
0.4099	26236.75	3.6480	3.6480	-1.2705	25.33	-0.03	-0.750			
0.4138	26484.70	3.6450	3.6451	-1.3004	25.33	-0.03	-0.750			
0.4178	26737.61	3.6420	3.6419	-1.3285	25.32	-0.04	-0.750			
0.4218	26995.18	3.6390	3.6390	-1.3654	25.31	-0.05	-0.750			
0.4259	27260.06	3.6360	3.6360	-1.3938	25.31	-0.05	-0.750			
0.4302	27531.99	3.6330	3.6329	-1.4242	25.31	-0.05	-0.750			
0.4345	27809.02	3.6300	3.6300	-1.4562	25.31	-0.05	-0.750			
0.4389	28088.64	3.6270	3.6270	-1.4823	25.31	-0.05	-0.750			
0.4434	28377.89	3.6240	3.6238	-1.5113	25.31	-0.05	-0.750			
0.4479	28668.12	3.6210	3.6211	-1.5445	25.31	-0.05	-0.750			
0.4526	28968.37	3.6180	3.6180	-1.5639	25.31	-0.05	-0.750			
0.4574	29275.74	3.6150	3.6148	-1.6007	25.30	-0.06	-0.750			
0.4623	29585.36	3.6120	3.6121	-1.6263	25.30	-0.06	-0.750			
0.4671	29897.41	3.6090	3.6090	-1.6611	25.30	-0.06	-0.750			
0.4722	30220.12	3.6060	3.6060	-1.6983	25.29	-0.07	-0.750			
0.4773	30549.09	3.6030	3.6029	-1.7256	25.29	-0.07	-0.750			
0.4826	30885.94	3.6000	3.6002	-1.7568	25.30	-0.06	-0.750			
0.4879	31228.79	3.5970	3.5970	-1.7978	25.30	-0.06	-0.750			
0.4933	31572.99	3.5940	3.5940	-1.8299	25.29	-0.07	-0.750			
0.4989	31926.73	3.5910	3.5911	-1.8599	25.29	-0.07	-0.750			
0.5045	32287.90	3.5880	3.5879	-1.8945	25.29	-0.07	-0.750			
0.5102	32654.38	3.5850	3.5851	-1.9284	25.30	-0.06	-0.750			
0.5161	33029.67	3.5820	3.5820	-1.9541	25.30	-0.06	-0.750			
0.5221	33411.48	3.5790	3.5790	-1.9813	25.31	-0.05	-0.750			
0.5279	33787.41	3.5760	3.5761	-2.0015	25.31	-0.05	-0.750			
0.5340	34178.59	3.5730	3.5730	-2.0129	25.31	-0.05	-0.750			
0.5400	34561.70	3.5700	3.5701	-2.0372	25.31	-0.05	-0.750	0.391	0.560	
0.5462	34958.02	3.5670	3.5669	-2.0526	25.32	-0.04	-0.750			
0.5525	35356.94	3.5640	3.5639	-2.0698	25.32	-0.04	-0.750			
0.5586	35752.62	3.5610	3.5612	-2.0944	25.32	-0.04	-0.750			
0.5650	36162.18	3.5580	3.5579	-2.1029	25.33	-0.03	-0.750			
0.5714	36568.44	3.5550	3.5548	-2.0956	25.34	-0.02	-0.750			
0.5776	36963.65	3.5520	3.5522	-2.0924	25.35	-0.01	-0.750			
0.5839	37371.55	3.5490	3.5490	-2.1034	25.36	-0.00	-0.750			
0.5902	37774.72	3.5460	3.5459	-2.1034	25.36	0.00	-0.750			
0.5964	38171.04	3.5430	3.5431	-2.1013	25.37	0.01	-0.750			
0.6029	38583.64	3.5400	3.5400	-2.0745	25.38	0.02	-0.750			
0.6091	38983.13	3.5370	3.5369	-2.0516	25.40	0.04	-0.750			
0.6152	39370.51	3.5340	3.5341	-2.0200	25.41	0.05	-0.750			
0.6212	39755.56	3.5310	3.5310	-1.9714	25.42	0.06	-0.750			
0.6271	40131.77	3.5280	3.5279	-1.9327	25.44	0.08	-0.750			
0.6327	40493.15	3.5250	3.5252	-1.9007	25.44	0.08	-0.750			
0.6384	40859.20	3.5220	3.5219	-1.8689	25.46	0.10	-0.750			
0.6440	41218.57	3.5190	3.5189	-1.8281	25.48	0.12	-0.750			
0.6494	41563.21	3.5160	3.5161	-1.7844	25.49	0.13	-0.750			
0.6548	41905.77	3.5130	3.5128	-1.7434	25.50	0.14	-0.750			
0.6599	42233.26	3.5100	3.5099	-1.6887	25.52	0.16	-0.750			
0.6649	42554.78	3.5070	3.5069	-1.6443	25.53	0.17	-0.750			
0.6697	42858.78	3.5040	3.5039	-1.5917	25.53	0.17	-0.750			
0.6744	43162.71	3.5010	3.5010	-1.5448	25.54	0.18	-0.750			
0.6790	43457.15	3.4980	3.4980	-1.5034	25.56	0.20	-0.750			
0.6834	43740.49	3.4950	3.4950	-1.4641	25.57	0.21	-0.750			
0.6878	44021.31	3.4920	3.4920	-1.4230	25.59	0.23	-0.750			
0.6920	44289.16	3.4890	3.4889	-1.3767	25.60	0.24	-0.750			
0.6961	44549.01	3.4860	3.4860	-1.3348	25.61	0.25	-0.750			
0.7000	44800.81	3.4830	3.4831	-1.2877	25.62	0.26	-0.750			
0.7038	45044.04	3.4800	3.4799	-1.2525	25.64	0.28	-0.750			
0.7075	45277.06	3.4770	3.4770	-1.2146	25.65	0.29	-0.750			
0.7110	45503.62	3.4740	3.4741	-1.1853	25.66	0.30	-0.750			
0.7145	45729.89	3.4710	3.4709	-1.1743	25.67	0.31	-0.750			
0.7180	45952.85	3.4680	3.4679	-1.1565	25.68	0.32	-0.750			
0.7215	46173.79	3.4650	3.4650	-1.1449	25.69	0.33	-0.750			
0.7249	46394.41	3.4620	3.4619	-1.1400	25.70	0.34	-0.750			
0.7283	46611.99	3.4590	3.4590	-1.1240	25.72	0.36	-0.750			
0.7317	46826.34	3.4560	3.4559	-1.1101	25.73	0.37	-0.750			
0.7349	47036.62	3.4530	3.4531	-1.0976	25.74	0.38	-0.750			
0.7382	47247.95	3.4500	3.4499	-1.0955	25.75	0.39	-0.750			
0.7415	47455.83	3.4470	3.4470	-1.0832	25.76	0.40	-0.750			
0.7447	47662.96	3.4440	3.4439	-1.0713	25.77	0.41	-0.750			
0.7479	47866.68	3.4410	3.4411	-1.0609	25.78	0.42	-0.750			
0.7511	48071.82	3.4380	3.4380	-1.0588	25.79	0.43	-0.750			
0.7543	48273.57	3.4350	3.4350	-1.0498	25.80	0.44	-0.750			
0.7574	48472.77	3.4320	3.4319	-1.0403	25.81	0.45	-0.750			
0.7605	48672.27	3.4290	3.4290	-1.0338	25.82	0.46	-0.750			
0.7636	48872.75	3.4260	3.4260	-1.0266	25.83	0.47	-0.750			
0.7667	49069.42	3.4230	3.4230	-1.0146	25.84	0.48	-0.750			
0.7698	49264.62	3.4200	3.4200	-0.9959	25.85	0.49	-0.750			
0.7727	49453.51	3.4170	3.4170	-0.9767	25.86	0.50	-0.750			
0.7756	49638.92	3.4140	3.4140	-0.9582	25.87	0.51	-0.750			
0.7784	49820.30	3.4110	3.4110	-0.9414	25.88	0.52	-0.750			
0.7812	49999.61	3.4080	3.4079	-0.9226	25.88	0.52	-0.750			
0.7840	50174.95	3.4050	3.4049	-0.9040	25.89	0.53	-0.750			
0.7867	50348.48	3.4020	3.4021	-0.8811	25.90	0.54	-0.750			
0.7893	50516.76	3.3990	3.3990	-0.8575	25.91	0.55	-0.750			
0.7919	50678.89	3.3960	3.3960	-0.8319	25.91	0.55	-0.750			
0.7943	50836.29	3.3930	3.3930	-0.8053	25.91	0.55	-0.750			
0.7967	50987.48	3.3900	3.3899	-0.7742	25.92	0.56	-0.750			
0.7990	51134.06	3.3870	3.3870	-0.7457	25.92	0.56	-0.750			
0.8012	51275.08	3.3840	3.3841	-0.7162	25.93	0.57	-0.750			
0.8033	51410.01	3.3810	3.3810	-0.6865	25.94	0.58	-0.750			
0.8053	51538.65	3.3780	3.3780	-0.6541	25.94	0.58	-0.750			
0.8072	51660.39	3.3750	3.3750	-0.6238	25.95	0.59	-0.750			
0.8090	51777.72	3.3720	3.3720	-0.5928	25.95	0.59	-0.750			
0.8108	51889.22	3.3690	3.3691	-0.5646	25.96	0.60	-0.750			
0.8124	51994.08	3.3660	3.3659	-0.5357	25.96	0.60	-0.750			
0.8140	52093.80	3.3630	3.3630	-0.5077	25.97	0.61	-0.750			
0.8154	52187.78	3.3600	3.3599	-0.4847	25.97	0.61	-0.750			
0.8168	52277.81	3.3570	3.3570	-0.4617	25.97	0.61	-0.750			
0.8182	52363.89	3.3540	3.3540	-0.4408	25.98	0.62	-0.750			
0.8195	52446.87	3.3510	3.3511	-0.4237	25.98	0.62	-0.750			
0.8207	52525.87	3.3480	3.3480	-0.4065	25.98	0.62	-0.750			
0.8219	52602.28	3.3450	3.3450	-0.3915	25.99	0.63	-0.750			
0.8231	52675.82	3.3420	3.3420	-0.3767	25.99	0.63	-0.750			
0.8242	52746.39	3.3390	3.3391	-0.3621	25.99	0.63	-0.750			
0.8252	52815.03	3.3360	3.3360	-0.3483	26.00	0.64	-0.750			
0.8263	52880.28	3.3330	3.3330	-0.3347	26.00	0.64	-0.750			
0.8272	52942.75	3.3300	3.3300	-0.3213	26.00	0.64	-0.750			
0.8282	53002.73	3.3270	3.3269	-0.3106	26.01	0.65	-0.750			
0.8291	53060.87	3.3240	3.3241	-0.3003	26.01	0.65	-0.750			
0.8300	53117.47	3.3210	3.3210	-0.2921	26.02	0.66	-0.750			
0.8308	53172.70	3.3180	3.3179	-0.2840	26.02	0.66	-0.750			
0.8317	53226.72	3.3150	3.3150	-0.2764	26.02	0.66	-0.750			
0.8325	53278.59	3.3120	3.3120	-0.2687	26.03	0.67	-0.750			
0.8333	53329.71	3.3090	3.3090	-0.2621	26.03	0.67	-0.750			
0.8341	53379.44	3.3060	3.3059	-0.2543	26.03	0.67	-0.750			
0.8348	53427.00	3.3030	3.3031	-0.2469	26.04	0.68	-0.750			
0.8355	53473.52	3.3000	3.3000	-0.2409	26.04	0.68	-0.750			
0.8362	53518.79	3.2970	3.2971	-0.2360	26.04	0.68	-0.750			
0.8369	53563.32	3.2940	3.2939	-0.2309	26.05	0.69	-0.750			
0.8376	53607.14	3.2910	3.2910	-0.2261	26.05	0.69	-0.750			
0.8383	53650.31	3.2880	3.2880	-0.2221	26.05	0.69	-0.750			
0.8390	53692.91	3.2850	3.2850	-0.2188	26.06	0.70	-0.750			
0.8396	53734.36	3.2820	3.2821	-0.2149	26.06	0.70	-0.750			
0.8402	53775.18	3.2790	3.2790	-0.2110	26.06	0.70	-0.750			
0.8409	53815.12	3.2760	3.2759	-0.2072	26.07	0.71	-0.750			
0.8415	53854.19	3.2730	3.2730	-0.2032	26.07	0.71	-0.750			
0.8421	53893.06	3.2700	3.2701	-0.2000	26.07	0.71	-0.750			
0.8427	53931.36	3.2670	3.2670	-0.1973	26.08	0.72	-0.750			
0.8433	53969.00	3.2640	3.2640	-0.1938	26.08	0.72	-0.750			
0.8438	54005.87	3.2610	3.2610	-0.1903	26.08	0.72	-0.750			
0.8444	54041.90	3.2580	3.2580	-0.1876	26.09	0.73	-0.750			
0.8450	54077.48	3.2550	3.2550	-0.1853	26.09	0.73	-0.750			
0.8455	54112.82	3.2520	3.2520	-0.1824	26.09	0.73	-0.750			
0.8461	54147.62	3.2490	3.2489	-0.1801	26.10	0.74	-0.750			
0.8466	54181.95	3.2460	3.2461	-0.1783	26.10	0.74	-0.750			
0.8471	54215.98	3.2430	3.2431	-0.1758	26.10	0.74	-0.750			
0.8476	54249.57	3.2400	3.2400	-0.1741	26.11	0.75	-0.750			
0.8482	54282.79	3.2370	3.2370	-0.1719	26.11	0.75	-0.750			
0.8487	54315.47	3.2340	3.2340	-0.1693	26.11	0.75	-0.750			
0.8492	54347.70	3.2310	3.2310	-0.1672	26.11	0.75	-0.750			
0.8497	54379.63	3.2280	3.2280	-0.1656	26.12	0.76	-0.750			
0.8502	54411.24	3.2250	3.2251	-0.1636	26.12	0.76	-0.750			
0.8507	54442.14	3.2220	3.2220	-0.1621	26.13	0.77	-0.750			
0.8511	54473.32	3.2190	3.2189	-0.1603	26.13	0.77	-0.750			
0.8516	54503.86	3.2160	3.2160	-0.1584	26.13	0.77	-0.750			
0.8521	54534.12	3.2130	3.2130	-0.1568	26.14	0.78	-0.750			
0.8526	54564.15	3.2100	3.2101	-0.1559	26.14	0.78	-0.750			
0.8530	54593.89	3.2070	3.2070	-0.1543	26.14	0.78	-0.750			
0.8535	54623.25	3.2040	3.2040	-0.1527	26.15	0.79	-0.750			
0.8539	54652.54	3.2010	3.2009	-0.1509	26.15	0.79	-0.750			
0.8544	54681.27	3.1980	3.1981	-0.1495	26.15	0.79	-0.750			
0.8548	54710.12	3.1950	3.1950	-0.1484	26.16	0.80	-0.750			
0.8553	54738.43	3.1920	3.1919	-0.1465	26.16	0.80	-0.750			
0.8557	54766.30	3.1890	3.1890	-0.1450	26.16	0.80	-0.750			
0.8562	54793.76	3.1860	3.1860	-0.1434	26.17	0.81	-0.750			
0.8566	54821.14	3.1830	3.1830	-0.1426	26.17	0.81	-0.750			
0.8570	54848.42	3.1800	3.1800	-0.1417	26.17	0.81	-0.750			
0.8574	54875.60	3.1770	3.1770	-0.1404	26.17	0.81	-0.750			
0.8578	54902.30	3.1740	3.1740	-0.1394	26.18	0.82	-0.750			
0.8583	54929.06	3.1710	3.1710	-0.1386	26.18	0.82	-0.750			
0.8587	54955.58	3.1680	3.1680	-0.1376	26.18	0.82	-0.750			
0.8591	54981.99	3.1650	3.1649	-0.1361	26.19	0.83	-0.750			
0.8595	55008.09	3.1620	3.1620	-0.1346	26.19	0.83	-0.750			
0.8599	55033.64	3.1590	3.1590	-0.1333	26.19	0.83	-0.750			
0.8603	55059.12	3.1560	3.1561	-0.1321	26.19	0.83	-0.750			
0.8607	55084.42	3.1530	3.1529	-0.1309	26.20	0.84	-0.750			
0.8611	55109.19	3.1500	3.1500	-0.1295	26.20	0.84	-0.750			
0.8615	55133.89	3.1470	3.1470	-0.1285	26.20	0.84	-0.750			
0.8619	55158.55	3.1440	3.1441	-0.1277	26.21	0.85	-0.750			
0.8622	55183.09	3.1410	3.1409	-0.1270	26.21	0.85	-0.750			
0.8626	55207.48	3.1380	3.1380	-0.1260	26.22	0.86	-0.750			
0.8630	55231.46	3.1350	3.1351	-0.1247	26.22	0.86	-0.750			
0.8634	55255.19	3.1320	3.1320	-0.1241	26.22	0.86	-0.750			
0.8637	55279.00	3.1290	3.1291	-0.1235	26.23	0.87	-0.750			
0.8641	55302.68	3.1260	3.1259	-0.1225	26.23	0.87	-0.750			
0.8645	55326.05	3.1230	3.1230	-0.1216	26.23	0.87	-0.750			
0.8648	55349.34	3.1200	3.1200	-0.1208	26.24	0.88	-0.750			
0.8652	55372.51	3.1170	3.1171	-0.1201	26.24	0.88	-0.750			
0.8656	55395.51	3.1140	3.1140	-0.1192	26.24	0.88	-0.750			
0.8659	55418.44	3.1110	3.1110	-0.1184	26.25	0.89	-0.750			
0.8663	55440.91	3.1080	3.1080	-0.1171	26.25	0.89	-0.750			
0.8666	55463.33	3.1050	3.1051	-0.1163	26.25	0.89	-0.750			
0.8670	55485.74	3.1020	3.1021	-0.1155	26.26	0.90	-0.750			
0.8673	55507.80	3.0990	3.0989	-0.1144	26.26	0.90	-0.750			
0.8676	55529.57	3.0960	3.0959	-0.1134	26.26	0.90	-0.750			
0.8680	55551.26	3.0930	3.0931	-0.1125	26.27	0.91	-0.750			
0.8683	55572.64	3.0900	3.0900	-0.1119	26.27	0.91	-0.750			
0.8687	55594.06	3.0870	3.0870	-0.1113	26.27	0.91	-0.750			
0.8690	55615.34	3.0840	3.0840	-0.1105	26.28	0.92	-0.750			
0.8693	55636.52	3.0810	3.0810	-0.1101	26.28	0.92	-0.750			
0.8697	55657.74	3.0780	3.0780	-0.1095	26.28	0.92	-0.750			
0.8700	55678.70	3.0750	3.0750	-0.1088	26.29	0.93	-0.750			
0.8703	55699.63	3.0720	3.0720	-0.1079	26.29	0.93	-0.750			
0.8706	55720.25	3.0690	3.0690	-0.1068	26.29	0.93	-0.750			
0.8709	55740.46	3.0660	3.0660	-0.1061	26.30	0.94	-0.750			
0.8713	55760.78	3.0630	3.0630	-0.1055	26.30	0.94	-0.750			
0.8716	55780.94	3.0600	3.0600	-0.1047	26.30	0.94	-0.750			
0.8719	55800.99	3.0570	3.0569	-0.1042	26.30	0.94	-0.750			
0.8722	55820.95	3.0540	3.0540	-0.1035	26.30	0.94	-0.750			
0.8725	55840.75	3.0510	3.0510	-0.1029	26.31	0.95	-0.750			
0.8728	55860.56	3.0480	3.0479	-0.1019	26.31	0.95	-0.750			
0.8731	55880.26	3.0450	3.0450	-0.1012	26.31	0.95	-0.750			
0.8734	55899.44	3.0420	3.0420	-0.1008	26.31	0.95	-0.750			
0.8737	55918.54	3.0390	3.0391	-0.0999	26.31	0.95	-0.750			
0.8740	55937.70	3.0360	3.0359	-0.0994	26.31	0.95	-0.750			
0.8743	55956.67	3.0330	3.0329	-0.0988	26.31	0.95	-0.750			
0.8746	55975.63	3.0300	3.0299	-0.0982	26.32	0.96	-0.750			
0.8749	55994.41	3.0270	3.0271	-0.0976	26.32	0.96	-0.750			
0.8752	56013.12	3.0240	3.0241	-0.0971	26.32	0.96	-0.750			
0.8755	56031.88	3.0210	3.0210	-0.0967	26.32	0.96	-0.750			
0.8758	56050.42	3.0180	3.0180	-0.0957	26.32	0.96	-0.750			
0.8761	56068.64	3.0150	3.0149	-0.0947	26.32	0.96	-0.750			
0.8764	56086.74	3.0120	3.0121	-0.0939	26.32	0.96	-0.750			
0.8766	56104.81	3.0090	3.0090	-0.0928	26.33	0.97	-0.750			
0.8769	56122.52	3.0060	3.0061	-0.0917	26.33	0.97	-0.750			
0.8772	56139.94	3.0030	3.0029	-0.0890	26.33	0.97	-0.750			
