Ah_balance (normalized)	Ah_balance (mAh)	Voltage - fit (V)	Voltage -  interpolate (V)	dQ/dV (1/V)	Temperature (°C)	Temperature - diff (°C)	Current (C)	R_DC 0ms (mOhm)	R_DC 50ms (mOhm)	R_DC 50 ms PEC (mOhm)
0.2341	14980.94	3.9750	3.9750	0.8396	26.03	0.11	0.750			
0.2366	15144.69	3.9720	3.9720	0.8598	26.04	0.12	0.750			
0.2392	15311.49	3.9690	3.9690	0.8718	26.05	0.13	0.750			
0.2419	15480.39	3.9660	3.9660	0.8794	26.05	0.13	0.750			
0.2445	15650.49	3.9630	3.9630	0.8846	26.06	0.14	0.750			
0.2472	15822.25	3.9600	3.9600	0.8916	26.06	0.14	0.750			
0.2499	15993.60	3.9570	3.9570	0.8928	26.07	0.15	0.750			
0.2526	16165.16	3.9540	3.9540	0.8928	26.08	0.16	0.750			
0.2553	16336.21	3.9510	3.9510	0.8954	26.08	0.16	0.750			
0.2579	16508.41	3.9480	3.9480	0.8959	26.09	0.17	0.750			
0.2606	16681.14	3.9450	3.9449	0.8946	26.09	0.17	0.750			
0.2633	16852.15	3.9420	3.9420	0.8962	26.09	0.17	0.750			
0.2660	17023.59	3.9390	3.9391	0.8966	26.09	0.17	0.750			
0.2687	17195.96	3.9360	3.9360	0.9015	26.09	0.17	0.750			
0.2714	17369.34	3.9330	3.9330	0.9059	26.09	0.17	0.750			
0.2741	17542.62	3.9300	3.9300	0.9066	26.09	0.17	0.750			
0.2768	17718.04	3.9270	3.9270	0.9134	26.10	0.18	0.750			
0.2796	17895.17	3.9240	3.9240	0.9153	26.10	0.18	0.750			
0.2823	18070.29	3.9210	3.9209	0.9142	26.10	0.18	0.750			
0.2851	18245.70	3.9180	3.9181	0.9150	26.10	0.18	0.750			
0.2878	18420.57	3.9150	3.9150	0.9170	26.10	0.18	0.750			
0.2906	18596.30	3.9120	3.9120	0.9206	26.10	0.18	0.750			
0.2933	18773.29	3.9090	3.9090	0.9267	26.10	0.18	0.750			
0.2961	18951.49	3.9060	3.9060	0.9295	26.10	0.18	0.750			
0.2989	19131.01	3.9030	3.9030	0.9344	26.10	0.18	0.750			
0.3017	19310.92	3.9000	3.9000	0.9373	26.10	0.18	0.750			
0.3046	19491.69	3.8970	3.8970	0.9390	26.10	0.18	0.750			
0.3074	19671.19	3.8940	3.8939	0.9426	26.10	0.18	0.750			
0.3102	19852.77	3.8910	3.8910	0.9423	26.10	0.18	0.750			
0.3130	20033.56	3.8880	3.8880	0.9481	26.10	0.18	0.750			
0.3159	20216.62	3.8850	3.8850	0.9528	26.10	0.18	0.750			
0.3187	20398.45	3.8820	3.8821	0.9557	26.10	0.18	0.750			
0.3216	20583.88	3.8790	3.8791	0.9601	26.10	0.18	0.750			
0.3245	20768.20	3.8760	3.8760	0.9673	26.10	0.18	0.750			
0.3274	20954.55	3.8730	3.8730	0.9696	26.10	0.18	0.750			
0.3304	21142.77	3.8700	3.8700	0.9718	26.10	0.18	0.750			
0.3333	21328.76	3.8670	3.8670	0.9730	26.10	0.18	0.750			
0.3362	21515.53	3.8640	3.8640	0.9756	26.10	0.18	0.750			
0.3391	21700.02	3.8610	3.8610	0.9812	26.10	0.18	0.750			
0.3420	21889.80	3.8580	3.8579	0.9895	26.10	0.18	0.750			
0.3450	22079.28	3.8550	3.8549	0.9953	26.10	0.18	0.750			
0.3480	22273.74	3.8520	3.8519	1.0011	26.10	0.18	0.750			
0.3510	22466.02	3.8490	3.8491	1.0084	26.10	0.18	0.750			
0.3541	22659.72	3.8460	3.8460	1.0172	26.10	0.18	0.750			
0.3571	22854.74	3.8430	3.8429	1.0239	26.10	0.18	0.750			
0.3602	23051.55	3.8400	3.8400	1.0276	26.10	0.18	0.750			
0.3633	23251.63	3.8370	3.8371	1.0419	26.10	0.18	0.750			
0.3665	23454.15	3.8340	3.8340	1.0494	26.10	0.18	0.750			
0.3696	23657.33	3.8310	3.8310	1.0552	26.10	0.18	0.750			
0.3728	23857.00	3.8280	3.8280	1.0554	26.10	0.18	0.750			
0.3759	24059.34	3.8250	3.8249	1.0661	26.10	0.18	0.750			
0.3791	24264.01	3.8220	3.8220	1.0773	26.10	0.18	0.750			
0.3824	24473.86	3.8190	3.8189	1.0877	26.10	0.18	0.750			
0.3857	24682.96	3.8160	3.8160	1.1049	26.10	0.18	0.750			
0.3890	24898.25	3.8130	3.8130	1.1169	26.09	0.17	0.750			
0.3924	25113.59	3.8100	3.8100	1.1287	26.08	0.16	0.750			
0.3958	25330.92	3.8070	3.8070	1.1384	26.08	0.16	0.750			
0.3992	25549.81	3.8040	3.8041	1.1542	26.07	0.15	0.750			
0.4027	25772.31	3.8010	3.8010	1.1676	26.07	0.15	0.750			
0.4062	25999.53	3.7980	3.7980	1.1801	26.06	0.14	0.750			
0.4098	26226.44	3.7950	3.7951	1.1925	26.06	0.14	0.750			
0.4134	26458.09	3.7920	3.7920	1.2185	26.05	0.13	0.750			
0.4171	26692.52	3.7890	3.7891	1.2359	26.05	0.13	0.750			
0.4208	26931.94	3.7860	3.7858	1.2453	26.04	0.12	0.750			
0.4246	27171.80	3.7830	3.7831	1.2608	26.04	0.12	0.750			
0.4284	27416.66	3.7800	3.7801	1.2805	26.03	0.11	0.750			
0.4322	27663.19	3.7770	3.7769	1.2989	26.03	0.11	0.750			
0.4361	27911.80	3.7740	3.7740	1.3180	26.02	0.10	0.750			
0.4401	28165.66	3.7710	3.7710	1.3448	26.01	0.09	0.750			
0.4442	28427.06	3.7680	3.7680	1.3736	26.00	0.08	0.750			
0.4484	28695.94	3.7650	3.7650	1.4004	26.00	0.08	0.750			
0.4526	28967.44	3.7620	3.7621	1.4292	25.99	0.07	0.750			
0.4570	29247.40	3.7590	3.7589	1.4542	25.98	0.06	0.750			
0.4614	29526.42	3.7560	3.7561	1.4796	25.97	0.05	0.750			
0.4658	29812.16	3.7530	3.7530	1.5081	25.97	0.05	0.750			
0.4704	30102.73	3.7500	3.7500	1.5388	25.96	0.04	0.750			
0.4750	30399.15	3.7470	3.7469	1.5712	25.94	0.02	0.750			
0.4798	30706.45	3.7440	3.7438	1.6083	25.93	0.01	0.750			
0.4847	31018.13	3.7410	3.7411	1.6433	25.92	-0.00	0.750			
0.4897	31339.50	3.7380	3.7380	1.6807	25.90	-0.02	0.750			
0.4948	31664.61	3.7350	3.7350	1.7227	25.89	-0.03	0.750			
0.5000	31999.00	3.7320	3.7320	1.7577	25.88	-0.04	0.750			
0.5053	32341.07	3.7290	3.7290	1.8066	25.87	-0.05	0.750			
0.5108	32691.76	3.7260	3.7262	1.8404	25.85	-0.07	0.750			
0.5164	33048.96	3.7230	3.7229	1.8926	25.83	-0.09	0.750			
0.5221	33412.54	3.7200	3.7201	1.9525	25.82	-0.10	0.750			
0.5280	33794.34	3.7170	3.7169	2.0043	25.81	-0.11	0.750			
0.5342	34186.96	3.7140	3.7140	2.0507	25.80	-0.12	0.750	0.339	0.480	
0.5404	34586.13	3.7110	3.7112	2.1055	25.78	-0.14	0.750			
0.5469	34999.05	3.7080	3.7080	2.1384	25.75	-0.17	0.750			
0.5533	35409.74	3.7050	3.7049	2.1833	25.73	-0.19	0.750			
0.5598	35828.03	3.7020	3.7021	2.2537	25.71	-0.21	0.750			
0.5667	36267.56	3.6990	3.6991	2.3143	25.69	-0.23	0.750			
0.5738	36721.59	3.6960	3.6959	2.3551	25.67	-0.25	0.750			
0.5809	37178.83	3.6930	3.6930	2.4415	25.66	-0.26	0.750			
0.5883	37652.21	3.6900	3.6899	2.5132	25.64	-0.28	0.750			
0.5958	38134.34	3.6870	3.6872	2.5911	25.62	-0.30	0.750			
0.6039	38648.51	3.6840	3.6840	2.6496	25.62	-0.30	0.750			
0.6120	39167.91	3.6810	3.6810	2.7029	25.61	-0.31	0.750			
0.6202	39694.02	3.6780	3.6779	2.7405	25.60	-0.32	0.750			
0.6285	40224.29	3.6750	3.6750	2.7222	25.59	-0.33	0.750			
0.6367	40748.94	3.6720	3.6720	2.6876	25.58	-0.34	0.750			
0.6447	41261.09	3.6690	3.6690	2.5594	25.57	-0.35	0.750			
0.6522	41743.18	3.6660	3.6661	2.4141	25.56	-0.36	0.750			
0.6593	42192.53	3.6630	3.6630	2.2398	25.56	-0.36	0.750			
0.6657	42604.15	3.6600	3.6600	2.0603	25.56	-0.36	0.750			
0.6715	42977.81	3.6570	3.6571	1.8873	25.56	-0.36	0.750			
0.6769	43322.04	3.6540	3.6540	1.7472	25.56	-0.36	0.750			
0.6819	43639.48	3.6510	3.6509	1.6177	25.56	-0.36	0.750			
0.6865	43935.05	3.6480	3.6480	1.5062	25.57	-0.35	0.750			
0.6908	44209.25	3.6450	3.6450	1.4298	25.57	-0.35	0.750			
0.6948	44469.46	3.6420	3.6418	1.3525	25.58	-0.34	0.750			
0.6988	44720.29	3.6390	3.6390	1.3036	25.57	-0.35	0.750			
0.7026	44965.71	3.6360	3.6361	1.2688	25.57	-0.35	0.750			
0.7063	45206.38	3.6330	3.6330	1.2411	25.56	-0.36	0.750			
0.7100	45440.87	3.6300	3.6300	1.2244	25.56	-0.36	0.750			
0.7136	45669.82	3.6270	3.6270	1.2029	25.57	-0.35	0.750			
0.7172	45897.85	3.6240	3.6240	1.1922	25.58	-0.34	0.750			
0.7207	46126.30	3.6210	3.6209	1.1787	25.58	-0.34	0.750			
0.7242	46351.78	3.6180	3.6181	1.1801	25.58	-0.34	0.750			
0.7278	46578.45	3.6150	3.6151	1.1775	25.58	-0.34	0.750			
0.7313	46804.87	3.6120	3.6119	1.1710	25.58	-0.34	0.750			
0.7348	47027.88	3.6090	3.6091	1.1675	25.58	-0.34	0.750			
0.7383	47251.56	3.6060	3.6060	1.1691	25.59	-0.33	0.750			
0.7418	47474.58	3.6030	3.6030	1.1768	25.59	-0.33	0.750			
0.7453	47700.06	3.6000	3.5999	1.1791	25.60	-0.32	0.750			
0.7488	47926.13	3.5970	3.5970	1.1975	25.60	-0.32	0.750			
0.7524	48156.77	3.5940	3.5940	1.2228	25.60	-0.32	0.750			
0.7562	48395.07	3.5910	3.5910	1.2467	25.60	-0.32	0.750			
0.7599	48634.22	3.5880	3.5880	1.2786	25.60	-0.32	0.750			
0.7638	48881.65	3.5850	3.5851	1.3195	25.60	-0.32	0.750			
0.7678	49139.41	3.5820	3.5819	1.3546	25.61	-0.31	0.750			
0.7720	49404.82	3.5790	3.5790	1.3916	25.61	-0.31	0.750			
0.7762	49674.18	3.5760	3.5760	1.4273	25.61	-0.31	0.750			
0.7805	49952.34	3.5730	3.5731	1.4609	25.62	-0.30	0.750			
0.7850	50239.06	3.5700	3.5700	1.4944	25.62	-0.30	0.750			
0.7895	50526.37	3.5670	3.5669	1.5231	25.62	-0.30	0.750			
0.7941	50823.01	3.5640	3.5640	1.5512	25.62	-0.30	0.750			
0.7989	51127.91	3.5610	3.5610	1.5663	25.63	-0.29	0.750			
0.8036	51432.45	3.5580	3.5581	1.5738	25.63	-0.29	0.750			
0.8084	51737.36	3.5550	3.5551	1.5768	25.64	-0.28	0.750			
0.8131	52040.18	3.5520	3.5519	1.5782	25.65	-0.27	0.750			
0.8178	52341.17	3.5490	3.5490	1.5749	25.66	-0.26	0.750			
0.8225	52642.45	3.5460	3.5461	1.5661	25.66	-0.26	0.750			
0.8274	52952.25	3.5430	3.5428	1.5365	25.67	-0.25	0.750			
0.8321	53252.81	3.5400	3.5400	1.4696	25.68	-0.24	0.750			
0.8366	53541.94	3.5370	3.5370	1.3583	25.69	-0.23	0.750			
0.8406	53798.67	3.5340	3.5341	1.1863	25.71	-0.21	0.750			
0.8440	54018.34	3.5310	3.5310	1.0073	25.72	-0.20	0.750			
0.8467	54188.44	3.5280	3.5281	0.8306	25.73	-0.19	0.750			
0.8488	54320.36	3.5250	3.5248	0.6594	25.75	-0.17	0.750			
0.8503	54422.15	3.5220	3.5218	0.5464	25.76	-0.16	0.750			
0.8516	54504.33	3.5190	3.5189	0.4521	25.77	-0.15	0.750			
0.8528	54577.58	3.5160	3.5159	0.3972	25.77	-0.15	0.750			
0.8539	54648.05	3.5130	3.5130	0.3611	25.78	-0.14	0.750			
0.8549	54711.02	3.5100	3.5100	0.3355	25.79	-0.13	0.750			
0.8558	54772.34	3.5070	3.5070	0.3164	25.80	-0.12	0.750			
0.8567	54830.52	3.5040	3.5039	0.3003	25.80	-0.12	0.750			
0.8576	54886.35	3.5010	3.5011	0.2875	25.81	-0.11	0.750			
0.8584	54940.04	3.4980	3.4980	0.2774	25.82	-0.10	0.750			
0.8593	54992.15	3.4950	3.4950	0.2684	25.82	-0.10	0.750			
0.8600	55043.00	3.4920	3.4920	0.2601	25.83	-0.09	0.750			
0.8608	55091.72	3.4890	3.4891	0.2532	25.84	-0.08	0.750			
0.8616	55139.62	3.4860	3.4859	0.2464	25.84	-0.08	0.750			
0.8623	55186.01	3.4830	3.4830	0.2407	25.85	-0.07	0.750			
0.8630	55231.60	3.4800	3.4800	0.2348	25.85	-0.07	0.750			
0.8637	55276.07	3.4770	3.4770	0.2287	25.86	-0.06	0.750			
0.8644	55320.02	3.4740	3.4740	0.2239	25.87	-0.05	0.750			
0.8650	55362.12	3.4710	3.4711	0.2189	25.87	-0.05	0.750			
0.8657	55403.32	3.4680	3.4680	0.2134	25.88	-0.04	0.750			
0.8663	55444.27	3.4650	3.4649	0.2086	25.88	-0.04	0.750			
0.8669	55483.81	3.4620	3.4620	0.2032	25.89	-0.03	0.750			
0.8675	55522.08	3.4590	3.4590	0.1986	25.90	-0.02	0.750			
0.8681	55559.88	3.4560	3.4560	0.1940	25.90	-0.02	0.750			
0.8687	55596.49	3.4530	3.4529	0.1897	25.91	-0.01	0.750			
0.8693	55632.50	3.4500	3.4499	0.1853	25.91	-0.01	0.750			
0.8698	55667.26	3.4470	3.4471	0.1810	25.92	-0.00	0.750			
0.8703	55701.80	3.4440	3.4440	0.1767	25.92	0.00	0.750			
0.8709	55735.69	3.4410	3.4410	0.1730	25.93	0.01	0.750			
0.8714	55768.43	3.4380	3.4380	0.1681	25.93	0.01	0.750			
0.8719	55800.04	3.4350	3.4350	0.1642	25.94	0.02	0.750			
0.8724	55831.22	3.4320	3.4320	0.1600	25.94	0.02	0.750			
0.8728	55861.37	3.4290	3.4290	0.1555	25.94	0.02	0.750			
0.8733	55890.86	3.4260	3.4260	0.1517	25.95	0.03	0.750			
0.8737	55919.74	3.4230	3.4231	0.1469	25.95	0.03	0.750			
0.8742	55947.70	3.4200	3.4200	0.1428	25.96	0.04	0.750			
0.8746	55974.75	3.4170	3.4170	0.1382	25.96	0.04	0.750			
0.8750	56000.74	3.4140	3.4140	0.1335	25.96	0.04	0.750			
0.8754	56025.73	3.4110	3.4110	0.1286	25.97	0.05	0.750			
0.8758	56049.92	3.4080	3.4079	0.1243	25.97	0.05	0.750			
0.8761	56073.24	3.4050	3.4050	0.1198	25.97	0.05	0.750			
0.8765	56095.94	3.4020	3.4021	0.1155	25.98	0.06	0.750			
0.8768	56117.84	3.3990	3.3990	0.1115	25.98	0.06	0.750			
0.8772	56138.89	3.3960	3.3960	0.1069	25.98	0.06	0.750			
0.8775	56159.01	3.3930	3.3930	0.1024	25.99	0.07	0.750			
0.8778	56178.41	3.3900	3.3900	0.0974	25.99	0.07	0.750			
0.8781	56196.84	3.3870	3.3871	0.0928	25.99	0.07	0.750			
0.8783	56214.15	3.3840	3.3840	0.0875	25.99	0.07	0.750			
0.8786	56231.30	3.3810	3.3809	0.0806	26.00	0.08	0.750			
0.8788	56246.07	3.3780	3.3780	0.0733	26.00	0.08	0.750			
0.8791	56260.06	3.3750	3.3751	0.0671	26.00	0.08	0.750			
0.8793	56272.18	3.3720	3.3723	0.0591	26.00	0.08	0.750			
0.8794	56283.38	3.3690	3.3694	0.0512	26.00	0.08	0.750			
0.8796	56292.37	3.3660	3.3668	0.0424	26.00	0.08	0.750			
0.8797	56299.68	3.3630	3.3642	0.0337	26.01	0.09	0.750			
0.8798	56305.30	3.3600	3.3616	0.0249	26.01	0.09	0.750			
