Ah_balance (normalized)	Ah_balance (mAh)	Voltage - fit (V)	Voltage -  interpolate (V)	dQ/dV (1/V)	Temperature (°C)	Temperature - diff (°C)	Current (C)	R_DC 0ms (mOhm)	R_DC 50ms (mOhm)	R_DC 50 ms PEC (mOhm)
0.1981	12677.43	3.9350	3.9350	-0.1471	25.37	0.01	-0.750			
0.1986	12710.57	3.9320	3.9320	-0.1929	25.37	0.01	-0.750			
0.1992	12751.30	3.9290	3.9290	-0.2364	25.36	0.00	-0.750			
0.2000	12801.14	3.9260	3.9261	-0.2794	25.36	0.00	-0.750			
0.2009	12858.87	3.9230	3.9230	-0.3235	25.36	0.00	-0.750			
0.2020	12925.60	3.9200	3.9200	-0.3648	25.36	0.00	-0.750			
0.2031	13000.00	3.9170	3.9169	-0.4052	25.36	0.00	-0.750			
0.2044	13082.44	3.9140	3.9141	-0.4449	25.36	0.00	-0.750			
0.2058	13172.21	3.9110	3.9110	-0.4809	25.36	-0.00	-0.750			
0.2073	13269.42	3.9080	3.9080	-0.5112	25.36	-0.00	-0.750			
0.2089	13371.41	3.9050	3.9051	-0.5396	25.36	-0.00	-0.750			
0.2106	13478.16	3.9020	3.9020	-0.5645	25.36	-0.00	-0.750			
0.2123	13589.95	3.8990	3.8990	-0.5849	25.35	-0.01	-0.750			
0.2141	13704.50	3.8960	3.8960	-0.6030	25.35	-0.01	-0.750			
0.2160	13822.08	3.8930	3.8930	-0.6178	25.35	-0.01	-0.750			
0.2179	13943.69	3.8900	3.8901	-0.6292	25.35	-0.01	-0.750			
0.2198	14065.70	3.8870	3.8870	-0.6404	25.35	-0.01	-0.750			
0.2217	14189.44	3.8840	3.8841	-0.6474	25.35	-0.01	-0.750			
0.2237	14315.11	3.8810	3.8809	-0.6547	25.35	-0.01	-0.750			
0.2257	14441.86	3.8780	3.8780	-0.6631	25.35	-0.01	-0.750			
0.2276	14569.44	3.8750	3.8749	-0.6687	25.35	-0.01	-0.750			
0.2297	14699.39	3.8720	3.8721	-0.6744	25.35	-0.01	-0.750			
0.2317	14829.81	3.8690	3.8689	-0.6776	25.35	-0.01	-0.750			
0.2337	14959.60	3.8660	3.8661	-0.6797	25.35	-0.01	-0.750			
0.2358	15090.59	3.8630	3.8630	-0.6852	25.35	-0.01	-0.750			
0.2378	15221.31	3.8600	3.8600	-0.6880	25.34	-0.02	-0.750			
0.2399	15354.56	3.8570	3.8570	-0.6900	25.34	-0.02	-0.750			
0.2420	15488.22	3.8540	3.8540	-0.6909	25.34	-0.02	-0.750			
0.2441	15622.25	3.8510	3.8510	-0.6923	25.34	-0.02	-0.750			
0.2462	15754.80	3.8480	3.8480	-0.6906	25.34	-0.02	-0.750			
0.2482	15886.22	3.8450	3.8450	-0.6901	25.34	-0.02	-0.750			
0.2503	16018.51	3.8420	3.8419	-0.6888	25.35	-0.01	-0.750			
0.2524	16150.55	3.8390	3.8390	-0.6883	25.35	-0.01	-0.750			
0.2544	16283.24	3.8360	3.8360	-0.6889	25.35	-0.01	-0.750			
0.2565	16416.21	3.8330	3.8331	-0.6925	25.35	-0.01	-0.750			
0.2586	16548.86	3.8300	3.8299	-0.6917	25.35	-0.01	-0.750			
0.2606	16681.21	3.8270	3.8270	-0.6904	25.35	-0.01	-0.750			
0.2627	16814.00	3.8240	3.8240	-0.6899	25.36	-0.00	-0.750			
0.2648	16946.71	3.8210	3.8210	-0.6938	25.36	-0.00	-0.750			
0.2669	17079.69	3.8180	3.8180	-0.6944	25.36	-0.00	-0.750			
0.2690	17213.36	3.8150	3.8149	-0.6930	25.36	0.00	-0.750			
0.2710	17346.12	3.8120	3.8120	-0.6903	25.36	0.00	-0.750			
0.2731	17478.38	3.8090	3.8091	-0.6946	25.36	0.00	-0.750			
0.2752	17612.59	3.8060	3.8060	-0.6939	25.37	0.01	-0.750			
0.2773	17746.29	3.8030	3.8029	-0.6944	25.37	0.01	-0.750			
0.2794	17878.92	3.8000	3.8001	-0.6925	25.37	0.01	-0.750			
0.2814	18012.19	3.7970	3.7970	-0.6946	25.37	0.01	-0.750			
0.2835	18145.88	3.7940	3.7940	-0.6965	25.37	0.01	-0.750			
0.2856	18278.81	3.7910	3.7909	-0.6986	25.37	0.01	-0.750			
0.2877	18411.43	3.7880	3.7880	-0.6978	25.37	0.01	-0.750			
0.2898	18548.03	3.7850	3.7850	-0.7022	25.37	0.01	-0.750			
0.2919	18682.24	3.7820	3.7820	-0.7023	25.37	0.01	-0.750			
0.2940	18818.41	3.7790	3.7790	-0.7019	25.37	0.01	-0.750			
0.2961	18952.31	3.7760	3.7760	-0.7024	25.38	0.02	-0.750			
0.2982	19086.05	3.7730	3.7730	-0.7066	25.38	0.02	-0.750			
0.3003	19222.34	3.7700	3.7700	-0.7090	25.38	0.02	-0.750			
0.3025	19359.98	3.7670	3.7669	-0.7124	25.39	0.03	-0.750			
0.3046	19496.79	3.7640	3.7642	-0.7178	25.39	0.03	-0.750			
0.3068	19634.84	3.7610	3.7610	-0.7214	25.39	0.03	-0.750			
0.3090	19774.33	3.7580	3.7579	-0.7255	25.39	0.03	-0.750			
0.3111	19912.18	3.7550	3.7550	-0.7270	25.39	0.03	-0.750			
0.3133	20052.63	3.7520	3.7521	-0.7293	25.39	0.03	-0.750			
0.3155	20194.46	3.7490	3.7490	-0.7394	25.39	0.03	-0.750			
0.3178	20336.49	3.7460	3.7461	-0.7440	25.39	0.03	-0.750			
0.3200	20478.77	3.7430	3.7429	-0.7472	25.39	0.03	-0.750			
0.3222	20623.51	3.7400	3.7400	-0.7561	25.39	0.03	-0.750			
0.3245	20769.24	3.7370	3.7371	-0.7645	25.39	0.03	-0.750			
0.3268	20917.35	3.7340	3.7339	-0.7731	25.39	0.03	-0.750			
0.3292	21066.76	3.7310	3.7310	-0.7799	25.39	0.03	-0.750			
0.3315	21215.54	3.7280	3.7279	-0.7838	25.39	0.03	-0.750			
0.3339	21366.91	3.7250	3.7250	-0.7944	25.39	0.03	-0.750			
0.3363	21520.92	3.7220	3.7220	-0.8014	25.39	0.03	-0.750			
0.3387	21675.38	3.7190	3.7190	-0.8073	25.39	0.03	-0.750			
0.3411	21831.22	3.7160	3.7160	-0.8150	25.39	0.03	-0.750			
0.3436	21987.85	3.7130	3.7131	-0.8275	25.39	0.03	-0.750			
0.3460	22145.87	3.7100	3.7100	-0.8413	25.39	0.03	-0.750			
0.3486	22309.82	3.7070	3.7069	-0.8537	25.39	0.03	-0.750			
0.3512	22474.65	3.7040	3.7040	-0.8668	25.38	0.02	-0.750			
0.3538	22643.36	3.7010	3.7010	-0.8829	25.38	0.02	-0.750			
0.3565	22814.99	3.6980	3.6981	-0.9014	25.38	0.02	-0.750			
0.3592	22988.85	3.6950	3.6949	-0.9172	25.38	0.02	-0.750			
0.3619	23164.00	3.6920	3.6920	-0.9304	25.37	0.01	-0.750			
0.3647	23343.78	3.6890	3.6890	-0.9507	25.37	0.01	-0.750			
0.3677	23530.24	3.6860	3.6860	-0.9732	25.37	0.01	-0.750			
0.3706	23719.21	3.6830	3.6830	-0.9934	25.37	0.01	-0.750			
0.3736	23911.89	3.6800	3.6800	-1.0105	25.37	0.01	-0.750			
0.3767	24107.05	3.6770	3.6770	-1.0316	25.37	0.01	-0.750			
0.3798	24306.50	3.6740	3.6740	-1.0560	25.37	0.01	-0.750			
0.3830	24511.35	3.6710	3.6710	-1.0833	25.37	0.01	-0.750			
0.3863	24723.92	3.6680	3.6680	-1.1004	25.36	0.00	-0.750			
0.3896	24937.00	3.6650	3.6650	-1.1257	25.36	0.00	-0.750			
0.3930	25154.53	3.6620	3.6621	-1.1520	25.36	0.00	-0.750			
0.3965	25378.27	3.6590	3.6590	-1.1765	25.36	0.00	-0.750			
0.4001	25605.84	3.6560	3.6559	-1.1964	25.36	0.00	-0.750			
0.4037	25834.41	3.6530	3.6530	-1.2354	25.36	0.00	-0.750			
0.4075	26077.73	3.6500	3.6500	-1.2601	25.36	-0.00	-0.750			
0.4113	26324.27	3.6470	3.6469	-1.2877	25.35	-0.01	-0.750			
0.4152	26571.95	3.6440	3.6440	-1.3124	25.35	-0.01	-0.750			
0.4192	26826.97	3.6410	3.6410	-1.3349	25.35	-0.01	-0.750			
0.4232	27086.92	3.6380	3.6379	-1.3624	25.35	-0.01	-0.750			
0.4273	27348.48	3.6350	3.6349	-1.3927	25.34	-0.02	-0.750			
0.4315	27616.14	3.6320	3.6320	-1.4144	25.34	-0.02	-0.750			
0.4358	27893.15	3.6290	3.6290	-1.4633	25.34	-0.02	-0.750			
0.4403	28177.08	3.6260	3.6259	-1.4928	25.34	-0.02	-0.750			
0.4448	28469.52	3.6230	3.6229	-1.5143	25.34	-0.02	-0.750			
0.4494	28761.69	3.6200	3.6200	-1.5642	25.33	-0.03	-0.750			
0.4541	29065.36	3.6170	3.6170	-1.5851	25.32	-0.04	-0.750			
0.4589	29369.89	3.6140	3.6139	-1.6149	25.32	-0.04	-0.750			
0.4638	29686.23	3.6110	3.6110	-1.6465	25.31	-0.05	-0.750			
0.4688	30000.79	3.6080	3.6081	-1.6799	25.31	-0.05	-0.750			
0.4739	30329.98	3.6050	3.6050	-1.7134	25.31	-0.05	-0.750			
0.4791	30663.49	3.6020	3.6019	-1.7605	25.31	-0.05	-0.750			
0.4844	31003.85	3.5990	3.5990	-1.7733	25.31	-0.05	-0.750			
0.4899	31350.71	3.5960	3.5960	-1.8042	25.31	-0.05	-0.750			
0.4952	31695.85	3.5930	3.5931	-1.8342	25.31	-0.05	-0.750			
0.5008	32051.50	3.5900	3.5899	-1.8671	25.31	-0.05	-0.750			
0.5064	32409.24	3.5870	3.5870	-1.8970	25.31	-0.05	-0.750			
0.5122	32779.59	3.5840	3.5840	-1.9309	25.31	-0.05	-0.750			
0.5180	33151.58	3.5810	3.5810	-1.9622	25.31	-0.05	-0.750			
0.5240	33536.72	3.5780	3.5780	-1.9826	25.31	-0.05	-0.750			
0.5299	33916.35	3.5750	3.5750	-2.0078	25.31	-0.05	-0.750			
0.5360	34305.59	3.5720	3.5721	-2.0279	25.31	-0.05	-0.750	0.373	0.556	
0.5422	34697.87	3.5690	3.5690	-2.0463	25.32	-0.04	-0.750			
0.5484	35095.10	3.5660	3.5661	-2.0654	25.32	-0.04	-0.750			
0.5546	35492.75	3.5630	3.5629	-2.0749	25.33	-0.03	-0.750			
0.5608	35891.57	3.5600	3.5600	-2.0721	25.33	-0.03	-0.750			
0.5670	36286.67	3.5570	3.5570	-2.0772	25.34	-0.02	-0.750			
0.5733	36690.05	3.5540	3.5540	-2.1029	25.34	-0.02	-0.750			
0.5796	37097.28	3.5510	3.5509	-2.1002	25.34	-0.02	-0.750			
0.5860	37503.71	3.5480	3.5479	-2.0953	25.35	-0.01	-0.750			
0.5923	37905.42	3.5450	3.5450	-2.0809	25.36	-0.00	-0.750			
0.5984	38300.10	3.5420	3.5419	-2.0609	25.36	0.00	-0.750			
0.6046	38691.71	3.5390	3.5390	-2.0552	25.37	0.01	-0.750			
0.6108	39088.75	3.5360	3.5360	-2.0266	25.38	0.02	-0.750			
0.6169	39482.33	3.5330	3.5330	-2.0180	25.39	0.03	-0.750			
0.6229	39868.04	3.5300	3.5301	-1.9778	25.40	0.04	-0.750			
0.6287	40237.92	3.5270	3.5269	-1.9303	25.42	0.06	-0.750			
0.6345	40606.28	3.5240	3.5240	-1.8870	25.43	0.07	-0.750			
0.6400	40960.36	3.5210	3.5210	-1.8542	25.44	0.08	-0.750			
0.6456	41319.97	3.5180	3.5180	-1.8173	25.45	0.09	-0.750			
0.6510	41664.30	3.5150	3.5149	-1.7672	25.46	0.10	-0.750			
0.6562	41999.78	3.5120	3.5121	-1.7163	25.47	0.11	-0.750			
0.6613	42326.15	3.5090	3.5088	-1.6770	25.49	0.13	-0.750			
0.6662	42638.93	3.5060	3.5059	-1.6260	25.51	0.15	-0.750			
0.6711	42950.70	3.5030	3.5029	-1.5814	25.52	0.16	-0.750			
0.6758	43249.10	3.5000	3.5000	-1.5340	25.53	0.17	-0.750			
0.6803	43539.46	3.4970	3.4972	-1.4908	25.54	0.18	-0.750			
0.6847	43822.31	3.4940	3.4940	-1.4441	25.56	0.20	-0.750			
0.6890	44094.83	3.4910	3.4909	-1.3988	25.57	0.21	-0.750			
0.6931	44356.08	3.4880	3.4881	-1.3611	25.58	0.22	-0.750			
0.6971	44615.69	3.4850	3.4850	-1.3253	25.59	0.23	-0.750			
0.7011	44868.04	3.4820	3.4819	-1.2827	25.60	0.24	-0.750			
0.7048	45108.27	3.4790	3.4792	-1.2459	25.61	0.25	-0.750			
0.7085	45342.76	3.4760	3.4761	-1.2132	25.62	0.26	-0.750			
0.7121	45571.58	3.4730	3.4730	-1.1869	25.63	0.27	-0.750			
0.7155	45793.79	3.4700	3.4698	-1.1577	25.64	0.28	-0.750			
0.7190	46013.33	3.4670	3.4670	-1.1457	25.64	0.28	-0.750			
0.7224	46232.73	3.4640	3.4640	-1.1321	25.66	0.30	-0.750			
0.7258	46450.72	3.4610	3.4609	-1.1204	25.67	0.31	-0.750			
0.7291	46661.09	3.4580	3.4581	-1.0978	25.68	0.32	-0.750			
0.7324	46873.14	3.4550	3.4549	-1.0972	25.68	0.32	-0.750			
0.7356	47081.50	3.4520	3.4519	-1.0858	25.69	0.33	-0.750			
0.7389	47289.64	3.4490	3.4490	-1.0776	25.69	0.33	-0.750			
0.7421	47494.09	3.4460	3.4462	-1.0643	25.70	0.34	-0.750			
0.7453	47700.77	3.4430	3.4430	-1.0670	25.70	0.34	-0.750			
0.7485	47904.87	3.4400	3.4400	-1.0594	25.71	0.35	-0.750			
0.7517	48106.02	3.4370	3.4369	-1.0508	25.71	0.35	-0.750			
0.7548	48307.11	3.4340	3.4342	-1.0418	25.72	0.36	-0.750			
0.7580	48509.19	3.4310	3.4310	-1.0364	25.72	0.36	-0.750			
0.7611	48708.09	3.4280	3.4279	-1.0234	25.73	0.37	-0.750			
0.7641	48903.14	3.4250	3.4250	-1.0130	25.73	0.37	-0.750			
0.7671	49096.51	3.4220	3.4220	-1.0016	25.74	0.38	-0.750			
0.7701	49286.64	3.4190	3.4190	-0.9870	25.74	0.38	-0.750			
0.7731	49475.74	3.4160	3.4160	-0.9713	25.75	0.39	-0.750			
0.7760	49662.08	3.4130	3.4130	-0.9543	25.75	0.39	-0.750			
0.7788	49843.87	3.4100	3.4100	-0.9317	25.76	0.40	-0.750			
0.7816	50022.03	3.4070	3.4070	-0.9105	25.76	0.40	-0.750			
0.7843	50193.14	3.4040	3.4040	-0.8895	25.77	0.41	-0.750			
0.7869	50361.83	3.4010	3.4009	-0.8673	25.77	0.41	-0.750			
0.7895	50525.87	3.3980	3.3980	-0.8427	25.78	0.42	-0.750			
0.7920	50686.44	3.3950	3.3950	-0.8214	25.78	0.42	-0.750			
0.7944	50843.99	3.3920	3.3920	-0.7970	25.78	0.42	-0.750			
0.7968	50994.94	3.3890	3.3890	-0.7682	25.79	0.43	-0.750			
0.7991	51139.86	3.3860	3.3860	-0.7394	25.80	0.44	-0.750			
0.8012	51278.98	3.3830	3.3830	-0.7057	25.80	0.44	-0.750			
0.8033	51411.95	3.3800	3.3799	-0.6763	25.81	0.45	-0.750			
0.8053	51538.40	3.3770	3.3771	-0.6446	25.81	0.45	-0.750			
0.8072	51658.53	3.3740	3.3739	-0.6137	25.82	0.46	-0.750			
0.8090	51773.01	3.3710	3.3710	-0.5865	25.82	0.46	-0.750			
0.8107	51882.69	3.3680	3.3680	-0.5572	25.82	0.46	-0.750			
0.8123	51987.37	3.3650	3.3649	-0.5341	25.83	0.47	-0.750			
0.8139	52087.47	3.3620	3.3621	-0.5083	25.83	0.47	-0.750			
0.8153	52181.74	3.3590	3.3590	-0.4827	25.83	0.47	-0.750			
0.8168	52272.03	3.3560	3.3560	-0.4614	25.84	0.48	-0.750			
0.8181	52357.73	3.3530	3.3530	-0.4395	25.84	0.48	-0.750			
0.8194	52439.65	3.3500	3.3500	-0.4210	25.85	0.49	-0.750			
0.8206	52519.11	3.3470	3.3470	-0.4040	25.85	0.49	-0.750			
0.8218	52593.87	3.3440	3.3440	-0.3867	25.85	0.49	-0.750			
0.8229	52667.07	3.3410	3.3410	-0.3726	25.86	0.50	-0.750			
0.8240	52736.53	3.3380	3.3380	-0.3580	25.86	0.50	-0.750			
0.8251	52803.86	3.3350	3.3350	-0.3445	25.86	0.50	-0.750			
0.8261	52868.77	3.3320	3.3321	-0.3313	25.87	0.51	-0.750			
0.8270	52930.91	3.3290	3.3290	-0.3193	25.87	0.51	-0.750			
0.8280	52990.85	3.3260	3.3260	-0.3088	25.87	0.51	-0.750			
0.8289	53048.68	3.3230	3.3229	-0.2991	25.88	0.52	-0.750			
0.8298	53104.78	3.3200	3.3200	-0.2900	25.88	0.52	-0.750			
0.8306	53159.53	3.3170	3.3170	-0.2819	25.88	0.52	-0.750			
0.8315	53213.03	3.3140	3.3140	-0.2754	25.89	0.53	-0.750			
0.8323	53265.30	3.3110	3.3110	-0.2684	25.89	0.53	-0.750			
0.8331	53315.77	3.3080	3.3079	-0.2608	25.90	0.54	-0.750			
0.8338	53364.87	3.3050	3.3050	-0.2535	25.90	0.54	-0.750			
0.8346	53413.08	3.3020	3.3020	-0.2472	25.91	0.55	-0.750			
0.8353	53459.60	3.2990	3.2991	-0.2421	25.91	0.55	-0.750			
0.8360	53505.40	3.2960	3.2960	-0.2367	25.92	0.56	-0.750			
0.8367	53550.18	3.2930	3.2930	-0.2315	25.92	0.56	-0.750			
0.8374	53594.01	3.2900	3.2899	-0.2261	25.93	0.57	-0.750			
0.8381	53636.86	3.2870	3.2871	-0.2222	25.93	0.57	-0.750			
0.8387	53679.13	3.2840	3.2841	-0.2180	25.94	0.58	-0.750			
0.8394	53720.59	3.2810	3.2810	-0.2139	25.94	0.58	-0.750			
0.8400	53761.23	3.2780	3.2779	-0.2105	25.94	0.58	-0.750			
0.8406	53800.86	3.2750	3.2750	-0.2061	25.95	0.59	-0.750			
0.8413	53840.60	3.2720	3.2720	-0.2027	25.95	0.59	-0.750			
0.8419	53878.86	3.2690	3.2690	-0.1993	25.96	0.60	-0.750			
0.8425	53916.91	3.2660	3.2662	-0.1959	25.96	0.60	-0.750			
0.8430	53953.80	3.2630	3.2630	-0.1924	25.96	0.60	-0.750			
0.8436	53990.33	3.2600	3.2598	-0.1897	25.97	0.61	-0.750			
0.8442	54026.54	3.2570	3.2570	-0.1873	25.97	0.61	-0.750			
0.8447	54062.00	3.2540	3.2540	-0.1847	25.98	0.62	-0.750			
0.8453	54097.27	3.2510	3.2510	-0.1833	25.98	0.62	-0.750			
0.8458	54132.61	3.2480	3.2480	-0.1814	25.98	0.62	-0.750			
0.8464	54167.13	3.2450	3.2450	-0.1784	25.99	0.63	-0.750			
0.8469	54201.16	3.2420	3.2419	-0.1760	25.99	0.63	-0.750			
0.8474	54234.85	3.2390	3.2391	-0.1739	26.00	0.64	-0.750			
0.8479	54267.88	3.2360	3.2359	-0.1718	26.00	0.64	-0.750			
0.8484	54300.62	3.2330	3.2330	-0.1695	26.00	0.64	-0.750			
0.8490	54332.97	3.2300	3.2300	-0.1674	26.01	0.65	-0.750			
0.8494	54364.54	3.2270	3.2270	-0.1655	26.01	0.65	-0.750			
0.8499	54396.32	3.2240	3.2241	-0.1643	26.01	0.65	-0.750			
0.8504	54427.71	3.2210	3.2209	-0.1628	26.02	0.66	-0.750			
0.8509	54458.96	3.2180	3.2181	-0.1605	26.02	0.66	-0.750			
0.8514	54489.61	3.2150	3.2150	-0.1586	26.02	0.66	-0.750			
0.8519	54519.80	3.2120	3.2120	-0.1568	26.03	0.67	-0.750			
0.8523	54549.72	3.2090	3.2090	-0.1549	26.03	0.67	-0.750			
0.8528	54579.26	3.2060	3.2060	-0.1536	26.03	0.67	-0.750			
0.8533	54608.29	3.2030	3.2030	-0.1520	26.04	0.68	-0.750			
0.8537	54637.36	3.2000	3.1999	-0.1509	26.04	0.68	-0.750			
0.8542	54666.26	3.1970	3.1971	-0.1501	26.04	0.68	-0.750			
0.8546	54695.16	3.1940	3.1940	-0.1488	26.05	0.69	-0.750			
0.8551	54723.69	3.1910	3.1911	-0.1473	26.05	0.69	-0.750			
0.8555	54751.89	3.1880	3.1880	-0.1459	26.05	0.69	-0.750			
0.8559	54779.72	3.1850	3.1850	-0.1441	26.06	0.70	-0.750			
0.8564	54807.15	3.1820	3.1821	-0.1427	26.06	0.70	-0.750			
0.8568	54834.30	3.1790	3.1790	-0.1414	26.07	0.71	-0.750			
0.8572	54861.15	3.1760	3.1761	-0.1403	26.07	0.71	-0.750			
0.8576	54888.02	3.1730	3.1730	-0.1396	26.07	0.71	-0.750			
0.8580	54914.81	3.1700	3.1699	-0.1383	26.08	0.72	-0.750			
0.8585	54941.46	3.1670	3.1670	-0.1370	26.08	0.72	-0.750			
0.8589	54967.67	3.1640	3.1641	-0.1358	26.08	0.72	-0.750			
0.8593	54993.59	3.1610	3.1610	-0.1341	26.09	0.73	-0.750			
0.8597	55019.13	3.1580	3.1580	-0.1331	26.09	0.73	-0.750			
0.8601	55044.30	3.1550	3.1550	-0.1323	26.09	0.73	-0.750			
0.8605	55069.37	3.1520	3.1520	-0.1314	26.10	0.74	-0.750			
0.8609	55094.73	3.1490	3.1490	-0.1306	26.10	0.74	-0.750			
0.8612	55119.99	3.1460	3.1460	-0.1298	26.10	0.74	-0.750			
0.8616	55145.02	3.1430	3.1431	-0.1291	26.11	0.75	-0.750			
0.8620	55169.70	3.1400	3.1400	-0.1281	26.11	0.75	-0.750			
0.8624	55194.15	3.1370	3.1369	-0.1267	26.11	0.75	-0.750			
0.8628	55218.13	3.1340	3.1340	-0.1260	26.11	0.75	-0.750			
0.8632	55241.92	3.1310	3.1311	-0.1247	26.12	0.76	-0.750			
0.8635	55265.92	3.1280	3.1280	-0.1243	26.12	0.76	-0.750			
0.8639	55289.75	3.1250	3.1250	-0.1239	26.12	0.76	-0.750			
0.8643	55313.62	3.1220	3.1220	-0.1230	26.13	0.77	-0.750			
0.8646	55337.32	3.1190	3.1191	-0.1224	26.13	0.77	-0.750			
0.8650	55360.84	3.1160	3.1160	-0.1210	26.13	0.77	-0.750			
0.8654	55384.20	3.1130	3.1130	-0.1200	26.14	0.78	-0.750			
0.8657	55407.05	3.1100	3.1101	-0.1187	26.14	0.78	-0.750			
0.8661	55429.65	3.1070	3.1069	-0.1173	26.14	0.78	-0.750			
0.8664	55451.99	3.1040	3.1040	-0.1162	26.15	0.79	-0.750			
0.8668	55474.06	3.1010	3.1010	-0.1151	26.15	0.79	-0.750			
0.8671	55496.08	3.0980	3.0980	-0.1142	26.15	0.79	-0.750			
0.8675	55517.75	3.0950	3.0951	-0.1134	26.16	0.80	-0.750			
0.8678	55539.48	3.0920	3.0920	-0.1128	26.16	0.80	-0.750			
0.8681	55561.06	3.0890	3.0890	-0.1123	26.17	0.81	-0.750			
0.8685	55582.52	3.0860	3.0860	-0.1116	26.17	0.81	-0.750			
0.8688	55604.05	3.0830	3.0830	-0.1108	26.18	0.82	-0.750			
0.8691	55625.35	3.0800	3.0800	-0.1103	26.18	0.82	-0.750			
0.8695	55646.40	3.0770	3.0770	-0.1095	26.18	0.82	-0.750			
0.8698	55667.41	3.0740	3.0741	-0.1088	26.19	0.83	-0.750			
0.8701	55688.14	3.0710	3.0710	-0.1080	26.19	0.83	-0.750			
0.8704	55708.71	3.0680	3.0680	-0.1071	26.19	0.83	-0.750			
0.8708	55729.20	3.0650	3.0649	-0.1065	26.20	0.84	-0.750			
0.8711	55749.50	3.0620	3.0620	-0.1057	26.20	0.84	-0.750			
0.8714	55769.76	3.0590	3.0591	-0.1053	26.21	0.85	-0.750			
0.8717	55790.07	3.0560	3.0560	-0.1047	26.21	0.85	-0.750			
0.8720	55810.09	3.0530	3.0529	-0.1039	26.21	0.85	-0.750			
0.8723	55829.98	3.0500	3.0501	-0.1030	26.22	0.86	-0.750			
0.8727	55849.67	3.0470	3.0469	-0.1021	26.22	0.86	-0.750			
0.8730	55869.14	3.0440	3.0440	-0.1014	26.22	0.86	-0.750			
0.8733	55888.54	3.0410	3.0410	-0.1007	26.23	0.87	-0.750			
0.8736	55907.73	3.0380	3.0380	-0.0999	26.23	0.87	-0.750			
0.8739	55926.86	3.0350	3.0350	-0.0993	26.23	0.87	-0.750			
0.8742	55945.80	3.0320	3.0320	-0.0989	26.24	0.88	-0.750			
0.8744	55964.74	3.0290	3.0290	-0.0984	26.24	0.88	-0.750			
0.8747	55983.66	3.0260	3.0260	-0.0978	26.24	0.88	-0.750			
0.8750	56002.38	3.0230	3.0230	-0.0972	26.25	0.89	-0.750			
0.8753	56020.99	3.0200	3.0200	-0.0965	26.25	0.89	-0.750			
0.8756	56039.45	3.0170	3.0170	-0.0959	26.25	0.89	-0.750			
0.8759	56057.79	3.0140	3.0140	-0.0955	26.26	0.90	-0.750			
0.8762	56076.07	3.0110	3.0109	-0.0949	26.26	0.90	-0.750			
0.8765	56094.08	3.0080	3.0081	-0.0945	26.26	0.90	-0.750			
0.8768	56112.21	3.0050	3.0048	-0.0943	26.27	0.91	-0.750			
0.8770	56130.32	3.0020	3.0020	-0.0946	26.27	0.91	-0.750			
