Ah_balance (normalized)	Ah_balance (mAh)	Voltage - fit (V)	Voltage -  interpolate (V)	dQ/dV (1/V)	Temperature (°C)	Temperature - diff (°C)	Current (C)	R_DC 0ms (mOhm)	R_DC 50ms (mOhm)	R_DC 50 ms PEC (mOhm)
0.0002	12.09	4.1620	4.1619	-0.1543	25.30	0.00	-0.250			
0.0008	51.62	4.1590	4.1590	-0.2562	25.30	0.00	-0.250			
0.0018	113.03	4.1560	4.1559	-0.3544	25.30	0.00	-0.250			
0.0030	192.77	4.1530	4.1529	-0.4318	25.30	0.00	-0.250			
0.0044	284.24	4.1500	4.1501	-0.4967	25.30	0.00	-0.250			
0.0061	392.68	4.1470	4.1473	-0.5543	25.30	0.00	-0.250			
0.0079	506.60	4.1440	4.1440	-0.5916	25.30	-0.00	-0.250			
0.0098	625.79	4.1410	4.1411	-0.6189	25.29	-0.01	-0.250			
0.0117	747.58	4.1380	4.1380	-0.6404	25.29	-0.01	-0.250			
0.0136	872.19	4.1350	4.1351	-0.6612	25.29	-0.01	-0.250			
0.0157	1003.13	4.1320	4.1319	-0.6765	25.29	-0.01	-0.250			
0.0177	1133.79	4.1290	4.1290	-0.6890	25.29	-0.01	-0.250			
0.0198	1267.90	4.1260	4.1260	-0.6980	25.29	-0.01	-0.250	0.387	0.527	
0.0219	1404.43	4.1230	4.1230	-0.7079	25.29	-0.01	-0.250			
0.0241	1540.85	4.1200	4.1200	-0.7110	25.29	-0.01	-0.250			
0.0262	1677.32	4.1170	4.1171	-0.7194	25.30	-0.00	-0.250			
0.0284	1816.06	4.1140	4.1140	-0.7229	25.30	-0.00	-0.250			
0.0306	1955.32	4.1110	4.1110	-0.7321	25.29	-0.01	-0.250			
0.0328	2096.63	4.1080	4.1081	-0.7348	25.29	-0.01	-0.250			
0.0350	2239.54	4.1050	4.1049	-0.7425	25.30	-0.00	-0.250			
0.0372	2381.64	4.1020	4.1020	-0.7486	25.30	0.00	-0.250			
0.0395	2525.31	4.0990	4.0990	-0.7550	25.31	0.01	-0.250	0.392	0.517	
0.0417	2670.91	4.0960	4.0960	-0.7604	25.31	0.01	-0.250			
0.0441	2819.36	4.0930	4.0930	-0.7633	25.31	0.01	-0.250			
0.0463	2966.10	4.0900	4.0900	-0.7647	25.31	0.01	-0.250			
0.0487	3113.63	4.0870	4.0871	-0.7686	25.31	0.01	-0.250			
0.0510	3261.45	4.0840	4.0840	-0.7709	25.31	0.01	-0.250			
0.0533	3408.38	4.0810	4.0810	-0.7731	25.31	0.01	-0.250			
0.0556	3557.81	4.0780	4.0780	-0.7745	25.31	0.01	-0.250			
0.0579	3707.88	4.0750	4.0750	-0.7779	25.31	0.01	-0.250			
0.0603	3858.19	4.0720	4.0720	-0.7791	25.31	0.01	-0.250	0.340	0.502	
0.0626	4006.36	4.0690	4.0688	-0.7814	25.32	0.02	-0.250			
0.0649	4156.01	4.0660	4.0660	-0.7831	25.34	0.04	-0.250			
0.0673	4306.91	4.0630	4.0630	-0.7831	25.34	0.04	-0.250			
0.0697	4458.17	4.0600	4.0601	-0.7910	25.34	0.04	-0.250			
0.0720	4609.49	4.0570	4.0570	-0.7953	25.35	0.05	-0.250			
0.0744	4763.41	4.0540	4.0539	-0.7996	25.36	0.06	-0.250			
0.0768	4918.09	4.0510	4.0511	-0.7985	25.37	0.07	-0.250			
0.0792	5071.43	4.0480	4.0482	-0.7985	25.37	0.07	-0.250	0.398	0.512	
0.0816	5225.43	4.0450	4.0450	-0.7991	25.37	0.07	-0.250			
0.0840	5377.38	4.0420	4.0420	-0.8007	25.38	0.08	-0.250			
0.0864	5529.97	4.0390	4.0389	-0.8015	25.39	0.09	-0.250			
0.0888	5684.36	4.0360	4.0360	-0.8039	25.39	0.09	-0.250			
0.0912	5839.40	4.0330	4.0330	-0.8043	25.39	0.09	-0.250			
0.0937	5994.93	4.0300	4.0300	-0.8083	25.40	0.10	-0.250			
0.0961	6149.88	4.0270	4.0269	-0.8056	25.41	0.11	-0.250			
0.0985	6304.32	4.0240	4.0240	-0.8094	25.42	0.12	-0.250			
0.1009	6459.25	4.0210	4.0210	-0.8100	25.42	0.12	-0.250	0.363	0.506	
0.1034	6615.54	4.0180	4.0179	-0.8132	25.42	0.12	-0.250			
0.1058	6771.90	4.0150	4.0150	-0.8162	25.42	0.12	-0.250			
0.1083	6930.07	4.0120	4.0121	-0.8172	25.42	0.12	-0.250			
0.1107	7086.38	4.0090	4.0091	-0.8163	25.43	0.13	-0.250			
0.1132	7243.76	4.0060	4.0060	-0.8168	25.44	0.14	-0.250			
0.1156	7400.03	4.0030	4.0030	-0.8124	25.44	0.14	-0.250			
0.1181	7556.59	4.0000	3.9999	-0.8141	25.42	0.12	-0.250			
0.1205	7712.01	3.9970	3.9971	-0.8182	25.42	0.12	-0.250	0.383	0.525	
0.1230	7868.97	3.9940	3.9940	-0.8175	25.42	0.12	-0.250			
0.1254	8025.75	3.9910	3.9910	-0.8227	25.42	0.12	-0.250			
0.1279	8184.15	3.9880	3.9880	-0.8214	25.42	0.12	-0.250			
0.1304	8342.84	3.9850	3.9850	-0.8288	25.44	0.14	-0.250			
0.1329	8503.44	3.9820	3.9820	-0.8322	25.43	0.13	-0.250			
0.1354	8662.95	3.9790	3.9789	-0.8318	25.42	0.12	-0.250			
0.1378	8822.24	3.9760	3.9762	-0.8334	25.42	0.12	-0.250			
0.1404	8983.41	3.9730	3.9730	-0.8332	25.42	0.12	-0.250	0.380	0.518	
0.1429	9143.18	3.9700	3.9700	-0.8293	25.42	0.12	-0.250			
0.1453	9301.65	3.9670	3.9670	-0.8303	25.42	0.12	-0.250			
0.1478	9460.56	3.9640	3.9641	-0.8312	25.42	0.12	-0.250			
0.1503	9621.99	3.9610	3.9609	-0.8335	25.41	0.11	-0.250			
0.1528	9781.29	3.9580	3.9579	-0.8343	25.41	0.11	-0.250			
0.1553	9941.64	3.9550	3.9551	-0.8362	25.40	0.10	-0.250			
0.1579	10103.62	3.9520	3.9521	-0.8420	25.39	0.09	-0.250			
0.1604	10264.50	3.9490	3.9490	-0.8416	25.37	0.07	-0.250	0.425	0.521	
0.1629	10426.15	3.9460	3.9460	-0.8400	25.37	0.07	-0.250			
0.1654	10588.41	3.9430	3.9430	-0.8420	25.37	0.07	-0.250			
0.1680	10750.93	3.9400	3.9400	-0.8420	25.36	0.06	-0.250			
0.1705	10911.35	3.9370	3.9371	-0.8415	25.36	0.06	-0.250			
0.1730	11072.31	3.9340	3.9339	-0.8417	25.35	0.05	-0.250			
0.1755	11234.01	3.9310	3.9310	-0.8420	25.35	0.05	-0.250			
0.1781	11395.54	3.9280	3.9281	-0.8439	25.35	0.05	-0.250			
0.1806	11560.06	3.9250	3.9250	-0.8451	25.34	0.04	-0.250	0.385	0.510	
0.1831	11720.67	3.9220	3.9220	-0.8433	25.34	0.04	-0.250			
0.1857	11882.53	3.9190	3.9191	-0.8456	25.35	0.05	-0.250			
0.1882	12044.28	3.9160	3.9160	-0.8448	25.34	0.04	-0.250			
0.1907	12207.41	3.9130	3.9130	-0.8458	25.34	0.04	-0.250			
0.1933	12369.90	3.9100	3.9100	-0.8446	25.34	0.04	-0.250			
0.1958	12532.65	3.9070	3.9069	-0.8466	25.33	0.03	-0.250			
0.1984	12695.41	3.9040	3.9040	-0.8464	25.32	0.02	-0.250			
0.2009	12857.05	3.9010	3.9010	-0.8427	25.33	0.03	-0.250	0.416	0.524	
0.2034	13018.80	3.8980	3.8980	-0.8421	25.34	0.04	-0.250			
0.2059	13180.41	3.8950	3.8950	-0.8433	25.34	0.04	-0.250			
0.2085	13343.20	3.8920	3.8920	-0.8461	25.34	0.04	-0.250			
0.2110	13505.91	3.8890	3.8890	-0.8476	25.34	0.04	-0.250			
0.2136	13668.03	3.8860	3.8861	-0.8423	25.34	0.04	-0.250			
0.2161	13830.85	3.8830	3.8830	-0.8396	25.34	0.04	-0.250			
0.2186	13991.84	3.8800	3.8800	-0.8363	25.34	0.04	-0.250			
0.2211	14151.52	3.8770	3.8771	-0.8341	25.34	0.04	-0.250	0.408	0.520	
0.2236	14310.29	3.8740	3.8739	-0.8362	25.34	0.04	-0.250			
0.2261	14471.04	3.8710	3.8710	-0.8341	25.35	0.05	-0.250			
0.2286	14631.58	3.8680	3.8681	-0.8308	25.36	0.06	-0.250			
0.2311	14792.61	3.8650	3.8650	-0.8313	25.36	0.06	-0.250			
0.2336	14950.34	3.8620	3.8619	-0.8309	25.36	0.06	-0.250			
0.2361	15109.09	3.8590	3.8589	-0.8309	25.36	0.06	-0.250			
0.2386	15268.86	3.8560	3.8561	-0.8320	25.36	0.06	-0.250			
0.2411	15428.54	3.8530	3.8531	-0.8280	25.37	0.07	-0.250	0.426	0.543	
0.2436	15588.75	3.8500	3.8500	-0.8291	25.38	0.08	-0.250			
0.2461	15748.29	3.8470	3.8471	-0.8259	25.39	0.09	-0.250			
0.2485	15906.40	3.8440	3.8439	-0.8191	25.39	0.09	-0.250			
0.2510	16063.47	3.8410	3.8411	-0.8171	25.39	0.09	-0.250			
0.2534	16219.85	3.8380	3.8381	-0.8145	25.39	0.09	-0.250			
0.2559	16376.28	3.8350	3.8349	-0.8169	25.40	0.10	-0.250			
0.2583	16530.63	3.8320	3.8320	-0.8178	25.41	0.11	-0.250			
0.2608	16689.55	3.8290	3.8290	-0.8161	25.42	0.12	-0.250	0.373	0.491	
0.2632	16846.71	3.8260	3.8260	-0.8150	25.43	0.13	-0.250			
0.2657	17003.81	3.8230	3.8230	-0.8126	25.44	0.14	-0.250			
0.2681	17159.06	3.8200	3.8199	-0.8133	25.45	0.15	-0.250			
0.2705	17314.76	3.8170	3.8170	-0.8142	25.45	0.15	-0.250			
0.2730	17469.21	3.8140	3.8140	-0.8138	25.46	0.16	-0.250			
0.2754	17625.76	3.8110	3.8110	-0.8211	25.47	0.17	-0.250			
0.2779	17786.76	3.8080	3.8079	-0.8236	25.47	0.17	-0.250			
0.2804	17945.90	3.8050	3.8049	-0.8239	25.48	0.18	-0.250	0.325	0.528	
0.2829	18103.50	3.8020	3.8021	-0.8258	25.49	0.19	-0.250			
0.2853	18261.53	3.7990	3.7990	-0.8218	25.50	0.20	-0.250			
0.2878	18417.85	3.7960	3.7960	-0.8252	25.50	0.20	-0.250			
0.2903	18576.94	3.7930	3.7930	-0.8261	25.50	0.20	-0.250			
0.2928	18737.04	3.7900	3.7899	-0.8297	25.51	0.21	-0.250			
0.2953	18897.43	3.7870	3.7870	-0.8329	25.51	0.21	-0.250			
0.2978	19056.66	3.7840	3.7840	-0.8318	25.50	0.20	-0.250			
0.3003	19216.76	3.7810	3.7812	-0.8318	25.50	0.20	-0.250	0.397	0.532	
0.3028	19376.46	3.7780	3.7781	-0.8354	25.50	0.20	-0.250			
0.3052	19535.34	3.7750	3.7751	-0.8410	25.51	0.21	-0.250			
0.3078	19698.02	3.7720	3.7720	-0.8489	25.51	0.21	-0.250			
0.3103	19862.29	3.7690	3.7690	-0.8540	25.50	0.20	-0.250			
0.3129	20026.53	3.7660	3.7660	-0.8614	25.51	0.21	-0.250			
0.3155	20193.16	3.7630	3.7629	-0.8652	25.51	0.21	-0.250			
0.3181	20359.67	3.7600	3.7600	-0.8729	25.51	0.21	-0.250			
0.3207	20527.09	3.7570	3.7571	-0.8805	25.51	0.21	-0.250	0.342	0.524	
0.3234	20696.26	3.7540	3.7540	-0.8873	25.51	0.21	-0.250			
0.3261	20867.54	3.7510	3.7510	-0.8955	25.50	0.20	-0.250			
0.3288	21041.15	3.7480	3.7481	-0.9032	25.50	0.20	-0.250			
0.3315	21215.39	3.7450	3.7450	-0.9097	25.50	0.20	-0.250			
0.3342	21390.06	3.7420	3.7419	-0.9178	25.50	0.20	-0.250			
0.3370	21565.34	3.7390	3.7390	-0.9296	25.50	0.20	-0.250			
0.3398	21745.33	3.7360	3.7359	-0.9438	25.49	0.19	-0.250	0.401	0.534	
0.3426	21927.83	3.7330	3.7330	-0.9572	25.48	0.18	-0.250			
0.3455	22113.10	3.7300	3.7300	-0.9720	25.47	0.17	-0.250			
0.3485	22302.92	3.7270	3.7269	-0.9880	25.47	0.17	-0.250			
0.3514	22491.85	3.7240	3.7240	-1.0036	25.47	0.17	-0.250			
0.3545	22686.12	3.7210	3.7211	-1.0211	25.46	0.16	-0.250			
0.3576	22883.47	3.7180	3.7181	-1.0421	25.46	0.16	-0.250			
0.3607	23086.40	3.7150	3.7151	-1.0595	25.46	0.16	-0.250	0.392	0.534	
0.3639	23291.94	3.7120	3.7120	-1.0778	25.46	0.16	-0.250			
0.3672	23500.90	3.7090	3.7090	-1.1004	25.47	0.17	-0.250			
0.3705	23714.01	3.7060	3.7059	-1.1189	25.47	0.17	-0.250			
0.3739	23929.07	3.7030	3.7029	-1.1398	25.47	0.17	-0.250			
0.3773	24148.82	3.7000	3.7000	-1.1658	25.47	0.17	-0.250			
0.3809	24375.43	3.6970	3.6970	-1.1939	25.46	0.16	-0.250	0.394	0.531	
0.3845	24607.34	3.6940	3.6940	-1.2285	25.46	0.16	-0.250			
0.3882	24845.99	3.6910	3.6910	-1.2584	25.46	0.16	-0.250			
0.3921	25091.62	3.6880	3.6880	-1.2895	25.45	0.15	-0.250			
0.3960	25341.83	3.6850	3.6850	-1.3223	25.44	0.14	-0.250			
0.4000	25598.88	3.6820	3.6821	-1.3559	25.44	0.14	-0.250	0.373	0.518	
0.4041	25861.39	3.6790	3.6790	-1.3930	25.44	0.14	-0.250			
0.4083	26132.58	3.6760	3.6760	-1.4297	25.43	0.13	-0.250			
0.4126	26408.54	3.6730	3.6729	-1.4756	25.42	0.12	-0.250			
0.4171	26697.59	3.6700	3.6700	-1.5153	25.42	0.12	-0.250			
0.4218	26993.64	3.6670	3.6669	-1.5571	25.41	0.11	-0.250	0.414	0.526	
0.4265	27296.35	3.6640	3.6640	-1.5923	25.39	0.09	-0.250			
0.4313	27605.32	3.6610	3.6610	-1.6274	25.40	0.10	-0.250			
0.4363	27920.47	3.6580	3.6579	-1.6776	25.38	0.08	-0.250			
0.4413	28243.74	3.6550	3.6551	-1.7304	25.38	0.08	-0.250	0.384	0.525	
0.4466	28582.54	3.6520	3.6519	-1.7871	25.36	0.06	-0.250			
0.4520	28930.47	3.6490	3.6491	-1.8460	25.36	0.06	-0.250			
0.4577	29293.87	3.6460	3.6461	-1.8978	25.35	0.05	-0.250	0.382	0.544	
0.4635	29666.28	3.6430	3.6430	-1.9453	25.32	0.02	-0.250			
0.4694	30041.32	3.6400	3.6401	-1.9893	25.31	0.01	-0.250			
0.4754	30426.85	3.6370	3.6370	-2.0422	25.28	-0.02	-0.250			
0.4816	30823.61	3.6340	3.6340	-2.0982	25.27	-0.03	-0.250	0.356	0.557	
0.4880	31229.31	3.6310	3.6310	-2.1507	25.25	-0.05	-0.250			
0.4945	31650.07	3.6280	3.6280	-2.2130	25.25	-0.05	-0.250			
0.5013	32081.99	3.6250	3.6250	-2.2739	25.25	-0.05	-0.250	0.405	0.556	
0.5082	32523.06	3.6220	3.6221	-2.3302	25.25	-0.05	-0.250			
0.5153	32977.68	3.6190	3.6189	-2.3920	25.26	-0.04	-0.250			
0.5226	33444.24	3.6160	3.6160	-2.4346	25.24	-0.06	-0.250	0.374	0.539	
0.5300	33917.77	3.6130	3.6129	-2.4669	25.24	-0.06	-0.250			
0.5374	34396.62	3.6100	3.6099	-2.4984	25.23	-0.07	-0.250	0.406	0.554	
0.5450	34878.35	3.6070	3.6071	-2.5151	25.23	-0.07	-0.250			
0.5525	35360.99	3.6040	3.6039	-2.5295	25.25	-0.05	-0.250			
0.5602	35852.17	3.6010	3.6010	-2.5471	25.26	-0.04	-0.250	0.411	0.579	
0.5679	36344.48	3.5980	3.5980	-2.5481	25.26	-0.04	-0.250			
0.5756	36836.76	3.5950	3.5950	-2.5341	25.27	-0.03	-0.250			
0.5832	37322.62	3.5920	3.5920	-2.5118	25.27	-0.03	-0.250	0.404	0.568	
0.5907	37802.11	3.5890	3.5889	-2.4734	25.27	-0.03	-0.250			
0.5980	38273.58	3.5860	3.5860	-2.4271	25.28	-0.02	-0.250	0.408	0.549	
0.6053	38736.45	3.5830	3.5831	-2.3749	25.28	-0.02	-0.250			
0.6123	39189.81	3.5800	3.5800	-2.3239	25.28	-0.02	-0.250			
0.6192	39628.92	3.5770	3.5771	-2.2585	25.27	-0.03	-0.250	0.375	0.565	
0.6259	40056.13	3.5740	3.5740	-2.2005	25.29	-0.01	-0.250			
0.6324	40474.43	3.5710	3.5710	-2.1416	25.31	0.01	-0.250			
0.6387	40879.05	3.5680	3.5680	-2.0738	25.32	0.02	-0.250	0.428	0.595	
0.6449	41273.41	3.5650	3.5650	-2.0109	25.32	0.02	-0.250			
0.6508	41651.68	3.5620	3.5621	-1.9481	25.32	0.02	-0.250			
0.6565	42018.94	3.5590	3.5590	-1.8831	25.34	0.04	-0.250			
0.6621	42371.86	3.5560	3.5560	-1.8203	25.34	0.04	-0.250	0.372	0.584	
0.6674	42715.73	3.5530	3.5530	-1.7618	25.35	0.05	-0.250			
0.6727	43050.65	3.5500	3.5500	-1.7037	25.36	0.06	-0.250			
0.6777	43371.79	3.5470	3.5470	-1.6411	25.38	0.08	-0.250			
0.6825	43680.30	3.5440	3.5440	-1.5818	25.39	0.09	-0.250	0.398	0.596	
0.6872	43978.69	3.5410	3.5410	-1.5252	25.41	0.11	-0.250			
0.6916	44264.69	3.5380	3.5381	-1.4682	25.44	0.14	-0.250			
0.6959	44539.70	3.5350	3.5349	-1.4175	25.46	0.16	-0.250			
0.7001	44806.67	3.5320	3.5320	-1.3707	25.48	0.18	-0.250	0.407	0.602	
0.7041	45064.86	3.5290	3.5290	-1.3240	25.51	0.21	-0.250			
0.7080	45314.78	3.5260	3.5260	-1.2799	25.53	0.23	-0.250			
0.7118	45556.12	3.5230	3.5230	-1.2376	25.55	0.25	-0.250			
0.7155	45789.98	3.5200	3.5200	-1.2009	25.57	0.27	-0.250			
0.7190	46015.97	3.5170	3.5170	-1.1641	25.59	0.29	-0.250	0.430	0.600	
0.7224	46234.96	3.5140	3.5140	-1.1301	25.61	0.31	-0.250			
0.7258	46448.43	3.5110	3.5111	-1.1013	25.62	0.32	-0.250			
0.7290	46657.33	3.5080	3.5080	-1.0748	25.63	0.33	-0.250			
0.7322	46859.97	3.5050	3.5051	-1.0544	25.64	0.34	-0.250			
0.7353	47059.38	3.5020	3.5022	-1.0367	25.65	0.35	-0.250			
0.7384	47256.36	3.4990	3.4991	-1.0199	25.66	0.36	-0.250			
0.7414	47449.13	3.4960	3.4959	-1.0139	25.66	0.36	-0.250	0.390	0.606	
0.7444	47641.27	3.4930	3.4931	-1.0158	25.67	0.37	-0.250			
0.7474	47834.81	3.4900	3.4900	-1.0284	25.66	0.36	-0.250			
0.7505	48030.56	3.4870	3.4870	-1.0440	25.67	0.37	-0.250			
0.7536	48230.08	3.4840	3.4841	-1.0749	25.68	0.38	-0.250			
0.7569	48438.60	3.4810	3.4811	-1.1188	25.67	0.37	-0.250			
0.7603	48656.81	3.4780	3.4781	-1.1617	25.66	0.36	-0.250	0.384	0.599	
0.7638	48883.82	3.4750	3.4750	-1.2033	25.67	0.37	-0.250			
0.7675	49119.98	3.4720	3.4721	-1.2533	25.66	0.36	-0.250			
0.7713	49365.06	3.4690	3.4690	-1.2994	25.66	0.36	-0.250			
0.7753	49618.88	3.4660	3.4659	-1.3430	25.65	0.35	-0.250			
0.7794	49881.73	3.4630	3.4630	-1.3802	25.64	0.34	-0.250	0.384	0.622	
0.7836	50152.41	3.4600	3.4600	-1.4131	25.62	0.32	-0.250			
0.7880	50431.37	3.4570	3.4570	-1.4334	25.60	0.30	-0.250			
0.7924	50711.48	3.4540	3.4539	-1.4248	25.59	0.29	-0.250			
0.7967	50987.97	3.4510	3.4510	-1.4039	25.57	0.27	-0.250			
0.8009	51258.13	3.4480	3.4481	-1.3583	25.56	0.26	-0.250	0.417	0.641	
0.8050	51517.65	3.4450	3.4449	-1.2936	25.56	0.26	-0.250			
0.8088	51760.22	3.4420	3.4420	-1.2170	25.55	0.25	-0.250			
0.8123	51986.94	3.4390	3.4390	-1.1407	25.54	0.24	-0.250			
0.8156	52197.53	3.4360	3.4360	-1.0649	25.53	0.23	-0.250			
0.8186	52392.47	3.4330	3.4329	-0.9864	25.52	0.22	-0.250			
0.8215	52574.34	3.4300	3.4300	-0.9178	25.51	0.21	-0.250	0.400	0.649	
0.8241	52743.35	3.4270	3.4270	-0.8572	25.51	0.21	-0.250			
0.8266	52901.19	3.4240	3.4240	-0.7970	25.51	0.21	-0.250			
0.8289	53047.29	3.4210	3.4209	-0.7431	25.51	0.21	-0.250			
0.8310	53183.84	3.4180	3.4180	-0.6927	25.50	0.20	-0.250			
0.8330	53311.79	3.4150	3.4150	-0.6487	25.50	0.20	-0.250			
0.8349	53430.87	3.4120	3.4121	-0.6093	25.50	0.20	-0.250			
0.8366	53543.03	3.4090	3.4089	-0.5710	25.50	0.20	-0.250			
0.8382	53647.66	3.4060	3.4059	-0.5366	25.51	0.21	-0.250			
0.8398	53748.09	3.4030	3.4030	-0.5104	25.51	0.21	-0.250			
0.8413	53842.34	3.4000	3.4000	-0.4819	25.51	0.21	-0.250	0.410	0.672	
0.8427	53932.28	3.3970	3.3970	-0.4590	25.52	0.22	-0.250			
0.8440	54017.74	3.3940	3.3940	-0.4363	25.52	0.22	-0.250			
0.8453	54097.53	3.3910	3.3910	-0.4150	25.52	0.22	-0.250			
0.8465	54176.04	3.3880	3.3879	-0.3995	25.52	0.22	-0.250			
0.8477	54250.37	3.3850	3.3850	-0.3835	25.52	0.22	-0.250			
0.8488	54321.96	3.3820	3.3820	-0.3697	25.52	0.22	-0.250			
0.8499	54391.82	3.3790	3.3790	-0.3563	25.53	0.23	-0.250			
0.8509	54458.89	3.3760	3.3760	-0.3434	25.53	0.23	-0.250			
0.8519	54523.18	3.3730	3.3731	-0.3312	25.53	0.23	-0.250			
0.8529	54585.47	3.3700	3.3700	-0.3200	25.53	0.23	-0.250			
0.8538	54645.68	3.3670	3.3669	-0.3097	25.54	0.24	-0.250			
0.8547	54703.34	3.3640	3.3640	-0.2995	25.54	0.24	-0.250			
0.8556	54760.06	3.3610	3.3610	-0.2915	25.55	0.25	-0.250			
0.8565	54815.24	3.3580	3.3580	-0.2844	25.55	0.25	-0.250			
0.8573	54869.02	3.3550	3.3550	-0.2769	25.55	0.25	-0.250			
0.8582	54921.76	3.3520	3.3520	-0.2708	25.55	0.25	-0.250			
0.8590	54973.08	3.3490	3.3489	-0.2636	25.56	0.26	-0.250			
0.8597	55023.11	3.3460	3.3460	-0.2569	25.56	0.26	-0.250			
0.8605	55071.82	3.3430	3.3430	-0.2498	25.56	0.26	-0.250	0.408	0.689	
0.8612	55119.05	3.3400	3.3399	-0.2437	25.56	0.26	-0.250			
0.8619	55164.66	3.3370	3.3370	-0.2375	25.57	0.27	-0.250			
0.8626	55209.31	3.3340	3.3339	-0.2324	25.57	0.27	-0.250			
0.8633	55253.23	3.3310	3.3310	-0.2273	25.57	0.27	-0.250			
0.8640	55297.27	3.3280	3.3280	-0.2252	25.58	0.28	-0.250			
0.8647	55339.82	3.3250	3.3250	-0.2208	25.58	0.28	-0.250			
0.8653	55382.03	3.3220	3.3221	-0.2170	25.58	0.28	-0.250			
0.8660	55423.26	3.3190	3.3190	-0.2129	25.59	0.29	-0.250			
0.8666	55463.73	3.3160	3.3160	-0.2087	25.59	0.29	-0.250			
0.8672	55503.31	3.3130	3.3130	-0.2045	25.59	0.29	-0.250			
0.8678	55541.92	3.3100	3.3101	-0.2014	25.60	0.30	-0.250			
0.8684	55580.25	3.3070	3.3070	-0.1980	25.60	0.30	-0.250			
0.8690	55617.98	3.3040	3.3040	-0.1950	25.60	0.30	-0.250			
0.8696	55655.00	3.3010	3.3009	-0.1916	25.61	0.31	-0.250			
0.8702	55691.72	3.2980	3.2980	-0.1885	25.61	0.31	-0.250			
0.8707	55727.74	3.2950	3.2950	-0.1854	25.62	0.32	-0.250			
0.8713	55762.91	3.2920	3.2920	-0.1821	25.62	0.32	-0.250			
0.8718	55797.42	3.2890	3.2890	-0.1796	25.62	0.32	-0.250			
0.8724	55831.21	3.2860	3.2859	-0.1764	25.63	0.33	-0.250			
0.8729	55864.85	3.2830	3.2830	-0.1744	25.63	0.33	-0.250			
0.8734	55898.24	3.2800	3.2800	-0.1718	25.63	0.33	-0.250			
0.8739	55931.00	3.2770	3.2770	-0.1697	25.64	0.34	-0.250			
0.8744	55963.39	3.2740	3.2741	-0.1678	25.64	0.34	-0.250			
0.8749	55995.39	3.2710	3.2709	-0.1655	25.64	0.34	-0.250			
0.8754	56026.91	3.2680	3.2680	-0.1633	25.64	0.34	-0.250			
0.8759	56057.94	3.2650	3.2650	-0.1608	25.65	0.35	-0.250			
0.8764	56088.68	3.2620	3.2620	-0.1589	25.65	0.35	-0.250			
0.8769	56119.00	3.2590	3.2590	-0.1568	25.65	0.35	-0.250			
0.8773	56148.99	3.2560	3.2560	-0.1550	25.65	0.35	-0.250			
0.8778	56178.38	3.2530	3.2530	-0.1530	25.66	0.36	-0.250			
0.8782	56207.46	3.2500	3.2500	-0.1511	25.66	0.36	-0.250			
0.8787	56236.27	3.2470	3.2470	-0.1500	25.66	0.36	-0.250			
0.8791	56264.88	3.2440	3.2440	-0.1488	25.67	0.37	-0.250			
0.8796	56294.84	3.2410	3.2409	-0.1482	25.67	0.37	-0.250			
0.8800	56323.02	3.2380	3.2377	-0.1454	25.67	0.37	-0.250			
0.8805	56351.15	3.2350	3.2347	-0.1425	25.68	0.38	-0.250	0.417	0.719	
0.8809	56378.20	3.2320	3.2319	-0.1405	25.68	0.38	-0.250			
0.8813	56404.36	3.2290	3.2287	-0.1379	25.68	0.38	-0.250			
0.8817	56430.62	3.2260	3.2258	-0.1356	25.68	0.38	-0.250			
0.8821	56455.13	3.2230	3.2230	-0.1316	25.68	0.38	-0.250			
0.8825	56480.71	3.2200	3.2201	-0.1318	25.69	0.39	-0.250			
0.8829	56506.97	3.2170	3.2170	-0.1331	25.69	0.39	-0.250			
0.8833	56532.38	3.2140	3.2141	-0.1316	25.69	0.39	-0.250			
0.8837	56557.49	3.2110	3.2109	-0.1299	25.69	0.39	-0.250			
0.8841	56582.22	3.2080	3.2080	-0.1281	25.69	0.39	-0.250			
0.8845	56606.70	3.2050	3.2050	-0.1267	25.70	0.40	-0.250			
0.8849	56630.79	3.2020	3.2021	-0.1256	25.70	0.40	-0.250			
0.8852	56654.89	3.1990	3.1990	-0.1245	25.70	0.40	-0.250			
0.8856	56678.50	3.1960	3.1960	-0.1229	25.70	0.40	-0.250			
0.8860	56701.94	3.1930	3.1930	-0.1218	25.70	0.40	-0.250			
0.8863	56725.27	3.1900	3.1901	-0.1206	25.71	0.41	-0.250			
0.8867	56748.44	3.1870	3.1870	-0.1196	25.71	0.41	-0.250			
0.8871	56771.28	3.1840	3.1840	-0.1184	25.71	0.41	-0.250			
0.8874	56793.98	3.1810	3.1809	-0.1172	25.71	0.41	-0.250			
0.8878	56816.19	3.1780	3.1780	-0.1158	25.71	0.41	-0.250			
0.8881	56838.34	3.1750	3.1750	-0.1149	25.71	0.41	-0.250			
0.8884	56860.31	3.1720	3.1720	-0.1139	25.72	0.42	-0.250			
0.8888	56882.14	3.1690	3.1690	-0.1128	25.72	0.42	-0.250			
0.8891	56903.71	3.1660	3.1660	-0.1117	25.72	0.42	-0.250			
0.8895	56925.00	3.1630	3.1630	-0.1107	25.72	0.42	-0.250			
0.8898	56946.15	3.1600	3.1600	-0.1096	25.72	0.42	-0.250			
0.8901	56967.17	3.1570	3.1570	-0.1084	25.73	0.43	-0.250			
0.8904	56987.91	3.1540	3.1539	-0.1072	25.73	0.43	-0.250			
0.8908	57008.26	3.1510	3.1510	-0.1063	25.73	0.43	-0.250			
0.8911	57028.50	3.1480	3.1480	-0.1051	25.74	0.44	-0.250			
0.8914	57048.59	3.1450	3.1450	-0.1042	25.74	0.44	-0.250			
0.8917	57068.51	3.1420	3.1420	-0.1032	25.74	0.44	-0.250			
0.8920	57088.25	3.1390	3.1389	-0.1023	25.74	0.44	-0.250			
0.8923	57107.73	3.1360	3.1361	-0.1012	25.75	0.45	-0.250			
0.8926	57127.12	3.1330	3.1330	-0.1003	25.75	0.45	-0.250			
0.8929	57146.42	3.1300	3.1300	-0.0995	25.75	0.45	-0.250			
0.8932	57165.36	3.1270	3.1270	-0.0985	25.76	0.46	-0.250			
0.8935	57184.09	3.1240	3.1240	-0.0973	25.76	0.46	-0.250			
0.8938	57202.63	3.1210	3.1210	-0.0966	25.76	0.46	-0.250			
0.8941	57221.05	3.1180	3.1180	-0.0958	25.76	0.46	-0.250			
0.8944	57239.39	3.1150	3.1150	-0.0950	25.76	0.46	-0.250			
0.8946	57257.53	3.1120	3.1119	-0.0943	25.77	0.47	-0.250			
0.8949	57275.67	3.1090	3.1090	-0.0934	25.77	0.47	-0.250			
0.8952	57293.60	3.1060	3.1060	-0.0926	25.77	0.47	-0.250			
0.8955	57311.23	3.1030	3.1031	-0.0918	25.77	0.47	-0.250			
0.8958	57328.79	3.1000	3.1001	-0.0909	25.77	0.47	-0.250			
0.8960	57346.11	3.0970	3.0969	-0.0901	25.77	0.47	-0.250			
0.8963	57363.25	3.0940	3.0940	-0.0891	25.77	0.47	-0.250			
0.8966	57380.29	3.0910	3.0909	-0.0884	25.77	0.47	-0.250			
0.8968	57397.15	3.0880	3.0881	-0.0875	25.78	0.48	-0.250			
0.8971	57413.89	3.0850	3.0849	-0.0869	25.78	0.48	-0.250			
0.8974	57430.59	3.0820	3.0820	-0.0863	25.78	0.48	-0.250			
0.8976	57447.08	3.0790	3.0790	-0.0854	25.78	0.48	-0.250			
0.8979	57463.36	3.0760	3.0761	-0.0846	25.78	0.48	-0.250			
0.8981	57479.43	3.0730	3.0730	-0.0841	25.78	0.48	-0.250			
0.8984	57495.46	3.0700	3.0700	-0.0834	25.79	0.49	-0.250			
0.8986	57511.43	3.0670	3.0670	-0.0830	25.79	0.49	-0.250			
0.8989	57527.40	3.0640	3.0640	-0.0822	25.79	0.49	-0.250			
0.8991	57543.15	3.0610	3.0610	-0.0816	25.79	0.49	-0.250			
0.8994	57558.57	3.0580	3.0581	-0.0814	25.80	0.50	-0.250			
0.8996	57574.16	3.0550	3.0551	-0.0810	25.80	0.50	-0.250			
0.8998	57589.62	3.0520	3.0520	-0.0807	25.80	0.50	-0.250			
0.9001	57605.34	3.0490	3.0489	-0.0793	25.80	0.50	-0.250			
0.9003	57620.61	3.0460	3.0458	-0.0786	25.80	0.50	-0.250			
0.9006	57635.51	3.0430	3.0429	-0.0778	25.81	0.51	-0.250			
0.9008	57650.35	3.0400	3.0402	-0.0769	25.81	0.51	-0.250	0.428	0.726	
0.9010	57665.27	3.0370	3.0369	-0.0762	25.81	0.51	-0.250			
0.9012	57679.59	3.0340	3.0339	-0.0755	25.81	0.51	-0.250			
0.9015	57693.58	3.0310	3.0310	-0.0739	25.82	0.52	-0.250			
0.9017	57707.88	3.0280	3.0280	-0.0736	25.82	0.52	-0.250			
0.9019	57721.97	3.0250	3.0251	-0.0732	25.82	0.52	-0.250			
0.9021	57736.20	3.0220	3.0220	-0.0731	25.82	0.52	-0.250			
0.9023	57750.13	3.0190	3.0190	-0.0726	25.82	0.52	-0.250			
0.9026	57764.01	3.0160	3.0160	-0.0720	25.83	0.53	-0.250			
0.9028	57777.71	3.0130	3.0129	-0.0714	25.83	0.53	-0.250			
0.9030	57791.38	3.0100	3.0100	-0.0710	25.83	0.53	-0.250			
0.9032	57804.95	3.0070	3.0070	-0.0706	25.83	0.53	-0.250			
0.9034	57818.46	3.0040	3.0040	-0.0701	25.83	0.53	-0.250			
