Ah_balance (normalized)	Ah_balance (mAh)	Voltage - fit (V)	Voltage -  interpolate (V)	dQ/dV (1/V)	Temperature (°C)	Temperature - diff (°C)	Current (C)	R_DC 0ms (mOhm)	R_DC 50ms (mOhm)	R_DC 50 ms PEC (mOhm)
0.2000	12797.52	3.9360	3.9356	-0.1263	25.64	0.01	-0.750			
0.2004	12825.71	3.9330	3.9328	-0.1708	25.64	0.01	-0.750			
0.2010	12862.33	3.9300	3.9301	-0.2188	25.64	0.01	-0.750			
0.2017	12909.59	3.9270	3.9271	-0.2669	25.64	0.01	-0.750			
0.2026	12966.43	3.9240	3.9239	-0.3093	25.64	0.01	-0.750			
0.2036	13031.10	3.9210	3.9211	-0.3540	25.63	0.00	-0.750			
0.2047	13103.16	3.9180	3.9181	-0.3940	25.63	0.00	-0.750			
0.2060	13183.61	3.9150	3.9150	-0.4316	25.63	0.00	-0.750			
0.2074	13270.80	3.9120	3.9119	-0.4672	25.63	0.00	-0.750			
0.2088	13364.11	3.9090	3.9091	-0.4983	25.63	0.00	-0.750			
0.2104	13464.88	3.9060	3.9060	-0.5276	25.63	-0.00	-0.750			
0.2120	13569.51	3.9030	3.9030	-0.5530	25.63	-0.00	-0.750			
0.2137	13678.71	3.9000	3.9001	-0.5745	25.63	-0.00	-0.750			
0.2155	13791.80	3.8970	3.8970	-0.5920	25.62	-0.01	-0.750			
0.2173	13908.36	3.8940	3.8939	-0.6098	25.62	-0.01	-0.750			
0.2192	14026.86	3.8910	3.8911	-0.6213	25.62	-0.01	-0.750			
0.2211	14147.95	3.8880	3.8880	-0.6342	25.62	-0.01	-0.750			
0.2230	14270.88	3.8850	3.8850	-0.6426	25.62	-0.01	-0.750			
0.2249	14395.47	3.8820	3.8820	-0.6503	25.62	-0.01	-0.750			
0.2269	14520.73	3.8790	3.8790	-0.6593	25.62	-0.01	-0.750			
0.2289	14649.37	3.8760	3.8760	-0.6649	25.62	-0.01	-0.750			
0.2309	14778.38	3.8730	3.8730	-0.6683	25.62	-0.01	-0.750			
0.2329	14906.86	3.8700	3.8700	-0.6730	25.62	-0.01	-0.750			
0.2349	15036.63	3.8670	3.8670	-0.6743	25.62	-0.01	-0.750			
0.2370	15166.35	3.8640	3.8640	-0.6768	25.62	-0.01	-0.750			
0.2390	15296.33	3.8610	3.8610	-0.6778	25.62	-0.01	-0.750			
0.2410	15425.84	3.8580	3.8581	-0.6805	25.62	-0.01	-0.750			
0.2431	15557.75	3.8550	3.8550	-0.6839	25.62	-0.01	-0.750			
0.2451	15689.33	3.8520	3.8520	-0.6861	25.62	-0.01	-0.750			
0.2472	15821.06	3.8490	3.8490	-0.6849	25.62	-0.01	-0.750			
0.2493	15953.52	3.8460	3.8460	-0.6864	25.62	-0.01	-0.750			
0.2513	16084.28	3.8430	3.8430	-0.6873	25.62	-0.01	-0.750			
0.2534	16216.60	3.8400	3.8400	-0.6879	25.62	-0.01	-0.750			
0.2554	16348.63	3.8370	3.8370	-0.6868	25.62	-0.01	-0.750			
0.2575	16480.82	3.8340	3.8340	-0.6881	25.62	-0.01	-0.750			
0.2596	16613.03	3.8310	3.8310	-0.6887	25.62	-0.01	-0.750			
0.2617	16745.62	3.8280	3.8280	-0.6897	25.62	-0.01	-0.750			
0.2637	16877.77	3.8250	3.8250	-0.6910	25.62	-0.01	-0.750			
0.2658	17010.74	3.8220	3.8220	-0.6882	25.62	-0.01	-0.750			
0.2679	17143.27	3.8190	3.8190	-0.6896	25.62	-0.01	-0.750			
0.2699	17275.71	3.8160	3.8161	-0.6886	25.62	-0.01	-0.750			
0.2720	17407.70	3.8130	3.8130	-0.6869	25.62	-0.01	-0.750			
0.2741	17539.50	3.8100	3.8100	-0.6847	25.62	-0.01	-0.750			
0.2761	17669.84	3.8070	3.8070	-0.6880	25.62	-0.01	-0.750			
0.2782	17802.19	3.8040	3.8040	-0.6888	25.62	-0.01	-0.750			
0.2802	17935.54	3.8010	3.8009	-0.6924	25.62	-0.01	-0.750			
0.2823	18068.01	3.7980	3.7980	-0.6913	25.62	-0.01	-0.750			
0.2844	18201.45	3.7950	3.7951	-0.6933	25.62	-0.01	-0.750			
0.2865	18334.93	3.7920	3.7920	-0.6929	25.62	-0.01	-0.750			
0.2886	18467.75	3.7890	3.7890	-0.6939	25.62	-0.01	-0.750			
0.2906	18600.11	3.7860	3.7860	-0.6922	25.62	-0.01	-0.750			
0.2927	18733.14	3.7830	3.7830	-0.6973	25.62	-0.01	-0.750			
0.2948	18866.71	3.7800	3.7800	-0.6998	25.62	-0.01	-0.750			
0.2969	19001.75	3.7770	3.7770	-0.7033	25.62	-0.01	-0.750			
0.2990	19136.84	3.7740	3.7740	-0.7077	25.62	-0.01	-0.750			
0.3011	19273.19	3.7710	3.7711	-0.7121	25.62	-0.01	-0.750			
0.3033	19410.73	3.7680	3.7680	-0.7136	25.62	-0.01	-0.750			
0.3054	19548.31	3.7650	3.7650	-0.7171	25.62	-0.01	-0.750			
0.3076	19685.36	3.7620	3.7619	-0.7196	25.62	-0.01	-0.750			
0.3097	19823.55	3.7590	3.7591	-0.7238	25.62	-0.01	-0.750			
0.3119	19963.53	3.7560	3.7559	-0.7254	25.62	-0.01	-0.750			
0.3141	20102.47	3.7530	3.7530	-0.7304	25.62	-0.01	-0.750			
0.3163	20243.36	3.7500	3.7500	-0.7306	25.61	-0.02	-0.750			
0.3185	20385.31	3.7470	3.7470	-0.7366	25.61	-0.02	-0.750			
0.3207	20526.51	3.7440	3.7439	-0.7414	25.61	-0.02	-0.750			
0.3230	20668.89	3.7410	3.7411	-0.7471	25.61	-0.02	-0.750			
0.3252	20812.27	3.7380	3.7379	-0.7545	25.61	-0.02	-0.750			
0.3275	20958.28	3.7350	3.7351	-0.7628	25.61	-0.02	-0.750			
0.3298	21104.66	3.7320	3.7320	-0.7671	25.60	-0.03	-0.750			
0.3321	21253.35	3.7290	3.7290	-0.7791	25.60	-0.03	-0.750			
0.3344	21403.93	3.7260	3.7260	-0.7854	25.60	-0.03	-0.750			
0.3368	21555.14	3.7230	3.7230	-0.7922	25.60	-0.03	-0.750			
0.3392	21708.19	3.7200	3.7200	-0.8019	25.59	-0.04	-0.750			
0.3416	21863.01	3.7170	3.7170	-0.8108	25.59	-0.04	-0.750			
0.3441	22019.77	3.7140	3.7140	-0.8229	25.58	-0.05	-0.750			
0.3465	22178.59	3.7110	3.7111	-0.8349	25.58	-0.05	-0.750			
0.3491	22339.35	3.7080	3.7080	-0.8417	25.58	-0.05	-0.750			
0.3516	22502.69	3.7050	3.7051	-0.8576	25.57	-0.06	-0.750			
0.3542	22667.04	3.7020	3.7020	-0.8727	25.57	-0.06	-0.750			
0.3568	22835.56	3.6990	3.6989	-0.8898	25.56	-0.07	-0.750			
0.3595	23008.39	3.6960	3.6961	-0.9021	25.56	-0.07	-0.750			
0.3622	23182.46	3.6930	3.6930	-0.9198	25.55	-0.08	-0.750			
0.3650	23360.77	3.6900	3.6901	-0.9400	25.55	-0.08	-0.750			
0.3679	23543.57	3.6870	3.6869	-0.9617	25.55	-0.08	-0.750			
0.3708	23728.82	3.6840	3.6840	-0.9821	25.54	-0.09	-0.750			
0.3737	23919.23	3.6810	3.6810	-1.0049	25.54	-0.09	-0.750			
0.3768	24115.71	3.6780	3.6780	-1.0265	25.53	-0.10	-0.750			
0.3799	24316.06	3.6750	3.6749	-1.0482	25.53	-0.10	-0.750			
0.3831	24517.71	3.6720	3.6720	-1.0668	25.52	-0.11	-0.750			
0.3863	24724.10	3.6690	3.6690	-1.0867	25.52	-0.11	-0.750			
0.3896	24933.90	3.6660	3.6660	-1.1115	25.51	-0.12	-0.750			
0.3930	25148.81	3.6630	3.6630	-1.1362	25.51	-0.12	-0.750			
0.3964	25369.30	3.6600	3.6600	-1.1640	25.50	-0.13	-0.750			
0.4000	25597.78	3.6570	3.6570	-1.1947	25.49	-0.14	-0.750			
0.4036	25829.46	3.6540	3.6540	-1.2191	25.49	-0.14	-0.750			
0.4073	26066.09	3.6510	3.6510	-1.2449	25.48	-0.15	-0.750			
0.4111	26308.06	3.6480	3.6481	-1.2703	25.48	-0.15	-0.750			
0.4149	26553.26	3.6450	3.6450	-1.2940	25.48	-0.15	-0.750			
0.4188	26804.63	3.6420	3.6420	-1.3182	25.47	-0.16	-0.750			
0.4228	27061.94	3.6390	3.6390	-1.3436	25.47	-0.16	-0.750			
0.4269	27320.79	3.6360	3.6360	-1.3716	25.47	-0.16	-0.750			
0.4310	27586.16	3.6330	3.6330	-1.4041	25.46	-0.17	-0.750			
0.4353	27858.57	3.6300	3.6300	-1.4341	25.46	-0.17	-0.750			
0.4396	28134.32	3.6270	3.6269	-1.4734	25.46	-0.17	-0.750			
0.4441	28422.72	3.6240	3.6240	-1.5025	25.46	-0.17	-0.750			
0.4486	28713.42	3.6210	3.6210	-1.5423	25.46	-0.17	-0.750			
0.4534	29017.54	3.6180	3.6180	-1.5757	25.45	-0.18	-0.750			
0.4582	29321.76	3.6150	3.6150	-1.5957	25.45	-0.18	-0.750			
0.4630	29630.48	3.6120	3.6120	-1.6236	25.45	-0.18	-0.750			
0.4679	29942.88	3.6090	3.6089	-1.6600	25.44	-0.19	-0.750			
0.4729	30262.96	3.6060	3.6059	-1.6780	25.44	-0.19	-0.750			
0.4780	30590.68	3.6030	3.6030	-1.7181	25.44	-0.19	-0.750			
0.4832	30922.30	3.6000	3.6000	-1.7468	25.44	-0.19	-0.750			
0.4885	31264.21	3.5970	3.5970	-1.7841	25.44	-0.19	-0.750			
0.4939	31609.33	3.5940	3.5941	-1.8200	25.44	-0.19	-0.750			
0.4994	31961.62	3.5910	3.5910	-1.8465	25.44	-0.19	-0.750			
0.5050	32317.97	3.5880	3.5880	-1.8759	25.44	-0.19	-0.750			
0.5107	32683.56	3.5850	3.5850	-1.9066	25.44	-0.19	-0.750			
0.5165	33056.43	3.5820	3.5820	-1.9349	25.44	-0.19	-0.750			
0.5224	33430.47	3.5790	3.5790	-1.9616	25.44	-0.19	-0.750			
0.5283	33808.28	3.5760	3.5761	-1.9804	25.44	-0.19	-0.750			
0.5342	34188.36	3.5730	3.5730	-2.0155	25.44	-0.19	-0.750			
0.5403	34578.11	3.5700	3.5701	-2.0283	25.44	-0.19	-0.750	0.373	0.548	
0.5464	34969.59	3.5670	3.5670	-2.0582	25.45	-0.18	-0.750			
0.5527	35370.45	3.5640	3.5642	-2.0760	25.45	-0.18	-0.750			
0.5590	35773.43	3.5610	3.5609	-2.0843	25.45	-0.18	-0.750			
0.5652	36174.85	3.5580	3.5581	-2.0883	25.46	-0.17	-0.750			
0.5715	36573.31	3.5550	3.5551	-2.0854	25.47	-0.16	-0.750			
0.5778	36977.58	3.5520	3.5519	-2.0869	25.47	-0.16	-0.750			
0.5840	37378.42	3.5490	3.5489	-2.0776	25.47	-0.16	-0.750			
0.5902	37774.18	3.5460	3.5461	-2.0761	25.48	-0.15	-0.750			
0.5965	38176.54	3.5430	3.5431	-2.0740	25.50	-0.13	-0.750			
0.6027	38575.82	3.5400	3.5399	-2.0550	25.50	-0.13	-0.750			
0.6089	38967.16	3.5370	3.5371	-2.0369	25.51	-0.12	-0.750			
0.6150	39357.49	3.5340	3.5340	-2.0051	25.52	-0.11	-0.750			
0.6210	39741.52	3.5310	3.5309	-1.9809	25.54	-0.09	-0.750			
0.6268	40117.02	3.5280	3.5281	-1.9308	25.55	-0.08	-0.750			
0.6326	40486.99	3.5250	3.5250	-1.9108	25.56	-0.07	-0.750			
0.6383	40848.48	3.5220	3.5220	-1.8782	25.57	-0.06	-0.750			
0.6438	41204.18	3.5190	3.5189	-1.8284	25.58	-0.05	-0.750			
0.6493	41555.63	3.5160	3.5161	-1.7840	25.59	-0.04	-0.750			
0.6546	41894.04	3.5130	3.5131	-1.7350	25.61	-0.02	-0.750			
0.6597	42222.72	3.5100	3.5100	-1.6924	25.62	-0.01	-0.750			
0.6647	42542.74	3.5070	3.5069	-1.6405	25.63	-0.00	-0.750			
0.6696	42851.55	3.5040	3.5040	-1.5907	25.64	0.01	-0.750			
0.6743	43152.46	3.5010	3.5012	-1.5423	25.65	0.02	-0.750			
0.6788	43445.97	3.4980	3.4980	-1.4998	25.67	0.04	-0.750			
0.6833	43730.65	3.4950	3.4949	-1.4581	25.69	0.06	-0.750			
0.6876	44003.64	3.4920	3.4919	-1.4073	25.70	0.07	-0.750			
0.6917	44268.36	3.4890	3.4890	-1.3644	25.71	0.08	-0.750			
0.6957	44527.73	3.4860	3.4861	-1.3297	25.72	0.09	-0.750			
0.6997	44778.07	3.4830	3.4830	-1.2897	25.73	0.10	-0.750			
0.7035	45023.85	3.4800	3.4800	-1.2575	25.74	0.11	-0.750			
0.7072	45260.27	3.4770	3.4770	-1.2219	25.75	0.12	-0.750			
0.7108	45491.19	3.4740	3.4741	-1.1937	25.76	0.13	-0.750			
0.7143	45718.20	3.4710	3.4710	-1.1679	25.77	0.14	-0.750			
0.7178	45938.02	3.4680	3.4679	-1.1490	25.77	0.14	-0.750			
0.7212	46155.49	3.4650	3.4652	-1.1270	25.78	0.15	-0.750			
0.7245	46370.43	3.4620	3.4619	-1.1183	25.79	0.16	-0.750			
0.7279	46583.76	3.4590	3.4590	-1.1070	25.80	0.17	-0.750			
0.7312	46795.39	3.4560	3.4560	-1.0974	25.81	0.18	-0.750			
0.7344	47003.45	3.4530	3.4531	-1.0873	25.82	0.19	-0.750			
0.7377	47212.92	3.4500	3.4500	-1.0821	25.83	0.20	-0.750			
0.7409	47419.24	3.4470	3.4470	-1.0750	25.83	0.20	-0.750			
0.7441	47624.84	3.4440	3.4440	-1.0708	25.84	0.21	-0.750			
0.7473	47828.46	3.4410	3.4410	-1.0692	25.84	0.21	-0.750			
0.7505	48034.90	3.4380	3.4380	-1.0607	25.85	0.22	-0.750			
0.7537	48239.57	3.4350	3.4350	-1.0532	25.85	0.22	-0.750			
0.7569	48441.57	3.4320	3.4319	-1.0416	25.86	0.23	-0.750			
0.7600	48640.60	3.4290	3.4291	-1.0305	25.86	0.23	-0.750			
0.7631	48837.11	3.4260	3.4260	-1.0191	25.87	0.24	-0.750			
0.7661	49031.30	3.4230	3.4230	-1.0015	25.88	0.25	-0.750			
0.7691	49221.62	3.4200	3.4200	-0.9810	25.88	0.25	-0.750			
0.7720	49410.85	3.4170	3.4170	-0.9704	25.89	0.26	-0.750			
0.7749	49594.80	3.4140	3.4140	-0.9547	25.90	0.27	-0.750			
0.7778	49776.18	3.4110	3.4110	-0.9368	25.90	0.27	-0.750			
0.7805	49954.27	3.4080	3.4080	-0.9181	25.91	0.28	-0.750			
0.7833	50129.23	3.4050	3.4049	-0.9012	25.92	0.29	-0.750			
0.7860	50302.12	3.4020	3.4021	-0.8836	25.92	0.29	-0.750			
0.7886	50471.16	3.3990	3.3990	-0.8622	25.93	0.30	-0.750			
0.7912	50634.56	3.3960	3.3960	-0.8334	25.94	0.31	-0.750			
0.7936	50792.71	3.3930	3.3930	-0.8043	25.94	0.31	-0.750			
0.7960	50944.83	3.3900	3.3901	-0.7755	25.95	0.32	-0.750			
0.7983	51090.54	3.3870	3.3869	-0.7429	25.95	0.32	-0.750			
0.8005	51229.07	3.3840	3.3839	-0.7124	25.96	0.33	-0.750			
0.8025	51363.13	3.3810	3.3811	-0.6826	25.96	0.33	-0.750			
0.8046	51491.26	3.3780	3.3780	-0.6534	25.97	0.34	-0.750			
0.8065	51615.65	3.3750	3.3749	-0.6243	25.97	0.34	-0.750			
0.8083	51732.08	3.3720	3.3721	-0.5958	25.98	0.35	-0.750			
0.8101	51843.30	3.3690	3.3689	-0.5658	25.98	0.35	-0.750			
0.8117	51948.47	3.3660	3.3659	-0.5401	25.99	0.36	-0.750			
0.8132	52047.87	3.3630	3.3631	-0.5121	25.99	0.36	-0.750			
0.8148	52144.19	3.3600	3.3600	-0.4898	26.00	0.37	-0.750			
0.8162	52236.63	3.3570	3.3570	-0.4686	26.00	0.37	-0.750			
0.8176	52324.04	3.3540	3.3540	-0.4469	26.01	0.38	-0.750			
0.8189	52407.05	3.3510	3.3510	-0.4256	26.01	0.38	-0.750			
0.8201	52487.01	3.3480	3.3480	-0.4080	26.02	0.39	-0.750			
0.8213	52562.69	3.3450	3.3450	-0.3907	26.02	0.39	-0.750			
0.8224	52635.72	3.3420	3.3420	-0.3746	26.02	0.39	-0.750			
0.8235	52706.03	3.3390	3.3390	-0.3601	26.03	0.40	-0.750			
0.8246	52773.34	3.3360	3.3360	-0.3477	26.03	0.40	-0.750			
0.8256	52838.89	3.3330	3.3331	-0.3357	26.04	0.41	-0.750			
0.8266	52902.07	3.3300	3.3299	-0.3238	26.04	0.41	-0.750			
0.8275	52962.93	3.3270	3.3270	-0.3130	26.05	0.42	-0.750			
0.8285	53021.23	3.3240	3.3241	-0.3041	26.05	0.42	-0.750			
0.8294	53079.07	3.3210	3.3210	-0.2962	26.06	0.43	-0.750			
0.8302	53135.02	3.3180	3.3179	-0.2874	26.06	0.43	-0.750			
0.8311	53189.21	3.3150	3.3150	-0.2795	26.07	0.44	-0.750			
0.8319	53242.44	3.3120	3.3121	-0.2722	26.07	0.44	-0.750			
0.8327	53293.77	3.3090	3.3089	-0.2649	26.07	0.44	-0.750			
0.8335	53343.62	3.3060	3.3060	-0.2567	26.08	0.45	-0.750			
0.8342	53391.87	3.3030	3.3030	-0.2499	26.08	0.45	-0.750			
0.8350	53439.30	3.3000	3.3000	-0.2448	26.09	0.46	-0.750			
0.8357	53485.69	3.2970	3.2970	-0.2391	26.09	0.46	-0.750			
0.8364	53530.59	3.2940	3.2940	-0.2344	26.10	0.47	-0.750			
0.8371	53575.84	3.2910	3.2909	-0.2288	26.10	0.47	-0.750			
0.8378	53618.71	3.2880	3.2881	-0.2238	26.10	0.47	-0.750			
0.8385	53661.16	3.2850	3.2851	-0.2189	26.11	0.48	-0.750			
0.8391	53702.66	3.2820	3.2821	-0.2150	26.11	0.48	-0.750			
0.8397	53743.24	3.2790	3.2788	-0.2116	26.12	0.49	-0.750			
0.8404	53783.23	3.2760	3.2760	-0.2078	26.12	0.49	-0.750			
0.8410	53822.89	3.2730	3.2730	-0.2053	26.12	0.49	-0.750			
0.8416	53861.98	3.2700	3.2700	-0.2017	26.13	0.50	-0.750			
0.8422	53901.07	3.2670	3.2670	-0.1993	26.13	0.50	-0.750			
0.8428	53938.35	3.2640	3.2640	-0.1958	26.14	0.51	-0.750			
0.8434	53975.68	3.2610	3.2610	-0.1932	26.14	0.51	-0.750			
0.8439	54012.58	3.2580	3.2579	-0.1901	26.14	0.51	-0.750			
0.8445	54048.58	3.2550	3.2550	-0.1873	26.15	0.52	-0.750			
0.8451	54084.45	3.2520	3.2521	-0.1847	26.15	0.52	-0.750			
0.8456	54119.68	3.2490	3.2490	-0.1819	26.15	0.52	-0.750			
0.8462	54154.56	3.2460	3.2459	-0.1793	26.16	0.53	-0.750			
0.8467	54188.50	3.2430	3.2430	-0.1772	26.16	0.53	-0.750			
0.8472	54221.91	3.2400	3.2400	-0.1746	26.16	0.53	-0.750			
0.8477	54255.44	3.2370	3.2370	-0.1728	26.17	0.54	-0.750			
0.8483	54288.57	3.2340	3.2339	-0.1711	26.17	0.54	-0.750			
0.8488	54321.09	3.2310	3.2310	-0.1694	26.17	0.54	-0.750			
0.8493	54353.76	3.2280	3.2281	-0.1676	26.18	0.55	-0.750			
0.8498	54385.92	3.2250	3.2249	-0.1654	26.18	0.55	-0.750			
0.8503	54417.40	3.2220	3.2219	-0.1626	26.18	0.55	-0.750			
0.8508	54448.09	3.2190	3.2191	-0.1606	26.19	0.56	-0.750			
0.8512	54478.43	3.2160	3.2161	-0.1592	26.19	0.56	-0.750			
0.8517	54508.76	3.2130	3.2129	-0.1579	26.19	0.56	-0.750			
0.8522	54539.06	3.2100	3.2099	-0.1568	26.20	0.57	-0.750			
0.8526	54568.85	3.2070	3.2070	-0.1552	26.20	0.57	-0.750			
0.8531	54598.91	3.2040	3.2042	-0.1544	26.20	0.57	-0.750			
0.8536	54628.68	3.2010	3.2009	-0.1532	26.21	0.58	-0.750			
0.8540	54657.83	3.1980	3.1981	-0.1512	26.21	0.58	-0.750			
0.8545	54686.50	3.1950	3.1950	-0.1495	26.21	0.58	-0.750			
0.8549	54714.88	3.1920	3.1920	-0.1477	26.21	0.58	-0.750			
0.8554	54743.11	3.1890	3.1890	-0.1464	26.22	0.59	-0.750			
0.8558	54771.13	3.1860	3.1860	-0.1452	26.22	0.59	-0.750			
0.8562	54798.82	3.1830	3.1830	-0.1440	26.22	0.59	-0.750			
0.8567	54826.42	3.1800	3.1800	-0.1427	26.23	0.60	-0.750			
0.8571	54853.69	3.1770	3.1770	-0.1413	26.23	0.60	-0.750			
0.8575	54880.68	3.1740	3.1740	-0.1403	26.23	0.60	-0.750			
0.8579	54907.46	3.1710	3.1710	-0.1391	26.23	0.60	-0.750			
0.8583	54934.02	3.1680	3.1680	-0.1382	26.24	0.61	-0.750			
0.8588	54960.46	3.1650	3.1650	-0.1372	26.24	0.61	-0.750			
0.8592	54986.72	3.1620	3.1620	-0.1359	26.24	0.61	-0.750			
0.8596	55012.79	3.1590	3.1590	-0.1347	26.25	0.62	-0.750			
0.8600	55038.66	3.1560	3.1560	-0.1336	26.25	0.62	-0.750			
0.8604	55064.10	3.1530	3.1531	-0.1325	26.25	0.62	-0.750			
0.8608	55089.26	3.1500	3.1500	-0.1314	26.26	0.63	-0.750			
0.8612	55114.33	3.1470	3.1471	-0.1304	26.26	0.63	-0.750			
0.8616	55139.34	3.1440	3.1439	-0.1291	26.27	0.64	-0.750			
0.8619	55164.03	3.1410	3.1410	-0.1282	26.27	0.64	-0.750			
0.8623	55188.66	3.1380	3.1381	-0.1274	26.28	0.65	-0.750			
0.8627	55213.09	3.1350	3.1350	-0.1264	26.28	0.65	-0.750			
0.8631	55237.12	3.1320	3.1320	-0.1254	26.28	0.65	-0.750			
0.8635	55261.00	3.1290	3.1291	-0.1243	26.29	0.66	-0.750			
0.8638	55284.75	3.1260	3.1260	-0.1235	26.29	0.66	-0.750			
0.8642	55308.24	3.1230	3.1230	-0.1226	26.30	0.67	-0.750			
0.8646	55331.77	3.1200	3.1200	-0.1218	26.30	0.67	-0.750			
0.8649	55355.20	3.1170	3.1171	-0.1213	26.30	0.67	-0.750			
0.8653	55378.46	3.1140	3.1140	-0.1202	26.31	0.68	-0.750			
0.8656	55401.50	3.1110	3.1109	-0.1193	26.31	0.68	-0.750			
0.8660	55424.33	3.1080	3.1081	-0.1181	26.32	0.69	-0.750			
0.8664	55446.96	3.1050	3.1050	-0.1170	26.32	0.69	-0.750			
0.8667	55469.21	3.1020	3.1020	-0.1163	26.32	0.69	-0.750			
0.8671	55491.36	3.0990	3.0990	-0.1152	26.33	0.70	-0.750			
0.8674	55513.39	3.0960	3.0959	-0.1145	26.33	0.70	-0.750			
0.8677	55535.18	3.0930	3.0929	-0.1136	26.34	0.71	-0.750			
0.8681	55556.98	3.0900	3.0901	-0.1129	26.34	0.71	-0.750			
0.8684	55578.62	3.0870	3.0869	-0.1123	26.34	0.71	-0.750			
0.8688	55600.11	3.0840	3.0841	-0.1116	26.34	0.71	-0.750			
0.8691	55621.56	3.0810	3.0809	-0.1110	26.35	0.72	-0.750			
0.8694	55642.80	3.0780	3.0780	-0.1100	26.35	0.72	-0.750			
0.8697	55663.80	3.0750	3.0750	-0.1091	26.35	0.72	-0.750			
0.8701	55684.61	3.0720	3.0720	-0.1086	26.35	0.72	-0.750			
0.8704	55705.35	3.0690	3.0690	-0.1079	26.35	0.72	-0.750			
0.8707	55726.08	3.0660	3.0661	-0.1070	26.36	0.73	-0.750			
0.8710	55746.59	3.0630	3.0629	-0.1063	26.36	0.73	-0.750			
0.8714	55766.84	3.0600	3.0600	-0.1057	26.36	0.73	-0.750			
0.8717	55787.01	3.0570	3.0571	-0.1050	26.36	0.73	-0.750			
0.8720	55807.19	3.0540	3.0541	-0.1041	26.36	0.73	-0.750			
0.8723	55827.21	3.0510	3.0509	-0.1035	26.36	0.73	-0.750			
0.8726	55846.96	3.0480	3.0480	-0.1027	26.37	0.74	-0.750			
0.8729	55866.52	3.0450	3.0451	-0.1017	26.37	0.74	-0.750			
0.8732	55885.90	3.0420	3.0421	-0.1013	26.37	0.74	-0.750			
0.8735	55905.33	3.0390	3.0389	-0.1008	26.37	0.74	-0.750			
0.8738	55924.63	3.0360	3.0360	-0.1003	26.37	0.74	-0.750			
0.8741	55943.66	3.0330	3.0330	-0.0995	26.38	0.75	-0.750			
0.8744	55962.82	3.0300	3.0300	-0.0989	26.38	0.75	-0.750			
0.8747	55981.90	3.0270	3.0271	-0.0986	26.38	0.75	-0.750			
0.8750	56000.80	3.0240	3.0240	-0.0978	26.38	0.75	-0.750			
0.8753	56019.60	3.0210	3.0209	-0.0972	26.38	0.75	-0.750			
0.8756	56038.11	3.0180	3.0181	-0.0964	26.38	0.75	-0.750			
0.8759	56056.46	3.0150	3.0150	-0.0955	26.39	0.76	-0.750			
0.8762	56074.73	3.0120	3.0120	-0.0948	26.39	0.76	-0.750			
0.8765	56092.86	3.0090	3.0090	-0.0942	26.39	0.76	-0.750			
0.8767	56110.89	3.0060	3.0060	-0.0936	26.39	0.76	-0.750			
0.8770	56128.80	3.0030	3.0030	-0.0934	26.39	0.76	-0.750			
