Ah_balance (normalized)	Ah_balance (mAh)	Voltage - fit (V)	Voltage -  interpolate (V)	dQ/dV (1/V)	Temperature (°C)	Temperature - diff (°C)	Current (C)	R_DC 0ms (mOhm)	R_DC 50ms (mOhm)	R_DC 50 ms PEC (mOhm)
0.1976	12645.43	3.9370	3.9367	-0.1095	25.58	0.00	-0.750			
0.1980	12671.74	3.9340	3.9338	-0.1607	25.58	0.00	-0.750			
0.1985	12707.08	3.9310	3.9309	-0.2072	25.58	0.00	-0.750			
0.1992	12751.52	3.9280	3.9278	-0.2530	25.58	-0.00	-0.750			
0.2001	12804.70	3.9250	3.9250	-0.2973	25.58	-0.00	-0.750			
0.2010	12866.06	3.9220	3.9220	-0.3419	25.58	-0.00	-0.750			
0.2021	12936.48	3.9190	3.9190	-0.3841	25.57	-0.01	-0.750			
0.2034	13014.72	3.9160	3.9160	-0.4240	25.57	-0.01	-0.750			
0.2047	13101.13	3.9130	3.9130	-0.4628	25.57	-0.01	-0.750			
0.2062	13194.59	3.9100	3.9099	-0.4965	25.57	-0.01	-0.750			
0.2077	13294.47	3.9070	3.9070	-0.5290	25.57	-0.01	-0.750			
0.2094	13400.30	3.9040	3.9040	-0.5524	25.56	-0.02	-0.750			
0.2111	13509.61	3.9010	3.9011	-0.5755	25.56	-0.02	-0.750			
0.2129	13622.98	3.8980	3.8979	-0.5916	25.56	-0.02	-0.750			
0.2147	13738.34	3.8950	3.8951	-0.6076	25.56	-0.02	-0.750			
0.2165	13855.55	3.8920	3.8920	-0.6242	25.56	-0.02	-0.750			
0.2184	13977.15	3.8890	3.8890	-0.6380	25.55	-0.03	-0.750			
0.2203	14102.23	3.8860	3.8859	-0.6475	25.55	-0.03	-0.750			
0.2223	14228.60	3.8830	3.8831	-0.6558	25.55	-0.03	-0.750			
0.2243	14356.13	3.8800	3.8801	-0.6639	25.55	-0.03	-0.750			
0.2263	14484.83	3.8770	3.8770	-0.6694	25.55	-0.03	-0.750			
0.2283	14612.58	3.8740	3.8740	-0.6718	25.55	-0.03	-0.750			
0.2303	14741.92	3.8710	3.8710	-0.6740	25.55	-0.03	-0.750			
0.2324	14872.93	3.8680	3.8680	-0.6784	25.55	-0.03	-0.750			
0.2344	15003.66	3.8650	3.8650	-0.6803	25.55	-0.03	-0.750			
0.2365	15134.24	3.8620	3.8621	-0.6832	25.55	-0.03	-0.750			
0.2385	15264.90	3.8590	3.8590	-0.6849	25.55	-0.03	-0.750			
0.2406	15396.65	3.8560	3.8560	-0.6885	25.55	-0.03	-0.750			
0.2426	15529.58	3.8530	3.8530	-0.6905	25.54	-0.04	-0.750			
0.2447	15662.44	3.8500	3.8500	-0.6950	25.54	-0.04	-0.750			
0.2468	15796.20	3.8470	3.8470	-0.6958	25.54	-0.04	-0.750			
0.2489	15930.48	3.8440	3.8440	-0.6966	25.54	-0.04	-0.750			
0.2510	16064.53	3.8410	3.8409	-0.6949	25.54	-0.04	-0.750			
0.2531	16198.05	3.8380	3.8381	-0.6946	25.54	-0.04	-0.750			
0.2552	16331.52	3.8350	3.8350	-0.6924	25.55	-0.03	-0.750			
0.2572	16463.68	3.8320	3.8320	-0.6948	25.55	-0.03	-0.750			
0.2593	16596.63	3.8290	3.8290	-0.6936	25.55	-0.03	-0.750			
0.2614	16729.97	3.8260	3.8260	-0.6931	25.55	-0.03	-0.750			
0.2635	16862.86	3.8230	3.8230	-0.6936	25.55	-0.03	-0.750			
0.2656	16996.34	3.8200	3.8201	-0.6968	25.55	-0.03	-0.750			
0.2677	17130.34	3.8170	3.8170	-0.6951	25.56	-0.02	-0.750			
0.2698	17265.08	3.8140	3.8139	-0.6937	25.56	-0.02	-0.750			
0.2718	17397.14	3.8110	3.8110	-0.6906	25.56	-0.02	-0.750			
0.2739	17529.71	3.8080	3.8083	-0.6924	25.56	-0.02	-0.750			
0.2760	17662.53	3.8050	3.8050	-0.6914	25.56	-0.02	-0.750			
0.2780	17793.61	3.8020	3.8019	-0.6907	25.56	-0.02	-0.750			
0.2801	17926.56	3.7990	3.7990	-0.6918	25.55	-0.03	-0.750			
0.2822	18060.38	3.7960	3.7960	-0.6961	25.55	-0.03	-0.750			
0.2843	18193.95	3.7930	3.7930	-0.6980	25.55	-0.03	-0.750			
0.2864	18328.02	3.7900	3.7901	-0.6978	25.55	-0.03	-0.750			
0.2885	18462.21	3.7870	3.7870	-0.6992	25.55	-0.03	-0.750			
0.2906	18596.63	3.7840	3.7840	-0.7006	25.55	-0.03	-0.750			
0.2927	18731.47	3.7810	3.7810	-0.6994	25.54	-0.04	-0.750			
0.2948	18866.02	3.7780	3.7781	-0.7031	25.54	-0.04	-0.750			
0.2969	19000.45	3.7750	3.7750	-0.7036	25.54	-0.04	-0.750			
0.2990	19134.85	3.7720	3.7720	-0.7068	25.54	-0.04	-0.750			
0.3011	19271.40	3.7690	3.7690	-0.7115	25.54	-0.04	-0.750			
0.3032	19406.48	3.7660	3.7660	-0.7178	25.54	-0.04	-0.750			
0.3054	19546.71	3.7630	3.7630	-0.7215	25.54	-0.04	-0.750			
0.3076	19687.21	3.7600	3.7600	-0.7263	25.54	-0.04	-0.750			
0.3098	19825.62	3.7570	3.7569	-0.7300	25.54	-0.04	-0.750			
0.3120	19966.33	3.7540	3.7542	-0.7339	25.54	-0.04	-0.750			
0.3142	20107.36	3.7510	3.7509	-0.7368	25.54	-0.04	-0.750			
0.3164	20249.29	3.7480	3.7480	-0.7396	25.54	-0.04	-0.750			
0.3186	20389.57	3.7450	3.7451	-0.7413	25.53	-0.05	-0.750			
0.3209	20534.93	3.7420	3.7420	-0.7512	25.53	-0.05	-0.750			
0.3231	20678.45	3.7390	3.7390	-0.7584	25.53	-0.05	-0.750			
0.3254	20823.71	3.7360	3.7360	-0.7659	25.53	-0.05	-0.750			
0.3277	20971.41	3.7330	3.7330	-0.7782	25.52	-0.06	-0.750			
0.3301	21123.27	3.7300	3.7299	-0.7853	25.52	-0.06	-0.750			
0.3324	21276.01	3.7270	3.7270	-0.7916	25.52	-0.06	-0.750			
0.3348	21427.92	3.7240	3.7240	-0.7979	25.51	-0.07	-0.750			
0.3372	21581.99	3.7210	3.7210	-0.8070	25.51	-0.07	-0.750			
0.3396	21736.10	3.7180	3.7180	-0.8173	25.51	-0.07	-0.750			
0.3421	21893.14	3.7150	3.7149	-0.8256	25.51	-0.07	-0.750			
0.3446	22052.29	3.7120	3.7120	-0.8354	25.50	-0.08	-0.750			
0.3471	22215.70	3.7090	3.7090	-0.8505	25.50	-0.08	-0.750			
0.3497	22380.14	3.7060	3.7060	-0.8642	25.50	-0.08	-0.750			
0.3523	22546.20	3.7030	3.7029	-0.8759	25.49	-0.09	-0.750			
0.3549	22714.48	3.7000	3.7000	-0.8868	25.49	-0.09	-0.750			
0.3576	22886.04	3.6970	3.6969	-0.9005	25.48	-0.10	-0.750			
0.3603	23060.46	3.6940	3.6940	-0.9199	25.47	-0.11	-0.750			
0.3631	23237.88	3.6910	3.6910	-0.9392	25.47	-0.11	-0.750			
0.3659	23419.82	3.6880	3.6880	-0.9578	25.47	-0.11	-0.750			
0.3688	23605.69	3.6850	3.6849	-0.9751	25.47	-0.11	-0.750			
0.3718	23795.21	3.6820	3.6821	-0.9966	25.47	-0.11	-0.750			
0.3748	23988.48	3.6790	3.6790	-1.0220	25.47	-0.11	-0.750			
0.3779	24186.78	3.6760	3.6760	-1.0414	25.46	-0.12	-0.750			
0.3810	24387.10	3.6730	3.6730	-1.0612	25.45	-0.13	-0.750			
0.3843	24593.26	3.6700	3.6700	-1.0881	25.44	-0.14	-0.750			
0.3876	24805.16	3.6670	3.6670	-1.1165	25.44	-0.14	-0.750			
0.3910	25022.80	3.6640	3.6640	-1.1390	25.44	-0.14	-0.750			
0.3945	25245.33	3.6610	3.6610	-1.1580	25.43	-0.15	-0.750			
0.3979	25468.56	3.6580	3.6580	-1.1814	25.43	-0.15	-0.750			
0.4015	25697.83	3.6550	3.6550	-1.2091	25.43	-0.15	-0.750			
0.4052	25929.74	3.6520	3.6520	-1.2294	25.42	-0.16	-0.750			
0.4088	26166.19	3.6490	3.6490	-1.2604	25.42	-0.16	-0.750			
0.4127	26410.38	3.6460	3.6461	-1.2901	25.42	-0.16	-0.750			
0.4166	26664.68	3.6430	3.6430	-1.3253	25.41	-0.17	-0.750			
0.4207	26922.58	3.6400	3.6399	-1.3527	25.41	-0.17	-0.750			
0.4248	27184.72	3.6370	3.6371	-1.3774	25.40	-0.18	-0.750			
0.4289	27452.14	3.6340	3.6341	-1.4076	25.40	-0.18	-0.750			
0.4332	27724.68	3.6310	3.6310	-1.4349	25.40	-0.18	-0.750			
0.4375	28001.57	3.6280	3.6280	-1.4692	25.40	-0.18	-0.750			
0.4420	28284.95	3.6250	3.6250	-1.5094	25.40	-0.18	-0.750			
0.4465	28579.11	3.6220	3.6220	-1.5398	25.39	-0.19	-0.750			
0.4513	28881.23	3.6190	3.6189	-1.5674	25.39	-0.19	-0.750			
0.4560	29186.19	3.6160	3.6161	-1.6043	25.38	-0.20	-0.750			
0.4609	29496.95	3.6130	3.6129	-1.6266	25.38	-0.20	-0.750			
0.4658	29809.36	3.6100	3.6099	-1.6569	25.38	-0.20	-0.750			
0.4708	30129.60	3.6070	3.6071	-1.6956	25.37	-0.21	-0.750			
0.4759	30457.76	3.6040	3.6039	-1.7153	25.37	-0.21	-0.750			
0.4811	30789.46	3.6010	3.6010	-1.7569	25.37	-0.21	-0.750			
0.4865	31133.00	3.5980	3.5980	-1.7873	25.37	-0.21	-0.750			
0.4919	31479.27	3.5950	3.5950	-1.8202	25.37	-0.21	-0.750			
0.4973	31828.54	3.5920	3.5920	-1.8513	25.36	-0.22	-0.750			
0.5029	32186.77	3.5890	3.5889	-1.8822	25.36	-0.22	-0.750			
0.5086	32549.75	3.5860	3.5861	-1.9261	25.36	-0.22	-0.750			
0.5145	32930.27	3.5830	3.5830	-1.9406	25.36	-0.22	-0.750			
0.5204	33307.33	3.5800	3.5799	-1.9708	25.36	-0.22	-0.750			
0.5263	33683.04	3.5770	3.5772	-1.9907	25.36	-0.22	-0.750			
0.5323	34067.44	3.5740	3.5739	-2.0077	25.36	-0.22	-0.750			
0.5383	34453.61	3.5710	3.5713	-2.0376	25.36	-0.22	-0.750	0.375	0.550	
0.5445	34846.36	3.5680	3.5681	-2.0761	25.37	-0.21	-0.750			
0.5508	35252.81	3.5650	3.5649	-2.0979	25.37	-0.21	-0.750			
0.5572	35662.17	3.5620	3.5620	-2.1238	25.37	-0.21	-0.750			
0.5636	36071.15	3.5590	3.5591	-2.1242	25.37	-0.21	-0.750			
0.5700	36482.36	3.5560	3.5559	-2.1075	25.38	-0.20	-0.750			
0.5763	36880.49	3.5530	3.5530	-2.0958	25.38	-0.20	-0.750			
0.5825	37280.58	3.5500	3.5500	-2.0850	25.39	-0.19	-0.750			
0.5888	37682.50	3.5470	3.5469	-2.0808	25.40	-0.18	-0.750			
0.5950	38081.31	3.5440	3.5440	-2.0841	25.41	-0.17	-0.750			
0.6013	38481.95	3.5410	3.5410	-2.0810	25.41	-0.17	-0.750			
0.6076	38885.74	3.5380	3.5379	-2.0542	25.42	-0.16	-0.750			
0.6138	39280.06	3.5350	3.5350	-2.0238	25.43	-0.15	-0.750			
0.6197	39662.26	3.5320	3.5321	-1.9903	25.44	-0.14	-0.750			
0.6256	40038.52	3.5290	3.5289	-1.9449	25.44	-0.14	-0.750			
0.6313	40404.34	3.5260	3.5260	-1.9083	25.45	-0.13	-0.750			
0.6370	40768.92	3.5230	3.5230	-1.8695	25.46	-0.12	-0.750			
0.6426	41128.06	3.5200	3.5199	-1.8325	25.48	-0.10	-0.750			
0.6481	41476.39	3.5170	3.5170	-1.7910	25.50	-0.08	-0.750			
0.6534	41817.78	3.5140	3.5140	-1.7481	25.51	-0.07	-0.750			
0.6585	42144.83	3.5110	3.5110	-1.6950	25.52	-0.06	-0.750			
0.6636	42468.47	3.5080	3.5081	-1.6516	25.53	-0.05	-0.750			
0.6685	42783.31	3.5050	3.5050	-1.6069	25.54	-0.04	-0.750			
0.6732	43087.10	3.5020	3.5021	-1.5629	25.55	-0.03	-0.750			
0.6779	43385.79	3.4990	3.4989	-1.5167	25.56	-0.02	-0.750			
0.6824	43670.73	3.4960	3.4960	-1.4691	25.57	-0.01	-0.750			
0.6867	43948.91	3.4930	3.4932	-1.4260	25.58	0.00	-0.750			
0.6909	44217.86	3.4900	3.4899	-1.3806	25.59	0.01	-0.750			
0.6950	44478.81	3.4870	3.4870	-1.3372	25.61	0.03	-0.750			
0.6989	44729.48	3.4840	3.4840	-1.2991	25.62	0.04	-0.750			
0.7028	44976.01	3.4810	3.4810	-1.2687	25.63	0.05	-0.750			
0.7065	45214.96	3.4780	3.4780	-1.2361	25.63	0.05	-0.750			
0.7101	45447.38	3.4750	3.4750	-1.2009	25.64	0.06	-0.750			
0.7137	45674.99	3.4720	3.4720	-1.1785	25.65	0.07	-0.750			
0.7172	45899.38	3.4690	3.4690	-1.1557	25.66	0.08	-0.750			
0.7206	46118.45	3.4660	3.4660	-1.1334	25.67	0.09	-0.750			
0.7239	46332.09	3.4630	3.4631	-1.1172	25.68	0.10	-0.750			
0.7273	46544.33	3.4600	3.4600	-1.1007	25.69	0.11	-0.750			
0.7305	46753.70	3.4570	3.4569	-1.0925	25.69	0.11	-0.750			
0.7338	46962.33	3.4540	3.4540	-1.0851	25.70	0.12	-0.750			
0.7370	47168.70	3.4510	3.4510	-1.0853	25.70	0.12	-0.750			
0.7403	47377.49	3.4480	3.4480	-1.0804	25.71	0.13	-0.750			
0.7435	47584.74	3.4450	3.4450	-1.0753	25.72	0.14	-0.750			
0.7467	47791.51	3.4420	3.4419	-1.0675	25.73	0.15	-0.750			
0.7500	47997.09	3.4390	3.4390	-1.0653	25.73	0.15	-0.750			
0.7531	48201.02	3.4360	3.4360	-1.0519	25.74	0.16	-0.750			
0.7563	48402.52	3.4330	3.4330	-1.0411	25.74	0.16	-0.750			
0.7594	48600.02	3.4300	3.4300	-1.0244	25.75	0.17	-0.750			
0.7625	48796.85	3.4270	3.4270	-1.0189	25.75	0.17	-0.750			
0.7655	48990.64	3.4240	3.4240	-1.0061	25.75	0.17	-0.750			
0.7685	49183.60	3.4210	3.4210	-0.9908	25.76	0.18	-0.750			
0.7714	49372.35	3.4180	3.4180	-0.9754	25.76	0.18	-0.750			
0.7744	49559.66	3.4150	3.4150	-0.9596	25.76	0.18	-0.750			
0.7772	49741.92	3.4120	3.4120	-0.9410	25.77	0.19	-0.750			
0.7800	49920.50	3.4090	3.4090	-0.9232	25.77	0.19	-0.750			
0.7827	50094.99	3.4060	3.4059	-0.9024	25.77	0.19	-0.750			
0.7854	50267.31	3.4030	3.4030	-0.8823	25.78	0.20	-0.750			
0.7881	50435.63	3.4000	3.4000	-0.8623	25.78	0.20	-0.750			
0.7906	50600.23	3.3970	3.3970	-0.8409	25.79	0.21	-0.750			
0.7931	50760.62	3.3940	3.3940	-0.8159	25.79	0.21	-0.750			
0.7955	50915.19	3.3910	3.3909	-0.7854	25.79	0.21	-0.750			
0.7979	51063.63	3.3880	3.3880	-0.7540	25.80	0.22	-0.750			
0.8001	51206.19	3.3850	3.3849	-0.7203	25.80	0.22	-0.750			
0.8022	51340.34	3.3820	3.3820	-0.6906	25.81	0.23	-0.750			
0.8042	51468.33	3.3790	3.3791	-0.6590	25.81	0.23	-0.750			
0.8061	51590.91	3.3760	3.3759	-0.6286	25.82	0.24	-0.750			
0.8080	51710.44	3.3730	3.3730	-0.6021	25.82	0.24	-0.750			
0.8097	51823.67	3.3700	3.3700	-0.5747	25.83	0.25	-0.750			
0.8114	51930.76	3.3670	3.3670	-0.5468	25.83	0.25	-0.750			
0.8130	52033.18	3.3640	3.3640	-0.5215	25.84	0.26	-0.750			
0.8145	52129.54	3.3610	3.3610	-0.4956	25.84	0.26	-0.750			
0.8160	52221.61	3.3580	3.3580	-0.4732	25.85	0.27	-0.750			
0.8174	52310.44	3.3550	3.3550	-0.4527	25.85	0.27	-0.750			
0.8187	52395.07	3.3520	3.3520	-0.4335	25.85	0.27	-0.750			
0.8199	52476.11	3.3490	3.3490	-0.4151	25.86	0.28	-0.750			
0.8212	52554.12	3.3460	3.3460	-0.3973	25.86	0.28	-0.750			
0.8223	52628.10	3.3430	3.3430	-0.3802	25.87	0.29	-0.750			
0.8234	52699.50	3.3400	3.3401	-0.3658	25.87	0.29	-0.750			
0.8245	52767.71	3.3370	3.3370	-0.3514	25.87	0.29	-0.750			
0.8255	52834.01	3.3340	3.3339	-0.3385	25.88	0.30	-0.750			
0.8265	52897.15	3.3310	3.3310	-0.3254	25.88	0.30	-0.750			
0.8275	52958.52	3.3280	3.3281	-0.3147	25.88	0.30	-0.750			
0.8284	53017.77	3.3250	3.3250	-0.3056	25.89	0.31	-0.750			
0.8293	53075.31	3.3220	3.3219	-0.2956	25.89	0.31	-0.750			
0.8302	53130.59	3.3190	3.3190	-0.2864	25.90	0.32	-0.750			
0.8310	53184.90	3.3160	3.3160	-0.2789	25.90	0.32	-0.750			
0.8318	53237.87	3.3130	3.3130	-0.2722	25.90	0.32	-0.750			
0.8326	53289.36	3.3100	3.3100	-0.2646	25.91	0.33	-0.750			
0.8334	53339.34	3.3070	3.3070	-0.2571	25.91	0.33	-0.750			
0.8342	53387.78	3.3040	3.3040	-0.2501	25.91	0.33	-0.750			
0.8349	53435.27	3.3010	3.3011	-0.2443	25.91	0.33	-0.750			
0.8356	53481.00	3.2980	3.2979	-0.2386	25.92	0.34	-0.750			
0.8363	53526.07	3.2950	3.2951	-0.2333	25.92	0.34	-0.750			
0.8370	53570.30	3.2920	3.2920	-0.2291	25.92	0.34	-0.750			
0.8377	53613.85	3.2890	3.2889	-0.2241	25.93	0.35	-0.750			
0.8384	53656.63	3.2860	3.2860	-0.2203	25.93	0.35	-0.750			
0.8390	53698.49	3.2830	3.2830	-0.2158	25.94	0.36	-0.750			
0.8397	53739.56	3.2800	3.2800	-0.2114	25.94	0.36	-0.750			
0.8403	53779.53	3.2770	3.2770	-0.2079	25.94	0.36	-0.750			
0.8409	53818.64	3.2740	3.2740	-0.2035	25.95	0.37	-0.750			
0.8415	53857.44	3.2710	3.2710	-0.2007	25.95	0.37	-0.750			
0.8421	53895.51	3.2680	3.2680	-0.1979	25.95	0.37	-0.750			
0.8427	53933.39	3.2650	3.2650	-0.1955	25.96	0.38	-0.750			
0.8433	53970.69	3.2620	3.2619	-0.1926	25.96	0.38	-0.750			
0.8439	54007.41	3.2590	3.2591	-0.1899	25.96	0.38	-0.750			
0.8444	54043.77	3.2560	3.2560	-0.1870	25.97	0.39	-0.750			
0.8450	54079.28	3.2530	3.2530	-0.1839	25.97	0.39	-0.750			
0.8455	54114.21	3.2500	3.2500	-0.1815	25.97	0.39	-0.750			
0.8461	54148.80	3.2470	3.2470	-0.1788	25.98	0.40	-0.750			
0.8466	54182.69	3.2440	3.2439	-0.1765	25.98	0.40	-0.750			
0.8471	54216.31	3.2410	3.2410	-0.1741	25.98	0.40	-0.750			
0.8477	54249.63	3.2380	3.2380	-0.1720	25.98	0.40	-0.750			
0.8482	54282.44	3.2350	3.2350	-0.1697	25.99	0.41	-0.750			
0.8487	54314.89	3.2320	3.2320	-0.1675	25.99	0.41	-0.750			
0.8492	54346.73	3.2290	3.2290	-0.1657	25.99	0.41	-0.750			
0.8497	54378.29	3.2260	3.2260	-0.1632	26.00	0.42	-0.750			
0.8501	54409.43	3.2230	3.2230	-0.1612	26.00	0.42	-0.750			
0.8506	54440.08	3.2200	3.2200	-0.1598	26.00	0.42	-0.750			
0.8511	54470.56	3.2170	3.2170	-0.1583	26.01	0.43	-0.750			
0.8516	54500.88	3.2140	3.2141	-0.1568	26.01	0.43	-0.750			
0.8520	54530.85	3.2110	3.2109	-0.1553	26.01	0.43	-0.750			
0.8525	54560.50	3.2080	3.2081	-0.1540	26.02	0.44	-0.750			
0.8530	54589.82	3.2050	3.2050	-0.1526	26.02	0.44	-0.750			
0.8534	54619.03	3.2020	3.2020	-0.1519	26.02	0.44	-0.750			
0.8539	54648.10	3.1990	3.1989	-0.1508	26.03	0.45	-0.750			
0.8543	54676.88	3.1960	3.1960	-0.1489	26.03	0.45	-0.750			
0.8548	54705.46	3.1930	3.1930	-0.1475	26.03	0.45	-0.750			
0.8552	54733.62	3.1900	3.1901	-0.1465	26.04	0.46	-0.750			
0.8557	54761.61	3.1870	3.1870	-0.1450	26.04	0.46	-0.750			
0.8561	54789.28	3.1840	3.1839	-0.1435	26.04	0.46	-0.750			
0.8565	54816.66	3.1810	3.1809	-0.1419	26.05	0.47	-0.750			
0.8569	54843.69	3.1780	3.1780	-0.1404	26.05	0.47	-0.750			
0.8574	54870.53	3.1750	3.1751	-0.1392	26.05	0.47	-0.750			
0.8578	54897.30	3.1720	3.1720	-0.1385	26.06	0.48	-0.750			
0.8582	54923.66	3.1690	3.1690	-0.1373	26.06	0.48	-0.750			
0.8586	54949.87	3.1660	3.1660	-0.1358	26.06	0.48	-0.750			
0.8590	54975.85	3.1630	3.1630	-0.1348	26.06	0.48	-0.750			
0.8594	55001.67	3.1600	3.1600	-0.1342	26.07	0.49	-0.750			
0.8598	55027.37	3.1570	3.1570	-0.1333	26.07	0.49	-0.750			
0.8602	55052.85	3.1540	3.1540	-0.1323	26.07	0.49	-0.750			
0.8606	55078.22	3.1510	3.1510	-0.1311	26.08	0.50	-0.750			
0.8610	55103.27	3.1480	3.1480	-0.1299	26.08	0.50	-0.750			
0.8614	55128.19	3.1450	3.1451	-0.1290	26.08	0.50	-0.750			
0.8618	55152.99	3.1420	3.1420	-0.1279	26.09	0.51	-0.750			
0.8621	55177.22	3.1390	3.1390	-0.1267	26.09	0.51	-0.750			
0.8625	55201.28	3.1360	3.1360	-0.1253	26.09	0.51	-0.750			
0.8629	55225.16	3.1330	3.1330	-0.1243	26.10	0.52	-0.750			
0.8633	55248.96	3.1300	3.1300	-0.1236	26.10	0.52	-0.750			
0.8636	55272.67	3.1270	3.1270	-0.1227	26.10	0.52	-0.750			
0.8640	55296.15	3.1240	3.1241	-0.1219	26.11	0.53	-0.750			
0.8644	55319.55	3.1210	3.1210	-0.1210	26.11	0.53	-0.750			
0.8647	55342.82	3.1180	3.1181	-0.1202	26.11	0.53	-0.750			
0.8651	55365.55	3.1150	3.1150	-0.1197	26.12	0.54	-0.750			
0.8654	55388.29	3.1120	3.1119	-0.1188	26.12	0.54	-0.750			
0.8658	55411.19	3.1090	3.1090	-0.1178	26.12	0.54	-0.750			
0.8662	55433.72	3.1060	3.1059	-0.1171	26.13	0.55	-0.750			
0.8665	55456.11	3.1030	3.1030	-0.1164	26.13	0.55	-0.750			
0.8669	55478.48	3.1000	3.1001	-0.1158	26.13	0.55	-0.750			
0.8672	55500.70	3.0970	3.0971	-0.1147	26.14	0.56	-0.750			
0.8675	55522.78	3.0940	3.0938	-0.1139	26.14	0.56	-0.750			
0.8679	55544.41	3.0910	3.0911	-0.1131	26.15	0.57	-0.750			
0.8682	55565.81	3.0880	3.0881	-0.1120	26.15	0.57	-0.750			
0.8686	55587.30	3.0850	3.0850	-0.1112	26.15	0.57	-0.750			
0.8689	55608.72	3.0820	3.0820	-0.1107	26.15	0.57	-0.750			
0.8692	55629.91	3.0790	3.0789	-0.1098	26.16	0.58	-0.750			
0.8695	55650.82	3.0760	3.0760	-0.1088	26.16	0.58	-0.750			
0.8699	55671.64	3.0730	3.0730	-0.1080	26.16	0.58	-0.750			
0.8702	55692.44	3.0700	3.0701	-0.1074	26.17	0.59	-0.750			
0.8705	55712.87	3.0670	3.0670	-0.1067	26.17	0.59	-0.750			
0.8708	55733.12	3.0640	3.0639	-0.1057	26.17	0.59	-0.750			
0.8711	55753.40	3.0610	3.0610	-0.1051	26.18	0.60	-0.750			
0.8715	55773.50	3.0580	3.0580	-0.1045	26.18	0.60	-0.750			
0.8718	55793.51	3.0550	3.0550	-0.1040	26.18	0.60	-0.750			
0.8721	55813.44	3.0520	3.0520	-0.1035	26.19	0.61	-0.750			
0.8724	55833.31	3.0490	3.0490	-0.1027	26.19	0.61	-0.750			
0.8727	55853.02	3.0460	3.0461	-0.1020	26.19	0.61	-0.750			
0.8730	55872.47	3.0430	3.0430	-0.1014	26.19	0.61	-0.750			
0.8733	55891.84	3.0400	3.0401	-0.1007	26.20	0.62	-0.750			
0.8736	55911.13	3.0370	3.0369	-0.0999	26.20	0.62	-0.750			
0.8739	55930.28	3.0340	3.0339	-0.0992	26.20	0.62	-0.750			
0.8742	55949.13	3.0310	3.0310	-0.0990	26.20	0.62	-0.750			
0.8745	55967.93	3.0280	3.0280	-0.0984	26.21	0.63	-0.750			
0.8748	55986.94	3.0250	3.0250	-0.0976	26.21	0.63	-0.750			
0.8751	56005.73	3.0220	3.0219	-0.0971	26.21	0.63	-0.750			
0.8754	56024.31	3.0190	3.0190	-0.0964	26.21	0.63	-0.750			
0.8757	56042.78	3.0160	3.0161	-0.0957	26.22	0.64	-0.750			
0.8760	56061.09	3.0130	3.0130	-0.0950	26.22	0.64	-0.750			
0.8762	56079.43	3.0100	3.0099	-0.0939	26.22	0.64	-0.750			
0.8765	56097.34	3.0070	3.0070	-0.0927	26.22	0.64	-0.750			
0.8768	56115.12	3.0040	3.0040	-0.0945	26.23	0.65	-0.750			
