Ah_balance (normalized)	Ah_balance (mAh)	Voltage - fit (V)	Voltage -  interpolate (V)	dQ/dV (1/V)	Temperature (°C)	Temperature - diff (°C)	Current (C)	R_DC 0ms (mOhm)	R_DC 50ms (mOhm)	R_DC 50 ms PEC (mOhm)
0.1989	12726.74	3.9380	3.9377	-0.0877	25.63	-0.00	-0.750			
0.1992	12747.77	3.9350	3.9349	-0.1338	25.63	-0.00	-0.750			
0.1996	12777.54	3.9320	3.9321	-0.1838	25.63	-0.00	-0.750			
0.2003	12819.23	3.9290	3.9290	-0.2337	25.63	-0.00	-0.750			
0.2011	12869.01	3.9260	3.9259	-0.2808	25.63	-0.00	-0.750			
0.2020	12927.91	3.9230	3.9231	-0.3233	25.63	-0.00	-0.750			
0.2031	12995.26	3.9200	3.9201	-0.3679	25.63	-0.00	-0.750			
0.2042	13070.94	3.9170	3.9170	-0.4069	25.63	-0.00	-0.750			
0.2055	13153.61	3.9140	3.9140	-0.4437	25.62	-0.01	-0.750			
0.2069	13241.89	3.9110	3.9110	-0.4799	25.62	-0.01	-0.750			
0.2084	13338.70	3.9080	3.9080	-0.5122	25.62	-0.01	-0.750			
0.2100	13441.28	3.9050	3.9050	-0.5419	25.62	-0.01	-0.750			
0.2117	13549.19	3.9020	3.9021	-0.5642	25.62	-0.01	-0.750			
0.2135	13660.95	3.8990	3.8990	-0.5841	25.62	-0.01	-0.750			
0.2152	13775.48	3.8960	3.8960	-0.6018	25.63	-0.00	-0.750			
0.2171	13892.43	3.8930	3.8930	-0.6175	25.63	-0.00	-0.750			
0.2189	14012.75	3.8900	3.8900	-0.6279	25.63	0.00	-0.750			
0.2209	14134.94	3.8870	3.8870	-0.6395	25.64	0.01	-0.750			
0.2228	14259.89	3.8840	3.8840	-0.6471	25.64	0.01	-0.750			
0.2248	14384.79	3.8810	3.8811	-0.6563	25.64	0.01	-0.750			
0.2268	14512.69	3.8780	3.8780	-0.6599	25.64	0.01	-0.750			
0.2287	14638.52	3.8750	3.8749	-0.6661	25.64	0.01	-0.750			
0.2307	14766.13	3.8720	3.8720	-0.6722	25.64	0.01	-0.750			
0.2328	14896.89	3.8690	3.8690	-0.6761	25.64	0.01	-0.750			
0.2348	15027.49	3.8660	3.8659	-0.6808	25.64	0.01	-0.750			
0.2369	15159.16	3.8630	3.8632	-0.6850	25.64	0.01	-0.750			
0.2389	15290.10	3.8600	3.8599	-0.6856	25.64	0.01	-0.750			
0.2410	15423.08	3.8570	3.8570	-0.6887	25.65	0.02	-0.750			
0.2430	15554.69	3.8540	3.8541	-0.6864	25.65	0.02	-0.750			
0.2451	15687.46	3.8510	3.8510	-0.6886	25.65	0.02	-0.750			
0.2472	15820.06	3.8480	3.8480	-0.6900	25.66	0.03	-0.750			
0.2492	15951.64	3.8450	3.8450	-0.6909	25.66	0.03	-0.750			
0.2513	16084.58	3.8420	3.8420	-0.6917	25.66	0.03	-0.750			
0.2534	16217.41	3.8390	3.8390	-0.6940	25.67	0.04	-0.750			
0.2555	16351.46	3.8360	3.8361	-0.6923	25.67	0.04	-0.750			
0.2576	16484.63	3.8330	3.8330	-0.6932	25.67	0.04	-0.750			
0.2597	16617.63	3.8300	3.8299	-0.6917	25.68	0.05	-0.750			
0.2617	16749.55	3.8270	3.8271	-0.6914	25.68	0.05	-0.750			
0.2638	16882.21	3.8240	3.8240	-0.6914	25.68	0.05	-0.750			
0.2659	17015.57	3.8210	3.8210	-0.6934	25.69	0.06	-0.750			
0.2680	17148.91	3.8180	3.8180	-0.6920	25.69	0.06	-0.750			
0.2700	17282.01	3.8150	3.8150	-0.6948	25.69	0.06	-0.750			
0.2721	17415.23	3.8120	3.8120	-0.6905	25.70	0.07	-0.750			
0.2742	17547.32	3.8090	3.8091	-0.6915	25.70	0.07	-0.750			
0.2762	17679.76	3.8060	3.8060	-0.6908	25.70	0.07	-0.750			
0.2783	17812.51	3.8030	3.8030	-0.6913	25.70	0.07	-0.750			
0.2804	17945.11	3.8000	3.8000	-0.6908	25.71	0.08	-0.750			
0.2825	18077.78	3.7970	3.7970	-0.6930	25.71	0.08	-0.750			
0.2845	18210.39	3.7940	3.7940	-0.6940	25.71	0.08	-0.750			
0.2866	18344.12	3.7910	3.7910	-0.6972	25.71	0.08	-0.750			
0.2887	18477.44	3.7880	3.7880	-0.6970	25.71	0.08	-0.750			
0.2908	18611.34	3.7850	3.7851	-0.6998	25.72	0.09	-0.750			
0.2929	18745.71	3.7820	3.7820	-0.7034	25.72	0.09	-0.750			
0.2950	18881.52	3.7790	3.7790	-0.7056	25.72	0.09	-0.750			
0.2971	19017.10	3.7760	3.7759	-0.7070	25.73	0.10	-0.750			
0.2993	19153.13	3.7730	3.7731	-0.7094	25.73	0.10	-0.750			
0.3014	19289.68	3.7700	3.7700	-0.7122	25.73	0.10	-0.750			
0.3035	19425.94	3.7670	3.7670	-0.7190	25.73	0.10	-0.750			
0.3057	19564.76	3.7640	3.7640	-0.7205	25.73	0.10	-0.750			
0.3078	19702.36	3.7610	3.7609	-0.7252	25.73	0.10	-0.750			
0.3100	19843.20	3.7580	3.7580	-0.7281	25.73	0.10	-0.750			
0.3122	19983.65	3.7550	3.7550	-0.7305	25.73	0.10	-0.750			
0.3144	20123.61	3.7520	3.7520	-0.7323	25.73	0.10	-0.750			
0.3166	20263.48	3.7490	3.7491	-0.7372	25.73	0.10	-0.750			
0.3188	20404.36	3.7460	3.7460	-0.7402	25.73	0.10	-0.750			
0.3211	20548.23	3.7430	3.7429	-0.7495	25.73	0.10	-0.750			
0.3233	20691.47	3.7400	3.7401	-0.7549	25.73	0.10	-0.750			
0.3256	20838.50	3.7370	3.7370	-0.7629	25.73	0.10	-0.750			
0.3279	20986.00	3.7340	3.7340	-0.7715	25.73	0.10	-0.750			
0.3302	21134.78	3.7310	3.7310	-0.7785	25.74	0.11	-0.750			
0.3326	21283.71	3.7280	3.7280	-0.7847	25.74	0.11	-0.750			
0.3349	21435.42	3.7250	3.7249	-0.7951	25.74	0.11	-0.750			
0.3373	21588.90	3.7220	3.7221	-0.8028	25.74	0.11	-0.750			
0.3397	21742.72	3.7190	3.7190	-0.8143	25.74	0.11	-0.750			
0.3422	21900.82	3.7160	3.7160	-0.8249	25.74	0.11	-0.750			
0.3447	22059.88	3.7130	3.7130	-0.8338	25.73	0.10	-0.750			
0.3472	22221.36	3.7100	3.7099	-0.8439	25.73	0.10	-0.750			
0.3498	22384.30	3.7070	3.7071	-0.8558	25.73	0.10	-0.750			
0.3523	22549.06	3.7040	3.7040	-0.8686	25.73	0.10	-0.750			
0.3549	22716.70	3.7010	3.7009	-0.8809	25.73	0.10	-0.750			
0.3576	22885.51	3.6980	3.6980	-0.8915	25.73	0.10	-0.750			
0.3603	23059.08	3.6950	3.6950	-0.9128	25.73	0.10	-0.750			
0.3631	23235.92	3.6920	3.6920	-0.9318	25.73	0.10	-0.750			
0.3659	23417.11	3.6890	3.6889	-0.9502	25.73	0.10	-0.750			
0.3688	23600.40	3.6860	3.6860	-0.9678	25.72	0.09	-0.750			
0.3717	23788.00	3.6830	3.6830	-0.9908	25.72	0.09	-0.750			
0.3747	23978.91	3.6800	3.6800	-1.0175	25.72	0.09	-0.750			
0.3778	24177.32	3.6770	3.6770	-1.0380	25.72	0.09	-0.750			
0.3809	24378.42	3.6740	3.6740	-1.0600	25.72	0.09	-0.750			
0.3841	24584.56	3.6710	3.6709	-1.0817	25.72	0.09	-0.750			
0.3874	24795.20	3.6680	3.6680	-1.1061	25.72	0.09	-0.750			
0.3908	25009.07	3.6650	3.6650	-1.1271	25.72	0.09	-0.750			
0.3942	25226.50	3.6620	3.6620	-1.1486	25.72	0.09	-0.750			
0.3976	25447.36	3.6590	3.6590	-1.1695	25.72	0.09	-0.750			
0.4012	25676.39	3.6560	3.6560	-1.2036	25.72	0.09	-0.750			
0.4048	25909.21	3.6530	3.6530	-1.2302	25.71	0.08	-0.750			
0.4086	26148.24	3.6500	3.6499	-1.2606	25.70	0.07	-0.750			
0.4124	26393.99	3.6470	3.6470	-1.2895	25.70	0.07	-0.750			
0.4163	26645.96	3.6440	3.6440	-1.3172	25.70	0.07	-0.750			
0.4204	26902.74	3.6410	3.6410	-1.3374	25.69	0.06	-0.750			
0.4244	27161.82	3.6380	3.6381	-1.3671	25.69	0.06	-0.750			
0.4285	27424.25	3.6350	3.6350	-1.3929	25.69	0.06	-0.750			
0.4327	27693.53	3.6320	3.6319	-1.4242	25.69	0.06	-0.750			
0.4370	27970.74	3.6290	3.6291	-1.4507	25.69	0.06	-0.750			
0.4415	28254.40	3.6260	3.6259	-1.4890	25.69	0.06	-0.750			
0.4460	28541.69	3.6230	3.6230	-1.5213	25.68	0.05	-0.750			
0.4506	28836.56	3.6200	3.6200	-1.5602	25.68	0.05	-0.750			
0.4553	29140.04	3.6170	3.6168	-1.5874	25.67	0.04	-0.750			
0.4601	29448.20	3.6140	3.6141	-1.6165	25.66	0.03	-0.750			
0.4651	29763.28	3.6110	3.6110	-1.6418	25.66	0.03	-0.750			
0.4700	30082.79	3.6080	3.6078	-1.6756	25.65	0.02	-0.750			
0.4751	30404.44	3.6050	3.6050	-1.6986	25.65	0.02	-0.750			
0.4802	30731.14	3.6020	3.6021	-1.7324	25.64	0.01	-0.750			
0.4854	31065.81	3.5990	3.5991	-1.7702	25.64	0.01	-0.750			
0.4908	31410.46	3.5960	3.5959	-1.8038	25.63	0.00	-0.750			
0.4963	31763.69	3.5930	3.5930	-1.8425	25.62	-0.01	-0.750			
0.5019	32121.05	3.5900	3.5900	-1.8872	25.62	-0.01	-0.750			
0.5076	32487.68	3.5870	3.5870	-1.9166	25.61	-0.02	-0.750			
0.5134	32856.64	3.5840	3.5839	-1.9364	25.61	-0.02	-0.750			
0.5192	33231.16	3.5810	3.5811	-1.9607	25.60	-0.03	-0.750			
0.5252	33611.92	3.5780	3.5780	-1.9696	25.60	-0.03	-0.750			
0.5312	33994.09	3.5750	3.5750	-1.9965	25.59	-0.04	-0.750			
0.5371	34375.03	3.5720	3.5721	-2.0199	25.58	-0.05	-0.750	0.390	0.559	
0.5432	34766.18	3.5690	3.5691	-2.0403	25.57	-0.06	-0.750			
0.5494	35162.40	3.5660	3.5660	-2.0614	25.56	-0.07	-0.750			
0.5556	35560.18	3.5630	3.5631	-2.0728	25.56	-0.07	-0.750			
0.5619	35959.43	3.5600	3.5600	-2.0653	25.56	-0.07	-0.750			
0.5681	36356.23	3.5570	3.5570	-2.0882	25.56	-0.07	-0.750			
0.5743	36756.66	3.5540	3.5540	-2.0768	25.56	-0.07	-0.750			
0.5806	37158.73	3.5510	3.5510	-2.0799	25.55	-0.08	-0.750			
0.5869	37561.51	3.5480	3.5481	-2.0732	25.55	-0.08	-0.750			
0.5931	37957.67	3.5450	3.5450	-2.0658	25.54	-0.09	-0.750			
0.5993	38352.99	3.5420	3.5420	-2.0356	25.54	-0.09	-0.750			
0.6053	38742.20	3.5390	3.5389	-2.0359	25.54	-0.09	-0.750			
0.6114	39131.23	3.5360	3.5360	-2.0273	25.54	-0.09	-0.750			
0.6175	39521.09	3.5330	3.5329	-2.0071	25.55	-0.08	-0.750			
0.6236	39910.33	3.5300	3.5300	-1.9846	25.56	-0.07	-0.750			
0.6295	40289.08	3.5270	3.5272	-1.9504	25.56	-0.07	-0.750			
0.6353	40659.98	3.5240	3.5240	-1.8929	25.56	-0.07	-0.750			
0.6409	41015.10	3.5210	3.5210	-1.8449	25.57	-0.06	-0.750			
0.6464	41367.28	3.5180	3.5179	-1.7958	25.58	-0.05	-0.750			
0.6516	41705.02	3.5150	3.5148	-1.7557	25.58	-0.05	-0.750			
0.6568	42037.40	3.5120	3.5121	-1.7090	25.59	-0.04	-0.750			
0.6620	42365.12	3.5090	3.5090	-1.6639	25.60	-0.03	-0.750			
0.6668	42676.90	3.5060	3.5060	-1.6096	25.62	-0.01	-0.750			
0.6716	42982.83	3.5030	3.5031	-1.5689	25.63	0.00	-0.750			
0.6762	43279.63	3.5000	3.4999	-1.5230	25.65	0.02	-0.750			
0.6808	43568.89	3.4970	3.4969	-1.4799	25.66	0.03	-0.750			
0.6851	43846.88	3.4940	3.4940	-1.4355	25.68	0.05	-0.750			
0.6894	44119.84	3.4910	3.4910	-1.3986	25.69	0.06	-0.750			
0.6935	44384.41	3.4880	3.4879	-1.3571	25.70	0.07	-0.750			
0.6975	44638.80	3.4850	3.4850	-1.3136	25.72	0.09	-0.750			
0.7013	44885.54	3.4820	3.4821	-1.2732	25.73	0.10	-0.750			
0.7052	45129.62	3.4790	3.4790	-1.2436	25.75	0.12	-0.750			
0.7088	45363.58	3.4760	3.4760	-1.2121	25.77	0.14	-0.750			
0.7124	45590.73	3.4730	3.4730	-1.1864	25.78	0.15	-0.750			
0.7159	45815.15	3.4700	3.4700	-1.1645	25.79	0.16	-0.750			
0.7193	46036.54	3.4670	3.4670	-1.1467	25.81	0.18	-0.750			
0.7227	46254.87	3.4640	3.4639	-1.1315	25.82	0.19	-0.750			
0.7261	46470.07	3.4610	3.4609	-1.1212	25.83	0.20	-0.750			
0.7294	46683.98	3.4580	3.4579	-1.1092	25.85	0.22	-0.750			
0.7327	46895.60	3.4550	3.4550	-1.0937	25.86	0.23	-0.750			
0.7360	47103.48	3.4520	3.4521	-1.0825	25.88	0.25	-0.750			
0.7392	47311.91	3.4490	3.4490	-1.0819	25.89	0.26	-0.750			
0.7425	47518.91	3.4460	3.4460	-1.0767	25.90	0.27	-0.750			
0.7457	47723.93	3.4430	3.4429	-1.0693	25.91	0.28	-0.750			
0.7489	47927.64	3.4400	3.4401	-1.0685	25.92	0.29	-0.750			
0.7521	48133.93	3.4370	3.4370	-1.0685	25.93	0.30	-0.750			
0.7553	48340.54	3.4340	3.4339	-1.0588	25.94	0.31	-0.750			
0.7585	48543.08	3.4310	3.4309	-1.0486	25.95	0.32	-0.750			
0.7616	48744.91	3.4280	3.4281	-1.0370	25.96	0.33	-0.750			
0.7647	48942.67	3.4250	3.4249	-1.0249	25.97	0.34	-0.750			
0.7678	49139.27	3.4220	3.4220	-1.0078	25.98	0.35	-0.750			
0.7708	49330.05	3.4190	3.4190	-0.9903	25.99	0.36	-0.750			
0.7737	49519.37	3.4160	3.4161	-0.9735	26.00	0.37	-0.750			
0.7766	49705.16	3.4130	3.4129	-0.9560	26.01	0.38	-0.750			
0.7795	49885.16	3.4100	3.4100	-0.9378	26.02	0.39	-0.750			
0.7823	50064.39	3.4070	3.4070	-0.9186	26.03	0.40	-0.750			
0.7850	50239.70	3.4040	3.4039	-0.8978	26.04	0.41	-0.750			
0.7877	50410.82	3.4010	3.4010	-0.8747	26.05	0.42	-0.750			
0.7902	50575.15	3.3980	3.3981	-0.8510	26.06	0.43	-0.750			
0.7928	50738.19	3.3950	3.3949	-0.8248	26.07	0.44	-0.750			
0.7952	50894.26	3.3920	3.3920	-0.7956	26.08	0.45	-0.750			
0.7976	51044.43	3.3890	3.3889	-0.7646	26.09	0.46	-0.750			
0.7998	51189.57	3.3860	3.3860	-0.7357	26.09	0.46	-0.750			
0.8020	51327.25	3.3830	3.3829	-0.7028	26.10	0.47	-0.750			
0.8040	51458.30	3.3800	3.3800	-0.6698	26.10	0.47	-0.750			
0.8060	51582.04	3.3770	3.3770	-0.6371	26.11	0.48	-0.750			
0.8079	51703.09	3.3740	3.3739	-0.6116	26.11	0.48	-0.750			
0.8096	51817.46	3.3710	3.3710	-0.5824	26.12	0.49	-0.750			
0.8114	51926.51	3.3680	3.3680	-0.5551	26.12	0.49	-0.750			
0.8130	52030.37	3.3650	3.3650	-0.5293	26.13	0.50	-0.750			
0.8145	52128.92	3.3620	3.3620	-0.5051	26.14	0.51	-0.750			
0.8160	52222.56	3.3590	3.3590	-0.4811	26.14	0.51	-0.750			
0.8174	52312.95	3.3560	3.3560	-0.4574	26.15	0.52	-0.750			
0.8187	52398.27	3.3530	3.3530	-0.4367	26.16	0.53	-0.750			
0.8200	52479.64	3.3500	3.3501	-0.4191	26.16	0.53	-0.750			
0.8212	52558.09	3.3470	3.3470	-0.4017	26.17	0.54	-0.750			
0.8224	52632.87	3.3440	3.3439	-0.3842	26.17	0.54	-0.750			
0.8235	52705.17	3.3410	3.3411	-0.3693	26.18	0.55	-0.750			
0.8246	52774.55	3.3380	3.3380	-0.3557	26.18	0.55	-0.750			
0.8257	52841.69	3.3350	3.3350	-0.3435	26.19	0.56	-0.750			
0.8266	52905.39	3.3320	3.3320	-0.3292	26.19	0.56	-0.750			
0.8276	52967.17	3.3290	3.3290	-0.3182	26.19	0.56	-0.750			
0.8286	53027.34	3.3260	3.3260	-0.3082	26.20	0.57	-0.750			
0.8295	53085.64	3.3230	3.3230	-0.2986	26.20	0.57	-0.750			
0.8303	53141.75	3.3200	3.3200	-0.2897	26.20	0.57	-0.750			
0.8312	53196.23	3.3170	3.3170	-0.2813	26.20	0.57	-0.750			
0.8320	53249.00	3.3140	3.3140	-0.2736	26.21	0.58	-0.750			
0.8328	53301.08	3.3110	3.3110	-0.2669	26.21	0.58	-0.750			
0.8336	53351.50	3.3080	3.3080	-0.2604	26.21	0.58	-0.750			
0.8344	53401.02	3.3050	3.3050	-0.2542	26.21	0.58	-0.750			
0.8351	53449.17	3.3020	3.3020	-0.2478	26.22	0.59	-0.750			
0.8359	53496.06	3.2990	3.2989	-0.2411	26.22	0.59	-0.750			
0.8366	53541.46	3.2960	3.2960	-0.2352	26.22	0.59	-0.750			
0.8373	53585.92	3.2930	3.2930	-0.2298	26.23	0.60	-0.750			
0.8380	53629.41	3.2900	3.2900	-0.2255	26.23	0.60	-0.750			
0.8386	53672.17	3.2870	3.2870	-0.2209	26.24	0.61	-0.750			
0.8393	53713.76	3.2840	3.2840	-0.2173	26.25	0.62	-0.750			
0.8399	53755.28	3.2810	3.2810	-0.2135	26.25	0.62	-0.750			
0.8406	53796.07	3.2780	3.2779	-0.2101	26.26	0.63	-0.750			
0.8412	53836.04	3.2750	3.2750	-0.2063	26.26	0.63	-0.750			
0.8418	53875.18	3.2720	3.2721	-0.2034	26.27	0.64	-0.750			
0.8424	53914.13	3.2690	3.2689	-0.1996	26.27	0.64	-0.750			
0.8430	53951.89	3.2660	3.2660	-0.1960	26.28	0.65	-0.750			
0.8436	53989.19	3.2630	3.2630	-0.1926	26.28	0.65	-0.750			
0.8441	54025.59	3.2600	3.2601	-0.1900	26.29	0.66	-0.750			
0.8447	54061.87	3.2570	3.2569	-0.1877	26.29	0.66	-0.750			
0.8453	54097.52	3.2540	3.2539	-0.1849	26.29	0.66	-0.750			
0.8458	54132.79	3.2510	3.2510	-0.1826	26.30	0.67	-0.750			
0.8464	54167.42	3.2480	3.2481	-0.1802	26.30	0.67	-0.750			
0.8469	54202.18	3.2450	3.2450	-0.1785	26.31	0.68	-0.750			
0.8474	54236.08	3.2420	3.2420	-0.1759	26.31	0.68	-0.750			
0.8480	54269.64	3.2390	3.2389	-0.1736	26.32	0.69	-0.750			
0.8485	54302.67	3.2360	3.2360	-0.1712	26.32	0.69	-0.750			
0.8490	54335.36	3.2330	3.2330	-0.1690	26.32	0.69	-0.750			
0.8495	54367.44	3.2300	3.2301	-0.1672	26.33	0.70	-0.750			
0.8500	54399.38	3.2270	3.2270	-0.1653	26.33	0.70	-0.750			
0.8505	54430.86	3.2240	3.2240	-0.1634	26.33	0.70	-0.750			
0.8510	54461.97	3.2210	3.2210	-0.1620	26.34	0.71	-0.750			
0.8515	54492.96	3.2180	3.2180	-0.1603	26.34	0.71	-0.750			
0.8519	54523.61	3.2150	3.2150	-0.1589	26.34	0.71	-0.750			
0.8524	54553.97	3.2120	3.2120	-0.1573	26.35	0.72	-0.750			
0.8529	54584.03	3.2090	3.2090	-0.1560	26.35	0.72	-0.750			
0.8533	54613.76	3.2060	3.2059	-0.1541	26.35	0.72	-0.750			
0.8538	54643.28	3.2030	3.2030	-0.1529	26.36	0.73	-0.750			
0.8543	54672.48	3.2000	3.2000	-0.1513	26.36	0.73	-0.750			
0.8547	54701.37	3.1970	3.1970	-0.1494	26.36	0.73	-0.750			
0.8552	54729.83	3.1940	3.1940	-0.1484	26.37	0.74	-0.750			
0.8556	54758.17	3.1910	3.1910	-0.1466	26.37	0.74	-0.750			
0.8560	54786.19	3.1880	3.1880	-0.1453	26.37	0.74	-0.750			
0.8565	54813.85	3.1850	3.1849	-0.1442	26.38	0.75	-0.750			
0.8569	54841.58	3.1820	3.1820	-0.1429	26.38	0.75	-0.750			
0.8573	54868.86	3.1790	3.1789	-0.1415	26.38	0.75	-0.750			
0.8577	54895.91	3.1760	3.1761	-0.1402	26.38	0.75	-0.750			
0.8582	54922.76	3.1730	3.1731	-0.1391	26.39	0.76	-0.750			
0.8586	54949.10	3.1700	3.1700	-0.1377	26.39	0.76	-0.750			
0.8590	54975.53	3.1670	3.1669	-0.1369	26.39	0.76	-0.750			
0.8594	55001.71	3.1640	3.1641	-0.1358	26.40	0.77	-0.750			
0.8598	55027.54	3.1610	3.1610	-0.1347	26.40	0.77	-0.750			
0.8602	55053.48	3.1580	3.1580	-0.1340	26.40	0.77	-0.750			
0.8606	55079.18	3.1550	3.1550	-0.1328	26.41	0.78	-0.750			
0.8610	55104.55	3.1520	3.1520	-0.1315	26.41	0.78	-0.750			
0.8614	55129.64	3.1490	3.1490	-0.1305	26.41	0.78	-0.750			
0.8618	55154.54	3.1460	3.1460	-0.1294	26.42	0.79	-0.750			
0.8622	55179.28	3.1430	3.1430	-0.1284	26.42	0.79	-0.750			
0.8626	55203.81	3.1400	3.1399	-0.1276	26.42	0.79	-0.750			
0.8629	55228.14	3.1370	3.1370	-0.1267	26.43	0.80	-0.750			
0.8633	55252.57	3.1340	3.1340	-0.1253	26.43	0.80	-0.750			
0.8637	55276.74	3.1310	3.1310	-0.1244	26.43	0.80	-0.750			
0.8641	55300.29	3.1280	3.1281	-0.1233	26.44	0.81	-0.750			
0.8644	55323.76	3.1250	3.1250	-0.1220	26.44	0.81	-0.750			
0.8648	55346.91	3.1220	3.1220	-0.1211	26.44	0.81	-0.750			
0.8652	55370.10	3.1190	3.1189	-0.1204	26.45	0.82	-0.750			
0.8655	55393.03	3.1160	3.1160	-0.1193	26.45	0.82	-0.750			
0.8659	55415.90	3.1130	3.1130	-0.1189	26.45	0.82	-0.750			
0.8662	55438.95	3.1100	3.1100	-0.1185	26.46	0.83	-0.750			
0.8666	55461.61	3.1070	3.1070	-0.1175	26.46	0.83	-0.750			
0.8669	55484.05	3.1040	3.1039	-0.1165	26.46	0.83	-0.750			
0.8673	55506.32	3.1010	3.1010	-0.1155	26.47	0.84	-0.750			
0.8676	55528.34	3.0980	3.0981	-0.1145	26.47	0.84	-0.750			
0.8680	55550.25	3.0950	3.0950	-0.1136	26.47	0.84	-0.750			
0.8683	55571.93	3.0920	3.0919	-0.1129	26.48	0.85	-0.750			
0.8686	55593.53	3.0890	3.0890	-0.1121	26.48	0.85	-0.750			
0.8690	55614.93	3.0860	3.0860	-0.1114	26.48	0.85	-0.750			
0.8693	55636.27	3.0830	3.0830	-0.1108	26.48	0.85	-0.750			
0.8696	55657.56	3.0800	3.0800	-0.1100	26.49	0.86	-0.750			
0.8700	55678.62	3.0770	3.0770	-0.1093	26.49	0.86	-0.750			
0.8703	55699.59	3.0740	3.0741	-0.1085	26.49	0.86	-0.750			
0.8706	55720.32	3.0710	3.0710	-0.1075	26.50	0.87	-0.750			
0.8709	55740.76	3.0680	3.0680	-0.1068	26.50	0.87	-0.750			
0.8713	55761.20	3.0650	3.0650	-0.1061	26.50	0.87	-0.750			
0.8716	55781.47	3.0620	3.0619	-0.1052	26.51	0.88	-0.750			
0.8719	55801.61	3.0590	3.0590	-0.1046	26.51	0.88	-0.750			
0.8722	55821.62	3.0560	3.0560	-0.1040	26.51	0.88	-0.750			
0.8725	55841.55	3.0530	3.0530	-0.1034	26.51	0.88	-0.750			
0.8728	55861.37	3.0500	3.0500	-0.1027	26.51	0.88	-0.750			
0.8731	55881.09	3.0470	3.0470	-0.1020	26.52	0.89	-0.750			
0.8734	55900.59	3.0440	3.0440	-0.1013	26.52	0.89	-0.750			
0.8737	55919.90	3.0410	3.0411	-0.1004	26.52	0.89	-0.750			
0.8740	55939.10	3.0380	3.0380	-0.0999	26.52	0.89	-0.750			
0.8743	55958.24	3.0350	3.0349	-0.0993	26.52	0.89	-0.750			
0.8746	55977.21	3.0320	3.0320	-0.0987	26.53	0.90	-0.750			
0.8749	55996.01	3.0290	3.0290	-0.0980	26.53	0.90	-0.750			
0.8752	56014.87	3.0260	3.0261	-0.0972	26.53	0.90	-0.750			
0.8755	56033.55	3.0230	3.0230	-0.0966	26.53	0.90	-0.750			
0.8758	56051.93	3.0200	3.0199	-0.0961	26.53	0.90	-0.750			
0.8761	56070.33	3.0170	3.0171	-0.0955	26.53	0.90	-0.750			
0.8764	56088.58	3.0140	3.0141	-0.0950	26.54	0.91	-0.750			
0.8767	56106.66	3.0110	3.0108	-0.0944	26.54	0.91	-0.750			
0.8769	56124.75	3.0080	3.0080	-0.0941	26.54	0.91	-0.750			
0.8772	56142.67	3.0050	3.0050	-0.0943	26.54	0.91	-0.750			
0.8775	56160.79	3.0020	3.0020	-0.0945	26.54	0.91	-0.750			
