Ah_balance (normalized)	Ah_balance (mAh)	Voltage - fit (V)	Voltage -  interpolate (V)	dQ/dV (1/V)	Temperature (°C)	Temperature - diff (°C)	Current (C)	R_DC 0ms (mOhm)	R_DC 50ms (mOhm)	R_DC 50 ms PEC (mOhm)
0.2395	15326.95	3.9740	3.9740	0.8482	25.94	0.00	0.750			
0.2421	15492.63	3.9710	3.9710	0.8683	25.94	0.00	0.750			
0.2447	15660.73	3.9680	3.9679	0.8756	25.94	0.00	0.750			
0.2473	15830.17	3.9650	3.9650	0.8784	25.94	0.00	0.750			
0.2500	15999.80	3.9620	3.9621	0.8811	25.94	0.00	0.750			
0.2526	16169.45	3.9590	3.9590	0.8809	25.94	0.00	0.750			
0.2553	16338.93	3.9560	3.9560	0.8809	25.94	0.00	0.750			
0.2579	16506.44	3.9530	3.9530	0.8788	25.94	0.00	0.750			
0.2606	16675.43	3.9500	3.9500	0.8788	25.94	0.00	0.750			
0.2632	16844.03	3.9470	3.9470	0.8831	25.94	0.00	0.750			
0.2658	17013.96	3.9440	3.9440	0.8852	25.95	0.01	0.750			
0.2685	17184.14	3.9410	3.9410	0.8907	25.95	0.01	0.750			
0.2712	17355.32	3.9380	3.9381	0.8941	25.95	0.01	0.750			
0.2739	17527.51	3.9350	3.9350	0.8956	25.95	0.01	0.750			
0.2766	17699.99	3.9320	3.9320	0.8978	25.95	0.01	0.750			
0.2793	17873.03	3.9290	3.9291	0.8996	25.95	0.01	0.750			
0.2820	18044.81	3.9260	3.9259	0.9003	25.95	0.01	0.750			
0.2847	18218.89	3.9230	3.9231	0.9046	25.95	0.01	0.750			
0.2874	18391.75	3.9200	3.9200	0.9082	25.95	0.01	0.750			
0.2901	18567.49	3.9170	3.9170	0.9140	25.96	0.02	0.750			
0.2929	18744.31	3.9140	3.9141	0.9163	25.96	0.02	0.750			
0.2956	18919.71	3.9110	3.9109	0.9180	25.96	0.02	0.750			
0.2984	19096.95	3.9080	3.9081	0.9149	25.96	0.02	0.750			
0.3011	19272.01	3.9050	3.9050	0.9160	25.96	0.02	0.750			
0.3039	19447.00	3.9020	3.9020	0.9171	25.95	0.01	0.750			
0.3066	19622.46	3.8990	3.8990	0.9194	25.95	0.01	0.750			
0.3094	19799.80	3.8960	3.8961	0.9251	25.95	0.01	0.750			
0.3122	19978.13	3.8930	3.8929	0.9313	25.95	0.01	0.750			
0.3150	20157.56	3.8900	3.8900	0.9357	25.95	0.01	0.750			
0.3178	20338.79	3.8870	3.8871	0.9394	25.95	0.01	0.750			
0.3206	20519.64	3.8840	3.8839	0.9417	25.95	0.01	0.750			
0.3234	20699.86	3.8810	3.8811	0.9457	25.95	0.01	0.750			
0.3263	20880.77	3.8780	3.8780	0.9466	25.95	0.01	0.750			
0.3291	21062.85	3.8750	3.8750	0.9511	25.94	0.00	0.750			
0.3320	21245.98	3.8720	3.8720	0.9573	25.94	0.00	0.750			
0.3349	21431.30	3.8690	3.8690	0.9593	25.94	-0.00	0.750			
0.3377	21615.49	3.8660	3.8660	0.9687	25.94	-0.00	0.750			
0.3406	21801.12	3.8630	3.8630	0.9750	25.93	-0.01	0.750			
0.3436	21988.59	3.8600	3.8600	0.9828	25.93	-0.01	0.750			
0.3465	22179.17	3.8570	3.8571	0.9875	25.93	-0.01	0.750			
0.3495	22369.71	3.8540	3.8540	0.9930	25.93	-0.01	0.750			
0.3525	22560.42	3.8510	3.8510	0.9997	25.92	-0.02	0.750			
0.3555	22753.31	3.8480	3.8480	1.0068	25.92	-0.02	0.750			
0.3585	22945.61	3.8450	3.8450	1.0100	25.92	-0.02	0.750			
0.3616	23140.66	3.8420	3.8420	1.0159	25.91	-0.03	0.750			
0.3646	23336.51	3.8390	3.8390	1.0233	25.91	-0.03	0.750			
0.3677	23533.80	3.8360	3.8360	1.0326	25.90	-0.04	0.750			
0.3708	23733.23	3.8330	3.8330	1.0368	25.90	-0.04	0.750			
0.3739	23931.97	3.8300	3.8300	1.0472	25.89	-0.05	0.750			
0.3771	24133.62	3.8270	3.8270	1.0576	25.89	-0.05	0.750			
0.3803	24337.72	3.8240	3.8241	1.0701	25.88	-0.06	0.750			
0.3835	24544.77	3.8210	3.8210	1.0800	25.88	-0.06	0.750			
0.3868	24752.62	3.8180	3.8180	1.0911	25.88	-0.06	0.750			
0.3900	24962.93	3.8150	3.8150	1.1017	25.87	-0.07	0.750			
0.3934	25175.84	3.8120	3.8120	1.1154	25.87	-0.07	0.750			
0.3967	25390.93	3.8090	3.8090	1.1211	25.87	-0.07	0.750			
0.4001	25607.24	3.8060	3.8060	1.1348	25.87	-0.07	0.750			
0.4035	25824.73	3.8030	3.8031	1.1539	25.86	-0.08	0.750			
0.4070	26048.54	3.8000	3.7999	1.1654	25.86	-0.08	0.750			
0.4105	26273.51	3.7970	3.7970	1.1802	25.86	-0.08	0.750			
0.4141	26501.33	3.7940	3.7941	1.1974	25.85	-0.09	0.750			
0.4177	26733.13	3.7910	3.7909	1.2139	25.84	-0.10	0.750			
0.4214	26967.74	3.7880	3.7880	1.2241	25.84	-0.10	0.750			
0.4250	27202.94	3.7850	3.7850	1.2456	25.84	-0.10	0.750			
0.4288	27442.26	3.7820	3.7821	1.2623	25.84	-0.10	0.750			
0.4326	27688.73	3.7790	3.7788	1.2842	25.84	-0.10	0.750			
0.4365	27936.25	3.7760	3.7761	1.3027	25.83	-0.11	0.750			
0.4404	28188.29	3.7730	3.7730	1.3227	25.83	-0.11	0.750			
0.4445	28445.50	3.7700	3.7700	1.3418	25.82	-0.12	0.750			
0.4485	28701.75	3.7670	3.7671	1.3639	25.81	-0.13	0.750			
0.4526	28964.47	3.7640	3.7640	1.3945	25.81	-0.13	0.750			
0.4568	29234.77	3.7610	3.7608	1.4158	25.80	-0.14	0.750			
0.4611	29508.77	3.7580	3.7581	1.4424	25.79	-0.15	0.750			
0.4654	29788.55	3.7550	3.7551	1.4769	25.79	-0.15	0.750			
0.4699	30075.24	3.7520	3.7518	1.5090	25.78	-0.16	0.750			
0.4745	30365.40	3.7490	3.7492	1.5347	25.77	-0.17	0.750			
0.4792	30666.32	3.7460	3.7461	1.5666	25.77	-0.17	0.750			
0.4839	30969.90	3.7430	3.7429	1.6101	25.76	-0.18	0.750			
0.4888	31282.95	3.7400	3.7399	1.6450	25.75	-0.19	0.750			
0.4938	31600.76	3.7370	3.7370	1.6836	25.74	-0.20	0.750			
0.4989	31927.37	3.7340	3.7339	1.7218	25.73	-0.21	0.750			
0.5041	32260.78	3.7310	3.7310	1.7660	25.73	-0.21	0.750			
0.5095	32606.68	3.7280	3.7281	1.8040	25.72	-0.22	0.750			
0.5150	32958.96	3.7250	3.7249	1.8474	25.71	-0.23	0.750			
0.5206	33315.49	3.7220	3.7221	1.8728	25.70	-0.24	0.750			
0.5262	33677.91	3.7190	3.7189	1.9337	25.69	-0.25	0.750			
0.5321	34053.36	3.7160	3.7160	1.9982	25.68	-0.26	0.750			
0.5381	34441.35	3.7130	3.7131	2.0399	25.67	-0.27	0.750	0.355	0.495	
0.5445	34845.57	3.7100	3.7100	2.1105	25.65	-0.29	0.750			
0.5509	35258.59	3.7070	3.7070	2.1661	25.65	-0.29	0.750			
0.5574	35673.41	3.7040	3.7042	2.2064	25.64	-0.30	0.750			
0.5641	36101.03	3.7010	3.7010	2.2624	25.63	-0.31	0.750			
0.5710	36543.06	3.6980	3.6979	2.3369	25.62	-0.32	0.750			
0.5781	37000.13	3.6950	3.6949	2.3997	25.61	-0.33	0.750			
0.5854	37464.79	3.6920	3.6922	2.4504	25.61	-0.33	0.750			
0.5929	37943.45	3.6890	3.6891	2.5013	25.60	-0.34	0.750			
0.6004	38428.18	3.6860	3.6859	2.5394	25.59	-0.35	0.750			
0.6082	38924.43	3.6830	3.6830	2.6084	25.58	-0.36	0.750			
0.6161	39431.31	3.6800	3.6800	2.6682	25.57	-0.37	0.750			
0.6242	39945.64	3.6770	3.6771	2.6653	25.57	-0.37	0.750			
0.6322	40462.07	3.6740	3.6740	2.6456	25.57	-0.37	0.750			
0.6402	40975.02	3.6710	3.6709	2.5566	25.56	-0.38	0.750			
0.6478	41460.80	3.6680	3.6680	2.4252	25.56	-0.38	0.750			
0.6549	41910.88	3.6650	3.6649	2.2588	25.57	-0.37	0.750			
0.6613	42325.12	3.6620	3.6620	2.0780	25.57	-0.37	0.750			
0.6673	42709.33	3.6590	3.6589	1.9115	25.57	-0.37	0.750			
0.6727	43055.32	3.6560	3.6560	1.7524	25.57	-0.37	0.750			
0.6777	43375.48	3.6530	3.6531	1.6259	25.58	-0.36	0.750			
0.6823	43665.87	3.6500	3.6498	1.5122	25.58	-0.36	0.750			
0.6866	43942.35	3.6470	3.6470	1.4245	25.58	-0.36	0.750			
0.6907	44204.19	3.6440	3.6440	1.3654	25.59	-0.35	0.750			
0.6947	44458.68	3.6410	3.6409	1.3119	25.59	-0.35	0.750			
0.6985	44703.45	3.6380	3.6380	1.2680	25.59	-0.35	0.750			
0.7022	44942.50	3.6350	3.6350	1.2367	25.60	-0.34	0.750			
0.7059	45174.65	3.6320	3.6320	1.2099	25.60	-0.34	0.750			
0.7095	45405.38	3.6290	3.6290	1.1877	25.60	-0.34	0.750			
0.7129	45626.90	3.6260	3.6260	1.1743	25.60	-0.34	0.750			
0.7164	45849.32	3.6230	3.6231	1.1722	25.61	-0.33	0.750			
0.7199	46076.20	3.6200	3.6198	1.1664	25.61	-0.33	0.750			
0.7234	46297.43	3.6170	3.6170	1.1692	25.61	-0.33	0.750			
0.7269	46523.77	3.6140	3.6141	1.1743	25.62	-0.32	0.750			
0.7305	46750.12	3.6110	3.6110	1.1760	25.62	-0.32	0.750			
0.7340	46975.53	3.6080	3.6081	1.1753	25.62	-0.32	0.750			
0.7375	47200.87	3.6050	3.6051	1.1772	25.62	-0.32	0.750			
0.7410	47425.67	3.6020	3.6020	1.1839	25.62	-0.32	0.750			
0.7446	47654.85	3.5990	3.5989	1.1908	25.62	-0.32	0.750			
0.7481	47880.23	3.5960	3.5961	1.2061	25.62	-0.32	0.750			
0.7518	48112.94	3.5930	3.5930	1.2328	25.63	-0.31	0.750			
0.7555	48351.24	3.5900	3.5900	1.2652	25.63	-0.31	0.750			
0.7593	48595.67	3.5870	3.5870	1.3036	25.63	-0.31	0.750			
0.7633	48849.35	3.5840	3.5840	1.3505	25.63	-0.31	0.750			
0.7674	49114.44	3.5810	3.5811	1.3903	25.64	-0.30	0.750			
0.7717	49388.12	3.5780	3.5780	1.4298	25.64	-0.30	0.750			
0.7760	49664.02	3.5750	3.5751	1.4623	25.64	-0.30	0.750			
0.7804	49947.87	3.5720	3.5721	1.4993	25.64	-0.30	0.750			
0.7850	50240.98	3.5690	3.5690	1.5257	25.64	-0.30	0.750			
0.7897	50538.79	3.5660	3.5659	1.5508	25.64	-0.30	0.750			
0.7944	50839.94	3.5630	3.5630	1.5676	25.64	-0.30	0.750			
0.7991	51145.38	3.5600	3.5602	1.5967	25.65	-0.29	0.750			
0.8040	51454.84	3.5570	3.5570	1.5986	25.65	-0.29	0.750			
0.8088	51764.87	3.5540	3.5540	1.5937	25.66	-0.28	0.750			
0.8136	52070.73	3.5510	3.5512	1.5866	25.66	-0.28	0.750			
0.8184	52377.21	3.5480	3.5480	1.5788	25.67	-0.27	0.750			
0.8231	52678.93	3.5450	3.5448	1.5457	25.67	-0.27	0.750			
0.8278	52979.62	3.5420	3.5420	1.4992	25.68	-0.26	0.750			
0.8324	53272.33	3.5390	3.5389	1.3785	25.69	-0.25	0.750			
0.8367	53548.71	3.5360	3.5360	1.2541	25.71	-0.23	0.750			
0.8403	53780.89	3.5330	3.5333	1.0765	25.73	-0.21	0.750			
0.8432	53967.62	3.5300	3.5302	0.8979	25.74	-0.20	0.750			
0.8455	54113.36	3.5270	3.5269	0.7151	25.75	-0.19	0.750			
0.8473	54224.68	3.5240	3.5238	0.5871	25.77	-0.17	0.750			
0.8486	54311.32	3.5210	3.5209	0.4760	25.78	-0.16	0.750			
0.8498	54390.39	3.5180	3.5179	0.4179	25.78	-0.16	0.750			
0.8510	54461.76	3.5150	3.5149	0.3710	25.79	-0.15	0.750			
0.8520	54526.00	3.5120	3.5120	0.3402	25.80	-0.14	0.750			
0.8529	54587.70	3.5090	3.5089	0.3173	25.81	-0.13	0.750			
0.8538	54644.76	3.5060	3.5060	0.2999	25.81	-0.13	0.750			
0.8547	54700.54	3.5030	3.5029	0.2878	25.82	-0.12	0.750			
0.8555	54754.15	3.5000	3.5000	0.2769	25.83	-0.11	0.750			
0.8563	54806.21	3.4970	3.4970	0.2694	25.83	-0.11	0.750			
0.8571	54856.88	3.4940	3.4940	0.2616	25.84	-0.10	0.750			
0.8579	54906.28	3.4910	3.4909	0.2545	25.84	-0.10	0.750			
0.8587	54954.33	3.4880	3.4880	0.2483	25.84	-0.10	0.750			
0.8594	55001.16	3.4850	3.4851	0.2423	25.85	-0.09	0.750			
0.8601	55047.09	3.4820	3.4820	0.2367	25.86	-0.08	0.750			
0.8608	55092.06	3.4790	3.4790	0.2312	25.86	-0.08	0.750			
0.8615	55135.92	3.4760	3.4759	0.2266	25.87	-0.07	0.750			
0.8622	55178.47	3.4730	3.4730	0.2212	25.87	-0.07	0.750			
0.8628	55220.73	3.4700	3.4700	0.2169	25.88	-0.06	0.750			
0.8635	55261.93	3.4670	3.4670	0.2122	25.88	-0.06	0.750			
0.8641	55302.22	3.4640	3.4640	0.2075	25.89	-0.05	0.750			
0.8647	55341.66	3.4610	3.4610	0.2028	25.89	-0.05	0.750			
0.8653	55380.15	3.4580	3.4580	0.1983	25.90	-0.04	0.750			
0.8659	55417.76	3.4550	3.4550	0.1935	25.90	-0.04	0.750			
0.8665	55454.19	3.4520	3.4520	0.1894	25.91	-0.03	0.750			
0.8670	55490.07	3.4490	3.4490	0.1852	25.91	-0.03	0.750			
0.8676	55525.55	3.4460	3.4460	0.1808	25.92	-0.02	0.750			
0.8681	55559.82	3.4430	3.4430	0.1761	25.92	-0.02	0.750			
0.8686	55593.32	3.4400	3.4400	0.1714	25.93	-0.01	0.750			
0.8692	55625.81	3.4370	3.4371	0.1670	25.93	-0.01	0.750			
0.8696	55657.28	3.4340	3.4340	0.1623	25.94	-0.00	0.750			
0.8701	55687.99	3.4310	3.4309	0.1577	25.94	0.00	0.750			
0.8706	55717.54	3.4280	3.4280	0.1533	25.94	0.00	0.750			
0.8710	55746.57	3.4250	3.4250	0.1489	25.95	0.01	0.750			
0.8715	55774.98	3.4220	3.4221	0.1453	25.95	0.01	0.750			
0.8719	55802.44	3.4190	3.4189	0.1409	25.96	0.02	0.750			
0.8723	55829.22	3.4160	3.4160	0.1358	25.96	0.02	0.750			
0.8727	55854.80	3.4130	3.4130	0.1311	25.96	0.02	0.750			
0.8731	55879.56	3.4100	3.4100	0.1263	25.97	0.03	0.750			
0.8735	55903.21	3.4070	3.4070	0.1217	25.97	0.03	0.750			
0.8738	55926.00	3.4040	3.4039	0.1169	25.97	0.03	0.750			
0.8742	55948.16	3.4010	3.4010	0.1120	25.98	0.04	0.750			
0.8745	55969.15	3.3980	3.3979	0.1071	25.98	0.04	0.750			
0.8748	55989.51	3.3950	3.3950	0.1018	25.98	0.04	0.750			
0.8751	56008.87	3.3920	3.3920	0.0972	25.98	0.04	0.750			
0.8754	56026.99	3.3890	3.3891	0.0915	25.99	0.05	0.750			
0.8757	56044.88	3.3860	3.3859	0.0843	25.99	0.05	0.750			
0.8759	56060.32	3.3830	3.3830	0.0765	25.99	0.05	0.750			
0.8762	56074.70	3.3800	3.3801	0.0695	25.99	0.05	0.750			
0.8764	56087.26	3.3770	3.3773	0.0612	25.99	0.05	0.750			
0.8765	56099.07	3.3740	3.3743	0.0531	26.00	0.06	0.750			
0.8767	56108.37	3.3710	3.3716	0.0437	26.00	0.06	0.750			
0.8768	56115.85	3.3680	3.3690	0.0342	26.00	0.06	0.750			
0.8769	56121.52	3.3650	3.3666	0.0248	26.00	0.06	0.750			
