Ah_balance (normalized)	Ah_balance (mAh)	Voltage - fit (V)	Voltage -  interpolate (V)	dQ/dV (1/V)	Temperature (°C)	Temperature - diff (°C)	Current (C)	R_DC 0ms (mOhm)	R_DC 50ms (mOhm)	R_DC 50 ms PEC (mOhm)
0.2390	15294.99	3.9740	3.9740	0.8762	25.92	-0.03	0.750			
0.2416	15463.04	3.9710	3.9710	0.8746	25.92	-0.03	0.750			
0.2442	15630.46	3.9680	3.9680	0.8736	25.92	-0.03	0.750			
0.2468	15798.34	3.9650	3.9650	0.8739	25.92	-0.03	0.750			
0.2495	15966.55	3.9620	3.9620	0.8764	25.92	-0.03	0.750			
0.2521	16133.32	3.9590	3.9590	0.8784	25.92	-0.03	0.750			
0.2547	16302.56	3.9560	3.9560	0.8795	25.92	-0.03	0.750			
0.2574	16471.26	3.9530	3.9530	0.8848	25.92	-0.03	0.750			
0.2600	16642.62	3.9500	3.9501	0.8860	25.92	-0.03	0.750			
0.2627	16813.67	3.9470	3.9470	0.8847	25.93	-0.02	0.750			
0.2654	16982.70	3.9440	3.9440	0.8894	25.93	-0.02	0.750			
0.2680	17152.93	3.9410	3.9410	0.8928	25.93	-0.02	0.750			
0.2707	17323.50	3.9380	3.9380	0.8956	25.94	-0.01	0.750			
0.2734	17496.86	3.9350	3.9350	0.9020	25.94	-0.01	0.750			
0.2761	17670.15	3.9320	3.9321	0.9039	25.94	-0.01	0.750			
0.2788	17846.37	3.9290	3.9290	0.9059	25.94	-0.01	0.750			
0.2816	18020.79	3.9260	3.9260	0.9060	25.94	-0.01	0.750			
0.2843	18193.16	3.9230	3.9230	0.9019	25.94	-0.01	0.750			
0.2870	18366.63	3.9200	3.9200	0.8989	25.94	-0.01	0.750			
0.2896	18537.29	3.9170	3.9169	0.9037	25.95	-0.00	0.750			
0.2923	18710.22	3.9140	3.9141	0.9073	25.95	0.00	0.750			
0.2951	18884.91	3.9110	3.9111	0.9135	25.96	0.01	0.750			
0.2978	19061.59	3.9080	3.9079	0.9217	25.96	0.01	0.750			
0.3006	19239.63	3.9050	3.9051	0.9217	25.96	0.01	0.750			
0.3034	19417.13	3.9020	3.9020	0.9241	25.96	0.01	0.750			
0.3062	19594.84	3.8990	3.8990	0.9288	25.96	0.01	0.750			
0.3090	19772.82	3.8960	3.8960	0.9289	25.96	0.01	0.750			
0.3117	19951.85	3.8930	3.8929	0.9307	25.96	0.01	0.750			
0.3145	20130.00	3.8900	3.8901	0.9357	25.96	0.01	0.750			
0.3173	20310.19	3.8870	3.8870	0.9416	25.96	0.01	0.750			
0.3202	20492.16	3.8840	3.8841	0.9474	25.96	0.01	0.750			
0.3230	20673.94	3.8810	3.8810	0.9491	25.96	0.01	0.750			
0.3259	20855.40	3.8780	3.8780	0.9512	25.96	0.01	0.750			
0.3287	21038.30	3.8750	3.8751	0.9590	25.95	0.00	0.750			
0.3316	21223.55	3.8720	3.8720	0.9630	25.95	0.00	0.750			
0.3345	21408.63	3.8690	3.8688	0.9663	25.95	0.00	0.750			
0.3374	21595.05	3.8660	3.8661	0.9708	25.95	-0.00	0.750			
0.3403	21781.87	3.8630	3.8631	0.9774	25.95	-0.00	0.750			
0.3433	21970.87	3.8600	3.8600	0.9853	25.94	-0.01	0.750			
0.3462	22158.80	3.8570	3.8569	0.9861	25.94	-0.01	0.750			
0.3492	22348.73	3.8540	3.8540	0.9937	25.94	-0.01	0.750			
0.3522	22541.17	3.8510	3.8510	1.0042	25.93	-0.02	0.750			
0.3552	22735.50	3.8480	3.8479	1.0096	25.93	-0.02	0.750			
0.3583	22930.01	3.8450	3.8450	1.0142	25.92	-0.03	0.750			
0.3613	23125.23	3.8420	3.8420	1.0154	25.92	-0.03	0.750			
0.3644	23318.67	3.8390	3.8391	1.0268	25.91	-0.04	0.750			
0.3675	23516.82	3.8360	3.8359	1.0369	25.91	-0.04	0.750			
0.3706	23715.52	3.8330	3.8330	1.0459	25.90	-0.05	0.750			
0.3737	23917.70	3.8300	3.8300	1.0548	25.90	-0.05	0.750			
0.3769	24122.62	3.8270	3.8271	1.0670	25.89	-0.06	0.750			
0.3801	24328.57	3.8240	3.8240	1.0754	25.89	-0.06	0.750			
0.3834	24535.32	3.8210	3.8210	1.0861	25.88	-0.07	0.750			
0.3866	24743.32	3.8180	3.8180	1.0912	25.88	-0.07	0.750			
0.3899	24953.26	3.8150	3.8150	1.1072	25.87	-0.08	0.750			
0.3932	25166.96	3.8120	3.8120	1.1215	25.87	-0.08	0.750			
0.3966	25384.86	3.8090	3.8089	1.1306	25.86	-0.09	0.750			
0.4000	25602.22	3.8060	3.8061	1.1417	25.86	-0.09	0.750			
0.4035	25822.10	3.8030	3.8031	1.1598	25.86	-0.09	0.750			
0.4070	26045.89	3.8000	3.7999	1.1735	25.86	-0.09	0.750			
0.4105	26273.35	3.7970	3.7970	1.1838	25.86	-0.09	0.750			
0.4141	26501.74	3.7940	3.7941	1.1968	25.85	-0.10	0.750			
0.4177	26732.85	3.7910	3.7911	1.2183	25.83	-0.12	0.750			
0.4214	26969.97	3.7880	3.7880	1.2321	25.82	-0.13	0.750			
0.4251	27205.40	3.7850	3.7850	1.2477	25.82	-0.13	0.750			
0.4288	27446.05	3.7820	3.7820	1.2684	25.81	-0.14	0.750			
0.4327	27694.00	3.7790	3.7790	1.2884	25.80	-0.15	0.750			
0.4366	27942.86	3.7760	3.7760	1.3142	25.80	-0.15	0.750			
0.4406	28196.03	3.7730	3.7730	1.3364	25.79	-0.16	0.750			
0.4446	28455.39	3.7700	3.7700	1.3534	25.78	-0.17	0.750			
0.4487	28718.17	3.7670	3.7671	1.3826	25.78	-0.17	0.750			
0.4529	28983.50	3.7640	3.7640	1.4086	25.77	-0.18	0.750			
0.4572	29257.64	3.7610	3.7611	1.4297	25.76	-0.19	0.750			
0.4615	29536.02	3.7580	3.7580	1.4562	25.76	-0.19	0.750			
0.4659	29815.49	3.7550	3.7551	1.4833	25.75	-0.20	0.750			
0.4704	30104.03	3.7520	3.7520	1.5084	25.75	-0.20	0.750			
0.4749	30395.86	3.7490	3.7488	1.5427	25.74	-0.21	0.750			
0.4796	30693.23	3.7460	3.7461	1.5679	25.73	-0.22	0.750			
0.4843	30997.82	3.7430	3.7429	1.6051	25.72	-0.23	0.750			
0.4892	31309.89	3.7400	3.7400	1.6459	25.71	-0.24	0.750			
0.4942	31630.95	3.7370	3.7369	1.6885	25.70	-0.25	0.750			
0.4993	31955.07	3.7340	3.7341	1.7273	25.70	-0.25	0.750			
0.5046	32292.57	3.7310	3.7309	1.7731	25.69	-0.26	0.750			
0.5099	32636.36	3.7280	3.7279	1.8125	25.69	-0.26	0.750			
0.5155	32989.14	3.7250	3.7251	1.8625	25.69	-0.26	0.750			
0.5211	33352.66	3.7220	3.7220	1.9099	25.68	-0.27	0.750			
0.5269	33719.78	3.7190	3.7190	1.9649	25.67	-0.28	0.750			
0.5328	34101.83	3.7160	3.7160	2.0131	25.65	-0.30	0.750			
0.5390	34495.14	3.7130	3.7130	2.0601	25.65	-0.30	0.750	0.349	0.490	
0.5453	34898.49	3.7100	3.7101	2.1143	25.64	-0.31	0.750			
0.5517	35307.05	3.7070	3.7070	2.1564	25.63	-0.32	0.750			
0.5582	35724.47	3.7040	3.7040	2.2049	25.62	-0.33	0.750			
0.5648	36150.21	3.7010	3.7010	2.2595	25.61	-0.34	0.750			
0.5717	36591.24	3.6980	3.6980	2.3263	25.60	-0.35	0.750			
0.5788	37043.10	3.6950	3.6950	2.3817	25.60	-0.35	0.750			
0.5861	37508.78	3.6920	3.6920	2.4471	25.60	-0.35	0.750			
0.5935	37984.75	3.6890	3.6889	2.4977	25.60	-0.35	0.750			
0.6010	38466.61	3.6860	3.6860	2.5475	25.59	-0.36	0.750			
0.6088	38965.97	3.6830	3.6829	2.6048	25.58	-0.37	0.750			
0.6167	39466.62	3.6800	3.6800	2.6231	25.58	-0.37	0.750			
0.6246	39974.37	3.6770	3.6770	2.6628	25.58	-0.37	0.750			
0.6327	40491.38	3.6740	3.6740	2.6676	25.58	-0.37	0.750			
0.6408	41011.12	3.6710	3.6709	2.5908	25.59	-0.36	0.750			
0.6486	41509.61	3.6680	3.6680	2.4782	25.59	-0.36	0.750			
0.6557	41966.26	3.6650	3.6650	2.2932	25.60	-0.35	0.750			
0.6622	42382.28	3.6620	3.6621	2.0878	25.60	-0.35	0.750			
0.6683	42768.72	3.6590	3.6589	1.9326	25.60	-0.35	0.750			
0.6737	43117.34	3.6560	3.6560	1.7555	25.60	-0.35	0.750			
0.6787	43434.80	3.6530	3.6531	1.6328	25.61	-0.34	0.750			
0.6833	43730.35	3.6500	3.6499	1.5206	25.62	-0.33	0.750			
0.6876	44009.23	3.6470	3.6469	1.4417	25.63	-0.32	0.750			
0.6918	44273.06	3.6440	3.6440	1.3730	25.63	-0.32	0.750			
0.6957	44527.25	3.6410	3.6410	1.3206	25.64	-0.31	0.750			
0.6996	44775.30	3.6380	3.6380	1.2824	25.64	-0.31	0.750			
0.7034	45014.83	3.6350	3.6350	1.2486	25.64	-0.31	0.750			
0.7070	45249.78	3.6320	3.6320	1.2234	25.64	-0.31	0.750			
0.7107	45481.92	3.6290	3.6290	1.2029	25.64	-0.31	0.750			
0.7142	45709.47	3.6260	3.6260	1.1901	25.64	-0.31	0.750			
0.7177	45934.69	3.6230	3.6230	1.1790	25.65	-0.30	0.750			
0.7213	46160.60	3.6200	3.6200	1.1727	25.65	-0.30	0.750			
0.7248	46384.10	3.6170	3.6170	1.1688	25.65	-0.30	0.750			
0.7283	46608.81	3.6140	3.6140	1.1658	25.66	-0.29	0.750			
0.7317	46831.59	3.6110	3.6110	1.1673	25.66	-0.29	0.750			
0.7353	47056.79	3.6080	3.6080	1.1700	25.66	-0.29	0.750			
0.7387	47279.31	3.6050	3.6050	1.1730	25.67	-0.28	0.750			
0.7422	47503.48	3.6020	3.6020	1.1810	25.67	-0.28	0.750			
0.7458	47730.54	3.5990	3.5990	1.1976	25.68	-0.27	0.750			
0.7494	47959.88	3.5960	3.5960	1.2197	25.68	-0.27	0.750			
0.7531	48195.27	3.5930	3.5930	1.2466	25.68	-0.27	0.750			
0.7568	48437.24	3.5900	3.5900	1.2699	25.68	-0.27	0.750			
0.7607	48683.27	3.5870	3.5870	1.3085	25.68	-0.27	0.750			
0.7647	48938.70	3.5840	3.5840	1.3351	25.69	-0.26	0.750			
0.7687	49197.54	3.5810	3.5810	1.3733	25.69	-0.26	0.750			
0.7728	49462.20	3.5780	3.5781	1.4220	25.70	-0.25	0.750			
0.7772	49737.83	3.5750	3.5750	1.4676	25.70	-0.25	0.750			
0.7816	50025.52	3.5720	3.5721	1.5078	25.70	-0.25	0.750			
0.7863	50322.75	3.5690	3.5689	1.5380	25.70	-0.25	0.750			
0.7910	50623.21	3.5660	3.5660	1.5586	25.70	-0.25	0.750			
0.7958	50929.10	3.5630	3.5630	1.5893	25.70	-0.25	0.750			
0.8005	51235.09	3.5600	3.5598	1.5898	25.71	-0.24	0.750			
0.8053	51539.73	3.5570	3.5571	1.5950	25.71	-0.24	0.750			
0.8102	51852.21	3.5540	3.5540	1.6000	25.72	-0.23	0.750			
0.8150	52159.92	3.5510	3.5511	1.6014	25.73	-0.22	0.750			
0.8198	52469.38	3.5480	3.5479	1.5878	25.74	-0.21	0.750			
0.8246	52777.15	3.5450	3.5450	1.5610	25.74	-0.21	0.750			
0.8294	53080.43	3.5420	3.5419	1.5116	25.75	-0.20	0.750			
0.8340	53379.09	3.5390	3.5388	1.3997	25.76	-0.19	0.750			
0.8383	53651.65	3.5360	3.5361	1.2681	25.77	-0.18	0.750			
0.8420	53886.82	3.5330	3.5332	1.0895	25.78	-0.17	0.750			
0.8450	54078.65	3.5300	3.5301	0.8993	25.79	-0.16	0.750			
0.8472	54220.88	3.5270	3.5271	0.7238	25.80	-0.15	0.750			
0.8490	54335.12	3.5240	3.5238	0.5812	25.81	-0.14	0.750			
0.8503	54419.14	3.5210	3.5210	0.4766	25.82	-0.13	0.750			
0.8515	54498.95	3.5180	3.5179	0.4123	25.83	-0.12	0.750			
0.8526	54567.16	3.5150	3.5149	0.3657	25.83	-0.12	0.750			
0.8536	54632.88	3.5120	3.5119	0.3368	25.84	-0.11	0.750			
0.8546	54692.72	3.5090	3.5092	0.3143	25.84	-0.11	0.750			
0.8555	54750.97	3.5060	3.5059	0.2990	25.85	-0.10	0.750			
0.8563	54805.61	3.5030	3.5029	0.2853	25.85	-0.10	0.750			
0.8572	54858.94	3.5000	3.5000	0.2757	25.86	-0.09	0.750			
0.8580	54910.78	3.4970	3.4970	0.2677	25.86	-0.09	0.750			
0.8588	54961.46	3.4940	3.4940	0.2615	25.87	-0.08	0.750			
0.8595	55010.55	3.4910	3.4909	0.2542	25.87	-0.08	0.750			
0.8603	55058.66	3.4880	3.4881	0.2481	25.88	-0.07	0.750			
0.8610	55105.81	3.4850	3.4850	0.2424	25.88	-0.07	0.750			
0.8617	55151.65	3.4820	3.4820	0.2375	25.88	-0.07	0.750			
0.8625	55197.08	3.4790	3.4790	0.2321	25.89	-0.06	0.750			
0.8631	55241.08	3.4760	3.4760	0.2264	25.89	-0.06	0.750			
0.8638	55284.00	3.4730	3.4729	0.2206	25.90	-0.05	0.750			
0.8645	55325.64	3.4700	3.4701	0.2154	25.90	-0.05	0.750			
0.8651	55366.32	3.4670	3.4670	0.2112	25.91	-0.04	0.750			
0.8657	55406.31	3.4640	3.4639	0.2065	25.91	-0.04	0.750			
0.8663	55445.55	3.4610	3.4610	0.2023	25.91	-0.04	0.750			
0.8669	55483.69	3.4580	3.4580	0.1979	25.92	-0.03	0.750			
0.8675	55521.71	3.4550	3.4550	0.1938	25.92	-0.03	0.750			
0.8681	55558.70	3.4520	3.4519	0.1892	25.93	-0.02	0.750			
0.8687	55594.53	3.4490	3.4490	0.1840	25.93	-0.02	0.750			
0.8692	55629.33	3.4460	3.4460	0.1799	25.93	-0.02	0.750			
0.8697	55663.32	3.4430	3.4430	0.1745	25.94	-0.01	0.750			
0.8703	55696.46	3.4400	3.4399	0.1700	25.94	-0.01	0.750			
0.8708	55728.64	3.4370	3.4370	0.1652	25.94	-0.01	0.750			
0.8712	55759.80	3.4340	3.4341	0.1605	25.95	-0.00	0.750			
0.8717	55790.22	3.4310	3.4310	0.1560	25.95	-0.00	0.750			
0.8722	55819.74	3.4280	3.4280	0.1514	25.95	0.00	0.750			
0.8726	55848.38	3.4250	3.4250	0.1464	25.95	0.00	0.750			
0.8731	55875.81	3.4220	3.4220	0.1415	25.96	0.01	0.750			
0.8735	55902.77	3.4190	3.4191	0.1373	25.96	0.01	0.750			
0.8739	55928.67	3.4160	3.4160	0.1323	25.96	0.01	0.750			
0.8743	55953.60	3.4130	3.4129	0.1274	25.96	0.01	0.750			
0.8746	55977.52	3.4100	3.4101	0.1226	25.97	0.02	0.750			
0.8750	56000.58	3.4070	3.4070	0.1178	25.97	0.02	0.750			
0.8754	56022.90	3.4040	3.4039	0.1121	25.97	0.02	0.750			
0.8757	56044.13	3.4010	3.4010	0.1068	25.97	0.02	0.750			
0.8760	56064.18	3.3980	3.3981	0.1009	25.98	0.03	0.750			
0.8763	56082.97	3.3950	3.3951	0.0949	25.98	0.03	0.750			
0.8766	56101.73	3.3920	3.3918	0.0874	25.98	0.03	0.750			
0.8768	56117.71	3.3890	3.3890	0.0790	25.98	0.03	0.750			
0.8771	56132.54	3.3860	3.3862	0.0715	25.98	0.03	0.750			
0.8773	56145.39	3.3830	3.3832	0.0624	25.98	0.03	0.750			
0.8775	56157.54	3.3800	3.3803	0.0536	25.99	0.04	0.750			
0.8776	56166.82	3.3770	3.3775	0.0431	25.99	0.04	0.750			
0.8777	56174.08	3.3740	3.3750	0.0326	25.99	0.04	0.750			
0.8778	56179.32	3.3710	3.3725	0.0220	25.99	0.04	0.750			
