Ah_balance (normalized)	Ah_balance (mAh)	Voltage - fit (V)	Voltage -  interpolate (V)	dQ/dV (1/V)	Temperature (°C)	Temperature - diff (°C)	Current (C)	R_DC 0ms (mOhm)	R_DC 50ms (mOhm)	R_DC 50 ms PEC (mOhm)
0.2399	15354.44	3.9750	3.9750	0.8923	26.17	0.23	0.750			
0.2426	15523.96	3.9720	3.9720	0.8780	26.18	0.24	0.750			
0.2452	15692.35	3.9690	3.9690	0.8770	26.19	0.25	0.750			
0.2478	15860.37	3.9660	3.9660	0.8757	26.19	0.25	0.750			
0.2504	16028.11	3.9630	3.9630	0.8743	26.20	0.26	0.750			
0.2531	16196.02	3.9600	3.9600	0.8757	26.21	0.27	0.750			
0.2557	16363.96	3.9570	3.9568	0.8764	26.22	0.28	0.750			
0.2583	16532.96	3.9540	3.9540	0.8779	26.22	0.28	0.750			
0.2610	16701.10	3.9510	3.9510	0.8793	26.23	0.29	0.750			
0.2636	16869.51	3.9480	3.9480	0.8854	26.23	0.29	0.750			
0.2663	17040.07	3.9450	3.9450	0.8909	26.24	0.30	0.750			
0.2689	17211.75	3.9420	3.9419	0.8921	26.24	0.30	0.750			
0.2716	17384.44	3.9390	3.9390	0.8891	26.25	0.31	0.750			
0.2743	17554.97	3.9360	3.9360	0.8919	26.25	0.31	0.750			
0.2770	17726.00	3.9330	3.9330	0.8922	26.25	0.31	0.750			
0.2796	17896.38	3.9300	3.9300	0.8919	26.26	0.32	0.750			
0.2823	18066.64	3.9270	3.9270	0.8954	26.26	0.32	0.750			
0.2850	18239.31	3.9240	3.9241	0.8970	26.27	0.33	0.750			
0.2877	18412.42	3.9210	3.9210	0.9032	26.27	0.33	0.750			
0.2904	18587.11	3.9180	3.9180	0.9096	26.28	0.34	0.750			
0.2931	18760.98	3.9150	3.9149	0.9088	26.28	0.34	0.750			
0.2959	18937.19	3.9120	3.9120	0.9054	26.28	0.34	0.750			
0.2986	19110.21	3.9090	3.9090	0.9104	26.29	0.35	0.750			
0.3013	19284.44	3.9060	3.9061	0.9150	26.29	0.35	0.750			
0.3041	19461.30	3.9030	3.9030	0.9205	26.30	0.36	0.750			
0.3068	19636.36	3.9000	3.9001	0.9255	26.30	0.36	0.750			
0.3096	19815.41	3.8970	3.8970	0.9293	26.30	0.36	0.750			
0.3124	19996.54	3.8940	3.8941	0.9335	26.30	0.36	0.750			
0.3153	20176.82	3.8910	3.8910	0.9333	26.30	0.36	0.750			
0.3180	20354.00	3.8880	3.8880	0.9319	26.30	0.36	0.750			
0.3208	20533.20	3.8850	3.8850	0.9315	26.30	0.36	0.750			
0.3236	20711.72	3.8820	3.8820	0.9389	26.30	0.36	0.750			
0.3264	20891.84	3.8790	3.8789	0.9417	26.31	0.37	0.750			
0.3293	21074.53	3.8760	3.8761	0.9471	26.31	0.37	0.750			
0.3321	21256.94	3.8730	3.8731	0.9523	26.31	0.37	0.750			
0.3350	21440.60	3.8700	3.8700	0.9581	26.31	0.37	0.750			
0.3379	21624.51	3.8670	3.8670	0.9623	26.32	0.38	0.750			
0.3408	21808.14	3.8640	3.8640	0.9699	26.32	0.38	0.750			
0.3437	21994.86	3.8610	3.8610	0.9751	26.32	0.38	0.750			
0.3466	22183.31	3.8580	3.8580	0.9797	26.31	0.37	0.750			
0.3496	22372.89	3.8550	3.8549	0.9864	26.31	0.37	0.750			
0.3525	22561.34	3.8520	3.8521	0.9937	26.31	0.37	0.750			
0.3555	22752.87	3.8490	3.8489	0.9986	26.30	0.36	0.750			
0.3585	22944.63	3.8460	3.8460	1.0060	26.30	0.36	0.750			
0.3615	23138.64	3.8430	3.8430	1.0133	26.30	0.36	0.750			
0.3646	23334.90	3.8400	3.8400	1.0222	26.29	0.35	0.750			
0.3677	23531.46	3.8370	3.8368	1.0262	26.29	0.35	0.750			
0.3708	23728.78	3.8340	3.8341	1.0337	26.29	0.35	0.750			
0.3739	23926.82	3.8310	3.8311	1.0429	26.29	0.35	0.750			
0.3770	24128.56	3.8280	3.8280	1.0551	26.28	0.34	0.750			
0.3802	24331.99	3.8250	3.8249	1.0620	26.28	0.34	0.750			
0.3834	24536.38	3.8220	3.8220	1.0710	26.28	0.34	0.750			
0.3866	24742.59	3.8190	3.8190	1.0825	26.27	0.33	0.750			
0.3899	24951.96	3.8160	3.8160	1.0943	26.27	0.33	0.750			
0.3932	25163.44	3.8130	3.8129	1.1036	26.26	0.32	0.750			
0.3965	25375.19	3.8100	3.8101	1.1146	26.25	0.31	0.750			
0.3998	25589.38	3.8070	3.8070	1.1341	26.24	0.30	0.750			
0.4033	25808.84	3.8040	3.8041	1.1519	26.24	0.30	0.750			
0.4067	26031.44	3.8010	3.8010	1.1583	26.23	0.29	0.750			
0.4102	26255.03	3.7980	3.7980	1.1763	26.22	0.28	0.750			
0.4138	26483.14	3.7950	3.7951	1.1919	26.21	0.27	0.750			
0.4174	26714.22	3.7920	3.7918	1.2042	26.20	0.26	0.750			
0.4210	26945.61	3.7890	3.7890	1.2183	26.20	0.26	0.750			
0.4247	27180.25	3.7860	3.7861	1.2322	26.19	0.25	0.750			
0.4285	27421.05	3.7830	3.7830	1.2499	26.18	0.24	0.750			
0.4322	27661.30	3.7800	3.7800	1.2722	26.17	0.23	0.750			
0.4360	27903.52	3.7770	3.7771	1.2863	26.15	0.21	0.750			
0.4399	28154.87	3.7740	3.7740	1.3094	26.14	0.20	0.750			
0.4439	28408.26	3.7710	3.7709	1.3346	26.12	0.18	0.750			
0.4479	28665.57	3.7680	3.7681	1.3574	26.11	0.17	0.750			
0.4520	28930.97	3.7650	3.7651	1.3820	26.11	0.17	0.750			
0.4562	29197.38	3.7620	3.7619	1.4116	26.10	0.16	0.750			
0.4605	29469.98	3.7590	3.7590	1.4358	26.08	0.14	0.750			
0.4648	29749.31	3.7560	3.7560	1.4590	26.07	0.13	0.750			
0.4692	30031.61	3.7530	3.7531	1.4891	26.06	0.12	0.750			
0.4737	30318.73	3.7500	3.7501	1.5234	26.04	0.10	0.750			
0.4783	30614.34	3.7470	3.7470	1.5582	26.03	0.09	0.750			
0.4831	30919.41	3.7440	3.7440	1.5921	26.01	0.07	0.750			
0.4879	31227.27	3.7410	3.7409	1.6242	26.00	0.06	0.750			
0.4928	31542.03	3.7380	3.7380	1.6651	25.98	0.04	0.750			
0.4979	31863.77	3.7350	3.7351	1.7092	25.97	0.03	0.750			
0.5030	32194.79	3.7320	3.7318	1.7458	25.95	0.01	0.750			
0.5084	32534.44	3.7290	3.7289	1.7844	25.93	-0.01	0.750			
0.5138	32882.39	3.7260	3.7261	1.8449	25.91	-0.03	0.750			
0.5194	33242.18	3.7230	3.7230	1.8885	25.90	-0.04	0.750			
0.5251	33608.28	3.7200	3.7199	1.9505	25.88	-0.06	0.750			
0.5310	33986.61	3.7170	3.7171	1.9920	25.86	-0.08	0.750			
0.5372	34378.35	3.7140	3.7138	2.0666	25.84	-0.10	0.750	0.346	0.486	
0.5435	34781.38	3.7110	3.7111	2.1011	25.82	-0.12	0.750			
0.5498	35186.62	3.7080	3.7079	2.1407	25.80	-0.14	0.750			
0.5562	35599.35	3.7050	3.7051	2.1884	25.78	-0.16	0.750			
0.5628	36019.89	3.7020	3.7019	2.2636	25.76	-0.18	0.750			
0.5697	36462.99	3.6990	3.6990	2.3325	25.75	-0.19	0.750			
0.5769	36918.84	3.6960	3.6960	2.4105	25.73	-0.21	0.750			
0.5843	37392.23	3.6930	3.6930	2.4604	25.71	-0.23	0.750			
0.5917	37868.24	3.6900	3.6900	2.4826	25.70	-0.24	0.750			
0.5992	38346.50	3.6870	3.6869	2.5163	25.68	-0.26	0.750			
0.6068	38835.93	3.6840	3.6840	2.5807	25.66	-0.28	0.750			
0.6146	39336.04	3.6810	3.6810	2.6137	25.65	-0.29	0.750			
0.6226	39844.58	3.6780	3.6781	2.6465	25.64	-0.30	0.750			
0.6307	40362.02	3.6750	3.6749	2.6440	25.62	-0.32	0.750			
0.6386	40868.94	3.6720	3.6720	2.5730	25.62	-0.32	0.750			
0.6463	41363.14	3.6690	3.6690	2.4808	25.62	-0.32	0.750			
0.6536	41831.36	3.6660	3.6660	2.3135	25.62	-0.32	0.750			
0.6603	42260.70	3.6630	3.6630	2.1326	25.62	-0.32	0.750			
0.6664	42651.55	3.6600	3.6600	1.9381	25.62	-0.32	0.750			
0.6717	42988.45	3.6570	3.6571	1.7566	25.62	-0.32	0.750			
0.6766	43302.97	3.6540	3.6541	1.6122	25.63	-0.31	0.750			
0.6813	43603.66	3.6510	3.6509	1.5199	25.63	-0.31	0.750			
0.6856	43879.17	3.6480	3.6480	1.4389	25.64	-0.30	0.750			
0.6897	44143.73	3.6450	3.6450	1.3694	25.64	-0.30	0.750			
0.6938	44402.98	3.6420	3.6420	1.3195	25.65	-0.29	0.750			
0.6976	44648.53	3.6390	3.6390	1.2767	25.65	-0.29	0.750			
0.7014	44886.93	3.6360	3.6361	1.2428	25.66	-0.28	0.750			
0.7050	45121.04	3.6330	3.6329	1.2118	25.66	-0.28	0.750			
0.7086	45349.12	3.6300	3.6300	1.1939	25.66	-0.28	0.750			
0.7121	45575.30	3.6270	3.6271	1.1834	25.67	-0.27	0.750			
0.7157	45801.71	3.6240	3.6240	1.1793	25.68	-0.26	0.750			
0.7192	46026.67	3.6210	3.6211	1.1720	25.68	-0.26	0.750			
0.7227	46251.18	3.6180	3.6180	1.1699	25.68	-0.26	0.750			
0.7262	46475.23	3.6150	3.6151	1.1685	25.68	-0.26	0.750			
0.7297	46700.48	3.6120	3.6119	1.1728	25.68	-0.26	0.750			
0.7332	46925.72	3.6090	3.6091	1.1733	25.68	-0.26	0.750			
0.7367	47150.47	3.6060	3.6059	1.1755	25.68	-0.26	0.750			
0.7402	47374.34	3.6030	3.6031	1.1814	25.69	-0.25	0.750			
0.7437	47599.99	3.6000	3.6000	1.1884	25.69	-0.25	0.750			
0.7473	47828.96	3.5970	3.5970	1.2073	25.69	-0.25	0.750			
0.7509	48059.96	3.5940	3.5940	1.2317	25.70	-0.24	0.750			
0.7547	48298.69	3.5910	3.5910	1.2559	25.70	-0.24	0.750			
0.7584	48540.60	3.5880	3.5881	1.2995	25.70	-0.24	0.750			
0.7624	48793.44	3.5850	3.5850	1.3436	25.70	-0.24	0.750			
0.7665	49055.18	3.5820	3.5820	1.3836	25.70	-0.24	0.750			
0.7708	49328.34	3.5790	3.5790	1.4223	25.70	-0.24	0.750			
0.7751	49604.91	3.5760	3.5760	1.4640	25.71	-0.23	0.750			
0.7796	49891.52	3.5730	3.5730	1.4943	25.71	-0.23	0.750			
0.7841	50182.02	3.5700	3.5700	1.5254	25.71	-0.23	0.750			
0.7887	50477.76	3.5670	3.5670	1.5535	25.72	-0.22	0.750			
0.7935	50782.17	3.5640	3.5640	1.5784	25.72	-0.22	0.750			
0.7983	51088.22	3.5610	3.5610	1.5985	25.72	-0.22	0.750			
0.8031	51399.59	3.5580	3.5580	1.6043	25.72	-0.22	0.750			
0.8080	51709.46	3.5550	3.5550	1.6056	25.72	-0.22	0.750			
0.8129	52023.08	3.5520	3.5519	1.6076	25.73	-0.21	0.750			
0.8176	52328.92	3.5490	3.5489	1.5966	25.73	-0.21	0.750			
0.8225	52637.69	3.5460	3.5461	1.5824	25.73	-0.21	0.750			
0.8273	52948.88	3.5430	3.5430	1.5209	25.73	-0.21	0.750			
0.8320	53249.66	3.5400	3.5400	1.4389	25.74	-0.20	0.750			
0.8364	53529.40	3.5370	3.5370	1.2890	25.75	-0.19	0.750			
0.8402	53775.58	3.5340	3.5341	1.1285	25.77	-0.17	0.750			
0.8433	53969.77	3.5310	3.5311	0.9373	25.78	-0.16	0.750			
0.8457	54123.61	3.5280	3.5279	0.7482	25.79	-0.15	0.750			
0.8474	54234.68	3.5250	3.5251	0.5983	25.80	-0.14	0.750			
0.8489	54330.73	3.5220	3.5219	0.4922	25.81	-0.13	0.750			
0.8501	54406.45	3.5190	3.5189	0.4165	25.81	-0.13	0.750			
0.8512	54477.80	3.5160	3.5159	0.3704	25.82	-0.12	0.750			
0.8522	54540.59	3.5130	3.5130	0.3370	25.82	-0.12	0.750			
0.8532	54601.62	3.5100	3.5100	0.3162	25.83	-0.11	0.750			
0.8541	54659.59	3.5070	3.5070	0.2996	25.83	-0.11	0.750			
0.8549	54715.04	3.5040	3.5040	0.2871	25.84	-0.10	0.750			
0.8558	54768.46	3.5010	3.5009	0.2783	25.84	-0.10	0.750			
0.8566	54821.02	3.4980	3.4980	0.2705	25.85	-0.09	0.750			
0.8574	54871.79	3.4950	3.4950	0.2627	25.85	-0.09	0.750			
0.8582	54922.00	3.4920	3.4921	0.2571	25.86	-0.08	0.750			
0.8589	54970.68	3.4890	3.4890	0.2502	25.86	-0.08	0.750			
0.8597	55017.77	3.4860	3.4860	0.2456	25.87	-0.07	0.750			
0.8604	55064.28	3.4830	3.4830	0.2397	25.88	-0.06	0.750			
0.8611	55109.68	3.4800	3.4800	0.2340	25.88	-0.06	0.750			
0.8618	55154.25	3.4770	3.4770	0.2288	25.89	-0.05	0.750			
0.8625	55197.91	3.4740	3.4740	0.2240	25.89	-0.05	0.750			
0.8631	55240.43	3.4710	3.4710	0.2185	25.90	-0.04	0.750			
0.8638	55281.89	3.4680	3.4680	0.2134	25.90	-0.04	0.750			
0.8644	55321.81	3.4650	3.4650	0.2076	25.91	-0.03	0.750			
0.8650	55361.22	3.4620	3.4621	0.2042	25.91	-0.03	0.750			
0.8656	55400.06	3.4590	3.4589	0.2003	25.92	-0.02	0.750			
0.8662	55437.98	3.4560	3.4560	0.1960	25.92	-0.02	0.750			
0.8668	55475.32	3.4530	3.4529	0.1918	25.93	-0.01	0.750			
0.8674	55511.93	3.4500	3.4501	0.1875	25.93	-0.01	0.750			
0.8679	55547.50	3.4470	3.4470	0.1830	25.94	-0.00	0.750			
0.8685	55582.46	3.4440	3.4440	0.1780	25.94	0.00	0.750			
0.8690	55616.16	3.4410	3.4410	0.1731	25.95	0.01	0.750			
0.8695	55648.74	3.4380	3.4381	0.1676	25.95	0.01	0.750			
0.8700	55680.52	3.4350	3.4350	0.1628	25.96	0.02	0.750			
0.8705	55711.16	3.4320	3.4320	0.1586	25.96	0.02	0.750			
0.8710	55740.99	3.4290	3.4290	0.1541	25.96	0.02	0.750			
0.8714	55770.08	3.4260	3.4260	0.1500	25.97	0.03	0.750			
0.8719	55798.51	3.4230	3.4230	0.1461	25.97	0.03	0.750			
0.8723	55826.43	3.4200	3.4200	0.1410	25.97	0.03	0.750			
0.8727	55853.11	3.4170	3.4170	0.1365	25.98	0.04	0.750			
0.8731	55879.04	3.4140	3.4141	0.1320	25.98	0.04	0.750			
0.8735	55903.83	3.4110	3.4110	0.1269	25.98	0.04	0.750			
0.8739	55927.57	3.4080	3.4079	0.1216	25.99	0.05	0.750			
0.8742	55950.64	3.4050	3.4049	0.1163	25.99	0.05	0.750			
0.8746	55972.40	3.4020	3.4021	0.1108	25.99	0.05	0.750			
0.8749	55993.41	3.3990	3.3990	0.1049	25.99	0.05	0.750			
0.8752	56013.40	3.3960	3.3960	0.0998	26.00	0.06	0.750			
0.8755	56031.94	3.3930	3.3931	0.0934	26.00	0.06	0.750			
0.8758	56050.03	3.3900	3.3899	0.0850	26.00	0.06	0.750			
0.8760	56065.56	3.3870	3.3870	0.0767	26.00	0.06	0.750			
0.8763	56080.06	3.3840	3.3841	0.0692	26.01	0.07	0.750			
0.8764	56092.48	3.3810	3.3813	0.0602	26.01	0.07	0.750			
0.8766	56104.03	3.3780	3.3784	0.0512	26.01	0.07	0.750			
0.8768	56112.89	3.3750	3.3758	0.0411	26.01	0.07	0.750			
0.8769	56119.80	3.3720	3.3732	0.0309	26.01	0.07	0.750			
0.8769	56124.76	3.3690	3.3707	0.0207	26.01	0.07	0.750			
