Ah_balance (normalized)	Ah_balance (mAh)	Voltage - fit (V)	Voltage -  interpolate (V)	dQ/dV (1/V)	Temperature (°C)	Temperature - diff (°C)	Current (C)	R_DC 0ms (mOhm)	R_DC 50ms (mOhm)	R_DC 50 ms PEC (mOhm)
0.1978	12661.77	3.9360	3.9357	-0.1257	25.32	0.00	-0.750			
0.1983	12690.88	3.9330	3.9328	-0.1753	25.32	0.00	-0.750			
0.1989	12729.26	3.9300	3.9300	-0.2231	25.32	0.00	-0.750			
0.1996	12777.24	3.9270	3.9271	-0.2687	25.32	0.00	-0.750			
0.2005	12833.42	3.9240	3.9240	-0.3111	25.32	0.00	-0.750			
0.2015	12898.18	3.9210	3.9210	-0.3555	25.32	-0.00	-0.750			
0.2027	12970.24	3.9180	3.9181	-0.3969	25.32	-0.00	-0.750			
0.2039	13050.61	3.9150	3.9149	-0.4362	25.32	-0.00	-0.750			
0.2053	13139.79	3.9120	3.9120	-0.4698	25.32	-0.00	-0.750			
0.2068	13233.79	3.9090	3.9090	-0.5020	25.32	-0.00	-0.750			
0.2084	13335.19	3.9060	3.9061	-0.5312	25.31	-0.01	-0.750			
0.2100	13440.21	3.9030	3.9030	-0.5528	25.31	-0.01	-0.750			
0.2117	13548.53	3.9000	3.9000	-0.5730	25.31	-0.01	-0.750			
0.2134	13660.73	3.8970	3.8970	-0.5906	25.31	-0.01	-0.750			
0.2153	13776.40	3.8940	3.8939	-0.6075	25.31	-0.01	-0.750			
0.2171	13894.94	3.8910	3.8911	-0.6231	25.31	-0.01	-0.750			
0.2190	14016.47	3.8880	3.8880	-0.6332	25.31	-0.01	-0.750			
0.2209	14139.79	3.8850	3.8850	-0.6459	25.30	-0.02	-0.750			
0.2229	14265.27	3.8820	3.8820	-0.6552	25.30	-0.02	-0.750			
0.2249	14391.36	3.8790	3.8790	-0.6602	25.30	-0.02	-0.750			
0.2269	14518.77	3.8760	3.8760	-0.6674	25.30	-0.02	-0.750			
0.2289	14647.88	3.8730	3.8731	-0.6737	25.30	-0.02	-0.750			
0.2309	14777.97	3.8700	3.8699	-0.6792	25.30	-0.02	-0.750			
0.2330	14909.64	3.8670	3.8670	-0.6827	25.31	-0.01	-0.750			
0.2350	15040.90	3.8640	3.8641	-0.6849	25.31	-0.01	-0.750			
0.2371	15173.85	3.8610	3.8609	-0.6866	25.31	-0.01	-0.750			
0.2392	15306.09	3.8580	3.8580	-0.6861	25.31	-0.01	-0.750			
0.2412	15435.86	3.8550	3.8550	-0.6858	25.31	-0.01	-0.750			
0.2432	15567.13	3.8520	3.8520	-0.6902	25.31	-0.01	-0.750			
0.2453	15700.66	3.8490	3.8489	-0.6920	25.31	-0.01	-0.750			
0.2474	15834.47	3.8460	3.8460	-0.6940	25.31	-0.01	-0.750			
0.2495	15968.75	3.8430	3.8431	-0.6954	25.31	-0.01	-0.750			
0.2516	16102.70	3.8400	3.8400	-0.6960	25.31	-0.01	-0.750			
0.2537	16235.78	3.8370	3.8370	-0.6941	25.32	-0.00	-0.750			
0.2558	16368.18	3.8340	3.8340	-0.6911	25.32	0.00	-0.750			
0.2578	16500.46	3.8310	3.8309	-0.6931	25.33	0.01	-0.750			
0.2599	16634.90	3.8280	3.8280	-0.6909	25.33	0.01	-0.750			
0.2620	16767.22	3.8250	3.8250	-0.6907	25.34	0.02	-0.750			
0.2640	16898.81	3.8220	3.8221	-0.6918	25.34	0.02	-0.750			
0.2661	17031.68	3.8190	3.8191	-0.6925	25.34	0.02	-0.750			
0.2682	17164.25	3.8160	3.8159	-0.6974	25.34	0.02	-0.750			
0.2703	17299.15	3.8130	3.8130	-0.6967	25.34	0.02	-0.750			
0.2724	17433.51	3.8100	3.8100	-0.6965	25.34	0.02	-0.750			
0.2745	17568.24	3.8070	3.8070	-0.6971	25.34	0.02	-0.750			
0.2766	17702.24	3.8040	3.8040	-0.6944	25.34	0.02	-0.750			
0.2787	17834.84	3.8010	3.8010	-0.6941	25.34	0.02	-0.750			
0.2807	17966.83	3.7980	3.7980	-0.6950	25.35	0.03	-0.750			
0.2828	18100.82	3.7950	3.7950	-0.6914	25.35	0.03	-0.750			
0.2849	18234.96	3.7920	3.7920	-0.6929	25.35	0.03	-0.750			
0.2870	18367.83	3.7890	3.7890	-0.6924	25.36	0.04	-0.750			
0.2891	18499.44	3.7860	3.7861	-0.6948	25.36	0.04	-0.750			
0.2911	18632.33	3.7830	3.7829	-0.6967	25.36	0.04	-0.750			
0.2932	18765.94	3.7800	3.7800	-0.6997	25.36	0.04	-0.750			
0.2953	18900.55	3.7770	3.7770	-0.7020	25.36	0.04	-0.750			
0.2975	19037.05	3.7740	3.7740	-0.7091	25.36	0.04	-0.750			
0.2996	19174.17	3.7710	3.7710	-0.7123	25.36	0.04	-0.750			
0.3017	19310.74	3.7680	3.7679	-0.7133	25.36	0.04	-0.750			
0.3039	19447.22	3.7650	3.7650	-0.7176	25.36	0.04	-0.750			
0.3060	19584.81	3.7620	3.7621	-0.7240	25.36	0.04	-0.750			
0.3082	19724.89	3.7590	3.7589	-0.7292	25.37	0.05	-0.750			
0.3104	19866.30	3.7560	3.7559	-0.7317	25.37	0.05	-0.750			
0.3126	20006.75	3.7530	3.7530	-0.7356	25.37	0.05	-0.750			
0.3148	20148.08	3.7500	3.7501	-0.7408	25.37	0.05	-0.750			
0.3171	20291.31	3.7470	3.7469	-0.7449	25.37	0.05	-0.750			
0.3193	20433.44	3.7440	3.7440	-0.7529	25.37	0.05	-0.750			
0.3215	20578.99	3.7410	3.7410	-0.7556	25.37	0.05	-0.750			
0.3238	20725.30	3.7380	3.7380	-0.7624	25.37	0.05	-0.750			
0.3261	20872.84	3.7350	3.7351	-0.7701	25.37	0.05	-0.750			
0.3284	21020.30	3.7320	3.7320	-0.7748	25.37	0.05	-0.750			
0.3308	21169.57	3.7290	3.7290	-0.7799	25.37	0.05	-0.750			
0.3331	21319.80	3.7260	3.7260	-0.7878	25.38	0.06	-0.750			
0.3355	21470.87	3.7230	3.7231	-0.7980	25.38	0.06	-0.750			
0.3379	21626.21	3.7200	3.7200	-0.8089	25.38	0.06	-0.750			
0.3403	21781.50	3.7170	3.7169	-0.8182	25.38	0.06	-0.750			
0.3428	21939.55	3.7140	3.7141	-0.8320	25.38	0.06	-0.750			
0.3453	22100.60	3.7110	3.7110	-0.8433	25.39	0.07	-0.750			
0.3479	22263.93	3.7080	3.7079	-0.8559	25.39	0.07	-0.750			
0.3505	22429.09	3.7050	3.7051	-0.8686	25.39	0.07	-0.750			
0.3531	22596.51	3.7020	3.7019	-0.8821	25.39	0.07	-0.750			
0.3558	22768.02	3.6990	3.6990	-0.8959	25.39	0.07	-0.750			
0.3584	22940.46	3.6960	3.6960	-0.9074	25.39	0.07	-0.750			
0.3612	23114.63	3.6930	3.6930	-0.9215	25.39	0.07	-0.750			
0.3640	23294.21	3.6900	3.6902	-0.9437	25.39	0.07	-0.750			
0.3668	23476.22	3.6870	3.6869	-0.9648	25.39	0.07	-0.750			
0.3697	23662.98	3.6840	3.6840	-0.9833	25.39	0.07	-0.750			
0.3727	23854.24	3.6810	3.6811	-1.0065	25.39	0.07	-0.750			
0.3758	24050.40	3.6780	3.6781	-1.0298	25.39	0.07	-0.750			
0.3789	24250.47	3.6750	3.6750	-1.0551	25.39	0.07	-0.750			
0.3821	24455.06	3.6720	3.6720	-1.0732	25.39	0.07	-0.750			
0.3854	24662.77	3.6690	3.6690	-1.0931	25.38	0.06	-0.750			
0.3886	24873.38	3.6660	3.6662	-1.1231	25.38	0.06	-0.750			
0.3921	25092.63	3.6630	3.6630	-1.1480	25.38	0.06	-0.750			
0.3955	25315.01	3.6600	3.6599	-1.1695	25.37	0.05	-0.750			
0.3991	25540.86	3.6570	3.6569	-1.1949	25.37	0.05	-0.750			
0.4027	25773.59	3.6540	3.6540	-1.2249	25.37	0.05	-0.750			
0.4064	26011.77	3.6510	3.6510	-1.2490	25.37	0.05	-0.750			
0.4102	26252.77	3.6480	3.6479	-1.2736	25.36	0.04	-0.750			
0.4140	26497.22	3.6450	3.6451	-1.3009	25.36	0.04	-0.750			
0.4180	26754.23	3.6420	3.6420	-1.3358	25.36	0.04	-0.750			
0.4221	27013.91	3.6390	3.6389	-1.3653	25.36	0.04	-0.750			
0.4262	27278.58	3.6360	3.6361	-1.3966	25.36	0.04	-0.750			
0.4305	27550.24	3.6330	3.6330	-1.4242	25.36	0.04	-0.750			
0.4348	27827.59	3.6300	3.6299	-1.4473	25.35	0.03	-0.750			
0.4391	28104.94	3.6270	3.6271	-1.4806	25.35	0.03	-0.750			
0.4436	28393.44	3.6240	3.6240	-1.5130	25.35	0.03	-0.750			
0.4482	28686.93	3.6210	3.6209	-1.5427	25.34	0.02	-0.750			
0.4529	28985.46	3.6180	3.6180	-1.5766	25.34	0.02	-0.750			
0.4577	29292.92	3.6150	3.6151	-1.6151	25.34	0.02	-0.750			
0.4626	29607.19	3.6120	3.6120	-1.6395	25.34	0.02	-0.750			
0.4676	29926.26	3.6090	3.6090	-1.6588	25.34	0.02	-0.750			
0.4726	30246.17	3.6060	3.6060	-1.6952	25.35	0.03	-0.750			
0.4777	30573.80	3.6030	3.6029	-1.7258	25.35	0.03	-0.750			
0.4829	30905.58	3.6000	3.6000	-1.7597	25.34	0.02	-0.750			
0.4882	31245.47	3.5970	3.5972	-1.7930	25.34	0.02	-0.750			
0.4937	31595.90	3.5940	3.5940	-1.8379	25.34	0.02	-0.750			
0.4993	31954.89	3.5910	3.5910	-1.8771	25.35	0.03	-0.750			
0.5050	32317.74	3.5880	3.5880	-1.9067	25.35	0.03	-0.750			
0.5108	32688.63	3.5850	3.5850	-1.9308	25.35	0.03	-0.750			
0.5166	33062.17	3.5820	3.5820	-1.9540	25.35	0.03	-0.750			
0.5225	33438.75	3.5790	3.5791	-1.9784	25.36	0.04	-0.750			
0.5284	33820.25	3.5760	3.5759	-1.9983	25.36	0.04	-0.750			
0.5345	34207.77	3.5730	3.5730	-2.0218	25.36	0.04	-0.750	0.390	0.554	
0.5406	34597.66	3.5700	3.5700	-2.0384	25.36	0.04	-0.750			
0.5468	34994.33	3.5670	3.5670	-2.0661	25.36	0.04	-0.750			
0.5530	35390.08	3.5640	3.5640	-2.0771	25.36	0.04	-0.750			
0.5592	35791.06	3.5610	3.5610	-2.0897	25.36	0.04	-0.750			
0.5656	36196.96	3.5580	3.5580	-2.0939	25.36	0.04	-0.750			
0.5718	36596.62	3.5550	3.5550	-2.0954	25.36	0.04	-0.750			
0.5781	37000.18	3.5520	3.5520	-2.0964	25.36	0.04	-0.750			
0.5844	37401.24	3.5490	3.5489	-2.0874	25.36	0.04	-0.750			
0.5907	37803.41	3.5460	3.5461	-2.0784	25.36	0.04	-0.750			
0.5969	38199.26	3.5430	3.5430	-2.0716	25.36	0.04	-0.750			
0.6032	38602.64	3.5400	3.5400	-2.0584	25.36	0.04	-0.750			
0.6093	38994.77	3.5370	3.5369	-2.0236	25.37	0.05	-0.750			
0.6153	39380.25	3.5340	3.5341	-2.0054	25.38	0.06	-0.750			
0.6213	39763.90	3.5310	3.5310	-1.9802	25.38	0.06	-0.750			
0.6272	40141.24	3.5280	3.5280	-1.9455	25.38	0.06	-0.750			
0.6330	40510.71	3.5250	3.5250	-1.9056	25.40	0.08	-0.750			
0.6387	40876.45	3.5220	3.5220	-1.8741	25.41	0.09	-0.750			
0.6442	41231.95	3.5190	3.5190	-1.8343	25.42	0.10	-0.750			
0.6497	41581.86	3.5160	3.5160	-1.7805	25.44	0.12	-0.750			
0.6550	41918.95	3.5130	3.5131	-1.7245	25.45	0.13	-0.750			
0.6601	42246.94	3.5100	3.5100	-1.6800	25.46	0.14	-0.750			
0.6650	42562.71	3.5070	3.5070	-1.6297	25.47	0.15	-0.750			
0.6698	42868.46	3.5040	3.5040	-1.5853	25.49	0.17	-0.750			
0.6745	43169.07	3.5010	3.5009	-1.5474	25.50	0.18	-0.750			
0.6791	43460.79	3.4980	3.4980	-1.4964	25.51	0.19	-0.750			
0.6836	43747.41	3.4950	3.4950	-1.4647	25.52	0.20	-0.750			
0.6879	44025.43	3.4920	3.4921	-1.4249	25.54	0.22	-0.750			
0.6921	44292.94	3.4890	3.4889	-1.3777	25.55	0.23	-0.750			
0.6961	44552.71	3.4860	3.4860	-1.3379	25.56	0.24	-0.750			
0.7001	44805.95	3.4830	3.4831	-1.3003	25.58	0.26	-0.750			
0.7039	45051.41	3.4800	3.4800	-1.2627	25.59	0.27	-0.750			
0.7077	45292.63	3.4770	3.4770	-1.2320	25.60	0.28	-0.750			
0.7113	45522.57	3.4740	3.4740	-1.1950	25.61	0.29	-0.750			
0.7148	45746.75	3.4710	3.4710	-1.1688	25.62	0.30	-0.750			
0.7183	45968.02	3.4680	3.4680	-1.1442	25.64	0.32	-0.750			
0.7216	46184.66	3.4650	3.4650	-1.1264	25.65	0.33	-0.750			
0.7250	46398.75	3.4620	3.4620	-1.1140	25.66	0.34	-0.750			
0.7283	46610.63	3.4590	3.4590	-1.1068	25.67	0.35	-0.750			
0.7316	46820.94	3.4560	3.4560	-1.0990	25.68	0.36	-0.750			
0.7349	47032.97	3.4530	3.4529	-1.0895	25.69	0.37	-0.750			
0.7381	47240.76	3.4500	3.4500	-1.0782	25.70	0.38	-0.750			
0.7414	47448.41	3.4470	3.4471	-1.0782	25.71	0.39	-0.750			
0.7446	47654.24	3.4440	3.4440	-1.0705	25.71	0.39	-0.750			
0.7478	47858.15	3.4410	3.4409	-1.0628	25.72	0.40	-0.750			
0.7510	48061.64	3.4380	3.4381	-1.0582	25.73	0.41	-0.750			
0.7541	48265.24	3.4350	3.4350	-1.0531	25.74	0.42	-0.750			
0.7573	48468.39	3.4320	3.4320	-1.0470	25.75	0.43	-0.750			
0.7604	48668.75	3.4290	3.4290	-1.0368	25.76	0.44	-0.750			
0.7636	48868.48	3.4260	3.4260	-1.0239	25.77	0.45	-0.750			
0.7666	49063.34	3.4230	3.4230	-1.0130	25.78	0.46	-0.750			
0.7696	49257.56	3.4200	3.4199	-0.9959	25.79	0.47	-0.750			
0.7726	49447.31	3.4170	3.4170	-0.9776	25.79	0.47	-0.750			
0.7755	49634.07	3.4140	3.4140	-0.9577	25.80	0.48	-0.750			
0.7784	49814.51	3.4110	3.4110	-0.9404	25.80	0.48	-0.750			
0.7812	49993.86	3.4080	3.4080	-0.9193	25.81	0.49	-0.750			
0.7839	50168.46	3.4050	3.4050	-0.9003	25.81	0.49	-0.750			
0.7866	50339.28	3.4020	3.4020	-0.8742	25.82	0.50	-0.750			
0.7892	50508.24	3.3990	3.3990	-0.8562	25.82	0.50	-0.750			
0.7917	50669.86	3.3960	3.3960	-0.8311	25.83	0.51	-0.750			
0.7942	50827.64	3.3930	3.3930	-0.8056	25.84	0.52	-0.750			
0.7966	50979.25	3.3900	3.3899	-0.7738	25.85	0.53	-0.750			
0.7989	51126.59	3.3870	3.3870	-0.7475	25.85	0.53	-0.750			
0.8011	51267.46	3.3840	3.3840	-0.7142	25.86	0.54	-0.750			
0.8031	51401.46	3.3810	3.3810	-0.6845	25.87	0.55	-0.750			
0.8051	51529.05	3.3780	3.3780	-0.6525	25.87	0.55	-0.750			
0.8070	51650.19	3.3750	3.3750	-0.6242	25.88	0.56	-0.750			
0.8089	51767.14	3.3720	3.3720	-0.5948	25.89	0.57	-0.750			
0.8106	51878.58	3.3690	3.3690	-0.5697	25.89	0.57	-0.750			
0.8123	51985.81	3.3660	3.3660	-0.5449	25.90	0.58	-0.750			
0.8139	52088.65	3.3630	3.3630	-0.5192	25.90	0.58	-0.750			
0.8154	52184.97	3.3600	3.3600	-0.4920	25.91	0.59	-0.750			
0.8168	52277.35	3.3570	3.3570	-0.4684	25.91	0.59	-0.750			
0.8182	52363.23	3.3540	3.3541	-0.4448	25.92	0.60	-0.750			
0.8195	52446.86	3.3510	3.3510	-0.4266	25.92	0.60	-0.750			
0.8207	52524.84	3.3480	3.3480	-0.4060	25.92	0.60	-0.750			
0.8219	52601.08	3.3450	3.3449	-0.3915	25.93	0.61	-0.750			
0.8230	52675.16	3.3420	3.3421	-0.3773	25.93	0.61	-0.750			
0.8242	52745.94	3.3390	3.3390	-0.3636	25.93	0.61	-0.750			
0.8252	52814.61	3.3360	3.3361	-0.3499	25.94	0.62	-0.750			
0.8263	52880.14	3.3330	3.3330	-0.3373	25.94	0.62	-0.750			
0.8272	52943.04	3.3300	3.3300	-0.3245	25.95	0.63	-0.750			
0.8282	53004.30	3.3270	3.3269	-0.3131	25.95	0.63	-0.750			
0.8291	53062.79	3.3240	3.3240	-0.3031	25.96	0.64	-0.750			
0.8300	53120.20	3.3210	3.3210	-0.2939	25.96	0.64	-0.750			
0.8309	53175.21	3.3180	3.3180	-0.2847	25.96	0.64	-0.750			
0.8317	53229.30	3.3150	3.3150	-0.2771	25.97	0.65	-0.750			
0.8325	53281.11	3.3120	3.3120	-0.2683	25.97	0.65	-0.750			
0.8333	53332.13	3.3090	3.3090	-0.2619	25.98	0.66	-0.750			
0.8341	53381.30	3.3060	3.3061	-0.2553	25.98	0.66	-0.750			
0.8348	53429.46	3.3030	3.3030	-0.2485	25.98	0.66	-0.750			
0.8356	53476.71	3.3000	3.3000	-0.2431	25.99	0.67	-0.750			
0.8363	53522.75	3.2970	3.2970	-0.2372	25.99	0.67	-0.750			
0.8370	53567.73	3.2940	3.2942	-0.2325	25.99	0.67	-0.750			
0.8377	53611.75	3.2910	3.2910	-0.2280	26.00	0.68	-0.750			
0.8384	53654.88	3.2880	3.2881	-0.2231	26.00	0.68	-0.750			
0.8390	53697.14	3.2850	3.2850	-0.2191	26.00	0.68	-0.750			
0.8397	53738.70	3.2820	3.2820	-0.2145	26.01	0.69	-0.750			
0.8403	53779.51	3.2790	3.2791	-0.2112	26.01	0.69	-0.750			
0.8409	53819.95	3.2760	3.2760	-0.2080	26.02	0.70	-0.750			
0.8416	53859.65	3.2730	3.2730	-0.2040	26.02	0.70	-0.750			
0.8422	53898.26	3.2700	3.2700	-0.2001	26.02	0.70	-0.750			
0.8428	53936.10	3.2670	3.2670	-0.1966	26.03	0.71	-0.750			
0.8433	53973.56	3.2640	3.2641	-0.1936	26.03	0.71	-0.750			
0.8439	54010.23	3.2610	3.2610	-0.1910	26.04	0.72	-0.750			
0.8445	54046.70	3.2580	3.2580	-0.1884	26.04	0.72	-0.750			
0.8450	54082.42	3.2550	3.2550	-0.1856	26.04	0.72	-0.750			
0.8456	54117.90	3.2520	3.2520	-0.1834	26.05	0.73	-0.750			
0.8461	54153.14	3.2490	3.2490	-0.1813	26.05	0.73	-0.750			
0.8467	54187.61	3.2460	3.2461	-0.1789	26.05	0.73	-0.750			
0.8472	54221.64	3.2430	3.2429	-0.1764	26.06	0.74	-0.750			
0.8477	54255.38	3.2400	3.2400	-0.1738	26.06	0.74	-0.750			
0.8483	54288.45	3.2370	3.2370	-0.1714	26.06	0.74	-0.750			
0.8488	54320.95	3.2340	3.2340	-0.1700	26.07	0.75	-0.750			
0.8493	54353.53	3.2310	3.2311	-0.1680	26.07	0.75	-0.750			
0.8498	54385.51	3.2280	3.2279	-0.1660	26.07	0.75	-0.750			
0.8503	54417.24	3.2250	3.2249	-0.1639	26.08	0.76	-0.750			
0.8508	54448.47	3.2220	3.2221	-0.1621	26.08	0.76	-0.750			
0.8512	54479.43	3.2190	3.2190	-0.1604	26.08	0.76	-0.750			
0.8517	54510.27	3.2160	3.2160	-0.1584	26.09	0.77	-0.750			
0.8522	54540.19	3.2130	3.2130	-0.1571	26.09	0.77	-0.750			
0.8527	54569.92	3.2100	3.2101	-0.1551	26.10	0.78	-0.750			
0.8531	54599.64	3.2070	3.2070	-0.1544	26.10	0.78	-0.750			
0.8536	54629.43	3.2040	3.2039	-0.1530	26.11	0.79	-0.750			
0.8540	54658.63	3.2010	3.2011	-0.1520	26.11	0.79	-0.750			
0.8545	54687.75	3.1980	3.1980	-0.1506	26.11	0.79	-0.750			
0.8549	54716.53	3.1950	3.1950	-0.1492	26.12	0.80	-0.750			
0.8554	54745.25	3.1920	3.1920	-0.1474	26.12	0.80	-0.750			
0.8558	54773.23	3.1890	3.1890	-0.1452	26.13	0.81	-0.750			
0.8563	54800.90	3.1860	3.1861	-0.1441	26.13	0.81	-0.750			
0.8567	54828.41	3.1830	3.1830	-0.1425	26.14	0.82	-0.750			
0.8571	54855.51	3.1800	3.1800	-0.1418	26.14	0.82	-0.750			
0.8575	54882.52	3.1770	3.1769	-0.1398	26.14	0.82	-0.750			
0.8580	54909.27	3.1740	3.1740	-0.1391	26.15	0.83	-0.750			
0.8584	54935.90	3.1710	3.1710	-0.1382	26.15	0.83	-0.750			
0.8588	54962.49	3.1680	3.1681	-0.1372	26.15	0.83	-0.750			
0.8592	54988.79	3.1650	3.1649	-0.1360	26.16	0.84	-0.750			
0.8596	55014.61	3.1620	3.1620	-0.1345	26.16	0.84	-0.750			
0.8600	55040.33	3.1590	3.1590	-0.1335	26.17	0.85	-0.750			
0.8604	55065.71	3.1560	3.1560	-0.1326	26.17	0.85	-0.750			
0.8608	55091.21	3.1530	3.1530	-0.1322	26.17	0.85	-0.750			
0.8612	55116.27	3.1500	3.1499	-0.1310	26.18	0.86	-0.750			
0.8616	55141.52	3.1470	3.1470	-0.1301	26.18	0.86	-0.750			
0.8620	55166.64	3.1440	3.1440	-0.1291	26.19	0.87	-0.750			
0.8624	55191.43	3.1410	3.1410	-0.1280	26.19	0.87	-0.750			
0.8627	55215.77	3.1380	3.1381	-0.1269	26.19	0.87	-0.750			
0.8631	55240.05	3.1350	3.1350	-0.1257	26.20	0.88	-0.750			
0.8635	55263.92	3.1320	3.1320	-0.1244	26.20	0.88	-0.750			
0.8639	55287.58	3.1290	3.1289	-0.1232	26.21	0.89	-0.750			
0.8642	55311.21	3.1260	3.1260	-0.1224	26.21	0.89	-0.750			
0.8646	55334.69	3.1230	3.1230	-0.1217	26.21	0.89	-0.750			
0.8650	55358.03	3.1200	3.1200	-0.1206	26.22	0.90	-0.750			
0.8653	55381.21	3.1170	3.1170	-0.1197	26.22	0.90	-0.750			
0.8657	55403.98	3.1140	3.1139	-0.1190	26.22	0.90	-0.750			
0.8660	55426.61	3.1110	3.1111	-0.1179	26.23	0.91	-0.750			
0.8664	55449.16	3.1080	3.1080	-0.1173	26.23	0.91	-0.750			
0.8667	55471.57	3.1050	3.1050	-0.1166	26.23	0.91	-0.750			
0.8671	55493.92	3.1020	3.1020	-0.1161	26.24	0.92	-0.750			
0.8674	55516.09	3.0990	3.0990	-0.1154	26.24	0.92	-0.750			
0.8678	55538.26	3.0960	3.0960	-0.1147	26.24	0.92	-0.750			
0.8681	55560.36	3.0930	3.0930	-0.1142	26.25	0.93	-0.750			
0.8685	55582.34	3.0900	3.0900	-0.1128	26.25	0.93	-0.750			
0.8688	55604.02	3.0870	3.0870	-0.1118	26.25	0.93	-0.750			
0.8691	55625.18	3.0840	3.0840	-0.1112	26.26	0.94	-0.750			
0.8695	55646.39	3.0810	3.0810	-0.1102	26.26	0.94	-0.750			
0.8698	55667.51	3.0780	3.0779	-0.1092	26.26	0.94	-0.750			
0.8701	55688.29	3.0750	3.0749	-0.1082	26.27	0.95	-0.750			
0.8705	55709.00	3.0720	3.0720	-0.1074	26.27	0.95	-0.750			
0.8708	55729.49	3.0690	3.0691	-0.1065	26.27	0.95	-0.750			
0.8711	55749.80	3.0660	3.0661	-0.1061	26.28	0.96	-0.750			
0.8714	55770.25	3.0630	3.0629	-0.1057	26.28	0.96	-0.750			
0.8717	55790.46	3.0600	3.0600	-0.1051	26.28	0.96	-0.750			
0.8720	55810.32	3.0570	3.0569	-0.1041	26.29	0.97	-0.750			
0.8723	55830.35	3.0540	3.0540	-0.1036	26.29	0.97	-0.750			
0.8727	55850.35	3.0510	3.0509	-0.1033	26.29	0.97	-0.750			
0.8730	55870.15	3.0480	3.0480	-0.1025	26.30	0.98	-0.750			
0.8733	55889.86	3.0450	3.0449	-0.1019	26.30	0.98	-0.750			
0.8736	55909.23	3.0420	3.0420	-0.1013	26.30	0.98	-0.750			
0.8739	55928.47	3.0390	3.0390	-0.1004	26.30	0.98	-0.750			
0.8742	55947.76	3.0360	3.0359	-0.0997	26.31	0.99	-0.750			
0.8745	55966.87	3.0330	3.0330	-0.0991	26.31	0.99	-0.750			
0.8748	55985.85	3.0300	3.0300	-0.0985	26.31	0.99	-0.750			
0.8751	56004.66	3.0270	3.0271	-0.0979	26.31	0.99	-0.750			
0.8754	56023.40	3.0240	3.0240	-0.0973	26.32	1.00	-0.750			
0.8757	56042.09	3.0210	3.0210	-0.0967	26.32	1.00	-0.750			
0.8759	56060.59	3.0180	3.0180	-0.0960	26.32	1.00	-0.750			
0.8762	56078.83	3.0150	3.0152	-0.0954	26.32	1.00	-0.750			
0.8765	56097.11	3.0120	3.0119	-0.0950	26.33	1.01	-0.750			
0.8768	56115.34	3.0090	3.0090	-0.0946	26.33	1.01	-0.750			
0.8771	56133.45	3.0060	3.0060	-0.0941	26.33	1.01	-0.750			
0.8774	56151.47	3.0030	3.0030	-0.0945	26.33	1.01	-0.750			
