Ah_balance (normalized)	Ah_balance (mAh)	Voltage - fit (V)	Voltage -  interpolate (V)	dQ/dV (1/V)	Temperature (°C)	Temperature - diff (°C)	Current (C)	R_DC 0ms (mOhm)	R_DC 50ms (mOhm)	R_DC 50 ms PEC (mOhm)
0.2363	15124.38	3.9740	3.9740	0.8799	26.06	0.14	0.750			
0.2389	15291.11	3.9710	3.9710	0.8721	26.07	0.15	0.750			
0.2416	15459.57	3.9680	3.9680	0.8792	26.07	0.15	0.750			
0.2442	15629.71	3.9650	3.9650	0.8823	26.07	0.15	0.750			
0.2469	15800.12	3.9620	3.9620	0.8818	26.07	0.15	0.750			
0.2495	15968.72	3.9590	3.9591	0.8854	26.07	0.15	0.750			
0.2522	16140.32	3.9560	3.9560	0.8889	26.08	0.16	0.750			
0.2548	16310.01	3.9530	3.9530	0.8896	26.08	0.16	0.750			
0.2575	16480.43	3.9500	3.9500	0.8916	26.08	0.16	0.750			
0.2602	16652.62	3.9470	3.9470	0.8948	26.08	0.16	0.750			
0.2629	16825.40	3.9440	3.9440	0.8962	26.08	0.16	0.750			
0.2656	16998.24	3.9410	3.9410	0.8983	26.08	0.16	0.750			
0.2683	17168.76	3.9380	3.9380	0.8999	26.08	0.16	0.750			
0.2710	17343.60	3.9350	3.9350	0.8970	26.08	0.16	0.750			
0.2737	17513.88	3.9320	3.9320	0.9019	26.08	0.16	0.750			
0.2764	17687.66	3.9290	3.9291	0.9048	26.08	0.16	0.750			
0.2791	17862.22	3.9260	3.9260	0.9069	26.08	0.16	0.750			
0.2818	18037.16	3.9230	3.9229	0.9097	26.08	0.16	0.750			
0.2846	18211.42	3.9200	3.9201	0.9109	26.08	0.16	0.750			
0.2873	18385.75	3.9170	3.9170	0.9114	26.08	0.16	0.750			
0.2900	18562.00	3.9140	3.9140	0.9200	26.08	0.16	0.750			
0.2928	18737.24	3.9110	3.9110	0.9179	26.08	0.16	0.750			
0.2956	18916.31	3.9080	3.9080	0.9226	26.08	0.16	0.750			
0.2983	19092.47	3.9050	3.9051	0.9285	26.08	0.16	0.750			
0.3011	19271.35	3.9020	3.9020	0.9334	26.08	0.16	0.750			
0.3039	19450.91	3.8990	3.8990	0.9378	26.08	0.16	0.750			
0.3067	19630.88	3.8960	3.8959	0.9407	26.08	0.16	0.750			
0.3096	19811.86	3.8930	3.8931	0.9387	26.07	0.15	0.750			
0.3124	19994.04	3.8900	3.8900	0.9448	26.07	0.15	0.750			
0.3152	20174.68	3.8870	3.8870	0.9475	26.07	0.15	0.750			
0.3181	20355.82	3.8840	3.8839	0.9481	26.06	0.14	0.750			
0.3209	20539.01	3.8810	3.8810	0.9500	26.06	0.14	0.750			
0.3238	20721.83	3.8780	3.8780	0.9540	26.06	0.14	0.750			
0.3266	20905.22	3.8750	3.8751	0.9641	26.06	0.14	0.750			
0.3295	21090.80	3.8720	3.8720	0.9654	26.06	0.14	0.750			
0.3325	21277.27	3.8690	3.8690	0.9702	26.06	0.14	0.750			
0.3354	21463.45	3.8660	3.8661	0.9743	26.05	0.13	0.750			
0.3383	21651.34	3.8630	3.8630	0.9815	26.04	0.12	0.750			
0.3413	21841.49	3.8600	3.8600	0.9895	26.04	0.12	0.750			
0.3442	22030.99	3.8570	3.8570	0.9912	26.03	0.11	0.750			
0.3472	22220.73	3.8540	3.8540	0.9943	26.03	0.11	0.750			
0.3502	22413.11	3.8510	3.8511	1.0037	26.02	0.10	0.750			
0.3532	22605.37	3.8480	3.8480	1.0107	26.02	0.10	0.750			
0.3563	22800.24	3.8450	3.8450	1.0180	26.02	0.10	0.750			
0.3593	22996.80	3.8420	3.8420	1.0225	26.01	0.09	0.750			
0.3624	23192.83	3.8390	3.8389	1.0305	26.00	0.08	0.750			
0.3655	23392.52	3.8360	3.8361	1.0403	26.00	0.08	0.750			
0.3686	23593.25	3.8330	3.8329	1.0488	25.99	0.07	0.750			
0.3718	23794.26	3.8300	3.8300	1.0585	25.98	0.06	0.750			
0.3750	23998.73	3.8270	3.8270	1.0689	25.98	0.06	0.750			
0.3782	24204.32	3.8240	3.8241	1.0822	25.97	0.05	0.750			
0.3815	24414.39	3.8210	3.8209	1.0872	25.97	0.05	0.750			
0.3847	24623.18	3.8180	3.8180	1.0985	25.96	0.04	0.750			
0.3881	24835.36	3.8150	3.8150	1.1095	25.95	0.03	0.750			
0.3914	25048.98	3.8120	3.8120	1.1190	25.95	0.03	0.750			
0.3948	25265.14	3.8090	3.8090	1.1269	25.94	0.02	0.750			
0.3982	25482.41	3.8060	3.8060	1.1424	25.93	0.01	0.750			
0.4016	25701.94	3.8030	3.8030	1.1535	25.93	0.01	0.750			
0.4051	25925.12	3.8000	3.7999	1.1729	25.92	0.00	0.750			
0.4086	26149.32	3.7970	3.7970	1.1904	25.92	-0.00	0.750			
0.4122	26381.69	3.7940	3.7940	1.2084	25.91	-0.01	0.750			
0.4159	26616.31	3.7910	3.7910	1.2245	25.90	-0.02	0.750			
0.4196	26854.32	3.7880	3.7880	1.2389	25.90	-0.02	0.750			
0.4233	27091.78	3.7850	3.7851	1.2561	25.89	-0.03	0.750			
0.4271	27333.33	3.7820	3.7820	1.2775	25.88	-0.04	0.750			
0.4309	27579.01	3.7790	3.7788	1.2970	25.87	-0.05	0.750			
0.4348	27829.25	3.7760	3.7761	1.3185	25.86	-0.06	0.750			
0.4388	28086.31	3.7730	3.7730	1.3463	25.85	-0.07	0.750			
0.4430	28350.93	3.7700	3.7699	1.3612	25.84	-0.08	0.750			
0.4470	28610.13	3.7670	3.7671	1.3865	25.83	-0.09	0.750			
0.4512	28878.90	3.7640	3.7640	1.4129	25.83	-0.09	0.750			
0.4555	29151.61	3.7610	3.7609	1.4379	25.82	-0.10	0.750			
0.4598	29429.72	3.7580	3.7581	1.4642	25.81	-0.11	0.750			
0.4643	29715.39	3.7550	3.7551	1.4934	25.81	-0.11	0.750			
0.4689	30008.66	3.7520	3.7520	1.5235	25.80	-0.12	0.750			
0.4735	30303.04	3.7490	3.7489	1.5506	25.79	-0.13	0.750			
0.4781	30597.93	3.7460	3.7461	1.5821	25.78	-0.14	0.750			
0.4829	30905.05	3.7430	3.7430	1.6244	25.78	-0.14	0.750			
0.4878	31219.80	3.7400	3.7398	1.6666	25.77	-0.15	0.750			
0.4929	31544.21	3.7370	3.7370	1.7057	25.76	-0.16	0.750			
0.4981	31876.24	3.7340	3.7340	1.7385	25.75	-0.17	0.750			
0.5034	32214.81	3.7310	3.7310	1.7837	25.74	-0.18	0.750			
0.5088	32562.17	3.7280	3.7278	1.8165	25.74	-0.18	0.750			
0.5143	32912.65	3.7250	3.7250	1.8639	25.73	-0.19	0.750			
0.5199	33274.98	3.7220	3.7221	1.9080	25.72	-0.20	0.750			
0.5257	33646.46	3.7190	3.7190	1.9637	25.71	-0.21	0.750			
0.5317	34026.03	3.7160	3.7161	2.0127	25.70	-0.22	0.750			
0.5378	34419.56	3.7130	3.7130	2.0617	25.69	-0.23	0.750	0.355	0.483	
0.5441	34823.04	3.7100	3.7099	2.1176	25.68	-0.24	0.750			
0.5505	35231.16	3.7070	3.7071	2.1765	25.67	-0.25	0.750			
0.5571	35655.93	3.7040	3.7040	2.2229	25.67	-0.25	0.750			
0.5639	36089.12	3.7010	3.7010	2.2729	25.66	-0.26	0.750			
0.5708	36528.85	3.6980	3.6979	2.3265	25.66	-0.26	0.750			
0.5778	36976.57	3.6950	3.6950	2.3822	25.65	-0.27	0.750			
0.5850	37438.09	3.6920	3.6920	2.4491	25.64	-0.28	0.750			
0.5925	37918.31	3.6890	3.6890	2.5083	25.64	-0.28	0.750			
0.6001	38405.77	3.6860	3.6859	2.5966	25.64	-0.28	0.750			
0.6080	38911.02	3.6830	3.6830	2.6634	25.64	-0.28	0.750			
0.6161	39433.01	3.6800	3.6801	2.7145	25.62	-0.30	0.750			
0.6244	39961.69	3.6770	3.6771	2.7349	25.62	-0.30	0.750			
0.6326	40486.38	3.6740	3.6740	2.7050	25.62	-0.30	0.750			
0.6407	41006.05	3.6710	3.6708	2.6232	25.62	-0.30	0.750			
0.6486	41507.43	3.6680	3.6680	2.4938	25.62	-0.30	0.750			
0.6558	41968.59	3.6650	3.6650	2.3192	25.62	-0.30	0.750			
0.6624	42392.74	3.6620	3.6619	2.1236	25.62	-0.30	0.750			
0.6685	42782.31	3.6590	3.6590	1.9628	25.62	-0.30	0.750			
0.6741	43143.33	3.6560	3.6560	1.8188	25.62	-0.30	0.750			
0.6793	43477.08	3.6530	3.6530	1.6862	25.63	-0.29	0.750			
0.6841	43784.32	3.6500	3.6500	1.5627	25.63	-0.29	0.750			
0.6885	44063.52	3.6470	3.6470	1.4631	25.64	-0.28	0.750			
0.6927	44333.86	3.6440	3.6439	1.3831	25.64	-0.28	0.750			
0.6967	44585.72	3.6410	3.6410	1.3224	25.65	-0.27	0.750			
0.7005	44834.30	3.6380	3.6380	1.2812	25.65	-0.27	0.750			
0.7043	45074.54	3.6350	3.6351	1.2512	25.66	-0.26	0.750			
0.7080	45311.57	3.6320	3.6321	1.2279	25.66	-0.26	0.750			
0.7116	45541.68	3.6290	3.6290	1.2071	25.67	-0.25	0.750			
0.7152	45770.89	3.6260	3.6260	1.1977	25.67	-0.25	0.750			
0.7187	45999.10	3.6230	3.6230	1.1836	25.68	-0.24	0.750			
0.7223	46226.11	3.6200	3.6200	1.1847	25.68	-0.24	0.750			
0.7259	46454.65	3.6170	3.6170	1.1806	25.68	-0.24	0.750			
0.7294	46679.87	3.6140	3.6140	1.1761	25.68	-0.24	0.750			
0.7329	46905.23	3.6110	3.6111	1.1745	25.68	-0.24	0.750			
0.7364	47129.59	3.6080	3.6080	1.1697	25.69	-0.23	0.750			
0.7399	47353.04	3.6050	3.6050	1.1758	25.69	-0.23	0.750			
0.7434	47578.88	3.6020	3.6019	1.1791	25.70	-0.22	0.750			
0.7469	47803.31	3.5990	3.5991	1.1936	25.70	-0.22	0.750			
0.7505	48033.20	3.5960	3.5960	1.2143	25.71	-0.21	0.750			
0.7542	48267.82	3.5930	3.5930	1.2335	25.71	-0.21	0.750			
0.7579	48504.92	3.5900	3.5900	1.2638	25.71	-0.21	0.750			
0.7617	48748.69	3.5870	3.5871	1.3051	25.71	-0.21	0.750			
0.7657	49002.18	3.5840	3.5841	1.3437	25.72	-0.20	0.750			
0.7697	49263.04	3.5810	3.5810	1.3916	25.72	-0.20	0.750			
0.7740	49533.81	3.5780	3.5781	1.4343	25.72	-0.20	0.750			
0.7784	49817.55	3.5750	3.5750	1.4688	25.73	-0.19	0.750			
0.7829	50106.08	3.5720	3.5721	1.5015	25.73	-0.19	0.750			
0.7875	50399.37	3.5690	3.5691	1.5278	25.73	-0.19	0.750			
0.7921	50694.15	3.5660	3.5660	1.5535	25.73	-0.19	0.750			
0.7968	50995.15	3.5630	3.5631	1.5709	25.73	-0.19	0.750			
0.8015	51298.18	3.5600	3.5600	1.5822	25.73	-0.19	0.750			
0.8064	51609.91	3.5570	3.5568	1.5972	25.73	-0.19	0.750			
0.8112	51918.77	3.5540	3.5539	1.6016	25.73	-0.19	0.750			
0.8160	52225.88	3.5510	3.5511	1.5878	25.74	-0.18	0.750			
0.8208	52530.88	3.5480	3.5481	1.5810	25.74	-0.18	0.750			
0.8256	52835.69	3.5450	3.5449	1.5632	25.75	-0.17	0.750			
0.8304	53143.12	3.5420	3.5419	1.5069	25.76	-0.16	0.750			
0.8349	53435.54	3.5390	3.5390	1.4221	25.77	-0.15	0.750			
0.8393	53713.67	3.5360	3.5361	1.2769	25.78	-0.14	0.750			
0.8431	53958.70	3.5330	3.5330	1.1118	25.79	-0.13	0.750			
0.8461	54153.45	3.5300	3.5301	0.9259	25.80	-0.12	0.750			
0.8485	54304.83	3.5270	3.5270	0.7390	25.81	-0.11	0.750			
0.8502	54412.85	3.5240	3.5239	0.5919	25.82	-0.10	0.750			
0.8517	54506.36	3.5210	3.5208	0.4852	25.82	-0.10	0.750			
0.8528	54580.27	3.5180	3.5179	0.4097	25.83	-0.09	0.750			
0.8539	54650.19	3.5150	3.5149	0.3705	25.83	-0.09	0.750			
0.8549	54714.66	3.5120	3.5120	0.3377	25.84	-0.08	0.750			
0.8559	54775.53	3.5090	3.5090	0.3187	25.84	-0.08	0.750			
0.8568	54833.55	3.5060	3.5060	0.3018	25.84	-0.08	0.750			
0.8577	54889.95	3.5030	3.5030	0.2898	25.85	-0.07	0.750			
0.8585	54943.99	3.5000	3.5000	0.2790	25.86	-0.06	0.750			
0.8593	54996.47	3.4970	3.4971	0.2702	25.86	-0.06	0.750			
0.8601	55047.57	3.4940	3.4940	0.2623	25.87	-0.05	0.750			
0.8609	55096.40	3.4910	3.4910	0.2537	25.87	-0.05	0.750			
0.8616	55144.26	3.4880	3.4879	0.2468	25.88	-0.04	0.750			
0.8624	55190.92	3.4850	3.4851	0.2412	25.88	-0.04	0.750			
0.8631	55236.58	3.4820	3.4820	0.2367	25.89	-0.03	0.750			
0.8638	55281.55	3.4790	3.4790	0.2319	25.89	-0.03	0.750			
0.8645	55325.35	3.4760	3.4760	0.2270	25.89	-0.03	0.750			
0.8651	55368.71	3.4730	3.4729	0.2209	25.90	-0.02	0.750			
0.8658	55410.77	3.4700	3.4701	0.2167	25.90	-0.02	0.750			
0.8664	55451.77	3.4670	3.4671	0.2122	25.91	-0.01	0.750			
0.8671	55492.03	3.4640	3.4640	0.2074	25.91	-0.01	0.750			
0.8677	55531.21	3.4610	3.4609	0.2024	25.91	-0.01	0.750			
0.8683	55569.31	3.4580	3.4580	0.1977	25.92	-0.00	0.750			
0.8689	55606.93	3.4550	3.4551	0.1940	25.92	0.00	0.750			
0.8694	55643.99	3.4520	3.4520	0.1895	25.93	0.01	0.750			
0.8700	55680.36	3.4490	3.4490	0.1853	25.93	0.01	0.750			
0.8706	55715.24	3.4460	3.4460	0.1804	25.93	0.01	0.750			
0.8711	55749.55	3.4430	3.4430	0.1754	25.94	0.02	0.750			
0.8716	55782.76	3.4400	3.4400	0.1712	25.94	0.02	0.750			
0.8721	55815.15	3.4370	3.4370	0.1662	25.94	0.02	0.750			
0.8726	55846.38	3.4340	3.4340	0.1618	25.95	0.03	0.750			
0.8731	55876.90	3.4310	3.4309	0.1570	25.95	0.03	0.750			
0.8735	55906.87	3.4280	3.4280	0.1529	25.95	0.03	0.750			
0.8740	55935.79	3.4250	3.4250	0.1483	25.96	0.04	0.750			
0.8744	55963.79	3.4220	3.4221	0.1437	25.96	0.04	0.750			
0.8749	55991.09	3.4190	3.4190	0.1394	25.96	0.04	0.750			
0.8753	56017.27	3.4160	3.4159	0.1342	25.96	0.04	0.750			
0.8757	56042.71	3.4130	3.4130	0.1293	25.97	0.05	0.750			
0.8760	56067.05	3.4100	3.4100	0.1243	25.97	0.05	0.750			
0.8764	56090.58	3.4070	3.4071	0.1196	25.97	0.05	0.750			
0.8768	56113.11	3.4040	3.4041	0.1146	25.97	0.05	0.750			
0.8771	56134.84	3.4010	3.4009	0.1088	25.98	0.06	0.750			
0.8774	56155.25	3.3980	3.3979	0.1032	25.98	0.06	0.750			
0.8777	56174.51	3.3950	3.3950	0.0973	25.98	0.06	0.750			
0.8780	56193.62	3.3920	3.3919	0.0899	25.98	0.06	0.750			
0.8783	56210.11	3.3890	3.3892	0.0818	25.98	0.06	0.750			
0.8785	56225.75	3.3860	3.3860	0.0750	25.98	0.06	0.750			
0.8787	56239.29	3.3830	3.3833	0.0660	25.99	0.07	0.750			
0.8789	56251.44	3.3800	3.3804	0.0571	25.99	0.07	0.750			
0.8791	56261.50	3.3770	3.3778	0.0477	25.99	0.07	0.750			
0.8792	56269.74	3.3740	3.3751	0.0382	25.99	0.07	0.750			
0.8793	56276.17	3.3710	3.3726	0.0288	25.99	0.07	0.750			
