Ah_balance (normalized)	Ah_balance (mAh)	Voltage - fit (V)	Voltage -  interpolate (V)	dQ/dV (1/V)	Temperature (°C)	Temperature - diff (°C)	Current (C)	R_DC 0ms (mOhm)	R_DC 50ms (mOhm)	R_DC 50 ms PEC (mOhm)
0.4315	27615.96	3.8430	3.8430	1.2357	27.01	1.05	1.500			
0.4352	27852.56	3.8400	3.8400	1.2404	27.00	1.04	1.500			
0.4389	28092.00	3.8370	3.8370	1.2601	26.99	1.03	1.500			
0.4427	28335.65	3.8340	3.8340	1.2785	26.98	1.02	1.500			
0.4466	28582.65	3.8310	3.8310	1.2991	26.96	1.00	1.500			
0.4505	28834.08	3.8280	3.8280	1.3268	26.95	0.99	1.500			
0.4545	29090.28	3.8250	3.8249	1.3527	26.94	0.98	1.500			
0.4586	29352.68	3.8220	3.8220	1.3720	26.92	0.96	1.500			
0.4628	29618.37	3.8190	3.8190	1.3986	26.91	0.95	1.500			
0.4670	29890.67	3.8160	3.8159	1.4274	26.89	0.93	1.500			
0.4714	30166.89	3.8130	3.8130	1.4351	26.88	0.92	1.500			
0.4757	30444.02	3.8100	3.8101	1.4642	26.86	0.90	1.500			
0.4801	30726.24	3.8070	3.8070	1.5042	26.85	0.89	1.500			
0.4846	31015.03	3.8040	3.8040	1.5360	26.83	0.87	1.500			
0.4893	31314.89	3.8010	3.8010	1.5799	26.82	0.86	1.500			
0.4942	31630.45	3.7980	3.7980	1.6096	26.80	0.84	1.500			
0.4990	31938.13	3.7950	3.7950	1.6256	26.79	0.83	1.500			
0.5039	32249.92	3.7920	3.7920	1.6442	26.77	0.81	1.500			
0.5089	32567.31	3.7890	3.7891	1.6717	26.75	0.79	1.500			
0.5139	32891.25	3.7860	3.7860	1.6951	26.74	0.78	1.500			
0.5191	33219.82	3.7830	3.7830	1.7192	26.72	0.76	1.500			
0.5242	33551.03	3.7800	3.7799	1.7161	26.71	0.75	1.500			
0.5294	33879.19	3.7770	3.7771	1.7346	26.69	0.73	1.500			
0.5346	34214.85	3.7740	3.7739	1.7563	26.67	0.71	1.500			
0.5398	34549.21	3.7710	3.7711	1.7619	26.66	0.70	1.500			
0.5453	34896.12	3.7680	3.7680	1.7647	26.64	0.68	1.500			
0.5504	35228.75	3.7650	3.7651	1.7430	26.62	0.66	1.500			
0.5557	35563.37	3.7620	3.7619	1.7524	26.60	0.64	1.500			
0.5609	35897.88	3.7590	3.7590	1.7718	26.59	0.63	1.500			
0.5663	36245.26	3.7560	3.7560	1.7739	26.58	0.62	1.500			
0.5717	36585.76	3.7530	3.7531	1.7683	26.57	0.61	1.500			
0.5769	36920.66	3.7500	3.7500	1.7765	26.55	0.59	1.500			
0.5822	37263.57	3.7470	3.7468	1.7974	26.54	0.58	1.500			
0.5877	37613.55	3.7440	3.7441	1.8417	26.52	0.56	1.500			
0.5933	37969.43	3.7410	3.7410	1.8696	26.51	0.55	1.500			
0.5989	38330.54	3.7380	3.7380	1.8912	26.49	0.53	1.500			
0.6046	38696.09	3.7350	3.7351	1.9560	26.48	0.52	1.500			
0.6106	39077.34	3.7320	3.7319	1.9926	26.46	0.50	1.500			
0.6167	39466.00	3.7290	3.7291	2.0533	26.45	0.49	1.500			
0.6228	39860.14	3.7260	3.7260	2.0953	26.43	0.47	1.500			
0.6291	40263.62	3.7230	3.7231	2.1619	26.42	0.46	1.500			
0.6358	40688.17	3.7200	3.7200	2.2459	26.40	0.44	1.500			
0.6428	41136.27	3.7170	3.7170	2.3162	26.38	0.42	1.500			
0.6496	41571.34	3.7140	3.7140	2.3279	26.36	0.40	1.500			
0.6565	42018.76	3.7110	3.7109	2.4440	26.34	0.38	1.500			
0.6640	42495.59	3.7080	3.7080	2.4562	26.32	0.36	1.500			
0.6716	42981.90	3.7050	3.7050	2.4177	26.31	0.35	1.500			
0.6788	43441.17	3.7020	3.7020	2.3196	26.29	0.33	1.500			
0.6856	43876.90	3.6990	3.6990	2.2035	26.27	0.31	1.500			
0.6920	44290.02	3.6960	3.6960	2.0367	26.26	0.30	1.500			
0.6978	44657.05	3.6930	3.6930	1.8578	26.24	0.28	1.500			
0.7030	44991.60	3.6900	3.6900	1.7032	26.23	0.27	1.500			
0.7080	45309.77	3.6870	3.6870	1.6087	26.22	0.26	1.500			
0.7126	45606.30	3.6840	3.6841	1.5257	26.20	0.24	1.500			
0.7171	45892.72	3.6810	3.6810	1.4566	26.19	0.23	1.500			
0.7213	46162.34	3.6780	3.6779	1.3908	26.18	0.22	1.500			
0.7253	46421.81	3.6750	3.6751	1.3411	26.17	0.21	1.500			
0.7293	46673.86	3.6720	3.6721	1.3130	26.16	0.20	1.500			
0.7332	46923.57	3.6690	3.6689	1.2895	26.15	0.19	1.500			
0.7369	47164.38	3.6660	3.6660	1.2760	26.14	0.18	1.500			
0.7407	47407.57	3.6630	3.6631	1.2750	26.13	0.17	1.500			
0.7446	47654.97	3.6600	3.6599	1.2784	26.12	0.16	1.500			
0.7484	47898.50	3.6570	3.6570	1.2791	26.11	0.15	1.500			
0.7523	48144.56	3.6540	3.6540	1.2800	26.10	0.14	1.500			
0.7561	48392.01	3.6510	3.6510	1.2840	26.09	0.13	1.500			
0.7600	48639.06	3.6480	3.6480	1.2785	26.08	0.12	1.500			
0.7638	48885.36	3.6450	3.6450	1.2752	26.07	0.11	1.500			
0.7676	49128.69	3.6420	3.6420	1.2671	26.06	0.10	1.500			
0.7714	49371.06	3.6390	3.6390	1.2529	26.05	0.09	1.500			
0.7751	49609.35	3.6360	3.6361	1.2481	26.04	0.08	1.500			
0.7789	49848.54	3.6330	3.6330	1.2441	26.03	0.07	1.500			
0.7826	50086.02	3.6300	3.6298	1.2368	26.02	0.06	1.500			
0.7863	50323.07	3.6270	3.6271	1.2319	26.01	0.05	1.500			
0.7900	50561.39	3.6240	3.6240	1.2234	26.01	0.05	1.500			
0.7937	50798.68	3.6210	3.6209	1.2140	26.00	0.04	1.500			
0.7973	51026.58	3.6180	3.6180	1.1897	26.00	0.04	1.500			
0.8008	51254.07	3.6150	3.6150	1.1750	25.99	0.03	1.500			
0.8044	51479.88	3.6120	3.6120	1.1585	25.98	0.02	1.500			
0.8078	51699.91	3.6090	3.6090	1.1361	25.98	0.02	1.500			
0.8112	51916.45	3.6060	3.6060	1.1168	25.98	0.02	1.500			
0.8145	52129.13	3.6030	3.6030	1.0971	25.97	0.01	1.500			
0.8178	52337.65	3.6000	3.6000	1.0748	25.97	0.01	1.500			
0.8210	52542.82	3.5970	3.5970	1.0496	25.97	0.01	1.500			
0.8241	52743.47	3.5940	3.5940	1.0220	25.97	0.01	1.500			
0.8272	52938.80	3.5910	3.5910	0.9893	25.96	0.00	1.500			
0.8301	53126.93	3.5880	3.5879	0.9432	25.96	0.00	1.500			
0.8329	53308.16	3.5850	3.5850	0.8795	25.96	-0.00	1.500			
0.8355	53473.23	3.5820	3.5820	0.8033	25.96	-0.00	1.500			
0.8379	53625.90	3.5790	3.5790	0.7149	25.96	-0.00	1.500			
0.8399	53754.10	3.5760	3.5760	0.6169	25.95	-0.01	1.500			
0.8416	53860.45	3.5730	3.5731	0.5245	25.95	-0.01	1.500			
0.8430	53949.32	3.5700	3.5699	0.4423	25.95	-0.01	1.500			
0.8441	54020.43	3.5670	3.5669	0.3724	25.95	-0.01	1.500			
0.8450	54082.59	3.5640	3.5640	0.3201	25.95	-0.01	1.500			
0.8459	54135.87	3.5610	3.5609	0.2711	25.95	-0.01	1.500			
0.8466	54182.91	3.5580	3.5579	0.2400	25.95	-0.01	1.500			
0.8472	54222.33	3.5550	3.5550	0.2111	25.95	-0.01	1.500			
0.8478	54259.56	3.5520	3.5520	0.1910	25.95	-0.01	1.500			
0.8483	54294.09	3.5490	3.5490	0.1718	25.95	-0.01	1.500			
0.8488	54324.44	3.5460	3.5460	0.1551	25.95	-0.01	1.500			
0.8493	54352.14	3.5430	3.5430	0.1387	25.95	-0.01	1.500			
0.8496	54377.22	3.5400	3.5400	0.1238	25.95	-0.01	1.500			
0.8500	54399.61	3.5370	3.5371	0.1093	25.95	-0.01	1.500			
0.8503	54419.15	3.5340	3.5341	0.0948	25.95	-0.01	1.500			
0.8506	54436.13	3.5310	3.5310	0.0805	25.95	-0.01	1.500			
0.8508	54450.17	3.5280	3.5283	0.0658	25.95	-0.01	1.500			
0.8510	54461.36	3.5250	3.5254	0.0512	25.95	-0.01	1.500			
0.8511	54469.80	3.5220	3.5228	0.0367	25.94	-0.02	1.500			
