Ah_balance (normalized)	Ah_balance (mAh)	Voltage - fit (V)	Voltage -  interpolate (V)	dQ/dV (1/V)	Temperature (°C)	Temperature - diff (°C)	Current (C)	R_DC 0ms (mOhm)	R_DC 50ms (mOhm)	R_DC 50 ms PEC (mOhm)
0.2164	13852.25	3.9090	3.9090	-0.1330	25.94	-0.03	-1.500			
0.2169	13880.59	3.9060	3.9060	-0.1598	25.95	-0.02	-1.500			
0.2174	13913.32	3.9030	3.9031	-0.1863	25.95	-0.02	-1.500			
0.2180	13951.97	3.9000	3.8999	-0.2127	25.95	-0.02	-1.500			
0.2187	13995.24	3.8970	3.8970	-0.2398	25.95	-0.02	-1.500			
0.2194	14044.03	3.8940	3.8940	-0.2649	25.95	-0.02	-1.500			
0.2203	14097.39	3.8910	3.8910	-0.2907	25.95	-0.02	-1.500			
0.2212	14155.74	3.8880	3.8880	-0.3170	25.95	-0.02	-1.500			
0.2222	14219.19	3.8850	3.8849	-0.3426	25.95	-0.02	-1.500			
0.2232	14286.99	3.8820	3.8820	-0.3687	25.95	-0.02	-1.500			
0.2244	14360.49	3.8790	3.8791	-0.3958	25.95	-0.02	-1.500			
0.2256	14439.03	3.8760	3.8759	-0.4218	25.96	-0.01	-1.500			
0.2269	14523.18	3.8730	3.8730	-0.4475	25.96	-0.01	-1.500			
0.2283	14611.61	3.8700	3.8700	-0.4705	25.96	-0.01	-1.500			
0.2298	14704.65	3.8670	3.8670	-0.4917	25.96	-0.01	-1.500			
0.2313	14801.50	3.8640	3.8641	-0.5152	25.96	-0.01	-1.500			
0.2329	14902.89	3.8610	3.8610	-0.5328	25.96	-0.01	-1.500			
0.2345	15007.33	3.8580	3.8580	-0.5511	25.97	-0.00	-1.500			
0.2362	15115.20	3.8550	3.8550	-0.5670	25.97	-0.00	-1.500			
0.2379	15225.95	3.8520	3.8520	-0.5832	25.97	0.00	-1.500			
0.2397	15339.84	3.8490	3.8490	-0.5953	25.97	0.00	-1.500			
0.2415	15455.21	3.8460	3.8460	-0.6096	25.97	0.00	-1.500			
0.2433	15573.08	3.8430	3.8430	-0.6201	25.98	0.01	-1.500			
0.2452	15694.53	3.8400	3.8400	-0.6310	25.98	0.01	-1.500			
0.2471	15816.42	3.8370	3.8370	-0.6372	25.98	0.01	-1.500			
0.2491	15940.03	3.8340	3.8341	-0.6468	25.98	0.01	-1.500			
0.2510	16064.59	3.8310	3.8309	-0.6544	25.99	0.02	-1.500			
0.2530	16191.49	3.8280	3.8280	-0.6599	25.99	0.02	-1.500			
0.2550	16318.35	3.8250	3.8250	-0.6630	25.99	0.02	-1.500			
0.2570	16447.23	3.8220	3.8220	-0.6686	25.99	0.02	-1.500			
0.2590	16576.02	3.8190	3.8190	-0.6735	26.00	0.03	-1.500			
0.2610	16705.39	3.8160	3.8160	-0.6761	26.00	0.03	-1.500			
0.2630	16834.90	3.8130	3.8130	-0.6773	26.00	0.03	-1.500			
0.2651	16965.49	3.8100	3.8101	-0.6796	26.00	0.03	-1.500			
0.2671	17096.81	3.8070	3.8070	-0.6818	26.01	0.04	-1.500			
0.2692	17227.54	3.8040	3.8040	-0.6850	26.01	0.04	-1.500			
0.2712	17359.19	3.8010	3.8010	-0.6826	26.01	0.04	-1.500			
0.2733	17490.02	3.7980	3.7980	-0.6822	26.02	0.05	-1.500			
0.2753	17621.01	3.7950	3.7951	-0.6851	26.02	0.05	-1.500			
0.2774	17753.04	3.7920	3.7919	-0.6852	26.02	0.05	-1.500			
0.2794	17884.48	3.7890	3.7890	-0.6872	26.03	0.06	-1.500			
0.2815	18016.65	3.7860	3.7860	-0.6870	26.03	0.06	-1.500			
0.2836	18148.31	3.7830	3.7831	-0.6876	26.03	0.06	-1.500			
0.2857	18281.63	3.7800	3.7800	-0.6902	26.04	0.07	-1.500			
0.2877	18412.91	3.7770	3.7769	-0.6912	26.04	0.07	-1.500			
0.2898	18545.36	3.7740	3.7740	-0.6930	26.05	0.08	-1.500			
0.2919	18679.55	3.7710	3.7710	-0.6932	26.05	0.08	-1.500			
0.2939	18812.51	3.7680	3.7680	-0.6916	26.06	0.09	-1.500			
0.2960	18945.46	3.7650	3.7651	-0.6959	26.06	0.09	-1.500			
0.2981	19079.08	3.7620	3.7620	-0.6951	26.07	0.10	-1.500			
0.3002	19212.25	3.7590	3.7589	-0.6958	26.07	0.10	-1.500			
0.3023	19345.69	3.7560	3.7560	-0.6940	26.08	0.11	-1.500			
0.3044	19479.02	3.7530	3.7531	-0.6953	26.08	0.11	-1.500			
0.3064	19612.12	3.7500	3.7500	-0.7039	26.09	0.12	-1.500			
0.3086	19747.81	3.7470	3.7469	-0.7058	26.09	0.12	-1.500			
0.3107	19883.19	3.7440	3.7439	-0.7089	26.10	0.13	-1.500			
0.3128	20020.70	3.7410	3.7411	-0.7152	26.10	0.13	-1.500			
0.3150	20158.93	3.7380	3.7380	-0.7169	26.11	0.14	-1.500			
0.3171	20297.19	3.7350	3.7350	-0.7202	26.11	0.14	-1.500			
0.3193	20434.52	3.7320	3.7320	-0.7216	26.12	0.15	-1.500			
0.3214	20572.29	3.7290	3.7290	-0.7236	26.12	0.15	-1.500			
0.3236	20712.00	3.7260	3.7260	-0.7308	26.13	0.16	-1.500			
0.3258	20852.55	3.7230	3.7230	-0.7366	26.14	0.17	-1.500			
0.3280	20994.95	3.7200	3.7200	-0.7420	26.14	0.17	-1.500			
0.3303	21137.84	3.7170	3.7170	-0.7521	26.15	0.18	-1.500			
0.3325	21282.94	3.7140	3.7141	-0.7573	26.16	0.19	-1.500			
0.3348	21428.88	3.7110	3.7109	-0.7644	26.16	0.19	-1.500			
0.3371	21576.65	3.7080	3.7080	-0.7718	26.17	0.20	-1.500			
0.3395	21724.83	3.7050	3.7050	-0.7790	26.17	0.20	-1.500			
0.3418	21874.67	3.7020	3.7020	-0.7898	26.18	0.21	-1.500			
0.3442	22027.66	3.6990	3.6990	-0.7983	26.18	0.21	-1.500			
0.3466	22181.10	3.6960	3.6961	-0.8063	26.19	0.22	-1.500			
0.3490	22338.42	3.6930	3.6930	-0.8159	26.19	0.22	-1.500			
0.3515	22495.08	3.6900	3.6900	-0.8247	26.20	0.23	-1.500			
0.3540	22653.82	3.6870	3.6871	-0.8359	26.20	0.23	-1.500			
0.3565	22815.27	3.6840	3.6840	-0.8447	26.21	0.24	-1.500			
0.3590	22977.36	3.6810	3.6810	-0.8602	26.21	0.24	-1.500			
0.3616	23144.97	3.6780	3.6781	-0.8760	26.22	0.25	-1.500			
0.3643	23314.93	3.6750	3.6749	-0.8894	26.22	0.25	-1.500			
0.3670	23487.88	3.6720	3.6720	-0.9010	26.23	0.26	-1.500			
0.3697	23661.62	3.6690	3.6690	-0.9110	26.23	0.26	-1.500			
0.3725	23837.03	3.6660	3.6661	-0.9249	26.24	0.27	-1.500			
0.3752	24015.48	3.6630	3.6630	-0.9413	26.24	0.27	-1.500			
0.3781	24195.70	3.6600	3.6600	-0.9585	26.24	0.27	-1.500			
0.3810	24383.09	3.6570	3.6569	-0.9764	26.25	0.28	-1.500			
0.3840	24573.61	3.6540	3.6540	-0.9886	26.25	0.28	-1.500			
0.3870	24766.31	3.6510	3.6511	-1.0083	26.26	0.29	-1.500			
0.3900	24959.23	3.6480	3.6480	-1.0254	26.26	0.29	-1.500			
0.3931	25157.42	3.6450	3.6449	-1.0404	26.26	0.29	-1.500			
0.3962	25356.30	3.6420	3.6419	-1.0577	26.26	0.29	-1.500			
0.3994	25562.00	3.6390	3.6390	-1.0761	26.26	0.29	-1.500			
0.4027	25773.71	3.6360	3.6360	-1.0997	26.27	0.30	-1.500			
0.4060	25985.73	3.6330	3.6330	-1.1182	26.27	0.30	-1.500			
0.4094	26200.57	3.6300	3.6300	-1.1341	26.27	0.30	-1.500			
0.4128	26420.67	3.6270	3.6271	-1.1539	26.27	0.30	-1.500			
0.4163	26644.10	3.6240	3.6240	-1.1753	26.27	0.30	-1.500			
0.4199	26870.91	3.6210	3.6210	-1.1933	26.27	0.30	-1.500			
0.4235	27103.38	3.6180	3.6180	-1.2141	26.27	0.30	-1.500			
0.4272	27338.55	3.6150	3.6150	-1.2348	26.28	0.31	-1.500			
0.4309	27576.11	3.6120	3.6120	-1.2541	26.28	0.31	-1.500			
0.4347	27818.08	3.6090	3.6090	-1.2759	26.28	0.31	-1.500			
0.4385	28066.11	3.6060	3.6060	-1.2952	26.28	0.31	-1.500			
0.4424	28316.63	3.6030	3.6031	-1.3185	26.28	0.31	-1.500			
0.4465	28573.50	3.6000	3.6000	-1.3368	26.29	0.32	-1.500			
0.4505	28831.74	3.5970	3.5970	-1.3650	26.29	0.32	-1.500			
0.4546	29097.31	3.5940	3.5940	-1.3818	26.29	0.32	-1.500			
0.4588	29364.12	3.5910	3.5910	-1.3986	26.30	0.33	-1.500			
0.4631	29636.27	3.5880	3.5882	-1.4096	26.30	0.33	-1.500			
0.4673	29908.78	3.5850	3.5849	-1.4202	26.30	0.33	-1.500			
0.4715	30178.60	3.5820	3.5821	-1.4397	26.30	0.33	-1.500			
0.4759	30455.64	3.5790	3.5790	-1.4631	26.29	0.32	-1.500			
0.4803	30738.48	3.5760	3.5759	-1.4871	26.29	0.32	-1.500			
0.4848	31027.12	3.5730	3.5730	-1.5091	26.29	0.32	-1.500			
0.4894	31320.08	3.5700	3.5700	-1.5322	26.29	0.32	-1.500			
0.4940	31616.81	3.5670	3.5670	-1.5582	26.30	0.33	-1.500			
0.4987	31918.59	3.5640	3.5640	-1.5712	26.30	0.33	-1.500			
0.5035	32221.09	3.5610	3.5610	-1.5800	26.31	0.34	-1.500			
0.5082	32526.12	3.5580	3.5580	-1.5971	26.31	0.34	-1.500			
0.5130	32835.03	3.5550	3.5552	-1.6094	26.32	0.35	-1.500			
0.5179	33143.85	3.5520	3.5519	-1.6248	26.32	0.35	-1.500			
0.5228	33458.21	3.5490	3.5490	-1.6395	26.33	0.36	-1.500			
0.5277	33774.57	3.5460	3.5460	-1.6484	26.33	0.36	-1.500			
0.5327	34093.53	3.5430	3.5430	-1.6679	26.34	0.37	-1.500			
0.5377	34414.64	3.5400	3.5403	-1.6823	26.34	0.37	-1.500			
0.5427	34735.02	3.5370	3.5369	-1.6992	26.34	0.37	-1.500			
0.5479	35064.57	3.5340	3.5340	-1.7155	26.35	0.38	-1.500			
0.5530	35394.33	3.5310	3.5312	-1.7185	26.35	0.38	-1.500	0.385	0.522	
0.5583	35732.17	3.5280	3.5279	-1.7429	26.36	0.39	-1.500			
0.5635	36065.61	3.5250	3.5251	-1.7447	26.36	0.39	-1.500			
0.5687	36399.32	3.5220	3.5219	-1.7445	26.37	0.40	-1.500			
0.5740	36735.04	3.5190	3.5190	-1.7508	26.38	0.41	-1.500			
0.5792	37068.64	3.5160	3.5161	-1.7494	26.39	0.42	-1.500			
0.5845	37408.93	3.5130	3.5130	-1.7607	26.40	0.43	-1.500			
0.5898	37746.33	3.5100	3.5100	-1.7634	26.41	0.44	-1.500			
0.5951	38084.55	3.5070	3.5070	-1.7726	26.43	0.46	-1.500			
0.6004	38427.65	3.5040	3.5040	-1.7718	26.44	0.47	-1.500			
0.6058	38768.95	3.5010	3.5010	-1.7681	26.45	0.48	-1.500			
0.6111	39109.49	3.4980	3.4980	-1.7625	26.46	0.49	-1.500			
0.6164	39446.89	3.4950	3.4950	-1.7548	26.47	0.50	-1.500			
0.6216	39780.86	3.4920	3.4920	-1.7527	26.48	0.51	-1.500			
0.6268	40117.54	3.4890	3.4890	-1.7540	26.49	0.52	-1.500			
0.6321	40456.57	3.4860	3.4859	-1.7504	26.51	0.54	-1.500			
0.6374	40793.27	3.4830	3.4831	-1.7438	26.52	0.55	-1.500			
0.6426	41128.54	3.4800	3.4800	-1.7239	26.53	0.56	-1.500			
0.6478	41457.84	3.4770	3.4770	-1.7142	26.54	0.57	-1.500			
0.6528	41782.38	3.4740	3.4740	-1.6916	26.56	0.59	-1.500			
0.6579	42107.01	3.4710	3.4710	-1.6860	26.57	0.60	-1.500			
0.6630	42431.24	3.4680	3.4680	-1.6640	26.58	0.61	-1.500			
0.6680	42751.50	3.4650	3.4650	-1.6455	26.60	0.63	-1.500			
0.6729	43065.75	3.4620	3.4620	-1.6252	26.62	0.65	-1.500			
0.6778	43377.40	3.4590	3.4590	-1.6014	26.63	0.66	-1.500			
0.6825	43679.34	3.4560	3.4559	-1.5685	26.65	0.68	-1.500			
0.6872	43978.13	3.4530	3.4531	-1.5494	26.67	0.70	-1.500			
0.6918	44272.21	3.4500	3.4500	-1.5279	26.68	0.71	-1.500			
0.6963	44565.22	3.4470	3.4469	-1.5121	26.70	0.73	-1.500			
0.7008	44853.76	3.4440	3.4440	-1.4884	26.71	0.74	-1.500			
0.7053	45136.08	3.4410	3.4410	-1.4689	26.73	0.76	-1.500			
0.7097	45418.29	3.4380	3.4380	-1.4532	26.74	0.77	-1.500			
0.7140	45695.10	3.4350	3.4350	-1.4372	26.76	0.79	-1.500			
0.7182	45967.89	3.4320	3.4320	-1.4143	26.78	0.81	-1.500			
0.7225	46237.45	3.4290	3.4290	-1.4007	26.80	0.83	-1.500			
0.7266	46503.18	3.4260	3.4260	-1.3934	26.82	0.85	-1.500			
0.7308	46772.11	3.4230	3.4230	-1.3868	26.84	0.87	-1.500			
0.7350	47037.78	3.4200	3.4199	-1.3688	26.85	0.88	-1.500			
0.7391	47300.79	3.4170	3.4170	-1.3536	26.87	0.90	-1.500			
0.7431	47560.67	3.4140	3.4141	-1.3359	26.89	0.92	-1.500			
0.7471	47817.14	3.4110	3.4110	-1.3121	26.91	0.94	-1.500			
0.7510	48064.97	3.4080	3.4079	-1.2831	26.93	0.96	-1.500			
0.7549	48311.02	3.4050	3.4050	-1.2513	26.95	0.98	-1.500			
0.7586	48550.29	3.4020	3.4019	-1.2190	26.97	1.00	-1.500			
0.7622	48781.12	3.3990	3.3992	-1.1787	26.98	1.01	-1.500			
0.7657	49005.20	3.3960	3.3959	-1.1365	27.00	1.03	-1.500			
0.7690	49217.73	3.3930	3.3930	-1.0921	27.02	1.05	-1.500			
0.7722	49423.24	3.3900	3.3900	-1.0583	27.03	1.06	-1.500			
0.7753	49621.92	3.3870	3.3870	-1.0217	27.05	1.08	-1.500			
0.7784	49814.67	3.3840	3.3839	-0.9828	27.07	1.10	-1.500			
0.7812	49999.70	3.3810	3.3811	-0.9465	27.08	1.11	-1.500			
0.7840	50178.06	3.3780	3.3780	-0.9109	27.09	1.12	-1.500			
0.7867	50348.65	3.3750	3.3750	-0.8785	27.11	1.14	-1.500			
0.7893	50512.44	3.3720	3.3719	-0.8436	27.12	1.15	-1.500			
0.7917	50671.88	3.3690	3.3690	-0.8133	27.13	1.16	-1.500			
0.7941	50824.38	3.3660	3.3659	-0.7855	27.15	1.18	-1.500			
0.7964	50971.47	3.3630	3.3630	-0.7596	27.16	1.19	-1.500			
0.7987	51114.66	3.3600	3.3601	-0.7329	27.17	1.20	-1.500			
0.8008	51253.34	3.3570	3.3569	-0.7093	27.18	1.21	-1.500			
0.8029	51386.47	3.3540	3.3540	-0.6844	27.19	1.22	-1.500			
0.8049	51515.73	3.3510	3.3510	-0.6674	27.20	1.23	-1.500			
0.8069	51642.08	3.3480	3.3480	-0.6465	27.21	1.24	-1.500			
0.8088	51763.04	3.3450	3.3449	-0.6259	27.22	1.25	-1.500			
0.8106	51881.29	3.3420	3.3419	-0.6049	27.22	1.25	-1.500			
0.8124	51995.72	3.3390	3.3391	-0.5878	27.23	1.26	-1.500			
0.8142	52107.39	3.3360	3.3360	-0.5699	27.24	1.27	-1.500			
0.8159	52214.72	3.3330	3.3331	-0.5523	27.25	1.28	-1.500			
0.8175	52318.29	3.3300	3.3300	-0.5361	27.26	1.29	-1.500			
0.8191	52419.58	3.3270	3.3270	-0.5223	27.27	1.30	-1.500			
0.8206	52518.18	3.3240	3.3240	-0.5061	27.27	1.30	-1.500			
0.8221	52615.03	3.3210	3.3209	-0.4931	27.28	1.31	-1.500			
0.8236	52707.22	3.3180	3.3181	-0.4775	27.29	1.32	-1.500			
0.8250	52797.29	3.3150	3.3150	-0.4657	27.30	1.33	-1.500			
0.8263	52884.79	3.3120	3.3120	-0.4529	27.31	1.34	-1.500			
0.8277	52970.45	3.3090	3.3089	-0.4395	27.31	1.34	-1.500			
0.8290	53054.00	3.3060	3.3060	-0.4294	27.32	1.35	-1.500			
0.8303	53136.07	3.3030	3.3030	-0.4195	27.33	1.36	-1.500			
0.8315	53215.44	3.3000	3.3000	-0.4075	27.33	1.36	-1.500			
0.8327	53292.55	3.2970	3.2970	-0.3939	27.34	1.37	-1.500			
0.8339	53366.74	3.2940	3.2940	-0.3832	27.34	1.37	-1.500			
0.8350	53439.17	3.2910	3.2910	-0.3727	27.34	1.37	-1.500			
0.8361	53509.72	3.2880	3.2880	-0.3631	27.35	1.38	-1.500			
0.8372	53577.75	3.2850	3.2850	-0.3535	27.35	1.38	-1.500			
0.8382	53644.60	3.2820	3.2820	-0.3461	27.35	1.38	-1.500			
0.8392	53710.14	3.2790	3.2790	-0.3395	27.36	1.39	-1.500			
0.8402	53774.93	3.2760	3.2759	-0.3329	27.37	1.40	-1.500			
0.8412	53838.03	3.2730	3.2730	-0.3261	27.38	1.41	-1.500			
0.8422	53900.35	3.2700	3.2700	-0.3203	27.38	1.41	-1.500			
0.8431	53961.50	3.2670	3.2670	-0.3119	27.39	1.42	-1.500			
0.8441	54020.36	3.2640	3.2640	-0.3039	27.40	1.43	-1.500			
0.8450	54077.89	3.2610	3.2611	-0.2972	27.40	1.43	-1.500			
0.8458	54133.97	3.2580	3.2579	-0.2906	27.41	1.44	-1.500			
0.8467	54189.33	3.2550	3.2550	-0.2842	27.42	1.45	-1.500			
0.8476	54243.21	3.2520	3.2520	-0.2778	27.42	1.45	-1.500			
0.8484	54295.88	3.2490	3.2491	-0.2727	27.43	1.46	-1.500			
0.8492	54347.95	3.2460	3.2460	-0.2679	27.43	1.46	-1.500			
0.8500	54398.27	3.2430	3.2430	-0.2623	27.44	1.47	-1.500			
0.8508	54448.01	3.2400	3.2401	-0.2583	27.44	1.47	-1.500			
0.8515	54497.41	3.2370	3.2370	-0.2535	27.45	1.48	-1.500			
0.8523	54545.61	3.2340	3.2340	-0.2491	27.45	1.48	-1.500			
0.8530	54593.42	3.2310	3.2309	-0.2448	27.46	1.49	-1.500			
0.8537	54639.64	3.2280	3.2282	-0.2405	27.46	1.49	-1.500			
0.8545	54685.30	3.2250	3.2250	-0.2368	27.47	1.50	-1.500			
0.8552	54730.27	3.2220	3.2219	-0.2329	27.47	1.50	-1.500			
0.8559	54774.48	3.2190	3.2190	-0.2288	27.48	1.51	-1.500			
0.8565	54817.98	3.2160	3.2161	-0.2250	27.48	1.51	-1.500			
0.8572	54861.04	3.2130	3.2130	-0.2228	27.49	1.52	-1.500			
0.8579	54903.48	3.2100	3.2101	-0.2193	27.49	1.52	-1.500			
0.8585	54944.98	3.2070	3.2070	-0.2168	27.49	1.52	-1.500			
0.8592	54986.03	3.2040	3.2040	-0.2139	27.50	1.53	-1.500			
0.8598	55027.22	3.2010	3.2010	-0.2111	27.50	1.53	-1.500			
0.8604	55067.50	3.1980	3.1980	-0.2085	27.51	1.54	-1.500			
0.8611	55107.42	3.1950	3.1950	-0.2067	27.51	1.54	-1.500			
0.8617	55147.18	3.1920	3.1921	-0.2035	27.51	1.54	-1.500			
0.8623	55185.90	3.1890	3.1889	-0.1999	27.52	1.55	-1.500			
0.8629	55223.68	3.1860	3.1859	-0.1983	27.52	1.55	-1.500			
0.8635	55261.21	3.1830	3.1831	-0.1959	27.53	1.56	-1.500			
0.8640	55298.64	3.1800	3.1798	-0.1940	27.53	1.56	-1.500			
0.8646	55335.94	3.1770	3.1770	-0.1927	27.54	1.57	-1.500			
0.8652	55372.83	3.1740	3.1741	-0.1899	27.54	1.57	-1.500			
0.8658	55408.93	3.1710	3.1710	-0.1873	27.55	1.58	-1.500			
0.8663	55444.86	3.1680	3.1681	-0.1863	27.55	1.58	-1.500			
0.8669	55480.37	3.1650	3.1650	-0.1836	27.56	1.59	-1.500			
0.8674	55514.92	3.1620	3.1619	-0.1811	27.56	1.59	-1.500			
0.8680	55549.64	3.1590	3.1590	-0.1790	27.57	1.60	-1.500			
0.8685	55583.54	3.1560	3.1561	-0.1777	27.57	1.60	-1.500			
0.8690	55617.54	3.1530	3.1530	-0.1765	27.58	1.61	-1.500			
0.8696	55651.29	3.1500	3.1501	-0.1759	27.58	1.61	-1.500			
0.8701	55685.06	3.1470	3.1469	-0.1739	27.59	1.62	-1.500			
0.8706	55718.36	3.1440	3.1440	-0.1720	27.59	1.62	-1.500			
0.8711	55751.24	3.1410	3.1411	-0.1705	27.60	1.63	-1.500			
0.8716	55784.05	3.1380	3.1381	-0.1693	27.60	1.63	-1.500			
0.8721	55816.44	3.1350	3.1349	-0.1680	27.61	1.64	-1.500			
0.8726	55848.24	3.1320	3.1320	-0.1655	27.61	1.64	-1.500			
0.8731	55879.88	3.1290	3.1290	-0.1642	27.61	1.64	-1.500			
0.8736	55911.13	3.1260	3.1260	-0.1628	27.62	1.65	-1.500			
0.8741	55942.58	3.1230	3.1230	-0.1620	27.62	1.65	-1.500			
0.8746	55973.40	3.1200	3.1200	-0.1607	27.63	1.66	-1.500			
0.8751	56004.12	3.1170	3.1170	-0.1594	27.64	1.67	-1.500			
0.8755	56034.49	3.1140	3.1140	-0.1578	27.64	1.67	-1.500			
0.8760	56064.63	3.1110	3.1111	-0.1566	27.65	1.68	-1.500			
0.8765	56094.62	3.1080	3.1080	-0.1559	27.65	1.68	-1.500			
0.8769	56124.46	3.1050	3.1051	-0.1549	27.66	1.69	-1.500			
0.8774	56153.96	3.1020	3.1020	-0.1540	27.66	1.69	-1.500			
0.8779	56183.39	3.0990	3.0990	-0.1534	27.67	1.70	-1.500			
0.8783	56212.91	3.0960	3.0960	-0.1523	27.67	1.70	-1.500			
0.8788	56242.07	3.0930	3.0930	-0.1514	27.68	1.71	-1.500			
0.8792	56271.33	3.0900	3.0900	-0.1504	27.68	1.71	-1.500			
0.8797	56299.97	3.0870	3.0870	-0.1493	27.69	1.72	-1.500			
0.8801	56328.51	3.0840	3.0840	-0.1480	27.69	1.72	-1.500			
0.8806	56356.81	3.0810	3.0809	-0.1468	27.70	1.73	-1.500			
0.8810	56384.86	3.0780	3.0779	-0.1453	27.70	1.73	-1.500			
0.8814	56412.58	3.0750	3.0750	-0.1440	27.71	1.74	-1.500			
0.8819	56440.13	3.0720	3.0720	-0.1438	27.71	1.74	-1.500			
0.8823	56467.57	3.0690	3.0691	-0.1434	27.72	1.75	-1.500			
0.8827	56495.09	3.0660	3.0659	-0.1424	27.72	1.75	-1.500			
0.8832	56522.23	3.0630	3.0630	-0.1415	27.73	1.76	-1.500			
0.8836	56549.48	3.0600	3.0600	-0.1402	27.74	1.77	-1.500			
0.8840	56576.43	3.0570	3.0571	-0.1398	27.74	1.77	-1.500			
0.8844	56603.29	3.0540	3.0539	-0.1390	27.75	1.78	-1.500			
0.8848	56629.85	3.0510	3.0509	-0.1377	27.75	1.78	-1.500			
0.8853	56656.00	3.0480	3.0480	-0.1361	27.76	1.79	-1.500			
0.8857	56681.86	3.0450	3.0451	-0.1353	27.76	1.79	-1.500			
0.8861	56707.88	3.0420	3.0420	-0.1349	27.77	1.80	-1.500			
0.8865	56733.70	3.0390	3.0390	-0.1341	27.78	1.81	-1.500			
0.8869	56759.29	3.0360	3.0360	-0.1340	27.78	1.81	-1.500			
0.8873	56784.92	3.0330	3.0330	-0.1328	27.79	1.82	-1.500			
0.8877	56810.50	3.0300	3.0299	-0.1326	27.79	1.82	-1.500			
0.8881	56835.93	3.0270	3.0270	-0.1318	27.80	1.83	-1.500			
0.8885	56861.39	3.0240	3.0241	-0.1312	27.80	1.83	-1.500			
0.8889	56886.45	3.0210	3.0211	-0.1300	27.81	1.84	-1.500			
0.8892	56911.39	3.0180	3.0179	-0.1290	27.81	1.84	-1.500			
0.8896	56935.96	3.0150	3.0151	-0.1282	27.82	1.85	-1.500			
0.8900	56960.20	3.0120	3.0120	-0.1270	27.83	1.86	-1.500			
0.8904	56984.74	3.0090	3.0090	-0.1264	27.83	1.86	-1.500			
0.8908	57008.91	3.0060	3.0059	-0.1254	27.84	1.87	-1.500			
0.8911	57032.88	3.0030	3.0030	-0.1261	27.84	1.87	-1.500			
