Ah_balance (normalized)	Ah_balance (mAh)	Voltage - fit (V)	Voltage -  interpolate (V)	dQ/dV (1/V)	Temperature (°C)	Temperature - diff (°C)	Current (C)	R_DC 0ms (mOhm)	R_DC 50ms (mOhm)	R_DC 50 ms PEC (mOhm)
0.2392	15307.07	3.9750	3.9750	0.8707	26.13	0.17	0.750			
0.2418	15473.72	3.9720	3.9721	0.8684	26.13	0.17	0.750			
0.2444	15639.54	3.9690	3.9690	0.8719	26.14	0.18	0.750			
0.2470	15808.42	3.9660	3.9660	0.8765	26.14	0.18	0.750			
0.2497	15978.31	3.9630	3.9629	0.8753	26.14	0.18	0.750			
0.2523	16145.73	3.9600	3.9600	0.8763	26.15	0.19	0.750			
0.2549	16313.89	3.9570	3.9571	0.8794	26.15	0.19	0.750			
0.2575	16482.57	3.9540	3.9539	0.8799	26.16	0.20	0.750			
0.2602	16650.99	3.9510	3.9510	0.8821	26.16	0.20	0.750			
0.2628	16820.27	3.9480	3.9480	0.8850	26.17	0.21	0.750			
0.2655	16991.46	3.9450	3.9450	0.8951	26.17	0.21	0.750			
0.2682	17164.51	3.9420	3.9420	0.8998	26.18	0.22	0.750			
0.2709	17336.99	3.9390	3.9389	0.9010	26.19	0.23	0.750			
0.2736	17511.30	3.9360	3.9361	0.9024	26.19	0.23	0.750			
0.2763	17685.41	3.9330	3.9330	0.9053	26.19	0.23	0.750			
0.2790	17858.67	3.9300	3.9300	0.9056	26.20	0.24	0.750			
0.2818	18032.42	3.9270	3.9270	0.9066	26.20	0.24	0.750			
0.2845	18206.54	3.9240	3.9239	0.9054	26.20	0.24	0.750			
0.2872	18381.13	3.9210	3.9210	0.9031	26.20	0.24	0.750			
0.2899	18553.73	3.9180	3.9181	0.9087	26.21	0.25	0.750			
0.2926	18727.83	3.9150	3.9150	0.9138	26.21	0.25	0.750			
0.2954	18903.22	3.9120	3.9119	0.9150	26.22	0.26	0.750			
0.2981	19080.15	3.9090	3.9090	0.9169	26.22	0.26	0.750			
0.3009	19256.73	3.9060	3.9061	0.9180	26.22	0.26	0.750			
0.3036	19433.47	3.9030	3.9030	0.9212	26.22	0.26	0.750			
0.3064	19610.53	3.9000	3.9000	0.9224	26.22	0.26	0.750			
0.3092	19785.61	3.8970	3.8969	0.9218	26.22	0.26	0.750			
0.3119	19963.44	3.8940	3.8940	0.9219	26.22	0.26	0.750			
0.3147	20140.75	3.8910	3.8910	0.9304	26.22	0.26	0.750			
0.3175	20320.19	3.8880	3.8880	0.9371	26.22	0.26	0.750			
0.3203	20499.52	3.8850	3.8851	0.9396	26.22	0.26	0.750			
0.3231	20681.36	3.8820	3.8820	0.9433	26.22	0.26	0.750			
0.3260	20862.48	3.8790	3.8790	0.9499	26.22	0.26	0.750			
0.3288	21045.73	3.8760	3.8760	0.9557	26.22	0.26	0.750			
0.3317	21230.59	3.8730	3.8730	0.9614	26.22	0.26	0.750			
0.3346	21414.23	3.8700	3.8699	0.9615	26.22	0.26	0.750			
0.3375	21599.98	3.8670	3.8671	0.9652	26.22	0.26	0.750			
0.3404	21785.34	3.8640	3.8640	0.9701	26.22	0.26	0.750			
0.3433	21972.07	3.8610	3.8610	0.9753	26.22	0.26	0.750			
0.3462	22158.32	3.8580	3.8580	0.9806	26.22	0.26	0.750			
0.3492	22347.69	3.8550	3.8550	0.9857	26.22	0.26	0.750			
0.3521	22537.02	3.8520	3.8520	0.9966	26.21	0.25	0.750			
0.3551	22728.85	3.8490	3.8490	1.0072	26.21	0.25	0.750			
0.3582	22924.57	3.8460	3.8460	1.0114	26.20	0.24	0.750			
0.3613	23120.45	3.8430	3.8430	1.0109	26.20	0.24	0.750			
0.3643	23314.51	3.8400	3.8401	1.0189	26.19	0.23	0.750			
0.3673	23509.92	3.8370	3.8370	1.0255	26.19	0.23	0.750			
0.3704	23706.18	3.8340	3.8340	1.0343	26.18	0.22	0.750			
0.3735	23903.72	3.8310	3.8310	1.0412	26.18	0.22	0.750			
0.3766	24104.33	3.8280	3.8281	1.0548	26.17	0.21	0.750			
0.3798	24310.18	3.8250	3.8250	1.0696	26.17	0.21	0.750			
0.3831	24517.89	3.8220	3.8220	1.0821	26.16	0.20	0.750			
0.3863	24724.71	3.8190	3.8190	1.0914	26.16	0.20	0.750			
0.3896	24935.80	3.8160	3.8160	1.1024	26.15	0.19	0.750			
0.3930	25149.37	3.8130	3.8130	1.1123	26.15	0.19	0.750			
0.3963	25365.61	3.8100	3.8100	1.1158	26.14	0.18	0.750			
0.3997	25579.27	3.8070	3.8070	1.1265	26.13	0.17	0.750			
0.4031	25795.41	3.8040	3.8040	1.1380	26.13	0.17	0.750			
0.4065	26013.59	3.8010	3.8010	1.1527	26.12	0.16	0.750			
0.4099	26235.84	3.7980	3.7980	1.1671	26.11	0.15	0.750			
0.4135	26461.14	3.7950	3.7950	1.1919	26.10	0.14	0.750			
0.4171	26693.28	3.7920	3.7921	1.2128	26.10	0.14	0.750			
0.4208	26930.13	3.7890	3.7888	1.2271	26.09	0.13	0.750			
0.4245	27166.35	3.7860	3.7861	1.2393	26.09	0.13	0.750			
0.4282	27405.94	3.7830	3.7831	1.2566	26.08	0.12	0.750			
0.4320	27648.09	3.7800	3.7801	1.2762	26.07	0.11	0.750			
0.4359	27894.44	3.7770	3.7770	1.2959	26.07	0.11	0.750			
0.4397	28143.08	3.7740	3.7740	1.3132	26.06	0.10	0.750			
0.4437	28399.87	3.7710	3.7710	1.3367	26.05	0.09	0.750			
0.4478	28659.91	3.7680	3.7679	1.3631	26.05	0.09	0.750			
0.4519	28921.96	3.7650	3.7651	1.3827	26.04	0.08	0.750			
0.4561	29189.05	3.7620	3.7621	1.4071	26.03	0.07	0.750			
0.4603	29460.95	3.7590	3.7591	1.4354	26.02	0.06	0.750			
0.4647	29738.92	3.7560	3.7560	1.4657	26.02	0.06	0.750			
0.4691	30022.61	3.7530	3.7530	1.4931	26.01	0.05	0.750			
0.4736	30310.77	3.7500	3.7501	1.5278	26.01	0.05	0.750			
0.4783	30609.19	3.7470	3.7470	1.5577	26.00	0.04	0.750			
0.4830	30910.13	3.7440	3.7439	1.5920	26.00	0.04	0.750			
0.4878	31219.05	3.7410	3.7410	1.6206	25.99	0.03	0.750			
0.4927	31532.82	3.7380	3.7380	1.6554	25.97	0.01	0.750			
0.4977	31853.71	3.7350	3.7350	1.6934	25.96	-0.00	0.750			
0.5028	32180.13	3.7320	3.7320	1.7481	25.95	-0.01	0.750			
0.5081	32518.27	3.7290	3.7290	1.7868	25.94	-0.02	0.750			
0.5136	32867.65	3.7260	3.7259	1.8430	25.94	-0.02	0.750			
0.5191	33225.10	3.7230	3.7231	1.8924	25.93	-0.03	0.750			
0.5249	33594.49	3.7200	3.7199	1.9532	25.92	-0.04	0.750			
0.5309	33975.95	3.7170	3.7170	2.0062	25.91	-0.05	0.750			
0.5370	34364.84	3.7140	3.7139	2.0468	25.89	-0.07	0.750	0.349	0.488	
0.5432	34767.70	3.7110	3.7110	2.0946	25.87	-0.09	0.750			
0.5495	35170.52	3.7080	3.7080	2.1298	25.85	-0.11	0.750			
0.5559	35580.32	3.7050	3.7051	2.1834	25.84	-0.12	0.750			
0.5625	36002.55	3.7020	3.7019	2.2317	25.82	-0.14	0.750			
0.5694	36440.73	3.6990	3.6990	2.2964	25.81	-0.15	0.750			
0.5763	36884.15	3.6960	3.6960	2.3469	25.80	-0.16	0.750			
0.5834	37339.90	3.6930	3.6930	2.4125	25.78	-0.18	0.750			
0.5908	37809.23	3.6900	3.6899	2.4575	25.77	-0.19	0.750			
0.5983	38293.05	3.6870	3.6870	2.5556	25.76	-0.20	0.750			
0.6061	38791.88	3.6840	3.6840	2.6100	25.75	-0.21	0.750			
0.6140	39298.85	3.6810	3.6811	2.6468	25.75	-0.21	0.750			
0.6220	39807.26	3.6780	3.6781	2.6677	25.74	-0.22	0.750			
0.6301	40326.67	3.6750	3.6750	2.6398	25.74	-0.22	0.750			
0.6382	40845.84	3.6720	3.6720	2.5990	25.74	-0.22	0.750			
0.6460	41344.45	3.6690	3.6690	2.4964	25.74	-0.22	0.750			
0.6533	41810.48	3.6660	3.6659	2.3185	25.75	-0.21	0.750			
0.6600	42237.03	3.6630	3.6631	2.1254	25.75	-0.21	0.750			
0.6661	42627.22	3.6600	3.6600	1.9542	25.76	-0.20	0.750			
0.6715	42978.45	3.6570	3.6569	1.7895	25.76	-0.20	0.750			
0.6765	43299.11	3.6540	3.6540	1.6366	25.76	-0.20	0.750			
0.6812	43598.24	3.6510	3.6510	1.5405	25.76	-0.20	0.750			
0.6856	43878.18	3.6480	3.6480	1.4535	25.76	-0.20	0.750			
0.6898	44146.97	3.6450	3.6450	1.3865	25.76	-0.20	0.750			
0.6938	44405.78	3.6420	3.6421	1.3292	25.76	-0.20	0.750			
0.6977	44655.85	3.6390	3.6390	1.2854	25.76	-0.20	0.750			
0.7015	44895.97	3.6360	3.6361	1.2456	25.76	-0.20	0.750			
0.7051	45129.25	3.6330	3.6329	1.2142	25.76	-0.20	0.750			
0.7087	45358.47	3.6300	3.6298	1.1876	25.76	-0.20	0.750			
0.7122	45581.31	3.6270	3.6271	1.1768	25.76	-0.20	0.750			
0.7157	45804.80	3.6240	3.6240	1.1765	25.76	-0.20	0.750			
0.7192	46030.87	3.6210	3.6210	1.1767	25.76	-0.20	0.750			
0.7227	46255.54	3.6180	3.6181	1.1729	25.76	-0.20	0.750			
0.7263	46483.03	3.6150	3.6151	1.1779	25.77	-0.19	0.750			
0.7299	46711.86	3.6120	3.6120	1.1772	25.77	-0.19	0.750			
0.7334	46937.54	3.6090	3.6090	1.1770	25.78	-0.18	0.750			
0.7369	47161.35	3.6060	3.6060	1.1706	25.78	-0.18	0.750			
0.7404	47384.53	3.6030	3.6030	1.1784	25.78	-0.18	0.750			
0.7439	47609.49	3.6000	3.6000	1.1908	25.77	-0.19	0.750			
0.7475	47838.14	3.5970	3.5971	1.2066	25.77	-0.19	0.750			
0.7511	48068.73	3.5940	3.5940	1.2368	25.77	-0.19	0.750			
0.7548	48307.56	3.5910	3.5911	1.2705	25.76	-0.20	0.750			
0.7587	48553.70	3.5880	3.5879	1.3093	25.76	-0.20	0.750			
0.7626	48809.30	3.5850	3.5850	1.3506	25.76	-0.20	0.750			
0.7668	49072.92	3.5820	3.5821	1.3915	25.76	-0.20	0.750			
0.7710	49344.88	3.5790	3.5790	1.4333	25.76	-0.20	0.750			
0.7754	49625.28	3.5760	3.5760	1.4628	25.76	-0.20	0.750			
0.7798	49909.99	3.5730	3.5730	1.5020	25.76	-0.20	0.750			
0.7844	50200.96	3.5700	3.5699	1.5387	25.76	-0.20	0.750			
0.7891	50503.24	3.5670	3.5669	1.5606	25.76	-0.20	0.750			
0.7938	50804.33	3.5640	3.5642	1.5924	25.76	-0.20	0.750			
0.7987	51115.21	3.5610	3.5610	1.6117	25.76	-0.20	0.750			
0.8036	51429.78	3.5580	3.5581	1.6166	25.76	-0.20	0.750			
0.8085	51743.92	3.5550	3.5551	1.6211	25.76	-0.20	0.750			
0.8133	52053.20	3.5520	3.5522	1.6070	25.76	-0.20	0.750			
0.8182	52363.85	3.5490	3.5491	1.5964	25.76	-0.20	0.750			
0.8230	52673.39	3.5460	3.5459	1.5830	25.76	-0.20	0.750			
0.8277	52974.29	3.5430	3.5429	1.5286	25.76	-0.20	0.750			
0.8325	53280.44	3.5400	3.5400	1.4359	25.76	-0.20	0.750			
0.8368	53555.35	3.5370	3.5372	1.2937	25.77	-0.19	0.750			
0.8407	53806.36	3.5340	3.5341	1.1256	25.78	-0.18	0.750			
0.8438	54001.31	3.5310	3.5311	0.9400	25.79	-0.17	0.750			
0.8461	54152.71	3.5280	3.5279	0.7478	25.80	-0.16	0.750			
0.8479	54267.18	3.5250	3.5248	0.6059	25.81	-0.15	0.750			
0.8493	54357.91	3.5220	3.5219	0.4860	25.82	-0.14	0.750			
0.8506	54435.88	3.5190	3.5189	0.4201	25.82	-0.14	0.750			
0.8516	54505.17	3.5160	3.5159	0.3688	25.83	-0.13	0.750			
0.8526	54567.49	3.5130	3.5129	0.3366	25.84	-0.12	0.750			
0.8536	54628.60	3.5100	3.5100	0.3168	25.84	-0.12	0.750			
0.8545	54687.02	3.5070	3.5069	0.3009	25.85	-0.11	0.750			
0.8554	54743.45	3.5040	3.5040	0.2890	25.85	-0.11	0.750			
0.8562	54797.09	3.5010	3.5011	0.2787	25.86	-0.10	0.750			
0.8570	54849.62	3.4980	3.4980	0.2702	25.87	-0.09	0.750			
0.8578	54900.24	3.4950	3.4949	0.2623	25.87	-0.09	0.750			
0.8586	54949.54	3.4920	3.4920	0.2561	25.88	-0.08	0.750			
0.8593	54998.26	3.4890	3.4890	0.2505	25.88	-0.08	0.750			
0.8601	55045.89	3.4860	3.4860	0.2453	25.89	-0.07	0.750			
0.8608	55092.77	3.4830	3.4829	0.2400	25.89	-0.07	0.750			
0.8615	55138.22	3.4800	3.4801	0.2340	25.89	-0.07	0.750			
0.8622	55182.49	3.4770	3.4770	0.2288	25.90	-0.06	0.750			
0.8629	55225.89	3.4740	3.4740	0.2233	25.90	-0.06	0.750			
0.8636	55268.03	3.4710	3.4710	0.2189	25.91	-0.05	0.750			
0.8642	55309.20	3.4680	3.4680	0.2140	25.91	-0.05	0.750			
0.8648	55350.14	3.4650	3.4650	0.2100	25.92	-0.04	0.750			
0.8655	55390.04	3.4620	3.4620	0.2056	25.92	-0.04	0.750			
0.8661	55429.13	3.4590	3.4591	0.2011	25.92	-0.04	0.750			
0.8667	55467.61	3.4560	3.4560	0.1963	25.93	-0.03	0.750			
0.8673	55504.64	3.4530	3.4529	0.1916	25.93	-0.03	0.750			
0.8678	55540.97	3.4500	3.4500	0.1868	25.93	-0.03	0.750			
0.8684	55576.20	3.4470	3.4471	0.1820	25.94	-0.02	0.750			
0.8689	55610.64	3.4440	3.4439	0.1776	25.94	-0.02	0.750			
0.8694	55644.38	3.4410	3.4410	0.1732	25.94	-0.02	0.750			
0.8700	55677.20	3.4380	3.4380	0.1688	25.95	-0.01	0.750			
0.8705	55709.14	3.4350	3.4350	0.1645	25.95	-0.01	0.750			
0.8709	55740.49	3.4320	3.4320	0.1602	25.95	-0.01	0.750			
0.8714	55770.65	3.4290	3.4290	0.1554	25.96	-0.00	0.750			
0.8719	55800.06	3.4260	3.4260	0.1511	25.96	0.00	0.750			
0.8723	55828.82	3.4230	3.4230	0.1464	25.96	0.00	0.750			
0.8728	55856.50	3.4200	3.4201	0.1417	25.97	0.01	0.750			
0.8732	55883.40	3.4170	3.4170	0.1367	25.97	0.01	0.750			
0.8736	55909.14	3.4140	3.4140	0.1314	25.97	0.01	0.750			
0.8740	55933.86	3.4110	3.4110	0.1262	25.97	0.01	0.750			
0.8743	55957.68	3.4080	3.4080	0.1210	25.98	0.02	0.750			
0.8747	55980.37	3.4050	3.4050	0.1156	25.98	0.02	0.750			
0.8750	56001.95	3.4020	3.4020	0.1102	25.98	0.02	0.750			
0.8754	56022.89	3.3990	3.3990	0.1042	25.98	0.02	0.750			
0.8757	56042.32	3.3960	3.3961	0.0982	25.98	0.02	0.750			
0.8760	56061.76	3.3930	3.3929	0.0907	25.99	0.03	0.750			
0.8762	56078.34	3.3900	3.3899	0.0820	25.99	0.03	0.750			
0.8765	56093.92	3.3870	3.3871	0.0747	25.99	0.03	0.750			
0.8767	56107.34	3.3840	3.3842	0.0651	25.99	0.03	0.750			
0.8769	56119.53	3.3810	3.3813	0.0557	25.99	0.03	0.750			
0.8770	56129.23	3.3780	3.3785	0.0453	25.99	0.03	0.750			
0.8771	56136.94	3.3750	3.3760	0.0349	25.99	0.03	0.750			
0.8772	56142.64	3.3720	3.3738	0.0245	25.99	0.03	0.750			
