Ah_balance (normalized)	Ah_balance (mAh)	Voltage - fit (V)	Voltage -  interpolate (V)	dQ/dV (1/V)	Temperature (°C)	Temperature - diff (°C)	Current (C)	R_DC 0ms (mOhm)	R_DC 50ms (mOhm)	R_DC 50 ms PEC (mOhm)
0.2396	15335.51	3.9750	3.9750	0.9055	26.14	0.17	0.750			
0.2423	15505.42	3.9720	3.9720	0.8750	26.14	0.17	0.750			
0.2449	15672.51	3.9690	3.9691	0.8728	26.14	0.17	0.750			
0.2475	15840.05	3.9660	3.9659	0.8749	26.14	0.17	0.750			
0.2501	16007.87	3.9630	3.9630	0.8748	26.14	0.17	0.750			
0.2527	16175.47	3.9600	3.9600	0.8778	26.14	0.17	0.750			
0.2554	16345.61	3.9570	3.9570	0.8832	26.14	0.17	0.750			
0.2580	16515.04	3.9540	3.9540	0.8836	26.14	0.17	0.750			
0.2607	16684.31	3.9510	3.9509	0.8852	26.14	0.17	0.750			
0.2634	16855.67	3.9480	3.9480	0.8831	26.14	0.17	0.750			
0.2660	17024.80	3.9450	3.9450	0.8864	26.15	0.18	0.750			
0.2687	17195.10	3.9420	3.9420	0.8905	26.15	0.18	0.750			
0.2713	17365.74	3.9390	3.9390	0.8930	26.16	0.19	0.750			
0.2740	17536.65	3.9360	3.9359	0.8983	26.16	0.19	0.750			
0.2767	17710.72	3.9330	3.9330	0.8993	26.16	0.19	0.750			
0.2794	17884.15	3.9300	3.9300	0.9018	26.16	0.19	0.750			
0.2822	18057.87	3.9270	3.9270	0.9044	26.16	0.19	0.750			
0.2849	18231.60	3.9240	3.9240	0.9004	26.16	0.19	0.750			
0.2876	18405.28	3.9210	3.9209	0.8999	26.16	0.19	0.750			
0.2903	18576.24	3.9180	3.9180	0.9039	26.16	0.19	0.750			
0.2930	18748.97	3.9150	3.9151	0.9107	26.17	0.20	0.750			
0.2957	18924.64	3.9120	3.9120	0.9169	26.17	0.20	0.750			
0.2985	19102.17	3.9090	3.9088	0.9186	26.17	0.20	0.750			
0.3013	19280.64	3.9060	3.9060	0.9156	26.17	0.20	0.750			
0.3040	19457.02	3.9030	3.9031	0.9243	26.17	0.20	0.750			
0.3068	19633.26	3.9000	3.9000	0.9253	26.17	0.20	0.750			
0.3095	19808.77	3.8970	3.8969	0.9230	26.17	0.20	0.750			
0.3123	19987.98	3.8940	3.8940	0.9267	26.17	0.20	0.750			
0.3151	20166.32	3.8910	3.8911	0.9356	26.17	0.20	0.750			
0.3179	20347.17	3.8880	3.8880	0.9406	26.17	0.20	0.750			
0.3208	20529.52	3.8850	3.8850	0.9460	26.17	0.20	0.750			
0.3236	20708.68	3.8820	3.8820	0.9454	26.17	0.20	0.750			
0.3264	20891.88	3.8790	3.8790	0.9473	26.17	0.20	0.750			
0.3293	21073.67	3.8760	3.8760	0.9530	26.17	0.20	0.750			
0.3321	21257.41	3.8730	3.8730	0.9570	26.16	0.19	0.750			
0.3350	21439.71	3.8700	3.8700	0.9600	26.16	0.19	0.750			
0.3379	21627.18	3.8670	3.8670	0.9631	26.16	0.19	0.750			
0.3408	21811.88	3.8640	3.8640	0.9691	26.16	0.19	0.750			
0.3437	21997.87	3.8610	3.8610	0.9737	26.16	0.19	0.750			
0.3466	22184.92	3.8580	3.8581	0.9795	26.16	0.19	0.750			
0.3496	22373.41	3.8550	3.8551	0.9867	26.16	0.19	0.750			
0.3526	22563.96	3.8520	3.8520	0.9943	26.15	0.18	0.750			
0.3556	22755.63	3.8490	3.8490	1.0009	26.15	0.18	0.750			
0.3586	22950.10	3.8460	3.8460	1.0113	26.14	0.17	0.750			
0.3616	23143.83	3.8430	3.8430	1.0158	26.14	0.17	0.750			
0.3647	23339.89	3.8400	3.8400	1.0227	26.13	0.16	0.750			
0.3677	23535.70	3.8370	3.8370	1.0294	26.13	0.16	0.750			
0.3708	23734.07	3.8340	3.8341	1.0402	26.12	0.15	0.750			
0.3740	23936.50	3.8310	3.8309	1.0465	26.12	0.15	0.750			
0.3771	24137.11	3.8280	3.8280	1.0560	26.11	0.14	0.750			
0.3803	24340.14	3.8250	3.8250	1.0653	26.11	0.14	0.750			
0.3835	24545.76	3.8220	3.8221	1.0756	26.10	0.13	0.750			
0.3868	24753.28	3.8190	3.8190	1.0876	26.10	0.13	0.750			
0.3900	24962.83	3.8160	3.8160	1.0988	26.09	0.12	0.750			
0.3933	25174.26	3.8130	3.8130	1.1120	26.09	0.12	0.750			
0.3967	25389.86	3.8100	3.8100	1.1261	26.08	0.11	0.750			
0.4001	25607.53	3.8070	3.8070	1.1304	26.08	0.11	0.750			
0.4035	25824.83	3.8040	3.8041	1.1443	26.07	0.10	0.750			
0.4070	26045.09	3.8010	3.8011	1.1609	26.07	0.10	0.750			
0.4105	26269.89	3.7980	3.7977	1.1687	26.06	0.09	0.750			
0.4140	26494.26	3.7950	3.7950	1.1856	26.05	0.08	0.750			
0.4175	26722.70	3.7920	3.7921	1.2048	26.05	0.08	0.750			
0.4212	26957.97	3.7890	3.7890	1.2238	26.04	0.07	0.750			
0.4249	27193.14	3.7860	3.7859	1.2382	26.04	0.07	0.750			
0.4286	27430.93	3.7830	3.7831	1.2580	26.03	0.06	0.750			
0.4324	27676.31	3.7800	3.7800	1.2802	26.02	0.05	0.750			
0.4364	27926.97	3.7770	3.7769	1.3065	26.01	0.04	0.750			
0.4403	28177.84	3.7740	3.7740	1.3194	26.00	0.03	0.750			
0.4443	28433.44	3.7710	3.7711	1.3409	26.00	0.03	0.750			
0.4483	28692.48	3.7680	3.7679	1.3655	25.99	0.02	0.750			
0.4524	28955.43	3.7650	3.7650	1.3859	25.98	0.01	0.750			
0.4566	29222.60	3.7620	3.7620	1.4110	25.97	-0.00	0.750			
0.4609	29495.92	3.7590	3.7589	1.4419	25.96	-0.01	0.750			
0.4652	29775.76	3.7560	3.7560	1.4702	25.95	-0.02	0.750			
0.4697	30062.74	3.7530	3.7530	1.4934	25.95	-0.02	0.750			
0.4742	30350.89	3.7500	3.7500	1.5241	25.94	-0.03	0.750			
0.4788	30645.12	3.7470	3.7470	1.5622	25.92	-0.05	0.750			
0.4836	30948.87	3.7440	3.7440	1.5930	25.91	-0.06	0.750			
0.4884	31257.76	3.7410	3.7411	1.6316	25.90	-0.07	0.750			
0.4934	31574.60	3.7380	3.7380	1.6736	25.89	-0.08	0.750			
0.4985	31901.74	3.7350	3.7351	1.7182	25.88	-0.09	0.750			
0.5037	32236.94	3.7320	3.7320	1.7607	25.86	-0.11	0.750			
0.5090	32575.90	3.7290	3.7290	1.7931	25.85	-0.12	0.750			
0.5144	32923.25	3.7260	3.7259	1.8369	25.83	-0.14	0.750			
0.5200	33280.99	3.7230	3.7231	1.8945	25.81	-0.16	0.750			
0.5258	33649.00	3.7200	3.7199	1.9362	25.79	-0.18	0.750			
0.5316	34025.46	3.7170	3.7170	1.9964	25.77	-0.20	0.750			
0.5377	34413.59	3.7140	3.7136	2.0414	25.75	-0.22	0.750	0.347	0.487	
0.5439	34812.76	3.7110	3.7109	2.0919	25.73	-0.24	0.750			
0.5503	35216.15	3.7080	3.7080	2.1339	25.72	-0.25	0.750			
0.5567	35628.61	3.7050	3.7050	2.1878	25.71	-0.26	0.750			
0.5634	36055.26	3.7020	3.7020	2.2415	25.70	-0.27	0.750			
0.5702	36490.79	3.6990	3.6990	2.3060	25.68	-0.29	0.750			
0.5772	36937.64	3.6960	3.6961	2.3707	25.67	-0.30	0.750			
0.5843	37395.50	3.6930	3.6930	2.4385	25.66	-0.31	0.750			
0.5918	37875.51	3.6900	3.6899	2.4920	25.65	-0.32	0.750			
0.5994	38359.87	3.6870	3.6870	2.5741	25.64	-0.33	0.750			
0.6072	38859.88	3.6840	3.6840	2.6488	25.64	-0.33	0.750			
0.6153	39380.56	3.6810	3.6810	2.6819	25.64	-0.33	0.750			
0.6234	39897.66	3.6780	3.6782	2.6655	25.64	-0.33	0.750			
0.6314	40410.37	3.6750	3.6750	2.6381	25.64	-0.33	0.750			
0.6394	40920.83	3.6720	3.6719	2.5704	25.65	-0.32	0.750			
0.6471	41416.11	3.6690	3.6690	2.4696	25.66	-0.31	0.750			
0.6544	41880.12	3.6660	3.6660	2.3089	25.66	-0.31	0.750			
0.6610	42305.34	3.6630	3.6631	2.1118	25.66	-0.31	0.750			
0.6669	42684.67	3.6600	3.6600	1.9271	25.67	-0.30	0.750			
0.6724	43032.97	3.6570	3.6570	1.7700	25.67	-0.30	0.750			
0.6774	43351.09	3.6540	3.6539	1.6231	25.67	-0.30	0.750			
0.6820	43649.09	3.6510	3.6510	1.5318	25.68	-0.29	0.750			
0.6863	43925.57	3.6480	3.6480	1.4398	25.68	-0.29	0.750			
0.6905	44191.65	3.6450	3.6450	1.3724	25.69	-0.28	0.750			
0.6945	44447.42	3.6420	3.6420	1.3190	25.69	-0.28	0.750			
0.6984	44697.05	3.6390	3.6389	1.2773	25.70	-0.27	0.750			
0.7021	44934.57	3.6360	3.6360	1.2431	25.71	-0.26	0.750			
0.7058	45168.08	3.6330	3.6330	1.2130	25.71	-0.26	0.750			
0.7093	45397.69	3.6300	3.6300	1.1934	25.72	-0.25	0.750			
0.7129	45624.01	3.6270	3.6270	1.1844	25.72	-0.25	0.750			
0.7164	45848.01	3.6240	3.6240	1.1784	25.72	-0.25	0.750			
0.7199	46073.14	3.6210	3.6210	1.1767	25.72	-0.25	0.750			
0.7234	46298.08	3.6180	3.6179	1.1763	25.72	-0.25	0.750			
0.7269	46524.28	3.6150	3.6150	1.1775	25.72	-0.25	0.750			
0.7305	46752.38	3.6120	3.6120	1.1812	25.72	-0.25	0.750			
0.7341	46979.63	3.6090	3.6090	1.1791	25.72	-0.25	0.750			
0.7376	47204.77	3.6060	3.6060	1.1801	25.72	-0.25	0.750			
0.7411	47429.91	3.6030	3.6031	1.1866	25.73	-0.24	0.750			
0.7447	47658.03	3.6000	3.6000	1.1979	25.73	-0.24	0.750			
0.7482	47887.09	3.5970	3.5970	1.2102	25.74	-0.23	0.750			
0.7518	48118.24	3.5940	3.5941	1.2394	25.74	-0.23	0.750			
0.7556	48356.94	3.5910	3.5910	1.2740	25.75	-0.22	0.750			
0.7595	48605.16	3.5880	3.5879	1.3108	25.75	-0.22	0.750			
0.7634	48858.71	3.5850	3.5850	1.3491	25.75	-0.22	0.750			
0.7675	49122.07	3.5820	3.5820	1.3981	25.74	-0.23	0.750			
0.7718	49394.76	3.5790	3.5790	1.4387	25.74	-0.23	0.750			
0.7762	49677.96	3.5760	3.5760	1.4722	25.74	-0.23	0.750			
0.7807	49966.10	3.5730	3.5730	1.5074	25.74	-0.23	0.750			
0.7853	50257.34	3.5700	3.5699	1.5440	25.74	-0.23	0.750			
0.7900	50557.52	3.5670	3.5671	1.5702	25.74	-0.23	0.750			
0.7947	50863.89	3.5640	3.5640	1.5893	25.74	-0.23	0.750			
0.7995	51171.09	3.5610	3.5610	1.6134	25.74	-0.23	0.750			
0.8045	51485.56	3.5580	3.5578	1.6179	25.74	-0.23	0.750			
0.8094	51802.36	3.5550	3.5550	1.6328	25.74	-0.23	0.750			
0.8143	52114.73	3.5520	3.5519	1.6224	25.75	-0.22	0.750			
0.8192	52427.36	3.5490	3.5491	1.6084	25.75	-0.22	0.750			
0.8240	52738.79	3.5460	3.5459	1.5804	25.76	-0.21	0.750			
0.8289	53052.17	3.5430	3.5429	1.5142	25.77	-0.20	0.750			
0.8335	53346.80	3.5400	3.5400	1.4181	25.78	-0.19	0.750			
0.8378	53620.91	3.5370	3.5370	1.2620	25.79	-0.18	0.750			
0.8415	53857.40	3.5340	3.5341	1.0888	25.80	-0.17	0.750			
0.8445	54046.21	3.5310	3.5311	0.9026	25.81	-0.16	0.750			
0.8468	54193.41	3.5280	3.5279	0.7192	25.82	-0.15	0.750			
0.8484	54299.00	3.5250	3.5250	0.5731	25.82	-0.15	0.750			
0.8498	54389.91	3.5220	3.5218	0.4722	25.83	-0.14	0.750			
0.8510	54461.04	3.5190	3.5190	0.4014	25.83	-0.14	0.750			
0.8521	54531.41	3.5160	3.5159	0.3617	25.84	-0.13	0.750			
0.8530	54594.11	3.5130	3.5129	0.3330	25.84	-0.13	0.750			
0.8540	54654.89	3.5100	3.5100	0.3148	25.85	-0.12	0.750			
0.8549	54712.48	3.5070	3.5070	0.2990	25.85	-0.12	0.750			
0.8558	54768.32	3.5040	3.5040	0.2874	25.86	-0.11	0.750			
0.8566	54821.46	3.5010	3.5010	0.2774	25.86	-0.11	0.750			
0.8574	54873.96	3.4980	3.4980	0.2703	25.86	-0.11	0.750			
0.8582	54925.08	3.4950	3.4950	0.2635	25.87	-0.10	0.750			
0.8590	54974.69	3.4920	3.4920	0.2575	25.87	-0.10	0.750			
0.8597	55023.59	3.4890	3.4890	0.2516	25.88	-0.09	0.750			
0.8605	55071.31	3.4860	3.4860	0.2454	25.88	-0.09	0.750			
0.8612	55118.02	3.4830	3.4829	0.2401	25.88	-0.09	0.750			
0.8619	55163.49	3.4800	3.4800	0.2341	25.89	-0.08	0.750			
0.8626	55207.81	3.4770	3.4770	0.2289	25.89	-0.08	0.750			
0.8633	55251.23	3.4740	3.4740	0.2241	25.90	-0.07	0.750			
0.8640	55293.59	3.4710	3.4710	0.2192	25.90	-0.07	0.750			
0.8646	55334.86	3.4680	3.4680	0.2144	25.91	-0.06	0.750			
0.8652	55375.78	3.4650	3.4650	0.2105	25.91	-0.06	0.750			
0.8659	55415.83	3.4620	3.4620	0.2064	25.92	-0.05	0.750			
0.8665	55454.97	3.4590	3.4590	0.2020	25.92	-0.05	0.750			
0.8671	55493.36	3.4560	3.4560	0.1979	25.93	-0.04	0.750			
0.8677	55531.07	3.4530	3.4530	0.1932	25.93	-0.04	0.750			
0.8682	55567.73	3.4500	3.4500	0.1890	25.93	-0.04	0.750			
0.8688	55603.49	3.4470	3.4471	0.1849	25.94	-0.03	0.750			
0.8694	55638.59	3.4440	3.4440	0.1807	25.94	-0.03	0.750			
0.8699	55672.91	3.4410	3.4409	0.1757	25.95	-0.02	0.750			
0.8704	55706.22	3.4380	3.4380	0.1713	25.95	-0.02	0.750			
0.8709	55738.86	3.4350	3.4350	0.1666	25.95	-0.02	0.750			
0.8714	55770.37	3.4320	3.4321	0.1616	25.96	-0.01	0.750			
0.8719	55801.11	3.4290	3.4289	0.1568	25.96	-0.01	0.750			
0.8723	55830.38	3.4260	3.4261	0.1522	25.96	-0.01	0.750			
0.8728	55859.02	3.4230	3.4230	0.1474	25.97	-0.00	0.750			
0.8732	55886.94	3.4200	3.4200	0.1434	25.97	0.00	0.750			
0.8737	55914.33	3.4170	3.4169	0.1385	25.97	0.00	0.750			
0.8741	55940.52	3.4140	3.4141	0.1335	25.98	0.01	0.750			
0.8745	55965.94	3.4110	3.4110	0.1291	25.98	0.01	0.750			
0.8748	55990.30	3.4080	3.4080	0.1233	25.98	0.01	0.750			
0.8752	56013.56	3.4050	3.4050	0.1177	25.99	0.02	0.750			
0.8756	56035.60	3.4020	3.4019	0.1112	25.99	0.02	0.750			
0.8759	56056.48	3.3990	3.3990	0.1054	25.99	0.02	0.750			
0.8762	56076.11	3.3960	3.3962	0.0990	25.99	0.02	0.750			
0.8765	56095.67	3.3930	3.3928	0.0911	25.99	0.02	0.750			
0.8768	56112.29	3.3900	3.3900	0.0821	26.00	0.03	0.750			
0.8770	56127.73	3.3870	3.3871	0.0741	26.00	0.03	0.750			
0.8772	56141.03	3.3840	3.3843	0.0644	26.00	0.03	0.750			
0.8774	56153.47	3.3810	3.3814	0.0551	26.00	0.03	0.750			
0.8775	56162.99	3.3780	3.3787	0.0441	26.00	0.03	0.750			
0.8777	56170.41	3.3750	3.3762	0.0331	26.00	0.03	0.750			
0.8777	56175.71	3.3720	3.3736	0.0221	26.00	0.03	0.750			
