Ah_balance (normalized)	Ah_balance (mAh)	Voltage - fit (V)	Voltage -  interpolate (V)	dQ/dV (1/V)	Temperature (°C)	Temperature - diff (°C)	Current (C)	R_DC 0ms (mOhm)	R_DC 50ms (mOhm)	R_DC 50 ms PEC (mOhm)
0.2394	15321.93	3.9730	3.9730	0.8560	25.93	0.00	0.750			
0.2420	15489.52	3.9700	3.9700	0.8725	25.94	0.01	0.750			
0.2446	15657.41	3.9670	3.9670	0.8737	25.94	0.01	0.750			
0.2473	15825.00	3.9640	3.9640	0.8746	25.95	0.02	0.750			
0.2499	15993.24	3.9610	3.9611	0.8767	25.95	0.02	0.750			
0.2525	16161.47	3.9580	3.9580	0.8784	25.96	0.03	0.750			
0.2552	16330.18	3.9550	3.9549	0.8791	25.96	0.03	0.750			
0.2578	16499.50	3.9520	3.9520	0.8775	25.97	0.04	0.750			
0.2604	16667.89	3.9490	3.9490	0.8829	25.97	0.04	0.750			
0.2631	16837.33	3.9460	3.9460	0.8874	25.98	0.05	0.750			
0.2657	17007.94	3.9430	3.9430	0.8908	25.98	0.05	0.750			
0.2684	17178.84	3.9400	3.9399	0.8950	25.99	0.06	0.750			
0.2711	17351.33	3.9370	3.9370	0.9005	25.99	0.06	0.750			
0.2738	17526.11	3.9340	3.9340	0.9044	26.00	0.07	0.750			
0.2766	17700.44	3.9310	3.9310	0.9051	26.00	0.07	0.750			
0.2793	17873.91	3.9280	3.9280	0.9012	26.01	0.08	0.750			
0.2820	18047.04	3.9250	3.9250	0.9040	26.01	0.08	0.750			
0.2847	18220.57	3.9220	3.9220	0.9021	26.02	0.09	0.750			
0.2874	18392.23	3.9190	3.9190	0.9041	26.02	0.09	0.750			
0.2901	18565.33	3.9160	3.9160	0.9070	26.03	0.10	0.750			
0.2928	18740.43	3.9130	3.9129	0.9104	26.03	0.10	0.750			
0.2956	18916.25	3.9100	3.9100	0.9129	26.03	0.10	0.750			
0.2983	19091.38	3.9070	3.9071	0.9184	26.03	0.10	0.750			
0.3010	19267.09	3.9040	3.9040	0.9240	26.04	0.11	0.750			
0.3038	19445.72	3.9010	3.9010	0.9284	26.04	0.11	0.750			
0.3066	19624.70	3.8980	3.8979	0.9320	26.04	0.11	0.750			
0.3094	19804.54	3.8950	3.8951	0.9344	26.05	0.12	0.750			
0.3123	19984.07	3.8920	3.8921	0.9392	26.05	0.12	0.750			
0.3151	20165.84	3.8890	3.8890	0.9388	26.06	0.13	0.750			
0.3179	20345.11	3.8860	3.8859	0.9383	26.06	0.13	0.750			
0.3207	20524.90	3.8830	3.8830	0.9363	26.06	0.13	0.750			
0.3235	20704.15	3.8800	3.8801	0.9455	26.06	0.13	0.750			
0.3263	20885.91	3.8770	3.8770	0.9553	26.05	0.12	0.750			
0.3292	21069.23	3.8740	3.8739	0.9602	26.05	0.12	0.750			
0.3321	21257.22	3.8710	3.8710	0.9598	26.05	0.12	0.750			
0.3351	21443.34	3.8680	3.8681	0.9702	26.05	0.12	0.750			
0.3379	21628.67	3.8650	3.8651	0.9732	26.04	0.11	0.750			
0.3409	21816.29	3.8620	3.8620	0.9771	26.04	0.11	0.750			
0.3438	22001.29	3.8590	3.8591	0.9797	26.04	0.11	0.750			
0.3467	22189.89	3.8560	3.8561	0.9863	26.04	0.11	0.750			
0.3497	22381.13	3.8530	3.8530	0.9964	26.04	0.11	0.750			
0.3527	22574.57	3.8500	3.8500	1.0040	26.04	0.11	0.750			
0.3557	22767.65	3.8470	3.8469	1.0071	26.04	0.11	0.750			
0.3588	22961.81	3.8440	3.8440	1.0103	26.03	0.10	0.750			
0.3618	23156.50	3.8410	3.8411	1.0184	26.03	0.10	0.750			
0.3649	23351.37	3.8380	3.8380	1.0244	26.03	0.10	0.750			
0.3680	23548.89	3.8350	3.8348	1.0360	26.02	0.09	0.750			
0.3711	23747.23	3.8320	3.8320	1.0417	26.02	0.09	0.750			
0.3742	23948.03	3.8290	3.8290	1.0528	26.02	0.09	0.750			
0.3774	24151.89	3.8260	3.8260	1.0645	26.01	0.08	0.750			
0.3806	24357.96	3.8230	3.8228	1.0731	26.01	0.08	0.750			
0.3838	24563.64	3.8200	3.8201	1.0829	26.01	0.08	0.750			
0.3871	24772.83	3.8170	3.8170	1.0958	26.00	0.07	0.750			
0.3904	24983.94	3.8140	3.8140	1.1084	26.00	0.07	0.750			
0.3937	25199.08	3.8110	3.8110	1.1111	26.00	0.07	0.750			
0.3971	25412.91	3.8080	3.8080	1.1321	26.00	0.07	0.750			
0.4005	25631.52	3.8050	3.8050	1.1479	25.99	0.06	0.750			
0.4040	25853.72	3.8020	3.8020	1.1626	25.99	0.06	0.750			
0.4075	26077.55	3.7990	3.7991	1.1755	25.99	0.06	0.750			
0.4110	26304.71	3.7960	3.7960	1.1916	25.99	0.06	0.750			
0.4146	26535.43	3.7930	3.7930	1.2057	25.98	0.05	0.750			
0.4183	26771.13	3.7900	3.7900	1.2159	25.98	0.05	0.750			
0.4219	27001.02	3.7870	3.7871	1.2323	25.97	0.04	0.750			
0.4256	27239.16	3.7840	3.7840	1.2585	25.97	0.04	0.750			
0.4295	27484.82	3.7810	3.7809	1.2709	25.96	0.03	0.750			
0.4333	27729.73	3.7780	3.7780	1.2948	25.96	0.03	0.750			
0.4372	27979.46	3.7750	3.7751	1.3190	25.95	0.02	0.750			
0.4412	28236.49	3.7720	3.7721	1.3380	25.94	0.01	0.750			
0.4452	28495.49	3.7690	3.7690	1.3656	25.94	0.01	0.750			
0.4493	28757.36	3.7660	3.7661	1.3862	25.93	-0.00	0.750			
0.4536	29027.48	3.7630	3.7630	1.4089	25.92	-0.01	0.750			
0.4578	29302.02	3.7600	3.7600	1.4461	25.92	-0.01	0.750			
0.4622	29580.21	3.7570	3.7571	1.4635	25.91	-0.02	0.750			
0.4666	29863.17	3.7540	3.7539	1.4886	25.90	-0.03	0.750			
0.4711	30151.56	3.7510	3.7511	1.5197	25.90	-0.03	0.750			
0.4757	30443.84	3.7480	3.7481	1.5443	25.89	-0.04	0.750			
0.4803	30742.06	3.7450	3.7448	1.5850	25.88	-0.05	0.750			
0.4852	31050.08	3.7420	3.7421	1.6122	25.87	-0.06	0.750			
0.4901	31363.65	3.7390	3.7390	1.6528	25.86	-0.07	0.750			
0.4951	31687.14	3.7360	3.7360	1.6942	25.86	-0.07	0.750			
0.5002	32011.37	3.7330	3.7331	1.7267	25.85	-0.08	0.750			
0.5054	32347.91	3.7300	3.7300	1.7773	25.84	-0.09	0.750			
0.5108	32693.23	3.7270	3.7270	1.8216	25.83	-0.10	0.750			
0.5163	33046.24	3.7240	3.7240	1.8674	25.82	-0.11	0.750			
0.5221	33411.37	3.7210	3.7210	1.9293	25.81	-0.12	0.750			
0.5279	33786.07	3.7180	3.7180	1.9695	25.79	-0.14	0.750			
0.5338	34165.94	3.7150	3.7150	2.0295	25.78	-0.15	0.750			
0.5401	34563.49	3.7120	3.7120	2.0848	25.77	-0.16	0.750	0.352	0.491	
0.5464	34972.00	3.7090	3.7089	2.1339	25.76	-0.17	0.750			
0.5529	35386.02	3.7060	3.7061	2.1788	25.75	-0.18	0.750			
0.5595	35809.66	3.7030	3.7030	2.2439	25.73	-0.20	0.750			
0.5663	36245.99	3.7000	3.6999	2.2853	25.72	-0.21	0.750			
0.5733	36688.34	3.6970	3.6971	2.3500	25.71	-0.22	0.750			
0.5804	37145.58	3.6940	3.6941	2.3960	25.70	-0.23	0.750			
0.5877	37611.29	3.6910	3.6910	2.4444	25.69	-0.24	0.750			
0.5950	38081.51	3.6880	3.6880	2.5212	25.69	-0.24	0.750			
0.6027	38575.28	3.6850	3.6850	2.5992	25.67	-0.26	0.750			
0.6107	39084.16	3.6820	3.6821	2.6514	25.67	-0.26	0.750			
0.6187	39598.30	3.6790	3.6790	2.6733	25.66	-0.27	0.750			
0.6267	40111.75	3.6760	3.6760	2.6878	25.65	-0.28	0.750			
0.6349	40633.35	3.6730	3.6729	2.6535	25.65	-0.28	0.750			
0.6429	41144.16	3.6700	3.6700	2.5578	25.64	-0.29	0.750			
0.6505	41631.41	3.6670	3.6670	2.4186	25.65	-0.28	0.750			
0.6574	42076.32	3.6640	3.6640	2.2302	25.65	-0.28	0.750			
0.6638	42483.87	3.6610	3.6610	2.0387	25.66	-0.27	0.750			
0.6697	42861.53	3.6580	3.6580	1.8823	25.66	-0.27	0.750			
0.6751	43205.72	3.6550	3.6549	1.7417	25.67	-0.26	0.750			
0.6799	43514.08	3.6520	3.6519	1.6157	25.68	-0.25	0.750			
0.6846	43812.30	3.6490	3.6489	1.5138	25.68	-0.25	0.750			
0.6889	44087.88	3.6460	3.6460	1.4338	25.69	-0.24	0.750			
0.6930	44353.61	3.6430	3.6430	1.3563	25.69	-0.24	0.750			
0.6969	44604.52	3.6400	3.6401	1.3095	25.70	-0.23	0.750			
0.7008	44850.02	3.6370	3.6371	1.2689	25.70	-0.23	0.750			
0.7045	45086.69	3.6340	3.6339	1.2368	25.71	-0.22	0.750			
0.7081	45318.63	3.6310	3.6311	1.2160	25.71	-0.22	0.750			
0.7117	45549.04	3.6280	3.6280	1.2034	25.71	-0.22	0.750			
0.7153	45776.66	3.6250	3.6250	1.1964	25.72	-0.21	0.750			
0.7189	46007.07	3.6220	3.6220	1.1820	25.72	-0.21	0.750			
0.7224	46233.48	3.6190	3.6190	1.1761	25.72	-0.21	0.750			
0.7259	46459.15	3.6160	3.6160	1.1720	25.72	-0.21	0.750			
0.7294	46683.32	3.6130	3.6130	1.1657	25.72	-0.21	0.750			
0.7329	46904.85	3.6100	3.6100	1.1660	25.72	-0.21	0.750			
0.7364	47127.27	3.6070	3.6070	1.1680	25.72	-0.21	0.750			
0.7399	47351.01	3.6040	3.6040	1.1750	25.73	-0.20	0.750			
0.7434	47577.30	3.6010	3.6010	1.1824	25.73	-0.20	0.750			
0.7470	47804.92	3.5980	3.5981	1.1970	25.73	-0.20	0.750			
0.7505	48033.68	3.5950	3.5949	1.2207	25.74	-0.19	0.750			
0.7542	48270.18	3.5920	3.5920	1.2460	25.74	-0.19	0.750			
0.7580	48509.56	3.5890	3.5890	1.2777	25.74	-0.19	0.750			
0.7618	48756.33	3.5860	3.5860	1.3209	25.74	-0.19	0.750			
0.7659	49015.05	3.5830	3.5830	1.3586	25.74	-0.19	0.750			
0.7700	49282.16	3.5800	3.5800	1.3967	25.74	-0.19	0.750			
0.7743	49553.56	3.5770	3.5770	1.4395	25.74	-0.19	0.750			
0.7786	49832.38	3.5740	3.5741	1.4734	25.74	-0.19	0.750			
0.7832	50122.01	3.5710	3.5711	1.5060	25.74	-0.19	0.750			
0.7877	50413.15	3.5680	3.5679	1.5397	25.75	-0.18	0.750			
0.7924	50711.56	3.5650	3.5651	1.5717	25.75	-0.18	0.750			
0.7972	51017.64	3.5620	3.5621	1.5923	25.75	-0.18	0.750			
0.8020	51328.47	3.5590	3.5591	1.6063	25.75	-0.18	0.750			
0.8069	51641.51	3.5560	3.5560	1.6061	25.75	-0.18	0.750			
0.8118	51954.03	3.5530	3.5529	1.6056	25.76	-0.17	0.750			
0.8166	52263.82	3.5500	3.5500	1.5881	25.76	-0.17	0.750			
0.8213	52562.61	3.5470	3.5471	1.5759	25.76	-0.17	0.750			
0.8261	52872.76	3.5440	3.5439	1.5392	25.77	-0.16	0.750			
0.8308	53171.82	3.5410	3.5409	1.4816	25.77	-0.16	0.750			
0.8354	53465.29	3.5380	3.5381	1.3655	25.78	-0.15	0.750			
0.8396	53732.45	3.5350	3.5351	1.2319	25.78	-0.15	0.750			
0.8430	53953.53	3.5320	3.5321	1.0430	25.79	-0.14	0.750			
0.8459	54134.81	3.5290	3.5290	0.8523	25.81	-0.12	0.750			
0.8478	54261.92	3.5260	3.5260	0.6783	25.82	-0.11	0.750			
0.8495	54370.19	3.5230	3.5228	0.5491	25.83	-0.10	0.750			
0.8508	54452.00	3.5200	3.5200	0.4554	25.83	-0.10	0.750			
0.8520	54528.82	3.5170	3.5169	0.3984	25.84	-0.09	0.750			
0.8531	54596.32	3.5140	3.5140	0.3562	25.85	-0.08	0.750			
0.8541	54659.74	3.5110	3.5109	0.3313	25.85	-0.08	0.750			
0.8550	54719.65	3.5080	3.5080	0.3112	25.86	-0.07	0.750			
0.8559	54776.61	3.5050	3.5050	0.2978	25.86	-0.07	0.750			
0.8568	54832.30	3.5020	3.5020	0.2862	25.87	-0.06	0.750			
0.8576	54885.89	3.4990	3.4990	0.2762	25.87	-0.06	0.750			
0.8584	54937.77	3.4960	3.4961	0.2680	25.88	-0.05	0.750			
0.8592	54988.34	3.4930	3.4930	0.2605	25.88	-0.05	0.750			
0.8600	55037.45	3.4900	3.4899	0.2533	25.89	-0.04	0.750			
0.8607	55085.08	3.4870	3.4870	0.2460	25.89	-0.04	0.750			
0.8614	55131.40	3.4840	3.4840	0.2404	25.89	-0.04	0.750			
0.8621	55177.30	3.4810	3.4810	0.2353	25.90	-0.03	0.750			
0.8628	55221.92	3.4780	3.4779	0.2302	25.90	-0.03	0.750			
0.8635	55265.37	3.4750	3.4750	0.2246	25.91	-0.02	0.750			
0.8642	55307.98	3.4720	3.4720	0.2189	25.91	-0.02	0.750			
0.8648	55349.55	3.4690	3.4690	0.2145	25.91	-0.02	0.750			
0.8655	55390.17	3.4660	3.4660	0.2096	25.92	-0.01	0.750			
0.8661	55429.96	3.4630	3.4630	0.2048	25.92	-0.01	0.750			
0.8667	55468.66	3.4600	3.4599	0.1997	25.92	-0.01	0.750			
0.8673	55506.65	3.4570	3.4570	0.1952	25.93	-0.00	0.750			
0.8679	55543.55	3.4540	3.4540	0.1906	25.93	-0.00	0.750			
0.8684	55579.71	3.4510	3.4511	0.1862	25.93	0.00	0.750			
0.8690	55615.22	3.4480	3.4479	0.1816	25.94	0.01	0.750			
0.8695	55649.49	3.4450	3.4450	0.1765	25.94	0.01	0.750			
0.8700	55683.14	3.4420	3.4420	0.1716	25.94	0.01	0.750			
0.8706	55715.59	3.4390	3.4391	0.1665	25.94	0.01	0.750			
0.8710	55747.07	3.4360	3.4360	0.1623	25.95	0.02	0.750			
0.8715	55777.71	3.4330	3.4330	0.1574	25.95	0.02	0.750			
0.8720	55807.36	3.4300	3.4300	0.1524	25.95	0.02	0.750			
0.8724	55836.19	3.4270	3.4270	0.1479	25.96	0.03	0.750			
0.8729	55864.21	3.4240	3.4241	0.1433	25.96	0.03	0.750			
0.8733	55891.38	3.4210	3.4210	0.1388	25.96	0.03	0.750			
0.8737	55917.70	3.4180	3.4180	0.1343	25.96	0.03	0.750			
0.8741	55942.97	3.4150	3.4150	0.1293	25.96	0.03	0.750			
0.8745	55967.08	3.4120	3.4121	0.1240	25.97	0.04	0.750			
0.8749	55990.68	3.4090	3.4089	0.1192	25.97	0.04	0.750			
0.8752	56013.12	3.4060	3.4060	0.1141	25.97	0.04	0.750			
0.8755	56034.76	3.4030	3.4030	0.1083	25.97	0.04	0.750			
0.8759	56055.15	3.4000	3.4000	0.1029	25.97	0.04	0.750			
0.8762	56074.33	3.3970	3.3970	0.0968	25.98	0.05	0.750			
0.8765	56093.27	3.3940	3.3939	0.0894	25.98	0.05	0.750			
0.8767	56109.65	3.3910	3.3911	0.0812	25.98	0.05	0.750			
0.8770	56125.02	3.3880	3.3881	0.0741	25.98	0.05	0.750			
0.8772	56138.41	3.3850	3.3851	0.0653	25.98	0.05	0.750			
0.8774	56150.62	3.3820	3.3824	0.0566	25.98	0.05	0.750			
0.8775	56160.58	3.3790	3.3797	0.0471	25.98	0.05	0.750			
0.8776	56168.72	3.3760	3.3771	0.0376	25.98	0.05	0.750			
0.8777	56175.04	3.3730	3.3746	0.0282	25.98	0.05	0.750			
