Ah_balance (normalized)	Ah_balance (mAh)	Voltage - fit (V)	Voltage -  interpolate (V)	dQ/dV (1/V)	Temperature (°C)	Temperature - diff (°C)	Current (C)	R_DC 0ms (mOhm)	R_DC 50ms (mOhm)	R_DC 50 ms PEC (mOhm)
0.2414	15450.21	3.9740	3.9740	0.8412	25.90	-0.06	0.750			
0.2440	15614.55	3.9710	3.9709	0.8615	25.90	-0.06	0.750			
0.2466	15782.73	3.9680	3.9681	0.8719	25.90	-0.06	0.750			
0.2492	15951.06	3.9650	3.9650	0.8738	25.90	-0.06	0.750			
0.2519	16120.26	3.9620	3.9620	0.8765	25.90	-0.06	0.750			
0.2545	16288.87	3.9590	3.9590	0.8791	25.90	-0.06	0.750			
0.2571	16456.43	3.9560	3.9558	0.8777	25.90	-0.06	0.750			
0.2598	16624.51	3.9530	3.9531	0.8776	25.90	-0.06	0.750			
0.2624	16792.93	3.9500	3.9500	0.8831	25.90	-0.06	0.750			
0.2651	16963.76	3.9470	3.9470	0.8888	25.90	-0.06	0.750			
0.2677	17135.26	3.9440	3.9439	0.8896	25.90	-0.06	0.750			
0.2704	17306.32	3.9410	3.9410	0.8903	25.90	-0.06	0.750			
0.2731	17477.41	3.9380	3.9380	0.8901	25.90	-0.06	0.750			
0.2757	17648.00	3.9350	3.9350	0.8944	25.90	-0.06	0.750			
0.2784	17819.98	3.9320	3.9320	0.8949	25.90	-0.06	0.750			
0.2811	17991.46	3.9290	3.9289	0.8929	25.90	-0.06	0.750			
0.2838	18162.92	3.9260	3.9260	0.8975	25.90	-0.06	0.750			
0.2865	18335.65	3.9230	3.9230	0.8986	25.90	-0.06	0.750			
0.2892	18506.83	3.9200	3.9200	0.9041	25.90	-0.06	0.750			
0.2919	18680.59	3.9170	3.9170	0.9073	25.90	-0.06	0.750			
0.2946	18854.50	3.9140	3.9138	0.9141	25.90	-0.06	0.750			
0.2974	19033.37	3.9110	3.9110	0.9144	25.90	-0.06	0.750			
0.3001	19208.92	3.9080	3.9081	0.9177	25.90	-0.06	0.750			
0.3029	19384.74	3.9050	3.9050	0.9231	25.90	-0.06	0.750			
0.3057	19562.26	3.9020	3.9021	0.9205	25.90	-0.06	0.750			
0.3084	19739.32	3.8990	3.8989	0.9230	25.90	-0.06	0.750			
0.3112	19916.99	3.8960	3.8961	0.9222	25.89	-0.07	0.750			
0.3140	20093.97	3.8930	3.8931	0.9257	25.89	-0.07	0.750			
0.3167	20271.97	3.8900	3.8900	0.9332	25.88	-0.08	0.750			
0.3195	20450.53	3.8870	3.8869	0.9372	25.88	-0.08	0.750			
0.3223	20630.12	3.8840	3.8840	0.9393	25.88	-0.08	0.750			
0.3252	20813.03	3.8810	3.8810	0.9487	25.88	-0.08	0.750			
0.3281	20997.11	3.8780	3.8781	0.9548	25.88	-0.08	0.750			
0.3310	21180.97	3.8750	3.8750	0.9558	25.88	-0.08	0.750			
0.3338	21365.13	3.8720	3.8720	0.9554	25.88	-0.08	0.750			
0.3367	21547.39	3.8690	3.8690	0.9581	25.87	-0.09	0.750			
0.3396	21731.58	3.8660	3.8660	0.9650	25.87	-0.09	0.750			
0.3425	21917.54	3.8630	3.8630	0.9729	25.86	-0.10	0.750			
0.3454	22104.56	3.8600	3.8601	0.9780	25.86	-0.10	0.750			
0.3483	22292.61	3.8570	3.8570	0.9827	25.86	-0.10	0.750			
0.3513	22482.24	3.8540	3.8540	0.9904	25.86	-0.10	0.750			
0.3543	22673.01	3.8510	3.8510	0.9978	25.86	-0.10	0.750			
0.3572	22863.96	3.8480	3.8477	1.0026	25.86	-0.10	0.750			
0.3603	23057.61	3.8450	3.8450	1.0113	25.86	-0.10	0.750			
0.3633	23253.07	3.8420	3.8420	1.0195	25.86	-0.10	0.750			
0.3664	23450.66	3.8390	3.8390	1.0267	25.86	-0.10	0.750			
0.3695	23648.51	3.8360	3.8359	1.0331	25.86	-0.10	0.750			
0.3726	23845.85	3.8330	3.8330	1.0393	25.86	-0.10	0.750			
0.3757	24046.24	3.8300	3.8300	1.0458	25.85	-0.11	0.750			
0.3789	24246.97	3.8270	3.8270	1.0553	25.85	-0.11	0.750			
0.3820	24450.12	3.8240	3.8239	1.0672	25.84	-0.12	0.750			
0.3852	24654.54	3.8210	3.8211	1.0859	25.84	-0.12	0.750			
0.3885	24864.80	3.8180	3.8180	1.1033	25.84	-0.12	0.750			
0.3919	25079.77	3.8150	3.8150	1.1155	25.84	-0.12	0.750			
0.3953	25296.48	3.8120	3.8120	1.1241	25.84	-0.12	0.750			
0.3987	25515.08	3.8090	3.8091	1.1376	25.84	-0.12	0.750			
0.4021	25733.76	3.8060	3.8061	1.1470	25.83	-0.13	0.750			
0.4055	25954.39	3.8030	3.8029	1.1559	25.83	-0.13	0.750			
0.4090	26175.32	3.8000	3.8000	1.1638	25.83	-0.13	0.750			
0.4125	26399.37	3.7970	3.7970	1.1807	25.83	-0.13	0.750			
0.4161	26627.85	3.7940	3.7940	1.1969	25.82	-0.14	0.750			
0.4197	26861.22	3.7910	3.7910	1.2080	25.82	-0.14	0.750			
0.4233	27093.19	3.7880	3.7880	1.2225	25.81	-0.15	0.750			
0.4270	27328.60	3.7850	3.7850	1.2411	25.81	-0.15	0.750			
0.4308	27568.79	3.7820	3.7820	1.2579	25.80	-0.16	0.750			
0.4346	27811.23	3.7790	3.7790	1.2793	25.80	-0.16	0.750			
0.4384	28057.89	3.7760	3.7761	1.2969	25.80	-0.16	0.750			
0.4423	28309.19	3.7730	3.7730	1.3215	25.79	-0.17	0.750			
0.4463	28565.96	3.7700	3.7700	1.3479	25.79	-0.17	0.750			
0.4504	28825.15	3.7670	3.7670	1.3663	25.79	-0.17	0.750			
0.4545	29090.24	3.7640	3.7640	1.3884	25.78	-0.18	0.750			
0.4587	29359.25	3.7610	3.7610	1.4177	25.78	-0.18	0.750			
0.4630	29632.93	3.7580	3.7580	1.4399	25.78	-0.18	0.750			
0.4674	29912.49	3.7550	3.7550	1.4667	25.78	-0.18	0.750			
0.4718	30194.94	3.7520	3.7521	1.4929	25.78	-0.18	0.750			
0.4763	30483.28	3.7490	3.7489	1.5191	25.77	-0.19	0.750			
0.4809	30776.02	3.7460	3.7460	1.5637	25.76	-0.20	0.750			
0.4856	31078.59	3.7430	3.7430	1.6019	25.76	-0.20	0.750			
0.4905	31391.63	3.7400	3.7399	1.6338	25.76	-0.20	0.750			
0.4955	31709.17	3.7370	3.7370	1.6782	25.76	-0.20	0.750			
0.5006	32036.12	3.7340	3.7340	1.7168	25.75	-0.21	0.750			
0.5058	32371.36	3.7310	3.7309	1.7580	25.74	-0.22	0.750			
0.5111	32713.10	3.7280	3.7279	1.8005	25.74	-0.22	0.750			
0.5165	33055.70	3.7250	3.7250	1.8424	25.73	-0.23	0.750			
0.5221	33416.23	3.7220	3.7220	1.8949	25.73	-0.23	0.750			
0.5279	33787.36	3.7190	3.7190	1.9527	25.72	-0.24	0.750			
0.5338	34166.11	3.7160	3.7160	1.9996	25.72	-0.24	0.750			
0.5399	34555.94	3.7130	3.7129	2.0416	25.71	-0.25	0.750	0.353	0.493	
0.5461	34953.17	3.7100	3.7100	2.0924	25.71	-0.25	0.750			
0.5524	35356.22	3.7070	3.7070	2.1487	25.70	-0.26	0.750			
0.5590	35773.88	3.7040	3.7040	2.1904	25.70	-0.26	0.750			
0.5656	36199.52	3.7010	3.7010	2.2459	25.70	-0.26	0.750			
0.5724	36634.89	3.6980	3.6980	2.3004	25.70	-0.26	0.750			
0.5794	37080.08	3.6950	3.6950	2.3629	25.70	-0.26	0.750			
0.5866	37541.15	3.6920	3.6921	2.3948	25.70	-0.26	0.750			
0.5938	38005.96	3.6890	3.6890	2.4732	25.70	-0.26	0.750			
0.6014	38487.55	3.6860	3.6858	2.5436	25.69	-0.27	0.750			
0.6091	38982.30	3.6830	3.6831	2.6290	25.69	-0.27	0.750			
0.6172	39498.99	3.6800	3.6800	2.6596	25.68	-0.28	0.750			
0.6252	40014.62	3.6770	3.6772	2.6659	25.68	-0.28	0.750			
0.6333	40531.60	3.6740	3.6739	2.6249	25.68	-0.28	0.750			
0.6411	41030.11	3.6710	3.6712	2.5268	25.68	-0.28	0.750			
0.6486	41512.32	3.6680	3.6680	2.4217	25.68	-0.28	0.750			
0.6557	41966.19	3.6650	3.6649	2.2498	25.68	-0.28	0.750			
0.6622	42382.55	3.6620	3.6620	2.0750	25.69	-0.27	0.750			
0.6682	42761.92	3.6590	3.6591	1.9052	25.70	-0.26	0.750			
0.6735	43103.41	3.6560	3.6560	1.7295	25.70	-0.26	0.750			
0.6783	43412.68	3.6530	3.6531	1.5994	25.70	-0.26	0.750			
0.6828	43700.95	3.6500	3.6499	1.4854	25.70	-0.26	0.750			
0.6871	43975.29	3.6470	3.6469	1.4154	25.70	-0.26	0.750			
0.6912	44234.69	3.6440	3.6441	1.3468	25.70	-0.26	0.750			
0.6951	44488.75	3.6410	3.6410	1.2987	25.70	-0.26	0.750			
0.6989	44729.82	3.6380	3.6380	1.2594	25.71	-0.25	0.750			
0.7026	44964.17	3.6350	3.6351	1.2249	25.71	-0.25	0.750			
0.7062	45195.75	3.6320	3.6319	1.2035	25.72	-0.24	0.750			
0.7097	45423.89	3.6290	3.6289	1.1898	25.72	-0.24	0.750			
0.7133	45650.34	3.6260	3.6261	1.1871	25.72	-0.24	0.750			
0.7168	45876.97	3.6230	3.6231	1.1873	25.72	-0.24	0.750			
0.7204	46106.14	3.6200	3.6200	1.1811	25.72	-0.24	0.750			
0.7239	46332.09	3.6170	3.6170	1.1812	25.72	-0.24	0.750			
0.7275	46559.06	3.6140	3.6140	1.1783	25.72	-0.24	0.750			
0.7310	46786.88	3.6110	3.6110	1.1708	25.72	-0.24	0.750			
0.7345	47010.08	3.6080	3.6080	1.1681	25.72	-0.24	0.750			
0.7380	47231.51	3.6050	3.6051	1.1682	25.72	-0.24	0.750			
0.7415	47455.30	3.6020	3.6020	1.1800	25.73	-0.23	0.750			
0.7450	47682.07	3.5990	3.5990	1.1851	25.73	-0.23	0.750			
0.7486	47908.03	3.5960	3.5961	1.2115	25.73	-0.23	0.750			
0.7522	48142.12	3.5930	3.5931	1.2431	25.74	-0.22	0.750			
0.7560	48384.53	3.5900	3.5899	1.2724	25.74	-0.22	0.750			
0.7598	48629.08	3.5870	3.5871	1.3104	25.74	-0.22	0.750			
0.7638	48883.12	3.5840	3.5840	1.3528	25.74	-0.22	0.750			
0.7679	49146.66	3.5810	3.5810	1.4002	25.74	-0.22	0.750			
0.7722	49422.12	3.5780	3.5779	1.4424	25.74	-0.22	0.750			
0.7766	49702.91	3.5750	3.5751	1.4801	25.74	-0.22	0.750			
0.7811	49992.40	3.5720	3.5720	1.5236	25.74	-0.22	0.750			
0.7858	50290.17	3.5690	3.5691	1.5531	25.74	-0.22	0.750			
0.7905	50594.41	3.5660	3.5660	1.5791	25.74	-0.22	0.750			
0.7953	50901.51	3.5630	3.5629	1.5954	25.74	-0.22	0.750			
0.8001	51209.55	3.5600	3.5599	1.6115	25.74	-0.22	0.750			
0.8051	51524.06	3.5570	3.5571	1.6170	25.75	-0.21	0.750			
0.8099	51832.94	3.5540	3.5541	1.6137	25.75	-0.21	0.750			
0.8148	52144.64	3.5510	3.5509	1.6032	25.75	-0.21	0.750			
0.8196	52453.15	3.5480	3.5479	1.5977	25.75	-0.21	0.750			
0.8244	52763.40	3.5450	3.5449	1.5655	25.76	-0.20	0.750			
0.8291	53065.44	3.5420	3.5418	1.5037	25.77	-0.19	0.750			
0.8338	53361.43	3.5390	3.5391	1.3870	25.77	-0.19	0.750			
0.8379	53628.52	3.5360	3.5361	1.2302	25.78	-0.18	0.750			
0.8416	53861.34	3.5330	3.5332	1.0552	25.79	-0.17	0.750			
0.8444	54040.47	3.5300	3.5299	0.8661	25.80	-0.16	0.750			
0.8466	54179.58	3.5270	3.5270	0.6857	25.81	-0.15	0.750			
0.8482	54284.54	3.5240	3.5238	0.5608	25.82	-0.14	0.750			
0.8495	54368.08	3.5210	3.5209	0.4571	25.83	-0.13	0.750			
0.8507	54442.39	3.5180	3.5180	0.3963	25.83	-0.13	0.750			
0.8517	54511.88	3.5150	3.5149	0.3596	25.84	-0.12	0.750			
0.8527	54574.95	3.5120	3.5120	0.3321	25.85	-0.11	0.750			
0.8537	54635.55	3.5090	3.5089	0.3125	25.85	-0.11	0.750			
0.8546	54692.43	3.5060	3.5060	0.2961	25.86	-0.10	0.750			
0.8554	54747.71	3.5030	3.5029	0.2849	25.86	-0.10	0.750			
0.8563	54801.01	3.5000	3.5000	0.2756	25.87	-0.09	0.750			
0.8571	54852.82	3.4970	3.4969	0.2672	25.87	-0.09	0.750			
0.8578	54902.37	3.4940	3.4940	0.2595	25.87	-0.09	0.750			
0.8586	54951.81	3.4910	3.4909	0.2545	25.88	-0.08	0.750			
0.8594	54999.87	3.4880	3.4880	0.2481	25.89	-0.07	0.750			
0.8601	55046.98	3.4850	3.4851	0.2439	25.89	-0.07	0.750			
0.8608	55093.40	3.4820	3.4819	0.2387	25.90	-0.06	0.750			
0.8615	55138.80	3.4790	3.4790	0.2333	25.90	-0.06	0.750			
0.8622	55183.06	3.4760	3.4759	0.2280	25.91	-0.05	0.750			
0.8629	55226.42	3.4730	3.4730	0.2225	25.91	-0.05	0.750			
0.8636	55268.40	3.4700	3.4700	0.2183	25.92	-0.04	0.750			
0.8642	55309.78	3.4670	3.4671	0.2134	25.92	-0.04	0.750			
0.8648	55350.30	3.4640	3.4639	0.2088	25.93	-0.03	0.750			
0.8655	55389.59	3.4610	3.4609	0.2038	25.93	-0.03	0.750			
0.8661	55428.61	3.4580	3.4581	0.1997	25.93	-0.03	0.750			
0.8667	55466.61	3.4550	3.4550	0.1954	25.94	-0.02	0.750			
0.8672	55503.67	3.4520	3.4520	0.1906	25.94	-0.02	0.750			
0.8678	55539.84	3.4490	3.4490	0.1865	25.95	-0.01	0.750			
0.8684	55574.93	3.4460	3.4460	0.1813	25.95	-0.01	0.750			
0.8689	55609.54	3.4430	3.4430	0.1774	25.95	-0.01	0.750			
0.8694	55643.23	3.4400	3.4400	0.1721	25.96	-0.00	0.750			
0.8699	55675.79	3.4370	3.4371	0.1676	25.96	0.00	0.750			
0.8704	55707.39	3.4340	3.4341	0.1634	25.97	0.01	0.750			
0.8709	55738.16	3.4310	3.4309	0.1587	25.97	0.01	0.750			
0.8714	55768.28	3.4280	3.4280	0.1544	25.97	0.01	0.750			
0.8718	55797.47	3.4250	3.4250	0.1495	25.98	0.02	0.750			
0.8723	55825.96	3.4220	3.4221	0.1453	25.98	0.02	0.750			
0.8727	55853.40	3.4190	3.4190	0.1406	25.98	0.02	0.750			
0.8731	55880.20	3.4160	3.4161	0.1356	25.99	0.03	0.750			
0.8735	55905.57	3.4130	3.4130	0.1304	25.99	0.03	0.750			
0.8739	55930.01	3.4100	3.4100	0.1252	25.99	0.03	0.750			
0.8743	55953.61	3.4070	3.4070	0.1202	25.99	0.03	0.750			
0.8746	55976.26	3.4040	3.4040	0.1154	26.00	0.04	0.750			
0.8750	55998.32	3.4010	3.4011	0.1098	26.00	0.04	0.750			
0.8753	56018.92	3.3980	3.3979	0.1042	26.00	0.04	0.750			
0.8756	56038.36	3.3950	3.3950	0.0983	26.00	0.04	0.750			
0.8759	56057.77	3.3920	3.3920	0.0902	26.00	0.04	0.750			
0.8762	56074.26	3.3890	3.3890	0.0816	26.01	0.05	0.750			
0.8764	56089.80	3.3860	3.3861	0.0741	26.01	0.05	0.750			
0.8766	56103.12	3.3830	3.3833	0.0647	26.01	0.05	0.750			
0.8768	56115.17	3.3800	3.3805	0.0554	26.01	0.05	0.750			
0.8770	56124.84	3.3770	3.3778	0.0453	26.01	0.05	0.750			
0.8771	56132.59	3.3740	3.3752	0.0353	26.01	0.05	0.750			
0.8772	56138.40	3.3710	3.3729	0.0253	26.01	0.05	0.750			
