Ah_balance (normalized)	Ah_balance (mAh)	Voltage - fit (V)	Voltage -  interpolate (V)	dQ/dV (1/V)	Temperature (°C)	Temperature - diff (°C)	Current (C)	R_DC 0ms (mOhm)	R_DC 50ms (mOhm)	R_DC 50 ms PEC (mOhm)
0.4362	27915.56	3.8380	3.8380	1.2689	26.94	0.99	1.500			
0.4401	28165.38	3.8350	3.8350	1.2889	26.93	0.98	1.500			
0.4439	28410.31	3.8320	3.8320	1.2868	26.92	0.97	1.500			
0.4478	28658.40	3.8290	3.8290	1.2922	26.90	0.95	1.500			
0.4516	28901.49	3.8260	3.8260	1.3138	26.89	0.94	1.500			
0.4555	29153.17	3.8230	3.8229	1.3511	26.88	0.93	1.500			
0.4596	29416.36	3.8200	3.8199	1.3773	26.87	0.92	1.500			
0.4639	29686.99	3.8170	3.8171	1.4239	26.86	0.91	1.500			
0.4682	29963.89	3.8140	3.8141	1.4452	26.84	0.89	1.500			
0.4726	30246.44	3.8110	3.8109	1.4509	26.83	0.88	1.500			
0.4769	30521.03	3.8080	3.8081	1.4949	26.81	0.86	1.500			
0.4814	30812.13	3.8050	3.8051	1.5388	26.79	0.84	1.500			
0.4861	31108.78	3.8020	3.8019	1.5775	26.78	0.83	1.500			
0.4909	31418.22	3.7990	3.7991	1.6117	26.76	0.81	1.500			
0.4959	31734.70	3.7960	3.7960	1.6615	26.75	0.80	1.500			
0.5008	32048.46	3.7930	3.7930	1.6734	26.73	0.78	1.500			
0.5059	32375.47	3.7900	3.7900	1.7095	26.71	0.76	1.500			
0.5110	32706.24	3.7870	3.7871	1.7351	26.70	0.75	1.500			
0.5163	33043.23	3.7840	3.7840	1.7499	26.68	0.73	1.500			
0.5216	33379.89	3.7810	3.7810	1.7479	26.66	0.71	1.500			
0.5268	33713.90	3.7780	3.7780	1.7717	26.65	0.70	1.500			
0.5321	34053.98	3.7750	3.7750	1.8026	26.63	0.68	1.500			
0.5375	34402.89	3.7720	3.7720	1.8151	26.61	0.66	1.500			
0.5431	34756.15	3.7690	3.7690	1.8246	26.59	0.64	1.500			
0.5486	35108.57	3.7660	3.7660	1.7988	26.58	0.63	1.500			
0.5539	35447.20	3.7630	3.7630	1.7840	26.56	0.61	1.500			
0.5592	35788.21	3.7600	3.7599	1.7923	26.54	0.59	1.500			
0.5646	36133.92	3.7570	3.7569	1.8025	26.53	0.58	1.500			
0.5700	36481.97	3.7540	3.7540	1.7954	26.51	0.56	1.500			
0.5754	36824.36	3.7510	3.7510	1.7892	26.49	0.54	1.500			
0.5806	37161.40	3.7480	3.7480	1.7967	26.47	0.52	1.500			
0.5861	37508.59	3.7450	3.7450	1.8327	26.46	0.51	1.500			
0.5916	37864.27	3.7420	3.7421	1.8670	26.44	0.49	1.500			
0.5974	38231.16	3.7390	3.7390	1.8739	26.43	0.48	1.500			
0.6029	38584.16	3.7360	3.7361	1.9109	26.42	0.47	1.500			
0.6087	38954.84	3.7330	3.7329	1.9503	26.40	0.45	1.500			
0.6146	39336.65	3.7300	3.7301	2.0242	26.39	0.44	1.500			
0.6208	39734.23	3.7270	3.7270	2.0842	26.37	0.42	1.500			
0.6270	40129.29	3.7240	3.7241	2.0883	26.35	0.40	1.500			
0.6334	40536.15	3.7210	3.7209	2.1904	26.33	0.38	1.500			
0.6400	40962.30	3.7180	3.7181	2.2697	26.31	0.36	1.500			
0.6471	41413.21	3.7150	3.7151	2.3652	26.29	0.34	1.500			
0.6543	41875.80	3.7120	3.7120	2.3965	26.27	0.32	1.500			
0.6616	42339.80	3.7090	3.7090	2.4350	26.26	0.31	1.500			
0.6691	42821.21	3.7060	3.7060	2.4668	26.24	0.29	1.500			
0.6764	43289.03	3.7030	3.7030	2.4411	26.23	0.28	1.500			
0.6837	43755.97	3.7000	3.6999	2.3680	26.21	0.26	1.500			
0.6907	44205.63	3.6970	3.6970	2.2473	26.20	0.25	1.500			
0.6973	44625.11	3.6940	3.6940	2.0772	26.19	0.24	1.500			
0.7032	45003.29	3.6910	3.6910	1.8824	26.17	0.22	1.500			
0.7085	45342.30	3.6880	3.6880	1.7310	26.16	0.21	1.500			
0.7134	45660.05	3.6850	3.6850	1.6262	26.15	0.20	1.500			
0.7182	45965.31	3.6820	3.6820	1.5405	26.15	0.20	1.500			
0.7227	46255.19	3.6790	3.6790	1.4589	26.14	0.19	1.500			
0.7269	46519.22	3.6760	3.6761	1.3852	26.13	0.18	1.500			
0.7309	46775.11	3.6730	3.6730	1.3325	26.13	0.18	1.500			
0.7348	47024.76	3.6700	3.6699	1.2981	26.12	0.17	1.500			
0.7386	47269.70	3.6670	3.6670	1.2767	26.11	0.16	1.500			
0.7424	47513.30	3.6640	3.6641	1.2727	26.10	0.15	1.500			
0.7462	47756.01	3.6610	3.6610	1.2678	26.09	0.14	1.500			
0.7500	47997.41	3.6580	3.6580	1.2660	26.08	0.13	1.500			
0.7538	48240.06	3.6550	3.6550	1.2699	26.08	0.13	1.500			
0.7576	48485.56	3.6520	3.6519	1.2793	26.07	0.12	1.500			
0.7614	48731.09	3.6490	3.6490	1.2847	26.06	0.11	1.500			
0.7653	48979.26	3.6460	3.6460	1.2892	26.05	0.10	1.500			
0.7692	49228.73	3.6430	3.6430	1.2895	26.04	0.09	1.500			
0.7731	49476.30	3.6400	3.6400	1.2795	26.03	0.08	1.500			
0.7769	49721.40	3.6370	3.6370	1.2739	26.02	0.07	1.500			
0.7807	49964.01	3.6340	3.6340	1.2692	26.01	0.06	1.500			
0.7845	50205.45	3.6310	3.6309	1.2606	26.00	0.05	1.500			
0.7882	50447.47	3.6280	3.6280	1.2608	25.99	0.04	1.500			
0.7921	50691.46	3.6250	3.6250	1.2545	25.99	0.04	1.500			
0.7958	50931.53	3.6220	3.6220	1.2453	25.98	0.03	1.500			
0.7995	51170.35	3.6190	3.6190	1.2377	25.98	0.03	1.500			
0.8032	51406.30	3.6160	3.6160	1.2268	25.97	0.02	1.500			
0.8069	51642.07	3.6130	3.6130	1.2139	25.97	0.02	1.500			
0.8105	51874.33	3.6100	3.6100	1.1961	25.96	0.01	1.500			
0.8141	52104.46	3.6070	3.6070	1.1809	25.96	0.01	1.500			
0.8176	52328.57	3.6040	3.6040	1.1591	25.96	0.01	1.500			
0.8211	52548.28	3.6010	3.6010	1.1333	25.96	0.01	1.500			
0.8244	52763.33	3.5980	3.5980	1.1103	25.95	0.00	1.500			
0.8277	52973.19	3.5950	3.5950	1.0921	25.95	0.00	1.500			
0.8310	53181.86	3.5920	3.5920	1.0740	25.95	0.00	1.500			
0.8342	53387.52	3.5890	3.5890	1.0487	25.95	0.00	1.500			
0.8374	53590.47	3.5860	3.5859	1.0129	25.95	-0.00	1.500			
0.8404	53786.93	3.5830	3.5830	0.9467	25.95	-0.00	1.500			
0.8433	53971.59	3.5800	3.5800	0.8747	25.95	-0.00	1.500			
0.8458	54133.53	3.5770	3.5772	0.7752	25.95	-0.00	1.500			
0.8480	54272.49	3.5740	3.5739	0.6660	25.94	-0.01	1.500			
0.8497	54383.94	3.5710	3.5711	0.5637	25.94	-0.01	1.500			
0.8512	54477.05	3.5680	3.5680	0.4746	25.94	-0.01	1.500			
0.8525	54557.17	3.5650	3.5650	0.3932	25.94	-0.01	1.500			
0.8535	54622.72	3.5620	3.5618	0.3352	25.94	-0.01	1.500			
0.8543	54676.46	3.5590	3.5591	0.2854	25.94	-0.01	1.500			
0.8551	54724.44	3.5560	3.5560	0.2504	25.94	-0.01	1.500			
0.8557	54767.72	3.5530	3.5530	0.2197	25.94	-0.01	1.500			
0.8563	54806.00	3.5500	3.5500	0.1971	25.94	-0.01	1.500			
0.8569	54840.61	3.5470	3.5471	0.1770	25.94	-0.01	1.500			
0.8574	54872.60	3.5440	3.5440	0.1595	25.94	-0.01	1.500			
0.8578	54901.54	3.5410	3.5410	0.1445	25.94	-0.01	1.500			
0.8582	54927.58	3.5380	3.5380	0.1290	25.94	-0.01	1.500			
0.8586	54950.77	3.5350	3.5351	0.1142	25.94	-0.01	1.500			
0.8589	54971.26	3.5320	3.5320	0.0995	25.94	-0.01	1.500			
0.8592	54988.98	3.5290	3.5291	0.0851	25.94	-0.01	1.500			
0.8594	55003.86	3.5260	3.5261	0.0706	25.94	-0.01	1.500			
0.8596	55016.29	3.5230	3.5234	0.0562	25.94	-0.01	1.500			
0.8598	55025.65	3.5200	3.5206	0.0414	25.94	-0.01	1.500			
0.8599	55032.18	3.5170	3.5181	0.0266	25.94	-0.01	1.500			
