Ah_balance (normalized)	Ah_balance (mAh)	Voltage - fit (V)	Voltage -  interpolate (V)	dQ/dV (1/V)	Temperature (°C)	Temperature - diff (°C)	Current (C)	R_DC 0ms (mOhm)	R_DC 50ms (mOhm)	R_DC 50 ms PEC (mOhm)
0.2396	15334.06	3.9740	3.9740	0.8864	26.20	0.28	0.750			
0.2422	15502.98	3.9710	3.9710	0.8768	26.20	0.28	0.750			
0.2449	15670.55	3.9680	3.9681	0.8749	26.21	0.29	0.750			
0.2475	15838.69	3.9650	3.9650	0.8750	26.21	0.29	0.750			
0.2501	16006.64	3.9620	3.9619	0.8784	26.21	0.29	0.750			
0.2527	16174.02	3.9590	3.9590	0.8798	26.22	0.30	0.750			
0.2554	16343.62	3.9560	3.9560	0.8795	26.22	0.30	0.750			
0.2580	16513.54	3.9530	3.9529	0.8829	26.23	0.31	0.750			
0.2607	16683.34	3.9500	3.9501	0.8829	26.23	0.31	0.750			
0.2633	16852.95	3.9470	3.9470	0.8834	26.24	0.32	0.750			
0.2660	17021.61	3.9440	3.9440	0.8877	26.24	0.32	0.750			
0.2686	17192.95	3.9410	3.9410	0.8858	26.24	0.32	0.750			
0.2713	17361.19	3.9380	3.9380	0.8933	26.25	0.33	0.750			
0.2740	17534.95	3.9350	3.9350	0.8989	26.25	0.33	0.750			
0.2767	17708.47	3.9320	3.9321	0.9007	26.26	0.34	0.750			
0.2794	17882.00	3.9290	3.9290	0.9030	26.26	0.34	0.750			
0.2821	18055.67	3.9260	3.9261	0.9024	26.27	0.35	0.750			
0.2848	18228.05	3.9230	3.9229	0.9028	26.27	0.35	0.750			
0.2875	18401.37	3.9200	3.9200	0.9092	26.27	0.35	0.750			
0.2902	18574.07	3.9170	3.9169	0.9087	26.28	0.36	0.750			
0.2930	18752.80	3.9140	3.9140	0.9151	26.28	0.36	0.750			
0.2958	18928.58	3.9110	3.9111	0.9153	26.28	0.36	0.750			
0.2985	19103.84	3.9080	3.9080	0.9191	26.28	0.36	0.750			
0.3013	19280.84	3.9050	3.9051	0.9209	26.28	0.36	0.750			
0.3040	19455.87	3.9020	3.9019	0.9207	26.28	0.36	0.750			
0.3068	19632.89	3.8990	3.8990	0.9192	26.28	0.36	0.750			
0.3095	19810.37	3.8960	3.8961	0.9220	26.28	0.36	0.750			
0.3123	19986.64	3.8930	3.8930	0.9267	26.28	0.36	0.750			
0.3151	20165.13	3.8900	3.8899	0.9306	26.28	0.36	0.750			
0.3179	20342.50	3.8870	3.8871	0.9332	26.28	0.36	0.750			
0.3207	20523.47	3.8840	3.8839	0.9411	26.29	0.37	0.750			
0.3235	20705.74	3.8810	3.8811	0.9468	26.29	0.37	0.750			
0.3264	20888.44	3.8780	3.8780	0.9489	26.30	0.38	0.750			
0.3292	21071.47	3.8750	3.8750	0.9553	26.30	0.38	0.750			
0.3321	21253.98	3.8720	3.8720	0.9536	26.29	0.37	0.750			
0.3350	21437.59	3.8690	3.8690	0.9592	26.29	0.37	0.750			
0.3378	21620.97	3.8660	3.8660	0.9669	26.28	0.36	0.750			
0.3407	21808.00	3.8630	3.8628	0.9742	26.28	0.36	0.750			
0.3437	21996.15	3.8600	3.8600	0.9779	26.28	0.36	0.750			
0.3466	22184.21	3.8570	3.8571	0.9837	26.28	0.36	0.750			
0.3496	22374.30	3.8540	3.8541	0.9907	26.28	0.36	0.750			
0.3526	22565.13	3.8510	3.8509	0.9929	26.28	0.36	0.750			
0.3556	22755.60	3.8480	3.8480	0.9975	26.28	0.36	0.750			
0.3585	22946.71	3.8450	3.8451	1.0048	26.27	0.35	0.750			
0.3616	23141.68	3.8420	3.8420	1.0145	26.27	0.35	0.750			
0.3646	23336.36	3.8390	3.8389	1.0265	26.26	0.34	0.750			
0.3677	23534.58	3.8360	3.8360	1.0310	26.26	0.34	0.750			
0.3708	23733.47	3.8330	3.8330	1.0374	26.25	0.33	0.750			
0.3740	23933.87	3.8300	3.8300	1.0464	26.25	0.33	0.750			
0.3771	24135.08	3.8270	3.8270	1.0537	26.24	0.32	0.750			
0.3803	24337.38	3.8240	3.8240	1.0613	26.24	0.32	0.750			
0.3835	24541.39	3.8210	3.8210	1.0722	26.23	0.31	0.750			
0.3867	24746.72	3.8180	3.8180	1.0857	26.23	0.31	0.750			
0.3900	24958.70	3.8150	3.8149	1.0998	26.22	0.30	0.750			
0.3933	25170.45	3.8120	3.8121	1.1103	26.22	0.30	0.750			
0.3966	25383.69	3.8090	3.8090	1.1258	26.21	0.29	0.750			
0.4000	25601.87	3.8060	3.8061	1.1408	26.21	0.29	0.750			
0.4035	25822.24	3.8030	3.8029	1.1494	26.20	0.28	0.750			
0.4069	26043.89	3.8000	3.8000	1.1668	26.19	0.27	0.750			
0.4105	26269.41	3.7970	3.7971	1.1810	26.18	0.26	0.750			
0.4141	26499.44	3.7940	3.7940	1.1960	26.17	0.25	0.750			
0.4176	26728.84	3.7910	3.7911	1.2150	26.17	0.25	0.750			
0.4213	26962.82	3.7880	3.7881	1.2270	26.16	0.24	0.750			
0.4250	27201.51	3.7850	3.7850	1.2452	26.15	0.23	0.750			
0.4288	27443.01	3.7820	3.7820	1.2624	26.14	0.22	0.750			
0.4326	27684.59	3.7790	3.7790	1.2806	26.13	0.21	0.750			
0.4364	27932.29	3.7760	3.7760	1.3027	26.13	0.21	0.750			
0.4404	28183.60	3.7730	3.7730	1.3279	26.12	0.20	0.750			
0.4444	28439.42	3.7700	3.7700	1.3459	26.11	0.19	0.750			
0.4485	28701.83	3.7670	3.7670	1.3796	26.10	0.18	0.750			
0.4526	28969.35	3.7640	3.7640	1.4020	26.08	0.16	0.750			
0.4569	29241.58	3.7610	3.7609	1.4217	26.07	0.15	0.750			
0.4612	29516.75	3.7580	3.7580	1.4427	26.07	0.15	0.750			
0.4655	29794.68	3.7550	3.7549	1.4710	26.06	0.14	0.750			
0.4700	30077.74	3.7520	3.7521	1.5027	26.05	0.13	0.750			
0.4745	30370.42	3.7490	3.7490	1.5328	26.03	0.11	0.750			
0.4792	30666.50	3.7460	3.7458	1.5640	26.02	0.10	0.750			
0.4839	30970.99	3.7430	3.7430	1.6008	26.00	0.08	0.750			
0.4888	31282.30	3.7400	3.7400	1.6446	25.99	0.07	0.750			
0.4938	31602.75	3.7370	3.7371	1.6831	25.97	0.05	0.750			
0.4988	31926.38	3.7340	3.7340	1.7161	25.96	0.04	0.750			
0.5041	32259.90	3.7310	3.7309	1.7622	25.95	0.03	0.750			
0.5094	32603.67	3.7280	3.7280	1.8015	25.94	0.02	0.750			
0.5149	32954.36	3.7250	3.7250	1.8441	25.92	0.00	0.750			
0.5205	33310.81	3.7220	3.7220	1.8913	25.91	-0.01	0.750			
0.5262	33674.54	3.7190	3.7190	1.9412	25.90	-0.02	0.750			
0.5321	34052.12	3.7160	3.7159	2.0106	25.89	-0.03	0.750			
0.5382	34442.98	3.7130	3.7130	2.0582	25.88	-0.04	0.750	0.350	0.493	
0.5445	34845.38	3.7100	3.7100	2.1218	25.87	-0.05	0.750			
0.5510	35264.07	3.7070	3.7070	2.1582	25.86	-0.06	0.750			
0.5575	35680.15	3.7040	3.7040	2.1953	25.86	-0.06	0.750			
0.5641	36099.88	3.7010	3.7011	2.2578	25.86	-0.06	0.750			
0.5710	36543.48	3.6980	3.6980	2.3259	25.85	-0.07	0.750			
0.5780	36994.85	3.6950	3.6949	2.3751	25.84	-0.08	0.750			
0.5853	37460.20	3.6920	3.6920	2.4434	25.83	-0.09	0.750			
0.5927	37934.48	3.6890	3.6889	2.5084	25.82	-0.10	0.750			
0.6002	38415.73	3.6860	3.6861	2.5649	25.80	-0.12	0.750			
0.6081	38920.09	3.6830	3.6831	2.6132	25.79	-0.13	0.750			
0.6160	39425.37	3.6800	3.6800	2.6506	25.78	-0.14	0.750			
0.6241	39941.73	3.6770	3.6769	2.6651	25.77	-0.15	0.750			
0.6322	40459.58	3.6740	3.6740	2.6332	25.75	-0.17	0.750			
0.6401	40968.82	3.6710	3.6709	2.5880	25.74	-0.18	0.750			
0.6477	41450.95	3.6680	3.6679	2.4376	25.74	-0.18	0.750			
0.6549	41912.22	3.6650	3.6651	2.2779	25.74	-0.18	0.750			
0.6615	42335.42	3.6620	3.6620	2.1035	25.73	-0.19	0.750			
0.6675	42717.96	3.6590	3.6590	1.9251	25.73	-0.19	0.750			
0.6729	43065.42	3.6560	3.6560	1.7565	25.74	-0.18	0.750			
0.6778	43380.90	3.6530	3.6530	1.6210	25.74	-0.18	0.750			
0.6824	43674.31	3.6500	3.6500	1.5245	25.74	-0.18	0.750			
0.6868	43953.35	3.6470	3.6470	1.4367	25.74	-0.18	0.750			
0.6908	44214.05	3.6440	3.6438	1.3635	25.74	-0.18	0.750			
0.6948	44468.54	3.6410	3.6411	1.3114	25.74	-0.18	0.750			
0.6987	44715.28	3.6380	3.6381	1.2708	25.75	-0.17	0.750			
0.7024	44955.31	3.6350	3.6349	1.2329	25.75	-0.17	0.750			
0.7060	45184.32	3.6320	3.6320	1.1998	25.75	-0.17	0.750			
0.7095	45408.94	3.6290	3.6290	1.1887	25.76	-0.16	0.750			
0.7130	45633.82	3.6260	3.6260	1.1833	25.76	-0.16	0.750			
0.7166	45859.84	3.6230	3.6230	1.1775	25.76	-0.16	0.750			
0.7201	46087.03	3.6200	3.6200	1.1808	25.76	-0.16	0.750			
0.7237	46314.21	3.6170	3.6170	1.1835	25.76	-0.16	0.750			
0.7272	46543.82	3.6140	3.6140	1.1793	25.76	-0.16	0.750			
0.7308	46768.72	3.6110	3.6110	1.1745	25.76	-0.16	0.750			
0.7343	46992.71	3.6080	3.6080	1.1729	25.76	-0.16	0.750			
0.7378	47216.71	3.6050	3.6050	1.1767	25.76	-0.16	0.750			
0.7413	47443.58	3.6020	3.6019	1.1755	25.76	-0.16	0.750			
0.7448	47668.49	3.5990	3.5991	1.1902	25.76	-0.16	0.750			
0.7484	47894.94	3.5960	3.5960	1.2121	25.76	-0.16	0.750			
0.7520	48130.12	3.5930	3.5929	1.2389	25.76	-0.16	0.750			
0.7558	48368.33	3.5900	3.5900	1.2808	25.76	-0.16	0.750			
0.7596	48615.81	3.5870	3.5870	1.3205	25.76	-0.16	0.750			
0.7637	48875.04	3.5840	3.5840	1.3604	25.76	-0.16	0.750			
0.7679	49144.65	3.5810	3.5811	1.4015	25.76	-0.16	0.750			
0.7721	49415.96	3.5780	3.5780	1.4393	25.76	-0.16	0.750			
0.7765	49694.15	3.5750	3.5750	1.4758	25.76	-0.16	0.750			
0.7810	49981.06	3.5720	3.5720	1.5080	25.76	-0.16	0.750			
0.7855	50273.83	3.5690	3.5689	1.5438	25.76	-0.16	0.750			
0.7903	50576.94	3.5660	3.5659	1.5702	25.76	-0.16	0.750			
0.7951	50883.31	3.5630	3.5630	1.5965	25.76	-0.16	0.750			
0.7999	51196.68	3.5600	3.5601	1.6058	25.76	-0.16	0.750			
0.8048	51509.04	3.5570	3.5570	1.6022	25.76	-0.16	0.750			
0.8096	51816.53	3.5540	3.5539	1.6049	25.76	-0.16	0.750			
0.8144	52123.96	3.5510	3.5510	1.5996	25.76	-0.16	0.750			
0.8192	52429.52	3.5480	3.5481	1.5949	25.77	-0.15	0.750			
0.8241	52740.39	3.5450	3.5449	1.5617	25.77	-0.15	0.750			
0.8289	53048.10	3.5420	3.5419	1.5075	25.78	-0.14	0.750			
0.8335	53344.00	3.5390	3.5390	1.4163	25.78	-0.14	0.750			
0.8377	53614.99	3.5360	3.5362	1.2454	25.78	-0.14	0.750			
0.8414	53849.30	3.5330	3.5331	1.0669	25.78	-0.14	0.750			
0.8443	54035.33	3.5300	3.5301	0.8831	25.80	-0.12	0.750			
0.8465	54175.86	3.5270	3.5269	0.6959	25.81	-0.11	0.750			
0.8482	54282.06	3.5240	3.5238	0.5706	25.82	-0.10	0.750			
0.8495	54367.79	3.5210	3.5208	0.4641	25.82	-0.10	0.750			
0.8506	54439.12	3.5180	3.5180	0.4002	25.83	-0.09	0.750			
0.8517	54509.38	3.5150	3.5149	0.3623	25.83	-0.09	0.750			
0.8527	54572.19	3.5120	3.5120	0.3331	25.84	-0.08	0.750			
0.8536	54633.40	3.5090	3.5090	0.3148	25.84	-0.08	0.750			
0.8546	54691.22	3.5060	3.5060	0.2985	25.85	-0.07	0.750			
0.8554	54746.72	3.5030	3.5030	0.2859	25.85	-0.07	0.750			
0.8562	54799.57	3.5000	3.5000	0.2752	25.86	-0.06	0.750			
0.8570	54850.81	3.4970	3.4970	0.2672	25.86	-0.06	0.750			
0.8578	54901.21	3.4940	3.4940	0.2606	25.87	-0.05	0.750			
0.8586	54950.77	3.4910	3.4910	0.2552	25.87	-0.05	0.750			
0.8594	54999.29	3.4880	3.4880	0.2498	25.88	-0.04	0.750			
0.8601	55046.73	3.4850	3.4850	0.2444	25.88	-0.04	0.750			
0.8608	55093.04	3.4820	3.4821	0.2391	25.89	-0.03	0.750			
0.8615	55138.51	3.4790	3.4790	0.2337	25.89	-0.03	0.750			
0.8622	55182.87	3.4760	3.4760	0.2283	25.90	-0.02	0.750			
0.8629	55226.23	3.4730	3.4730	0.2226	25.90	-0.02	0.750			
0.8636	55268.26	3.4700	3.4700	0.2177	25.91	-0.01	0.750			
0.8642	55309.29	3.4670	3.4671	0.2132	25.91	-0.01	0.750			
0.8648	55349.84	3.4640	3.4640	0.2089	25.91	-0.01	0.750			
0.8655	55389.38	3.4610	3.4609	0.2045	25.92	-0.00	0.750			
0.8661	55428.22	3.4580	3.4580	0.2000	25.92	0.00	0.750			
0.8667	55466.27	3.4550	3.4551	0.1958	25.93	0.01	0.750			
0.8672	55503.81	3.4520	3.4520	0.1913	25.93	0.01	0.750			
0.8678	55540.37	3.4490	3.4490	0.1865	25.93	0.01	0.750			
0.8684	55575.35	3.4460	3.4460	0.1820	25.94	0.02	0.750			
0.8689	55609.74	3.4430	3.4431	0.1773	25.94	0.02	0.750			
0.8694	55643.42	3.4400	3.4399	0.1731	25.94	0.02	0.750			
0.8699	55676.25	3.4370	3.4370	0.1688	25.95	0.03	0.750			
0.8704	55708.20	3.4340	3.4340	0.1646	25.95	0.03	0.750			
0.8709	55739.50	3.4310	3.4310	0.1599	25.95	0.03	0.750			
0.8714	55770.04	3.4280	3.4280	0.1557	25.96	0.04	0.750			
0.8719	55799.44	3.4250	3.4250	0.1505	25.96	0.04	0.750			
0.8723	55827.74	3.4220	3.4220	0.1453	25.96	0.04	0.750			
0.8727	55855.09	3.4190	3.4190	0.1408	25.97	0.05	0.750			
0.8731	55881.58	3.4160	3.4160	0.1359	25.97	0.05	0.750			
0.8736	55907.32	3.4130	3.4129	0.1311	25.97	0.05	0.750			
0.8739	55931.92	3.4100	3.4100	0.1262	25.97	0.05	0.750			
0.8743	55955.92	3.4070	3.4069	0.1216	25.98	0.06	0.750			
0.8747	55978.87	3.4040	3.4040	0.1168	25.98	0.06	0.750			
0.8750	56001.02	3.4010	3.4011	0.1111	25.98	0.06	0.750			
0.8753	56022.01	3.3980	3.3979	0.1058	25.98	0.06	0.750			
0.8757	56041.75	3.3950	3.3950	0.0998	25.98	0.06	0.750			
0.8760	56061.29	3.3920	3.3919	0.0920	25.99	0.07	0.750			
0.8762	56078.17	3.3890	3.3890	0.0838	25.99	0.07	0.750			
0.8765	56094.22	3.3860	3.3861	0.0769	25.99	0.07	0.750			
0.8767	56108.12	3.3830	3.3832	0.0678	25.99	0.07	0.750			
0.8769	56120.84	3.3800	3.3804	0.0588	25.99	0.07	0.750			
0.8770	56131.18	3.3770	3.3777	0.0489	25.99	0.07	0.750			
0.8772	56139.62	3.3740	3.3751	0.0390	25.99	0.07	0.750			
0.8773	56146.17	3.3710	3.3727	0.0291	25.99	0.07	0.750			
