Ah_balance (normalized)	Ah_balance (mAh)	Voltage - fit (V)	Voltage -  interpolate (V)	dQ/dV (1/V)	Temperature (°C)	Temperature - diff (°C)	Current (C)	R_DC 0ms (mOhm)	R_DC 50ms (mOhm)	R_DC 50 ms PEC (mOhm)
0.2399	15354.03	3.9750	3.9750	0.8967	26.09	0.13	0.750			
0.2425	15522.76	3.9720	3.9721	0.8697	26.09	0.13	0.750			
0.2451	15688.95	3.9690	3.9690	0.8692	26.09	0.13	0.750			
0.2478	15856.54	3.9660	3.9660	0.8724	26.10	0.14	0.750			
0.2504	16022.65	3.9630	3.9630	0.8754	26.10	0.14	0.750			
0.2530	16192.50	3.9600	3.9600	0.8769	26.11	0.15	0.750			
0.2557	16361.90	3.9570	3.9570	0.8797	26.11	0.15	0.750			
0.2583	16531.37	3.9540	3.9540	0.8829	26.12	0.16	0.750			
0.2609	16700.11	3.9510	3.9507	0.8850	26.12	0.16	0.750			
0.2636	16870.51	3.9480	3.9480	0.8835	26.12	0.16	0.750			
0.2662	17039.73	3.9450	3.9451	0.8883	26.12	0.16	0.750			
0.2689	17210.88	3.9420	3.9420	0.8891	26.12	0.16	0.750			
0.2716	17383.09	3.9390	3.9390	0.8929	26.12	0.16	0.750			
0.2743	17553.63	3.9360	3.9360	0.8943	26.12	0.16	0.750			
0.2770	17725.75	3.9330	3.9330	0.8928	26.12	0.16	0.750			
0.2796	17897.20	3.9300	3.9300	0.8956	26.12	0.16	0.750			
0.2823	18069.58	3.9270	3.9271	0.9008	26.12	0.16	0.750			
0.2850	18241.88	3.9240	3.9240	0.9006	26.12	0.16	0.750			
0.2877	18415.97	3.9210	3.9210	0.9055	26.12	0.16	0.750			
0.2905	18589.91	3.9180	3.9180	0.9053	26.12	0.16	0.750			
0.2932	18763.61	3.9150	3.9150	0.9088	26.11	0.15	0.750			
0.2959	18939.01	3.9120	3.9120	0.9153	26.11	0.15	0.750			
0.2987	19113.66	3.9090	3.9089	0.9172	26.11	0.15	0.750			
0.3014	19291.39	3.9060	3.9060	0.9169	26.11	0.15	0.750			
0.3042	19467.89	3.9030	3.9030	0.9223	26.11	0.15	0.750			
0.3070	19646.55	3.9000	3.9000	0.9241	26.12	0.16	0.750			
0.3097	19823.80	3.8970	3.8970	0.9212	26.12	0.16	0.750			
0.3125	20000.30	3.8940	3.8940	0.9257	26.12	0.16	0.750			
0.3153	20176.86	3.8910	3.8911	0.9286	26.11	0.15	0.750			
0.3181	20355.87	3.8880	3.8879	0.9357	26.11	0.15	0.750			
0.3209	20537.14	3.8850	3.8850	0.9447	26.10	0.14	0.750			
0.3237	20718.27	3.8820	3.8819	0.9455	26.10	0.14	0.750			
0.3266	20902.07	3.8790	3.8790	0.9458	26.10	0.14	0.750			
0.3294	21082.85	3.8760	3.8761	0.9532	26.10	0.14	0.750			
0.3323	21265.14	3.8730	3.8730	0.9555	26.10	0.14	0.750			
0.3351	21448.32	3.8700	3.8699	0.9640	26.10	0.14	0.750			
0.3381	21635.89	3.8670	3.8670	0.9651	26.10	0.14	0.750			
0.3410	21821.22	3.8640	3.8640	0.9728	26.10	0.14	0.750			
0.3439	22009.45	3.8610	3.8610	0.9794	26.10	0.14	0.750			
0.3468	22197.78	3.8580	3.8582	0.9807	26.10	0.14	0.750			
0.3498	22385.94	3.8550	3.8550	0.9864	26.10	0.14	0.750			
0.3528	22576.27	3.8520	3.8520	0.9939	26.10	0.14	0.750			
0.3557	22767.22	3.8490	3.8490	1.0001	26.10	0.14	0.750			
0.3588	22962.66	3.8460	3.8460	1.0115	26.10	0.14	0.750			
0.3618	23155.61	3.8430	3.8431	1.0092	26.10	0.14	0.750			
0.3649	23350.53	3.8400	3.8400	1.0188	26.09	0.13	0.750			
0.3679	23545.70	3.8370	3.8370	1.0311	26.09	0.13	0.750			
0.3710	23744.54	3.8340	3.8340	1.0389	26.08	0.12	0.750			
0.3741	23945.20	3.8310	3.8309	1.0489	26.08	0.12	0.750			
0.3773	24147.67	3.8280	3.8281	1.0590	26.08	0.12	0.750			
0.3805	24351.84	3.8250	3.8250	1.0716	26.08	0.12	0.750			
0.3837	24558.96	3.8220	3.8220	1.0811	26.08	0.12	0.750			
0.3870	24767.25	3.8190	3.8190	1.0872	26.08	0.12	0.750			
0.3903	24976.74	3.8160	3.8160	1.0959	26.08	0.12	0.750			
0.3936	25189.11	3.8130	3.8130	1.1097	26.08	0.12	0.750			
0.3969	25402.22	3.8100	3.8100	1.1202	26.08	0.12	0.750			
0.4003	25617.66	3.8070	3.8070	1.1319	26.08	0.12	0.750			
0.4037	25835.35	3.8040	3.8040	1.1435	26.07	0.11	0.750			
0.4071	26056.43	3.8010	3.8010	1.1617	26.07	0.11	0.750			
0.4107	26281.72	3.7980	3.7979	1.1755	26.06	0.10	0.750			
0.4142	26508.13	3.7950	3.7950	1.1914	26.05	0.09	0.750			
0.4178	26737.78	3.7920	3.7920	1.2070	26.04	0.08	0.750			
0.4215	26973.29	3.7890	3.7890	1.2192	26.03	0.07	0.750			
0.4251	27207.86	3.7860	3.7860	1.2321	26.02	0.06	0.750			
0.4288	27445.26	3.7830	3.7831	1.2529	26.01	0.05	0.750			
0.4326	27686.51	3.7800	3.7801	1.2720	26.01	0.05	0.750			
0.4365	27932.81	3.7770	3.7769	1.2927	26.00	0.04	0.750			
0.4403	28181.07	3.7740	3.7741	1.3173	25.99	0.03	0.750			
0.4443	28435.67	3.7710	3.7710	1.3447	25.97	0.01	0.750			
0.4484	28697.98	3.7680	3.7678	1.3666	25.96	0.00	0.750			
0.4525	28961.98	3.7650	3.7651	1.3890	25.95	-0.01	0.750			
0.4567	29230.79	3.7620	3.7621	1.4167	25.95	-0.01	0.750			
0.4610	29507.13	3.7590	3.7588	1.4398	25.94	-0.02	0.750			
0.4654	29783.13	3.7560	3.7560	1.4664	25.93	-0.03	0.750			
0.4698	30067.74	3.7530	3.7531	1.4988	25.91	-0.05	0.750			
0.4743	30358.22	3.7500	3.7500	1.5343	25.90	-0.06	0.750			
0.4790	30656.42	3.7470	3.7470	1.5609	25.89	-0.07	0.750			
0.4837	30956.85	3.7440	3.7440	1.6031	25.88	-0.08	0.750			
0.4886	31269.97	3.7410	3.7410	1.6349	25.86	-0.10	0.750			
0.4936	31587.99	3.7380	3.7380	1.6792	25.85	-0.11	0.750			
0.4986	31912.03	3.7350	3.7350	1.7114	25.84	-0.12	0.750			
0.5038	32244.76	3.7320	3.7320	1.7593	25.82	-0.14	0.750			
0.5092	32586.50	3.7290	3.7290	1.8034	25.81	-0.15	0.750			
0.5147	32938.23	3.7260	3.7260	1.8477	25.79	-0.17	0.750			
0.5202	33293.47	3.7230	3.7231	1.8942	25.79	-0.17	0.750			
0.5260	33664.15	3.7200	3.7200	1.9448	25.77	-0.19	0.750			
0.5319	34041.76	3.7170	3.7170	1.9972	25.76	-0.20	0.750			
0.5379	34428.71	3.7140	3.7138	2.0473	25.75	-0.21	0.750	0.357	0.496	
0.5442	34828.26	3.7110	3.7110	2.0948	25.73	-0.23	0.750			
0.5506	35236.31	3.7080	3.7080	2.1442	25.72	-0.24	0.750			
0.5570	35649.03	3.7050	3.7050	2.1941	25.71	-0.25	0.750			
0.5636	36073.01	3.7020	3.7021	2.2512	25.70	-0.26	0.750			
0.5705	36514.33	3.6990	3.6990	2.3065	25.68	-0.28	0.750			
0.5775	36963.03	3.6960	3.6960	2.3797	25.67	-0.29	0.750			
0.5847	37423.18	3.6930	3.6931	2.4607	25.65	-0.31	0.750			
0.5923	37905.15	3.6900	3.6900	2.5171	25.63	-0.33	0.750			
0.6000	38398.10	3.6870	3.6870	2.5327	25.62	-0.34	0.750			
0.6077	38893.69	3.6840	3.6840	2.5666	25.61	-0.35	0.750			
0.6152	39375.54	3.6810	3.6810	2.5834	25.59	-0.37	0.750			
0.6229	39868.64	3.6780	3.6780	2.6120	25.58	-0.38	0.750			
0.6310	40381.26	3.6750	3.6751	2.6322	25.58	-0.38	0.750			
0.6390	40893.06	3.6720	3.6720	2.6032	25.58	-0.38	0.750			
0.6468	41396.18	3.6690	3.6689	2.4837	25.56	-0.40	0.750			
0.6542	41866.54	3.6660	3.6660	2.3263	25.56	-0.40	0.750			
0.6608	42288.91	3.6630	3.6631	2.1268	25.56	-0.40	0.750			
0.6668	42675.12	3.6600	3.6599	1.9384	25.56	-0.40	0.750			
0.6723	43026.26	3.6570	3.6569	1.7768	25.55	-0.41	0.750			
0.6773	43344.95	3.6540	3.6542	1.6431	25.55	-0.41	0.750			
0.6820	43645.47	3.6510	3.6510	1.5361	25.55	-0.41	0.750			
0.6863	43921.19	3.6480	3.6479	1.4379	25.55	-0.41	0.750			
0.6904	44186.39	3.6450	3.6451	1.3677	25.55	-0.41	0.750			
0.6944	44439.66	3.6420	3.6420	1.3181	25.56	-0.40	0.750			
0.6983	44689.10	3.6390	3.6387	1.2694	25.56	-0.40	0.750			
0.7020	44925.39	3.6360	3.6361	1.2329	25.56	-0.40	0.750			
0.7056	45156.48	3.6330	3.6331	1.2131	25.57	-0.39	0.750			
0.7092	45386.45	3.6300	3.6300	1.1968	25.57	-0.39	0.750			
0.7127	45613.74	3.6270	3.6270	1.1825	25.57	-0.39	0.750			
0.7162	45837.75	3.6240	3.6240	1.1765	25.57	-0.39	0.750			
0.7197	46063.40	3.6210	3.6211	1.1784	25.58	-0.38	0.750			
0.7233	46292.01	3.6180	3.6179	1.1787	25.58	-0.38	0.750			
0.7268	46515.90	3.6150	3.6150	1.1740	25.59	-0.37	0.750			
0.7303	46740.92	3.6120	3.6121	1.1761	25.59	-0.37	0.750			
0.7339	46967.89	3.6090	3.6090	1.1776	25.60	-0.36	0.750			
0.7374	47193.87	3.6060	3.6060	1.1723	25.60	-0.36	0.750			
0.7409	47417.88	3.6030	3.6030	1.1740	25.61	-0.35	0.750			
0.7444	47641.36	3.6000	3.6001	1.1868	25.61	-0.35	0.750			
0.7480	47869.79	3.5970	3.5968	1.2009	25.62	-0.34	0.750			
0.7515	48097.82	3.5940	3.5940	1.2230	25.62	-0.34	0.750			
0.7552	48332.92	3.5910	3.5911	1.2630	25.63	-0.33	0.750			
0.7590	48578.93	3.5880	3.5880	1.3035	25.64	-0.32	0.750			
0.7630	48833.28	3.5850	3.5850	1.3484	25.64	-0.32	0.750			
0.7671	49095.27	3.5820	3.5820	1.3919	25.64	-0.32	0.750			
0.7714	49367.53	3.5790	3.5790	1.4346	25.65	-0.31	0.750			
0.7758	49648.69	3.5760	3.5760	1.4775	25.65	-0.31	0.750			
0.7803	49936.95	3.5730	3.5730	1.5074	25.66	-0.30	0.750			
0.7849	50230.46	3.5700	3.5699	1.5394	25.66	-0.30	0.750			
0.7896	50532.98	3.5670	3.5669	1.5676	25.67	-0.29	0.750			
0.7943	50836.14	3.5640	3.5640	1.5874	25.67	-0.29	0.750			
0.7992	51146.21	3.5610	3.5611	1.5994	25.68	-0.28	0.750			
0.8040	51453.91	3.5580	3.5581	1.6044	25.68	-0.28	0.750			
0.8088	51763.84	3.5550	3.5549	1.6015	25.68	-0.28	0.750			
0.8137	52073.61	3.5520	3.5521	1.5988	25.68	-0.28	0.750			
0.8184	52380.38	3.5490	3.5489	1.5916	25.69	-0.27	0.750			
0.8232	52683.81	3.5460	3.5459	1.5751	25.70	-0.26	0.750			
0.8280	52993.93	3.5430	3.5430	1.5234	25.71	-0.25	0.750			
0.8326	53289.36	3.5400	3.5401	1.4343	25.71	-0.25	0.750			
0.8371	53575.18	3.5370	3.5370	1.2895	25.73	-0.23	0.750			
0.8409	53817.13	3.5340	3.5342	1.1106	25.74	-0.22	0.750			
0.8439	54010.58	3.5310	3.5311	0.9309	25.76	-0.20	0.750			
0.8463	54163.40	3.5280	3.5280	0.7455	25.77	-0.19	0.750			
0.8481	54275.78	3.5250	3.5248	0.5835	25.78	-0.18	0.750			
0.8495	54364.82	3.5220	3.5218	0.4878	25.79	-0.17	0.750			
0.8506	54439.67	3.5190	3.5189	0.4106	25.79	-0.17	0.750			
0.8517	54508.57	3.5160	3.5159	0.3679	25.80	-0.16	0.750			
0.8527	54572.27	3.5130	3.5129	0.3355	25.81	-0.15	0.750			
0.8536	54632.38	3.5100	3.5100	0.3165	25.81	-0.15	0.750			
0.8545	54691.16	3.5070	3.5070	0.3022	25.82	-0.14	0.750			
0.8554	54747.44	3.5040	3.5039	0.2896	25.82	-0.14	0.750			
0.8563	54801.66	3.5010	3.5010	0.2794	25.83	-0.13	0.750			
0.8571	54853.55	3.4980	3.4981	0.2697	25.84	-0.12	0.750			
0.8579	54904.47	3.4950	3.4950	0.2632	25.84	-0.12	0.750			
0.8587	54953.73	3.4920	3.4919	0.2555	25.85	-0.11	0.750			
0.8594	55001.95	3.4890	3.4890	0.2494	25.85	-0.11	0.750			
0.8601	55049.45	3.4860	3.4860	0.2444	25.86	-0.10	0.750			
0.8609	55095.80	3.4830	3.4831	0.2398	25.86	-0.10	0.750			
0.8616	55141.44	3.4800	3.4800	0.2348	25.86	-0.10	0.750			
0.8623	55185.86	3.4770	3.4770	0.2295	25.87	-0.09	0.750			
0.8630	55229.41	3.4740	3.4741	0.2242	25.87	-0.09	0.750			
0.8636	55271.86	3.4710	3.4710	0.2193	25.88	-0.08	0.750			
0.8643	55313.73	3.4680	3.4680	0.2148	25.89	-0.07	0.750			
0.8649	55354.39	3.4650	3.4650	0.2107	25.89	-0.07	0.750			
0.8655	55394.27	3.4620	3.4619	0.2060	25.90	-0.06	0.750			
0.8661	55433.07	3.4590	3.4590	0.2013	25.90	-0.06	0.750			
0.8667	55471.45	3.4560	3.4560	0.1975	25.91	-0.05	0.750			
0.8673	55509.35	3.4530	3.4530	0.1929	25.91	-0.05	0.750			
0.8679	55546.22	3.4500	3.4499	0.1885	25.92	-0.04	0.750			
0.8685	55581.90	3.4470	3.4470	0.1831	25.92	-0.04	0.750			
0.8690	55616.52	3.4440	3.4440	0.1789	25.92	-0.04	0.750			
0.8695	55650.11	3.4410	3.4410	0.1743	25.93	-0.03	0.750			
0.8700	55683.19	3.4380	3.4380	0.1698	25.93	-0.03	0.750			
0.8706	55715.39	3.4350	3.4350	0.1656	25.94	-0.02	0.750			
0.8710	55746.76	3.4320	3.4321	0.1608	25.94	-0.02	0.750			
0.8715	55777.53	3.4290	3.4290	0.1565	25.94	-0.02	0.750			
0.8720	55807.11	3.4260	3.4260	0.1517	25.95	-0.01	0.750			
0.8724	55835.76	3.4230	3.4230	0.1467	25.95	-0.01	0.750			
0.8729	55863.21	3.4200	3.4200	0.1420	25.96	-0.00	0.750			
0.8733	55890.08	3.4170	3.4170	0.1371	25.96	-0.00	0.750			
0.8737	55916.03	3.4140	3.4140	0.1326	25.96	0.00	0.750			
0.8741	55941.11	3.4110	3.4110	0.1272	25.97	0.01	0.750			
0.8745	55965.17	3.4080	3.4081	0.1221	25.97	0.01	0.750			
0.8748	55988.15	3.4050	3.4049	0.1170	25.97	0.01	0.750			
0.8752	56010.08	3.4020	3.4021	0.1115	25.97	0.01	0.750			
0.8755	56031.15	3.3990	3.3989	0.1053	25.98	0.02	0.750			
0.8758	56050.81	3.3960	3.3960	0.0993	25.98	0.02	0.750			
0.8761	56070.54	3.3930	3.3929	0.0921	25.98	0.02	0.750			
0.8764	56087.39	3.3900	3.3901	0.0834	25.98	0.02	0.750			
0.8766	56103.35	3.3870	3.3870	0.0764	25.99	0.03	0.750			
0.8768	56117.08	3.3840	3.3842	0.0667	25.99	0.03	0.750			
0.8770	56129.38	3.3810	3.3813	0.0571	25.99	0.03	0.750			
0.8772	56139.35	3.3780	3.3786	0.0467	25.99	0.03	0.750			
0.8773	56147.32	3.3750	3.3760	0.0363	25.99	0.03	0.750			
0.8774	56153.30	3.3720	3.3736	0.0260	25.99	0.03	0.750			
