Ah_balance (normalized)	Ah_balance (mAh)	Voltage - fit (V)	Voltage -  interpolate (V)	dQ/dV (1/V)	Temperature (°C)	Temperature - diff (°C)	Current (C)	R_DC 0ms (mOhm)	R_DC 50ms (mOhm)	R_DC 50 ms PEC (mOhm)
0.0770	4928.21	4.1970	4.1985	1.6689	26.19	0.74	0.704			
0.0813	5200.98	4.1940	4.1951	1.3301	26.19	0.74	0.750			
0.0844	5402.93	4.1910	4.1911	0.9805	26.19	0.74	0.750			
0.0871	5571.24	4.1880	4.1878	0.8398	26.18	0.73	0.750			
0.0893	5712.23	4.1850	4.1850	0.7854	26.18	0.73	0.750			
0.0916	5860.58	4.1820	4.1820	0.7837	26.18	0.73	0.750			
0.0939	6011.00	4.1790	4.1789	0.7873	26.18	0.73	0.750			
0.0963	6162.86	4.1760	4.1760	0.7856	26.18	0.73	0.750			
0.0987	6313.63	4.1730	4.1730	0.7865	26.18	0.73	0.750			
0.1010	6465.62	4.1700	4.1700	0.7864	26.17	0.72	0.750			
0.1034	6616.41	4.1670	4.1670	0.7870	26.17	0.72	0.750			
0.1057	6766.53	4.1640	4.1640	0.7865	26.17	0.72	0.750			
0.1081	6916.35	4.1610	4.1610	0.7891	26.17	0.72	0.750			
0.1104	7067.87	4.1580	4.1580	0.7885	26.17	0.72	0.750			
0.1128	7221.09	4.1550	4.1549	0.7879	26.16	0.71	0.750			
0.1152	7372.52	4.1520	4.1521	0.7859	26.16	0.71	0.750			
0.1176	7523.39	4.1490	4.1489	0.7860	26.16	0.71	0.750			
0.1199	7673.33	4.1460	4.1460	0.7849	26.16	0.71	0.750			
0.1223	7824.77	4.1430	4.1430	0.7822	26.16	0.71	0.750			
0.1246	7973.13	4.1400	4.1400	0.7818	26.16	0.71	0.750			
0.1269	8124.18	4.1370	4.1371	0.7854	26.16	0.71	0.750			
0.1293	8275.76	4.1340	4.1339	0.7859	26.16	0.71	0.750			
0.1317	8425.97	4.1310	4.1310	0.7842	26.16	0.71	0.750			
0.1340	8576.31	4.1280	4.1280	0.7830	26.16	0.71	0.750			
0.1364	8727.00	4.1250	4.1250	0.7855	26.16	0.71	0.750			
0.1387	8878.77	4.1220	4.1219	0.7878	26.15	0.70	0.750			
0.1411	9029.37	4.1190	4.1190	0.7853	26.15	0.70	0.750			
0.1434	9180.73	4.1160	4.1160	0.7839	26.15	0.70	0.750			
0.1458	9330.93	4.1130	4.1130	0.7856	26.15	0.70	0.750			
0.1481	9481.56	4.1100	4.1101	0.7857	26.15	0.70	0.750			
0.1505	9631.99	4.1070	4.1069	0.7863	26.14	0.69	0.750			
0.1528	9782.29	4.1040	4.1040	0.7860	26.14	0.69	0.750			
0.1552	9934.05	4.1010	4.1011	0.7884	26.14	0.69	0.750			
0.1576	10086.00	4.0980	4.0980	0.7908	26.14	0.69	0.750			
0.1600	10239.90	4.0950	4.0950	0.7895	26.14	0.69	0.750			
0.1623	10390.08	4.0920	4.0920	0.7868	26.13	0.68	0.750			
0.1647	10540.87	4.0890	4.0890	0.7865	26.13	0.68	0.750			
0.1671	10691.38	4.0860	4.0859	0.7876	26.13	0.68	0.750			
0.1694	10841.86	4.0830	4.0830	0.7876	26.13	0.68	0.750			
0.1718	10993.52	4.0800	4.0801	0.7871	26.13	0.68	0.750			
0.1741	11145.14	4.0770	4.0770	0.7913	26.12	0.67	0.750			
0.1765	11297.96	4.0740	4.0740	0.7938	26.12	0.67	0.750			
0.1789	11449.73	4.0710	4.0710	0.7898	26.12	0.67	0.750			
0.1813	11601.43	4.0680	4.0680	0.7915	26.12	0.67	0.750			
0.1837	11753.98	4.0650	4.0650	0.7897	26.11	0.66	0.750			
0.1860	11905.89	4.0620	4.0620	0.7897	26.11	0.66	0.750			
0.1884	12057.41	4.0590	4.0590	0.7916	26.10	0.65	0.750			
0.1907	12207.64	4.0560	4.0561	0.7948	26.09	0.64	0.750			
0.1931	12360.88	4.0530	4.0529	0.7967	26.09	0.64	0.750			
0.1955	12514.63	4.0500	4.0500	0.8000	26.08	0.63	0.750			
0.1979	12668.72	4.0470	4.0470	0.7983	26.08	0.63	0.750			
0.2003	12821.93	4.0440	4.0441	0.8017	26.07	0.62	0.750			
0.2028	12976.03	4.0410	4.0410	0.8021	26.07	0.62	0.750			
0.2052	13129.60	4.0380	4.0379	0.8033	26.06	0.61	0.750			
0.2076	13283.23	4.0350	4.0350	0.8021	26.06	0.61	0.750			
0.2100	13438.69	4.0320	4.0321	0.8023	26.05	0.60	0.750			
0.2124	13591.86	4.0290	4.0290	0.8081	26.05	0.60	0.750			
0.2148	13747.06	4.0260	4.0261	0.8091	26.04	0.59	0.750			
0.2172	13902.81	4.0230	4.0228	0.8115	26.04	0.59	0.750			
0.2197	14058.67	4.0200	4.0200	0.8159	26.04	0.59	0.750			
0.2221	14216.37	4.0170	4.0171	0.8177	26.03	0.58	0.750			
0.2246	14375.39	4.0140	4.0140	0.8212	26.03	0.58	0.750			
0.2271	14531.59	4.0110	4.0110	0.8185	26.02	0.57	0.750			
0.2295	14688.72	4.0080	4.0080	0.8187	26.02	0.57	0.750			
0.2320	14846.43	4.0050	4.0050	0.8213	26.02	0.57	0.750			
0.2344	15003.78	4.0020	4.0020	0.8224	26.01	0.56	0.750			
0.2369	15161.74	3.9990	3.9991	0.8244	26.00	0.55	0.750			
0.2394	15320.69	3.9960	3.9959	0.8267	26.00	0.55	0.750			
0.2419	15479.14	3.9930	3.9930	0.8313	25.99	0.54	0.750			
0.2443	15638.02	3.9900	3.9900	0.8327	25.99	0.54	0.750			
0.2469	15799.71	3.9870	3.9870	0.8337	25.98	0.53	0.750			
0.2494	15960.41	3.9840	3.9840	0.8375	25.97	0.52	0.750			
0.2519	16121.31	3.9810	3.9811	0.8385	25.97	0.52	0.750			
0.2544	16281.99	3.9780	3.9780	0.8431	25.96	0.51	0.750			
0.2569	16444.14	3.9750	3.9750	0.8434	25.96	0.51	0.750			
0.2595	16605.82	3.9720	3.9720	0.8440	25.95	0.50	0.750			
0.2620	16769.57	3.9690	3.9691	0.8464	25.95	0.50	0.750			
0.2646	16931.92	3.9660	3.9660	0.8465	25.94	0.49	0.750			
0.2671	17093.77	3.9630	3.9630	0.8464	25.94	0.49	0.750			
0.2696	17256.01	3.9600	3.9600	0.8474	25.94	0.49	0.750			
0.2722	17417.86	3.9570	3.9570	0.8465	25.93	0.48	0.750			
0.2747	17581.80	3.9540	3.9540	0.8513	25.93	0.48	0.750			
0.2773	17744.40	3.9510	3.9510	0.8539	25.92	0.47	0.750			
0.2798	17909.45	3.9480	3.9478	0.8566	25.92	0.47	0.750			
0.2824	18073.69	3.9450	3.9451	0.8571	25.91	0.46	0.750			
0.2850	18239.56	3.9420	3.9420	0.8559	25.91	0.46	0.750			
0.2876	18404.16	3.9390	3.9390	0.8586	25.90	0.45	0.750			
0.2901	18568.23	3.9360	3.9360	0.8574	25.90	0.45	0.750			
0.2927	18732.20	3.9330	3.9329	0.8610	25.89	0.44	0.750			
0.2953	18898.29	3.9300	3.9299	0.8601	25.88	0.43	0.750			
0.2979	19063.84	3.9270	3.9271	0.8643	25.88	0.43	0.750			
0.3005	19230.76	3.9240	3.9240	0.8667	25.87	0.42	0.750			
0.3031	19397.86	3.9210	3.9210	0.8669	25.86	0.41	0.750			
0.3057	19563.29	3.9180	3.9180	0.8645	25.86	0.41	0.750			
0.3083	19729.93	3.9150	3.9150	0.8647	25.85	0.40	0.750			
0.3109	19895.62	3.9120	3.9120	0.8665	25.85	0.40	0.750			
0.3135	20062.56	3.9090	3.9090	0.8706	25.85	0.40	0.750			
0.3161	20228.88	3.9060	3.9060	0.8694	25.84	0.39	0.750			
0.3187	20396.04	3.9030	3.9030	0.8737	25.84	0.39	0.750			
0.3213	20565.27	3.9000	3.9000	0.8726	25.83	0.38	0.750			
0.3239	20731.49	3.8970	3.8970	0.8787	25.81	0.36	0.750			
0.3266	20900.35	3.8940	3.8940	0.8839	25.80	0.35	0.750			
0.3292	21069.93	3.8910	3.8910	0.8873	25.79	0.34	0.750			
0.3319	21241.48	3.8880	3.8880	0.8924	25.79	0.34	0.750			
0.3346	21414.51	3.8850	3.8850	0.8972	25.78	0.33	0.750			
0.3373	21587.03	3.8820	3.8821	0.9008	25.77	0.32	0.750			
0.3400	21761.19	3.8790	3.8790	0.9065	25.77	0.32	0.750			
0.3427	21933.45	3.8760	3.8760	0.9055	25.76	0.31	0.750			
0.3455	22109.28	3.8730	3.8730	0.9065	25.75	0.30	0.750			
0.3482	22283.41	3.8700	3.8700	0.9085	25.73	0.28	0.750			
0.3509	22457.67	3.8670	3.8671	0.9095	25.72	0.27	0.750			
0.3536	22631.59	3.8640	3.8640	0.9147	25.71	0.26	0.750			
0.3564	22806.42	3.8610	3.8609	0.9193	25.69	0.24	0.750			
0.3591	22983.14	3.8580	3.8580	0.9180	25.68	0.23	0.750			
0.3619	23160.47	3.8550	3.8550	0.9246	25.67	0.22	0.750			
0.3647	23340.64	3.8520	3.8521	0.9311	25.65	0.20	0.750			
0.3675	23518.92	3.8490	3.8487	0.9300	25.64	0.19	0.750			
0.3703	23697.74	3.8460	3.8461	0.9277	25.63	0.18	0.750			
0.3731	23875.22	3.8430	3.8430	0.9277	25.62	0.17	0.750			
0.3759	24054.76	3.8400	3.8400	0.9251	25.61	0.16	0.750			
0.3786	24231.30	3.8370	3.8370	0.9205	25.60	0.15	0.750			
0.3814	24407.74	3.8340	3.8340	0.9202	25.59	0.14	0.750			
0.3841	24585.48	3.8310	3.8310	0.9158	25.58	0.13	0.750			
0.3869	24761.56	3.8280	3.8280	0.9089	25.57	0.12	0.750			
0.3896	24936.40	3.8250	3.8250	0.9036	25.55	0.10	0.750			
0.3923	25109.38	3.8220	3.8219	0.8895	25.54	0.09	0.750			
0.3950	25281.35	3.8190	3.8190	0.8752	25.53	0.08	0.750			
0.3976	25447.52	3.8160	3.8160	0.8484	25.52	0.07	0.750			
0.4002	25610.55	3.8130	3.8130	0.8227	25.50	0.05	0.750			
0.4026	25766.38	3.8100	3.8100	0.7901	25.49	0.04	0.750			
0.4049	25915.46	3.8070	3.8068	0.7553	25.48	0.03	0.750			
0.4071	26057.37	3.8040	3.8040	0.7148	25.48	0.03	0.750			
0.4092	26191.69	3.8010	3.8010	0.6753	25.47	0.02	0.750			
0.4112	26318.20	3.7980	3.7980	0.6369	25.47	0.02	0.750			
0.4131	26436.29	3.7950	3.7950	0.5959	25.46	0.01	0.750			
0.4148	26545.89	3.7920	3.7919	0.5550	25.46	0.01	0.750			
0.4164	26648.04	3.7890	3.7890	0.5163	25.45	0.00	0.750			
0.4179	26742.95	3.7860	3.7860	0.4798	25.45	-0.00	0.750			
0.4192	26830.96	3.7830	3.7830	0.4479	25.45	-0.00	0.750			
0.4205	26913.46	3.7800	3.7801	0.4160	25.44	-0.01	0.750			
0.4217	26989.72	3.7770	3.7769	0.3857	25.44	-0.01	0.750			
0.4228	27060.52	3.7740	3.7740	0.3584	25.44	-0.01	0.750			
0.4239	27126.46	3.7710	3.7711	0.3320	25.43	-0.02	0.750			
0.4248	27187.58	3.7680	3.7680	0.3070	25.43	-0.02	0.750			
0.4257	27244.18	3.7650	3.7650	0.2822	25.43	-0.02	0.750			
0.4265	27295.71	3.7620	3.7620	0.2575	25.43	-0.02	0.750			
0.4272	27342.92	3.7590	3.7589	0.2339	25.43	-0.02	0.750			
0.4279	27385.88	3.7560	3.7560	0.2087	25.43	-0.02	0.750			
0.4285	27423.40	3.7530	3.7530	0.1832	25.42	-0.03	0.750			
0.4290	27456.61	3.7500	3.7500	0.1578	25.42	-0.03	0.750			
0.4294	27484.35	3.7470	3.7471	0.1312	25.42	-0.03	0.750			
0.4298	27506.94	3.7440	3.7442	0.1034	25.42	-0.03	0.750			
