Ah_balance (normalized)	Ah_balance (mAh)	Voltage - fit (V)	Voltage -  interpolate (V)	dQ/dV (1/V)	Temperature (°C)	Temperature - diff (°C)	Current (C)	R_DC 0ms (mOhm)	R_DC 50ms (mOhm)	R_DC 50 ms PEC (mOhm)
0.1942	12431.73	3.9380	3.9378	-0.1158	25.71	0.00	-0.750			
0.1946	12456.83	3.9350	3.9349	-0.1541	25.71	0.00	-0.750			
0.1952	12490.78	3.9320	3.9321	-0.2037	25.71	0.00	-0.750			
0.1959	12535.86	3.9290	3.9290	-0.2522	25.71	0.00	-0.750			
0.1967	12589.28	3.9260	3.9259	-0.2988	25.71	0.00	-0.750			
0.1977	12652.24	3.9230	3.9230	-0.3430	25.71	0.00	-0.750			
0.1988	12722.02	3.9200	3.9201	-0.3858	25.71	0.00	-0.750			
0.2000	12800.79	3.9170	3.9172	-0.4278	25.71	-0.00	-0.750			
0.2014	12887.50	3.9140	3.9140	-0.4653	25.71	-0.00	-0.750			
0.2028	12981.58	3.9110	3.9109	-0.4989	25.71	-0.00	-0.750			
0.2044	13081.98	3.9080	3.9080	-0.5325	25.71	-0.00	-0.750			
0.2061	13188.23	3.9050	3.9051	-0.5630	25.71	-0.00	-0.750			
0.2078	13299.33	3.9020	3.9020	-0.5860	25.70	-0.01	-0.750			
0.2096	13414.70	3.8990	3.8989	-0.6049	25.70	-0.01	-0.750			
0.2115	13533.88	3.8960	3.8960	-0.6196	25.70	-0.01	-0.750			
0.2134	13655.60	3.8930	3.8930	-0.6356	25.70	-0.01	-0.750			
0.2153	13778.32	3.8900	3.8901	-0.6486	25.70	-0.01	-0.750			
0.2172	13903.43	3.8870	3.8869	-0.6596	25.70	-0.01	-0.750			
0.2192	14031.32	3.8840	3.8840	-0.6698	25.69	-0.02	-0.750			
0.2213	14162.07	3.8810	3.8810	-0.6759	25.69	-0.02	-0.750			
0.2234	14294.41	3.8780	3.8780	-0.6838	25.69	-0.02	-0.750			
0.2254	14426.19	3.8750	3.8751	-0.6885	25.69	-0.02	-0.750			
0.2275	14558.27	3.8720	3.8719	-0.6892	25.69	-0.02	-0.750			
0.2295	14690.01	3.8690	3.8690	-0.6932	25.69	-0.02	-0.750			
0.2316	14823.46	3.8660	3.8661	-0.6958	25.69	-0.02	-0.750			
0.2337	14958.47	3.8630	3.8630	-0.6987	25.69	-0.02	-0.750			
0.2358	15092.86	3.8600	3.8600	-0.7029	25.69	-0.02	-0.750			
0.2379	15227.87	3.8570	3.8571	-0.7043	25.69	-0.02	-0.750			
0.2400	15363.06	3.8540	3.8540	-0.7056	25.69	-0.02	-0.750			
0.2422	15499.05	3.8510	3.8510	-0.7090	25.69	-0.02	-0.750			
0.2443	15635.16	3.8480	3.8480	-0.7092	25.69	-0.02	-0.750			
0.2464	15772.58	3.8450	3.8450	-0.7107	25.69	-0.02	-0.750			
0.2486	15908.82	3.8420	3.8420	-0.7093	25.69	-0.02	-0.750			
0.2507	16044.44	3.8390	3.8390	-0.7072	25.69	-0.02	-0.750			
0.2528	16180.78	3.8360	3.8361	-0.7059	25.69	-0.02	-0.750			
0.2549	16315.60	3.8330	3.8330	-0.7058	25.69	-0.02	-0.750			
0.2570	16450.50	3.8300	3.8301	-0.7052	25.68	-0.03	-0.750			
0.2592	16586.30	3.8270	3.8270	-0.7064	25.68	-0.03	-0.750			
0.2613	16722.69	3.8240	3.8239	-0.7050	25.68	-0.03	-0.750			
0.2634	16857.73	3.8210	3.8210	-0.7033	25.68	-0.03	-0.750			
0.2655	16992.50	3.8180	3.8180	-0.7027	25.68	-0.03	-0.750			
0.2676	17126.59	3.8150	3.8150	-0.7057	25.68	-0.03	-0.750			
0.2697	17261.88	3.8120	3.8119	-0.7013	25.68	-0.03	-0.750			
0.2718	17397.02	3.8090	3.8090	-0.7026	25.68	-0.03	-0.750			
0.2739	17532.21	3.8060	3.8060	-0.7034	25.68	-0.03	-0.750			
0.2761	17667.58	3.8030	3.8030	-0.7040	25.68	-0.03	-0.750			
0.2782	17802.18	3.8000	3.7999	-0.7025	25.68	-0.03	-0.750			
0.2803	17936.77	3.7970	3.7970	-0.7024	25.68	-0.03	-0.750			
0.2824	18071.24	3.7940	3.7940	-0.6995	25.69	-0.02	-0.750			
0.2845	18206.78	3.7910	3.7910	-0.7032	25.69	-0.02	-0.750			
0.2866	18341.00	3.7880	3.7880	-0.7038	25.69	-0.02	-0.750			
0.2887	18476.26	3.7850	3.7850	-0.7043	25.69	-0.02	-0.750			
0.2908	18611.24	3.7820	3.7820	-0.7053	25.69	-0.02	-0.750			
0.2929	18746.81	3.7790	3.7790	-0.7092	25.69	-0.02	-0.750			
0.2950	18883.20	3.7760	3.7760	-0.7123	25.69	-0.02	-0.750			
0.2972	19020.43	3.7730	3.7730	-0.7157	25.69	-0.02	-0.750			
0.2993	19157.73	3.7700	3.7700	-0.7184	25.69	-0.02	-0.750			
0.3015	19296.35	3.7670	3.7670	-0.7217	25.69	-0.02	-0.750			
0.3037	19435.80	3.7640	3.7640	-0.7249	25.69	-0.02	-0.750			
0.3059	19574.94	3.7610	3.7610	-0.7301	25.69	-0.02	-0.750			
0.3080	19715.17	3.7580	3.7580	-0.7320	25.70	-0.01	-0.750			
0.3103	19856.77	3.7550	3.7550	-0.7360	25.70	-0.01	-0.750			
0.3125	19997.91	3.7520	3.7522	-0.7415	25.70	-0.01	-0.750			
0.3147	20140.15	3.7490	3.7490	-0.7465	25.70	-0.01	-0.750			
0.3169	20283.81	3.7460	3.7460	-0.7551	25.70	-0.01	-0.750			
0.3192	20428.82	3.7430	3.7430	-0.7614	25.69	-0.02	-0.750			
0.3215	20576.53	3.7400	3.7400	-0.7715	25.69	-0.02	-0.750			
0.3238	20725.62	3.7370	3.7370	-0.7785	25.69	-0.02	-0.750			
0.3262	20875.66	3.7340	3.7340	-0.7871	25.69	-0.02	-0.750			
0.3285	21026.40	3.7310	3.7310	-0.7959	25.69	-0.02	-0.750			
0.3309	21180.51	3.7280	3.7280	-0.8027	25.69	-0.02	-0.750			
0.3334	21335.26	3.7250	3.7250	-0.8110	25.68	-0.03	-0.750			
0.3358	21492.40	3.7220	3.7220	-0.8211	25.68	-0.03	-0.750			
0.3383	21650.45	3.7190	3.7190	-0.8328	25.68	-0.03	-0.750			
0.3408	21810.57	3.7160	3.7160	-0.8470	25.68	-0.03	-0.750			
0.3434	21974.59	3.7130	3.7130	-0.8558	25.68	-0.03	-0.750			
0.3459	22140.70	3.7100	3.7099	-0.8660	25.67	-0.04	-0.750			
0.3486	22308.81	3.7070	3.7070	-0.8809	25.67	-0.04	-0.750			
0.3512	22478.85	3.7040	3.7041	-0.8908	25.67	-0.04	-0.750			
0.3539	22650.06	3.7010	3.7009	-0.9026	25.66	-0.05	-0.750			
0.3566	22822.83	3.6980	3.6980	-0.9137	25.65	-0.06	-0.750			
0.3594	22999.35	3.6950	3.6950	-0.9276	25.65	-0.06	-0.750			
0.3622	23180.78	3.6920	3.6920	-0.9493	25.64	-0.07	-0.750			
0.3651	23365.00	3.6890	3.6890	-0.9681	25.64	-0.07	-0.750			
0.3680	23551.92	3.6860	3.6860	-0.9850	25.64	-0.07	-0.750			
0.3710	23743.28	3.6830	3.6829	-1.0054	25.64	-0.07	-0.750			
0.3740	23938.10	3.6800	3.6799	-1.0236	25.64	-0.07	-0.750			
0.3771	24136.02	3.6770	3.6769	-1.0462	25.64	-0.07	-0.750			
0.3803	24339.46	3.6740	3.6740	-1.0639	25.63	-0.08	-0.750			
0.3835	24545.41	3.6710	3.6710	-1.0845	25.63	-0.08	-0.750			
0.3868	24754.75	3.6680	3.6681	-1.1039	25.62	-0.09	-0.750			
0.3901	24969.55	3.6650	3.6650	-1.1301	25.62	-0.09	-0.750			
0.3936	25187.71	3.6620	3.6620	-1.1574	25.61	-0.10	-0.750			
0.3971	25412.14	3.6590	3.6590	-1.1824	25.60	-0.11	-0.750			
0.4006	25641.19	3.6560	3.6560	-1.2136	25.60	-0.11	-0.750			
0.4044	25879.49	3.6530	3.6530	-1.2475	25.59	-0.12	-0.750			
0.4081	26121.13	3.6500	3.6500	-1.2746	25.59	-0.12	-0.750			
0.4120	26369.70	3.6470	3.6471	-1.3061	25.58	-0.13	-0.750			
0.4160	26623.71	3.6440	3.6440	-1.3337	25.58	-0.13	-0.750			
0.4200	26882.62	3.6410	3.6410	-1.3581	25.57	-0.14	-0.750			
0.4242	27146.75	3.6380	3.6381	-1.3831	25.57	-0.14	-0.750			
0.4283	27412.99	3.6350	3.6350	-1.4062	25.57	-0.14	-0.750			
0.4326	27684.90	3.6320	3.6320	-1.4431	25.56	-0.15	-0.750			
0.4369	27964.68	3.6290	3.6289	-1.4756	25.56	-0.15	-0.750			
0.4414	28249.89	3.6260	3.6260	-1.5133	25.55	-0.16	-0.750			
0.4461	28548.56	3.6230	3.6232	-1.5516	25.55	-0.16	-0.750			
0.4508	28850.61	3.6200	3.6200	-1.5846	25.54	-0.17	-0.750			
0.4556	29159.49	3.6170	3.6171	-1.6215	25.54	-0.17	-0.750			
0.4605	29472.46	3.6140	3.6140	-1.6484	25.54	-0.17	-0.750			
0.4655	29791.98	3.6110	3.6108	-1.6721	25.54	-0.17	-0.750			
0.4706	30115.36	3.6080	3.6081	-1.7124	25.53	-0.18	-0.750			
0.4757	30445.87	3.6050	3.6050	-1.7413	25.53	-0.18	-0.750			
0.4810	30783.51	3.6020	3.6021	-1.7822	25.53	-0.18	-0.750			
0.4864	31130.05	3.5990	3.5990	-1.8145	25.52	-0.19	-0.750			
0.4919	31480.94	3.5960	3.5961	-1.8536	25.52	-0.19	-0.750			
0.4976	31843.73	3.5930	3.5930	-1.8801	25.52	-0.19	-0.750			
0.5033	32212.09	3.5900	3.5900	-1.9044	25.52	-0.19	-0.750			
0.5090	32574.74	3.5870	3.5871	-1.9238	25.52	-0.19	-0.750			
0.5148	32945.00	3.5840	3.5840	-1.9527	25.52	-0.19	-0.750			
0.5207	33323.26	3.5810	3.5809	-1.9772	25.52	-0.19	-0.750			
0.5266	33702.69	3.5780	3.5780	-2.0195	25.52	-0.19	-0.750			
0.5328	34100.94	3.5750	3.5750	-2.0327	25.52	-0.19	-0.750			
0.5390	34496.69	3.5720	3.5720	-2.0697	25.52	-0.19	-0.750	0.382	0.553	
0.5451	34889.45	3.5690	3.5692	-2.0710	25.52	-0.19	-0.750			
0.5514	35292.75	3.5660	3.5658	-2.0767	25.52	-0.19	-0.750			
0.5576	35689.50	3.5630	3.5631	-2.0806	25.53	-0.18	-0.750			
0.5638	36085.99	3.5600	3.5601	-2.0992	25.53	-0.18	-0.750			
0.5703	36497.10	3.5570	3.5568	-2.1160	25.54	-0.17	-0.750			
0.5766	36901.62	3.5540	3.5540	-2.1107	25.54	-0.17	-0.750			
0.5829	37307.43	3.5510	3.5511	-2.1171	25.54	-0.17	-0.750			
0.5893	37718.17	3.5480	3.5479	-2.1175	25.54	-0.17	-0.750			
0.5957	38123.37	3.5450	3.5450	-2.1011	25.54	-0.17	-0.750			
0.6019	38522.49	3.5420	3.5421	-2.0892	25.54	-0.17	-0.750			
0.6083	38930.12	3.5390	3.5390	-2.0744	25.55	-0.16	-0.750			
0.6145	39328.80	3.5360	3.5359	-2.0466	25.55	-0.16	-0.750			
0.6205	39715.07	3.5330	3.5331	-2.0079	25.56	-0.15	-0.750			
0.6266	40101.20	3.5300	3.5299	-1.9679	25.56	-0.15	-0.750			
0.6324	40473.29	3.5270	3.5270	-1.9277	25.57	-0.14	-0.750			
0.6381	40839.79	3.5240	3.5241	-1.8797	25.58	-0.13	-0.750			
0.6437	41198.41	3.5210	3.5209	-1.8475	25.59	-0.12	-0.750			
0.6492	41547.72	3.5180	3.5180	-1.8013	25.60	-0.11	-0.750			
0.6546	41892.38	3.5150	3.5149	-1.7622	25.61	-0.10	-0.750			
0.6598	42225.46	3.5120	3.5120	-1.7186	25.62	-0.09	-0.750			
0.6649	42552.51	3.5090	3.5091	-1.6707	25.63	-0.08	-0.750			
0.6698	42868.26	3.5060	3.5059	-1.6266	25.64	-0.07	-0.750			
0.6746	43177.60	3.5030	3.5031	-1.5791	25.66	-0.05	-0.750			
0.6793	43473.85	3.5000	3.5000	-1.5323	25.67	-0.04	-0.750			
0.6838	43763.35	3.4970	3.4970	-1.4834	25.68	-0.03	-0.750			
0.6882	44045.80	3.4940	3.4941	-1.4405	25.69	-0.02	-0.750			
0.6925	44316.81	3.4910	3.4911	-1.3971	25.70	-0.01	-0.750			
0.6966	44582.17	3.4880	3.4880	-1.3558	25.71	0.00	-0.750			
0.7006	44837.13	3.4850	3.4850	-1.3144	25.72	0.01	-0.750			
0.7045	45085.22	3.4820	3.4820	-1.2754	25.73	0.02	-0.750			
0.7082	45325.31	3.4790	3.4790	-1.2368	25.75	0.04	-0.750			
0.7119	45560.18	3.4760	3.4759	-1.2032	25.76	0.05	-0.750			
0.7154	45786.07	3.4730	3.4730	-1.1759	25.77	0.06	-0.750			
0.7189	46007.60	3.4700	3.4700	-1.1526	25.78	0.07	-0.750			
0.7223	46226.29	3.4670	3.4669	-1.1322	25.79	0.08	-0.750			
0.7256	46440.57	3.4640	3.4641	-1.1179	25.80	0.09	-0.750			
0.7290	46652.82	3.4610	3.4610	-1.1070	25.81	0.10	-0.750			
0.7323	46864.09	3.4580	3.4580	-1.0980	25.82	0.11	-0.750			
0.7355	47073.18	3.4550	3.4549	-1.0881	25.83	0.12	-0.750			
0.7388	47281.75	3.4520	3.4520	-1.0847	25.83	0.12	-0.750			
0.7420	47488.64	3.4490	3.4491	-1.0810	25.84	0.13	-0.750			
0.7453	47697.18	3.4460	3.4459	-1.0737	25.86	0.15	-0.750			
0.7484	47900.46	3.4430	3.4430	-1.0686	25.87	0.16	-0.750			
0.7517	48106.24	3.4400	3.4400	-1.0723	25.87	0.16	-0.750			
0.7549	48312.81	3.4370	3.4370	-1.0701	25.88	0.17	-0.750			
0.7581	48519.41	3.4340	3.4339	-1.0637	25.89	0.18	-0.750			
0.7613	48723.30	3.4310	3.4311	-1.0556	25.90	0.19	-0.750			
0.7645	48926.08	3.4280	3.4280	-1.0441	25.90	0.19	-0.750			
0.7676	49127.58	3.4250	3.4250	-1.0350	25.91	0.20	-0.750			
0.7707	49323.09	3.4220	3.4220	-1.0161	25.91	0.20	-0.750			
0.7737	49516.18	3.4190	3.4190	-0.9967	25.92	0.21	-0.750			
0.7767	49708.10	3.4160	3.4160	-0.9833	25.92	0.21	-0.750			
0.7796	49895.54	3.4130	3.4130	-0.9659	25.93	0.22	-0.750			
0.7825	50080.64	3.4100	3.4100	-0.9410	25.94	0.23	-0.750			
0.7853	50259.41	3.4070	3.4069	-0.9152	25.95	0.24	-0.750			
0.7880	50431.75	3.4040	3.4041	-0.8926	25.95	0.24	-0.750			
0.7906	50600.88	3.4010	3.4009	-0.8671	25.96	0.25	-0.750			
0.7932	50765.19	3.3980	3.3979	-0.8434	25.96	0.25	-0.750			
0.7957	50924.66	3.3950	3.3951	-0.8160	25.97	0.26	-0.750			
0.7981	51080.53	3.3920	3.3920	-0.7945	25.98	0.27	-0.750			
0.8005	51231.12	3.3890	3.3890	-0.7632	25.98	0.27	-0.750			
0.8027	51374.78	3.3860	3.3860	-0.7314	25.98	0.27	-0.750			
0.8049	51511.27	3.3830	3.3830	-0.6996	25.99	0.28	-0.750			
0.8069	51642.92	3.3800	3.3799	-0.6694	25.99	0.28	-0.750			
0.8089	51768.71	3.3770	3.3770	-0.6400	25.99	0.28	-0.750			
0.8107	51887.55	3.3740	3.3740	-0.6104	26.00	0.29	-0.750			
0.8125	52001.55	3.3710	3.3711	-0.5814	26.00	0.29	-0.750			
0.8142	52111.20	3.3680	3.3680	-0.5549	26.01	0.30	-0.750			
0.8158	52214.34	3.3650	3.3650	-0.5278	26.01	0.30	-0.750			
0.8174	52312.89	3.3620	3.3619	-0.5027	26.02	0.31	-0.750			
0.8188	52406.37	3.3590	3.3591	-0.4788	26.02	0.31	-0.750			
0.8202	52495.53	3.3560	3.3560	-0.4575	26.03	0.32	-0.750			
0.8216	52580.84	3.3530	3.3530	-0.4353	26.03	0.32	-0.750			
0.8229	52662.85	3.3500	3.3499	-0.4170	26.03	0.32	-0.750			
0.8241	52740.29	3.3470	3.3470	-0.4000	26.04	0.33	-0.750			
0.8252	52815.35	3.3440	3.3440	-0.3827	26.04	0.33	-0.750			
0.8264	52886.85	3.3410	3.3410	-0.3675	26.05	0.34	-0.750			
0.8274	52955.76	3.3380	3.3380	-0.3540	26.05	0.34	-0.750			
0.8285	53022.06	3.3350	3.3350	-0.3385	26.05	0.34	-0.750			
0.8295	53085.91	3.3320	3.3320	-0.3270	26.06	0.35	-0.750			
0.8304	53146.39	3.3290	3.3290	-0.3156	26.06	0.35	-0.750			
0.8313	53205.68	3.3260	3.3260	-0.3050	26.07	0.36	-0.750			
0.8322	53263.47	3.3230	3.3229	-0.2965	26.07	0.36	-0.750			
0.8331	53319.39	3.3200	3.3200	-0.2871	26.07	0.36	-0.750			
0.8340	53373.72	3.3170	3.3171	-0.2796	26.08	0.37	-0.750			
0.8348	53427.17	3.3140	3.3140	-0.2725	26.08	0.37	-0.750			
0.8356	53477.90	3.3110	3.3110	-0.2631	26.08	0.37	-0.750			
0.8364	53527.56	3.3080	3.3079	-0.2555	26.09	0.38	-0.750			
0.8371	53575.98	3.3050	3.3050	-0.2496	26.09	0.38	-0.750			
0.8379	53623.07	3.3020	3.3020	-0.2426	26.09	0.38	-0.750			
0.8386	53668.90	3.2990	3.2990	-0.2373	26.10	0.39	-0.750			
0.8393	53713.74	3.2960	3.2959	-0.2323	26.10	0.39	-0.750			
0.8400	53757.44	3.2930	3.2930	-0.2270	26.10	0.39	-0.750			
0.8406	53800.73	3.2900	3.2900	-0.2230	26.11	0.40	-0.750			
0.8413	53842.99	3.2870	3.2870	-0.2186	26.11	0.40	-0.750			
0.8420	53884.88	3.2840	3.2840	-0.2146	26.11	0.40	-0.750			
0.8426	53925.45	3.2810	3.2810	-0.2102	26.12	0.41	-0.750			
0.8432	53965.40	3.2780	3.2780	-0.2060	26.12	0.41	-0.750			
0.8438	54004.31	3.2750	3.2750	-0.2023	26.12	0.41	-0.750			
0.8444	54042.65	3.2720	3.2719	-0.1987	26.12	0.41	-0.750			
0.8450	54080.37	3.2690	3.2690	-0.1956	26.13	0.42	-0.750			
0.8456	54117.65	3.2660	3.2661	-0.1928	26.13	0.42	-0.750			
0.8462	54154.33	3.2630	3.2630	-0.1899	26.13	0.42	-0.750			
0.8467	54190.55	3.2600	3.2600	-0.1876	26.13	0.42	-0.750			
0.8473	54226.19	3.2570	3.2570	-0.1848	26.14	0.43	-0.750			
0.8478	54261.52	3.2540	3.2540	-0.1819	26.14	0.43	-0.750			
0.8484	54296.18	3.2510	3.2510	-0.1792	26.14	0.43	-0.750			
0.8489	54330.40	3.2480	3.2481	-0.1768	26.15	0.44	-0.750			
0.8494	54363.92	3.2450	3.2450	-0.1746	26.15	0.44	-0.750			
0.8500	54397.10	3.2420	3.2420	-0.1722	26.15	0.44	-0.750			
0.8505	54429.79	3.2390	3.2390	-0.1706	26.15	0.44	-0.750			
0.8510	54462.22	3.2360	3.2360	-0.1686	26.16	0.45	-0.750			
0.8515	54494.71	3.2330	3.2330	-0.1674	26.16	0.45	-0.750			
0.8520	54526.68	3.2300	3.2300	-0.1656	26.17	0.46	-0.750			
0.8525	54558.44	3.2270	3.2270	-0.1636	26.17	0.46	-0.750			
0.8530	54589.85	3.2240	3.2240	-0.1616	26.17	0.46	-0.750			
0.8534	54620.54	3.2210	3.2210	-0.1591	26.18	0.47	-0.750			
0.8539	54650.86	3.2180	3.2180	-0.1568	26.18	0.47	-0.750			
0.8544	54680.56	3.2150	3.2150	-0.1551	26.18	0.47	-0.750			
0.8548	54710.17	3.2120	3.2120	-0.1531	26.19	0.48	-0.750			
0.8553	54739.11	3.2090	3.2090	-0.1518	26.19	0.48	-0.750			
0.8558	54768.17	3.2060	3.2060	-0.1508	26.19	0.48	-0.750			
0.8562	54797.03	3.2030	3.2030	-0.1493	26.20	0.49	-0.750			
0.8567	54825.60	3.2000	3.1999	-0.1483	26.20	0.49	-0.750			
0.8571	54854.05	3.1970	3.1971	-0.1469	26.20	0.49	-0.750			
0.8575	54882.13	3.1940	3.1940	-0.1455	26.21	0.50	-0.750			
0.8580	54909.85	3.1910	3.1909	-0.1444	26.21	0.50	-0.750			
0.8584	54937.60	3.1880	3.1880	-0.1433	26.21	0.50	-0.750			
0.8588	54964.65	3.1850	3.1850	-0.1415	26.21	0.50	-0.750			
0.8592	54991.75	3.1820	3.1820	-0.1407	26.22	0.51	-0.750			
0.8597	55018.86	3.1790	3.1790	-0.1397	26.22	0.51	-0.750			
0.8601	55045.55	3.1760	3.1759	-0.1383	26.22	0.51	-0.750			
0.8605	55072.12	3.1730	3.1730	-0.1373	26.23	0.52	-0.750			
0.8609	55098.33	3.1700	3.1701	-0.1357	26.23	0.52	-0.750			
0.8613	55124.21	3.1670	3.1670	-0.1343	26.23	0.52	-0.750			
0.8617	55149.92	3.1640	3.1639	-0.1329	26.24	0.53	-0.750			
0.8621	55175.10	3.1610	3.1610	-0.1314	26.24	0.53	-0.750			
0.8625	55200.23	3.1580	3.1580	-0.1304	26.24	0.53	-0.750			
0.8629	55225.11	3.1550	3.1551	-0.1297	26.25	0.54	-0.750			
0.8633	55249.82	3.1520	3.1519	-0.1289	26.25	0.54	-0.750			
0.8637	55274.52	3.1490	3.1490	-0.1284	26.25	0.54	-0.750			
0.8641	55299.23	3.1460	3.1460	-0.1270	26.26	0.55	-0.750			
0.8644	55323.51	3.1430	3.1430	-0.1259	26.26	0.55	-0.750			
0.8648	55347.75	3.1400	3.1401	-0.1248	26.27	0.56	-0.750			
0.8652	55371.69	3.1370	3.1370	-0.1235	26.27	0.56	-0.750			
0.8655	55395.11	3.1340	3.1340	-0.1228	26.27	0.56	-0.750			
0.8659	55418.44	3.1310	3.1310	-0.1218	26.28	0.57	-0.750			
0.8663	55441.57	3.1280	3.1280	-0.1207	26.28	0.57	-0.750			
0.8666	55464.71	3.1250	3.1250	-0.1203	26.28	0.57	-0.750			
0.8670	55487.89	3.1220	3.1220	-0.1198	26.29	0.58	-0.750			
0.8674	55510.82	3.1190	3.1190	-0.1191	26.29	0.58	-0.750			
0.8677	55533.76	3.1160	3.1160	-0.1182	26.30	0.59	-0.750			
0.8681	55556.35	3.1130	3.1130	-0.1171	26.30	0.59	-0.750			
0.8684	55578.65	3.1100	3.1100	-0.1163	26.30	0.59	-0.750			
0.8688	55600.89	3.1070	3.1070	-0.1154	26.31	0.60	-0.750			
0.8691	55623.04	3.1040	3.1040	-0.1145	26.31	0.60	-0.750			
0.8695	55644.91	3.1010	3.1010	-0.1134	26.31	0.60	-0.750			
0.8698	55666.53	3.0980	3.0981	-0.1125	26.32	0.61	-0.750			
0.8701	55688.05	3.0950	3.0949	-0.1117	26.32	0.61	-0.750			
0.8705	55709.43	3.0920	3.0920	-0.1110	26.32	0.61	-0.750			
0.8708	55730.66	3.0890	3.0890	-0.1102	26.33	0.62	-0.750			
0.8711	55751.58	3.0860	3.0860	-0.1094	26.33	0.62	-0.750			
0.8714	55772.54	3.0830	3.0830	-0.1090	26.33	0.62	-0.750			
0.8718	55793.54	3.0800	3.0800	-0.1082	26.34	0.63	-0.750			
0.8721	55814.24	3.0770	3.0769	-0.1074	26.34	0.63	-0.750			
0.8724	55834.79	3.0740	3.0741	-0.1067	26.34	0.63	-0.750			
0.8727	55855.21	3.0710	3.0710	-0.1060	26.35	0.64	-0.750			
0.8731	55875.49	3.0680	3.0679	-0.1052	26.35	0.64	-0.750			
0.8734	55895.61	3.0650	3.0650	-0.1044	26.35	0.64	-0.750			
0.8737	55915.49	3.0620	3.0621	-0.1035	26.35	0.64	-0.750			
0.8740	55935.31	3.0590	3.0590	-0.1029	26.35	0.64	-0.750			
0.8743	55955.09	3.0560	3.0560	-0.1023	26.36	0.65	-0.750			
0.8746	55974.65	3.0530	3.0530	-0.1015	26.36	0.65	-0.750			
0.8749	55993.93	3.0500	3.0501	-0.1009	26.36	0.65	-0.750			
0.8752	56013.25	3.0470	3.0469	-0.1004	26.36	0.65	-0.750			
0.8755	56032.53	3.0440	3.0440	-0.0997	26.36	0.65	-0.750			
0.8758	56051.60	3.0410	3.0410	-0.0990	26.37	0.66	-0.750			
0.8761	56070.52	3.0380	3.0381	-0.0985	26.37	0.66	-0.750			
0.8764	56089.37	3.0350	3.0350	-0.0979	26.37	0.66	-0.750			
0.8767	56108.22	3.0320	3.0319	-0.0971	26.37	0.66	-0.750			
0.8770	56126.78	3.0290	3.0290	-0.0962	26.37	0.66	-0.750			
0.8773	56145.09	3.0260	3.0261	-0.0954	26.38	0.67	-0.750			
0.8776	56163.35	3.0230	3.0230	-0.0947	26.38	0.67	-0.750			
0.8778	56181.41	3.0200	3.0200	-0.0943	26.38	0.67	-0.750			
0.8781	56199.47	3.0170	3.0170	-0.0938	26.38	0.67	-0.750			
0.8784	56217.24	3.0140	3.0140	-0.0933	26.38	0.67	-0.750			
0.8787	56235.15	3.0110	3.0110	-0.0933	26.39	0.68	-0.750			
0.8790	56253.08	3.0080	3.0080	-0.0932	26.39	0.68	-0.750			
0.8792	56270.96	3.0050	3.0050	-0.0931	26.39	0.68	-0.750			
0.8795	56288.82	3.0020	3.0020	-0.0928	26.39	0.68	-0.750			
