Ah_balance (normalized)	Ah_balance (mAh)	Voltage - fit (V)	Voltage -  interpolate (V)	dQ/dV (1/V)	Temperature (°C)	Temperature - diff (°C)	Current (C)	R_DC 0ms (mOhm)	R_DC 50ms (mOhm)	R_DC 50 ms PEC (mOhm)
0.2376	15209.10	3.9730	3.9731	0.8961	26.04	0.09	0.750			
0.2403	15379.25	3.9700	3.9700	0.8843	26.05	0.10	0.750			
0.2429	15547.30	3.9670	3.9670	0.8801	26.05	0.10	0.750			
0.2456	15715.98	3.9640	3.9640	0.8779	26.05	0.10	0.750			
0.2482	15882.95	3.9610	3.9609	0.8791	26.06	0.11	0.750			
0.2508	16051.56	3.9580	3.9580	0.8827	26.06	0.11	0.750			
0.2535	16221.35	3.9550	3.9550	0.8861	26.07	0.12	0.750			
0.2561	16392.80	3.9520	3.9520	0.8890	26.07	0.12	0.750			
0.2588	16563.73	3.9490	3.9490	0.8915	26.08	0.13	0.750			
0.2615	16735.02	3.9460	3.9460	0.8941	26.08	0.13	0.750			
0.2642	16908.94	3.9430	3.9430	0.8917	26.08	0.13	0.750			
0.2669	17079.18	3.9400	3.9400	0.8901	26.09	0.14	0.750			
0.2695	17249.11	3.9370	3.9370	0.8958	26.09	0.14	0.750			
0.2722	17421.52	3.9340	3.9341	0.8981	26.10	0.15	0.750			
0.2749	17593.44	3.9310	3.9308	0.9019	26.10	0.15	0.750			
0.2776	17766.76	3.9280	3.9281	0.9034	26.10	0.15	0.750			
0.2803	17941.21	3.9250	3.9250	0.9067	26.10	0.15	0.750			
0.2831	18115.80	3.9220	3.9220	0.9114	26.10	0.15	0.750			
0.2858	18290.33	3.9190	3.9190	0.9122	26.10	0.15	0.750			
0.2885	18466.48	3.9160	3.9160	0.9120	26.10	0.15	0.750			
0.2913	18642.48	3.9130	3.9129	0.9175	26.10	0.15	0.750			
0.2940	18817.65	3.9100	3.9101	0.9246	26.11	0.16	0.750			
0.2968	18996.13	3.9070	3.9071	0.9300	26.11	0.16	0.750			
0.2996	19175.42	3.9040	3.9038	0.9309	26.11	0.16	0.750			
0.3024	19355.10	3.9010	3.9010	0.9291	26.11	0.16	0.750			
0.3052	19533.31	3.8980	3.8981	0.9328	26.11	0.16	0.750			
0.3080	19712.68	3.8950	3.8950	0.9359	26.12	0.17	0.750			
0.3108	19891.63	3.8920	3.8920	0.9353	26.12	0.17	0.750			
0.3136	20071.52	3.8890	3.8890	0.9361	26.12	0.17	0.750			
0.3164	20251.35	3.8860	3.8860	0.9429	26.12	0.17	0.750			
0.3193	20432.88	3.8830	3.8830	0.9488	26.11	0.16	0.750			
0.3221	20614.87	3.8800	3.8800	0.9591	26.11	0.16	0.750			
0.3250	20799.39	3.8770	3.8770	0.9639	26.11	0.16	0.750			
0.3279	20984.73	3.8740	3.8740	0.9707	26.11	0.16	0.750			
0.3308	21173.49	3.8710	3.8711	0.9766	26.10	0.15	0.750			
0.3338	21362.74	3.8680	3.8680	0.9783	26.10	0.15	0.750			
0.3367	21550.59	3.8650	3.8648	0.9779	26.10	0.15	0.750			
0.3396	21737.21	3.8620	3.8622	0.9803	26.10	0.15	0.750			
0.3426	21924.59	3.8590	3.8590	0.9842	26.10	0.15	0.750			
0.3455	22114.53	3.8560	3.8559	0.9922	26.10	0.15	0.750			
0.3485	22304.00	3.8530	3.8529	0.9934	26.10	0.15	0.750			
0.3515	22497.29	3.8500	3.8500	1.0046	26.10	0.15	0.750			
0.3545	22690.26	3.8470	3.8470	1.0116	26.09	0.14	0.750			
0.3576	22884.96	3.8440	3.8440	1.0192	26.09	0.14	0.750			
0.3606	23080.90	3.8410	3.8410	1.0282	26.08	0.13	0.750			
0.3638	23280.12	3.8380	3.8380	1.0282	26.08	0.13	0.750			
0.3668	23477.54	3.8350	3.8350	1.0425	26.07	0.12	0.750			
0.3700	23679.93	3.8320	3.8320	1.0497	26.07	0.12	0.750			
0.3731	23881.57	3.8290	3.8289	1.0580	26.06	0.11	0.750			
0.3763	24085.69	3.8260	3.8261	1.0598	26.06	0.11	0.750			
0.3795	24287.74	3.8230	3.8231	1.0699	26.06	0.11	0.750			
0.3827	24493.60	3.8200	3.8200	1.0822	26.06	0.11	0.750			
0.3860	24703.31	3.8170	3.8169	1.0978	26.06	0.11	0.750			
0.3893	24912.93	3.8140	3.8140	1.1053	26.06	0.11	0.750			
0.3926	25126.89	3.8110	3.8111	1.1263	26.05	0.10	0.750			
0.3960	25346.59	3.8080	3.8080	1.1404	26.05	0.10	0.750			
0.3995	25568.40	3.8050	3.8049	1.1484	26.04	0.09	0.750			
0.4030	25788.96	3.8020	3.8020	1.1591	26.03	0.08	0.750			
0.4064	26012.73	3.7990	3.7991	1.1700	26.03	0.08	0.750			
0.4100	26236.90	3.7960	3.7960	1.1871	26.02	0.07	0.750			
0.4135	26465.94	3.7930	3.7930	1.2023	26.02	0.07	0.750			
0.4171	26696.07	3.7900	3.7900	1.2176	26.02	0.07	0.750			
0.4208	26932.86	3.7870	3.7870	1.2440	26.01	0.06	0.750			
0.4246	27175.12	3.7840	3.7840	1.2672	26.01	0.06	0.750			
0.4284	27419.57	3.7810	3.7810	1.2878	26.00	0.05	0.750			
0.4323	27668.82	3.7780	3.7780	1.3116	25.99	0.04	0.750			
0.4363	27922.96	3.7750	3.7749	1.3272	25.98	0.03	0.750			
0.4403	28180.54	3.7720	3.7720	1.3492	25.97	0.02	0.750			
0.4444	28439.94	3.7690	3.7690	1.3733	25.97	0.02	0.750			
0.4485	28705.86	3.7660	3.7659	1.3911	25.96	0.01	0.750			
0.4527	28973.08	3.7630	3.7630	1.4147	25.95	0.00	0.750			
0.4570	29248.20	3.7600	3.7600	1.4405	25.95	-0.00	0.750			
0.4614	29528.94	3.7570	3.7569	1.4663	25.94	-0.01	0.750			
0.4658	29812.74	3.7540	3.7539	1.4957	25.93	-0.02	0.750			
0.4703	30101.52	3.7510	3.7511	1.5280	25.93	-0.02	0.750			
0.4749	30394.66	3.7480	3.7481	1.5617	25.92	-0.03	0.750			
0.4797	30699.58	3.7450	3.7450	1.5966	25.90	-0.05	0.750			
0.4845	31007.40	3.7420	3.7420	1.6343	25.89	-0.06	0.750			
0.4895	31327.90	3.7390	3.7389	1.6666	25.87	-0.08	0.750			
0.4946	31653.29	3.7360	3.7360	1.7078	25.86	-0.09	0.750			
0.4997	31982.00	3.7330	3.7330	1.7368	25.85	-0.10	0.750			
0.5050	32319.61	3.7300	3.7299	1.7792	25.84	-0.11	0.750			
0.5104	32663.48	3.7270	3.7270	1.8192	25.82	-0.13	0.750			
0.5159	33018.14	3.7240	3.7239	1.8712	25.81	-0.14	0.750			
0.5215	33379.17	3.7210	3.7212	1.9285	25.80	-0.15	0.750			
0.5274	33755.77	3.7180	3.7180	1.9799	25.78	-0.17	0.750			
0.5335	34141.42	3.7150	3.7150	2.0474	25.78	-0.17	0.750			
0.5397	34538.99	3.7120	3.7122	2.0915	25.76	-0.19	0.750	0.345	0.485	
0.5461	34953.31	3.7090	3.7089	2.1365	25.75	-0.20	0.750			
0.5526	35365.31	3.7060	3.7060	2.1965	25.73	-0.22	0.750			
0.5592	35788.06	3.7030	3.7030	2.2510	25.72	-0.23	0.750			
0.5661	36229.24	3.7000	3.6999	2.2960	25.70	-0.25	0.750			
0.5731	36678.56	3.6970	3.6970	2.3546	25.68	-0.27	0.750			
0.5802	37133.83	3.6940	3.6939	2.4057	25.67	-0.28	0.750			
0.5874	37593.67	3.6910	3.6911	2.4681	25.66	-0.29	0.750			
0.5949	38073.42	3.6880	3.6880	2.5549	25.65	-0.30	0.750			
0.6027	38574.94	3.6850	3.6849	2.6418	25.63	-0.32	0.750			
0.6109	39095.21	3.6820	3.6819	2.6861	25.62	-0.33	0.750			
0.6190	39615.15	3.6790	3.6790	2.7085	25.61	-0.34	0.750			
0.6271	40134.90	3.6760	3.6759	2.7181	25.60	-0.35	0.750			
0.6353	40661.09	3.6730	3.6730	2.6679	25.59	-0.36	0.750			
0.6433	41173.61	3.6700	3.6701	2.5913	25.58	-0.37	0.750			
0.6509	41660.71	3.6670	3.6670	2.4272	25.58	-0.37	0.750			
0.6579	42106.36	3.6640	3.6640	2.2526	25.58	-0.37	0.750			
0.6644	42522.98	3.6610	3.6609	2.0840	25.58	-0.37	0.750			
0.6704	42906.22	3.6580	3.6581	1.9135	25.58	-0.37	0.750			
0.6759	43255.05	3.6550	3.6550	1.7622	25.58	-0.37	0.750			
0.6808	43574.02	3.6520	3.6521	1.6320	25.59	-0.36	0.750			
0.6855	43870.57	3.6490	3.6489	1.5244	25.59	-0.36	0.750			
0.6898	44147.10	3.6460	3.6460	1.4326	25.59	-0.36	0.750			
0.6940	44413.97	3.6430	3.6429	1.3673	25.60	-0.35	0.750			
0.6979	44667.70	3.6400	3.6400	1.3144	25.60	-0.35	0.750			
0.7017	44911.73	3.6370	3.6370	1.2685	25.60	-0.35	0.750			
0.7054	45148.53	3.6340	3.6340	1.2385	25.60	-0.35	0.750			
0.7091	45381.90	3.6310	3.6311	1.2137	25.60	-0.35	0.750			
0.7127	45612.65	3.6280	3.6280	1.1961	25.60	-0.35	0.750			
0.7163	45840.82	3.6250	3.6250	1.1911	25.60	-0.35	0.750			
0.7198	46066.10	3.6220	3.6220	1.1838	25.61	-0.34	0.750			
0.7233	46292.53	3.6190	3.6189	1.1816	25.61	-0.34	0.750			
0.7269	46518.83	3.6160	3.6161	1.1763	25.61	-0.34	0.750			
0.7304	46745.58	3.6130	3.6130	1.1763	25.61	-0.34	0.750			
0.7340	46973.14	3.6100	3.6100	1.1757	25.62	-0.33	0.750			
0.7375	47197.20	3.6070	3.6069	1.1683	25.62	-0.33	0.750			
0.7409	47420.02	3.6040	3.6040	1.1761	25.62	-0.33	0.750			
0.7444	47644.08	3.6010	3.6010	1.1847	25.62	-0.33	0.750			
0.7480	47872.44	3.5980	3.5979	1.2017	25.62	-0.33	0.750			
0.7516	48103.37	3.5950	3.5950	1.2272	25.62	-0.33	0.750			
0.7553	48339.43	3.5920	3.5920	1.2546	25.62	-0.33	0.750			
0.7591	48582.07	3.5890	3.5890	1.2892	25.63	-0.32	0.750			
0.7630	48832.59	3.5860	3.5860	1.3242	25.63	-0.32	0.750			
0.7670	49090.01	3.5830	3.5830	1.3615	25.63	-0.32	0.750			
0.7712	49355.65	3.5800	3.5799	1.3992	25.64	-0.31	0.750			
0.7754	49627.99	3.5770	3.5770	1.4414	25.64	-0.31	0.750			
0.7798	49907.90	3.5740	3.5740	1.4753	25.64	-0.31	0.750			
0.7843	50195.89	3.5710	3.5710	1.5085	25.64	-0.31	0.750			
0.7889	50489.47	3.5680	3.5681	1.5380	25.64	-0.31	0.750			
0.7936	50788.47	3.5650	3.5648	1.5637	25.65	-0.30	0.750			
0.7983	51090.77	3.5620	3.5620	1.5841	25.66	-0.29	0.750			
0.8031	51398.04	3.5590	3.5591	1.6077	25.67	-0.28	0.750			
0.8080	51711.90	3.5560	3.5558	1.6131	25.67	-0.28	0.750			
0.8129	52023.47	3.5530	3.5531	1.6112	25.68	-0.27	0.750			
0.8178	52336.92	3.5500	3.5501	1.6115	25.69	-0.26	0.750			
0.8226	52648.83	3.5470	3.5469	1.5913	25.70	-0.25	0.750			
0.8274	52953.92	3.5440	3.5439	1.5572	25.71	-0.24	0.750			
0.8321	53257.47	3.5410	3.5410	1.4761	25.71	-0.24	0.750			
0.8366	53540.46	3.5380	3.5378	1.3619	25.72	-0.23	0.750			
0.8408	53811.73	3.5350	3.5351	1.2061	25.74	-0.21	0.750			
0.8442	54030.56	3.5320	3.5322	1.0233	25.76	-0.19	0.750			
0.8469	54204.30	3.5290	3.5290	0.8475	25.77	-0.18	0.750			
0.8491	54342.05	3.5260	3.5258	0.6783	25.78	-0.17	0.750			
0.8506	54435.50	3.5230	3.5230	0.5403	25.79	-0.16	0.750			
0.8519	54522.99	3.5200	3.5199	0.4542	25.80	-0.15	0.750			
0.8530	54594.85	3.5170	3.5170	0.3947	25.80	-0.15	0.750			
0.8541	54663.90	3.5140	3.5139	0.3575	25.81	-0.14	0.750			
0.8551	54726.31	3.5110	3.5110	0.3296	25.82	-0.13	0.750			
0.8561	54787.32	3.5080	3.5080	0.3121	25.82	-0.13	0.750			
0.8569	54844.69	3.5050	3.5051	0.2979	25.83	-0.12	0.750			
0.8578	54900.13	3.5020	3.5020	0.2862	25.84	-0.11	0.750			
0.8587	54953.87	3.4990	3.4990	0.2749	25.84	-0.11	0.750			
0.8595	55005.13	3.4960	3.4960	0.2664	25.85	-0.10	0.750			
0.8602	55055.42	3.4930	3.4930	0.2585	25.85	-0.10	0.750			
0.8610	55104.14	3.4900	3.4900	0.2527	25.86	-0.09	0.750			
0.8617	55151.65	3.4870	3.4870	0.2461	25.86	-0.09	0.750			
0.8625	55198.13	3.4840	3.4840	0.2404	25.87	-0.08	0.750			
0.8632	55243.70	3.4810	3.4810	0.2355	25.87	-0.08	0.750			
0.8639	55289.21	3.4780	3.4780	0.2313	25.88	-0.07	0.750			
0.8646	55332.71	3.4750	3.4750	0.2252	25.88	-0.07	0.750			
0.8652	55375.16	3.4720	3.4720	0.2200	25.89	-0.06	0.750			
0.8659	55416.94	3.4690	3.4690	0.2152	25.89	-0.06	0.750			
0.8665	55457.43	3.4660	3.4660	0.2106	25.90	-0.05	0.750			
0.8671	55497.57	3.4630	3.4630	0.2065	25.90	-0.05	0.750			
0.8678	55537.02	3.4600	3.4600	0.2018	25.90	-0.05	0.750			
0.8684	55575.31	3.4570	3.4570	0.1971	25.91	-0.04	0.750			
0.8690	55613.00	3.4540	3.4540	0.1926	25.91	-0.04	0.750			
0.8695	55649.33	3.4510	3.4511	0.1881	25.92	-0.03	0.750			
0.8701	55684.98	3.4480	3.4479	0.1829	25.92	-0.03	0.750			
0.8706	55719.64	3.4450	3.4450	0.1782	25.92	-0.03	0.750			
0.8711	55753.30	3.4420	3.4420	0.1734	25.93	-0.02	0.750			
0.8717	55786.25	3.4390	3.4391	0.1687	25.93	-0.02	0.750			
0.8722	55818.20	3.4360	3.4360	0.1647	25.94	-0.01	0.750			
0.8726	55849.36	3.4330	3.4330	0.1600	25.94	-0.01	0.750			
0.8731	55879.54	3.4300	3.4300	0.1551	25.94	-0.01	0.750			
0.8736	55908.67	3.4270	3.4270	0.1504	25.95	-0.00	0.750			
0.8740	55937.31	3.4240	3.4240	0.1466	25.95	-0.00	0.750			
0.8745	55965.10	3.4210	3.4211	0.1417	25.95	0.00	0.750			
0.8749	55991.85	3.4180	3.4180	0.1370	25.96	0.01	0.750			
0.8753	56017.80	3.4150	3.4150	0.1324	25.96	0.01	0.750			
0.8757	56042.76	3.4120	3.4120	0.1270	25.96	0.01	0.750			
0.8760	56066.67	3.4090	3.4090	0.1220	25.96	0.01	0.750			
0.8764	56089.72	3.4060	3.4060	0.1173	25.97	0.02	0.750			
0.8767	56111.62	3.4030	3.4031	0.1119	25.97	0.02	0.750			
0.8771	56132.94	3.4000	3.4000	0.1061	25.97	0.02	0.750			
0.8774	56153.01	3.3970	3.3969	0.1008	25.97	0.02	0.750			
0.8777	56171.79	3.3940	3.3941	0.0948	25.98	0.03	0.750			
0.8780	56190.37	3.3910	3.3909	0.0866	25.98	0.03	0.750			
0.8782	56206.18	3.3880	3.3881	0.0782	25.98	0.03	0.750			
0.8785	56221.25	3.3850	3.3851	0.0712	25.98	0.03	0.750			
0.8787	56234.03	3.3820	3.3823	0.0619	25.98	0.03	0.750			
0.8788	56245.36	3.3790	3.3795	0.0527	25.98	0.03	0.750			
0.8790	56254.55	3.3760	3.3768	0.0430	25.98	0.03	0.750			
0.8791	56261.87	3.3730	3.3743	0.0333	25.99	0.04	0.750			
0.8792	56267.34	3.3700	3.3720	0.0236	25.99	0.04	0.750			
