Ah_balance (normalized)	Ah_balance (mAh)	Voltage - fit (V)	Voltage -  interpolate (V)	dQ/dV (1/V)	Temperature (°C)	Temperature - diff (°C)	Current (C)	R_DC 0ms (mOhm)	R_DC 50ms (mOhm)	R_DC 50 ms PEC (mOhm)
0.2381	15238.54	3.9750	3.9750	0.8545	25.90	-0.04	0.750			
0.2407	15403.06	3.9720	3.9719	0.8601	25.90	-0.04	0.750			
0.2433	15568.75	3.9690	3.9690	0.8675	25.90	-0.04	0.750			
0.2459	15736.72	3.9660	3.9659	0.8736	25.90	-0.04	0.750			
0.2485	15906.76	3.9630	3.9629	0.8777	25.90	-0.04	0.750			
0.2512	16075.39	3.9600	3.9600	0.8778	25.90	-0.04	0.750			
0.2538	16243.66	3.9570	3.9570	0.8785	25.90	-0.04	0.750			
0.2565	16413.26	3.9540	3.9540	0.8807	25.90	-0.04	0.750			
0.2591	16581.29	3.9510	3.9510	0.8825	25.90	-0.04	0.750			
0.2617	16751.25	3.9480	3.9480	0.8822	25.91	-0.03	0.750			
0.2644	16919.96	3.9450	3.9450	0.8902	25.91	-0.03	0.750			
0.2670	17090.89	3.9420	3.9421	0.8971	25.91	-0.03	0.750			
0.2698	17265.00	3.9390	3.9389	0.8998	25.92	-0.02	0.750			
0.2725	17438.22	3.9360	3.9360	0.9034	25.92	-0.02	0.750			
0.2752	17612.72	3.9330	3.9331	0.9033	25.92	-0.02	0.750			
0.2779	17785.56	3.9300	3.9300	0.9039	25.92	-0.02	0.750			
0.2806	17960.38	3.9270	3.9270	0.9062	25.92	-0.02	0.750			
0.2833	18131.99	3.9240	3.9238	0.9061	25.92	-0.02	0.750			
0.2860	18306.22	3.9210	3.9210	0.9084	25.92	-0.02	0.750			
0.2888	18481.69	3.9180	3.9180	0.9140	25.92	-0.02	0.750			
0.2915	18658.35	3.9150	3.9150	0.9170	25.92	-0.02	0.750			
0.2943	18834.55	3.9120	3.9121	0.9171	25.92	-0.02	0.750			
0.2971	19012.02	3.9090	3.9090	0.9197	25.92	-0.02	0.750			
0.2998	19188.60	3.9060	3.9060	0.9204	25.92	-0.02	0.750			
0.3026	19364.65	3.9030	3.9031	0.9218	25.92	-0.02	0.750			
0.3053	19542.10	3.9000	3.9000	0.9241	25.92	-0.02	0.750			
0.3081	19718.84	3.8970	3.8970	0.9258	25.92	-0.02	0.750			
0.3109	19897.68	3.8940	3.8940	0.9261	25.92	-0.02	0.750			
0.3137	20074.55	3.8910	3.8910	0.9314	25.92	-0.02	0.750			
0.3165	20253.76	3.8880	3.8880	0.9394	25.92	-0.02	0.750			
0.3193	20434.10	3.8850	3.8850	0.9425	25.92	-0.02	0.750			
0.3221	20615.49	3.8820	3.8820	0.9496	25.92	-0.02	0.750			
0.3250	20799.27	3.8790	3.8790	0.9534	25.92	-0.02	0.750			
0.3279	20983.34	3.8760	3.8760	0.9563	25.92	-0.02	0.750			
0.3307	21167.69	3.8730	3.8730	0.9597	25.92	-0.02	0.750			
0.3336	21351.39	3.8700	3.8698	0.9585	25.92	-0.02	0.750			
0.3365	21534.82	3.8670	3.8671	0.9631	25.92	-0.02	0.750			
0.3394	21720.76	3.8640	3.8640	0.9697	25.92	-0.02	0.750			
0.3423	21907.33	3.8610	3.8610	0.9749	25.91	-0.03	0.750			
0.3452	22093.79	3.8580	3.8579	0.9840	25.91	-0.03	0.750			
0.3482	22285.14	3.8550	3.8551	0.9924	25.91	-0.03	0.750			
0.3512	22476.55	3.8520	3.8519	0.9990	25.91	-0.03	0.750			
0.3542	22670.53	3.8490	3.8490	1.0045	25.90	-0.04	0.750			
0.3572	22861.84	3.8460	3.8460	1.0075	25.90	-0.04	0.750			
0.3603	23057.43	3.8430	3.8430	1.0117	25.90	-0.04	0.750			
0.3633	23250.55	3.8400	3.8400	1.0218	25.90	-0.04	0.750			
0.3663	23446.39	3.8370	3.8370	1.0296	25.89	-0.05	0.750			
0.3695	23646.92	3.8340	3.8340	1.0416	25.89	-0.05	0.750			
0.3726	23846.74	3.8310	3.8311	1.0502	25.89	-0.05	0.750			
0.3758	24050.57	3.8280	3.8280	1.0622	25.89	-0.05	0.750			
0.3790	24254.91	3.8250	3.8250	1.0713	25.88	-0.06	0.750			
0.3822	24461.95	3.8220	3.8219	1.0830	25.88	-0.06	0.750			
0.3855	24669.08	3.8190	3.8190	1.0876	25.88	-0.06	0.750			
0.3887	24879.28	3.8160	3.8160	1.1023	25.88	-0.06	0.750			
0.3921	25091.65	3.8130	3.8130	1.1148	25.88	-0.06	0.750			
0.3954	25308.25	3.8100	3.8099	1.1200	25.88	-0.06	0.750			
0.3988	25523.56	3.8070	3.8071	1.1331	25.88	-0.06	0.750			
0.4022	25741.41	3.8040	3.8041	1.1479	25.87	-0.07	0.750			
0.4057	25962.79	3.8010	3.8010	1.1656	25.86	-0.08	0.750			
0.4092	26188.45	3.7980	3.7980	1.1744	25.86	-0.08	0.750			
0.4127	26415.69	3.7950	3.7950	1.1911	25.86	-0.08	0.750			
0.4163	26646.39	3.7920	3.7921	1.2094	25.86	-0.08	0.750			
0.4200	26882.16	3.7890	3.7889	1.2217	25.86	-0.08	0.750			
0.4237	27115.20	3.7860	3.7860	1.2374	25.86	-0.08	0.750			
0.4274	27352.75	3.7830	3.7830	1.2567	25.85	-0.09	0.750			
0.4312	27596.12	3.7800	3.7801	1.2771	25.85	-0.09	0.750			
0.4351	27844.23	3.7770	3.7770	1.3024	25.85	-0.09	0.750			
0.4390	28095.11	3.7740	3.7741	1.3253	25.85	-0.09	0.750			
0.4430	28353.64	3.7710	3.7709	1.3451	25.84	-0.10	0.750			
0.4471	28613.93	3.7680	3.7680	1.3740	25.84	-0.10	0.750			
0.4512	28878.82	3.7650	3.7650	1.3943	25.84	-0.10	0.750			
0.4555	29150.63	3.7620	3.7620	1.4148	25.84	-0.10	0.750			
0.4598	29424.24	3.7590	3.7590	1.4441	25.84	-0.10	0.750			
0.4641	29702.36	3.7560	3.7561	1.4654	25.83	-0.11	0.750			
0.4685	29985.23	3.7530	3.7530	1.4929	25.82	-0.12	0.750			
0.4730	30274.23	3.7500	3.7501	1.5278	25.82	-0.12	0.750			
0.4776	30567.21	3.7470	3.7468	1.5543	25.81	-0.13	0.750			
0.4823	30870.13	3.7440	3.7440	1.5960	25.80	-0.14	0.750			
0.4872	31180.58	3.7410	3.7410	1.6385	25.79	-0.15	0.750			
0.4922	31499.69	3.7380	3.7380	1.6721	25.79	-0.15	0.750			
0.4972	31823.03	3.7350	3.7350	1.7124	25.78	-0.16	0.750			
0.5025	32157.04	3.7320	3.7319	1.7586	25.77	-0.17	0.750			
0.5078	32499.13	3.7290	3.7290	1.7993	25.77	-0.17	0.750			
0.5133	32849.18	3.7260	3.7260	1.8408	25.76	-0.18	0.750			
0.5189	33206.59	3.7230	3.7230	1.8927	25.75	-0.19	0.750			
0.5246	33573.22	3.7200	3.7200	1.9367	25.73	-0.21	0.750			
0.5305	33950.30	3.7170	3.7169	1.9903	25.72	-0.22	0.750			
0.5365	34335.85	3.7140	3.7136	2.0486	25.72	-0.22	0.750	0.354	0.491	
0.5428	34737.23	3.7110	3.7109	2.1010	25.71	-0.23	0.750			
0.5492	35150.25	3.7080	3.7080	2.1185	25.69	-0.25	0.750			
0.5556	35558.64	3.7050	3.7051	2.1564	25.68	-0.26	0.750			
0.5621	35972.88	3.7020	3.7020	2.2038	25.67	-0.27	0.750			
0.5686	36392.73	3.6990	3.6990	2.2746	25.66	-0.28	0.750			
0.5755	36832.79	3.6960	3.6960	2.3627	25.64	-0.30	0.750			
0.5829	37305.53	3.6930	3.6930	2.4465	25.63	-0.31	0.750			
0.5903	37777.27	3.6900	3.6900	2.4903	25.61	-0.33	0.750			
0.5978	38260.18	3.6870	3.6870	2.5589	25.60	-0.34	0.750			
0.6056	38755.80	3.6840	3.6840	2.6237	25.59	-0.35	0.750			
0.6136	39270.92	3.6810	3.6810	2.6592	25.59	-0.35	0.750			
0.6216	39784.29	3.6780	3.6781	2.6827	25.58	-0.36	0.750			
0.6297	40302.79	3.6750	3.6749	2.6379	25.58	-0.36	0.750			
0.6376	40804.92	3.6720	3.6721	2.6078	25.58	-0.36	0.750			
0.6455	41314.23	3.6690	3.6689	2.5236	25.57	-0.37	0.750			
0.6529	41784.43	3.6660	3.6661	2.3413	25.57	-0.37	0.750			
0.6597	42223.49	3.6630	3.6630	2.1594	25.57	-0.37	0.750			
0.6659	42618.50	3.6600	3.6600	1.9917	25.58	-0.36	0.750			
0.6714	42972.55	3.6570	3.6571	1.8063	25.58	-0.36	0.750			
0.6765	43297.41	3.6540	3.6541	1.6693	25.58	-0.36	0.750			
0.6814	43607.04	3.6510	3.6510	1.5561	25.58	-0.36	0.750			
0.6857	43887.84	3.6480	3.6480	1.4630	25.58	-0.36	0.750			
0.6899	44154.91	3.6450	3.6450	1.3816	25.59	-0.35	0.750			
0.6939	44407.93	3.6420	3.6420	1.3239	25.59	-0.35	0.750			
0.6977	44655.98	3.6390	3.6390	1.2864	25.59	-0.35	0.750			
0.7015	44896.99	3.6360	3.6360	1.2495	25.59	-0.35	0.750			
0.7052	45133.65	3.6330	3.6330	1.2270	25.60	-0.34	0.750			
0.7088	45365.96	3.6300	3.6300	1.2037	25.60	-0.34	0.750			
0.7124	45593.85	3.6270	3.6270	1.1877	25.61	-0.33	0.750			
0.7159	45819.73	3.6240	3.6240	1.1771	25.61	-0.33	0.750			
0.7194	46043.51	3.6210	3.6210	1.1711	25.62	-0.32	0.750			
0.7229	46267.13	3.6180	3.6180	1.1692	25.62	-0.32	0.750			
0.7264	46491.00	3.6150	3.6150	1.1706	25.62	-0.32	0.750			
0.7299	46715.26	3.6120	3.6120	1.1731	25.62	-0.32	0.750			
0.7335	46942.43	3.6090	3.6089	1.1687	25.62	-0.32	0.750			
0.7370	47167.36	3.6060	3.6060	1.1692	25.63	-0.31	0.750			
0.7405	47390.52	3.6030	3.6031	1.1731	25.63	-0.31	0.750			
0.7440	47613.93	3.6000	3.6000	1.1797	25.64	-0.30	0.750			
0.7475	47838.21	3.5970	3.5970	1.1932	25.64	-0.30	0.750			
0.7510	48067.17	3.5940	3.5940	1.2231	25.64	-0.30	0.750			
0.7547	48301.73	3.5910	3.5910	1.2543	25.64	-0.30	0.750			
0.7586	48547.27	3.5880	3.5879	1.2889	25.64	-0.30	0.750			
0.7625	48797.50	3.5850	3.5850	1.3264	25.64	-0.30	0.750			
0.7665	49056.77	3.5820	3.5820	1.3632	25.65	-0.29	0.750			
0.7707	49322.49	3.5790	3.5790	1.4025	25.65	-0.29	0.750			
0.7749	49596.23	3.5760	3.5759	1.4341	25.65	-0.29	0.750			
0.7793	49874.25	3.5730	3.5731	1.4741	25.65	-0.29	0.750			
0.7838	50162.81	3.5700	3.5700	1.5059	25.65	-0.29	0.750			
0.7884	50454.96	3.5670	3.5669	1.5406	25.65	-0.29	0.750			
0.7931	50756.70	3.5640	3.5641	1.5586	25.66	-0.28	0.750			
0.7978	51058.49	3.5610	3.5611	1.5815	25.66	-0.28	0.750			
0.8026	51366.93	3.5580	3.5579	1.5858	25.66	-0.28	0.750			
0.8074	51675.22	3.5550	3.5550	1.5914	25.66	-0.28	0.750			
0.8122	51980.85	3.5520	3.5519	1.5869	25.67	-0.27	0.750			
0.8170	52287.23	3.5490	3.5490	1.5710	25.68	-0.26	0.750			
0.8217	52587.31	3.5460	3.5459	1.5528	25.69	-0.25	0.750			
0.8264	52888.83	3.5430	3.5430	1.5230	25.70	-0.24	0.750			
0.8311	53189.78	3.5400	3.5399	1.4359	25.71	-0.23	0.750			
0.8355	53469.15	3.5370	3.5370	1.3133	25.73	-0.21	0.750			
0.8394	53721.04	3.5340	3.5342	1.1559	25.74	-0.20	0.750			
0.8426	53925.50	3.5310	3.5312	0.9797	25.75	-0.19	0.750			
0.8452	54091.07	3.5280	3.5281	0.7992	25.76	-0.18	0.750			
0.8471	54216.84	3.5250	3.5251	0.6502	25.76	-0.18	0.750			
0.8487	54316.59	3.5220	3.5219	0.5209	25.78	-0.16	0.750			
0.8500	54400.10	3.5190	3.5189	0.4466	25.79	-0.15	0.750			
0.8511	54472.79	3.5160	3.5159	0.3895	25.80	-0.14	0.750			
0.8522	54537.69	3.5130	3.5130	0.3506	25.81	-0.13	0.750			
0.8532	54601.75	3.5100	3.5099	0.3277	25.82	-0.12	0.750			
0.8541	54661.08	3.5070	3.5070	0.3089	25.82	-0.12	0.750			
0.8550	54718.69	3.5040	3.5040	0.2953	25.83	-0.11	0.750			
0.8558	54774.08	3.5010	3.5010	0.2833	25.84	-0.10	0.750			
0.8567	54827.33	3.4980	3.4980	0.2725	25.84	-0.10	0.750			
0.8575	54877.76	3.4950	3.4950	0.2636	25.85	-0.09	0.750			
0.8582	54927.11	3.4920	3.4920	0.2558	25.86	-0.08	0.750			
0.8590	54975.59	3.4890	3.4890	0.2499	25.86	-0.08	0.750			
0.8597	55022.62	3.4860	3.4860	0.2437	25.87	-0.07	0.750			
0.8605	55069.14	3.4830	3.4830	0.2386	25.87	-0.07	0.750			
0.8612	55114.55	3.4800	3.4800	0.2335	25.88	-0.06	0.750			
0.8619	55158.77	3.4770	3.4770	0.2283	25.88	-0.06	0.750			
0.8625	55202.07	3.4740	3.4740	0.2227	25.89	-0.05	0.750			
0.8632	55244.00	3.4710	3.4710	0.2168	25.89	-0.05	0.750			
0.8638	55285.22	3.4680	3.4680	0.2121	25.89	-0.05	0.750			
0.8645	55325.41	3.4650	3.4650	0.2071	25.90	-0.04	0.750			
0.8651	55364.68	3.4620	3.4620	0.2020	25.90	-0.04	0.750			
0.8657	55402.79	3.4590	3.4590	0.1980	25.91	-0.03	0.750			
0.8663	55440.33	3.4560	3.4560	0.1933	25.91	-0.03	0.750			
0.8668	55477.21	3.4530	3.4530	0.1884	25.91	-0.03	0.750			
0.8674	55512.92	3.4500	3.4500	0.1836	25.92	-0.02	0.750			
0.8679	55547.83	3.4470	3.4471	0.1800	25.92	-0.02	0.750			
0.8685	55581.82	3.4440	3.4440	0.1755	25.92	-0.02	0.750			
0.8690	55615.22	3.4410	3.4409	0.1709	25.93	-0.01	0.750			
0.8695	55647.59	3.4380	3.4380	0.1663	25.93	-0.01	0.750			
0.8700	55679.02	3.4350	3.4350	0.1607	25.93	-0.01	0.750			
0.8705	55709.61	3.4320	3.4321	0.1565	25.94	-0.00	0.750			
0.8709	55739.06	3.4290	3.4290	0.1523	25.94	-0.00	0.750			
0.8714	55767.85	3.4260	3.4259	0.1476	25.94	0.00	0.750			
0.8718	55795.31	3.4230	3.4229	0.1426	25.95	0.01	0.750			
0.8722	55822.22	3.4200	3.4200	0.1385	25.95	0.01	0.750			
0.8726	55848.54	3.4170	3.4171	0.1348	25.95	0.01	0.750			
0.8730	55874.02	3.4140	3.4140	0.1307	25.95	0.01	0.750			
0.8734	55898.93	3.4110	3.4110	0.1266	25.96	0.02	0.750			
0.8738	55922.70	3.4080	3.4080	0.1220	25.96	0.02	0.750			
0.8742	55945.75	3.4050	3.4051	0.1172	25.96	0.02	0.750			
0.8745	55967.81	3.4020	3.4020	0.1127	25.96	0.02	0.750			
0.8748	55989.32	3.3990	3.3991	0.1082	25.96	0.02	0.750			
0.8751	56009.58	3.3960	3.3960	0.1031	25.97	0.03	0.750			
0.8755	56028.97	3.3930	3.3930	0.0978	25.97	0.03	0.750			
0.8757	56047.26	3.3900	3.3900	0.0926	25.97	0.03	0.750			
0.8760	56064.54	3.3870	3.3871	0.0874	25.97	0.03	0.750			
0.8763	56081.88	3.3840	3.3839	0.0801	25.97	0.03	0.750			
0.8765	56096.56	3.3810	3.3810	0.0728	25.98	0.04	0.750			
0.8767	56110.53	3.3780	3.3780	0.0665	25.98	0.04	0.750			
0.8769	56122.54	3.3750	3.3753	0.0585	25.98	0.04	0.750			
0.8771	56133.82	3.3720	3.3724	0.0507	25.98	0.04	0.750			
0.8772	56142.68	3.3690	3.3696	0.0417	25.98	0.04	0.750			
0.8773	56149.82	3.3660	3.3670	0.0327	25.98	0.04	0.750			
0.8774	56155.22	3.3630	3.3646	0.0236	25.98	0.04	0.750			
