Ah_balance (normalized)	Ah_balance (mAh)	Voltage - fit (V)	Voltage -  interpolate (V)	dQ/dV (1/V)	Temperature (°C)	Temperature - diff (°C)	Current (C)	R_DC 0ms (mOhm)	R_DC 50ms (mOhm)	R_DC 50 ms PEC (mOhm)
0.1964	12571.79	3.9380	3.9380	-0.0955	25.68	0.01	-0.750			
0.1968	12595.93	3.9350	3.9349	-0.1511	25.68	0.01	-0.750			
0.1973	12630.13	3.9320	3.9319	-0.1992	25.68	0.01	-0.750			
0.1980	12672.96	3.9290	3.9288	-0.2442	25.68	0.01	-0.750			
0.1988	12724.00	3.9260	3.9261	-0.2894	25.68	0.01	-0.750			
0.1998	12784.25	3.9230	3.9231	-0.3344	25.67	0.00	-0.750			
0.2008	12852.94	3.9200	3.9199	-0.3764	25.67	0.00	-0.750			
0.2020	12929.83	3.9170	3.9170	-0.4176	25.67	0.00	-0.750			
0.2034	13015.17	3.9140	3.9140	-0.4559	25.67	0.00	-0.750			
0.2048	13106.66	3.9110	3.9110	-0.4902	25.67	0.00	-0.750			
0.2063	13205.33	3.9080	3.9080	-0.5240	25.67	-0.00	-0.750			
0.2080	13309.17	3.9050	3.9051	-0.5526	25.67	-0.00	-0.750			
0.2097	13419.49	3.9020	3.9019	-0.5775	25.67	-0.00	-0.750			
0.2115	13533.19	3.8990	3.8990	-0.5994	25.67	-0.00	-0.750			
0.2133	13651.39	3.8960	3.8960	-0.6177	25.66	-0.01	-0.750			
0.2152	13772.60	3.8930	3.8930	-0.6301	25.66	-0.01	-0.750			
0.2171	13895.57	3.8900	3.8900	-0.6431	25.66	-0.01	-0.750			
0.2191	14020.00	3.8870	3.8870	-0.6513	25.66	-0.01	-0.750			
0.2210	14146.28	3.8840	3.8840	-0.6610	25.66	-0.01	-0.750			
0.2230	14274.11	3.8810	3.8810	-0.6681	25.66	-0.01	-0.750			
0.2251	14403.96	3.8780	3.8780	-0.6712	25.66	-0.01	-0.750			
0.2271	14533.44	3.8750	3.8750	-0.6773	25.66	-0.01	-0.750			
0.2291	14663.92	3.8720	3.8720	-0.6812	25.66	-0.01	-0.750			
0.2312	14794.95	3.8690	3.8692	-0.6828	25.66	-0.01	-0.750			
0.2332	14926.64	3.8660	3.8660	-0.6862	25.66	-0.01	-0.750			
0.2353	15058.69	3.8630	3.8630	-0.6874	25.66	-0.01	-0.750			
0.2374	15191.07	3.8600	3.8600	-0.6906	25.66	-0.01	-0.750			
0.2394	15324.44	3.8570	3.8570	-0.6947	25.66	-0.01	-0.750			
0.2415	15457.03	3.8540	3.8540	-0.6943	25.66	-0.01	-0.750			
0.2436	15590.71	3.8510	3.8509	-0.6966	25.66	-0.01	-0.750			
0.2457	15725.16	3.8480	3.8480	-0.6979	25.66	-0.01	-0.750			
0.2478	15858.50	3.8450	3.8450	-0.6998	25.66	-0.01	-0.750			
0.2499	15993.49	3.8420	3.8420	-0.6999	25.67	-0.00	-0.750			
0.2520	16128.28	3.8390	3.8391	-0.6977	25.67	-0.00	-0.750			
0.2541	16261.84	3.8360	3.8360	-0.6984	25.67	-0.00	-0.750			
0.2562	16396.22	3.8330	3.8331	-0.6981	25.67	0.00	-0.750			
0.2583	16530.33	3.8300	3.8299	-0.6971	25.67	0.00	-0.750			
0.2604	16663.50	3.8270	3.8270	-0.6970	25.67	0.00	-0.750			
0.2625	16796.98	3.8240	3.8240	-0.6965	25.68	0.01	-0.750			
0.2646	16931.25	3.8210	3.8210	-0.6991	25.68	0.01	-0.750			
0.2666	17065.52	3.8180	3.8180	-0.6989	25.68	0.01	-0.750			
0.2687	17199.79	3.8150	3.8151	-0.6955	25.68	0.01	-0.750			
0.2708	17333.69	3.8120	3.8120	-0.6955	25.68	0.01	-0.750			
0.2729	17466.92	3.8090	3.8090	-0.6940	25.68	0.01	-0.750			
0.2750	17599.29	3.8060	3.8060	-0.6936	25.68	0.01	-0.750			
0.2771	17732.27	3.8030	3.8029	-0.6925	25.68	0.01	-0.750			
0.2791	17864.59	3.8000	3.8000	-0.6942	25.68	0.01	-0.750			
0.2812	17998.24	3.7970	3.7970	-0.6951	25.68	0.01	-0.750			
0.2833	18132.17	3.7940	3.7940	-0.6972	25.68	0.01	-0.750			
0.2854	18265.37	3.7910	3.7910	-0.7004	25.68	0.01	-0.750			
0.2875	18400.80	3.7880	3.7880	-0.7017	25.69	0.02	-0.750			
0.2896	18535.22	3.7850	3.7850	-0.7031	25.69	0.02	-0.750			
0.2917	18671.07	3.7820	3.7820	-0.7057	25.69	0.02	-0.750			
0.2939	18806.70	3.7790	3.7791	-0.7069	25.69	0.02	-0.750			
0.2960	18942.65	3.7760	3.7760	-0.7118	25.69	0.02	-0.750			
0.2981	19078.32	3.7730	3.7730	-0.7156	25.69	0.02	-0.750			
0.3003	19216.85	3.7700	3.7700	-0.7157	25.70	0.03	-0.750			
0.3024	19355.33	3.7670	3.7669	-0.7203	25.70	0.03	-0.750			
0.3046	19493.10	3.7640	3.7639	-0.7210	25.70	0.03	-0.750			
0.3067	19631.74	3.7610	3.7610	-0.7243	25.70	0.03	-0.750			
0.3089	19770.10	3.7580	3.7580	-0.7291	25.70	0.03	-0.750			
0.3111	19910.32	3.7550	3.7549	-0.7306	25.70	0.03	-0.750			
0.3133	20050.24	3.7520	3.7521	-0.7361	25.70	0.03	-0.750			
0.3155	20194.64	3.7490	3.7490	-0.7451	25.70	0.03	-0.750			
0.3178	20337.77	3.7460	3.7460	-0.7489	25.70	0.03	-0.750			
0.3200	20482.03	3.7430	3.7429	-0.7546	25.70	0.03	-0.750			
0.3223	20625.82	3.7400	3.7401	-0.7620	25.70	0.03	-0.750			
0.3246	20772.61	3.7370	3.7369	-0.7713	25.70	0.03	-0.750			
0.3269	20922.45	3.7340	3.7340	-0.7802	25.70	0.03	-0.750			
0.3293	21072.61	3.7310	3.7310	-0.7872	25.70	0.03	-0.750			
0.3316	21225.36	3.7280	3.7281	-0.7986	25.70	0.03	-0.750			
0.3341	21380.10	3.7250	3.7250	-0.8059	25.70	0.03	-0.750			
0.3365	21535.55	3.7220	3.7219	-0.8159	25.70	0.03	-0.750			
0.3390	21693.11	3.7190	3.7191	-0.8235	25.70	0.03	-0.750			
0.3414	21852.00	3.7160	3.7159	-0.8325	25.70	0.03	-0.750			
0.3440	22012.90	3.7130	3.7131	-0.8433	25.70	0.03	-0.750			
0.3465	22175.75	3.7100	3.7100	-0.8512	25.70	0.03	-0.750			
0.3491	22339.44	3.7070	3.7070	-0.8613	25.70	0.03	-0.750			
0.3516	22505.07	3.7040	3.7041	-0.8741	25.70	0.03	-0.750			
0.3543	22674.25	3.7010	3.7010	-0.8911	25.70	0.03	-0.750			
0.3570	22846.24	3.6980	3.6980	-0.9043	25.70	0.03	-0.750			
0.3597	23021.07	3.6950	3.6950	-0.9222	25.70	0.03	-0.750			
0.3625	23199.42	3.6920	3.6921	-0.9414	25.70	0.03	-0.750			
0.3654	23382.80	3.6890	3.6889	-0.9609	25.70	0.03	-0.750			
0.3683	23569.21	3.6860	3.6861	-0.9788	25.70	0.03	-0.750			
0.3712	23757.98	3.6830	3.6830	-0.9985	25.70	0.03	-0.750			
0.3742	23951.69	3.6800	3.6800	-1.0199	25.70	0.03	-0.750			
0.3773	24150.05	3.6770	3.6770	-1.0409	25.70	0.03	-0.750			
0.3805	24350.96	3.6740	3.6739	-1.0628	25.70	0.03	-0.750			
0.3837	24558.03	3.6710	3.6710	-1.0904	25.70	0.03	-0.750			
0.3870	24770.37	3.6680	3.6680	-1.1133	25.70	0.03	-0.750			
0.3904	24986.47	3.6650	3.6649	-1.1373	25.70	0.03	-0.750			
0.3939	25206.52	3.6620	3.6621	-1.1608	25.70	0.03	-0.750			
0.3974	25431.99	3.6590	3.6590	-1.1869	25.70	0.03	-0.750			
0.4010	25661.84	3.6560	3.6560	-1.2128	25.70	0.03	-0.750			
0.4046	25894.53	3.6530	3.6530	-1.2478	25.70	0.03	-0.750			
0.4084	26139.82	3.6500	3.6500	-1.2752	25.70	0.03	-0.750			
0.4123	26388.46	3.6470	3.6469	-1.3006	25.69	0.02	-0.750			
0.4163	26640.73	3.6440	3.6440	-1.3277	25.68	0.01	-0.750			
0.4203	26897.75	3.6410	3.6411	-1.3503	25.68	0.01	-0.750			
0.4244	27159.00	3.6380	3.6379	-1.3773	25.68	0.01	-0.750			
0.4285	27423.37	3.6350	3.6349	-1.4075	25.67	0.00	-0.750			
0.4327	27694.94	3.6320	3.6320	-1.4328	25.67	0.00	-0.750			
0.4371	27977.06	3.6290	3.6290	-1.4679	25.67	0.00	-0.750			
0.4416	28264.89	3.6260	3.6260	-1.4862	25.67	0.00	-0.750			
0.4461	28549.49	3.6230	3.6230	-1.5100	25.67	-0.00	-0.750			
0.4506	28840.59	3.6200	3.6200	-1.5487	25.66	-0.01	-0.750			
0.4553	29137.79	3.6170	3.6169	-1.5752	25.65	-0.02	-0.750			
0.4600	29441.72	3.6140	3.6139	-1.6141	25.65	-0.02	-0.750			
0.4650	29757.25	3.6110	3.6110	-1.6583	25.65	-0.02	-0.750			
0.4700	30082.13	3.6080	3.6080	-1.6999	25.65	-0.02	-0.750			
0.4752	30412.67	3.6050	3.6050	-1.7379	25.64	-0.03	-0.750			
0.4805	30750.62	3.6020	3.6019	-1.7532	25.64	-0.03	-0.750			
0.4858	31089.65	3.5990	3.5991	-1.7890	25.64	-0.03	-0.750			
0.4912	31436.97	3.5960	3.5960	-1.8286	25.63	-0.04	-0.750			
0.4967	31788.69	3.5930	3.5928	-1.8590	25.63	-0.04	-0.750			
0.5023	32148.41	3.5900	3.5900	-1.8891	25.63	-0.04	-0.750			
0.5081	32517.27	3.5870	3.5871	-1.9235	25.63	-0.04	-0.750			
0.5139	32891.76	3.5840	3.5840	-1.9681	25.63	-0.04	-0.750			
0.5198	33268.94	3.5810	3.5810	-1.9850	25.63	-0.04	-0.750			
0.5258	33652.46	3.5780	3.5779	-1.9911	25.62	-0.05	-0.750			
0.5318	34037.09	3.5750	3.5751	-2.0159	25.62	-0.05	-0.750			
0.5379	34427.85	3.5720	3.5724	-2.0294	25.63	-0.04	-0.750	0.388	0.553	
0.5440	34818.58	3.5690	3.5690	-2.0521	25.63	-0.04	-0.750			
0.5501	35208.07	3.5660	3.5660	-2.0834	25.62	-0.05	-0.750			
0.5565	35614.28	3.5630	3.5630	-2.1118	25.62	-0.05	-0.750			
0.5629	36026.04	3.5600	3.5599	-2.1122	25.63	-0.04	-0.750			
0.5693	36432.77	3.5570	3.5571	-2.1294	25.63	-0.04	-0.750			
0.5757	36843.92	3.5540	3.5540	-2.1189	25.63	-0.04	-0.750			
0.5820	37249.99	3.5510	3.5509	-2.1185	25.63	-0.04	-0.750			
0.5883	37653.49	3.5480	3.5481	-2.1044	25.64	-0.03	-0.750			
0.5947	38061.83	3.5450	3.5450	-2.0794	25.64	-0.03	-0.750			
0.6009	38459.94	3.5420	3.5420	-2.0608	25.64	-0.03	-0.750			
0.6070	38849.56	3.5390	3.5390	-2.0471	25.64	-0.03	-0.750			
0.6132	39242.90	3.5360	3.5360	-2.0160	25.64	-0.03	-0.750			
0.6192	39628.71	3.5330	3.5330	-1.9841	25.64	-0.03	-0.750			
0.6251	40008.03	3.5300	3.5301	-1.9639	25.65	-0.02	-0.750			
0.6310	40381.10	3.5270	3.5270	-1.9178	25.66	-0.01	-0.750			
0.6367	40746.23	3.5240	3.5239	-1.8833	25.67	-0.00	-0.750			
0.6423	41104.50	3.5210	3.5211	-1.8450	25.68	0.01	-0.750			
0.6478	41458.54	3.5180	3.5179	-1.8095	25.68	0.01	-0.750			
0.6532	41802.33	3.5150	3.5151	-1.7645	25.69	0.02	-0.750			
0.6584	42136.94	3.5120	3.5120	-1.7149	25.69	0.02	-0.750			
0.6634	42460.67	3.5090	3.5089	-1.6724	25.70	0.03	-0.750			
0.6684	42776.81	3.5060	3.5061	-1.6208	25.71	0.04	-0.750			
0.6732	43086.83	3.5030	3.5030	-1.5792	25.72	0.05	-0.750			
0.6779	43383.68	3.5000	3.4999	-1.5271	25.73	0.06	-0.750			
0.6824	43673.11	3.4970	3.4971	-1.4810	25.74	0.07	-0.750			
0.6868	43953.01	3.4940	3.4940	-1.4382	25.75	0.08	-0.750			
0.6910	44222.02	3.4910	3.4910	-1.3933	25.76	0.09	-0.750			
0.6950	44482.69	3.4880	3.4880	-1.3507	25.78	0.11	-0.750			
0.6991	44740.69	3.4850	3.4850	-1.3130	25.79	0.12	-0.750			
0.7030	44989.94	3.4820	3.4820	-1.2777	25.80	0.13	-0.750			
0.7067	45231.22	3.4790	3.4791	-1.2473	25.81	0.14	-0.750			
0.7104	45466.19	3.4760	3.4759	-1.2142	25.82	0.15	-0.750			
0.7140	45695.06	3.4730	3.4729	-1.1830	25.83	0.16	-0.750			
0.7175	45919.23	3.4700	3.4700	-1.1564	25.84	0.17	-0.750			
0.7209	46137.81	3.4670	3.4670	-1.1352	25.85	0.18	-0.750			
0.7243	46354.53	3.4640	3.4640	-1.1165	25.86	0.19	-0.750			
0.7276	46563.90	3.4610	3.4610	-1.1012	25.87	0.20	-0.750			
0.7308	46772.26	3.4580	3.4580	-1.0896	25.88	0.21	-0.750			
0.7341	46980.92	3.4550	3.4550	-1.0888	25.89	0.22	-0.750			
0.7374	47190.98	3.4520	3.4520	-1.0837	25.90	0.23	-0.750			
0.7406	47398.87	3.4490	3.4490	-1.0816	25.91	0.24	-0.750			
0.7438	47604.65	3.4460	3.4462	-1.0843	25.92	0.25	-0.750			
0.7471	47814.26	3.4430	3.4429	-1.0776	25.93	0.26	-0.750			
0.7503	48020.75	3.4400	3.4399	-1.0706	25.94	0.27	-0.750			
0.7535	48225.97	3.4370	3.4370	-1.0630	25.95	0.28	-0.750			
0.7567	48430.59	3.4340	3.4341	-1.0585	25.96	0.29	-0.750			
0.7599	48633.38	3.4310	3.4310	-1.0473	25.97	0.30	-0.750			
0.7630	48832.71	3.4280	3.4279	-1.0318	25.98	0.31	-0.750			
0.7661	49027.47	3.4250	3.4251	-1.0195	25.99	0.32	-0.750			
0.7692	49226.05	3.4220	3.4221	-1.0126	26.00	0.33	-0.750			
0.7722	49419.27	3.4190	3.4190	-0.9977	26.01	0.34	-0.750			
0.7752	49609.90	3.4160	3.4160	-0.9799	26.02	0.35	-0.750			
0.7781	49795.92	3.4130	3.4129	-0.9612	26.03	0.36	-0.750			
0.7809	49980.07	3.4100	3.4101	-0.9413	26.04	0.37	-0.750			
0.7837	50158.47	3.4070	3.4070	-0.9212	26.04	0.37	-0.750			
0.7865	50333.10	3.4040	3.4040	-0.8955	26.05	0.38	-0.750			
0.7891	50503.85	3.4010	3.4010	-0.8725	26.05	0.38	-0.750			
0.7917	50669.76	3.3980	3.3980	-0.8492	26.06	0.39	-0.750			
0.7942	50829.55	3.3950	3.3951	-0.8229	26.06	0.39	-0.750			
0.7966	50985.42	3.3920	3.3920	-0.7937	26.07	0.40	-0.750			
0.7990	51135.28	3.3890	3.3890	-0.7674	26.08	0.41	-0.750			
0.8012	51279.63	3.3860	3.3860	-0.7353	26.09	0.42	-0.750			
0.8034	51418.79	3.3830	3.3830	-0.7074	26.09	0.42	-0.750			
0.8055	51551.85	3.3800	3.3800	-0.6758	26.10	0.43	-0.750			
0.8075	51678.49	3.3770	3.3770	-0.6441	26.10	0.43	-0.750			
0.8094	51798.80	3.3740	3.3740	-0.6118	26.11	0.44	-0.750			
0.8111	51913.30	3.3710	3.3710	-0.5853	26.11	0.44	-0.750			
0.8128	52021.53	3.3680	3.3680	-0.5563	26.12	0.45	-0.750			
0.8145	52126.13	3.3650	3.3649	-0.5313	26.12	0.45	-0.750			
0.8160	52225.29	3.3620	3.3620	-0.5034	26.12	0.45	-0.750			
0.8175	52319.14	3.3590	3.3590	-0.4808	26.13	0.46	-0.750			
0.8189	52408.66	3.3560	3.3561	-0.4582	26.13	0.46	-0.750			
0.8202	52494.20	3.3530	3.3530	-0.4373	26.14	0.47	-0.750			
0.8215	52575.46	3.3500	3.3500	-0.4169	26.14	0.47	-0.750			
0.8227	52653.20	3.3470	3.3470	-0.3998	26.15	0.48	-0.750			
0.8239	52728.57	3.3440	3.3440	-0.3838	26.15	0.48	-0.750			
0.8250	52800.49	3.3410	3.3410	-0.3697	26.16	0.49	-0.750			
0.8261	52869.42	3.3380	3.3380	-0.3538	26.16	0.49	-0.750			
0.8271	52935.64	3.3350	3.3350	-0.3411	26.16	0.49	-0.750			
0.8281	53000.29	3.3320	3.3320	-0.3286	26.17	0.50	-0.750			
0.8291	53061.84	3.3290	3.3290	-0.3168	26.17	0.50	-0.750			
0.8300	53121.21	3.3260	3.3260	-0.3062	26.18	0.51	-0.750			
0.8309	53178.72	3.3230	3.3233	-0.2970	26.18	0.51	-0.750			
0.8318	53234.50	3.3200	3.3199	-0.2878	26.18	0.51	-0.750			
0.8326	53289.14	3.3170	3.3170	-0.2799	26.19	0.52	-0.750			
0.8335	53341.88	3.3140	3.3140	-0.2718	26.19	0.52	-0.750			
0.8343	53393.20	3.3110	3.3111	-0.2642	26.20	0.53	-0.750			
0.8351	53444.04	3.3080	3.3079	-0.2568	26.20	0.53	-0.750			
0.8358	53491.58	3.3050	3.3050	-0.2493	26.20	0.53	-0.750			
0.8365	53538.61	3.3020	3.3020	-0.2435	26.21	0.54	-0.750			
0.8373	53584.51	3.2990	3.2990	-0.2378	26.21	0.54	-0.750			
0.8380	53629.56	3.2960	3.2960	-0.2332	26.21	0.54	-0.750			
0.8387	53673.80	3.2930	3.2930	-0.2286	26.22	0.55	-0.750			
0.8393	53717.12	3.2900	3.2900	-0.2241	26.22	0.55	-0.750			
0.8400	53760.00	3.2870	3.2869	-0.2208	26.22	0.55	-0.750			
0.8407	53801.77	3.2840	3.2839	-0.2155	26.23	0.56	-0.750			
0.8413	53842.63	3.2810	3.2811	-0.2119	26.23	0.56	-0.750			
0.8419	53883.02	3.2780	3.2780	-0.2083	26.23	0.56	-0.750			
0.8425	53922.68	3.2750	3.2751	-0.2044	26.24	0.57	-0.750			
0.8431	53961.32	3.2720	3.2719	-0.2009	26.24	0.57	-0.750			
0.8437	53999.60	3.2690	3.2691	-0.1978	26.24	0.57	-0.750			
0.8443	54037.21	3.2660	3.2660	-0.1947	26.25	0.58	-0.750			
0.8449	54074.40	3.2630	3.2630	-0.1910	26.25	0.58	-0.750			
0.8455	54110.63	3.2600	3.2600	-0.1886	26.25	0.58	-0.750			
0.8460	54146.47	3.2570	3.2570	-0.1851	26.26	0.59	-0.750			
0.8466	54181.75	3.2540	3.2540	-0.1824	26.26	0.59	-0.750			
0.8471	54216.52	3.2510	3.2509	-0.1803	26.26	0.59	-0.750			
0.8477	54250.56	3.2480	3.2481	-0.1779	26.27	0.60	-0.750			
0.8482	54284.56	3.2450	3.2449	-0.1760	26.27	0.60	-0.750			
0.8487	54318.18	3.2420	3.2420	-0.1742	26.27	0.60	-0.750			
0.8492	54351.65	3.2390	3.2390	-0.1722	26.28	0.61	-0.750			
0.8498	54384.24	3.2360	3.2360	-0.1700	26.28	0.61	-0.750			
0.8503	54417.07	3.2330	3.2330	-0.1684	26.28	0.61	-0.750			
0.8508	54449.15	3.2300	3.2300	-0.1659	26.29	0.62	-0.750			
0.8513	54480.57	3.2270	3.2269	-0.1642	26.29	0.62	-0.750			
0.8517	54511.90	3.2240	3.2241	-0.1621	26.29	0.62	-0.750			
0.8522	54542.81	3.2210	3.2209	-0.1604	26.30	0.63	-0.750			
0.8527	54573.44	3.2180	3.2180	-0.1587	26.30	0.63	-0.750			
0.8532	54603.81	3.2150	3.2150	-0.1569	26.30	0.63	-0.750			
0.8537	54633.71	3.2120	3.2119	-0.1550	26.31	0.64	-0.750			
0.8541	54663.18	3.2090	3.2090	-0.1540	26.31	0.64	-0.750			
0.8546	54692.69	3.2060	3.2060	-0.1525	26.31	0.64	-0.750			
0.8550	54721.60	3.2030	3.2030	-0.1509	26.31	0.64	-0.750			
0.8555	54750.69	3.2000	3.1999	-0.1493	26.32	0.65	-0.750			
0.8559	54779.20	3.1970	3.1971	-0.1476	26.32	0.65	-0.750			
0.8564	54807.27	3.1940	3.1941	-0.1463	26.32	0.65	-0.750			
0.8568	54835.30	3.1910	3.1910	-0.1449	26.33	0.66	-0.750			
0.8572	54862.83	3.1880	3.1880	-0.1437	26.33	0.66	-0.750			
0.8577	54890.02	3.1850	3.1850	-0.1421	26.34	0.67	-0.750			
0.8581	54917.46	3.1820	3.1819	-0.1415	26.34	0.67	-0.750			
0.8585	54944.54	3.1790	3.1791	-0.1405	26.34	0.67	-0.750			
0.8589	54971.65	3.1760	3.1760	-0.1390	26.35	0.68	-0.750			
0.8593	54998.13	3.1730	3.1730	-0.1379	26.35	0.68	-0.750			
0.8598	55024.27	3.1700	3.1701	-0.1365	26.36	0.69	-0.750			
0.8602	55050.39	3.1670	3.1670	-0.1356	26.36	0.69	-0.750			
0.8606	55076.32	3.1640	3.1639	-0.1343	26.36	0.69	-0.750			
0.8610	55102.09	3.1610	3.1611	-0.1330	26.37	0.70	-0.750			
0.8614	55127.63	3.1580	3.1580	-0.1320	26.37	0.70	-0.750			
0.8618	55152.82	3.1550	3.1550	-0.1307	26.37	0.70	-0.750			
0.8622	55177.62	3.1520	3.1521	-0.1300	26.38	0.71	-0.750			
0.8625	55202.22	3.1490	3.1489	-0.1286	26.38	0.71	-0.750			
0.8629	55226.95	3.1460	3.1460	-0.1274	26.38	0.71	-0.750			
0.8633	55251.34	3.1430	3.1430	-0.1267	26.39	0.72	-0.750			
0.8637	55275.69	3.1400	3.1400	-0.1261	26.39	0.72	-0.750			
0.8641	55299.81	3.1370	3.1372	-0.1252	26.39	0.72	-0.750			
0.8644	55323.96	3.1340	3.1340	-0.1243	26.40	0.73	-0.750			
0.8648	55347.76	3.1310	3.1309	-0.1232	26.40	0.73	-0.750			
0.8652	55371.12	3.1280	3.1279	-0.1225	26.40	0.73	-0.750			
0.8655	55394.25	3.1250	3.1251	-0.1213	26.41	0.74	-0.750			
0.8659	55417.67	3.1220	3.1220	-0.1202	26.41	0.74	-0.750			
0.8663	55440.89	3.1190	3.1189	-0.1195	26.41	0.74	-0.750			
0.8666	55463.65	3.1160	3.1160	-0.1186	26.42	0.75	-0.750			
0.8670	55486.27	3.1130	3.1131	-0.1176	26.42	0.75	-0.750			
0.8673	55508.76	3.1100	3.1100	-0.1167	26.42	0.75	-0.750			
0.8677	55531.15	3.1070	3.1069	-0.1158	26.43	0.76	-0.750			
0.8680	55553.23	3.1040	3.1041	-0.1151	26.43	0.76	-0.750			
0.8684	55575.04	3.1010	3.1010	-0.1142	26.43	0.76	-0.750			
0.8687	55596.95	3.0980	3.0980	-0.1136	26.43	0.76	-0.750			
0.8690	55618.86	3.0950	3.0949	-0.1131	26.43	0.76	-0.750			
0.8694	55640.54	3.0920	3.0920	-0.1118	26.44	0.77	-0.750			
0.8697	55661.92	3.0890	3.0890	-0.1108	26.44	0.77	-0.750			
0.8700	55683.04	3.0860	3.0860	-0.1104	26.44	0.77	-0.750			
0.8704	55704.16	3.0830	3.0831	-0.1097	26.44	0.77	-0.750			
0.8707	55725.03	3.0800	3.0799	-0.1088	26.45	0.78	-0.750			
0.8710	55745.87	3.0770	3.0770	-0.1082	26.45	0.78	-0.750			
0.8714	55766.65	3.0740	3.0740	-0.1072	26.45	0.78	-0.750			
0.8717	55787.16	3.0710	3.0711	-0.1064	26.45	0.78	-0.750			
0.8720	55807.67	3.0680	3.0680	-0.1060	26.45	0.78	-0.750			
0.8723	55827.93	3.0650	3.0650	-0.1050	26.46	0.79	-0.750			
0.8726	55847.75	3.0620	3.0620	-0.1042	26.46	0.79	-0.750			
0.8729	55867.72	3.0590	3.0590	-0.1038	26.46	0.79	-0.750			
0.8732	55887.55	3.0560	3.0560	-0.1032	26.46	0.79	-0.750			
0.8736	55907.32	3.0530	3.0529	-0.1028	26.47	0.80	-0.750			
0.8739	55927.25	3.0500	3.0500	-0.1021	26.47	0.80	-0.750			
0.8742	55946.76	3.0470	3.0470	-0.1011	26.47	0.80	-0.750			
0.8745	55966.13	3.0440	3.0440	-0.1004	26.47	0.80	-0.750			
0.8748	55985.31	3.0410	3.0411	-0.0994	26.47	0.80	-0.750			
0.8751	56004.17	3.0380	3.0379	-0.0987	26.48	0.81	-0.750			
0.8754	56023.06	3.0350	3.0350	-0.0981	26.48	0.81	-0.750			
0.8757	56041.67	3.0320	3.0320	-0.0975	26.48	0.81	-0.750			
0.8759	56060.37	3.0290	3.0290	-0.0973	26.48	0.81	-0.750			
0.8762	56079.08	3.0260	3.0261	-0.0970	26.48	0.81	-0.750			
0.8765	56097.66	3.0230	3.0229	-0.0966	26.49	0.82	-0.750			
0.8768	56116.33	3.0200	3.0199	-0.0958	26.49	0.82	-0.750			
0.8771	56134.64	3.0170	3.0171	-0.0949	26.49	0.82	-0.750			
0.8774	56152.79	3.0140	3.0141	-0.0944	26.49	0.82	-0.750			
0.8777	56170.84	3.0110	3.0110	-0.0936	26.49	0.82	-0.750			
0.8779	56188.69	3.0080	3.0080	-0.0929	26.50	0.83	-0.750			
0.8782	56206.45	3.0050	3.0049	-0.0922	26.50	0.83	-0.750			
0.8785	56224.12	3.0020	3.0021	-0.0937	26.50	0.83	-0.750			
