Ah_balance (normalized)	Ah_balance (mAh)	Voltage - fit (V)	Voltage -  interpolate (V)	dQ/dV (1/V)	Temperature (°C)	Temperature - diff (°C)	Current (C)	R_DC 0ms (mOhm)	R_DC 50ms (mOhm)	R_DC 50 ms PEC (mOhm)
0.2370	15169.76	3.9730	3.9730	0.8709	26.03	0.11	0.750			
0.2396	15336.68	3.9700	3.9700	0.8717	26.03	0.11	0.750			
0.2423	15504.29	3.9670	3.9670	0.8749	26.04	0.12	0.750			
0.2449	15672.31	3.9640	3.9639	0.8797	26.04	0.12	0.750			
0.2475	15842.24	3.9610	3.9610	0.8811	26.04	0.12	0.750			
0.2502	16011.55	3.9580	3.9580	0.8840	26.05	0.13	0.750			
0.2528	16181.56	3.9550	3.9550	0.8877	26.05	0.13	0.750			
0.2555	16353.15	3.9520	3.9520	0.8894	26.06	0.14	0.750			
0.2582	16523.69	3.9490	3.9490	0.8908	26.06	0.14	0.750			
0.2609	16695.36	3.9460	3.9460	0.8898	26.07	0.15	0.750			
0.2635	16864.93	3.9430	3.9430	0.8936	26.07	0.15	0.750			
0.2662	17036.75	3.9400	3.9401	0.9005	26.07	0.15	0.750			
0.2689	17210.81	3.9370	3.9369	0.8988	26.08	0.16	0.750			
0.2716	17383.55	3.9340	3.9340	0.9014	26.08	0.16	0.750			
0.2743	17557.55	3.9310	3.9311	0.9035	26.09	0.17	0.750			
0.2770	17730.29	3.9280	3.9280	0.9064	26.09	0.17	0.750			
0.2798	17905.35	3.9250	3.9249	0.9093	26.10	0.18	0.750			
0.2825	18078.81	3.9220	3.9219	0.9093	26.10	0.18	0.750			
0.2852	18253.80	3.9190	3.9190	0.9092	26.10	0.18	0.750			
0.2880	18429.31	3.9160	3.9160	0.9172	26.11	0.19	0.750			
0.2907	18605.65	3.9130	3.9130	0.9194	26.11	0.19	0.750			
0.2935	18781.81	3.9100	3.9100	0.9231	26.12	0.20	0.750			
0.2962	18959.63	3.9070	3.9071	0.9269	26.12	0.20	0.750			
0.2991	19139.59	3.9040	3.9040	0.9279	26.12	0.20	0.750			
0.3018	19317.38	3.9010	3.9011	0.9305	26.13	0.21	0.750			
0.3046	19496.54	3.8980	3.8980	0.9316	26.13	0.21	0.750			
0.3074	19673.29	3.8950	3.8949	0.9326	26.13	0.21	0.750			
0.3102	19853.70	3.8920	3.8920	0.9329	26.13	0.21	0.750			
0.3130	20031.87	3.8890	3.8890	0.9409	26.13	0.21	0.750			
0.3158	20213.96	3.8860	3.8860	0.9496	26.14	0.22	0.750			
0.3187	20396.49	3.8830	3.8830	0.9550	26.14	0.22	0.750			
0.3216	20582.53	3.8800	3.8800	0.9537	26.14	0.22	0.750			
0.3245	20766.38	3.8770	3.8771	0.9595	26.14	0.22	0.750			
0.3273	20950.08	3.8740	3.8740	0.9613	26.13	0.21	0.750			
0.3302	21135.31	3.8710	3.8711	0.9647	26.13	0.21	0.750			
0.3331	21318.30	3.8680	3.8679	0.9638	26.13	0.21	0.750			
0.3360	21503.87	3.8650	3.8651	0.9648	26.13	0.21	0.750			
0.3389	21688.43	3.8620	3.8621	0.9726	26.12	0.20	0.750			
0.3418	21875.45	3.8590	3.8590	0.9864	26.12	0.20	0.750			
0.3448	22065.44	3.8560	3.8558	0.9931	26.12	0.20	0.750			
0.3478	22257.21	3.8530	3.8530	0.9986	26.12	0.20	0.750			
0.3508	22450.49	3.8500	3.8500	1.0098	26.12	0.20	0.750			
0.3539	22647.19	3.8470	3.8471	1.0177	26.11	0.19	0.750			
0.3569	22842.92	3.8440	3.8439	1.0204	26.11	0.19	0.750			
0.3600	23038.54	3.8410	3.8410	1.0215	26.11	0.19	0.750			
0.3630	23234.87	3.8380	3.8380	1.0285	26.11	0.19	0.750			
0.3661	23433.21	3.8350	3.8350	1.0374	26.10	0.18	0.750			
0.3693	23632.79	3.8320	3.8320	1.0461	26.10	0.18	0.750			
0.3724	23832.57	3.8290	3.8290	1.0524	26.10	0.18	0.750			
0.3756	24035.88	3.8260	3.8260	1.0662	26.10	0.18	0.750			
0.3788	24241.94	3.8230	3.8230	1.0782	26.10	0.18	0.750			
0.3821	24451.98	3.8200	3.8200	1.0880	26.10	0.18	0.750			
0.3853	24660.70	3.8170	3.8170	1.0999	26.09	0.17	0.750			
0.3886	24873.21	3.8140	3.8140	1.1116	26.08	0.16	0.750			
0.3920	25087.37	3.8110	3.8110	1.1221	26.07	0.15	0.750			
0.3954	25303.87	3.8080	3.8079	1.1324	26.06	0.14	0.750			
0.3988	25521.39	3.8050	3.8051	1.1496	26.06	0.14	0.750			
0.4022	25743.64	3.8020	3.8020	1.1664	26.05	0.13	0.750			
0.4058	25971.09	3.7990	3.7989	1.1782	26.05	0.13	0.750			
0.4094	26198.65	3.7960	3.7960	1.1876	26.05	0.13	0.750			
0.4129	26427.32	3.7930	3.7930	1.2068	26.04	0.12	0.750			
0.4166	26660.07	3.7900	3.7901	1.2228	26.04	0.12	0.750			
0.4202	26895.16	3.7870	3.7869	1.2386	26.03	0.11	0.750			
0.4240	27133.05	3.7840	3.7840	1.2563	26.03	0.11	0.750			
0.4278	27376.48	3.7810	3.7811	1.2798	26.02	0.10	0.750			
0.4317	27627.15	3.7780	3.7780	1.2953	26.02	0.10	0.750			
0.4356	27876.14	3.7750	3.7750	1.3242	26.02	0.10	0.750			
0.4396	28131.77	3.7720	3.7720	1.3458	26.01	0.09	0.750			
0.4436	28392.83	3.7690	3.7690	1.3674	26.00	0.08	0.750			
0.4478	28657.20	3.7660	3.7661	1.3945	25.99	0.07	0.750			
0.4520	28927.66	3.7630	3.7630	1.4202	25.98	0.06	0.750			
0.4563	29203.40	3.7600	3.7599	1.4437	25.97	0.05	0.750			
0.4606	29480.64	3.7570	3.7571	1.4693	25.97	0.05	0.750			
0.4651	29765.47	3.7540	3.7540	1.4957	25.96	0.04	0.750			
0.4697	30058.61	3.7510	3.7509	1.5285	25.96	0.04	0.750			
0.4743	30353.68	3.7480	3.7480	1.5624	25.95	0.03	0.750			
0.4790	30655.48	3.7450	3.7450	1.6007	25.93	0.01	0.750			
0.4839	30968.51	3.7420	3.7419	1.6331	25.92	-0.00	0.750			
0.4888	31285.50	3.7390	3.7391	1.6632	25.90	-0.02	0.750			
0.4938	31605.06	3.7360	3.7360	1.6959	25.89	-0.03	0.750			
0.4990	31934.63	3.7330	3.7331	1.7427	25.88	-0.04	0.750			
0.5042	32270.24	3.7300	3.7299	1.7877	25.87	-0.05	0.750			
0.5096	32614.87	3.7270	3.7270	1.8425	25.85	-0.07	0.750			
0.5152	32975.47	3.7240	3.7240	1.8855	25.84	-0.08	0.750			
0.5210	33344.32	3.7210	3.7210	1.9569	25.83	-0.09	0.750			
0.5270	33726.46	3.7180	3.7179	1.9915	25.81	-0.11	0.750			
0.5330	34112.99	3.7150	3.7149	2.0251	25.80	-0.12	0.750			
0.5391	34504.85	3.7120	3.7121	2.0774	25.78	-0.14	0.750	0.361	0.484	
0.5454	34907.18	3.7090	3.7090	2.1243	25.76	-0.16	0.750			
0.5518	35317.55	3.7060	3.7060	2.1631	25.74	-0.18	0.750			
0.5584	35738.75	3.7030	3.7032	2.2538	25.73	-0.19	0.750			
0.5653	36180.74	3.7000	3.6999	2.3104	25.71	-0.21	0.750			
0.5724	36631.61	3.6970	3.6971	2.3721	25.70	-0.22	0.750			
0.5796	37094.83	3.6940	3.6940	2.4164	25.68	-0.24	0.750			
0.5869	37564.75	3.6910	3.6911	2.4496	25.67	-0.25	0.750			
0.5942	38031.78	3.6880	3.6880	2.5186	25.65	-0.27	0.750			
0.6019	38523.09	3.6850	3.6849	2.5985	25.64	-0.28	0.750			
0.6099	39031.88	3.6820	3.6821	2.6646	25.63	-0.29	0.750			
0.6180	39552.70	3.6790	3.6790	2.6921	25.62	-0.30	0.750			
0.6261	40071.67	3.6760	3.6760	2.7033	25.61	-0.31	0.750			
0.6343	40593.26	3.6730	3.6729	2.6747	25.59	-0.33	0.750			
0.6424	41111.11	3.6700	3.6701	2.6159	25.58	-0.34	0.750			
0.6502	41612.36	3.6670	3.6669	2.4836	25.57	-0.35	0.750			
0.6574	42071.51	3.6640	3.6642	2.2940	25.56	-0.36	0.750			
0.6640	42495.31	3.6610	3.6609	2.1150	25.57	-0.35	0.750			
0.6700	42877.23	3.6580	3.6581	1.9273	25.57	-0.35	0.750			
0.6754	43225.86	3.6550	3.6550	1.7759	25.57	-0.35	0.750			
0.6804	43548.29	3.6520	3.6520	1.6565	25.58	-0.34	0.750			
0.6851	43848.18	3.6490	3.6490	1.5373	25.58	-0.34	0.750			
0.6895	44127.15	3.6460	3.6461	1.4458	25.59	-0.33	0.750			
0.6937	44397.76	3.6430	3.6430	1.3782	25.60	-0.32	0.750			
0.6977	44650.43	3.6400	3.6400	1.3156	25.60	-0.32	0.750			
0.7015	44894.91	3.6370	3.6370	1.2811	25.60	-0.32	0.750			
0.7052	45134.32	3.6340	3.6340	1.2504	25.60	-0.32	0.750			
0.7089	45370.63	3.6310	3.6310	1.2208	25.60	-0.32	0.750			
0.7125	45602.38	3.6280	3.6280	1.2054	25.61	-0.31	0.750			
0.7161	45831.94	3.6250	3.6251	1.1940	25.61	-0.31	0.750			
0.7197	46060.76	3.6220	3.6218	1.1820	25.62	-0.30	0.750			
0.7232	46284.69	3.6190	3.6190	1.1737	25.62	-0.30	0.750			
0.7267	46508.74	3.6160	3.6160	1.1675	25.63	-0.29	0.750			
0.7302	46732.06	3.6130	3.6130	1.1687	25.63	-0.29	0.750			
0.7337	46956.73	3.6100	3.6101	1.1637	25.63	-0.29	0.750			
0.7372	47179.28	3.6070	3.6070	1.1689	25.63	-0.29	0.750			
0.7407	47402.53	3.6040	3.6040	1.1743	25.64	-0.28	0.750			
0.7442	47630.38	3.6010	3.6009	1.1763	25.64	-0.28	0.750			
0.7477	47854.56	3.5980	3.5981	1.1901	25.64	-0.28	0.750			
0.7513	48082.04	3.5950	3.5951	1.2122	25.65	-0.27	0.750			
0.7549	48313.77	3.5920	3.5921	1.2379	25.66	-0.26	0.750			
0.7586	48553.43	3.5890	3.5889	1.2705	25.66	-0.26	0.750			
0.7625	48799.96	3.5860	3.5860	1.3129	25.66	-0.26	0.750			
0.7665	49058.47	3.5830	3.5830	1.3537	25.66	-0.26	0.750			
0.7707	49323.48	3.5800	3.5800	1.3976	25.66	-0.26	0.750			
0.7749	49596.17	3.5770	3.5770	1.4292	25.66	-0.26	0.750			
0.7793	49875.60	3.5740	3.5741	1.4593	25.67	-0.25	0.750			
0.7837	50158.69	3.5710	3.5710	1.4990	25.67	-0.25	0.750			
0.7883	50449.25	3.5680	3.5680	1.5291	25.67	-0.25	0.750			
0.7929	50748.34	3.5650	3.5649	1.5453	25.68	-0.24	0.750			
0.7976	51047.30	3.5620	3.5620	1.5681	25.68	-0.24	0.750			
0.8024	51353.17	3.5590	3.5591	1.5756	25.69	-0.23	0.750			
0.8072	51658.04	3.5560	3.5559	1.5862	25.70	-0.22	0.750			
0.8119	51964.20	3.5530	3.5530	1.5874	25.70	-0.22	0.750			
0.8167	52267.99	3.5500	3.5499	1.5750	25.71	-0.21	0.750			
0.8214	52571.36	3.5470	3.5471	1.5696	25.71	-0.21	0.750			
0.8262	52876.05	3.5440	3.5439	1.5396	25.72	-0.20	0.750			
0.8309	53177.49	3.5410	3.5410	1.4860	25.72	-0.20	0.750			
0.8355	53471.14	3.5380	3.5379	1.3686	25.73	-0.19	0.750			
0.8397	53737.98	3.5350	3.5352	1.2416	25.75	-0.17	0.750			
0.8432	53966.63	3.5320	3.5322	1.0652	25.76	-0.16	0.750			
0.8462	54156.80	3.5290	3.5290	0.8859	25.78	-0.14	0.750			
0.8483	54291.34	3.5260	3.5261	0.7062	25.79	-0.13	0.750			
0.8501	54404.90	3.5230	3.5228	0.5717	25.80	-0.12	0.750			
0.8514	54488.43	3.5200	3.5200	0.4699	25.81	-0.11	0.750			
0.8526	54566.55	3.5170	3.5169	0.4065	25.81	-0.11	0.750			
0.8537	54634.24	3.5140	3.5140	0.3641	25.82	-0.10	0.750			
0.8547	54699.70	3.5110	3.5110	0.3379	25.82	-0.10	0.750			
0.8556	54760.88	3.5080	3.5080	0.3169	25.83	-0.09	0.750			
0.8566	54819.75	3.5050	3.5049	0.3016	25.84	-0.08	0.750			
0.8574	54875.49	3.5020	3.5021	0.2893	25.84	-0.08	0.750			
0.8583	54929.24	3.4990	3.4990	0.2782	25.85	-0.07	0.750			
0.8591	54981.69	3.4960	3.4960	0.2698	25.85	-0.07	0.750			
0.8599	55032.44	3.4930	3.4931	0.2622	25.86	-0.06	0.750			
0.8606	55081.54	3.4900	3.4899	0.2539	25.86	-0.06	0.750			
0.8614	55129.65	3.4870	3.4870	0.2471	25.87	-0.05	0.750			
0.8621	55176.22	3.4840	3.4840	0.2410	25.87	-0.05	0.750			
0.8628	55221.60	3.4810	3.4811	0.2349	25.87	-0.05	0.750			
0.8635	55266.54	3.4780	3.4780	0.2301	25.88	-0.04	0.750			
0.8642	55309.87	3.4750	3.4750	0.2246	25.88	-0.04	0.750			
0.8649	55352.43	3.4720	3.4720	0.2199	25.89	-0.03	0.750			
0.8655	55394.10	3.4690	3.4690	0.2148	25.89	-0.03	0.750			
0.8662	55434.92	3.4660	3.4660	0.2104	25.90	-0.02	0.750			
0.8668	55475.14	3.4630	3.4630	0.2057	25.90	-0.02	0.750			
0.8674	55514.21	3.4600	3.4600	0.2003	25.90	-0.02	0.750			
0.8680	55551.92	3.4570	3.4570	0.1958	25.91	-0.01	0.750			
0.8686	55589.06	3.4540	3.4541	0.1912	25.91	-0.01	0.750			
0.8691	55625.25	3.4510	3.4510	0.1865	25.91	-0.01	0.750			
0.8697	55660.55	3.4480	3.4479	0.1817	25.92	-0.00	0.750			
0.8702	55695.06	3.4450	3.4451	0.1773	25.92	0.00	0.750			
0.8708	55728.67	3.4420	3.4421	0.1729	25.93	0.01	0.750			
0.8713	55761.54	3.4390	3.4390	0.1684	25.93	0.01	0.750			
0.8718	55793.44	3.4360	3.4360	0.1643	25.93	0.01	0.750			
0.8723	55824.20	3.4330	3.4330	0.1592	25.93	0.01	0.750			
0.8727	55854.45	3.4300	3.4300	0.1553	25.94	0.02	0.750			
0.8732	55883.99	3.4270	3.4270	0.1512	25.94	0.02	0.750			
0.8736	55912.77	3.4240	3.4240	0.1468	25.94	0.02	0.750			
0.8741	55940.53	3.4210	3.4210	0.1423	25.95	0.03	0.750			
0.8745	55967.55	3.4180	3.4180	0.1374	25.95	0.03	0.750			
0.8749	55993.56	3.4150	3.4150	0.1325	25.95	0.03	0.750			
0.8753	56018.47	3.4120	3.4120	0.1273	25.95	0.03	0.750			
0.8757	56042.32	3.4090	3.4090	0.1226	25.96	0.04	0.750			
0.8760	56065.31	3.4060	3.4061	0.1177	25.96	0.04	0.750			
0.8764	56087.41	3.4030	3.4030	0.1128	25.96	0.04	0.750			
0.8767	56108.62	3.4000	3.4000	0.1081	25.96	0.04	0.750			
0.8770	56129.21	3.3970	3.3970	0.1027	25.97	0.05	0.750			
0.8773	56148.61	3.3940	3.3941	0.0977	25.97	0.05	0.750			
0.8776	56166.83	3.3910	3.3910	0.0921	25.97	0.05	0.750			
0.8779	56184.92	3.3880	3.3879	0.0847	25.97	0.05	0.750			
0.8781	56200.43	3.3850	3.3850	0.0769	25.97	0.05	0.750			
0.8784	56214.97	3.3820	3.3821	0.0699	25.97	0.05	0.750			
0.8786	56227.58	3.3790	3.3793	0.0615	25.98	0.06	0.750			
0.8787	56239.10	3.3760	3.3765	0.0531	25.98	0.06	0.750			
0.8789	56248.43	3.3730	3.3737	0.0441	25.98	0.06	0.750			
0.8790	56256.02	3.3700	3.3713	0.0350	25.98	0.06	0.750			
0.8791	56261.87	3.3670	3.3688	0.0259	25.98	0.06	0.750			
