Ah_balance (normalized)	Ah_balance (mAh)	Voltage - fit (V)	Voltage -  interpolate (V)	dQ/dV (1/V)	Temperature (°C)	Temperature - diff (°C)	Current (C)	R_DC 0ms (mOhm)	R_DC 50ms (mOhm)	R_DC 50 ms PEC (mOhm)
0.2166	13859.41	3.9120	3.9119	-0.1119	25.81	-0.01	-1.500			
0.2169	13884.26	3.9090	3.9089	-0.1451	25.81	-0.01	-1.500			
0.2174	13915.44	3.9060	3.9060	-0.1769	25.81	-0.01	-1.500			
0.2180	13953.32	3.9030	3.9030	-0.2060	25.81	-0.01	-1.500			
0.2187	13996.16	3.9000	3.9000	-0.2328	25.81	-0.01	-1.500			
0.2194	14044.56	3.8970	3.8970	-0.2606	25.81	-0.01	-1.500			
0.2203	14096.38	3.8940	3.8941	-0.2870	25.81	-0.01	-1.500			
0.2212	14153.93	3.8910	3.8910	-0.3138	25.81	-0.01	-1.500			
0.2221	14216.50	3.8880	3.8880	-0.3389	25.81	-0.01	-1.500			
0.2232	14283.46	3.8850	3.8849	-0.3661	25.82	-0.00	-1.500			
0.2243	14356.62	3.8820	3.8821	-0.3944	25.82	-0.00	-1.500			
0.2256	14435.54	3.8790	3.8789	-0.4210	25.82	-0.00	-1.500			
0.2269	14519.47	3.8760	3.8760	-0.4466	25.82	-0.00	-1.500			
0.2283	14608.14	3.8730	3.8730	-0.4692	25.82	-0.00	-1.500			
0.2297	14700.59	3.8700	3.8700	-0.4947	25.82	-0.00	-1.500			
0.2312	14798.43	3.8670	3.8671	-0.5163	25.82	-0.00	-1.500			
0.2328	14899.03	3.8640	3.8639	-0.5370	25.82	-0.00	-1.500			
0.2344	15004.30	3.8610	3.8610	-0.5584	25.82	-0.00	-1.500			
0.2362	15114.30	3.8580	3.8580	-0.5778	25.82	0.00	-1.500			
0.2379	15227.14	3.8550	3.8550	-0.5952	25.82	0.00	-1.500			
0.2398	15344.24	3.8520	3.8520	-0.6111	25.82	0.00	-1.500			
0.2416	15462.80	3.8490	3.8490	-0.6227	25.82	0.00	-1.500			
0.2435	15584.87	3.8460	3.8460	-0.6361	25.82	0.00	-1.500			
0.2454	15707.77	3.8430	3.8430	-0.6456	25.82	0.00	-1.500			
0.2474	15833.07	3.8400	3.8400	-0.6536	25.83	0.01	-1.500			
0.2494	15959.51	3.8370	3.8370	-0.6621	25.83	0.01	-1.500			
0.2514	16087.65	3.8340	3.8340	-0.6690	25.83	0.01	-1.500			
0.2534	16217.35	3.8310	3.8310	-0.6763	25.83	0.01	-1.500			
0.2554	16348.16	3.8280	3.8279	-0.6811	25.83	0.01	-1.500			
0.2575	16479.03	3.8250	3.8249	-0.6850	25.83	0.01	-1.500			
0.2595	16610.49	3.8220	3.8221	-0.6919	25.83	0.01	-1.500			
0.2616	16744.40	3.8190	3.8189	-0.6957	25.83	0.01	-1.500			
0.2637	16878.44	3.8160	3.8159	-0.6990	25.84	0.02	-1.500			
0.2658	17013.24	3.8130	3.8130	-0.7019	25.84	0.02	-1.500			
0.2679	17147.90	3.8100	3.8100	-0.7036	25.85	0.03	-1.500			
0.2701	17284.81	3.8070	3.8070	-0.7050	25.85	0.03	-1.500			
0.2722	17419.58	3.8040	3.8040	-0.7057	25.85	0.03	-1.500			
0.2743	17554.34	3.8010	3.8010	-0.7048	25.86	0.04	-1.500			
0.2764	17690.16	3.7980	3.7979	-0.7091	25.86	0.04	-1.500			
0.2785	17826.93	3.7950	3.7950	-0.7067	25.87	0.05	-1.500			
0.2807	17962.54	3.7920	3.7920	-0.7069	25.87	0.05	-1.500			
0.2828	18098.55	3.7890	3.7890	-0.7068	25.88	0.06	-1.500			
0.2849	18233.87	3.7860	3.7859	-0.7082	25.88	0.06	-1.500			
0.2870	18368.72	3.7830	3.7830	-0.7071	25.88	0.06	-1.500			
0.2891	18505.06	3.7800	3.7800	-0.7071	25.89	0.07	-1.500			
0.2913	18640.50	3.7770	3.7770	-0.7082	25.89	0.07	-1.500			
0.2934	18777.61	3.7740	3.7740	-0.7101	25.89	0.07	-1.500			
0.2955	18913.58	3.7710	3.7709	-0.7098	25.90	0.08	-1.500			
0.2977	19049.90	3.7680	3.7680	-0.7102	25.90	0.08	-1.500			
0.2998	19185.56	3.7650	3.7650	-0.7129	25.90	0.08	-1.500			
0.3019	19323.34	3.7620	3.7620	-0.7149	25.91	0.09	-1.500			
0.3041	19461.40	3.7590	3.7590	-0.7157	25.91	0.09	-1.500			
0.3062	19598.12	3.7560	3.7560	-0.7139	25.91	0.09	-1.500			
0.3084	19735.48	3.7530	3.7530	-0.7143	25.92	0.10	-1.500			
0.3105	19872.69	3.7500	3.7500	-0.7149	25.92	0.10	-1.500			
0.3126	20009.56	3.7470	3.7469	-0.7137	25.93	0.11	-1.500			
0.3148	20146.16	3.7440	3.7440	-0.7152	25.93	0.11	-1.500			
0.3169	20284.28	3.7410	3.7410	-0.7171	25.94	0.12	-1.500			
0.3191	20421.44	3.7380	3.7380	-0.7229	25.94	0.12	-1.500			
0.3213	20560.92	3.7350	3.7351	-0.7257	25.95	0.13	-1.500			
0.3234	20700.07	3.7320	3.7319	-0.7296	25.95	0.13	-1.500			
0.3256	20840.70	3.7290	3.7291	-0.7328	25.96	0.14	-1.500			
0.3278	20981.26	3.7260	3.7260	-0.7423	25.96	0.14	-1.500			
0.3301	21123.99	3.7230	3.7230	-0.7491	25.97	0.15	-1.500			
0.3323	21269.18	3.7200	3.7199	-0.7520	25.97	0.15	-1.500			
0.3346	21413.31	3.7170	3.7169	-0.7568	25.98	0.16	-1.500			
0.3369	21560.32	3.7140	3.7141	-0.7648	25.99	0.17	-1.500			
0.3392	21707.60	3.7110	3.7109	-0.7679	25.99	0.17	-1.500			
0.3415	21855.18	3.7080	3.7080	-0.7739	26.00	0.18	-1.500			
0.3438	22003.25	3.7050	3.7050	-0.7783	26.01	0.19	-1.500			
0.3461	22152.91	3.7020	3.7020	-0.7894	26.01	0.19	-1.500			
0.3485	22305.74	3.6990	3.6990	-0.8002	26.02	0.20	-1.500			
0.3509	22458.18	3.6960	3.6960	-0.8131	26.03	0.21	-1.500			
0.3534	22617.11	3.6930	3.6929	-0.8191	26.03	0.21	-1.500			
0.3559	22776.34	3.6900	3.6900	-0.8297	26.04	0.22	-1.500			
0.3584	22935.66	3.6870	3.6870	-0.8407	26.05	0.23	-1.500			
0.3609	23098.10	3.6840	3.6839	-0.8510	26.05	0.23	-1.500			
0.3635	23261.58	3.6810	3.6809	-0.8629	26.06	0.24	-1.500			
0.3660	23427.03	3.6780	3.6780	-0.8760	26.06	0.24	-1.500			
0.3687	23596.31	3.6750	3.6750	-0.8886	26.06	0.24	-1.500			
0.3714	23770.88	3.6720	3.6720	-0.9071	26.07	0.25	-1.500			
0.3741	23944.55	3.6690	3.6690	-0.9217	26.07	0.25	-1.500			
0.3769	24123.29	3.6660	3.6660	-0.9339	26.08	0.26	-1.500			
0.3797	24303.44	3.6630	3.6630	-0.9499	26.08	0.26	-1.500			
0.3826	24486.95	3.6600	3.6600	-0.9651	26.09	0.27	-1.500			
0.3855	24674.01	3.6570	3.6570	-0.9833	26.09	0.27	-1.500			
0.3885	24864.63	3.6540	3.6539	-1.0028	26.09	0.27	-1.500			
0.3915	25059.11	3.6510	3.6510	-1.0208	26.10	0.28	-1.500			
0.3946	25257.23	3.6480	3.6481	-1.0350	26.10	0.28	-1.500			
0.3978	25458.29	3.6450	3.6450	-1.0612	26.11	0.29	-1.500			
0.4010	25662.65	3.6420	3.6421	-1.0799	26.11	0.29	-1.500			
0.4042	25871.40	3.6390	3.6389	-1.0983	26.11	0.29	-1.500			
0.4076	26083.83	3.6360	3.6361	-1.1185	26.12	0.30	-1.500			
0.4109	26300.51	3.6330	3.6330	-1.1402	26.12	0.30	-1.500			
0.4144	26522.21	3.6300	3.6301	-1.1596	26.13	0.31	-1.500			
0.4179	26747.94	3.6270	3.6270	-1.1797	26.13	0.31	-1.500			
0.4215	26974.81	3.6240	3.6240	-1.1976	26.13	0.31	-1.500			
0.4251	27206.02	3.6210	3.6210	-1.2272	26.14	0.32	-1.500			
0.4288	27444.03	3.6180	3.6179	-1.2516	26.14	0.32	-1.500			
0.4326	27688.21	3.6150	3.6150	-1.2705	26.15	0.33	-1.500			
0.4365	27934.91	3.6120	3.6121	-1.2970	26.15	0.33	-1.500			
0.4404	28186.59	3.6090	3.6090	-1.3222	26.15	0.33	-1.500			
0.4444	28442.81	3.6060	3.6060	-1.3400	26.16	0.34	-1.500			
0.4484	28699.43	3.6030	3.6029	-1.3565	26.16	0.34	-1.500			
0.4525	28962.36	3.6000	3.6000	-1.3850	26.16	0.34	-1.500			
0.4567	29230.99	3.5970	3.5970	-1.4150	26.17	0.35	-1.500			
0.4610	29506.12	3.5940	3.5940	-1.4366	26.17	0.35	-1.500			
0.4654	29783.96	3.5910	3.5911	-1.4558	26.17	0.35	-1.500			
0.4698	30066.52	3.5880	3.5880	-1.4777	26.17	0.35	-1.500			
0.4743	30353.76	3.5850	3.5850	-1.4973	26.18	0.36	-1.500			
0.4788	30642.89	3.5820	3.5820	-1.5115	26.18	0.36	-1.500			
0.4833	30933.14	3.5790	3.5789	-1.5247	26.18	0.36	-1.500			
0.4879	31226.26	3.5760	3.5760	-1.5472	26.18	0.36	-1.500			
0.4926	31524.63	3.5730	3.5730	-1.5797	26.19	0.37	-1.500			
0.4974	31831.07	3.5700	3.5700	-1.5954	26.19	0.37	-1.500			
0.5022	32137.87	3.5670	3.5670	-1.6198	26.19	0.37	-1.500			
0.5071	32455.57	3.5640	3.5640	-1.6462	26.20	0.38	-1.500			
0.5121	32774.45	3.5610	3.5610	-1.6652	26.20	0.38	-1.500			
0.5171	33095.36	3.5580	3.5580	-1.6822	26.21	0.39	-1.500			
0.5222	33420.30	3.5550	3.5550	-1.6929	26.21	0.39	-1.500			
0.5273	33746.81	3.5520	3.5520	-1.7020	26.21	0.39	-1.500			
0.5325	34077.54	3.5490	3.5490	-1.7209	26.22	0.40	-1.500			
0.5376	34407.99	3.5460	3.5461	-1.7215	26.22	0.40	-1.500			
0.5428	34739.10	3.5430	3.5429	-1.7436	26.23	0.41	-1.500			
0.5480	35073.21	3.5400	3.5400	-1.7570	26.24	0.42	-1.500			
0.5533	35412.30	3.5370	3.5369	-1.7742	26.25	0.43	-1.500			
0.5587	35756.07	3.5340	3.5344	-1.7771	26.26	0.44	-1.500	0.384	0.516	
0.5641	36101.71	3.5310	3.5310	-1.7806	26.26	0.44	-1.500			
0.5695	36445.46	3.5280	3.5280	-1.7823	26.27	0.45	-1.500			
0.5748	36786.86	3.5250	3.5250	-1.7728	26.27	0.45	-1.500			
0.5801	37123.45	3.5220	3.5220	-1.7658	26.28	0.46	-1.500			
0.5853	37460.70	3.5190	3.5191	-1.7670	26.28	0.46	-1.500			
0.5906	37799.10	3.5160	3.5160	-1.7752	26.29	0.47	-1.500			
0.5959	38140.40	3.5130	3.5130	-1.7819	26.30	0.48	-1.500			
0.6013	38482.36	3.5100	3.5100	-1.7858	26.31	0.49	-1.500			
0.6067	38828.33	3.5070	3.5069	-1.7895	26.32	0.50	-1.500			
0.6121	39174.16	3.5040	3.5040	-1.7895	26.33	0.51	-1.500			
0.6174	39516.67	3.5010	3.5010	-1.7854	26.35	0.53	-1.500			
0.6228	39859.90	3.4980	3.4980	-1.7762	26.36	0.54	-1.500			
0.6281	40199.05	3.4950	3.4950	-1.7610	26.37	0.55	-1.500			
0.6334	40537.04	3.4920	3.4920	-1.7607	26.38	0.56	-1.500			
0.6386	40872.37	3.4890	3.4890	-1.7546	26.39	0.57	-1.500			
0.6439	41210.57	3.4860	3.4859	-1.7507	26.40	0.58	-1.500			
0.6491	41544.83	3.4830	3.4831	-1.7501	26.41	0.59	-1.500			
0.6544	41883.93	3.4800	3.4800	-1.7439	26.43	0.61	-1.500			
0.6597	42219.31	3.4770	3.4770	-1.7299	26.44	0.62	-1.500			
0.6649	42551.05	3.4740	3.4740	-1.7059	26.45	0.63	-1.500			
0.6699	42875.56	3.4710	3.4710	-1.6894	26.46	0.64	-1.500			
0.6749	43196.75	3.4680	3.4680	-1.6681	26.48	0.66	-1.500			
0.6799	43515.53	3.4650	3.4649	-1.6403	26.49	0.67	-1.500			
0.6848	43827.03	3.4620	3.4621	-1.6145	26.50	0.68	-1.500			
0.6896	44136.21	3.4590	3.4591	-1.5975	26.52	0.70	-1.500			
0.6944	44441.04	3.4560	3.4559	-1.5762	26.53	0.71	-1.500			
0.6991	44741.07	3.4530	3.4530	-1.5569	26.55	0.73	-1.500			
0.7037	45035.43	3.4500	3.4500	-1.5364	26.56	0.74	-1.500			
0.7083	45330.31	3.4470	3.4470	-1.5201	26.58	0.76	-1.500			
0.7128	45621.40	3.4440	3.4439	-1.4998	26.59	0.77	-1.500			
0.7173	45907.71	3.4410	3.4410	-1.4830	26.61	0.79	-1.500			
0.7217	46190.56	3.4380	3.4380	-1.4649	26.63	0.81	-1.500			
0.7261	46470.25	3.4350	3.4350	-1.4475	26.65	0.83	-1.500			
0.7304	46745.27	3.4320	3.4320	-1.4297	26.66	0.84	-1.500			
0.7347	47017.66	3.4290	3.4291	-1.4204	26.68	0.86	-1.500			
0.7389	47289.51	3.4260	3.4259	-1.4133	26.70	0.88	-1.500			
0.7431	47558.72	3.4230	3.4230	-1.4077	26.72	0.90	-1.500			
0.7473	47829.10	3.4200	3.4200	-1.3967	26.74	0.92	-1.500			
0.7516	48100.48	3.4170	3.4170	-1.3877	26.75	0.93	-1.500			
0.7557	48366.09	3.4140	3.4140	-1.3665	26.77	0.95	-1.500			
0.7598	48629.01	3.4110	3.4111	-1.3375	26.78	0.96	-1.500			
0.7638	48883.01	3.4080	3.4079	-1.3020	26.80	0.98	-1.500			
0.7677	49129.70	3.4050	3.4050	-1.2690	26.82	1.00	-1.500			
0.7714	49368.94	3.4020	3.4020	-1.2308	26.84	1.02	-1.500			
0.7751	49603.97	3.3990	3.3989	-1.1966	26.86	1.04	-1.500			
0.7786	49830.16	3.3960	3.3960	-1.1516	26.87	1.05	-1.500			
0.7820	50047.27	3.3930	3.3930	-1.1083	26.89	1.07	-1.500			
0.7853	50256.24	3.3900	3.3900	-1.0659	26.90	1.08	-1.500			
0.7884	50455.89	3.3870	3.3870	-1.0221	26.92	1.10	-1.500			
0.7914	50646.92	3.3840	3.3840	-0.9784	26.93	1.11	-1.500			
0.7942	50829.76	3.3810	3.3810	-0.9431	26.95	1.13	-1.500			
0.7970	51007.21	3.3780	3.3780	-0.9117	26.96	1.14	-1.500			
0.7997	51179.86	3.3750	3.3750	-0.8793	26.97	1.15	-1.500			
0.8023	51345.98	3.3720	3.3719	-0.8452	26.99	1.17	-1.500			
0.8048	51505.16	3.3690	3.3691	-0.8115	27.00	1.18	-1.500			
0.8071	51657.29	3.3660	3.3660	-0.7784	27.01	1.19	-1.500			
0.8094	51803.71	3.3630	3.3630	-0.7472	27.02	1.20	-1.500			
0.8116	51940.64	3.3600	3.3600	-0.7174	27.03	1.21	-1.500			
0.8137	52075.05	3.3570	3.3570	-0.6976	27.04	1.22	-1.500			
0.8157	52207.06	3.3540	3.3540	-0.6778	27.05	1.23	-1.500			
0.8178	52336.10	3.3510	3.3509	-0.6583	27.06	1.24	-1.500			
0.8197	52461.11	3.3480	3.3480	-0.6403	27.07	1.25	-1.500			
0.8216	52582.41	3.3450	3.3451	-0.6228	27.08	1.26	-1.500			
0.8234	52700.21	3.3420	3.3419	-0.6028	27.08	1.26	-1.500			
0.8252	52813.40	3.3390	3.3390	-0.5835	27.09	1.27	-1.500			
0.8269	52923.01	3.3360	3.3360	-0.5631	27.10	1.28	-1.500			
0.8286	53029.67	3.3330	3.3330	-0.5475	27.11	1.29	-1.500			
0.8302	53134.23	3.3300	3.3299	-0.5311	27.12	1.30	-1.500			
0.8318	53233.53	3.3270	3.3270	-0.5124	27.12	1.30	-1.500			
0.8333	53329.69	3.3240	3.3240	-0.4958	27.13	1.31	-1.500			
0.8347	53423.52	3.3210	3.3212	-0.4822	27.13	1.31	-1.500			
0.8362	53513.97	3.3180	3.3179	-0.4670	27.14	1.32	-1.500			
0.8375	53602.16	3.3150	3.3150	-0.4554	27.15	1.33	-1.500			
0.8389	53687.79	3.3120	3.3120	-0.4421	27.15	1.33	-1.500			
0.8402	53772.84	3.3090	3.3090	-0.4331	27.16	1.34	-1.500			
0.8415	53854.20	3.3060	3.3060	-0.4195	27.17	1.35	-1.500			
0.8427	53932.72	3.3030	3.3031	-0.4080	27.17	1.35	-1.500			
0.8439	54010.36	3.3000	3.2999	-0.3965	27.18	1.36	-1.500			
0.8451	54085.11	3.2970	3.2970	-0.3859	27.19	1.37	-1.500			
0.8462	54158.05	3.2940	3.2940	-0.3759	27.19	1.37	-1.500			
0.8473	54229.61	3.2910	3.2911	-0.3659	27.20	1.38	-1.500			
0.8484	54299.02	3.2880	3.2879	-0.3553	27.20	1.38	-1.500			
0.8495	54365.98	3.2850	3.2851	-0.3444	27.21	1.39	-1.500			
0.8505	54431.08	3.2820	3.2820	-0.3339	27.22	1.40	-1.500			
0.8515	54493.91	3.2790	3.2789	-0.3272	27.22	1.40	-1.500			
0.8524	54555.20	3.2760	3.2760	-0.3187	27.23	1.41	-1.500			
0.8534	54615.47	3.2730	3.2730	-0.3108	27.23	1.41	-1.500			
0.8543	54674.67	3.2700	3.2700	-0.3050	27.24	1.42	-1.500			
0.8552	54732.68	3.2670	3.2671	-0.2997	27.24	1.42	-1.500			
0.8561	54789.77	3.2640	3.2640	-0.2932	27.24	1.42	-1.500			
0.8570	54845.49	3.2610	3.2610	-0.2867	27.25	1.43	-1.500			
0.8578	54899.62	3.2580	3.2578	-0.2794	27.25	1.43	-1.500			
0.8586	54952.71	3.2550	3.2550	-0.2735	27.26	1.44	-1.500			
0.8594	55004.66	3.2520	3.2521	-0.2678	27.26	1.44	-1.500			
0.8602	55055.76	3.2490	3.2490	-0.2613	27.26	1.44	-1.500			
0.8610	55104.89	3.2460	3.2460	-0.2550	27.27	1.45	-1.500			
0.8618	55153.00	3.2430	3.2431	-0.2504	27.28	1.46	-1.500			
0.8625	55200.12	3.2400	3.2400	-0.2462	27.28	1.46	-1.500			
0.8632	55247.54	3.2370	3.2369	-0.2412	27.29	1.47	-1.500			
0.8640	55293.34	3.2340	3.2340	-0.2363	27.29	1.47	-1.500			
0.8647	55338.01	3.2310	3.2309	-0.2337	27.30	1.48	-1.500			
0.8654	55382.66	3.2280	3.2281	-0.2299	27.30	1.48	-1.500			
0.8660	55426.81	3.2250	3.2248	-0.2264	27.31	1.49	-1.500			
0.8667	55469.75	3.2220	3.2219	-0.2222	27.31	1.49	-1.500			
0.8674	55511.79	3.2190	3.2191	-0.2181	27.32	1.50	-1.500			
0.8680	55553.27	3.2160	3.2160	-0.2146	27.32	1.50	-1.500			
0.8687	55594.48	3.2130	3.2130	-0.2127	27.33	1.51	-1.500			
0.8693	55634.94	3.2100	3.2100	-0.2088	27.33	1.51	-1.500			
0.8699	55673.99	3.2070	3.2069	-0.2044	27.34	1.52	-1.500			
0.8705	55712.96	3.2040	3.2040	-0.2027	27.34	1.52	-1.500			
0.8711	55751.61	3.2010	3.2011	-0.2001	27.35	1.53	-1.500			
0.8717	55789.86	3.1980	3.1980	-0.1975	27.35	1.53	-1.500			
0.8723	55827.58	3.1950	3.1949	-0.1951	27.35	1.53	-1.500			
0.8729	55864.73	3.1920	3.1921	-0.1927	27.36	1.54	-1.500			
0.8735	55901.46	3.1890	3.1890	-0.1902	27.36	1.54	-1.500			
0.8740	55937.82	3.1860	3.1860	-0.1878	27.37	1.55	-1.500			
0.8746	55973.93	3.1830	3.1830	-0.1857	27.37	1.55	-1.500			
0.8751	56008.76	3.1800	3.1800	-0.1837	27.38	1.56	-1.500			
0.8757	56044.01	3.1770	3.1771	-0.1820	27.38	1.56	-1.500			
0.8762	56078.87	3.1740	3.1739	-0.1803	27.39	1.57	-1.500			
0.8768	56113.30	3.1710	3.1709	-0.1784	27.39	1.57	-1.500			
0.8773	56147.48	3.1680	3.1681	-0.1760	27.40	1.58	-1.500			
0.8778	56181.07	3.1650	3.1650	-0.1744	27.40	1.58	-1.500			
0.8784	56214.43	3.1620	3.1620	-0.1724	27.41	1.59	-1.500			
0.8789	56247.31	3.1590	3.1589	-0.1701	27.41	1.59	-1.500			
0.8794	56279.35	3.1560	3.1560	-0.1682	27.41	1.59	-1.500			
0.8799	56311.55	3.1530	3.1531	-0.1668	27.42	1.60	-1.500			
0.8804	56343.37	3.1500	3.1499	-0.1653	27.42	1.60	-1.500			
0.8809	56374.88	3.1470	3.1471	-0.1648	27.43	1.61	-1.500			
0.8814	56406.57	3.1440	3.1440	-0.1635	27.43	1.61	-1.500			
0.8818	56437.76	3.1410	3.1410	-0.1621	27.44	1.62	-1.500			
0.8823	56469.00	3.1380	3.1380	-0.1614	27.44	1.62	-1.500			
0.8828	56499.88	3.1350	3.1350	-0.1595	27.44	1.62	-1.500			
0.8833	56530.24	3.1320	3.1320	-0.1581	27.45	1.63	-1.500			
0.8838	56560.41	3.1290	3.1290	-0.1570	27.45	1.63	-1.500			
0.8842	56590.44	3.1260	3.1260	-0.1557	27.46	1.64	-1.500			
0.8847	56619.97	3.1230	3.1230	-0.1543	27.46	1.64	-1.500			
0.8852	56649.63	3.1200	3.1200	-0.1533	27.46	1.64	-1.500			
0.8856	56678.94	3.1170	3.1171	-0.1522	27.47	1.65	-1.500			
0.8861	56708.06	3.1140	3.1140	-0.1511	27.47	1.65	-1.500			
0.8865	56737.00	3.1110	3.1110	-0.1506	27.48	1.66	-1.500			
0.8870	56765.63	3.1080	3.1080	-0.1496	27.48	1.66	-1.500			
0.8874	56794.57	3.1050	3.1049	-0.1482	27.49	1.67	-1.500			
0.8879	56822.90	3.1020	3.1020	-0.1469	27.49	1.67	-1.500			
0.8883	56851.18	3.0990	3.0991	-0.1456	27.50	1.68	-1.500			
0.8887	56878.95	3.0960	3.0961	-0.1446	27.50	1.68	-1.500			
0.8892	56906.25	3.0930	3.0929	-0.1435	27.51	1.69	-1.500			
0.8896	56933.74	3.0900	3.0900	-0.1428	27.51	1.69	-1.500			
0.8900	56960.76	3.0870	3.0870	-0.1420	27.52	1.70	-1.500			
0.8904	56988.12	3.0840	3.0841	-0.1411	27.52	1.70	-1.500			
0.8909	57015.48	3.0810	3.0810	-0.1412	27.53	1.71	-1.500			
0.8913	57042.48	3.0780	3.0780	-0.1400	27.53	1.71	-1.500			
0.8917	57069.29	3.0750	3.0751	-0.1390	27.54	1.72	-1.500			
0.8921	57095.74	3.0720	3.0719	-0.1381	27.54	1.72	-1.500			
0.8925	57121.96	3.0690	3.0691	-0.1369	27.55	1.73	-1.500			
0.8929	57148.26	3.0660	3.0660	-0.1362	27.55	1.73	-1.500			
0.8933	57174.36	3.0630	3.0630	-0.1355	27.55	1.73	-1.500			
0.8938	57200.47	3.0600	3.0600	-0.1350	27.56	1.74	-1.500			
0.8942	57226.28	3.0570	3.0571	-0.1337	27.56	1.74	-1.500			
0.8946	57251.92	3.0540	3.0540	-0.1324	27.57	1.75	-1.500			
0.8950	57277.17	3.0510	3.0510	-0.1317	27.57	1.75	-1.500			
0.8953	57302.29	3.0480	3.0480	-0.1306	27.58	1.76	-1.500			
0.8957	57327.27	3.0450	3.0451	-0.1299	27.58	1.76	-1.500			
0.8961	57351.95	3.0420	3.0420	-0.1294	27.59	1.77	-1.500			
0.8965	57376.59	3.0390	3.0390	-0.1289	27.59	1.77	-1.500			
0.8969	57401.51	3.0360	3.0360	-0.1280	27.60	1.78	-1.500			
0.8973	57426.18	3.0330	3.0330	-0.1275	27.61	1.79	-1.500			
0.8977	57450.77	3.0300	3.0299	-0.1268	27.61	1.79	-1.500			
0.8980	57475.00	3.0270	3.0272	-0.1257	27.62	1.80	-1.500			
0.8984	57498.96	3.0240	3.0240	-0.1249	27.62	1.80	-1.500			
0.8988	57522.88	3.0210	3.0208	-0.1240	27.63	1.81	-1.500			
0.8992	57546.15	3.0180	3.0181	-0.1295	27.63	1.81	-1.500			
0.8995	57569.37	3.0150	3.0150	-0.1345	27.64	1.82	-1.500			
0.8999	57594.79	3.0120	3.0119	-0.1404	27.64	1.82	-1.500			
0.9004	57622.59	3.0090	3.0083	-0.1493	27.65	1.83	-1.500			
0.9008	57651.53	3.0060	3.0142	-0.1619	27.65	1.83	-1.500	0.395	0.689	
0.9013	57683.83	3.0030	3.0030	-0.1746	27.66	1.84	-1.499			
