Ah_balance (normalized)	Ah_balance (mAh)	Voltage - fit (V)	Voltage -  interpolate (V)	dQ/dV (1/V)	Temperature (°C)	Temperature - diff (°C)	Current (C)	R_DC 0ms (mOhm)	R_DC 50ms (mOhm)	R_DC 50 ms PEC (mOhm)
0.5024	32152.89	3.7530	3.7529	1.6990	25.70	0.28	0.750			
0.5076	32489.59	3.7500	3.7500	1.7491	25.70	0.28	0.750			
0.5129	32826.12	3.7470	3.7469	1.7725	25.69	0.27	0.750			
0.5183	33171.25	3.7440	3.7440	1.8043	25.69	0.27	0.750			
0.5237	33516.28	3.7410	3.7410	1.8466	25.69	0.27	0.750			
0.5293	33872.11	3.7380	3.7380	1.8905	25.68	0.26	0.750			
0.5351	34243.43	3.7350	3.7350	1.9565	25.68	0.26	0.750			
0.5410	34622.70	3.7320	3.7320	1.9915	25.68	0.26	0.750			
0.5470	35010.38	3.7290	3.7291	2.0447	25.67	0.25	0.750			
0.5533	35408.34	3.7260	3.7260	2.0722	25.66	0.24	0.750			
0.5595	35808.99	3.7230	3.7230	2.1084	25.65	0.23	0.750			
0.5659	36218.89	3.7200	3.7200	2.1811	25.64	0.22	0.750			
0.5726	36648.78	3.7170	3.7169	2.2650	25.64	0.22	0.750			
0.5796	37091.24	3.7140	3.7139	2.3295	25.63	0.21	0.750			
0.5866	37540.85	3.7110	3.7111	2.3654	25.63	0.21	0.750			
0.5938	38004.83	3.7080	3.7079	2.4889	25.62	0.20	0.750			
0.6014	38487.48	3.7050	3.7050	2.4854	25.61	0.19	0.750			
0.6090	38977.82	3.7020	3.7019	2.5902	25.60	0.18	0.750			
0.6168	39478.06	3.6990	3.6991	2.6255	25.58	0.16	0.750			
0.6249	39996.78	3.6960	3.6959	2.7027	25.57	0.15	0.750			
0.6330	40514.31	3.6930	3.6930	2.7210	25.56	0.14	0.750			
0.6412	41038.46	3.6900	3.6899	2.8211	25.54	0.12	0.750			
0.6499	41594.62	3.6870	3.6870	2.9890	25.53	0.11	0.750			
0.6593	42194.61	3.6840	3.6839	3.1416	25.52	0.10	0.750			
0.6688	42803.24	3.6810	3.6811	3.2205	25.50	0.08	0.750			
0.6785	43426.61	3.6780	3.6780	3.4204	25.47	0.05	0.750			
0.6894	44120.99	3.6750	3.6750	3.5895	25.45	0.03	0.750			
0.7001	44803.28	3.6720	3.6720	3.5971	25.44	0.02	0.750			
0.7111	45513.17	3.6690	3.6690	3.6585	25.43	0.01	0.750			
0.7220	46206.08	3.6660	3.6660	3.4258	25.42	0.00	0.750			
0.7319	46839.88	3.6630	3.6630	3.1009	25.42	0.00	0.750			
0.7403	47380.82	3.6600	3.6601	2.5964	25.42	0.00	0.750			
0.7475	47842.54	3.6570	3.6569	2.2425	25.42	0.00	0.750			
0.7535	48222.36	3.6540	3.6541	1.9487	25.42	0.00	0.750			
0.7590	48576.27	3.6510	3.6509	1.8054	25.42	0.00	0.750			
0.7642	48907.45	3.6480	3.6480	1.6752	25.42	0.00	0.750			
0.7691	49219.43	3.6450	3.6449	1.5610	25.42	0.00	0.750			
0.7736	49511.47	3.6420	3.6420	1.4712	25.42	0.00	0.750			
0.7777	49772.13	3.6390	3.6391	1.3710	25.42	0.00	0.750			
0.7816	50023.94	3.6360	3.6360	1.3162	25.42	0.00	0.750			
0.7854	50267.53	3.6330	3.6330	1.2778	25.42	0.00	0.750			
0.7891	50505.03	3.6300	3.6300	1.2588	25.42	0.00	0.750			
0.7929	50744.85	3.6270	3.6269	1.2579	25.42	0.00	0.750			
0.7967	50985.91	3.6240	3.6241	1.2668	25.42	-0.00	0.750			
0.8005	51228.98	3.6210	3.6210	1.2778	25.41	-0.01	0.750			
0.8044	51481.48	3.6180	3.6178	1.2725	25.41	-0.01	0.750			
0.8082	51727.12	3.6150	3.6150	1.2618	25.41	-0.01	0.750			
0.8121	51971.21	3.6120	3.6121	1.2461	25.41	-0.01	0.750			
0.8157	52206.98	3.6090	3.6091	1.2340	25.40	-0.02	0.750			
0.8194	52440.23	3.6060	3.6060	1.2101	25.40	-0.02	0.750			
0.8229	52666.62	3.6030	3.6030	1.2115	25.40	-0.02	0.750			
0.8265	52894.23	3.6000	3.6000	1.2182	25.39	-0.03	0.750			
0.8302	53132.01	3.5970	3.5970	1.2402	25.39	-0.03	0.750			
0.8339	53369.78	3.5940	3.5941	1.2728	25.39	-0.03	0.750			
0.8377	53614.61	3.5910	3.5911	1.3172	25.38	-0.04	0.750			
0.8417	53870.62	3.5880	3.5879	1.3590	25.37	-0.05	0.750			
0.8459	54136.67	3.5850	3.5850	1.4018	25.37	-0.05	0.750			
0.8501	54408.27	3.5820	3.5821	1.4422	25.37	-0.05	0.750			
0.8546	54691.35	3.5790	3.5791	1.4830	25.37	-0.05	0.750			
0.8590	54978.97	3.5760	3.5760	1.5271	25.37	-0.05	0.750			
0.8637	55276.11	3.5730	3.5730	1.5700	25.36	-0.06	0.750			
0.8685	55583.93	3.5700	3.5700	1.6096	25.35	-0.07	0.750			
0.8734	55896.53	3.5670	3.5671	1.6498	25.34	-0.08	0.750			
0.8784	56216.56	3.5640	3.5641	1.6642	25.33	-0.09	0.750			
0.8834	56538.88	3.5610	3.5610	1.6979	25.32	-0.10	0.750			
0.8885	56864.61	3.5580	3.5581	1.7100	25.31	-0.11	0.750			
0.8937	57198.57	3.5550	3.5550	1.7398	25.30	-0.12	0.750			
0.8989	57530.59	3.5520	3.5519	1.7424	25.30	-0.12	0.750			
0.9042	57869.19	3.5490	3.5490	1.7634	25.29	-0.13	0.750			
0.9095	58205.76	3.5460	3.5459	1.8381	25.28	-0.14	0.750			
0.9150	58558.01	3.5430	3.5429	1.8951	25.28	-0.14	0.750			
0.9215	58974.79	3.5400	3.5398	1.8791	25.27	-0.15	0.750			
0.9269	59323.78	3.5370	3.5370	1.6377	25.26	-0.16	0.750			
0.9313	59600.87	3.5340	3.5343	1.2973	25.25	-0.17	0.750			
0.9346	59813.24	3.5310	3.5312	1.0261	25.26	-0.16	0.750			
0.9369	59961.61	3.5280	3.5275	0.7538	25.26	-0.16	0.750			
0.9383	60050.10	3.5250	3.5247	0.5629	25.26	-0.16	0.750			
0.9395	60128.23	3.5220	3.5218	0.4427	25.26	-0.16	0.750			
0.9406	60195.92	3.5190	3.5190	0.3803	25.26	-0.16	0.750			
0.9416	60263.04	3.5160	3.5160	0.3484	25.27	-0.15	0.750			
0.9426	60324.57	3.5130	3.5129	0.3239	25.27	-0.15	0.750			
0.9435	60384.48	3.5100	3.5100	0.3131	25.27	-0.15	0.750			
0.9444	60442.77	3.5070	3.5070	0.3017	25.27	-0.15	0.750			
0.9453	60499.59	3.5040	3.5040	0.2932	25.27	-0.15	0.750			
0.9462	60555.10	3.5010	3.5010	0.2854	25.27	-0.15	0.750			
0.9470	60609.47	3.4980	3.4981	0.2788	25.28	-0.14	0.750			
0.9478	60662.34	3.4950	3.4949	0.2727	25.28	-0.14	0.750			
0.9486	60713.59	3.4920	3.4920	0.2671	25.28	-0.14	0.750			
0.9494	60763.89	3.4890	3.4891	0.2616	25.28	-0.14	0.750			
0.9502	60813.53	3.4860	3.4859	0.2573	25.28	-0.14	0.750			
0.9510	60862.69	3.4830	3.4830	0.2538	25.28	-0.14	0.750			
0.9517	60911.01	3.4800	3.4800	0.2495	25.28	-0.14	0.750			
0.9525	60958.57	3.4770	3.4770	0.2459	25.28	-0.14	0.750			
0.9532	61005.30	3.4740	3.4740	0.2418	25.29	-0.13	0.750			
0.9539	61051.49	3.4710	3.4710	0.2374	25.29	-0.13	0.750			
0.9546	61096.48	3.4680	3.4680	0.2338	25.29	-0.13	0.750			
0.9553	61140.83	3.4650	3.4650	0.2305	25.29	-0.13	0.750			
0.9560	61184.75	3.4620	3.4620	0.2276	25.29	-0.13	0.750			
0.9567	61227.91	3.4590	3.4590	0.2248	25.29	-0.13	0.750			
0.9574	61270.78	3.4560	3.4560	0.2224	25.29	-0.13	0.750			
0.9580	61313.32	3.4530	3.4530	0.2193	25.29	-0.13	0.750			
0.9587	61355.45	3.4500	3.4500	0.2170	25.30	-0.12	0.750			
0.9593	61396.60	3.4470	3.4471	0.2137	25.30	-0.12	0.750			
0.9600	61437.36	3.4440	3.4440	0.2109	25.30	-0.12	0.750			
0.9606	61477.55	3.4410	3.4410	0.2080	25.30	-0.12	0.750			
0.9612	61517.21	3.4380	3.4381	0.2051	25.30	-0.12	0.750			
0.9618	61556.09	3.4350	3.4349	0.2022	25.30	-0.12	0.750			
0.9624	61594.70	3.4320	3.4321	0.2000	25.30	-0.12	0.750			
0.9630	61633.02	3.4290	3.4290	0.1978	25.31	-0.11	0.750			
0.9636	61670.71	3.4260	3.4260	0.1952	25.31	-0.11	0.750			
0.9642	61707.98	3.4230	3.4230	0.1925	25.31	-0.11	0.750			
0.9648	61744.70	3.4200	3.4200	0.1900	25.31	-0.11	0.750			
0.9653	61780.96	3.4170	3.4170	0.1880	25.31	-0.11	0.750			
0.9659	61816.82	3.4140	3.4140	0.1857	25.31	-0.11	0.750			
0.9664	61852.09	3.4110	3.4110	0.1831	25.31	-0.11	0.750			
0.9670	61887.05	3.4080	3.4080	0.1811	25.32	-0.10	0.750			
0.9675	61921.67	3.4050	3.4050	0.1788	25.32	-0.10	0.750			
0.9681	61955.81	3.4020	3.4020	0.1768	25.32	-0.10	0.750			
0.9686	61989.64	3.3990	3.3990	0.1748	25.32	-0.10	0.750			
0.9691	62022.95	3.3960	3.3960	0.1725	25.32	-0.10	0.750			
0.9696	62055.64	3.3930	3.3930	0.1704	25.32	-0.10	0.750			
0.9701	62088.18	3.3900	3.3900	0.1686	25.33	-0.09	0.750			
0.9706	62120.31	3.3870	3.3870	0.1667	25.33	-0.09	0.750			
0.9711	62152.20	3.3840	3.3840	0.1648	25.33	-0.09	0.750			
0.9716	62183.80	3.3810	3.3810	0.1628	25.33	-0.09	0.750			
0.9721	62214.79	3.3780	3.3780	0.1608	25.33	-0.09	0.750			
0.9726	62245.48	3.3750	3.3750	0.1588	25.34	-0.08	0.750			
0.9731	62275.84	3.3720	3.3720	0.1568	25.34	-0.08	0.750			
0.9735	62305.66	3.3690	3.3690	0.1545	25.34	-0.08	0.750			
0.9740	62334.94	3.3660	3.3660	0.1529	25.34	-0.08	0.750			
0.9744	62364.16	3.3630	3.3630	0.1515	25.34	-0.08	0.750			
0.9749	62393.14	3.3600	3.3600	0.1493	25.34	-0.08	0.750			
0.9753	62421.60	3.3570	3.3570	0.1478	25.35	-0.07	0.750			
0.9758	62449.79	3.3540	3.3540	0.1459	25.35	-0.07	0.750			
0.9762	62477.65	3.3510	3.3511	0.1443	25.35	-0.07	0.750			
0.9766	62505.24	3.3480	3.3480	0.1430	25.35	-0.07	0.750			
0.9771	62532.55	3.3450	3.3450	0.1414	25.35	-0.07	0.750			
0.9775	62559.34	3.3420	3.3421	0.1396	25.35	-0.07	0.750			
0.9779	62586.05	3.3390	3.3389	0.1386	25.36	-0.06	0.750			
0.9783	62612.79	3.3360	3.3360	0.1371	25.36	-0.06	0.750			
0.9787	62638.97	3.3330	3.3330	0.1350	25.36	-0.06	0.750			
0.9791	62664.79	3.3300	3.3301	0.1335	25.36	-0.06	0.750			
0.9795	62690.23	3.3270	3.3270	0.1315	25.36	-0.06	0.750			
0.9799	62715.11	3.3240	3.3240	0.1299	25.36	-0.06	0.750			
0.9803	62739.86	3.3210	3.3210	0.1283	25.37	-0.05	0.750			
0.9807	62764.16	3.3180	3.3181	0.1266	25.37	-0.05	0.750			
0.9811	62788.37	3.3150	3.3149	0.1256	25.37	-0.05	0.750			
0.9814	62812.47	3.3120	3.3121	0.1243	25.37	-0.05	0.750			
0.9818	62836.33	3.3090	3.3089	0.1232	25.37	-0.05	0.750			
0.9822	62859.90	3.3060	3.3061	0.1216	25.37	-0.05	0.750			
0.9825	62883.18	3.3030	3.3030	0.1201	25.38	-0.04	0.750			
0.9829	62906.00	3.3000	3.3000	0.1189	25.38	-0.04	0.750			
0.9833	62928.60	3.2970	3.2970	0.1174	25.38	-0.04	0.750			
0.9836	62950.99	3.2940	3.2940	0.1162	25.38	-0.04	0.750			
0.9840	62973.10	3.2910	3.2910	0.1149	25.38	-0.04	0.750			
0.9843	62995.12	3.2880	3.2880	0.1134	25.38	-0.04	0.750			
0.9846	63016.80	3.2850	3.2850	0.1121	25.38	-0.04	0.750			
0.9850	63038.18	3.2820	3.2821	0.1109	25.38	-0.04	0.750			
0.9853	63059.45	3.2790	3.2790	0.1097	25.39	-0.03	0.750			
0.9856	63080.37	3.2760	3.2760	0.1082	25.39	-0.03	0.750			
0.9860	63100.95	3.2730	3.2729	0.1067	25.39	-0.03	0.750			
0.9863	63121.23	3.2700	3.2701	0.1056	25.39	-0.03	0.750			
0.9866	63141.29	3.2670	3.2670	0.1043	25.39	-0.03	0.750			
0.9869	63161.29	3.2640	3.2640	0.1029	25.39	-0.03	0.750			
0.9872	63181.03	3.2610	3.2610	0.1017	25.39	-0.03	0.750			
0.9875	63200.37	3.2580	3.2580	0.1004	25.39	-0.03	0.750			
0.9878	63219.46	3.2550	3.2551	0.0991	25.40	-0.02	0.750			
0.9881	63238.35	3.2520	3.2520	0.0979	25.40	-0.02	0.750			
0.9884	63257.08	3.2490	3.2490	0.0967	25.40	-0.02	0.750			
0.9887	63275.54	3.2460	3.2459	0.0954	25.40	-0.02	0.750			
0.9890	63293.63	3.2430	3.2431	0.0941	25.40	-0.02	0.750			
0.9892	63311.55	3.2400	3.2401	0.0931	25.40	-0.02	0.750			
0.9895	63329.40	3.2370	3.2370	0.0921	25.40	-0.02	0.750			
0.9898	63346.95	3.2340	3.2340	0.0910	25.40	-0.02	0.750			
0.9901	63364.23	3.2310	3.2309	0.0898	25.41	-0.01	0.750			
0.9903	63381.42	3.2280	3.2280	0.0885	25.41	-0.01	0.750			
0.9906	63398.33	3.2250	3.2250	0.0874	25.41	-0.01	0.750			
0.9909	63414.95	3.2220	3.2221	0.0864	25.41	-0.01	0.750			
0.9911	63431.49	3.2190	3.2190	0.0854	25.41	-0.01	0.750			
0.9914	63447.77	3.2160	3.2160	0.0843	25.41	-0.01	0.750			
0.9916	63463.81	3.2130	3.2129	0.0829	25.41	-0.01	0.750			
0.9919	63479.62	3.2100	3.2099	0.0818	25.41	-0.01	0.750			
0.9921	63495.25	3.2070	3.2071	0.0807	25.41	-0.01	0.750			
0.9924	63510.61	3.2040	3.2041	0.0796	25.41	-0.01	0.750			
0.9926	63525.86	3.2010	3.2010	0.0786	25.42	-0.00	0.750			
0.9928	63540.79	3.1980	3.1980	0.0774	25.42	-0.00	0.750			
0.9931	63555.54	3.1950	3.1950	0.0763	25.42	-0.00	0.750			
0.9933	63569.94	3.1920	3.1920	0.0751	25.42	-0.00	0.750			
0.9935	63584.28	3.1890	3.1890	0.0739	25.42	-0.00	0.750			
0.9937	63598.45	3.1860	3.1860	0.0730	25.42	-0.00	0.750			
0.9939	63612.32	3.1830	3.1830	0.0719	25.42	0.00	0.750			
0.9942	63626.02	3.1800	3.1800	0.0708	25.42	0.00	0.750			
0.9944	63639.46	3.1770	3.1770	0.0696	25.42	0.00	0.750			
0.9946	63652.68	3.1740	3.1740	0.0687	25.42	0.00	0.750			
0.9948	63665.74	3.1710	3.1710	0.0677	25.42	0.00	0.750			
0.9950	63678.65	3.1680	3.1680	0.0668	25.42	0.00	0.750			
0.9952	63691.45	3.1650	3.1650	0.0656	25.43	0.01	0.750			
0.9954	63704.00	3.1620	3.1619	0.0646	25.43	0.01	0.750			
0.9956	63716.30	3.1590	3.1591	0.0635	25.43	0.01	0.750			
0.9958	63728.39	3.1560	3.1560	0.0622	25.43	0.01	0.750			
0.9959	63740.31	3.1530	3.1530	0.0611	25.43	0.01	0.750			
0.9961	63751.93	3.1500	3.1499	0.0599	25.43	0.01	0.750			
0.9963	63763.22	3.1470	3.1471	0.0585	25.43	0.01	0.750			
0.9965	63774.35	3.1440	3.1440	0.0574	25.43	0.01	0.750			
0.9966	63785.25	3.1410	3.1410	0.0562	25.43	0.01	0.750			
0.9968	63796.11	3.1380	3.1380	0.0550	25.43	0.01	0.750			
0.9970	63806.53	3.1350	3.1350	0.0536	25.43	0.01	0.750			
0.9971	63816.68	3.1320	3.1321	0.0522	25.43	0.01	0.750			
0.9973	63826.56	3.1290	3.1289	0.0508	25.43	0.01	0.750			
0.9975	63836.97	3.1260	3.1260	0.0486	25.43	0.01	0.750			
0.9976	63846.05	3.1230	3.1229	0.0460	25.44	0.02	0.750			
0.9977	63854.64	3.1200	3.1201	0.0435	25.44	0.02	0.750			
0.9979	63863.27	3.1170	3.1171	0.0418	25.44	0.02	0.750			
0.9980	63871.01	3.1140	3.1143	0.0388	25.44	0.02	0.750			
0.9981	63878.16	3.1110	3.1117	0.0358	25.44	0.02	0.750			
0.9982	63884.73	3.1080	3.1088	0.0327	25.44	0.02	0.750			
0.9983	63890.73	3.1050	3.1062	0.0297	25.44	0.02	0.750			
0.9984	63896.15	3.1020	3.1037	0.0267	25.44	0.02	0.750			
0.9985	63900.99	3.0990	3.1011	0.0237	25.44	0.02	0.750			
