Ah_balance (normalized)	Ah_balance (mAh)	Voltage - fit (V)	Voltage -  interpolate (V)	dQ/dV (1/V)	Temperature (°C)	Temperature - diff (°C)	Current (C)	R_DC 0ms (mOhm)	R_DC 50ms (mOhm)	R_DC 50 ms PEC (mOhm)
0.0003	17.02	4.1620	4.1618	-0.1238	25.44	0.00	-0.750			
0.0007	47.38	4.1590	4.1589	-0.1827	25.44	0.00	-0.750			
0.0014	87.84	4.1560	4.1559	-0.2329	25.44	0.00	-0.750			
0.0021	137.15	4.1530	4.1530	-0.2809	25.44	0.00	-0.750			
0.0031	196.09	4.1500	4.1501	-0.3271	25.44	0.00	-0.750			
0.0041	263.85	4.1470	4.1471	-0.3747	25.44	0.00	-0.750			
0.0053	340.59	4.1440	4.1439	-0.4193	25.44	0.00	-0.750			
0.0066	425.24	4.1410	4.1411	-0.4633	25.44	0.00	-0.750			
0.0081	519.57	4.1380	4.1380	-0.5036	25.44	0.00	-0.750			
0.0097	621.02	4.1350	4.1350	-0.5433	25.44	0.00	-0.750			
0.0114	729.65	4.1320	4.1320	-0.5764	25.44	0.00	-0.750			
0.0132	844.41	4.1290	4.1289	-0.6087	25.44	0.00	-0.750			
0.0151	964.77	4.1260	4.1260	-0.6353	25.44	0.00	-0.750			
0.0170	1091.16	4.1230	4.1229	-0.6564	25.44	0.00	-0.750			
0.0191	1220.86	4.1200	4.1200	-0.6744	25.44	0.00	-0.750	0.418	0.486	
0.0211	1352.66	4.1170	4.1171	-0.6882	25.44	0.00	-0.750			
0.0232	1486.32	4.1140	4.1140	-0.6999	25.44	0.00	-0.750			
0.0253	1621.94	4.1110	4.1110	-0.7096	25.45	0.01	-0.750			
0.0275	1757.67	4.1080	4.1080	-0.7197	25.45	0.01	-0.750			
0.0297	1898.45	4.1050	4.1050	-0.7309	25.45	0.01	-0.750			
0.0319	2039.25	4.1020	4.1020	-0.7413	25.46	0.02	-0.750			
0.0341	2183.86	4.0990	4.0990	-0.7510	25.46	0.02	-0.750			
0.0364	2329.89	4.0960	4.0959	-0.7531	25.46	0.02	-0.750			
0.0387	2475.26	4.0930	4.0929	-0.7564	25.46	0.02	-0.750			
0.0409	2620.30	4.0900	4.0900	-0.7585	25.47	0.03	-0.750	0.408	0.480	
0.0432	2766.03	4.0870	4.0869	-0.7608	25.47	0.03	-0.750			
0.0455	2911.78	4.0840	4.0839	-0.7641	25.47	0.03	-0.750			
0.0478	3057.11	4.0810	4.0810	-0.7666	25.47	0.03	-0.750			
0.0501	3206.24	4.0780	4.0781	-0.7742	25.48	0.04	-0.750			
0.0524	3354.90	4.0750	4.0749	-0.7827	25.49	0.05	-0.750			
0.0548	3506.40	4.0720	4.0720	-0.7841	25.49	0.05	-0.750			
0.0572	3658.27	4.0690	4.0690	-0.7849	25.50	0.06	-0.750			
0.0595	3809.95	4.0660	4.0660	-0.7843	25.50	0.06	-0.750	0.365	0.474	
0.0619	3960.59	4.0630	4.0630	-0.7844	25.51	0.07	-0.750			
0.0642	4110.69	4.0600	4.0600	-0.7833	25.51	0.07	-0.750			
0.0666	4259.49	4.0570	4.0570	-0.7827	25.51	0.07	-0.750			
0.0689	4409.55	4.0540	4.0539	-0.7866	25.52	0.08	-0.750			
0.0713	4560.52	4.0510	4.0509	-0.7940	25.52	0.08	-0.750			
0.0737	4714.84	4.0480	4.0480	-0.7979	25.53	0.09	-0.750			
0.0761	4869.27	4.0450	4.0449	-0.7975	25.54	0.10	-0.750			
0.0785	5023.11	4.0420	4.0420	-0.7977	25.54	0.10	-0.750			
0.0809	5176.34	4.0390	4.0390	-0.7976	25.55	0.11	-0.750	0.398	0.484	
0.0833	5329.12	4.0360	4.0360	-0.7971	25.56	0.12	-0.750			
0.0856	5481.03	4.0330	4.0329	-0.7967	25.56	0.12	-0.750			
0.0880	5634.27	4.0300	4.0301	-0.7963	25.56	0.12	-0.750			
0.0905	5789.58	4.0270	4.0269	-0.8006	25.57	0.13	-0.750			
0.0928	5942.15	4.0240	4.0240	-0.8058	25.57	0.13	-0.750			
0.0953	6097.04	4.0210	4.0211	-0.8085	25.57	0.13	-0.750			
0.0977	6253.21	4.0180	4.0178	-0.8086	25.57	0.13	-0.750			
0.1001	6408.49	4.0150	4.0155	-0.8152	25.58	0.14	-0.750	0.375	0.478	
0.1026	6566.18	4.0120	4.0119	-0.8131	25.58	0.14	-0.750			
0.1050	6722.59	4.0090	4.0089	-0.8138	25.58	0.14	-0.750			
0.1075	6878.81	4.0060	4.0060	-0.8108	25.59	0.15	-0.750			
0.1099	7033.76	4.0030	4.0030	-0.8114	25.59	0.15	-0.750			
0.1123	7188.92	4.0000	4.0000	-0.8180	25.59	0.15	-0.750			
0.1148	7347.78	3.9970	3.9970	-0.8189	25.59	0.15	-0.750			
0.1173	7504.82	3.9940	3.9939	-0.8154	25.60	0.16	-0.750			
0.1197	7663.20	3.9910	3.9908	-0.8181	25.60	0.16	-0.750	0.410	0.484	
0.1222	7819.80	3.9880	3.9880	-0.8178	25.60	0.16	-0.750			
0.1246	7976.11	3.9850	3.9850	-0.8226	25.60	0.16	-0.750			
0.1271	8133.14	3.9820	3.9819	-0.8212	25.60	0.16	-0.750			
0.1295	8290.19	3.9790	3.9790	-0.8266	25.60	0.16	-0.750			
0.1320	8450.20	3.9760	3.9760	-0.8382	25.60	0.16	-0.750			
0.1346	8614.81	3.9730	3.9730	-0.8353	25.60	0.16	-0.750			
0.1371	8774.77	3.9700	3.9699	-0.8317	25.61	0.17	-0.750			
0.1396	8934.64	3.9670	3.9671	-0.8288	25.61	0.17	-0.750	0.385	0.482	
0.1421	9092.59	3.9640	3.9639	-0.8253	25.61	0.17	-0.750			
0.1445	9250.71	3.9610	3.9609	-0.8264	25.62	0.18	-0.750			
0.1470	9407.27	3.9580	3.9581	-0.8219	25.62	0.18	-0.750			
0.1494	9563.28	3.9550	3.9550	-0.8321	25.62	0.18	-0.750			
0.1520	9725.68	3.9520	3.9520	-0.8464	25.62	0.18	-0.750			
0.1545	9889.45	3.9490	3.9490	-0.8441	25.62	0.18	-0.750			
0.1571	10053.81	3.9460	3.9459	-0.8488	25.62	0.18	-0.750			
0.1597	10217.67	3.9430	3.9431	-0.8488	25.62	0.18	-0.750	0.417	0.486	
0.1622	10380.29	3.9400	3.9398	-0.8513	25.63	0.19	-0.750			
0.1647	10543.36	3.9370	3.9370	-0.8454	25.63	0.19	-0.750			
0.1672	10702.18	3.9340	3.9339	-0.8424	25.63	0.19	-0.750			
0.1698	10865.38	3.9310	3.9311	-0.8491	25.64	0.20	-0.750			
0.1723	11030.15	3.9280	3.9280	-0.8591	25.64	0.20	-0.750			
0.1749	11194.69	3.9250	3.9249	-0.8623	25.64	0.20	-0.750			
0.1775	11362.32	3.9220	3.9219	-0.8614	25.64	0.20	-0.750			
0.1801	11528.02	3.9190	3.9189	-0.8597	25.64	0.20	-0.750	0.431	0.488	
0.1827	11694.49	3.9160	3.9160	-0.8617	25.64	0.20	-0.750			
0.1853	11858.77	3.9130	3.9130	-0.8571	25.64	0.20	-0.750			
0.1878	12022.34	3.9100	3.9099	-0.8586	25.65	0.21	-0.750			
0.1904	12185.09	3.9070	3.9070	-0.8576	25.65	0.21	-0.750			
0.1930	12350.86	3.9040	3.9040	-0.8650	25.66	0.22	-0.750			
0.1956	12520.21	3.9010	3.9010	-0.8734	25.66	0.22	-0.750			
0.1982	12687.89	3.8980	3.8979	-0.8710	25.66	0.22	-0.750			
0.2009	12855.86	3.8950	3.8951	-0.8726	25.66	0.22	-0.750	0.394	0.482	
0.2035	13023.48	3.8920	3.8919	-0.8721	25.67	0.23	-0.750			
0.2061	13189.33	3.8890	3.8890	-0.8685	25.67	0.23	-0.750			
0.2087	13356.29	3.8860	3.8861	-0.8682	25.67	0.23	-0.750			
0.2113	13523.66	3.8830	3.8830	-0.8757	25.67	0.23	-0.750			
0.2139	13690.49	3.8800	3.8800	-0.8783	25.67	0.23	-0.750			
0.2166	13860.38	3.8770	3.8769	-0.8791	25.68	0.24	-0.750			
0.2192	14030.46	3.8740	3.8739	-0.8781	25.68	0.24	-0.750	0.406	0.488	
0.2219	14198.54	3.8710	3.8710	-0.8789	25.68	0.24	-0.750			
0.2245	14368.09	3.8680	3.8680	-0.8773	25.69	0.25	-0.750			
0.2271	14535.10	3.8650	3.8649	-0.8779	25.69	0.25	-0.750			
0.2297	14701.60	3.8620	3.8620	-0.8758	25.69	0.25	-0.750			
0.2324	14870.78	3.8590	3.8590	-0.8858	25.70	0.26	-0.750			
0.2350	15043.19	3.8560	3.8559	-0.8879	25.70	0.26	-0.750			
0.2377	15215.07	3.8530	3.8530	-0.8961	25.71	0.27	-0.750			
0.2404	15387.84	3.8500	3.8501	-0.8924	25.71	0.27	-0.750	0.390	0.486	
0.2431	15560.51	3.8470	3.8469	-0.8938	25.72	0.28	-0.750			
0.2458	15731.48	3.8440	3.8442	-0.8887	25.72	0.28	-0.750			
0.2484	15899.91	3.8410	3.8410	-0.8879	25.72	0.28	-0.750			
0.2511	16071.77	3.8380	3.8379	-0.8847	25.73	0.29	-0.750			
0.2538	16241.40	3.8350	3.8350	-0.8852	25.73	0.29	-0.750			
0.2564	16410.02	3.8320	3.8319	-0.8906	25.74	0.30	-0.750			
0.2591	16580.67	3.8290	3.8293	-0.8968	25.74	0.30	-0.750	0.391	0.486	
0.2618	16752.43	3.8260	3.8260	-0.9005	25.75	0.31	-0.750			
0.2645	16926.92	3.8230	3.8230	-0.9044	25.75	0.31	-0.750			
0.2672	17101.76	3.8200	3.8200	-0.9032	25.75	0.31	-0.750			
0.2699	17274.11	3.8170	3.8170	-0.9132	25.76	0.32	-0.750			
0.2727	17451.75	3.8140	3.8140	-0.9096	25.76	0.32	-0.750			
0.2754	17627.46	3.8110	3.8109	-0.9062	25.77	0.33	-0.750			
0.2781	17800.89	3.8080	3.8079	-0.9032	25.77	0.33	-0.750			
0.2809	17974.40	3.8050	3.8051	-0.9007	25.78	0.34	-0.750	0.410	0.476	
0.2835	18146.85	3.8020	3.8021	-0.9040	25.78	0.34	-0.750			
0.2862	18319.50	3.7990	3.7989	-0.9055	25.78	0.34	-0.750			
0.2889	18489.70	3.7960	3.7961	-0.9008	25.78	0.34	-0.750			
0.2917	18666.44	3.7930	3.7930	-0.9136	25.78	0.34	-0.750			
0.2945	18845.85	3.7900	3.7900	-0.9202	25.78	0.34	-0.750			
0.2972	19022.33	3.7870	3.7870	-0.9163	25.78	0.34	-0.750			
0.3000	19197.91	3.7840	3.7841	-0.9166	25.79	0.35	-0.750	0.401	0.476	
0.3027	19373.13	3.7810	3.7810	-0.9115	25.79	0.35	-0.750			
0.3054	19546.86	3.7780	3.7780	-0.9114	25.80	0.36	-0.750			
0.3081	19721.26	3.7750	3.7750	-0.9157	25.80	0.36	-0.750			
0.3109	19896.86	3.7720	3.7720	-0.9190	25.80	0.36	-0.750			
0.3137	20074.81	3.7690	3.7689	-0.9254	25.81	0.37	-0.750			
0.3165	20253.19	3.7660	3.7660	-0.9289	25.81	0.37	-0.750			
0.3193	20432.50	3.7630	3.7629	-0.9283	25.82	0.38	-0.750	0.419	0.491	
0.3221	20612.18	3.7600	3.7601	-0.9315	25.82	0.38	-0.750			
0.3249	20790.47	3.7570	3.7570	-0.9323	25.83	0.39	-0.750			
0.3276	20968.78	3.7540	3.7540	-0.9305	25.83	0.39	-0.750			
0.3304	21145.14	3.7510	3.7510	-0.9356	25.84	0.40	-0.750			
0.3332	21327.57	3.7480	3.7481	-0.9439	25.84	0.40	-0.750			
0.3361	21509.84	3.7450	3.7449	-0.9498	25.84	0.40	-0.750			
0.3390	21693.10	3.7420	3.7419	-0.9560	25.84	0.40	-0.750	0.408	0.488	
0.3418	21876.84	3.7390	3.7391	-0.9591	25.84	0.40	-0.750			
0.3447	22061.37	3.7360	3.7359	-0.9611	25.84	0.40	-0.750			
0.3476	22247.01	3.7330	3.7330	-0.9672	25.84	0.40	-0.750			
0.3505	22429.54	3.7300	3.7301	-0.9784	25.85	0.41	-0.750			
0.3535	22621.01	3.7270	3.7269	-0.9881	25.85	0.41	-0.750			
0.3564	22812.21	3.7240	3.7239	-0.9942	25.86	0.42	-0.750			
0.3594	23002.94	3.7210	3.7210	-1.0064	25.86	0.42	-0.750	0.406	0.497	
0.3625	23198.17	3.7180	3.7180	-1.0149	25.86	0.42	-0.750			
0.3655	23393.38	3.7150	3.7149	-1.0241	25.86	0.42	-0.750			
0.3686	23587.53	3.7120	3.7119	-1.0309	25.86	0.42	-0.750			
0.3717	23788.60	3.7090	3.7091	-1.0494	25.86	0.42	-0.750			
0.3749	23993.52	3.7060	3.7059	-1.0648	25.86	0.42	-0.750			
0.3781	24198.96	3.7030	3.7030	-1.0785	25.86	0.42	-0.750			
0.3813	24406.26	3.7000	3.7001	-1.0927	25.86	0.42	-0.750	0.418	0.495	
0.3847	24618.46	3.6970	3.6969	-1.1129	25.86	0.42	-0.750			
0.3880	24831.79	3.6940	3.6940	-1.1332	25.86	0.42	-0.750			
0.3914	25049.56	3.6910	3.6910	-1.1499	25.86	0.42	-0.750			
0.3949	25276.40	3.6880	3.6880	-1.1706	25.86	0.42	-0.750			
0.3985	25503.46	3.6850	3.6848	-1.1859	25.86	0.42	-0.750			
0.4021	25731.25	3.6820	3.6820	-1.2007	25.86	0.42	-0.750	0.392	0.491	
0.4057	25962.35	3.6790	3.6790	-1.2182	25.85	0.41	-0.750			
0.4093	26195.21	3.6760	3.6761	-1.2440	25.85	0.41	-0.750			
0.4131	26436.44	3.6730	3.6729	-1.2677	25.85	0.41	-0.750			
0.4169	26684.75	3.6700	3.6700	-1.3057	25.85	0.41	-0.750			
0.4209	26936.61	3.6670	3.6671	-1.3399	25.85	0.41	-0.750	0.416	0.503	
0.4249	27196.32	3.6640	3.6639	-1.3767	25.85	0.41	-0.750			
0.4291	27465.16	3.6610	3.6609	-1.4128	25.84	0.40	-0.750			
0.4334	27740.14	3.6580	3.6581	-1.4429	25.84	0.40	-0.750			
0.4379	28023.65	3.6550	3.6549	-1.4775	25.84	0.40	-0.750			
0.4423	28308.96	3.6520	3.6520	-1.5083	25.85	0.41	-0.750	0.387	0.499	
0.4468	28597.57	3.6490	3.6490	-1.5391	25.85	0.41	-0.750			
0.4515	28896.05	3.6460	3.6459	-1.5782	25.85	0.41	-0.750			
0.4563	29204.04	3.6430	3.6429	-1.6109	25.84	0.40	-0.750			
0.4612	29517.77	3.6400	3.6401	-1.6586	25.84	0.40	-0.750	0.402	0.498	
0.4663	29843.30	3.6370	3.6371	-1.6968	25.84	0.40	-0.750			
0.4714	30170.98	3.6340	3.6340	-1.7349	25.84	0.40	-0.750			
0.4766	30505.20	3.6310	3.6310	-1.7678	25.84	0.40	-0.750			
0.4820	30848.00	3.6280	3.6281	-1.8080	25.84	0.40	-0.750	0.401	0.498	
0.4875	31200.68	3.6250	3.6249	-1.8430	25.83	0.39	-0.750			
0.4932	31563.71	3.6220	3.6219	-1.8781	25.82	0.38	-0.750			
0.4988	31922.44	3.6190	3.6189	-1.9057	25.82	0.38	-0.750	0.383	0.493	
0.5046	32294.28	3.6160	3.6161	-1.9383	25.82	0.38	-0.750			
0.5104	32668.42	3.6130	3.6131	-1.9578	25.82	0.38	-0.750			
0.5163	33046.34	3.6100	3.6099	-1.9896	25.81	0.37	-0.750			
0.5224	33430.58	3.6070	3.6071	-2.0295	25.80	0.36	-0.750	0.407	0.493	
0.5285	33824.24	3.6040	3.6039	-2.0706	25.80	0.36	-0.750			
0.5347	34223.90	3.6010	3.6009	-2.0986	25.80	0.36	-0.750			
0.5411	34629.53	3.5980	3.5980	-2.1437	25.79	0.35	-0.750	0.416	0.505	
0.5477	35050.51	3.5950	3.5951	-2.1870	25.79	0.35	-0.750			
0.5543	35473.31	3.5920	3.5919	-2.2310	25.78	0.34	-0.750			
0.5610	35904.15	3.5890	3.5891	-2.2595	25.78	0.34	-0.750	0.381	0.507	
0.5678	36338.93	3.5860	3.5860	-2.3000	25.78	0.34	-0.750			
0.5748	36785.91	3.5830	3.5830	-2.3415	25.78	0.34	-0.750			
0.5819	37240.65	3.5800	3.5800	-2.3852	25.77	0.33	-0.750	0.405	0.509	
0.5891	37704.57	3.5770	3.5768	-2.4173	25.77	0.33	-0.750			
0.5964	38172.77	3.5740	3.5739	-2.4606	25.77	0.33	-0.750			
0.6038	38646.32	3.5710	3.5712	-2.5037	25.76	0.32	-0.750	0.425	0.518	
0.6115	39134.95	3.5680	3.5680	-2.5411	25.76	0.32	-0.750			
0.6191	39624.17	3.5650	3.5650	-2.5818	25.76	0.32	-0.750	0.409	0.518	
0.6270	40125.64	3.5620	3.5620	-2.6107	25.76	0.32	-0.750			
0.6349	40636.17	3.5590	3.5589	-2.6216	25.76	0.32	-0.750			
0.6428	41141.92	3.5560	3.5561	-2.6016	25.74	0.30	-0.750	0.391	0.520	
0.6506	41641.33	3.5530	3.5530	-2.5823	25.74	0.30	-0.750			
0.6584	42135.34	3.5500	3.5499	-2.5546	25.74	0.30	-0.750	0.397	0.524	
0.6660	42621.09	3.5470	3.5469	-2.5086	25.74	0.30	-0.750			
0.6735	43101.83	3.5440	3.5440	-2.4786	25.74	0.30	-0.750			
0.6809	43575.37	3.5410	3.5411	-2.4353	25.73	0.29	-0.750	0.409	0.538	
0.6881	44040.49	3.5380	3.5379	-2.3884	25.73	0.29	-0.750			
0.6952	44495.33	3.5350	3.5350	-2.3323	25.72	0.28	-0.750			
0.7021	44937.21	3.5320	3.5321	-2.2786	25.72	0.28	-0.750	0.405	0.541	
0.7089	45370.42	3.5290	3.5290	-2.2347	25.72	0.28	-0.750			
0.7155	45791.72	3.5260	3.5260	-2.1672	25.73	0.29	-0.750			
0.7220	46205.70	3.5230	3.5230	-2.1061	25.73	0.29	-0.750	0.418	0.549	
0.7283	46608.06	3.5200	3.5200	-2.0412	25.74	0.30	-0.750			
0.7343	46995.73	3.5170	3.5170	-1.9579	25.74	0.30	-0.750			
0.7401	47363.42	3.5140	3.5140	-1.8763	25.75	0.31	-0.750	0.411	0.545	
0.7455	47712.75	3.5110	3.5110	-1.8003	25.76	0.32	-0.750			
0.7508	48048.70	3.5080	3.5079	-1.7191	25.77	0.33	-0.750			
0.7558	48372.37	3.5050	3.5050	-1.6496	25.78	0.34	-0.750			
0.7607	48682.85	3.5020	3.5020	-1.5815	25.80	0.36	-0.750	0.408	0.554	
0.7653	48977.42	3.4990	3.4990	-1.5235	25.81	0.37	-0.750			
0.7698	49265.06	3.4960	3.4959	-1.4692	25.82	0.38	-0.750			
0.7740	49537.38	3.4930	3.4929	-1.4050	25.83	0.39	-0.750			
0.7782	49803.51	3.4900	3.4899	-1.3592	25.84	0.40	-0.750			
0.7822	50059.42	3.4870	3.4871	-1.3139	25.86	0.42	-0.750	0.396	0.553	
0.7860	50305.60	3.4840	3.4839	-1.2629	25.86	0.42	-0.750			
0.7898	50544.48	3.4810	3.4810	-1.2200	25.87	0.43	-0.750			
0.7933	50771.84	3.4780	3.4780	-1.1689	25.88	0.44	-0.750			
0.7968	50993.47	3.4750	3.4750	-1.1329	25.88	0.44	-0.750			
0.8001	51207.97	3.4720	3.4720	-1.0919	25.89	0.45	-0.750	0.406	0.572	
0.8033	51412.39	3.4690	3.4689	-1.0490	25.90	0.46	-0.750			
0.8064	51607.06	3.4660	3.4659	-1.0136	25.91	0.47	-0.750			
0.8093	51797.87	3.4630	3.4631	-0.9892	25.92	0.48	-0.750			
0.8122	51982.01	3.4600	3.4600	-0.9753	25.93	0.49	-0.750			
0.8151	52166.29	3.4570	3.4570	-0.9682	25.94	0.50	-0.750			
0.8179	52348.03	3.4540	3.4540	-0.9713	25.94	0.50	-0.750			
0.8209	52535.42	3.4510	3.4511	-0.9941	25.95	0.51	-0.750	0.407	0.587	
0.8238	52725.36	3.4480	3.4479	-1.0245	25.96	0.52	-0.750			
0.8269	52921.34	3.4450	3.4450	-1.0700	25.96	0.52	-0.750			
0.8301	53129.05	3.4420	3.4420	-1.1192	25.97	0.53	-0.750			
0.8336	53352.17	3.4390	3.4390	-1.1687	25.97	0.53	-0.750			
0.8373	53585.98	3.4360	3.4359	-1.2142	25.97	0.53	-0.750			
0.8410	53826.27	3.4330	3.4330	-1.2344	25.98	0.54	-0.750	0.413	0.596	
0.8448	54069.74	3.4300	3.4300	-1.2443	25.98	0.54	-0.750			
0.8486	54312.56	3.4270	3.4270	-1.2469	25.98	0.54	-0.750			
0.8525	54557.06	3.4240	3.4239	-1.2132	25.99	0.55	-0.750			
0.8561	54790.89	3.4210	3.4209	-1.1686	25.99	0.55	-0.750			
0.8596	55012.00	3.4180	3.4178	-1.1244	25.99	0.55	-0.750	0.409	0.609	
0.8629	55222.95	3.4150	3.4150	-1.0762	25.99	0.55	-0.750			
0.8660	55422.83	3.4120	3.4118	-1.0270	26.00	0.56	-0.750			
0.8689	55609.34	3.4090	3.4089	-0.9845	26.00	0.56	-0.750			
0.8718	55792.59	3.4060	3.4061	-0.9653	26.00	0.56	-0.750			
0.8747	55977.96	3.4030	3.4030	-0.9418	26.00	0.56	-0.750			
0.8775	56158.17	3.4000	3.3999	-0.9158	26.00	0.56	-0.750			
0.8802	56330.46	3.3970	3.3970	-0.8811	26.00	0.56	-0.750	0.416	0.630	
0.8828	56499.05	3.3940	3.3939	-0.8522	26.00	0.56	-0.750			
0.8853	56659.24	3.3910	3.3910	-0.8207	26.00	0.56	-0.750			
0.8877	56812.59	3.3880	3.3880	-0.7873	26.01	0.57	-0.750			
0.8900	56958.24	3.3850	3.3850	-0.7545	26.01	0.57	-0.750			
0.8922	57101.62	3.3820	3.3819	-0.7287	26.01	0.57	-0.750			
0.8943	57237.65	3.3790	3.3790	-0.7080	26.02	0.58	-0.750			
0.8965	57373.16	3.3760	3.3760	-0.6782	26.02	0.58	-0.750			
0.8985	57501.92	3.3730	3.3729	-0.6506	26.02	0.58	-0.750			
0.9004	57623.73	3.3700	3.3698	-0.6191	26.03	0.59	-0.750	0.417	0.656	
0.9022	57739.34	3.3670	3.3670	-0.5911	26.03	0.59	-0.750			
0.9039	57849.28	3.3640	3.3639	-0.5638	26.03	0.59	-0.750			
0.9055	57953.47	3.3610	3.3609	-0.5341	26.04	0.60	-0.750			
0.9071	58052.78	3.3580	3.3580	-0.5117	26.04	0.60	-0.750			
0.9086	58149.85	3.3550	3.3551	-0.4913	26.04	0.60	-0.750			
0.9100	58241.43	3.3520	3.3520	-0.4694	26.05	0.61	-0.750			
0.9114	58329.26	3.3490	3.3490	-0.4499	26.06	0.62	-0.750			
0.9127	58413.40	3.3460	3.3460	-0.4254	26.06	0.62	-0.750			
0.9140	58493.35	3.3430	3.3430	-0.4061	26.07	0.63	-0.750			
0.9151	58569.28	3.3400	3.3401	-0.3884	26.07	0.63	-0.750			
0.9163	58641.12	3.3370	3.3370	-0.3697	26.08	0.64	-0.750			
0.9173	58709.29	3.3340	3.3339	-0.3572	26.08	0.64	-0.750			
0.9184	58776.80	3.3310	3.3309	-0.3429	26.09	0.65	-0.750			
0.9194	58841.80	3.3280	3.3279	-0.3286	26.09	0.65	-0.750			
0.9204	58904.98	3.3250	3.3249	-0.3147	26.10	0.66	-0.750	0.415	0.683	
0.9213	58964.04	3.3220	3.3219	-0.2989	26.10	0.66	-0.750			
0.9222	59019.29	3.3190	3.3189	-0.2834	26.11	0.67	-0.750			
0.9230	59070.15	3.3160	3.3160	-0.2668	26.11	0.67	-0.750			
0.9237	59118.46	3.3130	3.3131	-0.2542	26.12	0.68	-0.750			
0.9245	59167.51	3.3100	3.3100	-0.2473	26.12	0.68	-0.750			
0.9252	59214.26	3.3070	3.3070	-0.2388	26.12	0.68	-0.750			
0.9259	59259.01	3.3040	3.3040	-0.2301	26.13	0.69	-0.750			
0.9266	59302.43	3.3010	3.3010	-0.2222	26.13	0.69	-0.750			
0.9273	59344.27	3.2980	3.2980	-0.2148	26.13	0.69	-0.750			
0.9279	59384.72	3.2950	3.2950	-0.2075	26.14	0.70	-0.750			
0.9285	59423.41	3.2920	3.2921	-0.2006	26.14	0.70	-0.750			
0.9291	59461.33	3.2890	3.2890	-0.1944	26.14	0.70	-0.750			
0.9297	59497.91	3.2860	3.2859	-0.1883	26.14	0.70	-0.750			
0.9302	59533.33	3.2830	3.2830	-0.1830	26.15	0.71	-0.750			
0.9307	59567.94	3.2800	3.2800	-0.1775	26.15	0.71	-0.750			
0.9313	59601.51	3.2770	3.2771	-0.1722	26.15	0.71	-0.750			
0.9318	59633.95	3.2740	3.2739	-0.1678	26.15	0.71	-0.750			
0.9323	59665.74	3.2710	3.2710	-0.1631	26.16	0.72	-0.750			
0.9328	59696.23	3.2680	3.2679	-0.1588	26.16	0.72	-0.750			
0.9332	59726.38	3.2650	3.2650	-0.1552	26.16	0.72	-0.750			
0.9337	59755.79	3.2620	3.2621	-0.1519	26.17	0.73	-0.750			
0.9341	59784.41	3.2590	3.2589	-0.1483	26.17	0.73	-0.750			
0.9346	59812.79	3.2560	3.2560	-0.1452	26.17	0.73	-0.750			
0.9350	59840.35	3.2530	3.2530	-0.1418	26.18	0.74	-0.750			
0.9354	59867.12	3.2500	3.2501	-0.1388	26.18	0.74	-0.750			
0.9358	59893.56	3.2470	3.2470	-0.1360	26.19	0.75	-0.750			
0.9362	59919.14	3.2440	3.2439	-0.1325	26.19	0.75	-0.750			
0.9366	59944.34	3.2410	3.2410	-0.1297	26.19	0.75	-0.750			
0.9370	59968.71	3.2380	3.2381	-0.1276	26.20	0.76	-0.750			
0.9374	59992.86	3.2350	3.2349	-0.1254	26.20	0.76	-0.750			
0.9378	60016.74	3.2320	3.2321	-0.1235	26.21	0.77	-0.750			
0.9381	60040.28	3.2290	3.2289	-0.1217	26.21	0.77	-0.750			
0.9385	60063.34	3.2260	3.2261	-0.1197	26.21	0.77	-0.750			
0.9388	60086.18	3.2230	3.2230	-0.1182	26.22	0.78	-0.750			
0.9392	60108.12	3.2200	3.2201	-0.1196	26.22	0.78	-0.750			
0.9396	60131.90	3.2170	3.2169	-0.1181	26.22	0.78	-0.750			
0.9399	60154.49	3.2140	3.2139	-0.1171	26.23	0.79	-0.750			
0.9403	60177.77	3.2110	3.2105	-0.1140	26.23	0.79	-0.750			
0.9406	60199.39	3.2080	3.2074	-0.1111	26.23	0.79	-0.750	0.420	0.713	
0.9410	60221.61	3.2050	3.2061	-0.1086	26.24	0.80	-0.750			
0.9413	60241.78	3.2020	3.2020	-0.1062	26.24	0.80	-0.750			
0.9416	60262.28	3.1990	3.1987	-0.1026	26.24	0.80	-0.750			
0.9419	60279.67	3.1960	3.1959	-0.0988	26.24	0.80	-0.750			
0.9422	60298.62	3.1930	3.1930	-0.0986	26.25	0.81	-0.750			
0.9425	60317.53	3.1900	3.1900	-0.0979	26.25	0.81	-0.750			
0.9428	60336.31	3.1870	3.1871	-0.0977	26.25	0.81	-0.750			
0.9431	60355.39	3.1840	3.1840	-0.0975	26.26	0.82	-0.750			
0.9433	60374.02	3.1810	3.1810	-0.0965	26.26	0.82	-0.750			
0.9436	60392.42	3.1780	3.1780	-0.0954	26.26	0.82	-0.750			
0.9439	60410.66	3.1750	3.1750	-0.0945	26.26	0.82	-0.750			
0.9442	60428.74	3.1720	3.1720	-0.0934	26.26	0.82	-0.750			
0.9445	60446.63	3.1690	3.1690	-0.0924	26.26	0.82	-0.750			
0.9448	60464.23	3.1660	3.1661	-0.0916	26.27	0.83	-0.750			
0.9450	60481.71	3.1630	3.1630	-0.0906	26.27	0.83	-0.750			
0.9453	60499.00	3.1600	3.1600	-0.0897	26.27	0.83	-0.750			
0.9456	60516.06	3.1570	3.1570	-0.0887	26.27	0.83	-0.750			
0.9458	60533.02	3.1540	3.1541	-0.0879	26.27	0.83	-0.750			
0.9461	60549.80	3.1510	3.1510	-0.0871	26.28	0.84	-0.750			
0.9464	60566.43	3.1480	3.1480	-0.0864	26.28	0.84	-0.750			
0.9466	60582.96	3.1450	3.1449	-0.0857	26.28	0.84	-0.750			
0.9469	60599.36	3.1420	3.1421	-0.0850	26.29	0.85	-0.750			
0.9471	60615.60	3.1390	3.1390	-0.0841	26.29	0.85	-0.750			
0.9474	60631.68	3.1360	3.1360	-0.0834	26.29	0.85	-0.750			
0.9476	60647.63	3.1330	3.1330	-0.0827	26.30	0.86	-0.750			
0.9479	60663.44	3.1300	3.1300	-0.0820	26.30	0.86	-0.750			
0.9481	60679.11	3.1270	3.1269	-0.0812	26.30	0.86	-0.750			
0.9484	60694.53	3.1240	3.1241	-0.0808	26.30	0.86	-0.750			
0.9486	60709.85	3.1210	3.1210	-0.0800	26.31	0.87	-0.750			
0.9488	60725.18	3.1180	3.1181	-0.0797	26.31	0.87	-0.750			
0.9491	60740.49	3.1150	3.1149	-0.0793	26.31	0.87	-0.750			
0.9493	60755.68	3.1120	3.1119	-0.0789	26.32	0.88	-0.750			
0.9495	60770.88	3.1090	3.1091	-0.0782	26.32	0.88	-0.750			
0.9498	60785.84	3.1060	3.1060	-0.0776	26.32	0.88	-0.750			
0.9500	60800.83	3.1030	3.1031	-0.0771	26.32	0.88	-0.750			
0.9502	60815.48	3.1000	3.1001	-0.0766	26.33	0.89	-0.750			
0.9505	60830.06	3.0970	3.0969	-0.0759	26.33	0.89	-0.750			
0.9507	60844.58	3.0940	3.0940	-0.0754	26.33	0.89	-0.750			
0.9509	60859.02	3.0910	3.0910	-0.0747	26.34	0.90	-0.750			
0.9511	60873.27	3.0880	3.0880	-0.0741	26.34	0.90	-0.750			
0.9514	60887.39	3.0850	3.0851	-0.0738	26.34	0.90	-0.750			
0.9516	60901.52	3.0820	3.0820	-0.0734	26.34	0.90	-0.750			
0.9518	60915.58	3.0790	3.0789	-0.0730	26.35	0.91	-0.750			
0.9520	60929.60	3.0760	3.0759	-0.0724	26.35	0.91	-0.750			
0.9522	60943.42	3.0730	3.0730	-0.0719	26.35	0.91	-0.750			
0.9525	60957.19	3.0700	3.0701	-0.0715	26.35	0.91	-0.750			
0.9527	60970.85	3.0670	3.0671	-0.0711	26.36	0.92	-0.750			
0.9529	60984.54	3.0640	3.0640	-0.0708	26.36	0.92	-0.750			
0.9531	60998.08	3.0610	3.0611	-0.0703	26.36	0.92	-0.750			
0.9533	61011.53	3.0580	3.0579	-0.0698	26.37	0.93	-0.750			
0.9535	61024.80	3.0550	3.0550	-0.0693	26.37	0.93	-0.750			
0.9537	61038.10	3.0520	3.0520	-0.0689	26.37	0.93	-0.750			
0.9539	61051.37	3.0490	3.0490	-0.0686	26.37	0.93	-0.750			
0.9541	61064.49	3.0460	3.0460	-0.0681	26.38	0.94	-0.750			
0.9543	61077.46	3.0430	3.0430	-0.0680	26.38	0.94	-0.750			
0.9545	61090.35	3.0400	3.0400	-0.0675	26.38	0.94	-0.750			
0.9547	61103.39	3.0370	3.0370	-0.0672	26.38	0.94	-0.750			
0.9549	61116.25	3.0340	3.0339	-0.0668	26.39	0.95	-0.750			
0.9551	61129.11	3.0310	3.0310	-0.0666	26.39	0.95	-0.750			
0.9553	61141.86	3.0280	3.0281	-0.0662	26.39	0.95	-0.750			
0.9555	61154.60	3.0250	3.0250	-0.0659	26.39	0.95	-0.750			
0.9557	61167.20	3.0220	3.0219	-0.0654	26.40	0.96	-0.750			
0.9559	61179.69	3.0190	3.0190	-0.0651	26.40	0.96	-0.750			
0.9561	61192.06	3.0160	3.0160	-0.0646	26.40	0.96	-0.750			
0.9563	61204.43	3.0130	3.0131	-0.0643	26.40	0.96	-0.750			
0.9565	61216.74	3.0100	3.0100	-0.0640	26.40	0.96	-0.750			
0.9567	61229.03	3.0070	3.0070	-0.0636	26.41	0.97	-0.750			
0.9569	61241.21	3.0040	3.0040	-0.0632	26.41	0.97	-0.750			
