Ah_balance (normalized)	Ah_balance (mAh)	Voltage - fit (V)	Voltage -  interpolate (V)	dQ/dV (1/V)	Temperature (°C)	Temperature - diff (°C)	Current (C)	R_DC 0ms (mOhm)	R_DC 50ms (mOhm)	R_DC 50 ms PEC (mOhm)
0.2368	15156.76	3.9740	3.9740	0.8797	26.12	0.18	0.750			
0.2394	15323.29	3.9710	3.9710	0.8707	26.12	0.18	0.750			
0.2420	15489.96	3.9680	3.9680	0.8745	26.12	0.18	0.750			
0.2447	15659.29	3.9650	3.9649	0.8773	26.12	0.18	0.750			
0.2473	15828.04	3.9620	3.9619	0.8781	26.12	0.18	0.750			
0.2499	15996.76	3.9590	3.9590	0.8821	26.12	0.18	0.750			
0.2526	16166.99	3.9560	3.9561	0.8864	26.12	0.18	0.750			
0.2553	16337.91	3.9530	3.9529	0.8885	26.12	0.18	0.750			
0.2579	16507.59	3.9500	3.9500	0.8860	26.12	0.18	0.750			
0.2606	16678.54	3.9470	3.9471	0.8878	26.12	0.18	0.750			
0.2633	16849.67	3.9440	3.9440	0.8913	26.12	0.18	0.750			
0.2659	17019.24	3.9410	3.9410	0.8930	26.12	0.18	0.750			
0.2686	17189.79	3.9380	3.9380	0.8944	26.12	0.18	0.750			
0.2713	17362.12	3.9350	3.9349	0.9005	26.12	0.18	0.750			
0.2740	17537.25	3.9320	3.9320	0.9021	26.12	0.18	0.750			
0.2767	17710.99	3.9290	3.9291	0.9039	26.13	0.19	0.750			
0.2795	17885.70	3.9260	3.9260	0.9060	26.13	0.19	0.750			
0.2822	18058.43	3.9230	3.9229	0.9073	26.13	0.19	0.750			
0.2849	18231.75	3.9200	3.9200	0.9043	26.13	0.19	0.750			
0.2876	18405.21	3.9170	3.9170	0.9110	26.13	0.19	0.750			
0.2903	18580.75	3.9140	3.9140	0.9182	26.12	0.18	0.750			
0.2931	18758.58	3.9110	3.9111	0.9242	26.12	0.18	0.750			
0.2959	18935.70	3.9080	3.9079	0.9280	26.12	0.18	0.750			
0.2987	19114.99	3.9050	3.9050	0.9293	26.12	0.18	0.750			
0.3015	19292.98	3.9020	3.9020	0.9300	26.12	0.18	0.750			
0.3043	19472.64	3.8990	3.8990	0.9328	26.12	0.18	0.750			
0.3071	19651.55	3.8960	3.8960	0.9341	26.12	0.18	0.750			
0.3099	19831.06	3.8930	3.8930	0.9362	26.12	0.18	0.750			
0.3127	20010.90	3.8900	3.8900	0.9422	26.11	0.17	0.750			
0.3155	20191.40	3.8870	3.8870	0.9480	26.11	0.17	0.750			
0.3184	20375.53	3.8840	3.8840	0.9523	26.10	0.16	0.750			
0.3212	20558.33	3.8810	3.8810	0.9562	26.10	0.16	0.750			
0.3241	20742.36	3.8780	3.8780	0.9573	26.10	0.16	0.750			
0.3270	20926.14	3.8750	3.8750	0.9592	26.09	0.15	0.750			
0.3299	21110.41	3.8720	3.8720	0.9652	26.09	0.15	0.750			
0.3327	21295.42	3.8690	3.8689	0.9685	26.09	0.15	0.750			
0.3357	21481.71	3.8660	3.8660	0.9717	26.09	0.15	0.750			
0.3386	21669.24	3.8630	3.8631	0.9790	26.09	0.15	0.750			
0.3415	21858.05	3.8600	3.8600	0.9837	26.08	0.14	0.750			
0.3445	22047.49	3.8570	3.8570	0.9882	26.08	0.14	0.750			
0.3475	22237.66	3.8540	3.8540	0.9922	26.08	0.14	0.750			
0.3504	22427.58	3.8510	3.8510	0.9989	26.08	0.14	0.750			
0.3534	22620.74	3.8480	3.8480	1.0077	26.07	0.13	0.750			
0.3565	22815.27	3.8450	3.8449	1.0162	26.07	0.13	0.750			
0.3596	23011.90	3.8420	3.8420	1.0156	26.07	0.13	0.750			
0.3626	23207.08	3.8390	3.8390	1.0269	26.07	0.13	0.750			
0.3657	23404.50	3.8360	3.8361	1.0340	26.06	0.12	0.750			
0.3688	23602.53	3.8330	3.8330	1.0501	26.06	0.12	0.750			
0.3720	23805.50	3.8300	3.8300	1.0571	26.06	0.12	0.750			
0.3752	24009.95	3.8270	3.8270	1.0669	26.06	0.12	0.750			
0.3784	24215.99	3.8240	3.8241	1.0769	26.05	0.11	0.750			
0.3816	24425.43	3.8210	3.8210	1.0923	26.05	0.11	0.750			
0.3849	24633.32	3.8180	3.8180	1.0997	26.05	0.11	0.750			
0.3882	24845.29	3.8150	3.8149	1.1114	26.04	0.10	0.750			
0.3916	25059.26	3.8120	3.8120	1.1224	26.04	0.10	0.750			
0.3950	25279.69	3.8090	3.8090	1.1347	26.03	0.09	0.750			
0.3984	25497.84	3.8060	3.8060	1.1485	26.02	0.08	0.750			
0.4019	25718.47	3.8030	3.8030	1.1623	26.01	0.07	0.750			
0.4053	25941.51	3.8000	3.8000	1.1734	26.01	0.07	0.750			
0.4089	26168.44	3.7970	3.7971	1.1857	26.00	0.06	0.750			
0.4125	26397.32	3.7940	3.7941	1.2069	25.99	0.05	0.750			
0.4161	26631.35	3.7910	3.7910	1.2221	25.99	0.05	0.750			
0.4198	26867.57	3.7880	3.7879	1.2357	25.98	0.04	0.750			
0.4235	27104.64	3.7850	3.7850	1.2534	25.98	0.04	0.750			
0.4273	27347.26	3.7820	3.7820	1.2713	25.98	0.04	0.750			
0.4312	27595.32	3.7790	3.7789	1.2881	25.98	0.04	0.750			
0.4351	27843.39	3.7760	3.7760	1.3091	25.98	0.04	0.750			
0.4390	28092.85	3.7730	3.7730	1.3311	25.97	0.03	0.750			
0.4430	28352.59	3.7700	3.7700	1.3582	25.96	0.02	0.750			
0.4471	28614.78	3.7670	3.7670	1.3850	25.96	0.02	0.750			
0.4513	28882.69	3.7640	3.7640	1.4128	25.95	0.01	0.750			
0.4556	29159.09	3.7610	3.7610	1.4372	25.94	0.00	0.750			
0.4600	29439.64	3.7580	3.7580	1.4621	25.93	-0.01	0.750			
0.4644	29718.49	3.7550	3.7551	1.4918	25.92	-0.02	0.750			
0.4689	30006.70	3.7520	3.7520	1.5234	25.91	-0.03	0.750			
0.4735	30301.83	3.7490	3.7491	1.5518	25.91	-0.03	0.750			
0.4782	30604.01	3.7460	3.7459	1.5814	25.90	-0.04	0.750			
0.4830	30911.56	3.7430	3.7431	1.6147	25.90	-0.04	0.750			
0.4879	31222.88	3.7400	3.7400	1.6539	25.88	-0.06	0.750			
0.4929	31542.79	3.7370	3.7371	1.6875	25.87	-0.07	0.750			
0.4979	31868.09	3.7340	3.7340	1.7261	25.86	-0.08	0.750			
0.5032	32204.90	3.7310	3.7310	1.7763	25.85	-0.09	0.750			
0.5086	32552.29	3.7280	3.7282	1.8225	25.84	-0.10	0.750			
0.5142	32906.17	3.7250	3.7251	1.8684	25.82	-0.12	0.750			
0.5198	33268.29	3.7220	3.7220	1.9103	25.80	-0.14	0.750			
0.5255	33634.69	3.7190	3.7190	1.9643	25.79	-0.15	0.750			
0.5315	34017.75	3.7160	3.7160	2.0122	25.78	-0.16	0.750			
0.5377	34412.23	3.7130	3.7130	2.0591	25.76	-0.18	0.750	0.354	0.492	
0.5439	34812.48	3.7100	3.7101	2.1178	25.74	-0.20	0.750			
0.5503	35221.78	3.7070	3.7070	2.1718	25.73	-0.21	0.750			
0.5569	35640.10	3.7040	3.7039	2.2258	25.72	-0.22	0.750			
0.5637	36075.11	3.7010	3.7010	2.2921	25.71	-0.23	0.750			
0.5707	36523.86	3.6980	3.6980	2.3522	25.70	-0.24	0.750			
0.5778	36982.21	3.6950	3.6951	2.3872	25.68	-0.26	0.750			
0.5850	37442.58	3.6920	3.6920	2.4638	25.67	-0.27	0.750			
0.5925	37923.12	3.6890	3.6888	2.5192	25.65	-0.29	0.750			
0.6002	38413.53	3.6860	3.6861	2.6026	25.64	-0.30	0.750			
0.6081	38919.18	3.6830	3.6830	2.6559	25.63	-0.31	0.750			
0.6162	39434.35	3.6800	3.6800	2.6713	25.62	-0.32	0.750			
0.6243	39954.28	3.6770	3.6770	2.7121	25.62	-0.32	0.750			
0.6325	40480.35	3.6740	3.6740	2.6743	25.62	-0.32	0.750			
0.6406	40995.68	3.6710	3.6710	2.5910	25.62	-0.32	0.750			
0.6482	41486.19	3.6680	3.6680	2.4700	25.62	-0.32	0.750			
0.6554	41947.91	3.6650	3.6650	2.3048	25.62	-0.32	0.750			
0.6620	42370.10	3.6620	3.6620	2.1361	25.62	-0.32	0.750			
0.6682	42765.00	3.6590	3.6590	1.9714	25.62	-0.32	0.750			
0.6738	43125.64	3.6560	3.6559	1.8185	25.62	-0.32	0.750			
0.6790	43457.70	3.6530	3.6531	1.6811	25.63	-0.31	0.750			
0.6838	43760.04	3.6500	3.6500	1.5567	25.63	-0.31	0.750			
0.6882	44043.17	3.6470	3.6470	1.4691	25.63	-0.31	0.750			
0.6923	44309.80	3.6440	3.6440	1.3862	25.64	-0.30	0.750			
0.6964	44567.09	3.6410	3.6409	1.3303	25.64	-0.30	0.750			
0.7002	44815.19	3.6380	3.6381	1.2880	25.64	-0.30	0.750			
0.7040	45056.16	3.6350	3.6351	1.2519	25.65	-0.29	0.750			
0.7077	45293.10	3.6320	3.6318	1.2255	25.65	-0.29	0.750			
0.7113	45522.56	3.6290	3.6290	1.2026	25.65	-0.29	0.750			
0.7149	45750.92	3.6260	3.6260	1.1936	25.66	-0.28	0.750			
0.7184	45978.90	3.6230	3.6230	1.1876	25.66	-0.28	0.750			
0.7220	46205.66	3.6200	3.6200	1.1762	25.66	-0.28	0.750			
0.7255	46429.77	3.6170	3.6170	1.1733	25.66	-0.28	0.750			
0.7290	46655.37	3.6140	3.6141	1.1757	25.67	-0.27	0.750			
0.7325	46880.53	3.6110	3.6108	1.1730	25.67	-0.27	0.750			
0.7360	47104.39	3.6080	3.6080	1.1763	25.67	-0.27	0.750			
0.7395	47330.14	3.6050	3.6051	1.1831	25.68	-0.26	0.750			
0.7431	47558.22	3.6020	3.6020	1.1913	25.68	-0.26	0.750			
0.7467	47786.74	3.5990	3.5990	1.1972	25.68	-0.26	0.750			
0.7502	48014.64	3.5960	3.5960	1.2141	25.68	-0.26	0.750			
0.7539	48248.76	3.5930	3.5931	1.2394	25.68	-0.26	0.750			
0.7576	48487.05	3.5900	3.5898	1.2717	25.68	-0.26	0.750			
0.7614	48732.47	3.5870	3.5871	1.3086	25.68	-0.26	0.750			
0.7654	48988.11	3.5840	3.5840	1.3518	25.68	-0.26	0.750			
0.7696	49256.23	3.5810	3.5809	1.3791	25.68	-0.26	0.750			
0.7738	49522.07	3.5780	3.5781	1.4114	25.68	-0.26	0.750			
0.7781	49795.64	3.5750	3.5751	1.4521	25.68	-0.26	0.750			
0.7824	50076.64	3.5720	3.5719	1.4864	25.68	-0.26	0.750			
0.7869	50363.58	3.5690	3.5689	1.5168	25.68	-0.26	0.750			
0.7916	50660.39	3.5660	3.5661	1.5485	25.68	-0.26	0.750			
0.7963	50964.02	3.5630	3.5629	1.5772	25.68	-0.26	0.750			
0.8011	51272.18	3.5600	3.5600	1.5942	25.68	-0.26	0.750			
0.8059	51578.99	3.5570	3.5571	1.5930	25.69	-0.25	0.750			
0.8107	51887.80	3.5540	3.5540	1.5966	25.69	-0.25	0.750			
0.8155	52194.48	3.5510	3.5511	1.5876	25.70	-0.24	0.750			
0.8203	52501.47	3.5480	3.5478	1.5848	25.70	-0.24	0.750			
0.8251	52807.10	3.5450	3.5451	1.5701	25.71	-0.23	0.750			
0.8299	53116.05	3.5420	3.5417	1.4992	25.72	-0.22	0.750			
0.8346	53415.32	3.5390	3.5390	1.4137	25.73	-0.21	0.750			
0.8389	53686.48	3.5360	3.5361	1.2772	25.75	-0.19	0.750			
0.8426	53929.21	3.5330	3.5332	1.1093	25.77	-0.17	0.750			
0.8457	54122.76	3.5300	3.5300	0.9120	25.78	-0.16	0.750			
0.8480	54270.71	3.5270	3.5270	0.7452	25.79	-0.15	0.750			
0.8497	54383.40	3.5240	3.5240	0.5865	25.80	-0.14	0.750			
0.8512	54475.28	3.5210	3.5208	0.4927	25.81	-0.13	0.750			
0.8524	54553.39	3.5180	3.5178	0.4158	25.81	-0.13	0.750			
0.8535	54621.00	3.5150	3.5151	0.3680	25.82	-0.12	0.750			
0.8545	54687.49	3.5120	3.5120	0.3411	25.82	-0.12	0.750			
0.8554	54748.51	3.5090	3.5090	0.3182	25.83	-0.11	0.750			
0.8564	54807.04	3.5060	3.5059	0.3022	25.83	-0.11	0.750			
0.8572	54862.63	3.5030	3.5031	0.2897	25.84	-0.10	0.750			
0.8581	54917.30	3.5000	3.5000	0.2802	25.84	-0.10	0.750			
0.8589	54969.99	3.4970	3.4969	0.2703	25.84	-0.10	0.750			
0.8597	55020.95	3.4940	3.4940	0.2624	25.85	-0.09	0.750			
0.8605	55069.84	3.4910	3.4910	0.2554	25.86	-0.08	0.750			
0.8612	55117.69	3.4880	3.4880	0.2495	25.86	-0.08	0.750			
0.8619	55164.77	3.4850	3.4850	0.2446	25.87	-0.07	0.750			
0.8627	55211.35	3.4820	3.4820	0.2388	25.88	-0.06	0.750			
0.8634	55257.39	3.4790	3.4790	0.2331	25.88	-0.06	0.750			
0.8641	55301.67	3.4760	3.4761	0.2283	25.89	-0.05	0.750			
0.8648	55344.91	3.4730	3.4731	0.2221	25.89	-0.05	0.750			
0.8654	55386.87	3.4700	3.4700	0.2172	25.90	-0.04	0.750			
0.8661	55427.54	3.4670	3.4669	0.2118	25.90	-0.04	0.750			
0.8667	55467.45	3.4640	3.4640	0.2069	25.91	-0.03	0.750			
0.8673	55506.83	3.4610	3.4610	0.2034	25.92	-0.02	0.750			
0.8679	55545.83	3.4580	3.4580	0.1990	25.92	-0.02	0.750			
0.8685	55584.07	3.4550	3.4550	0.1944	25.93	-0.01	0.750			
0.8691	55620.51	3.4520	3.4520	0.1892	25.93	-0.01	0.750			
0.8696	55656.39	3.4490	3.4491	0.1846	25.94	-0.00	0.750			
0.8702	55691.37	3.4460	3.4459	0.1798	25.94	-0.00	0.750			
0.8707	55725.37	3.4430	3.4429	0.1752	25.94	0.00	0.750			
0.8712	55758.51	3.4400	3.4400	0.1705	25.95	0.01	0.750			
0.8717	55790.84	3.4370	3.4370	0.1662	25.95	0.01	0.750			
0.8722	55822.42	3.4340	3.4340	0.1617	25.96	0.02	0.750			
0.8727	55853.23	3.4310	3.4310	0.1571	25.96	0.02	0.750			
0.8732	55882.68	3.4280	3.4280	0.1521	25.97	0.03	0.750			
0.8736	55911.45	3.4250	3.4250	0.1476	25.97	0.03	0.750			
0.8741	55939.49	3.4220	3.4220	0.1429	25.97	0.03	0.750			
0.8745	55966.46	3.4190	3.4189	0.1380	25.98	0.04	0.750			
0.8749	55992.52	3.4160	3.4160	0.1333	25.98	0.04	0.750			
0.8753	56017.52	3.4130	3.4131	0.1289	25.98	0.04	0.750			
0.8757	56041.77	3.4100	3.4100	0.1244	25.99	0.05	0.750			
0.8760	56065.48	3.4070	3.4070	0.1195	25.99	0.05	0.750			
0.8764	56087.90	3.4040	3.4039	0.1145	25.99	0.05	0.750			
0.8767	56109.77	3.4010	3.4010	0.1088	26.00	0.06	0.750			
0.8770	56130.45	3.3980	3.3981	0.1039	26.00	0.06	0.750			
0.8773	56149.80	3.3950	3.3952	0.0978	26.00	0.06	0.750			
0.8776	56168.94	3.3920	3.3919	0.0904	26.00	0.06	0.750			
0.8779	56185.50	3.3890	3.3890	0.0821	26.01	0.07	0.750			
0.8781	56200.77	3.3860	3.3861	0.0744	26.01	0.07	0.750			
0.8783	56214.22	3.3830	3.3833	0.0658	26.01	0.07	0.750			
0.8785	56226.76	3.3800	3.3804	0.0573	26.01	0.07	0.750			
0.8787	56236.84	3.3770	3.3776	0.0477	26.01	0.07	0.750			
0.8788	56245.08	3.3740	3.3752	0.0381	26.01	0.07	0.750			
0.8789	56251.49	3.3710	3.3725	0.0286	26.01	0.07	0.750			
