Ah_balance (normalized)	Ah_balance (mAh)	Voltage - fit (V)	Voltage -  interpolate (V)	dQ/dV (1/V)	Temperature (°C)	Temperature - diff (°C)	Current (C)	R_DC 0ms (mOhm)	R_DC 50ms (mOhm)	R_DC 50 ms PEC (mOhm)
0.0767	4910.81	4.1980	4.1987	1.9135	26.12	0.78	0.664			
0.0818	5238.06	4.1950	4.1964	1.1532	26.12	0.78	0.750			
0.0849	5436.65	4.1920	4.1923	1.0100	26.12	0.78	0.750			
0.0876	5605.99	4.1890	4.1888	0.9204	26.12	0.78	0.750			
0.0898	5749.60	4.1860	4.1860	0.7808	26.12	0.78	0.750			
0.0922	5900.51	4.1830	4.1831	0.7853	26.12	0.78	0.750			
0.0946	6053.20	4.1800	4.1800	0.7904	26.12	0.78	0.750			
0.0970	6205.41	4.1770	4.1770	0.7887	26.12	0.78	0.750			
0.0993	6356.29	4.1740	4.1739	0.7829	26.12	0.78	0.750			
0.1017	6505.87	4.1710	4.1710	0.7826	26.12	0.78	0.750			
0.1040	6656.34	4.1680	4.1681	0.7819	26.12	0.78	0.750			
0.1063	6805.83	4.1650	4.1650	0.7820	26.12	0.78	0.750			
0.1087	6956.23	4.1620	4.1620	0.7807	26.12	0.78	0.750			
0.1110	7105.44	4.1590	4.1591	0.7835	26.12	0.78	0.750			
0.1134	7257.09	4.1560	4.1560	0.7831	26.12	0.78	0.750			
0.1157	7407.92	4.1530	4.1530	0.7811	26.11	0.77	0.750			
0.1181	7556.59	4.1500	4.1500	0.7786	26.10	0.76	0.750			
0.1204	7705.68	4.1470	4.1470	0.7816	26.10	0.76	0.750			
0.1227	7855.26	4.1440	4.1440	0.7804	26.09	0.75	0.750			
0.1251	8005.01	4.1410	4.1408	0.7850	26.08	0.74	0.750			
0.1274	8155.83	4.1380	4.1381	0.7869	26.08	0.74	0.750			
0.1298	8309.89	4.1350	4.1349	0.7879	26.08	0.74	0.750			
0.1322	8461.96	4.1320	4.1320	0.7867	26.07	0.73	0.750			
0.1346	8612.50	4.1290	4.1291	0.7818	26.07	0.73	0.750			
0.1369	8761.06	4.1260	4.1260	0.7795	26.07	0.73	0.750			
0.1392	8910.66	4.1230	4.1229	0.7796	26.07	0.73	0.750			
0.1416	9059.25	4.1200	4.1200	0.7732	26.06	0.72	0.750			
0.1439	9207.10	4.1170	4.1171	0.7767	26.06	0.72	0.750			
0.1462	9358.02	4.1140	4.1140	0.7828	26.06	0.72	0.750			
0.1486	9507.93	4.1110	4.1110	0.7806	26.05	0.71	0.750			
0.1509	9657.58	4.1080	4.1080	0.7801	26.05	0.71	0.750			
0.1532	9806.80	4.1050	4.1051	0.7810	26.05	0.71	0.750			
0.1556	9957.87	4.1020	4.1020	0.7808	26.04	0.70	0.750			
0.1579	10108.27	4.0990	4.0990	0.7807	26.04	0.70	0.750			
0.1603	10256.54	4.0960	4.0960	0.7769	26.03	0.69	0.750			
0.1626	10405.94	4.0930	4.0928	0.7791	26.03	0.69	0.750			
0.1649	10555.25	4.0900	4.0900	0.7838	26.03	0.69	0.750			
0.1673	10706.86	4.0870	4.0870	0.7811	26.02	0.68	0.750			
0.1696	10856.43	4.0840	4.0840	0.7826	26.02	0.68	0.750			
0.1720	11007.19	4.0810	4.0810	0.7864	26.02	0.68	0.750			
0.1743	11157.88	4.0780	4.0782	0.7864	26.01	0.67	0.750			
0.1767	11309.15	4.0750	4.0749	0.7861	26.01	0.67	0.750			
0.1791	11460.40	4.0720	4.0720	0.7867	26.00	0.66	0.750			
0.1814	11611.19	4.0690	4.0690	0.7884	26.00	0.66	0.750			
0.1838	11763.73	4.0660	4.0660	0.7927	26.00	0.66	0.750			
0.1862	11914.96	4.0630	4.0630	0.7879	25.99	0.65	0.750			
0.1885	12065.47	4.0600	4.0600	0.7878	25.99	0.65	0.750			
0.1909	12216.87	4.0570	4.0570	0.7918	25.98	0.64	0.750			
0.1933	12369.52	4.0540	4.0540	0.7897	25.98	0.64	0.750			
0.1956	12519.93	4.0510	4.0510	0.7919	25.97	0.63	0.750			
0.1980	12671.82	4.0480	4.0481	0.7927	25.97	0.63	0.750			
0.2004	12824.89	4.0450	4.0448	0.7946	25.96	0.62	0.750			
0.2028	12978.58	4.0420	4.0420	0.7961	25.96	0.62	0.750			
0.2052	13130.86	4.0390	4.0391	0.7945	25.96	0.62	0.750			
0.2075	13282.39	4.0360	4.0360	0.7975	25.95	0.61	0.750			
0.2099	13435.73	4.0330	4.0330	0.7985	25.95	0.61	0.750			
0.2123	13588.89	4.0300	4.0299	0.8007	25.95	0.61	0.750			
0.2147	13743.40	4.0270	4.0271	0.8059	25.95	0.61	0.750			
0.2172	13899.45	4.0240	4.0240	0.8060	25.94	0.60	0.750			
0.2196	14054.84	4.0210	4.0210	0.8111	25.93	0.59	0.750			
0.2220	14210.23	4.0180	4.0181	0.8126	25.93	0.59	0.750			
0.2245	14365.34	4.0150	4.0149	0.8113	25.92	0.58	0.750			
0.2269	14521.88	4.0120	4.0120	0.8156	25.92	0.58	0.750			
0.2294	14679.73	4.0090	4.0090	0.8115	25.91	0.57	0.750			
0.2318	14834.52	4.0060	4.0060	0.8178	25.91	0.57	0.750			
0.2343	14992.69	4.0030	4.0030	0.8221	25.91	0.57	0.750			
0.2367	15149.46	4.0000	4.0000	0.8226	25.90	0.56	0.750			
0.2392	15308.02	3.9970	3.9972	0.8250	25.90	0.56	0.750			
0.2417	15467.60	3.9940	3.9940	0.8265	25.89	0.55	0.750			
0.2442	15626.02	3.9910	3.9910	0.8294	25.89	0.55	0.750			
0.2467	15786.08	3.9880	3.9879	0.8335	25.89	0.55	0.750			
0.2491	15944.95	3.9850	3.9850	0.8326	25.88	0.54	0.750			
0.2517	16105.75	3.9820	3.9821	0.8322	25.88	0.54	0.750			
0.2542	16267.03	3.9790	3.9790	0.8293	25.87	0.53	0.750			
0.2566	16425.46	3.9760	3.9761	0.8341	25.86	0.52	0.750			
0.2591	16584.51	3.9730	3.9730	0.8363	25.86	0.52	0.750			
0.2616	16744.03	3.9700	3.9700	0.8406	25.85	0.51	0.750			
0.2642	16906.29	3.9670	3.9671	0.8440	25.85	0.51	0.750			
0.2667	17070.62	3.9640	3.9640	0.8450	25.84	0.50	0.750			
0.2693	17233.35	3.9610	3.9610	0.8527	25.83	0.49	0.750			
0.2718	17397.69	3.9580	3.9580	0.8547	25.83	0.49	0.750			
0.2744	17560.99	3.9550	3.9549	0.8503	25.82	0.48	0.750			
0.2769	17724.17	3.9520	3.9521	0.8542	25.82	0.48	0.750			
0.2795	17888.74	3.9490	3.9490	0.8494	25.81	0.47	0.750			
0.2821	18051.51	3.9460	3.9460	0.8539	25.81	0.47	0.750			
0.2846	18214.65	3.9430	3.9430	0.8500	25.81	0.47	0.750			
0.2872	18378.56	3.9400	3.9400	0.8527	25.80	0.46	0.750			
0.2897	18543.66	3.9370	3.9370	0.8552	25.80	0.46	0.750			
0.2923	18709.34	3.9340	3.9341	0.8516	25.79	0.45	0.750			
0.2949	18871.01	3.9310	3.9310	0.8519	25.79	0.45	0.750			
0.2974	19033.98	3.9280	3.9281	0.8526	25.78	0.44	0.750			
0.3000	19198.00	3.9250	3.9248	0.8518	25.78	0.44	0.750			
0.3025	19361.11	3.9220	3.9220	0.8557	25.77	0.43	0.750			
0.3051	19526.35	3.9190	3.9191	0.8552	25.76	0.42	0.750			
0.3077	19692.03	3.9160	3.9160	0.8589	25.76	0.42	0.750			
0.3102	19855.74	3.9130	3.9130	0.8572	25.75	0.41	0.750			
0.3128	20019.79	3.9100	3.9099	0.8594	25.74	0.40	0.750			
0.3154	20185.19	3.9070	3.9070	0.8602	25.73	0.39	0.750			
0.3180	20350.74	3.9040	3.9040	0.8671	25.72	0.38	0.750			
0.3206	20516.55	3.9010	3.9011	0.8711	25.72	0.38	0.750			
0.3232	20685.65	3.8980	3.8980	0.8772	25.71	0.37	0.750			
0.3258	20853.75	3.8950	3.8950	0.8807	25.70	0.36	0.750			
0.3285	21025.64	3.8920	3.8920	0.8776	25.69	0.35	0.750			
0.3312	21193.90	3.8890	3.8891	0.8805	25.68	0.34	0.750			
0.3338	21362.18	3.8860	3.8860	0.8839	25.67	0.33	0.750			
0.3364	21530.18	3.8830	3.8832	0.8824	25.66	0.32	0.750			
0.3391	21699.93	3.8800	3.8799	0.8881	25.66	0.32	0.750			
0.3417	21871.26	3.8770	3.8770	0.8912	25.65	0.31	0.750			
0.3444	22042.50	3.8740	3.8740	0.8968	25.64	0.30	0.750			
0.3471	22217.37	3.8710	3.8710	0.9082	25.63	0.29	0.750			
0.3498	22390.03	3.8680	3.8679	0.9056	25.62	0.28	0.750			
0.3526	22564.19	3.8650	3.8650	0.9042	25.61	0.27	0.750			
0.3553	22738.82	3.8620	3.8620	0.9091	25.60	0.26	0.750			
0.3580	22913.13	3.8590	3.8591	0.9131	25.58	0.24	0.750			
0.3608	23089.68	3.8560	3.8559	0.9130	25.57	0.23	0.750			
0.3635	23263.82	3.8530	3.8530	0.9117	25.56	0.22	0.750			
0.3663	23440.05	3.8500	3.8500	0.9077	25.55	0.21	0.750			
0.3690	23614.43	3.8470	3.8470	0.9085	25.54	0.20	0.750			
0.3717	23788.72	3.8440	3.8440	0.9071	25.52	0.18	0.750			
0.3744	23961.13	3.8410	3.8410	0.9018	25.51	0.17	0.750			
0.3771	24134.05	3.8380	3.8380	0.9003	25.50	0.16	0.750			
0.3798	24308.02	3.8350	3.8351	0.8960	25.49	0.15	0.750			
0.3825	24479.74	3.8320	3.8320	0.8885	25.47	0.13	0.750			
0.3852	24651.61	3.8290	3.8290	0.8825	25.46	0.12	0.750			
0.3878	24819.29	3.8260	3.8259	0.8696	25.44	0.10	0.750			
0.3904	24984.89	3.8230	3.8230	0.8586	25.43	0.09	0.750			
0.3930	25150.23	3.8200	3.8200	0.8388	25.42	0.08	0.750			
0.3955	25311.63	3.8170	3.8170	0.8162	25.40	0.06	0.750			
0.3979	25467.27	3.8140	3.8140	0.7860	25.39	0.05	0.750			
0.4003	25616.87	3.8110	3.8108	0.7508	25.38	0.04	0.750			
0.4025	25758.51	3.8080	3.8080	0.7125	25.37	0.03	0.750			
0.4045	25891.17	3.8050	3.8050	0.6698	25.37	0.03	0.750			
0.4065	26015.15	3.8020	3.8020	0.6295	25.36	0.02	0.750			
0.4083	26132.61	3.7990	3.7990	0.5924	25.35	0.01	0.750			
0.4100	26241.83	3.7960	3.7960	0.5520	25.35	0.01	0.750			
0.4116	26343.34	3.7930	3.7929	0.5146	25.34	0.00	0.750			
0.4131	26439.03	3.7900	3.7901	0.4810	25.34	-0.00	0.750			
0.4145	26527.10	3.7870	3.7870	0.4480	25.33	-0.01	0.750			
0.4158	26609.67	3.7840	3.7839	0.4163	25.33	-0.01	0.750			
0.4170	26685.70	3.7810	3.7810	0.3874	25.33	-0.01	0.750			
0.4181	26756.98	3.7780	3.7780	0.3587	25.32	-0.02	0.750			
0.4191	26823.67	3.7750	3.7750	0.3333	25.32	-0.02	0.750			
0.4201	26884.66	3.7720	3.7720	0.3067	25.32	-0.02	0.750			
0.4209	26940.45	3.7690	3.7691	0.2811	25.31	-0.03	0.750			
0.4217	26991.86	3.7660	3.7659	0.2564	25.31	-0.03	0.750			
0.4225	27038.74	3.7630	3.7630	0.2325	25.31	-0.03	0.750			
0.4231	27081.20	3.7600	3.7600	0.2070	25.31	-0.03	0.750			
0.4237	27118.94	3.7570	3.7571	0.1831	25.31	-0.03	0.750			
0.4243	27152.57	3.7540	3.7540	0.1576	25.30	-0.04	0.750			
0.4247	27180.33	3.7510	3.7511	0.1300	25.30	-0.04	0.750			
0.4250	27202.66	3.7480	3.7482	0.1010	25.30	-0.04	0.750			
