Ah_balance (normalized)	Ah_balance (mAh)	Voltage - fit (V)	Voltage -  interpolate (V)	dQ/dV (1/V)	Temperature (°C)	Temperature - diff (°C)	Current (C)	R_DC 0ms (mOhm)	R_DC 50ms (mOhm)	R_DC 50 ms PEC (mOhm)
0.2394	15322.22	3.9740	3.9740	0.8631	25.92	0.00	0.750			
0.2420	15489.29	3.9710	3.9711	0.8705	25.92	0.00	0.750			
0.2446	15656.45	3.9680	3.9680	0.8723	25.92	0.00	0.750			
0.2473	15824.64	3.9650	3.9650	0.8726	25.92	0.00	0.750			
0.2499	15992.03	3.9620	3.9620	0.8776	25.92	0.00	0.750			
0.2525	16159.74	3.9590	3.9591	0.8792	25.92	0.00	0.750			
0.2551	16329.57	3.9560	3.9560	0.8798	25.92	0.00	0.750			
0.2578	16499.57	3.9530	3.9530	0.8786	25.93	0.01	0.750			
0.2604	16668.37	3.9500	3.9500	0.8829	25.93	0.01	0.750			
0.2631	16836.76	3.9470	3.9469	0.8830	25.93	0.01	0.750			
0.2657	17006.49	3.9440	3.9439	0.8872	25.94	0.02	0.750			
0.2684	17176.12	3.9410	3.9410	0.8889	25.94	0.02	0.750			
0.2711	17347.98	3.9380	3.9380	0.8924	25.94	0.02	0.750			
0.2738	17520.34	3.9350	3.9350	0.8980	25.94	0.02	0.750			
0.2764	17692.56	3.9320	3.9320	0.9016	25.94	0.02	0.750			
0.2791	17864.94	3.9290	3.9289	0.9031	25.94	0.02	0.750			
0.2819	18040.09	3.9260	3.9260	0.9002	25.94	0.02	0.750			
0.2846	18212.61	3.9230	3.9230	0.9025	25.94	0.02	0.750			
0.2873	18386.39	3.9200	3.9201	0.9059	25.94	0.02	0.750			
0.2900	18559.46	3.9170	3.9170	0.9065	25.94	0.02	0.750			
0.2927	18733.50	3.9140	3.9140	0.9097	25.94	0.02	0.750			
0.2954	18908.43	3.9110	3.9110	0.9129	25.94	0.02	0.750			
0.2982	19084.21	3.9080	3.9081	0.9173	25.94	0.02	0.750			
0.3010	19260.82	3.9050	3.9050	0.9247	25.94	0.02	0.750			
0.3037	19438.52	3.9020	3.9019	0.9238	25.94	0.02	0.750			
0.3065	19616.11	3.8990	3.8990	0.9278	25.94	0.02	0.750			
0.3093	19795.07	3.8960	3.8960	0.9339	25.94	0.02	0.750			
0.3121	19976.33	3.8930	3.8930	0.9367	25.94	0.02	0.750			
0.3149	20156.42	3.8900	3.8899	0.9367	25.94	0.02	0.750			
0.3178	20336.70	3.8870	3.8871	0.9392	25.94	0.02	0.750			
0.3206	20515.74	3.8840	3.8840	0.9393	25.94	0.02	0.750			
0.3234	20696.67	3.8810	3.8810	0.9460	25.94	0.02	0.750			
0.3262	20877.16	3.8780	3.8780	0.9480	25.94	0.02	0.750			
0.3291	21060.10	3.8750	3.8749	0.9516	25.94	0.02	0.750			
0.3320	21245.89	3.8720	3.8720	0.9520	25.94	0.02	0.750			
0.3348	21426.86	3.8690	3.8691	0.9596	25.93	0.01	0.750			
0.3377	21611.19	3.8660	3.8660	0.9639	25.93	0.01	0.750			
0.3406	21796.33	3.8630	3.8629	0.9690	25.92	0.00	0.750			
0.3435	21982.90	3.8600	3.8600	0.9772	25.92	0.00	0.750			
0.3464	22171.34	3.8570	3.8571	0.9869	25.92	0.00	0.750			
0.3494	22362.78	3.8540	3.8540	0.9953	25.92	0.00	0.750			
0.3524	22555.61	3.8510	3.8509	0.9977	25.92	0.00	0.750			
0.3554	22747.15	3.8480	3.8481	1.0049	25.92	-0.00	0.750			
0.3585	22940.81	3.8450	3.8450	1.0146	25.91	-0.01	0.750			
0.3615	23136.25	3.8420	3.8420	1.0203	25.91	-0.01	0.750			
0.3646	23333.10	3.8390	3.8391	1.0275	25.90	-0.02	0.750			
0.3677	23532.08	3.8360	3.8360	1.0313	25.90	-0.02	0.750			
0.3708	23729.81	3.8330	3.8330	1.0411	25.89	-0.03	0.750			
0.3739	23930.76	3.8300	3.8300	1.0489	25.89	-0.03	0.750			
0.3771	24131.23	3.8270	3.8271	1.0605	25.88	-0.04	0.750			
0.3802	24335.51	3.8240	3.8240	1.0711	25.88	-0.04	0.750			
0.3835	24542.96	3.8210	3.8210	1.0829	25.87	-0.05	0.750			
0.3868	24752.45	3.8180	3.8180	1.0952	25.87	-0.05	0.750			
0.3901	24964.62	3.8150	3.8150	1.1058	25.86	-0.06	0.750			
0.3934	25178.10	3.8120	3.8120	1.1114	25.86	-0.06	0.750			
0.3967	25391.11	3.8090	3.8090	1.1245	25.86	-0.06	0.750			
0.4001	25606.18	3.8060	3.8061	1.1403	25.86	-0.06	0.750			
0.4036	25827.58	3.8030	3.8029	1.1523	25.86	-0.06	0.750			
0.4070	26049.31	3.8000	3.8000	1.1696	25.86	-0.06	0.750			
0.4106	26275.85	3.7970	3.7971	1.1857	25.85	-0.07	0.750			
0.4142	26506.53	3.7940	3.7940	1.2048	25.84	-0.08	0.750			
0.4178	26739.76	3.7910	3.7910	1.2143	25.84	-0.08	0.750			
0.4215	26973.00	3.7880	3.7880	1.2319	25.83	-0.09	0.750			
0.4252	27210.43	3.7850	3.7850	1.2451	25.83	-0.09	0.750			
0.4289	27452.25	3.7820	3.7819	1.2619	25.82	-0.10	0.750			
0.4327	27693.28	3.7790	3.7791	1.2784	25.81	-0.11	0.750			
0.4366	27940.44	3.7760	3.7760	1.3031	25.81	-0.11	0.750			
0.4405	28193.31	3.7730	3.7729	1.3212	25.80	-0.12	0.750			
0.4445	28448.44	3.7700	3.7700	1.3413	25.80	-0.12	0.750			
0.4485	28706.57	3.7670	3.7671	1.3658	25.79	-0.13	0.750			
0.4527	28972.44	3.7640	3.7640	1.3977	25.78	-0.14	0.750			
0.4569	29243.58	3.7610	3.7609	1.4235	25.78	-0.14	0.750			
0.4612	29517.29	3.7580	3.7580	1.4501	25.77	-0.15	0.750			
0.4656	29799.36	3.7550	3.7551	1.4769	25.76	-0.16	0.750			
0.4701	30086.26	3.7520	3.7521	1.5096	25.75	-0.17	0.750			
0.4747	30378.55	3.7490	3.7490	1.5365	25.75	-0.17	0.750			
0.4793	30672.42	3.7460	3.7459	1.5681	25.74	-0.18	0.750			
0.4840	30977.15	3.7430	3.7431	1.6048	25.73	-0.19	0.750			
0.4889	31287.58	3.7400	3.7400	1.6470	25.72	-0.20	0.750			
0.4939	31609.43	3.7370	3.7369	1.6796	25.72	-0.20	0.750			
0.4990	31934.25	3.7340	3.7341	1.7150	25.71	-0.21	0.750			
0.5042	32266.52	3.7310	3.7310	1.7641	25.70	-0.22	0.750			
0.5095	32609.86	3.7280	3.7279	1.8081	25.69	-0.23	0.750			
0.5150	32960.33	3.7250	3.7250	1.8535	25.68	-0.24	0.750			
0.5206	33319.09	3.7220	3.7220	1.9042	25.68	-0.24	0.750			
0.5264	33686.98	3.7190	3.7190	1.9605	25.67	-0.25	0.750			
0.5323	34070.09	3.7160	3.7160	2.0214	25.66	-0.26	0.750			
0.5385	34464.00	3.7130	3.7129	2.0570	25.66	-0.26	0.750	0.358	0.488	
0.5448	34867.23	3.7100	3.7100	2.1108	25.64	-0.28	0.750			
0.5512	35278.03	3.7070	3.7070	2.1544	25.63	-0.29	0.750			
0.5577	35693.43	3.7040	3.7039	2.1864	25.62	-0.30	0.750			
0.5643	36112.23	3.7010	3.7010	2.2650	25.61	-0.31	0.750			
0.5711	36553.41	3.6980	3.6980	2.3276	25.59	-0.33	0.750			
0.5782	37006.13	3.6950	3.6951	2.3756	25.58	-0.34	0.750			
0.5855	37474.46	3.6920	3.6919	2.4293	25.57	-0.35	0.750			
0.5929	37945.15	3.6890	3.6889	2.4984	25.56	-0.36	0.750			
0.6004	38426.98	3.6860	3.6861	2.5611	25.55	-0.37	0.750			
0.6082	38925.61	3.6830	3.6831	2.6222	25.55	-0.37	0.750			
0.6162	39436.39	3.6800	3.6800	2.6392	25.54	-0.38	0.750			
0.6242	39949.37	3.6770	3.6770	2.6641	25.53	-0.39	0.750			
0.6322	40462.81	3.6740	3.6738	2.6421	25.52	-0.40	0.750			
0.6403	40976.19	3.6710	3.6710	2.5789	25.52	-0.40	0.750			
0.6480	41470.14	3.6680	3.6679	2.4518	25.53	-0.39	0.750			
0.6550	41919.04	3.6650	3.6650	2.2727	25.53	-0.39	0.750			
0.6616	42340.09	3.6620	3.6619	2.0785	25.53	-0.39	0.750			
0.6675	42719.64	3.6590	3.6591	1.9030	25.53	-0.39	0.750			
0.6729	43065.49	3.6560	3.6558	1.7509	25.54	-0.38	0.750			
0.6778	43378.19	3.6530	3.6530	1.6219	25.55	-0.37	0.750			
0.6823	43665.54	3.6500	3.6501	1.4956	25.55	-0.37	0.750			
0.6866	43942.69	3.6470	3.6470	1.4233	25.56	-0.36	0.750			
0.6908	44208.81	3.6440	3.6439	1.3522	25.56	-0.36	0.750			
0.6947	44460.15	3.6410	3.6411	1.3041	25.56	-0.36	0.750			
0.6985	44705.48	3.6380	3.6380	1.2694	25.57	-0.35	0.750			
0.7022	44943.78	3.6350	3.6350	1.2361	25.58	-0.34	0.750			
0.7059	45175.96	3.6320	3.6320	1.2121	25.58	-0.34	0.750			
0.7094	45404.40	3.6290	3.6291	1.1928	25.59	-0.33	0.750			
0.7130	45630.03	3.6260	3.6260	1.1824	25.59	-0.33	0.750			
0.7165	45857.35	3.6230	3.6229	1.1791	25.60	-0.32	0.750			
0.7200	46080.71	3.6200	3.6200	1.1708	25.60	-0.32	0.750			
0.7235	46305.80	3.6170	3.6170	1.1709	25.61	-0.31	0.750			
0.7270	46530.61	3.6140	3.6140	1.1717	25.61	-0.31	0.750			
0.7306	46755.76	3.6110	3.6110	1.1656	25.61	-0.31	0.750			
0.7340	46978.60	3.6080	3.6080	1.1705	25.62	-0.30	0.750			
0.7376	47203.22	3.6050	3.6050	1.1725	25.62	-0.30	0.750			
0.7411	47428.62	3.6020	3.6019	1.1757	25.63	-0.29	0.750			
0.7446	47652.51	3.5990	3.5990	1.1901	25.63	-0.29	0.750			
0.7481	47880.92	3.5960	3.5961	1.2088	25.64	-0.28	0.750			
0.7518	48113.18	3.5930	3.5931	1.2329	25.64	-0.28	0.750			
0.7555	48350.36	3.5900	3.5900	1.2662	25.64	-0.28	0.750			
0.7593	48595.75	3.5870	3.5870	1.3066	25.65	-0.27	0.750			
0.7633	48851.41	3.5840	3.5840	1.3486	25.65	-0.27	0.750			
0.7674	49114.97	3.5810	3.5810	1.3870	25.66	-0.26	0.750			
0.7716	49384.56	3.5780	3.5780	1.4241	25.67	-0.25	0.750			
0.7760	49663.03	3.5750	3.5751	1.4639	25.68	-0.24	0.750			
0.7804	49947.20	3.5720	3.5720	1.5021	25.68	-0.24	0.750			
0.7850	50237.98	3.5690	3.5689	1.5347	25.68	-0.24	0.750			
0.7896	50537.26	3.5660	3.5660	1.5623	25.68	-0.24	0.750			
0.7944	50842.33	3.5630	3.5630	1.5836	25.68	-0.24	0.750			
0.7993	51154.83	3.5600	3.5600	1.5949	25.69	-0.23	0.750			
0.8041	51461.37	3.5570	3.5569	1.6016	25.70	-0.22	0.750			
0.8089	51770.12	3.5540	3.5540	1.5993	25.70	-0.22	0.750			
0.8137	52079.45	3.5510	3.5510	1.5801	25.71	-0.21	0.750			
0.8185	52381.63	3.5480	3.5480	1.5716	25.71	-0.21	0.750			
0.8232	52684.74	3.5450	3.5451	1.5457	25.73	-0.19	0.750			
0.8279	52984.86	3.5420	3.5419	1.4956	25.74	-0.18	0.750			
0.8325	53277.88	3.5390	3.5389	1.3827	25.75	-0.17	0.750			
0.8367	53546.84	3.5360	3.5361	1.2529	25.76	-0.16	0.750			
0.8404	53786.29	3.5330	3.5331	1.0950	25.77	-0.15	0.750			
0.8434	53978.58	3.5300	3.5300	0.9025	25.78	-0.14	0.750			
0.8456	54120.38	3.5270	3.5270	0.7263	25.79	-0.13	0.750			
0.8474	54235.94	3.5240	3.5238	0.5852	25.80	-0.12	0.750			
0.8487	54319.34	3.5210	3.5209	0.4782	25.81	-0.11	0.750			
0.8500	54398.80	3.5180	3.5179	0.4116	25.82	-0.10	0.750			
0.8510	54467.18	3.5150	3.5150	0.3654	25.82	-0.10	0.750			
0.8521	54531.81	3.5120	3.5120	0.3400	25.83	-0.09	0.750			
0.8530	54593.00	3.5090	3.5089	0.3173	25.83	-0.09	0.750			
0.8539	54650.89	3.5060	3.5060	0.3017	25.84	-0.08	0.750			
0.8548	54706.97	3.5030	3.5030	0.2888	25.84	-0.08	0.750			
0.8556	54761.25	3.5000	3.5000	0.2790	25.85	-0.07	0.750			
0.8565	54813.47	3.4970	3.4970	0.2696	25.86	-0.06	0.750			
0.8572	54863.84	3.4940	3.4940	0.2618	25.86	-0.06	0.750			
0.8580	54913.19	3.4910	3.4910	0.2549	25.87	-0.05	0.750			
0.8588	54961.58	3.4880	3.4880	0.2489	25.87	-0.05	0.750			
0.8595	55008.63	3.4850	3.4851	0.2430	25.87	-0.05	0.750			
0.8602	55055.18	3.4820	3.4820	0.2381	25.88	-0.04	0.750			
0.8609	55100.20	3.4790	3.4790	0.2326	25.88	-0.04	0.750			
0.8616	55144.02	3.4760	3.4760	0.2263	25.89	-0.03	0.750			
0.8623	55186.84	3.4730	3.4730	0.2212	25.89	-0.03	0.750			
0.8630	55228.87	3.4700	3.4700	0.2166	25.90	-0.02	0.750			
0.8636	55270.08	3.4670	3.4670	0.2121	25.90	-0.02	0.750			
0.8642	55310.41	3.4640	3.4639	0.2073	25.90	-0.02	0.750			
0.8648	55349.52	3.4610	3.4610	0.2024	25.91	-0.01	0.750			
0.8654	55387.96	3.4580	3.4580	0.1980	25.91	-0.01	0.750			
0.8660	55425.41	3.4550	3.4550	0.1941	25.92	-0.00	0.750			
0.8666	55462.48	3.4520	3.4520	0.1898	25.92	0.00	0.750			
0.8672	55498.44	3.4490	3.4490	0.1853	25.92	0.00	0.750			
0.8677	55533.67	3.4460	3.4460	0.1807	25.93	0.01	0.750			
0.8683	55568.08	3.4430	3.4431	0.1761	25.93	0.01	0.750			
0.8688	55601.51	3.4400	3.4399	0.1718	25.93	0.01	0.750			
0.8693	55634.01	3.4370	3.4370	0.1668	25.94	0.02	0.750			
0.8698	55665.42	3.4340	3.4341	0.1622	25.94	0.02	0.750			
0.8703	55696.02	3.4310	3.4310	0.1573	25.94	0.02	0.750			
0.8707	55725.97	3.4280	3.4280	0.1530	25.95	0.03	0.750			
0.8712	55754.89	3.4250	3.4250	0.1483	25.95	0.03	0.750			
0.8716	55782.92	3.4220	3.4221	0.1437	25.95	0.03	0.750			
0.8720	55810.04	3.4190	3.4190	0.1392	25.95	0.03	0.750			
0.8724	55836.23	3.4160	3.4160	0.1345	25.96	0.04	0.750			
0.8728	55861.65	3.4130	3.4130	0.1299	25.96	0.04	0.750			
0.8732	55886.11	3.4100	3.4100	0.1254	25.96	0.04	0.750			
0.8736	55909.92	3.4070	3.4070	0.1206	25.96	0.04	0.750			
0.8739	55932.68	3.4040	3.4041	0.1157	25.97	0.05	0.750			
0.8743	55954.33	3.4010	3.4010	0.1110	25.97	0.05	0.750			
0.8746	55975.16	3.3980	3.3981	0.1062	25.97	0.05	0.750			
0.8749	55995.33	3.3950	3.3949	0.1005	25.97	0.05	0.750			
0.8752	56014.09	3.3920	3.3921	0.0949	25.98	0.06	0.750			
0.8755	56032.93	3.3890	3.3890	0.0880	25.98	0.06	0.750			
0.8758	56049.06	3.3860	3.3860	0.0800	25.98	0.06	0.750			
0.8760	56064.39	3.3830	3.3830	0.0735	25.98	0.06	0.750			
0.8762	56077.65	3.3800	3.3801	0.0645	25.98	0.06	0.750			
0.8764	56089.46	3.3770	3.3773	0.0557	25.98	0.06	0.750			
0.8766	56099.24	3.3740	3.3745	0.0463	25.98	0.06	0.750			
0.8767	56107.23	3.3710	3.3720	0.0369	25.98	0.06	0.750			
0.8768	56113.41	3.3680	3.3695	0.0275	25.99	0.07	0.750			
