Ah_balance (normalized)	Ah_balance (mAh)	Voltage - fit (V)	Voltage -  interpolate (V)	dQ/dV (1/V)	Temperature (°C)	Temperature - diff (°C)	Current (C)	R_DC 0ms (mOhm)	R_DC 50ms (mOhm)	R_DC 50 ms PEC (mOhm)
0.2368	15157.13	3.9740	3.9740	0.8487	26.01	0.03	0.750			
0.2394	15321.03	3.9710	3.9709	0.8614	26.01	0.03	0.750			
0.2420	15490.38	3.9680	3.9680	0.8771	26.01	0.03	0.750			
0.2447	15659.85	3.9650	3.9650	0.8819	26.01	0.03	0.750			
0.2474	15831.39	3.9620	3.9620	0.8833	26.01	0.03	0.750			
0.2500	16001.39	3.9590	3.9591	0.8830	26.01	0.03	0.750			
0.2527	16169.82	3.9560	3.9560	0.8824	26.01	0.03	0.750			
0.2553	16339.83	3.9530	3.9530	0.8800	26.01	0.03	0.750			
0.2579	16506.11	3.9500	3.9500	0.8821	26.01	0.03	0.750			
0.2606	16675.40	3.9470	3.9470	0.8905	26.02	0.04	0.750			
0.2632	16847.92	3.9440	3.9440	0.8957	26.02	0.04	0.750			
0.2660	17021.37	3.9410	3.9410	0.8991	26.02	0.04	0.750			
0.2687	17194.52	3.9380	3.9381	0.9005	26.02	0.04	0.750			
0.2714	17367.90	3.9350	3.9351	0.9028	26.02	0.04	0.750			
0.2741	17542.42	3.9320	3.9320	0.9043	26.02	0.04	0.750			
0.2768	17714.51	3.9290	3.9289	0.9049	26.02	0.04	0.750			
0.2795	17888.58	3.9260	3.9260	0.9024	26.02	0.04	0.750			
0.2822	18061.77	3.9230	3.9230	0.9071	26.03	0.05	0.750			
0.2850	18237.27	3.9200	3.9201	0.9105	26.03	0.05	0.750			
0.2877	18410.59	3.9170	3.9170	0.9103	26.04	0.06	0.750			
0.2904	18585.86	3.9140	3.9139	0.9164	26.04	0.06	0.750			
0.2932	18762.18	3.9110	3.9111	0.9172	26.04	0.06	0.750			
0.2959	18938.05	3.9080	3.9080	0.9194	26.03	0.05	0.750			
0.2987	19117.02	3.9050	3.9050	0.9278	26.03	0.05	0.750			
0.3015	19293.92	3.9020	3.9019	0.9295	26.03	0.05	0.750			
0.3043	19472.87	3.8990	3.8990	0.9334	26.03	0.05	0.750			
0.3071	19652.62	3.8960	3.8960	0.9369	26.03	0.05	0.750			
0.3099	19832.99	3.8930	3.8930	0.9438	26.04	0.06	0.750			
0.3127	20014.83	3.8900	3.8900	0.9479	26.04	0.06	0.750			
0.3156	20198.92	3.8870	3.8870	0.9491	26.04	0.06	0.750			
0.3185	20381.02	3.8840	3.8840	0.9498	26.03	0.05	0.750			
0.3213	20563.43	3.8810	3.8810	0.9511	26.03	0.05	0.750			
0.3241	20745.45	3.8780	3.8781	0.9556	26.02	0.04	0.750			
0.3270	20928.60	3.8750	3.8749	0.9567	26.02	0.04	0.750			
0.3299	21111.38	3.8720	3.8720	0.9594	26.02	0.04	0.750			
0.3328	21296.69	3.8690	3.8690	0.9666	26.02	0.04	0.750			
0.3357	21483.66	3.8660	3.8660	0.9742	26.02	0.04	0.750			
0.3386	21672.00	3.8630	3.8629	0.9789	26.02	0.04	0.750			
0.3416	21860.16	3.8600	3.8600	0.9826	26.02	0.04	0.750			
0.3445	22049.17	3.8570	3.8570	0.9900	26.01	0.03	0.750			
0.3475	22240.32	3.8540	3.8540	0.9980	26.01	0.03	0.750			
0.3505	22432.20	3.8510	3.8509	0.9989	26.00	0.02	0.750			
0.3535	22625.55	3.8480	3.8480	1.0017	26.00	0.02	0.750			
0.3565	22816.81	3.8450	3.8451	1.0126	26.00	0.02	0.750			
0.3596	23011.57	3.8420	3.8420	1.0213	26.00	0.02	0.750			
0.3626	23207.54	3.8390	3.8390	1.0267	26.00	0.02	0.750			
0.3657	23407.70	3.8360	3.8360	1.0362	26.00	0.02	0.750			
0.3689	23607.42	3.8330	3.8331	1.0446	25.99	0.01	0.750			
0.3720	23809.47	3.8300	3.8300	1.0542	25.99	0.01	0.750			
0.3752	24011.78	3.8270	3.8270	1.0636	25.98	0.00	0.750			
0.3784	24214.77	3.8240	3.8240	1.0689	25.98	-0.00	0.750			
0.3816	24420.74	3.8210	3.8210	1.0841	25.98	-0.00	0.750			
0.3849	24630.83	3.8180	3.8180	1.0965	25.97	-0.01	0.750			
0.3882	24844.09	3.8150	3.8150	1.1095	25.97	-0.01	0.750			
0.3915	25056.47	3.8120	3.8120	1.1195	25.97	-0.01	0.750			
0.3949	25271.46	3.8090	3.8090	1.1330	25.97	-0.01	0.750			
0.3983	25490.85	3.8060	3.8060	1.1475	25.96	-0.02	0.750			
0.4018	25712.28	3.8030	3.8028	1.1610	25.96	-0.02	0.750			
0.4053	25936.54	3.8000	3.8001	1.1748	25.95	-0.03	0.750			
0.4088	26164.24	3.7970	3.7971	1.1888	25.95	-0.03	0.750			
0.4124	26395.51	3.7940	3.7939	1.2032	25.94	-0.04	0.750			
0.4160	26625.12	3.7910	3.7910	1.2162	25.94	-0.04	0.750			
0.4197	26858.49	3.7880	3.7880	1.2360	25.94	-0.04	0.750			
0.4234	27098.96	3.7850	3.7850	1.2534	25.93	-0.05	0.750			
0.4272	27342.43	3.7820	3.7819	1.2705	25.93	-0.05	0.750			
0.4310	27587.15	3.7790	3.7791	1.2915	25.93	-0.05	0.750			
0.4349	27836.42	3.7760	3.7761	1.3126	25.92	-0.06	0.750			
0.4389	28089.95	3.7730	3.7728	1.3317	25.92	-0.06	0.750			
0.4429	28346.03	3.7700	3.7701	1.3542	25.91	-0.07	0.750			
0.4470	28609.35	3.7670	3.7670	1.3832	25.90	-0.08	0.750			
0.4512	28879.07	3.7640	3.7639	1.4150	25.89	-0.09	0.750			
0.4555	29151.01	3.7610	3.7611	1.4339	25.89	-0.09	0.750			
0.4599	29430.66	3.7580	3.7580	1.4613	25.88	-0.10	0.750			
0.4643	29713.75	3.7550	3.7549	1.4936	25.88	-0.10	0.750			
0.4688	30001.53	3.7520	3.7521	1.5218	25.87	-0.11	0.750			
0.4734	30298.04	3.7490	3.7490	1.5484	25.87	-0.11	0.750			
0.4781	30597.66	3.7460	3.7460	1.5852	25.86	-0.12	0.750			
0.4829	30904.44	3.7430	3.7429	1.6173	25.85	-0.13	0.750			
0.4878	31218.03	3.7400	3.7400	1.6521	25.84	-0.14	0.750			
0.4928	31538.32	3.7370	3.7369	1.6879	25.83	-0.15	0.750			
0.4979	31864.14	3.7340	3.7339	1.7229	25.83	-0.15	0.750			
0.5031	32199.46	3.7310	3.7311	1.7661	25.82	-0.16	0.750			
0.5085	32542.06	3.7280	3.7280	1.8144	25.80	-0.18	0.750			
0.5139	32892.15	3.7250	3.7250	1.8569	25.78	-0.20	0.750			
0.5196	33253.82	3.7220	3.7220	1.8991	25.77	-0.21	0.750			
0.5254	33626.91	3.7190	3.7190	1.9633	25.76	-0.22	0.750			
0.5314	34007.31	3.7160	3.7160	2.0256	25.75	-0.23	0.750			
0.5375	34402.19	3.7130	3.7130	2.0739	25.73	-0.25	0.750	0.361	0.487	
0.5438	34805.58	3.7100	3.7099	2.1291	25.71	-0.27	0.750			
0.5503	35222.22	3.7070	3.7071	2.1834	25.70	-0.28	0.750			
0.5569	35642.23	3.7040	3.7040	2.2101	25.69	-0.29	0.750			
0.5636	36072.93	3.7010	3.7011	2.2905	25.68	-0.30	0.750			
0.5706	36516.25	3.6980	3.6980	2.3569	25.67	-0.31	0.750			
0.5778	36976.59	3.6950	3.6950	2.4050	25.66	-0.32	0.750			
0.5851	37447.27	3.6920	3.6920	2.4821	25.65	-0.33	0.750			
0.5927	37931.42	3.6890	3.6890	2.5245	25.63	-0.35	0.750			
0.6002	38413.56	3.6860	3.6860	2.5537	25.62	-0.36	0.750			
0.6079	38907.95	3.6830	3.6830	2.6250	25.61	-0.37	0.750			
0.6160	39421.13	3.6800	3.6800	2.6796	25.60	-0.38	0.750			
0.6241	39942.85	3.6770	3.6770	2.7022	25.60	-0.38	0.750			
0.6324	40472.94	3.6740	3.6740	2.7076	25.60	-0.38	0.750			
0.6405	40993.17	3.6710	3.6709	2.6257	25.59	-0.39	0.750			
0.6483	41494.17	3.6680	3.6680	2.4917	25.58	-0.40	0.750			
0.6556	41958.95	3.6650	3.6650	2.3278	25.58	-0.40	0.750			
0.6623	42388.85	3.6620	3.6621	2.1293	25.58	-0.40	0.750			
0.6683	42772.98	3.6590	3.6589	1.9641	25.58	-0.40	0.750			
0.6739	43130.67	3.6560	3.6562	1.8059	25.59	-0.39	0.750			
0.6790	43454.00	3.6530	3.6531	1.6635	25.59	-0.39	0.750			
0.6838	43763.60	3.6500	3.6500	1.5614	25.59	-0.39	0.750			
0.6883	44048.27	3.6470	3.6469	1.4673	25.59	-0.39	0.750			
0.6925	44317.72	3.6440	3.6441	1.3993	25.59	-0.39	0.750			
0.6965	44575.00	3.6410	3.6409	1.3329	25.60	-0.38	0.750			
0.7004	44824.95	3.6380	3.6380	1.2849	25.60	-0.38	0.750			
0.7041	45065.27	3.6350	3.6350	1.2462	25.60	-0.38	0.750			
0.7078	45299.94	3.6320	3.6321	1.2190	25.61	-0.37	0.750			
0.7114	45529.47	3.6290	3.6290	1.2017	25.62	-0.36	0.750			
0.7150	45758.57	3.6260	3.6260	1.1875	25.62	-0.36	0.750			
0.7185	45983.56	3.6230	3.6230	1.1830	25.62	-0.36	0.750			
0.7220	46210.00	3.6200	3.6200	1.1795	25.62	-0.36	0.750			
0.7256	46436.42	3.6170	3.6170	1.1783	25.62	-0.36	0.750			
0.7291	46662.16	3.6140	3.6140	1.1735	25.62	-0.36	0.750			
0.7326	46888.68	3.6110	3.6110	1.1733	25.62	-0.36	0.750			
0.7361	47112.59	3.6080	3.6080	1.1764	25.63	-0.35	0.750			
0.7397	47337.81	3.6050	3.6050	1.1750	25.63	-0.35	0.750			
0.7432	47563.49	3.6020	3.6020	1.1827	25.63	-0.35	0.750			
0.7467	47788.93	3.5990	3.5990	1.1980	25.64	-0.34	0.750			
0.7503	48020.44	3.5960	3.5960	1.2115	25.64	-0.34	0.750			
0.7539	48252.00	3.5930	3.5930	1.2475	25.64	-0.34	0.750			
0.7577	48492.90	3.5900	3.5900	1.2780	25.64	-0.34	0.750			
0.7616	48742.54	3.5870	3.5870	1.3075	25.64	-0.34	0.750			
0.7656	48996.77	3.5840	3.5841	1.3518	25.64	-0.34	0.750			
0.7697	49259.33	3.5810	3.5811	1.3886	25.64	-0.34	0.750			
0.7739	49528.96	3.5780	3.5780	1.4245	25.65	-0.33	0.750			
0.7782	49807.58	3.5750	3.5751	1.4637	25.65	-0.33	0.750			
0.7827	50091.53	3.5720	3.5719	1.4844	25.65	-0.33	0.750			
0.7872	50381.32	3.5690	3.5691	1.5283	25.66	-0.32	0.750			
0.7919	50680.17	3.5660	3.5659	1.5507	25.66	-0.32	0.750			
0.7966	50981.65	3.5630	3.5630	1.5706	25.66	-0.32	0.750			
0.8014	51287.24	3.5600	3.5601	1.5858	25.66	-0.32	0.750			
0.8061	51593.30	3.5570	3.5571	1.5921	25.67	-0.31	0.750			
0.8110	51902.07	3.5540	3.5541	1.5910	25.67	-0.31	0.750			
0.8157	52207.54	3.5510	3.5510	1.5931	25.68	-0.30	0.750			
0.8205	52511.21	3.5480	3.5479	1.5833	25.69	-0.29	0.750			
0.8253	52819.46	3.5450	3.5450	1.5616	25.70	-0.28	0.750			
0.8300	53118.75	3.5420	3.5420	1.5113	25.71	-0.27	0.750			
0.8347	53421.79	3.5390	3.5390	1.4152	25.71	-0.27	0.750			
0.8390	53693.89	3.5360	3.5360	1.2733	25.72	-0.26	0.750			
0.8428	53936.82	3.5330	3.5331	1.0990	25.74	-0.24	0.750			
0.8458	54128.84	3.5300	3.5301	0.9056	25.75	-0.23	0.750			
0.8480	54274.18	3.5270	3.5270	0.7391	25.76	-0.22	0.750			
0.8499	54391.37	3.5240	3.5237	0.5932	25.77	-0.21	0.750			
0.8512	54475.89	3.5210	3.5209	0.4836	25.78	-0.20	0.750			
0.8524	54556.05	3.5180	3.5178	0.4163	25.78	-0.20	0.750			
0.8535	54624.69	3.5150	3.5151	0.3720	25.79	-0.19	0.750			
0.8545	54691.12	3.5120	3.5119	0.3421	25.80	-0.18	0.750			
0.8555	54751.51	3.5090	3.5090	0.3194	25.81	-0.17	0.750			
0.8564	54810.39	3.5060	3.5059	0.3038	25.81	-0.17	0.750			
0.8573	54866.43	3.5030	3.5031	0.2908	25.82	-0.16	0.750			
0.8581	54921.36	3.5000	3.4999	0.2801	25.83	-0.15	0.750			
0.8590	54973.82	3.4970	3.4971	0.2701	25.84	-0.14	0.750			
0.8598	55024.36	3.4940	3.4941	0.2613	25.84	-0.14	0.750			
0.8605	55073.21	3.4910	3.4910	0.2541	25.85	-0.13	0.750			
0.8613	55120.97	3.4880	3.4879	0.2476	25.86	-0.12	0.750			
0.8620	55167.19	3.4850	3.4850	0.2410	25.86	-0.12	0.750			
0.8627	55213.07	3.4820	3.4820	0.2365	25.87	-0.11	0.750			
0.8634	55258.07	3.4790	3.4790	0.2319	25.87	-0.11	0.750			
0.8641	55302.39	3.4760	3.4759	0.2272	25.88	-0.10	0.750			
0.8648	55345.50	3.4730	3.4730	0.2221	25.88	-0.10	0.750			
0.8654	55387.60	3.4700	3.4700	0.2172	25.88	-0.10	0.750			
0.8661	55428.92	3.4670	3.4670	0.2121	25.89	-0.09	0.750			
0.8667	55468.91	3.4640	3.4640	0.2078	25.89	-0.09	0.750			
0.8673	55508.38	3.4610	3.4610	0.2034	25.90	-0.08	0.750			
0.8679	55546.91	3.4580	3.4580	0.1985	25.90	-0.08	0.750			
0.8685	55584.59	3.4550	3.4549	0.1940	25.91	-0.07	0.750			
0.8691	55621.41	3.4520	3.4520	0.1898	25.91	-0.07	0.750			
0.8696	55657.44	3.4490	3.4491	0.1855	25.92	-0.06	0.750			
0.8702	55692.72	3.4460	3.4460	0.1806	25.92	-0.06	0.750			
0.8707	55727.15	3.4430	3.4429	0.1759	25.93	-0.05	0.750			
0.8713	55760.27	3.4400	3.4401	0.1704	25.93	-0.05	0.750			
0.8718	55792.51	3.4370	3.4370	0.1655	25.94	-0.04	0.750			
0.8722	55823.88	3.4340	3.4340	0.1616	25.94	-0.04	0.750			
0.8727	55854.23	3.4310	3.4310	0.1573	25.94	-0.04	0.750			
0.8732	55884.01	3.4280	3.4279	0.1525	25.95	-0.03	0.750			
0.8736	55912.90	3.4250	3.4250	0.1485	25.95	-0.03	0.750			
0.8741	55941.18	3.4220	3.4220	0.1442	25.96	-0.02	0.750			
0.8745	55968.66	3.4190	3.4190	0.1396	25.96	-0.02	0.750			
0.8749	55995.18	3.4160	3.4159	0.1349	25.96	-0.02	0.750			
0.8753	56020.46	3.4130	3.4130	0.1301	25.97	-0.01	0.750			
0.8757	56044.76	3.4100	3.4100	0.1249	25.97	-0.01	0.750			
0.8761	56068.23	3.4070	3.4070	0.1202	25.97	-0.01	0.750			
0.8764	56091.11	3.4040	3.4040	0.1155	25.98	-0.00	0.750			
0.8768	56112.80	3.4010	3.4010	0.1104	25.98	0.00	0.750			
0.8771	56133.69	3.3980	3.3980	0.1049	25.98	0.00	0.750			
0.8774	56153.50	3.3950	3.3950	0.0998	25.99	0.01	0.750			
0.8777	56172.08	3.3920	3.3920	0.0938	25.99	0.01	0.750			
0.8780	56190.32	3.3890	3.3888	0.0863	25.99	0.01	0.750			
0.8782	56206.13	3.3860	3.3860	0.0784	25.99	0.01	0.750			
0.8785	56220.96	3.3830	3.3831	0.0714	26.00	0.02	0.750			
0.8787	56233.86	3.3800	3.3803	0.0629	26.00	0.02	0.750			
0.8788	56245.81	3.3770	3.3773	0.0545	26.00	0.02	0.750			
0.8790	56255.37	3.3740	3.3748	0.0451	26.00	0.02	0.750			
0.8791	56263.11	3.3710	3.3723	0.0356	26.00	0.02	0.750			
0.8792	56269.05	3.3680	3.3697	0.0262	26.00	0.02	0.750			
