Ah_balance (normalized)	Ah_balance (mAh)	Voltage - fit (V)	Voltage -  interpolate (V)	dQ/dV (1/V)	Temperature (°C)	Temperature - diff (°C)	Current (C)	R_DC 0ms (mOhm)	R_DC 50ms (mOhm)	R_DC 50 ms PEC (mOhm)
0.2357	15083.97	3.9740	3.9740	0.8551	25.97	-0.01	0.750			
0.2383	15250.23	3.9710	3.9710	0.8719	25.98	-0.00	0.750			
0.2409	15420.50	3.9680	3.9680	0.8804	25.98	0.00	0.750			
0.2436	15590.22	3.9650	3.9650	0.8795	25.99	0.01	0.750			
0.2462	15758.66	3.9620	3.9621	0.8847	25.99	0.01	0.750			
0.2489	15928.70	3.9590	3.9591	0.8863	25.99	0.01	0.750			
0.2515	16098.04	3.9560	3.9559	0.8873	26.00	0.02	0.750			
0.2542	16268.76	3.9530	3.9530	0.8888	26.00	0.02	0.750			
0.2569	16439.51	3.9500	3.9501	0.8899	26.00	0.02	0.750			
0.2595	16610.89	3.9470	3.9470	0.8930	26.01	0.03	0.750			
0.2622	16783.53	3.9440	3.9440	0.8959	26.01	0.03	0.750			
0.2649	16954.58	3.9410	3.9409	0.8961	26.01	0.03	0.750			
0.2676	17127.77	3.9380	3.9380	0.8974	26.01	0.03	0.750			
0.2703	17299.97	3.9350	3.9351	0.9015	26.02	0.04	0.750			
0.2730	17474.03	3.9320	3.9319	0.9045	26.02	0.04	0.750			
0.2757	17647.49	3.9290	3.9290	0.9077	26.03	0.05	0.750			
0.2784	17820.72	3.9260	3.9260	0.9087	26.03	0.05	0.750			
0.2812	17995.75	3.9230	3.9230	0.9119	26.03	0.05	0.750			
0.2839	18172.24	3.9200	3.9200	0.9141	26.04	0.06	0.750			
0.2867	18348.16	3.9170	3.9170	0.9158	26.04	0.06	0.750			
0.2894	18523.49	3.9140	3.9141	0.9169	26.04	0.06	0.750			
0.2922	18701.59	3.9110	3.9109	0.9149	26.04	0.06	0.750			
0.2949	18875.38	3.9080	3.9080	0.9180	26.05	0.07	0.750			
0.2977	19051.04	3.9050	3.9050	0.9225	26.05	0.07	0.750			
0.3004	19227.84	3.9020	3.9020	0.9285	26.06	0.08	0.750			
0.3032	19406.91	3.8990	3.8990	0.9353	26.06	0.08	0.750			
0.3061	19587.68	3.8960	3.8960	0.9351	26.06	0.08	0.750			
0.3089	19768.19	3.8930	3.8930	0.9411	26.06	0.08	0.750			
0.3117	19950.09	3.8900	3.8901	0.9461	26.06	0.08	0.750			
0.3145	20130.91	3.8870	3.8869	0.9465	26.06	0.08	0.750			
0.3174	20313.45	3.8840	3.8840	0.9484	26.06	0.08	0.750			
0.3202	20495.60	3.8810	3.8810	0.9548	26.06	0.08	0.750			
0.3231	20679.61	3.8780	3.8781	0.9595	26.06	0.08	0.750			
0.3260	20863.91	3.8750	3.8750	0.9624	26.06	0.08	0.750			
0.3289	21049.40	3.8720	3.8720	0.9659	26.06	0.08	0.750			
0.3318	21235.45	3.8690	3.8690	0.9713	26.06	0.08	0.750			
0.3347	21422.68	3.8660	3.8660	0.9759	26.06	0.08	0.750			
0.3377	21610.80	3.8630	3.8631	0.9840	26.06	0.08	0.750			
0.3406	21799.16	3.8600	3.8601	0.9865	26.06	0.08	0.750			
0.3436	21989.86	3.8570	3.8569	0.9921	26.06	0.08	0.750			
0.3466	22180.09	3.8540	3.8540	0.9954	26.05	0.07	0.750			
0.3496	22371.30	3.8510	3.8511	1.0032	26.05	0.07	0.750			
0.3526	22564.47	3.8480	3.8479	1.0101	26.05	0.07	0.750			
0.3556	22759.97	3.8450	3.8450	1.0167	26.05	0.07	0.750			
0.3587	22955.75	3.8420	3.8420	1.0210	26.05	0.07	0.750			
0.3618	23152.65	3.8390	3.8390	1.0285	26.06	0.08	0.750			
0.3649	23350.46	3.8360	3.8360	1.0373	26.06	0.08	0.750			
0.3680	23548.82	3.8330	3.8330	1.0461	26.06	0.08	0.750			
0.3711	23749.91	3.8300	3.8300	1.0565	26.05	0.07	0.750			
0.3743	23953.77	3.8270	3.8270	1.0655	26.05	0.07	0.750			
0.3775	24161.13	3.8240	3.8238	1.0720	26.04	0.06	0.750			
0.3808	24368.33	3.8210	3.8211	1.0864	26.04	0.06	0.750			
0.3840	24577.23	3.8180	3.8180	1.0956	26.04	0.06	0.750			
0.3873	24787.63	3.8150	3.8150	1.1066	26.04	0.06	0.750			
0.3906	25000.11	3.8120	3.8120	1.1135	26.04	0.06	0.750			
0.3940	25216.73	3.8090	3.8090	1.1331	26.03	0.05	0.750			
0.3975	25436.87	3.8060	3.8061	1.1487	26.03	0.05	0.750			
0.4009	25658.87	3.8030	3.8029	1.1585	26.02	0.04	0.750			
0.4044	25881.63	3.8000	3.8001	1.1674	26.02	0.04	0.750			
0.4079	26106.63	3.7970	3.7970	1.1828	26.02	0.04	0.750			
0.4115	26333.77	3.7940	3.7940	1.2010	26.01	0.03	0.750			
0.4151	26565.56	3.7910	3.7910	1.2125	26.01	0.03	0.750			
0.4188	26800.74	3.7880	3.7880	1.2345	26.00	0.02	0.750			
0.4225	27040.06	3.7850	3.7850	1.2562	26.00	0.02	0.750			
0.4263	27283.89	3.7820	3.7820	1.2755	25.99	0.01	0.750			
0.4302	27530.41	3.7790	3.7790	1.2957	25.98	0.00	0.750			
0.4341	27780.58	3.7760	3.7760	1.3176	25.97	-0.01	0.750			
0.4381	28036.51	3.7730	3.7730	1.3343	25.96	-0.02	0.750			
0.4421	28295.11	3.7700	3.7700	1.3599	25.96	-0.02	0.750			
0.4462	28555.49	3.7670	3.7671	1.3850	25.95	-0.03	0.750			
0.4504	28824.52	3.7640	3.7640	1.4066	25.94	-0.04	0.750			
0.4546	29095.79	3.7610	3.7610	1.4410	25.93	-0.05	0.750			
0.4590	29374.86	3.7580	3.7580	1.4728	25.92	-0.06	0.750			
0.4635	29661.18	3.7550	3.7549	1.5047	25.90	-0.08	0.750			
0.4681	29957.94	3.7520	3.7520	1.5312	25.89	-0.09	0.750			
0.4727	30252.96	3.7490	3.7490	1.5565	25.88	-0.10	0.750			
0.4774	30553.73	3.7460	3.7460	1.5843	25.87	-0.11	0.750			
0.4822	30860.43	3.7430	3.7429	1.6173	25.86	-0.12	0.750			
0.4870	31168.50	3.7400	3.7401	1.6520	25.85	-0.13	0.750			
0.4920	31488.59	3.7370	3.7370	1.6855	25.85	-0.13	0.750			
0.4971	31814.55	3.7340	3.7340	1.7292	25.83	-0.15	0.750			
0.5024	32155.71	3.7310	3.7307	1.7678	25.82	-0.16	0.750			
0.5078	32496.59	3.7280	3.7280	1.8118	25.81	-0.17	0.750			
0.5133	32848.71	3.7250	3.7250	1.8492	25.79	-0.19	0.750			
0.5188	33204.68	3.7220	3.7219	1.9074	25.78	-0.20	0.750			
0.5246	33571.94	3.7190	3.7191	1.9580	25.77	-0.21	0.750			
0.5306	33959.70	3.7160	3.7159	2.0103	25.76	-0.22	0.750			
0.5368	34353.57	3.7130	3.7129	2.0664	25.75	-0.23	0.750	0.347	0.487	
0.5430	34751.21	3.7100	3.7101	2.1158	25.73	-0.25	0.750			
0.5495	35165.56	3.7070	3.7068	2.1633	25.71	-0.27	0.750			
0.5559	35580.54	3.7040	3.7040	2.2320	25.69	-0.29	0.750			
0.5628	36016.38	3.7010	3.7011	2.2730	25.68	-0.30	0.750			
0.5697	36459.81	3.6980	3.6980	2.3451	25.68	-0.30	0.750			
0.5768	36913.28	3.6950	3.6949	2.4213	25.68	-0.30	0.750			
0.5842	37386.40	3.6920	3.6921	2.5058	25.66	-0.32	0.750			
0.5918	37876.92	3.6890	3.6891	2.5781	25.65	-0.33	0.750			
0.5998	38384.98	3.6860	3.6860	2.6261	25.64	-0.34	0.750			
0.6077	38890.38	3.6830	3.6831	2.6272	25.63	-0.35	0.750			
0.6155	39393.78	3.6800	3.6800	2.6872	25.62	-0.36	0.750			
0.6237	39916.68	3.6770	3.6768	2.7058	25.61	-0.37	0.750			
0.6320	40445.54	3.6740	3.6741	2.7357	25.61	-0.37	0.750			
0.6403	40977.84	3.6710	3.6710	2.6864	25.60	-0.38	0.750			
0.6483	41488.36	3.6680	3.6680	2.5167	25.60	-0.38	0.750			
0.6556	41958.32	3.6650	3.6650	2.3416	25.60	-0.38	0.750			
0.6623	42386.18	3.6620	3.6619	2.1488	25.60	-0.38	0.750			
0.6682	42767.89	3.6590	3.6590	1.9498	25.61	-0.37	0.750			
0.6738	43126.37	3.6560	3.6560	1.8098	25.61	-0.37	0.750			
0.6790	43456.83	3.6530	3.6530	1.6838	25.62	-0.36	0.750			
0.6838	43764.61	3.6500	3.6501	1.5764	25.62	-0.36	0.750			
0.6883	44054.09	3.6470	3.6470	1.4787	25.62	-0.36	0.750			
0.6925	44322.25	3.6440	3.6440	1.4040	25.62	-0.36	0.750			
0.6966	44585.01	3.6410	3.6410	1.3453	25.62	-0.36	0.750			
0.7005	44833.06	3.6380	3.6380	1.2953	25.62	-0.36	0.750			
0.7043	45075.12	3.6350	3.6350	1.2624	25.62	-0.36	0.750			
0.7080	45311.05	3.6320	3.6320	1.2337	25.62	-0.36	0.750			
0.7116	45545.20	3.6290	3.6289	1.2164	25.62	-0.36	0.750			
0.7153	45777.36	3.6260	3.6260	1.1946	25.62	-0.36	0.750			
0.7188	46003.52	3.6230	3.6230	1.1835	25.62	-0.36	0.750			
0.7224	46230.94	3.6200	3.6200	1.1782	25.62	-0.36	0.750			
0.7259	46455.53	3.6170	3.6170	1.1677	25.62	-0.36	0.750			
0.7293	46676.74	3.6140	3.6141	1.1660	25.62	-0.36	0.750			
0.7328	46899.51	3.6110	3.6110	1.1649	25.63	-0.35	0.750			
0.7363	47123.80	3.6080	3.6080	1.1695	25.63	-0.35	0.750			
0.7398	47348.97	3.6050	3.6050	1.1771	25.64	-0.34	0.750			
0.7433	47573.90	3.6020	3.6020	1.1849	25.64	-0.34	0.750			
0.7469	47802.08	3.5990	3.5990	1.1959	25.65	-0.33	0.750			
0.7505	48031.83	3.5960	3.5959	1.2100	25.65	-0.33	0.750			
0.7541	48263.04	3.5930	3.5930	1.2310	25.65	-0.33	0.750			
0.7578	48499.53	3.5900	3.5900	1.2608	25.65	-0.33	0.750			
0.7616	48742.93	3.5870	3.5870	1.2972	25.65	-0.33	0.750			
0.7656	48996.10	3.5840	3.5839	1.3284	25.65	-0.33	0.750			
0.7696	49253.86	3.5810	3.5810	1.3725	25.65	-0.33	0.750			
0.7738	49522.80	3.5780	3.5781	1.4130	25.65	-0.33	0.750			
0.7781	49798.28	3.5750	3.5750	1.4530	25.65	-0.33	0.750			
0.7825	50080.88	3.5720	3.5720	1.4861	25.65	-0.33	0.750			
0.7870	50369.86	3.5690	3.5690	1.5145	25.66	-0.32	0.750			
0.7916	50665.29	3.5660	3.5661	1.5430	25.66	-0.32	0.750			
0.7964	50966.89	3.5630	3.5629	1.5648	25.67	-0.31	0.750			
0.8011	51270.12	3.5600	3.5600	1.5750	25.67	-0.31	0.750			
0.8059	51576.66	3.5570	3.5571	1.5895	25.67	-0.31	0.750			
0.8107	51885.87	3.5540	3.5540	1.5865	25.68	-0.30	0.750			
0.8155	52191.38	3.5510	3.5510	1.5806	25.68	-0.30	0.750			
0.8202	52494.81	3.5480	3.5480	1.5780	25.69	-0.29	0.750			
0.8250	52797.69	3.5450	3.5450	1.5582	25.70	-0.28	0.750			
0.8297	53102.76	3.5420	3.5419	1.5067	25.70	-0.28	0.750			
0.8344	53401.18	3.5390	3.5390	1.4360	25.71	-0.27	0.750			
0.8387	53678.81	3.5360	3.5360	1.2853	25.72	-0.26	0.750			
0.8426	53926.62	3.5330	3.5332	1.1288	25.74	-0.24	0.750			
0.8457	54124.00	3.5300	3.5301	0.9470	25.76	-0.22	0.750			
0.8481	54275.38	3.5270	3.5271	0.7551	25.77	-0.21	0.750			
0.8499	54392.86	3.5240	3.5238	0.5949	25.78	-0.20	0.750			
0.8513	54484.75	3.5210	3.5209	0.4978	25.79	-0.19	0.750			
0.8525	54562.23	3.5180	3.5179	0.4182	25.80	-0.18	0.750			
0.8536	54632.89	3.5150	3.5149	0.3767	25.81	-0.17	0.750			
0.8547	54698.46	3.5120	3.5120	0.3431	25.81	-0.17	0.750			
0.8556	54761.17	3.5090	3.5090	0.3245	25.82	-0.16	0.750			
0.8566	54821.45	3.5060	3.5059	0.3085	25.83	-0.15	0.750			
0.8575	54878.50	3.5030	3.5030	0.2939	25.83	-0.15	0.750			
0.8583	54932.96	3.5000	3.5001	0.2820	25.84	-0.14	0.750			
0.8592	54985.92	3.4970	3.4970	0.2729	25.84	-0.14	0.750			
0.8600	55037.11	3.4940	3.4940	0.2638	25.85	-0.13	0.750			
0.8607	55086.26	3.4910	3.4910	0.2559	25.85	-0.13	0.750			
0.8615	55134.52	3.4880	3.4880	0.2490	25.86	-0.12	0.750			
0.8622	55181.93	3.4850	3.4850	0.2434	25.86	-0.12	0.750			
0.8629	55228.31	3.4820	3.4819	0.2372	25.87	-0.11	0.750			
0.8636	55272.96	3.4790	3.4790	0.2321	25.87	-0.11	0.750			
0.8643	55316.67	3.4760	3.4761	0.2263	25.88	-0.10	0.750			
0.8650	55359.56	3.4730	3.4729	0.2212	25.88	-0.10	0.750			
0.8656	55401.56	3.4700	3.4699	0.2168	25.88	-0.10	0.750			
0.8663	55442.45	3.4670	3.4671	0.2118	25.89	-0.09	0.750			
0.8669	55483.01	3.4640	3.4640	0.2077	25.89	-0.09	0.750			
0.8675	55522.43	3.4610	3.4609	0.2029	25.90	-0.08	0.750			
0.8681	55561.09	3.4580	3.4580	0.1983	25.90	-0.08	0.750			
0.8687	55598.41	3.4550	3.4550	0.1931	25.91	-0.07	0.750			
0.8693	55635.05	3.4520	3.4520	0.1892	25.91	-0.07	0.750			
0.8699	55670.95	3.4490	3.4490	0.1848	25.92	-0.06	0.750			
0.8704	55705.76	3.4460	3.4460	0.1806	25.92	-0.06	0.750			
0.8709	55740.23	3.4430	3.4430	0.1758	25.93	-0.05	0.750			
0.8715	55773.71	3.4400	3.4400	0.1716	25.93	-0.05	0.750			
0.8720	55806.20	3.4370	3.4370	0.1667	25.94	-0.04	0.750			
0.8725	55837.78	3.4340	3.4341	0.1624	25.94	-0.04	0.750			
0.8729	55868.51	3.4310	3.4309	0.1577	25.94	-0.04	0.750			
0.8734	55898.10	3.4280	3.4281	0.1528	25.95	-0.03	0.750			
0.8739	55927.05	3.4250	3.4250	0.1487	25.95	-0.03	0.750			
0.8743	55955.20	3.4220	3.4220	0.1439	25.95	-0.03	0.750			
0.8747	55982.57	3.4190	3.4190	0.1400	25.96	-0.02	0.750			
0.8751	56008.92	3.4160	3.4160	0.1351	25.96	-0.02	0.750			
0.8755	56034.43	3.4130	3.4130	0.1305	25.96	-0.02	0.750			
0.8759	56058.99	3.4100	3.4100	0.1259	25.97	-0.01	0.750			
0.8763	56082.81	3.4070	3.4069	0.1214	25.97	-0.01	0.750			
0.8766	56105.60	3.4040	3.4041	0.1167	25.97	-0.01	0.750			
0.8770	56127.72	3.4010	3.4010	0.1118	25.98	-0.00	0.750			
0.8773	56148.92	3.3980	3.3979	0.1072	25.98	-0.00	0.750			
0.8776	56169.06	3.3950	3.3950	0.1018	25.98	0.00	0.750			
0.8779	56188.15	3.3920	3.3921	0.0966	25.98	0.00	0.750			
0.8782	56207.23	3.3890	3.3888	0.0891	25.99	0.01	0.750			
0.8785	56224.10	3.3860	3.3859	0.0835	25.99	0.01	0.750			
0.8787	56239.37	3.3830	3.3831	0.0756	25.99	0.01	0.750			
0.8790	56253.73	3.3800	3.3801	0.0687	25.99	0.01	0.750			
0.8792	56266.11	3.3770	3.3774	0.0602	25.99	0.01	0.750			
0.8793	56277.79	3.3740	3.3744	0.0517	26.00	0.02	0.750			
0.8795	56286.81	3.3710	3.3717	0.0422	26.00	0.02	0.750			
0.8796	56293.98	3.3680	3.3692	0.0326	26.00	0.02	0.750			
0.8797	56299.31	3.3650	3.3668	0.0230	26.00	0.02	0.750			
