Ah_balance (normalized)	Ah_balance (mAh)	Voltage - fit (V)	Voltage -  interpolate (V)	dQ/dV (1/V)	Temperature (°C)	Temperature - diff (°C)	Current (C)	R_DC 0ms (mOhm)	R_DC 50ms (mOhm)	R_DC 50 ms PEC (mOhm)
0.1991	12740.24	3.9360	3.9360	-0.1344	25.89	0.00	-0.750			
0.1995	12770.67	3.9330	3.9329	-0.1813	25.89	0.00	-0.750			
0.2002	12810.22	3.9300	3.9300	-0.2273	25.89	0.00	-0.750			
0.2009	12858.67	3.9270	3.9270	-0.2716	25.89	-0.00	-0.750			
0.2018	12914.88	3.9240	3.9240	-0.3166	25.89	-0.00	-0.750			
0.2028	12980.30	3.9210	3.9210	-0.3597	25.88	-0.01	-0.750			
0.2040	13054.83	3.9180	3.9180	-0.3989	25.88	-0.01	-0.750			
0.2052	13135.28	3.9150	3.9150	-0.4375	25.88	-0.01	-0.750			
0.2066	13223.36	3.9120	3.9120	-0.4736	25.88	-0.01	-0.750			
0.2081	13318.89	3.9090	3.9090	-0.5066	25.87	-0.02	-0.750			
0.2097	13419.96	3.9060	3.9060	-0.5341	25.87	-0.02	-0.750			
0.2113	13526.11	3.9030	3.9030	-0.5586	25.86	-0.03	-0.750			
0.2131	13636.39	3.9000	3.9001	-0.5817	25.86	-0.03	-0.750			
0.2149	13751.82	3.8970	3.8969	-0.6013	25.86	-0.03	-0.750			
0.2167	13867.96	3.8940	3.8940	-0.6149	25.85	-0.04	-0.750			
0.2186	13988.27	3.8910	3.8910	-0.6276	25.85	-0.04	-0.750			
0.2205	14110.39	3.8880	3.8880	-0.6379	25.85	-0.04	-0.750			
0.2224	14235.55	3.8850	3.8850	-0.6467	25.85	-0.04	-0.750			
0.2244	14359.91	3.8820	3.8820	-0.6540	25.84	-0.05	-0.750			
0.2263	14486.12	3.8790	3.8790	-0.6604	25.84	-0.05	-0.750			
0.2283	14613.93	3.8760	3.8760	-0.6659	25.84	-0.05	-0.750			
0.2304	14742.46	3.8730	3.8730	-0.6710	25.84	-0.05	-0.750			
0.2324	14872.78	3.8700	3.8701	-0.6726	25.84	-0.05	-0.750			
0.2344	15002.43	3.8670	3.8670	-0.6757	25.84	-0.05	-0.750			
0.2364	15131.79	3.8640	3.8640	-0.6782	25.84	-0.05	-0.750			
0.2385	15261.18	3.8610	3.8610	-0.6800	25.84	-0.05	-0.750			
0.2405	15392.50	3.8580	3.8580	-0.6826	25.84	-0.05	-0.750			
0.2426	15524.10	3.8550	3.8550	-0.6861	25.84	-0.05	-0.750			
0.2446	15656.36	3.8520	3.8520	-0.6869	25.85	-0.04	-0.750			
0.2467	15789.04	3.8490	3.8490	-0.6921	25.85	-0.04	-0.750			
0.2488	15921.49	3.8460	3.8460	-0.6916	25.85	-0.04	-0.750			
0.2508	16054.36	3.8430	3.8431	-0.6906	25.85	-0.04	-0.750			
0.2529	16187.25	3.8400	3.8400	-0.6925	25.85	-0.04	-0.750			
0.2550	16320.95	3.8370	3.8371	-0.6939	25.85	-0.04	-0.750			
0.2571	16453.67	3.8340	3.8340	-0.6935	25.84	-0.05	-0.750			
0.2592	16587.27	3.8310	3.8309	-0.6946	25.84	-0.05	-0.750			
0.2613	16720.23	3.8280	3.8280	-0.6923	25.84	-0.05	-0.750			
0.2633	16853.18	3.8250	3.8251	-0.6929	25.84	-0.05	-0.750			
0.2654	16986.41	3.8220	3.8220	-0.6917	25.84	-0.05	-0.750			
0.2675	17118.79	3.8190	3.8190	-0.6906	25.84	-0.05	-0.750			
0.2695	17251.19	3.8160	3.8160	-0.6911	25.84	-0.05	-0.750			
0.2716	17382.85	3.8130	3.8130	-0.6916	25.84	-0.05	-0.750			
0.2737	17516.58	3.8100	3.8100	-0.6919	25.84	-0.05	-0.750			
0.2758	17650.18	3.8070	3.8069	-0.6923	25.84	-0.05	-0.750			
0.2779	17782.71	3.8040	3.8040	-0.6922	25.84	-0.05	-0.750			
0.2799	17915.72	3.8010	3.8011	-0.6928	25.84	-0.05	-0.750			
0.2820	18048.50	3.7980	3.7979	-0.6927	25.84	-0.05	-0.750			
0.2841	18180.91	3.7950	3.7950	-0.6934	25.84	-0.05	-0.750			
0.2862	18314.23	3.7920	3.7920	-0.6955	25.84	-0.05	-0.750			
0.2883	18449.19	3.7890	3.7891	-0.6973	25.84	-0.05	-0.750			
0.2904	18582.56	3.7860	3.7860	-0.6959	25.84	-0.05	-0.750			
0.2924	18714.79	3.7830	3.7831	-0.6967	25.83	-0.06	-0.750			
0.2945	18848.43	3.7800	3.7800	-0.7007	25.83	-0.06	-0.750			
0.2966	18983.79	3.7770	3.7770	-0.7014	25.83	-0.06	-0.750			
0.2987	19117.95	3.7740	3.7740	-0.7049	25.82	-0.07	-0.750			
0.3008	19254.02	3.7710	3.7711	-0.7092	25.82	-0.07	-0.750			
0.3030	19390.92	3.7680	3.7680	-0.7143	25.82	-0.07	-0.750			
0.3051	19527.28	3.7650	3.7650	-0.7172	25.82	-0.07	-0.750			
0.3073	19665.49	3.7620	3.7620	-0.7204	25.81	-0.08	-0.750			
0.3094	19804.09	3.7590	3.7590	-0.7245	25.81	-0.08	-0.750			
0.3116	19944.37	3.7560	3.7560	-0.7298	25.81	-0.08	-0.750			
0.3138	20084.43	3.7530	3.7530	-0.7312	25.81	-0.08	-0.750			
0.3160	20225.26	3.7500	3.7499	-0.7372	25.81	-0.08	-0.750			
0.3182	20366.50	3.7470	3.7470	-0.7419	25.80	-0.09	-0.750			
0.3205	20509.95	3.7440	3.7440	-0.7472	25.80	-0.09	-0.750			
0.3227	20653.97	3.7410	3.7410	-0.7542	25.79	-0.10	-0.750			
0.3250	20798.96	3.7380	3.7381	-0.7603	25.79	-0.10	-0.750			
0.3273	20945.45	3.7350	3.7350	-0.7653	25.79	-0.10	-0.750			
0.3296	21092.74	3.7320	3.7320	-0.7725	25.78	-0.11	-0.750			
0.3319	21240.67	3.7290	3.7290	-0.7794	25.78	-0.11	-0.750			
0.3342	21391.46	3.7260	3.7260	-0.7890	25.77	-0.12	-0.750			
0.3366	21544.11	3.7230	3.7230	-0.7980	25.76	-0.13	-0.750			
0.3390	21698.04	3.7200	3.7200	-0.8048	25.76	-0.13	-0.750			
0.3415	21853.19	3.7170	3.7170	-0.8152	25.76	-0.13	-0.750			
0.3439	22011.04	3.7140	3.7140	-0.8249	25.76	-0.13	-0.750			
0.3464	22168.69	3.7110	3.7110	-0.8356	25.75	-0.14	-0.750			
0.3489	22329.51	3.7080	3.7080	-0.8529	25.75	-0.14	-0.750			
0.3515	22495.22	3.7050	3.7050	-0.8684	25.75	-0.14	-0.750			
0.3541	22663.88	3.7020	3.7020	-0.8873	25.74	-0.15	-0.750			
0.3568	22836.91	3.6990	3.6990	-0.9021	25.74	-0.15	-0.750			
0.3596	23012.02	3.6960	3.6961	-0.9177	25.73	-0.16	-0.750			
0.3623	23190.36	3.6930	3.6930	-0.9316	25.72	-0.17	-0.750			
0.3652	23369.97	3.6900	3.6899	-0.9425	25.72	-0.17	-0.750			
0.3680	23549.96	3.6870	3.6870	-0.9572	25.71	-0.18	-0.750			
0.3709	23734.49	3.6840	3.6841	-0.9796	25.71	-0.18	-0.750			
0.3738	23923.68	3.6810	3.6809	-0.9977	25.70	-0.19	-0.750			
0.3768	24117.99	3.6780	3.6780	-1.0262	25.70	-0.19	-0.750			
0.3800	24317.43	3.6750	3.6750	-1.0478	25.69	-0.20	-0.750			
0.3832	24522.91	3.6720	3.6720	-1.0721	25.69	-0.20	-0.750			
0.3864	24730.11	3.6690	3.6689	-1.0934	25.68	-0.21	-0.750			
0.3897	24941.54	3.6660	3.6660	-1.1189	25.68	-0.21	-0.750			
0.3931	25157.65	3.6630	3.6630	-1.1428	25.66	-0.23	-0.750			
0.3966	25380.55	3.6600	3.6600	-1.1683	25.65	-0.24	-0.750			
0.4001	25606.34	3.6570	3.6570	-1.1933	25.64	-0.25	-0.750			
0.4038	25840.08	3.6540	3.6540	-1.2186	25.64	-0.25	-0.750			
0.4074	26076.51	3.6510	3.6509	-1.2441	25.63	-0.26	-0.750			
0.4112	26314.30	3.6480	3.6480	-1.2784	25.62	-0.27	-0.750			
0.4151	26564.57	3.6450	3.6450	-1.2995	25.61	-0.28	-0.750			
0.4190	26817.69	3.6420	3.6419	-1.3273	25.60	-0.29	-0.750			
0.4230	27074.32	3.6390	3.6390	-1.3596	25.59	-0.30	-0.750			
0.4272	27338.90	3.6360	3.6360	-1.3805	25.58	-0.31	-0.750			
0.4313	27606.11	3.6330	3.6329	-1.4094	25.57	-0.32	-0.750			
0.4356	27877.14	3.6300	3.6300	-1.4363	25.56	-0.33	-0.750			
0.4399	28154.80	3.6270	3.6270	-1.4629	25.56	-0.33	-0.750			
0.4444	28443.03	3.6240	3.6239	-1.4976	25.55	-0.34	-0.750			
0.4489	28731.72	3.6210	3.6210	-1.5324	25.54	-0.35	-0.750			
0.4536	29029.61	3.6180	3.6180	-1.5603	25.54	-0.35	-0.750			
0.4584	29334.75	3.6150	3.6149	-1.6008	25.53	-0.36	-0.750			
0.4631	29641.25	3.6120	3.6122	-1.6304	25.53	-0.36	-0.750			
0.4681	29958.17	3.6090	3.6091	-1.6594	25.53	-0.36	-0.750			
0.4732	30281.82	3.6060	3.6059	-1.6981	25.52	-0.37	-0.750			
0.4783	30610.45	3.6030	3.6029	-1.7290	25.52	-0.37	-0.750			
0.4835	30944.77	3.6000	3.6001	-1.7636	25.51	-0.38	-0.750			
0.4888	31285.83	3.5970	3.5971	-1.7972	25.50	-0.39	-0.750			
0.4943	31634.82	3.5940	3.5940	-1.8257	25.50	-0.39	-0.750			
0.4998	31988.60	3.5910	3.5909	-1.8502	25.50	-0.39	-0.750			
0.5055	32350.87	3.5880	3.5881	-1.8770	25.50	-0.39	-0.750			
0.5111	32713.27	3.5850	3.5850	-1.8958	25.49	-0.40	-0.750			
0.5169	33079.45	3.5820	3.5820	-1.9219	25.49	-0.40	-0.750			
0.5226	33446.98	3.5790	3.5790	-1.9457	25.48	-0.41	-0.750			
0.5285	33823.50	3.5760	3.5760	-1.9771	25.48	-0.41	-0.750			
0.5345	34207.33	3.5730	3.5730	-2.0098	25.47	-0.42	-0.750			
0.5406	34600.60	3.5700	3.5700	-2.0365	25.47	-0.42	-0.750	0.387	0.556	
0.5468	34992.50	3.5670	3.5670	-2.0594	25.48	-0.41	-0.750			
0.5530	35391.32	3.5640	3.5640	-2.0676	25.48	-0.41	-0.750			
0.5592	35787.31	3.5610	3.5610	-2.0927	25.49	-0.40	-0.750			
0.5655	36190.67	3.5580	3.5581	-2.0903	25.50	-0.39	-0.750			
0.5719	36598.64	3.5550	3.5549	-2.1082	25.51	-0.38	-0.750			
0.5782	37003.37	3.5520	3.5521	-2.1005	25.52	-0.37	-0.750			
0.5844	37402.14	3.5490	3.5490	-2.0861	25.53	-0.36	-0.750			
0.5907	37804.02	3.5460	3.5460	-2.0830	25.53	-0.36	-0.750			
0.5968	38198.35	3.5430	3.5430	-2.0803	25.54	-0.35	-0.750			
0.6032	38607.07	3.5400	3.5400	-2.0497	25.55	-0.34	-0.750			
0.6094	39000.00	3.5370	3.5370	-2.0149	25.56	-0.33	-0.750			
0.6153	39380.13	3.5340	3.5342	-1.9797	25.58	-0.31	-0.750			
0.6211	39753.54	3.5310	3.5309	-1.9378	25.59	-0.30	-0.750			
0.6269	40121.16	3.5280	3.5279	-1.9203	25.60	-0.29	-0.750			
0.6326	40485.15	3.5250	3.5251	-1.8888	25.62	-0.27	-0.750			
0.6384	40855.61	3.5220	3.5220	-1.8765	25.63	-0.26	-0.750			
0.6439	41209.62	3.5190	3.5191	-1.8330	25.65	-0.24	-0.750			
0.6493	41557.09	3.5160	3.5160	-1.7875	25.67	-0.22	-0.750			
0.6547	41898.44	3.5130	3.5130	-1.7380	25.68	-0.21	-0.750			
0.6598	42229.15	3.5100	3.5099	-1.6915	25.69	-0.20	-0.750			
0.6648	42547.06	3.5070	3.5070	-1.6390	25.71	-0.18	-0.750			
0.6696	42857.36	3.5040	3.5041	-1.5941	25.72	-0.17	-0.750			
0.6743	43158.27	3.5010	3.5010	-1.5494	25.74	-0.15	-0.750			
0.6789	43448.66	3.4980	3.4980	-1.5024	25.75	-0.14	-0.750			
0.6834	43735.72	3.4950	3.4950	-1.4648	25.76	-0.13	-0.750			
0.6877	44014.86	3.4920	3.4920	-1.4308	25.77	-0.12	-0.750			
0.6920	44286.33	3.4890	3.4890	-1.3840	25.78	-0.11	-0.750			
0.6961	44547.52	3.4860	3.4860	-1.3373	25.79	-0.10	-0.750			
0.7000	44799.14	3.4830	3.4831	-1.2935	25.80	-0.09	-0.750			
0.7038	45042.64	3.4800	3.4799	-1.2553	25.81	-0.08	-0.750			
0.7075	45277.26	3.4770	3.4770	-1.2201	25.82	-0.07	-0.750			
0.7110	45507.13	3.4740	3.4740	-1.1919	25.83	-0.06	-0.750			
0.7146	45731.43	3.4710	3.4711	-1.1666	25.84	-0.05	-0.750			
0.7181	45956.05	3.4680	3.4679	-1.1509	25.86	-0.03	-0.750			
0.7215	46173.73	3.4650	3.4650	-1.1311	25.87	-0.02	-0.750			
0.7248	46387.29	3.4620	3.4620	-1.1141	25.88	-0.01	-0.750			
0.7281	46600.58	3.4590	3.4589	-1.1081	25.88	-0.01	-0.750			
0.7314	46811.15	3.4560	3.4560	-1.0940	25.89	-0.00	-0.750			
0.7347	47020.78	3.4530	3.4529	-1.0882	25.89	0.00	-0.750			
0.7379	47227.42	3.4500	3.4501	-1.0831	25.90	0.01	-0.750			
0.7412	47436.60	3.4470	3.4470	-1.0802	25.91	0.02	-0.750			
0.7444	47643.65	3.4440	3.4440	-1.0734	25.92	0.03	-0.750			
0.7477	47849.71	3.4410	3.4410	-1.0644	25.93	0.04	-0.750			
0.7508	48052.99	3.4380	3.4381	-1.0595	25.94	0.05	-0.750			
0.7540	48257.30	3.4350	3.4349	-1.0529	25.94	0.05	-0.750			
0.7572	48458.20	3.4320	3.4320	-1.0408	25.94	0.05	-0.750			
0.7603	48656.38	3.4290	3.4290	-1.0297	25.94	0.05	-0.750			
0.7634	48854.97	3.4260	3.4261	-1.0213	25.94	0.05	-0.750			
0.7664	49050.09	3.4230	3.4230	-1.0091	25.95	0.06	-0.750			
0.7694	49243.09	3.4200	3.4200	-0.9945	25.96	0.07	-0.750			
0.7724	49432.42	3.4170	3.4169	-0.9740	25.96	0.07	-0.750			
0.7753	49619.05	3.4140	3.4141	-0.9592	25.97	0.08	-0.750			
0.7781	49801.35	3.4110	3.4109	-0.9385	25.97	0.08	-0.750			
0.7809	49978.88	3.4080	3.4080	-0.9180	25.97	0.08	-0.750			
0.7836	50153.45	3.4050	3.4050	-0.8957	25.98	0.09	-0.750			
0.7863	50321.80	3.4020	3.4020	-0.8746	25.98	0.09	-0.750			
0.7889	50490.28	3.3990	3.3990	-0.8543	25.98	0.09	-0.750			
0.7914	50652.60	3.3960	3.3959	-0.8299	25.99	0.10	-0.750			
0.7939	50809.84	3.3930	3.3930	-0.8034	25.99	0.10	-0.750			
0.7963	50962.77	3.3900	3.3901	-0.7734	26.00	0.11	-0.750			
0.7986	51108.58	3.3870	3.3870	-0.7434	26.01	0.12	-0.750			
0.8008	51248.32	3.3840	3.3840	-0.7151	26.01	0.12	-0.750			
0.8028	51381.92	3.3810	3.3810	-0.6808	26.02	0.13	-0.750			
0.8048	51509.90	3.3780	3.3779	-0.6505	26.02	0.13	-0.750			
0.8067	51631.65	3.3750	3.3750	-0.6219	26.02	0.13	-0.750			
0.8086	51748.07	3.3720	3.3721	-0.5931	26.03	0.14	-0.750			
0.8103	51859.36	3.3690	3.3689	-0.5662	26.03	0.14	-0.750			
0.8119	51964.22	3.3660	3.3659	-0.5381	26.04	0.15	-0.750			
0.8135	52064.80	3.3630	3.3631	-0.5130	26.04	0.15	-0.750			
0.8150	52162.05	3.3600	3.3599	-0.4891	26.04	0.15	-0.750			
0.8164	52252.48	3.3570	3.3570	-0.4655	26.05	0.16	-0.750			
0.8178	52338.90	3.3540	3.3540	-0.4420	26.05	0.16	-0.750			
0.8191	52421.74	3.3510	3.3509	-0.4231	26.05	0.16	-0.750			
0.8203	52500.72	3.3480	3.3480	-0.4048	26.05	0.16	-0.750			
0.8215	52575.57	3.3450	3.3450	-0.3884	26.05	0.16	-0.750			
0.8226	52648.74	3.3420	3.3420	-0.3740	26.06	0.17	-0.750			
0.8237	52719.09	3.3390	3.3390	-0.3615	26.06	0.17	-0.750			
0.8248	52786.55	3.3360	3.3360	-0.3485	26.06	0.17	-0.750			
0.8258	52852.34	3.3330	3.3330	-0.3370	26.06	0.17	-0.750			
0.8268	52916.00	3.3300	3.3300	-0.3250	26.07	0.18	-0.750			
0.8278	52977.35	3.3270	3.3270	-0.3130	26.07	0.18	-0.750			
0.8287	53036.20	3.3240	3.3239	-0.3022	26.07	0.18	-0.750			
0.8296	53092.64	3.3210	3.3211	-0.2933	26.08	0.19	-0.750			
0.8304	53147.66	3.3180	3.3180	-0.2844	26.08	0.19	-0.750			
0.8313	53201.24	3.3150	3.3149	-0.2764	26.09	0.20	-0.750			
0.8321	53253.77	3.3120	3.3120	-0.2690	26.09	0.20	-0.750			
0.8329	53304.72	3.3090	3.3090	-0.2622	26.09	0.20	-0.750			
0.8337	53354.22	3.3060	3.3060	-0.2554	26.10	0.21	-0.750			
0.8344	53402.38	3.3030	3.3030	-0.2479	26.10	0.21	-0.750			
0.8351	53448.94	3.3000	3.3000	-0.2422	26.11	0.22	-0.750			
0.8359	53494.71	3.2970	3.2970	-0.2370	26.11	0.22	-0.750			
0.8366	53539.60	3.2940	3.2940	-0.2325	26.11	0.22	-0.750			
0.8373	53584.07	3.2910	3.2910	-0.2276	26.12	0.23	-0.750			
0.8379	53627.23	3.2880	3.2880	-0.2237	26.12	0.23	-0.750			
0.8386	53669.74	3.2850	3.2849	-0.2193	26.12	0.23	-0.750			
0.8392	53711.23	3.2820	3.2821	-0.2153	26.13	0.24	-0.750			
0.8399	53752.27	3.2790	3.2789	-0.2115	26.13	0.24	-0.750			
0.8405	53792.32	3.2760	3.2760	-0.2077	26.13	0.24	-0.750			
0.8411	53831.88	3.2730	3.2731	-0.2044	26.14	0.25	-0.750			
0.8417	53870.69	3.2700	3.2701	-0.2012	26.14	0.25	-0.750			
0.8423	53909.33	3.2670	3.2670	-0.1983	26.14	0.25	-0.750			
0.8429	53946.69	3.2640	3.2640	-0.1943	26.15	0.26	-0.750			
0.8435	53983.71	3.2610	3.2610	-0.1914	26.15	0.26	-0.750			
0.8441	54020.14	3.2580	3.2580	-0.1885	26.15	0.26	-0.750			
0.8446	54055.96	3.2550	3.2550	-0.1862	26.16	0.27	-0.750			
0.8452	54091.41	3.2520	3.2520	-0.1833	26.16	0.27	-0.750			
0.8457	54126.38	3.2490	3.2490	-0.1810	26.16	0.27	-0.750			
0.8463	54160.84	3.2460	3.2460	-0.1788	26.17	0.28	-0.750			
0.8468	54195.06	3.2430	3.2431	-0.1768	26.17	0.28	-0.750			
0.8473	54228.85	3.2400	3.2400	-0.1743	26.17	0.28	-0.750			
0.8478	54262.09	3.2370	3.2369	-0.1719	26.17	0.28	-0.750			
0.8484	54294.67	3.2340	3.2340	-0.1707	26.18	0.29	-0.750			
0.8489	54327.34	3.2310	3.2310	-0.1679	26.18	0.29	-0.750			
0.8494	54359.58	3.2280	3.2279	-0.1662	26.18	0.29	-0.750			
0.8499	54391.19	3.2250	3.2250	-0.1642	26.19	0.30	-0.750			
0.8503	54422.32	3.2220	3.2221	-0.1625	26.19	0.30	-0.750			
0.8508	54453.41	3.2190	3.2189	-0.1607	26.19	0.30	-0.750			
0.8513	54484.10	3.2160	3.2160	-0.1590	26.20	0.31	-0.750			
0.8518	54514.50	3.2130	3.2130	-0.1574	26.20	0.31	-0.750			
0.8523	54544.18	3.2100	3.2101	-0.1556	26.20	0.31	-0.750			
0.8527	54574.43	3.2070	3.2070	-0.1548	26.21	0.32	-0.750			
0.8532	54603.96	3.2040	3.2040	-0.1527	26.21	0.32	-0.750			
0.8536	54632.86	3.2010	3.2009	-0.1515	26.22	0.33	-0.750			
0.8541	54661.69	3.1980	3.1981	-0.1501	26.22	0.33	-0.750			
0.8545	54690.56	3.1950	3.1949	-0.1490	26.22	0.33	-0.750			
0.8550	54719.04	3.1920	3.1920	-0.1476	26.23	0.34	-0.750			
0.8554	54747.27	3.1890	3.1890	-0.1461	26.23	0.34	-0.750			
0.8559	54775.13	3.1860	3.1860	-0.1447	26.23	0.34	-0.750			
0.8563	54802.88	3.1830	3.1830	-0.1438	26.24	0.35	-0.750			
0.8567	54830.33	3.1800	3.1800	-0.1422	26.24	0.35	-0.750			
0.8571	54857.21	3.1770	3.1770	-0.1408	26.24	0.35	-0.750			
0.8576	54884.19	3.1740	3.1739	-0.1397	26.25	0.36	-0.750			
0.8580	54910.98	3.1710	3.1711	-0.1387	26.25	0.36	-0.750			
0.8584	54937.49	3.1680	3.1679	-0.1375	26.26	0.37	-0.750			
0.8588	54963.78	3.1650	3.1650	-0.1365	26.26	0.37	-0.750			
0.8592	54989.82	3.1620	3.1619	-0.1353	26.26	0.37	-0.750			
0.8596	55015.68	3.1590	3.1591	-0.1341	26.27	0.38	-0.750			
0.8600	55041.34	3.1560	3.1559	-0.1331	26.27	0.38	-0.750			
0.8604	55066.80	3.1530	3.1530	-0.1319	26.27	0.38	-0.750			
0.8608	55092.02	3.1500	3.1500	-0.1309	26.28	0.39	-0.750			
0.8612	55117.05	3.1470	3.1470	-0.1298	26.28	0.39	-0.750			
0.8616	55141.85	3.1440	3.1440	-0.1287	26.28	0.39	-0.750			
0.8620	55166.41	3.1410	3.1410	-0.1276	26.29	0.40	-0.750			
0.8624	55190.82	3.1380	3.1380	-0.1266	26.29	0.40	-0.750			
0.8627	55215.02	3.1350	3.1351	-0.1257	26.29	0.40	-0.750			
0.8631	55239.06	3.1320	3.1320	-0.1247	26.29	0.40	-0.750			
0.8635	55262.81	3.1290	3.1291	-0.1243	26.29	0.40	-0.750			
0.8639	55286.45	3.1260	3.1261	-0.1235	26.30	0.41	-0.750			
0.8642	55310.26	3.1230	3.1229	-0.1223	26.30	0.41	-0.750			
0.8646	55333.64	3.1200	3.1200	-0.1218	26.30	0.41	-0.750			
0.8650	55356.95	3.1170	3.1171	-0.1211	26.31	0.42	-0.750			
0.8653	55380.34	3.1140	3.1140	-0.1199	26.31	0.42	-0.750			
0.8657	55403.24	3.1110	3.1109	-0.1186	26.31	0.42	-0.750			
0.8660	55425.87	3.1080	3.1081	-0.1179	26.32	0.43	-0.750			
0.8664	55448.22	3.1050	3.1051	-0.1166	26.32	0.43	-0.750			
0.8667	55470.59	3.1020	3.1020	-0.1158	26.32	0.43	-0.750			
0.8671	55492.86	3.0990	3.0989	-0.1150	26.33	0.44	-0.750			
0.8674	55514.85	3.0960	3.0961	-0.1140	26.33	0.44	-0.750			
0.8678	55536.46	3.0930	3.0930	-0.1129	26.33	0.44	-0.750			
0.8681	55558.00	3.0900	3.0901	-0.1125	26.34	0.45	-0.750			
0.8684	55579.67	3.0870	3.0870	-0.1120	26.34	0.45	-0.750			
0.8688	55601.07	3.0840	3.0839	-0.1115	26.34	0.45	-0.750			
0.8691	55622.19	3.0810	3.0810	-0.1108	26.35	0.46	-0.750			
0.8694	55643.57	3.0780	3.0781	-0.1097	26.35	0.46	-0.750			
0.8698	55664.73	3.0750	3.0750	-0.1092	26.35	0.46	-0.750			
0.8701	55685.59	3.0720	3.0720	-0.1083	26.36	0.47	-0.750			
0.8704	55706.48	3.0690	3.0691	-0.1075	26.36	0.47	-0.750			
0.8707	55726.95	3.0660	3.0659	-0.1067	26.36	0.47	-0.750			
0.8710	55747.20	3.0630	3.0630	-0.1057	26.37	0.48	-0.750			
0.8714	55767.42	3.0600	3.0600	-0.1049	26.37	0.48	-0.750			
0.8717	55787.39	3.0570	3.0570	-0.1041	26.37	0.48	-0.750			
0.8720	55807.29	3.0540	3.0539	-0.1036	26.38	0.49	-0.750			
0.8723	55827.19	3.0510	3.0511	-0.1032	26.38	0.49	-0.750			
0.8726	55846.94	3.0480	3.0480	-0.1026	26.38	0.49	-0.750			
0.8729	55866.52	3.0450	3.0450	-0.1019	26.38	0.49	-0.750			
0.8732	55886.10	3.0420	3.0420	-0.1011	26.39	0.50	-0.750			
0.8735	55905.52	3.0390	3.0391	-0.1005	26.39	0.50	-0.750			
0.8738	55924.73	3.0360	3.0360	-0.0998	26.39	0.50	-0.750			
0.8741	55943.90	3.0330	3.0330	-0.0991	26.40	0.51	-0.750			
0.8744	55962.75	3.0300	3.0300	-0.0986	26.40	0.51	-0.750			
0.8747	55981.48	3.0270	3.0270	-0.0978	26.41	0.52	-0.750			
0.8750	56000.21	3.0240	3.0240	-0.0974	26.41	0.52	-0.750			
0.8753	56018.83	3.0210	3.0210	-0.0966	26.42	0.53	-0.750			
0.8756	56037.34	3.0180	3.0180	-0.0962	26.42	0.53	-0.750			
0.8759	56055.88	3.0150	3.0150	-0.0956	26.42	0.53	-0.750			
0.8762	56074.16	3.0120	3.0120	-0.0948	26.43	0.54	-0.750			
0.8764	56092.40	3.0090	3.0090	-0.0939	26.43	0.54	-0.750			
0.8767	56110.33	3.0060	3.0060	-0.0929	26.44	0.55	-0.750			
0.8770	56128.09	3.0030	3.0030	-0.0925	26.44	0.55	-0.750			
