Ah_balance (normalized)	Ah_balance (mAh)	Voltage - fit (V)	Voltage -  interpolate (V)	dQ/dV (1/V)	Temperature (°C)	Temperature - diff (°C)	Current (C)	R_DC 0ms (mOhm)	R_DC 50ms (mOhm)	R_DC 50 ms PEC (mOhm)
0.0005	33.15	4.1660	4.1660	-0.2345	24.87	0.00	-0.250			
0.0015	94.10	4.1630	4.1630	-0.3676	24.87	-0.00	-0.250			
0.0028	177.38	4.1600	4.1599	-0.4789	24.86	-0.01	-0.250			
0.0044	283.86	4.1570	4.1570	-0.5634	24.85	-0.02	-0.250			
0.0064	407.06	4.1540	4.1540	-0.6347	24.85	-0.02	-0.250			
0.0085	541.76	4.1510	4.1512	-0.6864	24.85	-0.02	-0.250			
0.0106	680.21	4.1480	4.1479	-0.7092	24.85	-0.02	-0.250			
0.0128	819.94	4.1450	4.1450	-0.7275	24.85	-0.02	-0.250			
0.0150	961.14	4.1420	4.1420	-0.7386	24.85	-0.02	-0.250			
0.0172	1103.21	4.1390	4.1389	-0.7501	24.84	-0.03	-0.250			
0.0195	1248.88	4.1360	4.1360	-0.7574	24.84	-0.03	-0.250	0.476	0.622	
0.0218	1395.85	4.1330	4.1330	-0.7665	24.83	-0.04	-0.250			
0.0241	1544.86	4.1300	4.1300	-0.7728	24.83	-0.04	-0.250			
0.0265	1693.44	4.1270	4.1270	-0.7808	24.82	-0.05	-0.250			
0.0288	1843.55	4.1240	4.1241	-0.7864	24.81	-0.06	-0.250			
0.0312	1995.75	4.1210	4.1210	-0.7934	24.80	-0.07	-0.250			
0.0336	2148.07	4.1180	4.1180	-0.7967	24.79	-0.08	-0.250			
0.0360	2302.66	4.1150	4.1150	-0.8013	24.78	-0.09	-0.250			
0.0384	2457.19	4.1120	4.1119	-0.8070	24.77	-0.10	-0.250			
0.0408	2612.84	4.1090	4.1091	-0.8104	24.77	-0.10	-0.250	0.486	0.629	
0.0432	2767.87	4.1060	4.1060	-0.8123	24.77	-0.10	-0.250			
0.0457	2924.37	4.1030	4.1030	-0.8187	24.76	-0.11	-0.250			
0.0482	3082.02	4.1000	4.1000	-0.8215	24.75	-0.12	-0.250			
0.0506	3241.17	4.0970	4.0971	-0.8271	24.74	-0.13	-0.250			
0.0531	3400.81	4.0940	4.0940	-0.8284	24.74	-0.13	-0.250			
0.0556	3560.13	4.0910	4.0910	-0.8318	24.73	-0.14	-0.250			
0.0581	3719.89	4.0880	4.0880	-0.8352	24.72	-0.15	-0.250			
0.0606	3880.14	4.0850	4.0850	-0.8394	24.71	-0.16	-0.250	0.451	0.614	
0.0631	4041.17	4.0820	4.0820	-0.8444	24.69	-0.18	-0.250			
0.0657	4204.02	4.0790	4.0790	-0.8462	24.69	-0.18	-0.250			
0.0683	4368.28	4.0760	4.0760	-0.8474	24.68	-0.19	-0.250			
0.0708	4532.19	4.0730	4.0730	-0.8508	24.67	-0.20	-0.250			
0.0734	4694.51	4.0700	4.0700	-0.8492	24.67	-0.20	-0.250			
0.0759	4857.30	4.0670	4.0669	-0.8517	24.67	-0.20	-0.250			
0.0784	5019.70	4.0640	4.0641	-0.8541	24.66	-0.21	-0.250			
0.0810	5185.08	4.0610	4.0610	-0.8559	24.66	-0.21	-0.250	0.483	0.617	
0.0836	5349.97	4.0580	4.0581	-0.8608	24.65	-0.22	-0.250			
0.0862	5516.70	4.0550	4.0549	-0.8615	24.65	-0.22	-0.250			
0.0888	5682.31	4.0520	4.0520	-0.8638	24.65	-0.22	-0.250			
0.0914	5848.12	4.0490	4.0491	-0.8659	24.65	-0.22	-0.250			
0.0940	6014.10	4.0460	4.0460	-0.8684	24.65	-0.22	-0.250			
0.0966	6179.78	4.0430	4.0430	-0.8697	24.67	-0.20	-0.250			
0.0992	6348.59	4.0400	4.0400	-0.8746	24.66	-0.21	-0.250	0.461	0.598	
0.1018	6517.77	4.0370	4.0369	-0.8793	24.65	-0.22	-0.250			
0.1045	6686.84	4.0340	4.0339	-0.8813	24.67	-0.20	-0.250			
0.1071	6855.04	4.0310	4.0310	-0.8842	24.67	-0.20	-0.250			
0.1098	7025.19	4.0280	4.0281	-0.8865	24.67	-0.20	-0.250			
0.1124	7195.95	4.0250	4.0250	-0.8879	24.66	-0.21	-0.250			
0.1151	7367.02	4.0220	4.0221	-0.8857	24.66	-0.21	-0.250			
0.1178	7538.33	4.0190	4.0189	-0.8879	24.67	-0.20	-0.250			
0.1205	7708.92	4.0160	4.0159	-0.8878	24.67	-0.20	-0.250	0.492	0.612	
0.1231	7877.37	4.0130	4.0129	-0.8901	24.67	-0.20	-0.250			
0.1258	8048.45	4.0100	4.0100	-0.8896	24.67	-0.20	-0.250			
0.1285	8220.85	4.0070	4.0070	-0.8882	24.67	-0.20	-0.250			
0.1311	8392.01	4.0040	4.0042	-0.8898	24.67	-0.20	-0.250			
0.1338	8561.37	4.0010	4.0010	-0.8935	24.67	-0.20	-0.250			
0.1364	8732.18	3.9980	3.9979	-0.8965	24.67	-0.20	-0.250			
0.1391	8905.05	3.9950	3.9950	-0.8988	24.68	-0.19	-0.250	0.466	0.608	
0.1418	9078.21	3.9920	3.9919	-0.9033	24.68	-0.19	-0.250			
0.1446	9253.24	3.9890	3.9891	-0.9041	24.68	-0.19	-0.250			
0.1473	9428.41	3.9860	3.9860	-0.9053	24.69	-0.18	-0.250			
0.1500	9600.49	3.9830	3.9830	-0.9046	24.69	-0.18	-0.250			
0.1527	9772.83	3.9800	3.9800	-0.9105	24.69	-0.18	-0.250			
0.1554	9947.98	3.9770	3.9769	-0.9194	24.70	-0.17	-0.250			
0.1582	10125.43	3.9740	3.9739	-0.9257	24.71	-0.16	-0.250			
0.1610	10305.43	3.9710	3.9711	-0.9330	24.71	-0.16	-0.250	0.472	0.590	
0.1639	10486.75	3.9680	3.9680	-0.9402	24.71	-0.16	-0.250			
0.1667	10667.46	3.9650	3.9650	-0.9330	24.71	-0.16	-0.250			
0.1695	10845.13	3.9620	3.9620	-0.9350	24.71	-0.16	-0.250			
0.1723	11025.72	3.9590	3.9591	-0.9416	24.71	-0.16	-0.250			
0.1751	11206.03	3.9560	3.9560	-0.9419	24.72	-0.15	-0.250			
0.1779	11387.44	3.9530	3.9531	-0.9422	24.73	-0.14	-0.250			
0.1808	11568.08	3.9500	3.9501	-0.9442	24.73	-0.14	-0.250	0.381	0.594	
0.1836	11749.55	3.9470	3.9470	-0.9503	24.73	-0.14	-0.250			
0.1865	11933.51	3.9440	3.9440	-0.9500	24.73	-0.14	-0.250			
0.1893	12114.97	3.9410	3.9410	-0.9461	24.73	-0.14	-0.250			
0.1922	12297.61	3.9380	3.9380	-0.9489	24.71	-0.16	-0.250			
0.1950	12479.08	3.9350	3.9349	-0.9525	24.71	-0.16	-0.250			
0.1978	12661.35	3.9320	3.9320	-0.9559	24.71	-0.16	-0.250			
0.2007	12844.64	3.9290	3.9290	-0.9590	24.72	-0.15	-0.250	0.504	0.614	
0.2036	13028.60	3.9260	3.9260	-0.9642	24.73	-0.14	-0.250			
0.2065	13216.75	3.9230	3.9231	-0.9656	24.73	-0.14	-0.250			
0.2094	13402.58	3.9200	3.9201	-0.9678	24.74	-0.13	-0.250			
0.2123	13588.49	3.9170	3.9170	-0.9671	24.75	-0.12	-0.250			
0.2152	13771.70	3.9140	3.9140	-0.9654	24.76	-0.11	-0.250			
0.2181	13958.78	3.9110	3.9110	-0.9699	24.77	-0.10	-0.250			
0.2210	14143.85	3.9080	3.9080	-0.9730	24.77	-0.10	-0.250	0.451	0.597	
0.2239	14330.99	3.9050	3.9051	-0.9766	24.79	-0.08	-0.250			
0.2269	14520.13	3.9020	3.9019	-0.9804	24.81	-0.06	-0.250			
0.2298	14707.64	3.8990	3.8989	-0.9801	24.82	-0.05	-0.250			
0.2328	14896.16	3.8960	3.8960	-0.9815	24.83	-0.04	-0.250			
0.2357	15085.85	3.8930	3.8930	-0.9847	24.84	-0.03	-0.250			
0.2387	15274.68	3.8900	3.8899	-0.9827	24.85	-0.02	-0.250			
0.2416	15462.50	3.8870	3.8869	-0.9829	24.86	-0.01	-0.250	0.497	0.599	
0.2446	15652.02	3.8840	3.8840	-0.9889	24.88	0.01	-0.250			
0.2475	15842.26	3.8810	3.8810	-0.9940	24.89	0.02	-0.250			
0.2505	16035.03	3.8780	3.8779	-0.9935	24.91	0.04	-0.250			
0.2535	16226.29	3.8750	3.8752	-0.9919	24.92	0.05	-0.250			
0.2565	16417.94	3.8720	3.8721	-0.9920	24.93	0.06	-0.250			
0.2595	16607.50	3.8690	3.8691	-0.9892	24.94	0.07	-0.250	0.457	0.612	
0.2624	16794.96	3.8660	3.8659	-0.9837	24.95	0.08	-0.250			
0.2654	16984.35	3.8630	3.8631	-0.9910	24.96	0.09	-0.250			
0.2684	17175.82	3.8600	3.8600	-0.9951	24.97	0.10	-0.250			
0.2714	17368.52	3.8570	3.8570	-1.0014	24.97	0.10	-0.250			
0.2744	17560.19	3.8540	3.8541	-0.9974	24.98	0.11	-0.250			
0.2774	17751.74	3.8510	3.8510	-1.0007	24.99	0.12	-0.250			
0.2804	17944.20	3.8480	3.8479	-0.9961	25.00	0.13	-0.250	0.469	0.596	
0.2834	18134.43	3.8450	3.8449	-0.9949	25.00	0.13	-0.250			
0.2863	18324.67	3.8420	3.8420	-0.9982	25.00	0.13	-0.250			
0.2893	18515.29	3.8390	3.8390	-1.0015	25.00	0.13	-0.250			
0.2923	18708.31	3.8360	3.8359	-1.0034	25.01	0.14	-0.250			
0.2953	18901.73	3.8330	3.8331	-1.0052	25.01	0.14	-0.250			
0.2984	19095.36	3.8300	3.8300	-1.0061	25.01	0.14	-0.250			
0.3014	19290.87	3.8270	3.8270	-1.0071	25.02	0.15	-0.250	0.419	0.587	
0.3044	19482.49	3.8240	3.8239	-1.0032	25.03	0.16	-0.250			
0.3074	19675.88	3.8210	3.8209	-1.0063	25.03	0.16	-0.250			
0.3105	19868.91	3.8180	3.8180	-1.0013	25.03	0.16	-0.250			
0.3135	20062.26	3.8150	3.8149	-1.0006	25.03	0.16	-0.250			
0.3165	20252.92	3.8120	3.8121	-0.9996	25.04	0.17	-0.250			
0.3194	20443.93	3.8090	3.8090	-1.0008	25.06	0.19	-0.250	0.450	0.602	
0.3225	20637.31	3.8060	3.8060	-1.0022	25.07	0.20	-0.250			
0.3255	20829.70	3.8030	3.8030	-0.9997	25.07	0.20	-0.250			
0.3285	21023.46	3.8000	3.8001	-1.0023	25.07	0.20	-0.250			
0.3315	21216.15	3.7970	3.7970	-0.9986	25.07	0.20	-0.250			
0.3345	21405.36	3.7940	3.7940	-1.0003	25.07	0.20	-0.250			
0.3375	21597.56	3.7910	3.7910	-0.9959	25.08	0.21	-0.250			
0.3405	21789.46	3.7880	3.7881	-0.9964	25.09	0.22	-0.250	0.383	0.583	
0.3435	21982.01	3.7850	3.7851	-0.9915	25.09	0.22	-0.250			
0.3464	22171.36	3.7820	3.7819	-0.9903	25.11	0.24	-0.250			
0.3494	22361.15	3.7790	3.7791	-0.9879	25.11	0.24	-0.250			
0.3523	22550.13	3.7760	3.7758	-0.9808	25.11	0.24	-0.250			
0.3553	22737.20	3.7730	3.7731	-0.9768	25.11	0.24	-0.250			
0.3582	22923.57	3.7700	3.7701	-0.9773	25.11	0.24	-0.250			
0.3611	23113.07	3.7670	3.7670	-0.9771	25.11	0.24	-0.250	0.496	0.609	
0.3640	23298.83	3.7640	3.7640	-0.9739	25.12	0.25	-0.250			
0.3670	23485.88	3.7610	3.7610	-0.9735	25.13	0.26	-0.250			
0.3699	23672.53	3.7580	3.7579	-0.9791	25.13	0.26	-0.250			
0.3728	23859.64	3.7550	3.7549	-0.9891	25.13	0.26	-0.250			
0.3758	24050.83	3.7520	3.7519	-0.9864	25.14	0.27	-0.250			
0.3788	24241.17	3.7490	3.7490	-0.9960	25.15	0.28	-0.250			
0.3818	24434.76	3.7460	3.7460	-1.0002	25.15	0.28	-0.250	0.489	0.596	
0.3848	24625.52	3.7430	3.7429	-1.0088	25.15	0.28	-0.250			
0.3878	24819.82	3.7400	3.7401	-1.0186	25.16	0.29	-0.250			
0.3909	25015.58	3.7370	3.7369	-1.0264	25.16	0.29	-0.250			
0.3940	25214.13	3.7340	3.7342	-1.0389	25.16	0.29	-0.250			
0.3971	25415.66	3.7310	3.7310	-1.0569	25.17	0.30	-0.250			
0.4003	25618.30	3.7280	3.7280	-1.0764	25.17	0.30	-0.250	0.484	0.609	
0.4035	25826.30	3.7250	3.7250	-1.0934	25.16	0.29	-0.250			
0.4069	26038.69	3.7220	3.7220	-1.1168	25.15	0.28	-0.250			
0.4102	26254.95	3.7190	3.7190	-1.1405	25.14	0.27	-0.250			
0.4137	26476.03	3.7160	3.7159	-1.1716	25.13	0.26	-0.250			
0.4172	26702.74	3.7130	3.7129	-1.2008	25.10	0.23	-0.250			
0.4209	26934.57	3.7100	3.7101	-1.2362	25.07	0.20	-0.250	0.411	0.596	
0.4246	27176.01	3.7070	3.7071	-1.2728	25.05	0.18	-0.250			
0.4285	27425.20	3.7040	3.7040	-1.3136	25.02	0.15	-0.250			
0.4325	27681.78	3.7010	3.7010	-1.3428	25.00	0.13	-0.250			
0.4366	27943.98	3.6980	3.6980	-1.3764	24.99	0.12	-0.250			
0.4408	28209.90	3.6950	3.6951	-1.4095	24.98	0.11	-0.250	0.484	0.612	
0.4450	28482.45	3.6920	3.6920	-1.4487	24.96	0.09	-0.250			
0.4494	28761.86	3.6890	3.6890	-1.4917	24.94	0.07	-0.250			
0.4539	29051.23	3.6860	3.6860	-1.5428	24.92	0.05	-0.250			
0.4586	29352.73	3.6830	3.6831	-1.5992	24.91	0.04	-0.250	0.444	0.611	
0.4635	29667.12	3.6800	3.6801	-1.6501	24.87	0.00	-0.250			
0.4686	29989.89	3.6770	3.6770	-1.6981	24.86	-0.01	-0.250			
0.4738	30320.56	3.6740	3.6740	-1.7421	24.83	-0.04	-0.250			
0.4790	30658.34	3.6710	3.6709	-1.7936	24.80	-0.07	-0.250	0.420	0.603	
0.4844	31004.29	3.6680	3.6679	-1.8489	24.78	-0.09	-0.250			
0.4900	31361.79	3.6650	3.6651	-1.9170	24.76	-0.11	-0.250			
0.4959	31737.84	3.6620	3.6619	-1.9883	24.74	-0.13	-0.250			
0.5020	32128.38	3.6590	3.6591	-2.0587	24.73	-0.14	-0.250	0.506	0.605	
0.5083	32532.81	3.6560	3.6560	-2.1253	24.73	-0.14	-0.250			
0.5148	32947.87	3.6530	3.6529	-2.1898	24.74	-0.13	-0.250			
0.5214	33372.32	3.6500	3.6500	-2.2586	24.73	-0.14	-0.250	0.354	0.601	
0.5283	33810.42	3.6470	3.6470	-2.3282	24.73	-0.14	-0.250			
0.5354	34265.21	3.6440	3.6438	-2.4047	24.73	-0.14	-0.250			
0.5427	34732.74	3.6410	3.6409	-2.4854	24.75	-0.12	-0.250	0.472	0.643	
0.5503	35219.50	3.6380	3.6379	-2.5651	24.75	-0.12	-0.250			
0.5581	35721.44	3.6350	3.6349	-2.6406	24.76	-0.11	-0.250	0.466	0.658	
0.5662	36235.95	3.6320	3.6319	-2.7042	24.77	-0.10	-0.250			
0.5744	36762.23	3.6290	3.6291	-2.7808	24.77	-0.10	-0.250			
0.5829	37303.33	3.6260	3.6260	-2.8442	24.79	-0.08	-0.250	0.496	0.646	
0.5915	37854.37	3.6230	3.6230	-2.8852	24.79	-0.08	-0.250			
0.6003	38418.57	3.6200	3.6200	-2.9329	24.81	-0.06	-0.250	0.475	0.628	
0.6092	38985.60	3.6170	3.6170	-2.9462	24.81	-0.06	-0.250			
0.6180	39551.77	3.6140	3.6139	-2.9482	24.81	-0.06	-0.250	0.464	0.656	
0.6268	40117.20	3.6110	3.6110	-2.9591	24.81	-0.06	-0.250			
0.6357	40687.95	3.6080	3.6080	-2.9457	24.78	-0.09	-0.250			
0.6446	41254.98	3.6050	3.6050	-2.9293	24.76	-0.11	-0.250	0.481	0.646	
0.6534	41816.00	3.6020	3.6022	-2.9182	24.74	-0.13	-0.250			
0.6621	42374.74	3.5990	3.5989	-2.8875	24.71	-0.16	-0.250	0.482	0.629	
0.6707	42927.25	3.5960	3.5958	-2.8493	24.67	-0.20	-0.250			
0.6792	43471.15	3.5930	3.5930	-2.8195	24.62	-0.25	-0.250	0.482	0.634	
0.6877	44011.31	3.5900	3.5900	-2.7826	24.58	-0.29	-0.250			
0.6960	44544.42	3.5870	3.5869	-2.7294	24.55	-0.32	-0.250			
0.7041	45061.17	3.5840	3.5839	-2.6649	24.52	-0.35	-0.250	0.400	0.649	
0.7121	45572.17	3.5810	3.5811	-2.5998	24.50	-0.37	-0.250			
0.7197	46063.51	3.5780	3.5779	-2.5324	24.49	-0.38	-0.250	0.414	0.670	
0.7272	46537.80	3.5750	3.5750	-2.4624	24.49	-0.38	-0.250			
0.7345	47006.45	3.5720	3.5720	-2.3990	24.49	-0.38	-0.250			
0.7416	47465.01	3.5690	3.5690	-2.3199	24.50	-0.37	-0.250	0.522	0.683	
0.7485	47905.63	3.5660	3.5661	-2.2300	24.51	-0.36	-0.250			
0.7551	48328.30	3.5630	3.5629	-2.1368	24.52	-0.35	-0.250			
0.7614	48727.65	3.5600	3.5600	-2.0284	24.53	-0.34	-0.250	0.467	0.697	
0.7673	49104.07	3.5570	3.5570	-1.9206	24.55	-0.32	-0.250			
0.7729	49462.88	3.5540	3.5539	-1.8190	24.55	-0.32	-0.250			
0.7782	49802.90	3.5510	3.5510	-1.7334	24.57	-0.30	-0.250	0.499	0.696	
0.7832	50124.91	3.5480	3.5480	-1.6459	24.58	-0.29	-0.250			
0.7879	50428.14	3.5450	3.5450	-1.5788	24.61	-0.26	-0.250			
0.7925	50721.85	3.5420	3.5421	-1.5272	24.61	-0.26	-0.250			
0.7970	51009.09	3.5390	3.5390	-1.4869	24.63	-0.24	-0.250			
0.8015	51293.76	3.5360	3.5360	-1.4437	24.63	-0.24	-0.250	0.503	0.720	
0.8057	51567.76	3.5330	3.5330	-1.3958	24.65	-0.22	-0.250			
0.8099	51834.05	3.5300	3.5301	-1.3522	24.67	-0.20	-0.250			
0.8139	52086.93	3.5270	3.5269	-1.2910	24.67	-0.20	-0.250			
0.8177	52331.19	3.5240	3.5241	-1.2332	24.69	-0.18	-0.250			
0.8213	52561.61	3.5210	3.5211	-1.1783	24.69	-0.18	-0.250	0.492	0.723	
0.8247	52782.82	3.5180	3.5180	-1.1271	24.70	-0.17	-0.250			
0.8280	52992.03	3.5150	3.5150	-1.0756	24.70	-0.17	-0.250			
0.8311	53192.19	3.5120	3.5122	-1.0318	24.71	-0.16	-0.250			
0.8341	53384.97	3.5090	3.5090	-0.9942	24.71	-0.16	-0.250			
0.8371	53571.53	3.5060	3.5060	-0.9666	24.71	-0.16	-0.250			
0.8399	53752.81	3.5030	3.5030	-0.9368	24.71	-0.16	-0.250	0.489	0.724	
0.8427	53931.10	3.5000	3.5000	-0.9253	24.71	-0.16	-0.250			
0.8454	54106.04	3.4970	3.4970	-0.9084	24.71	-0.16	-0.250			
0.8481	54278.71	3.4940	3.4940	-0.8975	24.72	-0.15	-0.250			
0.8508	54450.60	3.4910	3.4911	-0.8852	24.73	-0.14	-0.250			
0.8534	54619.99	3.4880	3.4881	-0.8672	24.73	-0.14	-0.250			
0.8560	54786.82	3.4850	3.4850	-0.8469	24.74	-0.13	-0.250			
0.8585	54944.41	3.4820	3.4821	-0.8319	24.75	-0.12	-0.250			
0.8610	55101.49	3.4790	3.4789	-0.8294	24.77	-0.10	-0.250	0.501	0.734	
0.8634	55255.94	3.4760	3.4759	-0.8465	24.78	-0.09	-0.250			
0.8657	55406.88	3.4730	3.4732	-0.8976	24.79	-0.08	-0.250			
0.8683	55573.04	3.4700	3.4702	-1.0039	24.80	-0.07	-0.250			
0.8713	55765.43	3.4670	3.4670	-1.1446	24.81	-0.06	-0.250			
0.8750	55998.17	3.4640	3.4639	-1.3125	24.82	-0.05	-0.250			
0.8793	56273.30	3.4610	3.4608	-1.4715	24.83	-0.04	-0.250	0.470	0.767	
0.8842	56586.13	3.4580	3.4580	-1.5949	24.85	-0.02	-0.250			
0.8893	56916.33	3.4550	3.4549	-1.6573	24.86	-0.01	-0.250			
0.8945	57249.25	3.4520	3.4520	-1.6482	24.88	0.01	-0.250			
0.8995	57568.38	3.4490	3.4489	-1.6061	24.89	0.02	-0.250	0.491	0.763	
0.9042	57870.32	3.4460	3.4461	-1.5412	24.91	0.04	-0.250			
0.9087	58159.20	3.4430	3.4429	-1.4738	24.91	0.04	-0.250			
0.9131	58436.16	3.4400	3.4400	-1.4072	24.93	0.06	-0.250			
0.9172	58700.32	3.4370	3.4370	-1.3377	24.95	0.08	-0.250			
0.9211	58952.71	3.4340	3.4340	-1.2731	24.95	0.08	-0.250	0.513	0.816	
0.9248	59188.06	3.4310	3.4312	-1.2009	24.96	0.09	-0.250			
0.9283	59412.60	3.4280	3.4280	-1.1365	24.98	0.11	-0.250			
0.9316	59622.64	3.4250	3.4250	-1.0725	24.99	0.12	-0.250			
0.9347	59822.79	3.4220	3.4220	-1.0092	25.00	0.13	-0.250			
0.9377	60011.92	3.4190	3.4189	-0.9471	25.02	0.15	-0.250			
0.9404	60187.00	3.4160	3.4159	-0.8844	25.02	0.15	-0.250	0.483	0.815	
0.9430	60350.09	3.4130	3.4130	-0.8216	25.03	0.16	-0.250			
0.9453	60502.14	3.4100	3.4099	-0.7615	25.04	0.17	-0.250			
0.9475	60641.09	3.4070	3.4070	-0.7023	25.05	0.18	-0.250			
0.9495	60770.16	3.4040	3.4040	-0.6511	25.05	0.18	-0.250			
0.9514	60890.01	3.4010	3.4010	-0.6011	25.05	0.18	-0.250			
0.9531	60998.92	3.3980	3.3981	-0.5530	25.06	0.19	-0.250			
0.9547	61099.46	3.3950	3.3950	-0.5122	25.07	0.20	-0.250			
0.9561	61193.56	3.3920	3.3920	-0.4764	25.08	0.21	-0.250			
0.9575	61281.00	3.3890	3.3889	-0.4398	25.08	0.21	-0.250			
0.9588	61361.71	3.3860	3.3860	-0.4072	25.09	0.22	-0.250			
0.9599	61436.08	3.3830	3.3828	-0.3768	25.09	0.22	-0.250			
0.9610	61504.35	3.3800	3.3801	-0.3518	25.09	0.22	-0.250	0.482	0.830	
0.9620	61568.71	3.3770	3.3769	-0.3285	25.10	0.23	-0.250			
0.9629	61628.04	3.3740	3.3739	-0.3078	25.10	0.23	-0.250			
0.9638	61685.51	3.3710	3.3710	-0.2938	25.10	0.23	-0.250			
0.9647	61740.15	3.3680	3.3681	-0.2793	25.11	0.24	-0.250			
0.9655	61792.09	3.3650	3.3649	-0.2664	25.11	0.24	-0.250			
0.9663	61841.19	3.3620	3.3620	-0.2535	25.12	0.25	-0.250			
0.9670	61888.40	3.3590	3.3590	-0.2437	25.13	0.26	-0.250			
0.9677	61934.15	3.3560	3.3560	-0.2347	25.13	0.26	-0.250			
0.9684	61978.04	3.3530	3.3530	-0.2268	25.13	0.26	-0.250			
0.9691	62020.17	3.3500	3.3500	-0.2203	25.14	0.27	-0.250			
0.9697	62061.78	3.3470	3.3469	-0.2133	25.14	0.27	-0.250			
0.9703	62102.13	3.3440	3.3440	-0.2081	25.14	0.27	-0.250			
0.9710	62141.51	3.3410	3.3410	-0.2027	25.15	0.28	-0.250			
0.9716	62179.87	3.3380	3.3381	-0.1984	25.15	0.28	-0.250			
0.9721	62217.32	3.3350	3.3349	-0.1936	25.15	0.28	-0.250			
0.9727	62253.90	3.3320	3.3319	-0.1898	25.15	0.28	-0.250			
0.9733	62289.75	3.3290	3.3290	-0.1858	25.16	0.29	-0.250			
0.9738	62324.60	3.3260	3.3261	-0.1827	25.16	0.29	-0.250			
0.9744	62359.98	3.3230	3.3230	-0.1801	25.16	0.29	-0.250			
0.9749	62394.18	3.3200	3.3199	-0.1766	25.17	0.30	-0.250			
0.9754	62427.78	3.3170	3.3170	-0.1730	25.17	0.30	-0.250			
0.9759	62460.52	3.3140	3.3141	-0.1703	25.17	0.30	-0.250			
0.9765	62492.88	3.3110	3.3110	-0.1677	25.18	0.31	-0.250			
0.9769	62524.55	3.3080	3.3080	-0.1645	25.18	0.31	-0.250			
0.9774	62556.00	3.3050	3.3049	-0.1619	25.18	0.31	-0.250			
0.9779	62586.73	3.3020	3.3020	-0.1590	25.19	0.32	-0.250			
0.9784	62617.39	3.2990	3.2990	-0.1572	25.19	0.32	-0.250			
0.9789	62646.91	3.2960	3.2961	-0.1566	25.20	0.33	-0.250			
0.9793	62676.84	3.2930	3.2929	-0.1540	25.20	0.33	-0.250			
0.9798	62706.45	3.2900	3.2899	-0.1509	25.21	0.34	-0.250			
0.9802	62735.42	3.2870	3.2868	-0.1488	25.21	0.34	-0.250			
0.9807	62763.71	3.2840	3.2838	-0.1456	25.21	0.34	-0.250	0.486	0.878	
0.9811	62791.59	3.2810	3.2809	-0.1432	25.22	0.35	-0.250			
0.9815	62818.58	3.2780	3.2779	-0.1405	25.22	0.35	-0.250			
0.9820	62845.27	3.2750	3.2749	-0.1375	25.22	0.35	-0.250			
0.9824	62870.42	3.2720	3.2720	-0.1354	25.23	0.36	-0.250			
0.9828	62896.66	3.2690	3.2690	-0.1348	25.23	0.36	-0.250			
0.9832	62922.57	3.2660	3.2660	-0.1332	25.23	0.36	-0.250			
0.9836	62947.97	3.2630	3.2630	-0.1314	25.24	0.37	-0.250			
0.9840	62973.00	3.2600	3.2600	-0.1301	25.24	0.37	-0.250			
0.9843	62997.88	3.2570	3.2571	-0.1286	25.24	0.37	-0.250			
0.9847	63022.55	3.2540	3.2539	-0.1267	25.24	0.37	-0.250			
0.9851	63046.67	3.2510	3.2509	-0.1247	25.25	0.38	-0.250			
0.9855	63070.33	3.2480	3.2481	-0.1227	25.25	0.38	-0.250			
0.9858	63093.75	3.2450	3.2451	-0.1209	25.25	0.38	-0.250			
0.9862	63116.73	3.2420	3.2420	-0.1194	25.25	0.38	-0.250			
0.9866	63139.56	3.2390	3.2390	-0.1177	25.26	0.39	-0.250			
0.9869	63161.97	3.2360	3.2360	-0.1160	25.26	0.39	-0.250			
0.9872	63183.81	3.2330	3.2330	-0.1141	25.26	0.39	-0.250			
0.9876	63205.62	3.2300	3.2300	-0.1127	25.26	0.39	-0.250			
0.9879	63227.26	3.2270	3.2270	-0.1113	25.27	0.40	-0.250			
0.9883	63248.46	3.2240	3.2240	-0.1098	25.27	0.40	-0.250			
0.9886	63269.37	3.2210	3.2209	-0.1083	25.27	0.40	-0.250			
0.9889	63290.00	3.2180	3.2180	-0.1069	25.27	0.40	-0.250			
0.9892	63310.30	3.2150	3.2150	-0.1055	25.28	0.41	-0.250			
0.9895	63330.49	3.2120	3.2120	-0.1041	25.28	0.41	-0.250			
0.9898	63350.34	3.2090	3.2090	-0.1027	25.28	0.41	-0.250			
0.9902	63369.89	3.2060	3.2060	-0.1012	25.28	0.41	-0.250			
0.9905	63389.20	3.2030	3.2030	-0.0998	25.28	0.41	-0.250			
0.9908	63408.17	3.2000	3.2001	-0.0986	25.29	0.42	-0.250			
0.9910	63426.98	3.1970	3.1969	-0.0973	25.29	0.42	-0.250			
0.9913	63445.53	3.1940	3.1940	-0.0960	25.29	0.42	-0.250			
0.9916	63463.83	3.1910	3.1910	-0.0947	25.29	0.42	-0.250			
0.9919	63482.03	3.1880	3.1880	-0.0933	25.30	0.43	-0.250			
0.9922	63499.79	3.1850	3.1851	-0.0917	25.30	0.43	-0.250			
0.9925	63517.23	3.1820	3.1820	-0.0906	25.30	0.43	-0.250			
0.9927	63534.48	3.1790	3.1790	-0.0892	25.30	0.43	-0.250			
0.9930	63551.30	3.1760	3.1760	-0.0879	25.30	0.43	-0.250			
0.9933	63568.10	3.1730	3.1730	-0.0870	25.31	0.44	-0.250			
0.9935	63584.62	3.1700	3.1700	-0.0859	25.31	0.44	-0.250			
0.9938	63601.05	3.1670	3.1670	-0.0852	25.31	0.44	-0.250			
0.9940	63617.48	3.1640	3.1640	-0.0843	25.32	0.45	-0.250			
0.9943	63633.55	3.1610	3.1610	-0.0831	25.32	0.45	-0.250			
0.9945	63649.45	3.1580	3.1581	-0.0820	25.32	0.45	-0.250			
0.9948	63665.07	3.1550	3.1550	-0.0809	25.33	0.46	-0.250			
0.9950	63680.51	3.1520	3.1520	-0.0797	25.33	0.46	-0.250			
0.9952	63695.59	3.1490	3.1490	-0.0787	25.33	0.46	-0.250			
0.9955	63710.59	3.1460	3.1460	-0.0776	25.33	0.46	-0.250			
0.9957	63725.27	3.1430	3.1430	-0.0765	25.34	0.47	-0.250			
0.9959	63739.89	3.1400	3.1400	-0.0755	25.34	0.47	-0.250			
0.9962	63754.30	3.1370	3.1371	-0.0746	25.34	0.47	-0.250			
0.9964	63768.52	3.1340	3.1340	-0.0737	25.35	0.48	-0.250			
0.9966	63782.59	3.1310	3.1311	-0.0729	25.35	0.48	-0.250			
0.9968	63796.51	3.1280	3.1280	-0.0720	25.35	0.48	-0.250			
0.9970	63810.26	3.1250	3.1251	-0.0711	25.35	0.48	-0.250			
0.9972	63823.82	3.1220	3.1219	-0.0702	25.35	0.48	-0.250			
0.9975	63837.19	3.1190	3.1191	-0.0693	25.36	0.49	-0.250			
0.9977	63850.40	3.1160	3.1160	-0.0685	25.36	0.49	-0.250			
0.9979	63863.49	3.1130	3.1130	-0.0677	25.36	0.49	-0.250			
0.9981	63876.40	3.1100	3.1100	-0.0668	25.36	0.49	-0.250			
0.9983	63889.16	3.1070	3.1069	-0.0659	25.36	0.49	-0.250			
0.9985	63901.72	3.1040	3.1041	-0.0650	25.37	0.50	-0.250			
0.9987	63914.06	3.1010	3.1010	-0.0644	25.37	0.50	-0.250			
0.9988	63926.34	3.0980	3.0980	-0.0636	25.37	0.50	-0.250			
0.9990	63938.45	3.0950	3.0949	-0.0629	25.37	0.50	-0.250			
0.9992	63950.47	3.0920	3.0920	-0.0621	25.37	0.50	-0.250			
0.9994	63962.30	3.0890	3.0890	-0.0613	25.38	0.51	-0.250			
0.9996	63974.01	3.0860	3.0860	-0.0607	25.38	0.51	-0.250			
0.9998	63985.59	3.0830	3.0831	-0.0600	25.38	0.51	-0.250			
0.9999	63996.75	3.0800	3.0801	-0.0604	25.38	0.51	-0.250			
1.0001	64008.35	3.0770	3.0771	-0.0605	25.38	0.51	-0.250			
1.0003	64020.48	3.0740	3.0737	-0.0588	25.38	0.51	-0.250			
1.0005	64031.88	3.0710	3.0707	-0.0585	25.39	0.52	-0.250			
1.0007	64043.01	3.0680	3.0677	-0.0574	25.39	0.52	-0.250			
1.0008	64053.94	3.0650	3.0666	-0.0564	25.39	0.52	-0.250	0.494	0.905	
1.0010	64064.89	3.0620	3.0621	-0.0563	25.39	0.52	-0.250			
1.0012	64075.59	3.0590	3.0588	-0.0551	25.39	0.52	-0.250			
1.0013	64086.06	3.0560	3.0558	-0.0540	25.39	0.52	-0.250			
1.0015	64095.47	3.0530	3.0530	-0.0527	25.40	0.53	-0.250			
1.0017	64105.66	3.0500	3.0500	-0.0522	25.40	0.53	-0.250			
1.0018	64115.66	3.0470	3.0471	-0.0519	25.40	0.53	-0.250			
1.0020	64125.60	3.0440	3.0441	-0.0516	25.40	0.53	-0.250			
1.0021	64135.59	3.0410	3.0409	-0.0513	25.40	0.53	-0.250			
1.0023	64145.40	3.0380	3.0380	-0.0508	25.40	0.53	-0.250			
1.0024	64155.12	3.0350	3.0350	-0.0504	25.40	0.53	-0.250			
1.0026	64164.72	3.0320	3.0321	-0.0499	25.41	0.54	-0.250			
1.0027	64174.31	3.0290	3.0290	-0.0494	25.41	0.54	-0.250			
1.0029	64183.74	3.0260	3.0259	-0.0488	25.41	0.54	-0.250			
1.0030	64193.06	3.0230	3.0231	-0.0483	25.41	0.54	-0.250			
1.0032	64202.35	3.0200	3.0199	-0.0479	25.41	0.54	-0.250			
1.0033	64211.48	3.0170	3.0170	-0.0473	25.41	0.54	-0.250			
1.0034	64220.51	3.0140	3.0141	-0.0467	25.41	0.54	-0.250			
1.0036	64229.42	3.0110	3.0110	-0.0461	25.42	0.55	-0.250			
1.0037	64238.22	3.0080	3.0080	-0.0456	25.42	0.55	-0.250			
