Ah_balance (normalized)	Ah_balance (mAh)	Voltage - fit (V)	Voltage -  interpolate (V)	dQ/dV (1/V)	Temperature (°C)	Temperature - diff (°C)	Current (C)	R_DC 0ms (mOhm)	R_DC 50ms (mOhm)	R_DC 50 ms PEC (mOhm)
0.2368	15158.18	3.9740	3.9740	0.8818	25.99	0.01	0.750			
0.2395	15327.77	3.9710	3.9711	0.8836	25.99	0.01	0.750			
0.2422	15498.52	3.9680	3.9680	0.8821	25.99	0.01	0.750			
0.2448	15666.57	3.9650	3.9650	0.8808	25.99	0.01	0.750			
0.2474	15834.61	3.9620	3.9621	0.8819	26.00	0.02	0.750			
0.2501	16004.91	3.9590	3.9589	0.8822	26.00	0.02	0.750			
0.2527	16173.04	3.9560	3.9561	0.8842	26.00	0.02	0.750			
0.2554	16343.74	3.9530	3.9530	0.8856	26.00	0.02	0.750			
0.2580	16513.78	3.9500	3.9500	0.8904	26.01	0.03	0.750			
0.2607	16685.87	3.9470	3.9470	0.8922	26.01	0.03	0.750			
0.2634	16856.40	3.9440	3.9439	0.8921	26.01	0.03	0.750			
0.2661	17028.26	3.9410	3.9410	0.8951	26.01	0.03	0.750			
0.2688	17200.82	3.9380	3.9380	0.8944	26.01	0.03	0.750			
0.2714	17371.03	3.9350	3.9350	0.8987	26.02	0.04	0.750			
0.2741	17543.96	3.9320	3.9320	0.9034	26.02	0.04	0.750			
0.2768	17716.84	3.9290	3.9288	0.9073	26.02	0.04	0.750			
0.2796	17892.82	3.9260	3.9261	0.9093	26.02	0.04	0.750			
0.2823	18067.53	3.9230	3.9230	0.9105	26.03	0.05	0.750			
0.2851	18244.00	3.9200	3.9200	0.9123	26.03	0.05	0.750			
0.2878	18417.45	3.9170	3.9171	0.9093	26.04	0.06	0.750			
0.2905	18591.59	3.9140	3.9139	0.9134	26.04	0.06	0.750			
0.2932	18767.95	3.9110	3.9110	0.9133	26.04	0.06	0.750			
0.2960	18942.96	3.9080	3.9080	0.9183	26.05	0.07	0.750			
0.2988	19120.38	3.9050	3.9051	0.9265	26.05	0.07	0.750			
0.3015	19298.17	3.9020	3.9019	0.9283	26.05	0.07	0.750			
0.3043	19477.62	3.8990	3.8990	0.9286	26.05	0.07	0.750			
0.3071	19655.56	3.8960	3.8960	0.9338	26.05	0.07	0.750			
0.3099	19835.08	3.8930	3.8930	0.9387	26.06	0.08	0.750			
0.3127	20015.40	3.8900	3.8900	0.9440	26.06	0.08	0.750			
0.3156	20197.77	3.8870	3.8870	0.9436	26.06	0.08	0.750			
0.3184	20379.00	3.8840	3.8840	0.9487	26.06	0.08	0.750			
0.3213	20562.25	3.8810	3.8810	0.9539	26.05	0.07	0.750			
0.3242	20745.87	3.8780	3.8781	0.9602	26.05	0.07	0.750			
0.3270	20929.01	3.8750	3.8749	0.9623	26.05	0.07	0.750			
0.3299	21114.73	3.8720	3.8720	0.9639	26.05	0.07	0.750			
0.3328	21300.34	3.8690	3.8690	0.9674	26.05	0.07	0.750			
0.3357	21487.08	3.8660	3.8661	0.9740	26.04	0.06	0.750			
0.3387	21673.65	3.8630	3.8629	0.9779	26.04	0.06	0.750			
0.3416	21862.16	3.8600	3.8600	0.9813	26.04	0.06	0.750			
0.3445	22051.12	3.8570	3.8570	0.9837	26.04	0.06	0.750			
0.3475	22240.20	3.8540	3.8540	0.9904	26.04	0.06	0.750			
0.3505	22430.17	3.8510	3.8510	1.0002	26.04	0.06	0.750			
0.3535	22623.40	3.8480	3.8480	1.0070	26.04	0.06	0.750			
0.3565	22817.13	3.8450	3.8449	1.0137	26.04	0.06	0.750			
0.3596	23012.73	3.8420	3.8421	1.0242	26.04	0.06	0.750			
0.3627	23211.02	3.8390	3.8390	1.0358	26.04	0.06	0.750			
0.3658	23412.10	3.8360	3.8360	1.0360	26.04	0.06	0.750			
0.3689	23609.88	3.8330	3.8330	1.0396	26.04	0.06	0.750			
0.3720	23808.91	3.8300	3.8300	1.0470	26.04	0.06	0.750			
0.3752	24010.81	3.8270	3.8271	1.0617	26.04	0.06	0.750			
0.3784	24216.00	3.8240	3.8239	1.0650	26.04	0.06	0.750			
0.3816	24420.18	3.8210	3.8210	1.0791	26.03	0.05	0.750			
0.3848	24628.99	3.8180	3.8181	1.0948	26.03	0.05	0.750			
0.3882	24842.74	3.8150	3.8149	1.1104	26.02	0.04	0.750			
0.3915	25055.54	3.8120	3.8120	1.1156	26.02	0.04	0.750			
0.3948	25269.62	3.8090	3.8091	1.1268	26.02	0.04	0.750			
0.3982	25486.10	3.8060	3.8061	1.1426	26.02	0.04	0.750			
0.4017	25708.72	3.8030	3.8029	1.1568	26.02	0.04	0.750			
0.4051	25929.45	3.8000	3.8000	1.1694	26.02	0.04	0.750			
0.4087	26155.81	3.7970	3.7970	1.1859	26.01	0.03	0.750			
0.4123	26387.81	3.7940	3.7940	1.1987	26.01	0.03	0.750			
0.4159	26618.54	3.7910	3.7910	1.2154	26.01	0.03	0.750			
0.4195	26851.19	3.7880	3.7881	1.2330	26.00	0.02	0.750			
0.4233	27089.34	3.7850	3.7850	1.2540	26.00	0.02	0.750			
0.4271	27332.36	3.7820	3.7819	1.2740	25.99	0.01	0.750			
0.4309	27578.20	3.7790	3.7791	1.2929	25.99	0.01	0.750			
0.4348	27828.91	3.7760	3.7760	1.3179	25.98	0.00	0.750			
0.4388	28084.21	3.7730	3.7728	1.3399	25.98	0.00	0.750			
0.4428	28341.29	3.7700	3.7701	1.3594	25.98	-0.00	0.750			
0.4469	28604.61	3.7670	3.7670	1.3897	25.97	-0.01	0.750			
0.4512	28875.05	3.7640	3.7639	1.4119	25.97	-0.01	0.750			
0.4554	29147.28	3.7610	3.7611	1.4319	25.97	-0.01	0.750			
0.4598	29426.67	3.7580	3.7580	1.4573	25.96	-0.02	0.750			
0.4642	29708.78	3.7550	3.7548	1.4814	25.96	-0.02	0.750			
0.4687	29994.74	3.7520	3.7521	1.5044	25.95	-0.03	0.750			
0.4732	30286.15	3.7490	3.7490	1.5351	25.95	-0.03	0.750			
0.4779	30583.44	3.7460	3.7460	1.5716	25.94	-0.04	0.750			
0.4826	30888.35	3.7430	3.7431	1.6054	25.93	-0.05	0.750			
0.4875	31202.68	3.7400	3.7399	1.6474	25.92	-0.06	0.750			
0.4925	31523.12	3.7370	3.7372	1.6843	25.91	-0.07	0.750			
0.4976	31849.26	3.7340	3.7341	1.7251	25.91	-0.07	0.750			
0.5029	32183.73	3.7310	3.7310	1.7654	25.90	-0.08	0.750			
0.5082	32527.29	3.7280	3.7278	1.8064	25.89	-0.09	0.750			
0.5137	32877.49	3.7250	3.7251	1.8568	25.89	-0.09	0.750			
0.5194	33238.62	3.7220	3.7220	1.8993	25.88	-0.10	0.750			
0.5251	33608.36	3.7190	3.7190	1.9603	25.86	-0.12	0.750			
0.5310	33985.19	3.7160	3.7161	2.0023	25.85	-0.13	0.750			
0.5371	34375.86	3.7130	3.7128	2.0485	25.84	-0.14	0.749	0.354	0.485	
0.5433	34772.49	3.7100	3.7101	2.1260	25.83	-0.15	0.750			
0.5498	35187.54	3.7070	3.7070	2.1825	25.82	-0.16	0.750			
0.5564	35611.81	3.7040	3.7040	2.2301	25.81	-0.17	0.750			
0.5633	36049.32	3.7010	3.7009	2.3028	25.80	-0.18	0.750			
0.5703	36496.56	3.6980	3.6980	2.3524	25.79	-0.19	0.750			
0.5773	36946.97	3.6950	3.6950	2.3939	25.78	-0.20	0.750			
0.5846	37414.90	3.6920	3.6920	2.4590	25.77	-0.21	0.750			
0.5921	37896.83	3.6890	3.6889	2.5226	25.76	-0.22	0.750			
0.5998	38384.56	3.6860	3.6861	2.5918	25.75	-0.23	0.750			
0.6076	38886.59	3.6830	3.6831	2.6228	25.74	-0.24	0.750			
0.6155	39389.53	3.6800	3.6801	2.6730	25.72	-0.26	0.750			
0.6237	39914.32	3.6770	3.6770	2.7118	25.72	-0.26	0.750			
0.6320	40446.23	3.6740	3.6739	2.7153	25.71	-0.27	0.750			
0.6403	40976.59	3.6710	3.6709	2.6604	25.70	-0.28	0.750			
0.6481	41476.64	3.6680	3.6679	2.5135	25.69	-0.29	0.750			
0.6553	41942.36	3.6650	3.6650	2.3240	25.68	-0.30	0.750			
0.6621	42374.76	3.6620	3.6620	2.1429	25.68	-0.30	0.750			
0.6682	42765.95	3.6590	3.6590	1.9714	25.68	-0.30	0.750			
0.6738	43120.96	3.6560	3.6560	1.8084	25.68	-0.30	0.750			
0.6789	43451.50	3.6530	3.6530	1.6762	25.68	-0.30	0.750			
0.6836	43753.59	3.6500	3.6500	1.5611	25.69	-0.29	0.750			
0.6881	44038.28	3.6470	3.6469	1.4652	25.69	-0.29	0.750			
0.6923	44306.31	3.6440	3.6440	1.3942	25.69	-0.29	0.750			
0.6963	44563.70	3.6410	3.6410	1.3318	25.69	-0.29	0.750			
0.7002	44812.55	3.6380	3.6380	1.2887	25.69	-0.29	0.750			
0.7040	45054.25	3.6350	3.6350	1.2600	25.69	-0.29	0.750			
0.7076	45289.10	3.6320	3.6320	1.2288	25.69	-0.29	0.750			
0.7113	45522.55	3.6290	3.6290	1.2164	25.70	-0.28	0.750			
0.7149	45753.76	3.6260	3.6261	1.1997	25.70	-0.28	0.750			
0.7185	45981.81	3.6230	3.6230	1.1908	25.70	-0.28	0.750			
0.7220	46209.31	3.6200	3.6200	1.1821	25.70	-0.28	0.750			
0.7256	46435.94	3.6170	3.6170	1.1722	25.70	-0.28	0.750			
0.7291	46659.44	3.6140	3.6140	1.1671	25.70	-0.28	0.750			
0.7325	46883.14	3.6110	3.6111	1.1654	25.71	-0.27	0.750			
0.7360	47103.93	3.6080	3.6080	1.1649	25.72	-0.26	0.750			
0.7395	47328.27	3.6050	3.6049	1.1679	25.72	-0.26	0.750			
0.7430	47551.30	3.6020	3.6020	1.1809	25.72	-0.26	0.750			
0.7465	47778.35	3.5990	3.5991	1.1954	25.71	-0.27	0.750			
0.7502	48010.25	3.5960	3.5959	1.2106	25.71	-0.27	0.750			
0.7538	48241.65	3.5930	3.5930	1.2393	25.71	-0.27	0.750			
0.7575	48478.62	3.5900	3.5901	1.2725	25.71	-0.27	0.750			
0.7613	48725.25	3.5870	3.5871	1.3140	25.72	-0.26	0.750			
0.7654	48983.98	3.5840	3.5841	1.3522	25.72	-0.26	0.750			
0.7695	49246.29	3.5810	3.5810	1.3940	25.72	-0.26	0.750			
0.7738	49522.43	3.5780	3.5780	1.4273	25.72	-0.26	0.750			
0.7782	49801.77	3.5750	3.5751	1.4621	25.72	-0.26	0.750			
0.7826	50083.72	3.5720	3.5720	1.4939	25.72	-0.26	0.750			
0.7871	50375.08	3.5690	3.5690	1.5190	25.72	-0.26	0.750			
0.7917	50667.72	3.5660	3.5661	1.5483	25.72	-0.26	0.750			
0.7964	50970.81	3.5630	3.5629	1.5791	25.72	-0.26	0.750			
0.8012	51274.33	3.5600	3.5599	1.5878	25.72	-0.26	0.750			
0.8060	51582.97	3.5570	3.5570	1.5968	25.72	-0.26	0.750			
0.8109	51895.09	3.5540	3.5540	1.6032	25.73	-0.25	0.750			
0.8157	52203.88	3.5510	3.5510	1.5980	25.73	-0.25	0.750			
0.8205	52513.94	3.5480	3.5480	1.5908	25.74	-0.24	0.750			
0.8253	52818.38	3.5450	3.5450	1.5655	25.74	-0.24	0.750			
0.8302	53129.79	3.5420	3.5419	1.5105	25.75	-0.23	0.750			
0.8348	53424.68	3.5390	3.5389	1.4198	25.75	-0.23	0.750			
0.8391	53702.71	3.5360	3.5359	1.2816	25.76	-0.22	0.750			
0.8428	53939.77	3.5330	3.5332	1.1062	25.77	-0.21	0.750			
0.8458	54134.13	3.5300	3.5301	0.9209	25.79	-0.19	0.750			
0.8482	54286.56	3.5270	3.5270	0.7377	25.80	-0.18	0.750			
0.8499	54392.99	3.5240	3.5240	0.5855	25.80	-0.18	0.750			
0.8514	54488.13	3.5210	3.5208	0.4851	25.81	-0.17	0.750			
0.8525	54562.76	3.5180	3.5179	0.4130	25.82	-0.16	0.750			
0.8537	54633.86	3.5150	3.5150	0.3689	25.82	-0.16	0.750			
0.8547	54698.35	3.5120	3.5120	0.3404	25.83	-0.15	0.750			
0.8556	54760.35	3.5090	3.5090	0.3194	25.84	-0.14	0.750			
0.8565	54818.35	3.5060	3.5060	0.3020	25.84	-0.14	0.750			
0.8574	54874.99	3.5030	3.5030	0.2897	25.85	-0.13	0.750			
0.8583	54928.82	3.5000	3.5000	0.2796	25.85	-0.13	0.750			
0.8591	54981.18	3.4970	3.4970	0.2703	25.86	-0.12	0.750			
0.8599	55032.02	3.4940	3.4939	0.2616	25.86	-0.12	0.750			
0.8606	55081.15	3.4910	3.4910	0.2553	25.87	-0.11	0.750			
0.8614	55129.44	3.4880	3.4880	0.2486	25.87	-0.11	0.750			
0.8621	55176.34	3.4850	3.4850	0.2442	25.88	-0.10	0.750			
0.8629	55222.57	3.4820	3.4820	0.2392	25.88	-0.10	0.750			
0.8636	55268.00	3.4790	3.4790	0.2341	25.89	-0.09	0.750			
0.8643	55312.80	3.4760	3.4759	0.2294	25.89	-0.09	0.750			
0.8649	55356.58	3.4730	3.4730	0.2247	25.90	-0.08	0.750			
0.8656	55399.20	3.4700	3.4700	0.2186	25.90	-0.08	0.750			
0.8663	55440.59	3.4670	3.4670	0.2133	25.91	-0.07	0.750			
0.8669	55481.04	3.4640	3.4640	0.2087	25.91	-0.07	0.750			
0.8675	55519.98	3.4610	3.4610	0.2031	25.91	-0.07	0.750			
0.8681	55558.74	3.4580	3.4579	0.1979	25.92	-0.06	0.750			
0.8687	55596.19	3.4550	3.4550	0.1932	25.92	-0.06	0.750			
0.8693	55632.91	3.4520	3.4521	0.1886	25.93	-0.05	0.750			
0.8698	55668.67	3.4490	3.4490	0.1839	25.93	-0.05	0.750			
0.8704	55703.56	3.4460	3.4460	0.1797	25.94	-0.04	0.750			
0.8709	55737.43	3.4430	3.4430	0.1749	25.94	-0.04	0.750			
0.8714	55770.61	3.4400	3.4400	0.1701	25.94	-0.04	0.750			
0.8719	55802.85	3.4370	3.4370	0.1658	25.95	-0.03	0.750			
0.8724	55834.57	3.4340	3.4340	0.1611	25.95	-0.03	0.750			
0.8729	55864.86	3.4310	3.4310	0.1565	25.95	-0.03	0.750			
0.8734	55894.47	3.4280	3.4280	0.1519	25.96	-0.02	0.750			
0.8738	55923.20	3.4250	3.4250	0.1473	25.96	-0.02	0.750			
0.8742	55950.94	3.4220	3.4220	0.1424	25.96	-0.02	0.750			
0.8747	55977.88	3.4190	3.4191	0.1380	25.97	-0.01	0.750			
0.8751	56004.07	3.4160	3.4161	0.1335	25.97	-0.01	0.750			
0.8755	56029.25	3.4130	3.4129	0.1286	25.97	-0.01	0.750			
0.8758	56053.54	3.4100	3.4099	0.1238	25.97	-0.01	0.750			
0.8762	56076.83	3.4070	3.4071	0.1184	25.98	-0.00	0.750			
0.8765	56099.08	3.4040	3.4039	0.1134	25.98	-0.00	0.750			
0.8769	56120.67	3.4010	3.4010	0.1079	25.98	0.00	0.750			
0.8772	56141.03	3.3980	3.3980	0.1026	25.98	0.00	0.750			
0.8775	56160.16	3.3950	3.3950	0.0966	25.99	0.01	0.750			
0.8778	56179.02	3.3920	3.3919	0.0887	25.99	0.01	0.750			
0.8781	56195.28	3.3890	3.3890	0.0806	25.99	0.01	0.750			
0.8783	56210.61	3.3860	3.3860	0.0735	25.99	0.01	0.750			
0.8785	56223.87	3.3830	3.3834	0.0647	25.99	0.01	0.750			
0.8787	56236.20	3.3800	3.3804	0.0559	26.00	0.02	0.750			
0.8788	56245.99	3.3770	3.3776	0.0461	26.00	0.02	0.750			
0.8790	56253.90	3.3740	3.3752	0.0363	26.00	0.02	0.750			
0.8791	56259.91	3.3710	3.3729	0.0264	26.00	0.02	0.750			
