Ah_balance (normalized)	Ah_balance (mAh)	Voltage - fit (V)	Voltage -  interpolate (V)	dQ/dV (1/V)	Temperature (°C)	Temperature - diff (°C)	Current (C)	R_DC 0ms (mOhm)	R_DC 50ms (mOhm)	R_DC 50 ms PEC (mOhm)
0.1992	12750.97	3.9350	3.9351	-0.1504	25.62	0.01	-0.750			
0.1998	12784.35	3.9320	3.9319	-0.1967	25.61	0.00	-0.750			
0.2004	12826.60	3.9290	3.9290	-0.2422	25.61	0.00	-0.750			
0.2012	12877.64	3.9260	3.9260	-0.2860	25.61	0.00	-0.750			
0.2021	12937.04	3.9230	3.9231	-0.3303	25.61	0.00	-0.750			
0.2032	13005.04	3.9200	3.9200	-0.3708	25.61	0.00	-0.750			
0.2044	13080.94	3.9170	3.9170	-0.4105	25.61	0.00	-0.750			
0.2057	13164.17	3.9140	3.9141	-0.4478	25.61	-0.00	-0.750			
0.2071	13253.74	3.9110	3.9110	-0.4831	25.61	-0.00	-0.750			
0.2086	13351.69	3.9080	3.9080	-0.5132	25.61	-0.00	-0.750			
0.2102	13453.82	3.9050	3.9049	-0.5394	25.61	-0.00	-0.750			
0.2119	13561.14	3.9020	3.9021	-0.5618	25.60	-0.01	-0.750			
0.2136	13671.44	3.8990	3.8990	-0.5825	25.60	-0.01	-0.750			
0.2154	13785.93	3.8960	3.8960	-0.5998	25.60	-0.01	-0.750			
0.2172	13902.70	3.8930	3.8931	-0.6152	25.60	-0.01	-0.750			
0.2191	14022.48	3.8900	3.8899	-0.6278	25.60	-0.01	-0.750			
0.2210	14145.21	3.8870	3.8870	-0.6400	25.60	-0.01	-0.750			
0.2230	14269.76	3.8840	3.8841	-0.6490	25.60	-0.01	-0.750			
0.2249	14395.26	3.8810	3.8810	-0.6564	25.59	-0.02	-0.750			
0.2269	14522.58	3.8780	3.8780	-0.6629	25.59	-0.02	-0.750			
0.2289	14650.12	3.8750	3.8750	-0.6669	25.59	-0.02	-0.750			
0.2309	14778.42	3.8720	3.8720	-0.6702	25.59	-0.02	-0.750			
0.2329	14908.18	3.8690	3.8690	-0.6757	25.59	-0.02	-0.750			
0.2350	15037.54	3.8660	3.8660	-0.6799	25.59	-0.02	-0.750			
0.2370	15169.04	3.8630	3.8630	-0.6824	25.58	-0.03	-0.750			
0.2391	15300.99	3.8600	3.8600	-0.6832	25.58	-0.03	-0.750			
0.2411	15432.36	3.8570	3.8570	-0.6846	25.58	-0.03	-0.750			
0.2432	15563.55	3.8540	3.8542	-0.6864	25.58	-0.03	-0.750			
0.2452	15695.25	3.8510	3.8510	-0.6873	25.58	-0.03	-0.750			
0.2473	15827.20	3.8480	3.8480	-0.6867	25.58	-0.03	-0.750			
0.2494	15959.23	3.8450	3.8450	-0.6876	25.58	-0.03	-0.750			
0.2514	16091.58	3.8420	3.8421	-0.6904	25.58	-0.03	-0.750			
0.2535	16224.53	3.8390	3.8390	-0.6886	25.58	-0.03	-0.750			
0.2556	16356.21	3.8360	3.8360	-0.6879	25.58	-0.03	-0.750			
0.2576	16487.98	3.8330	3.8330	-0.6892	25.58	-0.03	-0.750			
0.2597	16619.78	3.8300	3.8301	-0.6908	25.58	-0.03	-0.750			
0.2618	16752.85	3.8270	3.8269	-0.6930	25.58	-0.03	-0.750			
0.2639	16886.69	3.8240	3.8240	-0.6924	25.58	-0.03	-0.750			
0.2659	17019.95	3.8210	3.8210	-0.6916	25.58	-0.03	-0.750			
0.2680	17154.86	3.8180	3.8180	-0.6889	25.58	-0.03	-0.750			
0.2701	17285.78	3.8150	3.8150	-0.6822	25.58	-0.03	-0.750			
0.2721	17413.96	3.8120	3.8120	-0.6804	25.58	-0.03	-0.750			
0.2741	17543.71	3.8090	3.8090	-0.6817	25.58	-0.03	-0.750			
0.2762	17673.90	3.8060	3.8059	-0.6827	25.58	-0.03	-0.750			
0.2782	17806.01	3.8030	3.8030	-0.6849	25.58	-0.03	-0.750			
0.2803	17938.42	3.8000	3.8000	-0.6894	25.58	-0.03	-0.750			
0.2824	18072.13	3.7970	3.7970	-0.6908	25.58	-0.03	-0.750			
0.2844	18204.44	3.7940	3.7940	-0.6893	25.58	-0.03	-0.750			
0.2865	18335.80	3.7910	3.7910	-0.6914	25.58	-0.03	-0.750			
0.2886	18468.23	3.7880	3.7880	-0.6946	25.59	-0.02	-0.750			
0.2907	18602.51	3.7850	3.7850	-0.6985	25.59	-0.02	-0.750			
0.2928	18737.03	3.7820	3.7820	-0.7012	25.59	-0.02	-0.750			
0.2949	18871.88	3.7790	3.7790	-0.7040	25.59	-0.02	-0.750			
0.2970	19007.72	3.7760	3.7760	-0.7081	25.59	-0.02	-0.750			
0.2991	19143.66	3.7730	3.7730	-0.7103	25.59	-0.02	-0.750			
0.3013	19280.60	3.7700	3.7700	-0.7105	25.59	-0.02	-0.750			
0.3034	19417.35	3.7670	3.7670	-0.7134	25.59	-0.02	-0.750			
0.3055	19554.62	3.7640	3.7641	-0.7170	25.59	-0.02	-0.750			
0.3077	19692.19	3.7610	3.7610	-0.7207	25.59	-0.02	-0.750			
0.3098	19829.71	3.7580	3.7579	-0.7286	25.59	-0.02	-0.750			
0.3120	19970.99	3.7550	3.7550	-0.7299	25.59	-0.02	-0.750			
0.3143	20113.01	3.7520	3.7519	-0.7348	25.59	-0.02	-0.750			
0.3165	20253.76	3.7490	3.7490	-0.7400	25.59	-0.02	-0.750			
0.3187	20395.38	3.7460	3.7461	-0.7431	25.59	-0.02	-0.750			
0.3209	20537.85	3.7430	3.7429	-0.7485	25.59	-0.02	-0.750			
0.3231	20681.54	3.7400	3.7400	-0.7530	25.59	-0.02	-0.750			
0.3254	20826.25	3.7370	3.7371	-0.7608	25.58	-0.03	-0.750			
0.3277	20975.04	3.7340	3.7340	-0.7731	25.58	-0.03	-0.750			
0.3301	21124.31	3.7310	3.7310	-0.7809	25.58	-0.03	-0.750			
0.3324	21274.65	3.7280	3.7279	-0.7851	25.58	-0.03	-0.750			
0.3348	21425.46	3.7250	3.7250	-0.7938	25.58	-0.03	-0.750			
0.3372	21579.14	3.7220	3.7220	-0.8018	25.58	-0.03	-0.750			
0.3396	21733.83	3.7190	3.7190	-0.8086	25.58	-0.03	-0.750			
0.3420	21889.76	3.7160	3.7160	-0.8167	25.58	-0.03	-0.750			
0.3445	22046.87	3.7130	3.7131	-0.8272	25.58	-0.03	-0.750			
0.3470	22205.59	3.7100	3.7100	-0.8421	25.57	-0.04	-0.750			
0.3495	22369.27	3.7070	3.7070	-0.8565	25.57	-0.04	-0.750			
0.3521	22534.43	3.7040	3.7040	-0.8670	25.57	-0.04	-0.750			
0.3547	22703.00	3.7010	3.7011	-0.8818	25.56	-0.05	-0.750			
0.3574	22873.13	3.6980	3.6980	-0.9014	25.56	-0.05	-0.750			
0.3601	23047.69	3.6950	3.6949	-0.9154	25.56	-0.05	-0.750			
0.3629	23223.98	3.6920	3.6920	-0.9280	25.56	-0.05	-0.750			
0.3657	23403.08	3.6890	3.6890	-0.9468	25.56	-0.05	-0.750			
0.3686	23587.74	3.6860	3.6861	-0.9689	25.56	-0.05	-0.750			
0.3715	23775.81	3.6830	3.6829	-0.9893	25.56	-0.05	-0.750			
0.3745	23966.34	3.6800	3.6800	-1.0081	25.55	-0.06	-0.750			
0.3775	24161.01	3.6770	3.6770	-1.0296	25.55	-0.06	-0.750			
0.3806	24360.45	3.6740	3.6741	-1.0613	25.55	-0.06	-0.750			
0.3839	24567.48	3.6710	3.6710	-1.0830	25.54	-0.07	-0.750			
0.3871	24777.54	3.6680	3.6679	-1.1049	25.54	-0.07	-0.750			
0.3905	24992.59	3.6650	3.6650	-1.1268	25.53	-0.08	-0.750			
0.3939	25212.05	3.6620	3.6621	-1.1517	25.53	-0.08	-0.750			
0.3974	25434.36	3.6590	3.6590	-1.1719	25.53	-0.08	-0.750			
0.4009	25659.67	3.6560	3.6560	-1.1954	25.52	-0.09	-0.750			
0.4045	25889.03	3.6530	3.6530	-1.2225	25.52	-0.09	-0.750			
0.4083	26129.82	3.6500	3.6499	-1.2534	25.52	-0.09	-0.750			
0.4121	26372.88	3.6470	3.6470	-1.2813	25.51	-0.10	-0.750			
0.4159	26620.67	3.6440	3.6440	-1.3119	25.50	-0.11	-0.750			
0.4199	26876.50	3.6410	3.6410	-1.3342	25.50	-0.11	-0.750			
0.4240	27135.06	3.6380	3.6380	-1.3598	25.49	-0.12	-0.750			
0.4281	27397.61	3.6350	3.6349	-1.3864	25.48	-0.13	-0.750			
0.4323	27665.85	3.6320	3.6320	-1.4132	25.48	-0.13	-0.750			
0.4366	27941.39	3.6290	3.6290	-1.4451	25.48	-0.13	-0.750			
0.4409	28220.50	3.6260	3.6259	-1.4772	25.47	-0.14	-0.750			
0.4454	28504.88	3.6230	3.6230	-1.5099	25.47	-0.14	-0.750			
0.4500	28802.57	3.6200	3.6199	-1.5456	25.46	-0.15	-0.750			
0.4547	29102.31	3.6170	3.6171	-1.5827	25.46	-0.15	-0.750			
0.4596	29412.07	3.6140	3.6139	-1.6049	25.46	-0.15	-0.750			
0.4644	29721.84	3.6110	3.6109	-1.6455	25.46	-0.15	-0.750			
0.4694	30042.11	3.6080	3.6080	-1.6747	25.46	-0.15	-0.750			
0.4744	30364.40	3.6050	3.6050	-1.7106	25.46	-0.15	-0.750			
0.4796	30696.86	3.6020	3.6020	-1.7408	25.46	-0.15	-0.750			
0.4849	31032.76	3.5990	3.5991	-1.7708	25.46	-0.15	-0.750			
0.4904	31384.39	3.5960	3.5958	-1.8001	25.46	-0.15	-0.750			
0.4958	31731.52	3.5930	3.5929	-1.8324	25.46	-0.15	-0.750			
0.5012	32079.09	3.5900	3.5902	-1.8621	25.46	-0.15	-0.750			
0.5069	32438.77	3.5870	3.5870	-1.9129	25.46	-0.15	-0.750			
0.5127	32810.90	3.5840	3.5840	-1.9199	25.46	-0.15	-0.750			
0.5185	33185.21	3.5810	3.5810	-1.9398	25.46	-0.15	-0.750			
0.5244	33562.98	3.5780	3.5782	-1.9838	25.47	-0.14	-0.750			
0.5304	33946.27	3.5750	3.5749	-1.9863	25.47	-0.14	-0.750			
0.5364	34327.13	3.5720	3.5718	-2.0052	25.47	-0.14	-0.750	0.384	0.557	
0.5424	34712.00	3.5690	3.5692	-2.0347	25.47	-0.14	-0.750			
0.5486	35108.15	3.5660	3.5660	-2.0566	25.47	-0.14	-0.750			
0.5548	35509.11	3.5630	3.5630	-2.0590	25.48	-0.13	-0.750			
0.5610	35905.63	3.5600	3.5601	-2.0823	25.49	-0.12	-0.750			
0.5673	36308.56	3.5570	3.5570	-2.0836	25.50	-0.11	-0.750			
0.5736	36708.66	3.5540	3.5538	-2.0883	25.51	-0.10	-0.750			
0.5798	37105.19	3.5510	3.5511	-2.0986	25.52	-0.09	-0.750			
0.5862	37516.39	3.5480	3.5480	-2.0970	25.53	-0.08	-0.750			
0.5925	37922.45	3.5450	3.5449	-2.0874	25.54	-0.07	-0.750			
0.5987	38316.04	3.5420	3.5422	-2.0734	25.55	-0.06	-0.750			
0.6049	38712.61	3.5390	3.5390	-2.0562	25.56	-0.05	-0.750			
0.6111	39109.04	3.5360	3.5359	-2.0441	25.57	-0.04	-0.750			
0.6172	39498.66	3.5330	3.5331	-2.0081	25.58	-0.03	-0.750			
0.6233	39888.27	3.5300	3.5300	-1.9830	25.60	-0.01	-0.750			
0.6292	40266.94	3.5270	3.5270	-1.9444	25.62	0.01	-0.750			
0.6349	40633.29	3.5240	3.5239	-1.8876	25.63	0.02	-0.750			
0.6405	40994.01	3.5210	3.5210	-1.8470	25.64	0.03	-0.750			
0.6460	41342.59	3.5180	3.5182	-1.8019	25.65	0.04	-0.750			
0.6514	41686.41	3.5150	3.5149	-1.7651	25.67	0.06	-0.750			
0.6566	42019.86	3.5120	3.5120	-1.7102	25.68	0.07	-0.750			
0.6616	42344.69	3.5090	3.5091	-1.6721	25.70	0.09	-0.750			
0.6666	42663.80	3.5060	3.5060	-1.6355	25.72	0.11	-0.750			
0.6715	42973.82	3.5030	3.5029	-1.5773	25.73	0.12	-0.750			
0.6761	43273.20	3.5000	3.5001	-1.5289	25.75	0.14	-0.750			
0.6806	43561.28	3.4970	3.4972	-1.4878	25.76	0.15	-0.750			
0.6850	43839.29	3.4940	3.4939	-1.4399	25.77	0.16	-0.750			
0.6893	44112.87	3.4910	3.4908	-1.3925	25.78	0.17	-0.750			
0.6933	44372.73	3.4880	3.4883	-1.3476	25.79	0.18	-0.750			
0.6974	44631.44	3.4850	3.4850	-1.3156	25.81	0.20	-0.750			
0.7012	44878.53	3.4820	3.4820	-1.2807	25.82	0.21	-0.750			
0.7050	45116.84	3.4790	3.4789	-1.2397	25.84	0.23	-0.750			
0.7086	45352.73	3.4760	3.4760	-1.2184	25.85	0.24	-0.750			
0.7122	45582.13	3.4730	3.4730	-1.1935	25.87	0.26	-0.750			
0.7158	45811.13	3.4700	3.4700	-1.1698	25.88	0.27	-0.750			
0.7192	46031.45	3.4670	3.4670	-1.1495	25.90	0.29	-0.750			
0.7227	46249.92	3.4640	3.4640	-1.1319	25.91	0.30	-0.750			
0.7260	46464.69	3.4610	3.4610	-1.1171	25.92	0.31	-0.750			
0.7293	46676.71	3.4580	3.4579	-1.1023	25.94	0.33	-0.750			
0.7326	46887.16	3.4550	3.4549	-1.0965	25.95	0.34	-0.750			
0.7359	47095.90	3.4520	3.4520	-1.0882	25.96	0.35	-0.750			
0.7391	47305.07	3.4490	3.4490	-1.0865	25.97	0.36	-0.750			
0.7424	47510.50	3.4460	3.4460	-1.0781	25.98	0.37	-0.750			
0.7456	47719.41	3.4430	3.4430	-1.0836	25.99	0.38	-0.750			
0.7489	47929.10	3.4400	3.4400	-1.0781	26.00	0.39	-0.750			
0.7522	48137.62	3.4370	3.4369	-1.0710	26.02	0.41	-0.750			
0.7553	48341.79	3.4340	3.4343	-1.0594	26.03	0.42	-0.750			
0.7585	48545.59	3.4310	3.4310	-1.0482	26.04	0.43	-0.750			
0.7616	48744.89	3.4280	3.4280	-1.0336	26.04	0.43	-0.750			
0.7647	48940.33	3.4250	3.4249	-1.0182	26.05	0.44	-0.750			
0.7677	49135.44	3.4220	3.4221	-1.0097	26.06	0.45	-0.750			
0.7708	49329.59	3.4190	3.4190	-0.9942	26.07	0.46	-0.750			
0.7738	49520.80	3.4160	3.4159	-0.9783	26.08	0.47	-0.750			
0.7767	49706.27	3.4130	3.4130	-0.9590	26.09	0.48	-0.750			
0.7795	49887.59	3.4100	3.4100	-0.9405	26.10	0.49	-0.750			
0.7823	50066.74	3.4070	3.4068	-0.9205	26.11	0.50	-0.750			
0.7850	50241.77	3.4040	3.4040	-0.8992	26.11	0.50	-0.750			
0.7877	50412.04	3.4010	3.4010	-0.8748	26.12	0.51	-0.750			
0.7903	50578.37	3.3980	3.3980	-0.8521	26.13	0.52	-0.750			
0.7928	50741.45	3.3950	3.3951	-0.8280	26.14	0.53	-0.750			
0.7953	50898.00	3.3920	3.3919	-0.7966	26.15	0.54	-0.750			
0.7976	51047.53	3.3890	3.3891	-0.7692	26.16	0.55	-0.750			
0.7999	51194.13	3.3860	3.3860	-0.7400	26.16	0.55	-0.750			
0.8021	51333.75	3.3830	3.3830	-0.7078	26.17	0.56	-0.750			
0.8042	51466.24	3.3800	3.3799	-0.6758	26.18	0.57	-0.750			
0.8061	51592.19	3.3770	3.3771	-0.6425	26.18	0.57	-0.750			
0.8080	51712.01	3.3740	3.3740	-0.6117	26.18	0.57	-0.750			
0.8098	51826.21	3.3710	3.3710	-0.5826	26.19	0.58	-0.750			
0.8115	51933.72	3.3680	3.3680	-0.5503	26.19	0.58	-0.750			
0.8131	52037.70	3.3650	3.3650	-0.5287	26.19	0.58	-0.750			
0.8146	52136.35	3.3620	3.3620	-0.5034	26.19	0.58	-0.750			
0.8161	52229.69	3.3590	3.3590	-0.4800	26.20	0.59	-0.750			
0.8175	52319.43	3.3560	3.3560	-0.4588	26.20	0.59	-0.750			
0.8188	52405.50	3.3530	3.3530	-0.4382	26.20	0.59	-0.750			
0.8201	52487.22	3.3500	3.3500	-0.4192	26.21	0.60	-0.750			
0.8213	52566.02	3.3470	3.3470	-0.4011	26.22	0.61	-0.750			
0.8225	52640.71	3.3440	3.3440	-0.3829	26.22	0.61	-0.750			
0.8236	52712.30	3.3410	3.3409	-0.3677	26.23	0.62	-0.750			
0.8247	52781.14	3.3380	3.3380	-0.3526	26.23	0.62	-0.750			
0.8257	52846.49	3.3350	3.3350	-0.3408	26.24	0.63	-0.750			
0.8267	52910.94	3.3320	3.3320	-0.3302	26.24	0.63	-0.750			
0.8277	52973.10	3.3290	3.3290	-0.3191	26.25	0.64	-0.750			
0.8287	53033.62	3.3260	3.3260	-0.3110	26.25	0.64	-0.750			
0.8296	53092.23	3.3230	3.3231	-0.3013	26.26	0.65	-0.750			
0.8305	53149.38	3.3200	3.3199	-0.2916	26.26	0.65	-0.750			
0.8313	53204.47	3.3170	3.3170	-0.2832	26.27	0.66	-0.750			
0.8321	53257.47	3.3140	3.3141	-0.2740	26.27	0.66	-0.750			
0.8330	53309.37	3.3110	3.3110	-0.2666	26.28	0.67	-0.750			
0.8337	53359.86	3.3080	3.3080	-0.2592	26.28	0.67	-0.750			
0.8345	53408.43	3.3050	3.3050	-0.2523	26.29	0.68	-0.750			
0.8353	53456.07	3.3020	3.3020	-0.2469	26.29	0.68	-0.750			
0.8360	53503.01	3.2990	3.2990	-0.2418	26.30	0.69	-0.750			
0.8367	53548.58	3.2960	3.2959	-0.2363	26.30	0.69	-0.750			
0.8374	53593.76	3.2930	3.2930	-0.2313	26.30	0.69	-0.750			
0.8381	53637.58	3.2900	3.2900	-0.2264	26.31	0.70	-0.750			
0.8388	53680.58	3.2870	3.2870	-0.2215	26.31	0.70	-0.750			
0.8394	53722.79	3.2840	3.2841	-0.2168	26.32	0.71	-0.750			
0.8401	53763.63	3.2810	3.2810	-0.2123	26.32	0.71	-0.750			
0.8407	53803.44	3.2780	3.2781	-0.2088	26.33	0.72	-0.750			
0.8413	53843.34	3.2750	3.2749	-0.2058	26.33	0.72	-0.750			
0.8419	53882.62	3.2720	3.2720	-0.2023	26.33	0.72	-0.750			
0.8425	53921.30	3.2690	3.2689	-0.1994	26.34	0.73	-0.750			
0.8431	53959.17	3.2660	3.2661	-0.1967	26.34	0.73	-0.750			
0.8437	53996.65	3.2630	3.2630	-0.1938	26.35	0.74	-0.750			
0.8443	54033.72	3.2600	3.2599	-0.1910	26.35	0.74	-0.750			
0.8448	54069.99	3.2570	3.2570	-0.1878	26.35	0.74	-0.750			
0.8454	54105.36	3.2540	3.2541	-0.1853	26.36	0.75	-0.750			
0.8460	54140.98	3.2510	3.2510	-0.1832	26.36	0.75	-0.750			
0.8465	54176.16	3.2480	3.2479	-0.1808	26.36	0.75	-0.750			
0.8470	54210.58	3.2450	3.2450	-0.1778	26.37	0.76	-0.750			
0.8476	54244.19	3.2420	3.2421	-0.1754	26.37	0.76	-0.750			
0.8481	54277.65	3.2390	3.2390	-0.1733	26.37	0.76	-0.750			
0.8486	54310.73	3.2360	3.2359	-0.1710	26.38	0.77	-0.750			
0.8491	54343.34	3.2330	3.2330	-0.1687	26.38	0.77	-0.750			
0.8496	54375.18	3.2300	3.2301	-0.1667	26.38	0.77	-0.750			
0.8501	54407.03	3.2270	3.2270	-0.1656	26.39	0.78	-0.750			
0.8506	54438.76	3.2240	3.2240	-0.1642	26.39	0.78	-0.750			
0.8511	54470.14	3.2210	3.2210	-0.1627	26.39	0.78	-0.750			
0.8516	54501.11	3.2180	3.2180	-0.1608	26.40	0.79	-0.750			
0.8521	54532.02	3.2150	3.2151	-0.1593	26.40	0.79	-0.750			
0.8525	54562.64	3.2120	3.2120	-0.1579	26.40	0.79	-0.750			
0.8530	54592.73	3.2090	3.2090	-0.1556	26.40	0.79	-0.750			
0.8535	54622.15	3.2060	3.2060	-0.1541	26.41	0.80	-0.750			
0.8539	54651.53	3.2030	3.2030	-0.1521	26.41	0.80	-0.750			
0.8544	54680.59	3.2000	3.2000	-0.1507	26.41	0.80	-0.750			
0.8548	54709.39	3.1970	3.1969	-0.1493	26.42	0.81	-0.750			
0.8553	54737.94	3.1940	3.1941	-0.1478	26.42	0.81	-0.750			
0.8557	54766.21	3.1910	3.1910	-0.1464	26.42	0.81	-0.750			
0.8562	54794.18	3.1880	3.1880	-0.1451	26.43	0.82	-0.750			
0.8566	54821.88	3.1850	3.1850	-0.1435	26.43	0.82	-0.750			
0.8570	54849.01	3.1820	3.1820	-0.1423	26.43	0.82	-0.750			
0.8574	54876.28	3.1790	3.1790	-0.1416	26.44	0.83	-0.750			
0.8579	54903.49	3.1760	3.1760	-0.1402	26.44	0.83	-0.750			
0.8583	54930.30	3.1730	3.1729	-0.1391	26.45	0.84	-0.750			
0.8587	54956.96	3.1700	3.1700	-0.1382	26.45	0.84	-0.750			
0.8591	54983.41	3.1670	3.1670	-0.1371	26.45	0.84	-0.750			
0.8595	55009.61	3.1640	3.1640	-0.1359	26.46	0.85	-0.750			
0.8599	55035.58	3.1610	3.1610	-0.1347	26.46	0.85	-0.750			
0.8603	55061.19	3.1580	3.1580	-0.1334	26.47	0.86	-0.750			
0.8607	55086.62	3.1550	3.1550	-0.1325	26.47	0.86	-0.750			
0.8611	55112.23	3.1520	3.1520	-0.1317	26.47	0.86	-0.750			
0.8615	55137.38	3.1490	3.1490	-0.1303	26.48	0.87	-0.750			
0.8619	55162.14	3.1460	3.1460	-0.1292	26.48	0.87	-0.750			
0.8623	55186.86	3.1430	3.1430	-0.1282	26.48	0.87	-0.750			
0.8627	55211.32	3.1400	3.1400	-0.1274	26.49	0.88	-0.750			
0.8631	55235.71	3.1370	3.1369	-0.1266	26.49	0.88	-0.750			
0.8634	55260.00	3.1340	3.1340	-0.1251	26.49	0.88	-0.750			
0.8638	55283.89	3.1310	3.1310	-0.1239	26.50	0.89	-0.750			
0.8642	55307.49	3.1280	3.1281	-0.1233	26.50	0.89	-0.750			
0.8646	55331.26	3.1250	3.1249	-0.1225	26.50	0.89	-0.750			
0.8649	55354.53	3.1220	3.1219	-0.1213	26.51	0.90	-0.750			
0.8653	55377.74	3.1190	3.1189	-0.1205	26.51	0.90	-0.750			
0.8656	55400.68	3.1160	3.1161	-0.1195	26.51	0.90	-0.750			
0.8660	55423.57	3.1130	3.1130	-0.1189	26.52	0.91	-0.750			
0.8664	55446.52	3.1100	3.1099	-0.1184	26.52	0.91	-0.750			
0.8667	55469.16	3.1070	3.1071	-0.1174	26.52	0.91	-0.750			
0.8671	55491.51	3.1040	3.1039	-0.1162	26.52	0.91	-0.750			
0.8674	55513.74	3.1010	3.1011	-0.1154	26.52	0.91	-0.750			
0.8677	55535.87	3.0980	3.0979	-0.1148	26.52	0.91	-0.750			
0.8681	55557.82	3.0950	3.0951	-0.1139	26.52	0.91	-0.750			
0.8684	55579.57	3.0920	3.0920	-0.1130	26.53	0.92	-0.750			
0.8688	55601.19	3.0890	3.0889	-0.1122	26.53	0.92	-0.750			
0.8691	55622.60	3.0860	3.0860	-0.1113	26.53	0.92	-0.750			
0.8694	55643.91	3.0830	3.0831	-0.1106	26.54	0.93	-0.750			
0.8698	55665.15	3.0800	3.0800	-0.1099	26.54	0.93	-0.750			
0.8701	55686.17	3.0770	3.0770	-0.1090	26.55	0.94	-0.750			
0.8704	55706.91	3.0740	3.0740	-0.1082	26.55	0.94	-0.750			
0.8707	55727.63	3.0710	3.0710	-0.1076	26.55	0.94	-0.750			
0.8711	55748.24	3.0680	3.0680	-0.1069	26.56	0.95	-0.750			
0.8714	55768.71	3.0650	3.0650	-0.1062	26.56	0.95	-0.750			
0.8717	55789.08	3.0620	3.0620	-0.1054	26.56	0.95	-0.750			
0.8720	55809.25	3.0590	3.0590	-0.1046	26.57	0.96	-0.750			
0.8723	55829.28	3.0560	3.0560	-0.1040	26.57	0.96	-0.750			
0.8726	55849.17	3.0530	3.0530	-0.1032	26.58	0.97	-0.750			
0.8730	55868.91	3.0500	3.0500	-0.1022	26.58	0.97	-0.750			
0.8733	55888.45	3.0470	3.0470	-0.1014	26.58	0.97	-0.750			
0.8736	55907.76	3.0440	3.0440	-0.1008	26.59	0.98	-0.750			
0.8739	55927.06	3.0410	3.0411	-0.1002	26.59	0.98	-0.750			
0.8742	55946.23	3.0380	3.0380	-0.0996	26.59	0.98	-0.750			
0.8745	55965.30	3.0350	3.0349	-0.0991	26.60	0.99	-0.750			
0.8748	55984.16	3.0320	3.0320	-0.0985	26.60	0.99	-0.750			
0.8750	56003.05	3.0290	3.0290	-0.0982	26.60	0.99	-0.750			
0.8753	56022.06	3.0260	3.0259	-0.0977	26.61	1.00	-0.750			
0.8756	56040.74	3.0230	3.0230	-0.0969	26.61	1.00	-0.750			
0.8759	56059.30	3.0200	3.0201	-0.0961	26.61	1.00	-0.750			
0.8762	56077.66	3.0170	3.0170	-0.0952	26.62	1.01	-0.750			
0.8765	56095.84	3.0140	3.0140	-0.0947	26.62	1.01	-0.750			
0.8768	56113.96	3.0110	3.0110	-0.0940	26.62	1.01	-0.750			
0.8771	56131.74	3.0080	3.0080	-0.0935	26.63	1.02	-0.750			
0.8773	56149.68	3.0050	3.0049	-0.0934	26.63	1.02	-0.750			
0.8776	56167.61	3.0020	3.0020	-0.0938	26.63	1.02	-0.750			
