Ah_balance (normalized)	Ah_balance (mAh)	Voltage - fit (V)	Voltage -  interpolate (V)	dQ/dV (1/V)	Temperature (°C)	Temperature - diff (°C)	Current (C)	R_DC 0ms (mOhm)	R_DC 50ms (mOhm)	R_DC 50 ms PEC (mOhm)
0.1984	12697.48	3.9360	3.9358	-0.1233	25.50	0.01	-0.750			
0.1988	12726.38	3.9330	3.9329	-0.1733	25.50	0.01	-0.750			
0.1994	12764.32	3.9300	3.9300	-0.2196	25.50	0.01	-0.750			
0.2002	12811.06	3.9270	3.9269	-0.2654	25.50	0.01	-0.750			
0.2010	12866.27	3.9240	3.9241	-0.3122	25.50	0.01	-0.750			
0.2021	12931.85	3.9210	3.9209	-0.3537	25.49	0.00	-0.750			
0.2032	13004.27	3.9180	3.9180	-0.3949	25.49	0.00	-0.750			
0.2044	13083.99	3.9150	3.9151	-0.4333	25.49	0.00	-0.750			
0.2058	13172.05	3.9120	3.9119	-0.4705	25.49	-0.00	-0.750			
0.2073	13266.87	3.9090	3.9089	-0.5016	25.49	-0.00	-0.750			
0.2089	13366.63	3.9060	3.9060	-0.5316	25.48	-0.01	-0.750			
0.2105	13472.58	3.9030	3.9030	-0.5548	25.48	-0.01	-0.750			
0.2122	13582.50	3.9000	3.9001	-0.5780	25.48	-0.01	-0.750			
0.2140	13696.04	3.8970	3.8970	-0.5948	25.48	-0.01	-0.750			
0.2158	13812.20	3.8940	3.8939	-0.6093	25.47	-0.02	-0.750			
0.2177	13931.60	3.8910	3.8910	-0.6214	25.47	-0.02	-0.750			
0.2196	14051.56	3.8880	3.8881	-0.6344	25.47	-0.02	-0.750			
0.2215	14174.68	3.8850	3.8850	-0.6465	25.47	-0.02	-0.750			
0.2234	14300.65	3.8820	3.8819	-0.6582	25.47	-0.02	-0.750			
0.2254	14427.97	3.8790	3.8789	-0.6660	25.47	-0.02	-0.750			
0.2275	14558.49	3.8760	3.8761	-0.6713	25.47	-0.02	-0.750			
0.2295	14689.05	3.8730	3.8730	-0.6774	25.47	-0.02	-0.750			
0.2316	14819.45	3.8700	3.8700	-0.6785	25.47	-0.02	-0.750			
0.2336	14948.68	3.8670	3.8670	-0.6760	25.47	-0.02	-0.750			
0.2356	15078.85	3.8640	3.8639	-0.6769	25.47	-0.02	-0.750			
0.2376	15208.62	3.8610	3.8610	-0.6790	25.46	-0.03	-0.750			
0.2397	15339.23	3.8580	3.8580	-0.6811	25.46	-0.03	-0.750			
0.2417	15469.92	3.8550	3.8550	-0.6844	25.46	-0.03	-0.750			
0.2438	15600.91	3.8520	3.8519	-0.6876	25.46	-0.03	-0.750			
0.2458	15734.14	3.8490	3.8490	-0.6906	25.47	-0.02	-0.750			
0.2479	15867.70	3.8460	3.8460	-0.6929	25.47	-0.02	-0.750			
0.2500	16001.49	3.8430	3.8430	-0.6922	25.47	-0.02	-0.750			
0.2521	16135.24	3.8400	3.8400	-0.6900	25.48	-0.01	-0.750			
0.2542	16267.07	3.8370	3.8370	-0.6905	25.48	-0.01	-0.750			
0.2562	16398.85	3.8340	3.8340	-0.6898	25.48	-0.01	-0.750			
0.2583	16530.26	3.8310	3.8309	-0.6905	25.48	-0.01	-0.750			
0.2604	16663.45	3.8280	3.8281	-0.6922	25.48	-0.01	-0.750			
0.2625	16797.07	3.8250	3.8250	-0.6915	25.48	-0.01	-0.750			
0.2645	16930.04	3.8220	3.8221	-0.6912	25.48	-0.01	-0.750			
0.2666	17062.58	3.8190	3.8190	-0.6929	25.48	-0.01	-0.750			
0.2687	17194.66	3.8160	3.8159	-0.6929	25.48	-0.01	-0.750			
0.2708	17328.62	3.8130	3.8130	-0.6898	25.48	-0.01	-0.750			
0.2728	17460.55	3.8100	3.8100	-0.6914	25.48	-0.01	-0.750			
0.2749	17594.43	3.8070	3.8071	-0.6916	25.49	-0.00	-0.750			
0.2770	17727.08	3.8040	3.8040	-0.6915	25.49	-0.00	-0.750			
0.2790	17858.69	3.8010	3.8009	-0.6902	25.49	-0.00	-0.750			
0.2811	17990.64	3.7980	3.7980	-0.6914	25.49	-0.00	-0.750			
0.2832	18124.02	3.7950	3.7950	-0.6913	25.49	-0.00	-0.750			
0.2853	18257.24	3.7920	3.7920	-0.6942	25.49	-0.00	-0.750			
0.2873	18389.84	3.7890	3.7890	-0.6946	25.48	-0.01	-0.750			
0.2894	18524.29	3.7860	3.7860	-0.6972	25.48	-0.01	-0.750			
0.2915	18657.56	3.7830	3.7829	-0.6983	25.48	-0.01	-0.750			
0.2936	18791.96	3.7800	3.7801	-0.7017	25.48	-0.01	-0.750			
0.2957	18926.50	3.7770	3.7770	-0.7023	25.48	-0.01	-0.750			
0.2978	19061.73	3.7740	3.7740	-0.7082	25.48	-0.01	-0.750			
0.3000	19197.58	3.7710	3.7710	-0.7100	25.49	-0.00	-0.750			
0.3021	19334.70	3.7680	3.7678	-0.7131	25.49	-0.00	-0.750			
0.3043	19472.63	3.7650	3.7651	-0.7170	25.49	-0.00	-0.750			
0.3064	19610.25	3.7620	3.7620	-0.7196	25.49	-0.00	-0.750			
0.3086	19748.75	3.7590	3.7590	-0.7232	25.49	-0.00	-0.750			
0.3108	19888.08	3.7560	3.7560	-0.7285	25.49	-0.00	-0.750			
0.3129	20026.61	3.7530	3.7530	-0.7291	25.48	-0.01	-0.750			
0.3151	20168.29	3.7500	3.7500	-0.7353	25.48	-0.01	-0.750			
0.3173	20309.87	3.7470	3.7471	-0.7396	25.48	-0.01	-0.750			
0.3196	20451.59	3.7440	3.7440	-0.7476	25.48	-0.01	-0.750			
0.3218	20595.18	3.7410	3.7409	-0.7562	25.48	-0.01	-0.750			
0.3241	20741.41	3.7380	3.7380	-0.7600	25.48	-0.01	-0.750			
0.3264	20888.00	3.7350	3.7351	-0.7672	25.48	-0.01	-0.750			
0.3287	21036.85	3.7320	3.7320	-0.7775	25.48	-0.01	-0.750			
0.3310	21186.95	3.7290	3.7290	-0.7820	25.48	-0.01	-0.750			
0.3334	21336.00	3.7260	3.7260	-0.7914	25.48	-0.01	-0.750			
0.3358	21488.71	3.7230	3.7230	-0.7971	25.48	-0.01	-0.750			
0.3382	21642.69	3.7200	3.7201	-0.8079	25.47	-0.02	-0.750			
0.3406	21799.88	3.7170	3.7170	-0.8183	25.47	-0.02	-0.750			
0.3431	21957.17	3.7140	3.7140	-0.8263	25.47	-0.02	-0.750			
0.3456	22116.16	3.7110	3.7110	-0.8377	25.47	-0.02	-0.750			
0.3481	22278.32	3.7080	3.7080	-0.8517	25.46	-0.03	-0.750			
0.3507	22442.46	3.7050	3.7049	-0.8621	25.46	-0.03	-0.750			
0.3533	22609.46	3.7020	3.7020	-0.8794	25.45	-0.04	-0.750			
0.3559	22779.07	3.6990	3.6991	-0.8904	25.45	-0.04	-0.750			
0.3586	22951.46	3.6960	3.6960	-0.9101	25.44	-0.05	-0.750			
0.3614	23127.53	3.6930	3.6930	-0.9265	25.44	-0.05	-0.750			
0.3642	23305.64	3.6900	3.6901	-0.9419	25.44	-0.05	-0.750			
0.3670	23489.69	3.6870	3.6870	-0.9632	25.43	-0.06	-0.750			
0.3699	23676.15	3.6840	3.6840	-0.9859	25.43	-0.06	-0.750			
0.3729	23866.89	3.6810	3.6810	-1.0061	25.43	-0.06	-0.750			
0.3760	24062.21	3.6780	3.6779	-1.0267	25.42	-0.07	-0.750			
0.3791	24260.06	3.6750	3.6750	-1.0484	25.42	-0.07	-0.750			
0.3823	24464.47	3.6720	3.6720	-1.0771	25.42	-0.07	-0.750			
0.3855	24674.18	3.6690	3.6689	-1.0979	25.41	-0.08	-0.750			
0.3889	24887.10	3.6660	3.6660	-1.1218	25.41	-0.08	-0.750			
0.3922	25103.51	3.6630	3.6632	-1.1431	25.40	-0.09	-0.750			
0.3957	25326.80	3.6600	3.6599	-1.1684	25.39	-0.10	-0.750			
0.3993	25552.94	3.6570	3.6570	-1.1929	25.39	-0.10	-0.750			
0.4028	25780.87	3.6540	3.6541	-1.2173	25.38	-0.11	-0.750			
0.4065	26019.04	3.6510	3.6510	-1.2535	25.38	-0.11	-0.750			
0.4104	26263.40	3.6480	3.6480	-1.2771	25.38	-0.11	-0.750			
0.4142	26510.28	3.6450	3.6450	-1.2998	25.37	-0.12	-0.750			
0.4182	26763.36	3.6420	3.6421	-1.3301	25.37	-0.12	-0.750			
0.4222	27021.15	3.6390	3.6390	-1.3516	25.37	-0.12	-0.750			
0.4263	27281.59	3.6360	3.6360	-1.3758	25.36	-0.13	-0.750			
0.4304	27547.88	3.6330	3.6330	-1.4088	25.36	-0.13	-0.750			
0.4347	27821.44	3.6300	3.6299	-1.4363	25.35	-0.14	-0.750			
0.4391	28100.02	3.6270	3.6270	-1.4721	25.35	-0.14	-0.750			
0.4435	28385.66	3.6240	3.6241	-1.5102	25.34	-0.15	-0.750			
0.4481	28679.81	3.6210	3.6209	-1.5416	25.33	-0.16	-0.750			
0.4528	28979.51	3.6180	3.6180	-1.5773	25.32	-0.17	-0.750			
0.4576	29285.10	3.6150	3.6150	-1.5978	25.32	-0.17	-0.750			
0.4625	29597.20	3.6120	3.6120	-1.6301	25.31	-0.18	-0.750			
0.4674	29912.07	3.6090	3.6090	-1.6655	25.31	-0.18	-0.750			
0.4724	30231.77	3.6060	3.6060	-1.6866	25.31	-0.18	-0.750			
0.4775	30560.54	3.6030	3.6030	-1.7224	25.31	-0.18	-0.750			
0.4827	30893.75	3.6000	3.6003	-1.7563	25.31	-0.18	-0.750			
0.4880	31232.19	3.5970	3.5969	-1.7837	25.31	-0.18	-0.750			
0.4935	31582.93	3.5940	3.5940	-1.8043	25.31	-0.18	-0.750			
0.4988	31925.85	3.5910	3.5910	-1.8444	25.31	-0.18	-0.750			
0.5045	32288.12	3.5880	3.5879	-1.8754	25.31	-0.18	-0.750			
0.5101	32647.81	3.5850	3.5849	-1.8971	25.31	-0.18	-0.750			
0.5158	33014.33	3.5820	3.5822	-1.9314	25.32	-0.17	-0.750			
0.5217	33391.10	3.5790	3.5790	-1.9499	25.32	-0.17	-0.750			
0.5276	33766.62	3.5760	3.5760	-1.9823	25.32	-0.17	-0.750			
0.5336	34147.67	3.5730	3.5730	-2.0200	25.32	-0.17	-0.750			
0.5397	34543.40	3.5700	3.5699	-2.0511	25.32	-0.17	-0.750	0.380	0.561	
0.5459	34940.35	3.5670	3.5670	-2.0682	25.33	-0.16	-0.750			
0.5522	35340.07	3.5640	3.5641	-2.0868	25.34	-0.15	-0.750			
0.5585	35744.68	3.5610	3.5610	-2.1068	25.34	-0.15	-0.750			
0.5648	36145.80	3.5580	3.5580	-2.0972	25.35	-0.14	-0.750			
0.5711	36552.29	3.5550	3.5550	-2.0985	25.35	-0.14	-0.750			
0.5774	36956.44	3.5520	3.5521	-2.1019	25.36	-0.13	-0.750			
0.5838	37360.54	3.5490	3.5490	-2.0822	25.36	-0.13	-0.750			
0.5900	37758.92	3.5460	3.5459	-2.0772	25.37	-0.12	-0.750			
0.5962	38156.00	3.5430	3.5431	-2.0634	25.38	-0.11	-0.750			
0.6024	38552.04	3.5400	3.5399	-2.0456	25.39	-0.10	-0.750			
0.6085	38946.23	3.5370	3.5370	-2.0396	25.40	-0.09	-0.750			
0.6146	39332.29	3.5340	3.5341	-2.0137	25.41	-0.08	-0.750			
0.6207	39723.13	3.5310	3.5310	-1.9910	25.43	-0.06	-0.750			
0.6266	40102.99	3.5280	3.5280	-1.9497	25.44	-0.05	-0.750			
0.6324	40470.73	3.5250	3.5251	-1.9132	25.45	-0.04	-0.750			
0.6381	40836.23	3.5220	3.5220	-1.8673	25.46	-0.03	-0.750			
0.6436	41188.31	3.5190	3.5190	-1.8282	25.48	-0.01	-0.750			
0.6490	41538.24	3.5160	3.5161	-1.7828	25.50	0.01	-0.750			
0.6543	41877.05	3.5130	3.5129	-1.7421	25.53	0.04	-0.750			
0.6595	42206.12	3.5100	3.5100	-1.6919	25.54	0.05	-0.750			
0.6645	42526.14	3.5070	3.5069	-1.6487	25.56	0.07	-0.750			
0.6693	42836.43	3.5040	3.5040	-1.6004	25.58	0.09	-0.750			
0.6741	43142.18	3.5010	3.5010	-1.5579	25.60	0.11	-0.750			
0.6787	43434.86	3.4980	3.4980	-1.5074	25.61	0.12	-0.750			
0.6832	43722.46	3.4950	3.4950	-1.4647	25.63	0.14	-0.750			
0.6875	43997.84	3.4920	3.4919	-1.4197	25.64	0.15	-0.750			
0.6916	44264.88	3.4890	3.4890	-1.3744	25.66	0.17	-0.750			
0.6957	44523.84	3.4860	3.4860	-1.3306	25.68	0.19	-0.750			
0.6996	44775.30	3.4830	3.4830	-1.2957	25.69	0.20	-0.750			
0.7034	45019.93	3.4800	3.4800	-1.2607	25.71	0.22	-0.750			
0.7071	45257.06	3.4770	3.4770	-1.2290	25.73	0.24	-0.750			
0.7108	45489.19	3.4740	3.4740	-1.2014	25.75	0.26	-0.750			
0.7143	45717.17	3.4710	3.4710	-1.1745	25.76	0.27	-0.750			
0.7178	45939.29	3.4680	3.4681	-1.1559	25.78	0.29	-0.750			
0.7212	46159.27	3.4650	3.4650	-1.1369	25.79	0.30	-0.750			
0.7246	46374.43	3.4620	3.4620	-1.1167	25.80	0.31	-0.750			
0.7279	46587.02	3.4590	3.4589	-1.1053	25.81	0.32	-0.750			
0.7312	46795.88	3.4560	3.4561	-1.0999	25.82	0.33	-0.750			
0.7345	47006.68	3.4530	3.4530	-1.0906	25.83	0.34	-0.750			
0.7377	47214.84	3.4500	3.4499	-1.0871	25.84	0.35	-0.750			
0.7410	47422.15	3.4470	3.4470	-1.0771	25.86	0.37	-0.750			
0.7442	47630.08	3.4440	3.4440	-1.0796	25.86	0.37	-0.750			
0.7475	47838.33	3.4410	3.4410	-1.0740	25.87	0.38	-0.750			
0.7507	48043.44	3.4380	3.4379	-1.0651	25.88	0.39	-0.750			
0.7538	48246.36	3.4350	3.4351	-1.0524	25.89	0.40	-0.750			
0.7570	48450.04	3.4320	3.4320	-1.0475	25.89	0.40	-0.750			
0.7601	48649.55	3.4290	3.4290	-1.0361	25.90	0.41	-0.750			
0.7633	48848.65	3.4260	3.4260	-1.0221	25.91	0.42	-0.750			
0.7663	49041.43	3.4230	3.4230	-1.0055	25.92	0.43	-0.750			
0.7693	49235.73	3.4200	3.4200	-0.9945	25.92	0.43	-0.750			
0.7723	49425.52	3.4170	3.4170	-0.9794	25.93	0.44	-0.750			
0.7752	49613.09	3.4140	3.4140	-0.9627	25.93	0.44	-0.750			
0.7781	49795.98	3.4110	3.4110	-0.9412	25.94	0.45	-0.750			
0.7809	49975.53	3.4080	3.4081	-0.9216	25.94	0.45	-0.750			
0.7836	50151.42	3.4050	3.4050	-0.9007	25.95	0.46	-0.750			
0.7863	50321.63	3.4020	3.4020	-0.8766	25.95	0.46	-0.750			
0.7888	50486.05	3.3990	3.3990	-0.8523	25.95	0.46	-0.750			
0.7914	50649.84	3.3960	3.3959	-0.8306	25.96	0.47	-0.750			
0.7939	50807.42	3.3930	3.3931	-0.8052	25.96	0.47	-0.750			
0.7962	50959.89	3.3900	3.3900	-0.7762	25.97	0.48	-0.750			
0.7985	51106.82	3.3870	3.3870	-0.7477	25.97	0.48	-0.750			
0.8007	51247.93	3.3840	3.3840	-0.7154	25.98	0.49	-0.750			
0.8028	51382.10	3.3810	3.3810	-0.6816	25.98	0.49	-0.750			
0.8048	51509.32	3.3780	3.3781	-0.6505	25.99	0.50	-0.750			
0.8067	51631.22	3.3750	3.3750	-0.6215	25.99	0.50	-0.750			
0.8085	51746.54	3.3720	3.3719	-0.5920	26.00	0.51	-0.750			
0.8103	51857.52	3.3690	3.3690	-0.5643	26.00	0.51	-0.750			
0.8119	51963.02	3.3660	3.3660	-0.5372	26.01	0.52	-0.750			
0.8135	52064.29	3.3630	3.3630	-0.5145	26.01	0.52	-0.750			
0.8150	52160.19	3.3600	3.3600	-0.4906	26.01	0.52	-0.750			
0.8164	52250.87	3.3570	3.3569	-0.4663	26.02	0.53	-0.750			
0.8178	52338.65	3.3540	3.3540	-0.4456	26.02	0.53	-0.750			
0.8191	52421.53	3.3510	3.3510	-0.4253	26.03	0.54	-0.750			
0.8203	52501.30	3.3480	3.3480	-0.4073	26.03	0.54	-0.750			
0.8215	52577.65	3.3450	3.3450	-0.3890	26.03	0.54	-0.750			
0.8226	52649.29	3.3420	3.3420	-0.3733	26.04	0.55	-0.750			
0.8237	52719.77	3.3390	3.3390	-0.3588	26.04	0.55	-0.750			
0.8248	52786.88	3.3360	3.3360	-0.3456	26.04	0.55	-0.750			
0.8258	52851.86	3.3330	3.3329	-0.3342	26.05	0.56	-0.750			
0.8268	52914.78	3.3300	3.3301	-0.3229	26.05	0.56	-0.750			
0.8277	52975.70	3.3270	3.3270	-0.3132	26.05	0.56	-0.750			
0.8287	53034.81	3.3240	3.3239	-0.3036	26.06	0.57	-0.750			
0.8296	53091.96	3.3210	3.3210	-0.2935	26.06	0.57	-0.750			
0.8304	53147.47	3.3180	3.3179	-0.2853	26.06	0.57	-0.750			
0.8313	53200.83	3.3150	3.3151	-0.2762	26.07	0.58	-0.750			
0.8321	53252.70	3.3120	3.3120	-0.2680	26.07	0.58	-0.750			
0.8329	53303.35	3.3090	3.3090	-0.2610	26.07	0.58	-0.750			
0.8336	53352.91	3.3060	3.3060	-0.2547	26.08	0.59	-0.750			
0.8344	53400.91	3.3030	3.3030	-0.2480	26.08	0.59	-0.750			
0.8351	53447.92	3.3000	3.3000	-0.2429	26.08	0.59	-0.750			
0.8358	53493.88	3.2970	3.2970	-0.2370	26.09	0.60	-0.750			
0.8365	53538.62	3.2940	3.2940	-0.2321	26.09	0.60	-0.750			
0.8372	53582.48	3.2910	3.2910	-0.2270	26.09	0.60	-0.750			
0.8379	53625.71	3.2880	3.2880	-0.2223	26.10	0.61	-0.750			
0.8386	53667.97	3.2850	3.2850	-0.2179	26.10	0.61	-0.750			
0.8392	53709.33	3.2820	3.2820	-0.2147	26.10	0.61	-0.750			
0.8398	53750.20	3.2790	3.2790	-0.2110	26.11	0.62	-0.750			
0.8405	53790.21	3.2760	3.2759	-0.2066	26.11	0.62	-0.750			
0.8411	53829.44	3.2730	3.2730	-0.2034	26.11	0.62	-0.750			
0.8417	53868.09	3.2700	3.2701	-0.2001	26.12	0.63	-0.750			
0.8423	53906.28	3.2670	3.2670	-0.1971	26.12	0.63	-0.750			
0.8429	53943.84	3.2640	3.2639	-0.1942	26.12	0.63	-0.750			
0.8434	53980.73	3.2610	3.2610	-0.1913	26.13	0.64	-0.750			
0.8440	54016.83	3.2580	3.2581	-0.1881	26.13	0.64	-0.750			
0.8446	54052.83	3.2550	3.2550	-0.1857	26.13	0.64	-0.750			
0.8451	54088.36	3.2520	3.2520	-0.1832	26.14	0.65	-0.750			
0.8457	54123.01	3.2490	3.2490	-0.1803	26.14	0.65	-0.750			
0.8462	54157.42	3.2460	3.2460	-0.1781	26.14	0.65	-0.750			
0.8467	54191.57	3.2430	3.2430	-0.1751	26.14	0.65	-0.750			
0.8473	54224.63	3.2400	3.2400	-0.1732	26.15	0.66	-0.750			
0.8478	54257.53	3.2370	3.2371	-0.1709	26.15	0.66	-0.750			
0.8483	54290.22	3.2340	3.2341	-0.1691	26.15	0.66	-0.750			
0.8488	54322.39	3.2310	3.2309	-0.1677	26.16	0.67	-0.750			
0.8493	54354.42	3.2280	3.2280	-0.1661	26.16	0.67	-0.750			
0.8498	54386.09	3.2250	3.2250	-0.1647	26.16	0.67	-0.750			
0.8503	54417.66	3.2220	3.2220	-0.1632	26.16	0.67	-0.750			
0.8508	54449.26	3.2190	3.2190	-0.1618	26.17	0.68	-0.750			
0.8512	54479.91	3.2160	3.2160	-0.1593	26.17	0.68	-0.750			
0.8517	54510.31	3.2130	3.2130	-0.1574	26.17	0.68	-0.750			
0.8522	54540.56	3.2100	3.2099	-0.1556	26.17	0.68	-0.750			
0.8527	54570.01	3.2070	3.2070	-0.1538	26.18	0.69	-0.750			
0.8531	54599.22	3.2040	3.2040	-0.1524	26.18	0.69	-0.750			
0.8536	54628.35	3.2010	3.2010	-0.1512	26.18	0.69	-0.750			
0.8540	54657.15	3.1980	3.1980	-0.1500	26.18	0.69	-0.750			
0.8545	54685.93	3.1950	3.1950	-0.1487	26.19	0.70	-0.750			
0.8549	54714.53	3.1920	3.1920	-0.1473	26.19	0.70	-0.750			
0.8554	54742.66	3.1890	3.1890	-0.1456	26.19	0.70	-0.750			
0.8558	54770.56	3.1860	3.1860	-0.1444	26.20	0.71	-0.750			
0.8562	54798.01	3.1830	3.1830	-0.1428	26.20	0.71	-0.750			
0.8566	54825.24	3.1800	3.1799	-0.1413	26.20	0.71	-0.750			
0.8571	54852.24	3.1770	3.1770	-0.1400	26.21	0.72	-0.750			
0.8575	54878.94	3.1740	3.1740	-0.1388	26.21	0.72	-0.750			
0.8579	54905.49	3.1710	3.1710	-0.1377	26.21	0.72	-0.750			
0.8583	54931.69	3.1680	3.1680	-0.1370	26.21	0.72	-0.750			
0.8587	54957.92	3.1650	3.1650	-0.1362	26.22	0.73	-0.750			
0.8591	54983.92	3.1620	3.1620	-0.1347	26.22	0.73	-0.750			
0.8595	55009.80	3.1590	3.1590	-0.1335	26.22	0.73	-0.750			
0.8599	55035.26	3.1560	3.1561	-0.1329	26.23	0.74	-0.750			
0.8603	55060.67	3.1530	3.1530	-0.1319	26.23	0.74	-0.750			
0.8607	55085.92	3.1500	3.1500	-0.1307	26.23	0.74	-0.750			
0.8611	55110.89	3.1470	3.1469	-0.1295	26.23	0.74	-0.750			
0.8615	55135.49	3.1440	3.1441	-0.1282	26.24	0.75	-0.750			
0.8619	55160.06	3.1410	3.1411	-0.1273	26.24	0.75	-0.750			
0.8623	55184.65	3.1380	3.1380	-0.1266	26.24	0.75	-0.750			
0.8626	55208.77	3.1350	3.1349	-0.1256	26.25	0.76	-0.750			
0.8630	55232.57	3.1320	3.1320	-0.1243	26.25	0.76	-0.750			
0.8634	55256.44	3.1290	3.1291	-0.1235	26.25	0.76	-0.750			
0.8638	55280.18	3.1260	3.1259	-0.1229	26.25	0.76	-0.750			
0.8641	55303.73	3.1230	3.1230	-0.1217	26.26	0.77	-0.750			
0.8645	55327.06	3.1200	3.1199	-0.1207	26.26	0.77	-0.750			
0.8648	55350.03	3.1170	3.1171	-0.1199	26.26	0.77	-0.750			
0.8652	55372.97	3.1140	3.1140	-0.1190	26.26	0.77	-0.750			
0.8656	55395.74	3.1110	3.1110	-0.1179	26.27	0.78	-0.750			
0.8659	55418.28	3.1080	3.1080	-0.1169	26.27	0.78	-0.750			
0.8663	55440.64	3.1050	3.1050	-0.1161	26.27	0.78	-0.750			
0.8666	55462.72	3.1020	3.1021	-0.1154	26.27	0.78	-0.750			
0.8670	55484.82	3.0990	3.0990	-0.1148	26.28	0.79	-0.750			
0.8673	55506.86	3.0960	3.0959	-0.1139	26.28	0.79	-0.750			
0.8676	55528.55	3.0930	3.0929	-0.1129	26.28	0.79	-0.750			
0.8680	55550.20	3.0900	3.0900	-0.1121	26.29	0.80	-0.750			
0.8683	55571.82	3.0870	3.0870	-0.1116	26.29	0.80	-0.750			
0.8686	55593.08	3.0840	3.0840	-0.1108	26.29	0.80	-0.750			
0.8690	55614.26	3.0810	3.0811	-0.1099	26.30	0.81	-0.750			
0.8693	55635.16	3.0780	3.0779	-0.1095	26.30	0.81	-0.750			
0.8696	55655.92	3.0750	3.0750	-0.1087	26.30	0.81	-0.750			
0.8700	55676.95	3.0720	3.0721	-0.1079	26.31	0.82	-0.750			
0.8703	55697.75	3.0690	3.0689	-0.1075	26.31	0.82	-0.750			
0.8706	55718.37	3.0660	3.0660	-0.1065	26.32	0.83	-0.750			
0.8709	55738.87	3.0630	3.0631	-0.1057	26.32	0.83	-0.750			
0.8712	55758.93	3.0600	3.0600	-0.1050	26.32	0.83	-0.750			
0.8715	55778.99	3.0570	3.0569	-0.1040	26.33	0.84	-0.750			
0.8719	55798.80	3.0540	3.0540	-0.1034	26.33	0.84	-0.750			
0.8722	55818.34	3.0510	3.0510	-0.1024	26.33	0.84	-0.750			
0.8725	55838.04	3.0480	3.0480	-0.1019	26.34	0.85	-0.750			
0.8728	55857.64	3.0450	3.0450	-0.1016	26.34	0.85	-0.750			
0.8731	55877.14	3.0420	3.0421	-0.1009	26.34	0.85	-0.750			
0.8734	55896.55	3.0390	3.0389	-0.1004	26.35	0.86	-0.750			
0.8737	55915.64	3.0360	3.0361	-0.0998	26.35	0.86	-0.750			
0.8740	55934.67	3.0330	3.0330	-0.0991	26.35	0.86	-0.750			
0.8743	55953.70	3.0300	3.0299	-0.0985	26.36	0.87	-0.750			
0.8746	55972.53	3.0270	3.0270	-0.0979	26.36	0.87	-0.750			
0.8749	55991.38	3.0240	3.0239	-0.0970	26.36	0.87	-0.750			
0.8752	56010.03	3.0210	3.0210	-0.0963	26.37	0.88	-0.750			
0.8754	56028.34	3.0180	3.0180	-0.0956	26.37	0.88	-0.750			
0.8757	56046.68	3.0150	3.0150	-0.0949	26.37	0.88	-0.750			
0.8760	56064.81	3.0120	3.0121	-0.0940	26.38	0.89	-0.750			
0.8763	56082.57	3.0090	3.0090	-0.0933	26.38	0.89	-0.750			
0.8766	56100.46	3.0060	3.0060	-0.0930	26.38	0.89	-0.750			
0.8768	56118.35	3.0030	3.0030	-0.0945	26.39	0.90	-0.750			
