Ah_balance (normalized)	Ah_balance (mAh)	Voltage - fit (V)	Voltage -  interpolate (V)	dQ/dV (1/V)	Temperature (°C)	Temperature - diff (°C)	Current (C)	R_DC 0ms (mOhm)	R_DC 50ms (mOhm)	R_DC 50 ms PEC (mOhm)
0.2375	15200.18	3.9740	3.9740	0.8486	26.10	0.14	0.750			
0.2401	15366.59	3.9710	3.9709	0.8703	26.11	0.15	0.750			
0.2427	15533.79	3.9680	3.9680	0.8724	26.11	0.15	0.750			
0.2453	15701.49	3.9650	3.9650	0.8748	26.12	0.16	0.750			
0.2480	15870.05	3.9620	3.9620	0.8778	26.12	0.16	0.750			
0.2506	16039.17	3.9590	3.9590	0.8809	26.13	0.17	0.750			
0.2532	16207.22	3.9560	3.9560	0.8840	26.13	0.17	0.750			
0.2559	16377.59	3.9530	3.9530	0.8868	26.13	0.17	0.750			
0.2586	16549.28	3.9500	3.9499	0.8911	26.14	0.18	0.750			
0.2612	16719.79	3.9470	3.9471	0.8930	26.14	0.18	0.750			
0.2639	16892.21	3.9440	3.9440	0.8903	26.14	0.18	0.750			
0.2666	17062.62	3.9410	3.9410	0.8916	26.14	0.18	0.750			
0.2693	17232.57	3.9380	3.9380	0.8949	26.14	0.18	0.750			
0.2719	17404.60	3.9350	3.9349	0.8970	26.14	0.18	0.750			
0.2746	17577.58	3.9320	3.9320	0.9013	26.14	0.18	0.750			
0.2774	17751.10	3.9290	3.9290	0.9028	26.14	0.18	0.750			
0.2801	17925.52	3.9260	3.9260	0.9056	26.15	0.19	0.750			
0.2828	18100.25	3.9230	3.9230	0.9114	26.15	0.19	0.750			
0.2855	18273.55	3.9200	3.9200	0.9095	26.15	0.19	0.750			
0.2883	18448.54	3.9170	3.9170	0.9111	26.15	0.19	0.750			
0.2910	18623.79	3.9140	3.9140	0.9166	26.14	0.18	0.750			
0.2937	18799.83	3.9110	3.9110	0.9181	26.14	0.18	0.750			
0.2965	18976.75	3.9080	3.9079	0.9219	26.14	0.18	0.750			
0.2993	19154.13	3.9050	3.9050	0.9225	26.14	0.18	0.750			
0.3020	19330.38	3.9020	3.9020	0.9263	26.14	0.18	0.750			
0.3048	19509.68	3.8990	3.8990	0.9314	26.14	0.18	0.750			
0.3076	19689.15	3.8960	3.8960	0.9333	26.14	0.18	0.750			
0.3104	19867.74	3.8930	3.8930	0.9335	26.14	0.18	0.750			
0.3132	20047.58	3.8900	3.8900	0.9380	26.14	0.18	0.750			
0.3160	20226.43	3.8870	3.8870	0.9455	26.14	0.18	0.750			
0.3189	20409.13	3.8840	3.8840	0.9505	26.14	0.18	0.750			
0.3218	20592.04	3.8810	3.8809	0.9515	26.14	0.18	0.750			
0.3246	20777.40	3.8780	3.8781	0.9541	26.14	0.18	0.750			
0.3275	20960.86	3.8750	3.8751	0.9565	26.13	0.17	0.750			
0.3304	21144.15	3.8720	3.8720	0.9603	26.13	0.17	0.750			
0.3332	21326.21	3.8690	3.8690	0.9626	26.12	0.16	0.750			
0.3361	21511.48	3.8660	3.8660	0.9670	26.12	0.16	0.750			
0.3390	21699.14	3.8630	3.8630	0.9778	26.11	0.15	0.750			
0.3420	21887.88	3.8600	3.8600	0.9847	26.11	0.15	0.750			
0.3450	22078.23	3.8570	3.8570	0.9936	26.10	0.14	0.750			
0.3480	22269.14	3.8540	3.8540	0.9967	26.10	0.14	0.750			
0.3510	22460.99	3.8510	3.8510	1.0008	26.09	0.13	0.750			
0.3539	22652.76	3.8480	3.8480	1.0073	26.09	0.13	0.750			
0.3570	22847.49	3.8450	3.8450	1.0173	26.08	0.12	0.750			
0.3601	23043.78	3.8420	3.8420	1.0186	26.08	0.12	0.750			
0.3631	23239.71	3.8390	3.8390	1.0229	26.07	0.11	0.750			
0.3662	23435.08	3.8360	3.8361	1.0326	26.07	0.11	0.750			
0.3693	23634.54	3.8330	3.8330	1.0437	26.06	0.10	0.750			
0.3724	23836.44	3.8300	3.8299	1.0525	26.06	0.10	0.750			
0.3756	24038.50	3.8270	3.8270	1.0628	26.05	0.09	0.750			
0.3788	24243.40	3.8240	3.8241	1.0765	26.05	0.09	0.750			
0.3821	24453.10	3.8210	3.8210	1.0888	26.04	0.08	0.750			
0.3854	24662.68	3.8180	3.8179	1.0951	26.04	0.08	0.750			
0.3886	24873.03	3.8150	3.8150	1.1033	26.03	0.07	0.750			
0.3920	25085.72	3.8120	3.8120	1.1158	26.02	0.06	0.750			
0.3953	25300.44	3.8090	3.8090	1.1291	26.01	0.05	0.750			
0.3987	25518.45	3.8060	3.8060	1.1386	26.01	0.05	0.750			
0.4021	25737.20	3.8030	3.8030	1.1518	26.01	0.05	0.750			
0.4056	25959.73	3.8000	3.8000	1.1706	26.00	0.04	0.750			
0.4092	26187.18	3.7970	3.7969	1.1827	26.00	0.04	0.750			
0.4127	26414.39	3.7940	3.7940	1.2022	26.00	0.04	0.750			
0.4163	26645.76	3.7910	3.7911	1.2225	25.99	0.03	0.750			
0.4201	26884.03	3.7880	3.7880	1.2356	25.98	0.02	0.750			
0.4238	27122.67	3.7850	3.7849	1.2550	25.98	0.02	0.750			
0.4276	27364.55	3.7820	3.7821	1.2755	25.97	0.01	0.750			
0.4314	27611.26	3.7790	3.7790	1.2970	25.97	0.01	0.750			
0.4354	27863.33	3.7760	3.7759	1.3153	25.96	-0.00	0.750			
0.4393	28115.45	3.7730	3.7730	1.3293	25.95	-0.01	0.750			
0.4433	28372.27	3.7700	3.7701	1.3506	25.95	-0.01	0.750			
0.4474	28634.41	3.7670	3.7668	1.3778	25.94	-0.02	0.750			
0.4516	28899.47	3.7640	3.7641	1.3956	25.93	-0.03	0.750			
0.4558	29169.42	3.7610	3.7611	1.4263	25.93	-0.03	0.750			
0.4601	29446.81	3.7580	3.7580	1.4505	25.92	-0.04	0.750			
0.4645	29726.40	3.7550	3.7550	1.4724	25.92	-0.04	0.750			
0.4689	30010.53	3.7520	3.7521	1.5016	25.91	-0.05	0.750			
0.4734	30299.50	3.7490	3.7489	1.5353	25.91	-0.05	0.750			
0.4781	30597.67	3.7460	3.7458	1.5702	25.90	-0.06	0.750			
0.4829	30903.39	3.7430	3.7431	1.6040	25.89	-0.07	0.750			
0.4877	31215.47	3.7400	3.7398	1.6392	25.89	-0.07	0.750			
0.4927	31534.25	3.7370	3.7371	1.6832	25.88	-0.08	0.750			
0.4978	31861.90	3.7340	3.7339	1.7224	25.88	-0.08	0.750			
0.5030	32192.32	3.7310	3.7311	1.7700	25.87	-0.09	0.750			
0.5084	32535.22	3.7280	3.7279	1.8031	25.86	-0.10	0.750			
0.5139	32888.71	3.7250	3.7250	1.8541	25.85	-0.11	0.750			
0.5195	33250.50	3.7220	3.7221	1.9005	25.84	-0.12	0.750			
0.5253	33621.46	3.7190	3.7190	1.9534	25.84	-0.12	0.750			
0.5312	33996.34	3.7160	3.7160	2.0005	25.84	-0.12	0.750			
0.5372	34383.86	3.7130	3.7131	2.0521	25.84	-0.12	0.750	0.355	0.497	
0.5436	34787.32	3.7100	3.7100	2.1110	25.83	-0.13	0.750			
0.5500	35197.14	3.7070	3.7070	2.1700	25.82	-0.14	0.750			
0.5565	35615.94	3.7040	3.7042	2.2210	25.82	-0.14	0.750			
0.5633	36050.01	3.7010	3.7010	2.2612	25.82	-0.14	0.750			
0.5702	36492.02	3.6980	3.6980	2.3319	25.81	-0.15	0.750			
0.5772	36942.04	3.6950	3.6950	2.3856	25.81	-0.15	0.750			
0.5844	37400.84	3.6920	3.6921	2.4457	25.82	-0.14	0.750			
0.5919	37879.94	3.6890	3.6890	2.5281	25.81	-0.15	0.750			
0.5996	38374.85	3.6860	3.6859	2.5888	25.80	-0.16	0.750			
0.6075	38880.81	3.6830	3.6830	2.6492	25.80	-0.16	0.750			
0.6156	39397.63	3.6800	3.6800	2.6765	25.79	-0.17	0.750			
0.6236	39911.09	3.6770	3.6770	2.6690	25.78	-0.18	0.750			
0.6317	40427.92	3.6740	3.6741	2.6360	25.78	-0.18	0.750			
0.6396	40933.28	3.6710	3.6710	2.5614	25.78	-0.18	0.750			
0.6472	41423.92	3.6680	3.6680	2.4408	25.78	-0.18	0.750			
0.6544	41883.08	3.6650	3.6650	2.2919	25.77	-0.19	0.750			
0.6610	42303.70	3.6620	3.6621	2.1263	25.76	-0.20	0.750			
0.6671	42693.85	3.6590	3.6589	1.9611	25.76	-0.20	0.750			
0.6727	43051.90	3.6560	3.6560	1.8079	25.76	-0.20	0.750			
0.6778	43380.43	3.6530	3.6531	1.6778	25.76	-0.20	0.750			
0.6826	43687.49	3.6500	3.6500	1.5623	25.75	-0.21	0.750			
0.6870	43970.20	3.6470	3.6470	1.4662	25.75	-0.21	0.750			
0.6912	44237.04	3.6440	3.6440	1.3851	25.74	-0.22	0.750			
0.6952	44492.55	3.6410	3.6410	1.3285	25.74	-0.22	0.750			
0.6991	44740.50	3.6380	3.6380	1.2865	25.74	-0.22	0.750			
0.7029	44982.55	3.6350	3.6350	1.2532	25.74	-0.22	0.750			
0.7065	45217.78	3.6320	3.6321	1.2312	25.74	-0.22	0.750			
0.7102	45452.15	3.6290	3.6289	1.2045	25.74	-0.22	0.750			
0.7137	45679.29	3.6260	3.6260	1.1959	25.74	-0.22	0.750			
0.7173	45905.20	3.6230	3.6230	1.1862	25.74	-0.22	0.750			
0.7208	46132.87	3.6200	3.6200	1.1833	25.74	-0.22	0.750			
0.7244	46360.21	3.6170	3.6170	1.1799	25.74	-0.22	0.750			
0.7279	46587.21	3.6140	3.6140	1.1766	25.74	-0.22	0.750			
0.7314	46812.59	3.6110	3.6110	1.1746	25.74	-0.22	0.750			
0.7350	47037.65	3.6080	3.6080	1.1683	25.74	-0.22	0.750			
0.7385	47260.83	3.6050	3.6050	1.1745	25.74	-0.22	0.750			
0.7420	47485.45	3.6020	3.6020	1.1768	25.74	-0.22	0.750			
0.7455	47712.65	3.5990	3.5990	1.1848	25.74	-0.22	0.750			
0.7490	47936.98	3.5960	3.5960	1.2063	25.74	-0.22	0.750			
0.7526	48168.10	3.5930	3.5931	1.2308	25.74	-0.22	0.750			
0.7563	48405.75	3.5900	3.5900	1.2630	25.74	-0.22	0.750			
0.7602	48650.55	3.5870	3.5868	1.2988	25.74	-0.22	0.750			
0.7641	48902.53	3.5840	3.5841	1.3414	25.74	-0.22	0.750			
0.7682	49165.96	3.5810	3.5810	1.3867	25.74	-0.22	0.750			
0.7724	49435.77	3.5780	3.5780	1.4262	25.74	-0.22	0.750			
0.7768	49712.33	3.5750	3.5750	1.4564	25.74	-0.22	0.750			
0.7812	49996.18	3.5720	3.5720	1.4970	25.73	-0.23	0.750			
0.7857	50287.69	3.5690	3.5689	1.5318	25.73	-0.23	0.750			
0.7904	50586.74	3.5660	3.5659	1.5567	25.73	-0.23	0.750			
0.7952	50890.53	3.5630	3.5631	1.5806	25.74	-0.22	0.750			
0.8000	51198.74	3.5600	3.5600	1.5998	25.74	-0.22	0.750			
0.8049	51512.77	3.5570	3.5570	1.5998	25.74	-0.22	0.750			
0.8097	51821.22	3.5540	3.5541	1.6070	25.74	-0.22	0.750			
0.8145	52128.61	3.5510	3.5510	1.5983	25.74	-0.22	0.750			
0.8193	52436.63	3.5480	3.5480	1.5820	25.75	-0.21	0.750			
0.8241	52741.15	3.5450	3.5449	1.5609	25.75	-0.21	0.750			
0.8288	53045.94	3.5420	3.5420	1.4928	25.76	-0.20	0.750			
0.8334	53339.09	3.5390	3.5389	1.4069	25.76	-0.20	0.750			
0.8377	53613.87	3.5360	3.5361	1.2594	25.77	-0.19	0.750			
0.8414	53851.42	3.5330	3.5332	1.0971	25.78	-0.18	0.750			
0.8445	54049.54	3.5300	3.5301	0.9171	25.79	-0.17	0.750			
0.8469	54198.43	3.5270	3.5268	0.7474	25.80	-0.16	0.750			
0.8486	54310.21	3.5240	3.5240	0.5858	25.81	-0.15	0.750			
0.8500	54402.43	3.5210	3.5209	0.4942	25.82	-0.14	0.750			
0.8513	54480.57	3.5180	3.5178	0.4172	25.83	-0.13	0.750			
0.8524	54551.85	3.5150	3.5149	0.3752	25.83	-0.13	0.750			
0.8534	54617.54	3.5120	3.5120	0.3432	25.84	-0.12	0.750			
0.8544	54679.19	3.5090	3.5090	0.3219	25.85	-0.11	0.750			
0.8553	54739.05	3.5060	3.5058	0.3042	25.85	-0.11	0.750			
0.8562	54794.83	3.5030	3.5030	0.2885	25.86	-0.10	0.750			
0.8570	54848.38	3.5000	3.5001	0.2766	25.86	-0.10	0.750			
0.8578	54899.81	3.4970	3.4970	0.2683	25.87	-0.09	0.750			
0.8586	54949.99	3.4940	3.4940	0.2612	25.87	-0.09	0.750			
0.8594	54998.46	3.4910	3.4910	0.2538	25.88	-0.08	0.750			
0.8601	55046.51	3.4880	3.4881	0.2491	25.88	-0.08	0.750			
0.8609	55094.61	3.4850	3.4850	0.2450	25.89	-0.07	0.750			
0.8616	55141.28	3.4820	3.4820	0.2396	25.89	-0.07	0.750			
0.8623	55186.82	3.4790	3.4789	0.2339	25.90	-0.06	0.750			
0.8630	55231.22	3.4760	3.4760	0.2272	25.90	-0.06	0.750			
0.8637	55274.39	3.4730	3.4730	0.2214	25.91	-0.05	0.750			
0.8643	55315.64	3.4700	3.4700	0.2157	25.91	-0.05	0.750			
0.8649	55356.57	3.4670	3.4671	0.2107	25.91	-0.05	0.750			
0.8656	55396.12	3.4640	3.4640	0.2060	25.92	-0.04	0.750			
0.8662	55435.27	3.4610	3.4610	0.2016	25.92	-0.04	0.750			
0.8668	55473.55	3.4580	3.4580	0.1974	25.93	-0.03	0.750			
0.8674	55511.10	3.4550	3.4551	0.1937	25.93	-0.03	0.750			
0.8679	55548.39	3.4520	3.4520	0.1893	25.93	-0.03	0.750			
0.8685	55584.51	3.4490	3.4490	0.1844	25.94	-0.02	0.750			
0.8690	55619.03	3.4460	3.4460	0.1789	25.94	-0.02	0.750			
0.8696	55652.92	3.4430	3.4431	0.1742	25.94	-0.02	0.750			
0.8701	55685.86	3.4400	3.4400	0.1699	25.95	-0.01	0.750			
0.8706	55718.02	3.4370	3.4369	0.1652	25.95	-0.01	0.750			
0.8711	55749.10	3.4340	3.4340	0.1604	25.95	-0.01	0.750			
0.8716	55779.65	3.4310	3.4310	0.1555	25.96	-0.00	0.750			
0.8720	55809.20	3.4280	3.4280	0.1515	25.96	-0.00	0.750			
0.8725	55837.85	3.4250	3.4250	0.1471	25.96	0.00	0.750			
0.8729	55865.45	3.4220	3.4220	0.1421	25.96	0.00	0.750			
0.8733	55892.40	3.4190	3.4189	0.1376	25.97	0.01	0.750			
0.8737	55918.37	3.4160	3.4160	0.1330	25.97	0.01	0.750			
0.8741	55943.58	3.4130	3.4130	0.1288	25.97	0.01	0.750			
0.8745	55967.95	3.4100	3.4101	0.1240	25.98	0.02	0.750			
0.8749	55991.50	3.4070	3.4069	0.1194	25.98	0.02	0.750			
0.8752	56013.73	3.4040	3.4040	0.1143	25.98	0.02	0.750			
0.8756	56035.22	3.4010	3.4010	0.1096	25.98	0.02	0.750			
0.8759	56056.19	3.3980	3.3980	0.1041	25.98	0.02	0.750			
0.8762	56075.86	3.3950	3.3949	0.0990	25.99	0.03	0.750			
0.8765	56094.32	3.3920	3.3921	0.0932	25.99	0.03	0.750			
0.8768	56112.62	3.3890	3.3890	0.0857	25.99	0.03	0.750			
0.8770	56128.31	3.3860	3.3860	0.0777	25.99	0.03	0.750			
0.8772	56143.19	3.3830	3.3831	0.0709	25.99	0.03	0.750			
0.8774	56155.96	3.3800	3.3802	0.0620	25.99	0.03	0.750			
0.8776	56167.19	3.3770	3.3774	0.0532	26.00	0.04	0.750			
0.8778	56176.52	3.3740	3.3748	0.0440	26.00	0.04	0.750			
0.8779	56184.09	3.3710	3.3722	0.0349	26.00	0.04	0.750			
0.8780	56189.91	3.3680	3.3698	0.0257	26.00	0.04	0.750			
