Ah_balance (normalized)	Ah_balance (mAh)	Voltage - fit (V)	Voltage -  interpolate (V)	dQ/dV (1/V)	Temperature (°C)	Temperature - diff (°C)	Current (C)	R_DC 0ms (mOhm)	R_DC 50ms (mOhm)	R_DC 50 ms PEC (mOhm)
0.0001	8.85	4.1610	4.1609	-0.0895	25.22	0.00	-0.750			
0.0005	31.57	4.1580	4.1578	-0.1420	25.22	0.00	-0.750			
0.0010	63.69	4.1550	4.1550	-0.1876	25.22	0.00	-0.750			
0.0016	104.02	4.1520	4.1520	-0.2312	25.22	0.00	-0.750			
0.0024	152.84	4.1490	4.1490	-0.2740	25.22	0.00	-0.750			
0.0033	210.33	4.1460	4.1460	-0.3164	25.22	0.00	-0.750			
0.0043	274.95	4.1430	4.1430	-0.3569	25.22	0.00	-0.750			
0.0054	347.73	4.1400	4.1401	-0.3960	25.22	0.00	-0.750			
0.0067	428.05	4.1370	4.1370	-0.4334	25.22	0.00	-0.750			
0.0081	515.32	4.1340	4.1340	-0.4684	25.22	0.00	-0.750			
0.0095	609.64	4.1310	4.1310	-0.5008	25.22	0.00	-0.750			
0.0111	709.63	4.1280	4.1280	-0.5284	25.22	0.00	-0.750			
0.0127	815.05	4.1250	4.1250	-0.5545	25.22	0.00	-0.750			
0.0144	923.71	4.1220	4.1220	-0.5776	25.22	0.00	-0.750			
0.0162	1038.50	4.1190	4.1190	-0.5970	25.22	0.00	-0.750			
0.0181	1155.67	4.1160	4.1159	-0.6109	25.22	0.00	-0.750			
0.0199	1274.65	4.1130	4.1130	-0.6264	25.22	0.00	-0.750	0.388	0.490	
0.0218	1396.24	4.1100	4.1100	-0.6401	25.22	0.00	-0.750			
0.0238	1521.39	4.1070	4.1069	-0.6510	25.22	0.00	-0.750			
0.0257	1646.87	4.1040	4.1040	-0.6583	25.22	0.00	-0.750			
0.0277	1774.17	4.1010	4.1011	-0.6682	25.22	0.00	-0.750			
0.0297	1903.47	4.0980	4.0980	-0.6764	25.22	0.00	-0.750			
0.0318	2034.65	4.0950	4.0949	-0.6836	25.23	0.01	-0.750			
0.0338	2165.53	4.0920	4.0920	-0.6919	25.23	0.01	-0.750			
0.0359	2299.69	4.0890	4.0890	-0.6970	25.23	0.01	-0.750			
0.0381	2436.39	4.0860	4.0860	-0.7051	25.24	0.02	-0.750			
0.0402	2571.93	4.0830	4.0831	-0.7077	25.24	0.02	-0.750	0.401	0.496	
0.0423	2707.98	4.0800	4.0801	-0.7094	25.24	0.02	-0.750			
0.0444	2843.92	4.0770	4.0769	-0.7133	25.25	0.03	-0.750			
0.0466	2980.51	4.0740	4.0740	-0.7153	25.25	0.03	-0.750			
0.0487	3117.91	4.0710	4.0710	-0.7209	25.25	0.03	-0.750			
0.0509	3257.43	4.0680	4.0680	-0.7237	25.26	0.04	-0.750			
0.0531	3396.69	4.0650	4.0651	-0.7301	25.26	0.04	-0.750			
0.0553	3537.76	4.0620	4.0619	-0.7327	25.26	0.04	-0.750			
0.0575	3679.35	4.0590	4.0589	-0.7344	25.27	0.05	-0.750			
0.0597	3820.42	4.0560	4.0560	-0.7376	25.27	0.05	-0.750	0.384	0.502	
0.0619	3962.78	4.0530	4.0530	-0.7378	25.27	0.05	-0.750			
0.0641	4104.96	4.0500	4.0499	-0.7394	25.28	0.06	-0.750			
0.0664	4247.28	4.0470	4.0471	-0.7410	25.28	0.06	-0.750			
0.0686	4387.91	4.0440	4.0440	-0.7407	25.29	0.07	-0.750			
0.0708	4530.24	4.0410	4.0410	-0.7477	25.29	0.07	-0.750			
0.0730	4674.85	4.0380	4.0380	-0.7506	25.30	0.08	-0.750			
0.0753	4820.79	4.0350	4.0349	-0.7519	25.30	0.08	-0.750			
0.0776	4965.80	4.0320	4.0319	-0.7500	25.31	0.09	-0.750			
0.0798	5109.86	4.0290	4.0289	-0.7508	25.31	0.09	-0.750	0.388	0.497	
0.0821	5253.77	4.0260	4.0260	-0.7510	25.32	0.10	-0.750			
0.0843	5396.78	4.0230	4.0229	-0.7532	25.33	0.11	-0.750			
0.0866	5541.49	4.0200	4.0200	-0.7489	25.34	0.12	-0.750			
0.0889	5686.56	4.0170	4.0170	-0.7525	25.34	0.12	-0.750			
0.0911	5831.29	4.0140	4.0141	-0.7572	25.35	0.13	-0.750			
0.0934	5976.30	4.0110	4.0110	-0.7604	25.35	0.13	-0.750			
0.0957	6122.31	4.0080	4.0079	-0.7622	25.36	0.14	-0.750			
0.0980	6269.07	4.0050	4.0049	-0.7628	25.36	0.14	-0.750			
0.1003	6417.53	4.0020	4.0020	-0.7637	25.36	0.14	-0.750	0.404	0.501	
0.1026	6564.48	3.9990	3.9991	-0.7653	25.37	0.15	-0.750			
0.1049	6710.57	3.9960	3.9960	-0.7639	25.37	0.15	-0.750			
0.1071	6855.63	3.9930	3.9929	-0.7640	25.38	0.16	-0.750			
0.1094	7001.16	3.9900	3.9899	-0.7638	25.38	0.16	-0.750			
0.1117	7147.80	3.9870	3.9871	-0.7684	25.38	0.16	-0.750			
0.1140	7297.86	3.9840	3.9840	-0.7745	25.39	0.17	-0.750			
0.1164	7447.50	3.9810	3.9811	-0.7758	25.39	0.17	-0.750			
0.1187	7595.89	3.9780	3.9779	-0.7743	25.40	0.18	-0.750			
0.1210	7745.05	3.9750	3.9751	-0.7789	25.41	0.19	-0.750	0.395	0.497	
0.1234	7894.69	3.9720	3.9720	-0.7794	25.41	0.19	-0.750			
0.1257	8044.97	3.9690	3.9689	-0.7810	25.42	0.20	-0.750			
0.1280	8193.96	3.9660	3.9661	-0.7792	25.43	0.21	-0.750			
0.1304	8344.53	3.9630	3.9630	-0.7808	25.43	0.21	-0.750			
0.1327	8493.23	3.9600	3.9600	-0.7849	25.44	0.22	-0.750			
0.1351	8644.64	3.9570	3.9570	-0.7842	25.45	0.23	-0.750			
0.1374	8795.17	3.9540	3.9539	-0.7851	25.45	0.23	-0.750			
0.1398	8947.49	3.9510	3.9511	-0.7873	25.46	0.24	-0.750	0.385	0.492	
0.1422	9098.70	3.9480	3.9480	-0.7879	25.46	0.24	-0.750			
0.1445	9250.01	3.9450	3.9449	-0.7869	25.47	0.25	-0.750			
0.1469	9400.40	3.9420	3.9420	-0.7879	25.47	0.25	-0.750			
0.1492	9549.67	3.9390	3.9390	-0.7900	25.48	0.26	-0.750			
0.1516	9701.94	3.9360	3.9359	-0.7965	25.49	0.27	-0.750			
0.1540	9855.90	3.9330	3.9330	-0.8000	25.49	0.27	-0.750			
0.1564	10011.26	3.9300	3.9299	-0.7999	25.49	0.27	-0.750			
0.1588	10166.14	3.9270	3.9270	-0.7989	25.50	0.28	-0.750			
0.1612	10319.57	3.9240	3.9240	-0.7996	25.50	0.28	-0.750	0.385	0.494	
0.1636	10472.14	3.9210	3.9210	-0.7959	25.51	0.29	-0.750			
0.1660	10624.40	3.9180	3.9180	-0.7957	25.51	0.29	-0.750			
0.1684	10774.98	3.9150	3.9150	-0.7950	25.51	0.29	-0.750			
0.1708	10928.29	3.9120	3.9120	-0.8000	25.52	0.30	-0.750			
0.1732	11082.48	3.9090	3.9090	-0.8023	25.52	0.30	-0.750			
0.1756	11237.49	3.9060	3.9060	-0.8040	25.53	0.31	-0.750			
0.1780	11391.37	3.9030	3.9030	-0.8047	25.53	0.31	-0.750			
0.1804	11546.99	3.9000	3.9000	-0.8064	25.53	0.31	-0.750	0.375	0.493	
0.1828	11701.82	3.8970	3.8969	-0.8080	25.53	0.31	-0.750			
0.1853	11857.53	3.8940	3.8940	-0.8067	25.54	0.32	-0.750			
0.1877	12011.72	3.8910	3.8910	-0.8066	25.54	0.32	-0.750			
0.1901	12166.05	3.8880	3.8881	-0.8069	25.54	0.32	-0.750			
0.1925	12320.84	3.8850	3.8850	-0.8115	25.54	0.32	-0.750			
0.1949	12475.94	3.8820	3.8819	-0.8163	25.55	0.33	-0.750			
0.1974	12634.38	3.8790	3.8790	-0.8161	25.55	0.33	-0.750			
0.1999	12791.58	3.8760	3.8760	-0.8142	25.55	0.33	-0.750	0.388	0.491	
0.2023	12949.69	3.8730	3.8730	-0.8169	25.56	0.34	-0.750			
0.2048	13105.94	3.8700	3.8699	-0.8128	25.56	0.34	-0.750			
0.2072	13259.85	3.8670	3.8670	-0.8112	25.57	0.35	-0.750			
0.2096	13414.87	3.8640	3.8640	-0.8085	25.57	0.35	-0.750			
0.2120	13569.91	3.8610	3.8610	-0.8134	25.57	0.35	-0.750			
0.2145	13728.46	3.8580	3.8580	-0.8155	25.58	0.36	-0.750			
0.2170	13885.06	3.8550	3.8550	-0.8171	25.58	0.36	-0.750			
0.2194	14041.38	3.8520	3.8520	-0.8182	25.59	0.37	-0.750	0.384	0.504	
0.2219	14198.61	3.8490	3.8490	-0.8177	25.59	0.37	-0.750			
0.2243	14355.24	3.8460	3.8459	-0.8177	25.59	0.37	-0.750			
0.2268	14512.80	3.8430	3.8430	-0.8186	25.60	0.38	-0.750			
0.2292	14669.80	3.8400	3.8400	-0.8175	25.60	0.38	-0.750			
0.2317	14827.23	3.8370	3.8370	-0.8216	25.61	0.39	-0.750			
0.2341	14984.08	3.8340	3.8340	-0.8201	25.61	0.39	-0.750			
0.2366	15142.55	3.8310	3.8310	-0.8198	25.61	0.39	-0.750			
0.2391	15300.63	3.8280	3.8279	-0.8193	25.62	0.40	-0.750	0.378	0.493	
0.2415	15457.62	3.8250	3.8250	-0.8162	25.62	0.40	-0.750			
0.2440	15613.96	3.8220	3.8220	-0.8154	25.63	0.41	-0.750			
0.2464	15769.60	3.8190	3.8190	-0.8153	25.63	0.41	-0.750			
0.2488	15925.38	3.8160	3.8160	-0.8160	25.63	0.41	-0.750			
0.2513	16083.15	3.8130	3.8130	-0.8137	25.64	0.42	-0.750			
0.2537	16239.79	3.8100	3.8100	-0.8170	25.64	0.42	-0.750			
0.2562	16396.83	3.8070	3.8070	-0.8180	25.64	0.42	-0.750			
0.2587	16553.79	3.8040	3.8040	-0.8186	25.64	0.42	-0.750			
0.2611	16710.72	3.8010	3.8010	-0.8176	25.64	0.42	-0.750	0.394	0.503	
0.2636	16868.14	3.7980	3.7980	-0.8174	25.64	0.42	-0.750			
0.2660	17025.24	3.7950	3.7951	-0.8183	25.64	0.42	-0.750			
0.2685	17181.46	3.7920	3.7921	-0.8156	25.64	0.42	-0.750			
0.2709	17338.61	3.7890	3.7890	-0.8235	25.65	0.43	-0.750			
0.2734	17496.24	3.7860	3.7860	-0.8271	25.65	0.43	-0.750			
0.2759	17656.00	3.7830	3.7829	-0.8287	25.66	0.44	-0.750			
0.2784	17815.99	3.7800	3.7800	-0.8281	25.66	0.44	-0.750			
0.2809	17976.10	3.7770	3.7771	-0.8304	25.66	0.44	-0.750	0.382	0.501	
0.2834	18134.89	3.7740	3.7740	-0.8315	25.66	0.44	-0.750			
0.2858	18293.30	3.7710	3.7708	-0.8324	25.66	0.44	-0.750			
0.2883	18452.86	3.7680	3.7680	-0.8336	25.66	0.44	-0.750			
0.2908	18612.16	3.7650	3.7651	-0.8418	25.66	0.44	-0.750			
0.2934	18776.07	3.7620	3.7619	-0.8512	25.66	0.44	-0.750			
0.2959	18940.76	3.7590	3.7590	-0.8540	25.67	0.45	-0.750			
0.2985	19104.62	3.7560	3.7559	-0.8559	25.67	0.45	-0.750			
0.3011	19269.91	3.7530	3.7531	-0.8612	25.68	0.46	-0.750	0.399	0.500	
0.3037	19435.43	3.7500	3.7500	-0.8624	25.68	0.46	-0.750			
0.3062	19599.85	3.7470	3.7470	-0.8677	25.68	0.46	-0.750			
0.3088	19764.82	3.7440	3.7440	-0.8693	25.68	0.46	-0.750			
0.3115	19932.91	3.7410	3.7410	-0.8859	25.68	0.46	-0.750			
0.3141	20104.12	3.7380	3.7380	-0.8970	25.68	0.46	-0.750			
0.3169	20278.49	3.7350	3.7350	-0.9057	25.68	0.46	-0.750			
0.3196	20454.07	3.7320	3.7319	-0.9162	25.68	0.46	-0.750	0.391	0.503	
0.3224	20631.53	3.7290	3.7290	-0.9235	25.68	0.46	-0.750			
0.3251	20808.77	3.7260	3.7260	-0.9265	25.68	0.46	-0.750			
0.3279	20987.75	3.7230	3.7231	-0.9340	25.68	0.46	-0.750			
0.3307	21166.13	3.7200	3.7200	-0.9409	25.68	0.46	-0.750			
0.3335	21347.19	3.7170	3.7170	-0.9566	25.68	0.46	-0.750			
0.3364	21532.38	3.7140	3.7140	-0.9678	25.67	0.45	-0.750			
0.3394	21718.68	3.7110	3.7111	-0.9798	25.67	0.45	-0.750	0.400	0.505	
0.3423	21908.79	3.7080	3.7081	-0.9975	25.67	0.45	-0.750			
0.3453	22102.39	3.7050	3.7050	-1.0099	25.67	0.45	-0.750			
0.3484	22297.37	3.7020	3.7020	-1.0202	25.66	0.44	-0.750			
0.3515	22493.17	3.6990	3.6990	-1.0335	25.66	0.44	-0.750			
0.3546	22693.95	3.6960	3.6961	-1.0535	25.66	0.44	-0.750			
0.3578	22898.59	3.6930	3.6929	-1.0678	25.66	0.44	-0.750			
0.3610	23104.37	3.6900	3.6903	-1.0797	25.66	0.44	-0.750	0.399	0.505	
0.3643	23313.01	3.6870	3.6870	-1.0918	25.66	0.44	-0.750			
0.3676	23524.05	3.6840	3.6839	-1.1126	25.66	0.44	-0.750			
0.3709	23738.05	3.6810	3.6810	-1.1344	25.65	0.43	-0.750			
0.3744	23958.97	3.6780	3.6780	-1.1523	25.65	0.43	-0.750			
0.3778	24181.23	3.6750	3.6750	-1.1722	25.64	0.42	-0.750			
0.3814	24410.10	3.6720	3.6721	-1.1899	25.64	0.42	-0.750	0.400	0.508	
0.3850	24640.18	3.6690	3.6690	-1.2088	25.64	0.42	-0.750			
0.3886	24872.59	3.6660	3.6660	-1.2355	25.64	0.42	-0.750			
0.3923	25109.87	3.6630	3.6630	-1.2550	25.64	0.42	-0.750			
0.3962	25354.36	3.6600	3.6599	-1.2790	25.63	0.41	-0.750			
0.4000	25603.00	3.6570	3.6570	-1.3010	25.63	0.41	-0.750	0.393	0.512	
0.4040	25855.02	3.6540	3.6540	-1.3244	25.62	0.40	-0.750			
0.4080	26112.95	3.6510	3.6509	-1.3492	25.61	0.39	-0.750			
0.4121	26372.26	3.6480	3.6480	-1.3663	25.61	0.39	-0.750			
0.4162	26636.36	3.6450	3.6451	-1.3929	25.60	0.38	-0.750			
0.4204	26908.48	3.6420	3.6422	-1.4163	25.60	0.38	-0.750	0.401	0.513	
0.4247	27182.80	3.6390	3.6389	-1.4342	25.60	0.38	-0.750			
0.4291	27459.24	3.6360	3.6361	-1.4654	25.60	0.38	-0.750			
0.4335	27741.41	3.6330	3.6330	-1.4940	25.60	0.38	-0.750			
0.4380	28031.46	3.6300	3.6299	-1.5255	25.60	0.38	-0.750			
0.4426	28326.89	3.6270	3.6270	-1.5549	25.60	0.38	-0.750	0.385	0.515	
0.4474	28630.45	3.6240	3.6239	-1.5957	25.59	0.37	-0.750			
0.4522	28941.05	3.6210	3.6210	-1.6266	25.58	0.36	-0.750			
0.4571	29254.38	3.6180	3.6179	-1.6568	25.58	0.36	-0.750			
0.4622	29577.80	3.6150	3.6150	-1.6870	25.58	0.36	-0.750	0.394	0.520	
0.4673	29904.80	3.6120	3.6120	-1.7186	25.58	0.36	-0.750			
0.4725	30238.05	3.6090	3.6090	-1.7480	25.57	0.35	-0.750			
0.4777	30574.85	3.6060	3.6060	-1.7823	25.57	0.35	-0.750	0.404	0.526	
0.4831	30921.35	3.6030	3.6030	-1.8238	25.57	0.35	-0.750			
0.4886	31273.41	3.6000	3.6000	-1.8665	25.58	0.36	-0.750			
0.4943	31635.29	3.5970	3.5970	-1.9076	25.57	0.35	-0.750			
0.5001	32007.15	3.5940	3.5939	-1.9475	25.56	0.34	-0.750	0.378	0.527	
0.5061	32388.22	3.5910	3.5910	-1.9978	25.56	0.34	-0.750			
0.5121	32776.77	3.5880	3.5881	-2.0355	25.56	0.34	-0.750			
0.5183	33169.82	3.5850	3.5850	-2.0776	25.56	0.34	-0.750	0.390	0.531	
0.5246	33572.46	3.5820	3.5821	-2.1216	25.56	0.34	-0.750			
0.5310	33981.36	3.5790	3.5790	-2.1631	25.56	0.34	-0.750			
0.5376	34405.29	3.5760	3.5759	-2.2060	25.56	0.34	-0.750	0.393	0.534	
0.5442	34830.66	3.5730	3.5729	-2.2466	25.56	0.34	-0.750			
0.5511	35273.44	3.5700	3.5699	-2.2758	25.57	0.35	-0.750			
0.5580	35712.05	3.5670	3.5670	-2.3060	25.57	0.35	-0.750	0.392	0.536	
0.5649	36156.42	3.5640	3.5641	-2.3235	25.58	0.36	-0.750			
0.5720	36606.67	3.5610	3.5609	-2.3385	25.58	0.36	-0.750			
0.5790	37056.46	3.5580	3.5580	-2.3487	25.58	0.36	-0.750	0.406	0.548	
0.5861	37511.42	3.5550	3.5550	-2.3444	25.59	0.37	-0.750			
0.5932	37965.82	3.5520	3.5519	-2.3359	25.59	0.37	-0.750			
0.6002	38414.99	3.5490	3.5489	-2.3233	25.60	0.38	-0.750	0.393	0.541	
0.6071	38855.02	3.5460	3.5461	-2.3014	25.60	0.38	-0.750			
0.6141	39299.82	3.5430	3.5429	-2.2815	25.61	0.39	-0.750			
0.6208	39732.08	3.5400	3.5400	-2.2582	25.62	0.40	-0.750	0.395	0.552	
0.6276	40168.10	3.5370	3.5371	-2.2341	25.63	0.41	-0.750			
0.6343	40595.40	3.5340	3.5340	-2.1940	25.64	0.42	-0.750			
0.6409	41016.86	3.5310	3.5310	-2.1501	25.65	0.43	-0.750	0.394	0.553	
0.6473	41425.59	3.5280	3.5280	-2.0962	25.67	0.45	-0.750			
0.6535	41823.99	3.5250	3.5250	-2.0375	25.68	0.46	-0.750			
0.6595	42208.50	3.5220	3.5221	-1.9858	25.69	0.47	-0.750	0.400	0.564	
0.6653	42581.14	3.5190	3.5190	-1.9323	25.70	0.48	-0.750			
0.6711	42949.89	3.5160	3.5159	-1.8825	25.72	0.50	-0.750			
0.6767	43306.07	3.5130	3.5130	-1.8245	25.74	0.52	-0.750			
0.6821	43652.50	3.5100	3.5100	-1.7662	25.75	0.53	-0.750	0.400	0.568	
0.6873	43990.37	3.5070	3.5072	-1.7129	25.77	0.55	-0.750			
0.6924	44312.77	3.5040	3.5038	-1.6454	25.79	0.57	-0.750			
0.6972	44617.90	3.5010	3.5011	-1.5816	25.80	0.58	-0.750			
0.7018	44914.20	3.4980	3.4982	-1.5249	25.82	0.60	-0.750	0.395	0.577	
0.7063	45203.90	3.4950	3.4949	-1.4868	25.83	0.61	-0.750			
0.7107	45484.88	3.4920	3.4919	-1.4336	25.84	0.62	-0.750			
0.7149	45754.42	3.4890	3.4890	-1.3850	25.86	0.64	-0.750			
0.7190	46016.94	3.4860	3.4860	-1.3392	25.87	0.65	-0.750	0.392	0.583	
0.7230	46269.30	3.4830	3.4830	-1.2907	25.88	0.66	-0.750			
0.7267	46510.43	3.4800	3.4799	-1.2464	25.90	0.68	-0.750			
0.7304	46742.63	3.4770	3.4770	-1.2067	25.91	0.69	-0.750			
0.7339	46969.31	3.4740	3.4740	-1.1692	25.92	0.70	-0.750			
0.7374	47192.78	3.4710	3.4710	-1.1441	25.93	0.71	-0.750			
0.7407	47407.52	3.4680	3.4680	-1.1129	25.94	0.72	-0.750	0.400	0.602	
0.7440	47619.08	3.4650	3.4649	-1.0952	25.95	0.73	-0.750			
0.7473	47824.30	3.4620	3.4620	-1.0772	25.96	0.74	-0.750			
0.7504	48027.88	3.4590	3.4590	-1.0736	25.97	0.75	-0.750			
0.7536	48230.94	3.4560	3.4561	-1.0701	25.98	0.76	-0.750			
0.7568	48438.13	3.4530	3.4529	-1.0740	25.99	0.77	-0.750			
0.7601	48644.12	3.4500	3.4500	-1.0739	26.00	0.78	-0.750	0.400	0.605	
0.7633	48849.64	3.4470	3.4469	-1.0789	26.01	0.79	-0.750			
0.7665	49058.33	3.4440	3.4441	-1.0870	26.02	0.80	-0.750			
0.7698	49266.15	3.4410	3.4410	-1.0947	26.03	0.81	-0.750			
0.7731	49476.95	3.4380	3.4380	-1.0944	26.03	0.81	-0.750			
0.7764	49689.87	3.4350	3.4350	-1.0984	26.04	0.82	-0.750			
0.7797	49901.57	3.4320	3.4319	-1.0985	26.04	0.82	-0.750	0.393	0.611	
0.7830	50113.03	3.4290	3.4290	-1.0961	26.05	0.83	-0.750			
0.7863	50322.97	3.4260	3.4259	-1.0835	26.05	0.83	-0.750			
0.7895	50529.07	3.4230	3.4230	-1.0784	26.06	0.84	-0.750			
0.7928	50737.20	3.4200	3.4200	-1.0642	26.07	0.85	-0.750			
0.7960	50943.20	3.4170	3.4169	-1.0478	26.07	0.85	-0.750			
0.7991	51144.06	3.4140	3.4139	-1.0240	26.08	0.86	-0.750	0.394	0.629	
0.8022	51337.79	3.4110	3.4111	-0.9952	26.09	0.87	-0.750			
0.8051	51526.65	3.4080	3.4080	-0.9724	26.09	0.87	-0.750			
0.8080	51711.61	3.4050	3.4049	-0.9429	26.09	0.87	-0.750			
0.8107	51884.55	3.4020	3.4020	-0.9180	26.10	0.88	-0.750			
0.8135	52061.83	3.3990	3.3990	-0.8985	26.10	0.88	-0.750			
0.8162	52234.11	3.3960	3.3960	-0.8704	26.10	0.88	-0.750			
0.8187	52398.60	3.3930	3.3929	-0.8390	26.11	0.89	-0.750			
0.8212	52557.62	3.3900	3.3901	-0.8103	26.11	0.89	-0.750	0.393	0.646	
0.8236	52709.85	3.3870	3.3869	-0.7770	26.11	0.89	-0.750			
0.8259	52856.01	3.3840	3.3840	-0.7460	26.12	0.90	-0.750			
0.8280	52994.17	3.3810	3.3811	-0.7138	26.12	0.90	-0.750			
0.8301	53127.78	3.3780	3.3780	-0.6856	26.13	0.91	-0.750			
0.8322	53258.49	3.3750	3.3750	-0.6595	26.13	0.91	-0.750			
0.8341	53380.19	3.3720	3.3720	-0.6337	26.13	0.91	-0.750			
0.8359	53500.34	3.3690	3.3690	-0.6066	26.14	0.92	-0.750			
0.8377	53615.04	3.3660	3.3660	-0.5777	26.14	0.92	-0.750			
0.8394	53723.41	3.3630	3.3628	-0.5475	26.15	0.93	-0.750			
0.8410	53825.26	3.3600	3.3602	-0.5186	26.15	0.93	-0.750	0.402	0.665	
0.8425	53921.46	3.3570	3.3569	-0.4920	26.15	0.93	-0.750			
0.8439	54012.16	3.3540	3.3539	-0.4654	26.16	0.94	-0.750			
0.8453	54098.15	3.3510	3.3510	-0.4449	26.16	0.94	-0.750			
0.8466	54180.36	3.3480	3.3480	-0.4255	26.16	0.94	-0.750			
0.8478	54260.90	3.3450	3.3450	-0.4089	26.17	0.95	-0.750			
0.8490	54337.62	3.3420	3.3420	-0.3918	26.17	0.95	-0.750			
0.8502	54410.82	3.3390	3.3390	-0.3739	26.17	0.95	-0.750			
0.8513	54481.13	3.3360	3.3360	-0.3591	26.18	0.96	-0.750			
0.8523	54548.16	3.3330	3.3330	-0.3441	26.18	0.96	-0.750			
0.8533	54612.41	3.3300	3.3300	-0.3302	26.18	0.96	-0.750			
0.8543	54674.17	3.3270	3.3270	-0.3170	26.19	0.97	-0.750			
0.8552	54733.33	3.3240	3.3240	-0.3052	26.19	0.97	-0.750			
0.8561	54790.83	3.3210	3.3210	-0.2945	26.20	0.98	-0.750			
0.8570	54846.39	3.3180	3.3180	-0.2854	26.20	0.98	-0.750			
0.8578	54898.64	3.3150	3.3151	-0.2799	26.20	0.98	-0.750			
0.8586	54953.45	3.3120	3.3119	-0.2719	26.21	0.99	-0.750			
0.8595	55005.26	3.3090	3.3088	-0.2650	26.21	0.99	-0.750			
0.8603	55056.22	3.3060	3.3057	-0.2556	26.22	1.00	-0.750			
0.8610	55104.23	3.3030	3.3033	-0.2471	26.22	1.00	-0.750	0.394	0.682	
0.8617	55150.01	3.3000	3.2998	-0.2386	26.22	1.00	-0.750			
0.8624	55194.02	3.2970	3.2969	-0.2286	26.23	1.01	-0.750			
0.8630	55235.19	3.2940	3.2940	-0.2208	26.23	1.01	-0.750			
0.8637	55277.82	3.2910	3.2911	-0.2194	26.23	1.01	-0.750			
0.8644	55320.50	3.2880	3.2880	-0.2171	26.23	1.01	-0.750			
0.8650	55361.79	3.2850	3.2850	-0.2130	26.24	1.02	-0.750			
0.8657	55402.58	3.2820	3.2820	-0.2092	26.24	1.02	-0.750			
0.8663	55442.18	3.2790	3.2791	-0.2046	26.24	1.02	-0.750			
0.8669	55480.95	3.2760	3.2760	-0.2006	26.25	1.03	-0.750			
0.8675	55519.07	3.2730	3.2729	-0.1965	26.25	1.03	-0.750			
0.8681	55556.18	3.2700	3.2700	-0.1934	26.25	1.03	-0.750			
0.8686	55592.54	3.2670	3.2671	-0.1899	26.26	1.04	-0.750			
0.8692	55629.14	3.2640	3.2640	-0.1875	26.26	1.04	-0.750			
0.8698	55664.84	3.2610	3.2609	-0.1843	26.26	1.04	-0.750			
0.8703	55699.73	3.2580	3.2580	-0.1819	26.26	1.04	-0.750			
0.8708	55734.35	3.2550	3.2551	-0.1799	26.27	1.05	-0.750			
0.8714	55768.73	3.2520	3.2519	-0.1774	26.27	1.05	-0.750			
0.8719	55802.57	3.2490	3.2489	-0.1751	26.27	1.05	-0.750			
0.8724	55835.89	3.2460	3.2460	-0.1723	26.27	1.05	-0.750			
0.8730	55868.84	3.2430	3.2432	-0.1701	26.28	1.06	-0.750			
0.8735	55901.52	3.2400	3.2400	-0.1682	26.28	1.06	-0.750			
0.8740	55933.51	3.2370	3.2370	-0.1651	26.28	1.06	-0.750			
0.8744	55964.53	3.2340	3.2340	-0.1627	26.28	1.06	-0.750			
0.8749	55995.27	3.2310	3.2310	-0.1607	26.29	1.07	-0.750			
0.8754	56025.96	3.2280	3.2280	-0.1593	26.29	1.07	-0.750			
0.8759	56056.46	3.2250	3.2249	-0.1580	26.29	1.07	-0.750			
0.8764	56086.63	3.2220	3.2220	-0.1566	26.29	1.07	-0.750			
0.8768	56116.56	3.2190	3.2189	-0.1554	26.29	1.07	-0.750			
0.8773	56146.37	3.2160	3.2161	-0.1533	26.30	1.08	-0.750			
0.8777	56175.81	3.2130	3.2129	-0.1519	26.30	1.08	-0.750			
0.8782	56204.73	3.2100	3.2100	-0.1499	26.30	1.08	-0.750			
0.8786	56233.31	3.2070	3.2070	-0.1480	26.31	1.09	-0.750			
0.8791	56261.11	3.2040	3.2040	-0.1517	26.31	1.09	-0.750			
0.8795	56290.20	3.2010	3.2009	-0.1504	26.32	1.10	-0.750			
0.8800	56319.92	3.1980	3.1977	-0.1481	26.32	1.10	-0.750			
0.8804	56348.46	3.1950	3.1946	-0.1450	26.33	1.11	-0.750			
0.8809	56376.93	3.1920	3.1932	-0.1427	26.33	1.11	-0.750	0.402	0.694	
0.8813	56404.21	3.1890	3.1889	-0.1407	26.33	1.11	-0.750			
0.8817	56430.37	3.1860	3.1859	-0.1377	26.34	1.12	-0.750			
0.8821	56455.08	3.1830	3.1830	-0.1326	26.34	1.12	-0.750			
0.8825	56480.62	3.1800	3.1800	-0.1334	26.35	1.13	-0.750			
0.8829	56506.58	3.1770	3.1771	-0.1335	26.35	1.13	-0.750			
0.8833	56532.55	3.1740	3.1739	-0.1336	26.36	1.14	-0.750			
0.8837	56558.18	3.1710	3.1710	-0.1329	26.36	1.14	-0.750			
0.8841	56583.59	3.1680	3.1680	-0.1319	26.36	1.14	-0.750			
0.8845	56608.67	3.1650	3.1650	-0.1307	26.37	1.15	-0.750			
0.8849	56633.95	3.1620	3.1620	-0.1298	26.37	1.15	-0.750			
0.8853	56658.79	3.1590	3.1590	-0.1285	26.38	1.16	-0.750			
0.8857	56683.25	3.1560	3.1560	-0.1275	26.38	1.16	-0.750			
0.8861	56707.60	3.1530	3.1530	-0.1263	26.38	1.16	-0.750			
0.8864	56731.68	3.1500	3.1500	-0.1251	26.39	1.17	-0.750			
0.8868	56755.49	3.1470	3.1469	-0.1242	26.39	1.17	-0.750			
0.8872	56779.27	3.1440	3.1440	-0.1235	26.39	1.17	-0.750			
0.8875	56802.85	3.1410	3.1410	-0.1227	26.40	1.18	-0.750			
0.8879	56826.43	3.1380	3.1380	-0.1222	26.40	1.18	-0.750			
0.8883	56849.85	3.1350	3.1350	-0.1213	26.40	1.18	-0.750			
0.8886	56873.01	3.1320	3.1320	-0.1203	26.41	1.19	-0.750			
0.8890	56896.07	3.1290	3.1290	-0.1194	26.41	1.19	-0.750			
0.8894	56918.90	3.1260	3.1260	-0.1187	26.41	1.19	-0.750			
0.8897	56941.55	3.1230	3.1230	-0.1177	26.41	1.19	-0.750			
0.8901	56964.19	3.1200	3.1200	-0.1166	26.42	1.20	-0.750			
0.8904	56986.48	3.1170	3.1170	-0.1155	26.42	1.20	-0.750			
0.8908	57008.47	3.1140	3.1140	-0.1148	26.42	1.20	-0.750			
0.8911	57030.43	3.1110	3.1111	-0.1139	26.43	1.21	-0.750			
0.8914	57052.22	3.1080	3.1080	-0.1131	26.43	1.21	-0.750			
0.8918	57073.82	3.1050	3.1049	-0.1122	26.43	1.21	-0.750			
0.8921	57095.28	3.1020	3.1020	-0.1115	26.44	1.22	-0.750			
0.8924	57116.48	3.0990	3.0990	-0.1106	26.44	1.22	-0.750			
0.8928	57137.63	3.0960	3.0960	-0.1101	26.45	1.23	-0.750			
0.8931	57158.83	3.0930	3.0930	-0.1097	26.45	1.23	-0.750			
0.8934	57179.85	3.0900	3.0900	-0.1088	26.45	1.23	-0.750			
0.8938	57200.58	3.0870	3.0869	-0.1079	26.46	1.24	-0.750			
0.8941	57221.26	3.0840	3.0840	-0.1072	26.46	1.24	-0.750			
0.8944	57241.86	3.0810	3.0811	-0.1066	26.46	1.24	-0.750			
0.8947	57262.21	3.0780	3.0780	-0.1059	26.47	1.25	-0.750			
0.8950	57282.47	3.0750	3.0750	-0.1052	26.47	1.25	-0.750			
0.8954	57302.59	3.0720	3.0720	-0.1045	26.47	1.25	-0.750			
0.8957	57322.48	3.0690	3.0691	-0.1036	26.48	1.26	-0.750			
0.8960	57342.44	3.0660	3.0660	-0.1027	26.48	1.26	-0.750			
0.8963	57362.21	3.0630	3.0629	-0.1020	26.48	1.26	-0.750			
0.8966	57381.56	3.0600	3.0600	-0.1015	26.49	1.27	-0.750			
0.8969	57400.93	3.0570	3.0571	-0.1007	26.49	1.27	-0.750			
0.8972	57420.18	3.0540	3.0540	-0.1002	26.49	1.27	-0.750			
0.8975	57439.24	3.0510	3.0510	-0.0995	26.50	1.28	-0.750			
0.8978	57458.37	3.0480	3.0479	-0.0990	26.50	1.28	-0.750			
0.8981	57477.31	3.0450	3.0451	-0.0985	26.50	1.28	-0.750			
0.8984	57496.18	3.0420	3.0420	-0.0980	26.51	1.29	-0.750			
0.8987	57515.20	3.0390	3.0389	-0.0974	26.51	1.29	-0.750			
0.8990	57533.81	3.0360	3.0359	-0.0964	26.51	1.29	-0.750			
0.8992	57551.16	3.0330	3.0331	-0.0985	26.52	1.30	-0.750			
0.8995	57570.26	3.0300	3.0301	-0.1004	26.52	1.30	-0.750			
0.8998	57589.12	3.0270	3.0269	-0.1015	26.52	1.30	-0.750			
0.9002	57610.94	3.0240	3.0232	-0.0978	26.53	1.31	-0.750			
0.9005	57630.95	3.0210	3.0198	-0.0980	26.53	1.31	-0.750			
0.9008	57649.08	3.0180	3.0230	-0.0947	26.53	1.31	-0.750	0.405	0.707	
0.9011	57668.06	3.0150	3.0150	-0.0932	26.54	1.32	-0.750			
0.9013	57685.39	3.0120	3.0112	-0.0873	26.54	1.32	-0.750			
0.9016	57701.59	3.0090	3.0084	-0.0814	26.54	1.32	-0.750			
0.9018	57715.46	3.0060	3.0059	-0.0822	26.54	1.32	-0.750			
0.9021	57731.35	3.0030	3.0031	-0.0926	26.55	1.33	-0.750			
