Ah_balance (normalized)	Ah_balance (mAh)	Voltage - fit (V)	Voltage -  interpolate (V)	dQ/dV (1/V)	Temperature (°C)	Temperature - diff (°C)	Current (C)	R_DC 0ms (mOhm)	R_DC 50ms (mOhm)	R_DC 50 ms PEC (mOhm)
0.4499	28792.53	3.7810	3.7811	1.3120	26.27	0.85	0.750			
0.4539	29048.15	3.7780	3.7780	1.3390	26.26	0.84	0.750			
0.4579	29307.64	3.7750	3.7750	1.3590	26.24	0.82	0.750			
0.4620	29570.52	3.7720	3.7720	1.3812	26.22	0.80	0.750			
0.4662	29838.11	3.7690	3.7690	1.3931	26.21	0.79	0.750			
0.4704	30107.20	3.7660	3.7660	1.4198	26.20	0.78	0.750			
0.4747	30381.13	3.7630	3.7630	1.4423	26.19	0.77	0.750			
0.4791	30660.23	3.7600	3.7600	1.4589	26.18	0.76	0.750			
0.4835	30944.30	3.7570	3.7570	1.4937	26.16	0.74	0.750			
0.4880	31235.14	3.7540	3.7540	1.5266	26.15	0.73	0.750			
0.4926	31529.02	3.7510	3.7511	1.5358	26.13	0.71	0.750			
0.4973	31826.49	3.7480	3.7480	1.5714	26.12	0.70	0.750			
0.5020	32125.98	3.7450	3.7449	1.6137	26.10	0.68	0.750			
0.5069	32443.08	3.7420	3.7421	1.6653	26.09	0.67	0.750			
0.5120	32770.95	3.7390	3.7390	1.7183	26.07	0.65	0.750			
0.5173	33107.74	3.7360	3.7359	1.7346	26.05	0.63	0.750			
0.5226	33443.52	3.7330	3.7330	1.7521	26.04	0.62	0.750			
0.5279	33782.76	3.7300	3.7300	1.7903	26.03	0.61	0.750			
0.5333	34128.37	3.7270	3.7269	1.8427	26.01	0.59	0.750			
0.5389	34488.98	3.7240	3.7240	1.9084	25.99	0.57	0.750			
0.5447	34861.30	3.7210	3.7210	1.9583	25.98	0.56	0.750			
0.5506	35237.37	3.7180	3.7180	2.0013	25.96	0.54	0.750			
0.5567	35630.84	3.7150	3.7150	2.0596	25.95	0.53	0.750			
0.5630	36034.83	3.7120	3.7121	2.1372	25.94	0.52	0.750			
0.5696	36451.26	3.7090	3.7090	2.2055	25.93	0.51	0.750			
0.5762	36876.89	3.7060	3.7060	2.2582	25.91	0.49	0.750			
0.5831	37319.61	3.7030	3.7030	2.3160	25.91	0.49	0.750			
0.5902	37773.32	3.7000	3.7000	2.3594	25.90	0.48	0.750			
0.5973	38226.42	3.6970	3.6971	2.3781	25.89	0.47	0.750			
0.6045	38685.51	3.6940	3.6939	2.4402	25.88	0.46	0.750			
0.6119	39159.13	3.6910	3.6910	2.4758	25.87	0.45	0.750			
0.6194	39639.93	3.6880	3.6880	2.4757	25.85	0.43	0.750			
0.6268	40112.49	3.6850	3.6849	2.4438	25.84	0.42	0.750			
0.6341	40584.63	3.6820	3.6820	2.3666	25.83	0.41	0.750			
0.6410	41026.90	3.6790	3.6789	2.2255	25.82	0.40	0.750			
0.6474	41433.30	3.6760	3.6760	2.0596	25.81	0.39	0.750			
0.6534	41818.18	3.6730	3.6730	1.9248	25.80	0.38	0.750			
0.6589	42169.54	3.6700	3.6700	1.7909	25.79	0.37	0.750			
0.6640	42498.57	3.6670	3.6670	1.6612	25.79	0.37	0.750			
0.6688	42805.94	3.6640	3.6641	1.5621	25.79	0.37	0.750			
0.6734	43095.33	3.6610	3.6610	1.4810	25.78	0.36	0.750			
0.6777	43370.32	3.6580	3.6579	1.4040	25.78	0.36	0.750			
0.6817	43627.75	3.6550	3.6550	1.3443	25.77	0.35	0.750			
0.6856	43880.27	3.6520	3.6521	1.3074	25.77	0.35	0.750			
0.6895	44127.12	3.6490	3.6488	1.2742	25.76	0.34	0.750			
0.6932	44365.97	3.6460	3.6461	1.2524	25.76	0.34	0.750			
0.6969	44602.85	3.6430	3.6430	1.2357	25.75	0.33	0.750			
0.7006	44840.12	3.6400	3.6400	1.2307	25.74	0.32	0.750			
0.7043	45076.72	3.6370	3.6370	1.2117	25.74	0.32	0.750			
0.7079	45306.37	3.6340	3.6340	1.2058	25.73	0.31	0.750			
0.7115	45536.48	3.6310	3.6311	1.2018	25.73	0.31	0.750			
0.7151	45766.62	3.6280	3.6278	1.1951	25.72	0.30	0.750			
0.7187	45994.49	3.6250	3.6250	1.1951	25.72	0.30	0.750			
0.7222	46223.85	3.6220	3.6221	1.2005	25.72	0.30	0.750			
0.7259	46455.15	3.6190	3.6190	1.2125	25.72	0.30	0.750			
0.7295	46688.58	3.6160	3.6160	1.2199	25.71	0.29	0.750			
0.7332	46923.18	3.6130	3.6130	1.2320	25.70	0.28	0.750			
0.7369	47160.04	3.6100	3.6100	1.2585	25.69	0.27	0.750			
0.7407	47403.95	3.6070	3.6070	1.2770	25.68	0.26	0.750			
0.7445	47648.61	3.6040	3.6040	1.3143	25.67	0.25	0.750			
0.7485	47904.04	3.6010	3.6011	1.3644	25.65	0.23	0.750			
0.7527	48169.69	3.5980	3.5978	1.4168	25.64	0.22	0.750			
0.7570	48446.71	3.5950	3.5950	1.4676	25.63	0.21	0.750			
0.7615	48734.31	3.5920	3.5921	1.5183	25.61	0.19	0.750			
0.7661	49030.36	3.5890	3.5890	1.5542	25.60	0.18	0.750			
0.7708	49332.88	3.5860	3.5859	1.5986	25.57	0.15	0.750			
0.7757	49645.94	3.5830	3.5830	1.6230	25.55	0.13	0.750			
0.7807	49963.87	3.5800	3.5801	1.6526	25.53	0.11	0.750			
0.7856	50280.71	3.5770	3.5769	1.6584	25.50	0.08	0.750			
0.7907	50602.40	3.5740	3.5741	1.6725	25.48	0.06	0.750			
0.7957	50926.84	3.5710	3.5710	1.6819	25.46	0.04	0.750			
0.8008	51250.59	3.5680	3.5680	1.6864	25.44	0.02	0.750			
0.8058	51572.71	3.5650	3.5651	1.6788	25.42	-0.00	0.750			
0.8109	51897.65	3.5620	3.5620	1.6515	25.40	-0.02	0.750			
0.8159	52215.38	3.5590	3.5590	1.6002	25.38	-0.04	0.750			
0.8209	52535.00	3.5560	3.5559	1.4979	25.36	-0.06	0.750			
0.8251	52805.99	3.5530	3.5530	1.2925	25.35	-0.07	0.750			
0.8287	53037.39	3.5500	3.5501	1.0870	25.34	-0.08	0.750			
0.8316	53225.55	3.5470	3.5471	0.8816	25.34	-0.08	0.750			
0.8338	53364.94	3.5440	3.5439	0.7124	25.34	-0.08	0.750			
0.8355	53470.27	3.5410	3.5409	0.5595	25.34	-0.08	0.750			
0.8368	53556.73	3.5380	3.5378	0.4592	25.34	-0.08	0.750			
0.8380	53631.10	3.5350	3.5349	0.4048	25.34	-0.08	0.750			
0.8390	53698.48	3.5320	3.5320	0.3590	25.34	-0.08	0.750			
0.8400	53762.27	3.5290	3.5289	0.3339	25.34	-0.08	0.750			
0.8410	53822.24	3.5260	3.5260	0.3140	25.34	-0.08	0.750			
0.8419	53879.83	3.5230	3.5230	0.3013	25.34	-0.08	0.750			
0.8427	53935.88	3.5200	3.5200	0.2908	25.34	-0.08	0.750			
0.8436	53990.55	3.5170	3.5170	0.2823	25.34	-0.08	0.750			
0.8444	54043.80	3.5140	3.5140	0.2749	25.34	-0.08	0.750			
0.8452	54095.90	3.5110	3.5111	0.2698	25.34	-0.08	0.750			
0.8460	54147.17	3.5080	3.5080	0.2645	25.34	-0.08	0.750			
0.8468	54197.14	3.5050	3.5050	0.2584	25.34	-0.08	0.750			
0.8476	54246.24	3.5020	3.5020	0.2542	25.34	-0.08	0.750			
0.8483	54294.24	3.4990	3.4991	0.2502	25.34	-0.08	0.750			
0.8491	54342.26	3.4960	3.4960	0.2466	25.34	-0.08	0.750			
0.8498	54389.21	3.4930	3.4930	0.2425	25.34	-0.08	0.750			
0.8505	54435.07	3.4900	3.4900	0.2386	25.34	-0.08	0.750			
0.8513	54480.55	3.4870	3.4870	0.2360	25.34	-0.08	0.750			
0.8520	54525.80	3.4840	3.4840	0.2327	25.34	-0.08	0.750			
0.8527	54570.05	3.4810	3.4809	0.2293	25.34	-0.08	0.750			
0.8533	54613.61	3.4780	3.4780	0.2257	25.34	-0.08	0.750			
0.8540	54656.54	3.4750	3.4751	0.2221	25.34	-0.08	0.750			
0.8547	54699.33	3.4720	3.4720	0.2191	25.34	-0.08	0.750			
0.8553	54740.55	3.4690	3.4690	0.2152	25.34	-0.08	0.750			
0.8560	54781.57	3.4660	3.4661	0.2121	25.35	-0.07	0.750			
0.8566	54821.70	3.4630	3.4630	0.2094	25.35	-0.07	0.750			
0.8572	54861.73	3.4600	3.4599	0.2070	25.35	-0.07	0.750			
0.8578	54901.18	3.4570	3.4570	0.2040	25.35	-0.07	0.750			
0.8584	54940.12	3.4540	3.4540	0.2016	25.35	-0.07	0.750			
0.8590	54978.67	3.4510	3.4510	0.1996	25.35	-0.07	0.750			
0.8596	55017.12	3.4480	3.4480	0.1969	25.35	-0.07	0.750			
0.8602	55054.31	3.4450	3.4449	0.1937	25.35	-0.07	0.750			
0.8608	55091.25	3.4420	3.4421	0.1911	25.35	-0.07	0.750			
0.8614	55127.68	3.4390	3.4390	0.1885	25.35	-0.07	0.750			
0.8619	55163.56	3.4360	3.4360	0.1861	25.35	-0.07	0.750			
0.8625	55198.97	3.4330	3.4330	0.1839	25.36	-0.06	0.750			
0.8630	55234.07	3.4300	3.4300	0.1818	25.36	-0.06	0.750			
0.8636	55268.57	3.4270	3.4270	0.1795	25.36	-0.06	0.750			
0.8641	55303.01	3.4240	3.4240	0.1782	25.36	-0.06	0.750			
0.8646	55337.04	3.4210	3.4210	0.1755	25.36	-0.06	0.750			
0.8652	55370.63	3.4180	3.4180	0.1731	25.36	-0.06	0.750			
0.8657	55403.83	3.4150	3.4150	0.1710	25.36	-0.06	0.750			
0.8662	55436.38	3.4120	3.4121	0.1687	25.36	-0.06	0.750			
0.8667	55468.38	3.4090	3.4090	0.1665	25.36	-0.06	0.750			
0.8672	55500.06	3.4060	3.4060	0.1643	25.36	-0.06	0.750			
0.8677	55531.44	3.4030	3.4029	0.1625	25.36	-0.06	0.750			
0.8682	55562.21	3.4000	3.4000	0.1606	25.36	-0.06	0.750			
0.8686	55593.11	3.3970	3.3970	0.1592	25.37	-0.05	0.750			
0.8691	55623.57	3.3940	3.3940	0.1575	25.37	-0.05	0.750			
0.8696	55653.63	3.3910	3.3910	0.1556	25.37	-0.05	0.750			
0.8701	55683.36	3.3880	3.3880	0.1535	25.37	-0.05	0.750			
0.8705	55712.58	3.3850	3.3849	0.1516	25.37	-0.05	0.750			
0.8710	55741.55	3.3820	3.3820	0.1497	25.37	-0.05	0.750			
0.8714	55770.09	3.3790	3.3791	0.1476	25.37	-0.05	0.750			
0.8718	55798.14	3.3760	3.3760	0.1456	25.37	-0.05	0.750			
0.8723	55825.80	3.3730	3.3731	0.1441	25.37	-0.05	0.750			
0.8727	55853.21	3.3700	3.3700	0.1425	25.37	-0.05	0.750			
0.8731	55880.49	3.3670	3.3670	0.1409	25.37	-0.05	0.750			
0.8736	55907.52	3.3640	3.3639	0.1391	25.37	-0.05	0.750			
0.8740	55934.03	3.3610	3.3610	0.1373	25.37	-0.05	0.750			
0.8744	55960.37	3.3580	3.3581	0.1358	25.37	-0.05	0.750			
0.8748	55986.17	3.3550	3.3550	0.1342	25.38	-0.04	0.750			
0.8752	56011.66	3.3520	3.3520	0.1327	25.38	-0.04	0.750			
0.8756	56036.77	3.3490	3.3490	0.1310	25.38	-0.04	0.750			
0.8760	56061.95	3.3460	3.3460	0.1294	25.38	-0.04	0.750			
0.8764	56086.74	3.3430	3.3431	0.1281	25.38	-0.04	0.750			
0.8767	56111.31	3.3400	3.3400	0.1267	25.38	-0.04	0.750			
0.8771	56135.44	3.3370	3.3371	0.1250	25.38	-0.04	0.750			
0.8775	56159.28	3.3340	3.3340	0.1233	25.38	-0.04	0.750			
0.8779	56182.71	3.3310	3.3310	0.1217	25.38	-0.04	0.750			
0.8782	56205.93	3.3280	3.3280	0.1202	25.38	-0.04	0.750			
0.8786	56228.84	3.3250	3.3250	0.1185	25.38	-0.04	0.750			
0.8789	56251.61	3.3220	3.3220	0.1172	25.38	-0.04	0.750			
0.8793	56273.81	3.3190	3.3190	0.1160	25.39	-0.03	0.750			
0.8796	56295.80	3.3160	3.3160	0.1144	25.39	-0.03	0.750			
0.8800	56317.72	3.3130	3.3130	0.1130	25.39	-0.03	0.750			
0.8803	56339.31	3.3100	3.3100	0.1117	25.39	-0.03	0.750			
0.8806	56360.66	3.3070	3.3070	0.1102	25.39	-0.03	0.750			
0.8810	56381.70	3.3040	3.3040	0.1087	25.39	-0.03	0.750			
0.8813	56402.43	3.3010	3.3010	0.1072	25.39	-0.03	0.750			
0.8816	56423.00	3.2980	3.2980	0.1059	25.39	-0.03	0.750			
0.8819	56443.07	3.2950	3.2950	0.1046	25.39	-0.03	0.750			
0.8822	56462.80	3.2920	3.2921	0.1030	25.39	-0.03	0.750			
0.8825	56482.50	3.2890	3.2890	0.1018	25.40	-0.02	0.750			
0.8828	56501.93	3.2860	3.2859	0.1006	25.40	-0.02	0.750			
0.8831	56521.12	3.2830	3.2831	0.0994	25.40	-0.02	0.750			
0.8834	56540.11	3.2800	3.2800	0.0983	25.40	-0.02	0.750			
0.8837	56558.94	3.2770	3.2770	0.0967	25.40	-0.02	0.750			
0.8840	56577.47	3.2740	3.2739	0.0954	25.40	-0.02	0.750			
0.8843	56595.58	3.2710	3.2710	0.0941	25.40	-0.02	0.750			
0.8846	56613.48	3.2680	3.2680	0.0927	25.40	-0.02	0.750			
0.8849	56631.10	3.2650	3.2650	0.0916	25.40	-0.02	0.750			
0.8851	56648.51	3.2620	3.2619	0.0903	25.40	-0.02	0.750			
0.8854	56665.71	3.2590	3.2591	0.0893	25.40	-0.02	0.750			
0.8857	56682.62	3.2560	3.2560	0.0881	25.41	-0.01	0.750			
0.8859	56699.60	3.2530	3.2530	0.0868	25.41	-0.01	0.750			
0.8862	56716.32	3.2500	3.2500	0.0859	25.41	-0.01	0.750			
0.8864	56732.66	3.2470	3.2471	0.0845	25.41	-0.01	0.750			
0.8867	56748.79	3.2440	3.2440	0.0832	25.41	-0.01	0.750			
0.8869	56764.63	3.2410	3.2410	0.0818	25.41	-0.01	0.750			
0.8872	56780.05	3.2380	3.2380	0.0806	25.41	-0.01	0.750			
0.8874	56795.42	3.2350	3.2350	0.0795	25.41	-0.01	0.750			
0.8877	56810.38	3.2320	3.2320	0.0782	25.41	-0.01	0.750			
0.8879	56825.38	3.2290	3.2290	0.0771	25.41	-0.01	0.750			
0.8881	56840.13	3.2260	3.2260	0.0762	25.41	-0.01	0.750			
0.8884	56854.69	3.2230	3.2230	0.0750	25.41	-0.01	0.750			
0.8886	56868.99	3.2200	3.2201	0.0739	25.42	-0.00	0.750			
0.8888	56883.16	3.2170	3.2170	0.0728	25.42	-0.00	0.750			
0.8890	56896.98	3.2140	3.2139	0.0717	25.42	-0.00	0.750			
0.8892	56910.57	3.2110	3.2111	0.0704	25.42	-0.00	0.750			
0.8894	56923.98	3.2080	3.2079	0.0693	25.42	-0.00	0.750			
0.8896	56937.17	3.2050	3.2051	0.0682	25.42	-0.00	0.750			
0.8898	56950.15	3.2020	3.2020	0.0671	25.42	-0.00	0.750			
0.8900	56962.92	3.1990	3.1990	0.0660	25.42	-0.00	0.750			
0.8902	56975.50	3.1960	3.1960	0.0649	25.42	0.00	0.750			
0.8904	56987.86	3.1930	3.1930	0.0638	25.42	0.00	0.750			
0.8906	57000.01	3.1900	3.1901	0.0627	25.42	0.00	0.750			
0.8908	57011.95	3.1870	3.1870	0.0616	25.42	0.00	0.750			
0.8910	57023.66	3.1840	3.1840	0.0604	25.42	0.00	0.750			
0.8912	57035.16	3.1810	3.1810	0.0593	25.42	0.00	0.750			
0.8914	57046.44	3.1780	3.1780	0.0582	25.42	0.00	0.750			
0.8915	57057.53	3.1750	3.1750	0.0570	25.42	0.00	0.750			
0.8917	57068.36	3.1720	3.1721	0.0558	25.43	0.01	0.750			
0.8919	57078.96	3.1690	3.1690	0.0546	25.43	0.01	0.750			
0.8920	57089.51	3.1660	3.1661	0.0533	25.43	0.01	0.750			
0.8922	57099.61	3.1630	3.1630	0.0519	25.43	0.01	0.750			
0.8923	57109.44	3.1600	3.1601	0.0505	25.43	0.01	0.750			
0.8925	57119.13	3.1570	3.1570	0.0492	25.43	0.01	0.750			
0.8926	57129.31	3.1540	3.1537	0.0466	25.43	0.01	0.750			
0.8928	57138.00	3.1510	3.1509	0.0439	25.43	0.01	0.750			
0.8929	57146.17	3.1480	3.1481	0.0412	25.43	0.01	0.750			
0.8930	57154.55	3.1450	3.1451	0.0398	25.43	0.01	0.750			
0.8932	57161.89	3.1420	3.1423	0.0366	25.43	0.01	0.750			
0.8933	57168.61	3.1390	3.1396	0.0334	25.43	0.01	0.750			
0.8934	57174.73	3.1360	3.1371	0.0302	25.43	0.01	0.750			
0.8934	57180.23	3.1330	3.1346	0.0271	25.43	0.01	0.750			
0.8935	57185.12	3.1300	3.1322	0.0239	25.43	0.01	0.750			
0.8936	57189.39	3.1270	3.1298	0.0207	25.43	0.01	0.750			
0.8936	57193.06	3.1240	3.1273	0.0175	25.43	0.01	0.750			
