Ah_balance (normalized)	Ah_balance (mAh)	Voltage - fit (V)	Voltage -  interpolate (V)	dQ/dV (1/V)	Temperature (°C)	Temperature - diff (°C)	Current (C)	R_DC 0ms (mOhm)	R_DC 50ms (mOhm)	R_DC 50 ms PEC (mOhm)
0.0001	8.08	4.1590	4.1587	-0.0906	25.41	-0.01	-0.750			
0.0005	29.51	4.1560	4.1557	-0.1328	25.42	-0.00	-0.750			
0.0009	59.42	4.1530	4.1529	-0.1753	25.42	-0.00	-0.750			
0.0015	97.69	4.1500	4.1500	-0.2153	25.42	-0.00	-0.750			
0.0022	142.69	4.1470	4.1470	-0.2549	25.42	-0.00	-0.750			
0.0031	195.61	4.1440	4.1441	-0.2931	25.42	-0.00	-0.750			
0.0040	256.23	4.1410	4.1410	-0.3306	25.42	-0.00	-0.750			
0.0051	323.61	4.1380	4.1380	-0.3674	25.42	-0.00	-0.750			
0.0062	398.07	4.1350	4.1350	-0.4021	25.42	-0.00	-0.750			
0.0075	479.48	4.1320	4.1320	-0.4348	25.42	0.00	-0.750			
0.0089	566.66	4.1290	4.1290	-0.4642	25.42	0.00	-0.750			
0.0103	659.40	4.1260	4.1260	-0.4908	25.42	0.00	-0.750			
0.0118	756.66	4.1230	4.1230	-0.5151	25.42	0.00	-0.750			
0.0134	858.05	4.1200	4.1200	-0.5382	25.43	0.01	-0.750			
0.0151	963.28	4.1170	4.1170	-0.5594	25.43	0.01	-0.750			
0.0168	1073.60	4.1140	4.1140	-0.5797	25.43	0.01	-0.750			
0.0186	1187.93	4.1110	4.1109	-0.5927	25.43	0.01	-0.750			
0.0204	1303.92	4.1080	4.1082	-0.6086	25.43	0.01	-0.750	0.386	0.515	
0.0222	1422.28	4.1050	4.1050	-0.6201	25.44	0.02	-0.750			
0.0241	1543.10	4.1020	4.1019	-0.6296	25.44	0.02	-0.750			
0.0260	1664.83	4.0990	4.0989	-0.6374	25.44	0.02	-0.750			
0.0279	1787.71	4.0960	4.0961	-0.6432	25.44	0.02	-0.750			
0.0299	1912.95	4.0930	4.0930	-0.6513	25.45	0.03	-0.750			
0.0319	2038.49	4.0900	4.0901	-0.6593	25.45	0.03	-0.750			
0.0338	2164.43	4.0870	4.0870	-0.6648	25.46	0.04	-0.750			
0.0358	2293.18	4.0840	4.0840	-0.6731	25.46	0.04	-0.750			
0.0379	2424.02	4.0810	4.0810	-0.6808	25.47	0.05	-0.750			
0.0399	2556.57	4.0780	4.0779	-0.6867	25.47	0.05	-0.750	0.379	0.513	
0.0420	2688.78	4.0750	4.0750	-0.6903	25.48	0.06	-0.750			
0.0441	2821.54	4.0720	4.0721	-0.6945	25.48	0.06	-0.750			
0.0462	2955.27	4.0690	4.0689	-0.6950	25.49	0.07	-0.750			
0.0482	3087.45	4.0660	4.0660	-0.6995	25.49	0.07	-0.750			
0.0504	3222.68	4.0630	4.0630	-0.7026	25.50	0.08	-0.750			
0.0525	3359.14	4.0600	4.0600	-0.7065	25.51	0.09	-0.750			
0.0546	3494.72	4.0570	4.0569	-0.7082	25.51	0.09	-0.750			
0.0567	3630.53	4.0540	4.0542	-0.7086	25.52	0.10	-0.750			
0.0589	3766.67	4.0510	4.0509	-0.7111	25.53	0.11	-0.750			
0.0610	3903.83	4.0480	4.0479	-0.7134	25.53	0.11	-0.750	0.375	0.514	
0.0631	4040.14	4.0450	4.0450	-0.7122	25.54	0.12	-0.750			
0.0653	4177.49	4.0420	4.0420	-0.7159	25.54	0.12	-0.750			
0.0674	4314.05	4.0390	4.0390	-0.7168	25.55	0.13	-0.750			
0.0696	4453.01	4.0360	4.0360	-0.7178	25.55	0.13	-0.750			
0.0717	4590.36	4.0330	4.0330	-0.7217	25.56	0.14	-0.750			
0.0739	4728.33	4.0300	4.0301	-0.7269	25.57	0.15	-0.750			
0.0761	4870.18	4.0270	4.0270	-0.7275	25.58	0.16	-0.750			
0.0783	5010.16	4.0240	4.0239	-0.7296	25.59	0.17	-0.750			
0.0805	5150.56	4.0210	4.0212	-0.7267	25.60	0.18	-0.750	0.383	0.508	
0.0827	5289.98	4.0180	4.0179	-0.7260	25.60	0.18	-0.750			
0.0848	5429.28	4.0150	4.0150	-0.7278	25.61	0.19	-0.750			
0.0870	5567.13	4.0120	4.0120	-0.7245	25.61	0.19	-0.750			
0.0892	5706.44	4.0090	4.0090	-0.7277	25.62	0.20	-0.750			
0.0914	5846.87	4.0060	4.0061	-0.7322	25.62	0.20	-0.750			
0.0935	5986.71	4.0030	4.0030	-0.7345	25.63	0.21	-0.750			
0.0958	6129.13	4.0000	4.0000	-0.7381	25.64	0.22	-0.750			
0.0980	6271.24	3.9970	3.9969	-0.7370	25.65	0.23	-0.750			
0.1002	6413.15	3.9940	3.9941	-0.7367	25.66	0.24	-0.750	0.374	0.513	
0.1024	6556.06	3.9910	3.9910	-0.7365	25.66	0.24	-0.750			
0.1046	6696.70	3.9880	3.9880	-0.7343	25.67	0.25	-0.750			
0.1068	6837.07	3.9850	3.9850	-0.7345	25.68	0.26	-0.750			
0.1090	6976.60	3.9820	3.9820	-0.7346	25.69	0.27	-0.750			
0.1112	7118.00	3.9790	3.9789	-0.7375	25.70	0.28	-0.750			
0.1134	7259.56	3.9760	3.9761	-0.7429	25.71	0.29	-0.750			
0.1157	7403.45	3.9730	3.9730	-0.7447	25.72	0.30	-0.750			
0.1179	7547.13	3.9700	3.9699	-0.7443	25.73	0.31	-0.750			
0.1202	7690.54	3.9670	3.9673	-0.7435	25.73	0.31	-0.750	0.377	0.518	
0.1224	7832.78	3.9640	3.9641	-0.7460	25.74	0.32	-0.750			
0.1246	7975.96	3.9610	3.9609	-0.7460	25.75	0.33	-0.750			
0.1269	8118.69	3.9580	3.9580	-0.7432	25.76	0.34	-0.750			
0.1291	8261.80	3.9550	3.9550	-0.7454	25.77	0.35	-0.750			
0.1313	8405.05	3.9520	3.9521	-0.7506	25.78	0.36	-0.750			
0.1336	8549.46	3.9490	3.9490	-0.7511	25.79	0.37	-0.750			
0.1358	8693.28	3.9460	3.9460	-0.7522	25.80	0.38	-0.750			
0.1381	8838.23	3.9430	3.9429	-0.7501	25.81	0.39	-0.750			
0.1404	8983.86	3.9400	3.9402	-0.7510	25.82	0.40	-0.750	0.381	0.521	
0.1426	9127.19	3.9370	3.9370	-0.7532	25.82	0.40	-0.750			
0.1449	9270.94	3.9340	3.9341	-0.7527	25.83	0.41	-0.750			
0.1471	9415.37	3.9310	3.9309	-0.7518	25.84	0.42	-0.750			
0.1494	9559.68	3.9280	3.9280	-0.7520	25.85	0.43	-0.750			
0.1516	9704.42	3.9250	3.9251	-0.7531	25.86	0.44	-0.750			
0.1539	9849.45	3.9220	3.9220	-0.7579	25.87	0.45	-0.750			
0.1562	9995.16	3.9190	3.9190	-0.7601	25.88	0.46	-0.750			
0.1584	10140.77	3.9160	3.9159	-0.7587	25.89	0.47	-0.750			
0.1607	10287.08	3.9130	3.9132	-0.7603	25.89	0.47	-0.750	0.391	0.523	
0.1630	10432.96	3.9100	3.9100	-0.7645	25.90	0.48	-0.750			
0.1653	10580.84	3.9070	3.9070	-0.7625	25.91	0.49	-0.750			
0.1676	10726.14	3.9040	3.9039	-0.7630	25.92	0.50	-0.750			
0.1699	10873.07	3.9010	3.9010	-0.7630	25.92	0.50	-0.750			
0.1722	11019.13	3.8980	3.8981	-0.7621	25.93	0.51	-0.750			
0.1745	11166.12	3.8950	3.8949	-0.7681	25.93	0.51	-0.750			
0.1768	11313.88	3.8920	3.8921	-0.7662	25.93	0.51	-0.750			
0.1791	11461.09	3.8890	3.8889	-0.7666	25.94	0.52	-0.750	0.379	0.510	
0.1814	11609.73	3.8860	3.8862	-0.7701	25.94	0.52	-0.750			
0.1837	11756.87	3.8830	3.8829	-0.7646	25.95	0.53	-0.750			
0.1860	11903.94	3.8800	3.8800	-0.7643	25.95	0.53	-0.750			
0.1883	12048.06	3.8770	3.8770	-0.7613	25.96	0.54	-0.750			
0.1905	12194.78	3.8740	3.8740	-0.7661	25.97	0.55	-0.750			
0.1928	12341.40	3.8710	3.8710	-0.7707	25.98	0.56	-0.750			
0.1952	12490.40	3.8680	3.8679	-0.7700	25.98	0.56	-0.750			
0.1975	12639.73	3.8650	3.8650	-0.7676	25.99	0.57	-0.750			
0.1998	12787.96	3.8620	3.8620	-0.7720	26.00	0.58	-0.750	0.378	0.514	
0.2021	12935.44	3.8590	3.8590	-0.7683	26.01	0.59	-0.750			
0.2044	13083.11	3.8560	3.8559	-0.7648	26.01	0.59	-0.750			
0.2067	13228.37	3.8530	3.8532	-0.7618	26.02	0.60	-0.750			
0.2090	13373.96	3.8500	3.8500	-0.7619	26.02	0.60	-0.750			
0.2113	13520.27	3.8470	3.8470	-0.7673	26.03	0.61	-0.750			
0.2136	13667.81	3.8440	3.8440	-0.7689	26.03	0.61	-0.750			
0.2159	13816.42	3.8410	3.8409	-0.7694	26.04	0.62	-0.750			
0.2182	13964.49	3.8380	3.8380	-0.7678	26.04	0.62	-0.750			
0.2205	14112.30	3.8350	3.8352	-0.7688	26.04	0.62	-0.750	0.388	0.515	
0.2228	14258.42	3.8320	3.8320	-0.7708	26.05	0.63	-0.750			
0.2251	14406.47	3.8290	3.8289	-0.7667	26.05	0.63	-0.750			
0.2274	14553.38	3.8260	3.8260	-0.7652	26.05	0.63	-0.750			
0.2297	14700.10	3.8230	3.8230	-0.7693	26.06	0.64	-0.750			
0.2320	14848.61	3.8200	3.8201	-0.7775	26.06	0.64	-0.750			
0.2344	14998.58	3.8170	3.8169	-0.7778	26.07	0.65	-0.750			
0.2367	15148.24	3.8140	3.8139	-0.7748	26.07	0.65	-0.750			
0.2390	15296.73	3.8110	3.8110	-0.7731	26.08	0.66	-0.750			
0.2414	15446.85	3.8080	3.8081	-0.7763	26.08	0.66	-0.750	0.385	0.516	
0.2437	15595.21	3.8050	3.8049	-0.7739	26.09	0.67	-0.750			
0.2460	15742.01	3.8020	3.8020	-0.7713	26.09	0.67	-0.750			
0.2483	15888.40	3.7990	3.7990	-0.7730	26.10	0.68	-0.750			
0.2506	16038.71	3.7960	3.7960	-0.7820	26.10	0.68	-0.750			
0.2530	16189.29	3.7930	3.7930	-0.7868	26.10	0.68	-0.750			
0.2553	16340.84	3.7900	3.7899	-0.7917	26.11	0.69	-0.750			
0.2577	16494.40	3.7870	3.7870	-0.7925	26.11	0.69	-0.750			
0.2601	16646.89	3.7840	3.7839	-0.7948	26.11	0.69	-0.750	0.370	0.517	
0.2625	16799.86	3.7810	3.7810	-0.7968	26.11	0.69	-0.750			
0.2649	16952.42	3.7780	3.7780	-0.7971	26.12	0.70	-0.750			
0.2673	17104.85	3.7750	3.7750	-0.8006	26.12	0.70	-0.750			
0.2696	17257.30	3.7720	3.7720	-0.8046	26.12	0.70	-0.750			
0.2721	17412.29	3.7690	3.7690	-0.8142	26.13	0.71	-0.750			
0.2745	17571.02	3.7660	3.7660	-0.8211	26.13	0.71	-0.750			
0.2770	17729.42	3.7630	3.7630	-0.8253	26.13	0.71	-0.750			
0.2795	17888.92	3.7600	3.7599	-0.8290	26.14	0.72	-0.750	0.375	0.520	
0.2820	18048.93	3.7570	3.7570	-0.8308	26.14	0.72	-0.750			
0.2845	18207.92	3.7540	3.7540	-0.8337	26.15	0.73	-0.750			
0.2870	18366.96	3.7510	3.7510	-0.8358	26.15	0.73	-0.750			
0.2895	18527.13	3.7480	3.7480	-0.8434	26.15	0.73	-0.750			
0.2921	18691.73	3.7450	3.7450	-0.8488	26.16	0.74	-0.750			
0.2946	18853.90	3.7420	3.7420	-0.8578	26.16	0.74	-0.750			
0.2972	19018.48	3.7390	3.7389	-0.8714	26.16	0.74	-0.750			
0.2998	19187.01	3.7360	3.7362	-0.8813	26.16	0.74	-0.750	0.372	0.512	
0.3025	19356.91	3.7330	3.7330	-0.8885	26.16	0.74	-0.750			
0.3052	19529.70	3.7300	3.7300	-0.8987	26.16	0.74	-0.750			
0.3079	19703.27	3.7270	3.7270	-0.9045	26.16	0.74	-0.750			
0.3106	19879.26	3.7240	3.7240	-0.9232	26.16	0.74	-0.750			
0.3133	20054.22	3.7210	3.7210	-0.9228	26.15	0.73	-0.750			
0.3161	20232.61	3.7180	3.7179	-0.9276	26.15	0.73	-0.750			
0.3189	20412.78	3.7150	3.7151	-0.9370	26.15	0.73	-0.750	0.372	0.517	
0.3218	20593.25	3.7120	3.7119	-0.9467	26.15	0.73	-0.750			
0.3246	20774.51	3.7090	3.7090	-0.9550	26.15	0.73	-0.750			
0.3275	20957.21	3.7060	3.7060	-0.9639	26.14	0.72	-0.750			
0.3303	21141.22	3.7030	3.7029	-0.9806	26.14	0.72	-0.750			
0.3333	21333.52	3.7000	3.7000	-0.9958	26.14	0.72	-0.750			
0.3364	21527.29	3.6970	3.6970	-1.0012	26.14	0.72	-0.750			
0.3394	21721.56	3.6940	3.6940	-1.0089	26.14	0.72	-0.750	0.376	0.524	
0.3424	21914.89	3.6910	3.6909	-1.0154	26.14	0.72	-0.750			
0.3455	22108.98	3.6880	3.6880	-1.0313	26.14	0.72	-0.750			
0.3485	22307.12	3.6850	3.6849	-1.0507	26.14	0.72	-0.750			
0.3517	22510.10	3.6820	3.6820	-1.0653	26.14	0.72	-0.750			
0.3550	22718.55	3.6790	3.6790	-1.0780	26.14	0.72	-0.750			
0.3583	22928.67	3.6760	3.6760	-1.0973	26.14	0.72	-0.750			
0.3616	23140.69	3.6730	3.6730	-1.1118	26.14	0.72	-0.750	0.375	0.529	
0.3649	23354.93	3.6700	3.6699	-1.1210	26.13	0.71	-0.750			
0.3682	23567.65	3.6670	3.6671	-1.1341	26.13	0.71	-0.750			
0.3717	23788.06	3.6640	3.6640	-1.1544	26.13	0.71	-0.750			
0.3752	24013.33	3.6610	3.6609	-1.1762	26.12	0.70	-0.750			
0.3788	24240.39	3.6580	3.6580	-1.1923	26.12	0.70	-0.750	0.369	0.526	
0.3823	24470.12	3.6550	3.6550	-1.2102	26.12	0.70	-0.750			
0.3860	24705.12	3.6520	3.6520	-1.2316	26.12	0.70	-0.750			
0.3898	24945.23	3.6490	3.6490	-1.2617	26.12	0.70	-0.750			
0.3936	25189.14	3.6460	3.6460	-1.2804	26.12	0.70	-0.750			
0.3975	25438.10	3.6430	3.6429	-1.3020	26.12	0.70	-0.750			
0.4014	25690.27	3.6400	3.6402	-1.3183	26.11	0.69	-0.750	0.391	0.533	
0.4054	25943.88	3.6370	3.6370	-1.3499	26.11	0.69	-0.750			
0.4095	26205.22	3.6340	3.6340	-1.3737	26.10	0.68	-0.750			
0.4136	26470.89	3.6310	3.6309	-1.3954	26.10	0.68	-0.750			
0.4179	26743.27	3.6280	3.6280	-1.4301	26.09	0.67	-0.750			
0.4222	27018.54	3.6250	3.6250	-1.4585	26.09	0.67	-0.750	0.379	0.524	
0.4266	27301.59	3.6220	3.6220	-1.4893	26.08	0.66	-0.750			
0.4311	27590.49	3.6190	3.6191	-1.5154	26.08	0.66	-0.750			
0.4357	27883.06	3.6160	3.6159	-1.5385	26.08	0.66	-0.750			
0.4404	28182.64	3.6130	3.6130	-1.5797	26.08	0.66	-0.750	0.384	0.531	
0.4451	28487.14	3.6100	3.6100	-1.6132	26.08	0.66	-0.750			
0.4500	28799.34	3.6070	3.6070	-1.6539	26.07	0.65	-0.750			
0.4550	29120.56	3.6040	3.6040	-1.6868	26.07	0.65	-0.750			
0.4601	29447.00	3.6010	3.6009	-1.7264	26.07	0.65	-0.750	0.384	0.541	
0.4654	29786.28	3.5980	3.5980	-1.7605	26.06	0.64	-0.750			
0.4708	30128.64	3.5950	3.5950	-1.7921	26.06	0.64	-0.750			
0.4761	30471.53	3.5920	3.5920	-1.8169	26.05	0.63	-0.750			
0.4816	30822.39	3.5890	3.5890	-1.8542	26.04	0.62	-0.750	0.372	0.540	
0.4872	31181.02	3.5860	3.5859	-1.8854	26.04	0.62	-0.750			
0.4930	31548.92	3.5830	3.5829	-1.9180	26.04	0.62	-0.750			
0.4988	31920.42	3.5800	3.5800	-1.9462	26.03	0.61	-0.750	0.380	0.546	
0.5047	32299.81	3.5770	3.5770	-1.9893	26.02	0.60	-0.750			
0.5106	32680.78	3.5740	3.5740	-2.0115	26.01	0.59	-0.750			
0.5167	33069.01	3.5710	3.5710	-2.0378	26.00	0.58	-0.750			
0.5229	33466.40	3.5680	3.5681	-2.0688	26.00	0.58	-0.750	0.380	0.553	
0.5292	33868.64	3.5650	3.5649	-2.0847	25.99	0.57	-0.750			
0.5355	34273.63	3.5620	3.5620	-2.0968	25.99	0.57	-0.750			
0.5418	34676.55	3.5590	3.5589	-2.1087	25.98	0.56	-0.750	0.384	0.555	
0.5482	35082.34	3.5560	3.5560	-2.1040	25.97	0.55	-0.750			
0.5545	35486.85	3.5530	3.5529	-2.1096	25.96	0.54	-0.750			
0.5609	35894.71	3.5500	3.5502	-2.1027	25.96	0.54	-0.750	0.388	0.560	
0.5672	36299.98	3.5470	3.5469	-2.0967	25.96	0.54	-0.750			
0.5735	36703.49	3.5440	3.5441	-2.0836	25.95	0.53	-0.750			
0.5797	37100.78	3.5410	3.5409	-2.0595	25.94	0.52	-0.750	0.392	0.571	
0.5859	37495.74	3.5380	3.5381	-2.0438	25.94	0.52	-0.750			
0.5920	37885.11	3.5350	3.5349	-2.0178	25.94	0.52	-0.750			
0.5980	38270.76	3.5320	3.5320	-1.9881	25.95	0.53	-0.750	0.380	0.576	
0.6039	38649.91	3.5290	3.5290	-1.9552	25.96	0.54	-0.750			
0.6098	39024.51	3.5260	3.5260	-1.9146	25.96	0.54	-0.750			
0.6155	39392.46	3.5230	3.5229	-1.8725	25.97	0.55	-0.750			
0.6210	39746.09	3.5200	3.5201	-1.8252	25.98	0.56	-0.750	0.383	0.576	
0.6264	40092.53	3.5170	3.5170	-1.7822	25.99	0.57	-0.750			
0.6317	40430.97	3.5140	3.5140	-1.7391	26.00	0.58	-0.750			
0.6369	40760.13	3.5110	3.5110	-1.6877	26.01	0.59	-0.750			
0.6419	41082.72	3.5080	3.5081	-1.6447	26.02	0.60	-0.750	0.386	0.580	
0.6468	41394.89	3.5050	3.5051	-1.6037	26.03	0.61	-0.750			
0.6515	41698.58	3.5020	3.5019	-1.5520	26.04	0.62	-0.750			
0.6561	41990.14	3.4990	3.4990	-1.4996	26.05	0.63	-0.750			
0.6605	42272.79	3.4960	3.4961	-1.4584	26.06	0.64	-0.750	0.387	0.588	
0.6648	42547.87	3.4930	3.4929	-1.4193	26.07	0.65	-0.750			
0.6690	42815.55	3.4900	3.4899	-1.3813	26.08	0.66	-0.750			
0.6731	43076.27	3.4870	3.4870	-1.3426	26.09	0.67	-0.750			
0.6770	43329.73	3.4840	3.4840	-1.3065	26.10	0.68	-0.750			
0.6809	43579.33	3.4810	3.4811	-1.2779	26.11	0.69	-0.750	0.388	0.595	
0.6847	43820.60	3.4780	3.4779	-1.2429	26.12	0.70	-0.750			
0.6883	44052.38	3.4750	3.4750	-1.2219	26.13	0.71	-0.750			
0.6919	44283.68	3.4720	3.4720	-1.1930	26.14	0.72	-0.750			
0.6955	44511.91	3.4690	3.4689	-1.1753	26.14	0.72	-0.750			
0.6990	44736.24	3.4660	3.4659	-1.1585	26.15	0.73	-0.750	0.379	0.599	
0.7024	44955.94	3.4630	3.4629	-1.1439	26.15	0.73	-0.750			
0.7058	45172.38	3.4600	3.4600	-1.1323	26.16	0.74	-0.750			
0.7092	45386.79	3.4570	3.4570	-1.1342	26.17	0.75	-0.750			
0.7126	45603.38	3.4540	3.4540	-1.1274	26.18	0.76	-0.750			
0.7160	45822.62	3.4510	3.4509	-1.1256	26.18	0.76	-0.750			
0.7193	46036.87	3.4480	3.4480	-1.1184	26.19	0.77	-0.750	0.384	0.612	
0.7227	46252.35	3.4450	3.4450	-1.1087	26.20	0.78	-0.750			
0.7260	46464.42	3.4420	3.4419	-1.0981	26.21	0.79	-0.750			
0.7292	46671.11	3.4390	3.4390	-1.0938	26.22	0.80	-0.750			
0.7325	46880.04	3.4360	3.4360	-1.0871	26.22	0.80	-0.750			
0.7358	47091.80	3.4330	3.4329	-1.0743	26.23	0.81	-0.750			
0.7390	47297.88	3.4300	3.4299	-1.0594	26.24	0.82	-0.750	0.380	0.624	
0.7422	47499.06	3.4270	3.4271	-1.0425	26.25	0.83	-0.750			
0.7453	47698.84	3.4240	3.4239	-1.0299	26.25	0.83	-0.750			
0.7483	47893.38	3.4210	3.4210	-1.0085	26.26	0.84	-0.750			
0.7513	48082.13	3.4180	3.4181	-0.9919	26.27	0.85	-0.750			
0.7543	48277.76	3.4150	3.4149	-0.9778	26.28	0.86	-0.750			
0.7573	48464.61	3.4120	3.4120	-0.9554	26.28	0.86	-0.750			
0.7601	48645.79	3.4090	3.4090	-0.9291	26.29	0.87	-0.750	0.386	0.638	
0.7628	48821.18	3.4060	3.4059	-0.9026	26.30	0.88	-0.750			
0.7655	48991.13	3.4030	3.4029	-0.8741	26.30	0.88	-0.750			
0.7681	49156.14	3.4000	3.4000	-0.8498	26.31	0.89	-0.750			
0.7706	49316.93	3.3970	3.3970	-0.8230	26.31	0.89	-0.750			
0.7730	49472.30	3.3940	3.3940	-0.8055	26.32	0.90	-0.750			
0.7754	49626.23	3.3910	3.3910	-0.7734	26.33	0.91	-0.750			
0.7777	49773.42	3.3880	3.3879	-0.7416	26.33	0.91	-0.750			
0.7799	49913.65	3.3850	3.3849	-0.7082	26.34	0.92	-0.750	0.377	0.655	
0.7820	50046.45	3.3820	3.3820	-0.6748	26.34	0.92	-0.750			
0.7839	50170.91	3.3790	3.3790	-0.6397	26.35	0.93	-0.750			
0.7858	50289.60	3.3760	3.3759	-0.6088	26.36	0.94	-0.750			
0.7875	50400.79	3.3730	3.3731	-0.5786	26.36	0.94	-0.750			
0.7892	50510.56	3.3700	3.3700	-0.5571	26.37	0.95	-0.750			
0.7909	50615.39	3.3670	3.3670	-0.5319	26.37	0.95	-0.750			
0.7924	50714.92	3.3640	3.3640	-0.5058	26.38	0.96	-0.750			
0.7939	50808.74	3.3610	3.3610	-0.4818	26.38	0.96	-0.750			
0.7953	50899.36	3.3580	3.3579	-0.4601	26.39	0.97	-0.750			
0.7966	50984.57	3.3550	3.3550	-0.4422	26.39	0.97	-0.750			
0.7979	51068.01	3.3520	3.3520	-0.4243	26.39	0.97	-0.750			
0.7992	51147.79	3.3490	3.3489	-0.4059	26.40	0.98	-0.750			
0.8004	51224.35	3.3460	3.3458	-0.3891	26.40	0.98	-0.750	0.386	0.664	
0.8015	51297.23	3.3430	3.3433	-0.3722	26.41	0.99	-0.750			
0.8026	51366.35	3.3400	3.3400	-0.3565	26.41	0.99	-0.750			
0.8036	51431.90	3.3370	3.3370	-0.3423	26.41	0.99	-0.750			
0.8046	51494.97	3.3340	3.3340	-0.3309	26.42	1.00	-0.750			
0.8056	51559.11	3.3310	3.3310	-0.3219	26.42	1.00	-0.750			
0.8066	51620.14	3.3280	3.3280	-0.3129	26.42	1.00	-0.750			
0.8075	51678.99	3.3250	3.3250	-0.3043	26.43	1.01	-0.750			
0.8084	51736.44	3.3220	3.3219	-0.2950	26.44	1.02	-0.750			
0.8092	51791.95	3.3190	3.3190	-0.2874	26.44	1.02	-0.750			
0.8101	51846.45	3.3160	3.3160	-0.2806	26.45	1.03	-0.750			
0.8109	51899.51	3.3130	3.3130	-0.2736	26.45	1.03	-0.750			
0.8117	51951.66	3.3100	3.3100	-0.2674	26.46	1.04	-0.750			
0.8125	52002.02	3.3070	3.3070	-0.2607	26.46	1.04	-0.750			
0.8133	52051.40	3.3040	3.3040	-0.2546	26.47	1.05	-0.750			
0.8141	52099.77	3.3010	3.3010	-0.2489	26.47	1.05	-0.750			
0.8148	52146.60	3.2980	3.2980	-0.2437	26.48	1.06	-0.750			
0.8155	52192.79	3.2950	3.2951	-0.2390	26.48	1.06	-0.750			
0.8162	52238.30	3.2920	3.2919	-0.2346	26.49	1.07	-0.750			
0.8169	52282.88	3.2890	3.2890	-0.2302	26.49	1.07	-0.750			
0.8176	52326.56	3.2860	3.2860	-0.2267	26.49	1.07	-0.750			
0.8183	52368.68	3.2830	3.2831	-0.2277	26.50	1.08	-0.750			
0.8189	52412.72	3.2800	3.2799	-0.2250	26.50	1.08	-0.750			
0.8196	52456.43	3.2770	3.2768	-0.2199	26.51	1.09	-0.750			
0.8203	52498.97	3.2740	3.2738	-0.2144	26.51	1.09	-0.750			
0.8209	52540.06	3.2710	3.2714	-0.2105	26.51	1.09	-0.750	0.387	0.679	
0.8216	52579.59	3.2680	3.2679	-0.2063	26.51	1.09	-0.750			
0.8222	52618.65	3.2650	3.2649	-0.2007	26.52	1.10	-0.750			
0.8227	52654.12	3.2620	3.2620	-0.1938	26.52	1.10	-0.750			
0.8233	52692.04	3.2590	3.2590	-0.1944	26.52	1.10	-0.750			
0.8239	52729.48	3.2560	3.2560	-0.1938	26.53	1.11	-0.750			
0.8245	52766.53	3.2530	3.2531	-0.1921	26.53	1.11	-0.750			
0.8251	52803.47	3.2500	3.2500	-0.1904	26.53	1.11	-0.750			
0.8256	52839.76	3.2470	3.2471	-0.1883	26.53	1.11	-0.750			
0.8262	52875.64	3.2440	3.2439	-0.1861	26.54	1.12	-0.750			
0.8267	52911.21	3.2410	3.2411	-0.1843	26.54	1.12	-0.750			
0.8273	52946.69	3.2380	3.2380	-0.1819	26.54	1.12	-0.750			
0.8278	52981.37	3.2350	3.2351	-0.1796	26.54	1.12	-0.750			
0.8284	53015.59	3.2320	3.2320	-0.1771	26.55	1.13	-0.750			
0.8289	53049.24	3.2290	3.2290	-0.1754	26.55	1.13	-0.750			
0.8294	53082.64	3.2260	3.2259	-0.1737	26.55	1.13	-0.750			
0.8299	53115.58	3.2230	3.2230	-0.1721	26.55	1.13	-0.750			
0.8304	53148.35	3.2200	3.2201	-0.1708	26.56	1.14	-0.750			
0.8310	53181.24	3.2170	3.2171	-0.1692	26.56	1.14	-0.750			
0.8315	53213.93	3.2140	3.2140	-0.1676	26.56	1.14	-0.750			
0.8320	53245.93	3.2110	3.2110	-0.1658	26.57	1.15	-0.750			
0.8325	53277.55	3.2080	3.2081	-0.1636	26.57	1.15	-0.750			
0.8329	53308.75	3.2050	3.2050	-0.1616	26.58	1.16	-0.750			
0.8334	53339.37	3.2020	3.2020	-0.1603	26.58	1.16	-0.750			
0.8339	53369.62	3.1990	3.1990	-0.1588	26.59	1.17	-0.750			
0.8344	53400.07	3.1960	3.1960	-0.1584	26.59	1.17	-0.750			
0.8349	53430.55	3.1930	3.1928	-0.1569	26.60	1.18	-0.750			
0.8353	53460.78	3.1900	3.1900	-0.1554	26.60	1.18	-0.750			
0.8358	53490.37	3.1870	3.1871	-0.1544	26.60	1.18	-0.750			
0.8362	53519.88	3.1840	3.1841	-0.1530	26.61	1.19	-0.750			
0.8367	53549.22	3.1810	3.1810	-0.1517	26.61	1.19	-0.750			
0.8372	53577.94	3.1780	3.1779	-0.1501	26.62	1.20	-0.750			
0.8376	53606.49	3.1750	3.1751	-0.1488	26.62	1.20	-0.750			
0.8380	53635.01	3.1720	3.1721	-0.1482	26.63	1.21	-0.750			
0.8385	53663.65	3.1690	3.1689	-0.1471	26.63	1.21	-0.750			
0.8389	53691.08	3.1660	3.1661	-0.1494	26.63	1.21	-0.750			
0.8394	53720.58	3.1630	3.1629	-0.1475	26.64	1.22	-0.750			
0.8398	53748.84	3.1600	3.1599	-0.1469	26.64	1.22	-0.750			
0.8403	53777.58	3.1570	3.1566	-0.1448	26.65	1.23	-0.750			
0.8407	53805.66	3.1540	3.1584	-0.1428	26.65	1.23	-0.750	0.390	0.684	
0.8411	53832.73	3.1510	3.1510	-0.1406	26.65	1.23	-0.750			
0.8416	53859.39	3.1480	3.1478	-0.1371	26.66	1.24	-0.750			
0.8420	53884.87	3.1450	3.1449	-0.1352	26.66	1.24	-0.750			
0.8423	53909.44	3.1420	3.1421	-0.1323	26.66	1.24	-0.750			
0.8427	53935.37	3.1390	3.1390	-0.1337	26.66	1.24	-0.750			
0.8431	53961.07	3.1360	3.1359	-0.1331	26.66	1.24	-0.750			
0.8435	53986.66	3.1330	3.1330	-0.1320	26.66	1.24	-0.750			
0.8439	54011.99	3.1300	3.1300	-0.1316	26.66	1.24	-0.750			
0.8443	54037.16	3.1270	3.1271	-0.1306	26.67	1.25	-0.750			
0.8447	54062.14	3.1240	3.1240	-0.1299	26.67	1.25	-0.750			
0.8451	54086.94	3.1210	3.1209	-0.1290	26.68	1.26	-0.750			
0.8455	54111.48	3.1180	3.1180	-0.1280	26.68	1.26	-0.750			
0.8459	54136.05	3.1150	3.1151	-0.1274	26.68	1.26	-0.750			
0.8463	54160.53	3.1120	3.1121	-0.1269	26.69	1.27	-0.750			
0.8466	54185.09	3.1090	3.1089	-0.1259	26.69	1.27	-0.750			
0.8470	54209.11	3.1060	3.1060	-0.1244	26.70	1.28	-0.750			
0.8474	54232.86	3.1030	3.1031	-0.1230	26.70	1.28	-0.750			
0.8478	54256.17	3.1000	3.1001	-0.1224	26.70	1.28	-0.750			
0.8481	54279.60	3.0970	3.0969	-0.1216	26.71	1.29	-0.750			
0.8485	54302.73	3.0940	3.0941	-0.1207	26.71	1.29	-0.750			
0.8488	54325.66	3.0910	3.0909	-0.1198	26.72	1.30	-0.750			
0.8492	54348.69	3.0880	3.0880	-0.1194	26.72	1.30	-0.750			
0.8496	54371.71	3.0850	3.0851	-0.1192	26.72	1.30	-0.750			
0.8499	54394.64	3.0820	3.0820	-0.1183	26.73	1.31	-0.750			
0.8503	54417.46	3.0790	3.0790	-0.1176	26.73	1.31	-0.750			
0.8506	54439.90	3.0760	3.0760	-0.1166	26.73	1.31	-0.750			
0.8510	54462.10	3.0730	3.0730	-0.1155	26.74	1.32	-0.750			
0.8513	54484.26	3.0700	3.0699	-0.1144	26.74	1.32	-0.750			
0.8517	54506.27	3.0670	3.0671	-0.1134	26.75	1.33	-0.750			
0.8520	54527.82	3.0640	3.0640	-0.1128	26.75	1.33	-0.750			
0.8523	54549.20	3.0610	3.0611	-0.1118	26.75	1.33	-0.750			
0.8527	54570.64	3.0580	3.0580	-0.1110	26.76	1.34	-0.750			
0.8530	54591.89	3.0550	3.0549	-0.1103	26.76	1.34	-0.750			
0.8533	54612.99	3.0520	3.0520	-0.1096	26.76	1.34	-0.750			
0.8537	54633.93	3.0490	3.0491	-0.1089	26.76	1.34	-0.750			
0.8540	54654.81	3.0460	3.0459	-0.1082	26.77	1.35	-0.750			
0.8543	54675.65	3.0430	3.0430	-0.1076	26.77	1.35	-0.750			
0.8546	54695.98	3.0400	3.0401	-0.1069	26.77	1.35	-0.750			
0.8549	54716.48	3.0370	3.0370	-0.1066	26.77	1.35	-0.750			
0.8553	54737.01	3.0340	3.0340	-0.1060	26.78	1.36	-0.750			
0.8556	54757.34	3.0310	3.0310	-0.1053	26.78	1.36	-0.750			
0.8559	54777.52	3.0280	3.0280	-0.1047	26.78	1.36	-0.750			
0.8562	54797.57	3.0250	3.0251	-0.1039	26.78	1.36	-0.750			
0.8565	54817.54	3.0220	3.0220	-0.1033	26.78	1.36	-0.750			
0.8568	54837.25	3.0190	3.0189	-0.1024	26.79	1.37	-0.750			
0.8571	54856.74	3.0160	3.0160	-0.1013	26.79	1.37	-0.750			
0.8574	54876.12	3.0130	3.0131	-0.1006	26.79	1.37	-0.750			
0.8577	54895.42	3.0100	3.0100	-0.0997	26.79	1.37	-0.750			
0.8580	54914.48	3.0070	3.0071	-0.0988	26.79	1.37	-0.750			
0.8583	54933.37	3.0040	3.0040	-0.0980	26.80	1.38	-0.750			
