Ah_balance (normalized)	Ah_balance (mAh)	Voltage - fit (V)	Voltage -  interpolate (V)	dQ/dV (1/V)	Temperature (°C)	Temperature - diff (°C)	Current (C)	R_DC 0ms (mOhm)	R_DC 50ms (mOhm)	R_DC 50 ms PEC (mOhm)
0.2161	13832.20	3.9090	3.9101	-0.2087	25.85	-0.01	-1.500			
0.2167	13871.39	3.9060	3.9063	-0.2119	25.85	-0.01	-1.500			
0.2174	13911.80	3.9030	3.9030	-0.2246	25.85	-0.01	-1.500			
0.2180	13955.12	3.9000	3.8999	-0.2443	25.85	-0.01	-1.500			
0.2188	14001.71	3.8970	3.8970	-0.2617	25.85	-0.01	-1.500			
0.2196	14054.72	3.8940	3.8940	-0.2878	25.85	-0.01	-1.500			
0.2205	14112.34	3.8910	3.8910	-0.3161	25.85	-0.01	-1.500			
0.2215	14176.09	3.8880	3.8880	-0.3421	25.85	-0.01	-1.500			
0.2226	14244.04	3.8850	3.8850	-0.3686	25.85	-0.01	-1.500			
0.2237	14317.17	3.8820	3.8820	-0.3949	25.85	-0.01	-1.500			
0.2249	14396.05	3.8790	3.8791	-0.4200	25.86	-0.00	-1.500			
0.2262	14479.23	3.8760	3.8760	-0.4457	25.86	-0.00	-1.500			
0.2276	14567.56	3.8730	3.8730	-0.4679	25.86	-0.00	-1.500			
0.2291	14659.51	3.8700	3.8701	-0.4902	25.86	-0.00	-1.500			
0.2306	14756.25	3.8670	3.8670	-0.5140	25.86	-0.00	-1.500			
0.2321	14856.94	3.8640	3.8641	-0.5379	25.86	-0.00	-1.500			
0.2338	14962.75	3.8610	3.8610	-0.5607	25.86	-0.00	-1.500			
0.2355	15073.78	3.8580	3.8579	-0.5789	25.86	-0.00	-1.500			
0.2373	15186.79	3.8550	3.8552	-0.5953	25.86	-0.00	-1.500			
0.2391	15303.68	3.8520	3.8520	-0.6130	25.86	0.00	-1.500			
0.2410	15422.38	3.8490	3.8489	-0.6251	25.86	0.00	-1.500			
0.2429	15543.99	3.8460	3.8460	-0.6349	25.86	0.00	-1.500			
0.2448	15666.91	3.8430	3.8430	-0.6435	25.86	0.00	-1.500			
0.2468	15792.34	3.8400	3.8400	-0.6568	25.86	0.00	-1.500			
0.2487	15919.91	3.8370	3.8371	-0.6664	25.86	0.00	-1.500			
0.2508	16048.37	3.8340	3.8339	-0.6714	25.87	0.01	-1.500			
0.2528	16177.84	3.8310	3.8310	-0.6782	25.87	0.01	-1.500			
0.2548	16309.03	3.8280	3.8281	-0.6850	25.87	0.01	-1.500			
0.2569	16442.03	3.8250	3.8249	-0.6875	25.87	0.01	-1.500			
0.2590	16574.73	3.8220	3.8220	-0.6923	25.87	0.01	-1.500			
0.2610	16706.85	3.8190	3.8191	-0.6943	25.87	0.01	-1.500			
0.2631	16840.73	3.8160	3.8160	-0.6985	25.87	0.01	-1.500			
0.2652	16975.42	3.8130	3.8129	-0.7030	25.87	0.01	-1.500			
0.2674	17110.75	3.8100	3.8100	-0.7030	25.88	0.02	-1.500			
0.2695	17246.43	3.8070	3.8071	-0.7073	25.88	0.02	-1.500			
0.2716	17383.00	3.8040	3.8040	-0.7090	25.88	0.02	-1.500			
0.2737	17518.20	3.8010	3.8011	-0.7089	25.88	0.02	-1.500			
0.2759	17655.39	3.7980	3.7979	-0.7079	25.89	0.03	-1.500			
0.2780	17790.44	3.7950	3.7950	-0.7080	25.89	0.03	-1.500			
0.2801	17925.69	3.7920	3.7921	-0.7105	25.89	0.03	-1.500			
0.2822	18063.02	3.7890	3.7889	-0.7113	25.89	0.03	-1.500			
0.2844	18199.38	3.7860	3.7860	-0.7120	25.90	0.04	-1.500			
0.2865	18336.58	3.7830	3.7830	-0.7117	25.90	0.04	-1.500			
0.2886	18473.19	3.7800	3.7800	-0.7117	25.90	0.04	-1.500			
0.2908	18610.72	3.7770	3.7770	-0.7115	25.91	0.05	-1.500			
0.2929	18746.37	3.7740	3.7739	-0.7094	25.91	0.05	-1.500			
0.2950	18881.75	3.7710	3.7711	-0.7081	25.91	0.05	-1.500			
0.2972	19018.84	3.7680	3.7680	-0.7084	25.92	0.06	-1.500			
0.2993	19154.49	3.7650	3.7650	-0.7089	25.92	0.06	-1.500			
0.3014	19290.46	3.7620	3.7620	-0.7132	25.92	0.06	-1.500			
0.3035	19427.04	3.7590	3.7590	-0.7137	25.93	0.07	-1.500			
0.3057	19564.91	3.7560	3.7560	-0.7139	25.93	0.07	-1.500			
0.3078	19701.71	3.7530	3.7530	-0.7167	25.93	0.07	-1.500			
0.3100	19839.81	3.7500	3.7501	-0.7189	25.94	0.08	-1.500			
0.3122	19978.51	3.7470	3.7469	-0.7213	25.94	0.08	-1.500			
0.3143	20116.53	3.7440	3.7440	-0.7193	25.94	0.08	-1.500			
0.3165	20253.36	3.7410	3.7411	-0.7213	25.95	0.09	-1.500			
0.3186	20392.97	3.7380	3.7380	-0.7228	25.95	0.09	-1.500			
0.3208	20531.82	3.7350	3.7349	-0.7271	25.96	0.10	-1.500			
0.3230	20670.65	3.7320	3.7320	-0.7261	25.97	0.11	-1.500			
0.3252	20810.78	3.7290	3.7289	-0.7305	25.97	0.11	-1.500			
0.3274	20950.75	3.7260	3.7261	-0.7387	25.98	0.12	-1.500			
0.3296	21092.80	3.7230	3.7230	-0.7495	25.98	0.12	-1.500			
0.3318	21237.78	3.7200	3.7199	-0.7518	25.99	0.13	-1.500			
0.3341	21384.45	3.7170	3.7169	-0.7579	25.99	0.13	-1.500			
0.3364	21529.87	3.7140	3.7141	-0.7586	26.00	0.14	-1.500			
0.3387	21676.04	3.7110	3.7110	-0.7656	26.00	0.14	-1.500			
0.3410	21822.37	3.7080	3.7079	-0.7703	26.01	0.15	-1.500			
0.3433	21968.99	3.7050	3.7049	-0.7780	26.01	0.15	-1.500			
0.3456	22118.51	3.7020	3.7020	-0.7834	26.01	0.15	-1.500			
0.3480	22271.48	3.6990	3.6990	-0.7953	26.02	0.16	-1.500			
0.3504	22424.91	3.6960	3.6960	-0.8091	26.02	0.16	-1.500			
0.3528	22581.67	3.6930	3.6929	-0.8183	26.02	0.16	-1.500			
0.3553	22737.63	3.6900	3.6900	-0.8321	26.03	0.17	-1.500			
0.3578	22899.72	3.6870	3.6870	-0.8459	26.03	0.17	-1.500			
0.3604	23063.99	3.6840	3.6840	-0.8572	26.04	0.18	-1.500			
0.3630	23231.04	3.6810	3.6811	-0.8680	26.04	0.18	-1.500			
0.3656	23398.78	3.6780	3.6780	-0.8775	26.04	0.18	-1.500			
0.3682	23566.96	3.6750	3.6750	-0.8873	26.05	0.19	-1.500			
0.3709	23737.35	3.6720	3.6720	-0.9003	26.05	0.19	-1.500			
0.3736	23909.83	3.6690	3.6690	-0.9171	26.05	0.19	-1.500			
0.3764	24087.75	3.6660	3.6660	-0.9359	26.06	0.20	-1.500			
0.3792	24269.38	3.6630	3.6630	-0.9527	26.06	0.20	-1.500			
0.3821	24453.89	3.6600	3.6600	-0.9708	26.06	0.20	-1.500			
0.3850	24641.90	3.6570	3.6571	-0.9884	26.07	0.21	-1.500			
0.3880	24833.93	3.6540	3.6539	-1.0038	26.07	0.21	-1.500			
0.3911	25028.17	3.6510	3.6510	-1.0181	26.07	0.21	-1.500			
0.3941	25224.17	3.6480	3.6480	-1.0402	26.08	0.22	-1.500			
0.3973	25425.54	3.6450	3.6450	-1.0629	26.08	0.22	-1.500			
0.4005	25630.36	3.6420	3.6420	-1.0787	26.08	0.22	-1.500			
0.4038	25840.54	3.6390	3.6390	-1.0985	26.08	0.22	-1.500			
0.4071	26054.29	3.6360	3.6360	-1.1187	26.09	0.23	-1.500			
0.4105	26271.08	3.6330	3.6329	-1.1379	26.09	0.23	-1.500			
0.4139	26490.64	3.6300	3.6300	-1.1561	26.09	0.23	-1.500			
0.4174	26711.93	3.6270	3.6270	-1.1799	26.09	0.23	-1.500			
0.4210	26941.45	3.6240	3.6240	-1.2034	26.10	0.24	-1.500			
0.4246	27173.19	3.6210	3.6210	-1.2310	26.10	0.24	-1.500			
0.4284	27416.21	3.6180	3.6180	-1.2615	26.10	0.24	-1.500			
0.4322	27662.31	3.6150	3.6150	-1.2838	26.11	0.25	-1.500			
0.4361	27911.40	3.6120	3.6119	-1.3029	26.11	0.25	-1.500			
0.4400	28163.17	3.6090	3.6091	-1.3190	26.11	0.25	-1.500			
0.4440	28417.14	3.6060	3.6059	-1.3348	26.11	0.25	-1.500			
0.4480	28674.56	3.6030	3.6030	-1.3591	26.11	0.25	-1.500			
0.4521	28935.51	3.6000	3.6000	-1.3749	26.12	0.26	-1.500			
0.4563	29204.03	3.5970	3.5970	-1.4063	26.12	0.26	-1.500			
0.4606	29475.61	3.5940	3.5940	-1.4303	26.12	0.26	-1.500			
0.4649	29752.77	3.5910	3.5910	-1.4553	26.12	0.26	-1.500			
0.4693	30035.92	3.5880	3.5880	-1.4787	26.12	0.26	-1.500			
0.4738	30322.68	3.5850	3.5850	-1.4967	26.12	0.26	-1.500			
0.4783	30610.92	3.5820	3.5820	-1.5149	26.12	0.26	-1.500			
0.4829	30905.85	3.5790	3.5791	-1.5371	26.12	0.26	-1.500			
0.4875	31200.82	3.5760	3.5761	-1.5567	26.12	0.26	-1.500			
0.4922	31501.04	3.5730	3.5730	-1.5795	26.12	0.26	-1.500			
0.4970	31805.41	3.5700	3.5700	-1.6013	26.12	0.26	-1.500			
0.5018	32115.49	3.5670	3.5670	-1.6230	26.13	0.27	-1.500			
0.5068	32432.72	3.5640	3.5640	-1.6503	26.13	0.27	-1.500			
0.5117	32750.74	3.5610	3.5610	-1.6603	26.13	0.27	-1.500			
0.5168	33073.05	3.5580	3.5580	-1.6728	26.13	0.27	-1.500			
0.5218	33393.89	3.5550	3.5550	-1.6832	26.13	0.27	-1.500			
0.5268	33717.37	3.5520	3.5520	-1.6962	26.14	0.28	-1.500			
0.5320	34044.85	3.5490	3.5490	-1.7081	26.14	0.28	-1.500			
0.5371	34374.23	3.5460	3.5460	-1.7214	26.14	0.28	-1.500			
0.5423	34704.40	3.5430	3.5430	-1.7419	26.15	0.29	-1.500			
0.5475	35041.21	3.5400	3.5400	-1.7631	26.15	0.29	-1.500			
0.5529	35382.57	3.5370	3.5369	-1.7725	26.16	0.30	-1.500			
0.5582	35725.35	3.5340	3.5351	-1.7736	26.16	0.30	-1.500	0.383	0.521	
0.5636	36068.55	3.5310	3.5311	-1.7746	26.17	0.31	-1.500			
0.5689	36410.02	3.5280	3.5280	-1.7810	26.18	0.32	-1.500			
0.5742	36749.79	3.5250	3.5250	-1.7775	26.18	0.32	-1.500			
0.5795	37091.03	3.5220	3.5219	-1.7603	26.19	0.33	-1.500			
0.5849	37431.63	3.5190	3.5190	-1.7481	26.20	0.34	-1.500			
0.5901	37765.70	3.5160	3.5161	-1.7454	26.20	0.34	-1.500			
0.5953	38097.13	3.5130	3.5130	-1.7466	26.21	0.35	-1.500			
0.6004	38427.91	3.5100	3.5099	-1.7451	26.22	0.36	-1.500			
0.6057	38763.24	3.5070	3.5070	-1.7536	26.23	0.37	-1.500			
0.6110	39105.64	3.5040	3.5041	-1.7721	26.24	0.38	-1.500			
0.6164	39450.41	3.5010	3.5010	-1.7736	26.25	0.39	-1.500			
0.6217	39791.84	3.4980	3.4980	-1.7803	26.25	0.39	-1.500			
0.6271	40133.66	3.4950	3.4950	-1.7714	26.26	0.40	-1.500			
0.6324	40474.11	3.4920	3.4919	-1.7667	26.27	0.41	-1.500			
0.6377	40812.83	3.4890	3.4892	-1.7557	26.28	0.42	-1.500			
0.6429	41148.38	3.4860	3.4860	-1.7483	26.29	0.43	-1.500			
0.6482	41483.68	3.4830	3.4830	-1.7461	26.31	0.45	-1.500			
0.6534	41817.35	3.4800	3.4800	-1.7359	26.32	0.46	-1.500			
0.6586	42151.02	3.4770	3.4769	-1.7313	26.33	0.47	-1.500			
0.6638	42482.77	3.4740	3.4740	-1.7068	26.34	0.48	-1.500			
0.6689	42810.64	3.4710	3.4710	-1.6871	26.36	0.50	-1.500			
0.6740	43133.68	3.4680	3.4680	-1.6686	26.37	0.51	-1.500			
0.6789	43450.75	3.4650	3.4649	-1.6436	26.38	0.52	-1.500			
0.6838	43764.21	3.4620	3.4620	-1.6186	26.39	0.53	-1.500			
0.6886	44072.75	3.4590	3.4591	-1.5999	26.40	0.54	-1.500			
0.6934	44378.35	3.4560	3.4560	-1.5800	26.42	0.56	-1.500			
0.6981	44681.44	3.4530	3.4530	-1.5581	26.43	0.57	-1.500			
0.7027	44974.74	3.4500	3.4500	-1.5290	26.45	0.59	-1.500			
0.7073	45269.65	3.4470	3.4470	-1.5150	26.46	0.60	-1.500			
0.7118	45557.10	3.4440	3.4440	-1.4897	26.48	0.62	-1.500			
0.7162	45839.41	3.4410	3.4410	-1.4733	26.49	0.63	-1.500			
0.7206	46119.17	3.4380	3.4380	-1.4539	26.51	0.65	-1.500			
0.7249	46396.40	3.4350	3.4350	-1.4411	26.53	0.67	-1.500			
0.7293	46672.12	3.4320	3.4320	-1.4293	26.54	0.68	-1.500			
0.7335	46945.09	3.4290	3.4290	-1.4223	26.56	0.70	-1.500			
0.7378	47217.52	3.4260	3.4260	-1.4137	26.57	0.71	-1.500			
0.7420	47488.14	3.4230	3.4230	-1.4027	26.59	0.73	-1.500			
0.7462	47756.11	3.4200	3.4200	-1.3951	26.61	0.75	-1.500			
0.7504	48024.62	3.4170	3.4170	-1.3863	26.63	0.77	-1.500			
0.7546	48292.76	3.4140	3.4140	-1.3665	26.65	0.79	-1.500			
0.7586	48553.60	3.4110	3.4110	-1.3401	26.67	0.81	-1.500			
0.7627	48810.83	3.4080	3.4081	-1.3054	26.68	0.82	-1.500			
0.7665	49059.12	3.4050	3.4049	-1.2718	26.70	0.84	-1.500			
0.7703	49298.92	3.4020	3.4020	-1.2355	26.72	0.86	-1.500			
0.7739	49531.89	3.3990	3.3990	-1.1942	26.74	0.88	-1.500			
0.7775	49759.48	3.3960	3.3958	-1.1591	26.76	0.90	-1.500			
0.7809	49979.55	3.3930	3.3930	-1.1145	26.78	0.92	-1.500			
0.7842	50189.21	3.3900	3.3900	-1.0699	26.79	0.93	-1.500			
0.7873	50390.39	3.3870	3.3872	-1.0242	26.80	0.94	-1.500			
0.7903	50580.31	3.3840	3.3839	-0.9788	26.82	0.96	-1.500			
0.7932	50762.64	3.3810	3.3810	-0.9381	26.83	0.97	-1.500			
0.7959	50938.15	3.3780	3.3780	-0.9039	26.84	0.98	-1.500			
0.7986	51109.34	3.3750	3.3750	-0.8752	26.86	1.00	-1.500			
0.8011	51273.48	3.3720	3.3720	-0.8438	26.87	1.01	-1.500			
0.8036	51432.33	3.3690	3.3690	-0.8124	26.88	1.02	-1.500			
0.8060	51586.04	3.3660	3.3660	-0.7851	26.90	1.04	-1.500			
0.8083	51732.61	3.3630	3.3630	-0.7547	26.91	1.05	-1.500			
0.8106	51875.69	3.3600	3.3600	-0.7295	26.92	1.06	-1.500			
0.8127	52012.24	3.3570	3.3570	-0.7030	26.93	1.07	-1.500			
0.8148	52144.73	3.3540	3.3540	-0.6781	26.94	1.08	-1.500			
0.8167	52271.35	3.3510	3.3510	-0.6588	26.95	1.09	-1.500			
0.8187	52395.76	3.3480	3.3480	-0.6393	26.96	1.10	-1.500			
0.8206	52517.00	3.3450	3.3449	-0.6188	26.97	1.11	-1.500			
0.8224	52633.89	3.3420	3.3420	-0.5988	26.98	1.12	-1.500			
0.8242	52747.13	3.3390	3.3391	-0.5810	26.99	1.13	-1.500			
0.8259	52856.23	3.3360	3.3360	-0.5638	27.00	1.14	-1.500			
0.8275	52962.26	3.3330	3.3329	-0.5475	27.00	1.14	-1.500			
0.8291	53065.50	3.3300	3.3299	-0.5285	27.01	1.15	-1.500			
0.8307	53165.81	3.3270	3.3270	-0.5150	27.02	1.16	-1.500			
0.8322	53263.55	3.3240	3.3240	-0.4991	27.03	1.17	-1.500			
0.8337	53357.53	3.3210	3.3211	-0.4853	27.03	1.17	-1.500			
0.8351	53448.65	3.3180	3.3179	-0.4718	27.04	1.18	-1.500			
0.8365	53537.18	3.3150	3.3149	-0.4563	27.04	1.18	-1.500			
0.8379	53624.13	3.3120	3.3120	-0.4444	27.04	1.18	-1.500			
0.8392	53708.33	3.3090	3.3091	-0.4326	27.05	1.19	-1.500			
0.8405	53790.63	3.3060	3.3060	-0.4202	27.06	1.20	-1.500			
0.8417	53870.30	3.3030	3.3030	-0.4066	27.06	1.20	-1.500			
0.8429	53946.57	3.3000	3.3000	-0.3945	27.07	1.21	-1.500			
0.8441	54020.50	3.2970	3.2971	-0.3826	27.08	1.22	-1.500			
0.8452	54093.17	3.2940	3.2940	-0.3737	27.08	1.22	-1.500			
0.8463	54163.62	3.2910	3.2909	-0.3643	27.09	1.23	-1.500			
0.8474	54232.66	3.2880	3.2880	-0.3541	27.10	1.24	-1.500			
0.8484	54300.09	3.2850	3.2851	-0.3451	27.10	1.24	-1.500			
0.8495	54365.24	3.2820	3.2820	-0.3380	27.11	1.25	-1.500			
0.8505	54429.31	3.2790	3.2790	-0.3283	27.11	1.25	-1.500			
0.8514	54491.81	3.2760	3.2759	-0.3213	27.12	1.26	-1.500			
0.8524	54552.51	3.2730	3.2730	-0.3114	27.13	1.27	-1.500			
0.8533	54611.27	3.2700	3.2700	-0.3042	27.13	1.27	-1.500			
0.8542	54668.98	3.2670	3.2671	-0.2975	27.14	1.28	-1.500			
0.8551	54725.38	3.2640	3.2639	-0.2908	27.14	1.28	-1.500			
0.8559	54780.02	3.2610	3.2610	-0.2842	27.15	1.29	-1.500			
0.8568	54834.17	3.2580	3.2580	-0.2792	27.15	1.29	-1.500			
0.8576	54887.07	3.2550	3.2551	-0.2730	27.16	1.30	-1.500			
0.8584	54939.46	3.2520	3.2519	-0.2693	27.16	1.30	-1.500			
0.8592	54990.45	3.2490	3.2490	-0.2623	27.17	1.31	-1.500			
0.8600	55040.14	3.2460	3.2460	-0.2563	27.17	1.31	-1.500			
0.8608	55088.59	3.2430	3.2429	-0.2513	27.18	1.32	-1.500			
0.8615	55136.68	3.2400	3.2401	-0.2468	27.18	1.32	-1.500			
0.8622	55182.98	3.2370	3.2370	-0.2423	27.19	1.33	-1.500			
0.8630	55229.06	3.2340	3.2339	-0.2386	27.19	1.33	-1.500			
0.8637	55274.61	3.2310	3.2310	-0.2343	27.20	1.34	-1.500			
0.8644	55318.86	3.2280	3.2280	-0.2301	27.20	1.34	-1.500			
0.8651	55363.37	3.2250	3.2250	-0.2271	27.21	1.35	-1.500			
0.8657	55406.38	3.2220	3.2221	-0.2231	27.22	1.36	-1.500			
0.8664	55448.62	3.2190	3.2189	-0.2186	27.22	1.36	-1.500			
0.8670	55490.22	3.2160	3.2160	-0.2147	27.23	1.37	-1.500			
0.8677	55530.80	3.2130	3.2130	-0.2114	27.23	1.37	-1.500			
0.8683	55570.89	3.2100	3.2101	-0.2084	27.23	1.37	-1.500			
0.8689	55610.54	3.2070	3.2071	-0.2063	27.24	1.38	-1.500			
0.8695	55649.94	3.2040	3.2039	-0.2041	27.24	1.38	-1.500			
0.8701	55688.80	3.2010	3.2010	-0.2014	27.25	1.39	-1.500			
0.8707	55727.41	3.1980	3.1980	-0.1986	27.25	1.39	-1.500			
0.8713	55765.57	3.1950	3.1950	-0.1965	27.26	1.40	-1.500			
0.8719	55802.97	3.1920	3.1921	-0.1932	27.26	1.40	-1.500			
0.8725	55839.68	3.1890	3.1890	-0.1906	27.27	1.41	-1.500			
0.8731	55875.62	3.1860	3.1860	-0.1884	27.27	1.41	-1.500			
0.8736	55911.20	3.1830	3.1830	-0.1860	27.27	1.41	-1.500			
0.8742	55946.97	3.1800	3.1800	-0.1840	27.28	1.42	-1.500			
0.8747	55982.14	3.1770	3.1770	-0.1827	27.28	1.42	-1.500			
0.8753	56017.39	3.1740	3.1741	-0.1808	27.29	1.43	-1.500			
0.8758	56052.07	3.1710	3.1709	-0.1788	27.29	1.43	-1.500			
0.8763	56086.04	3.1680	3.1680	-0.1768	27.30	1.44	-1.500			
0.8769	56119.62	3.1650	3.1650	-0.1750	27.30	1.44	-1.500			
0.8774	56153.01	3.1620	3.1621	-0.1726	27.31	1.45	-1.500			
0.8779	56185.98	3.1590	3.1589	-0.1708	27.31	1.45	-1.500			
0.8784	56218.84	3.1560	3.1560	-0.1688	27.32	1.46	-1.500			
0.8789	56250.54	3.1530	3.1531	-0.1678	27.32	1.46	-1.500			
0.8794	56282.84	3.1500	3.1500	-0.1667	27.33	1.47	-1.500			
0.8799	56314.72	3.1470	3.1469	-0.1654	27.33	1.47	-1.500			
0.8804	56346.07	3.1440	3.1439	-0.1643	27.34	1.48	-1.500			
0.8809	56377.60	3.1410	3.1411	-0.1630	27.34	1.48	-1.500			
0.8814	56409.24	3.1380	3.1380	-0.1623	27.35	1.49	-1.500			
0.8819	56440.21	3.1350	3.1349	-0.1603	27.35	1.49	-1.500			
0.8824	56470.84	3.1320	3.1321	-0.1593	27.36	1.50	-1.500			
0.8828	56500.88	3.1290	3.1290	-0.1573	27.36	1.50	-1.500			
0.8833	56531.15	3.1260	3.1259	-0.1566	27.37	1.51	-1.500			
0.8838	56561.09	3.1230	3.1230	-0.1552	27.37	1.51	-1.500			
0.8842	56590.54	3.1200	3.1200	-0.1541	27.38	1.52	-1.500			
0.8847	56620.24	3.1170	3.1170	-0.1530	27.38	1.52	-1.500			
0.8852	56649.64	3.1140	3.1139	-0.1519	27.39	1.53	-1.500			
0.8856	56678.66	3.1110	3.1110	-0.1503	27.39	1.53	-1.500			
0.8860	56707.10	3.1080	3.1081	-0.1492	27.40	1.54	-1.500			
0.8865	56735.63	3.1050	3.1049	-0.1484	27.40	1.54	-1.500			
0.8869	56763.96	3.1020	3.1021	-0.1475	27.41	1.55	-1.500			
0.8874	56792.31	3.0990	3.0989	-0.1463	27.41	1.55	-1.500			
0.8878	56820.22	3.0960	3.0960	-0.1453	27.42	1.56	-1.500			
0.8883	56848.16	3.0930	3.0930	-0.1448	27.42	1.56	-1.500			
0.8887	56875.86	3.0900	3.0900	-0.1437	27.43	1.57	-1.500			
0.8891	56903.38	3.0870	3.0870	-0.1428	27.43	1.57	-1.500			
0.8895	56930.50	3.0840	3.0840	-0.1418	27.44	1.58	-1.500			
0.8900	56957.79	3.0810	3.0809	-0.1409	27.44	1.58	-1.500			
0.8904	56984.74	3.0780	3.0781	-0.1400	27.45	1.59	-1.500			
0.8908	57011.72	3.0750	3.0749	-0.1389	27.46	1.60	-1.500			
0.8912	57038.01	3.0720	3.0721	-0.1384	27.46	1.60	-1.500			
0.8916	57064.46	3.0690	3.0690	-0.1377	27.47	1.61	-1.500			
0.8920	57090.85	3.0660	3.0660	-0.1373	27.47	1.61	-1.500			
0.8925	57117.15	3.0630	3.0628	-0.1365	27.48	1.62	-1.500			
0.8929	57143.38	3.0600	3.0601	-0.1355	27.48	1.62	-1.500			
0.8933	57169.58	3.0570	3.0568	-0.1350	27.49	1.63	-1.500			
0.8937	57195.35	3.0540	3.0542	-0.1340	27.49	1.63	-1.500			
0.8941	57221.10	3.0510	3.0508	-0.1327	27.50	1.64	-1.500			
0.8945	57246.21	3.0480	3.0481	-0.1310	27.50	1.64	-1.500			
0.8949	57271.17	3.0450	3.0449	-0.1307	27.51	1.65	-1.500			
0.8953	57296.18	3.0420	3.0420	-0.1302	27.52	1.66	-1.500			
0.8956	57320.99	3.0390	3.0390	-0.1298	27.52	1.66	-1.500			
0.8960	57345.80	3.0360	3.0360	-0.1295	27.53	1.67	-1.500			
0.8964	57370.77	3.0330	3.0330	-0.1288	27.53	1.67	-1.500			
0.8968	57395.50	3.0300	3.0300	-0.1284	27.54	1.68	-1.500			
0.8972	57420.41	3.0270	3.0271	-0.1278	27.54	1.68	-1.500			
0.8976	57444.80	3.0240	3.0240	-0.1266	27.55	1.69	-1.500			
0.8980	57468.93	3.0210	3.0210	-0.1253	27.55	1.69	-1.500			
0.8983	57492.75	3.0180	3.0180	-0.1246	27.56	1.70	-1.500			
0.8987	57516.59	3.0150	3.0150	-0.1238	27.56	1.70	-1.500			
0.8991	57540.00	3.0120	3.0119	-0.1229	27.57	1.71	-1.500			
0.8994	57563.51	3.0090	3.0091	-0.1226	27.57	1.71	-1.500			
0.8998	57587.03	3.0060	3.0060	-0.1224	27.58	1.72	-1.500			
0.9002	57610.55	3.0030	3.0030	-0.1237	27.58	1.72	-1.500			
