Ah_balance (normalized)	Ah_balance (mAh)	Voltage - fit (V)	Voltage -  interpolate (V)	dQ/dV (1/V)	Temperature (°C)	Temperature - diff (°C)	Current (C)	R_DC 0ms (mOhm)	R_DC 50ms (mOhm)	R_DC 50 ms PEC (mOhm)
0.0005	29.18	4.1590	4.1588	-0.1435	25.30	-0.01	-0.750			
0.0010	61.86	4.1560	4.1560	-0.1899	25.30	-0.01	-0.750			
0.0016	102.16	4.1530	4.1530	-0.2339	25.30	-0.01	-0.750			
0.0024	151.63	4.1500	4.1501	-0.2775	25.30	-0.01	-0.750			
0.0033	209.18	4.1470	4.1470	-0.3208	25.30	-0.01	-0.750			
0.0043	275.38	4.1440	4.1440	-0.3631	25.30	-0.01	-0.750			
0.0055	349.67	4.1410	4.1410	-0.4040	25.31	-0.00	-0.750			
0.0067	431.61	4.1380	4.1380	-0.4420	25.31	-0.00	-0.750			
0.0081	521.51	4.1350	4.1350	-0.4787	25.31	-0.00	-0.750			
0.0096	617.22	4.1320	4.1320	-0.5103	25.31	-0.00	-0.750			
0.0112	719.57	4.1290	4.1290	-0.5398	25.31	-0.00	-0.750			
0.0129	825.84	4.1260	4.1260	-0.5669	25.31	0.00	-0.750			
0.0147	938.46	4.1230	4.1230	-0.5908	25.31	0.00	-0.750			
0.0165	1054.73	4.1200	4.1199	-0.6098	25.31	0.00	-0.750			
0.0184	1174.67	4.1170	4.1170	-0.6275	25.32	0.01	-0.750			
0.0203	1297.95	4.1140	4.1142	-0.6415	25.32	0.01	-0.750	0.394	0.495	
0.0222	1422.24	4.1110	4.1110	-0.6531	25.32	0.01	-0.750			
0.0242	1549.06	4.1080	4.1080	-0.6647	25.32	0.01	-0.750			
0.0262	1677.14	4.1050	4.1050	-0.6730	25.32	0.01	-0.750			
0.0282	1807.66	4.1020	4.1020	-0.6832	25.33	0.02	-0.750			
0.0303	1940.88	4.0990	4.0990	-0.6914	25.33	0.02	-0.750			
0.0324	2074.21	4.0960	4.0960	-0.7002	25.33	0.02	-0.750			
0.0345	2209.98	4.0930	4.0930	-0.7070	25.34	0.03	-0.750			
0.0367	2346.13	4.0900	4.0899	-0.7129	25.34	0.03	-0.750			
0.0388	2483.95	4.0870	4.0869	-0.7178	25.35	0.04	-0.750			
0.0410	2623.27	4.0840	4.0840	-0.7203	25.36	0.05	-0.750	0.385	0.491	
0.0431	2761.25	4.0810	4.0810	-0.7238	25.37	0.06	-0.750			
0.0453	2900.47	4.0780	4.0780	-0.7279	25.38	0.07	-0.750			
0.0475	3039.08	4.0750	4.0750	-0.7278	25.38	0.07	-0.750			
0.0497	3180.25	4.0720	4.0720	-0.7348	25.39	0.08	-0.750			
0.0519	3320.80	4.0690	4.0690	-0.7371	25.41	0.10	-0.750			
0.0541	3464.12	4.0660	4.0660	-0.7454	25.42	0.11	-0.750			
0.0564	3608.51	4.0630	4.0630	-0.7477	25.43	0.12	-0.750			
0.0586	3752.08	4.0600	4.0599	-0.7473	25.44	0.13	-0.750			
0.0609	3896.43	4.0570	4.0570	-0.7491	25.46	0.15	-0.750	0.396	0.491	
0.0631	4040.32	4.0540	4.0539	-0.7490	25.47	0.16	-0.750			
0.0654	4183.35	4.0510	4.0509	-0.7463	25.48	0.17	-0.750			
0.0676	4323.77	4.0480	4.0481	-0.7485	25.49	0.18	-0.750			
0.0698	4468.47	4.0450	4.0449	-0.7553	25.51	0.20	-0.750			
0.0721	4614.32	4.0420	4.0421	-0.7639	25.52	0.21	-0.750			
0.0744	4762.14	4.0390	4.0390	-0.7692	25.53	0.22	-0.750			
0.0768	4912.32	4.0360	4.0360	-0.7682	25.54	0.23	-0.750			
0.0791	5060.23	4.0330	4.0330	-0.7694	25.54	0.23	-0.750	0.373	0.486	
0.0814	5207.77	4.0300	4.0301	-0.7672	25.55	0.24	-0.750			
0.0836	5353.27	4.0270	4.0269	-0.7631	25.55	0.24	-0.750			
0.0859	5500.06	4.0240	4.0240	-0.7625	25.56	0.25	-0.750			
0.0882	5645.18	4.0210	4.0210	-0.7619	25.56	0.25	-0.750			
0.0905	5792.01	4.0180	4.0180	-0.7666	25.56	0.25	-0.750			
0.0928	5939.15	4.0150	4.0150	-0.7737	25.56	0.25	-0.750			
0.0951	6087.77	4.0120	4.0119	-0.7694	25.56	0.25	-0.750			
0.0975	6236.86	4.0090	4.0090	-0.7717	25.56	0.25	-0.750			
0.0998	6385.15	4.0060	4.0060	-0.7732	25.56	0.25	-0.750	0.384	0.491	
0.1021	6534.66	4.0030	4.0029	-0.7733	25.56	0.25	-0.750			
0.1044	6682.45	4.0000	3.9999	-0.7741	25.56	0.25	-0.750			
0.1067	6829.37	3.9970	3.9970	-0.7724	25.56	0.25	-0.750			
0.1090	6977.04	3.9940	3.9940	-0.7772	25.56	0.25	-0.750			
0.1114	7130.21	3.9910	3.9911	-0.7760	25.56	0.25	-0.750			
0.1138	7282.96	3.9880	3.9879	-0.7621	25.56	0.25	-0.750			
0.1160	7423.20	3.9850	3.9851	-0.7683	25.56	0.25	-0.750			
0.1182	7567.73	3.9820	3.9823	-0.7752	25.57	0.26	-0.750			
0.1206	7715.46	3.9790	3.9795	-0.7825	25.57	0.26	-0.750	0.394	0.502	
0.1229	7867.07	3.9760	3.9758	-0.7928	25.57	0.26	-0.750			
0.1253	8021.49	3.9730	3.9731	-0.8006	25.58	0.27	-0.750			
0.1278	8179.61	3.9700	3.9701	-0.8125	25.59	0.28	-0.750			
0.1303	8339.71	3.9670	3.9670	-0.8128	25.60	0.29	-0.750			
0.1327	8492.73	3.9640	3.9640	-0.8012	25.61	0.30	-0.750			
0.1351	8646.62	3.9610	3.9610	-0.8009	25.62	0.31	-0.750			
0.1375	8800.97	3.9580	3.9579	-0.8035	25.63	0.32	-0.750			
0.1399	8955.41	3.9550	3.9551	-0.8045	25.63	0.32	-0.750	0.390	0.484	
0.1423	9109.74	3.9520	3.9519	-0.8006	25.63	0.32	-0.750			
0.1447	9262.23	3.9490	3.9490	-0.8022	25.64	0.33	-0.750			
0.1471	9416.53	3.9460	3.9459	-0.8039	25.64	0.33	-0.750			
0.1495	9570.66	3.9430	3.9430	-0.8033	25.64	0.33	-0.750			
0.1520	9724.85	3.9400	3.9399	-0.8113	25.64	0.33	-0.750			
0.1544	9880.35	3.9370	3.9370	-0.8144	25.64	0.33	-0.750			
0.1569	10038.84	3.9340	3.9340	-0.8138	25.64	0.33	-0.750			
0.1593	10196.07	3.9310	3.9309	-0.8161	25.64	0.33	-0.750	0.385	0.482	
0.1618	10352.74	3.9280	3.9281	-0.8106	25.64	0.33	-0.750			
0.1642	10509.14	3.9250	3.9249	-0.8095	25.64	0.33	-0.750			
0.1666	10662.78	3.9220	3.9220	-0.8088	25.64	0.33	-0.750			
0.1690	10816.07	3.9190	3.9190	-0.8077	25.64	0.33	-0.750			
0.1714	10971.99	3.9160	3.9159	-0.8155	25.64	0.33	-0.750			
0.1739	11129.10	3.9130	3.9131	-0.8190	25.64	0.33	-0.750			
0.1764	11287.03	3.9100	3.9100	-0.8197	25.64	0.33	-0.750			
0.1788	11445.60	3.9070	3.9070	-0.8223	25.65	0.34	-0.750			
0.1813	11604.07	3.9040	3.9041	-0.8201	25.65	0.34	-0.750	0.389	0.487	
0.1838	11761.72	3.9010	3.9010	-0.8209	25.66	0.35	-0.750			
0.1862	11918.47	3.8980	3.8981	-0.8194	25.66	0.35	-0.750			
0.1887	12074.44	3.8950	3.8950	-0.8187	25.66	0.35	-0.750			
0.1911	12231.92	3.8920	3.8920	-0.8262	25.66	0.35	-0.750			
0.1936	12391.49	3.8890	3.8890	-0.8279	25.67	0.36	-0.750			
0.1961	12551.90	3.8860	3.8860	-0.8296	25.67	0.36	-0.750			
0.1986	12711.53	3.8830	3.8830	-0.8289	25.67	0.36	-0.750			
0.2011	12869.99	3.8800	3.8801	-0.8290	25.67	0.36	-0.750	0.380	0.485	
0.2036	13028.37	3.8770	3.8769	-0.8312	25.67	0.36	-0.750			
0.2061	13188.11	3.8740	3.8740	-0.8314	25.68	0.37	-0.750			
0.2086	13347.26	3.8710	3.8710	-0.8290	25.68	0.37	-0.750			
0.2111	13508.49	3.8680	3.8681	-0.8346	25.68	0.37	-0.750			
0.2136	13668.51	3.8650	3.8650	-0.8355	25.68	0.37	-0.750			
0.2161	13828.99	3.8620	3.8618	-0.8327	25.69	0.38	-0.750			
0.2186	13988.00	3.8590	3.8590	-0.8323	25.69	0.38	-0.750			
0.2210	14147.15	3.8560	3.8561	-0.8313	25.70	0.39	-0.750	0.393	0.491	
0.2236	14308.50	3.8530	3.8529	-0.8330	25.70	0.39	-0.750			
0.2261	14467.64	3.8500	3.8500	-0.8346	25.70	0.39	-0.750			
0.2285	14625.88	3.8470	3.8470	-0.8337	25.70	0.39	-0.750			
0.2311	14788.02	3.8440	3.8440	-0.8388	25.70	0.39	-0.750			
0.2336	14949.30	3.8410	3.8410	-0.8424	25.70	0.39	-0.750			
0.2361	15111.38	3.8380	3.8381	-0.8413	25.70	0.39	-0.750			
0.2386	15273.52	3.8350	3.8349	-0.8425	25.70	0.39	-0.750			
0.2412	15436.13	3.8320	3.8321	-0.8411	25.71	0.40	-0.750	0.399	0.493	
0.2437	15596.17	3.8290	3.8290	-0.8412	25.71	0.40	-0.750			
0.2462	15757.37	3.8260	3.8260	-0.8404	25.72	0.41	-0.750			
0.2487	15918.73	3.8230	3.8230	-0.8367	25.72	0.41	-0.750			
0.2512	16079.95	3.8200	3.8200	-0.8403	25.72	0.41	-0.750			
0.2538	16241.24	3.8170	3.8171	-0.8428	25.72	0.41	-0.750			
0.2563	16403.17	3.8140	3.8139	-0.8416	25.73	0.42	-0.750			
0.2588	16565.91	3.8110	3.8109	-0.8404	25.73	0.42	-0.750			
0.2613	16725.77	3.8080	3.8081	-0.8370	25.73	0.42	-0.750	0.395	0.496	
0.2639	16887.41	3.8050	3.8050	-0.8389	25.73	0.42	-0.750			
0.2664	17047.87	3.8020	3.8020	-0.8389	25.73	0.42	-0.750			
0.2689	17206.81	3.7990	3.7990	-0.8371	25.74	0.43	-0.750			
0.2714	17368.08	3.7960	3.7960	-0.8434	25.74	0.43	-0.750			
0.2739	17530.95	3.7930	3.7930	-0.8493	25.74	0.43	-0.750			
0.2765	17695.92	3.7900	3.7900	-0.8501	25.74	0.43	-0.750			
0.2790	17859.14	3.7870	3.7870	-0.8466	25.74	0.43	-0.750	0.402	0.497	
0.2816	18022.07	3.7840	3.7841	-0.8424	25.75	0.44	-0.750			
0.2841	18183.00	3.7810	3.7809	-0.8385	25.75	0.44	-0.750			
0.2866	18342.14	3.7780	3.7781	-0.8382	25.75	0.44	-0.750			
0.2891	18500.19	3.7750	3.7750	-0.8382	25.75	0.44	-0.750			
0.2916	18662.66	3.7720	3.7720	-0.8464	25.75	0.44	-0.750			
0.2942	18826.84	3.7690	3.7690	-0.8527	25.76	0.45	-0.750			
0.2967	18991.68	3.7660	3.7660	-0.8579	25.76	0.45	-0.750			
0.2993	19157.41	3.7630	3.7630	-0.8606	25.76	0.45	-0.750	0.398	0.497	
0.3019	19322.73	3.7600	3.7600	-0.8631	25.76	0.45	-0.750			
0.3045	19488.50	3.7570	3.7570	-0.8638	25.76	0.45	-0.750			
0.3071	19653.05	3.7540	3.7540	-0.8663	25.76	0.45	-0.750			
0.3097	19818.11	3.7510	3.7510	-0.8685	25.76	0.45	-0.750			
0.3123	19986.44	3.7480	3.7480	-0.8819	25.76	0.45	-0.750			
0.3149	20156.52	3.7450	3.7450	-0.8891	25.76	0.45	-0.750			
0.3176	20328.95	3.7420	3.7419	-0.8955	25.76	0.45	-0.750			
0.3204	20502.51	3.7390	3.7392	-0.8993	25.76	0.45	-0.750	0.381	0.495	
0.3231	20675.69	3.7360	3.7360	-0.9073	25.76	0.45	-0.750			
0.3258	20850.43	3.7330	3.7330	-0.9097	25.76	0.45	-0.750			
0.3285	21024.82	3.7300	3.7299	-0.9168	25.76	0.45	-0.750			
0.3312	21198.14	3.7270	3.7270	-0.9291	25.76	0.45	-0.750			
0.3340	21378.50	3.7240	3.7241	-0.9430	25.76	0.45	-0.750			
0.3369	21562.41	3.7210	3.7209	-0.9567	25.76	0.45	-0.750			
0.3398	21747.66	3.7180	3.7180	-0.9667	25.76	0.45	-0.750	0.401	0.502	
0.3427	21933.29	3.7150	3.7150	-0.9768	25.76	0.45	-0.750			
0.3457	22122.88	3.7120	3.7119	-0.9903	25.76	0.45	-0.750			
0.3486	22311.71	3.7090	3.7091	-1.0006	25.76	0.45	-0.750			
0.3516	22504.70	3.7060	3.7060	-1.0157	25.76	0.45	-0.750			
0.3548	22704.29	3.7030	3.7030	-1.0314	25.76	0.45	-0.750			
0.3579	22903.49	3.7000	3.7000	-1.0436	25.76	0.45	-0.750			
0.3610	23104.77	3.6970	3.6972	-1.0578	25.76	0.45	-0.750	0.396	0.497	
0.3642	23308.59	3.6940	3.6939	-1.0687	25.76	0.45	-0.750			
0.3674	23512.80	3.6910	3.6910	-1.0836	25.76	0.45	-0.750			
0.3706	23721.39	3.6880	3.6880	-1.1064	25.75	0.44	-0.750			
0.3740	23936.94	3.6850	3.6850	-1.1294	25.75	0.44	-0.750			
0.3774	24156.06	3.6820	3.6819	-1.1495	25.75	0.44	-0.750			
0.3809	24378.85	3.6790	3.6792	-1.1659	25.75	0.44	-0.750	0.378	0.502	
0.3844	24604.22	3.6760	3.6760	-1.1853	25.75	0.44	-0.750			
0.3880	24832.51	3.6730	3.6730	-1.2134	25.75	0.44	-0.750			
0.3917	25068.50	3.6700	3.6700	-1.2300	25.74	0.43	-0.750			
0.3954	25308.15	3.6670	3.6669	-1.2493	25.73	0.42	-0.750			
0.3992	25549.39	3.6640	3.6641	-1.2679	25.72	0.41	-0.750	0.402	0.499	
0.4030	25795.00	3.6610	3.6610	-1.2913	25.71	0.40	-0.750			
0.4069	26043.07	3.6580	3.6579	-1.3202	25.71	0.40	-0.750			
0.4109	26298.18	3.6550	3.6550	-1.3412	25.70	0.39	-0.750			
0.4150	26556.97	3.6520	3.6520	-1.3657	25.70	0.39	-0.750			
0.4191	26824.21	3.6490	3.6489	-1.3925	25.69	0.38	-0.750	0.384	0.505	
0.4234	27095.32	3.6460	3.6458	-1.4191	25.69	0.38	-0.750			
0.4276	27368.28	3.6430	3.6430	-1.4492	25.68	0.37	-0.750			
0.4320	27645.74	3.6400	3.6400	-1.4835	25.68	0.37	-0.750			
0.4365	27934.78	3.6370	3.6371	-1.5124	25.67	0.36	-0.750			
0.4411	28231.15	3.6340	3.6341	-1.5420	25.66	0.35	-0.750	0.389	0.508	
0.4458	28529.87	3.6310	3.6310	-1.5787	25.65	0.34	-0.750			
0.4506	28837.12	3.6280	3.6279	-1.5995	25.64	0.33	-0.750			
0.4554	29146.10	3.6250	3.6250	-1.6318	25.64	0.33	-0.750			
0.4603	29461.11	3.6220	3.6220	-1.6584	25.64	0.33	-0.750	0.405	0.515	
0.4653	29779.59	3.6190	3.6190	-1.6895	25.63	0.32	-0.750			
0.4705	30111.67	3.6160	3.6161	-1.7174	25.62	0.31	-0.750			
0.4757	30442.09	3.6130	3.6129	-1.7473	25.62	0.31	-0.750			
0.4809	30778.18	3.6100	3.6102	-1.7779	25.61	0.30	-0.750	0.403	0.521	
0.4863	31124.36	3.6070	3.6068	-1.8243	25.61	0.30	-0.750			
0.4918	31477.13	3.6040	3.6040	-1.8617	25.61	0.30	-0.750			
0.4974	31835.55	3.6010	3.6009	-1.9101	25.60	0.29	-0.750			
0.5032	32207.58	3.5980	3.5981	-1.9473	25.60	0.29	-0.750	0.390	0.518	
0.5092	32586.19	3.5950	3.5950	-1.9974	25.59	0.28	-0.750			
0.5152	32971.90	3.5920	3.5919	-2.0436	25.59	0.28	-0.750			
0.5214	33369.32	3.5890	3.5891	-2.0808	25.58	0.27	-0.750	0.393	0.519	
0.5278	33778.78	3.5860	3.5860	-2.1241	25.58	0.27	-0.750			
0.5342	34188.74	3.5830	3.5830	-2.1750	25.58	0.27	-0.750			
0.5407	34606.97	3.5800	3.5801	-2.2079	25.58	0.27	-0.750	0.393	0.529	
0.5475	35039.33	3.5770	3.5769	-2.2597	25.58	0.27	-0.750			
0.5543	35476.47	3.5740	3.5740	-2.2743	25.58	0.27	-0.750			
0.5612	35917.67	3.5710	3.5711	-2.3176	25.58	0.27	-0.750	0.403	0.532	
0.5683	36372.41	3.5680	3.5680	-2.3571	25.58	0.27	-0.750			
0.5754	36822.51	3.5650	3.5649	-2.3780	25.58	0.27	-0.750			
0.5825	37279.52	3.5620	3.5621	-2.4009	25.58	0.27	-0.750	0.395	0.535	
0.5898	37748.20	3.5590	3.5590	-2.4137	25.58	0.27	-0.750			
0.5971	38217.20	3.5560	3.5560	-2.4236	25.58	0.27	-0.750	0.390	0.539	
0.6044	38681.57	3.5530	3.5530	-2.4038	25.58	0.27	-0.750			
0.6116	39143.21	3.5500	3.5500	-2.3971	25.59	0.28	-0.750			
0.6188	39603.13	3.5470	3.5470	-2.3873	25.60	0.29	-0.750	0.396	0.543	
0.6260	40061.59	3.5440	3.5439	-2.3617	25.60	0.29	-0.750			
0.6331	40516.18	3.5410	3.5411	-2.3284	25.62	0.31	-0.750			
0.6400	40962.29	3.5380	3.5380	-2.2940	25.62	0.31	-0.750	0.402	0.546	
0.6469	41399.29	3.5350	3.5350	-2.2465	25.63	0.32	-0.750			
0.6535	41826.75	3.5320	3.5319	-2.1939	25.63	0.32	-0.750			
0.6600	42242.79	3.5290	3.5290	-2.1499	25.64	0.33	-0.750	0.396	0.555	
0.6664	42649.72	3.5260	3.5261	-2.0987	25.65	0.34	-0.750			
0.6727	43051.06	3.5230	3.5229	-2.0422	25.66	0.35	-0.750			
0.6787	43439.91	3.5200	3.5200	-1.9838	25.67	0.36	-0.750	0.399	0.559	
0.6846	43815.30	3.5170	3.5171	-1.9185	25.68	0.37	-0.750			
0.6903	44177.98	3.5140	3.5140	-1.8511	25.69	0.38	-0.750			
0.6957	44527.26	3.5110	3.5110	-1.7846	25.70	0.39	-0.750			
0.7010	44861.72	3.5080	3.5082	-1.7212	25.72	0.41	-0.750	0.401	0.572	
0.7060	45185.53	3.5050	3.5050	-1.6714	25.73	0.42	-0.750			
0.7110	45501.37	3.5020	3.5021	-1.6164	25.75	0.44	-0.750			
0.7157	45806.17	3.4990	3.4990	-1.5573	25.77	0.46	-0.750			
0.7203	46100.02	3.4960	3.4961	-1.5006	25.79	0.48	-0.750	0.412	0.581	
0.7247	46383.31	3.4930	3.4930	-1.4462	25.80	0.49	-0.750			
0.7290	46655.81	3.4900	3.4900	-1.4019	25.81	0.50	-0.750			
0.7331	46918.55	3.4870	3.4869	-1.3487	25.82	0.51	-0.750			
0.7371	47172.33	3.4840	3.4840	-1.3024	25.83	0.52	-0.750			
0.7409	47419.63	3.4810	3.4811	-1.2618	25.84	0.53	-0.750	0.393	0.577	
0.7446	47657.57	3.4780	3.4779	-1.2145	25.85	0.54	-0.750			
0.7482	47886.13	3.4750	3.4750	-1.1689	25.86	0.55	-0.750			
0.7516	48104.50	3.4720	3.4720	-1.1352	25.87	0.56	-0.750			
0.7550	48317.89	3.4690	3.4689	-1.1028	25.88	0.57	-0.750			
0.7582	48526.52	3.4660	3.4659	-1.0767	25.88	0.57	-0.750			
0.7614	48728.73	3.4630	3.4631	-1.0537	25.89	0.58	-0.750	0.397	0.595	
0.7645	48928.34	3.4600	3.4599	-1.0370	25.90	0.59	-0.750			
0.7676	49124.78	3.4570	3.4569	-1.0305	25.91	0.60	-0.750			
0.7706	49315.28	3.4540	3.4540	-1.0351	25.91	0.60	-0.750			
0.7737	49516.74	3.4510	3.4510	-1.0447	25.92	0.61	-0.750			
0.7768	49717.10	3.4480	3.4479	-1.0497	25.93	0.62	-0.750			
0.7800	49918.60	3.4450	3.4450	-1.0656	25.93	0.62	-0.750	0.402	0.600	
0.7832	50125.15	3.4420	3.4419	-1.0824	25.94	0.63	-0.750			
0.7865	50332.80	3.4390	3.4389	-1.1013	25.94	0.63	-0.750			
0.7898	50546.47	3.4360	3.4360	-1.1205	25.95	0.64	-0.750			
0.7932	50765.43	3.4330	3.4330	-1.1342	25.95	0.64	-0.750			
0.7967	50989.64	3.4300	3.4299	-1.1357	25.96	0.65	-0.750			
0.8002	51210.70	3.4270	3.4269	-1.1389	25.96	0.65	-0.750	0.395	0.612	
0.8036	51429.16	3.4240	3.4239	-1.1219	25.97	0.66	-0.750			
0.8069	51644.59	3.4210	3.4209	-1.1038	25.97	0.66	-0.750			
0.8102	51851.15	3.4180	3.4181	-1.0830	25.98	0.67	-0.750			
0.8134	52060.29	3.4150	3.4149	-1.0620	25.98	0.67	-0.750			
0.8166	52265.05	3.4120	3.4119	-1.0378	25.98	0.67	-0.750			
0.8197	52461.15	3.4090	3.4090	-1.0065	25.99	0.68	-0.750	0.407	0.633	
0.8226	52649.29	3.4060	3.4059	-0.9728	25.99	0.68	-0.750			
0.8256	52835.56	3.4030	3.4030	-0.9506	25.99	0.68	-0.750			
0.8284	53014.50	3.4000	3.3999	-0.9174	26.00	0.69	-0.750			
0.8310	53185.07	3.3970	3.3970	-0.8911	26.00	0.69	-0.750			
0.8337	53356.01	3.3940	3.3940	-0.8671	26.01	0.70	-0.750			
0.8363	53521.21	3.3910	3.3910	-0.8372	26.01	0.70	-0.750			
0.8387	53679.58	3.3880	3.3879	-0.8017	26.01	0.70	-0.750			
0.8411	53830.26	3.3850	3.3851	-0.7689	26.01	0.70	-0.750	0.402	0.647	
0.8433	53974.30	3.3820	3.3819	-0.7359	26.02	0.71	-0.750			
0.8455	54112.53	3.3790	3.3790	-0.7052	26.02	0.71	-0.750			
0.8475	54242.90	3.3760	3.3759	-0.6745	26.02	0.71	-0.750			
0.8495	54368.55	3.3730	3.3730	-0.6488	26.02	0.71	-0.750			
0.8514	54491.41	3.3700	3.3700	-0.6229	26.03	0.72	-0.750			
0.8533	54608.71	3.3670	3.3670	-0.5949	26.03	0.72	-0.750			
0.8550	54719.17	3.3640	3.3640	-0.5717	26.04	0.73	-0.750			
0.8567	54827.55	3.3610	3.3610	-0.5467	26.04	0.73	-0.750			
0.8583	54930.27	3.3580	3.3579	-0.5192	26.04	0.73	-0.750			
0.8598	55027.45	3.3550	3.3548	-0.4915	26.05	0.74	-0.750			
0.8612	55119.16	3.3520	3.3522	-0.4656	26.05	0.74	-0.750	0.392	0.660	
0.8626	55205.81	3.3490	3.3489	-0.4440	26.05	0.74	-0.750			
0.8639	55288.04	3.3460	3.3458	-0.4215	26.06	0.75	-0.750			
0.8651	55364.12	3.3430	3.3431	-0.3973	26.06	0.75	-0.750			
0.8663	55440.05	3.3400	3.3401	-0.3864	26.06	0.75	-0.750			
0.8674	55513.54	3.3370	3.3370	-0.3710	26.07	0.76	-0.750			
0.8685	55583.36	3.3340	3.3339	-0.3543	26.07	0.76	-0.750			
0.8695	55648.81	3.3310	3.3310	-0.3390	26.07	0.76	-0.750			
0.8705	55712.20	3.3280	3.3280	-0.3248	26.07	0.76	-0.750			
0.8715	55773.34	3.3250	3.3249	-0.3113	26.08	0.77	-0.750			
0.8724	55831.52	3.3220	3.3219	-0.3007	26.08	0.77	-0.750			
0.8732	55887.19	3.3190	3.3191	-0.2891	26.08	0.77	-0.750			
0.8741	55942.27	3.3160	3.3159	-0.2800	26.08	0.77	-0.750			
0.8749	55995.17	3.3130	3.3131	-0.2707	26.09	0.78	-0.750			
0.8757	56045.94	3.3100	3.3100	-0.2619	26.09	0.78	-0.750			
0.8765	56095.02	3.3070	3.3070	-0.2533	26.10	0.79	-0.750			
0.8772	56143.02	3.3040	3.3040	-0.2455	26.10	0.79	-0.750			
0.8779	56187.88	3.3010	3.3010	-0.2431	26.10	0.79	-0.750			
0.8787	56235.25	3.2980	3.2980	-0.2381	26.11	0.80	-0.750			
0.8794	56282.20	3.2950	3.2947	-0.2324	26.11	0.80	-0.750			
0.8801	56326.06	3.2920	3.2915	-0.2245	26.11	0.80	-0.750			
0.8808	56369.23	3.2890	3.2915	-0.2164	26.12	0.81	-0.750	0.400	0.683	
0.8814	56409.89	3.2860	3.2858	-0.2102	26.12	0.81	-0.750			
0.8820	56449.39	3.2830	3.2827	-0.2010	26.12	0.81	-0.750			
0.8826	56486.69	3.2800	3.2798	-0.1965	26.12	0.81	-0.750			
0.8831	56520.77	3.2770	3.2770	-0.1907	26.13	0.82	-0.750			
0.8837	56558.22	3.2740	3.2740	-0.1906	26.13	0.82	-0.750			
0.8843	56594.61	3.2710	3.2711	-0.1875	26.13	0.82	-0.750			
0.8849	56630.42	3.2680	3.2680	-0.1846	26.14	0.83	-0.750			
0.8854	56665.81	3.2650	3.2650	-0.1817	26.14	0.83	-0.750			
0.8859	56700.01	3.2620	3.2620	-0.1781	26.14	0.83	-0.750			
0.8865	56733.94	3.2590	3.2590	-0.1754	26.14	0.83	-0.750			
0.8870	56767.26	3.2560	3.2560	-0.1727	26.15	0.84	-0.750			
0.8875	56800.20	3.2530	3.2530	-0.1700	26.15	0.84	-0.750			
0.8880	56832.50	3.2500	3.2500	-0.1675	26.15	0.84	-0.750			
0.8885	56864.48	3.2470	3.2470	-0.1649	26.16	0.85	-0.750			
0.8890	56895.90	3.2440	3.2440	-0.1623	26.16	0.85	-0.750			
0.8895	56926.75	3.2410	3.2410	-0.1602	26.16	0.85	-0.750			
0.8900	56957.08	3.2380	3.2380	-0.1583	26.17	0.86	-0.750			
0.8904	56987.23	3.2350	3.2350	-0.1564	26.17	0.86	-0.750			
0.8909	57017.11	3.2320	3.2319	-0.1549	26.17	0.86	-0.750			
0.8914	57046.66	3.2290	3.2290	-0.1533	26.18	0.87	-0.750			
0.8918	57076.07	3.2260	3.2260	-0.1513	26.18	0.87	-0.750			
0.8923	57105.17	3.2230	3.2230	-0.1497	26.18	0.87	-0.750			
0.8927	57133.68	3.2200	3.2200	-0.1473	26.18	0.87	-0.750			
0.8932	57161.69	3.2170	3.2171	-0.1455	26.19	0.88	-0.750			
0.8936	57189.27	3.2140	3.2140	-0.1436	26.19	0.88	-0.750			
0.8940	57216.43	3.2110	3.2110	-0.1422	26.19	0.88	-0.750			
0.8944	57243.65	3.2080	3.2080	-0.1413	26.20	0.89	-0.750			
0.8949	57270.61	3.2050	3.2050	-0.1395	26.20	0.89	-0.750			
0.8953	57297.49	3.2020	3.2019	-0.1382	26.20	0.89	-0.750			
0.8957	57323.91	3.1990	3.1991	-0.1369	26.20	0.89	-0.750			
0.8961	57350.04	3.1960	3.1961	-0.1353	26.21	0.90	-0.750			
0.8965	57375.80	3.1930	3.1930	-0.1338	26.21	0.90	-0.750			
0.8969	57401.24	3.1900	3.1900	-0.1326	26.21	0.90	-0.750			
0.8973	57426.33	3.1870	3.1870	-0.1310	26.21	0.90	-0.750			
0.8977	57451.49	3.1840	3.1840	-0.1299	26.22	0.91	-0.750			
0.8981	57476.47	3.1810	3.1810	-0.1292	26.22	0.91	-0.750			
0.8985	57501.16	3.1780	3.1780	-0.1281	26.22	0.91	-0.750			
0.8988	57524.70	3.1750	3.1752	-0.1294	26.23	0.92	-0.750			
0.8992	57549.72	3.1720	3.1720	-0.1312	26.23	0.92	-0.750			
0.8996	57574.62	3.1690	3.1689	-0.1320	26.23	0.92	-0.750			
0.9000	57602.33	3.1660	3.1654	-0.1299	26.24	0.93	-0.750			
0.9004	57626.95	3.1630	3.1623	-0.1266	26.24	0.93	-0.750			
0.9008	57651.80	3.1600	3.1629	-0.1243	26.25	0.94	-0.750	0.406	0.703	
0.9012	57676.05	3.1570	3.1568	-0.1205	26.25	0.94	-0.750			
0.9015	57697.75	3.1540	3.1536	-0.1181	26.25	0.94	-0.750			
0.9018	57717.49	3.1510	3.1508	-0.1120	26.26	0.95	-0.750			
0.9022	57738.76	3.1480	3.1480	-0.1114	26.26	0.95	-0.750			
0.9025	57760.31	3.1450	3.1451	-0.1130	26.26	0.95	-0.750			
0.9029	57783.03	3.1420	3.1420	-0.1141	26.27	0.96	-0.750			
0.9032	57804.87	3.1390	3.1390	-0.1135	26.27	0.96	-0.750			
0.9035	57826.65	3.1360	3.1361	-0.1130	26.27	0.96	-0.750			
0.9039	57848.28	3.1330	3.1329	-0.1123	26.28	0.97	-0.750			
0.9042	57869.82	3.1300	3.1300	-0.1117	26.28	0.97	-0.750			
0.9045	57891.19	3.1270	3.1270	-0.1109	26.29	0.98	-0.750			
0.9049	57912.33	3.1240	3.1240	-0.1103	26.29	0.98	-0.750			
0.9052	57933.47	3.1210	3.1211	-0.1098	26.29	0.98	-0.750			
0.9055	57954.70	3.1180	3.1180	-0.1088	26.30	0.99	-0.750			
0.9059	57975.48	3.1150	3.1149	-0.1077	26.30	0.99	-0.750			
0.9062	57996.03	3.1120	3.1120	-0.1071	26.30	0.99	-0.750			
0.9065	58016.51	3.1090	3.1091	-0.1062	26.31	1.00	-0.750			
0.9068	58036.71	3.1060	3.1060	-0.1057	26.31	1.00	-0.750			
0.9071	58057.01	3.1030	3.1029	-0.1050	26.31	1.00	-0.750			
0.9075	58076.99	3.1000	3.1000	-0.1041	26.32	1.01	-0.750			
0.9078	58096.92	3.0970	3.0970	-0.1036	26.32	1.01	-0.750			
0.9081	58116.94	3.0940	3.0940	-0.1035	26.32	1.01	-0.750			
0.9084	58136.72	3.0910	3.0911	-0.1027	26.32	1.01	-0.750			
0.9087	58156.32	3.0880	3.0879	-0.1019	26.33	1.02	-0.750			
0.9090	58175.81	3.0850	3.0850	-0.1013	26.33	1.02	-0.750			
0.9093	58195.14	3.0820	3.0819	-0.1006	26.33	1.02	-0.750			
0.9096	58214.48	3.0790	3.0791	-0.0998	26.33	1.02	-0.750			
0.9099	58233.73	3.0760	3.0759	-0.0993	26.33	1.02	-0.750			
0.9102	58252.67	3.0730	3.0730	-0.0984	26.34	1.03	-0.750			
0.9105	58271.44	3.0700	3.0701	-0.0975	26.34	1.03	-0.750			
0.9108	58290.04	3.0670	3.0670	-0.0969	26.34	1.03	-0.750			
0.9111	58308.56	3.0640	3.0640	-0.0962	26.34	1.03	-0.750			
0.9114	58326.92	3.0610	3.0610	-0.0958	26.34	1.03	-0.750			
0.9116	58345.11	3.0580	3.0580	-0.0952	26.35	1.04	-0.750			
0.9119	58363.45	3.0550	3.0551	-0.0946	26.35	1.04	-0.750			
0.9122	58381.62	3.0520	3.0519	-0.0941	26.35	1.04	-0.750			
0.9125	58399.59	3.0490	3.0490	-0.0938	26.35	1.04	-0.750			
0.9128	58417.56	3.0460	3.0461	-0.0933	26.35	1.04	-0.750			
0.9131	58435.51	3.0430	3.0429	-0.0925	26.36	1.05	-0.750			
0.9133	58453.26	3.0400	3.0400	-0.0918	26.36	1.05	-0.750			
0.9136	58470.80	3.0370	3.0370	-0.0912	26.36	1.05	-0.750			
0.9139	58488.23	3.0340	3.0340	-0.0904	26.36	1.05	-0.750			
0.9141	58505.52	3.0310	3.0309	-0.0897	26.36	1.05	-0.750			
0.9144	58522.77	3.0280	3.0281	-0.0891	26.36	1.05	-0.750			
0.9147	58539.67	3.0250	3.0250	-0.0888	26.37	1.06	-0.750			
0.9149	58556.43	3.0220	3.0220	-0.0882	26.37	1.06	-0.750			
0.9152	58573.39	3.0190	3.0189	-0.0878	26.37	1.06	-0.750			
0.9155	58590.27	3.0160	3.0160	-0.0876	26.37	1.06	-0.750			
0.9157	58607.06	3.0130	3.0130	-0.0872	26.37	1.06	-0.750			
0.9160	58623.76	3.0100	3.0100	-0.0868	26.38	1.07	-0.750			
0.9163	58640.41	3.0070	3.0070	-0.0865	26.38	1.07	-0.750			
0.9165	58657.08	3.0040	3.0041	-0.0856	26.38	1.07	-0.750			
0.9168	58673.43	3.0010	3.0010	-0.0847	26.38	1.07	-0.750			
