Ah_balance (normalized)	Ah_balance (mAh)	Voltage - fit (V)	Voltage -  interpolate (V)	dQ/dV (1/V)	Temperature (°C)	Temperature - diff (°C)	Current (C)	R_DC 0ms (mOhm)	R_DC 50ms (mOhm)	R_DC 50 ms PEC (mOhm)
0.1964	12568.04	3.9150	3.9147	-0.1019	25.98	0.00	-1.500			
0.1967	12591.16	3.9120	3.9118	-0.1353	25.98	0.00	-1.500			
0.1972	12619.87	3.9090	3.9090	-0.1650	25.98	0.00	-1.500			
0.1977	12654.72	3.9060	3.9060	-0.1943	25.98	0.00	-1.500			
0.1984	12695.04	3.9030	3.9030	-0.2216	25.98	0.00	-1.500			
0.1991	12741.03	3.9000	3.8999	-0.2489	25.98	-0.00	-1.500			
0.1999	12790.84	3.8970	3.8971	-0.2778	25.98	-0.00	-1.500			
0.2007	12846.51	3.8940	3.8939	-0.3055	25.98	-0.00	-1.500			
0.2017	12908.07	3.8910	3.8909	-0.3327	25.98	-0.00	-1.500			
0.2027	12974.79	3.8880	3.8880	-0.3596	25.98	-0.00	-1.500			
0.2039	13046.55	3.8850	3.8851	-0.3870	25.98	-0.00	-1.500			
0.2051	13123.68	3.8820	3.8821	-0.4131	25.97	-0.01	-1.500			
0.2063	13205.38	3.8790	3.8790	-0.4384	25.97	-0.01	-1.500			
0.2077	13291.57	3.8760	3.8759	-0.4625	25.97	-0.01	-1.500			
0.2091	13383.15	3.8730	3.8731	-0.4868	25.97	-0.01	-1.500			
0.2106	13479.37	3.8700	3.8699	-0.5096	25.97	-0.01	-1.500			
0.2122	13580.20	3.8670	3.8671	-0.5317	25.97	-0.01	-1.500			
0.2138	13684.33	3.8640	3.8641	-0.5522	25.97	-0.01	-1.500			
0.2155	13792.39	3.8610	3.8610	-0.5738	25.97	-0.01	-1.500			
0.2173	13904.94	3.8580	3.8580	-0.5918	25.97	-0.01	-1.500			
0.2191	14020.78	3.8550	3.8550	-0.6074	25.96	-0.02	-1.500			
0.2209	14139.04	3.8520	3.8521	-0.6231	25.96	-0.02	-1.500			
0.2228	14261.01	3.8490	3.8490	-0.6390	25.96	-0.02	-1.500			
0.2248	14385.52	3.8460	3.8460	-0.6483	25.96	-0.02	-1.500			
0.2268	14512.50	3.8430	3.8429	-0.6531	25.96	-0.02	-1.500			
0.2287	14638.15	3.8400	3.8401	-0.6597	25.96	-0.02	-1.500			
0.2307	14765.82	3.8370	3.8371	-0.6686	25.96	-0.02	-1.500			
0.2327	14894.38	3.8340	3.8340	-0.6737	25.96	-0.02	-1.500			
0.2347	15022.94	3.8310	3.8309	-0.6777	25.96	-0.02	-1.500			
0.2368	15153.23	3.8280	3.8280	-0.6871	25.96	-0.02	-1.500			
0.2389	15287.99	3.8250	3.8250	-0.6930	25.96	-0.02	-1.500			
0.2410	15421.81	3.8220	3.8219	-0.6969	25.96	-0.02	-1.500			
0.2431	15556.21	3.8190	3.8191	-0.6977	25.96	-0.02	-1.500			
0.2452	15690.69	3.8160	3.8160	-0.6996	25.96	-0.02	-1.500			
0.2473	15825.09	3.8130	3.8130	-0.7023	25.96	-0.02	-1.500			
0.2494	15959.56	3.8100	3.8100	-0.7051	25.96	-0.02	-1.500			
0.2515	16095.01	3.8070	3.8070	-0.7048	25.96	-0.02	-1.500			
0.2536	16231.77	3.8040	3.8040	-0.7068	25.97	-0.01	-1.500			
0.2557	16367.36	3.8010	3.8010	-0.7073	25.97	-0.01	-1.500			
0.2579	16503.24	3.7980	3.7981	-0.7080	25.97	-0.01	-1.500			
0.2600	16639.12	3.7950	3.7949	-0.7082	25.98	-0.00	-1.500			
0.2621	16774.62	3.7920	3.7920	-0.7085	25.98	0.00	-1.500			
0.2642	16910.18	3.7890	3.7890	-0.7075	25.98	0.00	-1.500			
0.2664	17046.73	3.7860	3.7860	-0.7115	25.99	0.01	-1.500			
0.2685	17184.60	3.7830	3.7830	-0.7105	25.99	0.01	-1.500			
0.2706	17320.41	3.7800	3.7800	-0.7091	26.00	0.02	-1.500			
0.2728	17456.39	3.7770	3.7771	-0.7113	26.00	0.02	-1.500			
0.2749	17592.91	3.7740	3.7739	-0.7092	26.00	0.02	-1.500			
0.2770	17728.62	3.7710	3.7710	-0.7114	26.01	0.03	-1.500			
0.2791	17865.06	3.7680	3.7681	-0.7136	26.01	0.03	-1.500			
0.2813	18002.41	3.7650	3.7650	-0.7164	26.01	0.03	-1.500			
0.2834	18140.59	3.7620	3.7620	-0.7179	26.02	0.04	-1.500			
0.2856	18278.31	3.7590	3.7590	-0.7167	26.02	0.04	-1.500			
0.2877	18415.90	3.7560	3.7560	-0.7177	26.02	0.04	-1.500			
0.2899	18554.23	3.7530	3.7530	-0.7215	26.03	0.05	-1.500			
0.2921	18692.02	3.7500	3.7501	-0.7212	26.03	0.05	-1.500			
0.2942	18830.82	3.7470	3.7469	-0.7205	26.03	0.05	-1.500			
0.2964	18969.46	3.7440	3.7440	-0.7211	26.04	0.06	-1.500			
0.2985	19107.20	3.7410	3.7412	-0.7236	26.04	0.06	-1.500			
0.3007	19246.06	3.7380	3.7380	-0.7263	26.04	0.06	-1.500			
0.3029	19385.69	3.7350	3.7350	-0.7284	26.05	0.07	-1.500			
0.3051	19525.17	3.7320	3.7320	-0.7343	26.05	0.07	-1.500			
0.3073	19666.64	3.7290	3.7290	-0.7405	26.06	0.08	-1.500			
0.3095	19810.36	3.7260	3.7260	-0.7464	26.06	0.08	-1.500			
0.3118	19955.00	3.7230	3.7229	-0.7480	26.07	0.09	-1.500			
0.3140	20097.98	3.7200	3.7201	-0.7543	26.07	0.09	-1.500			
0.3163	20243.11	3.7170	3.7170	-0.7623	26.08	0.10	-1.500			
0.3186	20390.48	3.7140	3.7139	-0.7671	26.08	0.10	-1.500			
0.3209	20537.72	3.7110	3.7110	-0.7691	26.08	0.10	-1.500			
0.3232	20686.19	3.7080	3.7081	-0.7765	26.09	0.11	-1.500			
0.3256	20835.87	3.7050	3.7050	-0.7862	26.09	0.11	-1.500			
0.3279	20987.30	3.7020	3.7019	-0.7933	26.10	0.12	-1.500			
0.3303	21138.78	3.6990	3.6990	-0.8013	26.10	0.12	-1.500			
0.3327	21292.69	3.6960	3.6960	-0.8128	26.10	0.12	-1.500			
0.3352	21451.88	3.6930	3.6931	-0.8260	26.10	0.12	-1.500			
0.3377	21611.88	3.6900	3.6900	-0.8349	26.11	0.13	-1.500			
0.3402	21772.39	3.6870	3.6870	-0.8461	26.11	0.13	-1.500			
0.3427	21935.17	3.6840	3.6840	-0.8601	26.11	0.13	-1.500			
0.3453	22101.15	3.6810	3.6810	-0.8701	26.12	0.14	-1.500			
0.3480	22269.05	3.6780	3.6780	-0.8828	26.12	0.14	-1.500			
0.3506	22440.67	3.6750	3.6750	-0.8935	26.12	0.14	-1.500			
0.3533	22613.44	3.6720	3.6720	-0.9070	26.13	0.15	-1.500			
0.3561	22788.53	3.6690	3.6690	-0.9218	26.13	0.15	-1.500			
0.3589	22966.66	3.6660	3.6660	-0.9316	26.13	0.15	-1.500			
0.3616	23144.21	3.6630	3.6630	-0.9500	26.14	0.16	-1.500			
0.3645	23329.76	3.6600	3.6601	-0.9706	26.14	0.16	-1.500			
0.3675	23517.53	3.6570	3.6569	-0.9878	26.14	0.16	-1.500			
0.3705	23709.75	3.6540	3.6539	-1.0068	26.15	0.17	-1.500			
0.3735	23903.93	3.6510	3.6511	-1.0260	26.15	0.17	-1.500			
0.3766	24103.55	3.6480	3.6480	-1.0443	26.15	0.17	-1.500			
0.3798	24307.58	3.6450	3.6449	-1.0627	26.15	0.17	-1.500			
0.3830	24511.02	3.6420	3.6421	-1.0759	26.15	0.17	-1.500			
0.3862	24719.35	3.6390	3.6390	-1.0976	26.16	0.18	-1.500			
0.3896	24932.56	3.6360	3.6359	-1.1127	26.16	0.18	-1.500			
0.3929	25146.79	3.6330	3.6330	-1.1321	26.16	0.18	-1.500			
0.3963	25364.50	3.6300	3.6301	-1.1555	26.16	0.18	-1.500			
0.3998	25590.28	3.6270	3.6270	-1.1829	26.16	0.18	-1.500			
0.4034	25820.44	3.6240	3.6238	-1.2020	26.16	0.18	-1.500			
0.4071	26052.31	3.6210	3.6210	-1.2215	26.16	0.18	-1.500			
0.4108	26288.77	3.6180	3.6181	-1.2530	26.16	0.18	-1.500			
0.4146	26532.57	3.6150	3.6149	-1.2745	26.16	0.18	-1.500			
0.4184	26778.90	3.6120	3.6120	-1.2897	26.16	0.18	-1.500			
0.4223	27028.36	3.6090	3.6091	-1.3117	26.16	0.18	-1.500			
0.4263	27282.16	3.6060	3.6061	-1.3366	26.16	0.18	-1.500			
0.4304	27543.06	3.6030	3.6029	-1.3576	26.16	0.18	-1.500			
0.4344	27803.93	3.6000	3.6000	-1.3793	26.16	0.18	-1.500			
0.4386	28068.97	3.5970	3.5970	-1.3977	26.16	0.18	-1.500			
0.4428	28341.82	3.5940	3.5941	-1.4271	26.16	0.18	-1.500			
0.4472	28619.10	3.5910	3.5909	-1.4449	26.16	0.18	-1.500			
0.4515	28896.93	3.5880	3.5880	-1.4657	26.16	0.18	-1.500			
0.4560	29180.82	3.5850	3.5850	-1.4851	26.16	0.18	-1.500			
0.4605	29468.89	3.5820	3.5821	-1.5046	26.16	0.18	-1.500			
0.4649	29756.68	3.5790	3.5790	-1.5251	26.16	0.18	-1.500			
0.4696	30051.87	3.5760	3.5761	-1.5515	26.16	0.18	-1.500			
0.4743	30352.48	3.5730	3.5730	-1.5734	26.16	0.18	-1.500			
0.4790	30657.63	3.5700	3.5700	-1.5981	26.16	0.18	-1.500			
0.4838	30966.14	3.5670	3.5670	-1.6172	26.16	0.18	-1.500			
0.4888	31280.57	3.5640	3.5640	-1.6417	26.16	0.18	-1.500			
0.4937	31599.01	3.5610	3.5610	-1.6559	26.16	0.18	-1.500			
0.4987	31917.01	3.5580	3.5581	-1.6671	26.16	0.18	-1.500			
0.5037	32238.81	3.5550	3.5550	-1.6793	26.16	0.18	-1.500			
0.5088	32562.39	3.5520	3.5520	-1.7039	26.17	0.19	-1.500			
0.5139	32891.31	3.5490	3.5489	-1.7169	26.17	0.19	-1.500			
0.5191	33224.32	3.5460	3.5460	-1.7290	26.18	0.20	-1.500			
0.5243	33556.47	3.5430	3.5432	-1.7436	26.18	0.20	-1.500			
0.5296	33893.54	3.5400	3.5400	-1.7655	26.18	0.20	-1.500			
0.5349	34233.82	3.5370	3.5370	-1.7724	26.19	0.21	-1.500			
0.5402	34574.81	3.5340	3.5341	-1.7740	26.19	0.21	-1.500	0.382	0.519	
0.5456	34917.80	3.5310	3.5310	-1.7810	26.20	0.22	-1.500			
0.5510	35261.12	3.5280	3.5280	-1.7858	26.20	0.22	-1.500			
0.5563	35603.63	3.5250	3.5250	-1.7920	26.21	0.23	-1.500			
0.5617	35946.45	3.5220	3.5220	-1.7875	26.22	0.24	-1.500			
0.5670	36289.21	3.5190	3.5190	-1.7860	26.23	0.25	-1.500			
0.5724	36634.93	3.5160	3.5160	-1.7918	26.24	0.26	-1.500			
0.5778	36978.03	3.5130	3.5130	-1.7971	26.25	0.27	-1.500			
0.5832	37323.54	3.5100	3.5099	-1.7950	26.26	0.28	-1.500			
0.5886	37667.37	3.5070	3.5070	-1.7954	26.26	0.28	-1.500			
0.5940	38016.12	3.5040	3.5040	-1.7925	26.27	0.29	-1.500			
0.5994	38361.20	3.5010	3.5011	-1.7822	26.28	0.30	-1.500			
0.6047	38699.84	3.4980	3.4980	-1.7800	26.29	0.31	-1.500			
0.6100	39038.50	3.4950	3.4950	-1.7791	26.30	0.32	-1.500			
0.6153	39380.28	3.4920	3.4919	-1.7645	26.31	0.33	-1.500			
0.6206	39721.08	3.4890	3.4890	-1.7623	26.32	0.34	-1.500			
0.6259	40057.87	3.4860	3.4861	-1.7502	26.33	0.35	-1.500			
0.6312	40395.03	3.4830	3.4829	-1.7399	26.34	0.36	-1.500			
0.6363	40724.80	3.4800	3.4800	-1.7276	26.35	0.37	-1.500			
0.6415	41055.17	3.4770	3.4769	-1.7195	26.36	0.38	-1.500			
0.6467	41388.69	3.4740	3.4740	-1.7182	26.38	0.40	-1.500			
0.6518	41718.38	3.4710	3.4710	-1.6917	26.39	0.41	-1.500			
0.6569	42042.32	3.4680	3.4680	-1.6819	26.40	0.42	-1.500			
0.6619	42361.90	3.4650	3.4650	-1.6478	26.42	0.44	-1.500			
0.6668	42676.50	3.4620	3.4619	-1.6155	26.43	0.45	-1.500			
0.6717	42986.69	3.4590	3.4589	-1.5910	26.44	0.46	-1.500			
0.6764	43286.54	3.4560	3.4560	-1.5667	26.46	0.48	-1.500			
0.6810	43584.89	3.4530	3.4529	-1.5404	26.48	0.50	-1.500			
0.6856	43878.34	3.4500	3.4500	-1.5209	26.49	0.51	-1.500			
0.6901	44164.02	3.4470	3.4470	-1.4894	26.51	0.53	-1.500			
0.6946	44454.18	3.4440	3.4440	-1.4836	26.53	0.55	-1.500			
0.6990	44736.53	3.4410	3.4411	-1.4615	26.54	0.56	-1.500			
0.7033	45014.31	3.4380	3.4380	-1.4392	26.56	0.58	-1.500			
0.7076	45284.87	3.4350	3.4350	-1.4275	26.58	0.60	-1.500			
0.7118	45558.05	3.4320	3.4320	-1.4151	26.60	0.62	-1.500			
0.7161	45829.56	3.4290	3.4289	-1.4026	26.61	0.63	-1.500			
0.7203	46098.01	3.4260	3.4260	-1.3884	26.63	0.65	-1.500			
0.7244	46363.57	3.4230	3.4230	-1.3787	26.64	0.66	-1.500			
0.7286	46628.08	3.4200	3.4199	-1.3630	26.66	0.68	-1.500			
0.7326	46888.11	3.4170	3.4170	-1.3460	26.68	0.70	-1.500			
0.7366	47144.30	3.4140	3.4140	-1.3300	26.70	0.72	-1.500			
0.7407	47404.49	3.4110	3.4110	-1.3046	26.72	0.74	-1.500			
0.7446	47652.55	3.4080	3.4079	-1.2758	26.74	0.76	-1.500			
0.7484	47894.54	3.4050	3.4052	-1.2449	26.75	0.77	-1.500			
0.7520	48129.97	3.4020	3.4019	-1.2056	26.77	0.79	-1.500			
0.7556	48358.13	3.3990	3.3989	-1.1675	26.78	0.80	-1.500			
0.7590	48577.06	3.3960	3.3961	-1.1285	26.80	0.82	-1.500			
0.7624	48792.43	3.3930	3.3931	-1.0965	26.82	0.84	-1.500			
0.7656	49000.39	3.3900	3.3899	-1.0556	26.83	0.85	-1.500			
0.7687	49196.54	3.3870	3.3870	-1.0101	26.85	0.87	-1.500			
0.7717	49387.49	3.3840	3.3840	-0.9700	26.86	0.88	-1.500			
0.7745	49569.60	3.3810	3.3810	-0.9378	26.87	0.89	-1.500			
0.7773	49745.52	3.3780	3.3780	-0.9002	26.89	0.91	-1.500			
0.7799	49913.32	3.3750	3.3749	-0.8618	26.90	0.92	-1.500			
0.7824	50075.83	3.3720	3.3720	-0.8326	26.91	0.93	-1.500			
0.7849	50232.52	3.3690	3.3690	-0.8025	26.92	0.94	-1.500			
0.7872	50382.76	3.3660	3.3660	-0.7774	26.94	0.96	-1.500			
0.7895	50529.94	3.3630	3.3630	-0.7507	26.95	0.97	-1.500			
0.7917	50670.60	3.3600	3.3600	-0.7236	26.96	0.98	-1.500			
0.7939	50808.05	3.3570	3.3570	-0.7013	26.97	0.99	-1.500			
0.7959	50940.24	3.3540	3.3540	-0.6779	26.97	0.99	-1.500			
0.7979	51067.19	3.3510	3.3509	-0.6519	26.98	1.00	-1.500			
0.7998	51189.94	3.3480	3.3480	-0.6302	26.99	1.01	-1.500			
0.8017	51306.82	3.3450	3.3450	-0.6102	27.00	1.02	-1.500			
0.8035	51422.76	3.3420	3.3420	-0.5935	27.01	1.03	-1.500			
0.8052	51534.90	3.3390	3.3389	-0.5743	27.02	1.04	-1.500			
0.8069	51643.37	3.3360	3.3360	-0.5583	27.03	1.05	-1.500			
0.8086	51749.00	3.3330	3.3330	-0.5428	27.04	1.06	-1.500			
0.8102	51851.62	3.3300	3.3301	-0.5298	27.04	1.06	-1.500			
0.8117	51951.87	3.3270	3.3269	-0.5146	27.05	1.07	-1.500			
0.8133	52048.23	3.3240	3.3240	-0.4980	27.06	1.08	-1.500			
0.8147	52143.73	3.3210	3.3210	-0.4845	27.07	1.09	-1.500			
0.8162	52235.97	3.3180	3.3180	-0.4693	27.08	1.10	-1.500			
0.8176	52323.26	3.3150	3.3150	-0.4536	27.09	1.11	-1.500			
0.8189	52408.43	3.3120	3.3119	-0.4389	27.09	1.11	-1.500			
0.8202	52490.75	3.3090	3.3090	-0.4264	27.10	1.12	-1.500			
0.8214	52571.25	3.3060	3.3059	-0.4141	27.11	1.13	-1.500			
0.8227	52649.97	3.3030	3.3030	-0.4038	27.11	1.13	-1.500			
0.8239	52726.92	3.3000	3.3001	-0.3931	27.12	1.14	-1.500			
0.8250	52801.06	3.2970	3.2969	-0.3829	27.13	1.15	-1.500			
0.8261	52872.94	3.2940	3.2940	-0.3731	27.14	1.16	-1.500			
0.8272	52943.03	3.2910	3.2911	-0.3650	27.14	1.16	-1.500			
0.8283	53012.62	3.2880	3.2879	-0.3557	27.15	1.17	-1.500			
0.8294	53080.40	3.2850	3.2849	-0.3479	27.15	1.17	-1.500			
0.8304	53146.46	3.2820	3.2821	-0.3384	27.16	1.18	-1.500			
0.8314	53210.52	3.2790	3.2790	-0.3300	27.17	1.19	-1.500			
0.8324	53272.69	3.2760	3.2760	-0.3223	27.17	1.19	-1.500			
0.8333	53333.92	3.2730	3.2730	-0.3139	27.18	1.20	-1.500			
0.8343	53393.06	3.2700	3.2700	-0.3053	27.18	1.20	-1.500			
0.8352	53451.30	3.2670	3.2671	-0.2986	27.19	1.21	-1.500			
0.8361	53507.61	3.2640	3.2640	-0.2917	27.19	1.21	-1.500			
0.8369	53563.04	3.2610	3.2609	-0.2856	27.20	1.22	-1.500			
0.8378	53616.41	3.2580	3.2581	-0.2794	27.20	1.22	-1.500			
0.8386	53669.69	3.2550	3.2549	-0.2732	27.21	1.23	-1.500			
0.8394	53722.04	3.2520	3.2520	-0.2693	27.21	1.23	-1.500			
0.8402	53773.19	3.2490	3.2491	-0.2637	27.22	1.24	-1.500			
0.8410	53823.21	3.2460	3.2460	-0.2585	27.22	1.24	-1.500			
0.8418	53872.34	3.2430	3.2429	-0.2528	27.23	1.25	-1.500			
0.8425	53920.13	3.2400	3.2402	-0.2473	27.23	1.25	-1.500			
0.8432	53967.11	3.2370	3.2369	-0.2419	27.24	1.26	-1.500			
0.8440	54013.12	3.2340	3.2340	-0.2389	27.24	1.26	-1.500			
0.8447	54058.04	3.2310	3.2309	-0.2342	27.25	1.27	-1.500			
0.8454	54102.53	3.2280	3.2280	-0.2311	27.25	1.27	-1.500			
0.8460	54146.87	3.2250	3.2251	-0.2275	27.25	1.27	-1.500			
0.8467	54190.20	3.2220	3.2220	-0.2241	27.26	1.28	-1.500			
0.8474	54233.33	3.2190	3.2190	-0.2211	27.26	1.28	-1.500			
0.8480	54275.19	3.2160	3.2161	-0.2184	27.27	1.29	-1.500			
0.8487	54316.64	3.2130	3.2129	-0.2138	27.27	1.29	-1.500			
0.8493	54357.34	3.2100	3.2100	-0.2110	27.28	1.30	-1.500			
0.8500	54397.65	3.2070	3.2070	-0.2082	27.28	1.30	-1.500			
0.8506	54437.33	3.2040	3.2041	-0.2043	27.29	1.31	-1.500			
0.8512	54476.25	3.2010	3.2010	-0.2026	27.29	1.31	-1.500			
0.8518	54514.53	3.1980	3.1980	-0.1992	27.30	1.32	-1.500			
0.8524	54552.57	3.1950	3.1950	-0.1970	27.30	1.32	-1.500			
0.8530	54589.83	3.1920	3.1919	-0.1948	27.31	1.33	-1.500			
0.8536	54627.29	3.1890	3.1890	-0.1934	27.31	1.33	-1.500			
0.8541	54664.09	3.1860	3.1861	-0.1912	27.32	1.34	-1.500			
0.8547	54700.66	3.1830	3.1830	-0.1897	27.32	1.34	-1.500			
0.8553	54737.35	3.1800	3.1800	-0.1872	27.33	1.35	-1.500			
0.8558	54772.89	3.1770	3.1770	-0.1842	27.33	1.35	-1.500			
0.8564	54807.97	3.1740	3.1740	-0.1825	27.34	1.36	-1.500			
0.8569	54842.79	3.1710	3.1711	-0.1802	27.34	1.36	-1.500			
0.8575	54877.03	3.1680	3.1679	-0.1778	27.35	1.37	-1.500			
0.8580	54910.58	3.1650	3.1650	-0.1764	27.35	1.37	-1.500			
0.8585	54944.41	3.1620	3.1620	-0.1745	27.36	1.38	-1.500			
0.8590	54977.90	3.1590	3.1590	-0.1730	27.36	1.38	-1.500			
0.8596	55011.24	3.1560	3.1559	-0.1718	27.36	1.38	-1.500			
0.8601	55044.11	3.1530	3.1531	-0.1701	27.37	1.39	-1.500			
0.8606	55076.43	3.1500	3.1500	-0.1680	27.37	1.39	-1.500			
0.8611	55108.51	3.1470	3.1470	-0.1664	27.38	1.40	-1.500			
0.8616	55140.36	3.1440	3.1439	-0.1648	27.38	1.40	-1.500			
0.8621	55171.50	3.1410	3.1410	-0.1631	27.39	1.41	-1.500			
0.8625	55202.85	3.1380	3.1379	-0.1625	27.39	1.41	-1.500			
0.8630	55234.19	3.1350	3.1350	-0.1606	27.40	1.42	-1.500			
0.8635	55264.85	3.1320	3.1320	-0.1588	27.40	1.42	-1.500			
0.8640	55294.97	3.1290	3.1290	-0.1584	27.41	1.43	-1.500			
0.8645	55325.27	3.1260	3.1261	-0.1572	27.41	1.43	-1.500			
0.8649	55355.38	3.1230	3.1230	-0.1561	27.42	1.44	-1.500			
0.8654	55385.27	3.1200	3.1198	-0.1552	27.42	1.44	-1.500			
0.8659	55414.87	3.1170	3.1171	-0.1543	27.43	1.45	-1.500			
0.8663	55444.61	3.1140	3.1140	-0.1530	27.43	1.45	-1.500			
0.8668	55474.03	3.1110	3.1110	-0.1527	27.44	1.46	-1.500			
0.8672	55503.19	3.1080	3.1080	-0.1510	27.44	1.46	-1.500			
0.8677	55531.65	3.1050	3.1051	-0.1489	27.44	1.46	-1.500			
0.8681	55560.17	3.1020	3.1019	-0.1484	27.45	1.47	-1.500			
0.8686	55588.48	3.0990	3.0990	-0.1472	27.45	1.47	-1.500			
0.8690	55616.65	3.0960	3.0961	-0.1465	27.46	1.48	-1.500			
0.8694	55644.67	3.0930	3.0929	-0.1452	27.46	1.48	-1.500			
0.8699	55672.59	3.0900	3.0902	-0.1448	27.47	1.49	-1.500			
0.8703	55700.17	3.0870	3.0871	-0.1436	27.47	1.49	-1.500			
0.8707	55727.72	3.0840	3.0840	-0.1425	27.48	1.50	-1.500			
0.8712	55755.18	3.0810	3.0809	-0.1416	27.48	1.50	-1.500			
0.8716	55782.06	3.0780	3.0780	-0.1403	27.49	1.51	-1.500			
0.8720	55808.91	3.0750	3.0751	-0.1394	27.49	1.51	-1.500			
0.8724	55835.52	3.0720	3.0720	-0.1386	27.50	1.52	-1.500			
0.8728	55862.16	3.0690	3.0690	-0.1377	27.50	1.52	-1.500			
0.8733	55888.26	3.0660	3.0660	-0.1369	27.51	1.53	-1.500			
0.8737	55914.51	3.0630	3.0630	-0.1365	27.51	1.53	-1.500			
0.8741	55940.66	3.0600	3.0601	-0.1365	27.52	1.54	-1.500			
0.8745	55966.99	3.0570	3.0569	-0.1356	27.52	1.54	-1.500			
0.8749	55992.93	3.0540	3.0541	-0.1349	27.53	1.55	-1.500			
0.8753	56018.77	3.0510	3.0509	-0.1343	27.53	1.55	-1.500			
0.8757	56044.69	3.0480	3.0481	-0.1326	27.54	1.56	-1.500			
0.8761	56070.13	3.0450	3.0449	-0.1317	27.54	1.56	-1.500			
0.8765	56095.13	3.0420	3.0419	-0.1299	27.55	1.57	-1.500			
0.8769	56119.87	3.0390	3.0392	-0.1291	27.55	1.57	-1.500			
0.8773	56144.27	3.0360	3.0358	-0.1285	27.56	1.58	-1.500			
0.8776	56168.87	3.0330	3.0330	-0.1282	27.56	1.58	-1.500			
0.8780	56193.30	3.0300	3.0299	-0.1274	27.57	1.59	-1.500			
0.8784	56217.91	3.0270	3.0270	-0.1270	27.57	1.59	-1.500			
0.8788	56242.53	3.0240	3.0240	-0.1270	27.58	1.60	-1.500			
0.8792	56266.89	3.0210	3.0211	-0.1264	27.58	1.60	-1.500			
0.8795	56291.07	3.0180	3.0180	-0.1256	27.59	1.61	-1.500			
0.8799	56315.29	3.0150	3.0149	-0.1242	27.60	1.62	-1.500			
0.8803	56338.97	3.0120	3.0119	-0.1228	27.60	1.62	-1.500			
0.8807	56362.42	3.0090	3.0092	-0.1215	27.60	1.62	-1.500			
0.8810	56385.77	3.0060	3.0059	-0.1194	27.61	1.63	-1.500			
0.8814	56408.48	3.0030	3.0030	-0.1173	27.61	1.63	-1.499			
