Ah_balance (normalized)	Ah_balance (mAh)	Voltage - fit (V)	Voltage -  interpolate (V)	dQ/dV (1/V)	Temperature (°C)	Temperature - diff (°C)	Current (C)	R_DC 0ms (mOhm)	R_DC 50ms (mOhm)	R_DC 50 ms PEC (mOhm)
0.0003	17.04	4.1340	4.1338	-0.0910	25.49	-0.01	-1.500			
0.0006	37.18	4.1310	4.1307	-0.1188	25.49	-0.01	-1.500			
0.0010	62.91	4.1280	4.1279	-0.1462	25.49	-0.01	-1.500			
0.0015	93.59	4.1250	4.1250	-0.1731	25.49	-0.01	-1.500			
0.0020	129.60	4.1220	4.1220	-0.1986	25.49	-0.01	-1.500			
0.0027	170.38	4.1190	4.1190	-0.2221	25.49	-0.01	-1.500			
0.0034	216.50	4.1160	4.1159	-0.2456	25.49	-0.01	-1.500			
0.0041	265.58	4.1130	4.1131	-0.2694	25.50	-0.00	-1.500			
0.0050	319.83	4.1100	4.1099	-0.2915	25.50	-0.00	-1.500			
0.0059	377.90	4.1070	4.1070	-0.3136	25.50	-0.00	-1.500			
0.0069	440.39	4.1040	4.1040	-0.3341	25.50	-0.00	-1.500			
0.0079	506.05	4.1010	4.1011	-0.3592	25.50	0.00	-1.500			
0.0090	577.36	4.0980	4.0980	-0.3824	25.50	0.00	-1.500			
0.0102	653.26	4.0950	4.0950	-0.4035	25.50	0.00	-1.500			
0.0115	733.02	4.0920	4.0920	-0.4234	25.51	0.01	-1.500			
0.0128	817.03	4.0890	4.0891	-0.4449	25.51	0.01	-1.500			
0.0141	904.37	4.0860	4.0860	-0.4629	25.51	0.01	-1.500			
0.0155	994.38	4.0830	4.0830	-0.4858	25.51	0.01	-1.500			
0.0170	1089.01	4.0800	4.0799	-0.5043	25.52	0.02	-1.500			
0.0186	1189.55	4.0770	4.0769	-0.5213	25.52	0.02	-1.500			
0.0202	1291.85	4.0740	4.0741	-0.5369	25.52	0.02	-1.500	0.369	0.495	
0.0218	1397.25	4.0710	4.0710	-0.5508	25.52	0.02	-1.500			
0.0235	1504.04	4.0680	4.0680	-0.5610	25.53	0.03	-1.500			
0.0252	1611.24	4.0650	4.0650	-0.5737	25.53	0.03	-1.500			
0.0269	1721.64	4.0620	4.0619	-0.5859	25.53	0.03	-1.500			
0.0287	1837.05	4.0590	4.0590	-0.5987	25.53	0.03	-1.500			
0.0305	1953.84	4.0560	4.0560	-0.6095	25.54	0.04	-1.500			
0.0324	2072.44	4.0530	4.0531	-0.6195	25.54	0.04	-1.500			
0.0343	2192.58	4.0500	4.0501	-0.6268	25.55	0.05	-1.500			
0.0361	2312.97	4.0470	4.0469	-0.6358	25.55	0.05	-1.500			
0.0381	2436.97	4.0440	4.0439	-0.6368	25.55	0.05	-1.500			
0.0400	2559.89	4.0410	4.0409	-0.6420	25.56	0.06	-1.500	0.369	0.492	
0.0419	2683.64	4.0380	4.0381	-0.6471	25.56	0.06	-1.500			
0.0439	2808.53	4.0350	4.0350	-0.6516	25.57	0.07	-1.500			
0.0458	2932.98	4.0320	4.0319	-0.6582	25.57	0.07	-1.500			
0.0478	3058.00	4.0290	4.0291	-0.6616	25.58	0.08	-1.500			
0.0498	3187.39	4.0260	4.0260	-0.6694	25.58	0.08	-1.500			
0.0518	3317.99	4.0230	4.0230	-0.6728	25.59	0.09	-1.500			
0.0539	3447.03	4.0200	4.0201	-0.6772	25.59	0.09	-1.500			
0.0559	3577.75	4.0170	4.0169	-0.6790	25.60	0.10	-1.500			
0.0579	3708.48	4.0140	4.0139	-0.6794	25.60	0.10	-1.500			
0.0600	3838.89	4.0110	4.0110	-0.6805	25.61	0.11	-1.500	0.367	0.490	
0.0620	3970.14	4.0080	4.0080	-0.6801	25.62	0.12	-1.500			
0.0641	4099.85	4.0050	4.0050	-0.6815	25.63	0.13	-1.500			
0.0661	4231.04	4.0020	4.0020	-0.6858	25.64	0.14	-1.500			
0.0682	4361.99	3.9990	3.9989	-0.6873	25.65	0.15	-1.500			
0.0702	4495.15	3.9960	3.9960	-0.6911	25.65	0.15	-1.500			
0.0723	4628.13	3.9930	3.9930	-0.6936	25.66	0.16	-1.500			
0.0744	4761.28	3.9900	3.9900	-0.7021	25.67	0.17	-1.500			
0.0765	4898.87	3.9870	3.9869	-0.7022	25.68	0.18	-1.500			
0.0787	5033.88	3.9840	3.9839	-0.6982	25.69	0.19	-1.500			
0.0807	5167.85	3.9810	3.9811	-0.6977	25.70	0.20	-1.500	0.364	0.489	
0.0828	5302.23	3.9780	3.9780	-0.6970	25.70	0.20	-1.500			
0.0849	5434.89	3.9750	3.9749	-0.6961	25.71	0.21	-1.500			
0.0870	5566.24	3.9720	3.9719	-0.6954	25.72	0.22	-1.500			
0.0890	5699.18	3.9690	3.9691	-0.7005	25.73	0.23	-1.500			
0.0912	5835.42	3.9660	3.9660	-0.7066	25.74	0.24	-1.500			
0.0933	5971.50	3.9630	3.9630	-0.7137	25.75	0.25	-1.500			
0.0955	6109.74	3.9600	3.9600	-0.7139	25.76	0.26	-1.500			
0.0976	6247.60	3.9570	3.9570	-0.7132	25.76	0.26	-1.500			
0.0998	6384.55	3.9540	3.9540	-0.7116	25.77	0.27	-1.500	0.370	0.488	
0.1019	6521.10	3.9510	3.9510	-0.7101	25.78	0.28	-1.500			
0.1040	6656.81	3.9480	3.9479	-0.7076	25.79	0.29	-1.500			
0.1061	6790.72	3.9450	3.9452	-0.7097	25.80	0.30	-1.500			
0.1082	6926.79	3.9420	3.9419	-0.7111	25.81	0.31	-1.500			
0.1104	7065.03	3.9390	3.9390	-0.7179	25.82	0.32	-1.500			
0.1125	7202.19	3.9360	3.9360	-0.7245	25.82	0.32	-1.500			
0.1148	7344.09	3.9330	3.9330	-0.7279	25.83	0.33	-1.500			
0.1170	7485.70	3.9300	3.9299	-0.7254	25.84	0.34	-1.500			
0.1192	7626.01	3.9270	3.9268	-0.7230	25.85	0.35	-1.500	0.363	0.484	
0.1213	7763.30	3.9240	3.9242	-0.7207	25.86	0.36	-1.500			
0.1235	7901.73	3.9210	3.9207	-0.7204	25.87	0.37	-1.500			
0.1256	8037.73	3.9180	3.9180	-0.7205	25.88	0.38	-1.500			
0.1277	8173.64	3.9150	3.9149	-0.7165	25.89	0.39	-1.500			
0.1299	8311.17	3.9120	3.9122	-0.7225	25.90	0.40	-1.500			
0.1321	8454.63	3.9090	3.9090	-0.7302	25.90	0.40	-1.500			
0.1343	8594.43	3.9060	3.9060	-0.7343	25.91	0.41	-1.500			
0.1365	8735.50	3.9030	3.9029	-0.7337	25.92	0.42	-1.500			
0.1387	8877.63	3.9000	3.8999	-0.7357	25.93	0.43	-1.500			
0.1409	9019.78	3.8970	3.8971	-0.7360	25.94	0.44	-1.500	0.366	0.485	
0.1431	9161.10	3.8940	3.8939	-0.7372	25.95	0.45	-1.500			
0.1453	9301.21	3.8910	3.8909	-0.7340	25.96	0.46	-1.500			
0.1475	9442.27	3.8880	3.8881	-0.7335	25.97	0.47	-1.500			
0.1497	9581.04	3.8850	3.8849	-0.7352	25.99	0.49	-1.500			
0.1519	9723.43	3.8820	3.8821	-0.7427	26.00	0.50	-1.500			
0.1542	9867.39	3.8790	3.8789	-0.7466	26.01	0.51	-1.500			
0.1564	10011.43	3.8760	3.8759	-0.7508	26.02	0.52	-1.500			
0.1587	10156.61	3.8730	3.8730	-0.7490	26.03	0.53	-1.500			
0.1610	10300.89	3.8700	3.8700	-0.7490	26.04	0.54	-1.500	0.374	0.488	
0.1632	10444.18	3.8670	3.8669	-0.7500	26.05	0.55	-1.500			
0.1654	10586.75	3.8640	3.8640	-0.7480	26.06	0.56	-1.500			
0.1676	10729.59	3.8610	3.8609	-0.7503	26.07	0.57	-1.500			
0.1699	10873.57	3.8580	3.8580	-0.7511	26.07	0.57	-1.500			
0.1722	11018.67	3.8550	3.8551	-0.7553	26.08	0.58	-1.500			
0.1744	11164.48	3.8520	3.8520	-0.7632	26.09	0.59	-1.500			
0.1768	11312.59	3.8490	3.8490	-0.7637	26.10	0.60	-1.500			
0.1791	11459.64	3.8460	3.8459	-0.7614	26.11	0.61	-1.500			
0.1813	11605.35	3.8430	3.8432	-0.7642	26.12	0.62	-1.500	0.368	0.488	
0.1836	11752.42	3.8400	3.8400	-0.7620	26.13	0.63	-1.500			
0.1859	11898.84	3.8370	3.8369	-0.7624	26.13	0.63	-1.500			
0.1882	12042.37	3.8340	3.8340	-0.7626	26.14	0.64	-1.500			
0.1905	12189.32	3.8310	3.8311	-0.7678	26.15	0.65	-1.500			
0.1928	12336.98	3.8280	3.8279	-0.7794	26.16	0.66	-1.500			
0.1951	12487.67	3.8250	3.8250	-0.7847	26.17	0.67	-1.500			
0.1975	12639.91	3.8220	3.8220	-0.7842	26.18	0.68	-1.500			
0.1999	12792.45	3.8190	3.8190	-0.7870	26.18	0.68	-1.500	0.362	0.483	
0.2022	12943.58	3.8160	3.8160	-0.7863	26.19	0.69	-1.500			
0.2046	13093.91	3.8130	3.8129	-0.7847	26.20	0.70	-1.500			
0.2069	13243.75	3.8100	3.8100	-0.7808	26.21	0.71	-1.500			
0.2092	13391.50	3.8070	3.8070	-0.7810	26.22	0.72	-1.500			
0.2116	13542.85	3.8040	3.8040	-0.7867	26.23	0.73	-1.500			
0.2140	13694.41	3.8010	3.8010	-0.7975	26.24	0.74	-1.500			
0.2164	13849.21	3.7980	3.7978	-0.7995	26.24	0.74	-1.500			
0.2188	14003.49	3.7950	3.7949	-0.8014	26.25	0.75	-1.500			
0.2212	14158.31	3.7920	3.7921	-0.8053	26.26	0.76	-1.500	0.365	0.485	
0.2236	14313.41	3.7890	3.7889	-0.8091	26.27	0.77	-1.500			
0.2261	14467.84	3.7860	3.7859	-0.8047	26.28	0.78	-1.500			
0.2285	14620.95	3.7830	3.7830	-0.8052	26.29	0.79	-1.500			
0.2309	14775.10	3.7800	3.7801	-0.8155	26.30	0.80	-1.500			
0.2333	14933.90	3.7770	3.7770	-0.8223	26.30	0.80	-1.500			
0.2358	15092.51	3.7740	3.7739	-0.8212	26.31	0.81	-1.500			
0.2383	15251.15	3.7710	3.7709	-0.8195	26.32	0.82	-1.500			
0.2407	15407.73	3.7680	3.7684	-0.8242	26.32	0.82	-1.500	0.367	0.482	
0.2432	15566.75	3.7650	3.7649	-0.8289	26.33	0.83	-1.500			
0.2457	15724.88	3.7620	3.7619	-0.8316	26.33	0.83	-1.500			
0.2482	15884.55	3.7590	3.7590	-0.8347	26.34	0.84	-1.500			
0.2507	16044.64	3.7560	3.7561	-0.8436	26.35	0.85	-1.500			
0.2533	16209.18	3.7530	3.7530	-0.8494	26.35	0.85	-1.500			
0.2558	16373.77	3.7500	3.7500	-0.8525	26.36	0.86	-1.500			
0.2584	16536.10	3.7470	3.7469	-0.8541	26.36	0.86	-1.500			
0.2610	16701.08	3.7440	3.7442	-0.8549	26.37	0.87	-1.500	0.368	0.484	
0.2635	16865.72	3.7410	3.7408	-0.8560	26.37	0.87	-1.500			
0.2661	17030.56	3.7380	3.7380	-0.8574	26.37	0.87	-1.500			
0.2686	17193.01	3.7350	3.7351	-0.8609	26.38	0.88	-1.500			
0.2712	17358.01	3.7320	3.7320	-0.8654	26.38	0.88	-1.500			
0.2738	17524.35	3.7290	3.7289	-0.8752	26.39	0.89	-1.500			
0.2765	17694.32	3.7260	3.7259	-0.8801	26.39	0.89	-1.500			
0.2791	17865.53	3.7230	3.7230	-0.8901	26.40	0.90	-1.500	0.375	0.488	
0.2818	18036.87	3.7200	3.7202	-0.8914	26.40	0.90	-1.500			
0.2845	18208.80	3.7170	3.7170	-0.8954	26.41	0.91	-1.500			
0.2872	18380.15	3.7140	3.7140	-0.8967	26.41	0.91	-1.500			
0.2899	18551.62	3.7110	3.7110	-0.8980	26.42	0.92	-1.500			
0.2926	18724.96	3.7080	3.7080	-0.9116	26.42	0.92	-1.500			
0.2953	18901.10	3.7050	3.7050	-0.9183	26.43	0.93	-1.500			
0.2981	19079.64	3.7020	3.7019	-0.9210	26.43	0.93	-1.500			
0.3009	19257.37	3.6990	3.6991	-0.9229	26.44	0.94	-1.500	0.367	0.484	
0.3037	19433.86	3.6960	3.6959	-0.9274	26.44	0.94	-1.500			
0.3064	19612.48	3.6930	3.6931	-0.9294	26.45	0.95	-1.500			
0.3092	19788.94	3.6900	3.6899	-0.9312	26.45	0.95	-1.500			
0.3120	19966.84	3.6870	3.6870	-0.9456	26.46	0.96	-1.500			
0.3149	20151.64	3.6840	3.6840	-0.9522	26.46	0.96	-1.500			
0.3178	20336.03	3.6810	3.6809	-0.9564	26.46	0.96	-1.500			
0.3206	20520.38	3.6780	3.6780	-0.9633	26.47	0.97	-1.500	0.369	0.487	
0.3235	20705.59	3.6750	3.6750	-0.9655	26.47	0.97	-1.500			
0.3264	20891.83	3.6720	3.6719	-0.9701	26.47	0.97	-1.500			
0.3293	21077.10	3.6690	3.6689	-0.9733	26.48	0.98	-1.500			
0.3322	21263.17	3.6660	3.6661	-0.9925	26.48	0.98	-1.500			
0.3353	21457.78	3.6630	3.6629	-1.0021	26.48	0.98	-1.500			
0.3383	21652.79	3.6600	3.6598	-1.0049	26.49	0.99	-1.500			
0.3413	21846.19	3.6570	3.6572	-1.0042	26.49	0.99	-1.500	0.368	0.484	
0.3444	22040.17	3.6540	3.6539	-1.0107	26.50	1.00	-1.500			
0.3474	22233.02	3.6510	3.6509	-1.0188	26.50	1.00	-1.500			
0.3503	22421.45	3.6480	3.6480	-1.0252	26.50	1.00	-1.500			
0.3535	22624.51	3.6450	3.6450	-1.0427	26.51	1.01	-1.500			
0.3567	22828.98	3.6420	3.6422	-1.0577	26.51	1.01	-1.500			
0.3599	23033.67	3.6390	3.6388	-1.0647	26.51	1.01	-1.500	0.368	0.489	
0.3631	23240.10	3.6360	3.6360	-1.0699	26.52	1.02	-1.500			
0.3663	23443.98	3.6330	3.6330	-1.0769	26.52	1.02	-1.500			
0.3695	23647.54	3.6300	3.6300	-1.0905	26.53	1.03	-1.500			
0.3728	23858.49	3.6270	3.6269	-1.1049	26.53	1.03	-1.500			
0.3762	24075.27	3.6240	3.6239	-1.1165	26.53	1.03	-1.500			
0.3795	24290.93	3.6210	3.6209	-1.1284	26.54	1.04	-1.500	0.364	0.493	
0.3829	24508.28	3.6180	3.6180	-1.1370	26.54	1.04	-1.500			
0.3864	24727.72	3.6150	3.6149	-1.1474	26.54	1.04	-1.500			
0.3898	24945.98	3.6120	3.6120	-1.1680	26.54	1.04	-1.500			
0.3933	25172.49	3.6090	3.6089	-1.1883	26.54	1.04	-1.500			
0.3970	25405.68	3.6060	3.6059	-1.2043	26.54	1.04	-1.500			
0.4006	25638.25	3.6030	3.6031	-1.2172	26.54	1.04	-1.500	0.366	0.493	
0.4043	25872.80	3.6000	3.5999	-1.2355	26.54	1.04	-1.500			
0.4080	26110.85	3.5970	3.5970	-1.2585	26.54	1.04	-1.500			
0.4118	26353.07	3.5940	3.5939	-1.2683	26.54	1.04	-1.500			
0.4156	26597.59	3.5910	3.5910	-1.2910	26.55	1.05	-1.500			
0.4195	26849.70	3.5880	3.5880	-1.3185	26.55	1.05	-1.500	0.371	0.499	
0.4235	27104.69	3.5850	3.5849	-1.3374	26.55	1.05	-1.500			
0.4275	27360.66	3.5820	3.5819	-1.3621	26.56	1.06	-1.500			
0.4316	27624.02	3.5790	3.5792	-1.3851	26.56	1.06	-1.500			
0.4358	27893.47	3.5760	3.5759	-1.4127	26.56	1.06	-1.500			
0.4401	28167.56	3.5730	3.5729	-1.4472	26.56	1.06	-1.500	0.369	0.497	
0.4445	28445.06	3.5700	3.5699	-1.4665	26.56	1.06	-1.500			
0.4489	28732.57	3.5670	3.5670	-1.4998	26.56	1.06	-1.500			
0.4535	29024.95	3.5640	3.5638	-1.5137	26.56	1.06	-1.500			
0.4581	29316.30	3.5610	3.5610	-1.5385	26.56	1.06	-1.500			
0.4627	29613.26	3.5580	3.5580	-1.5702	26.57	1.07	-1.500	0.374	0.507	
0.4674	29916.40	3.5550	3.5549	-1.5960	26.57	1.07	-1.500			
0.4722	30221.69	3.5520	3.5519	-1.6126	26.58	1.08	-1.500			
0.4771	30535.91	3.5490	3.5489	-1.6420	26.58	1.08	-1.500			
0.4821	30856.19	3.5460	3.5462	-1.6876	26.59	1.09	-1.500	0.378	0.513	
0.4873	31184.59	3.5430	3.5429	-1.7155	26.59	1.09	-1.500			
0.4924	31515.29	3.5400	3.5399	-1.7342	26.59	1.09	-1.500			
0.4977	31850.35	3.5370	3.5369	-1.7596	26.60	1.10	-1.500			
0.5030	32191.91	3.5340	3.5339	-1.8015	26.60	1.10	-1.500	0.370	0.515	
0.5085	32542.72	3.5310	3.5309	-1.8183	26.60	1.10	-1.500			
0.5140	32894.99	3.5280	3.5279	-1.8335	26.61	1.11	-1.500			
0.5195	33246.30	3.5250	3.5250	-1.8384	26.61	1.11	-1.500	0.365	0.513	
0.5251	33605.48	3.5220	3.5219	-1.8711	26.61	1.11	-1.500			
0.5308	33971.03	3.5190	3.5189	-1.8699	26.62	1.12	-1.500			
0.5364	34329.28	3.5160	3.5159	-1.8619	26.62	1.12	-1.500			
0.5419	34683.64	3.5130	3.5132	-1.8757	26.62	1.12	-1.500	0.369	0.517	
0.5476	35048.61	3.5100	3.5099	-1.8807	26.62	1.12	-1.500			
0.5532	35407.15	3.5070	3.5068	-1.8750	26.62	1.12	-1.500			
0.5588	35764.15	3.5040	3.5039	-1.8771	26.62	1.12	-1.500	0.367	0.524	
0.5645	36131.02	3.5010	3.5010	-1.8957	26.63	1.13	-1.500			
0.5703	36497.71	3.4980	3.4979	-1.8864	26.64	1.14	-1.500			
0.5759	36859.14	3.4950	3.4949	-1.8597	26.65	1.15	-1.500			
0.5815	37213.96	3.4920	3.4921	-1.8421	26.66	1.16	-1.500	0.370	0.532	
0.5870	37568.04	3.4890	3.4889	-1.8430	26.67	1.17	-1.500			
0.5925	37922.40	3.4860	3.4859	-1.8187	26.68	1.18	-1.500			
0.5979	38268.09	3.4830	3.4828	-1.7976	26.69	1.19	-1.500			
0.6033	38610.81	3.4800	3.4802	-1.7894	26.70	1.20	-1.500	0.372	0.535	
0.6087	38957.23	3.4770	3.4770	-1.7758	26.70	1.20	-1.500			
0.6140	39295.68	3.4740	3.4738	-1.7557	26.71	1.21	-1.500			
0.6192	39627.69	3.4710	3.4708	-1.7160	26.72	1.22	-1.500	0.371	0.545	
0.6243	39956.42	3.4680	3.4681	-1.7069	26.73	1.23	-1.500			
0.6295	40289.77	3.4650	3.4649	-1.6825	26.74	1.24	-1.500			
0.6345	40608.76	3.4620	3.4618	-1.6408	26.75	1.25	-1.500			
0.6393	40917.56	3.4590	3.4589	-1.6080	26.76	1.26	-1.500	0.372	0.548	
0.6441	41225.26	3.4560	3.4560	-1.5901	26.77	1.27	-1.500			
0.6488	41525.18	3.4530	3.4528	-1.5639	26.77	1.27	-1.500			
0.6536	41828.14	3.4500	3.4499	-1.5300	26.78	1.28	-1.500			
0.6581	42117.48	3.4470	3.4470	-1.4996	26.79	1.29	-1.500			
0.6626	42403.92	3.4440	3.4441	-1.4766	26.81	1.31	-1.500	0.371	0.560	
0.6669	42680.87	3.4410	3.4409	-1.4527	26.82	1.32	-1.500			
0.6711	42953.00	3.4380	3.4379	-1.4291	26.83	1.33	-1.500			
0.6754	43226.70	3.4350	3.4349	-1.4124	26.84	1.34	-1.500			
0.6797	43502.23	3.4320	3.4318	-1.4024	26.86	1.36	-1.500	0.372	0.570	
0.6839	43771.37	3.4290	3.4291	-1.3837	26.87	1.37	-1.500			
0.6880	44032.51	3.4260	3.4260	-1.3694	26.88	1.38	-1.500			
0.6921	44293.25	3.4230	3.4229	-1.3415	26.89	1.39	-1.500			
0.6961	44548.08	3.4200	3.4198	-1.3101	26.90	1.40	-1.500			
0.7000	44800.34	3.4170	3.4169	-1.2890	26.91	1.41	-1.500	0.375	0.576	
0.7039	45047.37	3.4140	3.4139	-1.2635	26.92	1.42	-1.500			
0.7076	45285.86	3.4110	3.4110	-1.2269	26.93	1.43	-1.500			
0.7112	45514.93	3.4080	3.4080	-1.1990	26.95	1.45	-1.500			
0.7147	45743.62	3.4050	3.4049	-1.1767	26.96	1.46	-1.500			
0.7183	45968.91	3.4020	3.4019	-1.1482	26.97	1.47	-1.500			
0.7217	46187.88	3.3990	3.3990	-1.1176	26.98	1.48	-1.500	0.376	0.586	
0.7250	46400.08	3.3960	3.3959	-1.0836	26.99	1.49	-1.500			
0.7282	46603.54	3.3930	3.3930	-1.0473	27.00	1.50	-1.500			
0.7312	46794.35	3.3900	3.3902	-1.0236	27.01	1.51	-1.500			
0.7342	46990.50	3.3870	3.3869	-1.0035	27.02	1.52	-1.500			
0.7373	47184.70	3.3840	3.3838	-0.9718	27.03	1.53	-1.500			
0.7401	47369.13	3.3810	3.3809	-0.9386	27.04	1.54	-1.500	0.372	0.597	
0.7429	47548.11	3.3780	3.3781	-0.9142	27.05	1.55	-1.500			
0.7456	47719.99	3.3750	3.3749	-0.8812	27.06	1.56	-1.500			
0.7482	47882.49	3.3720	3.3719	-0.8436	27.06	1.56	-1.500			
0.7506	48039.02	3.3690	3.3690	-0.8162	27.07	1.57	-1.500			
0.7530	48194.05	3.3660	3.3661	-0.8084	27.08	1.58	-1.500			
0.7555	48349.60	3.3630	3.3629	-0.7853	27.09	1.59	-1.500			
0.7578	48499.61	3.3600	3.3597	-0.7605	27.10	1.60	-1.500			
0.7600	48642.89	3.3570	3.3569	-0.7345	27.11	1.61	-1.500			
0.7622	48782.00	3.3540	3.3543	-0.7114	27.11	1.61	-1.500	0.373	0.615	
0.7643	48915.50	3.3510	3.3509	-0.6896	27.12	1.62	-1.500			
0.7663	49042.81	3.3480	3.3480	-0.6639	27.13	1.63	-1.500			
0.7683	49169.29	3.3450	3.3450	-0.6501	27.14	1.64	-1.500			
0.7702	49293.68	3.3420	3.3420	-0.6363	27.15	1.65	-1.500			
0.7721	49413.29	3.3390	3.3390	-0.6159	27.16	1.66	-1.500			
0.7739	49529.14	3.3360	3.3360	-0.5969	27.16	1.66	-1.500			
0.7756	49639.71	3.3330	3.3330	-0.5886	27.17	1.67	-1.500			
0.7774	49753.31	3.3300	3.3299	-0.5715	27.18	1.68	-1.500			
0.7791	49863.40	3.3270	3.3268	-0.5538	27.18	1.68	-1.500			
0.7808	49968.50	3.3240	3.3238	-0.5339	27.19	1.69	-1.500	0.374	0.630	
0.7823	50069.33	3.3210	3.3210	-0.5164	27.20	1.70	-1.500			
0.7839	50166.65	3.3180	3.3178	-0.4983	27.20	1.70	-1.500			
0.7853	50258.03	3.3150	3.3149	-0.4792	27.21	1.71	-1.500			
0.7867	50346.56	3.3120	3.3121	-0.4673	27.22	1.72	-1.500			
0.7881	50436.96	3.3090	3.3090	-0.4587	27.22	1.72	-1.500			
0.7894	50523.81	3.3060	3.3059	-0.4470	27.23	1.73	-1.500			
0.7908	50608.44	3.3030	3.3030	-0.4349	27.24	1.74	-1.500			
0.7920	50690.34	3.3000	3.3000	-0.4244	27.24	1.74	-1.500			
0.7933	50771.12	3.2970	3.2970	-0.4135	27.25	1.75	-1.500			
0.7945	50849.66	3.2940	3.2940	-0.4039	27.25	1.75	-1.500			
0.7957	50925.53	3.2910	3.2910	-0.3928	27.26	1.76	-1.500			
0.7969	51000.44	3.2880	3.2879	-0.3831	27.27	1.77	-1.500			
0.7980	51072.47	3.2850	3.2850	-0.3835	27.27	1.77	-1.500			
0.7992	51147.33	3.2820	3.2819	-0.3718	27.28	1.78	-1.500			
0.8003	51219.22	3.2790	3.2786	-0.3599	27.28	1.78	-1.500			
0.8014	51287.57	3.2760	3.2808	-0.3479	27.29	1.79	-1.500	0.373	0.643	
0.8024	51352.66	3.2730	3.2730	-0.3356	27.29	1.79	-1.500			
0.8034	51414.88	3.2700	3.2699	-0.3252	27.30	1.80	-1.500			
0.8043	51474.15	3.2670	3.2669	-0.3123	27.30	1.80	-1.500			
0.8052	51532.71	3.2640	3.2640	-0.3067	27.31	1.81	-1.500			
0.8061	51592.13	3.2610	3.2612	-0.3042	27.31	1.81	-1.500			
0.8070	51650.63	3.2580	3.2580	-0.2999	27.32	1.82	-1.500			
0.8079	51707.31	3.2550	3.2549	-0.2931	27.32	1.82	-1.500			
0.8088	51762.73	3.2520	3.2520	-0.2876	27.33	1.83	-1.500			
0.8096	51817.21	3.2490	3.2490	-0.2824	27.33	1.83	-1.500			
0.8105	51871.65	3.2460	3.2460	-0.2777	27.34	1.84	-1.500			
0.8113	51924.15	3.2430	3.2430	-0.2715	27.34	1.84	-1.500			
0.8121	51975.59	3.2400	3.2400	-0.2666	27.35	1.85	-1.500			
0.8129	52026.10	3.2370	3.2370	-0.2620	27.35	1.85	-1.500			
0.8137	52075.93	3.2340	3.2339	-0.2576	27.36	1.86	-1.500			
0.8145	52124.88	3.2310	3.2310	-0.2532	27.37	1.87	-1.500			
0.8152	52172.93	3.2280	3.2280	-0.2501	27.37	1.87	-1.500			
0.8160	52220.92	3.2250	3.2250	-0.2461	27.38	1.88	-1.500			
0.8167	52267.90	3.2220	3.2220	-0.2416	27.38	1.88	-1.500			
0.8174	52313.77	3.2190	3.2191	-0.2374	27.38	1.88	-1.500			
0.8181	52359.00	3.2160	3.2161	-0.2331	27.39	1.89	-1.500			
0.8188	52401.29	3.2130	3.2131	-0.2414	27.39	1.89	-1.500			
0.8196	52451.44	3.2100	3.2096	-0.2387	27.40	1.90	-1.500			
0.8203	52499.37	3.2070	3.2063	-0.2341	27.40	1.90	-1.500			
0.8210	52543.58	3.2040	3.2032	-0.2265	27.41	1.91	-1.500	0.375	0.653	
0.8217	52588.19	3.2010	3.2023	-0.2209	27.41	1.91	-1.500			
0.8223	52630.33	3.1980	3.1977	-0.2152	27.42	1.92	-1.500			
0.8229	52667.91	3.1950	3.1947	-0.2063	27.42	1.92	-1.500			
0.8235	52702.93	3.1920	3.1919	-0.1960	27.43	1.93	-1.500			
0.8241	52740.70	3.1890	3.1891	-0.1972	27.43	1.93	-1.500			
0.8247	52780.58	3.1860	3.1859	-0.2013	27.43	1.93	-1.500			
0.8253	52819.40	3.1830	3.1831	-0.2012	27.44	1.94	-1.500			
0.8259	52858.05	3.1800	3.1800	-0.1993	27.44	1.94	-1.500			
0.8265	52896.20	3.1770	3.1770	-0.1977	27.45	1.95	-1.500			
0.8271	52934.45	3.1740	3.1740	-0.1961	27.45	1.95	-1.500			
0.8277	52971.83	3.1710	3.1710	-0.1933	27.46	1.96	-1.500			
0.8283	53008.42	3.1680	3.1680	-0.1915	27.46	1.96	-1.500			
0.8288	53044.77	3.1650	3.1651	-0.1904	27.46	1.96	-1.500			
0.8294	53081.13	3.1620	3.1619	-0.1887	27.47	1.97	-1.500			
0.8300	53117.39	3.1590	3.1590	-0.1873	27.47	1.97	-1.500			
0.8305	53153.29	3.1560	3.1559	-0.1860	27.48	1.98	-1.500			
0.8311	53188.90	3.1530	3.1531	-0.1843	27.48	1.98	-1.500			
0.8316	53224.61	3.1500	3.1500	-0.1824	27.48	1.98	-1.500			
0.8322	53259.19	3.1470	3.1470	-0.1801	27.49	1.99	-1.500			
0.8327	53293.42	3.1440	3.1440	-0.1775	27.49	1.99	-1.500			
0.8332	53326.89	3.1410	3.1411	-0.1763	27.50	2.00	-1.500			
0.8338	53360.64	3.1380	3.1379	-0.1751	27.50	2.00	-1.500			
0.8343	53394.19	3.1350	3.1350	-0.1734	27.51	2.01	-1.500			
0.8348	53427.36	3.1320	3.1320	-0.1721	27.51	2.01	-1.500			
0.8353	53460.26	3.1290	3.1291	-0.1710	27.52	2.02	-1.500			
0.8358	53493.28	3.1260	3.1260	-0.1701	27.52	2.02	-1.500			
0.8363	53525.68	3.1230	3.1230	-0.1681	27.53	2.03	-1.500			
0.8368	53557.81	3.1200	3.1199	-0.1665	27.53	2.03	-1.500			
0.8373	53589.40	3.1170	3.1170	-0.1652	27.54	2.04	-1.500			
0.8378	53620.98	3.1140	3.1141	-0.1646	27.54	2.04	-1.500			
0.8383	53652.63	3.1110	3.1109	-0.1635	27.55	2.05	-1.500			
0.8388	53683.91	3.1080	3.1080	-0.1623	27.55	2.05	-1.500			
0.8393	53713.41	3.1050	3.1051	-0.1706	27.56	2.06	-1.500			
0.8399	53753.35	3.1020	3.1013	-0.1737	27.56	2.06	-1.500			
0.8404	53787.90	3.0990	3.0978	-0.1753	27.57	2.07	-1.500			
0.8410	53821.37	3.0960	3.0944	-0.1654	27.57	2.07	-1.500			
0.8415	53854.16	3.0930	3.0990	-0.1619	27.58	2.08	-1.500	0.379	0.658	
0.8420	53886.68	3.0900	3.0893	-0.1526	27.58	2.08	-1.500			
0.8424	53911.77	3.0870	3.0864	-0.1444	27.59	2.09	-1.500			
0.8427	53932.95	3.0840	3.0840	-0.1324	27.59	2.09	-1.500			
0.8431	53958.89	3.0810	3.0810	-0.1318	27.59	2.09	-1.500			
0.8435	53984.94	3.0780	3.0783	-0.1395	27.60	2.10	-1.500			
0.8440	54015.49	3.0750	3.0750	-0.1454	27.61	2.11	-1.500			
0.8444	54043.64	3.0720	3.0720	-0.1461	27.61	2.11	-1.500			
0.8449	54071.83	3.0690	3.0691	-0.1457	27.62	2.12	-1.500			
0.8453	54099.79	3.0660	3.0659	-0.1455	27.62	2.12	-1.500			
0.8457	54128.00	3.0630	3.0630	-0.1449	27.63	2.13	-1.500			
0.8462	54155.83	3.0600	3.0600	-0.1436	27.63	2.13	-1.500			
0.8466	54183.46	3.0570	3.0571	-0.1424	27.64	2.14	-1.500			
0.8470	54210.54	3.0540	3.0540	-0.1412	27.64	2.14	-1.500			
0.8475	54237.34	3.0510	3.0510	-0.1402	27.65	2.15	-1.500			
0.8479	54263.89	3.0480	3.0480	-0.1393	27.65	2.15	-1.500			
0.8483	54290.62	3.0450	3.0449	-0.1391	27.66	2.16	-1.500			
0.8487	54317.27	3.0420	3.0420	-0.1386	27.67	2.17	-1.500			
0.8491	54344.12	3.0390	3.0390	-0.1373	27.67	2.17	-1.500			
0.8495	54370.47	3.0360	3.0360	-0.1369	27.68	2.18	-1.500			
0.8499	54396.64	3.0330	3.0331	-0.1356	27.68	2.18	-1.500			
0.8504	54422.50	3.0300	3.0301	-0.1350	27.69	2.19	-1.500			
0.8508	54448.22	3.0270	3.0269	-0.1341	27.69	2.19	-1.500			
0.8512	54473.71	3.0240	3.0240	-0.1331	27.70	2.20	-1.500			
0.8516	54499.34	3.0210	3.0210	-0.1324	27.70	2.20	-1.500			
0.8519	54524.76	3.0180	3.0181	-0.1318	27.71	2.21	-1.500			
0.8523	54550.25	3.0150	3.0149	-0.1318	27.71	2.21	-1.500			
0.8527	54575.24	3.0120	3.0121	-0.1306	27.72	2.22	-1.500			
0.8531	54600.27	3.0090	3.0089	-0.1301	27.72	2.22	-1.500			
0.8535	54625.11	3.0060	3.0060	-0.1302	27.73	2.23	-1.500			
0.8539	54650.10	3.0030	3.0030	-0.1302	27.73	2.23	-1.500			
