Ah_balance (normalized)	Ah_balance (mAh)	Voltage - fit (V)	Voltage -  interpolate (V)	dQ/dV (1/V)	Temperature (°C)	Temperature - diff (°C)	Current (C)	R_DC 0ms (mOhm)	R_DC 50ms (mOhm)	R_DC 50 ms PEC (mOhm)
0.2392	15307.93	3.9740	3.9740	0.8872	26.00	0.03	0.750			
0.2418	15476.51	3.9710	3.9710	0.8783	26.00	0.03	0.750			
0.2445	15645.69	3.9680	3.9680	0.8767	26.00	0.03	0.750			
0.2471	15813.22	3.9650	3.9650	0.8753	26.00	0.03	0.750			
0.2497	15980.62	3.9620	3.9620	0.8737	26.00	0.03	0.750			
0.2523	16148.22	3.9590	3.9590	0.8745	26.00	0.03	0.750			
0.2549	16316.16	3.9560	3.9560	0.8770	26.00	0.03	0.750			
0.2576	16483.67	3.9530	3.9530	0.8812	26.00	0.03	0.750			
0.2602	16653.72	3.9500	3.9500	0.8844	26.00	0.03	0.750			
0.2629	16824.07	3.9470	3.9470	0.8900	26.00	0.03	0.750			
0.2656	16996.67	3.9440	3.9440	0.8858	26.00	0.03	0.750			
0.2682	17166.13	3.9410	3.9411	0.8923	26.00	0.03	0.750			
0.2709	17337.16	3.9380	3.9380	0.8951	26.00	0.03	0.750			
0.2736	17508.25	3.9350	3.9351	0.8994	26.00	0.03	0.750			
0.2763	17681.52	3.9320	3.9320	0.9030	26.00	0.03	0.750			
0.2790	17856.76	3.9290	3.9290	0.9054	26.00	0.03	0.750			
0.2817	18030.85	3.9260	3.9261	0.9061	26.01	0.04	0.750			
0.2845	18207.44	3.9230	3.9230	0.9086	26.01	0.04	0.750			
0.2872	18377.86	3.9200	3.9199	0.9063	26.01	0.04	0.750			
0.2899	18551.65	3.9170	3.9171	0.9070	26.01	0.04	0.750			
0.2926	18725.27	3.9140	3.9140	0.9112	26.01	0.04	0.750			
0.2953	18901.61	3.9110	3.9110	0.9187	26.00	0.03	0.750			
0.2981	19078.22	3.9080	3.9081	0.9208	26.00	0.03	0.750			
0.3009	19256.83	3.9050	3.9049	0.9240	26.00	0.03	0.750			
0.3037	19435.96	3.9020	3.9020	0.9247	26.00	0.03	0.750			
0.3064	19611.23	3.8990	3.8991	0.9265	26.00	0.03	0.750			
0.3092	19789.63	3.8960	3.8960	0.9309	26.00	0.03	0.750			
0.3120	19967.82	3.8930	3.8928	0.9327	26.00	0.03	0.750			
0.3148	20146.72	3.8900	3.8901	0.9345	26.00	0.03	0.750			
0.3176	20326.33	3.8870	3.8870	0.9412	26.00	0.03	0.750			
0.3205	20509.78	3.8840	3.8840	0.9482	26.00	0.03	0.750			
0.3233	20690.36	3.8810	3.8810	0.9493	26.00	0.03	0.750			
0.3262	20873.65	3.8780	3.8780	0.9507	26.00	0.03	0.750			
0.3290	21058.04	3.8750	3.8750	0.9561	26.00	0.03	0.750			
0.3319	21241.78	3.8720	3.8719	0.9590	26.00	0.03	0.750			
0.3348	21425.27	3.8690	3.8690	0.9648	26.00	0.03	0.750			
0.3376	21609.59	3.8660	3.8660	0.9670	26.00	0.03	0.750			
0.3406	21796.44	3.8630	3.8629	0.9714	26.00	0.03	0.750			
0.3435	21982.57	3.8600	3.8600	0.9774	26.00	0.03	0.750			
0.3464	22172.23	3.8570	3.8571	0.9865	25.99	0.02	0.750			
0.3494	22361.77	3.8540	3.8539	0.9931	25.99	0.02	0.750			
0.3524	22553.71	3.8510	3.8510	0.9949	25.99	0.02	0.750			
0.3554	22744.67	3.8480	3.8481	1.0055	25.99	0.02	0.750			
0.3584	22939.15	3.8450	3.8450	1.0142	25.98	0.01	0.750			
0.3615	23135.03	3.8420	3.8419	1.0222	25.98	0.01	0.750			
0.3645	23330.59	3.8390	3.8391	1.0265	25.98	0.01	0.750			
0.3676	23528.86	3.8360	3.8360	1.0358	25.97	0.00	0.750			
0.3707	23727.82	3.8330	3.8330	1.0461	25.97	-0.00	0.750			
0.3739	23930.15	3.8300	3.8300	1.0577	25.96	-0.01	0.750			
0.3771	24134.06	3.8270	3.8270	1.0618	25.95	-0.02	0.750			
0.3803	24337.54	3.8240	3.8240	1.0729	25.94	-0.03	0.750			
0.3835	24542.80	3.8210	3.8211	1.0864	25.93	-0.04	0.750			
0.3868	24753.83	3.8180	3.8178	1.0970	25.92	-0.05	0.750			
0.3901	24965.86	3.8150	3.8150	1.1074	25.92	-0.05	0.750			
0.3934	25179.16	3.8120	3.8120	1.1198	25.91	-0.06	0.750			
0.3968	25395.70	3.8090	3.8091	1.1361	25.90	-0.07	0.750			
0.4002	25614.32	3.8060	3.8060	1.1448	25.90	-0.07	0.750			
0.4037	25835.45	3.8030	3.8030	1.1587	25.89	-0.08	0.750			
0.4072	26057.98	3.8000	3.8000	1.1728	25.89	-0.08	0.750			
0.4108	26288.21	3.7970	3.7970	1.1839	25.88	-0.09	0.750			
0.4143	26516.34	3.7940	3.7940	1.1985	25.87	-0.10	0.750			
0.4179	26746.29	3.7910	3.7910	1.2136	25.86	-0.11	0.750			
0.4216	26979.46	3.7880	3.7880	1.2354	25.85	-0.12	0.750			
0.4253	27218.00	3.7850	3.7848	1.2493	25.84	-0.13	0.750			
0.4290	27458.65	3.7820	3.7821	1.2685	25.83	-0.14	0.750			
0.4329	27704.52	3.7790	3.7790	1.2922	25.82	-0.15	0.750			
0.4368	27956.38	3.7760	3.7759	1.3122	25.81	-0.16	0.750			
0.4407	28207.44	3.7730	3.7730	1.3308	25.80	-0.17	0.750			
0.4448	28465.62	3.7700	3.7700	1.3562	25.79	-0.18	0.750			
0.4489	28727.68	3.7670	3.7669	1.3785	25.78	-0.19	0.750			
0.4530	28994.57	3.7640	3.7641	1.4072	25.77	-0.20	0.750			
0.4573	29268.85	3.7610	3.7610	1.4333	25.76	-0.21	0.750			
0.4617	29546.24	3.7580	3.7579	1.4628	25.75	-0.22	0.750			
0.4661	29828.55	3.7550	3.7550	1.4854	25.74	-0.23	0.750			
0.4706	30116.67	3.7520	3.7521	1.5181	25.73	-0.24	0.750			
0.4752	30412.53	3.7490	3.7489	1.5493	25.72	-0.25	0.750			
0.4799	30711.99	3.7460	3.7460	1.5830	25.71	-0.26	0.750			
0.4846	31016.55	3.7430	3.7431	1.6086	25.70	-0.27	0.750			
0.4895	31329.01	3.7400	3.7400	1.6517	25.69	-0.28	0.750			
0.4945	31648.44	3.7370	3.7370	1.6893	25.68	-0.29	0.750			
0.4997	31979.60	3.7340	3.7338	1.7323	25.66	-0.31	0.750			
0.5049	32316.26	3.7310	3.7310	1.7757	25.65	-0.32	0.750			
0.5104	32663.50	3.7280	3.7280	1.8085	25.63	-0.34	0.750			
0.5158	33013.53	3.7250	3.7252	1.8514	25.62	-0.35	0.750			
0.5214	33370.15	3.7220	3.7221	1.9012	25.61	-0.36	0.750			
0.5272	33740.19	3.7190	3.7189	1.9445	25.59	-0.38	0.750			
0.5330	34114.63	3.7160	3.7160	2.0013	25.58	-0.39	0.750			
0.5392	34506.73	3.7130	3.7131	2.0643	25.57	-0.40	0.750	0.350	0.490	
0.5456	34915.31	3.7100	3.7099	2.1272	25.55	-0.42	0.750			
0.5520	35329.19	3.7070	3.7070	2.1619	25.54	-0.43	0.750			
0.5585	35744.67	3.7040	3.7041	2.2154	25.53	-0.44	0.750			
0.5653	36176.04	3.7010	3.7009	2.2725	25.52	-0.45	0.750			
0.5721	36614.28	3.6980	3.6979	2.3282	25.50	-0.47	0.750			
0.5791	37064.57	3.6950	3.6951	2.3758	25.49	-0.48	0.750			
0.5864	37531.19	3.6920	3.6919	2.4491	25.47	-0.50	0.750			
0.5938	38002.32	3.6890	3.6889	2.4980	25.46	-0.51	0.750			
0.6014	38487.74	3.6860	3.6860	2.5763	25.46	-0.51	0.750			
0.6093	38992.42	3.6830	3.6829	2.6217	25.45	-0.52	0.750			
0.6172	39502.95	3.6800	3.6800	2.6741	25.45	-0.52	0.750			
0.6253	40022.15	3.6770	3.6770	2.6767	25.44	-0.53	0.750			
0.6334	40539.41	3.6740	3.6741	2.6689	25.44	-0.53	0.750			
0.6415	41054.95	3.6710	3.6709	2.6056	25.44	-0.53	0.750			
0.6493	41557.18	3.6680	3.6679	2.4606	25.43	-0.54	0.750			
0.6565	42016.92	3.6650	3.6650	2.2925	25.44	-0.53	0.750			
0.6631	42436.61	3.6620	3.6620	2.0901	25.44	-0.53	0.750			
0.6690	42812.98	3.6590	3.6589	1.9012	25.45	-0.52	0.750			
0.6743	43156.53	3.6560	3.6560	1.7402	25.45	-0.52	0.750			
0.6792	43467.88	3.6530	3.6530	1.6098	25.45	-0.52	0.750			
0.6838	43762.69	3.6500	3.6500	1.5061	25.46	-0.51	0.750			
0.6880	44032.61	3.6470	3.6469	1.4169	25.46	-0.51	0.750			
0.6921	44296.99	3.6440	3.6440	1.3583	25.46	-0.51	0.750			
0.6961	44551.06	3.6410	3.6410	1.3101	25.46	-0.51	0.750			
0.6999	44795.36	3.6380	3.6379	1.2652	25.46	-0.51	0.750			
0.7036	45033.52	3.6350	3.6351	1.2323	25.46	-0.51	0.750			
0.7073	45264.73	3.6320	3.6321	1.2118	25.47	-0.50	0.750			
0.7108	45494.30	3.6290	3.6289	1.1960	25.47	-0.50	0.750			
0.7144	45720.11	3.6260	3.6260	1.1789	25.48	-0.49	0.750			
0.7179	45944.53	3.6230	3.6231	1.1750	25.48	-0.49	0.750			
0.7214	46169.99	3.6200	3.6200	1.1730	25.49	-0.48	0.750			
0.7249	46395.20	3.6170	3.6168	1.1701	25.50	-0.47	0.750			
0.7284	46618.64	3.6140	3.6140	1.1706	25.51	-0.46	0.750			
0.7319	46843.57	3.6110	3.6110	1.1707	25.51	-0.46	0.750			
0.7355	47069.69	3.6080	3.6080	1.1723	25.52	-0.45	0.750			
0.7390	47292.91	3.6050	3.6051	1.1746	25.52	-0.45	0.750			
0.7425	47518.36	3.6020	3.6020	1.1822	25.52	-0.45	0.750			
0.7460	47745.41	3.5990	3.5990	1.1963	25.53	-0.44	0.750			
0.7496	47975.74	3.5960	3.5960	1.2058	25.53	-0.44	0.750			
0.7532	48205.91	3.5930	3.5931	1.2356	25.54	-0.43	0.750			
0.7569	48443.91	3.5900	3.5900	1.2744	25.54	-0.43	0.750			
0.7608	48691.14	3.5870	3.5869	1.3074	25.55	-0.42	0.750			
0.7648	48944.41	3.5840	3.5841	1.3554	25.55	-0.42	0.750			
0.7689	49209.28	3.5810	3.5811	1.4029	25.56	-0.41	0.750			
0.7732	49486.10	3.5780	3.5779	1.4367	25.57	-0.40	0.750			
0.7776	49766.46	3.5750	3.5751	1.4800	25.57	-0.40	0.750			
0.7821	50053.24	3.5720	3.5721	1.5055	25.58	-0.39	0.750			
0.7867	50346.85	3.5690	3.5689	1.5307	25.59	-0.38	0.750			
0.7913	50643.66	3.5660	3.5660	1.5556	25.60	-0.37	0.750			
0.7960	50945.67	3.5630	3.5630	1.5726	25.61	-0.36	0.750			
0.8008	51253.93	3.5600	3.5599	1.5879	25.62	-0.35	0.750			
0.8056	51560.56	3.5570	3.5571	1.5906	25.63	-0.34	0.750			
0.8104	51866.35	3.5540	3.5540	1.5875	25.64	-0.33	0.750			
0.8152	52174.90	3.5510	3.5511	1.5860	25.64	-0.33	0.750			
0.8200	52479.73	3.5480	3.5479	1.5739	25.65	-0.32	0.750			
0.8247	52782.95	3.5450	3.5449	1.5409	25.66	-0.31	0.750			
0.8295	53085.58	3.5420	3.5420	1.4971	25.68	-0.29	0.750			
0.8340	53378.60	3.5390	3.5391	1.3759	25.69	-0.28	0.750			
0.8383	53650.05	3.5360	3.5360	1.2431	25.71	-0.26	0.750			
0.8419	53879.29	3.5330	3.5332	1.0639	25.73	-0.24	0.750			
0.8447	54062.50	3.5300	3.5301	0.8857	25.75	-0.22	0.750			
0.8470	54205.91	3.5270	3.5269	0.7092	25.76	-0.21	0.750			
0.8486	54310.65	3.5240	3.5240	0.5739	25.77	-0.20	0.750			
0.8500	54397.67	3.5210	3.5209	0.4640	25.78	-0.19	0.750			
0.8512	54474.51	3.5180	3.5179	0.4073	25.79	-0.18	0.750			
0.8522	54542.30	3.5150	3.5150	0.3600	25.80	-0.17	0.750			
0.8532	54606.72	3.5120	3.5119	0.3330	25.81	-0.16	0.750			
0.8542	54666.51	3.5090	3.5090	0.3134	25.81	-0.16	0.750			
0.8551	54724.52	3.5060	3.5060	0.2981	25.82	-0.15	0.750			
0.8559	54779.97	3.5030	3.5030	0.2860	25.82	-0.15	0.750			
0.8568	54833.37	3.5000	3.5000	0.2758	25.83	-0.14	0.750			
0.8576	54885.04	3.4970	3.4970	0.2677	25.84	-0.13	0.750			
0.8584	54935.61	3.4940	3.4939	0.2606	25.84	-0.13	0.750			
0.8591	54984.76	3.4910	3.4910	0.2536	25.85	-0.12	0.750			
0.8599	55032.82	3.4880	3.4880	0.2478	25.85	-0.12	0.750			
0.8606	55079.83	3.4850	3.4850	0.2424	25.86	-0.11	0.750			
0.8613	55125.66	3.4820	3.4819	0.2369	25.86	-0.11	0.750			
0.8620	55170.16	3.4790	3.4789	0.2313	25.87	-0.10	0.750			
0.8627	55214.04	3.4760	3.4761	0.2266	25.87	-0.10	0.750			
0.8634	55257.33	3.4730	3.4730	0.2218	25.88	-0.09	0.750			
0.8641	55299.53	3.4700	3.4700	0.2168	25.88	-0.09	0.750			
0.8647	55340.55	3.4670	3.4670	0.2120	25.89	-0.08	0.750			
0.8653	55380.75	3.4640	3.4640	0.2071	25.89	-0.08	0.750			
0.8659	55419.96	3.4610	3.4610	0.2025	25.90	-0.07	0.750			
0.8665	55458.29	3.4580	3.4580	0.1979	25.90	-0.07	0.750			
0.8671	55495.86	3.4550	3.4550	0.1932	25.91	-0.06	0.750			
0.8677	55532.54	3.4520	3.4520	0.1889	25.91	-0.06	0.750			
0.8683	55568.60	3.4490	3.4490	0.1845	25.92	-0.05	0.750			
0.8688	55603.63	3.4460	3.4460	0.1799	25.92	-0.05	0.750			
0.8693	55637.58	3.4430	3.4430	0.1750	25.93	-0.04	0.750			
0.8699	55670.73	3.4400	3.4401	0.1703	25.93	-0.04	0.750			
0.8704	55702.86	3.4370	3.4370	0.1660	25.93	-0.04	0.750			
0.8708	55734.33	3.4340	3.4340	0.1614	25.94	-0.03	0.750			
0.8713	55765.16	3.4310	3.4310	0.1568	25.94	-0.03	0.750			
0.8718	55794.79	3.4280	3.4279	0.1518	25.95	-0.02	0.750			
0.8722	55823.49	3.4250	3.4251	0.1474	25.95	-0.02	0.750			
0.8727	55851.29	3.4220	3.4220	0.1428	25.95	-0.02	0.750			
0.8731	55878.18	3.4190	3.4190	0.1379	25.96	-0.01	0.750			
0.8735	55904.29	3.4160	3.4159	0.1330	25.96	-0.01	0.750			
0.8739	55929.25	3.4130	3.4130	0.1281	25.96	-0.01	0.750			
0.8743	55953.55	3.4100	3.4101	0.1234	25.97	-0.00	0.750			
0.8746	55977.05	3.4070	3.4070	0.1188	25.97	-0.00	0.750			
0.8750	55999.32	3.4040	3.4040	0.1133	25.97	0.00	0.750			
0.8753	56020.41	3.4010	3.4009	0.1077	25.97	0.00	0.750			
0.8756	56040.92	3.3980	3.3980	0.1018	25.98	0.01	0.750			
0.8759	56059.88	3.3950	3.3950	0.0957	25.98	0.01	0.750			
0.8762	56078.76	3.3920	3.3920	0.0889	25.98	0.01	0.750			
0.8765	56095.00	3.3890	3.3889	0.0804	25.98	0.01	0.750			
0.8767	56110.09	3.3860	3.3860	0.0730	25.99	0.02	0.750			
0.8769	56123.22	3.3830	3.3832	0.0638	25.99	0.02	0.750			
0.8771	56135.08	3.3800	3.3803	0.0549	25.99	0.02	0.750			
0.8773	56144.67	3.3770	3.3777	0.0450	25.99	0.02	0.750			
0.8774	56152.35	3.3740	3.3750	0.0350	25.99	0.02	0.750			
0.8775	56158.12	3.3710	3.3725	0.0251	25.99	0.02	0.750			
