Ah_balance (normalized)	Ah_balance (mAh)	Voltage - fit (V)	Voltage -  interpolate (V)	dQ/dV (1/V)	Temperature (°C)	Temperature - diff (°C)	Current (C)	R_DC 0ms (mOhm)	R_DC 50ms (mOhm)	R_DC 50 ms PEC (mOhm)
0.1986	12712.61	3.9360	3.9357	-0.1267	25.83	0.00	-0.750			
0.1991	12741.57	3.9330	3.9328	-0.1755	25.83	0.00	-0.750			
0.1997	12780.48	3.9300	3.9300	-0.2237	25.83	0.00	-0.750			
0.2004	12828.46	3.9270	3.9270	-0.2691	25.83	0.00	-0.750			
0.2013	12884.39	3.9240	3.9240	-0.3148	25.83	0.00	-0.750			
0.2023	12950.01	3.9210	3.9210	-0.3585	25.83	-0.00	-0.750			
0.2035	13023.63	3.9180	3.9180	-0.3989	25.83	-0.00	-0.750			
0.2048	13104.45	3.9150	3.9150	-0.4376	25.83	-0.00	-0.750			
0.2061	13192.66	3.9120	3.9120	-0.4743	25.83	-0.00	-0.750			
0.2076	13288.12	3.9090	3.9090	-0.5091	25.83	-0.00	-0.750			
0.2092	13389.76	3.9060	3.9060	-0.5382	25.82	-0.01	-0.750			
0.2109	13497.58	3.9030	3.9030	-0.5615	25.82	-0.01	-0.750			
0.2126	13608.70	3.9000	3.9000	-0.5818	25.82	-0.01	-0.750			
0.2144	13723.34	3.8970	3.8971	-0.5992	25.82	-0.01	-0.750			
0.2162	13839.66	3.8940	3.8940	-0.6115	25.82	-0.01	-0.750			
0.2181	13958.36	3.8910	3.8910	-0.6256	25.81	-0.02	-0.750			
0.2200	14080.23	3.8880	3.8879	-0.6368	25.81	-0.02	-0.750			
0.2219	14204.69	3.8850	3.8850	-0.6468	25.81	-0.02	-0.750			
0.2239	14329.78	3.8820	3.8820	-0.6545	25.80	-0.03	-0.750			
0.2259	14457.16	3.8790	3.8791	-0.6617	25.80	-0.03	-0.750			
0.2279	14584.54	3.8760	3.8759	-0.6681	25.80	-0.03	-0.750			
0.2299	14713.20	3.8730	3.8729	-0.6715	25.80	-0.03	-0.750			
0.2319	14842.54	3.8700	3.8701	-0.6732	25.80	-0.03	-0.750			
0.2339	14972.45	3.8670	3.8670	-0.6771	25.80	-0.03	-0.750			
0.2360	15104.34	3.8640	3.8640	-0.6805	25.80	-0.03	-0.750			
0.2380	15234.62	3.8610	3.8609	-0.6804	25.80	-0.03	-0.750			
0.2401	15364.43	3.8580	3.8580	-0.6825	25.80	-0.03	-0.750			
0.2421	15494.99	3.8550	3.8550	-0.6867	25.80	-0.03	-0.750			
0.2442	15627.79	3.8520	3.8520	-0.6914	25.80	-0.03	-0.750			
0.2463	15761.22	3.8490	3.8490	-0.6931	25.80	-0.03	-0.750			
0.2484	15894.83	3.8460	3.8460	-0.6940	25.80	-0.03	-0.750			
0.2505	16029.60	3.8430	3.8430	-0.6927	25.80	-0.03	-0.750			
0.2525	16162.09	3.8400	3.8400	-0.6916	25.80	-0.03	-0.750			
0.2546	16293.99	3.8370	3.8370	-0.6902	25.81	-0.02	-0.750			
0.2567	16426.13	3.8340	3.8340	-0.6902	25.81	-0.02	-0.750			
0.2587	16558.77	3.8310	3.8309	-0.6912	25.81	-0.02	-0.750			
0.2608	16691.44	3.8280	3.8281	-0.6925	25.82	-0.01	-0.750			
0.2629	16824.75	3.8250	3.8250	-0.6935	25.82	-0.01	-0.750			
0.2650	16958.25	3.8220	3.8220	-0.6941	25.82	-0.01	-0.750			
0.2671	17091.70	3.8190	3.8190	-0.6904	25.82	-0.01	-0.750			
0.2691	17224.01	3.8160	3.8160	-0.6909	25.82	-0.01	-0.750			
0.2712	17356.83	3.8130	3.8130	-0.6911	25.81	-0.02	-0.750			
0.2733	17489.46	3.8100	3.8100	-0.6900	25.81	-0.02	-0.750			
0.2753	17621.44	3.8070	3.8070	-0.6907	25.81	-0.02	-0.750			
0.2774	17754.49	3.8040	3.8040	-0.6906	25.81	-0.02	-0.750			
0.2795	17886.86	3.8010	3.8010	-0.6934	25.81	-0.02	-0.750			
0.2816	18020.44	3.7980	3.7981	-0.6954	25.81	-0.02	-0.750			
0.2837	18153.63	3.7950	3.7950	-0.6946	25.80	-0.03	-0.750			
0.2857	18287.63	3.7920	3.7919	-0.6956	25.80	-0.03	-0.750			
0.2878	18421.35	3.7890	3.7891	-0.6970	25.80	-0.03	-0.750			
0.2899	18555.16	3.7860	3.7861	-0.6957	25.80	-0.03	-0.750			
0.2920	18688.88	3.7830	3.7830	-0.7000	25.80	-0.03	-0.750			
0.2941	18822.15	3.7800	3.7800	-0.7034	25.80	-0.03	-0.750			
0.2962	18957.89	3.7770	3.7770	-0.7042	25.81	-0.02	-0.750			
0.2983	19093.60	3.7740	3.7740	-0.7074	25.81	-0.02	-0.750			
0.3005	19230.45	3.7710	3.7710	-0.7114	25.81	-0.02	-0.750			
0.3026	19367.12	3.7680	3.7680	-0.7132	25.81	-0.02	-0.750			
0.3048	19504.02	3.7650	3.7649	-0.7171	25.80	-0.03	-0.750			
0.3069	19641.08	3.7620	3.7620	-0.7204	25.80	-0.03	-0.750			
0.3091	19779.86	3.7590	3.7590	-0.7237	25.80	-0.03	-0.750			
0.3113	19920.68	3.7560	3.7560	-0.7270	25.79	-0.04	-0.750			
0.3134	20060.26	3.7530	3.7531	-0.7315	25.79	-0.04	-0.750			
0.3156	20200.79	3.7500	3.7500	-0.7359	25.79	-0.04	-0.750			
0.3178	20341.40	3.7470	3.7470	-0.7411	25.79	-0.04	-0.750			
0.3201	20484.01	3.7440	3.7440	-0.7477	25.79	-0.04	-0.750			
0.3223	20627.66	3.7410	3.7411	-0.7549	25.78	-0.05	-0.750			
0.3246	20775.19	3.7380	3.7380	-0.7634	25.78	-0.05	-0.750			
0.3269	20922.52	3.7350	3.7350	-0.7691	25.78	-0.05	-0.750			
0.3292	21070.07	3.7320	3.7320	-0.7722	25.78	-0.05	-0.750			
0.3315	21218.76	3.7290	3.7290	-0.7820	25.77	-0.06	-0.750			
0.3339	21369.01	3.7260	3.7260	-0.7884	25.77	-0.06	-0.750			
0.3363	21521.36	3.7230	3.7230	-0.7984	25.76	-0.07	-0.750			
0.3387	21675.42	3.7200	3.7199	-0.8051	25.76	-0.07	-0.750			
0.3411	21830.90	3.7170	3.7170	-0.8156	25.75	-0.08	-0.750			
0.3436	21987.70	3.7140	3.7140	-0.8297	25.75	-0.08	-0.750			
0.3461	22148.11	3.7110	3.7110	-0.8415	25.74	-0.09	-0.750			
0.3486	22310.94	3.7080	3.7079	-0.8502	25.74	-0.09	-0.750			
0.3512	22475.85	3.7050	3.7052	-0.8641	25.73	-0.10	-0.750			
0.3538	22641.88	3.7020	3.7020	-0.8813	25.73	-0.10	-0.750			
0.3565	22812.96	3.6990	3.6989	-0.8961	25.72	-0.11	-0.750			
0.3592	22985.91	3.6960	3.6959	-0.9086	25.72	-0.11	-0.750			
0.3619	23160.53	3.6930	3.6930	-0.9229	25.71	-0.12	-0.750			
0.3647	23341.38	3.6900	3.6902	-0.9429	25.71	-0.12	-0.750			
0.3676	23523.96	3.6870	3.6869	-0.9657	25.70	-0.13	-0.750			
0.3705	23710.19	3.6840	3.6840	-0.9826	25.69	-0.14	-0.750			
0.3734	23898.95	3.6810	3.6809	-1.0027	25.69	-0.14	-0.750			
0.3765	24095.06	3.6780	3.6782	-1.0288	25.68	-0.15	-0.750			
0.3796	24296.16	3.6750	3.6749	-1.0501	25.67	-0.16	-0.750			
0.3828	24498.51	3.6720	3.6720	-1.0721	25.67	-0.16	-0.750			
0.3860	24705.52	3.6690	3.6690	-1.0963	25.66	-0.17	-0.750			
0.3893	24917.73	3.6660	3.6660	-1.1279	25.66	-0.17	-0.750			
0.3928	25139.41	3.6630	3.6629	-1.1473	25.65	-0.18	-0.750			
0.3963	25361.65	3.6600	3.6600	-1.1693	25.64	-0.19	-0.750			
0.3998	25588.51	3.6570	3.6570	-1.1933	25.63	-0.20	-0.750			
0.4035	25820.86	3.6540	3.6540	-1.2161	25.63	-0.20	-0.750			
0.4071	26054.30	3.6510	3.6509	-1.2413	25.62	-0.21	-0.750			
0.4108	26291.45	3.6480	3.6480	-1.2694	25.61	-0.22	-0.750			
0.4147	26538.77	3.6450	3.6451	-1.2991	25.60	-0.23	-0.750			
0.4187	26794.83	3.6420	3.6420	-1.3328	25.59	-0.24	-0.750			
0.4227	27054.66	3.6390	3.6390	-1.3572	25.58	-0.25	-0.750			
0.4269	27318.55	3.6360	3.6361	-1.3836	25.57	-0.26	-0.750			
0.4310	27586.48	3.6330	3.6329	-1.4150	25.56	-0.27	-0.750			
0.4353	27858.38	3.6300	3.6300	-1.4474	25.56	-0.27	-0.750			
0.4397	28140.45	3.6270	3.6270	-1.4707	25.55	-0.28	-0.750			
0.4442	28427.90	3.6240	3.6242	-1.5089	25.54	-0.29	-0.750			
0.4487	28719.14	3.6210	3.6210	-1.5360	25.53	-0.30	-0.750			
0.4534	29016.24	3.6180	3.6180	-1.5692	25.53	-0.30	-0.750			
0.4581	29319.10	3.6150	3.6149	-1.5950	25.52	-0.31	-0.750			
0.4629	29626.66	3.6120	3.6120	-1.6266	25.51	-0.32	-0.750			
0.4679	29943.80	3.6090	3.6090	-1.6659	25.51	-0.32	-0.750			
0.4729	30267.95	3.6060	3.6058	-1.7010	25.50	-0.33	-0.750			
0.4780	30595.11	3.6030	3.6031	-1.7336	25.50	-0.33	-0.750			
0.4833	30934.40	3.6000	3.5999	-1.7606	25.50	-0.33	-0.750			
0.4887	31274.16	3.5970	3.5968	-1.7939	25.50	-0.33	-0.750			
0.4941	31620.80	3.5940	3.5941	-1.8232	25.49	-0.34	-0.750			
0.4996	31975.26	3.5910	3.5910	-1.8507	25.48	-0.35	-0.750			
0.5052	32334.82	3.5880	3.5880	-1.8796	25.48	-0.35	-0.750			
0.5109	32695.91	3.5850	3.5851	-1.9026	25.48	-0.35	-0.750			
0.5166	33064.66	3.5820	3.5820	-1.9415	25.48	-0.35	-0.750			
0.5225	33440.77	3.5790	3.5790	-1.9732	25.49	-0.34	-0.750			
0.5285	33824.43	3.5760	3.5760	-2.0009	25.50	-0.33	-0.750			
0.5346	34215.11	3.5730	3.5730	-2.0291	25.50	-0.33	-0.750			
0.5407	34605.29	3.5700	3.5700	-2.0369	25.50	-0.33	-0.750	0.377	0.548	
0.5468	34996.76	3.5670	3.5670	-2.0612	25.51	-0.32	-0.750			
0.5530	35391.93	3.5640	3.5640	-2.0710	25.52	-0.31	-0.750			
0.5593	35793.32	3.5610	3.5610	-2.0904	25.53	-0.30	-0.750			
0.5656	36199.76	3.5580	3.5581	-2.1104	25.53	-0.30	-0.750			
0.5720	36606.60	3.5550	3.5550	-2.1067	25.55	-0.28	-0.750			
0.5783	37012.69	3.5520	3.5520	-2.0992	25.56	-0.27	-0.750			
0.5846	37414.64	3.5490	3.5490	-2.0907	25.57	-0.26	-0.750			
0.5908	37813.86	3.5460	3.5460	-2.0735	25.59	-0.24	-0.750			
0.5971	38211.60	3.5430	3.5430	-2.0623	25.61	-0.22	-0.750			
0.6032	38606.10	3.5400	3.5400	-2.0585	25.62	-0.21	-0.750			
0.6094	39001.75	3.5370	3.5370	-2.0419	25.63	-0.20	-0.750			
0.6156	39395.83	3.5340	3.5340	-2.0267	25.64	-0.19	-0.750			
0.6217	39785.75	3.5310	3.5310	-2.0004	25.65	-0.18	-0.750			
0.6276	40166.39	3.5280	3.5280	-1.9549	25.66	-0.17	-0.750			
0.6334	40539.23	3.5250	3.5250	-1.9096	25.68	-0.15	-0.750			
0.6391	40899.23	3.5220	3.5220	-1.8628	25.69	-0.14	-0.750			
0.6446	41253.10	3.5190	3.5190	-1.8218	25.70	-0.13	-0.750			
0.6500	41599.20	3.5160	3.5159	-1.7768	25.72	-0.11	-0.750			
0.6553	41936.90	3.5130	3.5130	-1.7337	25.73	-0.10	-0.750			
0.6604	42266.61	3.5100	3.5101	-1.6915	25.75	-0.08	-0.750			
0.6654	42586.34	3.5070	3.5070	-1.6416	25.77	-0.06	-0.750			
0.6703	42899.11	3.5040	3.5039	-1.5990	25.78	-0.05	-0.750			
0.6750	43198.20	3.5010	3.5010	-1.5450	25.80	-0.03	-0.750			
0.6795	43490.12	3.4980	3.4980	-1.5001	25.81	-0.02	-0.750			
0.6840	43773.82	3.4950	3.4950	-1.4552	25.83	0.00	-0.750			
0.6883	44048.83	3.4920	3.4920	-1.4137	25.85	0.02	-0.750			
0.6924	44315.96	3.4890	3.4890	-1.3718	25.86	0.03	-0.750			
0.6965	44575.73	3.4860	3.4860	-1.3322	25.87	0.04	-0.750			
0.7004	44827.21	3.4830	3.4830	-1.2937	25.89	0.06	-0.750			
0.7043	45072.36	3.4800	3.4800	-1.2573	25.90	0.07	-0.750			
0.7079	45308.22	3.4770	3.4770	-1.2241	25.92	0.09	-0.750			
0.7116	45539.42	3.4740	3.4740	-1.1947	25.93	0.10	-0.750			
0.7151	45763.36	3.4710	3.4710	-1.1693	25.94	0.11	-0.750			
0.7185	45985.21	3.4680	3.4679	-1.1505	25.95	0.12	-0.750			
0.7219	46203.70	3.4650	3.4650	-1.1348	25.97	0.14	-0.750			
0.7253	46419.42	3.4620	3.4619	-1.1195	25.98	0.15	-0.750			
0.7286	46632.65	3.4590	3.4590	-1.1121	25.99	0.16	-0.750			
0.7320	46844.84	3.4560	3.4560	-1.0986	26.00	0.17	-0.750			
0.7352	47055.16	3.4530	3.4530	-1.0936	26.01	0.18	-0.750			
0.7385	47263.80	3.4500	3.4500	-1.0837	26.02	0.19	-0.750			
0.7417	47471.40	3.4470	3.4470	-1.0854	26.03	0.20	-0.750			
0.7450	47681.00	3.4440	3.4439	-1.0781	26.04	0.21	-0.750			
0.7483	47888.07	3.4410	3.4410	-1.0719	26.05	0.22	-0.750			
0.7514	48092.67	3.4380	3.4383	-1.0640	26.06	0.23	-0.750			
0.7547	48298.34	3.4350	3.4350	-1.0590	26.07	0.24	-0.750			
0.7578	48499.73	3.4320	3.4319	-1.0482	26.07	0.24	-0.750			
0.7609	48700.58	3.4290	3.4290	-1.0302	26.08	0.25	-0.750			
0.7640	48899.15	3.4260	3.4260	-1.0174	26.08	0.25	-0.750			
0.7671	49092.30	3.4230	3.4231	-1.0014	26.09	0.26	-0.750			
0.7700	49282.42	3.4200	3.4201	-0.9823	26.10	0.27	-0.750			
0.7729	49468.56	3.4170	3.4169	-0.9657	26.11	0.28	-0.750			
0.7758	49651.73	3.4140	3.4140	-0.9481	26.12	0.29	-0.750			
0.7786	49831.69	3.4110	3.4110	-0.9368	26.12	0.29	-0.750			
0.7815	50013.35	3.4080	3.4080	-0.9279	26.12	0.29	-0.750			
0.7842	50189.41	3.4050	3.4049	-0.9066	26.13	0.30	-0.750			
0.7869	50361.26	3.4020	3.4020	-0.8824	26.13	0.30	-0.750			
0.7896	50531.40	3.3990	3.3990	-0.8603	26.13	0.30	-0.750			
0.7921	50694.23	3.3960	3.3960	-0.8342	26.14	0.31	-0.750			
0.7946	50852.42	3.3930	3.3930	-0.8090	26.14	0.31	-0.750			
0.7970	51004.91	3.3900	3.3899	-0.7764	26.15	0.32	-0.750			
0.7993	51152.35	3.3870	3.3870	-0.7463	26.16	0.33	-0.750			
0.8015	51292.81	3.3840	3.3842	-0.7138	26.16	0.33	-0.750			
0.8036	51427.51	3.3810	3.3810	-0.6815	26.17	0.34	-0.750			
0.8055	51553.56	3.3780	3.3780	-0.6509	26.17	0.34	-0.750			
0.8074	51673.53	3.3750	3.3749	-0.6191	26.18	0.35	-0.750			
0.8092	51789.90	3.3720	3.3720	-0.5930	26.19	0.36	-0.750			
0.8110	51901.27	3.3690	3.3690	-0.5665	26.19	0.36	-0.750			
0.8126	52008.43	3.3660	3.3660	-0.5399	26.20	0.37	-0.750			
0.8142	52108.98	3.3630	3.3630	-0.5135	26.20	0.37	-0.750			
0.8157	52204.23	3.3600	3.3600	-0.4880	26.20	0.37	-0.750			
0.8171	52294.76	3.3570	3.3570	-0.4639	26.21	0.38	-0.750			
0.8185	52381.22	3.3540	3.3539	-0.4418	26.21	0.38	-0.750			
0.8197	52463.44	3.3510	3.3511	-0.4240	26.21	0.38	-0.750			
0.8210	52542.60	3.3480	3.3481	-0.4074	26.21	0.38	-0.750			
0.8222	52619.55	3.3450	3.3449	-0.3912	26.21	0.38	-0.750			
0.8233	52692.67	3.3420	3.3419	-0.3751	26.22	0.39	-0.750			
0.8244	52762.87	3.3390	3.3391	-0.3593	26.22	0.39	-0.750			
0.8255	52830.48	3.3360	3.3360	-0.3454	26.22	0.39	-0.750			
0.8265	52895.21	3.3330	3.3329	-0.3330	26.22	0.39	-0.750			
0.8275	52957.37	3.3300	3.3300	-0.3200	26.23	0.40	-0.750			
0.8284	53016.98	3.3270	3.3270	-0.3085	26.23	0.40	-0.750			
0.8293	53075.35	3.3240	3.3240	-0.2999	26.23	0.40	-0.750			
0.8302	53131.67	3.3210	3.3211	-0.2910	26.24	0.41	-0.750			
0.8310	53186.85	3.3180	3.3179	-0.2837	26.24	0.41	-0.750			
0.8319	53240.14	3.3150	3.3150	-0.2757	26.25	0.42	-0.750			
0.8327	53292.58	3.3120	3.3120	-0.2673	26.25	0.42	-0.750			
0.8335	53343.18	3.3090	3.3090	-0.2605	26.25	0.42	-0.750			
0.8343	53392.59	3.3060	3.3061	-0.2547	26.26	0.43	-0.750			
0.8350	53440.42	3.3030	3.3029	-0.2479	26.26	0.43	-0.750			
0.8357	53487.46	3.3000	3.2999	-0.2418	26.27	0.44	-0.750			
0.8365	53532.96	3.2970	3.2970	-0.2358	26.27	0.44	-0.750			
0.8372	53577.76	3.2940	3.2941	-0.2314	26.27	0.44	-0.750			
0.8378	53622.05	3.2910	3.2910	-0.2274	26.28	0.45	-0.750			
0.8385	53664.58	3.2880	3.2880	-0.2223	26.28	0.45	-0.750			
0.8392	53706.92	3.2850	3.2851	-0.2187	26.28	0.45	-0.750			
0.8398	53748.22	3.2820	3.2820	-0.2148	26.28	0.45	-0.750			
0.8405	53789.38	3.2790	3.2790	-0.2111	26.29	0.46	-0.750			
0.8411	53829.73	3.2760	3.2760	-0.2077	26.29	0.46	-0.750			
0.8417	53869.05	3.2730	3.2730	-0.2036	26.29	0.46	-0.750			
0.8423	53907.78	3.2700	3.2700	-0.1999	26.30	0.47	-0.750			
0.8429	53945.85	3.2670	3.2670	-0.1963	26.30	0.47	-0.750			
0.8435	53982.79	3.2640	3.2640	-0.1928	26.30	0.47	-0.750			
0.8441	54019.32	3.2610	3.2611	-0.1903	26.31	0.48	-0.750			
0.8446	54055.65	3.2580	3.2580	-0.1881	26.31	0.48	-0.750			
0.8452	54091.58	3.2550	3.2549	-0.1854	26.31	0.48	-0.750			
0.8457	54126.92	3.2520	3.2519	-0.1827	26.31	0.48	-0.750			
0.8463	54161.74	3.2490	3.2491	-0.1806	26.32	0.49	-0.750			
0.8468	54196.20	3.2460	3.2461	-0.1783	26.32	0.49	-0.750			
0.8473	54230.28	3.2430	3.2430	-0.1761	26.32	0.49	-0.750			
0.8479	54263.78	3.2400	3.2400	-0.1735	26.32	0.49	-0.750			
0.8484	54296.71	3.2370	3.2370	-0.1711	26.33	0.50	-0.750			
0.8489	54329.39	3.2340	3.2340	-0.1693	26.33	0.50	-0.750			
0.8494	54361.84	3.2310	3.2310	-0.1676	26.33	0.50	-0.750			
0.8499	54393.77	3.2280	3.2280	-0.1656	26.33	0.50	-0.750			
0.8504	54425.26	3.2250	3.2250	-0.1635	26.34	0.51	-0.750			
0.8509	54456.59	3.2220	3.2220	-0.1613	26.34	0.51	-0.750			
0.8514	54487.36	3.2190	3.2191	-0.1597	26.34	0.51	-0.750			
0.8518	54517.74	3.2160	3.2159	-0.1582	26.34	0.51	-0.750			
0.8523	54547.80	3.2130	3.2131	-0.1564	26.35	0.52	-0.750			
0.8528	54577.72	3.2100	3.2099	-0.1552	26.35	0.52	-0.750			
0.8532	54607.28	3.2070	3.2070	-0.1540	26.36	0.53	-0.750			
0.8537	54636.79	3.2040	3.2040	-0.1528	26.36	0.53	-0.750			
0.8542	54666.03	3.2010	3.2010	-0.1518	26.36	0.53	-0.750			
0.8546	54695.39	3.1980	3.1980	-0.1500	26.37	0.54	-0.750			
0.8551	54723.92	3.1950	3.1950	-0.1484	26.37	0.54	-0.750			
0.8555	54752.17	3.1920	3.1921	-0.1468	26.37	0.54	-0.750			
0.8559	54780.22	3.1890	3.1890	-0.1453	26.38	0.55	-0.750			
0.8564	54807.97	3.1860	3.1859	-0.1437	26.38	0.55	-0.750			
0.8568	54835.16	3.1830	3.1831	-0.1424	26.39	0.56	-0.750			
0.8572	54862.48	3.1800	3.1800	-0.1412	26.39	0.56	-0.750			
0.8576	54889.49	3.1770	3.1770	-0.1402	26.39	0.56	-0.750			
0.8581	54916.44	3.1740	3.1739	-0.1393	26.40	0.57	-0.750			
0.8585	54942.92	3.1710	3.1711	-0.1379	26.40	0.57	-0.750			
0.8589	54969.35	3.1680	3.1680	-0.1370	26.40	0.57	-0.750			
0.8593	54995.54	3.1650	3.1650	-0.1359	26.41	0.58	-0.750			
0.8597	55021.63	3.1620	3.1620	-0.1347	26.41	0.58	-0.750			
0.8601	55047.36	3.1590	3.1590	-0.1330	26.41	0.58	-0.750			
0.8605	55072.73	3.1560	3.1560	-0.1323	26.42	0.59	-0.750			
0.8609	55098.00	3.1530	3.1530	-0.1310	26.42	0.59	-0.750			
0.8613	55122.88	3.1500	3.1500	-0.1299	26.42	0.59	-0.750			
0.8617	55147.63	3.1470	3.1470	-0.1289	26.43	0.60	-0.750			
0.8621	55172.36	3.1440	3.1440	-0.1277	26.43	0.60	-0.750			
0.8625	55196.80	3.1410	3.1411	-0.1269	26.43	0.60	-0.750			
0.8628	55221.09	3.1380	3.1380	-0.1263	26.44	0.61	-0.750			
0.8632	55245.38	3.1350	3.1350	-0.1256	26.44	0.61	-0.750			
0.8636	55269.40	3.1320	3.1320	-0.1243	26.44	0.61	-0.750			
0.8640	55293.05	3.1290	3.1290	-0.1231	26.44	0.61	-0.750			
0.8643	55316.57	3.1260	3.1261	-0.1222	26.44	0.61	-0.750			
0.8647	55339.93	3.1230	3.1230	-0.1213	26.45	0.62	-0.750			
0.8650	55363.14	3.1200	3.1200	-0.1205	26.45	0.62	-0.750			
0.8654	55386.28	3.1170	3.1169	-0.1197	26.45	0.62	-0.750			
0.8658	55409.02	3.1140	3.1141	-0.1186	26.46	0.63	-0.750			
0.8661	55431.73	3.1110	3.1110	-0.1180	26.46	0.63	-0.750			
0.8665	55454.42	3.1080	3.1081	-0.1175	26.46	0.63	-0.750			
0.8668	55476.91	3.1050	3.1050	-0.1167	26.47	0.64	-0.750			
0.8672	55499.32	3.1020	3.1020	-0.1154	26.47	0.64	-0.750			
0.8675	55521.45	3.0990	3.0990	-0.1144	26.47	0.64	-0.750			
0.8679	55543.22	3.0960	3.0960	-0.1137	26.48	0.65	-0.750			
0.8682	55564.95	3.0930	3.0930	-0.1127	26.48	0.65	-0.750			
0.8685	55586.42	3.0900	3.0899	-0.1123	26.48	0.65	-0.750			
0.8689	55607.75	3.0870	3.0870	-0.1116	26.49	0.66	-0.750			
0.8692	55629.23	3.0840	3.0840	-0.1105	26.49	0.66	-0.750			
0.8695	55650.34	3.0810	3.0810	-0.1098	26.49	0.66	-0.750			
0.8699	55671.40	3.0780	3.0780	-0.1089	26.50	0.67	-0.750			
0.8702	55692.51	3.0750	3.0751	-0.1083	26.50	0.67	-0.750			
0.8705	55713.15	3.0720	3.0719	-0.1073	26.50	0.67	-0.750			
0.8708	55733.61	3.0690	3.0690	-0.1062	26.50	0.67	-0.750			
0.8712	55753.78	3.0660	3.0660	-0.1059	26.51	0.68	-0.750			
0.8715	55773.78	3.0630	3.0630	-0.1051	26.51	0.68	-0.750			
0.8718	55793.97	3.0600	3.0600	-0.1046	26.51	0.68	-0.750			
0.8721	55814.06	3.0570	3.0569	-0.1042	26.52	0.69	-0.750			
0.8724	55834.14	3.0540	3.0540	-0.1032	26.52	0.69	-0.750			
0.8727	55853.98	3.0510	3.0510	-0.1025	26.52	0.69	-0.750			
0.8730	55873.51	3.0480	3.0480	-0.1021	26.53	0.70	-0.750			
0.8733	55893.14	3.0450	3.0451	-0.1015	26.53	0.70	-0.750			
0.8736	55912.57	3.0420	3.0418	-0.1004	26.53	0.70	-0.750			
0.8739	55931.65	3.0390	3.0390	-0.0994	26.53	0.70	-0.750			
0.8742	55950.60	3.0360	3.0361	-0.0991	26.54	0.71	-0.750			
0.8745	55969.50	3.0330	3.0331	-0.0985	26.54	0.71	-0.750			
0.8748	55988.41	3.0300	3.0300	-0.0980	26.54	0.71	-0.750			
0.8751	56007.27	3.0270	3.0269	-0.0975	26.54	0.71	-0.750			
0.8754	56025.99	3.0240	3.0240	-0.0966	26.54	0.71	-0.750			
0.8757	56044.40	3.0210	3.0210	-0.0957	26.55	0.72	-0.750			
0.8760	56062.66	3.0180	3.0181	-0.0953	26.55	0.72	-0.750			
0.8763	56081.06	3.0150	3.0150	-0.0948	26.55	0.72	-0.750			
0.8765	56099.19	3.0120	3.0120	-0.0940	26.55	0.72	-0.750			
0.8768	56116.94	3.0090	3.0088	-0.0935	26.55	0.72	-0.750			
0.8771	56134.86	3.0060	3.0061	-0.0932	26.55	0.72	-0.750			
0.8774	56152.75	3.0030	3.0031	-0.0947	26.56	0.73	-0.750			
