Ah_balance (normalized)	Ah_balance (mAh)	Voltage - fit (V)	Voltage -  interpolate (V)	dQ/dV (1/V)	Temperature (°C)	Temperature - diff (°C)	Current (C)	R_DC 0ms (mOhm)	R_DC 50ms (mOhm)	R_DC 50 ms PEC (mOhm)
0.2376	15209.53	3.9760	3.9759	0.8853	25.78	-0.14	0.750			
0.2403	15376.03	3.9730	3.9731	0.8602	25.78	-0.14	0.750			
0.2428	15541.12	3.9700	3.9700	0.8636	25.78	-0.14	0.750			
0.2454	15707.85	3.9670	3.9669	0.8685	25.78	-0.14	0.750			
0.2480	15873.88	3.9640	3.9641	0.8706	25.78	-0.14	0.750			
0.2507	16042.06	3.9610	3.9610	0.8773	25.79	-0.13	0.750			
0.2533	16212.88	3.9580	3.9580	0.8815	25.79	-0.13	0.750			
0.2560	16382.42	3.9550	3.9550	0.8809	25.79	-0.13	0.750			
0.2586	16551.62	3.9520	3.9520	0.8789	25.79	-0.13	0.750			
0.2612	16719.41	3.9490	3.9491	0.8835	25.79	-0.13	0.750			
0.2639	16889.39	3.9460	3.9460	0.8854	25.80	-0.12	0.750			
0.2665	17059.09	3.9430	3.9430	0.8869	25.80	-0.12	0.750			
0.2692	17229.89	3.9400	3.9400	0.8895	25.80	-0.12	0.750			
0.2719	17401.63	3.9370	3.9371	0.8927	25.80	-0.12	0.750			
0.2746	17573.18	3.9340	3.9340	0.8933	25.81	-0.11	0.750			
0.2773	17744.75	3.9310	3.9310	0.8970	25.81	-0.11	0.750			
0.2799	17915.62	3.9280	3.9279	0.9005	25.81	-0.11	0.750			
0.2827	18090.38	3.9250	3.9250	0.9008	25.81	-0.11	0.750			
0.2854	18263.03	3.9220	3.9220	0.9026	25.81	-0.11	0.750			
0.2881	18437.32	3.9190	3.9190	0.9062	25.81	-0.11	0.750			
0.2908	18610.87	3.9160	3.9160	0.9090	25.81	-0.11	0.750			
0.2935	18784.30	3.9130	3.9129	0.9106	25.81	-0.11	0.750			
0.2962	18958.74	3.9100	3.9100	0.9125	25.81	-0.11	0.750			
0.2990	19133.45	3.9070	3.9070	0.9179	25.81	-0.11	0.750			
0.3017	19311.43	3.9040	3.9041	0.9267	25.82	-0.10	0.750			
0.3045	19490.49	3.9010	3.9009	0.9279	25.82	-0.10	0.750			
0.3074	19670.45	3.8980	3.8980	0.9285	25.82	-0.10	0.750			
0.3101	19848.19	3.8950	3.8950	0.9307	25.82	-0.10	0.750			
0.3129	20026.68	3.8920	3.8920	0.9341	25.82	-0.10	0.750			
0.3157	20206.19	3.8890	3.8890	0.9379	25.82	-0.10	0.750			
0.3185	20384.36	3.8860	3.8859	0.9405	25.82	-0.10	0.750			
0.3213	20565.64	3.8830	3.8830	0.9450	25.82	-0.10	0.750			
0.3242	20748.96	3.8800	3.8800	0.9535	25.81	-0.11	0.750			
0.3271	20932.18	3.8770	3.8770	0.9588	25.81	-0.11	0.750			
0.3300	21117.32	3.8740	3.8739	0.9592	25.81	-0.11	0.750			
0.3329	21302.82	3.8710	3.8710	0.9564	25.81	-0.11	0.750			
0.3357	21485.81	3.8680	3.8680	0.9630	25.81	-0.11	0.750			
0.3386	21669.65	3.8650	3.8650	0.9682	25.82	-0.10	0.750			
0.3415	21855.36	3.8620	3.8620	0.9733	25.82	-0.10	0.750			
0.3444	22043.62	3.8590	3.8590	0.9756	25.82	-0.10	0.750			
0.3474	22231.35	3.8560	3.8560	0.9860	25.81	-0.11	0.750			
0.3503	22421.99	3.8530	3.8531	0.9974	25.81	-0.11	0.750			
0.3534	22615.26	3.8500	3.8500	1.0052	25.80	-0.12	0.750			
0.3564	22807.63	3.8470	3.8470	1.0044	25.80	-0.12	0.750			
0.3594	23001.83	3.8440	3.8440	1.0125	25.80	-0.12	0.750			
0.3624	23196.55	3.8410	3.8411	1.0233	25.80	-0.12	0.750			
0.3655	23394.34	3.8380	3.8380	1.0300	25.80	-0.12	0.750			
0.3686	23593.34	3.8350	3.8350	1.0305	25.80	-0.12	0.750			
0.3717	23790.67	3.8320	3.8321	1.0424	25.79	-0.13	0.750			
0.3749	23991.35	3.8290	3.8290	1.0553	25.79	-0.13	0.750			
0.3780	24194.60	3.8260	3.8261	1.0693	25.78	-0.14	0.750			
0.3813	24400.78	3.8230	3.8229	1.0749	25.78	-0.14	0.750			
0.3845	24607.44	3.8200	3.8200	1.0883	25.78	-0.14	0.750			
0.3878	24819.28	3.8170	3.8170	1.1021	25.78	-0.14	0.750			
0.3911	25032.66	3.8140	3.8140	1.1101	25.78	-0.14	0.750			
0.3945	25246.19	3.8110	3.8110	1.1146	25.78	-0.14	0.750			
0.3978	25460.16	3.8080	3.8080	1.1272	25.77	-0.15	0.750			
0.4012	25677.35	3.8050	3.8050	1.1422	25.77	-0.15	0.750			
0.4047	25898.63	3.8020	3.8019	1.1586	25.76	-0.16	0.750			
0.4081	26120.82	3.7990	3.7991	1.1715	25.76	-0.16	0.750			
0.4117	26348.16	3.7960	3.7960	1.1909	25.75	-0.17	0.750			
0.4153	26579.64	3.7930	3.7930	1.2098	25.74	-0.18	0.750			
0.4190	26812.90	3.7900	3.7900	1.2185	25.74	-0.18	0.750			
0.4226	27047.96	3.7870	3.7870	1.2340	25.73	-0.19	0.750			
0.4263	27285.28	3.7840	3.7841	1.2531	25.73	-0.19	0.750			
0.4301	27527.82	3.7810	3.7809	1.2673	25.72	-0.20	0.750			
0.4339	27769.56	3.7780	3.7780	1.2918	25.71	-0.21	0.750			
0.4378	28020.13	3.7750	3.7750	1.3148	25.71	-0.21	0.750			
0.4418	28276.19	3.7720	3.7719	1.3340	25.70	-0.22	0.750			
0.4458	28534.36	3.7690	3.7690	1.3591	25.69	-0.23	0.750			
0.4500	28797.17	3.7660	3.7662	1.3847	25.69	-0.23	0.750			
0.4541	29064.15	3.7630	3.7629	1.4098	25.68	-0.24	0.750			
0.4584	29336.52	3.7600	3.7600	1.4332	25.67	-0.25	0.750			
0.4628	29616.68	3.7570	3.7570	1.4567	25.67	-0.25	0.750			
0.4672	29900.11	3.7540	3.7539	1.4975	25.66	-0.26	0.750			
0.4717	30188.48	3.7510	3.7511	1.5220	25.65	-0.27	0.750			
0.4763	30482.46	3.7480	3.7480	1.5593	25.65	-0.27	0.750			
0.4810	30783.49	3.7450	3.7452	1.5844	25.64	-0.28	0.750			
0.4858	31089.41	3.7420	3.7419	1.6183	25.63	-0.29	0.750			
0.4907	31403.24	3.7390	3.7391	1.6565	25.62	-0.30	0.750			
0.4957	31724.42	3.7360	3.7359	1.7002	25.62	-0.30	0.750			
0.5009	32055.68	3.7330	3.7330	1.7343	25.61	-0.31	0.750			
0.5061	32392.82	3.7300	3.7301	1.7819	25.60	-0.32	0.750			
0.5116	32740.56	3.7270	3.7269	1.8261	25.59	-0.33	0.750			
0.5170	33089.94	3.7240	3.7240	1.8565	25.58	-0.34	0.750			
0.5226	33447.90	3.7210	3.7211	1.9063	25.57	-0.35	0.750			
0.5284	33820.11	3.7180	3.7180	1.9707	25.56	-0.36	0.750			
0.5344	34204.79	3.7150	3.7150	2.0201	25.55	-0.37	0.750	0.364	0.487	
0.5406	34597.87	3.7120	3.7120	2.0688	25.54	-0.38	0.750			
0.5469	35001.82	3.7090	3.7090	2.1246	25.53	-0.39	0.750			
0.5533	35413.24	3.7060	3.7060	2.1774	25.52	-0.40	0.750			
0.5599	35834.35	3.7030	3.7030	2.2271	25.51	-0.41	0.750			
0.5667	36270.08	3.7000	3.7000	2.2770	25.50	-0.42	0.750			
0.5736	36709.33	3.6970	3.6969	2.3415	25.50	-0.42	0.750			
0.5807	37165.16	3.6940	3.6940	2.4020	25.50	-0.42	0.750			
0.5880	37634.11	3.6910	3.6910	2.4464	25.48	-0.44	0.750			
0.5955	38109.42	3.6880	3.6881	2.5051	25.47	-0.45	0.750			
0.6031	38600.28	3.6850	3.6850	2.5712	25.47	-0.45	0.750			
0.6109	39094.84	3.6820	3.6820	2.6362	25.47	-0.45	0.750			
0.6190	39612.86	3.6790	3.6790	2.6681	25.46	-0.46	0.750			
0.6270	40128.31	3.6760	3.6762	2.6589	25.47	-0.45	0.750			
0.6350	40640.49	3.6730	3.6730	2.6273	25.47	-0.45	0.750			
0.6429	41147.32	3.6700	3.6699	2.5259	25.47	-0.45	0.750			
0.6505	41630.17	3.6670	3.6670	2.4212	25.47	-0.45	0.750			
0.6575	42079.45	3.6640	3.6640	2.2432	25.47	-0.45	0.750			
0.6638	42486.02	3.6610	3.6609	2.0318	25.48	-0.44	0.750			
0.6696	42856.53	3.6580	3.6581	1.8627	25.49	-0.43	0.750			
0.6750	43198.74	3.6550	3.6549	1.7174	25.50	-0.42	0.750			
0.6799	43511.45	3.6520	3.6519	1.5972	25.50	-0.42	0.750			
0.6843	43796.06	3.6490	3.6490	1.4761	25.51	-0.41	0.750			
0.6885	44066.03	3.6460	3.6460	1.4019	25.51	-0.41	0.750			
0.6926	44324.46	3.6430	3.6429	1.3353	25.52	-0.40	0.750			
0.6965	44574.05	3.6400	3.6400	1.2912	25.52	-0.40	0.750			
0.7002	44815.86	3.6370	3.6370	1.2541	25.53	-0.39	0.750			
0.7040	45052.93	3.6340	3.6340	1.2260	25.53	-0.39	0.750			
0.7075	45283.11	3.6310	3.6310	1.2052	25.53	-0.39	0.750			
0.7111	45509.00	3.6280	3.6280	1.1882	25.53	-0.39	0.750			
0.7146	45735.18	3.6250	3.6251	1.1829	25.54	-0.38	0.750			
0.7182	45962.16	3.6220	3.6219	1.1732	25.54	-0.38	0.750			
0.7217	46186.57	3.6190	3.6191	1.1697	25.55	-0.37	0.750			
0.7252	46411.28	3.6160	3.6160	1.1650	25.55	-0.37	0.750			
0.7287	46634.33	3.6130	3.6130	1.1628	25.56	-0.36	0.750			
0.7321	46856.71	3.6100	3.6100	1.1591	25.56	-0.36	0.750			
0.7356	47077.43	3.6070	3.6071	1.1600	25.57	-0.35	0.750			
0.7391	47299.75	3.6040	3.6040	1.1683	25.57	-0.35	0.750			
0.7426	47526.48	3.6010	3.6009	1.1705	25.58	-0.34	0.750			
0.7461	47747.57	3.5980	3.5980	1.1896	25.58	-0.34	0.750			
0.7496	47976.57	3.5950	3.5951	1.2144	25.59	-0.33	0.750			
0.7533	48211.30	3.5920	3.5919	1.2383	25.59	-0.33	0.750			
0.7570	48449.99	3.5890	3.5890	1.2780	25.59	-0.33	0.750			
0.7609	48697.57	3.5860	3.5861	1.3180	25.59	-0.33	0.750			
0.7649	48955.85	3.5830	3.5830	1.3610	25.60	-0.32	0.750			
0.7691	49225.49	3.5800	3.5801	1.4015	25.60	-0.32	0.750			
0.7733	49493.97	3.5770	3.5770	1.4393	25.61	-0.31	0.750			
0.7778	49776.21	3.5740	3.5740	1.4773	25.62	-0.30	0.750			
0.7823	50064.50	3.5710	3.5709	1.5107	25.62	-0.30	0.750			
0.7869	50359.50	3.5680	3.5681	1.5380	25.63	-0.29	0.750			
0.7915	50658.14	3.5650	3.5650	1.5633	25.63	-0.29	0.750			
0.7963	50963.21	3.5620	3.5620	1.5792	25.64	-0.28	0.750			
0.8011	51269.56	3.5590	3.5591	1.5879	25.64	-0.28	0.750			
0.8059	51579.06	3.5560	3.5559	1.5930	25.65	-0.27	0.750			
0.8107	51886.06	3.5530	3.5529	1.5895	25.66	-0.26	0.750			
0.8155	52190.19	3.5500	3.5500	1.5789	25.67	-0.25	0.750			
0.8202	52495.48	3.5470	3.5471	1.5678	25.67	-0.25	0.750			
0.8249	52796.30	3.5440	3.5438	1.5294	25.68	-0.24	0.750			
0.8296	53093.67	3.5410	3.5408	1.4610	25.69	-0.23	0.750			
0.8341	53383.07	3.5380	3.5380	1.3459	25.71	-0.21	0.750			
0.8382	53641.74	3.5350	3.5351	1.2024	25.72	-0.20	0.750			
0.8416	53864.13	3.5320	3.5321	1.0282	25.74	-0.18	0.750			
0.8444	54038.81	3.5290	3.5290	0.8327	25.75	-0.17	0.750			
0.8464	54171.29	3.5260	3.5259	0.6787	25.76	-0.16	0.750			
0.8480	54271.44	3.5230	3.5230	0.5373	25.77	-0.15	0.750			
0.8493	54355.39	3.5200	3.5199	0.4538	25.78	-0.14	0.750			
0.8505	54433.19	3.5170	3.5169	0.3995	25.79	-0.13	0.750			
0.8516	54500.00	3.5140	3.5140	0.3584	25.80	-0.12	0.750			
0.8526	54564.43	3.5110	3.5110	0.3328	25.80	-0.12	0.750			
0.8535	54624.64	3.5080	3.5080	0.3116	25.81	-0.11	0.750			
0.8544	54682.03	3.5050	3.5050	0.2968	25.82	-0.10	0.750			
0.8553	54736.62	3.5020	3.5020	0.2836	25.82	-0.10	0.750			
0.8561	54789.93	3.4990	3.4990	0.2746	25.83	-0.09	0.750			
0.8569	54841.35	3.4960	3.4960	0.2664	25.83	-0.09	0.750			
0.8577	54891.89	3.4930	3.4929	0.2595	25.84	-0.08	0.750			
0.8585	54940.84	3.4900	3.4900	0.2527	25.85	-0.07	0.750			
0.8592	54988.50	3.4870	3.4870	0.2463	25.85	-0.07	0.750			
0.8599	55035.09	3.4840	3.4841	0.2407	25.86	-0.06	0.750			
0.8606	55080.69	3.4810	3.4809	0.2348	25.86	-0.06	0.750			
0.8613	55125.05	3.4780	3.4780	0.2299	25.87	-0.05	0.750			
0.8620	55168.64	3.4750	3.4750	0.2248	25.87	-0.05	0.750			
0.8627	55211.48	3.4720	3.4720	0.2203	25.88	-0.04	0.750			
0.8633	55253.32	3.4690	3.4689	0.2156	25.89	-0.03	0.750			
0.8640	55294.33	3.4660	3.4661	0.2107	25.89	-0.03	0.750			
0.8646	55334.32	3.4630	3.4629	0.2063	25.90	-0.02	0.750			
0.8652	55373.40	3.4600	3.4600	0.2011	25.90	-0.02	0.750			
0.8658	55411.56	3.4570	3.4571	0.1964	25.91	-0.01	0.750			
0.8664	55448.70	3.4540	3.4540	0.1918	25.91	-0.01	0.750			
0.8670	55485.21	3.4510	3.4511	0.1872	25.91	-0.01	0.750			
0.8675	55520.65	3.4480	3.4480	0.1826	25.92	-0.00	0.750			
0.8681	55555.26	3.4450	3.4450	0.1780	25.92	0.00	0.750			
0.8686	55589.03	3.4420	3.4420	0.1733	25.93	0.01	0.750			
0.8691	55621.52	3.4390	3.4390	0.1691	25.93	0.01	0.750			
0.8696	55653.75	3.4360	3.4360	0.1649	25.94	0.02	0.750			
0.8701	55685.01	3.4330	3.4329	0.1607	25.94	0.02	0.750			
0.8706	55715.47	3.4300	3.4299	0.1561	25.94	0.02	0.750			
0.8710	55745.21	3.4270	3.4271	0.1518	25.95	0.03	0.750			
0.8715	55773.79	3.4240	3.4241	0.1473	25.95	0.03	0.750			
0.8719	55801.63	3.4210	3.4209	0.1427	25.95	0.03	0.750			
0.8723	55828.69	3.4180	3.4180	0.1380	25.96	0.04	0.750			
0.8727	55854.48	3.4150	3.4150	0.1330	25.96	0.04	0.750			
0.8731	55879.81	3.4120	3.4120	0.1286	25.96	0.04	0.750			
0.8735	55904.04	3.4090	3.4090	0.1238	25.97	0.05	0.750			
0.8739	55927.39	3.4060	3.4060	0.1190	25.97	0.05	0.750			
0.8742	55949.80	3.4030	3.4030	0.1141	25.97	0.05	0.750			
0.8745	55971.05	3.4000	3.4000	0.1089	25.98	0.06	0.750			
0.8749	55991.51	3.3970	3.3970	0.1043	25.98	0.06	0.750			
0.8752	56011.48	3.3940	3.3940	0.0988	25.98	0.06	0.750			
0.8755	56029.90	3.3910	3.3910	0.0930	25.98	0.06	0.750			
0.8758	56048.19	3.3880	3.3879	0.0861	25.99	0.07	0.750			
0.8760	56063.97	3.3850	3.3851	0.0783	25.99	0.07	0.750			
0.8762	56078.80	3.3820	3.3820	0.0715	25.99	0.07	0.750			
0.8764	56091.71	3.3790	3.3792	0.0629	25.99	0.07	0.750			
0.8766	56103.29	3.3760	3.3764	0.0545	25.99	0.07	0.750			
0.8768	56112.89	3.3730	3.3738	0.0455	25.99	0.07	0.750			
0.8769	56120.75	3.3700	3.3712	0.0364	26.00	0.08	0.750			
0.8770	56126.88	3.3670	3.3688	0.0274	26.00	0.08	0.750			
