Ah_balance (normalized)	Ah_balance (mAh)	Voltage - fit (V)	Voltage -  interpolate (V)	dQ/dV (1/V)	Temperature (°C)	Temperature - diff (°C)	Current (C)	R_DC 0ms (mOhm)	R_DC 50ms (mOhm)	R_DC 50 ms PEC (mOhm)
0.2362	15118.26	3.9740	3.9740	0.8819	26.08	0.14	0.750			
0.2389	15287.78	3.9710	3.9710	0.8823	26.09	0.15	0.750			
0.2415	15456.30	3.9680	3.9680	0.8789	26.09	0.15	0.750			
0.2441	15624.53	3.9650	3.9650	0.8789	26.09	0.15	0.750			
0.2468	15792.75	3.9620	3.9620	0.8810	26.10	0.16	0.750			
0.2494	15961.73	3.9590	3.9590	0.8831	26.10	0.16	0.750			
0.2521	16132.13	3.9560	3.9560	0.8862	26.10	0.16	0.750			
0.2547	16301.57	3.9530	3.9530	0.8892	26.11	0.17	0.750			
0.2574	16473.06	3.9500	3.9500	0.8931	26.11	0.17	0.750			
0.2601	16644.62	3.9470	3.9469	0.8956	26.11	0.17	0.750			
0.2628	16818.13	3.9440	3.9440	0.8948	26.11	0.17	0.750			
0.2655	16989.56	3.9410	3.9410	0.8971	26.11	0.17	0.750			
0.2682	17162.26	3.9380	3.9381	0.8995	26.12	0.18	0.750			
0.2709	17335.44	3.9350	3.9350	0.8990	26.12	0.18	0.750			
0.2735	17506.65	3.9320	3.9319	0.8981	26.12	0.18	0.750			
0.2763	17680.37	3.9290	3.9290	0.8972	26.12	0.18	0.750			
0.2789	17850.98	3.9260	3.9261	0.9021	26.12	0.18	0.750			
0.2816	18024.54	3.9230	3.9231	0.9078	26.12	0.18	0.750			
0.2844	18198.78	3.9200	3.9200	0.9130	26.12	0.18	0.750			
0.2871	18375.50	3.9170	3.9170	0.9216	26.12	0.18	0.750			
0.2899	18554.53	3.9140	3.9140	0.9196	26.12	0.18	0.750			
0.2927	18730.55	3.9110	3.9111	0.9228	26.12	0.18	0.750			
0.2955	18909.24	3.9080	3.9080	0.9260	26.12	0.18	0.750			
0.2982	19084.77	3.9050	3.9048	0.9261	26.12	0.18	0.750			
0.3010	19262.38	3.9020	3.9021	0.9270	26.12	0.18	0.750			
0.3037	19439.63	3.8990	3.8990	0.9325	26.12	0.18	0.750			
0.3066	19621.35	3.8960	3.8960	0.9366	26.12	0.18	0.750			
0.3094	19801.65	3.8930	3.8930	0.9383	26.12	0.18	0.750			
0.3122	19982.39	3.8900	3.8900	0.9375	26.12	0.18	0.750			
0.3150	20162.50	3.8870	3.8870	0.9422	26.12	0.18	0.750			
0.3179	20342.78	3.8840	3.8840	0.9471	26.12	0.18	0.750			
0.3207	20524.28	3.8810	3.8811	0.9555	26.12	0.18	0.750			
0.3236	20708.02	3.8780	3.8779	0.9576	26.12	0.18	0.750			
0.3265	20894.24	3.8750	3.8750	0.9630	26.11	0.17	0.750			
0.3294	21078.54	3.8720	3.8721	0.9689	26.11	0.17	0.750			
0.3323	21265.72	3.8690	3.8691	0.9740	26.11	0.17	0.750			
0.3352	21452.94	3.8660	3.8659	0.9759	26.10	0.16	0.750			
0.3381	21640.04	3.8630	3.8631	0.9771	26.10	0.16	0.750			
0.3411	21827.26	3.8600	3.8601	0.9868	26.10	0.16	0.750			
0.3440	22018.87	3.8570	3.8569	0.9964	26.09	0.15	0.750			
0.3470	22210.27	3.8540	3.8540	0.9965	26.09	0.15	0.750			
0.3500	22402.48	3.8510	3.8510	1.0012	26.09	0.15	0.750			
0.3531	22595.79	3.8480	3.8481	1.0098	26.08	0.14	0.750			
0.3561	22790.08	3.8450	3.8450	1.0161	26.07	0.13	0.750			
0.3591	22984.64	3.8420	3.8420	1.0241	26.06	0.12	0.750			
0.3622	23182.33	3.8390	3.8390	1.0239	26.06	0.12	0.750			
0.3653	23379.46	3.8360	3.8360	1.0373	26.05	0.11	0.750			
0.3684	23579.53	3.8330	3.8331	1.0472	26.05	0.11	0.750			
0.3716	23781.45	3.8300	3.8300	1.0554	26.04	0.10	0.750			
0.3748	23985.51	3.8270	3.8270	1.0565	26.04	0.10	0.750			
0.3779	24187.87	3.8240	3.8240	1.0691	26.03	0.09	0.750			
0.3812	24393.82	3.8210	3.8210	1.0800	26.03	0.09	0.750			
0.3844	24603.36	3.8180	3.8179	1.0945	26.02	0.08	0.750			
0.3877	24811.62	3.8150	3.8151	1.1012	26.01	0.07	0.750			
0.3910	25024.91	3.8120	3.8120	1.1162	26.00	0.06	0.750			
0.3944	25240.78	3.8090	3.8090	1.1341	25.99	0.05	0.750			
0.3978	25460.63	3.8060	3.8058	1.1510	25.98	0.04	0.750			
0.4013	25682.09	3.8030	3.8031	1.1652	25.98	0.04	0.750			
0.4048	25908.20	3.8000	3.8000	1.1776	25.97	0.03	0.750			
0.4084	26136.48	3.7970	3.7970	1.1914	25.96	0.02	0.750			
0.4120	26365.36	3.7940	3.7940	1.2028	25.96	0.02	0.750			
0.4156	26598.32	3.7910	3.7910	1.2188	25.95	0.01	0.750			
0.4192	26831.69	3.7880	3.7880	1.2362	25.95	0.01	0.750			
0.4230	27072.17	3.7850	3.7850	1.2477	25.94	0.00	0.750			
0.4268	27312.27	3.7820	3.7820	1.2706	25.93	-0.01	0.750			
0.4306	27558.04	3.7790	3.7790	1.2933	25.93	-0.01	0.750			
0.4345	27808.78	3.7760	3.7760	1.3078	25.92	-0.02	0.750			
0.4384	28060.55	3.7730	3.7730	1.3390	25.91	-0.03	0.750			
0.4425	28320.32	3.7700	3.7700	1.3652	25.90	-0.04	0.750			
0.4466	28584.88	3.7670	3.7669	1.3914	25.89	-0.05	0.750			
0.4509	28857.39	3.7640	3.7640	1.4182	25.89	-0.05	0.750			
0.4551	29129.12	3.7610	3.7610	1.4428	25.88	-0.06	0.750			
0.4595	29409.38	3.7580	3.7580	1.4720	25.88	-0.06	0.750			
0.4640	29696.09	3.7550	3.7550	1.4862	25.87	-0.07	0.750			
0.4685	29983.68	3.7520	3.7519	1.5157	25.86	-0.08	0.750			
0.4731	30275.22	3.7490	3.7489	1.5504	25.85	-0.09	0.750			
0.4777	30575.39	3.7460	3.7460	1.5780	25.84	-0.10	0.750			
0.4825	30881.59	3.7430	3.7430	1.6109	25.84	-0.10	0.750			
0.4874	31191.43	3.7400	3.7400	1.6456	25.83	-0.11	0.750			
0.4924	31510.42	3.7370	3.7372	1.6867	25.81	-0.13	0.750			
0.4975	31843.17	3.7340	3.7339	1.7322	25.80	-0.14	0.750			
0.5027	32175.86	3.7310	3.7310	1.7720	25.79	-0.15	0.750			
0.5081	32518.33	3.7280	3.7281	1.8295	25.78	-0.16	0.750			
0.5137	32877.70	3.7250	3.7250	1.8768	25.77	-0.17	0.750			
0.5194	33242.04	3.7220	3.7220	1.9236	25.76	-0.18	0.750			
0.5252	33613.82	3.7190	3.7191	1.9828	25.75	-0.19	0.750			
0.5313	34000.88	3.7160	3.7159	2.0442	25.73	-0.21	0.750			
0.5375	34397.26	3.7130	3.7130	2.0921	25.72	-0.22	0.750	0.355	0.491	
0.5439	34808.28	3.7100	3.7100	2.1382	25.71	-0.23	0.750			
0.5504	35227.70	3.7070	3.7070	2.1843	25.70	-0.24	0.750			
0.5570	35644.87	3.7040	3.7041	2.2142	25.69	-0.25	0.750			
0.5636	36071.77	3.7010	3.7009	2.2631	25.68	-0.26	0.750			
0.5704	36508.67	3.6980	3.6980	2.3317	25.66	-0.28	0.750			
0.5776	36963.28	3.6950	3.6950	2.3993	25.65	-0.29	0.750			
0.5849	37431.91	3.6920	3.6920	2.4540	25.64	-0.30	0.750			
0.5923	37909.38	3.6890	3.6890	2.5214	25.64	-0.30	0.750			
0.6000	38399.72	3.6860	3.6860	2.5863	25.64	-0.30	0.750			
0.6079	38903.03	3.6830	3.6830	2.6517	25.62	-0.32	0.750			
0.6160	39424.68	3.6800	3.6800	2.7021	25.62	-0.32	0.750			
0.6242	39945.83	3.6770	3.6770	2.7177	25.61	-0.33	0.750			
0.6323	40468.99	3.6740	3.6739	2.7015	25.61	-0.33	0.750			
0.6405	40995.01	3.6710	3.6710	2.6283	25.61	-0.33	0.750			
0.6483	41493.44	3.6680	3.6681	2.4948	25.60	-0.34	0.750			
0.6556	41959.15	3.6650	3.6649	2.3233	25.60	-0.34	0.750			
0.6623	42385.27	3.6620	3.6620	2.1390	25.60	-0.34	0.750			
0.6684	42776.47	3.6590	3.6590	1.9635	25.59	-0.35	0.750			
0.6740	43136.03	3.6560	3.6560	1.8130	25.59	-0.35	0.750			
0.6791	43464.36	3.6530	3.6528	1.6821	25.59	-0.35	0.750			
0.6839	43769.05	3.6500	3.6501	1.5606	25.60	-0.34	0.750			
0.6883	44052.19	3.6470	3.6470	1.4662	25.60	-0.34	0.750			
0.6925	44320.68	3.6440	3.6440	1.3923	25.60	-0.34	0.750			
0.6966	44580.14	3.6410	3.6410	1.3398	25.60	-0.34	0.750			
0.7004	44827.62	3.6380	3.6380	1.2909	25.60	-0.34	0.750			
0.7042	45068.88	3.6350	3.6350	1.2550	25.61	-0.33	0.750			
0.7079	45306.57	3.6320	3.6321	1.2253	25.62	-0.32	0.750			
0.7115	45537.79	3.6290	3.6290	1.2071	25.62	-0.32	0.750			
0.7151	45765.12	3.6260	3.6260	1.1935	25.63	-0.31	0.750			
0.7186	45989.39	3.6230	3.6230	1.1804	25.63	-0.31	0.750			
0.7221	46217.02	3.6200	3.6200	1.1751	25.64	-0.30	0.750			
0.7257	46442.38	3.6170	3.6170	1.1730	25.64	-0.30	0.750			
0.7292	46667.34	3.6140	3.6141	1.1689	25.64	-0.30	0.750			
0.7327	46892.01	3.6110	3.6110	1.1711	25.65	-0.29	0.750			
0.7362	47115.18	3.6080	3.6080	1.1670	25.65	-0.29	0.750			
0.7397	47338.18	3.6050	3.6050	1.1743	25.65	-0.29	0.750			
0.7432	47562.86	3.6020	3.6021	1.1823	25.66	-0.28	0.750			
0.7467	47791.55	3.5990	3.5989	1.1926	25.66	-0.28	0.750			
0.7503	48019.18	3.5960	3.5960	1.2106	25.66	-0.28	0.750			
0.7539	48250.76	3.5930	3.5931	1.2343	25.66	-0.28	0.750			
0.7576	48488.76	3.5900	3.5900	1.2639	25.67	-0.27	0.750			
0.7615	48733.95	3.5870	3.5869	1.2999	25.67	-0.27	0.750			
0.7654	48985.60	3.5840	3.5841	1.3407	25.67	-0.27	0.750			
0.7695	49249.36	3.5810	3.5810	1.3769	25.67	-0.27	0.750			
0.7737	49518.67	3.5780	3.5780	1.4181	25.67	-0.27	0.750			
0.7780	49795.07	3.5750	3.5750	1.4550	25.67	-0.27	0.750			
0.7825	50077.08	3.5720	3.5720	1.4937	25.68	-0.26	0.750			
0.7870	50370.86	3.5690	3.5691	1.5227	25.68	-0.26	0.750			
0.7917	50667.30	3.5660	3.5661	1.5478	25.68	-0.26	0.750			
0.7964	50967.86	3.5630	3.5630	1.5699	25.68	-0.26	0.750			
0.8011	51273.31	3.5600	3.5601	1.5843	25.68	-0.26	0.750			
0.8060	51581.62	3.5570	3.5569	1.5883	25.69	-0.25	0.750			
0.8107	51885.37	3.5540	3.5539	1.5881	25.69	-0.25	0.750			
0.8155	52192.93	3.5510	3.5511	1.5846	25.69	-0.25	0.750			
0.8203	52497.09	3.5480	3.5481	1.5832	25.70	-0.24	0.750			
0.8250	52801.98	3.5450	3.5450	1.5689	25.70	-0.24	0.750			
0.8299	53113.44	3.5420	3.5419	1.5075	25.71	-0.23	0.750			
0.8345	53409.30	3.5390	3.5389	1.4245	25.72	-0.22	0.750			
0.8388	53683.77	3.5360	3.5362	1.2686	25.74	-0.20	0.750			
0.8426	53926.22	3.5330	3.5332	1.1049	25.75	-0.19	0.750			
0.8457	54122.52	3.5300	3.5300	0.9260	25.77	-0.17	0.750			
0.8480	54273.04	3.5270	3.5268	0.7390	25.78	-0.16	0.750			
0.8497	54382.85	3.5240	3.5240	0.5951	25.79	-0.15	0.750			
0.8512	54479.15	3.5210	3.5208	0.4921	25.80	-0.14	0.750			
0.8524	54554.68	3.5180	3.5180	0.4202	25.80	-0.14	0.750			
0.8536	54627.46	3.5150	3.5148	0.3745	25.81	-0.13	0.750			
0.8545	54691.00	3.5120	3.5120	0.3420	25.82	-0.12	0.750			
0.8555	54753.33	3.5090	3.5089	0.3212	25.82	-0.12	0.750			
0.8564	54811.65	3.5060	3.5060	0.3051	25.83	-0.11	0.750			
0.8573	54868.62	3.5030	3.5031	0.2922	25.83	-0.11	0.750			
0.8582	54922.91	3.5000	3.4999	0.2819	25.84	-0.10	0.750			
0.8590	54975.90	3.4970	3.4970	0.2721	25.84	-0.10	0.750			
0.8598	55026.81	3.4940	3.4940	0.2639	25.85	-0.09	0.750			
0.8606	55076.39	3.4910	3.4909	0.2559	25.85	-0.09	0.750			
0.8613	55124.61	3.4880	3.4881	0.2489	25.86	-0.08	0.750			
0.8621	55171.45	3.4850	3.4849	0.2435	25.86	-0.08	0.750			
0.8628	55217.81	3.4820	3.4820	0.2382	25.87	-0.07	0.750			
0.8635	55263.07	3.4790	3.4790	0.2329	25.87	-0.07	0.750			
0.8642	55306.93	3.4760	3.4760	0.2274	25.88	-0.06	0.750			
0.8649	55350.59	3.4730	3.4731	0.2231	25.88	-0.06	0.750			
0.8655	55392.72	3.4700	3.4700	0.2173	25.89	-0.05	0.750			
0.8662	55433.95	3.4670	3.4669	0.2121	25.89	-0.05	0.750			
0.8668	55474.12	3.4640	3.4640	0.2078	25.89	-0.05	0.750			
0.8674	55513.34	3.4610	3.4610	0.2025	25.90	-0.04	0.750			
0.8680	55551.77	3.4580	3.4580	0.1986	25.90	-0.04	0.750			
0.8686	55589.49	3.4550	3.4550	0.1944	25.91	-0.03	0.750			
0.8692	55626.40	3.4520	3.4520	0.1895	25.91	-0.03	0.750			
0.8697	55662.59	3.4490	3.4490	0.1850	25.92	-0.02	0.750			
0.8703	55697.64	3.4460	3.4460	0.1804	25.92	-0.02	0.750			
0.8708	55731.79	3.4430	3.4430	0.1753	25.92	-0.02	0.750			
0.8713	55764.76	3.4400	3.4400	0.1707	25.93	-0.01	0.750			
0.8718	55797.12	3.4370	3.4369	0.1664	25.93	-0.01	0.750			
0.8723	55828.38	3.4340	3.4340	0.1615	25.93	-0.01	0.750			
0.8728	55859.15	3.4310	3.4310	0.1570	25.94	-0.00	0.750			
0.8733	55889.16	3.4280	3.4280	0.1525	25.94	0.00	0.750			
0.8737	55917.83	3.4250	3.4250	0.1484	25.94	0.00	0.750			
0.8742	55945.79	3.4220	3.4221	0.1437	25.95	0.01	0.750			
0.8746	55973.01	3.4190	3.4190	0.1392	25.95	0.01	0.750			
0.8750	55999.33	3.4160	3.4159	0.1344	25.95	0.01	0.750			
0.8754	56024.73	3.4130	3.4130	0.1300	25.96	0.02	0.750			
0.8758	56049.31	3.4100	3.4101	0.1254	25.96	0.02	0.750			
0.8761	56073.15	3.4070	3.4070	0.1210	25.96	0.02	0.750			
0.8765	56095.97	3.4040	3.4040	0.1163	25.96	0.02	0.750			
0.8768	56117.57	3.4010	3.4010	0.1106	25.97	0.03	0.750			
0.8772	56138.65	3.3980	3.3980	0.1055	25.97	0.03	0.750			
0.8775	56158.58	3.3950	3.3950	0.1007	25.97	0.03	0.750			
0.8778	56177.40	3.3920	3.3921	0.0953	25.97	0.03	0.750			
0.8781	56196.29	3.3890	3.3889	0.0883	25.98	0.04	0.750			
0.8783	56212.47	3.3860	3.3859	0.0803	25.98	0.04	0.750			
0.8786	56227.77	3.3830	3.3831	0.0736	25.98	0.04	0.750			
0.8788	56241.06	3.3800	3.3802	0.0648	25.98	0.04	0.750			
0.8790	56253.33	3.3770	3.3772	0.0563	25.98	0.04	0.750			
0.8791	56263.22	3.3740	3.3745	0.0467	25.98	0.04	0.750			
0.8792	56271.26	3.3710	3.3721	0.0371	25.98	0.04	0.750			
0.8793	56277.45	3.3680	3.3695	0.0274	25.98	0.04	0.750			
