Ah_balance (normalized)	Ah_balance (mAh)	Voltage - fit (V)	Voltage -  interpolate (V)	dQ/dV (1/V)	Temperature (°C)	Temperature - diff (°C)	Current (C)	R_DC 0ms (mOhm)	R_DC 50ms (mOhm)	R_DC 50 ms PEC (mOhm)
0.2002	12810.58	3.9370	3.9368	-0.1139	25.68	0.02	-0.750			
0.2006	12837.07	3.9340	3.9338	-0.1616	25.68	0.02	-0.750			
0.2011	12872.20	3.9310	3.9310	-0.2082	25.68	0.02	-0.750			
0.2018	12917.13	3.9280	3.9280	-0.2549	25.68	0.02	-0.750			
0.2027	12970.69	3.9250	3.9250	-0.3002	25.67	0.01	-0.750			
0.2036	13032.81	3.9220	3.9220	-0.3422	25.67	0.01	-0.750			
0.2047	13103.69	3.9190	3.9190	-0.3842	25.67	0.01	-0.750			
0.2060	13182.65	3.9160	3.9160	-0.4229	25.67	0.01	-0.750			
0.2073	13268.17	3.9130	3.9129	-0.4577	25.66	0.00	-0.750			
0.2088	13360.28	3.9100	3.9100	-0.4900	25.66	-0.00	-0.750			
0.2103	13458.31	3.9070	3.9071	-0.5182	25.66	-0.00	-0.750			
0.2119	13561.27	3.9040	3.9040	-0.5460	25.65	-0.01	-0.750			
0.2136	13669.41	3.9010	3.9010	-0.5674	25.65	-0.01	-0.750			
0.2153	13780.82	3.8980	3.8980	-0.5875	25.64	-0.02	-0.750			
0.2171	13896.56	3.8950	3.8950	-0.6062	25.64	-0.02	-0.750			
0.2190	14014.64	3.8920	3.8921	-0.6200	25.63	-0.03	-0.750			
0.2209	14136.33	3.8890	3.8889	-0.6334	25.63	-0.03	-0.750			
0.2228	14259.52	3.8860	3.8860	-0.6413	25.63	-0.03	-0.750			
0.2247	14383.50	3.8830	3.8830	-0.6492	25.63	-0.03	-0.750			
0.2267	14509.36	3.8800	3.8800	-0.6573	25.63	-0.03	-0.750			
0.2287	14636.83	3.8770	3.8770	-0.6613	25.62	-0.04	-0.750			
0.2307	14764.16	3.8740	3.8740	-0.6639	25.62	-0.04	-0.750			
0.2327	14892.56	3.8710	3.8710	-0.6661	25.62	-0.04	-0.750			
0.2347	15020.29	3.8680	3.8680	-0.6682	25.62	-0.04	-0.750			
0.2367	15148.83	3.8650	3.8649	-0.6707	25.61	-0.05	-0.750			
0.2387	15277.15	3.8620	3.8621	-0.6727	25.61	-0.05	-0.750			
0.2407	15406.45	3.8590	3.8590	-0.6757	25.61	-0.05	-0.750			
0.2428	15537.52	3.8560	3.8560	-0.6816	25.60	-0.06	-0.750			
0.2448	15668.66	3.8530	3.8530	-0.6838	25.60	-0.06	-0.750			
0.2469	15800.49	3.8500	3.8499	-0.6864	25.60	-0.06	-0.750			
0.2489	15932.35	3.8470	3.8470	-0.6855	25.59	-0.07	-0.750			
0.2510	16063.91	3.8440	3.8440	-0.6855	25.59	-0.07	-0.750			
0.2530	16195.17	3.8410	3.8410	-0.6854	25.59	-0.07	-0.750			
0.2551	16327.80	3.8380	3.8380	-0.6860	25.58	-0.08	-0.750			
0.2572	16458.86	3.8350	3.8350	-0.6847	25.58	-0.08	-0.750			
0.2592	16590.11	3.8320	3.8320	-0.6862	25.58	-0.08	-0.750			
0.2613	16722.31	3.8290	3.8290	-0.6858	25.58	-0.08	-0.750			
0.2633	16853.87	3.8260	3.8260	-0.6878	25.58	-0.08	-0.750			
0.2654	16985.90	3.8230	3.8230	-0.6891	25.58	-0.08	-0.750			
0.2675	17118.63	3.8200	3.8200	-0.6891	25.58	-0.08	-0.750			
0.2695	17250.84	3.8170	3.8169	-0.6908	25.58	-0.08	-0.750			
0.2716	17383.58	3.8140	3.8141	-0.6896	25.58	-0.08	-0.750			
0.2737	17515.78	3.8110	3.8110	-0.6899	25.58	-0.08	-0.750			
0.2758	17648.44	3.8080	3.8080	-0.6916	25.57	-0.09	-0.750			
0.2778	17781.19	3.8050	3.8050	-0.6887	25.57	-0.09	-0.750			
0.2799	17913.75	3.8020	3.8020	-0.6886	25.57	-0.09	-0.750			
0.2820	18046.01	3.7990	3.7990	-0.6900	25.56	-0.10	-0.750			
0.2840	18177.78	3.7960	3.7961	-0.6905	25.56	-0.10	-0.750			
0.2861	18310.28	3.7930	3.7930	-0.6935	25.56	-0.10	-0.750			
0.2882	18443.08	3.7900	3.7899	-0.6958	25.56	-0.10	-0.750			
0.2903	18577.62	3.7870	3.7870	-0.6966	25.56	-0.10	-0.750			
0.2924	18712.04	3.7840	3.7840	-0.7001	25.56	-0.10	-0.750			
0.2945	18847.37	3.7810	3.7810	-0.7002	25.56	-0.10	-0.750			
0.2966	18981.34	3.7780	3.7781	-0.7001	25.56	-0.10	-0.750			
0.2987	19114.97	3.7750	3.7749	-0.6995	25.56	-0.10	-0.750			
0.3008	19249.06	3.7720	3.7720	-0.7011	25.55	-0.11	-0.750			
0.3029	19383.56	3.7690	3.7690	-0.7028	25.55	-0.11	-0.750			
0.3050	19518.56	3.7660	3.7660	-0.7084	25.55	-0.11	-0.750			
0.3071	19654.30	3.7630	3.7630	-0.7129	25.54	-0.12	-0.750			
0.3093	19792.40	3.7600	3.7600	-0.7195	25.54	-0.12	-0.750			
0.3114	19930.85	3.7570	3.7570	-0.7222	25.53	-0.13	-0.750			
0.3136	20070.83	3.7540	3.7540	-0.7274	25.53	-0.13	-0.750			
0.3158	20211.10	3.7510	3.7510	-0.7316	25.53	-0.13	-0.750			
0.3180	20351.52	3.7480	3.7479	-0.7373	25.52	-0.14	-0.750			
0.3202	20492.69	3.7450	3.7451	-0.7402	25.52	-0.14	-0.750			
0.3224	20635.71	3.7420	3.7419	-0.7452	25.52	-0.14	-0.750			
0.3247	20779.34	3.7390	3.7390	-0.7526	25.52	-0.14	-0.750			
0.3269	20924.40	3.7360	3.7360	-0.7596	25.51	-0.15	-0.750			
0.3292	21069.88	3.7330	3.7330	-0.7652	25.51	-0.15	-0.750			
0.3315	21217.57	3.7300	3.7300	-0.7723	25.51	-0.15	-0.750			
0.3338	21366.25	3.7270	3.7271	-0.7807	25.51	-0.15	-0.750			
0.3362	21517.59	3.7240	3.7239	-0.7889	25.51	-0.15	-0.750			
0.3386	21670.01	3.7210	3.7210	-0.8007	25.50	-0.16	-0.750			
0.3410	21824.27	3.7180	3.7180	-0.8073	25.50	-0.16	-0.750			
0.3434	21980.15	3.7150	3.7150	-0.8183	25.49	-0.17	-0.750			
0.3459	22138.07	3.7120	3.7122	-0.8295	25.49	-0.17	-0.750			
0.3484	22297.29	3.7090	3.7089	-0.8412	25.49	-0.17	-0.750			
0.3509	22459.90	3.7060	3.7060	-0.8573	25.48	-0.18	-0.750			
0.3535	22625.67	3.7030	3.7029	-0.8713	25.48	-0.18	-0.750			
0.3562	22796.01	3.7000	3.7000	-0.8861	25.47	-0.19	-0.750			
0.3589	22967.30	3.6970	3.6971	-0.8998	25.47	-0.19	-0.750			
0.3616	23140.25	3.6940	3.6940	-0.9139	25.47	-0.19	-0.750			
0.3643	23316.31	3.6910	3.6910	-0.9324	25.47	-0.19	-0.750			
0.3671	23497.01	3.6880	3.6880	-0.9435	25.47	-0.19	-0.750			
0.3700	23681.23	3.6850	3.6850	-0.9592	25.47	-0.19	-0.750			
0.3729	23865.09	3.6820	3.6820	-0.9830	25.47	-0.19	-0.750			
0.3759	24055.86	3.6790	3.6791	-1.0043	25.46	-0.20	-0.750			
0.3789	24249.39	3.6760	3.6758	-1.0236	25.46	-0.20	-0.750			
0.3820	24446.39	3.6730	3.6730	-1.0473	25.45	-0.21	-0.750			
0.3851	24649.55	3.6700	3.6701	-1.0713	25.45	-0.21	-0.750			
0.3884	24859.64	3.6670	3.6670	-1.1005	25.45	-0.21	-0.750			
0.3918	25073.67	3.6640	3.6640	-1.1284	25.44	-0.22	-0.750			
0.3952	25290.13	3.6610	3.6611	-1.1550	25.44	-0.22	-0.750			
0.3987	25517.53	3.6580	3.6579	-1.1845	25.44	-0.22	-0.750			
0.4023	25748.29	3.6550	3.6550	-1.2105	25.43	-0.23	-0.750			
0.4060	25980.89	3.6520	3.6520	-1.2402	25.43	-0.23	-0.750			
0.4097	26223.51	3.6490	3.6490	-1.2660	25.43	-0.23	-0.750			
0.4136	26468.97	3.6460	3.6459	-1.2924	25.43	-0.23	-0.750			
0.4175	26719.41	3.6430	3.6430	-1.3141	25.43	-0.23	-0.750			
0.4215	26974.53	3.6400	3.6401	-1.3384	25.43	-0.23	-0.750			
0.4255	27234.36	3.6370	3.6370	-1.3714	25.43	-0.23	-0.750			
0.4297	27499.81	3.6340	3.6340	-1.3974	25.42	-0.24	-0.750			
0.4339	27770.51	3.6310	3.6310	-1.4275	25.42	-0.24	-0.750			
0.4383	28050.10	3.6280	3.6281	-1.4584	25.42	-0.24	-0.750			
0.4427	28331.60	3.6250	3.6250	-1.4927	25.42	-0.24	-0.750			
0.4472	28623.35	3.6220	3.6220	-1.5199	25.42	-0.24	-0.750			
0.4518	28916.95	3.6190	3.6190	-1.5509	25.42	-0.24	-0.750			
0.4565	29216.11	3.6160	3.6161	-1.5737	25.42	-0.24	-0.750			
0.4613	29521.97	3.6130	3.6130	-1.6035	25.42	-0.24	-0.750			
0.4661	29833.56	3.6100	3.6100	-1.6460	25.42	-0.24	-0.750			
0.4711	30151.06	3.6070	3.6071	-1.6735	25.42	-0.24	-0.750			
0.4762	30475.61	3.6040	3.6041	-1.7094	25.43	-0.23	-0.750			
0.4814	30810.27	3.6010	3.6010	-1.7486	25.44	-0.22	-0.750			
0.4867	31147.24	3.5980	3.5980	-1.7772	25.44	-0.22	-0.750			
0.4921	31492.40	3.5950	3.5952	-1.8135	25.44	-0.22	-0.750			
0.4976	31848.34	3.5920	3.5919	-1.8358	25.44	-0.22	-0.750			
0.5031	32199.51	3.5890	3.5890	-1.8547	25.45	-0.21	-0.750			
0.5087	32559.23	3.5860	3.5860	-1.8863	25.45	-0.21	-0.750			
0.5144	32924.63	3.5830	3.5831	-1.9152	25.45	-0.21	-0.750			
0.5202	33290.28	3.5800	3.5801	-1.9448	25.45	-0.21	-0.750			
0.5260	33666.08	3.5770	3.5770	-1.9740	25.45	-0.21	-0.750			
0.5321	34052.81	3.5740	3.5740	-2.0093	25.45	-0.21	-0.750			
0.5382	34442.71	3.5710	3.5711	-2.0301	25.45	-0.21	-0.750	0.389	0.551	
0.5443	34835.21	3.5680	3.5680	-2.0559	25.46	-0.20	-0.750			
0.5505	35232.68	3.5650	3.5649	-2.0559	25.46	-0.20	-0.750			
0.5567	35627.58	3.5620	3.5620	-2.0723	25.47	-0.19	-0.750			
0.5629	36025.88	3.5590	3.5591	-2.0749	25.48	-0.18	-0.750			
0.5692	36427.92	3.5560	3.5559	-2.0873	25.49	-0.17	-0.750			
0.5755	36828.86	3.5530	3.5531	-2.0915	25.49	-0.17	-0.750			
0.5817	37226.30	3.5500	3.5500	-2.0904	25.50	-0.16	-0.750			
0.5881	37635.36	3.5470	3.5469	-2.0938	25.51	-0.15	-0.750			
0.5943	38038.36	3.5440	3.5440	-2.0846	25.53	-0.13	-0.750			
0.6006	38436.71	3.5410	3.5411	-2.0763	25.54	-0.12	-0.750			
0.6068	38835.20	3.5380	3.5379	-2.0520	25.55	-0.11	-0.750			
0.6129	39228.48	3.5350	3.5350	-2.0225	25.56	-0.10	-0.750			
0.6189	39612.14	3.5320	3.5321	-1.9862	25.58	-0.08	-0.750			
0.6249	39994.20	3.5290	3.5289	-1.9600	25.59	-0.07	-0.750			
0.6307	40362.53	3.5260	3.5261	-1.9228	25.61	-0.05	-0.750			
0.6364	40729.34	3.5230	3.5230	-1.8779	25.63	-0.03	-0.750			
0.6420	41088.62	3.5200	3.5200	-1.8455	25.65	-0.01	-0.750			
0.6475	41438.79	3.5170	3.5171	-1.8012	25.67	0.01	-0.750			
0.6529	41784.24	3.5140	3.5139	-1.7648	25.68	0.02	-0.750			
0.6581	42115.40	3.5110	3.5111	-1.7089	25.70	0.04	-0.750			
0.6631	42439.79	3.5080	3.5081	-1.6624	25.72	0.06	-0.750			
0.6680	42752.38	3.5050	3.5049	-1.6129	25.75	0.09	-0.750			
0.6728	43057.39	3.5020	3.5020	-1.5649	25.77	0.11	-0.750			
0.6774	43354.83	3.4990	3.4990	-1.5252	25.78	0.12	-0.750			
0.6819	43641.67	3.4960	3.4960	-1.4822	25.80	0.14	-0.750			
0.6864	43926.77	3.4930	3.4930	-1.4419	25.82	0.16	-0.750			
0.6906	44198.12	3.4900	3.4899	-1.3882	25.84	0.18	-0.750			
0.6947	44460.70	3.4870	3.4870	-1.3451	25.86	0.20	-0.750			
0.6986	44712.94	3.4840	3.4840	-1.3043	25.87	0.21	-0.750			
0.7025	44957.67	3.4810	3.4809	-1.2644	25.88	0.22	-0.750			
0.7062	45195.36	3.4780	3.4779	-1.2303	25.89	0.23	-0.750			
0.7098	45425.89	3.4750	3.4751	-1.2037	25.91	0.25	-0.750			
0.7134	45657.14	3.4720	3.4720	-1.1833	25.92	0.26	-0.750			
0.7169	45881.62	3.4690	3.4689	-1.1620	25.93	0.27	-0.750			
0.7203	46101.26	3.4660	3.4661	-1.1410	25.94	0.28	-0.750			
0.7237	46318.42	3.4630	3.4629	-1.1300	25.95	0.29	-0.750			
0.7271	46534.40	3.4600	3.4600	-1.1123	25.96	0.30	-0.750			
0.7304	46746.24	3.4570	3.4569	-1.0985	25.97	0.31	-0.750			
0.7337	46953.66	3.4540	3.4542	-1.0887	25.98	0.32	-0.750			
0.7369	47163.20	3.4510	3.4509	-1.0831	25.99	0.33	-0.750			
0.7401	47368.70	3.4480	3.4480	-1.0776	25.99	0.33	-0.750			
0.7433	47573.74	3.4450	3.4450	-1.0721	26.00	0.34	-0.750			
0.7466	47779.63	3.4420	3.4420	-1.0746	26.00	0.34	-0.750			
0.7498	47987.42	3.4390	3.4389	-1.0697	26.01	0.35	-0.750			
0.7530	48192.51	3.4360	3.4360	-1.0612	26.01	0.35	-0.750			
0.7562	48395.94	3.4330	3.4328	-1.0484	26.02	0.36	-0.750			
0.7593	48597.56	3.4300	3.4301	-1.0371	26.02	0.36	-0.750			
0.7624	48795.82	3.4270	3.4270	-1.0246	26.03	0.37	-0.750			
0.7655	48991.22	3.4240	3.4239	-1.0102	26.04	0.38	-0.750			
0.7685	49181.42	3.4210	3.4211	-0.9900	26.04	0.38	-0.750			
0.7714	49372.65	3.4180	3.4180	-0.9814	26.05	0.39	-0.750			
0.7744	49560.06	3.4150	3.4150	-0.9682	26.06	0.40	-0.750			
0.7773	49744.98	3.4120	3.4120	-0.9531	26.07	0.41	-0.750			
0.7801	49925.90	3.4090	3.4091	-0.9300	26.07	0.41	-0.750			
0.7829	50105.32	3.4060	3.4060	-0.9101	26.08	0.42	-0.750			
0.7856	50276.90	3.4030	3.4030	-0.8882	26.09	0.43	-0.750			
0.7882	50444.81	3.4000	3.4000	-0.8650	26.10	0.44	-0.750			
0.7908	50608.78	3.3970	3.3970	-0.8400	26.10	0.44	-0.750			
0.7932	50767.54	3.3940	3.3940	-0.8159	26.11	0.45	-0.750			
0.7957	50923.21	3.3910	3.3910	-0.7892	26.12	0.46	-0.750			
0.7980	51073.39	3.3880	3.3880	-0.7620	26.12	0.46	-0.750			
0.8003	51217.76	3.3850	3.3849	-0.7321	26.13	0.47	-0.750			
0.8024	51354.27	3.3820	3.3820	-0.6968	26.13	0.47	-0.750			
0.8044	51484.74	3.3790	3.3790	-0.6641	26.13	0.47	-0.750			
0.8064	51609.21	3.3760	3.3760	-0.6318	26.14	0.48	-0.750			
0.8082	51726.53	3.3730	3.3731	-0.6012	26.14	0.48	-0.750			
0.8100	51839.09	3.3700	3.3700	-0.5742	26.15	0.49	-0.750			
0.8117	51946.25	3.3670	3.3670	-0.5461	26.15	0.49	-0.750			
0.8133	52048.47	3.3640	3.3640	-0.5209	26.16	0.50	-0.750			
0.8148	52145.50	3.3610	3.3610	-0.4966	26.17	0.51	-0.750			
0.8162	52238.67	3.3580	3.3580	-0.4734	26.17	0.51	-0.750			
0.8176	52326.91	3.3550	3.3549	-0.4512	26.18	0.52	-0.750			
0.8189	52410.34	3.3520	3.3520	-0.4313	26.18	0.52	-0.750			
0.8202	52490.74	3.3490	3.3490	-0.4132	26.19	0.53	-0.750			
0.8214	52568.48	3.3460	3.3458	-0.3975	26.19	0.53	-0.750			
0.8226	52643.29	3.3430	3.3430	-0.3804	26.20	0.54	-0.750			
0.8237	52714.54	3.3400	3.3400	-0.3665	26.20	0.54	-0.750			
0.8247	52783.47	3.3370	3.3370	-0.3521	26.21	0.55	-0.750			
0.8258	52849.40	3.3340	3.3341	-0.3385	26.21	0.55	-0.750			
0.8268	52912.73	3.3310	3.3310	-0.3266	26.21	0.55	-0.750			
0.8277	52973.88	3.3280	3.3281	-0.3155	26.22	0.56	-0.750			
0.8286	53033.58	3.3250	3.3249	-0.3064	26.22	0.56	-0.750			
0.8296	53091.77	3.3220	3.3220	-0.2972	26.23	0.57	-0.750			
0.8304	53147.42	3.3190	3.3190	-0.2877	26.23	0.57	-0.750			
0.8313	53201.90	3.3160	3.3160	-0.2802	26.23	0.57	-0.750			
0.8321	53254.78	3.3130	3.3130	-0.2716	26.24	0.58	-0.750			
0.8329	53305.79	3.3100	3.3099	-0.2642	26.24	0.58	-0.750			
0.8337	53355.59	3.3070	3.3070	-0.2578	26.24	0.58	-0.750			
0.8344	53404.40	3.3040	3.3040	-0.2514	26.25	0.59	-0.750			
0.8352	53452.11	3.3010	3.3010	-0.2455	26.25	0.59	-0.750			
0.8359	53498.35	3.2980	3.2980	-0.2396	26.26	0.60	-0.750			
0.8366	53543.89	3.2950	3.2951	-0.2353	26.26	0.60	-0.750			
0.8373	53588.36	3.2920	3.2920	-0.2301	26.27	0.61	-0.750			
0.8380	53632.12	3.2890	3.2889	-0.2256	26.27	0.61	-0.750			
0.8387	53674.84	3.2860	3.2860	-0.2211	26.28	0.62	-0.750			
0.8393	53716.67	3.2830	3.2831	-0.2172	26.28	0.62	-0.750			
0.8400	53758.29	3.2800	3.2800	-0.2135	26.28	0.62	-0.750			
0.8406	53798.88	3.2770	3.2769	-0.2093	26.29	0.63	-0.750			
0.8412	53838.60	3.2740	3.2739	-0.2053	26.29	0.63	-0.750			
0.8418	53877.37	3.2710	3.2710	-0.2017	26.30	0.64	-0.750			
0.8424	53915.60	3.2680	3.2680	-0.1987	26.30	0.64	-0.750			
0.8430	53953.48	3.2650	3.2650	-0.1959	26.30	0.64	-0.750			
0.8436	53990.66	3.2620	3.2620	-0.1933	26.31	0.65	-0.750			
0.8442	54027.43	3.2590	3.2590	-0.1902	26.31	0.65	-0.750			
0.8448	54064.17	3.2560	3.2560	-0.1880	26.31	0.65	-0.750			
0.8453	54099.93	3.2530	3.2530	-0.1846	26.32	0.66	-0.750			
0.8459	54135.03	3.2500	3.2500	-0.1824	26.32	0.66	-0.750			
0.8464	54169.68	3.2470	3.2469	-0.1793	26.33	0.67	-0.750			
0.8469	54203.43	3.2440	3.2440	-0.1770	26.33	0.67	-0.750			
0.8475	54237.26	3.2410	3.2410	-0.1753	26.33	0.67	-0.750			
0.8480	54270.57	3.2380	3.2381	-0.1736	26.34	0.68	-0.750			
0.8485	54303.74	3.2350	3.2350	-0.1725	26.34	0.68	-0.750			
0.8490	54337.10	3.2320	3.2319	-0.1710	26.34	0.68	-0.750			
0.8495	54369.74	3.2290	3.2291	-0.1690	26.35	0.69	-0.750			
0.8500	54402.09	3.2260	3.2259	-0.1662	26.35	0.69	-0.750			
0.8505	54433.92	3.2230	3.2231	-0.1647	26.35	0.69	-0.750			
0.8510	54465.08	3.2200	3.2200	-0.1619	26.35	0.69	-0.750			
0.8515	54495.95	3.2170	3.2170	-0.1597	26.36	0.70	-0.750			
0.8520	54526.26	3.2140	3.2139	-0.1581	26.36	0.70	-0.750			
0.8524	54556.26	3.2110	3.2111	-0.1559	26.36	0.70	-0.750			
0.8529	54586.09	3.2080	3.2080	-0.1551	26.37	0.71	-0.750			
0.8534	54615.75	3.2050	3.2050	-0.1539	26.37	0.71	-0.750			
0.8538	54645.30	3.2020	3.2020	-0.1523	26.37	0.71	-0.750			
0.8543	54674.17	3.1990	3.1990	-0.1507	26.38	0.72	-0.750			
0.8547	54703.18	3.1960	3.1960	-0.1496	26.38	0.72	-0.750			
0.8552	54731.76	3.1930	3.1930	-0.1480	26.38	0.72	-0.750			
0.8556	54759.94	3.1900	3.1900	-0.1467	26.38	0.72	-0.750			
0.8561	54788.09	3.1870	3.1870	-0.1455	26.39	0.73	-0.750			
0.8565	54815.72	3.1840	3.1840	-0.1438	26.39	0.73	-0.750			
0.8569	54843.20	3.1810	3.1810	-0.1427	26.39	0.73	-0.750			
0.8574	54870.55	3.1780	3.1780	-0.1420	26.40	0.74	-0.750			
0.8578	54897.67	3.1750	3.1750	-0.1405	26.40	0.74	-0.750			
0.8582	54924.65	3.1720	3.1720	-0.1396	26.40	0.74	-0.750			
0.8586	54951.29	3.1690	3.1690	-0.1386	26.41	0.75	-0.750			
0.8590	54977.76	3.1660	3.1661	-0.1372	26.41	0.75	-0.750			
0.8594	55004.09	3.1630	3.1629	-0.1363	26.41	0.75	-0.750			
0.8598	55030.13	3.1600	3.1600	-0.1350	26.42	0.76	-0.750			
0.8602	55055.89	3.1570	3.1570	-0.1335	26.42	0.76	-0.750			
0.8606	55081.32	3.1540	3.1540	-0.1324	26.43	0.77	-0.750			
0.8610	55106.72	3.1510	3.1510	-0.1314	26.43	0.77	-0.750			
0.8614	55131.82	3.1480	3.1479	-0.1301	26.43	0.77	-0.750			
0.8618	55156.53	3.1450	3.1450	-0.1291	26.44	0.78	-0.750			
0.8622	55181.15	3.1420	3.1420	-0.1285	26.44	0.78	-0.750			
0.8626	55205.75	3.1390	3.1390	-0.1276	26.44	0.78	-0.750			
0.8630	55230.20	3.1360	3.1360	-0.1270	26.45	0.79	-0.750			
0.8634	55254.66	3.1330	3.1330	-0.1261	26.45	0.79	-0.750			
0.8637	55278.79	3.1300	3.1300	-0.1251	26.46	0.80	-0.750			
0.8641	55302.91	3.1270	3.1271	-0.1243	26.46	0.80	-0.750			
0.8645	55326.63	3.1240	3.1240	-0.1228	26.46	0.80	-0.750			
0.8648	55349.93	3.1210	3.1210	-0.1218	26.47	0.81	-0.750			
0.8652	55373.05	3.1180	3.1180	-0.1205	26.47	0.81	-0.750			
0.8656	55396.09	3.1150	3.1150	-0.1197	26.47	0.81	-0.750			
0.8659	55418.93	3.1120	3.1120	-0.1188	26.48	0.82	-0.750			
0.8663	55441.67	3.1090	3.1089	-0.1182	26.48	0.82	-0.750			
0.8666	55464.27	3.1060	3.1061	-0.1176	26.49	0.83	-0.750			
0.8670	55486.87	3.1030	3.1030	-0.1166	26.49	0.83	-0.750			
0.8673	55509.30	3.1000	3.1000	-0.1158	26.49	0.83	-0.750			
0.8677	55531.43	3.0970	3.0970	-0.1147	26.50	0.84	-0.750			
0.8680	55553.38	3.0940	3.0940	-0.1137	26.50	0.84	-0.750			
0.8684	55575.07	3.0910	3.0910	-0.1129	26.50	0.84	-0.750			
0.8687	55596.65	3.0880	3.0880	-0.1119	26.50	0.84	-0.750			
0.8690	55617.99	3.0850	3.0850	-0.1114	26.51	0.85	-0.750			
0.8694	55639.11	3.0820	3.0820	-0.1106	26.51	0.85	-0.750			
0.8697	55660.31	3.0790	3.0790	-0.1101	26.51	0.85	-0.750			
0.8700	55681.40	3.0760	3.0760	-0.1096	26.52	0.86	-0.750			
0.8704	55702.46	3.0730	3.0730	-0.1090	26.52	0.86	-0.750			
0.8707	55723.33	3.0700	3.0700	-0.1084	26.52	0.86	-0.750			
0.8710	55744.29	3.0670	3.0670	-0.1075	26.52	0.86	-0.750			
0.8713	55764.82	3.0640	3.0640	-0.1063	26.53	0.87	-0.750			
0.8716	55785.04	3.0610	3.0610	-0.1057	26.53	0.87	-0.750			
0.8720	55805.24	3.0580	3.0581	-0.1048	26.53	0.87	-0.750			
0.8723	55825.27	3.0550	3.0550	-0.1040	26.53	0.87	-0.750			
0.8726	55845.06	3.0520	3.0519	-0.1031	26.54	0.88	-0.750			
0.8729	55864.78	3.0490	3.0490	-0.1024	26.54	0.88	-0.750			
0.8732	55884.31	3.0460	3.0461	-0.1017	26.54	0.88	-0.750			
0.8735	55903.78	3.0430	3.0429	-0.1013	26.54	0.88	-0.750			
0.8738	55923.27	3.0400	3.0400	-0.1008	26.55	0.89	-0.750			
0.8741	55942.56	3.0370	3.0371	-0.1001	26.55	0.89	-0.750			
0.8744	55961.61	3.0340	3.0339	-0.0994	26.55	0.89	-0.750			
0.8747	55980.67	3.0310	3.0311	-0.0987	26.55	0.89	-0.750			
0.8750	55999.64	3.0280	3.0280	-0.0981	26.56	0.90	-0.750			
0.8753	56018.42	3.0250	3.0249	-0.0974	26.56	0.90	-0.750			
0.8756	56037.09	3.0220	3.0221	-0.0966	26.56	0.90	-0.750			
0.8759	56055.46	3.0190	3.0189	-0.0963	26.56	0.90	-0.750			
0.8762	56073.76	3.0160	3.0161	-0.0957	26.56	0.90	-0.750			
0.8764	56092.18	3.0130	3.0130	-0.0949	26.57	0.91	-0.750			
0.8767	56110.38	3.0100	3.0100	-0.0943	26.57	0.91	-0.750			
0.8770	56128.43	3.0070	3.0071	-0.0937	26.57	0.91	-0.750			
0.8773	56146.41	3.0040	3.0040	-0.0928	26.57	0.91	-0.750			
0.8776	56164.13	3.0010	3.0010	-0.0919	26.58	0.92	-0.749			
