Ah_balance (normalized)	Ah_balance (mAh)	Voltage - fit (V)	Voltage -  interpolate (V)	dQ/dV (1/V)	Temperature (°C)	Temperature - diff (°C)	Current (C)	R_DC 0ms (mOhm)	R_DC 50ms (mOhm)	R_DC 50 ms PEC (mOhm)
0.1971	12612.78	3.9360	3.9358	-0.1278	25.54	0.00	-0.750			
0.1975	12641.86	3.9330	3.9330	-0.1765	25.54	0.00	-0.750			
0.1981	12681.22	3.9300	3.9298	-0.2243	25.54	-0.00	-0.750			
0.1989	12728.88	3.9270	3.9271	-0.2700	25.54	-0.00	-0.750			
0.1998	12785.10	3.9240	3.9241	-0.3157	25.54	-0.00	-0.750			
0.2008	12850.86	3.9210	3.9210	-0.3585	25.54	-0.00	-0.750			
0.2019	12924.29	3.9180	3.9180	-0.4012	25.54	-0.00	-0.750			
0.2032	13006.23	3.9150	3.9150	-0.4389	25.54	-0.00	-0.750			
0.2046	13094.30	3.9120	3.9120	-0.4752	25.53	-0.01	-0.750			
0.2061	13190.67	3.9090	3.9090	-0.5094	25.53	-0.01	-0.750			
0.2077	13291.78	3.9060	3.9060	-0.5384	25.53	-0.01	-0.750			
0.2094	13399.50	3.9030	3.9029	-0.5629	25.53	-0.01	-0.750			
0.2111	13510.59	3.9000	3.9001	-0.5852	25.53	-0.01	-0.750			
0.2129	13625.83	3.8970	3.8970	-0.6023	25.53	-0.01	-0.750			
0.2147	13743.75	3.8940	3.8940	-0.6182	25.53	-0.01	-0.750			
0.2166	13864.03	3.8910	3.8910	-0.6314	25.53	-0.01	-0.750			
0.2185	13986.57	3.8880	3.8880	-0.6441	25.53	-0.01	-0.750			
0.2205	14112.36	3.8850	3.8850	-0.6529	25.53	-0.01	-0.750			
0.2225	14239.25	3.8820	3.8821	-0.6604	25.53	-0.01	-0.750			
0.2245	14367.22	3.8790	3.8790	-0.6668	25.53	-0.01	-0.750			
0.2265	14496.13	3.8760	3.8759	-0.6723	25.53	-0.01	-0.750			
0.2285	14625.24	3.8730	3.8730	-0.6761	25.53	-0.01	-0.750			
0.2306	14755.26	3.8700	3.8700	-0.6803	25.52	-0.02	-0.750			
0.2326	14886.72	3.8670	3.8670	-0.6839	25.52	-0.02	-0.750			
0.2347	15019.14	3.8640	3.8640	-0.6870	25.52	-0.02	-0.750			
0.2367	15150.95	3.8610	3.8610	-0.6899	25.52	-0.02	-0.750			
0.2388	15283.30	3.8580	3.8580	-0.6922	25.52	-0.02	-0.750			
0.2409	15416.93	3.8550	3.8550	-0.6927	25.52	-0.02	-0.750			
0.2430	15550.24	3.8520	3.8520	-0.6931	25.53	-0.01	-0.750			
0.2451	15683.87	3.8490	3.8490	-0.6956	25.53	-0.01	-0.750			
0.2472	15817.82	3.8460	3.8460	-0.6958	25.53	-0.01	-0.750			
0.2492	15951.29	3.8430	3.8429	-0.6953	25.53	-0.01	-0.750			
0.2513	16084.11	3.8400	3.8400	-0.6944	25.53	-0.01	-0.750			
0.2534	16217.47	3.8370	3.8370	-0.6971	25.53	-0.01	-0.750			
0.2555	16352.42	3.8340	3.8340	-0.6969	25.54	-0.00	-0.750			
0.2576	16486.11	3.8310	3.8309	-0.6969	25.54	-0.00	-0.750			
0.2597	16619.23	3.8280	3.8281	-0.6969	25.54	-0.00	-0.750			
0.2618	16753.78	3.8250	3.8249	-0.6976	25.54	0.00	-0.750			
0.2639	16887.77	3.8220	3.8219	-0.6959	25.54	0.00	-0.750			
0.2660	17020.92	3.8190	3.8190	-0.6945	25.54	0.00	-0.750			
0.2680	17153.88	3.8160	3.8160	-0.6946	25.55	0.01	-0.750			
0.2701	17289.01	3.8130	3.8130	-0.6973	25.55	0.01	-0.750			
0.2722	17421.91	3.8100	3.8100	-0.6962	25.55	0.01	-0.750			
0.2743	17555.06	3.8070	3.8069	-0.6959	25.55	0.01	-0.750			
0.2764	17689.22	3.8040	3.8040	-0.6974	25.55	0.01	-0.750			
0.2785	17823.76	3.8010	3.8010	-0.6966	25.55	0.01	-0.750			
0.2806	17956.95	3.7980	3.7980	-0.6953	25.56	0.02	-0.750			
0.2827	18090.29	3.7950	3.7950	-0.6973	25.56	0.02	-0.750			
0.2848	18224.36	3.7920	3.7920	-0.6975	25.56	0.02	-0.750			
0.2868	18357.28	3.7890	3.7889	-0.6985	25.56	0.02	-0.750			
0.2889	18492.26	3.7860	3.7860	-0.6999	25.57	0.03	-0.750			
0.2911	18627.26	3.7830	3.7831	-0.7019	25.57	0.03	-0.750			
0.2932	18762.37	3.7800	3.7800	-0.7033	25.57	0.03	-0.750			
0.2953	18897.81	3.7770	3.7771	-0.7037	25.58	0.04	-0.750			
0.2974	19032.09	3.7740	3.7740	-0.7068	25.58	0.04	-0.750			
0.2995	19168.89	3.7710	3.7710	-0.7076	25.58	0.04	-0.750			
0.3016	19304.00	3.7680	3.7681	-0.7098	25.58	0.04	-0.750			
0.3038	19441.29	3.7650	3.7649	-0.7168	25.58	0.04	-0.750			
0.3059	19578.19	3.7620	3.7621	-0.7214	25.59	0.05	-0.750			
0.3081	19717.25	3.7590	3.7589	-0.7258	25.59	0.05	-0.750			
0.3103	19856.53	3.7560	3.7562	-0.7321	25.59	0.05	-0.750			
0.3125	19997.35	3.7530	3.7529	-0.7373	25.59	0.05	-0.750			
0.3147	20140.52	3.7500	3.7501	-0.7465	25.59	0.05	-0.750			
0.3169	20283.87	3.7470	3.7469	-0.7493	25.58	0.04	-0.750			
0.3192	20429.88	3.7440	3.7441	-0.7589	25.58	0.04	-0.750			
0.3215	20575.06	3.7410	3.7410	-0.7625	25.58	0.04	-0.750			
0.3238	20722.17	3.7380	3.7379	-0.7692	25.58	0.04	-0.750			
0.3261	20868.98	3.7350	3.7351	-0.7787	25.59	0.05	-0.750			
0.3284	21018.42	3.7320	3.7320	-0.7868	25.59	0.05	-0.750			
0.3308	21171.98	3.7290	3.7290	-0.7935	25.59	0.05	-0.750			
0.3332	21326.10	3.7260	3.7260	-0.7981	25.60	0.06	-0.750			
0.3356	21479.66	3.7230	3.7231	-0.8061	25.60	0.06	-0.750			
0.3380	21635.04	3.7200	3.7200	-0.8094	25.60	0.06	-0.750			
0.3405	21788.94	3.7170	3.7169	-0.8194	25.60	0.06	-0.750			
0.3429	21946.52	3.7140	3.7140	-0.8273	25.60	0.06	-0.750			
0.3454	22105.71	3.7110	3.7110	-0.8425	25.60	0.06	-0.750			
0.3480	22269.52	3.7080	3.7081	-0.8549	25.60	0.06	-0.750			
0.3505	22434.83	3.7050	3.7050	-0.8703	25.60	0.06	-0.750			
0.3532	22602.20	3.7020	3.7020	-0.8848	25.60	0.06	-0.750			
0.3559	22774.49	3.6990	3.6990	-0.8998	25.60	0.06	-0.750			
0.3586	22948.07	3.6960	3.6960	-0.9153	25.60	0.06	-0.750			
0.3613	23126.21	3.6930	3.6930	-0.9321	25.60	0.06	-0.750			
0.3642	23306.05	3.6900	3.6900	-0.9502	25.60	0.06	-0.750			
0.3670	23490.41	3.6870	3.6870	-0.9724	25.59	0.05	-0.750			
0.3700	23678.22	3.6840	3.6840	-0.9882	25.59	0.05	-0.750			
0.3730	23869.93	3.6810	3.6812	-1.0117	25.59	0.05	-0.750			
0.3761	24067.64	3.6780	3.6780	-1.0320	25.58	0.04	-0.750			
0.3792	24266.60	3.6750	3.6750	-1.0525	25.58	0.04	-0.750			
0.3823	24470.25	3.6720	3.6720	-1.0735	25.57	0.03	-0.750			
0.3856	24678.08	3.6690	3.6691	-1.1012	25.57	0.03	-0.750			
0.3889	24891.71	3.6660	3.6660	-1.1207	25.57	0.03	-0.750			
0.3923	25109.87	3.6630	3.6630	-1.1450	25.56	0.02	-0.750			
0.3958	25330.06	3.6600	3.6600	-1.1695	25.56	0.02	-0.750			
0.3993	25558.21	3.6570	3.6570	-1.1962	25.56	0.02	-0.750			
0.4029	25788.26	3.6540	3.6540	-1.2226	25.55	0.01	-0.750			
0.4066	26025.13	3.6510	3.6509	-1.2502	25.55	0.01	-0.750			
0.4104	26267.97	3.6480	3.6482	-1.2806	25.54	0.00	-0.750			
0.4144	26519.59	3.6450	3.6450	-1.3113	25.54	0.00	-0.750			
0.4184	26775.29	3.6420	3.6420	-1.3370	25.54	0.00	-0.750			
0.4224	27033.87	3.6390	3.6392	-1.3665	25.54	0.00	-0.750			
0.4265	27297.89	3.6360	3.6359	-1.3949	25.53	-0.01	-0.750			
0.4307	27565.87	3.6330	3.6329	-1.4277	25.53	-0.01	-0.750			
0.4350	27842.82	3.6300	3.6301	-1.4593	25.52	-0.02	-0.750			
0.4395	28127.42	3.6270	3.6270	-1.4894	25.52	-0.02	-0.750			
0.4441	28419.23	3.6240	3.6239	-1.5297	25.51	-0.03	-0.750			
0.4487	28716.44	3.6210	3.6210	-1.5538	25.51	-0.03	-0.750			
0.4534	29018.13	3.6180	3.6180	-1.5773	25.50	-0.04	-0.750			
0.4582	29323.64	3.6150	3.6150	-1.6093	25.48	-0.06	-0.750			
0.4630	29633.31	3.6120	3.6119	-1.6323	25.48	-0.06	-0.750			
0.4680	29950.16	3.6090	3.6091	-1.6751	25.47	-0.07	-0.750			
0.4730	30272.66	3.6060	3.6060	-1.7108	25.47	-0.07	-0.750			
0.4782	30606.75	3.6030	3.6030	-1.7391	25.47	-0.07	-0.750			
0.4835	30943.52	3.6000	3.6000	-1.7727	25.47	-0.07	-0.750			
0.4888	31285.88	3.5970	3.5971	-1.8017	25.47	-0.07	-0.750			
0.4943	31634.94	3.5940	3.5938	-1.8291	25.46	-0.08	-0.750			
0.4999	31992.01	3.5910	3.5910	-1.8576	25.46	-0.08	-0.750			
0.5054	32347.77	3.5880	3.5880	-1.8953	25.45	-0.09	-0.750			
0.5112	32716.39	3.5850	3.5850	-1.9274	25.45	-0.09	-0.750			
0.5170	33090.85	3.5820	3.5820	-1.9561	25.44	-0.10	-0.750			
0.5230	33470.18	3.5790	3.5792	-1.9836	25.44	-0.10	-0.750			
0.5290	33854.13	3.5760	3.5760	-2.0067	25.44	-0.10	-0.750			
0.5350	34240.77	3.5730	3.5730	-2.0353	25.44	-0.10	-0.750	0.372	0.555	
0.5411	34631.98	3.5700	3.5700	-2.0500	25.44	-0.10	-0.750			
0.5474	35033.76	3.5670	3.5670	-2.0657	25.43	-0.11	-0.750			
0.5536	35433.54	3.5640	3.5640	-2.0849	25.43	-0.11	-0.750			
0.5599	35834.58	3.5610	3.5610	-2.0964	25.42	-0.12	-0.750			
0.5662	36237.31	3.5580	3.5578	-2.0946	25.42	-0.12	-0.750			
0.5725	36638.82	3.5550	3.5550	-2.1028	25.42	-0.12	-0.750			
0.5788	37044.75	3.5520	3.5521	-2.1026	25.42	-0.12	-0.750			
0.5852	37451.78	3.5490	3.5489	-2.0973	25.43	-0.11	-0.750			
0.5914	37851.13	3.5460	3.5460	-2.0830	25.43	-0.11	-0.750			
0.5976	38246.66	3.5430	3.5431	-2.0641	25.44	-0.10	-0.750			
0.6038	38644.70	3.5400	3.5400	-2.0594	25.44	-0.10	-0.750			
0.6100	39041.21	3.5370	3.5370	-2.0349	25.44	-0.10	-0.750			
0.6161	39430.25	3.5340	3.5340	-2.0064	25.45	-0.09	-0.750			
0.6221	39812.53	3.5310	3.5310	-1.9706	25.46	-0.08	-0.750			
0.6279	40188.64	3.5280	3.5279	-1.9346	25.46	-0.08	-0.750			
0.6337	40554.60	3.5250	3.5250	-1.8955	25.46	-0.08	-0.750			
0.6393	40914.12	3.5220	3.5221	-1.8645	25.47	-0.07	-0.750			
0.6449	41270.68	3.5190	3.5189	-1.8288	25.48	-0.06	-0.750			
0.6503	41619.25	3.5160	3.5160	-1.7840	25.49	-0.05	-0.750			
0.6556	41957.52	3.5130	3.5131	-1.7350	25.50	-0.04	-0.750			
0.6608	42289.86	3.5100	3.5100	-1.6916	25.51	-0.03	-0.750			
0.6658	42610.56	3.5070	3.5068	-1.6367	25.52	-0.02	-0.750			
0.6706	42918.10	3.5040	3.5040	-1.5905	25.53	-0.01	-0.750			
0.6753	43219.82	3.5010	3.5009	-1.5433	25.54	-0.00	-0.750			
0.6799	43511.36	3.4980	3.4979	-1.4953	25.55	0.01	-0.750			
0.6843	43795.35	3.4950	3.4951	-1.4537	25.56	0.02	-0.750			
0.6885	44066.95	3.4920	3.4919	-1.4083	25.57	0.03	-0.750			
0.6927	44335.32	3.4890	3.4889	-1.3700	25.57	0.03	-0.750			
0.6967	44590.16	3.4860	3.4860	-1.3366	25.58	0.04	-0.750			
0.7007	44843.87	3.4830	3.4830	-1.2968	25.59	0.05	-0.750			
0.7046	45091.75	3.4800	3.4800	-1.2642	25.60	0.06	-0.750			
0.7083	45330.31	3.4770	3.4770	-1.2286	25.61	0.07	-0.750			
0.7119	45562.35	3.4740	3.4739	-1.1980	25.63	0.09	-0.750			
0.7154	45788.01	3.4710	3.4710	-1.1657	25.64	0.10	-0.750			
0.7189	46008.58	3.4680	3.4680	-1.1430	25.65	0.11	-0.750			
0.7222	46221.71	3.4650	3.4651	-1.1182	25.66	0.12	-0.750			
0.7256	46437.57	3.4620	3.4619	-1.1124	25.67	0.13	-0.750			
0.7289	46647.75	3.4590	3.4590	-1.0975	25.68	0.14	-0.750			
0.7321	46856.68	3.4560	3.4560	-1.0901	25.69	0.15	-0.750			
0.7354	47062.98	3.4530	3.4531	-1.0870	25.70	0.16	-0.750			
0.7386	47273.21	3.4500	3.4500	-1.0840	25.71	0.17	-0.750			
0.7419	47481.63	3.4470	3.4469	-1.0741	25.72	0.18	-0.750			
0.7451	47687.14	3.4440	3.4439	-1.0665	25.73	0.19	-0.750			
0.7483	47890.19	3.4410	3.4412	-1.0669	25.74	0.20	-0.750			
0.7515	48094.41	3.4380	3.4379	-1.0638	25.75	0.21	-0.750			
0.7547	48298.40	3.4350	3.4349	-1.0525	25.76	0.22	-0.750			
0.7578	48500.73	3.4320	3.4319	-1.0427	25.76	0.22	-0.750			
0.7610	48701.89	3.4290	3.4292	-1.0364	25.77	0.23	-0.750			
0.7641	48900.58	3.4260	3.4259	-1.0236	25.78	0.24	-0.750			
0.7671	49095.40	3.4230	3.4229	-1.0078	25.79	0.25	-0.750			
0.7701	49286.28	3.4200	3.4200	-0.9937	25.79	0.25	-0.750			
0.7731	49475.62	3.4170	3.4171	-0.9804	25.80	0.26	-0.750			
0.7760	49664.00	3.4140	3.4140	-0.9646	25.81	0.27	-0.750			
0.7789	49849.37	3.4110	3.4109	-0.9437	25.81	0.27	-0.750			
0.7817	50027.58	3.4080	3.4080	-0.9217	25.81	0.27	-0.750			
0.7844	50203.04	3.4050	3.4050	-0.9016	25.82	0.28	-0.750			
0.7871	50373.60	3.4020	3.4020	-0.8770	25.83	0.29	-0.750			
0.7897	50539.13	3.3990	3.3989	-0.8536	25.83	0.29	-0.750			
0.7922	50702.28	3.3960	3.3960	-0.8296	25.84	0.30	-0.750			
0.7947	50861.21	3.3930	3.3930	-0.8030	25.85	0.31	-0.750			
0.7971	51013.89	3.3900	3.3900	-0.7755	25.86	0.32	-0.750			
0.7994	51159.00	3.3870	3.3870	-0.7403	25.86	0.32	-0.750			
0.8015	51297.08	3.3840	3.3840	-0.7091	25.87	0.33	-0.750			
0.8036	51429.35	3.3810	3.3809	-0.6810	25.87	0.33	-0.750			
0.8056	51556.50	3.3780	3.3781	-0.6506	25.87	0.33	-0.750			
0.8075	51680.24	3.3750	3.3749	-0.6258	25.88	0.34	-0.750			
0.8093	51797.40	3.3720	3.3721	-0.5973	25.88	0.34	-0.750			
0.8111	51909.73	3.3690	3.3690	-0.5704	25.88	0.34	-0.750			
0.8128	52016.52	3.3660	3.3660	-0.5435	25.89	0.35	-0.750			
0.8143	52117.47	3.3630	3.3630	-0.5154	25.90	0.36	-0.750			
0.8158	52214.07	3.3600	3.3600	-0.4897	25.90	0.36	-0.750			
0.8173	52305.54	3.3570	3.3569	-0.4684	25.91	0.37	-0.750			
0.8186	52392.90	3.3540	3.3540	-0.4463	25.91	0.37	-0.750			
0.8199	52476.24	3.3510	3.3509	-0.4262	25.92	0.38	-0.750			
0.8212	52555.59	3.3480	3.3480	-0.4086	25.92	0.38	-0.750			
0.8224	52632.37	3.3450	3.3449	-0.3924	25.93	0.39	-0.750			
0.8235	52705.77	3.3420	3.3419	-0.3769	25.93	0.39	-0.750			
0.8246	52776.67	3.3390	3.3391	-0.3636	25.94	0.40	-0.750			
0.8257	52844.65	3.3360	3.3359	-0.3468	25.94	0.40	-0.750			
0.8267	52910.03	3.3330	3.3330	-0.3349	25.95	0.41	-0.750			
0.8277	52972.91	3.3300	3.3300	-0.3217	25.95	0.41	-0.750			
0.8286	53032.84	3.3270	3.3270	-0.3102	25.95	0.41	-0.750			
0.8295	53091.12	3.3240	3.3239	-0.3000	25.96	0.42	-0.750			
0.8304	53147.45	3.3210	3.3211	-0.2913	25.96	0.42	-0.750			
0.8313	53202.23	3.3180	3.3179	-0.2829	25.96	0.42	-0.750			
0.8321	53256.40	3.3150	3.3150	-0.2766	25.97	0.43	-0.750			
0.8329	53308.32	3.3120	3.3120	-0.2682	25.97	0.43	-0.750			
0.8337	53359.29	3.3090	3.3090	-0.2624	25.97	0.43	-0.750			
0.8345	53409.24	3.3060	3.3060	-0.2561	25.98	0.44	-0.750			
0.8353	53457.32	3.3030	3.3029	-0.2486	25.98	0.44	-0.750			
0.8360	53504.09	3.3000	3.3000	-0.2427	25.99	0.45	-0.750			
0.8367	53550.29	3.2970	3.2971	-0.2371	25.99	0.45	-0.750			
0.8374	53595.19	3.2940	3.2940	-0.2321	25.99	0.45	-0.750			
0.8381	53639.21	3.2910	3.2910	-0.2268	26.00	0.46	-0.750			
0.8388	53682.08	3.2880	3.2880	-0.2220	26.00	0.46	-0.750			
0.8394	53723.97	3.2850	3.2850	-0.2173	26.01	0.47	-0.750			
0.8401	53765.27	3.2820	3.2820	-0.2136	26.01	0.47	-0.750			
0.8407	53805.92	3.2790	3.2789	-0.2098	26.02	0.48	-0.750			
0.8413	53845.58	3.2760	3.2760	-0.2059	26.02	0.48	-0.750			
0.8420	53884.94	3.2730	3.2729	-0.2029	26.02	0.48	-0.750			
0.8426	53923.32	3.2700	3.2701	-0.1994	26.03	0.49	-0.750			
0.8431	53961.31	3.2670	3.2670	-0.1964	26.03	0.49	-0.750			
0.8437	53998.78	3.2640	3.2640	-0.1931	26.03	0.49	-0.750			
0.8443	54035.45	3.2610	3.2609	-0.1903	26.04	0.50	-0.750			
0.8449	54071.58	3.2580	3.2580	-0.1875	26.04	0.50	-0.750			
0.8454	54107.35	3.2550	3.2550	-0.1851	26.05	0.51	-0.750			
0.8460	54142.58	3.2520	3.2520	-0.1828	26.05	0.51	-0.750			
0.8465	54177.51	3.2490	3.2490	-0.1802	26.05	0.51	-0.750			
0.8471	54211.82	3.2460	3.2460	-0.1777	26.06	0.52	-0.750			
0.8476	54245.71	3.2430	3.2431	-0.1753	26.06	0.52	-0.750			
0.8481	54279.25	3.2400	3.2400	-0.1733	26.06	0.52	-0.750			
0.8486	54312.05	3.2370	3.2370	-0.1710	26.07	0.53	-0.750			
0.8491	54344.71	3.2340	3.2340	-0.1692	26.07	0.53	-0.750			
0.8496	54376.94	3.2310	3.2310	-0.1668	26.07	0.53	-0.750			
0.8501	54408.62	3.2280	3.2280	-0.1653	26.08	0.54	-0.750			
0.8506	54440.39	3.2250	3.2250	-0.1639	26.08	0.54	-0.750			
0.8511	54471.68	3.2220	3.2221	-0.1621	26.08	0.54	-0.750			
0.8516	54502.60	3.2190	3.2190	-0.1605	26.09	0.55	-0.750			
0.8521	54533.28	3.2160	3.2160	-0.1587	26.09	0.55	-0.750			
0.8526	54563.56	3.2130	3.2131	-0.1569	26.10	0.56	-0.750			
0.8530	54593.52	3.2100	3.2099	-0.1552	26.10	0.56	-0.750			
0.8535	54623.22	3.2070	3.2070	-0.1541	26.10	0.56	-0.750			
0.8539	54652.47	3.2040	3.2040	-0.1522	26.11	0.57	-0.750			
0.8544	54681.68	3.2010	3.2009	-0.1510	26.11	0.57	-0.750			
0.8549	54710.53	3.1980	3.1980	-0.1495	26.11	0.57	-0.750			
0.8553	54739.11	3.1950	3.1950	-0.1476	26.11	0.57	-0.750			
0.8557	54767.33	3.1920	3.1920	-0.1465	26.12	0.58	-0.750			
0.8562	54795.26	3.1890	3.1891	-0.1447	26.12	0.58	-0.750			
0.8566	54822.90	3.1860	3.1859	-0.1431	26.12	0.58	-0.750			
0.8570	54850.00	3.1830	3.1829	-0.1420	26.13	0.59	-0.750			
0.8575	54877.28	3.1800	3.1801	-0.1407	26.13	0.59	-0.750			
0.8579	54904.09	3.1770	3.1770	-0.1397	26.13	0.59	-0.750			
0.8583	54930.82	3.1740	3.1740	-0.1387	26.14	0.60	-0.750			
0.8587	54957.33	3.1710	3.1711	-0.1382	26.14	0.60	-0.750			
0.8591	54983.80	3.1680	3.1679	-0.1368	26.14	0.60	-0.750			
0.8595	55010.09	3.1650	3.1650	-0.1361	26.15	0.61	-0.750			
0.8599	55036.11	3.1620	3.1620	-0.1349	26.15	0.61	-0.750			
0.8603	55061.84	3.1590	3.1591	-0.1338	26.15	0.61	-0.750			
0.8607	55087.59	3.1560	3.1559	-0.1330	26.16	0.62	-0.750			
0.8611	55112.84	3.1530	3.1530	-0.1316	26.16	0.62	-0.750			
0.8615	55138.02	3.1500	3.1500	-0.1307	26.16	0.62	-0.750			
0.8619	55162.98	3.1470	3.1470	-0.1295	26.17	0.63	-0.750			
0.8623	55187.93	3.1440	3.1440	-0.1288	26.17	0.63	-0.750			
0.8627	55212.47	3.1410	3.1410	-0.1276	26.17	0.63	-0.750			
0.8631	55236.89	3.1380	3.1380	-0.1264	26.18	0.64	-0.750			
0.8635	55261.06	3.1350	3.1350	-0.1253	26.18	0.64	-0.750			
0.8638	55284.99	3.1320	3.1320	-0.1242	26.19	0.65	-0.750			
0.8642	55308.73	3.1290	3.1290	-0.1231	26.19	0.65	-0.750			
0.8646	55332.19	3.1260	3.1260	-0.1220	26.19	0.65	-0.750			
0.8649	55355.53	3.1230	3.1230	-0.1210	26.20	0.66	-0.750			
0.8653	55378.58	3.1200	3.1201	-0.1201	26.20	0.66	-0.750			
0.8656	55401.47	3.1170	3.1170	-0.1191	26.20	0.66	-0.750			
0.8660	55424.22	3.1140	3.1141	-0.1185	26.21	0.67	-0.750			
0.8664	55446.88	3.1110	3.1109	-0.1179	26.21	0.67	-0.750			
0.8667	55469.60	3.1080	3.1081	-0.1169	26.21	0.67	-0.750			
0.8671	55492.03	3.1050	3.1050	-0.1162	26.22	0.68	-0.750			
0.8674	55514.15	3.1020	3.1020	-0.1155	26.22	0.68	-0.750			
0.8678	55536.31	3.0990	3.0990	-0.1149	26.22	0.68	-0.750			
0.8681	55558.27	3.0960	3.0961	-0.1141	26.23	0.69	-0.750			
0.8684	55580.05	3.0930	3.0929	-0.1132	26.23	0.69	-0.750			
0.8688	55601.81	3.0900	3.0900	-0.1123	26.23	0.69	-0.750			
0.8691	55623.27	3.0870	3.0870	-0.1114	26.24	0.70	-0.750			
0.8694	55644.59	3.0840	3.0841	-0.1106	26.24	0.70	-0.750			
0.8698	55665.91	3.0810	3.0810	-0.1101	26.24	0.70	-0.750			
0.8701	55686.94	3.0780	3.0780	-0.1090	26.25	0.71	-0.750			
0.8704	55707.60	3.0750	3.0750	-0.1079	26.25	0.71	-0.750			
0.8708	55728.24	3.0720	3.0719	-0.1071	26.25	0.71	-0.750			
0.8711	55748.65	3.0690	3.0691	-0.1065	26.25	0.71	-0.750			
0.8714	55769.05	3.0660	3.0660	-0.1060	26.26	0.72	-0.750			
0.8717	55789.37	3.0630	3.0630	-0.1055	26.26	0.72	-0.750			
0.8720	55809.57	3.0600	3.0599	-0.1049	26.26	0.72	-0.750			
0.8723	55829.58	3.0570	3.0570	-0.1044	26.27	0.73	-0.750			
0.8726	55849.59	3.0540	3.0541	-0.1040	26.27	0.73	-0.750			
0.8730	55869.62	3.0510	3.0509	-0.1034	26.27	0.73	-0.750			
0.8733	55889.39	3.0480	3.0481	-0.1027	26.28	0.74	-0.750			
0.8736	55909.10	3.0450	3.0450	-0.1018	26.28	0.74	-0.750			
0.8739	55928.56	3.0420	3.0421	-0.1009	26.28	0.74	-0.750			
0.8742	55947.94	3.0390	3.0390	-0.1000	26.28	0.74	-0.750			
0.8745	55967.04	3.0360	3.0360	-0.0989	26.29	0.75	-0.750			
0.8748	55985.73	3.0330	3.0330	-0.0983	26.29	0.75	-0.750			
0.8751	56004.56	3.0300	3.0300	-0.0978	26.29	0.75	-0.750			
0.8754	56023.19	3.0270	3.0270	-0.0972	26.30	0.76	-0.750			
0.8757	56041.82	3.0240	3.0240	-0.0969	26.30	0.76	-0.750			
0.8759	56060.40	3.0210	3.0210	-0.0964	26.30	0.76	-0.750			
0.8762	56078.86	3.0180	3.0181	-0.0960	26.30	0.76	-0.750			
0.8765	56097.42	3.0150	3.0149	-0.0954	26.31	0.77	-0.750			
0.8768	56115.66	3.0120	3.0121	-0.0946	26.31	0.77	-0.750			
0.8771	56133.73	3.0090	3.0090	-0.0937	26.31	0.77	-0.750			
0.8774	56151.65	3.0060	3.0060	-0.0929	26.32	0.78	-0.750			
0.8776	56169.39	3.0030	3.0030	-0.0914	26.32	0.78	-0.750			
