Ah_balance (normalized)	Ah_balance (mAh)	Voltage - fit (V)	Voltage -  interpolate (V)	dQ/dV (1/V)	Temperature (°C)	Temperature - diff (°C)	Current (C)	R_DC 0ms (mOhm)	R_DC 50ms (mOhm)	R_DC 50 ms PEC (mOhm)
0.2415	15455.16	3.9730	3.9730	0.9165	26.10	0.12	0.750			
0.2441	15625.03	3.9700	3.9701	0.8788	26.10	0.12	0.750			
0.2468	15792.02	3.9670	3.9671	0.8727	26.11	0.13	0.750			
0.2494	15959.12	3.9640	3.9640	0.8716	26.11	0.13	0.750			
0.2520	16125.41	3.9610	3.9609	0.8698	26.11	0.13	0.750			
0.2546	16291.50	3.9580	3.9581	0.8717	26.11	0.13	0.750			
0.2572	16459.15	3.9550	3.9550	0.8785	26.12	0.14	0.750			
0.2598	16629.93	3.9520	3.9519	0.8823	26.12	0.14	0.750			
0.2625	16798.03	3.9490	3.9489	0.8854	26.12	0.14	0.750			
0.2651	16968.71	3.9460	3.9460	0.8869	26.12	0.14	0.750			
0.2678	17139.67	3.9430	3.9430	0.8914	26.12	0.14	0.750			
0.2705	17311.22	3.9400	3.9399	0.8953	26.12	0.14	0.750			
0.2732	17483.07	3.9370	3.9371	0.8979	26.12	0.14	0.750			
0.2759	17656.04	3.9340	3.9339	0.8986	26.12	0.14	0.750			
0.2786	17830.97	3.9310	3.9310	0.8970	26.12	0.14	0.750			
0.2813	18001.13	3.9280	3.9280	0.8981	26.12	0.14	0.750			
0.2840	18174.39	3.9250	3.9251	0.9020	26.12	0.14	0.750			
0.2867	18347.11	3.9220	3.9220	0.9024	26.12	0.14	0.750			
0.2894	18520.61	3.9190	3.9190	0.9042	26.12	0.14	0.750			
0.2921	18694.27	3.9160	3.9161	0.9073	26.12	0.14	0.750			
0.2948	18869.37	3.9130	3.9131	0.9114	26.12	0.14	0.750			
0.2976	19045.49	3.9100	3.9099	0.9181	26.12	0.14	0.750			
0.3003	19220.02	3.9070	3.9069	0.9178	26.12	0.14	0.750			
0.3031	19398.31	3.9040	3.9040	0.9170	26.12	0.14	0.750			
0.3059	19574.43	3.9010	3.9011	0.9185	26.12	0.14	0.750			
0.3086	19751.05	3.8980	3.8981	0.9246	26.12	0.14	0.750			
0.3114	19927.88	3.8950	3.8950	0.9286	26.12	0.14	0.750			
0.3141	20105.40	3.8920	3.8919	0.9322	26.12	0.14	0.750			
0.3170	20285.22	3.8890	3.8890	0.9297	26.11	0.13	0.750			
0.3197	20463.75	3.8860	3.8861	0.9390	26.11	0.13	0.750			
0.3226	20644.91	3.8830	3.8831	0.9471	26.10	0.12	0.750			
0.3254	20827.36	3.8800	3.8798	0.9469	26.10	0.12	0.750			
0.3283	21008.25	3.8770	3.8770	0.9488	26.10	0.12	0.750			
0.3311	21191.69	3.8740	3.8741	0.9595	26.10	0.12	0.750			
0.3340	21378.12	3.8710	3.8709	0.9652	26.10	0.12	0.750			
0.3369	21564.01	3.8680	3.8679	0.9649	26.10	0.12	0.750			
0.3398	21749.41	3.8650	3.8651	0.9653	26.10	0.12	0.750			
0.3427	21935.17	3.8620	3.8620	0.9722	26.09	0.11	0.750			
0.3457	22122.57	3.8590	3.8590	0.9786	26.09	0.11	0.750			
0.3486	22308.78	3.8560	3.8560	0.9827	26.08	0.10	0.750			
0.3515	22498.52	3.8530	3.8531	0.9867	26.08	0.10	0.750			
0.3545	22688.58	3.8500	3.8500	0.9961	26.07	0.09	0.750			
0.3575	22880.18	3.8470	3.8470	1.0060	26.07	0.09	0.750			
0.3605	23074.30	3.8440	3.8440	1.0134	26.06	0.08	0.750			
0.3636	23270.05	3.8410	3.8410	1.0210	26.06	0.08	0.750			
0.3667	23466.67	3.8380	3.8380	1.0309	26.06	0.08	0.750			
0.3698	23665.68	3.8350	3.8351	1.0387	26.06	0.08	0.750			
0.3729	23866.41	3.8320	3.8320	1.0501	26.06	0.08	0.750			
0.3761	24069.63	3.8290	3.8289	1.0510	26.06	0.08	0.750			
0.3792	24270.76	3.8260	3.8260	1.0605	26.05	0.07	0.750			
0.3824	24473.98	3.8230	3.8230	1.0723	26.05	0.07	0.750			
0.3856	24680.28	3.8200	3.8201	1.0834	26.04	0.06	0.750			
0.3889	24889.92	3.8170	3.8169	1.0915	26.04	0.06	0.750			
0.3922	25100.95	3.8140	3.8141	1.1065	26.03	0.05	0.750			
0.3955	25313.97	3.8110	3.8111	1.1194	26.02	0.04	0.750			
0.3989	25531.56	3.8080	3.8080	1.1338	26.01	0.03	0.750			
0.4023	25749.76	3.8050	3.8050	1.1448	26.01	0.03	0.750			
0.4058	25969.20	3.8020	3.8020	1.1572	26.01	0.03	0.750			
0.4093	26194.61	3.7990	3.7990	1.1703	26.00	0.02	0.750			
0.4129	26422.67	3.7960	3.7960	1.1803	26.00	0.02	0.750			
0.4164	26648.60	3.7930	3.7930	1.1951	25.99	0.01	0.750			
0.4200	26878.25	3.7900	3.7900	1.2118	25.98	-0.00	0.750			
0.4236	27113.26	3.7870	3.7869	1.2218	25.97	-0.01	0.750			
0.4273	27347.63	3.7840	3.7841	1.2406	25.96	-0.02	0.750			
0.4310	27587.13	3.7810	3.7810	1.2596	25.95	-0.03	0.750			
0.4349	27830.79	3.7780	3.7781	1.2852	25.95	-0.03	0.750			
0.4387	28079.49	3.7750	3.7749	1.3083	25.94	-0.04	0.750			
0.4427	28331.02	3.7720	3.7720	1.3277	25.93	-0.05	0.750			
0.4467	28590.07	3.7690	3.7690	1.3520	25.93	-0.05	0.750			
0.4508	28852.88	3.7660	3.7660	1.3807	25.92	-0.06	0.750			
0.4550	29118.98	3.7630	3.7630	1.4037	25.91	-0.07	0.750			
0.4593	29393.72	3.7600	3.7600	1.4258	25.89	-0.09	0.750			
0.4636	29670.45	3.7570	3.7569	1.4424	25.88	-0.10	0.750			
0.4679	29946.38	3.7540	3.7541	1.4777	25.87	-0.11	0.750			
0.4724	30232.01	3.7510	3.7511	1.5047	25.87	-0.11	0.750			
0.4769	30523.44	3.7480	3.7480	1.5411	25.86	-0.12	0.750			
0.4816	30822.66	3.7450	3.7450	1.5780	25.85	-0.13	0.750			
0.4864	31127.09	3.7420	3.7421	1.6223	25.84	-0.14	0.750			
0.4913	31443.85	3.7390	3.7391	1.6663	25.83	-0.15	0.750			
0.4965	31773.43	3.7360	3.7359	1.7023	25.83	-0.15	0.750			
0.5015	32097.89	3.7330	3.7330	1.7419	25.82	-0.16	0.750			
0.5069	32438.80	3.7300	3.7298	1.7740	25.81	-0.17	0.750			
0.5122	32782.79	3.7270	3.7270	1.8129	25.80	-0.18	0.750			
0.5177	33131.13	3.7240	3.7240	1.8551	25.79	-0.19	0.750			
0.5233	33489.00	3.7210	3.7208	1.9138	25.78	-0.20	0.750			
0.5291	33860.70	3.7180	3.7180	1.9587	25.77	-0.21	0.750			
0.5351	34246.22	3.7150	3.7150	2.0207	25.76	-0.22	0.750			
0.5413	34643.62	3.7120	3.7120	2.0696	25.75	-0.23	0.750	0.352	0.487	
0.5475	35040.60	3.7090	3.7089	2.1175	25.74	-0.24	0.750			
0.5539	35447.29	3.7060	3.7061	2.1695	25.73	-0.25	0.750			
0.5605	35873.74	3.7030	3.7029	2.2193	25.72	-0.26	0.750			
0.5673	36306.34	3.7000	3.7000	2.2906	25.71	-0.27	0.750			
0.5742	36751.79	3.6970	3.6970	2.3622	25.70	-0.28	0.750			
0.5814	37208.96	3.6940	3.6941	2.4070	25.70	-0.28	0.750			
0.5888	37680.29	3.6910	3.6910	2.4523	25.70	-0.28	0.750			
0.5962	38158.20	3.6880	3.6879	2.5100	25.69	-0.29	0.750			
0.6037	38639.37	3.6850	3.6850	2.5590	25.68	-0.30	0.750			
0.6114	39131.54	3.6820	3.6820	2.6162	25.68	-0.30	0.750			
0.6195	39645.54	3.6790	3.6790	2.6209	25.68	-0.30	0.750			
0.6274	40152.63	3.6760	3.6761	2.6295	25.68	-0.30	0.750			
0.6353	40659.65	3.6730	3.6728	2.5918	25.69	-0.29	0.750			
0.6431	41160.08	3.6700	3.6700	2.5077	25.69	-0.29	0.750			
0.6506	41635.88	3.6670	3.6670	2.3947	25.70	-0.28	0.750			
0.6575	42082.69	3.6640	3.6640	2.2041	25.71	-0.27	0.750			
0.6639	42487.03	3.6610	3.6610	2.0203	25.72	-0.26	0.750			
0.6696	42853.18	3.6580	3.6582	1.8483	25.73	-0.25	0.750			
0.6748	43187.17	3.6550	3.6549	1.6973	25.73	-0.25	0.750			
0.6795	43486.69	3.6520	3.6521	1.5653	25.73	-0.25	0.750			
0.6839	43772.44	3.6490	3.6490	1.4733	25.74	-0.24	0.750			
0.6882	44043.47	3.6460	3.6458	1.4009	25.74	-0.24	0.750			
0.6922	44301.16	3.6430	3.6431	1.3387	25.75	-0.23	0.750			
0.6961	44552.43	3.6400	3.6401	1.2962	25.75	-0.23	0.750			
0.6999	44796.32	3.6370	3.6368	1.2596	25.76	-0.22	0.750			
0.7036	45032.14	3.6340	3.6341	1.2237	25.76	-0.22	0.750			
0.7072	45262.41	3.6310	3.6311	1.2035	25.77	-0.21	0.750			
0.7108	45490.85	3.6280	3.6279	1.1909	25.77	-0.21	0.750			
0.7143	45717.42	3.6250	3.6250	1.1747	25.77	-0.21	0.750			
0.7178	45940.46	3.6220	3.6220	1.1712	25.77	-0.21	0.750			
0.7213	46164.83	3.6190	3.6190	1.1723	25.78	-0.20	0.750			
0.7249	46391.13	3.6160	3.6159	1.1677	25.78	-0.20	0.750			
0.7284	46615.58	3.6130	3.6130	1.1712	25.78	-0.20	0.750			
0.7319	46839.73	3.6100	3.6101	1.1701	25.79	-0.19	0.750			
0.7354	47064.19	3.6070	3.6071	1.1741	25.79	-0.19	0.750			
0.7389	47288.52	3.6040	3.6041	1.1763	25.79	-0.19	0.750			
0.7424	47514.90	3.6010	3.6010	1.1878	25.79	-0.19	0.750			
0.7459	47740.78	3.5980	3.5980	1.2035	25.79	-0.19	0.750			
0.7496	47973.89	3.5950	3.5950	1.2242	25.79	-0.19	0.750			
0.7533	48208.95	3.5920	3.5920	1.2509	25.79	-0.19	0.750			
0.7570	48449.53	3.5890	3.5890	1.2897	25.80	-0.18	0.750			
0.7609	48699.93	3.5860	3.5861	1.3215	25.80	-0.18	0.750			
0.7649	48956.49	3.5830	3.5830	1.3680	25.80	-0.18	0.750			
0.7691	49223.84	3.5800	3.5800	1.4130	25.79	-0.19	0.750			
0.7734	49500.75	3.5770	3.5771	1.4517	25.78	-0.20	0.750			
0.7779	49786.88	3.5740	3.5739	1.4900	25.78	-0.20	0.750			
0.7824	50076.41	3.5710	3.5711	1.5201	25.78	-0.20	0.750			
0.7870	50371.11	3.5680	3.5680	1.5540	25.78	-0.20	0.750			
0.7918	50672.85	3.5650	3.5652	1.5801	25.78	-0.20	0.750			
0.7966	50979.95	3.5620	3.5620	1.6030	25.78	-0.20	0.750			
0.8014	51290.63	3.5590	3.5589	1.6191	25.78	-0.20	0.750			
0.8063	51605.05	3.5560	3.5560	1.6217	25.78	-0.20	0.750			
0.8112	51917.28	3.5530	3.5531	1.6317	25.78	-0.20	0.750			
0.8161	52233.38	3.5500	3.5499	1.6233	25.78	-0.20	0.750			
0.8211	52549.69	3.5470	3.5470	1.6003	25.78	-0.20	0.750			
0.8260	52861.59	3.5440	3.5440	1.5559	25.78	-0.20	0.750			
0.8307	53165.95	3.5410	3.5409	1.4890	25.78	-0.20	0.750			
0.8353	53457.00	3.5380	3.5381	1.3453	25.79	-0.19	0.750			
0.8393	53716.98	3.5350	3.5350	1.1881	25.79	-0.19	0.750			
0.8426	53927.55	3.5320	3.5322	0.9985	25.81	-0.17	0.750			
0.8453	54098.12	3.5290	3.5290	0.8080	25.82	-0.16	0.750			
0.8473	54224.23	3.5260	3.5258	0.6558	25.83	-0.15	0.750			
0.8488	54320.08	3.5230	3.5229	0.5183	25.83	-0.15	0.750			
0.8500	54397.18	3.5200	3.5200	0.4325	25.84	-0.14	0.750			
0.8511	54471.95	3.5170	3.5169	0.3840	25.84	-0.14	0.750			
0.8521	54537.22	3.5140	3.5140	0.3474	25.85	-0.13	0.750			
0.8531	54600.38	3.5110	3.5110	0.3239	25.85	-0.13	0.750			
0.8541	54659.42	3.5080	3.5080	0.3066	25.86	-0.12	0.750			
0.8549	54715.80	3.5050	3.5050	0.2923	25.86	-0.12	0.750			
0.8558	54769.84	3.5020	3.5020	0.2810	25.86	-0.12	0.750			
0.8566	54822.77	3.4990	3.4990	0.2733	25.87	-0.11	0.750			
0.8574	54874.09	3.4960	3.4960	0.2648	25.87	-0.11	0.750			
0.8582	54924.31	3.4930	3.4930	0.2582	25.88	-0.10	0.750			
0.8590	54973.26	3.4900	3.4900	0.2519	25.88	-0.10	0.750			
0.8597	55020.74	3.4870	3.4870	0.2457	25.88	-0.10	0.750			
0.8604	55066.97	3.4840	3.4840	0.2392	25.89	-0.09	0.750			
0.8611	55112.23	3.4810	3.4810	0.2344	25.89	-0.09	0.750			
0.8618	55156.40	3.4780	3.4781	0.2301	25.89	-0.09	0.750			
0.8625	55200.64	3.4750	3.4750	0.2263	25.90	-0.08	0.750			
0.8632	55243.66	3.4720	3.4720	0.2219	25.90	-0.08	0.750			
0.8638	55285.88	3.4690	3.4690	0.2169	25.90	-0.08	0.750			
0.8645	55327.41	3.4660	3.4661	0.2118	25.91	-0.07	0.750			
0.8651	55367.58	3.4630	3.4630	0.2067	25.91	-0.07	0.750			
0.8657	55406.72	3.4600	3.4600	0.2009	25.92	-0.06	0.750			
0.8663	55444.52	3.4570	3.4571	0.1966	25.92	-0.06	0.750			
0.8669	55481.39	3.4540	3.4540	0.1918	25.92	-0.06	0.750			
0.8675	55517.93	3.4510	3.4510	0.1878	25.93	-0.05	0.750			
0.8680	55553.60	3.4480	3.4480	0.1838	25.93	-0.05	0.750			
0.8686	55588.54	3.4450	3.4450	0.1792	25.94	-0.04	0.750			
0.8691	55622.86	3.4420	3.4420	0.1749	25.94	-0.04	0.750			
0.8696	55656.01	3.4390	3.4391	0.1700	25.94	-0.04	0.750			
0.8701	55688.16	3.4360	3.4359	0.1648	25.95	-0.03	0.750			
0.8706	55719.11	3.4330	3.4331	0.1604	25.95	-0.03	0.750			
0.8711	55749.47	3.4300	3.4300	0.1558	25.95	-0.03	0.750			
0.8715	55779.00	3.4270	3.4270	0.1510	25.95	-0.03	0.750			
0.8720	55807.55	3.4240	3.4240	0.1464	25.96	-0.02	0.750			
0.8724	55835.32	3.4210	3.4211	0.1417	25.96	-0.02	0.750			
0.8728	55862.09	3.4180	3.4180	0.1370	25.96	-0.02	0.750			
0.8732	55887.96	3.4150	3.4150	0.1322	25.97	-0.01	0.750			
0.8736	55912.83	3.4120	3.4120	0.1274	25.97	-0.01	0.750			
0.8740	55936.65	3.4090	3.4090	0.1225	25.97	-0.01	0.750			
0.8744	55959.92	3.4060	3.4060	0.1173	25.97	-0.01	0.750			
0.8747	55982.13	3.4030	3.4030	0.1123	25.97	-0.01	0.750			
0.8751	56003.25	3.4000	3.4000	0.1063	25.98	-0.00	0.750			
0.8754	56023.27	3.3970	3.3970	0.1007	25.98	-0.00	0.750			
0.8757	56043.00	3.3940	3.3939	0.0931	25.98	0.00	0.750			
0.8759	56060.08	3.3910	3.3909	0.0848	25.98	0.00	0.750			
0.8762	56076.13	3.3880	3.3881	0.0776	25.98	0.00	0.750			
0.8764	56090.16	3.3850	3.3853	0.0685	25.99	0.01	0.750			
0.8766	56103.32	3.3820	3.3823	0.0597	25.99	0.01	0.750			
0.8768	56113.80	3.3790	3.3796	0.0494	25.99	0.01	0.750			
0.8769	56122.30	3.3760	3.3769	0.0391	25.99	0.01	0.750			
0.8770	56128.83	3.3730	3.3745	0.0289	25.99	0.01	0.750			
