Ah_balance (normalized)	Ah_balance (mAh)	Voltage - fit (V)	Voltage -  interpolate (V)	dQ/dV (1/V)	Temperature (°C)	Temperature - diff (°C)	Current (C)	R_DC 0ms (mOhm)	R_DC 50ms (mOhm)	R_DC 50 ms PEC (mOhm)
0.2027	12969.61	3.9110	3.9108	-0.1257	25.92	-0.02	-1.500			
0.2031	12997.97	3.9080	3.9078	-0.1643	25.92	-0.02	-1.500			
0.2036	13033.38	3.9050	3.9049	-0.1990	25.92	-0.02	-1.500			
0.2043	13074.56	3.9020	3.9020	-0.2333	25.93	-0.01	-1.500			
0.2050	13122.80	3.8990	3.8991	-0.2664	25.93	-0.01	-1.500			
0.2059	13177.26	3.8960	3.8960	-0.3009	25.93	-0.01	-1.500			
0.2069	13238.51	3.8930	3.8930	-0.3320	25.93	-0.01	-1.500			
0.2079	13305.32	3.8900	3.8900	-0.3642	25.93	-0.01	-1.500			
0.2090	13378.28	3.8870	3.8871	-0.3977	25.93	-0.01	-1.500			
0.2103	13458.06	3.8840	3.8840	-0.4287	25.93	-0.01	-1.500			
0.2116	13542.28	3.8810	3.8810	-0.4623	25.93	-0.01	-1.500			
0.2130	13634.67	3.8780	3.8780	-0.4962	25.93	-0.01	-1.500			
0.2146	13732.47	3.8750	3.8750	-0.5318	25.93	-0.01	-1.500			
0.2162	13838.79	3.8720	3.8719	-0.5673	25.93	-0.01	-1.500			
0.2180	13952.43	3.8690	3.8690	-0.5966	25.94	-0.00	-1.500			
0.2199	14070.71	3.8660	3.8660	-0.6240	25.94	-0.00	-1.500			
0.2218	14194.62	3.8630	3.8631	-0.6530	25.94	-0.00	-1.500			
0.2238	14321.67	3.8600	3.8600	-0.6748	25.94	0.00	-1.500			
0.2258	14453.37	3.8570	3.8569	-0.6971	25.94	0.00	-1.500			
0.2279	14588.63	3.8540	3.8541	-0.7171	25.94	0.00	-1.500			
0.2301	14729.55	3.8510	3.8510	-0.7390	25.95	0.01	-1.500			
0.2324	14874.32	3.8480	3.8480	-0.7562	25.95	0.01	-1.500			
0.2347	15022.45	3.8450	3.8450	-0.7695	25.95	0.01	-1.500			
0.2371	15171.41	3.8420	3.8420	-0.7787	25.95	0.01	-1.500			
0.2394	15322.42	3.8390	3.8390	-0.7911	25.95	0.01	-1.500			
0.2418	15475.91	3.8360	3.8360	-0.7971	25.96	0.02	-1.500			
0.2442	15629.19	3.8330	3.8330	-0.8036	25.96	0.02	-1.500			
0.2466	15783.91	3.8300	3.8300	-0.8114	25.96	0.02	-1.500			
0.2491	15941.36	3.8270	3.8269	-0.8184	25.96	0.02	-1.500			
0.2515	16099.04	3.8240	3.8240	-0.8247	25.97	0.03	-1.500			
0.2540	16257.51	3.8210	3.8211	-0.8310	25.97	0.03	-1.500			
0.2565	16417.66	3.8180	3.8180	-0.8357	25.97	0.03	-1.500			
0.2591	16580.50	3.8150	3.8150	-0.8382	25.98	0.04	-1.500			
0.2616	16741.16	3.8120	3.8120	-0.8391	25.98	0.04	-1.500			
0.2641	16902.45	3.8090	3.8090	-0.8391	25.99	0.05	-1.500			
0.2666	17063.93	3.8060	3.8060	-0.8418	25.99	0.05	-1.500			
0.2691	17224.22	3.8030	3.8030	-0.8443	25.99	0.05	-1.500			
0.2717	17386.63	3.8000	3.8000	-0.8444	26.00	0.06	-1.500			
0.2742	17549.44	3.7970	3.7970	-0.8479	26.00	0.06	-1.500			
0.2768	17713.70	3.7940	3.7940	-0.8507	26.01	0.07	-1.500			
0.2793	17876.33	3.7910	3.7911	-0.8502	26.02	0.08	-1.500			
0.2819	18039.06	3.7880	3.7880	-0.8585	26.02	0.08	-1.500			
0.2844	18203.70	3.7850	3.7849	-0.8639	26.03	0.09	-1.500			
0.2870	18370.04	3.7820	3.7819	-0.8652	26.03	0.09	-1.500			
0.2897	18537.95	3.7790	3.7791	-0.8706	26.04	0.10	-1.500			
0.2923	18706.90	3.7760	3.7760	-0.8737	26.05	0.11	-1.500			
0.2949	18875.09	3.7730	3.7730	-0.8731	26.05	0.11	-1.500			
0.2975	19041.65	3.7700	3.7700	-0.8705	26.06	0.12	-1.500			
0.3001	19207.18	3.7670	3.7670	-0.8693	26.07	0.13	-1.500			
0.3027	19374.13	3.7640	3.7640	-0.8747	26.08	0.14	-1.500			
0.3053	19542.23	3.7610	3.7610	-0.8814	26.08	0.14	-1.500			
0.3080	19712.46	3.7580	3.7579	-0.8833	26.09	0.15	-1.500			
0.3107	19882.83	3.7550	3.7550	-0.8899	26.10	0.16	-1.500			
0.3134	20055.06	3.7520	3.7520	-0.8927	26.11	0.17	-1.500			
0.3161	20227.90	3.7490	3.7490	-0.8935	26.12	0.18	-1.500			
0.3188	20400.12	3.7460	3.7461	-0.8906	26.13	0.19	-1.500			
0.3214	20569.40	3.7430	3.7430	-0.8891	26.14	0.20	-1.500			
0.3241	20739.65	3.7400	3.7401	-0.8907	26.14	0.20	-1.500			
0.3267	20909.82	3.7370	3.7369	-0.8938	26.15	0.21	-1.500			
0.3294	21080.26	3.7340	3.7339	-0.8943	26.16	0.22	-1.500			
0.3321	21253.71	3.7310	3.7310	-0.9001	26.17	0.23	-1.500			
0.3348	21427.48	3.7280	3.7280	-0.9020	26.17	0.23	-1.500			
0.3375	21600.86	3.7250	3.7250	-0.9106	26.18	0.24	-1.500			
0.3402	21775.71	3.7220	3.7220	-0.9127	26.19	0.25	-1.500			
0.3430	21950.98	3.7190	3.7190	-0.9141	26.20	0.26	-1.500			
0.3458	22128.30	3.7160	3.7159	-0.9110	26.20	0.26	-1.500			
0.3485	22303.85	3.7130	3.7131	-0.9124	26.21	0.27	-1.500			
0.3512	22478.08	3.7100	3.7101	-0.9134	26.22	0.28	-1.500			
0.3539	22652.34	3.7070	3.7069	-0.9153	26.23	0.29	-1.500			
0.3566	22825.58	3.7040	3.7040	-0.9101	26.23	0.29	-1.500			
0.3594	23002.50	3.7010	3.7011	-0.9204	26.24	0.30	-1.500			
0.3622	23179.94	3.6980	3.6979	-0.9302	26.25	0.31	-1.500			
0.3650	23360.38	3.6950	3.6950	-0.9398	26.26	0.32	-1.500			
0.3678	23541.03	3.6920	3.6919	-0.9415	26.27	0.33	-1.500			
0.3707	23721.79	3.6890	3.6890	-0.9482	26.27	0.33	-1.500			
0.3735	23905.35	3.6860	3.6861	-0.9571	26.28	0.34	-1.500			
0.3764	24090.44	3.6830	3.6830	-0.9631	26.29	0.35	-1.500			
0.3793	24273.83	3.6800	3.6799	-0.9710	26.30	0.36	-1.500			
0.3822	24459.49	3.6770	3.6771	-0.9780	26.30	0.36	-1.500			
0.3851	24648.63	3.6740	3.6740	-0.9898	26.31	0.37	-1.500			
0.3881	24839.01	3.6710	3.6709	-1.0039	26.32	0.38	-1.500			
0.3911	25032.57	3.6680	3.6681	-1.0155	26.32	0.38	-1.500			
0.3942	25228.13	3.6650	3.6650	-1.0385	26.33	0.39	-1.500			
0.3973	25429.59	3.6620	3.6620	-1.0596	26.34	0.40	-1.500			
0.4005	25634.80	3.6590	3.6590	-1.0785	26.34	0.40	-1.500			
0.4038	25844.83	3.6560	3.6560	-1.0990	26.35	0.41	-1.500			
0.4071	26057.21	3.6530	3.6530	-1.1221	26.35	0.41	-1.500			
0.4105	26272.97	3.6500	3.6500	-1.1520	26.36	0.42	-1.500			
0.4140	26496.15	3.6470	3.6470	-1.1810	26.37	0.43	-1.500			
0.4176	26726.34	3.6440	3.6439	-1.2000	26.37	0.43	-1.500			
0.4213	26960.82	3.6410	3.6410	-1.2299	26.38	0.44	-1.500			
0.4250	27198.72	3.6380	3.6380	-1.2607	26.38	0.44	-1.500			
0.4288	27442.92	3.6350	3.6350	-1.2910	26.39	0.45	-1.500			
0.4327	27692.20	3.6320	3.6319	-1.3164	26.40	0.46	-1.500			
0.4367	27946.23	3.6290	3.6290	-1.3522	26.40	0.46	-1.500			
0.4408	28214.01	3.6260	3.6260	-1.3916	26.41	0.47	-1.500			
0.4451	28484.77	3.6230	3.6229	-1.4331	26.42	0.48	-1.500			
0.4494	28762.36	3.6200	3.6201	-1.4628	26.42	0.48	-1.500			
0.4539	29046.94	3.6170	3.6169	-1.4898	26.42	0.48	-1.500			
0.4584	29335.27	3.6140	3.6140	-1.5230	26.43	0.49	-1.500			
0.4629	29628.72	3.6110	3.6111	-1.5493	26.43	0.49	-1.500			
0.4677	29934.24	3.6080	3.6080	-1.5831	26.44	0.50	-1.500			
0.4725	30240.31	3.6050	3.6050	-1.6157	26.44	0.50	-1.500			
0.4774	30550.67	3.6020	3.6020	-1.6522	26.44	0.50	-1.500			
0.4824	30872.44	3.5990	3.5990	-1.6996	26.45	0.51	-1.500			
0.4876	31205.16	3.5960	3.5959	-1.7329	26.45	0.51	-1.500			
0.4928	31541.52	3.5930	3.5931	-1.7627	26.46	0.52	-1.500			
0.4982	31887.51	3.5900	3.5903	-1.7897	26.46	0.52	-1.500			
0.5036	32232.76	3.5870	3.5869	-1.8228	26.47	0.53	-1.500			
0.5091	32582.63	3.5840	3.5840	-1.8376	26.47	0.53	-1.500			
0.5146	32934.04	3.5810	3.5809	-1.8660	26.48	0.54	-1.500			
0.5203	33301.62	3.5780	3.5780	-1.8953	26.49	0.55	-1.500			
0.5260	33664.35	3.5750	3.5750	-1.9304	26.49	0.55	-1.500			
0.5318	34037.96	3.5720	3.5720	-1.9657	26.50	0.56	-1.500			
0.5378	34419.00	3.5690	3.5688	-1.9865	26.51	0.57	-1.500			
0.5438	34802.66	3.5660	3.5660	-2.0050	26.52	0.58	-1.500			
0.5499	35196.00	3.5630	3.5630	-2.0606	26.52	0.58	-1.500			
0.5562	35596.19	3.5600	3.5599	-2.0915	26.53	0.59	-1.500			
0.5626	36008.81	3.5570	3.5568	-2.0774	26.53	0.59	-1.500			
0.5689	36410.27	3.5540	3.5541	-2.0987	26.54	0.60	-1.500	0.398	0.501	
0.5751	36804.75	3.5510	3.5511	-2.1018	26.54	0.60	-1.500			
0.5813	37202.23	3.5480	3.5478	-2.1132	26.55	0.61	-1.500			
0.5875	37600.22	3.5450	3.5450	-2.1184	26.56	0.62	-1.500			
0.5939	38012.26	3.5420	3.5419	-2.1434	26.57	0.63	-1.500			
0.6006	38438.06	3.5390	3.5392	-2.1967	26.57	0.63	-1.500			
0.6073	38864.56	3.5360	3.5359	-2.1965	26.58	0.64	-1.500			
0.6139	39286.51	3.5330	3.5329	-2.1765	26.59	0.65	-1.500			
0.6203	39699.68	3.5300	3.5301	-2.1499	26.60	0.66	-1.500			
0.6268	40114.02	3.5270	3.5270	-2.1610	26.60	0.66	-1.500			
0.6333	40530.29	3.5240	3.5239	-2.1199	26.61	0.67	-1.500			
0.6395	40929.21	3.5210	3.5209	-2.0818	26.62	0.68	-1.500			
0.6458	41328.01	3.5180	3.5179	-2.0591	26.63	0.69	-1.500			
0.6519	41721.02	3.5150	3.5150	-2.0211	26.64	0.70	-1.500			
0.6579	42104.39	3.5120	3.5120	-1.9966	26.65	0.71	-1.500			
0.6638	42483.71	3.5090	3.5089	-1.9654	26.66	0.72	-1.500			
0.6697	42858.99	3.5060	3.5059	-1.9458	26.67	0.73	-1.500			
0.6755	43232.41	3.5030	3.5031	-1.9209	26.69	0.75	-1.500			
0.6812	43595.87	3.5000	3.5000	-1.8953	26.70	0.76	-1.500			
0.6869	43958.91	3.4970	3.4969	-1.8675	26.71	0.77	-1.500			
0.6924	44314.17	3.4940	3.4941	-1.8326	26.73	0.79	-1.500			
0.6979	44666.01	3.4910	3.4911	-1.8077	26.74	0.80	-1.500			
0.7032	45007.84	3.4880	3.4880	-1.7966	26.76	0.82	-1.500			
0.7086	45352.62	3.4850	3.4850	-1.7611	26.77	0.83	-1.500			
0.7139	45688.83	3.4820	3.4818	-1.7263	26.79	0.85	-1.500			
0.7190	46014.59	3.4790	3.4790	-1.7092	26.80	0.86	-1.500			
0.7241	46341.13	3.4760	3.4762	-1.6862	26.81	0.87	-1.500			
0.7291	46664.70	3.4730	3.4729	-1.6617	26.83	0.89	-1.500			
0.7341	46979.96	3.4700	3.4699	-1.6332	26.85	0.91	-1.500			
0.7389	47287.54	3.4670	3.4671	-1.6199	26.86	0.92	-1.500			
0.7437	47597.10	3.4640	3.4640	-1.6006	26.88	0.94	-1.500			
0.7485	47903.79	3.4610	3.4609	-1.5762	26.89	0.95	-1.500			
0.7531	48200.70	3.4580	3.4580	-1.5441	26.91	0.97	-1.500			
0.7578	48497.02	3.4550	3.4550	-1.5323	26.93	0.99	-1.500			
0.7624	48790.52	3.4520	3.4520	-1.5083	26.95	1.01	-1.500			
0.7668	49076.39	3.4490	3.4489	-1.4849	26.97	1.03	-1.500			
0.7712	49357.38	3.4460	3.4459	-1.4677	26.99	1.05	-1.500			
0.7756	49637.00	3.4430	3.4430	-1.4553	27.00	1.06	-1.500			
0.7799	49915.57	3.4400	3.4399	-1.4538	27.03	1.09	-1.500			
0.7843	50192.92	3.4370	3.4370	-1.4471	27.05	1.11	-1.500			
0.7886	50471.33	3.4340	3.4340	-1.4415	27.07	1.13	-1.500			
0.7930	50749.58	3.4310	3.4311	-1.4467	27.09	1.15	-1.500			
0.7973	51026.12	3.4280	3.4280	-1.4396	27.11	1.17	-1.500			
0.8016	51300.38	3.4250	3.4249	-1.4423	27.13	1.19	-1.500			
0.8059	51579.50	3.4220	3.4219	-1.4241	27.15	1.21	-1.500			
0.8103	51857.14	3.4190	3.4190	-1.4061	27.18	1.24	-1.500			
0.8145	52125.74	3.4160	3.4159	-1.3718	27.20	1.26	-1.500			
0.8186	52389.00	3.4130	3.4130	-1.3418	27.22	1.28	-1.500			
0.8225	52640.78	3.4100	3.4099	-1.2983	27.23	1.29	-1.500			
0.8263	52885.03	3.4070	3.4069	-1.2493	27.25	1.31	-1.500			
0.8300	53117.91	3.4040	3.4040	-1.2072	27.27	1.33	-1.500			
0.8336	53352.36	3.4010	3.4010	-1.1659	27.29	1.35	-1.500			
0.8371	53572.73	3.3980	3.3978	-1.1184	27.31	1.37	-1.500			
0.8404	53782.45	3.3950	3.3953	-1.0681	27.33	1.39	-1.500			
0.8435	53981.16	3.3920	3.3919	-1.0195	27.35	1.41	-1.500			
0.8464	54169.42	3.3890	3.3890	-0.9783	27.36	1.42	-1.500			
0.8493	54354.06	3.3860	3.3859	-0.9388	27.38	1.44	-1.500			
0.8520	54529.48	3.3830	3.3830	-0.9040	27.39	1.45	-1.500			
0.8547	54700.82	3.3800	3.3800	-0.8656	27.41	1.47	-1.500			
0.8572	54862.03	3.3770	3.3771	-0.8307	27.42	1.48	-1.500			
0.8597	55018.10	3.3740	3.3739	-0.7989	27.43	1.49	-1.500			
0.8620	55165.74	3.3710	3.3710	-0.7665	27.45	1.51	-1.500			
0.8642	55310.38	3.3680	3.3680	-0.7371	27.46	1.52	-1.500			
0.8664	55449.63	3.3650	3.3649	-0.7140	27.47	1.53	-1.500			
0.8685	55583.34	3.3620	3.3620	-0.6886	27.48	1.54	-1.500			
0.8705	55713.58	3.3590	3.3590	-0.6659	27.49	1.55	-1.500			
0.8725	55838.17	3.3560	3.3561	-0.6398	27.50	1.56	-1.500			
0.8744	55959.18	3.3530	3.3529	-0.6166	27.51	1.57	-1.500			
0.8762	56074.21	3.3500	3.3501	-0.5950	27.52	1.58	-1.500			
0.8779	56186.75	3.3470	3.3470	-0.5746	27.53	1.59	-1.500			
0.8796	56293.97	3.3440	3.3440	-0.5542	27.53	1.59	-1.500			
0.8812	56399.06	3.3410	3.3410	-0.5339	27.54	1.60	-1.500			
0.8828	56499.78	3.3380	3.3380	-0.5175	27.55	1.61	-1.500			
0.8843	56597.35	3.3350	3.3350	-0.5022	27.56	1.62	-1.500			
0.8858	56692.32	3.3320	3.3320	-0.4843	27.56	1.62	-1.500			
0.8872	56783.08	3.3290	3.3289	-0.4653	27.57	1.63	-1.500			
0.8886	56871.03	3.3260	3.3261	-0.4507	27.58	1.64	-1.500			
0.8899	56955.27	3.3230	3.3231	-0.4340	27.58	1.64	-1.500			
0.8912	57037.27	3.3200	3.3198	-0.4207	27.59	1.65	-1.500			
0.8924	57115.80	3.3170	3.3171	-0.4050	27.60	1.66	-1.500			
0.8936	57192.48	3.3140	3.3140	-0.3922	27.60	1.66	-1.500			
0.8948	57267.82	3.3110	3.3110	-0.3794	27.61	1.67	-1.500			
0.8959	57339.33	3.3080	3.3080	-0.3650	27.62	1.68	-1.500			
0.8970	57406.91	3.3050	3.3050	-0.3509	27.63	1.69	-1.500			
0.8980	57473.22	3.3020	3.3019	-0.3384	27.63	1.69	-1.500			
0.8990	57535.73	3.2990	3.2990	-0.3265	27.64	1.70	-1.500			
0.9000	57597.74	3.2960	3.2960	-0.3151	27.64	1.70	-1.500			
0.9009	57657.28	3.2930	3.2930	-0.3048	27.65	1.71	-1.500			
0.9018	57715.02	3.2900	3.2900	-0.2957	27.66	1.72	-1.500			
0.9027	57770.41	3.2870	3.2870	-0.2857	27.66	1.72	-1.500			
0.9035	57824.22	3.2840	3.2839	-0.2747	27.67	1.73	-1.500			
0.9043	57876.36	3.2810	3.2810	-0.2653	27.67	1.73	-1.500			
0.9051	57925.99	3.2780	3.2781	-0.2546	27.68	1.74	-1.500			
0.9059	57974.48	3.2750	3.2751	-0.2470	27.68	1.74	-1.500			
0.9066	58020.29	3.2720	3.2720	-0.2384	27.68	1.74	-1.500			
0.9073	58064.95	3.2690	3.2690	-0.2304	27.69	1.75	-1.500			
0.9079	58108.26	3.2660	3.2659	-0.2234	27.69	1.75	-1.500			
0.9086	58150.24	3.2630	3.2630	-0.2171	27.70	1.76	-1.500			
0.9092	58191.96	3.2600	3.2600	-0.2107	27.70	1.76	-1.500			
0.9099	58231.88	3.2570	3.2569	-0.2043	27.70	1.76	-1.500			
0.9105	58270.40	3.2540	3.2540	-0.1969	27.71	1.77	-1.500			
0.9110	58307.12	3.2510	3.2511	-0.1912	27.71	1.77	-1.500			
0.9116	58342.73	3.2480	3.2480	-0.1858	27.72	1.78	-1.500			
0.9122	58377.84	3.2450	3.2449	-0.1809	27.72	1.78	-1.500			
0.9127	58412.17	3.2420	3.2420	-0.1767	27.72	1.78	-1.500			
0.9132	58445.56	3.2390	3.2391	-0.1711	27.73	1.79	-1.500			
0.9137	58478.51	3.2360	3.2360	-0.1665	27.73	1.79	-1.500			
0.9142	58509.92	3.2330	3.2331	-0.1614	27.73	1.79	-1.500			
0.9147	58540.36	3.2300	3.2300	-0.1557	27.74	1.80	-1.500			
0.9151	58569.19	3.2270	3.2270	-0.1523	27.74	1.80	-1.500			
0.9156	58597.77	3.2240	3.2239	-0.1477	27.74	1.80	-1.500			
0.9160	58625.73	3.2210	3.2211	-0.1441	27.75	1.81	-1.500			
0.9165	58653.09	3.2180	3.2179	-0.1410	27.75	1.81	-1.500			
0.9169	58680.01	3.2150	3.2152	-0.1380	27.75	1.81	-1.500			
0.9173	58706.21	3.2120	3.2120	-0.1351	27.76	1.82	-1.500			
0.9177	58731.76	3.2090	3.2090	-0.1316	27.76	1.82	-1.500			
0.9181	58756.61	3.2060	3.2060	-0.1290	27.76	1.82	-1.500			
0.9184	58780.60	3.2030	3.2031	-0.1259	27.77	1.83	-1.500			
0.9188	58804.89	3.2000	3.1999	-0.1236	27.77	1.83	-1.500			
0.9192	58828.34	3.1970	3.1970	-0.1209	27.77	1.83	-1.500			
0.9196	58851.30	3.1940	3.1942	-0.1181	27.77	1.83	-1.500			
0.9199	58873.77	3.1910	3.1910	-0.1155	27.78	1.84	-1.500			
0.9202	58895.59	3.1880	3.1881	-0.1132	27.78	1.84	-1.500			
0.9206	58917.03	3.1850	3.1850	-0.1107	27.78	1.84	-1.500			
0.9209	58937.92	3.1820	3.1821	-0.1081	27.79	1.85	-1.500			
0.9212	58958.48	3.1790	3.1788	-0.1061	27.79	1.85	-1.500			
0.9215	58978.56	3.1760	3.1760	-0.1043	27.79	1.85	-1.500			
0.9219	58998.40	3.1730	3.1731	-0.1025	27.79	1.85	-1.500			
0.9222	59017.85	3.1700	3.1700	-0.1007	27.80	1.86	-1.500			
0.9225	59037.03	3.1670	3.1670	-0.0991	27.80	1.86	-1.500			
0.9227	59055.82	3.1640	3.1640	-0.0972	27.80	1.86	-1.500			
0.9230	59074.34	3.1610	3.1610	-0.0957	27.80	1.86	-1.500			
0.9233	59092.68	3.1580	3.1580	-0.0942	27.81	1.87	-1.500			
0.9236	59110.59	3.1550	3.1550	-0.0924	27.81	1.87	-1.500			
0.9239	59127.93	3.1520	3.1520	-0.0910	27.81	1.87	-1.500			
0.9241	59145.28	3.1490	3.1490	-0.0898	27.81	1.87	-1.500			
0.9244	59162.35	3.1460	3.1462	-0.0884	27.82	1.88	-1.500			
0.9247	59179.21	3.1430	3.1429	-0.0873	27.82	1.88	-1.500			
0.9249	59196.00	3.1400	3.1401	-0.0860	27.82	1.88	-1.500			
0.9252	59212.37	3.1370	3.1370	-0.0845	27.82	1.88	-1.500			
0.9254	59228.68	3.1340	3.1341	-0.0834	27.83	1.89	-1.500			
0.9257	59244.33	3.1310	3.1310	-0.0821	27.83	1.89	-1.500			
0.9259	59259.79	3.1280	3.1280	-0.0804	27.83	1.89	-1.500			
0.9262	59275.11	3.1250	3.1250	-0.0792	27.83	1.89	-1.500			
0.9264	59290.20	3.1220	3.1221	-0.0783	27.84	1.90	-1.500			
0.9266	59305.01	3.1190	3.1189	-0.0771	27.84	1.90	-1.500			
0.9269	59319.69	3.1160	3.1161	-0.0763	27.84	1.90	-1.500			
0.9271	59334.28	3.1130	3.1131	-0.0755	27.84	1.90	-1.500			
0.9273	59348.70	3.1100	3.1101	-0.0747	27.85	1.91	-1.500			
0.9275	59363.04	3.1070	3.1070	-0.0736	27.85	1.91	-1.500			
0.9278	59377.11	3.1040	3.1038	-0.0726	27.85	1.91	-1.500			
0.9280	59390.96	3.1010	3.1012	-0.0716	27.85	1.91	-1.500			
0.9282	59404.60	3.0980	3.0979	-0.0706	27.85	1.91	-1.500			
0.9284	59418.14	3.0950	3.0949	-0.0697	27.86	1.92	-1.500			
0.9286	59431.25	3.0920	3.0920	-0.0690	27.86	1.92	-1.500			
0.9288	59444.43	3.0890	3.0890	-0.0682	27.86	1.92	-1.500			
0.9290	59457.20	3.0860	3.0860	-0.0673	27.86	1.92	-1.500			
0.9292	59470.14	3.0830	3.0829	-0.0666	27.86	1.92	-1.500			
0.9294	59482.91	3.0800	3.0801	-0.0661	27.87	1.93	-1.500			
0.9296	59495.54	3.0770	3.0770	-0.0655	27.87	1.93	-1.500			
0.9298	59508.04	3.0740	3.0741	-0.0649	27.87	1.93	-1.500			
0.9300	59520.48	3.0710	3.0710	-0.0643	27.87	1.93	-1.500			
0.9302	59532.76	3.0680	3.0681	-0.0636	27.87	1.93	-1.500			
0.9304	59544.91	3.0650	3.0649	-0.0629	27.88	1.94	-1.500			
0.9306	59556.87	3.0620	3.0620	-0.0621	27.88	1.94	-1.500			
0.9308	59568.74	3.0590	3.0591	-0.0615	27.88	1.94	-1.500			
0.9309	59580.50	3.0560	3.0561	-0.0609	27.88	1.94	-1.500			
0.9311	59592.13	3.0530	3.0529	-0.0603	27.88	1.94	-1.500			
0.9313	59603.64	3.0500	3.0500	-0.0596	27.89	1.95	-1.500			
0.9315	59614.79	3.0470	3.0471	-0.0590	27.89	1.95	-1.500			
0.9317	59626.08	3.0440	3.0441	-0.0586	27.89	1.95	-1.500			
0.9318	59637.31	3.0410	3.0410	-0.0583	27.89	1.95	-1.500			
0.9320	59648.47	3.0380	3.0379	-0.0580	27.89	1.95	-1.500			
0.9322	59659.73	3.0350	3.0349	-0.0571	27.89	1.95	-1.500			
0.9324	59670.63	3.0320	3.0320	-0.0565	27.90	1.96	-1.500			
0.9325	59681.41	3.0290	3.0291	-0.0558	27.90	1.96	-1.500			
0.9327	59692.01	3.0260	3.0262	-0.0556	27.90	1.96	-1.500			
0.9329	59702.63	3.0230	3.0230	-0.0551	27.90	1.96	-1.500			
0.9330	59713.15	3.0200	3.0199	-0.0545	27.90	1.96	-1.500			
0.9332	59723.34	3.0170	3.0170	-0.0536	27.90	1.96	-1.500			
0.9333	59733.62	3.0140	3.0139	-0.0534	27.91	1.97	-1.500			
0.9335	59743.86	3.0110	3.0111	-0.0532	27.91	1.97	-1.500			
0.9337	59754.05	3.0080	3.0081	-0.0530	27.91	1.97	-1.500			
0.9338	59764.39	3.0050	3.0050	-0.0518	27.91	1.97	-1.500			
0.9340	59774.25	3.0020	3.0020	-0.0509	27.91	1.97	-1.498			
