Ah_balance (normalized)	Ah_balance (mAh)	Voltage - fit (V)	Voltage -  interpolate (V)	dQ/dV (1/V)	Temperature (°C)	Temperature - diff (°C)	Current (C)	R_DC 0ms (mOhm)	R_DC 50ms (mOhm)	R_DC 50 ms PEC (mOhm)
0.1894	12118.49	3.9260	3.9260	-0.1193	25.68	0.00	-1.500			
0.1898	12144.12	3.9230	3.9230	-0.1469	25.68	0.00	-1.500			
0.1902	12175.21	3.9200	3.9199	-0.1737	25.68	0.00	-1.500			
0.1908	12210.81	3.9170	3.9170	-0.2005	25.68	-0.00	-1.500			
0.1914	12252.24	3.9140	3.9140	-0.2258	25.68	-0.00	-1.500			
0.1922	12298.34	3.9110	3.9111	-0.2517	25.68	-0.00	-1.500			
0.1930	12349.27	3.9080	3.9080	-0.2770	25.68	-0.00	-1.500			
0.1938	12404.87	3.9050	3.9051	-0.3016	25.68	-0.00	-1.500			
0.1948	12465.00	3.9020	3.9020	-0.3267	25.68	-0.00	-1.500			
0.1958	12530.28	3.8990	3.8990	-0.3508	25.68	-0.00	-1.500			
0.1969	12600.21	3.8960	3.8960	-0.3746	25.68	-0.00	-1.500			
0.1980	12674.31	3.8930	3.8930	-0.4002	25.67	-0.01	-1.500			
0.1993	12753.52	3.8900	3.8900	-0.4228	25.67	-0.01	-1.500			
0.2006	12836.63	3.8870	3.8870	-0.4476	25.67	-0.01	-1.500			
0.2020	12925.13	3.8840	3.8840	-0.4715	25.67	-0.01	-1.500			
0.2034	13018.33	3.8810	3.8810	-0.4939	25.67	-0.01	-1.500			
0.2049	13115.57	3.8780	3.8780	-0.5177	25.67	-0.01	-1.500			
0.2065	13218.27	3.8750	3.8751	-0.5370	25.67	-0.01	-1.500			
0.2082	13323.08	3.8720	3.8719	-0.5522	25.67	-0.01	-1.500			
0.2099	13430.97	3.8690	3.8691	-0.5688	25.66	-0.02	-1.500			
0.2116	13541.93	3.8660	3.8660	-0.5824	25.66	-0.02	-1.500			
0.2134	13655.52	3.8630	3.8628	-0.5957	25.66	-0.02	-1.500			
0.2152	13771.72	3.8600	3.8601	-0.6081	25.66	-0.02	-1.500			
0.2170	13889.58	3.8570	3.8570	-0.6183	25.66	-0.02	-1.500			
0.2189	14010.88	3.8540	3.8540	-0.6298	25.66	-0.02	-1.500			
0.2208	14132.27	3.8510	3.8510	-0.6380	25.67	-0.01	-1.500			
0.2227	14254.89	3.8480	3.8480	-0.6441	25.67	-0.01	-1.500			
0.2247	14380.25	3.8450	3.8450	-0.6520	25.67	-0.01	-1.500			
0.2266	14505.51	3.8420	3.8420	-0.6591	25.67	-0.01	-1.500			
0.2286	14632.63	3.8390	3.8391	-0.6657	25.68	-0.00	-1.500			
0.2306	14761.47	3.8360	3.8360	-0.6709	25.68	-0.00	-1.500			
0.2327	14891.72	3.8330	3.8329	-0.6761	25.68	0.00	-1.500			
0.2347	15021.80	3.8300	3.8300	-0.6791	25.68	0.00	-1.500			
0.2368	15153.32	3.8270	3.8270	-0.6809	25.69	0.01	-1.500			
0.2388	15283.84	3.8240	3.8240	-0.6813	25.69	0.01	-1.500			
0.2408	15413.61	3.8210	3.8211	-0.6828	25.69	0.01	-1.500			
0.2429	15545.79	3.8180	3.8180	-0.6845	25.69	0.01	-1.500			
0.2450	15678.28	3.8150	3.8150	-0.6860	25.70	0.02	-1.500			
0.2470	15810.04	3.8120	3.8120	-0.6848	25.70	0.02	-1.500			
0.2491	15941.65	3.8090	3.8090	-0.6857	25.70	0.02	-1.500			
0.2511	16073.05	3.8060	3.8060	-0.6873	25.71	0.03	-1.500			
0.2532	16203.69	3.8030	3.8029	-0.6866	25.71	0.03	-1.500			
0.2552	16335.64	3.8000	3.8000	-0.6874	25.71	0.03	-1.500			
0.2573	16468.35	3.7970	3.7969	-0.6938	25.72	0.04	-1.500			
0.2594	16601.63	3.7940	3.7941	-0.6960	25.72	0.04	-1.500			
0.2615	16736.81	3.7910	3.7909	-0.6973	25.72	0.04	-1.500			
0.2636	16870.30	3.7880	3.7880	-0.6982	25.73	0.05	-1.500			
0.2657	17004.91	3.7850	3.7851	-0.6975	25.73	0.05	-1.500			
0.2678	17139.33	3.7820	3.7820	-0.6977	25.73	0.05	-1.500			
0.2699	17273.88	3.7790	3.7789	-0.6991	25.74	0.06	-1.500			
0.2720	17407.25	3.7760	3.7761	-0.6962	25.74	0.06	-1.500			
0.2741	17540.21	3.7730	3.7730	-0.6985	25.75	0.07	-1.500			
0.2762	17674.91	3.7700	3.7700	-0.6988	25.75	0.07	-1.500			
0.2783	17808.52	3.7670	3.7669	-0.6988	25.76	0.08	-1.500			
0.2804	17943.91	3.7640	3.7640	-0.6988	25.76	0.08	-1.500			
0.2825	18077.27	3.7610	3.7611	-0.7021	25.76	0.08	-1.500			
0.2846	18212.63	3.7580	3.7580	-0.7009	25.77	0.09	-1.500			
0.2867	18347.52	3.7550	3.7551	-0.7034	25.77	0.09	-1.500			
0.2888	18482.35	3.7520	3.7519	-0.7041	25.78	0.10	-1.500			
0.2909	18618.18	3.7490	3.7491	-0.7079	25.78	0.10	-1.500			
0.2930	18753.12	3.7460	3.7460	-0.7121	25.79	0.11	-1.500			
0.2952	18890.86	3.7430	3.7430	-0.7186	25.79	0.11	-1.500			
0.2973	19028.33	3.7400	3.7400	-0.7211	25.80	0.12	-1.500			
0.2995	19167.83	3.7370	3.7369	-0.7313	25.80	0.12	-1.500			
0.3017	19307.91	3.7340	3.7341	-0.7368	25.81	0.13	-1.500			
0.3039	19450.86	3.7310	3.7309	-0.7415	25.81	0.13	-1.500			
0.3061	19593.60	3.7280	3.7279	-0.7461	25.82	0.14	-1.500			
0.3084	19737.29	3.7250	3.7251	-0.7500	25.82	0.14	-1.500			
0.3107	19882.97	3.7220	3.7220	-0.7540	25.83	0.15	-1.500			
0.3129	20028.70	3.7190	3.7189	-0.7594	25.83	0.15	-1.500			
0.3152	20173.94	3.7160	3.7161	-0.7632	25.84	0.16	-1.500			
0.3175	20319.60	3.7130	3.7129	-0.7701	25.84	0.16	-1.500			
0.3198	20468.88	3.7100	3.7100	-0.7777	25.85	0.17	-1.500			
0.3221	20617.57	3.7070	3.7069	-0.7853	25.86	0.18	-1.500			
0.3245	20768.97	3.7040	3.7040	-0.7962	25.86	0.18	-1.500			
0.3269	20924.42	3.7010	3.7010	-0.8074	25.87	0.19	-1.500			
0.3294	21080.14	3.6980	3.6980	-0.8127	25.87	0.19	-1.500			
0.3318	21237.94	3.6950	3.6950	-0.8193	25.88	0.20	-1.500			
0.3343	21394.49	3.6920	3.6921	-0.8305	25.88	0.20	-1.500			
0.3368	21554.85	3.6890	3.6890	-0.8403	25.89	0.21	-1.500			
0.3393	21716.16	3.6860	3.6860	-0.8507	25.90	0.22	-1.500			
0.3419	21880.22	3.6830	3.6830	-0.8615	25.90	0.22	-1.500			
0.3445	22047.24	3.6800	3.6801	-0.8739	25.90	0.22	-1.500			
0.3471	22217.25	3.6770	3.6770	-0.8894	25.91	0.23	-1.500			
0.3498	22388.62	3.6740	3.6740	-0.9019	25.91	0.23	-1.500			
0.3525	22562.81	3.6710	3.6709	-0.9111	25.91	0.23	-1.500			
0.3553	22738.49	3.6680	3.6680	-0.9286	25.92	0.24	-1.500			
0.3581	22919.46	3.6650	3.6651	-0.9391	25.92	0.24	-1.500			
0.3610	23102.10	3.6620	3.6619	-0.9530	25.92	0.24	-1.500			
0.3638	23285.11	3.6590	3.6590	-0.9674	25.93	0.25	-1.500			
0.3667	23470.34	3.6560	3.6561	-0.9796	25.93	0.25	-1.500			
0.3697	23660.22	3.6530	3.6529	-0.9954	25.93	0.25	-1.500			
0.3727	23854.27	3.6500	3.6500	-1.0103	25.94	0.26	-1.500			
0.3758	24048.19	3.6470	3.6470	-1.0259	25.94	0.26	-1.500			
0.3789	24246.44	3.6440	3.6441	-1.0479	25.95	0.27	-1.500			
0.3820	24449.76	3.6410	3.6410	-1.0600	25.95	0.27	-1.500			
0.3852	24654.13	3.6380	3.6379	-1.0751	25.95	0.27	-1.500			
0.3885	24862.86	3.6350	3.6350	-1.0915	25.96	0.28	-1.500			
0.3918	25074.16	3.6320	3.6321	-1.1097	25.96	0.28	-1.500			
0.3951	25288.86	3.6290	3.6290	-1.1308	25.96	0.28	-1.500			
0.3986	25507.47	3.6260	3.6260	-1.1429	25.97	0.29	-1.500			
0.4020	25725.39	3.6230	3.6230	-1.1664	25.97	0.29	-1.500			
0.4055	25953.98	3.6200	3.6200	-1.1933	25.97	0.29	-1.500			
0.4092	26185.62	3.6170	3.6170	-1.2096	25.97	0.29	-1.500			
0.4128	26420.56	3.6140	3.6140	-1.2270	25.98	0.30	-1.500			
0.4165	26658.13	3.6110	3.6111	-1.2426	25.98	0.30	-1.500			
0.4203	26898.27	3.6080	3.6079	-1.2570	25.98	0.30	-1.500			
0.4241	27140.75	3.6050	3.6050	-1.2772	25.99	0.31	-1.500			
0.4279	27386.01	3.6020	3.6020	-1.2888	25.99	0.31	-1.500			
0.4318	27635.88	3.5990	3.5990	-1.3136	25.99	0.31	-1.500			
0.4358	27890.84	3.5960	3.5960	-1.3325	26.00	0.32	-1.500			
0.4398	28148.06	3.5930	3.5930	-1.3524	26.00	0.32	-1.500			
0.4439	28410.42	3.5900	3.5899	-1.3684	26.00	0.32	-1.500			
0.4480	28674.28	3.5870	3.5870	-1.3865	26.00	0.32	-1.500			
0.4522	28941.06	3.5840	3.5840	-1.4127	26.00	0.32	-1.500			
0.4565	29215.71	3.5810	3.5810	-1.4321	26.01	0.33	-1.500			
0.4608	29492.66	3.5780	3.5779	-1.4475	26.01	0.33	-1.500			
0.4652	29773.57	3.5750	3.5752	-1.4656	26.01	0.33	-1.500			
0.4696	30057.60	3.5720	3.5720	-1.4808	26.01	0.33	-1.500			
0.4741	30342.92	3.5690	3.5689	-1.5001	26.02	0.34	-1.500			
0.4786	30631.03	3.5660	3.5660	-1.5185	26.03	0.35	-1.500			
0.4832	30924.06	3.5630	3.5630	-1.5391	26.03	0.35	-1.500			
0.4879	31224.66	3.5600	3.5599	-1.5700	26.04	0.36	-1.500			
0.4926	31528.11	3.5570	3.5570	-1.5924	26.04	0.36	-1.500			
0.4974	31836.38	3.5540	3.5540	-1.6139	26.05	0.37	-1.500			
0.5023	32148.04	3.5510	3.5510	-1.6347	26.06	0.38	-1.500			
0.5073	32464.02	3.5480	3.5480	-1.6441	26.07	0.39	-1.500			
0.5122	32782.25	3.5450	3.5450	-1.6716	26.07	0.39	-1.500			
0.5173	33104.89	3.5420	3.5420	-1.6902	26.08	0.40	-1.500			
0.5223	33428.50	3.5390	3.5389	-1.7128	26.09	0.41	-1.500			
0.5276	33763.42	3.5360	3.5360	-1.7205	26.10	0.42	-1.500			
0.5327	34095.96	3.5330	3.5331	-1.7309	26.11	0.43	-1.500	0.380	0.526	
0.5380	34431.49	3.5300	3.5299	-1.7380	26.12	0.44	-1.500			
0.5432	34766.66	3.5270	3.5269	-1.7368	26.13	0.45	-1.500			
0.5484	35096.45	3.5240	3.5240	-1.7400	26.14	0.46	-1.500			
0.5536	35432.51	3.5210	3.5210	-1.7528	26.15	0.47	-1.500			
0.5589	35768.58	3.5180	3.5179	-1.7539	26.16	0.48	-1.500			
0.5642	36111.17	3.5150	3.5150	-1.7681	26.18	0.50	-1.500			
0.5695	36450.00	3.5120	3.5120	-1.7720	26.19	0.51	-1.500			
0.5749	36791.86	3.5090	3.5090	-1.7832	26.20	0.52	-1.500			
0.5802	37134.93	3.5060	3.5059	-1.7801	26.21	0.53	-1.500			
0.5856	37476.76	3.5030	3.5030	-1.7823	26.23	0.55	-1.500			
0.5909	37819.74	3.5000	3.5002	-1.7765	26.24	0.56	-1.500			
0.5962	38159.91	3.4970	3.4970	-1.7814	26.26	0.58	-1.500			
0.6016	38500.31	3.4940	3.4940	-1.7774	26.27	0.59	-1.500			
0.6069	38840.76	3.4910	3.4909	-1.7645	26.29	0.61	-1.500			
0.6122	39181.64	3.4880	3.4880	-1.7651	26.31	0.63	-1.500			
0.6175	39521.87	3.4850	3.4851	-1.7527	26.33	0.65	-1.500			
0.6228	39856.05	3.4820	3.4820	-1.7440	26.34	0.66	-1.500			
0.6279	40188.49	3.4790	3.4790	-1.7262	26.36	0.68	-1.500			
0.6331	40518.37	3.4760	3.4760	-1.7121	26.38	0.70	-1.500			
0.6382	40847.78	3.4730	3.4730	-1.6970	26.39	0.71	-1.500			
0.6434	41175.87	3.4700	3.4700	-1.6772	26.41	0.73	-1.500			
0.6483	41493.55	3.4670	3.4670	-1.6567	26.42	0.74	-1.500			
0.6533	41810.70	3.4640	3.4640	-1.6325	26.44	0.76	-1.500			
0.6581	42120.66	3.4610	3.4610	-1.6008	26.46	0.78	-1.500			
0.6629	42426.62	3.4580	3.4580	-1.5823	26.47	0.79	-1.500			
0.6676	42727.98	3.4550	3.4551	-1.5576	26.49	0.81	-1.500			
0.6722	43023.49	3.4520	3.4520	-1.5417	26.51	0.83	-1.500			
0.6768	43318.06	3.4490	3.4489	-1.5214	26.53	0.85	-1.500			
0.6813	43605.89	3.4460	3.4460	-1.4883	26.55	0.87	-1.500			
0.6858	43891.60	3.4430	3.4430	-1.4700	26.57	0.89	-1.500			
0.6902	44173.34	3.4400	3.4400	-1.4513	26.58	0.90	-1.500			
0.6945	44446.90	3.4370	3.4370	-1.4354	26.60	0.92	-1.500			
0.6987	44719.29	3.4340	3.4339	-1.4176	26.62	0.94	-1.500			
0.7030	44988.99	3.4310	3.4310	-1.4022	26.64	0.96	-1.500			
0.7071	45257.41	3.4280	3.4280	-1.3900	26.66	0.98	-1.500			
0.7114	45528.26	3.4250	3.4251	-1.3755	26.68	1.00	-1.500			
0.7155	45788.99	3.4220	3.4219	-1.3559	26.70	1.02	-1.500			
0.7195	46046.58	3.4190	3.4190	-1.3341	26.72	1.04	-1.500			
0.7234	46299.32	3.4160	3.4159	-1.3202	26.74	1.06	-1.500			
0.7274	46551.13	3.4130	3.4130	-1.3001	26.76	1.08	-1.500			
0.7312	46799.85	3.4100	3.4100	-1.2765	26.77	1.09	-1.500			
0.7351	47045.76	3.4070	3.4070	-1.2528	26.79	1.11	-1.500			
0.7388	47285.24	3.4040	3.4039	-1.2186	26.81	1.13	-1.500			
0.7424	47516.04	3.4010	3.4010	-1.1792	26.83	1.15	-1.500			
0.7459	47738.84	3.3980	3.3980	-1.1468	26.85	1.17	-1.500			
0.7493	47953.63	3.3950	3.3949	-1.1064	26.86	1.18	-1.500			
0.7525	48162.80	3.3920	3.3920	-1.0664	26.88	1.20	-1.500			
0.7557	48364.65	3.3890	3.3890	-1.0362	26.90	1.22	-1.500			
0.7588	48561.99	3.3860	3.3861	-0.9986	26.91	1.23	-1.500			
0.7617	48750.69	3.3830	3.3830	-0.9596	26.93	1.25	-1.500			
0.7645	48929.79	3.3800	3.3800	-0.9259	26.94	1.26	-1.500			
0.7672	49102.42	3.3770	3.3770	-0.8921	26.95	1.27	-1.500			
0.7699	49270.41	3.3740	3.3739	-0.8613	26.96	1.28	-1.500			
0.7724	49432.13	3.3710	3.3710	-0.8342	26.97	1.29	-1.500			
0.7748	49588.88	3.3680	3.3681	-0.8049	26.99	1.31	-1.500			
0.7772	49742.58	3.3650	3.3650	-0.7797	27.00	1.32	-1.500			
0.7795	49890.07	3.3620	3.3619	-0.7525	27.01	1.33	-1.500			
0.7817	50030.55	3.3590	3.3590	-0.7257	27.02	1.34	-1.500			
0.7838	50166.21	3.3560	3.3560	-0.7013	27.03	1.35	-1.500			
0.7859	50298.59	3.3530	3.3530	-0.6815	27.04	1.36	-1.500			
0.7879	50427.07	3.3500	3.3499	-0.6568	27.05	1.37	-1.500			
0.7899	50551.67	3.3470	3.3470	-0.6376	27.06	1.38	-1.500			
0.7918	50672.67	3.3440	3.3441	-0.6163	27.07	1.39	-1.500			
0.7936	50788.49	3.3410	3.3410	-0.5975	27.08	1.40	-1.500			
0.7953	50900.99	3.3380	3.3380	-0.5770	27.08	1.40	-1.500			
0.7970	51007.72	3.3350	3.3350	-0.5617	27.09	1.41	-1.500			
0.7987	51113.88	3.3320	3.3320	-0.5489	27.10	1.42	-1.500			
0.8003	51219.05	3.3290	3.3289	-0.5344	27.11	1.43	-1.500			
0.8019	51319.56	3.3260	3.3260	-0.5203	27.12	1.44	-1.500			
0.8034	51419.09	3.3230	3.3231	-0.5056	27.13	1.45	-1.500			
0.8049	51514.35	3.3200	3.3198	-0.4896	27.13	1.45	-1.500			
0.8064	51606.63	3.3170	3.3171	-0.4767	27.14	1.46	-1.500			
0.8077	51695.95	3.3140	3.3139	-0.4621	27.15	1.47	-1.500			
0.8091	51783.87	3.3110	3.3110	-0.4495	27.16	1.48	-1.500			
0.8105	51869.38	3.3080	3.3080	-0.4374	27.16	1.48	-1.500			
0.8117	51951.19	3.3050	3.3050	-0.4242	27.17	1.49	-1.500			
0.8130	52031.70	3.3020	3.3020	-0.4150	27.18	1.50	-1.500			
0.8142	52109.75	3.2990	3.2989	-0.4027	27.18	1.50	-1.500			
0.8154	52185.75	3.2960	3.2960	-0.3922	27.19	1.51	-1.500			
0.8166	52260.39	3.2930	3.2930	-0.3827	27.20	1.52	-1.500			
0.8177	52333.22	3.2900	3.2901	-0.3725	27.20	1.52	-1.500			
0.8188	52403.17	3.2870	3.2870	-0.3644	27.21	1.53	-1.500			
0.8199	52472.29	3.2840	3.2840	-0.3555	27.22	1.54	-1.500			
0.8209	52538.91	3.2810	3.2810	-0.3472	27.22	1.54	-1.500			
0.8220	52605.37	3.2780	3.2780	-0.3413	27.23	1.55	-1.500			
0.8230	52670.53	3.2750	3.2750	-0.3345	27.24	1.56	-1.500			
0.8240	52734.31	3.2720	3.2720	-0.3273	27.25	1.57	-1.500			
0.8250	52796.95	3.2690	3.2690	-0.3197	27.25	1.57	-1.500			
0.8259	52856.89	3.2660	3.2660	-0.3111	27.26	1.58	-1.500			
0.8268	52915.98	3.2630	3.2629	-0.3055	27.26	1.58	-1.500			
0.8277	52973.29	3.2600	3.2600	-0.2988	27.27	1.59	-1.500			
0.8286	53029.81	3.2570	3.2569	-0.2934	27.28	1.60	-1.500			
0.8295	53085.64	3.2540	3.2540	-0.2877	27.28	1.60	-1.500			
0.8303	53141.08	3.2510	3.2509	-0.2820	27.29	1.61	-1.500			
0.8312	53194.82	3.2480	3.2481	-0.2755	27.29	1.61	-1.500			
0.8320	53246.74	3.2450	3.2451	-0.2695	27.30	1.62	-1.500			
0.8328	53297.61	3.2420	3.2420	-0.2643	27.30	1.62	-1.500			
0.8336	53347.68	3.2390	3.2390	-0.2594	27.31	1.63	-1.500			
0.8343	53396.72	3.2360	3.2360	-0.2537	27.31	1.63	-1.500			
0.8351	53445.30	3.2330	3.2331	-0.2509	27.32	1.64	-1.500			
0.8358	53492.99	3.2300	3.2301	-0.2474	27.32	1.64	-1.500			
0.8366	53540.16	3.2270	3.2270	-0.2438	27.33	1.65	-1.500			
0.8373	53586.59	3.2240	3.2238	-0.2396	27.33	1.65	-1.500			
0.8380	53631.72	3.2210	3.2210	-0.2361	27.33	1.65	-1.500			
0.8387	53676.92	3.2180	3.2181	-0.2334	27.34	1.66	-1.500			
0.8394	53721.47	3.2150	3.2150	-0.2308	27.34	1.66	-1.500			
0.8401	53765.91	3.2120	3.2119	-0.2282	27.35	1.67	-1.500			
0.8408	53809.43	3.2090	3.2091	-0.2233	27.35	1.67	-1.500			
0.8414	53852.01	3.2060	3.2060	-0.2199	27.36	1.68	-1.500			
0.8421	53893.85	3.2030	3.2030	-0.2159	27.36	1.68	-1.500			
0.8427	53934.90	3.2000	3.2001	-0.2140	27.37	1.69	-1.500			
0.8434	53975.24	3.1970	3.1969	-0.2103	27.38	1.70	-1.500			
0.8440	54015.33	3.1940	3.1940	-0.2074	27.38	1.70	-1.500			
0.8446	54054.94	3.1910	3.1910	-0.2052	27.39	1.71	-1.500			
0.8452	54094.09	3.1880	3.1881	-0.2026	27.40	1.72	-1.500			
0.8458	54133.23	3.1850	3.1850	-0.2010	27.40	1.72	-1.500			
0.8464	54171.22	3.1820	3.1820	-0.1981	27.41	1.73	-1.500			
0.8470	54209.02	3.1790	3.1790	-0.1956	27.41	1.73	-1.500			
0.8476	54245.92	3.1760	3.1760	-0.1934	27.42	1.74	-1.500			
0.8482	54282.96	3.1730	3.1729	-0.1920	27.42	1.74	-1.500			
0.8487	54319.66	3.1700	3.1700	-0.1905	27.43	1.75	-1.500			
0.8493	54356.10	3.1670	3.1671	-0.1890	27.44	1.76	-1.500			
0.8499	54392.31	3.1640	3.1640	-0.1871	27.44	1.76	-1.500			
0.8504	54428.13	3.1610	3.1609	-0.1856	27.45	1.77	-1.500			
0.8510	54463.64	3.1580	3.1580	-0.1836	27.45	1.77	-1.500			
0.8515	54498.70	3.1550	3.1551	-0.1816	27.46	1.78	-1.500			
0.8521	54533.55	3.1520	3.1519	-0.1789	27.46	1.78	-1.500			
0.8526	54567.53	3.1490	3.1490	-0.1769	27.47	1.79	-1.500			
0.8531	54601.07	3.1460	3.1461	-0.1750	27.47	1.79	-1.500			
0.8537	54634.51	3.1430	3.1430	-0.1733	27.48	1.80	-1.500			
0.8542	54667.40	3.1400	3.1399	-0.1725	27.48	1.80	-1.500			
0.8547	54700.35	3.1370	3.1371	-0.1706	27.49	1.81	-1.500			
0.8552	54733.14	3.1340	3.1340	-0.1696	27.50	1.82	-1.500			
0.8557	54765.60	3.1310	3.1310	-0.1684	27.50	1.82	-1.500			
0.8562	54798.08	3.1280	3.1280	-0.1673	27.51	1.83	-1.500			
0.8567	54829.89	3.1250	3.1250	-0.1659	27.51	1.83	-1.500			
0.8572	54861.31	3.1220	3.1221	-0.1649	27.52	1.84	-1.500			
0.8577	54892.93	3.1190	3.1189	-0.1644	27.52	1.84	-1.500			
0.8582	54924.42	3.1160	3.1160	-0.1621	27.53	1.85	-1.500			
0.8587	54955.61	3.1130	3.1130	-0.1616	27.53	1.85	-1.500			
0.8592	54986.50	3.1100	3.1101	-0.1603	27.53	1.85	-1.500			
0.8596	55017.15	3.1070	3.1070	-0.1589	27.54	1.86	-1.500			
0.8601	55047.55	3.1040	3.1039	-0.1575	27.54	1.86	-1.500			
0.8606	55077.40	3.1010	3.1011	-0.1564	27.55	1.87	-1.500			
0.8610	55107.05	3.0980	3.0980	-0.1552	27.55	1.87	-1.500			
0.8615	55136.96	3.0950	3.0950	-0.1543	27.56	1.88	-1.500			
0.8620	55166.95	3.0920	3.0919	-0.1534	27.56	1.88	-1.500			
0.8624	55195.93	3.0890	3.0890	-0.1519	27.57	1.89	-1.500			
0.8629	55225.02	3.0860	3.0861	-0.1511	27.57	1.89	-1.500			
0.8633	55254.02	3.0830	3.0830	-0.1502	27.58	1.90	-1.500			
0.8638	55282.93	3.0800	3.0799	-0.1488	27.58	1.90	-1.500			
0.8642	55311.25	3.0770	3.0770	-0.1472	27.59	1.91	-1.500			
0.8647	55339.36	3.0740	3.0741	-0.1463	27.59	1.91	-1.500			
0.8651	55367.51	3.0710	3.0710	-0.1453	27.59	1.91	-1.500			
0.8656	55395.37	3.0680	3.0679	-0.1440	27.60	1.92	-1.500			
0.8660	55422.54	3.0650	3.0650	-0.1428	27.60	1.92	-1.500			
0.8664	55449.91	3.0620	3.0620	-0.1422	27.61	1.93	-1.500			
0.8668	55477.06	3.0590	3.0591	-0.1418	27.62	1.94	-1.500			
0.8673	55504.33	3.0560	3.0559	-0.1416	27.62	1.94	-1.500			
0.8677	55531.53	3.0530	3.0530	-0.1406	27.63	1.95	-1.500			
0.8681	55558.48	3.0500	3.0500	-0.1393	27.64	1.96	-1.500			
0.8685	55585.27	3.0470	3.0471	-0.1387	27.64	1.96	-1.500			
0.8689	55611.78	3.0440	3.0440	-0.1374	27.65	1.97	-1.500			
0.8693	55637.93	3.0410	3.0410	-0.1369	27.65	1.97	-1.500			
0.8698	55664.13	3.0380	3.0379	-0.1358	27.66	1.98	-1.500			
0.8702	55689.97	3.0350	3.0351	-0.1349	27.67	1.99	-1.500			
0.8706	55715.82	3.0320	3.0320	-0.1344	27.67	1.99	-1.500			
0.8710	55741.67	3.0290	3.0291	-0.1341	27.68	2.00	-1.500			
0.8714	55767.42	3.0260	3.0259	-0.1335	27.68	2.00	-1.500			
0.8718	55792.99	3.0230	3.0230	-0.1326	27.69	2.01	-1.500			
0.8722	55818.38	3.0200	3.0200	-0.1318	27.69	2.01	-1.500			
0.8726	55843.62	3.0170	3.0169	-0.1306	27.70	2.02	-1.500			
0.8729	55868.72	3.0140	3.0141	-0.1302	27.71	2.03	-1.500			
0.8733	55893.52	3.0110	3.0110	-0.1290	27.71	2.03	-1.500			
0.8737	55918.19	3.0080	3.0081	-0.1280	27.72	2.04	-1.500			
0.8741	55942.61	3.0050	3.0049	-0.1275	27.72	2.04	-1.500			
0.8745	55967.05	3.0020	3.0020	-0.1286	27.73	2.05	-1.500			
