Ah_balance (normalized)	Ah_balance (mAh)	Voltage - fit (V)	Voltage -  interpolate (V)	dQ/dV (1/V)	Temperature (°C)	Temperature - diff (°C)	Current (C)	R_DC 0ms (mOhm)	R_DC 50ms (mOhm)	R_DC 50 ms PEC (mOhm)
0.2126	13606.15	3.9120	3.9117	-0.1133	25.80	0.00	-1.500			
0.2130	13631.10	3.9090	3.9089	-0.1454	25.80	0.00	-1.500			
0.2135	13661.68	3.9060	3.9060	-0.1770	25.80	0.00	-1.500			
0.2141	13699.64	3.9030	3.9029	-0.2068	25.80	0.00	-1.500			
0.2147	13742.63	3.9000	3.8999	-0.2344	25.80	-0.00	-1.500			
0.2155	13790.79	3.8970	3.8970	-0.2635	25.80	-0.00	-1.500			
0.2163	13844.06	3.8940	3.8941	-0.2897	25.80	-0.00	-1.500			
0.2172	13901.98	3.8910	3.8910	-0.3190	25.80	-0.00	-1.500			
0.2182	13965.45	3.8880	3.8880	-0.3473	25.80	-0.00	-1.500			
0.2193	14035.06	3.8850	3.8850	-0.3733	25.80	-0.00	-1.500			
0.2205	14109.70	3.8820	3.8820	-0.4031	25.80	-0.00	-1.500			
0.2217	14189.75	3.8790	3.8791	-0.4324	25.79	-0.01	-1.500			
0.2231	14275.22	3.8760	3.8761	-0.4600	25.79	-0.01	-1.500			
0.2245	14366.66	3.8730	3.8729	-0.4871	25.79	-0.01	-1.500			
0.2260	14462.85	3.8700	3.8700	-0.5111	25.79	-0.01	-1.500			
0.2276	14564.73	3.8670	3.8671	-0.5345	25.79	-0.01	-1.500			
0.2292	14669.66	3.8640	3.8640	-0.5581	25.79	-0.01	-1.500			
0.2309	14778.69	3.8610	3.8610	-0.5788	25.79	-0.01	-1.500			
0.2327	14891.97	3.8580	3.8579	-0.5999	25.79	-0.01	-1.500			
0.2345	15009.50	3.8550	3.8549	-0.6183	25.78	-0.02	-1.500			
0.2364	15130.74	3.8520	3.8521	-0.6363	25.78	-0.02	-1.500			
0.2384	15256.14	3.8490	3.8490	-0.6537	25.78	-0.02	-1.500			
0.2404	15383.11	3.8460	3.8460	-0.6665	25.78	-0.02	-1.500			
0.2424	15512.02	3.8430	3.8430	-0.6747	25.78	-0.02	-1.500			
0.2444	15642.87	3.8400	3.8400	-0.6847	25.78	-0.02	-1.500			
0.2465	15775.52	3.8370	3.8370	-0.6941	25.78	-0.02	-1.500			
0.2486	15909.61	3.8340	3.8340	-0.7030	25.78	-0.02	-1.500			
0.2507	16046.53	3.8310	3.8309	-0.7078	25.78	-0.02	-1.500			
0.2529	16182.85	3.8280	3.8280	-0.7123	25.79	-0.01	-1.500			
0.2550	16320.40	3.8250	3.8251	-0.7167	25.79	-0.01	-1.500			
0.2572	16458.06	3.8220	3.8221	-0.7234	25.79	-0.01	-1.500			
0.2593	16597.45	3.8190	3.8189	-0.7271	25.79	-0.01	-1.500			
0.2615	16737.75	3.8160	3.8160	-0.7302	25.79	-0.01	-1.500			
0.2637	16878.48	3.8130	3.8130	-0.7331	25.79	-0.01	-1.500			
0.2660	17020.90	3.8100	3.8101	-0.7348	25.79	-0.01	-1.500			
0.2682	17162.07	3.8070	3.8070	-0.7365	25.79	-0.01	-1.500			
0.2704	17303.15	3.8040	3.8040	-0.7381	25.80	-0.00	-1.500			
0.2726	17443.95	3.8010	3.8010	-0.7387	25.80	-0.00	-1.500			
0.2748	17586.51	3.7980	3.7979	-0.7411	25.80	0.00	-1.500			
0.2770	17729.01	3.7950	3.7951	-0.7412	25.81	0.01	-1.500			
0.2792	17871.41	3.7920	3.7920	-0.7448	25.81	0.01	-1.500			
0.2815	18013.99	3.7890	3.7890	-0.7486	25.81	0.01	-1.500			
0.2837	18158.21	3.7860	3.7859	-0.7456	25.81	0.01	-1.500			
0.2860	18302.06	3.7830	3.7830	-0.7468	25.82	0.02	-1.500			
0.2882	18445.92	3.7800	3.7800	-0.7479	25.82	0.02	-1.500			
0.2905	18590.27	3.7770	3.7769	-0.7486	25.82	0.02	-1.500			
0.2927	18733.12	3.7740	3.7740	-0.7500	25.83	0.03	-1.500			
0.2949	18875.29	3.7710	3.7710	-0.7499	25.83	0.03	-1.500			
0.2972	19019.94	3.7680	3.7680	-0.7498	25.84	0.04	-1.500			
0.2995	19166.45	3.7650	3.7649	-0.7504	25.84	0.04	-1.500			
0.3017	19310.07	3.7620	3.7621	-0.7493	25.85	0.05	-1.500			
0.3040	19453.62	3.7590	3.7591	-0.7464	25.85	0.05	-1.500			
0.3062	19595.56	3.7560	3.7560	-0.7476	25.86	0.06	-1.500			
0.3084	19739.19	3.7530	3.7529	-0.7445	25.87	0.07	-1.500			
0.3106	19880.74	3.7500	3.7501	-0.7458	25.87	0.07	-1.500			
0.3129	20024.84	3.7470	3.7470	-0.7475	25.88	0.08	-1.500			
0.3152	20169.79	3.7440	3.7440	-0.7507	25.88	0.08	-1.500			
0.3174	20313.65	3.7410	3.7409	-0.7469	25.89	0.09	-1.500			
0.3196	20456.22	3.7380	3.7380	-0.7472	25.89	0.09	-1.500			
0.3218	20597.58	3.7350	3.7351	-0.7486	25.89	0.09	-1.500			
0.3241	20742.79	3.7320	3.7320	-0.7572	25.90	0.10	-1.500			
0.3264	20887.28	3.7290	3.7289	-0.7582	25.90	0.10	-1.500			
0.3287	21034.70	3.7260	3.7260	-0.7650	25.91	0.11	-1.500			
0.3310	21183.36	3.7230	3.7231	-0.7673	25.91	0.11	-1.500			
0.3333	21331.22	3.7200	3.7200	-0.7701	25.92	0.12	-1.500			
0.3356	21477.78	3.7170	3.7171	-0.7700	25.92	0.12	-1.500			
0.3379	21625.33	3.7140	3.7140	-0.7724	25.93	0.13	-1.500			
0.3402	21773.10	3.7110	3.7110	-0.7777	25.93	0.13	-1.500			
0.3425	21922.87	3.7080	3.7079	-0.7868	25.94	0.14	-1.500			
0.3449	22075.14	3.7050	3.7050	-0.7964	25.94	0.14	-1.500			
0.3473	22229.21	3.7020	3.7020	-0.8051	25.95	0.15	-1.500			
0.3498	22384.09	3.6990	3.6990	-0.8115	25.95	0.15	-1.500			
0.3522	22540.95	3.6960	3.6961	-0.8224	25.96	0.16	-1.500			
0.3547	22698.18	3.6930	3.6930	-0.8344	25.96	0.16	-1.500			
0.3572	22859.12	3.6900	3.6899	-0.8457	25.97	0.17	-1.500			
0.3597	23022.81	3.6870	3.6870	-0.8563	25.97	0.17	-1.500			
0.3623	23188.64	3.6840	3.6839	-0.8696	25.98	0.18	-1.500			
0.3650	23358.17	3.6810	3.6811	-0.8820	25.98	0.18	-1.500			
0.3676	23529.17	3.6780	3.6780	-0.8914	25.99	0.19	-1.500			
0.3703	23699.54	3.6750	3.6750	-0.9042	25.99	0.19	-1.500			
0.3730	23874.25	3.6720	3.6721	-0.9175	25.99	0.19	-1.500			
0.3758	24050.77	3.6690	3.6689	-0.9315	26.00	0.20	-1.500			
0.3786	24230.83	3.6660	3.6659	-0.9464	26.00	0.20	-1.500			
0.3815	24413.71	3.6630	3.6631	-0.9668	26.01	0.21	-1.500			
0.3844	24601.34	3.6600	3.6599	-0.9869	26.01	0.21	-1.500			
0.3874	24793.20	3.6570	3.6570	-1.0074	26.02	0.22	-1.500			
0.3904	24988.03	3.6540	3.6540	-1.0270	26.02	0.22	-1.500			
0.3936	25188.30	3.6510	3.6510	-1.0453	26.02	0.22	-1.500			
0.3967	25390.69	3.6480	3.6480	-1.0639	26.03	0.23	-1.500			
0.3999	25594.97	3.6450	3.6451	-1.0775	26.03	0.23	-1.500			
0.4032	25804.89	3.6420	3.6420	-1.1047	26.03	0.23	-1.500			
0.4065	26017.33	3.6390	3.6389	-1.1245	26.03	0.23	-1.500			
0.4099	26235.37	3.6360	3.6359	-1.1488	26.04	0.24	-1.500			
0.4134	26457.71	3.6330	3.6330	-1.1737	26.04	0.24	-1.500			
0.4170	26686.72	3.6300	3.6300	-1.2001	26.04	0.24	-1.500			
0.4206	26920.74	3.6270	3.6270	-1.2207	26.04	0.24	-1.500			
0.4243	27156.05	3.6240	3.6240	-1.2479	26.05	0.25	-1.500			
0.4281	27396.19	3.6210	3.6211	-1.2681	26.05	0.25	-1.500			
0.4319	27642.16	3.6180	3.6180	-1.2974	26.05	0.25	-1.500			
0.4358	27893.95	3.6150	3.6149	-1.3244	26.06	0.26	-1.500			
0.4399	28151.44	3.6120	3.6121	-1.3508	26.06	0.26	-1.500			
0.4440	28414.67	3.6090	3.6090	-1.3748	26.06	0.26	-1.500			
0.4481	28680.81	3.6060	3.6060	-1.4067	26.06	0.26	-1.500			
0.4524	28952.15	3.6030	3.6030	-1.4285	26.06	0.26	-1.500			
0.4567	29230.22	3.6000	3.6000	-1.4483	26.06	0.26	-1.500			
0.4611	29509.90	3.5970	3.5969	-1.4655	26.06	0.26	-1.500			
0.4655	29793.46	3.5940	3.5941	-1.4992	26.06	0.26	-1.500			
0.4701	30084.66	3.5910	3.5909	-1.5184	26.06	0.26	-1.500			
0.4747	30378.39	3.5880	3.5879	-1.5438	26.06	0.26	-1.500			
0.4793	30675.33	3.5850	3.5851	-1.5656	26.06	0.26	-1.500			
0.4840	30978.32	3.5820	3.5820	-1.5988	26.06	0.26	-1.500			
0.4889	31288.21	3.5790	3.5791	-1.6301	26.06	0.26	-1.500			
0.4938	31604.11	3.5760	3.5759	-1.6498	26.06	0.26	-1.500			
0.4988	31922.82	3.5730	3.5730	-1.6698	26.06	0.26	-1.500			
0.5039	32251.03	3.5700	3.5700	-1.6935	26.06	0.26	-1.500			
0.5090	32575.65	3.5670	3.5670	-1.7102	26.06	0.26	-1.500			
0.5142	32905.82	3.5640	3.5641	-1.7277	26.06	0.26	-1.500			
0.5193	33237.82	3.5610	3.5609	-1.7459	26.06	0.26	-1.500			
0.5246	33573.36	3.5580	3.5580	-1.7768	26.06	0.26	-1.500			
0.5300	33919.39	3.5550	3.5550	-1.7959	26.07	0.27	-1.500			
0.5355	34269.80	3.5520	3.5519	-1.8177	26.07	0.27	-1.500			
0.5409	34616.15	3.5490	3.5492	-1.8424	26.07	0.27	-1.500			
0.5465	34972.86	3.5460	3.5459	-1.8562	26.07	0.27	-1.500			
0.5521	35332.29	3.5430	3.5429	-1.8655	26.08	0.28	-1.500			
0.5577	35692.94	3.5400	3.5400	-1.8654	26.08	0.28	-1.500			
0.5634	36057.01	3.5370	3.5370	-1.8725	26.08	0.28	-1.500	0.381	0.509	
0.5690	36413.84	3.5340	3.5340	-1.8588	26.08	0.28	-1.500			
0.5745	36771.15	3.5310	3.5309	-1.8502	26.09	0.29	-1.500			
0.5800	37121.09	3.5280	3.5280	-1.8328	26.09	0.29	-1.500			
0.5855	37473.96	3.5250	3.5250	-1.8339	26.10	0.30	-1.500			
0.5910	37825.05	3.5220	3.5220	-1.8267	26.10	0.30	-1.500			
0.5965	38175.58	3.5190	3.5190	-1.8304	26.11	0.31	-1.500			
0.6020	38525.04	3.5160	3.5160	-1.8265	26.12	0.32	-1.500			
0.6074	38875.32	3.5130	3.5130	-1.8246	26.13	0.33	-1.500			
0.6129	39228.77	3.5100	3.5100	-1.8267	26.14	0.34	-1.500			
0.6184	39579.38	3.5070	3.5070	-1.8200	26.15	0.35	-1.500			
0.6239	39927.30	3.5040	3.5040	-1.8205	26.16	0.36	-1.500			
0.6294	40278.40	3.5010	3.5010	-1.8097	26.16	0.36	-1.500			
0.6348	40626.12	3.4980	3.4979	-1.7938	26.17	0.37	-1.500			
0.6402	40970.77	3.4950	3.4952	-1.7880	26.18	0.38	-1.500			
0.6455	41312.89	3.4920	3.4919	-1.7803	26.19	0.39	-1.500			
0.6508	41653.03	3.4890	3.4890	-1.7729	26.21	0.41	-1.500			
0.6561	41989.80	3.4860	3.4860	-1.7604	26.22	0.42	-1.500			
0.6614	42332.27	3.4830	3.4830	-1.7612	26.23	0.43	-1.500			
0.6667	42670.43	3.4800	3.4800	-1.7420	26.24	0.44	-1.500			
0.6719	43003.38	3.4770	3.4770	-1.7333	26.25	0.45	-1.500			
0.6771	43333.80	3.4740	3.4740	-1.7042	26.26	0.46	-1.500			
0.6822	43658.28	3.4710	3.4709	-1.6841	26.27	0.47	-1.500			
0.6872	43982.19	3.4680	3.4680	-1.6681	26.28	0.48	-1.500			
0.6922	44299.12	3.4650	3.4649	-1.6482	26.29	0.49	-1.500			
0.6971	44615.51	3.4620	3.4620	-1.6278	26.30	0.50	-1.500			
0.7019	44924.57	3.4590	3.4590	-1.6029	26.32	0.52	-1.500			
0.7067	45230.75	3.4560	3.4560	-1.5767	26.34	0.54	-1.500			
0.7115	45533.54	3.4530	3.4530	-1.5652	26.35	0.55	-1.500			
0.7161	45830.69	3.4500	3.4500	-1.5360	26.37	0.57	-1.500			
0.7207	46123.01	3.4470	3.4470	-1.5193	26.38	0.58	-1.500			
0.7252	46411.30	3.4440	3.4440	-1.5001	26.40	0.60	-1.500			
0.7297	46699.17	3.4410	3.4410	-1.4856	26.42	0.62	-1.500			
0.7341	46981.13	3.4380	3.4380	-1.4719	26.43	0.63	-1.500			
0.7385	47264.68	3.4350	3.4349	-1.4569	26.45	0.65	-1.500			
0.7428	47539.27	3.4320	3.4320	-1.4427	26.46	0.66	-1.500			
0.7471	47816.03	3.4290	3.4290	-1.4345	26.48	0.68	-1.500			
0.7514	48088.16	3.4260	3.4261	-1.4328	26.49	0.69	-1.500			
0.7557	48364.80	3.4230	3.4229	-1.4197	26.51	0.71	-1.500			
0.7600	48639.14	3.4200	3.4201	-1.4153	26.52	0.72	-1.500			
0.7642	48911.66	3.4170	3.4172	-1.3917	26.54	0.74	-1.500			
0.7684	49180.03	3.4140	3.4139	-1.3795	26.56	0.76	-1.500			
0.7725	49441.65	3.4110	3.4110	-1.3497	26.58	0.78	-1.500			
0.7765	49698.18	3.4080	3.4079	-1.3153	26.60	0.80	-1.500			
0.7805	49949.73	3.4050	3.4049	-1.2849	26.63	0.83	-1.500			
0.7843	50194.78	3.4020	3.4022	-1.2469	26.64	0.84	-1.500			
0.7880	50430.93	3.3990	3.3990	-1.1981	26.66	0.86	-1.500			
0.7915	50657.78	3.3960	3.3960	-1.1527	26.67	0.87	-1.500			
0.7948	50869.80	3.3930	3.3930	-1.1012	26.69	0.89	-1.500			
0.7981	51077.30	3.3900	3.3900	-1.0606	26.70	0.90	-1.500			
0.8012	51278.26	3.3870	3.3869	-1.0211	26.72	0.92	-1.500			
0.8042	51468.65	3.3840	3.3841	-0.9776	26.74	0.94	-1.500			
0.8071	51653.47	3.3810	3.3810	-0.9399	26.75	0.95	-1.500			
0.8098	51830.37	3.3780	3.3780	-0.9031	26.76	0.96	-1.500			
0.8125	51998.38	3.3750	3.3750	-0.8657	26.77	0.97	-1.500			
0.8150	52160.47	3.3720	3.3720	-0.8321	26.78	0.98	-1.500			
0.8174	52316.67	3.3690	3.3689	-0.7985	26.79	0.99	-1.500			
0.8198	52467.52	3.3660	3.3660	-0.7733	26.80	1.00	-1.500			
0.8221	52613.10	3.3630	3.3630	-0.7457	26.81	1.01	-1.500			
0.8243	52752.73	3.3600	3.3600	-0.7213	26.82	1.02	-1.500			
0.8264	52888.38	3.3570	3.3570	-0.6994	26.83	1.03	-1.500			
0.8284	53020.14	3.3540	3.3540	-0.6733	26.84	1.04	-1.500			
0.8304	53148.17	3.3510	3.3510	-0.6511	26.85	1.05	-1.500			
0.8324	53271.18	3.3480	3.3480	-0.6330	26.86	1.06	-1.500			
0.8342	53389.94	3.3450	3.3450	-0.6092	26.87	1.07	-1.500			
0.8360	53504.09	3.3420	3.3419	-0.5908	26.87	1.07	-1.500			
0.8377	53615.26	3.3390	3.3391	-0.5721	26.88	1.08	-1.500			
0.8394	53723.08	3.3360	3.3360	-0.5537	26.89	1.09	-1.500			
0.8411	53828.65	3.3330	3.3330	-0.5374	26.90	1.10	-1.500			
0.8427	53929.86	3.3300	3.3301	-0.5192	26.91	1.11	-1.500			
0.8442	54028.03	3.3270	3.3270	-0.5034	26.91	1.11	-1.500			
0.8457	54122.44	3.3240	3.3241	-0.4882	26.92	1.12	-1.500			
0.8471	54214.27	3.3210	3.3210	-0.4738	26.93	1.13	-1.500			
0.8485	54304.21	3.3180	3.3179	-0.4597	26.93	1.13	-1.500			
0.8499	54390.78	3.3150	3.3150	-0.4486	26.94	1.14	-1.500			
0.8512	54475.97	3.3120	3.3120	-0.4358	26.95	1.15	-1.500			
0.8525	54558.19	3.3090	3.3089	-0.4228	26.95	1.15	-1.500			
0.8537	54638.03	3.3060	3.3060	-0.4095	26.96	1.16	-1.500			
0.8549	54714.97	3.3030	3.3031	-0.3975	26.96	1.16	-1.500			
0.8561	54790.80	3.3000	3.3000	-0.3865	26.97	1.17	-1.500			
0.8573	54864.25	3.2970	3.2970	-0.3733	26.97	1.17	-1.500			
0.8583	54933.90	3.2940	3.2940	-0.3602	26.98	1.18	-1.500			
0.8594	55001.62	3.2910	3.2911	-0.3512	26.98	1.18	-1.500			
0.8604	55067.98	3.2880	3.2878	-0.3392	26.99	1.19	-1.500			
0.8614	55131.43	3.2850	3.2850	-0.3305	26.99	1.19	-1.500			
0.8624	55193.78	3.2820	3.2821	-0.3220	27.00	1.20	-1.500			
0.8634	55254.96	3.2790	3.2791	-0.3151	27.00	1.20	-1.500			
0.8643	55315.01	3.2760	3.2760	-0.3078	27.01	1.21	-1.500			
0.8652	55372.77	3.2730	3.2731	-0.2987	27.02	1.22	-1.500			
0.8661	55429.47	3.2700	3.2700	-0.2907	27.02	1.22	-1.500			
0.8670	55485.31	3.2670	3.2671	-0.2843	27.03	1.23	-1.500			
0.8678	55538.33	3.2640	3.2639	-0.2754	27.03	1.23	-1.500			
0.8686	55590.34	3.2610	3.2610	-0.2685	27.04	1.24	-1.500			
0.8694	55640.97	3.2580	3.2580	-0.2623	27.04	1.24	-1.500			
0.8702	55690.29	3.2550	3.2550	-0.2566	27.05	1.25	-1.500			
0.8709	55739.13	3.2520	3.2520	-0.2514	27.05	1.25	-1.500			
0.8717	55787.11	3.2490	3.2490	-0.2468	27.06	1.26	-1.500			
0.8724	55834.12	3.2460	3.2460	-0.2402	27.06	1.26	-1.500			
0.8731	55879.75	3.2430	3.2431	-0.2342	27.07	1.27	-1.500			
0.8738	55923.83	3.2400	3.2401	-0.2296	27.07	1.27	-1.500			
0.8745	55967.29	3.2370	3.2370	-0.2242	27.08	1.28	-1.500			
0.8751	56009.29	3.2340	3.2340	-0.2202	27.08	1.28	-1.500			
0.8758	56050.94	3.2310	3.2309	-0.2155	27.09	1.29	-1.500			
0.8764	56092.00	3.2280	3.2280	-0.2124	27.09	1.29	-1.500			
0.8771	56132.49	3.2250	3.2251	-0.2094	27.09	1.29	-1.500			
0.8777	56172.73	3.2220	3.2221	-0.2064	27.10	1.30	-1.500			
0.8783	56212.10	3.2190	3.2189	-0.2028	27.10	1.30	-1.500			
0.8789	56250.25	3.2160	3.2160	-0.1988	27.11	1.31	-1.500			
0.8795	56288.14	3.2130	3.2130	-0.1959	27.11	1.31	-1.500			
0.8801	56325.63	3.2100	3.2100	-0.1916	27.12	1.32	-1.500			
0.8807	56362.16	3.2070	3.2069	-0.1891	27.12	1.32	-1.500			
0.8812	56397.61	3.2040	3.2042	-0.1859	27.12	1.32	-1.500			
0.8818	56433.08	3.2010	3.2010	-0.1836	27.13	1.33	-1.500			
0.8823	56467.95	3.1980	3.1979	-0.1810	27.13	1.33	-1.500			
0.8829	56502.51	3.1950	3.1950	-0.1785	27.14	1.34	-1.500			
0.8834	56536.64	3.1920	3.1921	-0.1760	27.14	1.34	-1.500			
0.8839	56570.21	3.1890	3.1890	-0.1736	27.15	1.35	-1.500			
0.8844	56603.71	3.1860	3.1860	-0.1720	27.15	1.35	-1.500			
0.8849	56635.98	3.1830	3.1830	-0.1696	27.15	1.35	-1.500			
0.8854	56667.99	3.1800	3.1800	-0.1677	27.16	1.36	-1.500			
0.8859	56700.13	3.1770	3.1770	-0.1670	27.16	1.36	-1.500			
0.8864	56732.29	3.1740	3.1739	-0.1648	27.17	1.37	-1.500			
0.8869	56763.93	3.1710	3.1710	-0.1633	27.17	1.37	-1.500			
0.8874	56795.31	3.1680	3.1680	-0.1617	27.17	1.37	-1.500			
0.8879	56826.13	3.1650	3.1651	-0.1593	27.18	1.38	-1.500			
0.8884	56856.45	3.1620	3.1619	-0.1573	27.18	1.38	-1.500			
0.8888	56886.21	3.1590	3.1590	-0.1553	27.19	1.39	-1.500			
0.8893	56915.52	3.1560	3.1560	-0.1537	27.19	1.39	-1.500			
0.8898	56944.97	3.1530	3.1531	-0.1530	27.19	1.39	-1.500			
0.8902	56974.41	3.1500	3.1500	-0.1522	27.20	1.40	-1.500			
0.8907	57003.48	3.1470	3.1469	-0.1507	27.20	1.40	-1.500			
0.8911	57032.39	3.1440	3.1441	-0.1500	27.21	1.41	-1.500			
0.8916	57061.08	3.1410	3.1410	-0.1489	27.21	1.41	-1.500			
0.8920	57089.67	3.1380	3.1380	-0.1475	27.22	1.42	-1.500			
0.8925	57117.85	3.1350	3.1350	-0.1462	27.22	1.42	-1.500			
0.8929	57145.76	3.1320	3.1320	-0.1444	27.23	1.43	-1.500			
0.8933	57173.36	3.1290	3.1290	-0.1430	27.23	1.43	-1.500			
0.8938	57200.65	3.1260	3.1260	-0.1422	27.23	1.43	-1.500			
0.8942	57227.92	3.1230	3.1230	-0.1409	27.24	1.44	-1.500			
0.8946	57254.51	3.1200	3.1200	-0.1398	27.24	1.44	-1.500			
0.8950	57281.31	3.1170	3.1170	-0.1393	27.25	1.45	-1.500			
0.8954	57308.10	3.1140	3.1141	-0.1382	27.25	1.45	-1.500			
0.8959	57334.50	3.1110	3.1109	-0.1374	27.25	1.45	-1.500			
0.8963	57360.86	3.1080	3.1080	-0.1370	27.26	1.46	-1.500			
0.8967	57387.08	3.1050	3.1052	-0.1362	27.26	1.46	-1.500			
0.8971	57413.12	3.1020	3.1020	-0.1348	27.27	1.47	-1.500			
0.8975	57438.98	3.0990	3.0989	-0.1342	27.27	1.47	-1.500			
0.8979	57464.44	3.0960	3.0961	-0.1329	27.28	1.48	-1.500			
0.8983	57489.90	3.0930	3.0930	-0.1323	27.28	1.48	-1.500			
0.8987	57515.45	3.0900	3.0899	-0.1316	27.28	1.48	-1.500			
0.8991	57540.48	3.0870	3.0870	-0.1305	27.29	1.49	-1.500			
0.8995	57565.43	3.0840	3.0840	-0.1297	27.29	1.49	-1.500			
0.8998	57590.31	3.0810	3.0811	-0.1288	27.30	1.50	-1.500			
0.9002	57615.00	3.0780	3.0780	-0.1284	27.30	1.50	-1.500			
0.9006	57639.42	3.0750	3.0751	-0.1272	27.31	1.51	-1.500			
0.9010	57663.76	3.0720	3.0720	-0.1268	27.31	1.51	-1.500			
0.9014	57687.96	3.0690	3.0690	-0.1262	27.32	1.52	-1.500			
0.9018	57712.29	3.0660	3.0660	-0.1256	27.32	1.52	-1.500			
0.9021	57736.34	3.0630	3.0630	-0.1250	27.32	1.52	-1.500			
0.9025	57760.28	3.0600	3.0600	-0.1243	27.33	1.53	-1.500			
0.9029	57784.19	3.0570	3.0571	-0.1238	27.33	1.53	-1.500			
0.9032	57807.87	3.0540	3.0539	-0.1229	27.34	1.54	-1.500			
0.9036	57831.36	3.0510	3.0510	-0.1220	27.34	1.54	-1.500			
0.9040	57854.67	3.0480	3.0480	-0.1214	27.35	1.55	-1.500			
0.9043	57877.82	3.0450	3.0449	-0.1205	27.35	1.55	-1.500			
0.9047	57900.87	3.0420	3.0421	-0.1201	27.36	1.56	-1.500			
0.9051	57923.88	3.0390	3.0390	-0.1196	27.36	1.56	-1.500			
0.9054	57946.79	3.0360	3.0359	-0.1191	27.37	1.57	-1.500			
0.9058	57969.54	3.0330	3.0330	-0.1185	27.37	1.57	-1.500			
0.9061	57992.45	3.0300	3.0300	-0.1176	27.38	1.58	-1.500			
0.9065	58015.14	3.0270	3.0270	-0.1171	27.38	1.58	-1.500			
0.9068	58037.37	3.0240	3.0240	-0.1164	27.38	1.58	-1.500			
0.9072	58059.65	3.0210	3.0211	-0.1156	27.39	1.59	-1.500			
0.9075	58081.71	3.0180	3.0179	-0.1150	27.39	1.59	-1.500			
0.9079	58103.59	3.0150	3.0149	-0.1141	27.40	1.60	-1.500			
0.9082	58125.45	3.0120	3.0120	-0.1136	27.40	1.60	-1.500			
0.9085	58147.02	3.0090	3.0091	-0.1133	27.41	1.61	-1.500			
0.9089	58168.76	3.0060	3.0060	-0.1132	27.41	1.61	-1.500			
0.9092	58190.53	3.0030	3.0030	-0.1109	27.41	1.61	-1.500			
