Ah_balance (normalized)	Ah_balance (mAh)	Voltage - fit (V)	Voltage -  interpolate (V)	dQ/dV (1/V)	Temperature (°C)	Temperature - diff (°C)	Current (C)	R_DC 0ms (mOhm)	R_DC 50ms (mOhm)	R_DC 50 ms PEC (mOhm)
0.2368	15152.98	3.9740	3.9740	0.8785	26.09	0.17	0.750			
0.2394	15320.42	3.9710	3.9710	0.8722	26.09	0.17	0.750			
0.2420	15487.13	3.9680	3.9680	0.8729	26.10	0.18	0.750			
0.2446	15655.18	3.9650	3.9649	0.8764	26.10	0.18	0.750			
0.2472	15822.90	3.9620	3.9620	0.8786	26.11	0.19	0.750			
0.2499	15992.78	3.9590	3.9590	0.8822	26.11	0.19	0.750			
0.2525	16162.96	3.9560	3.9560	0.8859	26.12	0.20	0.750			
0.2552	16332.99	3.9530	3.9531	0.8885	26.12	0.20	0.750			
0.2579	16504.51	3.9500	3.9500	0.8896	26.12	0.20	0.750			
0.2606	16675.24	3.9470	3.9470	0.8899	26.12	0.20	0.750			
0.2632	16845.95	3.9440	3.9441	0.8938	26.12	0.20	0.750			
0.2659	17018.30	3.9410	3.9410	0.8958	26.12	0.20	0.750			
0.2686	17190.49	3.9380	3.9379	0.8985	26.12	0.20	0.750			
0.2713	17362.80	3.9350	3.9350	0.8987	26.13	0.21	0.750			
0.2740	17535.13	3.9320	3.9321	0.9018	26.13	0.21	0.750			
0.2767	17709.63	3.9290	3.9290	0.9081	26.13	0.21	0.750			
0.2794	17884.29	3.9260	3.9260	0.9073	26.14	0.22	0.750			
0.2822	18058.99	3.9230	3.9230	0.9044	26.14	0.22	0.750			
0.2849	18232.93	3.9200	3.9201	0.9057	26.15	0.23	0.750			
0.2876	18406.43	3.9170	3.9170	0.9088	26.15	0.23	0.750			
0.2903	18580.37	3.9140	3.9140	0.9143	26.16	0.24	0.750			
0.2931	18755.47	3.9110	3.9109	0.9136	26.16	0.24	0.750			
0.2958	18931.59	3.9080	3.9081	0.9162	26.16	0.24	0.750			
0.2986	19108.83	3.9050	3.9050	0.9260	26.16	0.24	0.750			
0.3014	19287.19	3.9020	3.9020	0.9301	26.16	0.24	0.750			
0.3041	19465.43	3.8990	3.8989	0.9328	26.16	0.24	0.750			
0.3070	19645.16	3.8960	3.8960	0.9344	26.16	0.24	0.750			
0.3098	19824.81	3.8930	3.8930	0.9393	26.16	0.24	0.750			
0.3126	20006.74	3.8900	3.8900	0.9454	26.16	0.24	0.750			
0.3154	20188.16	3.8870	3.8870	0.9494	26.16	0.24	0.750			
0.3183	20370.17	3.8840	3.8840	0.9502	26.16	0.24	0.750			
0.3211	20553.46	3.8810	3.8810	0.9520	26.16	0.24	0.750			
0.3240	20736.37	3.8780	3.8780	0.9572	26.16	0.24	0.750			
0.3269	20920.26	3.8750	3.8750	0.9640	26.16	0.24	0.750			
0.3298	21105.19	3.8720	3.8719	0.9664	26.16	0.24	0.750			
0.3327	21292.11	3.8690	3.8690	0.9673	26.16	0.24	0.750			
0.3356	21477.80	3.8660	3.8660	0.9725	26.15	0.23	0.750			
0.3385	21666.04	3.8630	3.8630	0.9783	26.15	0.23	0.750			
0.3414	21852.66	3.8600	3.8599	0.9802	26.14	0.22	0.750			
0.3444	22040.58	3.8570	3.8570	0.9888	26.14	0.22	0.750			
0.3474	22230.69	3.8540	3.8540	0.9944	26.13	0.21	0.750			
0.3504	22423.76	3.8510	3.8510	1.0038	26.13	0.21	0.750			
0.3534	22619.00	3.8480	3.8480	1.0126	26.12	0.20	0.750			
0.3565	22813.87	3.8450	3.8450	1.0134	26.12	0.20	0.750			
0.3595	23007.61	3.8420	3.8421	1.0248	26.11	0.19	0.750			
0.3626	23205.06	3.8390	3.8390	1.0308	26.11	0.19	0.750			
0.3657	23403.20	3.8360	3.8361	1.0364	26.10	0.18	0.750			
0.3688	23603.85	3.8330	3.8330	1.0448	26.10	0.18	0.750			
0.3719	23804.34	3.8300	3.8301	1.0561	26.09	0.17	0.750			
0.3751	24007.50	3.8270	3.8269	1.0647	26.09	0.17	0.750			
0.3783	24212.79	3.8240	3.8240	1.0745	26.08	0.16	0.750			
0.3816	24419.35	3.8210	3.8211	1.0824	26.08	0.16	0.750			
0.3848	24629.95	3.8180	3.8180	1.0975	26.07	0.15	0.750			
0.3882	24842.06	3.8150	3.8151	1.1060	26.07	0.15	0.750			
0.3915	25054.83	3.8120	3.8120	1.1151	26.06	0.14	0.750			
0.3948	25268.97	3.8090	3.8090	1.1262	26.06	0.14	0.750			
0.3982	25485.92	3.8060	3.8060	1.1418	26.05	0.13	0.750			
0.4016	25704.72	3.8030	3.8030	1.1584	26.05	0.13	0.750			
0.4051	25929.11	3.8000	3.8000	1.1721	26.04	0.12	0.750			
0.4087	26156.92	3.7970	3.7970	1.1894	26.03	0.11	0.750			
0.4123	26387.90	3.7940	3.7940	1.2070	26.02	0.10	0.750			
0.4160	26621.32	3.7910	3.7910	1.2185	26.01	0.09	0.750			
0.4196	26854.87	3.7880	3.7880	1.2365	26.00	0.08	0.750			
0.4233	27092.42	3.7850	3.7850	1.2526	26.00	0.08	0.750			
0.4271	27335.93	3.7820	3.7820	1.2719	25.99	0.07	0.750			
0.4310	27581.90	3.7790	3.7790	1.2978	25.98	0.06	0.750			
0.4349	27832.28	3.7760	3.7760	1.3193	25.96	0.04	0.750			
0.4389	28089.94	3.7730	3.7730	1.3390	25.95	0.03	0.750			
0.4429	28348.40	3.7700	3.7699	1.3643	25.94	0.02	0.750			
0.4470	28610.33	3.7670	3.7670	1.3881	25.93	0.01	0.750			
0.4513	28880.87	3.7640	3.7640	1.4124	25.93	0.01	0.750			
0.4555	29153.59	3.7610	3.7610	1.4334	25.92	-0.00	0.750			
0.4598	29429.50	3.7580	3.7581	1.4568	25.91	-0.01	0.750			
0.4642	29711.65	3.7550	3.7551	1.4858	25.90	-0.02	0.750			
0.4688	30000.51	3.7520	3.7518	1.5142	25.89	-0.03	0.750			
0.4733	30291.83	3.7490	3.7489	1.5501	25.88	-0.04	0.750			
0.4780	30594.69	3.7460	3.7461	1.5774	25.86	-0.06	0.750			
0.4829	30903.06	3.7430	3.7430	1.6135	25.85	-0.07	0.750			
0.4877	31215.42	3.7400	3.7400	1.6466	25.84	-0.08	0.750			
0.4928	31536.33	3.7370	3.7371	1.6840	25.82	-0.10	0.750			
0.4978	31859.35	3.7340	3.7340	1.7241	25.81	-0.11	0.750			
0.5030	32192.38	3.7310	3.7310	1.7742	25.80	-0.12	0.750			
0.5084	32535.24	3.7280	3.7279	1.8154	25.79	-0.13	0.750			
0.5140	32894.52	3.7250	3.7250	1.8692	25.79	-0.13	0.750			
0.5196	33256.03	3.7220	3.7221	1.9214	25.77	-0.15	0.750			
0.5255	33630.05	3.7190	3.7190	1.9662	25.76	-0.16	0.750			
0.5314	34009.27	3.7160	3.7160	2.0078	25.75	-0.17	0.750			
0.5374	34396.73	3.7130	3.7131	2.0690	25.74	-0.18	0.750	0.354	0.488	
0.5438	34803.46	3.7100	3.7100	2.1166	25.73	-0.19	0.750			
0.5502	35213.93	3.7070	3.7071	2.1641	25.71	-0.21	0.750			
0.5568	35637.10	3.7040	3.7040	2.2156	25.70	-0.22	0.750			
0.5635	36061.38	3.7010	3.7010	2.2800	25.69	-0.23	0.750			
0.5703	36501.72	3.6980	3.6981	2.3435	25.68	-0.24	0.750			
0.5776	36963.78	3.6950	3.6950	2.4073	25.66	-0.26	0.750			
0.5849	37433.13	3.6920	3.6920	2.4636	25.65	-0.27	0.750			
0.5923	37909.33	3.6890	3.6889	2.5206	25.64	-0.28	0.750			
0.5999	38391.06	3.6860	3.6860	2.5764	25.63	-0.29	0.750			
0.6078	38897.91	3.6830	3.6828	2.6395	25.62	-0.30	0.750			
0.6159	39414.49	3.6800	3.6800	2.6809	25.60	-0.32	0.750			
0.6240	39938.09	3.6770	3.6768	2.7229	25.60	-0.32	0.750			
0.6323	40465.84	3.6740	3.6739	2.6882	25.60	-0.32	0.750			
0.6403	40977.21	3.6710	3.6710	2.6382	25.58	-0.34	0.750			
0.6482	41486.17	3.6680	3.6680	2.5012	25.58	-0.34	0.750			
0.6555	41948.90	3.6650	3.6651	2.3273	25.58	-0.34	0.750			
0.6622	42382.63	3.6620	3.6619	2.1595	25.58	-0.34	0.750			
0.6684	42777.08	3.6590	3.6589	1.9662	25.58	-0.34	0.750			
0.6739	43129.67	3.6560	3.6561	1.7963	25.58	-0.34	0.750			
0.6791	43459.51	3.6530	3.6529	1.6643	25.58	-0.34	0.750			
0.6837	43758.80	3.6500	3.6501	1.5512	25.59	-0.33	0.750			
0.6881	44039.70	3.6470	3.6470	1.4492	25.59	-0.33	0.750			
0.6923	44305.54	3.6440	3.6439	1.3772	25.60	-0.32	0.750			
0.6963	44560.41	3.6410	3.6410	1.3235	25.60	-0.32	0.750			
0.7001	44808.67	3.6380	3.6381	1.2823	25.61	-0.31	0.750			
0.7039	45052.22	3.6350	3.6349	1.2458	25.61	-0.31	0.750			
0.7076	45284.69	3.6320	3.6320	1.2176	25.61	-0.31	0.750			
0.7111	45512.69	3.6290	3.6291	1.2010	25.61	-0.31	0.750			
0.7147	45741.24	3.6260	3.6260	1.1910	25.62	-0.30	0.750			
0.7182	45967.51	3.6230	3.6231	1.1818	25.62	-0.30	0.750			
0.7218	46193.16	3.6200	3.6200	1.1806	25.63	-0.29	0.750			
0.7253	46420.76	3.6170	3.6171	1.1836	25.63	-0.29	0.750			
0.7289	46650.10	3.6140	3.6140	1.1787	25.64	-0.28	0.750			
0.7324	46875.17	3.6110	3.6110	1.1709	25.64	-0.28	0.750			
0.7359	47099.36	3.6080	3.6081	1.1692	25.65	-0.27	0.750			
0.7394	47322.26	3.6050	3.6051	1.1724	25.66	-0.26	0.750			
0.7429	47547.96	3.6020	3.6019	1.1698	25.66	-0.26	0.750			
0.7464	47769.48	3.5990	3.5990	1.1858	25.66	-0.26	0.750			
0.7499	47994.41	3.5960	3.5961	1.2088	25.67	-0.25	0.750			
0.7536	48228.80	3.5930	3.5929	1.2410	25.67	-0.25	0.750			
0.7573	48469.94	3.5900	3.5900	1.2726	25.67	-0.25	0.750			
0.7612	48716.87	3.5870	3.5870	1.3076	25.68	-0.24	0.750			
0.7652	48972.45	3.5840	3.5841	1.3439	25.68	-0.24	0.750			
0.7693	49235.78	3.5810	3.5810	1.3852	25.68	-0.24	0.750			
0.7735	49502.82	3.5780	3.5780	1.4126	25.68	-0.24	0.750			
0.7778	49776.58	3.5750	3.5750	1.4552	25.68	-0.24	0.750			
0.7822	50060.24	3.5720	3.5720	1.4922	25.68	-0.24	0.750			
0.7868	50352.32	3.5690	3.5690	1.5249	25.69	-0.23	0.750			
0.7914	50647.99	3.5660	3.5660	1.5583	25.70	-0.22	0.750			
0.7962	50955.34	3.5630	3.5630	1.5779	25.71	-0.21	0.750			
0.8010	51261.93	3.5600	3.5600	1.5837	25.71	-0.21	0.750			
0.8058	51569.65	3.5570	3.5570	1.5881	25.72	-0.20	0.750			
0.8105	51871.60	3.5540	3.5540	1.5860	25.72	-0.20	0.750			
0.8153	52177.65	3.5510	3.5510	1.5829	25.72	-0.20	0.750			
0.8200	52480.29	3.5480	3.5480	1.5728	25.73	-0.19	0.750			
0.8247	52781.35	3.5450	3.5450	1.5619	25.74	-0.18	0.750			
0.8296	53092.16	3.5420	3.5419	1.5035	25.75	-0.17	0.750			
0.8342	53390.00	3.5390	3.5388	1.4309	25.76	-0.16	0.750			
0.8386	53667.48	3.5360	3.5361	1.2806	25.76	-0.16	0.750			
0.8424	53910.59	3.5330	3.5330	1.1188	25.77	-0.15	0.750			
0.8454	54106.81	3.5300	3.5302	0.9348	25.79	-0.13	0.750			
0.8479	54262.84	3.5270	3.5269	0.7539	25.80	-0.12	0.750			
0.8495	54370.04	3.5240	3.5239	0.6026	25.81	-0.11	0.750			
0.8510	54463.32	3.5210	3.5209	0.4901	25.82	-0.10	0.750			
0.8522	54540.26	3.5180	3.5179	0.4139	25.82	-0.10	0.750			
0.8533	54611.15	3.5150	3.5150	0.3734	25.83	-0.09	0.750			
0.8543	54676.25	3.5120	3.5120	0.3409	25.84	-0.08	0.750			
0.8553	54738.82	3.5090	3.5090	0.3211	25.84	-0.08	0.750			
0.8562	54797.37	3.5060	3.5060	0.3029	25.85	-0.07	0.750			
0.8571	54853.57	3.5030	3.5031	0.2912	25.85	-0.07	0.750			
0.8579	54907.92	3.5000	3.4999	0.2807	25.86	-0.06	0.750			
0.8588	54960.39	3.4970	3.4970	0.2705	25.86	-0.06	0.750			
0.8596	55011.42	3.4940	3.4940	0.2632	25.87	-0.05	0.750			
0.8603	55060.93	3.4910	3.4911	0.2556	25.87	-0.05	0.750			
0.8611	55109.67	3.4880	3.4880	0.2497	25.88	-0.04	0.750			
0.8618	55156.54	3.4850	3.4850	0.2422	25.88	-0.04	0.750			
0.8625	55202.19	3.4820	3.4820	0.2367	25.89	-0.03	0.750			
0.8632	55246.87	3.4790	3.4790	0.2309	25.89	-0.03	0.750			
0.8639	55290.51	3.4760	3.4760	0.2260	25.90	-0.02	0.750			
0.8646	55333.48	3.4730	3.4730	0.2215	25.90	-0.02	0.750			
0.8652	55375.51	3.4700	3.4700	0.2159	25.91	-0.01	0.750			
0.8659	55416.64	3.4670	3.4670	0.2117	25.91	-0.01	0.750			
0.8665	55456.70	3.4640	3.4640	0.2069	25.91	-0.01	0.750			
0.8671	55495.98	3.4610	3.4610	0.2022	25.92	-0.00	0.750			
0.8677	55534.22	3.4580	3.4580	0.1973	25.92	0.00	0.750			
0.8683	55571.72	3.4550	3.4550	0.1929	25.93	0.01	0.750			
0.8689	55608.27	3.4520	3.4520	0.1880	25.93	0.01	0.750			
0.8694	55643.94	3.4490	3.4491	0.1835	25.93	0.01	0.750			
0.8700	55679.01	3.4460	3.4460	0.1791	25.94	0.02	0.750			
0.8705	55712.84	3.4430	3.4429	0.1739	25.94	0.02	0.750			
0.8710	55745.55	3.4400	3.4400	0.1693	25.94	0.02	0.750			
0.8715	55777.64	3.4370	3.4371	0.1649	25.95	0.03	0.750			
0.8720	55808.88	3.4340	3.4340	0.1605	25.95	0.03	0.750			
0.8725	55839.23	3.4310	3.4310	0.1558	25.95	0.03	0.750			
0.8730	55868.85	3.4280	3.4280	0.1514	25.96	0.04	0.750			
0.8734	55897.48	3.4250	3.4251	0.1468	25.96	0.04	0.750			
0.8738	55925.37	3.4220	3.4220	0.1419	25.96	0.04	0.750			
0.8743	55952.12	3.4190	3.4190	0.1374	25.96	0.04	0.750			
0.8747	55977.86	3.4160	3.4159	0.1321	25.97	0.05	0.750			
0.8750	56002.83	3.4130	3.4131	0.1274	25.97	0.05	0.750			
0.8754	56026.86	3.4100	3.4100	0.1227	25.97	0.05	0.750			
0.8758	56050.09	3.4070	3.4069	0.1177	25.97	0.05	0.750			
0.8761	56072.29	3.4040	3.4040	0.1129	25.98	0.06	0.750			
0.8765	56093.65	3.4010	3.4011	0.1074	25.98	0.06	0.750			
0.8768	56113.95	3.3980	3.3980	0.1023	25.98	0.06	0.750			
0.8771	56133.03	3.3950	3.3949	0.0965	25.98	0.06	0.750			
0.8774	56151.93	3.3920	3.3918	0.0890	25.98	0.06	0.750			
0.8776	56168.24	3.3890	3.3891	0.0809	25.99	0.07	0.750			
0.8779	56183.66	3.3860	3.3860	0.0742	25.99	0.07	0.750			
0.8781	56197.06	3.3830	3.3833	0.0654	25.99	0.07	0.750			
0.8783	56209.54	3.3800	3.3803	0.0568	25.99	0.07	0.750			
0.8784	56219.51	3.3770	3.3776	0.0470	25.99	0.07	0.750			
0.8786	56227.58	3.3740	3.3750	0.0371	25.99	0.07	0.750			
0.8787	56233.76	3.3710	3.3726	0.0273	25.99	0.07	0.750			
