Ah_balance (normalized)	Ah_balance (mAh)	Voltage - fit (V)	Voltage -  interpolate (V)	dQ/dV (1/V)	Temperature (°C)	Temperature - diff (°C)	Current (C)	R_DC 0ms (mOhm)	R_DC 50ms (mOhm)	R_DC 50 ms PEC (mOhm)
0.2028	12979.31	3.9090	3.9089	-0.1609	25.97	-0.01	-1.500			
0.2033	13011.87	3.9060	3.9061	-0.1876	25.97	-0.01	-1.500			
0.2039	13050.73	3.9030	3.9030	-0.2185	25.97	-0.01	-1.500			
0.2046	13095.77	3.9000	3.8999	-0.2489	25.97	-0.01	-1.500			
0.2054	13146.05	3.8970	3.8970	-0.2797	25.97	-0.01	-1.500			
0.2063	13202.84	3.8940	3.8941	-0.3116	25.97	-0.01	-1.500			
0.2073	13265.65	3.8910	3.8910	-0.3444	25.97	-0.01	-1.500			
0.2084	13334.49	3.8880	3.8880	-0.3775	25.97	-0.01	-1.500			
0.2095	13409.97	3.8850	3.8850	-0.4114	25.97	-0.01	-1.500			
0.2108	13492.24	3.8820	3.8820	-0.4459	25.98	-0.00	-1.500			
0.2122	13580.97	3.8790	3.8790	-0.4832	25.98	-0.00	-1.500			
0.2137	13677.08	3.8760	3.8760	-0.5175	25.98	-0.00	-1.500			
0.2153	13780.49	3.8730	3.8730	-0.5511	25.98	-0.00	-1.500			
0.2170	13890.24	3.8700	3.8700	-0.5809	25.98	0.00	-1.500			
0.2188	14004.81	3.8670	3.8670	-0.6115	25.98	0.00	-1.500			
0.2207	14125.99	3.8640	3.8640	-0.6393	25.98	0.00	-1.500			
0.2227	14251.09	3.8610	3.8609	-0.6666	25.98	0.00	-1.500			
0.2247	14381.51	3.8580	3.8580	-0.6895	25.99	0.01	-1.500			
0.2268	14517.23	3.8550	3.8551	-0.7138	25.99	0.01	-1.500			
0.2290	14657.53	3.8520	3.8520	-0.7364	25.99	0.01	-1.500			
0.2313	14802.01	3.8490	3.8490	-0.7507	25.99	0.01	-1.500			
0.2336	14948.65	3.8460	3.8460	-0.7651	25.99	0.01	-1.500			
0.2359	15097.64	3.8430	3.8430	-0.7764	26.00	0.02	-1.500			
0.2383	15248.33	3.8400	3.8400	-0.7845	26.00	0.02	-1.500			
0.2406	15400.02	3.8370	3.8370	-0.7925	26.00	0.02	-1.500			
0.2430	15552.41	3.8340	3.8339	-0.8005	26.00	0.02	-1.500			
0.2454	15706.16	3.8310	3.8310	-0.8094	26.01	0.03	-1.500			
0.2479	15863.05	3.8280	3.8280	-0.8163	26.01	0.03	-1.500			
0.2503	16019.57	3.8250	3.8250	-0.8212	26.02	0.04	-1.500			
0.2528	16181.00	3.8220	3.8220	-0.8260	26.02	0.04	-1.500			
0.2553	16339.38	3.8190	3.8190	-0.8296	26.03	0.05	-1.500			
0.2578	16497.86	3.8160	3.8161	-0.8342	26.03	0.05	-1.500			
0.2603	16657.87	3.8130	3.8130	-0.8389	26.04	0.06	-1.500			
0.2628	16819.16	3.8100	3.8099	-0.8436	26.04	0.06	-1.500			
0.2654	16982.77	3.8070	3.8070	-0.8489	26.05	0.07	-1.500			
0.2679	17147.11	3.8040	3.8040	-0.8512	26.05	0.07	-1.500			
0.2705	17311.58	3.8010	3.8010	-0.8520	26.06	0.08	-1.500			
0.2730	17473.57	3.7980	3.7979	-0.8495	26.07	0.09	-1.500			
0.2756	17636.08	3.7950	3.7951	-0.8529	26.08	0.10	-1.500			
0.2781	17800.48	3.7920	3.7920	-0.8564	26.08	0.10	-1.500			
0.2807	17965.91	3.7890	3.7890	-0.8566	26.09	0.11	-1.500			
0.2833	18130.16	3.7860	3.7860	-0.8630	26.10	0.12	-1.500			
0.2859	18297.14	3.7830	3.7830	-0.8650	26.10	0.12	-1.500			
0.2885	18463.33	3.7800	3.7800	-0.8662	26.11	0.13	-1.500			
0.2911	18628.78	3.7770	3.7771	-0.8700	26.12	0.14	-1.500			
0.2937	18796.38	3.7740	3.7740	-0.8729	26.13	0.15	-1.500			
0.2963	18964.42	3.7710	3.7710	-0.8783	26.14	0.16	-1.500			
0.2990	19133.59	3.7680	3.7680	-0.8823	26.14	0.16	-1.500			
0.3016	19302.38	3.7650	3.7650	-0.8838	26.15	0.17	-1.500			
0.3043	19475.14	3.7620	3.7620	-0.8858	26.16	0.18	-1.500			
0.3069	19644.03	3.7590	3.7591	-0.8869	26.17	0.19	-1.500			
0.3096	19814.03	3.7560	3.7560	-0.8861	26.18	0.20	-1.500			
0.3123	19985.13	3.7530	3.7529	-0.8877	26.19	0.21	-1.500			
0.3149	20154.90	3.7500	3.7500	-0.8866	26.20	0.22	-1.500			
0.3176	20324.72	3.7470	3.7471	-0.8907	26.20	0.22	-1.500			
0.3203	20496.36	3.7440	3.7440	-0.8935	26.21	0.23	-1.500			
0.3229	20668.64	3.7410	3.7410	-0.8971	26.22	0.24	-1.500			
0.3256	20840.15	3.7380	3.7380	-0.8964	26.23	0.25	-1.500			
0.3283	21013.55	3.7350	3.7350	-0.9007	26.23	0.25	-1.500			
0.3310	21186.10	3.7320	3.7321	-0.9078	26.24	0.26	-1.500			
0.3338	21361.54	3.7290	3.7290	-0.9076	26.25	0.27	-1.500			
0.3365	21535.87	3.7260	3.7259	-0.9079	26.26	0.28	-1.500			
0.3392	21711.58	3.7230	3.7230	-0.9077	26.26	0.28	-1.500			
0.3419	21884.74	3.7200	3.7201	-0.9108	26.27	0.29	-1.500			
0.3447	22060.00	3.7170	3.7170	-0.9104	26.28	0.30	-1.500			
0.3474	22234.79	3.7140	3.7139	-0.9122	26.29	0.31	-1.500			
0.3502	22409.68	3.7110	3.7111	-0.9116	26.29	0.31	-1.500			
0.3529	22585.58	3.7080	3.7080	-0.9196	26.30	0.32	-1.500			
0.3556	22761.14	3.7050	3.7051	-0.9236	26.31	0.33	-1.500			
0.3584	22939.90	3.7020	3.7019	-0.9311	26.32	0.34	-1.500			
0.3612	23119.07	3.6990	3.6990	-0.9299	26.33	0.35	-1.500			
0.3641	23299.82	3.6960	3.6960	-0.9342	26.33	0.35	-1.500			
0.3669	23478.63	3.6930	3.6932	-0.9354	26.34	0.36	-1.500			
0.3697	23657.88	3.6900	3.6899	-0.9442	26.35	0.37	-1.500			
0.3725	23837.83	3.6870	3.6870	-0.9499	26.35	0.37	-1.500			
0.3753	24018.21	3.6840	3.6840	-0.9607	26.36	0.38	-1.500			
0.3782	24207.06	3.6810	3.6810	-0.9749	26.37	0.39	-1.500			
0.3812	24395.14	3.6780	3.6780	-0.9899	26.38	0.40	-1.500			
0.3842	24586.97	3.6750	3.6750	-1.0014	26.38	0.40	-1.500			
0.3872	24780.30	3.6720	3.6719	-1.0109	26.39	0.41	-1.500			
0.3902	24974.22	3.6690	3.6690	-1.0194	26.40	0.42	-1.500			
0.3933	25171.11	3.6660	3.6659	-1.0387	26.40	0.42	-1.500			
0.3964	25370.57	3.6630	3.6630	-1.0521	26.41	0.43	-1.500			
0.3996	25574.30	3.6600	3.6600	-1.0732	26.41	0.43	-1.500			
0.4028	25780.18	3.6570	3.6570	-1.0856	26.42	0.44	-1.500			
0.4061	25992.30	3.6540	3.6540	-1.1204	26.42	0.44	-1.500			
0.4095	26209.84	3.6510	3.6510	-1.1461	26.43	0.45	-1.500			
0.4130	26432.60	3.6480	3.6480	-1.1700	26.43	0.45	-1.500			
0.4166	26659.41	3.6450	3.6452	-1.1972	26.44	0.46	-1.500			
0.4202	26893.70	3.6420	3.6420	-1.2223	26.44	0.46	-1.500			
0.4239	27128.94	3.6390	3.6390	-1.2533	26.45	0.47	-1.500			
0.4277	27371.97	3.6360	3.6361	-1.2861	26.45	0.47	-1.500			
0.4316	27620.46	3.6330	3.6329	-1.3147	26.45	0.47	-1.500			
0.4356	27875.73	3.6300	3.6300	-1.3496	26.46	0.48	-1.500			
0.4397	28138.91	3.6270	3.6270	-1.3809	26.46	0.48	-1.500			
0.4438	28406.28	3.6240	3.6239	-1.4134	26.46	0.48	-1.500			
0.4482	28683.03	3.6210	3.6210	-1.4458	26.46	0.48	-1.500			
0.4525	28961.43	3.6180	3.6180	-1.4771	26.46	0.48	-1.500			
0.4570	29249.85	3.6150	3.6150	-1.5090	26.47	0.49	-1.500			
0.4616	29544.35	3.6120	3.6119	-1.5383	26.47	0.49	-1.500			
0.4662	29839.85	3.6090	3.6092	-1.5733	26.47	0.49	-1.500			
0.4710	30145.79	3.6060	3.6060	-1.6076	26.47	0.49	-1.500			
0.4759	30455.47	3.6030	3.6030	-1.6466	26.47	0.49	-1.500			
0.4809	30776.08	3.6000	3.6000	-1.6849	26.48	0.50	-1.500			
0.4860	31104.55	3.5970	3.5970	-1.7240	26.48	0.50	-1.500			
0.4912	31438.86	3.5940	3.5941	-1.7557	26.48	0.50	-1.500			
0.4965	31778.91	3.5910	3.5910	-1.7887	26.48	0.50	-1.500			
0.5020	32125.18	3.5880	3.5879	-1.8064	26.48	0.50	-1.500			
0.5074	32474.49	3.5850	3.5850	-1.8345	26.48	0.50	-1.500			
0.5129	32828.63	3.5820	3.5819	-1.8522	26.48	0.50	-1.500			
0.5185	33187.05	3.5790	3.5790	-1.8908	26.48	0.50	-1.500			
0.5243	33553.46	3.5760	3.5760	-1.9241	26.48	0.50	-1.500			
0.5301	33928.23	3.5730	3.5729	-1.9493	26.48	0.50	-1.500			
0.5360	34303.41	3.5700	3.5700	-1.9614	26.48	0.50	-1.500			
0.5420	34686.34	3.5670	3.5672	-1.9917	26.48	0.50	-1.500			
0.5479	35067.93	3.5640	3.5640	-2.0243	26.48	0.50	-1.500			
0.5541	35461.87	3.5610	3.5609	-2.0419	26.48	0.50	-1.500			
0.5602	35853.90	3.5580	3.5580	-2.0528	26.48	0.50	-1.500			
0.5665	36253.56	3.5550	3.5551	-2.0814	26.48	0.50	-1.500	0.397	0.504	
0.5727	36655.32	3.5520	3.5519	-2.1078	26.49	0.51	-1.500			
0.5791	37060.45	3.5490	3.5490	-2.1227	26.49	0.51	-1.500			
0.5854	37466.35	3.5460	3.5460	-2.1270	26.50	0.52	-1.500			
0.5919	37881.56	3.5430	3.5432	-2.1488	26.50	0.52	-1.500			
0.5984	38298.12	3.5400	3.5400	-2.1686	26.51	0.53	-1.500			
0.6049	38716.40	3.5370	3.5370	-2.1760	26.51	0.53	-1.500			
0.6114	39131.71	3.5340	3.5339	-2.1545	26.52	0.54	-1.500			
0.6180	39549.70	3.5310	3.5311	-2.1540	26.52	0.54	-1.500			
0.6244	39964.63	3.5280	3.5281	-2.1487	26.53	0.55	-1.500			
0.6309	40378.48	3.5250	3.5249	-2.1243	26.54	0.56	-1.500			
0.6372	40780.13	3.5220	3.5220	-2.0855	26.54	0.56	-1.500			
0.6435	41181.14	3.5190	3.5191	-2.0656	26.55	0.57	-1.500			
0.6497	41577.93	3.5160	3.5159	-2.0450	26.57	0.59	-1.500			
0.6557	41964.36	3.5130	3.5130	-2.0039	26.58	0.60	-1.500			
0.6616	42344.45	3.5100	3.5100	-1.9740	26.59	0.61	-1.500			
0.6676	42725.51	3.5070	3.5071	-1.9564	26.60	0.62	-1.500			
0.6734	43098.56	3.5040	3.5039	-1.9302	26.61	0.63	-1.500			
0.6791	43463.99	3.5010	3.5010	-1.8937	26.63	0.65	-1.500			
0.6847	43823.53	3.4980	3.4980	-1.8595	26.64	0.66	-1.500			
0.6904	44182.64	3.4950	3.4951	-1.8442	26.65	0.67	-1.500			
0.6958	44529.52	3.4920	3.4920	-1.8266	26.66	0.68	-1.500			
0.7012	44876.10	3.4890	3.4889	-1.7950	26.68	0.70	-1.500			
0.7065	45219.01	3.4860	3.4860	-1.7760	26.69	0.71	-1.500			
0.7118	45557.17	3.4830	3.4830	-1.7478	26.71	0.73	-1.500			
0.7172	45897.74	3.4800	3.4801	-1.7268	26.72	0.74	-1.500			
0.7223	46226.70	3.4770	3.4770	-1.6927	26.74	0.76	-1.500			
0.7273	46547.42	3.4740	3.4740	-1.6741	26.75	0.77	-1.500			
0.7323	46866.08	3.4710	3.4710	-1.6425	26.76	0.78	-1.500			
0.7372	47179.56	3.4680	3.4678	-1.6160	26.78	0.80	-1.500			
0.7420	47485.41	3.4650	3.4652	-1.5883	26.79	0.81	-1.500			
0.7467	47789.23	3.4620	3.4620	-1.5666	26.81	0.83	-1.500			
0.7513	48086.01	3.4590	3.4590	-1.5524	26.83	0.85	-1.500			
0.7560	48382.73	3.4560	3.4559	-1.5228	26.84	0.86	-1.500			
0.7605	48674.98	3.4530	3.4529	-1.5059	26.86	0.88	-1.500			
0.7650	48961.75	3.4500	3.4499	-1.4894	26.88	0.90	-1.500			
0.7694	49244.54	3.4470	3.4469	-1.4777	26.89	0.91	-1.500			
0.7738	49525.54	3.4440	3.4439	-1.4623	26.91	0.93	-1.500			
0.7781	49801.29	3.4410	3.4410	-1.4538	26.93	0.95	-1.500			
0.7825	50081.95	3.4380	3.4380	-1.4584	26.94	0.96	-1.500			
0.7869	50363.39	3.4350	3.4350	-1.4557	26.96	0.98	-1.500			
0.7913	50640.80	3.4320	3.4321	-1.4443	26.98	1.00	-1.500			
0.7956	50916.87	3.4290	3.4290	-1.4316	27.00	1.02	-1.500			
0.7999	51191.60	3.4260	3.4260	-1.4211	27.02	1.04	-1.500			
0.8042	51465.87	3.4230	3.4230	-1.4085	27.03	1.05	-1.500			
0.8084	51736.76	3.4200	3.4199	-1.3915	27.05	1.07	-1.500			
0.8125	52002.39	3.4170	3.4170	-1.3643	27.07	1.09	-1.500			
0.8166	52262.05	3.4140	3.4141	-1.3347	27.09	1.11	-1.500			
0.8206	52516.25	3.4110	3.4110	-1.3057	27.11	1.13	-1.500			
0.8244	52764.04	3.4080	3.4079	-1.2703	27.13	1.15	-1.500			
0.8282	53004.70	3.4050	3.4050	-1.2255	27.14	1.16	-1.500			
0.8319	53239.90	3.4020	3.4020	-1.1862	27.16	1.18	-1.500			
0.8354	53462.76	3.3990	3.3989	-1.1322	27.18	1.20	-1.500			
0.8387	53676.87	3.3960	3.3961	-1.0845	27.19	1.21	-1.500			
0.8419	53878.97	3.3930	3.3931	-1.0319	27.19	1.21	-1.500			
0.8448	54069.44	3.3900	3.3900	-0.9830	27.21	1.23	-1.500			
0.8477	54252.88	3.3870	3.3870	-0.9462	27.23	1.25	-1.500			
0.8505	54429.55	3.3840	3.3840	-0.9107	27.24	1.26	-1.500			
0.8531	54600.71	3.3810	3.3809	-0.8775	27.26	1.28	-1.500			
0.8557	54766.02	3.3780	3.3780	-0.8405	27.27	1.29	-1.500			
0.8582	54925.21	3.3750	3.3751	-0.8059	27.29	1.31	-1.500			
0.8606	55076.45	3.3720	3.3720	-0.7762	27.30	1.32	-1.500			
0.8628	55220.46	3.3690	3.3690	-0.7419	27.30	1.32	-1.500			
0.8650	55359.26	3.3660	3.3659	-0.7148	27.31	1.33	-1.500			
0.8671	55493.76	3.3630	3.3630	-0.6853	27.31	1.33	-1.500			
0.8691	55622.52	3.3600	3.3601	-0.6603	27.32	1.34	-1.500			
0.8711	55747.33	3.3570	3.3570	-0.6354	27.33	1.35	-1.500			
0.8729	55865.20	3.3540	3.3541	-0.6115	27.34	1.36	-1.500			
0.8747	55980.48	3.3510	3.3508	-0.5929	27.35	1.37	-1.500			
0.8764	56090.93	3.3480	3.3481	-0.5735	27.36	1.38	-1.500			
0.8781	56199.38	3.3450	3.3450	-0.5585	27.37	1.39	-1.500			
0.8798	56306.73	3.3420	3.3420	-0.5462	27.37	1.39	-1.500			
0.8814	56410.31	3.3390	3.3390	-0.5254	27.38	1.40	-1.500			
0.8830	56509.55	3.3360	3.3360	-0.5072	27.39	1.41	-1.500			
0.8844	56604.75	3.3330	3.3331	-0.4850	27.40	1.42	-1.500			
0.8859	56695.58	3.3300	3.3300	-0.4658	27.40	1.42	-1.500			
0.8872	56782.13	3.3270	3.3270	-0.4482	27.41	1.43	-1.500			
0.8885	56865.89	3.3240	3.3241	-0.4317	27.41	1.43	-1.500			
0.8898	56946.55	3.3210	3.3210	-0.4168	27.42	1.44	-1.500			
0.8910	57025.10	3.3180	3.3180	-0.4061	27.42	1.44	-1.500			
0.8922	57102.64	3.3150	3.3151	-0.3924	27.42	1.44	-1.500			
0.8934	57177.20	3.3120	3.3120	-0.3813	27.43	1.45	-1.500			
0.8945	57248.96	3.3090	3.3089	-0.3678	27.44	1.46	-1.500			
0.8956	57318.20	3.3060	3.3061	-0.3544	27.44	1.46	-1.500			
0.8966	57384.78	3.3030	3.3028	-0.3417	27.45	1.47	-1.500			
0.8976	57448.75	3.3000	3.3000	-0.3295	27.45	1.47	-1.500			
0.8986	57510.21	3.2970	3.2970	-0.3167	27.46	1.48	-1.500			
0.8995	57570.52	3.2940	3.2940	-0.3061	27.46	1.48	-1.500			
0.9004	57628.55	3.2910	3.2910	-0.2956	27.46	1.48	-1.500			
0.9013	57683.32	3.2880	3.2881	-0.2851	27.47	1.49	-1.500			
0.9021	57737.17	3.2850	3.2848	-0.2755	27.47	1.49	-1.500			
0.9029	57788.66	3.2820	3.2820	-0.2669	27.48	1.50	-1.500			
0.9037	57839.25	3.2790	3.2790	-0.2580	27.48	1.50	-1.500			
0.9045	57888.19	3.2760	3.2760	-0.2501	27.48	1.50	-1.500			
0.9052	57935.68	3.2730	3.2729	-0.2417	27.49	1.51	-1.500			
0.9059	57980.71	3.2700	3.2701	-0.2333	27.49	1.51	-1.500			
0.9066	58024.63	3.2670	3.2669	-0.2253	27.49	1.51	-1.500			
0.9073	58067.04	3.2640	3.2640	-0.2174	27.50	1.52	-1.500			
0.9079	58108.05	3.2610	3.2610	-0.2099	27.50	1.52	-1.500			
0.9085	58146.93	3.2580	3.2581	-0.2029	27.50	1.52	-1.500			
0.9091	58185.44	3.2550	3.2551	-0.1979	27.51	1.53	-1.500			
0.9097	58222.87	3.2520	3.2520	-0.1921	27.51	1.53	-1.500			
0.9103	58258.83	3.2490	3.2488	-0.1867	27.51	1.53	-1.500			
0.9108	58294.05	3.2460	3.2461	-0.1811	27.52	1.54	-1.500			
0.9114	58328.58	3.2430	3.2431	-0.1765	27.52	1.54	-1.500			
0.9119	58361.96	3.2400	3.2400	-0.1712	27.52	1.54	-1.500			
0.9124	58394.38	3.2370	3.2371	-0.1670	27.52	1.54	-1.500			
0.9129	58425.69	3.2340	3.2340	-0.1621	27.53	1.55	-1.500			
0.9134	58456.30	3.2310	3.2308	-0.1576	27.53	1.55	-1.500			
0.9138	58486.16	3.2280	3.2281	-0.1535	27.53	1.55	-1.500			
0.9143	58515.12	3.2250	3.2250	-0.1498	27.54	1.56	-1.500			
0.9147	58543.57	3.2220	3.2220	-0.1463	27.54	1.56	-1.500			
0.9152	58571.33	3.2190	3.2188	-0.1425	27.54	1.56	-1.500			
0.9156	58598.32	3.2160	3.2161	-0.1386	27.55	1.57	-1.500			
0.9160	58624.36	3.2130	3.2130	-0.1354	27.55	1.57	-1.500			
0.9164	58650.05	3.2100	3.2101	-0.1323	27.55	1.57	-1.500			
0.9168	58675.14	3.2070	3.2069	-0.1291	27.55	1.57	-1.500			
0.9172	58699.57	3.2040	3.2039	-0.1263	27.56	1.58	-1.500			
0.9176	58723.38	3.2010	3.2011	-0.1232	27.56	1.58	-1.500			
0.9179	58746.70	3.1980	3.1981	-0.1206	27.56	1.58	-1.500			
0.9183	58769.72	3.1950	3.1949	-0.1182	27.57	1.59	-1.500			
0.9186	58792.02	3.1920	3.1921	-0.1162	27.57	1.59	-1.500			
0.9190	58813.88	3.1890	3.1889	-0.1139	27.57	1.59	-1.500			
0.9193	58835.61	3.1860	3.1861	-0.1118	27.58	1.60	-1.500			
0.9196	58856.89	3.1830	3.1829	-0.1099	27.58	1.60	-1.500			
0.9200	58877.95	3.1800	3.1799	-0.1076	27.58	1.60	-1.500			
0.9203	58898.38	3.1770	3.1771	-0.1052	27.58	1.60	-1.500			
0.9206	58918.25	3.1740	3.1741	-0.1036	27.59	1.61	-1.500			
0.9209	58937.95	3.1710	3.1710	-0.1016	27.59	1.61	-1.500			
0.9212	58957.17	3.1680	3.1678	-0.0992	27.59	1.61	-1.500			
0.9215	58976.04	3.1650	3.1650	-0.0974	27.59	1.61	-1.500			
0.9218	58994.46	3.1620	3.1620	-0.0959	27.60	1.62	-1.500			
0.9221	59012.72	3.1590	3.1592	-0.0944	27.60	1.62	-1.500			
0.9224	59030.81	3.1560	3.1560	-0.0929	27.60	1.62	-1.500			
0.9226	59048.48	3.1530	3.1529	-0.0911	27.60	1.62	-1.500			
0.9229	59065.56	3.1500	3.1500	-0.0894	27.61	1.63	-1.500			
0.9232	59082.61	3.1470	3.1471	-0.0883	27.61	1.63	-1.500			
0.9234	59099.52	3.1440	3.1438	-0.0873	27.61	1.63	-1.500			
0.9237	59116.15	3.1410	3.1411	-0.0859	27.61	1.63	-1.500			
0.9239	59132.44	3.1380	3.1380	-0.0844	27.62	1.64	-1.500			
0.9242	59148.53	3.1350	3.1350	-0.0832	27.62	1.64	-1.500			
0.9244	59164.40	3.1320	3.1321	-0.0821	27.62	1.64	-1.500			
0.9247	59180.09	3.1290	3.1290	-0.0812	27.62	1.64	-1.500			
0.9249	59195.58	3.1260	3.1260	-0.0801	27.62	1.64	-1.500			
0.9252	59210.72	3.1230	3.1230	-0.0789	27.63	1.65	-1.500			
0.9254	59225.82	3.1200	3.1200	-0.0777	27.63	1.65	-1.500			
0.9256	59240.64	3.1170	3.1169	-0.0766	27.63	1.65	-1.500			
0.9259	59255.20	3.1140	3.1141	-0.0756	27.63	1.65	-1.500			
0.9261	59269.62	3.1110	3.1111	-0.0746	27.63	1.65	-1.500			
0.9263	59283.89	3.1080	3.1078	-0.0736	27.64	1.66	-1.500			
0.9265	59297.84	3.1050	3.1051	-0.0729	27.64	1.66	-1.500			
0.9267	59311.57	3.1020	3.1020	-0.0718	27.64	1.66	-1.500			
0.9270	59325.29	3.0990	3.0990	-0.0711	27.64	1.66	-1.500			
0.9272	59338.91	3.0960	3.0961	-0.0703	27.64	1.66	-1.500			
0.9274	59352.40	3.0930	3.0929	-0.0697	27.64	1.66	-1.500			
0.9276	59365.78	3.0900	3.0901	-0.0687	27.65	1.67	-1.500			
0.9278	59378.88	3.0870	3.0870	-0.0678	27.65	1.67	-1.500			
0.9280	59391.90	3.0840	3.0840	-0.0669	27.65	1.67	-1.500			
0.9282	59404.53	3.0810	3.0810	-0.0663	27.65	1.67	-1.500			
0.9284	59417.07	3.0780	3.0781	-0.0654	27.65	1.67	-1.500			
0.9286	59429.56	3.0750	3.0750	-0.0648	27.65	1.67	-1.500			
0.9288	59441.96	3.0720	3.0719	-0.0640	27.66	1.68	-1.500			
0.9290	59454.12	3.0690	3.0690	-0.0633	27.66	1.68	-1.500			
0.9292	59466.22	3.0660	3.0660	-0.0627	27.66	1.68	-1.500			
0.9293	59478.25	3.0630	3.0632	-0.0619	27.66	1.68	-1.500			
0.9295	59490.22	3.0600	3.0600	-0.0614	27.66	1.68	-1.500			
0.9297	59501.93	3.0570	3.0569	-0.0606	27.66	1.68	-1.500			
0.9299	59513.22	3.0540	3.0541	-0.0599	27.67	1.69	-1.500			
0.9301	59524.68	3.0510	3.0511	-0.0595	27.67	1.69	-1.500			
0.9303	59536.07	3.0480	3.0480	-0.0591	27.67	1.69	-1.500			
0.9304	59547.43	3.0450	3.0449	-0.0585	27.67	1.69	-1.500			
0.9306	59558.62	3.0420	3.0421	-0.0581	27.67	1.69	-1.500			
0.9308	59569.73	3.0390	3.0390	-0.0576	27.67	1.69	-1.500			
0.9309	59580.75	3.0360	3.0361	-0.0572	27.68	1.70	-1.500			
0.9311	59591.81	3.0330	3.0331	-0.0567	27.68	1.70	-1.500			
0.9313	59602.65	3.0300	3.0299	-0.0561	27.68	1.70	-1.500			
0.9315	59613.36	3.0270	3.0270	-0.0555	27.68	1.70	-1.500			
0.9316	59623.82	3.0240	3.0241	-0.0549	27.68	1.70	-1.500			
0.9318	59634.33	3.0210	3.0209	-0.0545	27.68	1.70	-1.500			
0.9319	59644.75	3.0180	3.0180	-0.0541	27.68	1.70	-1.500			
0.9321	59655.06	3.0150	3.0150	-0.0536	27.69	1.71	-1.500			
0.9323	59665.32	3.0120	3.0120	-0.0533	27.69	1.71	-1.500			
0.9324	59675.51	3.0090	3.0091	-0.0529	27.69	1.71	-1.500			
0.9326	59685.63	3.0060	3.0060	-0.0525	27.69	1.71	-1.500			
