Ah_balance (normalized)	Ah_balance (mAh)	Voltage - fit (V)	Voltage -  interpolate (V)	dQ/dV (1/V)	Temperature (°C)	Temperature - diff (°C)	Current (C)	R_DC 0ms (mOhm)	R_DC 50ms (mOhm)	R_DC 50 ms PEC (mOhm)
0.2395	15328.03	3.9740	3.9738	0.8878	25.99	-0.00	0.750			
0.2421	15497.46	3.9710	3.9710	0.8798	25.99	0.00	0.750			
0.2448	15665.36	3.9680	3.9681	0.8758	25.99	0.00	0.750			
0.2474	15832.05	3.9650	3.9650	0.8787	26.00	0.01	0.750			
0.2500	16001.29	3.9620	3.9619	0.8829	26.00	0.01	0.750			
0.2526	16169.38	3.9590	3.9590	0.8798	26.00	0.01	0.750			
0.2553	16340.25	3.9560	3.9560	0.8817	26.00	0.01	0.750			
0.2580	16510.05	3.9530	3.9531	0.8855	26.00	0.01	0.750			
0.2606	16680.64	3.9500	3.9500	0.8856	26.01	0.02	0.750			
0.2633	16848.99	3.9470	3.9470	0.8865	26.01	0.02	0.750			
0.2659	17019.01	3.9440	3.9440	0.8872	26.01	0.02	0.750			
0.2686	17189.79	3.9410	3.9411	0.8891	26.01	0.02	0.750			
0.2713	17361.32	3.9380	3.9380	0.8937	26.02	0.03	0.750			
0.2740	17532.82	3.9350	3.9351	0.8989	26.02	0.03	0.750			
0.2766	17705.44	3.9320	3.9319	0.8974	26.02	0.03	0.750			
0.2794	17878.66	3.9290	3.9290	0.8986	26.02	0.03	0.750			
0.2820	18050.52	3.9260	3.9261	0.9001	26.02	0.03	0.750			
0.2848	18224.33	3.9230	3.9230	0.9049	26.02	0.03	0.750			
0.2875	18397.87	3.9200	3.9200	0.9076	26.02	0.03	0.750			
0.2902	18570.59	3.9170	3.9170	0.9090	26.02	0.03	0.750			
0.2929	18746.19	3.9140	3.9140	0.9102	26.02	0.03	0.750			
0.2957	18922.57	3.9110	3.9110	0.9156	26.02	0.03	0.750			
0.2984	19097.78	3.9080	3.9080	0.9179	26.02	0.03	0.750			
0.3011	19273.53	3.9050	3.9050	0.9185	26.02	0.03	0.750			
0.3039	19450.58	3.9020	3.9020	0.9210	26.02	0.03	0.750			
0.3067	19627.23	3.8990	3.8990	0.9250	26.01	0.02	0.750			
0.3095	19805.27	3.8960	3.8960	0.9311	26.01	0.02	0.750			
0.3123	19985.43	3.8930	3.8930	0.9377	26.00	0.01	0.750			
0.3151	20164.86	3.8900	3.8900	0.9394	26.00	0.01	0.750			
0.3179	20346.65	3.8870	3.8869	0.9386	26.00	0.01	0.750			
0.3207	20527.04	3.8840	3.8840	0.9442	26.00	0.01	0.750			
0.3236	20707.86	3.8810	3.8811	0.9487	26.00	0.01	0.750			
0.3264	20889.86	3.8780	3.8779	0.9513	26.00	0.01	0.750			
0.3293	21073.16	3.8750	3.8750	0.9558	26.00	0.01	0.750			
0.3321	21257.60	3.8720	3.8720	0.9619	25.99	0.00	0.750			
0.3351	21444.21	3.8690	3.8691	0.9686	25.99	-0.00	0.750			
0.3380	21631.35	3.8660	3.8659	0.9680	25.98	-0.01	0.750			
0.3409	21816.29	3.8630	3.8630	0.9704	25.98	-0.01	0.750			
0.3438	22001.40	3.8600	3.8601	0.9759	25.98	-0.01	0.750			
0.3467	22189.12	3.8570	3.8570	0.9856	25.98	-0.01	0.750			
0.3497	22379.74	3.8540	3.8540	0.9930	25.98	-0.01	0.750			
0.3527	22571.71	3.8510	3.8509	0.9997	25.98	-0.01	0.750			
0.3557	22764.86	3.8480	3.8480	1.0062	25.97	-0.02	0.750			
0.3587	22959.68	3.8450	3.8450	1.0165	25.96	-0.03	0.750			
0.3618	23154.22	3.8420	3.8420	1.0215	25.95	-0.04	0.750			
0.3649	23350.99	3.8390	3.8390	1.0237	25.94	-0.05	0.750			
0.3679	23547.76	3.8360	3.8360	1.0345	25.93	-0.06	0.750			
0.3711	23747.35	3.8330	3.8331	1.0455	25.93	-0.06	0.750			
0.3742	23948.93	3.8300	3.8300	1.0535	25.92	-0.07	0.750			
0.3774	24152.86	3.8270	3.8269	1.0622	25.92	-0.07	0.750			
0.3806	24357.18	3.8240	3.8240	1.0702	25.91	-0.08	0.750			
0.3838	24562.88	3.8210	3.8210	1.0809	25.91	-0.08	0.750			
0.3871	24771.93	3.8180	3.8180	1.0924	25.90	-0.09	0.750			
0.3904	24982.47	3.8150	3.8150	1.0967	25.90	-0.09	0.750			
0.3937	25194.04	3.8120	3.8120	1.1126	25.89	-0.10	0.750			
0.3970	25408.05	3.8090	3.8091	1.1284	25.88	-0.11	0.750			
0.4004	25626.06	3.8060	3.8060	1.1422	25.87	-0.12	0.750			
0.4038	25846.33	3.8030	3.8030	1.1574	25.86	-0.13	0.750			
0.4073	26070.06	3.8000	3.8000	1.1725	25.85	-0.14	0.750			
0.4109	26296.88	3.7970	3.7970	1.1924	25.85	-0.14	0.750			
0.4145	26529.24	3.7940	3.7939	1.2065	25.84	-0.15	0.750			
0.4181	26760.86	3.7910	3.7910	1.2222	25.83	-0.16	0.750			
0.4218	26997.60	3.7880	3.7880	1.2382	25.83	-0.16	0.750			
0.4256	27237.81	3.7850	3.7850	1.2553	25.82	-0.17	0.750			
0.4294	27479.84	3.7820	3.7820	1.2691	25.81	-0.18	0.750			
0.4332	27724.12	3.7790	3.7790	1.2876	25.81	-0.18	0.750			
0.4371	27973.43	3.7760	3.7760	1.3004	25.80	-0.19	0.750			
0.4410	28225.39	3.7730	3.7730	1.3229	25.79	-0.20	0.750			
0.4450	28478.00	3.7700	3.7700	1.3468	25.78	-0.21	0.750			
0.4491	28739.82	3.7670	3.7670	1.3711	25.77	-0.22	0.750			
0.4532	29004.88	3.7640	3.7641	1.3975	25.76	-0.23	0.750			
0.4574	29274.63	3.7610	3.7610	1.4259	25.74	-0.25	0.750			
0.4617	29549.50	3.7580	3.7581	1.4553	25.73	-0.26	0.750			
0.4662	29835.55	3.7550	3.7549	1.4868	25.72	-0.27	0.750			
0.4707	30122.19	3.7520	3.7519	1.5177	25.71	-0.28	0.750			
0.4753	30416.72	3.7490	3.7491	1.5495	25.70	-0.29	0.750			
0.4800	30719.21	3.7460	3.7461	1.5899	25.69	-0.30	0.750			
0.4848	31025.61	3.7430	3.7429	1.6129	25.68	-0.31	0.750			
0.4897	31340.79	3.7400	3.7399	1.6487	25.66	-0.33	0.750			
0.4946	31656.47	3.7370	3.7369	1.6807	25.64	-0.35	0.750			
0.4998	31984.66	3.7340	3.7342	1.7201	25.63	-0.36	0.750			
0.5049	32314.77	3.7310	3.7312	1.7701	25.61	-0.38	0.750			
0.5103	32659.96	3.7280	3.7279	1.8173	25.59	-0.40	0.750			
0.5159	33014.56	3.7250	3.7250	1.8621	25.58	-0.41	0.750			
0.5215	33376.66	3.7220	3.7221	1.9190	25.57	-0.42	0.750			
0.5274	33753.11	3.7190	3.7190	1.9611	25.56	-0.43	0.750			
0.5333	34128.12	3.7160	3.7160	2.0129	25.54	-0.45	0.750			
0.5393	34517.01	3.7130	3.7129	2.0739	25.52	-0.47	0.750	0.368	0.497	
0.5457	34925.53	3.7100	3.7098	2.1366	25.50	-0.49	0.750			
0.5522	35339.25	3.7070	3.7071	2.1917	25.48	-0.51	0.750			
0.5589	35770.46	3.7040	3.7040	2.2431	25.47	-0.52	0.750			
0.5657	36205.91	3.7010	3.7009	2.2858	25.46	-0.53	0.750			
0.5726	36645.43	3.6980	3.6980	2.3384	25.45	-0.54	0.750			
0.5797	37103.82	3.6950	3.6951	2.3958	25.44	-0.55	0.750			
0.5870	37567.70	3.6920	3.6921	2.4464	25.43	-0.56	0.750			
0.5945	38045.74	3.6890	3.6890	2.4950	25.43	-0.56	0.750			
0.6021	38533.01	3.6860	3.6860	2.5506	25.42	-0.57	0.750			
0.6098	39024.32	3.6830	3.6831	2.6220	25.42	-0.57	0.750			
0.6177	39535.08	3.6800	3.6799	2.6550	25.42	-0.57	0.750			
0.6257	40044.92	3.6770	3.6771	2.6497	25.42	-0.57	0.750			
0.6338	40565.94	3.6740	3.6739	2.6435	25.42	-0.57	0.750			
0.6417	41070.19	3.6710	3.6709	2.5260	25.42	-0.57	0.750			
0.6493	41553.24	3.6680	3.6680	2.4108	25.44	-0.55	0.750			
0.6563	42002.83	3.6650	3.6650	2.2346	25.45	-0.54	0.750			
0.6627	42412.50	3.6620	3.6620	2.0468	25.46	-0.53	0.750			
0.6685	42783.61	3.6590	3.6590	1.8751	25.47	-0.52	0.750			
0.6738	43125.77	3.6560	3.6560	1.7169	25.47	-0.52	0.750			
0.6786	43433.36	3.6530	3.6531	1.5954	25.48	-0.51	0.750			
0.6831	43720.95	3.6500	3.6500	1.4868	25.49	-0.50	0.750			
0.6874	43991.00	3.6470	3.6469	1.4096	25.50	-0.49	0.750			
0.6914	44250.67	3.6440	3.6440	1.3508	25.51	-0.48	0.750			
0.6953	44501.11	3.6410	3.6411	1.3044	25.52	-0.47	0.750			
0.6992	44748.09	3.6380	3.6380	1.2707	25.53	-0.46	0.750			
0.7030	44990.49	3.6350	3.6350	1.2403	25.54	-0.45	0.750			
0.7066	45220.06	3.6320	3.6320	1.2085	25.55	-0.44	0.750			
0.7101	45448.39	3.6290	3.6290	1.1907	25.56	-0.43	0.750			
0.7137	45675.15	3.6260	3.6259	1.1787	25.57	-0.42	0.750			
0.7172	45897.64	3.6230	3.6230	1.1711	25.57	-0.42	0.750			
0.7206	46121.47	3.6200	3.6200	1.1698	25.58	-0.41	0.750			
0.7242	46346.19	3.6170	3.6170	1.1745	25.59	-0.40	0.750			
0.7277	46571.81	3.6140	3.6140	1.1708	25.59	-0.40	0.750			
0.7312	46797.57	3.6110	3.6110	1.1703	25.60	-0.39	0.750			
0.7347	47022.71	3.6080	3.6081	1.1723	25.61	-0.38	0.750			
0.7382	47247.78	3.6050	3.6050	1.1730	25.62	-0.37	0.750			
0.7417	47471.52	3.6020	3.6020	1.1771	25.62	-0.37	0.750			
0.7452	47694.58	3.5990	3.5990	1.1923	25.62	-0.37	0.750			
0.7488	47922.84	3.5960	3.5960	1.2157	25.63	-0.36	0.750			
0.7525	48157.77	3.5930	3.5929	1.2436	25.63	-0.36	0.750			
0.7562	48398.03	3.5900	3.5900	1.2766	25.64	-0.35	0.750			
0.7601	48646.13	3.5870	3.5870	1.3158	25.64	-0.35	0.750			
0.7641	48902.65	3.5840	3.5840	1.3580	25.65	-0.34	0.750			
0.7682	49165.72	3.5810	3.5810	1.3976	25.65	-0.34	0.750			
0.7725	49439.26	3.5780	3.5780	1.4375	25.66	-0.33	0.750			
0.7769	49720.13	3.5750	3.5749	1.4829	25.66	-0.33	0.750			
0.7814	50010.96	3.5720	3.5720	1.5148	25.67	-0.32	0.750			
0.7860	50306.73	3.5690	3.5690	1.5424	25.67	-0.32	0.750			
0.7907	50606.43	3.5660	3.5661	1.5728	25.68	-0.31	0.750			
0.7955	50911.39	3.5630	3.5629	1.5953	25.68	-0.31	0.750			
0.8003	51221.29	3.5600	3.5600	1.6078	25.68	-0.31	0.750			
0.8052	51533.87	3.5570	3.5571	1.6115	25.69	-0.30	0.750			
0.8101	51848.38	3.5540	3.5540	1.6121	25.69	-0.30	0.750			
0.8150	52158.41	3.5510	3.5511	1.6066	25.70	-0.29	0.750			
0.8198	52466.15	3.5480	3.5480	1.5884	25.71	-0.28	0.750			
0.8246	52772.46	3.5450	3.5449	1.5579	25.72	-0.27	0.750			
0.8293	53072.81	3.5420	3.5420	1.4924	25.73	-0.26	0.750			
0.8339	53371.28	3.5390	3.5390	1.3855	25.74	-0.25	0.750			
0.8380	53632.83	3.5360	3.5360	1.2258	25.75	-0.24	0.750			
0.8416	53862.08	3.5330	3.5331	1.0474	25.76	-0.23	0.750			
0.8444	54040.27	3.5300	3.5302	0.8493	25.78	-0.21	0.750			
0.8465	54176.18	3.5270	3.5268	0.6931	25.79	-0.20	0.750			
0.8481	54279.14	3.5240	3.5239	0.5519	25.80	-0.19	0.750			
0.8494	54361.42	3.5210	3.5209	0.4604	25.81	-0.18	0.750			
0.8506	54438.15	3.5180	3.5179	0.4011	25.81	-0.18	0.750			
0.8517	54505.67	3.5150	3.5149	0.3607	25.82	-0.17	0.750			
0.8527	54570.05	3.5120	3.5120	0.3325	25.82	-0.17	0.750			
0.8536	54629.48	3.5090	3.5090	0.3129	25.83	-0.16	0.750			
0.8545	54687.46	3.5060	3.5060	0.2979	25.84	-0.15	0.750			
0.8553	54742.32	3.5030	3.5030	0.2856	25.84	-0.15	0.750			
0.8562	54795.83	3.5000	3.5000	0.2758	25.85	-0.14	0.750			
0.8570	54847.60	3.4970	3.4970	0.2671	25.85	-0.14	0.750			
0.8578	54898.14	3.4940	3.4940	0.2606	25.86	-0.13	0.750			
0.8586	54947.28	3.4910	3.4910	0.2532	25.86	-0.13	0.750			
0.8593	54994.72	3.4880	3.4880	0.2468	25.87	-0.12	0.750			
0.8600	55041.56	3.4850	3.4850	0.2418	25.87	-0.12	0.750			
0.8607	55087.40	3.4820	3.4820	0.2365	25.88	-0.11	0.750			
0.8614	55132.38	3.4790	3.4790	0.2319	25.88	-0.11	0.750			
0.8621	55176.51	3.4760	3.4760	0.2275	25.88	-0.11	0.750			
0.8628	55219.89	3.4730	3.4730	0.2227	25.89	-0.10	0.750			
0.8635	55262.02	3.4700	3.4700	0.2178	25.89	-0.10	0.750			
0.8641	55303.39	3.4670	3.4670	0.2131	25.90	-0.09	0.750			
0.8647	55343.76	3.4640	3.4640	0.2084	25.90	-0.09	0.750			
0.8654	55383.37	3.4610	3.4609	0.2037	25.91	-0.08	0.750			
0.8660	55421.91	3.4580	3.4581	0.1994	25.91	-0.08	0.750			
0.8666	55459.78	3.4550	3.4550	0.1951	25.91	-0.08	0.750			
0.8671	55496.87	3.4520	3.4520	0.1900	25.92	-0.07	0.750			
0.8677	55533.02	3.4490	3.4490	0.1857	25.92	-0.07	0.750			
0.8683	55568.01	3.4460	3.4460	0.1809	25.93	-0.06	0.750			
0.8688	55602.33	3.4430	3.4430	0.1765	25.93	-0.06	0.750			
0.8693	55635.79	3.4400	3.4399	0.1721	25.93	-0.06	0.750			
0.8698	55668.45	3.4370	3.4370	0.1677	25.94	-0.05	0.750			
0.8703	55700.09	3.4340	3.4340	0.1629	25.94	-0.05	0.750			
0.8708	55730.98	3.4310	3.4311	0.1588	25.95	-0.04	0.750			
0.8713	55761.35	3.4280	3.4280	0.1545	25.95	-0.04	0.750			
0.8717	55790.58	3.4250	3.4250	0.1495	25.95	-0.04	0.750			
0.8722	55818.74	3.4220	3.4220	0.1446	25.95	-0.04	0.750			
0.8726	55846.05	3.4190	3.4191	0.1399	25.96	-0.03	0.750			
0.8730	55872.50	3.4160	3.4160	0.1351	25.96	-0.03	0.750			
0.8734	55898.01	3.4130	3.4129	0.1301	25.96	-0.03	0.750			
0.8738	55922.47	3.4100	3.4100	0.1250	25.97	-0.02	0.750			
0.8742	55946.08	3.4070	3.4071	0.1198	25.97	-0.02	0.750			
0.8745	55968.69	3.4040	3.4040	0.1148	25.97	-0.02	0.750			
0.8749	55990.54	3.4010	3.4010	0.1095	25.97	-0.02	0.750			
0.8752	56011.01	3.3980	3.3980	0.1036	25.98	-0.01	0.750			
0.8755	56030.33	3.3950	3.3950	0.0976	25.98	-0.01	0.750			
0.8758	56049.59	3.3920	3.3918	0.0901	25.98	-0.01	0.750			
0.8760	56066.07	3.3890	3.3891	0.0816	25.98	-0.01	0.750			
0.8763	56081.60	3.3860	3.3861	0.0744	25.98	-0.01	0.750			
0.8765	56095.00	3.3830	3.3833	0.0652	25.99	-0.00	0.750			
0.8767	56107.35	3.3800	3.3803	0.0561	25.99	-0.00	0.750			
0.8768	56117.12	3.3770	3.3777	0.0458	25.99	-0.00	0.750			
0.8770	56124.92	3.3740	3.3751	0.0355	25.99	-0.00	0.750			
0.8770	56130.75	3.3710	3.3726	0.0252	25.99	0.00	0.750			
