Ah_balance (normalized)	Ah_balance (mAh)	Voltage - fit (V)	Voltage -  interpolate (V)	dQ/dV (1/V)	Temperature (°C)	Temperature - diff (°C)	Current (C)	R_DC 0ms (mOhm)	R_DC 50ms (mOhm)	R_DC 50 ms PEC (mOhm)
0.2159	13815.54	3.9110	3.9109	-0.1171	25.72	0.00	-1.500			
0.2163	13841.28	3.9080	3.9079	-0.1495	25.72	0.00	-1.500			
0.2168	13873.32	3.9050	3.9049	-0.1805	25.72	0.00	-1.500			
0.2174	13911.27	3.9020	3.9020	-0.2098	25.72	0.00	-1.500			
0.2180	13954.37	3.8990	3.8991	-0.2385	25.72	0.00	-1.500			
0.2188	14003.52	3.8960	3.8960	-0.2674	25.72	0.00	-1.500			
0.2196	14057.35	3.8930	3.8930	-0.2953	25.72	0.00	-1.500			
0.2206	14116.64	3.8900	3.8900	-0.3228	25.72	0.00	-1.500			
0.2216	14181.21	3.8870	3.8870	-0.3502	25.72	0.00	-1.500			
0.2227	14250.58	3.8840	3.8840	-0.3803	25.72	0.00	-1.500			
0.2239	14326.73	3.8810	3.8810	-0.4081	25.72	0.00	-1.500			
0.2251	14407.79	3.8780	3.8779	-0.4360	25.72	0.00	-1.500			
0.2265	14495.12	3.8750	3.8750	-0.4618	25.72	0.00	-1.500			
0.2279	14586.33	3.8720	3.8721	-0.4874	25.72	0.00	-1.500			
0.2294	14682.81	3.8690	3.8690	-0.5125	25.72	0.00	-1.500			
0.2310	14783.69	3.8660	3.8660	-0.5350	25.72	0.00	-1.500			
0.2326	14888.27	3.8630	3.8629	-0.5552	25.72	0.00	-1.500			
0.2343	14997.45	3.8600	3.8600	-0.5793	25.72	0.00	-1.500			
0.2361	15111.18	3.8570	3.8570	-0.5986	25.72	0.00	-1.500			
0.2379	15228.57	3.8540	3.8540	-0.6176	25.72	0.00	-1.500			
0.2398	15348.91	3.8510	3.8510	-0.6348	25.72	0.00	-1.500			
0.2418	15473.18	3.8480	3.8480	-0.6501	25.72	0.00	-1.500			
0.2438	15601.03	3.8450	3.8449	-0.6618	25.72	0.00	-1.500			
0.2458	15729.16	3.8420	3.8420	-0.6719	25.72	0.00	-1.500			
0.2478	15859.12	3.8390	3.8391	-0.6802	25.72	0.00	-1.500			
0.2499	15990.57	3.8360	3.8360	-0.6901	25.72	0.00	-1.500			
0.2519	16123.52	3.8330	3.8329	-0.6979	25.72	0.00	-1.500			
0.2540	16258.14	3.8300	3.8300	-0.7052	25.72	0.00	-1.500			
0.2562	16395.14	3.8270	3.8270	-0.7136	25.73	0.01	-1.500			
0.2583	16533.80	3.8240	3.8240	-0.7169	25.73	0.01	-1.500			
0.2605	16672.06	3.8210	3.8210	-0.7189	25.73	0.01	-1.500			
0.2627	16810.58	3.8180	3.8181	-0.7228	25.74	0.02	-1.500			
0.2648	16949.58	3.8150	3.8150	-0.7233	25.74	0.02	-1.500			
0.2670	17088.68	3.8120	3.8119	-0.7237	25.74	0.02	-1.500			
0.2692	17227.36	3.8090	3.8090	-0.7267	25.75	0.03	-1.500			
0.2714	17366.60	3.8060	3.8061	-0.7307	25.75	0.03	-1.500			
0.2736	17507.56	3.8030	3.8030	-0.7336	25.75	0.03	-1.500			
0.2758	17648.78	3.8000	3.7999	-0.7349	25.76	0.04	-1.500			
0.2780	17790.06	3.7970	3.7971	-0.7388	25.76	0.04	-1.500			
0.2802	17933.19	3.7940	3.7940	-0.7420	25.77	0.05	-1.500			
0.2824	18075.96	3.7910	3.7909	-0.7418	25.77	0.05	-1.500			
0.2847	18219.19	3.7880	3.7881	-0.7405	25.77	0.05	-1.500			
0.2869	18360.52	3.7850	3.7850	-0.7404	25.78	0.06	-1.500			
0.2891	18502.75	3.7820	3.7820	-0.7412	25.78	0.06	-1.500			
0.2913	18644.41	3.7790	3.7790	-0.7425	25.79	0.07	-1.500			
0.2935	18786.92	3.7760	3.7761	-0.7398	25.79	0.07	-1.500			
0.2958	18929.97	3.7730	3.7730	-0.7442	25.80	0.08	-1.500			
0.2980	19073.06	3.7700	3.7700	-0.7455	25.80	0.08	-1.500			
0.3003	19216.99	3.7670	3.7670	-0.7461	25.81	0.09	-1.500			
0.3025	19359.88	3.7640	3.7641	-0.7436	25.81	0.09	-1.500			
0.3047	19503.18	3.7610	3.7610	-0.7424	25.82	0.10	-1.500			
0.3070	19645.41	3.7580	3.7580	-0.7405	25.82	0.10	-1.500			
0.3092	19787.64	3.7550	3.7550	-0.7404	25.83	0.11	-1.500			
0.3114	19928.82	3.7520	3.7520	-0.7381	25.84	0.12	-1.500			
0.3136	20069.86	3.7490	3.7490	-0.7370	25.84	0.12	-1.500			
0.3158	20211.57	3.7460	3.7460	-0.7387	25.85	0.13	-1.500			
0.3180	20353.24	3.7430	3.7430	-0.7410	25.85	0.13	-1.500			
0.3202	20495.26	3.7400	3.7400	-0.7452	25.86	0.14	-1.500			
0.3225	20638.83	3.7370	3.7369	-0.7489	25.87	0.15	-1.500			
0.3247	20782.75	3.7340	3.7340	-0.7521	25.87	0.15	-1.500			
0.3270	20927.91	3.7310	3.7311	-0.7576	25.88	0.16	-1.500			
0.3293	21075.37	3.7280	3.7279	-0.7592	25.89	0.17	-1.500			
0.3316	21221.39	3.7250	3.7250	-0.7590	25.89	0.17	-1.500			
0.3338	21365.34	3.7220	3.7220	-0.7620	25.90	0.18	-1.500			
0.3361	21512.02	3.7190	3.7191	-0.7635	25.91	0.19	-1.500			
0.3384	21658.62	3.7160	3.7159	-0.7701	25.92	0.20	-1.500			
0.3407	21806.55	3.7130	3.7131	-0.7759	25.92	0.20	-1.500			
0.3431	21955.33	3.7100	3.7100	-0.7834	25.93	0.21	-1.500			
0.3454	22107.41	3.7070	3.7070	-0.7921	25.94	0.22	-1.500			
0.3478	22260.52	3.7040	3.7040	-0.7988	25.95	0.23	-1.500			
0.3502	22414.16	3.7010	3.7010	-0.8051	25.95	0.23	-1.500			
0.3527	22570.94	3.6980	3.6981	-0.8152	25.96	0.24	-1.500			
0.3551	22727.19	3.6950	3.6950	-0.8202	25.97	0.25	-1.500			
0.3576	22884.72	3.6920	3.6920	-0.8308	25.97	0.25	-1.500			
0.3601	23045.29	3.6890	3.6890	-0.8389	25.98	0.26	-1.500			
0.3626	23206.88	3.6860	3.6860	-0.8534	25.98	0.26	-1.500			
0.3652	23370.94	3.6830	3.6830	-0.8687	25.99	0.27	-1.500			
0.3678	23537.63	3.6800	3.6800	-0.8909	26.00	0.28	-1.500			
0.3705	23712.64	3.6770	3.6770	-0.9036	26.00	0.28	-1.500			
0.3733	23888.69	3.6740	3.6739	-0.9193	26.01	0.29	-1.500			
0.3761	24067.48	3.6710	3.6710	-0.9275	26.02	0.30	-1.500			
0.3789	24247.88	3.6680	3.6679	-0.9408	26.02	0.30	-1.500			
0.3817	24426.70	3.6650	3.6650	-0.9562	26.03	0.31	-1.500			
0.3845	24609.60	3.6620	3.6620	-0.9705	26.03	0.31	-1.500			
0.3875	24797.91	3.6590	3.6589	-0.9847	26.04	0.32	-1.500			
0.3905	24991.63	3.6560	3.6561	-1.0081	26.04	0.32	-1.500			
0.3935	25185.87	3.6530	3.6530	-1.0314	26.05	0.33	-1.500			
0.3967	25387.33	3.6500	3.6499	-1.0485	26.05	0.33	-1.500			
0.3998	25589.39	3.6470	3.6469	-1.0644	26.06	0.34	-1.500			
0.4030	25794.70	3.6440	3.6441	-1.0869	26.06	0.34	-1.500			
0.4064	26007.09	3.6410	3.6410	-1.1092	26.06	0.34	-1.500			
0.4097	26221.62	3.6380	3.6379	-1.1339	26.07	0.35	-1.500			
0.4131	26440.58	3.6350	3.6351	-1.1508	26.07	0.35	-1.500			
0.4166	26663.71	3.6320	3.6320	-1.1812	26.08	0.36	-1.500			
0.4202	26894.22	3.6290	3.6289	-1.2065	26.08	0.36	-1.500			
0.4239	27128.70	3.6260	3.6260	-1.2238	26.09	0.37	-1.500			
0.4276	27364.52	3.6230	3.6232	-1.2511	26.09	0.37	-1.500			
0.4314	27608.63	3.6200	3.6200	-1.2796	26.09	0.37	-1.500			
0.4353	27856.35	3.6170	3.6170	-1.3004	26.10	0.38	-1.500			
0.4392	28108.41	3.6140	3.6140	-1.3261	26.10	0.38	-1.500			
0.4432	28365.66	3.6110	3.6110	-1.3537	26.11	0.39	-1.500			
0.4473	28628.49	3.6080	3.6080	-1.3750	26.11	0.39	-1.500			
0.4515	28894.99	3.6050	3.6050	-1.4025	26.12	0.40	-1.500			
0.4557	29163.74	3.6020	3.6019	-1.4231	26.12	0.40	-1.500			
0.4600	29439.59	3.5990	3.5990	-1.4516	26.12	0.40	-1.500			
0.4644	29721.22	3.5960	3.5959	-1.4810	26.12	0.40	-1.500			
0.4689	30007.00	3.5930	3.5930	-1.5112	26.13	0.41	-1.500			
0.4735	30302.84	3.5900	3.5900	-1.5384	26.13	0.41	-1.500			
0.4782	30603.33	3.5870	3.5870	-1.5543	26.13	0.41	-1.500			
0.4829	30903.69	3.5840	3.5841	-1.5753	26.13	0.41	-1.500			
0.4876	31208.05	3.5810	3.5811	-1.6028	26.13	0.41	-1.500			
0.4925	31517.71	3.5780	3.5779	-1.6179	26.14	0.42	-1.500			
0.4973	31829.02	3.5750	3.5749	-1.6349	26.14	0.42	-1.500			
0.5022	32142.19	3.5720	3.5722	-1.6641	26.14	0.42	-1.500			
0.5073	32467.87	3.5690	3.5690	-1.6942	26.14	0.42	-1.500			
0.5124	32796.76	3.5660	3.5659	-1.7283	26.15	0.43	-1.500			
0.5177	33130.99	3.5630	3.5629	-1.7415	26.15	0.43	-1.500			
0.5230	33472.00	3.5600	3.5601	-1.7656	26.16	0.44	-1.500			
0.5283	33813.36	3.5570	3.5572	-1.7847	26.16	0.44	-1.500			
0.5337	34156.22	3.5540	3.5540	-1.7967	26.17	0.45	-1.500			
0.5391	34499.95	3.5510	3.5509	-1.8057	26.17	0.45	-1.500			
0.5444	34841.30	3.5480	3.5481	-1.8201	26.18	0.46	-1.500			
0.5500	35200.94	3.5450	3.5450	-1.8480	26.19	0.47	-1.500			
0.5556	35559.63	3.5420	3.5419	-1.8524	26.19	0.47	-1.500			
0.5612	35915.53	3.5390	3.5389	-1.8614	26.20	0.48	-1.500	0.384	0.512	
0.5668	36275.00	3.5360	3.5359	-1.8540	26.21	0.49	-1.500			
0.5723	36628.88	3.5330	3.5330	-1.8502	26.21	0.49	-1.500			
0.5779	36982.65	3.5300	3.5301	-1.8464	26.22	0.50	-1.500			
0.5833	37331.80	3.5270	3.5269	-1.8451	26.23	0.51	-1.500			
0.5890	37695.54	3.5240	3.5240	-1.8232	26.24	0.52	-1.500			
0.5944	38044.38	3.5210	3.5210	-1.8094	26.25	0.53	-1.500			
0.5998	38389.63	3.5180	3.5180	-1.8089	26.26	0.54	-1.500			
0.6052	38734.98	3.5150	3.5148	-1.7991	26.26	0.54	-1.500			
0.6105	39073.39	3.5120	3.5119	-1.7907	26.27	0.55	-1.500			
0.6159	39417.12	3.5090	3.5090	-1.7972	26.28	0.56	-1.500			
0.6213	39761.19	3.5060	3.5060	-1.8031	26.29	0.57	-1.500			
0.6268	40117.40	3.5030	3.5030	-1.8126	26.30	0.58	-1.500			
0.6322	40462.40	3.5000	3.5000	-1.7973	26.31	0.59	-1.500			
0.6376	40807.79	3.4970	3.4970	-1.7898	26.32	0.60	-1.500			
0.6430	41149.96	3.4940	3.4940	-1.7853	26.32	0.60	-1.500			
0.6483	41492.27	3.4910	3.4910	-1.7811	26.33	0.61	-1.500			
0.6536	41832.46	3.4880	3.4880	-1.7736	26.34	0.62	-1.500			
0.6589	42171.08	3.4850	3.4850	-1.7677	26.36	0.64	-1.500			
0.6642	42511.52	3.4820	3.4820	-1.7586	26.37	0.65	-1.500			
0.6695	42849.85	3.4790	3.4790	-1.7449	26.38	0.66	-1.500			
0.6748	43184.89	3.4760	3.4759	-1.7265	26.39	0.67	-1.500			
0.6799	43514.07	3.4730	3.4729	-1.7036	26.41	0.69	-1.500			
0.6850	43839.10	3.4700	3.4701	-1.6921	26.42	0.70	-1.500			
0.6900	44162.85	3.4670	3.4670	-1.6669	26.43	0.71	-1.500			
0.6950	44479.88	3.4640	3.4640	-1.6382	26.44	0.72	-1.500			
0.6999	44794.48	3.4610	3.4610	-1.6216	26.45	0.73	-1.500			
0.7048	45104.23	3.4580	3.4580	-1.5950	26.47	0.75	-1.500			
0.7095	45407.98	3.4550	3.4550	-1.5713	26.48	0.76	-1.500			
0.7142	45707.03	3.4520	3.4520	-1.5497	26.50	0.78	-1.500			
0.7187	45999.67	3.4490	3.4490	-1.5253	26.51	0.79	-1.500			
0.7233	46293.45	3.4460	3.4461	-1.5129	26.53	0.81	-1.500			
0.7278	46580.67	3.4430	3.4431	-1.4971	26.54	0.82	-1.500			
0.7323	46865.48	3.4400	3.4400	-1.4807	26.56	0.84	-1.500			
0.7367	47148.67	3.4370	3.4370	-1.4698	26.58	0.86	-1.500			
0.7411	47427.55	3.4340	3.4340	-1.4562	26.59	0.87	-1.500			
0.7454	47707.42	3.4310	3.4310	-1.4497	26.61	0.89	-1.500			
0.7498	47985.00	3.4280	3.4279	-1.4380	26.63	0.91	-1.500			
0.7540	48259.10	3.4250	3.4250	-1.4349	26.65	0.93	-1.500			
0.7584	48534.80	3.4220	3.4220	-1.4254	26.67	0.95	-1.500			
0.7626	48808.31	3.4190	3.4190	-1.4217	26.68	0.96	-1.500			
0.7669	49084.60	3.4160	3.4159	-1.4024	26.70	0.98	-1.500			
0.7712	49354.88	3.4130	3.4130	-1.3789	26.72	1.00	-1.500			
0.7753	49618.41	3.4100	3.4100	-1.3473	26.74	1.02	-1.500			
0.7793	49873.69	3.4070	3.4070	-1.3110	26.76	1.04	-1.500			
0.7831	50120.26	3.4040	3.4039	-1.2618	26.78	1.06	-1.500			
0.7869	50359.66	3.4010	3.4009	-1.2209	26.79	1.07	-1.500			
0.7905	50589.17	3.3980	3.3981	-1.1792	26.81	1.09	-1.500			
0.7940	50813.92	3.3950	3.3949	-1.1357	26.83	1.11	-1.500			
0.7973	51027.99	3.3920	3.3920	-1.0907	26.84	1.12	-1.500			
0.8005	51232.70	3.3890	3.3890	-1.0450	26.85	1.13	-1.500			
0.8036	51427.58	3.3860	3.3860	-0.9997	26.87	1.15	-1.500			
0.8065	51615.59	3.3830	3.3829	-0.9627	26.88	1.16	-1.500			
0.8093	51793.39	3.3800	3.3800	-0.9199	26.89	1.17	-1.500			
0.8120	51967.27	3.3770	3.3769	-0.8841	26.91	1.19	-1.500			
0.8146	52132.94	3.3740	3.3740	-0.8552	26.92	1.20	-1.500			
0.8171	52293.48	3.3710	3.3711	-0.8198	26.93	1.21	-1.500			
0.8195	52447.13	3.3680	3.3679	-0.7949	26.94	1.22	-1.500			
0.8218	52596.82	3.3650	3.3650	-0.7654	26.95	1.23	-1.500			
0.8241	52741.31	3.3620	3.3621	-0.7395	26.96	1.24	-1.500			
0.8263	52881.36	3.3590	3.3590	-0.7149	26.97	1.25	-1.500			
0.8284	53016.51	3.3560	3.3559	-0.6901	26.98	1.26	-1.500			
0.8304	53145.01	3.3530	3.3530	-0.6656	26.99	1.27	-1.500			
0.8323	53270.24	3.3500	3.3500	-0.6458	27.00	1.28	-1.500			
0.8342	53390.62	3.3470	3.3470	-0.6230	27.01	1.29	-1.500			
0.8361	53509.57	3.3440	3.3440	-0.6061	27.02	1.30	-1.500			
0.8379	53623.65	3.3410	3.3410	-0.5878	27.03	1.31	-1.500			
0.8396	53735.03	3.3380	3.3380	-0.5687	27.03	1.31	-1.500			
0.8413	53842.01	3.3350	3.3350	-0.5512	27.04	1.32	-1.500			
0.8429	53945.77	3.3320	3.3320	-0.5338	27.05	1.33	-1.500			
0.8445	54045.36	3.3290	3.3290	-0.5211	27.06	1.34	-1.500			
0.8460	54145.58	3.3260	3.3260	-0.5041	27.06	1.34	-1.500			
0.8475	54241.60	3.3230	3.3229	-0.4882	27.07	1.35	-1.500			
0.8490	54333.51	3.3200	3.3200	-0.4721	27.08	1.36	-1.500			
0.8504	54422.70	3.3170	3.3170	-0.4581	27.08	1.36	-1.500			
0.8517	54507.92	3.3140	3.3139	-0.4455	27.09	1.37	-1.500			
0.8530	54591.62	3.3110	3.3110	-0.4307	27.09	1.37	-1.500			
0.8543	54672.93	3.3080	3.3079	-0.4171	27.10	1.38	-1.500			
0.8555	54753.44	3.3050	3.3051	-0.4088	27.11	1.39	-1.500			
0.8567	54830.54	3.3020	3.3021	-0.3961	27.12	1.40	-1.500			
0.8579	54904.88	3.2990	3.2989	-0.3836	27.12	1.40	-1.500			
0.8590	54976.52	3.2960	3.2960	-0.3710	27.13	1.41	-1.500			
0.8601	55046.66	3.2930	3.2930	-0.3606	27.14	1.42	-1.500			
0.8612	55115.69	3.2900	3.2900	-0.3533	27.14	1.42	-1.500			
0.8622	55182.66	3.2870	3.2870	-0.3413	27.15	1.43	-1.500			
0.8632	55246.74	3.2840	3.2841	-0.3308	27.16	1.44	-1.500			
0.8642	55309.06	3.2810	3.2810	-0.3219	27.16	1.44	-1.500			
0.8651	55369.32	3.2780	3.2781	-0.3140	27.17	1.45	-1.500			
0.8661	55429.04	3.2750	3.2749	-0.3063	27.17	1.45	-1.500			
0.8670	55487.22	3.2720	3.2720	-0.2983	27.18	1.46	-1.500			
0.8679	55543.54	3.2690	3.2691	-0.2911	27.19	1.47	-1.500			
0.8687	55599.63	3.2660	3.2660	-0.2847	27.19	1.47	-1.500			
0.8696	55653.10	3.2630	3.2630	-0.2757	27.19	1.47	-1.500			
0.8704	55704.57	3.2600	3.2600	-0.2676	27.20	1.48	-1.500			
0.8712	55755.03	3.2570	3.2571	-0.2610	27.20	1.48	-1.500			
0.8720	55804.84	3.2540	3.2540	-0.2562	27.21	1.49	-1.500			
0.8727	55853.46	3.2510	3.2510	-0.2498	27.21	1.49	-1.500			
0.8735	55900.85	3.2480	3.2481	-0.2447	27.21	1.49	-1.500			
0.8742	55946.89	3.2450	3.2450	-0.2392	27.22	1.50	-1.500			
0.8749	55992.54	3.2420	3.2420	-0.2345	27.22	1.50	-1.500			
0.8756	56036.82	3.2390	3.2390	-0.2304	27.22	1.50	-1.500			
0.8763	56080.70	3.2360	3.2360	-0.2255	27.22	1.50	-1.500			
0.8769	56123.67	3.2330	3.2330	-0.2212	27.23	1.51	-1.500			
0.8776	56165.73	3.2300	3.2301	-0.2169	27.23	1.51	-1.500			
0.8782	56207.06	3.2270	3.2270	-0.2142	27.24	1.52	-1.500			
0.8789	56247.69	3.2240	3.2239	-0.2097	27.24	1.52	-1.500			
0.8795	56287.39	3.2210	3.2210	-0.2061	27.25	1.53	-1.500			
0.8801	56326.64	3.2180	3.2180	-0.2028	27.25	1.53	-1.500			
0.8807	56365.11	3.2150	3.2151	-0.1991	27.26	1.54	-1.500			
0.8813	56403.13	3.2120	3.2120	-0.1972	27.26	1.54	-1.500			
0.8819	56440.69	3.2090	3.2091	-0.1939	27.27	1.55	-1.500			
0.8825	56477.64	3.2060	3.2060	-0.1910	27.27	1.55	-1.500			
0.8830	56513.77	3.2030	3.2029	-0.1876	27.28	1.56	-1.500			
0.8836	56549.74	3.2000	3.2001	-0.1858	27.28	1.56	-1.500			
0.8841	56585.02	3.1970	3.1970	-0.1828	27.29	1.57	-1.500			
0.8847	56619.87	3.1940	3.1940	-0.1802	27.29	1.57	-1.500			
0.8852	56654.28	3.1910	3.1909	-0.1778	27.29	1.57	-1.500			
0.8857	56687.99	3.1880	3.1880	-0.1744	27.30	1.58	-1.500			
0.8863	56721.56	3.1850	3.1851	-0.1723	27.30	1.58	-1.500			
0.8868	56754.34	3.1820	3.1820	-0.1692	27.31	1.59	-1.500			
0.8873	56786.35	3.1790	3.1790	-0.1678	27.31	1.59	-1.500			
0.8878	56817.85	3.1760	3.1760	-0.1660	27.32	1.60	-1.500			
0.8883	56849.40	3.1730	3.1730	-0.1649	27.32	1.60	-1.500			
0.8888	56881.10	3.1700	3.1699	-0.1640	27.32	1.60	-1.500			
0.8893	56912.58	3.1670	3.1670	-0.1625	27.33	1.61	-1.500			
0.8898	56944.10	3.1640	3.1640	-0.1614	27.33	1.61	-1.500			
0.8902	56975.20	3.1610	3.1610	-0.1598	27.34	1.62	-1.500			
0.8907	57005.53	3.1580	3.1580	-0.1579	27.34	1.62	-1.500			
0.8912	57035.36	3.1550	3.1550	-0.1563	27.35	1.63	-1.500			
0.8916	57064.94	3.1520	3.1520	-0.1549	27.35	1.63	-1.500			
0.8921	57094.61	3.1490	3.1489	-0.1542	27.36	1.64	-1.500			
0.8926	57124.18	3.1460	3.1461	-0.1524	27.36	1.64	-1.500			
0.8930	57153.64	3.1430	3.1430	-0.1507	27.37	1.65	-1.500			
0.8935	57182.51	3.1400	3.1401	-0.1492	27.37	1.65	-1.500			
0.8939	57210.93	3.1370	3.1370	-0.1469	27.38	1.66	-1.500			
0.8944	57238.73	3.1340	3.1341	-0.1461	27.38	1.66	-1.500			
0.8948	57266.35	3.1310	3.1309	-0.1448	27.39	1.67	-1.500			
0.8952	57293.87	3.1280	3.1280	-0.1435	27.39	1.67	-1.500			
0.8956	57321.41	3.1250	3.1250	-0.1433	27.40	1.68	-1.500			
0.8961	57349.13	3.1220	3.1221	-0.1423	27.40	1.68	-1.500			
0.8965	57376.58	3.1190	3.1190	-0.1417	27.41	1.69	-1.500			
0.8969	57403.64	3.1160	3.1160	-0.1406	27.41	1.69	-1.500			
0.8974	57430.51	3.1130	3.1130	-0.1393	27.42	1.70	-1.500			
0.8978	57456.96	3.1100	3.1100	-0.1378	27.42	1.70	-1.500			
0.8982	57483.32	3.1070	3.1070	-0.1370	27.43	1.71	-1.500			
0.8986	57509.50	3.1040	3.1041	-0.1361	27.43	1.71	-1.500			
0.8990	57535.56	3.1010	3.1010	-0.1353	27.43	1.71	-1.500			
0.8994	57561.41	3.0980	3.0979	-0.1353	27.44	1.72	-1.500			
0.8998	57587.34	3.0950	3.0950	-0.1341	27.44	1.72	-1.500			
0.9002	57612.94	3.0920	3.0920	-0.1338	27.45	1.73	-1.500			
0.9006	57638.60	3.0890	3.0890	-0.1335	27.45	1.73	-1.500			
0.9010	57664.34	3.0860	3.0861	-0.1327	27.46	1.74	-1.500			
0.9014	57689.89	3.0830	3.0829	-0.1316	27.46	1.74	-1.500			
0.9018	57715.15	3.0800	3.0801	-0.1307	27.46	1.74	-1.500			
0.9022	57740.05	3.0770	3.0770	-0.1296	27.47	1.75	-1.500			
0.9026	57764.71	3.0740	3.0740	-0.1283	27.47	1.75	-1.500			
0.9030	57789.36	3.0710	3.0710	-0.1278	27.48	1.76	-1.500			
0.9033	57813.44	3.0680	3.0680	-0.1263	27.48	1.76	-1.500			
0.9037	57837.72	3.0650	3.0650	-0.1256	27.49	1.77	-1.500			
0.9041	57861.80	3.0620	3.0620	-0.1251	27.49	1.77	-1.500			
0.9045	57885.77	3.0590	3.0591	-0.1244	27.50	1.78	-1.500			
0.9048	57909.58	3.0560	3.0560	-0.1240	27.50	1.78	-1.500			
0.9052	57933.34	3.0530	3.0531	-0.1234	27.51	1.79	-1.500			
0.9056	57956.96	3.0500	3.0499	-0.1226	27.51	1.79	-1.500			
0.9059	57980.42	3.0470	3.0470	-0.1220	27.52	1.80	-1.500			
0.9063	58003.73	3.0440	3.0441	-0.1217	27.52	1.80	-1.500			
0.9067	58027.06	3.0410	3.0410	-0.1213	27.53	1.81	-1.500			
0.9070	58050.42	3.0380	3.0380	-0.1205	27.53	1.81	-1.500			
0.9074	58073.57	3.0350	3.0349	-0.1198	27.54	1.82	-1.500			
0.9078	58096.45	3.0320	3.0320	-0.1191	27.54	1.82	-1.500			
0.9081	58119.19	3.0290	3.0292	-0.1183	27.55	1.83	-1.500			
0.9085	58141.82	3.0260	3.0259	-0.1178	27.55	1.83	-1.500			
0.9088	58164.44	3.0230	3.0230	-0.1172	27.56	1.84	-1.500			
0.9092	58186.88	3.0200	3.0200	-0.1165	27.56	1.84	-1.500			
0.9095	58209.02	3.0170	3.0169	-0.1157	27.57	1.85	-1.500			
0.9099	58231.25	3.0140	3.0141	-0.1149	27.57	1.85	-1.500			
0.9102	58253.47	3.0110	3.0110	-0.1142	27.57	1.85	-1.500			
0.9106	58275.29	3.0080	3.0080	-0.1131	27.58	1.86	-1.500			
0.9109	58296.96	3.0050	3.0050	-0.1116	27.58	1.86	-1.500			
0.9112	58318.26	3.0020	3.0020	-0.1102	27.59	1.87	-1.500			
