Ah_balance (normalized)	Ah_balance (mAh)	Voltage - fit (V)	Voltage -  interpolate (V)	dQ/dV (1/V)	Temperature (°C)	Temperature - diff (°C)	Current (C)	R_DC 0ms (mOhm)	R_DC 50ms (mOhm)	R_DC 50 ms PEC (mOhm)
0.2418	15474.99	3.9720	3.9720	0.8712	26.14	0.18	0.750			
0.2444	15642.42	3.9690	3.9691	0.8731	26.14	0.18	0.750			
0.2470	15809.49	3.9660	3.9661	0.8769	26.14	0.18	0.750			
0.2497	15979.28	3.9630	3.9629	0.8784	26.14	0.18	0.750			
0.2523	16148.03	3.9600	3.9600	0.8804	26.14	0.18	0.750			
0.2550	16317.08	3.9570	3.9570	0.8815	26.14	0.18	0.750			
0.2576	16487.30	3.9540	3.9541	0.8864	26.14	0.18	0.750			
0.2603	16657.59	3.9510	3.9510	0.8881	26.14	0.18	0.750			
0.2629	16827.62	3.9480	3.9480	0.8870	26.14	0.18	0.750			
0.2656	16998.02	3.9450	3.9450	0.8868	26.15	0.19	0.750			
0.2683	17168.70	3.9420	3.9420	0.8942	26.15	0.19	0.750			
0.2709	17339.45	3.9390	3.9389	0.8965	26.15	0.19	0.750			
0.2736	17513.04	3.9360	3.9360	0.8945	26.15	0.19	0.750			
0.2763	17683.78	3.9330	3.9330	0.8980	26.15	0.19	0.750			
0.2790	17857.81	3.9300	3.9301	0.9015	26.15	0.19	0.750			
0.2817	18031.28	3.9270	3.9270	0.9050	26.15	0.19	0.750			
0.2844	18203.82	3.9240	3.9239	0.9070	26.15	0.19	0.750			
0.2872	18378.55	3.9210	3.9210	0.9028	26.15	0.19	0.750			
0.2899	18552.07	3.9180	3.9180	0.9062	26.15	0.19	0.750			
0.2926	18726.42	3.9150	3.9151	0.9133	26.14	0.18	0.750			
0.2953	18900.71	3.9120	3.9120	0.9132	26.14	0.18	0.750			
0.2981	19077.50	3.9090	3.9089	0.9184	26.14	0.18	0.750			
0.3008	19253.57	3.9060	3.9060	0.9170	26.14	0.18	0.750			
0.3036	19429.67	3.9030	3.9031	0.9238	26.13	0.17	0.750			
0.3064	19609.19	3.9000	3.9000	0.9307	26.13	0.17	0.750			
0.3092	19786.96	3.8970	3.8968	0.9283	26.13	0.17	0.750			
0.3119	19964.63	3.8940	3.8940	0.9255	26.13	0.17	0.750			
0.3147	20142.83	3.8910	3.8911	0.9328	26.13	0.17	0.750			
0.3175	20322.74	3.8880	3.8880	0.9388	26.14	0.18	0.750			
0.3203	20502.03	3.8850	3.8849	0.9391	26.14	0.18	0.750			
0.3232	20684.00	3.8820	3.8820	0.9413	26.14	0.18	0.750			
0.3260	20865.68	3.8790	3.8790	0.9477	26.13	0.17	0.750			
0.3289	21048.27	3.8760	3.8761	0.9532	26.13	0.17	0.750			
0.3317	21231.68	3.8730	3.8731	0.9611	26.12	0.16	0.750			
0.3346	21415.17	3.8700	3.8700	0.9648	26.12	0.16	0.750			
0.3375	21601.68	3.8670	3.8670	0.9676	26.11	0.15	0.750			
0.3404	21787.35	3.8640	3.8641	0.9740	26.10	0.14	0.750			
0.3433	21974.12	3.8610	3.8611	0.9846	26.09	0.13	0.750			
0.3463	22164.65	3.8580	3.8579	0.9884	26.08	0.12	0.750			
0.3493	22355.62	3.8550	3.8550	0.9893	26.08	0.12	0.750			
0.3523	22545.66	3.8520	3.8521	0.9959	26.08	0.12	0.750			
0.3553	22738.06	3.8490	3.8492	1.0056	26.07	0.11	0.750			
0.3583	22931.82	3.8460	3.8459	1.0105	26.07	0.11	0.750			
0.3613	23126.24	3.8430	3.8430	1.0096	26.07	0.11	0.750			
0.3644	23319.56	3.8400	3.8401	1.0193	26.06	0.10	0.750			
0.3675	23517.05	3.8370	3.8370	1.0346	26.06	0.10	0.750			
0.3706	23715.89	3.8340	3.8339	1.0453	26.05	0.09	0.750			
0.3737	23916.60	3.8310	3.8310	1.0516	26.04	0.08	0.750			
0.3769	24118.96	3.8280	3.8280	1.0623	26.04	0.08	0.750			
0.3801	24325.01	3.8250	3.8250	1.0735	26.03	0.07	0.750			
0.3833	24534.19	3.8220	3.8220	1.0827	26.02	0.06	0.750			
0.3866	24741.70	3.8190	3.8190	1.0845	26.02	0.06	0.750			
0.3898	24948.75	3.8160	3.8160	1.0943	26.01	0.05	0.750			
0.3931	25158.24	3.8130	3.8131	1.1042	26.01	0.05	0.750			
0.3965	25372.86	3.8100	3.8098	1.1177	26.00	0.04	0.750			
0.3998	25587.70	3.8070	3.8070	1.1318	25.99	0.03	0.750			
0.4032	25806.84	3.8040	3.8040	1.1465	25.98	0.02	0.750			
0.4067	26028.18	3.8010	3.8011	1.1661	25.98	0.02	0.750			
0.4102	26253.05	3.7980	3.7980	1.1762	25.97	0.01	0.750			
0.4138	26480.70	3.7950	3.7950	1.1906	25.96	-0.00	0.750			
0.4174	26710.68	3.7920	3.7920	1.2073	25.95	-0.01	0.750			
0.4210	26944.72	3.7890	3.7890	1.2197	25.94	-0.02	0.750			
0.4247	27179.80	3.7860	3.7860	1.2387	25.93	-0.03	0.750			
0.4284	27419.61	3.7830	3.7830	1.2596	25.92	-0.04	0.750			
0.4322	27662.67	3.7800	3.7800	1.2721	25.91	-0.05	0.750			
0.4361	27908.73	3.7770	3.7771	1.2999	25.90	-0.06	0.750			
0.4400	28160.39	3.7740	3.7740	1.3216	25.89	-0.07	0.750			
0.4440	28416.61	3.7710	3.7710	1.3395	25.88	-0.08	0.750			
0.4481	28675.76	3.7680	3.7681	1.3669	25.88	-0.08	0.750			
0.4522	28938.74	3.7650	3.7651	1.3880	25.86	-0.10	0.750			
0.4564	29209.70	3.7620	3.7620	1.4078	25.85	-0.11	0.750			
0.4607	29482.96	3.7590	3.7590	1.4359	25.84	-0.12	0.750			
0.4650	29757.85	3.7560	3.7560	1.4625	25.83	-0.13	0.750			
0.4694	30040.88	3.7530	3.7530	1.4972	25.82	-0.14	0.750			
0.4739	30331.74	3.7500	3.7501	1.5286	25.82	-0.14	0.750			
0.4786	30628.38	3.7470	3.7469	1.5553	25.81	-0.15	0.750			
0.4833	30930.24	3.7440	3.7439	1.5961	25.80	-0.16	0.750			
0.4881	31239.77	3.7410	3.7411	1.6264	25.79	-0.17	0.750			
0.4931	31555.45	3.7380	3.7380	1.6670	25.79	-0.17	0.750			
0.4981	31877.94	3.7350	3.7350	1.7018	25.78	-0.18	0.750			
0.5033	32210.25	3.7320	3.7320	1.7441	25.77	-0.19	0.750			
0.5086	32548.64	3.7290	3.7289	1.7906	25.77	-0.19	0.750			
0.5140	32897.50	3.7260	3.7260	1.8297	25.77	-0.19	0.750			
0.5195	33249.89	3.7230	3.7230	1.8715	25.76	-0.20	0.750			
0.5252	33612.09	3.7200	3.7201	1.9586	25.76	-0.20	0.750			
0.5312	33993.84	3.7170	3.7169	2.0104	25.75	-0.21	0.750			
0.5374	34390.68	3.7140	3.7143	2.0741	25.75	-0.21	0.750	0.346	0.491	
0.5437	34794.03	3.7110	3.7112	2.1201	25.74	-0.22	0.750			
0.5502	35211.20	3.7080	3.7079	2.1605	25.73	-0.23	0.750			
0.5566	35621.06	3.7050	3.7050	2.2024	25.72	-0.24	0.750			
0.5633	36049.27	3.7020	3.7020	2.2527	25.72	-0.24	0.750			
0.5702	36490.69	3.6990	3.6991	2.2951	25.72	-0.24	0.750			
0.5771	36935.22	3.6960	3.6960	2.3520	25.72	-0.24	0.750			
0.5842	37389.82	3.6930	3.6930	2.4216	25.71	-0.25	0.750			
0.5915	37856.97	3.6900	3.6900	2.4784	25.70	-0.26	0.750			
0.5991	38344.12	3.6870	3.6871	2.5597	25.70	-0.26	0.750			
0.6069	38843.89	3.6840	3.6840	2.6288	25.70	-0.26	0.750			
0.6149	39353.80	3.6810	3.6810	2.6374	25.70	-0.26	0.750			
0.6230	39869.24	3.6780	3.6781	2.6805	25.70	-0.26	0.750			
0.6311	40387.37	3.6750	3.6748	2.6469	25.70	-0.26	0.750			
0.6390	40893.32	3.6720	3.6721	2.5847	25.71	-0.25	0.750			
0.6467	41390.57	3.6690	3.6691	2.4877	25.72	-0.24	0.750			
0.6540	41857.35	3.6660	3.6660	2.3099	25.72	-0.24	0.750			
0.6607	42286.20	3.6630	3.6631	2.1336	25.72	-0.24	0.750			
0.6668	42673.57	3.6600	3.6601	1.9567	25.72	-0.24	0.750			
0.6722	43022.63	3.6570	3.6570	1.7634	25.72	-0.24	0.750			
0.6771	43336.41	3.6540	3.6541	1.6248	25.73	-0.23	0.750			
0.6819	43639.15	3.6510	3.6510	1.5287	25.74	-0.22	0.750			
0.6862	43915.80	3.6480	3.6480	1.4464	25.74	-0.22	0.750			
0.6903	44182.26	3.6450	3.6450	1.3792	25.75	-0.21	0.750			
0.6944	44439.42	3.6420	3.6420	1.3204	25.76	-0.20	0.750			
0.6983	44688.50	3.6390	3.6390	1.2801	25.76	-0.20	0.750			
0.7020	44926.71	3.6360	3.6360	1.2371	25.76	-0.20	0.750			
0.7056	45158.36	3.6330	3.6331	1.2144	25.77	-0.19	0.750			
0.7092	45386.42	3.6300	3.6299	1.1932	25.77	-0.19	0.750			
0.7127	45612.20	3.6270	3.6270	1.1846	25.77	-0.19	0.750			
0.7162	45836.62	3.6240	3.6240	1.1801	25.78	-0.18	0.750			
0.7198	46065.46	3.6210	3.6210	1.1827	25.78	-0.18	0.750			
0.7233	46293.15	3.6180	3.6180	1.1757	25.78	-0.18	0.750			
0.7268	46517.83	3.6150	3.6150	1.1746	25.79	-0.17	0.750			
0.7303	46742.08	3.6120	3.6121	1.1755	25.79	-0.17	0.750			
0.7339	46967.07	3.6090	3.6088	1.1767	25.80	-0.16	0.750			
0.7374	47192.55	3.6060	3.6060	1.1807	25.80	-0.16	0.750			
0.7409	47419.27	3.6030	3.6031	1.1899	25.80	-0.16	0.750			
0.7445	47649.21	3.6000	3.6000	1.2022	25.80	-0.16	0.750			
0.7481	47877.52	3.5970	3.5970	1.2201	25.80	-0.16	0.750			
0.7517	48110.72	3.5940	3.5940	1.2406	25.80	-0.16	0.750			
0.7555	48351.15	3.5910	3.5910	1.2726	25.80	-0.16	0.750			
0.7594	48598.55	3.5880	3.5879	1.3082	25.80	-0.16	0.750			
0.7633	48851.47	3.5850	3.5851	1.3532	25.80	-0.16	0.750			
0.7674	49115.87	3.5820	3.5820	1.3957	25.80	-0.16	0.750			
0.7717	49389.34	3.5790	3.5789	1.4371	25.80	-0.16	0.750			
0.7761	49668.90	3.5760	3.5760	1.4772	25.80	-0.16	0.750			
0.7806	49958.29	3.5730	3.5731	1.5208	25.79	-0.17	0.750			
0.7852	50255.24	3.5700	3.5700	1.5573	25.79	-0.17	0.750			
0.7900	50559.51	3.5670	3.5670	1.5862	25.79	-0.17	0.750			
0.7948	50866.89	3.5640	3.5640	1.6113	25.78	-0.18	0.750			
0.7997	51183.09	3.5610	3.5611	1.6239	25.78	-0.18	0.750			
0.8047	51500.57	3.5580	3.5580	1.6309	25.79	-0.17	0.750			
0.8096	51814.47	3.5550	3.5550	1.6219	25.79	-0.17	0.750			
0.8145	52125.81	3.5520	3.5519	1.6184	25.79	-0.17	0.750			
0.8193	52436.03	3.5490	3.5490	1.6113	25.79	-0.17	0.750			
0.8242	52748.06	3.5460	3.5460	1.5800	25.79	-0.17	0.750			
0.8290	53058.20	3.5430	3.5429	1.5337	25.80	-0.16	0.750			
0.8338	53361.57	3.5400	3.5400	1.4158	25.80	-0.16	0.750			
0.8381	53636.41	3.5370	3.5371	1.2785	25.81	-0.15	0.750			
0.8417	53870.78	3.5340	3.5342	1.0884	25.81	-0.15	0.750			
0.8447	54062.65	3.5310	3.5310	0.8914	25.82	-0.14	0.750			
0.8469	54203.68	3.5280	3.5280	0.7192	25.82	-0.14	0.750			
0.8487	54316.08	3.5250	3.5248	0.5720	25.83	-0.13	0.750			
0.8500	54398.11	3.5220	3.5219	0.4676	25.84	-0.12	0.750			
0.8512	54475.82	3.5190	3.5189	0.4029	25.85	-0.11	0.750			
0.8522	54541.23	3.5160	3.5160	0.3585	25.85	-0.11	0.750			
0.8532	54605.19	3.5130	3.5129	0.3315	25.86	-0.10	0.750			
0.8541	54664.63	3.5100	3.5100	0.3121	25.86	-0.10	0.750			
0.8550	54722.14	3.5070	3.5070	0.2985	25.87	-0.09	0.750			
0.8559	54777.58	3.5040	3.5040	0.2868	25.87	-0.09	0.750			
0.8567	54831.63	3.5010	3.5009	0.2778	25.88	-0.08	0.750			
0.8576	54883.78	3.4980	3.4981	0.2694	25.88	-0.08	0.750			
0.8584	54934.56	3.4950	3.4950	0.2623	25.89	-0.07	0.750			
0.8591	54983.94	3.4920	3.4920	0.2559	25.89	-0.07	0.750			
0.8599	55032.43	3.4890	3.4889	0.2501	25.90	-0.06	0.750			
0.8606	55079.23	3.4860	3.4860	0.2438	25.90	-0.06	0.750			
0.8613	55125.81	3.4830	3.4830	0.2395	25.90	-0.06	0.750			
0.8621	55171.50	3.4800	3.4800	0.2346	25.91	-0.05	0.750			
0.8627	55215.99	3.4770	3.4770	0.2294	25.91	-0.05	0.750			
0.8634	55259.46	3.4740	3.4740	0.2241	25.92	-0.04	0.750			
0.8641	55301.79	3.4710	3.4710	0.2201	25.92	-0.04	0.750			
0.8647	55343.60	3.4680	3.4680	0.2156	25.92	-0.04	0.750			
0.8654	55384.67	3.4650	3.4649	0.2113	25.93	-0.03	0.750			
0.8660	55424.83	3.4620	3.4621	0.2070	25.93	-0.03	0.750			
0.8666	55464.11	3.4590	3.4590	0.2026	25.93	-0.03	0.750			
0.8672	55502.70	3.4560	3.4560	0.1986	25.94	-0.02	0.750			
0.8678	55540.40	3.4530	3.4529	0.1942	25.94	-0.02	0.750			
0.8684	55577.27	3.4500	3.4501	0.1898	25.94	-0.02	0.750			
0.8690	55613.18	3.4470	3.4470	0.1846	25.95	-0.01	0.750			
0.8695	55648.36	3.4440	3.4440	0.1804	25.95	-0.01	0.750			
0.8700	55682.62	3.4410	3.4410	0.1757	25.95	-0.01	0.750			
0.8706	55715.87	3.4380	3.4380	0.1707	25.95	-0.01	0.750			
0.8711	55748.14	3.4350	3.4349	0.1659	25.96	-0.00	0.750			
0.8716	55779.32	3.4320	3.4320	0.1613	25.96	0.00	0.750			
0.8720	55809.86	3.4290	3.4290	0.1568	25.96	0.00	0.750			
0.8725	55839.55	3.4260	3.4260	0.1525	25.97	0.01	0.750			
0.8729	55868.67	3.4230	3.4229	0.1474	25.97	0.01	0.750			
0.8734	55896.36	3.4200	3.4200	0.1426	25.97	0.01	0.750			
0.8738	55923.42	3.4170	3.4171	0.1380	25.97	0.01	0.750			
0.8742	55949.44	3.4140	3.4139	0.1327	25.98	0.02	0.750			
0.8746	55974.43	3.4110	3.4109	0.1275	25.98	0.02	0.750			
0.8750	55998.34	3.4080	3.4081	0.1219	25.98	0.02	0.750			
0.8753	56021.36	3.4050	3.4051	0.1169	25.98	0.02	0.750			
0.8757	56043.52	3.4020	3.4020	0.1105	25.98	0.02	0.750			
0.8760	56064.51	3.3990	3.3990	0.1047	25.99	0.03	0.750			
0.8763	56084.99	3.3960	3.3959	0.0968	25.99	0.03	0.750			
0.8766	56102.73	3.3930	3.3930	0.0879	25.99	0.03	0.750			
0.8769	56119.47	3.3900	3.3901	0.0807	25.99	0.03	0.750			
0.8771	56134.02	3.3870	3.3872	0.0708	25.99	0.03	0.750			
0.8773	56147.27	3.3840	3.3843	0.0612	25.99	0.03	0.750			
0.8775	56157.99	3.3810	3.3816	0.0504	25.99	0.03	0.750			
0.8776	56166.64	3.3780	3.3790	0.0396	25.99	0.03	0.750			
0.8777	56173.22	3.3750	3.3765	0.0288	26.00	0.04	0.750			
