Ah_balance (normalized)	Ah_balance (mAh)	Voltage - fit (V)	Voltage -  interpolate (V)	dQ/dV (1/V)	Temperature (°C)	Temperature - diff (°C)	Current (C)	R_DC 0ms (mOhm)	R_DC 50ms (mOhm)	R_DC 50 ms PEC (mOhm)
0.2377	15209.67	3.9730	3.9731	0.8542	26.08	0.16	0.750			
0.2403	15377.16	3.9700	3.9699	0.8749	26.08	0.16	0.750			
0.2429	15548.29	3.9670	3.9670	0.8811	26.08	0.16	0.750			
0.2456	15718.26	3.9640	3.9640	0.8794	26.08	0.16	0.750			
0.2482	15887.58	3.9610	3.9611	0.8828	26.08	0.16	0.750			
0.2509	16057.64	3.9580	3.9580	0.8826	26.08	0.16	0.750			
0.2535	16224.71	3.9550	3.9549	0.8784	26.08	0.16	0.750			
0.2561	16392.60	3.9520	3.9520	0.8825	26.08	0.16	0.750			
0.2588	16562.68	3.9490	3.9491	0.8861	26.08	0.16	0.750			
0.2615	16733.49	3.9460	3.9460	0.8912	26.08	0.16	0.750			
0.2642	16905.86	3.9430	3.9430	0.8955	26.08	0.16	0.750			
0.2668	17076.84	3.9400	3.9400	0.8987	26.08	0.16	0.750			
0.2696	17251.74	3.9370	3.9370	0.8975	26.08	0.16	0.750			
0.2722	17423.79	3.9340	3.9340	0.8980	26.09	0.17	0.750			
0.2749	17595.84	3.9310	3.9310	0.8998	26.09	0.17	0.750			
0.2776	17768.98	3.9280	3.9280	0.9031	26.10	0.18	0.750			
0.2803	17941.70	3.9250	3.9249	0.9038	26.10	0.18	0.750			
0.2831	18115.45	3.9220	3.9221	0.9066	26.10	0.18	0.750			
0.2858	18288.65	3.9190	3.9190	0.9134	26.10	0.18	0.750			
0.2885	18466.63	3.9160	3.9160	0.9201	26.10	0.18	0.750			
0.2913	18643.50	3.9130	3.9129	0.9202	26.10	0.18	0.750			
0.2941	18821.16	3.9100	3.9100	0.9199	26.10	0.18	0.750			
0.2968	18998.31	3.9070	3.9071	0.9229	26.10	0.18	0.750			
0.2996	19175.17	3.9040	3.9040	0.9261	26.09	0.17	0.750			
0.3024	19352.70	3.9010	3.9010	0.9289	26.09	0.17	0.750			
0.3051	19529.27	3.8980	3.8980	0.9327	26.09	0.17	0.750			
0.3080	19710.47	3.8950	3.8950	0.9390	26.09	0.17	0.750			
0.3108	19893.39	3.8920	3.8920	0.9428	26.09	0.17	0.750			
0.3137	20074.47	3.8890	3.8889	0.9461	26.09	0.17	0.750			
0.3165	20255.81	3.8860	3.8860	0.9456	26.09	0.17	0.750			
0.3193	20437.36	3.8830	3.8830	0.9438	26.09	0.17	0.750			
0.3222	20618.18	3.8800	3.8800	0.9492	26.09	0.17	0.750			
0.3250	20799.30	3.8770	3.8771	0.9541	26.08	0.16	0.750			
0.3279	20984.67	3.8740	3.8740	0.9618	26.08	0.16	0.750			
0.3308	21170.25	3.8710	3.8711	0.9680	26.08	0.16	0.750			
0.3337	21356.23	3.8680	3.8680	0.9703	26.08	0.16	0.750			
0.3366	21543.55	3.8650	3.8651	0.9770	26.08	0.16	0.750			
0.3396	21732.03	3.8620	3.8620	0.9812	26.08	0.16	0.750			
0.3425	21919.68	3.8590	3.8590	0.9868	26.08	0.16	0.750			
0.3455	22109.26	3.8560	3.8560	0.9918	26.07	0.15	0.750			
0.3485	22301.33	3.8530	3.8531	0.9996	26.07	0.15	0.750			
0.3515	22493.01	3.8500	3.8500	1.0074	26.07	0.15	0.750			
0.3545	22687.75	3.8470	3.8470	1.0130	26.06	0.14	0.750			
0.3575	22882.64	3.8440	3.8440	1.0164	26.06	0.14	0.750			
0.3606	23078.05	3.8410	3.8411	1.0236	26.05	0.13	0.750			
0.3637	23275.24	3.8380	3.8380	1.0283	26.05	0.13	0.750			
0.3668	23473.40	3.8350	3.8349	1.0375	26.04	0.12	0.750			
0.3699	23672.39	3.8320	3.8320	1.0447	26.04	0.12	0.750			
0.3730	23871.99	3.8290	3.8290	1.0567	26.03	0.11	0.750			
0.3762	24077.57	3.8260	3.8260	1.0709	26.03	0.11	0.750			
0.3795	24285.81	3.8230	3.8229	1.0778	26.02	0.10	0.750			
0.3827	24492.34	3.8200	3.8200	1.0888	26.02	0.10	0.750			
0.3860	24702.43	3.8170	3.8171	1.1025	26.01	0.09	0.750			
0.3893	24915.24	3.8140	3.8140	1.1125	26.00	0.08	0.750			
0.3927	25130.60	3.8110	3.8108	1.1188	26.00	0.08	0.750			
0.3960	25345.15	3.8080	3.8081	1.1333	25.99	0.07	0.750			
0.3994	25563.99	3.8050	3.8051	1.1491	25.99	0.07	0.750			
0.4029	25786.22	3.8020	3.8020	1.1618	25.98	0.06	0.750			
0.4064	26009.22	3.7990	3.7990	1.1763	25.98	0.06	0.750			
0.4099	26235.12	3.7960	3.7960	1.1969	25.97	0.05	0.750			
0.4136	26468.54	3.7930	3.7930	1.2158	25.97	0.05	0.750			
0.4173	26705.81	3.7900	3.7899	1.2248	25.96	0.04	0.750			
0.4210	26941.07	3.7870	3.7871	1.2396	25.96	0.04	0.750			
0.4247	27180.55	3.7840	3.7840	1.2596	25.96	0.04	0.750			
0.4285	27424.57	3.7810	3.7809	1.2709	25.96	0.04	0.750			
0.4323	27667.23	3.7780	3.7780	1.2946	25.95	0.03	0.750			
0.4362	27916.52	3.7750	3.7751	1.3158	25.94	0.02	0.750			
0.4402	28174.01	3.7720	3.7720	1.3385	25.94	0.02	0.750			
0.4443	28434.29	3.7690	3.7690	1.3707	25.93	0.01	0.750			
0.4484	28697.85	3.7660	3.7661	1.3890	25.92	0.00	0.750			
0.4526	28966.46	3.7630	3.7630	1.4215	25.91	-0.01	0.750			
0.4569	29242.96	3.7600	3.7600	1.4465	25.90	-0.02	0.750			
0.4612	29519.63	3.7570	3.7570	1.4714	25.89	-0.03	0.750			
0.4657	29806.11	3.7540	3.7540	1.5011	25.88	-0.04	0.750			
0.4703	30098.05	3.7510	3.7508	1.5220	25.87	-0.05	0.750			
0.4749	30393.87	3.7480	3.7481	1.5567	25.86	-0.06	0.750			
0.4796	30695.09	3.7450	3.7449	1.5884	25.85	-0.07	0.750			
0.4844	31001.69	3.7420	3.7420	1.6255	25.85	-0.07	0.750			
0.4893	31317.28	3.7390	3.7391	1.6698	25.84	-0.08	0.750			
0.4943	31636.98	3.7360	3.7360	1.7075	25.83	-0.09	0.750			
0.4996	31972.47	3.7330	3.7330	1.7465	25.82	-0.10	0.750			
0.5049	32311.51	3.7300	3.7300	1.7890	25.80	-0.12	0.750			
0.5103	32660.43	3.7270	3.7269	1.8290	25.79	-0.13	0.750			
0.5158	33012.14	3.7240	3.7240	1.8625	25.78	-0.14	0.750			
0.5214	33370.82	3.7210	3.7211	1.9203	25.77	-0.15	0.750			
0.5273	33744.93	3.7180	3.7179	1.9616	25.76	-0.16	0.750			
0.5332	34127.23	3.7150	3.7150	2.0328	25.75	-0.17	0.750			
0.5394	34521.23	3.7120	3.7120	2.0892	25.74	-0.18	0.750	0.371	0.493	
0.5458	34931.86	3.7090	3.7088	2.1389	25.73	-0.19	0.750			
0.5522	35343.86	3.7060	3.7060	2.1799	25.72	-0.20	0.750			
0.5589	35770.41	3.7030	3.7030	2.2289	25.72	-0.20	0.750			
0.5657	36204.24	3.7000	3.7000	2.2828	25.71	-0.21	0.750			
0.5726	36643.49	3.6970	3.6970	2.3395	25.71	-0.21	0.750			
0.5797	37099.53	3.6940	3.6941	2.4215	25.70	-0.22	0.750			
0.5870	37569.97	3.6910	3.6910	2.4958	25.69	-0.23	0.750			
0.5946	38056.82	3.6880	3.6880	2.5611	25.68	-0.24	0.750			
0.6024	38556.08	3.6850	3.6850	2.6198	25.68	-0.24	0.750			
0.6104	39065.54	3.6820	3.6819	2.6560	25.67	-0.25	0.750			
0.6184	39577.10	3.6790	3.6790	2.6802	25.66	-0.26	0.750			
0.6265	40098.53	3.6760	3.6760	2.6891	25.66	-0.26	0.750			
0.6347	40619.08	3.6730	3.6730	2.6635	25.66	-0.26	0.750			
0.6427	41130.31	3.6700	3.6701	2.5694	25.66	-0.26	0.750			
0.6503	41617.97	3.6670	3.6671	2.4402	25.67	-0.25	0.750			
0.6574	42072.76	3.6640	3.6639	2.2679	25.68	-0.24	0.750			
0.6639	42488.52	3.6610	3.6611	2.0880	25.68	-0.24	0.750			
0.6698	42868.69	3.6580	3.6580	1.9156	25.68	-0.24	0.750			
0.6753	43216.71	3.6550	3.6550	1.7622	25.69	-0.23	0.750			
0.6802	43535.07	3.6520	3.6520	1.6202	25.69	-0.23	0.750			
0.6848	43826.64	3.6490	3.6490	1.5164	25.70	-0.22	0.750			
0.6891	44099.91	3.6460	3.6460	1.4262	25.70	-0.22	0.750			
0.6932	44365.42	3.6430	3.6429	1.3702	25.71	-0.21	0.750			
0.6972	44617.73	3.6400	3.6400	1.3163	25.71	-0.21	0.750			
0.7010	44865.25	3.6370	3.6370	1.2792	25.72	-0.20	0.750			
0.7048	45107.64	3.6340	3.6337	1.2474	25.72	-0.20	0.750			
0.7085	45342.47	3.6310	3.6311	1.2213	25.73	-0.19	0.750			
0.7121	45572.50	3.6280	3.6280	1.2067	25.73	-0.19	0.750			
0.7156	45800.84	3.6250	3.6250	1.1944	25.74	-0.18	0.750			
0.7192	46028.37	3.6220	3.6220	1.1788	25.74	-0.18	0.750			
0.7227	46253.92	3.6190	3.6190	1.1776	25.74	-0.18	0.750			
0.7263	46480.22	3.6160	3.6161	1.1739	25.75	-0.17	0.750			
0.7298	46706.70	3.6130	3.6128	1.1649	25.75	-0.17	0.750			
0.7333	46928.51	3.6100	3.6100	1.1651	25.75	-0.17	0.750			
0.7367	47150.05	3.6070	3.6071	1.1708	25.76	-0.16	0.750			
0.7402	47374.45	3.6040	3.6040	1.1785	25.76	-0.16	0.750			
0.7438	47600.72	3.6010	3.6011	1.1843	25.76	-0.16	0.750			
0.7473	47828.14	3.5980	3.5980	1.1951	25.76	-0.16	0.750			
0.7509	48058.07	3.5950	3.5951	1.2229	25.76	-0.16	0.750			
0.7546	48296.51	3.5920	3.5919	1.2397	25.76	-0.16	0.750			
0.7583	48532.31	3.5890	3.5890	1.2734	25.76	-0.16	0.750			
0.7622	48778.18	3.5860	3.5861	1.3130	25.76	-0.16	0.750			
0.7662	49035.35	3.5830	3.5829	1.3496	25.76	-0.16	0.750			
0.7703	49298.08	3.5800	3.5801	1.3937	25.76	-0.16	0.750			
0.7745	49570.25	3.5770	3.5770	1.4345	25.76	-0.16	0.750			
0.7789	49848.58	3.5740	3.5740	1.4713	25.76	-0.16	0.750			
0.7834	50137.99	3.5710	3.5709	1.4995	25.76	-0.16	0.750			
0.7880	50429.02	3.5680	3.5681	1.5347	25.76	-0.16	0.750			
0.7927	50730.78	3.5650	3.5649	1.5587	25.76	-0.16	0.750			
0.7974	51032.76	3.5620	3.5620	1.5839	25.76	-0.16	0.750			
0.8022	51339.40	3.5590	3.5592	1.5892	25.76	-0.16	0.750			
0.8070	51646.59	3.5560	3.5560	1.6014	25.76	-0.16	0.750			
0.8118	51957.70	3.5530	3.5529	1.6015	25.75	-0.17	0.750			
0.8166	52265.28	3.5500	3.5499	1.6010	25.75	-0.17	0.750			
0.8215	52574.80	3.5470	3.5470	1.5900	25.75	-0.17	0.750			
0.8263	52881.91	3.5440	3.5440	1.5594	25.76	-0.16	0.750			
0.8311	53187.43	3.5410	3.5410	1.4994	25.76	-0.16	0.750			
0.8357	53484.89	3.5380	3.5379	1.3808	25.77	-0.15	0.750			
0.8399	53750.42	3.5350	3.5351	1.2362	25.78	-0.14	0.750			
0.8434	53976.78	3.5320	3.5322	1.0504	25.79	-0.13	0.750			
0.8462	54159.28	3.5290	3.5291	0.8593	25.80	-0.12	0.750			
0.8483	54294.30	3.5260	3.5259	0.6969	25.81	-0.11	0.750			
0.8500	54397.79	3.5230	3.5229	0.5522	25.82	-0.10	0.750			
0.8513	54482.31	3.5200	3.5199	0.4617	25.82	-0.10	0.750			
0.8525	54559.75	3.5170	3.5170	0.4025	25.83	-0.09	0.750			
0.8536	54627.23	3.5140	3.5140	0.3615	25.83	-0.09	0.750			
0.8546	54692.79	3.5110	3.5109	0.3365	25.84	-0.08	0.750			
0.8555	54753.12	3.5080	3.5081	0.3149	25.84	-0.08	0.750			
0.8564	54811.63	3.5050	3.5049	0.2997	25.85	-0.07	0.750			
0.8573	54867.08	3.5020	3.5021	0.2877	25.86	-0.06	0.750			
0.8581	54920.59	3.4990	3.4990	0.2780	25.86	-0.06	0.750			
0.8589	54972.64	3.4960	3.4960	0.2689	25.87	-0.05	0.750			
0.8597	55023.36	3.4930	3.4930	0.2617	25.87	-0.05	0.750			
0.8605	55072.61	3.4900	3.4900	0.2547	25.88	-0.04	0.750			
0.8613	55121.11	3.4870	3.4870	0.2491	25.88	-0.04	0.750			
0.8620	55168.38	3.4840	3.4840	0.2430	25.89	-0.03	0.750			
0.8627	55214.33	3.4810	3.4810	0.2363	25.89	-0.03	0.750			
0.8634	55259.04	3.4780	3.4780	0.2310	25.90	-0.02	0.750			
0.8641	55302.52	3.4750	3.4750	0.2245	25.90	-0.02	0.750			
0.8648	55345.12	3.4720	3.4720	0.2193	25.90	-0.02	0.750			
0.8654	55386.59	3.4690	3.4690	0.2148	25.91	-0.01	0.750			
0.8661	55427.24	3.4660	3.4660	0.2101	25.91	-0.01	0.750			
0.8667	55467.25	3.4630	3.4630	0.2052	25.92	-0.00	0.750			
0.8673	55506.21	3.4600	3.4600	0.2006	25.92	0.00	0.750			
0.8679	55544.47	3.4570	3.4570	0.1961	25.92	0.00	0.750			
0.8685	55581.64	3.4540	3.4541	0.1909	25.93	0.01	0.750			
0.8690	55617.61	3.4510	3.4510	0.1869	25.93	0.01	0.750			
0.8696	55653.06	3.4480	3.4480	0.1824	25.93	0.01	0.750			
0.8701	55687.49	3.4450	3.4450	0.1772	25.94	0.02	0.750			
0.8706	55721.08	3.4420	3.4419	0.1728	25.94	0.02	0.750			
0.8712	55754.00	3.4390	3.4391	0.1686	25.95	0.03	0.750			
0.8717	55785.92	3.4360	3.4360	0.1639	25.95	0.03	0.750			
0.8721	55816.88	3.4330	3.4329	0.1598	25.95	0.03	0.750			
0.8726	55847.40	3.4300	3.4300	0.1546	25.95	0.03	0.750			
0.8731	55876.29	3.4270	3.4270	0.1494	25.96	0.04	0.750			
0.8735	55904.54	3.4240	3.4241	0.1449	25.96	0.04	0.750			
0.8739	55932.20	3.4210	3.4211	0.1405	25.96	0.04	0.750			
0.8744	55958.48	3.4180	3.4179	0.1358	25.97	0.05	0.750			
0.8748	55984.01	3.4150	3.4151	0.1311	25.97	0.05	0.750			
0.8751	56008.86	3.4120	3.4119	0.1265	25.97	0.05	0.750			
0.8755	56032.57	3.4090	3.4091	0.1218	25.97	0.05	0.750			
0.8759	56056.07	3.4060	3.4059	0.1175	25.98	0.06	0.750			
0.8762	56078.06	3.4030	3.4031	0.1120	25.98	0.06	0.750			
0.8766	56099.20	3.4000	3.4000	0.1064	25.98	0.06	0.750			
0.8769	56119.32	3.3970	3.3970	0.1013	25.98	0.06	0.750			
0.8772	56138.20	3.3940	3.3941	0.0954	25.98	0.06	0.750			
0.8774	56156.78	3.3910	3.3908	0.0874	25.99	0.07	0.750			
0.8777	56172.80	3.3880	3.3880	0.0794	25.99	0.07	0.750			
0.8779	56187.97	3.3850	3.3851	0.0726	25.99	0.07	0.750			
0.8781	56201.06	3.3820	3.3823	0.0638	25.99	0.07	0.750			
0.8783	56213.30	3.3790	3.3794	0.0551	25.99	0.07	0.750			
0.8785	56222.94	3.3760	3.3767	0.0453	25.99	0.07	0.750			
0.8786	56230.69	3.3730	3.3741	0.0355	25.99	0.07	0.750			
0.8787	56236.55	3.3700	3.3718	0.0256	25.99	0.07	0.750			
