Ah_balance (normalized)	Ah_balance (mAh)	Voltage - fit (V)	Voltage -  interpolate (V)	dQ/dV (1/V)	Temperature (°C)	Temperature - diff (°C)	Current (C)	R_DC 0ms (mOhm)	R_DC 50ms (mOhm)	R_DC 50 ms PEC (mOhm)
0.2161	13830.19	3.9120	3.9118	-0.1065	25.86	0.00	-1.500			
0.2165	13854.65	3.9090	3.9089	-0.1424	25.86	0.00	-1.500			
0.2170	13885.08	3.9060	3.9059	-0.1736	25.86	0.00	-1.500			
0.2175	13921.40	3.9030	3.9030	-0.2044	25.86	0.00	-1.500			
0.2182	13963.71	3.9000	3.9001	-0.2343	25.86	0.00	-1.500			
0.2189	14012.41	3.8970	3.8970	-0.2638	25.86	0.00	-1.500			
0.2198	14065.77	3.8940	3.8940	-0.2912	25.86	0.00	-1.500			
0.2207	14124.66	3.8910	3.8910	-0.3180	25.86	0.00	-1.500			
0.2217	14188.24	3.8880	3.8881	-0.3449	25.86	0.00	-1.500			
0.2228	14256.84	3.8850	3.8850	-0.3733	25.86	0.00	-1.500			
0.2239	14330.87	3.8820	3.8820	-0.3997	25.86	0.00	-1.500			
0.2252	14410.60	3.8790	3.8790	-0.4268	25.86	0.00	-1.500			
0.2265	14495.31	3.8760	3.8759	-0.4551	25.86	0.00	-1.500			
0.2279	14585.37	3.8730	3.8730	-0.4826	25.86	0.00	-1.500			
0.2294	14681.50	3.8700	3.8700	-0.5079	25.86	0.00	-1.500			
0.2310	14781.29	3.8670	3.8670	-0.5319	25.86	0.00	-1.500			
0.2326	14886.01	3.8640	3.8641	-0.5548	25.86	0.00	-1.500			
0.2343	14995.06	3.8610	3.8610	-0.5777	25.86	0.00	-1.500			
0.2361	15108.23	3.8580	3.8580	-0.5970	25.86	0.00	-1.500			
0.2379	15224.98	3.8550	3.8550	-0.6153	25.86	0.00	-1.500			
0.2398	15345.38	3.8520	3.8520	-0.6310	25.86	0.00	-1.500			
0.2417	15469.71	3.8490	3.8490	-0.6447	25.86	0.00	-1.500			
0.2437	15594.28	3.8460	3.8460	-0.6562	25.86	0.00	-1.500			
0.2457	15722.14	3.8430	3.8430	-0.6666	25.86	0.00	-1.500			
0.2477	15850.83	3.8400	3.8399	-0.6765	25.86	0.00	-1.500			
0.2497	15981.76	3.8370	3.8370	-0.6864	25.86	0.00	-1.500			
0.2518	16114.17	3.8340	3.8340	-0.6956	25.86	0.00	-1.500			
0.2539	16249.64	3.8310	3.8310	-0.7038	25.86	0.00	-1.500			
0.2560	16385.39	3.8280	3.8280	-0.7109	25.86	0.00	-1.500			
0.2582	16523.00	3.8250	3.8250	-0.7134	25.86	0.00	-1.500			
0.2603	16660.45	3.8220	3.8220	-0.7190	25.86	0.00	-1.500			
0.2625	16799.65	3.8190	3.8190	-0.7209	25.86	0.00	-1.500			
0.2647	16937.83	3.8160	3.8160	-0.7253	25.86	0.00	-1.500			
0.2668	17077.71	3.8130	3.8129	-0.7262	25.87	0.01	-1.500			
0.2690	17217.70	3.8100	3.8101	-0.7277	25.87	0.01	-1.500			
0.2712	17356.94	3.8070	3.8069	-0.7308	25.87	0.01	-1.500			
0.2734	17497.95	3.8040	3.8040	-0.7349	25.87	0.01	-1.500			
0.2756	17638.89	3.8010	3.8010	-0.7338	25.88	0.02	-1.500			
0.2778	17780.27	3.7980	3.7980	-0.7377	25.88	0.02	-1.500			
0.2800	17922.33	3.7950	3.7950	-0.7365	25.88	0.02	-1.500			
0.2823	18064.81	3.7920	3.7920	-0.7386	25.88	0.02	-1.500			
0.2845	18205.89	3.7890	3.7890	-0.7383	25.89	0.03	-1.500			
0.2867	18346.37	3.7860	3.7860	-0.7397	25.89	0.03	-1.500			
0.2889	18489.16	3.7830	3.7830	-0.7418	25.89	0.03	-1.500			
0.2911	18632.71	3.7800	3.7800	-0.7422	25.89	0.03	-1.500			
0.2934	18775.47	3.7770	3.7770	-0.7417	25.90	0.04	-1.500			
0.2956	18918.61	3.7740	3.7740	-0.7427	25.90	0.04	-1.500			
0.2978	19060.23	3.7710	3.7710	-0.7406	25.90	0.04	-1.500			
0.3000	19202.24	3.7680	3.7680	-0.7402	25.91	0.05	-1.500			
0.3023	19344.15	3.7650	3.7650	-0.7410	25.91	0.05	-1.500			
0.3045	19486.47	3.7620	3.7620	-0.7426	25.91	0.05	-1.500			
0.3067	19629.19	3.7590	3.7590	-0.7439	25.91	0.05	-1.500			
0.3089	19772.30	3.7560	3.7560	-0.7443	25.92	0.06	-1.500			
0.3112	19915.16	3.7530	3.7530	-0.7445	25.92	0.06	-1.500			
0.3134	20058.58	3.7500	3.7500	-0.7436	25.92	0.06	-1.500			
0.3156	20201.34	3.7470	3.7470	-0.7414	25.93	0.07	-1.500			
0.3179	20343.25	3.7440	3.7440	-0.7419	25.93	0.07	-1.500			
0.3201	20485.23	3.7410	3.7410	-0.7415	25.94	0.08	-1.500			
0.3223	20627.42	3.7380	3.7379	-0.7422	25.94	0.08	-1.500			
0.3245	20769.33	3.7350	3.7350	-0.7456	25.95	0.09	-1.500			
0.3268	20912.88	3.7320	3.7320	-0.7489	25.95	0.09	-1.500			
0.3290	21057.19	3.7290	3.7290	-0.7558	25.96	0.10	-1.500			
0.3313	21202.99	3.7260	3.7259	-0.7579	25.97	0.11	-1.500			
0.3336	21347.81	3.7230	3.7231	-0.7606	25.97	0.11	-1.500			
0.3359	21494.93	3.7200	3.7200	-0.7662	25.98	0.12	-1.500			
0.3382	21642.84	3.7170	3.7169	-0.7696	25.98	0.12	-1.500			
0.3405	21790.69	3.7140	3.7141	-0.7730	25.99	0.13	-1.500			
0.3428	21938.19	3.7110	3.7111	-0.7814	25.99	0.13	-1.500			
0.3451	22089.20	3.7080	3.7080	-0.7859	25.99	0.13	-1.500			
0.3475	22241.39	3.7050	3.7050	-0.7945	26.00	0.14	-1.500			
0.3499	22392.69	3.7020	3.7019	-0.8017	26.00	0.14	-1.500			
0.3523	22548.20	3.6990	3.6991	-0.8099	26.00	0.14	-1.500			
0.3548	22705.35	3.6960	3.6959	-0.8200	26.01	0.15	-1.500			
0.3572	22862.93	3.6930	3.6930	-0.8282	26.01	0.15	-1.500			
0.3597	23021.40	3.6900	3.6901	-0.8359	26.02	0.16	-1.500			
0.3623	23184.26	3.6870	3.6871	-0.8499	26.02	0.16	-1.500			
0.3648	23346.80	3.6840	3.6840	-0.8622	26.02	0.16	-1.500			
0.3674	23512.94	3.6810	3.6809	-0.8789	26.03	0.17	-1.500			
0.3701	23684.24	3.6780	3.6780	-0.8927	26.03	0.17	-1.500			
0.3728	23857.60	3.6750	3.6750	-0.9085	26.04	0.18	-1.500			
0.3755	24034.80	3.6720	3.6720	-0.9097	26.04	0.18	-1.500			
0.3783	24209.96	3.6690	3.6689	-0.9189	26.05	0.19	-1.500			
0.3810	24384.75	3.6660	3.6661	-0.9305	26.05	0.19	-1.500			
0.3838	24562.52	3.6630	3.6629	-0.9465	26.05	0.19	-1.500			
0.3866	24743.05	3.6600	3.6600	-0.9673	26.06	0.20	-1.500			
0.3896	24932.28	3.6570	3.6569	-0.9912	26.06	0.20	-1.500			
0.3926	25124.16	3.6540	3.6541	-1.0178	26.06	0.20	-1.500			
0.3957	25325.11	3.6510	3.6510	-1.0414	26.06	0.20	-1.500			
0.3989	25527.52	3.6480	3.6481	-1.0573	26.06	0.20	-1.500			
0.4021	25731.71	3.6450	3.6449	-1.0777	26.07	0.21	-1.500			
0.4053	25940.10	3.6420	3.6420	-1.1025	26.07	0.21	-1.500			
0.4087	26153.81	3.6390	3.6390	-1.1179	26.07	0.21	-1.500			
0.4121	26371.44	3.6360	3.6361	-1.1380	26.07	0.21	-1.500			
0.4155	26591.86	3.6330	3.6330	-1.1573	26.07	0.21	-1.500			
0.4190	26815.71	3.6300	3.6301	-1.1847	26.07	0.21	-1.500			
0.4226	27044.02	3.6270	3.6269	-1.2069	26.07	0.21	-1.500			
0.4262	27277.09	3.6240	3.6240	-1.2287	26.08	0.22	-1.500			
0.4299	27514.99	3.6210	3.6210	-1.2583	26.08	0.22	-1.500			
0.4338	27761.46	3.6180	3.6180	-1.2875	26.08	0.22	-1.500			
0.4377	28013.02	3.6150	3.6150	-1.3127	26.08	0.22	-1.500			
0.4417	28266.01	3.6120	3.6120	-1.3405	26.08	0.22	-1.500			
0.4457	28522.64	3.6090	3.6091	-1.3688	26.08	0.22	-1.500			
0.4499	28791.27	3.6060	3.6060	-1.3960	26.08	0.22	-1.500			
0.4541	29064.12	3.6030	3.6029	-1.4188	26.08	0.22	-1.500			
0.4584	29337.77	3.6000	3.6000	-1.4395	26.08	0.22	-1.500			
0.4628	29617.96	3.5970	3.5972	-1.4667	26.08	0.22	-1.500			
0.4672	29900.56	3.5940	3.5940	-1.4866	26.08	0.22	-1.500			
0.4717	30185.81	3.5910	3.5909	-1.5008	26.08	0.22	-1.500			
0.4762	30475.84	3.5880	3.5880	-1.5311	26.08	0.22	-1.500			
0.4808	30774.07	3.5850	3.5850	-1.5603	26.08	0.22	-1.500			
0.4855	31074.27	3.5820	3.5820	-1.5886	26.08	0.22	-1.500			
0.4903	31381.75	3.5790	3.5791	-1.6163	26.08	0.22	-1.500			
0.4952	31695.30	3.5760	3.5760	-1.6433	26.08	0.22	-1.500			
0.5003	32016.18	3.5730	3.5730	-1.6634	26.09	0.23	-1.500			
0.5053	32338.20	3.5700	3.5700	-1.6807	26.09	0.23	-1.500			
0.5104	32662.96	3.5670	3.5670	-1.6938	26.09	0.23	-1.500			
0.5155	32991.06	3.5640	3.5640	-1.7095	26.09	0.23	-1.500			
0.5206	33317.13	3.5610	3.5610	-1.7411	26.09	0.23	-1.500			
0.5258	33652.87	3.5580	3.5580	-1.7598	26.10	0.24	-1.500			
0.5312	33994.36	3.5550	3.5549	-1.7752	26.10	0.24	-1.500			
0.5366	34341.07	3.5520	3.5520	-1.7961	26.10	0.24	-1.500			
0.5420	34687.46	3.5490	3.5490	-1.8067	26.10	0.24	-1.500			
0.5475	35037.20	3.5460	3.5460	-1.8292	26.11	0.25	-1.500			
0.5529	35388.09	3.5430	3.5429	-1.8328	26.11	0.25	-1.500			
0.5584	35740.80	3.5400	3.5400	-1.8431	26.12	0.26	-1.500			
0.5640	36097.61	3.5370	3.5372	-1.8450	26.12	0.26	-1.500	0.395	0.519	
0.5696	36453.05	3.5340	3.5340	-1.8453	26.13	0.27	-1.500			
0.5751	36805.56	3.5310	3.5310	-1.8417	26.13	0.27	-1.500			
0.5806	37156.38	3.5280	3.5280	-1.8345	26.13	0.27	-1.500			
0.5861	37511.07	3.5250	3.5250	-1.8409	26.14	0.28	-1.500			
0.5916	37865.42	3.5220	3.5220	-1.8277	26.15	0.29	-1.500			
0.5971	38214.77	3.5190	3.5191	-1.8268	26.16	0.30	-1.500			
0.6026	38566.71	3.5160	3.5160	-1.8292	26.16	0.30	-1.500			
0.6080	38914.62	3.5130	3.5129	-1.8230	26.17	0.31	-1.500			
0.6135	39265.16	3.5100	3.5100	-1.8105	26.18	0.32	-1.500			
0.6189	39612.38	3.5070	3.5071	-1.8139	26.19	0.33	-1.500			
0.6244	39961.09	3.5040	3.5040	-1.8074	26.20	0.34	-1.500			
0.6298	40306.37	3.5010	3.5009	-1.7935	26.21	0.35	-1.500			
0.6352	40651.75	3.4980	3.4980	-1.7870	26.22	0.36	-1.500			
0.6405	40994.10	3.4950	3.4950	-1.7846	26.23	0.37	-1.500			
0.6459	41335.76	3.4920	3.4920	-1.7717	26.23	0.37	-1.500			
0.6512	41677.54	3.4890	3.4890	-1.7703	26.24	0.38	-1.500			
0.6565	42013.07	3.4860	3.4860	-1.7552	26.25	0.39	-1.500			
0.6618	42352.16	3.4830	3.4831	-1.7496	26.26	0.40	-1.500			
0.6670	42688.26	3.4800	3.4799	-1.7305	26.27	0.41	-1.500			
0.6722	43020.29	3.4770	3.4770	-1.7283	26.28	0.42	-1.500			
0.6774	43353.11	3.4740	3.4740	-1.7011	26.30	0.44	-1.500			
0.6825	43678.90	3.4710	3.4708	-1.6793	26.31	0.45	-1.500			
0.6875	43998.16	3.4680	3.4685	-1.6617	26.32	0.46	-1.500			
0.6924	44315.34	3.4650	3.4649	-1.6443	26.33	0.47	-1.500			
0.6973	44629.08	3.4620	3.4619	-1.6249	26.34	0.48	-1.500			
0.7022	44937.65	3.4590	3.4590	-1.6088	26.36	0.50	-1.500			
0.7070	45247.00	3.4560	3.4560	-1.5986	26.37	0.51	-1.500			
0.7118	45553.06	3.4530	3.4531	-1.5768	26.38	0.52	-1.500			
0.7164	45852.40	3.4500	3.4499	-1.5552	26.40	0.54	-1.500			
0.7211	46149.18	3.4470	3.4470	-1.5255	26.41	0.55	-1.500			
0.7256	46439.58	3.4440	3.4440	-1.5086	26.43	0.57	-1.500			
0.7301	46725.99	3.4410	3.4410	-1.4930	26.44	0.58	-1.500			
0.7346	47011.86	3.4380	3.4380	-1.4714	26.46	0.60	-1.500			
0.7389	47292.44	3.4350	3.4351	-1.4583	26.48	0.62	-1.500			
0.7433	47569.06	3.4320	3.4319	-1.4492	26.49	0.63	-1.500			
0.7476	47845.85	3.4290	3.4290	-1.4470	26.51	0.65	-1.500			
0.7519	48124.77	3.4260	3.4259	-1.4329	26.53	0.67	-1.500			
0.7563	48400.60	3.4230	3.4230	-1.4261	26.55	0.69	-1.500			
0.7606	48675.72	3.4200	3.4200	-1.4130	26.56	0.70	-1.500			
0.7648	48947.71	3.4170	3.4169	-1.3983	26.58	0.72	-1.500			
0.7689	49212.15	3.4140	3.4139	-1.3758	26.60	0.74	-1.500			
0.7730	49474.08	3.4110	3.4111	-1.3505	26.62	0.76	-1.500			
0.7771	49732.18	3.4080	3.4080	-1.3169	26.64	0.78	-1.500			
0.7811	49989.81	3.4050	3.4049	-1.2939	26.66	0.80	-1.500			
0.7849	50234.08	3.4020	3.4021	-1.2450	26.67	0.81	-1.500			
0.7886	50469.70	3.3990	3.3989	-1.2023	26.69	0.83	-1.500			
0.7921	50694.90	3.3960	3.3961	-1.1511	26.70	0.84	-1.500			
0.7954	50908.46	3.3930	3.3930	-1.1005	26.72	0.86	-1.500			
0.7987	51115.12	3.3900	3.3900	-1.0601	26.74	0.88	-1.500			
0.8018	51316.44	3.3870	3.3870	-1.0232	26.75	0.89	-1.500			
0.8048	51507.29	3.3840	3.3840	-0.9808	26.77	0.91	-1.500			
0.8077	51692.24	3.3810	3.3811	-0.9413	26.78	0.92	-1.500			
0.8104	51867.31	3.3780	3.3779	-0.9058	26.79	0.93	-1.500			
0.8131	52037.92	3.3750	3.3751	-0.8749	26.80	0.94	-1.500			
0.8157	52201.98	3.3720	3.3719	-0.8392	26.82	0.96	-1.500			
0.8181	52360.13	3.3690	3.3689	-0.8078	26.83	0.97	-1.500			
0.8205	52512.00	3.3660	3.3661	-0.7745	26.84	0.98	-1.500			
0.8228	52658.03	3.3630	3.3631	-0.7478	26.85	0.99	-1.500			
0.8250	52799.26	3.3600	3.3600	-0.7193	26.86	1.00	-1.500			
0.8271	52932.75	3.3570	3.3570	-0.6939	26.87	1.01	-1.500			
0.8291	53061.94	3.3540	3.3539	-0.6712	26.88	1.02	-1.500			
0.8311	53189.53	3.3510	3.3510	-0.6538	26.89	1.03	-1.500			
0.8330	53313.73	3.3480	3.3480	-0.6343	26.90	1.04	-1.500			
0.8349	53434.60	3.3450	3.3449	-0.6143	26.90	1.04	-1.500			
0.8367	53550.29	3.3420	3.3419	-0.5941	26.90	1.04	-1.500			
0.8385	53661.48	3.3390	3.3390	-0.5761	26.91	1.05	-1.500			
0.8401	53769.37	3.3360	3.3360	-0.5581	26.92	1.06	-1.500			
0.8418	53874.83	3.3330	3.3329	-0.5397	26.92	1.06	-1.500			
0.8434	53976.98	3.3300	3.3300	-0.5244	26.93	1.07	-1.500			
0.8449	54076.26	3.3270	3.3270	-0.5111	26.94	1.08	-1.500			
0.8465	54173.03	3.3240	3.3240	-0.4953	26.95	1.09	-1.500			
0.8479	54266.44	3.3210	3.3209	-0.4782	26.96	1.10	-1.500			
0.8493	54356.66	3.3180	3.3180	-0.4631	26.97	1.11	-1.500			
0.8507	54444.29	3.3150	3.3151	-0.4489	26.97	1.11	-1.500			
0.8520	54529.33	3.3120	3.3120	-0.4352	26.98	1.12	-1.500			
0.8533	54610.41	3.3090	3.3089	-0.4224	26.99	1.13	-1.500			
0.8545	54690.30	3.3060	3.3060	-0.4099	26.99	1.13	-1.500			
0.8557	54767.68	3.3030	3.3029	-0.3984	27.00	1.14	-1.500			
0.8569	54843.21	3.3000	3.3000	-0.3868	27.01	1.15	-1.500			
0.8581	54916.31	3.2970	3.2971	-0.3761	27.01	1.15	-1.500			
0.8592	54987.60	3.2940	3.2939	-0.3646	27.02	1.16	-1.500			
0.8603	55056.13	3.2910	3.2911	-0.3546	27.02	1.16	-1.500			
0.8613	55122.90	3.2880	3.2880	-0.3449	27.03	1.17	-1.500			
0.8623	55188.78	3.2850	3.2852	-0.3367	27.03	1.17	-1.500			
0.8633	55252.44	3.2820	3.2820	-0.3273	27.04	1.18	-1.500			
0.8643	55314.27	3.2790	3.2790	-0.3186	27.04	1.18	-1.500			
0.8652	55374.32	3.2760	3.2760	-0.3098	27.05	1.19	-1.500			
0.8661	55433.01	3.2730	3.2729	-0.3014	27.06	1.20	-1.500			
0.8670	55489.77	3.2700	3.2700	-0.2917	27.06	1.20	-1.500			
0.8679	55545.12	3.2670	3.2670	-0.2840	27.07	1.21	-1.500			
0.8687	55598.70	3.2640	3.2641	-0.2774	27.07	1.21	-1.500			
0.8695	55650.89	3.2610	3.2610	-0.2716	27.08	1.22	-1.500			
0.8704	55702.49	3.2580	3.2580	-0.2657	27.08	1.22	-1.500			
0.8711	55752.63	3.2550	3.2549	-0.2599	27.09	1.23	-1.500			
0.8719	55802.63	3.2520	3.2521	-0.2547	27.09	1.23	-1.500			
0.8727	55851.70	3.2490	3.2490	-0.2498	27.10	1.24	-1.500			
0.8734	55898.75	3.2460	3.2459	-0.2432	27.10	1.24	-1.500			
0.8741	55944.22	3.2430	3.2431	-0.2369	27.11	1.25	-1.500			
0.8748	55988.72	3.2400	3.2400	-0.2313	27.11	1.25	-1.500			
0.8755	56032.75	3.2370	3.2370	-0.2274	27.12	1.26	-1.500			
0.8762	56075.87	3.2340	3.2340	-0.2239	27.12	1.26	-1.500			
0.8769	56118.43	3.2310	3.2309	-0.2194	27.13	1.27	-1.500			
0.8775	56160.87	3.2280	3.2280	-0.2160	27.13	1.27	-1.500			
0.8782	56201.86	3.2250	3.2250	-0.2110	27.14	1.28	-1.500			
0.8788	56241.77	3.2220	3.2221	-0.2076	27.14	1.28	-1.500			
0.8794	56281.23	3.2190	3.2189	-0.2031	27.14	1.28	-1.500			
0.8800	56319.36	3.2160	3.2159	-0.1992	27.15	1.29	-1.500			
0.8806	56357.30	3.2130	3.2130	-0.1960	27.15	1.29	-1.500			
0.8812	56394.13	3.2100	3.2101	-0.1935	27.16	1.30	-1.500			
0.8817	56431.06	3.2070	3.2070	-0.1916	27.16	1.30	-1.500			
0.8823	56467.79	3.2040	3.2039	-0.1901	27.17	1.31	-1.500			
0.8829	56504.23	3.2010	3.2009	-0.1871	27.17	1.31	-1.500			
0.8834	56539.68	3.1980	3.1980	-0.1845	27.17	1.31	-1.500			
0.8840	56575.35	3.1950	3.1950	-0.1829	27.18	1.32	-1.500			
0.8845	56610.04	3.1920	3.1920	-0.1795	27.18	1.32	-1.500			
0.8851	56644.26	3.1890	3.1889	-0.1765	27.18	1.32	-1.500			
0.8856	56677.50	3.1860	3.1860	-0.1746	27.19	1.33	-1.500			
0.8861	56710.65	3.1830	3.1829	-0.1725	27.19	1.33	-1.500			
0.8866	56743.64	3.1800	3.1800	-0.1711	27.20	1.34	-1.500			
0.8871	56776.52	3.1770	3.1770	-0.1691	27.20	1.34	-1.500			
0.8876	56808.82	3.1740	3.1740	-0.1666	27.20	1.34	-1.500			
0.8881	56840.64	3.1710	3.1710	-0.1652	27.21	1.35	-1.500			
0.8886	56872.15	3.1680	3.1682	-0.1631	27.21	1.35	-1.500			
0.8891	56903.45	3.1650	3.1650	-0.1610	27.22	1.36	-1.500			
0.8896	56933.72	3.1620	3.1620	-0.1584	27.22	1.36	-1.500			
0.8901	56963.69	3.1590	3.1590	-0.1571	27.23	1.37	-1.500			
0.8905	56993.77	3.1560	3.1561	-0.1563	27.23	1.37	-1.500			
0.8910	57023.70	3.1530	3.1530	-0.1553	27.23	1.37	-1.500			
0.8915	57053.42	3.1500	3.1499	-0.1543	27.24	1.38	-1.500			
0.8919	57082.79	3.1470	3.1470	-0.1532	27.24	1.38	-1.500			
0.8924	57112.20	3.1440	3.1441	-0.1525	27.25	1.39	-1.500			
0.8928	57141.76	3.1410	3.1410	-0.1514	27.25	1.39	-1.500			
0.8933	57170.84	3.1380	3.1380	-0.1498	27.26	1.40	-1.500			
0.8937	57199.36	3.1350	3.1350	-0.1478	27.26	1.40	-1.500			
0.8942	57227.48	3.1320	3.1320	-0.1465	27.26	1.40	-1.500			
0.8946	57255.44	3.1290	3.1290	-0.1456	27.27	1.41	-1.500			
0.8951	57283.24	3.1260	3.1258	-0.1440	27.27	1.41	-1.500			
0.8955	57310.77	3.1230	3.1230	-0.1428	27.28	1.42	-1.500			
0.8959	57337.98	3.1200	3.1201	-0.1418	27.28	1.42	-1.500			
0.8963	57365.18	3.1170	3.1171	-0.1411	27.28	1.42	-1.500			
0.8968	57392.28	3.1140	3.1139	-0.1402	27.29	1.43	-1.500			
0.8972	57419.07	3.1110	3.1110	-0.1389	27.29	1.43	-1.500			
0.8976	57445.46	3.1080	3.1079	-0.1380	27.30	1.44	-1.500			
0.8980	57471.63	3.1050	3.1050	-0.1375	27.30	1.44	-1.500			
0.8984	57498.03	3.1020	3.1020	-0.1373	27.30	1.44	-1.500			
0.8988	57524.44	3.0990	3.0990	-0.1364	27.31	1.45	-1.500			
0.8992	57550.58	3.0960	3.0959	-0.1354	27.31	1.45	-1.500			
0.8996	57576.64	3.0930	3.0929	-0.1345	27.32	1.46	-1.500			
0.9000	57602.36	3.0900	3.0903	-0.1334	27.32	1.46	-1.500			
0.9004	57628.07	3.0870	3.0870	-0.1325	27.33	1.47	-1.500			
0.9008	57653.19	3.0840	3.0840	-0.1316	27.33	1.47	-1.500			
0.9012	57678.15	3.0810	3.0810	-0.1303	27.34	1.48	-1.500			
0.9016	57703.13	3.0780	3.0780	-0.1299	27.34	1.48	-1.500			
0.9020	57728.19	3.0750	3.0750	-0.1293	27.34	1.48	-1.500			
0.9024	57752.98	3.0720	3.0721	-0.1286	27.35	1.49	-1.500			
0.9028	57777.68	3.0690	3.0691	-0.1280	27.35	1.49	-1.500			
0.9032	57802.05	3.0660	3.0660	-0.1273	27.36	1.50	-1.500			
0.9035	57826.40	3.0630	3.0630	-0.1265	27.36	1.50	-1.500			
0.9039	57850.67	3.0600	3.0599	-0.1254	27.37	1.51	-1.500			
0.9043	57874.66	3.0570	3.0570	-0.1246	27.37	1.51	-1.500			
0.9047	57898.29	3.0540	3.0540	-0.1243	27.38	1.52	-1.500			
0.9050	57922.11	3.0510	3.0510	-0.1239	27.38	1.52	-1.500			
0.9054	57946.09	3.0480	3.0481	-0.1231	27.38	1.52	-1.500			
0.9058	57969.66	3.0450	3.0449	-0.1224	27.39	1.53	-1.500			
0.9061	57992.97	3.0420	3.0419	-0.1219	27.39	1.53	-1.500			
0.9065	58016.25	3.0390	3.0391	-0.1213	27.40	1.54	-1.500			
0.9069	58039.68	3.0360	3.0361	-0.1204	27.40	1.54	-1.500			
0.9072	58063.01	3.0330	3.0329	-0.1200	27.40	1.54	-1.500			
0.9076	58085.70	3.0300	3.0300	-0.1194	27.41	1.55	-1.500			
0.9079	58108.21	3.0270	3.0270	-0.1181	27.41	1.55	-1.500			
0.9083	58131.05	3.0240	3.0241	-0.1173	27.42	1.56	-1.500			
0.9087	58153.77	3.0210	3.0209	-0.1170	27.42	1.56	-1.500			
0.9090	58176.07	3.0180	3.0179	-0.1160	27.42	1.56	-1.500			
0.9093	58198.11	3.0150	3.0151	-0.1148	27.43	1.57	-1.500			
0.9097	58220.08	3.0120	3.0120	-0.1140	27.43	1.57	-1.500			
0.9100	58242.20	3.0090	3.0089	-0.1130	27.44	1.58	-1.500			
0.9104	58263.75	3.0060	3.0060	-0.1115	27.44	1.58	-1.501			
0.9107	58285.00	3.0030	3.0030	-0.1128	27.44	1.58	-1.501			
