Ah_balance (normalized)	Ah_balance (mAh)	Voltage - fit (V)	Voltage -  interpolate (V)	dQ/dV (1/V)	Temperature (°C)	Temperature - diff (°C)	Current (C)	R_DC 0ms (mOhm)	R_DC 50ms (mOhm)	R_DC 50 ms PEC (mOhm)
0.2022	12938.30	3.9110	3.9110	-0.1223	25.86	-0.02	-1.500			
0.2026	12966.79	3.9080	3.9078	-0.1625	25.86	-0.02	-1.500			
0.2031	13001.13	3.9050	3.9048	-0.1930	25.86	-0.02	-1.500			
0.2038	13040.35	3.9020	3.9021	-0.2251	25.86	-0.02	-1.500			
0.2045	13086.93	3.8990	3.8992	-0.2564	25.86	-0.02	-1.500			
0.2053	13139.19	3.8960	3.8959	-0.2898	25.86	-0.02	-1.500			
0.2062	13197.74	3.8930	3.8930	-0.3214	25.86	-0.02	-1.500			
0.2072	13262.66	3.8900	3.8900	-0.3557	25.87	-0.01	-1.500			
0.2083	13334.17	3.8870	3.8870	-0.3876	25.87	-0.01	-1.500			
0.2096	13411.99	3.8840	3.8839	-0.4232	25.87	-0.01	-1.500			
0.2109	13495.62	3.8810	3.8811	-0.4588	25.87	-0.01	-1.500			
0.2123	13588.84	3.8780	3.8779	-0.4903	25.87	-0.01	-1.500			
0.2138	13685.45	3.8750	3.8750	-0.5224	25.88	-0.00	-1.500			
0.2155	13789.33	3.8720	3.8720	-0.5557	25.88	-0.00	-1.500			
0.2172	13898.96	3.8690	3.8691	-0.5860	25.88	0.00	-1.500			
0.2190	14015.55	3.8660	3.8659	-0.6164	25.88	0.00	-1.500			
0.2209	14135.96	3.8630	3.8630	-0.6432	25.89	0.01	-1.500			
0.2229	14263.21	3.8600	3.8600	-0.6667	25.89	0.01	-1.500			
0.2249	14394.49	3.8570	3.8570	-0.6950	25.89	0.01	-1.500			
0.2270	14530.37	3.8540	3.8540	-0.7141	25.90	0.02	-1.500			
0.2292	14670.24	3.8510	3.8509	-0.7334	25.90	0.02	-1.500			
0.2315	14813.79	3.8480	3.8480	-0.7498	25.90	0.02	-1.500			
0.2337	14959.85	3.8450	3.8450	-0.7666	25.91	0.03	-1.500			
0.2361	15108.66	3.8420	3.8420	-0.7827	25.91	0.03	-1.500			
0.2385	15261.00	3.8390	3.8389	-0.7952	25.92	0.04	-1.500			
0.2408	15413.78	3.8360	3.8361	-0.8041	25.92	0.04	-1.500			
0.2433	15571.05	3.8330	3.8329	-0.8126	25.92	0.04	-1.500			
0.2458	15729.70	3.8300	3.8299	-0.8179	25.93	0.05	-1.500			
0.2482	15886.72	3.8270	3.8271	-0.8185	25.94	0.06	-1.500			
0.2507	16042.56	3.8240	3.8240	-0.8169	25.94	0.06	-1.500			
0.2531	16199.36	3.8210	3.8210	-0.8237	25.95	0.07	-1.500			
0.2556	16358.02	3.8180	3.8179	-0.8302	25.95	0.07	-1.500			
0.2581	16517.28	3.8150	3.8150	-0.8351	25.96	0.08	-1.500			
0.2606	16679.52	3.8120	3.8121	-0.8408	25.97	0.09	-1.500			
0.2632	16843.03	3.8090	3.8090	-0.8461	25.97	0.09	-1.500			
0.2657	17005.25	3.8060	3.8060	-0.8490	25.98	0.10	-1.500			
0.2682	17167.77	3.8030	3.8030	-0.8508	25.99	0.11	-1.500			
0.2708	17330.00	3.8000	3.7999	-0.8533	25.99	0.11	-1.500			
0.2734	17495.39	3.7970	3.7970	-0.8552	26.00	0.12	-1.500			
0.2759	17660.09	3.7940	3.7941	-0.8572	26.01	0.13	-1.500			
0.2785	17826.24	3.7910	3.7910	-0.8639	26.02	0.14	-1.500			
0.2811	17991.55	3.7880	3.7880	-0.8659	26.03	0.15	-1.500			
0.2837	18157.04	3.7850	3.7849	-0.8679	26.04	0.16	-1.500			
0.2863	18324.69	3.7820	3.7820	-0.8702	26.04	0.16	-1.500			
0.2890	18492.94	3.7790	3.7789	-0.8708	26.05	0.17	-1.500			
0.2916	18660.86	3.7760	3.7761	-0.8714	26.06	0.18	-1.500			
0.2942	18827.80	3.7730	3.7729	-0.8683	26.07	0.19	-1.500			
0.2968	18992.09	3.7700	3.7702	-0.8735	26.08	0.20	-1.500			
0.2994	19160.06	3.7670	3.7669	-0.8752	26.09	0.21	-1.500			
0.3020	19330.49	3.7640	3.7639	-0.8825	26.09	0.21	-1.500			
0.3047	19500.38	3.7610	3.7611	-0.8865	26.10	0.22	-1.500			
0.3074	19670.74	3.7580	3.7580	-0.8922	26.11	0.23	-1.500			
0.3100	19842.53	3.7550	3.7550	-0.8936	26.12	0.24	-1.500			
0.3127	20013.18	3.7520	3.7519	-0.8955	26.13	0.25	-1.500			
0.3154	20184.65	3.7490	3.7490	-0.8924	26.14	0.26	-1.500			
0.3181	20359.02	3.7460	3.7460	-0.8977	26.15	0.27	-1.500			
0.3208	20530.66	3.7430	3.7430	-0.8981	26.15	0.27	-1.500			
0.3235	20703.07	3.7400	3.7400	-0.8969	26.16	0.28	-1.500			
0.3262	20874.88	3.7370	3.7370	-0.8996	26.17	0.29	-1.500			
0.3289	21047.03	3.7340	3.7341	-0.9032	26.18	0.30	-1.500			
0.3316	21220.44	3.7310	3.7310	-0.9066	26.19	0.31	-1.500			
0.3343	21396.00	3.7280	3.7280	-0.9107	26.20	0.32	-1.500			
0.3370	21571.16	3.7250	3.7250	-0.9115	26.21	0.33	-1.500			
0.3398	21747.37	3.7220	3.7219	-0.9078	26.21	0.33	-1.500			
0.3425	21922.16	3.7190	3.7190	-0.9107	26.22	0.34	-1.500			
0.3452	22095.24	3.7160	3.7161	-0.9135	26.23	0.35	-1.500			
0.3480	22269.52	3.7130	3.7130	-0.9172	26.24	0.36	-1.500			
0.3507	22445.68	3.7100	3.7098	-0.9191	26.25	0.37	-1.500			
0.3535	22623.23	3.7070	3.7070	-0.9292	26.26	0.38	-1.500			
0.3563	22802.65	3.7040	3.7041	-0.9352	26.27	0.39	-1.500			
0.3591	22984.88	3.7010	3.7009	-0.9364	26.28	0.40	-1.500			
0.3620	23165.07	3.6980	3.6980	-0.9341	26.29	0.41	-1.500			
0.3647	23343.78	3.6950	3.6950	-0.9384	26.29	0.41	-1.500			
0.3676	23523.44	3.6920	3.6921	-0.9417	26.30	0.42	-1.500			
0.3704	23705.57	3.6890	3.6889	-0.9426	26.31	0.43	-1.500			
0.3732	23884.12	3.6860	3.6860	-0.9456	26.32	0.44	-1.500			
0.3760	24065.73	3.6830	3.6831	-0.9518	26.33	0.45	-1.500			
0.3789	24249.59	3.6800	3.6800	-0.9692	26.34	0.46	-1.500			
0.3818	24435.70	3.6770	3.6769	-0.9810	26.35	0.47	-1.500			
0.3848	24624.72	3.6740	3.6740	-0.9957	26.36	0.48	-1.500			
0.3878	24818.42	3.6710	3.6710	-1.0133	26.37	0.49	-1.500			
0.3909	25016.08	3.6680	3.6680	-1.0304	26.38	0.50	-1.500			
0.3940	25214.42	3.6650	3.6650	-1.0461	26.39	0.51	-1.500			
0.3971	25417.40	3.6620	3.6620	-1.0633	26.39	0.51	-1.500			
0.4003	25621.42	3.6590	3.6590	-1.0774	26.40	0.52	-1.500			
0.4036	25830.20	3.6560	3.6561	-1.1005	26.40	0.52	-1.500			
0.4069	26044.01	3.6530	3.6530	-1.1231	26.41	0.53	-1.500			
0.4103	26260.84	3.6500	3.6500	-1.1479	26.42	0.54	-1.500			
0.4138	26483.70	3.6470	3.6470	-1.1706	26.42	0.54	-1.500			
0.4173	26709.85	3.6440	3.6440	-1.1951	26.43	0.55	-1.500			
0.4210	26942.33	3.6410	3.6410	-1.2257	26.44	0.56	-1.500			
0.4247	27179.17	3.6380	3.6380	-1.2557	26.44	0.56	-1.500			
0.4285	27420.96	3.6350	3.6350	-1.2926	26.44	0.56	-1.500			
0.4324	27676.37	3.6320	3.6320	-1.3247	26.45	0.57	-1.500			
0.4364	27932.62	3.6290	3.6289	-1.3577	26.45	0.57	-1.500			
0.4406	28198.08	3.6260	3.6262	-1.3931	26.46	0.58	-1.500			
0.4448	28468.23	3.6230	3.6229	-1.4214	26.46	0.58	-1.500			
0.4491	28742.66	3.6200	3.6200	-1.4520	26.47	0.59	-1.500			
0.4535	29023.85	3.6170	3.6170	-1.4940	26.47	0.59	-1.500			
0.4580	29313.14	3.6140	3.6139	-1.5232	26.48	0.60	-1.500			
0.4628	29616.20	3.6110	3.6109	-1.5571	26.49	0.61	-1.500			
0.4674	29914.66	3.6080	3.6081	-1.5835	26.49	0.61	-1.500			
0.4722	30222.82	3.6050	3.6051	-1.6137	26.49	0.61	-1.500			
0.4771	30534.04	3.6020	3.6019	-1.6546	26.49	0.61	-1.500			
0.4821	30851.91	3.5990	3.5989	-1.6802	26.50	0.62	-1.500			
0.4872	31178.06	3.5960	3.5960	-1.7200	26.50	0.62	-1.500			
0.4924	31511.59	3.5930	3.5931	-1.7634	26.50	0.62	-1.500			
0.4978	31858.47	3.5900	3.5900	-1.8083	26.50	0.62	-1.500			
0.5033	32210.01	3.5870	3.5869	-1.8300	26.50	0.62	-1.500			
0.5088	32565.35	3.5840	3.5839	-1.8507	26.51	0.63	-1.500			
0.5144	32922.69	3.5810	3.5811	-1.8767	26.51	0.63	-1.500			
0.5201	33286.45	3.5780	3.5780	-1.9014	26.51	0.63	-1.500			
0.5258	33652.51	3.5750	3.5749	-1.9288	26.51	0.63	-1.500			
0.5316	34022.00	3.5720	3.5720	-1.9625	26.52	0.64	-1.500			
0.5376	34407.15	3.5690	3.5690	-1.9930	26.52	0.64	-1.500			
0.5436	34793.17	3.5660	3.5660	-2.0202	26.52	0.64	-1.500			
0.5497	35182.79	3.5630	3.5630	-2.0560	26.53	0.65	-1.500			
0.5559	35579.40	3.5600	3.5600	-2.0697	26.53	0.65	-1.500			
0.5621	35977.49	3.5570	3.5568	-2.0909	26.54	0.66	-1.500			
0.5685	36383.64	3.5540	3.5543	-2.1220	26.54	0.66	-1.500	0.415	0.511	
0.5749	36792.05	3.5510	3.5510	-2.1346	26.55	0.67	-1.500			
0.5814	37209.98	3.5480	3.5479	-2.1462	26.55	0.67	-1.500			
0.5877	37615.25	3.5450	3.5450	-2.1406	26.56	0.68	-1.500			
0.5942	38030.68	3.5420	3.5421	-2.1777	26.56	0.68	-1.500			
0.6008	38452.55	3.5390	3.5390	-2.1815	26.57	0.69	-1.500			
0.6074	38870.83	3.5360	3.5359	-2.1748	26.57	0.69	-1.500			
0.6139	39287.85	3.5330	3.5331	-2.1623	26.58	0.70	-1.500			
0.6204	39705.35	3.5300	3.5299	-2.1644	26.58	0.70	-1.500			
0.6269	40120.60	3.5270	3.5270	-2.1351	26.59	0.71	-1.500			
0.6333	40528.13	3.5240	3.5239	-2.1072	26.59	0.71	-1.500			
0.6396	40936.55	3.5210	3.5211	-2.0918	26.60	0.72	-1.500			
0.6459	41335.14	3.5180	3.5179	-2.0510	26.61	0.73	-1.500			
0.6520	41725.46	3.5150	3.5150	-2.0321	26.62	0.74	-1.500			
0.6580	42110.39	3.5120	3.5120	-1.9990	26.63	0.75	-1.500			
0.6639	42491.12	3.5090	3.5089	-1.9766	26.64	0.76	-1.500			
0.6698	42866.74	3.5060	3.5060	-1.9534	26.64	0.76	-1.500			
0.6756	43240.74	3.5030	3.5030	-1.9361	26.65	0.77	-1.500			
0.6815	43615.73	3.5000	3.5000	-1.8987	26.66	0.78	-1.500			
0.6871	43972.39	3.4970	3.4970	-1.8528	26.66	0.78	-1.500			
0.6927	44329.84	3.4940	3.4941	-1.8346	26.67	0.79	-1.500			
0.6981	44676.37	3.4910	3.4909	-1.7949	26.68	0.80	-1.500			
0.7034	45016.57	3.4880	3.4879	-1.7753	26.69	0.81	-1.500			
0.7087	45354.42	3.4850	3.4850	-1.7436	26.70	0.82	-1.500			
0.7139	45690.23	3.4820	3.4819	-1.7290	26.71	0.83	-1.500			
0.7191	46021.02	3.4790	3.4791	-1.7028	26.72	0.84	-1.500			
0.7241	46341.90	3.4760	3.4759	-1.6817	26.73	0.85	-1.500			
0.7291	46663.98	3.4730	3.4729	-1.6478	26.75	0.87	-1.500			
0.7340	46974.71	3.4700	3.4700	-1.6161	26.76	0.88	-1.500			
0.7389	47286.70	3.4670	3.4669	-1.5983	26.77	0.89	-1.500			
0.7437	47594.30	3.4640	3.4640	-1.5743	26.79	0.91	-1.500			
0.7483	47890.63	3.4610	3.4609	-1.5496	26.80	0.92	-1.500			
0.7529	48184.71	3.4580	3.4580	-1.5252	26.81	0.93	-1.500			
0.7574	48473.21	3.4550	3.4550	-1.4948	26.82	0.94	-1.500			
0.7619	48762.39	3.4520	3.4520	-1.4903	26.83	0.95	-1.500			
0.7663	49044.68	3.4490	3.4492	-1.4721	26.84	0.96	-1.500			
0.7707	49325.90	3.4460	3.4459	-1.4581	26.85	0.97	-1.500			
0.7750	49601.96	3.4430	3.4430	-1.4480	26.87	0.99	-1.500			
0.7793	49877.13	3.4400	3.4400	-1.4434	26.88	1.00	-1.500			
0.7837	50157.20	3.4370	3.4370	-1.4429	26.90	1.02	-1.500			
0.7880	50432.96	3.4340	3.4338	-1.4317	26.91	1.03	-1.500			
0.7923	50705.56	3.4310	3.4312	-1.4232	26.92	1.04	-1.500			
0.7966	50980.10	3.4280	3.4280	-1.4139	26.94	1.06	-1.500			
0.8008	51250.20	3.4250	3.4250	-1.4105	26.96	1.08	-1.500			
0.8050	51520.53	3.4220	3.4220	-1.3975	26.98	1.10	-1.500			
0.8092	51788.67	3.4190	3.4190	-1.3783	26.99	1.11	-1.500			
0.8134	52054.64	3.4160	3.4160	-1.3537	27.01	1.13	-1.500			
0.8174	52315.37	3.4130	3.4131	-1.3255	27.04	1.16	-1.500			
0.8214	52567.31	3.4100	3.4101	-1.2860	27.05	1.17	-1.500			
0.8252	52811.26	3.4070	3.4069	-1.2500	27.07	1.19	-1.500			
0.8288	53043.35	3.4040	3.4040	-1.2015	27.09	1.21	-1.500			
0.8324	53273.92	3.4010	3.4009	-1.1577	27.11	1.23	-1.500			
0.8358	53494.14	3.3980	3.3980	-1.1155	27.12	1.24	-1.500			
0.8391	53702.47	3.3950	3.3950	-1.0671	27.13	1.25	-1.500			
0.8422	53902.84	3.3920	3.3920	-1.0215	27.14	1.26	-1.500			
0.8452	54094.17	3.3890	3.3889	-0.9744	27.16	1.28	-1.500			
0.8480	54273.63	3.3860	3.3860	-0.9288	27.17	1.29	-1.500			
0.8507	54447.00	3.3830	3.3831	-0.8918	27.18	1.30	-1.500			
0.8534	54617.18	3.3800	3.3799	-0.8605	27.20	1.32	-1.500			
0.8559	54777.05	3.3770	3.3769	-0.8249	27.21	1.33	-1.500			
0.8583	54931.34	3.3740	3.3741	-0.7926	27.22	1.34	-1.500			
0.8606	55081.35	3.3710	3.3710	-0.7648	27.23	1.35	-1.500			
0.8629	55226.26	3.3680	3.3679	-0.7366	27.24	1.36	-1.500			
0.8651	55364.30	3.3650	3.3650	-0.7095	27.25	1.37	-1.500			
0.8671	55496.29	3.3620	3.3621	-0.6826	27.25	1.37	-1.500			
0.8692	55625.66	3.3590	3.3589	-0.6565	27.27	1.39	-1.500			
0.8711	55748.18	3.3560	3.3560	-0.6318	27.28	1.40	-1.500			
0.8729	55867.12	3.3530	3.3530	-0.6083	27.29	1.41	-1.500			
0.8747	55981.75	3.3500	3.3500	-0.5878	27.29	1.41	-1.500			
0.8764	56092.18	3.3470	3.3469	-0.5685	27.30	1.42	-1.500			
0.8781	56199.15	3.3440	3.3440	-0.5486	27.31	1.43	-1.500			
0.8797	56302.73	3.3410	3.3410	-0.5304	27.32	1.44	-1.500			
0.8813	56403.66	3.3380	3.3380	-0.5142	27.33	1.45	-1.500			
0.8828	56499.71	3.3350	3.3351	-0.4938	27.34	1.46	-1.500			
0.8843	56593.51	3.3320	3.3319	-0.4767	27.35	1.47	-1.500			
0.8857	56682.94	3.3290	3.3290	-0.4582	27.35	1.47	-1.500			
0.8870	56768.46	3.3260	3.3260	-0.4436	27.36	1.48	-1.500			
0.8883	56852.21	3.3230	3.3230	-0.4283	27.36	1.48	-1.500			
0.8896	56932.70	3.3200	3.3199	-0.4135	27.36	1.48	-1.500			
0.8908	57010.92	3.3170	3.3169	-0.3990	27.37	1.49	-1.500			
0.8920	57086.42	3.3140	3.3140	-0.3859	27.37	1.49	-1.500			
0.8931	57159.29	3.3110	3.3110	-0.3720	27.38	1.50	-1.500			
0.8942	57228.89	3.3080	3.3081	-0.3573	27.39	1.51	-1.500			
0.8952	57295.66	3.3050	3.3050	-0.3445	27.39	1.51	-1.500			
0.8963	57360.93	3.3020	3.3020	-0.3345	27.40	1.52	-1.500			
0.8972	57423.90	3.2990	3.2989	-0.3215	27.41	1.53	-1.500			
0.8982	57484.50	3.2960	3.2961	-0.3103	27.41	1.53	-1.500			
0.8991	57542.86	3.2930	3.2930	-0.2999	27.42	1.54	-1.500			
0.9000	57599.41	3.2900	3.2899	-0.2905	27.42	1.54	-1.500			
0.9008	57653.95	3.2870	3.2870	-0.2804	27.43	1.55	-1.500			
0.9017	57706.61	3.2840	3.2841	-0.2712	27.43	1.55	-1.500			
0.9025	57757.84	3.2810	3.2810	-0.2628	27.44	1.56	-1.500			
0.9033	57808.16	3.2780	3.2780	-0.2544	27.44	1.56	-1.500			
0.9040	57856.09	3.2750	3.2750	-0.2446	27.45	1.57	-1.500			
0.9047	57901.46	3.2720	3.2721	-0.2362	27.45	1.57	-1.500			
0.9054	57946.06	3.2690	3.2690	-0.2284	27.45	1.57	-1.500			
0.9061	57988.89	3.2660	3.2660	-0.2211	27.46	1.58	-1.500			
0.9067	58030.38	3.2630	3.2629	-0.2144	27.46	1.58	-1.500			
0.9074	58070.82	3.2600	3.2600	-0.2075	27.47	1.59	-1.500			
0.9080	58110.03	3.2570	3.2571	-0.2018	27.47	1.59	-1.500			
0.9086	58148.36	3.2540	3.2540	-0.1961	27.47	1.59	-1.500			
0.9092	58185.65	3.2510	3.2511	-0.1904	27.48	1.60	-1.500			
0.9097	58221.07	3.2480	3.2480	-0.1841	27.48	1.60	-1.500			
0.9102	58255.86	3.2450	3.2449	-0.1795	27.48	1.60	-1.500			
0.9108	58289.86	3.2420	3.2421	-0.1747	27.49	1.61	-1.500			
0.9113	58322.93	3.2390	3.2389	-0.1691	27.49	1.61	-1.500			
0.9118	58354.94	3.2360	3.2360	-0.1646	27.49	1.61	-1.500			
0.9123	58385.78	3.2330	3.2331	-0.1598	27.50	1.62	-1.500			
0.9128	58416.05	3.2300	3.2300	-0.1556	27.50	1.62	-1.500			
0.9132	58445.48	3.2270	3.2268	-0.1516	27.50	1.62	-1.500			
0.9137	58474.06	3.2240	3.2240	-0.1473	27.50	1.62	-1.500			
0.9141	58501.84	3.2210	3.2209	-0.1434	27.51	1.63	-1.500			
0.9145	58529.03	3.2180	3.2181	-0.1399	27.51	1.63	-1.500			
0.9149	58555.70	3.2150	3.2150	-0.1371	27.51	1.63	-1.500			
0.9153	58581.39	3.2120	3.2120	-0.1338	27.51	1.63	-1.500			
0.9157	58606.64	3.2090	3.2090	-0.1307	27.52	1.64	-1.500			
0.9161	58631.59	3.2060	3.2060	-0.1278	27.52	1.64	-1.500			
0.9165	58655.88	3.2030	3.2030	-0.1250	27.52	1.64	-1.500			
0.9169	58679.77	3.2000	3.2001	-0.1224	27.52	1.64	-1.500			
0.9172	58703.01	3.1970	3.1970	-0.1193	27.53	1.65	-1.500			
0.9176	58725.41	3.1940	3.1940	-0.1171	27.53	1.65	-1.500			
0.9179	58747.45	3.1910	3.1910	-0.1145	27.53	1.65	-1.500			
0.9183	58769.06	3.1880	3.1880	-0.1121	27.54	1.66	-1.500			
0.9186	58790.41	3.1850	3.1850	-0.1103	27.54	1.66	-1.500			
0.9189	58811.54	3.1820	3.1821	-0.1083	27.54	1.66	-1.500			
0.9193	58832.13	3.1790	3.1790	-0.1062	27.55	1.67	-1.500			
0.9196	58852.36	3.1760	3.1761	-0.1045	27.55	1.67	-1.500			
0.9199	58872.22	3.1730	3.1729	-0.1024	27.55	1.67	-1.500			
0.9202	58891.48	3.1700	3.1700	-0.1003	27.56	1.68	-1.500			
0.9205	58910.58	3.1670	3.1670	-0.0987	27.56	1.68	-1.500			
0.9208	58929.42	3.1640	3.1640	-0.0967	27.56	1.68	-1.500			
0.9211	58947.82	3.1610	3.1610	-0.0949	27.56	1.68	-1.500			
0.9213	58965.72	3.1580	3.1582	-0.0937	27.57	1.69	-1.500			
0.9216	58983.58	3.1550	3.1550	-0.0923	27.57	1.69	-1.500			
0.9219	59001.17	3.1520	3.1521	-0.0904	27.57	1.69	-1.500			
0.9222	59018.39	3.1490	3.1488	-0.0889	27.57	1.69	-1.500			
0.9224	59035.25	3.1460	3.1462	-0.0876	27.58	1.70	-1.500			
0.9227	59051.95	3.1430	3.1431	-0.0863	27.58	1.70	-1.500			
0.9229	59068.38	3.1400	3.1400	-0.0854	27.58	1.70	-1.500			
0.9232	59084.65	3.1370	3.1369	-0.0842	27.58	1.70	-1.500			
0.9234	59100.36	3.1340	3.1341	-0.0826	27.59	1.71	-1.500			
0.9237	59116.34	3.1310	3.1310	-0.0814	27.59	1.71	-1.500			
0.9239	59132.08	3.1280	3.1279	-0.0807	27.59	1.71	-1.500			
0.9242	59147.33	3.1250	3.1250	-0.0795	27.59	1.71	-1.500			
0.9244	59162.47	3.1220	3.1221	-0.0782	27.59	1.71	-1.500			
0.9246	59177.33	3.1190	3.1190	-0.0770	27.60	1.72	-1.500			
0.9249	59191.96	3.1160	3.1159	-0.0759	27.60	1.72	-1.500			
0.9251	59206.31	3.1130	3.1130	-0.0745	27.60	1.72	-1.500			
0.9253	59220.53	3.1100	3.1098	-0.0736	27.60	1.72	-1.500			
0.9255	59234.55	3.1070	3.1071	-0.0728	27.60	1.72	-1.500			
0.9258	59248.45	3.1040	3.1042	-0.0719	27.61	1.73	-1.500			
0.9260	59262.16	3.1010	3.1010	-0.0710	27.61	1.73	-1.500			
0.9262	59275.68	3.0980	3.0980	-0.0703	27.61	1.73	-1.500			
0.9264	59288.99	3.0950	3.0950	-0.0694	27.61	1.73	-1.500			
0.9266	59302.28	3.0920	3.0920	-0.0685	27.61	1.73	-1.500			
0.9268	59315.37	3.0890	3.0890	-0.0678	27.62	1.74	-1.500			
0.9270	59328.36	3.0860	3.0859	-0.0670	27.62	1.74	-1.500			
0.9272	59341.14	3.0830	3.0831	-0.0662	27.62	1.74	-1.500			
0.9274	59353.79	3.0800	3.0800	-0.0654	27.62	1.74	-1.500			
0.9276	59366.27	3.0770	3.0770	-0.0646	27.62	1.74	-1.500			
0.9278	59378.56	3.0740	3.0739	-0.0640	27.63	1.75	-1.500			
0.9280	59390.71	3.0710	3.0710	-0.0632	27.63	1.75	-1.500			
0.9282	59402.77	3.0680	3.0680	-0.0625	27.63	1.75	-1.500			
0.9284	59414.71	3.0650	3.0651	-0.0619	27.63	1.75	-1.500			
0.9285	59426.51	3.0620	3.0620	-0.0613	27.63	1.75	-1.500			
0.9287	59438.22	3.0590	3.0591	-0.0607	27.63	1.75	-1.500			
0.9289	59449.78	3.0560	3.0559	-0.0601	27.64	1.76	-1.500			
0.9291	59461.28	3.0530	3.0531	-0.0596	27.64	1.76	-1.500			
0.9293	59472.67	3.0500	3.0501	-0.0590	27.64	1.76	-1.500			
0.9294	59484.03	3.0470	3.0470	-0.0584	27.64	1.76	-1.500			
0.9296	59495.18	3.0440	3.0438	-0.0577	27.64	1.76	-1.500			
0.9298	59506.20	3.0410	3.0410	-0.0571	27.64	1.76	-1.500			
0.9300	59517.10	3.0380	3.0380	-0.0564	27.65	1.77	-1.500			
0.9301	59527.79	3.0350	3.0352	-0.0561	27.65	1.77	-1.500			
0.9303	59538.51	3.0320	3.0319	-0.0556	27.65	1.77	-1.500			
0.9305	59549.14	3.0290	3.0290	-0.0551	27.65	1.77	-1.500			
0.9306	59559.64	3.0260	3.0260	-0.0544	27.65	1.77	-1.500			
0.9308	59570.04	3.0230	3.0229	-0.0540	27.65	1.77	-1.500			
0.9309	59580.36	3.0200	3.0201	-0.0535	27.65	1.77	-1.500			
0.9311	59590.62	3.0170	3.0171	-0.0533	27.66	1.78	-1.500			
0.9313	59600.82	3.0140	3.0140	-0.0528	27.66	1.78	-1.500			
0.9314	59610.92	3.0110	3.0109	-0.0524	27.66	1.78	-1.500			
0.9316	59620.93	3.0080	3.0079	-0.0519	27.66	1.78	-1.500			
0.9317	59630.69	3.0050	3.0050	-0.0522	27.66	1.78	-1.500			
0.9319	59640.73	3.0020	3.0020	-0.0524	27.66	1.78	-1.500			
