Ah_balance (normalized)	Ah_balance (mAh)	Voltage - fit (V)	Voltage -  interpolate (V)	dQ/dV (1/V)	Temperature (°C)	Temperature - diff (°C)	Current (C)	R_DC 0ms (mOhm)	R_DC 50ms (mOhm)	R_DC 50 ms PEC (mOhm)
0.2365	15134.64	3.9760	3.9760	0.8575	26.06	0.12	0.750			
0.2391	15299.33	3.9730	3.9730	0.8587	26.06	0.12	0.750			
0.2416	15463.81	3.9700	3.9700	0.8619	26.06	0.12	0.750			
0.2442	15629.45	3.9670	3.9670	0.8699	26.06	0.12	0.750			
0.2468	15797.71	3.9640	3.9640	0.8767	26.06	0.12	0.750			
0.2495	15966.84	3.9610	3.9610	0.8839	26.06	0.12	0.750			
0.2522	16137.68	3.9580	3.9580	0.8860	26.06	0.12	0.750			
0.2548	16309.46	3.9550	3.9550	0.8891	26.06	0.12	0.750			
0.2575	16480.59	3.9520	3.9521	0.8899	26.06	0.12	0.750			
0.2602	16651.16	3.9490	3.9490	0.8880	26.06	0.12	0.750			
0.2628	16820.09	3.9460	3.9460	0.8881	26.06	0.12	0.750			
0.2655	16991.08	3.9430	3.9430	0.8910	26.07	0.13	0.750			
0.2682	17161.74	3.9400	3.9400	0.8936	26.07	0.13	0.750			
0.2709	17334.56	3.9370	3.9370	0.8977	26.07	0.13	0.750			
0.2736	17508.88	3.9340	3.9340	0.8930	26.07	0.13	0.750			
0.2762	17679.00	3.9310	3.9310	0.8966	26.08	0.14	0.750			
0.2789	17850.53	3.9280	3.9281	0.9022	26.08	0.14	0.750			
0.2816	18022.60	3.9250	3.9249	0.9042	26.08	0.14	0.750			
0.2844	18198.59	3.9220	3.9221	0.9019	26.08	0.14	0.750			
0.2871	18371.88	3.9190	3.9190	0.9048	26.08	0.14	0.750			
0.2898	18545.39	3.9160	3.9161	0.9119	26.08	0.14	0.750			
0.2925	18722.29	3.9130	3.9130	0.9170	26.08	0.14	0.750			
0.2953	18896.41	3.9100	3.9098	0.9169	26.08	0.14	0.750			
0.2980	19072.43	3.9070	3.9071	0.9208	26.08	0.14	0.750			
0.3008	19251.08	3.9040	3.9040	0.9260	26.08	0.14	0.750			
0.3036	19430.11	3.9010	3.9010	0.9314	26.08	0.14	0.750			
0.3064	19607.78	3.8980	3.8980	0.9304	26.08	0.14	0.750			
0.3092	19787.07	3.8950	3.8950	0.9315	26.08	0.14	0.750			
0.3120	19966.97	3.8920	3.8920	0.9338	26.07	0.13	0.750			
0.3148	20145.94	3.8890	3.8890	0.9363	26.07	0.13	0.750			
0.3176	20325.08	3.8860	3.8861	0.9415	26.06	0.12	0.750			
0.3204	20506.47	3.8830	3.8829	0.9446	26.06	0.12	0.750			
0.3232	20687.66	3.8800	3.8799	0.9453	26.05	0.11	0.750			
0.3261	20868.51	3.8770	3.8770	0.9522	26.05	0.11	0.750			
0.3289	21052.30	3.8740	3.8741	0.9600	26.05	0.11	0.750			
0.3318	21237.36	3.8710	3.8708	0.9682	26.04	0.10	0.750			
0.3348	21424.35	3.8680	3.8680	0.9684	26.04	0.10	0.750			
0.3377	21610.48	3.8650	3.8651	0.9742	26.03	0.09	0.750			
0.3406	21799.45	3.8620	3.8620	0.9814	26.03	0.09	0.750			
0.3435	21986.15	3.8590	3.8590	0.9845	26.02	0.08	0.750			
0.3465	22176.80	3.8560	3.8560	0.9896	26.02	0.08	0.750			
0.3495	22366.79	3.8530	3.8531	0.9967	26.01	0.07	0.750			
0.3525	22558.49	3.8500	3.8500	1.0061	26.01	0.07	0.750			
0.3555	22754.14	3.8470	3.8471	1.0138	26.00	0.06	0.750			
0.3586	22950.33	3.8440	3.8440	1.0159	26.00	0.06	0.750			
0.3616	23144.67	3.8410	3.8410	1.0227	25.99	0.05	0.750			
0.3647	23340.61	3.8380	3.8381	1.0302	25.99	0.05	0.750			
0.3678	23539.53	3.8350	3.8350	1.0432	25.98	0.04	0.750			
0.3709	23740.65	3.8320	3.8320	1.0491	25.98	0.04	0.750			
0.3741	23942.56	3.8290	3.8290	1.0595	25.97	0.03	0.750			
0.3773	24147.83	3.8260	3.8260	1.0705	25.96	0.02	0.750			
0.3805	24354.20	3.8230	3.8230	1.0811	25.95	0.01	0.750			
0.3838	24563.01	3.8200	3.8199	1.0823	25.94	-0.00	0.750			
0.3870	24770.87	3.8170	3.8171	1.0927	25.93	-0.01	0.750			
0.3903	24981.48	3.8140	3.8140	1.1035	25.93	-0.01	0.750			
0.3937	25194.60	3.8110	3.8110	1.1177	25.92	-0.02	0.750			
0.3970	25409.04	3.8080	3.8080	1.1296	25.92	-0.02	0.750			
0.4004	25626.22	3.8050	3.8051	1.1455	25.91	-0.03	0.750			
0.4039	25847.71	3.8020	3.8020	1.1618	25.91	-0.03	0.750			
0.4074	26073.45	3.7990	3.7988	1.1800	25.90	-0.04	0.750			
0.4109	26300.61	3.7960	3.7961	1.1908	25.89	-0.05	0.750			
0.4145	26530.98	3.7930	3.7930	1.2088	25.88	-0.06	0.750			
0.4182	26765.91	3.7900	3.7900	1.2200	25.87	-0.07	0.750			
0.4219	26999.22	3.7870	3.7870	1.2330	25.87	-0.07	0.750			
0.4256	27237.13	3.7840	3.7840	1.2557	25.86	-0.08	0.750			
0.4294	27479.71	3.7810	3.7810	1.2797	25.85	-0.09	0.750			
0.4332	27727.02	3.7780	3.7780	1.2917	25.84	-0.10	0.750			
0.4371	27977.06	3.7750	3.7750	1.3114	25.83	-0.11	0.750			
0.4411	28229.52	3.7720	3.7721	1.3344	25.83	-0.11	0.750			
0.4451	28488.49	3.7690	3.7688	1.3618	25.82	-0.12	0.750			
0.4492	28750.18	3.7660	3.7661	1.3826	25.81	-0.13	0.750			
0.4534	29020.14	3.7630	3.7630	1.4062	25.81	-0.13	0.750			
0.4577	29292.21	3.7600	3.7600	1.4399	25.80	-0.14	0.750			
0.4620	29570.32	3.7570	3.7570	1.4665	25.80	-0.14	0.750			
0.4665	29856.84	3.7540	3.7540	1.4898	25.80	-0.14	0.750			
0.4710	30144.86	3.7510	3.7510	1.5156	25.80	-0.14	0.750			
0.4756	30437.66	3.7480	3.7480	1.5448	25.79	-0.15	0.750			
0.4802	30734.54	3.7450	3.7452	1.5914	25.78	-0.16	0.750			
0.4850	31042.41	3.7420	3.7420	1.6355	25.78	-0.16	0.750			
0.4900	31362.13	3.7390	3.7389	1.6661	25.77	-0.17	0.750			
0.4951	31688.73	3.7360	3.7359	1.7106	25.77	-0.17	0.750			
0.5004	32024.95	3.7330	3.7329	1.7506	25.77	-0.17	0.750			
0.5057	32362.01	3.7300	3.7301	1.7893	25.76	-0.18	0.750			
0.5110	32705.53	3.7270	3.7269	1.8202	25.75	-0.19	0.750			
0.5165	33054.68	3.7240	3.7239	1.8612	25.75	-0.19	0.750			
0.5221	33412.90	3.7210	3.7211	1.9182	25.74	-0.20	0.750			
0.5280	33793.02	3.7180	3.7180	1.9839	25.73	-0.21	0.750			
0.5340	34178.87	3.7150	3.7149	2.0349	25.73	-0.21	0.750			
0.5402	34574.29	3.7120	3.7121	2.0777	25.72	-0.22	0.750	0.358	0.488	
0.5465	34977.94	3.7090	3.7090	2.1346	25.71	-0.23	0.750			
0.5530	35392.82	3.7060	3.7060	2.1763	25.70	-0.24	0.750			
0.5596	35812.46	3.7030	3.7030	2.2104	25.70	-0.24	0.750			
0.5663	36242.98	3.7000	3.7001	2.2825	25.70	-0.24	0.750			
0.5732	36685.26	3.6970	3.6970	2.3544	25.69	-0.25	0.750			
0.5804	37145.27	3.6940	3.6940	2.3909	25.68	-0.26	0.750			
0.5877	37614.48	3.6910	3.6911	2.4536	25.68	-0.26	0.750			
0.5951	38088.83	3.6880	3.6879	2.5093	25.68	-0.26	0.750			
0.6026	38569.24	3.6850	3.6849	2.5476	25.68	-0.26	0.750			
0.6104	39066.55	3.6820	3.6821	2.6288	25.68	-0.26	0.750			
0.6184	39578.76	3.6790	3.6789	2.6878	25.68	-0.26	0.750			
0.6266	40101.80	3.6760	3.6760	2.6929	25.68	-0.26	0.750			
0.6348	40629.13	3.6730	3.6730	2.6604	25.68	-0.26	0.750			
0.6428	41136.27	3.6700	3.6699	2.5331	25.69	-0.25	0.750			
0.6502	41613.21	3.6670	3.6670	2.3899	25.69	-0.25	0.750			
0.6571	42056.07	3.6640	3.6640	2.2200	25.70	-0.24	0.750			
0.6635	42467.03	3.6610	3.6610	2.0506	25.70	-0.24	0.750			
0.6694	42842.96	3.6580	3.6579	1.8906	25.70	-0.24	0.750			
0.6748	43185.37	3.6550	3.6550	1.7451	25.71	-0.23	0.750			
0.6798	43504.18	3.6520	3.6521	1.6148	25.72	-0.22	0.750			
0.6843	43792.35	3.6490	3.6491	1.5090	25.72	-0.22	0.750			
0.6886	44071.09	3.6460	3.6460	1.4304	25.73	-0.21	0.750			
0.6927	44333.11	3.6430	3.6429	1.3602	25.73	-0.21	0.750			
0.6966	44585.07	3.6400	3.6400	1.3110	25.73	-0.21	0.750			
0.7005	44830.14	3.6370	3.6371	1.2700	25.73	-0.21	0.750			
0.7042	45067.57	3.6340	3.6340	1.2447	25.74	-0.20	0.750			
0.7079	45303.81	3.6310	3.6309	1.2144	25.74	-0.20	0.750			
0.7114	45532.03	3.6280	3.6280	1.2020	25.74	-0.20	0.750			
0.7150	45760.48	3.6250	3.6250	1.1922	25.74	-0.20	0.750			
0.7186	45988.84	3.6220	3.6220	1.1880	25.74	-0.20	0.750			
0.7221	46215.76	3.6190	3.6191	1.1807	25.74	-0.20	0.750			
0.7257	46442.29	3.6160	3.6160	1.1783	25.74	-0.20	0.750			
0.7292	46668.12	3.6130	3.6130	1.1756	25.74	-0.20	0.750			
0.7327	46893.25	3.6100	3.6100	1.1696	25.74	-0.20	0.750			
0.7362	47117.42	3.6070	3.6070	1.1712	25.74	-0.20	0.750			
0.7397	47341.84	3.6040	3.6040	1.1757	25.74	-0.20	0.750			
0.7432	47566.67	3.6010	3.6010	1.1831	25.74	-0.20	0.750			
0.7468	47793.44	3.5980	3.5980	1.1958	25.74	-0.20	0.750			
0.7503	48021.54	3.5950	3.5950	1.2172	25.74	-0.20	0.750			
0.7540	48256.69	3.5920	3.5920	1.2444	25.74	-0.20	0.750			
0.7578	48496.10	3.5890	3.5890	1.2743	25.74	-0.20	0.750			
0.7616	48742.10	3.5860	3.5861	1.3132	25.74	-0.20	0.750			
0.7656	48999.13	3.5830	3.5830	1.3511	25.74	-0.20	0.750			
0.7697	49261.91	3.5800	3.5798	1.3973	25.74	-0.20	0.750			
0.7740	49534.00	3.5770	3.5771	1.4391	25.74	-0.20	0.750			
0.7784	49816.15	3.5740	3.5741	1.4753	25.74	-0.20	0.750			
0.7829	50108.19	3.5710	3.5708	1.5108	25.74	-0.20	0.750			
0.7875	50399.20	3.5680	3.5680	1.5399	25.73	-0.21	0.750			
0.7922	50700.58	3.5650	3.5651	1.5598	25.72	-0.22	0.750			
0.7969	51001.42	3.5620	3.5621	1.5863	25.72	-0.22	0.750			
0.8017	51312.00	3.5590	3.5588	1.5916	25.72	-0.22	0.750			
0.8066	51619.22	3.5560	3.5560	1.6050	25.72	-0.22	0.750			
0.8114	51930.83	3.5530	3.5529	1.6082	25.72	-0.22	0.750			
0.8163	52240.48	3.5500	3.5501	1.5934	25.73	-0.21	0.750			
0.8210	52546.03	3.5470	3.5470	1.5789	25.73	-0.21	0.750			
0.8259	52856.08	3.5440	3.5440	1.5401	25.74	-0.20	0.750			
0.8306	53156.81	3.5410	3.5409	1.4739	25.75	-0.19	0.750			
0.8351	53443.89	3.5380	3.5380	1.3705	25.76	-0.18	0.750			
0.8392	53709.50	3.5350	3.5351	1.2139	25.77	-0.17	0.750			
0.8427	53933.41	3.5320	3.5322	1.0360	25.78	-0.16	0.750			
0.8455	54114.02	3.5290	3.5291	0.8637	25.78	-0.16	0.750			
0.8476	54247.65	3.5260	3.5260	0.6780	25.80	-0.14	0.750			
0.8493	54353.17	3.5230	3.5229	0.5571	25.81	-0.13	0.750			
0.8507	54442.42	3.5200	3.5197	0.4634	25.82	-0.12	0.750			
0.8518	54513.00	3.5170	3.5170	0.3978	25.82	-0.12	0.750			
0.8529	54582.84	3.5140	3.5139	0.3600	25.83	-0.11	0.750			
0.8538	54645.64	3.5110	3.5110	0.3339	25.84	-0.10	0.750			
0.8548	54706.40	3.5080	3.5080	0.3140	25.84	-0.10	0.750			
0.8557	54763.94	3.5050	3.5050	0.2980	25.85	-0.09	0.750			
0.8566	54820.02	3.5020	3.5020	0.2869	25.86	-0.08	0.750			
0.8574	54873.29	3.4990	3.4990	0.2759	25.86	-0.08	0.750			
0.8582	54925.21	3.4960	3.4960	0.2671	25.87	-0.07	0.750			
0.8590	54975.21	3.4930	3.4931	0.2582	25.87	-0.07	0.750			
0.8597	55023.34	3.4900	3.4900	0.2518	25.88	-0.06	0.750			
0.8605	55071.07	3.4870	3.4869	0.2460	25.88	-0.06	0.750			
0.8612	55117.69	3.4840	3.4840	0.2405	25.89	-0.05	0.750			
0.8619	55163.06	3.4810	3.4810	0.2358	25.89	-0.05	0.750			
0.8626	55208.13	3.4780	3.4780	0.2308	25.89	-0.05	0.750			
0.8633	55252.33	3.4750	3.4750	0.2254	25.90	-0.04	0.750			
0.8640	55295.31	3.4720	3.4720	0.2200	25.90	-0.04	0.750			
0.8646	55337.22	3.4690	3.4690	0.2144	25.91	-0.03	0.750			
0.8653	55377.35	3.4660	3.4660	0.2087	25.91	-0.03	0.750			
0.8659	55416.63	3.4630	3.4630	0.2043	25.92	-0.02	0.750			
0.8665	55455.44	3.4600	3.4600	0.1999	25.92	-0.02	0.750			
0.8671	55492.85	3.4570	3.4569	0.1953	25.92	-0.02	0.750			
0.8677	55530.25	3.4540	3.4540	0.1914	25.93	-0.01	0.750			
0.8682	55567.04	3.4510	3.4510	0.1873	25.93	-0.01	0.750			
0.8688	55602.52	3.4480	3.4480	0.1823	25.93	-0.01	0.750			
0.8693	55637.27	3.4450	3.4450	0.1776	25.94	-0.00	0.750			
0.8699	55670.72	3.4420	3.4421	0.1728	25.94	0.00	0.750			
0.8704	55703.16	3.4390	3.4390	0.1675	25.94	0.00	0.750			
0.8709	55734.89	3.4360	3.4360	0.1631	25.95	0.01	0.750			
0.8713	55765.66	3.4330	3.4330	0.1590	25.95	0.01	0.750			
0.8718	55795.94	3.4300	3.4299	0.1543	25.95	0.01	0.750			
0.8723	55825.34	3.4270	3.4270	0.1502	25.96	0.02	0.750			
0.8727	55853.70	3.4240	3.4239	0.1452	25.96	0.02	0.750			
0.8731	55881.14	3.4210	3.4211	0.1403	25.96	0.02	0.750			
0.8736	55907.59	3.4180	3.4180	0.1353	25.96	0.02	0.750			
0.8740	55933.10	3.4150	3.4150	0.1304	25.97	0.03	0.750			
0.8743	55957.66	3.4120	3.4120	0.1254	25.97	0.03	0.750			
0.8747	55981.05	3.4090	3.4091	0.1206	25.97	0.03	0.750			
0.8751	56003.93	3.4060	3.4059	0.1162	25.97	0.03	0.750			
0.8754	56025.78	3.4030	3.4030	0.1111	25.98	0.04	0.750			
0.8757	56046.64	3.4000	3.4000	0.1062	25.98	0.04	0.750			
0.8760	56066.90	3.3970	3.3970	0.1005	25.98	0.04	0.750			
0.8763	56085.63	3.3940	3.3941	0.0946	25.98	0.04	0.750			
0.8766	56104.29	3.3910	3.3909	0.0876	25.98	0.04	0.750			
0.8769	56120.32	3.3880	3.3880	0.0795	25.99	0.05	0.750			
0.8771	56135.28	3.3850	3.3851	0.0723	25.99	0.05	0.750			
0.8773	56148.32	3.3820	3.3822	0.0635	25.99	0.05	0.750			
0.8775	56160.18	3.3790	3.3793	0.0550	25.99	0.05	0.750			
0.8777	56169.82	3.3760	3.3767	0.0455	25.99	0.05	0.750			
0.8778	56177.65	3.3730	3.3741	0.0361	25.99	0.05	0.750			
0.8779	56183.68	3.3700	3.3716	0.0266	25.99	0.05	0.750			
