Ah_balance (normalized)	Ah_balance (mAh)	Voltage - fit (V)	Voltage -  interpolate (V)	dQ/dV (1/V)	Temperature (°C)	Temperature - diff (°C)	Current (C)	R_DC 0ms (mOhm)	R_DC 50ms (mOhm)	R_DC 50 ms PEC (mOhm)
0.1972	12620.50	3.9360	3.9358	-0.1290	25.69	0.01	-0.750			
0.1977	12650.86	3.9330	3.9329	-0.1812	25.69	0.01	-0.750			
0.1983	12690.61	3.9300	3.9300	-0.2290	25.69	0.01	-0.750			
0.1991	12739.34	3.9270	3.9270	-0.2750	25.69	0.01	-0.750			
0.2000	12796.96	3.9240	3.9241	-0.3178	25.68	0.00	-0.750			
0.2010	12862.85	3.9210	3.9210	-0.3630	25.68	0.00	-0.750			
0.2021	12937.10	3.9180	3.9180	-0.4019	25.68	0.00	-0.750			
0.2034	13018.30	3.9150	3.9150	-0.4401	25.68	-0.00	-0.750			
0.2048	13106.94	3.9120	3.9120	-0.4771	25.68	-0.00	-0.750			
0.2063	13202.12	3.9090	3.9089	-0.5121	25.67	-0.01	-0.750			
0.2079	13304.91	3.9060	3.9060	-0.5421	25.67	-0.01	-0.750			
0.2096	13412.85	3.9030	3.9030	-0.5697	25.67	-0.01	-0.750			
0.2113	13526.18	3.9000	3.9000	-0.5926	25.67	-0.01	-0.750			
0.2132	13644.03	3.8970	3.8969	-0.6064	25.66	-0.02	-0.750			
0.2150	13762.51	3.8940	3.8941	-0.6192	25.66	-0.02	-0.750			
0.2169	13882.37	3.8910	3.8910	-0.6299	25.66	-0.02	-0.750			
0.2188	14003.73	3.8880	3.8879	-0.6413	25.66	-0.02	-0.750			
0.2207	14127.65	3.8850	3.8850	-0.6530	25.66	-0.02	-0.750			
0.2227	14254.26	3.8820	3.8820	-0.6621	25.65	-0.03	-0.750			
0.2247	14383.51	3.8790	3.8790	-0.6692	25.65	-0.03	-0.750			
0.2268	14513.33	3.8760	3.8759	-0.6740	25.65	-0.03	-0.750			
0.2288	14643.07	3.8730	3.8730	-0.6781	25.65	-0.03	-0.750			
0.2308	14773.78	3.8700	3.8700	-0.6796	25.65	-0.03	-0.750			
0.2329	14903.96	3.8670	3.8669	-0.6813	25.65	-0.03	-0.750			
0.2349	15034.74	3.8640	3.8641	-0.6833	25.64	-0.04	-0.750			
0.2370	15167.18	3.8610	3.8610	-0.6878	25.64	-0.04	-0.750			
0.2391	15299.75	3.8580	3.8580	-0.6911	25.64	-0.04	-0.750			
0.2411	15432.42	3.8550	3.8550	-0.6918	25.64	-0.04	-0.750			
0.2432	15564.56	3.8520	3.8520	-0.6930	25.64	-0.04	-0.750			
0.2453	15698.62	3.8490	3.8489	-0.6942	25.64	-0.04	-0.750			
0.2474	15831.91	3.8460	3.8461	-0.6950	25.64	-0.04	-0.750			
0.2495	15965.09	3.8430	3.8430	-0.6973	25.64	-0.04	-0.750			
0.2516	16100.01	3.8400	3.8401	-0.6962	25.64	-0.04	-0.750			
0.2537	16233.76	3.8370	3.8370	-0.6954	25.64	-0.04	-0.750			
0.2557	16366.46	3.8340	3.8340	-0.6977	25.64	-0.04	-0.750			
0.2578	16499.65	3.8310	3.8310	-0.7027	25.64	-0.04	-0.750			
0.2599	16635.35	3.8280	3.8279	-0.7029	25.64	-0.04	-0.750			
0.2620	16770.80	3.8250	3.8250	-0.7000	25.64	-0.04	-0.750			
0.2642	16906.00	3.8220	3.8220	-0.6987	25.64	-0.04	-0.750			
0.2663	17040.85	3.8190	3.8189	-0.6976	25.64	-0.04	-0.750			
0.2683	17173.32	3.8160	3.8160	-0.6956	25.64	-0.04	-0.750			
0.2704	17305.61	3.8130	3.8130	-0.6937	25.64	-0.04	-0.750			
0.2725	17437.56	3.8100	3.8100	-0.6929	25.64	-0.04	-0.750			
0.2746	17572.65	3.8070	3.8070	-0.6951	25.64	-0.04	-0.750			
0.2767	17706.75	3.8040	3.8040	-0.6965	25.64	-0.04	-0.750			
0.2788	17840.08	3.8010	3.8010	-0.6942	25.64	-0.04	-0.750			
0.2808	17972.69	3.7980	3.7980	-0.6939	25.64	-0.04	-0.750			
0.2829	18105.34	3.7950	3.7950	-0.6958	25.64	-0.04	-0.750			
0.2850	18239.22	3.7920	3.7920	-0.6955	25.64	-0.04	-0.750			
0.2871	18372.73	3.7890	3.7890	-0.6979	25.64	-0.04	-0.750			
0.2892	18506.99	3.7860	3.7860	-0.7015	25.64	-0.04	-0.750			
0.2913	18641.52	3.7830	3.7829	-0.7022	25.64	-0.04	-0.750			
0.2934	18776.85	3.7800	3.7800	-0.7053	25.64	-0.04	-0.750			
0.2955	18912.24	3.7770	3.7770	-0.7118	25.64	-0.04	-0.750			
0.2977	19049.70	3.7740	3.7740	-0.7137	25.63	-0.05	-0.750			
0.2998	19188.27	3.7710	3.7709	-0.7146	25.63	-0.05	-0.750			
0.3020	19325.72	3.7680	3.7681	-0.7137	25.63	-0.05	-0.750			
0.3041	19461.83	3.7650	3.7650	-0.7187	25.63	-0.05	-0.750			
0.3062	19599.73	3.7620	3.7619	-0.7202	25.63	-0.05	-0.750			
0.3084	19737.27	3.7590	3.7589	-0.7249	25.63	-0.05	-0.750			
0.3106	19875.43	3.7560	3.7560	-0.7259	25.62	-0.06	-0.750			
0.3128	20017.97	3.7530	3.7531	-0.7352	25.62	-0.06	-0.750			
0.3150	20159.22	3.7500	3.7501	-0.7410	25.62	-0.06	-0.750			
0.3172	20301.49	3.7470	3.7470	-0.7465	25.62	-0.06	-0.750			
0.3194	20444.51	3.7440	3.7439	-0.7516	25.62	-0.06	-0.750			
0.3217	20590.13	3.7410	3.7410	-0.7588	25.61	-0.07	-0.750			
0.3240	20736.35	3.7380	3.7380	-0.7636	25.61	-0.07	-0.750			
0.3263	20884.86	3.7350	3.7350	-0.7742	25.61	-0.07	-0.750			
0.3286	21033.12	3.7320	3.7321	-0.7802	25.61	-0.07	-0.750			
0.3310	21181.85	3.7290	3.7290	-0.7884	25.60	-0.08	-0.750			
0.3334	21334.61	3.7260	3.7260	-0.7982	25.60	-0.08	-0.750			
0.3358	21488.77	3.7230	3.7230	-0.8085	25.60	-0.08	-0.750			
0.3382	21645.29	3.7200	3.7200	-0.8181	25.59	-0.09	-0.750			
0.3407	21803.88	3.7170	3.7170	-0.8277	25.59	-0.09	-0.750			
0.3432	21963.08	3.7140	3.7140	-0.8354	25.58	-0.10	-0.750			
0.3457	22124.59	3.7110	3.7110	-0.8430	25.58	-0.10	-0.750			
0.3482	22286.54	3.7080	3.7080	-0.8549	25.57	-0.11	-0.750			
0.3508	22451.54	3.7050	3.7050	-0.8672	25.56	-0.12	-0.750			
0.3534	22618.78	3.7020	3.7020	-0.8784	25.56	-0.12	-0.750			
0.3561	22788.52	3.6990	3.6990	-0.8927	25.55	-0.13	-0.750			
0.3588	22961.06	3.6960	3.6960	-0.9072	25.55	-0.13	-0.750			
0.3615	23136.11	3.6930	3.6930	-0.9242	25.54	-0.14	-0.750			
0.3643	23314.94	3.6900	3.6900	-0.9419	25.53	-0.15	-0.750			
0.3671	23495.70	3.6870	3.6870	-0.9667	25.53	-0.15	-0.750			
0.3701	23684.30	3.6840	3.6840	-0.9862	25.53	-0.15	-0.750			
0.3731	23876.55	3.6810	3.6809	-1.0060	25.52	-0.16	-0.750			
0.3761	24072.12	3.6780	3.6779	-1.0258	25.52	-0.16	-0.750			
0.3792	24270.51	3.6750	3.6751	-1.0511	25.51	-0.17	-0.750			
0.3824	24474.38	3.6720	3.6719	-1.0714	25.50	-0.18	-0.750			
0.3856	24680.03	3.6690	3.6690	-1.0937	25.49	-0.19	-0.750			
0.3889	24890.77	3.6660	3.6661	-1.1154	25.48	-0.20	-0.750			
0.3924	25110.84	3.6630	3.6630	-1.1498	25.48	-0.20	-0.750			
0.3959	25335.45	3.6600	3.6599	-1.1750	25.47	-0.21	-0.750			
0.3994	25563.72	3.6570	3.6571	-1.1955	25.47	-0.21	-0.750			
0.4030	25794.46	3.6540	3.6541	-1.2212	25.46	-0.22	-0.750			
0.4068	26033.96	3.6510	3.6510	-1.2476	25.45	-0.23	-0.750			
0.4105	26273.87	3.6480	3.6480	-1.2720	25.45	-0.23	-0.750			
0.4144	26519.29	3.6450	3.6451	-1.3016	25.44	-0.24	-0.750			
0.4183	26772.15	3.6420	3.6419	-1.3319	25.43	-0.25	-0.750			
0.4224	27030.95	3.6390	3.6389	-1.3594	25.43	-0.25	-0.750			
0.4265	27295.12	3.6360	3.6361	-1.3895	25.42	-0.26	-0.750			
0.4307	27562.55	3.6330	3.6330	-1.4209	25.42	-0.26	-0.750			
0.4350	27839.57	3.6300	3.6300	-1.4578	25.41	-0.27	-0.750			
0.4394	28121.90	3.6270	3.6270	-1.4878	25.40	-0.28	-0.750			
0.4439	28408.90	3.6240	3.6240	-1.5183	25.40	-0.28	-0.750			
0.4486	28708.15	3.6210	3.6210	-1.5479	25.39	-0.29	-0.750			
0.4533	29008.79	3.6180	3.6182	-1.5760	25.39	-0.29	-0.750			
0.4580	29310.52	3.6150	3.6150	-1.6111	25.39	-0.29	-0.750			
0.4629	29622.44	3.6120	3.6120	-1.6367	25.39	-0.29	-0.750			
0.4678	29941.19	3.6090	3.6090	-1.6757	25.39	-0.29	-0.750			
0.4729	30264.49	3.6060	3.6060	-1.7222	25.38	-0.30	-0.750			
0.4781	30599.39	3.6030	3.6031	-1.7645	25.38	-0.30	-0.750			
0.4835	30943.79	3.6000	3.6002	-1.7981	25.38	-0.30	-0.750			
0.4890	31294.94	3.5970	3.5970	-1.8331	25.37	-0.31	-0.750			
0.4945	31648.29	3.5940	3.5941	-1.8573	25.37	-0.31	-0.750			
0.5002	32010.71	3.5910	3.5910	-1.8818	25.38	-0.30	-0.750			
0.5059	32374.98	3.5880	3.5880	-1.9018	25.38	-0.30	-0.750			
0.5115	32737.00	3.5850	3.5850	-1.9154	25.37	-0.31	-0.750			
0.5173	33109.00	3.5820	3.5820	-1.9432	25.37	-0.31	-0.750			
0.5232	33483.30	3.5790	3.5790	-1.9657	25.38	-0.30	-0.750			
0.5291	33864.16	3.5760	3.5760	-1.9973	25.39	-0.29	-0.750			
0.5352	34250.90	3.5730	3.5730	-2.0255	25.38	-0.30	-0.750	0.369	0.556	
0.5413	34642.48	3.5700	3.5699	-2.0515	25.38	-0.30	-0.750			
0.5475	35036.88	3.5670	3.5671	-2.0783	25.39	-0.29	-0.750			
0.5537	35439.95	3.5640	3.5640	-2.0908	25.39	-0.29	-0.750			
0.5601	35847.29	3.5610	3.5610	-2.0946	25.39	-0.29	-0.750			
0.5664	36248.56	3.5580	3.5580	-2.0928	25.39	-0.29	-0.750			
0.5727	36651.25	3.5550	3.5551	-2.0883	25.41	-0.27	-0.750			
0.5789	37052.76	3.5520	3.5519	-2.0864	25.42	-0.26	-0.750			
0.5851	37448.59	3.5490	3.5490	-2.0956	25.43	-0.25	-0.750			
0.5915	37855.38	3.5460	3.5461	-2.0964	25.44	-0.24	-0.750			
0.5978	38261.75	3.5430	3.5429	-2.0950	25.45	-0.23	-0.750			
0.6042	38667.50	3.5400	3.5401	-2.0775	25.45	-0.23	-0.750			
0.6103	39058.80	3.5370	3.5370	-2.0477	25.46	-0.22	-0.750			
0.6165	39454.92	3.5340	3.5339	-2.0177	25.47	-0.21	-0.750			
0.6224	39834.06	3.5310	3.5310	-1.9693	25.48	-0.20	-0.750			
0.6284	40215.06	3.5280	3.5281	-1.9201	25.49	-0.19	-0.750			
0.6340	40576.75	3.5250	3.5250	-1.8776	25.51	-0.17	-0.750			
0.6395	40927.18	3.5220	3.5219	-1.8403	25.52	-0.16	-0.750			
0.6449	41274.64	3.5190	3.5189	-1.7960	25.53	-0.15	-0.750			
0.6503	41621.32	3.5160	3.5160	-1.7697	25.54	-0.14	-0.750			
0.6556	41960.31	3.5130	3.5131	-1.7341	25.56	-0.12	-0.750			
0.6609	42294.93	3.5100	3.5100	-1.6998	25.58	-0.10	-0.750			
0.6659	42617.50	3.5070	3.5070	-1.6499	25.59	-0.09	-0.750			
0.6707	42927.51	3.5040	3.5041	-1.5995	25.60	-0.08	-0.750			
0.6755	43229.40	3.5010	3.5009	-1.5481	25.62	-0.06	-0.750			
0.6801	43523.42	3.4980	3.4980	-1.5058	25.63	-0.05	-0.750			
0.6845	43807.09	3.4950	3.4950	-1.4620	25.64	-0.04	-0.750			
0.6888	44080.61	3.4920	3.4919	-1.4200	25.66	-0.02	-0.750			
0.6930	44349.64	3.4890	3.4890	-1.3747	25.67	-0.01	-0.750			
0.6970	44609.83	3.4860	3.4859	-1.3354	25.68	0.00	-0.750			
0.7010	44862.13	3.4830	3.4831	-1.2987	25.70	0.02	-0.750			
0.7048	45107.75	3.4800	3.4799	-1.2600	25.71	0.03	-0.750			
0.7085	45345.84	3.4770	3.4770	-1.2264	25.71	0.03	-0.750			
0.7121	45577.34	3.4740	3.4740	-1.1963	25.72	0.04	-0.750			
0.7156	45800.79	3.4710	3.4710	-1.1677	25.73	0.05	-0.750			
0.7191	46024.08	3.4680	3.4680	-1.1505	25.74	0.06	-0.750			
0.7225	46241.26	3.4650	3.4650	-1.1276	25.75	0.07	-0.750			
0.7259	46455.04	3.4620	3.4619	-1.1143	25.76	0.08	-0.750			
0.7292	46667.12	3.4590	3.4590	-1.1048	25.76	0.08	-0.750			
0.7325	46877.71	3.4560	3.4560	-1.0960	25.77	0.09	-0.750			
0.7357	47086.75	3.4530	3.4530	-1.0868	25.78	0.10	-0.750			
0.7390	47294.33	3.4500	3.4500	-1.0795	25.79	0.11	-0.750			
0.7422	47502.30	3.4470	3.4470	-1.0776	25.80	0.12	-0.750			
0.7455	47709.67	3.4440	3.4439	-1.0715	25.80	0.12	-0.750			
0.7486	47913.57	3.4410	3.4410	-1.0646	25.81	0.13	-0.750			
0.7518	48117.35	3.4380	3.4381	-1.0565	25.82	0.14	-0.750			
0.7550	48320.49	3.4350	3.4349	-1.0513	25.82	0.14	-0.750			
0.7582	48522.60	3.4320	3.4319	-1.0410	25.82	0.14	-0.750			
0.7613	48720.52	3.4290	3.4291	-1.0278	25.82	0.14	-0.750			
0.7643	48916.82	3.4260	3.4260	-1.0146	25.82	0.14	-0.750			
0.7674	49111.97	3.4230	3.4230	-1.0068	25.83	0.15	-0.750			
0.7704	49303.75	3.4200	3.4200	-0.9938	25.84	0.16	-0.750			
0.7733	49493.74	3.4170	3.4170	-0.9796	25.85	0.17	-0.750			
0.7763	49680.99	3.4140	3.4139	-0.9603	25.86	0.18	-0.750			
0.7791	49865.52	3.4110	3.4110	-0.9443	25.86	0.18	-0.750			
0.7820	50044.91	3.4080	3.4080	-0.9222	25.86	0.18	-0.750			
0.7847	50219.69	3.4050	3.4050	-0.9011	25.86	0.18	-0.750			
0.7873	50389.42	3.4020	3.4020	-0.8734	25.86	0.18	-0.750			
0.7899	50555.46	3.3990	3.3991	-0.8520	25.86	0.18	-0.750			
0.7925	50718.00	3.3960	3.3960	-0.8278	25.87	0.19	-0.750			
0.7949	50875.28	3.3930	3.3929	-0.8004	25.87	0.19	-0.750			
0.7973	51026.27	3.3900	3.3900	-0.7729	25.88	0.20	-0.750			
0.7996	51172.10	3.3870	3.3870	-0.7424	25.88	0.20	-0.750			
0.8018	51312.07	3.3840	3.3841	-0.7122	25.89	0.21	-0.750			
0.8039	51446.65	3.3810	3.3809	-0.6820	25.89	0.21	-0.750			
0.8058	51573.77	3.3780	3.3780	-0.6502	25.90	0.22	-0.750			
0.8077	51695.26	3.3750	3.3751	-0.6227	25.90	0.22	-0.750			
0.8096	51811.23	3.3720	3.3720	-0.5951	25.90	0.22	-0.750			
0.8113	51923.19	3.3690	3.3690	-0.5677	25.90	0.22	-0.750			
0.8130	52030.44	3.3660	3.3660	-0.5417	25.91	0.23	-0.750			
0.8146	52131.59	3.3630	3.3630	-0.5153	25.91	0.23	-0.750			
0.8161	52227.85	3.3600	3.3600	-0.4894	25.91	0.23	-0.750			
0.8175	52318.80	3.3570	3.3569	-0.4648	25.92	0.24	-0.750			
0.8188	52404.13	3.3540	3.3540	-0.4414	25.92	0.24	-0.750			
0.8201	52486.46	3.3510	3.3510	-0.4227	25.92	0.24	-0.750			
0.8213	52565.39	3.3480	3.3480	-0.4066	25.93	0.25	-0.750			
0.8225	52641.86	3.3450	3.3450	-0.3912	25.93	0.25	-0.750			
0.8237	52714.99	3.3420	3.3419	-0.3766	25.93	0.25	-0.750			
0.8248	52786.43	3.3390	3.3390	-0.3625	25.93	0.25	-0.750			
0.8258	52854.35	3.3360	3.3360	-0.3478	25.94	0.26	-0.750			
0.8269	52919.60	3.3330	3.3330	-0.3347	25.94	0.26	-0.750			
0.8279	52982.45	3.3300	3.3300	-0.3218	25.94	0.26	-0.750			
0.8288	53042.65	3.3270	3.3270	-0.3103	25.95	0.27	-0.750			
0.8297	53100.78	3.3240	3.3240	-0.2997	25.95	0.27	-0.750			
0.8306	53156.99	3.3210	3.3210	-0.2904	25.95	0.27	-0.750			
0.8314	53212.09	3.3180	3.3179	-0.2823	25.96	0.28	-0.750			
0.8323	53265.04	3.3150	3.3150	-0.2748	25.96	0.28	-0.750			
0.8331	53317.29	3.3120	3.3120	-0.2676	25.97	0.29	-0.750			
0.8339	53367.94	3.3090	3.3090	-0.2611	25.97	0.29	-0.750			
0.8346	53417.35	3.3060	3.3060	-0.2546	25.97	0.29	-0.750			
0.8354	53465.52	3.3030	3.3031	-0.2480	25.98	0.30	-0.750			
0.8361	53512.50	3.3000	3.3000	-0.2420	25.98	0.30	-0.750			
0.8368	53558.16	3.2970	3.2971	-0.2363	25.98	0.30	-0.750			
0.8375	53602.67	3.2940	3.2940	-0.2303	25.99	0.31	-0.750			
0.8382	53646.31	3.2910	3.2911	-0.2264	25.99	0.31	-0.750			
0.8389	53689.53	3.2880	3.2880	-0.2223	25.99	0.31	-0.750			
0.8396	53731.70	3.2850	3.2850	-0.2172	26.00	0.32	-0.750			
0.8402	53773.12	3.2820	3.2820	-0.2132	26.00	0.32	-0.750			
0.8408	53813.50	3.2790	3.2791	-0.2096	26.00	0.32	-0.750			
0.8415	53853.45	3.2760	3.2760	-0.2055	26.01	0.33	-0.750			
0.8421	53892.26	3.2730	3.2730	-0.2018	26.01	0.33	-0.750			
0.8427	53930.66	3.2700	3.2700	-0.1983	26.01	0.33	-0.750			
0.8433	53968.00	3.2670	3.2671	-0.1956	26.02	0.34	-0.750			
0.8438	54005.36	3.2640	3.2639	-0.1930	26.02	0.34	-0.750			
0.8444	54042.23	3.2610	3.2610	-0.1906	26.02	0.34	-0.750			
0.8450	54078.58	3.2580	3.2580	-0.1880	26.02	0.34	-0.750			
0.8455	54114.33	3.2550	3.2550	-0.1852	26.03	0.35	-0.750			
0.8461	54150.00	3.2520	3.2520	-0.1825	26.03	0.35	-0.750			
0.8466	54184.41	3.2490	3.2490	-0.1799	26.03	0.35	-0.750			
0.8472	54218.73	3.2460	3.2460	-0.1775	26.03	0.35	-0.750			
0.8477	54252.46	3.2430	3.2430	-0.1745	26.04	0.36	-0.750			
0.8482	54285.70	3.2400	3.2399	-0.1723	26.04	0.36	-0.750			
0.8487	54318.36	3.2370	3.2371	-0.1702	26.04	0.36	-0.750			
0.8492	54350.87	3.2340	3.2341	-0.1684	26.04	0.36	-0.750			
0.8497	54382.98	3.2310	3.2310	-0.1670	26.05	0.37	-0.750			
0.8502	54415.00	3.2280	3.2279	-0.1652	26.05	0.37	-0.750			
0.8507	54446.22	3.2250	3.2250	-0.1633	26.05	0.37	-0.750			
0.8512	54477.47	3.2220	3.2221	-0.1622	26.05	0.37	-0.750			
0.8517	54508.88	3.2190	3.2190	-0.1606	26.06	0.38	-0.750			
0.8522	54539.52	3.2160	3.2159	-0.1587	26.06	0.38	-0.750			
0.8527	54569.79	3.2130	3.2130	-0.1568	26.06	0.38	-0.750			
0.8531	54599.73	3.2100	3.2101	-0.1548	26.07	0.39	-0.750			
0.8536	54629.17	3.2070	3.2070	-0.1533	26.07	0.39	-0.750			
0.8540	54658.46	3.2040	3.2040	-0.1518	26.07	0.39	-0.750			
0.8545	54687.44	3.2010	3.2010	-0.1501	26.08	0.40	-0.750			
0.8549	54715.84	3.1980	3.1979	-0.1486	26.08	0.40	-0.750			
0.8554	54744.47	3.1950	3.1950	-0.1473	26.09	0.41	-0.750			
0.8558	54772.59	3.1920	3.1920	-0.1457	26.09	0.41	-0.750			
0.8563	54800.42	3.1890	3.1890	-0.1442	26.09	0.41	-0.750			
0.8567	54827.96	3.1860	3.1861	-0.1433	26.10	0.42	-0.750			
0.8571	54855.11	3.1830	3.1830	-0.1422	26.10	0.42	-0.750			
0.8575	54882.50	3.1800	3.1799	-0.1409	26.10	0.42	-0.750			
0.8580	54909.45	3.1770	3.1770	-0.1398	26.11	0.43	-0.750			
0.8584	54936.15	3.1740	3.1740	-0.1389	26.11	0.43	-0.750			
0.8588	54962.88	3.1710	3.1711	-0.1378	26.12	0.44	-0.750			
0.8592	54989.24	3.1680	3.1679	-0.1366	26.12	0.44	-0.750			
0.8596	55015.32	3.1650	3.1650	-0.1351	26.12	0.44	-0.750			
0.8600	55040.97	3.1620	3.1620	-0.1340	26.13	0.45	-0.750			
0.8604	55066.55	3.1590	3.1590	-0.1329	26.13	0.45	-0.750			
0.8608	55092.10	3.1560	3.1560	-0.1322	26.13	0.45	-0.750			
0.8612	55117.37	3.1530	3.1530	-0.1310	26.14	0.46	-0.750			
0.8616	55142.31	3.1500	3.1500	-0.1296	26.14	0.46	-0.750			
0.8620	55167.18	3.1470	3.1470	-0.1287	26.14	0.46	-0.750			
0.8624	55191.79	3.1440	3.1440	-0.1276	26.15	0.47	-0.750			
0.8628	55216.18	3.1410	3.1410	-0.1264	26.15	0.47	-0.750			
0.8631	55240.15	3.1380	3.1380	-0.1256	26.15	0.47	-0.750			
0.8635	55264.13	3.1350	3.1350	-0.1248	26.16	0.48	-0.750			
0.8639	55287.98	3.1320	3.1320	-0.1239	26.16	0.48	-0.750			
0.8642	55311.71	3.1290	3.1289	-0.1233	26.16	0.48	-0.750			
0.8646	55335.48	3.1260	3.1260	-0.1225	26.16	0.48	-0.750			
0.8650	55358.96	3.1230	3.1230	-0.1216	26.16	0.48	-0.750			
0.8653	55382.22	3.1200	3.1200	-0.1206	26.16	0.48	-0.750			
0.8657	55405.41	3.1170	3.1170	-0.1197	26.17	0.49	-0.750			
0.8661	55428.19	3.1140	3.1140	-0.1189	26.17	0.49	-0.750			
0.8664	55450.76	3.1110	3.1110	-0.1177	26.17	0.49	-0.750			
0.8668	55473.40	3.1080	3.1080	-0.1165	26.18	0.50	-0.750			
0.8671	55495.71	3.1050	3.1049	-0.1155	26.18	0.50	-0.750			
0.8675	55517.68	3.1020	3.1020	-0.1147	26.18	0.50	-0.750			
0.8678	55539.64	3.0990	3.0992	-0.1138	26.19	0.51	-0.750			
0.8681	55561.28	3.0960	3.0959	-0.1133	26.19	0.51	-0.750			
0.8685	55582.82	3.0930	3.0930	-0.1125	26.19	0.51	-0.750			
0.8688	55604.41	3.0900	3.0900	-0.1119	26.20	0.52	-0.750			
0.8692	55625.69	3.0870	3.0870	-0.1112	26.20	0.52	-0.750			
0.8695	55647.11	3.0840	3.0840	-0.1105	26.20	0.52	-0.750			
0.8698	55668.52	3.0810	3.0811	-0.1103	26.21	0.53	-0.750			
0.8701	55689.60	3.0780	3.0780	-0.1094	26.21	0.53	-0.750			
0.8705	55710.53	3.0750	3.0751	-0.1085	26.21	0.53	-0.750			
0.8708	55731.25	3.0720	3.0720	-0.1077	26.21	0.53	-0.750			
0.8711	55751.79	3.0690	3.0690	-0.1068	26.22	0.54	-0.750			
0.8714	55772.25	3.0660	3.0659	-0.1060	26.22	0.54	-0.750			
0.8718	55792.55	3.0630	3.0630	-0.1053	26.22	0.54	-0.750			
0.8721	55812.67	3.0600	3.0600	-0.1045	26.23	0.55	-0.750			
0.8724	55832.66	3.0570	3.0570	-0.1037	26.23	0.55	-0.750			
0.8727	55852.43	3.0540	3.0540	-0.1032	26.23	0.55	-0.750			
0.8730	55872.12	3.0510	3.0509	-0.1026	26.24	0.56	-0.750			
0.8733	55891.82	3.0480	3.0480	-0.1019	26.24	0.56	-0.750			
0.8736	55911.30	3.0450	3.0449	-0.1013	26.24	0.56	-0.750			
0.8739	55930.76	3.0420	3.0420	-0.1005	26.24	0.56	-0.750			
0.8742	55950.09	3.0390	3.0390	-0.0999	26.25	0.57	-0.750			
0.8745	55969.20	3.0360	3.0360	-0.0991	26.25	0.57	-0.750			
0.8748	55988.20	3.0330	3.0330	-0.0983	26.25	0.57	-0.750			
0.8751	56006.79	3.0300	3.0300	-0.0979	26.26	0.58	-0.750			
0.8754	56025.34	3.0270	3.0270	-0.0972	26.26	0.58	-0.750			
0.8757	56044.06	3.0240	3.0240	-0.0967	26.26	0.58	-0.750			
0.8760	56062.55	3.0210	3.0210	-0.0962	26.26	0.58	-0.750			
0.8763	56081.09	3.0180	3.0180	-0.0955	26.26	0.58	-0.750			
0.8766	56099.51	3.0150	3.0151	-0.0951	26.26	0.58	-0.750			
0.8768	56117.69	3.0120	3.0120	-0.0943	26.27	0.59	-0.750			
0.8771	56135.96	3.0090	3.0090	-0.0931	26.27	0.59	-0.750			
0.8774	56153.69	3.0060	3.0060	-0.0917	26.27	0.59	-0.750			
0.8777	56171.20	3.0030	3.0030	-0.0916	26.27	0.59	-0.750			
