Ah_balance (normalized)	Ah_balance (mAh)	Voltage - fit (V)	Voltage -  interpolate (V)	dQ/dV (1/V)	Temperature (°C)	Temperature - diff (°C)	Current (C)	R_DC 0ms (mOhm)	R_DC 50ms (mOhm)	R_DC 50 ms PEC (mOhm)
0.1976	12648.11	3.9360	3.9358	-0.1208	25.44	-0.00	-0.750			
0.1981	12676.39	3.9330	3.9330	-0.1719	25.44	-0.00	-0.750			
0.1987	12715.01	3.9300	3.9299	-0.2207	25.44	-0.00	-0.750			
0.1994	12762.04	3.9270	3.9270	-0.2670	25.44	-0.00	-0.750			
0.2003	12818.12	3.9240	3.9240	-0.3106	25.44	-0.00	-0.750			
0.2013	12882.96	3.9210	3.9210	-0.3557	25.43	-0.01	-0.750			
0.2024	12955.66	3.9180	3.9180	-0.3964	25.43	-0.01	-0.750			
0.2037	13035.98	3.9150	3.9150	-0.4355	25.43	-0.01	-0.750			
0.2051	13123.85	3.9120	3.9120	-0.4743	25.43	-0.01	-0.750			
0.2066	13220.43	3.9090	3.9090	-0.5043	25.43	-0.01	-0.750			
0.2082	13321.74	3.9060	3.9060	-0.5339	25.42	-0.02	-0.750			
0.2098	13427.40	3.9030	3.9031	-0.5587	25.42	-0.02	-0.750			
0.2115	13537.71	3.9000	3.9000	-0.5806	25.42	-0.02	-0.750			
0.2133	13651.22	3.8970	3.8969	-0.6010	25.42	-0.02	-0.750			
0.2151	13768.83	3.8940	3.8940	-0.6141	25.42	-0.02	-0.750			
0.2170	13888.88	3.8910	3.8910	-0.6295	25.42	-0.02	-0.750			
0.2189	14012.07	3.8880	3.8880	-0.6411	25.42	-0.02	-0.750			
0.2209	14136.33	3.8850	3.8849	-0.6486	25.42	-0.02	-0.750			
0.2228	14261.60	3.8820	3.8821	-0.6553	25.42	-0.02	-0.750			
0.2248	14387.91	3.8790	3.8790	-0.6629	25.42	-0.02	-0.750			
0.2268	14515.74	3.8760	3.8760	-0.6702	25.42	-0.02	-0.750			
0.2288	14646.03	3.8730	3.8730	-0.6779	25.41	-0.03	-0.750			
0.2309	14777.06	3.8700	3.8700	-0.6804	25.41	-0.03	-0.750			
0.2329	14908.39	3.8670	3.8670	-0.6846	25.41	-0.03	-0.750			
0.2350	15040.63	3.8640	3.8641	-0.6868	25.41	-0.03	-0.750			
0.2371	15172.85	3.8610	3.8610	-0.6857	25.41	-0.03	-0.750			
0.2391	15303.68	3.8580	3.8580	-0.6882	25.41	-0.03	-0.750			
0.2412	15435.99	3.8550	3.8550	-0.6896	25.40	-0.04	-0.750			
0.2433	15568.70	3.8520	3.8520	-0.6908	25.40	-0.04	-0.750			
0.2453	15701.65	3.8490	3.8490	-0.6932	25.40	-0.04	-0.750			
0.2474	15835.35	3.8460	3.8462	-0.6918	25.40	-0.04	-0.750			
0.2495	15968.59	3.8430	3.8430	-0.6921	25.40	-0.04	-0.750			
0.2516	16101.23	3.8400	3.8400	-0.6934	25.40	-0.04	-0.750			
0.2536	16233.51	3.8370	3.8370	-0.6915	25.41	-0.03	-0.750			
0.2557	16366.25	3.8340	3.8339	-0.6934	25.41	-0.03	-0.750			
0.2578	16499.18	3.8310	3.8310	-0.6953	25.41	-0.03	-0.750			
0.2599	16633.17	3.8280	3.8280	-0.6962	25.41	-0.03	-0.750			
0.2620	16767.54	3.8250	3.8249	-0.6987	25.41	-0.03	-0.750			
0.2641	16901.89	3.8220	3.8220	-0.6979	25.41	-0.03	-0.750			
0.2662	17036.10	3.8190	3.8190	-0.6962	25.42	-0.02	-0.750			
0.2683	17170.30	3.8160	3.8159	-0.6957	25.42	-0.02	-0.750			
0.2704	17303.11	3.8130	3.8130	-0.6938	25.42	-0.02	-0.750			
0.2724	17435.58	3.8100	3.8101	-0.6905	25.42	-0.02	-0.750			
0.2745	17567.68	3.8070	3.8070	-0.6914	25.42	-0.02	-0.750			
0.2766	17700.37	3.8040	3.8040	-0.6923	25.42	-0.02	-0.750			
0.2787	17833.77	3.8010	3.8010	-0.6942	25.41	-0.03	-0.750			
0.2807	17967.23	3.7980	3.7979	-0.6958	25.41	-0.03	-0.750			
0.2828	18101.11	3.7950	3.7950	-0.6954	25.41	-0.03	-0.750			
0.2849	18234.58	3.7920	3.7919	-0.6958	25.41	-0.03	-0.750			
0.2870	18368.52	3.7890	3.7890	-0.6975	25.41	-0.03	-0.750			
0.2891	18501.98	3.7860	3.7860	-0.6946	25.41	-0.03	-0.750			
0.2912	18634.99	3.7830	3.7830	-0.7014	25.42	-0.02	-0.750			
0.2933	18770.52	3.7800	3.7800	-0.7041	25.42	-0.02	-0.750			
0.2954	18906.77	3.7770	3.7769	-0.7041	25.42	-0.02	-0.750			
0.2975	19041.68	3.7740	3.7742	-0.7082	25.42	-0.02	-0.750			
0.2997	19177.94	3.7710	3.7710	-0.7106	25.42	-0.02	-0.750			
0.3018	19314.24	3.7680	3.7680	-0.7139	25.42	-0.02	-0.750			
0.3039	19451.36	3.7650	3.7650	-0.7165	25.42	-0.02	-0.750			
0.3061	19588.44	3.7620	3.7620	-0.7231	25.42	-0.02	-0.750			
0.3083	19728.46	3.7590	3.7589	-0.7268	25.42	-0.02	-0.750			
0.3105	19869.62	3.7560	3.7560	-0.7314	25.42	-0.02	-0.750			
0.3126	20009.07	3.7530	3.7530	-0.7330	25.42	-0.02	-0.750			
0.3148	20150.00	3.7500	3.7500	-0.7421	25.42	-0.02	-0.750			
0.3171	20293.69	3.7470	3.7470	-0.7463	25.42	-0.02	-0.750			
0.3193	20437.10	3.7440	3.7439	-0.7515	25.42	-0.02	-0.750			
0.3216	20581.52	3.7410	3.7410	-0.7570	25.42	-0.02	-0.750			
0.3239	20728.06	3.7380	3.7380	-0.7660	25.42	-0.02	-0.750			
0.3262	20875.06	3.7350	3.7349	-0.7726	25.42	-0.02	-0.750			
0.3285	21024.24	3.7320	3.7320	-0.7753	25.42	-0.02	-0.750			
0.3308	21172.79	3.7290	3.7290	-0.7793	25.42	-0.02	-0.750			
0.3332	21324.70	3.7260	3.7260	-0.7925	25.42	-0.02	-0.750			
0.3356	21476.59	3.7230	3.7231	-0.7989	25.42	-0.02	-0.750			
0.3380	21629.36	3.7200	3.7199	-0.8096	25.42	-0.02	-0.750			
0.3404	21785.48	3.7170	3.7170	-0.8238	25.42	-0.02	-0.750			
0.3429	21945.60	3.7140	3.7139	-0.8352	25.41	-0.03	-0.750			
0.3455	22109.30	3.7110	3.7110	-0.8444	25.41	-0.03	-0.750			
0.3480	22271.85	3.7080	3.7081	-0.8555	25.41	-0.03	-0.750			
0.3506	22436.04	3.7050	3.7051	-0.8656	25.41	-0.03	-0.750			
0.3532	22603.05	3.7020	3.7019	-0.8804	25.41	-0.03	-0.750			
0.3558	22771.49	3.6990	3.6990	-0.8914	25.40	-0.04	-0.750			
0.3585	22944.02	3.6960	3.6960	-0.9079	25.40	-0.04	-0.750			
0.3613	23120.25	3.6930	3.6931	-0.9267	25.40	-0.04	-0.750			
0.3641	23300.62	3.6900	3.6900	-0.9530	25.40	-0.04	-0.750			
0.3669	23484.68	3.6870	3.6869	-0.9700	25.39	-0.05	-0.750			
0.3699	23672.83	3.6840	3.6840	-0.9888	25.39	-0.05	-0.750			
0.3729	23865.10	3.6810	3.6811	-1.0080	25.39	-0.05	-0.750			
0.3760	24061.93	3.6780	3.6780	-1.0288	25.39	-0.05	-0.750			
0.3791	24260.12	3.6750	3.6750	-1.0500	25.38	-0.06	-0.750			
0.3822	24462.56	3.6720	3.6720	-1.0656	25.38	-0.06	-0.750			
0.3854	24668.08	3.6690	3.6690	-1.0916	25.38	-0.06	-0.750			
0.3887	24879.63	3.6660	3.6661	-1.1182	25.38	-0.06	-0.750			
0.3921	25097.05	3.6630	3.6630	-1.1440	25.37	-0.07	-0.750			
0.3956	25319.06	3.6600	3.6600	-1.1698	25.37	-0.07	-0.750			
0.3992	25546.52	3.6570	3.6569	-1.1931	25.37	-0.07	-0.750			
0.4028	25778.00	3.6540	3.6541	-1.2182	25.37	-0.07	-0.750			
0.4065	26015.46	3.6510	3.6510	-1.2477	25.36	-0.08	-0.750			
0.4102	26255.22	3.6480	3.6481	-1.2734	25.36	-0.08	-0.750			
0.4141	26502.67	3.6450	3.6450	-1.3050	25.36	-0.08	-0.750			
0.4181	26755.81	3.6420	3.6419	-1.3324	25.35	-0.09	-0.750			
0.4221	27014.62	3.6390	3.6390	-1.3643	25.35	-0.09	-0.750			
0.4263	27281.39	3.6360	3.6360	-1.3937	25.35	-0.09	-0.750			
0.4305	27549.15	3.6330	3.6330	-1.4268	25.34	-0.10	-0.750			
0.4348	27824.97	3.6300	3.6301	-1.4647	25.34	-0.10	-0.750			
0.4392	28111.63	3.6270	3.6269	-1.5018	25.34	-0.10	-0.750			
0.4438	28403.91	3.6240	3.6239	-1.5391	25.34	-0.10	-0.750			
0.4485	28703.03	3.6210	3.6211	-1.5757	25.34	-0.10	-0.750			
0.4533	29011.99	3.6180	3.6182	-1.6049	25.34	-0.10	-0.750			
0.4582	29322.06	3.6150	3.6150	-1.6298	25.33	-0.11	-0.750			
0.4630	29634.21	3.6120	3.6119	-1.6510	25.33	-0.11	-0.750			
0.4680	29954.36	3.6090	3.6089	-1.6801	25.33	-0.11	-0.750			
0.4731	30281.07	3.6060	3.6061	-1.7183	25.33	-0.11	-0.750			
0.4783	30612.83	3.6030	3.6030	-1.7397	25.33	-0.11	-0.750			
0.4836	30949.36	3.6000	3.6000	-1.7613	25.32	-0.12	-0.750			
0.4890	31294.57	3.5970	3.5970	-1.7882	25.32	-0.12	-0.750			
0.4943	31635.71	3.5940	3.5940	-1.8225	25.33	-0.11	-0.750			
0.4998	31987.88	3.5910	3.5911	-1.8566	25.33	-0.11	-0.750			
0.5054	32347.10	3.5880	3.5879	-1.8857	25.33	-0.11	-0.750			
0.5111	32711.60	3.5850	3.5851	-1.9284	25.33	-0.11	-0.750			
0.5170	33088.77	3.5820	3.5820	-1.9574	25.33	-0.11	-0.750			
0.5230	33471.52	3.5790	3.5789	-1.9858	25.33	-0.11	-0.750			
0.5289	33851.47	3.5760	3.5761	-2.0009	25.34	-0.10	-0.750			
0.5350	34240.80	3.5730	3.5729	-2.0193	25.34	-0.10	-0.750	0.385	0.551	
0.5411	34628.47	3.5700	3.5700	-2.0440	25.34	-0.10	-0.750			
0.5472	35021.92	3.5670	3.5671	-2.0517	25.34	-0.10	-0.750			
0.5535	35421.14	3.5640	3.5639	-2.0721	25.34	-0.10	-0.750			
0.5597	35819.29	3.5610	3.5610	-2.0870	25.34	-0.10	-0.750			
0.5659	36219.81	3.5580	3.5580	-2.0966	25.35	-0.09	-0.750			
0.5723	36625.85	3.5550	3.5550	-2.0976	25.36	-0.08	-0.750			
0.5786	37030.16	3.5520	3.5520	-2.0983	25.36	-0.08	-0.750			
0.5849	37433.35	3.5490	3.5490	-2.0979	25.36	-0.08	-0.750			
0.5912	37835.88	3.5460	3.5459	-2.0874	25.37	-0.07	-0.750			
0.5974	38234.31	3.5430	3.5430	-2.0805	25.37	-0.07	-0.750			
0.6037	38635.50	3.5400	3.5401	-2.0666	25.37	-0.07	-0.750			
0.6099	39033.04	3.5370	3.5369	-2.0481	25.37	-0.07	-0.750			
0.6160	39424.51	3.5340	3.5340	-2.0160	25.38	-0.06	-0.750			
0.6220	39806.34	3.5310	3.5310	-1.9710	25.39	-0.05	-0.750			
0.6279	40185.60	3.5280	3.5280	-1.9391	25.39	-0.05	-0.750			
0.6336	40552.06	3.5250	3.5250	-1.8953	25.40	-0.04	-0.750			
0.6393	40912.56	3.5220	3.5220	-1.8557	25.41	-0.03	-0.750			
0.6447	41262.62	3.5190	3.5189	-1.8163	25.42	-0.02	-0.750			
0.6501	41607.42	3.5160	3.5162	-1.7770	25.43	-0.01	-0.750			
0.6554	41946.14	3.5130	3.5129	-1.7296	25.44	-0.00	-0.750			
0.6606	42275.60	3.5100	3.5100	-1.6818	25.45	0.01	-0.750			
0.6655	42593.54	3.5070	3.5069	-1.6285	25.46	0.02	-0.750			
0.6703	42902.03	3.5040	3.5041	-1.5902	25.47	0.03	-0.750			
0.6750	43200.51	3.5010	3.5010	-1.5384	25.48	0.04	-0.750			
0.6795	43490.67	3.4980	3.4980	-1.4933	25.49	0.05	-0.750			
0.6839	43772.02	3.4950	3.4951	-1.4504	25.50	0.06	-0.750			
0.6883	44050.31	3.4920	3.4920	-1.4118	25.51	0.07	-0.750			
0.6924	44316.34	3.4890	3.4890	-1.3718	25.51	0.07	-0.750			
0.6965	44575.50	3.4860	3.4861	-1.3313	25.52	0.08	-0.750			
0.7004	44825.47	3.4830	3.4830	-1.2927	25.53	0.09	-0.750			
0.7042	45070.27	3.4800	3.4800	-1.2580	25.54	0.10	-0.750			
0.7079	45308.16	3.4770	3.4770	-1.2226	25.55	0.11	-0.750			
0.7115	45537.82	3.4740	3.4740	-1.1915	25.57	0.13	-0.750			
0.7151	45764.77	3.4710	3.4711	-1.1681	25.58	0.14	-0.750			
0.7185	45984.55	3.4680	3.4680	-1.1445	25.59	0.15	-0.750			
0.7219	46201.34	3.4650	3.4650	-1.1241	25.60	0.16	-0.750			
0.7252	46414.60	3.4620	3.4620	-1.1140	25.60	0.16	-0.750			
0.7285	46626.67	3.4590	3.4590	-1.1033	25.61	0.17	-0.750			
0.7318	46837.87	3.4560	3.4559	-1.0943	25.62	0.18	-0.750			
0.7351	47045.54	3.4530	3.4531	-1.0865	25.62	0.18	-0.750			
0.7383	47253.46	3.4500	3.4500	-1.0807	25.63	0.19	-0.750			
0.7416	47460.96	3.4470	3.4470	-1.0734	25.64	0.20	-0.750			
0.7448	47666.36	3.4440	3.4439	-1.0659	25.65	0.21	-0.750			
0.7480	47869.73	3.4410	3.4411	-1.0615	25.66	0.22	-0.750			
0.7511	48073.35	3.4380	3.4380	-1.0562	25.67	0.23	-0.750			
0.7543	48275.68	3.4350	3.4350	-1.0523	25.67	0.23	-0.750			
0.7575	48478.49	3.4320	3.4320	-1.0386	25.68	0.24	-0.750			
0.7606	48678.00	3.4290	3.4291	-1.0235	25.68	0.24	-0.750			
0.7637	48873.62	3.4260	3.4260	-1.0128	25.69	0.25	-0.750			
0.7667	49067.30	3.4230	3.4230	-0.9956	25.70	0.26	-0.750			
0.7696	49256.03	3.4200	3.4199	-0.9779	25.70	0.26	-0.750			
0.7725	49441.13	3.4170	3.4172	-0.9644	25.71	0.27	-0.750			
0.7754	49624.38	3.4140	3.4140	-0.9512	25.71	0.27	-0.750			
0.7783	49808.27	3.4110	3.4109	-0.9379	25.72	0.28	-0.750			
0.7810	49986.17	3.4080	3.4080	-0.9174	25.72	0.28	-0.750			
0.7838	50161.50	3.4050	3.4050	-0.8988	25.73	0.29	-0.750			
0.7864	50332.63	3.4020	3.4020	-0.8758	25.73	0.29	-0.750			
0.7890	50498.50	3.3990	3.3990	-0.8552	25.74	0.30	-0.750			
0.7916	50660.30	3.3960	3.3960	-0.8316	25.75	0.31	-0.750			
0.7941	50819.43	3.3930	3.3929	-0.8032	25.75	0.31	-0.750			
0.7964	50971.87	3.3900	3.3901	-0.7742	25.76	0.32	-0.750			
0.7987	51118.39	3.3870	3.3870	-0.7449	25.76	0.32	-0.750			
0.8009	51257.68	3.3840	3.3840	-0.7149	25.77	0.33	-0.750			
0.8030	51391.19	3.3810	3.3810	-0.6846	25.78	0.34	-0.750			
0.8050	51519.02	3.3780	3.3780	-0.6534	25.78	0.34	-0.750			
0.8069	51642.66	3.3750	3.3749	-0.6272	25.79	0.35	-0.750			
0.8088	51761.15	3.3720	3.3720	-0.6009	25.80	0.36	-0.750			
0.8105	51873.30	3.3690	3.3691	-0.5717	25.80	0.36	-0.750			
0.8122	51979.42	3.3660	3.3659	-0.5432	25.81	0.37	-0.750			
0.8138	52080.31	3.3630	3.3630	-0.5136	25.81	0.37	-0.750			
0.8153	52176.50	3.3600	3.3601	-0.4897	25.82	0.38	-0.750			
0.8167	52267.88	3.3570	3.3569	-0.4669	25.82	0.38	-0.750			
0.8180	52354.46	3.3540	3.3542	-0.4462	25.83	0.39	-0.750			
0.8193	52437.97	3.3510	3.3509	-0.4271	25.83	0.39	-0.750			
0.8206	52517.46	3.3480	3.3480	-0.4109	25.83	0.39	-0.750			
0.8218	52595.38	3.3450	3.3450	-0.3936	25.84	0.40	-0.750			
0.8230	52669.17	3.3420	3.3420	-0.3795	25.84	0.40	-0.750			
0.8241	52740.19	3.3390	3.3390	-0.3643	25.85	0.41	-0.750			
0.8251	52808.25	3.3360	3.3359	-0.3484	25.85	0.41	-0.750			
0.8261	52873.41	3.3330	3.3330	-0.3355	25.86	0.42	-0.750			
0.8271	52936.70	3.3300	3.3300	-0.3239	25.86	0.42	-0.750			
0.8281	52997.00	3.3270	3.3270	-0.3133	25.87	0.43	-0.750			
0.8290	53056.68	3.3240	3.3240	-0.3040	25.87	0.43	-0.750			
0.8299	53113.28	3.3210	3.3210	-0.2940	25.88	0.44	-0.750			
0.8308	53169.24	3.3180	3.3180	-0.2861	25.88	0.44	-0.750			
0.8316	53223.54	3.3150	3.3150	-0.2777	25.88	0.44	-0.750			
0.8324	53275.60	3.3120	3.3121	-0.2699	25.89	0.45	-0.750			
0.8332	53326.68	3.3090	3.3090	-0.2622	25.89	0.45	-0.750			
0.8340	53376.00	3.3060	3.3060	-0.2555	25.90	0.46	-0.750			
0.8348	53424.44	3.3030	3.3030	-0.2493	25.90	0.46	-0.750			
0.8355	53471.39	3.3000	3.3000	-0.2429	25.90	0.46	-0.750			
0.8362	53517.65	3.2970	3.2970	-0.2378	25.91	0.47	-0.750			
0.8369	53562.55	3.2940	3.2940	-0.2330	25.91	0.47	-0.750			
0.8376	53606.43	3.2910	3.2910	-0.2280	25.92	0.48	-0.750			
0.8383	53649.84	3.2880	3.2880	-0.2241	25.92	0.48	-0.750			
0.8389	53692.50	3.2850	3.2850	-0.2195	25.93	0.49	-0.750			
0.8396	53734.11	3.2820	3.2820	-0.2154	25.93	0.49	-0.750			
0.8402	53775.21	3.2790	3.2790	-0.2120	25.94	0.50	-0.750			
0.8409	53815.53	3.2760	3.2760	-0.2080	25.94	0.50	-0.750			
0.8415	53855.11	3.2730	3.2730	-0.2036	25.94	0.50	-0.750			
0.8421	53893.63	3.2700	3.2700	-0.1996	25.95	0.51	-0.750			
0.8427	53931.21	3.2670	3.2670	-0.1966	25.95	0.51	-0.750			
0.8433	53968.70	3.2640	3.2640	-0.1939	25.95	0.51	-0.750			
0.8438	54005.72	3.2610	3.2610	-0.1906	25.96	0.52	-0.750			
0.8444	54041.74	3.2580	3.2580	-0.1880	25.96	0.52	-0.750			
0.8450	54077.46	3.2550	3.2551	-0.1858	25.97	0.53	-0.750			
0.8455	54112.95	3.2520	3.2520	-0.1839	25.97	0.53	-0.750			
0.8461	54148.35	3.2490	3.2489	-0.1813	25.97	0.53	-0.750			
0.8466	54182.91	3.2460	3.2460	-0.1788	25.98	0.54	-0.750			
0.8471	54216.73	3.2430	3.2431	-0.1762	25.98	0.54	-0.750			
0.8477	54250.37	3.2400	3.2401	-0.1742	25.98	0.54	-0.750			
0.8482	54283.79	3.2370	3.2370	-0.1724	25.99	0.55	-0.750			
0.8487	54316.52	3.2340	3.2340	-0.1698	25.99	0.55	-0.750			
0.8492	54348.76	3.2310	3.2310	-0.1678	26.00	0.56	-0.750			
0.8497	54380.83	3.2280	3.2281	-0.1662	26.00	0.56	-0.750			
0.8502	54412.70	3.2250	3.2250	-0.1648	26.00	0.56	-0.750			
0.8507	54444.28	3.2220	3.2219	-0.1625	26.01	0.57	-0.750			
0.8512	54475.21	3.2190	3.2190	-0.1604	26.01	0.57	-0.750			
0.8517	54505.82	3.2160	3.2160	-0.1584	26.02	0.58	-0.750			
0.8521	54535.94	3.2130	3.2131	-0.1572	26.02	0.58	-0.750			
0.8526	54566.04	3.2100	3.2099	-0.1557	26.02	0.58	-0.750			
0.8531	54595.69	3.2070	3.2070	-0.1535	26.03	0.59	-0.750			
0.8535	54625.03	3.2040	3.2039	-0.1521	26.03	0.59	-0.750			
0.8540	54654.10	3.2010	3.2011	-0.1507	26.03	0.59	-0.750			
0.8544	54683.03	3.1980	3.1980	-0.1497	26.04	0.60	-0.750			
0.8549	54711.42	3.1950	3.1950	-0.1481	26.04	0.60	-0.750			
0.8553	54739.74	3.1920	3.1920	-0.1469	26.05	0.61	-0.750			
0.8557	54767.59	3.1890	3.1890	-0.1456	26.05	0.61	-0.750			
0.8562	54795.57	3.1860	3.1861	-0.1449	26.05	0.61	-0.750			
0.8566	54823.37	3.1830	3.1830	-0.1441	26.06	0.62	-0.750			
0.8570	54851.00	3.1800	3.1800	-0.1427	26.06	0.62	-0.750			
0.8575	54878.34	3.1770	3.1770	-0.1413	26.06	0.62	-0.750			
0.8579	54905.19	3.1740	3.1740	-0.1402	26.07	0.63	-0.750			
0.8583	54932.01	3.1710	3.1710	-0.1391	26.07	0.63	-0.750			
0.8587	54958.59	3.1680	3.1680	-0.1377	26.07	0.63	-0.750			
0.8591	54985.00	3.1650	3.1649	-0.1362	26.08	0.64	-0.750			
0.8595	55011.05	3.1620	3.1620	-0.1348	26.08	0.64	-0.750			
0.8599	55036.77	3.1590	3.1591	-0.1335	26.08	0.64	-0.750			
0.8603	55062.24	3.1560	3.1560	-0.1327	26.09	0.65	-0.750			
0.8607	55087.55	3.1530	3.1529	-0.1315	26.09	0.65	-0.750			
0.8611	55112.47	3.1500	3.1501	-0.1298	26.09	0.65	-0.750			
0.8615	55137.40	3.1470	3.1470	-0.1290	26.10	0.66	-0.750			
0.8619	55162.17	3.1440	3.1439	-0.1283	26.10	0.66	-0.750			
0.8623	55186.80	3.1410	3.1411	-0.1277	26.11	0.67	-0.750			
0.8627	55211.21	3.1380	3.1380	-0.1266	26.11	0.67	-0.750			
0.8631	55235.33	3.1350	3.1350	-0.1257	26.11	0.67	-0.750			
0.8634	55259.38	3.1320	3.1320	-0.1248	26.12	0.68	-0.750			
0.8638	55283.08	3.1290	3.1291	-0.1240	26.12	0.68	-0.750			
0.8642	55307.01	3.1260	3.1259	-0.1233	26.12	0.68	-0.750			
0.8645	55330.60	3.1230	3.1229	-0.1225	26.13	0.69	-0.750			
0.8649	55354.15	3.1200	3.1201	-0.1214	26.13	0.69	-0.750			
0.8653	55377.35	3.1170	3.1170	-0.1202	26.14	0.70	-0.750			
0.8656	55400.28	3.1140	3.1141	-0.1195	26.14	0.70	-0.750			
0.8660	55423.06	3.1110	3.1110	-0.1184	26.14	0.70	-0.750			
0.8663	55445.73	3.1080	3.1080	-0.1174	26.15	0.71	-0.750			
0.8667	55468.08	3.1050	3.1050	-0.1163	26.15	0.71	-0.750			
0.8670	55490.34	3.1020	3.1020	-0.1156	26.15	0.71	-0.750			
0.8674	55512.46	3.0990	3.0991	-0.1149	26.16	0.72	-0.750			
0.8677	55534.46	3.0960	3.0961	-0.1141	26.16	0.72	-0.750			
0.8681	55556.38	3.0930	3.0929	-0.1135	26.16	0.72	-0.750			
0.8684	55578.09	3.0900	3.0900	-0.1126	26.17	0.73	-0.750			
0.8687	55599.48	3.0870	3.0870	-0.1118	26.17	0.73	-0.750			
0.8691	55620.88	3.0840	3.0841	-0.1112	26.17	0.73	-0.750			
0.8694	55642.31	3.0810	3.0809	-0.1105	26.18	0.74	-0.750			
0.8697	55663.43	3.0780	3.0780	-0.1096	26.18	0.74	-0.750			
0.8701	55684.37	3.0750	3.0750	-0.1087	26.18	0.74	-0.750			
0.8704	55705.17	3.0720	3.0720	-0.1079	26.19	0.75	-0.750			
0.8707	55725.78	3.0690	3.0690	-0.1071	26.19	0.75	-0.750			
0.8710	55746.27	3.0660	3.0659	-0.1064	26.19	0.75	-0.750			
0.8714	55766.52	3.0630	3.0630	-0.1057	26.19	0.75	-0.750			
0.8717	55786.81	3.0600	3.0600	-0.1050	26.20	0.76	-0.750			
0.8720	55806.94	3.0570	3.0570	-0.1045	26.20	0.76	-0.750			
0.8723	55826.94	3.0540	3.0540	-0.1038	26.20	0.76	-0.750			
0.8726	55846.82	3.0510	3.0510	-0.1032	26.20	0.76	-0.750			
0.8729	55866.56	3.0480	3.0480	-0.1025	26.21	0.77	-0.750			
0.8732	55886.18	3.0450	3.0450	-0.1019	26.21	0.77	-0.750			
0.8735	55905.67	3.0420	3.0419	-0.1013	26.21	0.77	-0.750			
0.8738	55925.01	3.0390	3.0390	-0.1006	26.21	0.77	-0.750			
0.8741	55944.23	3.0360	3.0360	-0.1002	26.21	0.77	-0.750			
0.8744	55963.40	3.0330	3.0331	-0.0997	26.22	0.78	-0.750			
0.8747	55982.66	3.0300	3.0299	-0.0989	26.22	0.78	-0.750			
0.8750	56001.65	3.0270	3.0270	-0.0983	26.22	0.78	-0.750			
0.8753	56020.48	3.0240	3.0239	-0.0975	26.22	0.78	-0.750			
0.8756	56039.21	3.0210	3.0210	-0.0968	26.23	0.79	-0.750			
0.8759	56057.59	3.0180	3.0181	-0.0961	26.23	0.79	-0.750			
0.8762	56075.93	3.0150	3.0149	-0.0952	26.23	0.79	-0.750			
0.8765	56094.14	3.0120	3.0121	-0.0945	26.23	0.79	-0.750			
0.8767	56111.94	3.0090	3.0090	-0.0939	26.24	0.80	-0.750			
0.8770	56129.97	3.0060	3.0061	-0.0939	26.24	0.80	-0.750			
0.8773	56147.99	3.0030	3.0030	-0.0937	26.24	0.80	-0.750			
