Ah_balance (normalized)	Ah_balance (mAh)	Voltage - fit (V)	Voltage -  interpolate (V)	dQ/dV (1/V)	Temperature (°C)	Temperature - diff (°C)	Current (C)	R_DC 0ms (mOhm)	R_DC 50ms (mOhm)	R_DC 50 ms PEC (mOhm)
0.0548	3508.82	4.1980	4.1989	3.3234	26.00	0.61	0.611			
0.0617	3949.95	4.1950	4.1970	1.3505	25.99	0.60	0.749			
0.0653	4176.88	4.1920	4.1926	1.1555	25.98	0.59	0.750			
0.0682	4362.46	4.1890	4.1888	0.9845	25.98	0.59	0.750			
0.0705	4512.02	4.1860	4.1860	0.8047	25.98	0.59	0.750			
0.0729	4667.59	4.1830	4.1830	0.8049	25.97	0.58	0.750			
0.0754	4822.41	4.1800	4.1800	0.8127	25.97	0.58	0.750			
0.0778	4977.47	4.1770	4.1771	0.8156	25.96	0.57	0.750			
0.0802	5135.15	4.1740	4.1738	0.8181	25.96	0.57	0.750			
0.0827	5292.77	4.1710	4.1711	0.8202	25.96	0.57	0.750			
0.0852	5451.52	4.1680	4.1681	0.8197	25.96	0.57	0.750			
0.0877	5610.25	4.1650	4.1650	0.8218	25.96	0.57	0.750			
0.0901	5766.67	4.1620	4.1621	0.8166	25.96	0.57	0.750			
0.0925	5922.90	4.1590	4.1589	0.8150	25.96	0.57	0.750			
0.0950	6079.70	4.1560	4.1560	0.8129	25.96	0.57	0.750			
0.0974	6236.18	4.1530	4.1530	0.8151	25.96	0.57	0.750			
0.0999	6392.48	4.1500	4.1500	0.8142	25.96	0.57	0.750			
0.1023	6547.66	4.1470	4.1471	0.8151	25.96	0.57	0.750			
0.1048	6704.88	4.1440	4.1439	0.8163	25.96	0.57	0.750			
0.1072	6861.89	4.1410	4.1410	0.8165	25.96	0.57	0.750			
0.1097	7019.14	4.1380	4.1381	0.8201	25.96	0.57	0.750			
0.1121	7177.12	4.1350	4.1350	0.8224	25.95	0.56	0.750			
0.1146	7334.14	4.1320	4.1320	0.8229	25.95	0.56	0.750			
0.1171	7491.81	4.1290	4.1290	0.8261	25.95	0.56	0.750			
0.1195	7650.84	4.1260	4.1260	0.8253	25.95	0.56	0.750			
0.1221	7812.04	4.1230	4.1230	0.8246	25.95	0.56	0.750			
0.1245	7969.72	4.1200	4.1200	0.8248	25.94	0.55	0.750			
0.1270	8126.48	4.1170	4.1171	0.8271	25.94	0.55	0.750			
0.1295	8284.92	4.1140	4.1139	0.8293	25.94	0.55	0.750			
0.1319	8444.17	4.1110	4.1110	0.8307	25.94	0.55	0.750			
0.1344	8603.78	4.1080	4.1080	0.8328	25.94	0.55	0.750			
0.1370	8765.13	4.1050	4.1051	0.8359	25.94	0.55	0.750			
0.1395	8927.49	4.1020	4.1019	0.8367	25.94	0.55	0.750			
0.1420	9086.87	4.0990	4.0990	0.8340	25.94	0.55	0.750			
0.1445	9246.95	4.0960	4.0960	0.8314	25.94	0.55	0.750			
0.1470	9407.47	4.0930	4.0930	0.8268	25.93	0.54	0.750			
0.1495	9565.53	4.0900	4.0900	0.8293	25.93	0.54	0.750			
0.1519	9723.27	4.0870	4.0870	0.8315	25.93	0.54	0.750			
0.1544	9881.79	4.0840	4.0840	0.8363	25.92	0.53	0.750			
0.1569	10043.20	4.0810	4.0811	0.8413	25.92	0.53	0.750			
0.1595	10206.51	4.0780	4.0780	0.8418	25.92	0.53	0.750			
0.1620	10369.17	4.0750	4.0750	0.8447	25.92	0.53	0.750			
0.1646	10532.47	4.0720	4.0721	0.8456	25.92	0.53	0.750			
0.1671	10693.66	4.0690	4.0690	0.8423	25.92	0.53	0.750			
0.1696	10854.50	4.0660	4.0660	0.8440	25.92	0.53	0.750			
0.1721	11015.49	4.0630	4.0630	0.8419	25.91	0.52	0.750			
0.1747	11178.07	4.0600	4.0600	0.8455	25.91	0.52	0.750			
0.1772	11340.68	4.0570	4.0570	0.8491	25.91	0.52	0.750			
0.1798	11504.30	4.0540	4.0540	0.8487	25.90	0.51	0.750			
0.1823	11667.43	4.0510	4.0510	0.8536	25.90	0.51	0.750			
0.1849	11832.24	4.0480	4.0480	0.8521	25.90	0.51	0.750			
0.1874	11995.22	4.0450	4.0450	0.8531	25.90	0.51	0.750			
0.1900	12159.17	4.0420	4.0420	0.8535	25.90	0.51	0.750			
0.1926	12323.60	4.0390	4.0389	0.8555	25.90	0.51	0.750			
0.1951	12487.80	4.0360	4.0361	0.8552	25.90	0.51	0.750			
0.1977	12652.82	4.0330	4.0330	0.8594	25.90	0.51	0.750			
0.2003	12816.88	4.0300	4.0300	0.8600	25.90	0.51	0.750			
0.2029	12982.46	4.0270	4.0270	0.8620	25.90	0.51	0.750			
0.2054	13148.16	4.0240	4.0239	0.8650	25.90	0.51	0.750			
0.2081	13315.42	4.0210	4.0210	0.8683	25.90	0.51	0.750			
0.2107	13482.58	4.0180	4.0180	0.8711	25.89	0.50	0.750			
0.2133	13650.38	4.0150	4.0150	0.8728	25.89	0.50	0.750			
0.2159	13817.69	4.0120	4.0120	0.8733	25.88	0.49	0.750			
0.2185	13985.20	4.0090	4.0090	0.8750	25.88	0.49	0.750			
0.2212	14153.62	4.0060	4.0060	0.8754	25.88	0.49	0.750			
0.2238	14320.48	4.0030	4.0031	0.8812	25.88	0.49	0.750			
0.2264	14489.90	4.0000	4.0000	0.8861	25.88	0.49	0.750			
0.2291	14661.11	3.9970	3.9970	0.8890	25.88	0.49	0.750			
0.2318	14833.25	3.9940	3.9940	0.8910	25.88	0.49	0.750			
0.2344	15004.36	3.9910	3.9911	0.8922	25.88	0.49	0.750			
0.2371	15175.85	3.9880	3.9880	0.8929	25.88	0.49	0.750			
0.2398	15346.79	3.9850	3.9851	0.8971	25.88	0.49	0.750			
0.2425	15517.79	3.9820	3.9819	0.8993	25.88	0.49	0.750			
0.2452	15692.61	3.9790	3.9790	0.8986	25.88	0.49	0.750			
0.2479	15865.89	3.9760	3.9760	0.8995	25.87	0.48	0.750			
0.2506	16038.79	3.9730	3.9731	0.9037	25.87	0.48	0.750			
0.2533	16211.21	3.9700	3.9700	0.9059	25.86	0.47	0.750			
0.2560	16383.21	3.9670	3.9669	0.9104	25.86	0.47	0.750			
0.2588	16560.00	3.9640	3.9640	0.9056	25.86	0.47	0.750			
0.2615	16734.36	3.9610	3.9610	0.9136	25.86	0.47	0.750			
0.2642	16910.77	3.9580	3.9581	0.9212	25.86	0.47	0.750			
0.2670	17087.87	3.9550	3.9550	0.9212	25.86	0.47	0.750			
0.2698	17264.83	3.9520	3.9520	0.9223	25.86	0.47	0.750			
0.2725	17441.35	3.9490	3.9491	0.9226	25.86	0.47	0.750			
0.2753	17618.92	3.9460	3.9461	0.9280	25.85	0.46	0.750			
0.2781	17800.20	3.9430	3.9430	0.9353	25.85	0.46	0.750			
0.2809	17977.26	3.9400	3.9399	0.9298	25.85	0.46	0.750			
0.2837	18155.73	3.9370	3.9370	0.9322	25.85	0.46	0.750			
0.2865	18334.56	3.9340	3.9340	0.9403	25.85	0.46	0.750			
0.2893	18515.30	3.9310	3.9310	0.9451	25.84	0.45	0.750			
0.2922	18697.86	3.9280	3.9279	0.9500	25.84	0.45	0.750			
0.2950	18881.61	3.9250	3.9250	0.9509	25.84	0.45	0.750			
0.2979	19065.30	3.9220	3.9220	0.9576	25.84	0.45	0.750			
0.3008	19249.97	3.9190	3.9190	0.9604	25.83	0.44	0.750			
0.3037	19434.20	3.9160	3.9160	0.9596	25.83	0.44	0.750			
0.3065	19616.86	3.9130	3.9132	0.9598	25.83	0.44	0.750			
0.3094	19802.06	3.9100	3.9100	0.9659	25.83	0.44	0.750			
0.3123	19986.84	3.9070	3.9070	0.9721	25.82	0.43	0.750			
0.3152	20174.27	3.9040	3.9040	0.9779	25.82	0.43	0.750			
0.3182	20363.63	3.9010	3.9010	0.9841	25.82	0.43	0.750			
0.3212	20554.40	3.8980	3.8979	0.9783	25.82	0.43	0.750			
0.3241	20740.55	3.8950	3.8951	0.9843	25.82	0.43	0.750			
0.3270	20928.84	3.8920	3.8920	0.9865	25.82	0.43	0.750			
0.3300	21117.25	3.8890	3.8888	0.9909	25.82	0.43	0.750			
0.3329	21306.90	3.8860	3.8860	0.9925	25.81	0.42	0.750			
0.3359	21499.11	3.8830	3.8831	1.0027	25.81	0.42	0.750			
0.3390	21695.08	3.8800	3.8799	1.0135	25.80	0.41	0.750			
0.3420	21890.15	3.8770	3.8769	1.0130	25.79	0.40	0.750			
0.3451	22084.81	3.8740	3.8741	1.0143	25.79	0.40	0.750			
0.3481	22280.57	3.8710	3.8710	1.0201	25.79	0.40	0.750			
0.3512	22476.97	3.8680	3.8680	1.0211	25.78	0.39	0.750			
0.3543	22672.90	3.8650	3.8650	1.0246	25.78	0.39	0.750			
0.3573	22868.88	3.8620	3.8620	1.0235	25.78	0.39	0.750			
0.3604	23064.79	3.8590	3.8590	1.0329	25.77	0.38	0.750			
0.3635	23263.01	3.8560	3.8561	1.0442	25.76	0.37	0.750			
0.3666	23464.82	3.8530	3.8529	1.0510	25.75	0.36	0.750			
0.3698	23667.08	3.8500	3.8500	1.0589	25.74	0.35	0.750			
0.3730	23872.43	3.8470	3.8471	1.0688	25.73	0.34	0.750			
0.3762	24077.58	3.8440	3.8441	1.0798	25.72	0.33	0.750			
0.3795	24287.12	3.8410	3.8409	1.0877	25.70	0.31	0.750			
0.3827	24494.84	3.8380	3.8380	1.0900	25.69	0.30	0.750			
0.3860	24704.74	3.8350	3.8350	1.1017	25.68	0.29	0.750			
0.3894	24918.61	3.8320	3.8321	1.1147	25.67	0.28	0.750			
0.3927	25133.98	3.8290	3.8288	1.1165	25.66	0.27	0.750			
0.3961	25347.36	3.8260	3.8260	1.1297	25.65	0.26	0.750			
0.3994	25564.22	3.8230	3.8231	1.1420	25.63	0.24	0.750			
0.4029	25786.07	3.8200	3.8200	1.1543	25.62	0.23	0.750			
0.4064	26008.72	3.8170	3.8171	1.1543	25.61	0.22	0.750			
0.4099	26231.63	3.8140	3.8141	1.1634	25.59	0.20	0.750			
0.4134	26456.67	3.8110	3.8110	1.1712	25.57	0.18	0.750			
0.4169	26682.55	3.8080	3.8079	1.1748	25.55	0.16	0.750			
0.4204	26906.58	3.8050	3.8050	1.1750	25.54	0.15	0.750			
0.4240	27134.13	3.8020	3.8020	1.1725	25.52	0.13	0.750			
0.4275	27361.50	3.7990	3.7990	1.1641	25.50	0.11	0.750			
0.4311	27589.19	3.7960	3.7960	1.1419	25.49	0.10	0.750			
0.4345	27807.27	3.7930	3.7930	1.1099	25.47	0.08	0.750			
0.4378	28021.18	3.7900	3.7900	1.0660	25.46	0.07	0.750			
0.4410	28222.87	3.7870	3.7871	1.0104	25.45	0.06	0.750			
0.4440	28413.40	3.7840	3.7840	0.9465	25.44	0.05	0.750			
0.4467	28589.94	3.7810	3.7810	0.8763	25.42	0.03	0.750			
0.4493	28752.12	3.7780	3.7780	0.8021	25.41	0.02	0.750			
0.4515	28898.20	3.7750	3.7750	0.7270	25.41	0.02	0.750			
0.4536	29030.02	3.7720	3.7720	0.6525	25.40	0.01	0.750			
0.4554	29147.18	3.7690	3.7690	0.5878	25.39	0.00	0.750			
0.4571	29251.90	3.7660	3.7660	0.5257	25.38	-0.01	0.750			
0.4585	29345.37	3.7630	3.7629	0.4736	25.38	-0.01	0.750			
0.4598	29429.13	3.7600	3.7600	0.4241	25.37	-0.02	0.750			
0.4610	29504.73	3.7570	3.7570	0.3828	25.37	-0.02	0.750			
0.4621	29573.58	3.7540	3.7540	0.3468	25.36	-0.03	0.750			
0.4631	29635.70	3.7510	3.7510	0.3142	25.36	-0.03	0.750			
0.4639	29691.94	3.7480	3.7480	0.2846	25.36	-0.03	0.750			
0.4647	29743.10	3.7450	3.7450	0.2565	25.35	-0.04	0.750			
0.4655	29790.06	3.7420	3.7420	0.2300	25.35	-0.04	0.750			
0.4661	29832.27	3.7390	3.7389	0.2048	25.35	-0.04	0.750			
0.4667	29869.12	3.7360	3.7361	0.1779	25.34	-0.05	0.750			
0.4672	29900.74	3.7330	3.7332	0.1503	25.34	-0.05	0.750			
0.4676	29926.87	3.7300	3.7301	0.1198	25.34	-0.05	0.750			
