Ah_balance (normalized)	Ah_balance (mAh)	Voltage - fit (V)	Voltage -  interpolate (V)	dQ/dV (1/V)	Temperature (°C)	Temperature - diff (°C)	Current (C)	R_DC 0ms (mOhm)	R_DC 50ms (mOhm)	R_DC 50 ms PEC (mOhm)
0.1993	12757.02	3.9370	3.9369	-0.1066	25.62	0.00	-0.750			
0.1997	12782.47	3.9340	3.9339	-0.1569	25.62	0.00	-0.750			
0.2003	12817.69	3.9310	3.9310	-0.2055	25.62	0.00	-0.750			
0.2010	12862.27	3.9280	3.9279	-0.2512	25.62	0.00	-0.750			
0.2018	12914.68	3.9250	3.9250	-0.2966	25.62	0.00	-0.750			
0.2028	12976.31	3.9220	3.9221	-0.3388	25.62	0.00	-0.750			
0.2039	13046.47	3.9190	3.9190	-0.3813	25.62	0.00	-0.750			
0.2051	13124.92	3.9160	3.9159	-0.4190	25.62	0.00	-0.750			
0.2064	13209.31	3.9130	3.9130	-0.4550	25.62	0.00	-0.750			
0.2078	13300.77	3.9100	3.9100	-0.4899	25.62	0.00	-0.750			
0.2094	13398.41	3.9070	3.9070	-0.5206	25.62	0.00	-0.750			
0.2110	13501.73	3.9040	3.9039	-0.5473	25.62	0.00	-0.750			
0.2127	13610.54	3.9010	3.9011	-0.5724	25.62	0.00	-0.750			
0.2144	13724.27	3.8980	3.8980	-0.5925	25.62	0.00	-0.750			
0.2163	13840.51	3.8950	3.8950	-0.6089	25.62	0.00	-0.750			
0.2181	13959.50	3.8920	3.8921	-0.6209	25.62	0.00	-0.750			
0.2200	14080.09	3.8890	3.8890	-0.6303	25.62	0.00	-0.750			
0.2219	14202.85	3.8860	3.8860	-0.6399	25.62	0.00	-0.750			
0.2239	14326.53	3.8830	3.8830	-0.6471	25.62	0.00	-0.750			
0.2258	14450.66	3.8800	3.8800	-0.6549	25.62	0.00	-0.750			
0.2278	14578.40	3.8770	3.8770	-0.6625	25.62	0.00	-0.750			
0.2298	14706.06	3.8740	3.8740	-0.6661	25.62	0.00	-0.750			
0.2318	14834.95	3.8710	3.8710	-0.6717	25.62	0.00	-0.750			
0.2338	14964.54	3.8680	3.8680	-0.6734	25.62	0.00	-0.750			
0.2358	15093.83	3.8650	3.8650	-0.6786	25.62	0.00	-0.750			
0.2379	15224.43	3.8620	3.8620	-0.6798	25.62	0.00	-0.750			
0.2399	15355.34	3.8590	3.8590	-0.6802	25.62	0.00	-0.750			
0.2420	15486.95	3.8560	3.8559	-0.6847	25.62	0.00	-0.750			
0.2440	15618.46	3.8530	3.8531	-0.6854	25.62	0.00	-0.750			
0.2461	15750.03	3.8500	3.8500	-0.6865	25.62	0.00	-0.750			
0.2481	15881.42	3.8470	3.8470	-0.6899	25.62	0.00	-0.750			
0.2502	16013.75	3.8440	3.8440	-0.6876	25.63	0.01	-0.750			
0.2523	16147.04	3.8410	3.8410	-0.6906	25.63	0.01	-0.750			
0.2544	16280.22	3.8380	3.8380	-0.6914	25.63	0.01	-0.750			
0.2564	16412.29	3.8350	3.8351	-0.6893	25.63	0.01	-0.750			
0.2585	16545.17	3.8320	3.8320	-0.6894	25.63	0.01	-0.750			
0.2606	16676.69	3.8290	3.8290	-0.6902	25.63	0.01	-0.750			
0.2626	16808.23	3.8260	3.8260	-0.6898	25.63	0.01	-0.750			
0.2647	16942.11	3.8230	3.8230	-0.6915	25.63	0.01	-0.750			
0.2668	17074.93	3.8200	3.8199	-0.6924	25.63	0.01	-0.750			
0.2689	17207.88	3.8170	3.8171	-0.6919	25.63	0.01	-0.750			
0.2709	17340.55	3.8140	3.8140	-0.6912	25.63	0.01	-0.750			
0.2730	17472.79	3.8110	3.8110	-0.6914	25.64	0.02	-0.750			
0.2751	17606.35	3.8080	3.8079	-0.6915	25.64	0.02	-0.750			
0.2772	17738.23	3.8050	3.8050	-0.6931	25.64	0.02	-0.750			
0.2793	17872.13	3.8020	3.8019	-0.6917	25.65	0.03	-0.750			
0.2813	18004.90	3.7990	3.7991	-0.6906	25.65	0.03	-0.750			
0.2834	18137.84	3.7960	3.7960	-0.6900	25.65	0.03	-0.750			
0.2855	18269.35	3.7930	3.7930	-0.6919	25.65	0.03	-0.750			
0.2875	18402.07	3.7900	3.7900	-0.6928	25.66	0.04	-0.750			
0.2896	18534.75	3.7870	3.7870	-0.6945	25.66	0.04	-0.750			
0.2917	18667.77	3.7840	3.7840	-0.6967	25.66	0.04	-0.750			
0.2938	18802.80	3.7810	3.7810	-0.7021	25.66	0.04	-0.750			
0.2959	18937.24	3.7780	3.7780	-0.7055	25.66	0.04	-0.750			
0.2980	19072.68	3.7750	3.7750	-0.7103	25.66	0.04	-0.750			
0.3002	19210.20	3.7720	3.7720	-0.7111	25.67	0.05	-0.750			
0.3023	19347.84	3.7690	3.7690	-0.7139	25.67	0.05	-0.750			
0.3044	19484.61	3.7660	3.7659	-0.7168	25.67	0.05	-0.750			
0.3066	19621.93	3.7630	3.7631	-0.7200	25.67	0.05	-0.750			
0.3088	19760.40	3.7600	3.7599	-0.7215	25.67	0.05	-0.750			
0.3109	19898.54	3.7570	3.7570	-0.7270	25.67	0.05	-0.750			
0.3131	20038.41	3.7540	3.7540	-0.7307	25.68	0.06	-0.750			
0.3153	20181.19	3.7510	3.7510	-0.7375	25.68	0.06	-0.750			
0.3176	20323.36	3.7480	3.7480	-0.7421	25.68	0.06	-0.750			
0.3198	20465.28	3.7450	3.7450	-0.7469	25.68	0.06	-0.750			
0.3220	20608.83	3.7420	3.7420	-0.7507	25.67	0.05	-0.750			
0.3243	20753.99	3.7390	3.7389	-0.7569	25.67	0.05	-0.750			
0.3265	20898.61	3.7360	3.7360	-0.7599	25.67	0.05	-0.750			
0.3289	21046.45	3.7330	3.7331	-0.7703	25.66	0.04	-0.750			
0.3312	21194.91	3.7300	3.7300	-0.7773	25.66	0.04	-0.750			
0.3335	21344.24	3.7270	3.7270	-0.7833	25.66	0.04	-0.750			
0.3359	21495.34	3.7240	3.7240	-0.7927	25.66	0.04	-0.750			
0.3383	21648.54	3.7210	3.7210	-0.8030	25.66	0.04	-0.750			
0.3407	21804.23	3.7180	3.7180	-0.8118	25.66	0.04	-0.750			
0.3431	21960.57	3.7150	3.7151	-0.8193	25.66	0.04	-0.750			
0.3456	22117.90	3.7120	3.7120	-0.8304	25.66	0.04	-0.750			
0.3481	22278.23	3.7090	3.7090	-0.8470	25.66	0.04	-0.750			
0.3507	22442.45	3.7060	3.7059	-0.8587	25.65	0.03	-0.750			
0.3533	22608.63	3.7030	3.7030	-0.8724	25.65	0.03	-0.750			
0.3559	22778.42	3.7000	3.7002	-0.8859	25.65	0.03	-0.750			
0.3586	22949.71	3.6970	3.6970	-0.9017	25.65	0.03	-0.750			
0.3613	23123.41	3.6940	3.6940	-0.9162	25.65	0.03	-0.750			
0.3641	23299.71	3.6910	3.6910	-0.9317	25.64	0.02	-0.750			
0.3668	23478.30	3.6880	3.6880	-0.9565	25.64	0.02	-0.750			
0.3697	23663.23	3.6850	3.6850	-0.9847	25.64	0.02	-0.750			
0.3727	23855.18	3.6820	3.6820	-1.0068	25.63	0.01	-0.750			
0.3758	24051.28	3.6790	3.6789	-1.0340	25.63	0.01	-0.750			
0.3790	24253.70	3.6760	3.6761	-1.0538	25.62	0.00	-0.750			
0.3822	24459.62	3.6730	3.6730	-1.0797	25.62	-0.00	-0.750			
0.3855	24669.57	3.6700	3.6700	-1.1001	25.62	-0.00	-0.750			
0.3888	24881.69	3.6670	3.6670	-1.1177	25.61	-0.01	-0.750			
0.3921	25096.73	3.6640	3.6640	-1.1391	25.61	-0.01	-0.750			
0.3956	25319.42	3.6610	3.6609	-1.1640	25.61	-0.01	-0.750			
0.3991	25543.22	3.6580	3.6580	-1.1853	25.61	-0.01	-0.750			
0.4027	25773.58	3.6550	3.6550	-1.2099	25.60	-0.02	-0.750			
0.4063	26005.99	3.6520	3.6521	-1.2348	25.60	-0.02	-0.750			
0.4101	26247.86	3.6490	3.6490	-1.2634	25.59	-0.03	-0.750			
0.4140	26492.87	3.6460	3.6460	-1.2895	25.59	-0.03	-0.750			
0.4178	26742.07	3.6430	3.6430	-1.3167	25.58	-0.04	-0.750			
0.4219	26999.73	3.6400	3.6400	-1.3487	25.58	-0.04	-0.750			
0.4259	27259.81	3.6370	3.6370	-1.3742	25.57	-0.05	-0.750			
0.4301	27526.83	3.6340	3.6340	-1.4054	25.57	-0.05	-0.750			
0.4344	27798.43	3.6310	3.6310	-1.4387	25.56	-0.06	-0.750			
0.4388	28080.01	3.6280	3.6279	-1.4669	25.56	-0.06	-0.750			
0.4432	28364.33	3.6250	3.6251	-1.4937	25.55	-0.07	-0.750			
0.4477	28652.15	3.6220	3.6221	-1.5243	25.55	-0.07	-0.750			
0.4523	28949.33	3.6190	3.6190	-1.5549	25.54	-0.08	-0.750			
0.4570	29249.37	3.6160	3.6160	-1.5863	25.54	-0.08	-0.750			
0.4618	29556.34	3.6130	3.6129	-1.6214	25.54	-0.08	-0.750			
0.4667	29870.05	3.6100	3.6101	-1.6492	25.54	-0.08	-0.750			
0.4718	30195.38	3.6070	3.6069	-1.6842	25.53	-0.09	-0.750			
0.4769	30522.30	3.6040	3.6041	-1.7127	25.53	-0.09	-0.750			
0.4820	30850.75	3.6010	3.6010	-1.7404	25.52	-0.10	-0.750			
0.4873	31189.01	3.5980	3.5981	-1.7796	25.52	-0.10	-0.750			
0.4927	31533.01	3.5950	3.5950	-1.8072	25.52	-0.10	-0.750			
0.4982	31884.73	3.5920	3.5921	-1.8496	25.52	-0.10	-0.750			
0.5038	32244.74	3.5890	3.5890	-1.8716	25.52	-0.10	-0.750			
0.5095	32608.96	3.5860	3.5859	-1.9008	25.52	-0.10	-0.750			
0.5152	32973.45	3.5830	3.5832	-1.9361	25.52	-0.10	-0.750			
0.5211	33347.75	3.5800	3.5799	-1.9660	25.52	-0.10	-0.750			
0.5270	33727.30	3.5770	3.5769	-1.9994	25.51	-0.11	-0.750			
0.5330	34114.67	3.5740	3.5741	-2.0234	25.50	-0.12	-0.750			
0.5393	34514.10	3.5710	3.5712	-2.0410	25.51	-0.11	-0.750	0.382	0.558	
0.5454	34904.72	3.5680	3.5680	-2.0589	25.52	-0.10	-0.750			
0.5515	35297.47	3.5650	3.5650	-2.0573	25.52	-0.10	-0.750			
0.5577	35692.92	3.5620	3.5620	-2.0582	25.52	-0.10	-0.750			
0.5640	36094.63	3.5590	3.5590	-2.0771	25.52	-0.10	-0.750			
0.5702	36491.30	3.5560	3.5560	-2.0897	25.52	-0.10	-0.750			
0.5765	36892.83	3.5530	3.5530	-2.0797	25.52	-0.10	-0.750			
0.5828	37296.98	3.5500	3.5499	-2.0812	25.52	-0.10	-0.750			
0.5890	37696.19	3.5470	3.5471	-2.0824	25.52	-0.10	-0.750			
0.5952	38093.71	3.5440	3.5440	-2.0617	25.52	-0.10	-0.750			
0.6015	38494.13	3.5410	3.5409	-2.0537	25.53	-0.09	-0.750			
0.6075	38881.17	3.5380	3.5381	-2.0342	25.54	-0.08	-0.750			
0.6136	39272.50	3.5350	3.5350	-2.0097	25.55	-0.07	-0.750			
0.6197	39659.12	3.5320	3.5319	-1.9917	25.55	-0.07	-0.750			
0.6256	40039.43	3.5290	3.5291	-1.9481	25.56	-0.06	-0.750			
0.6315	40414.31	3.5260	3.5260	-1.9134	25.57	-0.05	-0.750			
0.6371	40777.25	3.5230	3.5230	-1.8755	25.59	-0.03	-0.750			
0.6426	41129.03	3.5200	3.5200	-1.8186	25.60	-0.02	-0.750			
0.6481	41475.75	3.5170	3.5170	-1.7811	25.60	-0.02	-0.750			
0.6533	41814.18	3.5140	3.5140	-1.7352	25.61	-0.01	-0.750			
0.6585	42144.31	3.5110	3.5109	-1.6938	25.62	-0.00	-0.750			
0.6635	42464.61	3.5080	3.5080	-1.6530	25.63	0.01	-0.750			
0.6684	42778.51	3.5050	3.5050	-1.6056	25.64	0.02	-0.750			
0.6731	43081.29	3.5020	3.5020	-1.5575	25.65	0.03	-0.750			
0.6777	43375.34	3.4990	3.4990	-1.5136	25.66	0.04	-0.750			
0.6823	43664.22	3.4960	3.4960	-1.4682	25.67	0.05	-0.750			
0.6866	43941.06	3.4930	3.4929	-1.4219	25.68	0.06	-0.750			
0.6907	44208.00	3.4900	3.4900	-1.3748	25.69	0.07	-0.750			
0.6948	44466.68	3.4870	3.4869	-1.3298	25.70	0.08	-0.750			
0.6987	44718.48	3.4840	3.4840	-1.2979	25.71	0.09	-0.750			
0.7025	44962.45	3.4810	3.4810	-1.2601	25.72	0.10	-0.750			
0.7062	45199.74	3.4780	3.4780	-1.2295	25.73	0.11	-0.750			
0.7099	45435.32	3.4750	3.4750	-1.2054	25.74	0.12	-0.750			
0.7135	45662.55	3.4720	3.4720	-1.1722	25.75	0.13	-0.750			
0.7169	45884.22	3.4690	3.4690	-1.1490	25.77	0.15	-0.750			
0.7203	46100.86	3.4660	3.4660	-1.1340	25.77	0.15	-0.750			
0.7237	46315.57	3.4630	3.4630	-1.1195	25.78	0.16	-0.750			
0.7270	46528.76	3.4600	3.4599	-1.1075	25.79	0.17	-0.750			
0.7303	46739.92	3.4570	3.4571	-1.1005	25.80	0.18	-0.750			
0.7336	46951.92	3.4540	3.4540	-1.0959	25.80	0.18	-0.750			
0.7369	47162.84	3.4510	3.4509	-1.0887	25.81	0.19	-0.750			
0.7402	47370.04	3.4480	3.4480	-1.0776	25.82	0.20	-0.750			
0.7433	47573.31	3.4450	3.4451	-1.0697	25.82	0.20	-0.750			
0.7466	47780.13	3.4420	3.4420	-1.0657	25.83	0.21	-0.750			
0.7498	47984.99	3.4390	3.4389	-1.0560	25.83	0.21	-0.750			
0.7529	48185.75	3.4360	3.4359	-1.0457	25.84	0.22	-0.750			
0.7560	48386.20	3.4330	3.4332	-1.0419	25.84	0.22	-0.750			
0.7592	48586.13	3.4300	3.4300	-1.0304	25.85	0.23	-0.750			
0.7622	48783.65	3.4270	3.4269	-1.0186	25.85	0.23	-0.750			
0.7653	48977.90	3.4240	3.4240	-1.0054	25.86	0.24	-0.750			
0.7683	49170.04	3.4210	3.4212	-0.9945	25.86	0.24	-0.750			
0.7713	49360.13	3.4180	3.4180	-0.9779	25.86	0.24	-0.750			
0.7742	49548.13	3.4150	3.4149	-0.9518	25.87	0.25	-0.750			
0.7770	49728.31	3.4120	3.4120	-0.9280	25.87	0.25	-0.750			
0.7798	49904.20	3.4090	3.4091	-0.9112	25.88	0.26	-0.750			
0.7824	50075.85	3.4060	3.4060	-0.8892	25.88	0.26	-0.750			
0.7851	50243.51	3.4030	3.4029	-0.8707	25.89	0.27	-0.750			
0.7876	50409.41	3.4000	3.4001	-0.8525	25.89	0.27	-0.750			
0.7902	50573.12	3.3970	3.3970	-0.8356	25.90	0.28	-0.750			
0.7927	50733.57	3.3940	3.3940	-0.8133	25.90	0.28	-0.750			
0.7951	50888.50	3.3910	3.3910	-0.7834	25.91	0.29	-0.750			
0.7974	51035.95	3.3880	3.3880	-0.7532	25.91	0.29	-0.750			
0.7997	51177.96	3.3850	3.3850	-0.7249	25.92	0.30	-0.750			
0.8018	51313.94	3.3820	3.3820	-0.6929	25.93	0.31	-0.750			
0.8038	51444.99	3.3790	3.3789	-0.6630	25.93	0.31	-0.750			
0.8058	51568.45	3.3760	3.3762	-0.6320	25.94	0.32	-0.750			
0.8076	51686.93	3.3730	3.3730	-0.6045	25.95	0.33	-0.750			
0.8094	51799.88	3.3700	3.3700	-0.5768	25.95	0.33	-0.750			
0.8110	51907.01	3.3670	3.3670	-0.5479	25.96	0.34	-0.750			
0.8127	52010.34	3.3640	3.3640	-0.5236	25.96	0.34	-0.750			
0.8142	52108.28	3.3610	3.3610	-0.4978	25.97	0.35	-0.750			
0.8156	52200.77	3.3580	3.3580	-0.4752	25.97	0.35	-0.750			
0.8170	52288.97	3.3550	3.3550	-0.4524	25.98	0.36	-0.750			
0.8183	52372.84	3.3520	3.3519	-0.4308	25.98	0.36	-0.750			
0.8196	52453.61	3.3490	3.3490	-0.4131	25.98	0.36	-0.750			
0.8208	52531.14	3.3460	3.3460	-0.3965	25.99	0.37	-0.750			
0.8220	52605.76	3.3430	3.3430	-0.3803	25.99	0.37	-0.750			
0.8231	52677.02	3.3400	3.3400	-0.3658	26.00	0.38	-0.750			
0.8241	52745.21	3.3370	3.3370	-0.3525	26.00	0.38	-0.750			
0.8252	52811.82	3.3340	3.3340	-0.3396	26.00	0.38	-0.750			
0.8262	52875.89	3.3310	3.3310	-0.3281	26.01	0.39	-0.750			
0.8271	52937.45	3.3280	3.3280	-0.3160	26.01	0.39	-0.750			
0.8281	52996.72	3.3250	3.3250	-0.3068	26.01	0.39	-0.750			
0.8290	53054.63	3.3220	3.3220	-0.2974	26.01	0.39	-0.750			
0.8298	53110.28	3.3190	3.3190	-0.2876	26.02	0.40	-0.750			
0.8307	53164.77	3.3160	3.3160	-0.2798	26.02	0.40	-0.750			
0.8315	53217.89	3.3130	3.3130	-0.2729	26.02	0.40	-0.750			
0.8323	53269.28	3.3100	3.3100	-0.2651	26.03	0.41	-0.750			
0.8331	53319.56	3.3070	3.3070	-0.2579	26.04	0.42	-0.750			
0.8339	53367.88	3.3040	3.3039	-0.2519	26.04	0.42	-0.750			
0.8346	53415.73	3.3010	3.3010	-0.2460	26.04	0.42	-0.750			
0.8354	53462.45	3.2980	3.2979	-0.2401	26.05	0.43	-0.750			
0.8361	53507.96	3.2950	3.2950	-0.2342	26.05	0.43	-0.750			
0.8368	53552.26	3.2920	3.2921	-0.2298	26.06	0.44	-0.750			
0.8374	53595.66	3.2890	3.2890	-0.2251	26.06	0.44	-0.750			
0.8381	53638.14	3.2860	3.2859	-0.2209	26.07	0.45	-0.750			
0.8388	53680.21	3.2830	3.2830	-0.2173	26.07	0.45	-0.750			
0.8394	53721.22	3.2800	3.2800	-0.2132	26.08	0.46	-0.750			
0.8400	53762.18	3.2770	3.2770	-0.2100	26.08	0.46	-0.750			
0.8407	53802.16	3.2740	3.2740	-0.2067	26.08	0.46	-0.750			
0.8413	53841.49	3.2710	3.2710	-0.2028	26.09	0.47	-0.750			
0.8419	53879.91	3.2680	3.2680	-0.1989	26.09	0.47	-0.750			
0.8425	53917.81	3.2650	3.2650	-0.1954	26.09	0.47	-0.750			
0.8430	53954.63	3.2620	3.2619	-0.1924	26.10	0.48	-0.750			
0.8436	53991.33	3.2590	3.2590	-0.1899	26.10	0.48	-0.750			
0.8442	54027.50	3.2560	3.2559	-0.1873	26.11	0.49	-0.750			
0.8447	54063.13	3.2530	3.2530	-0.1849	26.11	0.49	-0.750			
0.8453	54098.35	3.2500	3.2501	-0.1824	26.11	0.49	-0.750			
0.8458	54133.22	3.2470	3.2470	-0.1808	26.12	0.50	-0.750			
0.8464	54167.75	3.2440	3.2440	-0.1786	26.12	0.50	-0.750			
0.8469	54201.84	3.2410	3.2410	-0.1763	26.13	0.51	-0.750			
0.8474	54235.26	3.2380	3.2380	-0.1741	26.13	0.51	-0.750			
0.8479	54268.71	3.2350	3.2350	-0.1721	26.13	0.51	-0.750			
0.8485	54301.52	3.2320	3.2320	-0.1698	26.14	0.52	-0.750			
0.8490	54333.95	3.2290	3.2290	-0.1675	26.14	0.52	-0.750			
0.8495	54365.88	3.2260	3.2260	-0.1656	26.14	0.52	-0.750			
0.8500	54397.34	3.2230	3.2230	-0.1632	26.15	0.53	-0.750			
0.8504	54428.50	3.2200	3.2199	-0.1613	26.15	0.53	-0.750			
0.8509	54459.25	3.2170	3.2170	-0.1598	26.16	0.54	-0.750			
0.8514	54489.54	3.2140	3.2140	-0.1584	26.16	0.54	-0.750			
0.8519	54519.98	3.2110	3.2110	-0.1571	26.16	0.54	-0.750			
0.8523	54550.00	3.2080	3.2080	-0.1556	26.17	0.55	-0.750			
0.8528	54579.66	3.2050	3.2050	-0.1546	26.17	0.55	-0.750			
0.8533	54609.20	3.2020	3.2021	-0.1534	26.17	0.55	-0.750			
0.8537	54638.76	3.1990	3.1988	-0.1520	26.18	0.56	-0.750			
0.8542	54667.85	3.1960	3.1960	-0.1502	26.18	0.56	-0.750			
0.8546	54696.56	3.1930	3.1930	-0.1483	26.18	0.56	-0.750			
0.8551	54724.80	3.1900	3.1900	-0.1468	26.19	0.57	-0.750			
0.8555	54752.86	3.1870	3.1869	-0.1455	26.19	0.57	-0.750			
0.8559	54780.57	3.1840	3.1840	-0.1441	26.19	0.57	-0.750			
0.8564	54807.85	3.1810	3.1810	-0.1424	26.20	0.58	-0.750			
0.8568	54835.02	3.1780	3.1780	-0.1412	26.20	0.58	-0.750			
0.8572	54862.13	3.1750	3.1750	-0.1403	26.20	0.58	-0.750			
0.8576	54888.84	3.1720	3.1720	-0.1395	26.21	0.59	-0.750			
0.8581	54915.54	3.1690	3.1690	-0.1386	26.21	0.59	-0.750			
0.8585	54942.04	3.1660	3.1660	-0.1371	26.22	0.60	-0.750			
0.8589	54968.30	3.1630	3.1630	-0.1360	26.22	0.60	-0.750			
0.8593	54994.36	3.1600	3.1600	-0.1349	26.22	0.60	-0.750			
0.8597	55020.13	3.1570	3.1571	-0.1336	26.23	0.61	-0.750			
0.8601	55045.67	3.1540	3.1540	-0.1325	26.23	0.61	-0.750			
0.8605	55070.85	3.1510	3.1510	-0.1315	26.23	0.61	-0.750			
0.8609	55095.92	3.1480	3.1480	-0.1302	26.24	0.62	-0.750			
0.8613	55120.85	3.1450	3.1450	-0.1295	26.24	0.62	-0.750			
0.8617	55145.88	3.1420	3.1420	-0.1287	26.24	0.62	-0.750			
0.8620	55170.50	3.1390	3.1390	-0.1275	26.25	0.63	-0.750			
0.8624	55194.91	3.1360	3.1361	-0.1267	26.25	0.63	-0.750			
0.8628	55219.12	3.1330	3.1330	-0.1255	26.25	0.63	-0.750			
0.8632	55242.99	3.1300	3.1301	-0.1245	26.26	0.64	-0.750			
0.8635	55266.67	3.1270	3.1269	-0.1234	26.26	0.64	-0.750			
0.8639	55290.29	3.1240	3.1240	-0.1227	26.27	0.65	-0.750			
0.8643	55313.84	3.1210	3.1210	-0.1219	26.27	0.65	-0.750			
0.8646	55337.16	3.1180	3.1180	-0.1210	26.27	0.65	-0.750			
0.8650	55360.36	3.1150	3.1150	-0.1205	26.28	0.66	-0.750			
0.8654	55383.35	3.1120	3.1120	-0.1195	26.28	0.66	-0.750			
0.8657	55406.27	3.1090	3.1090	-0.1187	26.28	0.66	-0.750			
0.8661	55428.98	3.1060	3.1060	-0.1179	26.29	0.67	-0.750			
0.8664	55451.56	3.1030	3.1029	-0.1170	26.29	0.67	-0.750			
0.8668	55473.96	3.1000	3.1000	-0.1162	26.29	0.67	-0.750			
0.8671	55496.24	3.0970	3.0970	-0.1151	26.29	0.67	-0.750			
0.8675	55518.39	3.0940	3.0939	-0.1142	26.30	0.68	-0.750			
0.8678	55540.07	3.0910	3.0910	-0.1136	26.30	0.68	-0.750			
0.8682	55561.66	3.0880	3.0880	-0.1126	26.30	0.68	-0.750			
0.8685	55583.29	3.0850	3.0849	-0.1116	26.30	0.68	-0.750			
0.8688	55604.66	3.0820	3.0820	-0.1107	26.30	0.68	-0.750			
0.8692	55625.81	3.0790	3.0791	-0.1099	26.31	0.69	-0.750			
0.8695	55646.84	3.0760	3.0761	-0.1091	26.31	0.69	-0.750			
0.8698	55667.73	3.0730	3.0729	-0.1084	26.31	0.69	-0.750			
0.8701	55688.47	3.0700	3.0700	-0.1076	26.31	0.69	-0.750			
0.8704	55708.80	3.0670	3.0671	-0.1067	26.31	0.69	-0.750			
0.8708	55729.24	3.0640	3.0640	-0.1063	26.32	0.70	-0.750			
0.8711	55749.72	3.0610	3.0610	-0.1060	26.32	0.70	-0.750			
0.8714	55770.01	3.0580	3.0579	-0.1054	26.32	0.70	-0.750			
0.8717	55790.23	3.0550	3.0549	-0.1047	26.32	0.70	-0.750			
0.8720	55810.26	3.0520	3.0521	-0.1040	26.32	0.70	-0.750			
0.8723	55830.24	3.0490	3.0491	-0.1034	26.32	0.70	-0.750			
0.8727	55850.02	3.0460	3.0460	-0.1026	26.33	0.71	-0.750			
0.8730	55869.61	3.0430	3.0430	-0.1016	26.33	0.71	-0.750			
0.8733	55889.05	3.0400	3.0400	-0.1008	26.33	0.71	-0.750			
0.8736	55908.19	3.0370	3.0370	-0.1002	26.33	0.71	-0.750			
0.8739	55927.39	3.0340	3.0341	-0.0997	26.33	0.71	-0.750			
0.8742	55946.57	3.0310	3.0309	-0.0987	26.34	0.72	-0.750			
0.8745	55965.51	3.0280	3.0280	-0.0980	26.34	0.72	-0.750			
0.8748	55984.16	3.0250	3.0251	-0.0976	26.34	0.72	-0.750			
0.8750	56002.80	3.0220	3.0221	-0.0970	26.34	0.72	-0.750			
0.8753	56021.39	3.0190	3.0190	-0.0964	26.34	0.72	-0.750			
0.8756	56039.86	3.0160	3.0159	-0.0959	26.34	0.72	-0.750			
0.8759	56058.21	3.0130	3.0130	-0.0952	26.35	0.73	-0.750			
0.8762	56076.30	3.0100	3.0101	-0.0946	26.35	0.73	-0.750			
0.8765	56094.43	3.0070	3.0070	-0.0943	26.35	0.73	-0.750			
0.8768	56112.66	3.0040	3.0040	-0.0927	26.35	0.73	-0.750			
0.8770	56130.33	3.0010	3.0010	-0.0914	26.35	0.73	-0.750			
