Ah_balance (normalized)	Ah_balance (mAh)	Voltage - fit (V)	Voltage -  interpolate (V)	dQ/dV (1/V)	Temperature (°C)	Temperature - diff (°C)	Current (C)	R_DC 0ms (mOhm)	R_DC 50ms (mOhm)	R_DC 50 ms PEC (mOhm)
0.0001	7.76	4.1580	4.1577	-0.1190	25.27	0.00	-0.750			
0.0005	34.04	4.1550	4.1550	-0.1587	25.27	0.00	-0.750			
0.0011	69.32	4.1520	4.1519	-0.2066	25.27	0.00	-0.750			
0.0018	113.76	4.1490	4.1490	-0.2526	25.27	0.00	-0.750			
0.0026	166.53	4.1460	4.1459	-0.2992	25.27	0.00	-0.750			
0.0036	228.44	4.1430	4.1431	-0.3455	25.27	0.00	-0.750			
0.0047	299.35	4.1400	4.1400	-0.3908	25.27	0.00	-0.750			
0.0059	378.57	4.1370	4.1370	-0.4367	25.27	0.00	-0.750			
0.0073	467.21	4.1340	4.1340	-0.4789	25.27	0.00	-0.750			
0.0088	563.70	4.1310	4.1310	-0.5221	25.27	0.00	-0.750			
0.0104	668.64	4.1280	4.1280	-0.5647	25.27	0.00	-0.750			
0.0122	781.33	4.1250	4.1250	-0.6011	25.27	0.00	-0.750			
0.0141	903.20	4.1220	4.1220	-0.6331	25.27	0.00	-0.750			
0.0161	1029.04	4.1190	4.1190	-0.6586	25.27	0.00	-0.750			
0.0181	1158.94	4.1160	4.1160	-0.6793	25.27	0.00	-0.750			
0.0202	1291.55	4.1130	4.1133	-0.6978	25.27	0.00	-0.750	0.437	0.586	
0.0223	1426.48	4.1100	4.1100	-0.7120	25.27	0.00	-0.750			
0.0244	1564.77	4.1070	4.1069	-0.7244	25.27	0.00	-0.750			
0.0267	1705.80	4.1040	4.1040	-0.7369	25.28	0.01	-0.750			
0.0289	1849.30	4.1010	4.1010	-0.7488	25.28	0.01	-0.750			
0.0312	1995.74	4.0980	4.0980	-0.7561	25.28	0.01	-0.750			
0.0335	2140.97	4.0950	4.0949	-0.7689	25.28	0.01	-0.750			
0.0358	2289.85	4.0920	4.0920	-0.7714	25.29	0.02	-0.750			
0.0381	2438.86	4.0890	4.0889	-0.7753	25.29	0.02	-0.750			
0.0404	2588.47	4.0860	4.0860	-0.7776	25.29	0.02	-0.750	0.439	0.588	
0.0428	2738.94	4.0830	4.0829	-0.7806	25.30	0.03	-0.750			
0.0451	2888.01	4.0800	4.0799	-0.7833	25.30	0.03	-0.750			
0.0475	3037.41	4.0770	4.0770	-0.7877	25.31	0.04	-0.750			
0.0498	3187.32	4.0740	4.0740	-0.7925	25.31	0.04	-0.750			
0.0522	3342.38	4.0710	4.0710	-0.8036	25.32	0.05	-0.750			
0.0547	3498.51	4.0680	4.0679	-0.8031	25.33	0.06	-0.750			
0.0571	3654.08	4.0650	4.0650	-0.8050	25.33	0.06	-0.750			
0.0595	3807.92	4.0620	4.0620	-0.8068	25.34	0.07	-0.750	0.463	0.579	
0.0619	3962.66	4.0590	4.0590	-0.8063	25.34	0.07	-0.750			
0.0643	4117.31	4.0560	4.0559	-0.8090	25.35	0.08	-0.750			
0.0667	4271.82	4.0530	4.0530	-0.8097	25.35	0.08	-0.750			
0.0692	4427.58	4.0500	4.0500	-0.8127	25.36	0.09	-0.750			
0.0716	4584.40	4.0470	4.0470	-0.8218	25.36	0.09	-0.750			
0.0741	4743.86	4.0440	4.0440	-0.8222	25.37	0.10	-0.750			
0.0766	4901.99	4.0410	4.0409	-0.8215	25.37	0.10	-0.750			
0.0791	5060.77	4.0380	4.0379	-0.8215	25.38	0.11	-0.750	0.437	0.574	
0.0815	5218.06	4.0350	4.0350	-0.8191	25.38	0.11	-0.750			
0.0840	5375.30	4.0320	4.0320	-0.8182	25.39	0.12	-0.750			
0.0864	5531.01	4.0290	4.0290	-0.8182	25.40	0.13	-0.750			
0.0888	5685.68	4.0260	4.0260	-0.8222	25.40	0.13	-0.750			
0.0913	5844.89	4.0230	4.0230	-0.8326	25.41	0.14	-0.750			
0.0939	6007.02	4.0200	4.0200	-0.8346	25.42	0.15	-0.750			
0.0964	6169.46	4.0170	4.0169	-0.8399	25.42	0.15	-0.750			
0.0989	6331.31	4.0140	4.0140	-0.8395	25.43	0.16	-0.750	0.431	0.577	
0.1014	6492.79	4.0110	4.0111	-0.8369	25.43	0.16	-0.750			
0.1040	6653.35	4.0080	4.0078	-0.8331	25.44	0.17	-0.750			
0.1064	6810.84	4.0050	4.0051	-0.8307	25.44	0.17	-0.750			
0.1089	6968.77	4.0020	4.0020	-0.8310	25.44	0.17	-0.750			
0.1114	7128.95	3.9990	3.9990	-0.8399	25.45	0.18	-0.750			
0.1139	7290.10	3.9960	3.9960	-0.8421	25.45	0.18	-0.750			
0.1165	7454.03	3.9930	3.9929	-0.8481	25.46	0.19	-0.750			
0.1190	7617.64	3.9900	3.9900	-0.8477	25.46	0.19	-0.750	0.433	0.568	
0.1216	7780.03	3.9870	3.9870	-0.8535	25.47	0.20	-0.750			
0.1241	7944.07	3.9840	3.9840	-0.8514	25.48	0.21	-0.750			
0.1267	8107.92	3.9810	3.9810	-0.8508	25.49	0.22	-0.750			
0.1292	8270.68	3.9780	3.9780	-0.8501	25.49	0.22	-0.750			
0.1318	8434.20	3.9750	3.9751	-0.8533	25.50	0.23	-0.750			
0.1343	8596.77	3.9720	3.9720	-0.8595	25.50	0.23	-0.750			
0.1369	8763.38	3.9690	3.9690	-0.8597	25.51	0.24	-0.750			
0.1395	8928.15	3.9660	3.9658	-0.8592	25.51	0.24	-0.750	0.424	0.568	
0.1421	9094.75	3.9630	3.9630	-0.8664	25.52	0.25	-0.750			
0.1447	9260.96	3.9600	3.9601	-0.8659	25.52	0.25	-0.750			
0.1473	9427.08	3.9570	3.9569	-0.8701	25.53	0.26	-0.750			
0.1499	9593.16	3.9540	3.9540	-0.8665	25.53	0.26	-0.750			
0.1525	9759.91	3.9510	3.9510	-0.8731	25.54	0.27	-0.750			
0.1552	9930.80	3.9480	3.9479	-0.8810	25.55	0.28	-0.750			
0.1578	10100.70	3.9450	3.9449	-0.8792	25.55	0.28	-0.750			
0.1605	10269.23	3.9420	3.9421	-0.8777	25.56	0.29	-0.750	0.448	0.560	
0.1631	10438.48	3.9390	3.9390	-0.8767	25.56	0.29	-0.750			
0.1657	10603.98	3.9360	3.9359	-0.8740	25.56	0.29	-0.750			
0.1683	10772.98	3.9330	3.9331	-0.8794	25.57	0.30	-0.750			
0.1710	10940.86	3.9300	3.9300	-0.8841	25.57	0.30	-0.750			
0.1736	11112.39	3.9270	3.9270	-0.8887	25.57	0.30	-0.750			
0.1763	11283.73	3.9240	3.9240	-0.8911	25.58	0.31	-0.750			
0.1790	11454.63	3.9210	3.9209	-0.8915	25.58	0.31	-0.750	0.452	0.555	
0.1817	11627.20	3.9180	3.9181	-0.8942	25.58	0.31	-0.750			
0.1843	11798.37	3.9150	3.9149	-0.8951	25.58	0.31	-0.750			
0.1870	11969.64	3.9120	3.9120	-0.8975	25.58	0.31	-0.750			
0.1897	12141.41	3.9090	3.9091	-0.8975	25.59	0.32	-0.750			
0.1924	12316.14	3.9060	3.9059	-0.9074	25.59	0.32	-0.750			
0.1952	12491.14	3.9030	3.9030	-0.9056	25.59	0.32	-0.750			
0.1979	12664.85	3.9000	3.9000	-0.9083	25.59	0.32	-0.750			
0.2006	12839.62	3.8970	3.8973	-0.9052	25.60	0.33	-0.750	0.452	0.569	
0.2033	13013.75	3.8940	3.8939	-0.9019	25.60	0.33	-0.750			
0.2060	13185.86	3.8910	3.8910	-0.9041	25.60	0.33	-0.750			
0.2087	13357.06	3.8880	3.8881	-0.9093	25.60	0.33	-0.750			
0.2115	13535.28	3.8850	3.8849	-0.9019	25.60	0.33	-0.750			
0.2142	13707.67	3.8820	3.8820	-0.9089	25.59	0.32	-0.750			
0.2169	13881.54	3.8790	3.8791	-0.9090	25.59	0.32	-0.750			
0.2196	14056.08	3.8760	3.8763	-0.9183	25.59	0.32	-0.750	0.460	0.581	
0.2224	14232.34	3.8730	3.8728	-0.9229	25.59	0.32	-0.750			
0.2251	14408.29	3.8700	3.8701	-0.9224	25.59	0.32	-0.750			
0.2279	14587.98	3.8670	3.8670	-0.9284	25.59	0.32	-0.750			
0.2308	14771.86	3.8640	3.8640	-0.9415	25.59	0.32	-0.750			
0.2335	14946.86	3.8610	3.8610	-0.9371	25.59	0.32	-0.750			
0.2364	15129.63	3.8580	3.8579	-0.9339	25.59	0.32	-0.750			
0.2392	15308.12	3.8550	3.8549	-0.9290	25.60	0.33	-0.750	0.454	0.572	
0.2420	15486.07	3.8520	3.8521	-0.9279	25.60	0.33	-0.750			
0.2448	15664.95	3.8490	3.8490	-0.9293	25.60	0.33	-0.750			
0.2475	15841.80	3.8460	3.8459	-0.9340	25.59	0.32	-0.750			
0.2503	16018.98	3.8430	3.8429	-0.9307	25.59	0.32	-0.750			
0.2532	16202.01	3.8400	3.8399	-0.9378	25.58	0.31	-0.750			
0.2560	16384.92	3.8370	3.8373	-0.9445	25.58	0.31	-0.750			
0.2588	16565.97	3.8340	3.8339	-0.9434	25.58	0.31	-0.750	0.459	0.575	
0.2617	16746.52	3.8310	3.8310	-0.9395	25.58	0.31	-0.750			
0.2645	16924.93	3.8280	3.8279	-0.9312	25.58	0.31	-0.750			
0.2672	17103.69	3.8250	3.8250	-0.9366	25.58	0.31	-0.750			
0.2700	17279.77	3.8220	3.8220	-0.9379	25.58	0.31	-0.750			
0.2729	17463.71	3.8190	3.8190	-0.9571	25.58	0.31	-0.750			
0.2758	17649.94	3.8160	3.8159	-0.9554	25.58	0.31	-0.750			
0.2787	17835.28	3.8130	3.8129	-0.9568	25.58	0.31	-0.750			
0.2816	18019.72	3.8100	3.8102	-0.9597	25.58	0.31	-0.750	0.449	0.574	
0.2844	18204.56	3.8070	3.8070	-0.9650	25.58	0.31	-0.750			
0.2873	18388.03	3.8040	3.8038	-0.9603	25.58	0.31	-0.750			
0.2901	18567.96	3.8010	3.8010	-0.9645	25.58	0.31	-0.750			
0.2931	18757.80	3.7980	3.7980	-0.9719	25.58	0.31	-0.750			
0.2960	18945.01	3.7950	3.7949	-0.9789	25.58	0.31	-0.750			
0.2990	19134.66	3.7920	3.7920	-0.9782	25.58	0.31	-0.750	0.460	0.567	
0.3019	19321.90	3.7890	3.7890	-0.9723	25.58	0.31	-0.750			
0.3048	19507.06	3.7860	3.7859	-0.9720	25.58	0.31	-0.750			
0.3077	19694.65	3.7830	3.7830	-0.9749	25.58	0.31	-0.750			
0.3106	19879.69	3.7800	3.7800	-0.9833	25.58	0.31	-0.750			
0.3136	20071.36	3.7770	3.7770	-0.9917	25.58	0.31	-0.750			
0.3166	20261.83	3.7740	3.7739	-0.9920	25.58	0.31	-0.750			
0.3196	20453.93	3.7710	3.7710	-1.0024	25.58	0.31	-0.750	0.453	0.579	
0.3226	20647.88	3.7680	3.7679	-1.0067	25.58	0.31	-0.750			
0.3256	20840.67	3.7650	3.7649	-1.0077	25.58	0.31	-0.750			
0.3287	21033.94	3.7620	3.7620	-1.0091	25.58	0.31	-0.750			
0.3317	21226.03	3.7590	3.7591	-1.0163	25.58	0.31	-0.750			
0.3348	21425.79	3.7560	3.7560	-1.0260	25.58	0.31	-0.750			
0.3379	21623.89	3.7530	3.7529	-1.0236	25.58	0.31	-0.750			
0.3409	21819.48	3.7500	3.7502	-1.0224	25.58	0.31	-0.750	0.450	0.573	
0.3440	22015.58	3.7470	3.7471	-1.0282	25.58	0.31	-0.750			
0.3471	22211.96	3.7440	3.7440	-1.0341	25.58	0.31	-0.750			
0.3501	22408.47	3.7410	3.7409	-1.0461	25.57	0.30	-0.750			
0.3533	22611.75	3.7380	3.7380	-1.0541	25.57	0.30	-0.750			
0.3565	22817.41	3.7350	3.7350	-1.0637	25.57	0.30	-0.750			
0.3597	23023.41	3.7320	3.7320	-1.0733	25.57	0.30	-0.750	0.447	0.574	
0.3630	23230.42	3.7290	3.7289	-1.0783	25.57	0.30	-0.750			
0.3662	23438.09	3.7260	3.7259	-1.0780	25.57	0.30	-0.750			
0.3694	23641.54	3.7230	3.7231	-1.0896	25.57	0.30	-0.750			
0.3727	23853.28	3.7200	3.7200	-1.1036	25.57	0.30	-0.750			
0.3760	24066.50	3.7170	3.7169	-1.1140	25.56	0.29	-0.750			
0.3794	24281.44	3.7140	3.7139	-1.1207	25.56	0.29	-0.750	0.391	0.571	
0.3828	24498.88	3.7110	3.7111	-1.1373	25.56	0.29	-0.750			
0.3862	24717.80	3.7080	3.7080	-1.1451	25.56	0.29	-0.750			
0.3897	24941.84	3.7050	3.7049	-1.1491	25.56	0.29	-0.750			
0.3931	25157.35	3.7020	3.7021	-1.1679	25.56	0.29	-0.750			
0.3966	25383.98	3.6990	3.6990	-1.1895	25.56	0.29	-0.750			
0.4002	25614.17	3.6960	3.6961	-1.2058	25.56	0.29	-0.750	0.459	0.573	
0.4039	25847.37	3.6930	3.6931	-1.2234	25.56	0.29	-0.750			
0.4075	26081.52	3.6900	3.6902	-1.2495	25.56	0.29	-0.750			
0.4114	26328.21	3.6870	3.6870	-1.2685	25.56	0.29	-0.750			
0.4153	26576.43	3.6840	3.6838	-1.2917	25.57	0.30	-0.750			
0.4191	26820.34	3.6810	3.6811	-1.3030	25.57	0.30	-0.750	0.449	0.573	
0.4230	27075.05	3.6780	3.6779	-1.3194	25.57	0.30	-0.750			
0.4270	27330.53	3.6750	3.6749	-1.3457	25.56	0.29	-0.750			
0.4311	27589.27	3.6720	3.6721	-1.3648	25.56	0.29	-0.750			
0.4352	27851.19	3.6690	3.6689	-1.3869	25.56	0.29	-0.750			
0.4394	28121.30	3.6660	3.6660	-1.4166	25.56	0.29	-0.750	0.455	0.587	
0.4436	28393.02	3.6630	3.6630	-1.4503	25.56	0.29	-0.750			
0.4480	28675.06	3.6600	3.6600	-1.5020	25.56	0.29	-0.750			
0.4527	28970.73	3.6570	3.6569	-1.5384	25.56	0.29	-0.750			
0.4573	29266.97	3.6540	3.6541	-1.5834	25.56	0.29	-0.750			
0.4621	29577.01	3.6510	3.6512	-1.6224	25.56	0.29	-0.750	0.455	0.588	
0.4671	29893.32	3.6480	3.6478	-1.6587	25.57	0.30	-0.750			
0.4721	30214.20	3.6450	3.6449	-1.6947	25.57	0.30	-0.750			
0.4772	30538.14	3.6420	3.6420	-1.7315	25.57	0.30	-0.750			
0.4825	30878.04	3.6390	3.6391	-1.7810	25.57	0.30	-0.750	0.440	0.590	
0.4879	31223.03	3.6360	3.6360	-1.8177	25.58	0.31	-0.750			
0.4934	31577.04	3.6330	3.6329	-1.8529	25.58	0.31	-0.750			
0.4990	31938.25	3.6300	3.6300	-1.8912	25.58	0.31	-0.750	0.445	0.592	
0.5048	32305.90	3.6270	3.6270	-1.9296	25.58	0.31	-0.750			
0.5106	32678.27	3.6240	3.6240	-1.9594	25.58	0.31	-0.750			
0.5165	33054.09	3.6210	3.6210	-1.9960	25.57	0.30	-0.750			
0.5225	33440.50	3.6180	3.6180	-2.0481	25.57	0.30	-0.750	0.446	0.590	
0.5287	33838.27	3.6150	3.6150	-2.0945	25.58	0.31	-0.750			
0.5351	34247.75	3.6120	3.6120	-2.1398	25.58	0.31	-0.750			
0.5416	34664.32	3.6090	3.6091	-2.1766	25.58	0.31	-0.750	0.462	0.597	
0.5482	35087.02	3.6060	3.6060	-2.2110	25.58	0.31	-0.750			
0.5550	35516.97	3.6030	3.6030	-2.2376	25.57	0.30	-0.750			
0.5617	35946.66	3.6000	3.6001	-2.2649	25.57	0.30	-0.750	0.461	0.597	
0.5685	36384.63	3.5970	3.5970	-2.2930	25.58	0.31	-0.750			
0.5754	36828.47	3.5940	3.5940	-2.3138	25.58	0.31	-0.750			
0.5824	37274.72	3.5910	3.5911	-2.3484	25.58	0.31	-0.750	0.445	0.608	
0.5895	37728.81	3.5880	3.5881	-2.3741	25.58	0.31	-0.750			
0.5967	38187.99	3.5850	3.5848	-2.3971	25.58	0.31	-0.750			
0.6040	38654.36	3.5820	3.5819	-2.4182	25.58	0.31	-0.750	0.438	0.597	
0.6112	39118.68	3.5790	3.5791	-2.4330	25.58	0.31	-0.750			
0.6186	39590.86	3.5760	3.5760	-2.4522	25.59	0.32	-0.750	0.443	0.601	
0.6260	40062.85	3.5730	3.5731	-2.4617	25.60	0.33	-0.750			
0.6334	40534.53	3.5700	3.5699	-2.4594	25.60	0.33	-0.750			
0.6408	41010.10	3.5670	3.5671	-2.4771	25.60	0.33	-0.750	0.452	0.606	
0.6482	41486.30	3.5640	3.5641	-2.4695	25.60	0.33	-0.750			
0.6557	41966.28	3.5610	3.5608	-2.4763	25.61	0.34	-0.750			
0.6632	42441.64	3.5580	3.5579	-2.4304	25.62	0.35	-0.750	0.436	0.613	
0.6704	42905.84	3.5550	3.5550	-2.4081	25.63	0.36	-0.750			
0.6776	43366.00	3.5520	3.5521	-2.3867	25.64	0.37	-0.750	0.458	0.620	
0.6846	43812.61	3.5490	3.5489	-2.3619	25.65	0.38	-0.750			
0.6917	44266.52	3.5460	3.5459	-2.3453	25.66	0.39	-0.750			
0.6987	44716.13	3.5430	3.5430	-2.3314	25.67	0.40	-0.750	0.455	0.631	
0.7058	45169.13	3.5400	3.5401	-2.3169	25.68	0.41	-0.750			
0.7128	45617.05	3.5370	3.5369	-2.2825	25.69	0.42	-0.750			
0.7195	46047.45	3.5340	3.5339	-2.2227	25.70	0.43	-0.750	0.451	0.635	
0.7261	46469.37	3.5310	3.5309	-2.1821	25.71	0.44	-0.750			
0.7325	46882.46	3.5280	3.5280	-2.1282	25.72	0.45	-0.750			
0.7388	47285.29	3.5250	3.5250	-2.0838	25.73	0.46	-0.750	0.460	0.649	
0.7451	47685.47	3.5220	3.5220	-2.0414	25.74	0.47	-0.750			
0.7512	48076.32	3.5190	3.5190	-1.9995	25.75	0.48	-0.750			
0.7571	48456.53	3.5160	3.5159	-1.9343	25.76	0.49	-0.750			
0.7629	48824.30	3.5130	3.5130	-1.8701	25.78	0.51	-0.750	0.460	0.649	
0.7684	49174.59	3.5100	3.5100	-1.7999	25.79	0.52	-0.750			
0.7737	49514.44	3.5070	3.5069	-1.7320	25.81	0.54	-0.750			
0.7787	49836.60	3.5040	3.5040	-1.6621	25.82	0.55	-0.750	0.452	0.659	
0.7836	50152.14	3.5010	3.5009	-1.6021	25.84	0.57	-0.750			
0.7883	50451.24	3.4980	3.4981	-1.5444	25.85	0.58	-0.750			
0.7929	50744.71	3.4950	3.4949	-1.4926	25.86	0.59	-0.750			
0.7973	51024.08	3.4920	3.4919	-1.4321	25.87	0.60	-0.750			
0.8015	51293.24	3.4890	3.4891	-1.3855	25.89	0.62	-0.750	0.468	0.672	
0.8055	51551.46	3.4860	3.4860	-1.3455	25.90	0.63	-0.750			
0.8095	51806.45	3.4830	3.4829	-1.2997	25.91	0.64	-0.750			
0.8133	52053.06	3.4800	3.4799	-1.2561	25.92	0.65	-0.750			
0.8171	52291.30	3.4770	3.4770	-1.2120	25.94	0.67	-0.750			
0.8206	52519.11	3.4740	3.4739	-1.1658	25.95	0.68	-0.750	0.461	0.684	
0.8240	52738.68	3.4710	3.4709	-1.1234	25.96	0.69	-0.750			
0.8273	52946.98	3.4680	3.4679	-1.0810	25.97	0.70	-0.750			
0.8304	53145.94	3.4650	3.4650	-1.0451	25.98	0.71	-0.750			
0.8335	53345.21	3.4620	3.4620	-1.0308	25.99	0.72	-0.750			
0.8366	53541.58	3.4590	3.4590	-1.0078	25.99	0.72	-0.750			
0.8396	53732.46	3.4560	3.4559	-0.9922	26.00	0.73	-0.750	0.463	0.693	
0.8425	53920.29	3.4530	3.4531	-0.9794	26.01	0.74	-0.750			
0.8454	54104.38	3.4500	3.4500	-0.9735	26.02	0.75	-0.750			
0.8483	54290.06	3.4470	3.4469	-0.9739	26.03	0.76	-0.750			
0.8511	54472.65	3.4440	3.4440	-0.9759	26.03	0.76	-0.750			
0.8541	54663.85	3.4410	3.4410	-0.9869	26.04	0.77	-0.750			
0.8571	54855.50	3.4380	3.4380	-1.0003	26.05	0.78	-0.750			
0.8601	55047.01	3.4350	3.4350	-1.0161	26.06	0.79	-0.750	0.456	0.702	
0.8632	55243.49	3.4320	3.4320	-1.0275	26.06	0.79	-0.750			
0.8663	55442.03	3.4290	3.4289	-1.0373	26.07	0.80	-0.750			
0.8694	55643.20	3.4260	3.4261	-1.0543	26.07	0.80	-0.750			
0.8726	55848.16	3.4230	3.4231	-1.0575	26.08	0.81	-0.750			
0.8759	56057.13	3.4200	3.4199	-1.0448	26.09	0.82	-0.750			
0.8791	56259.95	3.4170	3.4170	-1.0229	26.10	0.83	-0.750			
0.8821	56455.16	3.4140	3.4140	-0.9904	26.10	0.83	-0.750	0.470	0.731	
0.8851	56644.65	3.4110	3.4110	-0.9617	26.10	0.83	-0.750			
0.8879	56824.35	3.4080	3.4079	-0.9187	26.10	0.83	-0.750			
0.8905	56994.95	3.4050	3.4050	-0.8760	26.10	0.83	-0.750			
0.8931	57159.34	3.4020	3.4022	-0.8536	26.10	0.83	-0.750			
0.8956	57321.09	3.3990	3.3989	-0.8204	26.11	0.84	-0.750			
0.8981	57476.06	3.3960	3.3958	-0.7883	26.12	0.85	-0.750			
0.9004	57623.98	3.3930	3.3930	-0.7551	26.12	0.85	-0.750	0.475	0.760	
0.9026	57767.45	3.3900	3.3900	-0.7273	26.13	0.86	-0.750			
0.9047	57902.56	3.3870	3.3869	-0.6949	26.14	0.87	-0.750			
0.9067	58030.00	3.3840	3.3840	-0.6627	26.14	0.87	-0.750			
0.9086	58153.53	3.3810	3.3810	-0.6370	26.14	0.87	-0.750			
0.9105	58274.18	3.3780	3.3779	-0.6159	26.15	0.88	-0.750			
0.9123	58390.31	3.3750	3.3750	-0.5920	26.15	0.88	-0.750			
0.9141	58500.90	3.3720	3.3720	-0.5716	26.15	0.88	-0.750			
0.9158	58608.08	3.3690	3.3690	-0.5532	26.16	0.89	-0.750			
0.9174	58712.79	3.3660	3.3660	-0.5300	26.16	0.89	-0.750			
0.9190	58813.10	3.3630	3.3628	-0.5042	26.16	0.89	-0.750			
0.9204	58908.38	3.3600	3.3599	-0.4800	26.17	0.90	-0.750	0.467	0.800	
0.9218	58998.24	3.3570	3.3570	-0.4568	26.17	0.90	-0.750			
0.9232	59083.25	3.3540	3.3539	-0.4322	26.17	0.90	-0.750			
0.9244	59162.43	3.3510	3.3509	-0.4119	26.17	0.90	-0.750			
0.9256	59237.65	3.3480	3.3480	-0.3936	26.18	0.91	-0.750			
0.9268	59312.37	3.3450	3.3450	-0.3794	26.18	0.91	-0.750			
0.9279	59383.77	3.3420	3.3421	-0.3644	26.18	0.91	-0.750			
0.9289	59452.15	3.3390	3.3390	-0.3503	26.19	0.92	-0.750			
0.9300	59518.02	3.3360	3.3359	-0.3354	26.19	0.92	-0.750			
0.9310	59580.88	3.3330	3.3330	-0.3209	26.19	0.92	-0.750			
0.9319	59640.87	3.3300	3.3301	-0.3070	26.19	0.92	-0.750			
0.9328	59698.58	3.3270	3.3270	-0.2947	26.20	0.93	-0.750			
0.9337	59753.81	3.3240	3.3239	-0.2826	26.20	0.93	-0.750			
0.9345	59806.23	3.3210	3.3210	-0.2702	26.20	0.93	-0.750			
0.9353	59856.86	3.3180	3.3180	-0.2591	26.21	0.94	-0.750			
0.9360	59906.07	3.3150	3.3150	-0.2494	26.21	0.94	-0.750			
0.9368	59952.76	3.3120	3.3120	-0.2393	26.21	0.94	-0.750			
0.9375	59997.10	3.3090	3.3090	-0.2295	26.22	0.95	-0.750			
0.9381	60038.81	3.3060	3.3061	-0.2230	26.22	0.95	-0.750			
0.9388	60081.84	3.3030	3.3030	-0.2167	26.22	0.95	-0.750			
0.9394	60122.62	3.3000	3.2999	-0.2107	26.22	0.95	-0.750			
0.9401	60163.44	3.2970	3.2968	-0.2007	26.23	0.96	-0.750			
0.9407	60201.69	3.2940	3.2936	-0.1936	26.23	0.96	-0.750	0.475	0.840	
0.9412	60237.86	3.2910	3.2913	-0.1831	26.23	0.96	-0.750			
0.9418	60272.33	3.2880	3.2878	-0.1753	26.23	0.96	-0.750			
0.9422	60303.78	3.2850	3.2848	-0.1677	26.24	0.97	-0.750			
0.9427	60333.88	3.2820	3.2821	-0.1594	26.24	0.97	-0.750			
0.9432	60364.50	3.2790	3.2790	-0.1565	26.24	0.97	-0.750			
0.9437	60394.20	3.2760	3.2761	-0.1528	26.24	0.97	-0.750			
0.9441	60423.67	3.2730	3.2730	-0.1488	26.25	0.98	-0.750			
0.9446	60451.56	3.2700	3.2700	-0.1440	26.25	0.98	-0.750			
0.9450	60478.68	3.2670	3.2670	-0.1398	26.25	0.98	-0.750			
0.9454	60505.14	3.2640	3.2641	-0.1358	26.25	0.98	-0.750			
0.9458	60530.64	3.2610	3.2610	-0.1318	26.26	0.99	-0.750			
0.9462	60555.54	3.2580	3.2580	-0.1281	26.26	0.99	-0.750			
0.9466	60579.61	3.2550	3.2550	-0.1245	26.26	0.99	-0.750			
0.9469	60603.22	3.2520	3.2519	-0.1214	26.26	0.99	-0.750			
0.9473	60626.29	3.2490	3.2491	-0.1185	26.27	1.00	-0.750			
0.9476	60648.67	3.2460	3.2460	-0.1152	26.27	1.00	-0.750			
0.9480	60670.40	3.2430	3.2430	-0.1125	26.27	1.00	-0.750			
0.9483	60691.68	3.2400	3.2401	-0.1097	26.27	1.00	-0.750			
0.9486	60712.49	3.2370	3.2370	-0.1070	26.27	1.00	-0.750			
0.9489	60732.75	3.2340	3.2340	-0.1043	26.28	1.01	-0.750			
0.9493	60752.41	3.2310	3.2310	-0.1020	26.28	1.01	-0.750			
0.9496	60771.65	3.2280	3.2281	-0.0995	26.28	1.01	-0.750			
0.9499	60790.54	3.2250	3.2251	-0.0974	26.28	1.01	-0.750			
0.9501	60809.00	3.2220	3.2219	-0.0952	26.28	1.01	-0.750			
0.9504	60827.03	3.2190	3.2189	-0.0932	26.29	1.02	-0.750			
0.9507	60844.62	3.2160	3.2161	-0.0910	26.29	1.02	-0.750			
0.9510	60861.90	3.2130	3.2130	-0.0891	26.29	1.02	-0.750			
0.9512	60878.79	3.2100	3.2100	-0.0875	26.29	1.02	-0.750			
0.9515	60895.43	3.2070	3.2071	-0.0858	26.29	1.02	-0.750			
0.9517	60911.60	3.2040	3.2040	-0.0839	26.29	1.02	-0.750			
0.9520	60927.57	3.2010	3.2009	-0.0824	26.30	1.03	-0.750			
0.9522	60943.27	3.1980	3.1980	-0.0809	26.30	1.03	-0.750			
0.9525	60958.63	3.1950	3.1951	-0.0794	26.30	1.03	-0.750			
0.9527	60973.77	3.1920	3.1920	-0.0779	26.30	1.03	-0.750			
0.9529	60988.58	3.1890	3.1890	-0.0764	26.30	1.03	-0.750			
0.9532	61003.05	3.1860	3.1860	-0.0751	26.30	1.03	-0.750			
0.9534	61017.20	3.1830	3.1830	-0.0736	26.30	1.03	-0.750			
0.9536	61031.17	3.1800	3.1801	-0.0725	26.31	1.04	-0.750			
0.9538	61044.98	3.1770	3.1769	-0.0714	26.31	1.04	-0.750			
0.9540	61058.52	3.1740	3.1740	-0.0702	26.31	1.04	-0.750			
0.9542	61071.92	3.1710	3.1710	-0.0690	26.31	1.04	-0.750			
0.9545	61085.08	3.1680	3.1680	-0.0679	26.31	1.04	-0.750			
0.9547	61098.00	3.1650	3.1650	-0.0667	26.31	1.04	-0.750			
0.9549	61110.63	3.1620	3.1620	-0.0658	26.31	1.04	-0.750			
0.9550	61123.13	3.1590	3.1591	-0.0648	26.32	1.05	-0.750			
0.9552	61135.47	3.1560	3.1560	-0.0638	26.32	1.05	-0.750			
0.9554	61147.64	3.1530	3.1529	-0.0628	26.32	1.05	-0.750			
0.9556	61159.54	3.1500	3.1499	-0.0618	26.32	1.05	-0.750			
0.9558	61171.32	3.1470	3.1471	-0.0609	26.32	1.05	-0.750			
0.9560	61182.91	3.1440	3.1441	-0.0601	26.32	1.05	-0.750			
0.9562	61194.39	3.1410	3.1410	-0.0593	26.32	1.05	-0.750			
0.9563	61205.69	3.1380	3.1380	-0.0584	26.32	1.05	-0.750			
0.9565	61216.81	3.1350	3.1350	-0.0575	26.32	1.05	-0.750			
0.9567	61227.66	3.1320	3.1319	-0.0567	26.33	1.06	-0.750			
0.9569	61238.47	3.1290	3.1291	-0.0560	26.33	1.06	-0.750			
0.9570	61249.14	3.1260	3.1260	-0.0552	26.33	1.06	-0.750			
0.9572	61259.69	3.1230	3.1231	-0.0546	26.33	1.06	-0.750			
0.9573	61270.09	3.1200	3.1200	-0.0539	26.33	1.06	-0.750			
0.9575	61280.37	3.1170	3.1170	-0.0531	26.33	1.06	-0.750			
0.9577	61290.44	3.1140	3.1139	-0.0524	26.33	1.06	-0.750			
0.9578	61300.45	3.1110	3.1111	-0.0518	26.33	1.06	-0.750			
0.9580	61310.34	3.1080	3.1080	-0.0512	26.33	1.06	-0.750			
0.9581	61320.11	3.1050	3.1049	-0.0506	26.33	1.06	-0.750			
0.9583	61329.76	3.1020	3.1020	-0.0500	26.34	1.07	-0.750			
0.9584	61339.29	3.0990	3.0992	-0.0493	26.34	1.07	-0.750			
0.9586	61348.71	3.0960	3.0960	-0.0487	26.34	1.07	-0.750			
0.9587	61358.03	3.0930	3.0930	-0.0481	26.34	1.07	-0.750			
0.9589	61367.16	3.0900	3.0900	-0.0476	26.34	1.07	-0.750			
0.9590	61376.25	3.0870	3.0870	-0.0471	26.34	1.07	-0.750			
0.9591	61385.23	3.0840	3.0839	-0.0465	26.34	1.07	-0.750			
0.9593	61394.04	3.0810	3.0811	-0.0459	26.34	1.07	-0.750			
0.9594	61402.82	3.0780	3.0781	-0.0455	26.34	1.07	-0.750			
0.9596	61411.50	3.0750	3.0750	-0.0450	26.34	1.07	-0.750			
0.9597	61420.09	3.0720	3.0720	-0.0445	26.34	1.07	-0.750			
0.9598	61428.60	3.0690	3.0691	-0.0440	26.35	1.08	-0.750			
0.9599	61436.30	3.0660	3.0662	-0.0453	26.35	1.08	-0.750			
0.9601	61445.05	3.0630	3.0631	-0.0458	26.35	1.08	-0.750			
0.9602	61453.90	3.0600	3.0598	-0.0464	26.35	1.08	-0.750			
0.9604	61463.59	3.0570	3.0562	-0.0451	26.35	1.08	-0.750			
0.9605	61472.19	3.0540	3.0531	-0.0445	26.35	1.08	-0.750			
0.9606	61480.69	3.0510	3.0499	-0.0440	26.35	1.08	-0.750			
0.9608	61489.08	3.0480	3.0488	-0.0434	26.35	1.08	-0.750	0.477	0.880	
0.9609	61499.48	3.0450	3.0484	-0.0439	26.35	1.08	-0.750			
0.9610	61506.66	3.0420	3.0437	-0.0426	26.35	1.08	-0.750			
0.9612	61514.71	3.0390	3.0397	-0.0412	26.35	1.08	-0.750			
0.9613	61521.84	3.0360	3.0362	-0.0388	26.35	1.08	-0.750			
0.9614	61529.21	3.0330	3.0329	-0.0380	26.36	1.09	-0.750			
0.9615	61536.42	3.0300	3.0299	-0.0371	26.36	1.09	-0.750			
0.9616	61543.18	3.0270	3.0269	-0.0371	26.36	1.09	-0.750			
0.9617	61550.26	3.0240	3.0237	-0.0366	26.36	1.09	-0.750			
0.9618	61556.74	3.0210	3.0209	-0.0357	26.36	1.09	-0.750			
0.9619	61563.58	3.0180	3.0180	-0.0356	26.36	1.09	-0.750			
0.9620	61570.41	3.0150	3.0151	-0.0356	26.36	1.09	-0.750			
0.9621	61577.24	3.0120	3.0122	-0.0355	26.36	1.09	-0.750			
0.9623	61584.05	3.0090	3.0090	-0.0355	26.36	1.09	-0.750			
0.9624	61590.85	3.0060	3.0060	-0.0354	26.36	1.09	-0.750			
