Ah_balance (normalized)	Ah_balance (mAh)	Voltage - fit (V)	Voltage -  interpolate (V)	dQ/dV (1/V)	Temperature (°C)	Temperature - diff (°C)	Current (C)	R_DC 0ms (mOhm)	R_DC 50ms (mOhm)	R_DC 50 ms PEC (mOhm)
0.1980	12672.26	3.9370	3.9372	-0.1128	25.59	0.01	-0.750			
0.1984	12698.93	3.9340	3.9339	-0.1623	25.59	0.01	-0.750			
0.1990	12734.30	3.9310	3.9310	-0.2080	25.59	0.01	-0.750			
0.1997	12779.25	3.9280	3.9280	-0.2536	25.59	0.01	-0.750			
0.2005	12832.40	3.9250	3.9250	-0.2975	25.59	0.01	-0.750			
0.2015	12894.02	3.9220	3.9220	-0.3394	25.59	0.01	-0.750			
0.2026	12963.74	3.9190	3.9191	-0.3837	25.58	0.00	-0.750			
0.2038	13042.39	3.9160	3.9160	-0.4219	25.58	0.00	-0.750			
0.2051	13127.94	3.9130	3.9130	-0.4572	25.58	0.00	-0.750			
0.2066	13219.76	3.9100	3.9100	-0.4911	25.58	0.00	-0.750			
0.2081	13317.83	3.9070	3.9072	-0.5216	25.58	-0.00	-0.750			
0.2097	13421.55	3.9040	3.9040	-0.5506	25.58	-0.00	-0.750			
0.2114	13530.59	3.9010	3.9010	-0.5739	25.58	-0.00	-0.750			
0.2132	13644.05	3.8980	3.8980	-0.5933	25.58	-0.00	-0.750			
0.2150	13761.41	3.8950	3.8950	-0.6113	25.57	-0.01	-0.750			
0.2169	13880.24	3.8920	3.8921	-0.6236	25.57	-0.01	-0.750			
0.2188	14001.78	3.8890	3.8890	-0.6340	25.57	-0.01	-0.750			
0.2207	14124.45	3.8860	3.8859	-0.6434	25.57	-0.01	-0.750			
0.2226	14248.89	3.8830	3.8830	-0.6508	25.57	-0.01	-0.750			
0.2246	14374.43	3.8800	3.8801	-0.6607	25.57	-0.01	-0.750			
0.2266	14503.41	3.8770	3.8770	-0.6685	25.57	-0.01	-0.750			
0.2286	14632.31	3.8740	3.8740	-0.6717	25.57	-0.01	-0.750			
0.2307	14762.63	3.8710	3.8710	-0.6753	25.57	-0.01	-0.750			
0.2327	14893.15	3.8680	3.8682	-0.6784	25.57	-0.01	-0.750			
0.2347	15022.82	3.8650	3.8650	-0.6804	25.57	-0.01	-0.750			
0.2368	15153.97	3.8620	3.8620	-0.6824	25.57	-0.01	-0.750			
0.2388	15284.77	3.8590	3.8589	-0.6825	25.57	-0.01	-0.750			
0.2409	15415.73	3.8560	3.8560	-0.6872	25.58	-0.00	-0.750			
0.2429	15548.23	3.8530	3.8530	-0.6872	25.58	-0.00	-0.750			
0.2450	15681.36	3.8500	3.8499	-0.6893	25.58	-0.00	-0.750			
0.2471	15813.15	3.8470	3.8470	-0.6899	25.58	0.00	-0.750			
0.2491	15945.57	3.8440	3.8440	-0.6894	25.58	0.00	-0.750			
0.2512	16078.21	3.8410	3.8410	-0.6897	25.58	0.00	-0.750			
0.2533	16210.22	3.8380	3.8380	-0.6911	25.59	0.01	-0.750			
0.2554	16342.83	3.8350	3.8350	-0.6903	25.59	0.01	-0.750			
0.2574	16475.95	3.8320	3.8320	-0.6933	25.59	0.01	-0.750			
0.2595	16609.21	3.8290	3.8290	-0.6924	25.59	0.01	-0.750			
0.2616	16741.68	3.8260	3.8260	-0.6932	25.59	0.01	-0.750			
0.2637	16875.25	3.8230	3.8230	-0.6964	25.59	0.01	-0.750			
0.2658	17009.23	3.8200	3.8200	-0.6963	25.60	0.02	-0.750			
0.2679	17143.23	3.8170	3.8169	-0.6936	25.60	0.02	-0.750			
0.2699	17276.76	3.8140	3.8141	-0.6936	25.60	0.02	-0.750			
0.2720	17408.79	3.8110	3.8111	-0.6936	25.60	0.02	-0.750			
0.2741	17542.39	3.8080	3.8079	-0.6933	25.61	0.03	-0.750			
0.2762	17675.17	3.8050	3.8050	-0.6923	25.61	0.03	-0.750			
0.2782	17807.97	3.8020	3.8020	-0.6938	25.61	0.03	-0.750			
0.2803	17942.09	3.7990	3.7990	-0.6972	25.62	0.04	-0.750			
0.2824	18076.71	3.7960	3.7960	-0.6962	25.62	0.04	-0.750			
0.2845	18210.10	3.7930	3.7929	-0.6936	25.62	0.04	-0.750			
0.2866	18342.84	3.7900	3.7900	-0.6922	25.62	0.04	-0.750			
0.2887	18474.93	3.7870	3.7871	-0.6964	25.62	0.04	-0.750			
0.2908	18608.39	3.7840	3.7840	-0.6969	25.62	0.04	-0.750			
0.2929	18742.53	3.7810	3.7809	-0.6985	25.62	0.04	-0.750			
0.2950	18877.22	3.7780	3.7780	-0.7007	25.62	0.04	-0.750			
0.2971	19012.67	3.7750	3.7751	-0.7069	25.62	0.04	-0.750			
0.2992	19147.97	3.7720	3.7721	-0.7119	25.62	0.04	-0.750			
0.3013	19284.86	3.7690	3.7689	-0.7163	25.62	0.04	-0.750			
0.3035	19422.98	3.7660	3.7660	-0.7180	25.63	0.05	-0.750			
0.3057	19561.98	3.7630	3.7630	-0.7240	25.63	0.05	-0.750			
0.3078	19701.20	3.7600	3.7602	-0.7272	25.63	0.05	-0.750			
0.3100	19842.02	3.7570	3.7569	-0.7306	25.63	0.05	-0.750			
0.3122	19981.04	3.7540	3.7540	-0.7329	25.63	0.05	-0.750			
0.3144	20122.79	3.7510	3.7510	-0.7309	25.63	0.05	-0.750			
0.3166	20263.95	3.7480	3.7480	-0.7388	25.63	0.05	-0.750			
0.3188	20405.16	3.7450	3.7449	-0.7438	25.63	0.05	-0.750			
0.3210	20546.82	3.7420	3.7421	-0.7477	25.63	0.05	-0.750			
0.3233	20690.78	3.7390	3.7388	-0.7560	25.63	0.05	-0.750			
0.3256	20836.67	3.7360	3.7360	-0.7656	25.63	0.05	-0.750			
0.3279	20983.15	3.7330	3.7330	-0.7760	25.62	0.04	-0.750			
0.3303	21137.22	3.7300	3.7300	-0.7851	25.62	0.04	-0.750			
0.3326	21287.94	3.7270	3.7270	-0.7895	25.62	0.04	-0.750			
0.3350	21439.96	3.7240	3.7241	-0.7987	25.62	0.04	-0.750			
0.3374	21593.16	3.7210	3.7210	-0.8090	25.62	0.04	-0.750			
0.3398	21749.84	3.7180	3.7179	-0.8176	25.61	0.03	-0.750			
0.3423	21907.62	3.7150	3.7150	-0.8247	25.61	0.03	-0.750			
0.3448	22066.36	3.7120	3.7121	-0.8334	25.61	0.03	-0.750			
0.3473	22227.71	3.7090	3.7090	-0.8494	25.61	0.03	-0.750			
0.3498	22390.37	3.7060	3.7059	-0.8590	25.60	0.02	-0.750			
0.3524	22556.31	3.7030	3.7030	-0.8723	25.60	0.02	-0.750			
0.3551	22724.23	3.7000	3.7000	-0.8861	25.59	0.01	-0.750			
0.3578	22897.87	3.6970	3.6972	-0.9042	25.59	0.01	-0.750			
0.3605	23072.57	3.6940	3.6940	-0.9202	25.58	0.00	-0.750			
0.3633	23248.89	3.6910	3.6910	-0.9389	25.58	-0.00	-0.750			
0.3661	23430.82	3.6880	3.6880	-0.9563	25.57	-0.01	-0.750			
0.3690	23615.95	3.6850	3.6850	-0.9737	25.56	-0.02	-0.750			
0.3719	23804.15	3.6820	3.6821	-0.9982	25.56	-0.02	-0.750			
0.3750	23998.24	3.6790	3.6791	-1.0220	25.55	-0.03	-0.750			
0.3781	24197.57	3.6760	3.6758	-1.0420	25.55	-0.03	-0.750			
0.3812	24397.88	3.6730	3.6730	-1.0618	25.54	-0.04	-0.750			
0.3844	24604.23	3.6700	3.6701	-1.0883	25.54	-0.04	-0.750			
0.3878	24817.25	3.6670	3.6669	-1.1137	25.53	-0.05	-0.750			
0.3912	25033.68	3.6640	3.6639	-1.1349	25.53	-0.05	-0.750			
0.3945	25250.81	3.6610	3.6611	-1.1566	25.52	-0.06	-0.750			
0.3981	25476.03	3.6580	3.6580	-1.1841	25.52	-0.06	-0.750			
0.4017	25706.89	3.6550	3.6550	-1.2129	25.51	-0.07	-0.750			
0.4053	25941.05	3.6520	3.6519	-1.2386	25.50	-0.08	-0.750			
0.4091	26180.04	3.6490	3.6490	-1.2651	25.50	-0.08	-0.750			
0.4129	26428.09	3.6460	3.6460	-1.2946	25.48	-0.10	-0.750			
0.4169	26679.77	3.6430	3.6430	-1.3165	25.47	-0.11	-0.750			
0.4209	26935.58	3.6400	3.6400	-1.3508	25.46	-0.12	-0.750			
0.4250	27198.25	3.6370	3.6370	-1.3767	25.45	-0.13	-0.750			
0.4291	27464.59	3.6340	3.6339	-1.3999	25.45	-0.13	-0.750			
0.4334	27735.17	3.6310	3.6312	-1.4303	25.44	-0.14	-0.750			
0.4377	28013.48	3.6280	3.6279	-1.4581	25.43	-0.15	-0.750			
0.4421	28295.18	3.6250	3.6250	-1.4870	25.43	-0.15	-0.750			
0.4466	28582.57	3.6220	3.6221	-1.5215	25.42	-0.16	-0.750			
0.4512	28879.48	3.6190	3.6190	-1.5616	25.41	-0.17	-0.750			
0.4560	29183.37	3.6160	3.6159	-1.5872	25.40	-0.18	-0.750			
0.4608	29489.18	3.6130	3.6132	-1.6254	25.40	-0.18	-0.750			
0.4657	29804.81	3.6100	3.6100	-1.6560	25.39	-0.19	-0.750			
0.4707	30126.12	3.6070	3.6071	-1.6915	25.38	-0.20	-0.750			
0.4758	30453.73	3.6040	3.6040	-1.7118	25.38	-0.20	-0.750			
0.4811	30787.24	3.6010	3.6010	-1.7470	25.37	-0.21	-0.750			
0.4863	31124.62	3.5980	3.5980	-1.7663	25.37	-0.21	-0.750			
0.4917	31466.15	3.5950	3.5949	-1.8028	25.36	-0.22	-0.750			
0.4970	31809.45	3.5920	3.5921	-1.8316	25.36	-0.22	-0.750			
0.5026	32167.03	3.5890	3.5889	-1.8743	25.35	-0.23	-0.750			
0.5083	32530.76	3.5860	3.5860	-1.8923	25.34	-0.24	-0.750			
0.5140	32898.45	3.5830	3.5830	-1.9182	25.34	-0.24	-0.750			
0.5198	33267.59	3.5800	3.5801	-1.9624	25.34	-0.24	-0.750			
0.5257	33645.16	3.5770	3.5769	-1.9799	25.34	-0.24	-0.750			
0.5317	34029.93	3.5740	3.5740	-2.0073	25.34	-0.24	-0.750			
0.5378	34421.37	3.5710	3.5708	-2.0424	25.34	-0.24	-0.750	0.389	0.557	
0.5441	34819.30	3.5680	3.5680	-2.0475	25.34	-0.24	-0.750			
0.5502	35210.26	3.5650	3.5650	-2.0488	25.34	-0.24	-0.750			
0.5563	35605.50	3.5620	3.5620	-2.0753	25.34	-0.24	-0.750			
0.5626	36003.51	3.5590	3.5590	-2.0773	25.34	-0.24	-0.750			
0.5688	36406.01	3.5560	3.5560	-2.0921	25.35	-0.23	-0.750			
0.5752	36811.04	3.5530	3.5530	-2.1003	25.35	-0.23	-0.750			
0.5815	37213.04	3.5500	3.5500	-2.0877	25.36	-0.22	-0.750			
0.5878	37617.14	3.5470	3.5470	-2.0826	25.37	-0.21	-0.750			
0.5940	38012.82	3.5440	3.5440	-2.0655	25.38	-0.20	-0.750			
0.6001	38405.63	3.5410	3.5410	-2.0543	25.38	-0.20	-0.750			
0.6062	38798.62	3.5380	3.5379	-2.0460	25.39	-0.19	-0.750			
0.6123	39189.21	3.5350	3.5350	-2.0342	25.40	-0.18	-0.750			
0.6185	39582.35	3.5320	3.5321	-2.0199	25.42	-0.16	-0.750			
0.6246	39974.66	3.5290	3.5289	-1.9971	25.43	-0.15	-0.750			
0.6305	40355.15	3.5260	3.5260	-1.9530	25.44	-0.14	-0.750			
0.6364	40727.30	3.5230	3.5231	-1.9025	25.45	-0.13	-0.750			
0.6420	41090.87	3.5200	3.5198	-1.8547	25.46	-0.12	-0.750			
0.6475	41439.29	3.5170	3.5170	-1.7998	25.48	-0.10	-0.750			
0.6528	41779.05	3.5140	3.5140	-1.7527	25.50	-0.08	-0.750			
0.6579	42108.06	3.5110	3.5111	-1.6963	25.52	-0.06	-0.750			
0.6630	42432.61	3.5080	3.5081	-1.6532	25.53	-0.05	-0.750			
0.6679	42744.72	3.5050	3.5050	-1.6086	25.54	-0.04	-0.750			
0.6726	43048.99	3.5020	3.5019	-1.5613	25.55	-0.03	-0.750			
0.6773	43345.43	3.4990	3.4990	-1.5190	25.57	-0.01	-0.750			
0.6817	43630.45	3.4960	3.4960	-1.4697	25.59	0.01	-0.750			
0.6861	43910.48	3.4930	3.4930	-1.4270	25.61	0.03	-0.750			
0.6903	44181.22	3.4900	3.4900	-1.3869	25.62	0.04	-0.750			
0.6944	44440.79	3.4870	3.4870	-1.3455	25.63	0.05	-0.750			
0.6984	44695.08	3.4840	3.4839	-1.3031	25.64	0.06	-0.750			
0.7022	44940.42	3.4810	3.4810	-1.2676	25.66	0.08	-0.750			
0.7059	45179.13	3.4780	3.4780	-1.2341	25.67	0.09	-0.750			
0.7096	45411.54	3.4750	3.4750	-1.2074	25.69	0.11	-0.750			
0.7132	45642.21	3.4720	3.4719	-1.1816	25.70	0.12	-0.750			
0.7167	45866.07	3.4690	3.4690	-1.1552	25.71	0.13	-0.750			
0.7201	46084.14	3.4660	3.4661	-1.1339	25.72	0.14	-0.750			
0.7235	46301.13	3.4630	3.4630	-1.1277	25.73	0.15	-0.750			
0.7268	46515.06	3.4600	3.4600	-1.1088	25.74	0.16	-0.750			
0.7301	46726.82	3.4570	3.4569	-1.0973	25.75	0.17	-0.750			
0.7334	46935.10	3.4540	3.4542	-1.0893	25.76	0.18	-0.750			
0.7366	47144.51	3.4510	3.4509	-1.0859	25.77	0.19	-0.750			
0.7399	47351.56	3.4480	3.4479	-1.0802	25.77	0.19	-0.750			
0.7431	47556.28	3.4450	3.4450	-1.0727	25.78	0.20	-0.750			
0.7463	47762.92	3.4420	3.4420	-1.0728	25.78	0.20	-0.750			
0.7495	47970.20	3.4390	3.4390	-1.0643	25.79	0.21	-0.750			
0.7527	48174.17	3.4360	3.4360	-1.0557	25.80	0.22	-0.750			
0.7559	48375.91	3.4330	3.4329	-1.0439	25.81	0.23	-0.750			
0.7590	48574.55	3.4300	3.4300	-1.0363	25.82	0.24	-0.750			
0.7621	48773.53	3.4270	3.4270	-1.0227	25.83	0.25	-0.750			
0.7651	48968.98	3.4240	3.4240	-1.0104	25.84	0.26	-0.750			
0.7681	49161.19	3.4210	3.4210	-0.9955	25.84	0.26	-0.750			
0.7711	49352.63	3.4180	3.4181	-0.9853	25.85	0.27	-0.750			
0.7741	49540.72	3.4150	3.4149	-0.9684	25.85	0.27	-0.750			
0.7770	49725.71	3.4120	3.4120	-0.9506	25.86	0.28	-0.750			
0.7798	49907.05	3.4090	3.4090	-0.9274	25.86	0.28	-0.750			
0.7826	50084.72	3.4060	3.4061	-0.9074	25.86	0.28	-0.750			
0.7853	50256.18	3.4030	3.4030	-0.8836	25.87	0.29	-0.750			
0.7879	50423.14	3.4000	3.4000	-0.8612	25.88	0.30	-0.750			
0.7904	50586.42	3.3970	3.3969	-0.8345	25.88	0.30	-0.750			
0.7929	50744.62	3.3940	3.3940	-0.8093	25.89	0.31	-0.750			
0.7953	50899.17	3.3910	3.3911	-0.7832	25.90	0.32	-0.750			
0.7976	51047.57	3.3880	3.3880	-0.7522	25.90	0.32	-0.750			
0.7998	51188.73	3.3850	3.3850	-0.7228	25.91	0.33	-0.750			
0.8019	51324.09	3.3820	3.3820	-0.6918	25.91	0.33	-0.750			
0.8040	51454.18	3.3790	3.3790	-0.6619	25.91	0.33	-0.750			
0.8059	51578.17	3.3760	3.3759	-0.6323	25.92	0.34	-0.750			
0.8078	51696.30	3.3730	3.3732	-0.6023	25.92	0.34	-0.750			
0.8095	51809.22	3.3700	3.3700	-0.5734	25.93	0.35	-0.750			
0.8112	51916.31	3.3670	3.3670	-0.5481	25.93	0.35	-0.750			
0.8128	52017.99	3.3640	3.3640	-0.5205	25.94	0.36	-0.750			
0.8143	52115.21	3.3610	3.3610	-0.4967	25.94	0.36	-0.750			
0.8158	52208.40	3.3580	3.3580	-0.4731	25.95	0.37	-0.750			
0.8171	52296.61	3.3550	3.3550	-0.4505	25.95	0.37	-0.750			
0.8184	52380.69	3.3520	3.3520	-0.4316	25.95	0.37	-0.750			
0.8197	52460.65	3.3490	3.3490	-0.4138	25.96	0.38	-0.750			
0.8209	52537.88	3.3460	3.3460	-0.3969	25.96	0.38	-0.750			
0.8221	52613.13	3.3430	3.3429	-0.3802	25.97	0.39	-0.750			
0.8232	52684.49	3.3400	3.3400	-0.3655	25.97	0.39	-0.750			
0.8243	52753.13	3.3370	3.3371	-0.3526	25.98	0.40	-0.750			
0.8253	52819.17	3.3340	3.3339	-0.3383	25.98	0.40	-0.750			
0.8263	52881.94	3.3310	3.3309	-0.3246	25.99	0.41	-0.750			
0.8272	52943.13	3.3280	3.3281	-0.3140	25.99	0.41	-0.750			
0.8282	53002.18	3.3250	3.3250	-0.3052	26.00	0.42	-0.750			
0.8291	53060.20	3.3220	3.3220	-0.2959	26.00	0.42	-0.750			
0.8299	53115.25	3.3190	3.3190	-0.2867	26.01	0.43	-0.750			
0.8308	53169.60	3.3160	3.3160	-0.2792	26.01	0.43	-0.750			
0.8316	53222.70	3.3130	3.3130	-0.2722	26.01	0.43	-0.750			
0.8324	53274.06	3.3100	3.3100	-0.2655	26.02	0.44	-0.750			
0.8332	53324.43	3.3070	3.3070	-0.2583	26.02	0.44	-0.750			
0.8340	53373.23	3.3040	3.3040	-0.2512	26.03	0.45	-0.750			
0.8347	53421.10	3.3010	3.3009	-0.2446	26.03	0.45	-0.750			
0.8354	53466.70	3.2980	3.2981	-0.2381	26.03	0.45	-0.750			
0.8361	53512.01	3.2950	3.2949	-0.2328	26.04	0.46	-0.750			
0.8368	53556.17	3.2920	3.2920	-0.2272	26.04	0.46	-0.750			
0.8375	53598.86	3.2890	3.2889	-0.2229	26.04	0.46	-0.750			
0.8381	53640.80	3.2860	3.2861	-0.2185	26.05	0.47	-0.750			
0.8388	53682.39	3.2830	3.2829	-0.2159	26.05	0.47	-0.750			
0.8394	53723.57	3.2800	3.2800	-0.2130	26.05	0.47	-0.750			
0.8401	53764.28	3.2770	3.2770	-0.2091	26.06	0.48	-0.750			
0.8407	53804.11	3.2740	3.2740	-0.2048	26.06	0.48	-0.750			
0.8413	53843.26	3.2710	3.2711	-0.2021	26.06	0.48	-0.750			
0.8419	53881.66	3.2680	3.2681	-0.1980	26.06	0.48	-0.750			
0.8425	53919.00	3.2650	3.2650	-0.1952	26.07	0.49	-0.750			
0.8431	53956.00	3.2620	3.2619	-0.1921	26.07	0.49	-0.750			
0.8436	53992.48	3.2590	3.2590	-0.1886	26.07	0.49	-0.750			
0.8442	54028.46	3.2560	3.2560	-0.1863	26.07	0.49	-0.750			
0.8448	54064.21	3.2530	3.2531	-0.1845	26.08	0.50	-0.750			
0.8453	54099.60	3.2500	3.2500	-0.1818	26.08	0.50	-0.750			
0.8458	54133.92	3.2470	3.2469	-0.1790	26.08	0.50	-0.750			
0.8464	54168.07	3.2440	3.2440	-0.1767	26.09	0.51	-0.750			
0.8469	54201.64	3.2410	3.2411	-0.1741	26.09	0.51	-0.750			
0.8474	54234.90	3.2380	3.2380	-0.1723	26.10	0.52	-0.750			
0.8479	54267.73	3.2350	3.2350	-0.1704	26.10	0.52	-0.750			
0.8484	54300.25	3.2320	3.2320	-0.1684	26.11	0.53	-0.750			
0.8489	54332.19	3.2290	3.2290	-0.1664	26.11	0.53	-0.750			
0.8494	54364.05	3.2260	3.2260	-0.1651	26.11	0.53	-0.750			
0.8499	54395.57	3.2230	3.2230	-0.1630	26.12	0.54	-0.750			
0.8504	54426.72	3.2200	3.2200	-0.1614	26.12	0.54	-0.750			
0.8509	54457.74	3.2170	3.2170	-0.1598	26.13	0.55	-0.750			
0.8514	54488.12	3.2140	3.2140	-0.1582	26.13	0.55	-0.750			
0.8518	54518.28	3.2110	3.2110	-0.1565	26.13	0.55	-0.750			
0.8523	54548.18	3.2080	3.2080	-0.1550	26.14	0.56	-0.750			
0.8528	54577.76	3.2050	3.2050	-0.1535	26.14	0.56	-0.750			
0.8532	54607.13	3.2020	3.2020	-0.1515	26.14	0.56	-0.750			
0.8537	54636.04	3.1990	3.1990	-0.1505	26.15	0.57	-0.750			
0.8541	54664.78	3.1960	3.1960	-0.1489	26.15	0.57	-0.750			
0.8546	54693.15	3.1930	3.1930	-0.1477	26.16	0.58	-0.750			
0.8550	54721.34	3.1900	3.1899	-0.1459	26.16	0.58	-0.750			
0.8555	54749.17	3.1870	3.1870	-0.1448	26.16	0.58	-0.750			
0.8559	54776.87	3.1840	3.1840	-0.1437	26.17	0.59	-0.750			
0.8563	54804.44	3.1810	3.1810	-0.1424	26.17	0.59	-0.750			
0.8567	54831.83	3.1780	3.1779	-0.1413	26.17	0.59	-0.750			
0.8572	54858.56	3.1750	3.1750	-0.1396	26.18	0.60	-0.750			
0.8576	54885.26	3.1720	3.1720	-0.1386	26.18	0.60	-0.750			
0.8580	54911.71	3.1690	3.1690	-0.1378	26.17	0.59	-0.750			
0.8584	54938.14	3.1660	3.1660	-0.1370	26.18	0.60	-0.750			
0.8588	54964.39	3.1630	3.1630	-0.1358	26.18	0.60	-0.750			
0.8592	54990.28	3.1600	3.1600	-0.1344	26.18	0.60	-0.750			
0.8596	55016.14	3.1570	3.1570	-0.1335	26.19	0.61	-0.750			
0.8600	55041.64	3.1540	3.1540	-0.1321	26.19	0.61	-0.750			
0.8604	55066.82	3.1510	3.1510	-0.1312	26.19	0.61	-0.750			
0.8608	55091.88	3.1480	3.1480	-0.1299	26.20	0.62	-0.750			
0.8612	55116.63	3.1450	3.1449	-0.1286	26.20	0.62	-0.750			
0.8616	55141.24	3.1420	3.1421	-0.1277	26.20	0.62	-0.750			
0.8620	55165.74	3.1390	3.1390	-0.1268	26.21	0.63	-0.750			
0.8623	55189.95	3.1360	3.1360	-0.1259	26.21	0.63	-0.750			
0.8627	55214.02	3.1330	3.1329	-0.1249	26.21	0.63	-0.750			
0.8631	55237.88	3.1300	3.1300	-0.1240	26.22	0.64	-0.750			
0.8635	55261.49	3.1270	3.1270	-0.1230	26.22	0.64	-0.750			
0.8638	55285.13	3.1240	3.1240	-0.1217	26.22	0.64	-0.750			
0.8642	55308.60	3.1210	3.1210	-0.1208	26.23	0.65	-0.750			
0.8646	55331.56	3.1180	3.1180	-0.1201	26.23	0.65	-0.750			
0.8649	55354.46	3.1150	3.1151	-0.1191	26.23	0.65	-0.750			
0.8653	55377.14	3.1120	3.1119	-0.1182	26.24	0.66	-0.750			
0.8656	55399.76	3.1090	3.1090	-0.1175	26.24	0.66	-0.750			
0.8660	55422.19	3.1060	3.1060	-0.1167	26.24	0.66	-0.750			
0.8663	55444.53	3.1030	3.1031	-0.1161	26.24	0.66	-0.750			
0.8667	55466.87	3.1000	3.1000	-0.1159	26.25	0.67	-0.750			
0.8670	55489.05	3.0970	3.0970	-0.1152	26.25	0.67	-0.750			
0.8674	55511.12	3.0940	3.0940	-0.1140	26.25	0.67	-0.750			
0.8677	55532.94	3.0910	3.0910	-0.1132	26.26	0.68	-0.750			
0.8680	55554.72	3.0880	3.0880	-0.1125	26.26	0.68	-0.750			
0.8684	55576.15	3.0850	3.0851	-0.1116	26.26	0.68	-0.750			
0.8687	55597.49	3.0820	3.0820	-0.1107	26.27	0.69	-0.750			
0.8690	55618.61	3.0790	3.0790	-0.1098	26.27	0.69	-0.750			
0.8694	55639.47	3.0760	3.0760	-0.1087	26.27	0.69	-0.750			
0.8697	55660.35	3.0730	3.0730	-0.1078	26.27	0.69	-0.750			
0.8700	55681.10	3.0700	3.0700	-0.1072	26.28	0.70	-0.750			
0.8703	55701.45	3.0670	3.0670	-0.1067	26.28	0.70	-0.750			
0.8707	55721.79	3.0640	3.0641	-0.1059	26.28	0.70	-0.750			
0.8710	55742.14	3.0610	3.0609	-0.1052	26.29	0.71	-0.750			
0.8713	55762.23	3.0580	3.0579	-0.1045	26.29	0.71	-0.750			
0.8716	55782.26	3.0550	3.0550	-0.1039	26.29	0.71	-0.750			
0.8719	55802.18	3.0520	3.0521	-0.1033	26.30	0.72	-0.750			
0.8722	55821.97	3.0490	3.0490	-0.1026	26.30	0.72	-0.750			
0.8725	55841.72	3.0460	3.0460	-0.1020	26.30	0.72	-0.750			
0.8728	55861.21	3.0430	3.0429	-0.1012	26.30	0.72	-0.750			
0.8731	55880.45	3.0400	3.0400	-0.1002	26.31	0.73	-0.750			
0.8734	55899.61	3.0370	3.0371	-0.0996	26.31	0.73	-0.750			
0.8737	55918.73	3.0340	3.0340	-0.0990	26.31	0.73	-0.750			
0.8740	55937.54	3.0310	3.0310	-0.0986	26.32	0.74	-0.750			
0.8743	55956.28	3.0280	3.0279	-0.0980	26.32	0.74	-0.750			
0.8746	55975.19	3.0250	3.0250	-0.0973	26.32	0.74	-0.750			
0.8749	55993.85	3.0220	3.0219	-0.0968	26.32	0.74	-0.750			
0.8752	56012.43	3.0190	3.0191	-0.0961	26.33	0.75	-0.750			
0.8755	56030.95	3.0160	3.0160	-0.0956	26.33	0.75	-0.750			
0.8758	56049.23	3.0130	3.0131	-0.0948	26.33	0.75	-0.750			
0.8761	56067.45	3.0100	3.0099	-0.0938	26.34	0.76	-0.750			
0.8763	56085.35	3.0070	3.0070	-0.0926	26.34	0.76	-0.750			
0.8766	56103.07	3.0040	3.0040	-0.0936	26.34	0.76	-0.750			
