Ah_balance (normalized)	Ah_balance (mAh)	Voltage - fit (V)	Voltage -  interpolate (V)	dQ/dV (1/V)	Temperature (°C)	Temperature - diff (°C)	Current (C)	R_DC 0ms (mOhm)	R_DC 50ms (mOhm)	R_DC 50 ms PEC (mOhm)
0.1957	12527.21	3.9350	3.9348	-0.1514	25.59	0.01	-0.750			
0.1963	12561.53	3.9320	3.9319	-0.2016	25.59	0.01	-0.750			
0.1970	12605.57	3.9290	3.9289	-0.2487	25.59	0.01	-0.750			
0.1978	12658.05	3.9260	3.9261	-0.2934	25.59	0.01	-0.750			
0.1987	12718.79	3.9230	3.9231	-0.3371	25.59	0.01	-0.750			
0.1998	12789.03	3.9200	3.9200	-0.3797	25.59	0.01	-0.750			
0.2010	12865.89	3.9170	3.9170	-0.4206	25.58	0.00	-0.750			
0.2024	12951.13	3.9140	3.9140	-0.4601	25.58	0.00	-0.750			
0.2038	13043.91	3.9110	3.9110	-0.4975	25.58	0.00	-0.750			
0.2054	13144.02	3.9080	3.9080	-0.5294	25.58	-0.00	-0.750			
0.2070	13250.25	3.9050	3.9051	-0.5593	25.58	-0.00	-0.750			
0.2088	13361.23	3.9020	3.9020	-0.5812	25.57	-0.01	-0.750			
0.2106	13475.75	3.8990	3.8990	-0.6022	25.57	-0.01	-0.750			
0.2124	13594.01	3.8960	3.8960	-0.6189	25.57	-0.01	-0.750			
0.2143	13715.46	3.8930	3.8930	-0.6287	25.56	-0.02	-0.750			
0.2162	13837.93	3.8900	3.8901	-0.6424	25.56	-0.02	-0.750			
0.2182	13962.67	3.8870	3.8870	-0.6505	25.56	-0.02	-0.750			
0.2201	14088.76	3.8840	3.8840	-0.6577	25.56	-0.02	-0.750			
0.2221	14214.98	3.8810	3.8810	-0.6672	25.56	-0.02	-0.750			
0.2241	14343.43	3.8780	3.8781	-0.6739	25.56	-0.02	-0.750			
0.2262	14474.95	3.8750	3.8749	-0.6819	25.56	-0.02	-0.750			
0.2282	14607.19	3.8720	3.8720	-0.6874	25.56	-0.02	-0.750			
0.2303	14739.50	3.8690	3.8691	-0.6895	25.56	-0.02	-0.750			
0.2324	14873.35	3.8660	3.8660	-0.6936	25.56	-0.02	-0.750			
0.2345	15006.93	3.8630	3.8630	-0.6957	25.56	-0.02	-0.750			
0.2366	15139.75	3.8600	3.8600	-0.6953	25.56	-0.02	-0.750			
0.2387	15274.31	3.8570	3.8570	-0.6980	25.56	-0.02	-0.750			
0.2408	15408.37	3.8540	3.8540	-0.6985	25.56	-0.02	-0.750			
0.2429	15542.98	3.8510	3.8510	-0.6995	25.56	-0.02	-0.750			
0.2450	15677.02	3.8480	3.8480	-0.6997	25.57	-0.01	-0.750			
0.2471	15811.42	3.8450	3.8450	-0.7023	25.57	-0.01	-0.750			
0.2492	15946.57	3.8420	3.8420	-0.7017	25.57	-0.01	-0.750			
0.2513	16081.96	3.8390	3.8389	-0.6997	25.58	-0.00	-0.750			
0.2534	16215.81	3.8360	3.8361	-0.6994	25.58	-0.00	-0.750			
0.2555	16349.58	3.8330	3.8330	-0.6990	25.58	0.00	-0.750			
0.2575	16482.97	3.8300	3.8299	-0.7008	25.58	0.00	-0.750			
0.2597	16618.50	3.8270	3.8270	-0.7003	25.58	0.00	-0.750			
0.2618	16752.24	3.8240	3.8240	-0.6978	25.58	0.00	-0.750			
0.2639	16888.56	3.8210	3.8210	-0.7013	25.58	0.00	-0.750			
0.2660	17022.92	3.8180	3.8181	-0.7010	25.58	0.00	-0.750			
0.2681	17156.50	3.8150	3.8149	-0.6966	25.58	0.00	-0.750			
0.2702	17289.91	3.8120	3.8120	-0.6967	25.58	0.00	-0.750			
0.2722	17422.74	3.8090	3.8090	-0.6944	25.58	0.00	-0.750			
0.2743	17556.95	3.8060	3.8060	-0.6954	25.59	0.01	-0.750			
0.2764	17691.40	3.8030	3.8030	-0.6952	25.59	0.01	-0.750			
0.2785	17824.72	3.8000	3.7999	-0.6895	25.59	0.01	-0.750			
0.2806	17955.90	3.7970	3.7970	-0.6906	25.59	0.01	-0.750			
0.2826	18088.89	3.7940	3.7941	-0.6920	25.59	0.01	-0.750			
0.2847	18220.29	3.7910	3.7910	-0.6945	25.59	0.01	-0.750			
0.2868	18354.18	3.7880	3.7880	-0.6992	25.60	0.02	-0.750			
0.2889	18489.76	3.7850	3.7850	-0.7007	25.60	0.02	-0.750			
0.2910	18624.67	3.7820	3.7820	-0.7033	25.60	0.02	-0.750			
0.2931	18760.99	3.7790	3.7790	-0.7088	25.60	0.02	-0.750			
0.2953	18896.39	3.7760	3.7760	-0.7064	25.60	0.02	-0.750			
0.2974	19031.42	3.7730	3.7730	-0.7098	25.60	0.02	-0.750			
0.2995	19167.18	3.7700	3.7700	-0.7127	25.60	0.02	-0.750			
0.3016	19304.89	3.7670	3.7670	-0.7194	25.60	0.02	-0.750			
0.3038	19443.92	3.7640	3.7640	-0.7244	25.60	0.02	-0.750			
0.3060	19583.22	3.7610	3.7610	-0.7286	25.60	0.02	-0.750			
0.3082	19723.91	3.7580	3.7580	-0.7321	25.60	0.02	-0.750			
0.3104	19865.45	3.7550	3.7550	-0.7407	25.60	0.02	-0.750			
0.3126	20007.73	3.7520	3.7520	-0.7438	25.60	0.02	-0.750			
0.3149	20151.12	3.7490	3.7489	-0.7482	25.60	0.02	-0.750			
0.3171	20294.87	3.7460	3.7461	-0.7531	25.60	0.02	-0.750			
0.3194	20440.21	3.7430	3.7430	-0.7592	25.60	0.02	-0.750			
0.3217	20586.21	3.7400	3.7400	-0.7660	25.60	0.02	-0.750			
0.3240	20733.25	3.7370	3.7370	-0.7701	25.59	0.01	-0.750			
0.3263	20882.60	3.7340	3.7340	-0.7802	25.59	0.01	-0.750			
0.3286	21033.54	3.7310	3.7310	-0.7875	25.59	0.01	-0.750			
0.3310	21185.52	3.7280	3.7280	-0.7943	25.59	0.01	-0.750			
0.3334	21338.33	3.7250	3.7250	-0.8042	25.59	0.01	-0.750			
0.3358	21492.65	3.7220	3.7220	-0.8139	25.59	0.01	-0.750			
0.3383	21649.92	3.7190	3.7190	-0.8226	25.59	0.01	-0.750			
0.3408	21809.21	3.7160	3.7160	-0.8336	25.59	0.01	-0.750			
0.3433	21969.31	3.7130	3.7130	-0.8471	25.59	0.01	-0.750			
0.3458	22133.13	3.7100	3.7100	-0.8615	25.58	0.00	-0.750			
0.3484	22299.82	3.7070	3.7070	-0.8732	25.58	-0.00	-0.750			
0.3511	22467.64	3.7040	3.7040	-0.8873	25.57	-0.01	-0.750			
0.3538	22640.81	3.7010	3.7011	-0.9021	25.57	-0.01	-0.750			
0.3565	22816.08	3.6980	3.6980	-0.9170	25.57	-0.01	-0.750			
0.3593	22993.05	3.6950	3.6950	-0.9285	25.57	-0.01	-0.750			
0.3621	23171.84	3.6920	3.6920	-0.9416	25.56	-0.02	-0.750			
0.3649	23354.03	3.6890	3.6890	-0.9530	25.56	-0.02	-0.750			
0.3678	23538.43	3.6860	3.6860	-0.9697	25.56	-0.02	-0.750			
0.3707	23724.63	3.6830	3.6830	-0.9929	25.56	-0.02	-0.750			
0.3737	23916.68	3.6800	3.6799	-1.0156	25.55	-0.03	-0.750			
0.3768	24114.33	3.6770	3.6769	-1.0361	25.55	-0.03	-0.750			
0.3799	24315.72	3.6740	3.6741	-1.0617	25.55	-0.03	-0.750			
0.3832	24522.38	3.6710	3.6710	-1.0860	25.55	-0.03	-0.750			
0.3865	24733.63	3.6680	3.6680	-1.1105	25.54	-0.04	-0.750			
0.3898	24946.60	3.6650	3.6649	-1.1265	25.54	-0.04	-0.750			
0.3932	25166.68	3.6620	3.6621	-1.1567	25.54	-0.04	-0.750			
0.3967	25390.48	3.6590	3.6590	-1.1822	25.53	-0.05	-0.750			
0.4003	25620.06	3.6560	3.6559	-1.2096	25.53	-0.05	-0.750			
0.4040	25854.28	3.6530	3.6531	-1.2353	25.52	-0.06	-0.750			
0.4077	26094.53	3.6500	3.6500	-1.2643	25.51	-0.07	-0.750			
0.4116	26340.50	3.6470	3.6470	-1.2912	25.51	-0.07	-0.750			
0.4155	26591.44	3.6440	3.6440	-1.3225	25.50	-0.08	-0.750			
0.4195	26847.93	3.6410	3.6410	-1.3510	25.50	-0.08	-0.750			
0.4236	27109.95	3.6380	3.6380	-1.3774	25.49	-0.09	-0.750			
0.4278	27376.73	3.6350	3.6350	-1.4097	25.48	-0.10	-0.750			
0.4320	27650.74	3.6320	3.6320	-1.4383	25.48	-0.10	-0.750			
0.4364	27930.23	3.6290	3.6290	-1.4716	25.47	-0.11	-0.750			
0.4409	28215.79	3.6260	3.6261	-1.5030	25.47	-0.11	-0.750			
0.4454	28507.10	3.6230	3.6229	-1.5330	25.47	-0.11	-0.750			
0.4501	28807.13	3.6200	3.6200	-1.5658	25.46	-0.12	-0.750			
0.4548	29109.82	3.6170	3.6170	-1.5958	25.46	-0.12	-0.750			
0.4597	29418.38	3.6140	3.6141	-1.6257	25.45	-0.13	-0.750			
0.4646	29736.56	3.6110	3.6109	-1.6623	25.44	-0.14	-0.750			
0.4696	30057.21	3.6080	3.6079	-1.6963	25.44	-0.14	-0.750			
0.4748	30386.80	3.6050	3.6051	-1.7289	25.44	-0.14	-0.750			
0.4800	30720.88	3.6020	3.6021	-1.7644	25.44	-0.14	-0.750			
0.4854	31064.54	3.5990	3.5991	-1.7912	25.43	-0.15	-0.750			
0.4908	31410.45	3.5960	3.5961	-1.8204	25.43	-0.15	-0.750			
0.4963	31761.04	3.5930	3.5931	-1.8598	25.43	-0.15	-0.750			
0.5020	32124.97	3.5900	3.5899	-1.9000	25.42	-0.16	-0.750			
0.5077	32491.79	3.5870	3.5870	-1.9402	25.42	-0.16	-0.750			
0.5136	32869.97	3.5840	3.5841	-1.9570	25.42	-0.16	-0.750			
0.5196	33251.94	3.5810	3.5809	-1.9856	25.42	-0.16	-0.750			
0.5255	33630.04	3.5780	3.5782	-2.0136	25.42	-0.16	-0.750			
0.5316	34020.23	3.5750	3.5749	-2.0200	25.42	-0.16	-0.750			
0.5377	34412.48	3.5720	3.5721	-2.0417	25.43	-0.15	-0.750	0.391	0.555	
0.5438	34801.20	3.5690	3.5692	-2.0704	25.43	-0.15	-0.750			
0.5501	35205.32	3.5660	3.5659	-2.0889	25.44	-0.14	-0.750			
0.5564	35607.33	3.5630	3.5629	-2.1050	25.44	-0.14	-0.750			
0.5627	36012.99	3.5600	3.5602	-2.1118	25.45	-0.13	-0.750			
0.5692	36425.83	3.5570	3.5570	-2.1207	25.46	-0.12	-0.750			
0.5755	36831.33	3.5540	3.5540	-2.1162	25.46	-0.12	-0.750			
0.5818	37232.43	3.5510	3.5511	-2.1022	25.46	-0.12	-0.750			
0.5881	37638.84	3.5480	3.5480	-2.1001	25.47	-0.11	-0.750			
0.5945	38045.63	3.5450	3.5450	-2.0950	25.48	-0.10	-0.750			
0.6007	38444.06	3.5420	3.5421	-2.0827	25.49	-0.09	-0.750			
0.6069	38843.06	3.5390	3.5391	-2.0745	25.50	-0.08	-0.750			
0.6132	39242.63	3.5360	3.5359	-2.0615	25.51	-0.07	-0.750			
0.6193	39636.93	3.5330	3.5330	-2.0338	25.52	-0.06	-0.750			
0.6254	40026.43	3.5300	3.5301	-1.9893	25.53	-0.05	-0.750			
0.6314	40407.71	3.5270	3.5270	-1.9549	25.55	-0.03	-0.750			
0.6371	40777.09	3.5240	3.5241	-1.9022	25.57	-0.01	-0.750			
0.6428	41139.14	3.5210	3.5210	-1.8468	25.58	0.00	-0.750			
0.6482	41487.89	3.5180	3.5181	-1.8057	25.60	0.02	-0.750			
0.6536	41828.68	3.5150	3.5149	-1.7662	25.62	0.04	-0.750			
0.6588	42164.42	3.5120	3.5119	-1.7211	25.63	0.05	-0.750			
0.6639	42488.66	3.5090	3.5090	-1.6704	25.64	0.06	-0.750			
0.6689	42807.26	3.5060	3.5059	-1.6290	25.66	0.08	-0.750			
0.6737	43116.14	3.5030	3.5031	-1.5794	25.68	0.10	-0.750			
0.6784	43416.44	3.5000	3.4999	-1.5429	25.70	0.12	-0.750			
0.6829	43706.91	3.4970	3.4969	-1.4936	25.72	0.14	-0.750			
0.6873	43986.78	3.4940	3.4939	-1.4430	25.73	0.15	-0.750			
0.6916	44262.80	3.4910	3.4913	-1.4099	25.75	0.17	-0.750			
0.6958	44529.77	3.4880	3.4879	-1.3624	25.77	0.19	-0.750			
0.6998	44787.70	3.4850	3.4849	-1.3191	25.78	0.20	-0.750			
0.7037	45035.07	3.4820	3.4822	-1.2798	25.80	0.22	-0.750			
0.7074	45275.56	3.4790	3.4790	-1.2466	25.82	0.24	-0.750			
0.7111	45511.23	3.4760	3.4759	-1.2078	25.83	0.25	-0.750			
0.7147	45737.71	3.4730	3.4730	-1.1759	25.85	0.27	-0.750			
0.7181	45960.45	3.4700	3.4701	-1.1600	25.87	0.29	-0.750			
0.7216	46180.38	3.4670	3.4670	-1.1401	25.88	0.30	-0.750			
0.7249	46395.57	3.4640	3.4640	-1.1214	25.89	0.31	-0.750			
0.7283	46608.31	3.4610	3.4611	-1.1065	25.91	0.33	-0.750			
0.7316	46820.14	3.4580	3.4580	-1.1020	25.92	0.34	-0.750			
0.7349	47030.80	3.4550	3.4550	-1.1019	25.93	0.35	-0.750			
0.7381	47240.17	3.4520	3.4520	-1.0972	25.94	0.36	-0.750			
0.7414	47449.48	3.4490	3.4490	-1.0937	25.95	0.37	-0.750			
0.7447	47662.67	3.4460	3.4460	-1.0913	25.96	0.38	-0.750			
0.7480	47872.29	3.4430	3.4430	-1.0869	25.98	0.40	-0.750			
0.7513	48081.41	3.4400	3.4400	-1.0790	25.99	0.41	-0.750			
0.7545	48286.80	3.4370	3.4370	-1.0717	26.00	0.42	-0.750			
0.7577	48490.86	3.4340	3.4340	-1.0629	26.01	0.43	-0.750			
0.7609	48695.33	3.4310	3.4310	-1.0508	26.02	0.44	-0.750			
0.7640	48896.62	3.4280	3.4280	-1.0399	26.03	0.45	-0.750			
0.7671	49096.85	3.4250	3.4251	-1.0320	26.04	0.46	-0.750			
0.7702	49292.79	3.4220	3.4219	-1.0170	26.05	0.47	-0.750			
0.7732	49487.95	3.4190	3.4189	-0.9984	26.06	0.48	-0.750			
0.7762	49677.48	3.4160	3.4160	-0.9792	26.06	0.48	-0.750			
0.7791	49864.64	3.4130	3.4132	-0.9634	26.07	0.49	-0.750			
0.7820	50048.34	3.4100	3.4099	-0.9461	26.08	0.50	-0.750			
0.7848	50227.45	3.4070	3.4069	-0.9220	26.08	0.50	-0.750			
0.7875	50402.36	3.4040	3.4041	-0.8980	26.09	0.51	-0.750			
0.7902	50574.67	3.4010	3.4010	-0.8777	26.10	0.52	-0.750			
0.7928	50740.95	3.3980	3.3980	-0.8515	26.10	0.52	-0.750			
0.7953	50901.52	3.3950	3.3949	-0.8197	26.11	0.53	-0.750			
0.7977	51055.99	3.3920	3.3920	-0.7882	26.12	0.54	-0.750			
0.8001	51204.19	3.3890	3.3890	-0.7595	26.13	0.55	-0.750			
0.8023	51347.89	3.3860	3.3860	-0.7309	26.14	0.56	-0.750			
0.8045	51485.31	3.3830	3.3829	-0.7019	26.14	0.56	-0.750			
0.8065	51616.98	3.3800	3.3800	-0.6696	26.15	0.57	-0.750			
0.8085	51742.35	3.3770	3.3770	-0.6411	26.15	0.57	-0.750			
0.8104	51863.26	3.3740	3.3740	-0.6135	26.16	0.58	-0.750			
0.8122	51978.44	3.3710	3.3709	-0.5831	26.17	0.59	-0.750			
0.8139	52086.84	3.3680	3.3680	-0.5529	26.17	0.59	-0.750			
0.8155	52189.61	3.3650	3.3650	-0.5268	26.18	0.60	-0.750			
0.8170	52287.82	3.3620	3.3620	-0.5006	26.18	0.60	-0.750			
0.8185	52381.30	3.3590	3.3590	-0.4777	26.19	0.61	-0.750			
0.8198	52469.83	3.3560	3.3560	-0.4539	26.19	0.61	-0.750			
0.8212	52554.85	3.3530	3.3531	-0.4329	26.20	0.62	-0.750			
0.8224	52635.97	3.3500	3.3500	-0.4147	26.20	0.62	-0.750			
0.8236	52712.87	3.3470	3.3470	-0.3974	26.20	0.62	-0.750			
0.8248	52787.22	3.3440	3.3440	-0.3814	26.21	0.63	-0.750			
0.8259	52858.49	3.3410	3.3409	-0.3672	26.21	0.63	-0.750			
0.8270	52927.78	3.3380	3.3381	-0.3519	26.21	0.63	-0.750			
0.8280	52994.23	3.3350	3.3350	-0.3389	26.22	0.64	-0.750			
0.8290	53057.79	3.3320	3.3320	-0.3262	26.22	0.64	-0.750			
0.8300	53118.27	3.3290	3.3290	-0.3133	26.23	0.65	-0.750			
0.8309	53177.15	3.3260	3.3259	-0.3034	26.23	0.65	-0.750			
0.8318	53234.13	3.3230	3.3230	-0.2940	26.23	0.65	-0.750			
0.8327	53289.68	3.3200	3.3200	-0.2855	26.24	0.66	-0.750			
0.8335	53343.88	3.3170	3.3171	-0.2787	26.24	0.66	-0.750			
0.8343	53396.40	3.3140	3.3140	-0.2711	26.25	0.67	-0.750			
0.8351	53447.82	3.3110	3.3110	-0.2641	26.25	0.67	-0.750			
0.8359	53497.52	3.3080	3.3079	-0.2568	26.25	0.67	-0.750			
0.8367	53546.30	3.3050	3.3050	-0.2503	26.26	0.68	-0.750			
0.8374	53594.11	3.3020	3.3021	-0.2436	26.26	0.68	-0.750			
0.8381	53639.71	3.2990	3.2990	-0.2382	26.26	0.68	-0.750			
0.8388	53684.90	3.2960	3.2960	-0.2325	26.27	0.69	-0.750			
0.8395	53728.57	3.2930	3.2930	-0.2266	26.27	0.69	-0.750			
0.8402	53771.28	3.2900	3.2899	-0.2218	26.27	0.69	-0.750			
0.8408	53813.36	3.2870	3.2871	-0.2181	26.28	0.70	-0.750			
0.8415	53854.89	3.2840	3.2841	-0.2145	26.28	0.70	-0.750			
0.8421	53895.71	3.2810	3.2809	-0.2107	26.29	0.71	-0.750			
0.8427	53935.99	3.2780	3.2780	-0.2071	26.29	0.71	-0.750			
0.8434	53974.97	3.2750	3.2750	-0.2026	26.29	0.71	-0.750			
0.8440	54013.57	3.2720	3.2721	-0.1995	26.30	0.72	-0.750			
0.8446	54051.81	3.2690	3.2690	-0.1971	26.30	0.72	-0.750			
0.8451	54089.17	3.2660	3.2660	-0.1938	26.30	0.72	-0.750			
0.8457	54125.96	3.2630	3.2629	-0.1905	26.31	0.73	-0.750			
0.8463	54162.28	3.2600	3.2601	-0.1878	26.31	0.73	-0.750			
0.8468	54198.20	3.2570	3.2570	-0.1847	26.32	0.74	-0.750			
0.8474	54233.29	3.2540	3.2540	-0.1826	26.32	0.74	-0.750			
0.8479	54268.02	3.2510	3.2510	-0.1799	26.32	0.74	-0.750			
0.8485	54302.33	3.2480	3.2479	-0.1775	26.33	0.75	-0.750			
0.8490	54336.05	3.2450	3.2450	-0.1745	26.33	0.75	-0.750			
0.8495	54369.34	3.2420	3.2421	-0.1726	26.33	0.75	-0.750			
0.8500	54402.26	3.2390	3.2390	-0.1705	26.34	0.76	-0.750			
0.8505	54434.79	3.2360	3.2359	-0.1683	26.34	0.76	-0.750			
0.8510	54466.90	3.2330	3.2330	-0.1663	26.34	0.76	-0.750			
0.8515	54498.26	3.2300	3.2301	-0.1643	26.35	0.77	-0.750			
0.8520	54529.85	3.2270	3.2270	-0.1628	26.35	0.77	-0.750			
0.8525	54560.96	3.2240	3.2240	-0.1612	26.35	0.77	-0.750			
0.8530	54591.83	3.2210	3.2210	-0.1599	26.35	0.77	-0.750			
0.8535	54622.33	3.2180	3.2180	-0.1578	26.36	0.78	-0.750			
0.8539	54652.57	3.2150	3.2151	-0.1562	26.36	0.78	-0.750			
0.8544	54682.30	3.2120	3.2118	-0.1548	26.36	0.78	-0.750			
0.8549	54711.84	3.2090	3.2090	-0.1534	26.37	0.79	-0.750			
0.8553	54741.06	3.2060	3.2059	-0.1516	26.37	0.79	-0.750			
0.8558	54770.03	3.2030	3.2030	-0.1502	26.38	0.80	-0.750			
0.8562	54798.93	3.2000	3.2000	-0.1483	26.38	0.80	-0.750			
0.8567	54827.02	3.1970	3.1970	-0.1471	26.38	0.80	-0.750			
0.8571	54855.24	3.1940	3.1940	-0.1460	26.39	0.81	-0.750			
0.8575	54883.12	3.1910	3.1909	-0.1445	26.39	0.81	-0.750			
0.8580	54910.60	3.1880	3.1879	-0.1427	26.39	0.81	-0.750			
0.8584	54937.85	3.1850	3.1851	-0.1415	26.40	0.82	-0.750			
0.8588	54964.87	3.1820	3.1820	-0.1406	26.40	0.82	-0.750			
0.8592	54991.77	3.1790	3.1790	-0.1396	26.40	0.82	-0.750			
0.8597	55018.54	3.1760	3.1759	-0.1384	26.41	0.83	-0.750			
0.8601	55044.81	3.1730	3.1730	-0.1367	26.41	0.83	-0.750			
0.8605	55071.08	3.1700	3.1700	-0.1359	26.42	0.84	-0.750			
0.8609	55097.06	3.1670	3.1671	-0.1346	26.42	0.84	-0.750			
0.8613	55122.84	3.1640	3.1640	-0.1338	26.42	0.84	-0.750			
0.8617	55148.40	3.1610	3.1610	-0.1322	26.43	0.85	-0.750			
0.8621	55173.56	3.1580	3.1580	-0.1310	26.43	0.85	-0.750			
0.8625	55198.62	3.1550	3.1550	-0.1300	26.43	0.85	-0.750			
0.8629	55223.50	3.1520	3.1520	-0.1293	26.43	0.85	-0.750			
0.8633	55248.26	3.1490	3.1490	-0.1283	26.44	0.86	-0.750			
0.8636	55272.74	3.1460	3.1461	-0.1272	26.44	0.86	-0.750			
0.8640	55297.08	3.1430	3.1430	-0.1265	26.44	0.86	-0.750			
0.8644	55321.20	3.1400	3.1401	-0.1256	26.45	0.87	-0.750			
0.8648	55345.50	3.1370	3.1370	-0.1247	26.45	0.87	-0.750			
0.8651	55369.21	3.1340	3.1340	-0.1236	26.45	0.87	-0.750			
0.8655	55392.85	3.1310	3.1310	-0.1226	26.46	0.88	-0.750			
0.8659	55416.21	3.1280	3.1281	-0.1216	26.46	0.88	-0.750			
0.8662	55439.49	3.1250	3.1250	-0.1209	26.46	0.88	-0.750			
0.8666	55462.66	3.1220	3.1219	-0.1200	26.46	0.88	-0.750			
0.8670	55485.55	3.1190	3.1190	-0.1190	26.47	0.89	-0.750			
0.8673	55508.44	3.1160	3.1160	-0.1180	26.47	0.89	-0.750			
0.8677	55531.16	3.1130	3.1130	-0.1173	26.48	0.90	-0.750			
0.8680	55553.41	3.1100	3.1100	-0.1164	26.48	0.90	-0.750			
0.8684	55575.59	3.1070	3.1070	-0.1153	26.48	0.90	-0.750			
0.8687	55597.71	3.1040	3.1040	-0.1144	26.49	0.91	-0.750			
0.8691	55619.55	3.1010	3.1010	-0.1134	26.49	0.91	-0.750			
0.8694	55641.23	3.0980	3.0980	-0.1126	26.49	0.91	-0.750			
0.8697	55662.76	3.0950	3.0950	-0.1118	26.50	0.92	-0.750			
0.8701	55684.06	3.0920	3.0921	-0.1112	26.50	0.92	-0.750			
0.8704	55705.36	3.0890	3.0889	-0.1105	26.51	0.93	-0.750			
0.8707	55726.55	3.0860	3.0860	-0.1097	26.51	0.93	-0.750			
0.8711	55747.43	3.0830	3.0830	-0.1088	26.51	0.93	-0.750			
0.8714	55768.28	3.0800	3.0799	-0.1082	26.52	0.94	-0.750			
0.8717	55789.10	3.0770	3.0770	-0.1078	26.52	0.94	-0.750			
0.8720	55809.77	3.0740	3.0741	-0.1070	26.52	0.94	-0.750			
0.8723	55830.27	3.0710	3.0710	-0.1062	26.53	0.95	-0.750			
0.8727	55850.56	3.0680	3.0679	-0.1055	26.53	0.95	-0.750			
0.8730	55870.67	3.0650	3.0650	-0.1046	26.53	0.95	-0.750			
0.8733	55890.73	3.0620	3.0620	-0.1038	26.54	0.96	-0.750			
0.8736	55910.66	3.0590	3.0590	-0.1031	26.54	0.96	-0.750			
0.8739	55930.25	3.0560	3.0560	-0.1025	26.54	0.96	-0.750			
0.8742	55949.73	3.0530	3.0530	-0.1016	26.55	0.97	-0.750			
0.8745	55969.26	3.0500	3.0501	-0.1010	26.55	0.97	-0.750			
0.8748	55988.62	3.0470	3.0470	-0.1005	26.55	0.97	-0.750			
0.8751	56007.86	3.0440	3.0439	-0.0998	26.56	0.98	-0.750			
0.8754	56026.97	3.0410	3.0410	-0.0992	26.56	0.98	-0.750			
0.8757	56045.98	3.0380	3.0381	-0.0985	26.56	0.98	-0.750			
0.8760	56064.92	3.0350	3.0350	-0.0980	26.57	0.99	-0.750			
0.8763	56083.61	3.0320	3.0319	-0.0973	26.57	0.99	-0.750			
0.8766	56102.11	3.0290	3.0289	-0.0964	26.57	0.99	-0.750			
0.8769	56120.54	3.0260	3.0261	-0.0958	26.57	0.99	-0.750			
0.8772	56138.91	3.0230	3.0230	-0.0953	26.58	1.00	-0.750			
0.8775	56157.11	3.0200	3.0201	-0.0949	26.58	1.00	-0.750			
0.8777	56175.22	3.0170	3.0170	-0.0943	26.58	1.00	-0.750			
0.8780	56193.29	3.0140	3.0140	-0.0939	26.58	1.00	-0.750			
0.8783	56211.27	3.0110	3.0110	-0.0936	26.59	1.01	-0.750			
0.8786	56229.19	3.0080	3.0080	-0.0932	26.59	1.01	-0.750			
0.8789	56247.06	3.0050	3.0051	-0.0930	26.59	1.01	-0.750			
