Ah_balance (normalized)	Ah_balance (mAh)	Voltage - fit (V)	Voltage -  interpolate (V)	dQ/dV (1/V)	Temperature (°C)	Temperature - diff (°C)	Current (C)	R_DC 0ms (mOhm)	R_DC 50ms (mOhm)	R_DC 50 ms PEC (mOhm)
0.2389	15289.99	3.9740	3.9740	0.8658	26.04	0.05	0.750			
0.2415	15455.84	3.9710	3.9711	0.8644	26.05	0.06	0.750			
0.2441	15621.81	3.9680	3.9680	0.8663	26.05	0.06	0.750			
0.2467	15788.14	3.9650	3.9650	0.8702	26.06	0.07	0.750			
0.2493	15954.93	3.9620	3.9620	0.8749	26.07	0.08	0.750			
0.2519	16123.63	3.9590	3.9588	0.8784	26.08	0.09	0.750			
0.2546	16293.94	3.9560	3.9560	0.8825	26.08	0.09	0.750			
0.2573	16464.96	3.9530	3.9530	0.8837	26.08	0.09	0.750			
0.2599	16634.90	3.9500	3.9500	0.8846	26.09	0.10	0.750			
0.2626	16804.72	3.9470	3.9470	0.8852	26.09	0.10	0.750			
0.2652	16972.89	3.9440	3.9440	0.8864	26.09	0.10	0.750			
0.2679	17143.22	3.9410	3.9410	0.8879	26.09	0.10	0.750			
0.2705	17314.15	3.9380	3.9380	0.8927	26.09	0.10	0.750			
0.2732	17485.61	3.9350	3.9350	0.8954	26.10	0.11	0.750			
0.2759	17658.97	3.9320	3.9320	0.8984	26.10	0.11	0.750			
0.2786	17831.33	3.9290	3.9290	0.8977	26.10	0.11	0.750			
0.2813	18003.56	3.9260	3.9260	0.8964	26.11	0.12	0.750			
0.2840	18174.96	3.9230	3.9230	0.8991	26.11	0.12	0.750			
0.2867	18346.59	3.9200	3.9201	0.9087	26.12	0.13	0.750			
0.2894	18521.65	3.9170	3.9169	0.9125	26.12	0.13	0.750			
0.2922	18699.13	3.9140	3.9140	0.9131	26.12	0.13	0.750			
0.2949	18875.15	3.9110	3.9110	0.9160	26.12	0.13	0.750			
0.2977	19051.92	3.9080	3.9081	0.9190	26.12	0.13	0.750			
0.3004	19227.84	3.9050	3.9050	0.9212	26.12	0.13	0.750			
0.3032	19402.46	3.9020	3.9019	0.9201	26.12	0.13	0.750			
0.3059	19578.88	3.8990	3.8990	0.9228	26.12	0.13	0.750			
0.3087	19757.24	3.8960	3.8960	0.9309	26.12	0.13	0.750			
0.3115	19936.40	3.8930	3.8930	0.9363	26.12	0.13	0.750			
0.3143	20116.83	3.8900	3.8900	0.9394	26.12	0.13	0.750			
0.3172	20298.45	3.8870	3.8870	0.9388	26.12	0.13	0.750			
0.3200	20478.58	3.8840	3.8840	0.9447	26.12	0.13	0.750			
0.3228	20660.72	3.8810	3.8810	0.9488	26.11	0.12	0.750			
0.3257	20842.46	3.8780	3.8780	0.9533	26.11	0.12	0.750			
0.3285	21025.61	3.8750	3.8751	0.9600	26.11	0.12	0.750			
0.3314	21210.86	3.8720	3.8720	0.9621	26.11	0.12	0.750			
0.3343	21396.85	3.8690	3.8689	0.9666	26.10	0.11	0.750			
0.3372	21583.13	3.8660	3.8661	0.9713	26.10	0.11	0.750			
0.3401	21768.46	3.8630	3.8630	0.9724	26.10	0.11	0.750			
0.3430	21954.93	3.8600	3.8600	0.9750	26.09	0.10	0.750			
0.3460	22140.91	3.8570	3.8570	0.9787	26.09	0.10	0.750			
0.3489	22329.37	3.8540	3.8541	0.9881	26.09	0.10	0.750			
0.3519	22520.90	3.8510	3.8509	0.9989	26.08	0.09	0.750			
0.3549	22712.93	3.8480	3.8481	1.0021	26.08	0.09	0.750			
0.3579	22905.87	3.8450	3.8450	1.0106	26.07	0.08	0.750			
0.3609	23100.26	3.8420	3.8421	1.0197	26.07	0.08	0.750			
0.3640	23296.26	3.8390	3.8388	1.0279	26.06	0.07	0.750			
0.3671	23493.99	3.8360	3.8361	1.0380	26.06	0.07	0.750			
0.3702	23694.60	3.8330	3.8330	1.0508	26.05	0.06	0.750			
0.3734	23899.17	3.8300	3.8300	1.0618	26.05	0.06	0.750			
0.3766	24104.89	3.8270	3.8270	1.0711	26.04	0.05	0.750			
0.3798	24310.00	3.8240	3.8240	1.0714	26.04	0.05	0.750			
0.3831	24515.33	3.8210	3.8210	1.0812	26.03	0.04	0.750			
0.3863	24721.61	3.8180	3.8181	1.0906	26.03	0.04	0.750			
0.3896	24932.99	3.8150	3.8148	1.0991	26.02	0.03	0.750			
0.3929	25144.75	3.8120	3.8120	1.1114	26.01	0.02	0.750			
0.3962	25358.96	3.8090	3.8091	1.1273	26.00	0.01	0.750			
0.3996	25576.79	3.8060	3.8061	1.1426	25.99	-0.00	0.750			
0.4031	25797.80	3.8030	3.8030	1.1519	25.98	-0.01	0.750			
0.4066	26019.70	3.8000	3.8000	1.1666	25.97	-0.02	0.750			
0.4101	26243.97	3.7970	3.7971	1.1840	25.97	-0.02	0.750			
0.4137	26475.24	3.7940	3.7939	1.1998	25.96	-0.03	0.750			
0.4173	26706.71	3.7910	3.7909	1.2182	25.96	-0.03	0.750			
0.4210	26942.00	3.7880	3.7880	1.2340	25.95	-0.04	0.750			
0.4247	27182.52	3.7850	3.7851	1.2498	25.94	-0.05	0.750			
0.4285	27424.33	3.7820	3.7819	1.2657	25.94	-0.05	0.750			
0.4323	27666.29	3.7790	3.7790	1.2874	25.92	-0.07	0.750			
0.4361	27912.41	3.7760	3.7760	1.3097	25.91	-0.08	0.750			
0.4401	28166.05	3.7730	3.7729	1.3298	25.90	-0.09	0.750			
0.4441	28423.08	3.7700	3.7701	1.3526	25.89	-0.10	0.750			
0.4482	28687.94	3.7670	3.7671	1.3778	25.89	-0.10	0.750			
0.4524	28953.99	3.7640	3.7638	1.4059	25.88	-0.11	0.750			
0.4566	29225.37	3.7610	3.7611	1.4262	25.87	-0.12	0.750			
0.4610	29501.48	3.7580	3.7580	1.4490	25.85	-0.14	0.750			
0.4653	29782.09	3.7550	3.7551	1.4821	25.84	-0.15	0.750			
0.4698	30067.97	3.7520	3.7520	1.5158	25.83	-0.16	0.750			
0.4744	30363.65	3.7490	3.7491	1.5410	25.82	-0.17	0.750			
0.4791	30663.99	3.7460	3.7459	1.5733	25.81	-0.18	0.750			
0.4839	30968.42	3.7430	3.7430	1.6121	25.79	-0.20	0.750			
0.4888	31281.06	3.7400	3.7400	1.6593	25.78	-0.21	0.750			
0.4938	31603.75	3.7370	3.7371	1.6868	25.77	-0.22	0.750			
0.4989	31930.43	3.7340	3.7341	1.7169	25.75	-0.24	0.750			
0.5041	32264.11	3.7310	3.7311	1.7660	25.74	-0.25	0.750			
0.5095	32608.73	3.7280	3.7280	1.8175	25.73	-0.26	0.750			
0.5150	32962.00	3.7250	3.7252	1.8517	25.72	-0.27	0.750			
0.5206	33317.58	3.7220	3.7222	1.9088	25.71	-0.28	0.750			
0.5264	33689.59	3.7190	3.7191	1.9671	25.69	-0.30	0.750			
0.5324	34072.83	3.7160	3.7160	2.0173	25.68	-0.31	0.750			
0.5385	34463.64	3.7130	3.7130	2.0612	25.66	-0.33	0.750	0.345	0.493	
0.5449	34871.07	3.7100	3.7100	2.1264	25.65	-0.34	0.750			
0.5513	35281.40	3.7070	3.7069	2.1445	25.63	-0.36	0.750			
0.5578	35697.68	3.7040	3.7040	2.1896	25.63	-0.36	0.750			
0.5644	36119.26	3.7010	3.7011	2.2577	25.62	-0.37	0.750			
0.5712	36557.59	3.6980	3.6980	2.3086	25.61	-0.38	0.750			
0.5782	37006.09	3.6950	3.6949	2.3772	25.60	-0.39	0.750			
0.5855	37474.30	3.6920	3.6919	2.4498	25.59	-0.40	0.750			
0.5929	37945.68	3.6890	3.6890	2.4961	25.58	-0.41	0.750			
0.6005	38428.85	3.6860	3.6860	2.5482	25.58	-0.41	0.750			
0.6083	38928.77	3.6830	3.6829	2.5909	25.58	-0.41	0.750			
0.6161	39431.91	3.6800	3.6800	2.6355	25.58	-0.41	0.750			
0.6241	39944.20	3.6770	3.6769	2.6753	25.58	-0.41	0.750			
0.6323	40465.28	3.6740	3.6740	2.6415	25.59	-0.40	0.750			
0.6402	40971.51	3.6710	3.6712	2.5766	25.60	-0.39	0.750			
0.6478	41461.89	3.6680	3.6680	2.4337	25.61	-0.38	0.750			
0.6549	41914.91	3.6650	3.6651	2.2679	25.61	-0.38	0.750			
0.6615	42337.54	3.6620	3.6619	2.0941	25.62	-0.37	0.750			
0.6674	42716.40	3.6590	3.6591	1.9194	25.62	-0.37	0.750			
0.6729	43068.34	3.6560	3.6561	1.7690	25.63	-0.36	0.750			
0.6779	43383.99	3.6530	3.6529	1.6331	25.64	-0.35	0.750			
0.6825	43680.54	3.6500	3.6501	1.5212	25.64	-0.35	0.750			
0.6868	43956.71	3.6470	3.6470	1.4355	25.65	-0.34	0.750			
0.6910	44221.12	3.6440	3.6439	1.3656	25.65	-0.34	0.750			
0.6950	44477.27	3.6410	3.6410	1.3213	25.66	-0.33	0.750			
0.6988	44721.20	3.6380	3.6381	1.2752	25.67	-0.32	0.750			
0.7025	44961.85	3.6350	3.6350	1.2480	25.68	-0.31	0.750			
0.7062	45196.06	3.6320	3.6320	1.2170	25.68	-0.31	0.750			
0.7098	45425.55	3.6290	3.6290	1.1975	25.68	-0.31	0.750			
0.7133	45653.99	3.6260	3.6260	1.1836	25.68	-0.31	0.750			
0.7169	45879.86	3.6230	3.6230	1.1756	25.68	-0.31	0.750			
0.7204	46102.81	3.6200	3.6199	1.1682	25.69	-0.30	0.750			
0.7238	46324.76	3.6170	3.6170	1.1653	25.69	-0.30	0.750			
0.7273	46550.01	3.6140	3.6139	1.1638	25.70	-0.29	0.750			
0.7308	46773.65	3.6110	3.6110	1.1628	25.70	-0.29	0.750			
0.7343	46995.54	3.6080	3.6081	1.1658	25.70	-0.29	0.750			
0.7378	47219.40	3.6050	3.6051	1.1728	25.70	-0.29	0.750			
0.7413	47443.42	3.6020	3.6020	1.1774	25.70	-0.29	0.750			
0.7448	47668.88	3.5990	3.5990	1.1888	25.70	-0.29	0.750			
0.7484	47897.88	3.5960	3.5960	1.2109	25.70	-0.29	0.750			
0.7521	48134.79	3.5930	3.5929	1.2264	25.70	-0.29	0.750			
0.7558	48368.13	3.5900	3.5900	1.2613	25.70	-0.29	0.750			
0.7595	48611.07	3.5870	3.5871	1.2964	25.71	-0.28	0.750			
0.7635	48862.46	3.5840	3.5839	1.3331	25.71	-0.28	0.750			
0.7676	49123.62	3.5810	3.5811	1.3748	25.71	-0.28	0.750			
0.7717	49390.00	3.5780	3.5780	1.4204	25.72	-0.27	0.750			
0.7761	49668.01	3.5750	3.5749	1.4577	25.72	-0.27	0.750			
0.7805	49954.58	3.5720	3.5721	1.4853	25.72	-0.27	0.750			
0.7851	50244.97	3.5690	3.5690	1.5164	25.72	-0.27	0.750			
0.7897	50539.12	3.5660	3.5659	1.5459	25.72	-0.27	0.750			
0.7943	50837.63	3.5630	3.5630	1.5632	25.72	-0.27	0.750			
0.7991	51143.93	3.5600	3.5601	1.5739	25.72	-0.27	0.750			
0.8039	51447.70	3.5570	3.5570	1.5847	25.72	-0.27	0.750			
0.8087	51754.57	3.5540	3.5539	1.5860	25.72	-0.27	0.750			
0.8135	52063.38	3.5510	3.5510	1.5894	25.72	-0.27	0.750			
0.8182	52367.86	3.5480	3.5478	1.5844	25.73	-0.26	0.750			
0.8230	52673.33	3.5450	3.5450	1.5483	25.73	-0.26	0.750			
0.8278	52977.31	3.5420	3.5419	1.5038	25.74	-0.25	0.750			
0.8323	53270.33	3.5390	3.5391	1.4170	25.75	-0.24	0.750			
0.8367	53549.37	3.5360	3.5361	1.2767	25.76	-0.23	0.750			
0.8404	53786.42	3.5330	3.5331	1.1014	25.77	-0.22	0.750			
0.8435	53982.30	3.5300	3.5301	0.9206	25.79	-0.20	0.750			
0.8458	54131.55	3.5270	3.5270	0.7335	25.80	-0.19	0.750			
0.8476	54245.02	3.5240	3.5239	0.6068	25.81	-0.18	0.750			
0.8490	54338.23	3.5210	3.5208	0.4973	25.82	-0.17	0.750			
0.8502	54415.69	3.5180	3.5178	0.4184	25.83	-0.16	0.750			
0.8513	54485.81	3.5150	3.5150	0.3762	25.84	-0.15	0.750			
0.8524	54550.76	3.5120	3.5120	0.3444	25.84	-0.15	0.750			
0.8533	54613.32	3.5090	3.5089	0.3232	25.85	-0.14	0.750			
0.8543	54672.38	3.5060	3.5059	0.3045	25.85	-0.14	0.750			
0.8551	54728.44	3.5030	3.5031	0.2906	25.86	-0.13	0.750			
0.8560	54782.63	3.5000	3.5000	0.2803	25.86	-0.13	0.750			
0.8568	54835.16	3.4970	3.4969	0.2712	25.87	-0.12	0.750			
0.8576	54885.84	3.4940	3.4939	0.2620	25.88	-0.11	0.750			
0.8584	54934.93	3.4910	3.4910	0.2546	25.88	-0.11	0.750			
0.8591	54983.59	3.4880	3.4880	0.2489	25.89	-0.10	0.750			
0.8599	55030.88	3.4850	3.4850	0.2422	25.89	-0.10	0.750			
0.8606	55076.38	3.4820	3.4819	0.2364	25.89	-0.10	0.750			
0.8613	55120.60	3.4790	3.4790	0.2298	25.90	-0.09	0.750			
0.8619	55164.41	3.4760	3.4760	0.2253	25.90	-0.09	0.750			
0.8626	55207.16	3.4730	3.4730	0.2206	25.91	-0.08	0.750			
0.8633	55249.15	3.4700	3.4700	0.2159	25.91	-0.08	0.750			
0.8639	55289.98	3.4670	3.4670	0.2108	25.92	-0.07	0.750			
0.8645	55330.07	3.4640	3.4639	0.2063	25.92	-0.07	0.750			
0.8651	55369.30	3.4610	3.4610	0.2012	25.92	-0.07	0.750			
0.8657	55407.19	3.4580	3.4580	0.1966	25.93	-0.06	0.750			
0.8663	55444.56	3.4550	3.4551	0.1923	25.93	-0.06	0.750			
0.8669	55481.01	3.4520	3.4520	0.1875	25.93	-0.06	0.750			
0.8674	55516.62	3.4490	3.4489	0.1826	25.94	-0.05	0.750			
0.8680	55551.14	3.4460	3.4460	0.1783	25.94	-0.05	0.750			
0.8685	55584.95	3.4430	3.4431	0.1739	25.94	-0.05	0.750			
0.8690	55617.88	3.4400	3.4400	0.1694	25.94	-0.05	0.750			
0.8695	55650.21	3.4370	3.4369	0.1648	25.95	-0.04	0.750			
0.8700	55681.10	3.4340	3.4340	0.1596	25.95	-0.04	0.750			
0.8705	55711.34	3.4310	3.4311	0.1554	25.95	-0.04	0.750			
0.8710	55740.93	3.4280	3.4280	0.1509	25.96	-0.03	0.750			
0.8714	55769.42	3.4250	3.4250	0.1466	25.96	-0.03	0.750			
0.8718	55796.93	3.4220	3.4220	0.1415	25.96	-0.03	0.750			
0.8722	55823.83	3.4190	3.4190	0.1369	25.96	-0.03	0.750			
0.8727	55849.76	3.4160	3.4160	0.1325	25.97	-0.02	0.750			
0.8730	55874.85	3.4130	3.4129	0.1282	25.97	-0.02	0.750			
0.8734	55898.92	3.4100	3.4101	0.1232	25.97	-0.02	0.750			
0.8738	55922.15	3.4070	3.4071	0.1187	25.97	-0.02	0.750			
0.8741	55944.59	3.4040	3.4040	0.1141	25.97	-0.02	0.750			
0.8745	55966.03	3.4010	3.4009	0.1093	25.98	-0.01	0.750			
0.8748	55986.49	3.3980	3.3980	0.1044	25.98	-0.01	0.750			
0.8751	56006.08	3.3950	3.3951	0.0997	25.98	-0.01	0.750			
0.8754	56025.13	3.3920	3.3920	0.0943	25.98	-0.01	0.750			
0.8757	56042.70	3.3890	3.3889	0.0887	25.98	-0.01	0.750			
0.8759	56060.10	3.3860	3.3859	0.0817	25.98	-0.01	0.750			
0.8762	56075.06	3.3830	3.3831	0.0740	25.98	-0.01	0.750			
0.8764	56089.12	3.3800	3.3800	0.0675	25.99	-0.00	0.750			
0.8766	56101.28	3.3770	3.3773	0.0591	25.99	-0.00	0.750			
0.8768	56112.25	3.3740	3.3744	0.0508	25.99	-0.00	0.750			
0.8769	56121.14	3.3710	3.3716	0.0418	25.99	-0.00	0.750			
0.8770	56128.30	3.3680	3.3691	0.0328	25.99	-0.00	0.750			
0.8771	56133.72	3.3650	3.3666	0.0237	25.99	0.00	0.750			
