Ah_balance (normalized)	Ah_balance (mAh)	Voltage - fit (V)	Voltage -  interpolate (V)	dQ/dV (1/V)	Temperature (°C)	Temperature - diff (°C)	Current (C)	R_DC 0ms (mOhm)	R_DC 50ms (mOhm)	R_DC 50 ms PEC (mOhm)
0.2385	15262.48	3.9750	3.9750	0.8634	25.97	0.03	0.750			
0.2411	15427.37	3.9720	3.9721	0.8589	25.97	0.03	0.750			
0.2437	15594.08	3.9690	3.9690	0.8661	25.98	0.04	0.750			
0.2463	15760.12	3.9660	3.9660	0.8694	25.98	0.04	0.750			
0.2489	15927.29	3.9630	3.9630	0.8730	25.99	0.05	0.750			
0.2515	16095.19	3.9600	3.9600	0.8751	25.99	0.05	0.750			
0.2541	16264.66	3.9570	3.9569	0.8801	25.99	0.05	0.750			
0.2568	16433.11	3.9540	3.9540	0.8831	26.00	0.06	0.750			
0.2594	16601.77	3.9510	3.9510	0.8873	26.00	0.06	0.750			
0.2621	16774.07	3.9480	3.9480	0.8881	26.00	0.06	0.750			
0.2648	16944.84	3.9450	3.9450	0.8881	26.01	0.07	0.750			
0.2674	17115.75	3.9420	3.9421	0.8893	26.01	0.07	0.750			
0.2701	17286.51	3.9390	3.9389	0.8892	26.01	0.07	0.750			
0.2728	17457.66	3.9360	3.9360	0.8887	26.01	0.07	0.750			
0.2754	17627.21	3.9330	3.9330	0.8929	26.02	0.08	0.750			
0.2781	17798.02	3.9300	3.9300	0.8959	26.02	0.08	0.750			
0.2808	17971.88	3.9270	3.9271	0.9002	26.03	0.09	0.750			
0.2835	18144.03	3.9240	3.9240	0.9054	26.03	0.09	0.750			
0.2862	18318.48	3.9210	3.9210	0.9101	26.03	0.09	0.750			
0.2890	18494.04	3.9180	3.9180	0.9131	26.04	0.10	0.750			
0.2917	18670.15	3.9150	3.9150	0.9133	26.04	0.10	0.750			
0.2945	18845.77	3.9120	3.9121	0.9125	26.04	0.10	0.750			
0.2972	19022.02	3.9090	3.9090	0.9158	26.04	0.10	0.750			
0.3000	19196.88	3.9060	3.9060	0.9206	26.04	0.10	0.750			
0.3027	19372.76	3.9030	3.9030	0.9193	26.04	0.10	0.750			
0.3055	19550.22	3.9000	3.9000	0.9258	26.04	0.10	0.750			
0.3083	19730.08	3.8970	3.8970	0.9283	26.04	0.10	0.750			
0.3111	19908.61	3.8940	3.8940	0.9279	26.04	0.10	0.750			
0.3139	20086.83	3.8910	3.8910	0.9287	26.04	0.10	0.750			
0.3166	20263.64	3.8880	3.8880	0.9330	26.04	0.10	0.750			
0.3194	20442.09	3.8850	3.8849	0.9338	26.04	0.10	0.750			
0.3222	20623.65	3.8820	3.8820	0.9364	26.04	0.10	0.750			
0.3250	20801.43	3.8790	3.8791	0.9474	26.04	0.10	0.750			
0.3279	20986.76	3.8760	3.8760	0.9567	26.04	0.10	0.750			
0.3308	21170.80	3.8730	3.8730	0.9607	26.04	0.10	0.750			
0.3337	21356.01	3.8700	3.8701	0.9611	26.04	0.10	0.750			
0.3366	21540.38	3.8670	3.8671	0.9656	26.04	0.10	0.750			
0.3395	21726.95	3.8640	3.8640	0.9717	26.04	0.10	0.750			
0.3424	21913.02	3.8610	3.8610	0.9763	26.04	0.10	0.750			
0.3453	22098.49	3.8580	3.8579	0.9786	26.04	0.10	0.750			
0.3483	22288.21	3.8550	3.8551	0.9888	26.04	0.10	0.750			
0.3512	22478.56	3.8520	3.8520	0.9973	26.04	0.10	0.750			
0.3542	22671.76	3.8490	3.8490	1.0050	26.03	0.09	0.750			
0.3573	22865.33	3.8460	3.8458	1.0114	26.03	0.09	0.750			
0.3603	23060.86	3.8430	3.8430	1.0121	26.03	0.09	0.750			
0.3634	23255.54	3.8400	3.8400	1.0162	26.03	0.09	0.750			
0.3664	23450.37	3.8370	3.8370	1.0229	26.02	0.08	0.750			
0.3695	23646.13	3.8340	3.8339	1.0252	26.02	0.08	0.750			
0.3725	23843.07	3.8310	3.8310	1.0353	26.02	0.08	0.750			
0.3757	24042.39	3.8280	3.8280	1.0491	26.01	0.07	0.750			
0.3788	24244.75	3.8250	3.8250	1.0632	26.01	0.07	0.750			
0.3821	24452.25	3.8220	3.8219	1.0765	26.00	0.06	0.750			
0.3853	24659.08	3.8190	3.8190	1.0858	26.00	0.06	0.750			
0.3886	24868.57	3.8160	3.8160	1.0987	26.00	0.06	0.750			
0.3919	25081.64	3.8130	3.8130	1.1109	26.00	0.06	0.750			
0.3952	25295.95	3.8100	3.8100	1.1171	26.00	0.06	0.750			
0.3986	25510.41	3.8070	3.8070	1.1306	25.99	0.05	0.750			
0.4020	25728.51	3.8040	3.8040	1.1441	25.99	0.05	0.750			
0.4055	25949.98	3.8010	3.8010	1.1577	25.98	0.04	0.750			
0.4090	26172.83	3.7980	3.7980	1.1664	25.98	0.04	0.750			
0.4124	26396.62	3.7950	3.7951	1.1821	25.97	0.03	0.750			
0.4160	26624.42	3.7920	3.7920	1.2045	25.97	0.03	0.750			
0.4197	26857.86	3.7890	3.7888	1.2225	25.96	0.02	0.750			
0.4233	27093.18	3.7860	3.7860	1.2423	25.95	0.01	0.750			
0.4271	27335.00	3.7830	3.7830	1.2635	25.95	0.01	0.750			
0.4310	27584.24	3.7800	3.7800	1.2759	25.94	0.00	0.750			
0.4348	27829.11	3.7770	3.7770	1.2981	25.94	-0.00	0.750			
0.4387	28076.42	3.7740	3.7740	1.3123	25.93	-0.01	0.750			
0.4427	28330.60	3.7710	3.7710	1.3305	25.92	-0.02	0.750			
0.4467	28586.86	3.7680	3.7681	1.3587	25.92	-0.02	0.750			
0.4508	28849.34	3.7650	3.7651	1.3859	25.92	-0.02	0.750			
0.4550	29119.45	3.7620	3.7620	1.4154	25.92	-0.02	0.750			
0.4593	29393.24	3.7590	3.7591	1.4466	25.92	-0.02	0.750			
0.4636	29671.82	3.7560	3.7561	1.4721	25.91	-0.03	0.750			
0.4681	29959.20	3.7530	3.7530	1.5009	25.89	-0.05	0.750			
0.4726	30249.34	3.7500	3.7499	1.5357	25.89	-0.05	0.750			
0.4773	30546.68	3.7470	3.7472	1.5661	25.88	-0.06	0.750			
0.4821	30851.96	3.7440	3.7438	1.5950	25.88	-0.06	0.750			
0.4869	31162.79	3.7410	3.7410	1.6268	25.87	-0.07	0.750			
0.4918	31478.06	3.7380	3.7381	1.6639	25.86	-0.08	0.750			
0.4969	31798.85	3.7350	3.7350	1.6981	25.85	-0.09	0.750			
0.5020	32127.87	3.7320	3.7319	1.7367	25.84	-0.10	0.750			
0.5072	32460.98	3.7290	3.7290	1.7804	25.83	-0.11	0.750			
0.5127	32810.48	3.7260	3.7259	1.8357	25.82	-0.12	0.750			
0.5182	33167.82	3.7230	3.7230	1.8733	25.80	-0.14	0.750			
0.5239	33531.44	3.7200	3.7202	1.9217	25.80	-0.14	0.750			
0.5298	33905.29	3.7170	3.7170	1.9840	25.79	-0.15	0.750			
0.5358	34288.65	3.7140	3.7139	2.0191	25.78	-0.16	0.750	0.342	0.485	
0.5419	34681.41	3.7110	3.7110	2.0699	25.77	-0.17	0.750			
0.5483	35089.99	3.7080	3.7080	2.1269	25.76	-0.18	0.750			
0.5547	35501.26	3.7050	3.7052	2.1877	25.75	-0.19	0.750			
0.5613	35926.39	3.7020	3.7020	2.2526	25.74	-0.20	0.750			
0.5682	36364.44	3.6990	3.6989	2.3230	25.73	-0.21	0.750			
0.5753	36821.26	3.6960	3.6961	2.3833	25.73	-0.21	0.750			
0.5825	37280.01	3.6930	3.6930	2.4233	25.72	-0.22	0.750			
0.5899	37750.52	3.6900	3.6900	2.4509	25.71	-0.23	0.750			
0.5973	38227.98	3.6870	3.6870	2.5123	25.70	-0.24	0.750			
0.6049	38710.61	3.6840	3.6839	2.5753	25.69	-0.25	0.750			
0.6127	39211.85	3.6810	3.6810	2.6519	25.69	-0.25	0.750			
0.6208	39734.05	3.6780	3.6780	2.6898	25.68	-0.26	0.750			
0.6290	40258.59	3.6750	3.6751	2.6731	25.67	-0.27	0.750			
0.6372	40777.77	3.6720	3.6719	2.5962	25.66	-0.28	0.750			
0.6447	41263.91	3.6690	3.6690	2.4677	25.66	-0.28	0.750			
0.6521	41732.44	3.6660	3.6659	2.3250	25.66	-0.28	0.750			
0.6588	42165.26	3.6630	3.6630	2.1492	25.66	-0.28	0.750			
0.6650	42559.96	3.6600	3.6601	1.9888	25.66	-0.28	0.750			
0.6707	42922.04	3.6570	3.6569	1.8245	25.66	-0.28	0.750			
0.6757	43244.76	3.6540	3.6541	1.6752	25.66	-0.28	0.750			
0.6806	43555.55	3.6510	3.6510	1.5622	25.66	-0.28	0.750			
0.6850	43837.34	3.6480	3.6479	1.4673	25.66	-0.28	0.750			
0.6891	44104.07	3.6450	3.6450	1.3862	25.67	-0.27	0.750			
0.6931	44360.53	3.6420	3.6420	1.3275	25.67	-0.27	0.750			
0.6970	44610.69	3.6390	3.6390	1.2882	25.67	-0.27	0.750			
0.7008	44850.42	3.6360	3.6360	1.2476	25.67	-0.27	0.750			
0.7045	45085.83	3.6330	3.6330	1.2230	25.68	-0.26	0.750			
0.7081	45317.69	3.6300	3.6300	1.1966	25.68	-0.26	0.750			
0.7116	45541.74	3.6270	3.6270	1.1865	25.68	-0.26	0.750			
0.7151	45766.03	3.6240	3.6241	1.1743	25.69	-0.25	0.750			
0.7186	45992.20	3.6210	3.6209	1.1692	25.69	-0.25	0.750			
0.7221	46215.15	3.6180	3.6180	1.1694	25.69	-0.25	0.750			
0.7256	46439.05	3.6150	3.6152	1.1701	25.69	-0.25	0.750			
0.7291	46664.23	3.6120	3.6120	1.1726	25.70	-0.24	0.750			
0.7327	46891.07	3.6090	3.6089	1.1694	25.70	-0.24	0.750			
0.7362	47114.33	3.6060	3.6060	1.1741	25.70	-0.24	0.750			
0.7397	47340.98	3.6030	3.6030	1.1802	25.70	-0.24	0.750			
0.7432	47567.38	3.6000	3.6000	1.1863	25.70	-0.24	0.750			
0.7468	47792.61	3.5970	3.5970	1.1942	25.70	-0.24	0.750			
0.7503	48020.33	3.5940	3.5940	1.2211	25.70	-0.24	0.750			
0.7540	48256.44	3.5910	3.5910	1.2509	25.70	-0.24	0.750			
0.7578	48498.44	3.5880	3.5879	1.2845	25.70	-0.24	0.750			
0.7617	48746.13	3.5850	3.5851	1.3221	25.70	-0.24	0.750			
0.7657	49004.95	3.5820	3.5821	1.3692	25.71	-0.23	0.750			
0.7699	49272.52	3.5790	3.5789	1.4091	25.71	-0.23	0.750			
0.7742	49546.81	3.5760	3.5760	1.4513	25.71	-0.23	0.750			
0.7786	49831.53	3.5730	3.5730	1.4850	25.70	-0.24	0.750			
0.7832	50124.24	3.5700	3.5699	1.5194	25.70	-0.24	0.750			
0.7878	50418.99	3.5670	3.5671	1.5460	25.70	-0.24	0.750			
0.7925	50721.53	3.5640	3.5640	1.5625	25.71	-0.23	0.750			
0.7972	51022.69	3.5610	3.5611	1.5786	25.71	-0.23	0.750			
0.8020	51328.71	3.5580	3.5579	1.5864	25.71	-0.23	0.750			
0.8068	51633.30	3.5550	3.5550	1.5886	25.71	-0.23	0.750			
0.8116	51942.88	3.5520	3.5519	1.5924	25.71	-0.23	0.750			
0.8164	52247.75	3.5490	3.5491	1.5747	25.72	-0.22	0.750			
0.8211	52551.60	3.5460	3.5461	1.5623	25.72	-0.22	0.750			
0.8259	52858.19	3.5430	3.5430	1.5175	25.73	-0.21	0.750			
0.8305	53154.23	3.5400	3.5399	1.4420	25.74	-0.20	0.750			
0.8349	53433.00	3.5370	3.5371	1.3108	25.75	-0.19	0.750			
0.8389	53687.22	3.5340	3.5342	1.1576	25.76	-0.18	0.750			
0.8421	53895.17	3.5310	3.5311	0.9721	25.77	-0.17	0.750			
0.8447	54058.81	3.5280	3.5280	0.8002	25.78	-0.16	0.750			
0.8466	54183.23	3.5250	3.5249	0.6307	25.79	-0.15	0.750			
0.8481	54280.78	3.5220	3.5218	0.5233	25.80	-0.14	0.750			
0.8494	54361.80	3.5190	3.5189	0.4360	25.81	-0.13	0.750			
0.8505	54433.89	3.5160	3.5159	0.3854	25.82	-0.12	0.750			
0.8516	54501.73	3.5130	3.5129	0.3505	25.82	-0.12	0.750			
0.8526	54563.39	3.5100	3.5100	0.3251	25.83	-0.11	0.750			
0.8535	54623.04	3.5070	3.5069	0.3083	25.83	-0.11	0.750			
0.8544	54679.34	3.5040	3.5040	0.2922	25.84	-0.10	0.750			
0.8552	54734.04	3.5010	3.5010	0.2816	25.85	-0.09	0.750			
0.8560	54786.54	3.4980	3.4980	0.2728	25.85	-0.09	0.750			
0.8568	54837.81	3.4950	3.4950	0.2641	25.86	-0.08	0.750			
0.8576	54887.07	3.4920	3.4920	0.2567	25.86	-0.08	0.750			
0.8584	54935.74	3.4890	3.4890	0.2502	25.87	-0.07	0.750			
0.8591	54983.13	3.4860	3.4861	0.2451	25.87	-0.07	0.750			
0.8598	55029.38	3.4830	3.4830	0.2394	25.88	-0.06	0.750			
0.8605	55075.18	3.4800	3.4800	0.2345	25.88	-0.06	0.750			
0.8612	55119.44	3.4770	3.4769	0.2290	25.88	-0.06	0.750			
0.8619	55162.97	3.4740	3.4741	0.2229	25.89	-0.05	0.750			
0.8626	55205.25	3.4710	3.4710	0.2175	25.89	-0.05	0.750			
0.8632	55246.67	3.4680	3.4680	0.2125	25.90	-0.04	0.750			
0.8639	55286.93	3.4650	3.4651	0.2079	25.90	-0.04	0.750			
0.8645	55325.88	3.4620	3.4619	0.2024	25.91	-0.03	0.750			
0.8651	55364.34	3.4590	3.4590	0.1982	25.91	-0.03	0.750			
0.8657	55401.86	3.4560	3.4560	0.1939	25.91	-0.03	0.750			
0.8662	55438.75	3.4530	3.4530	0.1893	25.92	-0.02	0.750			
0.8668	55474.92	3.4500	3.4501	0.1857	25.92	-0.02	0.750			
0.8673	55510.12	3.4470	3.4470	0.1809	25.92	-0.02	0.750			
0.8679	55544.43	3.4440	3.4440	0.1756	25.93	-0.01	0.750			
0.8684	55577.62	3.4410	3.4409	0.1709	25.93	-0.01	0.750			
0.8689	55609.88	3.4380	3.4381	0.1662	25.93	-0.01	0.750			
0.8694	55641.35	3.4350	3.4350	0.1616	25.94	-0.00	0.750			
0.8699	55671.83	3.4320	3.4320	0.1574	25.94	-0.00	0.750			
0.8703	55701.63	3.4290	3.4290	0.1533	25.94	0.00	0.750			
0.8708	55730.61	3.4260	3.4260	0.1486	25.95	0.01	0.750			
0.8712	55758.75	3.4230	3.4230	0.1445	25.95	0.01	0.750			
0.8717	55786.34	3.4200	3.4200	0.1404	25.95	0.01	0.750			
0.8721	55812.94	3.4170	3.4170	0.1356	25.95	0.01	0.750			
0.8725	55838.60	3.4140	3.4139	0.1308	25.96	0.02	0.750			
0.8729	55863.20	3.4110	3.4110	0.1261	25.96	0.02	0.750			
0.8732	55886.90	3.4080	3.4081	0.1212	25.96	0.02	0.750			
0.8736	55909.62	3.4050	3.4050	0.1169	25.96	0.02	0.750			
0.8739	55931.60	3.4020	3.4020	0.1124	25.97	0.03	0.750			
0.8743	55952.89	3.3990	3.3990	0.1074	25.97	0.03	0.750			
0.8746	55973.00	3.3960	3.3959	0.1026	25.97	0.03	0.750			
0.8749	55992.60	3.3930	3.3930	0.0978	25.97	0.03	0.750			
0.8752	56010.85	3.3900	3.3902	0.0923	25.97	0.03	0.750			
0.8754	56028.25	3.3870	3.3870	0.0870	25.98	0.04	0.750			
0.8757	56045.12	3.3840	3.3839	0.0789	25.98	0.04	0.750			
0.8759	56059.93	3.3810	3.3810	0.0725	25.98	0.04	0.750			
0.8761	56073.09	3.3780	3.3781	0.0645	25.98	0.04	0.750			
0.8763	56084.71	3.3750	3.3754	0.0565	25.98	0.04	0.750			
0.8765	56095.79	3.3720	3.3724	0.0484	25.98	0.04	0.750			
0.8766	56104.19	3.3690	3.3697	0.0392	25.98	0.04	0.750			
0.8767	56110.83	3.3660	3.3673	0.0300	25.98	0.04	0.750			
0.8768	56115.71	3.3630	3.3647	0.0208	25.98	0.04	0.750			
