Ah_balance (normalized)	Ah_balance (mAh)	Voltage - fit (V)	Voltage -  interpolate (V)	dQ/dV (1/V)	Temperature (°C)	Temperature - diff (°C)	Current (C)	R_DC 0ms (mOhm)	R_DC 50ms (mOhm)	R_DC 50 ms PEC (mOhm)
0.2400	15358.41	3.9750	3.9750	0.8562	26.13	0.14	0.750			
0.2426	15525.05	3.9720	3.9720	0.8726	26.13	0.14	0.750			
0.2452	15691.77	3.9690	3.9689	0.8716	26.13	0.14	0.750			
0.2478	15858.94	3.9660	3.9660	0.8746	26.14	0.15	0.750			
0.2504	16026.88	3.9630	3.9631	0.8752	26.14	0.15	0.750			
0.2531	16196.21	3.9600	3.9600	0.8777	26.14	0.15	0.750			
0.2557	16365.23	3.9570	3.9570	0.8775	26.15	0.16	0.750			
0.2583	16532.13	3.9540	3.9541	0.8809	26.15	0.16	0.750			
0.2610	16701.78	3.9510	3.9510	0.8850	26.15	0.16	0.750			
0.2636	16871.82	3.9480	3.9480	0.8862	26.16	0.17	0.750			
0.2663	17042.43	3.9450	3.9450	0.8902	26.16	0.17	0.750			
0.2690	17214.84	3.9420	3.9420	0.8930	26.16	0.17	0.750			
0.2717	17386.51	3.9390	3.9389	0.8947	26.16	0.17	0.750			
0.2744	17558.57	3.9360	3.9360	0.8947	26.16	0.17	0.750			
0.2770	17729.60	3.9330	3.9329	0.8928	26.16	0.17	0.750			
0.2797	17902.22	3.9300	3.9300	0.8927	26.16	0.17	0.750			
0.2824	18073.15	3.9270	3.9270	0.8938	26.16	0.17	0.750			
0.2850	18243.16	3.9240	3.9240	0.8982	26.16	0.17	0.750			
0.2877	18415.43	3.9210	3.9210	0.9063	26.16	0.17	0.750			
0.2905	18590.18	3.9180	3.9179	0.9066	26.16	0.17	0.750			
0.2932	18766.00	3.9150	3.9150	0.9069	26.17	0.18	0.750			
0.2960	18941.29	3.9120	3.9121	0.9112	26.17	0.18	0.750			
0.2987	19115.79	3.9090	3.9090	0.9153	26.17	0.18	0.750			
0.3014	19290.76	3.9060	3.9059	0.9139	26.18	0.19	0.750			
0.3042	19466.53	3.9030	3.9030	0.9148	26.18	0.19	0.750			
0.3069	19641.25	3.9000	3.9001	0.9180	26.18	0.19	0.750			
0.3097	19819.44	3.8970	3.8970	0.9236	26.18	0.19	0.750			
0.3125	19997.37	3.8940	3.8940	0.9300	26.18	0.19	0.750			
0.3152	20174.55	3.8910	3.8909	0.9311	26.18	0.19	0.750			
0.3180	20354.68	3.8880	3.8881	0.9309	26.18	0.19	0.750			
0.3208	20534.07	3.8850	3.8850	0.9397	26.18	0.19	0.750			
0.3237	20714.56	3.8820	3.8820	0.9448	26.18	0.19	0.750			
0.3265	20896.75	3.8790	3.8789	0.9466	26.18	0.19	0.750			
0.3294	21078.78	3.8760	3.8760	0.9495	26.18	0.19	0.750			
0.3322	21260.51	3.8730	3.8730	0.9555	26.18	0.19	0.750			
0.3351	21445.82	3.8700	3.8700	0.9627	26.18	0.19	0.750			
0.3380	21630.75	3.8670	3.8669	0.9668	26.18	0.19	0.750			
0.3409	21817.48	3.8640	3.8641	0.9647	26.18	0.19	0.750			
0.3438	22003.56	3.8610	3.8610	0.9729	26.18	0.19	0.750			
0.3467	22191.07	3.8580	3.8580	0.9787	26.17	0.18	0.750			
0.3497	22378.15	3.8550	3.8550	0.9842	26.17	0.18	0.750			
0.3526	22567.43	3.8520	3.8520	0.9914	26.17	0.18	0.750			
0.3556	22758.67	3.8490	3.8490	0.9953	26.17	0.18	0.750			
0.3586	22949.81	3.8460	3.8461	1.0042	26.16	0.17	0.750			
0.3616	23144.37	3.8430	3.8430	1.0156	26.16	0.17	0.750			
0.3647	23338.85	3.8400	3.8398	1.0216	26.16	0.17	0.750			
0.3678	23536.25	3.8370	3.8370	1.0309	26.16	0.17	0.750			
0.3709	23735.37	3.8340	3.8341	1.0392	26.15	0.16	0.750			
0.3740	23937.00	3.8310	3.8310	1.0480	26.15	0.16	0.750			
0.3772	24139.29	3.8280	3.8278	1.0563	26.14	0.15	0.750			
0.3803	24340.86	3.8250	3.8250	1.0574	26.14	0.15	0.750			
0.3835	24543.67	3.8220	3.8220	1.0706	26.13	0.14	0.750			
0.3867	24749.65	3.8190	3.8190	1.0823	26.12	0.13	0.750			
0.3900	24959.39	3.8160	3.8158	1.0912	26.12	0.13	0.750			
0.3933	25170.13	3.8130	3.8131	1.1068	26.11	0.12	0.750			
0.3966	25384.10	3.8100	3.8100	1.1192	26.11	0.12	0.750			
0.4000	25600.67	3.8070	3.8070	1.1324	26.10	0.11	0.750			
0.4034	25817.14	3.8040	3.8041	1.1406	26.10	0.11	0.750			
0.4069	26038.49	3.8010	3.8010	1.1571	26.09	0.10	0.750			
0.4103	26261.79	3.7980	3.7980	1.1765	26.09	0.10	0.750			
0.4139	26490.73	3.7950	3.7949	1.1891	26.08	0.09	0.750			
0.4175	26720.55	3.7920	3.7921	1.2041	26.08	0.09	0.750			
0.4211	26952.41	3.7890	3.7890	1.2201	26.07	0.08	0.750			
0.4248	27189.38	3.7860	3.7861	1.2349	26.06	0.07	0.750			
0.4286	27427.67	3.7830	3.7829	1.2483	26.06	0.07	0.750			
0.4323	27666.22	3.7800	3.7800	1.2656	26.05	0.06	0.750			
0.4361	27909.61	3.7770	3.7771	1.2870	26.05	0.06	0.750			
0.4400	28159.18	3.7740	3.7739	1.3114	26.04	0.05	0.750			
0.4439	28412.36	3.7710	3.7710	1.3359	26.03	0.04	0.750			
0.4480	28670.99	3.7680	3.7681	1.3587	26.03	0.04	0.750			
0.4521	28935.57	3.7650	3.7649	1.3870	26.02	0.03	0.750			
0.4564	29207.19	3.7620	3.7620	1.4063	26.01	0.02	0.750			
0.4606	29478.16	3.7590	3.7590	1.4346	26.01	0.02	0.750			
0.4649	29754.92	3.7560	3.7560	1.4615	26.00	0.01	0.750			
0.4693	30036.61	3.7530	3.7530	1.4822	25.99	0.00	0.750			
0.4738	30323.07	3.7500	3.7501	1.5140	25.99	-0.00	0.750			
0.4784	30616.48	3.7470	3.7471	1.5567	25.98	-0.01	0.750			
0.4831	30920.57	3.7440	3.7438	1.5904	25.97	-0.02	0.750			
0.4880	31231.42	3.7410	3.7410	1.6276	25.95	-0.04	0.750			
0.4929	31544.20	3.7380	3.7382	1.6598	25.94	-0.05	0.750			
0.4979	31866.06	3.7350	3.7351	1.7109	25.94	-0.05	0.750			
0.5031	32201.41	3.7320	3.7319	1.7459	25.93	-0.06	0.750			
0.5084	32535.14	3.7290	3.7290	1.7950	25.92	-0.07	0.750			
0.5138	32885.67	3.7260	3.7260	1.8437	25.90	-0.09	0.750			
0.5195	33247.72	3.7230	3.7230	1.9008	25.89	-0.10	0.750			
0.5253	33616.07	3.7200	3.7201	1.9378	25.87	-0.12	0.750			
0.5311	33991.58	3.7170	3.7170	1.9765	25.86	-0.13	0.750			
0.5371	34376.07	3.7140	3.7138	2.0332	25.85	-0.14	0.750	0.350	0.490	
0.5432	34766.95	3.7110	3.7110	2.0810	25.83	-0.16	0.750			
0.5496	35174.83	3.7080	3.7080	2.1334	25.82	-0.17	0.750			
0.5561	35587.93	3.7050	3.7050	2.1969	25.80	-0.19	0.750			
0.5627	36015.85	3.7020	3.7020	2.2543	25.78	-0.21	0.750			
0.5696	36454.09	3.6990	3.6989	2.2893	25.75	-0.24	0.750			
0.5765	36894.70	3.6960	3.6961	2.3519	25.73	-0.26	0.750			
0.5837	37355.04	3.6930	3.6930	2.4172	25.71	-0.28	0.750			
0.5910	37823.15	3.6900	3.6900	2.4858	25.70	-0.29	0.750			
0.5986	38310.40	3.6870	3.6870	2.5530	25.69	-0.30	0.750			
0.6064	38809.36	3.6840	3.6840	2.6020	25.67	-0.32	0.750			
0.6142	39307.72	3.6810	3.6811	2.6266	25.65	-0.34	0.750			
0.6222	39818.24	3.6780	3.6780	2.6474	25.64	-0.35	0.750			
0.6302	40330.74	3.6750	3.6750	2.6418	25.63	-0.36	0.750			
0.6382	40843.75	3.6720	3.6720	2.5996	25.62	-0.37	0.750			
0.6460	41341.75	3.6690	3.6690	2.5030	25.61	-0.38	0.750			
0.6533	41813.72	3.6660	3.6660	2.3278	25.60	-0.39	0.750			
0.6601	42247.03	3.6630	3.6631	2.1530	25.59	-0.40	0.750			
0.6662	42639.27	3.6600	3.6600	1.9573	25.59	-0.40	0.750			
0.6717	42989.48	3.6570	3.6570	1.7906	25.58	-0.41	0.750			
0.6768	43315.45	3.6540	3.6539	1.6556	25.58	-0.41	0.750			
0.6814	43610.19	3.6510	3.6510	1.5368	25.58	-0.41	0.750			
0.6858	43893.09	3.6480	3.6480	1.4505	25.58	-0.41	0.750			
0.6900	44156.93	3.6450	3.6449	1.3689	25.58	-0.41	0.750			
0.6939	44410.45	3.6420	3.6420	1.3156	25.58	-0.41	0.750			
0.6977	44654.10	3.6390	3.6390	1.2735	25.58	-0.41	0.750			
0.7015	44894.05	3.6360	3.6359	1.2456	25.58	-0.41	0.750			
0.7052	45129.73	3.6330	3.6330	1.2260	25.58	-0.41	0.750			
0.7088	45361.56	3.6300	3.6300	1.2113	25.58	-0.41	0.750			
0.7124	45593.37	3.6270	3.6271	1.2001	25.58	-0.41	0.750			
0.7160	45823.62	3.6240	3.6240	1.1859	25.58	-0.41	0.750			
0.7195	46049.34	3.6210	3.6210	1.1820	25.58	-0.41	0.750			
0.7230	46273.96	3.6180	3.6180	1.1729	25.58	-0.41	0.750			
0.7265	46499.20	3.6150	3.6149	1.1699	25.58	-0.41	0.750			
0.7301	46723.26	3.6120	3.6121	1.1678	25.58	-0.41	0.750			
0.7335	46946.19	3.6090	3.6090	1.1678	25.59	-0.40	0.750			
0.7371	47171.42	3.6060	3.6061	1.1715	25.59	-0.40	0.750			
0.7405	47394.11	3.6030	3.6030	1.1742	25.59	-0.40	0.750			
0.7440	47618.12	3.6000	3.6000	1.1861	25.59	-0.40	0.750			
0.7476	47845.60	3.5970	3.5971	1.2105	25.59	-0.40	0.750			
0.7512	48079.41	3.5940	3.5939	1.2347	25.59	-0.40	0.750			
0.7550	48318.17	3.5910	3.5910	1.2660	25.59	-0.40	0.750			
0.7588	48563.14	3.5880	3.5881	1.3085	25.60	-0.39	0.750			
0.7628	48819.19	3.5850	3.5850	1.3478	25.60	-0.39	0.750			
0.7669	49082.13	3.5820	3.5820	1.3862	25.60	-0.39	0.750			
0.7711	49351.27	3.5790	3.5790	1.4218	25.60	-0.39	0.750			
0.7755	49628.98	3.5760	3.5760	1.4560	25.60	-0.39	0.750			
0.7799	49913.86	3.5730	3.5731	1.4960	25.60	-0.39	0.750			
0.7845	50204.92	3.5700	3.5700	1.5212	25.60	-0.39	0.750			
0.7890	50499.14	3.5670	3.5670	1.5471	25.60	-0.39	0.750			
0.7938	50801.01	3.5640	3.5640	1.5673	25.61	-0.38	0.750			
0.7985	51104.33	3.5610	3.5610	1.5778	25.61	-0.38	0.750			
0.8033	51411.36	3.5580	3.5580	1.5885	25.62	-0.37	0.750			
0.8081	51716.48	3.5550	3.5549	1.5946	25.62	-0.37	0.750			
0.8129	52023.06	3.5520	3.5521	1.5896	25.63	-0.36	0.750			
0.8177	52330.12	3.5490	3.5491	1.5904	25.64	-0.35	0.750			
0.8225	52642.32	3.5460	3.5459	1.5619	25.65	-0.34	0.750			
0.8273	52944.62	3.5430	3.5429	1.5157	25.66	-0.33	0.750			
0.8319	53242.83	3.5400	3.5400	1.4202	25.68	-0.31	0.750			
0.8361	53512.71	3.5370	3.5371	1.2834	25.69	-0.30	0.750			
0.8400	53759.41	3.5340	3.5341	1.1148	25.70	-0.29	0.750			
0.8431	53957.55	3.5310	3.5311	0.9265	25.72	-0.27	0.750			
0.8454	54107.46	3.5280	3.5281	0.7545	25.74	-0.25	0.750			
0.8473	54230.15	3.5250	3.5248	0.6072	25.76	-0.23	0.750			
0.8487	54317.32	3.5220	3.5219	0.5000	25.77	-0.22	0.750			
0.8500	54399.07	3.5190	3.5189	0.4270	25.77	-0.22	0.750			
0.8511	54468.64	3.5160	3.5160	0.3736	25.78	-0.21	0.750			
0.8521	54534.11	3.5130	3.5129	0.3438	25.79	-0.20	0.750			
0.8530	54594.89	3.5100	3.5099	0.3188	25.80	-0.19	0.750			
0.8540	54653.40	3.5070	3.5071	0.3032	25.80	-0.19	0.750			
0.8548	54709.69	3.5040	3.5040	0.2904	25.81	-0.18	0.750			
0.8557	54763.58	3.5010	3.5009	0.2796	25.82	-0.17	0.750			
0.8565	54815.76	3.4980	3.4980	0.2709	25.82	-0.17	0.750			
0.8573	54866.37	3.4950	3.4950	0.2625	25.83	-0.16	0.750			
0.8581	54916.15	3.4920	3.4920	0.2565	25.84	-0.15	0.750			
0.8588	54964.91	3.4890	3.4890	0.2507	25.85	-0.14	0.750			
0.8596	55012.61	3.4860	3.4860	0.2446	25.85	-0.14	0.750			
0.8603	55058.85	3.4830	3.4830	0.2383	25.86	-0.13	0.750			
0.8610	55104.08	3.4800	3.4800	0.2326	25.87	-0.12	0.750			
0.8617	55148.08	3.4770	3.4770	0.2278	25.87	-0.12	0.750			
0.8624	55190.75	3.4740	3.4740	0.2221	25.88	-0.11	0.750			
0.8630	55233.01	3.4710	3.4710	0.2179	25.88	-0.11	0.750			
0.8637	55274.22	3.4680	3.4680	0.2135	25.89	-0.10	0.750			
0.8643	55314.89	3.4650	3.4650	0.2088	25.90	-0.09	0.750			
0.8649	55354.95	3.4620	3.4620	0.2046	25.90	-0.09	0.750			
0.8655	55393.64	3.4590	3.4590	0.1996	25.91	-0.08	0.750			
0.8661	55431.61	3.4560	3.4560	0.1946	25.91	-0.08	0.750			
0.8667	55468.18	3.4530	3.4530	0.1900	25.91	-0.08	0.750			
0.8672	55503.99	3.4500	3.4500	0.1856	25.92	-0.07	0.750			
0.8678	55539.33	3.4470	3.4470	0.1813	25.92	-0.07	0.750			
0.8683	55573.76	3.4440	3.4440	0.1773	25.93	-0.06	0.750			
0.8689	55607.56	3.4410	3.4410	0.1730	25.93	-0.06	0.750			
0.8694	55640.61	3.4380	3.4381	0.1685	25.93	-0.06	0.750			
0.8699	55672.49	3.4350	3.4349	0.1638	25.94	-0.05	0.750			
0.8704	55703.45	3.4320	3.4320	0.1588	25.94	-0.05	0.750			
0.8708	55733.26	3.4290	3.4291	0.1545	25.94	-0.05	0.750			
0.8713	55762.37	3.4260	3.4260	0.1500	25.95	-0.04	0.750			
0.8717	55790.87	3.4230	3.4229	0.1459	25.95	-0.04	0.750			
0.8722	55818.48	3.4200	3.4200	0.1417	25.95	-0.04	0.750			
0.8726	55845.36	3.4170	3.4170	0.1371	25.96	-0.03	0.750			
0.8730	55871.54	3.4140	3.4140	0.1325	25.96	-0.03	0.750			
0.8734	55896.60	3.4110	3.4109	0.1276	25.96	-0.03	0.750			
0.8738	55920.43	3.4080	3.4081	0.1227	25.97	-0.02	0.750			
0.8741	55943.36	3.4050	3.4050	0.1174	25.97	-0.02	0.750			
0.8745	55965.43	3.4020	3.4022	0.1126	25.97	-0.02	0.750			
0.8748	55986.52	3.3990	3.3990	0.1076	25.97	-0.02	0.750			
0.8751	56007.07	3.3960	3.3958	0.1023	25.98	-0.01	0.750			
0.8754	56026.31	3.3930	3.3930	0.0972	25.98	-0.01	0.750			
0.8757	56044.44	3.3900	3.3901	0.0916	25.98	-0.01	0.750			
0.8760	56062.64	3.3870	3.3870	0.0847	25.98	-0.01	0.750			
0.8762	56078.13	3.3840	3.3840	0.0766	25.98	-0.01	0.750			
0.8764	56092.58	3.3810	3.3810	0.0695	25.98	-0.01	0.750			
0.8766	56105.08	3.3780	3.3784	0.0607	25.99	-0.00	0.750			
0.8768	56116.42	3.3750	3.3753	0.0521	25.99	-0.00	0.750			
0.8770	56125.52	3.3720	3.3726	0.0427	25.99	-0.00	0.750			
0.8771	56132.82	3.3690	3.3701	0.0333	25.99	-0.00	0.750			
0.8772	56138.31	3.3660	3.3676	0.0239	25.99	0.00	0.750			
