Ah_balance (normalized)	Ah_balance (mAh)	Voltage - fit (V)	Voltage -  interpolate (V)	dQ/dV (1/V)	Temperature (°C)	Temperature - diff (°C)	Current (C)	R_DC 0ms (mOhm)	R_DC 50ms (mOhm)	R_DC 50 ms PEC (mOhm)
0.1951	12488.80	3.9360	3.9359	-0.1404	25.63	0.00	-0.750			
0.1956	12520.72	3.9330	3.9329	-0.1886	25.63	0.00	-0.750			
0.1963	12561.28	3.9300	3.9300	-0.2349	25.63	0.00	-0.750			
0.1970	12610.99	3.9270	3.9271	-0.2809	25.63	-0.00	-0.750			
0.1980	12669.71	3.9240	3.9240	-0.3230	25.63	-0.00	-0.750			
0.1990	12736.76	3.9210	3.9210	-0.3656	25.62	-0.01	-0.750			
0.2002	12811.80	3.9180	3.9181	-0.4061	25.62	-0.01	-0.750			
0.2015	12894.20	3.9150	3.9150	-0.4445	25.62	-0.01	-0.750			
0.2029	12983.54	3.9120	3.9120	-0.4810	25.62	-0.01	-0.750			
0.2044	13079.27	3.9090	3.9091	-0.5153	25.61	-0.02	-0.750			
0.2060	13183.09	3.9060	3.9059	-0.5453	25.61	-0.02	-0.750			
0.2077	13291.45	3.9030	3.9030	-0.5730	25.60	-0.03	-0.750			
0.2095	13405.15	3.9000	3.9000	-0.5946	25.60	-0.03	-0.750			
0.2113	13521.41	3.8970	3.8970	-0.6137	25.60	-0.03	-0.750			
0.2132	13642.47	3.8940	3.8940	-0.6298	25.60	-0.03	-0.750			
0.2151	13764.63	3.8910	3.8910	-0.6426	25.60	-0.03	-0.750			
0.2170	13889.77	3.8880	3.8880	-0.6526	25.59	-0.04	-0.750			
0.2190	14016.81	3.8850	3.8850	-0.6622	25.59	-0.04	-0.750			
0.2210	14145.13	3.8820	3.8820	-0.6681	25.59	-0.04	-0.750			
0.2230	14274.28	3.8790	3.8790	-0.6744	25.59	-0.04	-0.750			
0.2251	14403.64	3.8760	3.8760	-0.6784	25.59	-0.04	-0.750			
0.2271	14534.40	3.8730	3.8730	-0.6853	25.59	-0.04	-0.750			
0.2292	14667.18	3.8700	3.8700	-0.6874	25.58	-0.05	-0.750			
0.2312	14799.61	3.8670	3.8670	-0.6929	25.58	-0.05	-0.750			
0.2333	14933.21	3.8640	3.8640	-0.6962	25.58	-0.05	-0.750			
0.2354	15067.57	3.8610	3.8610	-0.6980	25.58	-0.05	-0.750			
0.2375	15202.04	3.8580	3.8579	-0.6985	25.58	-0.05	-0.750			
0.2396	15336.02	3.8550	3.8550	-0.7023	25.58	-0.05	-0.750			
0.2417	15470.53	3.8520	3.8520	-0.7040	25.57	-0.06	-0.750			
0.2439	15606.77	3.8490	3.8490	-0.7055	25.57	-0.06	-0.750			
0.2460	15742.28	3.8460	3.8460	-0.7036	25.57	-0.06	-0.750			
0.2481	15878.27	3.8430	3.8430	-0.7016	25.57	-0.06	-0.750			
0.2502	16013.18	3.8400	3.8400	-0.7012	25.57	-0.06	-0.750			
0.2523	16146.57	3.8370	3.8370	-0.7012	25.57	-0.06	-0.750			
0.2544	16279.69	3.8340	3.8340	-0.6990	25.56	-0.07	-0.750			
0.2565	16414.67	3.8310	3.8310	-0.7005	25.56	-0.07	-0.750			
0.2586	16549.94	3.8280	3.8280	-0.7024	25.56	-0.07	-0.750			
0.2607	16685.45	3.8250	3.8250	-0.7016	25.56	-0.07	-0.750			
0.2628	16820.90	3.8220	3.8220	-0.7020	25.56	-0.07	-0.750			
0.2649	16954.92	3.8190	3.8190	-0.6999	25.56	-0.07	-0.750			
0.2670	17088.57	3.8160	3.8160	-0.6983	25.56	-0.07	-0.750			
0.2691	17222.20	3.8130	3.8129	-0.6992	25.56	-0.07	-0.750			
0.2712	17356.83	3.8100	3.8100	-0.6990	25.56	-0.07	-0.750			
0.2733	17491.18	3.8070	3.8070	-0.6992	25.56	-0.07	-0.750			
0.2754	17625.62	3.8040	3.8040	-0.6985	25.56	-0.07	-0.750			
0.2775	17759.71	3.8010	3.8011	-0.6993	25.56	-0.07	-0.750			
0.2796	17894.26	3.7980	3.7980	-0.6984	25.56	-0.07	-0.750			
0.2817	18027.96	3.7950	3.7950	-0.6991	25.56	-0.07	-0.750			
0.2838	18162.34	3.7920	3.7920	-0.6989	25.56	-0.07	-0.750			
0.2859	18296.61	3.7890	3.7890	-0.7003	25.56	-0.07	-0.750			
0.2880	18430.67	3.7860	3.7860	-0.7004	25.56	-0.07	-0.750			
0.2901	18565.27	3.7830	3.7830	-0.7054	25.56	-0.07	-0.750			
0.2922	18700.79	3.7800	3.7799	-0.7078	25.55	-0.08	-0.750			
0.2943	18837.90	3.7770	3.7770	-0.7102	25.55	-0.08	-0.750			
0.2965	18974.34	3.7740	3.7742	-0.7100	25.55	-0.08	-0.750			
0.2986	19111.35	3.7710	3.7710	-0.7148	25.55	-0.08	-0.750			
0.3008	19248.52	3.7680	3.7680	-0.7154	25.55	-0.08	-0.750			
0.3029	19384.57	3.7650	3.7650	-0.7170	25.55	-0.08	-0.750			
0.3050	19522.08	3.7620	3.7620	-0.7208	25.54	-0.09	-0.750			
0.3072	19662.44	3.7590	3.7590	-0.7277	25.54	-0.09	-0.750			
0.3094	19802.36	3.7560	3.7560	-0.7344	25.54	-0.09	-0.750			
0.3116	19943.62	3.7530	3.7530	-0.7409	25.54	-0.09	-0.750			
0.3138	20085.62	3.7500	3.7500	-0.7495	25.54	-0.09	-0.750			
0.3161	20230.70	3.7470	3.7470	-0.7555	25.54	-0.09	-0.750			
0.3184	20376.49	3.7440	3.7440	-0.7626	25.54	-0.09	-0.750			
0.3207	20523.80	3.7410	3.7410	-0.7682	25.54	-0.09	-0.750			
0.3230	20672.15	3.7380	3.7379	-0.7760	25.54	-0.09	-0.750			
0.3253	20821.22	3.7350	3.7350	-0.7821	25.54	-0.09	-0.750			
0.3277	20971.88	3.7320	3.7320	-0.7870	25.54	-0.09	-0.750			
0.3301	21123.51	3.7290	3.7290	-0.7949	25.54	-0.09	-0.750			
0.3325	21277.91	3.7260	3.7260	-0.8022	25.54	-0.09	-0.750			
0.3349	21431.72	3.7230	3.7231	-0.8114	25.54	-0.09	-0.750			
0.3373	21588.03	3.7200	3.7201	-0.8223	25.54	-0.09	-0.750			
0.3398	21746.20	3.7170	3.7170	-0.8339	25.53	-0.10	-0.750			
0.3423	21907.71	3.7140	3.7140	-0.8471	25.53	-0.10	-0.750			
0.3449	22072.39	3.7110	3.7110	-0.8587	25.52	-0.11	-0.750			
0.3475	22237.83	3.7080	3.7081	-0.8695	25.52	-0.11	-0.750			
0.3501	22406.50	3.7050	3.7050	-0.8833	25.52	-0.11	-0.750			
0.3528	22576.61	3.7020	3.7020	-0.8943	25.52	-0.11	-0.750			
0.3554	22748.13	3.6990	3.6990	-0.9057	25.51	-0.12	-0.750			
0.3582	22924.63	3.6960	3.6960	-0.9257	25.51	-0.12	-0.750			
0.3610	23103.28	3.6930	3.6930	-0.9383	25.51	-0.12	-0.750			
0.3638	23286.02	3.6900	3.6899	-0.9593	25.51	-0.12	-0.750			
0.3667	23471.11	3.6870	3.6870	-0.9774	25.50	-0.13	-0.750			
0.3697	23660.30	3.6840	3.6840	-0.9942	25.50	-0.13	-0.750			
0.3727	23853.40	3.6810	3.6811	-1.0126	25.50	-0.13	-0.750			
0.3758	24049.77	3.6780	3.6779	-1.0312	25.49	-0.14	-0.750			
0.3789	24248.38	3.6750	3.6750	-1.0536	25.49	-0.14	-0.750			
0.3820	24449.50	3.6720	3.6720	-1.0763	25.48	-0.15	-0.750			
0.3853	24662.11	3.6690	3.6690	-1.1023	25.48	-0.15	-0.750			
0.3887	24876.12	3.6660	3.6660	-1.1215	25.48	-0.15	-0.750			
0.3921	25093.72	3.6630	3.6631	-1.1464	25.47	-0.16	-0.750			
0.3956	25315.54	3.6600	3.6599	-1.1717	25.47	-0.16	-0.750			
0.3991	25541.60	3.6570	3.6570	-1.1983	25.47	-0.16	-0.750			
0.4027	25773.03	3.6540	3.6540	-1.2268	25.47	-0.16	-0.750			
0.4064	26009.93	3.6510	3.6510	-1.2554	25.46	-0.17	-0.750			
0.4102	26255.15	3.6480	3.6481	-1.2881	25.46	-0.17	-0.750			
0.4142	26508.40	3.6450	3.6449	-1.3188	25.46	-0.17	-0.750			
0.4182	26763.99	3.6420	3.6420	-1.3410	25.45	-0.18	-0.750			
0.4223	27024.22	3.6390	3.6390	-1.3664	25.45	-0.18	-0.750			
0.4264	27287.63	3.6360	3.6361	-1.4026	25.45	-0.18	-0.750			
0.4306	27560.59	3.6330	3.6329	-1.4330	25.44	-0.19	-0.750			
0.4350	27839.64	3.6300	3.6300	-1.4693	25.44	-0.19	-0.750			
0.4395	28125.82	3.6270	3.6272	-1.4979	25.44	-0.19	-0.750			
0.4440	28417.48	3.6240	3.6239	-1.5311	25.44	-0.19	-0.750			
0.4487	28714.03	3.6210	3.6210	-1.5638	25.44	-0.19	-0.750			
0.4534	29016.34	3.6180	3.6180	-1.5914	25.44	-0.19	-0.750			
0.4582	29323.07	3.6150	3.6150	-1.6153	25.44	-0.19	-0.750			
0.4631	29636.09	3.6120	3.6120	-1.6471	25.44	-0.19	-0.750			
0.4681	29958.95	3.6090	3.6089	-1.6970	25.44	-0.19	-0.750			
0.4733	30289.62	3.6060	3.6060	-1.7257	25.44	-0.19	-0.750			
0.4785	30622.69	3.6030	3.6028	-1.7572	25.44	-0.19	-0.750			
0.4838	30962.56	3.6000	3.6001	-1.7953	25.44	-0.19	-0.750			
0.4892	31311.46	3.5970	3.5971	-1.8316	25.45	-0.18	-0.750			
0.4948	31666.89	3.5940	3.5939	-1.8710	25.46	-0.17	-0.750			
0.5005	32030.15	3.5910	3.5910	-1.8855	25.46	-0.17	-0.750			
0.5062	32396.15	3.5880	3.5880	-1.9200	25.46	-0.17	-0.750			
0.5121	32771.88	3.5850	3.5851	-1.9555	25.46	-0.17	-0.750			
0.5179	33145.63	3.5820	3.5819	-1.9684	25.46	-0.17	-0.750			
0.5238	33523.57	3.5790	3.5790	-2.0001	25.46	-0.17	-0.750			
0.5299	33911.50	3.5760	3.5760	-2.0275	25.47	-0.16	-0.750			
0.5360	34305.63	3.5730	3.5730	-2.0449	25.47	-0.16	-0.750	0.386	0.555	
0.5422	34699.55	3.5700	3.5701	-2.0860	25.48	-0.15	-0.750			
0.5485	35102.19	3.5670	3.5670	-2.1068	25.48	-0.15	-0.750			
0.5549	35510.51	3.5640	3.5639	-2.1205	25.49	-0.14	-0.750			
0.5612	35917.86	3.5610	3.5611	-2.1374	25.50	-0.13	-0.750			
0.5677	36334.49	3.5580	3.5580	-2.1369	25.50	-0.13	-0.750			
0.5741	36743.77	3.5550	3.5550	-2.1359	25.50	-0.13	-0.750			
0.5806	37155.62	3.5520	3.5521	-2.1199	25.51	-0.12	-0.750			
0.5868	37557.11	3.5490	3.5490	-2.1086	25.52	-0.11	-0.750			
0.5931	37961.28	3.5460	3.5461	-2.0969	25.53	-0.10	-0.750			
0.5995	38364.97	3.5430	3.5429	-2.0897	25.54	-0.09	-0.750			
0.6057	38765.61	3.5400	3.5402	-2.0750	25.55	-0.08	-0.750			
0.6120	39165.24	3.5370	3.5371	-2.0577	25.56	-0.07	-0.750			
0.6181	39561.00	3.5340	3.5339	-2.0334	25.57	-0.06	-0.750			
0.6241	39945.22	3.5310	3.5311	-1.9843	25.58	-0.05	-0.750			
0.6301	40324.24	3.5280	3.5280	-1.9358	25.59	-0.04	-0.750			
0.6359	40696.67	3.5250	3.5250	-1.9105	25.60	-0.03	-0.750			
0.6415	41055.71	3.5220	3.5220	-1.8645	25.61	-0.02	-0.750			
0.6470	41410.81	3.5190	3.5189	-1.8208	25.62	-0.01	-0.750			
0.6524	41752.03	3.5160	3.5161	-1.7756	25.63	0.00	-0.750			
0.6577	42091.67	3.5130	3.5130	-1.7350	25.65	0.02	-0.750			
0.6628	42422.05	3.5100	3.5099	-1.6889	25.66	0.03	-0.750			
0.6678	42742.06	3.5070	3.5069	-1.6400	25.67	0.04	-0.750			
0.6727	43051.83	3.5040	3.5041	-1.5932	25.68	0.05	-0.750			
0.6774	43352.79	3.5010	3.5011	-1.5454	25.70	0.07	-0.750			
0.6819	43644.05	3.4980	3.4980	-1.5083	25.71	0.08	-0.750			
0.6864	43931.32	3.4950	3.4949	-1.4600	25.73	0.10	-0.750			
0.6907	44207.97	3.4920	3.4920	-1.4159	25.74	0.11	-0.750			
0.6949	44473.15	3.4890	3.4890	-1.3800	25.75	0.12	-0.750			
0.6990	44736.08	3.4860	3.4859	-1.3354	25.76	0.13	-0.750			
0.7029	44987.53	3.4830	3.4829	-1.2905	25.77	0.14	-0.750			
0.7067	45228.73	3.4800	3.4800	-1.2525	25.78	0.15	-0.750			
0.7104	45464.08	3.4770	3.4771	-1.2171	25.79	0.16	-0.750			
0.7140	45697.16	3.4740	3.4739	-1.1920	25.80	0.17	-0.750			
0.7175	45920.23	3.4710	3.4710	-1.1611	25.81	0.18	-0.750			
0.7209	46138.07	3.4680	3.4681	-1.1321	25.82	0.19	-0.750			
0.7243	46355.87	3.4650	3.4650	-1.1243	25.83	0.20	-0.750			
0.7276	46567.66	3.4620	3.4620	-1.1058	25.84	0.21	-0.750			
0.7309	46777.37	3.4590	3.4590	-1.0937	25.85	0.22	-0.750			
0.7341	46984.56	3.4560	3.4562	-1.0902	25.86	0.23	-0.750			
0.7374	47193.12	3.4530	3.4530	-1.0856	25.87	0.24	-0.750			
0.7407	47402.10	3.4500	3.4500	-1.0797	25.87	0.24	-0.750			
0.7439	47608.94	3.4470	3.4470	-1.0756	25.88	0.25	-0.750			
0.7471	47815.33	3.4440	3.4442	-1.0742	25.88	0.25	-0.750			
0.7503	48020.81	3.4410	3.4409	-1.0707	25.89	0.26	-0.750			
0.7535	48225.98	3.4380	3.4380	-1.0617	25.89	0.26	-0.750			
0.7567	48428.78	3.4350	3.4350	-1.0558	25.90	0.27	-0.750			
0.7599	48631.98	3.4320	3.4321	-1.0506	25.90	0.27	-0.750			
0.7630	48834.07	3.4290	3.4290	-1.0394	25.90	0.27	-0.750			
0.7661	49032.31	3.4260	3.4260	-1.0276	25.91	0.28	-0.750			
0.7692	49228.59	3.4230	3.4230	-1.0146	25.91	0.28	-0.750			
0.7722	49422.02	3.4200	3.4200	-0.9976	25.91	0.28	-0.750			
0.7752	49613.06	3.4170	3.4170	-0.9861	25.91	0.28	-0.750			
0.7781	49800.94	3.4140	3.4140	-0.9678	25.92	0.29	-0.750			
0.7810	49986.47	3.4110	3.4109	-0.9444	25.92	0.29	-0.750			
0.7839	50166.69	3.4080	3.4081	-0.9221	25.92	0.29	-0.750			
0.7866	50340.71	3.4050	3.4050	-0.8966	25.93	0.30	-0.750			
0.7892	50510.49	3.4020	3.4019	-0.8749	25.93	0.30	-0.750			
0.7918	50676.26	3.3990	3.3990	-0.8504	25.94	0.31	-0.750			
0.7943	50835.81	3.3960	3.3960	-0.8234	25.94	0.31	-0.750			
0.7968	50993.99	3.3930	3.3931	-0.7996	25.95	0.32	-0.750			
0.7992	51145.85	3.3900	3.3900	-0.7723	25.95	0.32	-0.750			
0.8014	51291.07	3.3870	3.3870	-0.7429	25.95	0.32	-0.750			
0.8036	51430.62	3.3840	3.3840	-0.7127	25.96	0.33	-0.750			
0.8057	51564.22	3.3810	3.3810	-0.6822	25.96	0.33	-0.750			
0.8077	51692.54	3.3780	3.3780	-0.6528	25.96	0.33	-0.750			
0.8096	51815.39	3.3750	3.3750	-0.6214	25.96	0.33	-0.750			
0.8114	51931.68	3.3720	3.3719	-0.5912	25.97	0.34	-0.750			
0.8131	52041.26	3.3690	3.3691	-0.5630	25.97	0.34	-0.750			
0.8148	52146.42	3.3660	3.3659	-0.5349	25.98	0.35	-0.750			
0.8163	52245.94	3.3630	3.3630	-0.5095	25.98	0.35	-0.750			
0.8178	52341.21	3.3600	3.3600	-0.4857	25.99	0.36	-0.750			
0.8192	52431.47	3.3570	3.3570	-0.4641	25.99	0.36	-0.750			
0.8206	52518.78	3.3540	3.3540	-0.4431	26.00	0.37	-0.750			
0.8219	52600.84	3.3510	3.3510	-0.4226	26.00	0.37	-0.750			
0.8231	52680.05	3.3480	3.3480	-0.4035	26.00	0.37	-0.750			
0.8243	52755.88	3.3450	3.3450	-0.3875	26.01	0.38	-0.750			
0.8254	52828.10	3.3420	3.3420	-0.3711	26.01	0.38	-0.750			
0.8265	52897.23	3.3390	3.3390	-0.3567	26.02	0.39	-0.750			
0.8276	52963.97	3.3360	3.3360	-0.3442	26.02	0.39	-0.750			
0.8286	53028.53	3.3330	3.3330	-0.3327	26.02	0.39	-0.750			
0.8295	53091.13	3.3300	3.3300	-0.3217	26.03	0.40	-0.750			
0.8305	53152.41	3.3270	3.3270	-0.3116	26.03	0.40	-0.750			
0.8314	53210.84	3.3240	3.3240	-0.3008	26.03	0.40	-0.750			
0.8323	53267.51	3.3210	3.3210	-0.2908	26.03	0.40	-0.750			
0.8332	53322.27	3.3180	3.3180	-0.2817	26.04	0.41	-0.750			
0.8340	53374.88	3.3150	3.3150	-0.2724	26.04	0.41	-0.750			
0.8348	53426.37	3.3120	3.3120	-0.2647	26.04	0.41	-0.750			
0.8356	53476.26	3.3090	3.3090	-0.2580	26.05	0.42	-0.750			
0.8363	53525.00	3.3060	3.3060	-0.2519	26.05	0.42	-0.750			
0.8371	53572.74	3.3030	3.3030	-0.2454	26.06	0.43	-0.750			
0.8378	53619.09	3.3000	3.3000	-0.2392	26.06	0.43	-0.750			
0.8385	53664.35	3.2970	3.2970	-0.2348	26.06	0.43	-0.750			
0.8392	53708.89	3.2940	3.2940	-0.2299	26.07	0.44	-0.750			
0.8399	53752.51	3.2910	3.2910	-0.2248	26.07	0.44	-0.750			
0.8406	53795.23	3.2880	3.2879	-0.2201	26.08	0.45	-0.750			
0.8412	53836.91	3.2850	3.2851	-0.2156	26.08	0.45	-0.750			
0.8418	53877.65	3.2820	3.2821	-0.2120	26.08	0.45	-0.750			
0.8425	53918.00	3.2790	3.2790	-0.2087	26.09	0.46	-0.750			
0.8431	53957.74	3.2760	3.2760	-0.2052	26.09	0.46	-0.750			
0.8437	53996.55	3.2730	3.2729	-0.2006	26.09	0.46	-0.750			
0.8443	54034.88	3.2700	3.2701	-0.1975	26.10	0.47	-0.750			
0.8449	54072.68	3.2670	3.2670	-0.1942	26.10	0.47	-0.750			
0.8455	54109.38	3.2640	3.2640	-0.1913	26.10	0.47	-0.750			
0.8460	54145.64	3.2610	3.2609	-0.1883	26.11	0.48	-0.750			
0.8466	54181.24	3.2580	3.2580	-0.1849	26.11	0.48	-0.750			
0.8471	54216.47	3.2550	3.2550	-0.1825	26.11	0.48	-0.750			
0.8477	54251.38	3.2520	3.2520	-0.1800	26.12	0.49	-0.750			
0.8482	54285.81	3.2490	3.2490	-0.1783	26.12	0.49	-0.750			
0.8487	54319.61	3.2460	3.2460	-0.1759	26.12	0.49	-0.750			
0.8493	54353.19	3.2430	3.2429	-0.1739	26.13	0.50	-0.750			
0.8498	54386.21	3.2400	3.2400	-0.1715	26.13	0.50	-0.750			
0.8503	54419.08	3.2370	3.2370	-0.1695	26.14	0.51	-0.750			
0.8508	54451.52	3.2340	3.2341	-0.1678	26.14	0.51	-0.750			
0.8513	54483.51	3.2310	3.2310	-0.1655	26.14	0.51	-0.750			
0.8518	54515.06	3.2280	3.2280	-0.1638	26.15	0.52	-0.750			
0.8523	54546.22	3.2250	3.2250	-0.1613	26.15	0.52	-0.750			
0.8528	54576.73	3.2220	3.2220	-0.1598	26.15	0.52	-0.750			
0.8532	54607.29	3.2190	3.2190	-0.1585	26.16	0.53	-0.750			
0.8537	54637.67	3.2160	3.2160	-0.1569	26.16	0.53	-0.750			
0.8542	54667.77	3.2130	3.2129	-0.1551	26.16	0.53	-0.750			
0.8546	54697.27	3.2100	3.2100	-0.1535	26.17	0.54	-0.750			
0.8551	54726.59	3.2070	3.2072	-0.1519	26.17	0.54	-0.750			
0.8556	54755.63	3.2040	3.2040	-0.1501	26.17	0.54	-0.750			
0.8560	54784.22	3.2010	3.2010	-0.1491	26.18	0.55	-0.750			
0.8564	54812.53	3.1980	3.1980	-0.1469	26.18	0.55	-0.750			
0.8569	54840.64	3.1950	3.1950	-0.1459	26.18	0.55	-0.750			
0.8573	54868.65	3.1920	3.1919	-0.1451	26.19	0.56	-0.750			
0.8578	54896.56	3.1890	3.1891	-0.1436	26.19	0.56	-0.750			
0.8582	54923.94	3.1860	3.1860	-0.1420	26.19	0.56	-0.750			
0.8586	54951.07	3.1830	3.1830	-0.1405	26.20	0.57	-0.750			
0.8590	54977.94	3.1800	3.1800	-0.1397	26.20	0.57	-0.750			
0.8594	55004.31	3.1770	3.1769	-0.1383	26.20	0.57	-0.750			
0.8599	55030.98	3.1740	3.1740	-0.1375	26.21	0.58	-0.750			
0.8603	55057.29	3.1710	3.1709	-0.1365	26.21	0.58	-0.750			
0.8607	55083.32	3.1680	3.1680	-0.1354	26.21	0.58	-0.750			
0.8611	55109.48	3.1650	3.1651	-0.1346	26.22	0.59	-0.750			
0.8615	55135.25	3.1620	3.1620	-0.1333	26.22	0.59	-0.750			
0.8619	55160.68	3.1590	3.1589	-0.1316	26.23	0.60	-0.750			
0.8623	55185.68	3.1560	3.1560	-0.1301	26.23	0.60	-0.750			
0.8627	55210.45	3.1530	3.1531	-0.1286	26.23	0.60	-0.750			
0.8630	55234.94	3.1500	3.1500	-0.1279	26.24	0.61	-0.750			
0.8634	55259.31	3.1470	3.1470	-0.1273	26.24	0.61	-0.750			
0.8638	55283.51	3.1440	3.1440	-0.1265	26.24	0.61	-0.750			
0.8642	55307.87	3.1410	3.1410	-0.1257	26.25	0.62	-0.750			
0.8646	55331.95	3.1380	3.1380	-0.1251	26.25	0.62	-0.750			
0.8649	55356.13	3.1350	3.1351	-0.1244	26.25	0.62	-0.750			
0.8653	55380.02	3.1320	3.1320	-0.1234	26.26	0.63	-0.750			
0.8657	55403.58	3.1290	3.1289	-0.1221	26.26	0.63	-0.750			
0.8660	55426.86	3.1260	3.1260	-0.1207	26.26	0.63	-0.750			
0.8664	55449.79	3.1230	3.1230	-0.1200	26.27	0.64	-0.750			
0.8668	55472.58	3.1200	3.1200	-0.1189	26.27	0.64	-0.750			
0.8671	55495.35	3.1170	3.1169	-0.1182	26.27	0.64	-0.750			
0.8675	55517.93	3.1140	3.1140	-0.1174	26.28	0.65	-0.750			
0.8678	55540.41	3.1110	3.1111	-0.1168	26.28	0.65	-0.750			
0.8682	55562.72	3.1080	3.1080	-0.1162	26.28	0.65	-0.750			
0.8685	55585.02	3.1050	3.1050	-0.1153	26.29	0.66	-0.750			
0.8689	55607.25	3.1020	3.1020	-0.1146	26.29	0.66	-0.750			
0.8692	55629.14	3.0990	3.0991	-0.1138	26.29	0.66	-0.750			
0.8695	55650.85	3.0960	3.0960	-0.1129	26.30	0.67	-0.750			
0.8699	55672.45	3.0930	3.0929	-0.1121	26.30	0.67	-0.750			
0.8702	55693.92	3.0900	3.0900	-0.1113	26.30	0.67	-0.750			
0.8706	55715.24	3.0870	3.0870	-0.1101	26.30	0.67	-0.750			
0.8709	55736.25	3.0840	3.0840	-0.1091	26.31	0.68	-0.750			
0.8712	55757.17	3.0810	3.0810	-0.1083	26.31	0.68	-0.750			
0.8715	55777.69	3.0780	3.0781	-0.1077	26.31	0.68	-0.750			
0.8718	55798.15	3.0750	3.0750	-0.1067	26.31	0.68	-0.750			
0.8722	55818.63	3.0720	3.0720	-0.1062	26.31	0.68	-0.750			
0.8725	55838.85	3.0690	3.0689	-0.1055	26.31	0.68	-0.750			
0.8728	55859.10	3.0660	3.0661	-0.1050	26.32	0.69	-0.750			
0.8731	55879.32	3.0630	3.0631	-0.1048	26.32	0.69	-0.750			
0.8734	55899.44	3.0600	3.0599	-0.1040	26.32	0.69	-0.750			
0.8737	55919.43	3.0570	3.0570	-0.1035	26.32	0.69	-0.750			
0.8741	55939.25	3.0540	3.0540	-0.1025	26.32	0.69	-0.750			
0.8744	55958.85	3.0510	3.0511	-0.1016	26.33	0.70	-0.750			
0.8747	55978.24	3.0480	3.0480	-0.1008	26.33	0.70	-0.750			
0.8750	55997.57	3.0450	3.0450	-0.1000	26.33	0.70	-0.750			
0.8753	56016.59	3.0420	3.0420	-0.0993	26.33	0.70	-0.750			
0.8756	56035.45	3.0390	3.0389	-0.0984	26.33	0.70	-0.750			
0.8758	56054.28	3.0360	3.0361	-0.0979	26.34	0.71	-0.750			
0.8761	56072.97	3.0330	3.0330	-0.0973	26.34	0.71	-0.750			
0.8764	56091.66	3.0300	3.0300	-0.0967	26.34	0.71	-0.750			
0.8767	56110.22	3.0270	3.0270	-0.0962	26.34	0.71	-0.750			
0.8770	56128.60	3.0240	3.0241	-0.0957	26.34	0.71	-0.750			
0.8773	56146.91	3.0210	3.0210	-0.0951	26.34	0.71	-0.750			
0.8776	56165.09	3.0180	3.0180	-0.0947	26.35	0.72	-0.750			
0.8779	56183.17	3.0150	3.0150	-0.0941	26.35	0.72	-0.750			
0.8781	56201.20	3.0120	3.0120	-0.0937	26.35	0.72	-0.750			
0.8784	56219.09	3.0090	3.0090	-0.0934	26.35	0.72	-0.750			
0.8787	56236.99	3.0060	3.0061	-0.0931	26.35	0.72	-0.750			
0.8790	56254.84	3.0030	3.0030	-0.0924	26.35	0.72	-0.750			
