Ah_balance (normalized)	Ah_balance (mAh)	Voltage - fit (V)	Voltage -  interpolate (V)	dQ/dV (1/V)	Temperature (°C)	Temperature - diff (°C)	Current (C)	R_DC 0ms (mOhm)	R_DC 50ms (mOhm)	R_DC 50 ms PEC (mOhm)
0.0476	3044.64	4.1990	4.1992	0.7975	27.68	2.58	0.750			
0.0500	3198.81	4.1960	4.1960	0.8095	27.68	2.58	0.750			
0.0525	3362.17	4.1930	4.1930	0.8240	27.68	2.58	0.750			
0.0550	3517.72	4.1900	4.1899	0.8072	27.68	2.58	0.750			
0.0574	3672.18	4.1870	4.1871	0.8019	27.69	2.59	0.750			
0.0597	3821.69	4.1840	4.1840	0.7895	27.69	2.59	0.750			
0.0621	3971.32	4.1810	4.1809	0.7861	27.69	2.59	0.750			
0.0644	4120.33	4.1780	4.1780	0.7885	27.68	2.58	0.750			
0.0667	4269.71	4.1750	4.1751	0.7881	27.66	2.56	0.750			
0.0691	4423.33	4.1720	4.1719	0.8041	27.65	2.55	0.750			
0.0715	4578.05	4.1690	4.1690	0.8063	27.64	2.54	0.750			
0.0740	4735.16	4.1660	4.1658	0.8064	27.63	2.53	0.750			
0.0764	4890.49	4.1630	4.1631	0.8107	27.62	2.52	0.750			
0.0789	5047.83	4.1600	4.1601	0.8048	27.62	2.52	0.750			
0.0813	5200.60	4.1570	4.1570	0.8038	27.61	2.51	0.750			
0.0836	5353.26	4.1540	4.1540	0.7992	27.61	2.51	0.750			
0.0860	5505.00	4.1510	4.1508	0.8028	27.60	2.50	0.750			
0.0884	5659.76	4.1480	4.1481	0.8122	27.60	2.50	0.750			
0.0909	5817.36	4.1450	4.1450	0.8144	27.60	2.50	0.750			
0.0934	5974.48	4.1420	4.1420	0.8178	27.61	2.51	0.750			
0.0958	6131.57	4.1390	4.1392	0.8206	27.61	2.51	0.750			
0.0983	6290.38	4.1360	4.1359	0.8258	27.61	2.51	0.750			
0.1008	6450.16	4.1330	4.1330	0.8274	27.60	2.50	0.750			
0.1033	6610.35	4.1300	4.1300	0.8203	27.59	2.49	0.750			
0.1058	6768.05	4.1270	4.1271	0.8211	27.58	2.48	0.750			
0.1082	6926.17	4.1240	4.1241	0.8162	27.57	2.47	0.750			
0.1106	7080.73	4.1210	4.1209	0.8085	27.56	2.46	0.750			
0.1130	7233.09	4.1180	4.1181	0.8150	27.56	2.46	0.750			
0.1154	7388.63	4.1150	4.1149	0.8163	27.56	2.46	0.750			
0.1179	7545.61	4.1120	4.1120	0.8261	27.55	2.45	0.750			
0.1204	7706.21	4.1090	4.1091	0.8373	27.55	2.45	0.750			
0.1229	7867.83	4.1060	4.1060	0.8444	27.55	2.45	0.750			
0.1255	8032.61	4.1030	4.1030	0.8465	27.55	2.45	0.750			
0.1281	8197.25	4.1000	4.0999	0.8378	27.55	2.45	0.750			
0.1306	8355.44	4.0970	4.0971	0.8416	27.54	2.44	0.750			
0.1331	8515.94	4.0940	4.0941	0.8518	27.54	2.44	0.750			
0.1356	8678.59	4.0910	4.0908	0.8545	27.54	2.44	0.750			
0.1382	8842.41	4.0880	4.0881	0.8646	27.54	2.44	0.750			
0.1408	9011.44	4.0850	4.0850	0.8603	27.53	2.43	0.750			
0.1434	9177.51	4.0820	4.0821	0.8668	27.52	2.42	0.750			
0.1460	9344.62	4.0790	4.0791	0.8646	27.52	2.42	0.750			
0.1486	9511.35	4.0760	4.0757	0.8631	27.51	2.41	0.750			
0.1512	9675.53	4.0730	4.0731	0.8565	27.51	2.41	0.750			
0.1538	9841.19	4.0700	4.0701	0.8575	27.51	2.41	0.750			
0.1563	10003.69	4.0670	4.0671	0.8621	27.50	2.40	0.750			
0.1589	10169.33	4.0640	4.0640	0.8661	27.50	2.40	0.750			
0.1615	10334.53	4.0610	4.0607	0.8744	27.50	2.40	0.750			
0.1642	10506.10	4.0580	4.0579	0.8715	27.49	2.39	0.750			
0.1668	10675.00	4.0550	4.0551	0.8771	27.48	2.38	0.750			
0.1695	10845.79	4.0520	4.0520	0.8848	27.47	2.37	0.750			
0.1721	11013.42	4.0490	4.0491	0.8815	27.46	2.36	0.750			
0.1747	11180.91	4.0460	4.0460	0.8818	27.45	2.35	0.750			
0.1774	11352.00	4.0430	4.0431	0.8863	27.46	2.36	0.750			
0.1800	11523.01	4.0400	4.0400	0.8952	27.46	2.36	0.750			
0.1828	11698.32	4.0370	4.0370	0.9023	27.46	2.36	0.750			
0.1855	11870.00	4.0340	4.0339	0.9008	27.47	2.37	0.750			
0.1882	12043.51	4.0310	4.0311	0.9021	27.47	2.37	0.750			
0.1909	12217.83	4.0280	4.0280	0.9011	27.46	2.36	0.750			
0.1936	12391.10	4.0250	4.0250	0.9005	27.45	2.35	0.750			
0.1963	12564.11	4.0220	4.0220	0.9014	27.45	2.35	0.750			
0.1990	12734.51	4.0190	4.0192	0.9028	27.44	2.34	0.750			
0.2017	12909.27	4.0160	4.0159	0.9024	27.44	2.34	0.750			
0.2044	13080.64	4.0130	4.0130	0.9126	27.44	2.34	0.750			
0.2071	13256.84	4.0100	4.0101	0.9216	27.44	2.34	0.750			
0.2099	13434.68	4.0070	4.0070	0.9291	27.44	2.34	0.750			
0.2127	13614.81	4.0040	4.0040	0.9346	27.44	2.34	0.750			
0.2156	13795.24	4.0010	4.0011	0.9315	27.43	2.33	0.750			
0.2183	13972.09	3.9980	3.9981	0.9398	27.42	2.32	0.750			
0.2212	14154.83	3.9950	3.9951	0.9448	27.42	2.32	0.750			
0.2240	14335.46	3.9920	3.9917	0.9384	27.41	2.31	0.750			
0.2269	14519.40	3.9890	3.9890	0.9288	27.40	2.30	0.750			
0.2296	14695.77	3.9860	3.9863	0.9286	27.39	2.29	0.750			
0.2324	14872.18	3.9830	3.9831	0.9378	27.38	2.28	0.750			
0.2351	15048.52	3.9800	3.9800	0.9372	27.36	2.26	0.750			
0.2380	15230.37	3.9770	3.9770	0.9429	27.36	2.26	0.750			
0.2408	15414.26	3.9740	3.9741	0.9580	27.35	2.25	0.750			
0.2438	15602.17	3.9710	3.9711	0.9618	27.35	2.25	0.750			
0.2467	15791.38	3.9680	3.9682	0.9709	27.34	2.24	0.750			
0.2496	15972.53	3.9650	3.9649	0.9615	27.34	2.24	0.750			
0.2525	16156.81	3.9620	3.9620	0.9599	27.33	2.23	0.750			
0.2553	16338.60	3.9590	3.9590	0.9652	27.32	2.22	0.750			
0.2582	16524.69	3.9560	3.9560	0.9754	27.32	2.22	0.750			
0.2612	16714.19	3.9530	3.9528	0.9786	27.31	2.21	0.750			
0.2642	16906.97	3.9500	3.9501	0.9769	27.30	2.20	0.750			
0.2671	17092.71	3.9470	3.9470	0.9753	27.30	2.20	0.750			
0.2700	17279.09	3.9440	3.9440	0.9777	27.29	2.19	0.750			
0.2729	17465.56	3.9410	3.9410	0.9812	27.28	2.18	0.750			
0.2759	17654.88	3.9380	3.9380	0.9806	27.28	2.18	0.750			
0.2788	17844.36	3.9350	3.9350	0.9891	27.27	2.17	0.750			
0.2818	18036.06	3.9320	3.9321	0.9951	27.27	2.17	0.750			
0.2848	18227.99	3.9290	3.9290	0.9980	27.26	2.16	0.750			
0.2878	18421.26	3.9260	3.9260	0.9986	27.26	2.16	0.750			
0.2908	18610.95	3.9230	3.9230	0.9974	27.25	2.15	0.750			
0.2938	18801.35	3.9200	3.9201	1.0050	27.24	2.14	0.750			
0.2968	18996.51	3.9170	3.9170	1.0170	27.23	2.13	0.750			
0.2999	19191.99	3.9140	3.9139	1.0208	27.23	2.13	0.750			
0.3029	19388.19	3.9110	3.9109	1.0324	27.23	2.13	0.750			
0.3061	19587.77	3.9080	3.9081	1.0429	27.23	2.13	0.750			
0.3092	19790.94	3.9050	3.9049	1.0511	27.23	2.13	0.750			
0.3125	19997.28	3.9020	3.9020	1.0413	27.23	2.13	0.750			
0.3156	20196.05	3.8990	3.8991	1.0425	27.22	2.12	0.750			
0.3186	20393.39	3.8960	3.8961	1.0456	27.22	2.12	0.750			
0.3217	20591.11	3.8930	3.8930	1.0640	27.21	2.11	0.750			
0.3249	20793.88	3.8900	3.8899	1.0690	27.21	2.11	0.750			
0.3282	21001.90	3.8870	3.8869	1.0766	27.21	2.11	0.750			
0.3315	21214.59	3.8840	3.8841	1.0905	27.20	2.10	0.750			
0.3348	21427.72	3.8810	3.8812	1.0932	27.20	2.10	0.750			
0.3381	21639.83	3.8780	3.8780	1.0714	27.20	2.10	0.750			
0.3412	21839.65	3.8750	3.8750	1.0818	27.19	2.09	0.750			
0.3444	22043.56	3.8720	3.8721	1.1006	27.18	2.08	0.750			
0.3477	22254.92	3.8690	3.8688	1.1271	27.17	2.07	0.750			
0.3512	22474.15	3.8660	3.8662	1.1337	27.17	2.07	0.750			
0.3546	22695.50	3.8630	3.8631	1.1559	27.17	2.07	0.750			
0.3581	22921.30	3.8600	3.8602	1.1690	27.16	2.06	0.750			
0.3618	23152.25	3.8570	3.8567	1.1725	27.16	2.06	0.750			
0.3652	23371.74	3.8540	3.8541	1.1733	27.14	2.04	0.750			
0.3687	23599.45	3.8510	3.8511	1.1768	27.13	2.03	0.750			
0.3723	23826.30	3.8480	3.8480	1.1837	27.12	2.02	0.750			
0.3758	24052.87	3.8450	3.8451	1.1886	27.11	2.01	0.750			
0.3794	24278.66	3.8420	3.8420	1.1988	27.11	2.01	0.750			
0.3830	24509.95	3.8390	3.8390	1.2200	27.11	2.01	0.750			
0.3867	24749.92	3.8360	3.8359	1.2216	27.11	2.01	0.750			
0.3904	24984.78	3.8330	3.8331	1.2383	27.11	2.01	0.750			
0.3942	25225.78	3.8300	3.8301	1.2528	27.10	2.00	0.750			
0.3981	25475.48	3.8270	3.8267	1.2285	27.10	2.00	0.750			
0.4017	25708.43	3.8240	3.8241	1.2084	27.10	2.00	0.750			
0.4053	25938.71	3.8210	3.8211	1.1975	27.09	1.99	0.750			
0.4089	26167.05	3.8180	3.8182	1.1799	27.08	1.98	0.750			
0.4124	26392.78	3.8150	3.8148	1.1413	27.08	1.98	0.750			
0.4158	26608.23	3.8120	3.8120	1.1356	27.06	1.96	0.750			
0.4191	26823.95	3.8090	3.8093	1.1278	27.05	1.95	0.750			
0.4226	27045.65	3.8060	3.8058	1.1188	27.04	1.94	0.750			
0.4259	27259.28	3.8030	3.8031	1.0795	27.02	1.92	0.750			
0.4291	27463.48	3.8000	3.8001	1.0588	26.99	1.89	0.750			
0.4323	27665.84	3.7970	3.7972	1.0444	26.97	1.87	0.750			
0.4354	27863.05	3.7940	3.7940	1.0438	26.95	1.85	0.750			
0.4384	28057.58	3.7910	3.7910	1.0263	26.93	1.83	0.750			
0.4414	28252.14	3.7880	3.7880	1.0301	26.90	1.80	0.750			
0.4446	28453.01	3.7850	3.7851	1.0310	26.87	1.77	0.750			
0.4477	28654.60	3.7820	3.7821	1.0453	26.84	1.74	0.750			
0.4508	28853.43	3.7790	3.7791	1.0398	26.82	1.72	0.750			
0.4539	29052.02	3.7760	3.7758	1.0540	26.79	1.69	0.750			
0.4571	29253.48	3.7730	3.7731	1.0678	26.75	1.65	0.750			
0.4603	29460.20	3.7700	3.7699	1.0965	26.70	1.60	0.750			
0.4636	29672.94	3.7670	3.7671	1.1190	26.67	1.57	0.750			
0.4670	29889.24	3.7640	3.7639	1.1479	26.63	1.53	0.750			
0.4705	30112.86	3.7610	3.7611	1.1749	26.59	1.49	0.750			
0.4741	30343.43	3.7580	3.7579	1.1940	26.55	1.45	0.750			
0.4778	30577.14	3.7550	3.7549	1.2222	26.51	1.41	0.750			
0.4814	30810.24	3.7520	3.7522	1.2642	26.47	1.37	0.750			
0.4853	31056.65	3.7490	3.7488	1.2929	26.42	1.32	0.750			
0.4892	31308.19	3.7460	3.7462	1.3338	26.39	1.29	0.750			
0.4933	31571.48	3.7430	3.7431	1.3614	26.34	1.24	0.750			
0.4974	31834.82	3.7400	3.7401	1.4209	26.28	1.18	0.750			
0.5018	32112.78	3.7370	3.7369	1.4963	26.23	1.13	0.750			
0.5063	32402.96	3.7340	3.7340	1.5706	26.17	1.07	0.750			
0.5111	32711.15	3.7310	3.7311	1.6326	26.11	1.01	0.750			
0.5162	33034.08	3.7280	3.7280	1.7083	26.05	0.95	0.750			
0.5215	33375.31	3.7250	3.7250	1.7826	25.99	0.89	0.750			
0.5269	33723.16	3.7220	3.7218	1.8234	25.92	0.82	0.750			
0.5326	34084.87	3.7190	3.7192	1.8905	25.85	0.75	0.750			
0.5383	34452.60	3.7160	3.7163	1.9381	25.78	0.68	0.750			
0.5442	34827.23	3.7130	3.7129	2.0098	25.71	0.61	0.750			
0.5502	35213.34	3.7100	3.7102	2.0704	25.62	0.52	0.750			
0.5566	35623.42	3.7070	3.7070	2.1255	25.54	0.44	0.750			
0.5631	36036.88	3.7040	3.7040	2.0955	25.45	0.35	0.750			
0.5695	36448.41	3.7010	3.7010	2.0523	25.35	0.25	0.750			
0.5757	36845.45	3.6980	3.6979	1.9301	25.26	0.16	0.750			
0.5814	37207.60	3.6950	3.6950	1.6873	25.18	0.08	0.750			
0.5861	37511.56	3.6920	3.6919	1.4244	25.10	0.00	0.750			
0.5900	37761.94	3.6890	3.6891	1.1502	25.04	-0.06	0.750			
0.5930	37950.58	3.6860	3.6861	0.8777	24.99	-0.11	0.750			
0.5948	38069.47	3.6830	3.6830	0.6527	24.96	-0.14	0.750			
0.5963	38165.83	3.6800	3.6795	0.4567	24.94	-0.16	0.750			
0.5974	38232.43	3.6770	3.6767	0.3174	24.92	-0.18	0.750			
0.5981	38279.08	3.6740	3.6740	0.2246	24.91	-0.19	0.750			
0.5987	38313.88	3.6710	3.6709	0.1410	24.90	-0.20	0.750			
