Ah_balance (normalized)	Ah_balance (mAh)	Voltage - fit (V)	Voltage -  interpolate (V)	dQ/dV (1/V)	Temperature (°C)	Temperature - diff (°C)	Current (C)	R_DC 0ms (mOhm)	R_DC 50ms (mOhm)	R_DC 50 ms PEC (mOhm)
0.0484	3097.42	4.1970	4.1969	0.7343	26.09	0.56	0.750			
0.0506	3241.50	4.1940	4.1941	0.7497	26.09	0.56	0.750			
0.0529	3386.56	4.1910	4.1910	0.7558	26.10	0.57	0.750			
0.0552	3532.69	4.1880	4.1881	0.7497	26.10	0.57	0.750			
0.0575	3677.33	4.1850	4.1850	0.7549	26.10	0.57	0.750			
0.0597	3820.28	4.1820	4.1821	0.7526	26.11	0.58	0.750			
0.0619	3964.44	4.1790	4.1791	0.7554	26.11	0.58	0.750			
0.0642	4109.26	4.1760	4.1760	0.7566	26.11	0.58	0.750			
0.0665	4255.88	4.1730	4.1731	0.7579	26.11	0.58	0.750			
0.0688	4403.35	4.1700	4.1701	0.7599	26.11	0.58	0.750			
0.0711	4547.61	4.1670	4.1670	0.7557	26.11	0.58	0.750			
0.0733	4692.09	4.1640	4.1640	0.7610	26.11	0.58	0.750			
0.0756	4837.79	4.1610	4.1610	0.7624	26.11	0.58	0.750			
0.0779	4988.20	4.1580	4.1579	0.7549	26.11	0.58	0.750			
0.0802	5134.44	4.1550	4.1551	0.7598	26.11	0.58	0.750			
0.0825	5278.43	4.1520	4.1521	0.7598	26.11	0.58	0.750			
0.0847	5423.39	4.1490	4.1491	0.7631	26.11	0.58	0.750			
0.0870	5566.98	4.1460	4.1459	0.7622	26.11	0.58	0.750			
0.0893	5714.56	4.1430	4.1430	0.7651	26.11	0.58	0.750			
0.0917	5865.63	4.1400	4.1401	0.7665	26.11	0.58	0.750			
0.0940	6013.18	4.1370	4.1370	0.7714	26.12	0.59	0.750			
0.0962	6159.28	4.1340	4.1341	0.7686	26.12	0.59	0.750			
0.0985	6305.92	4.1310	4.1306	0.7703	26.12	0.59	0.750			
0.1009	6455.36	4.1280	4.1281	0.7722	26.12	0.59	0.750			
0.1032	6604.24	4.1250	4.1251	0.7736	26.12	0.59	0.750			
0.1055	6754.49	4.1220	4.1221	0.7751	26.13	0.60	0.750			
0.1079	6904.52	4.1190	4.1190	0.7805	26.13	0.60	0.750			
0.1102	7051.18	4.1160	4.1160	0.7759	26.13	0.60	0.750			
0.1125	7200.28	4.1130	4.1130	0.7782	26.13	0.60	0.750			
0.1148	7349.77	4.1100	4.1100	0.7833	26.13	0.60	0.750			
0.1172	7501.67	4.1070	4.1070	0.7806	26.13	0.60	0.750			
0.1195	7650.60	4.1040	4.1040	0.7816	26.13	0.60	0.750			
0.1219	7799.57	4.1010	4.1011	0.7876	26.13	0.60	0.750			
0.1242	7950.60	4.0980	4.0977	0.7910	26.13	0.60	0.750			
0.1266	8103.68	4.0950	4.0950	0.7940	26.13	0.60	0.750			
0.1291	8260.09	4.0920	4.0920	0.7779	26.13	0.60	0.750			
0.1314	8410.32	4.0890	4.0891	0.7851	26.14	0.61	0.750			
0.1337	8557.28	4.0860	4.0862	0.7880	26.14	0.61	0.750			
0.1361	8707.36	4.0830	4.0826	0.7918	26.14	0.61	0.750			
0.1384	8859.66	4.0800	4.0801	0.7968	26.14	0.61	0.750			
0.1408	9014.00	4.0770	4.0771	0.8026	26.14	0.61	0.750			
0.1433	9169.99	4.0740	4.0741	0.8087	26.15	0.62	0.750			
0.1458	9331.34	4.0710	4.0709	0.8171	26.15	0.62	0.750			
0.1482	9482.99	4.0680	4.0680	0.8042	26.15	0.62	0.750			
0.1506	9636.81	4.0650	4.0650	0.8082	26.15	0.62	0.750			
0.1530	9793.89	4.0620	4.0620	0.8078	26.15	0.62	0.750			
0.1554	9947.83	4.0590	4.0590	0.8133	26.15	0.62	0.750			
0.1579	10104.36	4.0560	4.0560	0.8170	26.15	0.62	0.750			
0.1603	10260.79	4.0530	4.0531	0.8195	26.15	0.62	0.750			
0.1628	10419.24	4.0500	4.0500	0.8243	26.15	0.62	0.750			
0.1654	10583.13	4.0470	4.0470	0.8135	26.15	0.62	0.750			
0.1678	10736.39	4.0440	4.0441	0.8148	26.15	0.62	0.750			
0.1702	10891.53	4.0410	4.0411	0.8238	26.15	0.62	0.750			
0.1726	11047.40	4.0380	4.0381	0.8236	26.15	0.62	0.750			
0.1751	11205.14	4.0350	4.0352	0.8288	26.15	0.62	0.750			
0.1776	11365.17	4.0320	4.0322	0.8348	26.16	0.63	0.750			
0.1801	11528.39	4.0290	4.0290	0.8426	26.16	0.63	0.750			
0.1827	11692.86	4.0260	4.0260	0.8466	26.16	0.63	0.750			
0.1852	11854.23	4.0230	4.0230	0.8389	26.17	0.64	0.750			
0.1877	12015.06	4.0200	4.0200	0.8411	26.17	0.64	0.750			
0.1903	12179.71	4.0170	4.0170	0.8363	26.17	0.64	0.750			
0.1928	12338.09	4.0140	4.0140	0.8444	26.17	0.64	0.750			
0.1953	12499.66	4.0110	4.0110	0.8513	26.17	0.64	0.750			
0.1979	12662.70	4.0080	4.0080	0.8563	26.17	0.64	0.750			
0.2004	12828.07	4.0050	4.0052	0.8632	26.17	0.64	0.750			
0.2031	12998.10	4.0020	4.0021	0.8618	26.17	0.64	0.750			
0.2057	13163.33	3.9990	3.9990	0.8636	26.18	0.65	0.750			
0.2083	13329.57	3.9960	3.9961	0.8689	26.18	0.65	0.750			
0.2108	13492.94	3.9930	3.9929	0.8624	26.18	0.65	0.750			
0.2134	13658.87	3.9900	3.9901	0.8657	26.18	0.65	0.750			
0.2160	13825.72	3.9870	3.9870	0.8684	26.18	0.65	0.750			
0.2186	13993.56	3.9840	3.9841	0.8720	26.18	0.65	0.750			
0.2213	14164.13	3.9810	3.9809	0.8794	26.18	0.65	0.750			
0.2239	14330.36	3.9780	3.9780	0.8741	26.18	0.65	0.750			
0.2265	14498.12	3.9750	3.9750	0.8729	26.18	0.65	0.750			
0.2291	14665.24	3.9720	3.9720	0.8666	26.18	0.65	0.750			
0.2317	14829.50	3.9690	3.9691	0.8686	26.19	0.66	0.750			
0.2343	14994.22	3.9660	3.9661	0.8764	26.19	0.66	0.750			
0.2369	15163.37	3.9630	3.9627	0.8792	26.19	0.66	0.750			
0.2396	15336.07	3.9600	3.9600	0.8734	26.19	0.66	0.750			
0.2422	15503.04	3.9570	3.9572	0.8789	26.19	0.66	0.750			
0.2449	15674.17	3.9540	3.9542	0.8844	26.19	0.66	0.750			
0.2475	15841.96	3.9510	3.9510	0.8787	26.19	0.66	0.750			
0.2501	16009.29	3.9480	3.9481	0.8765	26.19	0.66	0.750			
0.2528	16178.62	3.9450	3.9451	0.8774	26.19	0.66	0.750			
0.2555	16349.50	3.9420	3.9421	0.8875	26.19	0.66	0.750			
0.2581	16520.89	3.9390	3.9390	0.8869	26.19	0.66	0.750			
0.2608	16689.33	3.9360	3.9360	0.8797	26.19	0.66	0.750			
0.2634	16858.63	3.9330	3.9330	0.8814	26.19	0.66	0.750			
0.2661	17030.35	3.9300	3.9300	0.8684	26.19	0.66	0.750			
0.2687	17194.43	3.9270	3.9271	0.8741	26.19	0.66	0.750			
0.2713	17361.09	3.9240	3.9241	0.8727	26.19	0.66	0.750			
0.2739	17527.53	3.9210	3.9203	0.8741	26.19	0.66	0.750			
0.2765	17695.81	3.9180	3.9182	0.8784	26.19	0.66	0.750			
0.2791	17864.75	3.9150	3.9151	0.8718	26.18	0.65	0.750			
0.2817	18029.46	3.9120	3.9122	0.8893	26.18	0.65	0.750			
0.2843	18198.14	3.9090	3.9091	0.8984	26.17	0.64	0.750			
0.2871	18372.85	3.9060	3.9056	0.9179	26.17	0.64	0.750			
0.2899	18553.11	3.9030	3.9029	0.9278	26.16	0.63	0.750			
0.2927	18735.61	3.9000	3.9003	0.9215	26.16	0.63	0.750			
0.2956	18921.40	3.8970	3.8971	0.9218	26.16	0.63	0.750			
0.2984	19094.95	3.8940	3.8939	0.9021	26.15	0.62	0.750			
0.3009	19260.55	3.8910	3.8909	0.8804	26.15	0.62	0.750			
0.3036	19429.31	3.8880	3.8880	0.8794	26.14	0.61	0.750			
0.3062	19597.93	3.8850	3.8850	0.8835	26.14	0.61	0.750			
0.3089	19769.30	3.8820	3.8820	0.8891	26.13	0.60	0.750			
0.3116	19939.75	3.8790	3.8787	0.8900	26.13	0.60	0.750			
0.3143	20112.82	3.8760	3.8760	0.8826	26.12	0.59	0.750			
0.3169	20280.28	3.8730	3.8731	0.8874	26.11	0.58	0.750			
0.3195	20450.96	3.8700	3.8700	0.8893	26.10	0.57	0.750			
0.3222	20621.13	3.8670	3.8671	0.8952	26.10	0.57	0.750			
0.3249	20790.66	3.8640	3.8638	0.8966	26.09	0.56	0.750			
0.3276	20964.12	3.8610	3.8611	0.9005	26.08	0.55	0.750			
0.3303	21138.65	3.8580	3.8580	0.9085	26.07	0.54	0.750			
0.3331	21315.64	3.8550	3.8550	0.9090	26.06	0.53	0.750			
0.3358	21489.30	3.8520	3.8519	0.9058	26.05	0.52	0.750			
0.3385	21663.53	3.8490	3.8491	0.9111	26.05	0.52	0.750			
0.3412	21837.07	3.8460	3.8460	0.9161	26.04	0.51	0.750			
0.3440	22013.14	3.8430	3.8432	0.9267	26.03	0.50	0.750			
0.3468	22193.25	3.8400	3.8399	0.9349	26.03	0.50	0.750	0.316	0.456	
0.3496	22373.51	3.8370	3.8369	0.9400	26.02	0.49	0.750			
0.3525	22557.94	3.8340	3.8341	0.9331	26.01	0.48	0.750			
0.3552	22735.31	3.8310	3.8310	0.9477	26.00	0.47	0.750			
0.3580	22915.02	3.8280	3.8281	0.9556	25.99	0.46	0.750			
0.3609	23098.63	3.8250	3.8247	0.9620	25.98	0.45	0.750			
0.3638	23284.72	3.8220	3.8221	0.9711	25.97	0.44	0.750			
0.3668	23474.98	3.8190	3.8191	0.9831	25.97	0.44	0.750			
0.3698	23664.69	3.8160	3.8161	0.9925	25.96	0.43	0.750			
0.3728	23856.32	3.8130	3.8129	0.9955	25.95	0.42	0.750			
0.3758	24048.30	3.8100	3.8100	1.0016	25.94	0.41	0.750			
0.3788	24240.40	3.8070	3.8069	1.0116	25.93	0.40	0.750			
0.3818	24435.92	3.8040	3.8040	1.0250	25.91	0.38	0.750			
0.3849	24633.29	3.8010	3.8010	1.0363	25.90	0.37	0.750			
0.3881	24836.92	3.7980	3.7980	1.0383	25.89	0.36	0.750			
0.3912	25034.56	3.7950	3.7950	1.0568	25.88	0.35	0.750			
0.3943	25237.60	3.7920	3.7921	1.0799	25.87	0.34	0.750			
0.3976	25446.33	3.7890	3.7890	1.1021	25.86	0.33	0.750			
0.4009	25659.68	3.7860	3.7861	1.1163	25.85	0.32	0.750			
0.4043	25875.14	3.7830	3.7831	1.1395	25.84	0.31	0.750			
0.4078	26097.47	3.7800	3.7801	1.1609	25.83	0.30	0.750			
0.4114	26327.69	3.7770	3.7767	1.1755	25.82	0.29	0.750			
0.4148	26548.25	3.7740	3.7740	1.1911	25.81	0.28	0.750			
0.4184	26778.81	3.7710	3.7711	1.2161	25.79	0.26	0.750			
0.4221	27016.83	3.7680	3.7680	1.2346	25.78	0.25	0.750			
0.4258	27253.31	3.7650	3.7650	1.2615	25.76	0.23	0.750			
0.4296	27496.74	3.7620	3.7621	1.2902	25.75	0.22	0.750			
0.4336	27749.25	3.7590	3.7590	1.3211	25.74	0.21	0.750			
0.4376	28007.56	3.7560	3.7560	1.3521	25.73	0.20	0.750			
0.4416	28265.23	3.7530	3.7531	1.3739	25.71	0.18	0.750			
0.4459	28535.28	3.7500	3.7500	1.4022	25.70	0.17	0.750			
0.4501	28806.25	3.7470	3.7470	1.4318	25.69	0.16	0.750			
0.4544	29080.72	3.7440	3.7440	1.4534	25.67	0.14	0.750			
0.4588	29361.41	3.7410	3.7412	1.4878	25.66	0.13	0.750			
0.4633	29648.88	3.7380	3.7379	1.5268	25.65	0.12	0.750			
0.4679	29943.16	3.7350	3.7347	1.5652	25.63	0.10	0.750			
0.4726	30246.65	3.7320	3.7321	1.6115	25.62	0.09	0.750			
0.4775	30561.42	3.7290	3.7289	1.6662	25.61	0.08	0.750			
0.4826	30883.44	3.7260	3.7260	1.6992	25.59	0.06	0.750			
0.4876	31209.59	3.7230	3.7228	1.7479	25.58	0.05	0.750			
0.4930	31554.81	3.7200	3.7198	1.8021	25.56	0.03	0.750			
0.4985	31906.31	3.7170	3.7169	1.8548	25.55	0.02	0.750			
0.5043	32274.31	3.7140	3.7140	1.9178	25.53	0.00	0.750			
0.5101	32649.51	3.7110	3.7110	1.9557	25.51	-0.02	0.750			
0.5161	33028.74	3.7080	3.7080	2.0100	25.50	-0.03	0.750			
0.5221	33411.53	3.7050	3.7048	1.9925	25.48	-0.05	0.750			
0.5281	33797.95	3.7020	3.7019	2.0711	25.47	-0.06	0.750			
0.5345	34206.21	3.6990	3.6991	2.1491	25.45	-0.08	0.750			
0.5412	34634.57	3.6960	3.6963	2.2157	25.45	-0.08	0.750			
0.5479	35063.30	3.6930	3.6930	2.3072	25.44	-0.09	0.750			
0.5549	35514.24	3.6900	3.6903	2.3522	25.43	-0.10	0.750			
0.5621	35973.13	3.6870	3.6870	2.3590	25.41	-0.12	0.750			
0.5692	36431.99	3.6840	3.6838	2.4470	25.40	-0.13	0.750			
0.5767	36911.43	3.6810	3.6810	2.3799	25.40	-0.13	0.750			
0.5839	37367.74	3.6780	3.6785	2.3990	25.38	-0.15	0.750			
0.5908	37812.52	3.6750	3.6747	2.3230	25.38	-0.15	0.750			
0.5976	38248.41	3.6720	3.6719	2.2250	25.39	-0.14	0.750			
0.6043	38674.99	3.6690	3.6690	2.1578	25.39	-0.14	0.750			
0.6104	39066.86	3.6660	3.6660	1.9575	25.40	-0.13	0.750			
0.6162	39433.82	3.6630	3.6626	1.8138	25.40	-0.13	0.750			
0.6213	39763.75	3.6600	3.6603	1.6732	25.41	-0.12	0.750			
0.6261	40071.90	3.6570	3.6572	1.5656	25.41	-0.12	0.750			
0.6306	40360.60	3.6540	3.6540	1.4676	25.42	-0.11	0.750			
0.6349	40630.77	3.6510	3.6509	1.3579	25.42	-0.11	0.750			
0.6388	40885.04	3.6480	3.6481	1.2976	25.43	-0.10	0.750			
0.6426	41124.13	3.6450	3.6450	1.2252	25.43	-0.10	0.750			
0.6461	41353.14	3.6420	3.6421	1.1709	25.44	-0.09	0.750			
0.6495	41567.03	3.6390	3.6388	1.1065	25.45	-0.08	0.750			
0.6528	41776.48	3.6360	3.6361	1.0561	25.46	-0.07	0.750			
0.6558	41971.92	3.6330	3.6331	1.0132	25.46	-0.07	0.750			
0.6588	42163.32	3.6300	3.6301	0.9797	25.47	-0.06	0.750			
0.6616	42344.77	3.6270	3.6266	0.9370	25.47	-0.06	0.750			
0.6644	42521.11	3.6240	3.6241	0.9041	25.47	-0.06	0.750			
0.6671	42693.35	3.6210	3.6210	0.8732	25.48	-0.05	0.750			
0.6697	42860.15	3.6180	3.6180	0.8446	25.48	-0.05	0.750			
0.6722	43021.48	3.6150	3.6149	0.8062	25.49	-0.04	0.750			
0.6745	43169.03	3.6120	3.6120	0.7565	25.49	-0.04	0.750			
0.6768	43314.05	3.6090	3.6089	0.7001	25.50	-0.03	0.750			
0.6788	43443.80	3.6060	3.6061	0.6475	25.51	-0.02	0.750			
0.6806	43561.02	3.6030	3.6031	0.5998	25.51	-0.02	0.750			
0.6823	43668.04	3.6000	3.6002	0.5519	25.52	-0.01	0.750			
0.6839	43767.20	3.5970	3.5965	0.5047	25.52	-0.01	0.750			
0.6853	43861.25	3.5940	3.5944	0.4670	25.53	-0.00	0.750			
0.6867	43950.07	3.5910	3.5912	0.4267	25.53	0.00	0.750			
0.6880	44032.11	3.5880	3.5880	0.3870	25.54	0.01	0.750			
0.6890	44097.93	3.5850	3.5850	0.3203	25.54	0.01	0.750			
0.6899	44155.48	3.5820	3.5819	0.2725	25.54	0.01	0.750			
0.6907	44202.52	3.5790	3.5790	0.2196	25.54	0.01	0.750			
0.6913	44240.16	3.5760	3.5762	0.1693	25.55	0.02	0.750			
0.6917	44268.36	3.5730	3.5734	0.1159	25.55	0.02	0.750			
0.6920	44285.48	3.5700	3.5708	0.0542	25.55	0.02	0.750			
