Ah_balance (normalized)	Ah_balance (mAh)	Voltage - fit (V)	Voltage -  interpolate (V)	dQ/dV (1/V)	Temperature (°C)	Temperature - diff (°C)	Current (C)	R_DC 0ms (mOhm)	R_DC 50ms (mOhm)	R_DC 50 ms PEC (mOhm)
0.0476	3047.07	4.1980	4.1980	0.7752	25.19	0.45	0.750			
0.0499	3196.66	4.1950	4.1950	0.7704	25.20	0.46	0.750			
0.0522	3340.59	4.1920	4.1920	0.7592	25.21	0.47	0.750			
0.0545	3485.07	4.1890	4.1890	0.7579	25.21	0.47	0.750			
0.0567	3629.72	4.1860	4.1860	0.7592	25.22	0.48	0.750			
0.0590	3774.74	4.1830	4.1831	0.7575	25.22	0.48	0.750			
0.0613	3920.83	4.1800	4.1800	0.7660	25.23	0.49	0.750			
0.0636	4068.57	4.1770	4.1770	0.7672	25.23	0.49	0.750			
0.0659	4216.69	4.1740	4.1741	0.7704	25.24	0.50	0.750			
0.0682	4364.46	4.1710	4.1709	0.7697	25.24	0.50	0.750			
0.0705	4512.25	4.1680	4.1677	0.7732	25.25	0.51	0.750			
0.0728	4660.88	4.1650	4.1651	0.7719	25.25	0.51	0.750			
0.0752	4809.99	4.1620	4.1620	0.7717	25.25	0.51	0.750			
0.0775	4958.21	4.1590	4.1590	0.7716	25.25	0.51	0.750			
0.0798	5106.91	4.1560	4.1560	0.7774	25.25	0.51	0.750			
0.0821	5255.01	4.1530	4.1530	0.7757	25.25	0.51	0.750			
0.0844	5404.50	4.1500	4.1501	0.7768	25.25	0.51	0.750			
0.0868	5553.53	4.1470	4.1469	0.7773	25.25	0.51	0.750			
0.0891	5703.97	4.1440	4.1440	0.7792	25.25	0.51	0.750			
0.0915	5853.42	4.1410	4.1410	0.7802	25.25	0.51	0.750			
0.0938	6001.64	4.1380	4.1380	0.7815	25.25	0.51	0.750			
0.0961	6151.00	4.1350	4.1352	0.7825	25.25	0.51	0.750			
0.0985	6303.16	4.1320	4.1319	0.7872	25.25	0.51	0.750			
0.1009	6455.01	4.1290	4.1290	0.7859	25.25	0.51	0.750			
0.1032	6605.63	4.1260	4.1260	0.7857	25.25	0.51	0.750			
0.1056	6756.90	4.1230	4.1231	0.7889	25.25	0.51	0.750			
0.1079	6907.51	4.1200	4.1197	0.7918	25.25	0.51	0.750			
0.1103	7058.81	4.1170	4.1170	0.7926	25.25	0.51	0.750			
0.1127	7213.64	4.1140	4.1140	0.7907	25.26	0.52	0.750			
0.1151	7366.35	4.1110	4.1110	0.7982	25.26	0.52	0.750			
0.1175	7519.05	4.1080	4.1081	0.8026	25.26	0.52	0.750			
0.1199	7672.48	4.1050	4.1049	0.8016	25.27	0.53	0.750			
0.1223	7825.76	4.1020	4.1021	0.8057	25.27	0.53	0.750			
0.1247	7979.99	4.0990	4.0991	0.8089	25.27	0.53	0.750			
0.1271	8137.10	4.0960	4.0960	0.8115	25.27	0.53	0.750			
0.1296	8296.05	4.0930	4.0929	0.8132	25.27	0.53	0.750			
0.1320	8450.45	4.0900	4.0901	0.8114	25.27	0.53	0.750			
0.1345	8605.67	4.0870	4.0870	0.8103	25.27	0.53	0.750			
0.1369	8764.17	4.0840	4.0839	0.8047	25.27	0.53	0.750			
0.1393	8915.31	4.0810	4.0810	0.8075	25.27	0.53	0.750			
0.1417	9068.85	4.0780	4.0781	0.8113	25.27	0.53	0.750			
0.1441	9225.20	4.0750	4.0751	0.8180	25.27	0.53	0.750			
0.1466	9382.44	4.0720	4.0719	0.8231	25.27	0.53	0.750			
0.1491	9542.43	4.0690	4.0691	0.8201	25.27	0.53	0.750			
0.1516	9700.68	4.0660	4.0661	0.8288	25.27	0.53	0.750			
0.1541	9859.93	4.0630	4.0630	0.8351	25.27	0.53	0.750			
0.1566	10019.57	4.0600	4.0600	0.8328	25.27	0.53	0.750			
0.1591	10180.42	4.0570	4.0571	0.8360	25.27	0.53	0.750			
0.1616	10342.19	4.0540	4.0540	0.8371	25.27	0.53	0.750			
0.1641	10503.72	4.0510	4.0511	0.8438	25.27	0.53	0.750			
0.1667	10665.86	4.0480	4.0480	0.8480	25.27	0.53	0.750			
0.1692	10827.99	4.0450	4.0449	0.8447	25.27	0.53	0.750			
0.1717	10990.80	4.0420	4.0420	0.8470	25.27	0.53	0.750			
0.1743	11156.30	4.0390	4.0390	0.8445	25.27	0.53	0.750			
0.1768	11317.14	4.0360	4.0361	0.8485	25.27	0.53	0.750			
0.1794	11479.63	4.0330	4.0330	0.8541	25.28	0.54	0.750			
0.1819	11641.90	4.0300	4.0300	0.8564	25.28	0.54	0.750			
0.1845	11807.77	4.0270	4.0271	0.8605	25.28	0.54	0.750			
0.1871	11975.59	4.0240	4.0240	0.8613	25.28	0.54	0.750			
0.1897	12139.98	4.0210	4.0211	0.8684	25.28	0.54	0.750			
0.1923	12308.75	4.0180	4.0180	0.8726	25.28	0.54	0.750			
0.1949	12474.55	4.0150	4.0149	0.8711	25.28	0.54	0.750			
0.1976	12643.23	4.0120	4.0120	0.8682	25.28	0.54	0.750			
0.2002	12811.46	4.0090	4.0091	0.8617	25.29	0.55	0.750			
0.2027	12975.61	4.0060	4.0061	0.8645	25.29	0.55	0.750			
0.2053	13138.69	4.0030	4.0031	0.8622	25.30	0.56	0.750			
0.2079	13303.76	4.0000	3.9997	0.8707	25.30	0.56	0.750			
0.2105	13470.46	3.9970	3.9971	0.8777	25.30	0.56	0.750			
0.2131	13640.83	3.9940	3.9941	0.8764	25.30	0.56	0.750			
0.2158	13812.21	3.9910	3.9911	0.8935	25.30	0.56	0.750			
0.2185	13982.74	3.9880	3.9881	0.8915	25.30	0.56	0.750			
0.2212	14153.75	3.9850	3.9851	0.8944	25.30	0.56	0.750			
0.2239	14326.98	3.9820	3.9820	0.8908	25.30	0.56	0.750			
0.2265	14498.11	3.9790	3.9792	0.8977	25.30	0.56	0.750			
0.2292	14671.59	3.9760	3.9760	0.9091	25.30	0.56	0.750			
0.2320	14845.06	3.9730	3.9731	0.9062	25.30	0.56	0.750			
0.2347	15019.21	3.9700	3.9700	0.9114	25.30	0.56	0.750			
0.2374	15196.65	3.9670	3.9671	0.9106	25.30	0.56	0.750			
0.2402	15371.66	3.9640	3.9641	0.9127	25.30	0.56	0.750			
0.2429	15547.77	3.9610	3.9611	0.9178	25.30	0.56	0.750			
0.2456	15721.24	3.9580	3.9577	0.9116	25.30	0.56	0.750			
0.2484	15899.96	3.9550	3.9549	0.8945	25.30	0.56	0.750			
0.2511	16068.74	3.9520	3.9520	0.9065	25.30	0.56	0.750			
0.2538	16241.21	3.9490	3.9492	0.9154	25.31	0.57	0.750			
0.2565	16417.35	3.9460	3.9461	0.9175	25.31	0.57	0.750			
0.2593	16592.55	3.9430	3.9428	0.9253	25.31	0.57	0.750			
0.2621	16773.10	3.9400	3.9402	0.9262	25.31	0.57	0.750			
0.2649	16952.57	3.9370	3.9371	0.9362	25.31	0.57	0.750			
0.2677	17134.82	3.9340	3.9340	0.9405	25.31	0.57	0.750			
0.2705	17311.78	3.9310	3.9308	0.9305	25.31	0.57	0.750			
0.2733	17492.99	3.9280	3.9280	0.9302	25.31	0.57	0.750			
0.2761	17672.08	3.9250	3.9251	0.9395	25.31	0.57	0.750			
0.2790	17853.56	3.9220	3.9220	0.9394	25.30	0.56	0.750			
0.2818	18033.58	3.9190	3.9191	0.9392	25.30	0.56	0.750			
0.2846	18214.11	3.9160	3.9160	0.9381	25.30	0.56	0.750			
0.2874	18395.76	3.9130	3.9131	0.9319	25.30	0.56	0.750			
0.2902	18571.83	3.9100	3.9101	0.9368	25.30	0.56	0.750			
0.2930	18751.71	3.9070	3.9071	0.9422	25.30	0.56	0.750			
0.2958	18931.93	3.9040	3.9036	0.9379	25.30	0.56	0.750			
0.2987	19116.47	3.9010	3.9011	0.9254	25.30	0.56	0.750			
0.3015	19296.97	3.8980	3.8980	0.9226	25.29	0.55	0.750			
0.3043	19474.93	3.8950	3.8951	0.9122	25.29	0.55	0.750			
0.3069	19642.15	3.8920	3.8923	0.9282	25.28	0.54	0.750			
0.3097	19821.41	3.8890	3.8893	0.9405	25.28	0.54	0.750			
0.3125	20003.08	3.8860	3.8863	0.9622	25.28	0.54	0.750			
0.3155	20193.27	3.8830	3.8833	0.9867	25.28	0.54	0.750			
0.3186	20390.69	3.8800	3.8803	1.0114	25.28	0.54	0.750			
0.3216	20583.03	3.8770	3.8769	1.0085	25.28	0.54	0.750			
0.3247	20781.55	3.8740	3.8740	0.9983	25.27	0.53	0.750			
0.3276	20966.74	3.8710	3.8711	0.9924	25.27	0.53	0.750			
0.3306	21158.26	3.8680	3.8682	0.9990	25.26	0.52	0.750			
0.3336	21349.86	3.8650	3.8645	0.9983	25.26	0.52	0.750			
0.3366	21541.38	3.8620	3.8622	0.9978	25.25	0.51	0.750			
0.3396	21732.12	3.8590	3.8591	1.0028	25.24	0.50	0.750			
0.3426	21927.47	3.8560	3.8561	1.0131	25.23	0.49	0.750			
0.3457	22126.50	3.8530	3.8526	1.0250	25.22	0.48	0.750			
0.3487	22315.68	3.8500	3.8501	1.0106	25.21	0.47	0.750			
0.3517	22511.99	3.8470	3.8470	1.0144	25.21	0.47	0.750			
0.3548	22710.37	3.8440	3.8440	1.0120	25.20	0.46	0.750			
0.3578	22901.23	3.8410	3.8408	1.0193	25.19	0.45	0.750			
0.3610	23101.05	3.8380	3.8380	1.0114	25.18	0.44	0.750			
0.3639	23291.65	3.8350	3.8350	1.0211	25.17	0.43	0.750			
0.3670	23486.75	3.8320	3.8319	1.0317	25.16	0.42	0.750	0.316	0.431	
0.3701	23686.42	3.8290	3.8287	1.0423	25.15	0.41	0.750			
0.3732	23887.76	3.8260	3.8261	1.0444	25.14	0.40	0.750			
0.3764	24088.33	3.8230	3.8231	1.0499	25.13	0.39	0.750			
0.3795	24287.84	3.8200	3.8202	1.0480	25.12	0.38	0.750			
0.3828	24499.87	3.8170	3.8165	1.0700	25.11	0.37	0.750			
0.3859	24697.95	3.8140	3.8140	1.0486	25.10	0.36	0.750			
0.3891	24899.28	3.8110	3.8111	1.0511	25.09	0.35	0.750			
0.3922	25101.00	3.8080	3.8081	1.0595	25.08	0.34	0.750			
0.3954	25304.51	3.8050	3.8048	1.0685	25.07	0.33	0.750			
0.3986	25508.42	3.8020	3.8020	1.0577	25.06	0.32	0.750			
0.4017	25708.78	3.7990	3.7991	1.0778	25.05	0.31	0.750			
0.4049	25913.82	3.7960	3.7962	1.1029	25.04	0.30	0.750			
0.4083	26129.12	3.7930	3.7921	1.1213	25.03	0.29	0.750			
0.4117	26346.95	3.7900	3.7902	1.1284	25.02	0.28	0.750			
0.4151	26564.88	3.7870	3.7872	1.1498	25.00	0.26	0.750			
0.4186	26790.28	3.7840	3.7841	1.1701	24.99	0.25	0.750			
0.4221	27013.90	3.7810	3.7811	1.1650	24.98	0.24	0.750			
0.4256	27239.39	3.7780	3.7782	1.1906	24.96	0.22	0.750			
0.4292	27467.75	3.7750	3.7751	1.2144	24.95	0.21	0.750			
0.4330	27710.50	3.7720	3.7719	1.2222	24.94	0.20	0.750			
0.4366	27942.75	3.7690	3.7690	1.2435	24.93	0.19	0.750			
0.4403	28181.45	3.7660	3.7661	1.2732	24.92	0.18	0.750			
0.4443	28434.79	3.7630	3.7630	1.2816	24.90	0.16	0.750			
0.4481	28677.46	3.7600	3.7601	1.3215	24.89	0.15	0.750			
0.4521	28936.83	3.7570	3.7571	1.3245	24.88	0.14	0.750			
0.4561	29192.62	3.7540	3.7542	1.3751	24.87	0.13	0.750			
0.4603	29460.82	3.7510	3.7511	1.4368	24.85	0.11	0.750			
0.4648	29745.38	3.7480	3.7475	1.4222	24.84	0.10	0.750			
0.4692	30026.46	3.7450	3.7452	1.4623	24.83	0.09	0.750			
0.4735	30301.53	3.7420	3.7424	1.5212	24.82	0.08	0.750			
0.4780	30592.94	3.7390	3.7394	1.5506	24.81	0.07	0.750			
0.4828	30899.73	3.7360	3.7356	1.6033	24.80	0.06	0.750			
0.4876	31203.67	3.7330	3.7329	1.6292	24.78	0.04	0.750			
0.4927	31529.90	3.7300	3.7304	1.6894	24.76	0.02	0.750			
0.4980	31875.14	3.7270	3.7261	1.7490	24.74	0.00	0.750			
0.5033	32208.84	3.7240	3.7237	1.8274	24.73	-0.01	0.750			
0.5085	32546.09	3.7210	3.7212	1.8007	24.72	-0.02	0.750			
0.5140	32895.91	3.7180	3.7185	1.8800	24.70	-0.04	0.750			
0.5197	33262.34	3.7150	3.7151	1.8914	24.68	-0.06	0.750			
0.5255	33631.47	3.7120	3.7118	1.9615	24.66	-0.08	0.750			
0.5317	34026.49	3.7090	3.7094	2.0462	24.64	-0.10	0.750			
0.5378	34418.16	3.7060	3.7059	2.1651	24.63	-0.11	0.750			
0.5446	34852.89	3.7030	3.7029	2.1555	24.62	-0.12	0.750			
0.5507	35247.34	3.7000	3.6998	2.2388	24.61	-0.13	0.750			
0.5577	35690.29	3.6970	3.6968	2.2857	24.60	-0.14	0.750			
0.5644	36121.55	3.6940	3.6940	2.4131	24.59	-0.15	0.750			
0.5723	36630.30	3.6910	3.6910	2.5520	24.58	-0.16	0.750			
0.5797	37099.56	3.6880	3.6878	2.5115	24.57	-0.17	0.750			
0.5871	37571.24	3.6850	3.6849	2.5201	24.55	-0.19	0.750			
0.5947	38061.28	3.6820	3.6822	2.6394	24.54	-0.20	0.750			
0.6025	38559.71	3.6790	3.6786	2.6583	24.54	-0.20	0.750			
0.6105	39073.58	3.6760	3.6764	2.7849	24.54	-0.20	0.750			
0.6191	39624.81	3.6730	3.6730	2.8009	24.52	-0.22	0.750			
0.6279	40185.42	3.6700	3.6700	2.9033	24.53	-0.21	0.750			
0.6368	40758.27	3.6670	3.6674	2.8064	24.53	-0.21	0.750			
0.6450	41282.81	3.6640	3.6639	2.8111	24.54	-0.20	0.750			
0.6534	41817.79	3.6610	3.6612	2.5355	24.55	-0.19	0.750			
0.6612	42317.34	3.6580	3.6577	2.3825	24.55	-0.19	0.750			
0.6676	42724.08	3.6550	3.6548	2.1556	24.57	-0.17	0.750			
0.6733	43094.39	3.6520	3.6518	1.9054	24.58	-0.16	0.750			
0.6788	43443.24	3.6490	3.6486	1.7307	24.59	-0.15	0.750			
0.6841	43781.18	3.6460	3.6458	1.6201	24.60	-0.14	0.750			
0.6885	44065.07	3.6430	3.6433	1.4418	24.61	-0.13	0.750			
0.6925	44321.66	3.6400	3.6401	1.2851	24.61	-0.13	0.750			
0.6961	44552.57	3.6370	3.6370	1.1482	24.62	-0.12	0.750			
0.6993	44755.81	3.6340	3.6339	1.0234	24.63	-0.11	0.750			
0.7021	44937.02	3.6310	3.6310	0.9673	24.64	-0.10	0.750			
0.7049	45112.20	3.6280	3.6281	0.9270	24.64	-0.10	0.750			
0.7075	45279.85	3.6250	3.6253	0.9064	24.65	-0.09	0.750			
0.7102	45450.43	3.6220	3.6222	0.8886	24.66	-0.08	0.750			
0.7128	45622.31	3.6190	3.6173	0.8668	24.67	-0.07	0.750			
0.7155	45792.33	3.6160	3.6161	0.8459	24.68	-0.06	0.750			
0.7181	45956.57	3.6130	3.6133	0.7956	24.69	-0.05	0.750			
0.7205	46109.24	3.6100	3.6095	0.7468	24.70	-0.04	0.750			
0.7226	46248.72	3.6070	3.6071	0.6732	24.71	-0.03	0.750			
0.7246	46371.76	3.6040	3.6040	0.6032	24.71	-0.03	0.750			
0.7263	46481.29	3.6010	3.6010	0.5366	24.72	-0.02	0.750			
0.7278	46576.96	3.5980	3.5980	0.4662	24.72	-0.02	0.750			
0.7290	46656.45	3.5950	3.5949	0.4004	24.73	-0.01	0.750			
0.7301	46726.13	3.5920	3.5919	0.3403	24.73	-0.01	0.750			
0.7310	46785.15	3.5890	3.5890	0.2820	24.73	-0.01	0.750			
0.7318	46834.40	3.5860	3.5860	0.2279	24.74	-0.00	0.750			
0.7324	46873.23	3.5830	3.5834	0.1725	24.74	-0.00	0.750			
0.7328	46901.53	3.5800	3.5806	0.1144	24.74	-0.00	0.750			
0.7331	46918.10	3.5770	3.5778	0.0373	24.74	-0.00	0.750			
