Ah_balance (normalized)	Ah_balance (mAh)	Voltage - fit (V)	Voltage -  interpolate (V)	dQ/dV (1/V)	Temperature (°C)	Temperature - diff (°C)	Current (C)	R_DC 0ms (mOhm)	R_DC 50ms (mOhm)	R_DC 50 ms PEC (mOhm)
0.0003	19.37	4.1620	4.1617	-0.1088	25.12	0.00	-0.750			
0.0007	44.80	4.1590	4.1589	-0.1557	25.12	0.00	-0.750			
0.0012	79.43	4.1560	4.1564	-0.2021	25.12	-0.00	-0.750			
0.0019	123.81	4.1530	4.1529	-0.2438	25.12	-0.00	-0.750			
0.0027	174.74	4.1500	4.1500	-0.2860	25.12	-0.00	-0.750			
0.0037	234.54	4.1470	4.1471	-0.3275	25.11	-0.01	-0.750			
0.0047	302.22	4.1440	4.1440	-0.3655	25.11	-0.01	-0.750			
0.0059	375.73	4.1410	4.1410	-0.3999	25.11	-0.01	-0.750			
0.0071	456.61	4.1380	4.1380	-0.4322	25.10	-0.02	-0.750			
0.0085	542.53	4.1350	4.1350	-0.4653	25.10	-0.02	-0.750			
0.0100	636.92	4.1320	4.1320	-0.4908	25.09	-0.03	-0.750			
0.0114	732.69	4.1290	4.1290	-0.5134	25.09	-0.03	-0.750			
0.0130	834.23	4.1260	4.1260	-0.5394	25.08	-0.04	-0.750			
0.0147	939.94	4.1230	4.1227	-0.5639	25.08	-0.04	-0.750			
0.0164	1051.28	4.1200	4.1200	-0.5815	25.07	-0.05	-0.750			
0.0182	1165.94	4.1170	4.1171	-0.5973	25.07	-0.05	-0.750			
0.0200	1283.06	4.1140	4.1141	-0.6155	25.06	-0.06	-0.750			
0.0219	1404.35	4.1110	4.1110	-0.6323	25.06	-0.06	-0.750			
0.0238	1525.46	4.1080	4.1079	-0.6426	25.06	-0.06	-0.750			
0.0258	1650.25	4.1050	4.1050	-0.6512	25.05	-0.07	-0.750			
0.0278	1776.12	4.1020	4.1020	-0.6623	25.05	-0.07	-0.750			
0.0298	1905.63	4.0990	4.0990	-0.6716	25.05	-0.07	-0.750			
0.0318	2035.61	4.0960	4.0960	-0.6825	25.05	-0.07	-0.750			
0.0339	2166.85	4.0930	4.0929	-0.6870	25.04	-0.08	-0.750			
0.0359	2300.60	4.0900	4.0900	-0.6931	25.04	-0.08	-0.750			
0.0380	2435.18	4.0870	4.0866	-0.6968	25.04	-0.08	-0.750			
0.0402	2569.88	4.0840	4.0839	-0.7035	25.04	-0.08	-0.750			
0.0423	2704.81	4.0810	4.0808	-0.7022	25.04	-0.08	-0.750			
0.0443	2838.26	4.0780	4.0781	-0.7099	25.04	-0.08	-0.750			
0.0465	2977.05	4.0750	4.0750	-0.7216	25.04	-0.08	-0.750			
0.0487	3115.14	4.0720	4.0719	-0.7195	25.04	-0.08	-0.750			
0.0508	3253.49	4.0690	4.0689	-0.7214	25.04	-0.08	-0.750			
0.0530	3391.89	4.0660	4.0660	-0.7285	25.04	-0.08	-0.750			
0.0552	3531.64	4.0630	4.0630	-0.7299	25.04	-0.08	-0.750			
0.0574	3674.45	4.0600	4.0599	-0.7396	25.04	-0.08	-0.750			
0.0596	3816.67	4.0570	4.0570	-0.7375	25.03	-0.09	-0.750			
0.0619	3960.70	4.0540	4.0539	-0.7408	25.03	-0.09	-0.750			
0.0641	4103.37	4.0510	4.0513	-0.7391	25.03	-0.09	-0.750			
0.0663	4244.20	4.0480	4.0479	-0.7364	25.03	-0.09	-0.750			
0.0685	4384.13	4.0450	4.0449	-0.7451	25.03	-0.09	-0.750			
0.0707	4525.72	4.0420	4.0420	-0.7405	25.04	-0.08	-0.750			
0.0731	4678.07	4.0390	4.0388	-0.7392	25.04	-0.08	-0.750			
0.0754	4824.03	4.0360	4.0359	-0.7223	25.04	-0.08	-0.750			
0.0775	4957.96	4.0330	4.0329	-0.7031	25.04	-0.08	-0.750			
0.0795	5087.95	4.0300	4.0303	-0.6897	25.04	-0.08	-0.750			
0.0814	5209.59	4.0270	4.0266	-0.6935	25.04	-0.08	-0.750			
0.0834	5337.91	4.0240	4.0238	-0.6987	25.04	-0.08	-0.750			
0.0856	5476.89	4.0210	4.0210	-0.7189	25.04	-0.08	-0.750			
0.0878	5619.92	4.0180	4.0182	-0.7390	25.04	-0.08	-0.750			
0.0902	5770.77	4.0150	4.0151	-0.7607	25.04	-0.08	-0.750			
0.0924	5914.34	4.0120	4.0120	-0.7694	25.04	-0.08	-0.750			
0.0947	6061.09	4.0090	4.0090	-0.7687	25.04	-0.08	-0.750			
0.0970	6209.76	4.0060	4.0059	-0.7723	25.04	-0.08	-0.750			
0.0994	6361.72	4.0030	4.0029	-0.7777	25.04	-0.08	-0.750			
0.1017	6510.74	4.0000	4.0003	-0.7770	25.04	-0.08	-0.750			
0.1040	6656.21	3.9970	3.9971	-0.7909	25.04	-0.08	-0.750			
0.1064	6809.45	3.9940	3.9939	-0.7862	25.04	-0.08	-0.750			
0.1088	6960.11	3.9910	3.9909	-0.7775	25.04	-0.08	-0.750			
0.1111	7112.50	3.9880	3.9878	-0.7830	25.04	-0.08	-0.750			
0.1135	7263.91	3.9850	3.9856	-0.7868	25.04	-0.08	-0.750			
0.1159	7414.52	3.9820	3.9818	-0.7838	25.04	-0.08	-0.750			
0.1182	7561.97	3.9790	3.9789	-0.7810	25.04	-0.08	-0.750			
0.1205	7710.91	3.9760	3.9761	-0.7819	25.04	-0.08	-0.750			
0.1229	7863.77	3.9730	3.9729	-0.7888	25.04	-0.08	-0.750			
0.1252	8014.11	3.9700	3.9698	-0.7935	25.04	-0.08	-0.750			
0.1276	8165.99	3.9670	3.9670	-0.7921	25.04	-0.08	-0.750			
0.1299	8315.72	3.9640	3.9640	-0.8052	25.05	-0.07	-0.750			
0.1324	8472.77	3.9610	3.9610	-0.8051	25.05	-0.07	-0.750			
0.1348	8628.32	3.9580	3.9580	-0.8018	25.05	-0.07	-0.750			
0.1373	8785.21	3.9550	3.9548	-0.8009	25.06	-0.06	-0.750			
0.1397	8940.11	3.9520	3.9518	-0.7989	25.06	-0.06	-0.750			
0.1420	9089.34	3.9490	3.9490	-0.8044	25.06	-0.06	-0.750			
0.1444	9242.86	3.9460	3.9460	-0.8059	25.06	-0.06	-0.750			
0.1468	9394.40	3.9430	3.9429	-0.8007	25.06	-0.06	-0.750			
0.1493	9554.83	3.9400	3.9399	-0.8117	25.06	-0.06	-0.750			
0.1518	9712.34	3.9370	3.9373	-0.8131	25.06	-0.06	-0.750			
0.1542	9867.37	3.9340	3.9340	-0.8163	25.06	-0.06	-0.750			
0.1566	10023.59	3.9310	3.9309	-0.8138	25.06	-0.06	-0.750			
0.1590	10177.48	3.9280	3.9280	-0.8092	25.07	-0.05	-0.750			
0.1615	10335.95	3.9250	3.9251	-0.8171	25.07	-0.05	-0.750			
0.1640	10494.29	3.9220	3.9221	-0.8194	25.07	-0.05	-0.750			
0.1664	10651.20	3.9190	3.9190	-0.8178	25.07	-0.05	-0.750			
0.1689	10807.58	3.9160	3.9160	-0.8270	25.07	-0.05	-0.750			
0.1714	10968.01	3.9130	3.9129	-0.8198	25.08	-0.04	-0.750			
0.1738	11126.37	3.9100	3.9099	-0.8242	25.08	-0.04	-0.750			
0.1763	11284.13	3.9070	3.9076	-0.8238	25.08	-0.04	-0.750			
0.1788	11443.28	3.9040	3.9038	-0.8217	25.08	-0.04	-0.750			
0.1813	11602.20	3.9010	3.9009	-0.8296	25.08	-0.04	-0.750			
0.1838	11760.57	3.8980	3.8979	-0.8198	25.08	-0.04	-0.750			
0.1863	11920.99	3.8950	3.8949	-0.8255	25.08	-0.04	-0.750			
0.1887	12079.24	3.8920	3.8929	-0.8207	25.08	-0.04	-0.750			
0.1912	12233.74	3.8890	3.8888	-0.8120	25.08	-0.04	-0.750			
0.1936	12388.04	3.8860	3.8861	-0.8155	25.09	-0.03	-0.750			
0.1959	12539.21	3.8830	3.8830	-0.8040	25.09	-0.03	-0.750			
0.1985	12703.86	3.8800	3.8800	-0.8260	25.10	-0.02	-0.750			
0.2009	12860.68	3.8770	3.8771	-0.8221	25.10	-0.02	-0.750			
0.2034	13017.40	3.8740	3.8740	-0.8224	25.10	-0.02	-0.750			
0.2059	13178.02	3.8710	3.8710	-0.8243	25.10	-0.02	-0.750			
0.2084	13337.58	3.8680	3.8679	-0.8150	25.11	-0.01	-0.750			
0.2108	13492.58	3.8650	3.8650	-0.8106	25.11	-0.01	-0.750			
0.2133	13648.87	3.8620	3.8623	-0.8089	25.11	-0.01	-0.750			
0.2157	13801.85	3.8590	3.8587	-0.8035	25.11	-0.01	-0.750			
0.2180	13954.41	3.8560	3.8560	-0.8098	25.11	-0.01	-0.750			
0.2205	14111.41	3.8530	3.8530	-0.8066	25.12	-0.00	-0.750			
0.2229	14267.57	3.8500	3.8498	-0.7940	25.12	-0.00	-0.750			
0.2254	14426.03	3.8470	3.8474	-0.7917	25.12	-0.00	-0.750			
0.2277	14573.85	3.8440	3.8438	-0.7824	25.12	0.00	-0.750			
0.2300	14719.78	3.8410	3.8408	-0.7770	25.12	0.00	-0.750			
0.2323	14868.17	3.8380	3.8379	-0.7794	25.12	0.00	-0.750			
0.2347	15019.39	3.8350	3.8348	-0.7911	25.12	0.00	-0.750			
0.2371	15172.49	3.8320	3.8320	-0.7865	25.12	0.00	-0.750			
0.2394	15324.10	3.8290	3.8291	-0.7797	25.12	0.00	-0.750			
0.2418	15474.24	3.8260	3.8259	-0.7688	25.12	0.00	-0.750			
0.2440	15618.84	3.8230	3.8230	-0.7708	25.13	0.01	-0.750			
0.2463	15763.03	3.8200	3.8200	-0.7607	25.13	0.01	-0.750			
0.2486	15911.43	3.8170	3.8168	-0.7647	25.14	0.02	-0.750			
0.2509	16058.73	3.8140	3.8140	-0.7635	25.14	0.02	-0.750			
0.2532	16205.59	3.8110	3.8110	-0.7608	25.14	0.02	-0.750			
0.2555	16350.20	3.8080	3.8080	-0.7741	25.14	0.02	-0.750			
0.2578	16499.28	3.8050	3.8049	-0.7700	25.15	0.03	-0.750			
0.2601	16648.40	3.8020	3.8019	-0.7656	25.15	0.03	-0.750			
0.2624	16795.77	3.7990	3.7988	-0.7648	25.15	0.03	-0.750			
0.2647	16942.70	3.7960	3.7959	-0.7659	25.15	0.03	-0.750			
0.2670	17088.89	3.7930	3.7928	-0.7605	25.15	0.03	-0.750			
0.2693	17232.84	3.7900	3.7899	-0.7582	25.15	0.03	-0.750			
0.2715	17377.02	3.7870	3.7870	-0.7660	25.16	0.04	-0.750			
0.2738	17523.31	3.7840	3.7841	-0.7679	25.16	0.04	-0.750			
0.2761	17671.56	3.7810	3.7809	-0.7749	25.16	0.04	-0.750			
0.2784	17818.93	3.7780	3.7780	-0.7783	25.16	0.04	-0.750			
0.2808	17970.23	3.7750	3.7750	-0.7911	25.16	0.04	-0.750			
0.2832	18126.14	3.7720	3.7719	-0.7951	25.17	0.05	-0.750			
0.2856	18279.10	3.7690	3.7689	-0.7950	25.17	0.05	-0.750			
0.2880	18432.66	3.7660	3.7663	-0.7951	25.17	0.05	-0.750			
0.2904	18584.20	3.7630	3.7628	-0.7997	25.17	0.05	-0.750			
0.2928	18736.38	3.7600	3.7599	-0.8111	25.17	0.05	-0.750			
0.2952	18893.06	3.7570	3.7569	-0.8176	25.17	0.05	-0.750			
0.2977	19050.15	3.7540	3.7540	-0.8194	25.17	0.05	-0.750			
0.3002	19214.93	3.7510	3.7512	-0.8316	25.17	0.05	-0.750			
0.3027	19373.14	3.7480	3.7478	-0.8354	25.17	0.05	-0.750			
0.3052	19533.49	3.7450	3.7449	-0.8411	25.17	0.05	-0.750			
0.3077	19692.37	3.7420	3.7419	-0.8479	25.16	0.04	-0.750			
0.3102	19853.08	3.7390	3.7391	-0.8525	25.16	0.04	-0.750			
0.3129	20023.54	3.7360	3.7361	-0.8754	25.16	0.04	-0.750			
0.3155	20191.38	3.7330	3.7328	-0.8890	25.16	0.04	-0.750			
0.3182	20364.69	3.7300	3.7300	-0.8973	25.16	0.04	-0.750			
0.3209	20537.37	3.7270	3.7270	-0.9012	25.15	0.03	-0.750			
0.3236	20710.68	3.7240	3.7239	-0.9087	25.15	0.03	-0.750			
0.3264	20886.91	3.7210	3.7216	-0.9178	25.15	0.03	-0.750			
0.3291	21064.68	3.7180	3.7180	-0.9458	25.15	0.03	-0.750			
0.3320	21249.62	3.7150	3.7148	-0.9538	25.14	0.02	-0.750			
0.3349	21435.55	3.7120	3.7118	-0.9613	25.14	0.02	-0.750			
0.3378	21618.47	3.7090	3.7095	-0.9949	25.13	0.01	-0.750			
0.3408	21811.81	3.7060	3.7058	-1.0058	25.13	0.01	-0.750			
0.3439	22008.46	3.7030	3.7027	-1.0026	25.13	0.01	-0.750			
0.3469	22199.96	3.7000	3.6998	-1.0081	25.12	0.00	-0.750			
0.3499	22394.34	3.6970	3.6973	-1.0341	25.12	0.00	-0.750	0.381	0.533	
0.3530	22591.83	3.6940	3.6938	-1.0529	25.12	-0.00	-0.750			
0.3562	22794.63	3.6910	3.6908	-1.0594	25.12	-0.00	-0.750			
0.3593	22994.89	3.6880	3.6878	-1.0530	25.11	-0.01	-0.750			
0.3626	23208.08	3.6850	3.6853	-1.0926	25.11	-0.01	-0.750			
0.3660	23422.17	3.6820	3.6818	-1.1273	25.11	-0.01	-0.750			
0.3694	23639.64	3.6790	3.6787	-1.1304	25.11	-0.01	-0.750			
0.3728	23857.63	3.6760	3.6758	-1.1391	25.10	-0.02	-0.750			
0.3761	24071.91	3.6730	3.6739	-1.1580	25.10	-0.02	-0.750			
0.3797	24303.85	3.6700	3.6698	-1.1846	25.09	-0.03	-0.750			
0.3833	24532.85	3.6670	3.6669	-1.1857	25.08	-0.04	-0.750			
0.3867	24751.93	3.6640	3.6639	-1.2100	25.07	-0.05	-0.750			
0.3905	24993.29	3.6610	3.6610	-1.2450	25.07	-0.05	-0.750			
0.3943	25235.17	3.6580	3.6578	-1.2592	25.07	-0.05	-0.750			
0.3980	25473.77	3.6550	3.6550	-1.2926	25.06	-0.06	-0.750			
0.4020	25725.69	3.6520	3.6524	-1.2960	25.06	-0.06	-0.750			
0.4060	25981.45	3.6490	3.6488	-1.3414	25.05	-0.07	-0.750			
0.4101	26245.85	3.6460	3.6458	-1.3588	25.05	-0.07	-0.750			
0.4142	26506.22	3.6430	3.6433	-1.3635	25.04	-0.08	-0.750			
0.4182	26767.42	3.6400	3.6401	-1.4031	25.04	-0.08	-0.750			
0.4224	27035.64	3.6370	3.6368	-1.4339	25.03	-0.09	-0.750			
0.4267	27307.49	3.6340	3.6340	-1.4724	25.03	-0.09	-0.750			
0.4312	27596.09	3.6310	3.6306	-1.5136	25.03	-0.09	-0.750			
0.4358	27891.93	3.6280	3.6281	-1.5198	25.02	-0.10	-0.750			
0.4407	28204.25	3.6250	3.6246	-1.5641	25.02	-0.10	-0.750			
0.4454	28508.56	3.6220	3.6215	-1.5882	25.01	-0.11	-0.750			
0.4501	28809.03	3.6190	3.6184	-1.5618	25.00	-0.12	-0.750			
0.4548	29109.06	3.6160	3.6163	-1.6069	24.99	-0.13	-0.750			
0.4597	29419.95	3.6130	3.6134	-1.6214	24.99	-0.13	-0.750			
0.4646	29736.10	3.6100	3.6097	-1.6677	24.98	-0.14	-0.750			
0.4697	30060.62	3.6070	3.6080	-1.7740	24.98	-0.14	-0.750			
0.4753	30417.20	3.6040	3.6039	-1.7722	24.97	-0.15	-0.750			
0.4806	30761.18	3.6010	3.6015	-1.8139	24.97	-0.15	-0.750			
0.4861	31109.58	3.5980	3.5983	-1.8126	24.96	-0.16	-0.750			
0.4916	31462.23	3.5950	3.5949	-1.8636	24.96	-0.16	-0.750			
0.4972	31819.81	3.5920	3.5921	-1.8702	24.96	-0.16	-0.750			
0.5029	32183.72	3.5890	3.5892	-1.8852	24.96	-0.16	-0.750			
0.5087	32556.53	3.5860	3.5865	-1.9540	24.95	-0.17	-0.750			
0.5147	32941.34	3.5830	3.5830	-1.9725	24.95	-0.17	-0.750			
0.5207	33323.52	3.5800	3.5796	-1.9874	24.94	-0.18	-0.750			
0.5267	33709.97	3.5770	3.5772	-2.0148	24.94	-0.18	-0.750			
0.5327	34091.53	3.5740	3.5736	-2.0711	24.94	-0.18	-0.750			
0.5389	34489.91	3.5710	3.5711	-2.0448	24.94	-0.18	-0.750			
0.5451	34883.76	3.5680	3.5679	-2.0758	24.93	-0.19	-0.750			
0.5513	35284.26	3.5650	3.5654	-2.1218	24.93	-0.19	-0.750			
0.5578	35701.88	3.5620	3.5617	-2.0760	24.93	-0.19	-0.750			
0.5642	36110.61	3.5590	3.5592	-2.0982	24.93	-0.19	-0.750			
0.5706	36515.81	3.5560	3.5555	-2.1204	24.93	-0.19	-0.750			
0.5765	36897.75	3.5530	3.5529	-2.0502	24.93	-0.19	-0.750			
0.5825	37281.40	3.5500	3.5499	-2.0380	24.94	-0.18	-0.750			
0.5887	37679.46	3.5470	3.5475	-2.0418	24.94	-0.18	-0.750			
0.5950	38080.51	3.5440	3.5438	-2.0057	24.95	-0.17	-0.750			
0.6011	38467.32	3.5410	3.5414	-2.0040	24.96	-0.16	-0.750			
0.6070	38845.48	3.5380	3.5374	-1.9852	24.96	-0.16	-0.750			
0.6127	39211.05	3.5350	3.5349	-1.9062	24.97	-0.15	-0.750			
0.6184	39577.11	3.5320	3.5326	-1.9018	24.98	-0.14	-0.750			
0.6241	39940.13	3.5290	3.5291	-1.8753	24.99	-0.13	-0.750			
0.6298	40306.52	3.5260	3.5258	-1.8353	25.00	-0.12	-0.750			
0.6354	40668.57	3.5230	3.5229	-1.7739	25.01	-0.11	-0.750			
0.6407	41006.02	3.5200	3.5197	-1.7429	25.03	-0.09	-0.750			
0.6457	41322.17	3.5170	3.5168	-1.7086	25.04	-0.08	-0.750			
0.6507	41645.26	3.5140	3.5137	-1.6609	25.06	-0.06	-0.750			
0.6556	41955.21	3.5110	3.5112	-1.6255	25.07	-0.05	-0.750			
0.6606	42278.50	3.5080	3.5083	-1.5880	25.08	-0.04	-0.750			
0.6654	42585.21	3.5050	3.5046	-1.5590	25.09	-0.03	-0.750			
0.6701	42885.48	3.5020	3.5013	-1.4968	25.11	-0.01	-0.750			
0.6744	43159.52	3.4990	3.4985	-1.4273	25.13	0.01	-0.750			
0.6787	43438.67	3.4960	3.4962	-1.4049	25.15	0.03	-0.750			
0.6827	43689.70	3.4930	3.4928	-1.3265	25.16	0.04	-0.750			
0.6865	43934.19	3.4900	3.4900	-1.2832	25.17	0.05	-0.750			
0.6905	44191.48	3.4870	3.4869	-1.2686	25.19	0.07	-0.750			
0.6940	44418.87	3.4840	3.4842	-1.2969	25.20	0.08	-0.750			
0.6979	44662.96	3.4810	3.4810	-1.1782	25.21	0.09	-0.750			
