Ah_balance (normalized)	Ah_balance (mAh)	Voltage - fit (V)	Voltage -  interpolate (V)	dQ/dV (1/V)	Temperature (°C)	Temperature - diff (°C)	Current (C)	R_DC 0ms (mOhm)	R_DC 50ms (mOhm)	R_DC 50 ms PEC (mOhm)
0.0487	3116.30	4.1970	4.1970	0.7275	25.47	0.45	0.750			
0.0509	3259.03	4.1940	4.1939	0.7484	25.47	0.45	0.750			
0.0532	3404.14	4.1910	4.1910	0.7559	25.47	0.45	0.750			
0.0555	3553.07	4.1880	4.1880	0.7419	25.47	0.45	0.750			
0.0577	3694.45	4.1850	4.1851	0.7510	25.48	0.46	0.750			
0.0599	3835.84	4.1820	4.1821	0.7468	25.48	0.46	0.750			
0.0622	3978.55	4.1790	4.1792	0.7502	25.48	0.46	0.750			
0.0644	4123.16	4.1760	4.1761	0.7578	25.48	0.46	0.750			
0.0668	4272.01	4.1730	4.1731	0.7596	25.48	0.46	0.750			
0.0691	4419.47	4.1700	4.1701	0.7619	25.48	0.46	0.750			
0.0713	4565.36	4.1670	4.1670	0.7595	25.48	0.46	0.750			
0.0736	4710.86	4.1640	4.1640	0.7596	25.48	0.46	0.750			
0.0759	4855.63	4.1610	4.1610	0.7617	25.48	0.46	0.750			
0.0782	5001.92	4.1580	4.1580	0.7649	25.48	0.46	0.750			
0.0805	5151.33	4.1550	4.1551	0.7621	25.48	0.46	0.750			
0.0828	5296.68	4.1520	4.1521	0.7675	25.48	0.46	0.750			
0.0851	5443.88	4.1490	4.1491	0.7658	25.48	0.46	0.750			
0.0874	5590.80	4.1460	4.1458	0.7652	25.48	0.46	0.750			
0.0896	5737.44	4.1430	4.1430	0.7673	25.48	0.46	0.750			
0.0920	5886.59	4.1400	4.1402	0.7617	25.48	0.46	0.750			
0.0943	6034.28	4.1370	4.1370	0.7663	25.49	0.47	0.750			
0.0965	6178.24	4.1340	4.1340	0.7713	25.49	0.47	0.750			
0.0989	6326.48	4.1310	4.1311	0.7743	25.49	0.47	0.750			
0.1012	6476.08	4.1280	4.1281	0.7765	25.49	0.47	0.750			
0.1035	6626.16	4.1250	4.1251	0.7772	25.49	0.47	0.750			
0.1059	6776.34	4.1220	4.1222	0.7787	25.49	0.47	0.750			
0.1082	6926.76	4.1190	4.1190	0.7792	25.50	0.48	0.750			
0.1105	7073.77	4.1160	4.1160	0.7751	25.50	0.48	0.750			
0.1128	7222.31	4.1130	4.1130	0.7754	25.50	0.48	0.750			
0.1152	7372.44	4.1100	4.1101	0.7819	25.50	0.48	0.750			
0.1176	7524.04	4.1070	4.1070	0.7769	25.50	0.48	0.750			
0.1199	7673.13	4.1040	4.1040	0.7842	25.51	0.49	0.750			
0.1222	7822.89	4.1010	4.1011	0.7876	25.51	0.49	0.750			
0.1246	7973.57	4.0980	4.0979	0.7895	25.51	0.49	0.750			
0.1270	8125.56	4.0950	4.0950	0.7938	25.51	0.49	0.750			
0.1294	8280.98	4.0920	4.0920	0.7903	25.51	0.49	0.750			
0.1317	8430.83	4.0890	4.0891	0.7946	25.51	0.49	0.750			
0.1341	8583.19	4.0860	4.0860	0.7956	25.51	0.49	0.750			
0.1365	8736.34	4.0830	4.0830	0.8014	25.51	0.49	0.750			
0.1389	8889.73	4.0800	4.0801	0.8028	25.51	0.49	0.750			
0.1414	9048.07	4.0770	4.0770	0.7976	25.51	0.49	0.750			
0.1438	9201.29	4.0740	4.0741	0.8057	25.51	0.49	0.750			
0.1462	9356.36	4.0710	4.0711	0.8079	25.52	0.50	0.750			
0.1486	9509.20	4.0680	4.0681	0.8029	25.52	0.50	0.750			
0.1510	9663.33	4.0650	4.0648	0.8033	25.52	0.50	0.750			
0.1534	9818.12	4.0620	4.0622	0.8072	25.52	0.50	0.750			
0.1558	9973.74	4.0590	4.0591	0.8157	25.52	0.50	0.750			
0.1583	10130.95	4.0560	4.0560	0.8250	25.53	0.51	0.750			
0.1608	10288.80	4.0530	4.0530	0.8234	25.53	0.51	0.750			
0.1633	10449.89	4.0500	4.0500	0.8271	25.53	0.51	0.750			
0.1658	10609.73	4.0470	4.0471	0.8317	25.53	0.51	0.750			
0.1683	10770.83	4.0440	4.0440	0.8231	25.54	0.52	0.750			
0.1707	10925.53	4.0410	4.0410	0.8196	25.54	0.52	0.750			
0.1731	11078.59	4.0380	4.0381	0.8195	25.55	0.53	0.750			
0.1756	11235.43	4.0350	4.0343	0.8298	25.55	0.53	0.750			
0.1781	11398.65	4.0320	4.0322	0.8343	25.55	0.53	0.750			
0.1806	11559.72	4.0290	4.0291	0.8438	25.55	0.53	0.750			
0.1832	11724.88	4.0260	4.0261	0.8533	25.55	0.53	0.750			
0.1858	11893.10	4.0230	4.0230	0.8640	25.55	0.53	0.750			
0.1883	12051.84	4.0200	4.0200	0.8480	25.55	0.53	0.750			
0.1909	12215.82	4.0170	4.0171	0.8483	25.55	0.53	0.750			
0.1934	12377.88	4.0140	4.0140	0.8506	25.55	0.53	0.750			
0.1960	12542.69	4.0110	4.0110	0.8517	25.56	0.54	0.750			
0.1985	12704.54	4.0080	4.0081	0.8526	25.56	0.54	0.750			
0.2011	12867.52	4.0050	4.0050	0.8580	25.56	0.54	0.750			
0.2037	13037.11	4.0020	4.0020	0.8472	25.56	0.54	0.750			
0.2062	13199.43	3.9990	3.9989	0.8566	25.56	0.54	0.750			
0.2088	13362.34	3.9960	3.9962	0.8606	25.57	0.55	0.750			
0.2114	13527.28	3.9930	3.9931	0.8662	25.57	0.55	0.750			
0.2140	13694.49	3.9900	3.9902	0.8692	25.57	0.55	0.750			
0.2166	13862.02	3.9870	3.9871	0.8658	25.57	0.55	0.750			
0.2192	14028.15	3.9840	3.9841	0.8740	25.57	0.55	0.750			
0.2218	14197.99	3.9810	3.9811	0.8806	25.57	0.55	0.750			
0.2244	14364.63	3.9780	3.9777	0.8763	25.57	0.55	0.750			
0.2271	14534.26	3.9750	3.9750	0.8815	25.57	0.55	0.750			
0.2297	14703.26	3.9720	3.9721	0.8795	25.57	0.55	0.750			
0.2324	14873.76	3.9690	3.9690	0.8834	25.58	0.56	0.750			
0.2351	15044.29	3.9660	3.9661	0.8886	25.58	0.56	0.750			
0.2377	15212.59	3.9630	3.9627	0.8864	25.58	0.56	0.750			
0.2404	15383.04	3.9600	3.9602	0.8873	25.58	0.56	0.750			
0.2430	15554.11	3.9570	3.9570	0.8825	25.58	0.56	0.750			
0.2457	15723.86	3.9540	3.9541	0.8869	25.59	0.57	0.750			
0.2483	15891.94	3.9510	3.9511	0.8856	25.59	0.57	0.750			
0.2510	16062.51	3.9480	3.9481	0.8874	25.59	0.57	0.750			
0.2536	16231.71	3.9450	3.9451	0.8938	25.59	0.57	0.750			
0.2563	16403.29	3.9420	3.9420	0.8878	25.59	0.57	0.750			
0.2590	16576.12	3.9390	3.9391	0.8937	25.59	0.57	0.750			
0.2616	16745.59	3.9360	3.9359	0.8879	25.59	0.57	0.750			
0.2643	16917.18	3.9330	3.9330	0.8890	25.59	0.57	0.750			
0.2670	17088.06	3.9300	3.9301	0.8832	25.59	0.57	0.750			
0.2696	17257.55	3.9270	3.9271	0.8896	25.60	0.58	0.750			
0.2723	17429.96	3.9240	3.9241	0.8982	25.60	0.58	0.750			
0.2750	17599.69	3.9210	3.9207	0.8893	25.60	0.58	0.750			
0.2776	17769.47	3.9180	3.9181	0.8902	25.60	0.58	0.750			
0.2803	17941.07	3.9150	3.9151	0.8846	25.60	0.58	0.750			
0.2830	18111.68	3.9120	3.9120	0.8899	25.59	0.57	0.750			
0.2856	18280.46	3.9090	3.9090	0.8829	25.59	0.57	0.750			
0.2883	18449.24	3.9060	3.9061	0.8852	25.59	0.57	0.750			
0.2909	18620.38	3.9030	3.9031	0.8843	25.58	0.56	0.750			
0.2936	18791.17	3.9000	3.9000	0.8891	25.58	0.56	0.750			
0.2963	18962.63	3.8970	3.8970	0.8938	25.58	0.56	0.750			
0.2989	19132.58	3.8940	3.8941	0.8936	25.57	0.55	0.750			
0.3016	19305.31	3.8910	3.8911	0.8990	25.57	0.55	0.750			
0.3044	19480.24	3.8880	3.8879	0.8962	25.56	0.54	0.750			
0.3071	19652.15	3.8850	3.8851	0.8963	25.56	0.54	0.750			
0.3098	19825.42	3.8820	3.8821	0.8971	25.55	0.53	0.750			
0.3124	19994.75	3.8790	3.8787	0.8947	25.55	0.53	0.750			
0.3151	20165.99	3.8760	3.8761	0.8932	25.55	0.53	0.750			
0.3178	20337.53	3.8730	3.8730	0.8871	25.54	0.52	0.750			
0.3204	20508.21	3.8700	3.8701	0.8952	25.54	0.52	0.750			
0.3231	20677.60	3.8670	3.8671	0.8953	25.53	0.51	0.750			
0.3258	20851.71	3.8640	3.8641	0.9040	25.53	0.51	0.750			
0.3286	21029.44	3.8610	3.8610	0.8956	25.52	0.50	0.750			
0.3312	21199.43	3.8580	3.8580	0.9037	25.52	0.50	0.750			
0.3340	21374.50	3.8550	3.8552	0.9145	25.51	0.49	0.750			
0.3367	21548.46	3.8520	3.8520	0.9088	25.50	0.48	0.750			
0.3395	21729.69	3.8490	3.8490	0.8828	25.50	0.48	0.750			
0.3421	21894.56	3.8460	3.8462	0.9029	25.49	0.47	0.750			
0.3448	22066.18	3.8430	3.8433	0.9290	25.48	0.46	0.750			
0.3476	22248.19	3.8400	3.8401	0.9497	25.48	0.46	0.750	0.311	0.451	
0.3505	22429.07	3.8370	3.8374	0.9499	25.47	0.45	0.750			
0.3534	22620.21	3.8340	3.8343	0.9431	25.46	0.44	0.750			
0.3563	22803.46	3.8310	3.8312	0.9712	25.45	0.43	0.750			
0.3592	22988.76	3.8280	3.8281	0.9669	25.44	0.42	0.750			
0.3620	23169.30	3.8250	3.8250	0.9522	25.43	0.41	0.750			
0.3649	23354.68	3.8220	3.8221	0.9576	25.42	0.40	0.750			
0.3678	23540.65	3.8190	3.8193	0.9789	25.42	0.40	0.750			
0.3708	23730.93	3.8160	3.8161	0.9945	25.41	0.39	0.750			
0.3738	23924.74	3.8130	3.8129	0.9962	25.40	0.38	0.750			
0.3769	24118.71	3.8100	3.8101	0.9981	25.39	0.37	0.750			
0.3799	24311.91	3.8070	3.8070	1.0164	25.39	0.37	0.750			
0.3829	24505.99	3.8040	3.8041	1.0301	25.38	0.36	0.750			
0.3860	24703.51	3.8010	3.8012	1.0429	25.37	0.35	0.750			
0.3893	24912.03	3.7980	3.7980	1.0343	25.36	0.34	0.750			
0.3923	25110.36	3.7950	3.7951	1.0540	25.35	0.33	0.750			
0.3955	25311.15	3.7920	3.7922	1.0755	25.34	0.32	0.750			
0.3987	25518.69	3.7890	3.7891	1.0970	25.32	0.30	0.750			
0.4020	25728.20	3.7860	3.7861	1.1067	25.31	0.29	0.750			
0.4053	25942.38	3.7830	3.7832	1.1367	25.30	0.28	0.750			
0.4088	26163.59	3.7800	3.7801	1.1650	25.29	0.27	0.750			
0.4125	26398.05	3.7770	3.7768	1.1730	25.28	0.26	0.750			
0.4160	26620.91	3.7740	3.7741	1.1835	25.27	0.25	0.750			
0.4195	26847.74	3.7710	3.7712	1.2112	25.26	0.24	0.750			
0.4232	27082.09	3.7680	3.7680	1.2345	25.25	0.23	0.750			
0.4269	27319.97	3.7650	3.7650	1.2394	25.25	0.23	0.750			
0.4306	27556.22	3.7620	3.7622	1.2711	25.24	0.22	0.750			
0.4345	27805.81	3.7590	3.7592	1.3002	25.23	0.21	0.750			
0.4384	28058.36	3.7560	3.7554	1.3385	25.22	0.20	0.750			
0.4424	28313.30	3.7530	3.7531	1.3686	25.20	0.18	0.750			
0.4466	28584.27	3.7500	3.7502	1.4012	25.19	0.17	0.750			
0.4510	28862.01	3.7470	3.7469	1.4314	25.18	0.16	0.750			
0.4554	29142.80	3.7440	3.7440	1.4204	25.16	0.14	0.750			
0.4595	29408.94	3.7410	3.7413	1.4711	25.15	0.13	0.750			
0.4640	29693.32	3.7380	3.7376	1.4980	25.14	0.12	0.750			
0.4684	29979.42	3.7350	3.7355	1.5338	25.12	0.10	0.750			
0.4731	30277.34	3.7320	3.7322	1.5660	25.11	0.09	0.750			
0.4779	30587.20	3.7290	3.7287	1.6194	25.09	0.07	0.750			
0.4828	30898.32	3.7260	3.7255	1.6994	25.08	0.06	0.750			
0.4883	31252.45	3.7230	3.7233	1.7523	25.06	0.04	0.750			
0.4937	31598.22	3.7200	3.7199	1.8057	25.05	0.03	0.750			
0.4990	31938.95	3.7170	3.7173	1.8530	25.03	0.01	0.750			
0.5045	32285.23	3.7140	3.7134	1.8741	25.02	-0.00	0.750			
0.5102	32651.51	3.7110	3.7108	1.9324	25.01	-0.01	0.750			
0.5159	33018.44	3.7080	3.7078	1.9793	24.99	-0.03	0.750			
0.5222	33420.67	3.7050	3.7056	2.0749	24.97	-0.05	0.750			
0.5288	33841.44	3.7020	3.7023	2.1724	24.95	-0.07	0.750			
0.5352	34249.77	3.6990	3.6991	2.2693	24.94	-0.08	0.750			
0.5416	34664.24	3.6960	3.6958	2.2306	24.92	-0.10	0.750			
0.5485	35104.69	3.6930	3.6935	2.2714	24.91	-0.11	0.750			
0.5552	35533.60	3.6900	3.6898	2.3047	24.91	-0.11	0.750			
0.5622	35980.66	3.6870	3.6871	2.4675	24.90	-0.12	0.750			
0.5700	36481.46	3.6840	3.6837	2.6214	24.89	-0.13	0.750			
0.5777	36974.05	3.6810	3.6811	2.6360	24.88	-0.14	0.750			
0.5858	37491.13	3.6780	3.6783	2.6441	24.88	-0.14	0.750			
0.5939	38009.66	3.6750	3.6752	2.6249	24.88	-0.14	0.750			
0.6020	38525.26	3.6720	3.6725	2.4943	24.88	-0.14	0.750			
0.6096	39013.56	3.6690	3.6691	2.3646	24.89	-0.13	0.750			
0.6160	39421.24	3.6660	3.6661	2.1569	24.89	-0.13	0.750			
0.6218	39796.81	3.6630	3.6631	1.9242	24.89	-0.13	0.750			
0.6274	40154.96	3.6600	3.6601	1.7989	24.90	-0.12	0.750			
0.6326	40485.73	3.6570	3.6570	1.6647	24.91	-0.11	0.750			
0.6374	40790.84	3.6540	3.6541	1.5381	24.92	-0.10	0.750			
0.6418	41076.60	3.6510	3.6511	1.4275	24.92	-0.10	0.750			
0.6458	41333.81	3.6480	3.6480	1.3154	24.93	-0.09	0.750			
0.6496	41574.08	3.6450	3.6448	1.2291	24.93	-0.09	0.750			
0.6531	41801.43	3.6420	3.6420	1.1462	24.93	-0.09	0.750			
0.6564	42010.91	3.6390	3.6391	1.0958	24.93	-0.09	0.750			
0.6596	42212.37	3.6360	3.6361	1.0477	24.94	-0.08	0.750			
0.6627	42409.64	3.6330	3.6324	1.0099	24.94	-0.08	0.750			
0.6656	42597.31	3.6300	3.6301	0.9675	24.95	-0.07	0.750			
0.6684	42780.78	3.6270	3.6270	0.9357	24.96	-0.06	0.750			
0.6712	42959.42	3.6240	3.6241	0.9073	24.97	-0.05	0.750			
0.6739	43129.83	3.6210	3.6209	0.8633	24.98	-0.04	0.750			
0.6764	43291.81	3.6180	3.6180	0.8246	24.98	-0.04	0.750			
0.6789	43451.25	3.6150	3.6150	0.7792	24.99	-0.03	0.750			
0.6812	43599.46	3.6120	3.6119	0.7255	25.00	-0.02	0.750			
0.6833	43734.04	3.6090	3.6091	0.6823	25.01	-0.01	0.750			
0.6853	43857.13	3.6060	3.6062	0.6322	25.01	-0.01	0.750			
0.6871	43971.85	3.6030	3.6013	0.5797	25.02	-0.00	0.750			
0.6887	44079.03	3.6000	3.6002	0.5328	25.02	0.00	0.750			
0.6903	44176.61	3.5970	3.5972	0.4872	25.03	0.01	0.750			
0.6917	44267.51	3.5940	3.5941	0.4407	25.03	0.01	0.750			
0.6930	44349.81	3.5910	3.5909	0.3940	25.04	0.02	0.750			
0.6940	44418.29	3.5880	3.5880	0.3370	25.04	0.02	0.750			
0.6950	44478.36	3.5850	3.5849	0.2883	25.04	0.02	0.750			
0.6958	44529.86	3.5820	3.5820	0.2405	25.05	0.03	0.750			
0.6964	44571.18	3.5790	3.5792	0.1893	25.05	0.03	0.750			
0.6969	44602.79	3.5760	3.5762	0.1374	25.05	0.03	0.750			
0.6973	44624.23	3.5730	3.5738	0.0716	25.05	0.03	0.750			
