Ah_balance (normalized)	Ah_balance (mAh)	Voltage - fit (V)	Voltage -  interpolate (V)	dQ/dV (1/V)	Temperature (°C)	Temperature - diff (°C)	Current (C)	R_DC 0ms (mOhm)	R_DC 50ms (mOhm)	R_DC 50 ms PEC (mOhm)
0.0482	3085.53	4.1980	4.1979	0.7750	26.04	0.48	0.750			
0.0505	3232.88	4.1950	4.1951	0.7636	26.04	0.48	0.750			
0.0528	3378.75	4.1920	4.1920	0.7583	26.04	0.48	0.750			
0.0551	3523.93	4.1890	4.1890	0.7444	26.04	0.48	0.750			
0.0572	3663.27	4.1860	4.1860	0.7473	26.04	0.48	0.750			
0.0594	3803.62	4.1830	4.1832	0.7448	26.04	0.48	0.750			
0.0617	3947.39	4.1800	4.1801	0.7497	26.04	0.48	0.750			
0.0639	4091.63	4.1770	4.1772	0.7563	26.04	0.48	0.750			
0.0662	4238.59	4.1740	4.1741	0.7571	26.04	0.48	0.750			
0.0685	4385.50	4.1710	4.1711	0.7678	26.05	0.49	0.750			
0.0708	4532.29	4.1680	4.1679	0.7603	26.05	0.49	0.750			
0.0731	4680.01	4.1650	4.1648	0.7609	26.05	0.49	0.750			
0.0754	4827.05	4.1620	4.1621	0.7619	26.05	0.49	0.750			
0.0777	4974.80	4.1590	4.1591	0.7552	26.05	0.49	0.750			
0.0800	5119.40	4.1560	4.1560	0.7559	26.05	0.49	0.750			
0.0822	5261.66	4.1530	4.1530	0.7541	26.05	0.49	0.750			
0.0845	5405.24	4.1500	4.1501	0.7587	26.05	0.49	0.750			
0.0868	5552.24	4.1470	4.1470	0.7657	26.05	0.49	0.750			
0.0891	5700.57	4.1440	4.1441	0.7676	26.05	0.49	0.750			
0.0914	5850.05	4.1410	4.1411	0.7671	26.05	0.49	0.750			
0.0937	5997.11	4.1380	4.1380	0.7688	26.05	0.49	0.750			
0.0960	6144.04	4.1350	4.1351	0.7662	26.05	0.49	0.750			
0.0983	6289.19	4.1320	4.1315	0.7678	26.05	0.49	0.750			
0.1006	6437.54	4.1290	4.1291	0.7714	26.05	0.49	0.750			
0.1029	6586.55	4.1260	4.1261	0.7763	26.05	0.49	0.750			
0.1053	6736.56	4.1230	4.1230	0.7773	26.06	0.50	0.750			
0.1076	6887.56	4.1200	4.1199	0.7818	26.06	0.50	0.750			
0.1099	7034.98	4.1170	4.1170	0.7783	26.06	0.50	0.750			
0.1123	7185.18	4.1140	4.1140	0.7825	26.06	0.50	0.750			
0.1146	7335.43	4.1110	4.1110	0.7832	26.06	0.50	0.750			
0.1170	7486.06	4.1080	4.1080	0.7803	26.06	0.50	0.750			
0.1193	7634.29	4.1050	4.1051	0.7838	26.07	0.51	0.750			
0.1217	7785.78	4.1020	4.1021	0.7846	26.07	0.51	0.750			
0.1240	7935.01	4.0990	4.0989	0.7866	26.07	0.51	0.750			
0.1264	8087.18	4.0960	4.0962	0.7904	26.07	0.51	0.750			
0.1288	8241.86	4.0930	4.0929	0.7735	26.07	0.51	0.750			
0.1311	8389.99	4.0900	4.0900	0.7876	26.08	0.52	0.750			
0.1334	8538.61	4.0870	4.0872	0.7849	26.08	0.52	0.750			
0.1358	8688.40	4.0840	4.0835	0.7915	26.08	0.52	0.750			
0.1382	8842.63	4.0810	4.0811	0.7983	26.08	0.52	0.750			
0.1406	8996.14	4.0780	4.0781	0.8010	26.08	0.52	0.750			
0.1430	9152.01	4.0750	4.0751	0.8094	26.08	0.52	0.750			
0.1455	9309.43	4.0720	4.0720	0.8059	26.08	0.52	0.750			
0.1479	9464.96	4.0690	4.0689	0.8078	26.08	0.52	0.750			
0.1503	9620.28	4.0660	4.0660	0.8091	26.08	0.52	0.750			
0.1528	9776.78	4.0630	4.0631	0.8074	26.08	0.52	0.750			
0.1552	9932.16	4.0600	4.0600	0.8136	26.09	0.53	0.750			
0.1576	10086.97	4.0570	4.0570	0.8137	26.09	0.53	0.750			
0.1600	10242.72	4.0540	4.0540	0.8130	26.09	0.53	0.750			
0.1625	10399.07	4.0510	4.0511	0.8188	26.09	0.53	0.750			
0.1651	10563.61	4.0480	4.0479	0.8098	26.09	0.53	0.750			
0.1674	10716.06	4.0450	4.0450	0.8140	26.10	0.54	0.750			
0.1698	10869.39	4.0420	4.0421	0.8230	26.10	0.54	0.750			
0.1723	11025.21	4.0390	4.0392	0.8296	26.10	0.54	0.750			
0.1748	11185.84	4.0360	4.0362	0.8316	26.10	0.54	0.750			
0.1773	11348.17	4.0330	4.0331	0.8329	26.10	0.54	0.750			
0.1798	11509.54	4.0300	4.0301	0.8397	26.11	0.55	0.750			
0.1824	11672.11	4.0270	4.0271	0.8482	26.11	0.55	0.750			
0.1849	11833.40	4.0240	4.0239	0.8396	26.11	0.55	0.750			
0.1874	11994.73	4.0210	4.0210	0.8441	26.11	0.55	0.750			
0.1900	12159.22	4.0180	4.0181	0.8416	26.11	0.55	0.750			
0.1925	12322.33	4.0150	4.0150	0.8475	26.11	0.55	0.750			
0.1951	12485.32	4.0120	4.0120	0.8503	26.11	0.55	0.750			
0.1976	12645.01	4.0090	4.0090	0.8458	26.11	0.55	0.750			
0.2001	12807.39	4.0060	4.0060	0.8493	26.11	0.55	0.750			
0.2027	12973.57	4.0030	4.0030	0.8486	26.12	0.56	0.750			
0.2052	13135.42	4.0000	4.0001	0.8543	26.12	0.56	0.750			
0.2078	13301.96	3.9970	3.9970	0.8613	26.12	0.56	0.750			
0.2104	13464.30	3.9940	3.9938	0.8598	26.13	0.57	0.750			
0.2130	13630.69	3.9910	3.9911	0.8637	26.13	0.57	0.750			
0.2156	13796.99	3.9880	3.9880	0.8618	26.13	0.57	0.750			
0.2182	13963.10	3.9850	3.9850	0.8640	26.13	0.57	0.750			
0.2208	14130.48	3.9820	3.9821	0.8698	26.13	0.57	0.750			
0.2234	14294.90	3.9790	3.9789	0.8640	26.13	0.57	0.750			
0.2260	14460.88	3.9760	3.9760	0.8653	26.13	0.57	0.750			
0.2286	14627.23	3.9730	3.9731	0.8605	26.13	0.57	0.750			
0.2311	14793.02	3.9700	3.9700	0.8621	26.13	0.57	0.750			
0.2337	14956.35	3.9670	3.9671	0.8642	26.13	0.57	0.750			
0.2363	15122.32	3.9640	3.9638	0.8630	26.13	0.57	0.750			
0.2389	15289.31	3.9610	3.9610	0.8603	26.13	0.57	0.750			
0.2415	15454.91	3.9580	3.9581	0.8648	26.13	0.57	0.750			
0.2441	15622.16	3.9550	3.9551	0.8695	26.13	0.57	0.750			
0.2467	15788.38	3.9520	3.9520	0.8679	26.13	0.57	0.750			
0.2493	15954.90	3.9490	3.9491	0.8678	26.13	0.57	0.750			
0.2519	16121.99	3.9460	3.9461	0.8663	26.13	0.57	0.750			
0.2545	16290.19	3.9430	3.9430	0.8723	26.13	0.57	0.750			
0.2571	16457.59	3.9400	3.9400	0.8687	26.13	0.57	0.750			
0.2597	16621.80	3.9370	3.9370	0.8657	26.13	0.57	0.750			
0.2623	16788.05	3.9340	3.9340	0.8684	26.13	0.57	0.750			
0.2650	16958.52	3.9310	3.9309	0.8573	26.12	0.56	0.750			
0.2675	17121.67	3.9280	3.9280	0.8627	26.12	0.56	0.750			
0.2701	17286.28	3.9250	3.9251	0.8679	26.12	0.56	0.750			
0.2727	17452.19	3.9220	3.9220	0.8668	26.11	0.55	0.750			
0.2753	17619.94	3.9190	3.9191	0.8676	26.11	0.55	0.750			
0.2779	17785.46	3.9160	3.9161	0.8613	26.11	0.55	0.750			
0.2805	17952.15	3.9130	3.9131	0.8626	26.11	0.55	0.750			
0.2831	18118.74	3.9100	3.9100	0.8716	26.11	0.55	0.750			
0.2856	18280.82	3.9070	3.9066	0.8639	26.11	0.55	0.750			
0.2883	18448.86	3.9040	3.9041	0.8646	26.11	0.55	0.750			
0.2909	18616.10	3.9010	3.9010	0.8726	26.10	0.54	0.750			
0.2935	18785.06	3.8980	3.8981	0.8740	26.10	0.54	0.750			
0.2962	18955.16	3.8950	3.8950	0.8757	26.09	0.53	0.750			
0.2988	19121.44	3.8920	3.8919	0.8703	26.09	0.53	0.750			
0.3014	19289.33	3.8890	3.8890	0.8610	26.08	0.52	0.750			
0.3040	19453.11	3.8860	3.8860	0.8618	26.07	0.51	0.750			
0.3065	19617.93	3.8830	3.8831	0.8635	26.06	0.50	0.750			
0.3091	19780.93	3.8800	3.8802	0.8680	26.06	0.50	0.750			
0.3117	19949.27	3.8770	3.8768	0.8744	26.05	0.49	0.750			
0.3144	20119.84	3.8740	3.8740	0.8701	26.04	0.48	0.750			
0.3170	20286.06	3.8710	3.8712	0.8777	26.04	0.48	0.750			
0.3196	20455.58	3.8680	3.8681	0.8815	26.04	0.48	0.750			
0.3223	20625.08	3.8650	3.8650	0.8796	26.03	0.47	0.750			
0.3249	20792.18	3.8620	3.8621	0.8823	26.03	0.47	0.750			
0.3275	20961.57	3.8590	3.8592	0.8868	26.02	0.46	0.750			
0.3303	21139.24	3.8560	3.8559	0.8896	26.01	0.45	0.750			
0.3330	21308.91	3.8530	3.8529	0.8992	26.01	0.45	0.750			
0.3356	21477.36	3.8500	3.8500	0.8987	26.00	0.44	0.750			
0.3383	21651.04	3.8470	3.8471	0.9069	25.99	0.43	0.750			
0.3410	21825.30	3.8440	3.8444	0.9174	25.99	0.43	0.750	0.318	0.461	
0.3438	22001.24	3.8410	3.8412	0.9233	25.98	0.42	0.750			
0.3466	22180.21	3.8380	3.8381	0.9344	25.97	0.41	0.750			
0.3494	22362.06	3.8350	3.8351	0.9429	25.97	0.41	0.750			
0.3523	22547.61	3.8320	3.8318	0.9502	25.96	0.40	0.750			
0.3550	22721.40	3.8290	3.8291	0.9380	25.95	0.39	0.750			
0.3578	22901.89	3.8260	3.8262	0.9460	25.94	0.38	0.750			
0.3607	23082.88	3.8230	3.8225	0.9525	25.93	0.37	0.750			
0.3635	23267.13	3.8200	3.8201	0.9617	25.92	0.36	0.750			
0.3664	23451.48	3.8170	3.8172	0.9758	25.91	0.35	0.750			
0.3694	23641.37	3.8140	3.8140	0.9910	25.90	0.34	0.750			
0.3725	23837.97	3.8110	3.8109	1.0138	25.89	0.33	0.750			
0.3754	24027.02	3.8080	3.8081	1.0083	25.88	0.32	0.750			
0.3785	24221.44	3.8050	3.8051	1.0167	25.87	0.31	0.750			
0.3815	24416.39	3.8020	3.8021	1.0301	25.86	0.30	0.750			
0.3846	24613.58	3.7990	3.7991	1.0410	25.85	0.29	0.750			
0.3877	24815.65	3.7960	3.7961	1.0609	25.84	0.28	0.750			
0.3909	25017.05	3.7930	3.7931	1.0678	25.83	0.27	0.750			
0.3941	25222.86	3.7900	3.7902	1.0906	25.82	0.26	0.750			
0.3974	25435.97	3.7870	3.7870	1.1162	25.81	0.25	0.750			
0.4008	25648.94	3.7840	3.7842	1.1253	25.80	0.24	0.750			
0.4042	25867.94	3.7810	3.7812	1.1442	25.79	0.23	0.750			
0.4077	26090.91	3.7780	3.7781	1.1668	25.78	0.22	0.750			
0.4113	26325.35	3.7750	3.7749	1.1881	25.77	0.21	0.750			
0.4147	26543.94	3.7720	3.7720	1.1937	25.76	0.20	0.750			
0.4183	26773.34	3.7690	3.7690	1.2216	25.75	0.19	0.750			
0.4222	27018.63	3.7660	3.7658	1.2267	25.73	0.17	0.750			
0.4258	27252.08	3.7630	3.7632	1.2619	25.72	0.16	0.750			
0.4296	27495.15	3.7600	3.7600	1.2925	25.71	0.15	0.750			
0.4335	27744.95	3.7570	3.7572	1.3237	25.70	0.14	0.750			
0.4375	27999.02	3.7540	3.7540	1.3502	25.69	0.13	0.750			
0.4416	28261.53	3.7510	3.7513	1.3661	25.67	0.11	0.750			
0.4458	28529.99	3.7480	3.7482	1.3893	25.66	0.10	0.750			
0.4500	28803.08	3.7450	3.7452	1.4214	25.65	0.09	0.750			
0.4542	29068.72	3.7420	3.7416	1.4635	25.64	0.08	0.750			
0.4587	29358.21	3.7390	3.7393	1.4763	25.63	0.07	0.750			
0.4632	29644.63	3.7360	3.7362	1.5320	25.61	0.05	0.750			
0.4680	29949.03	3.7330	3.7331	1.6009	25.60	0.04	0.750			
0.4726	30247.21	3.7300	3.7300	1.6137	25.59	0.03	0.750			
0.4776	30565.28	3.7270	3.7265	1.6727	25.58	0.02	0.750			
0.4828	30896.57	3.7240	3.7236	1.7082	25.56	0.00	0.750			
0.4879	31223.85	3.7210	3.7206	1.7499	25.54	-0.02	0.750			
0.4933	31569.04	3.7180	3.7176	1.8336	25.53	-0.03	0.750			
0.4989	31930.86	3.7150	3.7154	1.8508	25.51	-0.05	0.750			
0.5046	32296.37	3.7120	3.7121	1.9039	25.50	-0.06	0.750			
0.5105	32672.44	3.7090	3.7088	1.9952	25.48	-0.08	0.750			
0.5165	33055.52	3.7060	3.7060	2.0544	25.47	-0.09	0.750			
0.5227	33455.27	3.7030	3.7032	2.1123	25.46	-0.10	0.750			
0.5291	33862.65	3.7000	3.6999	2.1596	25.45	-0.11	0.750			
0.5359	34294.91	3.6970	3.6970	2.1742	25.44	-0.12	0.750			
0.5426	34724.11	3.6940	3.6938	2.2669	25.43	-0.13	0.750			
0.5494	35161.43	3.6910	3.6911	2.3112	25.42	-0.14	0.750			
0.5563	35600.85	3.6880	3.6882	2.3715	25.41	-0.15	0.750			
0.5634	36056.48	3.6850	3.6849	2.3434	25.40	-0.16	0.750			
0.5706	36519.79	3.6820	3.6823	2.3830	25.40	-0.16	0.750			
0.5777	36971.46	3.6790	3.6789	2.2863	25.40	-0.16	0.750			
0.5844	37404.31	3.6760	3.6765	2.2020	25.40	-0.16	0.750			
0.5908	37812.96	3.6730	3.6729	2.1067	25.41	-0.15	0.750			
0.5970	38207.33	3.6700	3.6701	2.0021	25.42	-0.14	0.750			
0.6030	38590.80	3.6670	3.6674	1.9429	25.42	-0.14	0.750			
0.6087	38956.24	3.6640	3.6641	1.7624	25.43	-0.13	0.750			
0.6135	39262.21	3.6610	3.6613	1.6222	25.44	-0.12	0.750			
0.6181	39560.13	3.6580	3.6582	1.5057	25.45	-0.11	0.750			
0.6226	39844.04	3.6550	3.6551	1.4254	25.46	-0.10	0.750			
0.6265	40098.65	3.6520	3.6522	1.3303	25.46	-0.10	0.750			
0.6304	40345.31	3.6490	3.6492	1.2584	25.47	-0.09	0.750			
0.6341	40583.47	3.6460	3.6461	1.2041	25.47	-0.09	0.750			
0.6378	40819.41	3.6430	3.6429	1.1456	25.48	-0.08	0.750			
0.6409	41017.35	3.6400	3.6400	1.0613	25.49	-0.07	0.750			
0.6440	41213.56	3.6370	3.6371	1.0236	25.50	-0.06	0.750			
0.6469	41404.68	3.6340	3.6341	0.9871	25.51	-0.05	0.750			
0.6498	41589.16	3.6310	3.6311	0.9535	25.51	-0.05	0.750			
0.6527	41770.47	3.6280	3.6280	0.9148	25.52	-0.04	0.750			
0.6554	41942.53	3.6250	3.6251	0.8884	25.52	-0.04	0.750			
0.6580	42112.27	3.6220	3.6220	0.8614	25.53	-0.03	0.750			
0.6605	42273.73	3.6190	3.6188	0.8206	25.53	-0.03	0.750			
0.6630	42429.79	3.6160	3.6160	0.7823	25.53	-0.03	0.750			
0.6653	42580.95	3.6130	3.6130	0.7367	25.54	-0.02	0.750			
0.6675	42719.45	3.6100	3.6100	0.6863	25.55	-0.01	0.750			
0.6695	42848.39	3.6070	3.6070	0.6405	25.55	-0.01	0.750			
0.6712	42959.59	3.6040	3.6042	0.5863	25.55	-0.01	0.750			
0.6729	43066.92	3.6010	3.6012	0.5433	25.56	-0.00	0.750			
0.6745	43167.50	3.5980	3.5983	0.4990	25.56	0.00	0.750			
0.6759	43259.64	3.5950	3.5953	0.4571	25.57	0.01	0.750			
0.6773	43345.10	3.5920	3.5920	0.4127	25.57	0.01	0.750			
0.6785	43421.23	3.5890	3.5890	0.3635	25.57	0.01	0.750			
0.6795	43486.37	3.5860	3.5859	0.3085	25.57	0.01	0.750			
0.6803	43541.06	3.5830	3.5830	0.2592	25.58	0.02	0.750			
0.6810	43586.88	3.5800	3.5801	0.2091	25.58	0.02	0.750			
0.6816	43622.47	3.5770	3.5771	0.1565	25.58	0.02	0.750			
0.6820	43647.67	3.5740	3.5745	0.1010	25.58	0.02	0.750			
0.6822	43661.72	3.5710	3.5722	0.0400	25.58	0.02	0.750			
