Ah_balance (normalized)	Ah_balance (mAh)	Voltage - fit (V)	Voltage -  interpolate (V)	dQ/dV (1/V)	Temperature (°C)	Temperature - diff (°C)	Current (C)	R_DC 0ms (mOhm)	R_DC 50ms (mOhm)	R_DC 50 ms PEC (mOhm)
0.0475	3042.37	4.1980	4.1978	0.7728	25.37	0.39	0.750			
0.0498	3189.22	4.1950	4.1950	0.7670	25.37	0.39	0.750			
0.0522	3337.95	4.1920	4.1920	0.7656	25.37	0.39	0.750			
0.0544	3484.60	4.1890	4.1889	0.7624	25.37	0.39	0.750			
0.0567	3631.54	4.1860	4.1861	0.7598	25.37	0.39	0.750			
0.0590	3775.41	4.1830	4.1829	0.7583	25.37	0.39	0.750			
0.0613	3920.84	4.1800	4.1801	0.7601	25.37	0.39	0.750			
0.0635	4066.82	4.1770	4.1769	0.7582	25.37	0.39	0.750			
0.0658	4211.32	4.1740	4.1741	0.7587	25.37	0.39	0.750			
0.0681	4357.49	4.1710	4.1710	0.7679	25.37	0.39	0.750			
0.0704	4505.23	4.1680	4.1680	0.7674	25.37	0.39	0.750			
0.0727	4653.17	4.1650	4.1650	0.7715	25.37	0.39	0.750			
0.0750	4800.80	4.1620	4.1621	0.7753	25.37	0.39	0.750			
0.0774	4952.72	4.1590	4.1591	0.7744	25.37	0.39	0.750			
0.0797	5101.62	4.1560	4.1559	0.7795	25.37	0.39	0.750			
0.0820	5251.05	4.1530	4.1530	0.7743	25.37	0.39	0.750			
0.0843	5398.32	4.1500	4.1499	0.7752	25.37	0.39	0.750			
0.0867	5548.76	4.1470	4.1471	0.7792	25.37	0.39	0.750			
0.0891	5699.39	4.1440	4.1439	0.7708	25.37	0.39	0.750			
0.0913	5845.08	4.1410	4.1410	0.7774	25.38	0.40	0.750			
0.0937	5995.10	4.1380	4.1381	0.7843	25.38	0.40	0.750			
0.0960	6143.88	4.1350	4.1351	0.7872	25.38	0.40	0.750			
0.0984	6297.22	4.1320	4.1319	0.7943	25.38	0.40	0.750			
0.1008	6450.58	4.1290	4.1291	0.7925	25.38	0.40	0.750			
0.1032	6604.33	4.1260	4.1260	0.7966	25.38	0.40	0.750			
0.1056	6757.36	4.1230	4.1231	0.7976	25.38	0.40	0.750			
0.1080	6909.20	4.1200	4.1200	0.7923	25.38	0.40	0.750			
0.1103	7060.93	4.1170	4.1169	0.7969	25.38	0.40	0.750			
0.1127	7214.27	4.1140	4.1139	0.7997	25.38	0.40	0.750			
0.1151	7369.36	4.1110	4.1110	0.8017	25.38	0.40	0.750			
0.1176	7523.99	4.1080	4.1081	0.8015	25.38	0.40	0.750			
0.1200	7677.68	4.1050	4.1050	0.8023	25.38	0.40	0.750			
0.1224	7832.01	4.1020	4.1019	0.8024	25.38	0.40	0.750			
0.1248	7984.95	4.0990	4.0990	0.8076	25.38	0.40	0.750			
0.1272	8142.43	4.0960	4.0959	0.7930	25.38	0.40	0.750			
0.1296	8293.82	4.0930	4.0930	0.8050	25.39	0.41	0.750			
0.1320	8448.48	4.0900	4.0902	0.8061	25.39	0.41	0.750			
0.1344	8602.35	4.0870	4.0867	0.8109	25.39	0.41	0.750			
0.1368	8757.31	4.0840	4.0842	0.8182	25.39	0.41	0.750			
0.1393	8915.08	4.0810	4.0811	0.8185	25.39	0.41	0.750			
0.1418	9072.66	4.0780	4.0780	0.8237	25.40	0.42	0.750			
0.1443	9233.41	4.0750	4.0750	0.8244	25.40	0.42	0.750			
0.1468	9392.68	4.0720	4.0719	0.8287	25.40	0.42	0.750			
0.1493	9553.35	4.0690	4.0690	0.8328	25.40	0.42	0.750			
0.1518	9713.08	4.0660	4.0660	0.8288	25.40	0.42	0.750			
0.1542	9871.58	4.0630	4.0630	0.8312	25.40	0.42	0.750			
0.1567	10031.20	4.0600	4.0601	0.8318	25.40	0.42	0.750			
0.1592	10190.74	4.0570	4.0569	0.8379	25.40	0.42	0.750			
0.1617	10351.64	4.0540	4.0540	0.8424	25.40	0.42	0.750			
0.1643	10514.86	4.0510	4.0510	0.8452	25.40	0.42	0.750			
0.1669	10678.55	4.0480	4.0481	0.8513	25.41	0.43	0.750			
0.1694	10840.70	4.0450	4.0450	0.8552	25.41	0.43	0.750			
0.1720	11005.89	4.0420	4.0417	0.8582	25.41	0.43	0.750			
0.1745	11170.80	4.0390	4.0390	0.8591	25.41	0.43	0.750			
0.1771	11335.92	4.0360	4.0360	0.8614	25.41	0.43	0.750			
0.1797	11503.69	4.0330	4.0332	0.8642	25.42	0.44	0.750			
0.1823	11669.93	4.0300	4.0299	0.8656	25.42	0.44	0.750			
0.1849	11835.25	4.0270	4.0270	0.8565	25.42	0.44	0.750			
0.1875	11998.45	4.0240	4.0239	0.8544	25.42	0.44	0.750			
0.1900	12161.72	4.0210	4.0211	0.8518	25.42	0.44	0.750			
0.1925	12322.68	4.0180	4.0180	0.8547	25.43	0.45	0.750			
0.1951	12485.50	4.0150	4.0150	0.8614	25.43	0.45	0.750			
0.1977	12651.66	4.0120	4.0118	0.8694	25.43	0.45	0.750			
0.2003	12820.33	4.0090	4.0091	0.8705	25.43	0.45	0.750			
0.2030	12989.39	4.0060	4.0061	0.8803	25.43	0.45	0.750			
0.2056	13159.19	4.0030	4.0030	0.8874	25.44	0.46	0.750			
0.2083	13329.24	4.0000	4.0001	0.8856	25.44	0.46	0.750			
0.2109	13498.01	3.9970	3.9970	0.8900	25.44	0.46	0.750			
0.2136	13671.29	3.9940	3.9941	0.8937	25.44	0.46	0.750			
0.2163	13844.36	3.9910	3.9910	0.9021	25.45	0.47	0.750			
0.2190	14018.91	3.9880	3.9880	0.9035	25.45	0.47	0.750			
0.2218	14192.44	3.9850	3.9849	0.8993	25.45	0.47	0.750			
0.2244	14364.45	3.9820	3.9819	0.8971	25.45	0.47	0.750			
0.2271	14536.68	3.9790	3.9791	0.8980	25.45	0.47	0.750			
0.2298	14706.65	3.9760	3.9760	0.9019	25.45	0.47	0.750			
0.2325	14880.28	3.9730	3.9730	0.9103	25.45	0.47	0.750			
0.2352	15055.70	3.9700	3.9702	0.9162	25.45	0.47	0.750			
0.2381	15235.74	3.9670	3.9670	0.9110	25.45	0.47	0.750			
0.2408	15410.68	3.9640	3.9641	0.9165	25.45	0.47	0.750			
0.2435	15586.89	3.9610	3.9611	0.9217	25.45	0.47	0.750			
0.2463	15761.04	3.9580	3.9581	0.9200	25.45	0.47	0.750			
0.2490	15939.14	3.9550	3.9551	0.9197	25.45	0.47	0.750			
0.2518	16115.87	3.9520	3.9521	0.9230	25.46	0.48	0.750			
0.2546	16294.39	3.9490	3.9490	0.9267	25.46	0.48	0.750			
0.2574	16475.94	3.9460	3.9460	0.9340	25.47	0.49	0.750			
0.2602	16651.82	3.9430	3.9429	0.9258	25.47	0.49	0.750			
0.2630	16829.73	3.9400	3.9400	0.9212	25.47	0.49	0.750			
0.2657	17005.96	3.9370	3.9370	0.9268	25.47	0.49	0.750			
0.2685	17185.51	3.9340	3.9341	0.9320	25.48	0.50	0.750			
0.2713	17364.03	3.9310	3.9308	0.9323	25.48	0.50	0.750			
0.2741	17542.86	3.9280	3.9282	0.9371	25.48	0.50	0.750			
0.2769	17722.83	3.9250	3.9250	0.9292	25.48	0.50	0.750			
0.2797	17900.71	3.9220	3.9220	0.9321	25.48	0.50	0.750			
0.2825	18079.87	3.9190	3.9191	0.9339	25.48	0.50	0.750			
0.2853	18256.64	3.9160	3.9156	0.9351	25.48	0.50	0.750			
0.2881	18436.81	3.9130	3.9131	0.9411	25.48	0.50	0.750			
0.2909	18617.51	3.9100	3.9100	0.9524	25.48	0.50	0.750			
0.2938	18802.70	3.9070	3.9070	0.9635	25.49	0.51	0.750			
0.2967	18987.69	3.9040	3.9040	0.9633	25.49	0.51	0.750			
0.2997	19179.61	3.9010	3.9010	0.9609	25.49	0.51	0.750			
0.3025	19362.40	3.8980	3.8981	0.9697	25.50	0.52	0.750			
0.3054	19547.28	3.8950	3.8951	0.9717	25.50	0.52	0.750			
0.3083	19733.91	3.8920	3.8921	0.9790	25.51	0.53	0.750			
0.3113	19920.04	3.8890	3.8890	0.9803	25.51	0.53	0.750			
0.3142	20109.58	3.8860	3.8861	0.9721	25.50	0.52	0.750			
0.3171	20295.38	3.8830	3.8832	0.9857	25.50	0.52	0.750			
0.3201	20485.22	3.8800	3.8801	0.9968	25.49	0.51	0.750			
0.3231	20677.14	3.8770	3.8771	0.9896	25.49	0.51	0.750			
0.3261	20868.01	3.8740	3.8742	0.9968	25.49	0.51	0.750			
0.3291	21060.75	3.8710	3.8711	1.0040	25.49	0.51	0.750			
0.3322	21258.62	3.8680	3.8681	1.0115	25.49	0.51	0.750			
0.3352	21449.80	3.8650	3.8648	0.9968	25.49	0.51	0.750			
0.3382	21641.94	3.8620	3.8620	0.9898	25.49	0.51	0.750			
0.3411	21829.09	3.8590	3.8591	0.9985	25.49	0.51	0.750			
0.3441	22022.26	3.8560	3.8561	1.0094	25.48	0.50	0.750			
0.3472	22219.65	3.8530	3.8525	0.9961	25.48	0.50	0.750			
0.3502	22414.32	3.8500	3.8500	0.9913	25.47	0.49	0.750			
0.3531	22599.17	3.8470	3.8473	1.0064	25.47	0.49	0.750			
0.3561	22791.39	3.8440	3.8442	1.0200	25.46	0.48	0.750			
0.3593	22993.98	3.8410	3.8407	1.0024	25.45	0.47	0.750			
0.3622	23182.34	3.8380	3.8384	1.0299	25.45	0.47	0.750			
0.3653	23382.31	3.8350	3.8353	1.0562	25.44	0.46	0.750			
0.3686	23591.82	3.8320	3.8321	1.0787	25.44	0.46	0.750			
0.3719	23803.16	3.8290	3.8289	1.0928	25.43	0.45	0.750	0.241	0.354	
0.3751	24006.09	3.8260	3.8264	1.0637	25.42	0.44	0.750			
0.3784	24215.07	3.8230	3.8232	1.0683	25.41	0.43	0.750			
0.3815	24418.77	3.8200	3.8202	1.0789	25.39	0.41	0.750			
0.3847	24621.56	3.8170	3.8166	1.0666	25.38	0.40	0.750			
0.3879	24826.85	3.8140	3.8141	1.0580	25.37	0.39	0.750			
0.3911	25028.05	3.8110	3.8113	1.0721	25.37	0.39	0.750			
0.3943	25236.99	3.8080	3.8083	1.0905	25.36	0.38	0.750			
0.3976	25447.08	3.8050	3.8040	1.0977	25.35	0.37	0.750			
0.4009	25657.26	3.8020	3.8022	1.0973	25.34	0.36	0.750			
0.4042	25871.71	3.7990	3.7992	1.1161	25.33	0.35	0.750			
0.4077	26093.77	3.7960	3.7960	1.1387	25.33	0.35	0.750			
0.4113	26324.09	3.7930	3.7929	1.1379	25.31	0.33	0.750			
0.4145	26526.98	3.7900	3.7900	1.1258	25.30	0.32	0.750			
0.4178	26740.09	3.7870	3.7872	1.1541	25.29	0.31	0.750			
0.4213	26965.51	3.7840	3.7838	1.1546	25.27	0.29	0.750			
0.4248	27187.84	3.7810	3.7810	1.1565	25.27	0.29	0.750			
0.4282	27407.38	3.7780	3.7783	1.1866	25.26	0.28	0.750			
0.4318	27635.11	3.7750	3.7755	1.2184	25.25	0.27	0.750			
0.4356	27876.05	3.7720	3.7714	1.2506	25.25	0.27	0.750			
0.4392	28111.63	3.7690	3.7692	1.2685	25.23	0.25	0.750			
0.4431	28360.13	3.7660	3.7662	1.2999	25.22	0.24	0.750			
0.4474	28633.78	3.7630	3.7629	1.3164	25.20	0.22	0.750			
0.4511	28871.05	3.7600	3.7600	1.3325	25.19	0.21	0.750			
0.4551	29129.53	3.7570	3.7572	1.3675	25.18	0.20	0.750			
0.4593	29396.94	3.7540	3.7534	1.3779	25.17	0.19	0.750			
0.4636	29668.36	3.7510	3.7512	1.3966	25.16	0.18	0.750			
0.4677	29932.51	3.7480	3.7483	1.4437	25.15	0.17	0.750			
0.4722	30219.70	3.7450	3.7442	1.4668	25.14	0.16	0.750			
0.4767	30510.22	3.7420	3.7423	1.4712	25.13	0.15	0.750			
0.4812	30794.23	3.7390	3.7391	1.5242	25.11	0.13	0.750			
0.4858	31089.99	3.7360	3.7363	1.5930	25.10	0.12	0.750			
0.4907	31402.42	3.7330	3.7332	1.6125	25.08	0.10	0.750			
0.4956	31715.35	3.7300	3.7305	1.6932	25.07	0.09	0.750			
0.5007	32045.76	3.7270	3.7265	1.7243	25.05	0.07	0.750			
0.5061	32392.25	3.7240	3.7236	1.7844	25.04	0.06	0.750			
0.5115	32736.40	3.7210	3.7212	1.8452	25.03	0.05	0.750			
0.5171	33097.58	3.7180	3.7186	1.9379	25.01	0.03	0.750			
0.5231	33479.46	3.7150	3.7150	1.9916	25.00	0.02	0.750			
0.5292	33870.95	3.7120	3.7116	2.0807	24.98	-0.00	0.750			
0.5355	34269.36	3.7090	3.7093	2.0825	24.96	-0.02	0.750			
0.5420	34688.96	3.7060	3.7057	2.1285	24.95	-0.03	0.750			
0.5482	35082.74	3.7030	3.7029	2.1560	24.94	-0.04	0.750			
0.5548	35510.13	3.7000	3.7005	2.3050	24.92	-0.06	0.750			
0.5618	35953.72	3.6970	3.6969	2.3584	24.90	-0.08	0.750			
0.5689	36411.01	3.6940	3.6945	2.4399	24.89	-0.09	0.750			
0.5762	36879.85	3.6910	3.6907	2.4084	24.87	-0.11	0.750			
0.5833	37331.90	3.6880	3.6886	2.4506	24.86	-0.12	0.750			
0.5910	37826.42	3.6850	3.6852	2.7006	24.85	-0.13	0.750			
0.5991	38344.31	3.6820	3.6816	2.8181	24.84	-0.14	0.750			
0.6077	38889.82	3.6790	3.6794	2.8976	24.84	-0.14	0.750			
0.6160	39426.54	3.6760	3.6761	2.9169	24.83	-0.15	0.750			
0.6247	39981.60	3.6730	3.6734	2.8219	24.82	-0.16	0.750			
0.6329	40505.22	3.6700	3.6699	2.9804	24.82	-0.16	0.750			
0.6421	41094.77	3.6670	3.6668	3.0184	24.82	-0.16	0.750			
0.6509	41655.34	3.6640	3.6637	2.7714	24.82	-0.16	0.750			
0.6591	42185.46	3.6610	3.6609	2.5928	24.82	-0.16	0.750			
0.6670	42688.06	3.6580	3.6585	2.5884	24.83	-0.15	0.750			
0.6742	43150.98	3.6550	3.6546	2.3110	24.84	-0.14	0.750			
0.6806	43557.61	3.6520	3.6519	2.0583	24.85	-0.13	0.750			
0.6860	43906.86	3.6490	3.6492	1.8280	24.86	-0.12	0.750			
0.6912	44234.21	3.6460	3.6463	1.6335	24.87	-0.11	0.750			
0.6958	44531.68	3.6430	3.6434	1.4652	24.88	-0.10	0.750			
0.7000	44800.10	3.6400	3.6404	1.3255	24.88	-0.10	0.750			
0.7038	45043.20	3.6370	3.6372	1.2038	24.89	-0.09	0.750			
0.7072	45258.87	3.6340	3.6340	1.1020	24.90	-0.08	0.750			
0.7103	45456.11	3.6310	3.6308	1.0220	24.90	-0.08	0.750			
0.7130	45631.52	3.6280	3.6279	0.9283	24.91	-0.07	0.750			
0.7156	45799.70	3.6250	3.6250	0.9019	24.92	-0.06	0.750			
0.7183	45969.05	3.6220	3.6220	0.8854	24.93	-0.05	0.750			
0.7209	46136.10	3.6190	3.6191	0.8663	24.94	-0.04	0.750			
0.7235	46302.01	3.6160	3.6160	0.8448	24.94	-0.04	0.750			
0.7260	46466.85	3.6130	3.6131	0.8065	24.95	-0.03	0.750			
0.7285	46626.77	3.6100	3.6101	0.7555	24.96	-0.02	0.750			
0.7308	46770.31	3.6070	3.6070	0.6765	24.97	-0.01	0.750			
0.7326	46888.57	3.6040	3.6042	0.6009	24.97	-0.01	0.750			
0.7343	46993.84	3.6010	3.6012	0.5338	24.98	-0.00	0.750			
0.7357	47087.63	3.5980	3.5985	0.4761	24.98	0.00	0.750			
0.7371	47171.77	3.5950	3.5956	0.4171	24.99	0.01	0.750			
0.7383	47249.61	3.5920	3.5925	0.3591	24.99	0.01	0.750			
0.7394	47319.29	3.5890	3.5891	0.3165	24.99	0.01	0.750			
0.7403	47376.21	3.5860	3.5857	0.2489	25.00	0.02	0.750			
0.7408	47414.19	3.5830	3.5829	0.1759	25.00	0.02	0.750			
0.7412	47439.75	3.5800	3.5804	0.1163	25.00	0.02	0.750			
0.7415	47456.27	3.5770	3.5770	0.0580	25.00	0.02	0.750			
