Ah_balance (normalized)	Ah_balance (mAh)	Voltage - fit (V)	Voltage -  interpolate (V)	dQ/dV (1/V)	Temperature (°C)	Temperature - diff (°C)	Current (C)	R_DC 0ms (mOhm)	R_DC 50ms (mOhm)	R_DC 50 ms PEC (mOhm)
0.0001	6.55	4.1630	4.1633	-0.0840	25.19	0.01	-0.750			
0.0004	28.57	4.1600	4.1597	-0.1383	25.19	0.01	-0.750			
0.0010	60.82	4.1570	4.1569	-0.1827	25.19	0.01	-0.750			
0.0015	99.19	4.1540	4.1540	-0.2260	25.19	0.01	-0.750			
0.0023	147.13	4.1510	4.1511	-0.2675	25.19	0.01	-0.750			
0.0032	202.79	4.1480	4.1478	-0.3064	25.18	0.00	-0.750			
0.0042	266.47	4.1450	4.1451	-0.3456	25.18	0.00	-0.750			
0.0053	337.37	4.1420	4.1420	-0.3798	25.18	-0.00	-0.750			
0.0065	414.72	4.1390	4.1390	-0.4136	25.17	-0.01	-0.750			
0.0078	497.45	4.1360	4.1360	-0.4457	25.17	-0.01	-0.750			
0.0091	584.75	4.1330	4.1331	-0.4745	25.17	-0.01	-0.750			
0.0106	680.65	4.1300	4.1299	-0.5042	25.16	-0.02	-0.750			
0.0122	780.20	4.1270	4.1270	-0.5310	25.16	-0.02	-0.750			
0.0138	885.62	4.1240	4.1240	-0.5554	25.15	-0.03	-0.750			
0.0156	995.42	4.1210	4.1210	-0.5764	25.14	-0.04	-0.750			
0.0173	1109.13	4.1180	4.1180	-0.5947	25.14	-0.04	-0.750			
0.0191	1225.49	4.1150	4.1150	-0.6059	25.14	-0.04	-0.750			
0.0210	1343.68	4.1120	4.1120	-0.6178	25.13	-0.05	-0.750			
0.0229	1462.41	4.1090	4.1091	-0.6393	25.13	-0.05	-0.750			
0.0248	1587.32	4.1060	4.1060	-0.6490	25.13	-0.05	-0.750			
0.0268	1714.60	4.1030	4.1027	-0.6571	25.12	-0.06	-0.750			
0.0288	1842.74	4.1000	4.1001	-0.6669	25.12	-0.06	-0.750			
0.0308	1971.54	4.0970	4.0970	-0.6739	25.12	-0.06	-0.750			
0.0329	2103.33	4.0940	4.0939	-0.6802	25.11	-0.07	-0.750			
0.0349	2233.18	4.0910	4.0909	-0.6840	25.11	-0.07	-0.750			
0.0369	2361.40	4.0880	4.0881	-0.6832	25.11	-0.07	-0.750			
0.0390	2497.34	4.0850	4.0850	-0.6999	25.10	-0.08	-0.750			
0.0411	2632.12	4.0820	4.0820	-0.7022	25.10	-0.08	-0.750			
0.0432	2766.86	4.0790	4.0788	-0.7082	25.10	-0.08	-0.750			
0.0454	2903.34	4.0760	4.0760	-0.7134	25.10	-0.08	-0.750			
0.0475	3040.77	4.0730	4.0731	-0.7242	25.10	-0.08	-0.750			
0.0497	3181.23	4.0700	4.0700	-0.7248	25.10	-0.08	-0.750			
0.0519	3324.13	4.0670	4.0669	-0.7285	25.10	-0.08	-0.750			
0.0541	3463.46	4.0640	4.0643	-0.7278	25.10	-0.08	-0.750			
0.0563	3604.19	4.0610	4.0609	-0.7300	25.10	-0.08	-0.750			
0.0585	3742.50	4.0580	4.0580	-0.7295	25.10	-0.08	-0.750			
0.0607	3883.64	4.0550	4.0550	-0.7377	25.10	-0.08	-0.750			
0.0629	4025.42	4.0520	4.0520	-0.7415	25.10	-0.08	-0.750			
0.0652	4173.21	4.0490	4.0488	-0.7480	25.10	-0.08	-0.750			
0.0674	4315.98	4.0460	4.0462	-0.7451	25.10	-0.08	-0.750			
0.0697	4457.79	4.0430	4.0429	-0.7469	25.10	-0.08	-0.750			
0.0719	4601.27	4.0400	4.0400	-0.7555	25.10	-0.08	-0.750			
0.0741	4743.67	4.0370	4.0369	-0.7491	25.10	-0.08	-0.750			
0.0765	4894.70	4.0340	4.0338	-0.7604	25.10	-0.08	-0.750			
0.0788	5040.78	4.0310	4.0311	-0.7586	25.10	-0.08	-0.750			
0.0810	5186.37	4.0280	4.0278	-0.7565	25.10	-0.08	-0.750			
0.0833	5330.45	4.0250	4.0250	-0.7498	25.10	-0.08	-0.750			
0.0855	5471.95	4.0220	4.0220	-0.7524	25.10	-0.08	-0.750			
0.0877	5614.18	4.0190	4.0190	-0.7501	25.11	-0.07	-0.750			
0.0900	5762.49	4.0160	4.0160	-0.7642	25.11	-0.07	-0.750			
0.0923	5909.75	4.0130	4.0131	-0.7620	25.11	-0.07	-0.750			
0.0946	6057.35	4.0100	4.0100	-0.7620	25.11	-0.07	-0.750			
0.0969	6203.27	4.0070	4.0070	-0.7719	25.11	-0.07	-0.750			
0.0992	6350.97	4.0040	4.0039	-0.7749	25.12	-0.06	-0.750			
0.1016	6500.64	4.0010	4.0009	-0.7760	25.12	-0.06	-0.750			
0.1039	6652.09	3.9980	3.9980	-0.7654	25.12	-0.06	-0.750			
0.1062	6797.59	3.9950	3.9951	-0.7685	25.12	-0.06	-0.750			
0.1085	6944.60	3.9920	3.9919	-0.7799	25.12	-0.06	-0.750			
0.1108	7093.49	3.9890	3.9888	-0.7723	25.12	-0.06	-0.750			
0.1131	7239.56	3.9860	3.9860	-0.7750	25.12	-0.06	-0.750			
0.1155	7391.49	3.9830	3.9830	-0.7842	25.12	-0.06	-0.750			
0.1179	7543.55	3.9800	3.9799	-0.7920	25.12	-0.06	-0.750			
0.1203	7698.18	3.9770	3.9769	-0.8004	25.13	-0.05	-0.750			
0.1226	7849.13	3.9740	3.9740	-0.7916	25.13	-0.05	-0.750			
0.1250	8000.58	3.9710	3.9710	-0.7900	25.13	-0.05	-0.750			
0.1274	8156.11	3.9680	3.9680	-0.7956	25.14	-0.04	-0.750			
0.1298	8305.97	3.9650	3.9652	-0.7926	25.14	-0.04	-0.750			
0.1322	8457.96	3.9620	3.9620	-0.7987	25.14	-0.04	-0.750			
0.1345	8610.13	3.9590	3.9590	-0.8103	25.14	-0.04	-0.750			
0.1370	8770.36	3.9560	3.9558	-0.8061	25.14	-0.04	-0.750			
0.1395	8928.90	3.9530	3.9529	-0.8056	25.14	-0.04	-0.750			
0.1419	9081.65	3.9500	3.9506	-0.8029	25.14	-0.04	-0.750			
0.1443	9235.62	3.9470	3.9469	-0.8007	25.14	-0.04	-0.750			
0.1467	9387.21	3.9440	3.9438	-0.8117	25.15	-0.03	-0.750			
0.1491	9543.07	3.9410	3.9408	-0.7989	25.15	-0.03	-0.750			
0.1516	9699.51	3.9380	3.9379	-0.8110	25.16	-0.02	-0.750			
0.1540	9855.73	3.9350	3.9355	-0.8140	25.16	-0.02	-0.750			
0.1564	10012.04	3.9320	3.9319	-0.8145	25.16	-0.02	-0.750			
0.1588	10166.09	3.9290	3.9287	-0.8146	25.16	-0.02	-0.750			
0.1612	10319.76	3.9260	3.9260	-0.8087	25.17	-0.01	-0.750			
0.1637	10479.92	3.9230	3.9230	-0.8215	25.17	-0.01	-0.750			
0.1662	10639.40	3.9200	3.9202	-0.8174	25.17	-0.01	-0.750			
0.1686	10792.76	3.9170	3.9169	-0.8172	25.17	-0.01	-0.750			
0.1711	10949.13	3.9140	3.9140	-0.8280	25.17	-0.01	-0.750			
0.1736	11108.83	3.9110	3.9109	-0.8285	25.18	-0.00	-0.750			
0.1761	11270.55	3.9080	3.9079	-0.8183	25.18	-0.00	-0.750			
0.1786	11431.53	3.9050	3.9051	-0.8251	25.18	-0.00	-0.750			
0.1811	11588.11	3.9020	3.9019	-0.8206	25.18	0.00	-0.750			
0.1835	11743.44	3.8990	3.8989	-0.8245	25.18	0.00	-0.750			
0.1859	11899.21	3.8960	3.8958	-0.8189	25.19	0.01	-0.750			
0.1884	12056.86	3.8930	3.8930	-0.8098	25.19	0.01	-0.750			
0.1909	12218.34	3.8900	3.8901	-0.8235	25.19	0.01	-0.750			
0.1934	12375.65	3.8870	3.8869	-0.8241	25.19	0.01	-0.750			
0.1958	12530.48	3.8840	3.8839	-0.8176	25.20	0.02	-0.750			
0.1982	12687.73	3.8810	3.8808	-0.8174	25.20	0.02	-0.750			
0.2006	12841.17	3.8780	3.8781	-0.8155	25.20	0.02	-0.750			
0.2032	13005.14	3.8750	3.8750	-0.8223	25.21	0.03	-0.750			
0.2057	13163.25	3.8720	3.8720	-0.8172	25.21	0.03	-0.750			
0.2080	13314.92	3.8690	3.8690	-0.8195	25.21	0.03	-0.750			
0.2106	13475.78	3.8660	3.8659	-0.8087	25.21	0.03	-0.750			
0.2130	13630.19	3.8630	3.8629	-0.8053	25.22	0.04	-0.750			
0.2154	13784.46	3.8600	3.8600	-0.8041	25.22	0.04	-0.750			
0.2178	13939.16	3.8570	3.8566	-0.7976	25.22	0.04	-0.750			
0.2202	14090.70	3.8540	3.8539	-0.7989	25.22	0.04	-0.750			
0.2225	14242.06	3.8510	3.8510	-0.7894	25.22	0.04	-0.750			
0.2249	14392.33	3.8480	3.8481	-0.7843	25.22	0.04	-0.750			
0.2273	14547.59	3.8450	3.8447	-0.7954	25.22	0.04	-0.750			
0.2296	14696.90	3.8420	3.8427	-0.7867	25.22	0.04	-0.750			
0.2320	14848.74	3.8390	3.8389	-0.7828	25.23	0.05	-0.750			
0.2344	14998.69	3.8360	3.8360	-0.7879	25.23	0.05	-0.750			
0.2367	15148.77	3.8330	3.8330	-0.7870	25.24	0.06	-0.750			
0.2391	15301.26	3.8300	3.8299	-0.7850	25.24	0.06	-0.750			
0.2414	15452.78	3.8270	3.8269	-0.7802	25.25	0.07	-0.750			
0.2438	15601.04	3.8240	3.8241	-0.7738	25.25	0.07	-0.750			
0.2461	15748.39	3.8210	3.8211	-0.7775	25.25	0.07	-0.750			
0.2484	15898.18	3.8180	3.8179	-0.7704	25.25	0.07	-0.750			
0.2507	16043.85	3.8150	3.8149	-0.7612	25.25	0.07	-0.750			
0.2529	16185.54	3.8120	3.8121	-0.7875	25.25	0.07	-0.750			
0.2553	16338.98	3.8090	3.8088	-0.8075	25.25	0.07	-0.750			
0.2578	16497.36	3.8060	3.8056	-0.8146	25.26	0.08	-0.750			
0.2603	16658.97	3.8030	3.8031	-0.8108	25.26	0.08	-0.750			
0.2628	16817.83	3.8000	3.8003	-0.8078	25.26	0.08	-0.750			
0.2652	16975.24	3.7970	3.7969	-0.8026	25.27	0.09	-0.750			
0.2676	17127.18	3.7940	3.7941	-0.7824	25.27	0.09	-0.750			
0.2698	17267.38	3.7910	3.7909	-0.7719	25.27	0.09	-0.750			
0.2721	17415.40	3.7880	3.7880	-0.7714	25.27	0.09	-0.750			
0.2744	17563.38	3.7850	3.7850	-0.7707	25.27	0.09	-0.750			
0.2768	17712.81	3.7820	3.7820	-0.7793	25.27	0.09	-0.750			
0.2791	17863.42	3.7790	3.7791	-0.7770	25.27	0.09	-0.750			
0.2815	18013.15	3.7760	3.7759	-0.7791	25.27	0.09	-0.750			
0.2838	18162.06	3.7730	3.7731	-0.7872	25.27	0.09	-0.750			
0.2861	18311.66	3.7700	3.7700	-0.7899	25.27	0.09	-0.750			
0.2885	18464.84	3.7670	3.7671	-0.8044	25.27	0.09	-0.750			
0.2909	18620.37	3.7640	3.7638	-0.8097	25.27	0.09	-0.750			
0.2934	18775.70	3.7610	3.7610	-0.8136	25.27	0.09	-0.750			
0.2959	18934.67	3.7580	3.7580	-0.8283	25.27	0.09	-0.750			
0.2983	19094.18	3.7550	3.7550	-0.8296	25.27	0.09	-0.750			
0.3008	19253.32	3.7520	3.7519	-0.8325	25.27	0.09	-0.750			
0.3034	19414.71	3.7490	3.7490	-0.8402	25.27	0.09	-0.750			
0.3059	19576.37	3.7460	3.7459	-0.8440	25.27	0.09	-0.750			
0.3084	19739.57	3.7430	3.7429	-0.8545	25.27	0.09	-0.750			
0.3110	19902.66	3.7400	3.7400	-0.8621	25.27	0.09	-0.750			
0.3136	20068.16	3.7370	3.7370	-0.8626	25.27	0.09	-0.750			
0.3162	20236.08	3.7340	3.7339	-0.8836	25.27	0.09	-0.750			
0.3188	20403.55	3.7310	3.7310	-0.9044	25.27	0.09	-0.750			
0.3216	20582.08	3.7280	3.7279	-0.9083	25.27	0.09	-0.750			
0.3243	20758.37	3.7250	3.7248	-0.9163	25.26	0.08	-0.750			
0.3271	20933.83	3.7220	3.7221	-0.9265	25.26	0.08	-0.750			
0.3299	21115.05	3.7190	3.7192	-0.9380	25.26	0.08	-0.750			
0.3328	21296.39	3.7160	3.7158	-0.9590	25.26	0.08	-0.750			
0.3356	21478.82	3.7130	3.7130	-0.9588	25.26	0.08	-0.750			
0.3385	21662.00	3.7100	3.7100	-0.9786	25.25	0.07	-0.750			
0.3416	21859.22	3.7070	3.7073	-1.0037	25.25	0.07	-0.750			
0.3446	22051.92	3.7040	3.7039	-1.0093	25.25	0.07	-0.750			
0.3476	22245.43	3.7010	3.7009	-1.0149	25.24	0.06	-0.750			
0.3506	22440.36	3.6980	3.6981	-1.0301	25.24	0.06	-0.750	0.365	0.504	
0.3537	22639.32	3.6950	3.6948	-1.0471	25.23	0.05	-0.750			
0.3569	22842.30	3.6920	3.6919	-1.0640	25.23	0.05	-0.750			
0.3601	23046.09	3.6890	3.6890	-1.0741	25.22	0.04	-0.750			
0.3634	23258.31	3.6860	3.6859	-1.0937	25.22	0.04	-0.750			
0.3667	23465.81	3.6830	3.6834	-1.1095	25.21	0.03	-0.750			
0.3701	23683.39	3.6800	3.6800	-1.1283	25.20	0.02	-0.750			
0.3734	23900.61	3.6770	3.6769	-1.1412	25.19	0.01	-0.750			
0.3769	24120.28	3.6740	3.6738	-1.1573	25.19	0.01	-0.750			
0.3804	24346.10	3.6710	3.6712	-1.1933	25.18	-0.00	-0.750			
0.3840	24575.31	3.6680	3.6679	-1.2079	25.18	-0.00	-0.750			
0.3877	24811.93	3.6650	3.6649	-1.2250	25.17	-0.01	-0.750			
0.3913	25044.22	3.6620	3.6620	-1.2421	25.17	-0.01	-0.750			
0.3952	25290.81	3.6590	3.6590	-1.2653	25.16	-0.02	-0.750			
0.3990	25536.20	3.6560	3.6558	-1.2798	25.15	-0.03	-0.750			
0.4028	25778.45	3.6530	3.6530	-1.3093	25.14	-0.04	-0.750			
0.4068	26032.19	3.6500	3.6500	-1.3178	25.14	-0.04	-0.750			
0.4108	26291.49	3.6470	3.6468	-1.3437	25.13	-0.05	-0.750			
0.4148	26549.47	3.6440	3.6440	-1.3799	25.12	-0.06	-0.750			
0.4190	26814.09	3.6410	3.6410	-1.3978	25.12	-0.06	-0.750			
0.4233	27091.62	3.6380	3.6378	-1.4429	25.11	-0.07	-0.750			
0.4277	27370.51	3.6350	3.6349	-1.4637	25.10	-0.08	-0.750			
0.4321	27651.62	3.6320	3.6320	-1.4840	25.10	-0.08	-0.750			
0.4366	27941.22	3.6290	3.6291	-1.5396	25.09	-0.09	-0.750			
0.4413	28243.30	3.6260	3.6260	-1.5377	25.08	-0.10	-0.750			
0.4458	28533.48	3.6230	3.6230	-1.5652	25.08	-0.10	-0.750			
0.4507	28841.67	3.6200	3.6198	-1.5991	25.07	-0.11	-0.750			
0.4554	29148.76	3.6170	3.6172	-1.6265	25.07	-0.11	-0.750			
0.4604	29463.53	3.6140	3.6138	-1.6668	25.06	-0.12	-0.750			
0.4654	29788.76	3.6110	3.6109	-1.7054	25.05	-0.13	-0.750			
0.4707	30124.56	3.6080	3.6079	-1.7558	25.05	-0.13	-0.750			
0.4760	30464.96	3.6050	3.6048	-1.7797	25.04	-0.14	-0.750			
0.4813	30806.14	3.6020	3.6016	-1.7898	25.04	-0.14	-0.750			
0.4868	31153.83	3.5990	3.5988	-1.8542	25.04	-0.14	-0.750			
0.4924	31512.45	3.5960	3.5962	-1.8697	25.04	-0.14	-0.750			
0.4980	31872.81	3.5930	3.5932	-1.9143	25.03	-0.15	-0.750			
0.5039	32247.29	3.5900	3.5902	-1.9347	25.02	-0.16	-0.750			
0.5097	32619.62	3.5870	3.5869	-1.9770	25.02	-0.16	-0.750			
0.5157	33006.35	3.5840	3.5841	-1.9797	25.02	-0.16	-0.750			
0.5216	33383.58	3.5810	3.5810	-2.0073	25.02	-0.16	-0.750			
0.5278	33779.86	3.5780	3.5778	-2.0331	25.01	-0.17	-0.750			
0.5338	34164.02	3.5750	3.5749	-2.0598	25.01	-0.17	-0.750			
0.5401	34566.10	3.5720	3.5721	-2.0576	25.01	-0.17	-0.750			
0.5463	34962.42	3.5690	3.5688	-2.0905	25.01	-0.17	-0.750			
0.5526	35366.10	3.5660	3.5660	-2.0957	25.00	-0.18	-0.750			
0.5590	35775.99	3.5630	3.5629	-2.0856	25.00	-0.18	-0.750			
0.5654	36186.22	3.5600	3.5601	-2.0642	25.00	-0.18	-0.750			
0.5716	36581.23	3.5570	3.5572	-2.0798	25.01	-0.17	-0.750			
0.5776	36969.38	3.5540	3.5539	-2.0650	25.02	-0.16	-0.750			
0.5838	37364.95	3.5510	3.5509	-2.0117	25.02	-0.16	-0.750			
0.5899	37756.45	3.5480	3.5481	-2.0070	25.02	-0.16	-0.750			
0.5960	38142.94	3.5450	3.5451	-2.0058	25.03	-0.15	-0.750			
0.6019	38518.61	3.5420	3.5419	-1.9756	25.04	-0.14	-0.750			
0.6077	38893.95	3.5390	3.5391	-1.9490	25.04	-0.14	-0.750			
0.6136	39270.70	3.5360	3.5362	-1.9117	25.04	-0.14	-0.750			
0.6194	39642.16	3.5330	3.5331	-1.8841	25.05	-0.13	-0.750			
0.6250	40000.40	3.5300	3.5301	-1.8509	25.07	-0.11	-0.750			
0.6305	40349.65	3.5270	3.5270	-1.8248	25.08	-0.10	-0.750			
0.6358	40692.20	3.5240	3.5241	-1.7839	25.10	-0.08	-0.750			
0.6411	41030.40	3.5210	3.5210	-1.7493	25.11	-0.07	-0.750			
0.6464	41369.63	3.5180	3.5181	-1.7231	25.12	-0.06	-0.750			
0.6515	41694.24	3.5150	3.5150	-1.6726	25.13	-0.05	-0.750			
0.6564	42009.67	3.5120	3.5119	-1.6303	25.15	-0.03	-0.750			
0.6612	42318.87	3.5090	3.5091	-1.5823	25.16	-0.02	-0.750			
0.6659	42614.67	3.5060	3.5058	-1.5380	25.18	-0.00	-0.750			
0.6705	42909.96	3.5030	3.5030	-1.4962	25.19	0.01	-0.750			
0.6749	43195.53	3.5000	3.4998	-1.4502	25.21	0.03	-0.750			
0.6792	43470.22	3.4970	3.4974	-1.4111	25.22	0.04	-0.750			
0.6833	43731.42	3.4940	3.4939	-1.3542	25.24	0.06	-0.750			
0.6873	43988.18	3.4910	3.4910	-1.3154	25.26	0.08	-0.750			
0.6912	44237.40	3.4880	3.4883	-1.2783	25.28	0.10	-0.750			
0.6950	44482.36	3.4850	3.4848	-1.2272	25.30	0.12	-0.750			
0.6986	44712.70	3.4820	3.4821	-1.1746	25.31	0.13	-0.750			
