Ah_balance (normalized)	Ah_balance (mAh)	Voltage - fit (V)	Voltage -  interpolate (V)	dQ/dV (1/V)	Temperature (°C)	Temperature - diff (°C)	Current (C)	R_DC 0ms (mOhm)	R_DC 50ms (mOhm)	R_DC 50 ms PEC (mOhm)
0.0489	3127.87	4.1970	4.1970	0.7856	26.09	0.54	0.750			
0.0510	3266.13	4.1940	4.1941	0.7326	26.09	0.54	0.750			
0.0532	3406.29	4.1910	4.1911	0.7390	26.09	0.54	0.750			
0.0555	3549.10	4.1880	4.1871	0.7470	26.09	0.54	0.750			
0.0577	3692.43	4.1850	4.1852	0.7532	26.09	0.54	0.750			
0.0600	3838.86	4.1820	4.1821	0.7573	26.09	0.54	0.750			
0.0623	3986.49	4.1790	4.1790	0.7608	26.09	0.54	0.750			
0.0647	4138.19	4.1760	4.1760	0.7707	26.09	0.54	0.750			
0.0669	4279.10	4.1730	4.1731	0.7608	26.09	0.54	0.750			
0.0691	4424.83	4.1700	4.1699	0.7643	26.09	0.54	0.750			
0.0714	4572.28	4.1670	4.1670	0.7627	26.10	0.55	0.750			
0.0737	4718.90	4.1640	4.1640	0.7578	26.10	0.55	0.750			
0.0760	4865.55	4.1610	4.1610	0.7652	26.10	0.55	0.750			
0.0783	5011.46	4.1580	4.1581	0.7633	26.11	0.56	0.750			
0.0806	5157.75	4.1550	4.1546	0.7629	26.11	0.56	0.750			
0.0829	5302.78	4.1520	4.1521	0.7623	26.11	0.56	0.750			
0.0852	5451.60	4.1490	4.1490	0.7587	26.11	0.56	0.750			
0.0875	5598.36	4.1460	4.1460	0.7671	26.11	0.56	0.750			
0.0897	5742.83	4.1430	4.1430	0.7632	26.11	0.56	0.750			
0.0920	5890.56	4.1400	4.1401	0.7653	26.11	0.56	0.750			
0.0943	6037.96	4.1370	4.1372	0.7690	26.11	0.56	0.750			
0.0967	6186.26	4.1340	4.1340	0.7720	26.11	0.56	0.750			
0.0990	6335.31	4.1310	4.1311	0.7751	26.11	0.56	0.750			
0.1013	6486.05	4.1280	4.1279	0.7795	26.11	0.56	0.750			
0.1036	6632.53	4.1250	4.1251	0.7744	26.11	0.56	0.750			
0.1060	6782.04	4.1220	4.1219	0.7760	26.11	0.56	0.750			
0.1083	6931.65	4.1190	4.1190	0.7789	26.11	0.56	0.750			
0.1107	7081.76	4.1160	4.1160	0.7768	26.12	0.57	0.750			
0.1130	7230.65	4.1130	4.1130	0.7772	26.12	0.57	0.750			
0.1153	7379.63	4.1100	4.1100	0.7787	26.13	0.58	0.750			
0.1176	7528.58	4.1070	4.1069	0.7837	26.13	0.58	0.750			
0.1200	7679.10	4.1040	4.1040	0.7860	26.13	0.58	0.750			
0.1224	7834.27	4.1010	4.1009	0.7769	26.13	0.58	0.750			
0.1247	7981.79	4.0980	4.0980	0.7839	26.14	0.59	0.750			
0.1271	8132.44	4.0950	4.0951	0.7860	26.14	0.59	0.750			
0.1294	8281.79	4.0920	4.0921	0.7873	26.14	0.59	0.750			
0.1318	8432.39	4.0890	4.0891	0.7929	26.14	0.59	0.750			
0.1342	8586.00	4.0860	4.0861	0.7938	26.14	0.59	0.750			
0.1366	8739.82	4.0830	4.0831	0.8001	26.14	0.59	0.750			
0.1390	8894.90	4.0800	4.0800	0.8029	26.15	0.60	0.750			
0.1414	9047.37	4.0770	4.0771	0.7997	26.15	0.60	0.750			
0.1438	9201.48	4.0740	4.0739	0.8055	26.15	0.60	0.750			
0.1462	9357.04	4.0710	4.0710	0.8057	26.15	0.60	0.750			
0.1486	9512.49	4.0680	4.0680	0.8065	26.15	0.60	0.750			
0.1511	9667.86	4.0650	4.0651	0.8124	26.15	0.60	0.750			
0.1535	9823.98	4.0620	4.0621	0.8143	26.15	0.60	0.750			
0.1559	9980.39	4.0590	4.0591	0.8161	26.15	0.60	0.750			
0.1584	10137.01	4.0560	4.0560	0.8188	26.15	0.60	0.750			
0.1608	10294.03	4.0530	4.0530	0.8134	26.16	0.61	0.750			
0.1633	10449.55	4.0500	4.0501	0.8177	26.16	0.61	0.750			
0.1657	10605.65	4.0470	4.0471	0.8212	26.17	0.62	0.750			
0.1682	10762.42	4.0440	4.0434	0.8264	26.17	0.62	0.750			
0.1707	10922.95	4.0410	4.0411	0.8292	26.17	0.62	0.750			
0.1732	11083.01	4.0380	4.0381	0.8364	26.17	0.62	0.750			
0.1757	11246.84	4.0350	4.0350	0.8426	26.17	0.62	0.750			
0.1782	11407.67	4.0320	4.0321	0.8336	26.17	0.62	0.750			
0.1807	11567.75	4.0290	4.0289	0.8377	26.17	0.62	0.750			
0.1833	11730.55	4.0260	4.0261	0.8352	26.17	0.62	0.750			
0.1858	11889.47	4.0230	4.0229	0.8383	26.17	0.62	0.750			
0.1883	12050.61	4.0200	4.0201	0.8432	26.17	0.62	0.750			
0.1908	12212.91	4.0170	4.0171	0.8431	26.17	0.62	0.750			
0.1934	12375.02	4.0140	4.0138	0.8496	26.17	0.62	0.750			
0.1959	12539.35	4.0110	4.0110	0.8514	26.17	0.62	0.750			
0.1985	12702.50	4.0080	4.0081	0.8439	26.17	0.62	0.750			
0.2010	12862.52	4.0050	4.0050	0.8504	26.17	0.62	0.750			
0.2035	13023.46	4.0020	4.0022	0.8527	26.17	0.62	0.750			
0.2061	13188.04	3.9990	3.9991	0.8562	26.17	0.62	0.750			
0.2087	13355.04	3.9960	3.9961	0.8596	26.17	0.62	0.750			
0.2113	13521.12	3.9930	3.9931	0.8665	26.17	0.62	0.750			
0.2139	13689.98	3.9900	3.9901	0.8718	26.17	0.62	0.750			
0.2165	13856.02	3.9870	3.9870	0.8663	26.17	0.62	0.750			
0.2191	14022.94	3.9840	3.9840	0.8641	26.17	0.62	0.750			
0.2217	14189.93	3.9810	3.9810	0.8581	26.17	0.62	0.750			
0.2243	14354.95	3.9780	3.9781	0.8613	26.17	0.62	0.750			
0.2269	14519.46	3.9750	3.9750	0.8664	26.17	0.62	0.750			
0.2294	14683.33	3.9720	3.9719	0.8638	26.17	0.62	0.750			
0.2320	14849.97	3.9690	3.9690	0.8677	26.17	0.62	0.750			
0.2347	15018.20	3.9660	3.9661	0.8653	26.17	0.62	0.750			
0.2373	15185.10	3.9630	3.9631	0.8728	26.18	0.63	0.750			
0.2399	15354.15	3.9600	3.9600	0.8764	26.18	0.63	0.750			
0.2425	15519.81	3.9570	3.9567	0.8745	26.18	0.63	0.750			
0.2451	15688.66	3.9540	3.9540	0.8753	26.18	0.63	0.750			
0.2478	15857.99	3.9510	3.9510	0.8724	26.18	0.63	0.750			
0.2504	16025.91	3.9480	3.9482	0.8699	26.17	0.62	0.750			
0.2530	16193.18	3.9450	3.9450	0.8710	26.17	0.62	0.750			
0.2556	16357.51	3.9420	3.9418	0.8639	26.17	0.62	0.750			
0.2582	16523.21	3.9390	3.9391	0.8600	26.17	0.62	0.750			
0.2607	16687.34	3.9360	3.9360	0.8622	26.16	0.61	0.750			
0.2634	16855.08	3.9330	3.9330	0.8664	26.16	0.61	0.750			
0.2659	17020.42	3.9300	3.9301	0.8666	26.15	0.60	0.750			
0.2685	17186.83	3.9270	3.9269	0.8691	26.15	0.60	0.750			
0.2712	17356.20	3.9240	3.9240	0.8608	26.14	0.59	0.750			
0.2738	17521.38	3.9210	3.9211	0.8631	26.14	0.59	0.750			
0.2763	17685.81	3.9180	3.9181	0.8688	26.14	0.59	0.750			
0.2789	17852.51	3.9150	3.9150	0.8677	26.13	0.58	0.750			
0.2815	18018.46	3.9120	3.9121	0.8668	26.13	0.58	0.750			
0.2841	18185.18	3.9090	3.9092	0.8665	26.12	0.57	0.750			
0.2868	18352.55	3.9060	3.9061	0.8729	26.12	0.57	0.750			
0.2894	18521.72	3.9030	3.9029	0.8753	26.12	0.57	0.750			
0.2920	18687.47	3.9000	3.9000	0.8674	26.11	0.56	0.750			
0.2946	18853.72	3.8970	3.8970	0.8717	26.11	0.56	0.750			
0.2972	19023.80	3.8940	3.8941	0.8716	26.10	0.55	0.750			
0.2998	19190.33	3.8910	3.8910	0.8757	26.10	0.55	0.750			
0.3025	19358.49	3.8880	3.8880	0.8763	26.09	0.54	0.750			
0.3051	19525.74	3.8850	3.8848	0.8766	26.09	0.54	0.750			
0.3077	19694.27	3.8820	3.8822	0.8816	26.08	0.53	0.750			
0.3104	19864.40	3.8790	3.8790	0.8786	26.08	0.53	0.750			
0.3130	20032.38	3.8760	3.8760	0.8833	26.07	0.52	0.750			
0.3156	20200.52	3.8730	3.8731	0.8849	26.07	0.52	0.750			
0.3183	20372.20	3.8700	3.8701	0.8895	26.06	0.51	0.750			
0.3210	20545.25	3.8670	3.8670	0.8945	26.05	0.50	0.750			
0.3237	20717.35	3.8640	3.8640	0.8965	26.04	0.49	0.750			
0.3264	20890.86	3.8610	3.8611	0.8990	26.03	0.48	0.750			
0.3291	21063.01	3.8580	3.8579	0.8969	26.02	0.47	0.750			
0.3318	21237.72	3.8550	3.8549	0.8851	26.02	0.47	0.750			
0.3344	21403.42	3.8520	3.8521	0.8963	26.01	0.46	0.750			
0.3371	21575.11	3.8490	3.8491	0.9106	26.00	0.45	0.750			
0.3398	21749.94	3.8460	3.8460	0.9231	26.00	0.45	0.750			
0.3426	21928.87	3.8430	3.8431	0.9351	25.99	0.44	0.750	0.309	0.460	
0.3456	22116.57	3.8400	3.8401	0.9292	25.98	0.43	0.750			
0.3484	22294.41	3.8370	3.8371	0.9336	25.97	0.42	0.750			
0.3511	22472.01	3.8340	3.8342	0.9447	25.96	0.41	0.750			
0.3539	22649.88	3.8310	3.8311	0.9410	25.96	0.41	0.750			
0.3567	22830.29	3.8280	3.8281	0.9463	25.95	0.40	0.750			
0.3596	23014.10	3.8250	3.8251	0.9556	25.94	0.39	0.750			
0.3625	23201.23	3.8220	3.8222	0.9717	25.93	0.38	0.750			
0.3655	23390.16	3.8190	3.8191	0.9831	25.92	0.37	0.750			
0.3684	23577.33	3.8160	3.8159	0.9821	25.91	0.36	0.750			
0.3713	23765.68	3.8130	3.8129	0.9854	25.90	0.35	0.750			
0.3743	23954.17	3.8100	3.8101	1.0001	25.89	0.34	0.750			
0.3773	24147.45	3.8070	3.8071	1.0172	25.88	0.33	0.750			
0.3804	24345.11	3.8040	3.8035	1.0300	25.87	0.32	0.750			
0.3835	24544.52	3.8010	3.8011	1.0293	25.86	0.31	0.750			
0.3866	24741.23	3.7980	3.7982	1.0516	25.85	0.30	0.750			
0.3898	24944.76	3.7950	3.7951	1.0716	25.84	0.29	0.750			
0.3930	25154.35	3.7920	3.7914	1.0883	25.83	0.28	0.750			
0.3962	25359.57	3.7890	3.7892	1.0977	25.82	0.27	0.750			
0.3996	25573.30	3.7860	3.7861	1.1212	25.81	0.26	0.750			
0.4030	25794.24	3.7830	3.7830	1.1464	25.80	0.25	0.750			
0.4065	26015.41	3.7800	3.7801	1.1411	25.79	0.24	0.750			
0.4099	26234.57	3.7770	3.7770	1.1637	25.77	0.22	0.750			
0.4134	26460.12	3.7740	3.7741	1.1865	25.75	0.20	0.750			
0.4171	26696.91	3.7710	3.7708	1.1835	25.73	0.18	0.750			
0.4206	26919.69	3.7680	3.7681	1.2103	25.72	0.17	0.750			
0.4242	27151.07	3.7650	3.7651	1.2365	25.71	0.16	0.750			
0.4280	27390.28	3.7620	3.7622	1.2698	25.70	0.15	0.750			
0.4318	27635.14	3.7590	3.7588	1.2975	25.69	0.14	0.750			
0.4358	27889.44	3.7560	3.7563	1.3347	25.68	0.13	0.750			
0.4399	28152.24	3.7530	3.7531	1.3721	25.67	0.12	0.750			
0.4441	28421.57	3.7500	3.7500	1.3982	25.66	0.11	0.750			
0.4483	28689.58	3.7470	3.7471	1.3938	25.64	0.09	0.750			
0.4525	28962.79	3.7440	3.7440	1.4131	25.63	0.08	0.750			
0.4568	29233.47	3.7410	3.7412	1.4418	25.62	0.07	0.750			
0.4610	29503.80	3.7380	3.7375	1.5019	25.61	0.06	0.750			
0.4656	29798.48	3.7350	3.7354	1.5331	25.60	0.05	0.750			
0.4703	30096.95	3.7320	3.7318	1.6021	25.58	0.03	0.750			
0.4752	30411.97	3.7290	3.7288	1.6643	25.57	0.02	0.750			
0.4803	30737.90	3.7260	3.7264	1.7016	25.55	0.00	0.750			
0.4857	31081.67	3.7230	3.7231	1.7566	25.53	-0.02	0.750			
0.4909	31419.66	3.7200	3.7202	1.7444	25.52	-0.03	0.750			
0.4962	31758.40	3.7170	3.7166	1.7923	25.50	-0.05	0.750			
0.5017	32106.11	3.7140	3.7140	1.8878	25.48	-0.07	0.750			
0.5075	32479.10	3.7110	3.7107	1.9225	25.47	-0.08	0.750			
0.5134	32858.76	3.7080	3.7081	2.0046	25.46	-0.09	0.750			
0.5198	33265.20	3.7050	3.7045	2.1001	25.45	-0.10	0.750			
0.5260	33663.04	3.7020	3.7020	2.1806	25.43	-0.12	0.750			
0.5327	34090.81	3.6990	3.6990	2.2032	25.41	-0.14	0.750			
0.5396	34534.54	3.6960	3.6962	2.2534	25.40	-0.15	0.750			
0.5462	34957.12	3.6930	3.6929	2.2559	25.39	-0.16	0.750			
0.5529	35386.97	3.6900	3.6897	2.3335	25.38	-0.17	0.750			
0.5601	35847.39	3.6870	3.6871	2.3696	25.38	-0.17	0.750			
0.5672	36298.39	3.6840	3.6840	2.2941	25.37	-0.18	0.750			
0.5742	36750.95	3.6810	3.6809	2.3088	25.37	-0.18	0.750			
0.5810	37185.25	3.6780	3.6778	2.2683	25.37	-0.18	0.750			
0.5879	37628.54	3.6750	3.6754	2.2489	25.37	-0.18	0.750			
0.5940	38015.27	3.6720	3.6722	2.0586	25.37	-0.18	0.750			
0.6002	38410.86	3.6690	3.6685	2.0141	25.38	-0.17	0.750			
0.6062	38797.69	3.6660	3.6658	1.8836	25.38	-0.17	0.750			
0.6118	39154.69	3.6630	3.6634	1.7638	25.39	-0.16	0.750			
0.6170	39487.37	3.6600	3.6599	1.6401	25.40	-0.15	0.750			
0.6217	39790.31	3.6570	3.6572	1.5132	25.41	-0.14	0.750			
0.6260	40065.99	3.6540	3.6541	1.3942	25.41	-0.14	0.750			
0.6300	40323.00	3.6510	3.6510	1.2987	25.42	-0.13	0.750			
0.6338	40563.43	3.6480	3.6480	1.2220	25.43	-0.12	0.750			
0.6373	40789.26	3.6450	3.6450	1.1592	25.44	-0.11	0.750			
0.6407	41003.35	3.6420	3.6421	1.1064	25.44	-0.11	0.750			
0.6439	41211.19	3.6390	3.6389	1.0581	25.45	-0.10	0.750			
0.6470	41409.02	3.6360	3.6361	1.0020	25.46	-0.09	0.750			
0.6499	41594.42	3.6330	3.6331	0.9669	25.47	-0.08	0.750			
0.6528	41777.38	3.6300	3.6301	0.9335	25.47	-0.08	0.750			
0.6555	41950.87	3.6270	3.6264	0.8952	25.48	-0.07	0.750			
0.6581	42119.73	3.6240	3.6241	0.8666	25.49	-0.06	0.750			
0.6607	42284.54	3.6210	3.6211	0.8321	25.49	-0.06	0.750			
0.6632	42445.50	3.6180	3.6181	0.7998	25.50	-0.05	0.750			
0.6655	42593.89	3.6150	3.6149	0.7516	25.50	-0.05	0.750			
0.6677	42734.60	3.6120	3.6120	0.7084	25.51	-0.04	0.750			
0.6698	42867.69	3.6090	3.6091	0.6651	25.52	-0.03	0.750			
0.6717	42990.80	3.6060	3.6060	0.6171	25.52	-0.03	0.750			
0.6735	43105.79	3.6030	3.6031	0.5699	25.53	-0.02	0.750			
0.6752	43210.94	3.6000	3.6000	0.5222	25.53	-0.02	0.750			
0.6767	43306.55	3.5970	3.5970	0.4724	25.54	-0.01	0.750			
0.6780	43391.91	3.5940	3.5940	0.4199	25.54	-0.01	0.750			
0.6792	43467.02	3.5910	3.5911	0.3743	25.55	-0.00	0.750			
0.6802	43534.19	3.5880	3.5879	0.3263	25.55	-0.00	0.750			
0.6811	43592.27	3.5850	3.5851	0.2799	25.55	0.00	0.750			
0.6819	43641.30	3.5820	3.5820	0.2338	25.55	0.00	0.750			
0.6825	43681.95	3.5790	3.5794	0.1888	25.56	0.01	0.750			
0.6830	43715.00	3.5760	3.5764	0.1392	25.56	0.01	0.750			
0.6834	43736.79	3.5730	3.5734	0.0958	25.56	0.01	0.750			
