Ah_balance (normalized)	Ah_balance (mAh)	Voltage - fit (V)	Voltage -  interpolate (V)	dQ/dV (1/V)	Temperature (°C)	Temperature - diff (°C)	Current (C)	R_DC 0ms (mOhm)	R_DC 50ms (mOhm)	R_DC 50 ms PEC (mOhm)
0.0475	3042.91	4.1980	4.1980	0.7348	25.18	0.50	0.750			
0.0498	3184.03	4.1950	4.1950	0.7386	25.18	0.50	0.750			
0.0520	3326.48	4.1920	4.1920	0.7473	25.18	0.50	0.750			
0.0542	3470.66	4.1890	4.1889	0.7573	25.18	0.50	0.750			
0.0565	3617.56	4.1860	4.1860	0.7618	25.18	0.50	0.750			
0.0589	3766.83	4.1830	4.1830	0.7632	25.18	0.50	0.750			
0.0611	3913.22	4.1800	4.1800	0.7666	25.18	0.50	0.750			
0.0634	4060.31	4.1770	4.1770	0.7687	25.18	0.50	0.750			
0.0657	4207.56	4.1740	4.1740	0.7686	25.18	0.50	0.750			
0.0680	4354.69	4.1710	4.1711	0.7714	25.18	0.50	0.750			
0.0704	4502.60	4.1680	4.1680	0.7722	25.18	0.50	0.750			
0.0727	4652.44	4.1650	4.1650	0.7672	25.18	0.50	0.750			
0.0750	4798.81	4.1620	4.1620	0.7743	25.18	0.50	0.750			
0.0773	4945.46	4.1590	4.1591	0.7745	25.18	0.50	0.750			
0.0796	5094.85	4.1560	4.1560	0.7772	25.18	0.50	0.750			
0.0819	5244.59	4.1530	4.1531	0.7796	25.18	0.50	0.750			
0.0843	5395.43	4.1500	4.1501	0.7773	25.18	0.50	0.750			
0.0867	5547.19	4.1470	4.1470	0.7810	25.18	0.50	0.750			
0.0890	5694.61	4.1440	4.1441	0.7759	25.18	0.50	0.750			
0.0913	5842.42	4.1410	4.1408	0.7772	25.18	0.50	0.750			
0.0936	5992.26	4.1380	4.1380	0.7809	25.18	0.50	0.750			
0.0960	6144.28	4.1350	4.1350	0.7817	25.19	0.51	0.750			
0.0984	6294.79	4.1320	4.1320	0.7869	25.19	0.51	0.750			
0.1007	6446.66	4.1290	4.1291	0.7878	25.19	0.51	0.750			
0.1031	6596.47	4.1260	4.1259	0.7857	25.20	0.52	0.750			
0.1054	6746.54	4.1230	4.1230	0.7871	25.20	0.52	0.750			
0.1078	6901.48	4.1200	4.1200	0.7805	25.20	0.52	0.750			
0.1101	7048.31	4.1170	4.1171	0.7863	25.20	0.52	0.750			
0.1125	7199.66	4.1140	4.1140	0.7929	25.20	0.52	0.750			
0.1149	7350.71	4.1110	4.1111	0.7937	25.20	0.52	0.750			
0.1172	7503.21	4.1080	4.1077	0.7989	25.20	0.52	0.750			
0.1196	7657.11	4.1050	4.1051	0.8055	25.20	0.52	0.750			
0.1221	7813.96	4.1020	4.1021	0.8047	25.20	0.52	0.750			
0.1245	7969.74	4.0990	4.0990	0.8087	25.20	0.52	0.750			
0.1269	8123.57	4.0960	4.0961	0.7998	25.20	0.52	0.750			
0.1293	8277.28	4.0930	4.0928	0.8044	25.20	0.52	0.750			
0.1318	8432.21	4.0900	4.0901	0.8089	25.20	0.52	0.750			
0.1342	8588.12	4.0870	4.0870	0.8049	25.21	0.53	0.750			
0.1366	8742.56	4.0840	4.0841	0.8088	25.21	0.53	0.750			
0.1390	8896.99	4.0810	4.0810	0.8096	25.22	0.54	0.750			
0.1414	9052.46	4.0780	4.0777	0.8159	25.22	0.54	0.750			
0.1439	9208.91	4.0750	4.0751	0.8228	25.22	0.54	0.750			
0.1464	9370.70	4.0720	4.0720	0.8083	25.22	0.54	0.750			
0.1489	9526.65	4.0690	4.0690	0.8229	25.23	0.55	0.750			
0.1513	9684.73	4.0660	4.0660	0.8289	25.23	0.55	0.750			
0.1538	9840.63	4.0630	4.0628	0.8275	25.23	0.55	0.750			
0.1563	10000.49	4.0600	4.0601	0.8325	25.23	0.55	0.750			
0.1588	10161.17	4.0570	4.0570	0.8318	25.24	0.56	0.750			
0.1613	10321.40	4.0540	4.0541	0.8384	25.24	0.56	0.750			
0.1638	10483.66	4.0510	4.0511	0.8342	25.25	0.57	0.750			
0.1663	10644.76	4.0480	4.0477	0.8385	25.25	0.57	0.750			
0.1688	10805.27	4.0450	4.0451	0.8404	25.25	0.57	0.750			
0.1714	10968.03	4.0420	4.0421	0.8426	25.25	0.57	0.750			
0.1739	11130.93	4.0390	4.0391	0.8487	25.26	0.58	0.750			
0.1764	11292.32	4.0360	4.0360	0.8459	25.26	0.58	0.750			
0.1790	11455.80	4.0330	4.0328	0.8498	25.26	0.58	0.750			
0.1815	11618.68	4.0300	4.0300	0.8574	25.26	0.58	0.750			
0.1841	11784.12	4.0270	4.0270	0.8546	25.26	0.58	0.750			
0.1867	11948.53	4.0240	4.0240	0.8620	25.27	0.59	0.750			
0.1893	12113.76	4.0210	4.0210	0.8633	25.27	0.59	0.750			
0.1919	12280.30	4.0180	4.0179	0.8694	25.27	0.59	0.750			
0.1945	12448.15	4.0150	4.0151	0.8707	25.27	0.59	0.750			
0.1971	12616.17	4.0120	4.0121	0.8736	25.27	0.59	0.750			
0.1998	12784.13	4.0090	4.0090	0.8761	25.28	0.60	0.750			
0.2024	12954.22	4.0060	4.0059	0.8807	25.28	0.60	0.750			
0.2050	13119.22	4.0030	4.0030	0.8779	25.28	0.60	0.750			
0.2077	13290.15	4.0000	3.9999	0.8771	25.28	0.60	0.750			
0.2103	13458.67	3.9970	3.9971	0.8868	25.28	0.60	0.750			
0.2130	13629.91	3.9940	3.9940	0.8914	25.29	0.61	0.750			
0.2157	13801.78	3.9910	3.9909	0.8932	25.29	0.61	0.750			
0.2183	13973.78	3.9880	3.9881	0.8942	25.29	0.61	0.750			
0.2210	14145.72	3.9850	3.9850	0.8894	25.30	0.62	0.750			
0.2237	14315.74	3.9820	3.9821	0.8916	25.30	0.62	0.750			
0.2263	14484.89	3.9790	3.9790	0.8891	25.31	0.63	0.750			
0.2290	14655.25	3.9760	3.9753	0.8992	25.31	0.63	0.750			
0.2317	14831.84	3.9730	3.9731	0.8985	25.31	0.63	0.750			
0.2344	15003.87	3.9700	3.9701	0.9062	25.32	0.64	0.750			
0.2372	15179.68	3.9670	3.9671	0.9164	25.32	0.64	0.750			
0.2399	15356.44	3.9640	3.9640	0.9227	25.33	0.65	0.750			
0.2427	15531.05	3.9610	3.9609	0.9182	25.33	0.65	0.750			
0.2455	15708.92	3.9580	3.9581	0.9181	25.34	0.66	0.750			
0.2482	15886.16	3.9550	3.9551	0.9187	25.34	0.66	0.750			
0.2510	16063.79	3.9520	3.9521	0.9217	25.34	0.66	0.750			
0.2537	16239.13	3.9490	3.9488	0.9157	25.35	0.67	0.750			
0.2565	16418.81	3.9460	3.9459	0.9038	25.35	0.67	0.750			
0.2592	16588.49	3.9430	3.9430	0.9117	25.35	0.67	0.750			
0.2619	16762.63	3.9400	3.9401	0.9196	25.35	0.67	0.750			
0.2647	16938.79	3.9370	3.9371	0.9284	25.35	0.67	0.750			
0.2674	17116.72	3.9340	3.9337	0.9327	25.35	0.67	0.750			
0.2703	17297.89	3.9310	3.9311	0.9349	25.36	0.68	0.750			
0.2731	17479.99	3.9280	3.9281	0.9435	25.36	0.68	0.750			
0.2760	17664.45	3.9250	3.9250	0.9352	25.37	0.69	0.750			
0.2788	17841.31	3.9220	3.9218	0.9173	25.37	0.69	0.750			
0.2815	18017.12	3.9190	3.9191	0.9126	25.37	0.69	0.750			
0.2842	18189.78	3.9160	3.9159	0.9163	25.37	0.69	0.750			
0.2869	18363.39	3.9130	3.9130	0.9251	25.37	0.69	0.750			
0.2897	18541.21	3.9100	3.9100	0.9377	25.37	0.69	0.750			
0.2925	18722.18	3.9070	3.9071	0.9467	25.37	0.69	0.750			
0.2955	18909.08	3.9040	3.9040	0.9565	25.37	0.69	0.750			
0.2983	19090.65	3.9010	3.9011	0.9450	25.38	0.70	0.750			
0.3011	19270.39	3.8980	3.8982	0.9480	25.38	0.70	0.750			
0.3039	19449.37	3.8950	3.8944	0.9478	25.38	0.70	0.750			
0.3067	19631.82	3.8920	3.8921	0.9574	25.38	0.70	0.750			
0.3096	19815.32	3.8890	3.8891	0.9651	25.38	0.70	0.750			
0.3126	20004.60	3.8860	3.8861	0.9705	25.38	0.70	0.750			
0.3156	20199.96	3.8830	3.8829	0.9830	25.38	0.70	0.750			
0.3185	20381.60	3.8800	3.8800	0.9613	25.38	0.70	0.750			
0.3213	20565.10	3.8770	3.8770	0.9632	25.38	0.70	0.750			
0.3242	20749.56	3.8740	3.8740	0.9661	25.37	0.69	0.750			
0.3271	20934.02	3.8710	3.8711	0.9701	25.37	0.69	0.750			
0.3300	21119.67	3.8680	3.8679	0.9762	25.37	0.69	0.750			
0.3330	21310.39	3.8650	3.8650	0.9665	25.36	0.68	0.750			
0.3358	21494.27	3.8620	3.8621	0.9738	25.36	0.68	0.750			
0.3387	21679.17	3.8590	3.8592	0.9875	25.35	0.67	0.750			
0.3417	21867.70	3.8560	3.8551	0.9972	25.35	0.67	0.750			
0.3447	22060.44	3.8530	3.8530	0.9987	25.35	0.67	0.750			
0.3477	22255.11	3.8500	3.8502	1.0089	25.34	0.66	0.750			
0.3508	22454.29	3.8470	3.8471	1.0218	25.34	0.66	0.750			
0.3541	22661.10	3.8440	3.8435	1.0152	25.33	0.65	0.750			
0.3569	22844.00	3.8410	3.8411	0.9924	25.32	0.64	0.750			
0.3598	23028.24	3.8380	3.8381	1.0083	25.32	0.64	0.750			
0.3628	23220.32	3.8350	3.8352	1.0211	25.31	0.63	0.750			
0.3659	23417.85	3.8320	3.8318	1.0248	25.30	0.62	0.750	0.349	0.397	
0.3690	23619.08	3.8290	3.8293	1.0289	25.29	0.61	0.750			
0.3722	23820.54	3.8260	3.8263	1.0456	25.29	0.61	0.750			
0.3754	24025.19	3.8230	3.8230	1.0522	25.28	0.60	0.750			
0.3785	24222.92	3.8200	3.8198	1.0335	25.27	0.59	0.750			
0.3816	24421.79	3.8170	3.8171	1.0380	25.26	0.58	0.750			
0.3847	24623.39	3.8140	3.8141	1.0460	25.26	0.58	0.750			
0.3879	24825.99	3.8110	3.8110	1.0526	25.25	0.57	0.750			
0.3911	25030.74	3.8080	3.8078	1.0610	25.24	0.56	0.750			
0.3942	25228.26	3.8050	3.8051	1.0564	25.23	0.55	0.750			
0.3974	25432.04	3.8020	3.8020	1.0700	25.22	0.54	0.750			
0.4006	25637.55	3.7990	3.7990	1.0811	25.21	0.53	0.750			
0.4039	25846.78	3.7960	3.7956	1.0981	25.20	0.52	0.750			
0.4072	26058.02	3.7930	3.7931	1.1000	25.19	0.51	0.750			
0.4104	26268.21	3.7900	3.7901	1.1135	25.18	0.50	0.750			
0.4138	26482.00	3.7870	3.7872	1.1345	25.18	0.50	0.750			
0.4172	26702.68	3.7840	3.7837	1.1498	25.17	0.49	0.750			
0.4207	26923.36	3.7810	3.7813	1.1677	25.15	0.47	0.750			
0.4242	27150.44	3.7780	3.7782	1.1903	25.14	0.46	0.750			
0.4279	27384.79	3.7750	3.7749	1.2157	25.12	0.44	0.750			
0.4316	27624.67	3.7720	3.7720	1.2389	25.11	0.43	0.750			
0.4352	27854.21	3.7690	3.7690	1.2495	25.10	0.42	0.750			
0.4390	28095.51	3.7660	3.7662	1.2773	25.09	0.41	0.750			
0.4429	28344.18	3.7630	3.7630	1.2920	25.08	0.40	0.750			
0.4467	28588.29	3.7600	3.7601	1.3222	25.06	0.38	0.750			
0.4507	28842.61	3.7570	3.7571	1.3546	25.05	0.37	0.750			
0.4548	29104.80	3.7540	3.7535	1.3822	25.04	0.36	0.750			
0.4590	29373.52	3.7510	3.7512	1.4233	25.02	0.34	0.750			
0.4633	29653.69	3.7480	3.7482	1.4503	25.01	0.33	0.750			
0.4679	29948.23	3.7450	3.7450	1.4603	25.00	0.32	0.750			
0.4723	30229.14	3.7420	3.7421	1.4601	24.98	0.30	0.750			
0.4767	30507.08	3.7390	3.7393	1.5141	24.97	0.29	0.750			
0.4813	30805.69	3.7360	3.7361	1.5422	24.95	0.27	0.750			
0.4857	31087.49	3.7330	3.7333	1.6093	24.94	0.26	0.750			
0.4907	31405.26	3.7300	3.7302	1.6696	24.92	0.24	0.750			
0.4959	31739.31	3.7270	3.7270	1.7295	24.91	0.23	0.750			
0.5014	32087.85	3.7240	3.7243	1.7868	24.89	0.21	0.750			
0.5067	32428.92	3.7210	3.7205	1.8406	24.87	0.19	0.750			
0.5124	32790.95	3.7180	3.7178	1.9536	24.85	0.17	0.750			
0.5181	33158.69	3.7150	3.7153	2.0962	24.84	0.16	0.750			
0.5246	33571.31	3.7120	3.7118	2.2298	24.82	0.14	0.750			
0.5314	34011.42	3.7090	3.7093	2.2311	24.80	0.12	0.750			
0.5388	34483.57	3.7060	3.7059	2.3037	24.77	0.09	0.750			
0.5453	34898.08	3.7030	3.7029	2.2430	24.75	0.07	0.750			
0.5518	35317.32	3.7000	3.7001	2.2803	24.74	0.06	0.750			
0.5587	35758.14	3.6970	3.6969	2.3295	24.72	0.04	0.750			
0.5659	36219.42	3.6940	3.6939	2.3672	24.69	0.01	0.750			
0.5730	36673.38	3.6910	3.6911	2.4553	24.67	-0.01	0.750			
0.5803	37141.64	3.6880	3.6880	2.5915	24.66	-0.02	0.750			
0.5883	37648.72	3.6850	3.6850	2.6587	24.65	-0.03	0.750			
0.5967	38187.77	3.6820	3.6822	2.7605	24.62	-0.06	0.750			
0.6051	38725.27	3.6790	3.6788	2.7683	24.60	-0.08	0.750			
0.6131	39241.47	3.6760	3.6760	2.7699	24.59	-0.09	0.750			
0.6218	39792.78	3.6730	3.6729	2.8305	24.58	-0.10	0.750			
0.6302	40334.22	3.6700	3.6700	2.8364	24.57	-0.11	0.750			
0.6388	40882.88	3.6670	3.6671	2.7847	24.56	-0.12	0.750			
0.6472	41420.13	3.6640	3.6640	2.6506	24.56	-0.12	0.750			
0.6550	41916.99	3.6610	3.6611	2.4385	24.56	-0.12	0.750			
0.6619	42363.55	3.6580	3.6579	2.2249	24.57	-0.11	0.750			
0.6681	42755.72	3.6550	3.6551	2.0154	24.58	-0.10	0.750			
0.6738	43123.84	3.6520	3.6517	1.8383	24.59	-0.09	0.750			
0.6791	43461.01	3.6490	3.6487	1.6626	24.59	-0.09	0.750			
0.6837	43757.91	3.6460	3.6461	1.4882	24.59	-0.09	0.750			
0.6879	44025.38	3.6430	3.6432	1.3451	24.60	-0.08	0.750			
0.6917	44265.84	3.6400	3.6398	1.2073	24.60	-0.08	0.750			
0.6950	44478.49	3.6370	3.6370	1.0916	24.61	-0.07	0.750			
0.6980	44671.92	3.6340	3.6340	1.0214	24.61	-0.07	0.750			
0.7009	44854.45	3.6310	3.6310	0.9688	24.61	-0.07	0.750			
0.7037	45033.67	3.6280	3.6278	0.9350	24.62	-0.06	0.750			
0.7064	45209.00	3.6250	3.6250	0.9089	24.63	-0.05	0.750			
0.7091	45381.86	3.6220	3.6221	0.8814	24.64	-0.04	0.750			
0.7117	45551.42	3.6190	3.6190	0.8604	24.64	-0.04	0.750			
0.7143	45714.69	3.6160	3.6160	0.8253	24.65	-0.03	0.750			
0.7168	45873.42	3.6130	3.6126	0.7760	24.66	-0.02	0.750			
0.7191	46020.94	3.6100	3.6101	0.7230	24.66	-0.02	0.750			
0.7212	46156.17	3.6070	3.6071	0.6589	24.67	-0.01	0.750			
0.7231	46280.59	3.6040	3.6039	0.5874	24.67	-0.01	0.750			
0.7247	46382.82	3.6010	3.6010	0.5095	24.67	-0.01	0.750			
0.7261	46471.81	3.5980	3.5981	0.4432	24.68	-0.00	0.750			
0.7273	46548.01	3.5950	3.5953	0.3802	24.68	-0.00	0.750			
0.7284	46615.30	3.5920	3.5921	0.3241	24.68	-0.00	0.750			
0.7292	46670.42	3.5890	3.5890	0.2679	24.68	0.00	0.750			
0.7299	46716.03	3.5860	3.5862	0.2186	24.68	0.00	0.750			
0.7305	46753.43	3.5830	3.5834	0.1720	24.68	0.00	0.750			
0.7310	46781.57	3.5800	3.5805	0.1143	24.68	0.00	0.750			
