Ah_balance (normalized)	Ah_balance (mAh)	Voltage - fit (V)	Voltage -  interpolate (V)	dQ/dV (1/V)	Temperature (°C)	Temperature - diff (°C)	Current (C)	R_DC 0ms (mOhm)	R_DC 50ms (mOhm)	R_DC 50 ms PEC (mOhm)
0.0484	3100.24	4.1960	4.1961	0.7401	25.55	0.41	0.750			
0.0507	3244.85	4.1930	4.1930	0.7587	25.55	0.41	0.750			
0.0530	3393.65	4.1900	4.1897	0.7662	25.55	0.41	0.750			
0.0553	3541.79	4.1870	4.1870	0.7675	25.55	0.41	0.750			
0.0577	3690.36	4.1840	4.1841	0.7676	25.55	0.41	0.750			
0.0600	3838.46	4.1810	4.1809	0.7688	25.56	0.42	0.750			
0.0623	3985.25	4.1780	4.1780	0.7727	25.56	0.42	0.750			
0.0646	4131.32	4.1750	4.1750	0.7731	25.56	0.42	0.750			
0.0669	4280.27	4.1720	4.1721	0.7762	25.56	0.42	0.750			
0.0692	4430.91	4.1690	4.1690	0.7798	25.56	0.42	0.750			
0.0716	4581.57	4.1660	4.1660	0.7810	25.56	0.42	0.750			
0.0739	4731.57	4.1630	4.1630	0.7799	25.57	0.43	0.750			
0.0763	4880.43	4.1600	4.1600	0.7795	25.57	0.43	0.750			
0.0786	5029.66	4.1570	4.1568	0.7800	25.57	0.43	0.750			
0.0809	5179.31	4.1540	4.1541	0.7813	25.57	0.43	0.750			
0.0833	5332.44	4.1510	4.1510	0.7703	25.57	0.43	0.750			
0.0856	5479.50	4.1480	4.1480	0.7777	25.57	0.43	0.750			
0.0879	5626.94	4.1450	4.1451	0.7851	25.57	0.43	0.750			
0.0903	5776.21	4.1420	4.1419	0.7880	25.57	0.43	0.750			
0.0926	5928.22	4.1390	4.1391	0.7945	25.57	0.43	0.750			
0.0950	6082.36	4.1360	4.1361	0.7999	25.57	0.43	0.750			
0.0975	6238.34	4.1330	4.1330	0.8027	25.58	0.44	0.750			
0.1000	6397.16	4.1300	4.1300	0.8075	25.58	0.44	0.750			
0.1023	6547.87	4.1270	4.1270	0.7990	25.58	0.44	0.750			
0.1047	6700.68	4.1240	4.1240	0.7975	25.58	0.44	0.750			
0.1071	6855.08	4.1210	4.1209	0.7934	25.58	0.44	0.750			
0.1095	7004.84	4.1180	4.1181	0.7970	25.58	0.44	0.750			
0.1118	7157.45	4.1150	4.1150	0.8022	25.59	0.45	0.750			
0.1142	7311.92	4.1120	4.1119	0.8057	25.59	0.45	0.750			
0.1167	7467.02	4.1090	4.1089	0.8099	25.59	0.45	0.750			
0.1191	7623.31	4.1060	4.1061	0.8149	25.59	0.45	0.750			
0.1216	7780.87	4.1030	4.1031	0.8146	25.59	0.45	0.750			
0.1240	7937.37	4.1000	4.1000	0.8170	25.60	0.46	0.750			
0.1264	8092.00	4.0970	4.0971	0.8137	25.60	0.46	0.750			
0.1289	8248.17	4.0940	4.0937	0.8158	25.60	0.46	0.750			
0.1314	8406.89	4.0910	4.0912	0.8159	25.60	0.46	0.750			
0.1338	8563.40	4.0880	4.0881	0.8231	25.60	0.46	0.750			
0.1363	8722.24	4.0850	4.0850	0.8283	25.61	0.47	0.750			
0.1388	8880.47	4.0820	4.0820	0.8258	25.61	0.47	0.750			
0.1412	9039.55	4.0790	4.0789	0.8297	25.61	0.47	0.750			
0.1438	9201.66	4.0760	4.0761	0.8291	25.61	0.47	0.750			
0.1463	9362.02	4.0730	4.0730	0.8334	25.61	0.47	0.750			
0.1488	9520.61	4.0700	4.0701	0.8386	25.61	0.47	0.750			
0.1512	9679.18	4.0670	4.0670	0.8388	25.61	0.47	0.750			
0.1538	9841.21	4.0640	4.0638	0.8428	25.61	0.47	0.750			
0.1563	10004.25	4.0610	4.0611	0.8485	25.61	0.47	0.750			
0.1589	10169.50	4.0580	4.0581	0.8453	25.62	0.48	0.750			
0.1614	10330.20	4.0550	4.0551	0.8474	25.62	0.48	0.750			
0.1639	10490.72	4.0520	4.0521	0.8481	25.63	0.49	0.750			
0.1665	10653.07	4.0490	4.0488	0.8575	25.63	0.49	0.750			
0.1690	10818.86	4.0460	4.0461	0.8603	25.63	0.49	0.750			
0.1716	10985.19	4.0430	4.0431	0.8719	25.63	0.49	0.750			
0.1743	11156.90	4.0400	4.0400	0.8768	25.63	0.49	0.750			
0.1770	11329.59	4.0370	4.0370	0.8784	25.63	0.49	0.750			
0.1796	11491.95	4.0340	4.0341	0.8683	25.63	0.49	0.750			
0.1822	11659.34	4.0310	4.0310	0.8672	25.64	0.50	0.750			
0.1848	11824.06	4.0280	4.0280	0.8684	25.64	0.50	0.750			
0.1874	11991.04	4.0250	4.0251	0.8728	25.64	0.50	0.750			
0.1900	12157.75	4.0220	4.0219	0.8723	25.65	0.51	0.750			
0.1926	12326.47	4.0190	4.0190	0.8821	25.65	0.51	0.750			
0.1953	12497.43	4.0160	4.0161	0.8838	25.65	0.51	0.750			
0.1979	12667.15	4.0130	4.0131	0.8840	25.65	0.51	0.750			
0.2006	12837.72	4.0100	4.0099	0.8895	25.65	0.51	0.750			
0.2032	13007.80	4.0070	4.0066	0.8906	25.65	0.51	0.750			
0.2059	13178.60	4.0040	4.0040	0.8933	25.65	0.51	0.750			
0.2086	13349.77	4.0010	4.0010	0.9022	25.66	0.52	0.750			
0.2113	13524.74	3.9980	3.9980	0.9073	25.66	0.52	0.750			
0.2141	13701.36	3.9950	3.9950	0.9128	25.67	0.53	0.750			
0.2168	13877.09	3.9920	3.9919	0.9130	25.67	0.53	0.750			
0.2196	14052.78	3.9890	3.9891	0.9083	25.68	0.54	0.750			
0.2223	14226.85	3.9860	3.9860	0.9090	25.68	0.54	0.750			
0.2250	14399.94	3.9830	3.9831	0.9105	25.68	0.54	0.750			
0.2277	14573.32	3.9800	3.9798	0.9080	25.69	0.55	0.750			
0.2304	14748.12	3.9770	3.9770	0.9150	25.69	0.55	0.750			
0.2332	14924.14	3.9740	3.9741	0.9133	25.69	0.55	0.750			
0.2359	15098.80	3.9710	3.9711	0.9203	25.69	0.55	0.750			
0.2387	15275.41	3.9680	3.9681	0.9317	25.69	0.55	0.750			
0.2415	15453.29	3.9650	3.9648	0.9363	25.69	0.55	0.750			
0.2443	15635.01	3.9620	3.9620	0.9452	25.70	0.56	0.750			
0.2472	15818.70	3.9590	3.9590	0.9539	25.70	0.56	0.750			
0.2501	16005.33	3.9560	3.9561	0.9609	25.70	0.56	0.750			
0.2530	16190.04	3.9530	3.9530	0.9530	25.71	0.57	0.750			
0.2559	16375.05	3.9500	3.9500	0.9475	25.71	0.57	0.750			
0.2587	16556.26	3.9470	3.9471	0.9423	25.71	0.57	0.750			
0.2615	16735.57	3.9440	3.9440	0.9427	25.72	0.58	0.750			
0.2643	16914.70	3.9410	3.9410	0.9407	25.72	0.58	0.750			
0.2671	17095.72	3.9380	3.9380	0.9400	25.72	0.58	0.750			
0.2700	17280.53	3.9350	3.9350	0.9129	25.73	0.59	0.750			
0.2727	17453.21	3.9320	3.9321	0.9325	25.74	0.60	0.750			
0.2755	17630.20	3.9290	3.9292	0.9404	25.74	0.60	0.750			
0.2783	17808.42	3.9260	3.9253	0.9444	25.75	0.61	0.750			
0.2811	17990.80	3.9230	3.9231	0.9501	25.75	0.61	0.750			
0.2840	18174.46	3.9200	3.9202	0.9627	25.75	0.61	0.750			
0.2869	18362.26	3.9170	3.9171	0.9784	25.75	0.61	0.750			
0.2899	18554.20	3.9140	3.9139	0.9738	25.75	0.61	0.750			
0.2928	18742.28	3.9110	3.9110	0.9730	25.75	0.61	0.750			
0.2958	18929.38	3.9080	3.9081	0.9801	25.76	0.62	0.750			
0.2987	19118.85	3.9050	3.9051	0.9862	25.76	0.62	0.750			
0.3017	19307.76	3.9020	3.9020	0.9873	25.77	0.63	0.750			
0.3047	19497.87	3.8990	3.8991	0.9902	25.77	0.63	0.750			
0.3076	19687.71	3.8960	3.8960	0.9869	25.77	0.63	0.750			
0.3106	19877.30	3.8930	3.8931	0.9945	25.77	0.63	0.750			
0.3136	20068.57	3.8900	3.8901	0.9967	25.77	0.63	0.750			
0.3166	20259.22	3.8870	3.8870	0.9989	25.77	0.63	0.750			
0.3196	20451.34	3.8840	3.8841	1.0072	25.77	0.63	0.750			
0.3226	20644.94	3.8810	3.8811	1.0166	25.77	0.63	0.750			
0.3257	20843.42	3.8780	3.8780	1.0237	25.77	0.63	0.750			
0.3287	21038.68	3.8750	3.8750	1.0208	25.77	0.63	0.750			
0.3318	21236.71	3.8720	3.8721	1.0233	25.77	0.63	0.750			
0.3349	21433.89	3.8690	3.8689	1.0263	25.78	0.64	0.750			
0.3380	21629.20	3.8660	3.8661	1.0285	25.78	0.64	0.750			
0.3411	21827.28	3.8630	3.8628	1.0349	25.78	0.64	0.750			
0.3441	22024.82	3.8600	3.8600	1.0337	25.78	0.64	0.750			
0.3472	22223.78	3.8570	3.8570	1.0447	25.78	0.64	0.750			
0.3504	22424.75	3.8540	3.8541	1.0514	25.77	0.63	0.750			
0.3536	22627.41	3.8510	3.8510	1.0554	25.77	0.63	0.750			
0.3567	22831.72	3.8480	3.8481	1.0540	25.77	0.63	0.750			
0.3599	23033.04	3.8450	3.8451	1.0604	25.76	0.62	0.750			
0.3631	23237.21	3.8420	3.8421	1.0676	25.76	0.62	0.750			
0.3663	23441.95	3.8390	3.8387	1.0644	25.76	0.62	0.750			
0.3695	23646.61	3.8360	3.8361	1.0709	25.75	0.61	0.750			
0.3727	23851.69	3.8330	3.8331	1.0907	25.75	0.61	0.750			
0.3760	24062.34	3.8300	3.8302	1.1076	25.74	0.60	0.750			
0.3794	24282.16	3.8270	3.8270	1.0958	25.74	0.60	0.750	0.305	0.406	
0.3827	24491.44	3.8240	3.8241	1.1122	25.73	0.59	0.750			
0.3860	24705.13	3.8210	3.8212	1.1281	25.72	0.58	0.750			
0.3894	24923.10	3.8180	3.8183	1.1404	25.71	0.57	0.750			
0.3928	25142.15	3.8150	3.8152	1.1268	25.71	0.57	0.750			
0.3962	25359.07	3.8120	3.8122	1.1406	25.70	0.56	0.750			
0.3997	25579.79	3.8090	3.8092	1.1523	25.69	0.55	0.750			
0.4032	25805.38	3.8060	3.8056	1.1565	25.68	0.54	0.750			
0.4066	26024.76	3.8030	3.8031	1.1579	25.67	0.53	0.750			
0.4101	26247.58	3.8000	3.8001	1.1711	25.66	0.52	0.750			
0.4137	26475.59	3.7970	3.7971	1.1868	25.66	0.52	0.750			
0.4173	26704.97	3.7940	3.7939	1.1828	25.65	0.51	0.750			
0.4208	26932.79	3.7910	3.7911	1.1917	25.63	0.49	0.750			
0.4244	27162.39	3.7880	3.7882	1.2073	25.62	0.48	0.750			
0.4281	27395.66	3.7850	3.7844	1.2161	25.61	0.47	0.750			
0.4317	27628.07	3.7820	3.7821	1.2303	25.60	0.46	0.750			
0.4354	27864.85	3.7790	3.7791	1.2483	25.59	0.45	0.750			
0.4392	28109.97	3.7760	3.7759	1.2556	25.58	0.44	0.750			
0.4431	28356.50	3.7730	3.7731	1.2785	25.56	0.42	0.750			
0.4468	28596.36	3.7700	3.7701	1.2964	25.55	0.41	0.750			
0.4507	28845.01	3.7670	3.7671	1.3231	25.54	0.40	0.750			
0.4547	29102.74	3.7640	3.7638	1.3337	25.53	0.39	0.750			
0.4587	29355.44	3.7610	3.7612	1.3660	25.52	0.38	0.750			
0.4628	29620.93	3.7580	3.7582	1.4027	25.51	0.37	0.750			
0.4671	29895.24	3.7550	3.7552	1.4244	25.50	0.36	0.750			
0.4714	30167.55	3.7520	3.7522	1.4454	25.48	0.34	0.750			
0.4758	30450.86	3.7490	3.7492	1.4740	25.46	0.32	0.750			
0.4802	30735.97	3.7460	3.7454	1.5243	25.45	0.31	0.750			
0.4849	31034.30	3.7430	3.7426	1.5368	25.43	0.29	0.750			
0.4895	31327.39	3.7400	3.7403	1.5923	25.42	0.28	0.750			
0.4943	31636.71	3.7370	3.7368	1.6570	25.41	0.27	0.750			
0.4994	31961.23	3.7340	3.7338	1.6896	25.39	0.25	0.750			
0.5045	32289.70	3.7310	3.7309	1.7511	25.37	0.23	0.750			
0.5099	32635.95	3.7280	3.7278	1.8319	25.35	0.21	0.750			
0.5155	32993.07	3.7250	3.7251	1.8742	25.32	0.18	0.750			
0.5212	33359.35	3.7220	3.7219	1.9214	25.30	0.16	0.750			
0.5271	33734.17	3.7190	3.7192	1.9568	25.28	0.14	0.750			
0.5330	34113.38	3.7160	3.7162	1.9943	25.27	0.13	0.750			
0.5390	34494.26	3.7130	3.7134	2.0521	25.25	0.11	0.750			
0.5452	34890.31	3.7100	3.7098	2.1524	25.23	0.09	0.750			
0.5519	35322.20	3.7070	3.7068	2.2521	25.21	0.07	0.750			
0.5591	35781.50	3.7040	3.7037	2.3760	25.19	0.05	0.750			
0.5659	36219.98	3.7010	3.7011	2.3734	25.17	0.03	0.750			
0.5733	36688.45	3.6980	3.6981	2.3966	25.15	0.01	0.750			
0.5806	37155.23	3.6950	3.6949	2.4436	25.13	-0.01	0.750			
0.5879	37627.54	3.6920	3.6915	2.5131	25.11	-0.03	0.750			
0.5955	38112.76	3.6890	3.6890	2.6064	25.09	-0.05	0.750			
0.6034	38616.03	3.6860	3.6860	2.6591	25.08	-0.06	0.750			
0.6115	39138.18	3.6830	3.6831	2.7377	25.07	-0.07	0.750			
0.6198	39669.95	3.6800	3.6802	2.8219	25.05	-0.09	0.750			
0.6285	40224.44	3.6770	3.6772	2.8801	25.03	-0.11	0.750			
0.6373	40786.51	3.6740	3.6741	2.9361	25.02	-0.12	0.750			
0.6462	41356.19	3.6710	3.6710	2.9602	25.02	-0.12	0.750			
0.6552	41929.68	3.6680	3.6680	2.9627	25.01	-0.13	0.750			
0.6645	42525.00	3.6650	3.6649	3.0012	25.00	-0.14	0.750			
0.6733	43090.30	3.6620	3.6619	2.9642	25.01	-0.13	0.750			
0.6823	43664.69	3.6590	3.6587	2.7489	25.02	-0.12	0.750			
0.6901	44168.12	3.6560	3.6559	2.5221	25.03	-0.11	0.750			
0.6971	44615.61	3.6530	3.6532	2.2373	25.03	-0.11	0.750			
0.7033	45010.56	3.6500	3.6502	2.0200	25.04	-0.10	0.750			
0.7091	45380.22	3.6470	3.6471	1.8433	25.05	-0.09	0.750			
0.7145	45725.30	3.6440	3.6439	1.6738	25.06	-0.08	0.750			
0.7192	46031.56	3.6410	3.6414	1.4918	25.07	-0.07	0.750			
0.7234	46295.73	3.6380	3.6385	1.3155	25.07	-0.07	0.750			
0.7271	46533.42	3.6350	3.6349	1.1605	25.08	-0.06	0.750			
0.7301	46728.30	3.6320	3.6318	1.0359	25.09	-0.05	0.750			
0.7327	46892.85	3.6290	3.6291	0.9059	25.09	-0.05	0.750			
0.7353	47057.99	3.6260	3.6260	0.8674	25.10	-0.04	0.750			
0.7378	47220.27	3.6230	3.6230	0.8403	25.11	-0.03	0.750			
0.7403	47376.72	3.6200	3.6199	0.8128	25.12	-0.02	0.750			
0.7427	47530.78	3.6170	3.6171	0.7878	25.12	-0.02	0.750			
0.7451	47683.76	3.6140	3.6140	0.7555	25.13	-0.01	0.750			
0.7473	47828.67	3.6110	3.6110	0.7082	25.13	-0.01	0.750			
0.7495	47965.77	3.6080	3.6080	0.6499	25.13	-0.01	0.750			
0.7513	48084.59	3.6050	3.6052	0.5787	25.14	-0.00	0.750			
0.7530	48189.74	3.6020	3.6019	0.5057	25.14	-0.00	0.750			
0.7544	48278.89	3.5990	3.5989	0.4340	25.14	0.00	0.750			
0.7555	48352.64	3.5960	3.5959	0.3649	25.14	0.00	0.750			
0.7565	48414.98	3.5930	3.5931	0.3005	25.14	0.00	0.750			
0.7573	48468.06	3.5900	3.5899	0.2404	25.15	0.01	0.750			
0.7579	48507.95	3.5870	3.5871	0.1795	25.15	0.01	0.750			
0.7584	48536.55	3.5840	3.5843	0.1203	25.15	0.01	0.750			
