Ah_balance (normalized)	Ah_balance (mAh)	Voltage - fit (V)	Voltage -  interpolate (V)	dQ/dV (1/V)	Temperature (°C)	Temperature - diff (°C)	Current (C)	R_DC 0ms (mOhm)	R_DC 50ms (mOhm)	R_DC 50 ms PEC (mOhm)
0.0502	3211.49	4.1960	4.1960	0.7653	25.43	0.48	0.750			
0.0524	3356.74	4.1930	4.1930	0.7559	25.43	0.48	0.750			
0.0547	3502.92	4.1900	4.1899	0.7475	25.43	0.48	0.750			
0.0569	3644.06	4.1870	4.1870	0.7486	25.43	0.48	0.750			
0.0592	3786.16	4.1840	4.1840	0.7506	25.43	0.48	0.750			
0.0614	3929.59	4.1810	4.1809	0.7526	25.43	0.48	0.750			
0.0637	4075.51	4.1780	4.1781	0.7545	25.43	0.48	0.750			
0.0660	4221.30	4.1750	4.1750	0.7596	25.43	0.48	0.750			
0.0682	4367.73	4.1720	4.1720	0.7535	25.43	0.48	0.750			
0.0705	4511.69	4.1690	4.1691	0.7594	25.43	0.48	0.750			
0.0727	4655.24	4.1660	4.1660	0.7560	25.43	0.48	0.750			
0.0750	4800.71	4.1630	4.1631	0.7602	25.43	0.48	0.750			
0.0773	4946.96	4.1600	4.1600	0.7648	25.43	0.48	0.750			
0.0796	5095.01	4.1570	4.1571	0.7668	25.43	0.48	0.750			
0.0819	5243.87	4.1540	4.1540	0.7700	25.44	0.49	0.750			
0.0842	5391.81	4.1510	4.1510	0.7671	25.44	0.49	0.750			
0.0865	5538.66	4.1480	4.1480	0.7675	25.44	0.49	0.750			
0.0889	5686.62	4.1450	4.1450	0.7684	25.44	0.49	0.750			
0.0912	5834.44	4.1420	4.1420	0.7636	25.44	0.49	0.750			
0.0935	5980.86	4.1390	4.1390	0.7646	25.45	0.50	0.750			
0.0957	6127.18	4.1360	4.1360	0.7677	25.45	0.50	0.750			
0.0980	6274.20	4.1330	4.1330	0.7678	25.45	0.50	0.750			
0.1003	6420.98	4.1300	4.1301	0.7720	25.45	0.50	0.750			
0.1026	6569.59	4.1270	4.1271	0.7754	25.45	0.50	0.750			
0.1050	6719.71	4.1240	4.1240	0.7770	25.45	0.50	0.750			
0.1073	6869.53	4.1210	4.1210	0.7776	25.44	0.49	0.750			
0.1097	7018.12	4.1180	4.1181	0.7764	25.44	0.49	0.750			
0.1120	7166.89	4.1150	4.1146	0.7795	25.44	0.49	0.750			
0.1143	7317.14	4.1120	4.1121	0.7825	25.44	0.49	0.750			
0.1167	7467.53	4.1090	4.1090	0.7812	25.44	0.49	0.750			
0.1190	7618.72	4.1060	4.1060	0.7849	25.45	0.50	0.750			
0.1214	7769.98	4.1030	4.1030	0.7857	25.45	0.50	0.750			
0.1237	7919.41	4.1000	4.0999	0.7882	25.45	0.50	0.750			
0.1261	8070.90	4.0970	4.0970	0.7887	25.45	0.50	0.750			
0.1285	8222.56	4.0940	4.0940	0.7874	25.45	0.50	0.750			
0.1308	8374.26	4.0910	4.0910	0.7892	25.45	0.50	0.750			
0.1332	8526.49	4.0880	4.0880	0.7927	25.45	0.50	0.750			
0.1356	8677.74	4.0850	4.0851	0.7929	25.45	0.50	0.750			
0.1380	8829.49	4.0820	4.0821	0.7953	25.45	0.50	0.750			
0.1404	8984.70	4.0790	4.0789	0.7897	25.45	0.50	0.750			
0.1428	9136.81	4.0760	4.0760	0.7928	25.45	0.50	0.750			
0.1451	9286.64	4.0730	4.0731	0.8015	25.45	0.50	0.750			
0.1475	9440.45	4.0700	4.0701	0.8044	25.45	0.50	0.750			
0.1499	9594.74	4.0670	4.0667	0.8075	25.45	0.50	0.750			
0.1524	9750.80	4.0640	4.0640	0.8148	25.45	0.50	0.750			
0.1548	9908.94	4.0610	4.0611	0.8154	25.46	0.51	0.750			
0.1573	10066.48	4.0580	4.0580	0.8204	25.46	0.51	0.750			
0.1597	10222.18	4.0550	4.0551	0.8196	25.47	0.52	0.750			
0.1622	10379.89	4.0520	4.0518	0.8211	25.47	0.52	0.750			
0.1647	10538.55	4.0490	4.0490	0.8245	25.47	0.52	0.750			
0.1672	10697.70	4.0460	4.0461	0.8163	25.47	0.52	0.750			
0.1696	10853.20	4.0430	4.0431	0.8262	25.47	0.52	0.750			
0.1720	11010.60	4.0400	4.0401	0.8262	25.47	0.52	0.750			
0.1745	11169.93	4.0370	4.0364	0.8331	25.47	0.52	0.750			
0.1770	11329.39	4.0340	4.0342	0.8358	25.47	0.52	0.750			
0.1796	11492.28	4.0310	4.0311	0.8383	25.47	0.52	0.750			
0.1821	11655.11	4.0280	4.0281	0.8455	25.48	0.53	0.750			
0.1846	11815.51	4.0250	4.0251	0.8407	25.48	0.53	0.750			
0.1871	11976.36	4.0220	4.0216	0.8468	25.48	0.53	0.750			
0.1897	12141.02	4.0190	4.0191	0.8492	25.48	0.53	0.750			
0.1923	12304.43	4.0160	4.0161	0.8537	25.48	0.53	0.750			
0.1949	12471.37	4.0130	4.0130	0.8577	25.48	0.53	0.750			
0.1974	12634.35	4.0100	4.0100	0.8513	25.48	0.53	0.750			
0.2000	12797.45	4.0070	4.0070	0.8569	25.48	0.53	0.750			
0.2026	12964.02	4.0040	4.0040	0.8549	25.48	0.53	0.750			
0.2051	13127.64	4.0010	4.0010	0.8592	25.48	0.53	0.750			
0.2077	13293.61	3.9980	3.9980	0.8633	25.48	0.53	0.750			
0.2103	13458.41	3.9950	3.9951	0.8661	25.48	0.53	0.750			
0.2129	13625.15	3.9920	3.9920	0.8724	25.48	0.53	0.750			
0.2155	13795.03	3.9890	3.9890	0.8649	25.48	0.53	0.750			
0.2181	13959.94	3.9860	3.9860	0.8697	25.48	0.53	0.750			
0.2208	14128.15	3.9830	3.9831	0.8739	25.48	0.53	0.750			
0.2234	14295.45	3.9800	3.9801	0.8736	25.48	0.53	0.750			
0.2260	14462.86	3.9770	3.9771	0.8768	25.48	0.53	0.750			
0.2286	14631.99	3.9740	3.9740	0.8766	25.48	0.53	0.750			
0.2313	14800.41	3.9710	3.9711	0.8819	25.49	0.54	0.750			
0.2340	14973.11	3.9680	3.9679	0.8881	25.49	0.54	0.750			
0.2366	15139.44	3.9650	3.9650	0.8800	25.49	0.54	0.750			
0.2392	15309.33	3.9620	3.9619	0.8836	25.49	0.54	0.750			
0.2419	15478.45	3.9590	3.9591	0.8808	25.49	0.54	0.750			
0.2445	15647.06	3.9560	3.9560	0.8832	25.49	0.54	0.750			
0.2471	15817.25	3.9530	3.9531	0.8858	25.49	0.54	0.750			
0.2498	15986.15	3.9500	3.9498	0.8870	25.49	0.54	0.750			
0.2525	16160.20	3.9470	3.9471	0.8834	25.49	0.54	0.750			
0.2551	16329.12	3.9440	3.9440	0.8828	25.49	0.54	0.750			
0.2578	16498.90	3.9410	3.9411	0.8870	25.49	0.54	0.750			
0.2604	16667.97	3.9380	3.9381	0.8836	25.49	0.54	0.750			
0.2631	16837.13	3.9350	3.9350	0.8834	25.49	0.54	0.750			
0.2657	17007.88	3.9320	3.9320	0.8815	25.49	0.54	0.750			
0.2684	17177.32	3.9290	3.9291	0.8821	25.48	0.53	0.750			
0.2710	17347.00	3.9260	3.9260	0.8875	25.48	0.53	0.750			
0.2737	17515.64	3.9230	3.9230	0.8841	25.48	0.53	0.750			
0.2763	17686.14	3.9200	3.9199	0.8843	25.48	0.53	0.750			
0.2790	17856.63	3.9170	3.9170	0.8789	25.48	0.53	0.750			
0.2816	18024.60	3.9140	3.9141	0.8810	25.47	0.52	0.750			
0.2843	18192.49	3.9110	3.9112	0.8831	25.47	0.52	0.750			
0.2869	18362.47	3.9080	3.9075	0.8876	25.47	0.52	0.750			
0.2896	18532.90	3.9050	3.9050	0.8816	25.47	0.52	0.750			
0.2922	18703.76	3.9020	3.9021	0.8868	25.46	0.51	0.750			
0.2949	18875.86	3.8990	3.8991	0.8964	25.46	0.51	0.750			
0.2976	19046.92	3.8960	3.8960	0.8887	25.45	0.50	0.750			
0.3003	19217.71	3.8930	3.8931	0.8847	25.45	0.50	0.750			
0.3029	19388.24	3.8900	3.8901	0.8829	25.44	0.49	0.750			
0.3056	19558.31	3.8870	3.8871	0.8871	25.44	0.49	0.750			
0.3083	19728.47	3.8840	3.8840	0.8893	25.43	0.48	0.750			
0.3109	19898.07	3.8810	3.8809	0.8854	25.42	0.47	0.750			
0.3136	20067.33	3.8780	3.8781	0.8876	25.42	0.47	0.750			
0.3162	20239.46	3.8750	3.8749	0.8897	25.41	0.46	0.750			
0.3189	20410.32	3.8720	3.8720	0.8924	25.40	0.45	0.750			
0.3216	20580.21	3.8690	3.8690	0.8916	25.39	0.44	0.750			
0.3242	20751.72	3.8660	3.8655	0.8957	25.38	0.43	0.750			
0.3270	20927.55	3.8630	3.8630	0.8916	25.37	0.42	0.750			
0.3297	21097.86	3.8600	3.8600	0.8970	25.37	0.42	0.750			
0.3323	21269.55	3.8570	3.8571	0.9006	25.36	0.41	0.750			
0.3351	21445.03	3.8540	3.8540	0.9011	25.35	0.40	0.750			
0.3377	21614.29	3.8510	3.8509	0.9044	25.35	0.40	0.750			
0.3404	21787.59	3.8480	3.8481	0.9168	25.34	0.39	0.750			
0.3432	21963.58	3.8450	3.8452	0.9307	25.34	0.39	0.750			
0.3460	22145.94	3.8420	3.8422	0.9378	25.33	0.38	0.750	0.321	0.446	
0.3488	22326.09	3.8390	3.8391	0.9446	25.32	0.37	0.750			
0.3517	22511.77	3.8360	3.8361	0.9424	25.31	0.36	0.750			
0.3546	22692.11	3.8330	3.8330	0.9509	25.30	0.35	0.750			
0.3574	22873.15	3.8300	3.8301	0.9496	25.29	0.34	0.750			
0.3602	23055.65	3.8270	3.8270	0.9612	25.29	0.34	0.750			
0.3631	23241.59	3.8240	3.8240	0.9658	25.28	0.33	0.750			
0.3661	23428.77	3.8210	3.8211	0.9764	25.26	0.31	0.750			
0.3690	23617.24	3.8180	3.8180	0.9828	25.25	0.30	0.750			
0.3720	23808.63	3.8150	3.8151	0.9925	25.24	0.29	0.750			
0.3749	23996.49	3.8120	3.8120	0.9949	25.23	0.28	0.750			
0.3779	24188.49	3.8090	3.8090	1.0110	25.22	0.27	0.750			
0.3810	24382.96	3.8060	3.8060	1.0198	25.20	0.25	0.750			
0.3841	24581.10	3.8030	3.8030	1.0369	25.19	0.24	0.750			
0.3873	24784.25	3.8000	3.8000	1.0460	25.18	0.23	0.750			
0.3904	24985.80	3.7970	3.7970	1.0581	25.17	0.22	0.750			
0.3936	25189.05	3.7940	3.7940	1.0704	25.16	0.21	0.750			
0.3969	25398.70	3.7910	3.7910	1.0672	25.16	0.21	0.750			
0.4001	25604.75	3.7880	3.7880	1.0653	25.15	0.20	0.750			
0.4032	25807.93	3.7850	3.7851	1.0590	25.13	0.18	0.750			
0.4063	26001.92	3.7820	3.7824	1.0730	25.12	0.17	0.750			
0.4095	26206.71	3.7790	3.7789	1.0997	25.11	0.16	0.750			
0.4127	26415.05	3.7760	3.7760	1.1232	25.10	0.15	0.750			
0.4162	26636.66	3.7730	3.7731	1.1648	25.09	0.14	0.750			
0.4199	26872.78	3.7700	3.7701	1.2177	25.08	0.13	0.750			
0.4236	27111.86	3.7670	3.7669	1.2375	25.07	0.12	0.750			
0.4273	27348.37	3.7640	3.7640	1.2582	25.06	0.11	0.750			
0.4311	27592.08	3.7610	3.7610	1.2861	25.05	0.10	0.750			
0.4351	27844.74	3.7580	3.7580	1.3051	25.04	0.09	0.750			
0.4390	28093.55	3.7550	3.7551	1.3352	25.03	0.08	0.750			
0.4432	28363.44	3.7520	3.7520	1.3254	25.02	0.07	0.750			
0.4471	28616.07	3.7490	3.7491	1.3785	25.01	0.06	0.750			
0.4514	28888.02	3.7460	3.7462	1.4021	24.99	0.04	0.750			
0.4555	29150.97	3.7430	3.7433	1.4560	24.98	0.03	0.750			
0.4601	29443.52	3.7400	3.7403	1.4789	24.97	0.02	0.750			
0.4646	29732.74	3.7370	3.7373	1.5162	24.95	0.00	0.750			
0.4690	30019.08	3.7340	3.7344	1.5791	24.94	-0.01	0.750			
0.4740	30335.21	3.7310	3.7308	1.6154	24.93	-0.02	0.750			
0.4788	30640.31	3.7280	3.7278	1.6097	24.92	-0.03	0.750			
0.4838	30965.53	3.7250	3.7250	1.7045	24.91	-0.04	0.750			
0.4890	31294.74	3.7220	3.7214	1.7463	24.90	-0.05	0.750			
0.4944	31642.16	3.7190	3.7185	1.8345	24.88	-0.07	0.750			
0.5000	31997.26	3.7160	3.7163	1.8697	24.87	-0.08	0.750			
0.5057	32367.12	3.7130	3.7130	1.9173	24.85	-0.10	0.750			
0.5113	32725.05	3.7100	3.7099	1.9528	24.84	-0.11	0.750			
0.5173	33104.57	3.7070	3.7074	1.9852	24.83	-0.12	0.750			
0.5234	33495.20	3.7040	3.7041	2.0781	24.82	-0.13	0.750			
0.5298	33905.73	3.7010	3.7007	2.1633	24.81	-0.14	0.750			
0.5362	34316.79	3.6980	3.6982	2.2442	24.80	-0.15	0.750			
0.5429	34744.13	3.6950	3.6951	2.2905	24.80	-0.15	0.750			
0.5497	35180.79	3.6920	3.6918	2.3138	24.79	-0.16	0.750			
0.5567	35625.93	3.6890	3.6886	2.3473	24.78	-0.17	0.750			
0.5638	36085.19	3.6860	3.6864	2.4366	24.78	-0.17	0.750			
0.5714	36568.51	3.6830	3.6822	2.5673	24.76	-0.19	0.750			
0.5788	37044.78	3.6800	3.6806	2.5686	24.76	-0.19	0.750			
0.5864	37527.78	3.6770	3.6769	2.4621	24.76	-0.19	0.750			
0.5934	37977.84	3.6740	3.6745	2.3126	24.77	-0.18	0.750			
0.6004	38427.13	3.6710	3.6707	2.1791	24.77	-0.18	0.750			
0.6069	38843.34	3.6680	3.6686	2.1495	24.78	-0.17	0.750			
0.6132	39245.83	3.6650	3.6656	2.0577	24.78	-0.17	0.750			
0.6190	39616.55	3.6620	3.6618	1.9072	24.79	-0.16	0.750			
0.6243	39954.17	3.6590	3.6588	1.7299	24.80	-0.15	0.750			
0.6292	40268.71	3.6560	3.6563	1.5968	24.81	-0.14	0.750			
0.6341	40580.13	3.6530	3.6532	1.5204	24.82	-0.13	0.750			
0.6383	40851.04	3.6500	3.6502	1.3907	24.82	-0.13	0.750			
0.6425	41119.81	3.6470	3.6469	1.3208	24.83	-0.12	0.750			
0.6461	41347.52	3.6440	3.6441	1.2102	24.83	-0.12	0.750			
0.6496	41573.66	3.6410	3.6408	1.1502	24.84	-0.11	0.750			
0.6529	41786.43	3.6380	3.6381	1.0698	24.85	-0.10	0.750			
0.6560	41983.73	3.6350	3.6351	1.0287	24.86	-0.09	0.750			
0.6590	42173.77	3.6320	3.6321	0.9830	24.86	-0.09	0.750			
0.6618	42356.44	3.6290	3.6283	0.9466	24.87	-0.08	0.750			
0.6646	42533.77	3.6260	3.6262	0.9144	24.88	-0.07	0.750			
0.6673	42709.27	3.6230	3.6230	0.8687	24.88	-0.07	0.750			
0.6699	42875.13	3.6200	3.6201	0.8404	24.89	-0.06	0.750			
0.6724	43030.64	3.6170	3.6171	0.7909	24.89	-0.06	0.750			
0.6747	43179.41	3.6140	3.6133	0.7495	24.90	-0.05	0.750			
0.6769	43319.95	3.6110	3.6112	0.7076	24.91	-0.04	0.750			
0.6789	43452.29	3.6080	3.6081	0.6563	24.92	-0.03	0.750			
0.6809	43578.82	3.6050	3.6050	0.6112	24.93	-0.02	0.750			
0.6826	43689.09	3.6020	3.6020	0.5492	24.93	-0.02	0.750			
0.6842	43789.78	3.5990	3.5990	0.4991	24.94	-0.01	0.750			
0.6856	43879.43	3.5960	3.5959	0.4485	24.94	-0.01	0.750			
0.6869	43961.25	3.5930	3.5929	0.4005	24.95	-0.00	0.750			
0.6880	44033.70	3.5900	3.5901	0.3516	24.95	0.00	0.750			
0.6890	44096.93	3.5870	3.5870	0.3042	24.96	0.01	0.750			
0.6899	44151.13	3.5840	3.5840	0.2554	24.96	0.01	0.750			
0.6906	44195.21	3.5810	3.5810	0.2053	24.96	0.01	0.750			
0.6911	44229.51	3.5780	3.5782	0.1568	24.97	0.02	0.750			
0.6915	44254.89	3.5750	3.5752	0.1096	24.97	0.02	0.750			
