Ah_balance (normalized)	Ah_balance (mAh)	Voltage - fit (V)	Voltage -  interpolate (V)	dQ/dV (1/V)	Temperature (°C)	Temperature - diff (°C)	Current (C)	R_DC 0ms (mOhm)	R_DC 50ms (mOhm)	R_DC 50 ms PEC (mOhm)
0.0477	3053.32	4.1980	4.1980	0.7223	25.51	0.53	0.750			
0.0499	3194.30	4.1950	4.1950	0.7403	25.51	0.53	0.750			
0.0521	3337.23	4.1920	4.1920	0.7382	25.51	0.53	0.750			
0.0543	3477.06	4.1890	4.1891	0.7401	25.51	0.53	0.750			
0.0565	3617.76	4.1860	4.1862	0.7479	25.51	0.53	0.750			
0.0588	3762.49	4.1830	4.1824	0.7583	25.51	0.53	0.750			
0.0611	3909.10	4.1800	4.1801	0.7614	25.51	0.53	0.750			
0.0634	4058.50	4.1770	4.1771	0.7581	25.51	0.53	0.750			
0.0657	4207.29	4.1740	4.1741	0.7660	25.51	0.53	0.750			
0.0680	4352.07	4.1710	4.1711	0.7519	25.51	0.53	0.750			
0.0702	4494.99	4.1680	4.1681	0.7568	25.51	0.53	0.750			
0.0725	4639.88	4.1650	4.1650	0.7596	25.51	0.53	0.750			
0.0748	4786.57	4.1620	4.1620	0.7603	25.51	0.53	0.750			
0.0771	4934.18	4.1590	4.1590	0.7651	25.51	0.53	0.750			
0.0795	5085.03	4.1560	4.1560	0.7714	25.52	0.54	0.750			
0.0817	5229.71	4.1530	4.1530	0.7630	25.52	0.54	0.750			
0.0840	5375.60	4.1500	4.1500	0.7658	25.52	0.54	0.750			
0.0863	5521.67	4.1470	4.1470	0.7647	25.52	0.54	0.750			
0.0886	5672.96	4.1440	4.1438	0.7517	25.52	0.54	0.750			
0.0908	5813.97	4.1410	4.1411	0.7629	25.53	0.55	0.750			
0.0931	5959.18	4.1380	4.1381	0.7659	25.53	0.55	0.750			
0.0954	6106.60	4.1350	4.1349	0.7697	25.53	0.55	0.750			
0.0977	6255.23	4.1320	4.1322	0.7733	25.53	0.55	0.750			
0.1001	6405.40	4.1290	4.1291	0.7704	25.53	0.55	0.750			
0.1024	6553.68	4.1260	4.1261	0.7787	25.53	0.55	0.750			
0.1047	6702.46	4.1230	4.1231	0.7725	25.53	0.55	0.750			
0.1071	6851.72	4.1200	4.1201	0.7802	25.53	0.55	0.750			
0.1094	7002.47	4.1170	4.1171	0.7808	25.53	0.55	0.750			
0.1118	7153.27	4.1140	4.1141	0.7852	25.53	0.55	0.750			
0.1141	7304.92	4.1110	4.1111	0.7871	25.53	0.55	0.750			
0.1165	7455.98	4.1080	4.1079	0.7884	25.53	0.55	0.750			
0.1188	7605.94	4.1050	4.1050	0.7851	25.53	0.55	0.750			
0.1212	7756.66	4.1020	4.1018	0.7896	25.53	0.55	0.750			
0.1236	7909.47	4.0990	4.0991	0.7954	25.53	0.55	0.750			
0.1260	8066.26	4.0960	4.0959	0.7850	25.53	0.55	0.750			
0.1284	8215.04	4.0930	4.0930	0.7899	25.54	0.56	0.750			
0.1307	8366.22	4.0900	4.0902	0.7922	25.54	0.56	0.750			
0.1331	8515.64	4.0870	4.0866	0.7965	25.54	0.56	0.750			
0.1355	8669.00	4.0840	4.0842	0.8034	25.54	0.56	0.750			
0.1379	8828.06	4.0810	4.0810	0.7893	25.54	0.56	0.750			
0.1403	8978.06	4.0780	4.0781	0.8000	25.55	0.57	0.750			
0.1427	9135.42	4.0750	4.0751	0.8147	25.55	0.57	0.750			
0.1451	9284.92	4.0720	4.0722	0.8035	25.55	0.57	0.750			
0.1475	9440.03	4.0690	4.0693	0.8083	25.55	0.57	0.750			
0.1499	9596.30	4.0660	4.0661	0.8098	25.55	0.57	0.750			
0.1524	9754.00	4.0630	4.0631	0.8182	25.55	0.57	0.750			
0.1549	9913.28	4.0600	4.0600	0.8226	25.55	0.57	0.750			
0.1573	10068.11	4.0570	4.0570	0.8182	25.55	0.57	0.750			
0.1598	10226.99	4.0540	4.0540	0.8241	25.55	0.57	0.750			
0.1624	10390.54	4.0510	4.0509	0.8123	25.55	0.57	0.750			
0.1647	10543.67	4.0480	4.0480	0.8177	25.56	0.58	0.750			
0.1672	10699.85	4.0450	4.0452	0.8233	25.56	0.58	0.750			
0.1696	10855.20	4.0420	4.0421	0.8282	25.56	0.58	0.750			
0.1721	11013.72	4.0390	4.0389	0.8330	25.56	0.58	0.750			
0.1746	11175.63	4.0360	4.0361	0.8371	25.56	0.58	0.750			
0.1772	11339.00	4.0330	4.0331	0.8349	25.56	0.58	0.750			
0.1797	11498.26	4.0300	4.0302	0.8436	25.57	0.59	0.750			
0.1821	11656.65	4.0270	4.0271	0.8426	25.57	0.59	0.750			
0.1847	11818.70	4.0240	4.0242	0.8451	25.57	0.59	0.750			
0.1872	11982.94	4.0210	4.0211	0.8515	25.57	0.59	0.750			
0.1898	12149.89	4.0180	4.0181	0.8631	25.57	0.59	0.750			
0.1925	12318.05	4.0150	4.0150	0.8664	25.57	0.59	0.750			
0.1950	12482.29	4.0120	4.0119	0.8562	25.57	0.59	0.750			
0.1976	12648.20	4.0090	4.0091	0.8572	25.57	0.59	0.750			
0.2002	12812.11	4.0060	4.0060	0.8582	25.57	0.59	0.750			
0.2027	12973.85	4.0030	4.0031	0.8521	25.57	0.59	0.750			
0.2052	13134.98	4.0000	4.0001	0.8564	25.57	0.59	0.750			
0.2078	13297.00	3.9970	3.9971	0.8631	25.57	0.59	0.750			
0.2104	13464.96	3.9940	3.9942	0.8736	25.57	0.59	0.750			
0.2131	13636.54	3.9910	3.9911	0.8747	25.58	0.60	0.750			
0.2157	13806.46	3.9880	3.9882	0.8808	25.58	0.60	0.750			
0.2184	13978.01	3.9850	3.9851	0.9085	25.59	0.61	0.750			
0.2210	14143.74	3.9820	3.9812	0.8915	25.59	0.61	0.750			
0.2237	14319.07	3.9790	3.9789	0.8857	25.59	0.61	0.750			
0.2264	14489.11	3.9760	3.9761	0.8913	25.59	0.61	0.750			
0.2291	14665.50	3.9730	3.9733	0.9008	25.59	0.61	0.750			
0.2319	14838.53	3.9700	3.9699	0.8953	25.59	0.61	0.750			
0.2344	15004.63	3.9670	3.9670	0.8844	25.59	0.61	0.750			
0.2371	15172.22	3.9640	3.9641	0.8857	25.59	0.61	0.750			
0.2397	15342.17	3.9610	3.9610	0.8814	25.59	0.61	0.750			
0.2424	15511.05	3.9580	3.9580	0.8863	25.59	0.61	0.750			
0.2450	15678.85	3.9550	3.9552	0.8849	25.59	0.61	0.750			
0.2477	15849.91	3.9520	3.9522	0.8946	25.59	0.61	0.750			
0.2504	16023.97	3.9490	3.9490	0.8925	25.59	0.61	0.750			
0.2531	16195.33	3.9460	3.9461	0.8983	25.59	0.61	0.750			
0.2558	16372.11	3.9430	3.9430	0.9125	25.59	0.61	0.750			
0.2585	16540.98	3.9400	3.9392	0.8977	25.59	0.61	0.750			
0.2612	16713.92	3.9370	3.9370	0.8951	25.59	0.61	0.750			
0.2638	16885.95	3.9340	3.9341	0.8990	25.59	0.61	0.750			
0.2666	17060.91	3.9310	3.9310	0.9016	25.59	0.61	0.750			
0.2693	17233.07	3.9280	3.9281	0.8979	25.59	0.61	0.750			
0.2720	17405.05	3.9250	3.9250	0.8940	25.59	0.61	0.750			
0.2747	17577.94	3.9220	3.9220	0.8879	25.58	0.60	0.750			
0.2773	17747.73	3.9190	3.9190	0.8905	25.58	0.60	0.750			
0.2800	17917.92	3.9160	3.9160	0.8929	25.58	0.60	0.750			
0.2826	18088.12	3.9130	3.9128	0.8928	25.57	0.59	0.750			
0.2853	18260.59	3.9100	3.9101	0.8969	25.57	0.59	0.750			
0.2880	18433.25	3.9070	3.9070	0.8938	25.57	0.59	0.750			
0.2907	18605.77	3.9040	3.9041	0.8975	25.57	0.59	0.750			
0.2934	18779.16	3.9010	3.9010	0.9008	25.57	0.59	0.750			
0.2961	18949.73	3.8980	3.8981	0.8957	25.57	0.59	0.750			
0.2988	19121.39	3.8950	3.8950	0.8945	25.56	0.58	0.750			
0.3015	19293.47	3.8920	3.8921	0.8994	25.56	0.58	0.750			
0.3042	19467.29	3.8890	3.8890	0.9061	25.55	0.57	0.750			
0.3069	19642.20	3.8860	3.8860	0.9030	25.54	0.56	0.750			
0.3096	19815.47	3.8830	3.8830	0.9029	25.54	0.56	0.750			
0.3124	19991.16	3.8800	3.8801	0.8934	25.53	0.55	0.750			
0.3150	20160.53	3.8770	3.8770	0.8966	25.52	0.54	0.750			
0.3177	20330.97	3.8740	3.8740	0.8965	25.52	0.54	0.750			
0.3203	20501.40	3.8710	3.8708	0.8964	25.51	0.53	0.750			
0.3230	20673.49	3.8680	3.8681	0.8998	25.51	0.53	0.750			
0.3258	20850.30	3.8650	3.8651	0.8928	25.50	0.52	0.750			
0.3284	21018.13	3.8620	3.8621	0.9013	25.49	0.51	0.750			
0.3311	21192.43	3.8590	3.8591	0.9104	25.49	0.51	0.750			
0.3338	21364.08	3.8560	3.8555	0.9110	25.48	0.50	0.750			
0.3365	21539.16	3.8530	3.8531	0.9181	25.47	0.49	0.750			
0.3394	21720.63	3.8500	3.8501	0.9115	25.47	0.49	0.750			
0.3422	21897.65	3.8470	3.8470	0.9288	25.46	0.48	0.750			
0.3449	22072.29	3.8440	3.8441	0.9326	25.45	0.47	0.750			
0.3477	22251.52	3.8410	3.8410	0.9441	25.44	0.46	0.750			
0.3505	22434.11	3.8380	3.8382	0.9373	25.43	0.45	0.750	0.290	0.442	
0.3533	22613.73	3.8350	3.8353	0.9471	25.42	0.44	0.750			
0.3562	22796.22	3.8320	3.8323	0.9616	25.41	0.43	0.750			
0.3591	22982.46	3.8290	3.8286	0.9703	25.40	0.42	0.750			
0.3620	23165.36	3.8260	3.8262	0.9550	25.39	0.41	0.750			
0.3648	23350.03	3.8230	3.8232	0.9735	25.38	0.40	0.750			
0.3678	23542.32	3.8200	3.8202	0.9884	25.38	0.40	0.750			
0.3708	23730.48	3.8170	3.8166	0.9868	25.37	0.39	0.750			
0.3738	23921.27	3.8140	3.8140	0.9944	25.36	0.38	0.750			
0.3768	24113.47	3.8110	3.8111	1.0059	25.35	0.37	0.750			
0.3798	24309.64	3.8080	3.8080	1.0208	25.33	0.35	0.750			
0.3829	24505.19	3.8050	3.8049	1.0242	25.32	0.34	0.750			
0.3860	24701.59	3.8020	3.8020	1.0302	25.31	0.33	0.750			
0.3891	24901.15	3.7990	3.7990	1.0471	25.31	0.33	0.750			
0.3922	25102.18	3.7960	3.7961	1.0612	25.30	0.32	0.750			
0.3955	25308.96	3.7930	3.7926	1.0795	25.29	0.31	0.750			
0.3987	25516.71	3.7900	3.7901	1.0838	25.28	0.30	0.750			
0.4019	25724.29	3.7870	3.7871	1.1002	25.28	0.30	0.750			
0.4052	25935.01	3.7840	3.7841	1.1231	25.27	0.29	0.750			
0.4087	26154.71	3.7810	3.7804	1.1377	25.26	0.28	0.750			
0.4120	26371.11	3.7780	3.7781	1.1585	25.25	0.27	0.750			
0.4156	26595.62	3.7750	3.7751	1.1876	25.23	0.25	0.750			
0.4192	26829.71	3.7720	3.7721	1.2153	25.22	0.24	0.750			
0.4229	27064.37	3.7690	3.7690	1.2111	25.20	0.22	0.750			
0.4265	27297.46	3.7660	3.7661	1.2425	25.19	0.21	0.750			
0.4303	27538.25	3.7630	3.7632	1.2692	25.18	0.20	0.750			
0.4341	27784.93	3.7600	3.7603	1.2866	25.17	0.19	0.750			
0.4379	28028.14	3.7570	3.7572	1.3069	25.16	0.18	0.750			
0.4419	28282.41	3.7540	3.7541	1.3420	25.14	0.16	0.750			
0.4460	28543.04	3.7510	3.7503	1.3906	25.13	0.15	0.750			
0.4502	28811.12	3.7480	3.7482	1.4188	25.12	0.14	0.750			
0.4545	29090.89	3.7450	3.7451	1.4613	25.11	0.13	0.750			
0.4592	29391.40	3.7420	3.7419	1.4594	25.10	0.12	0.750			
0.4636	29669.86	3.7390	3.7391	1.4601	25.08	0.10	0.750			
0.4679	29948.26	3.7360	3.7362	1.5039	25.07	0.09	0.750			
0.4724	30233.17	3.7330	3.7334	1.5834	25.06	0.08	0.750			
0.4771	30536.77	3.7300	3.7303	1.6452	25.04	0.06	0.750			
0.4823	30867.42	3.7270	3.7271	1.6944	25.02	0.04	0.750			
0.4875	31200.72	3.7240	3.7237	1.7726	25.01	0.03	0.750			
0.4931	31559.24	3.7210	3.7208	1.8092	24.99	0.01	0.750			
0.4986	31911.66	3.7180	3.7177	1.8339	24.97	-0.01	0.750			
0.5040	32258.13	3.7150	3.7149	1.8840	24.96	-0.02	0.750			
0.5098	32624.72	3.7120	3.7118	1.9542	24.95	-0.03	0.750			
0.5157	33007.55	3.7090	3.7085	2.0056	24.94	-0.04	0.750			
0.5219	33401.66	3.7060	3.7063	2.0761	24.93	-0.05	0.750			
0.5282	33803.13	3.7030	3.7031	2.1211	24.91	-0.07	0.750			
0.5347	34221.36	3.7000	3.7004	2.1248	24.90	-0.08	0.750			
0.5412	34634.42	3.6970	3.6972	2.2168	24.89	-0.09	0.750			
0.5480	35070.39	3.6940	3.6936	2.2400	24.88	-0.10	0.750			
0.5547	35500.86	3.6910	3.6909	2.4414	24.87	-0.11	0.750			
0.5622	35983.85	3.6880	3.6882	2.5929	24.86	-0.12	0.750			
0.5705	36511.65	3.6850	3.6854	2.6650	24.85	-0.13	0.750			
0.5787	37034.33	3.6820	3.6819	2.6361	24.84	-0.14	0.750			
0.5863	37524.33	3.6790	3.6786	2.5035	24.84	-0.14	0.750			
0.5937	37998.94	3.6760	3.6759	2.4747	24.83	-0.15	0.750			
0.6014	38487.92	3.6730	3.6728	2.4101	24.83	-0.15	0.750			
0.6085	38941.65	3.6700	3.6702	2.2855	24.83	-0.15	0.750			
0.6151	39368.79	3.6670	3.6667	2.1437	24.84	-0.14	0.750			
0.6214	39772.44	3.6640	3.6637	2.0381	24.84	-0.14	0.750			
0.6273	40145.10	3.6610	3.6609	1.8857	24.85	-0.13	0.750			
0.6328	40498.38	3.6580	3.6579	1.7730	24.86	-0.12	0.750			
0.6378	40820.80	3.6550	3.6552	1.6252	24.86	-0.12	0.750			
0.6425	41119.86	3.6520	3.6521	1.4918	24.87	-0.11	0.750			
0.6468	41396.67	3.6490	3.6490	1.3602	24.87	-0.11	0.750			
0.6507	41643.73	3.6460	3.6460	1.2750	24.88	-0.10	0.750			
0.6543	41872.01	3.6430	3.6430	1.1887	24.88	-0.10	0.750			
0.6577	42090.92	3.6400	3.6398	1.1298	24.89	-0.09	0.750			
0.6610	42301.31	3.6370	3.6370	1.0625	24.89	-0.09	0.750			
0.6640	42498.34	3.6340	3.6341	1.0274	24.90	-0.08	0.750			
0.6670	42690.29	3.6310	3.6311	0.9915	24.90	-0.08	0.750			
0.6699	42876.14	3.6280	3.6279	0.9533	24.91	-0.07	0.750			
0.6728	43057.40	3.6250	3.6251	0.9239	24.91	-0.07	0.750			
0.6755	43234.38	3.6220	3.6220	0.8856	24.92	-0.06	0.750			
0.6782	43402.59	3.6190	3.6191	0.8465	24.93	-0.05	0.750			
0.6807	43562.45	3.6160	3.6160	0.7984	24.93	-0.05	0.750			
0.6830	43711.90	3.6130	3.6128	0.7511	24.94	-0.04	0.750			
0.6852	43851.21	3.6100	3.6100	0.6979	24.95	-0.03	0.750			
0.6872	43980.33	3.6070	3.6071	0.6458	24.95	-0.03	0.750			
0.6891	44102.30	3.6040	3.6041	0.5994	24.96	-0.02	0.750			
0.6908	44213.03	3.6010	3.6010	0.5457	24.96	-0.02	0.750			
0.6923	44310.03	3.5980	3.5979	0.4872	24.97	-0.01	0.750			
0.6937	44397.51	3.5950	3.5950	0.4368	24.97	-0.01	0.750			
0.6949	44475.98	3.5920	3.5921	0.3887	24.98	-0.00	0.750			
0.6960	44546.10	3.5890	3.5887	0.3401	24.98	0.00	0.750			
0.6970	44606.83	3.5860	3.5860	0.2925	24.98	0.00	0.750			
0.6978	44657.77	3.5830	3.5831	0.2447	24.99	0.01	0.750			
0.6985	44701.73	3.5800	3.5801	0.1973	24.99	0.01	0.750			
0.6990	44736.25	3.5770	3.5771	0.1392	24.99	0.01	0.750			
0.6993	44757.66	3.5740	3.5742	0.0894	24.99	0.01	0.750			
