Ah_balance (normalized)	Ah_balance (mAh)	Voltage - fit (V)	Voltage -  interpolate (V)	dQ/dV (1/V)	Temperature (°C)	Temperature - diff (°C)	Current (C)	R_DC 0ms (mOhm)	R_DC 50ms (mOhm)	R_DC 50 ms PEC (mOhm)
0.0477	3052.47	4.1980	4.1980	0.7667	25.14	0.40	0.750			
0.0500	3199.58	4.1950	4.1950	0.7637	25.14	0.40	0.750			
0.0523	3345.20	4.1920	4.1920	0.7618	25.14	0.40	0.750			
0.0546	3491.63	4.1890	4.1890	0.7621	25.14	0.40	0.750			
0.0568	3637.61	4.1860	4.1859	0.7622	25.14	0.40	0.750			
0.0591	3783.92	4.1830	4.1831	0.7620	25.14	0.40	0.750			
0.0614	3930.64	4.1800	4.1800	0.7630	25.14	0.40	0.750			
0.0637	4077.89	4.1770	4.1770	0.7624	25.14	0.40	0.750			
0.0660	4223.82	4.1740	4.1740	0.7648	25.14	0.40	0.750			
0.0683	4368.34	4.1710	4.1710	0.7672	25.14	0.40	0.750			
0.0706	4516.48	4.1680	4.1679	0.7716	25.14	0.40	0.750			
0.0729	4665.31	4.1650	4.1650	0.7746	25.14	0.40	0.750			
0.0753	4816.57	4.1620	4.1620	0.7687	25.14	0.40	0.750			
0.0776	4965.45	4.1590	4.1590	0.7700	25.14	0.40	0.750			
0.0799	5111.80	4.1560	4.1561	0.7675	25.14	0.40	0.750			
0.0822	5258.39	4.1530	4.1530	0.7674	25.14	0.40	0.750			
0.0844	5403.70	4.1500	4.1501	0.7662	25.14	0.40	0.750			
0.0867	5551.25	4.1470	4.1471	0.7725	25.14	0.40	0.750			
0.0891	5700.61	4.1440	4.1440	0.7759	25.14	0.40	0.750			
0.0914	5850.69	4.1410	4.1409	0.7807	25.13	0.39	0.750			
0.0937	5999.10	4.1380	4.1381	0.7817	25.13	0.39	0.750			
0.0961	6150.52	4.1350	4.1351	0.7851	25.13	0.39	0.750			
0.0985	6302.63	4.1320	4.1320	0.7882	25.13	0.39	0.750			
0.1009	6455.18	4.1290	4.1290	0.7850	25.13	0.39	0.750			
0.1032	6605.10	4.1260	4.1261	0.7854	25.14	0.40	0.750			
0.1055	6754.94	4.1230	4.1230	0.7852	25.14	0.40	0.750			
0.1079	6905.65	4.1200	4.1198	0.7859	25.14	0.40	0.750			
0.1102	7055.57	4.1170	4.1170	0.7860	25.14	0.40	0.750			
0.1127	7212.42	4.1140	4.1140	0.7752	25.14	0.40	0.750			
0.1150	7359.48	4.1110	4.1110	0.7814	25.14	0.40	0.750			
0.1173	7506.35	4.1080	4.1081	0.7809	25.14	0.40	0.750			
0.1196	7655.76	4.1050	4.1052	0.7888	25.14	0.40	0.750			
0.1220	7806.09	4.1020	4.1019	0.7924	25.14	0.40	0.750			
0.1244	7961.10	4.0990	4.0992	0.7963	25.14	0.40	0.750			
0.1268	8115.90	4.0960	4.0962	0.8065	25.14	0.40	0.750			
0.1293	8273.70	4.0930	4.0930	0.8114	25.14	0.40	0.750			
0.1317	8427.13	4.0900	4.0901	0.8107	25.14	0.40	0.750			
0.1341	8582.15	4.0870	4.0870	0.8165	25.14	0.40	0.750			
0.1366	8742.43	4.0840	4.0839	0.8167	25.14	0.40	0.750			
0.1391	8901.17	4.0810	4.0810	0.8223	25.14	0.40	0.750			
0.1415	9058.52	4.0780	4.0781	0.8243	25.14	0.40	0.750			
0.1440	9215.99	4.0750	4.0751	0.8245	25.14	0.40	0.750			
0.1465	9374.26	4.0720	4.0718	0.8272	25.14	0.40	0.750			
0.1489	9532.20	4.0690	4.0690	0.8284	25.14	0.40	0.750			
0.1515	9692.87	4.0660	4.0661	0.8230	25.14	0.40	0.750			
0.1539	9849.69	4.0630	4.0631	0.8297	25.14	0.40	0.750			
0.1564	10007.18	4.0600	4.0602	0.8338	25.14	0.40	0.750			
0.1589	10167.77	4.0570	4.0567	0.8425	25.14	0.40	0.750			
0.1614	10330.82	4.0540	4.0541	0.8398	25.14	0.40	0.750			
0.1640	10493.31	4.0510	4.0511	0.8462	25.14	0.40	0.750			
0.1666	10659.77	4.0480	4.0481	0.8525	25.14	0.40	0.750			
0.1691	10825.28	4.0450	4.0449	0.8596	25.14	0.40	0.750			
0.1716	10982.48	4.0420	4.0420	0.8474	25.14	0.40	0.750			
0.1742	11147.74	4.0390	4.0390	0.8442	25.15	0.41	0.750			
0.1767	11309.86	4.0360	4.0360	0.8494	25.15	0.41	0.750			
0.1793	11473.55	4.0330	4.0331	0.8537	25.16	0.42	0.750			
0.1818	11636.52	4.0300	4.0300	0.8494	25.17	0.43	0.750			
0.1844	11799.51	4.0270	4.0269	0.8490	25.17	0.43	0.750			
0.1869	11964.54	4.0240	4.0241	0.8421	25.17	0.43	0.750			
0.1894	12123.72	4.0210	4.0210	0.8526	25.17	0.43	0.750			
0.1920	12287.20	4.0180	4.0181	0.8622	25.17	0.43	0.750			
0.1946	12451.65	4.0150	4.0150	0.8646	25.17	0.43	0.750			
0.1972	12618.32	4.0120	4.0121	0.8738	25.17	0.43	0.750			
0.1998	12790.12	4.0090	4.0091	0.8777	25.17	0.43	0.750			
0.2025	12959.81	4.0060	4.0061	0.8860	25.17	0.43	0.750			
0.2052	13132.02	4.0030	4.0030	0.8816	25.17	0.43	0.750			
0.2078	13297.88	4.0000	3.9999	0.8752	25.17	0.43	0.750			
0.2104	13465.49	3.9970	3.9971	0.8771	25.17	0.43	0.750			
0.2130	13634.41	3.9940	3.9941	0.8767	25.18	0.44	0.750			
0.2157	13801.70	3.9910	3.9910	0.8820	25.18	0.44	0.750			
0.2183	13970.76	3.9880	3.9881	0.8864	25.19	0.45	0.750			
0.2210	14141.06	3.9850	3.9846	0.8965	25.19	0.45	0.750			
0.2237	14318.20	3.9820	3.9820	0.8969	25.19	0.45	0.750			
0.2264	14488.46	3.9790	3.9791	0.8989	25.19	0.45	0.750			
0.2291	14662.56	3.9760	3.9760	0.9068	25.20	0.46	0.750			
0.2318	14833.29	3.9730	3.9731	0.8877	25.20	0.46	0.750			
0.2344	14999.08	3.9700	3.9703	0.8927	25.20	0.46	0.750			
0.2371	15171.41	3.9670	3.9673	0.9020	25.20	0.46	0.750			
0.2398	15344.86	3.9640	3.9643	0.9129	25.20	0.46	0.750			
0.2426	15524.32	3.9610	3.9613	0.9265	25.20	0.46	0.750			
0.2454	15703.29	3.9580	3.9580	0.9312	25.20	0.46	0.750			
0.2483	15890.06	3.9550	3.9549	0.9361	25.20	0.46	0.750			
0.2510	16064.89	3.9520	3.9520	0.9163	25.21	0.47	0.750			
0.2538	16240.04	3.9490	3.9491	0.9200	25.21	0.47	0.750			
0.2565	16417.49	3.9460	3.9460	0.9273	25.22	0.48	0.750			
0.2593	16594.45	3.9430	3.9430	0.9273	25.22	0.48	0.750			
0.2621	16777.53	3.9400	3.9399	0.9059	25.23	0.49	0.750			
0.2648	16950.14	3.9370	3.9371	0.9171	25.23	0.49	0.750			
0.2676	17123.79	3.9340	3.9342	0.9282	25.23	0.49	0.750			
0.2703	17300.06	3.9310	3.9309	0.9306	25.24	0.50	0.750			
0.2731	17481.33	3.9280	3.9281	0.9275	25.24	0.50	0.750			
0.2759	17658.86	3.9250	3.9251	0.9357	25.24	0.50	0.750			
0.2788	17841.65	3.9220	3.9222	0.9440	25.25	0.51	0.750			
0.2817	18028.91	3.9190	3.9190	0.9537	25.25	0.51	0.750			
0.2845	18204.91	3.9160	3.9160	0.9389	25.25	0.51	0.750			
0.2873	18385.04	3.9130	3.9131	0.9436	25.25	0.51	0.750			
0.2901	18566.40	3.9100	3.9100	0.9516	25.25	0.51	0.750			
0.2930	18751.22	3.9070	3.9070	0.9546	25.25	0.51	0.750			
0.2959	18936.82	3.9040	3.9036	0.9382	25.25	0.51	0.750			
0.2988	19122.47	3.9010	3.9010	0.9303	25.25	0.51	0.750			
0.3015	19296.31	3.8980	3.8981	0.9379	25.25	0.51	0.750			
0.3042	19471.05	3.8950	3.8952	0.9459	25.26	0.52	0.750			
0.3071	19652.86	3.8920	3.8923	0.9555	25.26	0.52	0.750			
0.3100	19838.33	3.8890	3.8893	0.9528	25.26	0.52	0.750			
0.3129	20022.57	3.8860	3.8862	0.9700	25.26	0.52	0.750			
0.3159	20215.55	3.8830	3.8831	0.9870	25.27	0.53	0.750			
0.3188	20402.95	3.8800	3.8800	0.9836	25.27	0.53	0.750			
0.3217	20589.87	3.8770	3.8769	0.9819	25.27	0.53	0.750			
0.3247	20780.39	3.8740	3.8741	0.9753	25.27	0.53	0.750			
0.3276	20968.53	3.8710	3.8711	0.9831	25.26	0.52	0.750			
0.3306	21157.20	3.8680	3.8681	0.9854	25.26	0.52	0.750			
0.3335	21344.73	3.8650	3.8646	0.9790	25.26	0.52	0.750			
0.3364	21532.72	3.8620	3.8621	0.9836	25.26	0.52	0.750			
0.3394	21718.54	3.8590	3.8591	0.9798	25.26	0.52	0.750			
0.3423	21905.24	3.8560	3.8562	0.9909	25.25	0.51	0.750			
0.3452	22095.45	3.8530	3.8528	0.9955	25.25	0.51	0.750			
0.3483	22288.24	3.8500	3.8503	1.0018	25.24	0.50	0.750			
0.3513	22483.70	3.8470	3.8472	1.0108	25.24	0.50	0.750			
0.3544	22681.11	3.8440	3.8440	1.0183	25.23	0.49	0.750			
0.3577	22890.29	3.8410	3.8408	1.0075	25.22	0.48	0.750			
0.3605	23070.10	3.8380	3.8381	0.9897	25.22	0.48	0.750			
0.3634	23255.12	3.8350	3.8351	1.0173	25.21	0.47	0.750			
0.3664	23451.65	3.8320	3.8314	1.0378	25.21	0.47	0.750	0.305	0.407	
0.3696	23652.10	3.8290	3.8293	1.0459	25.20	0.46	0.750			
0.3728	23858.76	3.8260	3.8263	1.0516	25.20	0.46	0.750			
0.3761	24067.45	3.8230	3.8231	1.0670	25.19	0.45	0.750			
0.3794	24280.15	3.8200	3.8200	1.0739	25.18	0.44	0.750			
0.3824	24472.10	3.8170	3.8172	1.0452	25.17	0.43	0.750			
0.3856	24676.38	3.8140	3.8140	1.0364	25.16	0.42	0.750			
0.3886	24872.82	3.8110	3.8111	1.0544	25.15	0.41	0.750			
0.3918	25076.95	3.8080	3.8082	1.0646	25.14	0.40	0.750			
0.3951	25284.61	3.8050	3.8047	1.0806	25.13	0.39	0.750			
0.3983	25489.09	3.8020	3.8022	1.0750	25.13	0.39	0.750			
0.4015	25696.01	3.7990	3.7991	1.0876	25.12	0.38	0.750			
0.4048	25905.74	3.7960	3.7960	1.1041	25.12	0.38	0.750			
0.4081	26121.49	3.7930	3.7927	1.1241	25.11	0.37	0.750			
0.4115	26335.37	3.7900	3.7899	1.1063	25.10	0.36	0.750			
0.4148	26545.57	3.7870	3.7871	1.1313	25.09	0.35	0.750			
0.4182	26762.36	3.7840	3.7842	1.1499	25.08	0.34	0.750			
0.4216	26983.36	3.7810	3.7809	1.1697	25.07	0.33	0.750			
0.4251	27208.47	3.7780	3.7782	1.1961	25.06	0.32	0.750			
0.4288	27443.17	3.7750	3.7751	1.2236	25.05	0.31	0.750			
0.4326	27688.13	3.7720	3.7717	1.2491	25.04	0.30	0.750			
0.4364	27927.76	3.7690	3.7691	1.2562	25.03	0.29	0.750			
0.4402	28170.62	3.7660	3.7661	1.2813	25.02	0.28	0.750			
0.4441	28419.92	3.7630	3.7629	1.3080	25.01	0.27	0.750			
0.4480	28671.26	3.7600	3.7600	1.3145	25.00	0.26	0.750			
0.4518	28917.16	3.7570	3.7572	1.3463	25.00	0.26	0.750			
0.4560	29182.11	3.7540	3.7541	1.3745	24.99	0.25	0.750			
0.4603	29456.06	3.7510	3.7511	1.3929	24.97	0.23	0.750			
0.4645	29729.12	3.7480	3.7481	1.3960	24.96	0.22	0.750			
0.4688	30002.25	3.7450	3.7452	1.4345	24.95	0.21	0.750			
0.4732	30284.54	3.7420	3.7419	1.4562	24.93	0.19	0.750			
0.4774	30551.37	3.7390	3.7393	1.5172	24.92	0.18	0.750			
0.4821	30853.49	3.7360	3.7363	1.5624	24.90	0.16	0.750			
0.4870	31166.95	3.7330	3.7326	1.6196	24.89	0.15	0.750			
0.4921	31491.23	3.7300	3.7296	1.6856	24.87	0.13	0.750			
0.4971	31816.63	3.7270	3.7275	1.7203	24.86	0.12	0.750			
0.5025	32158.23	3.7240	3.7242	1.8002	24.85	0.11	0.750			
0.5080	32511.41	3.7210	3.7208	1.8626	24.84	0.10	0.750			
0.5135	32865.43	3.7180	3.7183	1.8898	24.82	0.08	0.750			
0.5195	33247.43	3.7150	3.7151	1.9578	24.80	0.06	0.750			
0.5252	33614.02	3.7120	3.7113	1.9817	24.79	0.05	0.750			
0.5314	34006.55	3.7090	3.7090	2.0428	24.78	0.04	0.750			
0.5374	34394.74	3.7060	3.7064	2.1211	24.77	0.03	0.750			
0.5438	34801.97	3.7030	3.7035	2.2317	24.75	0.01	0.750			
0.5507	35244.72	3.7000	3.7003	2.2996	24.73	-0.01	0.750			
0.5576	35686.52	3.6970	3.6972	2.3590	24.72	-0.02	0.750			
0.5648	36145.29	3.6940	3.6939	2.3522	24.70	-0.04	0.750			
0.5719	36599.60	3.6910	3.6909	2.3698	24.69	-0.05	0.750			
0.5792	37069.08	3.6880	3.6881	2.4895	24.67	-0.07	0.750			
0.5862	37519.54	3.6850	3.6854	2.6024	24.66	-0.08	0.750			
0.5943	38037.85	3.6820	3.6820	2.7512	24.64	-0.10	0.750			
0.6023	38546.89	3.6790	3.6786	2.6900	24.64	-0.10	0.750			
0.6108	39093.52	3.6760	3.6764	2.8323	24.64	-0.10	0.750			
0.6189	39608.26	3.6730	3.6728	2.7573	24.62	-0.12	0.750			
0.6274	40156.07	3.6700	3.6693	3.0598	24.61	-0.13	0.750			
0.6364	40727.17	3.6670	3.6667	2.8883	24.61	-0.13	0.750			
0.6450	41279.81	3.6640	3.6640	2.8481	24.60	-0.14	0.750			
0.6530	41789.99	3.6610	3.6615	2.5631	24.61	-0.13	0.750			
0.6606	42277.68	3.6580	3.6574	2.4902	24.61	-0.13	0.750			
0.6673	42705.41	3.6550	3.6555	2.1222	24.62	-0.12	0.750			
0.6732	43083.88	3.6520	3.6524	1.9464	24.62	-0.12	0.750			
0.6788	43445.58	3.6490	3.6485	1.8118	24.63	-0.11	0.750			
0.6840	43773.09	3.6460	3.6454	1.6309	24.64	-0.10	0.750			
0.6884	44055.38	3.6430	3.6434	1.4537	24.64	-0.10	0.750			
0.6927	44329.61	3.6400	3.6401	1.3105	24.64	-0.10	0.750			
0.6961	44551.44	3.6370	3.6367	1.1624	24.64	-0.10	0.750			
0.6993	44756.20	3.6340	3.6341	1.0360	24.65	-0.09	0.750			
0.7022	44941.58	3.6310	3.6311	0.9842	24.65	-0.09	0.750			
0.7050	45118.52	3.6280	3.6282	0.9464	24.65	-0.09	0.750			
0.7077	45295.21	3.6250	3.6249	0.9152	24.66	-0.08	0.750			
0.7106	45475.49	3.6220	3.6220	0.8842	24.67	-0.07	0.750			
0.7132	45646.16	3.6190	3.6189	0.8558	24.68	-0.06	0.750			
0.7156	45800.94	3.6160	3.6162	0.8238	24.68	-0.06	0.750			
0.7181	45961.54	3.6130	3.6132	0.7835	24.69	-0.05	0.750			
0.7204	46106.78	3.6100	3.6100	0.7268	24.70	-0.04	0.750			
0.7225	46241.46	3.6070	3.6076	0.6760	24.71	-0.03	0.750			
0.7245	46369.67	3.6040	3.6045	0.6155	24.71	-0.03	0.750			
0.7263	46483.81	3.6010	3.6014	0.5540	24.72	-0.02	0.750			
0.7279	46587.26	3.5980	3.5981	0.4741	24.72	-0.02	0.750			
0.7291	46664.11	3.5950	3.5953	0.3991	24.73	-0.01	0.750			
0.7302	46734.90	3.5920	3.5925	0.3449	24.73	-0.01	0.750			
0.7312	46795.39	3.5890	3.5891	0.2855	24.73	-0.01	0.750			
0.7319	46841.98	3.5860	3.5847	0.2277	24.74	-0.00	0.750			
0.7325	46881.80	3.5830	3.5839	0.1811	24.74	-0.00	0.750			
0.7330	46910.26	3.5800	3.5813	0.1388	24.74	-0.00	0.750			
0.7334	46937.53	3.5770	3.5767	0.0067	24.74	0.00	0.750			
