Ah_balance (normalized)	Ah_balance (mAh)	Voltage - fit (V)	Voltage -  interpolate (V)	dQ/dV (1/V)	Temperature (°C)	Temperature - diff (°C)	Current (C)	R_DC 0ms (mOhm)	R_DC 50ms (mOhm)	R_DC 50 ms PEC (mOhm)
0.0475	3037.43	4.1980	4.1980	0.7332	25.46	0.68	0.750			
0.0497	3178.13	4.1950	4.1950	0.7350	25.46	0.68	0.750			
0.0519	3321.10	4.1920	4.1919	0.7473	25.46	0.68	0.750			
0.0542	3466.60	4.1890	4.1889	0.7516	25.46	0.68	0.750			
0.0564	3611.56	4.1860	4.1860	0.7557	25.46	0.68	0.750			
0.0587	3756.53	4.1830	4.1831	0.7580	25.46	0.68	0.750			
0.0610	3902.77	4.1800	4.1799	0.7500	25.46	0.68	0.750			
0.0632	4045.48	4.1770	4.1771	0.7527	25.46	0.68	0.750			
0.0654	4186.61	4.1740	4.1742	0.7557	25.46	0.68	0.750			
0.0677	4331.85	4.1710	4.1707	0.7647	25.46	0.68	0.750			
0.0700	4481.02	4.1680	4.1681	0.7711	25.46	0.68	0.750			
0.0724	4630.76	4.1650	4.1651	0.7669	25.46	0.68	0.750			
0.0747	4781.37	4.1620	4.1620	0.7739	25.47	0.69	0.750			
0.0771	4932.36	4.1590	4.1590	0.7803	25.47	0.69	0.750			
0.0793	5074.91	4.1560	4.1556	0.7652	25.47	0.69	0.750			
0.0816	5221.26	4.1530	4.1531	0.7683	25.47	0.69	0.750			
0.0839	5369.15	4.1500	4.1501	0.7676	25.46	0.68	0.750			
0.0862	5517.09	4.1470	4.1470	0.7726	25.46	0.68	0.750			
0.0886	5667.86	4.1440	4.1440	0.7782	25.46	0.68	0.750			
0.0909	5815.27	4.1410	4.1411	0.7751	25.45	0.67	0.750			
0.0932	5964.44	4.1380	4.1381	0.7769	25.45	0.67	0.750			
0.0955	6114.29	4.1350	4.1350	0.7788	25.46	0.68	0.750			
0.0979	6263.91	4.1320	4.1320	0.7715	25.46	0.68	0.750			
0.1002	6411.36	4.1290	4.1290	0.7738	25.46	0.68	0.750			
0.1025	6557.58	4.1260	4.1261	0.7749	25.47	0.69	0.750			
0.1048	6706.39	4.1230	4.1221	0.7796	25.47	0.69	0.750			
0.1071	6856.67	4.1200	4.1201	0.7819	25.47	0.69	0.750			
0.1095	7009.22	4.1170	4.1171	0.7797	25.47	0.69	0.750			
0.1119	7159.17	4.1140	4.1141	0.7854	25.47	0.69	0.750			
0.1143	7312.23	4.1110	4.1110	0.7933	25.47	0.69	0.750			
0.1166	7459.91	4.1080	4.1078	0.7884	25.47	0.69	0.750			
0.1189	7612.12	4.1050	4.1051	0.7933	25.47	0.69	0.750			
0.1214	7766.82	4.1020	4.1020	0.7935	25.47	0.69	0.750			
0.1238	7920.25	4.0990	4.0990	0.7937	25.47	0.69	0.750			
0.1262	8074.41	4.0960	4.0960	0.7989	25.47	0.69	0.750			
0.1285	8224.90	4.0930	4.0931	0.7932	25.47	0.69	0.750			
0.1309	8376.56	4.0900	4.0899	0.7939	25.47	0.69	0.750			
0.1333	8528.53	4.0870	4.0871	0.7937	25.47	0.69	0.750			
0.1357	8682.54	4.0840	4.0840	0.7837	25.47	0.69	0.750			
0.1380	8831.06	4.0810	4.0811	0.7971	25.47	0.69	0.750			
0.1403	8981.63	4.0780	4.0781	0.8012	25.47	0.69	0.750			
0.1427	9135.11	4.0750	4.0745	0.8112	25.47	0.69	0.750			
0.1452	9291.98	4.0720	4.0722	0.8209	25.47	0.69	0.750			
0.1477	9452.45	4.0690	4.0691	0.8160	25.47	0.69	0.750			
0.1502	9613.54	4.0660	4.0660	0.8224	25.47	0.69	0.750			
0.1526	9767.65	4.0630	4.0632	0.8143	25.47	0.69	0.750			
0.1551	9923.74	4.0600	4.0597	0.8185	25.47	0.69	0.750			
0.1575	10081.40	4.0570	4.0570	0.8201	25.47	0.69	0.750			
0.1600	10239.10	4.0540	4.0540	0.8262	25.47	0.69	0.750			
0.1625	10400.84	4.0510	4.0510	0.8315	25.48	0.70	0.750			
0.1650	10560.04	4.0480	4.0481	0.8283	25.48	0.70	0.750			
0.1675	10719.98	4.0450	4.0449	0.8312	25.48	0.70	0.750			
0.1700	10878.76	4.0420	4.0420	0.8331	25.48	0.70	0.750			
0.1725	11040.53	4.0390	4.0389	0.8242	25.48	0.70	0.750			
0.1749	11195.46	4.0360	4.0361	0.8327	25.48	0.70	0.750			
0.1774	11353.79	4.0330	4.0331	0.8388	25.48	0.70	0.750			
0.1799	11516.14	4.0300	4.0293	0.8490	25.48	0.70	0.750			
0.1825	11680.26	4.0270	4.0271	0.8508	25.48	0.70	0.750			
0.1851	11845.20	4.0240	4.0241	0.8466	25.48	0.70	0.750			
0.1876	12008.91	4.0210	4.0212	0.8553	25.49	0.71	0.750			
0.1902	12170.93	4.0180	4.0181	0.8457	25.49	0.71	0.750			
0.1927	12333.94	4.0150	4.0150	0.8517	25.49	0.71	0.750			
0.1953	12497.68	4.0120	4.0121	0.8563	25.49	0.71	0.750			
0.1979	12663.45	4.0090	4.0091	0.8645	25.50	0.72	0.750			
0.2005	12834.43	4.0060	4.0059	0.8735	25.50	0.72	0.750			
0.2031	13000.22	4.0030	4.0032	0.8668	25.51	0.73	0.750			
0.2057	13167.62	4.0000	4.0000	0.8691	25.51	0.73	0.750			
0.2084	13335.04	3.9970	3.9970	0.8714	25.51	0.73	0.750			
0.2109	13499.90	3.9940	3.9941	0.8629	25.51	0.73	0.750			
0.2135	13662.86	3.9910	3.9911	0.8665	25.51	0.73	0.750			
0.2161	13829.01	3.9880	3.9881	0.8719	25.51	0.73	0.750			
0.2187	13996.26	3.9850	3.9852	0.8771	25.51	0.73	0.750			
0.2213	14166.02	3.9820	3.9821	0.8820	25.51	0.73	0.750			
0.2240	14338.50	3.9790	3.9791	0.8897	25.51	0.73	0.750			
0.2268	14512.34	3.9760	3.9761	0.8994	25.51	0.73	0.750			
0.2294	14680.84	3.9730	3.9726	0.8891	25.51	0.73	0.750			
0.2321	14852.43	3.9700	3.9700	0.8922	25.51	0.73	0.750			
0.2348	15025.00	3.9670	3.9670	0.8964	25.51	0.73	0.750			
0.2375	15198.25	3.9640	3.9640	0.8996	25.52	0.74	0.750			
0.2402	15371.56	3.9610	3.9610	0.8998	25.52	0.74	0.750			
0.2429	15543.95	3.9580	3.9580	0.8976	25.52	0.74	0.750			
0.2455	15715.19	3.9550	3.9550	0.8979	25.52	0.74	0.750			
0.2482	15885.33	3.9520	3.9521	0.8884	25.52	0.74	0.750			
0.2508	16053.71	3.9490	3.9491	0.8911	25.51	0.73	0.750			
0.2535	16223.17	3.9460	3.9461	0.8998	25.51	0.73	0.750			
0.2562	16395.63	3.9430	3.9432	0.9024	25.51	0.73	0.750			
0.2589	16572.63	3.9400	3.9400	0.8871	25.51	0.73	0.750			
0.2616	16743.44	3.9370	3.9372	0.9078	25.52	0.74	0.750			
0.2644	16920.05	3.9340	3.9341	0.9183	25.52	0.74	0.750			
0.2671	17092.80	3.9310	3.9303	0.9108	25.52	0.74	0.750			
0.2698	17269.09	3.9280	3.9281	0.9111	25.52	0.74	0.750			
0.2726	17445.66	3.9250	3.9252	0.9142	25.52	0.74	0.750			
0.2754	17623.57	3.9220	3.9221	0.9212	25.51	0.73	0.750			
0.2781	17800.85	3.9190	3.9190	0.9118	25.51	0.73	0.750			
0.2809	17976.55	3.9160	3.9159	0.9138	25.51	0.73	0.750			
0.2837	18154.47	3.9130	3.9130	0.9026	25.50	0.72	0.750			
0.2864	18326.41	3.9100	3.9100	0.9072	25.50	0.72	0.750			
0.2891	18501.20	3.9070	3.9071	0.9140	25.50	0.72	0.750			
0.2918	18674.45	3.9040	3.9037	0.9103	25.49	0.71	0.750			
0.2946	18852.35	3.9010	3.9011	0.8989	25.49	0.71	0.750			
0.2972	19023.22	3.8980	3.8981	0.9086	25.48	0.70	0.750			
0.3000	19197.89	3.8950	3.8951	0.9169	25.48	0.70	0.750			
0.3028	19376.69	3.8920	3.8921	0.9261	25.47	0.69	0.750			
0.3055	19550.25	3.8890	3.8887	0.9205	25.47	0.69	0.750			
0.3082	19727.84	3.8860	3.8861	0.9229	25.46	0.68	0.750			
0.3111	19908.12	3.8830	3.8831	0.9301	25.46	0.68	0.750			
0.3139	20088.35	3.8800	3.8800	0.9341	25.46	0.68	0.750			
0.3167	20265.70	3.8770	3.8769	0.9263	25.45	0.67	0.750			
0.3194	20444.41	3.8740	3.8741	0.9304	25.44	0.66	0.750			
0.3223	20625.90	3.8710	3.8710	0.9157	25.43	0.65	0.750			
0.3250	20797.40	3.8680	3.8682	0.9187	25.42	0.64	0.750			
0.3277	20972.61	3.8650	3.8652	0.9222	25.41	0.63	0.750			
0.3304	21148.61	3.8620	3.8622	0.9262	25.40	0.62	0.750			
0.3332	21324.92	3.8590	3.8591	0.9322	25.39	0.61	0.750			
0.3360	21502.27	3.8560	3.8562	0.9276	25.38	0.60	0.750			
0.3388	21683.43	3.8530	3.8532	0.9377	25.38	0.60	0.750			
0.3416	21862.89	3.8500	3.8498	0.9348	25.37	0.59	0.750			
0.3445	22046.83	3.8470	3.8471	0.9202	25.36	0.58	0.750			
0.3472	22221.23	3.8440	3.8443	0.9396	25.35	0.57	0.750			
0.3500	22402.46	3.8410	3.8412	0.9525	25.34	0.56	0.750			
0.3530	22589.88	3.8380	3.8380	0.9783	25.33	0.55	0.750	0.353	0.470	
0.3558	22769.92	3.8350	3.8352	0.9744	25.32	0.54	0.750			
0.3587	22959.19	3.8320	3.8322	0.9785	25.31	0.53	0.750			
0.3617	23149.00	3.8290	3.8290	0.9918	25.30	0.52	0.750			
0.3647	23343.51	3.8260	3.8262	0.9978	25.29	0.51	0.750			
0.3677	23533.46	3.8230	3.8227	0.9927	25.28	0.50	0.750			
0.3707	23726.19	3.8200	3.8201	0.9944	25.26	0.48	0.750			
0.3737	23916.88	3.8170	3.8171	0.9983	25.25	0.47	0.750			
0.3767	24108.83	3.8140	3.8140	1.0086	25.23	0.45	0.750			
0.3797	24300.37	3.8110	3.8104	1.0101	25.22	0.44	0.750			
0.3828	24496.03	3.8080	3.8080	1.0189	25.21	0.43	0.750			
0.3858	24693.59	3.8050	3.8051	1.0315	25.20	0.42	0.750			
0.3889	24892.53	3.8020	3.8020	1.0443	25.19	0.41	0.750			
0.3921	25095.24	3.7990	3.7987	1.0592	25.18	0.40	0.750			
0.3953	25297.51	3.7960	3.7960	1.0510	25.17	0.39	0.750			
0.3984	25496.11	3.7930	3.7931	1.0749	25.16	0.38	0.750			
0.4016	25702.72	3.7900	3.7902	1.0978	25.14	0.36	0.750			
0.4049	25915.77	3.7870	3.7862	1.1163	25.13	0.35	0.750			
0.4083	26132.84	3.7840	3.7842	1.1266	25.12	0.34	0.750			
0.4117	26349.36	3.7810	3.7812	1.1547	25.10	0.32	0.750			
0.4152	26574.82	3.7780	3.7781	1.1833	25.09	0.31	0.750			
0.4188	26801.84	3.7750	3.7751	1.1832	25.07	0.29	0.750			
0.4224	27032.38	3.7720	3.7721	1.2096	25.06	0.28	0.750			
0.4261	27268.78	3.7690	3.7691	1.2386	25.05	0.27	0.750			
0.4298	27510.34	3.7660	3.7659	1.2664	25.04	0.26	0.750			
0.4336	27749.04	3.7630	3.7630	1.2660	25.03	0.25	0.750			
0.4375	27998.02	3.7600	3.7601	1.2654	25.02	0.24	0.750			
0.4413	28243.35	3.7570	3.7568	1.3002	25.00	0.22	0.750			
0.4453	28496.62	3.7540	3.7542	1.3226	24.99	0.21	0.750			
0.4492	28746.80	3.7510	3.7510	1.3907	24.97	0.19	0.750			
0.4534	29018.74	3.7480	3.7484	1.4368	24.95	0.17	0.750			
0.4580	29312.27	3.7450	3.7446	1.4832	24.93	0.15	0.750			
0.4623	29588.54	3.7420	3.7424	1.5112	24.92	0.14	0.750			
0.4672	29898.16	3.7390	3.7388	1.5268	24.90	0.12	0.750			
0.4718	30193.46	3.7360	3.7361	1.5446	24.89	0.11	0.750			
0.4764	30488.78	3.7330	3.7329	1.5761	24.87	0.09	0.750			
0.4810	30785.38	3.7300	3.7303	1.6015	24.86	0.08	0.750			
0.4858	31091.22	3.7270	3.7275	1.6837	24.84	0.06	0.750			
0.4910	31426.54	3.7240	3.7242	1.7301	24.82	0.04	0.750			
0.4964	31771.88	3.7210	3.7214	1.8257	24.81	0.03	0.750			
0.5019	32120.51	3.7180	3.7185	1.8789	24.79	0.01	0.750			
0.5076	32488.46	3.7150	3.7146	1.8422	24.77	-0.01	0.750			
0.5133	32849.25	3.7120	3.7118	1.9022	24.75	-0.03	0.750			
0.5191	33219.25	3.7090	3.7089	1.9531	24.73	-0.05	0.750			
0.5250	33601.12	3.7060	3.7055	2.0619	24.71	-0.07	0.750			
0.5314	34008.79	3.7030	3.7033	2.1195	24.70	-0.08	0.750			
0.5381	34436.53	3.7000	3.6999	2.1821	24.68	-0.10	0.750			
0.5446	34853.37	3.6970	3.6967	2.1918	24.66	-0.12	0.750			
0.5515	35297.68	3.6940	3.6940	2.2709	24.65	-0.13	0.750			
0.5584	35738.60	3.6910	3.6910	2.2416	24.64	-0.14	0.750			
0.5648	36147.76	3.6880	3.6886	2.3433	24.63	-0.15	0.750			
0.5720	36605.37	3.6850	3.6854	2.5779	24.62	-0.16	0.750			
0.5798	37109.25	3.6820	3.6811	2.4621	24.61	-0.17	0.750			
0.5873	37584.10	3.6790	3.6795	2.5423	24.60	-0.18	0.750			
0.5948	38066.63	3.6760	3.6761	2.6620	24.60	-0.18	0.750			
0.6023	38547.32	3.6730	3.6737	2.6462	24.60	-0.18	0.750			
0.6110	39106.66	3.6700	3.6702	2.7497	24.60	-0.18	0.750			
0.6189	39606.50	3.6670	3.6674	2.5118	24.60	-0.18	0.750			
0.6259	40057.45	3.6640	3.6638	2.3623	24.61	-0.17	0.750			
0.6324	40473.48	3.6610	3.6605	2.0671	24.62	-0.16	0.750			
0.6382	40846.64	3.6580	3.6580	1.9747	24.63	-0.15	0.750			
0.6436	41193.46	3.6550	3.6555	1.8211	24.64	-0.14	0.750			
0.6488	41523.34	3.6520	3.6514	1.7097	24.65	-0.13	0.750			
0.6536	41829.71	3.6490	3.6492	1.5781	24.66	-0.12	0.750			
0.6582	42126.79	3.6460	3.6466	1.4504	24.67	-0.11	0.750			
0.6627	42412.65	3.6430	3.6434	1.3592	24.67	-0.11	0.750			
0.6665	42653.17	3.6400	3.6399	1.2290	24.68	-0.10	0.750			
0.6700	42881.93	3.6370	3.6370	1.1301	24.68	-0.10	0.750			
0.6730	43069.64	3.6340	3.6341	1.0333	24.69	-0.09	0.750			
0.6760	43262.62	3.6310	3.6311	1.0012	24.69	-0.09	0.750			
0.6790	43456.14	3.6280	3.6278	0.9814	24.70	-0.08	0.750			
0.6818	43633.35	3.6250	3.6250	0.9326	24.71	-0.07	0.750			
0.6845	43810.55	3.6220	3.6221	0.9068	24.72	-0.06	0.750			
0.6873	43985.17	3.6190	3.6190	0.8689	24.72	-0.06	0.750			
0.6899	44154.13	3.6160	3.6160	0.8311	24.73	-0.05	0.750			
0.6923	44308.76	3.6130	3.6130	0.7756	24.74	-0.04	0.750			
0.6946	44452.31	3.6100	3.6100	0.7163	24.75	-0.03	0.750			
0.6966	44584.72	3.6070	3.6070	0.6577	24.75	-0.03	0.750			
0.6985	44705.11	3.6040	3.6040	0.5980	24.76	-0.02	0.750			
0.7002	44814.54	3.6010	3.6009	0.5359	24.77	-0.01	0.750			
0.7017	44910.94	3.5980	3.5980	0.4815	24.77	-0.01	0.750			
0.7031	44995.79	3.5950	3.5951	0.4321	24.77	-0.01	0.750			
0.7043	45073.61	3.5920	3.5920	0.3844	24.78	-0.00	0.750			
0.7054	45143.77	3.5890	3.5890	0.3346	24.78	0.00	0.750			
0.7063	45203.43	3.5860	3.5861	0.2865	24.79	0.01	0.750			
0.7071	45255.32	3.5830	3.5832	0.2395	24.79	0.01	0.750			
0.7078	45298.12	3.5800	3.5800	0.1859	24.79	0.01	0.750			
0.7083	45328.25	3.5770	3.5772	0.1266	24.79	0.01	0.750			
0.7085	45347.12	3.5740	3.5746	0.0715	24.79	0.01	0.750			
