Ah_balance (normalized)	Ah_balance (mAh)	Voltage - fit (V)	Voltage -  interpolate (V)	dQ/dV (1/V)	Temperature (°C)	Temperature - diff (°C)	Current (C)	R_DC 0ms (mOhm)	R_DC 50ms (mOhm)	R_DC 50 ms PEC (mOhm)
0.0499	3196.36	4.1960	4.1960	0.7298	25.97	0.50	0.750			
0.0522	3338.49	4.1930	4.1930	0.7419	25.97	0.50	0.750			
0.0544	3481.49	4.1900	4.1899	0.7469	25.97	0.50	0.750			
0.0566	3625.55	4.1870	4.1870	0.7495	25.97	0.50	0.750			
0.0589	3772.70	4.1840	4.1840	0.7430	25.97	0.50	0.750			
0.0612	3914.60	4.1810	4.1810	0.7477	25.97	0.50	0.750			
0.0634	4055.19	4.1780	4.1781	0.7499	25.97	0.50	0.750			
0.0656	4199.54	4.1750	4.1752	0.7534	25.97	0.50	0.750			
0.0679	4345.42	4.1720	4.1721	0.7552	25.97	0.50	0.750			
0.0702	4491.13	4.1690	4.1691	0.7602	25.97	0.50	0.750			
0.0725	4638.44	4.1660	4.1661	0.7607	25.97	0.50	0.750			
0.0748	4785.67	4.1630	4.1630	0.7664	25.98	0.51	0.750			
0.0770	4929.29	4.1600	4.1600	0.7593	25.98	0.51	0.750			
0.0793	5075.66	4.1570	4.1569	0.7613	25.98	0.51	0.750			
0.0816	5223.08	4.1540	4.1541	0.7661	25.98	0.51	0.750			
0.0839	5370.59	4.1510	4.1510	0.7678	25.98	0.51	0.750			
0.0862	5518.80	4.1480	4.1480	0.7688	25.98	0.51	0.750			
0.0885	5665.87	4.1450	4.1450	0.7660	25.98	0.51	0.750			
0.0908	5813.47	4.1420	4.1420	0.7678	25.98	0.51	0.750			
0.0931	5961.09	4.1390	4.1390	0.7689	25.98	0.51	0.750			
0.0955	6110.15	4.1360	4.1359	0.7678	25.98	0.51	0.750			
0.0978	6256.86	4.1330	4.1330	0.7719	25.98	0.51	0.750			
0.1001	6404.96	4.1300	4.1300	0.7719	25.99	0.52	0.750			
0.1024	6553.23	4.1270	4.1271	0.7731	25.99	0.52	0.750			
0.1047	6701.81	4.1240	4.1241	0.7757	25.99	0.52	0.750			
0.1070	6851.08	4.1210	4.1210	0.7763	25.99	0.52	0.750			
0.1094	7000.86	4.1180	4.1180	0.7701	26.00	0.53	0.750			
0.1117	7147.02	4.1150	4.1151	0.7727	26.00	0.53	0.750			
0.1140	7294.37	4.1120	4.1121	0.7736	26.01	0.54	0.750			
0.1163	7443.47	4.1090	4.1086	0.7795	26.01	0.54	0.750			
0.1186	7592.68	4.1060	4.1062	0.7831	26.01	0.54	0.750			
0.1210	7744.04	4.1030	4.1030	0.7885	26.01	0.54	0.750			
0.1234	7898.78	4.1000	4.1000	0.7972	26.01	0.54	0.750			
0.1258	8053.80	4.0970	4.0969	0.7974	26.01	0.54	0.750			
0.1282	8203.20	4.0940	4.0940	0.7909	26.01	0.54	0.750			
0.1306	8356.27	4.0910	4.0910	0.7922	26.01	0.54	0.750			
0.1329	8508.77	4.0880	4.0880	0.7900	26.01	0.54	0.750			
0.1353	8659.94	4.0850	4.0850	0.7883	26.01	0.54	0.750			
0.1377	8810.02	4.0820	4.0820	0.7941	26.01	0.54	0.750			
0.1400	8962.35	4.0790	4.0791	0.7965	26.01	0.54	0.750			
0.1424	9115.79	4.0760	4.0760	0.8019	26.01	0.54	0.750			
0.1448	9270.20	4.0730	4.0731	0.8066	26.02	0.55	0.750			
0.1473	9425.44	4.0700	4.0700	0.8045	26.02	0.55	0.750			
0.1497	9579.79	4.0670	4.0671	0.8065	26.02	0.55	0.750			
0.1521	9734.16	4.0640	4.0641	0.8085	26.03	0.56	0.750			
0.1545	9888.40	4.0610	4.0607	0.8129	26.03	0.56	0.750			
0.1570	10045.83	4.0580	4.0581	0.8152	26.03	0.56	0.750			
0.1594	10202.34	4.0550	4.0551	0.8196	26.03	0.56	0.750			
0.1619	10361.93	4.0520	4.0520	0.8251	26.03	0.56	0.750			
0.1644	10519.35	4.0490	4.0490	0.8195	26.03	0.56	0.750			
0.1668	10678.00	4.0460	4.0460	0.8265	26.03	0.56	0.750			
0.1693	10836.53	4.0430	4.0430	0.8308	26.03	0.56	0.750			
0.1718	10997.34	4.0400	4.0400	0.8254	26.03	0.56	0.750			
0.1743	11155.23	4.0370	4.0371	0.8316	26.04	0.57	0.750			
0.1768	11313.73	4.0340	4.0341	0.8323	26.04	0.57	0.750			
0.1793	11473.74	4.0310	4.0307	0.8370	26.04	0.57	0.750			
0.1818	11634.30	4.0280	4.0281	0.8430	26.04	0.57	0.750			
0.1843	11796.51	4.0250	4.0251	0.8361	26.04	0.57	0.750			
0.1869	11958.42	4.0220	4.0220	0.8407	26.05	0.58	0.750			
0.1894	12118.92	4.0190	4.0191	0.8407	26.05	0.58	0.750			
0.1919	12279.96	4.0160	4.0156	0.8461	26.05	0.58	0.750			
0.1944	12443.68	4.0130	4.0131	0.8466	26.05	0.58	0.750			
0.1970	12606.33	4.0100	4.0101	0.8502	26.05	0.58	0.750			
0.1995	12771.16	4.0070	4.0070	0.8552	26.05	0.58	0.750			
0.2021	12934.45	4.0040	4.0041	0.8545	26.05	0.58	0.750			
0.2047	13099.73	4.0010	4.0009	0.8573	26.05	0.58	0.750			
0.2073	13266.57	3.9980	3.9980	0.8511	26.05	0.58	0.750			
0.2098	13429.68	3.9950	3.9951	0.8546	26.05	0.58	0.750			
0.2124	13594.18	3.9920	3.9921	0.8563	26.06	0.59	0.750			
0.2150	13757.78	3.9890	3.9891	0.8584	26.06	0.59	0.750			
0.2175	13921.24	3.9860	3.9860	0.8602	26.06	0.59	0.750			
0.2201	14088.31	3.9830	3.9830	0.8567	26.06	0.59	0.750			
0.2227	14253.65	3.9800	3.9801	0.8657	26.06	0.59	0.750			
0.2253	14420.44	3.9770	3.9770	0.8666	26.07	0.60	0.750			
0.2279	14585.77	3.9740	3.9742	0.8671	26.07	0.60	0.750			
0.2305	14752.64	3.9710	3.9710	0.8684	26.07	0.60	0.750			
0.2331	14919.46	3.9680	3.9681	0.8698	26.07	0.60	0.750			
0.2358	15088.33	3.9650	3.9651	0.8703	26.07	0.60	0.750			
0.2384	15257.67	3.9620	3.9620	0.8773	26.07	0.60	0.750			
0.2410	15422.17	3.9590	3.9589	0.8700	26.07	0.60	0.750			
0.2436	15589.71	3.9560	3.9560	0.8691	26.07	0.60	0.750			
0.2462	15756.61	3.9530	3.9530	0.8602	26.07	0.60	0.750			
0.2488	15921.74	3.9500	3.9500	0.8660	26.06	0.59	0.750			
0.2514	16086.88	3.9470	3.9471	0.8646	26.06	0.59	0.750			
0.2540	16253.48	3.9440	3.9437	0.8672	26.06	0.59	0.750			
0.2565	16418.64	3.9410	3.9412	0.8659	26.06	0.59	0.750			
0.2592	16586.35	3.9380	3.9380	0.8616	26.06	0.59	0.750			
0.2617	16751.02	3.9350	3.9351	0.8708	26.05	0.58	0.750			
0.2643	16916.95	3.9320	3.9321	0.8679	26.05	0.58	0.750			
0.2669	17082.93	3.9290	3.9291	0.8698	26.05	0.58	0.750			
0.2696	17252.21	3.9260	3.9260	0.8690	26.05	0.58	0.750			
0.2722	17419.52	3.9230	3.9232	0.8708	26.05	0.58	0.750			
0.2748	17587.91	3.9200	3.9200	0.8736	26.04	0.57	0.750			
0.2774	17755.48	3.9170	3.9169	0.8655	26.04	0.57	0.750			
0.2800	17919.84	3.9140	3.9140	0.8650	26.04	0.57	0.750			
0.2826	18087.67	3.9110	3.9110	0.8618	26.03	0.56	0.750			
0.2852	18252.63	3.9080	3.9081	0.8659	26.03	0.56	0.750			
0.2878	18417.98	3.9050	3.9050	0.8699	26.03	0.56	0.750			
0.2904	18584.75	3.9020	3.9020	0.8677	26.02	0.55	0.750			
0.2930	18752.43	3.8990	3.8991	0.8690	26.02	0.55	0.750			
0.2957	18922.35	3.8960	3.8959	0.8621	26.01	0.54	0.750			
0.2982	19084.34	3.8930	3.8932	0.8646	26.00	0.53	0.750			
0.3008	19251.28	3.8900	3.8900	0.8693	26.00	0.53	0.750			
0.3034	19415.27	3.8870	3.8869	0.8710	25.99	0.52	0.750			
0.3060	19583.01	3.8840	3.8841	0.8752	25.99	0.52	0.750			
0.3086	19753.45	3.8810	3.8810	0.8789	25.98	0.51	0.750			
0.3113	19922.71	3.8780	3.8781	0.8800	25.97	0.50	0.750			
0.3140	20093.15	3.8750	3.8750	0.8903	25.97	0.50	0.750			
0.3166	20259.98	3.8720	3.8718	0.8853	25.96	0.49	0.750			
0.3193	20433.52	3.8690	3.8689	0.8784	25.95	0.48	0.750			
0.3219	20600.22	3.8660	3.8660	0.8827	25.95	0.48	0.750			
0.3245	20771.15	3.8630	3.8632	0.8891	25.94	0.47	0.750			
0.3272	20940.58	3.8600	3.8601	0.8958	25.93	0.46	0.750			
0.3299	21111.01	3.8570	3.8568	0.8976	25.93	0.46	0.750			
0.3326	21285.36	3.8540	3.8541	0.8917	25.92	0.45	0.750			
0.3353	21456.82	3.8510	3.8510	0.9097	25.91	0.44	0.750			
0.3380	21633.80	3.8480	3.8482	0.9209	25.90	0.43	0.750			
0.3408	21810.33	3.8450	3.8451	0.9214	25.89	0.42	0.750	0.299	0.439	
0.3436	21988.09	3.8420	3.8421	0.9286	25.89	0.42	0.750			
0.3464	22168.03	3.8390	3.8391	0.9304	25.88	0.41	0.750			
0.3492	22348.11	3.8360	3.8360	0.9381	25.87	0.40	0.750			
0.3520	22528.66	3.8330	3.8330	0.9439	25.86	0.39	0.750			
0.3548	22705.93	3.8300	3.8300	0.9441	25.86	0.39	0.750			
0.3576	22888.67	3.8270	3.8270	0.9465	25.85	0.38	0.750			
0.3605	23069.60	3.8240	3.8241	0.9601	25.84	0.37	0.750			
0.3633	23254.07	3.8210	3.8210	0.9740	25.84	0.37	0.750			
0.3663	23443.69	3.8180	3.8177	0.9863	25.83	0.36	0.750			
0.3693	23635.39	3.8150	3.8150	0.9849	25.82	0.35	0.750			
0.3723	23824.17	3.8120	3.8121	1.0000	25.81	0.34	0.750			
0.3753	24017.57	3.8090	3.8091	1.0132	25.80	0.33	0.750			
0.3783	24211.29	3.8060	3.8059	1.0197	25.79	0.32	0.750			
0.3814	24409.03	3.8030	3.8031	1.0269	25.78	0.31	0.750			
0.3845	24607.09	3.8000	3.8001	1.0411	25.77	0.30	0.750			
0.3876	24808.90	3.7970	3.7970	1.0589	25.76	0.29	0.750			
0.3909	25015.45	3.7940	3.7939	1.0764	25.75	0.28	0.750			
0.3941	25219.64	3.7910	3.7910	1.0777	25.74	0.27	0.750			
0.3973	25426.41	3.7880	3.7880	1.0986	25.73	0.26	0.750			
0.4006	25638.84	3.7850	3.7851	1.1190	25.72	0.25	0.750			
0.4041	25860.42	3.7820	3.7816	1.1321	25.71	0.24	0.750			
0.4074	26074.90	3.7790	3.7791	1.1493	25.70	0.23	0.750			
0.4109	26297.08	3.7760	3.7761	1.1703	25.69	0.22	0.750			
0.4144	26523.32	3.7730	3.7731	1.1977	25.68	0.21	0.750			
0.4180	26753.66	3.7700	3.7701	1.2173	25.67	0.20	0.750			
0.4217	26990.32	3.7670	3.7671	1.2447	25.66	0.19	0.750			
0.4255	27233.21	3.7640	3.7640	1.2762	25.65	0.18	0.750			
0.4294	27484.20	3.7610	3.7610	1.2893	25.64	0.17	0.750			
0.4333	27730.15	3.7580	3.7580	1.3104	25.62	0.15	0.750			
0.4372	27981.54	3.7550	3.7551	1.3385	25.61	0.14	0.750			
0.4414	28249.35	3.7520	3.7515	1.3319	25.59	0.12	0.750			
0.4454	28505.90	3.7490	3.7491	1.3554	25.58	0.11	0.750			
0.4493	28756.33	3.7460	3.7463	1.4126	25.57	0.10	0.750			
0.4537	29036.19	3.7430	3.7426	1.4305	25.55	0.08	0.750			
0.4580	29313.72	3.7400	3.7401	1.4614	25.54	0.07	0.750			
0.4625	29597.35	3.7370	3.7372	1.5294	25.52	0.05	0.750			
0.4672	29898.46	3.7340	3.7343	1.5952	25.51	0.04	0.750			
0.4722	30220.97	3.7310	3.7309	1.6485	25.50	0.03	0.750			
0.4771	30533.58	3.7280	3.7283	1.6716	25.48	0.01	0.750			
0.4820	30850.10	3.7250	3.7247	1.7041	25.47	0.00	0.750			
0.4874	31191.39	3.7220	3.7217	1.7656	25.46	-0.01	0.750			
0.4926	31527.80	3.7190	3.7189	1.8111	25.45	-0.02	0.750			
0.4980	31873.43	3.7160	3.7162	1.8883	25.43	-0.04	0.750			
0.5038	32244.72	3.7130	3.7133	1.9495	25.42	-0.05	0.750			
0.5097	32620.80	3.7100	3.7099	1.9680	25.40	-0.07	0.750			
0.5158	33012.00	3.7070	3.7071	2.0068	25.38	-0.09	0.750			
0.5221	33415.46	3.7040	3.7042	2.0655	25.37	-0.10	0.750			
0.5282	33807.88	3.7010	3.7010	2.1569	25.36	-0.11	0.750			
0.5347	34221.18	3.6980	3.6980	2.2991	25.35	-0.12	0.750			
0.5419	34679.67	3.6950	3.6952	2.3865	25.33	-0.14	0.750			
0.5494	35158.47	3.6920	3.6921	2.4507	25.32	-0.15	0.750			
0.5567	35630.43	3.6890	3.6890	2.3907	25.32	-0.15	0.750			
0.5638	36081.69	3.6860	3.6864	2.3712	25.30	-0.17	0.750			
0.5710	36542.29	3.6830	3.6832	2.3202	25.30	-0.17	0.750			
0.5779	36984.48	3.6800	3.6801	2.2905	25.30	-0.17	0.750			
0.5848	37425.14	3.6770	3.6767	2.2347	25.30	-0.17	0.750			
0.5912	37839.83	3.6740	3.6739	2.1016	25.30	-0.17	0.750			
0.5974	38233.09	3.6710	3.6710	2.0062	25.30	-0.17	0.750			
0.6033	38611.08	3.6680	3.6679	1.8990	25.31	-0.16	0.750			
0.6087	38957.99	3.6650	3.6652	1.7718	25.32	-0.15	0.750			
0.6139	39287.50	3.6620	3.6624	1.6390	25.33	-0.14	0.750			
0.6186	39592.34	3.6590	3.6586	1.5437	25.33	-0.14	0.750			
0.6231	39880.51	3.6560	3.6562	1.4536	25.34	-0.13	0.750			
0.6273	40144.66	3.6530	3.6531	1.3605	25.35	-0.12	0.750			
0.6312	40394.15	3.6500	3.6502	1.2717	25.35	-0.12	0.750			
0.6348	40624.15	3.6470	3.6471	1.1909	25.36	-0.11	0.750			
0.6382	40847.61	3.6440	3.6442	1.1450	25.36	-0.11	0.750			
0.6416	41064.19	3.6410	3.6403	1.1017	25.37	-0.10	0.750			
0.6448	41266.61	3.6380	3.6381	1.0420	25.38	-0.09	0.750			
0.6479	41463.48	3.6350	3.6350	1.0008	25.39	-0.08	0.750			
0.6508	41652.75	3.6320	3.6321	0.9630	25.39	-0.08	0.750			
0.6537	41839.18	3.6290	3.6288	0.9253	25.40	-0.07	0.750			
0.6563	42003.93	3.6260	3.6260	0.8659	25.41	-0.06	0.750			
0.6589	42168.04	3.6230	3.6230	0.8193	25.41	-0.06	0.750			
0.6612	42318.37	3.6200	3.6201	0.7875	25.42	-0.05	0.750			
0.6635	42465.30	3.6170	3.6170	0.7569	25.42	-0.05	0.750			
0.6657	42605.91	3.6140	3.6139	0.7215	25.43	-0.04	0.750			
0.6678	42742.25	3.6110	3.6112	0.6870	25.43	-0.04	0.750			
0.6699	42874.47	3.6080	3.6081	0.6576	25.44	-0.03	0.750			
0.6719	42998.99	3.6050	3.6050	0.6114	25.45	-0.02	0.750			
0.6737	43116.00	3.6020	3.6019	0.5642	25.45	-0.02	0.750			
0.6753	43216.32	3.5990	3.5991	0.5079	25.46	-0.01	0.750			
0.6767	43308.94	3.5960	3.5960	0.4560	25.46	-0.01	0.750			
0.6780	43390.35	3.5930	3.5930	0.4068	25.47	-0.00	0.750			
0.6791	43461.96	3.5900	3.5898	0.3619	25.47	0.00	0.750			
0.6801	43527.93	3.5870	3.5871	0.3142	25.47	0.00	0.750			
0.6810	43584.51	3.5840	3.5840	0.2715	25.48	0.01	0.750			
0.6818	43633.00	3.5810	3.5813	0.2267	25.48	0.01	0.750			
0.6824	43672.17	3.5780	3.5786	0.1782	25.48	0.01	0.750			
0.6829	43703.51	3.5750	3.5756	0.1249	25.48	0.01	0.750			
0.6832	43721.73	3.5720	3.5727	0.0453	25.48	0.01	0.750			
