Ah_balance (normalized)	Ah_balance (mAh)	Voltage - fit (V)	Voltage -  interpolate (V)	dQ/dV (1/V)	Temperature (°C)	Temperature - diff (°C)	Current (C)	R_DC 0ms (mOhm)	R_DC 50ms (mOhm)	R_DC 50 ms PEC (mOhm)
0.0475	3039.28	4.1980	4.1980	0.7605	25.45	0.39	0.750			
0.0498	3186.38	4.1950	4.1949	0.7664	25.45	0.39	0.750			
0.0521	3333.72	4.1920	4.1920	0.7669	25.45	0.39	0.750			
0.0544	3480.67	4.1890	4.1891	0.7667	25.45	0.39	0.750			
0.0567	3627.65	4.1860	4.1860	0.7705	25.45	0.39	0.750			
0.0590	3775.25	4.1830	4.1830	0.7690	25.45	0.39	0.750			
0.0613	3923.48	4.1800	4.1798	0.7712	25.45	0.39	0.750			
0.0636	4072.32	4.1770	4.1770	0.7761	25.45	0.39	0.750			
0.0660	4222.46	4.1740	4.1741	0.7750	25.45	0.39	0.750			
0.0683	4370.56	4.1710	4.1709	0.7785	25.45	0.39	0.750			
0.0706	4520.56	4.1680	4.1680	0.7804	25.45	0.39	0.750			
0.0730	4669.23	4.1650	4.1651	0.7796	25.45	0.39	0.750			
0.0753	4820.09	4.1620	4.1620	0.7831	25.45	0.39	0.750			
0.0777	4971.41	4.1590	4.1590	0.7847	25.45	0.39	0.750			
0.0800	5121.85	4.1560	4.1560	0.7841	25.45	0.39	0.750			
0.0824	5272.47	4.1530	4.1530	0.7870	25.45	0.39	0.750			
0.0847	5422.25	4.1500	4.1500	0.7842	25.45	0.39	0.750			
0.0871	5573.54	4.1470	4.1471	0.7883	25.45	0.39	0.750			
0.0895	5726.13	4.1440	4.1440	0.7856	25.45	0.39	0.750			
0.0919	5878.48	4.1410	4.1410	0.7842	25.45	0.39	0.750			
0.0942	6028.52	4.1380	4.1381	0.7803	25.45	0.39	0.750			
0.0965	6176.62	4.1350	4.1351	0.7803	25.45	0.39	0.750			
0.0988	6325.23	4.1320	4.1320	0.7820	25.45	0.39	0.750			
0.1012	6474.17	4.1290	4.1289	0.7849	25.45	0.39	0.750			
0.1035	6625.61	4.1260	4.1260	0.7872	25.45	0.39	0.750			
0.1059	6779.09	4.1230	4.1230	0.7987	25.46	0.40	0.750			
0.1083	6932.31	4.1200	4.1200	0.8025	25.46	0.40	0.750			
0.1107	7086.83	4.1170	4.1170	0.8071	25.46	0.40	0.750			
0.1132	7242.20	4.1140	4.1140	0.8102	25.46	0.40	0.750			
0.1156	7399.78	4.1110	4.1110	0.8082	25.46	0.40	0.750			
0.1180	7554.80	4.1080	4.1081	0.8118	25.46	0.40	0.750			
0.1205	7711.38	4.1050	4.1050	0.8155	25.47	0.41	0.750			
0.1229	7866.86	4.1020	4.1021	0.8124	25.47	0.41	0.750			
0.1253	8022.17	4.0990	4.0990	0.8142	25.47	0.41	0.750			
0.1278	8179.34	4.0960	4.0961	0.8126	25.47	0.41	0.750			
0.1302	8335.72	4.0930	4.0930	0.8157	25.47	0.41	0.750			
0.1327	8492.35	4.0900	4.0900	0.8181	25.47	0.41	0.750			
0.1351	8647.95	4.0870	4.0870	0.8219	25.47	0.41	0.750			
0.1376	8805.41	4.0840	4.0840	0.8277	25.47	0.41	0.750			
0.1401	8966.71	4.0810	4.0810	0.8293	25.47	0.41	0.750			
0.1426	9126.78	4.0780	4.0779	0.8324	25.47	0.41	0.750			
0.1451	9287.56	4.0750	4.0751	0.8361	25.48	0.42	0.750			
0.1476	9448.03	4.0720	4.0720	0.8391	25.48	0.42	0.750			
0.1501	9609.18	4.0690	4.0690	0.8390	25.48	0.42	0.750			
0.1527	9772.01	4.0660	4.0659	0.8329	25.48	0.42	0.750			
0.1552	9930.67	4.0630	4.0631	0.8400	25.48	0.42	0.750			
0.1577	10091.92	4.0600	4.0600	0.8460	25.49	0.43	0.750			
0.1602	10253.63	4.0570	4.0570	0.8491	25.49	0.43	0.750			
0.1628	10417.04	4.0540	4.0541	0.8497	25.49	0.43	0.750			
0.1653	10581.73	4.0510	4.0511	0.8494	25.50	0.44	0.750			
0.1679	10746.27	4.0480	4.0480	0.8593	25.50	0.44	0.750			
0.1705	10911.92	4.0450	4.0450	0.8601	25.50	0.44	0.750			
0.1731	11075.25	4.0420	4.0420	0.8575	25.51	0.45	0.750			
0.1756	11240.27	4.0390	4.0391	0.8629	25.51	0.45	0.750			
0.1783	11408.15	4.0360	4.0360	0.8597	25.51	0.45	0.750			
0.1808	11573.16	4.0330	4.0330	0.8653	25.51	0.45	0.750			
0.1834	11739.81	4.0300	4.0300	0.8674	25.51	0.45	0.750			
0.1860	11903.97	4.0270	4.0270	0.8653	25.51	0.45	0.750			
0.1886	12071.70	4.0240	4.0241	0.8712	25.51	0.45	0.750			
0.1912	12238.02	4.0210	4.0210	0.8730	25.52	0.46	0.750			
0.1938	12405.93	4.0180	4.0180	0.8809	25.52	0.46	0.750			
0.1965	12575.00	4.0150	4.0151	0.8861	25.53	0.47	0.750			
0.1991	12745.31	4.0120	4.0116	0.8968	25.53	0.47	0.750			
0.2019	12921.25	4.0090	4.0091	0.8989	25.53	0.47	0.750			
0.2046	13094.44	4.0060	4.0060	0.9049	25.53	0.47	0.750			
0.2073	13269.92	4.0030	4.0031	0.9106	25.53	0.47	0.750			
0.2101	13445.32	4.0000	4.0000	0.9084	25.53	0.47	0.750			
0.2128	13617.16	3.9970	3.9971	0.9114	25.53	0.47	0.750			
0.2155	13794.18	3.9940	3.9940	0.9042	25.53	0.47	0.750			
0.2182	13966.20	3.9910	3.9910	0.9108	25.54	0.48	0.750			
0.2210	14142.01	3.9880	3.9881	0.9176	25.54	0.48	0.750			
0.2237	14316.68	3.9850	3.9849	0.9185	25.54	0.48	0.750			
0.2265	14496.47	3.9820	3.9820	0.9162	25.54	0.48	0.750			
0.2293	14672.03	3.9790	3.9790	0.9210	25.55	0.49	0.750			
0.2320	14847.97	3.9760	3.9761	0.9229	25.55	0.49	0.750			
0.2348	15027.37	3.9730	3.9731	0.9319	25.56	0.50	0.750			
0.2375	15203.08	3.9700	3.9698	0.9274	25.56	0.50	0.750			
0.2403	15382.08	3.9670	3.9671	0.9301	25.56	0.50	0.750			
0.2431	15560.78	3.9640	3.9640	0.9357	25.56	0.50	0.750			
0.2460	15742.77	3.9610	3.9611	0.9383	25.56	0.50	0.750			
0.2488	15923.64	3.9580	3.9579	0.9349	25.56	0.50	0.750			
0.2516	16104.11	3.9550	3.9550	0.9330	25.56	0.50	0.750			
0.2544	16281.85	3.9520	3.9520	0.9364	25.56	0.50	0.750			
0.2572	16461.13	3.9490	3.9490	0.9401	25.57	0.51	0.750			
0.2600	16641.92	3.9460	3.9461	0.9439	25.57	0.51	0.750			
0.2628	16821.48	3.9430	3.9429	0.9486	25.57	0.51	0.750			
0.2657	17005.97	3.9400	3.9400	0.9447	25.58	0.52	0.750			
0.2686	17187.32	3.9370	3.9370	0.9500	25.58	0.52	0.750			
0.2714	17368.68	3.9340	3.9341	0.9569	25.59	0.53	0.750			
0.2743	17552.10	3.9310	3.9306	0.9627	25.59	0.53	0.750			
0.2772	17738.27	3.9280	3.9279	0.9637	25.59	0.53	0.750			
0.2801	17924.27	3.9250	3.9251	0.9685	25.59	0.53	0.750			
0.2830	18112.36	3.9220	3.9221	0.9731	25.59	0.53	0.750			
0.2859	18298.67	3.9190	3.9190	0.9737	25.59	0.53	0.750			
0.2889	18487.55	3.9160	3.9160	0.9733	25.59	0.53	0.750			
0.2918	18672.50	3.9130	3.9130	0.9741	25.60	0.54	0.750			
0.2947	18859.81	3.9100	3.9101	0.9825	25.60	0.54	0.750			
0.2977	19050.17	3.9070	3.9070	0.9890	25.61	0.55	0.750			
0.3007	19242.64	3.9040	3.9039	0.9842	25.61	0.55	0.750			
0.3036	19430.08	3.9010	3.9011	0.9927	25.61	0.55	0.750			
0.3066	19620.14	3.8980	3.8981	0.9974	25.62	0.56	0.750			
0.3096	19814.22	3.8950	3.8951	1.0081	25.62	0.56	0.750			
0.3126	20007.23	3.8920	3.8920	1.0088	25.62	0.56	0.750			
0.3156	20200.74	3.8890	3.8891	1.0166	25.62	0.56	0.750			
0.3187	20398.25	3.8860	3.8860	1.0238	25.62	0.56	0.750			
0.3218	20597.30	3.8830	3.8831	1.0268	25.62	0.56	0.750			
0.3249	20792.86	3.8800	3.8801	1.0240	25.62	0.56	0.750			
0.3280	20990.39	3.8770	3.8770	1.0350	25.62	0.56	0.750			
0.3311	21188.83	3.8740	3.8740	1.0401	25.63	0.57	0.750			
0.3342	21389.74	3.8710	3.8710	1.0453	25.63	0.57	0.750			
0.3374	21591.56	3.8680	3.8680	1.0499	25.63	0.57	0.750			
0.3405	21794.53	3.8650	3.8651	1.0494	25.63	0.57	0.750			
0.3437	21995.19	3.8620	3.8620	1.0573	25.64	0.58	0.750			
0.3468	22197.19	3.8590	3.8590	1.0600	25.64	0.58	0.750			
0.3500	22402.78	3.8560	3.8560	1.0521	25.64	0.58	0.750			
0.3532	22603.79	3.8530	3.8530	1.0593	25.64	0.58	0.750			
0.3564	22808.22	3.8500	3.8502	1.0693	25.64	0.58	0.750			
0.3596	23013.04	3.8470	3.8471	1.0802	25.64	0.58	0.750			
0.3628	23221.04	3.8440	3.8438	1.0753	25.64	0.58	0.750			
0.3661	23431.21	3.8410	3.8410	1.0780	25.64	0.58	0.750			
0.3693	23637.79	3.8380	3.8381	1.0992	25.63	0.57	0.750			
0.3727	23850.84	3.8350	3.8351	1.1134	25.63	0.57	0.750			
0.3761	24067.65	3.8320	3.8321	1.1001	25.63	0.57	0.750			
0.3793	24276.66	3.8290	3.8293	1.1193	25.63	0.57	0.750	0.301	0.389	
0.3827	24492.65	3.8260	3.8262	1.1318	25.62	0.56	0.750			
0.3862	24716.67	3.8230	3.8226	1.1381	25.62	0.56	0.750			
0.3896	24932.70	3.8200	3.8202	1.1407	25.62	0.56	0.750			
0.3930	25150.38	3.8170	3.8171	1.1463	25.61	0.55	0.750			
0.3965	25373.00	3.8140	3.8141	1.1583	25.60	0.54	0.750			
0.4000	25597.64	3.8110	3.8109	1.1482	25.60	0.54	0.750			
0.4034	25818.06	3.8080	3.8080	1.1654	25.59	0.53	0.750			
0.4069	26044.49	3.8050	3.8051	1.1801	25.58	0.52	0.750			
0.4105	26272.99	3.8020	3.8019	1.1919	25.57	0.51	0.750			
0.4141	26501.96	3.7990	3.7991	1.1841	25.56	0.50	0.750			
0.4176	26729.47	3.7960	3.7961	1.1912	25.55	0.49	0.750			
0.4212	26959.14	3.7930	3.7931	1.2010	25.54	0.48	0.750			
0.4249	27190.71	3.7900	3.7900	1.2116	25.53	0.47	0.750			
0.4284	27420.12	3.7870	3.7870	1.2176	25.52	0.46	0.750			
0.4321	27655.46	3.7840	3.7840	1.2309	25.51	0.45	0.750			
0.4359	27895.01	3.7810	3.7809	1.2442	25.50	0.44	0.750			
0.4396	28135.62	3.7780	3.7780	1.2569	25.49	0.43	0.750			
0.4434	28377.42	3.7750	3.7750	1.2722	25.48	0.42	0.750			
0.4473	28627.83	3.7720	3.7720	1.2786	25.47	0.41	0.750			
0.4511	28869.53	3.7690	3.7691	1.3047	25.46	0.40	0.750			
0.4550	29118.16	3.7660	3.7660	1.3283	25.45	0.39	0.750			
0.4591	29379.26	3.7630	3.7631	1.3507	25.44	0.38	0.750			
0.4631	29638.72	3.7600	3.7599	1.3877	25.42	0.36	0.750			
0.4673	29906.72	3.7570	3.7572	1.4212	25.41	0.35	0.750			
0.4717	30185.77	3.7540	3.7541	1.4488	25.39	0.33	0.750			
0.4761	30467.83	3.7510	3.7511	1.4898	25.38	0.32	0.750			
0.4805	30755.01	3.7480	3.7481	1.5031	25.37	0.31	0.750			
0.4851	31045.56	3.7450	3.7450	1.5391	25.35	0.29	0.750			
0.4897	31342.08	3.7420	3.7422	1.5844	25.34	0.28	0.750			
0.4945	31646.61	3.7390	3.7387	1.6139	25.32	0.26	0.750			
0.4994	31964.03	3.7360	3.7355	1.6524	25.30	0.24	0.750			
0.5044	32283.41	3.7330	3.7331	1.7136	25.29	0.23	0.750			
0.5097	32618.48	3.7300	3.7302	1.7712	25.28	0.22	0.750			
0.5150	32959.84	3.7270	3.7272	1.8310	25.26	0.20	0.750			
0.5206	33320.23	3.7240	3.7240	1.8572	25.24	0.18	0.750			
0.5263	33682.68	3.7210	3.7210	1.9393	25.23	0.17	0.750			
0.5323	34064.75	3.7180	3.7179	1.9715	25.21	0.15	0.750			
0.5383	34448.52	3.7150	3.7150	2.0327	25.20	0.14	0.750			
0.5443	34834.77	3.7120	3.7123	2.1073	25.18	0.12	0.750			
0.5507	35247.14	3.7090	3.7091	2.1686	25.16	0.10	0.750			
0.5574	35671.49	3.7060	3.7060	2.2220	25.14	0.08	0.750			
0.5643	36117.71	3.7030	3.7028	2.3075	25.11	0.05	0.750			
0.5712	36555.75	3.7000	3.7001	2.3449	25.10	0.04	0.750			
0.5783	37010.46	3.6970	3.6970	2.4160	25.08	0.02	0.750			
0.5857	37485.98	3.6940	3.6938	2.4971	25.06	0.00	0.750			
0.5933	37970.70	3.6910	3.6908	2.5823	25.04	-0.02	0.750			
0.6014	38487.70	3.6880	3.6879	2.7096	25.02	-0.04	0.750			
0.6094	39003.37	3.6850	3.6850	2.7614	25.00	-0.06	0.750			
0.6178	39540.03	3.6820	3.6822	2.7974	24.99	-0.07	0.750			
0.6262	40076.65	3.6790	3.6791	2.8481	24.97	-0.09	0.750			
0.6347	40623.65	3.6760	3.6760	2.8988	24.96	-0.10	0.750			
0.6436	41190.34	3.6730	3.6731	2.9564	24.95	-0.11	0.750			
0.6528	41778.69	3.6700	3.6701	3.0172	24.94	-0.12	0.750			
0.6619	42364.19	3.6670	3.6671	2.9622	24.93	-0.13	0.750			
0.6710	42944.30	3.6640	3.6640	2.9195	24.93	-0.13	0.750			
0.6798	43507.02	3.6610	3.6607	2.8000	24.93	-0.13	0.750			
0.6881	44041.23	3.6580	3.6580	2.6095	24.94	-0.12	0.750			
0.6955	44512.56	3.6550	3.6548	2.3921	24.95	-0.11	0.750			
0.7022	44943.25	3.6520	3.6523	2.1427	24.96	-0.10	0.750			
0.7085	45341.94	3.6490	3.6492	1.9438	24.97	-0.09	0.750			
0.7140	45696.49	3.6460	3.6457	1.7361	24.98	-0.08	0.750			
0.7190	46014.10	3.6430	3.6433	1.5330	24.99	-0.07	0.750			
0.7234	46294.63	3.6400	3.6399	1.3432	25.00	-0.06	0.750			
0.7269	46521.94	3.6370	3.6371	1.1709	25.00	-0.06	0.750			
0.7299	46716.72	3.6340	3.6341	1.0102	25.01	-0.05	0.750			
0.7327	46892.28	3.6310	3.6311	0.9183	25.01	-0.05	0.750			
0.7352	47055.07	3.6280	3.6280	0.8458	25.02	-0.04	0.750			
0.7375	47202.95	3.6250	3.6252	0.7869	25.02	-0.04	0.750			
0.7398	47349.56	3.6220	3.6219	0.7511	25.03	-0.03	0.750			
0.7421	47492.26	3.6190	3.6189	0.7204	25.04	-0.02	0.750			
0.7441	47624.84	3.6160	3.6160	0.6789	25.04	-0.02	0.750			
0.7462	47755.16	3.6130	3.6130	0.6358	25.05	-0.01	0.750			
0.7481	47875.41	3.6100	3.6101	0.5864	25.06	-0.00	0.750			
0.7498	47985.71	3.6070	3.6071	0.5246	25.06	0.00	0.750			
0.7513	48081.17	3.6040	3.6040	0.4579	25.07	0.01	0.750			
0.7525	48162.70	3.6010	3.6010	0.3876	25.07	0.01	0.750			
0.7536	48229.77	3.5980	3.5979	0.3157	25.07	0.01	0.750			
0.7544	48283.39	3.5950	3.5950	0.2452	25.08	0.02	0.750			
0.7551	48323.86	3.5920	3.5922	0.1751	25.08	0.02	0.750			
0.7555	48350.95	3.5890	3.5894	0.1134	25.08	0.02	0.750			
