Ah_balance (normalized)	Ah_balance (mAh)	Voltage - fit (V)	Voltage -  interpolate (V)	dQ/dV (1/V)	Temperature (°C)	Temperature - diff (°C)	Current (C)	R_DC 0ms (mOhm)	R_DC 50ms (mOhm)	R_DC 50 ms PEC (mOhm)
0.0001	7.82	4.1620	4.1618	-0.1021	24.69	0.01	-0.750			
0.0005	32.08	4.1590	4.1590	-0.1494	24.69	0.01	-0.750			
0.0010	64.69	4.1560	4.1559	-0.1945	24.69	0.01	-0.750			
0.0017	107.84	4.1530	4.1529	-0.2396	24.68	0.00	-0.750			
0.0025	158.00	4.1500	4.1500	-0.2826	24.68	0.00	-0.750			
0.0034	215.69	4.1470	4.1471	-0.3302	24.68	0.00	-0.750			
0.0044	284.35	4.1440	4.1441	-0.3718	24.68	0.00	-0.750			
0.0056	360.82	4.1410	4.1408	-0.4127	24.68	0.00	-0.750			
0.0070	444.85	4.1380	4.1380	-0.4493	24.68	0.00	-0.750			
0.0084	535.54	4.1350	4.1351	-0.4852	24.68	-0.00	-0.750			
0.0099	633.36	4.1320	4.1320	-0.5153	24.68	-0.00	-0.750			
0.0115	736.43	4.1290	4.1290	-0.5418	24.68	-0.00	-0.750			
0.0132	842.03	4.1260	4.1260	-0.5672	24.68	-0.00	-0.750			
0.0149	955.35	4.1230	4.1231	-0.5979	24.67	-0.01	-0.750			
0.0168	1074.66	4.1200	4.1198	-0.6174	24.67	-0.01	-0.750			
0.0187	1195.17	4.1170	4.1169	-0.6349	24.67	-0.01	-0.750			
0.0206	1319.70	4.1140	4.1142	-0.6470	24.67	-0.01	-0.750	0.364	0.502	
0.0226	1445.23	4.1110	4.1109	-0.6587	24.67	-0.01	-0.750			
0.0246	1571.57	4.1080	4.1080	-0.6708	24.67	-0.01	-0.750			
0.0266	1699.56	4.1050	4.1049	-0.6778	24.67	-0.01	-0.750			
0.0287	1834.04	4.1020	4.1020	-0.6963	24.68	-0.00	-0.750			
0.0308	1969.48	4.0990	4.0990	-0.7012	24.68	-0.00	-0.750			
0.0329	2104.18	4.0960	4.0962	-0.7157	24.68	0.00	-0.750			
0.0351	2245.74	4.0930	4.0930	-0.7186	24.68	0.00	-0.750			
0.0373	2384.11	4.0900	4.0899	-0.7149	24.68	0.00	-0.750			
0.0395	2526.07	4.0870	4.0867	-0.7049	24.68	0.00	-0.750	0.373	0.514	
0.0416	2663.78	4.0840	4.0839	-0.6921	24.68	0.00	-0.750			
0.0437	2794.92	4.0810	4.0809	-0.6642	24.68	0.00	-0.750			
0.0456	2916.01	4.0780	4.0786	-0.6666	24.68	0.00	-0.750			
0.0475	3037.23	4.0750	4.0746	-0.6636	24.68	0.00	-0.750			
0.0494	3162.43	4.0720	4.0717	-0.6948	24.69	0.01	-0.750			
0.0514	3291.39	4.0690	4.0692	-0.7098	24.69	0.01	-0.750			
0.0537	3439.90	4.0660	4.0660	-0.7523	24.69	0.01	-0.750			
0.0562	3596.25	4.0630	4.0628	-0.7652	24.70	0.02	-0.750			
0.0585	3744.56	4.0600	4.0597	-0.7626	24.70	0.02	-0.750			
0.0608	3888.35	4.0570	4.0579	-0.7583	24.70	0.02	-0.750	0.383	0.516	
0.0630	4033.67	4.0540	4.0539	-0.7650	24.70	0.02	-0.750			
0.0653	4177.44	4.0510	4.0508	-0.7554	24.70	0.02	-0.750			
0.0675	4321.87	4.0480	4.0481	-0.7532	24.70	0.02	-0.750			
0.0699	4472.44	4.0450	4.0452	-0.7669	24.70	0.02	-0.750			
0.0721	4616.04	4.0420	4.0420	-0.7794	24.70	0.02	-0.750			
0.0745	4764.85	4.0390	4.0388	-0.7793	24.71	0.03	-0.750			
0.0768	4917.01	4.0360	4.0359	-0.7754	24.71	0.03	-0.750			
0.0792	5066.03	4.0330	4.0328	-0.7739	24.71	0.03	-0.750	0.371	0.506	
0.0816	5219.78	4.0300	4.0297	-0.7814	24.72	0.04	-0.750			
0.0839	5368.20	4.0270	4.0269	-0.7741	24.72	0.04	-0.750			
0.0861	5510.90	4.0240	4.0240	-0.7752	24.73	0.05	-0.750			
0.0884	5657.52	4.0210	4.0210	-0.7678	24.73	0.05	-0.750			
0.0907	5807.90	4.0180	4.0180	-0.7767	24.73	0.05	-0.750			
0.0931	5960.92	4.0150	4.0148	-0.7846	24.74	0.06	-0.750			
0.0955	6113.96	4.0120	4.0126	-0.7590	24.74	0.06	-0.750			
0.0977	6252.12	4.0090	4.0091	-0.7689	24.74	0.06	-0.750			
0.0999	6394.87	4.0060	4.0067	-0.7814	24.75	0.07	-0.750	0.392	0.514	
0.1023	6546.06	4.0030	4.0032	-0.7978	24.75	0.07	-0.750			
0.1047	6702.89	4.0000	4.0002	-0.8056	24.76	0.08	-0.750			
0.1072	6860.62	3.9970	3.9973	-0.8161	24.76	0.08	-0.750			
0.1097	7021.41	3.9940	3.9940	-0.8153	24.76	0.08	-0.750			
0.1121	7175.65	3.9910	3.9909	-0.8165	24.77	0.09	-0.750			
0.1146	7337.51	3.9880	3.9879	-0.8048	24.77	0.09	-0.750			
0.1170	7491.13	3.9850	3.9849	-0.7957	24.77	0.09	-0.750			
0.1195	7647.83	3.9820	3.9819	-0.8008	24.78	0.10	-0.750	0.381	0.510	
0.1219	7801.05	3.9790	3.9786	-0.7929	24.78	0.10	-0.750			
0.1242	7948.89	3.9760	3.9758	-0.8021	24.79	0.11	-0.750			
0.1266	8102.45	3.9730	3.9729	-0.8058	24.79	0.11	-0.750			
0.1290	8258.15	3.9700	3.9699	-0.8039	24.79	0.11	-0.750			
0.1315	8415.62	3.9670	3.9668	-0.8330	24.80	0.12	-0.750			
0.1340	8577.52	3.9640	3.9638	-0.8292	24.80	0.12	-0.750			
0.1365	8735.56	3.9610	3.9607	-0.8278	24.81	0.13	-0.750			
0.1390	8894.31	3.9580	3.9579	-0.8195	24.81	0.13	-0.750	0.383	0.500	
0.1415	9053.32	3.9550	3.9549	-0.8204	24.81	0.13	-0.750			
0.1439	9208.20	3.9520	3.9519	-0.8203	24.82	0.14	-0.750			
0.1463	9364.66	3.9490	3.9489	-0.8150	24.82	0.14	-0.750			
0.1487	9514.72	3.9460	3.9460	-0.8207	24.83	0.15	-0.750			
0.1511	9672.47	3.9430	3.9431	-0.8431	24.83	0.15	-0.750			
0.1537	9836.37	3.9400	3.9400	-0.8440	24.83	0.15	-0.750			
0.1563	10005.48	3.9370	3.9367	-0.8440	24.84	0.16	-0.750			
0.1589	10170.22	3.9340	3.9338	-0.8386	24.84	0.16	-0.750	0.365	0.499	
0.1614	10328.54	3.9310	3.9309	-0.8382	24.85	0.17	-0.750			
0.1639	10489.81	3.9280	3.9278	-0.8345	24.85	0.17	-0.750			
0.1663	10644.76	3.9250	3.9248	-0.8202	24.85	0.17	-0.750			
0.1688	10802.61	3.9220	3.9218	-0.8236	24.86	0.18	-0.750			
0.1713	10961.40	3.9190	3.9188	-0.8562	24.86	0.18	-0.750			
0.1739	11129.18	3.9160	3.9159	-0.8413	24.86	0.18	-0.750			
0.1764	11289.46	3.9130	3.9128	-0.8399	24.86	0.18	-0.750			
0.1789	11446.62	3.9100	3.9099	-0.8342	24.87	0.19	-0.750			
0.1814	11612.22	3.9070	3.9070	-0.8449	24.87	0.19	-0.750	0.384	0.500	
0.1840	11774.38	3.9040	3.9039	-0.8444	24.87	0.19	-0.750			
0.1864	11931.22	3.9010	3.9011	-0.8459	24.88	0.20	-0.750			
0.1890	12097.01	3.8980	3.8980	-0.8548	24.88	0.20	-0.750			
0.1917	12266.14	3.8950	3.8949	-0.8628	24.88	0.20	-0.750			
0.1943	12436.52	3.8920	3.8918	-0.8607	24.89	0.21	-0.750			
0.1969	12603.05	3.8890	3.8888	-0.8583	24.89	0.21	-0.750			
0.1995	12767.67	3.8860	3.8856	-0.8596	24.90	0.22	-0.750	0.393	0.530	
0.2021	12932.42	3.8830	3.8825	-0.8514	24.91	0.23	-0.750			
0.2046	13091.64	3.8800	3.8797	-0.8422	24.91	0.23	-0.750			
0.2071	13252.94	3.8770	3.8769	-0.8426	24.92	0.24	-0.750			
0.2095	13411.14	3.8740	3.8740	-0.8430	24.92	0.24	-0.750			
0.2122	13579.84	3.8710	3.8708	-0.8715	24.92	0.24	-0.750			
0.2148	13745.69	3.8680	3.8679	-0.8603	24.93	0.25	-0.750			
0.2174	13914.28	3.8650	3.8649	-0.8659	24.93	0.25	-0.750			
0.2200	14080.11	3.8620	3.8628	-0.8620	24.93	0.25	-0.750	0.408	0.543	
0.2226	14244.89	3.8590	3.8589	-0.8574	24.93	0.25	-0.750			
0.2251	14408.96	3.8560	3.8558	-0.8597	24.94	0.26	-0.750			
0.2277	14573.06	3.8530	3.8529	-0.8529	24.94	0.26	-0.750			
0.2302	14733.11	3.8500	3.8501	-0.8481	24.95	0.27	-0.750			
0.2329	14902.90	3.8470	3.8473	-0.8707	24.95	0.27	-0.750			
0.2354	15067.79	3.8440	3.8439	-0.8713	24.95	0.27	-0.750			
0.2381	15238.64	3.8410	3.8407	-0.8559	24.95	0.27	-0.750			
0.2406	15401.29	3.8380	3.8385	-0.8494	24.96	0.28	-0.750	0.391	0.530	
0.2432	15565.43	3.8350	3.8348	-0.8499	24.96	0.28	-0.750			
0.2457	15726.91	3.8320	3.8322	-0.8392	24.96	0.28	-0.750			
0.2481	15881.27	3.8290	3.8288	-0.8347	24.96	0.28	-0.750			
0.2506	16041.33	3.8260	3.8260	-0.8393	24.97	0.29	-0.750			
0.2532	16203.04	3.8230	3.8230	-0.8459	24.97	0.29	-0.750			
0.2559	16377.12	3.8200	3.8197	-0.8474	24.98	0.30	-0.750			
0.2584	16539.23	3.8170	3.8169	-0.8338	24.98	0.30	-0.750			
0.2609	16699.15	3.8140	3.8140	-0.8207	24.99	0.31	-0.749	0.407	0.532	
0.2633	16853.58	3.8110	3.8107	-0.8141	24.99	0.31	-0.750			
0.2657	17005.16	3.8080	3.8078	-0.8054	24.99	0.31	-0.750			
0.2680	17152.65	3.8050	3.8051	-0.7966	25.00	0.32	-0.750			
0.2705	17313.06	3.8020	3.8022	-0.8196	25.00	0.32	-0.750			
0.2730	17472.07	3.7990	3.7989	-0.8257	25.00	0.32	-0.750			
0.2755	17631.98	3.7960	3.7959	-0.8245	25.00	0.32	-0.750			
0.2780	17792.63	3.7930	3.7928	-0.8110	25.01	0.33	-0.750			
0.2805	17949.99	3.7900	3.7898	-0.8002	25.01	0.33	-0.750	0.393	0.521	
0.2828	18101.44	3.7870	3.7876	-0.7928	25.01	0.33	-0.750			
0.2852	18250.10	3.7840	3.7837	-0.7807	25.01	0.33	-0.750			
0.2874	18396.01	3.7810	3.7809	-0.7802	25.01	0.33	-0.750			
0.2897	18542.43	3.7780	3.7781	-0.7803	25.02	0.34	-0.750			
0.2921	18694.66	3.7750	3.7750	-0.8131	25.02	0.34	-0.750			
0.2946	18855.39	3.7720	3.7718	-0.8050	25.02	0.34	-0.750			
0.2971	19011.88	3.7690	3.7687	-0.8030	25.02	0.34	-0.750			
0.2995	19164.88	3.7660	3.7657	-0.7962	25.03	0.35	-0.750	0.388	0.515	
0.3018	19318.13	3.7630	3.7628	-0.7920	25.03	0.35	-0.750			
0.3042	19467.79	3.7600	3.7598	-0.7825	25.03	0.35	-0.750			
0.3065	19614.34	3.7570	3.7569	-0.7811	25.04	0.36	-0.750			
0.3088	19762.25	3.7540	3.7540	-0.7844	25.04	0.36	-0.750			
0.3112	19916.28	3.7510	3.7510	-0.8099	25.04	0.36	-0.750			
0.3136	20072.62	3.7480	3.7480	-0.8037	25.04	0.36	-0.750			
0.3160	20225.54	3.7450	3.7450	-0.8148	25.04	0.36	-0.750			
0.3185	20382.76	3.7420	3.7420	-0.8357	25.04	0.36	-0.750			
0.3210	20544.09	3.7390	3.7399	-0.8489	25.04	0.36	-0.750	0.364	0.499	
0.3236	20708.08	3.7360	3.7361	-0.8658	25.04	0.36	-0.750			
0.3262	20877.73	3.7330	3.7330	-0.8790	25.04	0.36	-0.750			
0.3289	21046.64	3.7300	3.7300	-0.8898	25.04	0.36	-0.750			
0.3316	21224.67	3.7270	3.7269	-0.9054	25.04	0.36	-0.750			
0.3344	21399.78	3.7240	3.7240	-0.9213	25.04	0.36	-0.750			
0.3372	21578.14	3.7210	3.7208	-0.9300	25.04	0.36	-0.750			
0.3400	21759.16	3.7180	3.7177	-0.9376	25.04	0.36	-0.750	0.381	0.510	
0.3428	21939.46	3.7150	3.7146	-0.9450	25.04	0.36	-0.750			
0.3456	22116.47	3.7120	3.7122	-0.9751	25.04	0.36	-0.750			
0.3485	22302.11	3.7090	3.7089	-0.9818	25.04	0.36	-0.750			
0.3516	22502.78	3.7060	3.7058	-1.0027	25.03	0.35	-0.750			
0.3546	22696.63	3.7030	3.7028	-1.0176	25.03	0.35	-0.750			
0.3577	22889.81	3.7000	3.7007	-1.0406	25.03	0.35	-0.750			
0.3608	23091.43	3.6970	3.6974	-1.0583	25.02	0.34	-0.750	0.379	0.500	
0.3640	23293.98	3.6940	3.6939	-1.0637	25.02	0.34	-0.750			
0.3671	23496.96	3.6910	3.6909	-1.0810	25.01	0.33	-0.750			
0.3704	23705.37	3.6880	3.6885	-1.1247	25.01	0.33	-0.750			
0.3740	23937.73	3.6850	3.6847	-1.1355	25.01	0.33	-0.750			
0.3773	24146.21	3.6820	3.6819	-1.1275	25.00	0.32	-0.750			
0.3806	24355.66	3.6790	3.6797	-1.1772	25.00	0.32	-0.750	0.356	0.507	
0.3842	24586.69	3.6760	3.6761	-1.1898	25.00	0.32	-0.750			
0.3878	24819.06	3.6730	3.6730	-1.2371	24.99	0.31	-0.750			
0.3916	25060.46	3.6700	3.6698	-1.2574	24.98	0.30	-0.750			
0.3956	25320.30	3.6670	3.6673	-1.2900	24.97	0.29	-0.750			
0.3995	25566.13	3.6640	3.6639	-1.2783	24.96	0.28	-0.750	0.378	0.509	
0.4033	25812.07	3.6610	3.6608	-1.2908	24.96	0.28	-0.750			
0.4071	26053.61	3.6580	3.6581	-1.3137	24.95	0.27	-0.750			
0.4112	26316.19	3.6550	3.6547	-1.3395	24.94	0.26	-0.750			
0.4152	26572.68	3.6520	3.6518	-1.3445	24.93	0.25	-0.750			
0.4194	26843.92	3.6490	3.6490	-1.4057	24.92	0.24	-0.750	0.386	0.518	
0.4236	27111.17	3.6460	3.6457	-1.4328	24.91	0.23	-0.750			
0.4279	27388.42	3.6430	3.6426	-1.4628	24.91	0.23	-0.750			
0.4329	27704.71	3.6400	3.6402	-1.3413	24.90	0.22	-0.750			
0.4367	27947.39	3.6370	3.6367	-1.4216	24.89	0.21	-0.750			
0.4409	28217.52	3.6340	3.6349	-1.4830	24.89	0.21	-0.750	0.391	0.534	
0.4453	28497.01	3.6310	3.6315	-1.5260	24.88	0.20	-0.750			
0.4500	28796.97	3.6280	3.6290	-1.5834	24.87	0.19	-0.750			
0.4547	29103.33	3.6250	3.6254	-1.6250	24.86	0.18	-0.750			
0.4601	29447.06	3.6220	3.6216	-1.7003	24.86	0.18	-0.750	0.394	0.535	
0.4653	29781.96	3.6190	3.6190	-1.6986	24.85	0.17	-0.750			
0.4706	30119.24	3.6160	3.6161	-1.7378	24.84	0.16	-0.750			
0.4758	30453.14	3.6130	3.6130	-1.7624	24.83	0.15	-0.750			
0.4811	30792.60	3.6100	3.6105	-1.8024	24.82	0.14	-0.750	0.408	0.534	
0.4866	31144.29	3.6070	3.6069	-1.8228	24.81	0.13	-0.750			
0.4922	31498.59	3.6040	3.6039	-1.8678	24.80	0.12	-0.750			
0.4978	31859.61	3.6010	3.6014	-1.8879	24.80	0.12	-0.750	0.381	0.543	
0.5036	32227.35	3.5980	3.5976	-1.9388	24.79	0.11	-0.750			
0.5094	32604.46	3.5950	3.5947	-1.9665	24.78	0.10	-0.750			
0.5154	32988.47	3.5920	3.5918	-2.0084	24.77	0.09	-0.750			
0.5214	33371.48	3.5890	3.5894	-2.0665	24.76	0.08	-0.750	0.406	0.544	
0.5278	33776.25	3.5860	3.5861	-2.0744	24.75	0.07	-0.750			
0.5340	34177.52	3.5830	3.5832	-2.1007	24.74	0.06	-0.750			
0.5405	34589.29	3.5800	3.5812	-2.1356	24.74	0.06	-0.749	0.380	0.529	
0.5469	35003.94	3.5770	3.5765	-2.1779	24.74	0.06	-0.750			
0.5536	35428.34	3.5740	3.5737	-2.2067	24.73	0.05	-0.750			
0.5601	35848.93	3.5710	3.5707	-2.2336	24.73	0.05	-0.750	0.377	0.519	
0.5672	36301.05	3.5680	3.5682	-2.2729	24.72	0.04	-0.750			
0.5739	36730.03	3.5650	3.5652	-2.2436	24.72	0.04	-0.750			
0.5808	37169.94	3.5620	3.5618	-2.2486	24.72	0.04	-0.750	0.384	0.530	
0.5874	37593.77	3.5590	3.5590	-2.2474	24.72	0.04	-0.750			
0.5941	38022.56	3.5560	3.5559	-2.2433	24.73	0.05	-0.750			
0.6009	38456.39	3.5530	3.5534	-2.2549	24.73	0.05	-0.750	0.376	0.530	
0.6076	38889.45	3.5500	3.5500	-2.2402	24.73	0.05	-0.750			
0.6146	39334.29	3.5470	3.5467	-2.1865	24.74	0.06	-0.750			
0.6211	39751.44	3.5440	3.5440	-2.1646	24.74	0.06	-0.750	0.380	0.530	
0.6277	40172.22	3.5410	3.5408	-2.1362	24.75	0.07	-0.750			
0.6338	40562.30	3.5380	3.5378	-2.0935	24.76	0.08	-0.750			
0.6399	40956.75	3.5350	3.5352	-2.0583	24.77	0.09	-0.750	0.389	0.537	
0.6462	41356.01	3.5320	3.5320	-2.0271	24.78	0.10	-0.750			
0.6523	41748.74	3.5290	3.5288	-1.9933	24.79	0.11	-0.750			
0.6582	42126.81	3.5260	3.5262	-1.9300	24.80	0.12	-0.750	0.394	0.552	
0.6641	42500.09	3.5230	3.5235	-1.9030	24.82	0.14	-0.750			
0.6698	42866.21	3.5200	3.5200	-1.8262	24.84	0.16	-0.750			
0.6751	43206.95	3.5170	3.5167	-1.7677	24.85	0.17	-0.750			
0.6804	43543.77	3.5140	3.5145	-1.7026	24.86	0.18	-0.750	0.404	0.571	
0.6853	43862.34	3.5110	3.5105	-1.6665	24.88	0.20	-0.750			
0.6902	44173.03	3.5080	3.5077	-1.5897	24.90	0.22	-0.750			
0.6948	44468.92	3.5050	3.5056	-1.5258	24.92	0.24	-0.750			
0.6995	44767.92	3.5020	3.5023	-1.4994	24.93	0.25	-0.750	0.411	0.578	
0.7038	45045.14	3.4990	3.4987	-1.4302	24.95	0.27	-0.750			
0.7081	45319.41	3.4960	3.4960	-1.3996	24.96	0.28	-0.750			
0.7121	45575.53	3.4930	3.4928	-1.3434	24.97	0.29	-0.750			
0.7161	45829.83	3.4900	3.4899	-1.2945	24.99	0.31	-0.750			
0.7200	46081.14	3.4870	3.4873	-1.2671	25.00	0.32	-0.750	0.367	0.560	
0.7237	46319.92	3.4840	3.4837	-1.2208	25.02	0.34	-0.750			
0.7273	46547.76	3.4810	3.4808	-1.1725	25.04	0.36	-0.750			
0.7306	46760.42	3.4780	3.4780	-1.1339	25.05	0.37	-0.750			
0.7340	46975.21	3.4750	3.4748	-1.1459	25.07	0.39	-0.750			
0.7374	47191.95	3.4720	3.4719	-1.1211	25.08	0.40	-0.750			
0.7408	47408.15	3.4690	3.4695	-1.0971	25.09	0.41	-0.750	0.391	0.580	
0.7440	47615.52	3.4660	3.4663	-1.0722	25.11	0.43	-0.750			
0.7473	47824.66	3.4630	3.4631	-1.0651	25.12	0.44	-0.750			
0.7504	48023.88	3.4600	3.4600	-1.0556	25.13	0.45	-0.750			
0.7534	48217.46	3.4570	3.4569	-1.0456	25.14	0.46	-0.750			
0.7564	48412.44	3.4540	3.4539	-1.0567	25.16	0.48	-0.750			
0.7597	48620.68	3.4510	3.4510	-1.1140	25.17	0.49	-0.750	0.394	0.581	
0.7631	48837.53	3.4480	3.4477	-1.1641	25.18	0.50	-0.750			
0.7666	49061.47	3.4450	3.4449	-1.2349	25.19	0.51	-0.750			
0.7705	49308.87	3.4420	3.4422	-1.3030	25.20	0.52	-0.750			
0.7747	49579.09	3.4390	3.4387	-1.3362	25.22	0.54	-0.750			
0.7788	49845.39	3.4360	3.4357	-1.3534	25.24	0.56	-0.750	0.369	0.563	
0.7830	50110.34	3.4330	3.4331	-1.3588	25.25	0.57	-0.750			
0.7871	50375.91	3.4300	3.4298	-1.3637	25.26	0.58	-0.750			
0.7912	50634.13	3.4270	3.4268	-1.3245	25.27	0.59	-0.750			
0.7950	50881.57	3.4240	3.4243	-1.2933	25.28	0.60	-0.750			
0.7990	51135.48	3.4210	3.4207	-1.2768	25.29	0.61	-0.750	0.360	0.567	
0.8027	51374.85	3.4180	3.4180	-1.2318	25.30	0.62	-0.750			
0.8063	51606.04	3.4150	3.4150	-1.1843	25.31	0.63	-0.750			
0.8098	51826.77	3.4120	3.4119	-1.1618	25.32	0.64	-0.750			
0.8132	52046.79	3.4090	3.4089	-1.1169	25.33	0.65	-0.750			
0.8166	52262.30	3.4060	3.4059	-1.0757	25.34	0.66	-0.750			
0.8197	52461.84	3.4030	3.4031	-1.0329	25.35	0.67	-0.750	0.366	0.584	
0.8228	52659.16	3.4000	3.3998	-1.0013	25.36	0.68	-0.750			
0.8257	52845.42	3.3970	3.3968	-0.9650	25.36	0.68	-0.750			
0.8285	53022.14	3.3940	3.3938	-0.9292	25.37	0.69	-0.750			
0.8312	53195.32	3.3910	3.3912	-0.9016	25.38	0.70	-0.750			
0.8340	53373.03	3.3880	3.3880	-0.8730	25.39	0.71	-0.750			
0.8366	53541.58	3.3850	3.3849	-0.8310	25.40	0.72	-0.750			
0.8390	53696.90	3.3820	3.3817	-0.7788	25.41	0.73	-0.750			
0.8413	53840.55	3.3790	3.3794	-0.7304	25.42	0.74	-0.750	0.367	0.594	
0.8434	53975.66	3.3760	3.3759	-0.6835	25.43	0.75	-0.750			
0.8453	54100.29	3.3730	3.3730	-0.6394	25.44	0.76	-0.750			
0.8471	54215.32	3.3700	3.3701	-0.5920	25.45	0.77	-0.750			
0.8489	54328.74	3.3670	3.3670	-0.5566	25.45	0.77	-0.750			
0.8505	54431.74	3.3640	3.3640	-0.5205	25.46	0.78	-0.750			
0.8520	54527.95	3.3610	3.3611	-0.4918	25.46	0.78	-0.750			
0.8534	54617.26	3.3580	3.3580	-0.4593	25.47	0.79	-0.750			
0.8547	54701.54	3.3550	3.3548	-0.4284	25.47	0.79	-0.750			
0.8559	54780.64	3.3520	3.3521	-0.4056	25.48	0.80	-0.750			
0.8571	54855.33	3.3490	3.3492	-0.3907	25.48	0.80	-0.750			
0.8583	54929.05	3.3460	3.3458	-0.3716	25.49	0.81	-0.750			
0.8593	54998.11	3.3430	3.3428	-0.3493	25.49	0.81	-0.750			
0.8604	55063.47	3.3400	3.3399	-0.3314	25.50	0.82	-0.750	0.367	0.609	
0.8613	55125.71	3.3370	3.3373	-0.3159	25.51	0.83	-0.750			
0.8623	55185.43	3.3340	3.3339	-0.3015	25.51	0.83	-0.750			
0.8631	55239.81	3.3310	3.3309	-0.2865	25.52	0.84	-0.750			
0.8639	55291.48	3.3280	3.3280	-0.2709	25.52	0.84	-0.750			
0.8647	55343.58	3.3250	3.3250	-0.2666	25.53	0.85	-0.750			
0.8655	55393.90	3.3220	3.3220	-0.2584	25.53	0.85	-0.750			
0.8663	55442.46	3.3190	3.3191	-0.2513	25.54	0.86	-0.750			
0.8670	55489.64	3.3160	3.3159	-0.2452	25.54	0.86	-0.750			
0.8678	55536.12	3.3130	3.3131	-0.2384	25.55	0.87	-0.750			
0.8685	55581.95	3.3100	3.3100	-0.2319	25.55	0.87	-0.750			
0.8692	55625.84	3.3070	3.3071	-0.2265	25.56	0.88	-0.750			
0.8698	55668.76	3.3040	3.3043	-0.2196	25.56	0.88	-0.750			
0.8705	55709.54	3.3010	3.3010	-0.2135	25.57	0.89	-0.750			
0.8711	55749.98	3.2980	3.2980	-0.2089	25.57	0.89	-0.750			
0.8717	55789.17	3.2950	3.2949	-0.2042	25.58	0.90	-0.750			
0.8723	55827.57	3.2920	3.2920	-0.2000	25.58	0.90	-0.750			
0.8729	55865.74	3.2890	3.2891	-0.1978	25.58	0.90	-0.750			
0.8735	55903.90	3.2860	3.2859	-0.1946	25.59	0.91	-0.750			
0.8741	55940.62	3.2830	3.2830	-0.1902	25.59	0.91	-0.750			
0.8746	55976.92	3.2800	3.2799	-0.1859	25.60	0.92	-0.750			
0.8752	56012.08	3.2770	3.2771	-0.1832	25.60	0.92	-0.750			
0.8757	56046.83	3.2740	3.2740	-0.1806	25.61	0.93	-0.750			
0.8763	56081.22	3.2710	3.2709	-0.1777	25.61	0.93	-0.750			
0.8768	56114.86	3.2680	3.2679	-0.1748	25.62	0.94	-0.750			
0.8773	56147.78	3.2650	3.2651	-0.1721	25.62	0.94	-0.750			
0.8778	56181.02	3.2620	3.2621	-0.1706	25.63	0.95	-0.750			
0.8783	56213.54	3.2590	3.2589	-0.1681	25.63	0.95	-0.750			
0.8788	56245.30	3.2560	3.2560	-0.1695	25.63	0.95	-0.750			
0.8793	56277.62	3.2530	3.2530	-0.1668	25.64	0.96	-0.750			
0.8799	56310.42	3.2500	3.2497	-0.1640	25.64	0.96	-0.750			
0.8803	56341.60	3.2470	3.2467	-0.1608	25.65	0.97	-0.750			
0.8808	56372.69	3.2440	3.2447	-0.1590	25.65	0.97	-0.750	0.372	0.635	
0.8813	56403.22	3.2410	3.2408	-0.1555	25.65	0.97	-0.750			
0.8818	56432.42	3.2380	3.2377	-0.1520	25.66	0.98	-0.750			
0.8822	56459.88	3.2350	3.2352	-0.1471	25.66	0.98	-0.750			
0.8826	56488.10	3.2320	3.2322	-0.1469	25.67	0.99	-0.750			
0.8831	56516.57	3.2290	3.2290	-0.1466	25.68	1.00	-0.750			
0.8835	56545.00	3.2260	3.2259	-0.1449	25.68	1.00	-0.750			
0.8839	56572.39	3.2230	3.2230	-0.1423	25.68	1.00	-0.750			
0.8844	56599.59	3.2200	3.2201	-0.1410	25.69	1.01	-0.750			
0.8848	56626.80	3.2170	3.2171	-0.1410	25.69	1.01	-0.750			
0.8852	56653.71	3.2140	3.2140	-0.1392	25.69	1.01	-0.750			
0.8856	56679.89	3.2110	3.2108	-0.1370	25.70	1.02	-0.750			
0.8860	56706.20	3.2080	3.2080	-0.1361	25.70	1.02	-0.750			
0.8864	56732.29	3.2050	3.2052	-0.1353	25.70	1.02	-0.750			
0.8869	56758.69	3.2020	3.2020	-0.1344	25.71	1.03	-0.750			
0.8873	56784.24	3.1990	3.1989	-0.1325	25.71	1.03	-0.750			
0.8876	56809.38	3.1960	3.1959	-0.1309	25.71	1.03	-0.750			
0.8880	56834.10	3.1930	3.1930	-0.1290	25.72	1.04	-0.750			
0.8884	56859.06	3.1900	3.1901	-0.1278	25.72	1.04	-0.750			
0.8888	56883.40	3.1870	3.1870	-0.1258	25.72	1.04	-0.750			
0.8892	56907.03	3.1840	3.1842	-0.1250	25.73	1.05	-0.750			
0.8895	56930.88	3.1810	3.1811	-0.1245	25.73	1.05	-0.750			
0.8899	56954.60	3.1780	3.1778	-0.1238	25.73	1.05	-0.750			
0.8903	56978.55	3.1750	3.1750	-0.1225	25.74	1.06	-0.750			
0.8907	57001.98	3.1720	3.1720	-0.1215	25.74	1.06	-0.750			
0.8910	57025.41	3.1690	3.1691	-0.1204	25.74	1.06	-0.750			
0.8914	57048.85	3.1660	3.1661	-0.1198	25.75	1.07	-0.750			
0.8917	57071.45	3.1630	3.1629	-0.1181	25.75	1.07	-0.750			
0.8921	57093.72	3.1600	3.1600	-0.1160	25.75	1.07	-0.750			
0.8924	57115.75	3.1570	3.1571	-0.1150	25.76	1.08	-0.750			
0.8928	57137.45	3.1540	3.1540	-0.1136	25.76	1.08	-0.750			
0.8931	57159.20	3.1510	3.1510	-0.1130	25.76	1.08	-0.750			
0.8935	57180.89	3.1480	3.1481	-0.1123	25.76	1.08	-0.750			
0.8938	57202.44	3.1450	3.1448	-0.1113	25.77	1.09	-0.750			
0.8941	57223.70	3.1420	3.1421	-0.1104	25.77	1.09	-0.750			
0.8945	57244.87	3.1390	3.1392	-0.1090	25.77	1.09	-0.750			
0.8948	57265.87	3.1360	3.1360	-0.1079	25.77	1.09	-0.750			
0.8951	57286.39	3.1330	3.1331	-0.1069	25.77	1.09	-0.750			
0.8954	57306.73	3.1300	3.1300	-0.1056	25.78	1.10	-0.750			
0.8957	57326.58	3.1270	3.1272	-0.1048	25.78	1.10	-0.750			
0.8960	57346.67	3.1240	3.1238	-0.1044	25.78	1.10	-0.750			
0.8964	57366.72	3.1210	3.1209	-0.1035	25.79	1.11	-0.750			
0.8967	57386.53	3.1180	3.1181	-0.1029	25.79	1.11	-0.750			
0.8970	57406.46	3.1150	3.1150	-0.1022	25.79	1.11	-0.750			
0.8973	57425.97	3.1120	3.1121	-0.1010	25.80	1.12	-0.750			
0.8976	57445.33	3.1090	3.1089	-0.1001	25.80	1.12	-0.750			
0.8979	57464.43	3.1060	3.1060	-0.0989	25.80	1.12	-0.750			
0.8982	57483.08	3.1030	3.1031	-0.0976	25.80	1.12	-0.750			
0.8985	57501.74	3.1000	3.1000	-0.0968	25.81	1.13	-0.750			
0.8988	57520.23	3.0970	3.0970	-0.0961	25.81	1.13	-0.750			
0.8990	57538.61	3.0940	3.0940	-0.0953	25.81	1.13	-0.750			
0.8993	57556.01	3.0910	3.0910	-0.0964	25.82	1.14	-0.750			
0.8996	57574.66	3.0880	3.0881	-0.0979	25.82	1.14	-0.750			
0.8999	57594.08	3.0850	3.0847	-0.0968	25.82	1.14	-0.750			
0.9002	57612.65	3.0820	3.0818	-0.0967	25.82	1.14	-0.750			
0.9005	57632.42	3.0790	3.0786	-0.0953	25.83	1.15	-0.750			
0.9008	57650.40	3.0760	3.0789	-0.0920	25.83	1.15	-0.750	0.381	0.655	
0.9011	57667.88	3.0730	3.0733	-0.0916	25.83	1.15	-0.750			
0.9013	57685.18	3.0700	3.0698	-0.0886	25.84	1.16	-0.750			
0.9016	57700.44	3.0670	3.0669	-0.0852	25.84	1.16	-0.750			
0.9018	57716.82	3.0640	3.0638	-0.0855	25.84	1.16	-0.750			
0.9021	57733.55	3.0610	3.0611	-0.0852	25.84	1.16	-0.750			
0.9023	57749.89	3.0580	3.0580	-0.0849	25.85	1.17	-0.750			
0.9026	57766.17	3.0550	3.0552	-0.0847	25.85	1.17	-0.750			
0.9029	57782.74	3.0520	3.0520	-0.0849	25.85	1.17	-0.750			
0.9031	57798.97	3.0490	3.0490	-0.0842	25.85	1.17	-0.750			
0.9034	57814.75	3.0460	3.0461	-0.0834	25.86	1.18	-0.750			
0.9036	57830.84	3.0430	3.0427	-0.0827	25.86	1.18	-0.750			
0.9039	57846.65	3.0400	3.0399	-0.0821	25.86	1.18	-0.750			
0.9041	57862.42	3.0370	3.0370	-0.0815	25.86	1.18	-0.750			
0.9043	57878.02	3.0340	3.0342	-0.0810	25.87	1.19	-0.750			
0.9046	57893.72	3.0310	3.0311	-0.0805	25.87	1.19	-0.750			
0.9048	57909.00	3.0280	3.0279	-0.0799	25.87	1.19	-0.750			
0.9051	57924.08	3.0250	3.0251	-0.0790	25.87	1.19	-0.750			
0.9053	57939.21	3.0220	3.0221	-0.0786	25.88	1.20	-0.750			
0.9055	57954.27	3.0190	3.0189	-0.0782	25.88	1.20	-0.750			
0.9058	57969.27	3.0160	3.0161	-0.0778	25.88	1.20	-0.750			
0.9060	57984.17	3.0130	3.0130	-0.0774	25.88	1.20	-0.750			
0.9062	57998.98	3.0100	3.0100	-0.0770	25.89	1.21	-0.750			
0.9065	58013.71	3.0070	3.0070	-0.0766	25.89	1.21	-0.750			
0.9067	58028.37	3.0040	3.0040	-0.0762	25.89	1.21	-0.750			
