Ah_balance (normalized)	Ah_balance (mAh)	Voltage - fit (V)	Voltage -  interpolate (V)	dQ/dV (1/V)	Temperature (°C)	Temperature - diff (°C)	Current (C)	R_DC 0ms (mOhm)	R_DC 50ms (mOhm)	R_DC 50 ms PEC (mOhm)
0.0490	3138.06	4.1970	4.1968	0.7527	25.35	0.48	0.750			
0.0513	3283.67	4.1940	4.1941	0.7602	25.35	0.48	0.750			
0.0536	3431.69	4.1910	4.1910	0.7602	25.35	0.48	0.750			
0.0559	3575.82	4.1880	4.1880	0.7564	25.35	0.48	0.750			
0.0581	3720.21	4.1850	4.1851	0.7518	25.35	0.48	0.750			
0.0604	3864.97	4.1820	4.1820	0.7540	25.35	0.48	0.750			
0.0626	4008.95	4.1790	4.1790	0.7539	25.35	0.48	0.750			
0.0649	4154.54	4.1760	4.1760	0.7531	25.35	0.48	0.750			
0.0672	4302.30	4.1730	4.1730	0.7423	25.35	0.48	0.750			
0.0694	4442.09	4.1700	4.1701	0.7499	25.35	0.48	0.750			
0.0716	4584.03	4.1670	4.1671	0.7524	25.35	0.48	0.750			
0.0739	4727.52	4.1640	4.1638	0.7552	25.35	0.48	0.750			
0.0761	4872.90	4.1610	4.1611	0.7629	25.35	0.48	0.750			
0.0785	5022.28	4.1580	4.1581	0.7649	25.35	0.48	0.750			
0.0808	5171.08	4.1550	4.1550	0.7690	25.36	0.49	0.750			
0.0831	5320.51	4.1520	4.1521	0.7638	25.36	0.49	0.750			
0.0854	5465.99	4.1490	4.1491	0.7649	25.36	0.49	0.750			
0.0877	5612.90	4.1460	4.1460	0.7630	25.36	0.49	0.750			
0.0900	5759.77	4.1430	4.1430	0.7650	25.36	0.49	0.750			
0.0923	5905.51	4.1400	4.1400	0.7644	25.36	0.49	0.750			
0.0946	6053.38	4.1370	4.1370	0.7653	25.37	0.50	0.750			
0.0969	6199.96	4.1340	4.1340	0.7669	25.37	0.50	0.750			
0.0992	6347.40	4.1310	4.1310	0.7718	25.37	0.50	0.750			
0.1015	6495.58	4.1280	4.1280	0.7737	25.37	0.50	0.750			
0.1039	6647.20	4.1250	4.1249	0.7708	25.37	0.50	0.750			
0.1062	6793.92	4.1220	4.1221	0.7753	25.37	0.50	0.750			
0.1085	6943.00	4.1190	4.1190	0.7767	25.37	0.50	0.750			
0.1108	7092.32	4.1160	4.1160	0.7774	25.37	0.50	0.750			
0.1131	7240.05	4.1130	4.1131	0.7764	25.37	0.50	0.750			
0.1155	7390.15	4.1100	4.1100	0.7771	25.37	0.50	0.750			
0.1178	7540.46	4.1070	4.1070	0.7831	25.37	0.50	0.750			
0.1202	7691.85	4.1040	4.1040	0.7843	25.37	0.50	0.750			
0.1225	7840.26	4.1010	4.1011	0.7817	25.37	0.50	0.750			
0.1249	7991.48	4.0980	4.0981	0.7878	25.37	0.50	0.750			
0.1272	8143.34	4.0950	4.0951	0.7906	25.37	0.50	0.750			
0.1296	8294.96	4.0920	4.0920	0.7909	25.37	0.50	0.750			
0.1320	8447.41	4.0890	4.0890	0.7936	25.37	0.50	0.750			
0.1344	8598.92	4.0860	4.0861	0.7944	25.37	0.50	0.750			
0.1368	8752.60	4.0830	4.0828	0.7984	25.37	0.50	0.750			
0.1392	8906.01	4.0800	4.0801	0.7986	25.37	0.50	0.750			
0.1416	9062.63	4.0770	4.0769	0.7871	25.37	0.50	0.750			
0.1439	9211.76	4.0740	4.0741	0.7973	25.38	0.51	0.750			
0.1463	9363.71	4.0710	4.0710	0.8040	25.38	0.51	0.750			
0.1487	9516.93	4.0680	4.0680	0.8064	25.38	0.51	0.750			
0.1511	9672.30	4.0650	4.0652	0.8120	25.38	0.51	0.750			
0.1536	9832.42	4.0620	4.0621	0.8091	25.38	0.51	0.750			
0.1560	9987.18	4.0590	4.0591	0.8166	25.38	0.51	0.750			
0.1585	10145.71	4.0560	4.0560	0.8230	25.38	0.51	0.750			
0.1609	10298.74	4.0530	4.0532	0.8148	25.38	0.51	0.750			
0.1634	10455.91	4.0500	4.0501	0.8198	25.38	0.51	0.750			
0.1659	10615.56	4.0470	4.0470	0.8233	25.38	0.51	0.750			
0.1683	10774.02	4.0440	4.0440	0.8271	25.38	0.51	0.750			
0.1709	10935.32	4.0410	4.0410	0.8346	25.38	0.51	0.750			
0.1733	11092.03	4.0380	4.0380	0.8274	25.38	0.51	0.750			
0.1758	11252.17	4.0350	4.0350	0.8337	25.38	0.51	0.750			
0.1784	11417.00	4.0320	4.0320	0.8191	25.39	0.52	0.750			
0.1808	11570.77	4.0290	4.0291	0.8242	25.39	0.52	0.750			
0.1832	11727.50	4.0260	4.0261	0.8310	25.39	0.52	0.750			
0.1857	11885.45	4.0230	4.0231	0.8343	25.40	0.53	0.750			
0.1882	12044.95	4.0200	4.0201	0.8369	25.40	0.53	0.750			
0.1908	12208.46	4.0170	4.0171	0.8396	25.40	0.53	0.750			
0.1933	12371.00	4.0140	4.0141	0.8505	25.40	0.53	0.750			
0.1959	12536.65	4.0110	4.0110	0.8597	25.40	0.53	0.750			
0.1984	12699.67	4.0080	4.0081	0.8520	25.40	0.53	0.750			
0.2010	12864.26	4.0050	4.0051	0.8596	25.40	0.53	0.750			
0.2036	13030.58	4.0020	4.0021	0.8626	25.40	0.53	0.750			
0.2062	13197.52	3.9990	3.9991	0.8673	25.40	0.53	0.750			
0.2088	13365.67	3.9960	3.9959	0.8734	25.40	0.53	0.750			
0.2114	13530.95	3.9930	3.9929	0.8673	25.40	0.53	0.750			
0.2140	13697.27	3.9900	3.9901	0.8693	25.40	0.53	0.750			
0.2167	13869.16	3.9870	3.9869	0.8503	25.40	0.53	0.750			
0.2192	14028.67	3.9840	3.9841	0.8649	25.40	0.53	0.750			
0.2218	14192.42	3.9810	3.9811	0.8643	25.40	0.53	0.750			
0.2244	14359.28	3.9780	3.9773	0.8744	25.40	0.53	0.750			
0.2270	14526.28	3.9750	3.9752	0.8839	25.40	0.53	0.750			
0.2297	14698.96	3.9720	3.9722	0.8840	25.40	0.53	0.750			
0.2324	14871.17	3.9690	3.9691	0.8899	25.41	0.54	0.750			
0.2351	15043.34	3.9660	3.9661	0.8824	25.41	0.54	0.750			
0.2377	15212.73	3.9630	3.9632	0.8830	25.41	0.54	0.750			
0.2404	15382.76	3.9600	3.9600	0.8838	25.41	0.54	0.750			
0.2430	15551.74	3.9570	3.9571	0.8833	25.41	0.54	0.750			
0.2457	15722.41	3.9540	3.9540	0.8829	25.40	0.53	0.750			
0.2483	15890.90	3.9510	3.9510	0.8807	25.40	0.53	0.750			
0.2509	16060.47	3.9480	3.9479	0.8810	25.40	0.53	0.750			
0.2536	16229.46	3.9450	3.9450	0.8835	25.40	0.53	0.750			
0.2562	16395.87	3.9420	3.9420	0.8765	25.40	0.53	0.750			
0.2588	16562.88	3.9390	3.9391	0.8809	25.40	0.53	0.750			
0.2614	16731.00	3.9360	3.9358	0.8802	25.40	0.53	0.750			
0.2641	16901.82	3.9330	3.9331	0.8862	25.40	0.53	0.750			
0.2668	17072.84	3.9300	3.9302	0.8817	25.40	0.53	0.750			
0.2694	17243.04	3.9270	3.9271	0.8866	25.39	0.52	0.750			
0.2722	17418.56	3.9240	3.9239	0.8920	25.39	0.52	0.750			
0.2747	17581.26	3.9210	3.9210	0.8729	25.39	0.52	0.750			
0.2773	17748.62	3.9180	3.9181	0.8741	25.39	0.52	0.750			
0.2799	17916.23	3.9150	3.9152	0.8826	25.39	0.52	0.750			
0.2826	18087.74	3.9120	3.9119	0.8880	25.38	0.51	0.750			
0.2853	18258.59	3.9090	3.9090	0.8838	25.38	0.51	0.750			
0.2880	18428.83	3.9060	3.9061	0.8853	25.38	0.51	0.750			
0.2906	18599.10	3.9030	3.9031	0.8862	25.37	0.50	0.750			
0.2932	18767.49	3.9000	3.9001	0.8786	25.37	0.50	0.750			
0.2959	18934.77	3.8970	3.8970	0.8781	25.37	0.50	0.750			
0.2984	19100.53	3.8940	3.8942	0.8784	25.36	0.49	0.750			
0.3011	19270.16	3.8910	3.8912	0.8864	25.35	0.48	0.750			
0.3038	19441.24	3.8880	3.8881	0.8874	25.35	0.48	0.750			
0.3065	19613.69	3.8850	3.8850	0.8914	25.34	0.47	0.750			
0.3092	19787.88	3.8820	3.8821	0.8987	25.33	0.46	0.750			
0.3118	19955.85	3.8790	3.8785	0.8884	25.32	0.45	0.750			
0.3145	20129.17	3.8760	3.8761	0.8908	25.32	0.45	0.750			
0.3172	20299.37	3.8730	3.8731	0.8920	25.31	0.44	0.750			
0.3199	20471.09	3.8700	3.8700	0.8970	25.31	0.44	0.750			
0.3226	20644.66	3.8670	3.8670	0.8973	25.30	0.43	0.750			
0.3252	20814.16	3.8640	3.8640	0.8995	25.30	0.43	0.750			
0.3280	20988.96	3.8610	3.8610	0.8893	25.29	0.42	0.750			
0.3306	21159.63	3.8580	3.8580	0.8947	25.29	0.42	0.750			
0.3333	21330.83	3.8550	3.8551	0.8973	25.28	0.41	0.750			
0.3360	21501.09	3.8520	3.8521	0.9048	25.27	0.40	0.750			
0.3387	21674.57	3.8490	3.8491	0.8929	25.26	0.39	0.750			
0.3413	21842.30	3.8460	3.8461	0.9094	25.25	0.38	0.750			
0.3440	22014.12	3.8430	3.8432	0.9241	25.24	0.37	0.750			
0.3468	22196.55	3.8400	3.8404	0.9483	25.23	0.36	0.750	0.296	0.444	
0.3497	22378.43	3.8370	3.8367	0.9571	25.22	0.35	0.750			
0.3526	22567.46	3.8340	3.8342	0.9647	25.21	0.34	0.750			
0.3556	22756.39	3.8310	3.8311	0.9728	25.20	0.33	0.750			
0.3585	22943.48	3.8280	3.8281	0.9634	25.19	0.32	0.750			
0.3614	23128.69	3.8250	3.8248	0.9625	25.18	0.31	0.750			
0.3643	23312.63	3.8220	3.8221	0.9682	25.17	0.30	0.750			
0.3672	23498.70	3.8190	3.8191	0.9632	25.16	0.29	0.750			
0.3700	23682.32	3.8160	3.8161	0.9791	25.15	0.28	0.750			
0.3730	23871.50	3.8130	3.8131	0.9936	25.14	0.27	0.750			
0.3760	24062.56	3.8100	3.8101	0.9904	25.14	0.27	0.750			
0.3789	24252.64	3.8070	3.8072	1.0114	25.13	0.26	0.750			
0.3820	24447.73	3.8040	3.8041	1.0337	25.12	0.25	0.750			
0.3851	24649.36	3.8010	3.8010	1.0540	25.11	0.24	0.750			
0.3883	24852.04	3.7980	3.7979	1.0566	25.10	0.23	0.750			
0.3915	25058.17	3.7950	3.7951	1.0729	25.09	0.22	0.750			
0.3948	25268.25	3.7920	3.7921	1.0920	25.07	0.20	0.750			
0.3981	25480.47	3.7890	3.7890	1.1079	25.06	0.19	0.750			
0.4015	25698.00	3.7860	3.7859	1.0803	25.06	0.19	0.750			
0.4047	25899.10	3.7830	3.7831	1.1137	25.05	0.18	0.750			
0.4080	26113.35	3.7800	3.7802	1.1397	25.04	0.17	0.750			
0.4116	26340.09	3.7770	3.7764	1.1474	25.03	0.16	0.750			
0.4150	26556.84	3.7740	3.7743	1.1766	25.02	0.15	0.750			
0.4185	26783.09	3.7710	3.7712	1.2038	25.01	0.14	0.750			
0.4222	27019.62	3.7680	3.7682	1.2343	25.01	0.14	0.750			
0.4259	27258.67	3.7650	3.7648	1.2526	25.00	0.13	0.750			
0.4297	27503.15	3.7620	3.7622	1.2876	24.98	0.11	0.750			
0.4337	27756.59	3.7590	3.7591	1.3176	24.97	0.10	0.750			
0.4377	28009.97	3.7560	3.7560	1.3855	24.96	0.09	0.750			
0.4418	28277.82	3.7530	3.7531	1.4225	24.95	0.08	0.750			
0.4463	28560.32	3.7500	3.7493	1.4646	24.94	0.07	0.750			
0.4508	28848.56	3.7470	3.7474	1.4934	24.93	0.06	0.750			
0.4553	29141.08	3.7440	3.7443	1.5266	24.91	0.04	0.750			
0.4601	29448.74	3.7410	3.7409	1.5407	24.90	0.03	0.750			
0.4647	29743.96	3.7380	3.7376	1.5447	24.88	0.01	0.750			
0.4692	30028.91	3.7350	3.7352	1.5531	24.87	0.00	0.750			
0.4739	30326.93	3.7320	3.7321	1.6039	24.86	-0.01	0.750			
0.4786	30633.38	3.7290	3.7291	1.6625	24.85	-0.02	0.750			
0.4838	30960.38	3.7260	3.7261	1.6962	24.83	-0.04	0.750			
0.4889	31292.10	3.7230	3.7230	1.7770	24.82	-0.05	0.750			
0.4945	31651.17	3.7200	3.7199	1.8177	24.80	-0.07	0.750			
0.5001	32005.20	3.7170	3.7171	1.8686	24.79	-0.08	0.750			
0.5057	32362.24	3.7140	3.7142	1.9236	24.78	-0.09	0.750			
0.5114	32732.55	3.7110	3.7110	1.9738	24.76	-0.11	0.750			
0.5175	33118.18	3.7080	3.7079	2.0167	24.75	-0.12	0.750			
0.5237	33517.99	3.7050	3.7049	2.0747	24.74	-0.13	0.750			
0.5300	33921.18	3.7020	3.7022	2.1287	24.73	-0.14	0.750			
0.5365	34335.15	3.6990	3.6990	2.1842	24.72	-0.15	0.750			
0.5431	34758.39	3.6960	3.6957	2.2556	24.71	-0.16	0.750			
0.5499	35191.51	3.6930	3.6932	2.3159	24.70	-0.17	0.750			
0.5570	35648.71	3.6900	3.6900	2.3637	24.69	-0.18	0.750			
0.5644	36121.63	3.6870	3.6869	2.3939	24.69	-0.18	0.750			
0.5715	36576.01	3.6840	3.6840	2.4409	24.69	-0.18	0.750			
0.5788	37045.85	3.6810	3.6810	2.4113	24.69	-0.18	0.750			
0.5860	37507.18	3.6780	3.6780	2.3933	24.69	-0.18	0.750			
0.5934	37976.74	3.6750	3.6748	2.3291	24.69	-0.18	0.750			
0.6004	38424.03	3.6720	3.6719	2.2285	24.69	-0.18	0.750			
0.6068	38836.75	3.6690	3.6689	2.0957	24.70	-0.17	0.750			
0.6130	39230.71	3.6660	3.6659	1.9701	24.70	-0.17	0.750			
0.6186	39593.27	3.6630	3.6627	1.8267	24.71	-0.16	0.750			
0.6239	39927.42	3.6600	3.6601	1.6902	24.72	-0.15	0.750			
0.6287	40238.30	3.6570	3.6571	1.5693	24.73	-0.14	0.750			
0.6332	40525.75	3.6540	3.6542	1.4658	24.73	-0.14	0.750			
0.6375	40798.78	3.6510	3.6509	1.3589	24.74	-0.13	0.750			
0.6415	41054.22	3.6480	3.6480	1.2893	24.75	-0.12	0.750			
0.6451	41286.86	3.6450	3.6451	1.2055	24.76	-0.11	0.750			
0.6486	41511.07	3.6420	3.6419	1.1466	24.77	-0.10	0.750			
0.6519	41723.99	3.6390	3.6390	1.0730	24.78	-0.09	0.750			
0.6550	41922.33	3.6360	3.6360	1.0289	24.78	-0.09	0.750			
0.6580	42112.75	3.6330	3.6331	0.9912	24.79	-0.08	0.750			
0.6609	42298.75	3.6300	3.6299	0.9500	24.80	-0.07	0.750			
0.6637	42478.85	3.6270	3.6271	0.9203	24.81	-0.06	0.750			
0.6664	42652.31	3.6240	3.6241	0.8856	24.81	-0.06	0.750			
0.6690	42818.93	3.6210	3.6210	0.8418	24.82	-0.05	0.750			
0.6715	42978.94	3.6180	3.6180	0.8063	24.83	-0.04	0.750			
0.6739	43127.06	3.6150	3.6150	0.7602	24.84	-0.03	0.750			
0.6761	43269.29	3.6120	3.6120	0.7174	24.84	-0.03	0.750			
0.6782	43405.14	3.6090	3.6091	0.6725	24.85	-0.02	0.750			
0.6802	43530.95	3.6060	3.6061	0.6234	24.85	-0.02	0.750			
0.6821	43652.30	3.6030	3.6029	0.5729	24.86	-0.01	0.750			
0.6836	43750.46	3.6000	3.6000	0.5118	24.86	-0.01	0.750			
0.6850	43841.78	3.5970	3.5971	0.4604	24.87	-0.00	0.750			
0.6863	43924.70	3.5940	3.5940	0.4124	24.87	-0.00	0.750			
0.6875	43999.02	3.5910	3.5910	0.3665	24.87	0.00	0.750			
0.6885	44066.76	3.5880	3.5880	0.3145	24.87	0.00	0.750			
0.6894	44124.08	3.5850	3.5850	0.2697	24.88	0.01	0.750			
0.6902	44173.88	3.5820	3.5819	0.2213	24.88	0.01	0.750			
0.6908	44208.77	3.5790	3.5792	0.1616	24.88	0.01	0.750			
0.6912	44235.46	3.5760	3.5766	0.1061	24.88	0.01	0.750			
0.6914	44252.72	3.5730	3.5732	0.0430	24.88	0.01	0.750			
0.6915	44254.81	3.5700	3.5652	-0.0212	24.88	0.01	0.750			
