Ah_balance (normalized)	Ah_balance (mAh)	Voltage - fit (V)	Voltage -  interpolate (V)	dQ/dV (1/V)	Temperature (°C)	Temperature - diff (°C)	Current (C)	R_DC 0ms (mOhm)	R_DC 50ms (mOhm)	R_DC 50 ms PEC (mOhm)
0.0001	6.79	4.1630	4.1625	-0.0996	24.95	0.02	-0.750			
0.0005	31.06	4.1600	4.1598	-0.1489	24.95	0.02	-0.750			
0.0010	64.71	4.1570	4.1570	-0.1918	24.95	0.02	-0.750			
0.0016	104.93	4.1540	4.1539	-0.2306	24.95	0.02	-0.750			
0.0024	152.55	4.1510	4.1512	-0.2726	24.95	0.02	-0.750			
0.0033	209.09	4.1480	4.1480	-0.3129	24.95	0.02	-0.750			
0.0043	273.58	4.1450	4.1447	-0.3506	24.94	0.01	-0.750			
0.0054	345.63	4.1420	4.1421	-0.3877	24.94	0.01	-0.750			
0.0066	423.94	4.1390	4.1391	-0.4224	24.94	0.01	-0.750			
0.0080	509.83	4.1360	4.1360	-0.4576	24.93	0.00	-0.750			
0.0094	600.87	4.1330	4.1330	-0.4879	24.93	0.00	-0.750			
0.0109	696.81	4.1300	4.1299	-0.5153	24.93	-0.00	-0.750			
0.0125	799.92	4.1270	4.1270	-0.5405	24.92	-0.01	-0.750			
0.0142	908.66	4.1240	4.1240	-0.5614	24.92	-0.01	-0.750			
0.0159	1016.68	4.1210	4.1211	-0.5854	24.92	-0.01	-0.750			
0.0177	1133.86	4.1180	4.1180	-0.6001	24.91	-0.02	-0.750			
0.0195	1249.88	4.1150	4.1149	-0.6165	24.91	-0.02	-0.750			
0.0214	1368.82	4.1120	4.1119	-0.6322	24.90	-0.03	-0.750			
0.0233	1492.30	4.1090	4.1091	-0.6456	24.90	-0.03	-0.750			
0.0253	1619.37	4.1060	4.1059	-0.6599	24.90	-0.03	-0.750			
0.0272	1743.85	4.1030	4.1030	-0.6846	24.89	-0.04	-0.750			
0.0293	1878.33	4.1000	4.1000	-0.6751	24.89	-0.04	-0.750			
0.0314	2011.98	4.0970	4.0968	-0.6823	24.89	-0.04	-0.750			
0.0335	2143.23	4.0940	4.0939	-0.6837	24.88	-0.05	-0.750			
0.0355	2274.51	4.0910	4.0910	-0.6888	24.88	-0.05	-0.750			
0.0376	2406.40	4.0880	4.0878	-0.6943	24.88	-0.05	-0.750			
0.0397	2537.84	4.0850	4.0850	-0.7024	24.87	-0.06	-0.750			
0.0418	2674.70	4.0820	4.0820	-0.7132	24.87	-0.06	-0.750			
0.0439	2811.45	4.0790	4.0790	-0.7157	24.87	-0.06	-0.750			
0.0461	2949.42	4.0760	4.0760	-0.7223	24.86	-0.07	-0.750			
0.0483	3088.86	4.0730	4.0730	-0.7233	24.86	-0.07	-0.750			
0.0504	3227.70	4.0700	4.0699	-0.7237	24.86	-0.07	-0.750			
0.0526	3367.25	4.0670	4.0671	-0.7293	24.86	-0.07	-0.750			
0.0548	3507.92	4.0640	4.0640	-0.7275	24.86	-0.07	-0.750			
0.0570	3648.10	4.0610	4.0609	-0.7360	24.86	-0.07	-0.750			
0.0592	3787.93	4.0580	4.0581	-0.7375	24.86	-0.07	-0.750			
0.0614	3930.29	4.0550	4.0549	-0.7413	24.86	-0.07	-0.750			
0.0636	4072.47	4.0520	4.0520	-0.7565	24.86	-0.07	-0.750			
0.0659	4219.91	4.0490	4.0490	-0.7555	24.86	-0.07	-0.750			
0.0682	4365.65	4.0460	4.0460	-0.7562	24.86	-0.07	-0.750			
0.0705	4514.64	4.0430	4.0428	-0.7572	24.86	-0.07	-0.750			
0.0728	4657.59	4.0400	4.0403	-0.7496	24.86	-0.07	-0.750			
0.0750	4800.27	4.0370	4.0370	-0.7480	24.86	-0.07	-0.750			
0.0772	4942.42	4.0340	4.0339	-0.7556	24.86	-0.07	-0.750			
0.0795	5085.77	4.0310	4.0310	-0.7548	24.85	-0.08	-0.750			
0.0818	5235.61	4.0280	4.0279	-0.7657	24.85	-0.08	-0.750			
0.0841	5383.91	4.0250	4.0251	-0.7683	24.85	-0.08	-0.750			
0.0864	5531.69	4.0220	4.0219	-0.7671	24.85	-0.08	-0.750			
0.0887	5677.97	4.0190	4.0191	-0.7648	24.85	-0.08	-0.750			
0.0910	5823.83	4.0160	4.0160	-0.7644	24.85	-0.08	-0.750			
0.0932	5966.40	4.0130	4.0128	-0.7692	24.86	-0.07	-0.750			
0.0956	6117.64	4.0100	4.0102	-0.7789	24.86	-0.07	-0.750			
0.0980	6269.12	4.0070	4.0070	-0.7792	24.86	-0.07	-0.750			
0.1003	6421.93	4.0040	4.0041	-0.7842	24.86	-0.07	-0.750			
0.1027	6574.02	4.0010	4.0010	-0.7981	24.86	-0.07	-0.750			
0.1051	6728.29	3.9980	3.9979	-0.7892	24.86	-0.07	-0.750			
0.1075	6879.74	3.9950	3.9947	-0.7811	24.86	-0.07	-0.750			
0.1098	7027.59	3.9920	3.9929	-0.7796	24.86	-0.07	-0.750			
0.1121	7177.54	3.9890	3.9888	-0.7820	24.86	-0.07	-0.750			
0.1145	7326.34	3.9860	3.9859	-0.7823	24.86	-0.07	-0.750			
0.1168	7473.06	3.9830	3.9831	-0.7794	24.87	-0.06	-0.750			
0.1192	7627.43	3.9800	3.9800	-0.7902	24.87	-0.06	-0.750			
0.1216	7779.71	3.9770	3.9767	-0.7898	24.87	-0.06	-0.750			
0.1239	7929.89	3.9740	3.9740	-0.7931	24.87	-0.06	-0.750			
0.1263	8081.33	3.9710	3.9710	-0.7921	24.87	-0.06	-0.750			
0.1286	8232.28	3.9680	3.9679	-0.7995	24.88	-0.05	-0.750			
0.1310	8385.70	3.9650	3.9650	-0.7988	24.88	-0.05	-0.750			
0.1335	8543.72	3.9620	3.9620	-0.8086	24.88	-0.05	-0.750			
0.1359	8700.14	3.9590	3.9590	-0.8095	24.88	-0.05	-0.750			
0.1384	8855.79	3.9560	3.9561	-0.8212	24.89	-0.04	-0.750			
0.1409	9015.32	3.9530	3.9529	-0.8198	24.89	-0.04	-0.750			
0.1434	9174.81	3.9500	3.9498	-0.8199	24.89	-0.04	-0.750			
0.1458	9331.28	3.9470	3.9469	-0.8128	24.90	-0.03	-0.750			
0.1483	9488.97	3.9440	3.9438	-0.8168	24.90	-0.03	-0.750			
0.1507	9642.75	3.9410	3.9409	-0.8153	24.90	-0.03	-0.750			
0.1531	9796.00	3.9380	3.9380	-0.8123	24.90	-0.03	-0.750			
0.1555	9949.67	3.9350	3.9351	-0.8089	24.90	-0.03	-0.750			
0.1580	10113.45	3.9320	3.9318	-0.8251	24.90	-0.03	-0.750			
0.1605	10270.19	3.9290	3.9293	-0.8279	24.90	-0.03	-0.750			
0.1630	10429.21	3.9260	3.9260	-0.8321	24.90	-0.03	-0.750			
0.1654	10588.18	3.9230	3.9229	-0.8333	24.90	-0.03	-0.750			
0.1679	10748.07	3.9200	3.9200	-0.8309	24.91	-0.02	-0.750			
0.1705	10909.85	3.9170	3.9171	-0.8353	24.91	-0.02	-0.750			
0.1730	11073.32	3.9140	3.9140	-0.8336	24.91	-0.02	-0.750			
0.1754	11228.16	3.9110	3.9110	-0.8476	24.91	-0.02	-0.750			
0.1780	11391.99	3.9080	3.9080	-0.8325	24.91	-0.02	-0.750			
0.1805	11553.85	3.9050	3.9047	-0.8299	24.92	-0.01	-0.750			
0.1830	11713.08	3.9020	3.9019	-0.8295	24.92	-0.01	-0.750			
0.1855	11873.14	3.8990	3.8989	-0.8206	24.92	-0.01	-0.750			
0.1879	12027.92	3.8960	3.8959	-0.8276	24.92	-0.01	-0.750			
0.1904	12186.67	3.8930	3.8929	-0.8231	24.92	-0.01	-0.750			
0.1928	12339.92	3.8900	3.8901	-0.8334	24.93	-0.00	-0.750			
0.1953	12502.22	3.8870	3.8869	-0.8397	24.93	-0.00	-0.750			
0.1979	12664.05	3.8840	3.8841	-0.8377	24.93	0.00	-0.750			
0.2004	12824.56	3.8810	3.8810	-0.8386	24.93	0.00	-0.750			
0.2029	12987.39	3.8780	3.8781	-0.8431	24.93	0.00	-0.750			
0.2054	13146.51	3.8750	3.8748	-0.8318	24.94	0.01	-0.750			
0.2080	13310.13	3.8720	3.8720	-0.8348	24.94	0.01	-0.750			
0.2104	13468.35	3.8690	3.8691	-0.8271	24.94	0.01	-0.750			
0.2129	13622.68	3.8660	3.8660	-0.8494	24.94	0.01	-0.750			
0.2155	13789.31	3.8630	3.8629	-0.8349	24.95	0.02	-0.750			
0.2179	13947.98	3.8600	3.8598	-0.8301	24.95	0.02	-0.750			
0.2204	14107.20	3.8570	3.8569	-0.8389	24.96	0.03	-0.750			
0.2229	14268.48	3.8540	3.8536	-0.8446	24.96	0.03	-0.750			
0.2255	14429.40	3.8510	3.8508	-0.8535	24.97	0.04	-0.750			
0.2281	14595.74	3.8480	3.8478	-0.8459	24.97	0.04	-0.750			
0.2306	14760.24	3.8450	3.8451	-0.8512	24.97	0.04	-0.750			
0.2332	14923.43	3.8420	3.8419	-0.8458	24.98	0.05	-0.750			
0.2357	15084.16	3.8390	3.8390	-0.8297	24.98	0.05	-0.750			
0.2381	15237.96	3.8360	3.8359	-0.8273	24.98	0.05	-0.750			
0.2405	15394.68	3.8330	3.8329	-0.8145	24.98	0.05	-0.750			
0.2430	15549.59	3.8300	3.8301	-0.8088	24.98	0.05	-0.750			
0.2455	15709.69	3.8270	3.8268	-0.8148	24.98	0.05	-0.750			
0.2479	15866.75	3.8240	3.8242	-0.8094	24.98	0.05	-0.750			
0.2503	16019.06	3.8210	3.8209	-0.8030	24.99	0.06	-0.750			
0.2527	16173.41	3.8180	3.8180	-0.7932	24.99	0.06	-0.750			
0.2550	16320.99	3.8150	3.8151	-0.7789	25.00	0.07	-0.750			
0.2574	16474.71	3.8120	3.8119	-0.7850	25.00	0.07	-0.750			
0.2597	16623.14	3.8090	3.8098	-0.7818	25.01	0.08	-0.750			
0.2621	16772.64	3.8060	3.8059	-0.7827	25.01	0.08	-0.750			
0.2644	16922.77	3.8030	3.8030	-0.7867	25.01	0.08	-0.750			
0.2668	17075.36	3.8000	3.8000	-0.7867	25.02	0.09	-0.750			
0.2692	17228.69	3.7970	3.7969	-0.7905	25.02	0.09	-0.750			
0.2716	17379.49	3.7940	3.7942	-0.7844	25.02	0.09	-0.750			
0.2739	17530.04	3.7910	3.7909	-0.7789	25.02	0.09	-0.750			
0.2762	17677.71	3.7880	3.7880	-0.7747	25.03	0.10	-0.750			
0.2785	17823.96	3.7850	3.7850	-0.7728	25.03	0.10	-0.750			
0.2808	17972.31	3.7820	3.7819	-0.7694	25.03	0.10	-0.750			
0.2832	18122.05	3.7790	3.7789	-0.7729	25.04	0.11	-0.750			
0.2855	18269.74	3.7760	3.7762	-0.7705	25.04	0.11	-0.750			
0.2878	18417.40	3.7730	3.7731	-0.7754	25.04	0.11	-0.750			
0.2901	18567.29	3.7700	3.7699	-0.7822	25.04	0.11	-0.750			
0.2925	18716.90	3.7670	3.7669	-0.7770	25.04	0.11	-0.750			
0.2948	18866.87	3.7640	3.7640	-0.7782	25.04	0.11	-0.750			
0.2971	19017.03	3.7610	3.7610	-0.7880	25.04	0.11	-0.750			
0.2995	19166.57	3.7580	3.7577	-0.7917	25.04	0.11	-0.750			
0.3018	19316.30	3.7550	3.7550	-0.8119	25.04	0.11	-0.750			
0.3043	19475.81	3.7520	3.7519	-0.8192	25.04	0.11	-0.750			
0.3069	19638.62	3.7490	3.7488	-0.8403	25.04	0.11	-0.750			
0.3094	19801.96	3.7460	3.7465	-0.8432	25.04	0.11	-0.750			
0.3119	19964.54	3.7430	3.7429	-0.8481	25.04	0.11	-0.750			
0.3144	20124.57	3.7400	3.7400	-0.8597	25.04	0.11	-0.750			
0.3169	20284.79	3.7370	3.7369	-0.8701	25.04	0.11	-0.750			
0.3196	20454.42	3.7340	3.7340	-0.8999	25.04	0.11	-0.750			
0.3224	20631.69	3.7310	3.7311	-0.9168	25.04	0.11	-0.750			
0.3252	20812.69	3.7280	3.7280	-0.9344	25.04	0.11	-0.750			
0.3281	20996.52	3.7250	3.7250	-0.9423	25.04	0.11	-0.750			
0.3309	21177.45	3.7220	3.7219	-0.9378	25.03	0.10	-0.750			
0.3337	21356.38	3.7190	3.7189	-0.9391	25.03	0.10	-0.750			
0.3365	21533.53	3.7160	3.7159	-0.9515	25.03	0.10	-0.750			
0.3393	21716.59	3.7130	3.7129	-0.9619	25.03	0.10	-0.750			
0.3422	21902.18	3.7100	3.7099	-0.9834	25.02	0.09	-0.750			
0.3452	22093.42	3.7070	3.7070	-0.9859	25.02	0.09	-0.750			
0.3483	22291.49	3.7040	3.7039	-1.0066	25.02	0.09	-0.750			
0.3513	22485.41	3.7010	3.7009	-1.0278	25.01	0.08	-0.750			
0.3544	22683.12	3.6980	3.6979	-1.0314	25.01	0.08	-0.750	0.365	0.505	
0.3575	22879.79	3.6950	3.6947	-1.0382	25.00	0.07	-0.750			
0.3606	23079.41	3.6920	3.6922	-1.0699	25.00	0.07	-0.750			
0.3638	23283.84	3.6890	3.6891	-1.0820	24.99	0.06	-0.750			
0.3672	23501.99	3.6860	3.6858	-1.1109	24.99	0.06	-0.750			
0.3705	23713.00	3.6830	3.6829	-1.1166	24.98	0.05	-0.750			
0.3740	23933.56	3.6800	3.6799	-1.1491	24.98	0.05	-0.750			
0.3775	24157.99	3.6770	3.6768	-1.1664	24.97	0.04	-0.750			
0.3810	24381.98	3.6740	3.6739	-1.1735	24.96	0.03	-0.750			
0.3844	24602.27	3.6710	3.6713	-1.1892	24.95	0.02	-0.750			
0.3881	24840.38	3.6680	3.6679	-1.2247	24.94	0.01	-0.750			
0.3918	25075.99	3.6650	3.6650	-1.2439	24.94	0.01	-0.750			
0.3955	25311.22	3.6620	3.6620	-1.2677	24.93	0.00	-0.750			
0.3994	25563.84	3.6590	3.6590	-1.2975	24.92	-0.01	-0.750			
0.4034	25815.94	3.6560	3.6559	-1.3103	24.92	-0.01	-0.750			
0.4073	26067.12	3.6530	3.6530	-1.3281	24.91	-0.02	-0.750			
0.4113	26320.22	3.6500	3.6502	-1.3416	24.90	-0.03	-0.750			
0.4153	26581.09	3.6470	3.6469	-1.3711	24.89	-0.04	-0.750			
0.4194	26842.90	3.6440	3.6439	-1.4022	24.88	-0.05	-0.750			
0.4237	27115.52	3.6410	3.6411	-1.4167	24.88	-0.05	-0.750			
0.4280	27393.65	3.6380	3.6380	-1.4677	24.87	-0.06	-0.750			
0.4326	27684.95	3.6350	3.6349	-1.5020	24.86	-0.07	-0.750			
0.4371	27975.35	3.6320	3.6317	-1.5307	24.86	-0.07	-0.750			
0.4418	28275.84	3.6290	3.6291	-1.5499	24.85	-0.08	-0.750			
0.4465	28573.90	3.6260	3.6262	-1.5871	24.84	-0.09	-0.750			
0.4513	28883.88	3.6230	3.6231	-1.5924	24.83	-0.10	-0.750			
0.4562	29195.55	3.6200	3.6198	-1.6298	24.83	-0.10	-0.750			
0.4610	29502.22	3.6170	3.6171	-1.6403	24.82	-0.11	-0.750			
0.4659	29819.11	3.6140	3.6141	-1.7018	24.81	-0.12	-0.750			
0.4712	30154.20	3.6110	3.6113	-1.7395	24.80	-0.13	-0.750			
0.4765	30495.92	3.6080	3.6078	-1.7545	24.79	-0.14	-0.750			
0.4819	30839.96	3.6050	3.6049	-1.7974	24.78	-0.15	-0.750			
0.4874	31191.94	3.6020	3.6017	-1.8389	24.78	-0.15	-0.750			
0.4929	31544.94	3.5990	3.5987	-1.8968	24.77	-0.16	-0.750			
0.4986	31910.70	3.5960	3.5959	-1.8949	24.77	-0.16	-0.750			
0.5046	32292.38	3.5930	3.5929	-1.9681	24.76	-0.17	-0.750			
0.5105	32668.87	3.5900	3.5899	-1.9993	24.76	-0.17	-0.750			
0.5164	33046.92	3.5870	3.5872	-2.0025	24.75	-0.18	-0.750			
0.5223	33430.16	3.5840	3.5845	-1.9988	24.74	-0.19	-0.750			
0.5285	33821.59	3.5810	3.5811	-2.0506	24.74	-0.19	-0.750			
0.5346	34216.45	3.5780	3.5782	-2.0597	24.74	-0.19	-0.750			
0.5410	34622.92	3.5750	3.5752	-2.1527	24.74	-0.19	-0.750			
0.5473	35027.12	3.5720	3.5719	-2.1698	24.73	-0.20	-0.750			
0.5541	35460.82	3.5690	3.5686	-2.2096	24.72	-0.21	-0.750			
0.5607	35887.10	3.5660	3.5663	-2.2180	24.72	-0.21	-0.750			
0.5674	36314.11	3.5630	3.5632	-2.1981	24.72	-0.21	-0.750			
0.5742	36750.87	3.5600	3.5597	-2.1658	24.72	-0.21	-0.750			
0.5805	37150.34	3.5570	3.5568	-2.1401	24.72	-0.21	-0.750			
0.5869	37560.15	3.5540	3.5542	-2.0919	24.72	-0.21	-0.750			
0.5931	37959.82	3.5510	3.5512	-2.0938	24.72	-0.21	-0.750			
0.5995	38365.78	3.5480	3.5482	-2.0837	24.72	-0.21	-0.750			
0.6056	38757.77	3.5450	3.5448	-2.0597	24.73	-0.20	-0.750			
0.6118	39156.11	3.5420	3.5421	-2.0020	24.73	-0.20	-0.750			
0.6179	39542.44	3.5390	3.5389	-1.9801	24.74	-0.19	-0.750			
0.6238	39920.70	3.5360	3.5358	-1.9576	24.75	-0.18	-0.750			
0.6294	40278.69	3.5330	3.5331	-1.9099	24.76	-0.17	-0.750			
0.6351	40645.35	3.5300	3.5303	-1.8895	24.76	-0.17	-0.750			
0.6411	41027.65	3.5270	3.5270	-1.7659	24.78	-0.15	-0.750			
0.6462	41356.88	3.5240	3.5242	-1.7084	24.80	-0.13	-0.750			
0.6511	41673.40	3.5210	3.5212	-1.6177	24.81	-0.12	-0.750			
0.6556	41958.36	3.5180	3.5173	-1.5892	24.81	-0.12	-0.750			
0.6601	42246.26	3.5150	3.5146	-1.5566	24.82	-0.11	-0.750			
0.6648	42546.53	3.5120	3.5117	-1.5456	24.84	-0.09	-0.750			
0.6695	42848.99	3.5090	3.5094	-1.5548	24.85	-0.08	-0.750			
0.6745	43168.91	3.5060	3.5058	-1.5595	24.87	-0.06	-0.750			
0.6789	43452.56	3.5030	3.5030	-1.4894	24.88	-0.05	-0.750			
0.6835	43743.39	3.5000	3.5000	-1.4775	24.90	-0.03	-0.750			
0.6879	44022.84	3.4970	3.4970	-1.4414	24.91	-0.02	-0.750			
0.6922	44299.21	3.4940	3.4938	-1.4023	24.93	-0.00	-0.750			
0.6963	44565.58	3.4910	3.4911	-1.3583	24.95	0.02	-0.750			
0.7003	44819.38	3.4880	3.4880	-1.3323	24.96	0.03	-0.750			
0.7042	45065.92	3.4850	3.4850	-1.1936	24.98	0.05	-0.750			
