Ah_balance (normalized)	Ah_balance (mAh)	Voltage - fit (V)	Voltage -  interpolate (V)	dQ/dV (1/V)	Temperature (°C)	Temperature - diff (°C)	Current (C)	R_DC 0ms (mOhm)	R_DC 50ms (mOhm)	R_DC 50 ms PEC (mOhm)
0.0473	3025.86	4.1980	4.1980	0.7188	25.41	0.52	0.750			
0.0495	3165.03	4.1950	4.1950	0.7354	25.41	0.52	0.750			
0.0517	3309.37	4.1920	4.1921	0.7531	25.41	0.52	0.750			
0.0540	3456.69	4.1890	4.1891	0.7615	25.41	0.52	0.750			
0.0563	3604.23	4.1860	4.1862	0.7657	25.41	0.52	0.750			
0.0586	3753.02	4.1830	4.1831	0.7658	25.41	0.52	0.750			
0.0610	3901.08	4.1800	4.1801	0.7687	25.40	0.51	0.750			
0.0632	4045.91	4.1770	4.1770	0.7608	25.40	0.51	0.750			
0.0655	4192.14	4.1740	4.1733	0.7635	25.40	0.51	0.750			
0.0678	4339.60	4.1710	4.1712	0.7656	25.40	0.51	0.750			
0.0701	4486.99	4.1680	4.1681	0.7669	25.40	0.51	0.750			
0.0724	4635.81	4.1650	4.1650	0.7749	25.40	0.51	0.750			
0.0748	4784.83	4.1620	4.1619	0.7772	25.40	0.51	0.750			
0.0771	4931.55	4.1590	4.1590	0.7755	25.40	0.51	0.750			
0.0794	5082.01	4.1560	4.1561	0.7776	25.40	0.51	0.750			
0.0818	5232.63	4.1530	4.1529	0.7775	25.40	0.51	0.750			
0.0841	5381.31	4.1500	4.1501	0.7693	25.40	0.51	0.750			
0.0864	5526.61	4.1470	4.1471	0.7675	25.40	0.51	0.750			
0.0886	5671.95	4.1440	4.1441	0.7706	25.40	0.51	0.750			
0.0909	5820.07	4.1410	4.1407	0.7765	25.40	0.51	0.750			
0.0933	5969.27	4.1380	4.1381	0.7793	25.40	0.51	0.750			
0.0957	6123.92	4.1350	4.1350	0.7638	25.40	0.51	0.750			
0.0980	6272.78	4.1320	4.1320	0.7778	25.39	0.50	0.750			
0.1003	6418.53	4.1290	4.1291	0.7782	25.39	0.50	0.750			
0.1026	6566.11	4.1260	4.1259	0.7835	25.39	0.50	0.750			
0.1050	6718.03	4.1230	4.1233	0.7882	25.39	0.50	0.750			
0.1074	6870.63	4.1200	4.1202	0.7958	25.39	0.50	0.750			
0.1098	7026.57	4.1170	4.1170	0.7989	25.40	0.51	0.750			
0.1123	7184.71	4.1140	4.1140	0.8078	25.40	0.51	0.750			
0.1146	7333.78	4.1110	4.1110	0.7991	25.40	0.51	0.750			
0.1170	7487.36	4.1080	4.1080	0.8008	25.40	0.51	0.750			
0.1194	7644.51	4.1050	4.1049	0.7938	25.40	0.51	0.750			
0.1218	7795.69	4.1020	4.1020	0.7957	25.40	0.51	0.750			
0.1242	7947.51	4.0990	4.0991	0.7961	25.39	0.50	0.750			
0.1266	8099.86	4.0960	4.0961	0.7993	25.39	0.50	0.750			
0.1289	8251.66	4.0930	4.0928	0.7981	25.39	0.50	0.750			
0.1314	8408.40	4.0900	4.0900	0.7953	25.39	0.50	0.750			
0.1337	8559.69	4.0870	4.0871	0.8083	25.39	0.50	0.750			
0.1362	8715.40	4.0840	4.0840	0.8182	25.39	0.50	0.750			
0.1386	8872.57	4.0810	4.0810	0.8210	25.39	0.50	0.750			
0.1411	9030.28	4.0780	4.0778	0.8257	25.39	0.50	0.750			
0.1436	9191.28	4.0750	4.0752	0.8291	25.39	0.50	0.750			
0.1461	9353.54	4.0720	4.0721	0.8360	25.39	0.50	0.750			
0.1487	9514.86	4.0690	4.0690	0.8348	25.40	0.51	0.750			
0.1511	9671.96	4.0660	4.0660	0.8275	25.40	0.51	0.750			
0.1536	9830.94	4.0630	4.0630	0.8288	25.40	0.51	0.750			
0.1561	9992.81	4.0600	4.0600	0.8242	25.40	0.51	0.750			
0.1586	10149.81	4.0570	4.0570	0.8306	25.40	0.51	0.750			
0.1611	10308.74	4.0540	4.0541	0.8333	25.40	0.51	0.750			
0.1636	10467.82	4.0510	4.0510	0.8376	25.40	0.51	0.750			
0.1661	10628.49	4.0480	4.0478	0.8413	25.40	0.51	0.750			
0.1686	10792.94	4.0450	4.0451	0.8387	25.40	0.51	0.750			
0.1712	10955.10	4.0420	4.0420	0.8475	25.40	0.51	0.750			
0.1737	11117.63	4.0390	4.0391	0.8531	25.40	0.51	0.750			
0.1762	11279.66	4.0360	4.0360	0.8513	25.40	0.51	0.750			
0.1788	11443.36	4.0330	4.0330	0.8589	25.40	0.51	0.750			
0.1814	11610.17	4.0300	4.0301	0.8619	25.40	0.51	0.750			
0.1840	11777.70	4.0270	4.0270	0.8688	25.40	0.51	0.750			
0.1867	11946.21	4.0240	4.0240	0.8693	25.40	0.51	0.750			
0.1892	12110.86	4.0210	4.0211	0.8636	25.40	0.51	0.750			
0.1918	12277.00	4.0180	4.0180	0.8650	25.40	0.51	0.750			
0.1945	12444.93	4.0150	4.0150	0.8580	25.40	0.51	0.750			
0.1970	12607.32	4.0120	4.0120	0.8658	25.41	0.52	0.750			
0.1996	12774.96	4.0090	4.0090	0.8700	25.41	0.52	0.750			
0.2022	12939.47	4.0060	4.0059	0.8759	25.41	0.52	0.750			
0.2048	13109.52	4.0030	4.0031	0.8821	25.41	0.52	0.750			
0.2075	13279.95	4.0000	4.0001	0.8812	25.41	0.52	0.750			
0.2102	13450.54	3.9970	3.9970	0.8858	25.42	0.53	0.750			
0.2128	13620.97	3.9940	3.9942	0.8826	25.42	0.53	0.750			
0.2155	13790.18	3.9910	3.9906	0.8866	25.42	0.53	0.750			
0.2181	13961.33	3.9880	3.9880	0.8890	25.42	0.53	0.750			
0.2208	14130.67	3.9850	3.9850	0.8909	25.42	0.53	0.750			
0.2235	14304.47	3.9820	3.9820	0.8965	25.42	0.53	0.750			
0.2262	14476.71	3.9790	3.9790	0.8979	25.42	0.53	0.750			
0.2289	14647.45	3.9760	3.9760	0.8977	25.42	0.53	0.750			
0.2316	14821.27	3.9730	3.9729	0.8951	25.42	0.53	0.750			
0.2342	14991.95	3.9700	3.9700	0.8972	25.42	0.53	0.750			
0.2369	15163.35	3.9670	3.9671	0.9074	25.43	0.54	0.750			
0.2397	15337.86	3.9640	3.9639	0.9094	25.43	0.54	0.750			
0.2424	15513.87	3.9610	3.9610	0.9154	25.43	0.54	0.750			
0.2452	15691.01	3.9580	3.9580	0.9051	25.44	0.55	0.750			
0.2479	15863.37	3.9550	3.9551	0.9120	25.44	0.55	0.750			
0.2506	16039.61	3.9520	3.9521	0.9161	25.45	0.56	0.750			
0.2533	16213.24	3.9490	3.9485	0.9186	25.45	0.56	0.750			
0.2561	16388.12	3.9460	3.9461	0.9162	25.45	0.56	0.750			
0.2588	16566.17	3.9430	3.9431	0.9296	25.45	0.56	0.750			
0.2617	16748.37	3.9400	3.9401	0.9372	25.45	0.56	0.750			
0.2645	16927.90	3.9370	3.9369	0.9325	25.45	0.56	0.750			
0.2673	17109.56	3.9340	3.9340	0.9266	25.45	0.56	0.750			
0.2701	17288.27	3.9310	3.9311	0.9273	25.46	0.57	0.750			
0.2729	17464.49	3.9280	3.9280	0.9270	25.46	0.57	0.750			
0.2757	17642.69	3.9250	3.9250	0.9284	25.47	0.58	0.750			
0.2784	17817.58	3.9220	3.9218	0.9290	25.47	0.58	0.750			
0.2812	17998.79	3.9190	3.9190	0.9270	25.47	0.58	0.750			
0.2840	18176.87	3.9160	3.9160	0.9391	25.47	0.58	0.750			
0.2868	18358.39	3.9130	3.9131	0.9526	25.47	0.58	0.750			
0.2897	18542.40	3.9100	3.9098	0.9505	25.47	0.58	0.750			
0.2926	18726.55	3.9070	3.9070	0.9516	25.47	0.58	0.750			
0.2955	18910.21	3.9040	3.9042	0.9525	25.47	0.58	0.750			
0.2983	19092.62	3.9010	3.9010	0.9536	25.47	0.58	0.750			
0.3012	19277.76	3.8980	3.8980	0.9562	25.47	0.58	0.750			
0.3040	19457.21	3.8950	3.8950	0.9486	25.47	0.58	0.750			
0.3069	19639.32	3.8920	3.8920	0.9436	25.47	0.58	0.750			
0.3097	19820.84	3.8890	3.8890	0.9550	25.47	0.58	0.750			
0.3126	20003.21	3.8860	3.8861	0.9581	25.47	0.58	0.750			
0.3154	20186.88	3.8830	3.8827	0.9651	25.47	0.58	0.750			
0.3184	20376.50	3.8800	3.8800	0.9550	25.47	0.58	0.750			
0.3213	20560.71	3.8770	3.8771	0.9550	25.47	0.58	0.750			
0.3241	20743.77	3.8740	3.8741	0.9588	25.46	0.57	0.750			
0.3270	20925.47	3.8710	3.8713	0.9518	25.46	0.57	0.750			
0.3298	21107.35	3.8680	3.8680	0.9541	25.46	0.57	0.750			
0.3326	21288.98	3.8650	3.8650	0.9594	25.46	0.57	0.750			
0.3355	21473.69	3.8620	3.8621	0.9711	25.45	0.56	0.750			
0.3385	21666.65	3.8590	3.8590	0.9863	25.45	0.56	0.750			
0.3415	21853.49	3.8560	3.8559	0.9815	25.45	0.56	0.750			
0.3444	22041.35	3.8530	3.8531	0.9799	25.44	0.55	0.750			
0.3473	22228.91	3.8500	3.8501	0.9856	25.43	0.54	0.750			
0.3503	22417.19	3.8470	3.8471	0.9954	25.43	0.54	0.750			
0.3533	22609.41	3.8440	3.8435	0.9973	25.42	0.53	0.750			
0.3562	22798.68	3.8410	3.8412	0.9991	25.41	0.52	0.750			
0.3592	22990.50	3.8380	3.8381	1.0163	25.40	0.51	0.750			
0.3623	23189.47	3.8350	3.8352	1.0272	25.39	0.50	0.750			
0.3654	23385.95	3.8320	3.8314	1.0258	25.38	0.49	0.750	0.293	0.388	
0.3685	23586.06	3.8290	3.8292	1.0311	25.37	0.48	0.750			
0.3717	23785.97	3.8260	3.8261	1.0339	25.37	0.48	0.750			
0.3748	23989.06	3.8230	3.8229	1.0403	25.36	0.47	0.750			
0.3779	24185.33	3.8200	3.8199	1.0298	25.35	0.46	0.750			
0.3809	24377.02	3.8170	3.8170	1.0244	25.34	0.45	0.750			
0.3840	24574.60	3.8140	3.8141	1.0335	25.33	0.44	0.750			
0.3871	24772.43	3.8110	3.8110	1.0411	25.32	0.43	0.750			
0.3902	24973.72	3.8080	3.8077	1.0518	25.31	0.42	0.750			
0.3934	25180.78	3.8050	3.8051	1.0343	25.30	0.41	0.750			
0.3965	25376.12	3.8020	3.8021	1.0621	25.29	0.40	0.750			
0.3997	25580.94	3.7990	3.7992	1.0784	25.28	0.39	0.750			
0.4030	25789.56	3.7960	3.7951	1.0788	25.27	0.38	0.750			
0.4062	25997.05	3.7930	3.7933	1.1005	25.26	0.37	0.750			
0.4095	26210.29	3.7900	3.7901	1.1201	25.25	0.36	0.750			
0.4129	26428.53	3.7870	3.7871	1.1396	25.24	0.35	0.750			
0.4164	26652.40	3.7840	3.7839	1.1267	25.23	0.34	0.750			
0.4198	26868.34	3.7810	3.7811	1.1536	25.22	0.33	0.750			
0.4233	27091.65	3.7780	3.7781	1.1824	25.21	0.32	0.750			
0.4269	27321.40	3.7750	3.7749	1.2090	25.19	0.30	0.750			
0.4305	27552.44	3.7720	3.7721	1.2070	25.18	0.29	0.750			
0.4341	27783.32	3.7690	3.7692	1.2354	25.17	0.28	0.750			
0.4379	28024.94	3.7660	3.7662	1.2628	25.16	0.27	0.750			
0.4417	28269.93	3.7630	3.7626	1.3029	25.15	0.26	0.750			
0.4456	28517.50	3.7600	3.7602	1.3271	25.14	0.25	0.750			
0.4497	28782.94	3.7570	3.7572	1.3442	25.13	0.24	0.750			
0.4540	29057.19	3.7540	3.7537	1.3668	25.12	0.23	0.750			
0.4581	29318.11	3.7510	3.7511	1.3646	25.10	0.21	0.750			
0.4620	29568.97	3.7480	3.7483	1.4184	25.09	0.20	0.750			
0.4663	29845.17	3.7450	3.7449	1.4455	25.08	0.19	0.750			
0.4707	30122.50	3.7420	3.7419	1.4807	25.06	0.17	0.750			
0.4753	30417.08	3.7390	3.7391	1.5292	25.05	0.16	0.750			
0.4800	30722.83	3.7360	3.7356	1.5756	25.04	0.15	0.750			
0.4849	31030.42	3.7330	3.7324	1.6298	25.02	0.13	0.750			
0.4899	31353.18	3.7300	3.7303	1.6491	25.01	0.12	0.750			
0.4949	31674.56	3.7270	3.7269	1.7213	24.99	0.10	0.750			
0.5000	32002.54	3.7240	3.7243	1.7478	24.97	0.08	0.750			
0.5052	32335.38	3.7210	3.7216	1.8327	24.95	0.06	0.750			
0.5109	32700.49	3.7180	3.7175	1.9795	24.94	0.05	0.750			
0.5170	33091.10	3.7150	3.7146	2.0995	24.93	0.04	0.750			
0.5238	33521.99	3.7120	3.7120	2.1965	24.91	0.02	0.750			
0.5305	33952.01	3.7090	3.7093	2.2207	24.89	0.00	0.750			
0.5372	34381.41	3.7060	3.7063	2.2209	24.87	-0.02	0.750			
0.5438	34805.25	3.7030	3.7028	2.1921	24.85	-0.04	0.750			
0.5504	35226.05	3.7000	3.7000	2.2301	24.83	-0.06	0.750			
0.5572	35658.67	3.6970	3.6972	2.2980	24.81	-0.08	0.750			
0.5641	36104.36	3.6940	3.6940	2.3712	24.80	-0.09	0.750			
0.5715	36576.60	3.6910	3.6909	2.4216	24.79	-0.10	0.750			
0.5789	37049.06	3.6880	3.6880	2.5048	24.78	-0.11	0.750			
0.5865	37533.42	3.6850	3.6851	2.5417	24.77	-0.12	0.750			
0.5939	38012.37	3.6820	3.6819	2.6195	24.75	-0.14	0.750			
0.6021	38536.47	3.6790	3.6790	2.6672	24.74	-0.15	0.750			
0.6106	39079.42	3.6760	3.6760	2.7566	24.74	-0.15	0.750			
0.6191	39623.49	3.6730	3.6732	2.7791	24.73	-0.16	0.750			
0.6273	40147.52	3.6700	3.6698	2.7616	24.72	-0.17	0.750			
0.6355	40673.17	3.6670	3.6668	2.7708	24.73	-0.16	0.750			
0.6440	41214.29	3.6640	3.6645	2.6300	24.73	-0.16	0.750			
0.6520	41729.40	3.6610	3.6611	2.4866	24.74	-0.15	0.750			
0.6591	42181.73	3.6580	3.6578	2.2143	24.75	-0.14	0.750			
0.6651	42563.96	3.6550	3.6548	2.0162	24.76	-0.13	0.750			
0.6707	42927.03	3.6520	3.6519	1.8228	24.77	-0.12	0.750			
0.6760	43263.09	3.6490	3.6488	1.6573	24.78	-0.11	0.750			
0.6808	43568.42	3.6460	3.6462	1.5026	24.78	-0.11	0.750			
0.6850	43842.74	3.6430	3.6432	1.3607	24.78	-0.11	0.750			
0.6889	44088.14	3.6400	3.6401	1.2276	24.78	-0.11	0.750			
0.6922	44302.18	3.6370	3.6370	1.1104	24.79	-0.10	0.750			
0.6953	44496.34	3.6340	3.6340	1.0326	24.80	-0.09	0.750			
0.6982	44687.23	3.6310	3.6310	0.9891	24.80	-0.09	0.750			
0.7011	44872.70	3.6280	3.6280	0.9597	24.81	-0.08	0.750			
0.7039	45050.22	3.6250	3.6251	0.9264	24.82	-0.07	0.750			
0.7067	45228.22	3.6220	3.6220	0.9003	24.83	-0.06	0.750			
0.7094	45399.47	3.6190	3.6190	0.8768	24.84	-0.05	0.750			
0.7120	45567.79	3.6160	3.6160	0.8408	24.85	-0.04	0.750			
0.7145	45726.65	3.6130	3.6130	0.7916	24.86	-0.03	0.750			
0.7169	45878.70	3.6100	3.6101	0.7370	24.86	-0.03	0.750			
0.7190	46016.39	3.6070	3.6071	0.6733	24.87	-0.02	0.750			
0.7209	46140.12	3.6040	3.6041	0.6025	24.87	-0.02	0.750			
0.7226	46249.48	3.6010	3.6009	0.5318	24.88	-0.01	0.750			
0.7241	46341.98	3.5980	3.5980	0.4603	24.88	-0.01	0.750			
0.7253	46422.04	3.5950	3.5949	0.4008	24.88	-0.01	0.750			
0.7264	46491.99	3.5920	3.5920	0.3431	24.89	-0.00	0.750			
0.7274	46552.22	3.5890	3.5892	0.2882	24.89	-0.00	0.750			
0.7282	46601.91	3.5860	3.5862	0.2352	24.89	0.00	0.750			
0.7288	46642.75	3.5830	3.5834	0.1831	24.89	0.00	0.750			
0.7292	46671.85	3.5800	3.5808	0.1335	24.89	0.00	0.750			
0.7296	46692.58	3.5770	3.5785	0.0923	24.89	0.00	0.750			
