Ah_balance (normalized)	Ah_balance (mAh)	Voltage - fit (V)	Voltage -  interpolate (V)	dQ/dV (1/V)	Temperature (°C)	Temperature - diff (°C)	Current (C)	R_DC 0ms (mOhm)	R_DC 50ms (mOhm)	R_DC 50 ms PEC (mOhm)
0.0494	3158.73	4.1960	4.1959	0.7561	25.95	0.42	0.750			
0.0516	3304.71	4.1930	4.1929	0.7571	25.95	0.42	0.750			
0.0540	3454.57	4.1900	4.1900	0.7432	25.95	0.42	0.750			
0.0561	3591.95	4.1870	4.1870	0.7394	25.95	0.42	0.750			
0.0583	3730.48	4.1840	4.1842	0.7452	25.95	0.42	0.750			
0.0605	3871.43	4.1810	4.1811	0.7471	25.95	0.42	0.750			
0.0627	4015.53	4.1780	4.1781	0.7506	25.95	0.42	0.750			
0.0650	4162.61	4.1750	4.1751	0.7599	25.95	0.42	0.750			
0.0673	4310.40	4.1720	4.1721	0.7577	25.95	0.42	0.750			
0.0697	4458.51	4.1690	4.1690	0.7716	25.95	0.42	0.750			
0.0719	4602.07	4.1660	4.1661	0.7590	25.95	0.42	0.750			
0.0742	4747.92	4.1630	4.1631	0.7626	25.95	0.42	0.750			
0.0765	4895.65	4.1600	4.1602	0.7665	25.95	0.42	0.750			
0.0788	5044.94	4.1570	4.1570	0.7649	25.95	0.42	0.750			
0.0812	5194.25	4.1540	4.1540	0.7655	25.96	0.43	0.750			
0.0834	5337.52	4.1510	4.1510	0.7556	25.96	0.43	0.750			
0.0856	5481.41	4.1480	4.1479	0.7564	25.96	0.43	0.750			
0.0879	5627.50	4.1450	4.1450	0.7611	25.96	0.43	0.750			
0.0902	5772.88	4.1420	4.1420	0.7633	25.96	0.43	0.750			
0.0925	5921.16	4.1390	4.1390	0.7583	25.96	0.43	0.750			
0.0948	6064.72	4.1360	4.1361	0.7631	25.97	0.44	0.750			
0.0970	6209.68	4.1330	4.1332	0.7661	25.97	0.44	0.750			
0.0993	6357.03	4.1300	4.1297	0.7726	25.97	0.44	0.750			
0.1017	6506.14	4.1270	4.1271	0.7745	25.97	0.44	0.750			
0.1040	6657.02	4.1240	4.1242	0.7710	25.97	0.44	0.750			
0.1064	6807.44	4.1210	4.1210	0.7771	25.97	0.44	0.750			
0.1087	6954.23	4.1180	4.1181	0.7711	25.97	0.44	0.750			
0.1109	7099.96	4.1150	4.1147	0.7739	25.97	0.44	0.750			
0.1133	7250.58	4.1120	4.1121	0.7799	25.97	0.44	0.750			
0.1157	7401.70	4.1090	4.1091	0.7845	25.98	0.45	0.750			
0.1180	7554.06	4.1060	4.1060	0.7896	25.98	0.45	0.750			
0.1204	7708.61	4.1030	4.1030	0.7955	25.98	0.45	0.750			
0.1228	7857.58	4.1000	4.0999	0.7863	25.99	0.46	0.750			
0.1251	8008.23	4.0970	4.0970	0.7926	25.99	0.46	0.750			
0.1276	8163.75	4.0940	4.0940	0.7851	25.99	0.46	0.750			
0.1299	8314.30	4.0910	4.0909	0.7859	25.99	0.46	0.750			
0.1323	8464.52	4.0880	4.0880	0.7857	25.99	0.46	0.750			
0.1346	8613.48	4.0850	4.0852	0.7868	25.99	0.46	0.750			
0.1369	8763.61	4.0820	4.0821	0.7908	25.99	0.46	0.750			
0.1393	8916.08	4.0790	4.0790	0.7985	25.99	0.46	0.750			
0.1417	9070.07	4.0760	4.0759	0.7879	26.00	0.47	0.750			
0.1441	9221.65	4.0730	4.0732	0.7992	26.00	0.47	0.750			
0.1465	9374.18	4.0700	4.0701	0.8028	26.01	0.48	0.750			
0.1489	9529.48	4.0670	4.0661	0.8072	26.01	0.48	0.750			
0.1513	9683.38	4.0640	4.0642	0.8096	26.01	0.48	0.750			
0.1538	9840.70	4.0610	4.0611	0.8135	26.01	0.48	0.750			
0.1563	10000.53	4.0580	4.0581	0.8234	26.01	0.48	0.750			
0.1587	10157.36	4.0550	4.0550	0.8130	26.01	0.48	0.750			
0.1612	10314.73	4.0520	4.0518	0.8183	26.01	0.48	0.750			
0.1636	10472.01	4.0490	4.0490	0.8193	26.01	0.48	0.750			
0.1661	10631.05	4.0460	4.0460	0.8161	26.02	0.49	0.750			
0.1685	10787.02	4.0430	4.0430	0.8182	26.02	0.49	0.750			
0.1710	10943.46	4.0400	4.0401	0.8239	26.03	0.50	0.750			
0.1734	11099.23	4.0370	4.0365	0.8260	26.03	0.50	0.750			
0.1760	11262.31	4.0340	4.0340	0.8226	26.03	0.50	0.750			
0.1784	11419.83	4.0310	4.0311	0.8313	26.03	0.50	0.750			
0.1809	11579.91	4.0280	4.0281	0.8368	26.03	0.50	0.750			
0.1835	11742.15	4.0250	4.0251	0.8478	26.03	0.50	0.750			
0.1860	11901.51	4.0220	4.0217	0.8434	26.03	0.50	0.750			
0.1885	12064.74	4.0190	4.0191	0.8491	26.03	0.50	0.750			
0.1911	12229.95	4.0160	4.0161	0.8505	26.03	0.50	0.750			
0.1937	12394.85	4.0130	4.0130	0.8559	26.03	0.50	0.750			
0.1962	12558.59	4.0100	4.0100	0.8512	26.03	0.50	0.750			
0.1988	12721.75	4.0070	4.0069	0.8538	26.03	0.50	0.750			
0.2013	12884.83	4.0040	4.0041	0.8574	26.03	0.50	0.750			
0.2039	13050.65	4.0010	4.0010	0.8556	26.04	0.51	0.750			
0.2065	13214.58	3.9980	3.9981	0.8607	26.04	0.51	0.750			
0.2091	13379.34	3.9950	3.9951	0.8612	26.05	0.52	0.750			
0.2116	13543.82	3.9920	3.9916	0.8660	26.05	0.52	0.750			
0.2143	13712.54	3.9890	3.9892	0.8630	26.05	0.52	0.750			
0.2168	13878.09	3.9860	3.9860	0.8690	26.05	0.52	0.750			
0.2195	14047.01	3.9830	3.9830	0.8726	26.05	0.52	0.750			
0.2221	14213.13	3.9800	3.9801	0.8677	26.05	0.52	0.750			
0.2247	14379.78	3.9770	3.9771	0.8695	26.05	0.52	0.750			
0.2273	14547.80	3.9740	3.9739	0.8740	26.05	0.52	0.750			
0.2299	14715.02	3.9710	3.9711	0.8775	26.05	0.52	0.750			
0.2326	14886.10	3.9680	3.9679	0.8812	26.05	0.52	0.750			
0.2352	15054.73	3.9650	3.9650	0.8778	26.05	0.52	0.750			
0.2379	15224.72	3.9620	3.9620	0.8805	26.05	0.52	0.750			
0.2406	15396.61	3.9590	3.9590	0.8636	26.05	0.52	0.750			
0.2431	15559.30	3.9560	3.9560	0.8717	26.05	0.52	0.750			
0.2457	15723.99	3.9530	3.9531	0.8715	26.05	0.52	0.750			
0.2483	15890.69	3.9500	3.9497	0.8756	26.05	0.52	0.750			
0.2509	16059.53	3.9470	3.9471	0.8784	26.05	0.52	0.750			
0.2536	16230.48	3.9440	3.9440	0.8720	26.05	0.52	0.750			
0.2562	16397.86	3.9410	3.9411	0.8739	26.05	0.52	0.750			
0.2588	16565.31	3.9380	3.9381	0.8702	26.05	0.52	0.750			
0.2614	16732.26	3.9350	3.9344	0.8702	26.05	0.52	0.750			
0.2641	16900.19	3.9320	3.9320	0.8666	26.05	0.52	0.750			
0.2667	17066.46	3.9290	3.9291	0.8699	26.05	0.52	0.750			
0.2693	17236.22	3.9260	3.9261	0.8784	26.04	0.51	0.750			
0.2720	17405.72	3.9230	3.9229	0.8783	26.04	0.51	0.750			
0.2745	17570.08	3.9200	3.9200	0.8685	26.04	0.51	0.750			
0.2772	17739.00	3.9170	3.9170	0.8611	26.04	0.51	0.750			
0.2798	17904.58	3.9140	3.9140	0.8679	26.04	0.51	0.750			
0.2823	18069.89	3.9110	3.9110	0.8691	26.03	0.50	0.750			
0.2849	18234.57	3.9080	3.9081	0.8671	26.03	0.50	0.750			
0.2875	18401.62	3.9050	3.9050	0.8716	26.03	0.50	0.750			
0.2902	18572.35	3.9020	3.9020	0.8699	26.02	0.49	0.750			
0.2928	18738.92	3.8990	3.8991	0.8763	26.02	0.49	0.750			
0.2955	18908.94	3.8960	3.8961	0.8820	26.02	0.49	0.750			
0.2980	19074.70	3.8930	3.8929	0.8745	26.01	0.48	0.750			
0.3007	19244.17	3.8900	3.8901	0.8778	26.01	0.48	0.750			
0.3033	19412.98	3.8870	3.8871	0.8743	26.00	0.47	0.750			
0.3059	19580.07	3.8840	3.8841	0.8784	26.00	0.47	0.750			
0.3086	19747.61	3.8810	3.8810	0.8925	25.99	0.46	0.750			
0.3111	19913.48	3.8780	3.8779	0.9076	25.99	0.46	0.750			
0.3139	20090.20	3.8750	3.8750	0.9198	25.98	0.45	0.750			
0.3167	20271.53	3.8720	3.8711	0.9316	25.98	0.45	0.750			
0.3196	20456.69	3.8690	3.8694	0.9433	25.97	0.44	0.750			
0.3225	20642.00	3.8660	3.8662	0.9386	25.96	0.43	0.750			
0.3253	20822.08	3.8630	3.8630	0.9254	25.96	0.43	0.750			
0.3280	20992.55	3.8600	3.8600	0.8896	25.95	0.42	0.750			
0.3307	21162.42	3.8570	3.8571	0.8919	25.94	0.41	0.750			
0.3334	21336.30	3.8540	3.8540	0.8928	25.94	0.41	0.750			
0.3360	21502.20	3.8510	3.8507	0.9004	25.93	0.40	0.750			
0.3387	21674.67	3.8480	3.8481	0.9097	25.92	0.39	0.750			
0.3414	21851.01	3.8450	3.8451	0.9234	25.91	0.38	0.750			
0.3442	22031.04	3.8420	3.8421	0.9383	25.90	0.37	0.750	0.330	0.469	
0.3471	22215.03	3.8390	3.8391	0.9467	25.90	0.37	0.750			
0.3499	22395.89	3.8360	3.8360	0.9467	25.89	0.36	0.750			
0.3528	22579.94	3.8330	3.8330	0.9419	25.88	0.35	0.750			
0.3556	22757.60	3.8300	3.8301	0.9389	25.87	0.34	0.750			
0.3584	22938.42	3.8270	3.8271	0.9493	25.86	0.33	0.750			
0.3613	23120.01	3.8240	3.8236	0.9600	25.85	0.32	0.750			
0.3642	23307.07	3.8210	3.8210	0.9539	25.84	0.31	0.750			
0.3670	23489.77	3.8180	3.8180	0.9730	25.83	0.30	0.750			
0.3700	23683.06	3.8150	3.8151	0.9744	25.81	0.28	0.750			
0.3730	23869.60	3.8120	3.8118	0.9634	25.80	0.27	0.750			
0.3758	24053.55	3.8090	3.8092	0.9617	25.80	0.27	0.750			
0.3787	24237.27	3.8060	3.8063	0.9583	25.79	0.26	0.750			
0.3815	24417.62	3.8030	3.8028	0.9728	25.78	0.25	0.750			
0.3844	24599.40	3.8000	3.8001	0.9846	25.77	0.24	0.750			
0.3874	24792.63	3.7970	3.7972	1.0152	25.77	0.24	0.750			
0.3906	24995.85	3.7940	3.7941	1.0593	25.75	0.22	0.750			
0.3938	25201.12	3.7910	3.7912	1.0838	25.74	0.21	0.750			
0.3971	25412.56	3.7880	3.7881	1.1063	25.73	0.20	0.750			
0.4004	25627.95	3.7850	3.7851	1.1300	25.72	0.19	0.750			
0.4038	25844.98	3.7820	3.7820	1.1312	25.71	0.18	0.750			
0.4071	26056.31	3.7790	3.7792	1.1453	25.70	0.17	0.750			
0.4106	26279.27	3.7760	3.7759	1.1701	25.69	0.16	0.750			
0.4141	26504.43	3.7730	3.7732	1.1918	25.68	0.15	0.750			
0.4177	26735.07	3.7700	3.7702	1.2180	25.67	0.14	0.750			
0.4215	26973.79	3.7670	3.7671	1.2502	25.66	0.13	0.750			
0.4254	27227.15	3.7640	3.7639	1.2842	25.64	0.11	0.750			
0.4291	27460.42	3.7610	3.7610	1.2818	25.63	0.10	0.750			
0.4330	27708.92	3.7580	3.7581	1.3121	25.62	0.09	0.750			
0.4370	27965.08	3.7550	3.7552	1.3220	25.61	0.08	0.750			
0.4409	28217.84	3.7520	3.7522	1.3502	25.60	0.07	0.750			
0.4450	28479.58	3.7490	3.7492	1.3899	25.58	0.05	0.750			
0.4493	28754.42	3.7460	3.7456	1.4070	25.57	0.04	0.750			
0.4535	29021.04	3.7430	3.7432	1.4487	25.56	0.03	0.750			
0.4579	29307.57	3.7400	3.7402	1.4786	25.55	0.02	0.750			
0.4626	29605.38	3.7370	3.7370	1.5107	25.54	0.01	0.750			
0.4673	29909.95	3.7340	3.7338	1.5291	25.53	-0.00	0.750			
0.4717	30187.96	3.7310	3.7313	1.5718	25.51	-0.02	0.750			
0.4764	30488.29	3.7280	3.7284	1.6381	25.50	-0.03	0.750			
0.4814	30808.74	3.7250	3.7255	1.6824	25.49	-0.04	0.750			
0.4865	31134.33	3.7220	3.7215	1.7390	25.47	-0.06	0.750			
0.4919	31480.06	3.7190	3.7189	1.8195	25.46	-0.07	0.750			
0.4975	31840.18	3.7160	3.7159	1.8797	25.44	-0.09	0.750			
0.5031	32198.02	3.7130	3.7129	1.9102	25.43	-0.10	0.750			
0.5090	32577.87	3.7100	3.7104	1.9320	25.41	-0.12	0.750			
0.5147	32941.25	3.7070	3.7067	1.9659	25.39	-0.14	0.750			
0.5209	33334.41	3.7040	3.7039	2.0568	25.38	-0.15	0.750			
0.5270	33726.02	3.7010	3.7017	2.1448	25.38	-0.15	0.750			
0.5336	34147.49	3.6980	3.6975	2.2938	25.37	-0.16	0.750			
0.5405	34592.13	3.6950	3.6954	2.2828	25.36	-0.17	0.750			
0.5472	35021.51	3.6920	3.6923	2.2887	25.35	-0.18	0.750			
0.5542	35468.47	3.6890	3.6892	2.3672	25.35	-0.18	0.750			
0.5611	35910.38	3.6860	3.6855	2.3145	25.34	-0.19	0.750			
0.5682	36363.85	3.6830	3.6833	2.4699	25.33	-0.20	0.750			
0.5755	36830.40	3.6800	3.6797	2.5168	25.32	-0.21	0.750			
0.5827	37293.15	3.6770	3.6773	2.3393	25.33	-0.20	0.750			
0.5898	37746.48	3.6740	3.6732	2.2886	25.34	-0.19	0.750			
0.5964	38169.29	3.6710	3.6715	2.1834	25.35	-0.18	0.750			
0.6027	38569.60	3.6680	3.6689	2.0616	25.35	-0.18	0.750			
0.6087	38955.97	3.6650	3.6643	1.9866	25.35	-0.18	0.750			
0.6140	39297.65	3.6620	3.6624	1.7922	25.36	-0.17	0.750			
0.6196	39653.16	3.6590	3.6584	1.7106	25.37	-0.16	0.750			
0.6243	39953.26	3.6560	3.6560	1.5557	25.38	-0.15	0.750			
0.6288	40241.83	3.6530	3.6532	1.4446	25.39	-0.14	0.750			
0.6330	40509.39	3.6500	3.6503	1.3560	25.39	-0.14	0.750			
0.6368	40757.53	3.6470	3.6463	1.2617	25.40	-0.13	0.750			
0.6405	40991.59	3.6440	3.6441	1.1788	25.41	-0.12	0.750			
0.6439	41211.64	3.6410	3.6411	1.1231	25.42	-0.11	0.750			
0.6472	41420.24	3.6380	3.6381	1.0792	25.43	-0.10	0.750			
0.6503	41620.50	3.6350	3.6352	1.0270	25.43	-0.10	0.750			
0.6533	41812.48	3.6320	3.6320	0.9759	25.44	-0.09	0.750			
0.6562	41994.42	3.6290	3.6291	0.9446	25.44	-0.09	0.750			
0.6590	42175.92	3.6260	3.6262	0.9102	25.45	-0.08	0.750			
0.6617	42348.79	3.6230	3.6226	0.8707	25.45	-0.08	0.750			
0.6642	42510.41	3.6200	3.6201	0.8297	25.46	-0.07	0.750			
0.6666	42664.91	3.6170	3.6173	0.7952	25.47	-0.06	0.750			
0.6690	42817.91	3.6140	3.6143	0.7630	25.47	-0.06	0.750			
0.6713	42961.86	3.6110	3.6113	0.7071	25.48	-0.05	0.750			
0.6734	43096.42	3.6080	3.6081	0.6478	25.49	-0.04	0.750			
0.6752	43215.14	3.6050	3.6055	0.6030	25.49	-0.04	0.750			
0.6770	43327.58	3.6020	3.6026	0.5581	25.50	-0.03	0.750			
0.6785	43422.27	3.5990	3.6000	0.5157	25.51	-0.02	0.750			
0.6799	43516.32	3.5960	3.5965	0.4762	25.51	-0.02	0.750			
0.6814	43608.52	3.5930	3.5939	0.4388	25.51	-0.02	0.750			
0.6827	43695.55	3.5900	3.5906	0.4042	25.52	-0.01	0.750			
0.6840	43773.49	3.5870	3.5873	0.3582	25.52	-0.01	0.750			
0.6849	43836.60	3.5840	3.5841	0.2994	25.53	-0.00	0.750			
0.6857	43886.22	3.5810	3.5810	0.2396	25.53	-0.00	0.750			
0.6863	43925.96	3.5780	3.5784	0.1872	25.53	0.00	0.750			
0.6868	43954.98	3.5750	3.5757	0.1429	25.53	0.00	0.750			
0.6872	43978.33	3.5720	3.5730	0.1027	25.53	0.00	0.750			
