Ah_balance (normalized)	Ah_balance (mAh)	Voltage - fit (V)	Voltage -  interpolate (V)	dQ/dV (1/V)	Temperature (°C)	Temperature - diff (°C)	Current (C)	R_DC 0ms (mOhm)	R_DC 50ms (mOhm)	R_DC 50 ms PEC (mOhm)
0.0487	3114.90	4.1960	4.1960	0.7372	25.63	0.67	0.750			
0.0509	3255.12	4.1930	4.1930	0.7384	25.63	0.67	0.750			
0.0531	3397.60	4.1900	4.1903	0.7491	25.63	0.67	0.750			
0.0554	3542.80	4.1870	4.1867	0.7581	25.63	0.67	0.750			
0.0577	3689.66	4.1840	4.1841	0.7633	25.63	0.67	0.750			
0.0600	3837.66	4.1810	4.1811	0.7602	25.63	0.67	0.750			
0.0623	3986.87	4.1780	4.1780	0.7652	25.63	0.67	0.750			
0.0645	4130.91	4.1750	4.1751	0.7535	25.63	0.67	0.750			
0.0668	4275.77	4.1720	4.1719	0.7565	25.63	0.67	0.750			
0.0691	4420.24	4.1690	4.1690	0.7592	25.63	0.67	0.750			
0.0714	4566.81	4.1660	4.1660	0.7612	25.63	0.67	0.750			
0.0737	4713.61	4.1630	4.1631	0.7646	25.63	0.67	0.750			
0.0760	4862.38	4.1600	4.1600	0.7727	25.63	0.67	0.750			
0.0783	5010.14	4.1570	4.1571	0.7680	25.63	0.67	0.750			
0.0806	5157.28	4.1540	4.1539	0.7697	25.63	0.67	0.750			
0.0829	5305.12	4.1510	4.1510	0.7679	25.63	0.67	0.750			
0.0852	5452.08	4.1480	4.1480	0.7685	25.63	0.67	0.750			
0.0874	5594.72	4.1450	4.1451	0.7687	25.64	0.68	0.750			
0.0897	5742.32	4.1420	4.1421	0.7740	25.64	0.68	0.750			
0.0920	5890.88	4.1390	4.1386	0.7726	25.64	0.68	0.750			
0.0944	6040.99	4.1360	4.1360	0.7795	25.64	0.68	0.750			
0.0968	6195.39	4.1330	4.1334	0.7707	25.64	0.68	0.750			
0.0991	6342.80	4.1300	4.1300	0.7760	25.63	0.67	0.750			
0.1015	6494.28	4.1270	4.1270	0.7800	25.63	0.67	0.750			
0.1037	6635.79	4.1240	4.1242	0.7727	25.63	0.67	0.750			
0.1060	6783.18	4.1210	4.1209	0.7819	25.63	0.67	0.750			
0.1084	6936.05	4.1180	4.1181	0.7865	25.64	0.68	0.750			
0.1108	7088.35	4.1150	4.1150	0.7938	25.64	0.68	0.750			
0.1132	7243.11	4.1120	4.1120	0.7978	25.64	0.68	0.750			
0.1156	7396.16	4.1090	4.1091	0.7891	25.65	0.69	0.750			
0.1179	7547.92	4.1060	4.1060	0.7931	25.65	0.69	0.750			
0.1203	7699.92	4.1030	4.1030	0.7890	25.65	0.69	0.750			
0.1227	7850.72	4.1000	4.0999	0.7894	25.65	0.69	0.750			
0.1250	7999.85	4.0970	4.0971	0.7836	25.65	0.69	0.750			
0.1273	8149.07	4.0940	4.0941	0.7856	25.65	0.69	0.750			
0.1297	8299.19	4.0910	4.0905	0.7942	25.65	0.69	0.750			
0.1321	8452.46	4.0880	4.0882	0.8040	25.65	0.69	0.750			
0.1345	8608.31	4.0850	4.0850	0.7948	25.65	0.69	0.750			
0.1369	8763.13	4.0820	4.0821	0.8060	25.65	0.69	0.750			
0.1394	8921.58	4.0790	4.0791	0.8166	25.65	0.69	0.750			
0.1418	9072.20	4.0760	4.0762	0.8085	25.65	0.69	0.750			
0.1442	9228.04	4.0730	4.0731	0.8119	25.65	0.69	0.750			
0.1466	9384.25	4.0700	4.0701	0.8140	25.65	0.69	0.750			
0.1491	9542.67	4.0670	4.0670	0.8183	25.65	0.69	0.750			
0.1516	9702.20	4.0640	4.0640	0.8234	25.65	0.69	0.750			
0.1540	9856.41	4.0610	4.0610	0.8205	25.65	0.69	0.750			
0.1565	10014.70	4.0580	4.0580	0.8243	25.65	0.69	0.750			
0.1590	10177.93	4.0550	4.0549	0.8097	25.66	0.70	0.750			
0.1614	10329.69	4.0520	4.0521	0.8178	25.66	0.70	0.750			
0.1638	10485.37	4.0490	4.0492	0.8237	25.66	0.70	0.750			
0.1663	10643.02	4.0460	4.0461	0.8280	25.67	0.71	0.750			
0.1688	10800.45	4.0430	4.0429	0.8328	25.67	0.71	0.750			
0.1713	10962.33	4.0400	4.0402	0.8385	25.67	0.71	0.750			
0.1738	11126.11	4.0370	4.0370	0.8320	25.67	0.71	0.750			
0.1763	11284.48	4.0340	4.0341	0.8432	25.67	0.71	0.750			
0.1788	11443.09	4.0310	4.0312	0.8382	25.67	0.71	0.750			
0.1813	11603.96	4.0280	4.0282	0.8443	25.67	0.71	0.750			
0.1839	11768.97	4.0250	4.0252	0.8476	25.67	0.71	0.750			
0.1865	11933.63	4.0220	4.0221	0.8572	25.67	0.71	0.750			
0.1891	12101.23	4.0190	4.0191	0.8624	25.67	0.71	0.750			
0.1916	12264.34	4.0160	4.0159	0.8548	25.67	0.71	0.750			
0.1942	12429.18	4.0130	4.0131	0.8597	25.67	0.71	0.750			
0.1969	12599.53	4.0100	4.0100	0.8468	25.67	0.71	0.750			
0.1994	12759.15	4.0070	4.0070	0.8596	25.67	0.71	0.750			
0.2019	12924.70	4.0040	4.0042	0.8653	25.67	0.71	0.750			
0.2045	13088.34	4.0010	4.0006	0.8661	25.67	0.71	0.750			
0.2071	13255.43	3.9980	3.9982	0.8713	25.67	0.71	0.750			
0.2097	13423.51	3.9950	3.9951	0.8707	25.67	0.71	0.750			
0.2124	13591.22	3.9920	3.9921	0.8798	25.67	0.71	0.750			
0.2150	13761.83	3.9890	3.9891	0.8749	25.67	0.71	0.750			
0.2177	13930.72	3.9860	3.9861	0.8821	25.67	0.71	0.750			
0.2203	14101.94	3.9830	3.9831	0.8839	25.67	0.71	0.750			
0.2230	14272.14	3.9800	3.9801	0.8876	25.67	0.71	0.750			
0.2257	14444.46	3.9770	3.9770	0.8944	25.67	0.71	0.750			
0.2283	14614.22	3.9740	3.9741	0.8870	25.67	0.71	0.750			
0.2310	14784.41	3.9710	3.9710	0.8912	25.67	0.71	0.750			
0.2338	14961.15	3.9680	3.9680	0.8807	25.67	0.71	0.750			
0.2364	15126.60	3.9650	3.9651	0.8864	25.67	0.71	0.750			
0.2390	15295.74	3.9620	3.9621	0.8934	25.67	0.71	0.750			
0.2416	15465.47	3.9590	3.9592	0.8919	25.67	0.71	0.750			
0.2443	15637.41	3.9560	3.9561	0.8987	25.67	0.71	0.750			
0.2471	15813.68	3.9530	3.9530	0.8861	25.67	0.71	0.750			
0.2497	15980.79	3.9500	3.9502	0.8939	25.67	0.71	0.750			
0.2524	16151.20	3.9470	3.9472	0.8926	25.67	0.71	0.750			
0.2551	16323.71	3.9440	3.9430	0.9017	25.67	0.71	0.750			
0.2578	16496.90	3.9410	3.9412	0.9016	25.67	0.71	0.750			
0.2605	16672.65	3.9380	3.9381	0.9143	25.67	0.71	0.750			
0.2633	16854.15	3.9350	3.9350	0.9227	25.67	0.71	0.750			
0.2661	17029.35	3.9320	3.9320	0.9081	25.67	0.71	0.750			
0.2688	17203.62	3.9290	3.9291	0.9075	25.67	0.71	0.750			
0.2716	17380.29	3.9260	3.9260	0.8959	25.66	0.70	0.750			
0.2742	17550.14	3.9230	3.9230	0.9019	25.66	0.70	0.750			
0.2769	17722.36	3.9200	3.9201	0.9053	25.65	0.69	0.750			
0.2796	17893.84	3.9170	3.9165	0.9070	25.65	0.69	0.750			
0.2824	18072.31	3.9140	3.9141	0.8993	25.65	0.69	0.750			
0.2851	18243.92	3.9110	3.9111	0.9047	25.64	0.68	0.750			
0.2878	18417.83	3.9080	3.9081	0.9126	25.64	0.68	0.750			
0.2906	18596.94	3.9050	3.9051	0.9241	25.63	0.67	0.750			
0.2932	18767.68	3.9020	3.9017	0.9111	25.63	0.67	0.750			
0.2960	18944.32	3.8990	3.8991	0.9145	25.62	0.66	0.750			
0.2987	19119.85	3.8960	3.8961	0.9211	25.62	0.66	0.750			
0.3016	19300.61	3.8930	3.8930	0.9253	25.62	0.66	0.750			
0.3043	19476.70	3.8900	3.8899	0.9192	25.61	0.65	0.750			
0.3071	19652.88	3.8870	3.8870	0.9206	25.61	0.65	0.750			
0.3099	19831.81	3.8840	3.8840	0.9145	25.60	0.64	0.750			
0.3126	20005.99	3.8810	3.8810	0.9168	25.60	0.64	0.750			
0.3153	20182.12	3.8780	3.8781	0.9153	25.59	0.63	0.750			
0.3180	20354.78	3.8750	3.8750	0.9205	25.59	0.63	0.750			
0.3209	20536.14	3.8720	3.8721	0.9098	25.58	0.62	0.750			
0.3236	20707.80	3.8690	3.8690	0.9206	25.57	0.61	0.750			
0.3263	20884.91	3.8660	3.8661	0.9314	25.56	0.60	0.750			
0.3291	21063.16	3.8630	3.8632	0.9301	25.55	0.59	0.750			
0.3319	21244.31	3.8600	3.8601	0.9291	25.54	0.58	0.750			
0.3348	21424.75	3.8570	3.8570	0.9333	25.53	0.57	0.750			
0.3375	21602.87	3.8540	3.8542	0.9362	25.53	0.57	0.750			
0.3404	21787.52	3.8510	3.8509	0.9438	25.52	0.56	0.750			
0.3432	21962.82	3.8480	3.8479	0.9320	25.51	0.55	0.750			
0.3460	22145.08	3.8450	3.8450	0.9234	25.50	0.54	0.750			
0.3488	22320.79	3.8420	3.8421	0.9429	25.49	0.53	0.750			
0.3516	22501.76	3.8390	3.8391	0.9558	25.48	0.52	0.750			
0.3545	22684.92	3.8360	3.8357	0.9607	25.47	0.51	0.750	0.282	0.413	
0.3574	22870.75	3.8330	3.8332	0.9677	25.46	0.50	0.750			
0.3603	23058.59	3.8300	3.8301	0.9657	25.45	0.49	0.750			
0.3632	23243.57	3.8270	3.8271	0.9738	25.44	0.48	0.750			
0.3661	23432.17	3.8240	3.8242	0.9810	25.43	0.47	0.750			
0.3690	23616.33	3.8210	3.8211	0.9767	25.42	0.46	0.750			
0.3719	23804.02	3.8180	3.8180	0.9925	25.41	0.45	0.750			
0.3750	23997.47	3.8150	3.8151	1.0047	25.40	0.44	0.750			
0.3780	24194.70	3.8120	3.8120	1.0196	25.39	0.43	0.750			
0.3810	24386.81	3.8090	3.8090	1.0180	25.37	0.41	0.750			
0.3841	24584.13	3.8060	3.8061	1.0182	25.36	0.40	0.750			
0.3872	24779.04	3.8030	3.8030	1.0301	25.35	0.39	0.750			
0.3903	24976.98	3.8000	3.8001	1.0447	25.33	0.37	0.750			
0.3935	25181.35	3.7970	3.7971	1.0394	25.32	0.36	0.750			
0.3966	25380.39	3.7940	3.7941	1.0619	25.31	0.35	0.750			
0.3997	25583.30	3.7910	3.7911	1.0828	25.30	0.34	0.750			
0.4030	25792.26	3.7880	3.7882	1.1060	25.29	0.33	0.750			
0.4063	26005.66	3.7850	3.7851	1.1186	25.29	0.33	0.750			
0.4097	26222.82	3.7820	3.7821	1.1417	25.27	0.31	0.750			
0.4132	26445.75	3.7790	3.7790	1.1631	25.26	0.30	0.750			
0.4168	26672.36	3.7760	3.7760	1.1896	25.25	0.29	0.750			
0.4203	26900.10	3.7730	3.7730	1.1853	25.24	0.28	0.750			
0.4239	27131.68	3.7700	3.7700	1.2011	25.23	0.27	0.750			
0.4275	27357.77	3.7670	3.7671	1.2532	25.22	0.26	0.750			
0.4312	27597.38	3.7640	3.7643	1.3145	25.20	0.24	0.750			
0.4353	27859.18	3.7610	3.7611	1.3669	25.19	0.23	0.750			
0.4396	28132.83	3.7580	3.7581	1.4156	25.17	0.21	0.750			
0.4440	28413.36	3.7550	3.7553	1.4405	25.16	0.20	0.750			
0.4484	28697.45	3.7520	3.7521	1.4570	25.14	0.18	0.750			
0.4529	28983.09	3.7490	3.7489	1.4460	25.13	0.17	0.750			
0.4571	29252.27	3.7460	3.7460	1.4475	25.11	0.15	0.750			
0.4614	29527.55	3.7430	3.7431	1.4735	25.09	0.13	0.750			
0.4659	29814.49	3.7400	3.7399	1.5063	25.07	0.11	0.750			
0.4704	30106.92	3.7370	3.7372	1.5459	25.05	0.09	0.750			
0.4751	30406.17	3.7340	3.7339	1.5887	25.04	0.08	0.750			
0.4799	30716.23	3.7310	3.7308	1.6391	25.03	0.07	0.750			
0.4849	31035.54	3.7280	3.7280	1.6838	25.01	0.05	0.750			
0.4901	31363.74	3.7250	3.7249	1.7450	24.99	0.03	0.750			
0.4953	31702.22	3.7220	3.7222	1.7948	24.97	0.01	0.750			
0.5009	32058.87	3.7190	3.7191	1.8473	24.96	-0.00	0.750			
0.5065	32413.29	3.7160	3.7159	1.9069	24.95	-0.01	0.750			
0.5123	32786.66	3.7130	3.7129	1.9317	24.93	-0.03	0.750			
0.5182	33166.26	3.7100	3.7103	2.0070	24.92	-0.04	0.750			
0.5243	33555.76	3.7070	3.7073	2.0552	24.90	-0.06	0.750			
0.5305	33954.06	3.7040	3.7040	2.1172	24.88	-0.08	0.750			
0.5370	34370.28	3.7010	3.7009	2.1808	24.87	-0.09	0.750			
0.5435	34785.21	3.6980	3.6980	2.2314	24.86	-0.10	0.750			
0.5503	35221.34	3.6950	3.6950	2.2658	24.85	-0.11	0.750			
0.5573	35666.77	3.6920	3.6922	2.3687	24.84	-0.12	0.750			
0.5645	36128.77	3.6890	3.6890	2.4313	24.82	-0.14	0.750			
0.5719	36602.78	3.6860	3.6858	2.5184	24.81	-0.15	0.750			
0.5796	37097.55	3.6830	3.6829	2.5310	24.80	-0.16	0.750			
0.5872	37583.04	3.6800	3.6802	2.5131	24.79	-0.17	0.750			
0.5946	38053.06	3.6770	3.6770	2.5256	24.79	-0.17	0.750			
0.6023	38544.33	3.6740	3.6738	2.5354	24.78	-0.18	0.750			
0.6102	39055.77	3.6710	3.6709	2.5352	24.78	-0.18	0.750			
0.6178	39541.07	3.6680	3.6679	2.4352	24.78	-0.18	0.750			
0.6249	39994.66	3.6650	3.6646	2.2685	24.79	-0.17	0.750			
0.6314	40412.06	3.6620	3.6621	2.0917	24.80	-0.16	0.750			
0.6374	40792.95	3.6590	3.6589	1.9284	24.81	-0.15	0.750			
0.6429	41143.71	3.6560	3.6559	1.7629	24.81	-0.15	0.750			
0.6479	41467.64	3.6530	3.6532	1.6292	24.82	-0.14	0.750			
0.6525	41762.74	3.6500	3.6501	1.4978	24.83	-0.13	0.750			
0.6569	42039.84	3.6470	3.6471	1.3720	24.83	-0.13	0.750			
0.6608	42292.01	3.6440	3.6442	1.2695	24.84	-0.12	0.750			
0.6643	42515.50	3.6410	3.6412	1.1852	24.85	-0.11	0.750			
0.6677	42735.10	3.6380	3.6377	1.1209	24.86	-0.10	0.750			
0.6709	42936.20	3.6350	3.6351	1.0499	24.87	-0.09	0.750			
0.6739	43132.39	3.6320	3.6321	1.0132	24.87	-0.09	0.750			
0.6770	43325.83	3.6290	3.6291	0.9823	24.88	-0.08	0.750			
0.6799	43513.49	3.6260	3.6257	0.9591	24.88	-0.08	0.750			
0.6827	43692.34	3.6230	3.6230	0.8967	24.89	-0.07	0.750			
0.6853	43858.93	3.6200	3.6200	0.8677	24.90	-0.06	0.750			
0.6879	44023.09	3.6170	3.6171	0.8343	24.91	-0.05	0.750			
0.6903	44180.46	3.6140	3.6141	0.7873	24.91	-0.05	0.750			
0.6926	44328.32	3.6110	3.6110	0.7418	24.92	-0.04	0.750			
0.6948	44467.55	3.6080	3.6082	0.6882	24.93	-0.03	0.750			
0.6968	44595.42	3.6050	3.6051	0.6318	24.93	-0.03	0.750			
0.6987	44717.19	3.6020	3.6019	0.5801	24.94	-0.02	0.750			
0.7003	44816.27	3.5990	3.5989	0.5057	24.95	-0.01	0.750			
0.7017	44907.64	3.5960	3.5960	0.4534	24.95	-0.01	0.750			
0.7030	44988.91	3.5930	3.5930	0.4046	24.95	-0.01	0.750			
0.7041	45061.09	3.5900	3.5900	0.3532	24.96	-0.00	0.750			
0.7051	45124.40	3.5870	3.5871	0.3058	24.96	0.00	0.750			
0.7059	45178.67	3.5840	3.5841	0.2588	24.96	0.00	0.750			
0.7066	45223.90	3.5810	3.5811	0.2104	24.97	0.01	0.750			
0.7072	45259.75	3.5780	3.5783	0.1609	24.97	0.01	0.750			
0.7076	45285.61	3.5750	3.5750	0.1020	24.97	0.01	0.750			
