Ah_balance (normalized)	Ah_balance (mAh)	Voltage - fit (V)	Voltage -  interpolate (V)	dQ/dV (1/V)	Temperature (°C)	Temperature - diff (°C)	Current (C)	R_DC 0ms (mOhm)	R_DC 50ms (mOhm)	R_DC 50 ms PEC (mOhm)
0.0476	3046.83	4.1980	4.1979	0.7602	26.13	0.62	0.750			
0.0499	3191.64	4.1950	4.1951	0.7526	26.13	0.62	0.750			
0.0522	3339.37	4.1920	4.1919	0.7499	26.13	0.62	0.750			
0.0543	3478.20	4.1890	4.1890	0.7477	26.14	0.63	0.750			
0.0566	3619.76	4.1860	4.1861	0.7474	26.14	0.63	0.750			
0.0588	3764.52	4.1830	4.1831	0.7513	26.14	0.63	0.750			
0.0611	3909.67	4.1800	4.1798	0.7556	26.14	0.63	0.750			
0.0634	4055.75	4.1770	4.1772	0.7564	26.14	0.63	0.750			
0.0657	4204.08	4.1740	4.1741	0.7515	26.14	0.63	0.750			
0.0679	4346.85	4.1710	4.1710	0.7550	26.15	0.64	0.750			
0.0701	4488.91	4.1680	4.1681	0.7502	26.15	0.64	0.750			
0.0724	4632.71	4.1650	4.1648	0.7556	26.15	0.64	0.750			
0.0747	4778.78	4.1620	4.1621	0.7605	26.15	0.64	0.750			
0.0770	4926.27	4.1590	4.1591	0.7624	26.15	0.64	0.750			
0.0793	5073.98	4.1560	4.1561	0.7663	26.15	0.64	0.750			
0.0816	5224.28	4.1530	4.1530	0.7691	26.15	0.64	0.750			
0.0839	5368.78	4.1500	4.1500	0.7624	26.15	0.64	0.750			
0.0862	5515.04	4.1470	4.1471	0.7615	26.15	0.64	0.750			
0.0884	5660.72	4.1440	4.1440	0.7660	26.15	0.64	0.750			
0.0908	5810.95	4.1410	4.1409	0.7551	26.16	0.65	0.750			
0.0930	5953.43	4.1380	4.1380	0.7621	26.16	0.65	0.750			
0.0953	6098.31	4.1350	4.1351	0.7651	26.17	0.66	0.750			
0.0976	6245.34	4.1320	4.1318	0.7695	26.17	0.66	0.750			
0.0999	6393.16	4.1290	4.1291	0.7768	26.17	0.66	0.750			
0.1023	6546.00	4.1260	4.1260	0.7697	26.17	0.66	0.750			
0.1046	6692.09	4.1230	4.1231	0.7744	26.17	0.66	0.750			
0.1069	6841.35	4.1200	4.1201	0.7740	26.17	0.66	0.750			
0.1092	6990.17	4.1170	4.1171	0.7790	26.17	0.66	0.750			
0.1116	7139.62	4.1140	4.1141	0.7800	26.17	0.66	0.750			
0.1139	7291.52	4.1110	4.1111	0.7813	26.17	0.66	0.750			
0.1163	7442.52	4.1080	4.1081	0.7847	26.17	0.66	0.750			
0.1187	7594.39	4.1050	4.1050	0.7899	26.17	0.66	0.750			
0.1210	7742.76	4.1020	4.1020	0.7844	26.17	0.66	0.750			
0.1233	7893.49	4.0990	4.0990	0.7866	26.17	0.66	0.750			
0.1257	8045.78	4.0960	4.0959	0.7904	26.17	0.66	0.750			
0.1281	8200.23	4.0930	4.0930	0.7883	26.17	0.66	0.750			
0.1305	8349.83	4.0900	4.0901	0.7908	26.17	0.66	0.750			
0.1328	8501.06	4.0870	4.0870	0.7906	26.17	0.66	0.750			
0.1352	8652.75	4.0840	4.0836	0.7914	26.17	0.66	0.750			
0.1376	8803.46	4.0810	4.0812	0.7912	26.17	0.66	0.750			
0.1400	8959.27	4.0780	4.0780	0.7807	26.17	0.66	0.750			
0.1423	9109.68	4.0750	4.0751	0.7963	26.18	0.67	0.750			
0.1447	9260.05	4.0720	4.0721	0.7927	26.18	0.67	0.750			
0.1471	9411.78	4.0690	4.0692	0.8041	26.18	0.67	0.750			
0.1495	9567.70	4.0660	4.0662	0.8096	26.18	0.67	0.750			
0.1520	9725.06	4.0630	4.0631	0.8169	26.18	0.67	0.750			
0.1544	9884.62	4.0600	4.0600	0.8271	26.19	0.68	0.750			
0.1570	10046.69	4.0570	4.0569	0.8282	26.19	0.68	0.750			
0.1594	10201.14	4.0540	4.0540	0.8192	26.19	0.68	0.750			
0.1619	10359.58	4.0510	4.0511	0.8227	26.19	0.68	0.750			
0.1644	10520.15	4.0480	4.0480	0.8135	26.19	0.68	0.750			
0.1668	10674.54	4.0450	4.0449	0.8216	26.19	0.68	0.750			
0.1692	10830.75	4.0420	4.0421	0.8236	26.19	0.68	0.750			
0.1717	10987.94	4.0390	4.0392	0.8300	26.19	0.68	0.750			
0.1742	11148.53	4.0360	4.0360	0.8381	26.19	0.68	0.750			
0.1767	11310.76	4.0330	4.0331	0.8402	26.19	0.68	0.750			
0.1793	11472.67	4.0300	4.0300	0.8329	26.19	0.68	0.750			
0.1817	11630.76	4.0270	4.0272	0.8415	26.19	0.68	0.750			
0.1842	11790.32	4.0240	4.0242	0.8430	26.19	0.68	0.750			
0.1868	11952.58	4.0210	4.0211	0.8491	26.19	0.68	0.750			
0.1893	12117.04	4.0180	4.0181	0.8524	26.19	0.68	0.750			
0.1919	12283.81	4.0150	4.0151	0.8592	26.20	0.69	0.750			
0.1945	12450.95	4.0120	4.0120	0.8616	26.20	0.69	0.750			
0.1971	12615.09	4.0090	4.0089	0.8541	26.20	0.69	0.750			
0.1997	12778.87	4.0060	4.0060	0.8572	26.20	0.69	0.750			
0.2023	12944.84	4.0030	4.0030	0.8470	26.20	0.69	0.750			
0.2048	13106.05	4.0000	4.0000	0.8566	26.21	0.70	0.750			
0.2074	13270.65	3.9970	3.9971	0.8620	26.21	0.70	0.750			
0.2099	13436.44	3.9940	3.9938	0.8619	26.21	0.70	0.750			
0.2125	13601.74	3.9910	3.9911	0.8632	26.21	0.70	0.750			
0.2151	13767.33	3.9880	3.9881	0.8637	26.21	0.70	0.750			
0.2177	13933.02	3.9850	3.9851	0.8699	26.21	0.70	0.750			
0.2203	14100.56	3.9820	3.9820	0.8668	26.21	0.70	0.750			
0.2229	14267.66	3.9790	3.9783	0.8712	26.21	0.70	0.750			
0.2256	14435.90	3.9760	3.9762	0.8746	26.21	0.70	0.750			
0.2282	14604.89	3.9730	3.9730	0.8844	26.21	0.70	0.750			
0.2309	14776.53	3.9700	3.9700	0.8895	26.21	0.70	0.750			
0.2336	14948.54	3.9670	3.9669	0.8894	26.21	0.70	0.750			
0.2362	15117.79	3.9640	3.9641	0.8867	26.21	0.70	0.750			
0.2389	15290.78	3.9610	3.9611	0.8790	26.21	0.70	0.750			
0.2416	15459.33	3.9580	3.9579	0.8808	26.21	0.70	0.750			
0.2442	15625.97	3.9550	3.9551	0.8824	26.21	0.70	0.750			
0.2468	15793.26	3.9520	3.9520	0.8801	26.21	0.70	0.750			
0.2494	15963.28	3.9490	3.9491	0.8809	26.21	0.70	0.750			
0.2521	16136.30	3.9460	3.9461	0.8746	26.21	0.70	0.750			
0.2547	16302.19	3.9430	3.9431	0.8774	26.20	0.69	0.750			
0.2574	16472.22	3.9400	3.9401	0.8807	26.20	0.69	0.750			
0.2600	16637.41	3.9370	3.9366	0.8738	26.20	0.69	0.750			
0.2626	16804.47	3.9340	3.9341	0.8789	26.20	0.69	0.750			
0.2652	16974.68	3.9310	3.9311	0.8770	26.20	0.69	0.750			
0.2679	17144.56	3.9280	3.9280	0.8768	26.19	0.68	0.750			
0.2705	17314.54	3.9250	3.9251	0.8822	26.19	0.68	0.750			
0.2731	17480.36	3.9220	3.9218	0.8726	26.19	0.68	0.750			
0.2758	17650.17	3.9190	3.9190	0.8667	26.19	0.68	0.750			
0.2784	17815.64	3.9160	3.9160	0.8717	26.18	0.67	0.750			
0.2810	17981.53	3.9130	3.9131	0.8740	26.18	0.67	0.750			
0.2836	18149.87	3.9100	3.9101	0.8740	26.17	0.66	0.750			
0.2862	18317.97	3.9070	3.9071	0.8783	26.17	0.66	0.750			
0.2889	18487.52	3.9040	3.9040	0.8735	26.16	0.65	0.750			
0.2915	18655.61	3.9010	3.9011	0.8796	26.16	0.65	0.750			
0.2941	18824.69	3.8980	3.8980	0.8810	26.16	0.65	0.750			
0.2968	18992.95	3.8950	3.8951	0.8763	26.15	0.64	0.750			
0.2994	19161.14	3.8920	3.8920	0.8820	26.15	0.64	0.750			
0.3021	19331.25	3.8890	3.8891	0.8801	26.14	0.63	0.750			
0.3047	19501.30	3.8860	3.8860	0.8810	26.13	0.62	0.750			
0.3074	19672.27	3.8830	3.8830	0.8883	26.12	0.61	0.750			
0.3100	19840.55	3.8800	3.8799	0.8810	26.11	0.60	0.750			
0.3127	20009.71	3.8770	3.8770	0.8819	26.11	0.60	0.750			
0.3153	20178.54	3.8740	3.8740	0.8813	26.10	0.59	0.750			
0.3179	20345.92	3.8710	3.8710	0.8830	26.10	0.59	0.750			
0.3206	20516.59	3.8680	3.8680	0.8914	26.09	0.58	0.750			
0.3232	20687.91	3.8650	3.8648	0.8908	26.09	0.58	0.750			
0.3259	20860.40	3.8620	3.8620	0.8859	26.08	0.57	0.750			
0.3286	21030.91	3.8590	3.8591	0.8948	26.07	0.56	0.750			
0.3313	21203.06	3.8560	3.8561	0.8989	26.06	0.55	0.750			
0.3340	21373.65	3.8530	3.8530	0.8967	26.05	0.54	0.750			
0.3366	21545.17	3.8500	3.8502	0.9068	26.05	0.54	0.750			
0.3394	21718.87	3.8470	3.8470	0.9115	26.03	0.52	0.750			
0.3421	21895.43	3.8440	3.8441	0.9254	26.02	0.51	0.750			
0.3449	22074.27	3.8410	3.8410	0.9338	26.01	0.50	0.750	0.306	0.454	
0.3477	22253.40	3.8380	3.8381	0.9352	26.00	0.49	0.750			
0.3506	22438.76	3.8350	3.8350	0.9385	25.99	0.48	0.750			
0.3534	22618.74	3.8320	3.8321	0.9475	25.98	0.47	0.750			
0.3563	22801.12	3.8290	3.8290	0.9619	25.97	0.46	0.750			
0.3591	22981.42	3.8260	3.8261	0.9576	25.96	0.45	0.750			
0.3620	23168.57	3.8230	3.8231	0.9603	25.96	0.45	0.750			
0.3649	23353.38	3.8200	3.8201	0.9725	25.95	0.44	0.750			
0.3678	23540.53	3.8170	3.8170	0.9835	25.94	0.43	0.750			
0.3708	23731.76	3.8140	3.8140	0.9957	25.93	0.42	0.750			
0.3738	23920.23	3.8110	3.8110	0.9951	25.92	0.41	0.750			
0.3767	24111.88	3.8080	3.8081	1.0053	25.90	0.39	0.750			
0.3798	24307.62	3.8050	3.8051	1.0229	25.89	0.38	0.750			
0.3829	24505.98	3.8020	3.8020	1.0355	25.88	0.37	0.750			
0.3860	24706.69	3.7990	3.7990	1.0348	25.87	0.36	0.750			
0.3891	24905.45	3.7960	3.7960	1.0513	25.86	0.35	0.750			
0.3923	25106.44	3.7930	3.7931	1.0721	25.85	0.34	0.750			
0.3955	25314.10	3.7900	3.7901	1.0918	25.84	0.33	0.750			
0.3988	25525.03	3.7870	3.7868	1.1088	25.83	0.32	0.750			
0.4021	25736.06	3.7840	3.7841	1.1163	25.82	0.31	0.750			
0.4055	25952.21	3.7810	3.7812	1.1383	25.81	0.30	0.750			
0.4089	26172.70	3.7780	3.7781	1.1622	25.79	0.28	0.750			
0.4124	26395.13	3.7750	3.7752	1.1803	25.78	0.27	0.750			
0.4160	26625.08	3.7720	3.7722	1.2091	25.77	0.26	0.750			
0.4197	26861.60	3.7690	3.7690	1.2411	25.76	0.25	0.750			
0.4236	27107.53	3.7660	3.7660	1.2656	25.75	0.24	0.750			
0.4273	27346.80	3.7630	3.7631	1.2737	25.74	0.23	0.750			
0.4312	27593.80	3.7600	3.7600	1.3052	25.72	0.21	0.750			
0.4351	27845.75	3.7570	3.7567	1.3335	25.71	0.20	0.750			
0.4390	28098.73	3.7540	3.7541	1.3376	25.70	0.19	0.750			
0.4431	28355.35	3.7510	3.7512	1.3742	25.69	0.18	0.750			
0.4472	28621.12	3.7480	3.7478	1.4099	25.67	0.16	0.750			
0.4516	28901.36	3.7450	3.7450	1.4323	25.66	0.15	0.750			
0.4559	29178.84	3.7420	3.7421	1.4621	25.64	0.13	0.750			
0.4604	29468.24	3.7390	3.7390	1.4845	25.63	0.12	0.750			
0.4651	29769.02	3.7360	3.7360	1.5239	25.62	0.11	0.750			
0.4695	30049.80	3.7330	3.7330	1.5345	25.60	0.09	0.750			
0.4741	30341.64	3.7300	3.7302	1.5965	25.59	0.08	0.750			
0.4789	30649.97	3.7270	3.7274	1.6521	25.57	0.06	0.750			
0.4840	30973.85	3.7240	3.7244	1.7127	25.55	0.04	0.750			
0.4892	31306.55	3.7210	3.7209	1.7761	25.54	0.03	0.750			
0.4945	31647.40	3.7180	3.7178	1.9358	25.54	0.03	0.750			
0.5004	32028.53	3.7150	3.7147	2.0479	25.52	0.01	0.750			
0.5069	32440.83	3.7120	3.7118	2.1233	25.50	-0.01	0.750			
0.5136	32869.42	3.7090	3.7095	2.1723	25.48	-0.03	0.750			
0.5202	33293.02	3.7060	3.7062	2.1662	25.47	-0.04	0.750			
0.5266	33701.63	3.7030	3.7029	2.1596	25.46	-0.05	0.750			
0.5330	34113.35	3.7000	3.6998	2.1557	25.45	-0.06	0.750			
0.5396	34534.47	3.6970	3.6968	2.2165	25.43	-0.08	0.750			
0.5463	34963.29	3.6940	3.6941	2.2628	25.41	-0.10	0.750			
0.5532	35405.28	3.6910	3.6910	2.3075	25.40	-0.11	0.750			
0.5604	35863.92	3.6880	3.6880	2.3459	25.39	-0.12	0.750			
0.5675	36321.51	3.6850	3.6850	2.3937	25.38	-0.13	0.750			
0.5748	36788.30	3.6820	3.6820	2.3996	25.38	-0.13	0.750			
0.5820	37245.83	3.6790	3.6792	2.3968	25.37	-0.14	0.750			
0.5891	37705.43	3.6760	3.6761	2.3052	25.37	-0.14	0.750			
0.5960	38140.97	3.6730	3.6729	2.1795	25.37	-0.14	0.750			
0.6023	38548.24	3.6700	3.6698	2.0723	25.37	-0.14	0.750			
0.6083	38931.45	3.6670	3.6668	1.9580	25.37	-0.14	0.750			
0.6141	39301.68	3.6640	3.6642	1.8755	25.37	-0.14	0.750			
0.6195	39649.50	3.6610	3.6611	1.7494	25.38	-0.13	0.750			
0.6244	39964.76	3.6580	3.6581	1.6051	25.38	-0.13	0.750			
0.6291	40264.09	3.6550	3.6551	1.5008	25.38	-0.13	0.750			
0.6334	40536.10	3.6520	3.6521	1.3991	25.39	-0.12	0.750			
0.6374	40790.68	3.6490	3.6491	1.3065	25.39	-0.12	0.750			
0.6411	41032.00	3.6460	3.6461	1.2306	25.40	-0.11	0.750			
0.6447	41262.04	3.6430	3.6430	1.1686	25.40	-0.11	0.750			
0.6482	41482.77	3.6400	3.6400	1.1138	25.41	-0.10	0.750			
0.6513	41685.88	3.6370	3.6370	1.0456	25.42	-0.09	0.750			
0.6543	41877.83	3.6340	3.6340	1.0038	25.43	-0.08	0.750			
0.6573	42065.36	3.6310	3.6310	0.9684	25.43	-0.08	0.750			
0.6601	42246.24	3.6280	3.6278	0.9343	25.44	-0.07	0.750			
0.6629	42423.51	3.6250	3.6251	0.9083	25.45	-0.06	0.750			
0.6656	42595.54	3.6220	3.6221	0.8723	25.45	-0.06	0.750			
0.6682	42761.82	3.6190	3.6190	0.8410	25.46	-0.05	0.750			
0.6706	42919.69	3.6160	3.6161	0.8011	25.46	-0.05	0.750			
0.6730	43070.20	3.6130	3.6125	0.7609	25.47	-0.04	0.750			
0.6752	43213.82	3.6100	3.6101	0.7201	25.48	-0.03	0.750			
0.6773	43348.92	3.6070	3.6071	0.6746	25.48	-0.03	0.750			
0.6793	43475.75	3.6040	3.6040	0.6277	25.49	-0.02	0.750			
0.6811	43590.63	3.6010	3.6010	0.5728	25.50	-0.01	0.750			
0.6828	43696.35	3.5980	3.5980	0.5243	25.50	-0.01	0.750			
0.6842	43791.58	3.5950	3.5950	0.4751	25.51	-0.00	0.750			
0.6856	43878.18	3.5920	3.5919	0.4276	25.51	0.00	0.750			
0.6868	43955.07	3.5890	3.5889	0.3799	25.51	0.00	0.750			
0.6879	44024.21	3.5860	3.5860	0.3324	25.52	0.01	0.750			
0.6888	44083.30	3.5830	3.5830	0.2841	25.52	0.01	0.750			
0.6896	44134.07	3.5800	3.5800	0.2368	25.52	0.01	0.750			
0.6902	44175.68	3.5770	3.5771	0.1871	25.53	0.02	0.750			
0.6907	44206.47	3.5740	3.5742	0.1360	25.53	0.02	0.750			
0.6911	44227.91	3.5710	3.5717	0.0795	25.53	0.02	0.750			
