Ah_balance (normalized)	Ah_balance (mAh)	Voltage - fit (V)	Voltage -  interpolate (V)	dQ/dV (1/V)	Temperature (°C)	Temperature - diff (°C)	Current (C)	R_DC 0ms (mOhm)	R_DC 50ms (mOhm)	R_DC 50 ms PEC (mOhm)
0.0472	3022.98	4.1980	4.1982	0.7815	25.46	0.37	0.750			
0.0496	3172.04	4.1950	4.1950	0.7746	25.46	0.37	0.750			
0.0519	3319.96	4.1920	4.1920	0.7718	25.46	0.37	0.750			
0.0542	3468.38	4.1890	4.1890	0.7712	25.46	0.37	0.750			
0.0565	3615.75	4.1860	4.1860	0.7702	25.46	0.37	0.750			
0.0588	3763.31	4.1830	4.1828	0.7703	25.46	0.37	0.750			
0.0611	3912.15	4.1800	4.1801	0.7728	25.46	0.37	0.750			
0.0634	4059.84	4.1770	4.1770	0.7737	25.46	0.37	0.750			
0.0658	4208.39	4.1740	4.1740	0.7757	25.47	0.38	0.750			
0.0681	4358.03	4.1710	4.1710	0.7789	25.47	0.38	0.750			
0.0704	4507.44	4.1680	4.1680	0.7800	25.47	0.38	0.750			
0.0728	4657.24	4.1650	4.1650	0.7814	25.47	0.38	0.750			
0.0751	4808.56	4.1620	4.1620	0.7804	25.47	0.38	0.750			
0.0775	4957.75	4.1590	4.1590	0.7814	25.47	0.38	0.750			
0.0798	5107.41	4.1560	4.1560	0.7813	25.47	0.38	0.750			
0.0821	5257.27	4.1530	4.1530	0.7843	25.47	0.38	0.750			
0.0845	5407.28	4.1500	4.1499	0.7858	25.47	0.38	0.750			
0.0868	5557.49	4.1470	4.1470	0.7945	25.47	0.38	0.750			
0.0892	5711.54	4.1440	4.1440	0.7946	25.47	0.38	0.750			
0.0916	5865.21	4.1410	4.1410	0.7979	25.47	0.38	0.750			
0.0940	6018.54	4.1380	4.1380	0.7974	25.47	0.38	0.750			
0.0964	6172.74	4.1350	4.1349	0.7976	25.47	0.38	0.750			
0.0988	6324.73	4.1320	4.1320	0.7993	25.47	0.38	0.750			
0.1012	6478.78	4.1290	4.1290	0.7981	25.47	0.38	0.750			
0.1036	6630.53	4.1260	4.1260	0.7980	25.47	0.38	0.750			
0.1060	6786.01	4.1230	4.1230	0.8037	25.47	0.38	0.750			
0.1084	6939.82	4.1200	4.1200	0.8028	25.47	0.38	0.750			
0.1108	7094.35	4.1170	4.1170	0.8037	25.47	0.38	0.750			
0.1133	7249.44	4.1140	4.1140	0.8024	25.47	0.38	0.750			
0.1157	7402.34	4.1110	4.1110	0.8041	25.48	0.39	0.750			
0.1181	7556.92	4.1080	4.1080	0.8090	25.48	0.39	0.750			
0.1205	7711.02	4.1050	4.1050	0.8105	25.48	0.39	0.750			
0.1229	7867.42	4.1020	4.1020	0.8153	25.48	0.39	0.750			
0.1254	8026.25	4.0990	4.0990	0.8167	25.48	0.39	0.750			
0.1279	8183.22	4.0960	4.0960	0.8191	25.48	0.39	0.750			
0.1303	8341.56	4.0930	4.0931	0.8222	25.47	0.38	0.750			
0.1328	8498.11	4.0900	4.0900	0.8221	25.47	0.38	0.750			
0.1352	8655.76	4.0870	4.0870	0.8238	25.47	0.38	0.750			
0.1377	8813.67	4.0840	4.0840	0.8248	25.47	0.38	0.750			
0.1402	8971.85	4.0810	4.0810	0.8324	25.47	0.38	0.750			
0.1427	9134.15	4.0780	4.0780	0.8393	25.48	0.39	0.750			
0.1452	9295.05	4.0750	4.0750	0.8403	25.48	0.39	0.750			
0.1478	9456.95	4.0720	4.0720	0.8429	25.48	0.39	0.750			
0.1503	9621.63	4.0690	4.0690	0.8373	25.48	0.39	0.750			
0.1528	9781.26	4.0660	4.0660	0.8405	25.48	0.39	0.750			
0.1553	9940.95	4.0630	4.0631	0.8426	25.48	0.39	0.750			
0.1578	10101.27	4.0600	4.0600	0.8436	25.48	0.39	0.750			
0.1604	10264.34	4.0570	4.0571	0.8497	25.48	0.39	0.750			
0.1629	10428.70	4.0540	4.0541	0.8538	25.49	0.40	0.750			
0.1655	10593.62	4.0510	4.0510	0.8587	25.49	0.40	0.750			
0.1681	10759.95	4.0480	4.0480	0.8613	25.49	0.40	0.750			
0.1707	10923.96	4.0450	4.0450	0.8599	25.50	0.41	0.750			
0.1733	11089.84	4.0420	4.0420	0.8644	25.50	0.41	0.750			
0.1759	11256.24	4.0390	4.0390	0.8670	25.50	0.41	0.750			
0.1785	11423.19	4.0360	4.0360	0.8697	25.51	0.42	0.750			
0.1811	11590.28	4.0330	4.0330	0.8754	25.51	0.42	0.750			
0.1837	11758.46	4.0300	4.0300	0.8767	25.51	0.42	0.750			
0.1864	11927.85	4.0270	4.0270	0.8785	25.51	0.42	0.750			
0.1890	12096.04	4.0240	4.0240	0.8811	25.51	0.42	0.750			
0.1917	12265.86	4.0210	4.0211	0.8848	25.52	0.43	0.750			
0.1943	12435.66	4.0180	4.0180	0.8893	25.52	0.43	0.750			
0.1970	12606.81	4.0150	4.0150	0.8936	25.52	0.43	0.750			
0.1997	12779.66	4.0120	4.0120	0.8929	25.52	0.43	0.750			
0.2024	12951.69	4.0090	4.0089	0.8991	25.52	0.43	0.750			
0.2051	13124.84	4.0060	4.0061	0.8987	25.53	0.44	0.750			
0.2078	13296.49	4.0030	4.0030	0.8995	25.53	0.44	0.750			
0.2105	13469.30	4.0000	4.0000	0.9020	25.53	0.44	0.750			
0.2132	13641.71	3.9970	3.9970	0.8992	25.53	0.44	0.750			
0.2158	13814.18	3.9940	3.9940	0.9046	25.54	0.45	0.750			
0.2186	13989.40	3.9910	3.9910	0.9128	25.54	0.45	0.750			
0.2213	14163.74	3.9880	3.9878	0.9141	25.54	0.45	0.750			
0.2241	14341.30	3.9850	3.9851	0.9172	25.54	0.45	0.750			
0.2268	14517.44	3.9820	3.9820	0.9184	25.54	0.45	0.750			
0.2296	14695.71	3.9790	3.9790	0.9219	25.55	0.46	0.750			
0.2324	14872.64	3.9760	3.9761	0.9245	25.55	0.46	0.750			
0.2351	15047.83	3.9730	3.9730	0.9237	25.55	0.46	0.750			
0.2379	15225.50	3.9700	3.9700	0.9242	25.55	0.46	0.750			
0.2407	15402.24	3.9670	3.9670	0.9293	25.55	0.46	0.750			
0.2434	15580.72	3.9640	3.9640	0.9363	25.55	0.46	0.750			
0.2463	15761.21	3.9610	3.9609	0.9421	25.55	0.46	0.750			
0.2491	15944.25	3.9580	3.9580	0.9445	25.55	0.46	0.750			
0.2520	16125.98	3.9550	3.9550	0.9440	25.56	0.47	0.750			
0.2548	16308.79	3.9520	3.9521	0.9446	25.56	0.47	0.750			
0.2576	16488.76	3.9490	3.9491	0.9435	25.57	0.48	0.750			
0.2605	16669.64	3.9460	3.9459	0.9449	25.57	0.48	0.750			
0.2633	16849.47	3.9430	3.9430	0.9428	25.58	0.49	0.750			
0.2661	17030.53	3.9400	3.9400	0.9490	25.58	0.49	0.750			
0.2690	17214.39	3.9370	3.9371	0.9574	25.59	0.50	0.750			
0.2718	17398.27	3.9340	3.9338	0.9604	25.59	0.50	0.750			
0.2747	17583.11	3.9310	3.9311	0.9619	25.59	0.50	0.750			
0.2776	17767.65	3.9280	3.9280	0.9658	25.60	0.51	0.750			
0.2805	17954.27	3.9250	3.9251	0.9715	25.60	0.51	0.750			
0.2834	18140.80	3.9220	3.9219	0.9705	25.61	0.52	0.750			
0.2864	18327.65	3.9190	3.9190	0.9719	25.61	0.52	0.750			
0.2893	18514.11	3.9160	3.9160	0.9767	25.61	0.52	0.750			
0.2922	18702.26	3.9130	3.9130	0.9796	25.61	0.52	0.750			
0.2952	18890.19	3.9100	3.9100	0.9796	25.61	0.52	0.750			
0.2981	19078.55	3.9070	3.9070	0.9828	25.61	0.52	0.750			
0.3010	19267.03	3.9040	3.9040	0.9902	25.62	0.53	0.750			
0.3040	19457.99	3.9010	3.9010	0.9975	25.62	0.53	0.750			
0.3070	19649.84	3.8980	3.8979	1.0042	25.63	0.54	0.750			
0.3101	19843.67	3.8950	3.8951	1.0040	25.63	0.54	0.750			
0.3131	20037.94	3.8920	3.8920	1.0100	25.63	0.54	0.750			
0.3161	20232.49	3.8890	3.8890	1.0151	25.63	0.54	0.750			
0.3192	20427.19	3.8860	3.8860	1.0192	25.63	0.54	0.750			
0.3222	20622.29	3.8830	3.8830	1.0201	25.63	0.54	0.750			
0.3253	20818.68	3.8800	3.8800	1.0241	25.63	0.54	0.750			
0.3284	21015.50	3.8770	3.8771	1.0287	25.63	0.54	0.750			
0.3315	21214.05	3.8740	3.8740	1.0350	25.63	0.54	0.750			
0.3346	21413.51	3.8710	3.8709	1.0375	25.63	0.54	0.750			
0.3377	21612.74	3.8680	3.8680	1.0418	25.63	0.54	0.750			
0.3408	21812.49	3.8650	3.8650	1.0480	25.64	0.55	0.750			
0.3440	22014.48	3.8620	3.8621	1.0583	25.64	0.55	0.750			
0.3472	22221.75	3.8590	3.8590	1.0560	25.64	0.55	0.750			
0.3503	22422.05	3.8560	3.8560	1.0626	25.64	0.55	0.750			
0.3535	22625.08	3.8530	3.8530	1.0685	25.64	0.55	0.750			
0.3567	22831.26	3.8500	3.8501	1.0752	25.64	0.55	0.750			
0.3600	23038.64	3.8470	3.8468	1.0791	25.64	0.55	0.750			
0.3632	23246.25	3.8440	3.8441	1.0837	25.64	0.55	0.750			
0.3665	23454.87	3.8410	3.8411	1.0938	25.63	0.54	0.750			
0.3698	23666.72	3.8380	3.8380	1.1076	25.63	0.54	0.750			
0.3731	23879.39	3.8350	3.8349	1.1060	25.63	0.54	0.750			
0.3765	24096.42	3.8320	3.8317	1.1013	25.62	0.53	0.750	0.341	0.435	
0.3798	24308.87	3.8290	3.8291	1.0924	25.62	0.53	0.750			
0.3831	24519.02	3.8260	3.8260	1.0880	25.61	0.52	0.750			
0.3863	24726.13	3.8230	3.8233	1.0681	25.61	0.52	0.750			
0.3894	24922.48	3.8200	3.8198	1.0829	25.60	0.51	0.750			
0.3926	25128.49	3.8170	3.8170	1.1035	25.60	0.51	0.750			
0.3960	25343.40	3.8140	3.8138	1.1194	25.59	0.50	0.750			
0.3995	25566.08	3.8110	3.8111	1.1558	25.58	0.49	0.750			
0.4029	25788.49	3.8080	3.8081	1.1643	25.58	0.49	0.750			
0.4065	26013.59	3.8050	3.8051	1.1711	25.57	0.48	0.750			
0.4100	26242.22	3.8020	3.8019	1.1607	25.56	0.47	0.750			
0.4135	26463.52	3.7990	3.7991	1.1739	25.55	0.46	0.750			
0.4170	26688.45	3.7960	3.7961	1.1818	25.54	0.45	0.750			
0.4206	26918.30	3.7930	3.7928	1.1885	25.53	0.44	0.750			
0.4242	27145.71	3.7900	3.7901	1.1982	25.52	0.43	0.750			
0.4277	27374.78	3.7870	3.7871	1.2152	25.51	0.42	0.750			
0.4314	27610.43	3.7840	3.7841	1.2327	25.50	0.41	0.750			
0.4351	27849.49	3.7810	3.7811	1.2393	25.49	0.40	0.750			
0.4389	28089.55	3.7780	3.7781	1.2586	25.47	0.38	0.750			
0.4427	28332.77	3.7750	3.7751	1.2768	25.46	0.37	0.750			
0.4466	28583.91	3.7720	3.7718	1.2746	25.45	0.36	0.750			
0.4504	28826.58	3.7690	3.7690	1.2941	25.44	0.35	0.750			
0.4543	29074.48	3.7660	3.7661	1.3234	25.43	0.34	0.750			
0.4583	29333.29	3.7630	3.7628	1.3340	25.42	0.33	0.750			
0.4624	29595.20	3.7600	3.7600	1.3544	25.41	0.32	0.750			
0.4664	29850.53	3.7570	3.7572	1.3946	25.40	0.31	0.750			
0.4707	30124.04	3.7540	3.7539	1.4268	25.38	0.29	0.750			
0.4750	30397.25	3.7510	3.7512	1.4594	25.37	0.28	0.750			
0.4795	30685.87	3.7480	3.7477	1.4968	25.36	0.27	0.750			
0.4840	30975.31	3.7450	3.7452	1.5359	25.35	0.26	0.750			
0.4886	31273.22	3.7420	3.7419	1.5766	25.33	0.24	0.750			
0.4935	31584.18	3.7390	3.7392	1.6240	25.31	0.22	0.750			
0.4984	31896.63	3.7360	3.7358	1.6572	25.30	0.21	0.750			
0.5035	32221.08	3.7330	3.7328	1.7262	25.28	0.19	0.750			
0.5087	32556.72	3.7300	3.7299	1.7661	25.27	0.18	0.750			
0.5141	32903.01	3.7270	3.7270	1.8400	25.25	0.16	0.750			
0.5196	33257.34	3.7240	3.7239	1.8883	25.24	0.15	0.750			
0.5254	33624.05	3.7210	3.7214	1.9416	25.22	0.13	0.750			
0.5314	34012.70	3.7180	3.7182	1.9933	25.21	0.12	0.750			
0.5376	34405.76	3.7150	3.7151	2.0421	25.19	0.10	0.750			
0.5436	34788.65	3.7120	3.7123	2.0976	25.17	0.08	0.750			
0.5501	35203.20	3.7090	3.7088	2.1391	25.15	0.06	0.750			
0.5566	35620.01	3.7060	3.7057	2.1990	25.14	0.05	0.750			
0.5633	36048.34	3.7030	3.7035	2.2815	25.11	0.02	0.750			
0.5702	36494.42	3.7000	3.7001	2.3612	25.09	-0.00	0.750			
0.5775	36960.69	3.6970	3.6972	2.4454	25.07	-0.02	0.750			
0.5852	37454.84	3.6940	3.6939	2.5233	25.05	-0.04	0.750			
0.5929	37946.13	3.6910	3.6908	2.5639	25.03	-0.06	0.750			
0.6006	38441.29	3.6880	3.6879	2.6435	25.01	-0.08	0.750			
0.6087	38954.66	3.6850	3.6852	2.7135	24.98	-0.11	0.750			
0.6168	39477.18	3.6820	3.6822	2.7835	24.97	-0.12	0.750			
0.6252	40010.02	3.6790	3.6793	2.8409	24.97	-0.12	0.750			
0.6339	40570.89	3.6760	3.6763	2.9124	24.96	-0.13	0.750			
0.6428	41141.30	3.6730	3.6732	2.9159	24.95	-0.14	0.750			
0.6517	41706.60	3.6700	3.6702	2.9665	24.94	-0.15	0.750			
0.6609	42295.17	3.6670	3.6669	2.9473	24.94	-0.15	0.750			
0.6697	42863.62	3.6640	3.6640	2.8882	24.95	-0.14	0.750			
0.6784	43416.84	3.6610	3.6609	2.8299	24.96	-0.13	0.750			
0.6868	43957.21	3.6580	3.6577	2.6073	24.96	-0.13	0.750			
0.6942	44431.63	3.6550	3.6549	2.4103	24.97	-0.12	0.750			
0.7010	44861.42	3.6520	3.6518	2.1494	24.98	-0.11	0.750			
0.7071	45255.60	3.6490	3.6486	1.9377	25.00	-0.09	0.750			
0.7125	45600.39	3.6460	3.6461	1.7145	25.01	-0.08	0.750			
0.7174	45916.63	3.6430	3.6432	1.5328	25.01	-0.08	0.750			
0.7216	46181.45	3.6400	3.6398	1.3336	25.02	-0.07	0.750			
0.7253	46417.27	3.6370	3.6370	1.1421	25.03	-0.06	0.750			
0.7283	46613.10	3.6340	3.6341	1.0319	25.04	-0.05	0.750			
0.7310	46782.77	3.6310	3.6311	0.9146	25.04	-0.05	0.750			
0.7335	46942.23	3.6280	3.6280	0.8364	25.05	-0.04	0.750			
0.7359	47096.12	3.6250	3.6250	0.7977	25.06	-0.03	0.750			
0.7382	47243.27	3.6220	3.6221	0.7647	25.06	-0.03	0.750			
0.7405	47389.62	3.6190	3.6191	0.7342	25.07	-0.02	0.750			
0.7427	47532.31	3.6160	3.6159	0.6924	25.08	-0.01	0.750			
0.7447	47662.71	3.6130	3.6130	0.6471	25.08	-0.01	0.750			
0.7466	47785.51	3.6100	3.6100	0.5922	25.09	-0.00	0.750			
0.7484	47895.24	3.6070	3.6071	0.5310	25.10	0.01	0.750			
0.7499	47991.56	3.6040	3.6040	0.4621	25.10	0.01	0.750			
0.7511	48073.43	3.6010	3.6009	0.3922	25.10	0.01	0.750			
0.7522	48141.73	3.5980	3.5980	0.3210	25.11	0.02	0.750			
0.7531	48196.02	3.5950	3.5950	0.2514	25.11	0.02	0.750			
0.7537	48237.53	3.5920	3.5920	0.1838	25.11	0.02	0.750			
0.7542	48266.32	3.5890	3.5894	0.1103	25.11	0.02	0.750			
