Ah_balance (normalized)	Ah_balance (mAh)	Voltage - fit (V)	Voltage -  interpolate (V)	dQ/dV (1/V)	Temperature (°C)	Temperature - diff (°C)	Current (C)	R_DC 0ms (mOhm)	R_DC 50ms (mOhm)	R_DC 50 ms PEC (mOhm)
0.0003	17.85	4.1590	4.1587	-0.1348	25.40	0.00	-0.750			
0.0007	46.03	4.1560	4.1559	-0.1673	25.40	0.00	-0.750			
0.0013	81.94	4.1530	4.1529	-0.2061	25.40	-0.00	-0.750			
0.0020	125.98	4.1500	4.1501	-0.2432	25.40	-0.00	-0.750			
0.0028	176.44	4.1470	4.1468	-0.2787	25.40	-0.00	-0.750			
0.0036	233.23	4.1440	4.1441	-0.3178	25.39	-0.01	-0.750			
0.0047	298.44	4.1410	4.1410	-0.3515	25.39	-0.01	-0.750			
0.0058	370.08	4.1380	4.1379	-0.3840	25.39	-0.01	-0.750			
0.0070	448.20	4.1350	4.1351	-0.4125	25.39	-0.01	-0.750			
0.0083	529.55	4.1320	4.1321	-0.4489	25.38	-0.02	-0.750			
0.0097	618.90	4.1290	4.1289	-0.4809	25.38	-0.02	-0.750			
0.0112	714.79	4.1260	4.1259	-0.5075	25.38	-0.02	-0.750			
0.0127	815.07	4.1230	4.1229	-0.5323	25.37	-0.03	-0.750			
0.0144	922.03	4.1200	4.1199	-0.5634	25.37	-0.03	-0.750			
0.0161	1033.15	4.1170	4.1169	-0.5827	25.37	-0.03	-0.750			
0.0179	1147.57	4.1140	4.1140	-0.5963	25.36	-0.04	-0.750			
0.0197	1261.97	4.1110	4.1111	-0.6179	25.36	-0.04	-0.750			
0.0217	1388.30	4.1080	4.1079	-0.6311	25.36	-0.04	-0.750			
0.0236	1511.55	4.1050	4.1047	-0.6392	25.35	-0.05	-0.750			
0.0256	1636.35	4.1020	4.1023	-0.6421	25.35	-0.05	-0.750			
0.0275	1758.47	4.0990	4.0989	-0.6422	25.35	-0.05	-0.750			
0.0294	1882.34	4.0960	4.0959	-0.6468	25.34	-0.06	-0.750			
0.0313	2003.27	4.0930	4.0931	-0.6580	25.34	-0.06	-0.750			
0.0333	2130.66	4.0900	4.0898	-0.6687	25.33	-0.07	-0.750			
0.0353	2260.14	4.0870	4.0870	-0.6821	25.33	-0.07	-0.750			
0.0374	2392.90	4.0840	4.0838	-0.6880	25.32	-0.08	-0.750			
0.0395	2526.60	4.0810	4.0811	-0.6975	25.32	-0.08	-0.750			
0.0416	2662.17	4.0780	4.0779	-0.7022	25.32	-0.08	-0.750			
0.0437	2795.75	4.0750	4.0749	-0.7057	25.32	-0.08	-0.750			
0.0458	2929.97	4.0720	4.0721	-0.7047	25.32	-0.08	-0.750			
0.0479	3065.51	4.0690	4.0688	-0.7228	25.32	-0.08	-0.750			
0.0501	3203.48	4.0660	4.0660	-0.7351	25.32	-0.08	-0.750			
0.0523	3347.98	4.0630	4.0629	-0.7486	25.32	-0.08	-0.750			
0.0546	3494.38	4.0600	4.0597	-0.7552	25.32	-0.08	-0.750			
0.0569	3643.09	4.0570	4.0573	-0.7650	25.32	-0.08	-0.750			
0.0593	3792.80	4.0540	4.0540	-0.7552	25.32	-0.08	-0.750			
0.0616	3940.48	4.0510	4.0509	-0.7488	25.32	-0.08	-0.750			
0.0637	4079.92	4.0480	4.0484	-0.7411	25.32	-0.08	-0.750			
0.0659	4217.92	4.0450	4.0447	-0.7304	25.32	-0.08	-0.750			
0.0681	4356.40	4.0420	4.0420	-0.7347	25.32	-0.08	-0.750			
0.0703	4496.54	4.0390	4.0391	-0.7357	25.32	-0.08	-0.750			
0.0725	4641.83	4.0360	4.0360	-0.7419	25.32	-0.08	-0.750			
0.0748	4784.73	4.0330	4.0330	-0.7434	25.32	-0.08	-0.750			
0.0770	4925.97	4.0300	4.0301	-0.7426	25.32	-0.08	-0.750			
0.0792	5066.05	4.0270	4.0271	-0.7489	25.32	-0.08	-0.750			
0.0814	5211.36	4.0240	4.0239	-0.7512	25.32	-0.08	-0.750			
0.0837	5355.01	4.0210	4.0210	-0.7534	25.33	-0.07	-0.750			
0.0860	5501.76	4.0180	4.0180	-0.7606	25.33	-0.07	-0.750			
0.0883	5650.39	4.0150	4.0152	-0.7666	25.33	-0.07	-0.750			
0.0906	5797.25	4.0120	4.0119	-0.7627	25.33	-0.07	-0.750			
0.0928	5941.27	4.0090	4.0090	-0.7684	25.34	-0.06	-0.750			
0.0952	6090.46	4.0060	4.0060	-0.7671	25.34	-0.06	-0.750			
0.0975	6240.39	4.0030	4.0029	-0.7684	25.34	-0.06	-0.750			
0.0998	6385.91	4.0000	3.9999	-0.7667	25.35	-0.05	-0.750			
0.1021	6533.64	3.9970	3.9970	-0.7674	25.35	-0.05	-0.750			
0.1044	6680.19	3.9940	3.9938	-0.7694	25.35	-0.05	-0.750			
0.1067	6827.30	3.9910	3.9910	-0.7674	25.35	-0.05	-0.750			
0.1090	6972.89	3.9880	3.9880	-0.7620	25.35	-0.05	-0.750			
0.1113	7125.65	3.9850	3.9850	-0.7600	25.35	-0.05	-0.750			
0.1137	7276.37	3.9820	3.9819	-0.7337	25.35	-0.05	-0.750			
0.1158	7411.82	3.9790	3.9791	-0.7125	25.35	-0.05	-0.750			
0.1178	7539.36	3.9760	3.9765	-0.7250	25.36	-0.04	-0.750			
0.1199	7676.45	3.9730	3.9723	-0.7227	25.36	-0.04	-0.750			
0.1221	7811.27	3.9700	3.9696	-0.7295	25.36	-0.04	-0.750			
0.1243	7953.26	3.9670	3.9669	-0.7482	25.37	-0.03	-0.750			
0.1267	8106.80	3.9640	3.9638	-0.7742	25.37	-0.03	-0.750			
0.1290	8255.53	3.9610	3.9609	-0.8070	25.37	-0.03	-0.750			
0.1314	8411.14	3.9580	3.9577	-0.7906	25.37	-0.03	-0.750			
0.1338	8563.40	3.9550	3.9546	-0.7900	25.37	-0.03	-0.750			
0.1361	8712.20	3.9520	3.9516	-0.7981	25.37	-0.03	-0.750			
0.1385	8867.15	3.9490	3.9498	-0.7891	25.37	-0.03	-0.750			
0.1409	9016.74	3.9460	3.9457	-0.7769	25.38	-0.02	-0.750			
0.1432	9164.26	3.9430	3.9426	-0.7929	25.38	-0.02	-0.750			
0.1456	9315.65	3.9400	3.9398	-0.7899	25.39	-0.01	-0.750			
0.1481	9476.94	3.9370	3.9365	-0.7979	25.39	-0.01	-0.750			
0.1504	9628.00	3.9340	3.9336	-0.7950	25.40	-0.00	-0.750			
0.1528	9776.69	3.9310	3.9307	-0.7865	25.40	0.00	-0.750			
0.1551	9928.40	3.9280	3.9278	-0.8014	25.40	0.00	-0.750			
0.1576	10086.82	3.9250	3.9245	-0.7993	25.40	0.00	-0.750			
0.1600	10237.45	3.9220	3.9218	-0.8010	25.40	0.00	-0.750			
0.1624	10394.25	3.9190	3.9186	-0.8055	25.40	0.00	-0.750			
0.1649	10551.10	3.9160	3.9154	-0.8069	25.40	0.00	-0.750			
0.1672	10702.46	3.9130	3.9126	-0.8025	25.41	0.01	-0.750			
0.1696	10856.64	3.9100	3.9094	-0.7938	25.41	0.01	-0.750			
0.1720	11010.56	3.9070	3.9066	-0.7869	25.42	0.02	-0.750			
0.1744	11159.61	3.9040	3.9037	-0.7896	25.43	0.03	-0.750			
0.1768	11313.54	3.9010	3.9005	-0.7836	25.43	0.03	-0.750			
0.1791	11463.89	3.8980	3.8974	-0.7905	25.43	0.03	-0.750			
0.1815	11614.37	3.8950	3.8945	-0.7918	25.43	0.03	-0.750			
0.1839	11767.75	3.8920	3.8912	-0.7863	25.44	0.04	-0.750			
0.1862	11917.20	3.8890	3.8886	-0.7802	25.44	0.04	-0.750			
0.1885	12066.95	3.8860	3.8859	-0.7901	25.44	0.04	-0.750			
0.1909	12216.51	3.8830	3.8822	-0.7859	25.44	0.04	-0.750			
0.1933	12373.53	3.8800	3.8795	-0.7839	25.44	0.04	-0.750			
0.1957	12523.99	3.8770	3.8764	-0.7844	25.45	0.05	-0.750			
0.1981	12675.84	3.8740	3.8740	-0.7824	25.45	0.05	-0.750			
0.2005	12830.94	3.8710	3.8712	-0.7906	25.45	0.05	-0.750			
0.2028	12976.09	3.8680	3.8674	-0.7682	25.45	0.05	-0.750			
0.2050	13121.20	3.8650	3.8645	-0.7775	25.46	0.06	-0.750			
0.2074	13275.99	3.8620	3.8611	-0.7556	25.46	0.06	-0.750			
0.2097	13421.19	3.8590	3.8584	-0.7424	25.46	0.06	-0.750			
0.2119	13560.68	3.8560	3.8552	-0.7560	25.47	0.07	-0.750			
0.2141	13700.36	3.8530	3.8525	-0.7546	25.47	0.07	-0.750			
0.2164	13847.37	3.8500	3.8496	-0.7477	25.47	0.07	-0.750			
0.2186	13991.55	3.8470	3.8476	-0.7516	25.48	0.08	-0.750			
0.2210	14141.36	3.8440	3.8435	-0.7759	25.48	0.08	-0.750			
0.2233	14290.63	3.8410	3.8404	-0.7585	25.49	0.09	-0.750			
0.2255	14430.80	3.8380	3.8376	-0.7559	25.49	0.09	-0.750			
0.2277	14572.73	3.8350	3.8345	-0.7498	25.49	0.09	-0.750			
0.2300	14717.81	3.8320	3.8316	-0.7568	25.49	0.09	-0.750			
0.2323	14866.42	3.8290	3.8285	-0.7620	25.50	0.10	-0.750			
0.2346	15014.70	3.8260	3.8254	-0.7604	25.50	0.10	-0.750			
0.2369	15160.01	3.8230	3.8223	-0.7548	25.50	0.10	-0.750			
0.2392	15308.71	3.8200	3.8193	-0.7458	25.50	0.10	-0.750			
0.2414	15446.97	3.8170	3.8163	-0.7471	25.50	0.10	-0.750			
0.2436	15591.54	3.8140	3.8140	-0.7515	25.50	0.10	-0.750			
0.2459	15739.87	3.8110	3.8103	-0.7453	25.51	0.11	-0.750			
0.2482	15881.65	3.8080	3.8077	-0.7450	25.51	0.11	-0.750			
0.2504	16024.59	3.8050	3.8051	-0.7404	25.51	0.11	-0.750			
0.2526	16168.28	3.8020	3.8014	-0.7378	25.51	0.11	-0.750			
0.2548	16309.45	3.7990	3.7983	-0.7340	25.51	0.11	-0.750			
0.2569	16443.37	3.7960	3.7956	-0.7415	25.51	0.11	-0.750			
0.2592	16585.94	3.7930	3.7929	-0.7616	25.52	0.12	-0.750			
0.2614	16730.98	3.7900	3.7899	-0.7742	25.52	0.12	-0.750			
0.2638	16882.62	3.7870	3.7869	-0.7883	25.52	0.12	-0.750			
0.2662	17039.94	3.7840	3.7837	-0.7864	25.52	0.12	-0.750			
0.2687	17195.82	3.7810	3.7804	-0.8025	25.52	0.12	-0.750			
0.2711	17349.01	3.7780	3.7775	-0.8033	25.53	0.13	-0.750			
0.2735	17504.96	3.7750	3.7745	-0.7914	25.53	0.13	-0.750			
0.2759	17657.35	3.7720	3.7728	-0.7980	25.53	0.13	-0.750			
0.2782	17807.32	3.7690	3.7685	-0.7993	25.53	0.13	-0.750			
0.2806	17959.94	3.7660	3.7654	-0.8064	25.52	0.12	-0.750			
0.2831	18121.57	3.7630	3.7622	-0.8120	25.52	0.12	-0.750			
0.2855	18273.00	3.7600	3.7594	-0.7979	25.51	0.11	-0.750			
0.2879	18423.10	3.7570	3.7565	-0.8132	25.51	0.11	-0.750			
0.2903	18581.81	3.7540	3.7551	-0.8259	25.51	0.11	-0.750			
0.2929	18744.06	3.7510	3.7506	-0.8429	25.51	0.11	-0.750			
0.2954	18903.27	3.7480	3.7473	-0.8446	25.51	0.11	-0.750			
0.2979	19068.41	3.7450	3.7445	-0.8568	25.51	0.11	-0.750			
0.3006	19236.49	3.7420	3.7418	-0.8568	25.51	0.11	-0.750			
0.3031	19400.53	3.7390	3.7384	-0.8751	25.51	0.11	-0.750			
0.3057	19567.53	3.7360	3.7353	-0.8759	25.51	0.11	-0.750			
0.3084	19737.36	3.7330	3.7325	-0.8887	25.51	0.11	-0.750			
0.3111	19910.59	3.7300	3.7291	-0.8879	25.51	0.11	-0.750			
0.3138	20082.95	3.7270	3.7268	-0.8880	25.51	0.11	-0.750			
0.3165	20253.86	3.7240	3.7232	-0.9001	25.50	0.10	-0.750			
0.3192	20431.52	3.7210	3.7201	-0.9038	25.50	0.10	-0.750			
0.3219	20601.47	3.7180	3.7173	-0.9050	25.49	0.09	-0.750			
0.3246	20774.08	3.7150	3.7147	-0.9250	25.48	0.08	-0.750			
0.3274	20950.80	3.7120	3.7117	-0.9450	25.48	0.08	-0.750			
0.3302	21133.39	3.7090	3.7083	-0.9768	25.48	0.08	-0.750			
0.3333	21330.06	3.7060	3.7054	-0.9815	25.47	0.07	-0.750			
0.3362	21519.57	3.7030	3.7024	-0.9935	25.47	0.07	-0.750			
0.3393	21717.88	3.7000	3.6992	-0.9946	25.47	0.07	-0.750			
0.3423	21907.19	3.6970	3.6963	-1.0126	25.46	0.06	-0.750	0.456	0.616	
0.3454	22103.81	3.6940	3.6933	-1.0035	25.46	0.06	-0.750			
0.3484	22296.46	3.6910	3.6904	-0.9992	25.45	0.05	-0.750			
0.3512	22479.16	3.6880	3.6884	-1.0329	25.45	0.05	-0.750			
0.3544	22683.44	3.6850	3.6849	-1.0666	25.45	0.05	-0.750			
0.3577	22891.60	3.6820	3.6816	-1.0736	25.44	0.04	-0.750			
0.3609	23096.90	3.6790	3.6787	-1.0781	25.44	0.04	-0.750			
0.3642	23311.89	3.6760	3.6772	-1.1205	25.44	0.04	-0.750			
0.3678	23536.02	3.6730	3.6726	-1.1546	25.43	0.03	-0.750			
0.3712	23758.70	3.6700	3.6695	-1.1476	25.43	0.03	-0.750			
0.3745	23969.31	3.6670	3.6669	-1.1429	25.42	0.02	-0.750			
0.3781	24200.09	3.6640	3.6636	-1.1803	25.41	0.01	-0.750			
0.3817	24429.17	3.6610	3.6606	-1.2039	25.40	0.00	-0.750			
0.3853	24657.91	3.6580	3.6575	-1.2032	25.39	-0.01	-0.750			
0.3889	24890.38	3.6550	3.6555	-1.2420	25.38	-0.02	-0.750			
0.3928	25137.45	3.6520	3.6515	-1.2561	25.38	-0.02	-0.750			
0.3966	25385.54	3.6490	3.6484	-1.2827	25.37	-0.03	-0.750			
0.4004	25624.04	3.6460	3.6462	-1.2883	25.37	-0.03	-0.750			
0.4043	25872.15	3.6430	3.6426	-1.3327	25.36	-0.04	-0.750			
0.4084	26134.62	3.6400	3.6394	-1.3390	25.36	-0.04	-0.750			
0.4125	26397.78	3.6370	3.6366	-1.3755	25.35	-0.05	-0.750			
0.4166	26664.73	3.6340	3.6337	-1.3973	25.34	-0.06	-0.750			
0.4209	26940.28	3.6310	3.6304	-1.4235	25.33	-0.07	-0.750			
0.4253	27221.93	3.6280	3.6285	-1.4503	25.32	-0.08	-0.750			
0.4298	27504.13	3.6250	3.6248	-1.4598	25.32	-0.08	-0.750			
0.4340	27775.49	3.6220	3.6214	-1.4967	25.31	-0.09	-0.750			
0.4387	28077.43	3.6190	3.6195	-1.5156	25.31	-0.09	-0.750			
0.4433	28372.17	3.6160	3.6158	-1.5570	25.31	-0.09	-0.750			
0.4479	28666.19	3.6130	3.6132	-1.5815	25.30	-0.10	-0.750			
0.4527	28972.44	3.6100	3.6097	-1.6038	25.30	-0.10	-0.750			
0.4578	29299.43	3.6070	3.6063	-1.6697	25.29	-0.11	-0.750			
0.4628	29618.38	3.6040	3.6030	-1.6505	25.29	-0.11	-0.750			
0.4680	29954.84	3.6010	3.6017	-1.7164	25.29	-0.11	-0.750			
0.4732	30284.97	3.5980	3.5973	-1.7191	25.28	-0.12	-0.750			
0.4783	30608.09	3.5950	3.5948	-1.7498	25.28	-0.12	-0.750			
0.4835	30941.74	3.5920	3.5925	-1.7661	25.28	-0.12	-0.750			
0.4889	31289.44	3.5890	3.5887	-1.7865	25.28	-0.12	-0.750			
0.4943	31637.91	3.5860	3.5865	-1.8714	25.28	-0.12	-0.750			
0.5000	32002.63	3.5830	3.5834	-1.9013	25.27	-0.13	-0.750			
0.5059	32377.29	3.5800	3.5796	-1.9275	25.27	-0.13	-0.750			
0.5117	32747.95	3.5770	3.5765	-1.9401	25.27	-0.13	-0.750			
0.5174	33111.04	3.5740	3.5746	-1.9224	25.27	-0.13	-0.750			
0.5233	33492.71	3.5710	3.5704	-1.9410	25.27	-0.13	-0.750			
0.5292	33866.31	3.5680	3.5674	-1.9719	25.27	-0.13	-0.750			
0.5354	34262.97	3.5650	3.5649	-1.9708	25.27	-0.13	-0.750			
0.5414	34650.56	3.5620	3.5618	-1.9659	25.27	-0.13	-0.750			
0.5471	35014.04	3.5590	3.5595	-1.9820	25.27	-0.13	-0.750			
0.5530	35391.14	3.5560	3.5557	-1.9715	25.27	-0.13	-0.750			
0.5589	35771.31	3.5530	3.5527	-1.9896	25.27	-0.13	-0.750			
0.5651	36166.88	3.5500	3.5502	-2.0625	25.27	-0.13	-0.750			
0.5711	36552.73	3.5470	3.5471	-1.9755	25.28	-0.12	-0.750			
0.5769	36921.43	3.5440	3.5434	-1.9033	25.28	-0.12	-0.750			
0.5824	37273.66	3.5410	3.5410	-1.8450	25.29	-0.11	-0.750			
0.5879	37623.77	3.5380	3.5384	-1.8223	25.29	-0.11	-0.750			
0.5933	37970.09	3.5350	3.5349	-1.8240	25.29	-0.11	-0.750			
0.5989	38329.24	3.5320	3.5316	-1.8532	25.30	-0.10	-0.750			
0.6046	38692.54	3.5290	3.5287	-1.8299	25.31	-0.09	-0.750			
0.6100	39039.84	3.5260	3.5255	-1.7943	25.32	-0.08	-0.750			
0.6154	39385.60	3.5230	3.5226	-1.7661	25.33	-0.07	-0.750			
0.6209	39735.64	3.5200	3.5198	-1.7005	25.35	-0.05	-0.750			
0.6257	40043.20	3.5170	3.5177	-1.6581	25.36	-0.04	-0.750			
0.6305	40352.96	3.5140	3.5135	-1.6310	25.37	-0.03	-0.750			
0.6354	40668.21	3.5110	3.5105	-1.6005	25.38	-0.02	-0.750			
0.6403	40978.75	3.5080	3.5076	-1.5741	25.40	-0.00	-0.750			
0.6451	41288.27	3.5050	3.5045	-1.5256	25.41	0.01	-0.750			
0.6497	41582.36	3.5020	3.5021	-1.4897	25.43	0.03	-0.750			
0.6541	41864.60	3.4990	3.4983	-1.4190	25.44	0.04	-0.750			
0.6582	42123.86	3.4960	3.4956	-1.3401	25.46	0.06	-0.750			
0.6621	42377.23	3.4930	3.4926	-1.2930	25.47	0.07	-0.750			
0.6660	42621.14	3.4900	3.4896	-1.2739	25.49	0.09	-0.750			
0.6698	42867.01	3.4870	3.4868	-1.2461	25.50	0.10	-0.750			
0.6735	43105.95	3.4840	3.4837	-1.2140	25.51	0.11	-0.750			
0.6771	43333.70	3.4810	3.4808	-1.2169	25.52	0.12	-0.750			
0.6808	43568.75	3.4780	3.4778	-1.2413	25.54	0.14	-0.750			
