Ah_balance (normalized)	Ah_balance (mAh)	Voltage - fit (V)	Voltage -  interpolate (V)	dQ/dV (1/V)	Temperature (°C)	Temperature - diff (°C)	Current (C)	R_DC 0ms (mOhm)	R_DC 50ms (mOhm)	R_DC 50 ms PEC (mOhm)
0.0478	3058.41	4.1980	4.1980	0.7482	25.38	0.57	0.750			
0.0500	3203.20	4.1950	4.1949	0.7549	25.38	0.57	0.750			
0.0523	3348.67	4.1920	4.1920	0.7548	25.38	0.57	0.750			
0.0546	3492.97	4.1890	4.1890	0.7564	25.37	0.56	0.750			
0.0568	3637.63	4.1860	4.1861	0.7605	25.37	0.56	0.750			
0.0591	3784.55	4.1830	4.1828	0.7634	25.37	0.56	0.750			
0.0614	3930.81	4.1800	4.1800	0.7639	25.37	0.56	0.750			
0.0637	4079.78	4.1770	4.1770	0.7616	25.37	0.56	0.750			
0.0660	4226.20	4.1740	4.1740	0.7644	25.37	0.56	0.750			
0.0683	4371.54	4.1710	4.1710	0.7610	25.37	0.56	0.750			
0.0706	4516.36	4.1680	4.1681	0.7664	25.37	0.56	0.750			
0.0729	4662.58	4.1650	4.1651	0.7675	25.37	0.56	0.750			
0.0752	4812.31	4.1620	4.1620	0.7694	25.37	0.56	0.750			
0.0775	4961.22	4.1590	4.1589	0.7731	25.37	0.56	0.750			
0.0798	5109.89	4.1560	4.1562	0.7758	25.37	0.56	0.750			
0.0822	5259.43	4.1530	4.1530	0.7736	25.37	0.56	0.750			
0.0845	5407.72	4.1500	4.1498	0.7742	25.37	0.56	0.750			
0.0868	5555.44	4.1470	4.1470	0.7769	25.37	0.56	0.750			
0.0891	5705.53	4.1440	4.1441	0.7775	25.37	0.56	0.750			
0.0915	5855.03	4.1410	4.1410	0.7788	25.37	0.56	0.750			
0.0938	6004.60	4.1380	4.1380	0.7797	25.37	0.56	0.750			
0.0962	6153.88	4.1350	4.1350	0.7847	25.37	0.56	0.750			
0.0985	6305.10	4.1320	4.1319	0.7876	25.37	0.56	0.750			
0.1009	6458.05	4.1290	4.1290	0.7802	25.37	0.56	0.750			
0.1032	6606.91	4.1260	4.1261	0.7835	25.36	0.55	0.750			
0.1056	6759.28	4.1230	4.1230	0.7823	25.36	0.55	0.750			
0.1079	6908.31	4.1200	4.1200	0.7794	25.36	0.55	0.750			
0.1103	7056.39	4.1170	4.1170	0.7746	25.36	0.55	0.750			
0.1126	7203.89	4.1140	4.1141	0.7781	25.36	0.55	0.750			
0.1149	7353.65	4.1110	4.1110	0.7829	25.36	0.55	0.750			
0.1173	7504.67	4.1080	4.1080	0.7888	25.35	0.54	0.750			
0.1196	7654.74	4.1050	4.1050	0.7914	25.35	0.54	0.750			
0.1220	7810.03	4.1020	4.1020	0.7991	25.35	0.54	0.750			
0.1244	7963.63	4.0990	4.0990	0.7995	25.35	0.54	0.750			
0.1268	8117.75	4.0960	4.0960	0.7988	25.35	0.54	0.750			
0.1292	8269.30	4.0930	4.0930	0.8008	25.36	0.55	0.750			
0.1316	8423.03	4.0900	4.0901	0.8057	25.36	0.55	0.750			
0.1340	8577.76	4.0870	4.0868	0.8103	25.36	0.55	0.750			
0.1365	8733.72	4.0840	4.0841	0.8152	25.36	0.55	0.750			
0.1390	8894.10	4.0810	4.0811	0.8089	25.36	0.55	0.750			
0.1414	9048.68	4.0780	4.0780	0.8154	25.35	0.54	0.750			
0.1438	9204.42	4.0750	4.0751	0.8176	25.35	0.54	0.750			
0.1462	9358.82	4.0720	4.0719	0.8143	25.35	0.54	0.750			
0.1487	9515.79	4.0690	4.0690	0.8181	25.35	0.54	0.750			
0.1512	9673.64	4.0660	4.0661	0.8203	25.35	0.54	0.750			
0.1536	9831.77	4.0630	4.0631	0.8248	25.36	0.55	0.750			
0.1561	9991.65	4.0600	4.0600	0.8262	25.36	0.55	0.750			
0.1586	10149.27	4.0570	4.0569	0.8292	25.36	0.55	0.750			
0.1611	10308.96	4.0540	4.0540	0.8319	25.36	0.55	0.750			
0.1636	10472.63	4.0510	4.0510	0.8255	25.36	0.55	0.750			
0.1661	10629.80	4.0480	4.0481	0.8370	25.37	0.56	0.750			
0.1686	10790.16	4.0450	4.0450	0.8414	25.37	0.56	0.750			
0.1711	10950.90	4.0420	4.0418	0.8436	25.37	0.56	0.750			
0.1737	11114.15	4.0390	4.0392	0.8449	25.37	0.56	0.750			
0.1762	11276.64	4.0360	4.0361	0.8497	25.37	0.56	0.750			
0.1787	11437.69	4.0330	4.0331	0.8467	25.37	0.56	0.750			
0.1813	11600.69	4.0300	4.0301	0.8542	25.37	0.56	0.750			
0.1838	11760.89	4.0270	4.0266	0.8503	25.37	0.56	0.750			
0.1863	11925.89	4.0240	4.0242	0.8586	25.37	0.56	0.750			
0.1890	12093.25	4.0210	4.0212	0.8593	25.37	0.56	0.750			
0.1916	12260.08	4.0180	4.0180	0.8609	25.37	0.56	0.750			
0.1942	12429.12	4.0150	4.0150	0.8695	25.37	0.56	0.750			
0.1967	12587.87	4.0120	4.0119	0.8577	25.37	0.56	0.750			
0.1993	12752.96	4.0090	4.0090	0.8611	25.37	0.56	0.750			
0.2019	12919.12	4.0060	4.0060	0.8559	25.37	0.56	0.750			
0.2044	13083.25	4.0030	4.0031	0.8611	25.37	0.56	0.750			
0.2070	13247.39	4.0000	4.0002	0.8649	25.37	0.56	0.750			
0.2096	13413.23	3.9970	3.9966	0.8718	25.37	0.56	0.750			
0.2122	13581.02	3.9940	3.9941	0.8704	25.37	0.56	0.750			
0.2148	13748.94	3.9910	3.9911	0.8829	25.37	0.56	0.750			
0.2175	13922.24	3.9880	3.9880	0.8960	25.37	0.56	0.750			
0.2202	14094.12	3.9850	3.9850	0.8920	25.37	0.56	0.750			
0.2229	14265.76	3.9820	3.9821	0.8985	25.37	0.56	0.750			
0.2256	14439.78	3.9790	3.9790	0.9021	25.37	0.56	0.750			
0.2284	14614.77	3.9760	3.9761	0.9046	25.37	0.56	0.750			
0.2311	14789.21	3.9730	3.9729	0.9079	25.37	0.56	0.750			
0.2338	14962.23	3.9700	3.9699	0.9032	25.37	0.56	0.750			
0.2365	15136.99	3.9670	3.9670	0.9018	25.37	0.56	0.750			
0.2392	15308.82	3.9640	3.9641	0.9069	25.37	0.56	0.750			
0.2419	15482.53	3.9610	3.9610	0.9113	25.37	0.56	0.750			
0.2447	15658.26	3.9580	3.9580	0.9172	25.37	0.56	0.750			
0.2474	15834.83	3.9550	3.9550	0.9210	25.37	0.56	0.750			
0.2502	16015.40	3.9520	3.9520	0.9077	25.37	0.56	0.750			
0.2530	16190.86	3.9490	3.9491	0.9143	25.37	0.56	0.750			
0.2557	16364.02	3.9460	3.9461	0.9171	25.38	0.57	0.750			
0.2584	16537.36	3.9430	3.9430	0.9130	25.38	0.57	0.750			
0.2611	16713.38	3.9400	3.9401	0.9215	25.38	0.57	0.750			
0.2639	16890.18	3.9370	3.9371	0.9263	25.38	0.57	0.750			
0.2667	17071.11	3.9340	3.9340	0.9375	25.38	0.57	0.750			
0.2697	17258.87	3.9310	3.9309	0.9432	25.38	0.57	0.750			
0.2724	17436.20	3.9280	3.9280	0.9310	25.38	0.57	0.750			
0.2752	17615.43	3.9250	3.9253	0.9215	25.38	0.57	0.750			
0.2780	17790.10	3.9220	3.9219	0.9242	25.38	0.57	0.750			
0.2807	17965.68	3.9190	3.9190	0.9232	25.38	0.57	0.750			
0.2834	18140.67	3.9160	3.9158	0.9245	25.38	0.57	0.750			
0.2862	18316.53	3.9130	3.9130	0.9315	25.38	0.57	0.750			
0.2891	18501.35	3.9100	3.9101	0.9311	25.38	0.57	0.750			
0.2919	18678.43	3.9070	3.9071	0.9345	25.38	0.57	0.750			
0.2947	18858.19	3.9040	3.9041	0.9408	25.38	0.57	0.750			
0.2975	19036.83	3.9010	3.9007	0.9451	25.38	0.57	0.750			
0.3003	19218.61	3.8980	3.8981	0.9470	25.38	0.57	0.750			
0.3032	19401.90	3.8950	3.8951	0.9507	25.38	0.57	0.750			
0.3061	19587.72	3.8920	3.8920	0.9574	25.38	0.57	0.750			
0.3089	19770.20	3.8890	3.8889	0.9495	25.38	0.57	0.750			
0.3118	19954.93	3.8860	3.8860	0.9449	25.38	0.57	0.750			
0.3146	20134.63	3.8830	3.8830	0.9549	25.38	0.57	0.750			
0.3175	20316.90	3.8800	3.8801	0.9601	25.37	0.56	0.750			
0.3204	20502.73	3.8770	3.8770	0.9642	25.37	0.56	0.750			
0.3233	20688.85	3.8740	3.8740	0.9698	25.37	0.56	0.750			
0.3262	20875.61	3.8710	3.8711	0.9634	25.36	0.55	0.750			
0.3291	21059.31	3.8680	3.8681	0.9692	25.36	0.55	0.750			
0.3320	21245.80	3.8650	3.8651	0.9779	25.35	0.54	0.750			
0.3349	21431.38	3.8620	3.8618	0.9745	25.35	0.54	0.750			
0.3378	21619.68	3.8590	3.8592	0.9760	25.34	0.53	0.750			
0.3408	21808.34	3.8560	3.8561	0.9826	25.33	0.52	0.750			
0.3437	21999.87	3.8530	3.8530	0.9884	25.33	0.52	0.750			
0.3468	22192.16	3.8500	3.8498	0.9953	25.32	0.51	0.750			
0.3497	22378.31	3.8470	3.8470	0.9708	25.31	0.50	0.750			
0.3527	22569.68	3.8440	3.8440	0.9712	25.30	0.49	0.750			
0.3555	22754.58	3.8410	3.8410	0.9798	25.29	0.48	0.750			
0.3584	22938.48	3.8380	3.8379	0.9903	25.28	0.47	0.750			
0.3614	23129.66	3.8350	3.8352	0.9909	25.27	0.46	0.750			
0.3644	23318.46	3.8320	3.8316	1.0051	25.27	0.46	0.750	0.332	0.418	
0.3674	23513.94	3.8290	3.8293	1.0180	25.26	0.45	0.750			
0.3705	23711.58	3.8260	3.8262	1.0196	25.25	0.44	0.750			
0.3736	23913.08	3.8230	3.8231	1.0320	25.24	0.43	0.750			
0.3767	24108.78	3.8200	3.8201	1.0207	25.23	0.42	0.750			
0.3798	24305.95	3.8170	3.8170	1.0341	25.22	0.41	0.750			
0.3829	24508.73	3.8140	3.8140	1.0454	25.21	0.40	0.750			
0.3861	24708.33	3.8110	3.8110	1.0323	25.21	0.40	0.750			
0.3892	24908.09	3.8080	3.8080	1.0439	25.20	0.39	0.750			
0.3923	25107.71	3.8050	3.8051	1.0501	25.19	0.38	0.750			
0.3954	25308.44	3.8020	3.8020	1.0597	25.18	0.37	0.750			
0.3986	25511.59	3.7990	3.7991	1.0669	25.17	0.36	0.750			
0.4017	25711.03	3.7960	3.7961	1.0643	25.16	0.35	0.750			
0.4049	25914.77	3.7930	3.7932	1.0908	25.15	0.34	0.750			
0.4082	26126.75	3.7900	3.7902	1.1140	25.14	0.33	0.750			
0.4116	26340.85	3.7870	3.7871	1.1330	25.13	0.32	0.750			
0.4150	26562.07	3.7840	3.7842	1.1607	25.12	0.31	0.750			
0.4186	26791.23	3.7810	3.7812	1.1838	25.11	0.30	0.750			
0.4223	27027.97	3.7780	3.7779	1.2083	25.10	0.29	0.750			
0.4258	27249.24	3.7750	3.7750	1.1968	25.09	0.28	0.750			
0.4293	27476.99	3.7720	3.7721	1.2186	25.08	0.27	0.750			
0.4331	27720.40	3.7690	3.7688	1.2261	25.06	0.25	0.750			
0.4368	27954.53	3.7660	3.7661	1.2575	25.05	0.24	0.750			
0.4406	28195.91	3.7630	3.7632	1.2933	25.04	0.23	0.750			
0.4445	28447.84	3.7600	3.7602	1.3287	25.04	0.23	0.750			
0.4486	28709.18	3.7570	3.7571	1.3725	25.02	0.21	0.750			
0.4527	28971.04	3.7540	3.7541	1.3895	25.01	0.20	0.750			
0.4570	29249.83	3.7510	3.7510	1.4049	25.00	0.19	0.750			
0.4614	29528.10	3.7480	3.7480	1.4146	24.98	0.17	0.750			
0.4657	29801.77	3.7450	3.7451	1.4207	24.97	0.16	0.750			
0.4699	30075.99	3.7420	3.7421	1.4450	24.96	0.15	0.750			
0.4742	30346.06	3.7390	3.7391	1.5153	24.95	0.14	0.750			
0.4787	30637.95	3.7360	3.7363	1.5624	24.94	0.13	0.750			
0.4836	30947.96	3.7330	3.7330	1.6198	24.92	0.11	0.750			
0.4886	31268.40	3.7300	3.7298	1.7034	24.91	0.10	0.750			
0.4939	31607.56	3.7270	3.7266	1.7384	24.89	0.08	0.750			
0.4992	31950.33	3.7240	3.7238	1.7801	24.87	0.06	0.750			
0.5047	32298.15	3.7210	3.7209	1.8281	24.86	0.05	0.750			
0.5101	32648.24	3.7180	3.7181	1.8746	24.85	0.04	0.750			
0.5159	33015.79	3.7150	3.7148	1.9271	24.83	0.02	0.750			
0.5217	33391.65	3.7120	3.7116	1.9687	24.82	0.01	0.750			
0.5277	33772.23	3.7090	3.7091	2.0471	24.80	-0.01	0.750			
0.5338	34165.11	3.7060	3.7063	2.1155	24.78	-0.03	0.750			
0.5402	34574.44	3.7030	3.7027	2.2046	24.77	-0.04	0.750			
0.5469	35000.22	3.7000	3.6999	2.2298	24.76	-0.05	0.750			
0.5538	35441.75	3.6970	3.6964	2.2939	24.74	-0.07	0.750			
0.5609	35895.81	3.6940	3.6943	2.3326	24.72	-0.09	0.750			
0.5678	36339.13	3.6910	3.6909	2.4209	24.71	-0.10	0.750			
0.5751	36808.62	3.6880	3.6875	2.4519	24.70	-0.11	0.750			
0.5827	37292.35	3.6850	3.6853	2.4878	24.69	-0.12	0.750			
0.5903	37779.48	3.6820	3.6821	2.5668	24.69	-0.12	0.750			
0.5981	38277.23	3.6790	3.6794	2.6845	24.68	-0.13	0.750			
0.6065	38815.89	3.6760	3.6756	2.7304	24.67	-0.14	0.750			
0.6146	39334.53	3.6730	3.6727	2.7758	24.67	-0.14	0.750			
0.6228	39860.07	3.6700	3.6704	2.8323	24.66	-0.15	0.750			
0.6313	40400.95	3.6670	3.6676	2.6857	24.67	-0.14	0.750			
0.6393	40918.15	3.6640	3.6635	2.6294	24.67	-0.14	0.750			
0.6473	41426.79	3.6610	3.6607	2.4468	24.68	-0.13	0.750			
0.6545	41890.32	3.6580	3.6581	2.4180	24.69	-0.12	0.750			
0.6611	42310.11	3.6550	3.6546	2.1153	24.69	-0.12	0.750			
0.6666	42662.31	3.6520	3.6518	1.8378	24.70	-0.11	0.750			
0.6718	42995.22	3.6490	3.6485	1.6936	24.70	-0.11	0.750			
0.6767	43306.87	3.6460	3.6465	1.5466	24.71	-0.10	0.750			
0.6812	43599.27	3.6430	3.6432	1.4129	24.72	-0.09	0.750			
0.6853	43860.98	3.6400	3.6401	1.2920	24.72	-0.09	0.750			
0.6890	44098.69	3.6370	3.6369	1.1640	24.73	-0.08	0.750			
0.6920	44289.60	3.6340	3.6341	1.0623	24.73	-0.08	0.750			
0.6951	44484.07	3.6310	3.6311	1.0084	24.74	-0.07	0.750			
0.6979	44665.90	3.6280	3.6281	0.9685	24.74	-0.07	0.750			
0.7008	44852.36	3.6250	3.6250	0.9241	24.75	-0.06	0.750			
0.7035	45025.43	3.6220	3.6221	0.9132	24.76	-0.05	0.750			
0.7062	45199.75	3.6190	3.6191	0.8926	24.77	-0.04	0.750			
0.7089	45368.73	3.6160	3.6156	0.8646	24.78	-0.03	0.750			
0.7115	45535.02	3.6130	3.6132	0.8240	24.79	-0.02	0.750			
0.7140	45693.46	3.6100	3.6102	0.7790	24.79	-0.02	0.750			
0.7163	45840.98	3.6070	3.6071	0.7156	24.80	-0.01	0.750			
0.7184	45979.72	3.6040	3.6040	0.6554	24.80	-0.01	0.750			
0.7202	46091.18	3.6010	3.6010	0.5699	24.81	-0.00	0.750			
0.7218	46193.30	3.5980	3.5978	0.5080	24.81	0.00	0.750			
0.7232	46281.94	3.5950	3.5950	0.4438	24.81	0.00	0.750			
0.7244	46361.34	3.5920	3.5920	0.3902	24.82	0.01	0.750			
0.7255	46430.91	3.5890	3.5889	0.3371	24.82	0.01	0.750			
0.7264	46489.90	3.5860	3.5861	0.2830	24.82	0.01	0.750			
0.7272	46540.22	3.5830	3.5829	0.2330	24.82	0.01	0.750			
0.7278	46580.36	3.5800	3.5800	0.1805	24.82	0.01	0.750			
0.7283	46610.17	3.5770	3.5774	0.1258	24.83	0.02	0.750			
0.7286	46629.14	3.5740	3.5750	0.0784	24.83	0.02	0.750			
