Ah_balance (normalized)	Ah_balance (mAh)	Voltage - fit (V)	Voltage -  interpolate (V)	dQ/dV (1/V)	Temperature (°C)	Temperature - diff (°C)	Current (C)	R_DC 0ms (mOhm)	R_DC 50ms (mOhm)	R_DC 50 ms PEC (mOhm)
0.0478	3057.20	4.1980	4.1980	0.7256	25.24	0.58	0.750			
0.0499	3194.34	4.1950	4.1952	0.7237	25.24	0.58	0.750			
0.0521	3336.24	4.1920	4.1920	0.7462	25.24	0.58	0.750			
0.0544	3483.74	4.1890	4.1890	0.7575	25.24	0.58	0.750			
0.0567	3630.73	4.1860	4.1861	0.7631	25.24	0.58	0.750			
0.0591	3780.33	4.1830	4.1831	0.7729	25.24	0.58	0.750			
0.0614	3929.63	4.1800	4.1800	0.7718	25.25	0.59	0.750			
0.0637	4075.71	4.1770	4.1769	0.7653	25.25	0.59	0.750			
0.0660	4221.19	4.1740	4.1740	0.7664	25.25	0.59	0.750			
0.0683	4368.61	4.1710	4.1711	0.7719	25.25	0.59	0.750			
0.0706	4518.81	4.1680	4.1680	0.7755	25.25	0.59	0.750			
0.0729	4667.92	4.1650	4.1650	0.7803	25.25	0.59	0.750			
0.0753	4817.54	4.1620	4.1620	0.7846	25.25	0.59	0.750			
0.0776	4968.46	4.1590	4.1591	0.7893	25.25	0.59	0.750			
0.0800	5121.48	4.1560	4.1560	0.7881	25.25	0.59	0.750			
0.0824	5273.27	4.1530	4.1530	0.7855	25.25	0.59	0.750			
0.0848	5425.10	4.1500	4.1501	0.7750	25.25	0.59	0.750			
0.0870	5571.02	4.1470	4.1470	0.7798	25.25	0.59	0.750			
0.0893	5718.01	4.1440	4.1441	0.7814	25.25	0.59	0.750			
0.0917	5868.20	4.1410	4.1405	0.7884	25.25	0.59	0.750			
0.0941	6019.72	4.1380	4.1381	0.7950	25.25	0.59	0.750			
0.0965	6175.38	4.1350	4.1351	0.8007	25.25	0.59	0.750			
0.0990	6333.04	4.1320	4.1320	0.8064	25.25	0.59	0.750			
0.1014	6486.68	4.1290	4.1290	0.7982	25.25	0.59	0.750			
0.1037	6639.20	4.1260	4.1260	0.8002	25.25	0.59	0.750			
0.1061	6791.55	4.1230	4.1230	0.8038	25.25	0.59	0.750			
0.1086	6947.54	4.1200	4.1200	0.8021	25.26	0.60	0.750			
0.1110	7101.93	4.1170	4.1170	0.8071	25.26	0.60	0.750			
0.1134	7257.23	4.1140	4.1140	0.8089	25.27	0.61	0.750			
0.1158	7412.73	4.1110	4.1110	0.8114	25.27	0.61	0.750			
0.1183	7569.15	4.1080	4.1081	0.8138	25.27	0.61	0.750			
0.1207	7726.92	4.1050	4.1050	0.8050	25.27	0.61	0.750			
0.1231	7880.62	4.1020	4.1020	0.8100	25.27	0.61	0.750			
0.1256	8036.03	4.0990	4.0992	0.8169	25.27	0.61	0.750			
0.1280	8191.71	4.0960	4.0959	0.8149	25.27	0.61	0.750			
0.1304	8348.48	4.0930	4.0931	0.8164	25.27	0.61	0.750			
0.1329	8505.07	4.0900	4.0901	0.8179	25.27	0.61	0.750			
0.1354	8662.47	4.0870	4.0871	0.8234	25.27	0.61	0.750			
0.1379	8824.20	4.0840	4.0840	0.8281	25.27	0.61	0.750			
0.1403	8980.23	4.0810	4.0810	0.8233	25.27	0.61	0.750			
0.1428	9137.93	4.0780	4.0781	0.8313	25.27	0.61	0.750			
0.1453	9300.49	4.0750	4.0750	0.8305	25.27	0.61	0.750			
0.1478	9459.43	4.0720	4.0719	0.8317	25.28	0.62	0.750			
0.1503	9617.81	4.0690	4.0691	0.8378	25.28	0.62	0.750			
0.1528	9777.86	4.0660	4.0662	0.8436	25.28	0.62	0.750			
0.1553	9941.14	4.0630	4.0630	0.8525	25.28	0.62	0.750			
0.1579	10106.59	4.0600	4.0599	0.8499	25.28	0.62	0.750			
0.1605	10269.62	4.0570	4.0571	0.8554	25.28	0.62	0.750			
0.1631	10437.41	4.0540	4.0541	0.8653	25.28	0.62	0.750			
0.1656	10601.21	4.0510	4.0510	0.8638	25.28	0.62	0.750			
0.1682	10766.37	4.0480	4.0480	0.8657	25.28	0.62	0.750			
0.1708	10932.45	4.0450	4.0450	0.8654	25.28	0.62	0.750			
0.1734	11099.95	4.0420	4.0420	0.8685	25.28	0.62	0.750			
0.1761	11268.46	4.0390	4.0391	0.8784	25.28	0.62	0.750			
0.1787	11435.14	4.0360	4.0359	0.8721	25.28	0.62	0.750			
0.1813	11604.10	4.0330	4.0330	0.8699	25.28	0.62	0.750			
0.1839	11769.91	4.0300	4.0300	0.8759	25.29	0.63	0.750			
0.1865	11937.30	4.0270	4.0272	0.8822	25.29	0.63	0.750			
0.1892	12108.09	4.0240	4.0240	0.8873	25.30	0.64	0.750			
0.1918	12278.02	4.0210	4.0209	0.8914	25.30	0.64	0.750			
0.1946	12453.05	4.0180	4.0180	0.8798	25.30	0.64	0.750			
0.1972	12621.80	4.0150	4.0150	0.8901	25.30	0.64	0.750			
0.1999	12791.52	4.0120	4.0121	0.8890	25.30	0.64	0.750			
0.2025	12958.34	4.0090	4.0092	0.8920	25.30	0.64	0.750			
0.2051	13129.52	4.0060	4.0059	0.8949	25.30	0.64	0.750			
0.2079	13303.11	4.0030	4.0031	0.8988	25.31	0.65	0.750			
0.2106	13476.48	4.0000	4.0000	0.9076	25.31	0.65	0.750			
0.2133	13654.17	3.9970	3.9973	0.9105	25.31	0.65	0.750			
0.2160	13827.15	3.9940	3.9938	0.9068	25.32	0.66	0.750			
0.2188	14002.93	3.9910	3.9911	0.9089	25.32	0.66	0.750			
0.2215	14176.57	3.9880	3.9880	0.9132	25.32	0.66	0.750			
0.2243	14352.92	3.9850	3.9850	0.9209	25.32	0.66	0.750			
0.2270	14529.65	3.9820	3.9820	0.9242	25.32	0.66	0.750			
0.2298	14705.69	3.9790	3.9791	0.9242	25.32	0.66	0.750			
0.2326	14888.09	3.9760	3.9759	0.9119	25.33	0.67	0.750			
0.2353	15061.31	3.9730	3.9731	0.9185	25.34	0.68	0.750			
0.2381	15236.08	3.9700	3.9701	0.9293	25.34	0.68	0.750			
0.2408	15412.37	3.9670	3.9669	0.9325	25.35	0.69	0.750			
0.2437	15594.91	3.9640	3.9641	0.9308	25.35	0.69	0.750			
0.2465	15772.80	3.9610	3.9611	0.9394	25.36	0.70	0.750			
0.2493	15955.53	3.9580	3.9582	0.9458	25.36	0.70	0.750			
0.2522	16140.32	3.9550	3.9550	0.9563	25.37	0.71	0.750			
0.2550	16318.61	3.9520	3.9519	0.9501	25.37	0.71	0.750			
0.2578	16502.38	3.9490	3.9491	0.9423	25.37	0.71	0.750			
0.2607	16684.22	3.9460	3.9460	0.9472	25.37	0.71	0.750			
0.2635	16865.77	3.9430	3.9431	0.9570	25.37	0.71	0.750			
0.2664	17047.16	3.9400	3.9395	0.9593	25.37	0.71	0.750			
0.2693	17232.62	3.9370	3.9371	0.9623	25.37	0.71	0.750			
0.2721	17415.81	3.9340	3.9341	0.9541	25.38	0.72	0.750			
0.2750	17599.73	3.9310	3.9312	0.9618	25.38	0.72	0.750			
0.2779	17785.69	3.9280	3.9281	0.9720	25.39	0.73	0.750			
0.2808	17968.31	3.9250	3.9252	0.9658	25.39	0.73	0.750			
0.2837	18153.72	3.9220	3.9220	0.9723	25.39	0.73	0.750			
0.2866	18342.27	3.9190	3.9191	0.9824	25.40	0.74	0.750			
0.2896	18536.78	3.9160	3.9160	0.9944	25.40	0.74	0.750			
0.2926	18725.45	3.9130	3.9130	0.9782	25.40	0.74	0.750			
0.2955	18912.96	3.9100	3.9100	0.9863	25.40	0.74	0.750			
0.2985	19101.74	3.9070	3.9071	0.9922	25.41	0.75	0.750			
0.3015	19292.95	3.9040	3.9041	0.9979	25.41	0.75	0.750			
0.3044	19484.43	3.9010	3.9008	1.0008	25.41	0.75	0.750			
0.3075	19677.25	3.8980	3.8981	0.9978	25.42	0.76	0.750			
0.3105	19869.17	3.8950	3.8951	1.0062	25.42	0.76	0.750			
0.3135	20061.98	3.8920	3.8921	1.0164	25.43	0.77	0.750			
0.3165	20256.64	3.8890	3.8884	1.0198	25.43	0.77	0.750			
0.3196	20453.45	3.8860	3.8861	1.0228	25.43	0.77	0.750			
0.3227	20651.55	3.8830	3.8831	1.0332	25.43	0.77	0.750			
0.3258	20852.76	3.8800	3.8801	1.0431	25.43	0.77	0.750			
0.3290	21054.09	3.8770	3.8769	1.0491	25.43	0.77	0.750			
0.3321	21251.53	3.8740	3.8740	1.0392	25.43	0.77	0.750			
0.3352	21450.00	3.8710	3.8711	1.0481	25.43	0.77	0.750			
0.3383	21651.59	3.8680	3.8681	1.0579	25.43	0.77	0.750			
0.3415	21855.84	3.8650	3.8644	1.0644	25.43	0.77	0.750			
0.3447	22062.60	3.8620	3.8621	1.0517	25.43	0.77	0.750			
0.3478	22261.73	3.8590	3.8592	1.0662	25.44	0.78	0.750			
0.3510	22466.79	3.8560	3.8562	1.0770	25.44	0.78	0.750			
0.3543	22677.13	3.8530	3.8523	1.0916	25.44	0.78	0.750			
0.3575	22880.09	3.8500	3.8502	1.0942	25.44	0.78	0.750			
0.3609	23094.72	3.8470	3.8471	1.1022	25.43	0.77	0.750			
0.3643	23313.20	3.8440	3.8441	1.1150	25.43	0.77	0.750			
0.3676	23525.88	3.8410	3.8410	1.1046	25.43	0.77	0.750			
0.3709	23736.41	3.8380	3.8380	1.1174	25.43	0.77	0.750			
0.3742	23951.90	3.8350	3.8351	1.1274	25.43	0.77	0.750			
0.3776	24168.47	3.8320	3.8320	1.1409	25.43	0.77	0.750	0.316	0.405	
0.3811	24390.51	3.8290	3.8290	1.1337	25.43	0.77	0.750			
0.3845	24609.18	3.8260	3.8261	1.1427	25.42	0.76	0.750			
0.3879	24826.44	3.8230	3.8231	1.1505	25.42	0.76	0.750			
0.3914	25047.81	3.8200	3.8194	1.1588	25.41	0.75	0.750			
0.3948	25267.65	3.8170	3.8171	1.1649	25.40	0.74	0.750			
0.3984	25494.79	3.8140	3.8140	1.1786	25.39	0.73	0.750			
0.4020	25724.96	3.8110	3.8111	1.1939	25.38	0.72	0.750			
0.4057	25961.97	3.8080	3.8080	1.1950	25.38	0.72	0.750			
0.4091	26183.24	3.8050	3.8050	1.1862	25.37	0.71	0.750			
0.4127	26410.88	3.8020	3.8021	1.1904	25.36	0.70	0.750			
0.4163	26640.05	3.7990	3.7986	1.1888	25.35	0.69	0.750			
0.4198	26864.78	3.7960	3.7961	1.2042	25.34	0.68	0.750			
0.4234	27097.31	3.7930	3.7931	1.2182	25.33	0.67	0.750			
0.4271	27334.36	3.7900	3.7901	1.2334	25.32	0.66	0.750			
0.4308	27572.58	3.7870	3.7872	1.2377	25.31	0.65	0.750			
0.4346	27811.96	3.7840	3.7841	1.2509	25.30	0.64	0.750			
0.4384	28055.11	3.7810	3.7810	1.2636	25.29	0.63	0.750			
0.4422	28300.80	3.7780	3.7780	1.2705	25.28	0.62	0.750			
0.4459	28537.95	3.7750	3.7750	1.2723	25.27	0.61	0.750			
0.4497	28783.46	3.7720	3.7721	1.2972	25.25	0.59	0.750			
0.4536	29033.06	3.7690	3.7687	1.3210	25.24	0.58	0.750			
0.4576	29284.66	3.7660	3.7661	1.3354	25.23	0.57	0.750			
0.4616	29541.99	3.7630	3.7632	1.3683	25.22	0.56	0.750			
0.4658	29808.65	3.7600	3.7597	1.4034	25.20	0.54	0.750			
0.4700	30082.88	3.7570	3.7571	1.4376	25.19	0.53	0.750			
0.4744	30362.41	3.7540	3.7540	1.4507	25.17	0.51	0.750			
0.4789	30647.63	3.7510	3.7510	1.4579	25.16	0.50	0.750			
0.4834	30937.89	3.7480	3.7480	1.4925	25.14	0.48	0.750			
0.4878	31216.28	3.7450	3.7451	1.5102	25.12	0.46	0.750			
0.4922	31502.03	3.7420	3.7417	1.5619	25.10	0.44	0.750			
0.4969	31804.17	3.7390	3.7392	1.6114	25.08	0.42	0.750			
0.5018	32114.75	3.7360	3.7364	1.6727	25.07	0.41	0.750			
0.5070	32445.79	3.7330	3.7329	1.7296	25.05	0.39	0.750			
0.5122	32783.90	3.7300	3.7301	1.7991	25.03	0.37	0.750			
0.5178	33136.30	3.7270	3.7267	1.8478	25.01	0.35	0.750			
0.5233	33493.51	3.7240	3.7236	1.9373	24.99	0.33	0.750			
0.5291	33865.52	3.7210	3.7210	1.9575	24.97	0.31	0.750			
0.5353	34256.44	3.7180	3.7180	2.0022	24.94	0.28	0.750			
0.5413	34643.83	3.7150	3.7145	2.0561	24.92	0.26	0.750			
0.5474	35033.01	3.7120	3.7121	2.0860	24.90	0.24	0.750			
0.5537	35438.93	3.7090	3.7093	2.1670	24.88	0.22	0.750			
0.5605	35873.42	3.7060	3.7054	2.2764	24.86	0.20	0.750			
0.5673	36308.33	3.7030	3.7029	2.3397	24.84	0.18	0.750			
0.5746	36774.09	3.7000	3.7000	2.4193	24.80	0.14	0.750			
0.5819	37238.96	3.6970	3.6974	2.4340	24.77	0.11	0.750			
0.5891	37705.47	3.6940	3.6940	2.5114	24.76	0.10	0.750			
0.5969	38198.94	3.6910	3.6909	2.6806	24.73	0.07	0.750			
0.6051	38725.04	3.6880	3.6880	2.7194	24.71	0.05	0.750			
0.6135	39265.54	3.6850	3.6853	2.7907	24.68	0.02	0.750			
0.6215	39772.99	3.6820	3.6818	2.8126	24.66	-0.00	0.750			
0.6299	40316.05	3.6790	3.6793	2.8317	24.64	-0.02	0.750			
0.6389	40892.29	3.6760	3.6763	2.9909	24.61	-0.05	0.750			
0.6481	41477.35	3.6730	3.6732	3.0286	24.59	-0.07	0.750			
0.6567	42029.06	3.6700	3.6703	2.9285	24.58	-0.08	0.750			
0.6658	42612.65	3.6670	3.6671	2.8828	24.58	-0.08	0.750			
0.6747	43181.05	3.6640	3.6640	2.8325	24.57	-0.09	0.750			
0.6833	43731.75	3.6610	3.6611	2.7178	24.57	-0.09	0.750			
0.6913	44244.61	3.6580	3.6577	2.5672	24.58	-0.08	0.750			
0.6985	44701.51	3.6550	3.6555	2.3553	24.59	-0.07	0.750			
0.7053	45139.11	3.6520	3.6517	2.1555	24.59	-0.07	0.750			
0.7115	45536.78	3.6490	3.6486	1.9334	24.60	-0.06	0.750			
0.7171	45891.42	3.6460	3.6462	1.6861	24.61	-0.05	0.750			
0.7217	46188.01	3.6430	3.6432	1.4530	24.62	-0.04	0.750			
0.7256	46435.41	3.6400	3.6404	1.2377	24.63	-0.03	0.750			
0.7288	46645.69	3.6370	3.6364	1.0636	24.64	-0.02	0.750			
0.7316	46824.79	3.6340	3.6346	0.9256	24.64	-0.02	0.750			
0.7342	46987.41	3.6310	3.6313	0.8347	24.65	-0.01	0.750			
0.7365	47138.60	3.6280	3.6283	0.7720	24.65	-0.01	0.750			
0.7389	47289.39	3.6250	3.6248	0.7316	24.66	-0.00	0.750			
0.7408	47412.03	3.6220	3.6219	0.6437	24.66	-0.00	0.750			
0.7427	47532.30	3.6190	3.6191	0.6015	24.66	0.00	0.750			
0.7445	47644.87	3.6160	3.6160	0.5562	24.66	0.00	0.750			
0.7461	47749.25	3.6130	3.6130	0.5039	24.67	0.01	0.750			
0.7476	47843.91	3.6100	3.6099	0.4456	24.67	0.01	0.750			
0.7488	47924.64	3.6070	3.6070	0.3854	24.67	0.01	0.750			
0.7499	47992.79	3.6040	3.6040	0.3182	24.67	0.01	0.750			
0.7508	48049.04	3.6010	3.6011	0.2478	24.67	0.01	0.750			
0.7514	48088.99	3.5980	3.5983	0.1740	24.68	0.02	0.750			
0.7518	48115.57	3.5950	3.5956	0.0884	24.68	0.02	0.750			
