Ah_balance (normalized)	Ah_balance (mAh)	Voltage - fit (V)	Voltage -  interpolate (V)	dQ/dV (1/V)	Temperature (°C)	Temperature - diff (°C)	Current (C)	R_DC 0ms (mOhm)	R_DC 50ms (mOhm)	R_DC 50 ms PEC (mOhm)
0.0474	3034.97	4.1980	4.1978	0.7321	26.05	0.60	0.750			
0.0497	3179.04	4.1950	4.1951	0.7548	26.05	0.60	0.750			
0.0520	3327.18	4.1920	4.1919	0.7546	26.05	0.60	0.750			
0.0542	3468.17	4.1890	4.1890	0.7514	26.05	0.60	0.750			
0.0564	3610.78	4.1860	4.1863	0.7491	26.05	0.60	0.750			
0.0587	3755.76	4.1830	4.1830	0.7550	26.05	0.60	0.750			
0.0609	3900.72	4.1800	4.1798	0.7571	26.05	0.60	0.750			
0.0632	4046.71	4.1770	4.1771	0.7556	26.05	0.60	0.750			
0.0656	4196.43	4.1740	4.1740	0.7528	26.05	0.60	0.750			
0.0678	4338.26	4.1710	4.1711	0.7562	26.05	0.60	0.750			
0.0700	4480.43	4.1680	4.1681	0.7527	26.05	0.60	0.750			
0.0722	4623.75	4.1650	4.1651	0.7574	26.05	0.60	0.750			
0.0745	4769.87	4.1620	4.1621	0.7659	26.05	0.60	0.750			
0.0769	4920.04	4.1590	4.1591	0.7687	26.05	0.60	0.750			
0.0792	5069.43	4.1560	4.1560	0.7738	26.05	0.60	0.750			
0.0816	5221.24	4.1530	4.1530	0.7754	26.05	0.60	0.750			
0.0838	5365.62	4.1500	4.1500	0.7638	26.05	0.60	0.750			
0.0861	5511.22	4.1470	4.1470	0.7643	26.05	0.60	0.750			
0.0884	5657.59	4.1440	4.1440	0.7643	26.05	0.60	0.750			
0.0907	5803.87	4.1410	4.1410	0.7632	26.05	0.60	0.750			
0.0930	5950.94	4.1380	4.1380	0.7661	26.05	0.60	0.750			
0.0953	6097.00	4.1350	4.1351	0.7699	26.05	0.60	0.750			
0.0976	6246.46	4.1320	4.1318	0.7730	26.05	0.60	0.750			
0.0999	6394.37	4.1290	4.1291	0.7740	26.05	0.60	0.750			
0.1023	6547.87	4.1260	4.1259	0.7616	26.05	0.60	0.750			
0.1046	6691.31	4.1230	4.1230	0.7723	26.05	0.60	0.750			
0.1068	6836.37	4.1200	4.1201	0.7742	26.05	0.60	0.750			
0.1092	6986.10	4.1170	4.1172	0.7803	26.05	0.60	0.750			
0.1115	7135.46	4.1140	4.1138	0.7832	26.05	0.60	0.750			
0.1139	7289.22	4.1110	4.1113	0.7874	26.05	0.60	0.750			
0.1163	7442.32	4.1080	4.1080	0.7923	26.05	0.60	0.750			
0.1187	7596.13	4.1050	4.1050	0.7925	26.05	0.60	0.750			
0.1210	7744.28	4.1020	4.1020	0.7843	26.05	0.60	0.750			
0.1233	7894.34	4.0990	4.0990	0.7914	26.05	0.60	0.750			
0.1258	8048.51	4.0960	4.0959	0.7987	26.05	0.60	0.750			
0.1282	8202.61	4.0930	4.0930	0.7989	26.05	0.60	0.750			
0.1306	8356.59	4.0900	4.0901	0.8015	26.06	0.61	0.750			
0.1330	8511.42	4.0870	4.0871	0.8023	26.06	0.61	0.750			
0.1354	8665.88	4.0840	4.0836	0.8022	26.06	0.61	0.750			
0.1378	8817.57	4.0810	4.0811	0.8009	26.06	0.61	0.750			
0.1403	8976.04	4.0780	4.0780	0.7842	26.06	0.61	0.750			
0.1426	9125.99	4.0750	4.0750	0.7955	26.05	0.60	0.750			
0.1449	9276.46	4.0720	4.0722	0.8045	26.05	0.60	0.750			
0.1473	9428.52	4.0690	4.0690	0.8061	26.05	0.60	0.750			
0.1498	9584.35	4.0660	4.0662	0.8122	26.05	0.60	0.750			
0.1522	9742.52	4.0630	4.0632	0.8133	26.06	0.61	0.750			
0.1547	9899.85	4.0600	4.0601	0.8191	26.06	0.61	0.750			
0.1572	10061.78	4.0570	4.0570	0.8291	26.06	0.61	0.750			
0.1596	10214.51	4.0540	4.0540	0.8186	26.07	0.62	0.750			
0.1621	10372.60	4.0510	4.0511	0.8212	26.07	0.62	0.750			
0.1646	10533.03	4.0480	4.0480	0.8213	26.07	0.62	0.750			
0.1670	10689.97	4.0450	4.0451	0.8252	26.07	0.62	0.750			
0.1695	10849.45	4.0420	4.0420	0.8294	26.07	0.62	0.750			
0.1720	11006.65	4.0390	4.0389	0.8318	26.07	0.62	0.750			
0.1745	11166.58	4.0360	4.0360	0.8348	26.07	0.62	0.750			
0.1771	11332.82	4.0330	4.0330	0.8295	26.07	0.62	0.750			
0.1795	11486.51	4.0300	4.0301	0.8526	26.07	0.62	0.750			
0.1820	11649.84	4.0270	4.0271	0.8718	26.07	0.62	0.750			
0.1847	11818.39	4.0240	4.0238	0.8820	26.07	0.62	0.750			
0.1874	11991.71	4.0210	4.0215	0.8866	26.07	0.62	0.750			
0.1901	12164.50	4.0180	4.0183	0.8908	26.07	0.62	0.750			
0.1928	12341.36	4.0150	4.0151	0.8924	26.07	0.62	0.750			
0.1955	12511.83	4.0120	4.0120	0.8796	26.07	0.62	0.750			
0.1980	12674.00	4.0090	4.0089	0.8586	26.07	0.62	0.750			
0.2006	12840.41	4.0060	4.0060	0.8590	26.07	0.62	0.750			
0.2032	13005.21	4.0030	4.0029	0.8620	26.07	0.62	0.750			
0.2058	13170.21	4.0000	4.0000	0.8642	26.07	0.62	0.750			
0.2084	13337.13	3.9970	3.9970	0.8654	26.07	0.62	0.750			
0.2110	13502.94	3.9940	3.9940	0.8669	26.07	0.62	0.750			
0.2136	13671.06	3.9910	3.9910	0.8640	26.07	0.62	0.750			
0.2162	13835.53	3.9880	3.9881	0.8640	26.07	0.62	0.750			
0.2188	14001.73	3.9850	3.9850	0.8684	26.07	0.62	0.750			
0.2214	14167.98	3.9820	3.9820	0.8686	26.07	0.62	0.750			
0.2240	14333.86	3.9790	3.9791	0.8730	26.07	0.62	0.750			
0.2266	14502.98	3.9760	3.9761	0.8759	26.07	0.62	0.750			
0.2293	14672.18	3.9730	3.9730	0.8798	26.07	0.62	0.750			
0.2319	14842.33	3.9700	3.9700	0.8826	26.07	0.62	0.750			
0.2346	15011.39	3.9670	3.9669	0.8807	26.07	0.62	0.750			
0.2372	15181.14	3.9640	3.9641	0.8807	26.07	0.62	0.750			
0.2398	15350.34	3.9610	3.9610	0.8792	26.07	0.62	0.750			
0.2425	15518.18	3.9580	3.9581	0.8789	26.07	0.62	0.750			
0.2451	15687.21	3.9550	3.9550	0.8803	26.07	0.62	0.750			
0.2477	15855.34	3.9520	3.9518	0.8780	26.07	0.62	0.750			
0.2504	16025.24	3.9490	3.9491	0.8757	26.07	0.62	0.750			
0.2530	16192.50	3.9460	3.9460	0.8777	26.06	0.61	0.750			
0.2556	16361.42	3.9430	3.9431	0.8820	26.06	0.61	0.750			
0.2583	16530.98	3.9400	3.9400	0.8833	26.05	0.60	0.750			
0.2609	16699.40	3.9370	3.9370	0.8818	26.05	0.60	0.750			
0.2636	16870.17	3.9340	3.9341	0.8818	26.05	0.60	0.750			
0.2663	17040.20	3.9310	3.9310	0.8830	26.05	0.60	0.750			
0.2689	17209.16	3.9280	3.9280	0.8831	26.05	0.60	0.750			
0.2715	17377.36	3.9250	3.9250	0.8781	26.05	0.60	0.750			
0.2742	17546.01	3.9220	3.9220	0.8801	26.05	0.60	0.750			
0.2768	17715.59	3.9190	3.9190	0.8798	26.04	0.59	0.750			
0.2794	17883.95	3.9160	3.9161	0.8836	26.04	0.59	0.750			
0.2821	18054.00	3.9130	3.9130	0.8871	26.04	0.59	0.750			
0.2848	18224.17	3.9100	3.9099	0.8859	26.03	0.58	0.750			
0.2874	18394.19	3.9070	3.9070	0.8859	26.03	0.58	0.750			
0.2901	18565.43	3.9040	3.9041	0.8827	26.02	0.57	0.750			
0.2927	18734.76	3.9010	3.9010	0.8824	26.01	0.56	0.750			
0.2953	18902.04	3.8980	3.8981	0.8825	26.01	0.56	0.750			
0.2980	19071.42	3.8950	3.8946	0.8848	26.00	0.55	0.750			
0.3007	19242.62	3.8920	3.8920	0.8843	25.99	0.54	0.750			
0.3033	19413.11	3.8890	3.8890	0.8866	25.99	0.54	0.750			
0.3060	19584.19	3.8860	3.8861	0.8896	25.98	0.53	0.750			
0.3087	19755.81	3.8830	3.8830	0.8907	25.97	0.52	0.750			
0.3113	19923.79	3.8800	3.8800	0.8882	25.97	0.52	0.750			
0.3140	20094.49	3.8770	3.8769	0.8890	25.96	0.51	0.750			
0.3166	20265.56	3.8740	3.8741	0.8939	25.95	0.50	0.750			
0.3193	20437.72	3.8710	3.8710	0.8971	25.95	0.50	0.750			
0.3220	20610.35	3.8680	3.8679	0.8999	25.94	0.49	0.750			
0.3247	20783.65	3.8650	3.8651	0.9025	25.94	0.49	0.750			
0.3275	20956.95	3.8620	3.8620	0.8994	25.93	0.48	0.750			
0.3301	21129.36	3.8590	3.8590	0.9032	25.92	0.47	0.750			
0.3328	21302.36	3.8560	3.8561	0.9078	25.92	0.47	0.750			
0.3356	21476.16	3.8530	3.8528	0.9104	25.91	0.46	0.750			
0.3383	21651.12	3.8500	3.8500	0.9169	25.90	0.45	0.750			
0.3410	21827.02	3.8470	3.8470	0.9289	25.89	0.44	0.750			
0.3439	22007.62	3.8440	3.8440	0.9389	25.88	0.43	0.750			
0.3467	22189.93	3.8410	3.8408	0.9471	25.87	0.42	0.750	0.331	0.466	
0.3496	22373.19	3.8380	3.8380	0.9444	25.86	0.41	0.750			
0.3524	22554.88	3.8350	3.8351	0.9511	25.86	0.41	0.750			
0.3553	22737.86	3.8320	3.8320	0.9566	25.85	0.40	0.750			
0.3581	22920.52	3.8290	3.8291	0.9607	25.84	0.39	0.750			
0.3610	23103.69	3.8260	3.8259	0.9656	25.83	0.38	0.750			
0.3639	23290.79	3.8230	3.8230	0.9695	25.82	0.37	0.750			
0.3668	23477.68	3.8200	3.8201	0.9795	25.80	0.35	0.750			
0.3698	23666.44	3.8170	3.8170	0.9918	25.79	0.34	0.750			
0.3727	23855.95	3.8140	3.8136	1.0011	25.78	0.33	0.750			
0.3758	24050.19	3.8110	3.8110	1.0071	25.77	0.32	0.750			
0.3788	24244.63	3.8080	3.8081	1.0214	25.76	0.31	0.750			
0.3819	24442.20	3.8050	3.8050	1.0350	25.75	0.30	0.750			
0.3850	24643.12	3.8020	3.8019	1.0491	25.74	0.29	0.750			
0.3882	24843.40	3.7990	3.7990	1.0505	25.73	0.28	0.750			
0.3913	25045.00	3.7960	3.7959	1.0660	25.73	0.28	0.750			
0.3945	25250.02	3.7930	3.7932	1.0846	25.72	0.27	0.750			
0.3979	25464.11	3.7900	3.7897	1.0942	25.71	0.26	0.750			
0.4011	25672.58	3.7870	3.7870	1.1107	25.70	0.25	0.750			
0.4045	25887.05	3.7840	3.7841	1.1310	25.68	0.23	0.750			
0.4079	26104.86	3.7810	3.7811	1.1526	25.67	0.22	0.750			
0.4114	26327.98	3.7780	3.7781	1.1671	25.66	0.21	0.750			
0.4149	26553.72	3.7750	3.7750	1.1876	25.65	0.20	0.750			
0.4185	26783.63	3.7720	3.7721	1.2118	25.64	0.19	0.750			
0.4222	27021.22	3.7690	3.7688	1.2344	25.63	0.18	0.750			
0.4259	27259.97	3.7660	3.7660	1.2491	25.62	0.17	0.750			
0.4297	27503.51	3.7630	3.7631	1.2653	25.61	0.16	0.750			
0.4335	27745.93	3.7600	3.7600	1.2888	25.60	0.15	0.750			
0.4374	27994.86	3.7570	3.7571	1.3021	25.58	0.13	0.750			
0.4412	28238.57	3.7540	3.7540	1.3369	25.57	0.12	0.750			
0.4453	28496.90	3.7510	3.7511	1.3782	25.56	0.11	0.750			
0.4495	28765.57	3.7480	3.7481	1.4223	25.54	0.09	0.750			
0.4538	29044.07	3.7450	3.7451	1.4528	25.53	0.08	0.750			
0.4584	29334.61	3.7420	3.7421	1.4847	25.52	0.07	0.750			
0.4629	29623.99	3.7390	3.7391	1.5065	25.50	0.05	0.750			
0.4674	29911.40	3.7360	3.7356	1.5367	25.49	0.04	0.750			
0.4720	30208.51	3.7330	3.7331	1.5817	25.47	0.02	0.750			
0.4768	30515.78	3.7300	3.7301	1.6346	25.46	0.01	0.750			
0.4818	30834.46	3.7270	3.7270	1.6910	25.45	-0.00	0.750			
0.4869	31164.55	3.7240	3.7242	1.7274	25.43	-0.02	0.750			
0.4923	31507.59	3.7210	3.7213	1.7873	25.42	-0.03	0.750			
0.4977	31852.97	3.7180	3.7180	1.8464	25.40	-0.05	0.750			
0.5033	32210.31	3.7150	3.7150	1.8715	25.39	-0.06	0.750			
0.5089	32572.66	3.7120	3.7121	1.9399	25.38	-0.07	0.750			
0.5149	32955.51	3.7090	3.7092	2.0052	25.37	-0.08	0.750			
0.5209	33339.69	3.7060	3.7062	2.0962	25.35	-0.10	0.750			
0.5274	33753.85	3.7030	3.7031	2.1447	25.34	-0.11	0.750			
0.5341	34182.51	3.7000	3.6999	2.1901	25.33	-0.12	0.750			
0.5408	34608.55	3.6970	3.6968	2.2375	25.32	-0.13	0.750			
0.5473	35028.80	3.6940	3.6939	2.2564	25.31	-0.14	0.750			
0.5540	35457.30	3.6910	3.6908	2.3317	25.31	-0.14	0.750			
0.5613	35923.46	3.6880	3.6878	2.3855	25.30	-0.15	0.750			
0.5687	36396.10	3.6850	3.6849	2.4470	25.29	-0.16	0.750			
0.5760	36861.22	3.6820	3.6821	2.4420	25.28	-0.17	0.750			
0.5834	37340.14	3.6790	3.6791	2.4633	25.28	-0.17	0.750			
0.5906	37800.43	3.6760	3.6761	2.3185	25.28	-0.17	0.750			
0.5977	38251.18	3.6730	3.6725	2.2187	25.28	-0.17	0.750			
0.6041	38664.93	3.6700	3.6704	2.1255	25.29	-0.16	0.750			
0.6105	39069.71	3.6670	3.6671	2.0066	25.30	-0.15	0.750			
0.6163	39444.02	3.6640	3.6636	1.9182	25.30	-0.15	0.750			
0.6217	39786.23	3.6610	3.6612	1.7472	25.30	-0.15	0.750			
0.6269	40123.38	3.6580	3.6575	1.6412	25.31	-0.14	0.750			
0.6316	40419.60	3.6550	3.6552	1.4842	25.31	-0.14	0.750			
0.6358	40692.63	3.6520	3.6519	1.3491	25.32	-0.13	0.750			
0.6396	40935.09	3.6490	3.6494	1.2712	25.33	-0.12	0.750			
0.6431	41159.10	3.6460	3.6458	1.1777	25.34	-0.11	0.750			
0.6465	41378.80	3.6430	3.6428	1.1365	25.35	-0.10	0.750			
0.6499	41591.99	3.6400	3.6401	1.0764	25.35	-0.10	0.750			
0.6531	41801.01	3.6370	3.6371	1.0647	25.36	-0.09	0.750			
0.6563	42002.25	3.6340	3.6341	1.0301	25.37	-0.08	0.750			
0.6593	42193.00	3.6310	3.6310	0.9802	25.38	-0.07	0.750			
0.6622	42378.74	3.6280	3.6282	0.9466	25.38	-0.07	0.750			
0.6650	42562.26	3.6250	3.6250	0.8898	25.39	-0.06	0.750			
0.6676	42726.38	3.6220	3.6221	0.8676	25.40	-0.05	0.750			
0.6702	42890.34	3.6190	3.6192	0.8405	25.40	-0.05	0.750			
0.6726	43044.66	3.6160	3.6155	0.7935	25.41	-0.04	0.750			
0.6749	43194.93	3.6130	3.6132	0.7595	25.42	-0.03	0.750			
0.6772	43339.40	3.6100	3.6102	0.7194	25.42	-0.03	0.750			
0.6793	43476.80	3.6070	3.6072	0.6752	25.43	-0.02	0.750			
0.6813	43604.14	3.6040	3.6039	0.6166	25.44	-0.01	0.750			
0.6831	43718.65	3.6010	3.6010	0.5615	25.44	-0.01	0.750			
0.6847	43821.25	3.5980	3.5980	0.5057	25.45	-0.00	0.750			
0.6861	43913.25	3.5950	3.5952	0.4575	25.45	0.00	0.750			
0.6874	43994.96	3.5920	3.5924	0.4079	25.46	0.01	0.750			
0.6886	44067.52	3.5890	3.5893	0.3687	25.46	0.01	0.750			
0.6896	44135.61	3.5860	3.5866	0.3233	25.46	0.01	0.750			
0.6905	44193.02	3.5830	3.5835	0.2788	25.47	0.02	0.750			
0.6913	44243.37	3.5800	3.5808	0.2375	25.47	0.02	0.750			
0.6921	44291.51	3.5770	3.5772	0.1884	25.47	0.02	0.750			
0.6925	44318.76	3.5740	3.5747	0.1335	25.47	0.02	0.750			
0.6928	44340.58	3.5710	3.5722	0.0624	25.47	0.02	0.750			
