Ah_balance (normalized)	Ah_balance (mAh)	Voltage - fit (V)	Voltage -  interpolate (V)	dQ/dV (1/V)	Temperature (°C)	Temperature - diff (°C)	Current (C)	R_DC 0ms (mOhm)	R_DC 50ms (mOhm)	R_DC 50 ms PEC (mOhm)
0.0461	2947.54	4.1990	4.1991	0.7581	25.63	0.49	0.750			
0.0484	3099.69	4.1960	4.1961	0.7887	25.63	0.49	0.750			
0.0506	3237.42	4.1930	4.1932	0.7505	25.63	0.49	0.750			
0.0528	3380.83	4.1900	4.1902	0.7550	25.63	0.49	0.750			
0.0551	3526.36	4.1870	4.1866	0.7618	25.63	0.49	0.750			
0.0574	3670.95	4.1840	4.1842	0.7651	25.63	0.49	0.750			
0.0597	3821.22	4.1810	4.1811	0.7638	25.63	0.49	0.750			
0.0620	3969.36	4.1780	4.1781	0.7691	25.63	0.49	0.750			
0.0644	4118.73	4.1750	4.1750	0.7636	25.63	0.49	0.750			
0.0666	4264.60	4.1720	4.1720	0.7666	25.63	0.49	0.750			
0.0689	4411.83	4.1690	4.1691	0.7681	25.63	0.49	0.750			
0.0712	4559.13	4.1660	4.1660	0.7725	25.63	0.49	0.750			
0.0736	4707.86	4.1630	4.1631	0.7704	25.63	0.49	0.750			
0.0759	4857.22	4.1600	4.1601	0.7764	25.63	0.49	0.750			
0.0782	5004.93	4.1570	4.1570	0.7735	25.63	0.49	0.750			
0.0805	5154.35	4.1540	4.1537	0.7736	25.63	0.49	0.750			
0.0828	5301.98	4.1510	4.1511	0.7751	25.63	0.49	0.750			
0.0852	5451.56	4.1480	4.1481	0.7804	25.63	0.49	0.750			
0.0875	5600.23	4.1450	4.1450	0.7717	25.63	0.49	0.750			
0.0898	5746.96	4.1420	4.1421	0.7702	25.63	0.49	0.750			
0.0921	5894.48	4.1390	4.1393	0.7711	25.63	0.49	0.750			
0.0944	6042.46	4.1360	4.1362	0.7767	25.63	0.49	0.750			
0.0968	6193.18	4.1330	4.1331	0.7767	25.63	0.49	0.750			
0.0991	6342.02	4.1300	4.1301	0.7810	25.63	0.49	0.750			
0.1015	6495.95	4.1270	4.1269	0.7916	25.64	0.50	0.750			
0.1038	6643.66	4.1240	4.1241	0.7829	25.64	0.50	0.750			
0.1062	6795.28	4.1210	4.1211	0.7879	25.64	0.50	0.750			
0.1085	6947.03	4.1180	4.1181	0.7944	25.64	0.50	0.750			
0.1109	7099.89	4.1150	4.1150	0.7911	25.64	0.50	0.750			
0.1133	7251.99	4.1120	4.1120	0.7956	25.63	0.49	0.750			
0.1157	7404.62	4.1090	4.1091	0.7925	25.63	0.49	0.750			
0.1181	7557.10	4.1060	4.1058	0.7943	25.63	0.49	0.750			
0.1205	7709.21	4.1030	4.1031	0.7990	25.63	0.49	0.750			
0.1229	7862.93	4.1000	4.1000	0.7972	25.63	0.49	0.750			
0.1252	8015.74	4.0970	4.0970	0.8003	25.64	0.50	0.750			
0.1276	8169.16	4.0940	4.0940	0.8035	25.64	0.50	0.750			
0.1301	8323.90	4.0910	4.0906	0.8072	25.64	0.50	0.750			
0.1325	8480.68	4.0880	4.0881	0.8108	25.64	0.50	0.750			
0.1350	8638.47	4.0850	4.0850	0.8043	25.64	0.50	0.750			
0.1374	8791.87	4.0820	4.0820	0.8072	25.64	0.50	0.750			
0.1398	8947.10	4.0790	4.0790	0.8147	25.64	0.50	0.750			
0.1422	9100.23	4.0760	4.0759	0.8140	25.64	0.50	0.750			
0.1446	9257.15	4.0730	4.0731	0.8181	25.64	0.50	0.750			
0.1471	9416.40	4.0700	4.0700	0.8206	25.64	0.50	0.750			
0.1496	9575.09	4.0670	4.0671	0.8231	25.65	0.51	0.750			
0.1521	9735.39	4.0640	4.0640	0.8268	25.65	0.51	0.750			
0.1546	9891.61	4.0610	4.0609	0.8210	25.65	0.51	0.750			
0.1570	10048.70	4.0580	4.0581	0.8225	25.65	0.51	0.750			
0.1595	10210.72	4.0550	4.0549	0.8103	25.66	0.52	0.750			
0.1619	10363.57	4.0520	4.0520	0.8206	25.66	0.52	0.750			
0.1644	10519.46	4.0490	4.0491	0.8306	25.66	0.52	0.750			
0.1668	10678.14	4.0460	4.0462	0.8368	25.67	0.53	0.750			
0.1694	10839.59	4.0430	4.0432	0.8430	25.67	0.53	0.750			
0.1720	11005.88	4.0400	4.0401	0.8375	25.67	0.53	0.750			
0.1745	11167.30	4.0370	4.0372	0.8489	25.67	0.53	0.750			
0.1771	11331.39	4.0340	4.0341	0.8530	25.67	0.53	0.750			
0.1796	11492.84	4.0310	4.0310	0.8485	25.67	0.53	0.750			
0.1821	11656.54	4.0280	4.0281	0.8562	25.67	0.53	0.750			
0.1847	11822.30	4.0250	4.0250	0.8559	25.67	0.53	0.750			
0.1873	11986.89	4.0220	4.0221	0.8620	25.67	0.53	0.750			
0.1899	12153.75	4.0190	4.0190	0.8582	25.67	0.53	0.750			
0.1925	12319.33	4.0160	4.0157	0.8619	25.67	0.53	0.750			
0.1951	12484.58	4.0130	4.0131	0.8664	25.67	0.53	0.750			
0.1977	12654.38	4.0100	4.0100	0.8534	25.67	0.53	0.750			
0.2003	12816.52	4.0070	4.0071	0.8648	25.67	0.53	0.750			
0.2028	12980.05	4.0040	4.0041	0.8639	25.67	0.53	0.750			
0.2054	13146.04	4.0010	4.0000	0.8768	25.67	0.53	0.750			
0.2081	13317.92	3.9980	3.9981	0.8782	25.67	0.53	0.750			
0.2107	13487.52	3.9950	3.9951	0.8835	25.68	0.54	0.750			
0.2135	13661.42	3.9920	3.9920	0.8908	25.68	0.54	0.750			
0.2162	13836.16	3.9890	3.9891	0.8985	25.69	0.55	0.750			
0.2187	13998.32	3.9860	3.9861	0.8871	25.69	0.55	0.750			
0.2214	14171.19	3.9830	3.9830	0.8861	25.69	0.55	0.750			
0.2241	14340.49	3.9800	3.9800	0.8914	25.69	0.55	0.750			
0.2268	14514.10	3.9770	3.9771	0.8989	25.69	0.55	0.750			
0.2295	14687.40	3.9740	3.9740	0.8967	25.69	0.55	0.750			
0.2322	14860.15	3.9710	3.9710	0.8972	25.69	0.55	0.750			
0.2349	15031.56	3.9680	3.9680	0.8919	25.69	0.55	0.750			
0.2375	15201.99	3.9650	3.9651	0.8949	25.69	0.55	0.750			
0.2402	15375.08	3.9620	3.9622	0.9038	25.69	0.55	0.750			
0.2429	15545.32	3.9590	3.9580	0.9079	25.69	0.55	0.750			
0.2457	15722.04	3.9560	3.9561	0.9095	25.69	0.55	0.750			
0.2484	15897.94	3.9530	3.9531	0.9168	25.70	0.56	0.750			
0.2512	16074.93	3.9500	3.9501	0.9198	25.70	0.56	0.750			
0.2540	16254.58	3.9470	3.9471	0.9248	25.71	0.57	0.750			
0.2567	16429.45	3.9440	3.9440	0.9188	25.71	0.57	0.750			
0.2595	16605.82	3.9410	3.9410	0.9158	25.71	0.57	0.750			
0.2622	16779.74	3.9380	3.9380	0.9178	25.71	0.57	0.750			
0.2650	16957.43	3.9350	3.9351	0.9266	25.71	0.57	0.750			
0.2677	17134.49	3.9320	3.9317	0.9238	25.71	0.57	0.750			
0.2706	17318.38	3.9290	3.9289	0.9101	25.71	0.57	0.750			
0.2733	17489.20	3.9260	3.9261	0.9153	25.71	0.57	0.750			
0.2760	17663.95	3.9230	3.9232	0.9203	25.71	0.57	0.750			
0.2787	17838.18	3.9200	3.9201	0.9218	25.71	0.57	0.750			
0.2815	18014.25	3.9170	3.9167	0.9267	25.71	0.57	0.750			
0.2843	18194.79	3.9140	3.9142	0.9294	25.71	0.57	0.750			
0.2871	18375.51	3.9110	3.9112	0.9426	25.71	0.57	0.750			
0.2900	18562.59	3.9080	3.9080	0.9343	25.71	0.57	0.750			
0.2928	18736.73	3.9050	3.9046	0.9277	25.71	0.57	0.750			
0.2955	18914.51	3.9020	3.9021	0.9302	25.71	0.57	0.750			
0.2983	19093.06	3.8990	3.8993	0.9401	25.71	0.57	0.750			
0.3012	19275.48	3.8960	3.8962	0.9491	25.71	0.57	0.750			
0.3040	19458.13	3.8930	3.8931	0.9447	25.71	0.57	0.750			
0.3069	19641.35	3.8900	3.8901	0.9542	25.71	0.57	0.750			
0.3098	19829.19	3.8870	3.8870	0.9275	25.70	0.56	0.750			
0.3125	20001.32	3.8840	3.8841	0.9345	25.70	0.56	0.750			
0.3154	20182.82	3.8810	3.8812	0.9265	25.69	0.55	0.750			
0.3181	20355.52	3.8780	3.8772	0.9390	25.69	0.55	0.750			
0.3209	20539.30	3.8750	3.8753	0.9349	25.69	0.55	0.750			
0.3238	20722.77	3.8720	3.8725	0.9422	25.68	0.54	0.750			
0.3266	20904.61	3.8690	3.8694	0.9643	25.68	0.54	0.750			
0.3296	21094.69	3.8660	3.8660	0.9766	25.67	0.53	0.750			
0.3324	21275.85	3.8630	3.8633	0.9532	25.67	0.53	0.750			
0.3353	21461.40	3.8600	3.8602	0.9597	25.66	0.52	0.750			
0.3383	21648.53	3.8570	3.8572	0.9545	25.66	0.52	0.750			
0.3412	21834.81	3.8540	3.8542	0.9781	25.65	0.51	0.750			
0.3440	22017.45	3.8510	3.8511	0.9768	25.65	0.51	0.750			
0.3470	22207.36	3.8480	3.8484	0.9509	25.64	0.50	0.750			
0.3498	22385.18	3.8450	3.8455	0.9673	25.63	0.49	0.750			
0.3529	22582.78	3.8420	3.8422	0.9417	25.62	0.48	0.750			
0.3556	22756.77	3.8390	3.8387	0.9702	25.61	0.47	0.750			
0.3585	22944.76	3.8360	3.8366	0.9948	25.61	0.47	0.750			
0.3614	23130.06	3.8330	3.8335	1.0039	25.60	0.46	0.750	0.338	0.430	
0.3646	23331.76	3.8300	3.8305	1.0253	25.60	0.46	0.750			
0.3677	23533.37	3.8270	3.8267	1.0331	25.59	0.45	0.750			
0.3708	23731.52	3.8240	3.8242	1.0198	25.58	0.44	0.750			
0.3739	23930.97	3.8210	3.8211	1.0304	25.57	0.43	0.750			
0.3769	24124.46	3.8180	3.8181	1.0141	25.55	0.41	0.750			
0.3800	24319.24	3.8150	3.8147	1.0150	25.54	0.40	0.750			
0.3831	24519.79	3.8120	3.8120	1.0088	25.53	0.39	0.750			
0.3861	24712.02	3.8090	3.8091	1.0232	25.53	0.39	0.750			
0.3892	24908.64	3.8060	3.8061	1.0385	25.52	0.38	0.750			
0.3923	25107.09	3.8030	3.8031	1.0410	25.51	0.37	0.750			
0.3954	25308.31	3.8000	3.8002	1.0464	25.50	0.36	0.750			
0.3986	25508.60	3.7970	3.7972	1.0701	25.49	0.35	0.750			
0.4018	25716.42	3.7940	3.7941	1.0924	25.48	0.34	0.750			
0.4052	25933.01	3.7910	3.7905	1.1188	25.47	0.33	0.750			
0.4085	26144.53	3.7880	3.7882	1.1225	25.46	0.32	0.750			
0.4119	26362.26	3.7850	3.7851	1.1427	25.45	0.31	0.750			
0.4154	26587.08	3.7820	3.7820	1.1640	25.44	0.30	0.750			
0.4189	26809.63	3.7790	3.7790	1.1697	25.43	0.29	0.750			
0.4224	27031.03	3.7760	3.7761	1.1751	25.41	0.27	0.750			
0.4259	27255.95	3.7730	3.7731	1.2004	25.40	0.26	0.750			
0.4296	27493.01	3.7700	3.7701	1.2080	25.38	0.24	0.750			
0.4332	27723.99	3.7670	3.7671	1.2440	25.38	0.24	0.750			
0.4369	27963.83	3.7640	3.7642	1.2768	25.37	0.23	0.750			
0.4409	28216.21	3.7610	3.7612	1.3067	25.36	0.22	0.750			
0.4449	28473.69	3.7580	3.7581	1.3456	25.35	0.21	0.750			
0.4488	28720.14	3.7550	3.7552	1.3858	25.34	0.20	0.750			
0.4529	28987.71	3.7520	3.7521	1.4051	25.33	0.19	0.750			
0.4571	29256.44	3.7490	3.7491	1.4868	25.31	0.17	0.750			
0.4618	29552.36	3.7460	3.7460	1.5192	25.30	0.16	0.750			
0.4664	29852.03	3.7430	3.7435	1.5685	25.28	0.14	0.750			
0.4713	30164.58	3.7400	3.7405	1.6157	25.27	0.13	0.750			
0.4763	30482.63	3.7370	3.7373	1.6355	25.26	0.12	0.750			
0.4813	30804.06	3.7340	3.7337	1.6765	25.25	0.11	0.750			
0.4861	31111.16	3.7310	3.7309	1.6671	25.23	0.09	0.750			
0.4911	31427.40	3.7280	3.7282	1.6919	25.22	0.08	0.750			
0.4963	31764.61	3.7250	3.7251	1.7582	25.20	0.06	0.750			
0.5015	32096.68	3.7220	3.7220	1.8069	25.18	0.04	0.750			
0.5071	32455.94	3.7190	3.7192	1.8435	25.17	0.03	0.750			
0.5127	32812.63	3.7160	3.7162	1.9094	25.15	0.01	0.750			
0.5186	33188.76	3.7130	3.7129	1.9675	25.14	-0.00	0.750			
0.5244	33561.68	3.7100	3.7096	2.0549	25.12	-0.02	0.750			
0.5307	33963.77	3.7070	3.7071	2.0900	25.11	-0.03	0.750			
0.5372	34379.32	3.7040	3.7037	2.1335	25.09	-0.05	0.750			
0.5438	34801.47	3.7010	3.7013	2.2029	25.08	-0.06	0.750			
0.5503	35218.06	3.6980	3.6982	2.2554	25.07	-0.07	0.750			
0.5571	35654.36	3.6950	3.6951	2.3290	25.06	-0.08	0.750			
0.5645	36127.94	3.6920	3.6920	2.3823	25.05	-0.09	0.750			
0.5718	36594.94	3.6890	3.6892	2.4289	25.03	-0.11	0.750			
0.5791	37059.72	3.6860	3.6860	2.5229	25.02	-0.12	0.750			
0.5865	37538.44	3.6830	3.6834	2.5821	25.01	-0.13	0.750			
0.5944	38040.39	3.6800	3.6802	2.6330	25.00	-0.14	0.750			
0.6027	38575.42	3.6770	3.6769	2.6664	24.99	-0.15	0.750			
0.6106	39079.37	3.6740	3.6740	2.6578	24.99	-0.15	0.750			
0.6186	39587.43	3.6710	3.6710	2.7196	24.98	-0.16	0.750			
0.6268	40115.68	3.6680	3.6677	2.6296	24.98	-0.16	0.750			
0.6347	40620.01	3.6650	3.6646	2.6085	24.98	-0.16	0.750			
0.6425	41117.45	3.6620	3.6621	2.4274	24.98	-0.16	0.750			
0.6494	41561.57	3.6590	3.6596	2.2488	25.00	-0.14	0.750			
0.6557	41961.99	3.6560	3.6553	2.0259	25.01	-0.13	0.750			
0.6615	42334.17	3.6530	3.6528	1.8403	25.01	-0.13	0.750			
0.6668	42674.16	3.6500	3.6502	1.6821	25.02	-0.12	0.750			
0.6717	42988.86	3.6470	3.6471	1.5475	25.03	-0.11	0.750			
0.6761	43270.27	3.6440	3.6441	1.3959	25.03	-0.11	0.750			
0.6800	43521.89	3.6410	3.6408	1.2680	25.04	-0.10	0.750			
0.6837	43753.68	3.6380	3.6381	1.1560	25.05	-0.09	0.750			
0.6869	43959.54	3.6350	3.6350	1.0877	25.05	-0.09	0.750			
0.6899	44152.94	3.6320	3.6322	1.0243	25.06	-0.08	0.750			
0.6928	44342.11	3.6290	3.6281	0.9859	25.06	-0.08	0.750			
0.6957	44526.45	3.6260	3.6262	0.9511	25.07	-0.07	0.750			
0.6986	44707.84	3.6230	3.6231	0.9325	25.08	-0.06	0.750			
0.7014	44888.46	3.6200	3.6200	0.9127	25.09	-0.05	0.750			
0.7041	45062.08	3.6170	3.6170	0.8652	25.10	-0.04	0.750			
0.7067	45226.92	3.6140	3.6140	0.8283	25.10	-0.04	0.750			
0.7092	45386.67	3.6110	3.6111	0.7814	25.11	-0.03	0.750			
0.7115	45534.01	3.6080	3.6080	0.7204	25.12	-0.02	0.750			
0.7136	45672.22	3.6050	3.6049	0.6483	25.13	-0.01	0.750			
0.7154	45786.72	3.6020	3.6021	0.5642	25.13	-0.01	0.750			
0.7169	45883.49	3.5990	3.5993	0.5045	25.14	-0.00	0.750			
0.7183	45971.33	3.5960	3.5963	0.4456	25.14	0.00	0.750			
0.7195	46047.19	3.5930	3.5935	0.3934	25.15	0.01	0.750			
0.7206	46118.50	3.5900	3.5908	0.3533	25.15	0.01	0.750			
0.7217	46187.23	3.5870	3.5877	0.3141	25.15	0.01	0.750			
0.7226	46245.43	3.5840	3.5844	0.2709	25.16	0.02	0.750			
0.7233	46292.42	3.5810	3.5817	0.2152	25.16	0.02	0.750			
0.7238	46325.80	3.5780	3.5790	0.1624	25.16	0.02	0.750			
0.7243	46356.22	3.5750	3.5761	0.0994	25.16	0.02	0.750			
0.7245	46369.32	3.5720	3.5735	0.0319	25.16	0.02	0.750			
