Ah_balance (normalized)	Ah_balance (mAh)	Voltage - fit (V)	Voltage -  interpolate (V)	dQ/dV (1/V)	Temperature (°C)	Temperature - diff (°C)	Current (C)	R_DC 0ms (mOhm)	R_DC 50ms (mOhm)	R_DC 50 ms PEC (mOhm)
0.0003	20.54	4.1650	4.1651	-0.1299	25.21	0.03	-0.750			
0.0008	50.82	4.1620	4.1618	-0.1818	25.21	0.03	-0.750			
0.0014	91.33	4.1590	4.1589	-0.2310	25.20	0.02	-0.750			
0.0022	141.01	4.1560	4.1560	-0.2760	25.20	0.02	-0.750			
0.0031	198.90	4.1530	4.1530	-0.3181	25.20	0.02	-0.750			
0.0041	264.37	4.1500	4.1501	-0.3667	25.19	0.01	-0.750			
0.0053	340.21	4.1470	4.1470	-0.4051	25.19	0.01	-0.750			
0.0066	421.94	4.1440	4.1440	-0.4440	25.19	0.01	-0.750			
0.0080	511.43	4.1410	4.1409	-0.4805	25.18	0.00	-0.750			
0.0095	607.58	4.1380	4.1381	-0.5142	25.18	-0.00	-0.750			
0.0111	711.24	4.1350	4.1349	-0.5464	25.17	-0.01	-0.750			
0.0128	819.89	4.1320	4.1319	-0.5679	25.17	-0.01	-0.750			
0.0146	931.29	4.1290	4.1291	-0.5925	25.16	-0.02	-0.750			
0.0164	1049.96	4.1260	4.1261	-0.6153	25.16	-0.02	-0.750			
0.0183	1169.78	4.1230	4.1229	-0.6353	25.15	-0.03	-0.750			
0.0202	1294.22	4.1200	4.1198	-0.6509	25.14	-0.04	-0.750			
0.0222	1421.64	4.1170	4.1168	-0.6624	25.14	-0.04	-0.750			
0.0242	1550.58	4.1140	4.1140	-0.6705	25.14	-0.04	-0.750			
0.0263	1680.76	4.1110	4.1111	-0.6851	25.13	-0.05	-0.750			
0.0283	1809.86	4.1080	4.1080	-0.6897	25.13	-0.05	-0.750			
0.0304	1947.45	4.1050	4.1049	-0.7030	25.13	-0.05	-0.750			
0.0325	2082.41	4.1020	4.1019	-0.7083	25.12	-0.06	-0.750			
0.0347	2220.15	4.0990	4.0991	-0.7221	25.12	-0.06	-0.750			
0.0369	2361.23	4.0960	4.0960	-0.7240	25.12	-0.06	-0.750			
0.0391	2500.78	4.0930	4.0929	-0.7308	25.12	-0.06	-0.750			
0.0412	2639.06	4.0900	4.0901	-0.7341	25.11	-0.07	-0.750			
0.0435	2781.70	4.0870	4.0870	-0.7442	25.11	-0.07	-0.750			
0.0457	2926.62	4.0840	4.0840	-0.7502	25.11	-0.07	-0.750			
0.0480	3070.58	4.0810	4.0809	-0.7534	25.11	-0.07	-0.750			
0.0502	3213.95	4.0780	4.0782	-0.7631	25.11	-0.07	-0.750			
0.0526	3364.10	4.0750	4.0749	-0.7645	25.10	-0.08	-0.750			
0.0549	3510.71	4.0720	4.0719	-0.7591	25.10	-0.08	-0.750			
0.0571	3656.68	4.0690	4.0690	-0.7618	25.10	-0.08	-0.750			
0.0594	3803.78	4.0660	4.0662	-0.7598	25.10	-0.08	-0.750			
0.0617	3949.82	4.0630	4.0629	-0.7637	25.10	-0.08	-0.750			
0.0640	4096.68	4.0600	4.0599	-0.7663	25.10	-0.08	-0.750			
0.0663	4242.59	4.0570	4.0571	-0.7655	25.10	-0.08	-0.750			
0.0686	4392.46	4.0540	4.0539	-0.7739	25.10	-0.08	-0.750			
0.0710	4541.64	4.0510	4.0513	-0.7785	25.10	-0.08	-0.750			
0.0733	4690.25	4.0480	4.0479	-0.7780	25.10	-0.08	-0.750			
0.0756	4840.34	4.0450	4.0449	-0.7828	25.10	-0.08	-0.750			
0.0780	4989.24	4.0420	4.0420	-0.7820	25.10	-0.08	-0.750			
0.0804	5142.90	4.0390	4.0390	-0.7933	25.10	-0.08	-0.750			
0.0827	5293.61	4.0360	4.0360	-0.7832	25.10	-0.08	-0.750			
0.0851	5443.73	4.0330	4.0329	-0.7848	25.10	-0.08	-0.750			
0.0874	5591.00	4.0300	4.0301	-0.7970	25.10	-0.08	-0.750			
0.0898	5745.75	4.0270	4.0268	-0.7958	25.10	-0.08	-0.750			
0.0922	5900.47	4.0240	4.0239	-0.7942	25.11	-0.07	-0.750			
0.0946	6054.90	4.0210	4.0209	-0.7961	25.11	-0.07	-0.750			
0.0970	6207.94	4.0180	4.0182	-0.7991	25.11	-0.07	-0.750			
0.0994	6361.50	4.0150	4.0149	-0.8013	25.11	-0.07	-0.750			
0.1017	6511.66	4.0120	4.0120	-0.7971	25.11	-0.07	-0.750			
0.1041	6663.12	4.0090	4.0090	-0.7916	25.12	-0.06	-0.750			
0.1066	6819.34	4.0060	4.0060	-0.8069	25.12	-0.06	-0.750			
0.1090	6976.10	4.0030	4.0032	-0.8102	25.12	-0.06	-0.750			
0.1114	7131.28	4.0000	4.0000	-0.8030	25.12	-0.06	-0.750			
0.1138	7283.89	3.9970	3.9970	-0.8099	25.12	-0.06	-0.750			
0.1163	7443.18	3.9940	3.9939	-0.8052	25.13	-0.05	-0.750			
0.1188	7602.98	3.9910	3.9908	-0.7836	25.13	-0.05	-0.750			
0.1211	7751.30	3.9880	3.9884	-0.7613	25.13	-0.05	-0.750			
0.1233	7892.68	3.9850	3.9853	-0.7452	25.13	-0.05	-0.750			
0.1255	8029.43	3.9820	3.9823	-0.7601	25.13	-0.05	-0.750			
0.1276	8169.09	3.9790	3.9785	-0.7602	25.13	-0.05	-0.750			
0.1299	8316.16	3.9760	3.9758	-0.7728	25.13	-0.05	-0.750			
0.1323	8470.39	3.9730	3.9729	-0.7917	25.13	-0.05	-0.750			
0.1349	8632.34	3.9700	3.9699	-0.8216	25.13	-0.05	-0.750			
0.1373	8786.52	3.9670	3.9669	-0.8259	25.13	-0.05	-0.750			
0.1396	8931.99	3.9640	3.9642	-0.8524	25.13	-0.05	-0.750			
0.1422	9101.06	3.9610	3.9608	-0.8985	25.12	-0.06	-0.750			
0.1450	9282.54	3.9580	3.9577	-0.9080	25.12	-0.06	-0.750			
0.1479	9463.01	3.9550	3.9553	-0.9133	25.12	-0.06	-0.750			
0.1508	9649.58	3.9520	3.9522	-0.9267	25.13	-0.05	-0.750			
0.1535	9827.20	3.9490	3.9488	-0.8974	25.13	-0.05	-0.750			
0.1561	9991.82	3.9460	3.9458	-0.8597	25.14	-0.04	-0.750			
0.1586	10149.78	3.9430	3.9436	-0.8453	25.14	-0.04	-0.750			
0.1611	10311.10	3.9400	3.9399	-0.8415	25.14	-0.04	-0.750			
0.1636	10471.65	3.9370	3.9369	-0.8541	25.14	-0.04	-0.750			
0.1662	10634.77	3.9340	3.9339	-0.8469	25.14	-0.04	-0.750			
0.1688	10800.50	3.9310	3.9310	-0.8580	25.14	-0.04	-0.750			
0.1713	10965.61	3.9280	3.9284	-0.8621	25.14	-0.04	-0.750			
0.1739	11131.93	3.9250	3.9249	-0.8595	25.14	-0.04	-0.750			
0.1765	11297.05	3.9220	3.9218	-0.8593	25.15	-0.03	-0.750			
0.1791	11460.00	3.9190	3.9190	-0.8562	25.15	-0.03	-0.750			
0.1816	11625.58	3.9160	3.9160	-0.8596	25.16	-0.02	-0.750			
0.1842	11790.78	3.9130	3.9131	-0.8650	25.16	-0.02	-0.750			
0.1868	11955.06	3.9100	3.9101	-0.8674	25.16	-0.02	-0.750			
0.1894	12121.49	3.9070	3.9069	-0.8687	25.16	-0.02	-0.750			
0.1920	12288.69	3.9040	3.9039	-0.8716	25.17	-0.01	-0.750			
0.1947	12459.14	3.9010	3.9010	-0.8775	25.17	-0.01	-0.750			
0.1973	12627.41	3.8980	3.8980	-0.8718	25.17	-0.01	-0.750			
0.2000	12798.59	3.8950	3.8950	-0.8732	25.17	-0.01	-0.750			
0.2027	12971.41	3.8920	3.8919	-0.8408	25.18	-0.00	-0.750			
0.2051	13125.08	3.8890	3.8890	-0.8603	25.18	-0.00	-0.750			
0.2076	13289.55	3.8860	3.8860	-0.8706	25.18	-0.00	-0.750			
0.2102	13455.14	3.8830	3.8817	-0.8735	25.18	0.00	-0.750			
0.2129	13623.13	3.8800	3.8804	-0.8925	25.18	0.00	-0.750			
0.2156	13800.53	3.8770	3.8770	-0.8931	25.18	0.00	-0.750			
0.2184	13977.87	3.8740	3.8739	-0.9018	25.18	0.00	-0.750			
0.2211	14153.11	3.8710	3.8715	-0.9018	25.18	0.00	-0.750			
0.2237	14316.40	3.8680	3.8680	-0.8864	25.18	0.00	-0.750			
0.2263	14485.54	3.8650	3.8648	-0.8808	25.18	0.00	-0.750			
0.2289	14651.37	3.8620	3.8619	-0.8787	25.19	0.01	-0.750			
0.2316	14822.65	3.8590	3.8591	-0.8898	25.19	0.01	-0.750			
0.2343	14994.77	3.8560	3.8562	-0.8973	25.19	0.01	-0.750			
0.2370	15169.05	3.8530	3.8529	-0.9012	25.19	0.01	-0.750			
0.2397	15342.49	3.8500	3.8500	-0.8957	25.19	0.01	-0.750			
0.2424	15514.44	3.8470	3.8470	-0.8754	25.20	0.02	-0.750			
0.2450	15680.69	3.8440	3.8441	-0.8795	25.20	0.02	-0.750			
0.2476	15845.54	3.8410	3.8411	-0.8848	25.20	0.02	-0.750			
0.2502	16012.42	3.8380	3.8371	-0.8935	25.20	0.02	-0.750			
0.2529	16187.19	3.8350	3.8351	-0.8936	25.20	0.02	-0.750			
0.2556	16361.33	3.8320	3.8321	-0.9001	25.20	0.02	-0.750			
0.2585	16542.78	3.8290	3.8294	-0.9099	25.20	0.02	-0.750			
0.2612	16719.76	3.8260	3.8257	-0.9012	25.20	0.02	-0.750			
0.2637	16879.69	3.8230	3.8230	-0.8762	25.21	0.03	-0.750			
0.2664	17046.69	3.8200	3.8200	-0.8751	25.21	0.03	-0.750			
0.2690	17216.59	3.8170	3.8169	-0.8805	25.22	0.04	-0.750			
0.2716	17384.54	3.8140	3.8141	-0.8826	25.22	0.04	-0.750			
0.2742	17551.76	3.8110	3.8110	-0.8878	25.22	0.04	-0.750			
0.2769	17723.72	3.8080	3.8079	-0.8913	25.22	0.04	-0.750			
0.2797	17903.22	3.8050	3.8049	-0.8683	25.23	0.05	-0.750			
0.2823	18068.15	3.8020	3.8018	-0.8685	25.23	0.05	-0.750			
0.2848	18228.81	3.7990	3.7991	-0.8706	25.23	0.05	-0.750			
0.2874	18392.62	3.7960	3.7962	-0.8787	25.24	0.06	-0.750			
0.2900	18561.43	3.7930	3.7918	-0.8805	25.24	0.06	-0.750			
0.2927	18731.46	3.7900	3.7901	-0.8784	25.24	0.06	-0.750			
0.2954	18905.58	3.7870	3.7871	-0.8885	25.25	0.07	-0.750			
0.2981	19081.04	3.7840	3.7839	-0.8861	25.25	0.07	-0.750			
0.3007	19246.73	3.7810	3.7809	-0.8669	25.25	0.07	-0.750			
0.3033	19410.06	3.7780	3.7780	-0.8595	25.25	0.07	-0.750			
0.3058	19574.17	3.7750	3.7750	-0.8539	25.25	0.07	-0.750			
0.3085	19742.36	3.7720	3.7722	-0.8620	25.25	0.07	-0.750			
0.3110	19906.82	3.7690	3.7690	-0.8556	25.25	0.07	-0.750			
0.3136	20070.50	3.7660	3.7660	-0.8620	25.26	0.08	-0.750			
0.3162	20236.80	3.7630	3.7629	-0.8583	25.26	0.08	-0.750			
0.3188	20402.58	3.7600	3.7600	-0.8610	25.27	0.09	-0.750			
0.3214	20572.66	3.7570	3.7573	-0.8204	25.27	0.09	-0.750			
0.3238	20725.75	3.7540	3.7540	-0.8231	25.27	0.09	-0.750			
0.3262	20877.16	3.7510	3.7513	-0.8419	25.27	0.09	-0.750			
0.3286	21033.35	3.7480	3.7473	-0.8532	25.27	0.09	-0.750			
0.3313	21201.67	3.7450	3.7446	-0.8750	25.27	0.09	-0.750			
0.3340	21374.19	3.7420	3.7425	-0.8818	25.27	0.09	-0.750			
0.3367	21550.15	3.7390	3.7391	-0.9062	25.27	0.09	-0.750			
0.3396	21731.50	3.7360	3.7359	-0.9099	25.27	0.09	-0.750			
0.3421	21893.28	3.7330	3.7328	-0.8839	25.28	0.10	-0.750			
0.3448	22064.32	3.7300	3.7301	-0.8991	25.28	0.10	-0.750			
0.3475	22237.67	3.7270	3.7268	-0.9086	25.28	0.10	-0.750			
0.3502	22415.69	3.7240	3.7239	-0.9326	25.28	0.10	-0.750			
0.3531	22597.59	3.7210	3.7209	-0.9377	25.27	0.09	-0.750			
0.3559	22776.44	3.7180	3.7179	-0.9460	25.27	0.09	-0.750			
0.3588	22964.43	3.7150	3.7155	-0.9396	25.27	0.09	-0.750			
0.3616	23139.47	3.7120	3.7120	-0.9954	25.27	0.09	-0.750			
0.3646	23332.90	3.7090	3.7089	-1.0031	25.27	0.09	-0.750			
0.3676	23527.19	3.7060	3.7060	-1.0128	25.27	0.09	-0.750			
0.3707	23727.29	3.7030	3.7033	-1.0408	25.27	0.09	-0.750			
0.3739	23928.25	3.7000	3.7000	-1.0662	25.27	0.09	-0.750	0.356	0.473	
0.3771	24135.56	3.6970	3.6967	-1.0778	25.27	0.09	-0.750			
0.3804	24344.52	3.6940	3.6939	-1.0906	25.26	0.08	-0.750			
0.3836	24549.65	3.6910	3.6914	-1.1310	25.26	0.08	-0.750			
0.3871	24771.44	3.6880	3.6878	-1.1336	25.25	0.07	-0.750			
0.3905	24989.94	3.6850	3.6849	-1.1440	25.25	0.07	-0.750			
0.3938	25206.25	3.6820	3.6819	-1.1602	25.24	0.06	-0.750			
0.3974	25435.67	3.6790	3.6787	-1.1663	25.24	0.06	-0.750			
0.4008	25653.15	3.6760	3.6760	-1.1884	25.23	0.05	-0.750			
0.4043	25872.34	3.6730	3.6733	-1.2276	25.22	0.04	-0.750			
0.4080	26110.71	3.6700	3.6689	-1.2664	25.21	0.03	-0.750			
0.4120	26367.79	3.6670	3.6676	-1.3272	25.20	0.02	-0.750			
0.4160	26626.50	3.6640	3.6642	-1.3629	25.19	0.01	-0.750			
0.4203	26897.00	3.6610	3.6612	-1.4120	25.18	0.00	-0.750			
0.4247	27183.48	3.6580	3.6577	-1.4361	25.17	-0.01	-0.750			
0.4289	27448.22	3.6550	3.6548	-1.4515	25.16	-0.02	-0.750			
0.4336	27747.72	3.6520	3.6524	-1.4363	25.15	-0.03	-0.750			
0.4379	28028.14	3.6490	3.6488	-1.4293	25.14	-0.04	-0.750			
0.4422	28303.21	3.6460	3.6460	-1.4380	25.14	-0.04	-0.750			
0.4464	28569.08	3.6430	3.6438	-1.4511	25.13	-0.05	-0.750			
0.4506	28840.61	3.6400	3.6394	-1.4676	25.12	-0.06	-0.750			
0.4550	29120.83	3.6370	3.6366	-1.5175	25.11	-0.07	-0.750			
0.4596	29413.66	3.6340	3.6341	-1.5777	25.10	-0.08	-0.750			
0.4647	29738.10	3.6310	3.6308	-1.6735	25.09	-0.09	-0.750			
0.4697	30063.43	3.6280	3.6280	-1.6852	25.07	-0.11	-0.750			
0.4748	30387.13	3.6250	3.6254	-1.6814	25.06	-0.12	-0.750			
0.4798	30707.94	3.6220	3.6223	-1.7494	25.05	-0.13	-0.750			
0.4852	31054.34	3.6190	3.6189	-1.7918	25.04	-0.14	-0.750			
0.4906	31398.72	3.6160	3.6159	-1.8757	25.03	-0.15	-0.750			
0.4965	31778.81	3.6130	3.6127	-1.8818	25.03	-0.15	-0.750			
0.5024	32150.72	3.6100	3.6095	-1.9349	25.02	-0.16	-0.750			
0.5082	32521.60	3.6070	3.6073	-1.9299	25.01	-0.17	-0.750			
0.5140	32894.99	3.6040	3.6037	-1.9529	25.00	-0.18	-0.750			
0.5197	33263.02	3.6010	3.6007	-2.0012	24.98	-0.20	-0.750			
0.5255	33635.02	3.5980	3.5984	-2.1032	24.98	-0.20	-0.750			
0.5321	34056.40	3.5950	3.5949	-2.1552	24.98	-0.20	-0.750			
0.5388	34482.00	3.5920	3.5912	-2.1774	24.97	-0.21	-0.750			
0.5453	34898.85	3.5890	3.5884	-2.1426	24.96	-0.22	-0.750			
0.5517	35309.75	3.5860	3.5860	-2.1726	24.95	-0.23	-0.750			
0.5581	35721.60	3.5830	3.5829	-2.2778	24.94	-0.24	-0.750			
0.5653	36178.06	3.5800	3.5800	-2.3211	24.94	-0.24	-0.750			
0.5724	36631.52	3.5770	3.5769	-2.4610	24.94	-0.24	-0.750			
0.5800	37122.63	3.5740	3.5731	-2.5772	24.93	-0.25	-0.750			
0.5878	37620.26	3.5710	3.5716	-2.5375	24.93	-0.25	-0.750			
0.5957	38124.44	3.5680	3.5682	-2.5657	24.92	-0.26	-0.750			
0.6032	38607.54	3.5650	3.5651	-2.4773	24.93	-0.25	-0.750			
0.6103	39061.61	3.5620	3.5620	-2.3482	24.93	-0.25	-0.750			
0.6173	39508.02	3.5590	3.5594	-2.3148	24.92	-0.26	-0.750			
0.6242	39951.45	3.5560	3.5557	-2.3179	24.92	-0.26	-0.750			
0.6312	40399.47	3.5530	3.5530	-2.2786	24.92	-0.26	-0.750			
0.6380	40833.33	3.5500	3.5501	-2.2919	24.92	-0.26	-0.750			
0.6449	41272.54	3.5470	3.5471	-2.2422	24.93	-0.25	-0.750			
0.6518	41714.44	3.5440	3.5435	-2.2412	24.93	-0.25	-0.750			
0.6584	42138.59	3.5410	3.5410	-2.1648	24.94	-0.24	-0.750			
0.6648	42549.59	3.5380	3.5382	-2.1345	24.94	-0.24	-0.750			
0.6713	42961.93	3.5350	3.5352	-2.0951	24.94	-0.24	-0.750			
0.6774	43352.36	3.5320	3.5324	-2.1000	24.95	-0.23	-0.750			
0.6836	43748.62	3.5290	3.5291	-1.9678	24.96	-0.22	-0.750			
0.6894	44122.30	3.5260	3.5260	-1.9319	24.97	-0.21	-0.750			
0.6952	44491.17	3.5230	3.5228	-1.8943	24.98	-0.20	-0.750			
0.7008	44852.57	3.5200	3.5198	-1.8260	24.99	-0.19	-0.750			
0.7062	45195.06	3.5170	3.5170	-1.7493	25.00	-0.18	-0.750			
0.7112	45517.07	3.5140	3.5138	-1.6609	25.02	-0.16	-0.750			
0.7162	45838.37	3.5110	3.5107	-1.6496	25.04	-0.14	-0.750			
0.7211	46149.63	3.5080	3.5081	-1.5829	25.06	-0.12	-0.750			
0.7257	46443.43	3.5050	3.5046	-1.5199	25.07	-0.11	-0.750			
0.7301	46728.06	3.5020	3.5018	-1.4617	25.09	-0.09	-0.750			
0.7345	47010.87	3.4990	3.4991	-1.4120	25.10	-0.08	-0.750			
0.7388	47286.05	3.4960	3.4957	-1.3040	25.12	-0.06	-0.750			
0.7425	47523.11	3.4930	3.4931	-1.1577	25.13	-0.05	-0.750			
