Ah_balance (normalized)	Ah_balance (mAh)	Voltage - fit (V)	Voltage -  interpolate (V)	dQ/dV (1/V)	Temperature (°C)	Temperature - diff (°C)	Current (C)	R_DC 0ms (mOhm)	R_DC 50ms (mOhm)	R_DC 50 ms PEC (mOhm)
0.0469	3002.55	4.1980	4.1981	0.6789	25.67	0.44	0.750			
0.0491	3140.31	4.1950	4.1951	0.7409	25.67	0.44	0.750			
0.0514	3286.49	4.1920	4.1921	0.7643	25.67	0.44	0.750			
0.0537	3437.10	4.1890	4.1890	0.7692	25.67	0.44	0.750			
0.0561	3588.37	4.1860	4.1860	0.7709	25.67	0.44	0.750			
0.0584	3735.30	4.1830	4.1831	0.7589	25.67	0.44	0.750			
0.0606	3880.66	4.1800	4.1799	0.7578	25.67	0.44	0.750			
0.0629	4023.78	4.1770	4.1770	0.7579	25.67	0.44	0.750			
0.0652	4169.93	4.1740	4.1739	0.7544	25.67	0.44	0.750			
0.0674	4313.85	4.1710	4.1710	0.7606	25.67	0.44	0.750			
0.0697	4460.58	4.1680	4.1681	0.7653	25.67	0.44	0.750			
0.0720	4608.42	4.1650	4.1651	0.7712	25.67	0.44	0.750			
0.0743	4756.86	4.1620	4.1621	0.7748	25.67	0.44	0.750			
0.0767	4906.30	4.1590	4.1590	0.7740	25.68	0.45	0.750			
0.0790	5055.86	4.1560	4.1560	0.7631	25.68	0.45	0.750			
0.0813	5201.64	4.1530	4.1530	0.7675	25.68	0.45	0.750			
0.0835	5343.65	4.1500	4.1503	0.7746	25.69	0.46	0.750			
0.0858	5492.41	4.1470	4.1462	0.7940	25.69	0.46	0.750			
0.0882	5645.96	4.1440	4.1441	0.8061	25.69	0.46	0.750			
0.0907	5806.35	4.1410	4.1397	0.8128	25.69	0.46	0.750			
0.0933	5969.86	4.1380	4.1382	0.8262	25.69	0.46	0.750			
0.0957	6127.39	4.1350	4.1351	0.8070	25.69	0.46	0.750			
0.0982	6282.51	4.1320	4.1317	0.8032	25.69	0.46	0.750			
0.1005	6431.89	4.1290	4.1290	0.7861	25.69	0.46	0.750			
0.1029	6584.40	4.1260	4.1260	0.7829	25.69	0.46	0.750			
0.1052	6735.09	4.1230	4.1230	0.7869	25.68	0.45	0.750			
0.1076	6885.65	4.1200	4.1201	0.7853	25.68	0.45	0.750			
0.1099	7034.36	4.1170	4.1169	0.7852	25.68	0.45	0.750			
0.1123	7185.23	4.1140	4.1140	0.7903	25.68	0.45	0.750			
0.1147	7341.44	4.1110	4.1109	0.7812	25.68	0.45	0.750			
0.1170	7489.30	4.1080	4.1081	0.7889	25.68	0.45	0.750			
0.1194	7641.47	4.1050	4.1050	0.7959	25.69	0.46	0.750			
0.1218	7792.47	4.1020	4.1022	0.7868	25.69	0.46	0.750			
0.1241	7941.61	4.0990	4.0988	0.7905	25.69	0.46	0.750			
0.1265	8093.25	4.0960	4.0963	0.7967	25.69	0.46	0.750			
0.1288	8246.03	4.0930	4.0924	0.8061	25.69	0.46	0.750			
0.1313	8404.24	4.0900	4.0902	0.8150	25.69	0.46	0.750			
0.1338	8561.33	4.0870	4.0871	0.8125	25.69	0.46	0.750			
0.1363	8721.23	4.0840	4.0840	0.8208	25.69	0.46	0.750			
0.1388	8882.17	4.0810	4.0809	0.8233	25.69	0.46	0.750			
0.1412	9035.64	4.0780	4.0780	0.8060	25.69	0.46	0.750			
0.1436	9187.56	4.0750	4.0750	0.8113	25.69	0.46	0.750			
0.1460	9341.54	4.0720	4.0721	0.8138	25.69	0.46	0.750			
0.1484	9498.51	4.0690	4.0685	0.8223	25.69	0.46	0.750			
0.1509	9657.28	4.0660	4.0661	0.8283	25.69	0.46	0.750			
0.1534	9817.35	4.0630	4.0631	0.8272	25.69	0.46	0.750			
0.1559	9978.39	4.0600	4.0601	0.8352	25.69	0.46	0.750			
0.1584	10139.29	4.0570	4.0570	0.8256	25.69	0.46	0.750			
0.1609	10299.88	4.0540	4.0534	0.8134	25.69	0.46	0.750			
0.1633	10452.36	4.0510	4.0512	0.8215	25.69	0.46	0.750			
0.1658	10608.52	4.0480	4.0482	0.8310	25.69	0.46	0.750			
0.1683	10768.30	4.0450	4.0448	0.8431	25.69	0.46	0.750			
0.1708	10931.10	4.0420	4.0419	0.8428	25.69	0.46	0.750			
0.1734	11095.81	4.0390	4.0390	0.8576	25.69	0.46	0.750			
0.1760	11266.81	4.0360	4.0360	0.8585	25.69	0.46	0.750			
0.1787	11435.41	4.0330	4.0330	0.8665	25.69	0.46	0.750			
0.1812	11594.07	4.0300	4.0300	0.8516	25.69	0.46	0.750			
0.1837	11756.91	4.0270	4.0271	0.8510	25.69	0.46	0.750			
0.1862	11918.76	4.0240	4.0238	0.8553	25.69	0.46	0.750			
0.1888	12084.85	4.0210	4.0211	0.8611	25.69	0.46	0.750			
0.1914	12251.13	4.0180	4.0180	0.8707	25.69	0.46	0.750			
0.1941	12420.65	4.0150	4.0150	0.8787	25.69	0.46	0.750			
0.1967	12589.51	4.0120	4.0121	0.8776	25.69	0.46	0.750			
0.1994	12762.65	4.0090	4.0090	0.8679	25.69	0.46	0.750			
0.2020	12928.37	4.0060	4.0060	0.8670	25.69	0.46	0.750			
0.2046	13091.60	4.0030	4.0031	0.8691	25.69	0.46	0.750			
0.2071	13257.45	4.0000	4.0002	0.8760	25.70	0.47	0.750			
0.2098	13424.19	3.9970	3.9967	0.8790	25.70	0.47	0.750			
0.2124	13594.38	3.9940	3.9941	0.8888	25.70	0.47	0.750			
0.2151	13767.54	3.9910	3.9911	0.8945	25.70	0.47	0.750			
0.2178	13942.26	3.9880	3.9880	0.8972	25.71	0.48	0.750			
0.2205	14114.51	3.9850	3.9850	0.8922	25.71	0.48	0.750			
0.2232	14285.46	3.9820	3.9818	0.8932	25.71	0.48	0.750			
0.2259	14458.77	3.9790	3.9790	0.8849	25.71	0.48	0.750			
0.2286	14627.20	3.9760	3.9760	0.8895	25.71	0.48	0.750			
0.2312	14796.26	3.9730	3.9731	0.8951	25.71	0.48	0.750			
0.2339	14967.79	3.9700	3.9701	0.9037	25.71	0.48	0.750			
0.2366	15142.87	3.9670	3.9671	0.9034	25.71	0.48	0.750			
0.2394	15319.99	3.9640	3.9639	0.8876	25.71	0.48	0.750			
0.2420	15488.83	3.9610	3.9612	0.8975	25.71	0.48	0.750			
0.2447	15659.61	3.9580	3.9582	0.9066	25.71	0.48	0.750			
0.2474	15830.41	3.9550	3.9551	0.9076	25.71	0.48	0.750			
0.2501	16008.07	3.9520	3.9521	0.9117	25.71	0.48	0.750			
0.2529	16183.82	3.9490	3.9491	0.9191	25.71	0.48	0.750			
0.2557	16364.91	3.9460	3.9461	0.9275	25.71	0.48	0.750			
0.2586	16547.62	3.9430	3.9431	0.9339	25.71	0.48	0.750			
0.2612	16719.57	3.9400	3.9398	0.9179	25.71	0.48	0.750			
0.2640	16897.61	3.9370	3.9369	0.9117	25.71	0.48	0.750			
0.2667	17070.19	3.9340	3.9341	0.9168	25.71	0.48	0.750			
0.2695	17247.43	3.9310	3.9311	0.9262	25.71	0.48	0.750			
0.2723	17426.14	3.9280	3.9280	0.9282	25.71	0.48	0.750			
0.2751	17605.87	3.9250	3.9250	0.9270	25.71	0.48	0.750			
0.2779	17784.36	3.9220	3.9221	0.9259	25.71	0.48	0.750			
0.2807	17962.29	3.9190	3.9191	0.9193	25.71	0.48	0.750			
0.2834	18138.21	3.9160	3.9161	0.9247	25.71	0.48	0.750			
0.2861	18310.27	3.9130	3.9130	0.9218	25.71	0.48	0.750			
0.2889	18488.48	3.9100	3.9095	0.9260	25.71	0.48	0.750			
0.2917	18667.33	3.9070	3.9072	0.9378	25.71	0.48	0.750			
0.2945	18849.95	3.9040	3.9041	0.9468	25.71	0.48	0.750			
0.2974	19035.95	3.9010	3.9009	0.9532	25.71	0.48	0.750			
0.3004	19222.76	3.8980	3.8980	0.9430	25.71	0.48	0.750			
0.3031	19397.19	3.8950	3.8951	0.9353	25.71	0.48	0.750			
0.3059	19576.75	3.8920	3.8921	0.9377	25.70	0.47	0.750			
0.3087	19755.89	3.8890	3.8890	0.9421	25.70	0.47	0.750			
0.3115	19934.06	3.8860	3.8859	0.9411	25.70	0.47	0.750			
0.3143	20115.69	3.8830	3.8831	0.9450	25.69	0.46	0.750			
0.3173	20304.79	3.8800	3.8799	0.9443	25.69	0.46	0.750			
0.3201	20484.32	3.8770	3.8771	0.9462	25.69	0.46	0.750			
0.3228	20661.62	3.8740	3.8741	0.9484	25.68	0.45	0.750			
0.3257	20845.42	3.8710	3.8711	0.9450	25.67	0.44	0.750			
0.3285	21025.79	3.8680	3.8676	0.9544	25.67	0.44	0.750			
0.3314	21209.27	3.8650	3.8652	0.9610	25.66	0.43	0.750			
0.3343	21396.16	3.8620	3.8622	0.9688	25.65	0.42	0.750			
0.3373	21587.19	3.8590	3.8590	0.9668	25.65	0.42	0.750			
0.3401	21769.53	3.8560	3.8561	0.9607	25.64	0.41	0.750			
0.3430	21953.86	3.8530	3.8531	0.9685	25.64	0.41	0.750			
0.3460	22141.67	3.8500	3.8500	0.9782	25.63	0.40	0.750			
0.3489	22327.58	3.8470	3.8469	0.9725	25.63	0.40	0.750			
0.3518	22515.45	3.8440	3.8441	0.9730	25.62	0.39	0.750			
0.3549	22715.77	3.8410	3.8409	0.9447	25.61	0.38	0.750			
0.3575	22881.69	3.8380	3.8382	0.9725	25.61	0.38	0.750			
0.3604	23065.30	3.8350	3.8351	0.9799	25.60	0.37	0.750			
0.3633	23253.40	3.8320	3.8323	0.9866	25.59	0.36	0.750	0.342	0.442	
0.3664	23446.53	3.8290	3.8294	1.0018	25.58	0.35	0.750			
0.3694	23644.03	3.8260	3.8263	1.0189	25.57	0.34	0.750			
0.3726	23845.04	3.8230	3.8230	1.0292	25.56	0.33	0.750			
0.3756	24041.23	3.8200	3.8200	1.0011	25.55	0.32	0.750			
0.3786	24230.58	3.8170	3.8171	1.0010	25.54	0.31	0.750			
0.3817	24428.39	3.8140	3.8141	0.9983	25.53	0.30	0.750			
0.3847	24619.12	3.8110	3.8111	0.9967	25.52	0.29	0.750			
0.3877	24810.45	3.8080	3.8082	0.9922	25.51	0.28	0.750			
0.3906	24998.99	3.8050	3.8055	0.9950	25.50	0.27	0.750			
0.3936	25188.56	3.8020	3.8019	1.0104	25.50	0.27	0.750			
0.3966	25385.36	3.7990	3.7989	1.0311	25.49	0.26	0.750			
0.3997	25581.03	3.7960	3.7959	1.0287	25.48	0.25	0.750			
0.4027	25775.74	3.7930	3.7932	1.0758	25.47	0.24	0.750			
0.4059	25977.49	3.7900	3.7902	1.1138	25.47	0.24	0.750			
0.4094	26200.49	3.7870	3.7871	1.1559	25.46	0.23	0.750			
0.4129	26424.93	3.7840	3.7835	1.1914	25.46	0.23	0.750			
0.4166	26661.58	3.7810	3.7815	1.2156	25.45	0.22	0.750			
0.4204	26907.17	3.7780	3.7783	1.2442	25.44	0.21	0.750			
0.4243	27155.16	3.7750	3.7749	1.2632	25.43	0.20	0.750			
0.4278	27381.38	3.7720	3.7720	1.2250	25.42	0.19	0.750			
0.4316	27619.87	3.7690	3.7690	1.2492	25.40	0.17	0.750			
0.4354	27866.26	3.7660	3.7659	1.2577	25.39	0.16	0.750			
0.4392	28106.57	3.7630	3.7630	1.2866	25.38	0.15	0.750			
0.4430	28354.09	3.7600	3.7600	1.3203	25.37	0.14	0.750			
0.4470	28607.85	3.7570	3.7569	1.3539	25.35	0.12	0.750			
0.4511	28868.70	3.7540	3.7541	1.3786	25.34	0.11	0.750			
0.4553	29136.11	3.7510	3.7511	1.4169	25.33	0.10	0.750			
0.4596	29415.65	3.7480	3.7478	1.4386	25.31	0.08	0.750			
0.4640	29699.16	3.7450	3.7451	1.4750	25.30	0.07	0.750			
0.4684	29979.83	3.7420	3.7421	1.5023	25.30	0.07	0.750			
0.4730	30269.26	3.7390	3.7391	1.5461	25.29	0.06	0.750			
0.4777	30571.65	3.7360	3.7362	1.5917	25.28	0.05	0.750			
0.4825	30877.32	3.7330	3.7331	1.6158	25.26	0.03	0.750			
0.4874	31191.30	3.7300	3.7299	1.6750	25.25	0.02	0.750			
0.4925	31520.06	3.7270	3.7266	1.7361	25.23	-0.00	0.750			
0.4979	31863.80	3.7240	3.7238	1.7631	25.21	-0.02	0.750			
0.5032	32201.99	3.7210	3.7210	1.8191	25.20	-0.03	0.750			
0.5086	32552.02	3.7180	3.7180	1.8597	25.19	-0.04	0.750			
0.5143	32912.47	3.7150	3.7151	1.9555	25.17	-0.06	0.750			
0.5202	33292.34	3.7120	3.7123	2.0059	25.16	-0.07	0.750			
0.5263	33681.14	3.7090	3.7089	2.0563	25.14	-0.09	0.750			
0.5326	34084.89	3.7060	3.7063	2.1053	25.13	-0.10	0.750			
0.5389	34492.26	3.7030	3.7032	2.1549	25.11	-0.12	0.750			
0.5456	34919.30	3.7000	3.7001	2.1964	25.10	-0.13	0.750			
0.5522	35339.83	3.6970	3.6969	2.2728	25.09	-0.14	0.750			
0.5592	35787.61	3.6940	3.6941	2.3462	25.08	-0.15	0.750			
0.5662	36239.35	3.6910	3.6912	2.4213	25.08	-0.15	0.750			
0.5738	36720.84	3.6880	3.6877	2.4530	25.07	-0.16	0.750			
0.5813	37201.56	3.6850	3.6850	2.5213	25.05	-0.18	0.750			
0.5890	37697.98	3.6820	3.6819	2.5238	25.04	-0.19	0.750			
0.5964	38168.83	3.6790	3.6793	2.4852	25.04	-0.19	0.750			
0.6038	38642.48	3.6760	3.6759	2.4393	25.04	-0.19	0.750			
0.6112	39117.73	3.6730	3.6725	2.5446	25.03	-0.20	0.750			
0.6189	39608.80	3.6700	3.6702	2.7442	25.03	-0.20	0.750			
0.6276	40165.91	3.6670	3.6678	2.8180	25.03	-0.20	0.750			
0.6360	40703.87	3.6640	3.6640	2.6273	25.04	-0.19	0.750			
0.6436	41191.95	3.6610	3.6606	2.4222	25.05	-0.18	0.750			
0.6500	41599.25	3.6580	3.6583	2.1502	25.06	-0.17	0.750			
0.6559	41977.89	3.6550	3.6556	1.9425	25.07	-0.16	0.750			
0.6618	42353.38	3.6520	3.6515	1.8728	25.08	-0.15	0.750			
0.6670	42687.46	3.6490	3.6493	1.7141	25.09	-0.14	0.750			
0.6718	42993.95	3.6460	3.6464	1.5218	25.10	-0.13	0.750			
0.6763	43282.20	3.6430	3.6432	1.4153	25.10	-0.13	0.750			
0.6800	43519.90	3.6400	3.6402	1.2684	25.11	-0.12	0.750			
0.6837	43759.40	3.6370	3.6371	1.1914	25.12	-0.11	0.750			
0.6871	43971.37	3.6340	3.6340	1.1139	25.12	-0.11	0.750			
0.6901	44166.21	3.6310	3.6310	1.0334	25.13	-0.10	0.750			
0.6931	44356.21	3.6280	3.6281	0.9940	25.14	-0.09	0.750			
0.6960	44543.42	3.6250	3.6251	0.9693	25.14	-0.09	0.750			
0.6988	44725.51	3.6220	3.6220	0.9397	25.15	-0.08	0.750			
0.7017	44910.65	3.6190	3.6189	0.8897	25.16	-0.07	0.750			
0.7044	45081.63	3.6160	3.6160	0.8495	25.17	-0.06	0.750			
0.7069	45242.16	3.6130	3.6132	0.7969	25.18	-0.05	0.750			
0.7092	45385.94	3.6100	3.6104	0.7626	25.18	-0.05	0.750			
0.7113	45525.67	3.6070	3.6053	0.7128	25.19	-0.04	0.750			
0.7134	45659.06	3.6040	3.6046	0.6637	25.20	-0.03	0.750			
0.7154	45784.36	3.6010	3.6017	0.6072	25.20	-0.03	0.750			
0.7172	45900.40	3.5980	3.5983	0.5556	25.21	-0.02	0.750			
0.7189	46008.42	3.5950	3.5948	0.4825	25.22	-0.01	0.750			
0.7201	46089.35	3.5920	3.5918	0.4130	25.22	-0.01	0.750			
0.7212	46156.78	3.5890	3.5891	0.3524	25.22	-0.01	0.750			
0.7222	46218.53	3.5860	3.5861	0.3039	25.23	-0.00	0.750			
0.7230	46272.26	3.5830	3.5831	0.2592	25.23	-0.00	0.750			
0.7237	46316.92	3.5800	3.5804	0.2168	25.23	0.00	0.750			
0.7243	46354.11	3.5770	3.5774	0.1804	25.23	0.00	0.750			
0.7248	46384.13	3.5740	3.5738	0.0974	25.23	0.00	0.750			
