Ah_balance (normalized)	Ah_balance (mAh)	Voltage - fit (V)	Voltage -  interpolate (V)	dQ/dV (1/V)	Temperature (°C)	Temperature - diff (°C)	Current (C)	R_DC 0ms (mOhm)	R_DC 50ms (mOhm)	R_DC 50 ms PEC (mOhm)
0.0473	3025.46	4.1980	4.1979	0.7397	25.63	0.63	0.750			
0.0495	3169.41	4.1950	4.1950	0.7478	25.63	0.63	0.750			
0.0517	3310.82	4.1920	4.1920	0.7477	25.63	0.63	0.750			
0.0540	3455.29	4.1890	4.1891	0.7562	25.63	0.63	0.750			
0.0563	3602.09	4.1860	4.1858	0.7617	25.63	0.63	0.750			
0.0586	3749.09	4.1830	4.1830	0.7616	25.63	0.63	0.750			
0.0609	3898.04	4.1800	4.1802	0.7502	25.63	0.63	0.750			
0.0632	4042.79	4.1770	4.1770	0.7587	25.63	0.63	0.750			
0.0654	4186.54	4.1740	4.1741	0.7598	25.63	0.63	0.750			
0.0676	4327.84	4.1710	4.1711	0.7548	25.63	0.63	0.750			
0.0699	4473.23	4.1680	4.1682	0.7592	25.63	0.63	0.750			
0.0722	4621.12	4.1650	4.1651	0.7637	25.63	0.63	0.750			
0.0745	4768.92	4.1620	4.1620	0.7640	25.63	0.63	0.750			
0.0768	4916.74	4.1590	4.1590	0.7668	25.63	0.63	0.750			
0.0791	5062.85	4.1560	4.1561	0.7645	25.63	0.63	0.750			
0.0814	5209.95	4.1530	4.1525	0.7666	25.63	0.63	0.750			
0.0837	5357.58	4.1500	4.1501	0.7676	25.63	0.63	0.750			
0.0860	5506.54	4.1470	4.1471	0.7667	25.63	0.63	0.750			
0.0883	5654.20	4.1440	4.1440	0.7730	25.63	0.63	0.750			
0.0907	5801.83	4.1410	4.1410	0.7745	25.63	0.63	0.750			
0.0929	5947.82	4.1380	4.1380	0.7745	25.63	0.63	0.750			
0.0953	6097.07	4.1350	4.1351	0.7796	25.63	0.63	0.750			
0.0976	6249.35	4.1320	4.1320	0.7834	25.63	0.63	0.750			
0.1000	6400.85	4.1290	4.1290	0.7761	25.63	0.63	0.750			
0.1023	6549.36	4.1260	4.1261	0.7797	25.63	0.63	0.750			
0.1046	6696.11	4.1230	4.1232	0.7794	25.63	0.63	0.750			
0.1070	6845.64	4.1200	4.1198	0.7848	25.63	0.63	0.750			
0.1093	6996.25	4.1170	4.1171	0.7836	25.63	0.63	0.750			
0.1117	7148.45	4.1140	4.1140	0.7848	25.63	0.63	0.750			
0.1141	7303.03	4.1110	4.1111	0.7906	25.62	0.62	0.750			
0.1165	7453.55	4.1080	4.1080	0.7957	25.62	0.62	0.750			
0.1188	7601.41	4.1050	4.1046	0.7896	25.62	0.62	0.750			
0.1212	7754.86	4.1020	4.1020	0.7930	25.62	0.62	0.750			
0.1236	7909.09	4.0990	4.0991	0.7885	25.62	0.62	0.750			
0.1259	8060.56	4.0960	4.0961	0.7934	25.63	0.63	0.750			
0.1283	8213.77	4.0930	4.0930	0.7952	25.63	0.63	0.750			
0.1307	8363.51	4.0900	4.0899	0.7931	25.63	0.63	0.750			
0.1330	8514.69	4.0870	4.0871	0.7944	25.63	0.63	0.750			
0.1355	8671.06	4.0840	4.0840	0.7914	25.63	0.63	0.750			
0.1378	8821.88	4.0810	4.0810	0.8000	25.63	0.63	0.750			
0.1403	8976.29	4.0780	4.0781	0.8088	25.63	0.63	0.750			
0.1426	9128.83	4.0750	4.0751	0.8091	25.63	0.63	0.750			
0.1451	9286.37	4.0720	4.0721	0.8174	25.63	0.63	0.750			
0.1476	9448.96	4.0690	4.0690	0.8086	25.63	0.63	0.750			
0.1500	9603.13	4.0660	4.0661	0.8132	25.63	0.63	0.750			
0.1525	9759.72	4.0630	4.0631	0.8154	25.63	0.63	0.750			
0.1549	9913.43	4.0600	4.0601	0.8149	25.63	0.63	0.750			
0.1573	10068.03	4.0570	4.0568	0.8179	25.63	0.63	0.750			
0.1598	10228.00	4.0540	4.0541	0.8216	25.63	0.63	0.750			
0.1623	10387.67	4.0510	4.0511	0.8321	25.63	0.63	0.750			
0.1648	10549.53	4.0480	4.0480	0.8370	25.63	0.63	0.750			
0.1673	10709.20	4.0450	4.0451	0.8341	25.63	0.63	0.750			
0.1698	10869.67	4.0420	4.0419	0.8378	25.63	0.63	0.750			
0.1724	11035.68	4.0390	4.0390	0.8268	25.63	0.63	0.750			
0.1749	11193.62	4.0360	4.0360	0.8310	25.63	0.63	0.750			
0.1774	11352.32	4.0330	4.0331	0.8318	25.64	0.64	0.750			
0.1798	11509.01	4.0300	4.0302	0.8387	25.64	0.64	0.750			
0.1823	11668.47	4.0270	4.0269	0.8458	25.64	0.64	0.750			
0.1849	11833.16	4.0240	4.0241	0.8462	25.64	0.64	0.750			
0.1875	11998.56	4.0210	4.0211	0.8569	25.64	0.64	0.750			
0.1901	12165.78	4.0180	4.0181	0.8631	25.63	0.63	0.750			
0.1927	12331.31	4.0150	4.0149	0.8565	25.63	0.63	0.750			
0.1952	12494.80	4.0120	4.0120	0.8592	25.63	0.63	0.750			
0.1978	12659.61	4.0090	4.0091	0.8594	25.63	0.63	0.750			
0.2004	12824.98	4.0060	4.0060	0.8660	25.63	0.63	0.750			
0.2030	12993.39	4.0030	4.0030	0.8697	25.63	0.63	0.750			
0.2056	13159.62	4.0000	4.0000	0.8692	25.63	0.63	0.750			
0.2082	13326.60	3.9970	3.9970	0.8724	25.63	0.63	0.750			
0.2109	13494.60	3.9940	3.9940	0.8761	25.63	0.63	0.750			
0.2134	13659.72	3.9910	3.9910	0.8645	25.63	0.63	0.750			
0.2160	13823.68	3.9880	3.9882	0.8710	25.63	0.63	0.750			
0.2186	13990.23	3.9850	3.9850	0.8759	25.63	0.63	0.750			
0.2212	14159.80	3.9820	3.9821	0.8832	25.63	0.63	0.750			
0.2239	14329.89	3.9790	3.9792	0.8863	25.63	0.63	0.750			
0.2266	14501.97	3.9760	3.9763	0.8923	25.63	0.63	0.750			
0.2294	14680.49	3.9730	3.9728	0.9076	25.63	0.63	0.750			
0.2320	14845.50	3.9700	3.9701	0.8923	25.63	0.63	0.750			
0.2346	15017.28	3.9670	3.9670	0.8918	25.63	0.63	0.750			
0.2373	15189.60	3.9640	3.9641	0.8973	25.63	0.63	0.750			
0.2401	15364.98	3.9610	3.9611	0.9024	25.63	0.63	0.750			
0.2428	15536.71	3.9580	3.9580	0.8970	25.63	0.63	0.750			
0.2455	15710.34	3.9550	3.9550	0.8989	25.63	0.63	0.750			
0.2482	15884.94	3.9520	3.9519	0.8852	25.63	0.63	0.750			
0.2508	16051.50	3.9490	3.9491	0.8884	25.62	0.62	0.750			
0.2535	16221.12	3.9460	3.9461	0.8966	25.62	0.62	0.750			
0.2561	16391.63	3.9430	3.9428	0.8983	25.62	0.62	0.750			
0.2588	16566.39	3.9400	3.9401	0.9003	25.62	0.62	0.750			
0.2616	16739.58	3.9370	3.9371	0.9076	25.62	0.62	0.750			
0.2643	16915.91	3.9340	3.9341	0.9137	25.61	0.61	0.750			
0.2671	17096.28	3.9310	3.9310	0.9184	25.61	0.61	0.750			
0.2698	17267.76	3.9280	3.9281	0.9080	25.61	0.61	0.750			
0.2725	17442.64	3.9250	3.9251	0.9031	25.61	0.61	0.750			
0.2752	17615.33	3.9220	3.9220	0.9067	25.61	0.61	0.750			
0.2780	17789.01	3.9190	3.9190	0.9102	25.61	0.61	0.750			
0.2807	17961.62	3.9160	3.9159	0.9119	25.61	0.61	0.750			
0.2834	18138.03	3.9130	3.9130	0.9168	25.61	0.61	0.750			
0.2862	18317.11	3.9100	3.9100	0.9118	25.60	0.60	0.750			
0.2889	18490.82	3.9070	3.9071	0.9156	25.60	0.60	0.750			
0.2917	18668.30	3.9040	3.9042	0.9159	25.59	0.59	0.750			
0.2944	18841.41	3.9010	3.9011	0.9142	25.59	0.59	0.750			
0.2972	19019.14	3.8980	3.8980	0.9025	25.59	0.59	0.750			
0.2998	19190.17	3.8950	3.8951	0.9102	25.58	0.58	0.750			
0.3026	19366.41	3.8920	3.8920	0.9191	25.58	0.58	0.750			
0.3053	19541.11	3.8890	3.8891	0.9165	25.57	0.57	0.750			
0.3081	19718.26	3.8860	3.8860	0.9171	25.57	0.57	0.750			
0.3109	19897.12	3.8830	3.8831	0.9178	25.56	0.56	0.750			
0.3136	20071.95	3.8800	3.8802	0.9162	25.56	0.56	0.750			
0.3164	20250.31	3.8770	3.8770	0.9222	25.55	0.55	0.750			
0.3191	20422.64	3.8740	3.8738	0.9094	25.55	0.55	0.750			
0.3219	20598.80	3.8710	3.8710	0.9047	25.55	0.55	0.750			
0.3246	20771.41	3.8680	3.8681	0.9097	25.54	0.54	0.750			
0.3273	20948.10	3.8650	3.8650	0.9179	25.54	0.54	0.750			
0.3300	21122.90	3.8620	3.8621	0.9192	25.53	0.53	0.750			
0.3328	21299.47	3.8590	3.8591	0.9224	25.53	0.53	0.750			
0.3355	21474.20	3.8560	3.8560	0.9380	25.52	0.52	0.750			
0.3383	21652.32	3.8530	3.8532	0.9604	25.51	0.51	0.750			
0.3413	21841.56	3.8500	3.8499	0.9778	25.50	0.50	0.750			
0.3442	22031.34	3.8470	3.8465	0.9886	25.49	0.49	0.750			
0.3473	22227.52	3.8440	3.8445	0.9956	25.48	0.48	0.750			
0.3503	22420.97	3.8410	3.8412	0.9979	25.48	0.48	0.750			
0.3534	22616.44	3.8380	3.8375	0.9984	25.47	0.47	0.750	0.328	0.450	
0.3563	22805.98	3.8350	3.8347	0.9809	25.46	0.46	0.750			
0.3592	22986.63	3.8320	3.8321	0.9695	25.45	0.45	0.750			
0.3620	23170.39	3.8290	3.8291	0.9650	25.44	0.44	0.750			
0.3649	23353.39	3.8260	3.8261	0.9661	25.43	0.43	0.750			
0.3678	23539.12	3.8230	3.8231	0.9791	25.42	0.42	0.750			
0.3707	23725.30	3.8200	3.8202	0.9823	25.41	0.41	0.750			
0.3737	23915.21	3.8170	3.8172	0.9990	25.40	0.40	0.750			
0.3767	24111.32	3.8140	3.8140	1.0106	25.39	0.39	0.750			
0.3798	24310.24	3.8110	3.8110	1.0207	25.38	0.38	0.750			
0.3829	24502.79	3.8080	3.8080	1.0155	25.37	0.37	0.750			
0.3859	24697.44	3.8050	3.8050	1.0322	25.35	0.35	0.750			
0.3890	24897.10	3.8020	3.8020	1.0404	25.34	0.34	0.750			
0.3922	25097.66	3.7990	3.7990	1.0548	25.33	0.33	0.750			
0.3953	25301.23	3.7960	3.7960	1.0619	25.32	0.32	0.750			
0.3985	25507.04	3.7930	3.7931	1.0824	25.30	0.30	0.750			
0.4018	25715.96	3.7900	3.7900	1.1008	25.29	0.29	0.750			
0.4051	25928.41	3.7870	3.7869	1.1192	25.28	0.28	0.750			
0.4085	26144.04	3.7840	3.7841	1.1298	25.26	0.26	0.750			
0.4119	26364.30	3.7810	3.7810	1.1529	25.25	0.25	0.750			
0.4154	26586.27	3.7780	3.7780	1.1686	25.24	0.24	0.750			
0.4189	26812.42	3.7750	3.7749	1.1915	25.23	0.23	0.750			
0.4225	27041.72	3.7720	3.7720	1.2136	25.22	0.22	0.750			
0.4262	27276.10	3.7690	3.7690	1.2355	25.21	0.21	0.750			
0.4300	27521.28	3.7660	3.7660	1.2476	25.20	0.20	0.750			
0.4338	27760.49	3.7630	3.7630	1.2770	25.19	0.19	0.750			
0.4376	28004.32	3.7600	3.7601	1.3007	25.18	0.18	0.750			
0.4416	28259.26	3.7570	3.7571	1.3223	25.17	0.17	0.750			
0.4455	28512.48	3.7540	3.7539	1.3559	25.16	0.16	0.750			
0.4496	28775.00	3.7510	3.7511	1.3974	25.14	0.14	0.750			
0.4539	29050.08	3.7480	3.7482	1.4238	25.13	0.13	0.750			
0.4583	29330.13	3.7450	3.7450	1.4504	25.11	0.11	0.750			
0.4626	29607.36	3.7420	3.7421	1.4948	25.10	0.10	0.750			
0.4671	29897.11	3.7390	3.7391	1.5261	25.09	0.09	0.750			
0.4718	30195.72	3.7360	3.7359	1.5576	25.07	0.07	0.750			
0.4765	30496.93	3.7330	3.7333	1.5994	25.06	0.06	0.750			
0.4814	30808.79	3.7300	3.7299	1.6533	25.04	0.04	0.750			
0.4865	31135.06	3.7270	3.7270	1.7047	25.03	0.03	0.750			
0.4916	31465.24	3.7240	3.7242	1.7618	25.02	0.02	0.750			
0.4970	31805.62	3.7210	3.7212	1.8087	25.00	0.00	0.750			
0.5025	32159.70	3.7180	3.7180	1.8349	24.99	-0.01	0.750			
0.5081	32517.59	3.7150	3.7149	1.9128	24.98	-0.02	0.750			
0.5139	32889.60	3.7120	3.7119	1.9508	24.96	-0.04	0.750			
0.5198	33270.24	3.7090	3.7091	1.9911	24.95	-0.05	0.750			
0.5259	33655.24	3.7060	3.7064	2.0386	24.93	-0.07	0.750			
0.5321	34052.79	3.7030	3.7030	2.1165	24.92	-0.08	0.750			
0.5386	34467.79	3.7000	3.6999	2.1964	24.91	-0.09	0.750			
0.5451	34888.83	3.6970	3.6968	2.2781	24.90	-0.10	0.750			
0.5523	35348.07	3.6940	3.6941	2.3438	24.88	-0.12	0.750			
0.5593	35797.32	3.6910	3.6909	2.3752	24.87	-0.13	0.750			
0.5664	36251.04	3.6880	3.6880	2.4169	24.86	-0.14	0.750			
0.5738	36723.37	3.6850	3.6849	2.4836	24.85	-0.15	0.750			
0.5813	37206.24	3.6820	3.6822	2.5604	24.84	-0.16	0.750			
0.5893	37712.52	3.6790	3.6790	2.6211	24.83	-0.17	0.750			
0.5972	38222.66	3.6760	3.6762	2.5983	24.82	-0.18	0.750			
0.6052	38733.59	3.6730	3.6730	2.5790	24.82	-0.18	0.750			
0.6130	39228.95	3.6700	3.6698	2.4846	24.82	-0.18	0.750			
0.6201	39688.26	3.6670	3.6672	2.3499	24.82	-0.18	0.750			
0.6271	40132.13	3.6640	3.6642	2.1860	24.83	-0.17	0.750			
0.6334	40537.12	3.6610	3.6609	2.0089	24.84	-0.16	0.750			
0.6390	40898.60	3.6580	3.6578	1.8547	24.85	-0.15	0.750			
0.6443	41235.29	3.6550	3.6549	1.7121	24.85	-0.15	0.750			
0.6493	41552.22	3.6520	3.6523	1.5889	24.85	-0.15	0.750			
0.6538	41844.80	3.6490	3.6492	1.4634	24.86	-0.14	0.750			
0.6581	42116.69	3.6460	3.6461	1.3435	24.86	-0.14	0.750			
0.6619	42362.74	3.6430	3.6431	1.2573	24.87	-0.13	0.750			
0.6655	42592.35	3.6400	3.6400	1.1742	24.88	-0.12	0.750			
0.6687	42799.19	3.6370	3.6365	1.0985	24.89	-0.11	0.750			
0.6719	43003.32	3.6340	3.6342	1.0403	24.90	-0.10	0.750			
0.6750	43197.65	3.6310	3.6311	1.0067	24.90	-0.10	0.750			
0.6779	43387.15	3.6280	3.6280	0.9769	24.91	-0.09	0.750			
0.6808	43571.08	3.6250	3.6249	0.9243	24.92	-0.08	0.750			
0.6836	43747.62	3.6220	3.6220	0.8793	24.93	-0.07	0.750			
0.6861	43912.65	3.6190	3.6191	0.8493	24.93	-0.07	0.750			
0.6886	44070.79	3.6160	3.6164	0.8197	24.94	-0.06	0.750			
0.6910	44223.43	3.6130	3.6125	0.7761	24.95	-0.05	0.750			
0.6933	44371.89	3.6100	3.6103	0.7278	24.96	-0.04	0.750			
0.6955	44510.05	3.6070	3.6073	0.6830	24.96	-0.04	0.750			
0.6975	44642.84	3.6040	3.6041	0.6301	24.97	-0.03	0.750			
0.6993	44754.30	3.6010	3.6009	0.5478	24.98	-0.02	0.750			
0.7008	44853.26	3.5980	3.5979	0.4919	24.98	-0.02	0.750			
0.7022	44941.28	3.5950	3.5950	0.4387	24.99	-0.01	0.750			
0.7034	45020.70	3.5920	3.5920	0.3859	24.99	-0.01	0.750			
0.7045	45089.82	3.5890	3.5889	0.3389	24.99	-0.01	0.750			
0.7055	45149.37	3.5860	3.5860	0.2876	25.00	-0.00	0.750			
0.7063	45200.43	3.5830	3.5832	0.2402	25.00	-0.00	0.750			
0.7069	45241.65	3.5800	3.5803	0.1918	25.00	0.00	0.750			
0.7074	45274.23	3.5770	3.5774	0.1422	25.00	0.00	0.750			
0.7078	45296.80	3.5740	3.5747	0.0988	25.00	0.00	0.750			
