Ah_balance (normalized)	Ah_balance (mAh)	Voltage - fit (V)	Voltage -  interpolate (V)	dQ/dV (1/V)	Temperature (°C)	Temperature - diff (°C)	Current (C)	R_DC 0ms (mOhm)	R_DC 50ms (mOhm)	R_DC 50 ms PEC (mOhm)
0.0480	3072.22	4.1970	4.1970	0.7708	25.40	0.55	0.750			
0.0503	3219.27	4.1940	4.1940	0.7580	25.40	0.55	0.750			
0.0524	3356.08	4.1910	4.1912	0.7533	25.41	0.56	0.750			
0.0547	3501.45	4.1880	4.1882	0.7758	25.41	0.56	0.750			
0.0571	3652.82	4.1850	4.1845	0.7854	25.41	0.56	0.750			
0.0595	3806.01	4.1820	4.1818	0.7970	25.41	0.56	0.750			
0.0619	3963.62	4.1790	4.1793	0.7946	25.41	0.56	0.750			
0.0644	4122.00	4.1760	4.1761	0.8020	25.42	0.57	0.750			
0.0668	4274.75	4.1730	4.1730	0.7899	25.42	0.57	0.750			
0.0691	4423.96	4.1700	4.1696	0.7782	25.42	0.57	0.750			
0.0714	4568.32	4.1670	4.1670	0.7675	25.42	0.57	0.750			
0.0737	4717.02	4.1640	4.1641	0.7681	25.42	0.57	0.750			
0.0760	4864.72	4.1610	4.1610	0.7692	25.43	0.58	0.750			
0.0783	5012.36	4.1580	4.1580	0.7734	25.43	0.58	0.750			
0.0806	5157.86	4.1550	4.1550	0.7699	25.43	0.58	0.750			
0.0829	5307.39	4.1520	4.1520	0.7719	25.43	0.58	0.750			
0.0853	5456.66	4.1490	4.1490	0.7735	25.43	0.58	0.750			
0.0876	5605.38	4.1460	4.1461	0.7711	25.43	0.58	0.750			
0.0899	5753.37	4.1430	4.1430	0.7700	25.43	0.58	0.750			
0.0922	5899.95	4.1400	4.1400	0.7691	25.43	0.58	0.750			
0.0945	6046.89	4.1370	4.1368	0.7720	25.43	0.58	0.750			
0.0968	6193.80	4.1340	4.1341	0.7783	25.43	0.58	0.750			
0.0992	6345.77	4.1310	4.1310	0.7764	25.43	0.58	0.750			
0.1015	6495.86	4.1280	4.1280	0.7822	25.43	0.58	0.750			
0.1039	6646.40	4.1250	4.1250	0.7855	25.43	0.58	0.750			
0.1062	6796.23	4.1220	4.1220	0.7867	25.43	0.58	0.750			
0.1086	6947.40	4.1190	4.1191	0.7885	25.43	0.58	0.750			
0.1109	7098.33	4.1160	4.1160	0.7902	25.44	0.59	0.750			
0.1133	7250.19	4.1130	4.1130	0.7954	25.44	0.59	0.750			
0.1157	7405.87	4.1100	4.1100	0.8010	25.44	0.59	0.750			
0.1181	7558.40	4.1070	4.1070	0.7968	25.45	0.60	0.750			
0.1205	7711.50	4.1040	4.1040	0.7967	25.45	0.60	0.750			
0.1229	7866.54	4.1010	4.1011	0.7921	25.45	0.60	0.750			
0.1253	8017.71	4.0980	4.0979	0.7908	25.45	0.60	0.750			
0.1276	8166.91	4.0950	4.0951	0.7945	25.45	0.60	0.750			
0.1300	8319.14	4.0920	4.0921	0.7982	25.45	0.60	0.750			
0.1324	8473.32	4.0890	4.0888	0.8020	25.45	0.60	0.750			
0.1348	8627.87	4.0860	4.0861	0.8054	25.45	0.60	0.750			
0.1372	8783.02	4.0830	4.0831	0.8056	25.45	0.60	0.750			
0.1397	8937.74	4.0800	4.0800	0.8105	25.45	0.60	0.750			
0.1421	9092.29	4.0770	4.0770	0.8103	25.45	0.60	0.750			
0.1445	9248.63	4.0740	4.0738	0.8136	25.45	0.60	0.750			
0.1470	9406.29	4.0710	4.0710	0.8173	25.45	0.60	0.750			
0.1494	9563.73	4.0680	4.0681	0.8204	25.45	0.60	0.750			
0.1519	9721.86	4.0650	4.0651	0.8248	25.45	0.60	0.750			
0.1544	9879.93	4.0620	4.0619	0.8215	25.45	0.60	0.750			
0.1568	10038.15	4.0590	4.0589	0.8242	25.45	0.60	0.750			
0.1593	10196.03	4.0560	4.0561	0.8268	25.45	0.60	0.750			
0.1618	10355.78	4.0530	4.0530	0.8235	25.46	0.61	0.750			
0.1643	10513.31	4.0500	4.0500	0.8302	25.46	0.61	0.750			
0.1667	10671.19	4.0470	4.0471	0.8309	25.47	0.62	0.750			
0.1692	10831.87	4.0440	4.0438	0.8362	25.47	0.62	0.750			
0.1718	10994.06	4.0410	4.0410	0.8419	25.47	0.62	0.750			
0.1743	11155.27	4.0380	4.0381	0.8417	25.47	0.62	0.750			
0.1768	11318.29	4.0350	4.0351	0.8452	25.47	0.62	0.750			
0.1794	11479.79	4.0320	4.0320	0.8455	25.47	0.62	0.750			
0.1819	11640.98	4.0290	4.0283	0.8499	25.47	0.62	0.750			
0.1845	11805.30	4.0260	4.0262	0.8544	25.47	0.62	0.750			
0.1870	11970.08	4.0230	4.0230	0.8588	25.47	0.62	0.750			
0.1897	12137.74	4.0200	4.0200	0.8643	25.48	0.63	0.750			
0.1923	12304.15	4.0170	4.0170	0.8667	25.48	0.63	0.750			
0.1948	12469.01	4.0140	4.0139	0.8658	25.48	0.63	0.750			
0.1974	12636.57	4.0110	4.0110	0.8597	25.48	0.63	0.750			
0.2000	12799.41	4.0080	4.0080	0.8643	25.48	0.63	0.750			
0.2026	12965.92	4.0050	4.0051	0.8692	25.49	0.64	0.750			
0.2052	13133.22	4.0020	4.0021	0.8725	25.49	0.64	0.750			
0.2078	13300.41	3.9990	3.9990	0.8755	25.49	0.64	0.750			
0.2105	13469.91	3.9960	3.9961	0.8727	25.50	0.65	0.750			
0.2131	13637.61	3.9930	3.9930	0.8793	25.50	0.65	0.750			
0.2157	13807.13	3.9900	3.9900	0.8823	25.50	0.65	0.750			
0.2183	13973.41	3.9870	3.9871	0.8806	25.51	0.66	0.750			
0.2210	14144.89	3.9840	3.9840	0.8886	25.51	0.66	0.750			
0.2237	14317.48	3.9810	3.9810	0.8910	25.51	0.66	0.750			
0.2264	14489.28	3.9780	3.9780	0.8930	25.51	0.66	0.750			
0.2291	14662.44	3.9750	3.9750	0.8996	25.51	0.66	0.750			
0.2318	14832.85	3.9720	3.9719	0.8949	25.51	0.66	0.750			
0.2345	15005.35	3.9690	3.9689	0.8941	25.51	0.66	0.750			
0.2371	15175.92	3.9660	3.9661	0.8980	25.51	0.66	0.750			
0.2398	15349.53	3.9630	3.9630	0.9027	25.51	0.66	0.750			
0.2425	15522.85	3.9600	3.9600	0.9049	25.51	0.66	0.750			
0.2453	15696.88	3.9570	3.9570	0.9042	25.51	0.66	0.750			
0.2480	15872.46	3.9540	3.9540	0.8936	25.51	0.66	0.750			
0.2507	16043.23	3.9510	3.9510	0.9020	25.52	0.67	0.750			
0.2534	16215.19	3.9480	3.9481	0.9071	25.52	0.67	0.750			
0.2561	16387.24	3.9450	3.9449	0.9091	25.52	0.67	0.750			
0.2588	16563.19	3.9420	3.9421	0.9174	25.52	0.67	0.750			
0.2616	16741.00	3.9390	3.9390	0.9211	25.52	0.67	0.750			
0.2644	16920.38	3.9360	3.9360	0.9231	25.53	0.68	0.750			
0.2672	17101.36	3.9330	3.9330	0.9259	25.53	0.68	0.750			
0.2699	17274.75	3.9300	3.9300	0.9197	25.53	0.68	0.750			
0.2727	17452.29	3.9270	3.9270	0.9182	25.53	0.68	0.750			
0.2754	17627.20	3.9240	3.9240	0.9189	25.53	0.68	0.750			
0.2782	17803.35	3.9210	3.9211	0.9227	25.53	0.68	0.750			
0.2810	17981.64	3.9180	3.9179	0.9256	25.53	0.68	0.750			
0.2837	18158.77	3.9150	3.9150	0.9267	25.53	0.68	0.750			
0.2865	18337.42	3.9120	3.9120	0.9170	25.53	0.68	0.750			
0.2892	18511.66	3.9090	3.9090	0.9216	25.52	0.67	0.750			
0.2920	18689.32	3.9060	3.9061	0.9256	25.52	0.67	0.750			
0.2948	18866.53	3.9030	3.9027	0.9288	25.52	0.67	0.750			
0.2976	19045.05	3.9000	3.9001	0.9276	25.52	0.67	0.750			
0.3004	19224.82	3.8970	3.8970	0.9267	25.52	0.67	0.750			
0.3032	19404.07	3.8940	3.8942	0.9295	25.51	0.66	0.750			
0.3059	19580.65	3.8910	3.8909	0.9227	25.51	0.66	0.750			
0.3087	19758.64	3.8880	3.8880	0.9224	25.51	0.66	0.750			
0.3115	19934.20	3.8850	3.8850	0.9262	25.50	0.65	0.750			
0.3142	20111.67	3.8820	3.8820	0.9311	25.49	0.64	0.750			
0.3171	20293.34	3.8790	3.8791	0.9381	25.49	0.64	0.750			
0.3199	20473.81	3.8760	3.8758	0.9402	25.48	0.63	0.750			
0.3227	20655.81	3.8730	3.8729	0.9306	25.47	0.62	0.750			
0.3255	20831.48	3.8700	3.8701	0.9422	25.47	0.62	0.750			
0.3283	21013.17	3.8670	3.8671	0.9486	25.47	0.62	0.750			
0.3312	21195.84	3.8640	3.8638	0.9495	25.46	0.61	0.750			
0.3341	21379.62	3.8610	3.8611	0.9557	25.45	0.60	0.750			
0.3369	21564.37	3.8580	3.8582	0.9599	25.45	0.60	0.750			
0.3398	21749.44	3.8550	3.8550	0.9644	25.44	0.59	0.750			
0.3427	21935.22	3.8520	3.8520	0.9598	25.43	0.58	0.750			
0.3456	22120.10	3.8490	3.8490	0.9603	25.42	0.57	0.750			
0.3485	22307.01	3.8460	3.8460	0.9512	25.41	0.56	0.750			
0.3513	22484.15	3.8430	3.8432	0.9571	25.40	0.55	0.750			
0.3541	22665.42	3.8400	3.8401	0.9621	25.39	0.54	0.750			
0.3570	22850.75	3.8370	3.8365	0.9728	25.38	0.53	0.750			
0.3600	23039.23	3.8340	3.8337	0.9687	25.37	0.52	0.750	0.331	0.439	
0.3629	23226.89	3.8310	3.8312	0.9837	25.37	0.52	0.750			
0.3659	23420.63	3.8280	3.8282	0.9981	25.36	0.51	0.750			
0.3689	23611.96	3.8250	3.8244	0.9927	25.35	0.50	0.750			
0.3719	23800.40	3.8220	3.8222	0.9928	25.34	0.49	0.750			
0.3749	23992.85	3.8190	3.8190	1.0003	25.33	0.48	0.750			
0.3779	24186.21	3.8160	3.8160	1.0066	25.32	0.47	0.750			
0.3810	24382.97	3.8130	3.8129	1.0200	25.31	0.46	0.750			
0.3840	24577.63	3.8100	3.8101	1.0092	25.30	0.45	0.750			
0.3870	24769.92	3.8070	3.8069	1.0162	25.29	0.44	0.750			
0.3901	24965.45	3.8040	3.8041	1.0257	25.28	0.43	0.750			
0.3932	25161.85	3.8010	3.8010	1.0320	25.27	0.42	0.750			
0.3963	25360.17	3.7980	3.7981	1.0478	25.26	0.41	0.750			
0.3993	25558.12	3.7950	3.7951	1.0502	25.25	0.40	0.750			
0.4025	25758.30	3.7920	3.7921	1.0744	25.24	0.39	0.750			
0.4057	25966.74	3.7890	3.7892	1.1065	25.22	0.37	0.750			
0.4091	26180.36	3.7860	3.7862	1.1283	25.21	0.36	0.750			
0.4125	26401.31	3.7830	3.7831	1.1581	25.20	0.35	0.750			
0.4161	26630.56	3.7800	3.7801	1.1849	25.19	0.34	0.750			
0.4198	26865.68	3.7770	3.7769	1.2086	25.18	0.33	0.750			
0.4233	27089.61	3.7740	3.7740	1.2011	25.17	0.32	0.750			
0.4269	27319.29	3.7710	3.7711	1.2245	25.16	0.31	0.750			
0.4307	27561.90	3.7680	3.7679	1.2297	25.14	0.29	0.750			
0.4343	27797.73	3.7650	3.7651	1.2662	25.13	0.28	0.750			
0.4381	28040.97	3.7620	3.7622	1.2998	25.12	0.27	0.750			
0.4421	28294.66	3.7590	3.7591	1.3304	25.11	0.26	0.750			
0.4462	28555.89	3.7560	3.7561	1.3767	25.09	0.24	0.750			
0.4503	28818.22	3.7530	3.7532	1.3901	25.08	0.23	0.750			
0.4546	29093.12	3.7500	3.7500	1.4160	25.06	0.21	0.750			
0.4590	29379.18	3.7470	3.7470	1.4111	25.04	0.19	0.750			
0.4633	29653.04	3.7440	3.7439	1.4130	25.03	0.18	0.750			
0.4675	29922.17	3.7410	3.7411	1.4388	25.02	0.17	0.750			
0.4717	30189.64	3.7380	3.7385	1.5028	25.01	0.16	0.750			
0.4762	30479.22	3.7350	3.7354	1.5391	25.00	0.15	0.750			
0.4809	30779.67	3.7320	3.7324	1.6052	24.98	0.13	0.750			
0.4858	31093.81	3.7290	3.7292	1.6773	24.97	0.12	0.750			
0.4912	31437.35	3.7260	3.7252	1.7360	24.95	0.10	0.750			
0.4965	31772.95	3.7230	3.7224	1.7840	24.93	0.08	0.750			
0.5019	32121.98	3.7200	3.7197	1.8244	24.92	0.07	0.750			
0.5075	32478.07	3.7170	3.7174	1.8631	24.90	0.05	0.750			
0.5133	32850.23	3.7140	3.7141	1.9256	24.88	0.03	0.750			
0.5190	33218.69	3.7110	3.7106	1.9824	24.86	0.01	0.750			
0.5251	33605.08	3.7080	3.7079	2.0670	24.85	0.00	0.750			
0.5312	33999.78	3.7050	3.7052	2.1107	24.84	-0.01	0.750			
0.5376	34407.80	3.7020	3.7020	2.1939	24.83	-0.02	0.750			
0.5443	34832.89	3.6990	3.6990	2.1946	24.81	-0.04	0.750			
0.5510	35263.27	3.6960	3.6958	2.2335	24.79	-0.06	0.750			
0.5579	35702.47	3.6930	3.6930	2.2787	24.78	-0.07	0.750			
0.5649	36152.44	3.6900	3.6901	2.3660	24.77	-0.08	0.750			
0.5721	36613.18	3.6870	3.6871	2.5472	24.76	-0.09	0.750			
0.5798	37104.74	3.6840	3.6843	2.5403	24.74	-0.11	0.750			
0.5876	37604.67	3.6810	3.6809	2.6312	24.74	-0.11	0.750			
0.5958	38130.37	3.6780	3.6781	2.7078	24.74	-0.11	0.750			
0.6041	38661.87	3.6750	3.6746	2.6840	24.72	-0.13	0.750			
0.6123	39189.78	3.6720	3.6718	2.7537	24.72	-0.13	0.750			
0.6204	39705.18	3.6690	3.6693	2.6416	24.72	-0.13	0.750			
0.6283	40212.27	3.6660	3.6660	2.4961	24.72	-0.13	0.750			
0.6357	40687.77	3.6630	3.6628	2.3752	24.73	-0.12	0.750			
0.6429	41146.44	3.6600	3.6598	2.2327	24.74	-0.11	0.750			
0.6491	41544.69	3.6570	3.6575	2.0242	24.74	-0.11	0.750			
0.6549	41912.41	3.6540	3.6543	1.8433	24.75	-0.10	0.750			
0.6600	42242.19	3.6510	3.6513	1.6809	24.76	-0.09	0.750			
0.6649	42551.93	3.6480	3.6483	1.5436	24.76	-0.09	0.750			
0.6693	42832.83	3.6450	3.6443	1.4085	24.77	-0.08	0.750			
0.6733	43093.88	3.6420	3.6421	1.3044	24.77	-0.08	0.750			
0.6770	43326.75	3.6390	3.6391	1.2073	24.78	-0.07	0.750			
0.6803	43537.47	3.6360	3.6360	1.1070	24.78	-0.07	0.750			
0.6835	43746.75	3.6330	3.6330	1.0597	24.79	-0.06	0.750			
0.6864	43929.98	3.6300	3.6300	0.9888	24.79	-0.06	0.750			
0.6893	44114.75	3.6270	3.6271	0.9615	24.80	-0.05	0.750			
0.6921	44296.88	3.6240	3.6240	0.9358	24.81	-0.04	0.750			
0.6949	44473.99	3.6210	3.6210	0.9068	24.82	-0.03	0.750			
0.6976	44646.49	3.6180	3.6180	0.8724	24.83	-0.02	0.750			
0.7002	44814.92	3.6150	3.6150	0.8299	24.83	-0.02	0.750			
0.7027	44970.60	3.6120	3.6121	0.7799	24.84	-0.01	0.750			
0.7050	45117.28	3.6090	3.6091	0.7205	24.85	-0.00	0.750			
0.7070	45249.67	3.6060	3.6057	0.6585	24.85	0.00	0.750			
0.7089	45370.04	3.6030	3.6031	0.5940	24.85	0.00	0.750			
0.7106	45477.37	3.6000	3.6001	0.5325	24.86	0.01	0.750			
0.7121	45574.29	3.5970	3.5970	0.4760	24.86	0.01	0.750			
0.7134	45659.19	3.5940	3.5939	0.4194	24.87	0.02	0.750			
0.7146	45731.27	3.5910	3.5910	0.3577	24.87	0.02	0.750			
0.7155	45794.90	3.5880	3.5880	0.3068	24.87	0.02	0.750			
0.7164	45848.26	3.5850	3.5850	0.2549	24.87	0.02	0.750			
0.7171	45892.73	3.5820	3.5823	0.2045	24.87	0.02	0.750			
0.7176	45926.34	3.5790	3.5796	0.1570	24.88	0.03	0.750			
0.7180	45951.94	3.5760	3.5766	0.1078	24.88	0.03	0.750			
