Ah_balance (normalized)	Ah_balance (mAh)	Voltage - fit (V)	Voltage -  interpolate (V)	dQ/dV (1/V)	Temperature (°C)	Temperature - diff (°C)	Current (C)	R_DC 0ms (mOhm)	R_DC 50ms (mOhm)	R_DC 50 ms PEC (mOhm)
0.0002	11.43	4.1640	4.1638	-0.1041	25.22	0.01	-0.750			
0.0006	37.35	4.1610	4.1610	-0.1570	25.22	0.01	-0.750			
0.0011	72.52	4.1580	4.1577	-0.1985	25.21	0.00	-0.750			
0.0018	114.88	4.1550	4.1549	-0.2352	25.21	0.00	-0.750			
0.0025	163.16	4.1520	4.1521	-0.2734	25.21	0.00	-0.750			
0.0034	218.78	4.1490	4.1491	-0.3171	25.21	-0.00	-0.750			
0.0044	283.00	4.1460	4.1456	-0.3585	25.21	-0.00	-0.750			
0.0056	355.85	4.1430	4.1429	-0.3966	25.20	-0.01	-0.750			
0.0068	436.89	4.1400	4.1400	-0.4307	25.20	-0.01	-0.750			
0.0082	524.46	4.1370	4.1371	-0.4671	25.20	-0.01	-0.750			
0.0097	619.26	4.1340	4.1340	-0.4997	25.19	-0.02	-0.750			
0.0112	719.69	4.1310	4.1309	-0.5259	25.19	-0.02	-0.750			
0.0129	823.66	4.1280	4.1280	-0.5451	25.19	-0.02	-0.750			
0.0145	930.98	4.1250	4.1251	-0.5671	25.18	-0.03	-0.750			
0.0163	1042.40	4.1220	4.1219	-0.5850	25.18	-0.03	-0.750			
0.0181	1156.57	4.1190	4.1190	-0.6047	25.18	-0.03	-0.750			
0.0199	1272.78	4.1160	4.1159	-0.6171	25.17	-0.04	-0.750			
0.0218	1392.90	4.1130	4.1130	-0.6340	25.17	-0.04	-0.750			
0.0238	1520.19	4.1100	4.1100	-0.6475	25.17	-0.04	-0.750			
0.0257	1645.39	4.1070	4.1070	-0.6581	25.16	-0.05	-0.750			
0.0277	1774.25	4.1040	4.1045	-0.6580	25.16	-0.05	-0.750			
0.0297	1900.06	4.1010	4.1010	-0.6664	25.16	-0.05	-0.750			
0.0317	2027.62	4.0980	4.0979	-0.6728	25.15	-0.06	-0.750			
0.0337	2156.41	4.0950	4.0950	-0.6844	25.15	-0.06	-0.750			
0.0358	2290.01	4.0920	4.0918	-0.6936	25.15	-0.06	-0.750			
0.0379	2425.86	4.0890	4.0891	-0.6962	25.14	-0.07	-0.750			
0.0400	2560.31	4.0860	4.0861	-0.7046	25.14	-0.07	-0.750			
0.0421	2697.57	4.0830	4.0831	-0.7136	25.14	-0.07	-0.750			
0.0442	2831.92	4.0800	4.0799	-0.7128	25.14	-0.07	-0.750			
0.0464	2970.19	4.0770	4.0769	-0.7247	25.14	-0.07	-0.750			
0.0486	3112.26	4.0740	4.0740	-0.7276	25.14	-0.07	-0.750			
0.0508	3253.36	4.0710	4.0709	-0.7280	25.14	-0.07	-0.750			
0.0530	3394.58	4.0680	4.0682	-0.7303	25.14	-0.07	-0.750			
0.0552	3532.33	4.0650	4.0651	-0.7274	25.14	-0.07	-0.750			
0.0574	3670.50	4.0620	4.0619	-0.7402	25.14	-0.07	-0.750			
0.0596	3813.08	4.0590	4.0590	-0.7393	25.14	-0.07	-0.750			
0.0618	3957.46	4.0560	4.0559	-0.7472	25.14	-0.07	-0.750			
0.0641	4102.95	4.0530	4.0530	-0.7465	25.14	-0.07	-0.750			
0.0664	4248.59	4.0500	4.0499	-0.7457	25.14	-0.07	-0.750			
0.0686	4389.73	4.0470	4.0469	-0.7481	25.15	-0.06	-0.750			
0.0708	4531.27	4.0440	4.0441	-0.7430	25.15	-0.06	-0.750			
0.0730	4671.58	4.0410	4.0409	-0.7471	25.15	-0.06	-0.750			
0.0753	4819.38	4.0380	4.0381	-0.7550	25.16	-0.05	-0.750			
0.0776	4965.51	4.0350	4.0349	-0.7529	25.16	-0.05	-0.750			
0.0798	5109.96	4.0320	4.0320	-0.7571	25.16	-0.05	-0.750			
0.0821	5255.04	4.0290	4.0292	-0.7632	25.16	-0.05	-0.750			
0.0844	5400.99	4.0260	4.0259	-0.7637	25.16	-0.05	-0.750			
0.0867	5549.75	4.0230	4.0230	-0.7664	25.16	-0.05	-0.750			
0.0890	5696.36	4.0200	4.0200	-0.7653	25.16	-0.05	-0.750			
0.0913	5844.06	4.0170	4.0171	-0.7722	25.16	-0.05	-0.750			
0.0936	5993.25	4.0140	4.0140	-0.7753	25.16	-0.05	-0.750			
0.0959	6140.43	4.0110	4.0110	-0.7740	25.16	-0.05	-0.750			
0.0983	6289.54	4.0080	4.0080	-0.7698	25.17	-0.04	-0.750			
0.1006	6438.80	4.0050	4.0048	-0.7738	25.17	-0.04	-0.750			
0.1029	6587.63	4.0020	4.0024	-0.7758	25.17	-0.04	-0.750			
0.1052	6735.54	3.9990	3.9990	-0.7764	25.17	-0.04	-0.750			
0.1076	6883.75	3.9960	3.9959	-0.7782	25.17	-0.04	-0.750			
0.1099	7034.52	3.9930	3.9929	-0.7837	25.18	-0.03	-0.750			
0.1123	7184.50	3.9900	3.9900	-0.7868	25.18	-0.03	-0.750			
0.1146	7336.41	3.9870	3.9871	-0.7930	25.18	-0.03	-0.750			
0.1170	7489.31	3.9840	3.9840	-0.7875	25.18	-0.03	-0.750			
0.1194	7639.25	3.9810	3.9809	-0.7946	25.19	-0.02	-0.750			
0.1217	7791.05	3.9780	3.9781	-0.7939	25.19	-0.02	-0.750			
0.1241	7944.05	3.9750	3.9746	-0.7966	25.19	-0.02	-0.750			
0.1266	8099.90	3.9720	3.9721	-0.7928	25.20	-0.01	-0.750			
0.1289	8251.61	3.9690	3.9690	-0.7927	25.20	-0.01	-0.750			
0.1313	8400.80	3.9660	3.9661	-0.8024	25.21	-0.00	-0.750			
0.1337	8556.98	3.9630	3.9629	-0.8090	25.21	-0.00	-0.750			
0.1361	8708.22	3.9600	3.9599	-0.8047	25.21	0.00	-0.750			
0.1386	8867.22	3.9570	3.9568	-0.8094	25.22	0.01	-0.750			
0.1410	9025.35	3.9540	3.9541	-0.8107	25.22	0.01	-0.750			
0.1434	9180.28	3.9510	3.9511	-0.8163	25.22	0.01	-0.750			
0.1459	9335.62	3.9480	3.9480	-0.8086	25.22	0.01	-0.750			
0.1482	9487.16	3.9450	3.9449	-0.8029	25.22	0.01	-0.750			
0.1507	9644.94	3.9420	3.9420	-0.8112	25.22	0.01	-0.750			
0.1531	9800.37	3.9390	3.9392	-0.8182	25.22	0.01	-0.750			
0.1556	9958.58	3.9360	3.9359	-0.8203	25.23	0.02	-0.750			
0.1581	10118.90	3.9330	3.9330	-0.8202	25.23	0.02	-0.750			
0.1605	10274.79	3.9300	3.9301	-0.8165	25.24	0.03	-0.750			
0.1630	10433.44	3.9270	3.9270	-0.8194	25.24	0.03	-0.750			
0.1655	10589.70	3.9240	3.9242	-0.8161	25.25	0.04	-0.750			
0.1679	10744.85	3.9210	3.9209	-0.8144	25.25	0.04	-0.750			
0.1703	10899.53	3.9180	3.9181	-0.8243	25.26	0.05	-0.750			
0.1728	11060.40	3.9150	3.9150	-0.8255	25.26	0.05	-0.750			
0.1754	11222.61	3.9120	3.9118	-0.8325	25.27	0.06	-0.750			
0.1778	11381.19	3.9090	3.9095	-0.8261	25.27	0.06	-0.750			
0.1803	11539.49	3.9060	3.9059	-0.8261	25.27	0.06	-0.750			
0.1828	11696.61	3.9030	3.9030	-0.8359	25.27	0.06	-0.750			
0.1853	11856.20	3.9000	3.9000	-0.8325	25.28	0.07	-0.750			
0.1878	12019.50	3.8970	3.8968	-0.8406	25.28	0.07	-0.750			
0.1903	12181.81	3.8940	3.8943	-0.8371	25.28	0.07	-0.750			
0.1929	12343.66	3.8910	3.8910	-0.8349	25.28	0.07	-0.750			
0.1954	12503.15	3.8880	3.8879	-0.8369	25.28	0.07	-0.750			
0.1978	12661.39	3.8850	3.8850	-0.8289	25.29	0.08	-0.750			
0.2003	12820.85	3.8820	3.8819	-0.8307	25.29	0.08	-0.750			
0.2029	12986.00	3.8790	3.8792	-0.8108	25.29	0.08	-0.750			
0.2054	13146.89	3.8760	3.8757	-0.7834	25.29	0.08	-0.750			
0.2077	13291.94	3.8730	3.8732	-0.7628	25.29	0.08	-0.750			
0.2098	13430.11	3.8700	3.8705	-0.7464	25.30	0.09	-0.750			
0.2120	13568.33	3.8670	3.8664	-0.7466	25.30	0.09	-0.750			
0.2142	13707.78	3.8640	3.8637	-0.7592	25.30	0.09	-0.750			
0.2164	13850.45	3.8610	3.8609	-0.7701	25.30	0.09	-0.750			
0.2188	14003.34	3.8580	3.8583	-0.8032	25.31	0.10	-0.750			
0.2214	14169.28	3.8550	3.8548	-0.8223	25.31	0.10	-0.750			
0.2238	14323.24	3.8520	3.8519	-0.8168	25.31	0.10	-0.750			
0.2263	14484.46	3.8490	3.8490	-0.8233	25.32	0.11	-0.750			
0.2288	14644.31	3.8460	3.8460	-0.8222	25.32	0.11	-0.750			
0.2313	14800.10	3.8430	3.8430	-0.8258	25.32	0.11	-0.750			
0.2338	14961.39	3.8400	3.8400	-0.8204	25.32	0.11	-0.750			
0.2362	15118.11	3.8370	3.8369	-0.8088	25.32	0.11	-0.750			
0.2387	15274.60	3.8340	3.8339	-0.8020	25.32	0.11	-0.750			
0.2411	15427.70	3.8310	3.8310	-0.7927	25.32	0.11	-0.750			
0.2434	15576.63	3.8280	3.8280	-0.7960	25.33	0.12	-0.750			
0.2457	15727.96	3.8250	3.8250	-0.7874	25.33	0.12	-0.750			
0.2481	15877.43	3.8220	3.8219	-0.7740	25.34	0.13	-0.750			
0.2505	16029.44	3.8190	3.8189	-0.7839	25.34	0.13	-0.750			
0.2528	16180.21	3.8160	3.8169	-0.7824	25.35	0.14	-0.750			
0.2551	16328.79	3.8130	3.8130	-0.7785	25.35	0.14	-0.750			
0.2575	16477.62	3.8100	3.8100	-0.7777	25.35	0.14	-0.750			
0.2598	16626.45	3.8070	3.8070	-0.7749	25.35	0.14	-0.750			
0.2622	16777.60	3.8040	3.8039	-0.7783	25.35	0.14	-0.750			
0.2645	16928.40	3.8010	3.8010	-0.7753	25.35	0.14	-0.750			
0.2668	17073.94	3.7980	3.7979	-0.7681	25.35	0.14	-0.750			
0.2691	17220.86	3.7950	3.7950	-0.7694	25.36	0.15	-0.750			
0.2714	17367.86	3.7920	3.7919	-0.7682	25.36	0.15	-0.750			
0.2737	17513.87	3.7890	3.7890	-0.7654	25.36	0.15	-0.750			
0.2760	17663.38	3.7860	3.7859	-0.7709	25.37	0.16	-0.750			
0.2783	17811.42	3.7830	3.7832	-0.7695	25.37	0.16	-0.750			
0.2806	17956.77	3.7800	3.7801	-0.7819	25.37	0.16	-0.750			
0.2830	18109.61	3.7770	3.7770	-0.7773	25.37	0.16	-0.750			
0.2853	18260.60	3.7740	3.7738	-0.7755	25.37	0.16	-0.750			
0.2877	18410.26	3.7710	3.7710	-0.7766	25.37	0.16	-0.750			
0.2900	18558.76	3.7680	3.7687	-0.7789	25.37	0.16	-0.750			
0.2923	18706.27	3.7650	3.7649	-0.7820	25.37	0.16	-0.750			
0.2946	18854.49	3.7620	3.7619	-0.7959	25.37	0.16	-0.750			
0.2970	19007.55	3.7590	3.7589	-0.8062	25.38	0.17	-0.750			
0.2995	19167.43	3.7560	3.7559	-0.8280	25.38	0.17	-0.750			
0.3020	19328.56	3.7530	3.7528	-0.8358	25.38	0.17	-0.750			
0.3045	19490.57	3.7500	3.7499	-0.8425	25.38	0.17	-0.750			
0.3071	19653.78	3.7470	3.7470	-0.8505	25.38	0.17	-0.750			
0.3096	19815.41	3.7440	3.7440	-0.8523	25.38	0.17	-0.750			
0.3122	19980.44	3.7410	3.7410	-0.8611	25.38	0.17	-0.750			
0.3148	20145.66	3.7380	3.7382	-0.8623	25.38	0.17	-0.750			
0.3173	20307.33	3.7350	3.7350	-0.8834	25.38	0.17	-0.750			
0.3200	20478.82	3.7320	3.7316	-0.8907	25.38	0.17	-0.750			
0.3227	20650.79	3.7290	3.7290	-0.9036	25.37	0.16	-0.750			
0.3254	20826.70	3.7260	3.7260	-0.9099	25.37	0.16	-0.750			
0.3282	21006.20	3.7230	3.7233	-0.9278	25.37	0.16	-0.750			
0.3310	21185.99	3.7200	3.7199	-0.9397	25.37	0.16	-0.750			
0.3338	21363.65	3.7170	3.7169	-0.9442	25.37	0.16	-0.750			
0.3366	21543.49	3.7140	3.7139	-0.9419	25.37	0.16	-0.750			
0.3395	21729.08	3.7110	3.7110	-0.9616	25.37	0.16	-0.750			
0.3424	21912.70	3.7080	3.7080	-0.9974	25.37	0.16	-0.750			
0.3454	22108.70	3.7050	3.7048	-1.0169	25.36	0.15	-0.750			
0.3486	22308.45	3.7020	3.7016	-1.0229	25.36	0.15	-0.750			
0.3517	22508.04	3.6990	3.6989	-1.0297	25.35	0.14	-0.750			
0.3548	22708.90	3.6960	3.6958	-1.0564	25.35	0.14	-0.750	0.362	0.506	
0.3580	22912.98	3.6930	3.6929	-1.0606	25.35	0.14	-0.750			
0.3611	23110.30	3.6900	3.6898	-1.0592	25.34	0.13	-0.750			
0.3643	23314.13	3.6870	3.6868	-1.0905	25.34	0.13	-0.750			
0.3676	23525.77	3.6840	3.6838	-1.1057	25.34	0.13	-0.750			
0.3709	23739.33	3.6810	3.6810	-1.1249	25.33	0.12	-0.750			
0.3743	23956.72	3.6780	3.6780	-1.1374	25.33	0.12	-0.750			
0.3778	24177.62	3.6750	3.6752	-1.1672	25.32	0.11	-0.750			
0.3813	24405.33	3.6720	3.6719	-1.1862	25.31	0.10	-0.750			
0.3849	24632.13	3.6690	3.6690	-1.2003	25.31	0.10	-0.750			
0.3884	24860.08	3.6660	3.6658	-1.2411	25.30	0.09	-0.750			
0.3923	25104.23	3.6630	3.6629	-1.2533	25.29	0.08	-0.750			
0.3961	25347.94	3.6600	3.6599	-1.2680	25.29	0.08	-0.750			
0.3999	25594.07	3.6570	3.6569	-1.2869	25.28	0.07	-0.750			
0.4038	25844.18	3.6540	3.6537	-1.3252	25.27	0.06	-0.750			
0.4078	26098.58	3.6510	3.6509	-1.3318	25.26	0.05	-0.750			
0.4118	26354.14	3.6480	3.6478	-1.3486	25.26	0.05	-0.750			
0.4158	26614.13	3.6450	3.6453	-1.3697	25.25	0.04	-0.750			
0.4201	26888.24	3.6420	3.6419	-1.4010	25.24	0.03	-0.750			
0.4243	27157.66	3.6390	3.6389	-1.4572	25.23	0.02	-0.750			
0.4288	27444.99	3.6360	3.6360	-1.4861	25.22	0.01	-0.750			
0.4334	27740.48	3.6330	3.6325	-1.5249	25.21	0.00	-0.750			
0.4381	28039.42	3.6300	3.6301	-1.5384	25.20	-0.01	-0.750			
0.4428	28338.70	3.6270	3.6271	-1.5350	25.20	-0.01	-0.750			
0.4475	28637.59	3.6240	3.6241	-1.5681	25.19	-0.02	-0.750			
0.4521	28931.35	3.6210	3.6209	-1.6139	25.18	-0.03	-0.750			
0.4566	29223.37	3.6180	3.6179	-1.6454	25.18	-0.03	-0.750			
0.4618	29557.26	3.6150	3.6154	-1.6646	25.17	-0.04	-0.750			
0.4670	29885.64	3.6120	3.6118	-1.7190	25.17	-0.04	-0.750			
0.4723	30230.18	3.6090	3.6085	-1.7462	25.15	-0.06	-0.750			
0.4777	30571.31	3.6060	3.6066	-1.7426	25.14	-0.07	-0.750			
0.4827	30894.58	3.6030	3.6031	-1.7641	25.14	-0.07	-0.750			
0.4880	31230.44	3.6000	3.6001	-1.7813	25.14	-0.07	-0.750			
0.4934	31574.71	3.5970	3.5967	-1.8903	25.13	-0.08	-0.750			
0.4990	31937.08	3.5940	3.5944	-1.9651	25.13	-0.08	-0.750			
0.5049	32313.06	3.5910	3.5905	-1.9812	25.12	-0.09	-0.750			
0.5112	32718.04	3.5880	3.5876	-2.0019	25.11	-0.10	-0.750			
0.5173	33109.48	3.5850	3.5848	-2.0563	25.11	-0.10	-0.750			
0.5235	33503.25	3.5820	3.5826	-2.0537	25.10	-0.11	-0.750			
0.5294	33882.27	3.5790	3.5791	-2.1066	25.10	-0.11	-0.750			
0.5358	34293.20	3.5760	3.5761	-2.1064	25.09	-0.12	-0.750			
0.5422	34697.63	3.5730	3.5727	-2.1134	25.09	-0.12	-0.750			
0.5488	35123.64	3.5700	3.5707	-2.1313	25.09	-0.12	-0.750			
0.5552	35535.02	3.5670	3.5667	-2.1203	25.09	-0.12	-0.750			
0.5617	35945.76	3.5640	3.5640	-2.1526	25.08	-0.13	-0.750			
0.5681	36360.28	3.5610	3.5608	-2.1961	25.08	-0.13	-0.750			
0.5747	36778.26	3.5580	3.5580	-2.1343	25.08	-0.13	-0.750			
0.5812	37199.18	3.5550	3.5546	-2.1309	25.08	-0.13	-0.750			
0.5874	37595.80	3.5520	3.5521	-2.1044	25.09	-0.12	-0.750			
0.5939	38008.71	3.5490	3.5487	-2.0899	25.09	-0.12	-0.750			
0.6000	38397.89	3.5460	3.5455	-2.0546	25.09	-0.12	-0.750			
0.6060	38783.38	3.5430	3.5428	-2.0428	25.09	-0.12	-0.750			
0.6123	39187.91	3.5400	3.5395	-2.0221	25.10	-0.11	-0.750			
0.6183	39572.21	3.5370	3.5377	-2.0059	25.11	-0.10	-0.750			
0.6242	39951.80	3.5340	3.5341	-1.9397	25.11	-0.10	-0.750			
0.6300	40320.15	3.5310	3.5307	-1.9130	25.12	-0.09	-0.750			
0.6356	40678.50	3.5280	3.5279	-1.8525	25.13	-0.08	-0.750			
0.6410	41025.00	3.5250	3.5248	-1.7866	25.14	-0.07	-0.750			
0.6463	41360.07	3.5220	3.5216	-1.7939	25.15	-0.06	-0.750			
0.6514	41691.14	3.5190	3.5190	-1.7474	25.16	-0.05	-0.750			
0.6567	42029.80	3.5160	3.5164	-1.7084	25.17	-0.04	-0.750			
0.6619	42362.35	3.5130	3.5133	-1.6713	25.18	-0.03	-0.750			
0.6668	42678.34	3.5100	3.5097	-1.6061	25.19	-0.02	-0.750			
0.6717	42990.51	3.5070	3.5065	-1.5788	25.21	-0.00	-0.750			
0.6764	43286.94	3.5040	3.5039	-1.5275	25.22	0.01	-0.750			
0.6809	43577.65	3.5010	3.5007	-1.4595	25.23	0.02	-0.750			
0.6852	43851.36	3.4980	3.4984	-1.4304	25.25	0.04	-0.750			
0.6895	44126.01	3.4950	3.4952	-1.4078	25.27	0.06	-0.750			
0.6938	44401.57	3.4920	3.4913	-1.3834	25.28	0.07	-0.750			
0.6978	44661.45	3.4890	3.4893	-1.3321	25.29	0.08	-0.750			
0.7018	44913.01	3.4860	3.4860	-1.2858	25.30	0.09	-0.750			
0.7056	45155.69	3.4830	3.4829	-1.2520	25.31	0.10	-0.750			
