Ah_balance (normalized)	Ah_balance (mAh)	Voltage - fit (V)	Voltage -  interpolate (V)	dQ/dV (1/V)	Temperature (°C)	Temperature - diff (°C)	Current (C)	R_DC 0ms (mOhm)	R_DC 50ms (mOhm)	R_DC 50 ms PEC (mOhm)
0.0479	3065.71	4.1980	4.1981	0.7397	25.18	0.40	0.750			
0.0502	3209.90	4.1950	4.1948	0.7555	25.18	0.40	0.750			
0.0524	3353.28	4.1920	4.1921	0.7614	25.18	0.40	0.750			
0.0548	3505.37	4.1890	4.1890	0.7598	25.18	0.40	0.750			
0.0571	3652.47	4.1860	4.1859	0.7559	25.18	0.40	0.750			
0.0593	3796.26	4.1830	4.1830	0.7459	25.18	0.40	0.750			
0.0615	3937.30	4.1800	4.1806	0.7485	25.18	0.40	0.750			
0.0638	4081.24	4.1770	4.1769	0.7498	25.18	0.40	0.750			
0.0660	4224.41	4.1740	4.1739	0.7497	25.18	0.40	0.750			
0.0682	4367.74	4.1710	4.1712	0.7545	25.18	0.40	0.750			
0.0706	4518.44	4.1680	4.1680	0.7670	25.18	0.40	0.750			
0.0729	4662.85	4.1650	4.1650	0.7603	25.18	0.40	0.750			
0.0751	4808.04	4.1620	4.1620	0.7609	25.18	0.40	0.750			
0.0774	4953.03	4.1590	4.1591	0.7653	25.18	0.40	0.750			
0.0798	5104.88	4.1560	4.1559	0.7559	25.18	0.40	0.750			
0.0820	5248.37	4.1530	4.1530	0.7579	25.19	0.41	0.750			
0.0843	5392.30	4.1500	4.1502	0.7635	25.19	0.41	0.750			
0.0865	5539.15	4.1470	4.1469	0.7667	25.19	0.41	0.750			
0.0888	5686.01	4.1440	4.1441	0.7680	25.19	0.41	0.750			
0.0912	5834.70	4.1410	4.1412	0.7622	25.19	0.41	0.750			
0.0934	5980.07	4.1380	4.1381	0.7709	25.20	0.42	0.750			
0.0958	6133.44	4.1350	4.1350	0.7790	25.20	0.42	0.750			
0.0981	6278.07	4.1320	4.1321	0.7725	25.20	0.42	0.750			
0.1004	6426.03	4.1290	4.1292	0.7750	25.20	0.42	0.750			
0.1028	6577.12	4.1260	4.1261	0.7786	25.20	0.42	0.750			
0.1051	6726.73	4.1230	4.1230	0.7815	25.20	0.42	0.750			
0.1075	6877.61	4.1200	4.1200	0.7846	25.20	0.42	0.750			
0.1098	7027.23	4.1170	4.1170	0.7806	25.20	0.42	0.750			
0.1122	7178.87	4.1140	4.1139	0.7860	25.20	0.42	0.750			
0.1145	7329.26	4.1110	4.1110	0.7834	25.20	0.42	0.750			
0.1169	7480.98	4.1080	4.1080	0.7808	25.20	0.42	0.750			
0.1192	7629.36	4.1050	4.1050	0.7848	25.21	0.43	0.750			
0.1216	7779.98	4.1020	4.1019	0.7861	25.21	0.43	0.750			
0.1239	7929.92	4.0990	4.0988	0.7891	25.21	0.43	0.750			
0.1263	8082.37	4.0960	4.0961	0.7930	25.21	0.43	0.750			
0.1287	8239.10	4.0930	4.0929	0.7862	25.21	0.43	0.750			
0.1311	8388.08	4.0900	4.0901	0.7971	25.22	0.44	0.750			
0.1334	8540.21	4.0870	4.0870	0.8033	25.22	0.44	0.750			
0.1358	8693.21	4.0840	4.0841	0.8055	25.22	0.44	0.750			
0.1383	8848.84	4.0810	4.0812	0.8100	25.22	0.44	0.750			
0.1407	9005.61	4.0780	4.0781	0.8084	25.22	0.44	0.750			
0.1432	9163.15	4.0750	4.0750	0.8139	25.22	0.44	0.750			
0.1456	9319.90	4.0720	4.0720	0.8130	25.22	0.44	0.750			
0.1480	9473.38	4.0690	4.0690	0.8060	25.22	0.44	0.750			
0.1504	9628.23	4.0660	4.0660	0.8092	25.22	0.44	0.750			
0.1529	9786.70	4.0630	4.0630	0.8057	25.23	0.45	0.750			
0.1553	9941.46	4.0600	4.0600	0.8109	25.23	0.45	0.750			
0.1578	10096.26	4.0570	4.0570	0.8158	25.23	0.45	0.750			
0.1602	10250.89	4.0540	4.0542	0.8227	25.24	0.46	0.750			
0.1627	10409.75	4.0510	4.0507	0.8276	25.24	0.46	0.750			
0.1652	10569.96	4.0480	4.0480	0.8332	25.24	0.46	0.750			
0.1677	10732.02	4.0450	4.0451	0.8265	25.24	0.46	0.750			
0.1702	10889.89	4.0420	4.0421	0.8286	25.25	0.47	0.750			
0.1726	11046.31	4.0390	4.0392	0.8295	25.25	0.47	0.750			
0.1751	11206.16	4.0360	4.0358	0.8366	25.25	0.47	0.750			
0.1776	11366.14	4.0330	4.0331	0.8355	25.25	0.47	0.750			
0.1801	11528.61	4.0300	4.0301	0.8440	25.25	0.47	0.750			
0.1827	11694.70	4.0270	4.0271	0.8506	25.25	0.47	0.750			
0.1853	11860.33	4.0240	4.0239	0.8586	25.25	0.47	0.750			
0.1878	12018.53	4.0210	4.0209	0.8491	25.25	0.47	0.750			
0.1904	12184.86	4.0180	4.0180	0.8429	25.26	0.48	0.750			
0.1929	12346.43	4.0150	4.0150	0.8510	25.26	0.48	0.750			
0.1955	12509.47	4.0120	4.0121	0.8551	25.26	0.48	0.750			
0.1980	12672.69	4.0090	4.0092	0.8609	25.27	0.49	0.750			
0.2006	12837.68	4.0060	4.0060	0.8658	25.27	0.49	0.750			
0.2032	13006.95	4.0030	4.0030	0.8596	25.27	0.49	0.750			
0.2058	13170.94	4.0000	4.0001	0.8721	25.27	0.49	0.750			
0.2084	13340.05	3.9970	3.9971	0.8774	25.28	0.50	0.750			
0.2111	13508.45	3.9940	3.9941	0.8735	25.28	0.50	0.750			
0.2137	13676.92	3.9910	3.9912	0.8745	25.28	0.50	0.750			
0.2163	13844.92	3.9880	3.9881	0.8765	25.28	0.50	0.750			
0.2190	14014.32	3.9850	3.9851	0.8805	25.28	0.50	0.750			
0.2216	14185.09	3.9820	3.9819	0.8877	25.28	0.50	0.750			
0.2242	14350.21	3.9790	3.9789	0.8776	25.28	0.50	0.750			
0.2269	14523.89	3.9760	3.9760	0.8793	25.28	0.50	0.750			
0.2295	14690.95	3.9730	3.9730	0.8846	25.29	0.51	0.750			
0.2322	14862.05	3.9700	3.9700	0.8874	25.29	0.51	0.750			
0.2349	15030.87	3.9670	3.9671	0.8930	25.30	0.52	0.750			
0.2375	15202.02	3.9640	3.9638	0.8951	25.30	0.52	0.750			
0.2403	15380.17	3.9610	3.9610	0.8813	25.30	0.52	0.750			
0.2429	15547.94	3.9580	3.9581	0.8879	25.30	0.52	0.750			
0.2456	15716.52	3.9550	3.9552	0.8909	25.29	0.51	0.750			
0.2482	15886.16	3.9520	3.9522	0.8911	25.29	0.51	0.750			
0.2509	16056.22	3.9490	3.9490	0.8966	25.29	0.51	0.750			
0.2536	16229.34	3.9460	3.9462	0.8986	25.29	0.51	0.750			
0.2563	16404.95	3.9430	3.9431	0.9098	25.30	0.52	0.750			
0.2591	16582.60	3.9400	3.9400	0.9111	25.30	0.52	0.750			
0.2618	16756.54	3.9370	3.9371	0.9009	25.30	0.52	0.750			
0.2646	16932.83	3.9340	3.9339	0.8902	25.30	0.52	0.750			
0.2672	17101.97	3.9310	3.9310	0.8953	25.30	0.52	0.750			
0.2699	17270.94	3.9280	3.9281	0.8999	25.30	0.52	0.750			
0.2726	17443.65	3.9250	3.9251	0.9057	25.30	0.52	0.750			
0.2753	17617.26	3.9220	3.9219	0.9085	25.30	0.52	0.750			
0.2781	17799.05	3.9190	3.9191	0.8905	25.30	0.52	0.750			
0.2808	17968.62	3.9160	3.9160	0.8996	25.30	0.52	0.750			
0.2834	18138.63	3.9130	3.9132	0.9095	25.29	0.51	0.750			
0.2861	18310.95	3.9100	3.9102	0.9053	25.29	0.51	0.750			
0.2888	18484.89	3.9070	3.9071	0.9095	25.29	0.51	0.750			
0.2916	18662.24	3.9040	3.9043	0.9227	25.28	0.50	0.750			
0.2944	18844.20	3.9010	3.9010	0.9287	25.28	0.50	0.750			
0.2973	19025.59	3.8980	3.8980	0.9263	25.27	0.49	0.750			
0.3000	19200.64	3.8950	3.8951	0.9070	25.27	0.49	0.750			
0.3027	19372.97	3.8920	3.8920	0.9097	25.27	0.49	0.750			
0.3054	19547.53	3.8890	3.8889	0.8972	25.27	0.49	0.750			
0.3080	19715.04	3.8860	3.8861	0.9052	25.26	0.48	0.750			
0.3108	19888.33	3.8830	3.8831	0.9117	25.26	0.48	0.750			
0.3135	20065.86	3.8800	3.8802	0.9190	25.26	0.48	0.750			
0.3163	20246.34	3.8770	3.8771	0.8965	25.25	0.47	0.750			
0.3190	20417.77	3.8740	3.8742	0.9149	25.25	0.47	0.750			
0.3218	20592.08	3.8710	3.8711	0.9217	25.24	0.46	0.750			
0.3245	20768.68	3.8680	3.8671	0.9033	25.24	0.46	0.750			
0.3272	20941.13	3.8650	3.8652	0.9203	25.23	0.45	0.750			
0.3300	21119.56	3.8620	3.8622	0.9300	25.22	0.44	0.750			
0.3328	21301.01	3.8590	3.8592	0.9387	25.21	0.43	0.750			
0.3357	21483.88	3.8560	3.8562	0.9293	25.20	0.42	0.750			
0.3385	21662.71	3.8530	3.8531	0.9318	25.20	0.42	0.750			
0.3413	21846.08	3.8500	3.8500	0.9175	25.19	0.41	0.750			
0.3441	22019.83	3.8470	3.8469	0.9256	25.19	0.41	0.750			
0.3466	22185.57	3.8440	3.8443	0.9159	25.18	0.40	0.750			
0.3494	22359.28	3.8410	3.8405	0.9348	25.18	0.40	0.750			
0.3522	22538.88	3.8380	3.8383	0.9525	25.17	0.39	0.750	0.277	0.409	
0.3551	22725.00	3.8350	3.8355	0.9558	25.16	0.38	0.750			
0.3580	22912.07	3.8320	3.8325	0.9787	25.15	0.37	0.750			
0.3610	23102.07	3.8290	3.8293	0.9834	25.14	0.36	0.750			
0.3640	23294.46	3.8260	3.8262	0.9884	25.13	0.35	0.750			
0.3669	23478.60	3.8230	3.8232	0.9816	25.12	0.34	0.750			
0.3699	23672.65	3.8200	3.8201	0.9963	25.11	0.33	0.750			
0.3730	23869.67	3.8170	3.8170	1.0121	25.11	0.33	0.750			
0.3760	24062.24	3.8140	3.8140	0.9903	25.10	0.32	0.750			
0.3789	24250.70	3.8110	3.8110	1.0028	25.09	0.31	0.750			
0.3819	24443.20	3.8080	3.8080	1.0151	25.08	0.30	0.750			
0.3850	24638.13	3.8050	3.8052	1.0316	25.07	0.29	0.750			
0.3882	24841.82	3.8020	3.8020	1.0229	25.06	0.28	0.750			
0.3912	25035.87	3.7990	3.7991	1.0432	25.05	0.27	0.750			
0.3943	25234.77	3.7960	3.7961	1.0619	25.04	0.26	0.750			
0.3975	25441.08	3.7930	3.7932	1.0847	25.03	0.25	0.750			
0.4008	25650.63	3.7900	3.7899	1.0837	25.02	0.24	0.750			
0.4041	25859.89	3.7870	3.7872	1.1179	25.01	0.23	0.750			
0.4075	26078.70	3.7840	3.7841	1.1378	25.00	0.22	0.750			
0.4110	26303.34	3.7810	3.7809	1.1585	24.99	0.21	0.750			
0.4144	26522.62	3.7780	3.7781	1.1518	24.98	0.20	0.750			
0.4179	26742.42	3.7750	3.7752	1.1767	24.98	0.20	0.750			
0.4214	26970.74	3.7720	3.7721	1.2071	24.97	0.19	0.750			
0.4252	27212.88	3.7690	3.7685	1.1983	24.96	0.18	0.750			
0.4287	27434.89	3.7660	3.7663	1.2384	24.95	0.17	0.750			
0.4325	27677.36	3.7630	3.7633	1.2788	24.93	0.15	0.750			
0.4364	27926.79	3.7600	3.7599	1.3166	24.92	0.14	0.750			
0.4403	28180.04	3.7570	3.7573	1.3381	24.91	0.13	0.750			
0.4444	28440.53	3.7540	3.7542	1.3707	24.90	0.12	0.750			
0.4487	28717.21	3.7510	3.7508	1.3753	24.88	0.10	0.750			
0.4530	28992.55	3.7480	3.7481	1.3608	24.87	0.09	0.750			
0.4570	29246.18	3.7450	3.7452	1.4096	24.86	0.08	0.750			
0.4612	29515.49	3.7420	3.7419	1.4372	24.84	0.06	0.750			
0.4655	29788.85	3.7390	3.7389	1.4888	24.83	0.05	0.750			
0.4699	30072.19	3.7360	3.7361	1.5398	24.81	0.03	0.750			
0.4747	30382.00	3.7330	3.7321	1.5734	24.80	0.02	0.750			
0.4797	30699.11	3.7300	3.7296	1.6515	24.79	0.01	0.750			
0.4847	31022.14	3.7270	3.7265	1.6652	24.78	-0.00	0.750			
0.4898	31350.28	3.7240	3.7233	1.7020	24.76	-0.02	0.750			
0.4951	31686.20	3.7210	3.7206	1.7750	24.75	-0.03	0.750			
0.5004	32023.70	3.7180	3.7178	1.7834	24.74	-0.04	0.750			
0.5059	32375.69	3.7150	3.7151	1.8781	24.73	-0.05	0.750			
0.5115	32737.35	3.7120	3.7123	1.9397	24.72	-0.06	0.750			
0.5173	33109.29	3.7090	3.7085	2.0243	24.71	-0.07	0.750			
0.5235	33504.73	3.7060	3.7062	2.0771	24.69	-0.09	0.750			
0.5301	33929.24	3.7030	3.7030	2.1498	24.68	-0.10	0.750			
0.5367	34346.51	3.7000	3.6998	2.2154	24.66	-0.12	0.750			
0.5433	34769.27	3.6970	3.6973	2.2256	24.65	-0.13	0.750			
0.5498	35187.27	3.6940	3.6936	2.2687	24.64	-0.14	0.750			
0.5570	35649.79	3.6910	3.6915	2.3349	24.63	-0.15	0.750			
0.5640	36094.92	3.6880	3.6871	2.4710	24.62	-0.16	0.750			
0.5715	36573.20	3.6850	3.6856	2.5112	24.61	-0.17	0.750			
0.5789	37048.76	3.6820	3.6824	2.4659	24.61	-0.17	0.750			
0.5864	37531.71	3.6790	3.6788	2.6415	24.60	-0.18	0.750			
0.5939	38011.38	3.6760	3.6767	2.5738	24.60	-0.18	0.750			
0.6018	38512.43	3.6730	3.6727	2.5837	24.60	-0.18	0.750			
0.6098	39030.35	3.6700	3.6704	2.4786	24.60	-0.18	0.750			
0.6171	39496.96	3.6670	3.6672	2.4097	24.60	-0.18	0.750			
0.6241	39943.96	3.6640	3.6637	2.2483	24.61	-0.17	0.750			
0.6303	40338.80	3.6610	3.6609	2.0659	24.62	-0.16	0.750			
0.6361	40712.73	3.6580	3.6583	1.9460	24.63	-0.15	0.750			
0.6415	41056.96	3.6550	3.6547	1.7641	24.63	-0.15	0.750			
0.6467	41387.43	3.6520	3.6525	1.6139	24.64	-0.14	0.750			
0.6515	41695.20	3.6490	3.6494	1.4995	24.65	-0.13	0.750			
0.6560	41980.94	3.6460	3.6462	1.3781	24.66	-0.12	0.750			
0.6596	42217.02	3.6430	3.6433	1.2328	24.67	-0.11	0.750			
0.6632	42443.53	3.6400	3.6396	1.1790	24.68	-0.10	0.750			
0.6663	42645.49	3.6370	3.6354	1.0934	24.69	-0.09	0.750			
0.6695	42849.13	3.6340	3.6345	1.0530	24.69	-0.09	0.750			
0.6726	43047.94	3.6310	3.6314	1.0304	24.70	-0.08	0.750			
0.6757	43245.76	3.6280	3.6283	0.9765	24.70	-0.08	0.750			
0.6787	43438.71	3.6250	3.6250	0.9299	24.71	-0.07	0.750			
0.6814	43609.80	3.6220	3.6224	0.8889	24.72	-0.06	0.750			
0.6840	43773.74	3.6190	3.6194	0.8436	24.73	-0.05	0.750			
0.6864	43929.39	3.6160	3.6164	0.8045	24.74	-0.04	0.750			
0.6888	44084.04	3.6130	3.6135	0.7670	24.75	-0.03	0.750			
0.6911	44227.41	3.6100	3.6106	0.7196	24.75	-0.03	0.750			
0.6932	44366.54	3.6070	3.6078	0.6887	24.76	-0.02	0.750			
0.6951	44488.95	3.6040	3.6047	0.6317	24.77	-0.01	0.750			
0.6970	44609.41	3.6010	3.6011	0.6001	24.77	-0.01	0.750			
0.6988	44722.13	3.5980	3.5979	0.5471	24.78	-0.00	0.750			
0.7003	44821.38	3.5950	3.5961	0.4851	24.78	0.00	0.750			
0.7018	44916.78	3.5920	3.5927	0.4345	24.79	0.01	0.750			
0.7030	44995.05	3.5890	3.5889	0.3737	24.79	0.01	0.750			
0.7040	45053.63	3.5860	3.5861	0.2872	24.79	0.01	0.750			
0.7047	45101.71	3.5830	3.5831	0.2308	24.80	0.02	0.750			
0.7053	45142.17	3.5800	3.5800	0.1757	24.80	0.02	0.750			
0.7058	45171.28	3.5770	3.5773	0.1207	24.80	0.02	0.750			
0.7061	45189.18	3.5740	3.5751	0.0731	24.80	0.02	0.751			
