Ah_balance (normalized)	Ah_balance (mAh)	Voltage - fit (V)	Voltage -  interpolate (V)	dQ/dV (1/V)	Temperature (°C)	Temperature - diff (°C)	Current (C)	R_DC 0ms (mOhm)	R_DC 50ms (mOhm)	R_DC 50 ms PEC (mOhm)
0.0465	2976.61	4.1990	4.1989	0.7468	25.20	0.40	0.750			
0.0487	3117.11	4.1960	4.1961	0.7286	25.20	0.40	0.750			
0.0509	3259.55	4.1930	4.1931	0.7445	25.20	0.40	0.750			
0.0532	3403.78	4.1900	4.1899	0.7536	25.20	0.40	0.750			
0.0555	3549.31	4.1870	4.1871	0.7560	25.20	0.40	0.750			
0.0578	3696.72	4.1840	4.1842	0.7601	25.20	0.40	0.750			
0.0601	3844.25	4.1810	4.1810	0.7667	25.20	0.40	0.750			
0.0624	3992.36	4.1780	4.1780	0.7694	25.20	0.40	0.750			
0.0646	4135.49	4.1750	4.1749	0.7671	25.20	0.40	0.750			
0.0669	4283.99	4.1720	4.1720	0.7709	25.20	0.40	0.750			
0.0693	4436.03	4.1690	4.1689	0.7649	25.20	0.40	0.750			
0.0716	4582.17	4.1660	4.1660	0.7646	25.20	0.40	0.750			
0.0739	4728.51	4.1630	4.1632	0.7644	25.20	0.40	0.750			
0.0761	4873.40	4.1600	4.1601	0.7686	25.20	0.40	0.750			
0.0784	5020.14	4.1570	4.1569	0.7694	25.20	0.40	0.750			
0.0808	5168.90	4.1540	4.1541	0.7721	25.20	0.40	0.750			
0.0831	5319.72	4.1510	4.1511	0.7754	25.20	0.40	0.750			
0.0855	5469.37	4.1480	4.1480	0.7760	25.20	0.40	0.750			
0.0878	5617.08	4.1450	4.1451	0.7749	25.20	0.40	0.750			
0.0901	5764.02	4.1420	4.1415	0.7748	25.20	0.40	0.750			
0.0924	5912.94	4.1390	4.1391	0.7796	25.20	0.40	0.750			
0.0948	6064.66	4.1360	4.1361	0.7826	25.20	0.40	0.750			
0.0971	6216.08	4.1330	4.1330	0.7850	25.21	0.41	0.750			
0.0995	6368.75	4.1300	4.1300	0.7885	25.21	0.41	0.750			
0.1018	6518.05	4.1270	4.1270	0.7861	25.21	0.41	0.750			
0.1042	6668.80	4.1240	4.1240	0.7875	25.21	0.41	0.750			
0.1066	6820.91	4.1210	4.1209	0.7856	25.21	0.41	0.750			
0.1089	6970.30	4.1180	4.1181	0.7808	25.21	0.41	0.750			
0.1112	7118.05	4.1150	4.1151	0.7827	25.22	0.42	0.750			
0.1136	7268.84	4.1120	4.1121	0.7888	25.22	0.42	0.750			
0.1159	7419.20	4.1090	4.1090	0.7926	25.22	0.42	0.750			
0.1183	7573.00	4.1060	4.1062	0.7969	25.22	0.42	0.750			
0.1207	7727.49	4.1030	4.1030	0.8071	25.23	0.43	0.750			
0.1232	7881.77	4.1000	4.1001	0.8004	25.23	0.43	0.750			
0.1255	8031.29	4.0970	4.0972	0.7998	25.24	0.44	0.750			
0.1279	8184.52	4.0940	4.0929	0.8050	25.24	0.44	0.750			
0.1304	8342.42	4.0910	4.0911	0.8020	25.24	0.44	0.750			
0.1328	8496.07	4.0880	4.0882	0.8128	25.24	0.44	0.750			
0.1352	8653.94	4.0850	4.0850	0.8212	25.25	0.45	0.750			
0.1377	8811.95	4.0820	4.0821	0.8547	25.25	0.45	0.750			
0.1401	8967.83	4.0790	4.0792	0.8573	25.25	0.45	0.750			
0.1428	9139.15	4.0760	4.0759	0.8649	25.25	0.45	0.750			
0.1455	9310.50	4.0730	4.0737	0.8770	25.25	0.45	0.750			
0.1482	9487.28	4.0700	4.0702	0.8889	25.26	0.46	0.750			
0.1509	9654.58	4.0670	4.0672	0.8712	25.26	0.46	0.750			
0.1535	9821.90	4.0640	4.0638	0.8630	25.26	0.46	0.750			
0.1559	9979.47	4.0610	4.0610	0.8387	25.26	0.46	0.750			
0.1584	10140.37	4.0580	4.0581	0.8341	25.26	0.46	0.750			
0.1609	10299.89	4.0550	4.0550	0.8364	25.27	0.47	0.750			
0.1634	10460.55	4.0520	4.0521	0.8335	25.27	0.47	0.750			
0.1659	10620.58	4.0490	4.0489	0.8380	25.27	0.47	0.750			
0.1685	10781.15	4.0460	4.0462	0.8415	25.27	0.47	0.750			
0.1710	10944.30	4.0430	4.0431	0.8464	25.27	0.47	0.750			
0.1736	11109.06	4.0400	4.0399	0.8532	25.27	0.47	0.750			
0.1761	11271.48	4.0370	4.0371	0.8476	25.27	0.47	0.750			
0.1787	11434.59	4.0340	4.0341	0.8554	25.27	0.47	0.750			
0.1813	11601.09	4.0310	4.0310	0.8537	25.27	0.47	0.750			
0.1838	11764.60	4.0280	4.0280	0.8574	25.27	0.47	0.750			
0.1864	11928.63	4.0250	4.0250	0.8632	25.28	0.48	0.750			
0.1890	12094.86	4.0220	4.0221	0.8693	25.28	0.48	0.750			
0.1916	12261.79	4.0190	4.0191	0.8701	25.28	0.48	0.750			
0.1942	12430.80	4.0160	4.0160	0.8698	25.28	0.48	0.750			
0.1968	12597.62	4.0130	4.0131	0.8712	25.28	0.48	0.750			
0.1995	12766.10	4.0100	4.0099	0.8768	25.28	0.48	0.750			
0.2021	12932.58	4.0070	4.0069	0.8750	25.28	0.48	0.750			
0.2047	13100.50	4.0040	4.0040	0.8774	25.28	0.48	0.750			
0.2073	13269.41	4.0010	4.0010	0.8804	25.29	0.49	0.750			
0.2100	13439.47	3.9980	3.9981	0.8868	25.29	0.49	0.750			
0.2127	13610.45	3.9950	3.9950	0.8929	25.30	0.50	0.750			
0.2153	13781.03	3.9920	3.9918	0.8919	25.30	0.50	0.750			
0.2180	13953.32	3.9890	3.9890	0.8899	25.30	0.50	0.750			
0.2207	14124.42	3.9860	3.9860	0.8934	25.30	0.50	0.750			
0.2234	14296.42	3.9830	3.9830	0.8962	25.30	0.50	0.750			
0.2261	14468.45	3.9800	3.9800	0.8963	25.30	0.50	0.750			
0.2287	14639.72	3.9770	3.9770	0.8954	25.30	0.50	0.750			
0.2315	14814.79	3.9740	3.9740	0.8842	25.31	0.51	0.750			
0.2341	14982.87	3.9710	3.9711	0.8971	25.31	0.51	0.750			
0.2368	15154.23	3.9680	3.9681	0.9050	25.31	0.51	0.750			
0.2395	15327.46	3.9650	3.9649	0.9064	25.32	0.52	0.750			
0.2422	15503.02	3.9620	3.9622	0.9131	25.32	0.52	0.750			
0.2450	15679.24	3.9590	3.9591	0.9226	25.33	0.53	0.750			
0.2478	15858.86	3.9560	3.9560	0.9259	25.34	0.54	0.750			
0.2506	16040.14	3.9530	3.9529	0.9318	25.34	0.54	0.750			
0.2534	16215.00	3.9500	3.9500	0.9232	25.35	0.55	0.750			
0.2562	16394.39	3.9470	3.9470	0.9166	25.35	0.55	0.750			
0.2589	16570.00	3.9440	3.9440	0.9218	25.35	0.55	0.750			
0.2616	16744.24	3.9410	3.9410	0.9259	25.35	0.55	0.750			
0.2644	16920.90	3.9380	3.9380	0.9275	25.35	0.55	0.750			
0.2672	17102.41	3.9350	3.9350	0.9274	25.35	0.55	0.750			
0.2700	17280.77	3.9320	3.9320	0.9323	25.36	0.56	0.750			
0.2728	17461.16	3.9290	3.9291	0.9363	25.36	0.56	0.750			
0.2757	17642.18	3.9260	3.9261	0.9463	25.37	0.57	0.750			
0.2784	17820.77	3.9230	3.9229	0.9414	25.37	0.57	0.750			
0.2813	18002.95	3.9200	3.9200	0.9423	25.37	0.57	0.750			
0.2841	18185.02	3.9170	3.9171	0.9486	25.37	0.57	0.750			
0.2870	18367.93	3.9140	3.9140	0.9495	25.37	0.57	0.750			
0.2898	18550.22	3.9110	3.9110	0.9459	25.37	0.57	0.750			
0.2927	18732.71	3.9080	3.9080	0.9412	25.37	0.57	0.750			
0.2955	18911.09	3.9050	3.9050	0.9424	25.37	0.57	0.750			
0.2983	19093.50	3.9020	3.9021	0.9469	25.37	0.57	0.750			
0.3012	19274.95	3.8990	3.8991	0.9534	25.37	0.57	0.750			
0.3040	19456.88	3.8960	3.8960	0.9571	25.37	0.57	0.750			
0.3069	19641.10	3.8930	3.8930	0.9564	25.37	0.57	0.750			
0.3097	19823.73	3.8900	3.8901	0.9647	25.37	0.57	0.750			
0.3127	20009.96	3.8870	3.8871	0.9717	25.37	0.57	0.750			
0.3156	20197.06	3.8840	3.8836	0.9742	25.37	0.57	0.750			
0.3185	20385.80	3.8810	3.8812	0.9751	25.37	0.57	0.750			
0.3215	20573.50	3.8780	3.8781	0.9755	25.37	0.57	0.750			
0.3244	20763.37	3.8750	3.8750	0.9780	25.37	0.57	0.750			
0.3273	20949.00	3.8720	3.8719	0.9722	25.37	0.57	0.750			
0.3302	21135.07	3.8690	3.8690	0.9691	25.37	0.57	0.750			
0.3331	21321.51	3.8660	3.8660	0.9759	25.37	0.57	0.750			
0.3361	21508.85	3.8630	3.8630	0.9838	25.36	0.56	0.750			
0.3390	21697.79	3.8600	3.8600	0.9892	25.36	0.56	0.750			
0.3420	21889.80	3.8570	3.8570	0.9914	25.36	0.56	0.750			
0.3450	22080.99	3.8540	3.8540	0.9961	25.35	0.55	0.750			
0.3480	22271.97	3.8510	3.8511	1.0033	25.35	0.55	0.750			
0.3510	22465.89	3.8480	3.8480	1.0112	25.34	0.54	0.750			
0.3541	22660.05	3.8450	3.8451	1.0103	25.34	0.54	0.750			
0.3571	22854.57	3.8420	3.8420	1.0094	25.33	0.53	0.750			
0.3601	23049.23	3.8390	3.8391	1.0129	25.32	0.52	0.750			
0.3632	23244.51	3.8360	3.8360	1.0143	25.32	0.52	0.750			
0.3662	23439.25	3.8330	3.8324	1.0125	25.31	0.51	0.750	0.278	0.408	
0.3692	23631.94	3.8300	3.8300	1.0168	25.30	0.50	0.750			
0.3723	23825.98	3.8270	3.8270	1.0263	25.29	0.49	0.750			
0.3754	24024.80	3.8240	3.8241	1.0367	25.29	0.49	0.750			
0.3786	24228.05	3.8210	3.8210	1.0370	25.28	0.48	0.750			
0.3817	24426.58	3.8180	3.8181	1.0440	25.27	0.47	0.750			
0.3848	24627.08	3.8150	3.8151	1.0528	25.26	0.46	0.750			
0.3880	24829.84	3.8120	3.8121	1.0555	25.26	0.46	0.750			
0.3911	25032.51	3.8090	3.8088	1.0543	25.25	0.45	0.750			
0.3943	25234.91	3.8060	3.8060	1.0628	25.24	0.44	0.750			
0.3975	25440.48	3.8030	3.8031	1.0723	25.23	0.43	0.750			
0.4007	25647.20	3.8000	3.8000	1.0815	25.22	0.42	0.750			
0.4040	25856.98	3.7970	3.7970	1.0745	25.21	0.41	0.750			
0.4072	26061.83	3.7940	3.7941	1.0975	25.20	0.40	0.750			
0.4105	26272.15	3.7910	3.7911	1.1155	25.19	0.39	0.750			
0.4139	26487.09	3.7880	3.7880	1.1351	25.18	0.38	0.750			
0.4173	26706.20	3.7850	3.7851	1.1441	25.17	0.37	0.750			
0.4207	26926.89	3.7820	3.7822	1.1710	25.16	0.36	0.750			
0.4243	27156.01	3.7790	3.7791	1.1883	25.15	0.35	0.750			
0.4280	27390.34	3.7760	3.7754	1.2021	25.14	0.34	0.750			
0.4315	27616.00	3.7730	3.7731	1.2155	25.13	0.33	0.750			
0.4352	27852.22	3.7700	3.7701	1.2454	25.12	0.32	0.750			
0.4390	28096.53	3.7670	3.7668	1.2606	25.10	0.30	0.750			
0.4428	28339.65	3.7640	3.7641	1.2876	25.09	0.29	0.750			
0.4466	28581.73	3.7610	3.7611	1.3072	25.08	0.28	0.750			
0.4506	28839.89	3.7580	3.7580	1.3324	25.07	0.27	0.750			
0.4548	29110.12	3.7550	3.7549	1.3051	25.06	0.26	0.750			
0.4587	29355.09	3.7520	3.7521	1.3088	25.05	0.25	0.750			
0.4624	29596.54	3.7490	3.7495	1.3725	25.04	0.24	0.750			
0.4666	29860.66	3.7460	3.7462	1.4196	25.03	0.23	0.750			
0.4709	30134.75	3.7430	3.7434	1.4717	25.02	0.22	0.750			
0.4753	30419.82	3.7400	3.7406	1.5439	25.01	0.21	0.750			
0.4803	30741.32	3.7370	3.7362	1.5803	24.99	0.19	0.750			
0.4853	31059.95	3.7340	3.7334	1.6375	24.98	0.18	0.750			
0.4902	31372.14	3.7310	3.7308	1.6726	24.96	0.16	0.750			
0.4951	31688.01	3.7280	3.7276	1.7413	24.94	0.14	0.750			
0.5004	32023.87	3.7250	3.7252	1.7953	24.93	0.13	0.750			
0.5058	32374.14	3.7220	3.7224	1.8559	24.91	0.11	0.750			
0.5117	32749.78	3.7190	3.7188	1.9386	24.89	0.09	0.750			
0.5177	33135.38	3.7160	3.7159	1.9537	24.87	0.07	0.750			
0.5237	33517.06	3.7130	3.7130	1.9995	24.86	0.06	0.750			
0.5296	33896.35	3.7100	3.7108	2.0414	24.85	0.05	0.750			
0.5357	34286.58	3.7070	3.7064	2.0755	24.83	0.03	0.750			
0.5420	34689.31	3.7040	3.7043	2.1175	24.81	0.01	0.750			
0.5483	35089.83	3.7010	3.7013	2.2611	24.79	-0.01	0.750			
0.5553	35538.29	3.6980	3.6981	2.2767	24.78	-0.02	0.750			
0.5623	35985.75	3.6950	3.6954	2.3856	24.76	-0.04	0.750			
0.5695	36449.14	3.6920	3.6920	2.4104	24.75	-0.05	0.750			
0.5765	36897.58	3.6890	3.6892	2.4661	24.74	-0.06	0.750			
0.5839	37367.91	3.6860	3.6860	2.5768	24.73	-0.07	0.750			
0.5916	37859.90	3.6830	3.6826	2.6214	24.72	-0.08	0.750			
0.6000	38398.58	3.6800	3.6803	2.7787	24.70	-0.10	0.750			
0.6084	38939.97	3.6770	3.6772	2.7077	24.70	-0.10	0.750			
0.6163	39440.71	3.6740	3.6739	2.6911	24.69	-0.11	0.750			
0.6247	39977.83	3.6710	3.6705	2.9469	24.68	-0.12	0.750			
0.6334	40536.51	3.6680	3.6679	2.9789	24.68	-0.12	0.750			
0.6421	41092.13	3.6650	3.6643	2.7195	24.67	-0.13	0.750			
0.6502	41611.51	3.6620	3.6624	2.6050	24.67	-0.13	0.750			
0.6581	42120.27	3.6590	3.6588	2.5641	24.68	-0.12	0.750			
0.6652	42570.43	3.6560	3.6564	2.2021	24.69	-0.11	0.750			
0.6713	42962.49	3.6530	3.6533	2.0478	24.69	-0.11	0.750			
0.6769	43322.01	3.6500	3.6501	1.8427	24.70	-0.10	0.750			
0.6821	43657.39	3.6470	3.6473	1.6509	24.70	-0.10	0.750			
0.6865	43938.80	3.6440	3.6444	1.4766	24.71	-0.09	0.750			
0.6907	44202.68	3.6410	3.6402	1.3212	24.71	-0.09	0.750			
0.6946	44452.66	3.6380	3.6382	1.2228	24.72	-0.08	0.750			
0.6979	44662.72	3.6350	3.6350	1.1100	24.73	-0.07	0.750			
0.7009	44857.02	3.6320	3.6321	1.0231	24.74	-0.06	0.750			
0.7038	45042.26	3.6290	3.6290	0.9550	24.74	-0.06	0.750			
0.7066	45221.24	3.6260	3.6259	0.9139	24.75	-0.05	0.750			
0.7092	45390.88	3.6230	3.6231	0.8919	24.75	-0.05	0.750			
0.7119	45562.30	3.6200	3.6200	0.8564	24.75	-0.05	0.750			
0.7145	45730.51	3.6170	3.6168	0.8029	24.76	-0.04	0.750			
0.7168	45876.98	3.6140	3.6143	0.7792	24.76	-0.04	0.750			
0.7191	46020.21	3.6110	3.6115	0.7410	24.77	-0.03	0.750			
0.7213	46162.71	3.6080	3.6058	0.6932	24.78	-0.02	0.750			
0.7233	46293.21	3.6050	3.6057	0.6436	24.79	-0.01	0.750			
0.7252	46411.53	3.6020	3.6025	0.5770	24.79	-0.01	0.750			
0.7269	46520.37	3.5990	3.5995	0.5159	24.80	-0.00	0.750			
0.7283	46613.65	3.5960	3.5962	0.4256	24.80	0.00	0.750			
0.7295	46690.84	3.5930	3.5930	0.3680	24.81	0.01	0.750			
0.7306	46755.37	3.5900	3.5900	0.3037	24.81	0.01	0.750			
0.7314	46809.36	3.5870	3.5870	0.2495	24.81	0.01	0.750			
0.7321	46852.54	3.5840	3.5840	0.1897	24.81	0.01	0.750			
0.7326	46883.61	3.5810	3.5814	0.1294	24.82	0.02	0.750			
0.7329	46903.94	3.5780	3.5787	0.0642	24.82	0.02	0.750			
0.7330	46909.71	3.5750	3.5764	0.0044	24.82	0.02	0.750			
