Ah_balance (normalized)	Ah_balance (mAh)	Voltage - fit (V)	Voltage -  interpolate (V)	dQ/dV (1/V)	Temperature (°C)	Temperature - diff (°C)	Current (C)	R_DC 0ms (mOhm)	R_DC 50ms (mOhm)	R_DC 50 ms PEC (mOhm)
0.0003	21.93	4.1620	4.1617	-0.1328	25.14	0.02	-0.750			
0.0008	50.92	4.1590	4.1590	-0.1760	25.13	0.01	-0.750			
0.0014	90.72	4.1560	4.1558	-0.2207	25.13	0.01	-0.750			
0.0021	137.25	4.1530	4.1532	-0.2636	25.13	0.01	-0.750			
0.0030	192.05	4.1500	4.1499	-0.3050	25.13	0.01	-0.750			
0.0040	255.20	4.1470	4.1471	-0.3480	25.12	0.00	-0.750			
0.0051	326.64	4.1440	4.1444	-0.3858	25.12	-0.00	-0.750			
0.0063	404.06	4.1410	4.1409	-0.4242	25.12	-0.00	-0.750			
0.0077	491.07	4.1380	4.1380	-0.4573	25.11	-0.01	-0.750			
0.0091	583.20	4.1350	4.1351	-0.4902	25.11	-0.01	-0.750			
0.0106	679.51	4.1320	4.1320	-0.5171	25.10	-0.02	-0.750			
0.0122	782.69	4.1290	4.1290	-0.5452	25.10	-0.02	-0.750			
0.0139	889.51	4.1260	4.1260	-0.5691	25.09	-0.03	-0.750			
0.0157	1002.61	4.1230	4.1230	-0.5881	25.09	-0.03	-0.750			
0.0175	1119.27	4.1200	4.1201	-0.6018	25.08	-0.04	-0.750			
0.0193	1236.41	4.1170	4.1171	-0.6220	25.08	-0.04	-0.750			
0.0212	1356.77	4.1140	4.1140	-0.6361	25.07	-0.05	-0.750			
0.0231	1480.42	4.1110	4.1108	-0.6568	25.07	-0.05	-0.750			
0.0251	1609.10	4.1080	4.1080	-0.6697	25.07	-0.05	-0.750			
0.0272	1741.42	4.1050	4.1049	-0.6771	25.06	-0.06	-0.750			
0.0293	1873.16	4.1020	4.1019	-0.6855	25.06	-0.06	-0.750			
0.0314	2008.05	4.0990	4.0988	-0.6883	25.06	-0.06	-0.750			
0.0334	2138.20	4.0960	4.0958	-0.6834	25.06	-0.06	-0.750			
0.0354	2266.30	4.0930	4.0931	-0.6951	25.06	-0.06	-0.750			
0.0375	2398.26	4.0900	4.0901	-0.6995	25.05	-0.07	-0.750			
0.0397	2538.81	4.0870	4.0867	-0.7129	25.05	-0.07	-0.750			
0.0418	2676.60	4.0840	4.0839	-0.7190	25.05	-0.07	-0.750			
0.0440	2814.50	4.0810	4.0810	-0.7264	25.05	-0.07	-0.750			
0.0462	2956.16	4.0780	4.0780	-0.7325	25.05	-0.07	-0.750			
0.0484	3097.32	4.0750	4.0749	-0.7322	25.05	-0.07	-0.750			
0.0506	3236.22	4.0720	4.0721	-0.7304	25.04	-0.08	-0.750			
0.0528	3379.21	4.0690	4.0690	-0.7415	25.04	-0.08	-0.750			
0.0550	3521.58	4.0660	4.0661	-0.7411	25.04	-0.08	-0.750			
0.0572	3663.33	4.0630	4.0629	-0.7428	25.04	-0.08	-0.750			
0.0595	3806.25	4.0600	4.0601	-0.7488	25.04	-0.08	-0.750			
0.0617	3951.91	4.0570	4.0570	-0.7537	25.04	-0.08	-0.750			
0.0641	4099.31	4.0540	4.0539	-0.7561	25.04	-0.08	-0.750			
0.0663	4243.89	4.0510	4.0510	-0.7516	25.04	-0.08	-0.750			
0.0685	4385.85	4.0480	4.0479	-0.7504	25.04	-0.08	-0.750			
0.0708	4529.94	4.0450	4.0449	-0.7532	25.04	-0.08	-0.750			
0.0730	4673.33	4.0420	4.0419	-0.7634	25.04	-0.08	-0.750			
0.0753	4820.80	4.0390	4.0389	-0.7595	25.04	-0.08	-0.750			
0.0777	4970.59	4.0360	4.0359	-0.7690	25.04	-0.08	-0.750			
0.0800	5118.81	4.0330	4.0335	-0.7699	25.04	-0.08	-0.750			
0.0823	5266.68	4.0300	4.0300	-0.7677	25.04	-0.08	-0.750			
0.0846	5412.00	4.0270	4.0269	-0.7677	25.04	-0.08	-0.750			
0.0868	5558.21	4.0240	4.0240	-0.7691	25.05	-0.07	-0.750			
0.0892	5707.26	4.0210	4.0210	-0.7722	25.05	-0.07	-0.750			
0.0915	5855.54	4.0180	4.0179	-0.7763	25.05	-0.07	-0.750			
0.0938	6004.50	4.0150	4.0151	-0.7763	25.05	-0.07	-0.750			
0.0961	6153.23	4.0120	4.0119	-0.7838	25.05	-0.07	-0.750			
0.0985	6305.12	4.0090	4.0090	-0.7815	25.05	-0.07	-0.750			
0.1009	6455.58	4.0060	4.0060	-0.7752	25.06	-0.06	-0.750			
0.1032	6603.95	4.0030	4.0031	-0.7832	25.06	-0.06	-0.750			
0.1056	6756.76	4.0000	4.0003	-0.7824	25.06	-0.06	-0.750			
0.1079	6903.19	3.9970	3.9969	-0.7858	25.06	-0.06	-0.750			
0.1102	7053.74	3.9940	3.9940	-0.7856	25.06	-0.06	-0.750			
0.1126	7204.76	3.9910	3.9912	-0.7886	25.06	-0.06	-0.750			
0.1150	7358.76	3.9880	3.9878	-0.7959	25.06	-0.06	-0.750			
0.1174	7512.42	3.9850	3.9854	-0.7999	25.06	-0.06	-0.750			
0.1198	7664.56	3.9820	3.9820	-0.7965	25.06	-0.06	-0.750			
0.1222	7821.96	3.9790	3.9789	-0.7973	25.06	-0.06	-0.750			
0.1246	7972.07	3.9760	3.9760	-0.7910	25.07	-0.05	-0.750			
0.1269	8122.77	3.9730	3.9731	-0.7995	25.07	-0.05	-0.750			
0.1293	8274.89	3.9700	3.9701	-0.8005	25.07	-0.05	-0.750			
0.1317	8428.42	3.9670	3.9667	-0.8028	25.07	-0.05	-0.750			
0.1341	8583.51	3.9640	3.9641	-0.8157	25.07	-0.05	-0.750			
0.1366	8743.94	3.9610	3.9610	-0.8213	25.07	-0.05	-0.750			
0.1391	8903.83	3.9580	3.9579	-0.8186	25.07	-0.05	-0.750			
0.1416	9061.74	3.9550	3.9550	-0.8123	25.07	-0.05	-0.750			
0.1440	9215.39	3.9520	3.9518	-0.8111	25.07	-0.05	-0.750			
0.1464	9369.67	3.9490	3.9489	-0.8155	25.07	-0.05	-0.750			
0.1488	9526.01	3.9460	3.9459	-0.8170	25.08	-0.04	-0.750			
0.1513	9682.00	3.9430	3.9430	-0.8134	25.08	-0.04	-0.750			
0.1538	9845.06	3.9400	3.9401	-0.8298	25.08	-0.04	-0.750			
0.1563	10004.63	3.9370	3.9368	-0.8289	25.08	-0.04	-0.750			
0.1588	10161.42	3.9340	3.9340	-0.8365	25.08	-0.04	-0.750			
0.1613	10323.59	3.9310	3.9308	-0.8312	25.09	-0.03	-0.750			
0.1638	10481.07	3.9280	3.9280	-0.8299	25.09	-0.03	-0.750			
0.1663	10645.21	3.9250	3.9250	-0.8383	25.09	-0.03	-0.750			
0.1688	10805.84	3.9220	3.9221	-0.8347	25.09	-0.03	-0.750			
0.1713	10965.38	3.9190	3.9188	-0.8404	25.09	-0.03	-0.750			
0.1739	11127.46	3.9160	3.9160	-0.8416	25.10	-0.02	-0.750			
0.1764	11289.29	3.9130	3.9129	-0.8366	25.10	-0.02	-0.750			
0.1789	11452.46	3.9100	3.9099	-0.8411	25.10	-0.02	-0.750			
0.1815	11613.21	3.9070	3.9068	-0.8406	25.10	-0.02	-0.750			
0.1840	11774.78	3.9040	3.9039	-0.8478	25.11	-0.01	-0.750			
0.1865	11936.33	3.9010	3.9009	-0.8473	25.11	-0.01	-0.750			
0.1890	12099.03	3.8980	3.8979	-0.8363	25.11	-0.01	-0.750			
0.1916	12265.38	3.8950	3.8952	-0.8468	25.12	-0.00	-0.750			
0.1942	12425.87	3.8920	3.8919	-0.8501	25.12	0.00	-0.750			
0.1967	12587.50	3.8890	3.8889	-0.8458	25.12	0.00	-0.750			
0.1992	12748.53	3.8860	3.8859	-0.8464	25.12	0.00	-0.750			
0.2017	12910.00	3.8830	3.8830	-0.8393	25.12	0.00	-0.750			
0.2043	13076.48	3.8800	3.8802	-0.8517	25.12	0.00	-0.750			
0.2069	13238.86	3.8770	3.8770	-0.8621	25.12	0.00	-0.750			
0.2094	13403.67	3.8740	3.8739	-0.8564	25.12	0.00	-0.750			
0.2120	13570.31	3.8710	3.8708	-0.8500	25.13	0.01	-0.750			
0.2146	13733.95	3.8680	3.8681	-0.8478	25.13	0.01	-0.750			
0.2172	13897.63	3.8650	3.8651	-0.8468	25.13	0.01	-0.750			
0.2197	14058.33	3.8620	3.8619	-0.8494	25.13	0.01	-0.750			
0.2222	14218.42	3.8590	3.8589	-0.8520	25.13	0.01	-0.750			
0.2247	14383.89	3.8560	3.8559	-0.8521	25.14	0.02	-0.750			
0.2274	14551.57	3.8530	3.8528	-0.8639	25.14	0.02	-0.750			
0.2300	14718.58	3.8500	3.8507	-0.8627	25.14	0.02	-0.750			
0.2326	14884.60	3.8470	3.8468	-0.8580	25.15	0.03	-0.750			
0.2351	15047.75	3.8440	3.8440	-0.8510	25.15	0.03	-0.750			
0.2376	15209.46	3.8410	3.8411	-0.8457	25.16	0.04	-0.750			
0.2402	15373.38	3.8380	3.8379	-0.8493	25.16	0.04	-0.750			
0.2427	15534.41	3.8350	3.8351	-0.8410	25.17	0.05	-0.750			
0.2452	15689.70	3.8320	3.8321	-0.8522	25.17	0.05	-0.750			
0.2478	15856.55	3.8290	3.8290	-0.8406	25.17	0.05	-0.750			
0.2503	16020.24	3.8260	3.8258	-0.8340	25.18	0.06	-0.750			
0.2528	16180.93	3.8230	3.8228	-0.8330	25.18	0.06	-0.750			
0.2553	16339.74	3.8200	3.8205	-0.8220	25.18	0.06	-0.750			
0.2577	16493.40	3.8170	3.8170	-0.8257	25.18	0.06	-0.750			
0.2602	16650.85	3.8140	3.8139	-0.8233	25.18	0.06	-0.750			
0.2627	16809.99	3.8110	3.8109	-0.8242	25.18	0.06	-0.750			
0.2651	16968.00	3.8080	3.8079	-0.8180	25.18	0.06	-0.750			
0.2676	17124.74	3.8050	3.8055	-0.8177	25.18	0.06	-0.750			
0.2700	17280.06	3.8020	3.8018	-0.8089	25.18	0.06	-0.750			
0.2724	17434.01	3.7990	3.7989	-0.8037	25.19	0.07	-0.750			
0.2748	17586.15	3.7960	3.7961	-0.7949	25.19	0.07	-0.750			
0.2772	17741.75	3.7930	3.7930	-0.7946	25.20	0.08	-0.750			
0.2796	17894.83	3.7900	3.7898	-0.7864	25.20	0.08	-0.750			
0.2819	18043.11	3.7870	3.7870	-0.7756	25.20	0.08	-0.750			
0.2842	18188.30	3.7840	3.7841	-0.7801	25.20	0.08	-0.750			
0.2865	18337.26	3.7810	3.7809	-0.7772	25.21	0.09	-0.750			
0.2889	18486.86	3.7780	3.7780	-0.7788	25.21	0.09	-0.750			
0.2912	18639.20	3.7750	3.7748	-0.7796	25.21	0.09	-0.750			
0.2936	18788.05	3.7720	3.7719	-0.7830	25.21	0.09	-0.750			
0.2959	18938.16	3.7690	3.7690	-0.7877	25.21	0.09	-0.750			
0.2983	19088.70	3.7660	3.7660	-0.7922	25.21	0.09	-0.750			
0.3006	19239.39	3.7630	3.7629	-0.7864	25.22	0.10	-0.750			
0.3030	19394.25	3.7600	3.7600	-0.7940	25.22	0.10	-0.750			
0.3054	19547.67	3.7570	3.7573	-0.7965	25.22	0.10	-0.750			
0.3078	19701.43	3.7540	3.7539	-0.8034	25.22	0.10	-0.750			
0.3102	19853.69	3.7510	3.7509	-0.8068	25.22	0.10	-0.750			
0.3126	20008.10	3.7480	3.7481	-0.8148	25.23	0.11	-0.750			
0.3151	20165.79	3.7450	3.7449	-0.8227	25.23	0.11	-0.750			
0.3176	20325.60	3.7420	3.7423	-0.8299	25.23	0.11	-0.750			
0.3200	20480.84	3.7390	3.7391	-0.8577	25.23	0.11	-0.750			
0.3226	20648.35	3.7360	3.7360	-0.8615	25.23	0.11	-0.750			
0.3252	20814.27	3.7330	3.7327	-0.8733	25.22	0.10	-0.750			
0.3279	20986.29	3.7300	3.7298	-0.8886	25.22	0.10	-0.750			
0.3306	21157.88	3.7270	3.7271	-0.8942	25.22	0.10	-0.750			
0.3333	21333.21	3.7240	3.7240	-0.9153	25.22	0.10	-0.750			
0.3361	21510.47	3.7210	3.7208	-0.9163	25.22	0.10	-0.750			
0.3388	21684.09	3.7180	3.7179	-0.9344	25.22	0.10	-0.750			
0.3416	21863.08	3.7150	3.7148	-0.9432	25.22	0.10	-0.750			
0.3444	22042.57	3.7120	3.7118	-0.9589	25.22	0.10	-0.750			
0.3473	22229.90	3.7090	3.7090	-0.9860	25.21	0.09	-0.750			
0.3503	22420.54	3.7060	3.7059	-1.0010	25.21	0.09	-0.750			
0.3534	22618.15	3.7030	3.7028	-1.0285	25.20	0.08	-0.750			
0.3565	22817.04	3.7000	3.6999	-1.0584	25.20	0.08	-0.750	0.386	0.516	
0.3597	23023.58	3.6970	3.6967	-1.0643	25.19	0.07	-0.750			
0.3630	23231.08	3.6940	3.6937	-1.0709	25.19	0.07	-0.750			
0.3662	23433.89	3.6910	3.6908	-1.0762	25.18	0.06	-0.750			
0.3694	23639.09	3.6880	3.6880	-1.0983	25.18	0.06	-0.750			
0.3728	23860.19	3.6850	3.6847	-1.1306	25.18	0.06	-0.750			
0.3761	24073.21	3.6820	3.6819	-1.1381	25.18	0.06	-0.750			
0.3796	24297.33	3.6790	3.6795	-1.1630	25.18	0.06	-0.750			
0.3832	24523.95	3.6760	3.6758	-1.1816	25.17	0.05	-0.750			
0.3867	24749.66	3.6730	3.6731	-1.1882	25.16	0.04	-0.750			
0.3901	24967.37	3.6700	3.6701	-1.2137	25.15	0.03	-0.750			
0.3939	25212.59	3.6670	3.6669	-1.2355	25.14	0.02	-0.750			
0.3977	25452.57	3.6640	3.6639	-1.2455	25.13	0.01	-0.750			
0.4014	25686.90	3.6610	3.6609	-1.2787	25.13	0.01	-0.750			
0.4053	25938.01	3.6580	3.6588	-1.2897	25.12	-0.00	-0.750			
0.4092	26186.22	3.6550	3.6546	-1.3099	25.12	-0.00	-0.750			
0.4130	26435.12	3.6520	3.6517	-1.3271	25.11	-0.01	-0.750			
0.4170	26684.80	3.6490	3.6491	-1.3631	25.11	-0.01	-0.750			
0.4213	26962.94	3.6460	3.6459	-1.4534	25.10	-0.02	-0.750			
0.4258	27253.32	3.6430	3.6427	-1.4947	25.09	-0.03	-0.750			
0.4304	27542.86	3.6400	3.6402	-1.5334	25.08	-0.04	-0.750			
0.4352	27853.94	3.6370	3.6373	-1.5540	25.08	-0.04	-0.750			
0.4399	28151.39	3.6340	3.6338	-1.5653	25.07	-0.05	-0.750			
0.4446	28452.55	3.6310	3.6307	-1.5586	25.07	-0.05	-0.750			
0.4492	28748.17	3.6280	3.6278	-1.5818	25.05	-0.07	-0.750			
0.4539	29052.42	3.6250	3.6250	-1.6039	25.04	-0.08	-0.750			
0.4587	29358.05	3.6220	3.6219	-1.6394	25.04	-0.08	-0.750			
0.4639	29687.19	3.6190	3.6196	-1.7081	25.03	-0.09	-0.750			
0.4692	30029.09	3.6160	3.6157	-1.7470	25.03	-0.09	-0.750			
0.4744	30361.22	3.6130	3.6131	-1.7938	25.02	-0.10	-0.750			
0.4800	30720.10	3.6100	3.6105	-1.8003	25.02	-0.10	-0.750			
0.4855	31071.59	3.6070	3.6071	-1.8311	25.01	-0.11	-0.750			
0.4909	31417.09	3.6040	3.6042	-1.8778	25.00	-0.12	-0.750			
0.4964	31767.99	3.6010	3.6010	-1.9090	24.99	-0.13	-0.750			
0.5024	32154.18	3.5980	3.5978	-1.9804	24.98	-0.14	-0.750			
0.5084	32534.62	3.5950	3.5948	-2.0775	24.98	-0.14	-0.750			
0.5148	32947.07	3.5920	3.5920	-2.1227	24.98	-0.14	-0.750			
0.5213	33361.97	3.5890	3.5887	-2.1741	24.97	-0.15	-0.750			
0.5279	33784.22	3.5860	3.5861	-2.1440	24.96	-0.16	-0.750			
0.5345	34206.42	3.5830	3.5828	-2.1477	24.96	-0.16	-0.750			
0.5408	34610.65	3.5800	3.5799	-2.1639	24.97	-0.15	-0.750			
0.5475	35038.05	3.5770	3.5767	-2.2029	24.97	-0.15	-0.750			
0.5539	35450.77	3.5740	3.5743	-2.1942	24.96	-0.16	-0.750			
0.5606	35881.14	3.5710	3.5711	-2.2218	24.96	-0.16	-0.750			
0.5675	36321.44	3.5680	3.5676	-2.2205	24.96	-0.16	-0.750			
0.5740	36733.66	3.5650	3.5651	-2.2057	24.96	-0.16	-0.750			
0.5806	37158.66	3.5620	3.5620	-2.1793	24.96	-0.16	-0.750			
0.5872	37578.10	3.5590	3.5588	-2.1882	24.96	-0.16	-0.750			
0.5936	37989.24	3.5560	3.5561	-2.1571	24.96	-0.16	-0.750			
0.5999	38396.20	3.5530	3.5532	-2.1637	24.96	-0.16	-0.750			
0.6067	38826.68	3.5500	3.5498	-2.1537	24.96	-0.16	-0.750			
0.6132	39245.55	3.5470	3.5465	-2.1462	24.97	-0.15	-0.750			
0.6195	39649.14	3.5440	3.5443	-2.0952	24.97	-0.15	-0.750			
0.6259	40057.97	3.5410	3.5410	-2.0756	24.98	-0.14	-0.750			
0.6320	40446.88	3.5380	3.5378	-2.0104	24.98	-0.14	-0.750			
0.6378	40819.00	3.5350	3.5348	-1.9696	25.00	-0.12	-0.750			
0.6438	41204.76	3.5320	3.5319	-1.9351	25.01	-0.11	-0.750			
0.6494	41564.54	3.5290	3.5292	-1.8994	25.03	-0.09	-0.750			
0.6552	41930.15	3.5260	3.5260	-1.8232	25.04	-0.08	-0.750			
0.6605	42270.04	3.5230	3.5228	-1.7969	25.05	-0.07	-0.750			
0.6658	42609.29	3.5200	3.5199	-1.7542	25.06	-0.06	-0.750			
0.6710	42945.81	3.5170	3.5168	-1.7110	25.07	-0.05	-0.750			
0.6760	43266.55	3.5140	3.5141	-1.6642	25.09	-0.03	-0.750			
0.6810	43582.43	3.5110	3.5112	-1.6243	25.11	-0.01	-0.750			
0.6859	43898.48	3.5080	3.5082	-1.5960	25.13	0.01	-0.750			
0.6906	44195.49	3.5050	3.5047	-1.5487	25.15	0.03	-0.750			
0.6951	44483.73	3.5020	3.5019	-1.4971	25.17	0.05	-0.750			
0.6996	44773.39	3.4990	3.4990	-1.4580	25.18	0.06	-0.750			
0.7039	45050.69	3.4960	3.4960	-1.4318	25.20	0.08	-0.750			
0.7081	45315.40	3.4930	3.4929	-1.3831	25.22	0.10	-0.750			
0.7121	45575.63	3.4900	3.4900	-1.3627	25.24	0.12	-0.750			
0.7162	45835.73	3.4870	3.4870	-1.3375	25.26	0.14	-0.750			
