Ah_balance (normalized)	Ah_balance (mAh)	Voltage - fit (V)	Voltage -  interpolate (V)	dQ/dV (1/V)	Temperature (°C)	Temperature - diff (°C)	Current (C)	R_DC 0ms (mOhm)	R_DC 50ms (mOhm)	R_DC 50 ms PEC (mOhm)
0.0481	3077.21	4.1980	4.1981	0.7751	25.81	0.61	0.750			
0.0504	3224.57	4.1950	4.1950	0.7648	25.81	0.61	0.750			
0.0527	3372.95	4.1920	4.1920	0.7587	25.81	0.61	0.750			
0.0549	3515.02	4.1890	4.1890	0.7529	25.82	0.62	0.750			
0.0572	3657.66	4.1860	4.1861	0.7492	25.82	0.62	0.750			
0.0594	3801.35	4.1830	4.1829	0.7499	25.82	0.62	0.750			
0.0616	3944.74	4.1800	4.1800	0.7531	25.82	0.62	0.750			
0.0639	4090.55	4.1770	4.1771	0.7528	25.82	0.62	0.750			
0.0662	4235.72	4.1740	4.1739	0.7579	25.82	0.62	0.750			
0.0685	4382.12	4.1710	4.1710	0.7585	25.82	0.62	0.750			
0.0707	4526.93	4.1680	4.1681	0.7605	25.82	0.62	0.750			
0.0730	4673.57	4.1650	4.1651	0.7634	25.82	0.62	0.750			
0.0753	4820.70	4.1620	4.1620	0.7658	25.82	0.62	0.750			
0.0776	4967.36	4.1590	4.1590	0.7647	25.82	0.62	0.750			
0.0799	5115.44	4.1560	4.1560	0.7650	25.83	0.63	0.750			
0.0822	5262.07	4.1530	4.1530	0.7622	25.83	0.63	0.750			
0.0845	5407.85	4.1500	4.1500	0.7648	25.83	0.63	0.750			
0.0868	5553.91	4.1470	4.1470	0.7645	25.83	0.63	0.750			
0.0891	5702.01	4.1440	4.1440	0.7634	25.83	0.63	0.750			
0.0914	5848.43	4.1410	4.1410	0.7654	25.83	0.63	0.750			
0.0937	5995.06	4.1380	4.1381	0.7714	25.83	0.63	0.750			
0.0960	6143.74	4.1350	4.1350	0.7744	25.83	0.63	0.750			
0.0983	6293.43	4.1320	4.1320	0.7712	25.83	0.63	0.750			
0.1006	6440.89	4.1290	4.1291	0.7729	25.84	0.64	0.750			
0.1030	6589.46	4.1260	4.1261	0.7761	25.84	0.64	0.750			
0.1053	6738.78	4.1230	4.1230	0.7795	25.84	0.64	0.750			
0.1076	6887.59	4.1200	4.1199	0.7795	25.85	0.65	0.750			
0.1100	7037.55	4.1170	4.1169	0.7811	25.85	0.65	0.750			
0.1123	7188.98	4.1140	4.1140	0.7857	25.85	0.65	0.750			
0.1147	7341.75	4.1110	4.1110	0.7815	25.85	0.65	0.750			
0.1170	7490.05	4.1080	4.1080	0.7834	25.85	0.65	0.750			
0.1194	7640.36	4.1050	4.1051	0.7870	25.85	0.65	0.750			
0.1217	7790.49	4.1020	4.1019	0.7883	25.85	0.65	0.750			
0.1241	7942.47	4.0990	4.0990	0.7927	25.85	0.65	0.750			
0.1265	8096.50	4.0960	4.0961	0.7951	25.86	0.66	0.750			
0.1289	8249.76	4.0930	4.0930	0.7945	25.86	0.66	0.750			
0.1313	8403.79	4.0900	4.0900	0.7989	25.86	0.66	0.750			
0.1337	8554.23	4.0870	4.0870	0.7963	25.87	0.67	0.750			
0.1361	8707.64	4.0840	4.0840	0.7999	25.87	0.67	0.750			
0.1385	8864.63	4.0810	4.0809	0.7933	25.87	0.67	0.750			
0.1409	9014.82	4.0780	4.0781	0.7958	25.87	0.67	0.750			
0.1432	9167.04	4.0750	4.0751	0.8019	25.87	0.67	0.750			
0.1456	9320.44	4.0720	4.0721	0.8056	25.87	0.67	0.750			
0.1480	9474.62	4.0690	4.0688	0.8062	25.87	0.67	0.750			
0.1505	9631.46	4.0660	4.0660	0.8100	25.87	0.67	0.750			
0.1530	9788.91	4.0630	4.0631	0.8171	25.87	0.67	0.750			
0.1554	9947.14	4.0600	4.0600	0.8224	25.87	0.67	0.750			
0.1579	10103.06	4.0570	4.0570	0.8205	25.87	0.67	0.750			
0.1603	10260.28	4.0540	4.0539	0.8218	25.87	0.67	0.750			
0.1628	10419.74	4.0510	4.0511	0.8254	25.87	0.67	0.750			
0.1653	10579.08	4.0480	4.0480	0.8246	25.88	0.68	0.750			
0.1677	10735.78	4.0450	4.0451	0.8267	25.88	0.68	0.750			
0.1702	10894.25	4.0420	4.0420	0.8268	25.89	0.69	0.750			
0.1727	11052.90	4.0390	4.0387	0.8297	25.89	0.69	0.750			
0.1752	11213.60	4.0360	4.0361	0.8288	25.89	0.69	0.750			
0.1777	11373.21	4.0330	4.0331	0.8346	25.89	0.69	0.750			
0.1802	11535.06	4.0300	4.0300	0.8443	25.89	0.69	0.750			
0.1827	11695.15	4.0270	4.0270	0.8418	25.89	0.69	0.750			
0.1853	11856.88	4.0240	4.0238	0.8460	25.89	0.69	0.750			
0.1878	12022.13	4.0210	4.0211	0.8501	25.89	0.69	0.750			
0.1904	12186.04	4.0180	4.0180	0.8549	25.89	0.69	0.750			
0.1930	12350.67	4.0150	4.0151	0.8572	25.90	0.70	0.750			
0.1956	12517.55	4.0120	4.0119	0.8506	25.90	0.70	0.750			
0.1981	12677.89	4.0090	4.0090	0.8435	25.90	0.70	0.750			
0.2006	12841.20	4.0060	4.0061	0.8402	25.90	0.70	0.750			
0.2031	13000.89	4.0030	4.0030	0.8406	25.90	0.70	0.750			
0.2056	13160.47	4.0000	3.9999	0.8464	25.91	0.71	0.750			
0.2081	13320.90	3.9970	3.9971	0.8530	25.91	0.71	0.750			
0.2107	13485.77	3.9940	3.9940	0.8607	25.91	0.71	0.750			
0.2134	13654.75	3.9910	3.9910	0.8683	25.91	0.71	0.750			
0.2160	13823.25	3.9880	3.9880	0.8698	25.91	0.71	0.750			
0.2186	13991.29	3.9850	3.9851	0.8717	25.92	0.72	0.750			
0.2212	14157.61	3.9820	3.9820	0.8680	25.92	0.72	0.750			
0.2238	14323.39	3.9790	3.9790	0.8711	25.92	0.72	0.750			
0.2264	14490.31	3.9760	3.9759	0.8687	25.92	0.72	0.750			
0.2290	14657.27	3.9730	3.9730	0.8788	25.92	0.72	0.750			
0.2317	14827.65	3.9700	3.9700	0.8855	25.92	0.72	0.750			
0.2343	14998.00	3.9670	3.9668	0.8869	25.92	0.72	0.750			
0.2370	15170.15	3.9640	3.9641	0.8865	25.92	0.72	0.750			
0.2397	15339.32	3.9610	3.9610	0.8830	25.92	0.72	0.750			
0.2423	15508.26	3.9580	3.9581	0.8825	25.93	0.73	0.750			
0.2450	15676.91	3.9550	3.9550	0.8852	25.93	0.73	0.750			
0.2476	15845.27	3.9520	3.9518	0.8831	25.93	0.73	0.750			
0.2502	16015.17	3.9490	3.9491	0.8883	25.93	0.73	0.750			
0.2529	16186.30	3.9460	3.9460	0.8808	25.93	0.73	0.750			
0.2556	16356.81	3.9430	3.9431	0.8868	25.93	0.73	0.750			
0.2582	16524.50	3.9400	3.9401	0.8857	25.93	0.73	0.750			
0.2608	16694.23	3.9370	3.9372	0.8896	25.93	0.73	0.750			
0.2635	16866.60	3.9340	3.9342	0.8884	25.93	0.73	0.750			
0.2662	17037.97	3.9310	3.9310	0.8964	25.93	0.73	0.750			
0.2689	17211.24	3.9280	3.9280	0.8985	25.93	0.73	0.750			
0.2716	17383.02	3.9250	3.9249	0.8900	25.93	0.73	0.750			
0.2743	17554.33	3.9220	3.9220	0.8925	25.93	0.73	0.750			
0.2770	17725.29	3.9190	3.9191	0.8860	25.92	0.72	0.750			
0.2796	17896.05	3.9160	3.9160	0.8860	25.92	0.72	0.750			
0.2823	18066.65	3.9130	3.9130	0.8878	25.91	0.71	0.750			
0.2849	18234.35	3.9100	3.9096	0.8829	25.91	0.71	0.750			
0.2876	18405.67	3.9070	3.9072	0.8800	25.91	0.71	0.750			
0.2902	18574.37	3.9040	3.9040	0.8821	25.90	0.70	0.750			
0.2929	18743.59	3.9010	3.9010	0.8866	25.90	0.70	0.750			
0.2955	18913.27	3.8980	3.8981	0.8824	25.89	0.69	0.750			
0.2982	19083.93	3.8950	3.8951	0.8826	25.89	0.69	0.750			
0.3008	19252.92	3.8920	3.8921	0.8822	25.88	0.68	0.750			
0.3035	19422.87	3.8890	3.8890	0.8841	25.88	0.68	0.750			
0.3061	19593.13	3.8860	3.8859	0.8865	25.88	0.68	0.750			
0.3088	19760.89	3.8830	3.8830	0.8845	25.87	0.67	0.750			
0.3114	19931.23	3.8800	3.8801	0.8900	25.87	0.67	0.750			
0.3141	20104.78	3.8770	3.8769	0.8886	25.86	0.66	0.750			
0.3168	20274.04	3.8740	3.8740	0.8986	25.86	0.66	0.750			
0.3195	20445.61	3.8710	3.8712	0.9031	25.85	0.65	0.750			
0.3222	20620.57	3.8680	3.8675	0.9008	25.85	0.65	0.750			
0.3249	20794.40	3.8650	3.8652	0.9039	25.84	0.64	0.750			
0.3276	20966.69	3.8620	3.8621	0.8933	25.83	0.63	0.750			
0.3303	21136.35	3.8590	3.8589	0.8963	25.82	0.62	0.750			
0.3329	21303.86	3.8560	3.8562	0.8950	25.82	0.62	0.750			
0.3356	21476.63	3.8530	3.8524	0.9098	25.81	0.61	0.750			
0.3384	21656.39	3.8500	3.8502	0.9143	25.80	0.60	0.750			
0.3412	21833.97	3.8470	3.8471	0.9337	25.79	0.59	0.750			
0.3440	22015.13	3.8440	3.8441	0.9548	25.78	0.58	0.750			
0.3468	22196.62	3.8410	3.8409	0.9553	25.77	0.57	0.750			
0.3498	22387.51	3.8380	3.8375	0.9560	25.76	0.56	0.750	0.308	0.447	
0.3527	22570.56	3.8350	3.8352	0.9668	25.75	0.55	0.750			
0.3556	22759.80	3.8320	3.8321	0.9769	25.74	0.54	0.750			
0.3586	22948.04	3.8290	3.8292	0.9781	25.73	0.53	0.750			
0.3614	23132.76	3.8260	3.8261	0.9601	25.72	0.52	0.750			
0.3643	23316.50	3.8230	3.8231	0.9650	25.71	0.51	0.750			
0.3672	23501.79	3.8200	3.8201	0.9838	25.70	0.50	0.750			
0.3702	23694.06	3.8170	3.8170	0.9924	25.69	0.49	0.750			
0.3732	23886.07	3.8140	3.8139	0.9914	25.68	0.48	0.750			
0.3762	24077.42	3.8110	3.8113	1.0035	25.66	0.46	0.750			
0.3792	24270.85	3.8080	3.8079	1.0150	25.65	0.45	0.750			
0.3823	24467.29	3.8050	3.8049	1.0251	25.64	0.44	0.750			
0.3853	24660.77	3.8020	3.8020	1.0277	25.63	0.43	0.750			
0.3884	24856.85	3.7990	3.7991	1.0318	25.62	0.42	0.750			
0.3916	25061.04	3.7960	3.7960	1.0615	25.61	0.41	0.750			
0.3948	25265.62	3.7930	3.7930	1.0752	25.60	0.40	0.750			
0.3981	25475.70	3.7900	3.7900	1.0773	25.59	0.39	0.750			
0.4013	25682.84	3.7870	3.7871	1.0962	25.57	0.37	0.750			
0.4046	25893.80	3.7840	3.7841	1.1263	25.56	0.36	0.750			
0.4080	26111.59	3.7810	3.7811	1.1495	25.54	0.34	0.750			
0.4114	26332.76	3.7780	3.7781	1.1667	25.53	0.33	0.750			
0.4150	26559.39	3.7750	3.7752	1.1940	25.52	0.32	0.750			
0.4187	26795.58	3.7720	3.7720	1.2236	25.52	0.32	0.750			
0.4224	27036.56	3.7690	3.7689	1.2346	25.51	0.31	0.750			
0.4261	27271.41	3.7660	3.7660	1.2470	25.49	0.29	0.750			
0.4299	27511.07	3.7630	3.7631	1.2706	25.47	0.27	0.750			
0.4337	27756.07	3.7600	3.7598	1.3017	25.46	0.26	0.750			
0.4376	28004.24	3.7570	3.7570	1.3167	25.44	0.24	0.750			
0.4415	28256.27	3.7540	3.7541	1.3474	25.43	0.23	0.750			
0.4456	28518.29	3.7510	3.7512	1.3854	25.42	0.22	0.750			
0.4500	28799.63	3.7480	3.7481	1.3871	25.40	0.20	0.750			
0.4541	29061.33	3.7450	3.7452	1.4332	25.39	0.19	0.750			
0.4584	29337.69	3.7420	3.7422	1.4663	25.37	0.17	0.750			
0.4630	29631.64	3.7390	3.7392	1.4860	25.36	0.16	0.750			
0.4673	29910.38	3.7360	3.7364	1.5087	25.34	0.14	0.750			
0.4719	30203.52	3.7330	3.7329	1.5622	25.32	0.12	0.750			
0.4768	30513.15	3.7300	3.7297	1.6132	25.31	0.11	0.750			
0.4818	30836.60	3.7270	3.7269	1.6773	25.30	0.10	0.750			
0.4868	31155.48	3.7240	3.7241	1.7156	25.28	0.08	0.750			
0.4921	31491.96	3.7210	3.7213	1.8258	25.27	0.07	0.750			
0.4976	31849.57	3.7180	3.7184	1.8513	25.25	0.05	0.750			
0.5032	32205.26	3.7150	3.7150	1.8972	25.23	0.03	0.750			
0.5090	32572.94	3.7120	3.7121	1.9757	25.20	0.00	0.750			
0.5150	32959.76	3.7090	3.7093	1.9993	25.19	-0.01	0.750			
0.5211	33351.66	3.7060	3.7060	2.0315	25.18	-0.02	0.750			
0.5274	33752.41	3.7030	3.7030	2.1153	25.16	-0.04	0.750			
0.5336	34152.26	3.7000	3.7001	2.1503	25.14	-0.06	0.750			
0.5400	34561.80	3.6970	3.6974	2.2875	25.13	-0.07	0.750			
0.5467	34988.77	3.6940	3.6940	2.2640	25.12	-0.08	0.750			
0.5538	35442.34	3.6910	3.6910	2.3255	25.11	-0.09	0.750			
0.5612	35915.38	3.6880	3.6884	2.4431	25.10	-0.10	0.750			
0.5687	36394.74	3.6850	3.6847	2.4139	25.09	-0.11	0.750			
0.5762	36875.17	3.6820	3.6825	2.5579	25.07	-0.13	0.750			
0.5836	37347.42	3.6790	3.6791	2.4392	25.06	-0.14	0.750			
0.5910	37822.12	3.6760	3.6759	2.4052	25.06	-0.14	0.750			
0.5981	38280.41	3.6730	3.6732	2.3944	25.06	-0.14	0.750			
0.6054	38743.63	3.6700	3.6702	2.2605	25.05	-0.15	0.750			
0.6123	39187.12	3.6670	3.6668	2.2374	25.05	-0.15	0.750			
0.6186	39591.01	3.6640	3.6641	2.0579	25.06	-0.14	0.750			
0.6245	39966.65	3.6610	3.6611	1.9051	25.06	-0.14	0.750			
0.6299	40310.77	3.6580	3.6578	1.7611	25.07	-0.13	0.750			
0.6349	40630.60	3.6550	3.6542	1.6256	25.07	-0.13	0.750			
0.6396	40933.44	3.6520	3.6522	1.5180	25.07	-0.13	0.750			
0.6440	41214.45	3.6490	3.6492	1.4135	25.08	-0.12	0.750			
0.6481	41478.61	3.6460	3.6459	1.3018	25.08	-0.12	0.750			
0.6519	41722.81	3.6430	3.6428	1.2402	25.09	-0.11	0.750			
0.6552	41934.77	3.6400	3.6401	1.1398	25.10	-0.10	0.750			
0.6585	42146.68	3.6370	3.6370	1.0894	25.11	-0.09	0.750			
0.6617	42348.37	3.6340	3.6340	1.0409	25.11	-0.09	0.750			
0.6647	42542.71	3.6310	3.6311	0.9901	25.12	-0.08	0.750			
0.6676	42726.19	3.6280	3.6281	0.9549	25.12	-0.08	0.750			
0.6704	42905.90	3.6250	3.6251	0.9288	25.13	-0.07	0.750			
0.6731	43078.56	3.6220	3.6215	0.8918	25.13	-0.07	0.750			
0.6758	43252.10	3.6190	3.6191	0.8279	25.14	-0.06	0.750			
0.6782	43404.58	3.6160	3.6162	0.7985	25.15	-0.05	0.750			
0.6805	43554.50	3.6130	3.6134	0.7692	25.16	-0.04	0.750			
0.6828	43696.43	3.6100	3.6093	0.7182	25.16	-0.04	0.750			
0.6849	43830.72	3.6070	3.6073	0.6733	25.17	-0.03	0.750			
0.6868	43957.84	3.6040	3.6043	0.6330	25.17	-0.03	0.750			
0.6888	44083.30	3.6010	3.6011	0.5941	25.18	-0.02	0.750			
0.6905	44194.46	3.5980	3.5980	0.5300	25.18	-0.02	0.750			
0.6919	44284.34	3.5950	3.5949	0.4648	25.19	-0.01	0.750			
0.6933	44368.48	3.5920	3.5920	0.4148	25.19	-0.01	0.750			
0.6944	44443.20	3.5890	3.5890	0.3647	25.19	-0.01	0.750			
0.6954	44507.98	3.5860	3.5861	0.3144	25.20	-0.00	0.750			
0.6963	44564.04	3.5830	3.5829	0.2658	25.20	-0.00	0.750			
0.6970	44610.11	3.5800	3.5801	0.2162	25.20	-0.00	0.750			
0.6976	44646.94	3.5770	3.5771	0.1673	25.20	0.00	0.750			
0.6980	44673.87	3.5740	3.5748	0.1199	25.20	0.00	0.750			
0.6983	44692.34	3.5710	3.5724	0.0668	25.20	0.00	0.750			
