Ah_balance (normalized)	Ah_balance (mAh)	Voltage - fit (V)	Voltage -  interpolate (V)	dQ/dV (1/V)	Temperature (°C)	Temperature - diff (°C)	Current (C)	R_DC 0ms (mOhm)	R_DC 50ms (mOhm)	R_DC 50 ms PEC (mOhm)
0.0483	3091.11	4.1970	4.1970	0.7547	25.49	0.47	0.750			
0.0506	3237.34	4.1940	4.1940	0.7618	25.49	0.47	0.750			
0.0529	3383.40	4.1910	4.1910	0.7607	25.49	0.47	0.750			
0.0552	3531.12	4.1880	4.1880	0.7529	25.49	0.47	0.750			
0.0574	3674.14	4.1850	4.1851	0.7545	25.49	0.47	0.750			
0.0597	3818.49	4.1820	4.1820	0.7542	25.49	0.47	0.750			
0.0619	3962.53	4.1790	4.1790	0.7559	25.49	0.47	0.750			
0.0642	4107.44	4.1760	4.1761	0.7581	25.49	0.47	0.750			
0.0665	4254.41	4.1730	4.1730	0.7611	25.49	0.47	0.750			
0.0688	4400.36	4.1700	4.1699	0.7572	25.49	0.47	0.750			
0.0710	4545.33	4.1670	4.1672	0.7645	25.49	0.47	0.750			
0.0733	4690.51	4.1640	4.1640	0.7607	25.49	0.47	0.750			
0.0756	4836.63	4.1610	4.1610	0.7639	25.49	0.47	0.750			
0.0779	4983.08	4.1580	4.1581	0.7650	25.49	0.47	0.750			
0.0802	5131.73	4.1550	4.1552	0.7657	25.49	0.47	0.750			
0.0825	5281.16	4.1520	4.1520	0.7753	25.49	0.47	0.750			
0.0848	5428.06	4.1490	4.1491	0.7649	25.49	0.47	0.750			
0.0871	5576.50	4.1460	4.1459	0.7675	25.49	0.47	0.750			
0.0895	5727.39	4.1430	4.1430	0.7604	25.49	0.47	0.750			
0.0918	5872.37	4.1400	4.1401	0.7468	25.49	0.47	0.750			
0.0939	6010.87	4.1370	4.1371	0.7552	25.49	0.47	0.750			
0.0962	6154.23	4.1340	4.1342	0.7522	25.49	0.47	0.750			
0.0984	6295.70	4.1310	4.1314	0.7522	25.49	0.47	0.750			
0.1006	6438.75	4.1280	4.1281	0.7651	25.49	0.47	0.750			
0.1029	6586.82	4.1250	4.1255	0.7875	25.49	0.47	0.750			
0.1054	6744.06	4.1220	4.1225	0.7835	25.50	0.48	0.750			
0.1078	6897.26	4.1190	4.1194	0.7964	25.50	0.48	0.750			
0.1101	7047.34	4.1160	4.1164	0.7931	25.51	0.49	0.750			
0.1126	7208.58	4.1130	4.1123	0.8100	25.51	0.49	0.750			
0.1150	7359.53	4.1100	4.1101	0.7970	25.51	0.49	0.750			
0.1174	7510.63	4.1070	4.1071	0.7974	25.51	0.49	0.750			
0.1198	7664.09	4.1040	4.1041	0.7993	25.51	0.49	0.750			
0.1222	7821.20	4.1010	4.1010	0.7932	25.51	0.49	0.750			
0.1246	7973.81	4.0980	4.0980	0.7923	25.51	0.49	0.750			
0.1270	8126.03	4.0950	4.0950	0.7925	25.51	0.49	0.750			
0.1294	8278.67	4.0920	4.0920	0.7863	25.51	0.49	0.750			
0.1317	8427.57	4.0890	4.0889	0.7884	25.52	0.50	0.750			
0.1340	8577.38	4.0860	4.0861	0.7939	25.52	0.50	0.750			
0.1364	8730.54	4.0830	4.0830	0.7969	25.52	0.50	0.750			
0.1388	8885.31	4.0800	4.0801	0.8035	25.52	0.50	0.750			
0.1413	9043.35	4.0770	4.0770	0.7963	25.52	0.50	0.750			
0.1437	9194.19	4.0740	4.0741	0.8047	25.52	0.50	0.750			
0.1461	9348.88	4.0710	4.0710	0.8095	25.52	0.50	0.750			
0.1485	9502.40	4.0680	4.0681	0.8098	25.52	0.50	0.750			
0.1509	9657.00	4.0650	4.0648	0.8139	25.52	0.50	0.750			
0.1534	9817.30	4.0620	4.0622	0.8194	25.52	0.50	0.750			
0.1559	9975.52	4.0590	4.0590	0.8262	25.52	0.50	0.750			
0.1584	10135.39	4.0560	4.0560	0.8283	25.53	0.51	0.750			
0.1608	10293.10	4.0530	4.0531	0.8235	25.53	0.51	0.750			
0.1633	10452.11	4.0500	4.0498	0.8281	25.53	0.51	0.750			
0.1659	10614.47	4.0470	4.0470	0.8239	25.53	0.51	0.750			
0.1683	10770.54	4.0440	4.0441	0.8303	25.53	0.51	0.750			
0.1708	10929.47	4.0410	4.0410	0.8362	25.54	0.52	0.750			
0.1733	11090.64	4.0380	4.0381	0.8373	25.54	0.52	0.750			
0.1758	11251.69	4.0350	4.0347	0.8399	25.54	0.52	0.750			
0.1783	11413.23	4.0320	4.0321	0.8435	25.54	0.52	0.750			
0.1809	11576.63	4.0290	4.0291	0.8413	25.54	0.52	0.750			
0.1834	11735.91	4.0260	4.0261	0.8463	25.55	0.53	0.750			
0.1859	11896.27	4.0230	4.0231	0.8461	25.55	0.53	0.750			
0.1884	12060.29	4.0200	4.0201	0.8512	25.55	0.53	0.750			
0.1910	12226.74	4.0170	4.0171	0.8564	25.55	0.53	0.750			
0.1936	12393.05	4.0140	4.0141	0.8656	25.55	0.53	0.750			
0.1963	12560.29	4.0110	4.0111	0.8682	25.56	0.54	0.750			
0.1988	12725.99	4.0080	4.0080	0.8584	25.56	0.54	0.750			
0.2014	12891.37	4.0050	4.0050	0.8634	25.56	0.54	0.750			
0.2040	13058.85	4.0020	4.0020	0.8544	25.56	0.54	0.750			
0.2066	13221.98	3.9990	3.9991	0.8650	25.57	0.55	0.750			
0.2092	13388.24	3.9960	3.9960	0.8710	25.57	0.55	0.750			
0.2118	13553.12	3.9930	3.9931	0.8739	25.57	0.55	0.750			
0.2144	13723.65	3.9900	3.9901	0.8773	25.57	0.55	0.750			
0.2172	13897.88	3.9870	3.9870	0.8657	25.57	0.55	0.750			
0.2197	14061.42	3.9840	3.9841	0.8732	25.57	0.55	0.750			
0.2223	14228.15	3.9810	3.9812	0.8803	25.57	0.55	0.750			
0.2249	14392.45	3.9780	3.9775	0.8770	25.57	0.55	0.750			
0.2275	14562.52	3.9750	3.9752	0.8854	25.57	0.55	0.750			
0.2302	14733.85	3.9720	3.9720	0.8901	25.57	0.55	0.750			
0.2329	14907.97	3.9690	3.9691	0.8974	25.58	0.56	0.750			
0.2357	15085.06	3.9660	3.9660	0.9026	25.58	0.56	0.750			
0.2383	15252.84	3.9630	3.9630	0.8934	25.58	0.56	0.750			
0.2411	15427.94	3.9600	3.9599	0.8818	25.58	0.56	0.750			
0.2437	15594.50	3.9570	3.9569	0.8875	25.58	0.56	0.750			
0.2463	15763.23	3.9540	3.9542	0.8936	25.59	0.57	0.750			
0.2490	15935.60	3.9510	3.9511	0.8985	25.59	0.57	0.750			
0.2517	16108.14	3.9480	3.9481	0.9033	25.59	0.57	0.750			
0.2545	16286.76	3.9450	3.9450	0.8801	25.59	0.57	0.750			
0.2571	16452.47	3.9420	3.9422	0.8989	25.59	0.57	0.750			
0.2598	16625.83	3.9390	3.9392	0.9060	25.59	0.57	0.750			
0.2624	16796.40	3.9360	3.9357	0.9026	25.59	0.57	0.750			
0.2652	16971.91	3.9330	3.9332	0.9112	25.59	0.57	0.750			
0.2679	17148.10	3.9300	3.9302	0.9206	25.59	0.57	0.750			
0.2708	17328.69	3.9270	3.9270	0.9200	25.60	0.58	0.750			
0.2736	17507.96	3.9240	3.9241	0.9083	25.60	0.58	0.750			
0.2763	17681.86	3.9210	3.9211	0.9083	25.60	0.58	0.750			
0.2790	17858.22	3.9180	3.9179	0.9004	25.60	0.58	0.750			
0.2817	18028.60	3.9150	3.9150	0.9030	25.59	0.57	0.750			
0.2844	18201.15	3.9120	3.9120	0.9041	25.59	0.57	0.750			
0.2871	18373.03	3.9090	3.9089	0.9092	25.59	0.57	0.750			
0.2898	18549.67	3.9060	3.9061	0.9145	25.59	0.57	0.750			
0.2926	18726.45	3.9030	3.9030	0.9010	25.59	0.57	0.750			
0.2953	18896.75	3.9000	3.9001	0.9116	25.59	0.57	0.750			
0.2980	19072.68	3.8970	3.8972	0.9208	25.59	0.57	0.750			
0.3007	19246.88	3.8940	3.8935	0.9236	25.59	0.57	0.750			
0.3035	19425.66	3.8910	3.8911	0.9281	25.58	0.56	0.750			
0.3063	19605.89	3.8880	3.8881	0.9276	25.58	0.56	0.750			
0.3092	19789.26	3.8850	3.8852	0.9343	25.58	0.56	0.750			
0.3120	19966.04	3.8820	3.8819	0.9169	25.57	0.55	0.750			
0.3147	20143.01	3.8790	3.8790	0.9096	25.57	0.55	0.750			
0.3174	20314.86	3.8760	3.8759	0.9116	25.56	0.54	0.750			
0.3201	20488.77	3.8730	3.8731	0.9145	25.56	0.54	0.750			
0.3229	20666.16	3.8700	3.8700	0.9196	25.55	0.53	0.750			
0.3257	20843.13	3.8670	3.8669	0.9222	25.55	0.53	0.750			
0.3285	21024.87	3.8640	3.8640	0.9021	25.54	0.52	0.750			
0.3312	21195.72	3.8610	3.8611	0.9086	25.54	0.52	0.750			
0.3338	21366.03	3.8580	3.8581	0.9172	25.54	0.52	0.750			
0.3366	21540.39	3.8550	3.8551	0.9193	25.53	0.51	0.750			
0.3394	21718.40	3.8520	3.8522	0.9233	25.52	0.50	0.750			
0.3421	21896.74	3.8490	3.8492	0.9334	25.52	0.50	0.750			
0.3450	22079.56	3.8460	3.8461	0.9413	25.51	0.49	0.750			
0.3478	22261.54	3.8430	3.8430	0.9541	25.50	0.48	0.750			
0.3507	22442.28	3.8400	3.8400	0.9461	25.49	0.47	0.750			
0.3535	22626.85	3.8370	3.8369	0.9415	25.48	0.46	0.750	0.341	0.435	
0.3564	22808.59	3.8340	3.8342	0.9566	25.47	0.45	0.750			
0.3593	22992.94	3.8310	3.8312	0.9669	25.46	0.44	0.750			
0.3622	23178.72	3.8280	3.8277	0.9714	25.45	0.43	0.750			
0.3651	23366.99	3.8250	3.8250	0.9631	25.45	0.43	0.750			
0.3680	23549.81	3.8220	3.8222	0.9787	25.44	0.42	0.750			
0.3709	23739.76	3.8190	3.8191	0.9943	25.44	0.42	0.750			
0.3740	23934.92	3.8160	3.8160	1.0051	25.43	0.41	0.750			
0.3770	24125.18	3.8130	3.8131	1.0029	25.42	0.40	0.750			
0.3800	24318.51	3.8100	3.8102	1.0150	25.41	0.39	0.750			
0.3831	24516.88	3.8070	3.8070	1.0265	25.40	0.38	0.750			
0.3862	24717.66	3.8040	3.8039	1.0368	25.39	0.37	0.750			
0.3893	24912.93	3.8010	3.8010	1.0283	25.38	0.36	0.750			
0.3923	25109.77	3.7980	3.7981	1.0491	25.37	0.35	0.750			
0.3955	25312.88	3.7950	3.7950	1.0657	25.36	0.34	0.750			
0.3987	25518.08	3.7920	3.7920	1.0813	25.35	0.33	0.750			
0.4020	25725.98	3.7890	3.7892	1.0983	25.34	0.32	0.750			
0.4052	25935.45	3.7860	3.7860	1.1023	25.33	0.31	0.750			
0.4085	26147.14	3.7830	3.7831	1.1270	25.32	0.30	0.750			
0.4120	26366.13	3.7800	3.7799	1.1461	25.31	0.29	0.750			
0.4154	26584.81	3.7770	3.7772	1.1658	25.30	0.28	0.750			
0.4190	26813.15	3.7740	3.7742	1.1981	25.29	0.27	0.750			
0.4226	27047.65	3.7710	3.7711	1.2264	25.28	0.26	0.750			
0.4264	27292.61	3.7680	3.7680	1.2578	25.27	0.25	0.750			
0.4301	27525.27	3.7650	3.7651	1.2580	25.26	0.24	0.750			
0.4339	27768.25	3.7620	3.7621	1.2864	25.25	0.23	0.750			
0.4379	28022.55	3.7590	3.7588	1.2956	25.24	0.22	0.750			
0.4417	28268.95	3.7560	3.7561	1.3295	25.23	0.21	0.750			
0.4457	28524.62	3.7530	3.7532	1.3631	25.21	0.19	0.750			
0.4498	28789.90	3.7500	3.7494	1.4020	25.20	0.18	0.750			
0.4541	29065.26	3.7470	3.7471	1.4105	25.19	0.17	0.750			
0.4583	29328.77	3.7440	3.7442	1.4337	25.18	0.16	0.750			
0.4627	29612.20	3.7410	3.7412	1.4460	25.17	0.15	0.750			
0.4671	29893.42	3.7380	3.7374	1.5046	25.16	0.14	0.750			
0.4715	30177.68	3.7350	3.7346	1.5124	25.14	0.12	0.750			
0.4762	30474.57	3.7320	3.7325	1.5594	25.13	0.11	0.750			
0.4809	30778.88	3.7290	3.7296	1.6424	25.12	0.10	0.750			
0.4860	31101.83	3.7260	3.7266	1.6945	25.10	0.08	0.750			
0.4911	31431.68	3.7230	3.7235	1.7636	25.09	0.07	0.750			
0.4966	31783.90	3.7200	3.7198	1.8447	25.07	0.05	0.750			
0.5023	32145.66	3.7170	3.7168	1.9058	25.06	0.04	0.750			
0.5081	32520.45	3.7140	3.7136	1.8690	25.05	0.03	0.750			
0.5137	32877.07	3.7110	3.7113	1.9405	25.04	0.02	0.750			
0.5195	33246.52	3.7080	3.7082	1.9670	25.02	-0.00	0.750			
0.5255	33630.56	3.7050	3.7043	2.0540	25.00	-0.02	0.750			
0.5317	34027.80	3.7020	3.7021	2.1681	24.99	-0.03	0.750			
0.5385	34466.48	3.6990	3.6987	2.2915	24.98	-0.04	0.750			
0.5452	34890.85	3.6960	3.6959	2.3325	24.96	-0.06	0.750			
0.5523	35348.06	3.6930	3.6924	2.4056	24.95	-0.07	0.750			
0.5593	35796.17	3.6900	3.6901	2.3012	24.94	-0.08	0.750			
0.5664	36246.67	3.6870	3.6861	2.4468	24.92	-0.10	0.750			
0.5738	36725.86	3.6840	3.6841	2.5231	24.91	-0.11	0.750			
0.5817	37225.77	3.6810	3.6801	2.7346	24.90	-0.12	0.750			
0.5898	37744.73	3.6780	3.6780	2.5508	24.90	-0.12	0.750			
0.5971	38217.05	3.6750	3.6749	2.6889	24.90	-0.12	0.750			
0.6049	38716.40	3.6720	3.6717	2.5931	24.90	-0.12	0.750			
0.6126	39208.56	3.6690	3.6697	2.5909	24.90	-0.12	0.750			
0.6206	39717.50	3.6660	3.6660	2.4327	24.90	-0.12	0.750			
0.6274	40153.11	3.6630	3.6634	2.2594	24.90	-0.12	0.750			
0.6335	40545.84	3.6600	3.6596	2.0737	24.90	-0.12	0.750			
0.6392	40911.26	3.6570	3.6564	1.8907	24.90	-0.12	0.750			
0.6447	41259.41	3.6540	3.6537	1.7436	24.91	-0.11	0.750			
0.6501	41604.40	3.6510	3.6510	1.6571	24.92	-0.10	0.750			
0.6545	41886.77	3.6480	3.6481	1.4747	24.93	-0.09	0.750			
0.6586	42150.57	3.6450	3.6451	1.3466	24.93	-0.09	0.750			
0.6624	42392.94	3.6420	3.6416	1.2380	24.94	-0.08	0.750			
0.6660	42626.21	3.6390	3.6390	1.1450	24.95	-0.07	0.750			
0.6693	42833.27	3.6360	3.6361	1.0911	24.95	-0.07	0.750			
0.6724	43031.79	3.6330	3.6332	1.0486	24.96	-0.06	0.750			
0.6754	43226.29	3.6300	3.6290	1.0005	24.96	-0.06	0.750			
0.6783	43414.16	3.6270	3.6272	0.9705	24.97	-0.05	0.750			
0.6813	43600.10	3.6240	3.6241	0.9425	24.97	-0.05	0.750			
0.6841	43782.37	3.6210	3.6212	0.9159	24.97	-0.05	0.750			
0.6870	43965.18	3.6180	3.6179	0.8944	24.98	-0.04	0.750			
0.6895	44128.20	3.6150	3.6149	0.8119	24.99	-0.03	0.750			
0.6919	44280.67	3.6120	3.6120	0.7432	24.99	-0.03	0.750			
0.6940	44416.29	3.6090	3.6091	0.6980	25.00	-0.02	0.750			
0.6959	44540.02	3.6060	3.6065	0.6476	25.01	-0.01	0.750			
0.6978	44659.14	3.6030	3.6029	0.6003	25.01	-0.01	0.750			
0.6995	44769.51	3.6000	3.6004	0.5478	25.02	-0.00	0.750			
0.7011	44871.70	3.5970	3.5974	0.5040	25.02	0.00	0.750			
0.7026	44966.37	3.5940	3.5941	0.4524	25.03	0.01	0.750			
0.7040	45052.87	3.5910	3.5910	0.3993	25.03	0.01	0.750			
0.7050	45119.75	3.5880	3.5879	0.3391	25.04	0.02	0.750			
0.7059	45179.25	3.5850	3.5849	0.2837	25.04	0.02	0.750			
0.7067	45229.64	3.5820	3.5820	0.2339	25.04	0.02	0.750			
0.7073	45269.25	3.5790	3.5790	0.1808	25.04	0.02	0.750			
0.7078	45299.63	3.5760	3.5763	0.1269	25.04	0.02	0.750			
0.7081	45319.98	3.5730	3.5738	0.0674	25.05	0.03	0.750			
0.7082	45327.28	3.5700	3.5707	0.0238	25.05	0.03	0.750			
