Ah_balance (normalized)	Ah_balance (mAh)	Voltage - fit (V)	Voltage -  interpolate (V)	dQ/dV (1/V)	Temperature (°C)	Temperature - diff (°C)	Current (C)	R_DC 0ms (mOhm)	R_DC 50ms (mOhm)	R_DC 50 ms PEC (mOhm)
0.0491	3143.74	4.1970	4.1971	0.7353	25.45	0.47	0.750			
0.0514	3287.49	4.1940	4.1941	0.7508	25.45	0.47	0.750			
0.0536	3432.04	4.1910	4.1911	0.7530	25.45	0.47	0.750			
0.0559	3576.47	4.1880	4.1880	0.7561	25.45	0.47	0.750			
0.0582	3722.52	4.1850	4.1850	0.7584	25.45	0.47	0.750			
0.0604	3867.45	4.1820	4.1820	0.7563	25.45	0.47	0.750			
0.0627	4013.69	4.1790	4.1790	0.7584	25.45	0.47	0.750			
0.0650	4159.42	4.1760	4.1760	0.7575	25.45	0.47	0.750			
0.0673	4306.18	4.1730	4.1730	0.7541	25.45	0.47	0.750			
0.0695	4449.50	4.1700	4.1700	0.7580	25.45	0.47	0.750			
0.0718	4594.87	4.1670	4.1671	0.7585	25.45	0.47	0.750			
0.0741	4741.02	4.1640	4.1640	0.7608	25.45	0.47	0.750			
0.0764	4887.28	4.1610	4.1611	0.7623	25.45	0.47	0.750			
0.0787	5034.05	4.1580	4.1581	0.7640	25.45	0.47	0.750			
0.0810	5181.23	4.1550	4.1550	0.7629	25.45	0.47	0.750			
0.0832	5327.84	4.1520	4.1520	0.7611	25.46	0.48	0.750			
0.0855	5471.06	4.1490	4.1491	0.7614	25.46	0.48	0.750			
0.0878	5618.57	4.1460	4.1457	0.7678	25.46	0.48	0.750			
0.0901	5766.31	4.1430	4.1430	0.7714	25.46	0.48	0.750			
0.0924	5915.46	4.1400	4.1400	0.7740	25.46	0.48	0.750			
0.0948	6065.85	4.1370	4.1370	0.7774	25.46	0.48	0.750			
0.0971	6216.20	4.1340	4.1340	0.7776	25.46	0.48	0.750			
0.0994	6364.33	4.1310	4.1310	0.7760	25.46	0.48	0.750			
0.1018	6512.16	4.1280	4.1280	0.7733	25.46	0.48	0.750			
0.1041	6661.00	4.1250	4.1250	0.7748	25.46	0.48	0.750			
0.1064	6809.01	4.1220	4.1220	0.7765	25.46	0.48	0.750			
0.1087	6958.54	4.1190	4.1190	0.7799	25.47	0.49	0.750			
0.1111	7108.35	4.1160	4.1160	0.7812	25.47	0.49	0.750			
0.1134	7259.07	4.1130	4.1130	0.7822	25.47	0.49	0.750			
0.1158	7409.49	4.1100	4.1100	0.7817	25.47	0.49	0.750			
0.1182	7562.03	4.1070	4.1070	0.7736	25.47	0.49	0.750			
0.1204	7708.33	4.1040	4.1040	0.7795	25.47	0.49	0.750			
0.1228	7856.33	4.1010	4.1011	0.7828	25.47	0.49	0.750			
0.1251	8007.12	4.0980	4.0978	0.7897	25.47	0.49	0.750			
0.1275	8159.39	4.0950	4.0951	0.7950	25.47	0.49	0.750			
0.1299	8313.84	4.0920	4.0920	0.7992	25.47	0.49	0.750			
0.1323	8468.33	4.0890	4.0890	0.8014	25.47	0.49	0.750			
0.1348	8625.10	4.0860	4.0860	0.8031	25.47	0.49	0.750			
0.1371	8776.52	4.0830	4.0830	0.8014	25.47	0.49	0.750			
0.1395	8930.27	4.0800	4.0800	0.8015	25.47	0.49	0.750			
0.1420	9085.86	4.0770	4.0770	0.7971	25.48	0.50	0.750			
0.1443	9237.30	4.0740	4.0741	0.8019	25.48	0.50	0.750			
0.1467	9390.98	4.0710	4.0710	0.8065	25.48	0.50	0.750			
0.1491	9545.19	4.0680	4.0681	0.8108	25.49	0.51	0.750			
0.1516	9701.10	4.0650	4.0650	0.8148	25.49	0.51	0.750			
0.1541	9860.19	4.0620	4.0620	0.8093	25.49	0.51	0.750			
0.1565	10015.98	4.0590	4.0590	0.8180	25.49	0.51	0.750			
0.1590	10173.56	4.0560	4.0561	0.8192	25.49	0.51	0.750			
0.1614	10329.44	4.0530	4.0531	0.8183	25.49	0.51	0.750			
0.1638	10485.48	4.0500	4.0500	0.8261	25.49	0.51	0.750			
0.1663	10645.84	4.0470	4.0471	0.8305	25.49	0.51	0.750			
0.1689	10807.62	4.0440	4.0440	0.8356	25.49	0.51	0.750			
0.1714	10969.79	4.0410	4.0410	0.8357	25.50	0.52	0.750			
0.1739	11129.55	4.0380	4.0381	0.8300	25.50	0.52	0.750			
0.1764	11289.75	4.0350	4.0350	0.8318	25.50	0.52	0.750			
0.1789	11448.88	4.0320	4.0319	0.8303	25.50	0.52	0.750			
0.1813	11605.93	4.0290	4.0290	0.8296	25.50	0.52	0.750			
0.1838	11766.16	4.0260	4.0260	0.8347	25.51	0.53	0.750			
0.1864	11926.80	4.0230	4.0231	0.8405	25.51	0.53	0.750			
0.1889	12089.33	4.0200	4.0200	0.8443	25.51	0.53	0.750			
0.1914	12252.47	4.0170	4.0170	0.8469	25.51	0.53	0.750			
0.1940	12414.93	4.0140	4.0140	0.8522	25.51	0.53	0.750			
0.1966	12579.37	4.0110	4.0110	0.8556	25.52	0.54	0.750			
0.1991	12744.01	4.0080	4.0081	0.8577	25.52	0.54	0.750			
0.2017	12909.27	4.0050	4.0051	0.8619	25.52	0.54	0.750			
0.2043	13074.54	4.0020	4.0020	0.8651	25.52	0.54	0.750			
0.2069	13241.47	3.9990	3.9990	0.8701	25.53	0.55	0.750			
0.2095	13408.39	3.9960	3.9960	0.8734	25.53	0.55	0.750			
0.2121	13577.00	3.9930	3.9930	0.8733	25.53	0.55	0.750			
0.2148	13745.65	3.9900	3.9900	0.8769	25.53	0.55	0.750			
0.2174	13914.36	3.9870	3.9870	0.8775	25.53	0.55	0.750			
0.2200	14082.10	3.9840	3.9840	0.8802	25.53	0.55	0.750			
0.2227	14251.26	3.9810	3.9810	0.8797	25.53	0.55	0.750			
0.2253	14420.40	3.9780	3.9778	0.8800	25.53	0.55	0.750			
0.2280	14590.06	3.9750	3.9750	0.8813	25.53	0.55	0.750			
0.2306	14759.75	3.9720	3.9720	0.8826	25.53	0.55	0.750			
0.2333	14928.76	3.9690	3.9690	0.8853	25.53	0.55	0.750			
0.2359	15098.45	3.9660	3.9660	0.8908	25.53	0.55	0.750			
0.2386	15269.14	3.9630	3.9631	0.8888	25.53	0.55	0.750			
0.2413	15441.27	3.9600	3.9600	0.8931	25.53	0.55	0.750			
0.2439	15612.72	3.9570	3.9570	0.8969	25.53	0.55	0.750			
0.2466	15785.42	3.9540	3.9540	0.8960	25.53	0.55	0.750			
0.2493	15957.80	3.9510	3.9510	0.8942	25.53	0.55	0.750			
0.2520	16128.68	3.9480	3.9480	0.8935	25.53	0.55	0.750			
0.2547	16300.17	3.9450	3.9451	0.8911	25.53	0.55	0.750			
0.2574	16471.85	3.9420	3.9419	0.8944	25.53	0.55	0.750			
0.2600	16642.17	3.9390	3.9391	0.8944	25.53	0.55	0.750			
0.2627	16813.89	3.9360	3.9359	0.8941	25.53	0.55	0.750			
0.2654	16986.93	3.9330	3.9330	0.8974	25.53	0.55	0.750			
0.2681	17159.37	3.9300	3.9300	0.8869	25.53	0.55	0.750			
0.2707	17326.60	3.9270	3.9270	0.8905	25.52	0.54	0.750			
0.2734	17496.87	3.9240	3.9241	0.8920	25.52	0.54	0.750			
0.2761	17667.84	3.9210	3.9206	0.8977	25.52	0.54	0.750			
0.2788	17840.37	3.9180	3.9181	0.9011	25.52	0.54	0.750			
0.2815	18015.38	3.9150	3.9151	0.9035	25.52	0.54	0.750			
0.2842	18191.14	3.9120	3.9120	0.9108	25.51	0.53	0.750			
0.2870	18365.20	3.9090	3.9090	0.9002	25.51	0.53	0.750			
0.2897	18538.98	3.9060	3.9059	0.9002	25.51	0.53	0.750			
0.2924	18710.87	3.9030	3.9031	0.9009	25.50	0.52	0.750			
0.2951	18883.55	3.9000	3.9000	0.8999	25.49	0.51	0.750			
0.2978	19056.93	3.8970	3.8970	0.9021	25.49	0.51	0.750			
0.3005	19229.98	3.8940	3.8937	0.9011	25.48	0.50	0.750			
0.3032	19403.24	3.8910	3.8911	0.8939	25.48	0.50	0.750			
0.3059	19575.58	3.8880	3.8880	0.8949	25.48	0.50	0.750			
0.3085	19746.18	3.8850	3.8850	0.8968	25.47	0.49	0.750			
0.3112	19916.99	3.8820	3.8820	0.9006	25.47	0.49	0.750			
0.3139	20089.31	3.8790	3.8791	0.9016	25.47	0.49	0.750			
0.3166	20263.31	3.8760	3.8760	0.9013	25.46	0.48	0.750			
0.3193	20438.17	3.8730	3.8731	0.9059	25.46	0.48	0.750			
0.3221	20612.54	3.8700	3.8700	0.9087	25.46	0.48	0.750			
0.3248	20785.88	3.8670	3.8669	0.9069	25.45	0.47	0.750			
0.3275	20960.33	3.8640	3.8640	0.9065	25.44	0.46	0.750			
0.3302	21132.91	3.8610	3.8610	0.9084	25.43	0.45	0.750			
0.3329	21308.44	3.8580	3.8580	0.9162	25.42	0.44	0.750			
0.3357	21486.35	3.8550	3.8550	0.9194	25.41	0.43	0.750			
0.3385	21662.73	3.8520	3.8521	0.9206	25.40	0.42	0.750			
0.3413	21840.61	3.8490	3.8490	0.9161	25.39	0.41	0.750			
0.3440	22014.21	3.8460	3.8461	0.9276	25.39	0.41	0.750			
0.3468	22193.26	3.8430	3.8430	0.9355	25.39	0.41	0.750			
0.3496	22371.70	3.8400	3.8400	0.9420	25.38	0.40	0.750	0.337	0.457	
0.3524	22555.37	3.8370	3.8371	0.9438	25.37	0.39	0.750			
0.3553	22739.40	3.8340	3.8341	0.9571	25.36	0.38	0.750			
0.3582	22923.05	3.8310	3.8310	0.9617	25.36	0.38	0.750			
0.3611	23108.27	3.8280	3.8279	0.9680	25.35	0.37	0.750			
0.3640	23292.93	3.8250	3.8251	0.9655	25.34	0.36	0.750			
0.3669	23479.27	3.8220	3.8220	0.9765	25.33	0.35	0.750			
0.3698	23667.17	3.8190	3.8190	0.9849	25.32	0.34	0.750			
0.3728	23858.04	3.8160	3.8161	0.9946	25.31	0.33	0.750			
0.3758	24048.14	3.8130	3.8129	1.0024	25.30	0.32	0.750			
0.3788	24241.67	3.8100	3.8100	1.0023	25.29	0.31	0.750			
0.3818	24432.19	3.8070	3.8070	1.0146	25.29	0.31	0.750			
0.3848	24628.71	3.8040	3.8041	1.0284	25.28	0.30	0.750			
0.3879	24827.03	3.8010	3.8005	1.0410	25.27	0.29	0.750			
0.3910	25027.00	3.7980	3.7981	1.0618	25.26	0.28	0.750			
0.3943	25234.43	3.7950	3.7951	1.0784	25.25	0.27	0.750			
0.3976	25444.19	3.7920	3.7920	1.0982	25.23	0.25	0.750			
0.4009	25658.27	3.7890	3.7889	1.0971	25.22	0.24	0.750			
0.4042	25870.24	3.7860	3.7860	1.1159	25.21	0.23	0.750			
0.4075	26083.04	3.7830	3.7831	1.1363	25.20	0.22	0.750			
0.4110	26301.61	3.7800	3.7801	1.1542	25.19	0.21	0.750			
0.4145	26525.34	3.7770	3.7771	1.1597	25.18	0.20	0.750			
0.4180	26748.99	3.7740	3.7740	1.1898	25.16	0.18	0.750			
0.4215	26978.22	3.7710	3.7712	1.2116	25.15	0.17	0.750			
0.4252	27213.70	3.7680	3.7675	1.2418	25.14	0.16	0.750			
0.4290	27453.28	3.7650	3.7652	1.2661	25.13	0.15	0.750			
0.4328	27699.33	3.7620	3.7621	1.2958	25.12	0.14	0.750			
0.4368	27957.37	3.7590	3.7589	1.3202	25.10	0.12	0.750			
0.4408	28208.71	3.7560	3.7560	1.3390	25.09	0.11	0.750			
0.4448	28468.45	3.7530	3.7531	1.3726	25.08	0.10	0.750			
0.4491	28741.19	3.7500	3.7498	1.3827	25.07	0.09	0.750			
0.4533	29008.85	3.7470	3.7471	1.4127	25.06	0.08	0.750			
0.4575	29278.10	3.7440	3.7442	1.4504	25.05	0.07	0.750			
0.4618	29557.00	3.7410	3.7409	1.4872	25.04	0.06	0.750			
0.4664	29848.62	3.7380	3.7382	1.5252	25.03	0.05	0.750			
0.4710	30141.29	3.7350	3.7349	1.5666	25.01	0.03	0.750			
0.4757	30446.03	3.7320	3.7320	1.6235	25.00	0.02	0.750			
0.4807	30764.93	3.7290	3.7291	1.6527	24.98	0.00	0.750			
0.4858	31090.47	3.7260	3.7263	1.6990	24.97	-0.01	0.750			
0.4910	31422.58	3.7230	3.7231	1.6741	24.95	-0.03	0.750			
0.4959	31736.73	3.7200	3.7202	1.6759	24.94	-0.04	0.750			
0.5008	32054.28	3.7170	3.7159	1.7161	24.93	-0.05	0.750			
0.5060	32386.35	3.7140	3.7139	1.8209	24.92	-0.06	0.750			
0.5115	32739.19	3.7110	3.7110	1.9062	24.90	-0.08	0.750			
0.5177	33135.42	3.7080	3.7084	2.0759	24.89	-0.09	0.750			
0.5239	33528.58	3.7050	3.7052	2.0267	24.88	-0.10	0.750			
0.5301	33927.57	3.7020	3.7020	2.0959	24.87	-0.11	0.750			
0.5363	34325.72	3.6990	3.6995	2.1601	24.86	-0.12	0.750			
0.5428	34738.78	3.6960	3.6959	2.2448	24.85	-0.13	0.750			
0.5497	35181.20	3.6930	3.6932	2.3090	24.84	-0.14	0.750			
0.5568	35637.96	3.6900	3.6896	2.4459	24.84	-0.14	0.750			
0.5638	36084.36	3.6870	3.6868	2.4787	24.84	-0.14	0.750			
0.5714	36571.38	3.6840	3.6840	2.4719	24.83	-0.15	0.750			
0.5789	37049.73	3.6810	3.6810	2.5228	24.82	-0.16	0.750			
0.5865	37536.17	3.6780	3.6779	2.4755	24.82	-0.16	0.750			
0.5945	38045.05	3.6750	3.6742	2.6551	24.82	-0.16	0.750			
0.6019	38523.92	3.6720	3.6719	2.4481	24.82	-0.16	0.750			
0.6089	38967.06	3.6690	3.6689	2.3173	24.82	-0.16	0.750			
0.6158	39412.81	3.6660	3.6658	2.2263	24.82	-0.16	0.750			
0.6220	39807.68	3.6630	3.6635	1.9923	24.83	-0.15	0.750			
0.6279	40185.45	3.6600	3.6599	1.8663	24.84	-0.14	0.750			
0.6334	40534.99	3.6570	3.6563	1.7480	24.85	-0.13	0.750			
0.6382	40847.11	3.6540	3.6532	1.5848	24.86	-0.12	0.750			
0.6427	41132.47	3.6510	3.6516	1.4805	24.87	-0.11	0.750			
0.6470	41406.66	3.6480	3.6484	1.3918	24.87	-0.11	0.750			
0.6510	41664.62	3.6450	3.6445	1.2937	24.88	-0.10	0.750			
0.6548	41906.22	3.6420	3.6424	1.2094	24.89	-0.09	0.750			
0.6584	42137.55	3.6390	3.6393	1.1577	24.89	-0.09	0.750			
0.6619	42359.67	3.6360	3.6360	1.1011	24.90	-0.08	0.750			
0.6651	42566.43	3.6330	3.6330	1.0244	24.91	-0.07	0.750			
0.6679	42746.87	3.6300	3.6300	0.9660	24.92	-0.06	0.750			
0.6708	42928.26	3.6270	3.6270	0.9331	24.93	-0.05	0.750			
0.6735	43102.75	3.6240	3.6241	0.9052	24.94	-0.04	0.750			
0.6761	43272.67	3.6210	3.6209	0.8742	24.95	-0.03	0.750			
0.6787	43438.42	3.6180	3.6181	0.8353	24.96	-0.02	0.750			
0.6813	43601.87	3.6150	3.6151	0.7891	24.96	-0.02	0.750			
0.6836	43749.57	3.6120	3.6120	0.7461	24.97	-0.01	0.750			
0.6857	43886.43	3.6090	3.6091	0.6860	24.97	-0.01	0.750			
0.6877	44013.36	3.6060	3.6057	0.6341	24.98	-0.00	0.750			
0.6895	44129.37	3.6030	3.6031	0.5795	24.98	0.00	0.750			
0.6912	44236.70	3.6000	3.6001	0.5214	24.99	0.01	0.750			
0.6927	44331.40	3.5970	3.5971	0.4711	24.99	0.01	0.750			
0.6940	44416.56	3.5940	3.5941	0.4104	24.99	0.01	0.750			
0.6952	44490.01	3.5910	3.5911	0.3633	25.00	0.02	0.750			
0.6962	44553.78	3.5880	3.5873	0.3143	25.00	0.02	0.750			
0.6970	44609.33	3.5850	3.5855	0.2682	25.00	0.02	0.750			
0.6978	44657.06	3.5820	3.5819	0.2252	25.00	0.02	0.750			
0.6984	44697.87	3.5790	3.5796	0.1788	25.00	0.02	0.750			
0.6988	44723.38	3.5760	3.5774	0.1413	25.01	0.03	0.750			
0.6992	44747.93	3.5730	3.5744	0.0713	25.01	0.03	0.750			
