Ah_balance (normalized)	Ah_balance (mAh)	Voltage - fit (V)	Voltage -  interpolate (V)	dQ/dV (1/V)	Temperature (°C)	Temperature - diff (°C)	Current (C)	R_DC 0ms (mOhm)	R_DC 50ms (mOhm)	R_DC 50 ms PEC (mOhm)
0.0476	3045.42	4.1970	4.1970	0.7239	25.65	0.53	0.750			
0.0498	3188.61	4.1940	4.1942	0.7496	25.65	0.53	0.750			
0.0521	3335.23	4.1910	4.1912	0.7594	25.65	0.53	0.750			
0.0544	3482.12	4.1880	4.1881	0.7629	25.65	0.53	0.750			
0.0567	3630.72	4.1850	4.1851	0.7607	25.65	0.53	0.750			
0.0590	3777.33	4.1820	4.1820	0.7635	25.65	0.53	0.750			
0.0613	3922.47	4.1790	4.1790	0.7575	25.65	0.53	0.750			
0.0636	4067.46	4.1760	4.1761	0.7595	25.65	0.53	0.750			
0.0658	4213.57	4.1730	4.1731	0.7658	25.65	0.53	0.750			
0.0681	4360.72	4.1700	4.1700	0.7694	25.65	0.53	0.750			
0.0705	4511.08	4.1670	4.1670	0.7676	25.65	0.53	0.750			
0.0728	4658.43	4.1640	4.1641	0.7668	25.65	0.53	0.750			
0.0751	4807.32	4.1610	4.1610	0.7545	25.65	0.53	0.750			
0.0773	4948.62	4.1580	4.1579	0.7640	25.65	0.53	0.750			
0.0796	5092.67	4.1550	4.1550	0.7664	25.65	0.53	0.750			
0.0819	5240.26	4.1520	4.1521	0.7695	25.66	0.54	0.750			
0.0842	5390.47	4.1490	4.1491	0.7628	25.66	0.54	0.750			
0.0865	5534.68	4.1460	4.1464	0.7721	25.66	0.54	0.750			
0.0888	5682.84	4.1430	4.1432	0.7815	25.67	0.55	0.750			
0.0912	5833.91	4.1400	4.1401	0.7841	25.67	0.55	0.750			
0.0935	5982.51	4.1370	4.1371	0.7836	25.67	0.55	0.750			
0.0959	6136.52	4.1340	4.1342	0.7866	25.67	0.55	0.750			
0.0983	6289.58	4.1310	4.1310	0.7930	25.67	0.55	0.750			
0.1006	6439.76	4.1280	4.1281	0.7841	25.67	0.55	0.750			
0.1030	6590.47	4.1250	4.1250	0.7838	25.67	0.55	0.750			
0.1053	6740.02	4.1220	4.1221	0.7879	25.67	0.55	0.750			
0.1077	6893.79	4.1190	4.1191	0.7863	25.67	0.55	0.750			
0.1101	7045.17	4.1160	4.1159	0.7886	25.67	0.55	0.750			
0.1124	7194.73	4.1130	4.1131	0.7856	25.67	0.55	0.750			
0.1148	7345.40	4.1100	4.1098	0.7907	25.67	0.55	0.750			
0.1172	7498.02	4.1070	4.1071	0.7949	25.67	0.55	0.750			
0.1196	7654.03	4.1040	4.1039	0.7894	25.67	0.55	0.750			
0.1219	7803.85	4.1010	4.1011	0.7951	25.67	0.55	0.750			
0.1243	7956.69	4.0980	4.0981	0.7931	25.67	0.55	0.750			
0.1267	8109.09	4.0950	4.0951	0.7974	25.67	0.55	0.750			
0.1291	8261.06	4.0920	4.0922	0.8005	25.67	0.55	0.750			
0.1316	8419.30	4.0890	4.0890	0.7904	25.67	0.55	0.750			
0.1339	8570.98	4.0860	4.0860	0.8002	25.68	0.56	0.750			
0.1363	8725.85	4.0830	4.0830	0.8061	25.68	0.56	0.750			
0.1387	8875.71	4.0800	4.0802	0.8041	25.68	0.56	0.750			
0.1411	9030.64	4.0770	4.0771	0.8138	25.68	0.56	0.750			
0.1436	9187.87	4.0740	4.0741	0.8179	25.68	0.56	0.750			
0.1460	9346.18	4.0710	4.0711	0.8280	25.68	0.56	0.750			
0.1486	9509.56	4.0680	4.0680	0.8284	25.69	0.57	0.750			
0.1511	9667.30	4.0650	4.0650	0.8222	25.69	0.57	0.750			
0.1535	9826.20	4.0620	4.0621	0.8250	25.69	0.57	0.750			
0.1560	9984.30	4.0590	4.0590	0.8260	25.70	0.58	0.750			
0.1585	10141.49	4.0560	4.0560	0.8139	25.70	0.58	0.750			
0.1609	10295.40	4.0530	4.0531	0.8190	25.70	0.58	0.750			
0.1633	10454.07	4.0500	4.0501	0.8162	25.71	0.59	0.750			
0.1658	10610.67	4.0470	4.0466	0.8260	25.71	0.59	0.750			
0.1683	10770.74	4.0440	4.0442	0.8250	25.71	0.59	0.750			
0.1708	10929.01	4.0410	4.0413	0.8390	25.71	0.59	0.750			
0.1733	11093.33	4.0380	4.0382	0.8499	25.72	0.60	0.750			
0.1759	11255.43	4.0350	4.0352	0.8419	25.72	0.60	0.750			
0.1784	11417.31	4.0320	4.0321	0.8520	25.72	0.60	0.750			
0.1810	11585.58	4.0290	4.0290	0.8513	25.72	0.60	0.750			
0.1836	11748.84	4.0260	4.0261	0.8535	25.72	0.60	0.750			
0.1862	11913.78	4.0230	4.0231	0.8590	25.73	0.61	0.750			
0.1887	12078.73	4.0200	4.0201	0.8578	25.73	0.61	0.750			
0.1913	12243.73	4.0170	4.0171	0.8649	25.73	0.61	0.750			
0.1940	12415.23	4.0140	4.0140	0.8523	25.74	0.62	0.750			
0.1965	12575.83	4.0110	4.0110	0.8582	25.74	0.62	0.750			
0.1991	12739.94	4.0080	4.0081	0.8697	25.74	0.62	0.750			
0.2016	12904.51	4.0050	4.0052	0.8722	25.75	0.63	0.750			
0.2042	13070.82	4.0020	4.0023	0.9037	25.75	0.63	0.750			
0.2070	13245.81	3.9990	3.9992	0.9268	25.75	0.63	0.750			
0.2099	13430.64	3.9960	3.9958	0.9395	25.76	0.64	0.750			
0.2128	13617.73	3.9930	3.9932	0.9437	25.76	0.64	0.750			
0.2157	13803.89	3.9900	3.9902	0.9340	25.76	0.64	0.750			
0.2185	13983.77	3.9870	3.9870	0.9165	25.76	0.64	0.750			
0.2212	14156.35	3.9840	3.9840	0.9064	25.76	0.64	0.750			
0.2238	14323.85	3.9810	3.9810	0.8928	25.77	0.65	0.750			
0.2265	14495.47	3.9780	3.9779	0.8901	25.77	0.65	0.750			
0.2292	14666.32	3.9750	3.9751	0.8919	25.77	0.65	0.750			
0.2318	14837.99	3.9720	3.9720	0.8934	25.77	0.65	0.750			
0.2345	15008.92	3.9690	3.9690	0.8944	25.78	0.66	0.750			
0.2372	15179.82	3.9660	3.9660	0.8934	25.78	0.66	0.750			
0.2399	15351.60	3.9630	3.9625	0.9034	25.78	0.66	0.750			
0.2426	15528.39	3.9600	3.9600	0.8989	25.78	0.66	0.750			
0.2453	15700.54	3.9570	3.9570	0.9079	25.78	0.66	0.750			
0.2480	15874.85	3.9540	3.9540	0.9121	25.79	0.67	0.750			
0.2508	16050.11	3.9510	3.9511	0.9190	25.79	0.67	0.750			
0.2535	16225.63	3.9480	3.9479	0.9204	25.79	0.67	0.750			
0.2563	16403.27	3.9450	3.9450	0.9225	25.79	0.67	0.750			
0.2591	16580.92	3.9420	3.9420	0.9251	25.79	0.67	0.750			
0.2619	16760.88	3.9390	3.9391	0.9286	25.79	0.67	0.750			
0.2647	16937.69	3.9360	3.9360	0.9233	25.79	0.67	0.750			
0.2675	17116.91	3.9330	3.9330	0.9212	25.79	0.67	0.750			
0.2702	17293.24	3.9300	3.9300	0.9204	25.79	0.67	0.750			
0.2730	17469.28	3.9270	3.9271	0.9251	25.79	0.67	0.750			
0.2757	17647.05	3.9240	3.9241	0.9261	25.79	0.67	0.750			
0.2785	17823.68	3.9210	3.9211	0.9318	25.79	0.67	0.750			
0.2813	18006.32	3.9180	3.9180	0.9180	25.79	0.67	0.750			
0.2841	18180.49	3.9150	3.9150	0.9309	25.79	0.67	0.750			
0.2869	18359.64	3.9120	3.9121	0.9361	25.79	0.67	0.750			
0.2897	18539.46	3.9090	3.9086	0.9362	25.79	0.67	0.750			
0.2925	18720.02	3.9060	3.9061	0.9356	25.79	0.67	0.750			
0.2953	18899.49	3.9030	3.9031	0.9436	25.79	0.67	0.750			
0.2981	19081.28	3.9000	3.9001	0.9464	25.79	0.67	0.750			
0.3010	19264.66	3.8970	3.8969	0.9404	25.79	0.67	0.750			
0.3038	19445.65	3.8940	3.8940	0.9446	25.79	0.67	0.750			
0.3067	19628.68	3.8910	3.8911	0.9400	25.79	0.67	0.750			
0.3095	19807.86	3.8880	3.8880	0.9458	25.79	0.67	0.750			
0.3123	19989.39	3.8850	3.8851	0.9498	25.79	0.67	0.750			
0.3152	20170.71	3.8820	3.8816	0.9502	25.79	0.67	0.750			
0.3181	20355.39	3.8790	3.8791	0.9513	25.79	0.67	0.750			
0.3209	20538.50	3.8760	3.8760	0.9526	25.78	0.66	0.750			
0.3238	20721.47	3.8730	3.8731	0.9597	25.78	0.66	0.750			
0.3266	20904.97	3.8700	3.8699	0.9553	25.77	0.65	0.750			
0.3295	21090.09	3.8670	3.8670	0.9497	25.77	0.65	0.750			
0.3324	21271.84	3.8640	3.8641	0.9563	25.76	0.64	0.750			
0.3352	21454.82	3.8610	3.8611	0.9659	25.76	0.64	0.750			
0.3382	21642.32	3.8580	3.8580	0.9713	25.75	0.63	0.750			
0.3411	21827.28	3.8550	3.8549	0.9737	25.75	0.63	0.750			
0.3440	22014.83	3.8520	3.8521	0.9696	25.74	0.62	0.750			
0.3469	22202.60	3.8490	3.8491	0.9772	25.73	0.61	0.750			
0.3499	22390.63	3.8460	3.8460	0.9799	25.73	0.61	0.750			
0.3528	22576.05	3.8430	3.8431	0.9837	25.72	0.60	0.750			
0.3556	22760.59	3.8400	3.8401	0.9727	25.71	0.59	0.750			
0.3586	22948.24	3.8370	3.8371	0.9864	25.70	0.58	0.750			
0.3615	23138.86	3.8340	3.8342	0.9938	25.69	0.57	0.750	0.289	0.382	
0.3645	23329.61	3.8310	3.8311	1.0004	25.68	0.56	0.750			
0.3676	23524.93	3.8280	3.8282	1.0049	25.67	0.55	0.750			
0.3706	23720.21	3.8250	3.8251	1.0148	25.66	0.54	0.750			
0.3737	23919.05	3.8220	3.8219	1.0326	25.65	0.53	0.750			
0.3767	24110.41	3.8190	3.8190	1.0155	25.64	0.52	0.750			
0.3798	24304.85	3.8160	3.8160	1.0216	25.63	0.51	0.750			
0.3828	24501.59	3.8130	3.8130	1.0115	25.63	0.51	0.750			
0.3859	24694.66	3.8100	3.8101	1.0116	25.62	0.50	0.750			
0.3889	24887.22	3.8070	3.8071	1.0202	25.61	0.49	0.750			
0.3919	25084.01	3.8040	3.8040	1.0180	25.60	0.48	0.750			
0.3950	25276.86	3.8010	3.8011	1.0351	25.59	0.47	0.750			
0.3981	25478.38	3.7980	3.7981	1.0571	25.58	0.46	0.750			
0.4014	25687.65	3.7950	3.7949	1.0891	25.56	0.44	0.750			
0.4046	25893.25	3.7920	3.7921	1.0965	25.55	0.43	0.750			
0.4079	26104.45	3.7890	3.7891	1.1154	25.54	0.42	0.750			
0.4113	26321.07	3.7860	3.7860	1.1365	25.53	0.41	0.750			
0.4148	26544.16	3.7830	3.7829	1.1625	25.52	0.40	0.750			
0.4182	26767.43	3.7800	3.7800	1.1577	25.51	0.39	0.750			
0.4217	26988.65	3.7770	3.7772	1.1820	25.50	0.38	0.750			
0.4252	27215.92	3.7740	3.7741	1.2022	25.49	0.37	0.750			
0.4289	27448.77	3.7710	3.7709	1.2139	25.48	0.36	0.750			
0.4325	27680.06	3.7680	3.7682	1.2412	25.46	0.34	0.750			
0.4363	27921.05	3.7650	3.7651	1.2690	25.45	0.33	0.750			
0.4402	28169.85	3.7620	3.7616	1.2988	25.44	0.32	0.750			
0.4440	28417.71	3.7590	3.7591	1.3229	25.42	0.30	0.750			
0.4481	28676.56	3.7560	3.7561	1.3549	25.41	0.29	0.750			
0.4523	28949.39	3.7530	3.7525	1.3629	25.39	0.27	0.750			
0.4563	29204.82	3.7500	3.7501	1.3964	25.38	0.26	0.750			
0.4606	29479.26	3.7470	3.7472	1.4169	25.36	0.24	0.750			
0.4650	29760.22	3.7440	3.7428	1.4398	25.35	0.23	0.750			
0.4692	30031.06	3.7410	3.7413	1.4872	25.34	0.22	0.750			
0.4737	30316.99	3.7380	3.7383	1.5131	25.32	0.20	0.750			
0.4785	30621.15	3.7350	3.7348	1.5136	25.31	0.19	0.750			
0.4832	30923.60	3.7320	3.7318	1.5731	25.29	0.17	0.750			
0.4877	31214.41	3.7290	3.7294	1.5937	25.28	0.16	0.750			
0.4926	31529.29	3.7260	3.7264	1.6546	25.26	0.14	0.750			
0.4977	31851.37	3.7230	3.7233	1.7595	25.24	0.12	0.750			
0.5029	32187.26	3.7200	3.7194	1.8390	25.22	0.10	0.750			
0.5088	32561.52	3.7170	3.7167	1.9215	25.21	0.09	0.750			
0.5146	32936.55	3.7140	3.7141	1.9754	25.19	0.07	0.750			
0.5208	33332.24	3.7110	3.7110	2.0417	25.17	0.05	0.750			
0.5270	33730.04	3.7080	3.7080	2.0825	25.15	0.03	0.750			
0.5333	34133.97	3.7050	3.7054	2.0932	25.14	0.02	0.750			
0.5395	34530.14	3.7020	3.7018	2.1923	25.12	0.00	0.750			
0.5462	34954.32	3.6990	3.6990	2.2062	25.11	-0.01	0.750			
0.5529	35383.16	3.6960	3.6953	2.3379	25.09	-0.03	0.750			
0.5598	35827.33	3.6930	3.6937	2.3618	25.07	-0.05	0.750			
0.5672	36300.97	3.6900	3.6893	2.4107	25.06	-0.06	0.750			
0.5745	36770.19	3.6870	3.6872	2.5051	25.04	-0.08	0.750			
0.5817	37226.32	3.6840	3.6841	2.5473	25.03	-0.09	0.750			
0.5891	37705.56	3.6810	3.6812	2.7020	25.02	-0.10	0.750			
0.5976	38247.26	3.6780	3.6783	2.8369	25.01	-0.11	0.750			
0.6060	38784.11	3.6750	3.6749	2.7157	25.00	-0.12	0.750			
0.6140	39298.04	3.6720	3.6720	2.7197	25.00	-0.12	0.750			
0.6221	39815.78	3.6690	3.6695	2.6734	25.00	-0.12	0.750			
0.6304	40342.92	3.6660	3.6662	2.8936	25.00	-0.12	0.750			
0.6388	40886.00	3.6630	3.6631	2.6801	25.00	-0.12	0.750			
0.6463	41360.06	3.6600	3.6606	2.4040	25.00	-0.12	0.750			
0.6530	41789.50	3.6570	3.6564	2.1601	25.01	-0.11	0.750			
0.6588	42164.77	3.6540	3.6541	1.9230	25.02	-0.10	0.750			
0.6647	42539.32	3.6510	3.6508	1.8445	25.02	-0.10	0.750			
0.6696	42855.20	3.6480	3.6474	1.6243	25.03	-0.09	0.750			
0.6743	43153.41	3.6450	3.6453	1.4698	25.03	-0.09	0.750			
0.6786	43431.53	3.6420	3.6422	1.3245	25.04	-0.08	0.750			
0.6824	43671.42	3.6390	3.6390	1.2177	25.05	-0.07	0.750			
0.6856	43879.86	3.6360	3.6362	1.1173	25.05	-0.07	0.750			
0.6888	44082.62	3.6330	3.6332	1.0592	25.06	-0.06	0.750			
0.6918	44278.22	3.6300	3.6301	0.9988	25.06	-0.06	0.750			
0.6947	44463.97	3.6270	3.6271	0.9781	25.07	-0.05	0.750			
0.6976	44648.60	3.6240	3.6243	0.9573	25.08	-0.04	0.750			
0.7005	44834.26	3.6210	3.6211	0.9364	25.09	-0.03	0.750			
0.7033	45010.87	3.6180	3.6177	0.8955	25.09	-0.03	0.750			
0.7060	45183.02	3.6150	3.6152	0.8507	25.10	-0.02	0.750			
0.7085	45346.31	3.6120	3.6121	0.8146	25.10	-0.02	0.750			
0.7110	45500.97	3.6090	3.6091	0.7635	25.11	-0.01	0.750			
0.7132	45642.70	3.6060	3.6060	0.6883	25.12	-0.00	0.750			
0.7152	45770.64	3.6030	3.6030	0.6212	25.12	0.00	0.750			
0.7169	45881.51	3.6000	3.6003	0.5582	25.12	0.00	0.750			
0.7184	45980.12	3.5970	3.5974	0.5017	25.13	0.01	0.750			
0.7199	46070.41	3.5940	3.5944	0.4477	25.13	0.01	0.750			
0.7211	46148.67	3.5910	3.5903	0.3884	25.13	0.01	0.750			
0.7222	46218.73	3.5880	3.5883	0.3349	25.14	0.02	0.750			
0.7231	46279.50	3.5850	3.5852	0.2882	25.14	0.02	0.750			
0.7240	46335.63	3.5820	3.5819	0.2394	25.14	0.02	0.750			
0.7245	46370.06	3.5790	3.5795	0.1758	25.14	0.02	0.750			
0.7250	46399.16	3.5760	3.5767	0.1270	25.14	0.02	0.750			
0.7253	46418.33	3.5730	3.5740	0.1009	25.14	0.02	0.750			
