Ah_balance (normalized)	Ah_balance (mAh)	Voltage - fit (V)	Voltage -  interpolate (V)	dQ/dV (1/V)	Temperature (°C)	Temperature - diff (°C)	Current (C)	R_DC 0ms (mOhm)	R_DC 50ms (mOhm)	R_DC 50 ms PEC (mOhm)
0.0476	3047.26	4.1980	4.1981	0.7136	25.79	0.42	0.750			
0.0498	3189.38	4.1950	4.1951	0.7479	25.79	0.42	0.750			
0.0521	3336.36	4.1920	4.1920	0.7572	25.79	0.42	0.750			
0.0544	3481.70	4.1890	4.1891	0.7586	25.79	0.42	0.750			
0.0567	3629.10	4.1860	4.1861	0.7600	25.79	0.42	0.750			
0.0590	3774.73	4.1830	4.1830	0.7567	25.79	0.42	0.750			
0.0612	3919.67	4.1800	4.1799	0.7561	25.79	0.42	0.750			
0.0635	4064.42	4.1770	4.1771	0.7540	25.79	0.42	0.750			
0.0658	4211.42	4.1740	4.1739	0.7473	25.79	0.42	0.750			
0.0680	4354.26	4.1710	4.1710	0.7541	25.79	0.42	0.750			
0.0703	4496.50	4.1680	4.1680	0.7508	25.79	0.42	0.750			
0.0725	4640.80	4.1650	4.1652	0.7606	25.79	0.42	0.750			
0.0748	4786.19	4.1620	4.1620	0.7668	25.79	0.42	0.750			
0.0771	4935.17	4.1590	4.1591	0.7693	25.79	0.42	0.750			
0.0795	5086.19	4.1560	4.1561	0.7681	25.79	0.42	0.750			
0.0818	5234.06	4.1530	4.1531	0.7640	25.79	0.42	0.750			
0.0840	5378.65	4.1500	4.1500	0.7620	25.79	0.42	0.750			
0.0863	5523.96	4.1470	4.1464	0.7638	25.79	0.42	0.750			
0.0886	5669.75	4.1440	4.1440	0.7645	25.79	0.42	0.750			
0.0909	5817.68	4.1410	4.1410	0.7641	25.80	0.43	0.750			
0.0932	5965.76	4.1380	4.1381	0.7706	25.80	0.43	0.750			
0.0956	6115.97	4.1350	4.1350	0.7759	25.80	0.43	0.750			
0.0979	6262.86	4.1320	4.1320	0.7738	25.81	0.44	0.750			
0.1002	6411.00	4.1290	4.1291	0.7731	25.81	0.44	0.750			
0.1025	6559.62	4.1260	4.1260	0.7759	25.81	0.44	0.750			
0.1048	6708.83	4.1230	4.1230	0.7751	25.81	0.44	0.750			
0.1072	6858.07	4.1200	4.1200	0.7783	25.81	0.44	0.750			
0.1095	7005.83	4.1170	4.1170	0.7809	25.81	0.44	0.750			
0.1118	7156.02	4.1140	4.1139	0.7859	25.81	0.44	0.750			
0.1142	7307.19	4.1110	4.1111	0.7861	25.81	0.44	0.750			
0.1166	7461.07	4.1080	4.1080	0.7763	25.81	0.44	0.750			
0.1189	7610.48	4.1050	4.1051	0.7868	25.82	0.45	0.750			
0.1213	7762.23	4.1020	4.1019	0.7955	25.82	0.45	0.750			
0.1236	7910.70	4.0990	4.0987	0.7909	25.82	0.45	0.750			
0.1260	8063.49	4.0960	4.0962	0.7909	25.82	0.45	0.750			
0.1284	8216.57	4.0930	4.0931	0.7934	25.82	0.45	0.750			
0.1308	8369.77	4.0900	4.0901	0.7967	25.83	0.46	0.750			
0.1332	8524.77	4.0870	4.0869	0.7987	25.83	0.46	0.750			
0.1355	8673.53	4.0840	4.0840	0.7930	25.83	0.46	0.750			
0.1379	8826.23	4.0810	4.0810	0.7967	25.83	0.46	0.750			
0.1404	8984.09	4.0780	4.0780	0.7907	25.83	0.46	0.750			
0.1427	9133.22	4.0750	4.0750	0.7981	25.83	0.46	0.750			
0.1451	9284.94	4.0720	4.0721	0.8022	25.84	0.47	0.750			
0.1475	9438.51	4.0690	4.0691	0.8083	25.84	0.47	0.750			
0.1499	9593.64	4.0660	4.0659	0.8136	25.84	0.47	0.750			
0.1524	9752.76	4.0630	4.0631	0.8132	25.84	0.47	0.750			
0.1549	9910.82	4.0600	4.0601	0.8217	25.84	0.47	0.750			
0.1573	10069.76	4.0570	4.0570	0.8240	25.85	0.48	0.750			
0.1598	10225.19	4.0540	4.0541	0.8208	25.85	0.48	0.750			
0.1622	10382.87	4.0510	4.0510	0.8274	25.85	0.48	0.750			
0.1647	10543.90	4.0480	4.0480	0.8269	25.86	0.49	0.750			
0.1672	10703.47	4.0450	4.0451	0.8322	25.86	0.49	0.750			
0.1697	10863.86	4.0420	4.0421	0.8338	25.86	0.49	0.750			
0.1722	11023.59	4.0390	4.0390	0.8326	25.87	0.50	0.750			
0.1747	11183.01	4.0360	4.0359	0.8356	25.87	0.50	0.750			
0.1773	11347.07	4.0330	4.0330	0.8240	25.87	0.50	0.750			
0.1797	11503.81	4.0300	4.0300	0.8310	25.87	0.50	0.750			
0.1822	11663.14	4.0270	4.0271	0.8354	25.87	0.50	0.750			
0.1847	11821.01	4.0240	4.0241	0.8406	25.87	0.50	0.750			
0.1872	11982.17	4.0210	4.0208	0.8469	25.87	0.50	0.750			
0.1898	12146.76	4.0180	4.0181	0.8524	25.87	0.50	0.750			
0.1924	12312.80	4.0150	4.0150	0.8482	25.87	0.50	0.750			
0.1949	12474.95	4.0120	4.0122	0.8598	25.88	0.51	0.750			
0.1975	12637.62	4.0090	4.0092	0.8570	25.88	0.51	0.750			
0.2000	12802.76	4.0060	4.0061	0.8615	25.88	0.51	0.750			
0.2027	12969.96	4.0030	4.0032	0.8620	25.88	0.51	0.750			
0.2053	13137.99	4.0000	4.0001	0.8705	25.89	0.52	0.750			
0.2079	13307.25	3.9970	3.9971	0.8715	25.89	0.52	0.750			
0.2105	13472.34	3.9940	3.9939	0.8664	25.89	0.52	0.750			
0.2131	13637.58	3.9910	3.9911	0.8690	25.89	0.52	0.750			
0.2158	13808.81	3.9880	3.9880	0.8565	25.89	0.52	0.750			
0.2183	13970.98	3.9850	3.9850	0.8701	25.90	0.53	0.750			
0.2209	14139.26	3.9820	3.9820	0.8745	25.90	0.53	0.750			
0.2235	14305.67	3.9790	3.9788	0.8747	25.90	0.53	0.750			
0.2261	14473.49	3.9760	3.9761	0.8829	25.90	0.53	0.750			
0.2288	14643.14	3.9730	3.9732	0.8774	25.90	0.53	0.750			
0.2314	14812.27	3.9700	3.9700	0.8881	25.91	0.54	0.750			
0.2341	14983.75	3.9670	3.9671	0.8823	25.91	0.54	0.750			
0.2368	15154.85	3.9640	3.9640	0.8857	25.91	0.54	0.750			
0.2395	15327.68	3.9610	3.9610	0.8860	25.91	0.54	0.750			
0.2421	15497.18	3.9580	3.9582	0.8873	25.91	0.54	0.750			
0.2448	15666.14	3.9550	3.9550	0.8914	25.91	0.54	0.750			
0.2475	15837.21	3.9520	3.9520	0.8870	25.91	0.54	0.750			
0.2501	16007.42	3.9490	3.9491	0.8895	25.91	0.54	0.750			
0.2528	16180.20	3.9460	3.9460	0.8960	25.91	0.54	0.750			
0.2555	16349.96	3.9430	3.9432	0.8869	25.91	0.54	0.750			
0.2581	16519.96	3.9400	3.9401	0.8888	25.91	0.54	0.750			
0.2607	16687.57	3.9370	3.9370	0.8891	25.91	0.54	0.750			
0.2634	16858.26	3.9340	3.9342	0.8951	25.91	0.54	0.750			
0.2661	17031.58	3.9310	3.9311	0.8946	25.91	0.54	0.750			
0.2688	17204.20	3.9280	3.9280	0.8959	25.91	0.54	0.750			
0.2716	17382.10	3.9250	3.9251	0.9077	25.91	0.54	0.750			
0.2742	17548.41	3.9220	3.9221	0.8914	25.91	0.54	0.750			
0.2769	17720.93	3.9190	3.9190	0.8911	25.91	0.54	0.750			
0.2796	17891.88	3.9160	3.9160	0.8905	25.91	0.54	0.750			
0.2823	18064.36	3.9130	3.9130	0.8903	25.91	0.54	0.750			
0.2849	18233.66	3.9100	3.9101	0.8859	25.91	0.54	0.750			
0.2876	18403.77	3.9070	3.9070	0.8895	25.91	0.54	0.750			
0.2903	18576.99	3.9040	3.9039	0.8775	25.90	0.53	0.750			
0.2929	18742.72	3.9010	3.9010	0.8863	25.90	0.53	0.750			
0.2955	18913.21	3.8980	3.8981	0.8911	25.90	0.53	0.750			
0.2982	19084.71	3.8950	3.8949	0.8948	25.89	0.52	0.750			
0.3009	19257.19	3.8920	3.8921	0.8994	25.89	0.52	0.750			
0.3036	19429.93	3.8890	3.8890	0.8920	25.88	0.51	0.750			
0.3063	19600.85	3.8860	3.8861	0.8983	25.88	0.51	0.750			
0.3090	19773.22	3.8830	3.8831	0.8946	25.87	0.50	0.750			
0.3117	19946.98	3.8800	3.8801	0.8962	25.87	0.50	0.750			
0.3144	20120.70	3.8770	3.8771	0.8944	25.87	0.50	0.750			
0.3171	20291.57	3.8740	3.8741	0.8997	25.86	0.49	0.750			
0.3198	20465.91	3.8710	3.8711	0.9034	25.86	0.49	0.750			
0.3225	20638.15	3.8680	3.8679	0.8971	25.85	0.48	0.750			
0.3251	20809.43	3.8650	3.8652	0.9008	25.85	0.48	0.750			
0.3279	20986.01	3.8620	3.8620	0.8950	25.84	0.47	0.750			
0.3306	21156.55	3.8590	3.8591	0.9044	25.83	0.46	0.750			
0.3333	21330.37	3.8560	3.8561	0.9076	25.82	0.45	0.750			
0.3360	21502.55	3.8530	3.8532	0.9108	25.81	0.44	0.750			
0.3388	21683.13	3.8500	3.8501	0.9058	25.81	0.44	0.750			
0.3415	21854.39	3.8470	3.8471	0.9135	25.80	0.43	0.750			
0.3442	22027.41	3.8440	3.8440	0.9267	25.80	0.43	0.750			
0.3470	22208.25	3.8410	3.8412	0.9434	25.79	0.42	0.750			
0.3498	22385.40	3.8380	3.8373	0.9466	25.79	0.42	0.750	0.317	0.448	
0.3527	22570.34	3.8350	3.8353	0.9572	25.78	0.41	0.750			
0.3556	22757.68	3.8320	3.8321	0.9705	25.77	0.40	0.750			
0.3586	22948.15	3.8290	3.8290	0.9804	25.76	0.39	0.750			
0.3615	23136.03	3.8260	3.8259	0.9738	25.75	0.38	0.750			
0.3644	23324.26	3.8230	3.8230	0.9573	25.74	0.37	0.750			
0.3673	23506.41	3.8200	3.8201	0.9742	25.73	0.36	0.750			
0.3702	23692.55	3.8170	3.8171	0.9791	25.72	0.35	0.750			
0.3731	23878.69	3.8140	3.8139	0.9896	25.71	0.34	0.750			
0.3761	24070.51	3.8110	3.8111	0.9957	25.70	0.33	0.750			
0.3791	24262.18	3.8080	3.8081	1.0164	25.70	0.33	0.750			
0.3822	24460.11	3.8050	3.8051	1.0377	25.69	0.32	0.750			
0.3853	24662.26	3.8020	3.8020	1.0420	25.68	0.31	0.750			
0.3885	24866.08	3.7990	3.7990	1.0458	25.68	0.31	0.750			
0.3917	25068.44	3.7960	3.7961	1.0639	25.67	0.30	0.750			
0.3949	25271.64	3.7930	3.7931	1.0820	25.66	0.29	0.750			
0.3982	25483.01	3.7900	3.7898	1.1013	25.65	0.28	0.750			
0.4015	25694.73	3.7870	3.7870	1.0907	25.64	0.27	0.750			
0.4047	25901.45	3.7840	3.7842	1.1176	25.63	0.26	0.750			
0.4081	26118.17	3.7810	3.7811	1.1423	25.62	0.25	0.750			
0.4116	26345.23	3.7780	3.7771	1.1485	25.61	0.24	0.750			
0.4150	26560.49	3.7750	3.7752	1.1706	25.60	0.23	0.750			
0.4185	26785.07	3.7720	3.7723	1.1994	25.59	0.22	0.750			
0.4222	27023.08	3.7690	3.7691	1.2349	25.58	0.21	0.750			
0.4259	27259.65	3.7660	3.7660	1.2489	25.56	0.19	0.750			
0.4297	27503.62	3.7630	3.7631	1.2763	25.55	0.18	0.750			
0.4336	27753.58	3.7600	3.7601	1.3117	25.54	0.17	0.750			
0.4377	28010.06	3.7570	3.7571	1.3195	25.53	0.16	0.750			
0.4415	28258.73	3.7540	3.7540	1.3381	25.52	0.15	0.750			
0.4456	28520.51	3.7510	3.7511	1.3610	25.51	0.14	0.750			
0.4498	28787.33	3.7480	3.7476	1.3849	25.50	0.13	0.750			
0.4540	29055.26	3.7450	3.7452	1.4218	25.48	0.11	0.750			
0.4584	29336.24	3.7420	3.7422	1.4543	25.47	0.10	0.750			
0.4628	29617.14	3.7390	3.7390	1.5051	25.46	0.09	0.750			
0.4673	29904.39	3.7360	3.7360	1.5457	25.45	0.08	0.750			
0.4720	30209.80	3.7330	3.7330	1.5778	25.43	0.06	0.750			
0.4769	30521.78	3.7300	3.7297	1.6312	25.42	0.05	0.750			
0.4819	30844.64	3.7270	3.7270	1.6690	25.40	0.03	0.750			
0.4870	31169.07	3.7240	3.7244	1.7145	25.38	0.01	0.750			
0.4923	31506.53	3.7210	3.7213	1.7453	25.37	-0.00	0.750			
0.4975	31838.63	3.7180	3.7184	1.8108	25.35	-0.02	0.750			
0.5029	32187.44	3.7150	3.7143	1.8868	25.34	-0.03	0.750			
0.5088	32560.17	3.7120	3.7118	1.9167	25.33	-0.04	0.750			
0.5147	32943.16	3.7090	3.7092	2.0304	25.31	-0.06	0.750			
0.5211	33351.24	3.7060	3.7063	2.0750	25.30	-0.07	0.750			
0.5273	33747.59	3.7030	3.7029	2.1255	25.28	-0.09	0.750			
0.5336	34150.53	3.7000	3.7002	2.1751	25.27	-0.10	0.750			
0.5403	34576.16	3.6970	3.6967	2.2423	25.26	-0.11	0.750			
0.5469	35004.21	3.6940	3.6938	2.3532	25.24	-0.13	0.750			
0.5543	35476.58	3.6910	3.6909	2.3880	25.23	-0.14	0.750			
0.5613	35925.35	3.6880	3.6877	2.4300	25.22	-0.15	0.750			
0.5686	36388.82	3.6850	3.6855	2.4429	25.22	-0.15	0.750			
0.5760	36862.46	3.6820	3.6821	2.4815	25.22	-0.15	0.750			
0.5836	37351.90	3.6790	3.6786	2.4436	25.20	-0.17	0.750			
0.5910	37826.40	3.6760	3.6759	2.4692	25.20	-0.17	0.750			
0.5981	38278.85	3.6730	3.6729	2.4376	25.21	-0.16	0.750			
0.6056	38757.98	3.6700	3.6694	2.4464	25.22	-0.15	0.750			
0.6130	39232.78	3.6670	3.6670	2.3657	25.22	-0.15	0.750			
0.6202	39691.87	3.6640	3.6642	2.1518	25.22	-0.15	0.750			
0.6265	40096.42	3.6610	3.6609	1.9784	25.22	-0.15	0.750			
0.6320	40446.87	3.6580	3.6579	1.8213	25.23	-0.14	0.750			
0.6368	40753.78	3.6550	3.6548	1.6090	25.24	-0.13	0.750			
0.6413	41046.39	3.6520	3.6521	1.4859	25.24	-0.13	0.750			
0.6455	41312.70	3.6490	3.6491	1.3749	25.25	-0.12	0.750			
0.6495	41566.33	3.6460	3.6458	1.2829	25.25	-0.12	0.750			
0.6532	41801.68	3.6430	3.6431	1.2076	25.26	-0.11	0.750			
0.6566	42024.54	3.6400	3.6401	1.1473	25.26	-0.11	0.750			
0.6600	42243.16	3.6370	3.6369	1.0816	25.27	-0.10	0.750			
0.6631	42438.79	3.6340	3.6341	1.0173	25.27	-0.10	0.750			
0.6660	42623.55	3.6310	3.6313	0.9775	25.28	-0.09	0.750			
0.6688	42804.66	3.6280	3.6283	0.9530	25.28	-0.09	0.750			
0.6716	42982.85	3.6250	3.6255	0.9304	25.29	-0.08	0.750			
0.6744	43159.74	3.6220	3.6224	0.8977	25.29	-0.08	0.750			
0.6771	43333.90	3.6190	3.6192	0.8743	25.30	-0.07	0.750			
0.6798	43505.50	3.6160	3.6161	0.8291	25.30	-0.07	0.750			
0.6822	43660.01	3.6130	3.6131	0.7697	25.31	-0.06	0.750			
0.6844	43804.14	3.6100	3.6100	0.7215	25.32	-0.05	0.750			
0.6865	43938.49	3.6070	3.6066	0.6738	25.32	-0.05	0.750			
0.6885	44062.06	3.6040	3.6041	0.6224	25.33	-0.04	0.750			
0.6903	44177.72	3.6010	3.6011	0.5749	25.34	-0.03	0.750			
0.6920	44284.84	3.5980	3.5979	0.5273	25.34	-0.03	0.750			
0.6934	44379.88	3.5950	3.5950	0.4717	25.35	-0.02	0.750			
0.6948	44465.92	3.5920	3.5920	0.4240	25.35	-0.02	0.750			
0.6960	44543.28	3.5890	3.5890	0.3786	25.36	-0.01	0.750			
0.6971	44611.57	3.5860	3.5859	0.3288	25.36	-0.01	0.750			
0.6980	44670.29	3.5830	3.5829	0.2807	25.37	-0.00	0.750			
0.6987	44719.48	3.5800	3.5800	0.2311	25.37	-0.00	0.750			
0.6994	44759.57	3.5770	3.5771	0.1811	25.37	0.00	0.750			
0.6998	44789.59	3.5740	3.5742	0.1285	25.37	0.00	0.750			
0.7001	44809.07	3.5710	3.5725	0.0647	25.37	0.00	0.750			
