Ah_balance (normalized)	Ah_balance (mAh)	Voltage - fit (V)	Voltage -  interpolate (V)	dQ/dV (1/V)	Temperature (°C)	Temperature - diff (°C)	Current (C)	R_DC 0ms (mOhm)	R_DC 50ms (mOhm)	R_DC 50 ms PEC (mOhm)
0.0492	3149.24	4.1960	4.1961	0.7654	25.61	0.39	0.750			
0.0515	3295.55	4.1930	4.1930	0.7611	25.61	0.39	0.750			
0.0538	3440.70	4.1900	4.1901	0.7594	25.61	0.39	0.750			
0.0560	3586.12	4.1870	4.1871	0.7613	25.61	0.39	0.750			
0.0583	3731.96	4.1840	4.1840	0.7608	25.61	0.39	0.750			
0.0606	3878.80	4.1810	4.1809	0.7626	25.61	0.39	0.750			
0.0629	4025.79	4.1780	4.1780	0.7654	25.61	0.39	0.750			
0.0652	4173.46	4.1750	4.1751	0.7634	25.61	0.39	0.750			
0.0675	4320.71	4.1720	4.1719	0.7636	25.61	0.39	0.750			
0.0698	4466.34	4.1690	4.1690	0.7656	25.61	0.39	0.750			
0.0721	4612.17	4.1660	4.1660	0.7657	25.61	0.39	0.750			
0.0744	4759.60	4.1630	4.1630	0.7690	25.61	0.39	0.750			
0.0767	4908.12	4.1600	4.1600	0.7718	25.61	0.39	0.750			
0.0790	5056.03	4.1570	4.1570	0.7695	25.61	0.39	0.750			
0.0813	5204.94	4.1540	4.1540	0.7717	25.61	0.39	0.750			
0.0836	5352.28	4.1510	4.1510	0.7721	25.61	0.39	0.750			
0.0859	5499.95	4.1480	4.1480	0.7733	25.61	0.39	0.750			
0.0883	5648.45	4.1450	4.1451	0.7769	25.61	0.39	0.750			
0.0906	5798.25	4.1420	4.1420	0.7766	25.61	0.39	0.750			
0.0929	5948.63	4.1390	4.1390	0.7802	25.60	0.38	0.750			
0.0953	6098.77	4.1360	4.1361	0.7841	25.60	0.38	0.750			
0.0976	6247.73	4.1330	4.1327	0.7834	25.60	0.38	0.750			
0.1000	6398.40	4.1300	4.1300	0.7852	25.60	0.38	0.750			
0.1023	6550.04	4.1270	4.1270	0.7841	25.60	0.38	0.750			
0.1047	6700.24	4.1240	4.1240	0.7872	25.61	0.39	0.750			
0.1071	6853.11	4.1210	4.1210	0.7907	25.61	0.39	0.750			
0.1094	7003.17	4.1180	4.1180	0.7898	25.61	0.39	0.750			
0.1118	7154.99	4.1150	4.1151	0.7905	25.61	0.39	0.750			
0.1142	7310.24	4.1120	4.1120	0.7864	25.61	0.39	0.750			
0.1166	7459.95	4.1090	4.1090	0.7871	25.61	0.39	0.750			
0.1189	7610.26	4.1060	4.1061	0.7920	25.61	0.39	0.750			
0.1212	7759.89	4.1030	4.1031	0.7968	25.61	0.39	0.750			
0.1236	7913.31	4.1000	4.0998	0.8003	25.61	0.39	0.750			
0.1261	8067.98	4.0970	4.0970	0.8052	25.61	0.39	0.750			
0.1285	8225.63	4.0940	4.0941	0.8039	25.61	0.39	0.750			
0.1309	8379.47	4.0910	4.0910	0.8055	25.61	0.39	0.750			
0.1333	8531.78	4.0880	4.0881	0.8020	25.61	0.39	0.750			
0.1357	8686.59	4.0850	4.0847	0.8038	25.61	0.39	0.750			
0.1381	8839.71	4.0820	4.0820	0.8034	25.61	0.39	0.750			
0.1405	8994.62	4.0790	4.0791	0.8109	25.61	0.39	0.750			
0.1430	9151.66	4.0760	4.0761	0.8171	25.62	0.40	0.750			
0.1455	9309.04	4.0730	4.0729	0.8163	25.62	0.40	0.750			
0.1479	9466.37	4.0700	4.0698	0.8190	25.62	0.40	0.750			
0.1504	9623.20	4.0670	4.0671	0.8215	25.62	0.40	0.750			
0.1529	9782.66	4.0640	4.0640	0.8194	25.62	0.40	0.750			
0.1553	9939.12	4.0610	4.0610	0.8231	25.63	0.41	0.750			
0.1577	10094.51	4.0580	4.0580	0.8200	25.63	0.41	0.750			
0.1602	10253.35	4.0550	4.0547	0.8296	25.63	0.41	0.750			
0.1627	10413.07	4.0520	4.0521	0.8356	25.63	0.41	0.750			
0.1652	10574.90	4.0490	4.0491	0.8329	25.63	0.41	0.750			
0.1678	10736.18	4.0460	4.0460	0.8398	25.64	0.42	0.750			
0.1703	10896.24	4.0430	4.0431	0.8373	25.64	0.42	0.750			
0.1728	11057.71	4.0400	4.0397	0.8430	25.64	0.42	0.750			
0.1753	11219.42	4.0370	4.0371	0.8468	25.64	0.42	0.750			
0.1779	11382.54	4.0340	4.0340	0.8460	25.64	0.42	0.750			
0.1804	11546.34	4.0310	4.0311	0.8516	25.65	0.43	0.750			
0.1829	11708.39	4.0280	4.0281	0.8499	25.65	0.43	0.750			
0.1855	11872.64	4.0250	4.0247	0.8553	25.65	0.43	0.750			
0.1881	12038.76	4.0220	4.0220	0.8540	25.65	0.43	0.750			
0.1907	12203.00	4.0190	4.0190	0.8554	25.66	0.44	0.750			
0.1933	12368.02	4.0160	4.0161	0.8600	25.66	0.44	0.750			
0.1958	12532.10	4.0130	4.0131	0.8583	25.67	0.45	0.750			
0.1984	12696.70	4.0100	4.0098	0.8588	25.67	0.45	0.750			
0.2010	12863.01	4.0070	4.0070	0.8557	25.67	0.45	0.750			
0.2035	13026.81	4.0040	4.0041	0.8615	25.67	0.45	0.750			
0.2061	13191.77	4.0010	4.0011	0.8695	25.67	0.45	0.750			
0.2087	13358.88	3.9980	3.9980	0.8765	25.67	0.45	0.750			
0.2113	13526.13	3.9950	3.9951	0.8820	25.67	0.45	0.750			
0.2140	13698.97	3.9920	3.9921	0.8865	25.68	0.46	0.750			
0.2167	13870.65	3.9890	3.9890	0.8960	25.68	0.46	0.750			
0.2194	14044.33	3.9860	3.9860	0.8966	25.68	0.46	0.750			
0.2221	14215.19	3.9830	3.9830	0.8930	25.69	0.47	0.750			
0.2248	14386.87	3.9800	3.9800	0.8948	25.69	0.47	0.750			
0.2275	14558.90	3.9770	3.9771	0.8871	25.69	0.47	0.750			
0.2301	14729.00	3.9740	3.9740	0.8879	25.70	0.48	0.750			
0.2328	14897.66	3.9710	3.9711	0.8914	25.70	0.48	0.750			
0.2354	15068.25	3.9680	3.9674	0.8967	25.70	0.48	0.750			
0.2382	15244.28	3.9650	3.9650	0.8959	25.70	0.48	0.750			
0.2409	15415.24	3.9620	3.9621	0.9004	25.70	0.48	0.750			
0.2436	15589.65	3.9590	3.9591	0.9094	25.71	0.49	0.750			
0.2463	15765.59	3.9560	3.9561	0.9149	25.71	0.49	0.750			
0.2490	15937.89	3.9530	3.9529	0.9119	25.71	0.49	0.750			
0.2518	16113.42	3.9500	3.9500	0.9121	25.72	0.50	0.750			
0.2545	16289.84	3.9470	3.9470	0.9162	25.72	0.50	0.750			
0.2573	16466.79	3.9440	3.9440	0.9189	25.72	0.50	0.750			
0.2600	16642.48	3.9410	3.9409	0.9157	25.73	0.51	0.750			
0.2628	16820.49	3.9380	3.9380	0.9111	25.73	0.51	0.750			
0.2655	16994.72	3.9350	3.9350	0.9139	25.73	0.51	0.750			
0.2683	17168.83	3.9320	3.9321	0.9200	25.73	0.51	0.750			
0.2710	17346.58	3.9290	3.9291	0.9250	25.73	0.51	0.750			
0.2738	17523.39	3.9260	3.9261	0.9281	25.73	0.51	0.750			
0.2766	17705.05	3.9230	3.9231	0.9168	25.73	0.51	0.750			
0.2794	17879.43	3.9200	3.9201	0.9277	25.73	0.51	0.750			
0.2822	18058.28	3.9170	3.9170	0.9306	25.73	0.51	0.750			
0.2849	18234.45	3.9140	3.9138	0.9293	25.73	0.51	0.750			
0.2877	18413.67	3.9110	3.9111	0.9343	25.73	0.51	0.750			
0.2906	18595.26	3.9080	3.9081	0.9381	25.73	0.51	0.750			
0.2934	18776.41	3.9050	3.9050	0.9410	25.73	0.51	0.750			
0.2962	18957.74	3.9020	3.9021	0.9382	25.73	0.51	0.750			
0.2990	19138.55	3.8990	3.8990	0.9399	25.73	0.51	0.750			
0.3019	19320.46	3.8960	3.8959	0.9357	25.73	0.51	0.750			
0.3047	19497.65	3.8930	3.8931	0.9384	25.73	0.51	0.750			
0.3075	19677.75	3.8900	3.8901	0.9435	25.73	0.51	0.750			
0.3103	19859.45	3.8870	3.8866	0.9454	25.73	0.51	0.750			
0.3132	20041.67	3.8840	3.8841	0.9434	25.73	0.51	0.750			
0.3160	20222.37	3.8810	3.8811	0.9480	25.73	0.51	0.750			
0.3188	20406.22	3.8780	3.8780	0.9544	25.72	0.50	0.750			
0.3217	20588.20	3.8750	3.8750	0.9471	25.72	0.50	0.750			
0.3245	20771.08	3.8720	3.8720	0.9503	25.72	0.50	0.750			
0.3274	20954.59	3.8690	3.8690	0.9544	25.71	0.49	0.750			
0.3303	21138.26	3.8660	3.8661	0.9594	25.71	0.49	0.750			
0.3332	21323.71	3.8630	3.8631	0.9631	25.70	0.48	0.750			
0.3360	21506.88	3.8600	3.8599	0.9622	25.70	0.48	0.750			
0.3390	21693.50	3.8570	3.8569	0.9575	25.69	0.47	0.750			
0.3418	21876.33	3.8540	3.8541	0.9599	25.69	0.47	0.750			
0.3447	22059.05	3.8510	3.8511	0.9644	25.69	0.47	0.750			
0.3476	22244.62	3.8480	3.8477	0.9680	25.68	0.46	0.750			
0.3505	22434.85	3.8450	3.8450	0.9551	25.67	0.45	0.750			
0.3533	22613.84	3.8420	3.8421	0.9708	25.67	0.45	0.750			
0.3562	22799.74	3.8390	3.8392	0.9820	25.66	0.44	0.750			
0.3592	22991.26	3.8360	3.8360	0.9931	25.65	0.43	0.750			
0.3622	23179.75	3.8330	3.8325	0.9925	25.65	0.43	0.751	0.317	0.429	
0.3652	23372.20	3.8300	3.8302	1.0029	25.64	0.42	0.750			
0.3683	23569.16	3.8270	3.8270	1.0129	25.64	0.42	0.750			
0.3713	23766.03	3.8240	3.8240	1.0164	25.63	0.41	0.750			
0.3743	23957.74	3.8210	3.8210	1.0066	25.63	0.41	0.750			
0.3774	24151.82	3.8180	3.8181	1.0055	25.62	0.40	0.750			
0.3804	24343.85	3.8150	3.8150	1.0142	25.61	0.39	0.750			
0.3834	24536.71	3.8120	3.8121	1.0226	25.60	0.38	0.750			
0.3865	24736.76	3.8090	3.8090	1.0197	25.59	0.37	0.750			
0.3895	24931.02	3.8060	3.8061	1.0325	25.57	0.35	0.750			
0.3927	25130.15	3.8030	3.8031	1.0483	25.56	0.34	0.750			
0.3958	25333.60	3.8000	3.8001	1.0660	25.55	0.33	0.750			
0.3990	25537.55	3.7970	3.7969	1.0697	25.54	0.32	0.750			
0.4023	25744.90	3.7940	3.7941	1.0904	25.53	0.31	0.750			
0.4056	25956.48	3.7910	3.7911	1.1103	25.52	0.30	0.750			
0.4090	26173.45	3.7880	3.7880	1.1336	25.51	0.29	0.750			
0.4124	26391.71	3.7850	3.7850	1.1351	25.50	0.28	0.750			
0.4158	26610.09	3.7820	3.7821	1.1537	25.49	0.27	0.750			
0.4193	26832.81	3.7790	3.7791	1.1756	25.48	0.26	0.750			
0.4229	27063.31	3.7760	3.7756	1.1852	25.47	0.25	0.750			
0.4264	27289.27	3.7730	3.7731	1.2122	25.46	0.24	0.750			
0.4301	27523.81	3.7700	3.7701	1.2342	25.45	0.23	0.750			
0.4338	27765.66	3.7670	3.7670	1.2572	25.44	0.22	0.750			
0.4376	28007.16	3.7640	3.7641	1.2822	25.42	0.20	0.750			
0.4415	28254.35	3.7610	3.7611	1.3150	25.41	0.19	0.750			
0.4455	28510.86	3.7580	3.7581	1.3489	25.40	0.18	0.750			
0.4496	28775.02	3.7550	3.7550	1.3714	25.39	0.17	0.750			
0.4537	29034.61	3.7520	3.7521	1.3986	25.38	0.16	0.750			
0.4580	29309.06	3.7490	3.7491	1.4296	25.37	0.15	0.750			
0.4623	29588.69	3.7460	3.7461	1.4489	25.35	0.13	0.750			
0.4667	29869.97	3.7430	3.7431	1.4775	25.34	0.12	0.750			
0.4712	30157.88	3.7400	3.7400	1.5112	25.33	0.11	0.750			
0.4758	30452.49	3.7370	3.7369	1.5547	25.31	0.09	0.750			
0.4805	30751.63	3.7340	3.7342	1.5918	25.30	0.08	0.750			
0.4854	31063.70	3.7310	3.7312	1.6437	25.28	0.06	0.750			
0.4904	31383.09	3.7280	3.7283	1.7136	25.27	0.05	0.750			
0.4957	31722.32	3.7250	3.7253	1.7704	25.26	0.04	0.750			
0.5011	32070.01	3.7220	3.7222	1.8132	25.24	0.02	0.750			
0.5065	32414.69	3.7190	3.7191	1.8655	25.23	0.01	0.750			
0.5123	32784.70	3.7160	3.7161	1.9188	25.22	-0.00	0.750			
0.5181	33157.60	3.7130	3.7130	1.9615	25.20	-0.02	0.750			
0.5242	33547.12	3.7100	3.7098	2.0124	25.19	-0.03	0.750			
0.5303	33939.65	3.7070	3.7069	2.0856	25.18	-0.04	0.750			
0.5367	34345.65	3.7040	3.7039	2.1219	25.17	-0.05	0.750			
0.5430	34755.17	3.7010	3.7009	2.1857	25.15	-0.07	0.750			
0.5497	35178.85	3.6980	3.6982	2.2367	25.13	-0.09	0.750			
0.5565	35618.51	3.6950	3.6949	2.2831	25.11	-0.11	0.750			
0.5634	36059.06	3.6920	3.6921	2.3534	25.10	-0.12	0.750			
0.5706	36518.40	3.6890	3.6892	2.4627	25.09	-0.13	0.750			
0.5781	36998.09	3.6860	3.6860	2.5084	25.08	-0.14	0.750			
0.5859	37496.19	3.6830	3.6829	2.5736	25.06	-0.16	0.750			
0.5937	37999.88	3.6800	3.6798	2.6413	25.06	-0.16	0.750			
0.6018	38515.40	3.6770	3.6768	2.7331	25.06	-0.16	0.750			
0.6103	39061.11	3.6740	3.6736	2.7901	25.05	-0.17	0.750			
0.6186	39591.95	3.6710	3.6710	2.7872	25.04	-0.18	0.750			
0.6267	40110.43	3.6680	3.6682	2.7338	25.04	-0.18	0.750			
0.6350	40642.71	3.6650	3.6652	2.5850	25.05	-0.17	0.750			
0.6428	41137.51	3.6620	3.6621	2.3852	25.06	-0.16	0.750			
0.6495	41570.84	3.6590	3.6587	2.1644	25.06	-0.16	0.750			
0.6555	41954.02	3.6560	3.6557	1.9579	25.07	-0.15	0.750			
0.6611	42310.25	3.6530	3.6530	1.8003	25.08	-0.14	0.750			
0.6663	42643.65	3.6500	3.6500	1.6620	25.09	-0.13	0.750			
0.6711	42948.72	3.6470	3.6471	1.5069	25.10	-0.12	0.750			
0.6754	43224.95	3.6440	3.6441	1.3859	25.10	-0.12	0.750			
0.6794	43478.52	3.6410	3.6411	1.2709	25.11	-0.11	0.750			
0.6829	43704.11	3.6380	3.6381	1.1754	25.12	-0.10	0.750			
0.6862	43914.86	3.6350	3.6348	1.0923	25.12	-0.10	0.750			
0.6893	44116.00	3.6320	3.6321	1.0377	25.13	-0.09	0.750			
0.6923	44308.54	3.6290	3.6291	0.9966	25.14	-0.08	0.750			
0.6952	44495.00	3.6260	3.6260	0.9696	25.14	-0.08	0.750			
0.6981	44681.33	3.6230	3.6226	0.9151	25.15	-0.07	0.750			
0.7008	44852.73	3.6200	3.6200	0.8975	25.16	-0.06	0.750			
0.7035	45022.52	3.6170	3.6171	0.8699	25.16	-0.06	0.750			
0.7061	45190.27	3.6140	3.6142	0.8382	25.17	-0.05	0.750			
0.7086	45351.02	3.6110	3.6099	0.7884	25.18	-0.04	0.750			
0.7109	45498.78	3.6080	3.6081	0.7319	25.18	-0.04	0.750			
0.7131	45635.22	3.6050	3.6051	0.6693	25.19	-0.03	0.750			
0.7150	45759.14	3.6020	3.6020	0.6054	25.19	-0.03	0.750			
0.7167	45867.61	3.5990	3.5990	0.5303	25.20	-0.02	0.750			
0.7182	45961.92	3.5960	3.5960	0.4702	25.20	-0.02	0.750			
0.7195	46046.42	3.5930	3.5930	0.4132	25.21	-0.01	0.750			
0.7206	46119.63	3.5900	3.5900	0.3618	25.21	-0.01	0.750			
0.7216	46184.55	3.5870	3.5869	0.3085	25.22	-0.00	0.750			
0.7225	46238.69	3.5840	3.5840	0.2556	25.22	-0.00	0.750			
0.7232	46283.10	3.5810	3.5812	0.2037	25.22	0.00	0.750			
0.7237	46318.10	3.5780	3.5784	0.1507	25.22	0.00	0.750			
0.7241	46341.98	3.5750	3.5760	0.0947	25.22	0.00	0.750			
0.7243	46355.35	3.5720	3.5743	0.0359	25.22	0.00	0.750			
0.7243	46356.48	3.5690	3.5742	-0.0597	25.22	0.00	0.750			
