Ah_balance (normalized)	Ah_balance (mAh)	Voltage - fit (V)	Voltage -  interpolate (V)	dQ/dV (1/V)	Temperature (°C)	Temperature - diff (°C)	Current (C)	R_DC 0ms (mOhm)	R_DC 50ms (mOhm)	R_DC 50 ms PEC (mOhm)
0.0473	3025.48	4.1980	4.1980	0.7564	25.30	0.65	0.750			
0.0496	3172.28	4.1950	4.1950	0.7656	25.30	0.65	0.750			
0.0518	3317.96	4.1920	4.1920	0.7607	25.30	0.65	0.750			
0.0541	3463.39	4.1890	4.1890	0.7531	25.30	0.65	0.750			
0.0564	3606.44	4.1860	4.1861	0.7571	25.30	0.65	0.750			
0.0586	3749.36	4.1830	4.1830	0.7560	25.30	0.65	0.750			
0.0609	3895.34	4.1800	4.1796	0.7633	25.30	0.65	0.750			
0.0632	4042.22	4.1770	4.1771	0.7669	25.30	0.65	0.750			
0.0655	4191.92	4.1740	4.1741	0.7642	25.29	0.64	0.750			
0.0678	4341.03	4.1710	4.1710	0.7706	25.29	0.64	0.750			
0.0701	4487.28	4.1680	4.1681	0.7639	25.28	0.63	0.750			
0.0724	4632.90	4.1650	4.1649	0.7659	25.28	0.63	0.750			
0.0747	4781.35	4.1620	4.1622	0.7710	25.28	0.63	0.750			
0.0770	4930.02	4.1590	4.1590	0.7728	25.28	0.63	0.750			
0.0794	5078.92	4.1560	4.1560	0.7766	25.28	0.63	0.750			
0.0817	5230.30	4.1530	4.1530	0.7818	25.28	0.63	0.750			
0.0840	5378.09	4.1500	4.1500	0.7811	25.28	0.63	0.750			
0.0864	5528.64	4.1470	4.1470	0.7806	25.28	0.63	0.750			
0.0887	5678.92	4.1440	4.1440	0.7799	25.28	0.63	0.750			
0.0911	5829.19	4.1410	4.1410	0.7758	25.28	0.63	0.750			
0.0934	5977.31	4.1380	4.1381	0.7764	25.28	0.63	0.750			
0.0957	6123.48	4.1350	4.1351	0.7773	25.28	0.63	0.750			
0.0980	6272.97	4.1320	4.1313	0.7827	25.28	0.63	0.750			
0.1004	6423.75	4.1290	4.1291	0.7828	25.28	0.63	0.750			
0.1028	6579.24	4.1260	4.1259	0.7745	25.28	0.63	0.750			
0.1051	6728.29	4.1230	4.1232	0.7839	25.29	0.64	0.750			
0.1075	6876.98	4.1200	4.1201	0.7892	25.29	0.64	0.750			
0.1098	7024.38	4.1170	4.1170	0.7863	25.29	0.64	0.750			
0.1121	7176.29	4.1140	4.1142	0.7909	25.29	0.64	0.750			
0.1145	7329.15	4.1110	4.1111	0.7964	25.29	0.64	0.750			
0.1169	7484.62	4.1080	4.1081	0.8001	25.28	0.63	0.750			
0.1194	7641.86	4.1050	4.1050	0.8087	25.28	0.63	0.750			
0.1218	7793.04	4.1020	4.1020	0.7981	25.28	0.63	0.750			
0.1242	7945.89	4.0990	4.0990	0.7986	25.28	0.63	0.750			
0.1266	8101.06	4.0960	4.0959	0.7958	25.28	0.63	0.750			
0.1290	8252.82	4.0930	4.0931	0.7995	25.28	0.63	0.750			
0.1313	8405.07	4.0900	4.0900	0.8057	25.28	0.63	0.750			
0.1337	8559.76	4.0870	4.0870	0.8096	25.28	0.63	0.750			
0.1362	8715.11	4.0840	4.0841	0.8099	25.28	0.63	0.750			
0.1386	8872.22	4.0810	4.0811	0.8181	25.28	0.63	0.750			
0.1411	9030.58	4.0780	4.0781	0.8139	25.28	0.63	0.750			
0.1435	9185.81	4.0750	4.0750	0.8167	25.28	0.63	0.750			
0.1459	9340.09	4.0720	4.0721	0.8142	25.28	0.63	0.750			
0.1484	9497.12	4.0690	4.0686	0.8209	25.28	0.63	0.750			
0.1509	9656.62	4.0660	4.0660	0.8225	25.28	0.63	0.750			
0.1534	9815.23	4.0630	4.0631	0.8267	25.28	0.63	0.750			
0.1559	9974.81	4.0600	4.0600	0.8356	25.28	0.63	0.750			
0.1584	10134.64	4.0570	4.0570	0.8316	25.28	0.63	0.750			
0.1609	10295.01	4.0540	4.0538	0.8344	25.28	0.63	0.750			
0.1634	10456.73	4.0510	4.0511	0.8382	25.28	0.63	0.750			
0.1659	10618.02	4.0480	4.0480	0.8334	25.29	0.64	0.750			
0.1684	10776.50	4.0450	4.0451	0.8360	25.29	0.64	0.750			
0.1709	10934.85	4.0420	4.0421	0.8378	25.30	0.65	0.750			
0.1734	11095.26	4.0390	4.0386	0.8451	25.30	0.65	0.750			
0.1760	11260.85	4.0360	4.0361	0.8466	25.30	0.65	0.750			
0.1785	11424.17	4.0330	4.0332	0.8502	25.30	0.65	0.750			
0.1811	11590.95	4.0300	4.0300	0.8611	25.30	0.65	0.750			
0.1837	11754.12	4.0270	4.0271	0.8546	25.30	0.65	0.750			
0.1862	11917.56	4.0240	4.0241	0.8570	25.30	0.65	0.750			
0.1888	12083.54	4.0210	4.0211	0.8602	25.30	0.65	0.750			
0.1914	12250.15	4.0180	4.0180	0.8674	25.30	0.65	0.750			
0.1940	12418.78	4.0150	4.0150	0.8709	25.30	0.65	0.750			
0.1966	12585.32	4.0120	4.0120	0.8705	25.30	0.65	0.750			
0.1992	12751.98	4.0090	4.0091	0.8681	25.30	0.65	0.750			
0.2019	12922.57	4.0060	4.0060	0.8575	25.30	0.65	0.750			
0.2045	13084.95	4.0030	4.0030	0.8647	25.30	0.65	0.750			
0.2070	13249.28	4.0000	4.0000	0.8724	25.30	0.65	0.750			
0.2096	13415.85	3.9970	3.9970	0.8797	25.30	0.65	0.750			
0.2123	13585.65	3.9940	3.9941	0.8842	25.30	0.65	0.750			
0.2150	13757.18	3.9910	3.9912	0.8828	25.31	0.66	0.750			
0.2176	13927.79	3.9880	3.9881	0.8915	25.31	0.66	0.750			
0.2203	14097.75	3.9850	3.9850	0.8861	25.32	0.67	0.750			
0.2229	14268.36	3.9820	3.9811	0.8945	25.32	0.67	0.750			
0.2257	14441.93	3.9790	3.9790	0.8995	25.32	0.67	0.750			
0.2284	14616.88	3.9760	3.9760	0.9027	25.32	0.67	0.750			
0.2311	14792.13	3.9730	3.9731	0.9066	25.32	0.67	0.750			
0.2339	14966.64	3.9700	3.9701	0.9016	25.32	0.67	0.750			
0.2365	15138.43	3.9670	3.9670	0.9040	25.32	0.67	0.750			
0.2392	15310.29	3.9640	3.9640	0.9044	25.32	0.67	0.750			
0.2419	15481.97	3.9610	3.9611	0.9012	25.32	0.67	0.750			
0.2446	15655.58	3.9580	3.9580	0.9087	25.32	0.67	0.750			
0.2474	15830.92	3.9550	3.9549	0.9127	25.32	0.67	0.750			
0.2501	16006.28	3.9520	3.9521	0.9149	25.32	0.67	0.750			
0.2528	16181.80	3.9490	3.9491	0.9102	25.32	0.67	0.750			
0.2556	16355.45	3.9460	3.9461	0.9144	25.33	0.68	0.750			
0.2583	16531.97	3.9430	3.9431	0.9294	25.33	0.68	0.750			
0.2610	16706.41	3.9400	3.9394	0.9216	25.33	0.68	0.750			
0.2638	16884.95	3.9370	3.9372	0.9258	25.33	0.68	0.750			
0.2666	17064.77	3.9340	3.9341	0.9312	25.33	0.68	0.750			
0.2695	17247.95	3.9310	3.9311	0.9408	25.33	0.68	0.750			
0.2723	17425.89	3.9280	3.9279	0.9274	25.33	0.68	0.750			
0.2751	17604.43	3.9250	3.9250	0.9326	25.33	0.68	0.750			
0.2779	17783.94	3.9220	3.9220	0.9265	25.33	0.68	0.750			
0.2807	17962.47	3.9190	3.9191	0.9325	25.33	0.68	0.750			
0.2834	18140.31	3.9160	3.9160	0.9342	25.33	0.68	0.750			
0.2862	18318.43	3.9130	3.9130	0.9330	25.33	0.68	0.750			
0.2891	18500.34	3.9100	3.9100	0.9174	25.33	0.68	0.750			
0.2918	18674.64	3.9070	3.9071	0.9330	25.34	0.69	0.750			
0.2946	18854.60	3.9040	3.9041	0.9404	25.34	0.69	0.750			
0.2974	19033.22	3.9010	3.9008	0.9430	25.34	0.69	0.750			
0.3003	19216.77	3.8980	3.8981	0.9491	25.34	0.69	0.750			
0.3031	19400.22	3.8950	3.8951	0.9548	25.33	0.68	0.750			
0.3060	19586.61	3.8920	3.8921	0.9605	25.33	0.68	0.750			
0.3089	19772.41	3.8890	3.8891	0.9541	25.32	0.67	0.750			
0.3118	19955.44	3.8860	3.8860	0.9567	25.32	0.67	0.750			
0.3147	20140.10	3.8830	3.8830	0.9465	25.32	0.67	0.750			
0.3175	20318.40	3.8800	3.8801	0.9525	25.31	0.66	0.750			
0.3203	20501.58	3.8770	3.8771	0.9610	25.31	0.66	0.750			
0.3232	20685.03	3.8740	3.8734	0.9663	25.31	0.66	0.750			
0.3261	20871.28	3.8710	3.8711	0.9735	25.30	0.65	0.750			
0.3290	21056.48	3.8680	3.8681	0.9666	25.30	0.65	0.750			
0.3319	21244.08	3.8650	3.8651	0.9756	25.29	0.64	0.750			
0.3348	21429.36	3.8620	3.8620	0.9704	25.28	0.63	0.750			
0.3378	21617.46	3.8590	3.8591	0.9735	25.28	0.63	0.750			
0.3407	21805.01	3.8560	3.8562	0.9810	25.27	0.62	0.750			
0.3437	21995.17	3.8530	3.8531	0.9873	25.27	0.62	0.750			
0.3467	22190.77	3.8500	3.8500	1.0067	25.26	0.61	0.750			
0.3497	22378.94	3.8470	3.8470	0.9821	25.25	0.60	0.750			
0.3527	22569.90	3.8440	3.8439	0.9814	25.25	0.60	0.750			
0.3555	22754.18	3.8410	3.8411	0.9930	25.24	0.59	0.750			
0.3585	22944.29	3.8380	3.8382	1.0039	25.23	0.58	0.750			
0.3615	23137.99	3.8350	3.8351	1.0052	25.22	0.57	0.750			
0.3646	23331.23	3.8320	3.8321	1.0160	25.21	0.56	0.750	0.262	0.374	
0.3676	23527.83	3.8290	3.8292	1.0245	25.20	0.55	0.750			
0.3708	23728.24	3.8260	3.8261	1.0337	25.20	0.55	0.750			
0.3739	23928.12	3.8230	3.8232	1.0319	25.19	0.54	0.750			
0.3769	24122.28	3.8200	3.8200	1.0271	25.18	0.53	0.750			
0.3800	24322.34	3.8170	3.8171	1.0356	25.17	0.52	0.750			
0.3832	24522.23	3.8140	3.8140	1.0449	25.16	0.51	0.750			
0.3863	24723.50	3.8110	3.8111	1.0458	25.15	0.50	0.750			
0.3895	24925.12	3.8080	3.8080	1.0400	25.14	0.49	0.750			
0.3925	25121.46	3.8050	3.8051	1.0506	25.13	0.48	0.750			
0.3957	25322.51	3.8020	3.8022	1.0629	25.12	0.47	0.750			
0.3989	25530.94	3.7990	3.7990	1.0568	25.11	0.46	0.750			
0.4020	25727.89	3.7960	3.7962	1.1066	25.10	0.45	0.750			
0.4053	25937.01	3.7930	3.7932	1.1478	25.09	0.44	0.750			
0.4089	26168.47	3.7900	3.7900	1.1850	25.08	0.43	0.750			
0.4126	26403.47	3.7870	3.7870	1.2022	25.07	0.42	0.750			
0.4163	26640.68	3.7840	3.7843	1.2184	25.05	0.40	0.750			
0.4201	26883.68	3.7810	3.7811	1.2294	25.03	0.38	0.750			
0.4238	27121.28	3.7780	3.7779	1.2172	25.02	0.37	0.750			
0.4272	27341.64	3.7750	3.7750	1.1989	25.01	0.36	0.750			
0.4308	27569.62	3.7720	3.7721	1.2236	25.00	0.35	0.750			
0.4346	27812.57	3.7690	3.7687	1.2331	24.98	0.33	0.750			
0.4383	28049.79	3.7660	3.7661	1.2686	24.97	0.32	0.750			
0.4421	28293.38	3.7630	3.7631	1.3015	24.96	0.31	0.750			
0.4460	28546.42	3.7600	3.7601	1.3329	24.95	0.30	0.750			
0.4501	28805.14	3.7570	3.7571	1.3687	24.93	0.28	0.750			
0.4542	29070.29	3.7540	3.7541	1.4004	24.92	0.27	0.750			
0.4585	29345.90	3.7510	3.7510	1.4191	24.91	0.26	0.750			
0.4629	29623.00	3.7480	3.7480	1.4418	24.89	0.24	0.750			
0.4671	29895.84	3.7450	3.7452	1.4702	24.87	0.22	0.750			
0.4716	30181.25	3.7420	3.7420	1.5109	24.86	0.21	0.750			
0.4762	30474.53	3.7390	3.7390	1.5538	24.84	0.19	0.750			
0.4809	30775.34	3.7360	3.7360	1.6009	24.82	0.17	0.750			
0.4858	31090.66	3.7330	3.7330	1.6508	24.81	0.16	0.750			
0.4909	31416.89	3.7300	3.7300	1.7143	24.79	0.14	0.750			
0.4960	31745.69	3.7270	3.7269	1.7396	24.78	0.13	0.750			
0.5013	32082.48	3.7240	3.7242	1.7930	24.76	0.11	0.750			
0.5068	32438.09	3.7210	3.7210	1.8464	24.74	0.09	0.750			
0.5125	32801.47	3.7180	3.7179	1.8988	24.72	0.07	0.750			
0.5182	33164.93	3.7150	3.7150	1.9340	24.70	0.05	0.750			
0.5242	33546.65	3.7120	3.7122	1.9990	24.68	0.03	0.750			
0.5302	33931.03	3.7090	3.7091	2.0545	24.67	0.02	0.750			
0.5364	34328.90	3.7060	3.7060	2.1227	24.66	0.01	0.750			
0.5429	34744.46	3.7030	3.7029	2.1544	24.64	-0.01	0.750			
0.5494	35161.28	3.7000	3.7000	2.2275	24.62	-0.03	0.750			
0.5562	35595.15	3.6970	3.6970	2.2839	24.61	-0.04	0.750			
0.5632	36044.26	3.6940	3.6941	2.3632	24.59	-0.06	0.750			
0.5705	36509.05	3.6910	3.6911	2.4162	24.57	-0.08	0.750			
0.5779	36983.65	3.6880	3.6878	2.4916	24.56	-0.09	0.750			
0.5852	37455.07	3.6850	3.6849	2.5123	24.55	-0.10	0.750			
0.5929	37943.00	3.6820	3.6821	2.5330	24.54	-0.11	0.750			
0.6004	38427.08	3.6790	3.6789	2.5953	24.53	-0.12	0.750			
0.6084	38935.85	3.6760	3.6757	2.7281	24.52	-0.13	0.750			
0.6169	39479.24	3.6730	3.6727	2.7855	24.51	-0.14	0.750			
0.6255	40034.55	3.6700	3.6701	2.8351	24.51	-0.14	0.750			
0.6338	40562.25	3.6670	3.6670	2.7713	24.50	-0.15	0.750			
0.6420	41090.77	3.6640	3.6645	2.6700	24.51	-0.14	0.750			
0.6499	41594.92	3.6610	3.6610	2.4338	24.52	-0.13	0.750			
0.6567	42028.39	3.6580	3.6582	2.1907	24.52	-0.13	0.750			
0.6629	42426.77	3.6550	3.6544	2.0062	24.52	-0.13	0.750			
0.6685	42784.74	3.6520	3.6517	1.8070	24.53	-0.12	0.750			
0.6736	43112.07	3.6490	3.6489	1.6495	24.54	-0.11	0.750			
0.6785	43422.43	3.6460	3.6462	1.5163	24.55	-0.10	0.750			
0.6827	43694.00	3.6430	3.6431	1.3586	24.56	-0.09	0.750			
0.6866	43940.48	3.6400	3.6401	1.2387	24.56	-0.09	0.750			
0.6902	44171.84	3.6370	3.6368	1.1365	24.57	-0.08	0.750			
0.6930	44354.20	3.6340	3.6341	1.0439	24.57	-0.08	0.750			
0.6960	44543.83	3.6310	3.6312	1.0016	24.58	-0.07	0.750			
0.6989	44726.88	3.6280	3.6281	0.9625	24.58	-0.07	0.750			
0.7017	44911.33	3.6250	3.6251	0.9368	24.59	-0.06	0.750			
0.7045	45090.00	3.6220	3.6221	0.9238	24.60	-0.05	0.750			
0.7073	45269.19	3.6190	3.6191	0.9021	24.61	-0.04	0.750			
0.7100	45440.64	3.6160	3.6156	0.8622	24.62	-0.03	0.750			
0.7126	45605.70	3.6130	3.6132	0.8161	24.63	-0.02	0.750			
0.7150	45761.80	3.6100	3.6101	0.7688	24.63	-0.02	0.750			
0.7173	45907.56	3.6070	3.6070	0.7080	24.64	-0.01	0.750			
0.7194	46040.60	3.6040	3.6039	0.6407	24.64	-0.01	0.750			
0.7211	46152.43	3.6010	3.6010	0.5665	24.65	-0.00	0.750			
0.7227	46253.03	3.5980	3.5979	0.4996	24.65	-0.00	0.750			
0.7241	46341.05	3.5950	3.5951	0.4386	24.65	0.00	0.750			
0.7253	46419.13	3.5920	3.5919	0.3833	24.66	0.01	0.750			
0.7264	46487.08	3.5890	3.5890	0.3273	24.66	0.01	0.750			
0.7273	46544.95	3.5860	3.5860	0.2746	24.66	0.01	0.750			
0.7280	46593.85	3.5830	3.5830	0.2228	24.66	0.01	0.750			
0.7286	46631.39	3.5800	3.5800	0.1665	24.66	0.01	0.750			
0.7290	46658.07	3.5770	3.5776	0.1098	24.66	0.01	0.750			
0.7293	46673.65	3.5740	3.5757	0.0536	24.67	0.02	0.750			
