Ah_balance (normalized)	Ah_balance (mAh)	Voltage - fit (V)	Voltage -  interpolate (V)	dQ/dV (1/V)	Temperature (°C)	Temperature - diff (°C)	Current (C)	R_DC 0ms (mOhm)	R_DC 50ms (mOhm)	R_DC 50 ms PEC (mOhm)
0.0475	3040.03	4.1970	4.1968	0.7935	25.71	0.54	0.750			
0.0498	3184.16	4.1940	4.1941	0.7566	25.71	0.54	0.750			
0.0520	3328.85	4.1910	4.1911	0.7565	25.71	0.54	0.750			
0.0543	3473.69	4.1880	4.1879	0.7597	25.71	0.54	0.750			
0.0565	3618.48	4.1850	4.1850	0.7604	25.71	0.54	0.750			
0.0588	3766.00	4.1820	4.1821	0.7614	25.71	0.54	0.750			
0.0612	3913.61	4.1790	4.1790	0.7628	25.71	0.54	0.750			
0.0635	4061.49	4.1760	4.1761	0.7645	25.71	0.54	0.750			
0.0657	4207.72	4.1730	4.1731	0.7657	25.71	0.54	0.750			
0.0680	4354.32	4.1700	4.1701	0.7671	25.71	0.54	0.750			
0.0703	4501.65	4.1670	4.1670	0.7688	25.71	0.54	0.750			
0.0726	4649.53	4.1640	4.1640	0.7680	25.71	0.54	0.750			
0.0750	4797.65	4.1610	4.1610	0.7709	25.71	0.54	0.750			
0.0773	4945.13	4.1580	4.1581	0.7769	25.71	0.54	0.750			
0.0796	5094.18	4.1550	4.1549	0.7781	25.71	0.54	0.750			
0.0819	5244.59	4.1520	4.1519	0.7786	25.71	0.54	0.750			
0.0843	5394.90	4.1490	4.1490	0.7806	25.71	0.54	0.750			
0.0866	5543.18	4.1460	4.1462	0.7787	25.71	0.54	0.750			
0.0889	5692.01	4.1430	4.1431	0.7817	25.71	0.54	0.750			
0.0913	5840.92	4.1400	4.1400	0.7805	25.71	0.54	0.750			
0.0936	5990.14	4.1370	4.1371	0.7864	25.71	0.54	0.750			
0.0960	6145.62	4.1340	4.1340	0.7881	25.71	0.54	0.750			
0.0984	6297.66	4.1310	4.1311	0.7890	25.71	0.54	0.750			
0.1008	6450.71	4.1280	4.1279	0.7991	25.72	0.55	0.750			
0.1031	6599.20	4.1250	4.1251	0.7873	25.72	0.55	0.750			
0.1055	6750.03	4.1220	4.1221	0.7906	25.72	0.55	0.750			
0.1079	6902.53	4.1190	4.1191	0.7949	25.72	0.55	0.750			
0.1103	7056.28	4.1160	4.1160	0.7943	25.72	0.55	0.750			
0.1127	7210.61	4.1130	4.1130	0.7988	25.71	0.54	0.750			
0.1150	7362.27	4.1100	4.1101	0.7978	25.71	0.54	0.750			
0.1174	7515.69	4.1070	4.1069	0.7984	25.71	0.54	0.750			
0.1198	7669.96	4.1040	4.1040	0.8012	25.71	0.54	0.750			
0.1223	7826.01	4.1010	4.1010	0.7862	25.71	0.54	0.750			
0.1246	7975.95	4.0980	4.0981	0.7976	25.72	0.55	0.750			
0.1270	8127.53	4.0950	4.0951	0.8080	25.72	0.55	0.750			
0.1294	8280.72	4.0920	4.0917	0.8094	25.72	0.55	0.750			
0.1318	8437.32	4.0890	4.0891	0.8136	25.72	0.55	0.750			
0.1343	8596.88	4.0860	4.0861	0.8166	25.72	0.55	0.750			
0.1367	8751.34	4.0830	4.0832	0.8444	25.73	0.56	0.750			
0.1393	8916.81	4.0800	4.0799	0.8636	25.73	0.56	0.750			
0.1419	9081.45	4.0770	4.0764	0.8597	25.73	0.56	0.750			
0.1445	9249.45	4.0740	4.0742	0.8689	25.73	0.56	0.750			
0.1472	9423.04	4.0710	4.0712	0.8660	25.73	0.56	0.750			
0.1498	9589.30	4.0680	4.0680	0.8557	25.73	0.56	0.750			
0.1524	9750.52	4.0650	4.0650	0.8485	25.73	0.56	0.750			
0.1548	9906.76	4.0620	4.0617	0.8321	25.73	0.56	0.750			
0.1573	10065.70	4.0590	4.0590	0.8367	25.73	0.56	0.750			
0.1598	10227.40	4.0560	4.0560	0.8383	25.73	0.56	0.750			
0.1623	10388.61	4.0530	4.0531	0.8443	25.73	0.56	0.750			
0.1649	10551.92	4.0500	4.0500	0.8460	25.73	0.56	0.750			
0.1674	10714.77	4.0470	4.0469	0.8485	25.73	0.56	0.750			
0.1700	10877.97	4.0440	4.0440	0.8509	25.73	0.56	0.750			
0.1725	11041.84	4.0410	4.0411	0.8545	25.73	0.56	0.750			
0.1751	11206.50	4.0380	4.0380	0.8571	25.74	0.57	0.750			
0.1777	11371.21	4.0350	4.0350	0.8578	25.74	0.57	0.750			
0.1802	11535.86	4.0320	4.0320	0.8581	25.74	0.57	0.750			
0.1829	11702.76	4.0290	4.0290	0.8554	25.74	0.57	0.750			
0.1854	11866.52	4.0260	4.0260	0.8589	25.74	0.57	0.750			
0.1880	12030.17	4.0230	4.0231	0.8617	25.75	0.58	0.750			
0.1905	12195.00	4.0200	4.0201	0.8666	25.75	0.58	0.750			
0.1931	12361.42	4.0170	4.0171	0.8716	25.75	0.58	0.750			
0.1958	12530.68	4.0140	4.0140	0.8722	25.75	0.58	0.750			
0.1984	12698.85	4.0110	4.0110	0.8794	25.75	0.58	0.750			
0.2011	12868.57	4.0080	4.0081	0.8820	25.75	0.58	0.750			
0.2037	13037.07	4.0050	4.0050	0.8835	25.75	0.58	0.750			
0.2064	13207.32	4.0020	4.0020	0.8882	25.75	0.58	0.750			
0.2090	13377.56	3.9990	3.9991	0.8871	25.76	0.59	0.750			
0.2117	13548.39	3.9960	3.9961	0.8932	25.76	0.59	0.750			
0.2144	13721.40	3.9930	3.9930	0.9028	25.77	0.60	0.750			
0.2171	13893.76	3.9900	3.9896	0.8998	25.77	0.60	0.750			
0.2198	14067.37	3.9870	3.9870	0.9020	25.77	0.60	0.750			
0.2225	14240.56	3.9840	3.9840	0.9029	25.77	0.60	0.750			
0.2252	14415.33	3.9810	3.9810	0.9078	25.77	0.60	0.750			
0.2280	14590.18	3.9780	3.9780	0.9093	25.77	0.60	0.750			
0.2307	14762.28	3.9750	3.9751	0.9068	25.77	0.60	0.750			
0.2334	14938.78	3.9720	3.9720	0.8967	25.77	0.60	0.750			
0.2361	15110.54	3.9690	3.9691	0.9072	25.77	0.60	0.750			
0.2388	15283.19	3.9660	3.9660	0.9127	25.77	0.60	0.750			
0.2415	15458.35	3.9630	3.9629	0.9167	25.77	0.60	0.750			
0.2443	15635.85	3.9600	3.9601	0.9184	25.77	0.60	0.750			
0.2471	15812.56	3.9570	3.9571	0.9241	25.78	0.61	0.750			
0.2499	15991.61	3.9540	3.9540	0.9285	25.78	0.61	0.750			
0.2527	16171.67	3.9510	3.9511	0.9346	25.79	0.62	0.750			
0.2554	16347.48	3.9480	3.9479	0.9301	25.79	0.62	0.750			
0.2582	16526.85	3.9450	3.9451	0.9279	25.79	0.62	0.750			
0.2610	16706.09	3.9420	3.9420	0.9296	25.79	0.62	0.750			
0.2638	16883.86	3.9390	3.9391	0.9333	25.79	0.62	0.750			
0.2666	17062.99	3.9360	3.9359	0.9355	25.79	0.62	0.750			
0.2694	17244.17	3.9330	3.9330	0.9342	25.79	0.62	0.750			
0.2722	17423.44	3.9300	3.9300	0.9355	25.79	0.62	0.750			
0.2751	17603.32	3.9270	3.9271	0.9382	25.80	0.63	0.750			
0.2779	17783.37	3.9240	3.9241	0.9464	25.80	0.63	0.750			
0.2807	17963.78	3.9210	3.9209	0.9475	25.80	0.63	0.750			
0.2835	18145.75	3.9180	3.9179	0.9452	25.80	0.63	0.750			
0.2864	18326.48	3.9150	3.9151	0.9513	25.81	0.64	0.750			
0.2892	18509.90	3.9120	3.9121	0.9602	25.81	0.64	0.750			
0.2921	18695.73	3.9090	3.9087	0.9613	25.81	0.64	0.750			
0.2950	18881.60	3.9060	3.9060	0.9608	25.81	0.64	0.750			
0.2979	19065.78	3.9030	3.9031	0.9632	25.81	0.64	0.750			
0.3008	19252.35	3.9000	3.9001	0.9676	25.80	0.63	0.750			
0.3037	19436.77	3.8970	3.8969	0.9624	25.80	0.63	0.750			
0.3066	19623.98	3.8940	3.8940	0.9600	25.80	0.63	0.750			
0.3095	19806.21	3.8910	3.8910	0.9652	25.80	0.63	0.750			
0.3124	19992.60	3.8880	3.8881	0.9693	25.81	0.64	0.750			
0.3153	20179.37	3.8850	3.8851	0.9749	25.81	0.64	0.750			
0.3182	20365.93	3.8820	3.8820	0.9780	25.81	0.64	0.750			
0.3211	20553.40	3.8790	3.8791	0.9795	25.80	0.63	0.750			
0.3241	20741.84	3.8760	3.8761	0.9840	25.80	0.63	0.750			
0.3271	20931.58	3.8730	3.8730	0.9891	25.79	0.62	0.750			
0.3300	21121.17	3.8700	3.8698	0.9884	25.79	0.62	0.750			
0.3330	21312.35	3.8670	3.8671	0.9902	25.78	0.61	0.750			
0.3360	21502.62	3.8640	3.8640	0.9883	25.78	0.61	0.750			
0.3390	21692.93	3.8610	3.8611	0.9942	25.78	0.61	0.750			
0.3419	21882.53	3.8580	3.8579	0.9953	25.77	0.60	0.750			
0.3449	22074.78	3.8550	3.8549	0.9941	25.77	0.60	0.750			
0.3479	22264.70	3.8520	3.8520	1.0034	25.76	0.59	0.750			
0.3509	22457.83	3.8490	3.8491	1.0142	25.76	0.59	0.750			
0.3540	22653.93	3.8460	3.8458	1.0202	25.75	0.58	0.750			
0.3571	22852.89	3.8430	3.8430	1.0172	25.74	0.57	0.750			
0.3601	23045.44	3.8400	3.8401	1.0230	25.73	0.56	0.750			
0.3632	23242.57	3.8370	3.8371	1.0354	25.72	0.55	0.750			
0.3663	23443.24	3.8340	3.8339	1.0456	25.71	0.54	0.750			
0.3694	23643.14	3.8310	3.8311	1.0436	25.70	0.53	0.750	0.335	0.418	
0.3726	23844.69	3.8280	3.8281	1.0504	25.69	0.52	0.750			
0.3758	24048.41	3.8250	3.8250	1.0588	25.68	0.51	0.750			
0.3790	24255.74	3.8220	3.8219	1.0629	25.67	0.50	0.750			
0.3821	24456.16	3.8190	3.8189	1.0528	25.66	0.49	0.750			
0.3853	24657.50	3.8160	3.8160	1.0556	25.66	0.49	0.750			
0.3885	24860.93	3.8130	3.8131	1.0613	25.65	0.48	0.750			
0.3916	25065.24	3.8100	3.8097	1.0656	25.64	0.47	0.750			
0.3948	25270.17	3.8070	3.8070	1.0604	25.63	0.46	0.750			
0.3980	25470.63	3.8040	3.8041	1.0701	25.63	0.46	0.750			
0.4012	25676.87	3.8010	3.8011	1.0838	25.62	0.45	0.750			
0.4045	25886.10	3.7980	3.7976	1.0972	25.61	0.44	0.750			
0.4077	26095.69	3.7950	3.7950	1.1065	25.60	0.43	0.750			
0.4111	26310.54	3.7920	3.7921	1.1239	25.59	0.42	0.750			
0.4145	26530.36	3.7890	3.7890	1.1420	25.58	0.41	0.750			
0.4180	26751.96	3.7860	3.7860	1.1370	25.57	0.40	0.750			
0.4214	26969.98	3.7830	3.7830	1.1602	25.56	0.39	0.750			
0.4249	27192.14	3.7800	3.7800	1.1782	25.55	0.38	0.750			
0.4285	27422.66	3.7770	3.7769	1.1890	25.53	0.36	0.750			
0.4320	27650.35	3.7740	3.7741	1.2147	25.52	0.35	0.750			
0.4357	27884.55	3.7710	3.7711	1.2395	25.51	0.34	0.750			
0.4395	28124.82	3.7680	3.7681	1.2681	25.50	0.33	0.750			
0.4433	28368.67	3.7650	3.7649	1.2930	25.49	0.32	0.750			
0.4472	28619.60	3.7620	3.7621	1.3349	25.47	0.30	0.750			
0.4513	28884.31	3.7590	3.7590	1.3626	25.46	0.29	0.750			
0.4555	29150.95	3.7560	3.7559	1.3934	25.45	0.28	0.750			
0.4597	29420.17	3.7530	3.7531	1.4152	25.43	0.26	0.750			
0.4640	29695.43	3.7500	3.7501	1.4414	25.41	0.24	0.750			
0.4683	29973.18	3.7470	3.7470	1.4723	25.40	0.23	0.750			
0.4727	30254.83	3.7440	3.7440	1.5103	25.39	0.22	0.750			
0.4773	30546.28	3.7410	3.7410	1.5471	25.38	0.21	0.750			
0.4820	30849.80	3.7380	3.7381	1.5971	25.36	0.19	0.750			
0.4870	31165.81	3.7350	3.7349	1.6363	25.34	0.17	0.750			
0.4920	31487.62	3.7320	3.7320	1.6656	25.32	0.15	0.750			
0.4972	31822.81	3.7290	3.7288	1.6460	25.30	0.13	0.750			
0.5021	32135.47	3.7260	3.7263	1.6581	25.29	0.12	0.750			
0.5069	32444.75	3.7230	3.7234	1.6789	25.27	0.10	0.750			
0.5119	32759.98	3.7200	3.7193	1.7382	25.26	0.09	0.750			
0.5170	33087.97	3.7170	3.7166	1.8049	25.25	0.08	0.750			
0.5225	33438.30	3.7140	3.7140	1.9244	25.23	0.06	0.750			
0.5285	33826.59	3.7110	3.7111	2.0359	25.20	0.03	0.750			
0.5348	34224.30	3.7080	3.7085	2.0962	25.19	0.02	0.750			
0.5411	34630.43	3.7050	3.7051	2.1330	25.17	0.00	0.750			
0.5476	35049.03	3.7020	3.7026	2.1996	25.15	-0.02	0.750			
0.5545	35489.42	3.6990	3.6987	2.2580	25.13	-0.04	0.750			
0.5615	35936.40	3.6960	3.6963	2.3139	25.11	-0.06	0.750			
0.5685	36381.85	3.6930	3.6930	2.3573	25.10	-0.07	0.750			
0.5756	36838.77	3.6900	3.6899	2.5379	25.07	-0.10	0.750			
0.5830	37313.54	3.6870	3.6874	2.5372	25.06	-0.11	0.750			
0.5910	37826.29	3.6840	3.6839	2.6091	25.05	-0.12	0.750			
0.5989	38329.44	3.6810	3.6814	2.7514	25.04	-0.13	0.750			
0.6067	38830.59	3.6780	3.6778	2.7400	25.04	-0.13	0.750			
0.6153	39376.17	3.6750	3.6752	2.8371	25.02	-0.15	0.750			
0.6243	39953.53	3.6720	3.6717	2.9450	25.01	-0.16	0.750			
0.6329	40504.18	3.6690	3.6686	2.8049	25.01	-0.16	0.750			
0.6411	41033.53	3.6660	3.6661	2.8625	25.01	-0.16	0.750			
0.6500	41599.62	3.6630	3.6630	2.8775	25.01	-0.16	0.750			
0.6581	42120.43	3.6600	3.6594	2.6802	25.01	-0.16	0.750			
0.6655	42590.67	3.6570	3.6575	2.3588	25.02	-0.15	0.750			
0.6719	43000.34	3.6540	3.6532	2.1175	25.03	-0.14	0.750			
0.6778	43382.19	3.6510	3.6508	1.9378	25.04	-0.13	0.750			
0.6832	43724.25	3.6480	3.6484	1.7623	25.05	-0.12	0.750			
0.6880	44031.61	3.6450	3.6454	1.5581	25.05	-0.12	0.750			
0.6928	44338.65	3.6420	3.6412	1.4410	25.06	-0.11	0.750			
0.6965	44574.26	3.6390	3.6393	1.2593	25.07	-0.10	0.750			
0.7000	44800.18	3.6360	3.6361	1.1447	25.08	-0.09	0.750			
0.7030	44992.16	3.6330	3.6331	1.0475	25.09	-0.08	0.750			
0.7059	45178.36	3.6300	3.6299	0.9727	25.09	-0.08	0.750			
0.7088	45361.26	3.6270	3.6271	0.9425	25.10	-0.07	0.750			
0.7115	45538.96	3.6240	3.6240	0.9207	25.11	-0.06	0.750			
0.7143	45715.68	3.6210	3.6210	0.8998	25.11	-0.06	0.750			
0.7170	45885.85	3.6180	3.6179	0.8639	25.12	-0.05	0.750			
0.7196	46053.78	3.6150	3.6149	0.8324	25.13	-0.04	0.750			
0.7221	46214.23	3.6120	3.6120	0.7778	25.14	-0.03	0.750			
0.7244	46362.42	3.6090	3.6090	0.7181	25.15	-0.02	0.750			
0.7265	46494.72	3.6060	3.6061	0.6598	25.16	-0.01	0.750			
0.7283	46613.30	3.6030	3.6033	0.5906	25.16	-0.01	0.750			
0.7300	46720.71	3.6000	3.5993	0.5206	25.17	0.00	0.750			
0.7315	46814.25	3.5970	3.5972	0.4496	25.18	0.01	0.750			
0.7327	46891.41	3.5940	3.5943	0.3909	25.18	0.01	0.750			
0.7338	46960.69	3.5910	3.5913	0.3322	25.19	0.02	0.750			
0.7347	47018.91	3.5880	3.5877	0.2723	25.19	0.02	0.750			
0.7353	47061.92	3.5850	3.5857	0.2125	25.19	0.02	0.750			
0.7359	47097.67	3.5820	3.5831	0.1649	25.19	0.02	0.750			
0.7363	47124.87	3.5790	3.5805	0.1183	25.20	0.03	0.750			
0.7367	47145.96	3.5760	3.5755	-0.0842	25.20	0.03	0.750			
