Ah_balance (normalized)	Ah_balance (mAh)	Voltage - fit (V)	Voltage -  interpolate (V)	dQ/dV (1/V)	Temperature (°C)	Temperature - diff (°C)	Current (C)	R_DC 0ms (mOhm)	R_DC 50ms (mOhm)	R_DC 50 ms PEC (mOhm)
0.0490	3135.26	4.1960	4.1960	0.7509	25.83	0.56	0.750			
0.0512	3279.83	4.1930	4.1930	0.7543	25.83	0.56	0.750			
0.0535	3424.51	4.1900	4.1899	0.7574	25.83	0.56	0.750			
0.0558	3570.37	4.1870	4.1871	0.7604	25.83	0.56	0.750			
0.0581	3718.61	4.1840	4.1840	0.7550	25.83	0.56	0.750			
0.0604	3862.52	4.1810	4.1810	0.7592	25.83	0.56	0.750			
0.0626	4007.22	4.1780	4.1781	0.7596	25.83	0.56	0.750			
0.0649	4153.25	4.1750	4.1751	0.7614	25.83	0.56	0.750			
0.0672	4299.21	4.1720	4.1720	0.7635	25.83	0.56	0.750			
0.0695	4447.19	4.1690	4.1691	0.7617	25.83	0.56	0.750			
0.0718	4594.13	4.1660	4.1661	0.7640	25.83	0.56	0.750			
0.0741	4740.69	4.1630	4.1630	0.7627	25.83	0.56	0.750			
0.0764	4886.86	4.1600	4.1601	0.7654	25.83	0.56	0.750			
0.0786	5033.57	4.1570	4.1570	0.7648	25.83	0.56	0.750			
0.0810	5180.83	4.1540	4.1540	0.7690	25.83	0.56	0.750			
0.0833	5329.17	4.1510	4.1511	0.7715	25.83	0.56	0.750			
0.0856	5478.15	4.1480	4.1480	0.7757	25.84	0.57	0.750			
0.0879	5627.04	4.1450	4.1449	0.7757	25.84	0.57	0.750			
0.0903	5776.14	4.1420	4.1419	0.7784	25.84	0.57	0.750			
0.0926	5925.68	4.1390	4.1390	0.7795	25.84	0.57	0.750			
0.0949	6076.45	4.1360	4.1360	0.7806	25.84	0.57	0.750			
0.0973	6226.77	4.1330	4.1330	0.7791	25.85	0.58	0.750			
0.0996	6376.39	4.1300	4.1300	0.7778	25.85	0.58	0.750			
0.1019	6523.96	4.1270	4.1270	0.7767	25.85	0.58	0.750			
0.1043	6672.50	4.1240	4.1240	0.7793	25.85	0.58	0.750			
0.1066	6823.24	4.1210	4.1210	0.7775	25.85	0.58	0.750			
0.1089	6972.55	4.1180	4.1179	0.7802	25.85	0.58	0.750			
0.1113	7121.88	4.1150	4.1151	0.7868	25.85	0.58	0.750			
0.1136	7273.57	4.1120	4.1121	0.7900	25.85	0.58	0.750			
0.1160	7425.53	4.1090	4.1088	0.7922	25.85	0.58	0.750			
0.1184	7578.08	4.1060	4.1060	0.7939	25.85	0.58	0.750			
0.1208	7730.54	4.1030	4.1031	0.7947	25.85	0.58	0.750			
0.1232	7884.14	4.1000	4.1000	0.7979	25.86	0.59	0.750			
0.1256	8036.60	4.0970	4.0970	0.7986	25.86	0.59	0.750			
0.1280	8189.77	4.0940	4.0939	0.8011	25.86	0.59	0.750			
0.1304	8343.77	4.0910	4.0910	0.8037	25.86	0.59	0.750			
0.1328	8499.84	4.0880	4.0880	0.7982	25.86	0.59	0.750			
0.1352	8653.07	4.0850	4.0850	0.8035	25.87	0.60	0.750			
0.1376	8806.56	4.0820	4.0820	0.8062	25.87	0.60	0.750			
0.1400	8960.09	4.0790	4.0790	0.8073	25.87	0.60	0.750			
0.1424	9115.74	4.0760	4.0760	0.8080	25.87	0.60	0.750			
0.1449	9272.67	4.0730	4.0730	0.8070	25.87	0.60	0.750			
0.1473	9427.69	4.0700	4.0701	0.8133	25.87	0.60	0.750			
0.1498	9584.72	4.0670	4.0670	0.8193	25.87	0.60	0.750			
0.1522	9739.91	4.0640	4.0639	0.8159	25.87	0.60	0.750			
0.1546	9896.90	4.0610	4.0611	0.8209	25.87	0.60	0.750			
0.1571	10055.25	4.0580	4.0581	0.8248	25.87	0.60	0.750			
0.1596	10215.02	4.0550	4.0550	0.8305	25.87	0.60	0.750			
0.1621	10375.20	4.0520	4.0520	0.8350	25.87	0.60	0.750			
0.1646	10534.98	4.0490	4.0490	0.8333	25.87	0.60	0.750			
0.1671	10695.55	4.0460	4.0461	0.8371	25.87	0.60	0.750			
0.1697	10859.04	4.0430	4.0429	0.8331	25.88	0.61	0.750			
0.1722	11017.62	4.0400	4.0400	0.8344	25.88	0.61	0.750			
0.1746	11176.91	4.0370	4.0371	0.8383	25.88	0.61	0.750			
0.1772	11337.65	4.0340	4.0340	0.8410	25.89	0.62	0.750			
0.1797	11498.85	4.0310	4.0311	0.8434	25.89	0.62	0.750			
0.1822	11662.39	4.0280	4.0281	0.8437	25.89	0.62	0.750			
0.1847	11823.16	4.0250	4.0250	0.8505	25.89	0.62	0.750			
0.1873	11988.62	4.0220	4.0220	0.8594	25.89	0.62	0.750			
0.1899	12151.79	4.0190	4.0190	0.8601	25.89	0.62	0.750			
0.1925	12318.13	4.0160	4.0160	0.8634	25.89	0.62	0.750			
0.1951	12486.09	4.0130	4.0130	0.8645	25.90	0.63	0.750			
0.1977	12652.19	4.0100	4.0100	0.8663	25.90	0.63	0.750			
0.2003	12817.95	4.0070	4.0072	0.8650	25.91	0.64	0.750			
0.2029	12983.33	4.0040	4.0038	0.8700	25.91	0.64	0.750			
0.2055	13149.61	4.0010	4.0010	0.8755	25.91	0.64	0.750			
0.2081	13319.66	3.9980	3.9980	0.8707	25.91	0.64	0.750			
0.2107	13487.60	3.9950	3.9950	0.8783	25.91	0.64	0.750			
0.2134	13654.73	3.9920	3.9922	0.8774	25.91	0.64	0.750			
0.2160	13823.77	3.9890	3.9885	0.8844	25.91	0.64	0.750			
0.2187	13996.04	3.9860	3.9860	0.8778	25.91	0.64	0.750			
0.2213	14163.70	3.9830	3.9831	0.8823	25.91	0.64	0.750			
0.2240	14334.60	3.9800	3.9800	0.8877	25.91	0.64	0.750			
0.2267	14507.31	3.9770	3.9771	0.8975	25.91	0.64	0.750			
0.2293	14673.19	3.9740	3.9738	0.8876	25.91	0.64	0.750			
0.2319	14844.07	3.9710	3.9711	0.8968	25.92	0.65	0.750			
0.2347	15017.97	3.9680	3.9681	0.9015	25.92	0.65	0.750			
0.2374	15193.38	3.9650	3.9649	0.9074	25.92	0.65	0.750			
0.2401	15367.53	3.9620	3.9620	0.9053	25.93	0.66	0.750			
0.2428	15542.10	3.9590	3.9590	0.9074	25.93	0.66	0.750			
0.2456	15716.78	3.9560	3.9560	0.8957	25.93	0.66	0.750			
0.2482	15885.94	3.9530	3.9531	0.9005	25.93	0.66	0.750			
0.2509	16057.31	3.9500	3.9502	0.9017	25.93	0.66	0.750			
0.2536	16231.97	3.9470	3.9464	0.9078	25.93	0.66	0.750			
0.2564	16407.65	3.9440	3.9441	0.9043	25.93	0.66	0.750			
0.2591	16580.78	3.9410	3.9412	0.9132	25.93	0.66	0.750			
0.2619	16759.14	3.9380	3.9381	0.9218	25.94	0.67	0.750			
0.2646	16933.97	3.9350	3.9349	0.9109	25.94	0.67	0.750			
0.2674	17111.05	3.9320	3.9320	0.9150	25.94	0.67	0.750			
0.2701	17287.66	3.9290	3.9291	0.9197	25.94	0.67	0.750			
0.2729	17464.74	3.9260	3.9260	0.9232	25.93	0.66	0.750			
0.2757	17644.04	3.9230	3.9230	0.9277	25.93	0.66	0.750			
0.2784	17819.26	3.9200	3.9199	0.9229	25.93	0.66	0.750			
0.2813	18000.12	3.9170	3.9170	0.9175	25.93	0.66	0.750			
0.2840	18179.10	3.9140	3.9139	0.9104	25.93	0.66	0.750			
0.2868	18352.34	3.9110	3.9111	0.8969	25.93	0.66	0.750			
0.2894	18522.52	3.9080	3.9081	0.8827	25.93	0.66	0.750			
0.2920	18687.44	3.9050	3.9051	0.8824	25.93	0.66	0.750			
0.2946	18856.17	3.9020	3.9018	0.8655	25.93	0.66	0.750			
0.2972	19018.67	3.8990	3.8991	0.8822	25.93	0.66	0.750			
0.2998	19189.61	3.8960	3.8961	0.9060	25.93	0.66	0.750			
0.3026	19366.34	3.8930	3.8929	0.9214	25.93	0.66	0.750			
0.3054	19546.56	3.8900	3.8901	0.9244	25.93	0.66	0.750			
0.3082	19725.83	3.8870	3.8872	0.9327	25.92	0.65	0.750			
0.3110	19905.29	3.8840	3.8841	0.9372	25.92	0.65	0.750			
0.3139	20089.43	3.8810	3.8810	0.9446	25.91	0.64	0.750			
0.3166	20265.59	3.8780	3.8780	0.9359	25.91	0.64	0.750			
0.3195	20447.40	3.8750	3.8750	0.9254	25.90	0.63	0.750			
0.3223	20625.91	3.8720	3.8721	0.9355	25.89	0.62	0.750			
0.3251	20804.35	3.8690	3.8691	0.9387	25.89	0.62	0.750			
0.3279	20983.56	3.8660	3.8659	0.9369	25.88	0.61	0.750			
0.3308	21168.06	3.8630	3.8631	0.9246	25.87	0.60	0.750			
0.3335	21343.40	3.8600	3.8600	0.9314	25.87	0.60	0.750			
0.3363	21521.23	3.8570	3.8572	0.9370	25.86	0.59	0.750			
0.3391	21703.05	3.8540	3.8541	0.9504	25.85	0.58	0.750			
0.3419	21880.93	3.8510	3.8509	0.9471	25.85	0.58	0.750			
0.3448	22064.64	3.8480	3.8482	0.9466	25.84	0.57	0.750			
0.3477	22252.03	3.8450	3.8450	0.9430	25.83	0.56	0.750			
0.3504	22427.26	3.8420	3.8422	0.9463	25.83	0.56	0.750			
0.3532	22604.73	3.8390	3.8389	0.9495	25.82	0.55	0.750			
0.3561	22787.38	3.8360	3.8362	0.9432	25.81	0.54	0.750	0.292	0.407	
0.3589	22968.33	3.8330	3.8335	0.9703	25.80	0.53	0.750			
0.3618	23157.35	3.8300	3.8305	0.9894	25.79	0.52	0.750			
0.3649	23352.21	3.8270	3.8273	1.0041	25.78	0.51	0.750			
0.3680	23554.40	3.8240	3.8240	1.0165	25.77	0.50	0.750			
0.3709	23737.65	3.8210	3.8212	0.9867	25.76	0.49	0.750			
0.3739	23929.39	3.8180	3.8181	1.0013	25.75	0.48	0.750			
0.3769	24123.82	3.8150	3.8151	1.0124	25.74	0.47	0.750			
0.3799	24315.05	3.8120	3.8121	1.0028	25.73	0.46	0.750			
0.3829	24508.16	3.8090	3.8092	1.0179	25.72	0.45	0.750			
0.3860	24705.63	3.8060	3.8060	1.0356	25.71	0.44	0.750			
0.3892	24908.44	3.8030	3.8030	1.0508	25.70	0.43	0.750			
0.3924	25112.94	3.8000	3.8000	1.0325	25.68	0.41	0.750			
0.3955	25310.17	3.7970	3.7971	1.0546	25.68	0.41	0.750			
0.3986	25511.37	3.7940	3.7941	1.0744	25.66	0.39	0.750			
0.4018	25717.90	3.7910	3.7913	1.0943	25.65	0.38	0.750			
0.4052	25930.29	3.7880	3.7880	1.0937	25.64	0.37	0.750			
0.4084	26138.44	3.7850	3.7852	1.1219	25.63	0.36	0.750			
0.4118	26358.12	3.7820	3.7821	1.1467	25.62	0.35	0.750			
0.4154	26582.95	3.7790	3.7785	1.1651	25.61	0.34	0.750			
0.4188	26805.66	3.7760	3.7761	1.1807	25.60	0.33	0.750			
0.4224	27033.39	3.7730	3.7732	1.2057	25.59	0.32	0.750			
0.4261	27269.37	3.7700	3.7700	1.2402	25.58	0.31	0.750			
0.4299	27514.91	3.7670	3.7670	1.2680	25.56	0.29	0.750			
0.4336	27750.45	3.7640	3.7641	1.2791	25.55	0.28	0.750			
0.4375	28000.88	3.7610	3.7611	1.3157	25.53	0.26	0.750			
0.4415	28258.21	3.7580	3.7581	1.3285	25.52	0.25	0.750			
0.4455	28511.13	3.7550	3.7552	1.3502	25.50	0.23	0.750			
0.4496	28774.22	3.7520	3.7521	1.3802	25.49	0.22	0.750			
0.4539	29046.67	3.7490	3.7486	1.3980	25.48	0.21	0.750			
0.4580	29313.48	3.7460	3.7462	1.4265	25.46	0.19	0.750			
0.4624	29595.24	3.7430	3.7431	1.4535	25.45	0.18	0.750			
0.4670	29884.82	3.7400	3.7399	1.4844	25.44	0.17	0.750			
0.4716	30179.51	3.7370	3.7372	1.5168	25.42	0.15	0.750			
0.4760	30463.07	3.7340	3.7343	1.5509	25.40	0.13	0.750			
0.4806	30759.29	3.7310	3.7315	1.6148	25.38	0.11	0.750			
0.4855	31074.11	3.7280	3.7282	1.6818	25.37	0.10	0.750			
0.4906	31399.81	3.7250	3.7244	1.7389	25.35	0.08	0.750			
0.4959	31737.74	3.7220	3.7219	1.8217	25.33	0.06	0.750			
0.5017	32106.95	3.7190	3.7189	1.8243	25.32	0.05	0.750			
0.5073	32466.78	3.7160	3.7163	1.9402	25.30	0.03	0.750			
0.5129	32828.51	3.7130	3.7133	1.9505	25.29	0.02	0.750			
0.5188	33204.93	3.7100	3.7099	1.9820	25.27	0.00	0.750			
0.5247	33583.25	3.7070	3.7072	2.0115	25.26	-0.01	0.750			
0.5311	33987.94	3.7040	3.7039	2.0781	25.24	-0.03	0.750			
0.5374	34392.10	3.7010	3.7008	2.1097	25.22	-0.05	0.750			
0.5438	34805.33	3.6980	3.6980	2.1576	25.20	-0.07	0.750			
0.5506	35237.51	3.6950	3.6953	2.2724	25.19	-0.08	0.750			
0.5574	35675.79	3.6920	3.6926	2.3035	25.18	-0.09	0.750			
0.5645	36130.15	3.6890	3.6891	2.4170	25.17	-0.10	0.750			
0.5720	36609.49	3.6860	3.6855	2.4687	25.16	-0.11	0.750			
0.5795	37087.56	3.6830	3.6825	2.5685	25.14	-0.13	0.750			
0.5876	37605.88	3.6800	3.6803	2.5983	25.13	-0.14	0.750			
0.5957	38127.57	3.6770	3.6769	2.6402	25.13	-0.14	0.750			
0.6036	38631.84	3.6740	3.6741	2.7585	25.12	-0.15	0.750			
0.6119	39160.65	3.6710	3.6709	2.5541	25.12	-0.15	0.750			
0.6196	39651.74	3.6680	3.6683	2.4812	25.12	-0.15	0.750			
0.6272	40139.71	3.6650	3.6651	2.3838	25.12	-0.15	0.750			
0.6345	40608.19	3.6620	3.6618	2.3603	25.12	-0.15	0.750			
0.6410	41026.16	3.6590	3.6589	2.0957	25.12	-0.15	0.750			
0.6470	41407.36	3.6560	3.6561	1.9143	25.13	-0.14	0.750			
0.6523	41749.96	3.6530	3.6530	1.7525	25.14	-0.13	0.750			
0.6573	42065.48	3.6500	3.6502	1.6097	25.15	-0.12	0.750			
0.6620	42371.01	3.6470	3.6475	1.4965	25.16	-0.11	0.750			
0.6664	42648.03	3.6440	3.6436	1.3780	25.17	-0.10	0.750			
0.6703	42899.11	3.6410	3.6411	1.2625	25.18	-0.09	0.750			
0.6739	43127.62	3.6380	3.6381	1.1710	25.18	-0.09	0.750			
0.6771	43332.40	3.6350	3.6350	1.0924	25.19	-0.08	0.750			
0.6802	43531.24	3.6320	3.6322	1.0268	25.19	-0.08	0.750			
0.6831	43721.40	3.6290	3.6291	0.9891	25.20	-0.07	0.750			
0.6861	43910.29	3.6260	3.6260	0.9641	25.21	-0.06	0.750			
0.6890	44098.43	3.6230	3.6229	0.9466	25.22	-0.05	0.750			
0.6917	44271.36	3.6200	3.6200	0.8947	25.22	-0.05	0.750			
0.6944	44444.69	3.6170	3.6169	0.8532	25.23	-0.04	0.750			
0.6969	44604.26	3.6140	3.6141	0.8112	25.24	-0.03	0.750			
0.6993	44756.83	3.6110	3.6110	0.7627	25.25	-0.02	0.750			
0.7016	44899.48	3.6080	3.6081	0.7045	25.26	-0.01	0.750			
0.7036	45029.64	3.6050	3.6045	0.6450	25.27	0.00	0.750			
0.7054	45148.52	3.6020	3.6021	0.5828	25.28	0.01	0.750			
0.7071	45253.72	3.5990	3.5991	0.5216	25.29	0.02	0.750			
0.7086	45348.19	3.5960	3.5959	0.4624	25.29	0.02	0.750			
0.7098	45429.66	3.5930	3.5929	0.3976	25.30	0.03	0.750			
0.7109	45500.27	3.5900	3.5899	0.3435	25.30	0.03	0.750			
0.7119	45560.56	3.5870	3.5872	0.2957	25.30	0.03	0.750			
0.7127	45611.41	3.5840	3.5843	0.2452	25.31	0.04	0.750			
0.7133	45653.67	3.5810	3.5814	0.1984	25.31	0.04	0.750			
0.7138	45684.98	3.5780	3.5789	0.1679	25.31	0.04	0.750			
0.7143	45714.89	3.5750	3.5755	0.1496	25.31	0.04	0.750			
