Ah_balance (normalized)	Ah_balance (mAh)	Voltage - fit (V)	Voltage -  interpolate (V)	dQ/dV (1/V)	Temperature (°C)	Temperature - diff (°C)	Current (C)	R_DC 0ms (mOhm)	R_DC 50ms (mOhm)	R_DC 50 ms PEC (mOhm)
0.0480	3074.41	4.1970	4.1970	0.7738	25.51	0.41	0.750			
0.0503	3221.56	4.1940	4.1941	0.7651	25.51	0.41	0.750			
0.0526	3366.90	4.1910	4.1910	0.7632	25.51	0.41	0.750			
0.0549	3513.31	4.1880	4.1880	0.7639	25.51	0.41	0.750			
0.0572	3659.49	4.1850	4.1849	0.7652	25.51	0.41	0.750			
0.0595	3805.39	4.1820	4.1821	0.7701	25.51	0.41	0.750			
0.0618	3955.47	4.1790	4.1790	0.7711	25.51	0.41	0.750			
0.0641	4103.98	4.1760	4.1760	0.7733	25.51	0.41	0.750			
0.0665	4252.87	4.1730	4.1730	0.7738	25.51	0.41	0.750			
0.0688	4400.98	4.1700	4.1700	0.7741	25.51	0.41	0.750			
0.0711	4549.74	4.1670	4.1670	0.7738	25.51	0.41	0.750			
0.0734	4697.87	4.1640	4.1640	0.7741	25.51	0.41	0.750			
0.0757	4845.48	4.1610	4.1610	0.7761	25.51	0.41	0.750			
0.0781	4995.71	4.1580	4.1580	0.7834	25.51	0.41	0.750			
0.0804	5146.00	4.1550	4.1550	0.7840	25.51	0.41	0.750			
0.0828	5297.79	4.1520	4.1518	0.7855	25.51	0.41	0.750			
0.0852	5450.11	4.1490	4.1491	0.7864	25.51	0.41	0.750			
0.0875	5602.22	4.1460	4.1461	0.7830	25.51	0.41	0.750			
0.0899	5750.99	4.1430	4.1430	0.7861	25.50	0.40	0.750			
0.0922	5901.16	4.1400	4.1400	0.7868	25.50	0.40	0.750			
0.0945	6051.08	4.1370	4.1369	0.7863	25.50	0.40	0.750			
0.0969	6202.67	4.1340	4.1341	0.7907	25.50	0.40	0.750			
0.0993	6355.88	4.1310	4.1310	0.7963	25.50	0.40	0.750			
0.1017	6509.43	4.1280	4.1280	0.7964	25.50	0.40	0.750			
0.1041	6663.51	4.1250	4.1250	0.7982	25.50	0.40	0.750			
0.1065	6815.25	4.1220	4.1220	0.7973	25.50	0.40	0.750			
0.1089	6968.69	4.1190	4.1190	0.8012	25.50	0.40	0.750			
0.1113	7123.98	4.1160	4.1159	0.8001	25.50	0.40	0.750			
0.1137	7276.70	4.1130	4.1130	0.8004	25.50	0.40	0.750			
0.1161	7430.22	4.1100	4.1100	0.8025	25.51	0.41	0.750			
0.1185	7584.54	4.1070	4.1071	0.8056	25.51	0.41	0.750			
0.1209	7738.76	4.1040	4.1039	0.8094	25.51	0.41	0.750			
0.1233	7894.27	4.1010	4.1010	0.8145	25.51	0.41	0.750			
0.1258	8051.61	4.0980	4.0980	0.8130	25.51	0.41	0.750			
0.1283	8208.05	4.0950	4.0951	0.8168	25.51	0.41	0.750			
0.1307	8364.81	4.0920	4.0921	0.8155	25.51	0.41	0.750			
0.1331	8521.36	4.0890	4.0888	0.8186	25.51	0.41	0.750			
0.1356	8678.15	4.0860	4.0859	0.8190	25.51	0.41	0.750			
0.1381	8835.31	4.0830	4.0831	0.8196	25.51	0.41	0.750			
0.1405	8993.18	4.0800	4.0800	0.8249	25.51	0.41	0.750			
0.1430	9151.71	4.0770	4.0771	0.8268	25.51	0.41	0.750			
0.1455	9310.96	4.0740	4.0739	0.8331	25.51	0.41	0.750			
0.1480	9471.41	4.0710	4.0710	0.8363	25.51	0.41	0.750			
0.1505	9632.55	4.0680	4.0680	0.8340	25.51	0.41	0.750			
0.1530	9792.96	4.0650	4.0650	0.8389	25.50	0.40	0.750			
0.1555	9952.84	4.0620	4.0621	0.8402	25.50	0.40	0.750			
0.1581	10117.89	4.0590	4.0587	0.8335	25.50	0.40	0.750			
0.1606	10278.99	4.0560	4.0560	0.8271	25.50	0.40	0.750			
0.1631	10436.18	4.0530	4.0531	0.8181	25.50	0.40	0.750			
0.1655	10591.86	4.0500	4.0503	0.8182	25.51	0.41	0.750			
0.1679	10743.45	4.0470	4.0467	0.8145	25.51	0.41	0.750			
0.1703	10897.83	4.0440	4.0436	0.8259	25.51	0.41	0.750			
0.1727	11055.19	4.0410	4.0411	0.8362	25.51	0.41	0.750			
0.1753	11221.66	4.0380	4.0381	0.8498	25.52	0.42	0.750			
0.1780	11391.19	4.0350	4.0350	0.8637	25.52	0.42	0.750			
0.1806	11556.68	4.0320	4.0321	0.8707	25.53	0.43	0.750			
0.1832	11721.64	4.0290	4.0289	0.8690	25.53	0.43	0.750			
0.1858	11889.94	4.0260	4.0260	0.8720	25.53	0.43	0.750			
0.1884	12056.73	4.0230	4.0230	0.8647	25.53	0.43	0.750			
0.1910	12220.91	4.0200	4.0202	0.8781	25.53	0.43	0.750			
0.1936	12389.49	4.0170	4.0171	0.8818	25.53	0.43	0.750			
0.1963	12560.53	4.0140	4.0140	0.8850	25.53	0.43	0.750			
0.1990	12733.00	4.0110	4.0111	0.8767	25.54	0.44	0.750			
0.2016	12902.37	4.0080	4.0082	0.8862	25.54	0.44	0.750			
0.2043	13072.83	4.0050	4.0051	0.8908	25.54	0.44	0.750			
0.2069	13239.70	4.0020	4.0020	0.8863	25.55	0.45	0.750			
0.2095	13409.00	3.9990	3.9990	0.8942	25.55	0.45	0.750			
0.2123	13584.05	3.9960	3.9961	0.9021	25.55	0.45	0.750			
0.2150	13759.23	3.9930	3.9931	0.9090	25.56	0.46	0.750			
0.2178	13938.96	3.9900	3.9900	0.9193	25.56	0.46	0.750			
0.2205	14110.80	3.9870	3.9868	0.9110	25.56	0.46	0.750			
0.2232	14286.93	3.9840	3.9840	0.9047	25.56	0.46	0.750			
0.2259	14460.21	3.9810	3.9810	0.9074	25.56	0.46	0.750			
0.2286	14633.48	3.9780	3.9781	0.9153	25.57	0.47	0.750			
0.2314	14810.42	3.9750	3.9750	0.9189	25.57	0.47	0.750			
0.2342	14986.29	3.9720	3.9720	0.9178	25.57	0.47	0.750			
0.2370	15166.15	3.9690	3.9690	0.9011	25.58	0.48	0.750			
0.2396	15337.52	3.9660	3.9662	0.9114	25.58	0.48	0.750			
0.2424	15510.90	3.9630	3.9631	0.9249	25.58	0.48	0.750			
0.2451	15686.19	3.9600	3.9597	0.9259	25.59	0.49	0.750			
0.2479	15866.61	3.9570	3.9571	0.9269	25.59	0.49	0.750			
0.2507	16046.59	3.9540	3.9541	0.9386	25.59	0.49	0.750			
0.2536	16229.19	3.9510	3.9511	0.9430	25.60	0.50	0.750			
0.2565	16414.15	3.9480	3.9481	0.9494	25.60	0.50	0.750			
0.2592	16590.65	3.9450	3.9449	0.9369	25.60	0.50	0.750			
0.2621	16771.41	3.9420	3.9421	0.9275	25.60	0.50	0.750			
0.2648	16947.65	3.9390	3.9390	0.9371	25.61	0.51	0.750			
0.2676	17127.18	3.9360	3.9361	0.9435	25.61	0.51	0.750			
0.2704	17307.56	3.9330	3.9325	0.9472	25.61	0.51	0.750			
0.2733	17492.34	3.9300	3.9301	0.9493	25.61	0.51	0.750			
0.2762	17675.14	3.9270	3.9271	0.9571	25.61	0.51	0.750			
0.2791	17861.30	3.9240	3.9241	0.9668	25.62	0.52	0.750			
0.2820	18045.06	3.9210	3.9210	0.9640	25.62	0.52	0.750			
0.2849	18231.51	3.9180	3.9180	0.9630	25.62	0.52	0.750			
0.2878	18417.22	3.9150	3.9151	0.9674	25.62	0.52	0.750			
0.2907	18603.09	3.9120	3.9121	0.9735	25.63	0.53	0.750			
0.2936	18792.27	3.9090	3.9089	0.9788	25.63	0.53	0.750			
0.2965	18977.98	3.9060	3.9059	0.9772	25.63	0.53	0.750			
0.2995	19165.71	3.9030	3.9031	0.9726	25.63	0.53	0.750			
0.3024	19351.95	3.9000	3.9000	0.9763	25.63	0.53	0.750			
0.3053	19539.82	3.8970	3.8971	0.9873	25.63	0.53	0.750			
0.3083	19729.00	3.8940	3.8937	0.9893	25.63	0.53	0.750			
0.3112	19918.67	3.8910	3.8910	0.9858	25.63	0.53	0.750			
0.3142	20109.14	3.8880	3.8881	0.9920	25.64	0.54	0.750			
0.3172	20299.87	3.8850	3.8852	1.0022	25.64	0.54	0.750			
0.3202	20492.65	3.8820	3.8817	1.0024	25.65	0.55	0.750			
0.3232	20685.09	3.8790	3.8791	1.0026	25.65	0.55	0.750			
0.3262	20877.96	3.8760	3.8761	1.0089	25.65	0.55	0.750			
0.3293	21074.24	3.8730	3.8730	1.0207	25.65	0.55	0.750			
0.3324	21270.48	3.8700	3.8699	1.0138	25.65	0.55	0.750			
0.3354	21465.82	3.8670	3.8671	1.0161	25.65	0.55	0.750			
0.3384	21655.91	3.8640	3.8641	1.0078	25.65	0.55	0.750			
0.3414	21848.39	3.8610	3.8612	1.0174	25.64	0.54	0.750			
0.3444	22042.87	3.8580	3.8581	1.0203	25.64	0.54	0.750			
0.3475	22241.58	3.8550	3.8551	1.0253	25.64	0.54	0.750			
0.3506	22440.06	3.8520	3.8522	1.0391	25.64	0.54	0.750			
0.3538	22644.16	3.8490	3.8491	1.0506	25.63	0.53	0.750			
0.3570	22849.46	3.8460	3.8460	1.0606	25.63	0.53	0.750			
0.3601	23048.27	3.8430	3.8432	1.0436	25.63	0.53	0.750			
0.3632	23246.32	3.8400	3.8400	1.0530	25.62	0.52	0.750			
0.3664	23449.28	3.8370	3.8371	1.0679	25.62	0.52	0.750			
0.3696	23656.99	3.8340	3.8339	1.0822	25.61	0.51	0.750			
0.3729	23863.85	3.8310	3.8308	1.0770	25.61	0.51	0.750	0.330	0.423	
0.3761	24072.45	3.8280	3.8282	1.0920	25.60	0.50	0.750			
0.3794	24283.60	3.8250	3.8251	1.1007	25.60	0.50	0.750			
0.3828	24496.35	3.8220	3.8215	1.1094	25.59	0.49	0.750			
0.3861	24711.09	3.8190	3.8190	1.0925	25.58	0.48	0.750			
0.3893	24918.20	3.8160	3.8162	1.1023	25.57	0.47	0.750			
0.3927	25130.69	3.8130	3.8131	1.1090	25.56	0.46	0.750			
0.3960	25347.13	3.8100	3.8094	1.1110	25.55	0.45	0.750			
0.3993	25554.51	3.8070	3.8072	1.1112	25.54	0.44	0.750			
0.4026	25769.23	3.8040	3.8041	1.1250	25.54	0.44	0.750			
0.4061	25989.15	3.8010	3.8011	1.1363	25.53	0.43	0.750			
0.4095	26211.05	3.7980	3.7980	1.1139	25.53	0.43	0.750			
0.4128	26422.34	3.7950	3.7951	1.1374	25.52	0.42	0.750			
0.4163	26641.58	3.7920	3.7921	1.1508	25.52	0.42	0.750			
0.4198	26864.61	3.7890	3.7887	1.1616	25.51	0.41	0.750			
0.4232	27086.71	3.7860	3.7862	1.1705	25.50	0.40	0.750			
0.4268	27312.42	3.7830	3.7831	1.1909	25.49	0.39	0.750			
0.4304	27544.00	3.7800	3.7801	1.2119	25.47	0.37	0.750			
0.4340	27778.54	3.7770	3.7771	1.2177	25.46	0.36	0.750			
0.4377	28014.01	3.7740	3.7740	1.2449	25.45	0.35	0.750			
0.4415	28256.70	3.7710	3.7711	1.2709	25.44	0.34	0.750			
0.4454	28504.48	3.7680	3.7680	1.2868	25.43	0.33	0.750			
0.4493	28752.04	3.7650	3.7650	1.3113	25.42	0.32	0.750			
0.4532	29004.75	3.7620	3.7621	1.3253	25.41	0.31	0.750			
0.4572	29260.23	3.7590	3.7588	1.3472	25.40	0.30	0.750			
0.4612	29517.17	3.7560	3.7561	1.3895	25.39	0.29	0.750			
0.4654	29783.78	3.7530	3.7525	1.4274	25.38	0.28	0.750			
0.4698	30067.24	3.7500	3.7498	1.4384	25.37	0.27	0.750			
0.4742	30351.65	3.7470	3.7472	1.4798	25.36	0.26	0.750			
0.4787	30637.67	3.7440	3.7442	1.5169	25.34	0.24	0.750			
0.4833	30929.31	3.7410	3.7408	1.5405	25.32	0.22	0.750			
0.4879	31222.81	3.7380	3.7384	1.5887	25.30	0.20	0.750			
0.4928	31537.65	3.7350	3.7353	1.6311	25.29	0.19	0.750			
0.4978	31857.92	3.7320	3.7318	1.6971	25.27	0.17	0.750			
0.5030	32191.39	3.7290	3.7288	1.7600	25.26	0.16	0.750			
0.5084	32537.14	3.7260	3.7259	1.8159	25.25	0.15	0.750			
0.5139	32891.46	3.7230	3.7231	1.8745	25.23	0.13	0.750			
0.5196	33254.69	3.7200	3.7201	1.9187	25.20	0.10	0.750			
0.5253	33620.41	3.7170	3.7172	1.9819	25.19	0.09	0.750			
0.5315	34013.69	3.7140	3.7140	2.0343	25.17	0.07	0.750			
0.5376	34405.77	3.7110	3.7112	2.0538	25.16	0.06	0.750			
0.5437	34796.54	3.7080	3.7082	2.1426	25.14	0.04	0.750			
0.5503	35216.82	3.7050	3.7051	2.2029	25.13	0.03	0.750			
0.5569	35642.55	3.7020	3.7021	2.2498	25.10	0.00	0.750			
0.5638	36080.18	3.6990	3.6990	2.2852	25.08	-0.02	0.750			
0.5709	36535.42	3.6960	3.6956	2.3837	25.06	-0.04	0.750			
0.5780	36988.93	3.6930	3.6934	2.4451	25.05	-0.05	0.750			
0.5855	37469.00	3.6900	3.6904	2.5482	25.03	-0.07	0.750			
0.5936	37988.38	3.6870	3.6869	2.5835	25.01	-0.09	0.750			
0.6016	38500.72	3.6840	3.6836	2.6428	25.00	-0.10	0.750			
0.6098	39027.75	3.6810	3.6810	2.7232	24.98	-0.12	0.750			
0.6178	39538.79	3.6780	3.6776	2.7522	24.98	-0.12	0.750			
0.6265	40097.55	3.6750	3.6747	2.8995	24.97	-0.13	0.750			
0.6353	40659.24	3.6720	3.6719	2.9604	24.96	-0.14	0.750			
0.6443	41234.06	3.6690	3.6689	2.9998	24.95	-0.15	0.750			
0.6529	41787.57	3.6660	3.6662	2.9272	24.94	-0.16	0.750			
0.6619	42361.16	3.6630	3.6631	2.8622	24.94	-0.16	0.750			
0.6705	42911.01	3.6600	3.6602	2.6605	24.95	-0.15	0.750			
0.6784	43415.86	3.6570	3.6568	2.4729	24.96	-0.14	0.750			
0.6854	43866.27	3.6540	3.6538	2.2456	24.96	-0.14	0.750			
0.6916	44263.03	3.6510	3.6512	1.9849	24.97	-0.13	0.750			
0.6973	44629.48	3.6480	3.6483	1.8036	24.98	-0.12	0.750			
0.7025	44959.38	3.6450	3.6452	1.6106	24.99	-0.11	0.750			
0.7070	45245.37	3.6420	3.6421	1.4102	25.00	-0.10	0.750			
0.7110	45505.62	3.6390	3.6391	1.2365	25.01	-0.09	0.750			
0.7145	45727.15	3.6360	3.6359	1.1112	25.02	-0.08	0.750			
0.7173	45904.37	3.6330	3.6331	0.9979	25.02	-0.08	0.750			
0.7200	46082.28	3.6300	3.6297	0.9268	25.03	-0.07	0.750			
0.7227	46253.04	3.6270	3.6271	0.8888	25.04	-0.06	0.750			
0.7253	46417.65	3.6240	3.6242	0.8523	25.04	-0.06	0.750			
0.7278	46580.08	3.6210	3.6211	0.8319	25.05	-0.05	0.750			
0.7303	46741.77	3.6180	3.6179	0.8116	25.05	-0.05	0.750			
0.7327	46890.55	3.6150	3.6146	0.7689	25.06	-0.04	0.750			
0.7350	47039.27	3.6120	3.6120	0.7235	25.07	-0.03	0.750			
0.7372	47179.81	3.6090	3.6091	0.6759	25.07	-0.03	0.750			
0.7392	47306.66	3.6060	3.6061	0.6083	25.08	-0.02	0.750			
0.7410	47421.96	3.6030	3.6030	0.5317	25.09	-0.01	0.750			
0.7424	47511.46	3.6000	3.6000	0.4557	25.09	-0.01	0.750			
0.7436	47587.91	3.5970	3.5972	0.3855	25.09	-0.01	0.750			
0.7446	47653.08	3.5940	3.5943	0.3159	25.10	-0.00	0.750			
0.7454	47707.08	3.5910	3.5894	0.2580	25.10	-0.00	0.750			
0.7461	47749.22	3.5880	3.5888	0.2057	25.10	0.00	0.750			
0.7466	47783.35	3.5850	3.5860	0.1640	25.10	0.00	0.750			
0.7470	47810.97	3.5820	3.5826	0.1246	25.10	0.00	0.750			
