Ah_balance (normalized)	Ah_balance (mAh)	Voltage - fit (V)	Voltage -  interpolate (V)	dQ/dV (1/V)	Temperature (°C)	Temperature - diff (°C)	Current (C)	R_DC 0ms (mOhm)	R_DC 50ms (mOhm)	R_DC 50 ms PEC (mOhm)
0.0492	3151.57	4.1960	4.1960	0.7513	25.18	0.34	0.750			
0.0515	3297.89	4.1930	4.1930	0.7617	25.18	0.34	0.750			
0.0538	3444.76	4.1900	4.1900	0.7660	25.18	0.34	0.750			
0.0561	3592.29	4.1870	4.1870	0.7693	25.18	0.34	0.750			
0.0584	3739.81	4.1840	4.1840	0.7704	25.18	0.34	0.750			
0.0608	3888.49	4.1810	4.1810	0.7748	25.18	0.34	0.750			
0.0631	4036.14	4.1780	4.1780	0.7733	25.18	0.34	0.750			
0.0654	4185.63	4.1750	4.1747	0.7798	25.18	0.34	0.750			
0.0678	4336.61	4.1720	4.1721	0.7808	25.18	0.34	0.750			
0.0701	4487.67	4.1690	4.1690	0.7741	25.18	0.34	0.750			
0.0724	4636.22	4.1660	4.1660	0.7775	25.17	0.33	0.750			
0.0747	4783.39	4.1630	4.1631	0.7743	25.17	0.33	0.750			
0.0771	4931.59	4.1600	4.1600	0.7785	25.17	0.33	0.750			
0.0794	5081.28	4.1570	4.1570	0.7837	25.17	0.33	0.750			
0.0818	5232.86	4.1540	4.1541	0.7846	25.17	0.33	0.750			
0.0841	5385.44	4.1510	4.1510	0.7883	25.17	0.33	0.750			
0.0865	5537.79	4.1480	4.1480	0.7988	25.17	0.33	0.750			
0.0889	5689.31	4.1450	4.1451	0.7964	25.17	0.33	0.750			
0.0913	5842.71	4.1420	4.1419	0.7947	25.17	0.33	0.750			
0.0937	5995.91	4.1390	4.1390	0.7946	25.17	0.33	0.750			
0.0961	6149.31	4.1360	4.1361	0.7875	25.17	0.33	0.750			
0.0984	6298.26	4.1330	4.1330	0.7921	25.17	0.33	0.750			
0.1008	6448.25	4.1300	4.1301	0.7951	25.17	0.33	0.750			
0.1031	6600.04	4.1270	4.1266	0.8013	25.17	0.33	0.750			
0.1055	6754.48	4.1240	4.1241	0.8124	25.17	0.33	0.750			
0.1080	6913.38	4.1210	4.1211	0.8129	25.17	0.33	0.750			
0.1105	7072.26	4.1180	4.1181	0.8192	25.17	0.33	0.750			
0.1129	7228.16	4.1150	4.1150	0.8144	25.17	0.33	0.750			
0.1154	7385.16	4.1120	4.1116	0.8137	25.17	0.33	0.750			
0.1178	7540.12	4.1090	4.1090	0.8125	25.17	0.33	0.750			
0.1203	7696.23	4.1060	4.1061	0.8129	25.16	0.32	0.750			
0.1227	7853.63	4.1030	4.1031	0.8162	25.16	0.32	0.750			
0.1252	8009.67	4.1000	4.0999	0.8141	25.15	0.31	0.750			
0.1276	8166.89	4.0970	4.0968	0.8180	25.15	0.31	0.750			
0.1300	8323.13	4.0940	4.0941	0.8205	25.15	0.31	0.750			
0.1326	8483.85	4.0910	4.0910	0.8142	25.15	0.31	0.750			
0.1350	8638.73	4.0880	4.0880	0.8266	25.15	0.31	0.750			
0.1375	8798.04	4.0850	4.0851	0.8317	25.15	0.31	0.750			
0.1400	8957.05	4.0820	4.0817	0.8333	25.15	0.31	0.750			
0.1425	9117.79	4.0790	4.0791	0.8367	25.15	0.31	0.750			
0.1450	9280.34	4.0760	4.0761	0.8347	25.15	0.31	0.750			
0.1475	9439.56	4.0730	4.0731	0.8398	25.14	0.30	0.750			
0.1500	9600.40	4.0700	4.0701	0.8370	25.14	0.30	0.750			
0.1525	9761.14	4.0670	4.0668	0.8456	25.14	0.30	0.750			
0.1551	9925.16	4.0640	4.0641	0.8506	25.14	0.30	0.750			
0.1577	10089.87	4.0610	4.0610	0.8520	25.14	0.30	0.750			
0.1602	10255.61	4.0580	4.0581	0.8586	25.14	0.30	0.750			
0.1628	10419.33	4.0550	4.0550	0.8565	25.14	0.30	0.750			
0.1654	10583.03	4.0520	4.0518	0.8594	25.14	0.30	0.750			
0.1679	10747.60	4.0490	4.0491	0.8645	25.14	0.30	0.750			
0.1705	10914.43	4.0460	4.0460	0.8601	25.14	0.30	0.750			
0.1731	11081.52	4.0430	4.0430	0.8679	25.13	0.29	0.750			
0.1757	11246.65	4.0400	4.0401	0.8678	25.13	0.29	0.750			
0.1783	11413.21	4.0370	4.0370	0.8753	25.13	0.29	0.750			
0.1810	11582.98	4.0340	4.0340	0.8738	25.13	0.29	0.750			
0.1836	11750.14	4.0310	4.0312	0.8823	25.13	0.29	0.750			
0.1863	11920.46	4.0280	4.0280	0.8892	25.14	0.30	0.750			
0.1890	12093.75	4.0250	4.0249	0.8929	25.14	0.30	0.750			
0.1916	12262.29	4.0220	4.0220	0.8891	25.14	0.30	0.750			
0.1943	12433.83	4.0190	4.0192	0.8910	25.14	0.30	0.750			
0.1970	12605.16	4.0160	4.0160	0.8963	25.14	0.30	0.750			
0.1997	12778.81	4.0130	4.0130	0.9018	25.14	0.30	0.750			
0.2024	12950.82	4.0100	4.0099	0.8983	25.14	0.30	0.750			
0.2051	13123.89	4.0070	4.0070	0.9032	25.14	0.30	0.750			
0.2078	13297.97	4.0040	4.0041	0.9024	25.14	0.30	0.750			
0.2105	13470.05	4.0010	4.0011	0.9058	25.14	0.30	0.750			
0.2132	13644.28	3.9980	3.9980	0.9077	25.14	0.30	0.750			
0.2159	13818.44	3.9950	3.9950	0.9085	25.14	0.30	0.750			
0.2187	13996.25	3.9920	3.9920	0.8986	25.14	0.30	0.750			
0.2214	14167.33	3.9890	3.9891	0.9060	25.14	0.30	0.750			
0.2241	14339.88	3.9860	3.9861	0.9146	25.14	0.30	0.750			
0.2268	14513.10	3.9830	3.9830	0.9152	25.14	0.30	0.750			
0.2296	14691.50	3.9800	3.9801	0.9238	25.14	0.30	0.750			
0.2324	14870.81	3.9770	3.9771	0.9328	25.14	0.30	0.750			
0.2352	15051.92	3.9740	3.9740	0.9379	25.14	0.30	0.750			
0.2381	15237.66	3.9710	3.9710	0.9458	25.14	0.30	0.750			
0.2408	15414.04	3.9680	3.9681	0.9356	25.14	0.30	0.750			
0.2437	15596.39	3.9650	3.9649	0.9200	25.14	0.30	0.750			
0.2464	15770.53	3.9620	3.9621	0.9255	25.14	0.30	0.750			
0.2492	15946.04	3.9590	3.9591	0.9349	25.14	0.30	0.750			
0.2520	16125.07	3.9560	3.9561	0.9429	25.14	0.30	0.750			
0.2548	16310.33	3.9530	3.9530	0.9375	25.14	0.30	0.750			
0.2577	16489.86	3.9500	3.9501	0.9492	25.15	0.31	0.750			
0.2605	16672.99	3.9470	3.9472	0.9578	25.15	0.31	0.750			
0.2634	16860.72	3.9440	3.9440	0.9678	25.16	0.32	0.750			
0.2663	17041.24	3.9410	3.9409	0.9619	25.16	0.32	0.750			
0.2692	17226.65	3.9380	3.9381	0.9615	25.16	0.32	0.750			
0.2721	17411.94	3.9350	3.9350	0.9714	25.16	0.32	0.750			
0.2750	17602.03	3.9320	3.9321	0.9755	25.16	0.32	0.750			
0.2779	17787.21	3.9290	3.9287	0.9716	25.16	0.32	0.750			
0.2809	17977.62	3.9260	3.9260	0.9623	25.16	0.32	0.750			
0.2838	18160.31	3.9230	3.9231	0.9733	25.16	0.32	0.750			
0.2866	18345.14	3.9200	3.9201	0.9787	25.17	0.33	0.750			
0.2896	18532.98	3.9170	3.9169	0.9792	25.17	0.33	0.750			
0.2926	18724.35	3.9140	3.9141	0.9774	25.17	0.33	0.750			
0.2955	18914.12	3.9110	3.9110	0.9896	25.17	0.33	0.750			
0.2985	19103.33	3.9080	3.9081	0.9952	25.17	0.33	0.750			
0.3015	19295.15	3.9050	3.9051	0.9937	25.17	0.33	0.750			
0.3045	19486.78	3.9020	3.9021	0.9951	25.17	0.33	0.750			
0.3075	19677.87	3.8990	3.8990	1.0015	25.17	0.33	0.750			
0.3105	19872.49	3.8960	3.8961	1.0101	25.18	0.34	0.750			
0.3136	20067.78	3.8930	3.8931	1.0220	25.18	0.34	0.750			
0.3166	20264.28	3.8900	3.8899	1.0170	25.18	0.34	0.750			
0.3197	20458.89	3.8870	3.8870	1.0248	25.18	0.34	0.750			
0.3228	20656.73	3.8840	3.8840	1.0325	25.18	0.34	0.750			
0.3259	20855.65	3.8810	3.8811	1.0422	25.18	0.34	0.750			
0.3290	21058.13	3.8780	3.8781	1.0395	25.18	0.34	0.750			
0.3322	21257.83	3.8750	3.8751	1.0460	25.18	0.34	0.750			
0.3353	21457.60	3.8720	3.8720	1.0500	25.18	0.34	0.750			
0.3385	21661.10	3.8690	3.8690	1.0597	25.18	0.34	0.750			
0.3417	21865.94	3.8660	3.8660	1.0515	25.18	0.34	0.750			
0.3448	22068.64	3.8630	3.8630	1.0528	25.18	0.34	0.750			
0.3480	22269.99	3.8600	3.8601	1.0585	25.18	0.34	0.750			
0.3512	22473.76	3.8570	3.8572	1.0689	25.18	0.34	0.750			
0.3544	22680.19	3.8540	3.8538	1.0567	25.18	0.34	0.750			
0.3575	22880.90	3.8510	3.8509	1.0728	25.18	0.34	0.750			
0.3607	23085.89	3.8480	3.8482	1.0846	25.18	0.34	0.750			
0.3640	23296.45	3.8450	3.8450	1.0975	25.18	0.34	0.750			
0.3673	23509.30	3.8420	3.8421	1.1037	25.18	0.34	0.750			
0.3706	23719.26	3.8390	3.8391	1.1234	25.18	0.34	0.750			
0.3740	23935.95	3.8360	3.8360	1.1391	25.18	0.34	0.750			
0.3775	24162.47	3.8330	3.8326	1.1489	25.18	0.34	0.750	0.290	0.421	
0.3809	24378.80	3.8300	3.8302	1.1465	25.18	0.34	0.750			
0.3844	24602.93	3.8270	3.8272	1.1592	25.17	0.33	0.750			
0.3879	24826.81	3.8240	3.8240	1.1644	25.17	0.33	0.750			
0.3914	25051.97	3.8210	3.8209	1.1332	25.17	0.33	0.750			
0.3948	25266.83	3.8180	3.8182	1.1561	25.16	0.32	0.750			
0.3983	25488.60	3.8150	3.8151	1.1720	25.15	0.31	0.750			
0.4018	25715.05	3.8120	3.8121	1.1896	25.14	0.30	0.750			
0.4054	25943.48	3.8090	3.8091	1.1859	25.14	0.30	0.750			
0.4089	26171.80	3.8060	3.8061	1.2048	25.13	0.29	0.750			
0.4126	26406.00	3.8030	3.8032	1.2201	25.12	0.28	0.750			
0.4163	26642.44	3.8000	3.8001	1.2096	25.12	0.28	0.750			
0.4199	26876.08	3.7970	3.7971	1.2214	25.11	0.27	0.750			
0.4236	27111.91	3.7940	3.7942	1.2284	25.11	0.27	0.750			
0.4273	27349.55	3.7910	3.7908	1.2379	25.10	0.26	0.750			
0.4310	27583.96	3.7880	3.7881	1.2267	25.10	0.26	0.750			
0.4346	27817.01	3.7850	3.7851	1.2362	25.09	0.25	0.750			
0.4384	28059.76	3.7820	3.7821	1.2419	25.08	0.24	0.750			
0.4421	28294.50	3.7790	3.7792	1.2597	25.08	0.24	0.750			
0.4459	28538.13	3.7760	3.7762	1.2836	25.07	0.23	0.750			
0.4498	28789.59	3.7730	3.7732	1.3077	25.06	0.22	0.750			
0.4539	29046.52	3.7700	3.7697	1.3342	25.06	0.22	0.750			
0.4578	29297.24	3.7670	3.7672	1.3466	25.05	0.21	0.750			
0.4619	29560.69	3.7640	3.7641	1.3739	25.04	0.20	0.750			
0.4661	29831.13	3.7610	3.7608	1.3721	25.03	0.19	0.750			
0.4702	30095.98	3.7580	3.7581	1.3731	25.02	0.18	0.750			
0.4744	30359.10	3.7550	3.7552	1.4111	25.02	0.18	0.750			
0.4787	30635.02	3.7520	3.7514	1.4313	25.01	0.17	0.750			
0.4829	30908.43	3.7490	3.7493	1.4737	25.00	0.16	0.750			
0.4874	31195.99	3.7460	3.7462	1.5281	24.99	0.15	0.750			
0.4923	31504.12	3.7430	3.7431	1.5846	24.98	0.14	0.750			
0.4971	31812.70	3.7400	3.7402	1.6082	24.96	0.12	0.750			
0.5019	32124.20	3.7370	3.7372	1.6611	24.95	0.11	0.750			
0.5069	32443.66	3.7340	3.7339	1.6996	24.94	0.10	0.750			
0.5122	32783.15	3.7310	3.7310	1.7596	24.93	0.09	0.750			
0.5175	33118.79	3.7280	3.7276	1.8031	24.92	0.08	0.750			
0.5229	33466.56	3.7250	3.7248	1.8729	24.91	0.07	0.750			
0.5288	33846.09	3.7220	3.7221	1.9294	24.90	0.06	0.750			
0.5348	34226.50	3.7190	3.7194	1.9767	24.88	0.04	0.750			
0.5407	34605.34	3.7160	3.7160	2.0173	24.87	0.03	0.750			
0.5466	34981.79	3.7130	3.7132	2.1180	24.86	0.02	0.750			
0.5531	35398.75	3.7100	3.7095	2.1709	24.84	-0.00	0.750			
0.5598	35828.88	3.7070	3.7068	2.2388	24.83	-0.01	0.750			
0.5666	36264.13	3.7040	3.7044	2.2526	24.82	-0.02	0.750			
0.5736	36712.44	3.7010	3.7011	2.3063	24.81	-0.03	0.750			
0.5807	37167.14	3.6980	3.6982	2.3722	24.80	-0.04	0.750			
0.5881	37639.13	3.6950	3.6952	2.5080	24.78	-0.06	0.750			
0.5957	38125.51	3.6920	3.6921	2.5651	24.77	-0.07	0.750			
0.6033	38611.75	3.6890	3.6887	2.6832	24.76	-0.08	0.750			
0.6115	39138.99	3.6860	3.6858	2.6878	24.75	-0.09	0.750			
0.6196	39655.51	3.6830	3.6834	2.7561	24.73	-0.11	0.750			
0.6282	40206.49	3.6800	3.6795	2.8774	24.72	-0.12	0.750			
0.6369	40762.90	3.6770	3.6768	3.0134	24.71	-0.13	0.750			
0.6458	41333.69	3.6740	3.6740	3.0662	24.70	-0.14	0.750			
0.6553	41936.92	3.6710	3.6710	2.9827	24.70	-0.14	0.750			
0.6637	42479.52	3.6680	3.6682	2.9817	24.70	-0.14	0.750			
0.6726	43048.90	3.6650	3.6653	2.8029	24.70	-0.14	0.750			
0.6811	43592.24	3.6620	3.6618	2.9126	24.70	-0.14	0.750			
0.6897	44137.72	3.6590	3.6591	2.7431	24.71	-0.13	0.750			
0.6975	44640.51	3.6560	3.6554	2.4872	24.72	-0.12	0.750			
0.7046	45095.50	3.6530	3.6534	2.3031	24.73	-0.11	0.750			
0.7111	45507.46	3.6500	3.6493	2.1308	24.75	-0.09	0.750			
0.7168	45875.06	3.6470	3.6469	1.8211	24.76	-0.08	0.750			
0.7218	46194.56	3.6440	3.6442	1.5950	24.77	-0.07	0.750			
0.7264	46488.62	3.6410	3.6412	1.3693	24.78	-0.06	0.750			
0.7302	46734.68	3.6380	3.6383	1.1679	24.79	-0.05	0.750			
0.7334	46939.42	3.6350	3.6351	0.9789	24.80	-0.04	0.750			
0.7358	47090.21	3.6320	3.6324	0.8430	24.81	-0.03	0.750			
0.7379	47222.54	3.6290	3.6289	0.7711	24.81	-0.03	0.750			
0.7400	47361.35	3.6260	3.6255	0.7091	24.82	-0.02	0.750			
0.7420	47490.25	3.6230	3.6238	0.6709	24.82	-0.02	0.750			
0.7441	47621.14	3.6200	3.6208	0.6512	24.83	-0.01	0.750			
0.7462	47758.10	3.6170	3.6171	0.6186	24.83	-0.01	0.750			
0.7480	47871.75	3.6140	3.6141	0.5449	24.83	-0.01	0.750			
0.7495	47966.18	3.6110	3.6111	0.4695	24.83	-0.01	0.750			
0.7508	48054.39	3.6080	3.6080	0.4070	24.84	-0.00	0.750			
0.7520	48128.76	3.6050	3.6051	0.3429	24.84	-0.00	0.750			
0.7529	48187.56	3.6020	3.6024	0.2666	24.84	0.00	0.750			
0.7536	48232.73	3.5990	3.5991	0.1937	24.84	0.00	0.750			
0.7541	48262.98	3.5960	3.5967	0.1180	24.84	0.00	0.750			
0.7544	48278.49	3.5930	3.5944	0.0484	24.84	0.00	0.750			
