Ah_balance (normalized)	Ah_balance (mAh)	Voltage - fit (V)	Voltage -  interpolate (V)	dQ/dV (1/V)	Temperature (°C)	Temperature - diff (°C)	Current (C)	R_DC 0ms (mOhm)	R_DC 50ms (mOhm)	R_DC 50 ms PEC (mOhm)
0.0476	3043.87	4.1980	4.1981	0.8785	25.99	0.44	0.750			
0.0501	3204.28	4.1950	4.1950	0.8145	25.99	0.44	0.750			
0.0524	3354.88	4.1920	4.1921	0.7763	25.99	0.44	0.750			
0.0547	3498.53	4.1890	4.1890	0.7551	25.99	0.44	0.750			
0.0568	3636.76	4.1860	4.1861	0.7476	25.99	0.44	0.750			
0.0590	3777.40	4.1830	4.1821	0.7447	25.99	0.44	0.750			
0.0613	3921.38	4.1800	4.1801	0.7496	25.99	0.44	0.750			
0.0635	4067.08	4.1770	4.1771	0.7529	25.99	0.44	0.750			
0.0658	4213.16	4.1740	4.1740	0.7572	25.99	0.44	0.750			
0.0682	4361.69	4.1710	4.1710	0.7637	25.99	0.44	0.750			
0.0704	4504.73	4.1680	4.1680	0.7553	25.99	0.44	0.750			
0.0726	4649.30	4.1650	4.1650	0.7562	25.99	0.44	0.750			
0.0749	4795.74	4.1620	4.1620	0.7588	25.99	0.44	0.750			
0.0772	4941.92	4.1590	4.1590	0.7544	25.99	0.44	0.750			
0.0795	5086.29	4.1560	4.1561	0.7584	25.99	0.44	0.750			
0.0817	5230.33	4.1530	4.1531	0.7568	25.99	0.44	0.750			
0.0840	5375.18	4.1500	4.1496	0.7621	25.99	0.44	0.750			
0.0863	5521.69	4.1470	4.1471	0.7665	25.99	0.44	0.750			
0.0886	5671.66	4.1440	4.1440	0.7612	26.00	0.45	0.750			
0.0909	5818.39	4.1410	4.1410	0.7702	26.00	0.45	0.750			
0.0932	5965.13	4.1380	4.1382	0.7645	26.00	0.45	0.750			
0.0955	6111.89	4.1350	4.1351	0.7716	26.01	0.46	0.750			
0.0978	6260.47	4.1320	4.1320	0.7732	26.01	0.46	0.750			
0.1002	6410.00	4.1290	4.1291	0.7720	26.01	0.46	0.750			
0.1025	6559.06	4.1260	4.1261	0.7773	26.01	0.46	0.750			
0.1048	6709.35	4.1230	4.1231	0.7791	26.01	0.46	0.750			
0.1071	6857.43	4.1200	4.1200	0.7743	26.01	0.46	0.750			
0.1095	7006.19	4.1170	4.1170	0.7771	26.01	0.46	0.750			
0.1118	7155.02	4.1140	4.1141	0.7768	26.01	0.46	0.750			
0.1141	7305.58	4.1110	4.1109	0.7829	26.01	0.46	0.750			
0.1165	7453.53	4.1080	4.1081	0.7785	26.02	0.47	0.750			
0.1188	7601.81	4.1050	4.1051	0.7799	26.02	0.47	0.750			
0.1211	7751.10	4.1020	4.1017	0.7867	26.02	0.47	0.750			
0.1235	7902.98	4.0990	4.0991	0.7944	26.02	0.47	0.750			
0.1259	8060.42	4.0960	4.0960	0.7820	26.02	0.47	0.750			
0.1283	8209.71	4.0930	4.0931	0.7881	26.03	0.48	0.750			
0.1307	8362.59	4.0900	4.0901	0.7967	26.03	0.48	0.750			
0.1330	8510.68	4.0870	4.0871	0.7867	26.03	0.48	0.750			
0.1353	8660.73	4.0840	4.0841	0.7894	26.03	0.48	0.750			
0.1377	8812.01	4.0810	4.0811	0.7956	26.03	0.48	0.750			
0.1401	8967.16	4.0780	4.0781	0.8005	26.03	0.48	0.750			
0.1426	9123.68	4.0750	4.0750	0.8056	26.04	0.49	0.750			
0.1450	9276.93	4.0720	4.0721	0.8049	26.04	0.49	0.750			
0.1474	9431.79	4.0690	4.0690	0.8107	26.04	0.49	0.750			
0.1498	9588.07	4.0660	4.0659	0.8130	26.04	0.49	0.750			
0.1523	9744.67	4.0630	4.0630	0.8085	26.04	0.49	0.750			
0.1547	9899.21	4.0600	4.0600	0.8102	26.05	0.50	0.750			
0.1571	10055.21	4.0570	4.0571	0.8146	26.05	0.50	0.750			
0.1595	10210.61	4.0540	4.0540	0.8148	26.05	0.50	0.750			
0.1620	10366.88	4.0510	4.0510	0.8157	26.05	0.50	0.750			
0.1645	10525.63	4.0480	4.0480	0.8097	26.05	0.50	0.750			
0.1669	10679.82	4.0450	4.0451	0.8150	26.05	0.50	0.750			
0.1693	10833.17	4.0420	4.0422	0.8195	26.05	0.50	0.750			
0.1717	10990.64	4.0390	4.0382	0.8298	26.05	0.50	0.750			
0.1742	11150.43	4.0360	4.0361	0.8351	26.05	0.50	0.750			
0.1768	11313.22	4.0330	4.0331	0.8463	26.06	0.51	0.750			
0.1794	11481.11	4.0300	4.0301	0.8550	26.06	0.51	0.750			
0.1820	11649.47	4.0270	4.0269	0.8594	26.07	0.52	0.750			
0.1845	11807.31	4.0240	4.0240	0.8441	26.07	0.52	0.750			
0.1870	11969.79	4.0210	4.0210	0.8440	26.07	0.52	0.750			
0.1895	12130.41	4.0180	4.0181	0.8375	26.07	0.52	0.750			
0.1920	12289.35	4.0150	4.0151	0.8411	26.07	0.52	0.750			
0.1945	12449.11	4.0120	4.0121	0.8468	26.07	0.52	0.750			
0.1971	12611.90	4.0090	4.0087	0.8537	26.07	0.52	0.750			
0.1996	12776.27	4.0060	4.0061	0.8596	26.07	0.52	0.750			
0.2022	12943.33	4.0030	4.0031	0.8545	26.07	0.52	0.750			
0.2048	13107.73	4.0000	4.0002	0.8673	26.08	0.53	0.750			
0.2074	13273.43	3.9970	3.9971	0.8632	26.08	0.53	0.750			
0.2100	13438.95	3.9940	3.9941	0.8623	26.08	0.53	0.750			
0.2126	13606.51	3.9910	3.9911	0.8629	26.08	0.53	0.750			
0.2152	13773.58	3.9880	3.9882	0.8681	26.08	0.53	0.750			
0.2178	13940.58	3.9850	3.9850	0.8713	26.09	0.54	0.750			
0.2204	14106.44	3.9820	3.9820	0.8645	26.09	0.54	0.750			
0.2230	14271.37	3.9790	3.9791	0.8685	26.09	0.54	0.750			
0.2257	14443.31	3.9760	3.9759	0.8624	26.09	0.54	0.750			
0.2282	14607.30	3.9730	3.9731	0.8689	26.09	0.54	0.750			
0.2308	14774.30	3.9700	3.9701	0.8710	26.09	0.54	0.750			
0.2334	14939.58	3.9670	3.9670	0.8711	26.09	0.54	0.750			
0.2360	15106.57	3.9640	3.9641	0.8768	26.09	0.54	0.750			
0.2387	15275.54	3.9610	3.9610	0.8745	26.09	0.54	0.750			
0.2413	15443.58	3.9580	3.9581	0.8796	26.09	0.54	0.750			
0.2440	15613.39	3.9550	3.9550	0.8785	26.09	0.54	0.750			
0.2466	15783.04	3.9520	3.9512	0.8805	26.09	0.54	0.750			
0.2493	15953.38	3.9490	3.9490	0.8783	26.09	0.54	0.750			
0.2519	16121.23	3.9460	3.9460	0.8795	26.09	0.54	0.750			
0.2546	16292.25	3.9430	3.9431	0.8799	26.09	0.54	0.750			
0.2572	16461.98	3.9400	3.9399	0.8816	26.09	0.54	0.750			
0.2598	16628.01	3.9370	3.9370	0.8740	26.09	0.54	0.750			
0.2625	16797.44	3.9340	3.9340	0.8685	26.08	0.53	0.750			
0.2650	16962.87	3.9310	3.9310	0.8747	26.08	0.53	0.750			
0.2677	17130.00	3.9280	3.9281	0.8758	26.08	0.53	0.750			
0.2703	17296.96	3.9250	3.9250	0.8744	26.07	0.52	0.750			
0.2729	17466.07	3.9220	3.9220	0.8785	26.07	0.52	0.750			
0.2756	17637.64	3.9190	3.9190	0.8652	26.07	0.52	0.750			
0.2782	17801.85	3.9160	3.9161	0.8695	26.07	0.52	0.750			
0.2808	17969.20	3.9130	3.9131	0.8697	26.07	0.52	0.750			
0.2833	18131.86	3.9100	3.9101	0.8668	26.07	0.52	0.750			
0.2859	18299.08	3.9070	3.9070	0.8768	26.07	0.52	0.750			
0.2886	18468.39	3.9040	3.9041	0.8789	26.06	0.51	0.750			
0.2912	18638.93	3.9010	3.9011	0.8867	26.06	0.51	0.750			
0.2940	18814.08	3.8980	3.8980	0.8910	26.05	0.50	0.750			
0.2966	18981.31	3.8950	3.8949	0.8801	26.05	0.50	0.750			
0.2992	19150.28	3.8920	3.8921	0.8799	26.05	0.50	0.750			
0.3018	19315.68	3.8890	3.8891	0.8947	26.04	0.49	0.750			
0.3045	19486.10	3.8860	3.8860	0.9122	26.04	0.49	0.750			
0.3072	19663.88	3.8830	3.8828	0.9240	26.03	0.48	0.750			
0.3101	19844.96	3.8800	3.8804	0.9233	26.03	0.48	0.750			
0.3129	20028.36	3.8770	3.8772	0.9239	26.02	0.47	0.750			
0.3157	20206.30	3.8740	3.8741	0.9152	26.01	0.46	0.750			
0.3184	20380.53	3.8710	3.8710	0.9072	26.01	0.46	0.750			
0.3210	20546.67	3.8680	3.8678	0.8863	26.00	0.45	0.750			
0.3237	20718.26	3.8650	3.8650	0.8879	25.99	0.44	0.750			
0.3264	20888.97	3.8620	3.8620	0.8933	25.98	0.43	0.750			
0.3291	21060.25	3.8590	3.8591	0.8986	25.98	0.43	0.750			
0.3318	21234.54	3.8560	3.8560	0.9039	25.97	0.42	0.750			
0.3345	21406.79	3.8530	3.8530	0.9030	25.96	0.41	0.750			
0.3372	21582.11	3.8500	3.8500	0.9026	25.95	0.40	0.750			
0.3399	21753.55	3.8470	3.8471	0.9163	25.95	0.40	0.750			
0.3427	21930.47	3.8440	3.8439	0.9259	25.94	0.39	0.750			
0.3455	22108.97	3.8410	3.8410	0.9298	25.93	0.38	0.750	0.311	0.464	
0.3483	22290.24	3.8380	3.8381	0.9335	25.92	0.37	0.750			
0.3511	22471.63	3.8350	3.8351	0.9420	25.92	0.37	0.750			
0.3540	22652.92	3.8320	3.8320	0.9439	25.91	0.36	0.750			
0.3568	22832.79	3.8290	3.8290	0.9498	25.90	0.35	0.750			
0.3596	23011.95	3.8260	3.8260	0.9519	25.89	0.34	0.750			
0.3625	23196.83	3.8230	3.8230	0.9592	25.88	0.33	0.750			
0.3654	23384.46	3.8200	3.8200	0.9657	25.87	0.32	0.750			
0.3683	23570.23	3.8170	3.8170	0.9687	25.86	0.31	0.750			
0.3712	23755.44	3.8140	3.8141	0.9759	25.85	0.30	0.750			
0.3741	23941.63	3.8110	3.8109	0.9840	25.84	0.29	0.750			
0.3770	24127.81	3.8080	3.8080	0.9892	25.84	0.29	0.750			
0.3800	24316.88	3.8050	3.8051	1.0038	25.83	0.28	0.750			
0.3830	24512.38	3.8020	3.8020	1.0267	25.82	0.27	0.750			
0.3862	24714.84	3.7990	3.7991	1.0249	25.81	0.26	0.750			
0.3892	24910.62	3.7960	3.7961	1.0513	25.80	0.25	0.750			
0.3924	25113.17	3.7930	3.7931	1.0723	25.79	0.24	0.750			
0.3957	25322.04	3.7900	3.7899	1.1024	25.78	0.23	0.750			
0.3989	25530.86	3.7870	3.7871	1.1115	25.77	0.22	0.750			
0.4023	25748.37	3.7840	3.7841	1.1359	25.77	0.22	0.750			
0.4058	25970.68	3.7810	3.7810	1.1537	25.76	0.21	0.750			
0.4093	26198.12	3.7780	3.7780	1.1564	25.75	0.20	0.750			
0.4128	26419.61	3.7750	3.7751	1.1774	25.74	0.19	0.750			
0.4163	26644.23	3.7720	3.7720	1.1958	25.73	0.18	0.750			
0.4200	26879.79	3.7690	3.7690	1.2066	25.72	0.17	0.750			
0.4236	27109.89	3.7660	3.7660	1.2372	25.70	0.15	0.750			
0.4273	27350.32	3.7630	3.7631	1.2673	25.69	0.14	0.750			
0.4312	27596.15	3.7600	3.7601	1.2987	25.68	0.13	0.750			
0.4351	27848.51	3.7570	3.7569	1.3321	25.67	0.12	0.750			
0.4391	28104.06	3.7540	3.7541	1.3603	25.65	0.10	0.750			
0.4433	28373.83	3.7510	3.7510	1.3774	25.64	0.09	0.750			
0.4475	28639.23	3.7480	3.7480	1.4138	25.63	0.08	0.750			
0.4518	28916.33	3.7450	3.7451	1.4062	25.62	0.07	0.750			
0.4561	29191.95	3.7420	3.7420	1.4360	25.61	0.06	0.750			
0.4604	29468.80	3.7390	3.7389	1.4610	25.60	0.05	0.750			
0.4649	29750.55	3.7360	3.7362	1.4985	25.58	0.03	0.750			
0.4694	30044.52	3.7330	3.7333	1.5370	25.57	0.02	0.750			
0.4742	30348.52	3.7300	3.7303	1.5730	25.55	0.00	0.750			
0.4788	30643.28	3.7270	3.7275	1.6490	25.54	-0.01	0.750			
0.4839	30970.22	3.7240	3.7244	1.7057	25.53	-0.02	0.750			
0.4890	31297.77	3.7210	3.7212	1.7615	25.51	-0.04	0.750			
0.4944	31641.67	3.7180	3.7184	1.8100	25.50	-0.05	0.750			
0.4999	31992.84	3.7150	3.7145	1.8706	25.48	-0.07	0.750			
0.5057	32363.95	3.7120	3.7118	1.9347	25.47	-0.08	0.750			
0.5114	32730.84	3.7090	3.7092	1.9754	25.45	-0.10	0.750			
0.5176	33124.10	3.7060	3.7062	2.0767	25.44	-0.11	0.750			
0.5239	33532.70	3.7030	3.7030	2.1162	25.42	-0.13	0.750			
0.5304	33942.53	3.7000	3.7001	2.2423	25.41	-0.14	0.750			
0.5372	34380.62	3.6970	3.6971	2.1880	25.40	-0.15	0.750			
0.5441	34825.34	3.6940	3.6944	2.2724	25.38	-0.17	0.750			
0.5508	35250.45	3.6910	3.6906	2.2735	25.38	-0.17	0.750			
0.5575	35681.92	3.6880	3.6880	2.2859	25.37	-0.18	0.750			
0.5647	36138.09	3.6850	3.6848	2.4165	25.37	-0.18	0.750			
0.5719	36603.02	3.6820	3.6819	2.3283	25.37	-0.18	0.750			
0.5792	37065.98	3.6790	3.6788	2.3696	25.37	-0.18	0.750			
0.5863	37523.39	3.6760	3.6765	2.3211	25.37	-0.18	0.750			
0.5929	37944.30	3.6730	3.6729	2.2002	25.37	-0.18	0.750			
0.5995	38367.39	3.6700	3.6698	2.1284	25.37	-0.18	0.750			
0.6059	38777.37	3.6670	3.6673	2.0359	25.38	-0.17	0.750			
0.6118	39152.80	3.6640	3.6639	1.9032	25.38	-0.17	0.750			
0.6173	39507.86	3.6610	3.6604	1.7801	25.39	-0.16	0.750			
0.6224	39831.03	3.6580	3.6580	1.6240	25.39	-0.16	0.750			
0.6271	40136.41	3.6550	3.6553	1.5312	25.40	-0.15	0.750			
0.6316	40422.66	3.6520	3.6522	1.4284	25.41	-0.14	0.750			
0.6357	40687.32	3.6490	3.6491	1.3167	25.42	-0.13	0.750			
0.6394	40924.65	3.6460	3.6461	1.2276	25.43	-0.12	0.750			
0.6430	41152.05	3.6430	3.6432	1.1687	25.43	-0.12	0.750			
0.6464	41369.96	3.6400	3.6394	1.1182	25.44	-0.11	0.750			
0.6497	41581.99	3.6370	3.6371	1.0505	25.45	-0.10	0.750			
0.6527	41773.91	3.6340	3.6341	1.0118	25.45	-0.10	0.750			
0.6557	41963.35	3.6310	3.6312	0.9808	25.46	-0.09	0.750			
0.6585	42144.59	3.6280	3.6280	0.9354	25.47	-0.08	0.750			
0.6613	42321.72	3.6250	3.6252	0.9106	25.48	-0.07	0.750			
0.6640	42494.41	3.6220	3.6221	0.8824	25.49	-0.06	0.750			
0.6666	42663.88	3.6190	3.6190	0.8553	25.49	-0.06	0.750			
0.6693	42834.15	3.6160	3.6159	0.8323	25.50	-0.05	0.750			
0.6717	42986.62	3.6130	3.6129	0.7584	25.51	-0.04	0.750			
0.6739	43130.64	3.6100	3.6100	0.6942	25.52	-0.03	0.750			
0.6758	43252.08	3.6070	3.6072	0.6574	25.52	-0.03	0.750			
0.6777	43372.49	3.6040	3.6044	0.6049	25.53	-0.02	0.750			
0.6794	43481.46	3.6010	3.5993	0.5606	25.54	-0.01	0.750			
0.6810	43582.37	3.5980	3.5986	0.5185	25.54	-0.01	0.750			
0.6825	43680.65	3.5950	3.5957	0.4794	25.54	-0.01	0.750			
0.6839	43771.65	3.5920	3.5919	0.4397	25.55	-0.00	0.750			
0.6853	43856.78	3.5890	3.5890	0.3961	25.55	0.00	0.750			
0.6863	43924.39	3.5860	3.5860	0.3310	25.56	0.01	0.750			
0.6873	43984.07	3.5830	3.5831	0.2846	25.56	0.01	0.750			
0.6881	44036.25	3.5800	3.5799	0.2346	25.56	0.01	0.750			
0.6887	44075.69	3.5770	3.5772	0.1814	25.56	0.01	0.750			
0.6892	44106.13	3.5740	3.5741	0.1267	25.57	0.02	0.750			
0.6895	44125.39	3.5710	3.5717	0.0634	25.57	0.02	0.750			
