Ah_balance (normalized)	Ah_balance (mAh)	Voltage - fit (V)	Voltage -  interpolate (V)	dQ/dV (1/V)	Temperature (°C)	Temperature - diff (°C)	Current (C)	R_DC 0ms (mOhm)	R_DC 50ms (mOhm)	R_DC 50 ms PEC (mOhm)
0.0473	3027.13	4.1990	4.1990	0.7510	25.29	0.49	0.750			
0.0496	3171.38	4.1960	4.1960	0.7525	25.29	0.49	0.750			
0.0518	3316.81	4.1930	4.1930	0.7543	25.29	0.49	0.750			
0.0541	3461.26	4.1900	4.1900	0.7546	25.29	0.49	0.750			
0.0563	3606.33	4.1870	4.1870	0.7597	25.29	0.49	0.750			
0.0586	3751.20	4.1840	4.1839	0.7634	25.29	0.49	0.750			
0.0609	3898.79	4.1810	4.1809	0.7652	25.29	0.49	0.750			
0.0632	4047.86	4.1780	4.1780	0.7627	25.29	0.49	0.750			
0.0655	4194.94	4.1750	4.1750	0.7616	25.29	0.49	0.750			
0.0678	4340.48	4.1720	4.1721	0.7624	25.29	0.49	0.750			
0.0701	4484.84	4.1690	4.1690	0.7612	25.29	0.49	0.750			
0.0724	4630.44	4.1660	4.1660	0.7610	25.29	0.49	0.750			
0.0746	4775.81	4.1630	4.1630	0.7648	25.29	0.49	0.750			
0.0769	4923.50	4.1600	4.1601	0.7707	25.29	0.49	0.750			
0.0793	5074.21	4.1570	4.1570	0.7773	25.29	0.49	0.750			
0.0816	5222.44	4.1540	4.1540	0.7769	25.29	0.49	0.750			
0.0839	5372.38	4.1510	4.1510	0.7777	25.29	0.49	0.750			
0.0863	5522.09	4.1480	4.1481	0.7788	25.29	0.49	0.750			
0.0886	5672.63	4.1450	4.1450	0.7799	25.29	0.49	0.750			
0.0910	5822.20	4.1420	4.1420	0.7796	25.30	0.50	0.750			
0.0933	5970.51	4.1390	4.1390	0.7728	25.30	0.50	0.750			
0.0956	6119.54	4.1360	4.1360	0.7789	25.30	0.50	0.750			
0.0980	6269.48	4.1330	4.1330	0.7779	25.30	0.50	0.750			
0.1003	6420.13	4.1300	4.1300	0.7750	25.30	0.50	0.750			
0.1026	6567.23	4.1270	4.1270	0.7779	25.30	0.50	0.750			
0.1049	6715.89	4.1240	4.1241	0.7820	25.30	0.50	0.750			
0.1073	6866.79	4.1210	4.1210	0.7849	25.30	0.50	0.750			
0.1097	7018.37	4.1180	4.1180	0.7881	25.30	0.50	0.750			
0.1120	7170.51	4.1150	4.1151	0.7871	25.30	0.50	0.750			
0.1144	7323.32	4.1120	4.1121	0.7930	25.30	0.50	0.750			
0.1168	7474.88	4.1090	4.1089	0.7978	25.30	0.50	0.750			
0.1192	7626.93	4.1060	4.1060	0.7966	25.30	0.50	0.750			
0.1216	7779.72	4.1030	4.1028	0.7983	25.30	0.50	0.750			
0.1240	7933.91	4.1000	4.1001	0.8040	25.30	0.50	0.750			
0.1264	8090.15	4.0970	4.0970	0.8031	25.30	0.50	0.750			
0.1288	8243.58	4.0940	4.0940	0.8040	25.31	0.51	0.750			
0.1312	8397.10	4.0910	4.0911	0.8028	25.31	0.51	0.750			
0.1336	8551.36	4.0880	4.0878	0.8053	25.31	0.51	0.750			
0.1360	8707.02	4.0850	4.0850	0.8083	25.31	0.51	0.750			
0.1385	8862.15	4.0820	4.0820	0.8085	25.31	0.51	0.750			
0.1409	9017.81	4.0790	4.0791	0.8106	25.32	0.52	0.750			
0.1433	9172.73	4.0760	4.0760	0.8140	25.32	0.52	0.750			
0.1458	9328.87	4.0730	4.0729	0.8191	25.32	0.52	0.750			
0.1482	9486.44	4.0700	4.0701	0.8217	25.32	0.52	0.750			
0.1507	9646.77	4.0670	4.0670	0.8169	25.32	0.52	0.750			
0.1532	9804.21	4.0640	4.0641	0.8268	25.32	0.52	0.750			
0.1557	9962.51	4.0610	4.0610	0.8303	25.32	0.52	0.750			
0.1581	10120.67	4.0580	4.0578	0.8331	25.32	0.52	0.750			
0.1606	10280.66	4.0550	4.0550	0.8370	25.32	0.52	0.750			
0.1632	10442.43	4.0520	4.0521	0.8400	25.33	0.53	0.750			
0.1657	10604.77	4.0490	4.0490	0.8453	25.33	0.53	0.750			
0.1683	10768.27	4.0460	4.0460	0.8430	25.34	0.54	0.750			
0.1708	10931.09	4.0430	4.0431	0.8431	25.34	0.54	0.750			
0.1733	11092.63	4.0400	4.0399	0.8423	25.34	0.54	0.750			
0.1759	11254.73	4.0370	4.0371	0.8393	25.34	0.54	0.750			
0.1783	11414.02	4.0340	4.0340	0.8453	25.35	0.55	0.750			
0.1809	11576.23	4.0310	4.0310	0.8529	25.35	0.55	0.750			
0.1834	11739.88	4.0280	4.0277	0.8555	25.35	0.55	0.750			
0.1860	11905.17	4.0250	4.0251	0.8627	25.35	0.55	0.750			
0.1886	12071.87	4.0220	4.0221	0.8613	25.35	0.55	0.750			
0.1912	12237.95	4.0190	4.0191	0.8668	25.35	0.55	0.750			
0.1938	12403.64	4.0160	4.0160	0.8613	25.35	0.55	0.750			
0.1964	12568.47	4.0130	4.0127	0.8666	25.35	0.55	0.750			
0.1990	12735.73	4.0100	4.0101	0.8677	25.35	0.55	0.750			
0.2016	12902.85	4.0070	4.0070	0.8736	25.35	0.55	0.750			
0.2043	13072.33	4.0040	4.0040	0.8804	25.36	0.56	0.750			
0.2069	13240.45	4.0010	4.0011	0.8809	25.36	0.56	0.750			
0.2095	13410.31	3.9980	3.9980	0.8832	25.36	0.56	0.750			
0.2122	13582.48	3.9950	3.9950	0.8839	25.36	0.56	0.750			
0.2149	13751.57	3.9920	3.9920	0.8849	25.36	0.56	0.750			
0.2175	13921.91	3.9890	3.9890	0.8886	25.37	0.57	0.750			
0.2202	14091.27	3.9860	3.9859	0.8909	25.37	0.57	0.750			
0.2229	14263.15	3.9830	3.9830	0.8926	25.37	0.57	0.750			
0.2255	14434.39	3.9800	3.9800	0.8925	25.37	0.57	0.750			
0.2282	14606.12	3.9770	3.9771	0.8988	25.38	0.58	0.750			
0.2309	14779.80	3.9740	3.9740	0.9038	25.38	0.58	0.750			
0.2336	14952.37	3.9710	3.9707	0.9021	25.38	0.58	0.750			
0.2363	15124.99	3.9680	3.9681	0.9039	25.38	0.58	0.750			
0.2390	15299.14	3.9650	3.9651	0.9076	25.38	0.58	0.750			
0.2418	15476.32	3.9620	3.9619	0.9142	25.38	0.58	0.750			
0.2445	15650.37	3.9590	3.9590	0.9079	25.38	0.58	0.750			
0.2473	15825.67	3.9560	3.9560	0.9136	25.38	0.58	0.750			
0.2500	16001.30	3.9530	3.9530	0.9139	25.38	0.58	0.750			
0.2528	16176.74	3.9500	3.9500	0.9169	25.39	0.59	0.750			
0.2555	16352.23	3.9470	3.9470	0.9164	25.39	0.59	0.750			
0.2582	16527.82	3.9440	3.9437	0.9205	25.39	0.59	0.750			
0.2611	16708.36	3.9410	3.9410	0.9153	25.39	0.59	0.750			
0.2638	16881.68	3.9380	3.9380	0.9201	25.39	0.59	0.750			
0.2665	17057.83	3.9350	3.9350	0.9234	25.40	0.60	0.750			
0.2693	17236.22	3.9320	3.9321	0.9269	25.40	0.60	0.750			
0.2721	17412.85	3.9290	3.9288	0.9261	25.40	0.60	0.750			
0.2749	17591.92	3.9260	3.9261	0.9250	25.40	0.60	0.750			
0.2776	17768.46	3.9230	3.9231	0.9290	25.40	0.60	0.750			
0.2804	17948.27	3.9200	3.9200	0.9344	25.40	0.60	0.750			
0.2832	18125.92	3.9170	3.9168	0.9310	25.40	0.60	0.750			
0.2860	18306.83	3.9140	3.9141	0.9339	25.40	0.60	0.750			
0.2889	18486.50	3.9110	3.9110	0.9411	25.40	0.60	0.750			
0.2917	18668.68	3.9080	3.9080	0.9470	25.40	0.60	0.750			
0.2945	18850.04	3.9050	3.9051	0.9438	25.40	0.60	0.750			
0.2974	19031.88	3.9020	3.9019	0.9472	25.40	0.60	0.750			
0.3003	19216.93	3.8990	3.8990	0.9388	25.40	0.60	0.750			
0.3030	19394.22	3.8960	3.8961	0.9416	25.40	0.60	0.750			
0.3059	19574.86	3.8930	3.8931	0.9451	25.40	0.60	0.750			
0.3087	19754.09	3.8900	3.8895	0.9467	25.40	0.60	0.750			
0.3115	19934.97	3.8870	3.8871	0.9513	25.40	0.60	0.750			
0.3143	20118.19	3.8840	3.8841	0.9632	25.39	0.59	0.750			
0.3173	20308.42	3.8810	3.8809	0.9686	25.39	0.59	0.750			
0.3202	20494.62	3.8780	3.8780	0.9640	25.38	0.58	0.750			
0.3231	20680.85	3.8750	3.8751	0.9612	25.38	0.58	0.750			
0.3260	20865.57	3.8720	3.8720	0.9645	25.38	0.58	0.750			
0.3289	21050.14	3.8690	3.8690	0.9661	25.37	0.57	0.750			
0.3318	21237.06	3.8660	3.8660	0.9555	25.37	0.57	0.750			
0.3347	21420.80	3.8630	3.8630	0.9394	25.37	0.57	0.750			
0.3375	21601.06	3.8600	3.8601	0.9320	25.36	0.56	0.750			
0.3402	21772.11	3.8570	3.8573	0.9186	25.35	0.55	0.750			
0.3429	21943.38	3.8540	3.8540	0.9287	25.34	0.54	0.750			
0.3456	22116.79	3.8510	3.8507	0.9353	25.33	0.53	0.750			
0.3484	22298.51	3.8480	3.8482	0.9589	25.32	0.52	0.750			
0.3514	22491.09	3.8450	3.8451	0.9845	25.32	0.52	0.750			
0.3545	22686.98	3.8420	3.8420	0.9828	25.31	0.51	0.750			
0.3575	22880.59	3.8390	3.8389	1.0123	25.30	0.50	0.750			
0.3605	23069.83	3.8360	3.8361	0.9906	25.30	0.50	0.750			
0.3634	23257.84	3.8330	3.8326	1.0030	25.29	0.49	0.750	0.372	0.429	
0.3664	23452.06	3.8300	3.8303	1.0162	25.28	0.48	0.750			
0.3695	23649.23	3.8270	3.8271	1.0225	25.27	0.47	0.750			
0.3726	23847.98	3.8240	3.8242	1.0196	25.26	0.46	0.750			
0.3757	24045.19	3.8210	3.8211	1.0286	25.25	0.45	0.750			
0.3787	24238.07	3.8180	3.8181	1.0235	25.24	0.44	0.750			
0.3818	24437.34	3.8150	3.8150	1.0320	25.23	0.43	0.750			
0.3849	24634.11	3.8120	3.8121	1.0292	25.22	0.42	0.750			
0.3880	24832.34	3.8090	3.8091	1.0373	25.21	0.41	0.750			
0.3911	25033.08	3.8060	3.8060	1.0512	25.20	0.40	0.750			
0.3943	25234.64	3.8030	3.8030	1.0628	25.19	0.39	0.750			
0.3975	25439.15	3.8000	3.8000	1.0627	25.19	0.39	0.750			
0.4007	25644.23	3.7970	3.7970	1.0815	25.18	0.38	0.750			
0.4040	25852.91	3.7940	3.7940	1.0976	25.17	0.37	0.750			
0.4073	26066.07	3.7910	3.7911	1.1129	25.15	0.35	0.750			
0.4107	26283.90	3.7880	3.7880	1.1071	25.14	0.34	0.750			
0.4140	26494.56	3.7850	3.7851	1.1281	25.13	0.33	0.750			
0.4174	26710.90	3.7820	3.7822	1.1521	25.12	0.32	0.750			
0.4208	26934.18	3.7790	3.7783	1.1724	25.11	0.31	0.750			
0.4243	27157.68	3.7760	3.7761	1.1926	25.10	0.30	0.750			
0.4279	27388.58	3.7730	3.7731	1.2225	25.09	0.29	0.750			
0.4317	27630.46	3.7700	3.7700	1.2443	25.08	0.28	0.750			
0.4356	27877.30	3.7670	3.7669	1.2745	25.06	0.26	0.750			
0.4393	28115.28	3.7640	3.7641	1.2972	25.05	0.25	0.750			
0.4432	28367.50	3.7610	3.7611	1.3253	25.04	0.24	0.750			
0.4473	28624.62	3.7580	3.7580	1.3371	25.03	0.23	0.750			
0.4514	28886.67	3.7550	3.7551	1.3375	25.02	0.22	0.750			
0.4553	29138.88	3.7520	3.7523	1.3820	25.01	0.21	0.750			
0.4596	29413.94	3.7490	3.7486	1.3946	25.00	0.20	0.750			
0.4638	29682.77	3.7460	3.7462	1.4179	24.98	0.18	0.750			
0.4680	29953.63	3.7430	3.7433	1.4777	24.97	0.17	0.750			
0.4726	30246.67	3.7400	3.7400	1.5158	24.96	0.16	0.750			
0.4772	30538.03	3.7370	3.7373	1.5492	24.94	0.14	0.750			
0.4820	30848.73	3.7340	3.7344	1.6067	24.93	0.13	0.750			
0.4869	31161.80	3.7310	3.7308	1.6397	24.91	0.11	0.750			
0.4920	31485.39	3.7280	3.7279	1.7108	24.89	0.09	0.750			
0.4971	31811.22	3.7250	3.7249	1.7609	24.88	0.08	0.750			
0.5024	32153.06	3.7220	3.7219	1.8022	24.87	0.07	0.750			
0.5079	32503.03	3.7190	3.7192	1.8642	24.85	0.05	0.750			
0.5136	32867.62	3.7160	3.7164	1.9152	24.84	0.04	0.750			
0.5193	33236.16	3.7130	3.7133	1.9580	24.82	0.02	0.750			
0.5254	33628.53	3.7100	3.7099	2.0168	24.81	0.01	0.750			
0.5314	34010.42	3.7070	3.7074	2.0732	24.80	-0.00	0.750			
0.5377	34411.65	3.7040	3.7039	2.1256	24.78	-0.02	0.750			
0.5443	34837.36	3.7010	3.7009	2.2512	24.76	-0.04	0.750			
0.5512	35274.66	3.6980	3.6980	2.3230	24.75	-0.05	0.750			
0.5580	35712.83	3.6950	3.6951	2.3093	24.74	-0.06	0.750			
0.5652	36170.05	3.6920	3.6925	2.3761	24.72	-0.08	0.750			
0.5724	36633.40	3.6890	3.6894	2.4234	24.70	-0.10	0.750			
0.5798	37104.22	3.6860	3.6858	2.5153	24.69	-0.11	0.750			
0.5874	37590.89	3.6830	3.6836	2.5649	24.68	-0.12	0.750			
0.5950	38078.96	3.6800	3.6800	2.6092	24.67	-0.13	0.750			
0.6030	38593.35	3.6770	3.6766	2.6981	24.67	-0.13	0.750			
0.6112	39119.81	3.6740	3.6738	2.7551	24.67	-0.13	0.750			
0.6199	39675.54	3.6710	3.6710	2.7710	24.67	-0.13	0.750			
0.6280	40193.83	3.6680	3.6679	2.8246	24.66	-0.14	0.750			
0.6367	40749.92	3.6650	3.6650	2.7067	24.66	-0.14	0.750			
0.6449	41272.75	3.6620	3.6620	2.5710	24.68	-0.12	0.750			
0.6522	41741.03	3.6590	3.6593	2.4212	24.68	-0.12	0.750			
0.6586	42153.58	3.6560	3.6564	2.0892	24.68	-0.12	0.750			
0.6645	42530.88	3.6530	3.6531	1.9370	24.69	-0.11	0.750			
0.6701	42885.68	3.6500	3.6499	1.7508	24.70	-0.10	0.750			
0.6748	43188.83	3.6470	3.6466	1.5834	24.71	-0.09	0.750			
0.6795	43485.13	3.6440	3.6444	1.4605	24.71	-0.09	0.750			
0.6834	43740.49	3.6410	3.6404	1.3093	24.72	-0.08	0.750			
0.6872	43978.81	3.6380	3.6381	1.2032	24.73	-0.07	0.750			
0.6905	44190.98	3.6350	3.6352	1.0990	24.73	-0.07	0.750			
0.6937	44397.63	3.6320	3.6320	1.0476	24.74	-0.06	0.750			
0.6967	44586.78	3.6290	3.6290	0.9886	24.74	-0.06	0.750			
0.6996	44773.40	3.6260	3.6260	0.9510	24.75	-0.05	0.750			
0.7024	44951.02	3.6230	3.6229	0.9290	24.75	-0.05	0.750			
0.7051	45126.75	3.6200	3.6201	0.9026	24.75	-0.05	0.750			
0.7078	45298.61	3.6170	3.6169	0.8702	24.76	-0.04	0.750			
0.7104	45465.37	3.6140	3.6140	0.8374	24.77	-0.03	0.750			
0.7130	45630.02	3.6110	3.6110	0.7847	24.77	-0.03	0.750			
0.7152	45775.89	3.6080	3.6080	0.7250	24.78	-0.02	0.750			
0.7174	45913.70	3.6050	3.6051	0.6671	24.79	-0.01	0.750			
0.7192	46031.33	3.6020	3.6021	0.5953	24.79	-0.01	0.750			
0.7209	46137.97	3.5990	3.5986	0.5289	24.80	-0.00	0.750			
0.7224	46232.01	3.5960	3.5961	0.4673	24.80	0.00	0.750			
0.7237	46314.10	3.5930	3.5930	0.4094	24.81	0.01	0.750			
0.7248	46387.82	3.5900	3.5900	0.3583	24.81	0.01	0.750			
0.7258	46452.73	3.5870	3.5869	0.3077	24.81	0.01	0.750			
0.7266	46504.28	3.5840	3.5839	0.2513	24.82	0.02	0.750			
0.7273	46548.07	3.5810	3.5811	0.2012	24.82	0.02	0.750			
0.7279	46582.47	3.5780	3.5782	0.1485	24.82	0.02	0.750			
0.7282	46605.80	3.5750	3.5752	0.0932	24.82	0.02	0.750			
