Ah_balance (normalized)	Ah_balance (mAh)	Voltage - fit (V)	Voltage -  interpolate (V)	dQ/dV (1/V)	Temperature (°C)	Temperature - diff (°C)	Current (C)	R_DC 0ms (mOhm)	R_DC 50ms (mOhm)	R_DC 50 ms PEC (mOhm)
0.0466	2985.01	4.1980	4.1980	0.7854	25.42	0.46	0.750			
0.0490	3133.71	4.1950	4.1951	0.7709	25.42	0.46	0.750			
0.0513	3280.91	4.1920	4.1920	0.7666	25.42	0.46	0.750			
0.0536	3427.54	4.1890	4.1890	0.7658	25.42	0.46	0.750			
0.0558	3573.75	4.1860	4.1858	0.7662	25.42	0.46	0.750			
0.0581	3720.53	4.1830	4.1830	0.7669	25.42	0.46	0.750			
0.0604	3868.71	4.1800	4.1800	0.7677	25.42	0.46	0.750			
0.0628	4016.11	4.1770	4.1770	0.7717	25.42	0.46	0.750			
0.0651	4164.19	4.1740	4.1740	0.7745	25.42	0.46	0.750			
0.0674	4312.52	4.1710	4.1710	0.7758	25.42	0.46	0.750			
0.0697	4462.01	4.1680	4.1680	0.7765	25.42	0.46	0.750			
0.0721	4611.92	4.1650	4.1649	0.7764	25.42	0.46	0.750			
0.0744	4761.13	4.1620	4.1621	0.7732	25.42	0.46	0.750			
0.0767	4908.62	4.1590	4.1591	0.7754	25.43	0.47	0.750			
0.0790	5055.56	4.1560	4.1560	0.7775	25.43	0.47	0.750			
0.0813	5205.50	4.1530	4.1526	0.7835	25.43	0.47	0.750			
0.0837	5355.99	4.1500	4.1501	0.7865	25.43	0.47	0.750			
0.0861	5510.64	4.1470	4.1470	0.7767	25.43	0.47	0.750			
0.0885	5661.52	4.1440	4.1440	0.7850	25.43	0.47	0.750			
0.0908	5811.05	4.1410	4.1411	0.7939	25.43	0.47	0.750			
0.0931	5958.37	4.1380	4.1379	0.7881	25.43	0.47	0.750			
0.0955	6111.20	4.1350	4.1351	0.7926	25.43	0.47	0.750			
0.0979	6264.43	4.1320	4.1321	0.7974	25.43	0.47	0.750			
0.1003	6419.14	4.1290	4.1291	0.8017	25.43	0.47	0.750			
0.1028	6577.70	4.1260	4.1260	0.8073	25.43	0.47	0.750			
0.1051	6728.85	4.1230	4.1229	0.7937	25.43	0.47	0.750			
0.1075	6880.74	4.1200	4.1200	0.7924	25.43	0.47	0.750			
0.1099	7034.21	4.1170	4.1170	0.7911	25.44	0.48	0.750			
0.1123	7184.05	4.1140	4.1140	0.7940	25.44	0.48	0.750			
0.1146	7335.96	4.1110	4.1109	0.7958	25.44	0.48	0.750			
0.1170	7487.91	4.1080	4.1081	0.8020	25.45	0.49	0.750			
0.1194	7642.97	4.1050	4.1051	0.8066	25.45	0.49	0.750			
0.1219	7799.29	4.1020	4.1021	0.8124	25.45	0.49	0.750			
0.1243	7955.51	4.0990	4.0990	0.8066	25.45	0.49	0.750			
0.1267	8109.15	4.0960	4.0960	0.8097	25.44	0.48	0.750			
0.1291	8262.05	4.0930	4.0932	0.8123	25.44	0.48	0.750			
0.1316	8419.91	4.0900	4.0896	0.8205	25.44	0.48	0.750			
0.1340	8578.42	4.0870	4.0871	0.8205	25.44	0.48	0.750			
0.1365	8737.25	4.0840	4.0841	0.8293	25.44	0.48	0.750			
0.1390	8899.16	4.0810	4.0811	0.8361	25.45	0.49	0.750			
0.1415	9058.66	4.0780	4.0779	0.8285	25.45	0.49	0.750			
0.1440	9217.78	4.0750	4.0749	0.8314	25.45	0.49	0.750			
0.1466	9380.13	4.0720	4.0720	0.8271	25.45	0.49	0.750			
0.1490	9538.71	4.0690	4.0690	0.8350	25.45	0.49	0.750			
0.1515	9697.69	4.0660	4.0661	0.8382	25.45	0.49	0.750			
0.1540	9857.08	4.0630	4.0631	0.8393	25.45	0.49	0.750			
0.1565	10018.88	4.0600	4.0597	0.8456	25.45	0.49	0.750			
0.1591	10181.90	4.0570	4.0571	0.8557	25.45	0.49	0.750			
0.1617	10348.78	4.0540	4.0540	0.8513	25.45	0.49	0.750			
0.1642	10511.91	4.0510	4.0510	0.8539	25.46	0.50	0.750			
0.1668	10673.75	4.0480	4.0481	0.8503	25.46	0.50	0.750			
0.1693	10836.44	4.0450	4.0452	0.8527	25.46	0.50	0.750			
0.1719	11001.52	4.0420	4.0420	0.8568	25.46	0.50	0.750			
0.1745	11165.96	4.0390	4.0391	0.8647	25.46	0.50	0.750			
0.1771	11334.30	4.0360	4.0360	0.8669	25.47	0.51	0.750			
0.1797	11501.72	4.0330	4.0330	0.8699	25.47	0.51	0.750			
0.1823	11669.10	4.0300	4.0301	0.8706	25.47	0.51	0.750			
0.1849	11835.29	4.0270	4.0270	0.8730	25.47	0.51	0.750			
0.1875	12001.65	4.0240	4.0240	0.8667	25.47	0.51	0.750			
0.1901	12166.91	4.0210	4.0211	0.8690	25.47	0.51	0.750			
0.1927	12331.58	4.0180	4.0181	0.8755	25.47	0.51	0.750			
0.1953	12501.27	4.0150	4.0152	0.8857	25.47	0.51	0.750			
0.1980	12672.06	4.0120	4.0120	0.8837	25.47	0.51	0.750			
0.2007	12844.00	4.0090	4.0090	0.8908	25.48	0.52	0.750			
0.2034	13019.23	4.0060	4.0061	0.9072	25.48	0.52	0.750			
0.2061	13187.51	4.0030	4.0025	0.8951	25.48	0.52	0.750			
0.2088	13360.10	4.0000	4.0000	0.8974	25.48	0.52	0.750			
0.2114	13531.63	3.9970	3.9971	0.9038	25.48	0.52	0.750			
0.2142	13706.95	3.9940	3.9940	0.9133	25.49	0.53	0.750			
0.2169	13884.40	3.9910	3.9910	0.9178	25.49	0.53	0.750			
0.2197	14059.55	3.9880	3.9880	0.9127	25.49	0.53	0.750			
0.2224	14236.23	3.9850	3.9850	0.9031	25.50	0.54	0.750			
0.2252	14409.68	3.9820	3.9821	0.9081	25.50	0.54	0.750			
0.2279	14582.65	3.9790	3.9790	0.9118	25.50	0.54	0.750			
0.2306	14755.59	3.9760	3.9757	0.9110	25.51	0.55	0.750			
0.2333	14934.17	3.9730	3.9730	0.9073	25.51	0.55	0.750			
0.2361	15107.31	3.9700	3.9701	0.9166	25.51	0.55	0.750			
0.2388	15284.10	3.9670	3.9670	0.9229	25.51	0.55	0.750			
0.2416	15461.54	3.9640	3.9641	0.9330	25.51	0.55	0.750			
0.2443	15638.34	3.9610	3.9607	0.9324	25.51	0.55	0.750			
0.2472	15818.46	3.9580	3.9581	0.9321	25.52	0.56	0.750			
0.2500	16000.24	3.9550	3.9551	0.9384	25.52	0.56	0.750			
0.2528	16181.81	3.9520	3.9521	0.9409	25.52	0.56	0.750			
0.2556	16361.28	3.9490	3.9488	0.9352	25.53	0.57	0.750			
0.2585	16543.92	3.9460	3.9460	0.9270	25.53	0.57	0.750			
0.2612	16717.95	3.9430	3.9430	0.9325	25.53	0.57	0.750			
0.2640	16897.31	3.9400	3.9401	0.9392	25.54	0.58	0.750			
0.2668	17077.87	3.9370	3.9371	0.9494	25.54	0.58	0.750			
0.2697	17258.93	3.9340	3.9338	0.9530	25.54	0.58	0.750			
0.2726	17444.09	3.9310	3.9311	0.9473	25.54	0.58	0.750			
0.2754	17626.07	3.9280	3.9281	0.9575	25.55	0.59	0.750			
0.2783	17811.20	3.9250	3.9251	0.9635	25.55	0.59	0.750			
0.2812	17994.36	3.9220	3.9214	0.9614	25.55	0.59	0.750			
0.2841	18180.87	3.9190	3.9191	0.9605	25.55	0.59	0.750			
0.2869	18364.44	3.9160	3.9161	0.9678	25.55	0.59	0.750			
0.2899	18553.82	3.9130	3.9131	0.9766	25.56	0.60	0.750			
0.2928	18739.94	3.9100	3.9099	0.9713	25.56	0.60	0.750			
0.2958	18928.84	3.9070	3.9070	0.9687	25.56	0.60	0.750			
0.2987	19114.99	3.9040	3.9041	0.9768	25.56	0.60	0.750			
0.3016	19301.67	3.9010	3.9011	0.9856	25.57	0.61	0.750			
0.3046	19492.12	3.8980	3.8981	0.9853	25.57	0.61	0.750			
0.3076	19683.65	3.8950	3.8951	0.9849	25.57	0.61	0.750			
0.3105	19874.03	3.8920	3.8920	0.9892	25.57	0.61	0.750			
0.3135	20062.29	3.8890	3.8892	0.9974	25.57	0.61	0.750			
0.3165	20256.33	3.8860	3.8860	1.0050	25.57	0.61	0.750			
0.3195	20446.89	3.8830	3.8830	1.0027	25.57	0.61	0.750			
0.3225	20639.24	3.8800	3.8801	1.0094	25.57	0.61	0.750			
0.3255	20835.16	3.8770	3.8771	1.0218	25.57	0.61	0.750			
0.3287	21033.87	3.8740	3.8739	1.0202	25.57	0.61	0.750			
0.3317	21230.56	3.8710	3.8710	1.0176	25.57	0.61	0.750			
0.3347	21423.85	3.8680	3.8681	1.0099	25.57	0.61	0.750			
0.3378	21616.96	3.8650	3.8651	1.0152	25.57	0.61	0.750			
0.3408	21810.60	3.8620	3.8620	1.0190	25.57	0.61	0.750			
0.3438	22004.50	3.8590	3.8585	1.0253	25.57	0.61	0.750			
0.3469	22202.01	3.8560	3.8561	1.0216	25.56	0.60	0.750			
0.3500	22399.24	3.8530	3.8531	1.0355	25.56	0.60	0.750			
0.3531	22599.40	3.8500	3.8501	1.0467	25.55	0.59	0.750			
0.3563	22800.83	3.8470	3.8463	1.0397	25.55	0.59	0.750			
0.3594	23001.71	3.8440	3.8442	1.0517	25.54	0.58	0.750			
0.3626	23206.55	3.8410	3.8410	1.0599	25.54	0.58	0.750			
0.3658	23410.89	3.8380	3.8381	1.0743	25.53	0.57	0.750			
0.3691	23621.68	3.8350	3.8348	1.0578	25.53	0.57	0.750			
0.3722	23822.26	3.8320	3.8320	1.0732	25.52	0.56	0.750			
0.3754	24027.55	3.8290	3.8292	1.0852	25.52	0.56	0.750	0.315	0.415	
0.3787	24238.29	3.8260	3.8261	1.0980	25.51	0.55	0.750			
0.3821	24452.57	3.8230	3.8227	1.0931	25.51	0.55	0.750			
0.3853	24658.07	3.8200	3.8202	1.1238	25.50	0.54	0.750			
0.3886	24873.35	3.8170	3.8172	1.1589	25.49	0.53	0.750			
0.3922	25102.18	3.8140	3.8138	1.1909	25.48	0.52	0.750			
0.3959	25335.49	3.8110	3.8111	1.1742	25.47	0.51	0.750			
0.3995	25568.09	3.8080	3.8084	1.1859	25.47	0.51	0.750			
0.4031	25798.35	3.8050	3.8052	1.1848	25.46	0.50	0.750			
0.4067	26028.70	3.8020	3.8017	1.1677	25.45	0.49	0.750			
0.4100	26238.65	3.7990	3.7990	1.1424	25.44	0.48	0.750			
0.4134	26458.46	3.7960	3.7961	1.1496	25.43	0.47	0.750			
0.4169	26681.76	3.7930	3.7929	1.1618	25.42	0.46	0.750			
0.4204	26904.65	3.7900	3.7901	1.1643	25.41	0.45	0.750			
0.4239	27128.30	3.7870	3.7870	1.1789	25.40	0.44	0.750			
0.4274	27354.39	3.7840	3.7840	1.1932	25.39	0.43	0.750			
0.4311	27587.97	3.7810	3.7807	1.2073	25.38	0.42	0.750			
0.4347	27818.58	3.7780	3.7781	1.2253	25.37	0.41	0.750			
0.4384	28055.06	3.7750	3.7750	1.2484	25.36	0.40	0.750			
0.4422	28298.53	3.7720	3.7720	1.2641	25.35	0.39	0.750			
0.4460	28542.71	3.7690	3.7690	1.2890	25.34	0.38	0.750			
0.4498	28789.21	3.7660	3.7661	1.3134	25.33	0.37	0.750			
0.4539	29046.42	3.7630	3.7631	1.3363	25.31	0.35	0.750			
0.4579	29305.86	3.7600	3.7600	1.3669	25.30	0.34	0.750			
0.4620	29567.12	3.7570	3.7571	1.3872	25.29	0.33	0.750			
0.4662	29835.80	3.7540	3.7541	1.4218	25.28	0.32	0.750			
0.4705	30112.94	3.7510	3.7510	1.4498	25.26	0.30	0.750			
0.4748	30389.14	3.7480	3.7478	1.4848	25.25	0.29	0.750			
0.4793	30675.28	3.7450	3.7452	1.5327	25.24	0.28	0.750			
0.4841	30979.34	3.7420	3.7420	1.5719	25.22	0.26	0.750			
0.4888	31285.24	3.7390	3.7389	1.6169	25.20	0.24	0.750			
0.4938	31602.10	3.7360	3.7359	1.6641	25.18	0.22	0.750			
0.4988	31924.56	3.7330	3.7330	1.7165	25.17	0.21	0.750			
0.5040	32254.60	3.7300	3.7301	1.7528	25.16	0.20	0.750			
0.5093	32593.72	3.7270	3.7272	1.8015	25.14	0.18	0.750			
0.5148	32948.43	3.7240	3.7239	1.8415	25.12	0.16	0.750			
0.5204	33303.65	3.7210	3.7211	1.9036	25.10	0.14	0.750			
0.5262	33678.27	3.7180	3.7180	1.9679	25.09	0.13	0.750			
0.5322	34063.49	3.7150	3.7151	2.0290	25.07	0.11	0.750			
0.5383	34453.93	3.7120	3.7122	2.0966	25.05	0.09	0.750			
0.5448	34864.97	3.7090	3.7090	2.1490	25.04	0.08	0.750			
0.5513	35283.54	3.7060	3.7060	2.2150	25.02	0.06	0.750			
0.5581	35718.09	3.7030	3.7029	2.2583	25.00	0.04	0.750			
0.5650	36157.89	3.7000	3.7000	2.2940	24.99	0.03	0.750			
0.5719	36601.62	3.6970	3.6971	2.3215	24.97	0.01	0.750			
0.5789	37050.24	3.6940	3.6938	2.4099	24.95	-0.01	0.750			
0.5861	37512.97	3.6910	3.6909	2.4654	24.93	-0.03	0.750			
0.5937	37995.11	3.6880	3.6883	2.5640	24.92	-0.04	0.750			
0.6016	38499.51	3.6850	3.6851	2.6682	24.91	-0.05	0.750			
0.6098	39024.78	3.6820	3.6818	2.6899	24.89	-0.07	0.750			
0.6180	39551.73	3.6790	3.6790	2.7709	24.88	-0.08	0.750			
0.6265	40095.24	3.6760	3.6758	2.8202	24.87	-0.09	0.750			
0.6349	40635.52	3.6730	3.6729	2.8703	24.86	-0.10	0.750			
0.6438	41204.41	3.6700	3.6698	2.9308	24.86	-0.10	0.750			
0.6525	41762.94	3.6670	3.6669	2.9160	24.85	-0.11	0.750			
0.6615	42332.85	3.6640	3.6639	2.8129	24.84	-0.12	0.750			
0.6696	42853.89	3.6610	3.6607	2.6452	24.84	-0.12	0.750			
0.6774	43355.48	3.6580	3.6581	2.4790	24.85	-0.11	0.750			
0.6848	43825.91	3.6550	3.6554	2.3174	24.86	-0.10	0.750			
0.6913	44242.43	3.6520	3.6525	2.0863	24.87	-0.09	0.750			
0.6974	44633.26	3.6490	3.6489	1.8981	24.87	-0.09	0.750			
0.7028	44980.22	3.6460	3.6455	1.7019	24.88	-0.08	0.750			
0.7077	45292.11	3.6430	3.6431	1.4818	24.88	-0.08	0.750			
0.7117	45546.21	3.6400	3.6403	1.3025	24.89	-0.07	0.750			
0.7153	45777.26	3.6370	3.6372	1.1502	24.89	-0.07	0.750			
0.7183	45971.40	3.6340	3.6335	1.0229	24.90	-0.06	0.750			
0.7212	46155.66	3.6310	3.6311	0.9503	24.90	-0.06	0.750			
0.7238	46323.46	3.6280	3.6280	0.8914	24.91	-0.05	0.750			
0.7264	46489.10	3.6250	3.6250	0.8569	24.91	-0.05	0.750			
0.7289	46651.29	3.6220	3.6220	0.8184	24.92	-0.04	0.750			
0.7313	46804.77	3.6190	3.6190	0.7937	24.92	-0.04	0.750			
0.7337	46956.34	3.6160	3.6161	0.7660	24.93	-0.03	0.750			
0.7360	47101.63	3.6130	3.6131	0.7323	24.94	-0.02	0.750			
0.7382	47243.02	3.6100	3.6100	0.6777	24.94	-0.02	0.750			
0.7402	47370.77	3.6070	3.6070	0.6197	24.95	-0.01	0.750			
0.7420	47486.19	3.6040	3.6042	0.5516	24.95	-0.01	0.750			
0.7435	47585.80	3.6010	3.6011	0.4815	24.96	-0.00	0.750			
0.7448	47667.72	3.5980	3.5981	0.4079	24.96	0.00	0.750			
0.7459	47738.59	3.5950	3.5950	0.3384	24.97	0.01	0.750			
0.7468	47795.63	3.5920	3.5919	0.2723	24.97	0.01	0.750			
0.7476	47844.24	3.5890	3.5890	0.2093	24.97	0.01	0.750			
0.7481	47875.88	3.5860	3.5865	0.1498	24.97	0.01	0.750			
0.7484	47899.14	3.5830	3.5835	0.0833	24.98	0.02	0.750			
