Ah_balance (normalized)	Ah_balance (mAh)	Voltage - fit (V)	Voltage -  interpolate (V)	dQ/dV (1/V)	Temperature (°C)	Temperature - diff (°C)	Current (C)	R_DC 0ms (mOhm)	R_DC 50ms (mOhm)	R_DC 50 ms PEC (mOhm)
0.0471	3014.16	4.1990	4.1990	0.7410	26.00	0.55	0.750			
0.0494	3159.03	4.1960	4.1960	0.7603	26.00	0.55	0.750			
0.0515	3297.03	4.1930	4.1930	0.7355	26.00	0.55	0.750			
0.0537	3438.61	4.1900	4.1900	0.7391	26.00	0.55	0.750			
0.0559	3579.59	4.1870	4.1872	0.7412	26.00	0.55	0.750			
0.0582	3722.59	4.1840	4.1840	0.7480	26.00	0.55	0.750			
0.0604	3867.11	4.1810	4.1811	0.7513	26.00	0.55	0.750			
0.0627	4012.94	4.1780	4.1778	0.7481	26.00	0.55	0.750			
0.0649	4156.77	4.1750	4.1751	0.7513	26.00	0.55	0.750			
0.0672	4299.40	4.1720	4.1722	0.7521	26.00	0.55	0.750			
0.0694	4444.76	4.1690	4.1682	0.7581	26.00	0.55	0.750			
0.0717	4590.42	4.1660	4.1660	0.7612	26.00	0.55	0.750			
0.0740	4735.92	4.1630	4.1631	0.7652	26.00	0.55	0.750			
0.0763	4884.78	4.1600	4.1600	0.7685	26.00	0.55	0.750			
0.0787	5036.29	4.1570	4.1569	0.7695	26.00	0.55	0.750			
0.0809	5180.72	4.1540	4.1541	0.7623	26.00	0.55	0.750			
0.0832	5326.67	4.1510	4.1511	0.7627	26.00	0.55	0.750			
0.0855	5473.83	4.1480	4.1479	0.7607	26.00	0.55	0.750			
0.0878	5619.70	4.1450	4.1449	0.7540	26.00	0.55	0.750			
0.0900	5761.78	4.1420	4.1421	0.7582	26.01	0.56	0.750			
0.0923	5907.50	4.1390	4.1391	0.7641	26.01	0.56	0.750			
0.0946	6054.29	4.1360	4.1355	0.7700	26.01	0.56	0.750			
0.0969	6202.14	4.1330	4.1332	0.7714	26.01	0.56	0.750			
0.0993	6353.55	4.1300	4.1300	0.7658	26.01	0.56	0.750			
0.1016	6502.13	4.1270	4.1270	0.7739	26.01	0.56	0.750			
0.1039	6647.75	4.1240	4.1241	0.7667	26.01	0.56	0.750			
0.1062	6794.49	4.1210	4.1211	0.7731	26.01	0.56	0.750			
0.1085	6943.33	4.1180	4.1181	0.7760	26.01	0.56	0.750			
0.1108	7093.40	4.1150	4.1150	0.7785	26.02	0.57	0.750			
0.1132	7245.19	4.1120	4.1121	0.7832	26.02	0.57	0.750			
0.1156	7397.44	4.1090	4.1090	0.7886	26.02	0.57	0.750			
0.1179	7544.59	4.1060	4.1060	0.7828	26.03	0.58	0.750			
0.1202	7694.53	4.1030	4.1031	0.7880	26.03	0.58	0.750			
0.1226	7846.25	4.1000	4.0999	0.7922	26.03	0.58	0.750			
0.1250	8000.90	4.0970	4.0970	0.7898	26.03	0.58	0.750			
0.1274	8152.03	4.0940	4.0941	0.7905	26.03	0.58	0.750			
0.1298	8304.05	4.0910	4.0911	0.7934	26.03	0.58	0.750			
0.1321	8455.26	4.0880	4.0874	0.7965	26.03	0.58	0.750			
0.1345	8606.82	4.0850	4.0850	0.7955	26.03	0.58	0.750			
0.1369	8764.34	4.0820	4.0819	0.7814	26.03	0.58	0.750			
0.1393	8914.96	4.0790	4.0790	0.7913	26.03	0.58	0.750			
0.1416	9065.10	4.0760	4.0762	0.7992	26.03	0.58	0.750			
0.1440	9215.06	4.0730	4.0730	0.7962	26.03	0.58	0.750			
0.1464	9367.95	4.0700	4.0701	0.8043	26.03	0.58	0.750			
0.1488	9522.76	4.0670	4.0671	0.8063	26.04	0.59	0.750			
0.1513	9680.70	4.0640	4.0641	0.8125	26.04	0.59	0.750			
0.1538	9841.42	4.0610	4.0610	0.8238	26.04	0.59	0.750			
0.1562	9994.14	4.0580	4.0581	0.8131	26.05	0.60	0.750			
0.1586	10150.06	4.0550	4.0550	0.8190	26.05	0.60	0.750			
0.1611	10310.82	4.0520	4.0520	0.8134	26.05	0.60	0.750			
0.1635	10465.35	4.0490	4.0490	0.8167	26.05	0.60	0.750			
0.1660	10622.99	4.0460	4.0461	0.8242	26.05	0.60	0.750			
0.1684	10779.30	4.0430	4.0432	0.8260	26.05	0.60	0.750			
0.1709	10938.32	4.0400	4.0399	0.8304	26.05	0.60	0.750			
0.1734	11098.61	4.0370	4.0370	0.8340	26.05	0.60	0.750			
0.1759	11259.97	4.0340	4.0341	0.8244	26.06	0.61	0.750			
0.1784	11418.78	4.0310	4.0311	0.8369	26.06	0.61	0.750			
0.1809	11574.53	4.0280	4.0282	0.8361	26.06	0.61	0.750			
0.1833	11734.17	4.0250	4.0252	0.8374	26.06	0.61	0.750			
0.1859	11896.38	4.0220	4.0221	0.8446	26.06	0.61	0.750			
0.1885	12061.80	4.0190	4.0191	0.8526	26.06	0.61	0.750			
0.1911	12227.34	4.0160	4.0160	0.8565	26.06	0.61	0.750			
0.1936	12391.73	4.0130	4.0129	0.8474	26.06	0.61	0.750			
0.1962	12554.42	4.0100	4.0100	0.8507	26.06	0.61	0.750			
0.1987	12719.68	4.0070	4.0069	0.8376	26.06	0.61	0.750			
0.2013	12880.17	4.0040	4.0041	0.8465	26.07	0.62	0.750			
0.2038	13040.74	4.0010	4.0011	0.8547	26.07	0.62	0.750			
0.2063	13203.37	3.9980	3.9979	0.8588	26.07	0.62	0.750			
0.2089	13369.20	3.9950	3.9951	0.8674	26.07	0.62	0.750			
0.2115	13538.90	3.9920	3.9920	0.8658	26.07	0.62	0.750			
0.2141	13704.97	3.9890	3.9891	0.8659	26.07	0.62	0.750			
0.2168	13874.76	3.9860	3.9860	0.8754	26.07	0.62	0.750			
0.2194	14038.85	3.9830	3.9824	0.8666	26.07	0.62	0.750			
0.2220	14204.89	3.9800	3.9800	0.8717	26.07	0.62	0.750			
0.2246	14372.87	3.9770	3.9771	0.8721	26.07	0.62	0.750			
0.2272	14541.58	3.9740	3.9740	0.8740	26.07	0.62	0.750			
0.2299	14712.67	3.9710	3.9711	0.8811	26.07	0.62	0.750			
0.2325	14878.59	3.9680	3.9679	0.8719	26.07	0.62	0.750			
0.2351	15047.24	3.9650	3.9649	0.8623	26.07	0.62	0.750			
0.2377	15210.78	3.9620	3.9621	0.8706	26.07	0.62	0.750			
0.2403	15376.70	3.9590	3.9591	0.8741	26.08	0.63	0.750			
0.2429	15546.56	3.9560	3.9560	0.8797	26.08	0.63	0.750			
0.2456	15715.71	3.9530	3.9531	0.8786	26.08	0.63	0.750			
0.2482	15886.26	3.9500	3.9501	0.8711	26.08	0.63	0.750			
0.2508	16053.88	3.9470	3.9471	0.8781	26.07	0.62	0.750			
0.2535	16221.75	3.9440	3.9440	0.8795	26.07	0.62	0.750			
0.2561	16388.48	3.9410	3.9411	0.8719	26.07	0.62	0.750			
0.2587	16557.00	3.9380	3.9381	0.8757	26.07	0.62	0.750			
0.2613	16725.85	3.9350	3.9351	0.8752	26.07	0.62	0.750			
0.2640	16895.74	3.9320	3.9321	0.8776	26.07	0.62	0.750			
0.2666	17065.44	3.9290	3.9289	0.8788	26.07	0.62	0.750			
0.2692	17229.68	3.9260	3.9260	0.8735	26.07	0.62	0.750			
0.2718	17397.07	3.9230	3.9230	0.8769	26.07	0.62	0.750			
0.2745	17567.86	3.9200	3.9199	0.8672	26.06	0.61	0.750			
0.2771	17733.41	3.9170	3.9171	0.8710	26.06	0.61	0.750			
0.2797	17899.44	3.9140	3.9142	0.8719	26.05	0.60	0.750			
0.2823	18065.76	3.9110	3.9105	0.8780	26.05	0.60	0.750			
0.2849	18233.74	3.9080	3.9081	0.8809	26.05	0.60	0.750			
0.2876	18403.82	3.9050	3.9050	0.8715	26.04	0.59	0.750			
0.2902	18573.03	3.9020	3.9021	0.8802	26.04	0.59	0.750			
0.2928	18741.62	3.8990	3.8992	0.8732	26.03	0.58	0.750			
0.2954	18908.61	3.8960	3.8961	0.8748	26.03	0.58	0.750			
0.2981	19076.41	3.8930	3.8932	0.8727	26.02	0.57	0.750			
0.3007	19244.36	3.8900	3.8900	0.8742	26.02	0.57	0.750			
0.3034	19414.53	3.8870	3.8870	0.8800	26.02	0.57	0.750			
0.3060	19581.42	3.8840	3.8840	0.8736	26.01	0.56	0.750			
0.3086	19749.10	3.8810	3.8811	0.8777	26.01	0.56	0.750			
0.3113	19921.49	3.8780	3.8779	0.8689	26.00	0.55	0.750			
0.3138	20085.42	3.8750	3.8751	0.8780	25.99	0.54	0.750			
0.3165	20253.13	3.8720	3.8721	0.8808	25.98	0.53	0.750			
0.3191	20422.72	3.8690	3.8687	0.8856	25.97	0.52	0.750			
0.3218	20598.16	3.8660	3.8660	0.8789	25.96	0.51	0.750			
0.3245	20765.31	3.8630	3.8631	0.8833	25.95	0.50	0.750			
0.3271	20933.80	3.8600	3.8602	0.8916	25.95	0.50	0.750			
0.3298	21105.53	3.8570	3.8571	0.8891	25.94	0.49	0.750			
0.3324	21275.87	3.8540	3.8533	0.8948	25.93	0.48	0.750			
0.3351	21449.05	3.8510	3.8511	0.8958	25.93	0.48	0.750			
0.3378	21620.35	3.8480	3.8482	0.9120	25.92	0.47	0.750			
0.3406	21798.49	3.8450	3.8450	0.9275	25.92	0.47	0.750			
0.3434	21976.57	3.8420	3.8419	0.9311	25.91	0.46	0.750	0.280	0.413	
0.3462	22157.85	3.8390	3.8391	0.9314	25.90	0.45	0.750			
0.3491	22339.46	3.8360	3.8361	0.9431	25.89	0.44	0.750			
0.3519	22523.25	3.8330	3.8330	0.9513	25.88	0.43	0.750			
0.3548	22704.45	3.8300	3.8301	0.9482	25.87	0.42	0.750			
0.3576	22884.63	3.8270	3.8271	0.9534	25.86	0.41	0.750			
0.3605	23071.13	3.8240	3.8240	0.9503	25.85	0.40	0.750			
0.3633	23252.94	3.8210	3.8211	0.9652	25.83	0.38	0.750			
0.3662	23439.18	3.8180	3.8181	0.9795	25.82	0.37	0.750			
0.3692	23626.78	3.8150	3.8145	0.9849	25.81	0.36	0.750			
0.3721	23817.29	3.8120	3.8121	0.9965	25.80	0.35	0.750			
0.3752	24010.39	3.8090	3.8091	1.0061	25.79	0.34	0.750			
0.3782	24204.65	3.8060	3.8061	1.0206	25.78	0.33	0.750			
0.3813	24406.04	3.8030	3.8029	1.0335	25.77	0.32	0.750			
0.3844	24603.13	3.8000	3.8000	1.0206	25.76	0.31	0.750			
0.3875	24800.53	3.7970	3.7970	1.0301	25.75	0.30	0.750			
0.3905	24994.39	3.7940	3.7942	1.0511	25.74	0.29	0.750			
0.3937	25194.48	3.7910	3.7908	1.0728	25.73	0.28	0.750			
0.3970	25407.39	3.7880	3.7883	1.0730	25.72	0.27	0.750			
0.4002	25610.93	3.7850	3.7853	1.0955	25.71	0.26	0.750			
0.4035	25822.80	3.7820	3.7823	1.1300	25.69	0.24	0.750			
0.4069	26043.91	3.7790	3.7783	1.1585	25.68	0.23	0.750			
0.4104	26265.02	3.7760	3.7764	1.1828	25.67	0.22	0.750			
0.4140	26495.60	3.7730	3.7732	1.2043	25.65	0.20	0.750			
0.4177	26733.71	3.7700	3.7700	1.2421	25.64	0.19	0.750			
0.4217	26986.12	3.7670	3.7669	1.2486	25.62	0.17	0.750			
0.4251	27208.36	3.7640	3.7642	1.2527	25.62	0.17	0.750			
0.4289	27449.56	3.7610	3.7612	1.2926	25.61	0.16	0.750			
0.4328	27698.37	3.7580	3.7573	1.3154	25.60	0.15	0.750			
0.4367	27950.85	3.7550	3.7552	1.3566	25.58	0.13	0.750			
0.4409	28218.94	3.7520	3.7523	1.3895	25.57	0.12	0.750			
0.4452	28494.44	3.7490	3.7488	1.4350	25.56	0.11	0.750			
0.4496	28777.45	3.7460	3.7461	1.4264	25.54	0.09	0.750			
0.4539	29048.32	3.7430	3.7430	1.4678	25.52	0.07	0.750			
0.4583	29332.88	3.7400	3.7401	1.4817	25.51	0.06	0.750			
0.4628	29616.34	3.7370	3.7370	1.5362	25.50	0.05	0.750			
0.4672	29899.82	3.7340	3.7343	1.5782	25.49	0.04	0.750			
0.4720	30206.11	3.7310	3.7305	1.6063	25.47	0.02	0.750			
0.4768	30515.78	3.7280	3.7281	1.6532	25.46	0.01	0.750			
0.4820	30847.44	3.7250	3.7243	1.6888	25.45	0.00	0.750			
0.4872	31179.45	3.7220	3.7219	1.7688	25.43	-0.02	0.750			
0.4923	31507.88	3.7190	3.7189	1.8266	25.42	-0.03	0.750			
0.4979	31864.77	3.7160	3.7159	1.8582	25.40	-0.05	0.750			
0.5035	32223.91	3.7130	3.7131	1.9300	25.38	-0.07	0.750			
0.5093	32597.42	3.7100	3.7097	1.9581	25.37	-0.08	0.750			
0.5152	32975.09	3.7070	3.7066	2.0137	25.36	-0.09	0.750			
0.5214	33371.31	3.7040	3.7044	2.0674	25.35	-0.10	0.750			
0.5278	33778.09	3.7010	3.7010	2.1494	25.33	-0.12	0.750			
0.5344	34202.60	3.6980	3.6979	2.1733	25.32	-0.13	0.750			
0.5410	34623.67	3.6950	3.6954	2.2607	25.32	-0.13	0.750			
0.5476	35048.10	3.6920	3.6922	2.3969	25.32	-0.13	0.750			
0.5554	35546.41	3.6890	3.6890	2.6104	25.30	-0.15	0.750			
0.5635	36064.42	3.6860	3.6865	2.6466	25.29	-0.16	0.750			
0.5716	36584.75	3.6830	3.6831	2.5050	25.29	-0.16	0.750			
0.5789	37051.62	3.6800	3.6800	2.3849	25.28	-0.17	0.750			
0.5858	37488.96	3.6770	3.6767	2.2599	25.28	-0.17	0.750			
0.5926	37924.48	3.6740	3.6742	2.2302	25.29	-0.16	0.750			
0.5993	38353.95	3.6710	3.6711	2.1508	25.29	-0.16	0.750			
0.6056	38757.66	3.6680	3.6680	2.0041	25.28	-0.17	0.750			
0.6114	39132.64	3.6650	3.6651	1.8739	25.29	-0.16	0.750			
0.6168	39473.71	3.6620	3.6621	1.7098	25.30	-0.15	0.750			
0.6215	39773.05	3.6590	3.6588	1.5747	25.30	-0.15	0.750			
0.6259	40058.06	3.6560	3.6563	1.4654	25.31	-0.14	0.750			
0.6301	40327.79	3.6530	3.6530	1.3803	25.32	-0.13	0.750			
0.6340	40577.49	3.6500	3.6500	1.2992	25.32	-0.13	0.750			
0.6379	40823.98	3.6470	3.6472	1.2435	25.33	-0.12	0.750			
0.6415	41054.46	3.6440	3.6440	1.1805	25.34	-0.11	0.750			
0.6450	41277.07	3.6410	3.6409	1.1270	25.35	-0.10	0.750			
0.6481	41480.78	3.6380	3.6380	1.0597	25.36	-0.09	0.750			
0.6512	41676.70	3.6350	3.6351	1.0144	25.37	-0.08	0.750			
0.6542	41866.56	3.6320	3.6320	0.9776	25.37	-0.08	0.750			
0.6570	42048.60	3.6290	3.6286	0.9405	25.38	-0.07	0.750			
0.6598	42227.50	3.6260	3.6261	0.8984	25.39	-0.06	0.750			
0.6625	42400.32	3.6230	3.6230	0.8455	25.40	-0.05	0.750			
0.6649	42554.73	3.6200	3.6202	0.8090	25.41	-0.04	0.750			
0.6672	42699.94	3.6170	3.6174	0.7798	25.41	-0.04	0.750			
0.6694	42843.87	3.6140	3.6136	0.7504	25.42	-0.03	0.750			
0.6717	42988.20	3.6110	3.6116	0.7176	25.43	-0.02	0.750			
0.6738	43125.99	3.6080	3.6085	0.6877	25.43	-0.02	0.750			
0.6760	43262.41	3.6050	3.6052	0.6448	25.44	-0.01	0.750			
0.6780	43390.96	3.6020	3.6019	0.5907	25.44	-0.01	0.750			
0.6795	43487.49	3.5990	3.5989	0.5138	25.44	-0.01	0.750			
0.6810	43581.18	3.5960	3.5961	0.4653	25.45	-0.00	0.750			
0.6823	43664.79	3.5930	3.5929	0.4160	25.45	0.00	0.750			
0.6834	43739.84	3.5900	3.5899	0.3694	25.45	0.00	0.750			
0.6845	43807.11	3.5870	3.5870	0.3202	25.46	0.01	0.750			
0.6854	43864.21	3.5840	3.5841	0.2724	25.46	0.01	0.750			
0.6861	43912.84	3.5810	3.5809	0.2237	25.46	0.01	0.750			
0.6868	43952.36	3.5780	3.5781	0.1715	25.46	0.01	0.750			
0.6872	43979.93	3.5750	3.5736	0.1173	25.46	0.01	0.750			
0.6875	43997.24	3.5720	3.5731	0.0542	25.46	0.01	0.750			
