Ah_balance (normalized)	Ah_balance (mAh)	Voltage - fit (V)	Voltage -  interpolate (V)	dQ/dV (1/V)	Temperature (°C)	Temperature - diff (°C)	Current (C)	R_DC 0ms (mOhm)	R_DC 50ms (mOhm)	R_DC 50 ms PEC (mOhm)
0.0479	3066.35	4.1980	4.1980	0.7472	25.77	0.50	0.750			
0.0502	3210.49	4.1950	4.1950	0.7511	25.77	0.50	0.750			
0.0524	3354.21	4.1920	4.1920	0.7534	25.77	0.50	0.750			
0.0547	3500.14	4.1890	4.1889	0.7548	25.77	0.50	0.750			
0.0570	3645.30	4.1860	4.1860	0.7554	25.77	0.50	0.750			
0.0592	3789.97	4.1830	4.1831	0.7582	25.77	0.50	0.750			
0.0615	3935.44	4.1800	4.1800	0.7595	25.77	0.50	0.750			
0.0638	4081.73	4.1770	4.1769	0.7552	25.77	0.50	0.750			
0.0660	4224.44	4.1740	4.1740	0.7541	25.77	0.50	0.750			
0.0683	4369.87	4.1710	4.1712	0.7582	25.77	0.50	0.750			
0.0706	4516.35	4.1680	4.1678	0.7611	25.77	0.50	0.750			
0.0728	4662.27	4.1650	4.1651	0.7612	25.77	0.50	0.750			
0.0751	4808.80	4.1620	4.1620	0.7610	25.77	0.50	0.750			
0.0774	4955.86	4.1590	4.1590	0.7667	25.77	0.50	0.750			
0.0797	5102.36	4.1560	4.1560	0.7674	25.77	0.50	0.750			
0.0820	5249.78	4.1530	4.1528	0.7686	25.77	0.50	0.750			
0.0844	5398.52	4.1500	4.1501	0.7716	25.77	0.50	0.750			
0.0867	5547.67	4.1470	4.1470	0.7703	25.77	0.50	0.750			
0.0890	5695.32	4.1440	4.1440	0.7694	25.77	0.50	0.750			
0.0913	5843.13	4.1410	4.1410	0.7707	25.77	0.50	0.750			
0.0936	5989.42	4.1380	4.1379	0.7704	25.77	0.50	0.750			
0.0959	6137.38	4.1350	4.1350	0.7710	25.77	0.50	0.750			
0.0982	6286.10	4.1320	4.1320	0.7755	25.77	0.50	0.750			
0.1006	6436.11	4.1290	4.1290	0.7753	25.77	0.50	0.750			
0.1029	6585.52	4.1260	4.1260	0.7751	25.77	0.50	0.750			
0.1052	6732.83	4.1230	4.1230	0.7770	25.77	0.50	0.750			
0.1075	6881.60	4.1200	4.1197	0.7802	25.77	0.50	0.750			
0.1099	7031.72	4.1170	4.1170	0.7822	25.77	0.50	0.750			
0.1123	7184.97	4.1140	4.1140	0.7774	25.77	0.50	0.750			
0.1146	7333.18	4.1110	4.1110	0.7840	25.77	0.50	0.750			
0.1169	7484.21	4.1080	4.1081	0.7881	25.77	0.50	0.750			
0.1193	7634.31	4.1050	4.1050	0.7892	25.77	0.50	0.750			
0.1216	7785.46	4.1020	4.1020	0.7906	25.77	0.50	0.750			
0.1240	7938.25	4.0990	4.0991	0.7922	25.77	0.50	0.750			
0.1264	8091.62	4.0960	4.0961	0.7948	25.77	0.50	0.750			
0.1289	8246.52	4.0930	4.0930	0.8046	25.77	0.50	0.750			
0.1312	8397.83	4.0900	4.0900	0.8005	25.77	0.50	0.750			
0.1336	8551.91	4.0870	4.0870	0.8017	25.77	0.50	0.750			
0.1360	8706.64	4.0840	4.0840	0.8031	25.77	0.50	0.750			
0.1385	8862.46	4.0810	4.0811	0.7980	25.77	0.50	0.750			
0.1408	9014.02	4.0780	4.0781	0.8003	25.77	0.50	0.750			
0.1432	9166.37	4.0750	4.0750	0.8009	25.77	0.50	0.750			
0.1456	9318.72	4.0720	4.0717	0.8069	25.77	0.50	0.750			
0.1480	9473.85	4.0690	4.0690	0.8123	25.77	0.50	0.750			
0.1505	9629.98	4.0660	4.0661	0.8169	25.77	0.50	0.750			
0.1529	9788.57	4.0630	4.0631	0.8277	25.78	0.51	0.750			
0.1554	9948.17	4.0600	4.0600	0.8247	25.78	0.51	0.750			
0.1579	10107.62	4.0570	4.0567	0.8328	25.78	0.51	0.750			
0.1605	10269.34	4.0540	4.0542	0.8322	25.78	0.51	0.750			
0.1630	10429.45	4.0510	4.0511	0.8325	25.78	0.51	0.750			
0.1655	10591.13	4.0480	4.0479	0.8366	25.79	0.52	0.750			
0.1680	10749.56	4.0450	4.0451	0.8297	25.79	0.52	0.750			
0.1704	10907.70	4.0420	4.0419	0.8299	25.79	0.52	0.750			
0.1729	11067.26	4.0390	4.0390	0.8374	25.79	0.52	0.750			
0.1754	11228.14	4.0360	4.0361	0.8327	25.79	0.52	0.750			
0.1779	11388.31	4.0330	4.0330	0.8392	25.79	0.52	0.750			
0.1804	11548.69	4.0300	4.0301	0.8432	25.79	0.52	0.750			
0.1830	11711.05	4.0270	4.0267	0.8486	25.79	0.52	0.750			
0.1856	11876.48	4.0240	4.0240	0.8485	25.79	0.52	0.750			
0.1881	12039.43	4.0210	4.0211	0.8529	25.79	0.52	0.750			
0.1907	12203.33	4.0180	4.0181	0.8574	25.79	0.52	0.750			
0.1933	12368.48	4.0150	4.0150	0.8563	25.79	0.52	0.750			
0.1958	12532.21	4.0120	4.0120	0.8560	25.79	0.52	0.750			
0.1984	12697.23	4.0090	4.0091	0.8590	25.79	0.52	0.750			
0.2010	12862.66	4.0060	4.0061	0.8636	25.79	0.52	0.750			
0.2036	13029.22	4.0030	4.0030	0.8669	25.79	0.52	0.750			
0.2062	13194.34	4.0000	4.0000	0.8664	25.79	0.52	0.750			
0.2088	13362.16	3.9970	3.9970	0.8697	25.79	0.52	0.750			
0.2114	13531.47	3.9940	3.9940	0.8683	25.79	0.52	0.750			
0.2140	13696.78	3.9910	3.9910	0.8715	25.79	0.52	0.750			
0.2166	13863.72	3.9880	3.9881	0.8742	25.79	0.52	0.750			
0.2192	14030.21	3.9850	3.9850	0.8770	25.79	0.52	0.750			
0.2219	14199.78	3.9820	3.9820	0.8810	25.79	0.52	0.750			
0.2245	14368.93	3.9790	3.9791	0.8809	25.79	0.52	0.750			
0.2272	14539.95	3.9760	3.9760	0.8852	25.80	0.53	0.750			
0.2299	14711.57	3.9730	3.9731	0.8900	25.80	0.53	0.750			
0.2325	14879.66	3.9700	3.9697	0.8858	25.80	0.53	0.750			
0.2352	15050.12	3.9670	3.9671	0.8851	25.80	0.53	0.750			
0.2378	15219.50	3.9640	3.9640	0.8894	25.80	0.53	0.750			
0.2405	15391.12	3.9610	3.9610	0.8958	25.81	0.54	0.750			
0.2432	15564.12	3.9580	3.9580	0.8964	25.81	0.54	0.750			
0.2459	15735.72	3.9550	3.9551	0.8969	25.81	0.54	0.750			
0.2486	15908.77	3.9520	3.9520	0.8933	25.81	0.54	0.750			
0.2512	16079.22	3.9490	3.9491	0.8967	25.81	0.54	0.750			
0.2539	16251.93	3.9460	3.9460	0.8987	25.81	0.54	0.750			
0.2566	16423.61	3.9430	3.9430	0.8979	25.81	0.54	0.750			
0.2593	16597.45	3.9400	3.9400	0.8984	25.81	0.54	0.750			
0.2620	16770.88	3.9370	3.9370	0.8995	25.81	0.54	0.750			
0.2647	16943.29	3.9340	3.9341	0.8971	25.81	0.54	0.750			
0.2674	17114.77	3.9310	3.9310	0.9015	25.81	0.54	0.750			
0.2701	17285.84	3.9280	3.9278	0.9009	25.81	0.54	0.750			
0.2728	17460.50	3.9250	3.9249	0.8985	25.81	0.54	0.750			
0.2755	17632.74	3.9220	3.9220	0.9000	25.80	0.53	0.750			
0.2782	17807.46	3.9190	3.9191	0.9023	25.80	0.53	0.750			
0.2809	17979.55	3.9160	3.9160	0.9022	25.79	0.52	0.750			
0.2836	18151.91	3.9130	3.9130	0.9016	25.79	0.52	0.750			
0.2863	18325.71	3.9100	3.9100	0.8947	25.78	0.51	0.750			
0.2890	18496.31	3.9070	3.9070	0.8990	25.78	0.51	0.750			
0.2917	18669.81	3.9040	3.9040	0.9012	25.78	0.51	0.750			
0.2944	18841.89	3.9010	3.9009	0.9005	25.77	0.50	0.750			
0.2971	19015.26	3.8980	3.8980	0.9032	25.77	0.50	0.750			
0.2998	19187.70	3.8950	3.8951	0.9027	25.76	0.49	0.750			
0.3025	19362.55	3.8920	3.8920	0.9079	25.76	0.49	0.750			
0.3053	19539.32	3.8890	3.8890	0.9107	25.75	0.48	0.750			
0.3080	19711.69	3.8860	3.8861	0.9059	25.75	0.48	0.750			
0.3107	19887.39	3.8830	3.8831	0.9013	25.75	0.48	0.750			
0.3134	20059.16	3.8800	3.8800	0.9017	25.74	0.47	0.750			
0.3161	20231.14	3.8770	3.8770	0.9044	25.74	0.47	0.750			
0.3188	20402.96	3.8740	3.8742	0.9028	25.73	0.46	0.750			
0.3215	20577.58	3.8710	3.8709	0.9070	25.73	0.46	0.750			
0.3243	20753.36	3.8680	3.8680	0.9097	25.72	0.45	0.750			
0.3270	20927.92	3.8650	3.8651	0.9120	25.71	0.44	0.750			
0.3297	21103.89	3.8620	3.8621	0.9180	25.71	0.44	0.750			
0.3325	21278.07	3.8590	3.8587	0.9153	25.70	0.43	0.750			
0.3353	21457.07	3.8560	3.8560	0.9061	25.69	0.42	0.750			
0.3380	21629.88	3.8530	3.8530	0.9138	25.69	0.42	0.750			
0.3407	21805.73	3.8500	3.8501	0.9197	25.68	0.41	0.750			
0.3434	21980.77	3.8470	3.8471	0.9274	25.67	0.40	0.750			
0.3462	22156.01	3.8440	3.8441	0.9358	25.67	0.40	0.750			
0.3490	22337.16	3.8410	3.8411	0.9461	25.66	0.39	0.750			
0.3519	22521.03	3.8380	3.8382	0.9565	25.65	0.38	0.750	0.302	0.432	
0.3548	22707.63	3.8350	3.8351	0.9658	25.64	0.37	0.750			
0.3577	22893.74	3.8320	3.8319	0.9653	25.63	0.36	0.750			
0.3607	23082.27	3.8290	3.8290	0.9621	25.62	0.35	0.750			
0.3635	23265.38	3.8260	3.8260	0.9685	25.61	0.34	0.750			
0.3664	23448.74	3.8230	3.8230	0.9712	25.60	0.33	0.750			
0.3693	23635.39	3.8200	3.8200	0.9787	25.59	0.32	0.750			
0.3723	23824.78	3.8170	3.8170	0.9840	25.58	0.31	0.750			
0.3752	24013.64	3.8140	3.8140	0.9963	25.57	0.30	0.750			
0.3782	24206.95	3.8110	3.8110	1.0068	25.56	0.29	0.750			
0.3813	24401.81	3.8080	3.8080	1.0147	25.55	0.28	0.750			
0.3843	24598.05	3.8050	3.8051	1.0182	25.53	0.26	0.750			
0.3874	24794.04	3.8020	3.8020	1.0313	25.53	0.26	0.750			
0.3905	24992.04	3.7990	3.7991	1.0474	25.52	0.25	0.750			
0.3936	25193.21	3.7960	3.7960	1.0675	25.51	0.24	0.750			
0.3969	25399.74	3.7930	3.7930	1.0729	25.50	0.23	0.750			
0.4001	25607.92	3.7900	3.7900	1.0979	25.49	0.22	0.750			
0.4034	25820.30	3.7870	3.7870	1.1174	25.48	0.21	0.750			
0.4069	26040.32	3.7840	3.7839	1.1346	25.47	0.20	0.750			
0.4103	26257.28	3.7810	3.7811	1.1455	25.46	0.19	0.750			
0.4137	26477.24	3.7780	3.7780	1.1640	25.45	0.18	0.750			
0.4172	26702.50	3.7750	3.7751	1.1871	25.44	0.17	0.750			
0.4208	26931.90	3.7720	3.7720	1.2001	25.43	0.16	0.750			
0.4244	27163.47	3.7690	3.7691	1.2287	25.42	0.15	0.750			
0.4282	27401.89	3.7660	3.7660	1.2527	25.40	0.13	0.750			
0.4320	27647.32	3.7630	3.7629	1.2735	25.39	0.12	0.750			
0.4358	27892.14	3.7600	3.7601	1.3054	25.38	0.11	0.750			
0.4398	28145.39	3.7570	3.7570	1.3354	25.37	0.10	0.750			
0.4439	28407.11	3.7540	3.7539	1.3577	25.36	0.09	0.750			
0.4480	28673.95	3.7510	3.7511	1.3826	25.35	0.08	0.750			
0.4521	28937.32	3.7480	3.7481	1.4137	25.34	0.07	0.750			
0.4564	29212.50	3.7450	3.7449	1.4490	25.32	0.05	0.750			
0.4609	29495.22	3.7420	3.7421	1.4782	25.32	0.05	0.750			
0.4653	29782.35	3.7390	3.7388	1.5087	25.31	0.04	0.750			
0.4699	30072.33	3.7360	3.7361	1.5617	25.30	0.03	0.750			
0.4746	30374.69	3.7330	3.7332	1.6040	25.29	0.02	0.750			
0.4796	30692.02	3.7300	3.7300	1.6377	25.28	0.01	0.750			
0.4845	31005.61	3.7270	3.7270	1.6780	25.26	-0.01	0.750			
0.4896	31334.45	3.7240	3.7239	1.7225	25.25	-0.02	0.750			
0.4949	31674.04	3.7210	3.7207	1.7787	25.23	-0.04	0.750			
0.5002	32013.41	3.7180	3.7179	1.8226	25.22	-0.05	0.750			
0.5057	32366.69	3.7150	3.7148	1.8709	25.20	-0.07	0.750			
0.5114	32732.60	3.7120	3.7117	1.9563	25.19	-0.08	0.750			
0.5174	33116.11	3.7090	3.7090	2.0571	25.18	-0.09	0.750			
0.5237	33517.25	3.7060	3.7056	2.0602	25.17	-0.10	0.750			
0.5300	33920.60	3.7030	3.7033	2.1276	25.16	-0.11	0.750			
0.5363	34323.10	3.7000	3.6995	2.1928	25.15	-0.12	0.750			
0.5430	34753.36	3.6970	3.6969	2.2448	25.14	-0.13	0.750			
0.5496	35175.22	3.6940	3.6940	2.3123	25.13	-0.14	0.750			
0.5568	35636.95	3.6910	3.6908	2.3360	25.12	-0.15	0.750			
0.5640	36093.34	3.6880	3.6879	2.4193	25.12	-0.15	0.750			
0.5714	36569.60	3.6850	3.6851	2.4633	25.11	-0.16	0.750			
0.5790	37053.72	3.6820	3.6818	2.4644	25.10	-0.17	0.750			
0.5865	37535.43	3.6790	3.6789	2.5126	25.10	-0.17	0.750			
0.5942	38027.94	3.6760	3.6760	2.5531	25.10	-0.17	0.750			
0.6017	38511.27	3.6730	3.6732	2.4839	25.10	-0.17	0.750			
0.6092	38988.02	3.6700	3.6699	2.4276	25.10	-0.17	0.750			
0.6165	39457.47	3.6670	3.6668	2.2509	25.10	-0.17	0.750			
0.6229	39867.91	3.6640	3.6641	2.0968	25.10	-0.17	0.750			
0.6289	40250.52	3.6610	3.6611	1.9240	25.11	-0.16	0.750			
0.6344	40604.35	3.6580	3.6578	1.8041	25.12	-0.15	0.750			
0.6396	40934.40	3.6550	3.6549	1.6714	25.13	-0.14	0.750			
0.6444	41243.26	3.6520	3.6519	1.5464	25.14	-0.13	0.750			
0.6489	41530.15	3.6490	3.6492	1.4353	25.15	-0.12	0.750			
0.6530	41794.18	3.6460	3.6462	1.3279	25.16	-0.11	0.750			
0.6568	42038.14	3.6430	3.6429	1.2377	25.17	-0.10	0.750			
0.6604	42264.35	3.6400	3.6401	1.1486	25.17	-0.10	0.750			
0.6637	42476.47	3.6370	3.6370	1.0929	25.18	-0.09	0.750			
0.6669	42678.83	3.6340	3.6341	1.0483	25.18	-0.09	0.750			
0.6699	42874.26	3.6310	3.6304	1.0063	25.19	-0.08	0.750			
0.6729	43066.12	3.6280	3.6281	0.9619	25.20	-0.07	0.750			
0.6757	43245.77	3.6250	3.6251	0.9314	25.20	-0.07	0.750			
0.6785	43421.77	3.6220	3.6220	0.8993	25.21	-0.06	0.750			
0.6811	43593.54	3.6190	3.6191	0.8677	25.22	-0.05	0.750			
0.6837	43753.99	3.6160	3.6159	0.8226	25.22	-0.05	0.750			
0.6861	43910.25	3.6130	3.6131	0.7766	25.23	-0.04	0.750			
0.6884	44057.44	3.6100	3.6100	0.7318	25.24	-0.03	0.750			
0.6906	44195.39	3.6070	3.6071	0.6809	25.25	-0.02	0.750			
0.6925	44319.95	3.6040	3.6039	0.6188	25.26	-0.01	0.750			
0.6943	44433.59	3.6010	3.6010	0.5653	25.27	-0.00	0.750			
0.6959	44536.13	3.5980	3.5981	0.5122	25.27	0.00	0.750			
0.6973	44630.29	3.5950	3.5949	0.4565	25.28	0.01	0.750			
0.6986	44711.70	3.5920	3.5919	0.4099	25.28	0.01	0.750			
0.6997	44783.72	3.5890	3.5890	0.3599	25.29	0.02	0.750			
0.7008	44849.73	3.5860	3.5859	0.3098	25.29	0.02	0.750			
0.7016	44905.38	3.5830	3.5831	0.2629	25.30	0.03	0.750			
0.7024	44951.08	3.5800	3.5802	0.2120	25.30	0.03	0.750			
0.7029	44988.43	3.5770	3.5774	0.1601	25.30	0.03	0.750			
0.7034	45018.62	3.5740	3.5742	0.0888	25.30	0.03	0.750			
0.7036	45027.97	3.5710	3.5720	0.0409	25.30	0.03	0.750			
