Ah_balance (normalized)	Ah_balance (mAh)	Voltage - fit (V)	Voltage -  interpolate (V)	dQ/dV (1/V)	Temperature (°C)	Temperature - diff (°C)	Current (C)	R_DC 0ms (mOhm)	R_DC 50ms (mOhm)	R_DC 50 ms PEC (mOhm)
0.0479	3063.40	4.1980	4.1980	0.7704	25.51	0.49	0.750			
0.0501	3209.18	4.1950	4.1950	0.7521	25.51	0.49	0.750			
0.0524	3351.26	4.1920	4.1920	0.7443	25.51	0.49	0.750			
0.0546	3492.86	4.1890	4.1891	0.7463	25.51	0.49	0.750			
0.0568	3634.79	4.1860	4.1854	0.7469	25.51	0.49	0.750			
0.0590	3778.82	4.1830	4.1830	0.7519	25.51	0.49	0.750			
0.0613	3924.54	4.1800	4.1801	0.7568	25.51	0.49	0.750			
0.0636	4071.73	4.1770	4.1770	0.7602	25.51	0.49	0.750			
0.0659	4218.13	4.1740	4.1740	0.7619	25.51	0.49	0.750			
0.0682	4362.20	4.1710	4.1710	0.7600	25.51	0.49	0.750			
0.0704	4508.49	4.1680	4.1680	0.7592	25.51	0.49	0.750			
0.0727	4654.17	4.1650	4.1650	0.7619	25.51	0.49	0.750			
0.0750	4801.06	4.1620	4.1620	0.7569	25.51	0.49	0.750			
0.0773	4946.29	4.1590	4.1590	0.7600	25.51	0.49	0.750			
0.0795	5090.89	4.1560	4.1560	0.7628	25.51	0.49	0.750			
0.0818	5237.47	4.1530	4.1527	0.7652	25.51	0.49	0.750			
0.0841	5384.22	4.1500	4.1500	0.7663	25.51	0.49	0.750			
0.0865	5534.02	4.1470	4.1470	0.7632	25.51	0.49	0.750			
0.0887	5679.92	4.1440	4.1440	0.7676	25.51	0.49	0.750			
0.0910	5826.33	4.1410	4.1411	0.7675	25.51	0.49	0.750			
0.0933	5974.11	4.1380	4.1381	0.7705	25.51	0.49	0.750			
0.0956	6120.99	4.1350	4.1350	0.7733	25.51	0.49	0.750			
0.0980	6271.56	4.1320	4.1321	0.7760	25.51	0.49	0.750			
0.1004	6422.51	4.1290	4.1290	0.7787	25.51	0.49	0.750			
0.1027	6573.69	4.1260	4.1259	0.7841	25.52	0.50	0.750			
0.1050	6721.29	4.1230	4.1230	0.7759	25.52	0.50	0.750			
0.1073	6869.60	4.1200	4.1201	0.7742	25.52	0.50	0.750			
0.1096	7017.33	4.1170	4.1170	0.7799	25.52	0.50	0.750			
0.1120	7168.08	4.1140	4.1140	0.7754	25.52	0.50	0.750			
0.1143	7317.04	4.1110	4.1110	0.7801	25.53	0.51	0.750			
0.1167	7466.19	4.1080	4.1080	0.7852	25.53	0.51	0.750			
0.1190	7617.05	4.1050	4.1048	0.7859	25.53	0.51	0.750			
0.1214	7769.03	4.1020	4.1021	0.7907	25.53	0.51	0.750			
0.1238	7925.11	4.0990	4.0990	0.7790	25.53	0.51	0.750			
0.1261	8071.59	4.0960	4.0959	0.7838	25.53	0.51	0.750			
0.1285	8221.53	4.0930	4.0931	0.7928	25.53	0.51	0.750			
0.1308	8371.96	4.0900	4.0901	0.7919	25.53	0.51	0.750			
0.1332	8523.60	4.0870	4.0871	0.7952	25.53	0.51	0.750			
0.1356	8678.27	4.0840	4.0841	0.8027	25.53	0.51	0.750			
0.1380	8833.35	4.0810	4.0811	0.8081	25.53	0.51	0.750			
0.1405	8990.88	4.0780	4.0780	0.8121	25.53	0.51	0.750			
0.1429	9145.43	4.0750	4.0750	0.8047	25.53	0.51	0.750			
0.1453	9300.34	4.0720	4.0720	0.8065	25.53	0.51	0.750			
0.1478	9457.87	4.0690	4.0691	0.8046	25.54	0.52	0.750			
0.1502	9610.48	4.0660	4.0660	0.8026	25.54	0.52	0.750			
0.1526	9763.42	4.0630	4.0631	0.8046	25.54	0.52	0.750			
0.1550	9917.36	4.0600	4.0600	0.8058	25.55	0.53	0.750			
0.1574	10070.65	4.0570	4.0570	0.8125	25.55	0.53	0.750			
0.1598	10228.64	4.0540	4.0540	0.8178	25.55	0.53	0.750			
0.1624	10391.63	4.0510	4.0509	0.8056	25.55	0.53	0.750			
0.1647	10541.91	4.0480	4.0481	0.8157	25.55	0.53	0.750			
0.1671	10694.73	4.0450	4.0453	0.8193	25.55	0.53	0.750			
0.1696	10853.42	4.0420	4.0410	0.8271	25.55	0.53	0.750			
0.1721	11012.89	4.0390	4.0393	0.8293	25.55	0.53	0.750			
0.1746	11172.12	4.0360	4.0362	0.8397	25.56	0.54	0.750			
0.1772	11337.75	4.0330	4.0332	0.8456	25.56	0.54	0.750			
0.1798	11508.52	4.0300	4.0298	0.8570	25.57	0.55	0.750			
0.1822	11663.45	4.0270	4.0270	0.8425	25.57	0.55	0.750			
0.1848	11826.14	4.0240	4.0240	0.8465	25.57	0.55	0.750			
0.1874	11991.00	4.0210	4.0210	0.8380	25.58	0.56	0.750			
0.1898	12148.50	4.0180	4.0181	0.8425	25.58	0.56	0.750			
0.1923	12307.36	4.0150	4.0152	0.8468	25.59	0.57	0.750			
0.1949	12471.53	4.0120	4.0115	0.8534	25.59	0.57	0.750			
0.1974	12635.01	4.0090	4.0092	0.8586	25.59	0.57	0.750			
0.2000	12801.39	4.0060	4.0061	0.8526	25.59	0.57	0.750			
0.2026	12966.82	4.0030	4.0031	0.8644	25.59	0.57	0.750			
0.2052	13130.76	4.0000	4.0001	0.8589	25.59	0.57	0.750			
0.2077	13295.28	3.9970	3.9971	0.8674	25.59	0.57	0.750			
0.2104	13462.83	3.9940	3.9941	0.8693	25.59	0.57	0.750			
0.2130	13631.97	3.9910	3.9911	0.8789	25.59	0.57	0.750			
0.2157	13803.05	3.9880	3.9880	0.8869	25.60	0.58	0.750			
0.2183	13971.99	3.9850	3.9850	0.8843	25.60	0.58	0.750			
0.2210	14142.56	3.9820	3.9820	0.8869	25.60	0.58	0.750			
0.2237	14317.06	3.9790	3.9788	0.8723	25.60	0.58	0.750			
0.2263	14482.17	3.9760	3.9762	0.8797	25.61	0.59	0.750			
0.2289	14651.71	3.9730	3.9731	0.8818	25.61	0.59	0.750			
0.2316	14819.54	3.9700	3.9695	0.8812	25.61	0.59	0.750			
0.2342	14987.68	3.9670	3.9671	0.8871	25.61	0.59	0.750			
0.2368	15155.95	3.9640	3.9641	0.8862	25.61	0.59	0.750			
0.2395	15327.94	3.9610	3.9611	0.8936	25.62	0.60	0.750			
0.2422	15500.99	3.9580	3.9580	0.8896	25.62	0.60	0.750			
0.2449	15673.98	3.9550	3.9551	0.8961	25.62	0.60	0.750			
0.2476	15847.50	3.9520	3.9521	0.8938	25.62	0.60	0.750			
0.2502	16015.30	3.9490	3.9491	0.9105	25.62	0.60	0.750			
0.2530	16190.46	3.9460	3.9461	0.9263	25.61	0.59	0.750			
0.2558	16368.46	3.9430	3.9428	0.9306	25.61	0.59	0.750			
0.2587	16555.15	3.9400	3.9399	0.9353	25.61	0.59	0.750			
0.2616	16739.99	3.9370	3.9373	0.9390	25.61	0.59	0.750			
0.2644	16921.44	3.9340	3.9340	0.9265	25.61	0.59	0.750			
0.2672	17100.10	3.9310	3.9309	0.9193	25.61	0.59	0.750			
0.2698	17265.75	3.9280	3.9280	0.8935	25.61	0.59	0.750			
0.2725	17438.39	3.9250	3.9250	0.8923	25.61	0.59	0.750			
0.2752	17610.36	3.9220	3.9221	0.8957	25.61	0.59	0.750			
0.2778	17782.15	3.9190	3.9190	0.9015	25.61	0.59	0.750			
0.2806	17956.28	3.9160	3.9160	0.9030	25.61	0.59	0.750			
0.2833	18129.17	3.9130	3.9130	0.9029	25.61	0.59	0.750			
0.2860	18302.92	3.9100	3.9100	0.9003	25.60	0.58	0.750			
0.2887	18476.49	3.9070	3.9071	0.9014	25.60	0.58	0.750			
0.2914	18650.17	3.9040	3.9040	0.9072	25.59	0.57	0.750			
0.2941	18823.14	3.9010	3.9009	0.9027	25.59	0.57	0.750			
0.2968	18996.34	3.8980	3.8979	0.8981	25.59	0.57	0.750			
0.2995	19169.38	3.8950	3.8951	0.9007	25.58	0.56	0.750			
0.3022	19342.36	3.8920	3.8921	0.9018	25.58	0.56	0.750			
0.3049	19515.65	3.8890	3.8890	0.9016	25.57	0.55	0.750			
0.3076	19687.33	3.8860	3.8860	0.9004	25.57	0.55	0.750			
0.3103	19862.14	3.8830	3.8830	0.8900	25.56	0.54	0.750			
0.3130	20032.03	3.8800	3.8801	0.8984	25.56	0.54	0.750			
0.3157	20203.82	3.8770	3.8771	0.9011	25.55	0.53	0.750			
0.3184	20375.78	3.8740	3.8740	0.9028	25.54	0.52	0.750			
0.3211	20550.03	3.8710	3.8710	0.9078	25.54	0.52	0.750			
0.3238	20725.37	3.8680	3.8681	0.9111	25.53	0.51	0.750			
0.3266	20900.76	3.8650	3.8650	0.9176	25.52	0.50	0.750			
0.3294	21080.61	3.8620	3.8620	0.9260	25.52	0.50	0.750			
0.3321	21255.87	3.8590	3.8590	0.9133	25.51	0.49	0.750			
0.3349	21433.94	3.8560	3.8559	0.9082	25.50	0.48	0.750			
0.3376	21606.79	3.8530	3.8531	0.9106	25.49	0.47	0.750			
0.3403	21780.46	3.8500	3.8501	0.9133	25.48	0.46	0.750			
0.3430	21953.40	3.8470	3.8469	0.9237	25.47	0.45	0.750			
0.3458	22133.14	3.8440	3.8440	0.9246	25.47	0.45	0.750			
0.3486	22311.09	3.8410	3.8410	0.9392	25.46	0.44	0.750			
0.3515	22494.35	3.8380	3.8381	0.9501	25.45	0.43	0.750	0.319	0.456	
0.3544	22678.52	3.8350	3.8351	0.9620	25.44	0.42	0.750			
0.3572	22862.59	3.8320	3.8318	0.9630	25.43	0.41	0.750			
0.3601	23047.93	3.8290	3.8290	0.9664	25.42	0.40	0.750			
0.3630	23233.47	3.8260	3.8261	0.9729	25.42	0.40	0.750			
0.3660	23421.88	3.8230	3.8230	0.9813	25.41	0.39	0.750			
0.3689	23609.78	3.8200	3.8200	0.9790	25.40	0.38	0.750			
0.3719	23798.46	3.8170	3.8169	0.9882	25.39	0.37	0.750			
0.3748	23985.78	3.8140	3.8141	0.9892	25.38	0.36	0.750			
0.3778	24176.71	3.8110	3.8110	1.0011	25.37	0.35	0.750			
0.3808	24368.61	3.8080	3.8079	1.0131	25.36	0.34	0.750			
0.3839	24566.58	3.8050	3.8051	1.0136	25.35	0.33	0.750			
0.3869	24760.95	3.8020	3.8020	1.0331	25.34	0.32	0.750			
0.3900	24960.32	3.7990	3.7991	1.0560	25.33	0.31	0.750			
0.3932	25165.55	3.7960	3.7959	1.0792	25.31	0.29	0.750			
0.3964	25370.16	3.7930	3.7931	1.0819	25.31	0.29	0.750			
0.3997	25581.07	3.7900	3.7901	1.1030	25.30	0.28	0.750			
0.4031	25795.64	3.7870	3.7871	1.1199	25.29	0.27	0.750			
0.4065	26017.89	3.7840	3.7838	1.1343	25.28	0.26	0.750			
0.4099	26230.67	3.7810	3.7810	1.1417	25.27	0.25	0.750			
0.4133	26449.01	3.7780	3.7781	1.1623	25.25	0.23	0.750			
0.4168	26673.08	3.7750	3.7751	1.1901	25.24	0.22	0.750			
0.4204	26908.31	3.7720	3.7720	1.1865	25.23	0.21	0.750			
0.4240	27135.60	3.7690	3.7691	1.2268	25.22	0.20	0.750			
0.4277	27372.27	3.7660	3.7661	1.2566	25.20	0.18	0.750			
0.4315	27615.68	3.7630	3.7626	1.2894	25.19	0.17	0.750			
0.4354	27864.82	3.7600	3.7602	1.3120	25.18	0.16	0.750			
0.4394	28121.81	3.7570	3.7570	1.3423	25.17	0.15	0.750			
0.4435	28386.59	3.7540	3.7540	1.3484	25.15	0.13	0.750			
0.4477	28654.25	3.7510	3.7510	1.3525	25.14	0.12	0.750			
0.4517	28907.78	3.7480	3.7481	1.4099	25.13	0.11	0.750			
0.4559	29178.24	3.7450	3.7449	1.4423	25.12	0.10	0.750			
0.4603	29461.58	3.7420	3.7417	1.4766	25.11	0.09	0.750			
0.4648	29749.03	3.7390	3.7394	1.5270	25.09	0.07	0.750			
0.4695	30048.84	3.7360	3.7358	1.5573	25.08	0.06	0.750			
0.4743	30354.74	3.7330	3.7330	1.6146	25.06	0.04	0.750			
0.4791	30663.70	3.7300	3.7302	1.6569	25.05	0.03	0.750			
0.4840	30976.23	3.7270	3.7268	1.7012	25.03	0.01	0.750			
0.4893	31316.45	3.7240	3.7238	1.7567	25.02	-0.00	0.750			
0.4947	31659.19	3.7210	3.7207	1.8030	25.00	-0.02	0.750			
0.5002	32012.74	3.7180	3.7179	1.8507	24.99	-0.03	0.750			
0.5058	32369.57	3.7150	3.7150	1.8847	24.98	-0.04	0.750			
0.5114	32727.92	3.7120	3.7116	1.9222	24.97	-0.05	0.750			
0.5172	33099.96	3.7090	3.7088	1.9888	24.96	-0.06	0.750			
0.5232	33486.89	3.7060	3.7065	2.0783	24.94	-0.08	0.750			
0.5297	33900.37	3.7030	3.7030	2.1804	24.93	-0.09	0.750			
0.5364	34328.48	3.7000	3.7000	2.2146	24.91	-0.11	0.750			
0.5432	34765.13	3.6970	3.6969	2.2882	24.89	-0.13	0.750			
0.5500	35202.47	3.6940	3.6940	2.3074	24.89	-0.13	0.750			
0.5569	35644.32	3.6910	3.6911	2.3636	24.88	-0.14	0.750			
0.5642	36106.45	3.6880	3.6880	2.3996	24.87	-0.15	0.750			
0.5716	36579.71	3.6850	3.6848	2.4636	24.86	-0.16	0.750			
0.5789	37052.69	3.6820	3.6819	2.5271	24.85	-0.17	0.750			
0.5867	37550.76	3.6790	3.6791	2.5864	24.85	-0.17	0.750			
0.5945	38046.30	3.6760	3.6763	2.5232	24.84	-0.18	0.750			
0.6022	38540.90	3.6730	3.6730	2.4466	24.84	-0.18	0.750			
0.6095	39006.29	3.6700	3.6697	2.3424	24.84	-0.18	0.750			
0.6162	39435.51	3.6670	3.6670	2.2033	24.85	-0.17	0.750			
0.6225	39843.14	3.6640	3.6639	2.0392	24.87	-0.15	0.750			
0.6286	40229.31	3.6610	3.6607	1.9165	24.87	-0.15	0.750			
0.6340	40578.13	3.6580	3.6581	1.7598	24.88	-0.14	0.750			
0.6390	40898.90	3.6550	3.6551	1.6283	24.89	-0.13	0.750			
0.6436	41190.84	3.6520	3.6517	1.4858	24.90	-0.12	0.750			
0.6478	41461.30	3.6490	3.6490	1.3753	24.91	-0.11	0.750			
0.6518	41716.29	3.6460	3.6461	1.2886	24.91	-0.11	0.750			
0.6555	41950.69	3.6430	3.6429	1.2032	24.92	-0.10	0.750			
0.6590	42173.92	3.6400	3.6399	1.1343	24.93	-0.09	0.750			
0.6622	42378.10	3.6370	3.6371	1.0738	24.93	-0.09	0.750			
0.6653	42577.80	3.6340	3.6340	1.0276	24.94	-0.08	0.750			
0.6683	42771.16	3.6310	3.6309	0.9891	24.95	-0.07	0.750			
0.6712	42955.10	3.6280	3.6281	0.9522	24.95	-0.07	0.750			
0.6740	43134.39	3.6250	3.6250	0.9139	24.96	-0.06	0.750			
0.6767	43309.32	3.6220	3.6220	0.8740	24.97	-0.05	0.750			
0.6793	43472.51	3.6190	3.6190	0.8367	24.97	-0.05	0.750			
0.6817	43628.62	3.6160	3.6158	0.7974	24.98	-0.04	0.750			
0.6841	43780.27	3.6130	3.6131	0.7513	24.99	-0.03	0.750			
0.6863	43920.98	3.6100	3.6103	0.7019	24.99	-0.03	0.750			
0.6883	44053.38	3.6070	3.6071	0.6453	25.00	-0.02	0.750			
0.6902	44172.19	3.6040	3.6041	0.5872	25.01	-0.01	0.750			
0.6919	44279.01	3.6010	3.6010	0.5344	25.01	-0.01	0.750			
0.6934	44374.79	3.5980	3.5980	0.4754	25.02	-0.00	0.750			
0.6947	44459.42	3.5950	3.5950	0.4246	25.02	0.00	0.750			
0.6959	44537.18	3.5920	3.5921	0.3793	25.02	0.00	0.750			
0.6970	44606.10	3.5890	3.5889	0.3301	25.03	0.01	0.750			
0.6979	44665.40	3.5860	3.5859	0.2820	25.03	0.01	0.750			
0.6987	44714.35	3.5830	3.5831	0.2300	25.03	0.01	0.750			
0.6993	44753.67	3.5800	3.5802	0.1801	25.04	0.02	0.750			
0.6998	44785.31	3.5770	3.5773	0.1216	25.04	0.02	0.750			
0.7000	44803.00	3.5740	3.5747	0.0644	25.04	0.02	0.750			
