Ah_balance (normalized)	Ah_balance (mAh)	Voltage - fit (V)	Voltage -  interpolate (V)	dQ/dV (1/V)	Temperature (°C)	Temperature - diff (°C)	Current (C)	R_DC 0ms (mOhm)	R_DC 50ms (mOhm)	R_DC 50 ms PEC (mOhm)
0.0472	3021.52	4.1980	4.1979	0.7546	25.73	0.55	0.750			
0.0495	3165.10	4.1950	4.1951	0.7501	25.73	0.55	0.750			
0.0517	3310.49	4.1920	4.1920	0.7518	25.73	0.55	0.750			
0.0540	3454.28	4.1890	4.1890	0.7539	25.73	0.55	0.750			
0.0562	3598.67	4.1860	4.1860	0.7599	25.73	0.55	0.750			
0.0585	3744.84	4.1830	4.1830	0.7612	25.73	0.55	0.750			
0.0608	3891.87	4.1800	4.1800	0.7620	25.73	0.55	0.750			
0.0631	4038.65	4.1770	4.1771	0.7647	25.73	0.55	0.750			
0.0654	4185.32	4.1740	4.1740	0.7630	25.73	0.55	0.750			
0.0677	4331.95	4.1710	4.1709	0.7651	25.73	0.55	0.750			
0.0700	4477.80	4.1680	4.1680	0.7663	25.73	0.55	0.750			
0.0723	4625.13	4.1650	4.1647	0.7658	25.73	0.55	0.750			
0.0746	4773.91	4.1620	4.1620	0.7686	25.73	0.55	0.750			
0.0769	4921.37	4.1590	4.1592	0.7684	25.73	0.55	0.750			
0.0792	5067.58	4.1560	4.1560	0.7722	25.73	0.55	0.750			
0.0815	5216.65	4.1530	4.1529	0.7757	25.73	0.55	0.750			
0.0838	5364.47	4.1500	4.1500	0.7733	25.73	0.55	0.750			
0.0861	5513.04	4.1470	4.1470	0.7774	25.73	0.55	0.750			
0.0885	5666.21	4.1440	4.1441	0.7791	25.74	0.56	0.750			
0.0909	5814.79	4.1410	4.1410	0.7788	25.74	0.56	0.750			
0.0932	5963.14	4.1380	4.1380	0.7794	25.74	0.56	0.750			
0.0955	6111.76	4.1350	4.1351	0.7823	25.75	0.57	0.750			
0.0979	6262.78	4.1320	4.1319	0.7845	25.75	0.57	0.750			
0.1002	6414.41	4.1290	4.1290	0.7857	25.75	0.57	0.750			
0.1026	6566.90	4.1260	4.1260	0.7761	25.75	0.57	0.750			
0.1049	6713.24	4.1230	4.1231	0.7811	25.75	0.57	0.750			
0.1072	6861.19	4.1200	4.1201	0.7784	25.75	0.57	0.750			
0.1095	7010.67	4.1170	4.1164	0.7833	25.75	0.57	0.750			
0.1119	7160.05	4.1140	4.1142	0.7887	25.75	0.57	0.750			
0.1143	7314.61	4.1110	4.1111	0.7954	25.75	0.57	0.750			
0.1167	7470.95	4.1080	4.1080	0.8057	25.75	0.57	0.750			
0.1191	7624.20	4.1050	4.1050	0.7972	25.75	0.57	0.750			
0.1215	7778.18	4.1020	4.1020	0.7988	25.75	0.57	0.750			
0.1240	7932.92	4.0990	4.0990	0.7995	25.75	0.57	0.750			
0.1264	8086.86	4.0960	4.0960	0.7940	25.75	0.57	0.750			
0.1287	8236.50	4.0930	4.0931	0.7969	25.76	0.58	0.750			
0.1311	8389.66	4.0900	4.0900	0.8031	25.76	0.58	0.750			
0.1335	8542.91	4.0870	4.0870	0.8046	25.76	0.58	0.750			
0.1359	8698.84	4.0840	4.0840	0.8093	25.76	0.58	0.750			
0.1384	8857.42	4.0810	4.0811	0.8088	25.76	0.58	0.750			
0.1408	9011.57	4.0780	4.0780	0.8145	25.76	0.58	0.750			
0.1433	9168.24	4.0750	4.0750	0.8170	25.77	0.59	0.750			
0.1457	9323.09	4.0720	4.0720	0.8181	25.77	0.59	0.750			
0.1481	9479.45	4.0690	4.0691	0.8237	25.77	0.59	0.750			
0.1506	9639.72	4.0660	4.0661	0.8261	25.77	0.59	0.750			
0.1531	9800.32	4.0630	4.0630	0.8316	25.77	0.59	0.750			
0.1556	9960.45	4.0600	4.0600	0.8311	25.77	0.59	0.750			
0.1581	10117.95	4.0570	4.0571	0.8279	25.77	0.59	0.750			
0.1606	10277.57	4.0540	4.0540	0.8327	25.77	0.59	0.750			
0.1631	10437.75	4.0510	4.0510	0.8336	25.77	0.59	0.750			
0.1656	10597.33	4.0480	4.0480	0.8388	25.77	0.59	0.750			
0.1681	10759.53	4.0450	4.0450	0.8426	25.78	0.60	0.750			
0.1707	10922.37	4.0420	4.0420	0.8428	25.78	0.60	0.750			
0.1732	11084.64	4.0390	4.0391	0.8462	25.78	0.60	0.750			
0.1758	11248.93	4.0360	4.0360	0.8372	25.78	0.60	0.750			
0.1782	11407.85	4.0330	4.0329	0.8412	25.78	0.60	0.750			
0.1807	11567.80	4.0300	4.0301	0.8460	25.79	0.61	0.750			
0.1833	11729.53	4.0270	4.0271	0.8517	25.79	0.61	0.750			
0.1859	11894.52	4.0240	4.0241	0.8571	25.79	0.61	0.750			
0.1884	12060.75	4.0210	4.0211	0.8572	25.79	0.61	0.750			
0.1910	12225.35	4.0180	4.0180	0.8629	25.79	0.61	0.750			
0.1936	12392.78	4.0150	4.0150	0.8667	25.79	0.61	0.750			
0.1962	12557.21	4.0120	4.0120	0.8645	25.79	0.61	0.750			
0.1988	12724.10	4.0090	4.0090	0.8695	25.79	0.61	0.750			
0.2015	12892.92	4.0060	4.0060	0.8665	25.80	0.62	0.750			
0.2040	13058.75	4.0030	4.0030	0.8723	25.80	0.62	0.750			
0.2066	13225.17	4.0000	4.0001	0.8754	25.81	0.63	0.750			
0.2093	13393.76	3.9970	3.9967	0.8785	25.81	0.63	0.750			
0.2119	13562.96	3.9940	3.9940	0.8850	25.81	0.63	0.750			
0.2146	13733.16	3.9910	3.9911	0.8865	25.81	0.63	0.750			
0.2173	13905.56	3.9880	3.9880	0.8945	25.81	0.63	0.750			
0.2200	14077.12	3.9850	3.9850	0.8906	25.81	0.63	0.750			
0.2226	14248.36	3.9820	3.9821	0.8915	25.81	0.63	0.750			
0.2253	14419.93	3.9790	3.9791	0.8886	25.81	0.63	0.750			
0.2280	14590.77	3.9760	3.9761	0.8932	25.82	0.64	0.750			
0.2307	14762.35	3.9730	3.9730	0.8955	25.82	0.64	0.750			
0.2333	14932.50	3.9700	3.9701	0.8943	25.83	0.65	0.750			
0.2360	15104.96	3.9670	3.9670	0.9040	25.83	0.65	0.750			
0.2388	15280.04	3.9640	3.9640	0.9072	25.84	0.66	0.750			
0.2415	15455.47	3.9610	3.9610	0.9100	25.84	0.66	0.750			
0.2442	15631.23	3.9580	3.9580	0.9146	25.85	0.67	0.750			
0.2470	15806.04	3.9550	3.9548	0.9094	25.85	0.67	0.750			
0.2497	15983.14	3.9520	3.9520	0.9033	25.85	0.67	0.750			
0.2524	16153.52	3.9490	3.9490	0.9072	25.85	0.67	0.750			
0.2551	16325.72	3.9460	3.9461	0.9091	25.85	0.67	0.750			
0.2578	16500.41	3.9430	3.9431	0.9202	25.85	0.67	0.750			
0.2606	16676.35	3.9400	3.9398	0.9263	25.85	0.67	0.750			
0.2634	16856.57	3.9370	3.9371	0.9242	25.86	0.68	0.750			
0.2662	17037.03	3.9340	3.9340	0.9309	25.86	0.68	0.750			
0.2690	17216.05	3.9310	3.9311	0.9328	25.86	0.68	0.750			
0.2718	17393.96	3.9280	3.9278	0.9265	25.87	0.69	0.750			
0.2746	17573.13	3.9250	3.9250	0.9199	25.87	0.69	0.750			
0.2773	17748.47	3.9220	3.9221	0.9212	25.87	0.69	0.750			
0.2801	17925.01	3.9190	3.9190	0.9273	25.87	0.69	0.750			
0.2829	18104.04	3.9160	3.9160	0.9339	25.87	0.69	0.750			
0.2856	18281.15	3.9130	3.9131	0.9310	25.87	0.69	0.750			
0.2885	18463.79	3.9100	3.9099	0.9104	25.87	0.69	0.750			
0.2912	18637.82	3.9070	3.9071	0.9289	25.87	0.69	0.750			
0.2940	18816.08	3.9040	3.9042	0.9324	25.87	0.69	0.750			
0.2968	18993.43	3.9010	3.9006	0.9340	25.87	0.69	0.750			
0.2996	19172.89	3.8980	3.8982	0.9381	25.87	0.69	0.750			
0.3024	19352.55	3.8950	3.8952	0.9432	25.87	0.69	0.750			
0.3053	19536.54	3.8920	3.8921	0.9520	25.86	0.68	0.750			
0.3082	19722.12	3.8890	3.8890	0.9420	25.86	0.68	0.750			
0.3110	19903.89	3.8860	3.8859	0.9454	25.86	0.68	0.750			
0.3139	20087.13	3.8830	3.8831	0.9418	25.86	0.68	0.750			
0.3166	20265.50	3.8800	3.8801	0.9475	25.85	0.67	0.750			
0.3195	20447.24	3.8770	3.8770	0.9512	25.85	0.67	0.750			
0.3223	20629.68	3.8740	3.8737	0.9570	25.85	0.67	0.750			
0.3252	20815.19	3.8710	3.8711	0.9520	25.84	0.66	0.750			
0.3281	20997.50	3.8680	3.8681	0.9603	25.84	0.66	0.750			
0.3310	21183.91	3.8650	3.8651	0.9648	25.83	0.65	0.750			
0.3339	21368.18	3.8620	3.8619	0.9609	25.82	0.64	0.750			
0.3368	21553.97	3.8590	3.8590	0.9534	25.82	0.64	0.750			
0.3396	21736.07	3.8560	3.8561	0.9622	25.81	0.63	0.750			
0.3425	21920.74	3.8530	3.8531	0.9666	25.80	0.62	0.750			
0.3455	22109.35	3.8500	3.8500	0.9722	25.79	0.61	0.750			
0.3483	22292.04	3.8470	3.8471	0.9679	25.79	0.61	0.750			
0.3512	22478.07	3.8440	3.8441	0.9724	25.78	0.60	0.750			
0.3541	22664.51	3.8410	3.8411	0.9707	25.77	0.59	0.750			
0.3570	22848.97	3.8380	3.8381	0.9834	25.77	0.59	0.750			
0.3599	23036.65	3.8350	3.8347	0.9862	25.76	0.58	0.750			
0.3629	23227.92	3.8320	3.8323	0.9887	25.75	0.57	0.750	0.301	0.410	
0.3659	23418.40	3.8290	3.8292	1.0014	25.74	0.56	0.750			
0.3689	23612.41	3.8260	3.8262	1.0155	25.73	0.55	0.750			
0.3720	23808.50	3.8230	3.8225	1.0210	25.72	0.54	0.750			
0.3751	24004.52	3.8200	3.8200	1.0100	25.71	0.53	0.750			
0.3781	24200.43	3.8170	3.8171	1.0188	25.70	0.52	0.750			
0.3812	24398.47	3.8140	3.8142	1.0321	25.69	0.51	0.750			
0.3843	24597.85	3.8110	3.8107	1.0438	25.68	0.50	0.750			
0.3874	24793.31	3.8080	3.8079	1.0248	25.67	0.49	0.750			
0.3905	24989.44	3.8050	3.8051	1.0357	25.66	0.48	0.750			
0.3936	25189.78	3.8020	3.8021	1.0485	25.64	0.46	0.750			
0.3967	25390.75	3.7990	3.7987	1.0606	25.63	0.45	0.750			
0.3999	25594.84	3.7960	3.7961	1.0681	25.62	0.44	0.750			
0.4031	25799.33	3.7930	3.7931	1.0867	25.61	0.43	0.750			
0.4064	26010.39	3.7900	3.7901	1.1122	25.60	0.42	0.750			
0.4098	26229.85	3.7870	3.7867	1.1350	25.59	0.41	0.750			
0.4132	26445.13	3.7840	3.7840	1.1457	25.58	0.40	0.750			
0.4167	26668.48	3.7810	3.7811	1.1680	25.57	0.39	0.750			
0.4202	26895.06	3.7780	3.7780	1.1885	25.56	0.38	0.750			
0.4238	27124.39	3.7750	3.7750	1.2014	25.54	0.36	0.750			
0.4274	27354.21	3.7720	3.7721	1.2235	25.53	0.35	0.750			
0.4311	27591.33	3.7690	3.7690	1.2527	25.52	0.34	0.750			
0.4350	27841.65	3.7660	3.7659	1.2559	25.51	0.33	0.750			
0.4387	28079.47	3.7630	3.7631	1.2955	25.50	0.32	0.750			
0.4427	28329.80	3.7600	3.7602	1.3281	25.48	0.30	0.750			
0.4467	28588.19	3.7570	3.7565	1.3531	25.47	0.29	0.750			
0.4508	28850.89	3.7540	3.7542	1.3858	25.46	0.28	0.750			
0.4550	29119.07	3.7510	3.7511	1.4069	25.45	0.27	0.750			
0.4593	29394.09	3.7480	3.7478	1.4334	25.43	0.25	0.750			
0.4637	29675.18	3.7450	3.7450	1.4497	25.41	0.23	0.750			
0.4681	29955.23	3.7420	3.7421	1.4911	25.40	0.22	0.750			
0.4726	30245.03	3.7390	3.7388	1.5297	25.38	0.20	0.750			
0.4772	30539.05	3.7360	3.7363	1.5753	25.37	0.19	0.750			
0.4819	30842.53	3.7330	3.7333	1.6366	25.36	0.18	0.750			
0.4869	31163.61	3.7300	3.7300	1.6988	25.34	0.16	0.750			
0.4922	31499.95	3.7270	3.7269	1.7405	25.32	0.14	0.750			
0.4976	31847.05	3.7240	3.7237	1.7918	25.30	0.12	0.750			
0.5030	32191.12	3.7210	3.7209	1.8507	25.29	0.11	0.750			
0.5085	32546.16	3.7180	3.7180	1.8852	25.27	0.09	0.750			
0.5143	32912.31	3.7150	3.7150	1.8967	25.25	0.07	0.750			
0.5200	33277.38	3.7120	3.7121	1.9726	25.23	0.05	0.750			
0.5260	33661.74	3.7090	3.7089	2.0153	25.21	0.03	0.750			
0.5321	34055.95	3.7060	3.7057	2.0755	25.19	0.01	0.750			
0.5384	34459.86	3.7030	3.7034	2.1468	25.17	-0.01	0.750			
0.5450	34882.39	3.7000	3.7002	2.2043	25.16	-0.02	0.750			
0.5518	35316.37	3.6970	3.6969	2.2509	25.14	-0.04	0.750			
0.5588	35760.71	3.6940	3.6939	2.3370	25.13	-0.05	0.750			
0.5656	36201.32	3.6910	3.6909	2.4173	25.12	-0.06	0.750			
0.5731	36676.10	3.6880	3.6879	2.4689	25.10	-0.08	0.750			
0.5806	37159.77	3.6850	3.6850	2.5502	25.09	-0.09	0.750			
0.5883	37652.83	3.6820	3.6817	2.5932	25.07	-0.11	0.750			
0.5964	38168.00	3.6790	3.6788	2.6693	25.06	-0.12	0.750			
0.6043	38675.12	3.6760	3.6760	2.7494	25.06	-0.12	0.750			
0.6126	39209.31	3.6730	3.6729	2.8014	25.06	-0.12	0.750			
0.6213	39764.06	3.6700	3.6701	2.7831	25.04	-0.14	0.750			
0.6296	40295.49	3.6670	3.6671	2.6812	25.04	-0.14	0.750			
0.6376	40807.81	3.6640	3.6636	2.5021	25.04	-0.14	0.750			
0.6448	41268.30	3.6610	3.6608	2.3414	25.04	-0.14	0.750			
0.6514	41689.48	3.6580	3.6583	2.1145	25.05	-0.13	0.750			
0.6576	42085.39	3.6550	3.6551	1.9605	25.06	-0.12	0.750			
0.6631	42435.47	3.6520	3.6517	1.7776	25.07	-0.11	0.750			
0.6682	42765.88	3.6490	3.6491	1.6387	25.07	-0.11	0.750			
0.6729	43067.04	3.6460	3.6461	1.5000	25.08	-0.10	0.750			
0.6771	43332.94	3.6430	3.6431	1.3587	25.09	-0.09	0.750			
0.6809	43574.70	3.6400	3.6401	1.2338	25.09	-0.09	0.750			
0.6844	43799.96	3.6370	3.6368	1.1501	25.10	-0.08	0.750			
0.6876	44006.23	3.6340	3.6340	1.0667	25.10	-0.08	0.750			
0.6906	44201.01	3.6310	3.6310	1.0194	25.10	-0.08	0.750			
0.6936	44387.93	3.6280	3.6281	0.9820	25.11	-0.07	0.750			
0.6964	44572.66	3.6250	3.6249	0.9539	25.11	-0.07	0.750			
0.6993	44753.24	3.6220	3.6220	0.9319	25.12	-0.06	0.750			
0.7021	44932.25	3.6190	3.6190	0.8995	25.13	-0.05	0.750			
0.7048	45109.61	3.6160	3.6159	0.8541	25.13	-0.05	0.750			
0.7073	45268.87	3.6130	3.6131	0.8118	25.14	-0.04	0.750			
0.7097	45420.16	3.6100	3.6093	0.7594	25.15	-0.03	0.750			
0.7119	45560.59	3.6070	3.6072	0.7004	25.16	-0.02	0.750			
0.7139	45690.00	3.6040	3.6044	0.6425	25.16	-0.02	0.750			
0.7157	45807.88	3.6010	3.6011	0.5812	25.16	-0.02	0.750			
0.7174	45915.76	3.5980	3.5980	0.5231	25.17	-0.01	0.750			
0.7189	46007.91	3.5950	3.5950	0.4588	25.17	-0.01	0.750			
0.7201	46088.48	3.5920	3.5920	0.3957	25.18	-0.00	0.750			
0.7212	46159.40	3.5890	3.5890	0.3425	25.18	-0.00	0.750			
0.7222	46219.92	3.5860	3.5857	0.2896	25.18	0.00	0.750			
0.7230	46270.18	3.5830	3.5830	0.2373	25.18	0.00	0.750			
0.7236	46311.08	3.5800	3.5802	0.1860	25.18	0.00	0.750			
0.7241	46342.21	3.5770	3.5774	0.1327	25.18	0.00	0.750			
0.7244	46362.44	3.5740	3.5745	0.0651	25.19	0.01	0.750			
