Ah_balance (normalized)	Ah_balance (mAh)	Voltage - fit (V)	Voltage -  interpolate (V)	dQ/dV (1/V)	Temperature (°C)	Temperature - diff (°C)	Current (C)	R_DC 0ms (mOhm)	R_DC 50ms (mOhm)	R_DC 50 ms PEC (mOhm)
0.0481	3079.49	4.1970	4.1970	0.7715	25.65	0.45	0.750			
0.0504	3223.57	4.1940	4.1939	0.7567	25.65	0.45	0.750			
0.0526	3368.79	4.1910	4.1911	0.7555	25.65	0.45	0.750			
0.0549	3513.77	4.1880	4.1881	0.7521	25.65	0.45	0.750			
0.0572	3658.26	4.1850	4.1850	0.7490	25.65	0.45	0.750			
0.0594	3801.41	4.1820	4.1821	0.7480	25.65	0.45	0.750			
0.0616	3945.35	4.1790	4.1789	0.7396	25.65	0.45	0.750			
0.0638	4085.74	4.1760	4.1761	0.7465	25.65	0.45	0.750			
0.0661	4227.57	4.1730	4.1731	0.7511	25.65	0.45	0.750			
0.0683	4372.83	4.1700	4.1696	0.7572	25.65	0.45	0.750			
0.0706	4519.52	4.1670	4.1671	0.7642	25.65	0.45	0.750			
0.0729	4667.87	4.1640	4.1640	0.7677	25.65	0.45	0.750			
0.0753	4816.19	4.1610	4.1611	0.7692	25.65	0.45	0.750			
0.0776	4966.06	4.1580	4.1580	0.7746	25.65	0.45	0.750			
0.0799	5111.08	4.1550	4.1551	0.7729	25.65	0.45	0.750			
0.0822	5259.73	4.1520	4.1520	0.7733	25.65	0.45	0.750			
0.0845	5409.20	4.1490	4.1490	0.7781	25.65	0.45	0.750			
0.0869	5558.99	4.1460	4.1460	0.7722	25.65	0.45	0.750			
0.0892	5706.87	4.1430	4.1430	0.7741	25.65	0.45	0.750			
0.0915	5854.57	4.1400	4.1401	0.7765	25.65	0.45	0.750			
0.0938	6003.03	4.1370	4.1367	0.7796	25.65	0.45	0.750			
0.0961	6151.99	4.1340	4.1340	0.7825	25.65	0.45	0.750			
0.0986	6307.25	4.1310	4.1309	0.7733	25.65	0.45	0.750			
0.1009	6455.82	4.1280	4.1281	0.7808	25.65	0.45	0.750			
0.1032	6603.33	4.1250	4.1251	0.7854	25.65	0.45	0.750			
0.1055	6753.67	4.1220	4.1222	0.7846	25.65	0.45	0.750			
0.1079	6905.34	4.1190	4.1191	0.7869	25.65	0.45	0.750			
0.1102	7055.88	4.1160	4.1161	0.7913	25.65	0.45	0.750			
0.1127	7209.61	4.1130	4.1132	0.7970	25.66	0.46	0.750			
0.1151	7368.42	4.1100	4.1099	0.8032	25.66	0.46	0.750			
0.1175	7517.45	4.1070	4.1070	0.7912	25.66	0.46	0.750			
0.1198	7669.64	4.1040	4.1041	0.7895	25.66	0.46	0.750			
0.1223	7824.33	4.1010	4.1010	0.7900	25.66	0.46	0.750			
0.1246	7974.16	4.0980	4.0979	0.7957	25.66	0.46	0.750			
0.1270	8126.42	4.0950	4.0950	0.7924	25.67	0.47	0.750			
0.1294	8278.61	4.0920	4.0920	0.7962	25.67	0.47	0.750			
0.1318	8432.66	4.0890	4.0890	0.8043	25.67	0.47	0.750			
0.1342	8587.28	4.0860	4.0859	0.8031	25.67	0.47	0.750			
0.1367	8746.64	4.0830	4.0829	0.7832	25.67	0.47	0.750			
0.1389	8890.38	4.0800	4.0801	0.7959	25.67	0.47	0.750			
0.1413	9040.79	4.0770	4.0772	0.7965	25.67	0.47	0.750			
0.1437	9196.94	4.0740	4.0730	0.8097	25.67	0.47	0.750			
0.1461	9351.80	4.0710	4.0712	0.8178	25.67	0.47	0.750			
0.1486	9510.32	4.0680	4.0682	0.8200	25.68	0.48	0.750			
0.1511	9671.07	4.0650	4.0650	0.8278	25.68	0.48	0.750			
0.1536	9831.96	4.0620	4.0621	0.8193	25.69	0.49	0.750			
0.1561	9990.15	4.0590	4.0590	0.8201	25.69	0.49	0.750			
0.1586	10147.47	4.0560	4.0560	0.8266	25.69	0.49	0.750			
0.1610	10306.46	4.0530	4.0531	0.8202	25.69	0.49	0.750			
0.1635	10462.45	4.0500	4.0500	0.8237	25.69	0.49	0.750			
0.1659	10620.40	4.0470	4.0470	0.8288	25.69	0.49	0.750			
0.1684	10778.87	4.0440	4.0437	0.8356	25.69	0.49	0.750			
0.1710	10940.95	4.0410	4.0411	0.8421	25.69	0.49	0.750			
0.1735	11106.69	4.0380	4.0379	0.8327	25.69	0.49	0.750			
0.1760	11264.18	4.0350	4.0351	0.8404	25.70	0.50	0.750			
0.1785	11425.63	4.0320	4.0321	0.8521	25.70	0.50	0.750			
0.1810	11586.79	4.0290	4.0283	0.8460	25.70	0.50	0.750			
0.1836	11750.62	4.0260	4.0262	0.8495	25.70	0.50	0.750			
0.1862	11913.64	4.0230	4.0231	0.8536	25.70	0.50	0.750			
0.1887	12079.48	4.0200	4.0202	0.8601	25.71	0.51	0.750			
0.1914	12249.06	4.0170	4.0169	0.8718	25.71	0.51	0.750			
0.1939	12410.03	4.0140	4.0139	0.8584	25.71	0.51	0.750			
0.1965	12577.46	4.0110	4.0110	0.8561	25.71	0.51	0.750			
0.1991	12742.81	4.0080	4.0080	0.8670	25.72	0.52	0.750			
0.2017	12907.86	4.0050	4.0051	0.8679	25.72	0.52	0.750			
0.2043	13074.31	4.0020	4.0020	0.8709	25.73	0.53	0.750			
0.2069	13241.20	3.9990	3.9990	0.8743	25.73	0.53	0.750			
0.2096	13411.35	3.9960	3.9961	0.8727	25.73	0.53	0.750			
0.2122	13579.31	3.9930	3.9930	0.8783	25.73	0.53	0.750			
0.2148	13747.95	3.9900	3.9900	0.8815	25.73	0.53	0.750			
0.2174	13916.13	3.9870	3.9871	0.8803	25.73	0.53	0.750			
0.2201	14085.29	3.9840	3.9840	0.8862	25.73	0.53	0.750			
0.2228	14256.58	3.9810	3.9811	0.8878	25.74	0.54	0.750			
0.2254	14428.00	3.9780	3.9781	0.8915	25.74	0.54	0.750			
0.2281	14601.55	3.9750	3.9749	0.8993	25.75	0.55	0.750			
0.2308	14771.52	3.9720	3.9718	0.8931	25.75	0.55	0.750			
0.2335	14944.61	3.9690	3.9690	0.8876	25.75	0.55	0.750			
0.2361	15113.21	3.9660	3.9660	0.8937	25.75	0.55	0.750			
0.2388	15284.82	3.9630	3.9631	0.8989	25.75	0.55	0.750			
0.2415	15458.63	3.9600	3.9601	0.9042	25.75	0.55	0.750			
0.2442	15631.72	3.9570	3.9570	0.9071	25.75	0.55	0.750			
0.2470	15810.56	3.9540	3.9540	0.8924	25.75	0.55	0.750			
0.2497	15979.63	3.9510	3.9511	0.9006	25.75	0.55	0.750			
0.2524	16150.84	3.9480	3.9481	0.9065	25.76	0.56	0.750			
0.2551	16323.21	3.9450	3.9451	0.9061	25.76	0.56	0.750			
0.2578	16497.80	3.9420	3.9421	0.9108	25.76	0.56	0.750			
0.2605	16673.97	3.9390	3.9392	0.9191	25.76	0.56	0.750			
0.2633	16853.56	3.9360	3.9360	0.9238	25.77	0.57	0.750			
0.2662	17034.00	3.9330	3.9330	0.9255	25.77	0.57	0.750			
0.2689	17208.60	3.9300	3.9301	0.9164	25.77	0.57	0.750			
0.2717	17386.39	3.9270	3.9270	0.9165	25.77	0.57	0.750			
0.2744	17562.22	3.9240	3.9240	0.9168	25.77	0.57	0.750			
0.2772	17738.31	3.9210	3.9210	0.9160	25.77	0.57	0.750			
0.2799	17913.73	3.9180	3.9180	0.9165	25.77	0.57	0.750			
0.2827	18089.74	3.9150	3.9150	0.9183	25.77	0.57	0.750			
0.2854	18266.56	3.9120	3.9120	0.9096	25.76	0.56	0.750			
0.2881	18438.31	3.9090	3.9091	0.9129	25.76	0.56	0.750			
0.2908	18613.55	3.9060	3.9061	0.9219	25.75	0.55	0.750			
0.2936	18789.77	3.9030	3.9025	0.9274	25.75	0.55	0.750			
0.2964	18969.40	3.9000	3.9001	0.9295	25.75	0.55	0.750			
0.2992	19149.01	3.8970	3.8970	0.9335	25.75	0.55	0.750			
0.3021	19331.90	3.8940	3.8941	0.9405	25.75	0.55	0.750			
0.3049	19511.60	3.8910	3.8911	0.9308	25.75	0.55	0.750			
0.3077	19690.38	3.8880	3.8880	0.9327	25.75	0.55	0.750			
0.3104	19868.36	3.8850	3.8850	0.9289	25.74	0.54	0.750			
0.3132	20046.57	3.8820	3.8820	0.9335	25.74	0.54	0.750			
0.3160	20226.79	3.8790	3.8790	0.9397	25.73	0.53	0.750			
0.3188	20405.92	3.8760	3.8757	0.9407	25.73	0.53	0.750			
0.3218	20592.27	3.8730	3.8730	0.9245	25.73	0.53	0.750			
0.3245	20767.74	3.8700	3.8700	0.9273	25.72	0.52	0.750			
0.3272	20943.50	3.8670	3.8672	0.9327	25.72	0.52	0.750			
0.3300	21122.76	3.8640	3.8641	0.9355	25.71	0.51	0.750			
0.3328	21299.77	3.8610	3.8611	0.9357	25.70	0.50	0.750			
0.3356	21479.96	3.8580	3.8582	0.9444	25.70	0.50	0.750			
0.3385	21663.49	3.8550	3.8550	0.9534	25.69	0.49	0.750			
0.3414	21850.42	3.8520	3.8520	0.9583	25.68	0.48	0.750			
0.3443	22033.82	3.8490	3.8489	0.9476	25.67	0.47	0.750			
0.3472	22218.68	3.8460	3.8461	0.9317	25.66	0.46	0.750			
0.3499	22395.07	3.8430	3.8431	0.9447	25.66	0.46	0.750			
0.3527	22569.95	3.8400	3.8401	0.9110	25.66	0.46	0.750			
0.3552	22732.73	3.8370	3.8373	0.9256	25.65	0.45	0.750			
0.3579	22907.09	3.8340	3.8346	0.9646	25.64	0.44	0.750	0.279	0.411	
0.3609	23095.42	3.8310	3.8318	0.9758	25.64	0.44	0.750			
0.3639	23289.32	3.8280	3.8286	1.0074	25.63	0.43	0.750			
0.3671	23496.87	3.8250	3.8254	1.0337	25.62	0.42	0.750			
0.3703	23698.77	3.8220	3.8222	1.0286	25.60	0.40	0.750			
0.3732	23887.90	3.8190	3.8191	0.9918	25.59	0.39	0.750			
0.3763	24080.50	3.8160	3.8161	1.0027	25.58	0.38	0.750			
0.3793	24277.77	3.8130	3.8129	1.0183	25.57	0.37	0.750			
0.3823	24469.37	3.8100	3.8101	1.0141	25.56	0.36	0.750			
0.3854	24664.79	3.8070	3.8071	1.0205	25.55	0.35	0.750			
0.3884	24859.93	3.8040	3.8040	1.0388	25.54	0.34	0.750			
0.3916	25061.12	3.8010	3.8010	1.0539	25.54	0.34	0.750			
0.3947	25263.67	3.7980	3.7981	1.0644	25.53	0.33	0.750			
0.3979	25468.35	3.7950	3.7952	1.0629	25.51	0.31	0.750			
0.4011	25671.13	3.7920	3.7922	1.0877	25.50	0.30	0.750			
0.4044	25882.26	3.7890	3.7891	1.1077	25.49	0.29	0.750			
0.4077	26092.71	3.7860	3.7862	1.1161	25.48	0.28	0.750			
0.4111	26310.98	3.7830	3.7832	1.1373	25.47	0.27	0.750			
0.4146	26534.69	3.7800	3.7801	1.1682	25.46	0.26	0.750			
0.4182	26765.88	3.7770	3.7769	1.1764	25.45	0.25	0.750			
0.4217	26987.85	3.7740	3.7740	1.1860	25.44	0.24	0.750			
0.4252	27215.91	3.7710	3.7711	1.2140	25.42	0.22	0.750			
0.4289	27451.74	3.7680	3.7680	1.2451	25.41	0.21	0.750			
0.4327	27692.71	3.7650	3.7651	1.2547	25.40	0.20	0.750			
0.4365	27934.32	3.7620	3.7622	1.2887	25.39	0.19	0.750			
0.4404	28182.51	3.7590	3.7591	1.3181	25.38	0.18	0.750			
0.4444	28439.80	3.7560	3.7556	1.3582	25.37	0.17	0.750			
0.4484	28700.54	3.7530	3.7532	1.3857	25.35	0.15	0.750			
0.4528	28976.52	3.7500	3.7501	1.4040	25.34	0.14	0.750			
0.4571	29252.00	3.7470	3.7470	1.4502	25.33	0.13	0.750			
0.4615	29534.40	3.7440	3.7440	1.4396	25.32	0.12	0.750			
0.4658	29814.35	3.7410	3.7410	1.4654	25.31	0.11	0.750			
0.4703	30100.08	3.7380	3.7380	1.4924	25.29	0.09	0.750			
0.4748	30389.83	3.7350	3.7350	1.5239	25.28	0.08	0.750			
0.4793	30676.58	3.7320	3.7324	1.5991	25.27	0.07	0.750			
0.4842	30989.23	3.7290	3.7294	1.6623	25.25	0.05	0.750			
0.4892	31307.53	3.7260	3.7266	1.7411	25.23	0.03	0.750			
0.4947	31661.58	3.7230	3.7230	1.7688	25.22	0.02	0.750			
0.5002	32010.61	3.7200	3.7197	1.8125	25.20	0.00	0.750			
0.5056	32359.73	3.7170	3.7169	1.8506	25.19	-0.01	0.750			
0.5113	32723.53	3.7140	3.7143	1.8802	25.18	-0.02	0.750			
0.5169	33082.45	3.7110	3.7114	1.9488	25.16	-0.04	0.750			
0.5229	33466.75	3.7080	3.7080	2.0336	25.15	-0.05	0.750			
0.5291	33865.30	3.7050	3.7045	2.0566	25.13	-0.07	0.750			
0.5353	34258.51	3.7020	3.7024	2.1444	25.11	-0.09	0.750			
0.5420	34690.37	3.6990	3.6992	2.1772	25.10	-0.10	0.750			
0.5487	35117.61	3.6960	3.6964	2.2457	25.09	-0.11	0.750			
0.5556	35558.81	3.6930	3.6927	2.2821	25.07	-0.13	0.750			
0.5626	36006.48	3.6900	3.6902	2.3980	25.06	-0.14	0.750			
0.5698	36465.04	3.6870	3.6867	2.4968	25.05	-0.15	0.750			
0.5772	36943.73	3.6840	3.6843	2.5789	25.04	-0.16	0.750			
0.5852	37450.30	3.6810	3.6813	2.6175	25.04	-0.16	0.750			
0.5931	37960.30	3.6780	3.6778	2.5947	25.04	-0.16	0.750			
0.6013	38483.08	3.6750	3.6752	2.7379	25.03	-0.17	0.750			
0.6093	38995.15	3.6720	3.6723	2.7575	25.03	-0.17	0.750			
0.6175	39520.91	3.6690	3.6690	2.5364	25.04	-0.16	0.750			
0.6252	40010.63	3.6660	3.6663	2.4339	25.04	-0.16	0.750			
0.6322	40457.86	3.6630	3.6628	2.3029	25.04	-0.16	0.750			
0.6390	40895.01	3.6600	3.6605	2.1694	25.05	-0.15	0.750			
0.6456	41321.50	3.6570	3.6575	2.1196	25.06	-0.14	0.750			
0.6516	41702.38	3.6540	3.6543	1.9184	25.07	-0.13	0.750			
0.6566	42023.50	3.6510	3.6513	1.6605	25.08	-0.12	0.750			
0.6614	42326.75	3.6480	3.6482	1.5020	25.09	-0.11	0.750			
0.6656	42600.98	3.6450	3.6451	1.3999	25.10	-0.10	0.750			
0.6695	42849.22	3.6420	3.6415	1.2757	25.10	-0.10	0.750			
0.6731	43078.37	3.6390	3.6393	1.1829	25.11	-0.09	0.750			
0.6765	43296.71	3.6360	3.6362	1.1210	25.11	-0.09	0.750			
0.6798	43506.68	3.6330	3.6330	1.0700	25.12	-0.08	0.750			
0.6830	43714.25	3.6300	3.6298	1.0308	25.13	-0.07	0.750			
0.6858	43890.63	3.6270	3.6271	0.9651	25.13	-0.07	0.750			
0.6886	44070.91	3.6240	3.6241	0.9402	25.14	-0.06	0.750			
0.6914	44249.40	3.6210	3.6210	0.9145	25.15	-0.05	0.750			
0.6942	44425.76	3.6180	3.6180	0.8675	25.16	-0.04	0.750			
0.6968	44595.42	3.6150	3.6151	0.8128	25.17	-0.03	0.750			
0.6992	44748.15	3.6120	3.6121	0.7592	25.18	-0.02	0.750			
0.7013	44885.63	3.6090	3.6093	0.7136	25.18	-0.02	0.750			
0.7033	45009.40	3.6060	3.6066	0.6559	25.19	-0.01	0.750			
0.7052	45130.48	3.6030	3.6010	0.6141	25.20	-0.00	0.750			
0.7070	45246.20	3.6000	3.6004	0.5628	25.20	0.00	0.750			
0.7087	45353.92	3.5970	3.5976	0.5192	25.21	0.01	0.750			
0.7102	45455.60	3.5940	3.5940	0.4688	25.21	0.01	0.750			
0.7116	45539.97	3.5910	3.5908	0.4038	25.22	0.02	0.750			
0.7126	45603.97	3.5880	3.5881	0.3299	25.22	0.02	0.750			
0.7135	45662.66	3.5850	3.5848	0.2807	25.22	0.02	0.750			
0.7142	45711.60	3.5820	3.5822	0.2307	25.23	0.03	0.750			
0.7149	45752.21	3.5790	3.5792	0.1809	25.23	0.03	0.750			
0.7154	45783.47	3.5760	3.5762	0.1228	25.23	0.03	0.750			
0.7156	45801.14	3.5730	3.5736	0.0527	25.23	0.03	0.750			
