Ah_balance (normalized)	Ah_balance (mAh)	Voltage - fit (V)	Voltage -  interpolate (V)	dQ/dV (1/V)	Temperature (°C)	Temperature - diff (°C)	Current (C)	R_DC 0ms (mOhm)	R_DC 50ms (mOhm)	R_DC 50 ms PEC (mOhm)
0.0480	3070.67	4.1980	4.1980	0.7932	26.13	0.58	0.750			
0.0503	3219.72	4.1950	4.1950	0.7696	26.13	0.58	0.750			
0.0527	3371.14	4.1920	4.1919	0.7543	26.13	0.58	0.750			
0.0548	3506.74	4.1890	4.1890	0.7498	26.13	0.58	0.750			
0.0570	3648.44	4.1860	4.1861	0.7505	26.13	0.58	0.750			
0.0592	3791.58	4.1830	4.1827	0.7527	26.13	0.58	0.750			
0.0615	3936.89	4.1800	4.1800	0.7590	26.13	0.58	0.750			
0.0638	4086.09	4.1770	4.1772	0.7537	26.13	0.58	0.750			
0.0661	4231.12	4.1740	4.1740	0.7571	26.12	0.57	0.750			
0.0684	4376.00	4.1710	4.1711	0.7538	26.12	0.57	0.750			
0.0706	4520.90	4.1680	4.1680	0.7560	26.12	0.57	0.750			
0.0729	4665.47	4.1650	4.1650	0.7582	26.12	0.57	0.750			
0.0752	4812.02	4.1620	4.1621	0.7622	26.12	0.57	0.750			
0.0775	4960.85	4.1590	4.1590	0.7602	26.12	0.57	0.750			
0.0798	5106.23	4.1560	4.1560	0.7657	26.12	0.57	0.750			
0.0820	5249.34	4.1530	4.1531	0.7647	26.12	0.57	0.750			
0.0843	5398.05	4.1500	4.1497	0.7650	26.12	0.57	0.750			
0.0867	5546.47	4.1470	4.1471	0.7699	26.12	0.57	0.750			
0.0890	5696.18	4.1440	4.1441	0.7656	26.12	0.57	0.750			
0.0913	5843.17	4.1410	4.1410	0.7715	26.11	0.56	0.750			
0.0936	5989.30	4.1380	4.1380	0.7675	26.11	0.56	0.750			
0.0959	6136.32	4.1350	4.1351	0.7670	26.11	0.56	0.750			
0.0982	6283.02	4.1320	4.1320	0.7695	26.11	0.56	0.750			
0.1005	6433.28	4.1290	4.1291	0.7756	26.11	0.56	0.750			
0.1029	6583.17	4.1260	4.1260	0.7762	26.11	0.56	0.750			
0.1052	6732.18	4.1230	4.1230	0.7804	26.12	0.57	0.750			
0.1075	6881.74	4.1200	4.1200	0.7762	26.12	0.57	0.750			
0.1099	7030.49	4.1170	4.1170	0.7785	26.12	0.57	0.750			
0.1122	7180.86	4.1140	4.1140	0.7821	26.12	0.57	0.750			
0.1145	7330.84	4.1110	4.1111	0.7825	26.12	0.57	0.750			
0.1169	7480.87	4.1080	4.1080	0.7854	26.13	0.58	0.750			
0.1192	7631.92	4.1050	4.1050	0.7880	26.13	0.58	0.750			
0.1216	7783.00	4.1020	4.1019	0.7875	26.13	0.58	0.750			
0.1240	7935.90	4.0990	4.0990	0.7900	26.13	0.58	0.750			
0.1264	8089.63	4.0960	4.0960	0.7770	26.13	0.58	0.750			
0.1287	8236.38	4.0930	4.0930	0.7814	26.13	0.58	0.750			
0.1310	8383.32	4.0900	4.0902	0.7818	26.13	0.58	0.750			
0.1333	8533.94	4.0870	4.0871	0.7901	26.13	0.58	0.750			
0.1357	8685.29	4.0840	4.0839	0.7949	26.13	0.58	0.750			
0.1381	8840.11	4.0810	4.0811	0.8006	26.13	0.58	0.750			
0.1406	8996.89	4.0780	4.0780	0.8066	26.13	0.58	0.750			
0.1430	9152.45	4.0750	4.0750	0.8131	26.14	0.59	0.750			
0.1454	9307.09	4.0720	4.0721	0.8075	26.14	0.59	0.750			
0.1478	9462.21	4.0690	4.0690	0.8089	26.14	0.59	0.750			
0.1503	9618.63	4.0660	4.0660	0.8127	26.14	0.59	0.750			
0.1527	9775.82	4.0630	4.0630	0.8064	26.14	0.59	0.750			
0.1551	9927.92	4.0600	4.0601	0.8129	26.15	0.60	0.750			
0.1575	10083.06	4.0570	4.0571	0.8189	26.15	0.60	0.750			
0.1600	10240.28	4.0540	4.0536	0.8220	26.15	0.60	0.750			
0.1625	10399.44	4.0510	4.0511	0.8293	26.15	0.60	0.750			
0.1650	10559.60	4.0480	4.0481	0.8244	26.15	0.60	0.750			
0.1675	10719.19	4.0450	4.0451	0.8309	26.15	0.60	0.750			
0.1699	10876.47	4.0420	4.0421	0.8267	26.15	0.60	0.750			
0.1724	11035.12	4.0390	4.0385	0.8296	26.15	0.60	0.750			
0.1749	11195.53	4.0360	4.0361	0.8306	26.15	0.60	0.750			
0.1775	11356.81	4.0330	4.0331	0.8342	26.15	0.60	0.750			
0.1800	11520.25	4.0300	4.0300	0.8378	26.15	0.60	0.750			
0.1825	11678.23	4.0270	4.0271	0.8344	26.15	0.60	0.750			
0.1850	11837.21	4.0240	4.0240	0.8385	26.15	0.60	0.750			
0.1875	11998.96	4.0210	4.0210	0.8541	26.15	0.60	0.750			
0.1901	12164.87	4.0180	4.0180	0.8631	26.15	0.60	0.750			
0.1927	12332.23	4.0150	4.0150	0.8725	26.15	0.60	0.750			
0.1954	12503.15	4.0120	4.0122	0.8757	26.15	0.60	0.750			
0.1980	12672.77	4.0090	4.0090	0.8726	26.15	0.60	0.750			
0.2006	12840.69	4.0060	4.0060	0.8616	26.15	0.60	0.750			
0.2032	13004.89	4.0030	4.0030	0.8533	26.15	0.60	0.750			
0.2057	13164.64	4.0000	4.0001	0.8535	26.15	0.60	0.750			
0.2083	13329.09	3.9970	3.9970	0.8549	26.15	0.60	0.750			
0.2108	13491.26	3.9940	3.9940	0.8568	26.15	0.60	0.750			
0.2134	13656.85	3.9910	3.9910	0.8620	26.15	0.60	0.750			
0.2160	13824.56	3.9880	3.9881	0.8675	26.16	0.61	0.750			
0.2186	13992.68	3.9850	3.9850	0.8688	26.16	0.61	0.750			
0.2212	14159.53	3.9820	3.9820	0.8680	26.16	0.61	0.750			
0.2238	14325.66	3.9790	3.9790	0.8655	26.16	0.61	0.750			
0.2264	14491.90	3.9760	3.9760	0.8637	26.16	0.61	0.750			
0.2290	14656.02	3.9730	3.9730	0.8659	26.15	0.60	0.750			
0.2316	14822.28	3.9700	3.9700	0.8682	26.15	0.60	0.750			
0.2342	14989.26	3.9670	3.9669	0.8693	26.15	0.60	0.750			
0.2368	15157.55	3.9640	3.9640	0.8711	26.15	0.60	0.750			
0.2394	15324.64	3.9610	3.9610	0.8668	26.15	0.60	0.750			
0.2421	15491.39	3.9580	3.9581	0.8674	26.15	0.60	0.750			
0.2446	15656.49	3.9550	3.9550	0.8649	26.15	0.60	0.750			
0.2472	15821.90	3.9520	3.9516	0.8660	26.15	0.60	0.750			
0.2498	15989.28	3.9490	3.9491	0.8628	26.15	0.60	0.750			
0.2524	16154.98	3.9460	3.9461	0.8657	26.15	0.60	0.750			
0.2550	16322.30	3.9430	3.9430	0.8702	26.14	0.59	0.750			
0.2576	16488.25	3.9400	3.9400	0.8637	26.14	0.59	0.750			
0.2602	16654.23	3.9370	3.9371	0.8679	26.14	0.59	0.750			
0.2628	16822.07	3.9340	3.9340	0.8656	26.14	0.59	0.750			
0.2654	16988.69	3.9310	3.9311	0.8683	26.14	0.59	0.750			
0.2681	17155.86	3.9280	3.9280	0.8708	26.13	0.58	0.750			
0.2707	17323.08	3.9250	3.9251	0.8686	26.13	0.58	0.750			
0.2733	17489.36	3.9220	3.9220	0.8673	26.13	0.58	0.750			
0.2759	17657.81	3.9190	3.9191	0.8631	26.12	0.57	0.750			
0.2785	17821.38	3.9160	3.9160	0.8648	26.12	0.57	0.750			
0.2811	17988.03	3.9130	3.9130	0.8674	26.12	0.57	0.750			
0.2836	18152.39	3.9100	3.9100	0.8638	26.11	0.56	0.750			
0.2862	18318.79	3.9070	3.9071	0.8659	26.11	0.56	0.750			
0.2889	18486.43	3.9040	3.9040	0.8696	26.10	0.55	0.750			
0.2915	18653.42	3.9010	3.9010	0.8703	26.10	0.55	0.750			
0.2941	18822.56	3.8980	3.8980	0.8721	26.09	0.54	0.750			
0.2967	18987.13	3.8950	3.8949	0.8686	26.09	0.54	0.750			
0.2993	19154.57	3.8920	3.8920	0.8705	26.09	0.54	0.750			
0.3019	19321.89	3.8890	3.8890	0.8677	26.08	0.53	0.750			
0.3045	19488.74	3.8860	3.8861	0.8692	26.08	0.53	0.750			
0.3071	19654.09	3.8830	3.8831	0.8703	26.07	0.52	0.750			
0.3097	19821.71	3.8800	3.8798	0.8767	26.07	0.52	0.750			
0.3124	19991.85	3.8770	3.8769	0.8746	26.06	0.51	0.750			
0.3150	20159.19	3.8740	3.8741	0.8764	26.05	0.50	0.750			
0.3176	20328.30	3.8710	3.8710	0.8840	26.04	0.49	0.750			
0.3203	20497.78	3.8680	3.8681	0.8825	26.04	0.49	0.750			
0.3229	20667.16	3.8650	3.8651	0.8855	26.03	0.48	0.750			
0.3256	20837.55	3.8620	3.8620	0.8868	26.02	0.47	0.750			
0.3283	21008.97	3.8590	3.8590	0.8948	26.02	0.47	0.750			
0.3310	21184.31	3.8560	3.8560	0.8936	26.01	0.46	0.750			
0.3337	21354.21	3.8530	3.8529	0.8930	26.00	0.45	0.750			
0.3363	21524.94	3.8500	3.8501	0.8994	26.00	0.45	0.750			
0.3390	21697.36	3.8470	3.8470	0.9071	25.99	0.44	0.750			
0.3417	21871.07	3.8440	3.8442	0.9167	25.98	0.43	0.750	0.303	0.446	
0.3445	22048.32	3.8410	3.8411	0.9264	25.98	0.43	0.750			
0.3473	22228.35	3.8380	3.8379	0.9348	25.97	0.42	0.750			
0.3502	22412.25	3.8350	3.8350	0.9319	25.96	0.41	0.750			
0.3529	22587.61	3.8320	3.8321	0.9408	25.95	0.40	0.750			
0.3558	22768.74	3.8290	3.8291	0.9488	25.94	0.39	0.750			
0.3586	22950.57	3.8260	3.8259	0.9577	25.93	0.38	0.750			
0.3615	23136.67	3.8230	3.8231	0.9635	25.92	0.37	0.750			
0.3644	23323.46	3.8200	3.8201	0.9769	25.91	0.36	0.750			
0.3674	23512.65	3.8170	3.8170	0.9878	25.91	0.36	0.750			
0.3704	23703.79	3.8140	3.8141	0.9887	25.90	0.35	0.750			
0.3734	23894.50	3.8110	3.8110	0.9944	25.89	0.34	0.750			
0.3764	24086.56	3.8080	3.8081	1.0075	25.88	0.33	0.750			
0.3794	24279.65	3.8050	3.8050	1.0202	25.87	0.32	0.750			
0.3825	24476.88	3.8020	3.8020	1.0345	25.86	0.31	0.750			
0.3856	24680.37	3.7990	3.7990	1.0335	25.85	0.30	0.750			
0.3887	24877.43	3.7960	3.7961	1.0513	25.84	0.29	0.750			
0.3919	25080.67	3.7930	3.7931	1.0694	25.83	0.28	0.750			
0.3951	25286.55	3.7900	3.7901	1.0874	25.82	0.27	0.750			
0.3984	25495.55	3.7870	3.7870	1.0966	25.81	0.26	0.750			
0.4017	25707.38	3.7840	3.7841	1.1208	25.80	0.25	0.750			
0.4051	25926.38	3.7810	3.7810	1.1422	25.79	0.24	0.750			
0.4086	26151.26	3.7780	3.7779	1.1542	25.78	0.23	0.750			
0.4121	26372.04	3.7750	3.7751	1.1669	25.77	0.22	0.750			
0.4156	26596.63	3.7720	3.7721	1.1925	25.76	0.21	0.750			
0.4192	26827.17	3.7690	3.7690	1.2192	25.74	0.19	0.750			
0.4229	27063.89	3.7660	3.7661	1.2251	25.73	0.18	0.750			
0.4265	27298.84	3.7630	3.7631	1.2578	25.72	0.17	0.750			
0.4303	27542.13	3.7600	3.7601	1.2948	25.71	0.16	0.750			
0.4343	27794.20	3.7570	3.7565	1.3249	25.70	0.15	0.750			
0.4383	28049.35	3.7540	3.7541	1.3563	25.69	0.14	0.750			
0.4424	28314.01	3.7510	3.7511	1.3927	25.68	0.13	0.750			
0.4469	28598.59	3.7480	3.7478	1.4044	25.67	0.12	0.750			
0.4510	28865.63	3.7450	3.7450	1.4123	25.66	0.11	0.750			
0.4553	29137.96	3.7420	3.7422	1.4394	25.64	0.09	0.750			
0.4595	29409.19	3.7390	3.7387	1.4767	25.63	0.08	0.750			
0.4639	29691.04	3.7360	3.7359	1.5169	25.62	0.07	0.750			
0.4685	29987.12	3.7330	3.7330	1.5721	25.60	0.05	0.750			
0.4734	30299.21	3.7300	3.7297	1.6319	25.59	0.04	0.750			
0.4785	30623.77	3.7270	3.7265	1.7147	25.57	0.02	0.750			
0.4837	30955.30	3.7240	3.7243	1.7588	25.55	0.00	0.750			
0.4891	31300.85	3.7210	3.7213	1.8116	25.54	-0.01	0.750			
0.4944	31642.90	3.7180	3.7184	1.8373	25.53	-0.02	0.750			
0.5000	31997.06	3.7150	3.7150	1.8794	25.51	-0.04	0.750			
0.5059	32374.73	3.7120	3.7120	1.9357	25.49	-0.06	0.750			
0.5116	32745.19	3.7090	3.7092	1.9601	25.48	-0.07	0.750			
0.5177	33132.95	3.7060	3.7062	2.0174	25.47	-0.08	0.750			
0.5239	33528.08	3.7030	3.7028	2.0765	25.46	-0.09	0.750			
0.5304	33944.91	3.7000	3.7000	2.1700	25.45	-0.10	0.750			
0.5369	34363.35	3.6970	3.6970	2.2453	25.44	-0.11	0.750			
0.5439	34807.88	3.6940	3.6942	2.2768	25.43	-0.12	0.750			
0.5506	35237.86	3.6910	3.6908	2.2862	25.41	-0.14	0.750			
0.5575	35683.02	3.6880	3.6879	2.2959	25.40	-0.15	0.750			
0.5646	36135.77	3.6850	3.6851	2.3523	25.40	-0.15	0.750			
0.5718	36593.24	3.6820	3.6821	2.2978	25.40	-0.15	0.750			
0.5788	37042.91	3.6790	3.6785	2.2885	25.40	-0.15	0.750			
0.5856	37480.39	3.6760	3.6762	2.2155	25.40	-0.15	0.750			
0.5920	37889.41	3.6730	3.6734	2.0894	25.40	-0.15	0.750			
0.5981	38277.49	3.6700	3.6699	1.9552	25.40	-0.15	0.750			
0.6040	38654.94	3.6670	3.6665	1.9081	25.41	-0.14	0.750			
0.6094	39000.42	3.6640	3.6641	1.7485	25.42	-0.13	0.750			
0.6146	39334.24	3.6610	3.6612	1.6621	25.43	-0.12	0.750			
0.6194	39638.98	3.6580	3.6582	1.5277	25.44	-0.11	0.750			
0.6237	39918.39	3.6550	3.6552	1.4183	25.44	-0.11	0.750			
0.6278	40180.04	3.6520	3.6522	1.3461	25.44	-0.11	0.750			
0.6316	40424.25	3.6490	3.6490	1.2548	25.45	-0.10	0.750			
0.6354	40663.03	3.6460	3.6457	1.1902	25.45	-0.10	0.750			
0.6388	40880.45	3.6430	3.6431	1.1238	25.46	-0.09	0.750			
0.6421	41092.31	3.6400	3.6402	1.0825	25.46	-0.09	0.750			
0.6452	41295.46	3.6370	3.6370	1.0367	25.47	-0.08	0.750			
0.6482	41486.01	3.6340	3.6340	0.9815	25.47	-0.08	0.750			
0.6512	41673.64	3.6310	3.6311	0.9234	25.48	-0.07	0.750			
0.6538	41846.05	3.6280	3.6280	0.9060	25.49	-0.06	0.750			
0.6565	42014.61	3.6250	3.6251	0.8746	25.50	-0.05	0.750			
0.6590	42177.28	3.6220	3.6219	0.8375	25.51	-0.04	0.750			
0.6615	42335.94	3.6190	3.6193	0.8107	25.52	-0.03	0.750			
0.6640	42492.95	3.6160	3.6160	0.7762	25.52	-0.03	0.750			
0.6663	42640.94	3.6130	3.6131	0.7408	25.53	-0.02	0.750			
0.6685	42781.30	3.6100	3.6100	0.6859	25.54	-0.01	0.750			
0.6705	42909.64	3.6070	3.6070	0.6438	25.54	-0.01	0.750			
0.6723	43028.79	3.6040	3.6038	0.5963	25.55	0.00	0.750			
0.6741	43139.33	3.6010	3.6011	0.5492	25.56	0.01	0.750			
0.6756	43241.27	3.5980	3.5980	0.5008	25.56	0.01	0.750			
0.6771	43334.94	3.5950	3.5950	0.4446	25.57	0.02	0.750			
0.6783	43413.74	3.5920	3.5920	0.3931	25.57	0.02	0.750			
0.6794	43482.95	3.5890	3.5890	0.3489	25.57	0.02	0.750			
0.6804	43544.81	3.5860	3.5860	0.2996	25.58	0.03	0.750			
0.6812	43597.58	3.5830	3.5833	0.2546	25.58	0.03	0.750			
0.6819	43642.50	3.5800	3.5804	0.2118	25.58	0.03	0.750			
0.6825	43679.64	3.5770	3.5776	0.1675	25.58	0.03	0.750			
0.6829	43707.75	3.5740	3.5748	0.1202	25.58	0.03	0.750			
0.6832	43724.68	3.5710	3.5730	0.0397	25.59	0.04	0.750			
