Ah_balance (normalized)	Ah_balance (mAh)	Voltage - fit (V)	Voltage -  interpolate (V)	dQ/dV (1/V)	Temperature (°C)	Temperature - diff (°C)	Current (C)	R_DC 0ms (mOhm)	R_DC 50ms (mOhm)	R_DC 50 ms PEC (mOhm)
0.0488	3123.80	4.1970	4.1971	0.7394	25.45	0.49	0.750			
0.0510	3266.91	4.1940	4.1940	0.7471	25.45	0.49	0.750			
0.0533	3411.03	4.1910	4.1910	0.7510	25.45	0.49	0.750			
0.0555	3555.01	4.1880	4.1880	0.7567	25.45	0.49	0.750			
0.0578	3701.66	4.1850	4.1850	0.7618	25.45	0.49	0.750			
0.0602	3849.62	4.1820	4.1819	0.7555	25.45	0.49	0.750			
0.0624	3995.03	4.1790	4.1790	0.7553	25.45	0.49	0.750			
0.0647	4138.03	4.1760	4.1762	0.7567	25.45	0.49	0.750			
0.0669	4282.96	4.1730	4.1731	0.7599	25.45	0.49	0.750			
0.0692	4428.71	4.1700	4.1700	0.7599	25.45	0.49	0.750			
0.0715	4574.77	4.1670	4.1670	0.7600	25.45	0.49	0.750			
0.0738	4722.21	4.1640	4.1641	0.7637	25.45	0.49	0.750			
0.0761	4870.03	4.1610	4.1610	0.7648	25.45	0.49	0.750			
0.0784	5016.49	4.1580	4.1580	0.7595	25.45	0.49	0.750			
0.0806	5161.00	4.1550	4.1549	0.7630	25.45	0.49	0.750			
0.0829	5306.53	4.1520	4.1521	0.7650	25.45	0.49	0.750			
0.0852	5455.64	4.1490	4.1489	0.7629	25.46	0.50	0.750			
0.0875	5602.72	4.1460	4.1461	0.7669	25.46	0.50	0.750			
0.0898	5748.72	4.1430	4.1431	0.7705	25.46	0.50	0.750			
0.0921	5895.91	4.1400	4.1400	0.7723	25.47	0.51	0.750			
0.0944	6044.56	4.1370	4.1370	0.7744	25.47	0.51	0.750			
0.0968	6193.16	4.1340	4.1340	0.7748	25.47	0.51	0.750			
0.0991	6344.04	4.1310	4.1311	0.7728	25.47	0.51	0.750			
0.1014	6492.24	4.1280	4.1280	0.7738	25.47	0.51	0.750			
0.1037	6638.59	4.1250	4.1251	0.7727	25.47	0.51	0.750			
0.1060	6786.23	4.1220	4.1215	0.7788	25.47	0.51	0.750			
0.1084	6936.09	4.1190	4.1190	0.7829	25.47	0.51	0.750			
0.1108	7088.77	4.1160	4.1160	0.7821	25.47	0.51	0.750			
0.1131	7241.10	4.1130	4.1130	0.7870	25.48	0.52	0.750			
0.1155	7392.82	4.1100	4.1101	0.7921	25.48	0.52	0.750			
0.1178	7540.41	4.1070	4.1069	0.7845	25.48	0.52	0.750			
0.1202	7690.69	4.1040	4.1040	0.7889	25.48	0.52	0.750			
0.1225	7842.06	4.1010	4.1010	0.7886	25.49	0.53	0.750			
0.1249	7995.12	4.0980	4.0980	0.7934	25.50	0.54	0.750			
0.1273	8150.39	4.0950	4.0950	0.7993	25.50	0.54	0.750			
0.1297	8302.24	4.0920	4.0921	0.7943	25.51	0.55	0.750			
0.1321	8454.12	4.0890	4.0891	0.7953	25.51	0.55	0.750			
0.1345	8609.46	4.0860	4.0860	0.7884	25.51	0.55	0.750			
0.1368	8757.15	4.0830	4.0830	0.7934	25.51	0.55	0.750			
0.1392	8909.36	4.0800	4.0800	0.7992	25.51	0.55	0.750			
0.1416	9062.59	4.0770	4.0771	0.8032	25.51	0.55	0.750			
0.1440	9217.40	4.0740	4.0737	0.8083	25.51	0.55	0.750			
0.1465	9375.55	4.0710	4.0712	0.8095	25.51	0.55	0.750			
0.1489	9531.88	4.0680	4.0681	0.8123	25.51	0.55	0.750			
0.1514	9688.32	4.0650	4.0650	0.8172	25.52	0.56	0.750			
0.1538	9842.66	4.0620	4.0621	0.8132	25.52	0.56	0.750			
0.1562	9998.63	4.0590	4.0588	0.8203	25.52	0.56	0.750			
0.1587	10157.47	4.0560	4.0560	0.8237	25.52	0.56	0.750			
0.1612	10317.77	4.0530	4.0530	0.8244	25.52	0.56	0.750			
0.1637	10475.64	4.0500	4.0501	0.8284	25.53	0.57	0.750			
0.1662	10634.31	4.0470	4.0470	0.8286	25.53	0.57	0.750			
0.1686	10793.11	4.0440	4.0438	0.8323	25.53	0.57	0.750			
0.1711	10953.15	4.0410	4.0410	0.8313	25.53	0.57	0.750			
0.1737	11113.84	4.0380	4.0380	0.8224	25.54	0.58	0.750			
0.1761	11271.72	4.0350	4.0351	0.8288	25.54	0.58	0.750			
0.1786	11427.55	4.0320	4.0322	0.8266	25.55	0.59	0.750			
0.1810	11585.75	4.0290	4.0281	0.8374	25.55	0.59	0.750			
0.1835	11745.46	4.0260	4.0261	0.8479	25.55	0.59	0.750			
0.1861	11911.23	4.0230	4.0231	0.8487	25.55	0.59	0.750			
0.1888	12080.11	4.0200	4.0202	0.8629	25.55	0.59	0.750			
0.1913	12243.12	4.0170	4.0171	0.8556	25.55	0.59	0.750			
0.1939	12408.33	4.0140	4.0137	0.8606	25.55	0.59	0.750			
0.1965	12576.33	4.0110	4.0110	0.8527	25.55	0.59	0.750			
0.1990	12737.95	4.0080	4.0081	0.8565	25.56	0.60	0.750			
0.2016	12903.59	4.0050	4.0051	0.8633	25.56	0.60	0.750			
0.2042	13069.04	4.0020	4.0020	0.8614	25.57	0.61	0.750			
0.2068	13234.04	3.9990	3.9990	0.8620	25.57	0.61	0.750			
0.2094	13399.13	3.9960	3.9962	0.8696	25.57	0.61	0.750			
0.2120	13567.19	3.9930	3.9931	0.8707	25.57	0.61	0.750			
0.2146	13734.72	3.9900	3.9900	0.8774	25.57	0.61	0.750			
0.2172	13901.87	3.9870	3.9871	0.8763	25.57	0.61	0.750			
0.2198	14070.07	3.9840	3.9842	0.8814	25.57	0.61	0.750			
0.2225	14241.78	3.9810	3.9810	0.8816	25.58	0.62	0.750			
0.2252	14412.68	3.9780	3.9781	0.8859	25.58	0.62	0.750			
0.2279	14584.01	3.9750	3.9751	0.8887	25.58	0.62	0.750			
0.2305	14750.73	3.9720	3.9718	0.8832	25.59	0.63	0.750			
0.2331	14920.96	3.9690	3.9690	0.8820	25.59	0.63	0.750			
0.2358	15090.55	3.9660	3.9660	0.8879	25.59	0.63	0.750			
0.2385	15262.16	3.9630	3.9630	0.8924	25.59	0.63	0.750			
0.2412	15435.02	3.9600	3.9600	0.8947	25.59	0.63	0.750			
0.2438	15604.89	3.9570	3.9570	0.8917	25.59	0.63	0.750			
0.2465	15778.67	3.9540	3.9540	0.8870	25.59	0.63	0.750			
0.2492	15947.90	3.9510	3.9510	0.8879	25.59	0.63	0.750			
0.2518	16117.85	3.9480	3.9480	0.8950	25.60	0.64	0.750			
0.2545	16288.77	3.9450	3.9451	0.8929	25.60	0.64	0.750			
0.2572	16461.02	3.9420	3.9421	0.8979	25.60	0.64	0.750			
0.2599	16633.80	3.9390	3.9391	0.8950	25.60	0.64	0.750			
0.2626	16806.05	3.9360	3.9360	0.8985	25.61	0.65	0.750			
0.2653	16979.15	3.9330	3.9330	0.9018	25.61	0.65	0.750			
0.2680	17152.42	3.9300	3.9296	0.8977	25.61	0.65	0.750			
0.2707	17325.01	3.9270	3.9270	0.8931	25.61	0.65	0.750			
0.2734	17497.98	3.9240	3.9241	0.8959	25.61	0.65	0.750			
0.2761	17669.18	3.9210	3.9210	0.8943	25.61	0.65	0.750			
0.2788	17841.08	3.9180	3.9180	0.9000	25.61	0.65	0.750			
0.2814	18010.34	3.9150	3.9150	0.8982	25.61	0.65	0.750			
0.2841	18185.57	3.9120	3.9119	0.8956	25.60	0.64	0.750			
0.2869	18359.56	3.9090	3.9090	0.9035	25.60	0.64	0.750			
0.2896	18532.01	3.9060	3.9061	0.9070	25.60	0.64	0.750			
0.2923	18705.77	3.9030	3.9032	0.9081	25.59	0.63	0.750			
0.2950	18881.07	3.9000	3.9001	0.9059	25.59	0.63	0.750			
0.2977	19054.97	3.8970	3.8970	0.9014	25.58	0.62	0.750			
0.3004	19227.90	3.8940	3.8941	0.9030	25.58	0.62	0.750			
0.3032	19403.23	3.8910	3.8911	0.9128	25.57	0.61	0.750			
0.3059	19574.73	3.8880	3.8877	0.9050	25.57	0.61	0.750			
0.3086	19749.10	3.8850	3.8850	0.9003	25.57	0.61	0.750			
0.3113	19923.01	3.8820	3.8821	0.9036	25.56	0.60	0.750			
0.3140	20098.07	3.8790	3.8791	0.9108	25.56	0.60	0.750			
0.3168	20272.63	3.8760	3.8760	0.9092	25.55	0.59	0.750			
0.3195	20444.87	3.8730	3.8730	0.9069	25.55	0.59	0.750			
0.3222	20620.15	3.8700	3.8700	0.9031	25.54	0.58	0.750			
0.3249	20793.94	3.8670	3.8670	0.9093	25.53	0.57	0.750			
0.3276	20968.83	3.8640	3.8641	0.9120	25.53	0.57	0.750			
0.3304	21143.19	3.8610	3.8607	0.9128	25.52	0.56	0.750			
0.3331	21318.03	3.8580	3.8581	0.9170	25.51	0.55	0.750			
0.3358	21494.26	3.8550	3.8550	0.9118	25.51	0.55	0.750			
0.3386	21668.80	3.8520	3.8521	0.9149	25.50	0.54	0.750			
0.3413	21844.77	3.8490	3.8491	0.9241	25.50	0.54	0.750			
0.3441	22020.11	3.8460	3.8457	0.9325	25.49	0.53	0.750			
0.3469	22200.13	3.8430	3.8431	0.9377	25.48	0.52	0.750			
0.3497	22381.51	3.8400	3.8400	0.9489	25.47	0.51	0.750			
0.3526	22566.23	3.8370	3.8372	0.9635	25.46	0.50	0.750	0.326	0.458	
0.3555	22750.17	3.8340	3.8339	0.9647	25.45	0.49	0.750			
0.3585	22944.44	3.8310	3.8309	0.9552	25.44	0.48	0.750			
0.3613	23124.97	3.8280	3.8280	0.9577	25.43	0.47	0.750			
0.3642	23306.96	3.8250	3.8252	0.9671	25.42	0.46	0.750			
0.3671	23491.92	3.8220	3.8221	0.9745	25.41	0.45	0.750			
0.3700	23677.76	3.8190	3.8190	0.9706	25.41	0.45	0.750			
0.3729	23863.33	3.8160	3.8161	0.9820	25.40	0.44	0.750			
0.3758	24053.20	3.8130	3.8131	0.9988	25.39	0.43	0.750			
0.3789	24249.28	3.8100	3.8100	1.0163	25.39	0.43	0.750			
0.3819	24443.36	3.8070	3.8070	1.0169	25.38	0.42	0.750			
0.3850	24640.43	3.8040	3.8040	1.0326	25.37	0.41	0.750			
0.3881	24840.92	3.8010	3.8010	1.0468	25.36	0.40	0.750			
0.3913	25044.77	3.7980	3.7980	1.0622	25.35	0.39	0.750			
0.3946	25252.65	3.7950	3.7949	1.0586	25.34	0.38	0.750			
0.3977	25452.99	3.7920	3.7921	1.0822	25.33	0.37	0.750			
0.4010	25661.08	3.7890	3.7890	1.1002	25.32	0.36	0.750			
0.4043	25873.82	3.7860	3.7862	1.1221	25.31	0.35	0.750			
0.4077	26091.40	3.7830	3.7831	1.1320	25.29	0.33	0.750			
0.4111	26309.09	3.7800	3.7802	1.1570	25.28	0.32	0.750			
0.4146	26533.25	3.7770	3.7770	1.1796	25.27	0.31	0.750			
0.4182	26763.89	3.7740	3.7734	1.1974	25.26	0.30	0.750			
0.4218	26992.03	3.7710	3.7711	1.2084	25.25	0.29	0.750			
0.4254	27227.62	3.7680	3.7681	1.2397	25.24	0.28	0.750			
0.4293	27477.33	3.7650	3.7649	1.2546	25.23	0.27	0.750			
0.4331	27717.09	3.7620	3.7620	1.2857	25.21	0.25	0.750			
0.4368	27957.18	3.7590	3.7591	1.3069	25.21	0.25	0.750			
0.4409	28216.13	3.7560	3.7561	1.3318	25.20	0.24	0.750			
0.4449	28474.09	3.7530	3.7529	1.3710	25.18	0.22	0.750			
0.4490	28737.78	3.7500	3.7502	1.4046	25.17	0.21	0.750			
0.4533	29013.22	3.7470	3.7471	1.4309	25.15	0.19	0.750			
0.4577	29290.68	3.7440	3.7441	1.4660	25.13	0.17	0.750			
0.4621	29571.87	3.7410	3.7411	1.4784	25.12	0.16	0.750			
0.4665	29854.54	3.7380	3.7381	1.5157	25.11	0.15	0.750			
0.4711	30152.97	3.7350	3.7349	1.5520	25.10	0.14	0.750			
0.4758	30448.35	3.7320	3.7316	1.6122	25.09	0.13	0.750			
0.4807	30763.23	3.7290	3.7288	1.6718	25.08	0.12	0.750			
0.4859	31096.75	3.7260	3.7261	1.7202	25.06	0.10	0.750			
0.4911	31428.97	3.7230	3.7234	1.7759	25.05	0.09	0.750			
0.4965	31777.99	3.7200	3.7199	1.8051	25.03	0.07	0.750			
0.5019	32121.62	3.7170	3.7170	1.8877	25.01	0.05	0.750			
0.5076	32488.33	3.7140	3.7142	1.8942	25.00	0.04	0.750			
0.5135	32863.57	3.7110	3.7110	1.9508	24.98	0.02	0.750			
0.5194	33241.79	3.7080	3.7082	2.0147	24.97	0.01	0.750			
0.5255	33632.38	3.7050	3.7054	2.0704	24.95	-0.01	0.750			
0.5319	34041.85	3.7020	3.7020	2.1180	24.94	-0.02	0.750			
0.5386	34468.37	3.6990	3.6987	2.2213	24.92	-0.04	0.750			
0.5451	34884.56	3.6960	3.6965	2.2937	24.90	-0.06	0.750			
0.5519	35322.81	3.6930	3.6931	2.3691	24.89	-0.07	0.750			
0.5594	35799.10	3.6900	3.6900	2.4276	24.88	-0.08	0.750			
0.5670	36288.59	3.6870	3.6870	2.5031	24.86	-0.10	0.750			
0.5744	36759.27	3.6840	3.6839	2.5226	24.86	-0.10	0.750			
0.5819	37239.58	3.6810	3.6811	2.5662	24.85	-0.11	0.750			
0.5898	37746.32	3.6780	3.6781	2.5676	24.84	-0.12	0.750			
0.5977	38252.76	3.6750	3.6750	2.5602	24.84	-0.12	0.750			
0.6054	38745.66	3.6720	3.6721	2.4792	24.84	-0.12	0.750			
0.6127	39210.36	3.6690	3.6694	2.3764	24.83	-0.13	0.750			
0.6195	39649.65	3.6660	3.6661	2.1902	24.82	-0.14	0.750			
0.6259	40058.17	3.6630	3.6630	2.0266	24.83	-0.13	0.750			
0.6316	40425.54	3.6600	3.6600	1.8721	24.84	-0.12	0.750			
0.6371	40775.81	3.6570	3.6571	1.7395	24.85	-0.11	0.750			
0.6421	41097.07	3.6540	3.6539	1.6111	24.86	-0.10	0.750			
0.6467	41390.57	3.6510	3.6511	1.4936	24.86	-0.10	0.750			
0.6511	41668.58	3.6480	3.6480	1.3901	24.87	-0.09	0.750			
0.6550	41918.09	3.6450	3.6450	1.2818	24.87	-0.09	0.750			
0.6587	42156.59	3.6420	3.6421	1.1977	24.87	-0.09	0.750			
0.6620	42367.86	3.6390	3.6390	1.1245	24.88	-0.08	0.750			
0.6652	42575.85	3.6360	3.6360	1.0691	24.88	-0.08	0.750			
0.6683	42774.37	3.6330	3.6325	1.0261	24.89	-0.07	0.750			
0.6713	42965.58	3.6300	3.6301	0.9774	24.90	-0.06	0.750			
0.6742	43148.66	3.6270	3.6271	0.9499	24.90	-0.06	0.750			
0.6770	43327.75	3.6240	3.6239	0.9205	24.91	-0.05	0.750			
0.6797	43500.87	3.6210	3.6211	0.8781	24.92	-0.04	0.750			
0.6823	43668.61	3.6180	3.6181	0.8418	24.92	-0.04	0.750			
0.6849	43830.94	3.6150	3.6150	0.8072	24.93	-0.03	0.750			
0.6872	43983.07	3.6120	3.6121	0.7561	24.94	-0.02	0.750			
0.6895	44125.16	3.6090	3.6090	0.7036	24.95	-0.01	0.750			
0.6914	44251.82	3.6060	3.6059	0.6426	24.95	-0.01	0.750			
0.6933	44370.49	3.6030	3.6028	0.5885	24.96	-0.00	0.750			
0.6950	44477.58	3.6000	3.6000	0.5362	24.96	0.00	0.750			
0.6965	44574.39	3.5970	3.5971	0.4828	24.97	0.01	0.750			
0.6978	44662.32	3.5940	3.5940	0.4334	24.97	0.01	0.750			
0.6991	44740.85	3.5910	3.5909	0.3842	24.98	0.02	0.750			
0.7002	44810.01	3.5880	3.5880	0.3329	24.98	0.02	0.750			
0.7011	44869.05	3.5850	3.5849	0.2825	24.98	0.02	0.750			
0.7019	44919.79	3.5820	3.5821	0.2333	24.99	0.03	0.750			
0.7025	44959.36	3.5790	3.5790	0.1800	24.99	0.03	0.750			
0.7030	44989.52	3.5760	3.5760	0.1239	24.99	0.03	0.750			
0.7032	45007.83	3.5730	3.5733	0.0629	24.99	0.03	0.750			
