Ah_balance (normalized)	Ah_balance (mAh)	Voltage - fit (V)	Voltage -  interpolate (V)	dQ/dV (1/V)	Temperature (°C)	Temperature - diff (°C)	Current (C)	R_DC 0ms (mOhm)	R_DC 50ms (mOhm)	R_DC 50 ms PEC (mOhm)
0.0475	3038.01	4.1980	4.1980	0.7372	25.43	0.38	0.750			
0.0497	3179.81	4.1950	4.1950	0.7420	25.43	0.38	0.750			
0.0519	3323.94	4.1920	4.1920	0.7498	25.43	0.38	0.750			
0.0542	3468.70	4.1890	4.1889	0.7509	25.43	0.38	0.750			
0.0565	3614.72	4.1860	4.1860	0.7471	25.43	0.38	0.750			
0.0587	3756.50	4.1830	4.1831	0.7514	25.42	0.37	0.750			
0.0609	3900.12	4.1800	4.1800	0.7549	25.42	0.37	0.750			
0.0632	4044.68	4.1770	4.1769	0.7572	25.42	0.37	0.750			
0.0655	4190.74	4.1740	4.1741	0.7617	25.42	0.37	0.750			
0.0678	4338.63	4.1710	4.1710	0.7679	25.42	0.37	0.750			
0.0701	4487.17	4.1680	4.1680	0.7636	25.42	0.37	0.750			
0.0724	4633.37	4.1650	4.1651	0.7691	25.42	0.37	0.750			
0.0747	4778.19	4.1620	4.1621	0.7691	25.42	0.37	0.750			
0.0770	4926.60	4.1590	4.1591	0.7744	25.42	0.37	0.750			
0.0793	5075.90	4.1560	4.1561	0.7773	25.42	0.37	0.750			
0.0817	5225.65	4.1530	4.1531	0.7805	25.42	0.37	0.750			
0.0840	5378.71	4.1500	4.1500	0.7845	25.42	0.37	0.750			
0.0864	5528.42	4.1470	4.1470	0.7784	25.42	0.37	0.750			
0.0887	5677.58	4.1440	4.1439	0.7788	25.42	0.37	0.750			
0.0910	5826.92	4.1410	4.1412	0.7767	25.42	0.37	0.750			
0.0934	5977.78	4.1380	4.1379	0.7708	25.42	0.37	0.750			
0.0957	6124.95	4.1350	4.1350	0.7753	25.43	0.38	0.750			
0.0980	6272.99	4.1320	4.1321	0.7747	25.43	0.38	0.750			
0.1003	6421.10	4.1290	4.1290	0.7758	25.43	0.38	0.750			
0.1027	6569.89	4.1260	4.1261	0.7770	25.43	0.38	0.750			
0.1050	6718.52	4.1230	4.1231	0.7805	25.43	0.38	0.750			
0.1073	6868.58	4.1200	4.1200	0.7790	25.43	0.38	0.750			
0.1096	7017.51	4.1170	4.1170	0.7859	25.43	0.38	0.750			
0.1120	7165.72	4.1140	4.1141	0.7868	25.43	0.38	0.750			
0.1144	7319.21	4.1110	4.1104	0.7956	25.43	0.38	0.750			
0.1168	7473.01	4.1080	4.1082	0.8022	25.43	0.38	0.750			
0.1192	7628.82	4.1050	4.1051	0.8056	25.43	0.38	0.750			
0.1217	7786.22	4.1020	4.1021	0.8117	25.43	0.38	0.750			
0.1241	7941.04	4.0990	4.0989	0.7964	25.43	0.38	0.750			
0.1265	8094.79	4.0960	4.0960	0.7991	25.43	0.38	0.750			
0.1289	8248.57	4.0930	4.0930	0.8005	25.43	0.38	0.750			
0.1313	8401.77	4.0900	4.0900	0.8008	25.43	0.38	0.750			
0.1337	8553.84	4.0870	4.0870	0.8008	25.44	0.39	0.750			
0.1360	8706.85	4.0840	4.0841	0.8049	25.44	0.39	0.750			
0.1385	8861.02	4.0810	4.0807	0.8098	25.44	0.39	0.750			
0.1409	9018.94	4.0780	4.0781	0.8144	25.44	0.39	0.750			
0.1434	9178.95	4.0750	4.0749	0.8040	25.44	0.39	0.750			
0.1458	9331.31	4.0720	4.0721	0.8160	25.45	0.40	0.750			
0.1483	9488.25	4.0690	4.0691	0.8208	25.45	0.40	0.750			
0.1507	9644.00	4.0660	4.0659	0.8211	25.45	0.40	0.750			
0.1532	9802.40	4.0630	4.0632	0.8274	25.45	0.40	0.750			
0.1557	9962.23	4.0600	4.0601	0.8304	25.45	0.40	0.750			
0.1582	10123.74	4.0570	4.0570	0.8345	25.45	0.40	0.750			
0.1607	10284.06	4.0540	4.0540	0.8267	25.45	0.40	0.750			
0.1632	10443.51	4.0510	4.0510	0.8311	25.45	0.40	0.750			
0.1657	10603.53	4.0480	4.0480	0.8353	25.45	0.40	0.750			
0.1682	10766.34	4.0450	4.0449	0.8288	25.45	0.40	0.750			
0.1707	10923.21	4.0420	4.0420	0.8368	25.46	0.41	0.750			
0.1732	11083.80	4.0390	4.0391	0.8439	25.46	0.41	0.750			
0.1757	11245.63	4.0360	4.0359	0.8495	25.46	0.41	0.750			
0.1783	11410.17	4.0330	4.0331	0.8528	25.46	0.41	0.750			
0.1809	11577.66	4.0300	4.0300	0.8453	25.46	0.41	0.750			
0.1834	11738.32	4.0270	4.0271	0.8527	25.47	0.42	0.750			
0.1860	11903.43	4.0240	4.0241	0.8620	25.47	0.42	0.750			
0.1885	12064.38	4.0210	4.0210	0.8571	25.47	0.42	0.750			
0.1911	12231.16	4.0180	4.0181	0.8628	25.47	0.42	0.750			
0.1937	12396.51	4.0150	4.0151	0.8711	25.47	0.42	0.750			
0.1964	12566.84	4.0120	4.0120	0.8786	25.48	0.43	0.750			
0.1991	12739.67	4.0090	4.0090	0.8854	25.48	0.43	0.750			
0.2017	12906.00	4.0060	4.0058	0.8740	25.48	0.43	0.750			
0.2043	13075.73	4.0030	4.0032	0.8669	25.48	0.43	0.750			
0.2069	13240.98	4.0000	4.0000	0.8694	25.49	0.44	0.750			
0.2095	13406.62	3.9970	3.9970	0.8726	25.49	0.44	0.750			
0.2121	13573.45	3.9940	3.9940	0.8774	25.50	0.45	0.750			
0.2147	13740.95	3.9910	3.9909	0.8859	25.50	0.45	0.750			
0.2175	13917.40	3.9880	3.9879	0.8712	25.50	0.45	0.750			
0.2201	14083.76	3.9850	3.9851	0.8853	25.50	0.45	0.750			
0.2227	14252.98	3.9820	3.9821	0.8900	25.51	0.46	0.750			
0.2253	14422.21	3.9790	3.9792	0.8906	25.51	0.46	0.750			
0.2280	14592.37	3.9760	3.9760	0.8963	25.51	0.46	0.750			
0.2307	14765.51	3.9730	3.9733	0.9038	25.52	0.47	0.750			
0.2335	14942.64	3.9700	3.9701	0.9106	25.52	0.47	0.750			
0.2363	15121.29	3.9670	3.9669	0.9141	25.53	0.48	0.750			
0.2390	15294.88	3.9640	3.9639	0.9029	25.53	0.48	0.750			
0.2417	15468.27	3.9610	3.9611	0.9061	25.53	0.48	0.750			
0.2444	15642.16	3.9580	3.9580	0.8968	25.53	0.48	0.750			
0.2470	15810.86	3.9550	3.9550	0.9033	25.54	0.49	0.750			
0.2497	15983.11	3.9520	3.9521	0.9092	25.54	0.49	0.750			
0.2525	16158.73	3.9490	3.9492	0.9181	25.54	0.49	0.750			
0.2553	16338.97	3.9460	3.9461	0.9025	25.54	0.49	0.750			
0.2580	16512.40	3.9430	3.9432	0.9209	25.55	0.50	0.750			
0.2608	16690.49	3.9400	3.9401	0.9257	25.55	0.50	0.750			
0.2635	16865.83	3.9370	3.9368	0.9228	25.55	0.50	0.750			
0.2663	17043.53	3.9340	3.9342	0.9301	25.55	0.50	0.750			
0.2691	17224.01	3.9310	3.9311	0.9355	25.55	0.50	0.750			
0.2720	17406.44	3.9280	3.9280	0.9389	25.56	0.51	0.750			
0.2748	17589.50	3.9250	3.9250	0.9251	25.56	0.51	0.750			
0.2776	17766.75	3.9220	3.9220	0.9255	25.56	0.51	0.750			
0.2804	17943.48	3.9190	3.9190	0.9221	25.56	0.51	0.750			
0.2831	18117.19	3.9160	3.9160	0.9242	25.57	0.52	0.750			
0.2858	18292.73	3.9130	3.9130	0.9308	25.57	0.52	0.750			
0.2887	18473.67	3.9100	3.9097	0.9338	25.57	0.52	0.750			
0.2915	18655.11	3.9070	3.9071	0.9406	25.57	0.52	0.750			
0.2943	18836.56	3.9040	3.9042	0.9290	25.57	0.52	0.750			
0.2970	19011.11	3.9010	3.9012	0.9359	25.57	0.52	0.750			
0.2998	19188.82	3.8980	3.8981	0.9368	25.57	0.52	0.750			
0.3026	19368.83	3.8950	3.8950	0.9369	25.57	0.52	0.750			
0.3055	19550.76	3.8920	3.8922	0.9513	25.58	0.53	0.750			
0.3084	19736.69	3.8890	3.8891	0.9612	25.58	0.53	0.750			
0.3114	19927.15	3.8860	3.8861	0.9679	25.59	0.54	0.750			
0.3142	20110.69	3.8830	3.8828	0.9554	25.59	0.54	0.750			
0.3171	20297.36	3.8800	3.8799	0.9428	25.58	0.53	0.750			
0.3199	20475.46	3.8770	3.8771	0.9513	25.58	0.53	0.750			
0.3228	20657.81	3.8740	3.8741	0.9585	25.58	0.53	0.750			
0.3256	20841.26	3.8710	3.8709	0.9623	25.57	0.52	0.750			
0.3285	21026.89	3.8680	3.8681	0.9672	25.57	0.52	0.750			
0.3315	21213.98	3.8650	3.8651	0.9597	25.57	0.52	0.750			
0.3343	21396.38	3.8620	3.8621	0.9691	25.56	0.51	0.750			
0.3373	21585.10	3.8590	3.8591	0.9799	25.56	0.51	0.750			
0.3401	21768.48	3.8560	3.8562	0.9730	25.56	0.51	0.750			
0.3431	21958.02	3.8530	3.8532	0.9810	25.55	0.50	0.750			
0.3461	22149.07	3.8500	3.8501	0.9909	25.54	0.49	0.750			
0.3491	22340.94	3.8470	3.8471	1.0019	25.54	0.49	0.750			
0.3521	22534.16	3.8440	3.8440	0.9897	25.53	0.48	0.750			
0.3551	22723.62	3.8410	3.8409	0.9928	25.52	0.47	0.750			
0.3579	22908.37	3.8380	3.8382	0.9817	25.51	0.46	0.750			
0.3609	23094.82	3.8350	3.8354	0.9918	25.50	0.45	0.750			
0.3638	23283.96	3.8320	3.8314	1.0050	25.49	0.44	0.750	0.325	0.408	
0.3669	23478.44	3.8290	3.8292	1.0009	25.49	0.44	0.750			
0.3699	23671.35	3.8260	3.8264	1.0153	25.48	0.43	0.750			
0.3730	23873.85	3.8230	3.8232	1.0406	25.48	0.43	0.750			
0.3762	24078.80	3.8200	3.8192	1.0526	25.47	0.42	0.750			
0.3792	24269.04	3.8170	3.8170	1.0258	25.46	0.41	0.750			
0.3823	24467.26	3.8140	3.8141	1.0343	25.46	0.41	0.750			
0.3854	24666.84	3.8110	3.8111	1.0430	25.45	0.40	0.750			
0.3886	24872.96	3.8080	3.8079	1.0539	25.44	0.39	0.750			
0.3917	25069.22	3.8050	3.8050	1.0442	25.43	0.38	0.750			
0.3948	25269.41	3.8020	3.8020	1.0524	25.42	0.37	0.750			
0.3980	25471.37	3.7990	3.7992	1.0660	25.41	0.36	0.750			
0.4012	25676.73	3.7960	3.7955	1.0789	25.40	0.35	0.750			
0.4045	25885.09	3.7930	3.7931	1.0806	25.39	0.34	0.750			
0.4077	26091.06	3.7900	3.7901	1.0973	25.38	0.33	0.750			
0.4110	26302.07	3.7870	3.7872	1.1248	25.37	0.32	0.750			
0.4144	26520.73	3.7840	3.7837	1.1466	25.36	0.31	0.750			
0.4178	26740.82	3.7810	3.7811	1.1621	25.35	0.30	0.750			
0.4214	26966.52	3.7780	3.7782	1.1879	25.34	0.29	0.750			
0.4251	27204.53	3.7750	3.7749	1.2036	25.32	0.27	0.750			
0.4287	27438.79	3.7720	3.7719	1.2338	25.31	0.26	0.750			
0.4323	27666.52	3.7690	3.7690	1.2384	25.30	0.25	0.750			
0.4360	27905.32	3.7660	3.7661	1.2678	25.29	0.24	0.750			
0.4399	28153.13	3.7630	3.7631	1.2784	25.28	0.23	0.750			
0.4437	28397.12	3.7600	3.7602	1.3080	25.27	0.22	0.750			
0.4476	28648.56	3.7570	3.7571	1.3389	25.26	0.21	0.750			
0.4517	28909.39	3.7540	3.7533	1.3789	25.25	0.20	0.750			
0.4559	29175.03	3.7510	3.7511	1.3874	25.23	0.18	0.750			
0.4601	29448.95	3.7480	3.7482	1.4233	25.22	0.17	0.750			
0.4646	29732.99	3.7450	3.7450	1.4541	25.20	0.15	0.750			
0.4691	30022.19	3.7420	3.7413	1.4875	25.19	0.14	0.750			
0.4734	30297.92	3.7390	3.7393	1.5067	25.18	0.13	0.750			
0.4780	30592.52	3.7360	3.7364	1.5639	25.17	0.12	0.750			
0.4828	30899.34	3.7330	3.7334	1.6221	25.15	0.10	0.750			
0.4877	31212.88	3.7300	3.7304	1.6498	25.14	0.09	0.750			
0.4927	31533.61	3.7270	3.7274	1.7335	25.12	0.07	0.750			
0.4982	31886.55	3.7240	3.7233	1.7832	25.11	0.06	0.750			
0.5037	32234.16	3.7210	3.7207	1.8303	25.09	0.04	0.750			
0.5093	32594.61	3.7180	3.7179	1.8561	25.08	0.03	0.750			
0.5149	32953.73	3.7150	3.7154	1.9092	25.07	0.02	0.750			
0.5208	33328.47	3.7120	3.7120	1.9382	25.05	0.00	0.750			
0.5265	33695.67	3.7090	3.7083	2.0212	25.04	-0.01	0.750			
0.5327	34094.69	3.7060	3.7061	2.1306	25.02	-0.03	0.750			
0.5393	34513.93	3.7030	3.7025	2.1567	25.00	-0.05	0.750			
0.5460	34942.95	3.7000	3.7000	2.2257	24.99	-0.06	0.750			
0.5527	35369.70	3.6970	3.6965	2.2668	24.98	-0.07	0.750			
0.5596	35811.61	3.6940	3.6940	2.2848	24.96	-0.09	0.750			
0.5663	36246.17	3.6910	3.6916	2.3965	24.94	-0.11	0.750			
0.5735	36703.63	3.6880	3.6875	2.4475	24.93	-0.12	0.750			
0.5812	37194.15	3.6850	3.6856	2.4906	24.91	-0.14	0.750			
0.5889	37689.10	3.6820	3.6821	2.6065	24.90	-0.15	0.750			
0.5973	38224.49	3.6790	3.6789	2.7330	24.90	-0.15	0.750			
0.6053	38737.77	3.6760	3.6755	2.7639	24.89	-0.16	0.750			
0.6131	39237.53	3.6730	3.6733	2.7404	24.88	-0.17	0.750			
0.6210	39743.76	3.6700	3.6696	2.7641	24.88	-0.17	0.750			
0.6297	40298.50	3.6670	3.6670	2.6790	24.88	-0.17	0.750			
0.6383	40852.52	3.6640	3.6639	2.8421	24.88	-0.17	0.750			
0.6463	41366.32	3.6610	3.6614	2.5100	24.89	-0.16	0.750			
0.6534	41818.61	3.6580	3.6574	2.3056	24.89	-0.16	0.750			
0.6597	42220.05	3.6550	3.6549	2.0428	24.90	-0.15	0.750			
0.6651	42563.80	3.6520	3.6523	1.8245	24.91	-0.14	0.750			
0.6703	42898.57	3.6490	3.6495	1.6839	24.92	-0.13	0.750			
0.6752	43212.00	3.6460	3.6463	1.5530	24.93	-0.12	0.750			
0.6797	43499.24	3.6430	3.6436	1.4221	24.93	-0.12	0.750			
0.6840	43775.54	3.6400	3.6401	1.3329	24.94	-0.11	0.750			
0.6877	44013.02	3.6370	3.6369	1.2042	24.94	-0.11	0.750			
0.6910	44225.14	3.6340	3.6339	1.1049	24.95	-0.10	0.750			
0.6940	44414.94	3.6310	3.6310	1.0233	24.96	-0.09	0.750			
0.6969	44603.13	3.6280	3.6281	0.9879	24.97	-0.08	0.750			
0.6998	44786.66	3.6250	3.6250	0.9566	24.97	-0.08	0.750			
0.7025	44961.34	3.6220	3.6221	0.9563	24.98	-0.07	0.750			
0.7054	45148.12	3.6190	3.6189	0.9409	24.99	-0.06	0.750			
0.7084	45335.83	3.6160	3.6157	0.9192	25.00	-0.05	0.750			
0.7112	45513.87	3.6130	3.6132	0.8774	25.01	-0.04	0.750			
0.7138	45682.81	3.6100	3.6095	0.8191	25.02	-0.03	0.750			
0.7162	45839.64	3.6070	3.6070	0.7396	25.03	-0.02	0.750			
0.7184	45974.62	3.6040	3.6040	0.6586	25.03	-0.02	0.750			
0.7201	46086.05	3.6010	3.6011	0.5790	25.03	-0.02	0.750			
0.7217	46189.24	3.5980	3.5982	0.5083	25.04	-0.01	0.750			
0.7231	46279.44	3.5950	3.5954	0.4506	25.04	-0.01	0.750			
0.7244	46358.94	3.5920	3.5921	0.3962	25.04	-0.01	0.750			
0.7255	46429.97	3.5890	3.5890	0.3432	25.05	-0.00	0.750			
0.7264	46491.70	3.5860	3.5859	0.2947	25.05	-0.00	0.750			
0.7272	46543.02	3.5830	3.5831	0.2401	25.05	0.00	0.750			
0.7279	46585.29	3.5800	3.5801	0.1911	25.05	0.00	0.750			
0.7284	46617.99	3.5770	3.5776	0.1376	25.05	0.00	0.750			
0.7287	46639.37	3.5740	3.5748	0.0773	25.06	0.01	0.750			
