Ah_balance (normalized)	Ah_balance (mAh)	Voltage - fit (V)	Voltage -  interpolate (V)	dQ/dV (1/V)	Temperature (°C)	Temperature - diff (°C)	Current (C)	R_DC 0ms (mOhm)	R_DC 50ms (mOhm)	R_DC 50 ms PEC (mOhm)
0.0490	3134.72	4.1960	4.1960	0.7347	25.45	0.49	0.750			
0.0512	3278.34	4.1930	4.1931	0.7473	25.45	0.49	0.750			
0.0535	3421.61	4.1900	4.1900	0.7506	25.45	0.49	0.750			
0.0557	3565.87	4.1870	4.1870	0.7514	25.45	0.49	0.750			
0.0580	3711.07	4.1840	4.1840	0.7556	25.45	0.49	0.750			
0.0602	3855.15	4.1810	4.1810	0.7550	25.45	0.49	0.750			
0.0625	4001.39	4.1780	4.1772	0.7576	25.45	0.49	0.750			
0.0648	4146.38	4.1750	4.1752	0.7596	25.45	0.49	0.750			
0.0671	4294.02	4.1720	4.1720	0.7614	25.45	0.49	0.750			
0.0694	4439.62	4.1690	4.1690	0.7684	25.46	0.50	0.750			
0.0717	4588.86	4.1660	4.1661	0.7723	25.46	0.50	0.750			
0.0740	4735.93	4.1630	4.1629	0.7714	25.46	0.50	0.750			
0.0763	4885.54	4.1600	4.1601	0.7672	25.46	0.50	0.750			
0.0786	5033.06	4.1570	4.1570	0.7666	25.46	0.50	0.750			
0.0809	5178.07	4.1540	4.1541	0.7589	25.46	0.50	0.750			
0.0832	5322.24	4.1510	4.1510	0.7608	25.47	0.51	0.750			
0.0854	5465.87	4.1480	4.1480	0.7613	25.47	0.51	0.750			
0.0877	5613.05	4.1450	4.1445	0.7691	25.47	0.51	0.750			
0.0900	5762.39	4.1420	4.1421	0.7710	25.47	0.51	0.750			
0.0924	5913.48	4.1390	4.1390	0.7674	25.47	0.51	0.750			
0.0947	6060.41	4.1360	4.1361	0.7735	25.47	0.51	0.750			
0.0970	6206.91	4.1330	4.1330	0.7701	25.47	0.51	0.750			
0.0993	6355.01	4.1300	4.1300	0.7691	25.47	0.51	0.750			
0.1016	6503.19	4.1270	4.1271	0.7760	25.47	0.51	0.750			
0.1040	6653.53	4.1240	4.1242	0.7816	25.47	0.51	0.750			
0.1063	6805.36	4.1210	4.1210	0.7863	25.48	0.52	0.750			
0.1087	6958.82	4.1180	4.1179	0.7874	25.48	0.52	0.750			
0.1110	7106.24	4.1150	4.1152	0.7826	25.48	0.52	0.750			
0.1134	7256.76	4.1120	4.1121	0.7842	25.48	0.52	0.750			
0.1157	7407.99	4.1090	4.1090	0.7873	25.48	0.52	0.750			
0.1181	7557.20	4.1060	4.1060	0.7849	25.48	0.52	0.750			
0.1204	7707.99	4.1030	4.1030	0.7883	25.49	0.53	0.750			
0.1228	7860.12	4.1000	4.1001	0.7928	25.49	0.53	0.750			
0.1252	8013.21	4.0970	4.0968	0.7965	25.49	0.53	0.750			
0.1276	8166.91	4.0940	4.0941	0.7962	25.49	0.53	0.750			
0.1301	8324.29	4.0910	4.0909	0.7803	25.50	0.54	0.750			
0.1324	8472.76	4.0880	4.0881	0.7854	25.50	0.54	0.750			
0.1347	8620.98	4.0850	4.0852	0.7937	25.51	0.55	0.750			
0.1370	8770.58	4.0820	4.0818	0.7955	25.51	0.55	0.750			
0.1394	8923.67	4.0790	4.0791	0.8039	25.51	0.55	0.750			
0.1419	9079.50	4.0760	4.0761	0.8103	25.51	0.55	0.750			
0.1443	9236.94	4.0730	4.0731	0.8189	25.51	0.55	0.750			
0.1469	9399.69	4.0700	4.0701	0.8285	25.51	0.55	0.750			
0.1493	9554.80	4.0670	4.0669	0.8174	25.51	0.55	0.750			
0.1517	9710.73	4.0640	4.0640	0.8238	25.51	0.55	0.750			
0.1542	9871.34	4.0610	4.0610	0.8182	25.51	0.55	0.750			
0.1567	10027.08	4.0580	4.0580	0.8218	25.51	0.55	0.750			
0.1592	10186.49	4.0550	4.0549	0.8242	25.51	0.55	0.750			
0.1616	10342.42	4.0520	4.0523	0.8251	25.51	0.55	0.750			
0.1641	10501.68	4.0490	4.0490	0.8316	25.51	0.55	0.750			
0.1667	10667.36	4.0460	4.0459	0.8190	25.52	0.56	0.750			
0.1691	10821.74	4.0430	4.0430	0.8226	25.52	0.56	0.750			
0.1716	10980.51	4.0400	4.0401	0.8320	25.52	0.56	0.750			
0.1740	11136.08	4.0370	4.0372	0.8323	25.53	0.57	0.750			
0.1765	11295.64	4.0340	4.0342	0.8392	25.53	0.57	0.750			
0.1790	11458.36	4.0310	4.0311	0.8372	25.53	0.57	0.750			
0.1816	11620.64	4.0280	4.0280	0.8461	25.53	0.57	0.750			
0.1841	11785.42	4.0250	4.0251	0.8532	25.53	0.57	0.750			
0.1867	11947.32	4.0220	4.0220	0.8534	25.53	0.57	0.750			
0.1893	12112.34	4.0190	4.0190	0.8545	25.53	0.57	0.750			
0.1919	12278.47	4.0160	4.0161	0.8435	25.53	0.57	0.750			
0.1944	12439.60	4.0130	4.0131	0.8544	25.54	0.58	0.750			
0.1970	12605.40	4.0100	4.0100	0.8627	25.54	0.58	0.750			
0.1995	12768.58	4.0070	4.0068	0.8574	25.54	0.58	0.750			
0.2021	12932.44	4.0040	4.0041	0.8663	25.54	0.58	0.750			
0.2047	13100.32	4.0010	4.0011	0.8626	25.54	0.58	0.750			
0.2073	13268.23	3.9980	3.9980	0.8701	25.55	0.59	0.750			
0.2100	13436.92	3.9950	3.9950	0.8746	25.55	0.59	0.750			
0.2125	13599.00	3.9920	3.9911	0.8725	25.55	0.59	0.750			
0.2151	13768.94	3.9890	3.9891	0.8778	25.55	0.59	0.750			
0.2178	13938.73	3.9860	3.9859	0.8838	25.55	0.59	0.750			
0.2205	14109.19	3.9830	3.9831	0.8829	25.55	0.59	0.750			
0.2232	14282.31	3.9800	3.9799	0.8900	25.55	0.59	0.750			
0.2258	14449.99	3.9770	3.9770	0.8856	25.55	0.59	0.750			
0.2285	14621.80	3.9740	3.9740	0.8799	25.55	0.59	0.750			
0.2310	14786.98	3.9710	3.9710	0.8838	25.55	0.59	0.750			
0.2337	14957.48	3.9680	3.9681	0.8932	25.55	0.59	0.750			
0.2364	15128.30	3.9650	3.9650	0.8952	25.55	0.59	0.750			
0.2391	15301.32	3.9620	3.9620	0.9051	25.55	0.59	0.750			
0.2418	15476.10	3.9590	3.9591	0.9038	25.55	0.59	0.750			
0.2445	15650.47	3.9560	3.9560	0.9085	25.56	0.60	0.750			
0.2473	15828.32	3.9530	3.9530	0.9130	25.56	0.60	0.750			
0.2500	15999.80	3.9500	3.9492	0.9059	25.56	0.60	0.750			
0.2527	16174.26	3.9470	3.9471	0.9051	25.56	0.60	0.750			
0.2555	16349.37	3.9440	3.9440	0.9033	25.56	0.60	0.750			
0.2582	16521.97	3.9410	3.9410	0.9070	25.55	0.59	0.750			
0.2609	16698.13	3.9380	3.9380	0.9057	25.55	0.59	0.750			
0.2636	16868.42	3.9350	3.9350	0.9020	25.55	0.59	0.750			
0.2663	17043.47	3.9320	3.9321	0.8929	25.55	0.59	0.750			
0.2690	17213.53	3.9290	3.9290	0.9003	25.55	0.59	0.750			
0.2717	17386.53	3.9260	3.9259	0.9054	25.55	0.59	0.750			
0.2744	17560.37	3.9230	3.9229	0.9081	25.55	0.59	0.750			
0.2771	17734.30	3.9200	3.9202	0.9075	25.55	0.59	0.750			
0.2799	17912.25	3.9170	3.9170	0.8986	25.55	0.59	0.750			
0.2825	18081.46	3.9140	3.9141	0.9054	25.55	0.59	0.750			
0.2852	18252.69	3.9110	3.9112	0.9034	25.55	0.59	0.750			
0.2879	18427.41	3.9080	3.9075	0.9074	25.55	0.59	0.750			
0.2907	18602.24	3.9050	3.9052	0.9104	25.55	0.59	0.750			
0.2934	18778.88	3.9020	3.9021	0.9151	25.54	0.58	0.750			
0.2962	18959.30	3.8990	3.8990	0.9216	25.54	0.58	0.750			
0.2990	19134.04	3.8960	3.8959	0.9067	25.53	0.57	0.750			
0.3017	19306.97	3.8930	3.8931	0.9037	25.53	0.57	0.750			
0.3044	19480.30	3.8900	3.8900	0.9004	25.52	0.56	0.750			
0.3071	19652.23	3.8870	3.8870	0.9027	25.52	0.56	0.750			
0.3097	19823.56	3.8840	3.8841	0.9068	25.51	0.55	0.750			
0.3125	19998.15	3.8810	3.8806	0.9092	25.51	0.55	0.750			
0.3152	20173.78	3.8780	3.8781	0.9156	25.50	0.54	0.750			
0.3180	20349.94	3.8750	3.8751	0.9068	25.50	0.54	0.750			
0.3207	20523.18	3.8720	3.8722	0.9124	25.49	0.53	0.750			
0.3234	20696.57	3.8690	3.8691	0.9095	25.48	0.52	0.750			
0.3261	20870.95	3.8660	3.8658	0.9140	25.48	0.52	0.750			
0.3288	21045.59	3.8630	3.8633	0.9184	25.47	0.51	0.750			
0.3316	21224.24	3.8600	3.8601	0.9282	25.46	0.50	0.750			
0.3345	21407.47	3.8570	3.8570	0.9380	25.46	0.50	0.750			
0.3373	21585.91	3.8540	3.8539	0.9211	25.45	0.49	0.750			
0.3401	21765.72	3.8510	3.8510	0.9238	25.44	0.48	0.750			
0.3429	21946.49	3.8480	3.8480	0.9170	25.44	0.48	0.750			
0.3456	22118.39	3.8450	3.8450	0.9295	25.43	0.47	0.750			
0.3483	22292.82	3.8420	3.8421	0.9364	25.42	0.46	0.750			
0.3511	22473.47	3.8390	3.8391	0.9531	25.42	0.46	0.750			
0.3541	22660.58	3.8360	3.8362	0.9511	25.41	0.45	0.750	0.324	0.431	
0.3569	22844.67	3.8330	3.8332	0.9616	25.40	0.44	0.750			
0.3598	23030.30	3.8300	3.8303	0.9743	25.39	0.43	0.750			
0.3628	23217.12	3.8270	3.8264	0.9769	25.38	0.42	0.750			
0.3657	23401.71	3.8240	3.8241	0.9706	25.37	0.41	0.750			
0.3686	23589.65	3.8210	3.8211	0.9871	25.36	0.40	0.750			
0.3716	23783.22	3.8180	3.8181	1.0027	25.35	0.39	0.750			
0.3747	23982.55	3.8150	3.8148	1.0125	25.34	0.38	0.750			
0.3777	24170.85	3.8120	3.8119	0.9964	25.33	0.37	0.750			
0.3806	24359.68	3.8090	3.8091	1.0114	25.32	0.36	0.750			
0.3837	24554.22	3.8060	3.8060	1.0247	25.31	0.35	0.750			
0.3868	24752.78	3.8030	3.8028	1.0319	25.30	0.34	0.750			
0.3898	24949.98	3.8000	3.8001	1.0395	25.29	0.33	0.750			
0.3929	25146.15	3.7970	3.7972	1.0419	25.29	0.33	0.750			
0.3960	25346.65	3.7940	3.7942	1.0607	25.28	0.32	0.750			
0.3992	25549.45	3.7910	3.7911	1.0711	25.27	0.31	0.750			
0.4024	25755.36	3.7880	3.7882	1.0967	25.26	0.30	0.750			
0.4058	25969.61	3.7850	3.7853	1.1301	25.25	0.29	0.750			
0.4093	26194.67	3.7820	3.7821	1.1593	25.23	0.27	0.750			
0.4130	26432.09	3.7790	3.7787	1.1847	25.22	0.26	0.750			
0.4163	26645.43	3.7760	3.7761	1.1728	25.21	0.25	0.750			
0.4199	26871.76	3.7730	3.7731	1.1952	25.20	0.24	0.750			
0.4235	27101.62	3.7700	3.7700	1.2171	25.19	0.23	0.750			
0.4271	27334.45	3.7670	3.7671	1.2190	25.17	0.21	0.750			
0.4307	27566.37	3.7640	3.7642	1.2453	25.16	0.20	0.750			
0.4345	27811.13	3.7610	3.7612	1.2751	25.15	0.19	0.750			
0.4384	28059.41	3.7580	3.7574	1.3184	25.14	0.18	0.750			
0.4423	28309.84	3.7550	3.7553	1.3456	25.12	0.16	0.750			
0.4466	28579.61	3.7520	3.7522	1.3697	25.11	0.15	0.750			
0.4507	28847.36	3.7490	3.7488	1.4181	25.10	0.14	0.750			
0.4550	29117.67	3.7460	3.7461	1.4318	25.08	0.12	0.750			
0.4593	29395.40	3.7430	3.7431	1.4761	25.07	0.11	0.750			
0.4638	29686.28	3.7400	3.7399	1.4712	25.06	0.10	0.750			
0.4682	29966.85	3.7370	3.7372	1.4885	25.05	0.09	0.750			
0.4727	30253.92	3.7340	3.7343	1.5363	25.04	0.08	0.750			
0.4774	30555.87	3.7310	3.7302	1.5848	25.02	0.06	0.750			
0.4822	30859.13	3.7280	3.7275	1.6411	25.01	0.05	0.750			
0.4871	31175.31	3.7250	3.7253	1.7727	25.00	0.04	0.750			
0.4927	31529.84	3.7220	3.7224	1.8866	24.98	0.02	0.750			
0.4983	31888.33	3.7190	3.7192	1.9333	24.97	0.01	0.750			
0.5043	32275.93	3.7160	3.7168	2.0527	24.95	-0.01	0.750			
0.5106	32678.06	3.7130	3.7134	2.0656	24.93	-0.03	0.750			
0.5169	33084.40	3.7100	3.7098	2.0831	24.92	-0.04	0.750			
0.5235	33501.53	3.7070	3.7067	2.1115	24.90	-0.06	0.750			
0.5294	33878.80	3.7040	3.7041	2.1456	24.89	-0.07	0.750			
0.5360	34301.52	3.7010	3.7010	2.1904	24.87	-0.09	0.750			
0.5427	34733.07	3.6980	3.6979	2.2230	24.85	-0.11	0.750			
0.5495	35167.18	3.6950	3.6949	2.2713	24.84	-0.12	0.750			
0.5562	35599.85	3.6920	3.6924	2.3474	24.83	-0.13	0.750			
0.5633	36053.54	3.6890	3.6891	2.4223	24.82	-0.14	0.750			
0.5708	36533.14	3.6860	3.6860	2.4947	24.81	-0.15	0.750			
0.5785	37026.71	3.6830	3.6830	2.5460	24.80	-0.16	0.750			
0.5861	37512.23	3.6800	3.6798	2.6243	24.79	-0.17	0.750			
0.5939	38010.60	3.6770	3.6770	2.6200	24.78	-0.18	0.750			
0.6021	38531.69	3.6740	3.6742	2.6025	24.78	-0.18	0.750			
0.6097	39019.27	3.6710	3.6713	2.4535	24.78	-0.18	0.750			
0.6170	39486.89	3.6680	3.6678	2.3435	24.79	-0.17	0.750			
0.6238	39924.57	3.6650	3.6649	2.2011	24.80	-0.16	0.750			
0.6301	40324.43	3.6620	3.6620	2.0295	24.80	-0.16	0.750			
0.6360	40705.68	3.6590	3.6591	1.8938	24.81	-0.15	0.750			
0.6415	41054.39	3.6560	3.6558	1.7492	24.81	-0.15	0.750			
0.6463	41364.83	3.6530	3.6532	1.5812	24.82	-0.14	0.750			
0.6508	41653.48	3.6500	3.6501	1.4501	24.82	-0.14	0.750			
0.6550	41920.83	3.6470	3.6471	1.3481	24.84	-0.12	0.750			
0.6588	42165.32	3.6440	3.6440	1.2504	24.85	-0.11	0.750			
0.6625	42396.98	3.6410	3.6404	1.1747	24.86	-0.10	0.750			
0.6658	42611.13	3.6380	3.6380	1.1061	24.87	-0.09	0.750			
0.6690	42814.86	3.6350	3.6351	1.0538	24.87	-0.09	0.750			
0.6720	43011.13	3.6320	3.6320	1.0132	24.88	-0.08	0.750			
0.6750	43202.90	3.6290	3.6288	0.9764	24.88	-0.08	0.750			
0.6779	43384.82	3.6260	3.6260	0.9335	24.89	-0.07	0.750			
0.6806	43560.99	3.6230	3.6231	0.9020	24.89	-0.07	0.750			
0.6833	43732.62	3.6200	3.6200	0.8667	24.90	-0.06	0.750			
0.6859	43897.36	3.6170	3.6169	0.8140	24.91	-0.05	0.750			
0.6882	44047.93	3.6140	3.6140	0.7735	24.91	-0.05	0.750			
0.6905	44193.26	3.6110	3.6111	0.7254	24.92	-0.04	0.750			
0.6927	44330.29	3.6080	3.6081	0.6754	24.93	-0.03	0.750			
0.6946	44456.48	3.6050	3.6051	0.6142	24.94	-0.02	0.750			
0.6964	44567.70	3.6020	3.6022	0.5557	24.95	-0.01	0.750			
0.6980	44669.61	3.5990	3.5990	0.5032	24.95	-0.01	0.750			
0.6994	44761.15	3.5960	3.5960	0.4484	24.96	-0.00	0.750			
0.7006	44837.64	3.5930	3.5931	0.3925	24.96	0.00	0.750			
0.7017	44909.65	3.5900	3.5900	0.3443	24.97	0.01	0.750			
0.7027	44972.01	3.5870	3.5869	0.2984	24.97	0.01	0.750			
0.7035	45025.30	3.5840	3.5841	0.2495	24.97	0.01	0.750			
0.7042	45067.94	3.5810	3.5811	0.1971	24.98	0.02	0.750			
0.7047	45101.88	3.5780	3.5782	0.1435	24.98	0.02	0.750			
0.7051	45124.26	3.5750	3.5756	0.0789	24.98	0.02	0.750			
