Ah_balance (normalized)	Ah_balance (mAh)	Voltage - fit (V)	Voltage -  interpolate (V)	dQ/dV (1/V)	Temperature (°C)	Temperature - diff (°C)	Current (C)	R_DC 0ms (mOhm)	R_DC 50ms (mOhm)	R_DC 50 ms PEC (mOhm)
0.0487	3120.00	4.1960	4.1957	0.7530	25.74	0.58	0.750			
0.0510	3267.20	4.1930	4.1930	0.7637	25.74	0.58	0.750			
0.0534	3416.60	4.1900	4.1901	0.7606	25.74	0.58	0.750			
0.0556	3560.87	4.1870	4.1870	0.7589	25.74	0.58	0.750			
0.0579	3706.27	4.1840	4.1840	0.7581	25.74	0.58	0.750			
0.0602	3851.28	4.1810	4.1811	0.7588	25.74	0.58	0.750			
0.0624	3996.64	4.1780	4.1781	0.7607	25.74	0.58	0.750			
0.0647	4143.68	4.1750	4.1751	0.7645	25.74	0.58	0.750			
0.0671	4291.61	4.1720	4.1720	0.7652	25.74	0.58	0.750			
0.0694	4438.44	4.1690	4.1690	0.7645	25.75	0.59	0.750			
0.0716	4583.85	4.1660	4.1660	0.7636	25.75	0.59	0.750			
0.0739	4730.25	4.1630	4.1627	0.7660	25.75	0.59	0.750			
0.0762	4877.99	4.1600	4.1601	0.7705	25.75	0.59	0.750			
0.0786	5027.21	4.1570	4.1570	0.7702	25.75	0.59	0.750			
0.0809	5176.45	4.1540	4.1541	0.7748	25.75	0.59	0.750			
0.0832	5323.91	4.1510	4.1511	0.7715	25.75	0.59	0.750			
0.0855	5473.63	4.1480	4.1480	0.7749	25.75	0.59	0.750			
0.0878	5621.93	4.1450	4.1450	0.7753	25.75	0.59	0.750			
0.0902	5771.04	4.1420	4.1420	0.7753	25.75	0.59	0.750			
0.0925	5920.16	4.1390	4.1390	0.7760	25.75	0.59	0.750			
0.0949	6070.47	4.1360	4.1360	0.7805	25.75	0.59	0.750			
0.0972	6218.96	4.1330	4.1330	0.7781	25.75	0.59	0.750			
0.0995	6367.97	4.1300	4.1300	0.7804	25.75	0.59	0.750			
0.1018	6518.11	4.1270	4.1270	0.7859	25.75	0.59	0.750			
0.1042	6670.09	4.1240	4.1240	0.7813	25.75	0.59	0.750			
0.1066	6819.81	4.1210	4.1210	0.7829	25.75	0.59	0.750			
0.1089	6969.26	4.1180	4.1181	0.7875	25.75	0.59	0.750			
0.1113	7120.30	4.1150	4.1147	0.7890	25.75	0.59	0.750			
0.1136	7272.58	4.1120	4.1120	0.7924	25.75	0.59	0.750			
0.1160	7426.32	4.1090	4.1090	0.7878	25.75	0.59	0.750			
0.1184	7577.33	4.1060	4.1061	0.7927	25.76	0.60	0.750			
0.1208	7731.05	4.1030	4.1030	0.8011	25.76	0.60	0.750			
0.1231	7881.53	4.1000	4.1000	0.7962	25.76	0.60	0.750			
0.1255	8034.85	4.0970	4.0971	0.7999	25.76	0.60	0.750			
0.1280	8190.07	4.0940	4.0940	0.8042	25.76	0.60	0.750			
0.1304	8345.59	4.0910	4.0911	0.8061	25.76	0.60	0.750			
0.1329	8503.14	4.0880	4.0880	0.8093	25.75	0.59	0.750			
0.1352	8655.57	4.0850	4.0850	0.8059	25.75	0.59	0.750			
0.1377	8809.89	4.0820	4.0820	0.8076	25.75	0.59	0.750			
0.1401	8968.09	4.0790	4.0789	0.7999	25.75	0.59	0.750			
0.1425	9118.26	4.0760	4.0760	0.8037	25.75	0.59	0.750			
0.1449	9271.72	4.0730	4.0731	0.8093	25.76	0.60	0.750			
0.1473	9426.04	4.0700	4.0701	0.8168	25.76	0.60	0.750			
0.1497	9583.98	4.0670	4.0667	0.8219	25.76	0.60	0.750			
0.1523	9745.92	4.0640	4.0640	0.8176	25.76	0.60	0.750			
0.1547	9903.70	4.0610	4.0611	0.8258	25.76	0.60	0.750			
0.1572	10063.07	4.0580	4.0582	0.8299	25.76	0.60	0.750			
0.1597	10219.58	4.0550	4.0551	0.8255	25.76	0.60	0.750			
0.1621	10376.86	4.0520	4.0518	0.8296	25.76	0.60	0.750			
0.1647	10538.87	4.0490	4.0491	0.8311	25.76	0.60	0.750			
0.1672	10700.53	4.0460	4.0461	0.8420	25.76	0.60	0.750			
0.1697	10863.43	4.0430	4.0430	0.8444	25.77	0.61	0.750			
0.1723	11024.75	4.0400	4.0400	0.8429	25.77	0.61	0.750			
0.1748	11186.05	4.0370	4.0369	0.8441	25.77	0.61	0.750			
0.1774	11351.18	4.0340	4.0340	0.8379	25.77	0.61	0.750			
0.1799	11511.80	4.0310	4.0311	0.8429	25.77	0.61	0.750			
0.1824	11672.05	4.0280	4.0280	0.8504	25.76	0.60	0.750			
0.1849	11834.61	4.0250	4.0251	0.8505	25.76	0.60	0.750			
0.1875	11997.81	4.0220	4.0221	0.8561	25.76	0.60	0.750			
0.1901	12164.29	4.0190	4.0190	0.8546	25.76	0.60	0.750			
0.1927	12330.48	4.0160	4.0162	0.8655	25.76	0.60	0.750			
0.1953	12498.18	4.0130	4.0130	0.8680	25.76	0.60	0.750			
0.1979	12665.95	4.0100	4.0101	0.8583	25.76	0.60	0.750			
0.2005	12831.41	4.0070	4.0071	0.8412	25.76	0.60	0.750			
0.2030	12993.49	4.0040	4.0041	0.8301	25.76	0.60	0.750			
0.2054	13148.56	4.0010	4.0012	0.8266	25.77	0.61	0.750			
0.2079	13302.80	3.9980	3.9978	0.8332	25.77	0.61	0.750			
0.2103	13458.03	3.9950	3.9949	0.8369	25.77	0.61	0.750			
0.2128	13621.12	3.9920	3.9922	0.8551	25.77	0.61	0.750			
0.2155	13791.30	3.9890	3.9890	0.8795	25.77	0.61	0.750			
0.2181	13960.92	3.9860	3.9860	0.8818	25.77	0.61	0.750			
0.2208	14129.65	3.9830	3.9832	0.8860	25.77	0.61	0.750			
0.2234	14299.07	3.9800	3.9800	0.8870	25.77	0.61	0.750			
0.2261	14469.17	3.9770	3.9771	0.8917	25.77	0.61	0.750			
0.2288	14642.16	3.9740	3.9742	0.8817	25.77	0.61	0.750			
0.2314	14807.89	3.9710	3.9712	0.8971	25.77	0.61	0.750			
0.2341	14984.46	3.9680	3.9681	0.9162	25.77	0.61	0.750			
0.2368	15154.93	3.9650	3.9642	0.9105	25.77	0.61	0.750			
0.2396	15332.35	3.9620	3.9620	0.9201	25.77	0.61	0.750			
0.2424	15512.17	3.9590	3.9593	0.9262	25.77	0.61	0.750			
0.2453	15696.02	3.9560	3.9561	0.9318	25.77	0.61	0.750			
0.2480	15873.12	3.9530	3.9529	0.9150	25.77	0.61	0.750			
0.2507	16046.66	3.9500	3.9500	0.9095	25.77	0.61	0.750			
0.2534	16219.55	3.9470	3.9471	0.9046	25.77	0.61	0.750			
0.2561	16391.34	3.9440	3.9440	0.9073	25.77	0.61	0.750			
0.2589	16566.83	3.9410	3.9410	0.9113	25.77	0.61	0.750			
0.2616	16741.29	3.9380	3.9373	0.9121	25.77	0.61	0.750			
0.2644	16920.19	3.9350	3.9351	0.9093	25.77	0.61	0.750			
0.2671	17092.83	3.9320	3.9321	0.9136	25.77	0.61	0.750			
0.2698	17267.57	3.9290	3.9290	0.9197	25.77	0.61	0.750			
0.2726	17444.92	3.9260	3.9261	0.9249	25.77	0.61	0.750			
0.2753	17619.74	3.9230	3.9229	0.9231	25.77	0.61	0.750			
0.2781	17799.33	3.9200	3.9201	0.9242	25.77	0.61	0.750			
0.2809	17978.10	3.9170	3.9170	0.9289	25.76	0.60	0.750			
0.2837	18157.58	3.9140	3.9140	0.9279	25.76	0.60	0.750			
0.2865	18334.51	3.9110	3.9107	0.9219	25.76	0.60	0.750			
0.2893	18514.10	3.9080	3.9079	0.9105	25.76	0.60	0.750			
0.2920	18686.20	3.9050	3.9051	0.9182	25.76	0.60	0.750			
0.2947	18861.14	3.9020	3.9021	0.9217	25.75	0.59	0.750			
0.2975	19037.92	3.8990	3.8991	0.9277	25.75	0.59	0.750			
0.3002	19214.63	3.8960	3.8959	0.9303	25.75	0.59	0.750			
0.3031	19396.77	3.8930	3.8931	0.9233	25.74	0.58	0.750			
0.3058	19574.15	3.8900	3.8901	0.9307	25.74	0.58	0.750			
0.3087	19754.04	3.8870	3.8872	0.9325	25.73	0.57	0.750			
0.3114	19929.59	3.8840	3.8836	0.9292	25.73	0.57	0.750			
0.3142	20109.63	3.8810	3.8810	0.9279	25.73	0.57	0.750			
0.3170	20287.47	3.8780	3.8781	0.9358	25.72	0.56	0.750			
0.3198	20469.83	3.8750	3.8751	0.9438	25.72	0.56	0.750			
0.3227	20651.62	3.8720	3.8721	0.9406	25.71	0.55	0.750			
0.3255	20831.61	3.8690	3.8689	0.9412	25.71	0.55	0.750			
0.3283	21014.14	3.8660	3.8661	0.9329	25.70	0.54	0.750			
0.3311	21189.69	3.8630	3.8631	0.9363	25.70	0.54	0.750			
0.3339	21370.55	3.8600	3.8601	0.9434	25.69	0.53	0.750			
0.3367	21549.42	3.8570	3.8564	0.9418	25.69	0.53	0.750			
0.3396	21734.49	3.8540	3.8540	0.9325	25.68	0.52	0.750			
0.3424	21911.65	3.8510	3.8512	0.9424	25.67	0.51	0.750			
0.3452	22093.70	3.8480	3.8481	0.9534	25.66	0.50	0.750			
0.3481	22276.45	3.8450	3.8451	0.9419	25.65	0.49	0.750			
0.3509	22457.33	3.8420	3.8421	0.9547	25.64	0.48	0.750			
0.3538	22640.37	3.8390	3.8391	0.9672	25.64	0.48	0.750			
0.3567	22828.86	3.8360	3.8360	0.9799	25.63	0.47	0.750	0.278	0.407	
0.3597	23020.83	3.8330	3.8332	0.9789	25.62	0.46	0.750			
0.3627	23211.10	3.8300	3.8300	0.9834	25.61	0.45	0.750			
0.3656	23401.06	3.8270	3.8271	0.9732	25.60	0.44	0.750			
0.3685	23587.15	3.8240	3.8241	0.9784	25.59	0.43	0.750			
0.3714	23768.84	3.8210	3.8212	0.9867	25.58	0.42	0.750			
0.3743	23957.49	3.8180	3.8173	0.9958	25.57	0.41	0.750			
0.3774	24150.50	3.8150	3.8151	1.0014	25.56	0.40	0.750			
0.3804	24344.54	3.8120	3.8122	1.0159	25.55	0.39	0.750			
0.3835	24545.15	3.8090	3.8091	1.0347	25.54	0.38	0.750			
0.3867	24748.16	3.8060	3.8060	1.0470	25.53	0.37	0.750			
0.3897	24940.46	3.8030	3.8030	1.0377	25.52	0.36	0.750			
0.3928	25140.53	3.8000	3.8001	1.0518	25.51	0.35	0.750			
0.3960	25345.00	3.7970	3.7970	1.0720	25.50	0.34	0.750			
0.3993	25552.11	3.7940	3.7939	1.0812	25.49	0.33	0.750			
0.4025	25759.92	3.7910	3.7910	1.0769	25.48	0.32	0.750			
0.4057	25964.23	3.7880	3.7881	1.0936	25.47	0.31	0.750			
0.4089	26172.79	3.7850	3.7852	1.1164	25.47	0.31	0.750			
0.4123	26390.18	3.7820	3.7816	1.1330	25.46	0.30	0.750			
0.4157	26606.55	3.7790	3.7792	1.1619	25.44	0.28	0.750			
0.4193	26833.27	3.7760	3.7761	1.1912	25.43	0.27	0.750			
0.4230	27071.92	3.7730	3.7729	1.2171	25.41	0.25	0.750			
0.4267	27305.93	3.7700	3.7702	1.2236	25.40	0.24	0.750			
0.4303	27541.15	3.7670	3.7671	1.2483	25.39	0.23	0.750			
0.4341	27783.39	3.7640	3.7640	1.2765	25.38	0.22	0.750			
0.4380	28030.04	3.7610	3.7610	1.2857	25.37	0.21	0.750			
0.4418	28272.55	3.7580	3.7581	1.3065	25.35	0.19	0.750			
0.4458	28530.37	3.7550	3.7552	1.3304	25.34	0.18	0.750			
0.4498	28784.38	3.7520	3.7514	1.3728	25.33	0.17	0.750			
0.4540	29057.79	3.7490	3.7492	1.3785	25.31	0.15	0.750			
0.4581	29319.51	3.7460	3.7463	1.4374	25.30	0.14	0.750			
0.4626	29603.77	3.7430	3.7428	1.4792	25.29	0.13	0.750			
0.4670	29887.49	3.7400	3.7402	1.4961	25.28	0.12	0.750			
0.4716	30184.17	3.7370	3.7374	1.5354	25.27	0.11	0.750			
0.4764	30488.02	3.7340	3.7334	1.5735	25.26	0.10	0.750			
0.4811	30791.82	3.7310	3.7306	1.6154	25.24	0.08	0.750			
0.4861	31108.09	3.7280	3.7278	1.6771	25.22	0.06	0.750			
0.4910	31423.15	3.7250	3.7248	1.7292	25.21	0.05	0.750			
0.4964	31767.87	3.7220	3.7222	1.7717	25.19	0.03	0.750			
0.5018	32118.08	3.7190	3.7188	1.8161	25.17	0.01	0.750			
0.5075	32477.32	3.7160	3.7162	1.9314	25.15	-0.01	0.750			
0.5135	32861.29	3.7130	3.7132	1.9121	25.13	-0.03	0.750			
0.5191	33225.19	3.7100	3.7098	1.9549	25.12	-0.04	0.750			
0.5249	33594.57	3.7070	3.7072	2.0826	25.10	-0.06	0.750			
0.5311	33989.08	3.7040	3.7036	2.0880	25.09	-0.07	0.750			
0.5375	34401.29	3.7010	3.7010	2.1876	25.08	-0.08	0.750			
0.5444	34840.53	3.6980	3.6984	2.2947	25.07	-0.09	0.750			
0.5512	35274.58	3.6950	3.6947	2.3365	25.06	-0.10	0.750			
0.5583	35733.89	3.6920	3.6923	2.5025	25.05	-0.11	0.750			
0.5657	36202.01	3.6890	3.6885	2.4050	25.03	-0.13	0.750			
0.5727	36654.78	3.6860	3.6857	2.4283	25.02	-0.14	0.750			
0.5801	37126.79	3.6830	3.6836	2.5481	25.01	-0.15	0.750			
0.5879	37628.29	3.6800	3.6803	2.6094	25.00	-0.16	0.750			
0.5962	38155.86	3.6770	3.6773	2.7356	24.98	-0.18	0.750			
0.6039	38650.80	3.6740	3.6740	2.6304	24.98	-0.18	0.750			
0.6119	39159.60	3.6710	3.6707	2.6586	24.98	-0.18	0.750			
0.6200	39679.81	3.6680	3.6678	2.6666	24.98	-0.18	0.750			
0.6278	40179.54	3.6650	3.6651	2.4794	24.99	-0.17	0.750			
0.6352	40650.95	3.6620	3.6623	2.3377	25.00	-0.16	0.750			
0.6416	41064.87	3.6590	3.6596	2.0844	25.01	-0.15	0.750			
0.6476	41449.58	3.6560	3.6564	1.9488	25.02	-0.14	0.750			
0.6533	41810.12	3.6530	3.6529	1.8090	25.02	-0.14	0.750			
0.6584	42136.67	3.6500	3.6501	1.6396	25.03	-0.13	0.750			
0.6630	42432.30	3.6470	3.6473	1.4712	25.03	-0.13	0.750			
0.6674	42715.22	3.6440	3.6441	1.3738	25.04	-0.12	0.750			
0.6711	42949.35	3.6410	3.6412	1.2514	25.05	-0.11	0.750			
0.6746	43173.28	3.6380	3.6376	1.1535	25.06	-0.10	0.750			
0.6778	43381.55	3.6350	3.6352	1.0764	25.07	-0.09	0.750			
0.6810	43580.91	3.6320	3.6321	1.0343	25.07	-0.09	0.750			
0.6840	43776.05	3.6290	3.6291	1.0012	25.08	-0.08	0.750			
0.6870	43967.60	3.6260	3.6260	0.9837	25.08	-0.08	0.750			
0.6898	44145.03	3.6230	3.6230	0.9291	25.09	-0.07	0.750			
0.6925	44321.16	3.6200	3.6200	0.9026	25.10	-0.06	0.750			
0.6953	44496.36	3.6170	3.6170	0.8708	25.11	-0.05	0.750			
0.6978	44661.55	3.6140	3.6141	0.8238	25.12	-0.04	0.750			
0.7003	44816.15	3.6110	3.6110	0.7673	25.12	-0.04	0.750			
0.7025	44959.82	3.6080	3.6080	0.7101	25.13	-0.03	0.750			
0.7045	45090.30	3.6050	3.6051	0.6461	25.14	-0.02	0.750			
0.7064	45210.48	3.6020	3.6020	0.5852	25.14	-0.02	0.750			
0.7080	45313.67	3.5990	3.5990	0.5151	25.15	-0.01	0.750			
0.7095	45404.88	3.5960	3.5960	0.4591	25.15	-0.01	0.750			
0.7107	45485.64	3.5930	3.5931	0.4047	25.16	-0.00	0.750			
0.7119	45558.43	3.5900	3.5895	0.3521	25.16	0.00	0.750			
0.7128	45620.59	3.5870	3.5870	0.3012	25.16	0.00	0.750			
0.7137	45674.13	3.5840	3.5843	0.2534	25.17	0.01	0.750			
0.7144	45720.73	3.5810	3.5811	0.2037	25.17	0.01	0.750			
0.7150	45757.51	3.5780	3.5780	0.1380	25.17	0.01	0.750			
0.7153	45777.26	3.5750	3.5754	0.0783	25.17	0.01	0.750			
