Ah_balance (normalized)	Ah_balance (mAh)	Voltage - fit (V)	Voltage -  interpolate (V)	dQ/dV (1/V)	Temperature (°C)	Temperature - diff (°C)	Current (C)	R_DC 0ms (mOhm)	R_DC 50ms (mOhm)	R_DC 50 ms PEC (mOhm)
0.0487	3118.40	4.1970	4.1970	0.7010	26.09	0.42	0.750			
0.0509	3257.72	4.1940	4.1941	0.7292	26.09	0.42	0.750			
0.0531	3400.30	4.1910	4.1906	0.7441	26.09	0.42	0.750			
0.0554	3544.92	4.1880	4.1882	0.7533	26.09	0.42	0.750			
0.0577	3693.09	4.1850	4.1851	0.7531	26.09	0.42	0.750			
0.0600	3839.34	4.1820	4.1821	0.7542	26.09	0.42	0.750			
0.0623	3984.60	4.1790	4.1790	0.7462	26.09	0.42	0.750			
0.0645	4126.19	4.1760	4.1762	0.7467	26.09	0.42	0.750			
0.0667	4269.79	4.1730	4.1730	0.7509	26.09	0.42	0.750			
0.0689	4412.78	4.1700	4.1700	0.7535	26.09	0.42	0.750			
0.0712	4558.45	4.1670	4.1670	0.7528	26.09	0.42	0.750			
0.0735	4703.35	4.1640	4.1641	0.7569	26.09	0.42	0.750			
0.0758	4849.79	4.1610	4.1611	0.7588	26.09	0.42	0.750			
0.0780	4994.97	4.1580	4.1578	0.7613	26.09	0.42	0.750			
0.0803	5140.86	4.1550	4.1550	0.7596	26.09	0.42	0.750			
0.0827	5291.27	4.1520	4.1520	0.7500	26.09	0.42	0.750			
0.0849	5433.84	4.1490	4.1490	0.7560	26.09	0.42	0.750			
0.0871	5576.51	4.1460	4.1463	0.7569	26.09	0.42	0.750			
0.0894	5722.08	4.1430	4.1431	0.7608	26.09	0.42	0.750			
0.0917	5868.01	4.1400	4.1401	0.7653	26.09	0.42	0.750			
0.0940	6015.92	4.1370	4.1372	0.7706	26.09	0.42	0.750			
0.0964	6167.19	4.1340	4.1340	0.7703	26.09	0.42	0.750			
0.0987	6315.12	4.1310	4.1310	0.7686	26.09	0.42	0.750			
0.1009	6460.24	4.1280	4.1281	0.7592	26.09	0.42	0.750			
0.1032	6605.66	4.1250	4.1245	0.7615	26.09	0.42	0.750			
0.1055	6751.96	4.1220	4.1221	0.7635	26.09	0.42	0.750			
0.1078	6899.26	4.1190	4.1191	0.7613	26.10	0.43	0.750			
0.1101	7047.03	4.1160	4.1160	0.7688	26.10	0.43	0.750			
0.1124	7195.78	4.1130	4.1130	0.7806	26.10	0.43	0.750			
0.1147	7340.31	4.1100	4.1101	0.7780	26.11	0.44	0.750			
0.1171	7491.39	4.1070	4.1070	0.7844	26.11	0.44	0.750			
0.1194	7643.44	4.1040	4.1040	0.7885	26.11	0.44	0.750			
0.1218	7796.10	4.1010	4.1011	0.7858	26.11	0.44	0.750			
0.1242	7947.35	4.0980	4.0981	0.7921	26.11	0.44	0.750			
0.1265	8097.16	4.0950	4.0951	0.7892	26.11	0.44	0.750			
0.1289	8248.49	4.0920	4.0920	0.7924	26.11	0.44	0.750			
0.1313	8400.45	4.0890	4.0891	0.7936	26.11	0.44	0.750			
0.1337	8557.73	4.0860	4.0860	0.7802	26.12	0.45	0.750			
0.1360	8706.85	4.0830	4.0831	0.7994	26.12	0.45	0.750			
0.1384	8856.43	4.0800	4.0802	0.7957	26.13	0.46	0.750			
0.1408	9010.77	4.0770	4.0763	0.8079	26.13	0.46	0.750			
0.1432	9166.39	4.0740	4.0742	0.8160	26.13	0.46	0.750			
0.1457	9326.60	4.0710	4.0711	0.8182	26.13	0.46	0.750			
0.1483	9489.63	4.0680	4.0681	0.8253	26.13	0.46	0.750			
0.1507	9644.66	4.0650	4.0650	0.8110	26.13	0.46	0.750			
0.1531	9800.01	4.0620	4.0619	0.8111	26.13	0.46	0.750			
0.1555	9954.04	4.0590	4.0590	0.8096	26.13	0.46	0.750			
0.1580	10112.69	4.0560	4.0559	0.7953	26.13	0.46	0.750			
0.1604	10264.09	4.0530	4.0531	0.8090	26.13	0.46	0.750			
0.1628	10418.73	4.0500	4.0501	0.8201	26.13	0.46	0.750			
0.1653	10576.07	4.0470	4.0469	0.8239	26.13	0.46	0.750			
0.1677	10735.19	4.0440	4.0442	0.8285	26.13	0.46	0.750			
0.1703	10898.04	4.0410	4.0411	0.8241	26.13	0.46	0.750			
0.1728	11056.92	4.0380	4.0381	0.8295	26.14	0.47	0.750			
0.1753	11218.51	4.0350	4.0350	0.8341	26.14	0.47	0.750			
0.1777	11371.72	4.0320	4.0319	0.8200	26.14	0.47	0.750			
0.1801	11528.79	4.0290	4.0292	0.8272	26.14	0.47	0.750			
0.1826	11687.98	4.0260	4.0260	0.8341	26.14	0.47	0.750			
0.1851	11848.50	4.0230	4.0238	0.8438	26.15	0.48	0.750			
0.1877	12012.85	4.0200	4.0201	0.8443	26.15	0.48	0.750			
0.1903	12177.07	4.0170	4.0170	0.8488	26.15	0.48	0.750			
0.1929	12342.87	4.0140	4.0141	0.8514	26.15	0.48	0.750			
0.1954	12505.21	4.0110	4.0111	0.8521	26.15	0.48	0.750			
0.1979	12664.18	4.0080	4.0080	0.8396	26.15	0.48	0.750			
0.2004	12823.26	4.0050	4.0051	0.8463	26.15	0.48	0.750			
0.2029	12983.63	4.0020	4.0020	0.8503	26.15	0.48	0.750			
0.2054	13148.18	3.9990	3.9993	0.8667	26.15	0.48	0.750			
0.2081	13318.08	3.9960	3.9961	0.8703	26.15	0.48	0.750			
0.2107	13487.59	3.9930	3.9930	0.8736	26.16	0.49	0.750			
0.2135	13661.21	3.9900	3.9900	0.8908	26.16	0.49	0.750			
0.2160	13822.71	3.9870	3.9865	0.8689	26.16	0.49	0.750			
0.2186	13990.95	3.9840	3.9840	0.8667	26.16	0.49	0.750			
0.2212	14157.23	3.9810	3.9810	0.8707	26.16	0.49	0.750			
0.2238	14324.33	3.9780	3.9781	0.8717	26.17	0.50	0.750			
0.2265	14494.00	3.9750	3.9750	0.8758	26.17	0.50	0.750			
0.2291	14660.68	3.9720	3.9719	0.8720	26.17	0.50	0.750			
0.2317	14826.97	3.9690	3.9690	0.8726	26.17	0.50	0.750			
0.2343	14994.17	3.9660	3.9661	0.8616	26.17	0.50	0.750			
0.2368	15156.35	3.9630	3.9631	0.8718	26.17	0.50	0.750			
0.2394	15322.50	3.9600	3.9601	0.8756	26.17	0.50	0.750			
0.2421	15492.42	3.9570	3.9572	0.8756	26.17	0.50	0.750			
0.2447	15663.04	3.9540	3.9542	0.8693	26.17	0.50	0.750			
0.2474	15831.56	3.9510	3.9512	0.8799	26.17	0.50	0.750			
0.2500	16001.36	3.9480	3.9480	0.8793	26.17	0.50	0.750			
0.2526	16166.52	3.9450	3.9448	0.8722	26.17	0.50	0.750			
0.2552	16333.45	3.9420	3.9422	0.8783	26.17	0.50	0.750			
0.2579	16504.71	3.9390	3.9390	0.8756	26.17	0.50	0.750			
0.2605	16673.49	3.9360	3.9360	0.8825	26.17	0.50	0.750			
0.2632	16842.48	3.9330	3.9332	0.8783	26.17	0.50	0.750			
0.2658	17012.23	3.9300	3.9296	0.8772	26.17	0.50	0.750			
0.2685	17181.13	3.9270	3.9271	0.8797	26.17	0.50	0.750			
0.2711	17349.26	3.9240	3.9241	0.8699	26.17	0.50	0.750			
0.2737	17515.52	3.9210	3.9211	0.8729	26.17	0.50	0.750			
0.2763	17681.23	3.9180	3.9181	0.8716	26.17	0.50	0.750			
0.2789	17848.47	3.9150	3.9147	0.8754	26.17	0.50	0.750			
0.2815	18018.69	3.9120	3.9122	0.8727	26.16	0.49	0.750			
0.2842	18187.49	3.9090	3.9091	0.8763	26.16	0.49	0.750			
0.2868	18357.38	3.9060	3.9061	0.8807	26.16	0.49	0.750			
0.2895	18529.78	3.9030	3.9029	0.8851	26.15	0.48	0.750			
0.2921	18691.55	3.9000	3.9001	0.8767	26.15	0.48	0.750			
0.2947	18861.80	3.8970	3.8971	0.8743	26.14	0.47	0.750			
0.2974	19030.47	3.8940	3.8940	0.8823	26.14	0.47	0.750			
0.3000	19200.69	3.8910	3.8911	0.8826	26.14	0.47	0.750			
0.3026	19368.73	3.8880	3.8879	0.8811	26.13	0.46	0.750			
0.3053	19537.97	3.8850	3.8851	0.8825	26.13	0.46	0.750			
0.3079	19707.51	3.8820	3.8819	0.8774	26.12	0.45	0.750			
0.3105	19874.97	3.8790	3.8791	0.8810	26.12	0.45	0.750			
0.3132	20045.13	3.8760	3.8761	0.8863	26.11	0.44	0.750			
0.3158	20213.67	3.8730	3.8719	0.8866	26.11	0.44	0.750			
0.3186	20387.74	3.8700	3.8701	0.8822	26.11	0.44	0.750			
0.3212	20555.62	3.8670	3.8671	0.8853	26.10	0.43	0.750			
0.3238	20726.18	3.8640	3.8640	0.8892	26.10	0.43	0.750			
0.3265	20898.60	3.8610	3.8611	0.8945	26.09	0.42	0.750			
0.3291	21064.60	3.8580	3.8578	0.8888	26.09	0.42	0.750			
0.3318	21235.90	3.8550	3.8551	0.8989	26.08	0.41	0.750			
0.3345	21410.34	3.8520	3.8520	0.9051	26.07	0.40	0.750			
0.3373	21586.46	3.8490	3.8490	0.9036	26.06	0.39	0.750			
0.3400	21756.90	3.8460	3.8461	0.9140	26.05	0.38	0.750			
0.3427	21932.83	3.8430	3.8432	0.9247	26.05	0.38	0.750			
0.3455	22111.56	3.8400	3.8395	0.9255	26.04	0.37	0.750	0.300	0.443	
0.3482	22286.98	3.8370	3.8373	0.9336	26.03	0.36	0.750			
0.3511	22467.80	3.8340	3.8343	0.9485	26.03	0.36	0.750			
0.3540	22654.26	3.8310	3.8305	0.9638	26.02	0.35	0.750			
0.3568	22838.23	3.8280	3.8281	0.9437	26.01	0.34	0.750			
0.3597	23020.42	3.8250	3.8252	0.9623	26.00	0.33	0.750			
0.3626	23208.99	3.8220	3.8221	0.9775	26.00	0.33	0.750			
0.3655	23394.91	3.8190	3.8186	0.9725	25.99	0.32	0.750			
0.3685	23583.09	3.8160	3.8162	0.9831	25.98	0.31	0.750			
0.3715	23773.31	3.8130	3.8131	0.9936	25.97	0.30	0.750			
0.3745	23965.58	3.8100	3.8100	1.0045	25.96	0.29	0.750			
0.3775	24163.05	3.8070	3.8069	1.0225	25.95	0.28	0.750			
0.3806	24360.24	3.8040	3.8039	1.0014	25.94	0.27	0.750			
0.3836	24548.42	3.8010	3.8011	1.0206	25.93	0.26	0.750			
0.3866	24742.76	3.7980	3.7982	1.0360	25.92	0.25	0.750			
0.3897	24940.85	3.7950	3.7952	1.0575	25.91	0.24	0.750			
0.3930	25149.98	3.7920	3.7921	1.0618	25.90	0.23	0.750			
0.3961	25352.93	3.7890	3.7892	1.0916	25.89	0.22	0.750			
0.3995	25566.19	3.7860	3.7862	1.1165	25.88	0.21	0.750			
0.4029	25786.11	3.7830	3.7826	1.1377	25.87	0.20	0.750			
0.4063	26001.74	3.7800	3.7801	1.1477	25.86	0.19	0.750			
0.4098	26225.13	3.7770	3.7771	1.1757	25.85	0.18	0.750			
0.4134	26455.24	3.7740	3.7741	1.1938	25.84	0.17	0.750			
0.4170	26688.57	3.7710	3.7710	1.1986	25.83	0.16	0.750			
0.4206	26917.91	3.7680	3.7681	1.2238	25.81	0.14	0.750			
0.4243	27153.77	3.7650	3.7651	1.2521	25.80	0.13	0.750			
0.4281	27399.54	3.7620	3.7611	1.2565	25.79	0.12	0.750			
0.4319	27638.94	3.7590	3.7592	1.2937	25.78	0.11	0.750			
0.4358	27889.28	3.7560	3.7562	1.3297	25.78	0.11	0.750			
0.4398	28149.89	3.7530	3.7529	1.3612	25.77	0.10	0.750			
0.4440	28415.06	3.7500	3.7501	1.4017	25.76	0.09	0.750			
0.4482	28681.88	3.7470	3.7471	1.4233	25.75	0.08	0.750			
0.4527	28969.84	3.7440	3.7437	1.4264	25.73	0.06	0.750			
0.4570	29247.41	3.7410	3.7411	1.4466	25.72	0.05	0.750			
0.4613	29522.08	3.7380	3.7382	1.4828	25.71	0.04	0.750			
0.4657	29803.05	3.7350	3.7344	1.5264	25.70	0.03	0.750			
0.4702	30094.15	3.7320	3.7322	1.5669	25.69	0.02	0.750			
0.4751	30406.65	3.7290	3.7292	1.6308	25.67	0.00	0.750			
0.4803	30737.25	3.7260	3.7257	1.6886	25.66	-0.01	0.750			
0.4855	31070.81	3.7230	3.7226	1.7566	25.64	-0.03	0.750			
0.4908	31410.68	3.7200	3.7202	1.7760	25.63	-0.04	0.750			
0.4961	31747.52	3.7170	3.7172	1.8277	25.62	-0.05	0.750			
0.5016	32103.09	3.7140	3.7145	1.8819	25.61	-0.06	0.750			
0.5073	32467.57	3.7110	3.7113	1.9344	25.60	-0.07	0.750			
0.5133	32849.21	3.7080	3.7086	2.0320	25.59	-0.08	0.750			
0.5196	33253.83	3.7050	3.7046	2.1188	25.58	-0.09	0.750			
0.5257	33644.21	3.7020	3.7017	2.1155	25.57	-0.10	0.750			
0.5322	34059.01	3.6990	3.6983	2.1166	25.56	-0.11	0.750			
0.5386	34470.80	3.6960	3.6962	2.1715	25.55	-0.12	0.750			
0.5452	34895.27	3.6930	3.6925	2.2382	25.54	-0.13	0.750			
0.5522	35340.87	3.6900	3.6899	2.3257	25.53	-0.14	0.750			
0.5595	35808.46	3.6870	3.6875	2.3923	25.53	-0.14	0.750			
0.5666	36261.05	3.6840	3.6840	2.3723	25.53	-0.14	0.750			
0.5740	36736.72	3.6810	3.6808	2.5438	25.52	-0.15	0.750			
0.5812	37196.38	3.6780	3.6780	2.3774	25.52	-0.15	0.750			
0.5881	37637.01	3.6750	3.6755	2.3049	25.52	-0.15	0.750			
0.5953	38099.32	3.6720	3.6714	2.2538	25.52	-0.15	0.750			
0.6015	38497.24	3.6690	3.6689	2.0746	25.51	-0.16	0.750			
0.6078	38898.07	3.6660	3.6654	2.0233	25.52	-0.15	0.750			
0.6136	39269.19	3.6630	3.6635	1.8722	25.53	-0.14	0.750			
0.6190	39617.93	3.6600	3.6602	1.7655	25.54	-0.13	0.750			
0.6241	39942.73	3.6570	3.6574	1.6447	25.55	-0.12	0.750			
0.6289	40250.23	3.6540	3.6537	1.5159	25.55	-0.12	0.750			
0.6332	40527.51	3.6510	3.6511	1.4142	25.56	-0.11	0.750			
0.6373	40784.66	3.6480	3.6482	1.3253	25.56	-0.11	0.750			
0.6410	41026.94	3.6450	3.6447	1.2265	25.57	-0.10	0.750			
0.6445	41250.54	3.6420	3.6420	1.1513	25.58	-0.09	0.750			
0.6479	41462.93	3.6390	3.6391	1.0994	25.58	-0.09	0.750			
0.6511	41668.04	3.6360	3.6362	1.0551	25.59	-0.08	0.750			
0.6541	41863.63	3.6330	3.6331	1.0132	25.59	-0.08	0.750			
0.6571	42056.36	3.6300	3.6300	0.9582	25.60	-0.07	0.750			
0.6599	42232.20	3.6270	3.6271	0.9201	25.61	-0.06	0.750			
0.6625	42401.96	3.6240	3.6243	0.8945	25.62	-0.05	0.750			
0.6651	42566.84	3.6210	3.6213	0.8675	25.63	-0.04	0.750			
0.6677	42733.13	3.6180	3.6167	0.8473	25.64	-0.03	0.750			
0.6702	42895.47	3.6150	3.6154	0.8087	25.64	-0.03	0.750			
0.6727	43051.55	3.6120	3.6123	0.7745	25.65	-0.02	0.750			
0.6752	43211.12	3.6090	3.6090	0.7309	25.66	-0.01	0.750			
0.6771	43335.24	3.6060	3.6059	0.6489	25.67	-0.00	0.750			
0.6790	43454.04	3.6030	3.6031	0.6026	25.67	0.00	0.750			
0.6807	43564.20	3.6000	3.6001	0.5563	25.68	0.01	0.750			
0.6823	43669.13	3.5970	3.5972	0.5092	25.68	0.01	0.750			
0.6838	43762.23	3.5940	3.5941	0.4611	25.69	0.02	0.750			
0.6851	43845.38	3.5910	3.5911	0.4132	25.69	0.02	0.750			
0.6863	43920.37	3.5880	3.5882	0.3683	25.70	0.03	0.750			
0.6873	43986.66	3.5850	3.5851	0.3148	25.70	0.03	0.750			
0.6882	44042.54	3.5820	3.5820	0.2676	25.70	0.03	0.750			
0.6889	44089.82	3.5790	3.5792	0.2206	25.70	0.03	0.750			
0.6895	44128.45	3.5760	3.5764	0.1720	25.71	0.04	0.750			
0.6900	44158.21	3.5730	3.5733	0.1132	25.71	0.04	0.750			
0.6902	44174.63	3.5700	3.5707	0.0484	25.71	0.04	0.750			
