Ah_balance (normalized)	Ah_balance (mAh)	Voltage - fit (V)	Voltage -  interpolate (V)	dQ/dV (1/V)	Temperature (°C)	Temperature - diff (°C)	Current (C)	R_DC 0ms (mOhm)	R_DC 50ms (mOhm)	R_DC 50 ms PEC (mOhm)
0.0475	3038.64	4.1970	4.1960	0.7575	25.22	0.62	0.750			
0.0498	3187.43	4.1940	4.1942	0.7707	25.22	0.62	0.750			
0.0521	3336.44	4.1910	4.1910	0.7695	25.22	0.62	0.750			
0.0544	3483.80	4.1880	4.1880	0.7673	25.22	0.62	0.750			
0.0568	3633.10	4.1850	4.1850	0.7708	25.22	0.62	0.750			
0.0590	3777.11	4.1820	4.1820	0.7659	25.22	0.62	0.750			
0.0613	3924.84	4.1790	4.1790	0.7693	25.22	0.62	0.750			
0.0636	4071.70	4.1760	4.1760	0.7704	25.22	0.62	0.750			
0.0659	4220.23	4.1730	4.1730	0.7652	25.22	0.62	0.750			
0.0682	4367.70	4.1700	4.1700	0.7657	25.22	0.62	0.750			
0.0705	4512.89	4.1670	4.1671	0.7659	25.22	0.62	0.750			
0.0728	4658.91	4.1640	4.1637	0.7716	25.22	0.62	0.750			
0.0751	4807.18	4.1610	4.1611	0.7749	25.22	0.62	0.750			
0.0775	4960.41	4.1580	4.1579	0.7611	25.22	0.62	0.750			
0.0798	5106.77	4.1550	4.1550	0.7772	25.22	0.62	0.750			
0.0821	5254.71	4.1520	4.1522	0.7772	25.22	0.62	0.750			
0.0844	5403.63	4.1490	4.1488	0.7849	25.22	0.62	0.750			
0.0868	5555.07	4.1460	4.1463	0.7873	25.22	0.62	0.750			
0.0892	5706.37	4.1430	4.1432	0.7874	25.22	0.62	0.750			
0.0916	5860.87	4.1400	4.1400	0.7893	25.22	0.62	0.750			
0.0940	6017.22	4.1370	4.1369	0.7957	25.22	0.62	0.750			
0.0963	6162.99	4.1340	4.1341	0.7838	25.22	0.62	0.750			
0.0987	6314.23	4.1310	4.1310	0.7854	25.22	0.62	0.750			
0.1010	6466.88	4.1280	4.1278	0.7800	25.22	0.62	0.750			
0.1034	6615.75	4.1250	4.1251	0.7865	25.22	0.62	0.750			
0.1057	6766.94	4.1220	4.1220	0.7892	25.22	0.62	0.750			
0.1081	6917.66	4.1190	4.1191	0.7931	25.22	0.62	0.750			
0.1105	7069.55	4.1160	4.1160	0.7928	25.22	0.62	0.750			
0.1129	7222.48	4.1130	4.1131	0.7966	25.22	0.62	0.750			
0.1154	7382.58	4.1100	4.1100	0.7799	25.23	0.63	0.750			
0.1176	7526.80	4.1070	4.1071	0.7930	25.23	0.63	0.750			
0.1199	7676.70	4.1040	4.1041	0.7937	25.24	0.64	0.750			
0.1223	7828.25	4.1010	4.1002	0.8016	25.24	0.64	0.750			
0.1247	7983.16	4.0980	4.0982	0.8078	25.24	0.64	0.750			
0.1272	8141.13	4.0950	4.0952	0.8120	25.24	0.64	0.750			
0.1297	8298.37	4.0920	4.0921	0.8187	25.24	0.64	0.750			
0.1321	8457.08	4.0890	4.0891	0.8116	25.24	0.64	0.750			
0.1346	8613.91	4.0860	4.0858	0.8168	25.24	0.64	0.750			
0.1370	8770.60	4.0830	4.0831	0.8191	25.24	0.64	0.750			
0.1395	8928.72	4.0800	4.0801	0.8193	25.24	0.64	0.750			
0.1420	9087.81	4.0770	4.0770	0.8260	25.25	0.65	0.750			
0.1445	9246.20	4.0740	4.0740	0.8252	25.25	0.65	0.750			
0.1469	9401.58	4.0710	4.0707	0.8232	25.25	0.65	0.750			
0.1494	9560.37	4.0680	4.0681	0.8275	25.25	0.65	0.750			
0.1519	9722.15	4.0650	4.0650	0.8226	25.25	0.65	0.750			
0.1543	9877.80	4.0620	4.0620	0.8343	25.24	0.64	0.750			
0.1569	10039.03	4.0590	4.0591	0.8423	25.24	0.64	0.750			
0.1594	10199.02	4.0560	4.0558	0.8462	25.24	0.64	0.750			
0.1619	10363.84	4.0530	4.0531	0.8519	25.24	0.64	0.750			
0.1645	10528.92	4.0500	4.0501	0.8541	25.24	0.64	0.750			
0.1671	10694.40	4.0470	4.0471	0.8578	25.25	0.65	0.750			
0.1697	10861.48	4.0440	4.0440	0.8616	25.25	0.65	0.750			
0.1722	11022.50	4.0410	4.0410	0.8518	25.25	0.65	0.750			
0.1748	11186.48	4.0380	4.0380	0.8530	25.25	0.65	0.750			
0.1774	11350.89	4.0350	4.0350	0.8440	25.25	0.65	0.750			
0.1799	11511.93	4.0320	4.0320	0.8520	25.26	0.66	0.750			
0.1824	11673.10	4.0290	4.0291	0.8549	25.26	0.66	0.750			
0.1850	11836.88	4.0260	4.0254	0.8654	25.26	0.66	0.750			
0.1876	12003.53	4.0230	4.0231	0.8742	25.26	0.66	0.750			
0.1902	12174.16	4.0200	4.0200	0.8730	25.26	0.66	0.750			
0.1929	12343.92	4.0170	4.0171	0.8837	25.26	0.66	0.750			
0.1955	12511.58	4.0140	4.0141	0.8788	25.26	0.66	0.750			
0.1982	12681.90	4.0110	4.0110	0.8793	25.26	0.66	0.750			
0.2008	12850.50	4.0080	4.0081	0.8799	25.26	0.66	0.750			
0.2034	13019.51	4.0050	4.0051	0.8841	25.26	0.66	0.750			
0.2061	13192.25	4.0020	4.0019	0.8904	25.27	0.67	0.750			
0.2088	13361.57	3.9990	3.9989	0.8855	25.27	0.67	0.750			
0.2114	13532.20	3.9960	3.9960	0.8865	25.27	0.67	0.750			
0.2141	13703.01	3.9930	3.9930	0.8858	25.27	0.67	0.750			
0.2168	13872.95	3.9900	3.9900	0.8935	25.28	0.68	0.750			
0.2194	14043.63	3.9870	3.9871	0.8942	25.28	0.68	0.750			
0.2221	14214.94	3.9840	3.9837	0.8982	25.28	0.68	0.750			
0.2248	14388.35	3.9810	3.9811	0.9040	25.28	0.68	0.750			
0.2275	14561.67	3.9780	3.9780	0.8960	25.28	0.68	0.750			
0.2302	14733.59	3.9750	3.9751	0.9013	25.28	0.68	0.750			
0.2329	14903.09	3.9720	3.9722	0.8989	25.28	0.68	0.750			
0.2356	15076.46	3.9690	3.9685	0.9140	25.28	0.68	0.750			
0.2384	15254.60	3.9660	3.9661	0.9150	25.28	0.68	0.750			
0.2411	15430.94	3.9630	3.9631	0.9239	25.28	0.68	0.750			
0.2440	15613.08	3.9600	3.9600	0.9331	25.29	0.69	0.750			
0.2467	15789.95	3.9570	3.9570	0.9209	25.29	0.69	0.750			
0.2495	15969.27	3.9540	3.9539	0.9220	25.29	0.69	0.750			
0.2523	16145.49	3.9510	3.9510	0.9237	25.29	0.69	0.750			
0.2551	16323.21	3.9480	3.9481	0.9266	25.30	0.70	0.750			
0.2579	16502.58	3.9450	3.9450	0.9348	25.30	0.70	0.750			
0.2606	16680.09	3.9420	3.9420	0.9304	25.30	0.70	0.750			
0.2635	16864.36	3.9390	3.9389	0.9144	25.30	0.70	0.750			
0.2662	17038.21	3.9360	3.9360	0.9254	25.30	0.70	0.750			
0.2690	17214.04	3.9330	3.9332	0.9334	25.30	0.70	0.750			
0.2717	17391.53	3.9300	3.9298	0.9361	25.30	0.70	0.750			
0.2746	17573.16	3.9270	3.9272	0.9388	25.30	0.70	0.750			
0.2774	17752.98	3.9240	3.9241	0.9432	25.30	0.70	0.750			
0.2803	17936.96	3.9210	3.9211	0.9518	25.30	0.70	0.750			
0.2831	18121.31	3.9180	3.9181	0.9436	25.30	0.70	0.750			
0.2860	18303.83	3.9150	3.9149	0.9509	25.30	0.70	0.750			
0.2889	18487.11	3.9120	3.9121	0.9475	25.30	0.70	0.750			
0.2917	18668.20	3.9090	3.9091	0.9536	25.30	0.70	0.750			
0.2946	18851.34	3.9060	3.9061	0.9655	25.30	0.70	0.750			
0.2974	19036.68	3.9030	3.9022	0.9705	25.30	0.70	0.750			
0.3004	19224.50	3.9000	3.9000	0.9747	25.30	0.70	0.750			
0.3033	19409.88	3.8970	3.8972	0.9606	25.30	0.70	0.750			
0.3062	19593.78	3.8940	3.8942	0.9659	25.30	0.70	0.750			
0.3090	19778.34	3.8910	3.8912	0.9750	25.30	0.70	0.750			
0.3119	19961.70	3.8880	3.8881	0.9667	25.30	0.70	0.750			
0.3148	20147.92	3.8850	3.8852	0.9751	25.29	0.69	0.750			
0.3178	20338.54	3.8820	3.8822	0.9887	25.29	0.69	0.750			
0.3209	20535.26	3.8790	3.8790	1.0047	25.28	0.68	0.750			
0.3238	20722.87	3.8760	3.8760	0.9908	25.28	0.68	0.750			
0.3267	20911.51	3.8730	3.8730	0.9809	25.28	0.68	0.750			
0.3297	21098.80	3.8700	3.8702	0.9850	25.27	0.67	0.750			
0.3326	21288.61	3.8670	3.8672	0.9936	25.27	0.67	0.750			
0.3356	21477.70	3.8640	3.8636	0.9987	25.27	0.67	0.750			
0.3386	21669.26	3.8610	3.8612	0.9941	25.26	0.66	0.750			
0.3416	21860.68	3.8580	3.8581	1.0043	25.26	0.66	0.750			
0.3446	22057.34	3.8550	3.8551	1.0176	25.25	0.65	0.750			
0.3477	22251.65	3.8520	3.8520	1.0077	25.25	0.65	0.750			
0.3507	22446.15	3.8490	3.8491	1.0180	25.24	0.64	0.750			
0.3538	22643.26	3.8460	3.8460	1.0236	25.23	0.63	0.750			
0.3569	22841.40	3.8430	3.8430	1.0312	25.23	0.63	0.750			
0.3600	23039.40	3.8400	3.8400	1.0200	25.22	0.62	0.750			
0.3630	23232.36	3.8370	3.8371	1.0265	25.21	0.61	0.750			
0.3660	23427.02	3.8340	3.8341	1.0377	25.20	0.60	0.750			
0.3692	23627.79	3.8310	3.8312	1.0560	25.19	0.59	0.750	0.261	0.375	
0.3724	23831.45	3.8280	3.8275	1.0682	25.18	0.58	0.750			
0.3756	24040.81	3.8250	3.8252	1.0574	25.17	0.57	0.750			
0.3788	24245.91	3.8220	3.8222	1.0756	25.16	0.56	0.750			
0.3820	24450.97	3.8190	3.8192	1.0756	25.15	0.55	0.750			
0.3853	24658.56	3.8160	3.8152	1.0730	25.14	0.54	0.750			
0.3885	24864.66	3.8130	3.8132	1.0813	25.13	0.53	0.750			
0.3918	25075.12	3.8100	3.8102	1.0871	25.12	0.52	0.750			
0.3952	25290.48	3.8070	3.8071	1.1008	25.11	0.51	0.750			
0.3984	25497.72	3.8040	3.8039	1.0876	25.10	0.50	0.750			
0.4016	25704.12	3.8010	3.8010	1.0881	25.09	0.49	0.750			
0.4049	25910.86	3.7980	3.7981	1.0980	25.08	0.48	0.750			
0.4082	26126.25	3.7950	3.7951	1.0961	25.07	0.47	0.750			
0.4116	26339.56	3.7920	3.7921	1.1029	25.05	0.45	0.750			
0.4148	26549.36	3.7890	3.7893	1.1286	25.04	0.44	0.750			
0.4182	26765.22	3.7860	3.7863	1.1506	25.03	0.43	0.750			
0.4217	26990.67	3.7830	3.7833	1.1756	25.01	0.41	0.750			
0.4252	27214.92	3.7800	3.7802	1.1889	25.00	0.40	0.750			
0.4289	27449.67	3.7770	3.7771	1.2169	24.99	0.39	0.750			
0.4327	27689.95	3.7740	3.7740	1.2390	24.98	0.38	0.750			
0.4364	27928.71	3.7710	3.7710	1.2454	24.97	0.37	0.750			
0.4400	28158.23	3.7680	3.7681	1.2506	24.95	0.35	0.750			
0.4437	28397.52	3.7650	3.7651	1.2893	24.94	0.34	0.750			
0.4476	28648.87	3.7620	3.7615	1.3103	24.93	0.33	0.750			
0.4518	28913.63	3.7590	3.7590	1.3208	24.91	0.31	0.750			
0.4557	29163.61	3.7560	3.7563	1.3621	24.90	0.30	0.750			
0.4598	29424.44	3.7530	3.7521	1.4139	24.88	0.28	0.750			
0.4641	29701.94	3.7500	3.7502	1.4593	24.86	0.26	0.750			
0.4684	29978.65	3.7470	3.7467	1.4714	24.85	0.25	0.750			
0.4731	30276.89	3.7440	3.7441	1.4790	24.83	0.23	0.750			
0.4777	30574.00	3.7410	3.7412	1.5165	24.82	0.22	0.750			
0.4824	30873.88	3.7380	3.7380	1.5285	24.81	0.21	0.750			
0.4867	31151.63	3.7350	3.7355	1.5727	24.79	0.19	0.750			
0.4914	31452.07	3.7320	3.7323	1.6239	24.78	0.18	0.750			
0.4964	31768.84	3.7290	3.7295	1.6988	24.76	0.16	0.750			
0.5016	32102.30	3.7260	3.7259	1.7752	24.75	0.15	0.750			
0.5072	32457.65	3.7230	3.7225	1.8644	24.73	0.13	0.750			
0.5127	32809.86	3.7200	3.7197	1.9073	24.71	0.11	0.750			
0.5184	33180.77	3.7170	3.7166	1.8748	24.69	0.09	0.750			
0.5243	33553.51	3.7140	3.7145	1.9321	24.67	0.07	0.750			
0.5302	33932.47	3.7110	3.7102	2.0281	24.66	0.06	0.750			
0.5361	34310.73	3.7080	3.7079	2.1510	24.64	0.04	0.750			
0.5427	34732.44	3.7050	3.7054	2.2369	24.63	0.03	0.750			
0.5495	35167.40	3.7020	3.7018	2.4434	24.61	0.01	0.750			
0.5570	35649.49	3.6990	3.6999	2.5295	24.59	-0.01	0.750			
0.5650	36159.62	3.6960	3.6963	2.6021	24.57	-0.03	0.750			
0.5730	36670.35	3.6930	3.6930	2.6469	24.55	-0.05	0.750			
0.5806	37160.54	3.6900	3.6896	2.5902	24.53	-0.07	0.750			
0.5878	37621.89	3.6870	3.6868	2.5910	24.52	-0.08	0.750			
0.5959	38135.87	3.6840	3.6840	2.6854	24.50	-0.10	0.750			
0.6039	38649.32	3.6810	3.6811	2.6841	24.49	-0.11	0.750			
0.6121	39177.09	3.6780	3.6781	2.7802	24.48	-0.12	0.750			
0.6207	39721.74	3.6750	3.6750	2.7953	24.47	-0.13	0.750			
0.6291	40264.02	3.6720	3.6716	2.8496	24.46	-0.14	0.750			
0.6379	40824.12	3.6690	3.6688	2.8602	24.46	-0.14	0.750			
0.6466	41385.01	3.6660	3.6658	2.8510	24.46	-0.14	0.750			
0.6551	41928.33	3.6630	3.6628	2.7342	24.47	-0.13	0.750			
0.6631	42440.56	3.6600	3.6599	2.5520	24.47	-0.13	0.750			
0.6705	42912.98	3.6570	3.6571	2.2941	24.48	-0.12	0.750			
0.6770	43325.54	3.6540	3.6543	2.0826	24.49	-0.11	0.750			
0.6828	43697.46	3.6510	3.6513	1.8690	24.50	-0.10	0.750			
0.6881	44035.54	3.6480	3.6478	1.6757	24.51	-0.09	0.750			
0.6927	44333.69	3.6450	3.6453	1.4926	24.51	-0.09	0.750			
0.6970	44607.61	3.6420	3.6420	1.3465	24.52	-0.08	0.750			
0.7006	44840.23	3.6390	3.6391	1.1971	24.53	-0.07	0.750			
0.7039	45051.94	3.6360	3.6360	1.0886	24.53	-0.07	0.750			
0.7068	45236.96	3.6330	3.6330	1.0053	24.54	-0.06	0.750			
0.7097	45420.62	3.6300	3.6297	0.9560	24.54	-0.06	0.750			
0.7125	45597.34	3.6270	3.6271	0.9181	24.54	-0.06	0.750			
0.7152	45769.71	3.6240	3.6240	0.8979	24.55	-0.05	0.750			
0.7178	45941.74	3.6210	3.6210	0.8767	24.55	-0.05	0.750			
0.7205	46108.81	3.6180	3.6180	0.8461	24.56	-0.04	0.750			
0.7230	46272.69	3.6150	3.6150	0.8089	24.56	-0.04	0.750			
0.7254	46426.30	3.6120	3.6121	0.7608	24.57	-0.03	0.750			
0.7277	46574.48	3.6090	3.6089	0.6982	24.58	-0.02	0.750			
0.7297	46702.29	3.6060	3.6059	0.6262	24.58	-0.02	0.750			
0.7314	46812.65	3.6030	3.6031	0.5539	24.59	-0.01	0.750			
0.7330	46911.78	3.6000	3.6002	0.4868	24.59	-0.01	0.750			
0.7343	46996.35	3.5970	3.5972	0.4222	24.60	-0.00	0.750			
0.7355	47071.12	3.5940	3.5942	0.3623	24.60	0.00	0.750			
0.7365	47134.39	3.5910	3.5911	0.3043	24.61	0.01	0.750			
0.7373	47188.21	3.5880	3.5880	0.2503	24.61	0.01	0.750			
0.7380	47231.27	3.5850	3.5851	0.1902	24.61	0.01	0.750			
0.7385	47261.83	3.5820	3.5823	0.1373	24.61	0.01	0.750			
0.7388	47282.82	3.5790	3.5798	0.0710	24.61	0.01	0.751			
