Ah_balance (normalized)	Ah_balance (mAh)	Voltage - fit (V)	Voltage -  interpolate (V)	dQ/dV (1/V)	Temperature (°C)	Temperature - diff (°C)	Current (C)	R_DC 0ms (mOhm)	R_DC 50ms (mOhm)	R_DC 50 ms PEC (mOhm)
0.0469	3001.07	4.1980	4.1981	0.6988	25.89	0.49	0.750			
0.0491	3141.86	4.1950	4.1943	0.7381	25.89	0.49	0.750			
0.0513	3285.59	4.1920	4.1923	0.7516	25.89	0.49	0.750			
0.0536	3429.18	4.1890	4.1891	0.7738	25.89	0.49	0.750			
0.0559	3579.73	4.1860	4.1860	0.7944	25.89	0.49	0.750			
0.0583	3734.25	4.1830	4.1829	0.7976	25.89	0.49	0.750			
0.0609	3894.61	4.1800	4.1799	0.8030	25.89	0.49	0.750			
0.0633	4053.52	4.1770	4.1772	0.8039	25.89	0.49	0.750			
0.0658	4208.89	4.1740	4.1741	0.7933	25.89	0.49	0.750			
0.0681	4358.39	4.1710	4.1709	0.7774	25.89	0.49	0.750			
0.0703	4501.18	4.1680	4.1680	0.7638	25.89	0.49	0.750			
0.0726	4647.05	4.1650	4.1650	0.7636	25.89	0.49	0.750			
0.0749	4793.37	4.1620	4.1620	0.7674	25.89	0.49	0.750			
0.0772	4941.38	4.1590	4.1590	0.7698	25.89	0.49	0.750			
0.0795	5090.03	4.1560	4.1560	0.7701	25.89	0.49	0.750			
0.0819	5238.46	4.1530	4.1530	0.7693	25.89	0.49	0.750			
0.0841	5384.97	4.1500	4.1501	0.7715	25.89	0.49	0.750			
0.0865	5533.74	4.1470	4.1469	0.7718	25.89	0.49	0.750			
0.0888	5682.10	4.1440	4.1440	0.7729	25.89	0.49	0.750			
0.0911	5830.94	4.1410	4.1410	0.7710	25.89	0.49	0.750			
0.0934	5979.01	4.1380	4.1381	0.7752	25.89	0.49	0.750			
0.0958	6128.07	4.1350	4.1350	0.7763	25.89	0.49	0.750			
0.0981	6276.34	4.1320	4.1320	0.7755	25.89	0.49	0.750			
0.1004	6424.56	4.1290	4.1291	0.7745	25.89	0.49	0.750			
0.1027	6575.67	4.1260	4.1260	0.7784	25.89	0.49	0.750			
0.1051	6724.14	4.1230	4.1230	0.7797	25.89	0.49	0.750			
0.1074	6874.07	4.1200	4.1200	0.7842	25.89	0.49	0.750			
0.1097	7023.95	4.1170	4.1171	0.7841	25.89	0.49	0.750			
0.1121	7175.17	4.1140	4.1138	0.7901	25.89	0.49	0.750			
0.1145	7327.67	4.1110	4.1110	0.7940	25.89	0.49	0.750			
0.1169	7481.35	4.1080	4.1080	0.7929	25.89	0.49	0.750			
0.1193	7633.18	4.1050	4.1051	0.7924	25.89	0.49	0.750			
0.1216	7785.37	4.1020	4.1020	0.7912	25.89	0.49	0.750			
0.1240	7936.93	4.0990	4.0989	0.7942	25.89	0.49	0.750			
0.1264	8089.62	4.0960	4.0960	0.7945	25.89	0.49	0.750			
0.1288	8244.97	4.0930	4.0930	0.7801	25.90	0.50	0.750			
0.1312	8394.09	4.0900	4.0900	0.7883	25.90	0.50	0.750			
0.1335	8543.65	4.0870	4.0872	0.7966	25.90	0.50	0.750			
0.1358	8693.84	4.0840	4.0841	0.8024	25.91	0.51	0.750			
0.1383	8849.30	4.0810	4.0811	0.8091	25.91	0.51	0.750			
0.1407	9005.13	4.0780	4.0781	0.8180	25.91	0.51	0.750			
0.1432	9165.69	4.0750	4.0751	0.8262	25.91	0.51	0.750			
0.1458	9329.65	4.0720	4.0719	0.8327	25.91	0.51	0.750			
0.1482	9485.70	4.0690	4.0690	0.8208	25.91	0.51	0.750			
0.1507	9643.00	4.0660	4.0660	0.8230	25.91	0.51	0.750			
0.1532	9801.87	4.0630	4.0630	0.8168	25.91	0.51	0.750			
0.1556	9957.96	4.0600	4.0600	0.8235	25.90	0.50	0.750			
0.1580	10114.98	4.0570	4.0570	0.8247	25.90	0.50	0.750			
0.1605	10272.95	4.0540	4.0541	0.8297	25.90	0.50	0.750			
0.1630	10433.85	4.0510	4.0510	0.8328	25.90	0.50	0.750			
0.1656	10596.56	4.0480	4.0481	0.8292	25.91	0.51	0.750			
0.1680	10754.90	4.0450	4.0450	0.8327	25.91	0.51	0.750			
0.1705	10914.83	4.0420	4.0420	0.8403	25.91	0.51	0.750			
0.1730	11073.51	4.0390	4.0391	0.8356	25.92	0.52	0.750			
0.1756	11235.22	4.0360	4.0361	0.8404	25.92	0.52	0.750			
0.1781	11397.66	4.0330	4.0331	0.8420	25.92	0.52	0.750			
0.1806	11559.86	4.0300	4.0301	0.8496	25.92	0.52	0.750			
0.1832	11724.26	4.0270	4.0270	0.8536	25.92	0.52	0.750			
0.1857	11886.09	4.0240	4.0240	0.8529	25.92	0.52	0.750			
0.1883	12050.12	4.0210	4.0210	0.8568	25.92	0.52	0.750			
0.1909	12216.99	4.0180	4.0181	0.8595	25.92	0.52	0.750			
0.1935	12382.33	4.0150	4.0150	0.8604	25.93	0.53	0.750			
0.1961	12547.47	4.0120	4.0120	0.8610	25.93	0.53	0.750			
0.1986	12711.98	4.0090	4.0089	0.8635	25.93	0.53	0.750			
0.2012	12876.78	4.0060	4.0060	0.8681	25.93	0.53	0.750			
0.2038	13044.19	4.0030	4.0030	0.8705	25.93	0.53	0.750			
0.2064	13212.30	4.0000	4.0000	0.8734	25.93	0.53	0.750			
0.2091	13381.58	3.9970	3.9971	0.8793	25.93	0.53	0.750			
0.2117	13549.75	3.9940	3.9938	0.8811	25.93	0.53	0.750			
0.2144	13719.50	3.9910	3.9910	0.8818	25.93	0.53	0.750			
0.2170	13889.40	3.9880	3.9880	0.8824	25.94	0.54	0.750			
0.2197	14057.75	3.9850	3.9850	0.8867	25.94	0.54	0.750			
0.2223	14229.59	3.9820	3.9820	0.8888	25.95	0.55	0.750			
0.2250	14400.68	3.9790	3.9790	0.8879	25.95	0.55	0.750			
0.2277	14570.85	3.9760	3.9760	0.8847	25.95	0.55	0.750			
0.2303	14740.08	3.9730	3.9731	0.8885	25.95	0.55	0.750			
0.2330	14910.53	3.9700	3.9700	0.8943	25.95	0.55	0.750			
0.2357	15082.21	3.9670	3.9668	0.8986	25.95	0.55	0.750			
0.2384	15254.61	3.9640	3.9641	0.9025	25.95	0.55	0.750			
0.2411	15430.83	3.9610	3.9610	0.9008	25.95	0.55	0.750			
0.2438	15603.07	3.9580	3.9581	0.9036	25.95	0.55	0.750			
0.2465	15776.48	3.9550	3.9551	0.9055	25.95	0.55	0.750			
0.2492	15948.96	3.9520	3.9517	0.9062	25.95	0.55	0.750			
0.2519	16122.52	3.9490	3.9491	0.9071	25.95	0.55	0.750			
0.2547	16297.73	3.9460	3.9460	0.9102	25.96	0.56	0.750			
0.2574	16475.26	3.9430	3.9430	0.9139	25.96	0.56	0.750			
0.2602	16650.49	3.9400	3.9400	0.9101	25.97	0.57	0.750			
0.2629	16824.29	3.9370	3.9370	0.9096	25.97	0.57	0.750			
0.2656	16998.76	3.9340	3.9341	0.9084	25.97	0.57	0.750			
0.2683	17172.87	3.9310	3.9310	0.9112	25.97	0.57	0.750			
0.2711	17348.17	3.9280	3.9280	0.9135	25.97	0.57	0.750			
0.2738	17523.73	3.9250	3.9248	0.9160	25.97	0.57	0.750			
0.2766	17702.76	3.9220	3.9220	0.9125	25.97	0.57	0.750			
0.2793	17875.79	3.9190	3.9190	0.9158	25.97	0.57	0.750			
0.2820	18051.07	3.9160	3.9161	0.9183	25.96	0.56	0.750			
0.2848	18227.80	3.9130	3.9131	0.9229	25.96	0.56	0.750			
0.2876	18403.92	3.9100	3.9099	0.9242	25.96	0.56	0.750			
0.2904	18582.50	3.9070	3.9071	0.9282	25.96	0.56	0.750			
0.2932	18761.62	3.9040	3.9040	0.9315	25.95	0.55	0.750			
0.2960	18942.24	3.9010	3.9010	0.9316	25.95	0.55	0.750			
0.2988	19120.77	3.8980	3.8980	0.9232	25.95	0.55	0.750			
0.3016	19299.73	3.8950	3.8950	0.9193	25.95	0.55	0.750			
0.3043	19473.73	3.8920	3.8921	0.9219	25.95	0.55	0.750			
0.3070	19649.15	3.8890	3.8890	0.9232	25.95	0.55	0.750			
0.3098	19826.69	3.8860	3.8860	0.9257	25.95	0.55	0.750			
0.3126	20004.64	3.8830	3.8829	0.9290	25.95	0.55	0.750			
0.3154	20184.22	3.8800	3.8801	0.9281	25.94	0.54	0.750			
0.3182	20363.35	3.8770	3.8771	0.9343	25.94	0.54	0.750			
0.3210	20542.12	3.8740	3.8740	0.9366	25.94	0.54	0.750			
0.3238	20721.20	3.8710	3.8708	0.9330	25.93	0.53	0.750			
0.3266	20900.67	3.8680	3.8680	0.9355	25.92	0.52	0.750			
0.3294	21081.86	3.8650	3.8651	0.9364	25.91	0.51	0.750			
0.3322	21262.85	3.8620	3.8620	0.9407	25.90	0.50	0.750			
0.3350	21441.60	3.8590	3.8590	0.9369	25.90	0.50	0.750			
0.3379	21622.62	3.8560	3.8560	0.9374	25.89	0.49	0.750			
0.3407	21802.83	3.8530	3.8530	0.9315	25.88	0.48	0.750			
0.3434	21980.73	3.8500	3.8501	0.9366	25.87	0.47	0.750			
0.3463	22160.40	3.8470	3.8472	0.9382	25.87	0.47	0.750			
0.3490	22338.08	3.8440	3.8436	0.9496	25.86	0.46	0.750			
0.3519	22521.91	3.8410	3.8411	0.9461	25.85	0.45	0.750			
0.3548	22704.20	3.8380	3.8380	0.9615	25.85	0.45	0.750			
0.3577	22892.12	3.8350	3.8350	0.9736	25.84	0.44	0.750	0.318	0.428	
0.3606	23078.08	3.8320	3.8322	0.9741	25.83	0.43	0.750			
0.3635	23267.07	3.8290	3.8291	0.9845	25.82	0.42	0.750			
0.3665	23458.29	3.8260	3.8260	0.9874	25.81	0.41	0.750			
0.3695	23645.71	3.8230	3.8230	0.9883	25.81	0.41	0.750			
0.3725	23836.96	3.8200	3.8201	0.9938	25.80	0.40	0.750			
0.3755	24029.97	3.8170	3.8169	0.9971	25.79	0.39	0.750			
0.3785	24221.93	3.8140	3.8140	1.0062	25.78	0.38	0.750			
0.3815	24414.31	3.8110	3.8111	1.0146	25.77	0.37	0.750			
0.3845	24609.89	3.8080	3.8080	1.0264	25.76	0.36	0.750			
0.3877	24810.97	3.8050	3.8050	1.0292	25.75	0.35	0.750			
0.3907	25007.14	3.8020	3.8020	1.0395	25.74	0.34	0.750			
0.3938	25205.74	3.7990	3.7991	1.0539	25.73	0.33	0.750			
0.3970	25410.06	3.7960	3.7961	1.0710	25.72	0.32	0.750			
0.4002	25615.47	3.7930	3.7929	1.0817	25.71	0.31	0.750			
0.4035	25824.23	3.7900	3.7901	1.1040	25.70	0.30	0.750			
0.4069	26039.14	3.7870	3.7870	1.1216	25.69	0.29	0.750			
0.4103	26257.56	3.7840	3.7840	1.1417	25.67	0.27	0.750			
0.4137	26477.40	3.7810	3.7810	1.1496	25.66	0.26	0.750			
0.4172	26699.07	3.7780	3.7781	1.1644	25.65	0.25	0.750			
0.4207	26923.64	3.7750	3.7750	1.1887	25.64	0.24	0.750			
0.4243	27153.97	3.7720	3.7717	1.2031	25.63	0.23	0.750			
0.4280	27388.87	3.7690	3.7691	1.2095	25.62	0.22	0.750			
0.4316	27624.80	3.7660	3.7660	1.2167	25.61	0.21	0.750			
0.4353	27860.83	3.7630	3.7630	1.2290	25.59	0.19	0.750			
0.4389	28092.02	3.7600	3.7603	1.2496	25.58	0.18	0.750			
0.4426	28328.25	3.7570	3.7568	1.2761	25.57	0.17	0.750			
0.4465	28577.31	3.7540	3.7540	1.3008	25.56	0.16	0.750			
0.4506	28835.52	3.7510	3.7509	1.3347	25.55	0.15	0.750			
0.4546	29096.96	3.7480	3.7481	1.3714	25.53	0.13	0.750			
0.4587	29359.83	3.7450	3.7452	1.4408	25.52	0.12	0.750			
0.4631	29640.71	3.7420	3.7421	1.4508	25.51	0.11	0.750			
0.4674	29914.85	3.7390	3.7391	1.4907	25.49	0.09	0.750			
0.4719	30204.36	3.7360	3.7361	1.5329	25.48	0.08	0.750			
0.4767	30506.42	3.7330	3.7326	1.5928	25.46	0.06	0.750			
0.4815	30813.34	3.7300	3.7295	1.6832	25.45	0.05	0.750			
0.4866	31142.43	3.7270	3.7273	1.7145	25.44	0.04	0.750			
0.4921	31496.74	3.7240	3.7242	1.7886	25.42	0.02	0.750			
0.4973	31826.88	3.7210	3.7214	1.7897	25.41	0.01	0.750			
0.5027	32170.44	3.7180	3.7177	1.8205	25.39	-0.01	0.750			
0.5083	32529.62	3.7150	3.7149	1.8739	25.39	-0.01	0.750			
0.5138	32883.91	3.7120	3.7124	1.9198	25.37	-0.03	0.750			
0.5197	33263.67	3.7090	3.7093	2.0418	25.35	-0.05	0.750			
0.5260	33662.92	3.7060	3.7055	2.0830	25.33	-0.07	0.750			
0.5323	34064.22	3.7030	3.7030	2.1719	25.31	-0.09	0.750			
0.5388	34485.16	3.7000	3.6995	2.2090	25.30	-0.10	0.750			
0.5455	34910.72	3.6970	3.6968	2.2489	25.29	-0.11	0.750			
0.5523	35346.23	3.6940	3.6941	2.3037	25.29	-0.11	0.750			
0.5593	35796.15	3.6910	3.6907	2.3344	25.27	-0.13	0.750			
0.5663	36242.74	3.6880	3.6885	2.5449	25.26	-0.14	0.750			
0.5736	36711.07	3.6850	3.6851	2.5153	25.25	-0.15	0.750			
0.5814	37208.69	3.6820	3.6818	2.5996	25.24	-0.16	0.750			
0.5893	37714.15	3.6790	3.6793	2.6656	25.23	-0.17	0.750			
0.5969	38199.26	3.6760	3.6757	2.7626	25.22	-0.18	0.750			
0.6051	38723.44	3.6730	3.6726	2.8356	25.22	-0.18	0.750			
0.6135	39264.67	3.6700	3.6693	2.6790	25.22	-0.18	0.750			
0.6215	39778.68	3.6670	3.6675	2.6057	25.23	-0.17	0.750			
0.6291	40261.17	3.6640	3.6635	2.4156	25.23	-0.17	0.750			
0.6361	40707.38	3.6610	3.6611	2.2734	25.24	-0.16	0.750			
0.6421	41095.57	3.6580	3.6585	2.0081	25.25	-0.15	0.750			
0.6478	41461.15	3.6550	3.6553	1.8166	25.27	-0.13	0.750			
0.6532	41804.49	3.6520	3.6519	1.7106	25.27	-0.13	0.750			
0.6580	42112.40	3.6490	3.6493	1.5672	25.28	-0.12	0.750			
0.6627	42410.34	3.6460	3.6461	1.4532	25.28	-0.12	0.750			
0.6668	42676.18	3.6430	3.6430	1.3487	25.29	-0.11	0.750			
0.6704	42907.85	3.6400	3.6401	1.2131	25.29	-0.11	0.750			
0.6739	43132.60	3.6370	3.6369	1.1422	25.30	-0.10	0.750			
0.6772	43341.24	3.6340	3.6340	1.0515	25.30	-0.10	0.750			
0.6802	43532.91	3.6310	3.6311	1.0176	25.31	-0.09	0.750			
0.6831	43719.28	3.6280	3.6280	0.9792	25.31	-0.09	0.750			
0.6860	43902.12	3.6250	3.6248	0.9475	25.32	-0.08	0.750			
0.6888	44082.42	3.6220	3.6221	0.9230	25.33	-0.07	0.750			
0.6916	44261.15	3.6190	3.6191	0.8847	25.34	-0.06	0.750			
0.6942	44428.58	3.6160	3.6161	0.8531	25.35	-0.05	0.750			
0.6967	44590.78	3.6130	3.6132	0.8058	25.36	-0.04	0.750			
0.6992	44747.01	3.6100	3.6091	0.7378	25.37	-0.03	0.750			
0.7013	44885.08	3.6070	3.6071	0.6694	25.38	-0.02	0.750			
0.7032	45002.93	3.6040	3.6044	0.6153	25.38	-0.02	0.750			
0.7049	45111.68	3.6010	3.6015	0.5638	25.38	-0.02	0.750			
0.7064	45212.32	3.5980	3.5990	0.5033	25.39	-0.01	0.750			
0.7079	45303.71	3.5950	3.5956	0.4586	25.39	-0.01	0.750			
0.7092	45389.77	3.5920	3.5925	0.4105	25.39	-0.01	0.750			
0.7105	45469.38	3.5890	3.5891	0.3646	25.40	-0.00	0.750			
0.7115	45537.08	3.5860	3.5858	0.3026	25.40	-0.00	0.750			
0.7123	45586.17	3.5830	3.5831	0.2387	25.40	0.00	0.750			
0.7129	45627.42	3.5800	3.5801	0.1850	25.40	0.00	0.750			
0.7134	45658.31	3.5770	3.5772	0.1273	25.40	0.00	0.750			
0.7137	45677.34	3.5740	3.5750	0.0643	25.40	0.00	0.750			
