Ah_balance (normalized)	Ah_balance (mAh)	Voltage - fit (V)	Voltage -  interpolate (V)	dQ/dV (1/V)	Temperature (°C)	Temperature - diff (°C)	Current (C)	R_DC 0ms (mOhm)	R_DC 50ms (mOhm)	R_DC 50 ms PEC (mOhm)
0.0475	3040.32	4.1980	4.1979	0.7691	25.56	0.62	0.750			
0.0499	3190.47	4.1950	4.1951	0.7774	25.56	0.62	0.750			
0.0522	3341.59	4.1920	4.1920	0.7662	25.56	0.62	0.750			
0.0545	3485.33	4.1890	4.1890	0.7583	25.55	0.61	0.750			
0.0567	3628.33	4.1860	4.1861	0.7517	25.55	0.61	0.750			
0.0589	3771.79	4.1830	4.1827	0.7530	25.55	0.61	0.750			
0.0612	3916.37	4.1800	4.1800	0.7557	25.55	0.61	0.750			
0.0635	4063.51	4.1770	4.1770	0.7511	25.55	0.61	0.750			
0.0657	4207.96	4.1740	4.1741	0.7543	25.56	0.62	0.750			
0.0680	4354.57	4.1710	4.1710	0.7608	25.56	0.62	0.750			
0.0703	4497.84	4.1680	4.1680	0.7574	25.56	0.62	0.750			
0.0725	4641.85	4.1650	4.1650	0.7583	25.56	0.62	0.750			
0.0748	4789.15	4.1620	4.1620	0.7626	25.56	0.62	0.750			
0.0772	4938.39	4.1590	4.1590	0.7602	25.56	0.62	0.750			
0.0794	5084.26	4.1560	4.1560	0.7652	25.55	0.61	0.750			
0.0817	5229.95	4.1530	4.1531	0.7613	25.55	0.61	0.750			
0.0840	5375.77	4.1500	4.1496	0.7613	25.55	0.61	0.750			
0.0863	5522.66	4.1470	4.1472	0.7643	25.55	0.61	0.750			
0.0886	5669.32	4.1440	4.1440	0.7644	25.55	0.61	0.750			
0.0909	5816.11	4.1410	4.1411	0.7700	25.55	0.61	0.750			
0.0932	5965.87	4.1380	4.1379	0.7733	25.55	0.61	0.750			
0.0955	6112.64	4.1350	4.1350	0.7728	25.55	0.61	0.750			
0.0978	6261.07	4.1320	4.1321	0.7773	25.55	0.61	0.750			
0.1002	6411.32	4.1290	4.1291	0.7763	25.55	0.61	0.750			
0.1025	6560.70	4.1260	4.1260	0.7795	25.55	0.61	0.750			
0.1048	6710.36	4.1230	4.1230	0.7805	25.55	0.61	0.750			
0.1072	6859.93	4.1200	4.1200	0.7809	25.55	0.61	0.750			
0.1096	7011.52	4.1170	4.1169	0.7837	25.55	0.61	0.750			
0.1119	7161.59	4.1140	4.1140	0.7823	25.55	0.61	0.750			
0.1143	7312.94	4.1110	4.1111	0.7766	25.55	0.61	0.750			
0.1166	7461.09	4.1080	4.1080	0.7831	25.56	0.62	0.750			
0.1189	7610.33	4.1050	4.1050	0.7853	25.56	0.62	0.750			
0.1212	7759.04	4.1020	4.1018	0.7905	25.56	0.62	0.750			
0.1236	7911.87	4.0990	4.0991	0.7952	25.56	0.62	0.750			
0.1261	8069.98	4.0960	4.0960	0.7885	25.56	0.62	0.750			
0.1284	8219.17	4.0930	4.0930	0.7933	25.56	0.62	0.750			
0.1308	8372.51	4.0900	4.0901	0.7951	25.56	0.62	0.750			
0.1332	8521.93	4.0870	4.0871	0.7942	25.56	0.62	0.750			
0.1355	8673.72	4.0840	4.0839	0.7980	25.56	0.62	0.750			
0.1379	8828.59	4.0810	4.0811	0.7975	25.56	0.62	0.750			
0.1404	8983.29	4.0780	4.0781	0.8064	25.56	0.62	0.750			
0.1428	9138.85	4.0750	4.0750	0.8121	25.56	0.62	0.750			
0.1452	9293.16	4.0720	4.0720	0.8096	25.56	0.62	0.750			
0.1477	9450.05	4.0690	4.0690	0.8108	25.56	0.62	0.750			
0.1501	9605.58	4.0660	4.0661	0.8127	25.56	0.62	0.750			
0.1526	9764.34	4.0630	4.0630	0.8013	25.56	0.62	0.750			
0.1549	9914.63	4.0600	4.0600	0.8118	25.57	0.63	0.750			
0.1573	10067.40	4.0570	4.0571	0.8124	25.57	0.63	0.750			
0.1598	10224.17	4.0540	4.0534	0.8209	25.57	0.63	0.750			
0.1622	10382.29	4.0510	4.0512	0.8311	25.57	0.63	0.750			
0.1648	10544.29	4.0480	4.0481	0.8302	25.57	0.63	0.750			
0.1673	10705.83	4.0450	4.0451	0.8382	25.57	0.63	0.750			
0.1698	10865.99	4.0420	4.0421	0.8292	25.57	0.63	0.750			
0.1723	11024.24	4.0390	4.0387	0.8319	25.57	0.63	0.750			
0.1748	11185.78	4.0360	4.0361	0.8341	25.57	0.63	0.750			
0.1773	11345.81	4.0330	4.0331	0.8385	25.57	0.63	0.750			
0.1798	11507.86	4.0300	4.0300	0.8458	25.56	0.62	0.750			
0.1823	11669.55	4.0270	4.0271	0.8427	25.56	0.62	0.750			
0.1849	11832.36	4.0240	4.0239	0.8467	25.56	0.62	0.750			
0.1874	11996.34	4.0210	4.0210	0.8530	25.56	0.62	0.750			
0.1900	12161.28	4.0180	4.0180	0.8397	25.56	0.62	0.750			
0.1925	12320.30	4.0150	4.0151	0.8410	25.57	0.63	0.750			
0.1950	12478.12	4.0120	4.0122	0.8470	25.57	0.63	0.750			
0.1975	12641.05	4.0090	4.0088	0.8561	25.57	0.63	0.750			
0.2001	12807.05	4.0060	4.0061	0.8592	25.57	0.63	0.750			
0.2027	12973.49	4.0030	4.0032	0.8656	25.57	0.63	0.750			
0.2054	13144.61	4.0000	4.0000	0.8746	25.57	0.63	0.750			
0.2081	13317.24	3.9970	3.9970	0.8817	25.57	0.63	0.750			
0.2106	13477.11	3.9940	3.9940	0.8719	25.57	0.63	0.750			
0.2132	13645.97	3.9910	3.9911	0.8706	25.57	0.63	0.750			
0.2158	13813.64	3.9880	3.9880	0.8775	25.57	0.63	0.750			
0.2185	13982.92	3.9850	3.9851	0.8779	25.57	0.63	0.750			
0.2211	14151.84	3.9820	3.9819	0.8786	25.57	0.63	0.750			
0.2238	14320.07	3.9790	3.9791	0.8775	25.57	0.63	0.750			
0.2264	14490.96	3.9760	3.9759	0.8645	25.57	0.63	0.750			
0.2290	14654.37	3.9730	3.9731	0.8707	25.57	0.63	0.750			
0.2316	14820.24	3.9700	3.9701	0.8811	25.57	0.63	0.750			
0.2342	14987.37	3.9670	3.9664	0.8822	25.57	0.63	0.750			
0.2369	15159.98	3.9640	3.9641	0.8832	25.57	0.63	0.750			
0.2395	15329.53	3.9610	3.9611	0.8909	25.57	0.63	0.750			
0.2422	15502.73	3.9580	3.9582	0.8975	25.57	0.63	0.750			
0.2450	15680.87	3.9550	3.9549	0.9073	25.57	0.63	0.750			
0.2476	15847.47	3.9520	3.9520	0.8966	25.57	0.63	0.750			
0.2503	16021.94	3.9490	3.9491	0.8926	25.57	0.63	0.750			
0.2530	16194.81	3.9460	3.9460	0.8981	25.57	0.63	0.750			
0.2557	16367.88	3.9430	3.9431	0.8961	25.57	0.63	0.750			
0.2584	16537.13	3.9400	3.9400	0.8906	25.57	0.63	0.750			
0.2611	16708.32	3.9370	3.9370	0.8922	25.57	0.63	0.750			
0.2637	16879.70	3.9340	3.9340	0.8847	25.57	0.63	0.750			
0.2664	17047.39	3.9310	3.9311	0.8882	25.56	0.62	0.750			
0.2690	17217.71	3.9280	3.9281	0.8925	25.56	0.62	0.750			
0.2717	17389.73	3.9250	3.9244	0.9029	25.56	0.62	0.750			
0.2745	17566.07	3.9220	3.9220	0.8988	25.56	0.62	0.750			
0.2772	17738.52	3.9190	3.9191	0.9014	25.56	0.62	0.750			
0.2799	17914.59	3.9160	3.9161	0.9078	25.56	0.62	0.750			
0.2827	18091.11	3.9130	3.9130	0.9130	25.56	0.62	0.750			
0.2853	18259.50	3.9100	3.9100	0.8970	25.56	0.62	0.750			
0.2880	18433.03	3.9070	3.9070	0.8932	25.55	0.61	0.750			
0.2907	18603.77	3.9040	3.9041	0.9000	25.55	0.61	0.750			
0.2934	18778.46	3.9010	3.9010	0.9050	25.55	0.61	0.750			
0.2961	18950.99	3.8980	3.8978	0.8995	25.54	0.60	0.750			
0.2988	19123.92	3.8950	3.8951	0.9019	25.54	0.60	0.750			
0.3015	19297.53	3.8920	3.8921	0.8950	25.53	0.59	0.750			
0.3042	19469.01	3.8890	3.8891	0.9010	25.53	0.59	0.750			
0.3069	19639.91	3.8860	3.8861	0.9001	25.52	0.58	0.750			
0.3096	19813.33	3.8830	3.8828	0.9029	25.52	0.58	0.750			
0.3123	19989.17	3.8800	3.8801	0.9047	25.51	0.57	0.750			
0.3151	20163.49	3.8770	3.8770	0.9094	25.50	0.56	0.750			
0.3178	20340.24	3.8740	3.8741	0.9150	25.49	0.55	0.750			
0.3205	20514.16	3.8710	3.8711	0.9083	25.48	0.54	0.750			
0.3233	20688.88	3.8680	3.8680	0.9080	25.48	0.54	0.750			
0.3260	20862.99	3.8650	3.8650	0.9043	25.47	0.53	0.750			
0.3287	21037.16	3.8620	3.8621	0.9089	25.46	0.52	0.750			
0.3314	21211.32	3.8590	3.8591	0.9145	25.46	0.52	0.750			
0.3341	21384.55	3.8560	3.8556	0.9168	25.45	0.51	0.750			
0.3369	21561.54	3.8530	3.8531	0.9192	25.44	0.50	0.750			
0.3397	21739.49	3.8500	3.8500	0.9114	25.43	0.49	0.750			
0.3424	21911.95	3.8470	3.8472	0.9263	25.42	0.48	0.750			
0.3451	22089.47	3.8440	3.8442	0.9449	25.41	0.47	0.750			
0.3479	22268.12	3.8410	3.8411	0.9458	25.40	0.46	0.750			
0.3508	22453.24	3.8380	3.8383	0.9413	25.39	0.45	0.750	0.331	0.451	
0.3537	22634.48	3.8350	3.8353	0.9569	25.38	0.44	0.750			
0.3566	22822.41	3.8320	3.8322	0.9652	25.38	0.44	0.750			
0.3595	23005.73	3.8290	3.8283	0.9617	25.37	0.43	0.750			
0.3623	23189.18	3.8260	3.8261	0.9500	25.36	0.42	0.750			
0.3652	23373.31	3.8230	3.8232	0.9703	25.35	0.41	0.750			
0.3682	23563.70	3.8200	3.8200	0.9882	25.33	0.39	0.750			
0.3711	23752.35	3.8170	3.8168	0.9876	25.32	0.38	0.750			
0.3741	23942.07	3.8140	3.8141	0.9987	25.32	0.38	0.750			
0.3771	24133.85	3.8110	3.8111	0.9968	25.31	0.37	0.750			
0.3801	24323.61	3.8080	3.8082	1.0113	25.31	0.37	0.750			
0.3831	24519.23	3.8050	3.8051	1.0282	25.30	0.36	0.750			
0.3862	24716.89	3.8020	3.8021	1.0244	25.30	0.36	0.750			
0.3893	24913.92	3.7990	3.7992	1.0469	25.29	0.35	0.750			
0.3925	25117.68	3.7960	3.7962	1.0675	25.28	0.34	0.750			
0.3957	25328.00	3.7930	3.7929	1.0885	25.27	0.33	0.750			
0.3990	25534.63	3.7900	3.7901	1.0855	25.26	0.32	0.750			
0.4022	25742.46	3.7870	3.7871	1.1017	25.25	0.31	0.750			
0.4056	25957.37	3.7840	3.7841	1.1233	25.24	0.30	0.750			
0.4090	26176.68	3.7810	3.7808	1.1464	25.22	0.28	0.750			
0.4124	26394.16	3.7780	3.7781	1.1434	25.21	0.27	0.750			
0.4158	26610.86	3.7750	3.7752	1.1760	25.20	0.26	0.750			
0.4193	26838.28	3.7720	3.7721	1.2069	25.19	0.25	0.750			
0.4230	27072.47	3.7690	3.7692	1.2201	25.18	0.24	0.750			
0.4267	27309.97	3.7660	3.7662	1.2557	25.16	0.22	0.750			
0.4306	27555.43	3.7630	3.7632	1.2928	25.15	0.21	0.750			
0.4345	27809.43	3.7600	3.7595	1.3129	25.14	0.20	0.750			
0.4384	28059.61	3.7570	3.7572	1.3269	25.13	0.19	0.750			
0.4425	28318.24	3.7540	3.7541	1.3604	25.12	0.18	0.750			
0.4466	28584.95	3.7510	3.7507	1.3853	25.11	0.17	0.750			
0.4509	28859.57	3.7480	3.7480	1.3688	25.10	0.16	0.750			
0.4549	29113.84	3.7450	3.7452	1.4386	25.09	0.15	0.750			
0.4594	29401.27	3.7420	3.7413	1.4366	25.08	0.14	0.750			
0.4637	29678.42	3.7390	3.7386	1.4604	25.07	0.13	0.750			
0.4680	29954.90	3.7360	3.7366	1.5388	25.05	0.11	0.750			
0.4728	30260.22	3.7330	3.7332	1.5834	25.04	0.10	0.750			
0.4777	30571.41	3.7300	3.7299	1.6576	25.02	0.08	0.750			
0.4826	30885.78	3.7270	3.7274	1.6647	25.01	0.07	0.750			
0.4878	31219.21	3.7240	3.7236	1.7079	24.99	0.05	0.750			
0.4932	31562.99	3.7210	3.7208	1.7671	24.97	0.03	0.750			
0.4985	31900.97	3.7180	3.7177	1.8020	24.96	0.02	0.750			
0.5038	32243.05	3.7150	3.7147	1.8732	24.95	0.01	0.750			
0.5094	32603.18	3.7120	3.7118	1.9315	24.94	-0.00	0.750			
0.5153	32981.14	3.7090	3.7088	1.9972	24.92	-0.02	0.750			
0.5214	33372.29	3.7060	3.7063	2.0633	24.90	-0.04	0.750			
0.5278	33779.11	3.7030	3.7034	2.1160	24.89	-0.05	0.750			
0.5341	34184.78	3.7000	3.6995	2.1863	24.88	-0.06	0.750			
0.5410	34621.89	3.6970	3.6974	2.2535	24.87	-0.07	0.750			
0.5478	35061.56	3.6940	3.6943	2.2983	24.86	-0.08	0.750			
0.5549	35510.46	3.6910	3.6912	2.3718	24.85	-0.09	0.750			
0.5619	35963.08	3.6880	3.6879	2.4792	24.84	-0.10	0.750			
0.5691	36425.36	3.6850	3.6855	2.4743	24.82	-0.12	0.750			
0.5765	36896.39	3.6820	3.6813	2.4681	24.82	-0.12	0.750			
0.5839	37369.96	3.6790	3.6791	2.6104	24.81	-0.13	0.750			
0.5919	37884.67	3.6760	3.6757	2.5647	24.80	-0.14	0.750			
0.5997	38377.89	3.6730	3.6729	2.5849	24.79	-0.15	0.750			
0.6070	38847.03	3.6700	3.6700	2.4109	24.80	-0.14	0.750			
0.6140	39297.22	3.6670	3.6670	2.2415	24.80	-0.14	0.750			
0.6210	39741.42	3.6640	3.6641	2.1724	24.80	-0.14	0.750			
0.6273	40147.68	3.6610	3.6610	2.0691	24.80	-0.14	0.750			
0.6328	40499.26	3.6580	3.6583	1.7901	24.80	-0.14	0.750			
0.6380	40830.79	3.6550	3.6550	1.6634	24.81	-0.13	0.750			
0.6428	41137.45	3.6520	3.6522	1.5440	24.81	-0.13	0.750			
0.6471	41414.57	3.6490	3.6486	1.4102	24.82	-0.12	0.750			
0.6512	41675.86	3.6460	3.6462	1.3122	24.83	-0.11	0.750			
0.6550	41921.50	3.6430	3.6432	1.2334	24.83	-0.11	0.750			
0.6585	42142.63	3.6400	3.6398	1.1596	24.84	-0.10	0.750			
0.6619	42361.94	3.6370	3.6370	1.0972	24.85	-0.09	0.750			
0.6649	42555.26	3.6340	3.6340	1.0347	24.85	-0.09	0.750			
0.6679	42748.72	3.6310	3.6312	0.9983	24.86	-0.08	0.750			
0.6709	42940.25	3.6280	3.6278	0.9723	24.87	-0.07	0.750			
0.6737	43117.76	3.6250	3.6250	0.9308	24.87	-0.07	0.750			
0.6765	43296.35	3.6220	3.6220	0.8886	24.88	-0.06	0.750			
0.6791	43463.16	3.6190	3.6190	0.8554	24.89	-0.05	0.750			
0.6817	43627.61	3.6160	3.6161	0.8207	24.89	-0.05	0.750			
0.6841	43780.23	3.6130	3.6127	0.7730	24.90	-0.04	0.750			
0.6863	43924.42	3.6100	3.6101	0.7255	24.91	-0.03	0.750			
0.6885	44063.08	3.6070	3.6070	0.6646	24.91	-0.03	0.750			
0.6904	44184.57	3.6040	3.6040	0.6131	24.92	-0.02	0.750			
0.6922	44301.06	3.6010	3.6010	0.5614	24.93	-0.01	0.750			
0.6937	44396.10	3.5980	3.5984	0.5018	24.93	-0.01	0.750			
0.6951	44486.60	3.5950	3.5953	0.4535	24.93	-0.01	0.750			
0.6964	44568.91	3.5920	3.5920	0.4048	24.94	-0.00	0.750			
0.6976	44645.69	3.5890	3.5889	0.3561	24.94	0.00	0.750			
0.6986	44710.29	3.5860	3.5862	0.3097	24.95	0.01	0.750			
0.6995	44765.95	3.5830	3.5830	0.2561	24.95	0.01	0.750			
0.7002	44813.41	3.5800	3.5799	0.2084	24.95	0.01	0.750			
0.7007	44846.61	3.5770	3.5772	0.1494	24.95	0.01	0.750			
0.7011	44870.19	3.5740	3.5746	0.0931	24.95	0.01	0.750			
0.7013	44881.94	3.5710	3.5727	0.0377	24.95	0.01	0.750			
0.7013	44883.85	3.5680	3.5724	-0.0177	24.95	0.01	0.750			
