Ah_balance (normalized)	Ah_balance (mAh)	Voltage - fit (V)	Voltage -  interpolate (V)	dQ/dV (1/V)	Temperature (°C)	Temperature - diff (°C)	Current (C)	R_DC 0ms (mOhm)	R_DC 50ms (mOhm)	R_DC 50 ms PEC (mOhm)
0.0478	3062.01	4.1980	4.1980	0.7436	25.78	0.64	0.750			
0.0501	3205.29	4.1950	4.1950	0.7454	25.78	0.64	0.750			
0.0523	3348.45	4.1920	4.1920	0.7477	25.79	0.65	0.750			
0.0546	3492.09	4.1890	4.1891	0.7524	25.79	0.65	0.750			
0.0568	3637.98	4.1860	4.1854	0.7546	25.79	0.65	0.750			
0.0591	3782.18	4.1830	4.1831	0.7565	25.79	0.65	0.750			
0.0614	3927.56	4.1800	4.1801	0.7587	25.79	0.65	0.750			
0.0637	4074.58	4.1770	4.1770	0.7595	25.80	0.66	0.750			
0.0660	4221.38	4.1740	4.1740	0.7634	25.80	0.66	0.750			
0.0682	4365.85	4.1710	4.1710	0.7632	25.80	0.66	0.750			
0.0705	4513.42	4.1680	4.1679	0.7593	25.80	0.66	0.750			
0.0728	4659.97	4.1650	4.1650	0.7627	25.80	0.66	0.750			
0.0751	4805.32	4.1620	4.1621	0.7587	25.80	0.66	0.750			
0.0773	4950.29	4.1590	4.1590	0.7626	25.81	0.67	0.750			
0.0796	5096.67	4.1560	4.1560	0.7627	25.81	0.67	0.750			
0.0819	5242.85	4.1530	4.1527	0.7634	25.81	0.67	0.750			
0.0842	5389.39	4.1500	4.1501	0.7666	25.81	0.67	0.750			
0.0866	5539.37	4.1470	4.1470	0.7675	25.81	0.67	0.750			
0.0888	5685.57	4.1440	4.1440	0.7689	25.81	0.67	0.750			
0.0912	5834.03	4.1410	4.1409	0.7725	25.81	0.67	0.750			
0.0934	5980.71	4.1380	4.1382	0.7683	25.81	0.67	0.750			
0.0958	6129.01	4.1350	4.1351	0.7744	25.81	0.67	0.750			
0.0981	6278.69	4.1320	4.1320	0.7767	25.81	0.67	0.750			
0.1004	6428.02	4.1290	4.1290	0.7774	25.81	0.67	0.750			
0.1028	6577.72	4.1260	4.1259	0.7816	25.82	0.68	0.750			
0.1051	6726.50	4.1230	4.1231	0.7779	25.82	0.68	0.750			
0.1074	6876.66	4.1200	4.1200	0.7795	25.82	0.68	0.750			
0.1098	7026.57	4.1170	4.1170	0.7812	25.82	0.68	0.750			
0.1121	7175.59	4.1140	4.1141	0.7785	25.82	0.68	0.750			
0.1145	7325.42	4.1110	4.1110	0.7807	25.82	0.68	0.750			
0.1168	7474.44	4.1080	4.1080	0.7849	25.82	0.68	0.750			
0.1191	7625.08	4.1050	4.1048	0.7902	25.82	0.68	0.750			
0.1215	7777.80	4.1020	4.1020	0.7947	25.82	0.68	0.750			
0.1240	7933.70	4.0990	4.0989	0.7873	25.82	0.68	0.750			
0.1263	8084.68	4.0960	4.0961	0.7914	25.83	0.69	0.750			
0.1287	8236.33	4.0930	4.0931	0.7923	25.83	0.69	0.750			
0.1310	8386.59	4.0900	4.0901	0.7940	25.83	0.69	0.750			
0.1334	8538.10	4.0870	4.0870	0.7977	25.83	0.69	0.750			
0.1358	8692.28	4.0840	4.0840	0.7970	25.83	0.69	0.750			
0.1382	8846.43	4.0810	4.0811	0.8037	25.83	0.69	0.750			
0.1407	9005.25	4.0780	4.0780	0.8100	25.84	0.70	0.750			
0.1431	9156.56	4.0750	4.0750	0.8045	25.84	0.70	0.750			
0.1455	9310.14	4.0720	4.0720	0.8076	25.84	0.70	0.750			
0.1479	9467.55	4.0690	4.0690	0.8043	25.84	0.70	0.750			
0.1503	9621.48	4.0660	4.0660	0.8090	25.84	0.70	0.750			
0.1528	9776.89	4.0630	4.0631	0.8147	25.85	0.71	0.750			
0.1552	9932.71	4.0600	4.0602	0.8170	25.85	0.71	0.750			
0.1577	10090.78	4.0570	4.0568	0.8233	25.85	0.71	0.750			
0.1602	10251.50	4.0540	4.0540	0.8166	25.85	0.71	0.750			
0.1626	10407.14	4.0510	4.0511	0.8231	25.85	0.71	0.750			
0.1651	10565.42	4.0480	4.0481	0.8300	25.85	0.71	0.750			
0.1676	10724.60	4.0450	4.0451	0.8302	25.85	0.71	0.750			
0.1701	10883.29	4.0420	4.0419	0.8338	25.85	0.71	0.750			
0.1726	11045.57	4.0390	4.0391	0.8355	25.85	0.71	0.750			
0.1751	11207.70	4.0360	4.0361	0.8415	25.86	0.72	0.750			
0.1777	11370.14	4.0330	4.0330	0.8450	25.86	0.72	0.750			
0.1802	11531.52	4.0300	4.0300	0.8384	25.87	0.73	0.750			
0.1827	11691.58	4.0270	4.0270	0.8433	25.87	0.73	0.750			
0.1853	11856.16	4.0240	4.0240	0.8405	25.87	0.73	0.750			
0.1878	12017.34	4.0210	4.0211	0.8449	25.87	0.73	0.750			
0.1903	12179.89	4.0180	4.0180	0.8477	25.87	0.73	0.750			
0.1928	12341.63	4.0150	4.0151	0.8503	25.87	0.73	0.750			
0.1954	12503.88	4.0120	4.0119	0.8551	25.87	0.73	0.750			
0.1980	12671.32	4.0090	4.0090	0.8541	25.88	0.74	0.750			
0.2005	12835.15	4.0060	4.0061	0.8578	25.88	0.74	0.750			
0.2031	13001.24	4.0030	4.0030	0.8638	25.88	0.74	0.750			
0.2057	13166.44	4.0000	4.0002	0.8638	25.89	0.75	0.750			
0.2083	13331.66	3.9970	3.9971	0.8674	25.89	0.75	0.750			
0.2109	13498.66	3.9940	3.9940	0.8694	25.89	0.75	0.750			
0.2135	13666.60	3.9910	3.9911	0.8727	25.89	0.75	0.750			
0.2162	13835.25	3.9880	3.9880	0.8791	25.89	0.75	0.750			
0.2188	14004.16	3.9850	3.9850	0.8797	25.89	0.75	0.750			
0.2215	14172.86	3.9820	3.9820	0.8830	25.89	0.75	0.750			
0.2241	14343.57	3.9790	3.9790	0.8777	25.90	0.76	0.750			
0.2267	14511.81	3.9760	3.9761	0.8790	25.90	0.76	0.750			
0.2294	14679.51	3.9730	3.9731	0.8805	25.91	0.77	0.750			
0.2320	14848.81	3.9700	3.9696	0.8846	25.91	0.77	0.750			
0.2347	15019.43	3.9670	3.9670	0.8828	25.91	0.77	0.750			
0.2373	15189.38	3.9640	3.9641	0.8881	25.91	0.77	0.750			
0.2400	15361.81	3.9610	3.9610	0.8976	25.90	0.76	0.750			
0.2427	15534.44	3.9580	3.9581	0.8970	25.90	0.76	0.750			
0.2454	15707.52	3.9550	3.9550	0.8951	25.90	0.76	0.750			
0.2481	15881.11	3.9520	3.9521	0.8870	25.90	0.76	0.750			
0.2508	16049.87	3.9490	3.9491	0.8920	25.90	0.76	0.750			
0.2535	16220.87	3.9460	3.9460	0.8925	25.91	0.77	0.750			
0.2561	16390.80	3.9430	3.9429	0.8917	25.91	0.77	0.750			
0.2588	16561.97	3.9400	3.9401	0.8958	25.91	0.77	0.750			
0.2615	16735.94	3.9370	3.9371	0.9023	25.91	0.77	0.750			
0.2642	16911.27	3.9340	3.9339	0.9073	25.91	0.77	0.750			
0.2670	17087.98	3.9310	3.9310	0.9081	25.91	0.77	0.750			
0.2697	17259.58	3.9280	3.9280	0.8996	25.91	0.77	0.750			
0.2724	17434.59	3.9250	3.9250	0.8941	25.91	0.77	0.750			
0.2750	17603.11	3.9220	3.9220	0.8950	25.91	0.77	0.750			
0.2777	17774.42	3.9190	3.9190	0.8975	25.91	0.77	0.750			
0.2804	17947.37	3.9160	3.9161	0.9019	25.91	0.77	0.750			
0.2831	18120.46	3.9130	3.9130	0.9041	25.91	0.77	0.750			
0.2859	18295.37	3.9100	3.9100	0.9048	25.91	0.77	0.750			
0.2886	18469.72	3.9070	3.9070	0.9069	25.91	0.77	0.750			
0.2913	18644.26	3.9040	3.9040	0.9072	25.91	0.77	0.750			
0.2940	18816.58	3.9010	3.9010	0.9031	25.91	0.77	0.750			
0.2968	18992.77	3.8980	3.8980	0.9021	25.91	0.77	0.750			
0.2995	19165.30	3.8950	3.8951	0.9018	25.90	0.76	0.750			
0.3022	19338.45	3.8920	3.8920	0.9028	25.90	0.76	0.750			
0.3049	19511.89	3.8890	3.8891	0.9019	25.89	0.75	0.750			
0.3076	19683.37	3.8860	3.8859	0.8995	25.89	0.75	0.750			
0.3103	19858.34	3.8830	3.8830	0.8904	25.88	0.74	0.750			
0.3129	20027.23	3.8800	3.8801	0.8972	25.88	0.74	0.750			
0.3156	20198.59	3.8770	3.8771	0.9066	25.88	0.74	0.750			
0.3183	20371.78	3.8740	3.8741	0.9101	25.87	0.73	0.750			
0.3211	20549.11	3.8710	3.8711	0.9157	25.87	0.73	0.750			
0.3239	20727.16	3.8680	3.8681	0.9213	25.86	0.72	0.750			
0.3267	20905.94	3.8650	3.8651	0.9229	25.85	0.71	0.750			
0.3295	21086.64	3.8620	3.8620	0.9255	25.84	0.70	0.750			
0.3322	21258.46	3.8590	3.8590	0.9179	25.83	0.69	0.750			
0.3349	21435.70	3.8560	3.8560	0.9150	25.82	0.68	0.750			
0.3377	21610.89	3.8530	3.8529	0.9179	25.81	0.67	0.750			
0.3404	21787.45	3.8500	3.8501	0.9221	25.80	0.66	0.750			
0.3432	21964.00	3.8470	3.8471	0.9265	25.79	0.65	0.750			
0.3459	22140.56	3.8440	3.8440	0.9351	25.79	0.65	0.750			
0.3488	22320.71	3.8410	3.8410	0.9335	25.78	0.64	0.750			
0.3515	22499.10	3.8380	3.8380	0.9424	25.77	0.63	0.750	0.326	0.452	
0.3544	22682.44	3.8350	3.8352	0.9551	25.76	0.62	0.750			
0.3573	22864.88	3.8320	3.8315	0.9621	25.75	0.61	0.750			
0.3602	23050.85	3.8290	3.8292	0.9726	25.74	0.60	0.750			
0.3631	23240.77	3.8260	3.8260	0.9769	25.73	0.59	0.750			
0.3661	23429.83	3.8230	3.8230	0.9827	25.72	0.58	0.750			
0.3691	23621.57	3.8200	3.8200	0.9975	25.71	0.57	0.750			
0.3720	23808.26	3.8170	3.8170	0.9852	25.70	0.56	0.750			
0.3750	23996.84	3.8140	3.8139	0.9937	25.69	0.55	0.750			
0.3779	24186.35	3.8110	3.8110	0.9987	25.68	0.54	0.750			
0.3809	24377.89	3.8080	3.8080	1.0126	25.67	0.53	0.750			
0.3840	24576.85	3.8050	3.8049	1.0167	25.66	0.52	0.750			
0.3870	24770.93	3.8020	3.8021	1.0320	25.65	0.51	0.750			
0.3901	24968.92	3.7990	3.7991	1.0509	25.64	0.50	0.750			
0.3933	25173.02	3.7960	3.7960	1.0733	25.63	0.49	0.750			
0.3966	25379.38	3.7930	3.7931	1.0883	25.62	0.48	0.750			
0.3999	25590.98	3.7900	3.7900	1.1050	25.61	0.47	0.750			
0.4032	25805.78	3.7870	3.7871	1.1187	25.60	0.46	0.750			
0.4067	26025.68	3.7840	3.7840	1.1365	25.58	0.44	0.750			
0.4100	26240.94	3.7810	3.7810	1.1439	25.57	0.43	0.750			
0.4134	26460.32	3.7780	3.7780	1.1659	25.56	0.42	0.750			
0.4169	26683.97	3.7750	3.7750	1.1855	25.55	0.41	0.750			
0.4205	26914.63	3.7720	3.7720	1.2024	25.54	0.40	0.750			
0.4242	27146.76	3.7690	3.7690	1.2312	25.52	0.38	0.750			
0.4279	27385.17	3.7660	3.7661	1.2600	25.50	0.36	0.750			
0.4317	27629.55	3.7630	3.7627	1.2843	25.48	0.34	0.750			
0.4356	27876.87	3.7600	3.7601	1.3113	25.47	0.33	0.750			
0.4396	28131.89	3.7570	3.7570	1.3429	25.46	0.32	0.750			
0.4437	28396.09	3.7540	3.7539	1.3681	25.45	0.31	0.750			
0.4478	28657.52	3.7510	3.7510	1.3947	25.44	0.30	0.750			
0.4520	28927.36	3.7480	3.7481	1.4316	25.43	0.29	0.750			
0.4563	29205.03	3.7450	3.7447	1.4611	25.41	0.27	0.750			
0.4607	29487.70	3.7420	3.7421	1.4945	25.40	0.26	0.750			
0.4653	29777.76	3.7390	3.7391	1.5328	25.38	0.24	0.750			
0.4700	30079.28	3.7360	3.7360	1.5663	25.37	0.23	0.750			
0.4747	30379.88	3.7330	3.7329	1.6005	25.35	0.21	0.750			
0.4795	30690.74	3.7300	3.7302	1.6566	25.32	0.18	0.750			
0.4846	31011.45	3.7270	3.7270	1.6990	25.30	0.16	0.750			
0.4897	31343.65	3.7240	3.7239	1.7680	25.29	0.15	0.750			
0.4950	31678.78	3.7210	3.7210	1.7871	25.27	0.13	0.750			
0.5005	32029.54	3.7180	3.7179	1.8484	25.25	0.11	0.750			
0.5061	32389.01	3.7150	3.7148	1.9007	25.22	0.08	0.750			
0.5118	32752.94	3.7120	3.7120	1.9731	25.21	0.07	0.750			
0.5180	33148.97	3.7090	3.7089	2.0324	25.19	0.05	0.750			
0.5240	33538.93	3.7060	3.7059	2.1113	25.18	0.04	0.750			
0.5305	33955.06	3.7030	3.7031	2.1583	25.16	0.02	0.750			
0.5371	34374.20	3.7000	3.7000	2.2225	25.14	0.00	0.750			
0.5441	34819.98	3.6970	3.6970	2.2656	25.12	-0.02	0.750			
0.5508	35254.23	3.6940	3.6939	2.3264	25.11	-0.03	0.750			
0.5579	35705.09	3.6910	3.6912	2.3500	25.10	-0.04	0.750			
0.5650	36156.95	3.6880	3.6880	2.4170	25.08	-0.06	0.750			
0.5723	36625.16	3.6850	3.6847	2.4959	25.07	-0.07	0.750			
0.5800	37119.95	3.6820	3.6819	2.5873	25.06	-0.08	0.750			
0.5879	37628.42	3.6790	3.6791	2.5876	25.06	-0.08	0.750			
0.5957	38124.94	3.6760	3.6762	2.5271	25.05	-0.09	0.750			
0.6032	38602.75	3.6730	3.6731	2.4480	25.04	-0.10	0.750			
0.6105	39069.91	3.6700	3.6699	2.3545	25.04	-0.10	0.750			
0.6175	39522.86	3.6670	3.6669	2.2453	25.04	-0.10	0.750			
0.6241	39943.91	3.6640	3.6641	2.1004	25.04	-0.10	0.750			
0.6301	40328.46	3.6610	3.6610	1.9407	25.04	-0.10	0.750			
0.6356	40676.21	3.6580	3.6581	1.7890	25.05	-0.09	0.750			
0.6408	41010.58	3.6550	3.6549	1.6605	25.05	-0.09	0.750			
0.6455	41313.97	3.6520	3.6519	1.5372	25.06	-0.08	0.750			
0.6499	41594.34	3.6490	3.6492	1.4225	25.06	-0.08	0.750			
0.6540	41854.06	3.6460	3.6461	1.3230	25.06	-0.08	0.750			
0.6578	42096.29	3.6430	3.6428	1.2270	25.06	-0.08	0.750			
0.6612	42318.41	3.6400	3.6400	1.1476	25.07	-0.07	0.750			
0.6645	42529.40	3.6370	3.6371	1.0891	25.08	-0.06	0.750			
0.6677	42731.78	3.6340	3.6340	1.0467	25.09	-0.05	0.750			
0.6707	42927.78	3.6310	3.6310	1.0032	25.09	-0.05	0.750			
0.6737	43115.71	3.6280	3.6280	0.9578	25.09	-0.05	0.750			
0.6765	43294.54	3.6250	3.6250	0.9295	25.10	-0.04	0.750			
0.6792	43470.32	3.6220	3.6221	0.8996	25.10	-0.04	0.750			
0.6819	43641.32	3.6190	3.6186	0.8619	25.10	-0.04	0.750			
0.6844	43804.53	3.6160	3.6161	0.8232	25.11	-0.03	0.750			
0.6869	43962.66	3.6130	3.6131	0.7709	25.12	-0.02	0.750			
0.6892	44108.23	3.6100	3.6100	0.7305	25.12	-0.02	0.750			
0.6913	44242.71	3.6070	3.6070	0.6704	25.13	-0.01	0.750			
0.6932	44364.14	3.6040	3.6041	0.6167	25.14	-0.00	0.750			
0.6950	44477.25	3.6010	3.6008	0.5653	25.14	0.00	0.750			
0.6966	44581.87	3.5980	3.5981	0.5147	25.15	0.01	0.750			
0.6981	44675.77	3.5950	3.5950	0.4649	25.15	0.01	0.750			
0.6994	44760.67	3.5920	3.5921	0.4152	25.16	0.02	0.750			
0.7005	44834.12	3.5890	3.5890	0.3611	25.16	0.02	0.750			
0.7016	44900.52	3.5860	3.5858	0.3143	25.16	0.02	0.750			
0.7024	44955.68	3.5830	3.5831	0.2633	25.17	0.03	0.750			
0.7032	45002.19	3.5800	3.5799	0.2146	25.17	0.03	0.750			
0.7037	45039.22	3.5770	3.5772	0.1624	25.17	0.03	0.750			
0.7041	45065.57	3.5740	3.5745	0.1068	25.17	0.03	0.750			
0.7044	45080.67	3.5710	3.5724	0.0397	25.17	0.03	0.751			
