Ah_balance (normalized)	Ah_balance (mAh)	Voltage - fit (V)	Voltage -  interpolate (V)	dQ/dV (1/V)	Temperature (°C)	Temperature - diff (°C)	Current (C)	R_DC 0ms (mOhm)	R_DC 50ms (mOhm)	R_DC 50 ms PEC (mOhm)
0.0479	3063.46	4.1980	4.1980	0.7619	25.42	0.48	0.750			
0.0502	3211.49	4.1950	4.1949	0.7655	25.42	0.48	0.750			
0.0524	3352.57	4.1920	4.1921	0.7496	25.43	0.49	0.750			
0.0546	3495.86	4.1890	4.1890	0.7513	25.43	0.49	0.750			
0.0569	3639.83	4.1860	4.1859	0.7527	25.43	0.49	0.750			
0.0591	3784.77	4.1830	4.1831	0.7531	25.43	0.49	0.750			
0.0614	3930.27	4.1800	4.1800	0.7529	25.43	0.49	0.750			
0.0637	4075.73	4.1770	4.1770	0.7436	25.43	0.49	0.750			
0.0659	4217.30	4.1740	4.1740	0.7454	25.44	0.50	0.750			
0.0680	4354.93	4.1710	4.1712	0.7461	25.44	0.50	0.750			
0.0703	4498.63	4.1680	4.1673	0.7552	25.44	0.50	0.750			
0.0726	4644.39	4.1650	4.1651	0.7591	25.44	0.50	0.750			
0.0749	4793.26	4.1620	4.1621	0.7632	25.44	0.50	0.750			
0.0773	4944.04	4.1590	4.1591	0.7718	25.45	0.51	0.750			
0.0796	5094.34	4.1560	4.1559	0.7760	25.45	0.51	0.750			
0.0818	5235.40	4.1530	4.1530	0.7634	25.45	0.51	0.750			
0.0841	5382.56	4.1500	4.1500	0.7666	25.45	0.51	0.750			
0.0864	5531.86	4.1470	4.1470	0.7665	25.45	0.51	0.750			
0.0887	5679.29	4.1440	4.1440	0.7697	25.45	0.51	0.750			
0.0911	5827.40	4.1410	4.1410	0.7756	25.46	0.52	0.750			
0.0934	5974.73	4.1380	4.1380	0.7733	25.46	0.52	0.750			
0.0957	6122.62	4.1350	4.1349	0.7734	25.46	0.52	0.750			
0.0980	6271.67	4.1320	4.1320	0.7776	25.46	0.52	0.750			
0.1003	6421.95	4.1290	4.1290	0.7813	25.46	0.52	0.750			
0.1027	6570.12	4.1260	4.1261	0.7707	25.47	0.53	0.750			
0.1049	6716.18	4.1230	4.1231	0.7707	25.47	0.53	0.750			
0.1072	6862.03	4.1200	4.1199	0.7758	25.47	0.53	0.750			
0.1096	7012.84	4.1170	4.1171	0.7826	25.47	0.53	0.750			
0.1120	7166.67	4.1140	4.1140	0.7773	25.47	0.53	0.750			
0.1143	7315.58	4.1110	4.1111	0.7816	25.48	0.54	0.750			
0.1167	7471.23	4.1080	4.1080	0.7907	25.48	0.54	0.750			
0.1190	7615.07	4.1050	4.1052	0.7808	25.48	0.54	0.750			
0.1213	7763.88	4.1020	4.1020	0.7839	25.48	0.54	0.750			
0.1237	7915.46	4.0990	4.0990	0.7867	25.49	0.55	0.750			
0.1261	8068.51	4.0960	4.0961	0.7934	25.49	0.55	0.750			
0.1285	8221.98	4.0930	4.0930	0.7953	25.49	0.55	0.750			
0.1308	8374.06	4.0900	4.0901	0.7938	25.50	0.56	0.750			
0.1332	8527.60	4.0870	4.0870	0.7971	25.50	0.56	0.750			
0.1356	8680.40	4.0840	4.0840	0.7974	25.50	0.56	0.750			
0.1380	8834.89	4.0810	4.0809	0.7913	25.50	0.56	0.750			
0.1404	8983.81	4.0780	4.0782	0.8006	25.51	0.57	0.750			
0.1428	9136.89	4.0750	4.0750	0.8045	25.51	0.57	0.750			
0.1452	9292.63	4.0720	4.0713	0.8077	25.51	0.57	0.750			
0.1476	9448.31	4.0690	4.0692	0.8091	25.51	0.57	0.750			
0.1501	9605.60	4.0660	4.0662	0.8080	25.52	0.58	0.750			
0.1525	9763.02	4.0630	4.0631	0.8167	25.52	0.58	0.750			
0.1549	9915.94	4.0600	4.0600	0.8088	25.53	0.59	0.750			
0.1574	10071.83	4.0570	4.0568	0.8140	25.53	0.59	0.750			
0.1598	10229.16	4.0540	4.0541	0.8213	25.53	0.59	0.750			
0.1623	10388.21	4.0510	4.0510	0.8238	25.53	0.59	0.750			
0.1648	10548.36	4.0480	4.0481	0.8326	25.54	0.60	0.750			
0.1673	10707.68	4.0450	4.0450	0.8307	25.54	0.60	0.750			
0.1698	10866.41	4.0420	4.0418	0.8334	25.54	0.60	0.750			
0.1723	11026.69	4.0390	4.0391	0.8348	25.54	0.60	0.750			
0.1749	11192.18	4.0360	4.0359	0.8204	25.54	0.60	0.750			
0.1773	11347.33	4.0330	4.0331	0.8322	25.55	0.61	0.750			
0.1798	11505.31	4.0300	4.0301	0.8377	25.55	0.61	0.750			
0.1822	11662.80	4.0270	4.0267	0.8393	25.55	0.61	0.750			
0.1848	11825.46	4.0240	4.0241	0.8511	25.55	0.61	0.750			
0.1874	11990.62	4.0210	4.0211	0.8469	25.55	0.61	0.750			
0.1899	12154.85	4.0180	4.0181	0.8532	25.56	0.62	0.750			
0.1925	12319.24	4.0150	4.0152	0.8517	25.56	0.62	0.750			
0.1951	12483.69	4.0120	4.0114	0.8529	25.56	0.62	0.750			
0.1976	12647.93	4.0090	4.0090	0.8490	25.56	0.62	0.750			
0.2002	12811.18	4.0060	4.0061	0.8568	25.56	0.62	0.750			
0.2028	12977.05	4.0030	4.0032	0.8649	25.57	0.63	0.750			
0.2054	13142.79	4.0000	4.0000	0.8605	25.57	0.63	0.750			
0.2079	13308.13	3.9970	3.9968	0.8645	25.57	0.63	0.750			
0.2105	13475.00	3.9940	3.9941	0.8674	25.57	0.63	0.750			
0.2132	13644.65	3.9910	3.9910	0.8623	25.57	0.63	0.750			
0.2157	13805.29	3.9880	3.9881	0.8665	25.58	0.64	0.750			
0.2183	13968.09	3.9850	3.9852	0.8719	25.58	0.64	0.750			
0.2209	14137.95	3.9820	3.9822	0.8814	25.58	0.64	0.750			
0.2236	14309.28	3.9790	3.9792	0.8845	25.58	0.64	0.750			
0.2263	14480.22	3.9760	3.9761	0.8921	25.58	0.64	0.750			
0.2290	14656.68	3.9730	3.9731	0.8997	25.59	0.65	0.750			
0.2317	14827.54	3.9700	3.9698	0.8858	25.59	0.65	0.750			
0.2343	14997.40	3.9670	3.9670	0.8890	25.59	0.65	0.750			
0.2370	15168.17	3.9640	3.9641	0.8814	25.59	0.65	0.750			
0.2397	15337.88	3.9610	3.9611	0.8875	25.59	0.65	0.750			
0.2423	15510.15	3.9580	3.9580	0.8884	25.59	0.65	0.750			
0.2450	15677.55	3.9550	3.9548	0.8854	25.59	0.65	0.750			
0.2476	15847.63	3.9520	3.9520	0.8861	25.59	0.65	0.750			
0.2503	16018.05	3.9490	3.9491	0.8779	25.60	0.66	0.750			
0.2529	16184.42	3.9460	3.9461	0.8840	25.60	0.66	0.750			
0.2555	16352.83	3.9430	3.9432	0.8882	25.61	0.67	0.750			
0.2582	16524.34	3.9400	3.9401	0.8946	25.61	0.67	0.750			
0.2609	16698.70	3.9370	3.9372	0.8960	25.61	0.67	0.750			
0.2636	16870.82	3.9340	3.9340	0.9028	25.61	0.67	0.750			
0.2664	17048.95	3.9310	3.9311	0.9086	25.61	0.67	0.750			
0.2691	17220.14	3.9280	3.9281	0.8939	25.61	0.67	0.750			
0.2718	17393.24	3.9250	3.9251	0.8956	25.61	0.67	0.750			
0.2745	17565.87	3.9220	3.9221	0.8893	25.61	0.67	0.750			
0.2771	17735.25	3.9190	3.9191	0.8959	25.60	0.66	0.750			
0.2798	17908.13	3.9160	3.9161	0.9026	25.60	0.66	0.750			
0.2825	18079.47	3.9130	3.9127	0.8965	25.60	0.66	0.750			
0.2852	18253.37	3.9100	3.9100	0.8980	25.60	0.66	0.750			
0.2879	18425.51	3.9070	3.9072	0.8921	25.60	0.66	0.750			
0.2906	18597.40	3.9040	3.9041	0.8969	25.59	0.65	0.750			
0.2932	18767.12	3.9010	3.9010	0.8905	25.59	0.65	0.750			
0.2959	18937.64	3.8980	3.8981	0.8910	25.59	0.65	0.750			
0.2986	19109.44	3.8950	3.8951	0.8884	25.58	0.64	0.750			
0.3013	19280.54	3.8920	3.8921	0.8983	25.58	0.64	0.750			
0.3040	19455.46	3.8890	3.8890	0.9046	25.58	0.64	0.750			
0.3067	19626.75	3.8860	3.8859	0.8962	25.57	0.63	0.750			
0.3094	19800.14	3.8830	3.8831	0.9039	25.57	0.63	0.750			
0.3121	19974.59	3.8800	3.8801	0.9001	25.56	0.62	0.750			
0.3148	20147.47	3.8770	3.8771	0.9011	25.55	0.61	0.750			
0.3175	20320.51	3.8740	3.8740	0.9031	25.55	0.61	0.750			
0.3202	20490.96	3.8710	3.8706	0.8992	25.54	0.60	0.750			
0.3229	20663.43	3.8680	3.8681	0.9060	25.54	0.60	0.750			
0.3256	20838.21	3.8650	3.8650	0.8977	25.53	0.59	0.750			
0.3283	21010.87	3.8620	3.8621	0.9027	25.53	0.59	0.750			
0.3310	21183.21	3.8590	3.8592	0.9010	25.52	0.58	0.750			
0.3337	21356.06	3.8560	3.8561	0.9077	25.52	0.58	0.750			
0.3364	21530.97	3.8530	3.8531	0.9154	25.51	0.57	0.750			
0.3392	21706.66	3.8500	3.8500	0.9019	25.50	0.56	0.750			
0.3418	21878.06	3.8470	3.8472	0.9195	25.49	0.55	0.750			
0.3446	22053.61	3.8440	3.8438	0.9244	25.48	0.54	0.750			
0.3474	22233.39	3.8410	3.8410	0.9347	25.47	0.53	0.750			
0.3502	22413.62	3.8380	3.8382	0.9493	25.47	0.53	0.750	0.327	0.448	
0.3531	22598.78	3.8350	3.8352	0.9603	25.46	0.52	0.750			
0.3561	22791.29	3.8320	3.8319	0.9785	25.45	0.51	0.750			
0.3590	22974.09	3.8290	3.8290	0.9664	25.44	0.50	0.750			
0.3618	23156.46	3.8260	3.8261	0.9550	25.43	0.49	0.750			
0.3647	23338.77	3.8230	3.8230	0.9644	25.42	0.48	0.750			
0.3675	23522.62	3.8200	3.8202	0.9761	25.41	0.47	0.750			
0.3705	23709.66	3.8170	3.8164	0.9850	25.40	0.46	0.750			
0.3735	23900.91	3.8140	3.8142	0.9948	25.39	0.45	0.750			
0.3765	24093.21	3.8110	3.8111	1.0083	25.38	0.44	0.750			
0.3795	24291.17	3.8080	3.8081	1.0247	25.38	0.44	0.750			
0.3826	24486.51	3.8050	3.8042	1.0228	25.37	0.43	0.750			
0.3857	24683.28	3.8020	3.8021	1.0357	25.36	0.42	0.750			
0.3888	24884.00	3.7990	3.7991	1.0513	25.35	0.41	0.750			
0.3920	25088.94	3.7960	3.7960	1.0702	25.33	0.39	0.750			
0.3953	25296.45	3.7930	3.7928	1.0842	25.32	0.38	0.750			
0.3985	25502.68	3.7900	3.7900	1.0785	25.31	0.37	0.750			
0.4017	25708.00	3.7870	3.7871	1.0959	25.30	0.36	0.750			
0.4050	25918.03	3.7840	3.7841	1.1165	25.30	0.36	0.750			
0.4083	26133.06	3.7810	3.7806	1.1414	25.29	0.35	0.750			
0.4117	26350.39	3.7780	3.7782	1.1590	25.28	0.34	0.750			
0.4152	26575.54	3.7750	3.7752	1.1906	25.27	0.33	0.750			
0.4189	26811.61	3.7720	3.7718	1.2220	25.25	0.31	0.750			
0.4227	27053.16	3.7690	3.7691	1.2442	25.24	0.30	0.750			
0.4263	27283.21	3.7660	3.7661	1.2519	25.23	0.29	0.750			
0.4301	27527.16	3.7630	3.7632	1.2801	25.21	0.27	0.750			
0.4341	27779.26	3.7600	3.7600	1.2853	25.20	0.26	0.750			
0.4378	28017.06	3.7570	3.7572	1.3160	25.19	0.25	0.750			
0.4417	28269.81	3.7540	3.7542	1.3572	25.18	0.24	0.750			
0.4459	28536.27	3.7510	3.7503	1.3776	25.17	0.23	0.750			
0.4500	28800.09	3.7480	3.7483	1.4128	25.15	0.21	0.750			
0.4544	29078.72	3.7450	3.7452	1.4499	25.14	0.20	0.750			
0.4590	29373.02	3.7420	3.7421	1.4690	25.13	0.19	0.750			
0.4634	29656.01	3.7390	3.7391	1.4653	25.11	0.17	0.750			
0.4677	29932.88	3.7360	3.7362	1.5353	25.10	0.16	0.750			
0.4724	30236.07	3.7330	3.7333	1.5473	25.08	0.14	0.750			
0.4770	30527.61	3.7300	3.7304	1.5875	25.06	0.12	0.750			
0.4819	30840.06	3.7270	3.7274	1.6388	25.04	0.10	0.750			
0.4869	31164.15	3.7240	3.7239	1.7117	25.03	0.09	0.750			
0.4922	31501.18	3.7210	3.7213	1.8218	25.01	0.07	0.750			
0.4978	31856.76	3.7180	3.7186	1.8558	24.99	0.05	0.750			
0.5034	32219.80	3.7150	3.7150	1.8912	24.98	0.04	0.750			
0.5090	32573.71	3.7120	3.7126	1.9316	24.97	0.03	0.750			
0.5150	32962.08	3.7090	3.7090	1.9699	24.95	0.01	0.750			
0.5209	33340.71	3.7060	3.7060	2.0132	24.93	-0.01	0.750			
0.5273	33748.55	3.7030	3.7023	2.1236	24.91	-0.03	0.750			
0.5336	34150.60	3.7000	3.7002	2.2166	24.90	-0.04	0.750			
0.5405	34589.73	3.6970	3.6973	2.2341	24.89	-0.05	0.750			
0.5472	35018.91	3.6940	3.6939	2.3339	24.87	-0.07	0.750			
0.5541	35461.26	3.6910	3.6909	2.3268	24.85	-0.09	0.750			
0.5611	35910.50	3.6880	3.6880	2.3677	24.84	-0.10	0.750			
0.5685	36384.69	3.6850	3.6852	2.6456	24.84	-0.10	0.750			
0.5765	36896.48	3.6820	3.6823	2.8233	24.83	-0.11	0.750			
0.5851	37443.46	3.6790	3.6795	2.8819	24.82	-0.12	0.750			
0.5938	38002.87	3.6760	3.6761	2.6932	24.81	-0.13	0.750			
0.6019	38520.02	3.6730	3.6731	2.6093	24.80	-0.14	0.750			
0.6089	38970.77	3.6700	3.6700	2.3336	24.80	-0.14	0.750			
0.6157	39402.22	3.6670	3.6669	2.1470	24.81	-0.13	0.750			
0.6218	39795.97	3.6640	3.6639	2.0098	24.81	-0.13	0.750			
0.6276	40166.90	3.6610	3.6608	1.8687	24.82	-0.12	0.750			
0.6330	40511.48	3.6580	3.6578	1.7242	24.82	-0.12	0.750			
0.6379	40822.56	3.6550	3.6552	1.5975	24.83	-0.11	0.750			
0.6424	41113.44	3.6520	3.6521	1.4763	24.84	-0.10	0.750			
0.6467	41385.77	3.6490	3.6491	1.3704	24.84	-0.10	0.750			
0.6506	41639.92	3.6460	3.6460	1.2794	24.84	-0.10	0.750			
0.6542	41870.05	3.6430	3.6431	1.1963	24.84	-0.10	0.750			
0.6577	42091.92	3.6400	3.6398	1.1304	24.84	-0.10	0.750			
0.6609	42299.97	3.6370	3.6370	1.0578	24.85	-0.09	0.750			
0.6640	42494.22	3.6340	3.6341	1.0160	24.86	-0.08	0.750			
0.6669	42682.66	3.6310	3.6310	0.9822	24.87	-0.07	0.750			
0.6698	42866.32	3.6280	3.6276	0.9444	24.88	-0.06	0.750			
0.6726	43044.80	3.6250	3.6251	0.9142	24.88	-0.06	0.750			
0.6753	43218.75	3.6220	3.6221	0.8787	24.89	-0.05	0.750			
0.6779	43388.03	3.6190	3.6190	0.8471	24.89	-0.05	0.750			
0.6804	43546.22	3.6160	3.6160	0.7956	24.90	-0.04	0.750			
0.6828	43699.97	3.6130	3.6128	0.7362	24.90	-0.04	0.750			
0.6849	43836.03	3.6100	3.6101	0.6921	24.91	-0.03	0.750			
0.6869	43964.27	3.6070	3.6072	0.6428	24.91	-0.03	0.750			
0.6888	44081.52	3.6040	3.6042	0.5923	24.92	-0.02	0.750			
0.6905	44190.33	3.6010	3.5996	0.5390	24.93	-0.01	0.750			
0.6920	44286.91	3.5980	3.5982	0.4857	24.93	-0.01	0.750			
0.6934	44376.15	3.5950	3.5951	0.4377	24.93	-0.01	0.750			
0.6946	44456.73	3.5920	3.5921	0.3913	24.94	-0.00	0.750			
0.6957	44527.29	3.5890	3.5890	0.3338	24.94	0.00	0.750			
0.6967	44586.76	3.5860	3.5860	0.2855	24.94	0.00	0.750			
0.6975	44637.25	3.5830	3.5830	0.2370	24.95	0.01	0.750			
0.6981	44679.76	3.5800	3.5801	0.1865	24.95	0.01	0.750			
0.6986	44710.77	3.5770	3.5774	0.1309	24.95	0.01	0.750			
0.6989	44730.54	3.5740	3.5747	0.0713	24.95	0.01	0.750			
