Ah_balance (normalized)	Ah_balance (mAh)	Voltage - fit (V)	Voltage -  interpolate (V)	dQ/dV (1/V)	Temperature (°C)	Temperature - diff (°C)	Current (C)	R_DC 0ms (mOhm)	R_DC 50ms (mOhm)	R_DC 50 ms PEC (mOhm)
0.0488	3123.87	4.1970	4.1970	0.7571	25.40	0.56	0.750			
0.0511	3269.08	4.1940	4.1940	0.7560	25.40	0.56	0.750			
0.0534	3417.05	4.1910	4.1909	0.7483	25.40	0.56	0.750			
0.0556	3557.21	4.1880	4.1880	0.7541	25.40	0.56	0.750			
0.0578	3700.87	4.1850	4.1851	0.7549	25.40	0.56	0.750			
0.0601	3846.02	4.1820	4.1818	0.7573	25.40	0.56	0.750			
0.0624	3992.85	4.1790	4.1791	0.7620	25.40	0.56	0.750			
0.0647	4141.26	4.1760	4.1760	0.7598	25.40	0.56	0.750			
0.0670	4288.04	4.1730	4.1730	0.7596	25.40	0.56	0.750			
0.0693	4432.13	4.1700	4.1701	0.7559	25.40	0.56	0.750			
0.0715	4577.58	4.1670	4.1671	0.7623	25.40	0.56	0.750			
0.0738	4723.94	4.1640	4.1640	0.7636	25.40	0.56	0.750			
0.0761	4871.02	4.1610	4.1610	0.7684	25.40	0.56	0.750			
0.0784	5020.42	4.1580	4.1581	0.7710	25.40	0.56	0.750			
0.0808	5169.02	4.1550	4.1550	0.7729	25.40	0.56	0.750			
0.0831	5317.80	4.1520	4.1520	0.7706	25.40	0.56	0.750			
0.0854	5464.97	4.1490	4.1490	0.7694	25.40	0.56	0.750			
0.0877	5612.70	4.1460	4.1460	0.7692	25.40	0.56	0.750			
0.0900	5761.54	4.1430	4.1430	0.7675	25.40	0.56	0.750			
0.0923	5908.01	4.1400	4.1400	0.7674	25.40	0.56	0.750			
0.0946	6055.16	4.1370	4.1370	0.7717	25.40	0.56	0.750			
0.0969	6202.44	4.1340	4.1340	0.7750	25.40	0.56	0.750			
0.0993	6352.94	4.1310	4.1310	0.7754	25.40	0.56	0.750			
0.1016	6501.74	4.1280	4.1281	0.7772	25.41	0.57	0.750			
0.1039	6651.55	4.1250	4.1250	0.7761	25.41	0.57	0.750			
0.1062	6799.94	4.1220	4.1220	0.7799	25.41	0.57	0.750			
0.1086	6948.25	4.1190	4.1190	0.7801	25.42	0.58	0.750			
0.1109	7098.11	4.1160	4.1161	0.7835	25.42	0.58	0.750			
0.1133	7248.66	4.1130	4.1130	0.7898	25.42	0.58	0.750			
0.1157	7402.93	4.1100	4.1100	0.7900	25.42	0.58	0.750			
0.1180	7554.90	4.1070	4.1070	0.7939	25.42	0.58	0.750			
0.1204	7707.03	4.1040	4.1040	0.7942	25.42	0.58	0.750			
0.1228	7859.79	4.1010	4.1008	0.7946	25.42	0.58	0.750			
0.1252	8011.87	4.0980	4.0981	0.7970	25.42	0.58	0.750			
0.1276	8165.44	4.0950	4.0950	0.7996	25.42	0.58	0.750			
0.1300	8319.56	4.0920	4.0920	0.8026	25.42	0.58	0.750			
0.1324	8475.37	4.0890	4.0890	0.8055	25.42	0.58	0.750			
0.1348	8627.78	4.0860	4.0860	0.8030	25.42	0.58	0.750			
0.1372	8783.06	4.0830	4.0830	0.8041	25.42	0.58	0.750			
0.1397	8940.11	4.0800	4.0800	0.7983	25.42	0.58	0.750			
0.1421	9091.65	4.0770	4.0770	0.7978	25.43	0.59	0.750			
0.1444	9243.07	4.0740	4.0741	0.8021	25.43	0.59	0.750			
0.1468	9396.45	4.0710	4.0711	0.8059	25.43	0.59	0.750			
0.1492	9551.19	4.0680	4.0681	0.8084	25.43	0.59	0.750			
0.1517	9707.14	4.0650	4.0651	0.8130	25.43	0.59	0.750			
0.1541	9863.85	4.0620	4.0620	0.8222	25.43	0.59	0.750			
0.1566	10023.27	4.0590	4.0590	0.8264	25.43	0.59	0.750			
0.1591	10182.42	4.0560	4.0560	0.8262	25.43	0.59	0.750			
0.1616	10340.15	4.0530	4.0530	0.8306	25.43	0.59	0.750			
0.1641	10502.38	4.0500	4.0500	0.8311	25.44	0.60	0.750			
0.1666	10661.96	4.0470	4.0470	0.8337	25.44	0.60	0.750			
0.1691	10821.40	4.0440	4.0440	0.8345	25.44	0.60	0.750			
0.1716	10980.97	4.0410	4.0410	0.8373	25.45	0.61	0.750			
0.1741	11142.87	4.0380	4.0379	0.8389	25.45	0.61	0.750			
0.1767	11305.64	4.0350	4.0350	0.8320	25.45	0.61	0.750			
0.1791	11464.10	4.0320	4.0321	0.8370	25.45	0.61	0.750			
0.1816	11624.53	4.0290	4.0290	0.8456	25.45	0.61	0.750			
0.1842	11786.43	4.0260	4.0260	0.8475	25.45	0.61	0.750			
0.1867	11948.34	4.0230	4.0231	0.8532	25.45	0.61	0.750			
0.1893	12113.74	4.0200	4.0201	0.8565	25.45	0.61	0.750			
0.1919	12281.96	4.0170	4.0170	0.8641	25.45	0.61	0.750			
0.1945	12448.49	4.0140	4.0140	0.8634	25.45	0.61	0.750			
0.1971	12612.51	4.0110	4.0111	0.8624	25.45	0.61	0.750			
0.1997	12778.38	4.0080	4.0081	0.8648	25.45	0.61	0.750			
0.2023	12945.04	4.0050	4.0049	0.8640	25.45	0.61	0.750			
0.2048	13109.77	4.0020	4.0020	0.8669	25.45	0.61	0.750			
0.2074	13276.46	3.9990	3.9992	0.8691	25.45	0.61	0.750			
0.2101	13444.62	3.9960	3.9959	0.8734	25.45	0.61	0.750			
0.2127	13612.76	3.9930	3.9930	0.8761	25.45	0.61	0.750			
0.2153	13781.48	3.9900	3.9900	0.8698	25.45	0.61	0.750			
0.2179	13948.50	3.9870	3.9870	0.8742	25.46	0.62	0.750			
0.2205	14114.86	3.9840	3.9841	0.8734	25.46	0.62	0.750			
0.2232	14282.40	3.9810	3.9801	0.8763	25.46	0.62	0.750			
0.2258	14451.09	3.9780	3.9781	0.8798	25.46	0.62	0.750			
0.2285	14620.86	3.9750	3.9751	0.8848	25.46	0.62	0.750			
0.2311	14792.35	3.9720	3.9720	0.8930	25.47	0.63	0.750			
0.2338	14965.55	3.9690	3.9690	0.8985	25.47	0.63	0.750			
0.2365	15134.67	3.9660	3.9660	0.8973	25.47	0.63	0.750			
0.2392	15308.86	3.9630	3.9630	0.8993	25.47	0.63	0.750			
0.2419	15483.11	3.9600	3.9600	0.9027	25.47	0.63	0.750			
0.2446	15656.82	3.9570	3.9570	0.9009	25.47	0.63	0.750			
0.2473	15830.32	3.9540	3.9539	0.8988	25.47	0.63	0.750			
0.2500	16001.52	3.9510	3.9511	0.8991	25.47	0.63	0.750			
0.2527	16173.32	3.9480	3.9480	0.8943	25.47	0.63	0.750			
0.2554	16344.15	3.9450	3.9450	0.9007	25.47	0.63	0.750			
0.2581	16517.25	3.9420	3.9420	0.9060	25.47	0.63	0.750			
0.2608	16690.77	3.9390	3.9388	0.9100	25.47	0.63	0.750			
0.2636	16868.01	3.9360	3.9361	0.9145	25.47	0.63	0.750			
0.2663	17044.73	3.9330	3.9329	0.9147	25.47	0.63	0.750			
0.2691	17220.40	3.9300	3.9301	0.9176	25.47	0.63	0.750			
0.2718	17397.19	3.9270	3.9270	0.9117	25.47	0.63	0.750			
0.2746	17571.87	3.9240	3.9240	0.9076	25.47	0.63	0.750			
0.2773	17745.39	3.9210	3.9210	0.9065	25.47	0.63	0.750			
0.2800	17918.28	3.9180	3.9181	0.9072	25.47	0.63	0.750			
0.2827	18093.02	3.9150	3.9150	0.9106	25.47	0.63	0.750			
0.2854	18267.74	3.9120	3.9117	0.9104	25.47	0.63	0.750			
0.2882	18446.73	3.9090	3.9091	0.8973	25.47	0.63	0.750			
0.2909	18617.07	3.9060	3.9061	0.9046	25.46	0.62	0.750			
0.2936	18790.06	3.9030	3.9030	0.9087	25.46	0.62	0.750			
0.2963	18961.21	3.9000	3.9001	0.9094	25.45	0.61	0.750			
0.2990	19135.87	3.8970	3.8967	0.9158	25.45	0.61	0.750			
0.3018	19313.43	3.8940	3.8941	0.9221	25.44	0.60	0.750			
0.3046	19494.52	3.8910	3.8911	0.9330	25.44	0.60	0.750			
0.3074	19676.28	3.8880	3.8880	0.9360	25.44	0.60	0.750			
0.3102	19854.18	3.8850	3.8848	0.9228	25.43	0.59	0.750			
0.3130	20034.88	3.8820	3.8821	0.9138	25.42	0.58	0.750			
0.3158	20208.77	3.8790	3.8791	0.9113	25.42	0.58	0.750			
0.3185	20382.47	3.8760	3.8761	0.9179	25.41	0.57	0.750			
0.3212	20557.36	3.8730	3.8731	0.9208	25.40	0.56	0.750			
0.3239	20732.78	3.8700	3.8697	0.9197	25.40	0.56	0.750			
0.3267	20911.58	3.8670	3.8670	0.9140	25.39	0.55	0.750			
0.3295	21088.44	3.8640	3.8641	0.9229	25.38	0.54	0.750			
0.3323	21264.52	3.8610	3.8611	0.9343	25.38	0.54	0.750			
0.3350	21442.44	3.8580	3.8578	0.9325	25.37	0.53	0.750			
0.3379	21623.76	3.8550	3.8550	0.9324	25.36	0.52	0.750			
0.3407	21803.57	3.8520	3.8521	0.9388	25.36	0.52	0.750			
0.3435	21985.06	3.8490	3.8491	0.9465	25.35	0.51	0.750			
0.3464	22169.10	3.8460	3.8461	0.9544	25.34	0.50	0.750			
0.3492	22349.42	3.8430	3.8430	0.9484	25.34	0.50	0.750			
0.3521	22531.38	3.8400	3.8400	0.9467	25.32	0.48	0.750			
0.3549	22714.22	3.8370	3.8370	0.9566	25.31	0.47	0.750	0.328	0.452	
0.3578	22898.43	3.8340	3.8341	0.9626	25.30	0.46	0.750			
0.3607	23082.75	3.8310	3.8306	0.9663	25.29	0.45	0.750			
0.3636	23270.13	3.8280	3.8281	0.9620	25.28	0.44	0.750			
0.3665	23454.20	3.8250	3.8251	0.9773	25.27	0.43	0.750			
0.3694	23643.73	3.8220	3.8220	0.9888	25.26	0.42	0.750			
0.3724	23832.78	3.8190	3.8189	0.9871	25.25	0.41	0.750			
0.3754	24024.20	3.8160	3.8161	0.9991	25.24	0.40	0.750			
0.3784	24217.46	3.8130	3.8131	1.0080	25.23	0.39	0.750			
0.3814	24412.12	3.8100	3.8100	1.0183	25.22	0.38	0.750			
0.3845	24606.67	3.8070	3.8069	1.0262	25.21	0.37	0.750			
0.3876	24807.70	3.8040	3.8040	1.0275	25.20	0.36	0.750			
0.3907	25004.71	3.8010	3.8010	1.0454	25.19	0.35	0.750			
0.3938	25205.84	3.7980	3.7980	1.0608	25.18	0.34	0.750			
0.3970	25410.71	3.7950	3.7951	1.0738	25.17	0.33	0.750			
0.4003	25617.44	3.7920	3.7921	1.0862	25.16	0.32	0.750			
0.4035	25824.76	3.7890	3.7890	1.1039	25.15	0.31	0.750			
0.4069	26039.09	3.7860	3.7862	1.1247	25.14	0.30	0.750			
0.4103	26260.08	3.7830	3.7826	1.1482	25.12	0.28	0.750			
0.4137	26478.36	3.7800	3.7801	1.1642	25.11	0.27	0.750			
0.4173	26705.32	3.7770	3.7771	1.1880	25.10	0.26	0.750			
0.4209	26936.64	3.7740	3.7740	1.2125	25.09	0.25	0.750			
0.4246	27174.00	3.7710	3.7710	1.1945	25.08	0.24	0.750			
0.4282	27403.45	3.7680	3.7681	1.2061	25.06	0.22	0.750			
0.4318	27634.90	3.7650	3.7652	1.2150	25.05	0.21	0.750			
0.4355	27869.86	3.7620	3.7616	1.2044	25.04	0.20	0.750			
0.4389	28086.96	3.7590	3.7591	1.2374	25.03	0.19	0.750			
0.4426	28324.29	3.7560	3.7562	1.2877	25.02	0.18	0.750			
0.4465	28575.08	3.7530	3.7531	1.3400	25.01	0.17	0.750			
0.4507	28847.79	3.7500	3.7504	1.3702	24.99	0.15	0.750			
0.4549	29112.44	3.7470	3.7473	1.4253	24.98	0.14	0.750			
0.4593	29397.72	3.7440	3.7441	1.4654	24.96	0.12	0.750			
0.4638	29683.49	3.7410	3.7410	1.4504	24.95	0.11	0.750			
0.4682	29965.35	3.7380	3.7383	1.4973	24.94	0.10	0.750			
0.4728	30261.64	3.7350	3.7347	1.5420	24.92	0.08	0.750			
0.4776	30565.81	3.7320	3.7323	1.5820	24.91	0.07	0.750			
0.4824	30871.39	3.7290	3.7288	1.6363	24.89	0.05	0.750			
0.4875	31197.07	3.7260	3.7260	1.6767	24.87	0.03	0.750			
0.4924	31515.47	3.7230	3.7231	1.7391	24.86	0.02	0.750			
0.4978	31862.24	3.7200	3.7202	1.8169	24.84	0.00	0.750			
0.5034	32215.71	3.7170	3.7174	1.8636	24.83	-0.01	0.750			
0.5090	32576.73	3.7140	3.7143	1.8934	24.82	-0.02	0.750			
0.5148	32947.71	3.7110	3.7111	1.9608	24.81	-0.03	0.750			
0.5208	33332.31	3.7080	3.7085	2.0145	24.79	-0.05	0.750			
0.5270	33729.34	3.7050	3.7048	2.0753	24.77	-0.07	0.750			
0.5333	34133.96	3.7020	3.7017	2.1787	24.76	-0.08	0.750			
0.5398	34546.04	3.6990	3.6994	2.2134	24.75	-0.09	0.750			
0.5467	34985.91	3.6960	3.6962	2.3018	24.74	-0.10	0.750			
0.5537	35435.04	3.6930	3.6927	2.2926	24.73	-0.11	0.750			
0.5606	35877.61	3.6900	3.6895	2.3120	24.71	-0.13	0.750			
0.5678	36342.11	3.6870	3.6875	2.4414	24.70	-0.14	0.750			
0.5752	36813.21	3.6840	3.6839	2.4411	24.70	-0.14	0.750			
0.5827	37289.90	3.6810	3.6816	2.6126	24.69	-0.15	0.750			
0.5906	37799.88	3.6780	3.6781	2.5304	24.69	-0.15	0.750			
0.5984	38299.47	3.6750	3.6747	2.5321	24.68	-0.16	0.750			
0.6062	38799.67	3.6720	3.6723	2.5738	24.69	-0.15	0.750			
0.6140	39295.37	3.6690	3.6693	2.5798	24.69	-0.15	0.750			
0.6216	39785.17	3.6660	3.6661	2.4709	24.70	-0.14	0.750			
0.6285	40223.26	3.6630	3.6634	2.2218	24.71	-0.13	0.750			
0.6348	40625.55	3.6600	3.6601	2.0592	24.72	-0.12	0.750			
0.6406	41000.50	3.6570	3.6574	1.8908	24.73	-0.11	0.750			
0.6462	41356.16	3.6540	3.6543	1.7559	24.74	-0.10	0.750			
0.6513	41681.26	3.6510	3.6512	1.6197	24.75	-0.09	0.750			
0.6559	41980.06	3.6480	3.6481	1.4938	24.75	-0.09	0.750			
0.6602	42253.12	3.6450	3.6443	1.3665	24.76	-0.08	0.750			
0.6639	42488.47	3.6420	3.6421	1.2266	24.77	-0.07	0.750			
0.6673	42705.34	3.6390	3.6391	1.1361	24.77	-0.07	0.750			
0.6705	42910.65	3.6360	3.6362	1.0851	24.78	-0.06	0.750			
0.6736	43113.18	3.6330	3.6325	1.0401	24.78	-0.06	0.750			
0.6766	43301.32	3.6300	3.6301	0.9955	24.79	-0.05	0.750			
0.6795	43490.84	3.6270	3.6272	0.9655	24.79	-0.05	0.750			
0.6825	43678.60	3.6240	3.6240	0.9441	24.79	-0.05	0.750			
0.6853	43862.09	3.6210	3.6209	0.9140	24.80	-0.04	0.750			
0.6879	44026.00	3.6180	3.6180	0.8561	24.81	-0.03	0.750			
0.6905	44190.13	3.6150	3.6150	0.8028	24.82	-0.02	0.750			
0.6928	44341.49	3.6120	3.6121	0.7599	24.82	-0.02	0.750			
0.6950	44481.81	3.6090	3.6090	0.7036	24.83	-0.01	0.750			
0.6971	44611.78	3.6060	3.6061	0.6484	24.84	-0.00	0.750			
0.6989	44729.17	3.6030	3.6030	0.5896	24.84	0.00	0.750			
0.7006	44838.08	3.6000	3.6002	0.5339	24.85	0.01	0.750			
0.7021	44936.47	3.5970	3.5969	0.4749	24.85	0.01	0.750			
0.7035	45021.85	3.5940	3.5941	0.4221	24.86	0.02	0.750			
0.7046	45095.41	3.5910	3.5911	0.3670	24.86	0.02	0.750			
0.7056	45161.15	3.5880	3.5880	0.3170	24.86	0.02	0.750			
0.7065	45216.89	3.5850	3.5833	0.2672	24.87	0.03	0.750			
0.7072	45262.75	3.5820	3.5823	0.2188	24.87	0.03	0.750			
0.7078	45300.81	3.5790	3.5796	0.1720	24.87	0.03	0.750			
0.7083	45330.45	3.5760	3.5768	0.1197	24.87	0.03	0.750			
0.7086	45349.38	3.5730	3.5732	0.0161	24.87	0.03	0.750			
