Ah_balance (normalized)	Ah_balance (mAh)	Voltage - fit (V)	Voltage -  interpolate (V)	dQ/dV (1/V)	Temperature (°C)	Temperature - diff (°C)	Current (C)	R_DC 0ms (mOhm)	R_DC 50ms (mOhm)	R_DC 50 ms PEC (mOhm)
0.0484	3096.84	4.1980	4.1980	0.7083	25.51	0.56	0.750			
0.0506	3238.73	4.1950	4.1947	0.7527	25.51	0.56	0.750			
0.0529	3383.51	4.1920	4.1920	0.7559	25.51	0.56	0.750			
0.0552	3530.95	4.1890	4.1890	0.7567	25.51	0.56	0.750			
0.0574	3676.68	4.1860	4.1860	0.7569	25.51	0.56	0.750			
0.0597	3820.86	4.1830	4.1830	0.7536	25.51	0.56	0.750			
0.0620	3965.67	4.1800	4.1802	0.7546	25.51	0.56	0.750			
0.0642	4109.14	4.1770	4.1770	0.7550	25.51	0.56	0.750			
0.0665	4255.02	4.1740	4.1739	0.7572	25.50	0.55	0.750			
0.0687	4399.89	4.1710	4.1711	0.7559	25.50	0.55	0.750			
0.0710	4545.15	4.1680	4.1680	0.7595	25.50	0.55	0.750			
0.0733	4692.47	4.1650	4.1650	0.7602	25.49	0.54	0.750			
0.0757	4841.78	4.1620	4.1618	0.7515	25.49	0.54	0.750			
0.0779	4986.96	4.1590	4.1590	0.7419	25.49	0.54	0.750			
0.0801	5129.10	4.1560	4.1561	0.7275	25.50	0.55	0.750			
0.0823	5265.26	4.1530	4.1533	0.7254	25.50	0.55	0.750			
0.0844	5398.66	4.1500	4.1497	0.7196	25.50	0.55	0.750			
0.0865	5535.10	4.1470	4.1470	0.7316	25.51	0.56	0.750			
0.0887	5674.56	4.1440	4.1439	0.7446	25.51	0.56	0.750			
0.0910	5821.87	4.1410	4.1412	0.7578	25.51	0.56	0.750			
0.0933	5974.22	4.1380	4.1380	0.7687	25.51	0.56	0.750			
0.0957	6122.60	4.1350	4.1351	0.7717	25.51	0.56	0.750			
0.0980	6269.19	4.1320	4.1321	0.7709	25.51	0.56	0.750			
0.1002	6415.86	4.1290	4.1286	0.7756	25.51	0.56	0.750			
0.1026	6565.76	4.1260	4.1261	0.7759	25.51	0.56	0.750			
0.1049	6715.76	4.1230	4.1230	0.7772	25.51	0.56	0.750			
0.1073	6865.55	4.1200	4.1201	0.7816	25.51	0.56	0.750			
0.1096	7017.48	4.1170	4.1169	0.7861	25.51	0.56	0.750			
0.1120	7165.50	4.1140	4.1141	0.7832	25.51	0.56	0.750			
0.1143	7317.05	4.1110	4.1109	0.7838	25.51	0.56	0.750			
0.1167	7467.81	4.1080	4.1081	0.7846	25.51	0.56	0.750			
0.1191	7619.73	4.1050	4.1050	0.7858	25.51	0.56	0.750			
0.1214	7768.88	4.1020	4.1021	0.7882	25.51	0.56	0.750			
0.1237	7919.15	4.0990	4.0990	0.7880	25.51	0.56	0.750			
0.1261	8070.28	4.0960	4.0960	0.7896	25.51	0.56	0.750			
0.1285	8222.39	4.0930	4.0931	0.7924	25.51	0.56	0.750			
0.1309	8377.99	4.0900	4.0900	0.7778	25.51	0.56	0.750			
0.1332	8526.28	4.0870	4.0870	0.7905	25.51	0.56	0.750			
0.1356	8675.45	4.0840	4.0841	0.7878	25.51	0.56	0.750			
0.1379	8826.45	4.0810	4.0806	0.7972	25.51	0.56	0.750			
0.1403	8980.18	4.0780	4.0781	0.8054	25.51	0.56	0.750			
0.1428	9137.44	4.0750	4.0751	0.8131	25.51	0.56	0.750			
0.1452	9295.36	4.0720	4.0721	0.8187	25.51	0.56	0.750			
0.1477	9454.77	4.0690	4.0690	0.8165	25.51	0.56	0.750			
0.1502	9612.71	4.0660	4.0660	0.8141	25.51	0.56	0.750			
0.1526	9769.00	4.0630	4.0630	0.8171	25.51	0.56	0.750			
0.1551	9926.75	4.0600	4.0600	0.8075	25.51	0.56	0.750			
0.1575	10080.39	4.0570	4.0570	0.8127	25.51	0.56	0.750			
0.1599	10235.22	4.0540	4.0541	0.8169	25.51	0.56	0.750			
0.1624	10392.17	4.0510	4.0509	0.8194	25.51	0.56	0.750			
0.1648	10549.72	4.0480	4.0480	0.8254	25.51	0.56	0.750			
0.1673	10710.05	4.0450	4.0451	0.8318	25.51	0.56	0.750			
0.1698	10867.11	4.0420	4.0421	0.8240	25.51	0.56	0.750			
0.1723	11026.61	4.0390	4.0390	0.8321	25.51	0.56	0.750			
0.1747	11183.26	4.0360	4.0361	0.8332	25.51	0.56	0.750			
0.1772	11342.64	4.0330	4.0332	0.8386	25.51	0.56	0.750			
0.1798	11505.54	4.0300	4.0301	0.8446	25.52	0.57	0.750			
0.1823	11670.36	4.0270	4.0271	0.8524	25.52	0.57	0.750			
0.1850	11838.59	4.0240	4.0240	0.8598	25.52	0.57	0.750			
0.1875	11999.45	4.0210	4.0210	0.8495	25.53	0.58	0.750			
0.1900	12163.08	4.0180	4.0180	0.8559	25.53	0.58	0.750			
0.1926	12328.53	4.0150	4.0150	0.8519	25.53	0.58	0.750			
0.1952	12491.98	4.0120	4.0120	0.8541	25.53	0.58	0.750			
0.1977	12655.05	4.0090	4.0090	0.8545	25.53	0.58	0.750			
0.2003	12818.26	4.0060	4.0058	0.8572	25.53	0.58	0.750			
0.2029	12983.42	4.0030	4.0031	0.8622	25.53	0.58	0.750			
0.2055	13149.87	4.0000	4.0000	0.8580	25.53	0.58	0.750			
0.2080	13314.99	3.9970	3.9971	0.8620	25.53	0.58	0.750			
0.2106	13479.16	3.9940	3.9941	0.8618	25.53	0.58	0.750			
0.2132	13646.05	3.9910	3.9901	0.8699	25.53	0.58	0.750			
0.2158	13814.21	3.9880	3.9880	0.8696	25.53	0.58	0.750			
0.2185	13981.99	3.9850	3.9851	0.8742	25.53	0.58	0.750			
0.2211	14151.52	3.9820	3.9820	0.8833	25.53	0.58	0.750			
0.2238	14322.77	3.9790	3.9790	0.8869	25.53	0.58	0.750			
0.2264	14490.03	3.9760	3.9761	0.8805	25.53	0.58	0.750			
0.2291	14660.99	3.9730	3.9730	0.8720	25.53	0.58	0.750			
0.2317	14827.78	3.9700	3.9701	0.8789	25.53	0.58	0.750			
0.2343	14995.40	3.9670	3.9670	0.8859	25.53	0.58	0.750			
0.2370	15165.07	3.9640	3.9641	0.8878	25.53	0.58	0.750			
0.2396	15335.44	3.9610	3.9611	0.8907	25.53	0.58	0.750			
0.2423	15508.72	3.9580	3.9581	0.8929	25.53	0.58	0.750			
0.2450	15681.99	3.9550	3.9550	0.8937	25.52	0.57	0.750			
0.2477	15853.82	3.9520	3.9520	0.8989	25.52	0.57	0.750			
0.2504	16022.47	3.9490	3.9485	0.8888	25.52	0.57	0.750			
0.2530	16193.78	3.9460	3.9461	0.8916	25.52	0.57	0.750			
0.2557	16365.88	3.9430	3.9430	0.8962	25.52	0.57	0.750			
0.2584	16539.27	3.9400	3.9401	0.8951	25.52	0.57	0.750			
0.2611	16713.54	3.9370	3.9370	0.8974	25.52	0.57	0.750			
0.2638	16882.49	3.9340	3.9340	0.8992	25.52	0.57	0.750			
0.2665	17055.69	3.9310	3.9310	0.8942	25.52	0.57	0.750			
0.2692	17225.61	3.9280	3.9279	0.9034	25.52	0.57	0.750			
0.2719	17399.49	3.9250	3.9251	0.9068	25.51	0.56	0.750			
0.2746	17575.21	3.9220	3.9220	0.9074	25.51	0.56	0.750			
0.2774	17750.75	3.9190	3.9190	0.9084	25.51	0.56	0.750			
0.2801	17926.73	3.9160	3.9162	0.8950	25.51	0.56	0.750			
0.2827	18095.95	3.9130	3.9131	0.8907	25.50	0.55	0.750			
0.2854	18264.58	3.9100	3.9101	0.8892	25.50	0.55	0.750			
0.2880	18433.45	3.9070	3.9064	0.8940	25.50	0.55	0.750			
0.2907	18606.34	3.9040	3.9042	0.8978	25.50	0.55	0.750			
0.2934	18780.12	3.9010	3.9010	0.9050	25.49	0.54	0.750			
0.2962	18958.06	3.8980	3.8980	0.9149	25.49	0.54	0.750			
0.2990	19137.03	3.8950	3.8950	0.9133	25.48	0.53	0.750			
0.3017	19306.51	3.8920	3.8919	0.9029	25.48	0.53	0.750			
0.3044	19482.38	3.8890	3.8890	0.8902	25.47	0.52	0.750			
0.3070	19650.68	3.8860	3.8861	0.8929	25.47	0.52	0.750			
0.3097	19821.16	3.8830	3.8831	0.8949	25.47	0.52	0.750			
0.3124	19991.58	3.8800	3.8799	0.8961	25.46	0.51	0.750			
0.3151	20163.76	3.8770	3.8771	0.9007	25.46	0.51	0.750			
0.3178	20340.39	3.8740	3.8740	0.8878	25.45	0.50	0.750			
0.3204	20507.42	3.8710	3.8712	0.8952	25.44	0.49	0.750			
0.3231	20679.08	3.8680	3.8682	0.8943	25.44	0.49	0.750			
0.3258	20850.20	3.8650	3.8642	0.9038	25.43	0.48	0.750			
0.3285	21023.18	3.8620	3.8622	0.9098	25.42	0.47	0.750			
0.3313	21201.01	3.8590	3.8591	0.9164	25.41	0.46	0.750			
0.3341	21382.90	3.8560	3.8561	0.9287	25.40	0.45	0.750			
0.3369	21560.96	3.8530	3.8530	0.9181	25.39	0.44	0.750			
0.3396	21735.80	3.8500	3.8500	0.9170	25.38	0.43	0.750			
0.3424	21910.49	3.8470	3.8470	0.9252	25.37	0.42	0.750			
0.3451	22087.48	3.8440	3.8440	0.9329	25.36	0.41	0.750			
0.3479	22268.38	3.8410	3.8410	0.9412	25.36	0.41	0.750			
0.3508	22450.32	3.8380	3.8379	0.9494	25.35	0.40	0.750	0.320	0.446	
0.3537	22634.62	3.8350	3.8351	0.9553	25.34	0.39	0.750			
0.3565	22815.87	3.8320	3.8321	0.9492	25.33	0.38	0.750			
0.3593	22996.04	3.8290	3.8291	0.9516	25.32	0.37	0.750			
0.3621	23176.32	3.8260	3.8261	0.9524	25.31	0.36	0.750			
0.3650	23361.54	3.8230	3.8232	0.9623	25.30	0.35	0.750			
0.3679	23548.17	3.8200	3.8201	0.9773	25.29	0.34	0.750			
0.3709	23737.75	3.8170	3.8171	0.9904	25.29	0.34	0.750			
0.3740	23932.83	3.8140	3.8140	1.0050	25.28	0.33	0.750			
0.3769	24123.87	3.8110	3.8110	0.9918	25.27	0.32	0.750			
0.3799	24315.36	3.8080	3.8081	1.0086	25.26	0.31	0.750			
0.3829	24508.74	3.8050	3.8051	1.0231	25.25	0.30	0.750			
0.3860	24706.42	3.8020	3.8020	1.0376	25.24	0.29	0.750			
0.3892	24910.67	3.7990	3.7991	1.0336	25.23	0.28	0.750			
0.3923	25106.39	3.7960	3.7961	1.0538	25.22	0.27	0.750			
0.3955	25309.55	3.7930	3.7931	1.0758	25.21	0.26	0.750			
0.3987	25518.65	3.7900	3.7901	1.0940	25.20	0.25	0.750			
0.4020	25729.08	3.7870	3.7871	1.1045	25.19	0.24	0.750			
0.4054	25942.81	3.7840	3.7843	1.1255	25.18	0.23	0.750			
0.4088	26162.38	3.7810	3.7810	1.1491	25.17	0.22	0.750			
0.4123	26388.08	3.7780	3.7779	1.1616	25.15	0.20	0.750			
0.4158	26608.22	3.7750	3.7751	1.1673	25.14	0.19	0.750			
0.4193	26833.91	3.7720	3.7721	1.1965	25.14	0.19	0.750			
0.4229	27066.77	3.7690	3.7690	1.2269	25.13	0.18	0.750			
0.4266	27303.51	3.7660	3.7660	1.2499	25.12	0.17	0.750			
0.4303	27540.76	3.7630	3.7631	1.2611	25.11	0.16	0.750			
0.4341	27784.13	3.7600	3.7602	1.2947	25.09	0.14	0.750			
0.4381	28036.11	3.7570	3.7561	1.3316	25.08	0.13	0.750			
0.4421	28293.36	3.7540	3.7542	1.3664	25.07	0.12	0.750			
0.4462	28558.18	3.7510	3.7511	1.4042	25.05	0.10	0.750			
0.4506	28835.66	3.7480	3.7480	1.4208	25.04	0.09	0.750			
0.4551	29123.85	3.7450	3.7450	1.4607	25.03	0.08	0.750			
0.4593	29394.79	3.7420	3.7421	1.4550	25.01	0.06	0.750			
0.4637	29679.34	3.7390	3.7386	1.4843	25.00	0.05	0.750			
0.4682	29966.53	3.7360	3.7361	1.5135	24.99	0.04	0.750			
0.4728	30258.17	3.7330	3.7332	1.5554	24.98	0.03	0.750			
0.4776	30566.21	3.7300	3.7301	1.6005	24.98	0.03	0.750			
0.4824	30871.29	3.7270	3.7272	1.6694	24.96	0.01	0.750			
0.4875	31198.30	3.7240	3.7241	1.7405	24.95	0.00	0.750			
0.4928	31542.13	3.7210	3.7213	1.7953	24.94	-0.01	0.750			
0.4983	31893.95	3.7180	3.7185	1.8524	24.93	-0.02	0.750			
0.5040	32253.43	3.7150	3.7149	1.9233	24.91	-0.04	0.750			
0.5097	32623.19	3.7120	3.7121	1.9376	24.91	-0.04	0.750			
0.5157	33004.31	3.7090	3.7091	1.9555	24.89	-0.06	0.750			
0.5218	33392.09	3.7060	3.7059	1.9931	24.88	-0.07	0.750			
0.5277	33770.79	3.7030	3.7029	2.0476	24.87	-0.08	0.750			
0.5339	34168.99	3.7000	3.6999	2.1165	24.86	-0.09	0.750			
0.5400	34558.46	3.6970	3.6974	2.1546	24.85	-0.10	0.750			
0.5465	34974.01	3.6940	3.6933	2.3063	24.83	-0.12	0.750			
0.5536	35431.38	3.6910	3.6916	2.4579	24.82	-0.13	0.750			
0.5607	35885.68	3.6880	3.6875	2.5374	24.82	-0.13	0.750			
0.5684	36379.05	3.6850	3.6852	2.6018	24.81	-0.14	0.750			
0.5755	36830.09	3.6820	3.6821	2.4643	24.80	-0.15	0.750			
0.5829	37306.66	3.6790	3.6784	2.5315	24.80	-0.15	0.750			
0.5904	37788.44	3.6760	3.6760	2.5720	24.80	-0.15	0.750			
0.5982	38284.90	3.6730	3.6724	2.6354	24.80	-0.15	0.750			
0.6058	38769.74	3.6700	3.6703	2.4250	24.81	-0.14	0.750			
0.6130	39229.59	3.6670	3.6669	2.3389	24.82	-0.13	0.750			
0.6191	39620.75	3.6640	3.6646	2.0394	24.82	-0.13	0.750			
0.6250	39997.62	3.6610	3.6610	1.9546	24.82	-0.13	0.750			
0.6305	40354.52	3.6580	3.6584	1.8095	24.83	-0.12	0.750			
0.6358	40694.28	3.6550	3.6554	1.6801	24.84	-0.11	0.750			
0.6407	41007.56	3.6520	3.6522	1.5627	24.84	-0.11	0.750			
0.6454	41306.56	3.6490	3.6490	1.4568	24.85	-0.10	0.750			
0.6495	41565.09	3.6460	3.6458	1.3135	24.86	-0.09	0.750			
0.6530	41793.98	3.6430	3.6431	1.2070	24.86	-0.09	0.750			
0.6564	42008.70	3.6400	3.6402	1.1364	24.87	-0.08	0.750			
0.6597	42218.54	3.6370	3.6373	1.0900	24.87	-0.08	0.750			
0.6628	42419.91	3.6340	3.6344	1.0385	24.88	-0.07	0.750			
0.6659	42617.78	3.6310	3.6312	1.0002	24.89	-0.06	0.750			
0.6689	42809.14	3.6280	3.6281	0.9725	24.90	-0.05	0.750			
0.6719	43001.37	3.6250	3.6250	0.9285	24.91	-0.04	0.750			
0.6745	43165.35	3.6220	3.6220	0.8846	24.92	-0.03	0.750			
0.6771	43335.07	3.6190	3.6191	0.8384	24.92	-0.03	0.750			
0.6795	43489.88	3.6160	3.6161	0.8064	24.93	-0.02	0.750			
0.6819	43643.33	3.6130	3.6133	0.7608	24.94	-0.01	0.750			
0.6842	43790.45	3.6100	3.6101	0.7102	24.94	-0.01	0.750			
0.6863	43920.67	3.6070	3.6073	0.6682	24.95	-0.00	0.750			
0.6882	44046.12	3.6040	3.6034	0.6086	24.95	0.00	0.750			
0.6899	44154.86	3.6010	3.6011	0.5502	24.95	0.00	0.750			
0.6916	44259.93	3.5980	3.5983	0.4958	24.96	0.01	0.750			
0.6929	44344.45	3.5950	3.5953	0.4446	24.96	0.01	0.750			
0.6941	44423.03	3.5920	3.5926	0.3982	24.96	0.01	0.750			
0.6953	44499.62	3.5890	3.5870	0.3542	24.97	0.02	0.750			
0.6963	44562.14	3.5860	3.5862	0.3045	24.97	0.02	0.750			
0.6972	44618.52	3.5830	3.5833	0.2631	24.97	0.02	0.750			
0.6979	44662.97	3.5800	3.5807	0.2108	24.97	0.02	0.750			
0.6986	44713.34	3.5770	3.5763	0.1494	24.98	0.03	0.750			
0.6989	44729.12	3.5740	3.5747	0.0828	24.98	0.03	0.750			
0.6990	44738.95	3.5710	3.5728	0.0117	24.98	0.03	0.750			
