Ah_balance (normalized)	Ah_balance (mAh)	Voltage - fit (V)	Voltage -  interpolate (V)	dQ/dV (1/V)	Temperature (°C)	Temperature - diff (°C)	Current (C)	R_DC 0ms (mOhm)	R_DC 50ms (mOhm)	R_DC 50 ms PEC (mOhm)
0.0489	3130.94	4.1960	4.1960	0.7420	25.25	0.57	0.750			
0.0512	3275.25	4.1930	4.1931	0.7509	25.25	0.57	0.750			
0.0534	3418.86	4.1900	4.1900	0.7561	25.25	0.57	0.750			
0.0557	3565.27	4.1870	4.1871	0.7600	25.25	0.57	0.750			
0.0580	3713.67	4.1840	4.1839	0.7559	25.25	0.57	0.750			
0.0603	3857.04	4.1810	4.1810	0.7584	25.26	0.58	0.750			
0.0625	4000.90	4.1780	4.1782	0.7579	25.26	0.58	0.750			
0.0648	4146.79	4.1750	4.1747	0.7633	25.26	0.58	0.750			
0.0671	4294.77	4.1720	4.1721	0.7669	25.26	0.58	0.750			
0.0694	4443.38	4.1690	4.1690	0.7635	25.26	0.58	0.750			
0.0717	4591.51	4.1660	4.1661	0.7742	25.27	0.59	0.750			
0.0740	4739.15	4.1630	4.1630	0.7691	25.27	0.59	0.750			
0.0763	4886.36	4.1600	4.1601	0.7718	25.27	0.59	0.750			
0.0787	5034.51	4.1570	4.1572	0.7729	25.27	0.59	0.750			
0.0810	5184.28	4.1540	4.1541	0.7739	25.27	0.59	0.750			
0.0833	5333.03	4.1510	4.1510	0.7818	25.27	0.59	0.750			
0.0857	5483.99	4.1480	4.1481	0.7815	25.28	0.60	0.750			
0.0880	5633.42	4.1450	4.1450	0.7778	25.28	0.60	0.750			
0.0904	5784.07	4.1420	4.1420	0.7801	25.28	0.60	0.750			
0.0927	5933.63	4.1390	4.1391	0.7811	25.28	0.60	0.750			
0.0951	6085.43	4.1360	4.1359	0.7760	25.28	0.60	0.750			
0.0974	6231.89	4.1330	4.1330	0.7819	25.28	0.60	0.750			
0.0997	6380.12	4.1300	4.1301	0.7802	25.28	0.60	0.750			
0.1021	6532.46	4.1270	4.1268	0.7881	25.28	0.60	0.750			
0.1044	6684.70	4.1240	4.1240	0.7885	25.28	0.60	0.750			
0.1069	6838.51	4.1210	4.1211	0.7840	25.28	0.60	0.750			
0.1092	6987.80	4.1180	4.1181	0.7862	25.29	0.61	0.750			
0.1115	7137.77	4.1150	4.1150	0.7833	25.29	0.61	0.750			
0.1139	7288.36	4.1120	4.1121	0.7859	25.29	0.61	0.750			
0.1162	7438.09	4.1090	4.1091	0.7909	25.29	0.61	0.750			
0.1186	7592.08	4.1060	4.1060	0.7911	25.29	0.61	0.750			
0.1210	7745.53	4.1030	4.1030	0.8014	25.29	0.61	0.750			
0.1234	7899.85	4.1000	4.0999	0.8055	25.30	0.62	0.750			
0.1258	8053.64	4.0970	4.0971	0.8061	25.30	0.62	0.750			
0.1283	8209.56	4.0940	4.0938	0.8093	25.30	0.62	0.750			
0.1307	8365.93	4.0910	4.0911	0.8108	25.30	0.62	0.750			
0.1331	8521.01	4.0880	4.0880	0.8083	25.31	0.63	0.750			
0.1356	8676.73	4.0850	4.0850	0.8107	25.31	0.63	0.750			
0.1380	8831.07	4.0820	4.0820	0.8066	25.32	0.64	0.750			
0.1404	8986.72	4.0790	4.0790	0.8111	25.32	0.64	0.750			
0.1428	9141.75	4.0760	4.0762	0.8183	25.32	0.64	0.750			
0.1454	9303.96	4.0730	4.0729	0.7976	25.32	0.64	0.750			
0.1478	9456.47	4.0700	4.0700	0.8141	25.33	0.65	0.750			
0.1501	9609.04	4.0670	4.0673	0.8129	25.33	0.65	0.750			
0.1526	9766.49	4.0640	4.0630	0.8244	25.33	0.65	0.750			
0.1551	9925.57	4.0610	4.0612	0.8322	25.33	0.65	0.750			
0.1576	10086.00	4.0580	4.0581	0.8303	25.34	0.66	0.750			
0.1601	10245.97	4.0550	4.0552	0.8382	25.34	0.66	0.750			
0.1626	10409.14	4.0520	4.0521	0.8370	25.35	0.67	0.750			
0.1652	10571.26	4.0490	4.0487	0.8412	25.35	0.67	0.750			
0.1677	10732.83	4.0460	4.0461	0.8440	25.35	0.67	0.750			
0.1703	10896.23	4.0430	4.0431	0.8400	25.35	0.67	0.750			
0.1728	11058.83	4.0400	4.0401	0.8458	25.35	0.67	0.750			
0.1753	11219.96	4.0370	4.0370	0.8413	25.35	0.67	0.750			
0.1778	11380.38	4.0340	4.0337	0.8475	25.35	0.67	0.750			
0.1804	11542.72	4.0310	4.0311	0.8519	25.35	0.67	0.750			
0.1829	11708.33	4.0280	4.0280	0.8447	25.35	0.67	0.750			
0.1855	11869.12	4.0250	4.0251	0.8559	25.36	0.68	0.750			
0.1880	12031.66	4.0220	4.0222	0.8594	25.36	0.68	0.750			
0.1906	12198.41	4.0190	4.0191	0.8663	25.36	0.68	0.750			
0.1932	12366.34	4.0160	4.0161	0.8705	25.36	0.68	0.750			
0.1958	12533.99	4.0130	4.0131	0.8760	25.36	0.68	0.750			
0.1985	12706.98	4.0100	4.0101	0.8828	25.37	0.69	0.750			
0.2012	12876.11	4.0070	4.0070	0.8727	25.37	0.69	0.750			
0.2038	13041.40	4.0040	4.0040	0.8753	25.37	0.69	0.750			
0.2064	13210.95	4.0010	4.0010	0.8726	25.37	0.69	0.750			
0.2090	13378.76	3.9980	3.9980	0.8840	25.37	0.69	0.750			
0.2117	13549.13	3.9950	3.9951	0.8871	25.37	0.69	0.750			
0.2144	13720.23	3.9920	3.9919	0.8870	25.37	0.69	0.750			
0.2170	13890.91	3.9890	3.9891	0.8902	25.37	0.69	0.750			
0.2197	14062.83	3.9860	3.9860	0.8865	25.38	0.70	0.750			
0.2224	14230.50	3.9830	3.9831	0.8892	25.38	0.70	0.750			
0.2250	14399.41	3.9800	3.9800	0.8910	25.39	0.71	0.750			
0.2277	14572.09	3.9770	3.9769	0.8980	25.39	0.71	0.750			
0.2304	14747.32	3.9740	3.9740	0.9027	25.39	0.71	0.750			
0.2331	14921.55	3.9710	3.9710	0.9060	25.39	0.71	0.750			
0.2359	15097.63	3.9680	3.9681	0.9103	25.38	0.70	0.750			
0.2386	15270.93	3.9650	3.9651	0.9064	25.38	0.70	0.750			
0.2413	15444.79	3.9620	3.9620	0.9077	25.38	0.70	0.750			
0.2440	15618.14	3.9590	3.9591	0.9030	25.39	0.71	0.750			
0.2468	15792.23	3.9560	3.9561	0.9093	25.39	0.71	0.750			
0.2495	15967.93	3.9530	3.9530	0.9141	25.40	0.72	0.750			
0.2522	16142.14	3.9500	3.9497	0.9157	25.40	0.72	0.750			
0.2550	16317.76	3.9470	3.9471	0.9169	25.40	0.72	0.750			
0.2577	16492.86	3.9440	3.9441	0.9091	25.40	0.72	0.750			
0.2604	16667.56	3.9410	3.9411	0.9156	25.41	0.73	0.750			
0.2631	16840.78	3.9380	3.9382	0.9170	25.41	0.73	0.750			
0.2659	17017.04	3.9350	3.9346	0.9293	25.41	0.73	0.750			
0.2687	17197.45	3.9320	3.9322	0.9309	25.42	0.74	0.750			
0.2715	17377.43	3.9290	3.9291	0.9384	25.42	0.74	0.750			
0.2744	17563.31	3.9260	3.9261	0.9456	25.42	0.74	0.750			
0.2772	17742.19	3.9230	3.9228	0.9318	25.43	0.75	0.750			
0.2801	17923.45	3.9200	3.9200	0.9278	25.43	0.75	0.750			
0.2828	18098.90	3.9170	3.9171	0.9331	25.43	0.75	0.750			
0.2856	18277.87	3.9140	3.9141	0.9378	25.43	0.75	0.750			
0.2884	18459.84	3.9110	3.9110	0.9446	25.43	0.75	0.750			
0.2912	18639.23	3.9080	3.9079	0.9451	25.43	0.75	0.750			
0.2941	18823.30	3.9050	3.9051	0.9353	25.43	0.75	0.750			
0.2969	19002.37	3.9020	3.9021	0.9430	25.42	0.74	0.750			
0.2997	19182.94	3.8990	3.8991	0.9479	25.42	0.74	0.750			
0.3025	19362.07	3.8960	3.8954	0.9503	25.42	0.74	0.750			
0.3054	19545.97	3.8930	3.8931	0.9533	25.42	0.74	0.750			
0.3083	19730.60	3.8900	3.8901	0.9573	25.42	0.74	0.750			
0.3112	19917.67	3.8870	3.8871	0.9660	25.41	0.73	0.750			
0.3141	20102.44	3.8840	3.8840	0.9578	25.41	0.73	0.750			
0.3170	20288.37	3.8810	3.8809	0.9519	25.41	0.73	0.750			
0.3198	20468.78	3.8780	3.8781	0.9552	25.40	0.72	0.750			
0.3227	20651.45	3.8750	3.8751	0.9616	25.39	0.71	0.750			
0.3256	20836.63	3.8720	3.8721	0.9735	25.38	0.70	0.750			
0.3285	21021.74	3.8690	3.8689	0.9814	25.38	0.70	0.750			
0.3314	21212.34	3.8660	3.8661	0.9724	25.38	0.70	0.750			
0.3344	21400.75	3.8630	3.8631	0.9803	25.37	0.69	0.750			
0.3373	21588.42	3.8600	3.8602	0.9894	25.37	0.69	0.750			
0.3403	21777.53	3.8570	3.8564	0.9902	25.37	0.69	0.750			
0.3432	21967.20	3.8540	3.8541	0.9881	25.36	0.68	0.750			
0.3462	22157.38	3.8510	3.8511	0.9957	25.35	0.67	0.750			
0.3492	22351.43	3.8480	3.8481	1.0044	25.33	0.65	0.750			
0.3523	22548.42	3.8450	3.8447	1.0155	25.32	0.64	0.750			
0.3553	22739.81	3.8420	3.8420	0.9935	25.31	0.63	0.750			
0.3582	22926.18	3.8390	3.8391	1.0003	25.31	0.63	0.750			
0.3612	23116.71	3.8360	3.8362	1.0124	25.30	0.62	0.750			
0.3642	23310.60	3.8330	3.8329	1.0231	25.29	0.61	0.750			
0.3674	23510.55	3.8300	3.8299	1.0275	25.28	0.60	0.750	0.299	0.421	
0.3705	23709.67	3.8270	3.8271	1.0420	25.27	0.59	0.750			
0.3736	23912.78	3.8240	3.8242	1.0491	25.26	0.58	0.750			
0.3769	24120.61	3.8210	3.8208	1.0571	25.25	0.57	0.750			
0.3800	24318.28	3.8180	3.8181	1.0322	25.24	0.56	0.750			
0.3831	24515.65	3.8150	3.8151	1.0387	25.23	0.55	0.750			
0.3862	24714.03	3.8120	3.8121	1.0505	25.22	0.54	0.750			
0.3894	24919.06	3.8090	3.8088	1.0627	25.20	0.52	0.750			
0.3925	25119.31	3.8060	3.8061	1.0619	25.19	0.51	0.750			
0.3957	25325.16	3.8030	3.8031	1.0739	25.18	0.50	0.750			
0.3989	25531.78	3.8000	3.8001	1.0880	25.16	0.48	0.750			
0.4022	25743.58	3.7970	3.7968	1.1031	25.15	0.47	0.750			
0.4055	25953.67	3.7940	3.7941	1.1016	25.14	0.46	0.750			
0.4088	26162.79	3.7910	3.7911	1.1172	25.13	0.45	0.750			
0.4122	26379.30	3.7880	3.7882	1.1407	25.12	0.44	0.750			
0.4156	26601.07	3.7850	3.7847	1.1562	25.11	0.43	0.750			
0.4191	26822.91	3.7820	3.7821	1.1720	25.10	0.42	0.750			
0.4226	27049.46	3.7790	3.7791	1.1913	25.09	0.41	0.750			
0.4263	27284.87	3.7760	3.7759	1.2083	25.07	0.39	0.750			
0.4300	27521.44	3.7730	3.7728	1.2380	25.06	0.38	0.750			
0.4336	27750.50	3.7700	3.7701	1.2425	25.05	0.37	0.750			
0.4373	27990.30	3.7670	3.7671	1.2768	25.03	0.35	0.750			
0.4412	28239.69	3.7640	3.7642	1.2897	25.02	0.34	0.750			
0.4451	28486.37	3.7610	3.7611	1.3161	25.00	0.32	0.750			
0.4491	28739.25	3.7580	3.7581	1.3464	24.99	0.31	0.750			
0.4532	29004.66	3.7550	3.7545	1.3540	24.98	0.30	0.750			
0.4573	29267.08	3.7520	3.7522	1.3880	24.96	0.28	0.750			
0.4615	29534.40	3.7490	3.7493	1.4380	24.95	0.27	0.750			
0.4660	29822.12	3.7460	3.7455	1.4569	24.94	0.26	0.750			
0.4705	30112.27	3.7430	3.7429	1.4977	24.92	0.24	0.750			
0.4749	30395.24	3.7400	3.7404	1.5107	24.90	0.22	0.750			
0.4795	30686.42	3.7370	3.7372	1.5756	24.88	0.20	0.750			
0.4843	30994.20	3.7340	3.7341	1.6313	24.87	0.19	0.750			
0.4893	31312.02	3.7310	3.7309	1.6440	24.85	0.17	0.750			
0.4941	31624.10	3.7280	3.7276	1.7137	24.84	0.16	0.750			
0.4995	31966.59	3.7250	3.7247	1.7731	24.82	0.14	0.750			
0.5049	32311.96	3.7220	3.7215	1.8224	24.80	0.12	0.750			
0.5104	32664.67	3.7190	3.7188	1.9168	24.79	0.11	0.750			
0.5161	33028.77	3.7160	3.7163	1.9199	24.77	0.09	0.750			
0.5221	33416.23	3.7130	3.7128	1.9790	24.75	0.07	0.750			
0.5281	33800.51	3.7100	3.7097	2.0042	24.73	0.05	0.750			
0.5340	34173.90	3.7070	3.7074	2.0653	24.71	0.03	0.750			
0.5402	34575.20	3.7040	3.7041	2.1648	24.70	0.02	0.750			
0.5469	35000.81	3.7010	3.7005	2.2903	24.69	0.01	0.750			
0.5536	35432.99	3.6980	3.6980	2.2714	24.68	-0.00	0.750			
0.5606	35878.36	3.6950	3.6947	2.4670	24.65	-0.03	0.750			
0.5681	36358.26	3.6920	3.6916	2.5919	24.64	-0.04	0.750			
0.5761	36873.43	3.6890	3.6890	2.7481	24.62	-0.06	0.750			
0.5850	37440.33	3.6860	3.6860	2.8386	24.61	-0.07	0.750			
0.5932	37967.62	3.6830	3.6826	2.8274	24.59	-0.09	0.750			
0.6012	38478.23	3.6800	3.6798	2.7017	24.58	-0.10	0.750			
0.6093	38992.83	3.6770	3.6771	2.7102	24.57	-0.11	0.750			
0.6174	39511.00	3.6740	3.6740	2.7712	24.56	-0.12	0.750			
0.6257	40042.07	3.6710	3.6710	2.7883	24.54	-0.14	0.750			
0.6343	40597.12	3.6680	3.6684	2.7654	24.55	-0.13	0.750			
0.6427	41133.05	3.6650	3.6650	2.6945	24.55	-0.13	0.750			
0.6507	41642.16	3.6620	3.6617	2.5282	24.56	-0.12	0.750			
0.6581	42119.23	3.6590	3.6589	2.3368	24.56	-0.12	0.750			
0.6646	42531.83	3.6560	3.6561	2.1092	24.56	-0.12	0.750			
0.6706	42915.28	3.6530	3.6529	1.9199	24.57	-0.11	0.750			
0.6758	43251.68	3.6500	3.6501	1.7175	24.58	-0.10	0.750			
0.6807	43562.08	3.6470	3.6470	1.5568	24.58	-0.10	0.750			
0.6851	43845.96	3.6440	3.6443	1.4194	24.59	-0.09	0.750			
0.6892	44110.45	3.6410	3.6410	1.2976	24.60	-0.08	0.750			
0.6929	44348.20	3.6380	3.6379	1.1888	24.60	-0.08	0.750			
0.6960	44546.41	3.6350	3.6350	1.0810	24.60	-0.08	0.750			
0.6990	44738.93	3.6320	3.6320	1.0160	24.61	-0.07	0.750			
0.7020	44927.78	3.6290	3.6288	0.9772	24.61	-0.07	0.750			
0.7048	45109.70	3.6260	3.6260	0.9457	24.62	-0.06	0.750			
0.7076	45288.79	3.6230	3.6231	0.9129	24.62	-0.06	0.750			
0.7104	45463.97	3.6200	3.6200	0.8887	24.63	-0.05	0.750			
0.7130	45631.71	3.6170	3.6170	0.8496	24.64	-0.04	0.750			
0.7155	45793.17	3.6140	3.6141	0.8071	24.64	-0.04	0.750			
0.7179	45946.33	3.6110	3.6111	0.7600	24.65	-0.03	0.750			
0.7202	46090.01	3.6080	3.6080	0.7001	24.66	-0.02	0.750			
0.7222	46221.13	3.6050	3.6050	0.6383	24.66	-0.02	0.750			
0.7240	46335.96	3.6020	3.6021	0.5691	24.67	-0.01	0.750			
0.7256	46438.20	3.5990	3.5989	0.5045	24.67	-0.01	0.750			
0.7270	46528.68	3.5960	3.5959	0.4437	24.68	-0.00	0.750			
0.7282	46606.87	3.5930	3.5930	0.3848	24.68	0.00	0.750			
0.7293	46674.10	3.5900	3.5901	0.3321	24.69	0.01	0.750			
0.7302	46732.76	3.5870	3.5871	0.2800	24.69	0.01	0.750			
0.7309	46780.50	3.5840	3.5824	0.2276	24.69	0.01	0.750			
0.7315	46819.02	3.5810	3.5816	0.1793	24.69	0.01	0.750			
0.7320	46847.65	3.5780	3.5789	0.1373	24.69	0.01	0.750			
0.7323	46870.07	3.5750	3.5766	0.1178	24.70	0.02	0.750			
