Ah_balance (normalized)	Ah_balance (mAh)	Voltage - fit (V)	Voltage -  interpolate (V)	dQ/dV (1/V)	Temperature (°C)	Temperature - diff (°C)	Current (C)	R_DC 0ms (mOhm)	R_DC 50ms (mOhm)	R_DC 50 ms PEC (mOhm)
0.0004	25.36	4.1580	4.1580	-0.1258	25.10	0.02	-0.750			
0.0008	53.38	4.1550	4.1550	-0.1676	25.10	0.02	-0.750			
0.0014	89.51	4.1520	4.1520	-0.2104	25.09	0.01	-0.750			
0.0021	135.14	4.1490	4.1491	-0.2517	25.09	0.01	-0.750			
0.0029	187.68	4.1460	4.1459	-0.2902	25.09	0.01	-0.750			
0.0039	248.39	4.1430	4.1430	-0.3281	25.09	0.01	-0.750			
0.0049	315.34	4.1400	4.1402	-0.3647	25.09	0.01	-0.750			
0.0061	388.94	4.1370	4.1369	-0.4007	25.09	0.01	-0.750			
0.0074	470.62	4.1340	4.1339	-0.4317	25.09	0.01	-0.750			
0.0087	556.45	4.1310	4.1309	-0.4617	25.08	0.00	-0.750			
0.0101	648.77	4.1280	4.1280	-0.4880	25.08	0.00	-0.750			
0.0117	747.04	4.1250	4.1248	-0.5146	25.08	-0.00	-0.750			
0.0132	847.29	4.1220	4.1218	-0.5389	25.08	-0.00	-0.750			
0.0149	952.94	4.1190	4.1190	-0.5583	25.07	-0.01	-0.750			
0.0166	1061.25	4.1160	4.1161	-0.5818	25.07	-0.01	-0.750			
0.0184	1178.43	4.1130	4.1130	-0.5978	25.07	-0.01	-0.750			
0.0203	1296.19	4.1100	4.1100	-0.6098	25.06	-0.02	-0.750			
0.0221	1414.47	4.1070	4.1069	-0.6246	25.06	-0.02	-0.750			
0.0240	1534.83	4.1040	4.1040	-0.6339	25.06	-0.02	-0.750			
0.0259	1657.19	4.1010	4.1009	-0.6402	25.06	-0.02	-0.750			
0.0278	1781.26	4.0980	4.0980	-0.6516	25.05	-0.03	-0.750			
0.0298	1907.12	4.0950	4.0951	-0.6615	25.05	-0.03	-0.750			
0.0318	2037.54	4.0920	4.0920	-0.6720	25.05	-0.03	-0.750			
0.0339	2167.52	4.0890	4.0889	-0.6772	25.04	-0.04	-0.750			
0.0359	2297.33	4.0860	4.0861	-0.6833	25.04	-0.04	-0.750			
0.0380	2429.72	4.0830	4.0830	-0.6905	25.04	-0.04	-0.750			
0.0400	2560.35	4.0800	4.0799	-0.7098	25.03	-0.05	-0.750			
0.0422	2699.91	4.0770	4.0770	-0.7081	25.03	-0.05	-0.750			
0.0443	2838.08	4.0740	4.0738	-0.7146	25.03	-0.05	-0.750			
0.0465	2976.18	4.0710	4.0708	-0.7134	25.02	-0.06	-0.750			
0.0487	3114.35	4.0680	4.0680	-0.7130	25.02	-0.06	-0.750			
0.0508	3248.94	4.0650	4.0649	-0.7125	25.02	-0.06	-0.750			
0.0529	3382.48	4.0620	4.0620	-0.7168	25.02	-0.06	-0.750			
0.0550	3518.45	4.0590	4.0591	-0.7111	25.02	-0.06	-0.750			
0.0572	3663.18	4.0560	4.0559	-0.7273	25.02	-0.06	-0.750			
0.0594	3802.71	4.0530	4.0530	-0.7258	25.02	-0.06	-0.750			
0.0616	3942.28	4.0500	4.0500	-0.7286	25.02	-0.06	-0.750			
0.0638	4081.23	4.0470	4.0469	-0.7272	25.02	-0.06	-0.750			
0.0659	4219.09	4.0440	4.0440	-0.7354	25.02	-0.06	-0.750			
0.0681	4358.96	4.0410	4.0410	-0.7387	25.03	-0.05	-0.750			
0.0704	4504.92	4.0380	4.0378	-0.7457	25.03	-0.05	-0.750			
0.0727	4650.55	4.0350	4.0351	-0.7465	25.03	-0.05	-0.750			
0.0749	4792.77	4.0320	4.0320	-0.7489	25.03	-0.05	-0.750			
0.0771	4932.70	4.0290	4.0290	-0.7632	25.03	-0.05	-0.750			
0.0794	5082.90	4.0260	4.0259	-0.7577	25.03	-0.05	-0.750			
0.0817	5225.82	4.0230	4.0229	-0.7551	25.03	-0.05	-0.750			
0.0840	5375.91	4.0200	4.0199	-0.7573	25.03	-0.05	-0.750			
0.0863	5521.38	4.0170	4.0171	-0.7544	25.03	-0.05	-0.750			
0.0885	5665.17	4.0140	4.0139	-0.7581	25.03	-0.05	-0.750			
0.0908	5808.03	4.0110	4.0110	-0.7626	25.03	-0.05	-0.750			
0.0930	5953.93	4.0080	4.0078	-0.7753	25.04	-0.04	-0.750			
0.0954	6105.04	4.0050	4.0049	-0.7728	25.04	-0.04	-0.750			
0.0977	6254.82	4.0020	4.0022	-0.7690	25.04	-0.04	-0.750			
0.1000	6402.77	3.9990	3.9989	-0.7692	25.04	-0.04	-0.750			
0.1023	6549.30	3.9960	3.9959	-0.7601	25.04	-0.04	-0.750			
0.1046	6693.83	3.9930	3.9929	-0.7610	25.04	-0.04	-0.750			
0.1068	6837.89	3.9900	3.9900	-0.7585	25.04	-0.04	-0.750			
0.1092	6986.01	3.9870	3.9870	-0.7677	25.04	-0.04	-0.750			
0.1115	7133.91	3.9840	3.9840	-0.7742	25.04	-0.04	-0.750			
0.1138	7281.31	3.9810	3.9810	-0.7826	25.04	-0.04	-0.750			
0.1161	7432.60	3.9780	3.9779	-0.7799	25.05	-0.03	-0.750			
0.1185	7582.42	3.9750	3.9751	-0.7764	25.05	-0.03	-0.750			
0.1209	7736.03	3.9720	3.9720	-0.7850	25.06	-0.02	-0.750			
0.1232	7885.73	3.9690	3.9698	-0.7827	25.06	-0.02	-0.750			
0.1255	8034.32	3.9660	3.9659	-0.7823	25.06	-0.02	-0.750			
0.1278	8182.05	3.9630	3.9630	-0.7858	25.06	-0.02	-0.750			
0.1302	8333.76	3.9600	3.9598	-0.7931	25.06	-0.02	-0.750			
0.1327	8490.42	3.9570	3.9570	-0.8015	25.06	-0.02	-0.750			
0.1350	8642.80	3.9540	3.9540	-0.8010	25.06	-0.02	-0.750			
0.1375	8798.06	3.9510	3.9509	-0.8014	25.06	-0.02	-0.750			
0.1399	8952.34	3.9480	3.9479	-0.7996	25.07	-0.01	-0.750			
0.1422	9103.05	3.9450	3.9450	-0.7982	25.07	-0.01	-0.750			
0.1446	9255.66	3.9420	3.9420	-0.8008	25.07	-0.01	-0.750			
0.1471	9412.44	3.9390	3.9388	-0.8012	25.08	-0.00	-0.750			
0.1495	9566.35	3.9360	3.9361	-0.8016	25.08	0.00	-0.750			
0.1518	9716.32	3.9330	3.9331	-0.8144	25.08	0.00	-0.750			
0.1544	9879.20	3.9300	3.9300	-0.8058	25.08	0.00	-0.750			
0.1568	10035.00	3.9270	3.9268	-0.8011	25.09	0.01	-0.750			
0.1592	10186.71	3.9240	3.9239	-0.8018	25.09	0.01	-0.750			
0.1616	10340.89	3.9210	3.9211	-0.7995	25.09	0.01	-0.750			
0.1639	10492.43	3.9180	3.9177	-0.8027	25.09	0.01	-0.750			
0.1663	10644.07	3.9150	3.9151	-0.7964	25.09	0.01	-0.750			
0.1687	10794.35	3.9120	3.9121	-0.7927	25.10	0.02	-0.750			
0.1712	10954.02	3.9090	3.9088	-0.8097	25.10	0.02	-0.750			
0.1736	11110.32	3.9060	3.9063	-0.8022	25.10	0.02	-0.750			
0.1760	11262.85	3.9030	3.9030	-0.8001	25.10	0.02	-0.750			
0.1784	11416.96	3.9000	3.9000	-0.8034	25.10	0.02	-0.750			
0.1808	11570.61	3.8970	3.8969	-0.8032	25.11	0.03	-0.750			
0.1832	11724.66	3.8940	3.8939	-0.8035	25.11	0.03	-0.750			
0.1856	11877.42	3.8910	3.8911	-0.8041	25.11	0.03	-0.750			
0.1880	12032.61	3.8880	3.8880	-0.7993	25.11	0.03	-0.750			
0.1904	12187.15	3.8850	3.8848	-0.8115	25.11	0.03	-0.750			
0.1929	12344.59	3.8820	3.8820	-0.8023	25.12	0.04	-0.750			
0.1953	12498.90	3.8790	3.8786	-0.7972	25.12	0.04	-0.750			
0.1977	12652.90	3.8760	3.8764	-0.7905	25.12	0.04	-0.750			
0.2001	12804.44	3.8730	3.8728	-0.7801	25.12	0.04	-0.750			
0.2024	12950.51	3.8700	3.8700	-0.7728	25.13	0.05	-0.750			
0.2047	13099.34	3.8670	3.8669	-0.7681	25.13	0.05	-0.750			
0.2070	13245.74	3.8640	3.8640	-0.7669	25.13	0.05	-0.750			
0.2093	13392.37	3.8610	3.8610	-0.7598	25.14	0.06	-0.750			
0.2115	13536.45	3.8580	3.8580	-0.7550	25.14	0.06	-0.750			
0.2138	13680.04	3.8550	3.8549	-0.7565	25.14	0.06	-0.750			
0.2160	13823.31	3.8520	3.8519	-0.7547	25.14	0.06	-0.750			
0.2182	13965.42	3.8490	3.8490	-0.7576	25.15	0.07	-0.750			
0.2205	14114.65	3.8460	3.8460	-0.7666	25.15	0.07	-0.750			
0.2229	14263.39	3.8430	3.8430	-0.7679	25.15	0.07	-0.750			
0.2252	14410.99	3.8400	3.8400	-0.7668	25.15	0.07	-0.750			
0.2274	14555.27	3.8370	3.8371	-0.7735	25.16	0.08	-0.750			
0.2298	14706.61	3.8340	3.8340	-0.7663	25.16	0.08	-0.750			
0.2321	14854.20	3.8310	3.8308	-0.7608	25.16	0.08	-0.750			
0.2344	15000.00	3.8280	3.8280	-0.7573	25.17	0.09	-0.750			
0.2366	15144.30	3.8250	3.8249	-0.7552	25.17	0.09	-0.750			
0.2389	15288.76	3.8220	3.8219	-0.7524	25.17	0.09	-0.750			
0.2411	15431.84	3.8190	3.8189	-0.7623	25.17	0.09	-0.750			
0.2434	15578.26	3.8160	3.8158	-0.7543	25.18	0.10	-0.750			
0.2457	15727.85	3.8130	3.8130	-0.7647	25.18	0.10	-0.750			
0.2480	15874.32	3.8100	3.8106	-0.7591	25.18	0.10	-0.750			
0.2503	16020.19	3.8070	3.8069	-0.7556	25.18	0.10	-0.750			
0.2525	16162.80	3.8040	3.8039	-0.7588	25.18	0.10	-0.750			
0.2548	16305.08	3.8010	3.8009	-0.7513	25.18	0.10	-0.750			
0.2571	16451.70	3.7980	3.7980	-0.7652	25.18	0.10	-0.750			
0.2594	16599.41	3.7950	3.7950	-0.7676	25.18	0.10	-0.750			
0.2617	16747.03	3.7920	3.7921	-0.7683	25.18	0.10	-0.750			
0.2640	16893.40	3.7890	3.7889	-0.7811	25.19	0.11	-0.750			
0.2663	17045.51	3.7860	3.7860	-0.7767	25.19	0.11	-0.750			
0.2686	17193.34	3.7830	3.7829	-0.7793	25.19	0.11	-0.750			
0.2710	17345.90	3.7800	3.7799	-0.7856	25.20	0.12	-0.750			
0.2734	17496.17	3.7770	3.7779	-0.7863	25.20	0.12	-0.750			
0.2757	17645.96	3.7740	3.7738	-0.7952	25.20	0.12	-0.750			
0.2781	17798.18	3.7710	3.7711	-0.7991	25.20	0.12	-0.750			
0.2805	17952.10	3.7680	3.7679	-0.8003	25.20	0.12	-0.750			
0.2829	18108.50	3.7650	3.7649	-0.8125	25.20	0.12	-0.750			
0.2854	18264.03	3.7620	3.7622	-0.8131	25.20	0.12	-0.750			
0.2878	18421.47	3.7590	3.7589	-0.8184	25.20	0.12	-0.750			
0.2903	18579.52	3.7560	3.7560	-0.8256	25.20	0.12	-0.750			
0.2928	18738.41	3.7530	3.7530	-0.8302	25.20	0.12	-0.750			
0.2953	18897.92	3.7500	3.7500	-0.8394	25.20	0.12	-0.750			
0.2978	19061.66	3.7470	3.7471	-0.8395	25.20	0.12	-0.750			
0.3003	19217.16	3.7440	3.7440	-0.8567	25.20	0.12	-0.750			
0.3029	19385.33	3.7410	3.7410	-0.8557	25.19	0.11	-0.750			
0.3055	19551.65	3.7380	3.7379	-0.8563	25.19	0.11	-0.750			
0.3080	19714.74	3.7350	3.7349	-0.8609	25.18	0.10	-0.750			
0.3106	19881.20	3.7320	3.7328	-0.8749	25.18	0.10	-0.750			
0.3133	20049.58	3.7290	3.7289	-0.8839	25.18	0.10	-0.750			
0.3160	20224.54	3.7260	3.7258	-0.8979	25.18	0.10	-0.750			
0.3187	20395.22	3.7230	3.7230	-0.9019	25.18	0.10	-0.750			
0.3214	20572.68	3.7200	3.7200	-0.9254	25.18	0.10	-0.750			
0.3242	20749.62	3.7170	3.7169	-0.9319	25.18	0.10	-0.750			
0.3270	20927.43	3.7140	3.7138	-0.9426	25.18	0.10	-0.750			
0.3298	21108.80	3.7110	3.7110	-0.9563	25.17	0.09	-0.750			
0.3327	21291.27	3.7080	3.7080	-0.9685	25.17	0.09	-0.750			
0.3356	21480.32	3.7050	3.7053	-1.0150	25.17	0.09	-0.750			
0.3387	21678.48	3.7020	3.7019	-1.0143	25.16	0.08	-0.750			
0.3418	21876.91	3.6990	3.6991	-1.0135	25.16	0.08	-0.750	0.436	0.592	
0.3449	22072.50	3.6960	3.6958	-1.0196	25.15	0.07	-0.750			
0.3480	22270.76	3.6930	3.6937	-1.0306	25.14	0.06	-0.750			
0.3510	22466.23	3.6900	3.6897	-1.0457	25.14	0.06	-0.750			
0.3542	22666.32	3.6870	3.6869	-1.0524	25.14	0.06	-0.750			
0.3573	22866.78	3.6840	3.6839	-1.0719	25.13	0.05	-0.750			
0.3606	23078.57	3.6810	3.6814	-1.1020	25.13	0.05	-0.750			
0.3639	23292.27	3.6780	3.6780	-1.1154	25.12	0.04	-0.750			
0.3673	23505.41	3.6750	3.6749	-1.1303	25.12	0.04	-0.750			
0.3707	23724.41	3.6720	3.6720	-1.1442	25.11	0.03	-0.750			
0.3741	23945.20	3.6690	3.6690	-1.1723	25.11	0.03	-0.750			
0.3777	24174.52	3.6660	3.6660	-1.1871	25.10	0.02	-0.750			
0.3813	24404.15	3.6630	3.6629	-1.1980	25.10	0.02	-0.750			
0.3849	24635.31	3.6600	3.6599	-1.2321	25.09	0.01	-0.750			
0.3887	24874.28	3.6570	3.6569	-1.2523	25.09	0.01	-0.750			
0.3925	25117.18	3.6540	3.6538	-1.2675	25.08	0.00	-0.750			
0.3963	25362.45	3.6510	3.6509	-1.2868	25.08	0.00	-0.750			
0.4002	25613.65	3.6480	3.6479	-1.3060	25.08	-0.00	-0.750			
0.4041	25864.57	3.6450	3.6449	-1.3177	25.07	-0.01	-0.750			
0.4080	26109.76	3.6420	3.6421	-1.3505	25.06	-0.02	-0.750			
0.4120	26371.05	3.6390	3.6390	-1.3891	25.06	-0.02	-0.750			
0.4164	26648.13	3.6360	3.6358	-1.3978	25.05	-0.03	-0.750			
0.4206	26919.44	3.6330	3.6328	-1.4299	25.04	-0.04	-0.750			
0.4250	27198.78	3.6300	3.6297	-1.4602	25.04	-0.04	-0.750			
0.4294	27484.46	3.6270	3.6266	-1.4717	25.04	-0.04	-0.750			
0.4338	27763.56	3.6240	3.6240	-1.4858	25.03	-0.05	-0.750			
0.4382	28045.40	3.6210	3.6209	-1.4908	25.03	-0.05	-0.750			
0.4427	28330.87	3.6180	3.6178	-1.5754	25.02	-0.06	-0.750			
0.4476	28644.24	3.6150	3.6150	-1.6107	25.02	-0.06	-0.750			
0.4523	28949.96	3.6120	3.6118	-1.6263	25.02	-0.06	-0.750			
0.4574	29276.16	3.6090	3.6094	-1.6527	25.01	-0.07	-0.750			
0.4626	29606.77	3.6060	3.6056	-1.6878	25.01	-0.07	-0.750			
0.4676	29927.63	3.6030	3.6026	-1.7044	25.00	-0.08	-0.750			
0.4728	30258.82	3.6000	3.5998	-1.7006	25.00	-0.08	-0.750			
0.4778	30579.39	3.5970	3.5972	-1.7811	25.00	-0.08	-0.750			
0.4831	30917.69	3.5940	3.5942	-1.7614	25.00	-0.08	-0.750			
0.4884	31258.32	3.5910	3.5906	-1.7940	25.00	-0.08	-0.750			
0.4940	31616.99	3.5880	3.5884	-1.8089	25.00	-0.08	-0.750			
0.4994	31962.49	3.5850	3.5846	-1.8449	25.00	-0.08	-0.750			
0.5050	32318.38	3.5820	3.5816	-1.8794	25.00	-0.08	-0.750			
0.5106	32676.00	3.5790	3.5790	-1.9097	25.00	-0.08	-0.750			
0.5165	33053.51	3.5760	3.5763	-1.9968	25.00	-0.08	-0.750			
0.5225	33442.32	3.5730	3.5731	-2.0322	25.00	-0.08	-0.750			
0.5289	33848.04	3.5700	3.5697	-2.0628	25.00	-0.08	-0.750			
0.5349	34232.97	3.5670	3.5672	-1.9962	25.00	-0.08	-0.750			
0.5409	34618.46	3.5640	3.5646	-1.9711	25.00	-0.08	-0.750			
0.5466	34984.83	3.5610	3.5607	-1.9408	25.00	-0.08	-0.750			
0.5525	35357.50	3.5580	3.5584	-1.9487	25.01	-0.07	-0.750			
0.5584	35739.65	3.5550	3.5553	-1.9467	25.02	-0.06	-0.750			
0.5643	36115.61	3.5520	3.5517	-1.9729	25.02	-0.06	-0.750			
0.5703	36500.85	3.5490	3.5493	-1.9353	25.02	-0.06	-0.750			
0.5763	36882.25	3.5460	3.5461	-1.9695	25.02	-0.06	-0.750			
0.5820	37244.88	3.5430	3.5436	-1.9473	25.03	-0.05	-0.750			
0.5878	37620.91	3.5400	3.5394	-1.9517	25.04	-0.04	-0.750			
0.5938	38000.81	3.5370	3.5369	-1.9250	25.05	-0.03	-0.750			
0.5997	38381.53	3.5340	3.5343	-1.9476	25.05	-0.03	-0.750			
0.6054	38748.08	3.5310	3.5312	-1.9193	25.07	-0.01	-0.750			
0.6110	39104.66	3.5280	3.5284	-1.8343	25.08	0.00	-0.750			
0.6165	39456.99	3.5250	3.5246	-1.7734	25.09	0.01	-0.750			
0.6218	39792.17	3.5220	3.5216	-1.7404	25.11	0.03	-0.750			
0.6271	40132.30	3.5190	3.5192	-1.7488	25.12	0.04	-0.750			
0.6321	40455.75	3.5160	3.5152	-1.6789	25.13	0.05	-0.750			
0.6372	40781.80	3.5130	3.5132	-1.6486	25.14	0.06	-0.750			
0.6423	41110.25	3.5100	3.5100	-1.6361	25.16	0.08	-0.750			
0.6472	41421.95	3.5070	3.5071	-1.5883	25.18	0.10	-0.750			
0.6519	41718.47	3.5040	3.5042	-1.5228	25.19	0.11	-0.750			
0.6562	41996.65	3.5010	3.5011	-1.4456	25.21	0.13	-0.750			
0.6605	42271.54	3.4980	3.4985	-1.4122	25.22	0.14	-0.750			
0.6647	42538.76	3.4950	3.4949	-1.3586	25.24	0.16	-0.750			
0.6687	42794.22	3.4920	3.4919	-1.3167	25.25	0.17	-0.750			
0.6725	43041.23	3.4890	3.4895	-1.3003	25.27	0.19	-0.750			
0.6765	43295.03	3.4860	3.4859	-1.2897	25.28	0.20	-0.750			
0.6803	43537.45	3.4830	3.4827	-1.2720	25.29	0.21	-0.750			
0.6841	43780.97	3.4800	3.4797	-1.3403	25.30	0.22	-0.750			
