Ah_balance (normalized)	Ah_balance (mAh)	Voltage - fit (V)	Voltage -  interpolate (V)	dQ/dV (1/V)	Temperature (°C)	Temperature - diff (°C)	Current (C)	R_DC 0ms (mOhm)	R_DC 50ms (mOhm)	R_DC 50 ms PEC (mOhm)
0.0472	3020.04	4.1990	4.1990	0.7427	26.30	0.51	0.750			
0.0494	3163.57	4.1960	4.1960	0.7501	26.30	0.51	0.750			
0.0517	3308.19	4.1930	4.1930	0.7529	26.30	0.51	0.750			
0.0540	3453.04	4.1900	4.1901	0.7539	26.30	0.51	0.750			
0.0562	3598.07	4.1870	4.1870	0.7540	26.30	0.51	0.750			
0.0585	3742.79	4.1840	4.1840	0.7552	26.29	0.50	0.750			
0.0607	3886.56	4.1810	4.1810	0.7547	26.29	0.50	0.750			
0.0630	4032.10	4.1780	4.1779	0.7560	26.29	0.50	0.750			
0.0653	4178.13	4.1750	4.1750	0.7574	26.29	0.50	0.750			
0.0676	4323.80	4.1720	4.1720	0.7573	26.29	0.50	0.750			
0.0698	4469.33	4.1690	4.1690	0.7598	26.29	0.50	0.750			
0.0721	4615.10	4.1660	4.1660	0.7627	26.29	0.50	0.750			
0.0744	4761.06	4.1630	4.1629	0.7633	26.29	0.50	0.750			
0.0767	4908.06	4.1600	4.1600	0.7645	26.29	0.50	0.750			
0.0790	5055.61	4.1570	4.1571	0.7664	26.29	0.50	0.750			
0.0813	5203.68	4.1540	4.1540	0.7637	26.29	0.50	0.750			
0.0836	5349.59	4.1510	4.1510	0.7631	26.29	0.50	0.750			
0.0859	5494.43	4.1480	4.1480	0.7630	26.29	0.50	0.750			
0.0881	5640.35	4.1450	4.1447	0.7651	26.29	0.50	0.750			
0.0904	5787.93	4.1420	4.1420	0.7692	26.29	0.50	0.750			
0.0928	5937.16	4.1390	4.1390	0.7699	26.29	0.50	0.750			
0.0951	6086.24	4.1360	4.1360	0.7741	26.29	0.50	0.750			
0.0974	6235.84	4.1330	4.1330	0.7745	26.29	0.50	0.750			
0.0997	6382.57	4.1300	4.1300	0.7707	26.29	0.50	0.750			
0.1020	6530.15	4.1270	4.1270	0.7720	26.29	0.50	0.750			
0.1043	6677.61	4.1240	4.1240	0.7738	26.29	0.50	0.750			
0.1067	6826.99	4.1210	4.1210	0.7706	26.29	0.50	0.750			
0.1090	6974.63	4.1180	4.1180	0.7785	26.30	0.51	0.750			
0.1113	7123.77	4.1150	4.1151	0.7781	26.30	0.51	0.750			
0.1137	7273.96	4.1120	4.1120	0.7818	26.30	0.51	0.750			
0.1160	7424.34	4.1090	4.1090	0.7842	26.30	0.51	0.750			
0.1184	7575.45	4.1060	4.1061	0.7827	26.30	0.51	0.750			
0.1207	7725.68	4.1030	4.1030	0.7868	26.30	0.51	0.750			
0.1231	7876.37	4.1000	4.1000	0.7888	26.30	0.51	0.750			
0.1254	8027.06	4.0970	4.0968	0.7902	26.30	0.51	0.750			
0.1278	8180.27	4.0940	4.0941	0.7955	26.30	0.51	0.750			
0.1302	8333.66	4.0910	4.0910	0.7956	26.30	0.51	0.750			
0.1326	8487.77	4.0880	4.0880	0.8001	26.31	0.52	0.750			
0.1350	8641.68	4.0850	4.0850	0.8028	26.31	0.52	0.750			
0.1374	8793.55	4.0820	4.0820	0.8012	26.31	0.52	0.750			
0.1398	8948.04	4.0790	4.0790	0.8051	26.31	0.52	0.750			
0.1423	9106.05	4.0760	4.0760	0.7987	26.31	0.52	0.750			
0.1446	9257.39	4.0730	4.0731	0.8029	26.31	0.52	0.750			
0.1471	9411.34	4.0700	4.0700	0.8046	26.31	0.52	0.750			
0.1494	9564.44	4.0670	4.0670	0.8069	26.31	0.52	0.750			
0.1518	9718.11	4.0640	4.0639	0.8080	26.31	0.52	0.750			
0.1543	9875.97	4.0610	4.0611	0.8068	26.31	0.52	0.750			
0.1567	10031.79	4.0580	4.0580	0.8157	26.31	0.52	0.750			
0.1592	10189.66	4.0550	4.0550	0.8200	26.31	0.52	0.750			
0.1616	10345.16	4.0520	4.0521	0.8184	26.31	0.52	0.750			
0.1641	10502.71	4.0490	4.0489	0.8244	26.31	0.52	0.750			
0.1666	10662.41	4.0460	4.0461	0.8252	26.31	0.52	0.750			
0.1691	10822.21	4.0430	4.0430	0.8293	26.31	0.52	0.750			
0.1716	10981.78	4.0400	4.0400	0.8315	26.31	0.52	0.750			
0.1741	11140.43	4.0370	4.0370	0.8308	26.31	0.52	0.750			
0.1766	11301.44	4.0340	4.0339	0.8290	26.31	0.52	0.750			
0.1791	11461.72	4.0310	4.0310	0.8226	26.32	0.53	0.750			
0.1815	11618.14	4.0280	4.0281	0.8244	26.32	0.53	0.750			
0.1840	11775.48	4.0250	4.0251	0.8280	26.32	0.53	0.750			
0.1864	11932.36	4.0220	4.0220	0.8353	26.33	0.54	0.750			
0.1889	12092.11	4.0190	4.0189	0.8387	26.33	0.54	0.750			
0.1915	12257.11	4.0160	4.0160	0.8386	26.33	0.54	0.750			
0.1941	12422.16	4.0130	4.0131	0.8494	26.33	0.54	0.750			
0.1966	12582.96	4.0100	4.0102	0.8545	26.34	0.55	0.750			
0.1991	12745.18	4.0070	4.0070	0.8560	26.34	0.55	0.750			
0.2017	12909.01	4.0040	4.0041	0.8557	26.34	0.55	0.750			
0.2043	13074.54	4.0010	4.0010	0.8595	26.34	0.55	0.750			
0.2069	13242.75	3.9980	3.9982	0.8692	26.34	0.55	0.750			
0.2095	13410.50	3.9950	3.9950	0.8732	26.35	0.56	0.750			
0.2122	13577.81	3.9920	3.9919	0.8674	26.35	0.56	0.750			
0.2147	13743.75	3.9890	3.9890	0.8678	26.35	0.56	0.750			
0.2174	13911.44	3.9860	3.9860	0.8606	26.35	0.56	0.750			
0.2199	14074.91	3.9830	3.9830	0.8692	26.35	0.56	0.750			
0.2225	14241.88	3.9800	3.9801	0.8702	26.35	0.56	0.750			
0.2251	14408.32	3.9770	3.9769	0.8699	26.35	0.56	0.750			
0.2277	14575.80	3.9740	3.9740	0.8718	26.35	0.56	0.750			
0.2304	14744.63	3.9710	3.9712	0.8727	26.35	0.56	0.750			
0.2330	14912.00	3.9680	3.9681	0.8726	26.35	0.56	0.750			
0.2356	15079.52	3.9650	3.9650	0.8716	26.35	0.56	0.750			
0.2382	15246.13	3.9620	3.9615	0.8751	26.35	0.56	0.750			
0.2409	15416.12	3.9590	3.9590	0.8758	26.35	0.56	0.750			
0.2435	15583.82	3.9560	3.9561	0.8789	26.35	0.56	0.750			
0.2462	15754.22	3.9530	3.9530	0.8844	26.35	0.56	0.750			
0.2488	15924.84	3.9500	3.9500	0.8828	26.35	0.56	0.750			
0.2514	16092.00	3.9470	3.9470	0.8827	26.35	0.56	0.750			
0.2541	16263.34	3.9440	3.9440	0.8718	26.34	0.55	0.750			
0.2567	16429.45	3.9410	3.9410	0.8777	26.34	0.55	0.750			
0.2594	16598.77	3.9380	3.9381	0.8767	26.34	0.55	0.750			
0.2620	16765.66	3.9350	3.9350	0.8753	26.33	0.54	0.750			
0.2646	16932.60	3.9320	3.9322	0.8804	26.33	0.54	0.750			
0.2672	17103.95	3.9290	3.9289	0.8767	26.33	0.54	0.750			
0.2699	17272.20	3.9260	3.9260	0.8767	26.33	0.54	0.750			
0.2725	17442.52	3.9230	3.9231	0.8778	26.33	0.54	0.750			
0.2751	17609.19	3.9200	3.9200	0.8707	26.33	0.54	0.750			
0.2778	17777.32	3.9170	3.9170	0.8754	26.33	0.54	0.750			
0.2804	17943.61	3.9140	3.9140	0.8677	26.32	0.53	0.750			
0.2830	18110.05	3.9110	3.9110	0.8663	26.31	0.52	0.750			
0.2856	18278.38	3.9080	3.9080	0.8724	26.31	0.52	0.750			
0.2882	18443.18	3.9050	3.9048	0.8673	26.30	0.51	0.750			
0.2908	18608.63	3.9020	3.9020	0.8724	26.29	0.50	0.750			
0.2934	18777.20	3.8990	3.8990	0.8651	26.29	0.50	0.750			
0.2960	18942.14	3.8960	3.8960	0.8672	26.28	0.49	0.750			
0.2986	19108.30	3.8930	3.8931	0.8707	26.28	0.49	0.750			
0.3012	19276.51	3.8900	3.8897	0.8777	26.27	0.48	0.750			
0.3038	19446.36	3.8870	3.8871	0.8731	26.27	0.48	0.750			
0.3065	19613.56	3.8840	3.8841	0.8813	26.26	0.47	0.750			
0.3091	19782.63	3.8810	3.8811	0.8886	26.26	0.47	0.750			
0.3118	19957.20	3.8780	3.8780	0.9019	26.25	0.46	0.750			
0.3145	20126.01	3.8750	3.8749	0.8924	26.25	0.46	0.750			
0.3172	20298.18	3.8720	3.8721	0.8970	26.24	0.45	0.750			
0.3199	20471.76	3.8690	3.8691	0.9028	26.23	0.44	0.750			
0.3226	20646.55	3.8660	3.8660	0.9053	26.23	0.44	0.750			
0.3253	20819.56	3.8630	3.8629	0.8998	26.22	0.43	0.750			
0.3280	20990.95	3.8600	3.8601	0.9033	26.22	0.43	0.750			
0.3307	21165.39	3.8570	3.8570	0.8994	26.21	0.42	0.750			
0.3334	21337.80	3.8540	3.8540	0.9085	26.20	0.41	0.750			
0.3361	21510.91	3.8510	3.8511	0.9113	26.20	0.41	0.750			
0.3388	21684.91	3.8480	3.8476	0.9130	26.19	0.40	0.750			
0.3416	21863.41	3.8450	3.8451	0.9106	26.18	0.39	0.750			
0.3443	22036.99	3.8420	3.8421	0.9288	26.17	0.38	0.750			
0.3471	22215.17	3.8390	3.8392	0.9414	26.16	0.37	0.750	0.297	0.439	
0.3499	22395.73	3.8360	3.8361	0.9428	26.14	0.35	0.750			
0.3528	22581.32	3.8330	3.8332	0.9475	26.14	0.35	0.750			
0.3557	22766.24	3.8300	3.8301	0.9605	26.13	0.34	0.750			
0.3586	22949.50	3.8270	3.8271	0.9573	26.12	0.33	0.750			
0.3615	23136.80	3.8240	3.8240	0.9683	26.11	0.32	0.750			
0.3643	23318.09	3.8210	3.8210	0.9670	26.11	0.32	0.750			
0.3673	23504.46	3.8180	3.8181	0.9681	26.10	0.31	0.750			
0.3702	23690.76	3.8150	3.8151	0.9819	26.09	0.30	0.750			
0.3731	23879.07	3.8120	3.8121	0.9969	26.08	0.29	0.750			
0.3761	24069.71	3.8090	3.8085	1.0085	26.07	0.28	0.750			
0.3792	24267.20	3.8060	3.8061	1.0082	26.06	0.27	0.750			
0.3822	24459.96	3.8030	3.8032	1.0259	26.05	0.26	0.750			
0.3853	24658.86	3.8000	3.8001	1.0427	26.04	0.25	0.750			
0.3884	24859.67	3.7970	3.7962	1.0453	26.03	0.24	0.750			
0.3916	25059.95	3.7940	3.7942	1.0632	26.02	0.23	0.750			
0.3948	25266.65	3.7910	3.7911	1.0842	26.01	0.22	0.750			
0.3981	25479.38	3.7880	3.7880	1.1096	26.01	0.22	0.750			
0.4015	25695.92	3.7850	3.7849	1.1042	26.00	0.21	0.750			
0.4048	25907.18	3.7820	3.7821	1.1297	25.98	0.19	0.750			
0.4082	26126.55	3.7790	3.7791	1.1516	25.97	0.18	0.750			
0.4117	26349.10	3.7760	3.7761	1.1775	25.96	0.17	0.750			
0.4153	26576.84	3.7730	3.7731	1.1836	25.95	0.16	0.750			
0.4188	26803.98	3.7700	3.7701	1.2155	25.94	0.15	0.750			
0.4225	27039.36	3.7670	3.7671	1.2447	25.93	0.14	0.750			
0.4263	27283.21	3.7640	3.7636	1.2746	25.92	0.13	0.750			
0.4301	27527.05	3.7610	3.7611	1.2913	25.90	0.11	0.750			
0.4341	27779.91	3.7580	3.7581	1.3255	25.89	0.10	0.750			
0.4381	28041.11	3.7550	3.7549	1.3389	25.87	0.08	0.750			
0.4421	28294.93	3.7520	3.7521	1.3697	25.86	0.07	0.750			
0.4462	28559.14	3.7490	3.7491	1.4012	25.85	0.06	0.750			
0.4506	28837.19	3.7460	3.7454	1.4064	25.84	0.05	0.750			
0.4549	29110.89	3.7430	3.7432	1.4338	25.83	0.04	0.750			
0.4591	29382.14	3.7400	3.7403	1.4945	25.81	0.02	0.750			
0.4636	29672.54	3.7370	3.7375	1.5090	25.80	0.01	0.750			
0.4681	29956.35	3.7340	3.7345	1.5462	25.79	-0.00	0.750			
0.4728	30259.74	3.7310	3.7315	1.5962	25.78	-0.01	0.750			
0.4777	30570.94	3.7280	3.7278	1.6835	25.76	-0.03	0.750			
0.4830	30910.27	3.7250	3.7247	1.7160	25.75	-0.04	0.750			
0.4883	31248.73	3.7220	3.7216	1.7486	25.73	-0.06	0.750			
0.4936	31593.51	3.7190	3.7193	1.7987	25.72	-0.07	0.750			
0.4989	31931.90	3.7160	3.7165	1.8603	25.71	-0.08	0.750			
0.5046	32292.10	3.7130	3.7125	1.9354	25.70	-0.09	0.750			
0.5105	32672.37	3.7100	3.7098	1.9597	25.68	-0.11	0.750			
0.5166	33065.20	3.7070	3.7072	2.0605	25.66	-0.13	0.750			
0.5228	33462.30	3.7040	3.7044	2.1285	25.65	-0.14	0.750			
0.5292	33867.99	3.7010	3.7011	2.1058	25.64	-0.15	0.750			
0.5355	34274.14	3.6980	3.6983	2.1385	25.63	-0.16	0.750			
0.5421	34695.03	3.6950	3.6945	2.2418	25.62	-0.17	0.750			
0.5490	35136.41	3.6920	3.6921	2.2476	25.61	-0.18	0.750			
0.5561	35592.41	3.6890	3.6892	2.4059	25.61	-0.18	0.750			
0.5631	36038.51	3.6860	3.6858	2.3902	25.60	-0.19	0.750			
0.5706	36516.25	3.6830	3.6825	2.4537	25.60	-0.19	0.750			
0.5780	36991.70	3.6800	3.6799	2.4503	25.60	-0.19	0.750			
0.5851	37446.03	3.6770	3.6769	2.4095	25.59	-0.20	0.750			
0.5925	37922.60	3.6740	3.6745	2.3105	25.60	-0.19	0.750			
0.5993	38356.67	3.6710	3.6711	2.2054	25.61	-0.18	0.750			
0.6056	38756.61	3.6680	3.6681	2.0769	25.62	-0.17	0.750			
0.6116	39141.18	3.6650	3.6655	1.9665	25.63	-0.16	0.750			
0.6174	39516.61	3.6620	3.6624	1.8939	25.64	-0.15	0.750			
0.6230	39871.63	3.6590	3.6593	1.7341	25.65	-0.14	0.750			
0.6280	40191.33	3.6560	3.6561	1.6059	25.65	-0.14	0.750			
0.6325	40478.42	3.6530	3.6531	1.4968	25.66	-0.13	0.750			
0.6367	40746.80	3.6500	3.6500	1.3843	25.67	-0.12	0.750			
0.6406	40995.83	3.6470	3.6471	1.2831	25.67	-0.12	0.750			
0.6443	41232.32	3.6440	3.6441	1.2159	25.68	-0.11	0.750			
0.6478	41460.65	3.6410	3.6412	1.1583	25.69	-0.10	0.750			
0.6513	41681.29	3.6380	3.6378	1.1080	25.69	-0.10	0.750			
0.6544	41880.23	3.6350	3.6350	1.0445	25.70	-0.09	0.750			
0.6574	42074.58	3.6320	3.6320	1.0037	25.70	-0.09	0.750			
0.6604	42263.78	3.6290	3.6290	0.9712	25.71	-0.08	0.750			
0.6633	42448.84	3.6260	3.6259	0.9370	25.71	-0.08	0.750			
0.6660	42621.79	3.6230	3.6230	0.8963	25.72	-0.07	0.750			
0.6686	42792.07	3.6200	3.6200	0.8579	25.73	-0.06	0.750			
0.6711	42953.21	3.6170	3.6170	0.8212	25.73	-0.06	0.750			
0.6735	43106.80	3.6140	3.6140	0.7831	25.74	-0.05	0.750			
0.6758	43253.39	3.6110	3.6103	0.7455	25.75	-0.04	0.750			
0.6780	43394.53	3.6080	3.6080	0.6964	25.76	-0.03	0.750			
0.6801	43523.60	3.6050	3.6050	0.6418	25.76	-0.03	0.750			
0.6819	43640.04	3.6020	3.6023	0.6000	25.77	-0.02	0.750			
0.6836	43750.70	3.5990	3.5994	0.5589	25.77	-0.02	0.750			
0.6852	43850.43	3.5960	3.5951	0.5097	25.78	-0.01	0.750			
0.6867	43945.66	3.5930	3.5934	0.4661	25.78	-0.01	0.750			
0.6880	44034.28	3.5900	3.5902	0.4265	25.79	-0.00	0.750			
0.6893	44116.87	3.5870	3.5870	0.3846	25.79	0.00	0.750			
0.6903	44181.32	3.5840	3.5840	0.3165	25.80	0.01	0.750			
0.6912	44237.77	3.5810	3.5811	0.2683	25.80	0.01	0.750			
0.6920	44286.64	3.5780	3.5779	0.2193	25.80	0.01	0.750			
0.6926	44323.20	3.5750	3.5751	0.1662	25.80	0.01	0.750			
0.6930	44349.85	3.5720	3.5725	0.1133	25.80	0.01	0.750			
0.6932	44366.51	3.5690	3.5698	0.0542	25.81	0.02	0.750			
