Ah_balance (normalized)	Ah_balance (mAh)	Voltage - fit (V)	Voltage -  interpolate (V)	dQ/dV (1/V)	Temperature (°C)	Temperature - diff (°C)	Current (C)	R_DC 0ms (mOhm)	R_DC 50ms (mOhm)	R_DC 50 ms PEC (mOhm)
0.0465	2975.66	4.1980	4.1980	0.7145	25.51	0.64	0.750			
0.0487	3116.79	4.1950	4.1950	0.7485	25.51	0.64	0.750			
0.0510	3262.62	4.1920	4.1920	0.7621	25.51	0.64	0.750			
0.0533	3410.67	4.1890	4.1890	0.7676	25.51	0.64	0.750			
0.0556	3559.38	4.1860	4.1860	0.7721	25.51	0.64	0.750			
0.0579	3708.01	4.1830	4.1831	0.7687	25.51	0.64	0.750			
0.0602	3855.46	4.1800	4.1800	0.7729	25.51	0.64	0.750			
0.0625	4001.96	4.1770	4.1771	0.7698	25.51	0.64	0.750			
0.0649	4150.42	4.1740	4.1741	0.7746	25.51	0.64	0.750			
0.0672	4298.88	4.1710	4.1711	0.7789	25.51	0.64	0.750			
0.0695	4449.63	4.1680	4.1680	0.7824	25.51	0.64	0.750			
0.0719	4601.52	4.1650	4.1650	0.7832	25.51	0.64	0.750			
0.0742	4751.29	4.1620	4.1620	0.7806	25.51	0.64	0.750			
0.0766	4900.27	4.1590	4.1591	0.7817	25.51	0.64	0.750			
0.0789	5051.25	4.1560	4.1560	0.7825	25.51	0.64	0.750			
0.0813	5202.36	4.1530	4.1529	0.7794	25.51	0.64	0.750			
0.0836	5350.40	4.1500	4.1500	0.7821	25.52	0.65	0.750			
0.0860	5500.97	4.1470	4.1471	0.7867	25.52	0.65	0.750			
0.0883	5651.95	4.1440	4.1441	0.7909	25.52	0.65	0.750			
0.0907	5803.50	4.1410	4.1409	0.7945	25.52	0.65	0.750			
0.0931	5958.64	4.1380	4.1380	0.7907	25.52	0.65	0.750			
0.0955	6111.62	4.1350	4.1350	0.7918	25.52	0.65	0.750			
0.0978	6262.12	4.1320	4.1321	0.7945	25.53	0.66	0.750			
0.1002	6413.33	4.1290	4.1291	0.7936	25.53	0.66	0.750			
0.1026	6565.58	4.1260	4.1258	0.7958	25.53	0.66	0.750			
0.1050	6718.77	4.1230	4.1230	0.7995	25.53	0.66	0.750			
0.1074	6873.25	4.1200	4.1201	0.8029	25.53	0.66	0.750			
0.1098	7029.51	4.1170	4.1170	0.8090	25.53	0.66	0.750			
0.1123	7184.68	4.1140	4.1140	0.8066	25.53	0.66	0.750			
0.1146	7337.38	4.1110	4.1110	0.8217	25.53	0.66	0.750			
0.1171	7495.17	4.1080	4.1081	0.8288	25.53	0.66	0.750			
0.1196	7656.25	4.1050	4.1048	0.8324	25.54	0.67	0.750			
0.1222	7819.34	4.1020	4.1021	0.8363	25.54	0.67	0.750			
0.1247	7980.70	4.0990	4.0991	0.8358	25.55	0.68	0.750			
0.1272	8140.98	4.0960	4.0959	0.8345	25.55	0.68	0.750			
0.1297	8301.28	4.0930	4.0930	0.8298	25.55	0.68	0.750			
0.1322	8457.74	4.0900	4.0900	0.8209	25.55	0.68	0.750			
0.1346	8615.74	4.0870	4.0870	0.8267	25.56	0.69	0.750			
0.1371	8773.54	4.0840	4.0841	0.8261	25.56	0.69	0.750			
0.1396	8932.40	4.0810	4.0808	0.8298	25.56	0.69	0.750			
0.1421	9091.39	4.0780	4.0780	0.8338	25.56	0.69	0.750			
0.1446	9252.63	4.0750	4.0751	0.8349	25.56	0.69	0.750			
0.1471	9414.99	4.0720	4.0720	0.8386	25.56	0.69	0.750			
0.1496	9575.18	4.0690	4.0690	0.8370	25.56	0.69	0.750			
0.1521	9735.58	4.0660	4.0659	0.8432	25.56	0.69	0.750			
0.1546	9897.28	4.0630	4.0630	0.8460	25.56	0.69	0.750			
0.1572	10060.09	4.0600	4.0600	0.8489	25.56	0.69	0.750			
0.1597	10223.96	4.0570	4.0571	0.8535	25.57	0.70	0.750			
0.1623	10388.52	4.0540	4.0540	0.8575	25.57	0.70	0.750			
0.1649	10553.96	4.0510	4.0509	0.8610	25.57	0.70	0.750			
0.1675	10719.27	4.0480	4.0480	0.8595	25.57	0.70	0.750			
0.1701	10884.35	4.0450	4.0450	0.8593	25.57	0.70	0.750			
0.1727	11050.11	4.0420	4.0421	0.8623	25.57	0.70	0.750			
0.1752	11214.92	4.0390	4.0390	0.8648	25.57	0.70	0.750			
0.1778	11380.41	4.0360	4.0360	0.8657	25.57	0.70	0.750			
0.1804	11545.93	4.0330	4.0330	0.8724	25.57	0.70	0.750			
0.1830	11714.24	4.0300	4.0300	0.8772	25.57	0.70	0.750			
0.1857	11884.67	4.0270	4.0270	0.8804	25.58	0.71	0.750			
0.1884	12054.69	4.0240	4.0239	0.8831	25.58	0.71	0.750			
0.1910	12224.37	4.0210	4.0211	0.8823	25.58	0.71	0.750			
0.1936	12392.71	4.0180	4.0181	0.8813	25.58	0.71	0.750			
0.1963	12561.72	4.0150	4.0149	0.8848	25.59	0.72	0.750			
0.1989	12729.99	4.0120	4.0121	0.8860	25.59	0.72	0.750			
0.2016	12901.59	4.0090	4.0089	0.8934	25.59	0.72	0.750			
0.2043	13074.64	4.0060	4.0060	0.9003	25.59	0.72	0.750			
0.2070	13247.81	4.0030	4.0030	0.9029	25.59	0.72	0.750			
0.2097	13422.39	4.0000	4.0000	0.9063	25.59	0.72	0.750			
0.2124	13596.36	3.9970	3.9970	0.9079	25.59	0.72	0.750			
0.2152	13769.68	3.9940	3.9940	0.9075	25.59	0.72	0.750			
0.2179	13944.30	3.9910	3.9910	0.9088	25.59	0.72	0.750			
0.2206	14118.94	3.9880	3.9880	0.9114	25.59	0.72	0.750			
0.2233	14293.92	3.9850	3.9850	0.9124	25.59	0.72	0.750			
0.2261	14469.44	3.9820	3.9820	0.9173	25.59	0.72	0.750			
0.2288	14646.32	3.9790	3.9790	0.9182	25.59	0.72	0.750			
0.2316	14822.63	3.9760	3.9760	0.9167	25.59	0.72	0.750			
0.2343	14998.04	3.9730	3.9731	0.9232	25.60	0.73	0.750			
0.2371	15175.01	3.9700	3.9700	0.9274	25.60	0.73	0.750			
0.2399	15353.53	3.9670	3.9668	0.9323	25.60	0.73	0.750			
0.2427	15534.50	3.9640	3.9640	0.9308	25.60	0.73	0.750			
0.2455	15712.68	3.9610	3.9611	0.9351	25.60	0.73	0.750			
0.2483	15894.18	3.9580	3.9581	0.9400	25.61	0.74	0.750			
0.2512	16073.67	3.9550	3.9549	0.9355	25.61	0.74	0.750			
0.2540	16253.10	3.9520	3.9520	0.9359	25.61	0.74	0.750			
0.2568	16432.37	3.9490	3.9490	0.9385	25.61	0.74	0.750			
0.2596	16612.32	3.9460	3.9460	0.9437	25.61	0.74	0.750			
0.2624	16795.44	3.9430	3.9430	0.9512	25.61	0.74	0.750			
0.2653	16977.29	3.9400	3.9400	0.9487	25.61	0.74	0.750			
0.2681	17160.53	3.9370	3.9370	0.9509	25.61	0.74	0.750			
0.2710	17342.43	3.9340	3.9341	0.9566	25.61	0.74	0.750			
0.2738	17526.21	3.9310	3.9311	0.9600	25.61	0.74	0.750			
0.2767	17710.64	3.9280	3.9278	0.9629	25.61	0.74	0.750			
0.2797	17898.11	3.9250	3.9250	0.9567	25.61	0.74	0.750			
0.2825	18081.76	3.9220	3.9221	0.9596	25.61	0.74	0.750			
0.2854	18265.98	3.9190	3.9191	0.9671	25.61	0.74	0.750			
0.2883	18449.57	3.9160	3.9161	0.9645	25.61	0.74	0.750			
0.2912	18635.78	3.9130	3.9130	0.9721	25.61	0.74	0.750			
0.2941	18822.15	3.9100	3.9100	0.9801	25.61	0.74	0.750			
0.2971	19012.28	3.9070	3.9070	0.9880	25.61	0.74	0.750			
0.3001	19205.31	3.9040	3.9041	1.0011	25.61	0.74	0.750			
0.3031	19395.94	3.9010	3.9010	0.9992	25.61	0.74	0.750			
0.3061	19588.15	3.8980	3.8980	0.9976	25.61	0.74	0.750			
0.3091	19779.78	3.8950	3.8950	0.9995	25.62	0.75	0.750			
0.3120	19971.06	3.8920	3.8921	1.0024	25.62	0.75	0.750			
0.3151	20164.40	3.8890	3.8890	1.0078	25.62	0.75	0.750			
0.3181	20358.03	3.8860	3.8860	1.0127	25.62	0.75	0.750			
0.3211	20552.71	3.8830	3.8830	1.0141	25.62	0.75	0.750			
0.3242	20747.96	3.8800	3.8800	1.0244	25.62	0.75	0.750			
0.3273	20946.47	3.8770	3.8770	1.0289	25.62	0.75	0.750			
0.3304	21143.59	3.8740	3.8740	1.0308	25.62	0.75	0.750			
0.3335	21342.03	3.8710	3.8710	1.0327	25.62	0.75	0.750			
0.3366	21540.13	3.8680	3.8681	1.0346	25.63	0.76	0.750			
0.3397	21739.54	3.8650	3.8649	1.0376	25.63	0.76	0.750			
0.3428	21939.04	3.8620	3.8620	1.0397	25.63	0.76	0.750			
0.3459	22136.85	3.8590	3.8590	1.0432	25.63	0.76	0.750			
0.3490	22337.82	3.8560	3.8560	1.0508	25.62	0.75	0.750			
0.3522	22539.82	3.8530	3.8529	1.0579	25.62	0.75	0.750			
0.3554	22743.18	3.8500	3.8500	1.0617	25.62	0.75	0.750			
0.3586	22947.35	3.8470	3.8470	1.0689	25.62	0.75	0.750			
0.3618	23154.08	3.8440	3.8440	1.0746	25.62	0.75	0.750			
0.3650	23360.41	3.8410	3.8408	1.0849	25.62	0.75	0.750			
0.3682	23567.63	3.8380	3.8381	1.0925	25.61	0.74	0.750			
0.3716	23779.65	3.8350	3.8350	1.1003	25.60	0.73	0.750			
0.3749	23992.51	3.8320	3.8321	1.1091	25.60	0.73	0.750	0.338	0.431	
0.3782	24206.04	3.8290	3.8290	1.1105	25.59	0.72	0.750			
0.3816	24421.17	3.8260	3.8260	1.1179	25.58	0.71	0.750			
0.3849	24636.34	3.8230	3.8230	1.1233	25.58	0.71	0.750			
0.3883	24851.27	3.8200	3.8200	1.1229	25.57	0.70	0.750			
0.3917	25068.08	3.8170	3.8170	1.1231	25.56	0.69	0.750			
0.3951	25283.82	3.8140	3.8141	1.1329	25.55	0.68	0.750			
0.3984	25500.19	3.8110	3.8110	1.1381	25.54	0.67	0.750			
0.4019	25720.00	3.8080	3.8078	1.1416	25.53	0.66	0.750			
0.4053	25938.86	3.8050	3.8051	1.1495	25.52	0.65	0.750			
0.4087	26159.45	3.8020	3.8021	1.1612	25.51	0.64	0.750			
0.4123	26385.79	3.7990	3.7990	1.1728	25.50	0.63	0.750			
0.4158	26611.12	3.7960	3.7960	1.1725	25.49	0.62	0.750			
0.4193	26836.71	3.7930	3.7931	1.1825	25.48	0.61	0.750			
0.4229	27065.03	3.7900	3.7901	1.1928	25.46	0.59	0.750			
0.4265	27297.85	3.7870	3.7869	1.1932	25.45	0.58	0.750			
0.4301	27525.12	3.7840	3.7840	1.2026	25.44	0.57	0.750			
0.4337	27754.71	3.7810	3.7811	1.2152	25.42	0.55	0.750			
0.4373	27988.60	3.7780	3.7781	1.2363	25.41	0.54	0.750			
0.4410	28225.73	3.7750	3.7749	1.2585	25.40	0.53	0.750			
0.4448	28470.11	3.7720	3.7720	1.2809	25.38	0.51	0.750			
0.4488	28722.73	3.7690	3.7690	1.2940	25.36	0.49	0.750			
0.4528	28976.43	3.7660	3.7660	1.2931	25.35	0.48	0.750			
0.4566	29221.69	3.7630	3.7632	1.3075	25.33	0.46	0.750			
0.4605	29469.40	3.7600	3.7602	1.3266	25.32	0.45	0.750			
0.4644	29722.02	3.7570	3.7566	1.3603	25.30	0.43	0.750			
0.4685	29981.08	3.7540	3.7541	1.3921	25.29	0.42	0.750			
0.4728	30257.24	3.7510	3.7511	1.4236	25.28	0.41	0.750			
0.4772	30539.60	3.7480	3.7478	1.4777	25.27	0.40	0.750			
0.4816	30820.27	3.7450	3.7452	1.5051	25.25	0.38	0.750			
0.4861	31112.34	3.7420	3.7416	1.5484	25.23	0.36	0.750			
0.4908	31413.75	3.7390	3.7387	1.5936	25.22	0.35	0.750			
0.4956	31721.54	3.7360	3.7359	1.6607	25.20	0.33	0.750			
0.5008	32051.13	3.7330	3.7332	1.7422	25.18	0.31	0.750			
0.5062	32399.78	3.7300	3.7301	1.7929	25.16	0.29	0.750			
0.5117	32746.70	3.7270	3.7273	1.8325	25.14	0.27	0.750			
0.5172	33102.48	3.7240	3.7240	1.8847	25.11	0.24	0.750			
0.5230	33472.87	3.7210	3.7210	1.9266	25.09	0.22	0.750			
0.5289	33847.80	3.7180	3.7180	1.9959	25.07	0.20	0.750			
0.5348	34229.50	3.7150	3.7151	2.0436	25.06	0.19	0.750			
0.5411	34629.05	3.7120	3.7119	2.1224	25.04	0.17	0.750			
0.5477	35053.37	3.7090	3.7091	2.1862	25.01	0.14	0.750			
0.5542	35467.96	3.7060	3.7060	2.2324	24.99	0.12	0.750			
0.5610	35906.53	3.7030	3.7029	2.2903	24.97	0.10	0.750			
0.5679	36347.46	3.7000	3.6999	2.3695	24.95	0.08	0.750			
0.5751	36807.74	3.6970	3.6972	2.4418	24.94	0.07	0.750			
0.5826	37288.13	3.6940	3.6940	2.5090	24.91	0.04	0.750			
0.5903	37777.41	3.6910	3.6909	2.5719	24.89	0.02	0.750			
0.5982	38284.93	3.6880	3.6878	2.6559	24.87	-0.00	0.750			
0.6062	38797.94	3.6850	3.6850	2.7213	24.85	-0.02	0.750			
0.6145	39327.88	3.6820	3.6820	2.7994	24.82	-0.05	0.750			
0.6229	39866.97	3.6790	3.6790	2.8514	24.81	-0.06	0.750			
0.6316	40420.28	3.6760	3.6761	2.8887	24.80	-0.07	0.750			
0.6404	40984.53	3.6730	3.6732	2.9248	24.79	-0.08	0.750			
0.6491	41543.67	3.6700	3.6702	2.9722	24.78	-0.09	0.750			
0.6582	42124.66	3.6670	3.6672	2.9600	24.78	-0.09	0.750			
0.6673	42704.96	3.6640	3.6641	2.8666	24.77	-0.10	0.750			
0.6758	43250.68	3.6610	3.6610	2.6621	24.76	-0.11	0.750			
0.6835	43745.01	3.6580	3.6577	2.4600	24.77	-0.10	0.750			
0.6905	44195.02	3.6550	3.6551	2.2441	24.78	-0.09	0.750			
0.6968	44595.98	3.6520	3.6520	2.0266	24.79	-0.08	0.750			
0.7027	44970.56	3.6490	3.6487	1.8492	24.80	-0.07	0.750			
0.7079	45305.21	3.6460	3.6460	1.6408	24.81	-0.06	0.750			
0.7126	45608.68	3.6430	3.6432	1.4597	24.82	-0.05	0.750			
0.7166	45864.04	3.6400	3.6402	1.2700	24.82	-0.05	0.750			
0.7200	46082.03	3.6370	3.6370	1.1045	24.83	-0.04	0.750			
0.7230	46274.99	3.6340	3.6339	0.9872	24.84	-0.03	0.750			
0.7257	46443.58	3.6310	3.6309	0.8705	24.85	-0.02	0.750			
0.7281	46595.77	3.6280	3.6280	0.8211	24.85	-0.02	0.750			
0.7304	46745.72	3.6250	3.6252	0.7893	24.85	-0.02	0.750			
0.7327	46893.74	3.6220	3.6217	0.7474	24.86	-0.01	0.750			
0.7349	47033.99	3.6190	3.6192	0.7221	24.86	-0.01	0.750			
0.7370	47170.78	3.6160	3.6162	0.6813	24.87	-0.00	0.750			
0.7391	47303.05	3.6130	3.6131	0.6453	24.87	-0.00	0.750			
0.7411	47428.49	3.6100	3.6100	0.5934	24.87	0.00	0.750			
0.7427	47533.46	3.6070	3.6072	0.5196	24.87	0.00	0.750			
0.7442	47627.99	3.6040	3.6041	0.4513	24.88	0.01	0.750			
0.7455	47710.26	3.6010	3.6009	0.3862	24.88	0.01	0.750			
0.7465	47773.32	3.5980	3.5980	0.3058	24.88	0.01	0.750			
0.7473	47825.48	3.5950	3.5949	0.2387	24.88	0.01	0.750			
0.7479	47864.97	3.5920	3.5921	0.1713	24.88	0.01	0.750			
0.7483	47891.37	3.5890	3.5889	0.1029	24.88	0.01	0.750			
