Ah_balance (normalized)	Ah_balance (mAh)	Voltage - fit (V)	Voltage -  interpolate (V)	dQ/dV (1/V)	Temperature (°C)	Temperature - diff (°C)	Current (C)	R_DC 0ms (mOhm)	R_DC 50ms (mOhm)	R_DC 50 ms PEC (mOhm)
0.0478	3059.08	4.1970	4.1968	0.7499	25.38	0.54	0.750			
0.0501	3205.90	4.1940	4.1940	0.7645	25.38	0.54	0.750			
0.0524	3354.96	4.1910	4.1910	0.7665	25.38	0.54	0.750			
0.0547	3501.80	4.1880	4.1881	0.7652	25.38	0.54	0.750			
0.0570	3650.95	4.1850	4.1849	0.7684	25.38	0.54	0.750			
0.0593	3795.33	4.1820	4.1820	0.7637	25.38	0.54	0.750			
0.0616	3940.64	4.1790	4.1790	0.7610	25.38	0.54	0.750			
0.0639	4087.31	4.1760	4.1760	0.7625	25.38	0.54	0.750			
0.0662	4235.63	4.1730	4.1730	0.7594	25.38	0.54	0.750			
0.0684	4380.29	4.1700	4.1701	0.7601	25.39	0.55	0.750			
0.0707	4525.46	4.1670	4.1670	0.7606	25.39	0.55	0.750			
0.0730	4671.07	4.1640	4.1638	0.7675	25.39	0.55	0.750			
0.0753	4817.20	4.1610	4.1610	0.7694	25.39	0.55	0.750			
0.0776	4968.81	4.1580	4.1580	0.7695	25.39	0.55	0.750			
0.0800	5117.86	4.1550	4.1552	0.7783	25.39	0.55	0.750			
0.0823	5266.19	4.1520	4.1520	0.7758	25.39	0.55	0.750			
0.0846	5415.82	4.1490	4.1491	0.7775	25.39	0.55	0.750			
0.0869	5564.35	4.1460	4.1461	0.7755	25.39	0.55	0.750			
0.0893	5713.27	4.1430	4.1431	0.7752	25.39	0.55	0.750			
0.0916	5864.23	4.1400	4.1400	0.7790	25.39	0.55	0.750			
0.0940	6013.43	4.1370	4.1370	0.7843	25.39	0.55	0.750			
0.0963	6162.34	4.1340	4.1340	0.7822	25.39	0.55	0.750			
0.0987	6314.10	4.1310	4.1311	0.7839	25.39	0.55	0.750			
0.1010	6466.00	4.1280	4.1280	0.7866	25.39	0.55	0.750			
0.1034	6618.60	4.1250	4.1250	0.7838	25.39	0.55	0.750			
0.1057	6767.17	4.1220	4.1220	0.7845	25.40	0.56	0.750			
0.1081	6916.35	4.1190	4.1190	0.7851	25.40	0.56	0.750			
0.1104	7066.39	4.1160	4.1158	0.7868	25.40	0.56	0.750			
0.1128	7217.86	4.1130	4.1131	0.7933	25.40	0.56	0.750			
0.1153	7376.10	4.1100	4.1100	0.7847	25.40	0.56	0.750			
0.1176	7526.58	4.1070	4.1070	0.7935	25.40	0.56	0.750			
0.1199	7674.85	4.1040	4.1041	0.7954	25.40	0.56	0.750			
0.1223	7826.56	4.1010	4.1013	0.8080	25.40	0.56	0.750			
0.1247	7982.63	4.0980	4.0982	0.8119	25.40	0.56	0.750			
0.1272	8140.95	4.0950	4.0951	0.8170	25.40	0.56	0.750			
0.1297	8300.20	4.0920	4.0921	0.8259	25.41	0.57	0.750			
0.1322	8461.58	4.0890	4.0891	0.8285	25.41	0.57	0.750			
0.1347	8620.50	4.0860	4.0859	0.8182	25.41	0.57	0.750			
0.1371	8776.72	4.0830	4.0831	0.8177	25.41	0.57	0.750			
0.1396	8932.74	4.0800	4.0801	0.8137	25.41	0.57	0.750			
0.1420	9089.72	4.0770	4.0769	0.8198	25.41	0.57	0.750			
0.1445	9247.19	4.0740	4.0740	0.8224	25.40	0.56	0.750			
0.1469	9403.93	4.0710	4.0711	0.8209	25.40	0.56	0.750			
0.1494	9562.70	4.0680	4.0680	0.8239	25.40	0.56	0.750			
0.1519	9721.67	4.0650	4.0650	0.8265	25.40	0.56	0.750			
0.1544	9879.49	4.0620	4.0620	0.8166	25.40	0.56	0.750			
0.1568	10033.90	4.0590	4.0591	0.8241	25.41	0.57	0.750			
0.1592	10190.61	4.0560	4.0561	0.8271	25.41	0.57	0.750			
0.1617	10349.33	4.0530	4.0532	0.8326	25.41	0.57	0.750			
0.1642	10511.22	4.0500	4.0502	0.8418	25.42	0.58	0.750			
0.1668	10674.25	4.0470	4.0471	0.8496	25.42	0.58	0.750			
0.1694	10841.81	4.0440	4.0440	0.8546	25.42	0.58	0.750			
0.1719	11004.78	4.0410	4.0410	0.8454	25.43	0.59	0.750			
0.1745	11168.22	4.0380	4.0381	0.8482	25.43	0.59	0.750			
0.1771	11333.06	4.0350	4.0350	0.8442	25.43	0.59	0.750			
0.1796	11493.39	4.0320	4.0320	0.8469	25.43	0.59	0.750			
0.1821	11653.89	4.0290	4.0291	0.8528	25.43	0.59	0.750			
0.1846	11817.33	4.0260	4.0260	0.8590	25.43	0.59	0.750			
0.1872	11983.24	4.0230	4.0230	0.8641	25.43	0.59	0.750			
0.1899	12151.76	4.0200	4.0201	0.8640	25.43	0.59	0.750			
0.1925	12317.61	4.0170	4.0171	0.8696	25.43	0.59	0.750			
0.1951	12486.46	4.0140	4.0139	0.8753	25.43	0.59	0.750			
0.1977	12651.28	4.0110	4.0109	0.8739	25.43	0.59	0.750			
0.2003	12819.41	4.0080	4.0080	0.8799	25.43	0.59	0.750			
0.2030	12990.31	4.0050	4.0050	0.8828	25.44	0.60	0.750			
0.2056	13161.45	4.0020	4.0020	0.8861	25.44	0.60	0.750			
0.2083	13332.98	3.9990	3.9990	0.8889	25.45	0.61	0.750			
0.2110	13500.96	3.9960	3.9959	0.8824	25.45	0.61	0.750			
0.2136	13671.54	3.9930	3.9930	0.8795	25.45	0.61	0.750			
0.2162	13839.52	3.9900	3.9899	0.8821	25.45	0.61	0.750			
0.2189	14007.97	3.9870	3.9871	0.8849	25.46	0.62	0.750			
0.2215	14177.79	3.9840	3.9841	0.8903	25.46	0.62	0.750			
0.2242	14348.55	3.9810	3.9810	0.8948	25.46	0.62	0.750			
0.2270	14525.15	3.9780	3.9779	0.8805	25.46	0.62	0.750			
0.2296	14693.84	3.9750	3.9750	0.8900	25.46	0.62	0.750			
0.2322	14861.84	3.9720	3.9722	0.9028	25.47	0.63	0.750			
0.2349	15033.99	3.9690	3.9692	0.9065	25.47	0.63	0.750			
0.2376	15207.68	3.9660	3.9662	0.9206	25.47	0.63	0.750			
0.2404	15383.05	3.9630	3.9632	0.9418	25.47	0.63	0.750			
0.2433	15568.73	3.9600	3.9601	0.9655	25.48	0.64	0.750			
0.2463	15765.19	3.9570	3.9566	0.9760	25.48	0.64	0.750			
0.2492	15951.24	3.9540	3.9541	0.9610	25.48	0.64	0.750			
0.2521	16137.00	3.9510	3.9512	0.9517	25.48	0.64	0.750			
0.2550	16322.37	3.9480	3.9480	0.9445	25.48	0.64	0.750			
0.2578	16499.52	3.9450	3.9449	0.9338	25.48	0.64	0.750			
0.2605	16671.06	3.9420	3.9419	0.9207	25.48	0.64	0.750			
0.2633	16850.11	3.9390	3.9390	0.9170	25.49	0.65	0.750			
0.2660	17024.95	3.9360	3.9360	0.9238	25.49	0.65	0.750			
0.2688	17202.36	3.9330	3.9330	0.9291	25.50	0.66	0.750			
0.2716	17380.37	3.9300	3.9301	0.9331	25.51	0.67	0.750			
0.2744	17558.51	3.9270	3.9270	0.9378	25.51	0.67	0.750			
0.2772	17740.09	3.9240	3.9241	0.9382	25.51	0.67	0.750			
0.2800	17921.80	3.9210	3.9210	0.9433	25.50	0.66	0.750			
0.2829	18103.99	3.9180	3.9181	0.9454	25.50	0.66	0.750			
0.2857	18284.59	3.9150	3.9149	0.9409	25.50	0.66	0.750			
0.2885	18465.66	3.9120	3.9120	0.9410	25.50	0.66	0.750			
0.2913	18646.13	3.9090	3.9090	0.9445	25.50	0.66	0.750			
0.2942	18826.58	3.9060	3.9060	0.9485	25.51	0.67	0.750			
0.2970	19009.47	3.9030	3.9030	0.9521	25.51	0.67	0.750			
0.2999	19194.92	3.9000	3.9000	0.9461	25.51	0.67	0.750			
0.3028	19377.82	3.8970	3.8970	0.9493	25.51	0.67	0.750			
0.3056	19560.32	3.8940	3.8941	0.9466	25.50	0.66	0.750			
0.3084	19740.79	3.8910	3.8911	0.9463	25.50	0.66	0.750			
0.3112	19919.67	3.8880	3.8878	0.9440	25.50	0.66	0.750			
0.3141	20100.56	3.8850	3.8849	0.9459	25.49	0.65	0.750			
0.3169	20281.93	3.8820	3.8820	0.9529	25.49	0.65	0.750			
0.3198	20466.37	3.8790	3.8790	0.9625	25.49	0.65	0.750			
0.3227	20651.71	3.8760	3.8760	0.9649	25.48	0.64	0.750			
0.3257	20842.15	3.8730	3.8730	0.9662	25.48	0.64	0.750			
0.3285	21026.66	3.8700	3.8700	0.9696	25.48	0.64	0.750			
0.3314	21211.77	3.8670	3.8671	0.9731	25.47	0.63	0.750			
0.3343	21398.12	3.8640	3.8641	0.9750	25.47	0.63	0.750			
0.3373	21585.62	3.8610	3.8611	0.9805	25.47	0.63	0.750			
0.3402	21774.55	3.8580	3.8581	0.9759	25.46	0.62	0.750			
0.3431	21960.91	3.8550	3.8551	0.9849	25.45	0.61	0.750			
0.3461	22151.19	3.8520	3.8521	0.9973	25.45	0.61	0.750			
0.3491	22341.27	3.8490	3.8491	0.9955	25.44	0.60	0.750			
0.3521	22533.57	3.8460	3.8461	1.0030	25.43	0.59	0.750			
0.3551	22729.42	3.8430	3.8430	1.0056	25.42	0.58	0.750			
0.3582	22922.12	3.8400	3.8401	1.0186	25.41	0.57	0.750			
0.3612	23116.85	3.8370	3.8372	1.0144	25.40	0.56	0.750			
0.3643	23312.77	3.8340	3.8318	1.0149	25.39	0.55	0.750	0.319	0.413	
0.3673	23508.13	3.8310	3.8312	1.0201	25.38	0.54	0.750			
0.3704	23705.69	3.8280	3.8281	1.0263	25.38	0.54	0.750			
0.3735	23903.69	3.8250	3.8248	1.0333	25.37	0.53	0.750			
0.3766	24100.26	3.8220	3.8220	1.0224	25.36	0.52	0.750			
0.3796	24295.66	3.8190	3.8191	1.0280	25.35	0.51	0.750			
0.3827	24495.61	3.8160	3.8160	1.0400	25.34	0.50	0.750			
0.3859	24694.64	3.8130	3.8123	1.0439	25.33	0.49	0.750			
0.3890	24895.47	3.8100	3.8101	1.0482	25.32	0.48	0.750			
0.3922	25097.86	3.8070	3.8071	1.0548	25.30	0.46	0.750			
0.3953	25301.07	3.8040	3.8041	1.0645	25.29	0.45	0.750			
0.3986	25509.35	3.8010	3.8008	1.0692	25.28	0.44	0.750			
0.4017	25710.37	3.7980	3.7980	1.0777	25.27	0.43	0.750			
0.4050	25917.08	3.7950	3.7951	1.0926	25.25	0.41	0.750			
0.4082	26127.64	3.7920	3.7920	1.1098	25.24	0.40	0.750			
0.4116	26341.15	3.7890	3.7889	1.1252	25.23	0.39	0.750			
0.4150	26558.71	3.7860	3.7861	1.1390	25.22	0.38	0.750			
0.4184	26778.02	3.7830	3.7831	1.1572	25.21	0.37	0.750			
0.4219	27003.52	3.7800	3.7801	1.1757	25.19	0.35	0.750			
0.4254	27228.64	3.7770	3.7772	1.1901	25.18	0.34	0.750			
0.4291	27460.52	3.7740	3.7741	1.2058	25.17	0.33	0.750			
0.4327	27694.41	3.7710	3.7710	1.2258	25.15	0.31	0.750			
0.4365	27935.89	3.7680	3.7680	1.2438	25.14	0.30	0.750			
0.4401	28165.79	3.7650	3.7651	1.2528	25.13	0.29	0.750			
0.4438	28406.10	3.7620	3.7621	1.2878	25.11	0.27	0.750			
0.4478	28656.17	3.7590	3.7588	1.3260	25.10	0.26	0.750			
0.4517	28909.29	3.7560	3.7561	1.3464	25.09	0.25	0.750			
0.4558	29173.00	3.7530	3.7532	1.3910	25.08	0.24	0.750			
0.4601	29449.02	3.7500	3.7496	1.4195	25.06	0.22	0.750			
0.4644	29723.95	3.7470	3.7470	1.4607	25.05	0.21	0.750			
0.4688	30002.60	3.7440	3.7441	1.4854	25.03	0.19	0.750			
0.4733	30292.16	3.7410	3.7410	1.5209	25.02	0.18	0.750			
0.4780	30591.78	3.7380	3.7377	1.5685	25.01	0.17	0.750			
0.4826	30885.62	3.7350	3.7353	1.5979	24.99	0.15	0.750			
0.4874	31195.16	3.7320	3.7316	1.6383	24.97	0.13	0.750			
0.4924	31513.44	3.7290	3.7287	1.6816	24.95	0.11	0.750			
0.4975	31838.46	3.7260	3.7260	1.7248	24.93	0.09	0.750			
0.5027	32175.29	3.7230	3.7225	1.8105	24.91	0.07	0.750			
0.5084	32535.53	3.7200	3.7196	1.8290	24.89	0.05	0.750			
0.5139	32892.70	3.7170	3.7172	1.8847	24.87	0.03	0.750			
0.5199	33270.54	3.7140	3.7142	1.9433	24.86	0.02	0.750			
0.5256	33636.63	3.7110	3.7108	1.9541	24.84	0.00	0.750			
0.5315	34016.40	3.7080	3.7075	1.9729	24.82	-0.02	0.750			
0.5372	34383.46	3.7050	3.7051	2.0374	24.81	-0.03	0.750			
0.5435	34786.55	3.7020	3.7026	2.1705	24.79	-0.05	0.750			
0.5503	35216.46	3.6990	3.6985	2.2234	24.78	-0.06	0.750			
0.5573	35669.17	3.6960	3.6962	2.3535	24.77	-0.07	0.750			
0.5646	36132.05	3.6930	3.6932	2.4417	24.75	-0.09	0.750			
0.5720	36606.20	3.6900	3.6900	2.4510	24.72	-0.12	0.750			
0.5793	37076.57	3.6870	3.6871	2.5956	24.71	-0.13	0.750			
0.5866	37545.39	3.6840	3.6838	2.5641	24.70	-0.14	0.750			
0.5949	38070.46	3.6810	3.6812	2.6174	24.69	-0.15	0.750			
0.6027	38570.23	3.6780	3.6784	2.6503	24.67	-0.17	0.750			
0.6110	39104.33	3.6750	3.6746	2.7175	24.66	-0.18	0.750			
0.6190	39618.39	3.6720	3.6721	2.8468	24.66	-0.18	0.750			
0.6278	40177.03	3.6690	3.6692	2.8803	24.66	-0.18	0.750			
0.6358	40692.23	3.6660	3.6660	2.7701	24.66	-0.18	0.750			
0.6443	41236.61	3.6630	3.6631	2.6143	24.67	-0.17	0.750			
0.6521	41733.43	3.6600	3.6602	2.4030	24.67	-0.17	0.750			
0.6593	42195.15	3.6570	3.6568	2.2806	24.68	-0.16	0.750			
0.6653	42580.15	3.6540	3.6540	1.9928	24.69	-0.15	0.750			
0.6712	42953.84	3.6510	3.6513	1.8668	24.70	-0.14	0.750			
0.6764	43292.71	3.6480	3.6482	1.6631	24.71	-0.13	0.750			
0.6808	43572.78	3.6450	3.6453	1.4824	24.72	-0.12	0.750			
0.6851	43844.84	3.6420	3.6421	1.3383	24.72	-0.12	0.750			
0.6888	44085.88	3.6390	3.6391	1.2173	24.73	-0.11	0.750			
0.6921	44296.49	3.6360	3.6362	1.1002	24.74	-0.10	0.750			
0.6953	44496.17	3.6330	3.6331	1.0383	24.74	-0.10	0.750			
0.6983	44692.80	3.6300	3.6297	0.9963	24.75	-0.09	0.750			
0.7011	44867.79	3.6270	3.6269	0.9274	24.76	-0.08	0.750			
0.7038	45040.35	3.6240	3.6239	0.9080	24.77	-0.07	0.750			
0.7065	45212.85	3.6210	3.6212	0.8871	24.78	-0.06	0.750			
0.7091	45383.46	3.6180	3.6179	0.8590	24.78	-0.06	0.750			
0.7117	45548.25	3.6150	3.6148	0.8270	24.79	-0.05	0.750			
0.7142	45707.03	3.6120	3.6121	0.7760	24.80	-0.04	0.750			
0.7165	45857.17	3.6090	3.6090	0.7180	24.81	-0.03	0.750			
0.7186	45991.67	3.6060	3.6060	0.6512	24.82	-0.02	0.750			
0.7204	46106.52	3.6030	3.6031	0.5762	24.83	-0.01	0.750			
0.7220	46208.92	3.6000	3.6000	0.5078	24.83	-0.01	0.750			
0.7234	46298.43	3.5970	3.5960	0.4435	24.84	0.00	0.750			
0.7246	46375.49	3.5940	3.5941	0.3829	24.85	0.01	0.750			
0.7257	46444.93	3.5910	3.5911	0.3272	24.85	0.01	0.750			
0.7266	46503.45	3.5880	3.5879	0.2739	24.85	0.01	0.750			
0.7274	46550.44	3.5850	3.5850	0.2146	24.86	0.02	0.750			
0.7279	46586.43	3.5820	3.5823	0.1582	24.86	0.02	0.750			
0.7283	46611.97	3.5790	3.5798	0.0994	24.86	0.02	0.750			
0.7285	46625.44	3.5760	3.5777	0.0259	24.86	0.02	0.750			
