Ah_balance (normalized)	Ah_balance (mAh)	Voltage - fit (V)	Voltage -  interpolate (V)	dQ/dV (1/V)	Temperature (°C)	Temperature - diff (°C)	Current (C)	R_DC 0ms (mOhm)	R_DC 50ms (mOhm)	R_DC 50 ms PEC (mOhm)
0.0477	3051.62	4.1990	4.1990	0.7793	25.98	0.60	0.750			
0.0500	3198.83	4.1960	4.1960	0.7598	25.98	0.60	0.750			
0.0522	3342.54	4.1930	4.1931	0.7504	25.98	0.60	0.750			
0.0545	3485.07	4.1900	4.1900	0.7442	25.98	0.60	0.750			
0.0567	3626.62	4.1870	4.1870	0.7423	25.97	0.59	0.750			
0.0589	3767.47	4.1840	4.1841	0.7432	25.97	0.59	0.750			
0.0611	3910.40	4.1810	4.1807	0.7460	25.97	0.59	0.750			
0.0633	4054.10	4.1780	4.1781	0.7507	25.97	0.59	0.750			
0.0656	4199.55	4.1750	4.1750	0.7514	25.97	0.59	0.750			
0.0679	4344.41	4.1720	4.1720	0.7563	25.97	0.59	0.750			
0.0701	4489.00	4.1690	4.1690	0.7554	25.97	0.59	0.750			
0.0724	4634.88	4.1660	4.1660	0.7615	25.97	0.59	0.750			
0.0747	4782.12	4.1630	4.1631	0.7627	25.97	0.59	0.750			
0.0770	4930.18	4.1600	4.1599	0.7632	25.97	0.59	0.750			
0.0793	5076.18	4.1570	4.1571	0.7626	25.97	0.59	0.750			
0.0816	5223.25	4.1540	4.1540	0.7647	25.97	0.59	0.750			
0.0839	5368.39	4.1510	4.1510	0.7598	25.97	0.59	0.750			
0.0861	5513.05	4.1480	4.1480	0.7617	25.97	0.59	0.750			
0.0884	5659.52	4.1450	4.1451	0.7634	25.97	0.59	0.750			
0.0908	5809.57	4.1420	4.1419	0.7627	25.98	0.60	0.750			
0.0930	5954.99	4.1390	4.1390	0.7638	25.98	0.60	0.750			
0.0953	6101.09	4.1360	4.1361	0.7638	25.99	0.61	0.750			
0.0976	6246.72	4.1330	4.1329	0.7651	25.99	0.61	0.750			
0.0999	6393.59	4.1300	4.1300	0.7721	25.99	0.61	0.750			
0.1022	6540.46	4.1270	4.1270	0.7738	25.99	0.61	0.750			
0.1045	6690.75	4.1240	4.1240	0.7719	25.99	0.61	0.750			
0.1069	6840.23	4.1210	4.1211	0.7731	25.99	0.61	0.750			
0.1092	6988.87	4.1180	4.1181	0.7755	25.99	0.61	0.750			
0.1115	7137.27	4.1150	4.1151	0.7798	25.99	0.61	0.750			
0.1138	7286.17	4.1120	4.1121	0.7812	25.99	0.61	0.750			
0.1162	7436.20	4.1090	4.1090	0.7819	25.99	0.61	0.750			
0.1186	7587.86	4.1060	4.1061	0.7889	25.99	0.61	0.750			
0.1209	7739.24	4.1030	4.1030	0.7860	25.99	0.61	0.750			
0.1233	7890.81	4.1000	4.0997	0.7903	25.99	0.61	0.750			
0.1257	8042.67	4.0970	4.0971	0.7911	25.99	0.61	0.750			
0.1280	8194.96	4.0940	4.0941	0.7904	25.99	0.61	0.750			
0.1304	8348.71	4.0910	4.0910	0.7924	25.99	0.61	0.750			
0.1328	8498.82	4.0880	4.0880	0.7893	25.99	0.61	0.750			
0.1352	8651.53	4.0850	4.0849	0.7923	25.99	0.61	0.750			
0.1375	8802.86	4.0820	4.0820	0.7962	25.99	0.61	0.750			
0.1400	8958.21	4.0790	4.0790	0.7879	25.99	0.61	0.750			
0.1423	9109.34	4.0760	4.0761	0.7928	26.00	0.62	0.750			
0.1447	9260.41	4.0730	4.0731	0.7991	26.00	0.62	0.750			
0.1471	9413.07	4.0700	4.0702	0.8031	26.00	0.62	0.750			
0.1495	9566.42	4.0670	4.0670	0.8062	26.00	0.62	0.750			
0.1519	9722.80	4.0640	4.0641	0.8128	26.00	0.62	0.750			
0.1544	9880.38	4.0610	4.0610	0.8166	26.00	0.62	0.750			
0.1569	10040.11	4.0580	4.0580	0.8190	26.01	0.63	0.750			
0.1593	10197.09	4.0550	4.0550	0.8162	26.01	0.63	0.750			
0.1618	10352.87	4.0520	4.0520	0.8174	26.01	0.63	0.750			
0.1642	10511.89	4.0490	4.0490	0.8147	26.01	0.63	0.750			
0.1667	10667.29	4.0460	4.0460	0.8166	26.01	0.63	0.750			
0.1691	10823.15	4.0430	4.0430	0.8228	26.01	0.63	0.750			
0.1716	10980.42	4.0400	4.0402	0.8294	26.01	0.63	0.750			
0.1741	11140.59	4.0370	4.0368	0.8335	26.01	0.63	0.750			
0.1766	11303.92	4.0340	4.0339	0.8264	26.01	0.63	0.750			
0.1791	11463.20	4.0310	4.0310	0.8330	26.01	0.63	0.750			
0.1816	11622.79	4.0280	4.0282	0.8385	26.01	0.63	0.750			
0.1841	11783.26	4.0250	4.0251	0.8385	26.01	0.63	0.750			
0.1866	11942.72	4.0220	4.0222	0.8390	26.01	0.63	0.750			
0.1891	12105.19	4.0190	4.0191	0.8460	26.01	0.63	0.750			
0.1917	12269.81	4.0160	4.0160	0.8523	26.01	0.63	0.750			
0.1943	12434.19	4.0130	4.0130	0.8558	26.02	0.64	0.750			
0.1969	12599.20	4.0100	4.0100	0.8515	26.02	0.64	0.750			
0.1994	12762.24	4.0070	4.0070	0.8513	26.02	0.64	0.750			
0.2020	12928.73	4.0040	4.0040	0.8445	26.02	0.64	0.750			
0.2045	13088.51	4.0010	4.0010	0.8487	26.02	0.64	0.750			
0.2070	13248.57	3.9980	3.9981	0.8596	26.03	0.65	0.750			
0.2096	13414.36	3.9950	3.9952	0.8683	26.03	0.65	0.750			
0.2122	13581.73	3.9920	3.9920	0.8705	26.03	0.65	0.750			
0.2149	13751.08	3.9890	3.9891	0.8769	26.03	0.65	0.750			
0.2175	13919.29	3.9860	3.9862	0.8700	26.03	0.65	0.750			
0.2201	14086.58	3.9830	3.9831	0.8698	26.03	0.65	0.750			
0.2227	14250.85	3.9800	3.9799	0.8648	26.03	0.65	0.750			
0.2253	14416.41	3.9770	3.9772	0.8673	26.03	0.65	0.750			
0.2279	14583.67	3.9740	3.9741	0.8695	26.03	0.65	0.750			
0.2305	14752.20	3.9710	3.9711	0.8744	26.03	0.65	0.750			
0.2332	14924.24	3.9680	3.9680	0.8837	26.03	0.65	0.750			
0.2357	15087.70	3.9650	3.9647	0.8695	26.03	0.65	0.750			
0.2384	15257.57	3.9620	3.9621	0.8657	26.03	0.65	0.750			
0.2410	15422.56	3.9590	3.9590	0.8692	26.03	0.65	0.750			
0.2436	15590.38	3.9560	3.9560	0.8734	26.02	0.64	0.750			
0.2462	15756.08	3.9530	3.9531	0.8726	26.02	0.64	0.750			
0.2488	15924.00	3.9500	3.9499	0.8774	26.02	0.64	0.750			
0.2515	16094.81	3.9470	3.9470	0.8728	26.02	0.64	0.750			
0.2541	16262.68	3.9440	3.9439	0.8717	26.02	0.64	0.750			
0.2567	16429.42	3.9410	3.9412	0.8771	26.01	0.63	0.750			
0.2593	16596.68	3.9380	3.9380	0.8702	26.01	0.63	0.750			
0.2619	16764.70	3.9350	3.9350	0.8712	26.01	0.63	0.750			
0.2646	16932.15	3.9320	3.9320	0.8730	26.01	0.63	0.750			
0.2672	17100.33	3.9290	3.9291	0.8762	26.00	0.62	0.750			
0.2699	17270.47	3.9260	3.9260	0.8748	26.00	0.62	0.750			
0.2724	17436.69	3.9230	3.9230	0.8743	26.00	0.62	0.750			
0.2751	17604.54	3.9200	3.9200	0.8716	26.00	0.62	0.750			
0.2777	17774.04	3.9170	3.9170	0.8655	25.99	0.61	0.750			
0.2803	17937.17	3.9140	3.9140	0.8661	25.98	0.60	0.750			
0.2828	18101.38	3.9110	3.9112	0.8665	25.98	0.60	0.750			
0.2854	18268.63	3.9080	3.9077	0.8715	25.97	0.59	0.750			
0.2881	18436.18	3.9050	3.9050	0.8756	25.97	0.59	0.750			
0.2907	18603.99	3.9020	3.9021	0.8719	25.96	0.58	0.750			
0.2934	18775.47	3.8990	3.8991	0.8804	25.96	0.58	0.750			
0.2960	18941.72	3.8960	3.8960	0.8750	25.95	0.57	0.750			
0.2986	19110.18	3.8930	3.8929	0.8777	25.95	0.57	0.750			
0.3012	19279.43	3.8900	3.8900	0.8741	25.95	0.57	0.750			
0.3039	19447.98	3.8870	3.8869	0.8743	25.94	0.56	0.750			
0.3065	19615.57	3.8840	3.8841	0.8795	25.94	0.56	0.750			
0.3091	19785.39	3.8810	3.8810	0.8803	25.93	0.55	0.750			
0.3117	19951.91	3.8780	3.8780	0.8788	25.93	0.55	0.750			
0.3144	20123.73	3.8750	3.8749	0.8664	25.92	0.54	0.750			
0.3170	20289.38	3.8720	3.8721	0.8757	25.91	0.53	0.750			
0.3196	20457.04	3.8690	3.8690	0.8803	25.90	0.52	0.750			
0.3223	20625.00	3.8660	3.8662	0.8825	25.89	0.51	0.750			
0.3249	20794.04	3.8630	3.8632	0.8861	25.89	0.51	0.750			
0.3277	20969.95	3.8600	3.8600	0.8738	25.88	0.50	0.750			
0.3302	21134.03	3.8570	3.8571	0.8881	25.87	0.49	0.750			
0.3329	21308.10	3.8540	3.8541	0.8922	25.86	0.48	0.750			
0.3355	21472.83	3.8510	3.8506	0.8960	25.85	0.47	0.750			
0.3382	21645.60	3.8480	3.8482	0.9125	25.84	0.46	0.750			
0.3410	21822.26	3.8450	3.8451	0.9252	25.83	0.45	0.750			
0.3438	22003.33	3.8420	3.8420	0.9412	25.82	0.44	0.750	0.327	0.466	
0.3467	22188.76	3.8390	3.8391	0.9371	25.82	0.44	0.750			
0.3495	22370.93	3.8360	3.8361	0.9446	25.81	0.43	0.750			
0.3524	22554.41	3.8330	3.8330	0.9378	25.80	0.42	0.750			
0.3552	22730.61	3.8300	3.8300	0.9391	25.79	0.41	0.750			
0.3580	22909.30	3.8270	3.8271	0.9470	25.79	0.41	0.750			
0.3608	23091.63	3.8240	3.8236	0.9563	25.78	0.40	0.750			
0.3637	23276.80	3.8210	3.8210	0.9646	25.77	0.39	0.750			
0.3666	23464.18	3.8180	3.8181	0.9782	25.76	0.38	0.750			
0.3696	23653.44	3.8150	3.8150	0.9941	25.75	0.37	0.750			
0.3726	23845.38	3.8120	3.8119	0.9998	25.74	0.36	0.750			
0.3756	24038.55	3.8090	3.8090	1.0081	25.73	0.35	0.750			
0.3786	24233.08	3.8060	3.8060	1.0214	25.72	0.34	0.750			
0.3817	24430.62	3.8030	3.8031	1.0351	25.71	0.33	0.750			
0.3849	24630.93	3.8000	3.7999	1.0459	25.70	0.32	0.750			
0.3880	24831.22	3.7970	3.7970	1.0526	25.69	0.31	0.750			
0.3911	25032.29	3.7940	3.7940	1.0680	25.69	0.31	0.750			
0.3944	25239.18	3.7910	3.7911	1.0893	25.68	0.30	0.750			
0.3977	25451.02	3.7880	3.7879	1.1044	25.67	0.29	0.750			
0.4010	25663.76	3.7850	3.7850	1.1135	25.66	0.28	0.750			
0.4043	25877.75	3.7820	3.7821	1.1372	25.65	0.27	0.750			
0.4078	26098.76	3.7790	3.7791	1.1578	25.64	0.26	0.750			
0.4113	26322.89	3.7760	3.7760	1.1766	25.63	0.25	0.750			
0.4148	26547.31	3.7730	3.7731	1.1954	25.62	0.24	0.750			
0.4184	26779.87	3.7700	3.7701	1.2237	25.61	0.23	0.750			
0.4223	27024.76	3.7670	3.7669	1.2373	25.59	0.21	0.750			
0.4259	27257.56	3.7640	3.7640	1.2582	25.58	0.20	0.750			
0.4297	27499.21	3.7610	3.7611	1.2901	25.56	0.18	0.750			
0.4337	27753.82	3.7580	3.7581	1.3130	25.55	0.17	0.750			
0.4376	28007.12	3.7550	3.7550	1.3482	25.54	0.16	0.750			
0.4417	28267.72	3.7520	3.7522	1.3853	25.53	0.15	0.750			
0.4459	28537.98	3.7490	3.7492	1.4180	25.52	0.14	0.750			
0.4502	28813.91	3.7460	3.7461	1.4495	25.50	0.12	0.750			
0.4546	29091.26	3.7430	3.7431	1.4691	25.49	0.11	0.750			
0.4590	29379.11	3.7400	3.7401	1.4917	25.48	0.10	0.750			
0.4636	29668.53	3.7370	3.7368	1.5356	25.46	0.08	0.750			
0.4681	29958.69	3.7340	3.7337	1.5945	25.45	0.07	0.750			
0.4730	30270.42	3.7310	3.7309	1.6370	25.43	0.05	0.750			
0.4780	30594.73	3.7280	3.7282	1.6946	25.41	0.03	0.750			
0.4831	30920.69	3.7250	3.7252	1.7554	25.39	0.01	0.750			
0.4886	31270.01	3.7220	3.7221	1.8217	25.37	-0.01	0.750			
0.4941	31622.95	3.7190	3.7189	1.8427	25.36	-0.02	0.750			
0.4998	31986.43	3.7160	3.7159	1.8865	25.35	-0.03	0.750			
0.5056	32356.51	3.7130	3.7129	1.9487	25.33	-0.05	0.750			
0.5114	32728.57	3.7100	3.7102	1.9760	25.31	-0.07	0.750			
0.5174	33112.63	3.7070	3.7069	2.0256	25.29	-0.09	0.750			
0.5236	33510.12	3.7040	3.7040	2.1084	25.28	-0.10	0.750			
0.5300	33922.53	3.7010	3.7007	2.1683	25.26	-0.12	0.750			
0.5366	34341.83	3.6980	3.6978	2.2259	25.25	-0.13	0.750			
0.5434	34778.39	3.6950	3.6949	2.2672	25.23	-0.15	0.750			
0.5504	35223.29	3.6920	3.6919	2.2921	25.22	-0.16	0.750			
0.5572	35659.49	3.6890	3.6889	2.3174	25.21	-0.17	0.750			
0.5643	36116.20	3.6860	3.6862	2.3612	25.20	-0.18	0.750			
0.5715	36575.02	3.6830	3.6830	2.3440	25.20	-0.18	0.750			
0.5786	37031.87	3.6800	3.6799	2.3129	25.20	-0.18	0.750			
0.5857	37485.36	3.6770	3.6768	2.2590	25.19	-0.19	0.750			
0.5923	37904.58	3.6740	3.6742	2.1572	25.20	-0.18	0.750			
0.5987	38314.21	3.6710	3.6710	2.0771	25.20	-0.18	0.750			
0.6048	38706.08	3.6680	3.6683	1.9387	25.21	-0.17	0.750			
0.6103	39061.75	3.6650	3.6651	1.8149	25.21	-0.17	0.750			
0.6156	39399.54	3.6620	3.6623	1.6952	25.21	-0.17	0.750			
0.6206	39717.30	3.6590	3.6591	1.5804	25.22	-0.16	0.750			
0.6252	40010.34	3.6560	3.6560	1.4818	25.22	-0.16	0.750			
0.6294	40278.58	3.6530	3.6531	1.3797	25.23	-0.15	0.750			
0.6334	40535.14	3.6500	3.6501	1.3107	25.24	-0.14	0.750			
0.6371	40773.33	3.6470	3.6470	1.2234	25.25	-0.13	0.750			
0.6406	40998.83	3.6440	3.6440	1.1558	25.26	-0.12	0.750			
0.6440	41214.33	3.6410	3.6410	1.1041	25.26	-0.12	0.750			
0.6472	41421.64	3.6380	3.6380	1.0564	25.27	-0.11	0.750			
0.6503	41619.69	3.6350	3.6351	0.9979	25.27	-0.11	0.750			
0.6533	41808.12	3.6320	3.6319	0.9487	25.28	-0.10	0.750			
0.6560	41982.57	3.6290	3.6291	0.9228	25.29	-0.09	0.750			
0.6587	42154.88	3.6260	3.6261	0.8936	25.29	-0.09	0.750			
0.6613	42322.48	3.6230	3.6229	0.8660	25.30	-0.08	0.750			
0.6638	42486.18	3.6200	3.6203	0.8331	25.31	-0.07	0.750			
0.6664	42648.11	3.6170	3.6171	0.7933	25.32	-0.06	0.750			
0.6687	42798.28	3.6140	3.6140	0.7574	25.33	-0.05	0.750			
0.6709	42940.18	3.6110	3.6111	0.7092	25.34	-0.04	0.750			
0.6730	43069.70	3.6080	3.6077	0.6587	25.35	-0.03	0.750			
0.6749	43192.16	3.6050	3.6051	0.6126	25.35	-0.03	0.750			
0.6766	43305.08	3.6020	3.6021	0.5635	25.36	-0.02	0.750			
0.6783	43409.58	3.5990	3.5990	0.5171	25.36	-0.02	0.750			
0.6798	43504.95	3.5960	3.5960	0.4638	25.37	-0.01	0.750			
0.6811	43589.85	3.5930	3.5930	0.4168	25.37	-0.01	0.750			
0.6823	43664.90	3.5900	3.5900	0.3678	25.37	-0.01	0.750			
0.6833	43731.19	3.5870	3.5870	0.3199	25.37	-0.01	0.750			
0.6842	43788.01	3.5840	3.5840	0.2714	25.38	-0.00	0.750			
0.6849	43835.31	3.5810	3.5810	0.2226	25.38	-0.00	0.750			
0.6855	43873.51	3.5780	3.5780	0.1740	25.38	-0.00	0.750			
0.6860	43902.45	3.5750	3.5756	0.1240	25.38	0.00	0.750			
0.6863	43921.46	3.5720	3.5728	0.0741	25.38	0.00	0.750			
