Ah_balance (normalized)	Ah_balance (mAh)	Voltage - fit (V)	Voltage -  interpolate (V)	dQ/dV (1/V)	Temperature (°C)	Temperature - diff (°C)	Current (C)	R_DC 0ms (mOhm)	R_DC 50ms (mOhm)	R_DC 50 ms PEC (mOhm)
0.0472	3021.10	4.1980	4.1980	0.8038	25.65	0.51	0.750			
0.0495	3165.96	4.1950	4.1950	0.7499	25.65	0.51	0.750			
0.0517	3305.78	4.1920	4.1921	0.7487	25.65	0.51	0.750			
0.0539	3451.35	4.1890	4.1892	0.7552	25.65	0.51	0.750			
0.0562	3596.79	4.1860	4.1860	0.7587	25.65	0.51	0.750			
0.0585	3743.37	4.1830	4.1832	0.7615	25.65	0.51	0.750			
0.0608	3891.16	4.1800	4.1800	0.7587	25.65	0.51	0.750			
0.0631	4038.02	4.1770	4.1771	0.7671	25.65	0.51	0.750			
0.0653	4181.50	4.1740	4.1740	0.7601	25.65	0.51	0.750			
0.0676	4326.99	4.1710	4.1710	0.7625	25.65	0.51	0.750			
0.0699	4474.99	4.1680	4.1680	0.7683	25.65	0.51	0.750			
0.0722	4623.28	4.1650	4.1650	0.7661	25.66	0.52	0.750			
0.0746	4772.46	4.1620	4.1621	0.7715	25.66	0.52	0.750			
0.0769	4919.67	4.1590	4.1590	0.7672	25.67	0.53	0.750			
0.0792	5066.09	4.1560	4.1560	0.7671	25.67	0.53	0.750			
0.0815	5213.40	4.1530	4.1530	0.7682	25.67	0.53	0.750			
0.0838	5362.19	4.1500	4.1500	0.7659	25.67	0.53	0.750			
0.0861	5509.72	4.1470	4.1470	0.7702	25.67	0.53	0.750			
0.0884	5656.92	4.1440	4.1440	0.7735	25.67	0.53	0.750			
0.0907	5804.37	4.1410	4.1411	0.7758	25.67	0.53	0.750			
0.0930	5954.61	4.1380	4.1381	0.7777	25.67	0.53	0.750			
0.0954	6104.28	4.1350	4.1351	0.7809	25.67	0.53	0.750			
0.0978	6256.16	4.1320	4.1320	0.7770	25.67	0.53	0.750			
0.1001	6404.05	4.1290	4.1290	0.7793	25.67	0.53	0.750			
0.1024	6551.70	4.1260	4.1261	0.7759	25.67	0.53	0.750			
0.1047	6700.52	4.1230	4.1226	0.7822	25.67	0.53	0.750			
0.1070	6850.90	4.1200	4.1201	0.7866	25.67	0.53	0.750			
0.1094	7003.52	4.1170	4.1170	0.7925	25.67	0.53	0.750			
0.1118	7158.07	4.1140	4.1140	0.7974	25.67	0.53	0.750			
0.1142	7311.46	4.1110	4.1110	0.7929	25.67	0.53	0.750			
0.1166	7463.68	4.1080	4.1079	0.7932	25.67	0.53	0.750			
0.1190	7615.87	4.1050	4.1051	0.7929	25.67	0.53	0.750			
0.1214	7771.45	4.1020	4.1019	0.7826	25.67	0.53	0.750			
0.1237	7918.70	4.0990	4.0990	0.7903	25.67	0.53	0.750			
0.1261	8069.61	4.0960	4.0961	0.7923	25.67	0.53	0.750			
0.1285	8221.33	4.0930	4.0932	0.7974	25.67	0.53	0.750			
0.1309	8375.16	4.0900	4.0898	0.8022	25.67	0.53	0.750			
0.1333	8532.03	4.0870	4.0871	0.7982	25.68	0.54	0.750			
0.1357	8685.06	4.0840	4.0841	0.8060	25.68	0.54	0.750			
0.1381	8840.12	4.0810	4.0810	0.8109	25.68	0.54	0.750			
0.1405	8994.44	4.0780	4.0781	0.8073	25.69	0.55	0.750			
0.1430	9150.35	4.0750	4.0749	0.8146	25.69	0.55	0.750			
0.1454	9307.72	4.0720	4.0721	0.8170	25.69	0.55	0.750			
0.1479	9466.81	4.0690	4.0690	0.8220	25.69	0.55	0.750			
0.1504	9625.20	4.0660	4.0660	0.8256	25.69	0.55	0.750			
0.1529	9783.00	4.0630	4.0630	0.8192	25.69	0.55	0.750			
0.1553	9940.48	4.0600	4.0600	0.8219	25.69	0.55	0.750			
0.1578	10098.66	4.0570	4.0571	0.8247	25.69	0.55	0.750			
0.1603	10258.44	4.0540	4.0540	0.8121	25.69	0.55	0.750			
0.1627	10410.67	4.0510	4.0510	0.8213	25.70	0.56	0.750			
0.1651	10566.51	4.0480	4.0482	0.8260	25.70	0.56	0.750			
0.1676	10725.59	4.0450	4.0443	0.8318	25.70	0.56	0.750			
0.1701	10887.24	4.0420	4.0422	0.8403	25.70	0.56	0.750			
0.1727	11049.80	4.0390	4.0391	0.8311	25.70	0.56	0.750			
0.1752	11210.86	4.0360	4.0361	0.8394	25.71	0.57	0.750			
0.1776	11368.35	4.0330	4.0332	0.8334	25.71	0.57	0.750			
0.1801	11528.26	4.0300	4.0297	0.8423	25.71	0.57	0.750			
0.1827	11691.64	4.0270	4.0271	0.8467	25.71	0.57	0.750			
0.1853	11856.07	4.0240	4.0241	0.8552	25.71	0.57	0.750			
0.1879	12024.90	4.0210	4.0210	0.8640	25.71	0.57	0.750			
0.1905	12193.33	4.0180	4.0180	0.8672	25.71	0.57	0.750			
0.1930	12353.50	4.0150	4.0150	0.8555	25.71	0.57	0.750			
0.1956	12518.49	4.0120	4.0120	0.8611	25.72	0.58	0.750			
0.1982	12682.91	4.0090	4.0090	0.8522	25.72	0.58	0.750			
0.2007	12843.97	4.0060	4.0061	0.8620	25.72	0.58	0.750			
0.2033	13009.13	4.0030	4.0032	0.8665	25.73	0.59	0.750			
0.2059	13176.20	4.0000	4.0001	0.8722	25.73	0.59	0.750			
0.2085	13346.42	3.9970	3.9972	0.8721	25.73	0.59	0.750			
0.2112	13514.74	3.9940	3.9941	0.8800	25.73	0.59	0.750			
0.2138	13684.52	3.9910	3.9910	0.8863	25.73	0.59	0.750			
0.2165	13853.15	3.9880	3.9880	0.8788	25.73	0.59	0.750			
0.2191	14022.07	3.9850	3.9851	0.8877	25.73	0.59	0.750			
0.2218	14195.51	3.9820	3.9821	0.8904	25.74	0.60	0.750			
0.2245	14367.40	3.9790	3.9790	0.8922	25.74	0.60	0.750			
0.2272	14540.56	3.9760	3.9760	0.8972	25.75	0.61	0.750			
0.2298	14709.94	3.9730	3.9728	0.8897	25.75	0.61	0.750			
0.2325	14880.02	3.9700	3.9700	0.8900	25.75	0.61	0.750			
0.2352	15051.93	3.9670	3.9670	0.8793	25.75	0.61	0.750			
0.2378	15216.03	3.9640	3.9641	0.8879	25.75	0.61	0.750			
0.2404	15385.56	3.9610	3.9612	0.8966	25.75	0.61	0.750			
0.2431	15558.46	3.9580	3.9582	0.9028	25.75	0.61	0.750			
0.2459	15736.79	3.9550	3.9550	0.8948	25.75	0.61	0.750			
0.2486	15909.21	3.9520	3.9522	0.9057	25.76	0.62	0.750			
0.2513	16085.44	3.9490	3.9491	0.9153	25.76	0.62	0.750			
0.2541	16259.51	3.9460	3.9460	0.9068	25.76	0.62	0.750			
0.2568	16433.72	3.9430	3.9432	0.9083	25.76	0.62	0.750			
0.2595	16607.71	3.9400	3.9401	0.9147	25.76	0.62	0.750			
0.2623	16786.03	3.9370	3.9371	0.9221	25.77	0.63	0.750			
0.2651	16968.79	3.9340	3.9340	0.9318	25.77	0.63	0.750			
0.2679	17142.76	3.9310	3.9310	0.9192	25.77	0.63	0.750			
0.2706	17320.82	3.9280	3.9280	0.9105	25.77	0.63	0.750			
0.2733	17493.21	3.9250	3.9251	0.9196	25.77	0.63	0.750			
0.2761	17669.22	3.9220	3.9220	0.9227	25.77	0.63	0.750			
0.2788	17845.31	3.9190	3.9189	0.9247	25.77	0.63	0.750			
0.2816	18024.13	3.9160	3.9160	0.9310	25.77	0.63	0.750			
0.2845	18208.09	3.9130	3.9131	0.9154	25.77	0.63	0.750			
0.2872	18379.65	3.9100	3.9101	0.9232	25.77	0.63	0.750			
0.2899	18556.54	3.9070	3.9072	0.9279	25.77	0.63	0.750			
0.2927	18731.07	3.9040	3.9033	0.9250	25.77	0.63	0.750			
0.2955	18909.76	3.9010	3.9011	0.9237	25.76	0.62	0.750			
0.2982	19087.27	3.8980	3.8982	0.9342	25.76	0.62	0.750			
0.3011	19272.08	3.8950	3.8951	0.9451	25.76	0.62	0.750			
0.3039	19452.35	3.8920	3.8918	0.9338	25.75	0.61	0.750			
0.3068	19634.39	3.8890	3.8890	0.9226	25.75	0.61	0.750			
0.3095	19810.88	3.8860	3.8861	0.9263	25.74	0.60	0.750			
0.3123	19987.45	3.8830	3.8831	0.9334	25.74	0.60	0.750			
0.3151	20167.25	3.8800	3.8801	0.9409	25.73	0.59	0.750			
0.3179	20344.56	3.8770	3.8766	0.9402	25.73	0.59	0.750			
0.3208	20530.41	3.8740	3.8740	0.9324	25.72	0.58	0.750			
0.3236	20709.38	3.8710	3.8711	0.9478	25.72	0.58	0.750			
0.3264	20892.62	3.8680	3.8682	0.9541	25.72	0.58	0.750			
0.3293	21074.33	3.8650	3.8647	0.9461	25.71	0.57	0.750			
0.3321	21257.23	3.8620	3.8621	0.9471	25.70	0.56	0.750			
0.3350	21438.38	3.8590	3.8591	0.9509	25.69	0.55	0.750			
0.3379	21622.94	3.8560	3.8560	0.9512	25.68	0.54	0.750			
0.3407	21806.42	3.8530	3.8531	0.9425	25.68	0.54	0.750			
0.3436	21988.15	3.8500	3.8501	0.9445	25.67	0.53	0.750			
0.3465	22174.19	3.8470	3.8469	0.9268	25.66	0.52	0.750			
0.3491	22345.15	3.8440	3.8441	0.9375	25.66	0.52	0.750			
0.3519	22520.29	3.8410	3.8412	0.9482	25.65	0.51	0.750			
0.3547	22702.09	3.8380	3.8370	0.9629	25.65	0.51	0.750			
0.3577	22891.29	3.8350	3.8342	0.9625	25.64	0.50	0.750	0.322	0.423	
0.3606	23078.75	3.8320	3.8323	0.9831	25.63	0.49	0.750			
0.3636	23271.36	3.8290	3.8291	0.9932	25.62	0.48	0.750			
0.3667	23468.92	3.8260	3.8257	1.0098	25.61	0.47	0.750			
0.3696	23656.21	3.8230	3.8231	0.9838	25.60	0.46	0.750			
0.3725	23842.79	3.8200	3.8200	0.9893	25.60	0.46	0.750			
0.3755	24033.42	3.8170	3.8170	1.0036	25.59	0.45	0.750			
0.3785	24226.77	3.8140	3.8141	1.0019	25.58	0.44	0.750			
0.3816	24425.30	3.8110	3.8110	0.9980	25.57	0.43	0.750			
0.3846	24612.81	3.8080	3.8082	1.0397	25.56	0.42	0.750			
0.3877	24814.12	3.8050	3.8050	1.0690	25.55	0.41	0.750			
0.3910	25023.85	3.8020	3.8019	1.0960	25.54	0.40	0.750			
0.3943	25238.05	3.7990	3.7993	1.0968	25.53	0.39	0.750			
0.3977	25450.66	3.7960	3.7964	1.1086	25.52	0.38	0.750			
0.4011	25670.14	3.7930	3.7931	1.1242	25.51	0.37	0.750			
0.4045	25885.49	3.7900	3.7896	1.1285	25.50	0.36	0.750			
0.4077	26093.81	3.7870	3.7871	1.1159	25.49	0.35	0.750			
0.4111	26311.51	3.7840	3.7841	1.1377	25.48	0.34	0.750			
0.4146	26533.31	3.7810	3.7811	1.1652	25.47	0.33	0.750			
0.4181	26760.05	3.7780	3.7779	1.1677	25.46	0.32	0.750			
0.4216	26984.70	3.7750	3.7750	1.1936	25.45	0.31	0.750			
0.4252	27214.22	3.7720	3.7721	1.2166	25.43	0.29	0.750			
0.4289	27452.56	3.7690	3.7687	1.2317	25.42	0.28	0.750			
0.4327	27690.88	3.7660	3.7661	1.2604	25.41	0.27	0.750			
0.4365	27934.10	3.7630	3.7631	1.2874	25.40	0.26	0.750			
0.4404	28183.74	3.7600	3.7600	1.3092	25.39	0.25	0.750			
0.4444	28438.69	3.7570	3.7571	1.3488	25.37	0.23	0.750			
0.4484	28696.98	3.7540	3.7541	1.3748	25.37	0.23	0.750			
0.4527	28971.69	3.7510	3.7509	1.3816	25.36	0.22	0.750			
0.4569	29239.53	3.7480	3.7480	1.4281	25.34	0.20	0.750			
0.4611	29510.53	3.7450	3.7452	1.4497	25.32	0.18	0.750			
0.4655	29794.90	3.7420	3.7421	1.4718	25.31	0.17	0.750			
0.4699	30074.37	3.7390	3.7393	1.5182	25.29	0.15	0.750			
0.4744	30363.62	3.7360	3.7358	1.5638	25.28	0.14	0.750			
0.4793	30672.96	3.7330	3.7328	1.6069	25.27	0.13	0.750			
0.4842	30990.90	3.7300	3.7298	1.6738	25.25	0.11	0.750			
0.4892	31309.10	3.7270	3.7271	1.7186	25.23	0.09	0.750			
0.4944	31643.66	3.7240	3.7238	1.7769	25.21	0.07	0.750			
0.4999	31991.46	3.7210	3.7210	1.8453	25.20	0.06	0.750			
0.5054	32348.73	3.7180	3.7177	1.8775	25.18	0.04	0.750			
0.5113	32723.20	3.7150	3.7148	1.9428	25.16	0.02	0.750			
0.5172	33097.86	3.7120	3.7119	1.9752	25.14	0.00	0.750			
0.5232	33483.34	3.7090	3.7092	2.0229	25.13	-0.01	0.750			
0.5294	33880.31	3.7060	3.7060	2.0588	25.12	-0.02	0.750			
0.5357	34281.66	3.7030	3.7028	2.1254	25.10	-0.04	0.750			
0.5420	34685.17	3.7000	3.6998	2.1649	25.08	-0.06	0.750			
0.5485	35105.08	3.6970	3.6966	2.2577	25.07	-0.07	0.750			
0.5554	35548.66	3.6940	3.6938	2.3140	25.06	-0.08	0.750			
0.5626	36006.36	3.6910	3.6909	2.3676	25.05	-0.09	0.750			
0.5697	36460.98	3.6880	3.6879	2.4211	25.04	-0.10	0.750			
0.5770	36931.20	3.6850	3.6852	2.5461	25.02	-0.12	0.750			
0.5848	37429.42	3.6820	3.6821	2.5873	25.02	-0.12	0.750			
0.5928	37940.67	3.6790	3.6789	2.6542	25.01	-0.13	0.750			
0.6010	38466.45	3.6760	3.6759	2.6827	25.00	-0.14	0.750			
0.6092	38986.05	3.6730	3.6730	2.7095	25.00	-0.14	0.750			
0.6175	39517.56	3.6700	3.6697	2.6844	25.00	-0.14	0.750			
0.6253	40020.94	3.6670	3.6671	2.5398	25.01	-0.13	0.750			
0.6328	40502.15	3.6640	3.6640	2.3733	25.02	-0.12	0.750			
0.6398	40946.00	3.6610	3.6610	2.1755	25.02	-0.12	0.750			
0.6459	41335.06	3.6580	3.6582	2.0110	25.03	-0.11	0.750			
0.6517	41708.70	3.6550	3.6551	1.8456	25.04	-0.10	0.750			
0.6569	42040.74	3.6520	3.6520	1.6924	25.04	-0.10	0.750			
0.6617	42350.75	3.6490	3.6492	1.5578	25.05	-0.09	0.750			
0.6662	42635.80	3.6460	3.6459	1.4254	25.06	-0.08	0.750			
0.6703	42897.88	3.6430	3.6430	1.3103	25.06	-0.08	0.750			
0.6739	43131.00	3.6400	3.6401	1.1924	25.07	-0.07	0.750			
0.6773	43348.35	3.6370	3.6371	1.1234	25.08	-0.06	0.750			
0.6805	43552.38	3.6340	3.6339	1.0531	25.08	-0.06	0.750			
0.6836	43747.66	3.6310	3.6309	1.0015	25.09	-0.05	0.750			
0.6864	43931.34	3.6280	3.6281	0.9652	25.09	-0.05	0.750			
0.6893	44113.23	3.6250	3.6251	0.9391	25.10	-0.04	0.750			
0.6921	44291.26	3.6220	3.6217	0.9103	25.10	-0.04	0.750			
0.6947	44463.97	3.6190	3.6190	0.8796	25.11	-0.03	0.750			
0.6974	44633.27	3.6160	3.6160	0.8356	25.12	-0.02	0.750			
0.6999	44794.54	3.6130	3.6131	0.7957	25.12	-0.02	0.750			
0.7023	44944.18	3.6100	3.6100	0.7375	25.13	-0.01	0.750			
0.7044	45079.91	3.6070	3.6068	0.6749	25.14	-0.00	0.750			
0.7063	45202.63	3.6040	3.6041	0.6079	25.14	0.00	0.750			
0.7080	45312.71	3.6010	3.6011	0.5454	25.15	0.01	0.750			
0.7096	45412.72	3.5980	3.5980	0.4873	25.16	0.02	0.750			
0.7109	45499.22	3.5950	3.5949	0.4243	25.16	0.02	0.750			
0.7121	45574.23	3.5920	3.5920	0.3704	25.16	0.02	0.750			
0.7131	45640.81	3.5890	3.5890	0.3159	25.17	0.03	0.750			
0.7140	45696.46	3.5860	3.5859	0.2629	25.17	0.03	0.750			
0.7147	45742.55	3.5830	3.5831	0.2103	25.17	0.03	0.750			
0.7153	45778.13	3.5800	3.5803	0.1556	25.17	0.03	0.750			
0.7157	45803.51	3.5770	3.5777	0.0994	25.17	0.03	0.750			
0.7159	45818.86	3.5740	3.5751	0.0372	25.18	0.04	0.750			
0.7159	45820.07	3.5710	3.5749	-0.0246	25.18	0.04	0.750			
