Ah_balance (normalized)	Ah_balance (mAh)	Voltage - fit (V)	Voltage -  interpolate (V)	dQ/dV (1/V)	Temperature (°C)	Temperature - diff (°C)	Current (C)	R_DC 0ms (mOhm)	R_DC 50ms (mOhm)	R_DC 50 ms PEC (mOhm)
0.0493	3152.09	4.1960	4.1959	0.7498	25.62	0.35	0.750			
0.0515	3295.68	4.1930	4.1930	0.7469	25.62	0.35	0.750			
0.0537	3438.37	4.1900	4.1900	0.7480	25.63	0.36	0.750			
0.0560	3582.03	4.1870	4.1870	0.7518	25.63	0.36	0.750			
0.0582	3726.76	4.1840	4.1839	0.7543	25.63	0.36	0.750			
0.0605	3871.77	4.1810	4.1810	0.7516	25.63	0.36	0.750			
0.0628	4018.48	4.1780	4.1780	0.7473	25.63	0.36	0.750			
0.0650	4162.45	4.1750	4.1751	0.7523	25.64	0.37	0.750			
0.0673	4305.14	4.1720	4.1720	0.7530	25.64	0.37	0.750			
0.0695	4448.21	4.1690	4.1690	0.7538	25.64	0.37	0.750			
0.0718	4593.74	4.1660	4.1661	0.7585	25.64	0.37	0.750			
0.0741	4740.85	4.1630	4.1631	0.7623	25.64	0.37	0.750			
0.0764	4889.31	4.1600	4.1600	0.7590	25.64	0.37	0.750			
0.0787	5035.71	4.1570	4.1571	0.7596	25.65	0.38	0.750			
0.0809	5177.31	4.1540	4.1541	0.7585	25.65	0.38	0.750			
0.0832	5322.80	4.1510	4.1502	0.7627	25.65	0.38	0.750			
0.0855	5469.56	4.1480	4.1481	0.7640	25.65	0.38	0.750			
0.0878	5617.54	4.1450	4.1452	0.7671	25.65	0.38	0.750			
0.0901	5767.79	4.1420	4.1420	0.7750	25.65	0.38	0.750			
0.0925	5919.44	4.1390	4.1389	0.7795	25.65	0.38	0.750			
0.0947	6063.15	4.1360	4.1359	0.7713	25.65	0.38	0.750			
0.0971	6211.33	4.1330	4.1331	0.7720	25.65	0.38	0.750			
0.0994	6362.10	4.1300	4.1300	0.7723	25.65	0.38	0.750			
0.1017	6510.50	4.1270	4.1271	0.7735	25.65	0.38	0.750			
0.1040	6659.02	4.1240	4.1240	0.7732	25.65	0.38	0.750			
0.1063	6805.60	4.1210	4.1210	0.7733	25.65	0.38	0.750			
0.1086	6953.53	4.1180	4.1180	0.7764	25.65	0.38	0.750			
0.1110	7102.81	4.1150	4.1150	0.7768	25.65	0.38	0.750			
0.1134	7257.20	4.1120	4.1119	0.7634	25.65	0.38	0.750			
0.1156	7400.64	4.1090	4.1091	0.7718	25.65	0.38	0.750			
0.1179	7546.35	4.1060	4.1061	0.7827	25.65	0.38	0.750			
0.1203	7696.58	4.1030	4.1026	0.7886	25.65	0.38	0.750			
0.1227	7849.83	4.1000	4.1001	0.7915	25.65	0.38	0.750			
0.1251	8003.31	4.0970	4.0972	0.7967	25.66	0.39	0.750			
0.1275	8158.75	4.0940	4.0941	0.8019	25.66	0.39	0.750			
0.1300	8317.44	4.0910	4.0910	0.8035	25.66	0.39	0.750			
0.1323	8464.62	4.0880	4.0879	0.7903	25.67	0.40	0.750			
0.1346	8616.07	4.0850	4.0850	0.7916	25.67	0.40	0.750			
0.1370	8770.30	4.0820	4.0820	0.7926	25.67	0.40	0.750			
0.1394	8921.06	4.0790	4.0790	0.7979	25.68	0.41	0.750			
0.1418	9073.79	4.0760	4.0760	0.8014	25.68	0.41	0.750			
0.1442	9227.67	4.0730	4.0730	0.8049	25.68	0.41	0.750			
0.1466	9383.86	4.0700	4.0701	0.8064	25.68	0.41	0.750			
0.1490	9538.84	4.0670	4.0671	0.8089	25.68	0.41	0.750			
0.1515	9693.31	4.0640	4.0641	0.8051	25.68	0.41	0.750			
0.1539	9846.41	4.0610	4.0610	0.8092	25.69	0.42	0.750			
0.1562	9999.34	4.0580	4.0581	0.8108	25.69	0.42	0.750			
0.1587	10155.85	4.0550	4.0546	0.8199	25.69	0.42	0.750			
0.1612	10317.57	4.0520	4.0521	0.8184	25.69	0.42	0.750			
0.1637	10475.84	4.0490	4.0491	0.8216	25.69	0.42	0.750			
0.1662	10635.43	4.0460	4.0461	0.8252	25.69	0.42	0.750			
0.1686	10790.61	4.0430	4.0431	0.8205	25.69	0.42	0.750			
0.1711	10947.63	4.0400	4.0398	0.8238	25.69	0.42	0.750			
0.1736	11108.76	4.0370	4.0369	0.8245	25.69	0.42	0.750			
0.1761	11267.87	4.0340	4.0341	0.8311	25.70	0.43	0.750			
0.1786	11428.53	4.0310	4.0310	0.8372	25.70	0.43	0.750			
0.1811	11588.15	4.0280	4.0281	0.8381	25.71	0.44	0.750			
0.1836	11748.08	4.0250	4.0248	0.8414	25.71	0.44	0.750			
0.1861	11910.69	4.0220	4.0221	0.8460	25.71	0.44	0.750			
0.1887	12077.47	4.0190	4.0190	0.8383	25.71	0.44	0.750			
0.1912	12234.28	4.0160	4.0162	0.8449	25.71	0.44	0.750			
0.1937	12394.03	4.0130	4.0133	0.8472	25.71	0.44	0.750			
0.1962	12557.45	4.0100	4.0102	0.8544	25.71	0.44	0.750			
0.1988	12721.86	4.0070	4.0072	0.8556	25.71	0.44	0.750			
0.2014	12888.13	4.0040	4.0041	0.8642	25.71	0.44	0.750			
0.2041	13059.32	4.0010	4.0011	0.8744	25.72	0.45	0.750			
0.2067	13225.82	3.9980	3.9981	0.8624	25.72	0.45	0.750			
0.2092	13391.14	3.9950	3.9950	0.8649	25.72	0.45	0.750			
0.2119	13559.15	3.9920	3.9920	0.8599	25.73	0.46	0.750			
0.2144	13724.46	3.9890	3.9891	0.8663	25.73	0.46	0.750			
0.2170	13890.98	3.9860	3.9861	0.8729	25.73	0.46	0.750			
0.2197	14057.95	3.9830	3.9829	0.8708	25.74	0.47	0.750			
0.2223	14224.95	3.9800	3.9801	0.8717	25.74	0.47	0.750			
0.2249	14392.13	3.9770	3.9772	0.8765	25.74	0.47	0.750			
0.2275	14558.51	3.9740	3.9741	0.8693	25.75	0.48	0.750			
0.2301	14726.06	3.9710	3.9710	0.8766	25.75	0.48	0.750			
0.2327	14891.51	3.9680	3.9677	0.8758	25.75	0.48	0.750			
0.2353	15060.36	3.9650	3.9652	0.8814	25.75	0.48	0.750			
0.2380	15231.80	3.9620	3.9621	0.8851	25.75	0.48	0.750			
0.2407	15402.86	3.9590	3.9590	0.8878	25.75	0.48	0.750			
0.2434	15577.93	3.9560	3.9560	0.8950	25.75	0.48	0.750			
0.2460	15742.82	3.9530	3.9530	0.8843	25.75	0.48	0.750			
0.2487	15914.46	3.9500	3.9501	0.8779	25.75	0.48	0.750			
0.2513	16082.45	3.9470	3.9470	0.8844	25.75	0.48	0.750			
0.2540	16252.97	3.9440	3.9440	0.8857	25.75	0.48	0.750			
0.2566	16421.36	3.9410	3.9410	0.8809	25.75	0.48	0.750			
0.2592	16590.92	3.9380	3.9381	0.8858	25.75	0.48	0.750			
0.2619	16763.35	3.9350	3.9350	0.8800	25.75	0.48	0.750			
0.2645	16931.16	3.9320	3.9320	0.8847	25.75	0.48	0.750			
0.2672	17102.69	3.9290	3.9290	0.8851	25.75	0.48	0.750			
0.2699	17271.42	3.9260	3.9259	0.8804	25.75	0.48	0.750			
0.2725	17441.18	3.9230	3.9232	0.8831	25.75	0.48	0.750			
0.2752	17609.66	3.9200	3.9200	0.8812	25.75	0.48	0.750			
0.2778	17778.08	3.9170	3.9170	0.8853	25.75	0.48	0.750			
0.2805	17950.40	3.9140	3.9140	0.8919	25.75	0.48	0.750			
0.2831	18118.70	3.9110	3.9107	0.8868	25.75	0.48	0.750			
0.2858	18294.35	3.9080	3.9080	0.8835	25.75	0.48	0.750			
0.2885	18461.20	3.9050	3.9051	0.8874	25.74	0.47	0.750			
0.2911	18631.11	3.9020	3.9020	0.8871	25.74	0.47	0.750			
0.2938	18801.88	3.8990	3.8990	0.8863	25.73	0.46	0.750			
0.2964	18970.21	3.8960	3.8959	0.8804	25.73	0.46	0.750			
0.2991	19142.05	3.8930	3.8932	0.8721	25.72	0.45	0.750			
0.3017	19309.20	3.8900	3.8901	0.8780	25.72	0.45	0.750			
0.3043	19476.86	3.8870	3.8870	0.8798	25.72	0.45	0.750			
0.3069	19641.94	3.8840	3.8841	0.8802	25.71	0.44	0.750			
0.3095	19810.81	3.8810	3.8811	0.8890	25.71	0.44	0.750			
0.3122	19983.67	3.8780	3.8781	0.8922	25.70	0.43	0.750			
0.3150	20158.16	3.8750	3.8751	0.8992	25.70	0.43	0.750			
0.3177	20332.39	3.8720	3.8721	0.8992	25.69	0.42	0.750			
0.3204	20503.78	3.8690	3.8687	0.8935	25.69	0.42	0.750			
0.3231	20677.06	3.8660	3.8660	0.8862	25.68	0.41	0.750			
0.3257	20844.64	3.8630	3.8631	0.8904	25.68	0.41	0.750			
0.3284	21014.94	3.8600	3.8600	0.8956	25.67	0.40	0.750			
0.3311	21187.48	3.8570	3.8570	0.9025	25.66	0.39	0.750			
0.3337	21359.59	3.8540	3.8539	0.9050	25.66	0.39	0.750			
0.3365	21533.52	3.8510	3.8511	0.9139	25.65	0.38	0.750			
0.3392	21709.78	3.8480	3.8481	0.8949	25.65	0.38	0.750			
0.3418	21874.66	3.8450	3.8452	0.9150	25.64	0.37	0.750			
0.3445	22048.53	3.8420	3.8423	0.9260	25.63	0.36	0.750			
0.3473	22227.93	3.8390	3.8394	0.9343	25.62	0.35	0.750	0.340	0.463	
0.3502	22410.44	3.8360	3.8364	0.9509	25.62	0.35	0.750			
0.3531	22600.17	3.8330	3.8332	0.9663	25.61	0.34	0.750			
0.3561	22790.11	3.8300	3.8300	0.9707	25.60	0.33	0.750			
0.3589	22971.88	3.8270	3.8271	0.9521	25.59	0.32	0.750			
0.3618	23155.78	3.8240	3.8240	0.9546	25.58	0.31	0.750			
0.3647	23339.19	3.8210	3.8211	0.9695	25.58	0.31	0.750			
0.3676	23525.68	3.8180	3.8180	0.9820	25.57	0.30	0.750			
0.3705	23715.05	3.8150	3.8147	0.9862	25.57	0.30	0.750			
0.3736	23909.58	3.8120	3.8121	0.9840	25.56	0.29	0.750			
0.3765	24096.47	3.8090	3.8091	0.9976	25.55	0.28	0.750			
0.3795	24288.53	3.8060	3.8061	1.0123	25.54	0.27	0.750			
0.3825	24481.04	3.8030	3.8028	1.0201	25.53	0.26	0.750			
0.3856	24676.95	3.8000	3.8002	1.0346	25.52	0.25	0.750			
0.3887	24877.36	3.7970	3.7971	1.0564	25.51	0.24	0.750			
0.3920	25085.24	3.7940	3.7940	1.0745	25.49	0.22	0.750			
0.3953	25296.50	3.7910	3.7907	1.0938	25.48	0.21	0.750			
0.3985	25503.78	3.7880	3.7882	1.0915	25.48	0.21	0.750			
0.4018	25712.29	3.7850	3.7850	1.1142	25.48	0.21	0.750			
0.4051	25926.07	3.7820	3.7821	1.1356	25.47	0.20	0.750			
0.4086	26147.69	3.7790	3.7787	1.1343	25.47	0.20	0.750			
0.4120	26368.10	3.7760	3.7761	1.1679	25.46	0.19	0.750			
0.4155	26595.18	3.7730	3.7731	1.1897	25.45	0.18	0.750			
0.4192	26826.69	3.7700	3.7700	1.2137	25.43	0.16	0.750			
0.4228	27058.42	3.7670	3.7672	1.2339	25.42	0.15	0.750			
0.4265	27296.36	3.7640	3.7641	1.2698	25.42	0.15	0.750			
0.4305	27549.89	3.7610	3.7610	1.2882	25.41	0.14	0.750			
0.4344	27802.75	3.7580	3.7579	1.3246	25.40	0.13	0.750			
0.4383	28053.67	3.7550	3.7551	1.3375	25.39	0.12	0.750			
0.4424	28315.65	3.7520	3.7521	1.3433	25.38	0.11	0.750			
0.4464	28570.62	3.7490	3.7489	1.3686	25.37	0.10	0.750			
0.4504	28826.97	3.7460	3.7462	1.4120	25.35	0.08	0.750			
0.4547	29099.23	3.7430	3.7425	1.4527	25.34	0.07	0.750			
0.4592	29386.28	3.7400	3.7404	1.4953	25.33	0.06	0.750			
0.4637	29676.37	3.7370	3.7374	1.5255	25.32	0.05	0.750			
0.4685	29982.65	3.7340	3.7341	1.5699	25.31	0.04	0.750			
0.4732	30286.62	3.7310	3.7306	1.5940	25.30	0.03	0.750			
0.4781	30597.19	3.7280	3.7275	1.6168	25.29	0.02	0.750			
0.4831	30916.42	3.7250	3.7248	1.6678	25.28	0.01	0.750			
0.4882	31247.61	3.7220	3.7223	1.7512	25.27	-0.00	0.750			
0.4935	31584.30	3.7190	3.7193	1.7930	25.25	-0.02	0.750			
0.4987	31919.41	3.7160	3.7166	1.8525	25.24	-0.03	0.750			
0.5045	32290.20	3.7130	3.7127	1.9195	25.23	-0.04	0.750			
0.5104	32666.18	3.7100	3.7097	2.0250	25.22	-0.05	0.750			
0.5166	33061.35	3.7070	3.7072	2.0935	25.21	-0.06	0.750			
0.5229	33468.31	3.7040	3.7035	2.1099	25.20	-0.07	0.750			
0.5292	33871.45	3.7010	3.7008	2.1107	25.19	-0.08	0.750			
0.5355	34269.99	3.6980	3.6985	2.1728	25.18	-0.09	0.750			
0.5421	34694.12	3.6950	3.6947	2.2056	25.17	-0.10	0.750			
0.5491	35140.83	3.6920	3.6923	2.3967	25.16	-0.11	0.750			
0.5562	35596.56	3.6890	3.6892	2.3371	25.14	-0.13	0.750			
0.5636	36071.21	3.6860	3.6865	2.3905	25.14	-0.13	0.750			
0.5708	36531.17	3.6830	3.6823	2.3826	25.14	-0.13	0.750			
0.5780	36993.64	3.6800	3.6806	2.4695	25.14	-0.13	0.750			
0.5855	37470.12	3.6770	3.6771	2.4654	25.14	-0.13	0.750			
0.5930	37950.42	3.6740	3.6743	2.3611	25.13	-0.14	0.750			
0.6000	38397.47	3.6710	3.6711	2.2312	25.13	-0.14	0.750			
0.6064	38811.39	3.6680	3.6684	2.1359	25.14	-0.13	0.750			
0.6124	39196.23	3.6650	3.6650	1.9766	25.14	-0.13	0.750			
0.6183	39572.50	3.6620	3.6615	1.8694	25.14	-0.13	0.750			
0.6237	39917.92	3.6590	3.6591	1.7469	25.15	-0.12	0.750			
0.6288	40244.86	3.6560	3.6564	1.6204	25.16	-0.11	0.750			
0.6337	40554.72	3.6530	3.6529	1.4761	25.17	-0.10	0.750			
0.6378	40821.07	3.6500	3.6501	1.3821	25.18	-0.09	0.750			
0.6417	41069.92	3.6470	3.6473	1.2787	25.18	-0.09	0.750			
0.6455	41309.83	3.6440	3.6430	1.2171	25.19	-0.08	0.750			
0.6490	41535.01	3.6410	3.6411	1.1512	25.19	-0.08	0.750			
0.6523	41747.45	3.6380	3.6383	1.0941	25.20	-0.07	0.750			
0.6555	41954.40	3.6350	3.6351	1.0519	25.20	-0.07	0.750			
0.6586	42152.88	3.6320	3.6319	0.9962	25.20	-0.07	0.750			
0.6616	42341.97	3.6290	3.6290	0.9516	25.21	-0.06	0.750			
0.6643	42518.19	3.6260	3.6260	0.9231	25.22	-0.05	0.750			
0.6671	42696.34	3.6230	3.6230	0.8803	25.22	-0.05	0.750			
0.6698	42864.09	3.6200	3.6199	0.8306	25.23	-0.04	0.750			
0.6721	43015.56	3.6170	3.6172	0.7896	25.23	-0.04	0.750			
0.6743	43157.99	3.6140	3.6145	0.7554	25.24	-0.03	0.750			
0.6766	43300.81	3.6110	3.6112	0.7154	25.25	-0.02	0.750			
0.6787	43434.15	3.6080	3.6086	0.6727	25.26	-0.01	0.750			
0.6806	43561.21	3.6050	3.6054	0.6356	25.26	-0.01	0.750			
0.6826	43684.04	3.6020	3.6025	0.5903	25.27	-0.00	0.750			
0.6844	43801.23	3.5990	3.5989	0.5396	25.27	0.00	0.750			
0.6858	43891.95	3.5960	3.5961	0.4720	25.28	0.01	0.750			
0.6872	43977.73	3.5930	3.5931	0.4218	25.28	0.01	0.750			
0.6884	44056.02	3.5900	3.5899	0.3785	25.29	0.02	0.750			
0.6894	44121.51	3.5870	3.5870	0.3206	25.29	0.02	0.750			
0.6903	44178.93	3.5840	3.5839	0.2725	25.29	0.02	0.750			
0.6910	44226.39	3.5810	3.5810	0.2217	25.30	0.03	0.750			
0.6916	44264.65	3.5780	3.5781	0.1703	25.30	0.03	0.750			
0.6921	44292.27	3.5750	3.5755	0.1182	25.30	0.03	0.750			
0.6923	44309.99	3.5720	3.5731	0.0620	25.30	0.03	0.750			
