Ah_balance (normalized)	Ah_balance (mAh)	Voltage - fit (V)	Voltage -  interpolate (V)	dQ/dV (1/V)	Temperature (°C)	Temperature - diff (°C)	Current (C)	R_DC 0ms (mOhm)	R_DC 50ms (mOhm)	R_DC 50 ms PEC (mOhm)
0.0001	8.17	4.1620	4.1614	-0.0745	24.95	0.01	-0.750			
0.0005	30.37	4.1590	4.1584	-0.1369	24.95	0.01	-0.750			
0.0009	60.48	4.1560	4.1558	-0.1768	24.94	0.00	-0.750			
0.0015	98.56	4.1530	4.1529	-0.2153	24.94	0.00	-0.750			
0.0022	143.53	4.1500	4.1499	-0.2540	24.94	0.00	-0.750			
0.0031	196.29	4.1470	4.1470	-0.2911	24.94	-0.00	-0.750			
0.0040	255.84	4.1440	4.1440	-0.3324	24.94	-0.00	-0.750			
0.0050	322.91	4.1410	4.1410	-0.3693	24.93	-0.01	-0.750			
0.0062	397.21	4.1380	4.1380	-0.4064	24.93	-0.01	-0.750			
0.0075	480.91	4.1350	4.1342	-0.4409	24.92	-0.02	-0.750			
0.0089	569.67	4.1320	4.1321	-0.4690	24.92	-0.02	-0.750			
0.0104	663.90	4.1290	4.1290	-0.5004	24.91	-0.03	-0.750			
0.0119	762.61	4.1260	4.1259	-0.5285	24.91	-0.03	-0.750			
0.0136	867.49	4.1230	4.1230	-0.5471	24.90	-0.04	-0.750			
0.0152	975.25	4.1200	4.1202	-0.5652	24.90	-0.04	-0.750			
0.0170	1086.68	4.1170	4.1171	-0.5860	24.90	-0.04	-0.750			
0.0188	1201.73	4.1140	4.1140	-0.6015	24.89	-0.05	-0.750			
0.0206	1316.98	4.1110	4.1110	-0.6198	24.89	-0.05	-0.750			
0.0225	1438.67	4.1080	4.1079	-0.6304	24.88	-0.06	-0.750			
0.0244	1560.62	4.1050	4.1050	-0.6406	24.88	-0.06	-0.750			
0.0264	1687.58	4.1020	4.1019	-0.6508	24.87	-0.07	-0.750			
0.0283	1812.01	4.0990	4.0991	-0.6568	24.87	-0.07	-0.750			
0.0303	1939.09	4.0960	4.0960	-0.6597	24.87	-0.07	-0.750			
0.0322	2062.66	4.0930	4.0929	-0.6858	24.87	-0.07	-0.750			
0.0343	2196.02	4.0900	4.0900	-0.6803	24.86	-0.08	-0.750			
0.0364	2329.89	4.0870	4.0870	-0.6915	24.86	-0.08	-0.750			
0.0385	2463.87	4.0840	4.0837	-0.7019	24.86	-0.08	-0.750			
0.0406	2599.78	4.0810	4.0809	-0.7100	24.86	-0.08	-0.750			
0.0428	2737.73	4.0780	4.0778	-0.7050	24.86	-0.08	-0.750			
0.0449	2872.85	4.0750	4.0750	-0.7092	24.86	-0.08	-0.750			
0.0470	3008.84	4.0720	4.0721	-0.7207	24.85	-0.09	-0.750			
0.0492	3147.41	4.0690	4.0690	-0.7151	24.85	-0.09	-0.750			
0.0513	3282.60	4.0660	4.0658	-0.7185	24.85	-0.09	-0.750			
0.0534	3419.52	4.0630	4.0632	-0.7237	24.85	-0.09	-0.750			
0.0556	3559.47	4.0600	4.0600	-0.7292	24.85	-0.09	-0.750			
0.0578	3702.35	4.0570	4.0570	-0.7408	24.85	-0.09	-0.750			
0.0601	3845.65	4.0540	4.0539	-0.7381	24.85	-0.09	-0.750			
0.0623	3989.26	4.0510	4.0510	-0.7388	24.85	-0.09	-0.750			
0.0646	4133.12	4.0480	4.0482	-0.7401	24.85	-0.09	-0.750			
0.0668	4272.33	4.0450	4.0449	-0.7350	24.85	-0.09	-0.750			
0.0689	4408.04	4.0420	4.0421	-0.7541	24.85	-0.09	-0.750			
0.0712	4558.09	4.0390	4.0389	-0.7498	24.85	-0.09	-0.750			
0.0735	4703.28	4.0360	4.0358	-0.7458	24.85	-0.09	-0.750			
0.0758	4850.76	4.0330	4.0329	-0.7536	24.85	-0.09	-0.750			
0.0780	4994.43	4.0300	4.0302	-0.7521	24.85	-0.09	-0.750			
0.0803	5138.19	4.0270	4.0267	-0.7508	24.85	-0.09	-0.750			
0.0825	5280.81	4.0240	4.0240	-0.7498	24.85	-0.09	-0.750			
0.0847	5421.43	4.0210	4.0210	-0.7584	24.85	-0.09	-0.750			
0.0870	5569.48	4.0180	4.0180	-0.7611	24.85	-0.09	-0.750			
0.0893	5716.40	4.0150	4.0150	-0.7642	24.85	-0.09	-0.750			
0.0916	5862.19	4.0120	4.0119	-0.7596	24.85	-0.09	-0.750			
0.0939	6006.75	4.0090	4.0090	-0.7651	24.85	-0.09	-0.750			
0.0962	6155.12	4.0060	4.0060	-0.7715	24.85	-0.09	-0.750			
0.0985	6303.48	4.0030	4.0030	-0.7718	24.86	-0.08	-0.750			
0.1008	6453.07	4.0000	3.9998	-0.7744	24.86	-0.08	-0.750			
0.1032	6603.53	3.9970	3.9973	-0.7745	24.86	-0.08	-0.750			
0.1054	6748.30	3.9940	3.9940	-0.7805	24.86	-0.08	-0.750			
0.1078	6900.30	3.9910	3.9910	-0.7832	24.86	-0.08	-0.750			
0.1102	7050.97	3.9880	3.9880	-0.7729	24.86	-0.08	-0.750			
0.1125	7199.97	3.9850	3.9849	-0.7775	24.86	-0.08	-0.750			
0.1148	7350.39	3.9820	3.9826	-0.7814	24.86	-0.08	-0.750			
0.1172	7500.04	3.9790	3.9789	-0.7776	24.86	-0.08	-0.750			
0.1195	7647.69	3.9760	3.9759	-0.7822	24.86	-0.08	-0.750			
0.1218	7796.01	3.9730	3.9730	-0.7844	24.87	-0.07	-0.750			
0.1242	7949.84	3.9700	3.9700	-0.7933	24.87	-0.07	-0.750			
0.1266	8102.82	3.9670	3.9670	-0.7939	24.87	-0.07	-0.750			
0.1290	8254.48	3.9640	3.9640	-0.7941	24.87	-0.07	-0.750			
0.1314	8406.46	3.9610	3.9610	-0.8072	24.87	-0.07	-0.750			
0.1338	8563.92	3.9580	3.9579	-0.8036	24.88	-0.06	-0.750			
0.1362	8717.30	3.9550	3.9549	-0.8028	24.88	-0.06	-0.750			
0.1386	8872.69	3.9520	3.9520	-0.8029	24.88	-0.06	-0.750			
0.1411	9028.66	3.9490	3.9488	-0.8029	24.88	-0.06	-0.750			
0.1434	9179.16	3.9460	3.9460	-0.8166	24.89	-0.05	-0.750			
0.1459	9336.47	3.9430	3.9430	-0.8059	24.89	-0.05	-0.750			
0.1483	9491.52	3.9400	3.9399	-0.8003	24.89	-0.05	-0.750			
0.1508	9648.18	3.9370	3.9368	-0.8059	24.90	-0.04	-0.750			
0.1532	9801.75	3.9340	3.9337	-0.8018	24.90	-0.04	-0.750			
0.1555	9954.48	3.9310	3.9309	-0.8020	24.90	-0.04	-0.750			
0.1579	10106.00	3.9280	3.9280	-0.7997	24.90	-0.04	-0.750			
0.1603	10256.03	3.9250	3.9251	-0.7903	24.90	-0.04	-0.750			
0.1627	10415.84	3.9220	3.9219	-0.8103	24.90	-0.04	-0.750			
0.1652	10570.96	3.9190	3.9191	-0.8122	24.90	-0.04	-0.750			
0.1676	10725.61	3.9160	3.9159	-0.8125	24.90	-0.04	-0.750			
0.1700	10882.59	3.9130	3.9130	-0.8220	24.90	-0.04	-0.750			
0.1725	11042.80	3.9100	3.9100	-0.8217	24.91	-0.03	-0.750			
0.1750	11202.25	3.9070	3.9068	-0.8215	24.91	-0.03	-0.750			
0.1775	11359.87	3.9040	3.9045	-0.8231	24.91	-0.03	-0.750			
0.1800	11516.99	3.9010	3.9009	-0.8173	24.91	-0.03	-0.750			
0.1824	11673.64	3.8980	3.8979	-0.8275	24.91	-0.03	-0.750			
0.1849	11833.82	3.8950	3.8950	-0.8174	24.92	-0.02	-0.750			
0.1874	11994.59	3.8920	3.8918	-0.8202	24.92	-0.02	-0.750			
0.1898	12149.73	3.8890	3.8898	-0.8150	24.92	-0.02	-0.750			
0.1923	12304.56	3.8860	3.8858	-0.8116	24.92	-0.02	-0.750			
0.1947	12457.78	3.8830	3.8829	-0.8084	24.92	-0.02	-0.750			
0.1970	12611.17	3.8800	3.8799	-0.8002	24.92	-0.02	-0.750			
0.1995	12768.90	3.8770	3.8771	-0.8111	24.92	-0.02	-0.750			
0.2019	12924.44	3.8740	3.8739	-0.8083	24.92	-0.02	-0.750			
0.2044	13079.48	3.8710	3.8709	-0.8031	24.92	-0.02	-0.750			
0.2067	13231.60	3.8680	3.8679	-0.8011	24.93	-0.01	-0.750			
0.2091	13383.06	3.8650	3.8651	-0.7967	24.93	-0.01	-0.750			
0.2115	13537.40	3.8620	3.8620	-0.7946	24.93	-0.01	-0.750			
0.2139	13692.18	3.8590	3.8589	-0.7974	24.94	-0.00	-0.750			
0.2163	13843.34	3.8560	3.8560	-0.7908	24.94	0.00	-0.750			
0.2186	13992.18	3.8530	3.8530	-0.7968	24.94	0.00	-0.750			
0.2211	14147.96	3.8500	3.8500	-0.7910	24.94	0.00	-0.750			
0.2234	14298.50	3.8470	3.8470	-0.7889	24.95	0.01	-0.750			
0.2258	14452.19	3.8440	3.8438	-0.7882	24.95	0.01	-0.750			
0.2282	14604.72	3.8410	3.8409	-0.7819	24.95	0.01	-0.750			
0.2305	14753.14	3.8380	3.8379	-0.7719	24.95	0.01	-0.750			
0.2328	14900.08	3.8350	3.8351	-0.7730	24.95	0.01	-0.750			
0.2351	15045.91	3.8320	3.8320	-0.7629	24.96	0.02	-0.750			
0.2374	15195.57	3.8290	3.8288	-0.7700	24.96	0.02	-0.750			
0.2397	15341.43	3.8260	3.8264	-0.7611	24.96	0.02	-0.750			
0.2420	15488.32	3.8230	3.8229	-0.7634	24.96	0.02	-0.750			
0.2443	15633.06	3.8200	3.8200	-0.7663	24.96	0.02	-0.750			
0.2466	15780.96	3.8170	3.8168	-0.7631	24.96	0.02	-0.750			
0.2489	15926.96	3.8140	3.8140	-0.7652	24.96	0.02	-0.750			
0.2512	16074.39	3.8110	3.8110	-0.7647	24.96	0.02	-0.750			
0.2535	16221.22	3.8080	3.8080	-0.7665	24.96	0.02	-0.750			
0.2557	16365.07	3.8050	3.8050	-0.7808	24.96	0.02	-0.750			
0.2581	16515.48	3.8020	3.8021	-0.7702	24.96	0.02	-0.750			
0.2604	16664.80	3.7990	3.7988	-0.7644	24.97	0.03	-0.750			
0.2627	16813.25	3.7960	3.7958	-0.7650	24.97	0.03	-0.750			
0.2650	16959.51	3.7930	3.7939	-0.7643	24.97	0.03	-0.750			
0.2673	17105.53	3.7900	3.7898	-0.7595	24.97	0.03	-0.750			
0.2695	17248.66	3.7870	3.7870	-0.7601	24.97	0.03	-0.750			
0.2717	17391.62	3.7840	3.7842	-0.7594	24.98	0.04	-0.750			
0.2741	17544.16	3.7810	3.7809	-0.7752	24.98	0.04	-0.750			
0.2764	17691.87	3.7780	3.7776	-0.7765	24.98	0.04	-0.750			
0.2788	17840.50	3.7750	3.7750	-0.7768	24.98	0.04	-0.750			
0.2811	17989.09	3.7720	3.7720	-0.7839	24.98	0.04	-0.750			
0.2835	18141.14	3.7690	3.7689	-0.7886	24.98	0.04	-0.750			
0.2858	18289.24	3.7660	3.7661	-0.7871	24.98	0.04	-0.750			
0.2882	18443.74	3.7630	3.7630	-0.8021	24.98	0.04	-0.750			
0.2906	18598.75	3.7600	3.7601	-0.8111	24.98	0.04	-0.750			
0.2930	18751.89	3.7570	3.7571	-0.8308	24.98	0.04	-0.750			
0.2956	18918.51	3.7540	3.7539	-0.8342	24.98	0.04	-0.750			
0.2981	19080.46	3.7510	3.7510	-0.8374	24.97	0.03	-0.750			
0.3007	19242.79	3.7480	3.7478	-0.8407	24.97	0.03	-0.750			
0.3032	19402.69	3.7450	3.7448	-0.8430	24.97	0.03	-0.750			
0.3057	19563.15	3.7420	3.7419	-0.8483	24.97	0.03	-0.750			
0.3082	19722.84	3.7390	3.7389	-0.8500	24.97	0.03	-0.750			
0.3107	19883.61	3.7360	3.7361	-0.8553	24.96	0.02	-0.750			
0.3134	20057.06	3.7330	3.7328	-0.8790	24.96	0.02	-0.750			
0.3160	20225.65	3.7300	3.7300	-0.8868	24.96	0.02	-0.750			
0.3187	20396.91	3.7270	3.7270	-0.9046	24.95	0.01	-0.750			
0.3214	20570.85	3.7240	3.7238	-0.9113	24.95	0.01	-0.750			
0.3242	20747.43	3.7210	3.7210	-0.9156	24.95	0.01	-0.750			
0.3270	20925.45	3.7180	3.7183	-0.9303	24.94	0.00	-0.750			
0.3298	21104.74	3.7150	3.7150	-0.9554	24.94	-0.00	-0.750			
0.3327	21292.12	3.7120	3.7117	-0.9658	24.93	-0.01	-0.750			
0.3356	21476.85	3.7090	3.7089	-0.9805	24.93	-0.01	-0.750			
0.3386	21669.33	3.7060	3.7058	-0.9857	24.92	-0.02	-0.750			
0.3417	21866.11	3.7030	3.7027	-0.9989	24.92	-0.02	-0.750			
0.3446	22056.49	3.7000	3.6997	-1.0049	24.91	-0.03	-0.750			
0.3476	22245.47	3.6970	3.6969	-1.0025	24.91	-0.03	-0.750	0.371	0.528	
0.3504	22425.58	3.6940	3.6940	-1.0387	24.90	-0.04	-0.750			
0.3536	22630.03	3.6910	3.6910	-1.0995	24.90	-0.04	-0.750			
0.3570	22849.70	3.6880	3.6878	-1.1185	24.89	-0.05	-0.750			
0.3606	23080.82	3.6850	3.6844	-1.1693	24.89	-0.05	-0.750			
0.3643	23313.25	3.6820	3.6828	-1.2020	24.88	-0.06	-0.750			
0.3680	23551.97	3.6790	3.6789	-1.1938	24.88	-0.06	-0.750			
0.3716	23781.15	3.6760	3.6757	-1.1854	24.87	-0.07	-0.750			
0.3750	23997.77	3.6730	3.6729	-1.1784	24.86	-0.08	-0.750			
0.3785	24222.58	3.6700	3.6699	-1.2035	24.86	-0.08	-0.750			
0.3821	24455.41	3.6670	3.6668	-1.2086	24.85	-0.09	-0.750			
0.3857	24687.08	3.6640	3.6640	-1.2134	24.85	-0.09	-0.750			
0.3894	24920.04	3.6610	3.6612	-1.2260	24.84	-0.10	-0.750			
0.3932	25164.35	3.6580	3.6579	-1.2583	24.83	-0.11	-0.750			
0.3969	25400.89	3.6550	3.6549	-1.2638	24.83	-0.11	-0.750			
0.4007	25644.11	3.6520	3.6519	-1.2950	24.82	-0.12	-0.750			
0.4046	25895.51	3.6490	3.6489	-1.3140	24.82	-0.12	-0.750			
0.4087	26158.07	3.6460	3.6459	-1.3411	24.81	-0.13	-0.750			
0.4127	26413.98	3.6430	3.6430	-1.3697	24.80	-0.14	-0.750			
0.4169	26679.56	3.6400	3.6398	-1.3839	24.80	-0.14	-0.750			
0.4211	26949.29	3.6370	3.6369	-1.4001	24.79	-0.15	-0.750			
0.4253	27218.09	3.6340	3.6339	-1.4436	24.78	-0.16	-0.750			
0.4296	27496.03	3.6310	3.6310	-1.4711	24.78	-0.16	-0.750			
0.4343	27794.61	3.6280	3.6277	-1.5105	24.77	-0.17	-0.750			
0.4388	28086.40	3.6250	3.6252	-1.5352	24.76	-0.18	-0.750			
0.4435	28381.89	3.6220	3.6220	-1.5589	24.75	-0.19	-0.750			
0.4482	28687.01	3.6190	3.6187	-1.6101	24.75	-0.19	-0.750			
0.4531	28996.66	3.6160	3.6161	-1.6251	24.74	-0.20	-0.750			
0.4579	29307.21	3.6130	3.6134	-1.6461	24.73	-0.21	-0.750			
0.4630	29630.26	3.6100	3.6102	-1.6676	24.72	-0.22	-0.750			
0.4681	29958.73	3.6070	3.6067	-1.7022	24.71	-0.23	-0.750			
0.4733	30288.58	3.6040	3.6036	-1.7404	24.71	-0.23	-0.750			
0.4786	30628.59	3.6010	3.6009	-1.7740	24.70	-0.24	-0.750			
0.4839	30967.85	3.5980	3.5981	-1.8208	24.69	-0.25	-0.750			
0.4895	31327.59	3.5950	3.5953	-1.8156	24.68	-0.26	-0.750			
0.4949	31674.61	3.5920	3.5923	-1.8718	24.68	-0.26	-0.750			
0.5005	32033.40	3.5890	3.5894	-1.8701	24.67	-0.27	-0.750			
0.5062	32399.93	3.5860	3.5859	-1.8843	24.67	-0.27	-0.750			
0.5120	32769.33	3.5830	3.5831	-1.9346	24.66	-0.28	-0.750			
0.5178	33136.93	3.5800	3.5798	-1.9960	24.66	-0.28	-0.750			
0.5238	33524.74	3.5770	3.5767	-2.0093	24.65	-0.29	-0.750			
0.5299	33915.92	3.5740	3.5735	-2.0088	24.65	-0.29	-0.750			
0.5362	34318.32	3.5710	3.5714	-2.0317	24.64	-0.30	-0.750			
0.5422	34702.22	3.5680	3.5681	-2.0454	24.64	-0.30	-0.750			
0.5484	35100.41	3.5650	3.5647	-2.0462	24.64	-0.30	-0.750			
0.5544	35483.22	3.5620	3.5617	-2.0322	24.64	-0.30	-0.750			
0.5606	35877.18	3.5590	3.5592	-2.0597	24.64	-0.30	-0.750			
0.5670	36284.80	3.5560	3.5558	-2.0743	24.64	-0.30	-0.750			
0.5732	36687.35	3.5530	3.5526	-2.0362	24.65	-0.29	-0.750			
0.5790	37056.34	3.5500	3.5501	-2.0032	24.65	-0.29	-0.750			
0.5851	37448.71	3.5470	3.5471	-1.9740	24.66	-0.28	-0.750			
0.5910	37822.05	3.5440	3.5440	-1.9279	24.66	-0.28	-0.750			
0.5968	38196.42	3.5410	3.5413	-1.9312	24.67	-0.27	-0.750			
0.6026	38566.41	3.5380	3.5384	-1.9443	24.68	-0.26	-0.750			
0.6085	38943.04	3.5350	3.5348	-1.9331	24.69	-0.25	-0.750			
0.6140	39297.70	3.5320	3.5323	-1.8709	24.70	-0.24	-0.750			
0.6197	39661.08	3.5290	3.5293	-1.8383	24.71	-0.23	-0.750			
0.6252	40015.62	3.5260	3.5263	-1.8271	24.72	-0.22	-0.750			
0.6307	40366.77	3.5230	3.5227	-1.7873	24.73	-0.21	-0.750			
0.6360	40703.28	3.5200	3.5197	-1.7698	24.74	-0.20	-0.750			
0.6413	41044.71	3.5170	3.5168	-1.7223	24.75	-0.19	-0.750			
0.6464	41368.60	3.5140	3.5140	-1.6796	24.77	-0.17	-0.750			
0.6514	41687.28	3.5110	3.5112	-1.6226	24.79	-0.15	-0.750			
0.6562	41995.35	3.5080	3.5079	-1.5597	24.80	-0.14	-0.750			
0.6608	42291.15	3.5050	3.5049	-1.5137	24.82	-0.12	-0.750			
0.6654	42583.05	3.5020	3.5021	-1.4913	24.83	-0.11	-0.750			
0.6698	42864.01	3.4990	3.4988	-1.4449	24.85	-0.09	-0.750			
0.6740	43135.56	3.4960	3.4958	-1.3950	24.87	-0.07	-0.750			
0.6782	43401.74	3.4930	3.4933	-1.3519	24.88	-0.06	-0.750			
0.6822	43663.79	3.4900	3.4899	-1.3169	24.90	-0.04	-0.750			
0.6861	43910.44	3.4870	3.4869	-1.2560	24.91	-0.03	-0.750			
0.6896	44136.71	3.4840	3.4841	-1.2428	24.92	-0.02	-0.750			
0.6933	44372.42	3.4810	3.4810	-1.1507	24.93	-0.01	-0.750			
