Ah_balance (normalized)	Ah_balance (mAh)	Voltage - fit (V)	Voltage -  interpolate (V)	dQ/dV (1/V)	Temperature (°C)	Temperature - diff (°C)	Current (C)	R_DC 0ms (mOhm)	R_DC 50ms (mOhm)	R_DC 50 ms PEC (mOhm)
0.0474	3035.20	4.1980	4.1980	0.7560	25.85	0.58	0.750			
0.0497	3181.44	4.1950	4.1950	0.7643	25.85	0.58	0.750			
0.0520	3328.19	4.1920	4.1920	0.7627	25.85	0.58	0.750			
0.0543	3474.60	4.1890	4.1890	0.7572	25.85	0.58	0.750			
0.0565	3618.87	4.1860	4.1860	0.7575	25.85	0.58	0.750			
0.0588	3762.84	4.1830	4.1831	0.7563	25.85	0.58	0.750			
0.0610	3906.84	4.1800	4.1796	0.7606	25.85	0.58	0.750			
0.0633	4053.94	4.1770	4.1770	0.7618	25.85	0.58	0.750			
0.0657	4201.77	4.1740	4.1740	0.7629	25.84	0.57	0.750			
0.0680	4349.81	4.1710	4.1710	0.7661	25.84	0.57	0.750			
0.0703	4497.33	4.1680	4.1680	0.7689	25.84	0.57	0.750			
0.0725	4642.61	4.1650	4.1650	0.7629	25.83	0.56	0.750			
0.0748	4789.21	4.1620	4.1620	0.7643	25.83	0.56	0.750			
0.0771	4934.75	4.1590	4.1591	0.7641	25.83	0.56	0.750			
0.0794	5082.37	4.1560	4.1560	0.7676	25.83	0.56	0.750			
0.0817	5229.73	4.1530	4.1530	0.7700	25.84	0.57	0.750			
0.0840	5377.06	4.1500	4.1500	0.7708	25.84	0.57	0.750			
0.0863	5525.55	4.1470	4.1468	0.7724	25.84	0.57	0.750			
0.0887	5675.66	4.1440	4.1441	0.7752	25.84	0.57	0.750			
0.0910	5825.55	4.1410	4.1410	0.7690	25.84	0.57	0.750			
0.0933	5971.97	4.1380	4.1380	0.7740	25.85	0.58	0.750			
0.0956	6118.98	4.1350	4.1351	0.7751	25.85	0.58	0.750			
0.0979	6267.14	4.1320	4.1318	0.7775	25.85	0.58	0.750			
0.1003	6416.92	4.1290	4.1291	0.7830	25.85	0.58	0.750			
0.1027	6570.99	4.1260	4.1261	0.7812	25.85	0.58	0.750			
0.1050	6719.93	4.1230	4.1230	0.7841	25.85	0.58	0.750			
0.1074	6871.74	4.1200	4.1201	0.7886	25.85	0.58	0.750			
0.1097	7020.76	4.1170	4.1170	0.7846	25.85	0.58	0.750			
0.1121	7171.27	4.1140	4.1139	0.7855	25.85	0.58	0.750			
0.1144	7323.13	4.1110	4.1111	0.7889	25.85	0.58	0.750			
0.1168	7474.68	4.1080	4.1081	0.7929	25.85	0.58	0.750			
0.1192	7628.18	4.1050	4.1050	0.7964	25.85	0.58	0.750			
0.1216	7779.68	4.1020	4.1020	0.7948	25.85	0.58	0.750			
0.1240	7932.99	4.0990	4.0990	0.7972	25.85	0.58	0.750			
0.1264	8087.61	4.0960	4.0960	0.7983	25.85	0.58	0.750			
0.1288	8241.88	4.0930	4.0929	0.7957	25.85	0.58	0.750			
0.1311	8391.48	4.0900	4.0901	0.7985	25.86	0.59	0.750			
0.1335	8543.58	4.0870	4.0871	0.7994	25.86	0.59	0.750			
0.1359	8697.85	4.0840	4.0837	0.8047	25.86	0.59	0.750			
0.1383	8852.54	4.0810	4.0811	0.8094	25.86	0.59	0.750			
0.1408	9010.52	4.0780	4.0781	0.8095	25.86	0.59	0.750			
0.1433	9168.56	4.0750	4.0750	0.8183	25.87	0.60	0.750			
0.1457	9323.75	4.0720	4.0720	0.8138	25.87	0.60	0.750			
0.1481	9480.23	4.0690	4.0689	0.8156	25.87	0.60	0.750			
0.1506	9636.69	4.0660	4.0661	0.8188	25.87	0.60	0.750			
0.1530	9794.71	4.0630	4.0631	0.8187	25.87	0.60	0.750			
0.1555	9952.97	4.0600	4.0600	0.8232	25.87	0.60	0.750			
0.1580	10111.97	4.0570	4.0569	0.8243	25.87	0.60	0.750			
0.1604	10267.18	4.0540	4.0540	0.8235	25.87	0.60	0.750			
0.1629	10426.45	4.0510	4.0510	0.8270	25.87	0.60	0.750			
0.1654	10587.36	4.0480	4.0480	0.8261	25.87	0.60	0.750			
0.1679	10745.19	4.0450	4.0450	0.8325	25.87	0.60	0.750			
0.1704	10905.17	4.0420	4.0421	0.8370	25.87	0.60	0.750			
0.1729	11065.64	4.0390	4.0389	0.8405	25.87	0.60	0.750			
0.1754	11228.17	4.0360	4.0360	0.8432	25.87	0.60	0.750			
0.1780	11390.05	4.0330	4.0330	0.8428	25.87	0.60	0.750			
0.1805	11552.53	4.0300	4.0301	0.8489	25.87	0.60	0.750			
0.1830	11715.03	4.0270	4.0270	0.8505	25.87	0.60	0.750			
0.1856	11879.57	4.0240	4.0239	0.8545	25.87	0.60	0.750			
0.1882	12043.58	4.0210	4.0211	0.8574	25.87	0.60	0.750			
0.1908	12209.35	4.0180	4.0180	0.8548	25.87	0.60	0.750			
0.1934	12376.97	4.0150	4.0150	0.8564	25.88	0.61	0.750			
0.1959	12539.41	4.0120	4.0120	0.8495	25.88	0.61	0.750			
0.1985	12700.95	4.0090	4.0088	0.8499	25.88	0.61	0.750			
0.2010	12862.63	4.0060	4.0062	0.8512	25.88	0.61	0.750			
0.2035	13026.37	4.0030	4.0029	0.8537	25.88	0.61	0.750			
0.2061	13189.22	4.0000	4.0001	0.8617	25.89	0.62	0.750			
0.2087	13355.63	3.9970	3.9970	0.8645	25.89	0.62	0.750			
0.2113	13522.89	3.9940	3.9934	0.8746	25.89	0.62	0.750			
0.2140	13692.93	3.9910	3.9911	0.8767	25.89	0.62	0.750			
0.2166	13861.07	3.9880	3.9881	0.8856	25.89	0.62	0.750			
0.2193	14033.94	3.9850	3.9850	0.8868	25.89	0.62	0.750			
0.2220	14204.94	3.9820	3.9819	0.8908	25.89	0.62	0.750			
0.2246	14373.22	3.9790	3.9791	0.8885	25.89	0.62	0.750			
0.2273	14545.62	3.9760	3.9760	0.8888	25.90	0.63	0.750			
0.2299	14715.89	3.9730	3.9730	0.8909	25.90	0.63	0.750			
0.2326	14887.10	3.9700	3.9700	0.8948	25.90	0.63	0.750			
0.2353	15057.63	3.9670	3.9669	0.8930	25.91	0.64	0.750			
0.2380	15231.69	3.9640	3.9640	0.8959	25.91	0.64	0.750			
0.2406	15401.58	3.9610	3.9610	0.8943	25.91	0.64	0.750			
0.2433	15573.67	3.9580	3.9581	0.9000	25.91	0.64	0.750			
0.2460	15747.00	3.9550	3.9550	0.9019	25.91	0.64	0.750			
0.2487	15919.38	3.9520	3.9514	0.9002	25.91	0.64	0.750			
0.2515	16096.40	3.9490	3.9492	0.8923	25.91	0.64	0.750			
0.2542	16266.06	3.9460	3.9460	0.8984	25.91	0.64	0.750			
0.2568	16437.66	3.9430	3.9431	0.9059	25.91	0.64	0.750			
0.2595	16610.50	3.9400	3.9401	0.9108	25.91	0.64	0.750			
0.2622	16783.02	3.9370	3.9369	0.9139	25.91	0.64	0.750			
0.2650	16961.75	3.9340	3.9340	0.9168	25.91	0.64	0.750			
0.2678	17140.10	3.9310	3.9311	0.9223	25.91	0.64	0.750			
0.2706	17317.41	3.9280	3.9281	0.9260	25.91	0.64	0.750			
0.2733	17493.77	3.9250	3.9249	0.9185	25.91	0.64	0.750			
0.2761	17672.73	3.9220	3.9219	0.9099	25.91	0.64	0.750			
0.2789	17847.24	3.9190	3.9190	0.9112	25.91	0.64	0.750			
0.2816	18021.83	3.9160	3.9161	0.9109	25.91	0.64	0.750			
0.2843	18196.11	3.9130	3.9131	0.9131	25.91	0.64	0.750			
0.2870	18369.78	3.9100	3.9101	0.9086	25.91	0.64	0.750			
0.2898	18545.26	3.9070	3.9070	0.9004	25.91	0.64	0.750			
0.2925	18718.15	3.9040	3.9041	0.9079	25.91	0.64	0.750			
0.2952	18892.73	3.9010	3.9011	0.9150	25.90	0.63	0.750			
0.2979	19067.15	3.8980	3.8979	0.9128	25.90	0.63	0.750			
0.3007	19245.31	3.8950	3.8950	0.9119	25.90	0.63	0.750			
0.3034	19418.94	3.8920	3.8921	0.9167	25.89	0.62	0.750			
0.3062	19596.11	3.8890	3.8890	0.9256	25.88	0.61	0.750			
0.3090	19775.60	3.8860	3.8860	0.9355	25.88	0.61	0.750			
0.3118	19953.00	3.8830	3.8830	0.9331	25.87	0.60	0.750			
0.3147	20138.30	3.8800	3.8800	0.9127	25.87	0.60	0.750			
0.3174	20314.72	3.8770	3.8771	0.9258	25.87	0.60	0.750			
0.3201	20488.72	3.8740	3.8741	0.9378	25.86	0.59	0.750			
0.3229	20666.76	3.8710	3.8713	0.9350	25.86	0.59	0.750			
0.3258	20848.02	3.8680	3.8682	0.9360	25.85	0.58	0.750			
0.3286	21028.14	3.8650	3.8653	0.9455	25.84	0.57	0.750			
0.3315	21213.58	3.8620	3.8621	0.9544	25.84	0.57	0.750			
0.3344	21399.51	3.8590	3.8590	0.9560	25.83	0.56	0.750			
0.3372	21580.19	3.8560	3.8560	0.9464	25.82	0.55	0.750			
0.3400	21762.18	3.8530	3.8531	0.9440	25.81	0.54	0.750			
0.3429	21946.13	3.8500	3.8501	0.9518	25.80	0.53	0.750			
0.3459	22137.67	3.8470	3.8468	0.9264	25.80	0.53	0.750			
0.3487	22315.58	3.8440	3.8438	0.8988	25.79	0.52	0.750			
0.3513	22485.68	3.8410	3.8411	0.9427	25.78	0.51	0.750			
0.3541	22663.65	3.8380	3.8383	0.9414	25.77	0.50	0.750			
0.3569	22840.97	3.8350	3.8350	0.9564	25.76	0.49	0.750	0.288	0.407	
0.3598	23027.53	3.8320	3.8324	0.9741	25.75	0.48	0.750			
0.3628	23217.16	3.8290	3.8294	0.9757	25.75	0.48	0.750			
0.3658	23408.17	3.8260	3.8262	0.9938	25.74	0.47	0.750			
0.3688	23601.94	3.8230	3.8231	0.9867	25.73	0.46	0.750			
0.3718	23794.84	3.8200	3.8201	0.9962	25.72	0.45	0.750			
0.3748	23987.13	3.8170	3.8171	0.9850	25.71	0.44	0.750			
0.3777	24175.99	3.8140	3.8141	0.9988	25.70	0.43	0.750			
0.3807	24367.56	3.8110	3.8111	1.0130	25.69	0.42	0.750			
0.3838	24562.62	3.8080	3.8080	1.0246	25.68	0.41	0.750			
0.3869	24763.32	3.8050	3.8050	1.0212	25.67	0.40	0.750			
0.3900	24958.24	3.8020	3.8022	1.0400	25.66	0.39	0.750			
0.3931	25158.87	3.7990	3.7991	1.0573	25.65	0.38	0.750			
0.3963	25363.12	3.7960	3.7961	1.0738	25.64	0.37	0.750			
0.3995	25569.48	3.7930	3.7927	1.0746	25.63	0.36	0.750			
0.4028	25777.06	3.7900	3.7902	1.1013	25.62	0.35	0.750			
0.4061	25992.85	3.7870	3.7871	1.1249	25.61	0.34	0.750			
0.4096	26212.88	3.7840	3.7840	1.1418	25.60	0.33	0.750			
0.4130	26432.19	3.7810	3.7812	1.1408	25.58	0.31	0.750			
0.4164	26650.00	3.7780	3.7781	1.1659	25.57	0.30	0.750			
0.4199	26875.21	3.7750	3.7751	1.1935	25.56	0.29	0.750			
0.4237	27113.84	3.7720	3.7716	1.1919	25.54	0.27	0.750			
0.4272	27340.56	3.7690	3.7690	1.2192	25.53	0.26	0.750			
0.4308	27572.90	3.7660	3.7663	1.2520	25.52	0.25	0.750			
0.4346	27816.51	3.7630	3.7633	1.2858	25.51	0.24	0.750			
0.4385	28063.78	3.7600	3.7602	1.3150	25.49	0.22	0.750			
0.4425	28320.43	3.7570	3.7570	1.3481	25.48	0.21	0.750			
0.4466	28584.56	3.7540	3.7541	1.3821	25.47	0.20	0.750			
0.4510	28863.59	3.7510	3.7510	1.3854	25.45	0.18	0.750			
0.4551	29126.68	3.7480	3.7480	1.4202	25.43	0.16	0.750			
0.4594	29404.19	3.7450	3.7450	1.4250	25.42	0.15	0.750			
0.4637	29677.77	3.7420	3.7422	1.4531	25.40	0.13	0.750			
0.4680	29954.56	3.7390	3.7391	1.4962	25.39	0.12	0.750			
0.4725	30241.86	3.7360	3.7361	1.5465	25.37	0.10	0.750			
0.4772	30541.45	3.7330	3.7331	1.5997	25.36	0.09	0.750			
0.4822	30859.51	3.7300	3.7299	1.6427	25.34	0.07	0.750			
0.4871	31174.23	3.7270	3.7268	1.6990	25.32	0.05	0.750			
0.4924	31515.56	3.7240	3.7237	1.7354	25.30	0.03	0.750			
0.4977	31854.89	3.7210	3.7211	1.8039	25.28	0.01	0.750			
0.5032	32203.88	3.7180	3.7181	1.8473	25.27	-0.00	0.750			
0.5087	32555.53	3.7150	3.7153	1.9076	25.26	-0.01	0.750			
0.5145	32928.55	3.7120	3.7124	1.9467	25.24	-0.03	0.750			
0.5206	33319.75	3.7090	3.7094	2.0126	25.22	-0.05	0.750			
0.5266	33703.87	3.7060	3.7061	2.0538	25.20	-0.07	0.750			
0.5328	34100.03	3.7030	3.7031	2.1374	25.19	-0.08	0.750			
0.5396	34532.16	3.7000	3.7001	2.1657	25.17	-0.10	0.750			
0.5459	34934.53	3.6970	3.6975	2.2168	25.15	-0.12	0.750			
0.5526	35368.21	3.6940	3.6937	2.2585	25.14	-0.13	0.750			
0.5594	35800.81	3.6910	3.6908	2.3516	25.13	-0.14	0.750			
0.5666	36263.54	3.6880	3.6878	2.4994	25.13	-0.14	0.750			
0.5741	36744.14	3.6850	3.6849	2.5158	25.12	-0.15	0.750			
0.5818	37234.97	3.6820	3.6820	2.5477	25.11	-0.16	0.750			
0.5897	37738.56	3.6790	3.6786	2.5580	25.09	-0.18	0.750			
0.5972	38220.77	3.6760	3.6759	2.6804	25.08	-0.19	0.750			
0.6054	38747.27	3.6730	3.6725	2.7352	25.08	-0.19	0.750			
0.6139	39287.17	3.6700	3.6698	2.6313	25.08	-0.19	0.750			
0.6216	39785.21	3.6670	3.6675	2.5812	25.08	-0.19	0.750			
0.6289	40249.10	3.6640	3.6638	2.3513	25.09	-0.18	0.750			
0.6358	40690.76	3.6610	3.6611	2.1654	25.10	-0.17	0.750			
0.6421	41091.25	3.6580	3.6582	2.0733	25.10	-0.17	0.750			
0.6477	41452.31	3.6550	3.6552	1.8252	25.11	-0.16	0.750			
0.6531	41798.15	3.6520	3.6519	1.7241	25.12	-0.15	0.750			
0.6579	42107.88	3.6490	3.6494	1.5760	25.12	-0.15	0.750			
0.6624	42393.30	3.6460	3.6463	1.4226	25.13	-0.14	0.750			
0.6666	42662.59	3.6430	3.6432	1.3292	25.15	-0.12	0.750			
0.6702	42893.57	3.6400	3.6403	1.2070	25.16	-0.11	0.750			
0.6737	43118.57	3.6370	3.6364	1.1430	25.17	-0.10	0.750			
0.6769	43324.62	3.6340	3.6341	1.0533	25.18	-0.09	0.750			
0.6800	43517.55	3.6310	3.6311	1.0122	25.18	-0.09	0.750			
0.6829	43707.65	3.6280	3.6281	0.9841	25.18	-0.09	0.750			
0.6858	43892.54	3.6250	3.6247	0.9462	25.19	-0.08	0.750			
0.6887	44076.20	3.6220	3.6219	0.9117	25.20	-0.07	0.750			
0.6914	44248.30	3.6190	3.6191	0.8798	25.20	-0.07	0.750			
0.6940	44418.69	3.6160	3.6161	0.8375	25.21	-0.06	0.750			
0.6965	44574.59	3.6130	3.6131	0.7946	25.21	-0.06	0.750			
0.6988	44723.12	3.6100	3.6089	0.7451	25.22	-0.05	0.750			
0.7010	44861.23	3.6070	3.6072	0.6901	25.23	-0.04	0.750			
0.7030	44993.13	3.6040	3.6042	0.6268	25.24	-0.03	0.750			
0.7049	45110.56	3.6010	3.6010	0.5574	25.24	-0.03	0.750			
0.7064	45210.05	3.5980	3.5982	0.4936	25.25	-0.02	0.750			
0.7078	45297.04	3.5950	3.5952	0.4348	25.26	-0.01	0.750			
0.7089	45368.55	3.5920	3.5922	0.3794	25.26	-0.01	0.750			
0.7100	45437.65	3.5890	3.5893	0.3287	25.27	-0.00	0.750			
0.7109	45495.79	3.5860	3.5865	0.2840	25.27	-0.00	0.750			
0.7117	45547.59	3.5830	3.5835	0.2425	25.27	0.00	0.750			
0.7125	45597.63	3.5800	3.5801	0.1880	25.28	0.01	0.750			
0.7129	45624.49	3.5770	3.5775	0.1288	25.28	0.01	0.750			
0.7132	45644.34	3.5740	3.5745	0.0524	25.28	0.01	0.750			
