Ah_balance (normalized)	Ah_balance (mAh)	Voltage - fit (V)	Voltage -  interpolate (V)	dQ/dV (1/V)	Temperature (°C)	Temperature - diff (°C)	Current (C)	R_DC 0ms (mOhm)	R_DC 50ms (mOhm)	R_DC 50 ms PEC (mOhm)
0.0477	3053.78	4.1970	4.1970	0.7530	25.24	0.46	0.750			
0.0500	3199.13	4.1940	4.1940	0.7576	25.24	0.46	0.750			
0.0523	3344.68	4.1910	4.1909	0.7596	25.25	0.47	0.750			
0.0545	3490.53	4.1880	4.1880	0.7629	25.25	0.47	0.750			
0.0568	3637.25	4.1850	4.1849	0.7631	25.25	0.47	0.750			
0.0591	3785.37	4.1820	4.1819	0.7653	25.25	0.47	0.750			
0.0615	3934.39	4.1790	4.1790	0.7564	25.25	0.47	0.750			
0.0637	4077.20	4.1760	4.1761	0.7619	25.26	0.48	0.750			
0.0660	4221.85	4.1730	4.1731	0.7672	25.26	0.48	0.750			
0.0683	4369.42	4.1700	4.1699	0.7710	25.26	0.48	0.750			
0.0706	4518.77	4.1670	4.1672	0.7756	25.26	0.48	0.750			
0.0730	4670.27	4.1640	4.1641	0.7811	25.26	0.48	0.750			
0.0753	4820.91	4.1610	4.1611	0.7759	25.26	0.48	0.750			
0.0777	4970.34	4.1580	4.1581	0.7788	25.27	0.49	0.750			
0.0799	5115.12	4.1550	4.1551	0.7728	25.27	0.49	0.750			
0.0823	5264.11	4.1520	4.1521	0.7757	25.27	0.49	0.750			
0.0846	5413.78	4.1490	4.1491	0.7789	25.27	0.49	0.750			
0.0869	5564.09	4.1460	4.1461	0.7802	25.27	0.49	0.750			
0.0893	5716.96	4.1430	4.1430	0.7871	25.27	0.49	0.750			
0.0917	5865.89	4.1400	4.1400	0.7800	25.27	0.49	0.750			
0.0940	6016.23	4.1370	4.1369	0.7848	25.27	0.49	0.750			
0.0963	6166.19	4.1340	4.1340	0.7842	25.27	0.49	0.750			
0.0988	6320.27	4.1310	4.1310	0.7789	25.27	0.49	0.750			
0.1011	6469.91	4.1280	4.1280	0.7834	25.28	0.50	0.750			
0.1034	6618.21	4.1250	4.1251	0.7870	25.28	0.50	0.750			
0.1057	6767.58	4.1220	4.1221	0.7903	25.28	0.50	0.750			
0.1081	6920.36	4.1190	4.1191	0.7951	25.28	0.50	0.750			
0.1106	7077.07	4.1160	4.1160	0.7884	25.28	0.50	0.750			
0.1129	7227.73	4.1130	4.1131	0.7961	25.28	0.50	0.750			
0.1153	7381.51	4.1100	4.1101	0.8049	25.28	0.50	0.750			
0.1177	7533.39	4.1070	4.1071	0.8014	25.28	0.50	0.750			
0.1201	7687.01	4.1040	4.1035	0.8048	25.28	0.50	0.750			
0.1225	7842.31	4.1010	4.1011	0.8074	25.28	0.50	0.750			
0.1250	7999.28	4.0980	4.0981	0.8132	25.28	0.50	0.750			
0.1274	8156.79	4.0950	4.0950	0.8161	25.28	0.50	0.750			
0.1299	8313.26	4.0920	4.0920	0.8096	25.28	0.50	0.750			
0.1323	8467.83	4.0890	4.0890	0.8107	25.28	0.50	0.750			
0.1348	8624.33	4.0860	4.0861	0.8188	25.28	0.50	0.750			
0.1372	8782.74	4.0830	4.0830	0.8141	25.28	0.50	0.750			
0.1397	8938.08	4.0800	4.0800	0.8173	25.29	0.51	0.750			
0.1421	9094.37	4.0770	4.0771	0.8207	25.29	0.51	0.750			
0.1446	9251.91	4.0740	4.0741	0.8262	25.29	0.51	0.750			
0.1471	9411.58	4.0710	4.0710	0.8313	25.29	0.51	0.750			
0.1496	9574.74	4.0680	4.0679	0.8163	25.29	0.51	0.750			
0.1520	9729.39	4.0650	4.0651	0.8249	25.30	0.52	0.750			
0.1545	9885.74	4.0620	4.0622	0.8292	25.30	0.52	0.750			
0.1569	10044.54	4.0590	4.0580	0.8335	25.30	0.52	0.750			
0.1594	10204.40	4.0560	4.0562	0.8386	25.30	0.52	0.750			
0.1620	10367.08	4.0530	4.0531	0.8510	25.30	0.52	0.750			
0.1646	10534.35	4.0500	4.0501	0.8588	25.31	0.53	0.750			
0.1673	10707.24	4.0470	4.0469	0.8716	25.31	0.53	0.750			
0.1698	10867.20	4.0440	4.0440	0.8553	25.31	0.53	0.750			
0.1724	11035.40	4.0410	4.0410	0.8460	25.31	0.53	0.750			
0.1749	11194.15	4.0380	4.0379	0.8482	25.31	0.53	0.750			
0.1774	11354.39	4.0350	4.0350	0.8483	25.32	0.54	0.750			
0.1799	11515.97	4.0320	4.0322	0.8536	25.32	0.54	0.750			
0.1825	11681.53	4.0290	4.0286	0.8635	25.32	0.54	0.750			
0.1852	11850.99	4.0260	4.0261	0.8576	25.32	0.54	0.750			
0.1877	12014.03	4.0230	4.0232	0.8655	25.32	0.54	0.750			
0.1903	12180.27	4.0200	4.0201	0.8780	25.33	0.55	0.750			
0.1929	12348.39	4.0170	4.0170	0.8743	25.33	0.55	0.750			
0.1956	12516.34	4.0140	4.0141	0.8794	25.33	0.55	0.750			
0.1982	12687.09	4.0110	4.0111	0.8803	25.34	0.56	0.750			
0.2009	12860.27	4.0080	4.0081	0.8900	25.34	0.56	0.750			
0.2036	13032.82	4.0050	4.0050	0.8893	25.34	0.56	0.750			
0.2062	13199.99	4.0020	4.0019	0.8832	25.35	0.57	0.750			
0.2089	13368.01	3.9990	3.9991	0.8810	25.35	0.57	0.750			
0.2115	13538.32	3.9960	3.9960	0.8834	25.35	0.57	0.750			
0.2142	13707.48	3.9930	3.9931	0.8872	25.35	0.57	0.750			
0.2168	13876.40	3.9900	3.9901	0.8914	25.35	0.57	0.750			
0.2195	14048.28	3.9870	3.9865	0.8973	25.35	0.57	0.750			
0.2223	14228.08	3.9840	3.9841	0.8857	25.35	0.57	0.750			
0.2249	14394.66	3.9810	3.9811	0.8936	25.36	0.58	0.750			
0.2276	14567.67	3.9780	3.9782	0.9019	25.36	0.58	0.750			
0.2303	14737.22	3.9750	3.9751	0.9036	25.37	0.59	0.750			
0.2330	14910.21	3.9720	3.9720	0.9133	25.37	0.59	0.750			
0.2357	15087.80	3.9690	3.9692	0.9203	25.37	0.59	0.750			
0.2386	15270.38	3.9660	3.9661	0.9318	25.37	0.59	0.750			
0.2414	15452.59	3.9630	3.9630	0.9315	25.37	0.59	0.750			
0.2442	15628.41	3.9600	3.9601	0.9144	25.37	0.59	0.750			
0.2469	15803.66	3.9570	3.9570	0.9178	25.37	0.59	0.750			
0.2497	15978.82	3.9540	3.9540	0.9077	25.37	0.59	0.750			
0.2523	16150.14	3.9510	3.9511	0.9150	25.38	0.60	0.750			
0.2551	16325.38	3.9480	3.9482	0.9228	25.38	0.60	0.750			
0.2579	16503.78	3.9450	3.9451	0.9314	25.38	0.60	0.750			
0.2607	16683.53	3.9420	3.9421	0.9386	25.39	0.61	0.750			
0.2635	16861.96	3.9390	3.9391	0.9301	25.39	0.61	0.750			
0.2662	17039.26	3.9360	3.9362	0.9391	25.39	0.61	0.750			
0.2690	17218.60	3.9330	3.9326	0.9357	25.40	0.62	0.750			
0.2719	17399.01	3.9300	3.9302	0.9423	25.40	0.62	0.750			
0.2747	17582.29	3.9270	3.9271	0.9477	25.40	0.62	0.750			
0.2776	17766.35	3.9240	3.9241	0.9553	25.40	0.62	0.750			
0.2806	17957.84	3.9210	3.9209	0.9743	25.40	0.62	0.750			
0.2833	18133.79	3.9180	3.9180	0.9527	25.40	0.62	0.750			
0.2862	18316.88	3.9150	3.9150	0.9464	25.40	0.62	0.750			
0.2890	18498.96	3.9120	3.9120	0.9559	25.41	0.63	0.750			
0.2919	18682.70	3.9090	3.9091	0.9631	25.41	0.63	0.750			
0.2948	18868.01	3.9060	3.9060	0.9657	25.41	0.63	0.750			
0.2978	19057.61	3.9030	3.9030	0.9443	25.41	0.63	0.750			
0.3006	19236.06	3.9000	3.9002	0.9602	25.41	0.63	0.750			
0.3034	19419.64	3.8970	3.8971	0.9669	25.41	0.63	0.750			
0.3064	19607.10	3.8940	3.8940	0.9770	25.41	0.63	0.750			
0.3092	19789.77	3.8910	3.8911	0.9771	25.41	0.63	0.750			
0.3122	19978.85	3.8880	3.8882	0.9871	25.41	0.63	0.750			
0.3152	20175.10	3.8850	3.8851	0.9951	25.40	0.62	0.750			
0.3182	20366.99	3.8820	3.8820	0.9868	25.40	0.62	0.750			
0.3212	20556.84	3.8790	3.8789	0.9784	25.40	0.62	0.750			
0.3241	20744.90	3.8760	3.8761	0.9773	25.40	0.62	0.750			
0.3270	20930.48	3.8730	3.8730	0.9819	25.40	0.62	0.750			
0.3300	21118.44	3.8700	3.8701	0.9837	25.40	0.62	0.750			
0.3329	21306.29	3.8670	3.8670	0.9819	25.40	0.62	0.750			
0.3360	21502.86	3.8640	3.8639	0.9629	25.40	0.62	0.750			
0.3388	21680.32	3.8610	3.8612	0.9861	25.39	0.61	0.750			
0.3418	21873.83	3.8580	3.8582	0.9851	25.39	0.61	0.750			
0.3447	22060.51	3.8550	3.8546	0.9945	25.39	0.61	0.750			
0.3477	22250.50	3.8520	3.8523	1.0097	25.38	0.60	0.750			
0.3507	22444.64	3.8490	3.8494	1.0287	25.38	0.60	0.750			
0.3539	22647.25	3.8460	3.8463	1.0395	25.37	0.59	0.750			
0.3570	22850.58	3.8430	3.8429	1.0327	25.37	0.59	0.750			
0.3603	23056.50	3.8400	3.8401	1.0092	25.36	0.58	0.750			
0.3632	23247.35	3.8370	3.8371	1.0298	25.36	0.58	0.750			
0.3663	23440.42	3.8340	3.8343	1.0415	25.36	0.58	0.750			
0.3694	23639.82	3.8310	3.8304	1.0592	25.35	0.57	0.750	0.252	0.377	
0.3726	23845.97	3.8280	3.8284	1.0499	25.34	0.56	0.750			
0.3758	24048.78	3.8250	3.8254	1.0742	25.33	0.55	0.750			
0.3791	24261.37	3.8220	3.8222	1.0937	25.33	0.55	0.750			
0.3824	24476.32	3.8190	3.8182	1.0974	25.32	0.54	0.750			
0.3856	24676.30	3.8160	3.8162	1.0811	25.31	0.53	0.750			
0.3889	24886.65	3.8130	3.8132	1.0872	25.30	0.52	0.750			
0.3922	25101.58	3.8100	3.8100	1.0968	25.30	0.52	0.750			
0.3955	25311.73	3.8070	3.8070	1.0782	25.29	0.51	0.750			
0.3987	25517.30	3.8040	3.8040	1.0888	25.28	0.50	0.750			
0.4020	25726.67	3.8010	3.8010	1.0993	25.27	0.49	0.750			
0.4053	25939.07	3.7980	3.7981	1.1087	25.26	0.48	0.750			
0.4087	26155.37	3.7950	3.7951	1.1011	25.25	0.47	0.750			
0.4119	26363.96	3.7920	3.7921	1.1233	25.24	0.46	0.750			
0.4153	26578.14	3.7890	3.7892	1.1417	25.23	0.45	0.750			
0.4187	26799.28	3.7860	3.7856	1.1619	25.22	0.44	0.750			
0.4222	27021.27	3.7830	3.7832	1.1783	25.21	0.43	0.750			
0.4258	27251.29	3.7800	3.7801	1.1978	25.20	0.42	0.750			
0.4295	27485.26	3.7770	3.7771	1.2206	25.19	0.41	0.750			
0.4333	27728.15	3.7740	3.7739	1.2454	25.17	0.39	0.750			
0.4368	27956.01	3.7710	3.7710	1.2409	25.16	0.38	0.750			
0.4406	28196.41	3.7680	3.7681	1.2705	25.15	0.37	0.750			
0.4444	28441.84	3.7650	3.7646	1.3017	25.13	0.35	0.750			
0.4482	28687.82	3.7620	3.7621	1.3090	25.12	0.34	0.750			
0.4522	28940.51	3.7590	3.7593	1.3481	25.10	0.32	0.750			
0.4563	29201.09	3.7560	3.7556	1.3815	25.09	0.31	0.750			
0.4605	29475.06	3.7530	3.7532	1.3885	25.08	0.30	0.750			
0.4648	29746.65	3.7500	3.7502	1.4257	25.07	0.29	0.750			
0.4692	30029.30	3.7470	3.7469	1.4508	25.06	0.28	0.750			
0.4738	30321.09	3.7440	3.7440	1.4989	25.05	0.27	0.750			
0.4781	30597.68	3.7410	3.7407	1.4885	25.03	0.25	0.750			
0.4826	30888.79	3.7380	3.7379	1.5304	25.02	0.24	0.750			
0.4872	31178.18	3.7350	3.7350	1.6057	25.00	0.22	0.750			
0.4921	31494.47	3.7320	3.7322	1.6722	24.98	0.20	0.750			
0.4971	31816.52	3.7290	3.7295	1.7263	24.96	0.18	0.750			
0.5027	32172.77	3.7260	3.7261	1.7885	24.94	0.16	0.750			
0.5082	32522.27	3.7230	3.7226	1.8316	24.93	0.15	0.750			
0.5138	32882.37	3.7200	3.7195	1.8724	24.91	0.13	0.750			
0.5193	33234.93	3.7170	3.7169	1.9152	24.89	0.11	0.750			
0.5252	33610.73	3.7140	3.7145	1.9643	24.87	0.09	0.750			
0.5311	33992.04	3.7110	3.7109	2.0417	24.85	0.07	0.750			
0.5372	34381.16	3.7080	3.7077	2.1249	24.84	0.06	0.750			
0.5436	34792.63	3.7050	3.7052	2.2148	24.82	0.04	0.750			
0.5505	35231.16	3.7020	3.7016	2.2324	24.80	0.02	0.750			
0.5572	35662.26	3.6990	3.6990	2.3281	24.78	-0.00	0.750			
0.5641	36104.54	3.6960	3.6955	2.3330	24.76	-0.02	0.750			
0.5714	36571.94	3.6930	3.6935	2.3928	24.74	-0.04	0.750			
0.5786	37027.24	3.6900	3.6897	2.5916	24.73	-0.05	0.750			
0.5859	37499.21	3.6870	3.6877	2.6102	24.71	-0.07	0.750			
0.5941	38020.60	3.6840	3.6840	2.6717	24.69	-0.09	0.750			
0.6016	38502.01	3.6810	3.6806	2.7069	24.68	-0.10	0.750			
0.6101	39049.37	3.6780	3.6779	2.8521	24.67	-0.11	0.750			
0.6194	39643.33	3.6750	3.6753	3.0782	24.66	-0.12	0.750			
0.6281	40195.88	3.6720	3.6722	2.8886	24.65	-0.13	0.750			
0.6369	40762.04	3.6690	3.6692	2.9092	24.64	-0.14	0.750			
0.6458	41333.06	3.6660	3.6660	2.8360	24.64	-0.14	0.750			
0.6545	41885.57	3.6630	3.6628	2.7734	24.63	-0.15	0.750			
0.6627	42415.43	3.6600	3.6596	2.5942	24.63	-0.15	0.750			
0.6702	42893.49	3.6570	3.6568	2.3817	24.64	-0.14	0.750			
0.6770	43325.17	3.6540	3.6538	2.1399	24.65	-0.13	0.750			
0.6829	43707.66	3.6510	3.6509	1.9534	24.66	-0.12	0.750			
0.6884	44054.80	3.6480	3.6480	1.7476	24.67	-0.11	0.750			
0.6933	44368.81	3.6450	3.6450	1.5474	24.68	-0.10	0.750			
0.6977	44651.66	3.6420	3.6422	1.3993	24.69	-0.09	0.750			
0.7017	44907.51	3.6390	3.6393	1.2630	24.69	-0.09	0.750			
0.7052	45132.25	3.6360	3.6361	1.1476	24.70	-0.08	0.750			
0.7083	45331.24	3.6330	3.6329	1.0348	24.70	-0.08	0.750			
0.7112	45515.98	3.6300	3.6301	0.9708	24.71	-0.07	0.750			
0.7139	45690.68	3.6270	3.6271	0.9264	24.72	-0.06	0.750			
0.7166	45863.65	3.6240	3.6240	0.9082	24.73	-0.05	0.750			
0.7192	46030.35	3.6210	3.6203	0.9019	24.74	-0.04	0.750			
0.7219	46202.22	3.6180	3.6181	0.8910	24.75	-0.03	0.750			
0.7247	46381.39	3.6150	3.6149	0.8631	24.76	-0.02	0.750			
0.7274	46555.74	3.6120	3.6119	0.8293	24.77	-0.01	0.750			
0.7299	46713.68	3.6090	3.6093	0.7609	24.77	-0.01	0.750			
0.7321	46855.63	3.6060	3.6062	0.6813	24.78	0.00	0.750			
0.7340	46976.87	3.6030	3.6030	0.5915	24.79	0.01	0.750			
0.7355	47073.90	3.6000	3.6001	0.5034	24.79	0.01	0.750			
0.7369	47163.66	3.5970	3.5970	0.4403	24.80	0.02	0.750			
0.7382	47243.69	3.5940	3.5938	0.3829	24.80	0.02	0.750			
0.7392	47307.78	3.5910	3.5910	0.3200	24.80	0.02	0.750			
0.7401	47363.60	3.5880	3.5880	0.2660	24.81	0.03	0.750			
0.7408	47410.02	3.5850	3.5848	0.2127	24.81	0.03	0.750			
0.7413	47445.81	3.5820	3.5821	0.1574	24.81	0.03	0.750			
0.7417	47470.84	3.5790	3.5794	0.1069	24.81	0.03	0.750			
