Ah_balance (normalized)	Ah_balance (mAh)	Voltage - fit (V)	Voltage -  interpolate (V)	dQ/dV (1/V)	Temperature (°C)	Temperature - diff (°C)	Current (C)	R_DC 0ms (mOhm)	R_DC 50ms (mOhm)	R_DC 50 ms PEC (mOhm)
0.0488	3121.55	4.1960	4.1961	0.7623	25.57	0.65	0.750			
0.0508	3250.94	4.1930	4.1935	0.7131	25.57	0.65	0.750			
0.0530	3391.17	4.1900	4.1904	0.7270	25.57	0.65	0.750			
0.0552	3530.19	4.1870	4.1874	0.7433	25.57	0.65	0.750			
0.0574	3674.38	4.1840	4.1846	0.7424	25.57	0.65	0.750			
0.0597	3818.85	4.1810	4.1816	0.7544	25.57	0.65	0.750			
0.0621	3972.61	4.1780	4.1785	0.7813	25.57	0.65	0.750			
0.0645	4124.92	4.1750	4.1754	0.7630	25.57	0.65	0.750			
0.0666	4263.42	4.1720	4.1722	0.7539	25.57	0.65	0.750			
0.0690	4413.52	4.1690	4.1693	0.7594	25.57	0.65	0.750			
0.0711	4553.11	4.1660	4.1662	0.7413	25.57	0.65	0.750			
0.0734	4697.23	4.1630	4.1618	0.7517	25.58	0.66	0.750			
0.0757	4844.03	4.1600	4.1606	0.7627	25.58	0.66	0.750			
0.0779	4986.86	4.1570	4.1577	0.7704	25.58	0.66	0.750			
0.0803	5140.51	4.1540	4.1544	0.7943	25.58	0.66	0.750			
0.0827	5290.12	4.1510	4.1517	0.7869	25.58	0.66	0.750			
0.0852	5450.64	4.1480	4.1482	0.7954	25.58	0.66	0.750			
0.0876	5604.32	4.1450	4.1451	0.7916	25.57	0.65	0.750			
0.0899	5754.38	4.1420	4.1422	0.7860	25.57	0.65	0.750			
0.0922	5900.76	4.1390	4.1386	0.7765	25.57	0.65	0.750			
0.0945	6050.12	4.1360	4.1361	0.7735	25.57	0.65	0.750			
0.0969	6199.93	4.1330	4.1332	0.7737	25.58	0.66	0.750			
0.0992	6351.21	4.1300	4.1299	0.7783	25.58	0.66	0.750			
0.1015	6498.82	4.1270	4.1271	0.7862	25.59	0.67	0.750			
0.1038	6645.67	4.1240	4.1238	0.7812	25.59	0.67	0.750			
0.1062	6796.86	4.1210	4.1212	0.7849	25.59	0.67	0.750			
0.1086	6950.42	4.1180	4.1181	0.7830	25.59	0.67	0.750			
0.1110	7103.64	4.1150	4.1151	0.7776	25.59	0.67	0.750			
0.1134	7255.57	4.1120	4.1120	0.7813	25.59	0.67	0.750			
0.1157	7402.17	4.1090	4.1091	0.7631	25.59	0.67	0.750			
0.1179	7546.71	4.1060	4.1063	0.7619	25.59	0.67	0.750			
0.1202	7692.96	4.1030	4.1034	0.7709	25.59	0.67	0.750			
0.1225	7840.77	4.1000	4.1006	0.7722	25.59	0.67	0.750			
0.1249	7991.45	4.0970	4.0976	0.7750	25.59	0.67	0.750			
0.1272	8142.60	4.0940	4.0944	0.7740	25.59	0.67	0.750			
0.1294	8283.23	4.0910	4.0907	0.7919	25.59	0.67	0.750			
0.1319	8439.92	4.0880	4.0888	0.7971	25.59	0.67	0.750			
0.1343	8595.92	4.0850	4.0853	0.7929	25.59	0.67	0.750			
0.1368	8753.72	4.0820	4.0825	0.8097	25.60	0.68	0.750			
0.1392	8909.39	4.0790	4.0795	0.8076	25.60	0.68	0.750			
0.1417	9066.14	4.0760	4.0761	0.8076	25.60	0.68	0.750			
0.1440	9216.47	4.0730	4.0736	0.8136	25.60	0.68	0.750			
0.1463	9364.65	4.0700	4.0702	0.8023	25.60	0.68	0.750			
0.1488	9520.37	4.0670	4.0678	0.8305	25.61	0.69	0.750			
0.1513	9685.31	4.0640	4.0644	0.8413	25.61	0.69	0.750			
0.1539	9846.98	4.0610	4.0612	0.8433	25.61	0.69	0.750			
0.1565	10018.57	4.0580	4.0581	0.8551	25.61	0.69	0.750			
0.1592	10188.07	4.0550	4.0549	0.8269	25.61	0.69	0.750			
0.1615	10337.56	4.0520	4.0522	0.8226	25.62	0.70	0.750			
0.1640	10495.62	4.0490	4.0491	0.8281	25.62	0.70	0.750			
0.1664	10648.97	4.0460	4.0462	0.8212	25.62	0.70	0.750			
0.1689	10808.74	4.0430	4.0432	0.8326	25.62	0.70	0.750			
0.1714	10970.21	4.0400	4.0401	0.8325	25.62	0.70	0.750			
0.1739	11131.12	4.0370	4.0371	0.8410	25.63	0.71	0.750			
0.1765	11293.59	4.0340	4.0341	0.8340	25.63	0.71	0.750			
0.1790	11454.38	4.0310	4.0308	0.8405	25.63	0.71	0.750			
0.1815	11616.59	4.0280	4.0280	0.8453	25.63	0.71	0.750			
0.1841	11780.88	4.0250	4.0251	0.8445	25.63	0.71	0.750			
0.1866	11943.39	4.0220	4.0221	0.8544	25.63	0.71	0.750			
0.1892	12106.83	4.0190	4.0190	0.8514	25.63	0.71	0.750			
0.1917	12270.64	4.0160	4.0157	0.8567	25.63	0.71	0.750			
0.1943	12434.75	4.0130	4.0130	0.8586	25.63	0.71	0.750			
0.1969	12603.75	4.0100	4.0101	0.8426	25.63	0.71	0.750			
0.1994	12764.22	4.0070	4.0071	0.8553	25.64	0.72	0.750			
0.2020	12925.29	4.0040	4.0042	0.8543	25.64	0.72	0.750			
0.2045	13088.58	4.0010	4.0000	0.8601	25.64	0.72	0.750			
0.2071	13253.53	3.9980	3.9983	0.8701	25.64	0.72	0.750			
0.2097	13421.80	3.9950	3.9952	0.8724	25.64	0.72	0.750			
0.2124	13592.12	3.9920	3.9920	0.8803	25.65	0.73	0.750			
0.2151	13768.83	3.9890	3.9890	0.8962	25.65	0.73	0.750			
0.2177	13931.99	3.9860	3.9862	0.8778	25.65	0.73	0.750			
0.2204	14103.14	3.9830	3.9831	0.8775	25.65	0.73	0.750			
0.2230	14272.05	3.9800	3.9800	0.8841	25.65	0.73	0.750			
0.2256	14440.95	3.9770	3.9771	0.8917	25.65	0.73	0.750			
0.2283	14610.58	3.9740	3.9739	0.8901	25.65	0.73	0.750			
0.2310	14783.05	3.9710	3.9711	0.8967	25.65	0.73	0.750			
0.2338	14961.23	3.9680	3.9679	0.8788	25.65	0.73	0.750			
0.2363	15125.97	3.9650	3.9652	0.8852	25.65	0.73	0.750			
0.2390	15292.97	3.9620	3.9622	0.8918	25.65	0.73	0.750			
0.2416	15461.78	3.9590	3.9587	0.8935	25.65	0.73	0.750			
0.2443	15635.69	3.9560	3.9562	0.8927	25.65	0.73	0.750			
0.2470	15807.78	3.9530	3.9532	0.9013	25.65	0.73	0.750			
0.2497	15983.75	3.9500	3.9502	0.9076	25.66	0.74	0.750			
0.2525	16163.15	3.9470	3.9471	0.9073	25.66	0.74	0.750			
0.2552	16332.23	3.9440	3.9441	0.9016	25.66	0.74	0.750			
0.2579	16508.49	3.9410	3.9411	0.8973	25.66	0.74	0.750			
0.2606	16680.26	3.9380	3.9380	0.9014	25.66	0.74	0.750			
0.2633	16853.14	3.9350	3.9351	0.9058	25.66	0.74	0.750			
0.2660	17025.87	3.9320	3.9320	0.9041	25.66	0.74	0.750			
0.2687	17199.66	3.9290	3.9290	0.9048	25.66	0.74	0.750			
0.2715	17373.72	3.9260	3.9260	0.8974	25.66	0.74	0.750			
0.2741	17545.52	3.9230	3.9232	0.9011	25.66	0.74	0.750			
0.2769	17719.10	3.9200	3.9200	0.9050	25.66	0.74	0.750			
0.2796	17892.29	3.9170	3.9162	0.9110	25.66	0.74	0.750			
0.2824	18071.14	3.9140	3.9140	0.8961	25.66	0.74	0.750			
0.2850	18242.04	3.9110	3.9111	0.9089	25.66	0.74	0.750			
0.2878	18417.27	3.9080	3.9081	0.9161	25.65	0.73	0.750			
0.2906	18595.41	3.9050	3.9051	0.9233	25.65	0.73	0.750			
0.2933	18768.07	3.9020	3.9020	0.9165	25.65	0.73	0.750			
0.2960	18944.90	3.8990	3.8992	0.9159	25.64	0.72	0.750			
0.2988	19122.50	3.8960	3.8961	0.9213	25.64	0.72	0.750			
0.3016	19302.12	3.8930	3.8930	0.9226	25.63	0.71	0.750			
0.3043	19476.46	3.8900	3.8898	0.9155	25.63	0.71	0.750			
0.3071	19651.98	3.8870	3.8871	0.9219	25.63	0.71	0.750			
0.3098	19830.31	3.8840	3.8840	0.9110	25.62	0.70	0.750			
0.3126	20004.48	3.8810	3.8812	0.9192	25.62	0.70	0.750			
0.3153	20179.26	3.8780	3.8781	0.9206	25.61	0.69	0.750			
0.3181	20356.87	3.8750	3.8751	0.9212	25.61	0.69	0.750			
0.3209	20537.69	3.8720	3.8721	0.9034	25.60	0.68	0.750			
0.3235	20707.20	3.8690	3.8692	0.9187	25.59	0.67	0.750			
0.3263	20885.66	3.8660	3.8661	0.9246	25.58	0.66	0.750			
0.3291	21061.08	3.8630	3.8625	0.9227	25.57	0.65	0.750			
0.3319	21239.23	3.8600	3.8602	0.9233	25.56	0.64	0.750			
0.3347	21417.70	3.8570	3.8572	0.9334	25.55	0.63	0.750			
0.3375	21600.02	3.8540	3.8540	0.9411	25.54	0.62	0.750			
0.3404	21782.57	3.8510	3.8510	0.9284	25.54	0.62	0.750			
0.3432	21964.92	3.8480	3.8480	0.9185	25.52	0.60	0.750			
0.3459	22139.39	3.8450	3.8450	0.9181	25.51	0.59	0.750			
0.3486	22310.58	3.8420	3.8422	0.9310	25.50	0.58	0.750			
0.3513	22486.16	3.8390	3.8391	0.9427	25.49	0.57	0.750			
0.3542	22667.92	3.8360	3.8355	0.9535	25.48	0.56	0.750	0.335	0.439	
0.3571	22855.10	3.8330	3.8332	0.9721	25.47	0.55	0.750			
0.3601	23043.64	3.8300	3.8302	0.9776	25.47	0.55	0.750			
0.3630	23235.10	3.8270	3.8271	0.9873	25.46	0.54	0.750			
0.3660	23421.25	3.8240	3.8242	0.9795	25.45	0.53	0.750			
0.3689	23612.40	3.8210	3.8211	0.9825	25.44	0.52	0.750			
0.3719	23801.44	3.8180	3.8181	0.9919	25.43	0.51	0.750			
0.3749	23994.54	3.8150	3.8151	1.0046	25.42	0.50	0.750			
0.3780	24191.99	3.8120	3.8122	1.0232	25.41	0.49	0.750			
0.3810	24384.08	3.8090	3.8089	1.0025	25.39	0.47	0.750			
0.3840	24575.96	3.8060	3.8061	1.0179	25.38	0.46	0.750			
0.3870	24771.14	3.8030	3.8031	1.0296	25.37	0.45	0.750			
0.3902	24971.50	3.8000	3.8001	1.0523	25.36	0.44	0.750			
0.3934	25175.34	3.7970	3.7970	1.0434	25.34	0.42	0.750			
0.3965	25374.68	3.7940	3.7941	1.0667	25.33	0.41	0.750			
0.3997	25579.91	3.7910	3.7912	1.0910	25.32	0.40	0.750			
0.4030	25793.20	3.7880	3.7880	1.1139	25.31	0.39	0.750			
0.4064	26006.82	3.7850	3.7851	1.1247	25.29	0.37	0.750			
0.4098	26224.07	3.7820	3.7821	1.1469	25.28	0.36	0.750			
0.4132	26447.38	3.7790	3.7791	1.1691	25.27	0.35	0.750			
0.4170	26685.10	3.7760	3.7757	1.1772	25.26	0.34	0.750			
0.4203	26901.66	3.7730	3.7730	1.1922	25.25	0.33	0.750			
0.4239	27131.46	3.7700	3.7701	1.2197	25.24	0.32	0.750			
0.4277	27370.96	3.7670	3.7672	1.2367	25.23	0.31	0.750			
0.4313	27606.13	3.7640	3.7639	1.2660	25.21	0.29	0.750			
0.4352	27852.00	3.7610	3.7613	1.3035	25.20	0.28	0.750			
0.4392	28108.17	3.7580	3.7581	1.3329	25.19	0.27	0.750			
0.4433	28368.04	3.7550	3.7550	1.3660	25.17	0.25	0.750			
0.4474	28630.81	3.7520	3.7521	1.3869	25.15	0.23	0.750			
0.4516	28902.01	3.7490	3.7491	1.4209	25.13	0.21	0.750			
0.4559	29178.20	3.7460	3.7460	1.4268	25.12	0.20	0.750			
0.4602	29449.94	3.7430	3.7431	1.4360	25.11	0.19	0.750			
0.4644	29723.36	3.7400	3.7402	1.4784	25.10	0.18	0.750			
0.4687	29998.10	3.7370	3.7368	1.5803	25.09	0.17	0.750			
0.4735	30305.02	3.7340	3.7333	1.6618	25.07	0.15	0.750			
0.4787	30635.20	3.7310	3.7309	1.7398	25.06	0.14	0.750			
0.4842	30990.98	3.7280	3.7279	1.8209	25.04	0.12	0.750			
0.4899	31354.72	3.7250	3.7254	1.8518	25.03	0.11	0.750			
0.4957	31722.52	3.7220	3.7222	1.8613	25.01	0.09	0.750			
0.5012	32077.05	3.7190	3.7191	1.8778	24.99	0.07	0.750			
0.5067	32427.64	3.7160	3.7160	1.8646	24.97	0.05	0.750			
0.5123	32787.18	3.7130	3.7130	1.9219	24.95	0.03	0.750			
0.5182	33165.14	3.7100	3.7100	1.9879	24.94	0.02	0.750			
0.5242	33549.27	3.7070	3.7068	2.0528	24.92	-0.00	0.750			
0.5304	33946.68	3.7040	3.7041	2.1205	24.90	-0.02	0.750			
0.5370	34365.62	3.7010	3.7010	2.1441	24.88	-0.04	0.750			
0.5435	34787.18	3.6980	3.6980	2.2369	24.87	-0.05	0.750			
0.5502	35214.83	3.6950	3.6949	2.2897	24.86	-0.06	0.750			
0.5572	35660.80	3.6920	3.6922	2.3488	24.84	-0.08	0.750			
0.5645	36125.26	3.6890	3.6890	2.4080	24.83	-0.09	0.750			
0.5720	36605.12	3.6860	3.6858	2.4561	24.81	-0.11	0.750			
0.5793	37076.96	3.6830	3.6829	2.5166	24.80	-0.12	0.750			
0.5869	37562.67	3.6800	3.6801	2.5853	24.79	-0.13	0.750			
0.5948	38068.62	3.6770	3.6775	2.6132	24.79	-0.13	0.750			
0.6028	38577.73	3.6740	3.6741	2.5861	24.78	-0.14	0.750			
0.6107	39085.89	3.6710	3.6708	2.5028	24.77	-0.15	0.750			
0.6183	39569.59	3.6680	3.6680	2.3841	24.77	-0.15	0.750			
0.6250	40001.23	3.6650	3.6650	2.2102	24.78	-0.14	0.750			
0.6313	40404.82	3.6620	3.6619	2.0169	24.78	-0.14	0.750			
0.6372	40778.00	3.6590	3.6591	1.8946	24.79	-0.13	0.750			
0.6426	41125.61	3.6560	3.6563	1.7497	24.79	-0.13	0.750			
0.6477	41449.85	3.6530	3.6528	1.6241	24.80	-0.12	0.750			
0.6523	41750.29	3.6500	3.6502	1.4911	24.81	-0.11	0.750			
0.6567	42027.96	3.6470	3.6471	1.3873	24.81	-0.11	0.750			
0.6605	42271.36	3.6440	3.6442	1.2764	24.81	-0.11	0.750			
0.6641	42501.24	3.6410	3.6410	1.1811	24.82	-0.10	0.750			
0.6675	42721.29	3.6380	3.6381	1.1277	24.82	-0.10	0.750			
0.6707	42924.10	3.6350	3.6350	1.0581	24.83	-0.09	0.750			
0.6738	43120.51	3.6320	3.6321	1.0172	24.84	-0.08	0.750			
0.6768	43312.39	3.6290	3.6290	0.9857	24.85	-0.07	0.750			
0.6796	43496.76	3.6260	3.6259	0.9502	24.86	-0.06	0.750			
0.6825	43677.07	3.6230	3.6229	0.9167	24.86	-0.06	0.750			
0.6852	43851.18	3.6200	3.6200	0.8766	24.87	-0.05	0.750			
0.6878	44016.61	3.6170	3.6171	0.8362	24.87	-0.05	0.750			
0.6902	44173.82	3.6140	3.6140	0.7904	24.88	-0.04	0.750			
0.6926	44324.01	3.6110	3.6110	0.7264	24.88	-0.04	0.750			
0.6946	44457.06	3.6080	3.6082	0.6764	24.89	-0.03	0.750			
0.6966	44581.95	3.6050	3.6051	0.6221	24.90	-0.02	0.750			
0.6984	44697.56	3.6020	3.6018	0.5684	24.90	-0.02	0.750			
0.7000	44799.14	3.5990	3.5992	0.5047	24.91	-0.01	0.750			
0.7014	44890.69	3.5960	3.5961	0.4542	24.91	-0.01	0.750			
0.7027	44973.23	3.5930	3.5930	0.4072	24.91	-0.01	0.750			
0.7039	45047.78	3.5900	3.5900	0.3607	24.92	-0.00	0.750			
0.7048	45109.90	3.5870	3.5871	0.3041	24.92	0.00	0.750			
0.7057	45163.94	3.5840	3.5842	0.2564	24.92	0.00	0.750			
0.7064	45209.09	3.5810	3.5811	0.2078	24.93	0.01	0.750			
0.7069	45244.79	3.5780	3.5782	0.1555	24.93	0.01	0.750			
0.7073	45269.39	3.5750	3.5752	0.0958	24.93	0.01	0.750			
