Ah_balance (normalized)	Ah_balance (mAh)	Voltage - fit (V)	Voltage -  interpolate (V)	dQ/dV (1/V)	Temperature (°C)	Temperature - diff (°C)	Current (C)	R_DC 0ms (mOhm)	R_DC 50ms (mOhm)	R_DC 50 ms PEC (mOhm)
0.0471	3016.79	4.1990	4.1990	0.7485	25.95	0.50	0.750			
0.0494	3160.94	4.1960	4.1960	0.7513	25.95	0.50	0.750			
0.0516	3305.21	4.1930	4.1930	0.7490	25.95	0.50	0.750			
0.0539	3448.24	4.1900	4.1900	0.7475	25.95	0.50	0.750			
0.0562	3595.42	4.1870	4.1870	0.7328	25.95	0.50	0.750			
0.0583	3733.28	4.1840	4.1840	0.7380	25.95	0.50	0.750			
0.0605	3871.65	4.1810	4.1811	0.7447	25.95	0.50	0.750			
0.0627	4014.48	4.1780	4.1781	0.7493	25.95	0.50	0.750			
0.0650	4159.73	4.1750	4.1752	0.7533	25.95	0.50	0.750			
0.0673	4306.40	4.1720	4.1721	0.7593	25.95	0.50	0.750			
0.0696	4453.29	4.1690	4.1691	0.7569	25.95	0.50	0.750			
0.0719	4600.37	4.1660	4.1660	0.7661	25.96	0.51	0.750			
0.0741	4743.23	4.1630	4.1630	0.7559	25.96	0.51	0.750			
0.0764	4888.13	4.1600	4.1601	0.7608	25.96	0.51	0.750			
0.0787	5035.07	4.1570	4.1571	0.7668	25.96	0.51	0.750			
0.0810	5183.65	4.1540	4.1541	0.7655	25.96	0.51	0.750			
0.0833	5332.96	4.1510	4.1510	0.7681	25.97	0.52	0.750			
0.0856	5478.40	4.1480	4.1481	0.7627	25.97	0.52	0.750			
0.0879	5625.00	4.1450	4.1449	0.7635	25.97	0.52	0.750			
0.0902	5771.86	4.1420	4.1421	0.7647	25.97	0.52	0.750			
0.0925	5917.50	4.1390	4.1390	0.7659	25.97	0.52	0.750			
0.0948	6065.74	4.1360	4.1360	0.7603	25.97	0.52	0.750			
0.0970	6208.25	4.1330	4.1330	0.7614	25.97	0.52	0.750			
0.0993	6355.16	4.1300	4.1302	0.7688	25.97	0.52	0.750			
0.1016	6503.40	4.1270	4.1272	0.7734	25.97	0.52	0.750			
0.1039	6652.35	4.1240	4.1242	0.7803	25.97	0.52	0.750			
0.1063	6804.07	4.1210	4.1211	0.7750	25.97	0.52	0.750			
0.1086	6953.24	4.1180	4.1180	0.7825	25.97	0.52	0.750			
0.1110	7101.31	4.1150	4.1151	0.7736	25.97	0.52	0.750			
0.1133	7250.91	4.1120	4.1115	0.7804	25.97	0.52	0.750			
0.1156	7401.42	4.1090	4.1091	0.7866	25.97	0.52	0.750			
0.1180	7553.84	4.1060	4.1061	0.7893	25.98	0.53	0.750			
0.1204	7707.57	4.1030	4.1030	0.7940	25.98	0.53	0.750			
0.1228	7859.68	4.1000	4.1000	0.7878	25.99	0.54	0.750			
0.1252	8010.88	4.0970	4.0970	0.7888	25.99	0.54	0.750			
0.1275	8162.87	4.0940	4.0940	0.7911	25.99	0.54	0.750			
0.1299	8316.70	4.0910	4.0910	0.7838	25.99	0.54	0.750			
0.1323	8465.76	4.0880	4.0880	0.7852	25.99	0.54	0.750			
0.1346	8614.84	4.0850	4.0851	0.7915	25.99	0.54	0.750			
0.1370	8766.91	4.0820	4.0821	0.7968	25.99	0.54	0.750			
0.1394	8920.18	4.0790	4.0790	0.7987	25.99	0.54	0.750			
0.1418	9074.25	4.0760	4.0762	0.8038	26.00	0.55	0.750			
0.1442	9229.85	4.0730	4.0731	0.7995	26.00	0.55	0.750			
0.1466	9383.45	4.0700	4.0700	0.7998	26.00	0.55	0.750			
0.1489	9532.08	4.0670	4.0672	0.8010	26.01	0.56	0.750			
0.1513	9686.21	4.0640	4.0636	0.8109	26.01	0.56	0.750			
0.1538	9844.48	4.0610	4.0611	0.8142	26.01	0.56	0.750			
0.1563	10002.63	4.0580	4.0580	0.8200	26.01	0.56	0.750			
0.1588	10162.92	4.0550	4.0552	0.8262	26.01	0.56	0.750			
0.1613	10320.83	4.0520	4.0521	0.8176	26.01	0.56	0.750			
0.1637	10478.44	4.0490	4.0489	0.8194	26.01	0.56	0.750			
0.1662	10634.27	4.0460	4.0460	0.8178	26.01	0.56	0.750			
0.1686	10792.59	4.0430	4.0431	0.8116	26.01	0.56	0.750			
0.1710	10945.22	4.0400	4.0401	0.8237	26.01	0.56	0.750			
0.1735	11103.10	4.0370	4.0371	0.8272	26.01	0.56	0.750			
0.1760	11262.78	4.0340	4.0333	0.8348	26.01	0.56	0.750			
0.1785	11423.42	4.0310	4.0312	0.8450	26.01	0.56	0.750			
0.1811	11588.09	4.0280	4.0282	0.8390	26.02	0.57	0.750			
0.1836	11751.28	4.0250	4.0251	0.8466	26.02	0.57	0.750			
0.1861	11911.14	4.0220	4.0221	0.8386	26.03	0.58	0.750			
0.1886	12071.31	4.0190	4.0185	0.8433	26.03	0.58	0.750			
0.1912	12235.79	4.0160	4.0161	0.8469	26.03	0.58	0.750			
0.1937	12398.04	4.0130	4.0131	0.8503	26.03	0.58	0.750			
0.1963	12564.11	4.0100	4.0100	0.8556	26.03	0.58	0.750			
0.1989	12727.99	4.0070	4.0071	0.8482	26.03	0.58	0.750			
0.2014	12890.20	4.0040	4.0039	0.8536	26.03	0.58	0.750			
0.2040	13055.04	4.0010	4.0010	0.8595	26.03	0.58	0.750			
0.2066	13219.50	3.9980	3.9980	0.8477	26.03	0.58	0.750			
0.2091	13380.27	3.9950	3.9951	0.8552	26.03	0.58	0.750			
0.2116	13543.83	3.9920	3.9922	0.8601	26.03	0.58	0.750			
0.2142	13709.87	3.9890	3.9889	0.8670	26.03	0.58	0.750			
0.2168	13876.86	3.9860	3.9863	0.8693	26.03	0.58	0.750			
0.2194	14042.48	3.9830	3.9832	0.8652	26.03	0.58	0.750			
0.2221	14211.74	3.9800	3.9801	0.8736	26.03	0.58	0.750			
0.2247	14381.18	3.9770	3.9770	0.8840	26.03	0.58	0.750			
0.2272	14542.19	3.9740	3.9742	0.8724	26.03	0.58	0.750			
0.2299	14712.94	3.9710	3.9711	0.8718	26.03	0.58	0.750			
0.2325	14882.58	3.9680	3.9681	0.8811	26.04	0.59	0.750			
0.2352	15055.74	3.9650	3.9650	0.8840	26.04	0.59	0.750			
0.2378	15220.75	3.9620	3.9619	0.8733	26.04	0.59	0.750			
0.2404	15388.05	3.9590	3.9591	0.8776	26.04	0.59	0.750			
0.2431	15561.22	3.9560	3.9560	0.8538	26.04	0.59	0.750			
0.2457	15722.39	3.9530	3.9530	0.8668	26.05	0.60	0.750			
0.2483	15888.90	3.9500	3.9502	0.8723	26.05	0.60	0.750			
0.2508	16052.53	3.9470	3.9462	0.8721	26.05	0.60	0.750			
0.2535	16221.37	3.9440	3.9441	0.8791	26.05	0.60	0.750			
0.2561	16390.64	3.9410	3.9411	0.8730	26.04	0.59	0.750			
0.2587	16558.94	3.9380	3.9382	0.8812	26.04	0.59	0.750			
0.2614	16729.57	3.9350	3.9351	0.8781	26.03	0.58	0.750			
0.2640	16898.60	3.9320	3.9321	0.8833	26.03	0.58	0.750			
0.2667	17069.91	3.9290	3.9291	0.8799	26.03	0.58	0.750			
0.2694	17239.56	3.9260	3.9261	0.8797	26.03	0.58	0.750			
0.2721	17412.08	3.9230	3.9230	0.8824	26.02	0.57	0.750			
0.2747	17578.14	3.9200	3.9202	0.8706	26.02	0.57	0.750			
0.2773	17744.61	3.9170	3.9169	0.8681	26.02	0.57	0.750			
0.2798	17909.72	3.9140	3.9141	0.8685	26.01	0.56	0.750			
0.2824	18074.49	3.9110	3.9110	0.8572	26.01	0.56	0.750			
0.2850	18238.00	3.9080	3.9082	0.8645	26.01	0.56	0.750			
0.2875	18401.11	3.9050	3.9052	0.8715	26.00	0.55	0.750			
0.2901	18567.64	3.9020	3.9023	0.8770	26.00	0.55	0.750			
0.2928	18738.45	3.8990	3.8991	0.8780	25.99	0.54	0.750			
0.2955	18909.62	3.8960	3.8961	0.8893	25.99	0.54	0.750			
0.2982	19084.70	3.8930	3.8932	0.9006	25.98	0.53	0.750			
0.3008	19253.46	3.8900	3.8892	0.8853	25.98	0.53	0.750			
0.3035	19424.41	3.8870	3.8870	0.8845	25.97	0.52	0.750			
0.3062	19594.85	3.8840	3.8841	0.8833	25.97	0.52	0.750			
0.3089	19766.42	3.8810	3.8810	0.8886	25.96	0.51	0.750			
0.3115	19936.82	3.8780	3.8781	0.8875	25.95	0.50	0.750			
0.3141	20102.79	3.8750	3.8749	0.8781	25.95	0.50	0.750			
0.3167	20271.43	3.8720	3.8720	0.8806	25.94	0.49	0.750			
0.3194	20440.86	3.8690	3.8690	0.8701	25.94	0.49	0.750			
0.3219	20603.42	3.8660	3.8661	0.8786	25.94	0.49	0.750			
0.3246	20772.15	3.8630	3.8632	0.8881	25.93	0.48	0.750			
0.3272	20942.36	3.8600	3.8602	0.8882	25.93	0.48	0.750			
0.3300	21117.73	3.8570	3.8571	0.8767	25.92	0.47	0.750			
0.3326	21285.94	3.8540	3.8542	0.8981	25.91	0.46	0.750			
0.3354	21463.33	3.8510	3.8511	0.8898	25.90	0.45	0.750			
0.3379	21627.95	3.8480	3.8476	0.8995	25.89	0.44	0.750			
0.3407	21802.13	3.8450	3.8453	0.9151	25.88	0.43	0.750			
0.3434	21978.24	3.8420	3.8419	0.9319	25.87	0.42	0.750	0.320	0.448	
0.3463	22161.73	3.8390	3.8393	0.9475	25.86	0.41	0.750			
0.3492	22346.36	3.8360	3.8361	0.9500	25.86	0.41	0.750			
0.3521	22531.97	3.8330	3.8331	0.9540	25.85	0.40	0.750			
0.3551	22726.38	3.8300	3.8299	0.9309	25.84	0.39	0.750			
0.3577	22892.80	3.8270	3.8272	0.9455	25.83	0.38	0.750			
0.3605	23073.56	3.8240	3.8241	0.9590	25.82	0.37	0.750			
0.3634	23257.15	3.8210	3.8199	0.9640	25.81	0.36	0.750			
0.3663	23444.54	3.8180	3.8181	0.9675	25.80	0.35	0.750			
0.3692	23631.19	3.8150	3.8154	0.9888	25.80	0.35	0.750			
0.3723	23825.22	3.8120	3.8121	1.0026	25.79	0.34	0.750			
0.3753	24018.85	3.8090	3.8086	0.9995	25.78	0.33	0.750			
0.3783	24211.78	3.8060	3.8061	1.0126	25.77	0.32	0.750			
0.3814	24407.14	3.8030	3.8031	1.0287	25.76	0.31	0.750			
0.3845	24607.87	3.8000	3.8000	1.0453	25.75	0.30	0.750			
0.3877	24812.65	3.7970	3.7968	1.0597	25.73	0.28	0.750			
0.3908	25012.96	3.7940	3.7940	1.0600	25.72	0.27	0.750			
0.3940	25218.33	3.7910	3.7910	1.0759	25.71	0.26	0.750			
0.3973	25424.19	3.7880	3.7881	1.0921	25.70	0.25	0.750			
0.4005	25634.58	3.7850	3.7844	1.1133	25.69	0.24	0.750			
0.4039	25851.05	3.7820	3.7821	1.1105	25.68	0.23	0.750			
0.4072	26061.57	3.7790	3.7791	1.1392	25.67	0.22	0.750			
0.4106	26281.15	3.7760	3.7762	1.1692	25.66	0.21	0.750			
0.4142	26508.72	3.7730	3.7732	1.1954	25.65	0.20	0.750			
0.4178	26738.58	3.7700	3.7702	1.2170	25.64	0.19	0.750			
0.4215	26975.52	3.7670	3.7671	1.2474	25.62	0.17	0.750			
0.4255	27229.66	3.7640	3.7638	1.2338	25.61	0.16	0.750			
0.4291	27459.75	3.7610	3.7611	1.2594	25.60	0.15	0.750			
0.4328	27697.80	3.7580	3.7582	1.2986	25.59	0.14	0.750			
0.4368	27952.69	3.7550	3.7552	1.3147	25.58	0.13	0.750			
0.4407	28204.97	3.7520	3.7523	1.3620	25.57	0.12	0.750			
0.4449	28474.04	3.7490	3.7494	1.3839	25.56	0.11	0.750			
0.4491	28743.73	3.7460	3.7463	1.4360	25.55	0.10	0.750			
0.4536	29030.31	3.7430	3.7432	1.4579	25.54	0.09	0.750			
0.4578	29297.02	3.7400	3.7392	1.4579	25.53	0.08	0.750			
0.4623	29590.00	3.7370	3.7372	1.4892	25.51	0.06	0.750			
0.4670	29885.75	3.7340	3.7331	1.5380	25.50	0.05	0.750			
0.4715	30177.44	3.7310	3.7303	1.5883	25.48	0.03	0.750			
0.4763	30485.65	3.7280	3.7278	1.6281	25.47	0.02	0.750			
0.4813	30805.53	3.7250	3.7255	1.6965	25.46	0.01	0.750			
0.4865	31138.56	3.7220	3.7225	1.7280	25.45	0.00	0.750			
0.4918	31473.92	3.7190	3.7192	1.9127	25.44	-0.01	0.750			
0.4974	31833.35	3.7160	3.7159	1.9481	25.43	-0.02	0.750			
0.5034	32218.67	3.7130	3.7127	2.0558	25.41	-0.04	0.750			
0.5099	32631.88	3.7100	3.7106	2.1719	25.40	-0.05	0.750			
0.5169	33079.03	3.7070	3.7069	2.1872	25.38	-0.07	0.750			
0.5233	33494.21	3.7040	3.7043	2.1546	25.37	-0.08	0.750			
0.5301	33927.40	3.7010	3.7007	2.1946	25.36	-0.09	0.750			
0.5365	34338.31	3.6980	3.6979	2.2069	25.35	-0.10	0.750			
0.5432	34765.75	3.6950	3.6951	2.2694	25.34	-0.11	0.750			
0.5500	35197.17	3.6920	3.6919	2.3022	25.32	-0.13	0.750			
0.5571	35654.66	3.6890	3.6893	2.3280	25.32	-0.13	0.750			
0.5641	36104.38	3.6860	3.6859	2.3169	25.31	-0.14	0.750			
0.5709	36539.66	3.6830	3.6832	2.3393	25.30	-0.15	0.750			
0.5779	36986.00	3.6800	3.6797	2.2919	25.30	-0.15	0.750			
0.5847	37421.93	3.6770	3.6771	2.2263	25.30	-0.15	0.750			
0.5914	37848.55	3.6740	3.6743	2.2176	25.30	-0.15	0.750			
0.5981	38277.52	3.6710	3.6705	2.1296	25.30	-0.15	0.750			
0.6046	38696.61	3.6680	3.6678	2.0876	25.30	-0.15	0.750			
0.6104	39066.29	3.6650	3.6647	1.8969	25.31	-0.14	0.750			
0.6158	39408.12	3.6620	3.6617	1.7531	25.31	-0.14	0.750			
0.6208	39731.34	3.6590	3.6584	1.6197	25.32	-0.13	0.750			
0.6256	40035.60	3.6560	3.6558	1.4950	25.33	-0.12	0.750			
0.6298	40309.83	3.6530	3.6532	1.4182	25.34	-0.11	0.750			
0.6339	40572.52	3.6500	3.6501	1.3265	25.34	-0.11	0.750			
0.6378	40819.19	3.6470	3.6465	1.2364	25.35	-0.10	0.750			
0.6414	41050.57	3.6440	3.6442	1.1829	25.35	-0.10	0.750			
0.6448	41268.28	3.6410	3.6412	1.1238	25.36	-0.09	0.750			
0.6482	41481.64	3.6380	3.6380	1.0790	25.37	-0.08	0.750			
0.6513	41682.61	3.6350	3.6349	1.0132	25.37	-0.08	0.750			
0.6543	41876.53	3.6320	3.6319	0.9534	25.38	-0.07	0.750			
0.6571	42055.04	3.6290	3.6291	0.9255	25.38	-0.07	0.750			
0.6597	42223.73	3.6260	3.6261	0.8979	25.39	-0.06	0.750			
0.6624	42390.93	3.6230	3.6232	0.8652	25.40	-0.05	0.750			
0.6649	42555.13	3.6200	3.6202	0.8351	25.41	-0.04	0.750			
0.6674	42713.61	3.6170	3.6172	0.8073	25.42	-0.03	0.750			
0.6699	42870.57	3.6140	3.6142	0.7711	25.43	-0.02	0.750			
0.6722	43018.50	3.6110	3.6109	0.7192	25.44	-0.01	0.750			
0.6743	43153.36	3.6080	3.6080	0.6506	25.44	-0.01	0.750			
0.6761	43273.14	3.6050	3.6052	0.5860	25.45	0.00	0.750			
0.6778	43378.19	3.6020	3.6025	0.5489	25.46	0.01	0.750			
0.6793	43476.68	3.5990	3.5997	0.5082	25.46	0.01	0.750			
0.6807	43566.85	3.5960	3.5951	0.4717	25.47	0.02	0.750			
0.6821	43657.09	3.5930	3.5939	0.4289	25.48	0.03	0.750			
0.6834	43739.15	3.5900	3.5904	0.3987	25.48	0.03	0.750			
0.6846	43813.59	3.5870	3.5874	0.3542	25.48	0.03	0.750			
0.6856	43879.30	3.5840	3.5843	0.3031	25.49	0.04	0.750			
0.6864	43931.24	3.5810	3.5810	0.2489	25.49	0.04	0.750			
0.6871	43972.49	3.5780	3.5782	0.1964	25.49	0.04	0.750			
0.6876	44003.77	3.5750	3.5755	0.1502	25.50	0.05	0.750			
0.6879	44028.58	3.5720	3.5723	0.1127	25.50	0.05	0.750			
