Ah_balance (normalized)	Ah_balance (mAh)	Voltage - fit (V)	Voltage -  interpolate (V)	dQ/dV (1/V)	Temperature (°C)	Temperature - diff (°C)	Current (C)	R_DC 0ms (mOhm)	R_DC 50ms (mOhm)	R_DC 50 ms PEC (mOhm)
0.0428	2736.75	4.1960	4.1979	3.4650	25.43	1.19	0.543			
0.0520	3326.25	4.1930	4.1975	2.6756	25.40	1.16	0.739			
0.0580	3710.22	4.1900	4.1904	1.8946	25.39	1.15	0.750			
0.0605	3873.57	4.1870	4.1870	0.7617	25.39	1.15	0.750			
0.0628	4017.91	4.1840	4.1840	0.7604	25.38	1.14	0.750			
0.0651	4163.99	4.1810	4.1808	0.7653	25.38	1.14	0.750			
0.0674	4312.25	4.1780	4.1780	0.7684	25.38	1.14	0.750			
0.0697	4460.91	4.1750	4.1751	0.7667	25.37	1.13	0.750			
0.0720	4608.36	4.1720	4.1720	0.7703	25.37	1.13	0.750			
0.0743	4755.92	4.1690	4.1691	0.7730	25.37	1.13	0.750			
0.0766	4903.36	4.1660	4.1659	0.7708	25.36	1.12	0.750			
0.0789	5051.16	4.1630	4.1631	0.7738	25.36	1.12	0.750			
0.0813	5200.22	4.1600	4.1599	0.7742	25.35	1.11	0.750			
0.0836	5349.27	4.1570	4.1571	0.7702	25.35	1.11	0.750			
0.0859	5496.57	4.1540	4.1541	0.7760	25.35	1.11	0.750			
0.0882	5643.93	4.1510	4.1511	0.7771	25.34	1.10	0.750			
0.0905	5793.94	4.1480	4.1481	0.7813	25.34	1.10	0.750			
0.0929	5944.26	4.1450	4.1451	0.7852	25.34	1.10	0.750			
0.0952	6095.81	4.1420	4.1421	0.7807	25.33	1.09	0.750			
0.0976	6246.66	4.1390	4.1390	0.7892	25.33	1.09	0.750			
0.0999	6396.26	4.1360	4.1361	0.7816	25.32	1.08	0.750			
0.1023	6547.20	4.1330	4.1327	0.7828	25.32	1.08	0.750			
0.1046	6696.64	4.1300	4.1301	0.7867	25.32	1.08	0.750			
0.1070	6848.52	4.1270	4.1272	0.7907	25.31	1.07	0.750			
0.1094	7002.02	4.1240	4.1239	0.7943	25.31	1.07	0.750			
0.1118	7153.99	4.1210	4.1209	0.7894	25.31	1.07	0.750			
0.1142	7306.13	4.1180	4.1180	0.7894	25.30	1.06	0.750			
0.1165	7458.20	4.1150	4.1150	0.7936	25.30	1.06	0.750			
0.1190	7614.34	4.1120	4.1119	0.7826	25.29	1.05	0.750			
0.1212	7759.92	4.1090	4.1090	0.7835	25.28	1.04	0.750			
0.1236	7909.55	4.1060	4.1061	0.7887	25.28	1.04	0.750			
0.1259	8060.27	4.1030	4.1032	0.7963	25.27	1.03	0.750			
0.1283	8212.95	4.1000	4.0998	0.8028	25.27	1.03	0.750			
0.1308	8370.72	4.0970	4.0971	0.8009	25.26	1.02	0.750			
0.1332	8524.82	4.0940	4.0941	0.8074	25.26	1.02	0.750			
0.1356	8681.59	4.0910	4.0911	0.8121	25.26	1.02	0.750			
0.1381	8835.91	4.0880	4.0881	0.8049	25.25	1.01	0.750			
0.1405	8989.84	4.0850	4.0848	0.8089	25.25	1.01	0.750			
0.1429	9146.04	4.0820	4.0821	0.8116	25.24	1.00	0.750			
0.1454	9303.04	4.0790	4.0790	0.8168	25.24	1.00	0.750			
0.1478	9461.11	4.0760	4.0760	0.8217	25.23	0.99	0.750			
0.1503	9618.40	4.0730	4.0730	0.8201	25.23	0.99	0.750			
0.1528	9776.09	4.0700	4.0700	0.8234	25.22	0.98	0.750			
0.1552	9935.35	4.0670	4.0670	0.8241	25.22	0.98	0.750			
0.1577	10093.02	4.0640	4.0640	0.8207	25.21	0.97	0.750			
0.1601	10249.53	4.0610	4.0611	0.8268	25.21	0.97	0.750			
0.1626	10408.01	4.0580	4.0580	0.8294	25.20	0.96	0.750			
0.1651	10567.49	4.0550	4.0550	0.8317	25.20	0.96	0.750			
0.1677	10730.54	4.0520	4.0520	0.8174	25.19	0.95	0.750			
0.1702	10889.77	4.0490	4.0491	0.7924	25.19	0.95	0.750			
0.1725	11038.56	4.0460	4.0462	0.8036	25.18	0.94	0.750			
0.1748	11186.79	4.0430	4.0431	0.7973	25.18	0.94	0.750			
0.1771	11337.34	4.0400	4.0394	0.8091	25.17	0.93	0.750			
0.1796	11492.84	4.0370	4.0370	0.8260	25.16	0.92	0.750			
0.1821	11655.26	4.0340	4.0342	0.8349	25.16	0.92	0.750			
0.1847	11820.20	4.0310	4.0311	0.8533	25.15	0.91	0.750			
0.1873	11986.65	4.0280	4.0281	0.8505	25.15	0.91	0.750			
0.1899	12152.09	4.0250	4.0246	0.8541	25.14	0.90	0.750			
0.1924	12314.99	4.0220	4.0221	0.8560	25.14	0.90	0.750			
0.1950	12479.96	4.0190	4.0191	0.8469	25.13	0.89	0.750			
0.1975	12640.02	4.0160	4.0161	0.8556	25.13	0.89	0.750			
0.2001	12806.55	4.0130	4.0130	0.8463	25.12	0.88	0.750			
0.2026	12966.79	4.0100	4.0092	0.8555	25.12	0.88	0.750			
0.2052	13134.20	4.0070	4.0073	0.8648	25.11	0.87	0.750			
0.2078	13300.73	4.0040	4.0043	0.8721	25.11	0.87	0.750			
0.2105	13470.51	4.0010	4.0012	0.8824	25.10	0.86	0.750			
0.2132	13644.68	3.9980	3.9981	0.8899	25.09	0.85	0.750			
0.2157	13807.23	3.9950	3.9950	0.8736	25.09	0.85	0.750			
0.2184	13980.14	3.9920	3.9921	0.8747	25.08	0.84	0.750			
0.2210	14146.30	3.9890	3.9891	0.8713	25.08	0.84	0.750			
0.2237	14313.89	3.9860	3.9860	0.8802	25.07	0.83	0.750			
0.2263	14482.33	3.9830	3.9830	0.8783	25.06	0.82	0.750			
0.2289	14650.95	3.9800	3.9801	0.8843	25.06	0.82	0.750			
0.2317	14825.82	3.9770	3.9770	0.8796	25.05	0.81	0.750			
0.2343	14992.81	3.9740	3.9741	0.8880	25.04	0.80	0.750			
0.2370	15164.91	3.9710	3.9710	0.8900	25.04	0.80	0.750			
0.2395	15330.59	3.9680	3.9679	0.8954	25.03	0.79	0.750			
0.2423	15504.54	3.9650	3.9651	0.9022	25.02	0.78	0.750			
0.2450	15679.04	3.9620	3.9620	0.9154	25.02	0.78	0.750			
0.2478	15857.52	3.9590	3.9589	0.9187	25.01	0.77	0.750			
0.2506	16039.90	3.9560	3.9562	0.9252	25.00	0.76	0.750			
0.2533	16214.21	3.9530	3.9531	0.9113	25.00	0.76	0.750			
0.2561	16390.66	3.9500	3.9500	0.9007	24.98	0.74	0.750			
0.2587	16558.21	3.9470	3.9470	0.8907	24.97	0.73	0.750			
0.2614	16729.54	3.9440	3.9439	0.8949	24.96	0.72	0.750			
0.2641	16900.69	3.9410	3.9409	0.8902	24.94	0.70	0.750			
0.2668	17072.01	3.9380	3.9381	0.8935	24.93	0.69	0.750			
0.2695	17244.96	3.9350	3.9350	0.8896	24.93	0.69	0.750			
0.2721	17416.46	3.9320	3.9319	0.8877	24.92	0.68	0.750			
0.2748	17584.95	3.9290	3.9291	0.8804	24.91	0.67	0.750			
0.2775	17756.98	3.9260	3.9256	0.8681	24.90	0.66	0.750			
0.2801	17925.83	3.9230	3.9230	0.8428	24.89	0.65	0.750			
0.2825	18080.38	3.9200	3.9202	0.8590	24.88	0.64	0.750			
0.2850	18238.75	3.9170	3.9174	0.8754	24.86	0.62	0.750			
0.2876	18408.86	3.9140	3.9135	0.8973	24.85	0.61	0.750			
0.2904	18582.51	3.9110	3.9115	0.9033	24.84	0.60	0.750			
0.2931	18760.91	3.9080	3.9084	0.9163	24.82	0.58	0.750			
0.2961	18949.40	3.9050	3.9050	0.9314	24.81	0.57	0.750			
0.2988	19125.75	3.9020	3.9019	0.9140	24.80	0.56	0.750			
0.3014	19292.60	3.8990	3.8990	0.8958	24.78	0.54	0.750			
0.3041	19465.32	3.8960	3.8960	0.8970	24.77	0.53	0.750			
0.3069	19639.78	3.8930	3.8929	0.8877	24.76	0.52	0.750			
0.3095	19808.03	3.8900	3.8902	0.8902	24.75	0.51	0.750			
0.3121	19977.35	3.8870	3.8870	0.8893	24.73	0.49	0.750			
0.3148	20146.84	3.8840	3.8835	0.8901	24.72	0.48	0.750			
0.3175	20320.82	3.8810	3.8811	0.8768	24.71	0.47	0.750			
0.3202	20490.18	3.8780	3.8780	0.8599	24.69	0.45	0.750			
0.3226	20649.34	3.8750	3.8753	0.8817	24.68	0.44	0.750			
0.3252	20813.97	3.8720	3.8724	0.8838	24.67	0.43	0.750			
0.3279	20986.18	3.8690	3.8679	0.8972	24.66	0.42	0.750			
0.3307	21162.48	3.8660	3.8664	0.9041	24.64	0.40	0.750			
0.3334	21340.48	3.8630	3.8633	0.9186	24.63	0.39	0.750			
0.3364	21528.86	3.8600	3.8600	0.9371	24.62	0.38	0.750			
0.3390	21698.17	3.8570	3.8569	0.9008	24.60	0.36	0.750			
0.3417	21871.44	3.8540	3.8541	0.9090	24.59	0.35	0.750			
0.3445	22047.66	3.8510	3.8510	0.9082	24.57	0.33	0.750			
0.3472	22222.36	3.8480	3.8481	0.9156	24.55	0.31	0.750			
0.3500	22398.46	3.8450	3.8451	0.9157	24.54	0.30	0.750			
0.3527	22574.86	3.8420	3.8420	0.9206	24.52	0.28	0.750			
0.3556	22755.62	3.8390	3.8391	0.9137	24.50	0.26	0.750			
0.3583	22928.36	3.8360	3.8361	0.9074	24.49	0.25	0.750			
0.3609	23099.93	3.8330	3.8332	0.9207	24.48	0.24	0.750			
0.3637	23274.16	3.8300	3.8303	0.9199	24.47	0.23	0.750			
0.3665	23453.52	3.8270	3.8267	0.9258	24.45	0.21	0.750			
0.3693	23632.74	3.8240	3.8242	0.9357	24.44	0.20	0.750			
0.3721	23815.55	3.8210	3.8212	0.9465	24.42	0.18	0.750			
0.3751	24004.83	3.8180	3.8180	0.9611	24.40	0.16	0.750			
0.3779	24182.42	3.8150	3.8148	0.9380	24.39	0.15	0.750			
0.3807	24363.96	3.8120	3.8121	0.9344	24.37	0.13	0.750			
0.3835	24544.00	3.8090	3.8091	0.9384	24.36	0.12	0.750			
0.3863	24723.09	3.8060	3.8060	0.9409	24.34	0.10	0.750			
0.3891	24902.98	3.8030	3.8028	0.9387	24.32	0.08	0.750			
0.3919	25083.07	3.8000	3.8000	0.9348	24.31	0.07	0.750			
0.3948	25264.23	3.7970	3.7970	0.9233	24.30	0.06	0.750			
0.3975	25442.25	3.7940	3.7942	0.9183	24.30	0.06	0.750			
0.4003	25620.74	3.7910	3.7910	0.9021	24.29	0.05	0.750			
0.4030	25793.23	3.7880	3.7880	0.8713	24.28	0.04	0.750			
0.4056	25959.06	3.7850	3.7851	0.8362	24.27	0.03	0.750			
0.4081	26118.67	3.7820	3.7822	0.7839	24.26	0.02	0.750			
0.4105	26270.84	3.7790	3.7790	0.7346	24.25	0.01	0.750			
0.4126	26404.76	3.7760	3.7760	0.6671	24.25	0.01	0.750			
0.4145	26525.88	3.7730	3.7730	0.6020	24.24	0.00	0.750			
0.4162	26635.01	3.7700	3.7700	0.5422	24.24	-0.00	0.750			
0.4177	26730.39	3.7670	3.7670	0.4874	24.23	-0.01	0.750			
0.4190	26817.43	3.7640	3.7641	0.4377	24.23	-0.01	0.750			
0.4202	26895.80	3.7610	3.7609	0.3969	24.22	-0.02	0.750			
0.4214	26967.04	3.7580	3.7580	0.3612	24.22	-0.02	0.750			
0.4224	27032.18	3.7550	3.7551	0.3265	24.22	-0.02	0.750			
0.4233	27092.46	3.7520	3.7520	0.2989	24.21	-0.03	0.750			
0.4242	27146.90	3.7490	3.7489	0.2688	24.21	-0.03	0.750			
0.4249	27195.65	3.7460	3.7460	0.2384	24.21	-0.03	0.750			
0.4256	27239.14	3.7430	3.7429	0.2098	24.21	-0.03	0.750			
0.4262	27275.97	3.7400	3.7400	0.1791	24.20	-0.04	0.750			
0.4267	27308.18	3.7370	3.7372	0.1471	24.20	-0.04	0.750			
0.4271	27333.27	3.7340	3.7343	0.1192	24.20	-0.04	0.750			
