Ah_balance (normalized)	Ah_balance (mAh)	Voltage - fit (V)	Voltage -  interpolate (V)	dQ/dV (1/V)	Temperature (°C)	Temperature - diff (°C)	Current (C)	R_DC 0ms (mOhm)	R_DC 50ms (mOhm)	R_DC 50 ms PEC (mOhm)
0.0473	3028.75	4.1970	4.1970	0.7797	25.31	0.49	0.750			
0.0495	3171.19	4.1940	4.1941	0.7491	25.31	0.49	0.750			
0.0518	3314.94	4.1910	4.1911	0.7536	25.32	0.50	0.750			
0.0541	3460.07	4.1880	4.1877	0.7609	25.32	0.50	0.750			
0.0563	3605.57	4.1850	4.1851	0.7639	25.32	0.50	0.750			
0.0587	3755.91	4.1820	4.1820	0.7619	25.33	0.51	0.750			
0.0610	3903.29	4.1790	4.1791	0.7698	25.33	0.51	0.750			
0.0633	4049.76	4.1760	4.1761	0.7645	25.33	0.51	0.750			
0.0656	4196.47	4.1730	4.1731	0.7694	25.34	0.52	0.750			
0.0679	4343.86	4.1700	4.1701	0.7725	25.34	0.52	0.750			
0.0702	4493.15	4.1670	4.1670	0.7754	25.34	0.52	0.750			
0.0726	4644.31	4.1640	4.1641	0.7813	25.34	0.52	0.750			
0.0749	4795.83	4.1610	4.1609	0.7836	25.35	0.53	0.750			
0.0773	4944.64	4.1580	4.1580	0.7797	25.35	0.53	0.750			
0.0796	5094.15	4.1550	4.1550	0.7804	25.35	0.53	0.750			
0.0819	5244.09	4.1520	4.1520	0.7807	25.35	0.53	0.750			
0.0843	5397.98	4.1490	4.1489	0.7705	25.35	0.53	0.750			
0.0866	5542.49	4.1460	4.1461	0.7780	25.35	0.53	0.750			
0.0889	5691.86	4.1430	4.1431	0.7803	25.35	0.53	0.750			
0.0913	5840.90	4.1400	4.1398	0.7809	25.35	0.53	0.750			
0.0936	5991.10	4.1370	4.1371	0.7851	25.35	0.53	0.750			
0.0960	6145.10	4.1340	4.1341	0.7756	25.35	0.53	0.750			
0.0983	6292.84	4.1310	4.1311	0.7834	25.36	0.54	0.750			
0.1007	6441.65	4.1280	4.1281	0.7820	25.36	0.54	0.750			
0.1030	6592.31	4.1250	4.1251	0.7899	25.36	0.54	0.750			
0.1054	6743.74	4.1220	4.1218	0.7984	25.36	0.54	0.750			
0.1078	6899.64	4.1190	4.1191	0.8013	25.36	0.54	0.750			
0.1102	7055.16	4.1160	4.1160	0.8076	25.36	0.54	0.750			
0.1127	7212.08	4.1130	4.1131	0.8079	25.37	0.55	0.750			
0.1151	7366.79	4.1100	4.1100	0.8048	25.37	0.55	0.750			
0.1175	7520.11	4.1070	4.1071	0.8068	25.37	0.55	0.750			
0.1199	7676.22	4.1040	4.1040	0.8106	25.37	0.55	0.750			
0.1224	7832.42	4.1010	4.1010	0.8059	25.37	0.55	0.750			
0.1248	7987.11	4.0980	4.0980	0.8098	25.37	0.55	0.750			
0.1272	8141.34	4.0950	4.0951	0.8113	25.37	0.55	0.750			
0.1297	8297.93	4.0920	4.0921	0.8123	25.37	0.55	0.750			
0.1321	8453.03	4.0890	4.0890	0.8112	25.37	0.55	0.750			
0.1346	8611.41	4.0860	4.0860	0.8008	25.37	0.55	0.750			
0.1369	8763.03	4.0830	4.0831	0.8116	25.37	0.55	0.750			
0.1393	8916.52	4.0800	4.0801	0.8139	25.37	0.55	0.750			
0.1418	9072.39	4.0770	4.0763	0.8238	25.37	0.55	0.750			
0.1442	9231.14	4.0740	4.0742	0.8315	25.37	0.55	0.750			
0.1468	9394.02	4.0710	4.0711	0.8404	25.37	0.55	0.750			
0.1494	9560.00	4.0680	4.0680	0.8491	25.38	0.56	0.750			
0.1520	9725.82	4.0650	4.0649	0.8559	25.38	0.56	0.750			
0.1544	9883.86	4.0620	4.0619	0.8388	25.38	0.56	0.750			
0.1570	10044.95	4.0590	4.0591	0.8395	25.38	0.56	0.750			
0.1595	10207.20	4.0560	4.0560	0.8265	25.38	0.56	0.750			
0.1619	10362.95	4.0530	4.0531	0.8350	25.38	0.56	0.750			
0.1644	10520.10	4.0500	4.0501	0.8344	25.38	0.56	0.750			
0.1669	10681.07	4.0470	4.0461	0.8459	25.38	0.56	0.750			
0.1694	10844.04	4.0440	4.0442	0.8533	25.38	0.56	0.750			
0.1721	11014.96	4.0410	4.0410	0.8432	25.38	0.56	0.750			
0.1747	11178.34	4.0380	4.0381	0.8492	25.39	0.57	0.750			
0.1771	11334.59	4.0350	4.0352	0.8499	25.39	0.57	0.750			
0.1797	11498.06	4.0320	4.0317	0.8649	25.39	0.57	0.750			
0.1823	11665.95	4.0290	4.0292	0.8668	25.40	0.58	0.750			
0.1849	11833.96	4.0260	4.0263	0.8757	25.40	0.58	0.750			
0.1876	12008.92	4.0230	4.0231	0.8860	25.41	0.59	0.750			
0.1904	12184.09	4.0200	4.0200	0.8938	25.42	0.60	0.750			
0.1929	12346.41	4.0170	4.0171	0.8729	25.42	0.60	0.750			
0.1956	12515.52	4.0140	4.0140	0.8629	25.42	0.60	0.750			
0.1981	12680.87	4.0110	4.0110	0.8739	25.43	0.61	0.750			
0.2008	12848.38	4.0080	4.0082	0.8825	25.43	0.61	0.750			
0.2033	13012.90	4.0050	4.0050	0.9058	25.43	0.61	0.750			
0.2061	13190.35	4.0020	4.0021	0.9241	25.43	0.61	0.750			
0.2089	13371.70	3.9990	3.9989	0.9402	25.43	0.61	0.750			
0.2118	13557.37	3.9960	3.9960	0.9554	25.44	0.62	0.750			
0.2148	13750.08	3.9930	3.9933	0.9625	25.44	0.62	0.750			
0.2177	13933.44	3.9900	3.9899	0.9486	25.44	0.62	0.750			
0.2205	14114.11	3.9870	3.9869	0.9371	25.44	0.62	0.750			
0.2232	14285.97	3.9840	3.9840	0.9127	25.45	0.63	0.750			
0.2260	14462.80	3.9810	3.9811	0.9161	25.45	0.63	0.750			
0.2287	14638.25	3.9780	3.9779	0.9121	25.45	0.63	0.750			
0.2315	14814.36	3.9750	3.9750	0.9091	25.45	0.63	0.750			
0.2342	14988.10	3.9720	3.9720	0.9127	25.45	0.63	0.750			
0.2369	15162.77	3.9690	3.9690	0.9161	25.46	0.64	0.750			
0.2397	15338.91	3.9660	3.9660	0.9211	25.46	0.64	0.750			
0.2424	15516.05	3.9630	3.9629	0.9238	25.46	0.64	0.750			
0.2452	15694.92	3.9600	3.9600	0.9166	25.46	0.64	0.750			
0.2480	15871.19	3.9570	3.9570	0.9286	25.46	0.64	0.750			
0.2508	16049.57	3.9540	3.9541	0.9324	25.47	0.65	0.750			
0.2536	16227.49	3.9510	3.9508	0.9325	25.47	0.65	0.750			
0.2564	16408.48	3.9480	3.9481	0.9351	25.47	0.65	0.750			
0.2592	16588.46	3.9450	3.9450	0.9389	25.47	0.65	0.750			
0.2620	16769.51	3.9420	3.9420	0.9435	25.47	0.65	0.750			
0.2649	16952.69	3.9390	3.9390	0.9477	25.47	0.65	0.750			
0.2677	17132.27	3.9360	3.9360	0.9447	25.47	0.65	0.750			
0.2706	17315.26	3.9330	3.9330	0.9392	25.47	0.65	0.750			
0.2734	17494.79	3.9300	3.9301	0.9407	25.48	0.66	0.750			
0.2762	17674.93	3.9270	3.9270	0.9462	25.48	0.66	0.750			
0.2790	17855.15	3.9240	3.9237	0.9508	25.48	0.66	0.750			
0.2819	18041.80	3.9210	3.9210	0.9445	25.48	0.66	0.750			
0.2847	18222.31	3.9180	3.9181	0.9544	25.48	0.66	0.750			
0.2876	18406.54	3.9150	3.9150	0.9655	25.49	0.67	0.750			
0.2905	18593.35	3.9120	3.9122	0.9736	25.49	0.67	0.750			
0.2934	18777.89	3.9090	3.9091	0.9717	25.49	0.67	0.750			
0.2963	18965.69	3.9060	3.9061	0.9747	25.49	0.67	0.750			
0.2993	19154.74	3.9030	3.9031	0.9787	25.49	0.67	0.750			
0.3023	19344.33	3.9000	3.9001	0.9819	25.49	0.67	0.750			
0.3052	19532.49	3.8970	3.8970	0.9756	25.49	0.67	0.750			
0.3081	19719.17	3.8940	3.8940	0.9738	25.49	0.67	0.750			
0.3110	19904.24	3.8910	3.8911	0.9757	25.49	0.67	0.750			
0.3139	20090.75	3.8880	3.8881	0.9872	25.49	0.67	0.750			
0.3169	20281.23	3.8850	3.8845	0.9968	25.49	0.67	0.750			
0.3199	20473.87	3.8820	3.8821	0.9989	25.49	0.67	0.750			
0.3229	20666.28	3.8790	3.8791	1.0087	25.49	0.67	0.750			
0.3260	20864.18	3.8760	3.8761	1.0144	25.48	0.66	0.750			
0.3290	21057.84	3.8730	3.8727	1.0069	25.48	0.66	0.750			
0.3321	21253.22	3.8700	3.8700	1.0066	25.48	0.66	0.750			
0.3351	21445.21	3.8670	3.8670	1.0049	25.48	0.66	0.750			
0.3381	21638.93	3.8640	3.8640	1.0055	25.47	0.65	0.750			
0.3411	21831.75	3.8610	3.8610	1.0077	25.47	0.65	0.750			
0.3441	22022.15	3.8580	3.8579	1.0041	25.47	0.65	0.750			
0.3471	22215.30	3.8550	3.8550	1.0184	25.47	0.65	0.750			
0.3502	22411.29	3.8520	3.8520	1.0265	25.47	0.65	0.750			
0.3533	22610.82	3.8490	3.8489	1.0309	25.47	0.65	0.750			
0.3564	22812.34	3.8460	3.8460	1.0224	25.47	0.65	0.750			
0.3595	23006.65	3.8430	3.8431	1.0347	25.46	0.64	0.750			
0.3625	23202.28	3.8400	3.8401	1.0473	25.46	0.64	0.750			
0.3656	23400.88	3.8370	3.8370	1.0556	25.45	0.63	0.750			
0.3688	23606.37	3.8340	3.8337	1.0655	25.44	0.62	0.750	0.308	0.419	
0.3721	23814.22	3.8310	3.8312	1.0830	25.43	0.61	0.750			
0.3754	24026.48	3.8280	3.8281	1.0910	25.42	0.60	0.750			
0.3788	24241.75	3.8250	3.8249	1.0971	25.40	0.58	0.750			
0.3820	24445.79	3.8220	3.8220	1.0822	25.39	0.57	0.750			
0.3852	24654.18	3.8190	3.8190	1.0871	25.39	0.57	0.750			
0.3885	24863.25	3.8160	3.8160	1.0907	25.38	0.56	0.750			
0.3918	25074.08	3.8130	3.8129	1.0947	25.37	0.55	0.750			
0.3950	25282.62	3.8100	3.8100	1.0866	25.36	0.54	0.750			
0.3983	25489.91	3.8070	3.8071	1.0927	25.35	0.53	0.750			
0.4015	25698.03	3.8040	3.8041	1.1002	25.35	0.53	0.750			
0.4048	25909.31	3.8010	3.8007	1.1156	25.34	0.52	0.750			
0.4082	26122.60	3.7980	3.7981	1.1260	25.33	0.51	0.750			
0.4116	26342.02	3.7950	3.7950	1.1382	25.32	0.50	0.750			
0.4151	26565.20	3.7920	3.7920	1.1529	25.31	0.49	0.750			
0.4185	26785.63	3.7890	3.7890	1.1534	25.29	0.47	0.750			
0.4220	27007.78	3.7860	3.7860	1.1664	25.28	0.46	0.750			
0.4255	27233.17	3.7830	3.7830	1.1796	25.27	0.45	0.750			
0.4291	27459.98	3.7800	3.7798	1.1878	25.25	0.43	0.750			
0.4327	27689.62	3.7770	3.7771	1.2050	25.24	0.42	0.750			
0.4363	27923.75	3.7740	3.7740	1.2189	25.23	0.41	0.750			
0.4400	28159.92	3.7710	3.7709	1.2344	25.22	0.40	0.750			
0.4437	28394.06	3.7680	3.7682	1.2520	25.20	0.38	0.750			
0.4474	28635.48	3.7650	3.7650	1.2783	25.19	0.37	0.750			
0.4513	28884.97	3.7620	3.7620	1.3054	25.18	0.36	0.750			
0.4553	29136.76	3.7590	3.7590	1.3403	25.17	0.35	0.750			
0.4593	29396.05	3.7560	3.7561	1.3607	25.15	0.33	0.750			
0.4636	29669.57	3.7530	3.7530	1.3848	25.13	0.31	0.750			
0.4677	29930.65	3.7500	3.7502	1.4192	25.12	0.30	0.750			
0.4719	30201.66	3.7470	3.7465	1.4463	25.11	0.29	0.750			
0.4763	30484.67	3.7440	3.7444	1.4920	25.10	0.28	0.750			
0.4809	30777.55	3.7410	3.7407	1.5412	25.09	0.27	0.750			
0.4855	31073.01	3.7380	3.7375	1.6103	25.07	0.25	0.750			
0.4905	31393.42	3.7350	3.7353	1.6288	25.05	0.23	0.750			
0.4955	31712.46	3.7320	3.7318	1.7042	25.04	0.22	0.750			
0.5007	32043.62	3.7290	3.7290	1.7239	25.03	0.21	0.750			
0.5060	32386.54	3.7260	3.7259	1.7482	25.01	0.19	0.750			
0.5114	32730.03	3.7230	3.7230	1.8129	25.00	0.18	0.750			
0.5168	33076.33	3.7200	3.7193	1.8508	24.98	0.16	0.750			
0.5224	33433.02	3.7170	3.7168	1.9295	24.96	0.14	0.750			
0.5282	33802.46	3.7140	3.7139	1.9211	24.94	0.12	0.750			
0.5340	34174.50	3.7110	3.7115	2.0124	24.93	0.11	0.750			
0.5402	34571.51	3.7080	3.7083	2.0948	24.91	0.09	0.750			
0.5466	34984.62	3.7050	3.7053	2.1447	24.88	0.06	0.750			
0.5531	35401.02	3.7020	3.7021	2.1971	24.86	0.04	0.750			
0.5597	35819.59	3.6990	3.6986	2.3058	24.85	0.03	0.750			
0.5668	36277.36	3.6960	3.6965	2.3545	24.83	0.01	0.750			
0.5741	36744.64	3.6930	3.6928	2.4444	24.81	-0.01	0.750			
0.5817	37231.10	3.6900	3.6901	2.5505	24.79	-0.03	0.750			
0.5895	37730.64	3.6870	3.6874	2.6792	24.78	-0.04	0.750			
0.5976	38245.78	3.6840	3.6844	2.6675	24.77	-0.05	0.750			
0.6055	38752.94	3.6810	3.6809	2.6666	24.75	-0.07	0.750			
0.6136	39267.56	3.6780	3.6785	2.7523	24.74	-0.08	0.750			
0.6219	39801.11	3.6750	3.6753	2.9042	24.73	-0.09	0.750			
0.6302	40331.62	3.6720	3.6721	2.9255	24.72	-0.10	0.750			
0.6392	40906.23	3.6690	3.6685	2.9658	24.72	-0.10	0.750			
0.6478	41456.03	3.6660	3.6659	3.0346	24.71	-0.11	0.750			
0.6567	42031.45	3.6630	3.6628	2.8273	24.70	-0.12	0.750			
0.6651	42567.23	3.6600	3.6603	2.8283	24.72	-0.10	0.750			
0.6730	43069.87	3.6570	3.6574	2.5002	24.72	-0.10	0.750			
0.6798	43505.58	3.6540	3.6541	2.2610	24.72	-0.10	0.750			
0.6861	43909.38	3.6510	3.6508	2.0360	24.74	-0.08	0.750			
0.6917	44268.92	3.6480	3.6476	1.8139	24.75	-0.07	0.750			
0.6966	44583.20	3.6450	3.6452	1.5645	24.75	-0.07	0.750			
0.7008	44853.21	3.6420	3.6423	1.3657	24.76	-0.06	0.750			
0.7046	45096.86	3.6390	3.6383	1.2100	24.76	-0.06	0.750			
0.7079	45306.03	3.6360	3.6363	1.0754	24.77	-0.05	0.750			
0.7109	45498.85	3.6330	3.6331	0.9868	24.78	-0.04	0.750			
0.7137	45674.32	3.6300	3.6300	0.9296	24.78	-0.04	0.750			
0.7164	45849.34	3.6270	3.6268	0.8959	24.79	-0.03	0.750			
0.7188	46004.08	3.6240	3.6240	0.8432	24.79	-0.03	0.750			
0.7214	46167.95	3.6210	3.6209	0.8152	24.80	-0.02	0.750			
0.7238	46322.35	3.6180	3.6181	0.7910	24.81	-0.01	0.750			
0.7261	46472.91	3.6150	3.6151	0.7574	24.81	-0.01	0.750			
0.7284	46619.09	3.6120	3.6120	0.7101	24.82	-0.00	0.750			
0.7305	46751.16	3.6090	3.6091	0.6497	24.82	0.00	0.750			
0.7324	46874.98	3.6060	3.6061	0.5724	24.83	0.01	0.750			
0.7340	46978.26	3.6030	3.6031	0.4999	24.83	0.01	0.750			
0.7354	47067.04	3.6000	3.6001	0.4320	24.83	0.01	0.750			
0.7365	47137.16	3.5970	3.5973	0.3598	24.84	0.02	0.750			
0.7375	47197.59	3.5940	3.5944	0.2930	24.84	0.02	0.750			
0.7382	47247.47	3.5910	3.5915	0.2362	24.84	0.02	0.750			
0.7389	47287.01	3.5880	3.5890	0.1832	24.84	0.02	0.750			
0.7394	47323.26	3.5850	3.5857	0.1115	24.84	0.02	0.750			
0.7396	47336.84	3.5820	3.5833	0.0319	24.84	0.02	0.750			
