Ah_balance (normalized)	Ah_balance (mAh)	Voltage - fit (V)	Voltage -  interpolate (V)	dQ/dV (1/V)	Temperature (°C)	Temperature - diff (°C)	Current (C)	R_DC 0ms (mOhm)	R_DC 50ms (mOhm)	R_DC 50 ms PEC (mOhm)
0.0470	3006.32	4.1980	4.1979	0.7758	25.40	0.44	0.750			
0.0493	3153.89	4.1950	4.1951	0.7702	25.40	0.44	0.750			
0.0516	3303.59	4.1920	4.1919	0.7713	25.40	0.44	0.750			
0.0539	3450.88	4.1890	4.1890	0.7690	25.40	0.44	0.750			
0.0562	3598.02	4.1860	4.1859	0.7694	25.40	0.44	0.750			
0.0585	3745.30	4.1830	4.1831	0.7687	25.40	0.44	0.750			
0.0608	3892.84	4.1800	4.1799	0.7700	25.40	0.44	0.750			
0.0631	4040.29	4.1770	4.1771	0.7697	25.40	0.44	0.750			
0.0654	4188.04	4.1740	4.1740	0.7729	25.40	0.44	0.750			
0.0678	4337.26	4.1710	4.1710	0.7773	25.41	0.45	0.750			
0.0701	4485.75	4.1680	4.1680	0.7786	25.41	0.45	0.750			
0.0724	4635.05	4.1650	4.1650	0.7792	25.41	0.45	0.750			
0.0748	4785.51	4.1620	4.1620	0.7831	25.41	0.45	0.750			
0.0771	4935.76	4.1590	4.1590	0.7825	25.41	0.45	0.750			
0.0795	5086.75	4.1560	4.1560	0.7819	25.42	0.46	0.750			
0.0818	5236.68	4.1530	4.1530	0.7806	25.42	0.46	0.750			
0.0842	5386.20	4.1500	4.1499	0.7828	25.42	0.46	0.750			
0.0865	5536.11	4.1470	4.1471	0.7828	25.42	0.46	0.750			
0.0889	5687.77	4.1440	4.1440	0.7814	25.42	0.46	0.750			
0.0912	5837.13	4.1410	4.1410	0.7848	25.43	0.47	0.750			
0.0935	5985.52	4.1380	4.1382	0.8019	25.43	0.47	0.750			
0.0959	6139.47	4.1350	4.1349	0.8123	25.43	0.47	0.750			
0.0984	6298.55	4.1320	4.1319	0.8171	25.43	0.47	0.750			
0.1009	6459.10	4.1290	4.1290	0.8172	25.43	0.47	0.750			
0.1034	6617.40	4.1260	4.1262	0.8201	25.43	0.47	0.750			
0.1059	6776.29	4.1230	4.1231	0.8266	25.43	0.47	0.750			
0.1083	6933.19	4.1200	4.1199	0.8180	25.43	0.47	0.750			
0.1107	7087.79	4.1170	4.1170	0.8095	25.43	0.47	0.750			
0.1132	7246.05	4.1140	4.1141	0.8092	25.43	0.47	0.750			
0.1156	7401.58	4.1110	4.1113	0.8088	25.43	0.47	0.750			
0.1181	7558.30	4.1080	4.1078	0.8079	25.43	0.47	0.750			
0.1205	7709.07	4.1050	4.1051	0.8043	25.43	0.47	0.750			
0.1228	7860.28	4.1020	4.1020	0.8026	25.43	0.47	0.750			
0.1253	8017.24	4.0990	4.0990	0.8099	25.43	0.47	0.750			
0.1277	8174.60	4.0960	4.0960	0.8168	25.43	0.47	0.750			
0.1302	8331.35	4.0930	4.0930	0.8215	25.43	0.47	0.750			
0.1327	8489.82	4.0900	4.0901	0.8238	25.43	0.47	0.750			
0.1351	8648.74	4.0870	4.0869	0.8271	25.43	0.47	0.750			
0.1376	8809.02	4.0840	4.0840	0.8235	25.43	0.47	0.750			
0.1401	8966.75	4.0810	4.0810	0.8291	25.43	0.47	0.750			
0.1426	9125.90	4.0780	4.0780	0.8306	25.44	0.48	0.750			
0.1451	9284.68	4.0750	4.0750	0.8345	25.44	0.48	0.750			
0.1476	9444.39	4.0720	4.0720	0.8368	25.44	0.48	0.750			
0.1501	9607.29	4.0690	4.0690	0.8359	25.44	0.48	0.750			
0.1526	9768.47	4.0660	4.0660	0.8419	25.44	0.48	0.750			
0.1552	9929.61	4.0630	4.0631	0.8476	25.43	0.47	0.750			
0.1577	10091.51	4.0600	4.0600	0.8472	25.43	0.47	0.750			
0.1602	10255.30	4.0570	4.0571	0.8509	25.43	0.47	0.750			
0.1628	10419.44	4.0540	4.0540	0.8508	25.44	0.48	0.750			
0.1654	10583.54	4.0510	4.0511	0.8575	25.44	0.48	0.750			
0.1680	10748.82	4.0480	4.0480	0.8600	25.44	0.48	0.750			
0.1705	10913.15	4.0450	4.0450	0.8586	25.45	0.49	0.750			
0.1731	11078.01	4.0420	4.0420	0.8603	25.45	0.49	0.750			
0.1757	11244.49	4.0390	4.0390	0.8623	25.45	0.49	0.750			
0.1783	11409.57	4.0360	4.0360	0.8669	25.45	0.49	0.750			
0.1809	11575.69	4.0330	4.0330	0.8726	25.45	0.49	0.750			
0.1835	11742.53	4.0300	4.0299	0.8750	25.45	0.49	0.750			
0.1861	11911.99	4.0270	4.0270	0.8816	25.45	0.49	0.750			
0.1888	12083.00	4.0240	4.0240	0.8835	25.45	0.49	0.750			
0.1915	12252.91	4.0210	4.0211	0.8870	25.45	0.49	0.750			
0.1941	12424.20	4.0180	4.0180	0.8893	25.45	0.49	0.750			
0.1968	12593.62	4.0150	4.0148	0.8874	25.45	0.49	0.750			
0.1994	12763.69	4.0120	4.0120	0.8850	25.45	0.49	0.750			
0.2021	12933.73	4.0090	4.0090	0.8878	25.45	0.49	0.750			
0.2047	13103.98	4.0060	4.0061	0.8956	25.46	0.50	0.750			
0.2074	13276.16	4.0030	4.0030	0.9033	25.46	0.50	0.750			
0.2102	13449.98	4.0000	4.0000	0.9028	25.46	0.50	0.750			
0.2129	13626.03	3.9970	3.9970	0.9010	25.46	0.50	0.750			
0.2156	13799.26	3.9940	3.9941	0.9070	25.46	0.50	0.750			
0.2183	13973.42	3.9910	3.9911	0.9109	25.46	0.50	0.750			
0.2210	14147.14	3.9880	3.9879	0.9101	25.46	0.50	0.750			
0.2238	14321.85	3.9850	3.9851	0.9093	25.46	0.50	0.750			
0.2265	14496.29	3.9820	3.9821	0.9130	25.46	0.50	0.750			
0.2293	14672.50	3.9790	3.9790	0.9233	25.47	0.51	0.750			
0.2321	14851.62	3.9760	3.9760	0.9289	25.47	0.51	0.750			
0.2348	15029.15	3.9730	3.9729	0.9252	25.47	0.51	0.750			
0.2376	15207.63	3.9700	3.9701	0.9249	25.47	0.51	0.750			
0.2404	15385.62	3.9670	3.9671	0.9324	25.47	0.51	0.750			
0.2432	15565.17	3.9640	3.9640	0.9352	25.47	0.51	0.750			
0.2460	15743.76	3.9610	3.9609	0.9353	25.47	0.51	0.750			
0.2488	15923.98	3.9580	3.9580	0.9332	25.47	0.51	0.750			
0.2516	16104.52	3.9550	3.9550	0.9391	25.47	0.51	0.750			
0.2545	16285.70	3.9520	3.9520	0.9407	25.47	0.51	0.750			
0.2573	16465.95	3.9490	3.9490	0.9434	25.47	0.51	0.750			
0.2601	16645.42	3.9460	3.9460	0.9416	25.47	0.51	0.750			
0.2629	16827.38	3.9430	3.9429	0.9438	25.48	0.52	0.750			
0.2658	17008.42	3.9400	3.9400	0.9469	25.48	0.52	0.750			
0.2686	17190.43	3.9370	3.9371	0.9529	25.48	0.52	0.750			
0.2715	17372.97	3.9340	3.9339	0.9554	25.49	0.53	0.750			
0.2744	17558.95	3.9310	3.9310	0.9564	25.49	0.53	0.750			
0.2772	17742.61	3.9280	3.9280	0.9588	25.49	0.53	0.750			
0.2801	17928.04	3.9250	3.9251	0.9634	25.50	0.54	0.750			
0.2830	18112.56	3.9220	3.9220	0.9607	25.50	0.54	0.750			
0.2859	18298.61	3.9190	3.9190	0.9572	25.50	0.54	0.750			
0.2887	18479.76	3.9160	3.9161	0.9608	25.51	0.55	0.750			
0.2916	18664.28	3.9130	3.9130	0.9687	25.51	0.55	0.750			
0.2946	18851.66	3.9100	3.9100	0.9779	25.52	0.56	0.750			
0.2975	19038.81	3.9070	3.9070	0.9832	25.52	0.56	0.750			
0.3005	19229.09	3.9040	3.9041	0.9895	25.52	0.56	0.750			
0.3035	19422.27	3.9010	3.9009	0.9971	25.51	0.55	0.750			
0.3065	19615.03	3.8980	3.8980	0.9972	25.51	0.55	0.750			
0.3094	19804.42	3.8950	3.8950	0.9951	25.51	0.55	0.750			
0.3124	19996.25	3.8920	3.8920	0.9962	25.51	0.55	0.750			
0.3154	20187.34	3.8890	3.8890	1.0030	25.52	0.56	0.750			
0.3184	20378.44	3.8860	3.8860	1.0062	25.52	0.56	0.750			
0.3214	20572.08	3.8830	3.8829	1.0129	25.53	0.57	0.750			
0.3245	20769.65	3.8800	3.8800	1.0158	25.53	0.57	0.750			
0.3276	20964.19	3.8770	3.8771	1.0251	25.53	0.57	0.750			
0.3306	21160.68	3.8740	3.8741	1.0290	25.53	0.57	0.750			
0.3337	21358.93	3.8710	3.8708	1.0341	25.53	0.57	0.750			
0.3368	21558.34	3.8680	3.8681	1.0395	25.53	0.57	0.750			
0.3400	21759.33	3.8650	3.8650	1.0436	25.53	0.57	0.750			
0.3431	21960.75	3.8620	3.8620	1.0459	25.52	0.56	0.750			
0.3463	22163.15	3.8590	3.8589	1.0522	25.52	0.56	0.750			
0.3494	22362.41	3.8560	3.8561	1.0498	25.52	0.56	0.750			
0.3526	22564.65	3.8530	3.8530	1.0565	25.52	0.56	0.750			
0.3557	22767.24	3.8500	3.8500	1.0609	25.51	0.55	0.750			
0.3589	22972.23	3.8470	3.8468	1.0664	25.51	0.55	0.750			
0.3622	23179.29	3.8440	3.8440	1.0650	25.51	0.55	0.750			
0.3653	23380.90	3.8410	3.8411	1.0732	25.50	0.54	0.750			
0.3685	23586.14	3.8380	3.8381	1.0791	25.50	0.54	0.750			
0.3718	23795.24	3.8350	3.8346	1.0862	25.49	0.53	0.750			
0.3751	24003.49	3.8320	3.8318	1.0907	25.49	0.53	0.750	0.346	0.426	
0.3783	24213.79	3.8290	3.8291	1.1011	25.48	0.52	0.750			
0.3817	24427.38	3.8260	3.8260	1.1142	25.47	0.51	0.750			
0.3851	24644.29	3.8230	3.8229	1.1162	25.47	0.51	0.750			
0.3884	24854.47	3.8200	3.8200	1.1194	25.46	0.50	0.750			
0.3917	25071.75	3.8170	3.8170	1.1316	25.46	0.50	0.750			
0.3952	25290.52	3.8140	3.8141	1.1419	25.45	0.49	0.750			
0.3986	25511.87	3.8110	3.8110	1.1397	25.44	0.48	0.750			
0.4020	25729.97	3.8080	3.8081	1.1462	25.43	0.47	0.750			
0.4055	25950.53	3.8050	3.8050	1.1524	25.42	0.46	0.750			
0.4090	26173.39	3.8020	3.8017	1.1599	25.40	0.44	0.750			
0.4124	26394.16	3.7990	3.7991	1.1637	25.39	0.43	0.750			
0.4159	26619.36	3.7960	3.7960	1.1730	25.38	0.42	0.750			
0.4195	26846.81	3.7930	3.7931	1.1832	25.38	0.42	0.750			
0.4230	27073.12	3.7900	3.7901	1.1840	25.37	0.41	0.750			
0.4266	27300.94	3.7870	3.7870	1.1997	25.36	0.40	0.750			
0.4302	27532.62	3.7840	3.7840	1.2126	25.34	0.38	0.750			
0.4339	27767.69	3.7810	3.7808	1.2201	25.33	0.37	0.750			
0.4375	28002.82	3.7780	3.7780	1.2371	25.32	0.36	0.750			
0.4413	28241.69	3.7750	3.7751	1.2500	25.31	0.35	0.750			
0.4450	28482.66	3.7720	3.7720	1.2702	25.30	0.34	0.750			
0.4488	28725.88	3.7690	3.7690	1.2949	25.29	0.33	0.750			
0.4527	28973.68	3.7660	3.7660	1.3166	25.28	0.32	0.750			
0.4568	29232.90	3.7630	3.7630	1.3395	25.27	0.31	0.750			
0.4608	29493.42	3.7600	3.7599	1.3738	25.26	0.30	0.750			
0.4650	29761.66	3.7570	3.7571	1.3748	25.24	0.28	0.750			
0.4692	30028.34	3.7540	3.7541	1.4101	25.23	0.27	0.750			
0.4734	30299.77	3.7510	3.7510	1.4448	25.22	0.26	0.750			
0.4778	30581.43	3.7480	3.7478	1.4738	25.20	0.24	0.750			
0.4823	30865.17	3.7450	3.7453	1.5256	25.19	0.23	0.750			
0.4870	31169.01	3.7420	3.7422	1.5467	25.17	0.21	0.750			
0.4917	31468.77	3.7390	3.7393	1.5934	25.16	0.20	0.750			
0.4966	31783.91	3.7360	3.7363	1.6341	25.14	0.18	0.750			
0.5013	32085.53	3.7330	3.7333	1.6917	25.13	0.17	0.750			
0.5065	32416.70	3.7300	3.7303	1.7410	25.12	0.16	0.750			
0.5119	32760.47	3.7270	3.7269	1.7950	25.10	0.14	0.750			
0.5173	33105.52	3.7240	3.7239	1.8728	25.09	0.13	0.750			
0.5232	33481.71	3.7210	3.7213	1.9265	25.08	0.12	0.750			
0.5289	33852.67	3.7180	3.7181	2.0014	25.06	0.10	0.750			
0.5350	34242.63	3.7150	3.7148	2.0149	25.04	0.08	0.750			
0.5411	34629.03	3.7120	3.7118	2.0715	25.02	0.06	0.750			
0.5473	35025.51	3.7090	3.7091	2.1324	25.00	0.04	0.750			
0.5537	35435.27	3.7060	3.7062	2.2012	24.98	0.02	0.750			
0.5605	35871.78	3.7030	3.7030	2.2863	24.97	0.01	0.750			
0.5676	36326.62	3.7000	3.6998	2.4075	24.95	-0.01	0.750			
0.5749	36790.56	3.6970	3.6970	2.4366	24.93	-0.03	0.750			
0.5822	37262.01	3.6940	3.6943	2.4742	24.91	-0.05	0.750			
0.5896	37737.33	3.6910	3.6911	2.5120	24.89	-0.07	0.750			
0.5973	38224.55	3.6880	3.6878	2.6450	24.88	-0.08	0.750			
0.6056	38756.72	3.6850	3.6846	2.7546	24.86	-0.10	0.750			
0.6140	39296.05	3.6820	3.6820	2.8441	24.85	-0.11	0.750			
0.6228	39858.26	3.6790	3.6789	2.8289	24.84	-0.12	0.750			
0.6310	40385.01	3.6760	3.6761	2.8376	24.83	-0.13	0.750			
0.6395	40929.94	3.6730	3.6729	2.9253	24.81	-0.15	0.750			
0.6485	41504.17	3.6700	3.6702	2.9784	24.80	-0.16	0.750			
0.6576	42089.54	3.6670	3.6672	3.0021	24.80	-0.16	0.750			
0.6663	42641.14	3.6640	3.6642	2.8451	24.80	-0.16	0.750			
0.6748	43189.17	3.6610	3.6612	2.7044	24.80	-0.16	0.750			
0.6829	43708.78	3.6580	3.6580	2.5192	24.82	-0.14	0.750			
0.6903	44182.28	3.6550	3.6547	2.3305	24.83	-0.13	0.750			
0.6968	44594.98	3.6520	3.6521	2.0926	24.84	-0.12	0.750			
0.7028	44976.14	3.6490	3.6491	1.8838	24.85	-0.11	0.750			
0.7081	45316.08	3.6460	3.6460	1.6717	24.86	-0.10	0.750			
0.7127	45612.70	3.6430	3.6433	1.4670	24.87	-0.09	0.750			
0.7168	45875.74	3.6400	3.6401	1.2912	24.88	-0.08	0.750			
0.7203	46100.64	3.6370	3.6370	1.1439	24.89	-0.07	0.750			
0.7234	46299.14	3.6340	3.6339	1.0095	24.90	-0.06	0.750			
0.7260	46465.77	3.6310	3.6310	0.9015	24.91	-0.05	0.750			
0.7286	46627.92	3.6280	3.6280	0.8409	24.92	-0.04	0.750			
0.7309	46779.47	3.6250	3.6250	0.8004	24.92	-0.04	0.750			
0.7333	46928.42	3.6220	3.6220	0.7651	24.93	-0.03	0.750			
0.7355	47071.99	3.6190	3.6190	0.7314	24.93	-0.03	0.750			
0.7377	47215.13	3.6160	3.6160	0.6801	24.94	-0.02	0.750			
0.7398	47344.24	3.6130	3.6130	0.6431	24.94	-0.02	0.750			
0.7416	47463.74	3.6100	3.6102	0.5906	24.95	-0.01	0.750			
0.7433	47573.38	3.6070	3.6071	0.5248	24.95	-0.01	0.750			
0.7448	47669.46	3.6040	3.6032	0.4563	24.95	-0.01	0.750			
0.7461	47750.91	3.6010	3.6012	0.3895	24.96	-0.00	0.750			
0.7472	47818.72	3.5980	3.5977	0.3188	24.96	0.00	0.750			
0.7480	47875.18	3.5950	3.5951	0.2516	24.96	0.00	0.750			
0.7486	47912.94	3.5920	3.5926	0.1734	24.96	0.00	0.750			
0.7491	47940.38	3.5890	3.5902	0.1079	24.97	0.01	0.750			
0.7494	47959.12	3.5830	3.5914	-0.0700	24.97	0.01	0.749			
0.7494	47964.03	3.5860	3.6102	0.0188	24.97	0.01	0.746			
