Ah_balance (normalized)	Ah_balance (mAh)	Voltage - fit (V)	Voltage -  interpolate (V)	dQ/dV (1/V)	Temperature (°C)	Temperature - diff (°C)	Current (C)	R_DC 0ms (mOhm)	R_DC 50ms (mOhm)	R_DC 50 ms PEC (mOhm)
0.0468	2997.03	4.1980	4.1978	0.7504	25.77	0.51	0.750			
0.0491	3141.60	4.1950	4.1951	0.7555	25.77	0.51	0.750			
0.0514	3289.84	4.1920	4.1920	0.7610	25.77	0.51	0.750			
0.0537	3435.02	4.1890	4.1890	0.7568	25.77	0.51	0.750			
0.0559	3579.01	4.1860	4.1860	0.7558	25.77	0.51	0.750			
0.0582	3724.54	4.1830	4.1832	0.7608	25.77	0.51	0.750			
0.0605	3871.29	4.1800	4.1800	0.7619	25.77	0.51	0.750			
0.0628	4017.53	4.1770	4.1771	0.7665	25.77	0.51	0.750			
0.0651	4165.01	4.1740	4.1740	0.7642	25.77	0.51	0.750			
0.0674	4312.15	4.1710	4.1710	0.7668	25.78	0.52	0.750			
0.0697	4460.00	4.1680	4.1680	0.7660	25.78	0.52	0.750			
0.0720	4606.11	4.1650	4.1649	0.7672	25.78	0.52	0.750			
0.0743	4753.99	4.1620	4.1620	0.7703	25.78	0.52	0.750			
0.0766	4904.99	4.1590	4.1589	0.7655	25.78	0.52	0.750			
0.0789	5050.86	4.1560	4.1560	0.7673	25.79	0.53	0.750			
0.0812	5197.18	4.1530	4.1531	0.7697	25.79	0.53	0.750			
0.0835	5345.06	4.1500	4.1502	0.7709	25.79	0.53	0.750			
0.0858	5492.21	4.1470	4.1471	0.7752	25.79	0.53	0.750			
0.0882	5641.61	4.1440	4.1440	0.7767	25.79	0.53	0.750			
0.0905	5792.02	4.1410	4.1411	0.7718	25.79	0.53	0.750			
0.0928	5939.28	4.1380	4.1381	0.7759	25.79	0.53	0.750			
0.0951	6088.05	4.1350	4.1352	0.7725	25.79	0.53	0.750			
0.0974	6236.06	4.1320	4.1321	0.7769	25.79	0.53	0.750			
0.0998	6384.90	4.1290	4.1290	0.7805	25.79	0.53	0.750			
0.1021	6535.34	4.1260	4.1261	0.7821	25.79	0.53	0.750			
0.1045	6689.14	4.1230	4.1230	0.7895	25.79	0.53	0.750			
0.1069	6839.40	4.1200	4.1200	0.7850	25.79	0.53	0.750			
0.1092	6989.80	4.1170	4.1169	0.7877	25.79	0.53	0.750			
0.1116	7141.07	4.1140	4.1141	0.7919	25.79	0.53	0.750			
0.1140	7294.71	4.1110	4.1109	0.7872	25.79	0.53	0.750			
0.1163	7445.52	4.1080	4.1080	0.7908	25.79	0.53	0.750			
0.1187	7597.23	4.1050	4.1051	0.7935	25.79	0.53	0.750			
0.1211	7749.09	4.1020	4.1021	0.7936	25.79	0.53	0.750			
0.1235	7901.15	4.0990	4.0990	0.7951	25.79	0.53	0.750			
0.1259	8057.67	4.0960	4.0960	0.7863	25.79	0.53	0.750			
0.1282	8207.18	4.0930	4.0931	0.7917	25.79	0.53	0.750			
0.1306	8359.76	4.0900	4.0900	0.8004	25.80	0.54	0.750			
0.1330	8510.06	4.0870	4.0872	0.8000	25.80	0.54	0.750			
0.1354	8662.77	4.0840	4.0837	0.8050	25.80	0.54	0.750			
0.1378	8820.32	4.0810	4.0810	0.8092	25.80	0.54	0.750			
0.1403	8977.57	4.0780	4.0781	0.8162	25.80	0.54	0.750			
0.1428	9136.06	4.0750	4.0751	0.8211	25.81	0.55	0.750			
0.1452	9293.09	4.0720	4.0721	0.8165	25.81	0.55	0.750			
0.1477	9449.99	4.0690	4.0689	0.8186	25.81	0.55	0.750			
0.1501	9608.31	4.0660	4.0659	0.8204	25.81	0.55	0.750			
0.1526	9765.54	4.0630	4.0631	0.8188	25.81	0.55	0.750			
0.1550	9922.54	4.0600	4.0600	0.8228	25.81	0.55	0.750			
0.1575	10079.64	4.0570	4.0570	0.8239	25.81	0.55	0.750			
0.1600	10237.71	4.0540	4.0538	0.8259	25.81	0.55	0.750			
0.1625	10396.91	4.0510	4.0511	0.8303	25.81	0.55	0.750			
0.1650	10557.99	4.0480	4.0480	0.8284	25.81	0.55	0.750			
0.1675	10717.30	4.0450	4.0451	0.8333	25.82	0.56	0.750			
0.1699	10874.68	4.0420	4.0421	0.8333	25.82	0.56	0.750			
0.1724	11036.19	4.0390	4.0386	0.8393	25.82	0.56	0.750			
0.1750	11197.46	4.0360	4.0361	0.8447	25.82	0.56	0.750			
0.1775	11361.22	4.0330	4.0331	0.8496	25.82	0.56	0.750			
0.1801	11527.00	4.0300	4.0300	0.8576	25.83	0.57	0.750			
0.1827	11693.88	4.0270	4.0270	0.8642	25.83	0.57	0.750			
0.1852	11854.61	4.0240	4.0240	0.8574	25.83	0.57	0.750			
0.1879	12022.76	4.0210	4.0210	0.8504	25.84	0.58	0.750			
0.1904	12186.16	4.0180	4.0180	0.8571	25.84	0.58	0.750			
0.1930	12349.17	4.0150	4.0151	0.8562	25.84	0.58	0.750			
0.1955	12513.54	4.0120	4.0121	0.8610	25.85	0.59	0.750			
0.1981	12677.32	4.0090	4.0090	0.8617	25.85	0.59	0.750			
0.2007	12845.38	4.0060	4.0060	0.8587	25.85	0.59	0.750			
0.2033	13008.97	4.0030	4.0031	0.8666	25.85	0.59	0.750			
0.2059	13176.55	4.0000	4.0001	0.8742	25.85	0.59	0.750			
0.2085	13343.81	3.9970	3.9971	0.8724	25.85	0.59	0.750			
0.2111	13512.12	3.9940	3.9940	0.8785	25.85	0.59	0.750			
0.2138	13681.63	3.9910	3.9912	0.8824	25.86	0.60	0.750			
0.2165	13853.31	3.9880	3.9880	0.8874	25.86	0.60	0.750			
0.2192	14026.63	3.9850	3.9849	0.8932	25.87	0.61	0.750			
0.2218	14194.24	3.9820	3.9819	0.8845	25.87	0.61	0.750			
0.2245	14365.51	3.9790	3.9790	0.8804	25.87	0.61	0.750			
0.2271	14533.42	3.9760	3.9760	0.8825	25.87	0.61	0.750			
0.2297	14702.00	3.9730	3.9730	0.8832	25.87	0.61	0.750			
0.2324	14870.48	3.9700	3.9701	0.8893	25.87	0.61	0.750			
0.2350	15041.43	3.9670	3.9669	0.8939	25.87	0.61	0.750			
0.2378	15218.26	3.9640	3.9640	0.8831	25.87	0.61	0.750			
0.2404	15385.71	3.9610	3.9611	0.8939	25.88	0.62	0.750			
0.2431	15557.37	3.9580	3.9581	0.9010	25.88	0.62	0.750			
0.2458	15728.07	3.9550	3.9552	0.9085	25.89	0.63	0.750			
0.2485	15902.59	3.9520	3.9519	0.9145	25.89	0.63	0.750			
0.2513	16080.70	3.9490	3.9491	0.9145	25.89	0.63	0.750			
0.2541	16260.15	3.9460	3.9461	0.9202	25.89	0.63	0.750			
0.2568	16437.97	3.9430	3.9431	0.9219	25.89	0.63	0.750			
0.2596	16611.95	3.9400	3.9399	0.9125	25.89	0.63	0.750			
0.2623	16790.04	3.9370	3.9369	0.9033	25.89	0.63	0.750			
0.2650	16961.38	3.9340	3.9340	0.9069	25.89	0.63	0.750			
0.2677	17134.90	3.9310	3.9311	0.9147	25.90	0.64	0.750			
0.2705	17310.63	3.9280	3.9281	0.9207	25.90	0.64	0.750			
0.2732	17486.97	3.9250	3.9251	0.9229	25.90	0.64	0.750			
0.2761	17668.46	3.9220	3.9220	0.9010	25.90	0.64	0.750			
0.2787	17838.92	3.9190	3.9191	0.9176	25.90	0.64	0.750			
0.2815	18015.86	3.9160	3.9161	0.9241	25.90	0.64	0.750			
0.2842	18190.66	3.9130	3.9131	0.9226	25.90	0.64	0.750			
0.2870	18369.74	3.9100	3.9102	0.9243	25.90	0.64	0.750			
0.2898	18548.26	3.9070	3.9071	0.9299	25.90	0.64	0.750			
0.2926	18728.99	3.9040	3.9041	0.9381	25.90	0.64	0.750			
0.2955	18911.34	3.9010	3.9011	0.9235	25.90	0.64	0.750			
0.2983	19089.04	3.8980	3.8979	0.9245	25.90	0.64	0.750			
0.3010	19266.84	3.8950	3.8950	0.9244	25.90	0.64	0.750			
0.3038	19443.58	3.8920	3.8921	0.9271	25.89	0.63	0.750			
0.3066	19621.58	3.8890	3.8890	0.9297	25.89	0.63	0.750			
0.3094	19799.55	3.8860	3.8857	0.9302	25.89	0.63	0.750			
0.3122	19983.50	3.8830	3.8830	0.9189	25.89	0.63	0.750			
0.3150	20157.81	3.8800	3.8800	0.9291	25.88	0.62	0.750			
0.3177	20334.09	3.8770	3.8771	0.9352	25.88	0.62	0.750			
0.3205	20514.26	3.8740	3.8741	0.9389	25.87	0.61	0.750			
0.3233	20693.58	3.8710	3.8711	0.9391	25.87	0.61	0.750			
0.3262	20875.43	3.8680	3.8682	0.9461	25.86	0.60	0.750			
0.3290	21058.85	3.8650	3.8651	0.9519	25.86	0.60	0.750			
0.3319	21243.33	3.8620	3.8620	0.9562	25.85	0.59	0.750			
0.3348	21425.40	3.8590	3.8590	0.9469	25.85	0.59	0.750			
0.3377	21610.01	3.8560	3.8559	0.9423	25.84	0.58	0.750			
0.3405	21791.44	3.8530	3.8530	0.9461	25.84	0.58	0.750			
0.3433	21971.37	3.8500	3.8501	0.9450	25.83	0.57	0.750			
0.3461	22151.98	3.8470	3.8469	0.9438	25.82	0.56	0.750			
0.3490	22335.20	3.8440	3.8440	0.9311	25.82	0.56	0.750			
0.3517	22509.27	3.8410	3.8411	0.9357	25.81	0.55	0.750			
0.3545	22687.29	3.8380	3.8381	0.9501	25.80	0.54	0.750			
0.3574	22871.12	3.8350	3.8351	0.9700	25.80	0.54	0.750	0.295	0.400	
0.3603	23056.59	3.8320	3.8319	0.9825	25.79	0.53	0.750			
0.3632	23247.87	3.8290	3.8293	0.9895	25.78	0.52	0.750			
0.3663	23442.78	3.8260	3.8262	1.0017	25.77	0.51	0.750			
0.3694	23642.01	3.8230	3.8230	1.0116	25.76	0.50	0.750			
0.3724	23834.99	3.8200	3.8198	1.0090	25.75	0.49	0.750			
0.3753	24021.83	3.8170	3.8171	0.9925	25.74	0.48	0.750			
0.3783	24210.89	3.8140	3.8141	1.0015	25.73	0.47	0.750			
0.3813	24403.33	3.8110	3.8110	1.0096	25.72	0.46	0.750			
0.3843	24597.55	3.8080	3.8077	1.0162	25.71	0.45	0.750			
0.3875	24798.03	3.8050	3.8050	1.0078	25.71	0.45	0.750			
0.3904	24987.30	3.8020	3.8021	1.0314	25.70	0.44	0.750			
0.3935	25184.78	3.7990	3.7992	1.0498	25.70	0.44	0.750			
0.3967	25388.13	3.7960	3.7956	1.0602	25.69	0.43	0.750			
0.3998	25590.36	3.7930	3.7932	1.0998	25.68	0.42	0.750			
0.4032	25803.34	3.7900	3.7901	1.1400	25.67	0.41	0.750			
0.4067	26028.47	3.7870	3.7870	1.1796	25.66	0.40	0.750			
0.4104	26265.09	3.7840	3.7836	1.1883	25.65	0.39	0.750			
0.4140	26497.15	3.7810	3.7812	1.2059	25.63	0.37	0.750			
0.4177	26734.51	3.7780	3.7781	1.2221	25.62	0.36	0.750			
0.4214	26972.58	3.7750	3.7748	1.2157	25.60	0.34	0.750			
0.4249	27196.47	3.7720	3.7720	1.2096	25.59	0.33	0.750			
0.4286	27428.65	3.7690	3.7692	1.2330	25.57	0.31	0.750			
0.4323	27667.80	3.7660	3.7660	1.2607	25.56	0.30	0.750			
0.4361	27913.03	3.7630	3.7629	1.2864	25.55	0.29	0.750			
0.4400	28162.07	3.7600	3.7601	1.3145	25.53	0.27	0.750			
0.4441	28422.82	3.7570	3.7571	1.3367	25.52	0.26	0.750			
0.4482	28683.44	3.7540	3.7539	1.3614	25.51	0.25	0.750			
0.4522	28940.00	3.7510	3.7510	1.3913	25.49	0.23	0.750			
0.4564	29211.04	3.7480	3.7481	1.4133	25.48	0.22	0.750			
0.4607	29485.79	3.7450	3.7449	1.4504	25.47	0.21	0.750			
0.4652	29772.11	3.7420	3.7419	1.4766	25.46	0.20	0.750			
0.4697	30058.31	3.7390	3.7392	1.5208	25.45	0.19	0.750			
0.4743	30356.07	3.7360	3.7363	1.5606	25.43	0.17	0.750			
0.4790	30656.35	3.7330	3.7332	1.6120	25.41	0.15	0.750			
0.4838	30964.87	3.7300	3.7301	1.6692	25.39	0.13	0.750			
0.4890	31294.52	3.7270	3.7273	1.7266	25.38	0.12	0.750			
0.4942	31631.72	3.7240	3.7243	1.7831	25.37	0.11	0.750			
0.4997	31977.66	3.7210	3.7211	1.8188	25.35	0.09	0.750			
0.5052	32334.15	3.7180	3.7179	1.8856	25.33	0.07	0.750			
0.5110	32705.75	3.7150	3.7149	1.9121	25.32	0.06	0.750			
0.5167	33070.88	3.7120	3.7119	1.9751	25.30	0.04	0.750			
0.5228	33459.31	3.7090	3.7091	2.0296	25.28	0.02	0.750			
0.5289	33850.68	3.7060	3.7058	2.0820	25.26	0.00	0.750			
0.5352	34254.14	3.7030	3.7032	2.1538	25.25	-0.01	0.750			
0.5417	34670.43	3.7000	3.7001	2.2305	25.23	-0.03	0.750			
0.5486	35112.79	3.6970	3.6970	2.2585	25.22	-0.04	0.750			
0.5556	35556.92	3.6940	3.6938	2.3240	25.21	-0.05	0.750			
0.5625	35999.00	3.6910	3.6909	2.3703	25.20	-0.06	0.750			
0.5696	36452.60	3.6880	3.6883	2.4452	25.18	-0.08	0.750			
0.5770	36927.88	3.6850	3.6850	2.5058	25.18	-0.08	0.750			
0.5848	37429.30	3.6820	3.6818	2.5785	25.17	-0.09	0.750			
0.5927	37933.18	3.6790	3.6789	2.6799	25.15	-0.11	0.750			
0.6008	38452.85	3.6760	3.6760	2.7046	25.14	-0.12	0.750			
0.6090	38975.08	3.6730	3.6731	2.7116	25.14	-0.12	0.750			
0.6171	39493.70	3.6700	3.6701	2.6351	25.14	-0.12	0.750			
0.6249	39994.03	3.6670	3.6669	2.5162	25.14	-0.12	0.750			
0.6325	40481.94	3.6640	3.6638	2.3833	25.14	-0.12	0.750			
0.6395	40927.69	3.6610	3.6610	2.2152	25.14	-0.12	0.750			
0.6456	41320.96	3.6580	3.6582	1.9918	25.14	-0.12	0.750			
0.6513	41685.14	3.6550	3.6552	1.8265	25.15	-0.11	0.750			
0.6566	42024.02	3.6520	3.6521	1.6956	25.16	-0.10	0.750			
0.6614	42332.43	3.6490	3.6492	1.5588	25.17	-0.09	0.750			
0.6660	42624.00	3.6460	3.6460	1.4460	25.18	-0.08	0.750			
0.6701	42889.17	3.6430	3.6431	1.3330	25.18	-0.08	0.750			
0.6739	43127.28	3.6400	3.6400	1.2189	25.18	-0.08	0.750			
0.6773	43344.84	3.6370	3.6371	1.1320	25.19	-0.07	0.750			
0.6805	43551.02	3.6340	3.6339	1.0667	25.19	-0.07	0.750			
0.6835	43745.01	3.6310	3.6309	1.0253	25.20	-0.06	0.750			
0.6865	43936.70	3.6280	3.6279	0.9911	25.20	-0.06	0.750			
0.6895	44125.22	3.6250	3.6249	0.9479	25.21	-0.05	0.750			
0.6922	44303.15	3.6220	3.6222	0.9243	25.21	-0.05	0.750			
0.6950	44477.48	3.6190	3.6191	0.8933	25.22	-0.04	0.750			
0.6976	44647.35	3.6160	3.6155	0.8522	25.22	-0.04	0.750			
0.7001	44807.62	3.6130	3.6132	0.8085	25.23	-0.03	0.750			
0.7025	44960.09	3.6100	3.6101	0.7517	25.24	-0.02	0.750			
0.7048	45106.16	3.6070	3.6070	0.7001	25.24	-0.02	0.750			
0.7068	45232.92	3.6040	3.6040	0.6295	25.25	-0.01	0.750			
0.7085	45346.47	3.6010	3.6010	0.5668	25.26	-0.00	0.750			
0.7101	45448.73	3.5980	3.5980	0.5083	25.26	0.00	0.750			
0.7116	45540.61	3.5950	3.5950	0.4527	25.27	0.01	0.750			
0.7128	45621.00	3.5920	3.5920	0.3987	25.27	0.01	0.750			
0.7139	45692.75	3.5890	3.5889	0.3479	25.27	0.01	0.750			
0.7149	45754.20	3.5860	3.5860	0.2958	25.28	0.02	0.750			
0.7157	45805.74	3.5830	3.5829	0.2453	25.28	0.02	0.750			
0.7164	45848.73	3.5800	3.5801	0.1953	25.28	0.02	0.750			
0.7169	45881.73	3.5770	3.5772	0.1422	25.28	0.02	0.750			
0.7172	45903.99	3.5740	3.5751	0.0935	25.28	0.02	0.750			
