Ah_balance (normalized)	Ah_balance (mAh)	Voltage - fit (V)	Voltage -  interpolate (V)	dQ/dV (1/V)	Temperature (°C)	Temperature - diff (°C)	Current (C)	R_DC 0ms (mOhm)	R_DC 50ms (mOhm)	R_DC 50 ms PEC (mOhm)
0.0003	17.95	4.1620	4.1625	-0.1612	25.12	0.02	-0.750			
0.0008	54.13	4.1590	4.1592	-0.2055	25.12	0.02	-0.750			
0.0015	97.10	4.1560	4.1559	-0.2409	25.12	0.02	-0.750			
0.0023	145.98	4.1530	4.1530	-0.2785	25.12	0.02	-0.750			
0.0032	203.13	4.1500	4.1501	-0.3164	25.11	0.01	-0.750			
0.0042	267.25	4.1470	4.1469	-0.3544	25.11	0.01	-0.750			
0.0053	338.47	4.1440	4.1440	-0.3929	25.11	0.01	-0.750			
0.0065	416.49	4.1410	4.1411	-0.4323	25.11	0.01	-0.750			
0.0079	504.95	4.1380	4.1380	-0.4658	25.11	0.01	-0.750			
0.0094	598.74	4.1350	4.1348	-0.5013	25.10	0.00	-0.750			
0.0109	698.65	4.1320	4.1321	-0.5289	25.10	0.00	-0.750			
0.0126	804.65	4.1290	4.1289	-0.5576	25.10	-0.00	-0.750			
0.0143	914.78	4.1260	4.1260	-0.5795	25.10	-0.00	-0.750			
0.0161	1028.13	4.1230	4.1229	-0.6019	25.09	-0.01	-0.750			
0.0179	1145.19	4.1200	4.1201	-0.6238	25.09	-0.01	-0.750			
0.0198	1269.61	4.1170	4.1169	-0.6413	25.09	-0.01	-0.750			
0.0218	1395.36	4.1140	4.1139	-0.6453	25.08	-0.02	-0.750			
0.0238	1520.70	4.1110	4.1109	-0.6531	25.08	-0.02	-0.750			
0.0257	1645.56	4.1080	4.1080	-0.6642	25.08	-0.02	-0.750			
0.0277	1772.89	4.1050	4.1047	-0.6728	25.07	-0.03	-0.750			
0.0297	1900.99	4.1020	4.1020	-0.6807	25.07	-0.03	-0.750			
0.0318	2033.95	4.0990	4.0991	-0.6930	25.07	-0.03	-0.750			
0.0340	2172.87	4.0960	4.0960	-0.7064	25.06	-0.04	-0.750			
0.0361	2310.00	4.0930	4.0927	-0.7107	25.06	-0.04	-0.750			
0.0382	2444.76	4.0900	4.0899	-0.7145	25.06	-0.04	-0.750			
0.0403	2581.55	4.0870	4.0870	-0.7187	25.06	-0.04	-0.750			
0.0425	2719.38	4.0840	4.0838	-0.7273	25.06	-0.04	-0.750			
0.0447	2860.96	4.0810	4.0810	-0.7291	25.06	-0.04	-0.750			
0.0469	3003.84	4.0780	4.0779	-0.7358	25.06	-0.04	-0.750			
0.0492	3146.10	4.0750	4.0752	-0.7368	25.06	-0.04	-0.750			
0.0514	3286.97	4.0720	4.0718	-0.7372	25.06	-0.04	-0.750			
0.0535	3421.86	4.0690	4.0691	-0.7570	25.06	-0.04	-0.750			
0.0558	3570.95	4.0660	4.0660	-0.7513	25.05	-0.05	-0.750			
0.0581	3715.58	4.0630	4.0628	-0.7523	25.05	-0.05	-0.750			
0.0604	3865.41	4.0600	4.0598	-0.7536	25.05	-0.05	-0.750			
0.0626	4008.83	4.0570	4.0568	-0.7466	25.05	-0.05	-0.750			
0.0649	4151.55	4.0540	4.0539	-0.7483	25.05	-0.05	-0.750			
0.0671	4293.14	4.0510	4.0509	-0.7529	25.05	-0.05	-0.750			
0.0693	4437.70	4.0480	4.0479	-0.7562	25.05	-0.05	-0.750			
0.0716	4581.67	4.0450	4.0450	-0.7616	25.05	-0.05	-0.750			
0.0739	4727.95	4.0420	4.0422	-0.7665	25.05	-0.05	-0.750			
0.0762	4876.72	4.0390	4.0388	-0.7678	25.05	-0.05	-0.750			
0.0785	5022.88	4.0360	4.0360	-0.7715	25.05	-0.05	-0.750			
0.0808	5171.86	4.0330	4.0331	-0.7677	25.06	-0.04	-0.750			
0.0831	5317.90	4.0300	4.0301	-0.7692	25.06	-0.04	-0.750			
0.0855	5468.83	4.0270	4.0269	-0.7805	25.06	-0.04	-0.750			
0.0877	5615.73	4.0240	4.0240	-0.7772	25.06	-0.04	-0.750			
0.0900	5762.22	4.0210	4.0210	-0.7885	25.06	-0.04	-0.750			
0.0925	5918.01	4.0180	4.0180	-0.7925	25.06	-0.04	-0.750			
0.0949	6072.04	4.0150	4.0150	-0.7914	25.06	-0.04	-0.750			
0.0973	6227.17	4.0120	4.0118	-0.7905	25.06	-0.04	-0.750			
0.0996	6376.60	4.0090	4.0098	-0.7890	25.06	-0.04	-0.750			
0.1020	6527.63	4.0060	4.0059	-0.7864	25.06	-0.04	-0.750			
0.1043	6675.37	4.0030	4.0029	-0.7929	25.06	-0.04	-0.750			
0.1067	6828.05	4.0000	3.9999	-0.7964	25.06	-0.04	-0.750			
0.1091	6980.65	3.9970	3.9970	-0.7958	25.06	-0.04	-0.750			
0.1116	7140.12	3.9940	3.9941	-0.8085	25.06	-0.04	-0.750			
0.1140	7295.54	3.9910	3.9910	-0.8044	25.06	-0.04	-0.750			
0.1164	7448.16	3.9880	3.9880	-0.8034	25.06	-0.04	-0.750			
0.1188	7604.33	3.9850	3.9850	-0.8032	25.07	-0.03	-0.750			
0.1212	7756.26	3.9820	3.9818	-0.7946	25.07	-0.03	-0.750			
0.1236	7912.69	3.9790	3.9792	-0.7967	25.07	-0.03	-0.750			
0.1260	8064.17	3.9760	3.9759	-0.7918	25.07	-0.03	-0.750			
0.1283	8214.25	3.9730	3.9730	-0.8027	25.07	-0.03	-0.750			
0.1308	8370.67	3.9700	3.9699	-0.8020	25.08	-0.02	-0.750			
0.1332	8523.22	3.9670	3.9668	-0.7961	25.08	-0.02	-0.750			
0.1356	8679.91	3.9640	3.9640	-0.8047	25.08	-0.02	-0.750			
0.1380	8833.26	3.9610	3.9609	-0.8087	25.08	-0.02	-0.750			
0.1404	8988.48	3.9580	3.9578	-0.8099	25.08	-0.02	-0.750			
0.1429	9142.91	3.9550	3.9549	-0.8043	25.08	-0.02	-0.750			
0.1452	9291.18	3.9520	3.9522	-0.8038	25.09	-0.01	-0.750			
0.1477	9455.07	3.9490	3.9490	-0.8257	25.09	-0.01	-0.750			
0.1502	9614.37	3.9460	3.9459	-0.8228	25.09	-0.01	-0.750			
0.1527	9771.00	3.9430	3.9430	-0.8233	25.09	-0.01	-0.750			
0.1552	9930.87	3.9400	3.9401	-0.8287	25.09	-0.01	-0.750			
0.1577	10093.12	3.9370	3.9370	-0.8323	25.10	-0.00	-0.750			
0.1602	10252.44	3.9340	3.9338	-0.8330	25.10	-0.00	-0.750			
0.1626	10408.83	3.9310	3.9312	-0.8364	25.10	0.00	-0.750			
0.1651	10568.08	3.9280	3.9279	-0.8581	25.10	0.00	-0.750			
0.1678	10736.05	3.9250	3.9248	-0.8702	25.10	0.00	-0.750			
0.1704	10906.22	3.9220	3.9218	-0.8706	25.10	0.00	-0.750			
0.1731	11078.83	3.9190	3.9189	-0.8786	25.10	0.00	-0.750			
0.1758	11250.63	3.9160	3.9159	-0.8790	25.10	0.00	-0.750			
0.1784	11417.99	3.9130	3.9129	-0.8672	25.11	0.01	-0.750			
0.1809	11577.94	3.9100	3.9100	-0.8460	25.11	0.01	-0.750			
0.1835	11741.42	3.9070	3.9070	-0.8518	25.11	0.01	-0.750			
0.1860	11902.36	3.9040	3.9041	-0.8471	25.12	0.02	-0.750			
0.1885	12062.84	3.9010	3.9008	-0.8475	25.12	0.02	-0.750			
0.1910	12225.89	3.8980	3.8979	-0.8540	25.12	0.02	-0.750			
0.1936	12389.84	3.8950	3.8949	-0.8592	25.13	0.03	-0.750			
0.1962	12557.01	3.8920	3.8920	-0.8578	25.13	0.03	-0.750			
0.1988	12726.03	3.8890	3.8890	-0.8631	25.13	0.03	-0.750			
0.2014	12886.77	3.8860	3.8859	-0.8765	25.13	0.03	-0.750			
0.2040	13053.56	3.8830	3.8830	-0.8671	25.13	0.03	-0.750			
0.2066	13222.35	3.8800	3.8798	-0.8612	25.14	0.04	-0.750			
0.2092	13386.40	3.8770	3.8768	-0.8588	25.14	0.04	-0.750			
0.2118	13554.36	3.8740	3.8748	-0.8634	25.14	0.04	-0.750			
0.2144	13720.68	3.8710	3.8707	-0.8607	25.14	0.04	-0.750			
0.2169	13884.49	3.8680	3.8679	-0.8691	25.14	0.04	-0.750			
0.2195	14051.13	3.8650	3.8649	-0.8683	25.15	0.05	-0.750			
0.2222	14220.75	3.8620	3.8619	-0.8800	25.15	0.05	-0.750			
0.2249	14390.86	3.8590	3.8593	-0.8779	25.15	0.05	-0.750			
0.2275	14559.27	3.8560	3.8559	-0.8699	25.15	0.05	-0.750			
0.2301	14727.85	3.8530	3.8529	-0.8663	25.15	0.05	-0.750			
0.2327	14891.74	3.8500	3.8500	-0.8591	25.16	0.06	-0.750			
0.2353	15056.38	3.8470	3.8470	-0.8617	25.16	0.06	-0.750			
0.2378	15220.62	3.8440	3.8440	-0.8603	25.16	0.06	-0.750			
0.2404	15384.67	3.8410	3.8408	-0.8683	25.16	0.06	-0.750			
0.2430	15552.94	3.8380	3.8380	-0.8722	25.16	0.06	-0.750			
0.2456	15721.43	3.8350	3.8349	-0.8645	25.17	0.07	-0.750			
0.2483	15891.24	3.8320	3.8318	-0.8713	25.17	0.07	-0.750			
0.2509	16057.24	3.8290	3.8289	-0.8630	25.17	0.07	-0.750			
0.2535	16221.90	3.8260	3.8257	-0.8619	25.17	0.07	-0.750			
0.2560	16384.10	3.8230	3.8231	-0.8538	25.18	0.08	-0.750			
0.2586	16550.62	3.8200	3.8199	-0.8637	25.18	0.08	-0.750			
0.2612	16716.65	3.8170	3.8171	-0.8545	25.18	0.08	-0.750			
0.2637	16879.10	3.8140	3.8139	-0.8503	25.18	0.08	-0.750			
0.2662	17038.41	3.8110	3.8110	-0.8509	25.19	0.09	-0.750			
0.2688	17201.76	3.8080	3.8081	-0.8546	25.19	0.09	-0.750			
0.2713	17365.30	3.8050	3.8046	-0.8452	25.20	0.10	-0.750			
0.2739	17531.05	3.8020	3.8022	-0.8519	25.20	0.10	-0.750			
0.2765	17695.22	3.7990	3.7990	-0.8440	25.20	0.10	-0.750			
0.2791	17860.47	3.7960	3.7958	-0.8433	25.20	0.10	-0.750			
0.2816	18020.64	3.7930	3.7929	-0.8275	25.21	0.11	-0.750			
0.2840	18174.21	3.7900	3.7899	-0.8115	25.21	0.11	-0.750			
0.2864	18332.11	3.7870	3.7872	-0.8081	25.21	0.11	-0.750			
0.2889	18487.03	3.7840	3.7838	-0.8023	25.21	0.11	-0.750			
0.2912	18636.39	3.7810	3.7810	-0.7954	25.21	0.11	-0.750			
0.2936	18788.93	3.7780	3.7780	-0.7954	25.22	0.12	-0.750			
0.2959	18940.52	3.7750	3.7751	-0.7892	25.22	0.12	-0.750			
0.2984	19095.06	3.7720	3.7718	-0.7932	25.22	0.12	-0.750			
0.3007	19246.47	3.7690	3.7690	-0.7921	25.22	0.12	-0.750			
0.3031	19396.88	3.7660	3.7661	-0.7939	25.22	0.12	-0.750			
0.3055	19550.50	3.7630	3.7629	-0.7902	25.22	0.12	-0.750			
0.3078	19701.43	3.7600	3.7599	-0.7898	25.22	0.12	-0.750			
0.3102	19852.72	3.7570	3.7571	-0.7952	25.22	0.12	-0.750			
0.3126	20005.49	3.7540	3.7542	-0.8048	25.22	0.12	-0.750			
0.3150	20157.38	3.7510	3.7509	-0.8197	25.22	0.12	-0.750			
0.3175	20320.16	3.7480	3.7479	-0.8235	25.22	0.12	-0.750			
0.3200	20479.92	3.7450	3.7450	-0.8270	25.23	0.13	-0.750			
0.3225	20641.01	3.7420	3.7420	-0.8349	25.23	0.13	-0.750			
0.3250	20800.77	3.7390	3.7391	-0.8391	25.23	0.13	-0.750			
0.3275	20959.07	3.7360	3.7359	-0.8548	25.23	0.13	-0.750			
0.3300	21120.97	3.7330	3.7329	-0.8587	25.23	0.13	-0.750			
0.3326	21285.45	3.7300	3.7299	-0.8770	25.22	0.12	-0.750			
0.3354	21462.72	3.7270	3.7270	-0.9014	25.22	0.12	-0.750			
0.3381	21638.72	3.7240	3.7239	-0.9121	25.22	0.12	-0.750			
0.3408	21814.08	3.7210	3.7210	-0.9282	25.22	0.12	-0.750			
0.3436	21991.98	3.7180	3.7180	-0.9353	25.22	0.12	-0.750			
0.3464	22172.00	3.7150	3.7149	-0.9460	25.22	0.12	-0.750			
0.3493	22357.21	3.7120	3.7124	-0.9668	25.22	0.12	-0.750			
0.3522	22542.52	3.7090	3.7090	-0.9833	25.22	0.12	-0.750			
0.3552	22734.38	3.7060	3.7060	-1.0030	25.21	0.11	-0.750			
0.3582	22927.47	3.7030	3.7029	-1.0116	25.21	0.11	-0.750			
0.3613	23124.00	3.7000	3.7001	-1.0336	25.20	0.10	-0.750	0.381	0.497	
0.3644	23322.53	3.6970	3.6970	-1.0623	25.20	0.10	-0.750			
0.3676	23529.11	3.6940	3.6936	-1.0775	25.19	0.09	-0.750			
0.3709	23737.83	3.6910	3.6910	-1.0935	25.19	0.09	-0.750			
0.3742	23945.85	3.6880	3.6884	-1.1230	25.18	0.08	-0.750			
0.3777	24171.53	3.6850	3.6849	-1.1444	25.18	0.08	-0.750			
0.3812	24394.55	3.6820	3.6819	-1.1587	25.17	0.07	-0.750			
0.3845	24609.52	3.6790	3.6789	-1.1847	25.17	0.07	-0.750			
0.3881	24840.29	3.6760	3.6762	-1.2085	25.17	0.07	-0.750			
0.3919	25078.91	3.6730	3.6728	-1.2239	25.16	0.06	-0.750			
0.3955	25314.73	3.6700	3.6698	-1.2375	25.15	0.05	-0.750			
0.3992	25549.84	3.6670	3.6675	-1.2644	25.14	0.04	-0.750			
0.4032	25801.89	3.6640	3.6639	-1.2999	25.13	0.03	-0.750			
0.4071	26054.50	3.6610	3.6607	-1.3151	25.12	0.02	-0.750			
0.4110	26305.80	3.6580	3.6583	-1.3432	25.11	0.01	-0.750			
0.4151	26566.70	3.6550	3.6549	-1.3756	25.10	0.00	-0.750			
0.4195	26847.41	3.6520	3.6518	-1.3401	25.10	-0.00	-0.750			
0.4235	27105.05	3.6490	3.6491	-1.3463	25.09	-0.01	-0.750			
0.4275	27360.26	3.6460	3.6462	-1.3185	25.08	-0.02	-0.750			
0.4315	27613.97	3.6430	3.6429	-1.3491	25.07	-0.03	-0.750			
0.4354	27866.22	3.6400	3.6400	-1.3731	25.06	-0.04	-0.750			
0.4395	28125.14	3.6370	3.6365	-1.3854	25.05	-0.05	-0.750			
0.4437	28394.44	3.6340	3.6348	-1.4716	25.04	-0.06	-0.750			
0.4483	28688.04	3.6310	3.6308	-1.5646	25.02	-0.08	-0.750			
0.4530	28994.92	3.6280	3.6278	-1.6156	25.01	-0.09	-0.750			
0.4582	29322.64	3.6250	3.6259	-1.6628	25.01	-0.09	-0.750			
0.4634	29657.45	3.6220	3.6214	-1.7019	25.00	-0.10	-0.750			
0.4684	29980.14	3.6190	3.6186	-1.7387	24.99	-0.11	-0.750			
0.4736	30312.08	3.6160	3.6159	-1.7428	24.98	-0.12	-0.750			
0.4788	30644.29	3.6130	3.6132	-1.7670	24.97	-0.13	-0.750			
0.4841	30984.55	3.6100	3.6105	-1.7876	24.96	-0.14	-0.750			
0.4896	31336.65	3.6070	3.6066	-1.8294	24.96	-0.14	-0.750			
0.4954	31705.84	3.6040	3.6039	-1.8945	24.95	-0.15	-0.750			
0.5012	32076.25	3.6010	3.6007	-1.9290	24.94	-0.16	-0.750			
0.5072	32458.69	3.5980	3.5971	-1.9537	24.94	-0.16	-0.750			
0.5130	32830.24	3.5950	3.5946	-1.9750	24.94	-0.16	-0.750			
0.5189	33210.58	3.5920	3.5918	-2.0499	24.93	-0.17	-0.750			
0.5250	33597.82	3.5890	3.5889	-2.0939	24.92	-0.18	-0.750			
0.5315	34013.67	3.5860	3.5860	-2.1211	24.91	-0.19	-0.750			
0.5381	34436.81	3.5830	3.5828	-2.1499	24.91	-0.19	-0.750			
0.5445	34848.35	3.5800	3.5793	-2.1926	24.90	-0.20	-0.750			
0.5509	35259.43	3.5770	3.5766	-2.1978	24.90	-0.20	-0.750			
0.5577	35690.28	3.5740	3.5737	-2.1828	24.90	-0.20	-0.750			
0.5643	36114.41	3.5710	3.5711	-2.2279	24.90	-0.20	-0.750			
0.5710	36541.91	3.5680	3.5685	-2.2556	24.89	-0.21	-0.750			
0.5777	36973.16	3.5650	3.5647	-2.2598	24.89	-0.21	-0.750			
0.5843	37397.02	3.5620	3.5624	-2.2609	24.88	-0.22	-0.750			
0.5913	37843.24	3.5590	3.5596	-2.3136	24.88	-0.22	-0.750			
0.5981	38279.50	3.5560	3.5554	-2.2441	24.89	-0.21	-0.750			
0.6049	38712.21	3.5530	3.5536	-2.3039	24.89	-0.21	-0.750			
0.6120	39165.48	3.5500	3.5498	-2.2397	24.88	-0.22	-0.750			
0.6186	39592.22	3.5470	3.5469	-2.1800	24.89	-0.21	-0.750			
0.6249	39995.23	3.5440	3.5443	-2.1362	24.90	-0.20	-0.750			
0.6314	40409.00	3.5410	3.5406	-2.1023	24.90	-0.20	-0.750			
0.6377	40811.81	3.5380	3.5380	-2.0965	24.90	-0.20	-0.750			
0.6439	41212.30	3.5350	3.5351	-2.1020	24.92	-0.18	-0.750			
0.6501	41605.22	3.5320	3.5320	-1.9987	24.93	-0.17	-0.750			
0.6563	42000.82	3.5290	3.5291	-2.0202	24.94	-0.16	-0.750			
0.6621	42373.03	3.5260	3.5265	-1.9168	24.95	-0.15	-0.750			
0.6678	42740.29	3.5230	3.5229	-1.8581	24.95	-0.15	-0.750			
0.6733	43091.64	3.5200	3.5203	-1.7779	24.96	-0.14	-0.750			
0.6783	43410.59	3.5170	3.5172	-1.7323	24.98	-0.12	-0.750			
0.6835	43745.84	3.5140	3.5140	-1.6743	25.00	-0.10	-0.750			
0.6884	44057.62	3.5110	3.5109	-1.6306	25.02	-0.08	-0.750			
0.6932	44364.49	3.5080	3.5081	-1.5806	25.04	-0.06	-0.750			
0.6979	44663.25	3.5050	3.5044	-1.5276	25.05	-0.05	-0.750			
0.7025	44958.05	3.5020	3.5023	-1.4839	25.07	-0.03	-0.750			
0.7069	45241.14	3.4990	3.4988	-1.4741	25.08	-0.02	-0.750			
0.7112	45515.22	3.4960	3.4958	-1.4500	25.10	-0.00	-0.750			
0.7155	45794.69	3.4930	3.4927	-1.4378	25.11	0.01	-0.750			
0.7197	46059.85	3.4900	3.4905	-1.4936	25.13	0.03	-0.750			
0.7241	46343.96	3.4870	3.4870	-1.4500	25.15	0.05	-0.750			
