Ah_balance (normalized)	Ah_balance (mAh)	Voltage - fit (V)	Voltage -  interpolate (V)	dQ/dV (1/V)	Temperature (°C)	Temperature - diff (°C)	Current (C)	R_DC 0ms (mOhm)	R_DC 50ms (mOhm)	R_DC 50 ms PEC (mOhm)
0.0487	3113.72	4.1970	4.1972	0.7879	25.53	0.43	0.750			
0.0510	3262.36	4.1940	4.1940	0.7694	25.53	0.43	0.750			
0.0533	3408.97	4.1910	4.1910	0.7637	25.53	0.43	0.750			
0.0555	3555.10	4.1880	4.1880	0.7604	25.53	0.43	0.750			
0.0578	3699.43	4.1850	4.1850	0.7555	25.53	0.43	0.750			
0.0601	3845.01	4.1820	4.1821	0.7580	25.53	0.43	0.750			
0.0623	3990.31	4.1790	4.1790	0.7582	25.53	0.43	0.750			
0.0646	4137.33	4.1760	4.1760	0.7550	25.53	0.43	0.750			
0.0669	4281.24	4.1730	4.1730	0.7570	25.53	0.43	0.750			
0.0691	4425.55	4.1700	4.1700	0.7607	25.53	0.43	0.750			
0.0714	4571.70	4.1670	4.1670	0.7633	25.53	0.43	0.750			
0.0737	4718.79	4.1640	4.1640	0.7674	25.53	0.43	0.750			
0.0760	4866.68	4.1610	4.1611	0.7693	25.53	0.43	0.750			
0.0784	5016.02	4.1580	4.1580	0.7667	25.53	0.43	0.750			
0.0807	5162.77	4.1550	4.1551	0.7738	25.53	0.43	0.750			
0.0830	5309.88	4.1520	4.1520	0.7691	25.53	0.43	0.750			
0.0853	5457.81	4.1490	4.1490	0.7694	25.53	0.43	0.750			
0.0876	5605.83	4.1460	4.1461	0.7708	25.53	0.43	0.750			
0.0899	5753.65	4.1430	4.1432	0.7715	25.53	0.43	0.750			
0.0922	5903.45	4.1400	4.1399	0.7748	25.53	0.43	0.750			
0.0946	6051.63	4.1370	4.1370	0.7707	25.53	0.43	0.750			
0.0968	6198.25	4.1340	4.1340	0.7720	25.53	0.43	0.750			
0.0992	6348.59	4.1310	4.1310	0.7774	25.53	0.43	0.750			
0.1015	6497.00	4.1280	4.1280	0.7799	25.53	0.43	0.750			
0.1038	6646.30	4.1250	4.1251	0.7745	25.53	0.43	0.750			
0.1061	6793.01	4.1220	4.1221	0.7816	25.53	0.43	0.750			
0.1085	6943.53	4.1190	4.1190	0.7863	25.53	0.43	0.750			
0.1109	7095.64	4.1160	4.1161	0.7867	25.53	0.43	0.750			
0.1132	7246.71	4.1130	4.1131	0.7877	25.53	0.43	0.750			
0.1156	7400.64	4.1100	4.1101	0.7837	25.53	0.43	0.750			
0.1180	7549.15	4.1070	4.1070	0.7871	25.54	0.44	0.750			
0.1203	7697.39	4.1040	4.1041	0.7844	25.54	0.44	0.750			
0.1226	7847.49	4.1010	4.1005	0.7897	25.54	0.44	0.750			
0.1250	8000.66	4.0980	4.0981	0.7975	25.54	0.44	0.750			
0.1274	8155.68	4.0950	4.0951	0.8009	25.54	0.44	0.750			
0.1299	8311.67	4.0920	4.0920	0.8072	25.55	0.45	0.750			
0.1323	8466.04	4.0890	4.0890	0.7990	25.55	0.45	0.750			
0.1347	8620.76	4.0860	4.0859	0.7975	25.55	0.45	0.750			
0.1371	8773.31	4.0830	4.0830	0.7985	25.55	0.45	0.750			
0.1395	8927.01	4.0800	4.0801	0.7936	25.55	0.45	0.750			
0.1419	9078.64	4.0770	4.0769	0.8006	25.55	0.45	0.750			
0.1442	9231.33	4.0740	4.0740	0.8060	25.55	0.45	0.750			
0.1466	9384.87	4.0710	4.0709	0.8101	25.55	0.45	0.750			
0.1491	9542.74	4.0680	4.0681	0.8138	25.55	0.45	0.750			
0.1516	9702.79	4.0650	4.0650	0.8129	25.55	0.45	0.750			
0.1540	9857.55	4.0620	4.0621	0.8151	25.55	0.45	0.750			
0.1565	10013.78	4.0590	4.0590	0.8222	25.55	0.45	0.750			
0.1589	10169.54	4.0560	4.0560	0.8243	25.55	0.45	0.750			
0.1614	10328.57	4.0530	4.0530	0.8292	25.55	0.45	0.750			
0.1639	10489.02	4.0500	4.0501	0.8344	25.55	0.45	0.750			
0.1664	10651.68	4.0470	4.0470	0.8358	25.56	0.46	0.750			
0.1690	10813.15	4.0440	4.0440	0.8403	25.56	0.46	0.750			
0.1714	10972.10	4.0410	4.0410	0.8356	25.56	0.46	0.750			
0.1739	11132.21	4.0380	4.0379	0.8367	25.56	0.46	0.750			
0.1765	11294.39	4.0350	4.0350	0.8317	25.56	0.46	0.750			
0.1790	11453.35	4.0320	4.0320	0.8373	25.57	0.47	0.750			
0.1815	11613.41	4.0290	4.0290	0.8449	25.57	0.47	0.750			
0.1840	11775.27	4.0260	4.0260	0.8481	25.57	0.47	0.750			
0.1865	11938.68	4.0230	4.0230	0.8513	25.57	0.47	0.750			
0.1891	12105.30	4.0200	4.0200	0.8503	25.57	0.47	0.750			
0.1917	12268.42	4.0170	4.0171	0.8558	25.57	0.47	0.750			
0.1943	12434.28	4.0140	4.0140	0.8607	25.57	0.47	0.750			
0.1968	12595.76	4.0110	4.0108	0.8603	25.57	0.47	0.750			
0.1994	12761.28	4.0080	4.0081	0.8659	25.57	0.47	0.750			
0.2020	12929.41	4.0050	4.0050	0.8685	25.57	0.47	0.750			
0.2046	13097.29	4.0020	4.0020	0.8718	25.57	0.47	0.750			
0.2073	13266.08	3.9990	3.9990	0.8803	25.57	0.47	0.750			
0.2099	13433.18	3.9960	3.9959	0.8749	25.57	0.47	0.750			
0.2125	13601.72	3.9930	3.9929	0.8742	25.57	0.47	0.750			
0.2151	13769.21	3.9900	3.9900	0.8767	25.58	0.48	0.750			
0.2178	13938.68	3.9870	3.9872	0.8770	25.58	0.48	0.750			
0.2204	14106.20	3.9840	3.9840	0.8768	25.59	0.49	0.750			
0.2230	14274.23	3.9810	3.9811	0.8813	25.59	0.49	0.750			
0.2257	14444.43	3.9780	3.9779	0.8792	25.59	0.49	0.750			
0.2283	14613.07	3.9750	3.9750	0.8855	25.59	0.49	0.750			
0.2310	14782.94	3.9720	3.9720	0.8899	25.58	0.48	0.750			
0.2337	14954.69	3.9690	3.9691	0.8903	25.58	0.48	0.750			
0.2364	15126.66	3.9660	3.9660	0.8946	25.58	0.48	0.750			
0.2390	15297.38	3.9630	3.9630	0.8940	25.58	0.48	0.750			
0.2417	15469.05	3.9600	3.9600	0.8987	25.59	0.49	0.750			
0.2444	15643.27	3.9570	3.9570	0.9027	25.59	0.49	0.750			
0.2471	15815.19	3.9540	3.9539	0.8991	25.59	0.49	0.750			
0.2498	15989.66	3.9510	3.9510	0.8983	25.59	0.49	0.750			
0.2525	16162.79	3.9480	3.9480	0.8981	25.59	0.49	0.750			
0.2552	16333.71	3.9450	3.9450	0.8997	25.59	0.49	0.750			
0.2579	16506.34	3.9420	3.9420	0.9018	25.59	0.49	0.750			
0.2606	16678.09	3.9390	3.9390	0.9016	25.59	0.49	0.750			
0.2633	16853.48	3.9360	3.9360	0.8997	25.59	0.49	0.750			
0.2660	17026.26	3.9330	3.9330	0.9029	25.59	0.49	0.750			
0.2687	17199.04	3.9300	3.9300	0.9069	25.59	0.49	0.750			
0.2715	17373.27	3.9270	3.9270	0.9056	25.59	0.49	0.750			
0.2742	17546.90	3.9240	3.9240	0.9069	25.59	0.49	0.750			
0.2769	17721.89	3.9210	3.9211	0.9090	25.59	0.49	0.750			
0.2796	17896.92	3.9180	3.9180	0.9105	25.58	0.48	0.750			
0.2824	18073.34	3.9150	3.9150	0.9140	25.58	0.48	0.750			
0.2851	18245.58	3.9120	3.9120	0.9108	25.58	0.48	0.750			
0.2878	18421.29	3.9090	3.9089	0.9091	25.58	0.48	0.750			
0.2906	18596.33	3.9060	3.9061	0.9130	25.58	0.48	0.750			
0.2933	18771.21	3.9030	3.9030	0.9136	25.57	0.47	0.750			
0.2961	18947.57	3.9000	3.9001	0.9173	25.57	0.47	0.750			
0.2988	19123.95	3.8970	3.8969	0.9177	25.57	0.47	0.750			
0.3016	19301.34	3.8940	3.8941	0.9069	25.56	0.46	0.750			
0.3043	19473.04	3.8910	3.8911	0.9102	25.56	0.46	0.750			
0.3070	19647.95	3.8880	3.8881	0.9128	25.55	0.45	0.750			
0.3097	19821.20	3.8850	3.8846	0.9142	25.55	0.45	0.750			
0.3124	19995.95	3.8820	3.8821	0.9155	25.54	0.44	0.750			
0.3152	20172.44	3.8790	3.8790	0.9205	25.54	0.44	0.750			
0.3180	20352.65	3.8760	3.8760	0.9294	25.53	0.43	0.750			
0.3208	20530.42	3.8730	3.8730	0.9243	25.52	0.42	0.750			
0.3236	20708.42	3.8700	3.8699	0.9224	25.52	0.42	0.750			
0.3264	20887.20	3.8670	3.8670	0.9220	25.51	0.41	0.750			
0.3291	21063.03	3.8640	3.8640	0.9197	25.50	0.40	0.750			
0.3319	21239.63	3.8610	3.8611	0.9217	25.50	0.40	0.750			
0.3346	21415.83	3.8580	3.8577	0.9208	25.49	0.39	0.750			
0.3374	21594.95	3.8550	3.8550	0.9148	25.48	0.38	0.750			
0.3401	21768.46	3.8520	3.8520	0.9197	25.48	0.38	0.750			
0.3429	21948.53	3.8490	3.8490	0.9191	25.47	0.37	0.750			
0.3456	22121.01	3.8460	3.8462	0.9348	25.46	0.36	0.750			
0.3484	22299.39	3.8430	3.8429	0.9427	25.46	0.36	0.750			
0.3513	22482.28	3.8400	3.8401	0.9550	25.45	0.35	0.750			
0.3542	22667.95	3.8370	3.8372	0.9670	25.44	0.34	0.750	0.308	0.431	
0.3571	22857.36	3.8340	3.8342	0.9701	25.43	0.33	0.750			
0.3601	23044.69	3.8310	3.8309	0.9704	25.42	0.32	0.750			
0.3630	23233.40	3.8280	3.8280	0.9655	25.41	0.31	0.750			
0.3658	23414.01	3.8250	3.8250	0.9645	25.40	0.30	0.750			
0.3687	23599.16	3.8220	3.8220	0.9764	25.38	0.28	0.750			
0.3717	23787.37	3.8190	3.8189	0.9874	25.37	0.27	0.750			
0.3748	23985.77	3.8160	3.8159	0.9672	25.36	0.26	0.750			
0.3777	24171.12	3.8130	3.8130	0.9549	25.36	0.26	0.750			
0.3805	24349.31	3.8100	3.8104	0.9594	25.35	0.25	0.750			
0.3833	24530.15	3.8070	3.8068	0.9654	25.34	0.24	0.750			
0.3861	24707.60	3.8040	3.8039	0.9749	25.34	0.24	0.750			
0.3890	24896.61	3.8010	3.8010	1.0020	25.32	0.22	0.750			
0.3921	25093.74	3.7980	3.7981	1.0379	25.31	0.21	0.750			
0.3954	25302.81	3.7950	3.7950	1.0770	25.30	0.20	0.750			
0.3987	25514.76	3.7920	3.7920	1.0709	25.29	0.19	0.750			
0.4019	25718.72	3.7890	3.7890	1.0878	25.28	0.18	0.750			
0.4051	25926.33	3.7860	3.7861	1.1062	25.28	0.18	0.750			
0.4084	26139.40	3.7830	3.7832	1.1261	25.27	0.17	0.750			
0.4118	26357.50	3.7800	3.7800	1.1285	25.27	0.17	0.750			
0.4152	26570.32	3.7770	3.7772	1.1559	25.26	0.16	0.750			
0.4187	26793.82	3.7740	3.7742	1.1892	25.26	0.16	0.750			
0.4223	27030.24	3.7710	3.7702	1.2275	25.25	0.15	0.750			
0.4260	27262.35	3.7680	3.7682	1.2471	25.24	0.14	0.750			
0.4298	27508.17	3.7650	3.7651	1.2808	25.22	0.12	0.750			
0.4339	27767.11	3.7620	3.7619	1.3004	25.20	0.10	0.750			
0.4377	28012.55	3.7590	3.7590	1.3072	25.19	0.09	0.750			
0.4416	28263.17	3.7560	3.7562	1.3353	25.18	0.08	0.750			
0.4458	28532.02	3.7530	3.7530	1.3330	25.17	0.07	0.750			
0.4497	28782.94	3.7500	3.7501	1.3707	25.16	0.06	0.750			
0.4538	29045.11	3.7470	3.7472	1.3898	25.15	0.05	0.750			
0.4580	29310.14	3.7440	3.7443	1.4422	25.14	0.04	0.750			
0.4625	29597.79	3.7410	3.7413	1.4714	25.12	0.02	0.750			
0.4669	29879.92	3.7380	3.7373	1.4999	25.11	0.01	0.750			
0.4715	30177.03	3.7350	3.7352	1.5439	25.10	0.00	0.750			
0.4763	30484.97	3.7320	3.7317	1.5820	25.09	-0.01	0.750			
0.4812	30794.15	3.7290	3.7287	1.6254	25.08	-0.02	0.750			
0.4861	31107.61	3.7260	3.7260	1.6524	25.07	-0.03	0.750			
0.4910	31426.98	3.7230	3.7233	1.7380	25.06	-0.04	0.750			
0.4964	31770.79	3.7200	3.7204	1.8116	25.04	-0.06	0.750			
0.5019	32124.56	3.7170	3.7174	1.8616	25.03	-0.07	0.750			
0.5076	32488.40	3.7140	3.7144	1.9469	25.02	-0.08	0.750			
0.5135	32865.88	3.7110	3.7106	1.9093	25.01	-0.09	0.750			
0.5194	33241.66	3.7080	3.7082	2.0024	24.99	-0.11	0.750			
0.5253	33620.76	3.7050	3.7045	2.0400	24.98	-0.12	0.750			
0.5316	34024.82	3.7020	3.7020	2.0753	24.98	-0.12	0.750			
0.5380	34434.38	3.6990	3.6994	2.1472	24.98	-0.12	0.750			
0.5450	34881.29	3.6960	3.6956	2.2355	24.96	-0.14	0.750			
0.5519	35320.94	3.6930	3.6932	2.2849	24.95	-0.15	0.750			
0.5585	35744.06	3.6900	3.6904	2.3583	24.93	-0.17	0.750			
0.5658	36213.75	3.6870	3.6872	2.3684	24.93	-0.17	0.750			
0.5731	36678.13	3.6840	3.6839	2.4450	24.92	-0.18	0.750			
0.5807	37165.63	3.6810	3.6813	2.5655	24.92	-0.18	0.750			
0.5888	37685.33	3.6780	3.6785	2.7145	24.92	-0.18	0.750			
0.5966	38180.58	3.6750	3.6749	2.6665	24.93	-0.17	0.750			
0.6046	38694.47	3.6720	3.6713	2.6429	24.92	-0.18	0.750			
0.6120	39166.98	3.6690	3.6691	2.5119	24.92	-0.18	0.750			
0.6196	39656.54	3.6660	3.6653	2.4462	24.93	-0.17	0.750			
0.6267	40109.95	3.6630	3.6629	2.2364	24.94	-0.16	0.750			
0.6328	40500.51	3.6600	3.6605	2.0515	24.95	-0.15	0.750			
0.6383	40849.73	3.6570	3.6570	1.8448	24.96	-0.14	0.750			
0.6436	41187.43	3.6540	3.6535	1.7173	24.97	-0.13	0.750			
0.6486	41508.46	3.6510	3.6505	1.6048	24.98	-0.12	0.750			
0.6531	41799.40	3.6480	3.6485	1.4782	24.99	-0.11	0.750			
0.6575	42080.39	3.6450	3.6454	1.3740	25.00	-0.10	0.750			
0.6616	42339.46	3.6420	3.6420	1.2719	25.00	-0.10	0.750			
0.6650	42561.18	3.6390	3.6391	1.1409	25.01	-0.09	0.750			
0.6683	42768.57	3.6360	3.6361	1.0860	25.01	-0.09	0.750			
0.6714	42968.32	3.6330	3.6332	1.0377	25.02	-0.08	0.750			
0.6745	43165.42	3.6300	3.6301	0.9866	25.03	-0.07	0.750			
0.6773	43349.38	3.6270	3.6271	0.9582	25.04	-0.06	0.750			
0.6802	43531.10	3.6240	3.6242	0.9296	25.04	-0.06	0.750			
0.6830	43710.93	3.6210	3.6210	0.9092	25.05	-0.05	0.750			
0.6855	43874.24	3.6180	3.6176	0.8545	25.06	-0.04	0.750			
0.6881	44037.24	3.6150	3.6152	0.8109	25.07	-0.03	0.750			
0.6905	44193.21	3.6120	3.6120	0.7680	25.08	-0.02	0.750			
0.6928	44341.55	3.6090	3.6091	0.6965	25.09	-0.01	0.750			
0.6948	44467.74	3.6060	3.6061	0.6331	25.09	-0.01	0.750			
0.6966	44581.14	3.6030	3.6032	0.5727	25.10	-0.00	0.750			
0.6982	44682.76	3.6000	3.6004	0.5256	25.10	0.00	0.750			
0.6996	44776.65	3.5970	3.5955	0.4739	25.11	0.01	0.750			
0.7010	44865.02	3.5940	3.5946	0.4294	25.11	0.01	0.750			
0.7023	44945.52	3.5910	3.5914	0.3903	25.12	0.02	0.750			
0.7034	45018.92	3.5880	3.5880	0.3401	25.12	0.02	0.750			
0.7043	45076.71	3.5850	3.5851	0.2730	25.12	0.02	0.750			
0.7051	45127.56	3.5820	3.5819	0.2233	25.12	0.02	0.750			
0.7057	45164.11	3.5790	3.5792	0.1652	25.13	0.03	0.750			
0.7061	45190.14	3.5760	3.5767	0.1078	25.13	0.03	0.750			
0.7063	45205.39	3.5730	3.5739	0.0422	25.13	0.03	0.750			
