Ah_balance (normalized)	Ah_balance (mAh)	Voltage - fit (V)	Voltage -  interpolate (V)	dQ/dV (1/V)	Temperature (°C)	Temperature - diff (°C)	Current (C)	R_DC 0ms (mOhm)	R_DC 50ms (mOhm)	R_DC 50 ms PEC (mOhm)
0.0473	3024.40	4.1980	4.1982	0.7534	25.22	0.54	0.750			
0.0495	3170.30	4.1950	4.1951	0.7636	25.22	0.54	0.750			
0.0518	3316.29	4.1920	4.1921	0.7625	25.22	0.54	0.750			
0.0541	3463.22	4.1890	4.1890	0.7636	25.22	0.54	0.750			
0.0564	3611.83	4.1860	4.1860	0.7699	25.22	0.54	0.750			
0.0587	3756.56	4.1830	4.1829	0.7640	25.22	0.54	0.750			
0.0610	3904.14	4.1800	4.1800	0.7622	25.22	0.54	0.750			
0.0633	4051.05	4.1770	4.1770	0.7649	25.22	0.54	0.750			
0.0656	4200.18	4.1740	4.1740	0.7545	25.22	0.54	0.750			
0.0678	4341.83	4.1710	4.1710	0.7591	25.22	0.54	0.750			
0.0701	4486.24	4.1680	4.1681	0.7604	25.22	0.54	0.750			
0.0724	4631.08	4.1650	4.1649	0.7629	25.22	0.54	0.750			
0.0747	4778.37	4.1620	4.1621	0.7702	25.22	0.54	0.750			
0.0771	4932.02	4.1590	4.1590	0.7653	25.22	0.54	0.750			
0.0793	5076.44	4.1560	4.1561	0.7698	25.23	0.55	0.750			
0.0816	5225.22	4.1530	4.1530	0.7681	25.23	0.55	0.750			
0.0839	5371.41	4.1500	4.1501	0.7730	25.23	0.55	0.750			
0.0862	5516.22	4.1470	4.1470	0.7924	25.23	0.55	0.750			
0.0886	5670.20	4.1440	4.1441	0.8107	25.23	0.55	0.750			
0.0911	5829.07	4.1410	4.1409	0.8302	25.23	0.55	0.750			
0.0937	5996.26	4.1380	4.1380	0.8313	25.22	0.54	0.750			
0.0962	6157.48	4.1350	4.1352	0.8189	25.22	0.54	0.750			
0.0987	6318.79	4.1320	4.1321	0.8177	25.22	0.54	0.750			
0.1012	6473.99	4.1290	4.1290	0.8013	25.23	0.55	0.750			
0.1034	6620.07	4.1260	4.1259	0.7833	25.23	0.55	0.750			
0.1058	6770.02	4.1230	4.1231	0.7865	25.23	0.55	0.750			
0.1081	6920.14	4.1200	4.1200	0.7865	25.24	0.56	0.750			
0.1105	7072.71	4.1170	4.1168	0.7892	25.24	0.56	0.750			
0.1129	7224.58	4.1140	4.1140	0.7932	25.24	0.56	0.750			
0.1153	7378.70	4.1110	4.1110	0.7819	25.24	0.56	0.750			
0.1176	7528.23	4.1080	4.1080	0.7931	25.25	0.57	0.750			
0.1200	7679.83	4.1050	4.1050	0.7960	25.25	0.57	0.750			
0.1224	7830.87	4.1020	4.1019	0.7986	25.25	0.57	0.750			
0.1248	7985.30	4.0990	4.0992	0.8048	25.25	0.57	0.750			
0.1272	8142.25	4.0960	4.0960	0.8065	25.24	0.56	0.750			
0.1296	8297.04	4.0930	4.0930	0.8064	25.24	0.56	0.750			
0.1321	8453.67	4.0900	4.0900	0.8143	25.24	0.56	0.750			
0.1345	8606.63	4.0870	4.0871	0.8078	25.23	0.55	0.750			
0.1369	8762.97	4.0840	4.0839	0.8102	25.23	0.55	0.750			
0.1394	8919.42	4.0810	4.0810	0.8057	25.24	0.56	0.750			
0.1418	9073.64	4.0780	4.0781	0.8128	25.24	0.56	0.750			
0.1442	9230.74	4.0750	4.0750	0.8194	25.24	0.56	0.750			
0.1467	9386.23	4.0720	4.0720	0.8163	25.25	0.57	0.750			
0.1491	9543.01	4.0690	4.0691	0.8227	25.25	0.57	0.750			
0.1516	9705.31	4.0660	4.0660	0.8204	25.25	0.57	0.750			
0.1541	9862.09	4.0630	4.0630	0.8236	25.25	0.57	0.750			
0.1565	10018.89	4.0600	4.0601	0.8293	25.25	0.57	0.750			
0.1590	10175.76	4.0570	4.0571	0.8298	25.25	0.57	0.750			
0.1615	10335.82	4.0540	4.0541	0.8365	25.25	0.57	0.750			
0.1640	10498.13	4.0510	4.0511	0.8432	25.25	0.57	0.750			
0.1666	10660.73	4.0480	4.0480	0.8483	25.25	0.57	0.750			
0.1692	10826.13	4.0450	4.0450	0.8533	25.25	0.57	0.750			
0.1717	10989.98	4.0420	4.0421	0.8484	25.25	0.57	0.750			
0.1743	11153.53	4.0390	4.0390	0.8455	25.25	0.57	0.750			
0.1768	11318.13	4.0360	4.0360	0.8377	25.25	0.57	0.750			
0.1793	11474.92	4.0330	4.0331	0.8453	25.25	0.57	0.750			
0.1818	11635.34	4.0300	4.0300	0.8499	25.25	0.57	0.750			
0.1843	11798.10	4.0270	4.0269	0.8511	25.25	0.57	0.750			
0.1869	11962.11	4.0240	4.0241	0.8639	25.25	0.57	0.750			
0.1896	12131.88	4.0210	4.0212	0.8687	25.25	0.57	0.750			
0.1922	12299.68	4.0180	4.0180	0.8733	25.26	0.58	0.750			
0.1948	12467.56	4.0150	4.0150	0.8706	25.26	0.58	0.750			
0.1974	12634.99	4.0120	4.0119	0.8724	25.26	0.58	0.750			
0.2000	12802.86	4.0090	4.0090	0.8743	25.26	0.58	0.750			
0.2027	12971.13	4.0060	4.0061	0.8757	25.26	0.58	0.750			
0.2053	13138.34	4.0030	4.0031	0.8781	25.26	0.58	0.750			
0.2079	13307.87	4.0000	4.0000	0.8775	25.26	0.58	0.750			
0.2106	13476.16	3.9970	3.9968	0.8817	25.26	0.58	0.750			
0.2132	13646.40	3.9940	3.9941	0.8814	25.26	0.58	0.750			
0.2159	13816.17	3.9910	3.9910	0.8866	25.26	0.58	0.750			
0.2186	13987.54	3.9880	3.9880	0.8924	25.26	0.58	0.750			
0.2212	14159.32	3.9850	3.9851	0.8931	25.26	0.58	0.750			
0.2239	14329.77	3.9820	3.9820	0.8949	25.26	0.58	0.750			
0.2266	14505.51	3.9790	3.9790	0.8815	25.26	0.58	0.750			
0.2293	14672.11	3.9760	3.9761	0.8883	25.27	0.59	0.750			
0.2319	14841.46	3.9730	3.9732	0.8955	25.27	0.59	0.750			
0.2346	15012.24	3.9700	3.9700	0.8982	25.27	0.59	0.750			
0.2373	15185.66	3.9670	3.9671	0.9044	25.27	0.59	0.750			
0.2400	15359.93	3.9640	3.9642	0.9151	25.27	0.59	0.750			
0.2428	15538.76	3.9610	3.9610	0.9171	25.27	0.59	0.750			
0.2456	15721.47	3.9580	3.9579	0.9269	25.27	0.59	0.750			
0.2483	15893.64	3.9550	3.9550	0.9128	25.27	0.59	0.750			
0.2511	16070.31	3.9520	3.9520	0.9092	25.27	0.59	0.750			
0.2538	16243.68	3.9490	3.9490	0.9115	25.27	0.59	0.750			
0.2565	16417.44	3.9460	3.9460	0.9152	25.27	0.59	0.750			
0.2592	16591.83	3.9430	3.9430	0.9168	25.27	0.59	0.750			
0.2620	16770.37	3.9400	3.9401	0.9239	25.27	0.59	0.750			
0.2649	16951.28	3.9370	3.9369	0.9089	25.27	0.59	0.750			
0.2675	17122.15	3.9340	3.9341	0.9103	25.27	0.59	0.750			
0.2703	17296.26	3.9310	3.9312	0.9111	25.27	0.59	0.750			
0.2729	17468.14	3.9280	3.9273	0.9099	25.27	0.59	0.750			
0.2756	17641.46	3.9250	3.9251	0.9115	25.27	0.59	0.750			
0.2784	17818.29	3.9220	3.9222	0.9242	25.27	0.59	0.750			
0.2813	18000.09	3.9190	3.9190	0.9407	25.27	0.59	0.750			
0.2841	18182.02	3.9160	3.9159	0.9354	25.27	0.59	0.750			
0.2869	18362.50	3.9130	3.9131	0.9394	25.27	0.59	0.750			
0.2898	18544.64	3.9100	3.9100	0.9338	25.27	0.59	0.750			
0.2925	18721.98	3.9070	3.9071	0.9379	25.26	0.58	0.750			
0.2953	18901.05	3.9040	3.9040	0.9391	25.26	0.58	0.750			
0.2981	19080.69	3.9010	3.9007	0.9421	25.26	0.58	0.750			
0.3010	19263.36	3.8980	3.8981	0.9366	25.26	0.58	0.750			
0.3038	19443.50	3.8950	3.8951	0.9430	25.26	0.58	0.750			
0.3067	19625.95	3.8920	3.8921	0.9514	25.25	0.57	0.750			
0.3095	19807.89	3.8890	3.8889	0.9498	25.25	0.57	0.750			
0.3124	19990.65	3.8860	3.8860	0.9512	25.25	0.57	0.750			
0.3152	20174.09	3.8830	3.8831	0.9548	25.24	0.56	0.750			
0.3181	20358.34	3.8800	3.8800	0.9580	25.23	0.55	0.750			
0.3210	20544.86	3.8770	3.8771	0.9667	25.22	0.54	0.750			
0.3239	20728.44	3.8740	3.8740	0.9594	25.22	0.54	0.750			
0.3268	20912.16	3.8710	3.8710	0.9562	25.21	0.53	0.750			
0.3296	21094.41	3.8680	3.8681	0.9618	25.21	0.53	0.750			
0.3325	21278.68	3.8650	3.8651	0.9693	25.20	0.52	0.750			
0.3354	21465.31	3.8620	3.8617	0.9757	25.20	0.52	0.750			
0.3383	21652.62	3.8590	3.8590	0.9849	25.19	0.51	0.750			
0.3413	21840.81	3.8560	3.8561	0.9764	25.19	0.51	0.750			
0.3442	22029.16	3.8530	3.8532	0.9902	25.18	0.50	0.750			
0.3471	22217.55	3.8500	3.8500	0.9890	25.17	0.49	0.750			
0.3501	22409.18	3.8470	3.8472	0.9963	25.16	0.48	0.750			
0.3532	22604.13	3.8440	3.8441	0.9922	25.16	0.48	0.750			
0.3562	22794.30	3.8410	3.8411	0.9998	25.15	0.47	0.750			
0.3592	22991.63	3.8380	3.8380	1.0167	25.14	0.46	0.750			
0.3622	23181.72	3.8350	3.8350	0.9864	25.13	0.45	0.750			
0.3651	23368.96	3.8320	3.8322	0.9922	25.13	0.45	0.750	0.290	0.401	
0.3681	23559.69	3.8290	3.8292	1.0035	25.12	0.44	0.750			
0.3711	23751.88	3.8260	3.8261	1.0146	25.11	0.43	0.750			
0.3742	23951.96	3.8230	3.8230	1.0115	25.09	0.41	0.750			
0.3772	24143.31	3.8200	3.8201	1.0166	25.08	0.40	0.750			
0.3803	24340.01	3.8170	3.8171	1.0306	25.07	0.39	0.750			
0.3834	24540.40	3.8140	3.8142	1.0468	25.06	0.38	0.750			
0.3866	24740.88	3.8110	3.8108	1.0453	25.05	0.37	0.750			
0.3897	24942.34	3.8080	3.8080	1.0559	25.03	0.35	0.750			
0.3929	25146.76	3.8050	3.8051	1.0663	25.02	0.34	0.750			
0.3962	25353.80	3.8020	3.8020	1.0813	25.01	0.33	0.750			
0.3994	25562.82	3.7990	3.7989	1.0723	25.00	0.32	0.750			
0.4026	25768.83	3.7960	3.7961	1.0895	24.99	0.31	0.750			
0.4059	25977.90	3.7930	3.7930	1.1076	24.98	0.30	0.750			
0.4093	26193.13	3.7900	3.7900	1.1287	24.97	0.29	0.750			
0.4127	26411.26	3.7870	3.7871	1.1321	24.96	0.28	0.750			
0.4161	26628.41	3.7840	3.7841	1.1539	24.95	0.27	0.750			
0.4195	26850.90	3.7810	3.7811	1.1743	24.93	0.25	0.750			
0.4231	27077.57	3.7780	3.7776	1.2096	24.92	0.24	0.750			
0.4268	27313.41	3.7750	3.7750	1.2182	24.90	0.22	0.750			
0.4305	27549.58	3.7720	3.7720	1.2359	24.89	0.21	0.750			
0.4343	27796.80	3.7690	3.7691	1.2436	24.87	0.19	0.750			
0.4380	28030.02	3.7660	3.7660	1.2569	24.86	0.18	0.750			
0.4417	28270.92	3.7630	3.7630	1.2764	24.85	0.17	0.750			
0.4456	28520.14	3.7600	3.7600	1.2831	24.85	0.17	0.750			
0.4495	28770.89	3.7570	3.7568	1.3106	24.83	0.15	0.750			
0.4534	29018.47	3.7540	3.7543	1.3673	24.82	0.14	0.750			
0.4575	29281.27	3.7510	3.7512	1.4089	24.81	0.13	0.750			
0.4618	29557.05	3.7480	3.7479	1.4671	24.80	0.12	0.750			
0.4663	29842.57	3.7450	3.7450	1.4811	24.78	0.10	0.750			
0.4709	30140.12	3.7420	3.7421	1.5102	24.77	0.09	0.750			
0.4755	30432.92	3.7390	3.7393	1.5481	24.75	0.07	0.750			
0.4802	30733.03	3.7360	3.7355	1.5725	24.74	0.06	0.750			
0.4849	31034.54	3.7330	3.7330	1.5978	24.73	0.05	0.750			
0.4898	31349.84	3.7300	3.7302	1.6470	24.72	0.04	0.750			
0.4948	31668.79	3.7270	3.7272	1.7201	24.71	0.03	0.750			
0.5000	32002.71	3.7240	3.7243	1.7613	24.69	0.01	0.750			
0.5055	32348.94	3.7210	3.7214	1.8373	24.68	-0.00	0.750			
0.5110	32702.10	3.7180	3.7181	1.8878	24.66	-0.02	0.750			
0.5167	33066.63	3.7150	3.7145	1.9621	24.65	-0.03	0.750			
0.5226	33444.42	3.7120	3.7121	1.9906	24.63	-0.05	0.750			
0.5287	33835.99	3.7090	3.7091	2.0412	24.62	-0.06	0.750			
0.5349	34233.27	3.7060	3.7058	2.0657	24.60	-0.08	0.750			
0.5412	34638.55	3.7030	3.7031	2.1891	24.59	-0.09	0.750			
0.5480	35069.16	3.7000	3.7003	2.2263	24.58	-0.10	0.750			
0.5548	35509.62	3.6970	3.6964	2.2660	24.56	-0.12	0.750			
0.5614	35926.87	3.6940	3.6944	2.3103	24.55	-0.13	0.750			
0.5685	36382.25	3.6910	3.6907	2.3841	24.54	-0.14	0.750			
0.5756	36837.79	3.6880	3.6879	2.5527	24.53	-0.15	0.750			
0.5834	37336.13	3.6850	3.6847	2.5245	24.52	-0.16	0.750			
0.5910	37825.12	3.6820	3.6820	2.6094	24.51	-0.17	0.750			
0.5992	38348.31	3.6790	3.6786	2.6710	24.50	-0.18	0.750			
0.6072	38862.33	3.6760	3.6762	2.7370	24.50	-0.18	0.750			
0.6158	39413.78	3.6730	3.6728	2.7501	24.50	-0.18	0.750			
0.6240	39932.96	3.6700	3.6695	2.7571	24.50	-0.18	0.750			
0.6327	40494.03	3.6670	3.6672	2.7878	24.50	-0.18	0.750			
0.6414	41050.58	3.6640	3.6636	2.6554	24.51	-0.17	0.750			
0.6488	41524.39	3.6610	3.6606	2.4487	24.52	-0.16	0.750			
0.6557	41966.69	3.6580	3.6585	2.2332	24.53	-0.15	0.750			
0.6620	42367.07	3.6550	3.6551	2.0424	24.53	-0.15	0.750			
0.6678	42737.97	3.6520	3.6515	1.8722	24.55	-0.13	0.750			
0.6734	43097.23	3.6490	3.6486	1.7367	24.56	-0.12	0.750			
0.6780	43391.26	3.6460	3.6464	1.5298	24.57	-0.11	0.750			
0.6824	43674.79	3.6430	3.6433	1.3988	24.58	-0.10	0.750			
0.6864	43927.49	3.6400	3.6394	1.2624	24.58	-0.10	0.750			
0.6898	44150.13	3.6370	3.6372	1.1489	24.59	-0.09	0.750			
0.6931	44359.87	3.6340	3.6342	1.0809	24.60	-0.08	0.750			
0.6963	44561.30	3.6310	3.6309	1.0272	24.61	-0.07	0.750			
0.6992	44747.24	3.6280	3.6280	0.9700	24.61	-0.07	0.750			
0.7020	44930.82	3.6250	3.6250	0.9256	24.62	-0.06	0.750			
0.7047	45103.37	3.6220	3.6221	0.9128	24.63	-0.05	0.750			
0.7075	45277.69	3.6190	3.6191	0.8889	24.63	-0.05	0.750			
0.7101	45447.75	3.6160	3.6156	0.8530	24.64	-0.04	0.750			
0.7126	45609.23	3.6130	3.6131	0.8146	24.65	-0.03	0.750			
0.7151	45768.61	3.6100	3.6102	0.7612	24.65	-0.03	0.750			
0.7174	45911.19	3.6070	3.6070	0.7005	24.66	-0.02	0.750			
0.7194	46042.07	3.6040	3.6040	0.6298	24.67	-0.01	0.750			
0.7212	46154.68	3.6010	3.6011	0.5645	24.67	-0.01	0.750			
0.7227	46255.03	3.5980	3.5980	0.5008	24.68	-0.00	0.750			
0.7241	46344.02	3.5950	3.5950	0.4420	24.68	0.00	0.750			
0.7253	46422.20	3.5920	3.5921	0.3850	24.69	0.01	0.750			
0.7264	46492.28	3.5890	3.5890	0.3342	24.69	0.01	0.750			
0.7274	46552.65	3.5860	3.5859	0.2823	24.69	0.01	0.750			
0.7281	46599.71	3.5830	3.5830	0.2251	24.70	0.02	0.750			
0.7287	46637.95	3.5800	3.5801	0.1717	24.70	0.02	0.750			
0.7292	46666.29	3.5770	3.5774	0.1160	24.70	0.02	0.750			
0.7294	46683.17	3.5740	3.5749	0.0594	24.70	0.02	0.750			
