Ah_balance (normalized)	Ah_balance (mAh)	Voltage - fit (V)	Voltage -  interpolate (V)	dQ/dV (1/V)	Temperature (°C)	Temperature - diff (°C)	Current (C)	R_DC 0ms (mOhm)	R_DC 50ms (mOhm)	R_DC 50 ms PEC (mOhm)
0.0471	3013.30	4.1980	4.1980	0.6590	25.40	0.50	0.750			
0.0492	3146.10	4.1950	4.1951	0.7199	25.40	0.50	0.750			
0.0514	3290.68	4.1920	4.1921	0.7529	25.40	0.50	0.750			
0.0537	3437.16	4.1890	4.1891	0.7658	25.40	0.50	0.750			
0.0560	3587.01	4.1860	4.1861	0.7627	25.40	0.50	0.750			
0.0584	3737.03	4.1830	4.1830	0.7686	25.41	0.51	0.750			
0.0607	3882.26	4.1800	4.1801	0.7590	25.41	0.51	0.750			
0.0629	4028.00	4.1770	4.1768	0.7591	25.41	0.51	0.750			
0.0652	4172.72	4.1740	4.1741	0.7604	25.41	0.51	0.750			
0.0675	4318.75	4.1710	4.1710	0.7663	25.41	0.51	0.750			
0.0698	4466.60	4.1680	4.1680	0.7616	25.42	0.52	0.750			
0.0720	4610.96	4.1650	4.1650	0.7626	25.42	0.52	0.750			
0.0743	4757.42	4.1620	4.1622	0.7681	25.42	0.52	0.750			
0.0766	4905.55	4.1590	4.1592	0.7709	25.42	0.52	0.750			
0.0790	5054.61	4.1560	4.1561	0.7757	25.42	0.52	0.750			
0.0813	5205.27	4.1530	4.1531	0.7731	25.42	0.52	0.750			
0.0837	5353.92	4.1500	4.1500	0.7771	25.43	0.53	0.750			
0.0860	5501.01	4.1470	4.1471	0.7759	25.43	0.53	0.750			
0.0883	5651.92	4.1440	4.1434	0.7804	25.43	0.53	0.750			
0.0907	5802.25	4.1410	4.1410	0.7820	25.43	0.53	0.750			
0.0930	5954.59	4.1380	4.1381	0.7783	25.43	0.53	0.750			
0.0954	6103.91	4.1350	4.1350	0.7846	25.43	0.53	0.750			
0.0977	6253.94	4.1320	4.1319	0.7875	25.43	0.53	0.750			
0.1000	6402.47	4.1290	4.1289	0.7798	25.43	0.53	0.750			
0.1024	6553.01	4.1260	4.1261	0.7812	25.43	0.53	0.750			
0.1048	6704.76	4.1230	4.1230	0.7902	25.43	0.53	0.750			
0.1071	6856.87	4.1200	4.1201	0.7813	25.44	0.54	0.750			
0.1095	7004.97	4.1170	4.1170	0.7821	25.44	0.54	0.750			
0.1118	7154.38	4.1140	4.1141	0.7859	25.44	0.54	0.750			
0.1141	7304.53	4.1110	4.1111	0.7907	25.44	0.54	0.750			
0.1165	7459.04	4.1080	4.1081	0.7995	25.44	0.54	0.750			
0.1190	7614.28	4.1050	4.1050	0.7915	25.44	0.54	0.750			
0.1213	7765.63	4.1020	4.1021	0.7975	25.45	0.55	0.750			
0.1237	7918.32	4.0990	4.0991	0.7951	25.45	0.55	0.750			
0.1261	8070.68	4.0960	4.0955	0.7966	25.45	0.55	0.750			
0.1285	8223.10	4.0930	4.0931	0.7994	25.45	0.55	0.750			
0.1309	8376.73	4.0900	4.0901	0.8041	25.45	0.55	0.750			
0.1333	8534.11	4.0870	4.0870	0.8140	25.45	0.55	0.750			
0.1358	8690.13	4.0840	4.0840	0.8065	25.45	0.55	0.750			
0.1382	8845.33	4.0810	4.0808	0.8103	25.45	0.55	0.750			
0.1407	9001.82	4.0780	4.0781	0.8165	25.45	0.55	0.750			
0.1432	9162.53	4.0750	4.0750	0.7993	25.46	0.56	0.750			
0.1455	9312.43	4.0720	4.0720	0.8112	25.46	0.56	0.750			
0.1479	9467.30	4.0690	4.0691	0.8148	25.47	0.57	0.750			
0.1503	9621.64	4.0660	4.0659	0.8222	25.47	0.57	0.750			
0.1528	9781.39	4.0630	4.0632	0.8293	25.47	0.57	0.750			
0.1554	9943.34	4.0600	4.0601	0.8243	25.47	0.57	0.750			
0.1578	10101.86	4.0570	4.0571	0.8314	25.47	0.57	0.750			
0.1603	10261.51	4.0540	4.0541	0.8277	25.47	0.57	0.750			
0.1628	10421.26	4.0510	4.0508	0.8359	25.47	0.57	0.750			
0.1653	10581.94	4.0480	4.0480	0.8411	25.47	0.57	0.750			
0.1679	10744.80	4.0450	4.0450	0.8375	25.47	0.57	0.750			
0.1704	10906.16	4.0420	4.0421	0.8446	25.48	0.58	0.750			
0.1729	11068.34	4.0390	4.0391	0.8466	25.48	0.58	0.750			
0.1755	11231.47	4.0360	4.0357	0.8492	25.48	0.58	0.750			
0.1780	11393.18	4.0330	4.0330	0.8514	25.48	0.58	0.750			
0.1806	11558.46	4.0300	4.0301	0.8491	25.48	0.58	0.750			
0.1832	11723.38	4.0270	4.0271	0.8556	25.49	0.59	0.750			
0.1857	11884.77	4.0240	4.0241	0.8548	25.49	0.59	0.750			
0.1883	12049.71	4.0210	4.0204	0.8617	25.49	0.59	0.750			
0.1909	12215.99	4.0180	4.0181	0.8622	25.49	0.59	0.750			
0.1935	12383.63	4.0150	4.0150	0.8699	25.50	0.60	0.750			
0.1961	12552.65	4.0120	4.0121	0.8775	25.50	0.60	0.750			
0.1988	12724.36	4.0090	4.0090	0.8832	25.51	0.61	0.750			
0.2014	12888.30	4.0060	4.0059	0.8773	25.51	0.61	0.750			
0.2040	13057.32	4.0030	4.0030	0.8764	25.52	0.62	0.750			
0.2066	13221.48	4.0000	4.0001	0.9061	25.52	0.62	0.750			
0.2094	13399.54	3.9970	3.9970	0.9224	25.52	0.62	0.750			
0.2122	13580.62	3.9940	3.9937	0.9340	25.53	0.63	0.750			
0.2151	13763.31	3.9910	3.9913	0.9378	25.53	0.63	0.750			
0.2180	13949.39	3.9880	3.9882	0.9346	25.53	0.63	0.750			
0.2207	14127.66	3.9850	3.9850	0.9249	25.53	0.63	0.750			
0.2235	14302.72	3.9820	3.9820	0.9103	25.53	0.63	0.750			
0.2261	14470.89	3.9790	3.9790	0.8942	25.53	0.63	0.750			
0.2288	14643.58	3.9760	3.9761	0.8938	25.53	0.63	0.750			
0.2315	14814.53	3.9730	3.9730	0.8989	25.53	0.63	0.750			
0.2342	14987.41	3.9700	3.9700	0.9047	25.53	0.63	0.750			
0.2369	15160.22	3.9670	3.9670	0.9049	25.53	0.63	0.750			
0.2396	15334.78	3.9640	3.9640	0.9086	25.53	0.63	0.750			
0.2424	15511.23	3.9610	3.9610	0.9080	25.53	0.63	0.750			
0.2451	15685.53	3.9580	3.9580	0.9119	25.53	0.63	0.750			
0.2478	15861.24	3.9550	3.9551	0.9135	25.53	0.63	0.750			
0.2505	16035.16	3.9520	3.9518	0.9107	25.53	0.63	0.750			
0.2533	16211.80	3.9490	3.9490	0.9079	25.53	0.63	0.750			
0.2560	16385.40	3.9460	3.9461	0.9156	25.53	0.63	0.750			
0.2588	16560.73	3.9430	3.9430	0.9245	25.54	0.64	0.750			
0.2616	16739.95	3.9400	3.9400	0.9277	25.54	0.64	0.750			
0.2643	16916.30	3.9370	3.9369	0.9273	25.54	0.64	0.750			
0.2671	17096.39	3.9340	3.9340	0.9262	25.54	0.64	0.750			
0.2699	17275.69	3.9310	3.9311	0.9286	25.55	0.65	0.750			
0.2727	17453.66	3.9280	3.9280	0.9287	25.55	0.65	0.750			
0.2755	17629.81	3.9250	3.9248	0.9251	25.55	0.65	0.750			
0.2783	17808.11	3.9220	3.9220	0.9222	25.55	0.65	0.750			
0.2810	17986.40	3.9190	3.9191	0.9286	25.55	0.65	0.750			
0.2838	18165.49	3.9160	3.9160	0.9325	25.54	0.64	0.750			
0.2866	18343.88	3.9130	3.9131	0.9338	25.54	0.64	0.750			
0.2894	18523.85	3.9100	3.9100	0.9376	25.54	0.64	0.750			
0.2923	18704.41	3.9070	3.9070	0.9390	25.54	0.64	0.750			
0.2951	18885.27	3.9040	3.9041	0.9426	25.54	0.64	0.750			
0.2979	19067.18	3.9010	3.9010	0.9453	25.54	0.64	0.750			
0.3008	19248.14	3.8980	3.8979	0.9470	25.54	0.64	0.750			
0.3036	19431.22	3.8950	3.8950	0.9432	25.54	0.64	0.750			
0.3064	19611.57	3.8920	3.8920	0.9502	25.54	0.64	0.750			
0.3093	19795.66	3.8890	3.8890	0.9536	25.53	0.63	0.750			
0.3122	19977.94	3.8860	3.8860	0.9545	25.53	0.63	0.750			
0.3150	20162.37	3.8830	3.8831	0.9556	25.53	0.63	0.750			
0.3179	20346.07	3.8800	3.8800	0.9589	25.52	0.62	0.750			
0.3208	20529.45	3.8770	3.8770	0.9642	25.52	0.62	0.750			
0.3237	20716.54	3.8740	3.8740	0.9668	25.51	0.61	0.750			
0.3266	20901.23	3.8710	3.8709	0.9656	25.51	0.61	0.750			
0.3295	21088.12	3.8680	3.8680	0.9601	25.50	0.60	0.750			
0.3324	21271.12	3.8650	3.8651	0.9608	25.49	0.59	0.750			
0.3352	21454.32	3.8620	3.8621	0.9676	25.49	0.59	0.750			
0.3381	21638.90	3.8590	3.8588	0.9729	25.48	0.58	0.750			
0.3411	21827.36	3.8560	3.8560	0.9649	25.48	0.58	0.750			
0.3440	22013.72	3.8530	3.8530	0.9781	25.47	0.57	0.750			
0.3469	22203.29	3.8500	3.8501	0.9861	25.47	0.57	0.750			
0.3499	22393.92	3.8470	3.8469	0.9807	25.46	0.56	0.750			
0.3529	22583.77	3.8440	3.8441	0.9721	25.45	0.55	0.750			
0.3557	22766.65	3.8410	3.8411	0.9655	25.44	0.54	0.750			
0.3586	22949.21	3.8380	3.8382	0.9810	25.44	0.54	0.750			
0.3615	23138.40	3.8350	3.8351	0.9938	25.43	0.53	0.750			
0.3645	23329.34	3.8320	3.8322	0.9894	25.42	0.52	0.750	0.314	0.423	
0.3675	23519.92	3.8290	3.8293	1.0053	25.40	0.50	0.750			
0.3706	23718.00	3.8260	3.8261	1.0195	25.39	0.49	0.750			
0.3737	23915.65	3.8230	3.8231	1.0249	25.38	0.48	0.750			
0.3767	24110.78	3.8200	3.8200	1.0115	25.37	0.47	0.750			
0.3798	24305.28	3.8170	3.8170	1.0219	25.36	0.46	0.750			
0.3829	24503.65	3.8140	3.8141	1.0324	25.35	0.45	0.750			
0.3860	24703.28	3.8110	3.8110	1.0403	25.35	0.45	0.750			
0.3891	24904.11	3.8080	3.8081	1.0352	25.34	0.44	0.750			
0.3922	25102.19	3.8050	3.8051	1.0489	25.33	0.43	0.750			
0.3954	25302.87	3.8020	3.8021	1.0575	25.32	0.42	0.750			
0.3985	25507.12	3.7990	3.7990	1.0729	25.31	0.41	0.750			
0.4018	25715.23	3.7960	3.7959	1.0748	25.30	0.40	0.750			
0.4050	25922.70	3.7930	3.7931	1.0924	25.29	0.39	0.750			
0.4083	26133.98	3.7900	3.7901	1.1109	25.28	0.38	0.750			
0.4117	26349.48	3.7870	3.7869	1.1266	25.27	0.37	0.750			
0.4151	26565.14	3.7840	3.7841	1.1379	25.25	0.35	0.750			
0.4185	26784.28	3.7810	3.7811	1.1557	25.24	0.34	0.750			
0.4220	27007.38	3.7780	3.7780	1.1759	25.23	0.33	0.750			
0.4256	27239.47	3.7750	3.7747	1.1943	25.22	0.32	0.750			
0.4292	27466.78	3.7720	3.7721	1.2118	25.21	0.31	0.750			
0.4328	27700.23	3.7690	3.7690	1.2328	25.20	0.30	0.750			
0.4367	27946.60	3.7660	3.7659	1.2416	25.19	0.29	0.750			
0.4404	28182.92	3.7630	3.7630	1.2672	25.17	0.27	0.750			
0.4442	28425.78	3.7600	3.7602	1.2889	25.16	0.26	0.750			
0.4481	28677.77	3.7570	3.7571	1.3075	25.15	0.25	0.750			
0.4520	28928.36	3.7540	3.7537	1.3245	25.14	0.24	0.750			
0.4559	29178.42	3.7510	3.7512	1.3830	25.12	0.22	0.750			
0.4601	29444.35	3.7480	3.7483	1.4296	25.11	0.21	0.750			
0.4645	29728.46	3.7450	3.7444	1.4715	25.10	0.20	0.750			
0.4690	30013.41	3.7420	3.7424	1.5074	25.08	0.18	0.750			
0.4737	30319.06	3.7390	3.7391	1.5326	25.07	0.17	0.750			
0.4784	30618.17	3.7360	3.7353	1.5687	25.05	0.15	0.750			
0.4830	30910.66	3.7330	3.7331	1.6049	25.04	0.14	0.750			
0.4879	31223.82	3.7300	3.7297	1.6910	25.02	0.12	0.750			
0.4931	31560.40	3.7270	3.7274	1.7618	25.00	0.10	0.750			
0.4986	31913.16	3.7240	3.7244	1.7895	24.99	0.09	0.750			
0.5042	32270.39	3.7210	3.7205	1.8474	24.97	0.07	0.750			
0.5099	32632.21	3.7180	3.7179	1.8680	24.95	0.05	0.750			
0.5154	32987.86	3.7150	3.7148	1.9105	24.93	0.03	0.750			
0.5211	33348.65	3.7120	3.7114	1.9234	24.92	0.02	0.750			
0.5269	33722.59	3.7090	3.7089	1.9678	24.90	-0.00	0.750			
0.5331	34116.73	3.7060	3.7064	2.0659	24.88	-0.02	0.750			
0.5393	34517.60	3.7030	3.7026	2.1504	24.87	-0.03	0.750			
0.5458	34931.66	3.7000	3.6998	2.2827	24.85	-0.05	0.750			
0.5528	35381.76	3.6970	3.6966	2.3258	24.84	-0.06	0.750			
0.5597	35818.87	3.6940	3.6941	2.3297	24.83	-0.07	0.750			
0.5669	36281.67	3.6910	3.6908	2.3500	24.81	-0.09	0.750			
0.5739	36730.55	3.6880	3.6878	2.4152	24.80	-0.10	0.750			
0.5814	37212.43	3.6850	3.6849	2.6466	24.79	-0.11	0.750			
0.5892	37707.08	3.6820	3.6827	2.7220	24.78	-0.12	0.750			
0.5974	38233.65	3.6790	3.6793	2.7303	24.77	-0.13	0.750			
0.6055	38751.00	3.6760	3.6758	2.6651	24.76	-0.14	0.750			
0.6135	39266.30	3.6730	3.6730	2.8475	24.76	-0.14	0.750			
0.6223	39824.75	3.6700	3.6699	2.8880	24.75	-0.15	0.750			
0.6306	40356.33	3.6670	3.6676	2.7780	24.75	-0.15	0.750			
0.6389	40890.46	3.6640	3.6635	2.6506	24.75	-0.15	0.750			
0.6466	41383.39	3.6610	3.6612	2.5318	24.76	-0.14	0.750			
0.6538	41841.19	3.6580	3.6579	2.3125	24.76	-0.14	0.750			
0.6600	42237.26	3.6550	3.6553	1.9998	24.77	-0.13	0.750			
0.6658	42610.13	3.6520	3.6519	1.8499	24.77	-0.13	0.750			
0.6713	42960.10	3.6490	3.6483	1.7224	24.78	-0.12	0.750			
0.6760	43264.86	3.6460	3.6457	1.5351	24.79	-0.11	0.750			
0.6804	43544.73	3.6430	3.6433	1.3997	24.79	-0.11	0.750			
0.6844	43799.28	3.6400	3.6401	1.2835	24.80	-0.10	0.750			
0.6879	44027.70	3.6370	3.6366	1.1648	24.80	-0.10	0.750			
0.6912	44237.80	3.6340	3.6340	1.0670	24.81	-0.09	0.750			
0.6943	44432.97	3.6310	3.6311	1.0164	24.81	-0.09	0.750			
0.6972	44620.83	3.6280	3.6281	0.9850	24.82	-0.08	0.750			
0.7001	44809.30	3.6250	3.6248	0.9644	24.83	-0.07	0.750			
0.7029	44985.78	3.6220	3.6220	0.9212	24.84	-0.06	0.750			
0.7057	45161.86	3.6190	3.6191	0.8976	24.85	-0.05	0.750			
0.7083	45331.61	3.6160	3.6161	0.8561	24.85	-0.05	0.750			
0.7108	45493.15	3.6130	3.6131	0.8178	24.86	-0.04	0.750			
0.7132	45647.92	3.6100	3.6089	0.7432	24.87	-0.03	0.750			
0.7154	45782.65	3.6070	3.6074	0.6940	24.87	-0.03	0.750			
0.7174	45910.79	3.6040	3.6045	0.6404	24.88	-0.02	0.750			
0.7192	46030.24	3.6010	3.6010	0.5830	24.88	-0.02	0.750			
0.7209	46140.10	3.5980	3.5983	0.5320	24.89	-0.01	0.750			
0.7223	46228.99	3.5950	3.5953	0.4545	24.89	-0.01	0.750			
0.7236	46313.30	3.5920	3.5921	0.4046	24.89	-0.01	0.750			
0.7248	46385.28	3.5890	3.5890	0.3331	24.90	-0.00	0.750			
0.7257	46444.34	3.5860	3.5856	0.2827	24.90	-0.00	0.750			
0.7265	46494.06	3.5830	3.5831	0.2328	24.90	0.00	0.750			
0.7271	46534.36	3.5800	3.5802	0.1820	24.90	0.00	0.750			
0.7276	46564.90	3.5770	3.5775	0.1280	24.90	0.00	0.750			
0.7279	46584.46	3.5740	3.5738	0.0528	24.91	0.01	0.750			
