Ah_balance (normalized)	Ah_balance (mAh)	Voltage - fit (V)	Voltage -  interpolate (V)	dQ/dV (1/V)	Temperature (°C)	Temperature - diff (°C)	Current (C)	R_DC 0ms (mOhm)	R_DC 50ms (mOhm)	R_DC 50 ms PEC (mOhm)
0.0481	3076.60	4.1980	4.1979	0.7482	25.87	0.50	0.750			
0.0504	3223.27	4.1950	4.1951	0.7648	25.87	0.50	0.750			
0.0527	3369.90	4.1920	4.1921	0.7714	25.87	0.50	0.750			
0.0550	3518.93	4.1890	4.1891	0.7794	25.87	0.50	0.750			
0.0574	3672.87	4.1860	4.1858	0.7861	25.88	0.51	0.750			
0.0597	3822.54	4.1830	4.1831	0.7749	25.88	0.51	0.750			
0.0621	3972.89	4.1800	4.1801	0.7728	25.88	0.51	0.750			
0.0644	4120.68	4.1770	4.1771	0.7692	25.88	0.51	0.750			
0.0667	4268.50	4.1740	4.1740	0.7610	25.88	0.51	0.750			
0.0689	4411.12	4.1710	4.1709	0.7556	25.88	0.51	0.750			
0.0712	4555.11	4.1680	4.1680	0.7574	25.88	0.51	0.750			
0.0735	4701.15	4.1650	4.1649	0.7574	25.88	0.51	0.750			
0.0757	4846.97	4.1620	4.1620	0.7589	25.88	0.51	0.750			
0.0780	4993.58	4.1590	4.1590	0.7591	25.88	0.51	0.750			
0.0803	5138.92	4.1560	4.1560	0.7598	25.88	0.51	0.750			
0.0826	5285.24	4.1530	4.1530	0.7632	25.88	0.51	0.750			
0.0849	5430.77	4.1500	4.1501	0.7629	25.88	0.51	0.750			
0.0871	5577.10	4.1470	4.1471	0.7641	25.88	0.51	0.750			
0.0895	5725.01	4.1440	4.1440	0.7692	25.88	0.51	0.750			
0.0918	5873.36	4.1410	4.1410	0.7674	25.88	0.51	0.750			
0.0941	6020.70	4.1380	4.1380	0.7676	25.88	0.51	0.750			
0.0964	6167.93	4.1350	4.1350	0.7684	25.88	0.51	0.750			
0.0987	6315.24	4.1320	4.1319	0.7700	25.88	0.51	0.750			
0.1010	6462.78	4.1290	4.1290	0.7710	25.88	0.51	0.750			
0.1033	6612.39	4.1260	4.1260	0.7674	25.88	0.51	0.750			
0.1056	6759.48	4.1230	4.1230	0.7706	25.89	0.52	0.750			
0.1079	6907.43	4.1200	4.1201	0.7734	25.89	0.52	0.750			
0.1102	7054.23	4.1170	4.1171	0.7750	25.89	0.52	0.750			
0.1126	7203.33	4.1140	4.1140	0.7785	25.89	0.52	0.750			
0.1149	7352.98	4.1110	4.1110	0.7830	25.89	0.52	0.750			
0.1173	7506.36	4.1080	4.1080	0.7757	25.89	0.52	0.750			
0.1196	7655.91	4.1050	4.1051	0.7714	25.89	0.52	0.750			
0.1219	7802.37	4.1020	4.1021	0.7709	25.89	0.52	0.750			
0.1242	7949.59	4.0990	4.0988	0.7727	25.89	0.52	0.750			
0.1265	8095.51	4.0960	4.0960	0.7700	25.89	0.52	0.750			
0.1288	8244.64	4.0930	4.0931	0.7720	25.89	0.52	0.750			
0.1311	8393.26	4.0900	4.0901	0.7844	25.89	0.52	0.750			
0.1335	8546.40	4.0870	4.0869	0.7950	25.89	0.52	0.750			
0.1359	8697.55	4.0840	4.0839	0.7951	25.89	0.52	0.750			
0.1383	8850.54	4.0810	4.0811	0.7986	25.89	0.52	0.750			
0.1407	9006.12	4.0780	4.0781	0.8002	25.89	0.52	0.750			
0.1431	9160.57	4.0750	4.0750	0.8036	25.89	0.52	0.750			
0.1455	9315.04	4.0720	4.0720	0.8063	25.89	0.52	0.750			
0.1479	9467.48	4.0690	4.0691	0.8036	25.89	0.52	0.750			
0.1503	9622.10	4.0660	4.0660	0.8091	25.89	0.52	0.750			
0.1529	9783.00	4.0630	4.0630	0.8009	25.89	0.52	0.750			
0.1552	9934.20	4.0600	4.0600	0.8042	25.89	0.52	0.750			
0.1576	10088.71	4.0570	4.0571	0.8076	25.89	0.52	0.750			
0.1600	10241.14	4.0540	4.0541	0.8117	25.89	0.52	0.750			
0.1624	10396.07	4.0510	4.0510	0.8121	25.89	0.52	0.750			
0.1649	10553.65	4.0480	4.0481	0.8183	25.90	0.53	0.750			
0.1674	10711.81	4.0450	4.0451	0.8272	25.90	0.53	0.750			
0.1699	10873.99	4.0420	4.0420	0.8325	25.90	0.53	0.750			
0.1724	11032.84	4.0390	4.0391	0.8274	25.91	0.54	0.750			
0.1749	11192.71	4.0360	4.0360	0.8310	25.91	0.54	0.750			
0.1774	11354.04	4.0330	4.0330	0.8254	25.91	0.54	0.750			
0.1799	11512.49	4.0300	4.0301	0.8310	25.91	0.54	0.750			
0.1823	11670.27	4.0270	4.0270	0.8307	25.91	0.54	0.750			
0.1848	11828.79	4.0240	4.0241	0.8316	25.91	0.54	0.750			
0.1873	11987.65	4.0210	4.0209	0.8408	25.91	0.54	0.750			
0.1899	12152.86	4.0180	4.0180	0.8333	25.91	0.54	0.750			
0.1924	12313.80	4.0150	4.0149	0.8413	25.91	0.54	0.750			
0.1949	12474.08	4.0120	4.0121	0.8488	25.92	0.55	0.750			
0.1974	12636.45	4.0090	4.0092	0.8488	25.92	0.55	0.750			
0.2000	12799.95	4.0060	4.0060	0.8536	25.92	0.55	0.750			
0.2026	12966.49	4.0030	4.0030	0.8503	25.92	0.55	0.750			
0.2051	13128.63	4.0000	4.0002	0.8539	25.92	0.55	0.750			
0.2077	13295.15	3.9970	3.9971	0.8598	25.93	0.56	0.750			
0.2103	13458.17	3.9940	3.9941	0.8552	25.93	0.56	0.750			
0.2129	13622.48	3.9910	3.9910	0.8584	25.93	0.56	0.750			
0.2155	13790.21	3.9880	3.9880	0.8529	25.93	0.56	0.750			
0.2180	13952.61	3.9850	3.9850	0.8563	25.93	0.56	0.750			
0.2206	14118.39	3.9820	3.9821	0.8648	25.93	0.56	0.750			
0.2231	14281.46	3.9790	3.9790	0.8597	25.93	0.56	0.750			
0.2257	14447.72	3.9760	3.9760	0.8613	25.93	0.56	0.750			
0.2284	14618.13	3.9730	3.9731	0.8489	25.93	0.56	0.750			
0.2309	14778.62	3.9700	3.9700	0.8530	25.93	0.56	0.750			
0.2335	14943.26	3.9670	3.9671	0.8576	25.93	0.56	0.750			
0.2360	15102.05	3.9640	3.9642	0.8545	25.93	0.56	0.750			
0.2385	15265.90	3.9610	3.9613	0.8666	25.93	0.56	0.750			
0.2412	15434.07	3.9580	3.9581	0.8744	25.93	0.56	0.750			
0.2438	15605.61	3.9550	3.9551	0.8833	25.93	0.56	0.750			
0.2466	15783.57	3.9520	3.9519	0.9009	25.93	0.56	0.750			
0.2492	15947.89	3.9490	3.9490	0.8799	25.93	0.56	0.750			
0.2518	16117.83	3.9460	3.9460	0.8837	25.93	0.56	0.750			
0.2545	16287.25	3.9430	3.9430	0.8849	25.93	0.56	0.750			
0.2571	16456.94	3.9400	3.9400	0.8868	25.93	0.56	0.750			
0.2598	16626.60	3.9370	3.9371	0.8910	25.93	0.56	0.750			
0.2625	16799.75	3.9340	3.9340	0.8938	25.93	0.56	0.750			
0.2652	16973.45	3.9310	3.9309	0.8861	25.92	0.55	0.750			
0.2679	17143.80	3.9280	3.9280	0.8875	25.92	0.55	0.750			
0.2705	17313.44	3.9250	3.9252	0.8835	25.92	0.55	0.750			
0.2732	17481.85	3.9220	3.9219	0.8831	25.91	0.54	0.750			
0.2758	17650.68	3.9190	3.9191	0.8823	25.91	0.54	0.750			
0.2784	17819.04	3.9160	3.9160	0.8758	25.90	0.53	0.750			
0.2811	17987.93	3.9130	3.9130	0.8822	25.90	0.53	0.750			
0.2838	18160.78	3.9100	3.9101	0.8857	25.89	0.52	0.750			
0.2864	18327.63	3.9070	3.9069	0.8775	25.89	0.52	0.750			
0.2890	18496.97	3.9040	3.9040	0.8765	25.89	0.52	0.750			
0.2916	18664.22	3.9010	3.9011	0.8767	25.88	0.51	0.750			
0.2942	18832.00	3.8980	3.8980	0.8790	25.88	0.51	0.750			
0.2969	19001.54	3.8950	3.8950	0.8806	25.87	0.50	0.750			
0.2995	19169.78	3.8920	3.8920	0.8755	25.87	0.50	0.750			
0.3022	19339.84	3.8890	3.8890	0.8743	25.87	0.50	0.750			
0.3048	19508.09	3.8860	3.8861	0.8713	25.86	0.49	0.750			
0.3074	19674.47	3.8830	3.8830	0.8672	25.86	0.49	0.750			
0.3100	19838.53	3.8800	3.8800	0.8626	25.85	0.48	0.750			
0.3125	20002.86	3.8770	3.8770	0.8679	25.85	0.48	0.750			
0.3152	20169.95	3.8740	3.8739	0.8668	25.84	0.47	0.750			
0.3177	20335.74	3.8710	3.8710	0.8801	25.83	0.46	0.750			
0.3204	20505.24	3.8680	3.8680	0.8941	25.82	0.45	0.750			
0.3231	20679.02	3.8650	3.8650	0.9002	25.81	0.44	0.750			
0.3258	20854.18	3.8620	3.8621	0.9053	25.81	0.44	0.750			
0.3286	21029.34	3.8590	3.8591	0.9031	25.80	0.43	0.750			
0.3313	21202.82	3.8560	3.8560	0.9029	25.80	0.43	0.750			
0.3340	21377.86	3.8530	3.8530	0.9007	25.79	0.42	0.750			
0.3366	21543.54	3.8500	3.8498	0.9056	25.79	0.42	0.750			
0.3394	21718.97	3.8470	3.8470	0.9035	25.78	0.41	0.750			
0.3421	21892.83	3.8440	3.8439	0.9219	25.77	0.40	0.750			
0.3449	22071.94	3.8410	3.8412	0.9343	25.76	0.39	0.750	0.327	0.467	
0.3477	22253.04	3.8380	3.8382	0.9466	25.75	0.38	0.750			
0.3506	22438.22	3.8350	3.8352	0.9466	25.75	0.38	0.750			
0.3534	22620.52	3.8320	3.8320	0.9523	25.74	0.37	0.750			
0.3563	22800.16	3.8290	3.8291	0.9503	25.73	0.36	0.750			
0.3592	22986.15	3.8260	3.8261	0.9624	25.72	0.35	0.750			
0.3620	23167.80	3.8230	3.8229	0.9626	25.71	0.34	0.750			
0.3649	23353.48	3.8200	3.8200	0.9657	25.70	0.33	0.750			
0.3678	23537.69	3.8170	3.8171	0.9787	25.70	0.33	0.750			
0.3708	23728.53	3.8140	3.8140	0.9923	25.69	0.32	0.750			
0.3737	23919.25	3.8110	3.8108	1.0007	25.68	0.31	0.750			
0.3768	24117.20	3.8080	3.8080	0.9920	25.67	0.30	0.750			
0.3798	24305.50	3.8050	3.8051	1.0119	25.66	0.29	0.750			
0.3828	24498.34	3.8020	3.8022	1.0310	25.65	0.28	0.750			
0.3859	24695.92	3.7990	3.7988	1.0455	25.64	0.27	0.750			
0.3890	24898.92	3.7960	3.7961	1.0580	25.63	0.26	0.750			
0.3923	25105.14	3.7930	3.7931	1.0789	25.63	0.26	0.750			
0.3955	25314.33	3.7900	3.7901	1.0999	25.62	0.25	0.750			
0.3990	25535.23	3.7870	3.7867	1.1155	25.61	0.24	0.750			
0.4022	25741.05	3.7840	3.7841	1.1188	25.60	0.23	0.750			
0.4056	25957.32	3.7810	3.7811	1.1431	25.59	0.22	0.750			
0.4090	26178.50	3.7780	3.7780	1.1691	25.58	0.21	0.750			
0.4127	26410.54	3.7750	3.7750	1.1638	25.57	0.20	0.750			
0.4161	26633.48	3.7720	3.7721	1.1926	25.56	0.19	0.750			
0.4197	26861.38	3.7690	3.7692	1.2229	25.54	0.17	0.750			
0.4235	27101.41	3.7660	3.7657	1.2443	25.53	0.16	0.750			
0.4272	27338.35	3.7630	3.7631	1.2717	25.52	0.15	0.750			
0.4310	27586.04	3.7600	3.7601	1.3031	25.50	0.13	0.750			
0.4351	27843.32	3.7570	3.7570	1.3242	25.49	0.12	0.750			
0.4392	28105.88	3.7540	3.7540	1.3695	25.47	0.10	0.750			
0.4432	28362.83	3.7510	3.7511	1.3865	25.46	0.09	0.750			
0.4474	28636.03	3.7480	3.7479	1.3919	25.45	0.08	0.750			
0.4517	28910.30	3.7450	3.7451	1.4334	25.44	0.07	0.750			
0.4559	29178.03	3.7420	3.7422	1.4755	25.42	0.05	0.750			
0.4605	29473.96	3.7390	3.7388	1.4876	25.40	0.03	0.750			
0.4651	29769.23	3.7360	3.7361	1.5061	25.39	0.02	0.750			
0.4695	30051.05	3.7330	3.7329	1.5503	25.38	0.01	0.750			
0.4742	30351.02	3.7300	3.7302	1.6114	25.37	-0.00	0.750			
0.4792	30665.87	3.7270	3.7272	1.6304	25.35	-0.02	0.750			
0.4841	30981.92	3.7240	3.7244	1.7065	25.34	-0.03	0.750			
0.4892	31310.67	3.7210	3.7207	1.7687	25.32	-0.05	0.750			
0.4948	31669.92	3.7180	3.7175	1.8205	25.31	-0.06	0.750			
0.5002	32014.30	3.7150	3.7151	1.8382	25.30	-0.07	0.750			
0.5058	32373.31	3.7120	3.7123	1.9471	25.28	-0.09	0.750			
0.5118	32753.57	3.7090	3.7090	2.0191	25.27	-0.10	0.750			
0.5178	33140.54	3.7060	3.7056	2.0499	25.26	-0.11	0.750			
0.5243	33553.21	3.7030	3.7032	2.0595	25.25	-0.12	0.750			
0.5306	33961.18	3.7000	3.7001	2.1356	25.23	-0.14	0.750			
0.5370	34370.24	3.6970	3.6966	2.1602	25.22	-0.15	0.750			
0.5436	34788.54	3.6940	3.6946	2.2606	25.21	-0.16	0.750			
0.5505	35230.89	3.6910	3.6908	2.4288	25.20	-0.17	0.750			
0.5580	35709.55	3.6880	3.6880	2.3229	25.20	-0.17	0.750			
0.5647	36141.28	3.6850	3.6843	2.3233	25.19	-0.18	0.750			
0.5717	36588.94	3.6820	3.6826	2.3398	25.18	-0.19	0.750			
0.5786	37028.35	3.6790	3.6794	2.3518	25.18	-0.19	0.750			
0.5862	37519.68	3.6760	3.6761	2.4861	25.19	-0.18	0.750			
0.5934	37974.41	3.6730	3.6726	2.2835	25.20	-0.17	0.750			
0.6000	38399.14	3.6700	3.6704	2.1303	25.20	-0.17	0.750			
0.6060	38780.87	3.6670	3.6670	1.9627	25.21	-0.16	0.750			
0.6114	39132.43	3.6640	3.6635	1.8243	25.21	-0.16	0.750			
0.6169	39478.64	3.6610	3.6615	1.7311	25.21	-0.16	0.750			
0.6221	39813.91	3.6580	3.6583	1.6391	25.22	-0.15	0.750			
0.6268	40112.38	3.6550	3.6553	1.5183	25.23	-0.14	0.750			
0.6313	40401.61	3.6520	3.6521	1.4322	25.24	-0.13	0.750			
0.6353	40661.32	3.6490	3.6488	1.3291	25.25	-0.12	0.750			
0.6391	40903.23	3.6460	3.6459	1.2047	25.25	-0.12	0.750			
0.6424	41116.68	3.6430	3.6431	1.1481	25.26	-0.11	0.750			
0.6458	41330.89	3.6400	3.6402	1.1009	25.26	-0.11	0.750			
0.6490	41536.19	3.6370	3.6361	1.0619	25.27	-0.10	0.750			
0.6520	41730.75	3.6340	3.6342	1.0080	25.28	-0.09	0.750			
0.6550	41921.88	3.6310	3.6311	0.9773	25.28	-0.09	0.750			
0.6579	42108.12	3.6280	3.6281	0.9438	25.29	-0.08	0.750			
0.6607	42287.90	3.6250	3.6249	0.9010	25.30	-0.07	0.750			
0.6634	42457.92	3.6220	3.6219	0.8685	25.31	-0.06	0.750			
0.6660	42624.09	3.6190	3.6190	0.8243	25.31	-0.06	0.750			
0.6684	42778.04	3.6160	3.6159	0.7883	25.32	-0.05	0.750			
0.6707	42927.71	3.6130	3.6131	0.7497	25.33	-0.04	0.750			
0.6729	43066.48	3.6100	3.6100	0.6990	25.34	-0.03	0.750			
0.6750	43197.14	3.6070	3.6070	0.6530	25.34	-0.03	0.750			
0.6768	43318.26	3.6040	3.6041	0.6061	25.35	-0.02	0.750			
0.6786	43431.15	3.6010	3.6010	0.5527	25.35	-0.02	0.750			
0.6802	43533.39	3.5980	3.5979	0.5022	25.35	-0.02	0.750			
0.6816	43624.12	3.5950	3.5950	0.4404	25.36	-0.01	0.750			
0.6828	43702.31	3.5920	3.5923	0.3961	25.36	-0.01	0.750			
0.6839	43771.85	3.5890	3.5895	0.3538	25.36	-0.01	0.750			
0.6849	43835.65	3.5860	3.5853	0.3057	25.37	-0.00	0.750			
0.6858	43889.70	3.5830	3.5836	0.2627	25.37	-0.00	0.750			
0.6865	43937.74	3.5800	3.5804	0.2246	25.37	-0.00	0.750			
0.6871	43975.74	3.5770	3.5779	0.1810	25.37	0.00	0.750			
0.6877	44010.85	3.5740	3.5747	0.1198	25.37	0.00	0.750			
0.6879	44027.36	3.5710	3.5718	0.0454	25.37	0.00	0.750			
