Ah_balance (normalized)	Ah_balance (mAh)	Voltage - fit (V)	Voltage -  interpolate (V)	dQ/dV (1/V)	Temperature (°C)	Temperature - diff (°C)	Current (C)	R_DC 0ms (mOhm)	R_DC 50ms (mOhm)	R_DC 50 ms PEC (mOhm)
0.0477	3055.37	4.1990	4.1990	0.7181	25.21	0.41	0.750			
0.0499	3195.22	4.1960	4.1958	0.7337	25.21	0.41	0.750			
0.0521	3337.32	4.1930	4.1930	0.7416	25.21	0.41	0.750			
0.0544	3480.69	4.1900	4.1900	0.7470	25.21	0.41	0.750			
0.0566	3624.96	4.1870	4.1870	0.7540	25.20	0.40	0.750			
0.0589	3770.48	4.1840	4.1840	0.7576	25.20	0.40	0.750			
0.0612	3915.42	4.1810	4.1810	0.7592	25.20	0.40	0.750			
0.0635	4062.58	4.1780	4.1780	0.7595	25.20	0.40	0.750			
0.0658	4209.38	4.1750	4.1750	0.7599	25.20	0.40	0.750			
0.0680	4354.60	4.1720	4.1720	0.7580	25.20	0.40	0.750			
0.0703	4499.14	4.1690	4.1690	0.7596	25.20	0.40	0.750			
0.0726	4643.71	4.1660	4.1660	0.7588	25.20	0.40	0.750			
0.0748	4789.88	4.1630	4.1627	0.7641	25.20	0.40	0.750			
0.0771	4936.99	4.1600	4.1601	0.7672	25.20	0.40	0.750			
0.0795	5085.99	4.1570	4.1570	0.7681	25.20	0.40	0.750			
0.0818	5234.91	4.1540	4.1540	0.7694	25.20	0.40	0.750			
0.0841	5382.30	4.1510	4.1510	0.7698	25.20	0.40	0.750			
0.0864	5528.25	4.1480	4.1480	0.7664	25.20	0.40	0.750			
0.0887	5675.68	4.1450	4.1450	0.7681	25.20	0.40	0.750			
0.0910	5823.14	4.1420	4.1420	0.7675	25.20	0.40	0.750			
0.0933	5970.35	4.1390	4.1390	0.7709	25.20	0.40	0.750			
0.0956	6118.87	4.1360	4.1360	0.7770	25.20	0.40	0.750			
0.0979	6268.29	4.1330	4.1330	0.7763	25.20	0.40	0.750			
0.1003	6416.49	4.1300	4.1300	0.7787	25.20	0.40	0.750			
0.1026	6567.36	4.1270	4.1271	0.7827	25.20	0.40	0.750			
0.1050	6718.47	4.1240	4.1240	0.7807	25.20	0.40	0.750			
0.1073	6868.16	4.1210	4.1209	0.7809	25.20	0.40	0.750			
0.1096	7016.88	4.1180	4.1182	0.7816	25.20	0.40	0.750			
0.1120	7167.24	4.1150	4.1147	0.7836	25.20	0.40	0.750			
0.1144	7319.20	4.1120	4.1120	0.7868	25.20	0.40	0.750			
0.1167	7470.47	4.1090	4.1090	0.7825	25.20	0.40	0.750			
0.1191	7620.70	4.1060	4.1060	0.7883	25.20	0.40	0.750			
0.1214	7771.99	4.1030	4.1030	0.7918	25.20	0.40	0.750			
0.1238	7922.12	4.1000	4.0999	0.7916	25.20	0.40	0.750			
0.1262	8074.98	4.0970	4.0970	0.7934	25.20	0.40	0.750			
0.1286	8229.26	4.0940	4.0940	0.7955	25.20	0.40	0.750			
0.1310	8381.66	4.0910	4.0910	0.7977	25.20	0.40	0.750			
0.1334	8535.87	4.0880	4.0881	0.8013	25.20	0.40	0.750			
0.1358	8688.04	4.0850	4.0850	0.7991	25.20	0.40	0.750			
0.1382	8841.95	4.0820	4.0819	0.8005	25.20	0.40	0.750			
0.1406	8997.89	4.0790	4.0790	0.7995	25.20	0.40	0.750			
0.1430	9149.86	4.0760	4.0761	0.8054	25.20	0.40	0.750			
0.1454	9305.11	4.0730	4.0730	0.8105	25.20	0.40	0.750			
0.1478	9459.51	4.0700	4.0701	0.8142	25.20	0.40	0.750			
0.1502	9615.78	4.0670	4.0668	0.8185	25.20	0.40	0.750			
0.1527	9775.88	4.0640	4.0641	0.8178	25.20	0.40	0.750			
0.1552	9934.28	4.0610	4.0611	0.8236	25.20	0.40	0.750			
0.1577	10091.91	4.0580	4.0581	0.8236	25.21	0.41	0.750			
0.1601	10249.50	4.0550	4.0550	0.8205	25.21	0.41	0.750			
0.1626	10406.67	4.0520	4.0519	0.8210	25.21	0.41	0.750			
0.1651	10565.04	4.0490	4.0490	0.8201	25.21	0.41	0.750			
0.1675	10722.02	4.0460	4.0461	0.8275	25.21	0.41	0.750			
0.1700	10881.62	4.0430	4.0430	0.8332	25.21	0.41	0.750			
0.1725	11039.90	4.0400	4.0400	0.8349	25.21	0.41	0.750			
0.1750	11200.39	4.0370	4.0369	0.8424	25.21	0.41	0.750			
0.1776	11367.35	4.0340	4.0341	0.8391	25.21	0.41	0.750			
0.1801	11528.68	4.0310	4.0310	0.8470	25.21	0.41	0.750			
0.1827	11691.40	4.0280	4.0281	0.8464	25.22	0.42	0.750			
0.1852	11852.13	4.0250	4.0251	0.8468	25.22	0.42	0.750			
0.1877	12014.31	4.0220	4.0218	0.8484	25.22	0.42	0.750			
0.1903	12178.91	4.0190	4.0191	0.8464	25.22	0.42	0.750			
0.1928	12340.98	4.0160	4.0160	0.8524	25.22	0.42	0.750			
0.1954	12505.90	4.0130	4.0131	0.8604	25.22	0.42	0.750			
0.1980	12670.28	4.0100	4.0100	0.8572	25.22	0.42	0.750			
0.2005	12834.91	4.0070	4.0071	0.8627	25.22	0.42	0.750			
0.2032	13002.47	4.0040	4.0040	0.8579	25.22	0.42	0.750			
0.2058	13168.20	4.0010	4.0010	0.8660	25.22	0.42	0.750			
0.2083	13334.23	3.9980	3.9980	0.8700	25.22	0.42	0.750			
0.2109	13499.88	3.9950	3.9952	0.8738	25.22	0.42	0.750			
0.2136	13668.25	3.9920	3.9921	0.8771	25.22	0.42	0.750			
0.2162	13839.47	3.9890	3.9890	0.8782	25.23	0.43	0.750			
0.2189	14008.23	3.9860	3.9860	0.8818	25.23	0.43	0.750			
0.2215	14178.81	3.9830	3.9830	0.8850	25.23	0.43	0.750			
0.2242	14346.01	3.9800	3.9798	0.8843	25.24	0.44	0.750			
0.2268	14515.79	3.9770	3.9771	0.8867	25.24	0.44	0.750			
0.2295	14685.93	3.9740	3.9740	0.8828	25.24	0.44	0.750			
0.2321	14856.13	3.9710	3.9710	0.8886	25.23	0.43	0.750			
0.2348	15028.17	3.9680	3.9681	0.8934	25.23	0.43	0.750			
0.2375	15197.98	3.9650	3.9650	0.8924	25.23	0.43	0.750			
0.2402	15370.50	3.9620	3.9620	0.8920	25.23	0.43	0.750			
0.2428	15541.89	3.9590	3.9590	0.8959	25.23	0.43	0.750			
0.2456	15715.41	3.9560	3.9560	0.8978	25.24	0.44	0.750			
0.2482	15887.45	3.9530	3.9530	0.8960	25.24	0.44	0.750			
0.2509	16058.79	3.9500	3.9501	0.8973	25.24	0.44	0.750			
0.2536	16231.86	3.9470	3.9470	0.8932	25.24	0.44	0.750			
0.2563	16402.42	3.9440	3.9440	0.8967	25.25	0.45	0.750			
0.2590	16574.82	3.9410	3.9411	0.9027	25.25	0.45	0.750			
0.2617	16748.29	3.9380	3.9377	0.9050	25.25	0.45	0.750			
0.2645	16925.79	3.9350	3.9349	0.8981	25.25	0.45	0.750			
0.2672	17098.24	3.9320	3.9321	0.8967	25.25	0.45	0.750			
0.2698	17268.55	3.9290	3.9291	0.9027	25.24	0.44	0.750			
0.2725	17442.70	3.9260	3.9261	0.9067	25.24	0.44	0.750			
0.2752	17613.60	3.9230	3.9227	0.9030	25.24	0.44	0.750			
0.2779	17787.65	3.9200	3.9201	0.9054	25.24	0.44	0.750			
0.2807	17964.22	3.9170	3.9171	0.9134	25.24	0.44	0.750			
0.2835	18141.37	3.9140	3.9140	0.9166	25.24	0.44	0.750			
0.2862	18316.84	3.9110	3.9110	0.9119	25.24	0.44	0.750			
0.2889	18491.38	3.9080	3.9081	0.9116	25.24	0.44	0.750			
0.2917	18668.65	3.9050	3.9050	0.8996	25.23	0.43	0.750			
0.2943	18837.59	3.9020	3.9021	0.9067	25.23	0.43	0.750			
0.2970	19009.61	3.8990	3.8991	0.9061	25.22	0.42	0.750			
0.2998	19184.51	3.8960	3.8951	0.9098	25.22	0.42	0.750			
0.3025	19360.35	3.8930	3.8932	0.9119	25.22	0.42	0.750			
0.3053	19536.08	3.8900	3.8902	0.9171	25.21	0.41	0.750			
0.3081	19716.22	3.8870	3.8870	0.9257	25.21	0.41	0.750			
0.3108	19891.74	3.8840	3.8840	0.9111	25.20	0.40	0.750			
0.3135	20066.64	3.8810	3.8810	0.9158	25.20	0.40	0.750			
0.3163	20244.85	3.8780	3.8780	0.9184	25.19	0.39	0.750			
0.3191	20421.57	3.8750	3.8750	0.9198	25.18	0.38	0.750			
0.3218	20597.34	3.8720	3.8720	0.9267	25.18	0.38	0.750			
0.3246	20774.80	3.8690	3.8690	0.9266	25.17	0.37	0.750			
0.3274	20956.71	3.8660	3.8659	0.9155	25.16	0.36	0.750			
0.3302	21131.63	3.8630	3.8630	0.9160	25.15	0.35	0.750			
0.3329	21305.61	3.8600	3.8602	0.9180	25.14	0.34	0.750			
0.3357	21481.79	3.8570	3.8571	0.9188	25.14	0.34	0.750			
0.3384	21660.01	3.8540	3.8540	0.9087	25.13	0.33	0.750			
0.3412	21836.64	3.8510	3.8510	0.8832	25.12	0.32	0.750			
0.3438	22005.90	3.8480	3.8482	0.8862	25.12	0.32	0.750			
0.3464	22170.11	3.8450	3.8455	0.8961	25.12	0.32	0.750			
0.3490	22335.83	3.8420	3.8415	0.8989	25.11	0.31	0.750			
0.3517	22510.54	3.8390	3.8386	0.9114	25.10	0.30	0.750	0.334	0.435	
0.3545	22686.97	3.8360	3.8363	0.9297	25.09	0.29	0.750			
0.3573	22869.90	3.8330	3.8332	0.9567	25.08	0.28	0.750			
0.3604	23065.21	3.8300	3.8300	0.9803	25.07	0.27	0.750			
0.3633	23248.48	3.8270	3.8269	0.9680	25.06	0.26	0.750			
0.3662	23436.15	3.8240	3.8240	0.9633	25.05	0.25	0.750			
0.3691	23620.96	3.8210	3.8212	0.9745	25.04	0.24	0.750			
0.3720	23807.55	3.8180	3.8181	0.9903	25.04	0.24	0.750			
0.3750	23997.49	3.8150	3.8146	0.9972	25.03	0.23	0.750			
0.3779	24187.89	3.8120	3.8121	1.0022	25.02	0.22	0.750			
0.3810	24382.43	3.8090	3.8091	1.0200	25.02	0.22	0.750			
0.3841	24585.50	3.8060	3.8061	1.0389	25.01	0.21	0.750			
0.3873	24789.81	3.8030	3.8029	1.0453	25.00	0.20	0.750			
0.3904	24982.98	3.8000	3.8000	1.0372	24.99	0.19	0.750			
0.3935	25181.71	3.7970	3.7971	1.0555	24.98	0.18	0.750			
0.3966	25385.27	3.7940	3.7940	1.0704	24.97	0.17	0.750			
0.3999	25595.61	3.7910	3.7907	1.0730	24.96	0.16	0.750			
0.4031	25799.99	3.7880	3.7881	1.0933	24.95	0.15	0.750			
0.4064	26010.54	3.7850	3.7851	1.1153	24.94	0.14	0.750			
0.4098	26227.81	3.7820	3.7821	1.1408	24.94	0.14	0.750			
0.4132	26445.76	3.7790	3.7790	1.1523	24.93	0.13	0.750			
0.4167	26668.58	3.7760	3.7761	1.1786	24.92	0.12	0.750			
0.4203	26899.30	3.7730	3.7731	1.2083	24.91	0.11	0.750			
0.4240	27136.66	3.7700	3.7697	1.2268	24.90	0.10	0.750			
0.4277	27372.28	3.7670	3.7671	1.2421	24.89	0.09	0.750			
0.4315	27614.16	3.7640	3.7641	1.2692	24.88	0.08	0.750			
0.4354	27863.88	3.7610	3.7609	1.2806	24.87	0.07	0.750			
0.4393	28116.10	3.7580	3.7580	1.2966	24.85	0.05	0.750			
0.4431	28355.60	3.7550	3.7551	1.3308	24.85	0.05	0.750			
0.4470	28610.70	3.7520	3.7522	1.3753	24.84	0.04	0.750			
0.4512	28876.96	3.7490	3.7490	1.4163	24.83	0.03	0.750			
0.4555	29152.50	3.7460	3.7458	1.4601	24.82	0.02	0.750			
0.4600	29441.24	3.7430	3.7432	1.4907	24.81	0.01	0.750			
0.4647	29739.13	3.7400	3.7402	1.4934	24.79	-0.01	0.750			
0.4692	30031.90	3.7370	3.7371	1.5141	24.78	-0.02	0.750			
0.4738	30324.02	3.7340	3.7339	1.5177	24.77	-0.03	0.750			
0.4784	30618.05	3.7310	3.7307	1.5668	24.76	-0.04	0.750			
0.4831	30916.04	3.7280	3.7279	1.6173	24.75	-0.05	0.750			
0.4880	31235.17	3.7250	3.7247	1.6837	24.74	-0.06	0.750			
0.4932	31562.97	3.7220	3.7226	1.7865	24.72	-0.08	0.750			
0.4986	31913.37	3.7190	3.7192	1.8251	24.70	-0.10	0.750			
0.5043	32275.62	3.7160	3.7164	1.8744	24.69	-0.11	0.750			
0.5102	32650.13	3.7130	3.7133	1.8877	24.68	-0.12	0.750			
0.5158	33009.18	3.7100	3.7097	1.9256	24.67	-0.13	0.750			
0.5218	33392.86	3.7070	3.7071	2.0215	24.66	-0.14	0.750			
0.5279	33788.76	3.7040	3.7040	2.0754	24.65	-0.15	0.750			
0.5340	34175.19	3.7010	3.7016	2.1576	24.65	-0.15	0.750			
0.5407	34603.86	3.6980	3.6983	2.2484	24.64	-0.16	0.750			
0.5473	35028.30	3.6950	3.6951	2.3043	24.64	-0.16	0.750			
0.5545	35490.68	3.6920	3.6918	2.3367	24.63	-0.17	0.750			
0.5616	35943.19	3.6890	3.6887	2.3598	24.62	-0.18	0.750			
0.5689	36412.02	3.6860	3.6863	2.5676	24.61	-0.19	0.750			
0.5763	36884.13	3.6830	3.6836	2.6277	24.61	-0.19	0.750			
0.5839	37371.45	3.6800	3.6798	2.6356	24.60	-0.20	0.750			
0.5920	37890.12	3.6770	3.6774	2.5146	24.60	-0.20	0.750			
0.5997	38382.26	3.6740	3.6735	2.5854	24.60	-0.20	0.750			
0.6074	38875.41	3.6710	3.6713	2.5265	24.60	-0.20	0.750			
0.6154	39384.23	3.6680	3.6674	2.4559	24.61	-0.19	0.750			
0.6223	39825.88	3.6650	3.6649	2.2892	24.62	-0.18	0.750			
0.6286	40231.20	3.6620	3.6615	2.0675	24.63	-0.17	0.750			
0.6344	40599.05	3.6590	3.6589	1.8983	24.64	-0.16	0.750			
0.6397	40941.77	3.6560	3.6552	1.7861	24.64	-0.16	0.750			
0.6450	41277.00	3.6530	3.6528	1.6650	24.65	-0.15	0.750			
0.6499	41593.45	3.6500	3.6505	1.5385	24.66	-0.14	0.750			
0.6545	41888.95	3.6470	3.6472	1.4323	24.67	-0.13	0.750			
0.6585	42142.85	3.6440	3.6440	1.2869	24.67	-0.13	0.750			
0.6621	42374.57	3.6410	3.6406	1.1880	24.68	-0.12	0.750			
0.6655	42594.22	3.6380	3.6380	1.0916	24.69	-0.11	0.750			
0.6686	42790.02	3.6350	3.6351	1.0414	24.69	-0.11	0.750			
0.6717	42986.27	3.6320	3.6322	0.9906	24.70	-0.10	0.750			
0.6745	43166.28	3.6290	3.6283	0.9583	24.70	-0.10	0.750			
0.6774	43350.52	3.6260	3.6261	0.9254	24.71	-0.09	0.750			
0.6801	43524.40	3.6230	3.6233	0.9015	24.72	-0.08	0.750			
0.6828	43698.40	3.6200	3.6202	0.8735	24.73	-0.07	0.750			
0.6855	43872.13	3.6170	3.6171	0.8514	24.73	-0.07	0.750			
0.6879	44025.00	3.6140	3.6141	0.7870	24.74	-0.06	0.750			
0.6902	44175.81	3.6110	3.6110	0.7404	24.75	-0.05	0.750			
0.6924	44310.66	3.6080	3.6081	0.6781	24.76	-0.04	0.750			
0.6943	44438.01	3.6050	3.6050	0.6199	24.77	-0.03	0.750			
0.6961	44552.11	3.6020	3.6020	0.5535	24.78	-0.02	0.750			
0.6977	44651.54	3.5990	3.5990	0.4904	24.79	-0.01	0.750			
0.6990	44737.29	3.5960	3.5961	0.4350	24.80	-0.00	0.750			
0.7002	44812.44	3.5930	3.5932	0.3822	24.80	0.00	0.750			
0.7013	44881.76	3.5900	3.5889	0.3331	24.81	0.01	0.750			
0.7022	44940.47	3.5870	3.5875	0.2851	24.81	0.01	0.750			
0.7030	44992.15	3.5840	3.5845	0.2435	24.82	0.02	0.750			
0.7037	45034.88	3.5810	3.5816	0.1972	24.82	0.02	0.750			
0.7043	45072.59	3.5780	3.5783	0.1354	24.82	0.02	0.750			
0.7046	45093.95	3.5750	3.5759	0.0391	24.82	0.02	0.750			
