Ah_balance (normalized)	Ah_balance (mAh)	Voltage - fit (V)	Voltage -  interpolate (V)	dQ/dV (1/V)	Temperature (°C)	Temperature - diff (°C)	Current (C)	R_DC 0ms (mOhm)	R_DC 50ms (mOhm)	R_DC 50 ms PEC (mOhm)
0.0495	3168.73	4.1960	4.1960	0.7342	25.42	0.40	0.750			
0.0517	3310.27	4.1930	4.1930	0.7419	25.42	0.40	0.750			
0.0540	3454.35	4.1900	4.1901	0.7476	25.43	0.41	0.750			
0.0562	3598.15	4.1870	4.1871	0.7509	25.43	0.41	0.750			
0.0585	3742.71	4.1840	4.1841	0.7554	25.44	0.42	0.750			
0.0608	3888.43	4.1810	4.1810	0.7543	25.44	0.42	0.750			
0.0630	4033.28	4.1780	4.1780	0.7564	25.44	0.42	0.750			
0.0653	4178.29	4.1750	4.1751	0.7536	25.45	0.43	0.750			
0.0675	4322.75	4.1720	4.1718	0.7565	25.45	0.43	0.750			
0.0698	4469.16	4.1690	4.1691	0.7606	25.45	0.43	0.750			
0.0721	4616.78	4.1660	4.1660	0.7536	25.45	0.43	0.750			
0.0744	4759.86	4.1630	4.1630	0.7592	25.45	0.43	0.750			
0.0766	4904.50	4.1600	4.1601	0.7604	25.45	0.43	0.750			
0.0789	5051.27	4.1570	4.1571	0.7665	25.45	0.43	0.750			
0.0812	5199.53	4.1540	4.1541	0.7709	25.45	0.43	0.750			
0.0836	5348.31	4.1510	4.1510	0.7706	25.45	0.43	0.750			
0.0859	5498.16	4.1480	4.1481	0.7762	25.45	0.43	0.750			
0.0883	5648.36	4.1450	4.1450	0.7768	25.46	0.44	0.750			
0.0906	5795.58	4.1420	4.1420	0.7700	25.46	0.44	0.750			
0.0929	5942.98	4.1390	4.1390	0.7732	25.46	0.44	0.750			
0.0952	6092.11	4.1360	4.1360	0.7738	25.46	0.44	0.750			
0.0975	6242.78	4.1330	4.1330	0.7710	25.46	0.44	0.750			
0.0998	6388.58	4.1300	4.1300	0.7758	25.47	0.45	0.750			
0.1021	6536.45	4.1270	4.1270	0.7773	25.47	0.45	0.750			
0.1045	6686.90	4.1240	4.1239	0.7813	25.47	0.45	0.750			
0.1068	6837.71	4.1210	4.1210	0.7837	25.47	0.45	0.750			
0.1092	6991.91	4.1180	4.1180	0.7748	25.47	0.45	0.750			
0.1115	7139.10	4.1150	4.1151	0.7792	25.48	0.46	0.750			
0.1139	7287.61	4.1120	4.1120	0.7817	25.48	0.46	0.750			
0.1162	7434.53	4.1090	4.1091	0.7791	25.48	0.46	0.750			
0.1185	7583.32	4.1060	4.1058	0.7839	25.48	0.46	0.750			
0.1209	7736.32	4.1030	4.1031	0.7864	25.48	0.46	0.750			
0.1233	7890.00	4.1000	4.1001	0.7952	25.48	0.46	0.750			
0.1257	8043.51	4.0970	4.0970	0.8013	25.48	0.46	0.750			
0.1281	8195.49	4.0940	4.0941	0.7980	25.48	0.46	0.750			
0.1305	8349.25	4.0910	4.0908	0.7990	25.48	0.46	0.750			
0.1329	8504.07	4.0880	4.0880	0.8028	25.48	0.46	0.750			
0.1353	8659.54	4.0850	4.0851	0.8003	25.48	0.46	0.750			
0.1377	8813.21	4.0820	4.0821	0.8002	25.49	0.47	0.750			
0.1401	8964.93	4.0790	4.0790	0.7996	25.49	0.47	0.750			
0.1425	9118.14	4.0760	4.0757	0.8002	25.49	0.47	0.750			
0.1449	9270.52	4.0730	4.0730	0.8026	25.49	0.47	0.750			
0.1473	9425.37	4.0700	4.0701	0.8109	25.50	0.48	0.750			
0.1497	9580.30	4.0670	4.0671	0.8070	25.50	0.48	0.750			
0.1521	9735.05	4.0640	4.0640	0.8129	25.50	0.48	0.750			
0.1545	9888.93	4.0610	4.0612	0.8151	25.51	0.49	0.750			
0.1570	10046.03	4.0580	4.0582	0.8242	25.51	0.49	0.750			
0.1595	10206.57	4.0550	4.0551	0.8324	25.52	0.50	0.750			
0.1620	10368.24	4.0520	4.0521	0.8378	25.52	0.50	0.750			
0.1646	10535.29	4.0490	4.0489	0.8522	25.52	0.50	0.750			
0.1671	10691.57	4.0460	4.0460	0.8330	25.53	0.51	0.750			
0.1696	10851.32	4.0430	4.0430	0.8344	25.53	0.51	0.750			
0.1721	11012.75	4.0400	4.0400	0.8277	25.53	0.51	0.750			
0.1745	11171.09	4.0370	4.0370	0.8316	25.53	0.51	0.750			
0.1770	11329.67	4.0340	4.0341	0.8397	25.53	0.51	0.750			
0.1795	11490.84	4.0310	4.0309	0.8437	25.53	0.51	0.750			
0.1821	11654.00	4.0280	4.0280	0.8455	25.53	0.51	0.750			
0.1846	11816.85	4.0250	4.0251	0.8488	25.53	0.51	0.750			
0.1872	11978.49	4.0220	4.0221	0.8468	25.53	0.51	0.750			
0.1897	12142.72	4.0190	4.0190	0.8513	25.53	0.51	0.750			
0.1922	12303.17	4.0160	4.0157	0.8501	25.53	0.51	0.750			
0.1948	12466.19	4.0130	4.0132	0.8569	25.53	0.51	0.750			
0.1974	12632.42	4.0100	4.0101	0.8620	25.54	0.52	0.750			
0.2000	12799.16	4.0070	4.0071	0.8684	25.54	0.52	0.750			
0.2026	12968.60	4.0040	4.0040	0.8777	25.55	0.53	0.750			
0.2052	13133.64	4.0010	4.0009	0.8704	25.55	0.53	0.750			
0.2079	13304.39	3.9980	3.9980	0.8670	25.55	0.53	0.750			
0.2105	13469.22	3.9950	3.9950	0.8724	25.55	0.53	0.750			
0.2131	13636.39	3.9920	3.9921	0.8760	25.55	0.53	0.750			
0.2157	13804.60	3.9890	3.9890	0.8776	25.55	0.53	0.750			
0.2183	13972.48	3.9860	3.9860	0.8815	25.55	0.53	0.750			
0.2210	14144.48	3.9830	3.9831	0.8781	25.55	0.53	0.750			
0.2237	14313.78	3.9800	3.9801	0.8828	25.55	0.53	0.750			
0.2263	14483.84	3.9770	3.9770	0.8808	25.56	0.54	0.750			
0.2289	14650.32	3.9740	3.9741	0.8782	25.56	0.54	0.750			
0.2315	14818.72	3.9710	3.9710	0.8820	25.56	0.54	0.750			
0.2342	14988.98	3.9680	3.9681	0.8843	25.56	0.54	0.750			
0.2369	15158.56	3.9650	3.9651	0.8904	25.57	0.55	0.750			
0.2396	15332.04	3.9620	3.9620	0.9034	25.57	0.55	0.750			
0.2423	15504.34	3.9590	3.9589	0.8990	25.57	0.55	0.750			
0.2450	15679.24	3.9560	3.9559	0.8951	25.57	0.55	0.750			
0.2476	15848.82	3.9530	3.9531	0.8974	25.57	0.55	0.750			
0.2503	16022.05	3.9500	3.9502	0.9019	25.58	0.56	0.750			
0.2531	16196.08	3.9470	3.9469	0.9000	25.58	0.56	0.750			
0.2558	16368.20	3.9440	3.9440	0.8926	25.58	0.56	0.750			
0.2585	16541.28	3.9410	3.9411	0.8851	25.58	0.56	0.750			
0.2611	16711.04	3.9380	3.9381	0.8899	25.58	0.56	0.750			
0.2638	16880.33	3.9350	3.9350	0.8890	25.59	0.57	0.750			
0.2664	17046.76	3.9320	3.9321	0.8879	25.59	0.57	0.750			
0.2690	17216.70	3.9290	3.9291	0.8948	25.59	0.57	0.750			
0.2717	17391.25	3.9260	3.9260	0.8978	25.59	0.57	0.750			
0.2745	17566.07	3.9230	3.9230	0.9058	25.58	0.56	0.750			
0.2772	17742.04	3.9200	3.9201	0.9120	25.58	0.56	0.750			
0.2799	17913.89	3.9170	3.9168	0.9050	25.58	0.56	0.750			
0.2827	18089.68	3.9140	3.9140	0.9008	25.58	0.56	0.750			
0.2853	18261.91	3.9110	3.9110	0.9026	25.58	0.56	0.750			
0.2880	18435.07	3.9080	3.9080	0.9048	25.57	0.55	0.750			
0.2908	18609.66	3.9050	3.9051	0.9062	25.57	0.55	0.750			
0.2935	18781.55	3.9020	3.9019	0.9034	25.57	0.55	0.750			
0.2963	18960.93	3.8990	3.8989	0.8829	25.57	0.55	0.750			
0.2989	19127.10	3.8960	3.8961	0.8915	25.57	0.55	0.750			
0.3015	19295.02	3.8930	3.8931	0.9002	25.57	0.55	0.750			
0.3042	19466.54	3.8900	3.8902	0.9041	25.57	0.55	0.750			
0.3069	19640.89	3.8870	3.8871	0.9065	25.57	0.55	0.750			
0.3096	19816.41	3.8840	3.8842	0.9156	25.56	0.54	0.750			
0.3124	19995.73	3.8810	3.8812	0.9238	25.55	0.53	0.750			
0.3153	20176.92	3.8780	3.8780	0.9265	25.55	0.53	0.750			
0.3180	20352.50	3.8750	3.8750	0.9153	25.54	0.52	0.750			
0.3208	20531.67	3.8720	3.8719	0.9053	25.54	0.52	0.750			
0.3235	20704.66	3.8690	3.8691	0.9090	25.53	0.51	0.750			
0.3262	20877.46	3.8660	3.8661	0.9147	25.53	0.51	0.750			
0.3289	21052.25	3.8630	3.8630	0.9152	25.52	0.50	0.750			
0.3317	21228.18	3.8600	3.8601	0.9192	25.52	0.50	0.750			
0.3345	21405.02	3.8570	3.8572	0.9250	25.51	0.49	0.750			
0.3372	21579.08	3.8540	3.8541	0.9119	25.50	0.48	0.750			
0.3399	21755.09	3.8510	3.8511	0.9219	25.49	0.47	0.750			
0.3426	21928.89	3.8480	3.8471	0.9189	25.48	0.46	0.750			
0.3454	22103.42	3.8450	3.8452	0.9186	25.47	0.45	0.750			
0.3481	22279.66	3.8420	3.8423	0.9353	25.47	0.45	0.750			
0.3510	22463.22	3.8390	3.8390	0.9443	25.46	0.44	0.750			
0.3539	22652.00	3.8360	3.8361	0.9661	25.45	0.43	0.750	0.312	0.437	
0.3567	22831.34	3.8330	3.8332	0.9438	25.45	0.43	0.750			
0.3596	23014.69	3.8300	3.8301	0.9520	25.44	0.42	0.750			
0.3625	23202.43	3.8270	3.8269	0.9495	25.43	0.41	0.750			
0.3653	23378.50	3.8240	3.8241	0.9432	25.42	0.40	0.750			
0.3681	23556.26	3.8210	3.8209	0.9654	25.41	0.39	0.750			
0.3711	23748.16	3.8180	3.8181	0.9648	25.40	0.38	0.750			
0.3739	23931.71	3.8150	3.8152	0.9823	25.40	0.38	0.750			
0.3769	24120.68	3.8120	3.8123	1.0078	25.39	0.37	0.750			
0.3799	24315.26	3.8090	3.8094	1.0222	25.38	0.36	0.750			
0.3831	24515.48	3.8060	3.8063	1.0390	25.37	0.35	0.750			
0.3862	24715.26	3.8030	3.8032	1.0480	25.36	0.34	0.750			
0.3894	24919.18	3.8000	3.8001	1.0656	25.34	0.32	0.750			
0.3927	25133.49	3.7970	3.7966	1.0917	25.33	0.31	0.750			
0.3959	25336.13	3.7940	3.7940	1.0721	25.32	0.30	0.750			
0.3991	25542.16	3.7910	3.7910	1.0929	25.31	0.29	0.750			
0.4024	25753.74	3.7880	3.7882	1.1132	25.30	0.28	0.750			
0.4058	25969.34	3.7850	3.7846	1.1290	25.29	0.27	0.750			
0.4091	26185.37	3.7820	3.7821	1.1269	25.28	0.26	0.750			
0.4125	26401.05	3.7790	3.7792	1.1512	25.27	0.25	0.750			
0.4161	26629.40	3.7760	3.7761	1.1458	25.26	0.24	0.750			
0.4195	26845.14	3.7730	3.7732	1.1786	25.25	0.23	0.750			
0.4230	27073.30	3.7700	3.7703	1.2084	25.24	0.22	0.750			
0.4267	27306.68	3.7670	3.7665	1.2424	25.23	0.21	0.750			
0.4305	27552.14	3.7640	3.7641	1.2674	25.22	0.20	0.750			
0.4343	27796.05	3.7610	3.7611	1.2868	25.21	0.19	0.750			
0.4382	28046.54	3.7580	3.7581	1.3269	25.19	0.17	0.750			
0.4425	28318.85	3.7550	3.7543	1.3240	25.18	0.16	0.750			
0.4463	28560.26	3.7520	3.7521	1.3607	25.17	0.15	0.750			
0.4505	28831.36	3.7490	3.7491	1.3659	25.16	0.14	0.750			
0.4545	29088.16	3.7460	3.7461	1.4209	25.14	0.12	0.750			
0.4588	29362.67	3.7430	3.7433	1.4660	25.13	0.11	0.750			
0.4632	29645.44	3.7400	3.7403	1.4960	25.12	0.10	0.750			
0.4679	29943.94	3.7370	3.7373	1.5284	25.11	0.09	0.750			
0.4727	30251.52	3.7340	3.7336	1.5470	25.10	0.08	0.750			
0.4774	30554.37	3.7310	3.7313	1.5857	25.09	0.07	0.750			
0.4823	30869.42	3.7280	3.7283	1.6380	25.07	0.05	0.750			
0.4870	31171.02	3.7250	3.7255	1.7049	25.06	0.04	0.750			
0.4921	31497.51	3.7220	3.7219	1.7500	25.04	0.02	0.750			
0.4976	31844.22	3.7190	3.7195	1.8386	25.03	0.01	0.750			
0.5033	32214.11	3.7160	3.7163	1.9219	25.02	0.00	0.750			
0.5092	32587.60	3.7130	3.7132	1.9522	25.01	-0.01	0.750			
0.5149	32951.91	3.7100	3.7105	2.0145	25.00	-0.02	0.750			
0.5209	33339.00	3.7070	3.7069	2.0379	24.99	-0.03	0.750			
0.5272	33741.10	3.7040	3.7042	2.0554	24.98	-0.04	0.750			
0.5335	34144.09	3.7010	3.7011	2.1308	24.96	-0.06	0.750			
0.5398	34547.43	3.6980	3.6976	2.2398	24.95	-0.07	0.750			
0.5468	34992.81	3.6950	3.6954	2.3114	24.94	-0.08	0.750			
0.5537	35437.62	3.6920	3.6923	2.3704	24.93	-0.09	0.750			
0.5609	35895.45	3.6890	3.6895	2.3987	24.93	-0.09	0.750			
0.5679	36344.35	3.6860	3.6853	2.3785	24.92	-0.10	0.750			
0.5754	36828.57	3.6830	3.6835	2.6128	24.91	-0.11	0.750			
0.5831	37316.34	3.6800	3.6802	2.6012	24.90	-0.12	0.750			
0.5908	37809.30	3.6770	3.6775	2.5793	24.90	-0.12	0.750			
0.5991	38343.36	3.6740	3.6733	2.6047	24.89	-0.13	0.750			
0.6064	38807.19	3.6710	3.6712	2.5626	24.89	-0.13	0.750			
0.6138	39286.10	3.6680	3.6680	2.3480	24.90	-0.12	0.750			
0.6211	39749.56	3.6650	3.6653	2.3247	24.90	-0.12	0.750			
0.6280	40191.20	3.6620	3.6621	2.1942	24.90	-0.12	0.750			
0.6337	40558.36	3.6590	3.6590	2.0476	24.91	-0.11	0.750			
0.6393	40916.96	3.6560	3.6562	1.7966	24.92	-0.10	0.750			
0.6445	41250.04	3.6530	3.6522	1.6690	24.93	-0.09	0.750			
0.6492	41550.96	3.6500	3.6504	1.5355	24.94	-0.08	0.750			
0.6536	41833.26	3.6470	3.6472	1.4049	24.94	-0.08	0.750			
0.6578	42096.92	3.6440	3.6441	1.3106	24.94	-0.08	0.750			
0.6614	42331.78	3.6410	3.6410	1.1955	24.95	-0.07	0.750			
0.6649	42552.96	3.6380	3.6380	1.1308	24.96	-0.06	0.750			
0.6681	42761.11	3.6350	3.6348	1.0723	24.96	-0.06	0.750			
0.6713	42965.40	3.6320	3.6320	0.9993	24.97	-0.05	0.750			
0.6743	43153.63	3.6290	3.6290	0.9456	24.97	-0.05	0.750			
0.6768	43318.07	3.6260	3.6263	0.9031	24.97	-0.05	0.750			
0.6793	43475.03	3.6230	3.6237	0.8775	24.98	-0.04	0.750			
0.6820	43645.52	3.6200	3.6198	0.8566	24.99	-0.03	0.750			
0.6845	43808.10	3.6170	3.6178	0.8407	24.99	-0.03	0.750			
0.6871	43972.02	3.6140	3.6148	0.8266	25.00	-0.02	0.750			
0.6898	44149.92	3.6110	3.6112	0.7995	25.01	-0.01	0.750			
0.6922	44303.38	3.6080	3.6079	0.7305	25.02	-0.00	0.750			
0.6941	44420.40	3.6050	3.6052	0.6225	25.02	0.00	0.750			
0.6959	44535.11	3.6020	3.6022	0.5653	25.03	0.01	0.750			
0.6975	44637.79	3.5990	3.5990	0.5134	25.04	0.02	0.750			
0.6989	44727.72	3.5960	3.5961	0.4535	25.04	0.02	0.750			
0.7001	44809.38	3.5930	3.5930	0.4029	25.04	0.02	0.750			
0.7013	44883.36	3.5900	3.5901	0.3546	25.05	0.03	0.750			
0.7023	44948.29	3.5870	3.5870	0.3096	25.05	0.03	0.750			
0.7032	45004.13	3.5840	3.5839	0.2588	25.05	0.03	0.750			
0.7039	45048.04	3.5810	3.5809	0.2045	25.06	0.04	0.750			
0.7044	45081.34	3.5780	3.5782	0.1536	25.06	0.04	0.750			
0.7048	45105.99	3.5750	3.5753	0.1050	25.06	0.04	0.750			
