Ah_balance (normalized)	Ah_balance (mAh)	Voltage - fit (V)	Voltage -  interpolate (V)	dQ/dV (1/V)	Temperature (°C)	Temperature - diff (°C)	Current (C)	R_DC 0ms (mOhm)	R_DC 50ms (mOhm)	R_DC 50 ms PEC (mOhm)
0.0487	3117.48	4.1970	4.1970	0.7177	25.39	0.57	0.750			
0.0509	3256.98	4.1940	4.1941	0.7349	25.39	0.57	0.750			
0.0531	3400.63	4.1910	4.1906	0.7487	25.39	0.57	0.750			
0.0554	3546.26	4.1880	4.1881	0.7536	25.39	0.57	0.750			
0.0577	3691.64	4.1850	4.1851	0.7546	25.39	0.57	0.750			
0.0600	3838.69	4.1820	4.1821	0.7623	25.40	0.58	0.750			
0.0623	3987.39	4.1790	4.1789	0.7653	25.40	0.58	0.750			
0.0645	4129.87	4.1760	4.1759	0.7567	25.40	0.58	0.750			
0.0668	4274.36	4.1730	4.1730	0.7583	25.40	0.58	0.750			
0.0691	4422.42	4.1700	4.1701	0.7584	25.40	0.58	0.750			
0.0714	4567.07	4.1670	4.1670	0.7604	25.40	0.58	0.750			
0.0736	4712.14	4.1640	4.1640	0.7636	25.40	0.58	0.750			
0.0759	4858.31	4.1610	4.1611	0.7631	25.40	0.58	0.750			
0.0782	5005.50	4.1580	4.1578	0.7675	25.40	0.58	0.750			
0.0805	5154.92	4.1550	4.1550	0.7660	25.40	0.58	0.750			
0.0829	5304.02	4.1520	4.1520	0.7588	25.40	0.58	0.750			
0.0851	5448.52	4.1490	4.1490	0.7579	25.40	0.58	0.750			
0.0874	5591.92	4.1460	4.1462	0.7535	25.40	0.58	0.750			
0.0896	5733.83	4.1430	4.1428	0.7550	25.40	0.58	0.750			
0.0919	5879.09	4.1400	4.1400	0.7644	25.40	0.58	0.750			
0.0942	6026.74	4.1370	4.1370	0.7657	25.40	0.58	0.750			
0.0965	6174.90	4.1340	4.1341	0.7747	25.40	0.58	0.750			
0.0989	6328.31	4.1310	4.1310	0.7807	25.40	0.58	0.750			
0.1012	6475.79	4.1280	4.1280	0.7775	25.40	0.58	0.750			
0.1035	6624.88	4.1250	4.1250	0.7780	25.40	0.58	0.750			
0.1059	6774.41	4.1220	4.1221	0.7792	25.41	0.59	0.750			
0.1082	6926.80	4.1190	4.1188	0.7664	25.41	0.59	0.750			
0.1105	7072.64	4.1160	4.1161	0.7781	25.42	0.60	0.750			
0.1128	7220.67	4.1130	4.1131	0.7824	25.42	0.60	0.750			
0.1152	7371.34	4.1100	4.1095	0.7867	25.43	0.61	0.750			
0.1175	7522.49	4.1070	4.1072	0.7915	25.43	0.61	0.750			
0.1200	7679.35	4.1040	4.1040	0.7761	25.43	0.61	0.750			
0.1223	7826.50	4.1010	4.1011	0.7824	25.43	0.61	0.750			
0.1246	7974.69	4.0980	4.0981	0.7801	25.43	0.61	0.750			
0.1269	8123.61	4.0950	4.0951	0.7904	25.43	0.61	0.750			
0.1293	8275.05	4.0920	4.0922	0.7950	25.43	0.61	0.750			
0.1317	8430.01	4.0890	4.0892	0.8050	25.43	0.61	0.750			
0.1342	8588.11	4.0860	4.0860	0.8125	25.43	0.61	0.750			
0.1367	8748.50	4.0830	4.0830	0.8137	25.43	0.61	0.750			
0.1391	8902.24	4.0800	4.0801	0.8065	25.43	0.61	0.750			
0.1415	9057.62	4.0770	4.0771	0.8060	25.43	0.61	0.750			
0.1440	9212.81	4.0740	4.0740	0.8006	25.44	0.62	0.750			
0.1464	9366.47	4.0710	4.0710	0.8012	25.44	0.62	0.750			
0.1487	9518.62	4.0680	4.0681	0.8048	25.44	0.62	0.750			
0.1511	9672.18	4.0650	4.0650	0.8089	25.45	0.63	0.750			
0.1536	9828.57	4.0620	4.0622	0.8127	25.45	0.63	0.750			
0.1560	9983.73	4.0590	4.0590	0.8159	25.45	0.63	0.750			
0.1585	10143.15	4.0560	4.0561	0.8150	25.45	0.63	0.750			
0.1609	10296.92	4.0530	4.0531	0.8237	25.46	0.64	0.750			
0.1634	10454.85	4.0500	4.0501	0.8226	25.46	0.64	0.750			
0.1658	10612.90	4.0470	4.0466	0.8281	25.46	0.64	0.750			
0.1683	10772.76	4.0440	4.0442	0.8296	25.46	0.64	0.750			
0.1708	10933.65	4.0410	4.0411	0.8352	25.46	0.64	0.750			
0.1734	11097.15	4.0380	4.0380	0.8387	25.47	0.65	0.750			
0.1759	11256.29	4.0350	4.0350	0.8287	25.47	0.65	0.750			
0.1783	11414.28	4.0320	4.0320	0.8261	25.47	0.65	0.750			
0.1809	11575.38	4.0290	4.0291	0.8349	25.47	0.65	0.750			
0.1833	11733.49	4.0260	4.0260	0.8291	25.47	0.65	0.750			
0.1858	11890.67	4.0230	4.0230	0.8375	25.47	0.65	0.750			
0.1883	12049.94	4.0200	4.0201	0.8456	25.47	0.65	0.750			
0.1908	12213.98	4.0170	4.0165	0.8560	25.47	0.65	0.750			
0.1935	12383.12	4.0140	4.0141	0.8563	25.47	0.65	0.750			
0.1961	12548.82	4.0110	4.0112	0.8621	25.47	0.65	0.750			
0.1987	12716.28	4.0080	4.0081	0.8710	25.48	0.66	0.750			
0.2013	12881.11	4.0050	4.0051	0.8654	25.48	0.66	0.750			
0.2038	13046.12	4.0020	4.0020	0.8677	25.48	0.66	0.750			
0.2065	13214.82	3.9990	3.9991	0.8738	25.48	0.66	0.750			
0.2092	13386.05	3.9960	3.9960	0.8845	25.48	0.66	0.750			
0.2118	13556.63	3.9930	3.9930	0.8889	25.49	0.67	0.750			
0.2145	13726.98	3.9900	3.9899	0.8818	25.49	0.67	0.750			
0.2171	13895.76	3.9870	3.9871	0.8844	25.49	0.67	0.750			
0.2198	14065.94	3.9840	3.9840	0.8780	25.49	0.67	0.750			
0.2224	14233.06	3.9810	3.9810	0.8812	25.49	0.67	0.750			
0.2250	14400.68	3.9780	3.9781	0.8816	25.49	0.67	0.750			
0.2277	14571.60	3.9750	3.9746	0.8900	25.49	0.67	0.750			
0.2303	14742.23	3.9720	3.9721	0.8929	25.49	0.67	0.750			
0.2331	14916.25	3.9690	3.9691	0.8920	25.49	0.67	0.750			
0.2358	15088.13	3.9660	3.9660	0.8973	25.50	0.68	0.750			
0.2385	15263.02	3.9630	3.9630	0.9008	25.50	0.68	0.750			
0.2411	15430.69	3.9600	3.9601	0.8888	25.50	0.68	0.750			
0.2438	15602.02	3.9570	3.9572	0.8907	25.50	0.68	0.750			
0.2465	15773.89	3.9540	3.9540	0.8959	25.50	0.68	0.750			
0.2492	15946.57	3.9510	3.9510	0.8981	25.50	0.68	0.750			
0.2518	16118.17	3.9480	3.9479	0.8936	25.50	0.68	0.750			
0.2545	16289.09	3.9450	3.9450	0.8957	25.50	0.68	0.750			
0.2572	16463.47	3.9420	3.9420	0.8920	25.50	0.68	0.750			
0.2599	16633.06	3.9390	3.9391	0.8939	25.51	0.69	0.750			
0.2625	16802.18	3.9360	3.9360	0.8992	25.51	0.69	0.750			
0.2652	16973.99	3.9330	3.9326	0.9077	25.51	0.69	0.750			
0.2681	17155.24	3.9300	3.9299	0.8992	25.51	0.69	0.750			
0.2707	17326.39	3.9270	3.9271	0.9048	25.51	0.69	0.750			
0.2735	17501.63	3.9240	3.9242	0.9107	25.51	0.69	0.750			
0.2762	17674.77	3.9210	3.9212	0.9100	25.51	0.69	0.750			
0.2789	17847.99	3.9180	3.9177	0.9091	25.51	0.69	0.750			
0.2816	18023.39	3.9150	3.9151	0.9140	25.51	0.69	0.750			
0.2844	18200.76	3.9120	3.9122	0.9218	25.51	0.69	0.750			
0.2872	18382.33	3.9090	3.9090	0.9279	25.51	0.69	0.750			
0.2900	18559.19	3.9060	3.9059	0.9173	25.51	0.69	0.750			
0.2928	18736.47	3.9030	3.9030	0.9121	25.51	0.69	0.750			
0.2955	18910.28	3.9000	3.9000	0.9124	25.50	0.68	0.750			
0.2982	19085.45	3.8970	3.8970	0.9161	25.50	0.68	0.750			
0.3010	19261.04	3.8940	3.8941	0.9152	25.49	0.67	0.750			
0.3037	19436.18	3.8910	3.8910	0.9177	25.49	0.67	0.750			
0.3065	19616.49	3.8880	3.8880	0.9028	25.48	0.66	0.750			
0.3092	19788.69	3.8850	3.8851	0.9122	25.48	0.66	0.750			
0.3119	19962.29	3.8820	3.8821	0.9206	25.47	0.65	0.750			
0.3147	20137.69	3.8790	3.8789	0.9194	25.46	0.64	0.750			
0.3174	20316.27	3.8760	3.8761	0.9222	25.46	0.64	0.750			
0.3202	20494.38	3.8730	3.8731	0.9269	25.45	0.63	0.750			
0.3230	20673.02	3.8700	3.8701	0.9297	25.44	0.62	0.750			
0.3259	20856.77	3.8670	3.8670	0.9369	25.43	0.61	0.750			
0.3286	21030.45	3.8640	3.8639	0.9283	25.43	0.61	0.750			
0.3314	21210.13	3.8610	3.8610	0.9225	25.42	0.60	0.750			
0.3342	21387.68	3.8580	3.8580	0.9275	25.42	0.60	0.750			
0.3370	21565.56	3.8550	3.8550	0.9280	25.41	0.59	0.750			
0.3397	21743.80	3.8520	3.8519	0.9283	25.40	0.58	0.750			
0.3425	21921.27	3.8490	3.8490	0.9309	25.40	0.58	0.750			
0.3454	22106.82	3.8460	3.8459	0.8988	25.39	0.57	0.750			
0.3480	22270.06	3.8430	3.8432	0.9326	25.38	0.56	0.750			
0.3508	22448.88	3.8400	3.8402	0.9483	25.38	0.56	0.750			
0.3536	22631.23	3.8370	3.8362	0.9560	25.37	0.55	0.750	0.302	0.435	
0.3565	22815.79	3.8340	3.8345	0.9705	25.36	0.54	0.750			
0.3595	23006.03	3.8310	3.8313	0.9850	25.34	0.52	0.750			
0.3625	23202.17	3.8280	3.8280	0.9996	25.33	0.51	0.750			
0.3655	23391.87	3.8250	3.8250	0.9731	25.32	0.50	0.750			
0.3685	23581.64	3.8220	3.8221	0.9778	25.31	0.49	0.750			
0.3714	23770.73	3.8190	3.8190	0.9903	25.31	0.49	0.750			
0.3744	23960.72	3.8160	3.8162	0.9981	25.30	0.48	0.750			
0.3774	24152.24	3.8130	3.8129	1.0054	25.29	0.47	0.750			
0.3805	24352.07	3.8100	3.8099	0.9931	25.28	0.46	0.750			
0.3834	24538.89	3.8070	3.8071	1.0110	25.27	0.45	0.750			
0.3864	24731.50	3.8040	3.8042	1.0322	25.26	0.44	0.750			
0.3895	24929.19	3.8010	3.8012	1.0484	25.25	0.43	0.750			
0.3928	25137.37	3.7980	3.7982	1.0480	25.24	0.42	0.750			
0.3959	25340.20	3.7950	3.7951	1.0678	25.23	0.41	0.750			
0.3992	25546.91	3.7920	3.7921	1.0820	25.22	0.40	0.750			
0.4025	25760.15	3.7890	3.7892	1.1006	25.21	0.39	0.750			
0.4057	25961.96	3.7860	3.7863	1.0972	25.20	0.38	0.750			
0.4089	26172.50	3.7830	3.7833	1.1291	25.19	0.37	0.750			
0.4123	26389.97	3.7800	3.7802	1.1586	25.18	0.36	0.750			
0.4160	26626.06	3.7770	3.7767	1.1531	25.17	0.35	0.750			
0.4195	26848.47	3.7740	3.7741	1.1814	25.15	0.33	0.750			
0.4230	27073.72	3.7710	3.7712	1.2059	25.14	0.32	0.750			
0.4267	27308.47	3.7680	3.7682	1.2401	25.13	0.31	0.750			
0.4304	27545.62	3.7650	3.7653	1.2587	25.11	0.29	0.750			
0.4342	27791.20	3.7620	3.7622	1.2973	25.10	0.28	0.750			
0.4383	28052.62	3.7590	3.7590	1.3158	25.09	0.27	0.750			
0.4423	28308.49	3.7560	3.7560	1.3524	25.07	0.25	0.750			
0.4463	28566.26	3.7530	3.7531	1.3645	25.06	0.24	0.750			
0.4505	28828.94	3.7500	3.7502	1.4029	25.05	0.23	0.750			
0.4547	29103.50	3.7470	3.7470	1.4086	25.03	0.21	0.750			
0.4589	29371.67	3.7440	3.7442	1.4508	25.02	0.20	0.750			
0.4634	29658.63	3.7410	3.7411	1.4752	25.01	0.19	0.750			
0.4679	29947.70	3.7380	3.7382	1.5099	24.99	0.17	0.750			
0.4724	30236.11	3.7350	3.7348	1.5570	24.98	0.16	0.750			
0.4773	30545.37	3.7320	3.7324	1.6011	24.96	0.14	0.750			
0.4823	30868.24	3.7290	3.7291	1.6390	24.95	0.13	0.750			
0.4873	31187.01	3.7260	3.7262	1.6564	24.93	0.11	0.750			
0.4922	31499.42	3.7230	3.7234	1.7240	24.91	0.09	0.750			
0.4976	31844.00	3.7200	3.7206	1.7908	24.90	0.08	0.750			
0.5029	32183.83	3.7170	3.7165	1.8520	24.88	0.06	0.750			
0.5084	32537.15	3.7140	3.7136	1.9293	24.86	0.04	0.750			
0.5145	32927.55	3.7110	3.7111	2.0118	24.84	0.02	0.750			
0.5205	33313.00	3.7080	3.7084	2.0890	24.83	0.01	0.750			
0.5268	33712.23	3.7050	3.7052	2.1375	24.81	-0.01	0.750			
0.5332	34125.87	3.7020	3.7023	2.1785	24.80	-0.02	0.750			
0.5399	34551.62	3.6990	3.6989	2.1892	24.78	-0.04	0.750			
0.5469	34998.71	3.6960	3.6963	2.3068	24.76	-0.06	0.750			
0.5538	35446.35	3.6930	3.6926	2.3675	24.74	-0.08	0.750			
0.5607	35884.94	3.6900	3.6899	2.4102	24.73	-0.09	0.750			
0.5679	36346.35	3.6870	3.6867	2.5032	24.72	-0.10	0.750			
0.5753	36819.91	3.6840	3.6843	2.5284	24.70	-0.12	0.750			
0.5830	37312.47	3.6810	3.6809	2.5519	24.69	-0.13	0.750			
0.5908	37813.90	3.6780	3.6780	2.5932	24.68	-0.14	0.750			
0.5989	38327.04	3.6750	3.6750	2.7744	24.68	-0.14	0.750			
0.6070	38845.28	3.6720	3.6723	2.5811	24.67	-0.15	0.750			
0.6148	39347.91	3.6690	3.6687	2.4719	24.66	-0.16	0.750			
0.6219	39801.04	3.6660	3.6666	2.3319	24.67	-0.15	0.750			
0.6287	40233.68	3.6630	3.6630	2.1760	24.68	-0.14	0.750			
0.6350	40641.44	3.6600	3.6595	2.0427	24.69	-0.13	0.750			
0.6406	40996.80	3.6570	3.6572	1.8343	24.69	-0.13	0.750			
0.6460	41342.53	3.6540	3.6544	1.7152	24.70	-0.12	0.750			
0.6509	41660.34	3.6510	3.6513	1.5774	24.71	-0.11	0.750			
0.6555	41949.75	3.6480	3.6483	1.4487	24.71	-0.11	0.750			
0.6598	42225.54	3.6450	3.6451	1.3555	24.72	-0.10	0.750			
0.6636	42472.22	3.6420	3.6419	1.2509	24.73	-0.09	0.750			
0.6672	42697.93	3.6390	3.6390	1.1522	24.73	-0.09	0.750			
0.6703	42898.27	3.6360	3.6360	1.0698	24.74	-0.08	0.750			
0.6734	43095.43	3.6330	3.6331	1.0261	24.74	-0.08	0.750			
0.6763	43285.59	3.6300	3.6300	0.9795	24.75	-0.07	0.750			
0.6792	43471.59	3.6270	3.6271	0.9503	24.75	-0.07	0.750			
0.6820	43650.82	3.6240	3.6241	0.9236	24.76	-0.06	0.750			
0.6848	43824.04	3.6210	3.6211	0.8803	24.77	-0.05	0.750			
0.6874	43991.61	3.6180	3.6181	0.8467	24.78	-0.04	0.750			
0.6898	44149.65	3.6150	3.6147	0.8011	24.79	-0.03	0.750			
0.6922	44301.37	3.6120	3.6122	0.7573	24.79	-0.03	0.750			
0.6945	44445.32	3.6090	3.6091	0.7046	24.80	-0.02	0.750			
0.6965	44576.67	3.6060	3.6061	0.6449	24.80	-0.02	0.750			
0.6984	44699.52	3.6030	3.6029	0.5965	24.81	-0.01	0.750			
0.7000	44801.35	3.6000	3.6000	0.5157	24.81	-0.01	0.750			
0.7015	44894.07	3.5970	3.5969	0.4534	24.82	-0.00	0.750			
0.7027	44972.50	3.5940	3.5941	0.4067	24.82	-0.00	0.750			
0.7038	45044.87	3.5910	3.5912	0.3584	24.82	0.00	0.750			
0.7048	45110.08	3.5880	3.5881	0.3069	24.82	0.00	0.750			
0.7057	45164.66	3.5850	3.5855	0.2593	24.83	0.01	0.750			
0.7064	45209.64	3.5820	3.5824	0.2109	24.83	0.01	0.750			
0.7070	45247.68	3.5790	3.5797	0.1615	24.83	0.01	0.750			
0.7075	45280.43	3.5760	3.5762	0.0864	24.83	0.01	0.750			
0.7076	45288.83	3.5730	3.5741	0.0329	24.83	0.01	0.750			
