Ah_balance (normalized)	Ah_balance (mAh)	Voltage - fit (V)	Voltage -  interpolate (V)	dQ/dV (1/V)	Temperature (°C)	Temperature - diff (°C)	Current (C)	R_DC 0ms (mOhm)	R_DC 50ms (mOhm)	R_DC 50 ms PEC (mOhm)
0.0005	30.66	4.1640	4.1640	-0.1641	25.14	0.00	-0.750			
0.0011	67.76	4.1610	4.1610	-0.2081	25.14	0.00	-0.750			
0.0017	110.38	4.1580	4.1580	-0.2495	25.14	-0.00	-0.750			
0.0025	162.20	4.1550	4.1551	-0.2927	25.14	-0.00	-0.750			
0.0035	222.75	4.1520	4.1519	-0.3324	25.13	-0.01	-0.750			
0.0045	290.80	4.1490	4.1491	-0.3740	25.13	-0.01	-0.750			
0.0057	365.34	4.1460	4.1461	-0.4181	25.13	-0.01	-0.750			
0.0070	449.83	4.1430	4.1430	-0.4631	25.13	-0.01	-0.750			
0.0085	544.64	4.1400	4.1399	-0.5076	25.12	-0.02	-0.750			
0.0101	647.09	4.1370	4.1369	-0.5423	25.12	-0.02	-0.750			
0.0118	758.26	4.1340	4.1340	-0.5768	25.11	-0.03	-0.750			
0.0136	873.27	4.1310	4.1314	-0.6051	25.11	-0.03	-0.750			
0.0155	992.93	4.1280	4.1280	-0.6264	25.11	-0.03	-0.750			
0.0174	1112.41	4.1250	4.1250	-0.6511	25.10	-0.04	-0.750			
0.0194	1239.39	4.1220	4.1220	-0.6676	25.10	-0.04	-0.750			
0.0215	1372.84	4.1190	4.1190	-0.6885	25.10	-0.04	-0.750			
0.0235	1506.59	4.1160	4.1160	-0.6979	25.09	-0.05	-0.750			
0.0257	1643.95	4.1130	4.1131	-0.7125	25.09	-0.05	-0.750			
0.0278	1780.71	4.1100	4.1099	-0.7191	25.09	-0.05	-0.750			
0.0300	1917.75	4.1070	4.1070	-0.7304	25.09	-0.05	-0.750			
0.0322	2058.53	4.1040	4.1040	-0.7352	25.09	-0.05	-0.750			
0.0344	2203.46	4.1010	4.1009	-0.7443	25.08	-0.06	-0.750			
0.0367	2346.40	4.0980	4.0980	-0.7458	25.08	-0.06	-0.750			
0.0389	2489.45	4.0950	4.0953	-0.7533	25.08	-0.06	-0.750			
0.0412	2633.62	4.0920	4.0918	-0.7561	25.08	-0.06	-0.750			
0.0434	2778.65	4.0890	4.0890	-0.7606	25.08	-0.06	-0.750			
0.0457	2926.85	4.0860	4.0859	-0.7624	25.08	-0.06	-0.750			
0.0480	3074.89	4.0830	4.0831	-0.7748	25.08	-0.06	-0.750			
0.0504	3223.80	4.0800	4.0798	-0.7785	25.08	-0.06	-0.750			
0.0527	3373.01	4.0770	4.0768	-0.7799	25.08	-0.06	-0.750			
0.0550	3521.80	4.0740	4.0740	-0.7868	25.08	-0.06	-0.750			
0.0574	3673.83	4.0710	4.0710	-0.7856	25.09	-0.05	-0.750			
0.0597	3823.72	4.0680	4.0681	-0.7854	25.09	-0.05	-0.750			
0.0622	3979.01	4.0650	4.0649	-0.7930	25.09	-0.05	-0.750			
0.0645	4129.22	4.0620	4.0619	-0.7869	25.09	-0.05	-0.750			
0.0669	4279.22	4.0590	4.0590	-0.7929	25.09	-0.05	-0.750			
0.0693	4432.20	4.0560	4.0560	-0.7964	25.09	-0.05	-0.750			
0.0717	4585.70	4.0530	4.0529	-0.7945	25.10	-0.04	-0.750			
0.0741	4740.30	4.0500	4.0500	-0.8011	25.10	-0.04	-0.750			
0.0765	4892.96	4.0470	4.0473	-0.8007	25.10	-0.04	-0.750			
0.0789	5046.53	4.0440	4.0440	-0.8056	25.10	-0.04	-0.750			
0.0813	5202.18	4.0410	4.0409	-0.8088	25.10	-0.04	-0.750			
0.0837	5357.12	4.0380	4.0379	-0.8076	25.11	-0.03	-0.750			
0.0862	5513.83	4.0350	4.0350	-0.8132	25.11	-0.03	-0.750			
0.0886	5670.97	4.0320	4.0323	-0.8114	25.11	-0.03	-0.750			
0.0910	5826.61	4.0290	4.0289	-0.8088	25.11	-0.03	-0.750			
0.0935	5982.63	4.0260	4.0260	-0.8138	25.11	-0.03	-0.750			
0.0959	6138.21	4.0230	4.0230	-0.8077	25.12	-0.02	-0.750			
0.0984	6299.02	4.0200	4.0198	-0.8019	25.12	-0.02	-0.750			
0.1008	6450.71	4.0170	4.0174	-0.7833	25.12	-0.02	-0.750			
0.1031	6597.87	4.0140	4.0140	-0.7716	25.12	-0.02	-0.750			
0.1053	6740.67	4.0110	4.0112	-0.7754	25.13	-0.01	-0.750			
0.1076	6883.77	4.0080	4.0078	-0.7718	25.13	-0.01	-0.750			
0.1099	7034.63	4.0050	4.0048	-0.7855	25.13	-0.01	-0.750			
0.1123	7185.04	4.0020	4.0021	-0.8025	25.14	-0.00	-0.750			
0.1148	7346.38	3.9990	3.9990	-0.8276	25.14	0.00	-0.750			
0.1173	7506.33	3.9960	3.9958	-0.8365	25.14	0.00	-0.750			
0.1198	7668.48	3.9930	3.9930	-0.8382	25.14	0.00	-0.750			
0.1223	7829.92	3.9900	3.9900	-0.8330	25.14	0.00	-0.750			
0.1249	7991.97	3.9870	3.9869	-0.8353	25.14	0.00	-0.750			
0.1274	8153.10	3.9840	3.9838	-0.8348	25.14	0.00	-0.750			
0.1298	8309.58	3.9810	3.9809	-0.8407	25.14	0.00	-0.750			
0.1324	8470.59	3.9780	3.9780	-0.8409	25.15	0.01	-0.750			
0.1349	8632.02	3.9750	3.9749	-0.8341	25.15	0.01	-0.750			
0.1375	8798.91	3.9720	3.9720	-0.8435	25.15	0.01	-0.750			
0.1400	8960.37	3.9690	3.9689	-0.8422	25.15	0.01	-0.750			
0.1425	9117.93	3.9660	3.9658	-0.8444	25.16	0.02	-0.750			
0.1450	9280.26	3.9630	3.9630	-0.8421	25.16	0.02	-0.750			
0.1475	9437.69	3.9600	3.9600	-0.8371	25.16	0.02	-0.750			
0.1501	9605.56	3.9570	3.9570	-0.8590	25.17	0.03	-0.750			
0.1526	9767.93	3.9540	3.9541	-0.8740	25.17	0.03	-0.750			
0.1553	9937.76	3.9510	3.9508	-0.8714	25.17	0.03	-0.750			
0.1579	10105.47	3.9480	3.9480	-0.8727	25.18	0.04	-0.750			
0.1605	10273.12	3.9450	3.9449	-0.8702	25.18	0.04	-0.750			
0.1632	10445.52	3.9420	3.9421	-0.8814	25.18	0.04	-0.750			
0.1658	10609.53	3.9390	3.9390	-0.8930	25.18	0.04	-0.750			
0.1685	10781.53	3.9360	3.9359	-0.8781	25.18	0.04	-0.750			
0.1711	10951.07	3.9330	3.9328	-0.8750	25.19	0.05	-0.750			
0.1738	11120.06	3.9300	3.9298	-0.8812	25.19	0.05	-0.750			
0.1764	11287.42	3.9270	3.9275	-0.8732	25.19	0.05	-0.750			
0.1790	11454.33	3.9240	3.9239	-0.8774	25.19	0.05	-0.750			
0.1816	11622.01	3.9210	3.9209	-0.8723	25.20	0.06	-0.750			
0.1842	11788.34	3.9180	3.9180	-0.8827	25.20	0.06	-0.750			
0.1868	11957.13	3.9150	3.9150	-0.8845	25.21	0.07	-0.750			
0.1895	12125.45	3.9120	3.9121	-0.8874	25.21	0.07	-0.750			
0.1921	12296.18	3.9090	3.9089	-0.9010	25.22	0.08	-0.750			
0.1949	12471.12	3.9060	3.9058	-0.9034	25.23	0.09	-0.750			
0.1976	12646.14	3.9030	3.9029	-0.9008	25.23	0.09	-0.750			
0.2003	12822.00	3.9000	3.9004	-0.9041	25.24	0.10	-0.750			
0.2030	12992.22	3.8970	3.8969	-0.9127	25.24	0.10	-0.750			
0.2058	13169.20	3.8940	3.8938	-0.8972	25.24	0.10	-0.750			
0.2084	13335.80	3.8910	3.8910	-0.8871	25.25	0.11	-0.750			
0.2110	13504.75	3.8880	3.8879	-0.8941	25.25	0.11	-0.750			
0.2138	13682.36	3.8850	3.8856	-0.9019	25.25	0.11	-0.750			
0.2165	13855.05	3.8820	3.8817	-0.9002	25.25	0.11	-0.750			
0.2192	14027.09	3.8790	3.8791	-0.9081	25.26	0.12	-0.750			
0.2219	14201.26	3.8760	3.8759	-0.9073	25.26	0.12	-0.750			
0.2247	14379.60	3.8730	3.8729	-0.9181	25.27	0.13	-0.750			
0.2274	14556.55	3.8700	3.8700	-0.9169	25.27	0.13	-0.750			
0.2302	14731.39	3.8670	3.8670	-0.9202	25.27	0.13	-0.750			
0.2330	14911.05	3.8640	3.8640	-0.9135	25.28	0.14	-0.750			
0.2357	15083.87	3.8610	3.8609	-0.9049	25.28	0.14	-0.750			
0.2384	15258.29	3.8580	3.8584	-0.9129	25.28	0.14	-0.750			
0.2411	15431.23	3.8550	3.8549	-0.9212	25.28	0.14	-0.750			
0.2439	15607.55	3.8520	3.8519	-0.9209	25.28	0.14	-0.750			
0.2467	15787.38	3.8490	3.8490	-0.9146	25.29	0.15	-0.750			
0.2495	15965.15	3.8460	3.8459	-0.9278	25.29	0.15	-0.750			
0.2522	16142.88	3.8430	3.8430	-0.9284	25.29	0.15	-0.750			
0.2550	16318.06	3.8400	3.8400	-0.9224	25.30	0.16	-0.750			
0.2577	16493.53	3.8370	3.8368	-0.9218	25.30	0.16	-0.750			
0.2605	16670.61	3.8340	3.8341	-0.9127	25.31	0.17	-0.750			
0.2633	16848.74	3.8310	3.8311	-0.9216	25.31	0.17	-0.750			
0.2660	17024.29	3.8280	3.8281	-0.9383	25.31	0.17	-0.750			
0.2688	17203.13	3.8250	3.8249	-0.9367	25.31	0.17	-0.750			
0.2717	17386.86	3.8220	3.8218	-0.9401	25.32	0.18	-0.750			
0.2745	17568.04	3.8190	3.8188	-0.9399	25.32	0.18	-0.750			
0.2774	17752.05	3.8160	3.8160	-0.9423	25.32	0.18	-0.750			
0.2803	17936.63	3.8130	3.8128	-0.9528	25.33	0.19	-0.750			
0.2831	18118.69	3.8100	3.8099	-0.9370	25.34	0.20	-0.750			
0.2859	18294.57	3.8070	3.8068	-0.9219	25.34	0.20	-0.750			
0.2887	18476.48	3.8040	3.8048	-0.9337	25.35	0.21	-0.750			
0.2915	18654.44	3.8010	3.8010	-0.9330	25.35	0.21	-0.750			
0.2942	18829.80	3.7980	3.7978	-0.9344	25.35	0.21	-0.750			
0.2969	19001.39	3.7950	3.7951	-0.9258	25.36	0.22	-0.750			
0.2999	19191.28	3.7920	3.7920	-0.9508	25.36	0.22	-0.750			
0.3027	19373.83	3.7890	3.7891	-0.9501	25.36	0.22	-0.750			
0.3056	19560.30	3.7860	3.7859	-0.9568	25.36	0.22	-0.750			
0.3085	19743.45	3.7830	3.7829	-0.9532	25.37	0.23	-0.750			
0.3114	19926.44	3.7800	3.7799	-0.9504	25.37	0.23	-0.750			
0.3142	20108.82	3.7770	3.7772	-0.9490	25.37	0.23	-0.750			
0.3171	20292.94	3.7740	3.7739	-0.9662	25.37	0.23	-0.750			
0.3200	20481.21	3.7710	3.7709	-0.9620	25.38	0.24	-0.750			
0.3229	20662.97	3.7680	3.7678	-0.9560	25.38	0.24	-0.750			
0.3258	20852.10	3.7650	3.7658	-0.9668	25.38	0.24	-0.750			
0.3287	21035.32	3.7620	3.7619	-0.9635	25.38	0.24	-0.750			
0.3315	21218.12	3.7590	3.7589	-0.9635	25.39	0.25	-0.750			
0.3344	21399.10	3.7560	3.7559	-0.9538	25.39	0.25	-0.750			
0.3373	21587.78	3.7530	3.7530	-0.9768	25.40	0.26	-0.750			
0.3402	21774.87	3.7500	3.7500	-0.9750	25.40	0.26	-0.750			
0.3432	21964.94	3.7470	3.7469	-0.9810	25.40	0.26	-0.750			
0.3462	22155.76	3.7440	3.7440	-0.9789	25.40	0.26	-0.750			
0.3491	22341.34	3.7410	3.7410	-0.9758	25.40	0.26	-0.750			
0.3520	22525.35	3.7380	3.7382	-1.0066	25.40	0.26	-0.750			
0.3550	22721.16	3.7350	3.7348	-0.9994	25.41	0.27	-0.750			
0.3580	22912.83	3.7320	3.7317	-0.9934	25.41	0.27	-0.750			
0.3610	23104.34	3.7290	3.7289	-0.9896	25.42	0.28	-0.750			
0.3640	23298.27	3.7260	3.7264	-1.0029	25.42	0.28	-0.750			
0.3670	23490.48	3.7230	3.7229	-1.0108	25.42	0.28	-0.750			
0.3700	23681.57	3.7200	3.7199	-1.0117	25.42	0.28	-0.750			
0.3730	23873.50	3.7170	3.7169	-1.0306	25.42	0.28	-0.750			
0.3761	24067.47	3.7140	3.7143	-1.0625	25.42	0.28	-0.750			
0.3793	24278.14	3.7110	3.7109	-1.0610	25.42	0.28	-0.750			
0.3825	24481.99	3.7080	3.7080	-1.0656	25.41	0.27	-0.750	0.431	0.515	
0.3857	24685.70	3.7050	3.7051	-1.0734	25.41	0.27	-0.750			
0.3890	24894.78	3.7020	3.7024	-1.1003	25.41	0.27	-0.750			
0.3923	25108.48	3.6990	3.6988	-1.1110	25.41	0.27	-0.750			
0.3956	25321.56	3.6960	3.6958	-1.1215	25.42	0.28	-0.750			
0.3990	25536.91	3.6930	3.6930	-1.1335	25.42	0.28	-0.750			
0.4025	25761.24	3.6900	3.6896	-1.1694	25.42	0.28	-0.750			
0.4060	25984.55	3.6870	3.6869	-1.1754	25.42	0.28	-0.750			
0.4095	26210.18	3.6840	3.6839	-1.1877	25.41	0.27	-0.750			
0.4130	26433.96	3.6810	3.6814	-1.2110	25.41	0.27	-0.750			
0.4168	26678.08	3.6780	3.6778	-1.2538	25.40	0.26	-0.750			
0.4206	26920.72	3.6750	3.6749	-1.2746	25.40	0.26	-0.750			
0.4245	27165.54	3.6720	3.6719	-1.3210	25.39	0.25	-0.750			
0.4286	27430.97	3.6690	3.6688	-1.3537	25.39	0.25	-0.750			
0.4328	27696.40	3.6660	3.6657	-1.3651	25.38	0.24	-0.750			
0.4368	27957.05	3.6630	3.6632	-1.3958	25.38	0.24	-0.750			
0.4410	28224.21	3.6600	3.6598	-1.4105	25.38	0.24	-0.750			
0.4452	28494.22	3.6570	3.6569	-1.4497	25.37	0.23	-0.750			
0.4496	28773.92	3.6540	3.6541	-1.4986	25.37	0.23	-0.750			
0.4541	29059.46	3.6510	3.6510	-1.5483	25.37	0.23	-0.750			
0.4591	29382.08	3.6480	3.6475	-1.6141	25.36	0.22	-0.750			
0.4640	29697.93	3.6450	3.6452	-1.6497	25.35	0.21	-0.750			
0.4689	30012.34	3.6420	3.6425	-1.6916	25.34	0.20	-0.750			
0.4742	30348.89	3.6390	3.6384	-1.7340	25.33	0.19	-0.750			
0.4793	30673.06	3.6360	3.6362	-1.7711	25.32	0.18	-0.750			
0.4848	31025.59	3.6330	3.6328	-1.8072	25.32	0.18	-0.750			
0.4903	31381.27	3.6300	3.6298	-1.8581	25.31	0.17	-0.750			
0.4961	31751.59	3.6270	3.6271	-1.9237	25.30	0.16	-0.750			
0.5019	32119.59	3.6240	3.6240	-1.9329	25.29	0.15	-0.750			
0.5077	32494.23	3.6210	3.6211	-1.9735	25.28	0.14	-0.750			
0.5138	32882.73	3.6180	3.6184	-2.0063	25.28	0.14	-0.750			
0.5199	33275.51	3.6150	3.6147	-2.0310	25.27	0.13	-0.750			
0.5259	33656.18	3.6120	3.6119	-2.0210	25.26	0.12	-0.750			
0.5320	34046.19	3.6090	3.6087	-2.1171	25.25	0.11	-0.750			
0.5385	34462.51	3.6060	3.6063	-2.1006	25.24	0.10	-0.750			
0.5448	34868.08	3.6030	3.6032	-2.1627	25.23	0.09	-0.750			
0.5514	35287.67	3.6000	3.6006	-2.1867	25.22	0.08	-0.750			
0.5583	35730.44	3.5970	3.5965	-2.2372	25.21	0.07	-0.750			
0.5648	36149.99	3.5940	3.5943	-2.2734	25.20	0.06	-0.750			
0.5717	36591.91	3.5910	3.5912	-2.3185	25.19	0.05	-0.750			
0.5786	37031.28	3.5880	3.5875	-2.3334	25.18	0.04	-0.750			
0.5855	37473.26	3.5850	3.5848	-2.3811	25.17	0.03	-0.750			
0.5929	37944.18	3.5820	3.5824	-2.4113	25.17	0.03	-0.750			
0.6004	38423.47	3.5790	3.5789	-2.4363	25.16	0.02	-0.750			
0.6080	38909.81	3.5760	3.5761	-2.4304	25.15	0.01	-0.750			
0.6153	39377.46	3.5730	3.5733	-2.4514	25.14	-0.00	-0.750			
0.6224	39836.45	3.5700	3.5701	-2.4391	25.13	-0.01	-0.750			
0.6297	40300.65	3.5670	3.5670	-2.4755	25.13	-0.01	-0.750			
0.6373	40786.14	3.5640	3.5642	-2.4614	25.13	-0.01	-0.750			
0.6449	41270.53	3.5610	3.5604	-2.5165	25.12	-0.02	-0.750			
0.6522	41739.78	3.5580	3.5577	-2.4313	25.12	-0.02	-0.750			
0.6595	42210.48	3.5550	3.5546	-2.4777	25.12	-0.02	-0.750			
0.6670	42690.72	3.5520	3.5520	-2.3915	25.12	-0.02	-0.750			
0.6742	43150.94	3.5490	3.5493	-2.4414	25.12	-0.02	-0.750			
0.6810	43582.96	3.5460	3.5458	-2.3565	25.12	-0.02	-0.750			
0.6884	44056.22	3.5430	3.5434	-2.3114	25.12	-0.02	-0.750			
0.6952	44495.10	3.5400	3.5402	-2.2885	25.13	-0.01	-0.750			
0.7023	44949.79	3.5370	3.5367	-2.2700	25.13	-0.01	-0.750			
0.7088	45365.22	3.5340	3.5337	-2.1720	25.14	-0.00	-0.750			
0.7154	45786.46	3.5310	3.5308	-2.1629	25.14	0.00	-0.750			
0.7219	46203.30	3.5280	3.5278	-2.1496	25.14	0.00	-0.750			
0.7284	46618.66	3.5250	3.5245	-2.0819	25.15	0.01	-0.750			
0.7344	47003.48	3.5220	3.5217	-2.0154	25.16	0.02	-0.750			
0.7404	47384.05	3.5190	3.5187	-1.9343	25.17	0.03	-0.750			
0.7460	47745.88	3.5160	3.5157	-1.8683	25.18	0.04	-0.750			
0.7515	48093.52	3.5130	3.5130	-1.8221	25.18	0.04	-0.750			
0.7568	48434.46	3.5100	3.5098	-1.8367	25.19	0.05	-0.750			
0.7623	48786.58	3.5070	3.5067	-1.8085	25.21	0.07	-0.750			
