Ah_balance (normalized)	Ah_balance (mAh)	Voltage - fit (V)	Voltage -  interpolate (V)	dQ/dV (1/V)	Temperature (°C)	Temperature - diff (°C)	Current (C)	R_DC 0ms (mOhm)	R_DC 50ms (mOhm)	R_DC 50 ms PEC (mOhm)
0.0004	25.44	4.1630	4.1626	-0.1326	25.28	0.03	-0.750			
0.0009	56.38	4.1600	4.1599	-0.1797	25.28	0.03	-0.750			
0.0015	95.19	4.1570	4.1569	-0.2217	25.27	0.02	-0.750			
0.0022	141.67	4.1540	4.1540	-0.2624	25.27	0.02	-0.750			
0.0031	195.65	4.1510	4.1511	-0.3056	25.27	0.02	-0.750			
0.0040	258.87	4.1480	4.1480	-0.3458	25.27	0.02	-0.750			
0.0051	328.86	4.1450	4.1449	-0.3874	25.27	0.02	-0.750			
0.0064	407.50	4.1420	4.1421	-0.4264	25.26	0.01	-0.750			
0.0077	495.36	4.1390	4.1390	-0.4639	25.26	0.01	-0.750			
0.0092	589.70	4.1360	4.1359	-0.4980	25.26	0.01	-0.750			
0.0108	689.56	4.1330	4.1330	-0.5197	25.25	0.00	-0.750			
0.0124	791.49	4.1300	4.1301	-0.5423	25.25	-0.00	-0.750			
0.0140	897.40	4.1270	4.1271	-0.5671	25.24	-0.01	-0.750			
0.0157	1006.76	4.1240	4.1238	-0.5845	25.24	-0.01	-0.750			
0.0175	1120.30	4.1210	4.1211	-0.6062	25.24	-0.01	-0.750			
0.0194	1243.00	4.1180	4.1181	-0.6207	25.23	-0.02	-0.750			
0.0213	1365.79	4.1150	4.1149	-0.6349	25.23	-0.02	-0.750			
0.0233	1488.22	4.1120	4.1120	-0.6424	25.22	-0.03	-0.750			
0.0251	1608.92	4.1090	4.1091	-0.6508	25.22	-0.03	-0.750			
0.0271	1731.81	4.1060	4.1060	-0.6657	25.22	-0.03	-0.750			
0.0291	1861.67	4.1030	4.1024	-0.6854	25.22	-0.03	-0.750			
0.0312	1996.37	4.1000	4.1002	-0.6942	25.22	-0.03	-0.750			
0.0333	2134.03	4.0970	4.0971	-0.7077	25.22	-0.03	-0.750			
0.0355	2273.52	4.0940	4.0940	-0.7164	25.22	-0.03	-0.750			
0.0377	2412.82	4.0910	4.0910	-0.7160	25.22	-0.03	-0.750			
0.0398	2545.57	4.0880	4.0879	-0.7111	25.22	-0.03	-0.750			
0.0419	2681.36	4.0850	4.0850	-0.7164	25.22	-0.03	-0.750			
0.0441	2819.58	4.0820	4.0821	-0.7177	25.21	-0.04	-0.750			
0.0462	2958.21	4.0790	4.0790	-0.7233	25.21	-0.04	-0.750			
0.0484	3097.07	4.0760	4.0760	-0.7286	25.21	-0.04	-0.750			
0.0506	3237.97	4.0730	4.0730	-0.7310	25.21	-0.04	-0.750			
0.0528	3378.61	4.0700	4.0699	-0.7358	25.21	-0.04	-0.750			
0.0550	3519.77	4.0670	4.0670	-0.7452	25.21	-0.04	-0.750			
0.0573	3668.90	4.0640	4.0639	-0.7354	25.21	-0.04	-0.750			
0.0596	3814.00	4.0610	4.0608	-0.7154	25.21	-0.04	-0.750			
0.0617	3950.46	4.0580	4.0584	-0.6984	25.21	-0.04	-0.750			
0.0637	4079.38	4.0550	4.0553	-0.6869	25.21	-0.04	-0.750			
0.0657	4201.70	4.0520	4.0518	-0.6891	25.21	-0.04	-0.750			
0.0676	4329.15	4.0490	4.0487	-0.7013	25.21	-0.04	-0.750			
0.0697	4463.29	4.0460	4.0458	-0.7142	25.22	-0.03	-0.750			
0.0720	4605.52	4.0430	4.0432	-0.7416	25.22	-0.03	-0.750			
0.0743	4758.18	4.0400	4.0406	-0.7660	25.22	-0.03	-0.750			
0.0766	4905.29	4.0370	4.0368	-0.7676	25.22	-0.03	-0.750			
0.0789	5051.28	4.0340	4.0340	-0.7620	25.22	-0.03	-0.750			
0.0812	5197.44	4.0310	4.0310	-0.7681	25.21	-0.04	-0.750			
0.0835	5345.72	4.0280	4.0280	-0.7750	25.21	-0.04	-0.750			
0.0859	5496.14	4.0250	4.0248	-0.7756	25.21	-0.04	-0.750			
0.0882	5643.66	4.0220	4.0218	-0.7775	25.21	-0.04	-0.750			
0.0905	5792.24	4.0190	4.0191	-0.7837	25.21	-0.04	-0.750			
0.0929	5943.40	4.0160	4.0159	-0.7800	25.21	-0.04	-0.750			
0.0952	6093.15	4.0130	4.0130	-0.7764	25.22	-0.03	-0.750			
0.0976	6245.40	4.0100	4.0098	-0.7773	25.22	-0.03	-0.750			
0.0999	6392.91	4.0070	4.0069	-0.7752	25.22	-0.03	-0.750			
0.1022	6539.48	4.0040	4.0041	-0.7870	25.22	-0.03	-0.750			
0.1045	6688.44	4.0010	4.0010	-0.7887	25.22	-0.03	-0.750			
0.1069	6841.83	3.9980	3.9978	-0.7875	25.22	-0.03	-0.750			
0.1093	6997.62	3.9950	3.9949	-0.7980	25.22	-0.03	-0.750			
0.1117	7151.18	3.9920	3.9925	-0.7991	25.22	-0.03	-0.750			
0.1141	7304.66	3.9890	3.9890	-0.7974	25.22	-0.03	-0.750			
0.1165	7456.31	3.9860	3.9859	-0.7926	25.22	-0.03	-0.750			
0.1188	7606.32	3.9830	3.9830	-0.7928	25.23	-0.02	-0.750			
0.1213	7760.24	3.9800	3.9800	-0.7947	25.23	-0.02	-0.750			
0.1236	7913.53	3.9770	3.9769	-0.7936	25.23	-0.02	-0.750			
0.1260	8064.82	3.9740	3.9740	-0.7967	25.23	-0.02	-0.750			
0.1284	8218.49	3.9710	3.9710	-0.8062	25.24	-0.01	-0.750			
0.1308	8374.39	3.9680	3.9678	-0.8081	25.24	-0.01	-0.750			
0.1333	8531.05	3.9650	3.9649	-0.8076	25.24	-0.01	-0.750			
0.1357	8686.49	3.9620	3.9620	-0.8091	25.25	-0.00	-0.750			
0.1382	8842.12	3.9590	3.9588	-0.8144	25.25	0.00	-0.750			
0.1406	8996.42	3.9560	3.9559	-0.8223	25.25	0.00	-0.750			
0.1430	9154.24	3.9530	3.9529	-0.8234	25.25	0.00	-0.750			
0.1455	9313.71	3.9500	3.9499	-0.8191	25.25	0.00	-0.750			
0.1481	9479.22	3.9470	3.9470	-0.8279	25.25	0.00	-0.750			
0.1506	9636.78	3.9440	3.9439	-0.8248	25.25	0.00	-0.750			
0.1530	9792.55	3.9410	3.9409	-0.8180	25.25	0.00	-0.750			
0.1554	9946.58	3.9380	3.9380	-0.8176	25.25	0.00	-0.750			
0.1578	10099.17	3.9350	3.9350	-0.8126	25.26	0.01	-0.750			
0.1603	10261.77	3.9320	3.9320	-0.8287	25.26	0.01	-0.750			
0.1628	10421.47	3.9290	3.9291	-0.8325	25.26	0.01	-0.750			
0.1654	10582.62	3.9260	3.9260	-0.8464	25.26	0.01	-0.750			
0.1679	10747.84	3.9230	3.9229	-0.8409	25.26	0.01	-0.750			
0.1705	10910.14	3.9200	3.9198	-0.8399	25.27	0.02	-0.750			
0.1730	11070.90	3.9170	3.9169	-0.8386	25.27	0.02	-0.750			
0.1755	11232.23	3.9140	3.9138	-0.8395	25.27	0.02	-0.750			
0.1780	11391.53	3.9110	3.9108	-0.8414	25.27	0.02	-0.750			
0.1805	11551.19	3.9080	3.9080	-0.8383	25.27	0.02	-0.750			
0.1830	11710.07	3.9050	3.9051	-0.8403	25.27	0.02	-0.750			
0.1857	11882.03	3.9020	3.9019	-0.8514	25.27	0.02	-0.750			
0.1882	12043.01	3.8990	3.8988	-0.8403	25.27	0.02	-0.750			
0.1907	12201.94	3.8960	3.8960	-0.8444	25.27	0.02	-0.750			
0.1932	12363.59	3.8930	3.8931	-0.8458	25.28	0.03	-0.750			
0.1957	12524.69	3.8900	3.8898	-0.8414	25.28	0.03	-0.750			
0.1983	12690.71	3.8870	3.8870	-0.8508	25.28	0.03	-0.750			
0.2008	12854.06	3.8840	3.8839	-0.8500	25.28	0.03	-0.750			
0.2034	13019.86	3.8810	3.8810	-0.8590	25.29	0.04	-0.750			
0.2060	13185.81	3.8780	3.8779	-0.8540	25.29	0.04	-0.750			
0.2086	13348.87	3.8750	3.8749	-0.8458	25.29	0.04	-0.750			
0.2112	13513.81	3.8720	3.8719	-0.8476	25.30	0.05	-0.750			
0.2137	13674.88	3.8690	3.8689	-0.8493	25.30	0.05	-0.750			
0.2162	13838.74	3.8660	3.8659	-0.8527	25.30	0.05	-0.750			
0.2188	14001.87	3.8630	3.8628	-0.8427	25.30	0.05	-0.750			
0.2214	14167.78	3.8600	3.8600	-0.8512	25.30	0.05	-0.750			
0.2239	14327.82	3.8570	3.8575	-0.8412	25.30	0.05	-0.750			
0.2264	14489.07	3.8540	3.8538	-0.8358	25.30	0.05	-0.750			
0.2288	14645.21	3.8510	3.8509	-0.8358	25.31	0.06	-0.750			
0.2313	14803.00	3.8480	3.8480	-0.8421	25.31	0.06	-0.750			
0.2339	14968.28	3.8450	3.8449	-0.8554	25.32	0.07	-0.750			
0.2364	15131.96	3.8420	3.8421	-0.8554	25.32	0.07	-0.750			
0.2390	15297.01	3.8390	3.8390	-0.8520	25.32	0.07	-0.750			
0.2416	15461.90	3.8360	3.8359	-0.8552	25.32	0.07	-0.750			
0.2442	15628.63	3.8330	3.8330	-0.8468	25.33	0.08	-0.750			
0.2467	15788.49	3.8300	3.8299	-0.8371	25.33	0.08	-0.750			
0.2492	15950.51	3.8270	3.8275	-0.8292	25.33	0.08	-0.750			
0.2517	16109.43	3.8240	3.8237	-0.8212	25.33	0.08	-0.750			
0.2541	16264.00	3.8210	3.8210	-0.8247	25.34	0.09	-0.750			
0.2566	16423.86	3.8180	3.8179	-0.8187	25.34	0.09	-0.750			
0.2591	16583.38	3.8150	3.8147	-0.8221	25.35	0.10	-0.750			
0.2616	16739.58	3.8120	3.8126	-0.8147	25.35	0.10	-0.750			
0.2640	16894.34	3.8090	3.8089	-0.8047	25.35	0.10	-0.750			
0.2664	17048.29	3.8060	3.8059	-0.8042	25.36	0.11	-0.750			
0.2687	17198.60	3.8030	3.8029	-0.7915	25.36	0.11	-0.750			
0.2711	17352.56	3.8000	3.8001	-0.8022	25.36	0.11	-0.750			
0.2735	17506.83	3.7970	3.7970	-0.7935	25.37	0.12	-0.750			
0.2759	17659.29	3.7940	3.7939	-0.7907	25.37	0.12	-0.750			
0.2783	17808.70	3.7910	3.7910	-0.7946	25.37	0.12	-0.750			
0.2807	17961.90	3.7880	3.7881	-0.7865	25.37	0.12	-0.750			
0.2830	18111.87	3.7850	3.7849	-0.7814	25.37	0.12	-0.750			
0.2854	18263.54	3.7820	3.7819	-0.7798	25.37	0.12	-0.750			
0.2877	18411.52	3.7790	3.7790	-0.7747	25.37	0.12	-0.750			
0.2900	18560.19	3.7760	3.7759	-0.7787	25.37	0.12	-0.750			
0.2923	18708.08	3.7730	3.7729	-0.7850	25.37	0.12	-0.750			
0.2947	18858.68	3.7700	3.7700	-0.7810	25.38	0.13	-0.750			
0.2971	19013.68	3.7670	3.7668	-0.7898	25.38	0.13	-0.750			
0.2994	19164.17	3.7640	3.7646	-0.7909	25.38	0.13	-0.750			
0.3018	19315.81	3.7610	3.7608	-0.7949	25.38	0.13	-0.750			
0.3042	19467.09	3.7580	3.7580	-0.7931	25.38	0.13	-0.750			
0.3065	19618.07	3.7550	3.7550	-0.7972	25.39	0.14	-0.750			
0.3090	19773.22	3.7520	3.7521	-0.8067	25.39	0.14	-0.750			
0.3114	19928.79	3.7490	3.7488	-0.8059	25.39	0.14	-0.750			
0.3137	20075.96	3.7460	3.7461	-0.8306	25.39	0.14	-0.750			
0.3162	20236.43	3.7430	3.7429	-0.8436	25.39	0.14	-0.750			
0.3188	20403.17	3.7400	3.7399	-0.8482	25.40	0.15	-0.750			
0.3214	20569.80	3.7370	3.7368	-0.8595	25.40	0.15	-0.750			
0.3240	20736.75	3.7340	3.7344	-0.8722	25.40	0.15	-0.750			
0.3266	20902.57	3.7310	3.7309	-0.9031	25.40	0.15	-0.750			
0.3293	21077.51	3.7280	3.7277	-0.8980	25.40	0.15	-0.750			
0.3320	21248.20	3.7250	3.7248	-0.9000	25.39	0.14	-0.750			
0.3348	21424.99	3.7220	3.7219	-0.9130	25.39	0.14	-0.750			
0.3375	21602.76	3.7190	3.7188	-0.9178	25.39	0.14	-0.750			
0.3403	21776.02	3.7160	3.7160	-0.9297	25.39	0.14	-0.750			
0.3430	21951.12	3.7130	3.7130	-0.9437	25.39	0.14	-0.750			
0.3458	22131.28	3.7100	3.7099	-0.9712	25.38	0.13	-0.750			
0.3488	22320.25	3.7070	3.7070	-0.9994	25.38	0.13	-0.750			
0.3518	22516.97	3.7040	3.7040	-1.0188	25.38	0.13	-0.750			
0.3550	22717.19	3.7010	3.7008	-1.0300	25.38	0.13	-0.750			
0.3581	22918.68	3.6980	3.6984	-1.0400	25.37	0.12	-0.750	0.398	0.518	
0.3612	23116.71	3.6950	3.6950	-1.0462	25.37	0.12	-0.750			
0.3643	23318.06	3.6920	3.6918	-1.0781	25.37	0.12	-0.750			
0.3676	23529.30	3.6890	3.6889	-1.0901	25.36	0.11	-0.750			
0.3709	23740.31	3.6860	3.6858	-1.1024	25.36	0.11	-0.750			
0.3743	23954.10	3.6830	3.6838	-1.1454	25.35	0.10	-0.750			
0.3777	24174.95	3.6800	3.6799	-1.1612	25.34	0.09	-0.750			
0.3812	24398.48	3.6770	3.6767	-1.1788	25.32	0.07	-0.750			
0.3847	24619.73	3.6740	3.6741	-1.2008	25.31	0.06	-0.750			
0.3885	24861.70	3.6710	3.6710	-1.2292	25.30	0.05	-0.750			
0.3922	25098.61	3.6680	3.6679	-1.2473	25.30	0.05	-0.750			
0.3959	25334.78	3.6650	3.6649	-1.2753	25.30	0.05	-0.750			
0.3997	25579.92	3.6620	3.6627	-1.2822	25.30	0.05	-0.750			
0.4036	25831.86	3.6590	3.6588	-1.3092	25.29	0.04	-0.750			
0.4076	26087.95	3.6560	3.6558	-1.3209	25.29	0.04	-0.750			
0.4116	26342.70	3.6530	3.6533	-1.3448	25.28	0.03	-0.750			
0.4157	26605.84	3.6500	3.6499	-1.3685	25.27	0.02	-0.750			
0.4196	26855.88	3.6470	3.6471	-1.4129	25.26	0.01	-0.750			
0.4240	27138.74	3.6440	3.6442	-1.4244	25.25	0.00	-0.750			
0.4283	27412.88	3.6410	3.6408	-1.4734	25.24	-0.01	-0.750			
0.4328	27698.86	3.6380	3.6379	-1.4991	25.23	-0.02	-0.750			
0.4374	27995.29	3.6350	3.6353	-1.5294	25.22	-0.03	-0.750			
0.4420	28290.84	3.6320	3.6319	-1.5574	25.21	-0.04	-0.750			
0.4468	28592.90	3.6290	3.6287	-1.5931	25.20	-0.05	-0.750			
0.4515	28895.91	3.6260	3.6258	-1.6097	25.20	-0.05	-0.750			
0.4565	29216.85	3.6230	3.6231	-1.6648	25.19	-0.06	-0.750			
0.4615	29535.52	3.6200	3.6195	-1.6853	25.18	-0.07	-0.750			
0.4666	29860.49	3.6170	3.6168	-1.7440	25.18	-0.07	-0.750			
0.4719	30204.03	3.6140	3.6134	-1.7682	25.17	-0.08	-0.750			
0.4772	30542.55	3.6110	3.6111	-1.7739	25.16	-0.09	-0.750			
0.4827	30891.22	3.6080	3.6081	-1.8424	25.15	-0.10	-0.750			
0.4883	31253.15	3.6050	3.6048	-1.8455	25.14	-0.11	-0.750			
0.4940	31613.18	3.6020	3.6018	-1.9163	25.13	-0.12	-0.750			
0.4997	31983.21	3.5990	3.5989	-1.9314	25.12	-0.13	-0.750			
0.5056	32360.38	3.5960	3.5958	-1.9894	25.11	-0.14	-0.750			
0.5115	32737.91	3.5930	3.5934	-1.9947	25.11	-0.14	-0.750			
0.5176	33124.22	3.5900	3.5902	-2.0204	25.11	-0.14	-0.750			
0.5239	33526.60	3.5870	3.5872	-2.0596	25.10	-0.15	-0.750			
0.5299	33913.48	3.5840	3.5841	-2.0792	25.10	-0.15	-0.750			
0.5363	34321.16	3.5810	3.5808	-2.1231	25.09	-0.16	-0.750			
0.5427	34735.29	3.5780	3.5776	-2.1446	25.09	-0.16	-0.750			
0.5492	35150.73	3.5750	3.5754	-2.1559	25.08	-0.17	-0.750			
0.5559	35574.83	3.5720	3.5720	-2.1594	25.08	-0.17	-0.750			
0.5623	35988.31	3.5690	3.5692	-2.2120	25.08	-0.17	-0.750			
0.5688	36403.71	3.5660	3.5658	-2.2050	25.08	-0.17	-0.750			
0.5755	36833.89	3.5630	3.5630	-2.1877	25.08	-0.17	-0.750			
0.5825	37279.62	3.5600	3.5596	-2.2345	25.08	-0.17	-0.750			
0.5890	37699.13	3.5570	3.5565	-2.2151	25.08	-0.17	-0.750			
0.5954	38106.53	3.5540	3.5547	-2.1739	25.08	-0.17	-0.750			
0.6021	38534.44	3.5510	3.5506	-2.1730	25.08	-0.17	-0.750			
0.6086	38948.86	3.5480	3.5479	-2.1084	25.09	-0.16	-0.750			
0.6148	39345.84	3.5450	3.5455	-2.0733	25.09	-0.16	-0.750			
0.6212	39758.50	3.5420	3.5420	-2.0680	25.10	-0.15	-0.750			
0.6273	40147.18	3.5390	3.5387	-2.0290	25.10	-0.15	-0.750			
0.6332	40527.82	3.5360	3.5358	-1.9948	25.11	-0.14	-0.750			
0.6392	40906.22	3.5330	3.5328	-1.9535	25.12	-0.13	-0.750			
0.6451	41287.49	3.5300	3.5295	-1.8958	25.13	-0.12	-0.750			
0.6507	41647.67	3.5270	3.5270	-1.8472	25.14	-0.11	-0.750			
0.6562	41999.78	3.5240	3.5241	-1.8216	25.16	-0.09	-0.750			
0.6617	42350.11	3.5210	3.5214	-1.7639	25.17	-0.08	-0.750			
0.6670	42686.98	3.5180	3.5182	-1.7163	25.19	-0.06	-0.750			
0.6721	43011.53	3.5150	3.5154	-1.6592	25.21	-0.04	-0.750			
0.6769	43324.33	3.5120	3.5118	-1.6191	25.23	-0.02	-0.750			
0.6818	43632.49	3.5090	3.5089	-1.6098	25.25	-0.00	-0.750			
0.6864	43931.35	3.5060	3.5058	-1.5603	25.27	0.02	-0.750			
0.6911	44228.70	3.5030	3.5029	-1.5256	25.28	0.03	-0.750			
0.6955	44512.65	3.5000	3.4999	-1.4896	25.29	0.04	-0.750			
0.7000	44801.71	3.4970	3.4972	-1.4450	25.30	0.05	-0.750			
0.7044	45083.71	3.4940	3.4943	-1.4012	25.32	0.07	-0.750			
0.7085	45345.89	3.4910	3.4907	-1.3472	25.34	0.09	-0.750			
0.7125	45600.68	3.4880	3.4883	-1.3303	25.35	0.10	-0.750			
