Ah_balance (normalized)	Ah_balance (mAh)	Voltage - fit (V)	Voltage -  interpolate (V)	dQ/dV (1/V)	Temperature (°C)	Temperature - diff (°C)	Current (C)	R_DC 0ms (mOhm)	R_DC 50ms (mOhm)	R_DC 50 ms PEC (mOhm)
0.0476	3047.80	4.1980	4.1980	0.7374	25.69	0.45	0.750			
0.0499	3190.68	4.1950	4.1950	0.7488	25.69	0.45	0.750			
0.0521	3336.01	4.1920	4.1920	0.7542	25.69	0.45	0.750			
0.0544	3480.90	4.1890	4.1890	0.7525	25.69	0.45	0.750			
0.0566	3625.35	4.1860	4.1861	0.7563	25.69	0.45	0.750			
0.0589	3769.26	4.1830	4.1830	0.7590	25.69	0.45	0.750			
0.0612	3915.42	4.1800	4.1800	0.7622	25.69	0.45	0.750			
0.0635	4061.94	4.1770	4.1771	0.7640	25.69	0.45	0.750			
0.0658	4209.12	4.1740	4.1740	0.7660	25.69	0.45	0.750			
0.0681	4358.28	4.1710	4.1710	0.7706	25.69	0.45	0.750			
0.0704	4504.97	4.1680	4.1681	0.7673	25.69	0.45	0.750			
0.0727	4653.12	4.1650	4.1649	0.7657	25.69	0.45	0.750			
0.0750	4799.36	4.1620	4.1620	0.7653	25.69	0.45	0.750			
0.0773	4947.75	4.1590	4.1591	0.7667	25.69	0.45	0.750			
0.0796	5094.73	4.1560	4.1560	0.7687	25.69	0.45	0.750			
0.0819	5242.12	4.1530	4.1530	0.7678	25.69	0.45	0.750			
0.0842	5388.93	4.1500	4.1501	0.7693	25.69	0.45	0.750			
0.0865	5536.51	4.1470	4.1470	0.7702	25.69	0.45	0.750			
0.0888	5685.74	4.1440	4.1440	0.7702	25.69	0.45	0.750			
0.0911	5832.73	4.1410	4.1410	0.7673	25.69	0.45	0.750			
0.0934	5979.54	4.1380	4.1381	0.7710	25.69	0.45	0.750			
0.0957	6126.54	4.1350	4.1350	0.7758	25.69	0.45	0.750			
0.0981	6276.80	4.1320	4.1318	0.7802	25.69	0.45	0.750			
0.1004	6425.76	4.1290	4.1291	0.7846	25.69	0.45	0.750			
0.1028	6577.89	4.1260	4.1261	0.7927	25.69	0.45	0.750			
0.1052	6732.97	4.1230	4.1230	0.7969	25.70	0.46	0.750			
0.1076	6886.42	4.1200	4.1199	0.7941	25.70	0.46	0.750			
0.1099	7036.78	4.1170	4.1171	0.7922	25.70	0.46	0.750			
0.1123	7189.04	4.1140	4.1139	0.7930	25.70	0.46	0.750			
0.1147	7343.01	4.1110	4.1110	0.7922	25.70	0.46	0.750			
0.1171	7493.61	4.1080	4.1080	0.7909	25.70	0.46	0.750			
0.1194	7644.48	4.1050	4.1051	0.7939	25.71	0.47	0.750			
0.1218	7797.81	4.1020	4.1020	0.7962	25.71	0.47	0.750			
0.1242	7949.93	4.0990	4.0990	0.8001	25.71	0.47	0.750			
0.1266	8103.56	4.0960	4.0960	0.8025	25.71	0.47	0.750			
0.1290	8258.07	4.0930	4.0931	0.7980	25.71	0.47	0.750			
0.1314	8410.40	4.0900	4.0901	0.8018	25.71	0.47	0.750			
0.1338	8562.61	4.0870	4.0871	0.8059	25.71	0.47	0.750			
0.1362	8718.06	4.0840	4.0835	0.8122	25.71	0.47	0.750			
0.1387	8875.14	4.0810	4.0811	0.8148	25.71	0.47	0.750			
0.1411	9031.96	4.0780	4.0781	0.8197	25.71	0.47	0.750			
0.1437	9193.66	4.0750	4.0750	0.8263	25.71	0.47	0.750			
0.1461	9350.53	4.0720	4.0720	0.8190	25.71	0.47	0.750			
0.1486	9507.78	4.0690	4.0689	0.8197	25.71	0.47	0.750			
0.1510	9664.69	4.0660	4.0660	0.8253	25.71	0.47	0.750			
0.1535	9824.68	4.0630	4.0630	0.8244	25.71	0.47	0.750			
0.1560	9981.52	4.0600	4.0600	0.8308	25.71	0.47	0.750			
0.1585	10140.89	4.0570	4.0571	0.8348	25.71	0.47	0.750			
0.1610	10302.46	4.0540	4.0537	0.8388	25.71	0.47	0.750			
0.1635	10464.92	4.0510	4.0510	0.8389	25.71	0.47	0.750			
0.1660	10626.53	4.0480	4.0481	0.8343	25.71	0.47	0.750			
0.1685	10785.46	4.0450	4.0451	0.8356	25.71	0.47	0.750			
0.1710	10944.46	4.0420	4.0421	0.8360	25.71	0.47	0.750			
0.1735	11104.53	4.0390	4.0385	0.8389	25.71	0.47	0.750			
0.1760	11265.71	4.0360	4.0362	0.8448	25.71	0.47	0.750			
0.1786	11430.06	4.0330	4.0331	0.8494	25.71	0.47	0.750			
0.1812	11597.35	4.0300	4.0300	0.8578	25.72	0.48	0.750			
0.1838	11762.79	4.0270	4.0270	0.8619	25.72	0.48	0.750			
0.1863	11922.82	4.0240	4.0240	0.8570	25.72	0.48	0.750			
0.1889	12089.97	4.0210	4.0209	0.8556	25.72	0.48	0.750			
0.1915	12253.58	4.0180	4.0180	0.8615	25.72	0.48	0.750			
0.1940	12418.29	4.0150	4.0151	0.8650	25.73	0.49	0.750			
0.1967	12585.87	4.0120	4.0121	0.8709	25.73	0.49	0.750			
0.1993	12752.88	4.0090	4.0091	0.8725	25.73	0.49	0.750			
0.2019	12922.40	4.0060	4.0060	0.8700	25.73	0.49	0.750			
0.2045	13088.25	4.0030	4.0031	0.8744	25.73	0.49	0.750			
0.2071	13257.57	4.0000	4.0000	0.8789	25.73	0.49	0.750			
0.2098	13425.33	3.9970	3.9971	0.8780	25.73	0.49	0.750			
0.2124	13594.78	3.9940	3.9941	0.8830	25.73	0.49	0.750			
0.2151	13764.32	3.9910	3.9910	0.8842	25.73	0.49	0.750			
0.2177	13934.37	3.9880	3.9881	0.8893	25.74	0.50	0.750			
0.2204	14107.41	3.9850	3.9850	0.8933	25.74	0.50	0.750			
0.2231	14275.91	3.9820	3.9817	0.8898	25.74	0.50	0.750			
0.2258	14448.38	3.9790	3.9791	0.8907	25.74	0.50	0.750			
0.2284	14618.90	3.9760	3.9760	0.8933	25.74	0.50	0.750			
0.2311	14791.67	3.9730	3.9730	0.8962	25.75	0.51	0.750			
0.2338	14963.86	3.9700	3.9700	0.8989	25.75	0.51	0.750			
0.2365	15134.91	3.9670	3.9670	0.8989	25.75	0.51	0.750			
0.2393	15312.35	3.9640	3.9640	0.8881	25.75	0.51	0.750			
0.2419	15479.60	3.9610	3.9610	0.8938	25.75	0.51	0.750			
0.2445	15649.65	3.9580	3.9581	0.9018	25.75	0.51	0.750			
0.2472	15821.24	3.9550	3.9552	0.9037	25.75	0.51	0.750			
0.2500	15996.81	3.9520	3.9521	0.9107	25.75	0.51	0.750			
0.2527	16171.82	3.9490	3.9491	0.9181	25.75	0.51	0.750			
0.2555	16351.57	3.9460	3.9461	0.9235	25.75	0.51	0.750			
0.2583	16530.98	3.9430	3.9430	0.9278	25.75	0.51	0.750			
0.2611	16708.58	3.9400	3.9399	0.9215	25.75	0.51	0.750			
0.2639	16886.44	3.9370	3.9370	0.9186	25.75	0.51	0.750			
0.2666	17061.62	3.9340	3.9340	0.9208	25.75	0.51	0.750			
0.2693	17238.39	3.9310	3.9310	0.9204	25.76	0.52	0.750			
0.2721	17414.82	3.9280	3.9279	0.9191	25.76	0.52	0.750			
0.2749	17591.79	3.9250	3.9250	0.9216	25.76	0.52	0.750			
0.2776	17769.37	3.9220	3.9220	0.9117	25.76	0.52	0.750			
0.2803	17942.00	3.9190	3.9191	0.9194	25.77	0.53	0.750			
0.2831	18118.00	3.9160	3.9160	0.9239	25.77	0.53	0.750			
0.2859	18294.47	3.9130	3.9124	0.9291	25.77	0.53	0.750			
0.2887	18474.64	3.9100	3.9101	0.9335	25.77	0.53	0.750			
0.2915	18654.63	3.9070	3.9071	0.9412	25.76	0.52	0.750			
0.2944	18838.82	3.9040	3.9041	0.9486	25.76	0.52	0.750			
0.2972	19019.61	3.9010	3.9010	0.9418	25.75	0.51	0.750			
0.3000	19202.29	3.8980	3.8980	0.9404	25.75	0.51	0.750			
0.3029	19383.18	3.8950	3.8950	0.9427	25.75	0.51	0.750			
0.3057	19563.92	3.8920	3.8921	0.9424	25.75	0.51	0.750			
0.3085	19746.42	3.8890	3.8890	0.9439	25.75	0.51	0.750			
0.3113	19925.45	3.8860	3.8859	0.9430	25.75	0.51	0.750			
0.3142	20108.74	3.8830	3.8830	0.9363	25.74	0.50	0.750			
0.3170	20286.23	3.8800	3.8800	0.9439	25.74	0.50	0.750			
0.3198	20467.85	3.8770	3.8771	0.9513	25.74	0.50	0.750			
0.3227	20650.56	3.8740	3.8738	0.9523	25.73	0.49	0.750			
0.3255	20834.91	3.8710	3.8710	0.9549	25.72	0.48	0.750			
0.3284	21019.02	3.8680	3.8681	0.9568	25.72	0.48	0.750			
0.3313	21202.79	3.8650	3.8651	0.9597	25.71	0.47	0.750			
0.3342	21387.99	3.8620	3.8620	0.9579	25.70	0.46	0.750			
0.3371	21572.12	3.8590	3.8590	0.9599	25.70	0.46	0.750			
0.3399	21755.82	3.8560	3.8560	0.9581	25.69	0.45	0.750			
0.3428	21940.06	3.8530	3.8530	0.9628	25.69	0.45	0.750			
0.3457	22125.26	3.8500	3.8500	0.9675	25.68	0.44	0.750			
0.3486	22310.77	3.8470	3.8468	0.9702	25.68	0.44	0.750			
0.3516	22499.91	3.8440	3.8439	0.9565	25.67	0.43	0.750			
0.3544	22681.17	3.8410	3.8411	0.9758	25.66	0.42	0.750			
0.3573	22868.60	3.8380	3.8381	0.9866	25.65	0.41	0.750			
0.3603	23057.80	3.8350	3.8347	0.9885	25.64	0.40	0.750			
0.3633	23250.21	3.8320	3.8322	0.9968	25.63	0.39	0.750	0.337	0.440	
0.3663	23442.77	3.8290	3.8291	1.0031	25.63	0.39	0.750			
0.3693	23636.82	3.8260	3.8260	1.0106	25.62	0.38	0.750			
0.3724	23831.74	3.8230	3.8230	1.0056	25.61	0.37	0.750			
0.3754	24025.52	3.8200	3.8199	0.9999	25.60	0.36	0.750			
0.3784	24218.14	3.8170	3.8171	1.0117	25.59	0.35	0.750			
0.3815	24412.83	3.8140	3.8141	1.0194	25.58	0.34	0.750			
0.3845	24608.30	3.8110	3.8110	1.0253	25.57	0.33	0.750			
0.3876	24808.52	3.8080	3.8080	1.0219	25.56	0.32	0.750			
0.3907	25001.95	3.8050	3.8052	1.0374	25.55	0.31	0.750			
0.3938	25201.86	3.8020	3.8021	1.0560	25.54	0.30	0.750			
0.3970	25405.62	3.7990	3.7991	1.0693	25.53	0.29	0.750			
0.4002	25613.81	3.7960	3.7961	1.0795	25.52	0.28	0.750			
0.4035	25821.77	3.7930	3.7931	1.0982	25.51	0.27	0.750			
0.4068	26034.92	3.7900	3.7901	1.1176	25.50	0.26	0.750			
0.4102	26255.49	3.7870	3.7868	1.1336	25.48	0.24	0.750			
0.4136	26468.65	3.7840	3.7840	1.1382	25.47	0.23	0.750			
0.4170	26688.30	3.7810	3.7811	1.1602	25.47	0.23	0.750			
0.4205	26913.54	3.7780	3.7781	1.1819	25.46	0.22	0.750			
0.4242	27146.62	3.7750	3.7749	1.1789	25.45	0.21	0.750			
0.4277	27371.16	3.7720	3.7721	1.2088	25.43	0.19	0.750			
0.4313	27602.52	3.7690	3.7692	1.2393	25.42	0.18	0.750			
0.4351	27845.45	3.7660	3.7657	1.2616	25.40	0.16	0.750			
0.4389	28087.87	3.7630	3.7631	1.2951	25.39	0.15	0.750			
0.4428	28338.41	3.7600	3.7602	1.3289	25.38	0.14	0.750			
0.4469	28600.10	3.7570	3.7569	1.3584	25.36	0.12	0.750			
0.4511	28868.57	3.7540	3.7540	1.3977	25.35	0.11	0.750			
0.4552	29132.39	3.7510	3.7510	1.4099	25.34	0.10	0.750			
0.4595	29406.79	3.7480	3.7480	1.4351	25.32	0.08	0.750			
0.4638	29684.27	3.7450	3.7451	1.4751	25.31	0.07	0.750			
0.4682	29966.33	3.7420	3.7417	1.4986	25.30	0.06	0.750			
0.4728	30261.41	3.7390	3.7387	1.5324	25.28	0.04	0.750			
0.4775	30557.91	3.7360	3.7358	1.5919	25.27	0.03	0.750			
0.4823	30868.71	3.7330	3.7328	1.6309	25.26	0.02	0.750			
0.4873	31188.79	3.7300	3.7302	1.6731	25.24	0.00	0.750			
0.4924	31515.89	3.7270	3.7273	1.7143	25.22	-0.02	0.750			
0.4976	31848.30	3.7240	3.7241	1.7681	25.20	-0.04	0.750			
0.5031	32200.15	3.7210	3.7212	1.8027	25.19	-0.05	0.750			
0.5085	32546.74	3.7180	3.7182	1.8795	25.18	-0.06	0.750			
0.5142	32906.48	3.7150	3.7148	1.9265	25.17	-0.07	0.750			
0.5200	33279.54	3.7120	3.7117	1.9774	25.16	-0.08	0.750			
0.5261	33668.47	3.7090	3.7093	2.0410	25.14	-0.10	0.750			
0.5324	34072.89	3.7060	3.7061	2.1253	25.13	-0.11	0.750			
0.5389	34488.52	3.7030	3.7028	2.1887	25.11	-0.13	0.750			
0.5454	34905.14	3.7000	3.6999	2.2078	25.10	-0.14	0.750			
0.5522	35338.33	3.6970	3.6972	2.2514	25.08	-0.16	0.750			
0.5591	35780.71	3.6940	3.6940	2.3259	25.07	-0.17	0.750			
0.5661	36231.30	3.6910	3.6908	2.3654	25.07	-0.17	0.750			
0.5732	36684.80	3.6880	3.6881	2.4825	25.06	-0.18	0.750			
0.5808	37173.85	3.6850	3.6849	2.5694	25.05	-0.19	0.750			
0.5887	37674.15	3.6820	3.6821	2.6234	25.04	-0.20	0.750			
0.5968	38192.67	3.6790	3.6789	2.6743	25.04	-0.20	0.750			
0.6050	38721.32	3.6760	3.6758	2.7199	25.03	-0.21	0.750			
0.6132	39246.92	3.6730	3.6728	2.7326	25.02	-0.22	0.750			
0.6213	39766.26	3.6700	3.6700	2.7012	25.03	-0.21	0.750			
0.6294	40280.01	3.6670	3.6671	2.6379	25.03	-0.21	0.750			
0.6373	40787.71	3.6640	3.6640	2.4831	25.04	-0.20	0.750			
0.6447	41263.20	3.6610	3.6612	2.3086	25.05	-0.19	0.750			
0.6513	41681.88	3.6580	3.6582	2.1185	25.06	-0.18	0.750			
0.6573	42066.53	3.6550	3.6550	1.9143	25.07	-0.17	0.750			
0.6625	42397.27	3.6520	3.6521	1.7211	25.07	-0.17	0.750			
0.6674	42715.60	3.6490	3.6491	1.5983	25.09	-0.15	0.750			
0.6720	43009.67	3.6460	3.6460	1.4614	25.10	-0.14	0.750			
0.6762	43279.80	3.6430	3.6431	1.3465	25.10	-0.14	0.750			
0.6801	43524.12	3.6400	3.6401	1.2339	25.11	-0.13	0.750			
0.6835	43742.07	3.6370	3.6370	1.1387	25.12	-0.12	0.750			
0.6867	43948.00	3.6340	3.6339	1.0655	25.12	-0.12	0.750			
0.6897	44143.79	3.6310	3.6310	1.0149	25.13	-0.11	0.750			
0.6927	44330.45	3.6280	3.6281	0.9795	25.14	-0.10	0.750			
0.6955	44514.41	3.6250	3.6251	0.9586	25.15	-0.09	0.750			
0.6984	44695.17	3.6220	3.6213	0.9341	25.16	-0.08	0.750			
0.7012	44876.10	3.6190	3.6191	0.9012	25.17	-0.07	0.750			
0.7039	45049.31	3.6160	3.6161	0.8713	25.18	-0.06	0.750			
0.7065	45218.66	3.6130	3.6131	0.8325	25.19	-0.05	0.750			
0.7090	45377.54	3.6100	3.6100	0.7515	25.19	-0.05	0.750			
0.7112	45516.29	3.6070	3.6068	0.6955	25.20	-0.04	0.750			
0.7132	45641.73	3.6040	3.6042	0.6315	25.21	-0.03	0.750			
0.7149	45754.54	3.6010	3.6008	0.5662	25.21	-0.03	0.750			
0.7165	45857.08	3.5980	3.5982	0.5094	25.22	-0.02	0.750			
0.7179	45947.95	3.5950	3.5951	0.4501	25.22	-0.02	0.750			
0.7192	46030.72	3.5920	3.5921	0.4015	25.23	-0.01	0.750			
0.7204	46104.73	3.5890	3.5889	0.3547	25.23	-0.01	0.750			
0.7213	46164.53	3.5860	3.5859	0.2923	25.23	-0.01	0.750			
0.7221	46215.90	3.5830	3.5830	0.2408	25.24	-0.00	0.750			
0.7228	46257.51	3.5800	3.5800	0.1887	25.24	-0.00	0.750			
0.7233	46288.39	3.5770	3.5772	0.1363	25.24	-0.00	0.750			
0.7236	46309.68	3.5740	3.5752	0.0787	25.24	0.00	0.751			
