Ah_balance (normalized)	Ah_balance (mAh)	Voltage - fit (V)	Voltage -  interpolate (V)	dQ/dV (1/V)	Temperature (°C)	Temperature - diff (°C)	Current (C)	R_DC 0ms (mOhm)	R_DC 50ms (mOhm)	R_DC 50 ms PEC (mOhm)
0.0466	2983.80	4.1990	4.1990	0.7683	25.35	0.53	0.750			
0.0489	3130.69	4.1960	4.1960	0.7638	25.35	0.53	0.750			
0.0512	3278.13	4.1930	4.1930	0.7627	25.35	0.53	0.750			
0.0535	3423.32	4.1900	4.1900	0.7608	25.35	0.53	0.750			
0.0557	3567.88	4.1870	4.1870	0.7619	25.35	0.53	0.750			
0.0580	3715.03	4.1840	4.1840	0.7672	25.35	0.53	0.750			
0.0603	3862.39	4.1810	4.1810	0.7691	25.35	0.53	0.750			
0.0627	4010.70	4.1780	4.1781	0.7721	25.35	0.53	0.750			
0.0650	4160.33	4.1750	4.1750	0.7730	25.35	0.53	0.750			
0.0673	4308.73	4.1720	4.1720	0.7759	25.34	0.52	0.750			
0.0696	4457.06	4.1690	4.1690	0.7747	25.34	0.52	0.750			
0.0720	4606.06	4.1660	4.1659	0.7746	25.34	0.52	0.750			
0.0743	4755.46	4.1630	4.1629	0.7758	25.34	0.52	0.750			
0.0766	4905.37	4.1600	4.1600	0.7731	25.34	0.52	0.750			
0.0790	5053.52	4.1570	4.1570	0.7752	25.34	0.52	0.750			
0.0813	5201.66	4.1540	4.1540	0.7771	25.34	0.52	0.750			
0.0836	5348.69	4.1510	4.1510	0.7775	25.34	0.52	0.750			
0.0859	5498.78	4.1480	4.1481	0.7851	25.34	0.52	0.750			
0.0883	5653.29	4.1450	4.1449	0.7829	25.34	0.52	0.750			
0.0907	5803.05	4.1420	4.1420	0.7830	25.34	0.52	0.750			
0.0930	5953.94	4.1390	4.1391	0.7882	25.33	0.51	0.750			
0.0954	6103.70	4.1360	4.1360	0.7857	25.33	0.51	0.750			
0.0977	6253.66	4.1330	4.1328	0.7874	25.33	0.51	0.750			
0.1001	6405.07	4.1300	4.1301	0.7932	25.33	0.51	0.750			
0.1025	6559.16	4.1270	4.1270	0.7955	25.33	0.51	0.750			
0.1049	6713.99	4.1240	4.1240	0.7992	25.33	0.51	0.750			
0.1073	6865.98	4.1210	4.1210	0.7948	25.33	0.51	0.750			
0.1097	7018.52	4.1180	4.1180	0.7977	25.33	0.51	0.750			
0.1121	7171.59	4.1150	4.1150	0.8001	25.33	0.51	0.750			
0.1145	7325.12	4.1120	4.1119	0.7989	25.33	0.51	0.750			
0.1169	7478.80	4.1090	4.1091	0.8009	25.32	0.50	0.750			
0.1193	7632.80	4.1060	4.1060	0.8083	25.32	0.50	0.750			
0.1217	7788.11	4.1030	4.1029	0.8085	25.32	0.50	0.750			
0.1241	7942.79	4.1000	4.1000	0.8110	25.32	0.50	0.750			
0.1266	8099.87	4.0970	4.0970	0.8100	25.32	0.50	0.750			
0.1290	8256.76	4.0940	4.0940	0.8136	25.33	0.51	0.750			
0.1315	8413.13	4.0910	4.0909	0.8160	25.33	0.51	0.750			
0.1339	8568.05	4.0880	4.0881	0.8163	25.33	0.51	0.750			
0.1363	8724.31	4.0850	4.0850	0.8181	25.33	0.51	0.750			
0.1388	8883.48	4.0820	4.0819	0.8182	25.33	0.51	0.750			
0.1412	9039.60	4.0790	4.0790	0.8230	25.34	0.52	0.750			
0.1437	9198.54	4.0760	4.0760	0.8293	25.34	0.52	0.750			
0.1462	9357.17	4.0730	4.0730	0.8312	25.34	0.52	0.750			
0.1487	9517.22	4.0700	4.0701	0.8323	25.34	0.52	0.750			
0.1512	9679.32	4.0670	4.0670	0.8260	25.34	0.52	0.750			
0.1537	9837.53	4.0640	4.0640	0.8311	25.35	0.53	0.750			
0.1562	9996.49	4.0610	4.0611	0.8381	25.35	0.53	0.750			
0.1587	10154.80	4.0580	4.0580	0.8395	25.35	0.53	0.750			
0.1612	10316.66	4.0550	4.0551	0.8469	25.35	0.53	0.750			
0.1638	10481.36	4.0520	4.0521	0.8500	25.35	0.53	0.750			
0.1663	10645.55	4.0490	4.0490	0.8585	25.35	0.53	0.750			
0.1690	10813.29	4.0460	4.0460	0.8656	25.35	0.53	0.750			
0.1715	10977.64	4.0430	4.0429	0.8586	25.35	0.53	0.750			
0.1741	11142.12	4.0400	4.0400	0.8603	25.35	0.53	0.750			
0.1767	11307.28	4.0370	4.0371	0.8621	25.35	0.53	0.750			
0.1793	11473.38	4.0340	4.0340	0.8653	25.35	0.53	0.750			
0.1819	11640.23	4.0310	4.0310	0.8708	25.35	0.53	0.750			
0.1845	11805.69	4.0280	4.0279	0.8703	25.35	0.53	0.750			
0.1872	11977.81	4.0250	4.0250	0.8628	25.35	0.53	0.750			
0.1898	12145.67	4.0220	4.0220	0.8468	25.35	0.53	0.750			
0.1922	12301.43	4.0190	4.0192	0.8307	25.35	0.53	0.750			
0.1946	12455.82	4.0160	4.0164	0.8313	25.35	0.53	0.750			
0.1970	12609.35	4.0130	4.0122	0.8373	25.35	0.53	0.750			
0.1995	12769.18	4.0100	4.0101	0.8571	25.35	0.53	0.750			
0.2021	12934.82	4.0070	4.0073	0.8616	25.35	0.53	0.750			
0.2048	13105.67	4.0040	4.0041	0.8857	25.36	0.54	0.750			
0.2076	13286.05	4.0010	4.0011	0.9076	25.36	0.54	0.750			
0.2102	13453.49	3.9980	3.9975	0.8964	25.36	0.54	0.750			
0.2129	13626.56	3.9950	3.9951	0.9011	25.36	0.54	0.750			
0.2157	13801.66	3.9920	3.9921	0.9089	25.36	0.54	0.750			
0.2184	13978.95	3.9890	3.9890	0.9106	25.37	0.55	0.750			
0.2211	14153.15	3.9860	3.9860	0.9032	25.37	0.55	0.750			
0.2238	14326.38	3.9830	3.9831	0.9011	25.37	0.55	0.750			
0.2265	14499.19	3.9800	3.9799	0.8967	25.37	0.55	0.750			
0.2292	14670.99	3.9770	3.9771	0.8983	25.38	0.56	0.750			
0.2319	14840.44	3.9740	3.9741	0.9064	25.38	0.56	0.750			
0.2346	15013.76	3.9710	3.9704	0.9162	25.38	0.56	0.750			
0.2374	15196.00	3.9680	3.9680	0.9081	25.38	0.56	0.750			
0.2401	15369.47	3.9650	3.9650	0.9208	25.38	0.56	0.750			
0.2429	15547.62	3.9620	3.9622	0.9263	25.39	0.57	0.750			
0.2457	15726.97	3.9590	3.9592	0.9370	25.39	0.57	0.750			
0.2485	15904.06	3.9560	3.9560	0.9342	25.39	0.57	0.750			
0.2513	16083.91	3.9530	3.9531	0.9335	25.39	0.57	0.750			
0.2541	16264.06	3.9500	3.9501	0.9388	25.40	0.58	0.750			
0.2570	16446.72	3.9470	3.9470	0.9462	25.40	0.58	0.750			
0.2598	16627.17	3.9440	3.9439	0.9392	25.40	0.58	0.750			
0.2627	16813.25	3.9410	3.9409	0.9275	25.40	0.58	0.750			
0.2654	16987.36	3.9380	3.9381	0.9328	25.40	0.58	0.750			
0.2682	17166.04	3.9350	3.9351	0.9391	25.40	0.58	0.750			
0.2710	17345.89	3.9320	3.9322	0.9476	25.40	0.58	0.750			
0.2738	17525.81	3.9290	3.9290	0.9537	25.40	0.58	0.750			
0.2767	17709.67	3.9260	3.9261	0.9467	25.40	0.58	0.750			
0.2796	17893.05	3.9230	3.9232	0.9578	25.41	0.59	0.750			
0.2825	18078.58	3.9200	3.9201	0.9638	25.41	0.59	0.750			
0.2853	18261.79	3.9170	3.9167	0.9600	25.41	0.59	0.750			
0.2882	18445.05	3.9140	3.9142	0.9653	25.41	0.59	0.750			
0.2911	18631.55	3.9110	3.9111	0.9734	25.41	0.59	0.750			
0.2941	18822.30	3.9080	3.9080	0.9815	25.41	0.59	0.750			
0.2970	19010.35	3.9050	3.9048	0.9775	25.41	0.59	0.750			
0.3001	19206.02	3.9020	3.9020	0.9603	25.41	0.59	0.750			
0.3029	19387.50	3.8990	3.8991	0.9686	25.42	0.60	0.750			
0.3058	19568.76	3.8960	3.8961	0.9787	25.42	0.60	0.750			
0.3087	19756.87	3.8930	3.8932	0.9866	25.43	0.61	0.750			
0.3116	19945.37	3.8900	3.8902	0.9909	25.43	0.61	0.750			
0.3146	20135.75	3.8870	3.8872	0.9869	25.43	0.61	0.750			
0.3176	20327.25	3.8840	3.8842	0.9968	25.43	0.61	0.750			
0.3206	20521.12	3.8810	3.8811	1.0023	25.43	0.61	0.750			
0.3236	20710.77	3.8780	3.8782	0.9885	25.43	0.61	0.750			
0.3266	20900.85	3.8750	3.8751	0.9994	25.43	0.61	0.750			
0.3296	21095.59	3.8720	3.8721	1.0111	25.42	0.60	0.750			
0.3327	21291.93	3.8690	3.8690	1.0158	25.42	0.60	0.750			
0.3357	21486.28	3.8660	3.8660	1.0096	25.42	0.60	0.750			
0.3388	21680.63	3.8630	3.8630	1.0053	25.41	0.59	0.750			
0.3417	21872.00	3.8600	3.8601	1.0093	25.41	0.59	0.750			
0.3448	22064.77	3.8570	3.8571	1.0189	25.40	0.58	0.750			
0.3478	22258.84	3.8540	3.8536	1.0255	25.40	0.58	0.750			
0.3509	22457.40	3.8510	3.8512	1.0241	25.40	0.58	0.750			
0.3540	22654.45	3.8480	3.8482	1.0363	25.40	0.58	0.750			
0.3571	22857.29	3.8450	3.8451	1.0466	25.40	0.58	0.750			
0.3603	23060.63	3.8420	3.8418	1.0617	25.40	0.58	0.750			
0.3634	23256.35	3.8390	3.8392	1.0572	25.39	0.57	0.750			
0.3666	23460.65	3.8360	3.8361	1.0728	25.38	0.56	0.750			
0.3699	23670.46	3.8330	3.8328	1.0871	25.38	0.56	0.750	0.355	0.419	
0.3732	23886.90	3.8300	3.8299	1.0881	25.37	0.55	0.750			
0.3764	24089.06	3.8270	3.8270	1.0829	25.36	0.54	0.750			
0.3797	24297.88	3.8240	3.8242	1.0887	25.36	0.54	0.750			
0.3829	24505.69	3.8210	3.8210	1.0951	25.35	0.53	0.750			
0.3862	24719.28	3.8180	3.8180	1.0803	25.35	0.53	0.750			
0.3894	24924.54	3.8150	3.8150	1.0909	25.34	0.52	0.750			
0.3927	25134.88	3.8120	3.8122	1.1016	25.32	0.50	0.750			
0.3961	25347.48	3.8090	3.8091	1.1122	25.31	0.49	0.750			
0.3994	25558.73	3.8060	3.8061	1.1069	25.31	0.49	0.750			
0.4027	25771.92	3.8030	3.8030	1.1152	25.30	0.48	0.750			
0.4061	25987.36	3.8000	3.8001	1.1269	25.29	0.47	0.750			
0.4096	26215.38	3.7970	3.7968	1.1301	25.28	0.46	0.750			
0.4129	26423.23	3.7940	3.7941	1.1315	25.27	0.45	0.750			
0.4163	26640.30	3.7910	3.7911	1.1445	25.26	0.44	0.750			
0.4197	26857.91	3.7880	3.7881	1.1614	25.25	0.43	0.750			
0.4232	27085.13	3.7850	3.7847	1.1662	25.24	0.42	0.750			
0.4267	27309.18	3.7820	3.7822	1.1870	25.23	0.41	0.750			
0.4303	27539.22	3.7790	3.7792	1.2111	25.21	0.39	0.750			
0.4340	27776.54	3.7760	3.7758	1.2290	25.20	0.38	0.750			
0.4377	28010.35	3.7730	3.7730	1.2381	25.19	0.37	0.750			
0.4414	28249.68	3.7700	3.7701	1.2672	25.18	0.36	0.750			
0.4453	28496.29	3.7670	3.7670	1.2917	25.17	0.35	0.750			
0.4492	28749.66	3.7640	3.7640	1.3027	25.15	0.33	0.750			
0.4530	28992.27	3.7610	3.7611	1.3192	25.14	0.32	0.750			
0.4570	29244.93	3.7580	3.7583	1.3640	25.13	0.31	0.750			
0.4611	29507.56	3.7550	3.7547	1.3952	25.12	0.30	0.750			
0.4653	29777.08	3.7520	3.7522	1.4366	25.10	0.28	0.750			
0.4697	30060.20	3.7490	3.7493	1.4730	25.09	0.27	0.750			
0.4744	30359.56	3.7460	3.7461	1.5092	25.07	0.25	0.750			
0.4789	30648.96	3.7430	3.7431	1.5186	25.06	0.24	0.750			
0.4836	30949.33	3.7400	3.7399	1.5463	25.04	0.22	0.750			
0.4884	31255.73	3.7370	3.7371	1.5749	25.03	0.21	0.750			
0.4930	31552.61	3.7340	3.7337	1.5934	25.01	0.19	0.750			
0.4978	31857.27	3.7310	3.7309	1.6693	25.00	0.18	0.750			
0.5028	32177.13	3.7280	3.7282	1.7261	24.99	0.17	0.750			
0.5081	32517.19	3.7250	3.7255	1.8078	24.97	0.15	0.750			
0.5136	32867.66	3.7220	3.7215	1.8654	24.96	0.14	0.750			
0.5195	33244.84	3.7190	3.7188	1.9206	24.94	0.12	0.750			
0.5253	33619.86	3.7160	3.7159	1.9486	24.92	0.10	0.750			
0.5311	33992.45	3.7130	3.7131	2.0448	24.90	0.08	0.750			
0.5373	34384.98	3.7100	3.7098	2.0867	24.88	0.06	0.750			
0.5438	34803.96	3.7070	3.7072	2.1238	24.87	0.05	0.750			
0.5503	35222.08	3.7040	3.7043	2.2017	24.85	0.03	0.750			
0.5570	35649.94	3.7010	3.7006	2.2082	24.83	0.01	0.750			
0.5637	36075.71	3.6980	3.6978	2.2914	24.81	-0.01	0.750			
0.5708	36530.83	3.6950	3.6954	2.3458	24.80	-0.02	0.750			
0.5779	36985.45	3.6920	3.6923	2.4757	24.78	-0.04	0.750			
0.5858	37491.91	3.6890	3.6883	2.5410	24.76	-0.06	0.750			
0.5934	37979.23	3.6860	3.6859	2.6729	24.75	-0.07	0.750			
0.6016	38502.60	3.6830	3.6822	2.6415	24.73	-0.09	0.750			
0.6097	39020.16	3.6800	3.6796	2.7336	24.72	-0.10	0.750			
0.6182	39562.25	3.6770	3.6770	2.8894	24.71	-0.11	0.750			
0.6264	40091.92	3.6740	3.6738	2.9316	24.69	-0.13	0.750			
0.6356	40679.85	3.6710	3.6708	2.8574	24.68	-0.14	0.750			
0.6439	41212.32	3.6680	3.6683	2.9957	24.68	-0.14	0.750			
0.6527	41772.60	3.6650	3.6649	2.8236	24.68	-0.14	0.750			
0.6616	42341.32	3.6620	3.6624	2.8330	24.68	-0.14	0.750			
0.6696	42857.09	3.6590	3.6586	2.6064	24.70	-0.12	0.750			
0.6769	43323.11	3.6560	3.6563	2.3904	24.70	-0.12	0.750			
0.6835	43744.27	3.6530	3.6533	2.1770	24.71	-0.11	0.750			
0.6894	44124.11	3.6500	3.6497	1.9236	24.72	-0.10	0.750			
0.6948	44469.32	3.6470	3.6471	1.7195	24.73	-0.09	0.750			
0.6998	44788.37	3.6440	3.6444	1.5457	24.74	-0.08	0.750			
0.7041	45062.42	3.6410	3.6413	1.3596	24.75	-0.07	0.750			
0.7079	45306.98	3.6380	3.6382	1.2036	24.76	-0.06	0.750			
0.7112	45519.05	3.6350	3.6350	1.0771	24.76	-0.06	0.750			
0.7141	45702.88	3.6320	3.6319	0.9456	24.77	-0.05	0.750			
0.7167	45869.83	3.6290	3.6290	0.8927	24.78	-0.04	0.750			
0.7192	46029.78	3.6260	3.6261	0.8617	24.78	-0.04	0.750			
0.7217	46190.54	3.6230	3.6227	0.8353	24.79	-0.03	0.750			
0.7242	46351.42	3.6200	3.6201	0.8128	24.79	-0.03	0.750			
0.7267	46510.49	3.6170	3.6170	0.7773	24.80	-0.02	0.750			
0.7291	46659.70	3.6140	3.6142	0.7400	24.81	-0.01	0.750			
0.7313	46803.34	3.6110	3.6110	0.6918	24.81	-0.01	0.750			
0.7333	46929.58	3.6080	3.6081	0.6228	24.82	-0.00	0.750			
0.7350	47042.11	3.6050	3.6043	0.5525	24.82	0.00	0.750			
0.7366	47141.67	3.6020	3.6022	0.4834	24.82	0.00	0.750			
0.7379	47227.46	3.5990	3.5990	0.4134	24.83	0.01	0.750			
0.7391	47300.17	3.5960	3.5960	0.3479	24.83	0.01	0.750			
0.7400	47358.75	3.5930	3.5930	0.2746	24.83	0.01	0.750			
0.7407	47405.64	3.5900	3.5902	0.2119	24.83	0.01	0.750			
0.7412	47439.99	3.5870	3.5878	0.1480	24.84	0.02	0.750			
0.7416	47462.25	3.5840	3.5855	0.0847	24.84	0.02	0.750			
0.7418	47472.46	3.5810	3.5830	0.0232	24.84	0.02	0.750			
