Ah_balance (normalized)	Ah_balance (mAh)	Voltage - fit (V)	Voltage -  interpolate (V)	dQ/dV (1/V)	Temperature (°C)	Temperature - diff (°C)	Current (C)	R_DC 0ms (mOhm)	R_DC 50ms (mOhm)	R_DC 50 ms PEC (mOhm)
0.0493	3156.56	4.1960	4.1960	0.7635	25.77	0.47	0.750			
0.0515	3296.54	4.1930	4.1928	0.7403	25.77	0.47	0.750			
0.0537	3437.58	4.1900	4.1902	0.7427	25.77	0.47	0.750			
0.0559	3580.77	4.1870	4.1871	0.7457	25.77	0.47	0.750			
0.0582	3723.49	4.1840	4.1841	0.7498	25.77	0.47	0.750			
0.0605	3869.03	4.1810	4.1810	0.7516	25.77	0.47	0.750			
0.0627	4012.98	4.1780	4.1780	0.7511	25.77	0.47	0.750			
0.0650	4161.08	4.1750	4.1750	0.7622	25.77	0.47	0.750			
0.0672	4303.56	4.1720	4.1721	0.7582	25.77	0.47	0.750			
0.0695	4449.27	4.1690	4.1689	0.7594	25.77	0.47	0.750			
0.0718	4596.47	4.1660	4.1660	0.7613	25.77	0.47	0.750			
0.0741	4743.73	4.1630	4.1630	0.7562	25.78	0.48	0.750			
0.0764	4888.99	4.1600	4.1600	0.7599	25.78	0.48	0.750			
0.0787	5034.50	4.1570	4.1570	0.7625	25.79	0.49	0.750			
0.0809	5179.12	4.1540	4.1539	0.7586	25.79	0.49	0.750			
0.0832	5325.32	4.1510	4.1511	0.7614	25.79	0.49	0.750			
0.0855	5472.47	4.1480	4.1480	0.7643	25.79	0.49	0.750			
0.0878	5619.36	4.1450	4.1450	0.7600	25.79	0.49	0.750			
0.0901	5764.59	4.1420	4.1421	0.7677	25.79	0.49	0.750			
0.0923	5910.21	4.1390	4.1391	0.7686	25.79	0.49	0.750			
0.0947	6058.86	4.1360	4.1361	0.7719	25.79	0.49	0.750			
0.0970	6208.54	4.1330	4.1331	0.7764	25.79	0.49	0.750			
0.0993	6357.96	4.1300	4.1301	0.7785	25.80	0.50	0.750			
0.1017	6509.64	4.1270	4.1271	0.7835	25.80	0.50	0.750			
0.1040	6658.57	4.1240	4.1239	0.7762	25.81	0.51	0.750			
0.1064	6807.48	4.1210	4.1210	0.7760	25.81	0.51	0.750			
0.1087	6957.04	4.1180	4.1181	0.7772	25.81	0.51	0.750			
0.1111	7108.59	4.1150	4.1150	0.7692	25.81	0.51	0.750			
0.1134	7256.46	4.1120	4.1120	0.7721	25.81	0.51	0.750			
0.1157	7401.76	4.1090	4.1090	0.7764	25.81	0.51	0.750			
0.1180	7549.93	4.1060	4.1062	0.7827	25.81	0.51	0.750			
0.1203	7700.58	4.1030	4.1031	0.7888	25.81	0.51	0.750			
0.1227	7852.80	4.1000	4.1000	0.7933	25.82	0.52	0.750			
0.1251	8006.32	4.0970	4.0971	0.7875	25.82	0.52	0.750			
0.1275	8157.43	4.0940	4.0941	0.7891	25.82	0.52	0.750			
0.1298	8307.01	4.0910	4.0912	0.7932	25.83	0.53	0.750			
0.1322	8459.22	4.0880	4.0875	0.7957	25.83	0.53	0.750			
0.1346	8611.72	4.0850	4.0852	0.7988	25.83	0.53	0.750			
0.1370	8766.72	4.0820	4.0822	0.8066	25.83	0.53	0.750			
0.1395	8926.34	4.0790	4.0790	0.8119	25.83	0.53	0.750			
0.1419	9079.98	4.0760	4.0759	0.8028	25.83	0.53	0.750			
0.1443	9234.52	4.0730	4.0731	0.8066	25.83	0.53	0.750			
0.1467	9389.49	4.0700	4.0700	0.8054	25.83	0.53	0.750			
0.1492	9546.50	4.0670	4.0669	0.8058	25.84	0.54	0.750			
0.1516	9699.80	4.0640	4.0641	0.8043	25.84	0.54	0.750			
0.1539	9852.68	4.0610	4.0610	0.8081	25.85	0.55	0.750			
0.1564	10007.87	4.0580	4.0577	0.8139	25.85	0.55	0.750			
0.1588	10162.76	4.0550	4.0551	0.8147	25.85	0.55	0.750			
0.1613	10322.86	4.0520	4.0521	0.8080	25.85	0.55	0.750			
0.1637	10478.43	4.0490	4.0491	0.8249	25.86	0.56	0.750			
0.1662	10637.04	4.0460	4.0460	0.8286	25.86	0.56	0.750			
0.1687	10793.87	4.0430	4.0428	0.8294	25.86	0.56	0.750			
0.1712	10954.00	4.0400	4.0400	0.8336	25.86	0.56	0.750			
0.1737	11115.60	4.0370	4.0372	0.8353	25.86	0.56	0.750			
0.1762	11277.71	4.0340	4.0340	0.8388	25.87	0.57	0.750			
0.1787	11438.82	4.0310	4.0311	0.8360	25.87	0.57	0.750			
0.1812	11599.78	4.0280	4.0279	0.8373	25.87	0.57	0.750			
0.1838	11760.55	4.0250	4.0250	0.8394	25.87	0.57	0.750			
0.1863	11922.38	4.0220	4.0220	0.8349	25.87	0.57	0.750			
0.1888	12080.49	4.0190	4.0191	0.8447	25.88	0.58	0.750			
0.1913	12242.15	4.0160	4.0161	0.8483	25.88	0.58	0.750			
0.1938	12405.95	4.0130	4.0126	0.8518	25.88	0.58	0.750			
0.1964	12569.38	4.0100	4.0101	0.8583	25.88	0.58	0.750			
0.1990	12737.32	4.0070	4.0072	0.8559	25.88	0.58	0.750			
0.2016	12903.02	4.0040	4.0040	0.8609	25.89	0.59	0.750			
0.2041	13065.28	4.0010	4.0011	0.8555	25.89	0.59	0.750			
0.2067	13228.59	3.9980	3.9972	0.8644	25.89	0.59	0.750			
0.2093	13397.06	3.9950	3.9952	0.8669	25.89	0.59	0.750			
0.2119	13564.35	3.9920	3.9921	0.8721	25.89	0.59	0.750			
0.2146	13734.00	3.9890	3.9890	0.8795	25.89	0.59	0.750			
0.2173	13906.40	3.9860	3.9861	0.8853	25.89	0.59	0.750			
0.2198	14070.39	3.9830	3.9830	0.8756	25.89	0.59	0.750			
0.2225	14241.31	3.9800	3.9800	0.8647	25.90	0.60	0.750			
0.2251	14405.71	3.9770	3.9770	0.8681	25.90	0.60	0.750			
0.2277	14572.86	3.9740	3.9741	0.8719	25.90	0.60	0.750			
0.2303	14739.49	3.9710	3.9711	0.8719	25.91	0.61	0.750			
0.2329	14905.19	3.9680	3.9682	0.8764	25.91	0.61	0.750			
0.2356	15076.24	3.9650	3.9650	0.8742	25.91	0.61	0.750			
0.2382	15244.28	3.9620	3.9620	0.8802	25.91	0.61	0.750			
0.2409	15414.44	3.9590	3.9592	0.8863	25.91	0.61	0.750			
0.2435	15583.64	3.9560	3.9558	0.8847	25.91	0.61	0.750			
0.2462	15755.30	3.9530	3.9530	0.8875	25.91	0.61	0.750			
0.2488	15924.97	3.9500	3.9500	0.8894	25.91	0.61	0.750			
0.2515	16096.84	3.9470	3.9470	0.8907	25.91	0.61	0.750			
0.2542	16271.46	3.9440	3.9440	0.8978	25.91	0.61	0.750			
0.2569	16440.63	3.9410	3.9409	0.8901	25.91	0.61	0.750			
0.2596	16614.51	3.9380	3.9380	0.8768	25.91	0.61	0.750			
0.2622	16781.62	3.9350	3.9350	0.8744	25.91	0.61	0.750			
0.2648	16946.20	3.9320	3.9322	0.8752	25.90	0.60	0.750			
0.2674	17112.19	3.9290	3.9292	0.8801	25.90	0.60	0.750			
0.2700	17281.06	3.9260	3.9261	0.8860	25.90	0.60	0.750			
0.2727	17453.68	3.9230	3.9230	0.8769	25.90	0.60	0.750			
0.2754	17622.41	3.9200	3.9200	0.8841	25.90	0.60	0.750			
0.2780	17793.97	3.9170	3.9172	0.8890	25.90	0.60	0.750			
0.2807	17963.36	3.9140	3.9140	0.8851	25.90	0.60	0.750			
0.2833	18131.78	3.9110	3.9110	0.8871	25.90	0.60	0.750			
0.2860	18302.24	3.9080	3.9081	0.8834	25.90	0.60	0.750			
0.2887	18475.15	3.9050	3.9050	0.8900	25.89	0.59	0.750			
0.2914	18648.43	3.9020	3.9020	0.8964	25.89	0.59	0.750			
0.2940	18816.94	3.8990	3.8990	0.8879	25.89	0.59	0.750			
0.2967	18990.23	3.8960	3.8959	0.8793	25.89	0.59	0.750			
0.2993	19157.35	3.8930	3.8930	0.8830	25.88	0.58	0.750			
0.3020	19324.86	3.8900	3.8900	0.8863	25.88	0.58	0.750			
0.3046	19495.36	3.8870	3.8871	0.8932	25.87	0.57	0.750			
0.3073	19667.00	3.8840	3.8839	0.8945	25.87	0.57	0.750			
0.3101	19843.67	3.8810	3.8810	0.8790	25.86	0.56	0.750			
0.3127	20011.15	3.8780	3.8781	0.8870	25.86	0.56	0.750			
0.3153	20180.66	3.8750	3.8751	0.8910	25.86	0.56	0.750			
0.3180	20349.11	3.8720	3.8722	0.8906	25.85	0.55	0.750			
0.3206	20518.50	3.8690	3.8689	0.8947	25.85	0.55	0.750			
0.3233	20692.37	3.8660	3.8662	0.9004	25.84	0.54	0.750			
0.3261	20868.62	3.8630	3.8631	0.9125	25.83	0.53	0.750			
0.3289	21046.72	3.8600	3.8600	0.9140	25.82	0.52	0.750			
0.3316	21220.78	3.8570	3.8569	0.9077	25.81	0.51	0.750			
0.3343	21394.37	3.8540	3.8540	0.9123	25.80	0.50	0.750			
0.3370	21570.54	3.8510	3.8510	0.9051	25.79	0.49	0.750			
0.3397	21741.66	3.8480	3.8481	0.9116	25.78	0.48	0.750			
0.3424	21914.60	3.8450	3.8453	0.9244	25.78	0.48	0.750			
0.3452	22091.77	3.8420	3.8421	0.9314	25.77	0.47	0.750			
0.3480	22273.19	3.8390	3.8396	0.9329	25.76	0.46	0.750	0.299	0.434	
0.3508	22452.11	3.8360	3.8363	0.9429	25.76	0.46	0.750			
0.3537	22635.18	3.8330	3.8333	0.9564	25.75	0.45	0.750			
0.3566	22819.66	3.8300	3.8293	0.9654	25.75	0.45	0.750			
0.3594	23002.95	3.8270	3.8272	0.9596	25.74	0.44	0.750			
0.3624	23191.68	3.8240	3.8241	0.9741	25.73	0.43	0.750			
0.3654	23383.71	3.8210	3.8210	0.9898	25.72	0.42	0.750			
0.3684	23576.10	3.8180	3.8180	0.9977	25.71	0.41	0.750			
0.3713	23763.35	3.8150	3.8149	0.9782	25.70	0.40	0.750			
0.3742	23949.79	3.8120	3.8121	0.9852	25.69	0.39	0.750			
0.3771	24136.64	3.8090	3.8091	0.9967	25.68	0.38	0.750			
0.3801	24329.18	3.8060	3.8061	1.0113	25.67	0.37	0.750			
0.3833	24530.57	3.8030	3.8030	1.0066	25.66	0.36	0.750			
0.3863	24720.72	3.8000	3.8001	1.0288	25.66	0.36	0.750			
0.3894	24919.30	3.7970	3.7972	1.0506	25.65	0.35	0.750			
0.3925	25122.58	3.7940	3.7941	1.0716	25.64	0.34	0.750			
0.3957	25327.20	3.7910	3.7912	1.0848	25.62	0.32	0.750			
0.3990	25538.10	3.7880	3.7882	1.1048	25.61	0.31	0.750			
0.4024	25754.65	3.7850	3.7850	1.1296	25.60	0.30	0.750			
0.4059	25978.88	3.7820	3.7819	1.1367	25.59	0.29	0.750			
0.4093	26193.20	3.7790	3.7791	1.1442	25.58	0.28	0.750			
0.4127	26414.76	3.7760	3.7760	1.1700	25.57	0.27	0.750			
0.4162	26639.37	3.7730	3.7730	1.1920	25.56	0.26	0.750			
0.4199	26875.91	3.7700	3.7698	1.1878	25.55	0.25	0.750			
0.4235	27101.41	3.7670	3.7672	1.2296	25.54	0.24	0.750			
0.4272	27339.20	3.7640	3.7642	1.2607	25.52	0.22	0.750			
0.4310	27584.96	3.7610	3.7606	1.2953	25.51	0.21	0.750			
0.4349	27833.81	3.7580	3.7582	1.3192	25.50	0.20	0.750			
0.4389	28090.82	3.7550	3.7551	1.3552	25.49	0.19	0.750			
0.4431	28359.49	3.7520	3.7520	1.3753	25.47	0.17	0.750			
0.4473	28626.68	3.7490	3.7490	1.3942	25.46	0.16	0.750			
0.4515	28897.78	3.7460	3.7461	1.4068	25.45	0.15	0.750			
0.4559	29174.50	3.7430	3.7427	1.4152	25.43	0.13	0.750			
0.4601	29445.34	3.7400	3.7402	1.4433	25.42	0.12	0.750			
0.4643	29715.77	3.7370	3.7367	1.5125	25.41	0.11	0.750			
0.4689	30008.57	3.7340	3.7335	1.5705	25.39	0.09	0.750			
0.4737	30318.26	3.7310	3.7314	1.6311	25.38	0.08	0.750			
0.4787	30639.82	3.7280	3.7285	1.6813	25.37	0.07	0.750			
0.4837	30955.53	3.7250	3.7249	1.7744	25.36	0.06	0.750			
0.4892	31309.45	3.7220	3.7217	1.8680	25.35	0.05	0.750			
0.4949	31675.07	3.7190	3.7189	1.9612	25.33	0.03	0.750			
0.5011	32067.71	3.7160	3.7161	2.0230	25.31	0.01	0.750			
0.5074	32474.94	3.7130	3.7132	2.0770	25.30	-0.00	0.750			
0.5137	32874.73	3.7100	3.7098	2.0745	25.28	-0.02	0.750			
0.5197	33261.76	3.7070	3.7069	2.0690	25.27	-0.03	0.750			
0.5260	33664.44	3.7040	3.7038	2.1216	25.24	-0.06	0.750			
0.5325	34079.32	3.7010	3.7009	2.1621	25.22	-0.08	0.750			
0.5389	34491.98	3.6980	3.6981	2.2011	25.21	-0.09	0.750			
0.5456	34918.63	3.6950	3.6951	2.2583	25.20	-0.10	0.750			
0.5525	35357.85	3.6920	3.6918	2.3202	25.19	-0.11	0.750			
0.5595	35809.00	3.6890	3.6889	2.3907	25.18	-0.12	0.750			
0.5668	36276.58	3.6860	3.6861	2.4283	25.17	-0.13	0.750			
0.5742	36748.77	3.6830	3.6830	2.4566	25.16	-0.14	0.750			
0.5817	37230.39	3.6800	3.6797	2.4707	25.15	-0.15	0.750			
0.5891	37705.51	3.6770	3.6770	2.4587	25.14	-0.16	0.750			
0.5967	38185.97	3.6740	3.6742	2.3780	25.14	-0.16	0.750			
0.6037	38634.03	3.6710	3.6711	2.2309	25.15	-0.15	0.750			
0.6102	39049.82	3.6680	3.6677	2.1223	25.16	-0.14	0.750			
0.6162	39439.15	3.6650	3.6650	1.9875	25.17	-0.13	0.750			
0.6221	39811.81	3.6620	3.6621	1.8628	25.17	-0.13	0.750			
0.6275	40162.07	3.6590	3.6590	1.7330	25.18	-0.12	0.750			
0.6325	40480.42	3.6560	3.6561	1.5999	25.18	-0.12	0.750			
0.6372	40779.43	3.6530	3.6530	1.4861	25.19	-0.11	0.750			
0.6413	41044.77	3.6500	3.6501	1.3772	25.20	-0.10	0.750			
0.6453	41296.60	3.6470	3.6469	1.2631	25.20	-0.10	0.750			
0.6488	41525.76	3.6440	3.6440	1.2001	25.20	-0.10	0.750			
0.6523	41745.65	3.6410	3.6411	1.1362	25.20	-0.10	0.750			
0.6556	41957.43	3.6380	3.6380	1.0912	25.20	-0.10	0.750			
0.6588	42161.82	3.6350	3.6350	1.0400	25.20	-0.10	0.750			
0.6618	42355.46	3.6320	3.6321	1.0027	25.21	-0.09	0.750			
0.6648	42544.63	3.6290	3.6291	0.9703	25.21	-0.09	0.750			
0.6676	42729.20	3.6260	3.6260	0.9308	25.22	-0.08	0.750			
0.6705	42910.06	3.6230	3.6230	0.8788	25.22	-0.08	0.750			
0.6731	43075.47	3.6200	3.6200	0.8469	25.23	-0.07	0.750			
0.6755	43231.73	3.6170	3.6172	0.8115	25.24	-0.06	0.750			
0.6779	43384.40	3.6140	3.6142	0.7741	25.24	-0.06	0.750			
0.6801	43527.85	3.6110	3.6098	0.7296	25.25	-0.05	0.750			
0.6823	43665.70	3.6080	3.6083	0.6810	25.25	-0.05	0.750			
0.6843	43793.35	3.6050	3.6051	0.6335	25.26	-0.04	0.750			
0.6861	43913.07	3.6020	3.6021	0.5831	25.27	-0.03	0.750			
0.6878	44019.17	3.5990	3.5990	0.5241	25.27	-0.03	0.750			
0.6893	44114.14	3.5960	3.5960	0.4706	25.28	-0.02	0.750			
0.6906	44199.64	3.5930	3.5929	0.4214	25.29	-0.01	0.750			
0.6918	44275.08	3.5900	3.5900	0.3747	25.29	-0.01	0.750			
0.6929	44344.69	3.5870	3.5870	0.3269	25.29	-0.01	0.750			
0.6938	44403.16	3.5840	3.5839	0.2781	25.30	-0.00	0.750			
0.6946	44451.86	3.5810	3.5809	0.2265	25.30	0.00	0.750			
0.6952	44490.31	3.5780	3.5783	0.1734	25.30	0.00	0.750			
0.6956	44520.39	3.5750	3.5755	0.1203	25.31	0.01	0.750			
0.6959	44540.45	3.5720	3.5728	0.0565	25.31	0.01	0.750			
0.6960	44545.07	3.5690	3.5678	-0.0099	25.31	0.01	0.750			
