Ah_balance (normalized)	Ah_balance (mAh)	Voltage - fit (V)	Voltage -  interpolate (V)	dQ/dV (1/V)	Temperature (°C)	Temperature - diff (°C)	Current (C)	R_DC 0ms (mOhm)	R_DC 50ms (mOhm)	R_DC 50 ms PEC (mOhm)
0.0477	3050.71	4.1980	4.1979	0.7420	25.35	0.47	0.750			
0.0499	3194.67	4.1950	4.1950	0.7518	25.35	0.47	0.750			
0.0522	3340.01	4.1920	4.1920	0.7556	25.35	0.47	0.750			
0.0545	3485.56	4.1890	4.1890	0.7563	25.35	0.47	0.750			
0.0567	3631.99	4.1860	4.1860	0.7573	25.35	0.47	0.750			
0.0590	3778.87	4.1830	4.1830	0.7471	25.35	0.47	0.750			
0.0613	3920.16	4.1800	4.1800	0.7488	25.35	0.47	0.750			
0.0635	4062.18	4.1770	4.1771	0.7531	25.35	0.47	0.750			
0.0657	4206.08	4.1740	4.1739	0.7566	25.35	0.47	0.750			
0.0680	4351.52	4.1710	4.1711	0.7623	25.35	0.47	0.750			
0.0703	4499.08	4.1680	4.1681	0.7688	25.35	0.47	0.750			
0.0726	4648.42	4.1650	4.1650	0.7643	25.35	0.47	0.750			
0.0749	4796.74	4.1620	4.1620	0.7702	25.36	0.48	0.750			
0.0772	4941.74	4.1590	4.1591	0.7653	25.36	0.48	0.750			
0.0795	5088.59	4.1560	4.1560	0.7657	25.36	0.48	0.750			
0.0818	5235.51	4.1530	4.1531	0.7665	25.36	0.48	0.750			
0.0841	5383.03	4.1500	4.1501	0.7688	25.36	0.48	0.750			
0.0864	5532.29	4.1470	4.1470	0.7732	25.37	0.49	0.750			
0.0887	5679.77	4.1440	4.1440	0.7698	25.37	0.49	0.750			
0.0911	5827.95	4.1410	4.1411	0.7700	25.37	0.49	0.750			
0.0934	5975.94	4.1380	4.1380	0.7730	25.37	0.49	0.750			
0.0957	6126.78	4.1350	4.1350	0.7696	25.37	0.49	0.750			
0.0980	6273.44	4.1320	4.1319	0.7738	25.37	0.49	0.750			
0.1003	6421.16	4.1290	4.1290	0.7774	25.37	0.49	0.750			
0.1027	6571.13	4.1260	4.1262	0.7804	25.37	0.49	0.750			
0.1050	6721.76	4.1230	4.1231	0.7826	25.37	0.49	0.750			
0.1074	6872.77	4.1200	4.1201	0.7838	25.36	0.48	0.750			
0.1098	7024.49	4.1170	4.1170	0.7717	25.36	0.48	0.750			
0.1120	7170.13	4.1140	4.1141	0.7773	25.36	0.48	0.750			
0.1143	7316.78	4.1110	4.1111	0.7771	25.35	0.47	0.750			
0.1167	7465.63	4.1080	4.1073	0.7845	25.35	0.47	0.750			
0.1190	7616.93	4.1050	4.1052	0.7929	25.35	0.47	0.750			
0.1214	7770.26	4.1020	4.1021	0.8026	25.35	0.47	0.750			
0.1239	7929.15	4.0990	4.0990	0.8153	25.35	0.47	0.750			
0.1263	8085.29	4.0960	4.0960	0.8087	25.35	0.47	0.750			
0.1288	8242.13	4.0930	4.0930	0.8117	25.35	0.47	0.750			
0.1312	8399.93	4.0900	4.0901	0.8104	25.35	0.47	0.750			
0.1337	8557.00	4.0870	4.0870	0.7998	25.35	0.47	0.750			
0.1361	8708.72	4.0840	4.0840	0.8028	25.35	0.47	0.750			
0.1385	8860.89	4.0810	4.0810	0.8024	25.35	0.47	0.750			
0.1408	9013.43	4.0780	4.0779	0.8026	25.35	0.47	0.750			
0.1432	9167.92	4.0750	4.0751	0.8071	25.35	0.47	0.750			
0.1457	9326.97	4.0720	4.0720	0.8023	25.35	0.47	0.750			
0.1481	9480.22	4.0690	4.0690	0.8096	25.36	0.48	0.750			
0.1505	9635.03	4.0660	4.0661	0.8187	25.36	0.48	0.750			
0.1530	9789.82	4.0630	4.0631	0.8182	25.36	0.48	0.750			
0.1554	9948.46	4.0600	4.0601	0.8226	25.36	0.48	0.750			
0.1579	10107.27	4.0570	4.0571	0.8282	25.36	0.48	0.750			
0.1604	10267.45	4.0540	4.0541	0.8316	25.36	0.48	0.750			
0.1630	10431.07	4.0510	4.0509	0.8364	25.36	0.48	0.750			
0.1654	10587.37	4.0480	4.0480	0.8289	25.36	0.48	0.750			
0.1679	10746.89	4.0450	4.0450	0.8341	25.36	0.48	0.750			
0.1705	10909.73	4.0420	4.0420	0.8306	25.36	0.48	0.750			
0.1729	11067.81	4.0390	4.0389	0.8349	25.37	0.49	0.750			
0.1754	11226.58	4.0360	4.0361	0.8387	25.37	0.49	0.750			
0.1779	11387.77	4.0330	4.0330	0.8419	25.37	0.49	0.750			
0.1805	11550.61	4.0300	4.0300	0.8443	25.37	0.49	0.750			
0.1830	11714.44	4.0270	4.0270	0.8392	25.37	0.49	0.750			
0.1855	11874.55	4.0240	4.0242	0.8464	25.37	0.49	0.750			
0.1881	12039.51	4.0210	4.0210	0.8548	25.37	0.49	0.750			
0.1906	12199.62	4.0180	4.0180	0.8514	25.37	0.49	0.750			
0.1932	12364.39	4.0150	4.0151	0.8595	25.37	0.49	0.750			
0.1958	12531.59	4.0120	4.0120	0.8637	25.37	0.49	0.750			
0.1984	12698.98	4.0090	4.0091	0.8663	25.38	0.50	0.750			
0.2011	12867.64	4.0060	4.0060	0.8716	25.38	0.50	0.750			
0.2036	13031.45	4.0030	4.0030	0.8668	25.38	0.50	0.750			
0.2062	13197.73	4.0000	4.0000	0.8685	25.38	0.50	0.750			
0.2088	13364.17	3.9970	3.9970	0.8677	25.38	0.50	0.750			
0.2114	13530.30	3.9940	3.9941	0.8740	25.38	0.50	0.750			
0.2140	13698.20	3.9910	3.9910	0.8792	25.38	0.50	0.750			
0.2167	13867.24	3.9880	3.9877	0.8814	25.38	0.50	0.750			
0.2193	14038.37	3.9850	3.9851	0.8773	25.38	0.50	0.750			
0.2220	14207.24	3.9820	3.9820	0.8801	25.38	0.50	0.750			
0.2247	14378.06	3.9790	3.9792	0.8821	25.38	0.50	0.750			
0.2273	14544.92	3.9760	3.9761	0.8792	25.38	0.50	0.750			
0.2299	14713.33	3.9730	3.9731	0.8807	25.38	0.50	0.750			
0.2326	14883.55	3.9700	3.9699	0.8858	25.38	0.50	0.750			
0.2352	15054.22	3.9670	3.9670	0.8894	25.38	0.50	0.750			
0.2379	15225.74	3.9640	3.9641	0.8926	25.39	0.51	0.750			
0.2406	15396.54	3.9610	3.9609	0.8961	25.39	0.51	0.750			
0.2433	15569.99	3.9580	3.9580	0.8989	25.39	0.51	0.750			
0.2460	15741.49	3.9550	3.9550	0.8940	25.39	0.51	0.750			
0.2486	15912.66	3.9520	3.9521	0.9017	25.40	0.52	0.750			
0.2513	16086.39	3.9490	3.9491	0.9046	25.40	0.52	0.750			
0.2541	16260.45	3.9460	3.9457	0.9072	25.40	0.52	0.750			
0.2569	16438.66	3.9430	3.9430	0.8938	25.40	0.52	0.750			
0.2595	16607.57	3.9400	3.9401	0.8977	25.40	0.52	0.750			
0.2622	16780.64	3.9370	3.9371	0.9041	25.40	0.52	0.750			
0.2649	16952.01	3.9340	3.9341	0.9030	25.40	0.52	0.750			
0.2676	17123.22	3.9310	3.9309	0.9070	25.40	0.52	0.750			
0.2703	17300.17	3.9280	3.9281	0.9145	25.40	0.52	0.750			
0.2731	17478.75	3.9250	3.9251	0.9201	25.40	0.52	0.750			
0.2759	17658.42	3.9220	3.9220	0.9186	25.40	0.52	0.750			
0.2786	17832.31	3.9190	3.9190	0.9090	25.40	0.52	0.750			
0.2814	18007.30	3.9160	3.9160	0.9060	25.40	0.52	0.750			
0.2841	18180.39	3.9130	3.9129	0.9087	25.40	0.52	0.750			
0.2868	18353.70	3.9100	3.9100	0.9094	25.39	0.51	0.750			
0.2895	18528.94	3.9070	3.9071	0.9132	25.39	0.51	0.750			
0.2923	18705.97	3.9040	3.9040	0.9154	25.39	0.51	0.750			
0.2951	18885.16	3.9010	3.9009	0.8999	25.39	0.51	0.750			
0.2977	19055.21	3.8980	3.8981	0.9042	25.39	0.51	0.750			
0.3004	19227.62	3.8950	3.8951	0.9106	25.38	0.50	0.750			
0.3031	19400.13	3.8920	3.8919	0.9118	25.38	0.50	0.750			
0.3059	19576.46	3.8890	3.8891	0.9192	25.38	0.50	0.750			
0.3086	19753.09	3.8860	3.8861	0.9279	25.38	0.50	0.750			
0.3115	19934.76	3.8830	3.8830	0.9300	25.37	0.49	0.750			
0.3144	20118.76	3.8800	3.8799	0.9354	25.37	0.49	0.750			
0.3171	20294.17	3.8770	3.8770	0.9241	25.37	0.49	0.750			
0.3199	20472.79	3.8740	3.8740	0.9156	25.36	0.48	0.750			
0.3226	20646.62	3.8710	3.8710	0.9170	25.36	0.48	0.750			
0.3253	20821.73	3.8680	3.8681	0.9186	25.36	0.48	0.750			
0.3281	20996.76	3.8650	3.8648	0.9190	25.35	0.47	0.750			
0.3308	21173.81	3.8620	3.8620	0.9278	25.35	0.47	0.750			
0.3336	21352.11	3.8590	3.8591	0.9201	25.34	0.46	0.750			
0.3364	21527.97	3.8560	3.8561	0.9264	25.33	0.45	0.750			
0.3392	21707.08	3.8530	3.8531	0.9360	25.33	0.45	0.750			
0.3419	21884.71	3.8500	3.8496	0.9393	25.32	0.44	0.750			
0.3448	22068.16	3.8470	3.8470	0.9320	25.31	0.43	0.750			
0.3476	22246.75	3.8440	3.8442	0.9441	25.30	0.42	0.750			
0.3504	22428.67	3.8410	3.8410	0.9569	25.29	0.41	0.750			
0.3533	22613.56	3.8380	3.8379	0.9518	25.28	0.40	0.750			
0.3562	22799.50	3.8350	3.8351	0.9426	25.28	0.40	0.750	0.309	0.429	
0.3590	22979.03	3.8320	3.8322	0.9465	25.27	0.39	0.750			
0.3619	23160.50	3.8290	3.8292	0.9555	25.27	0.39	0.750			
0.3647	23343.52	3.8260	3.8260	0.9685	25.26	0.38	0.750			
0.3676	23524.36	3.8230	3.8229	0.9700	25.26	0.38	0.750			
0.3705	23712.77	3.8200	3.8201	0.9733	25.25	0.37	0.750			
0.3735	23904.59	3.8170	3.8171	0.9945	25.24	0.36	0.750			
0.3765	24096.94	3.8140	3.8142	1.0053	25.23	0.35	0.750			
0.3795	24289.80	3.8110	3.8111	1.0096	25.22	0.34	0.750			
0.3825	24482.30	3.8080	3.8081	1.0179	25.21	0.33	0.750			
0.3856	24680.43	3.8050	3.8050	1.0347	25.20	0.32	0.750			
0.3888	24883.03	3.8020	3.8020	1.0511	25.19	0.31	0.750			
0.3920	25087.25	3.7990	3.7989	1.0517	25.18	0.30	0.750			
0.3951	25289.41	3.7960	3.7961	1.0639	25.17	0.29	0.750			
0.3983	25493.53	3.7930	3.7930	1.0783	25.16	0.28	0.750			
0.4016	25701.35	3.7900	3.7901	1.0934	25.15	0.27	0.750			
0.4049	25910.91	3.7870	3.7871	1.1095	25.14	0.26	0.750			
0.4082	26121.67	3.7840	3.7841	1.1154	25.13	0.25	0.750			
0.4115	26336.62	3.7810	3.7811	1.1379	25.12	0.24	0.750			
0.4150	26557.34	3.7780	3.7782	1.1622	25.11	0.23	0.750			
0.4185	26780.97	3.7750	3.7752	1.1848	25.11	0.23	0.750			
0.4221	27011.97	3.7720	3.7723	1.2121	25.10	0.22	0.750			
0.4258	27250.41	3.7690	3.7691	1.2421	25.09	0.21	0.750			
0.4296	27496.94	3.7660	3.7659	1.2636	25.08	0.20	0.750			
0.4333	27732.28	3.7630	3.7631	1.2677	25.07	0.19	0.750			
0.4372	27977.70	3.7600	3.7601	1.3038	25.05	0.17	0.750			
0.4412	28236.79	3.7570	3.7564	1.3069	25.04	0.16	0.750			
0.4451	28484.60	3.7540	3.7541	1.3407	25.03	0.15	0.750			
0.4491	28743.48	3.7510	3.7512	1.3814	25.02	0.14	0.750			
0.4534	29018.22	3.7480	3.7476	1.4064	25.00	0.12	0.750			
0.4577	29295.63	3.7450	3.7450	1.4401	24.99	0.11	0.750			
0.4620	29565.94	3.7420	3.7422	1.4653	24.97	0.09	0.750			
0.4665	29856.47	3.7390	3.7391	1.4985	24.96	0.08	0.750			
0.4712	30159.60	3.7360	3.7361	1.5499	24.94	0.06	0.750			
0.4758	30448.66	3.7330	3.7331	1.5583	24.93	0.05	0.750			
0.4805	30749.79	3.7300	3.7305	1.6284	24.92	0.04	0.750			
0.4855	31069.16	3.7270	3.7272	1.6803	24.90	0.02	0.750			
0.4905	31391.43	3.7240	3.7242	1.7409	24.89	0.01	0.750			
0.4958	31730.25	3.7210	3.7209	1.7941	24.88	-0.00	0.750			
0.5013	32082.46	3.7180	3.7175	1.8915	24.87	-0.01	0.750			
0.5070	32449.02	3.7150	3.7150	1.9206	24.85	-0.03	0.750			
0.5128	32821.87	3.7120	3.7121	1.9616	24.83	-0.05	0.750			
0.5188	33201.55	3.7090	3.7088	1.9927	24.82	-0.06	0.750			
0.5246	33572.39	3.7060	3.7056	2.0159	24.81	-0.07	0.750			
0.5307	33966.27	3.7030	3.7031	2.0736	24.80	-0.08	0.750			
0.5371	34375.74	3.7000	3.7004	2.2249	24.78	-0.10	0.750			
0.5441	34823.48	3.6970	3.6969	2.2963	24.76	-0.12	0.750			
0.5509	35255.76	3.6940	3.6943	2.3281	24.75	-0.13	0.750			
0.5579	35704.28	3.6910	3.6908	2.4344	24.74	-0.14	0.750			
0.5651	36164.33	3.6880	3.6882	2.4815	24.73	-0.15	0.750			
0.5721	36613.17	3.6850	3.6846	2.5022	24.73	-0.15	0.750			
0.5798	37110.11	3.6820	3.6819	2.6900	24.72	-0.16	0.750			
0.5876	37607.68	3.6790	3.6792	2.6450	24.71	-0.17	0.750			
0.5958	38133.79	3.6760	3.6761	2.7243	24.70	-0.18	0.750			
0.6034	38615.42	3.6730	3.6729	2.6249	24.70	-0.18	0.750			
0.6110	39105.37	3.6700	3.6706	2.6091	24.70	-0.18	0.750			
0.6186	39588.15	3.6670	3.6667	2.4498	24.70	-0.18	0.750			
0.6261	40073.40	3.6640	3.6646	2.3367	24.72	-0.16	0.750			
0.6327	40491.29	3.6610	3.6606	2.1289	24.73	-0.15	0.750			
0.6387	40874.95	3.6580	3.6578	1.9662	24.74	-0.14	0.750			
0.6443	41233.92	3.6550	3.6547	1.8192	24.74	-0.14	0.750			
0.6492	41546.56	3.6520	3.6517	1.6690	24.75	-0.13	0.750			
0.6540	41858.53	3.6490	3.6493	1.5679	24.76	-0.12	0.750			
0.6588	42161.08	3.6460	3.6450	1.4758	24.77	-0.11	0.750			
0.6630	42428.88	3.6430	3.6436	1.3572	24.77	-0.11	0.750			
0.6669	42680.24	3.6400	3.6402	1.2357	24.78	-0.10	0.750			
0.6705	42913.17	3.6370	3.6371	1.1535	24.79	-0.09	0.750			
0.6737	43115.60	3.6340	3.6340	1.0421	24.80	-0.08	0.750			
0.6767	43307.71	3.6310	3.6312	1.0014	24.80	-0.08	0.750			
0.6796	43493.31	3.6280	3.6277	0.9608	24.81	-0.07	0.750			
0.6824	43675.16	3.6250	3.6250	0.9326	24.82	-0.06	0.750			
0.6852	43853.27	3.6220	3.6221	0.9034	24.82	-0.06	0.750			
0.6879	44027.41	3.6190	3.6190	0.8735	24.83	-0.05	0.750			
0.6905	44193.86	3.6160	3.6159	0.8255	24.84	-0.04	0.750			
0.6930	44349.01	3.6130	3.6131	0.7796	24.84	-0.04	0.750			
0.6952	44495.20	3.6100	3.6100	0.7260	24.85	-0.03	0.750			
0.6974	44631.27	3.6070	3.6070	0.6696	24.86	-0.02	0.750			
0.6993	44755.02	3.6040	3.6039	0.6053	24.87	-0.01	0.750			
0.7010	44863.08	3.6010	3.6011	0.5461	24.87	-0.01	0.750			
0.7025	44961.30	3.5980	3.5981	0.4905	24.88	-0.00	0.750			
0.7039	45049.06	3.5950	3.5945	0.4391	24.88	-0.00	0.750			
0.7051	45127.62	3.5920	3.5921	0.3847	24.88	0.00	0.750			
0.7062	45197.76	3.5890	3.5890	0.3371	24.89	0.01	0.750			
0.7072	45259.69	3.5860	3.5860	0.2926	24.89	0.01	0.750			
0.7080	45312.47	3.5830	3.5831	0.2410	24.89	0.01	0.750			
0.7086	45349.51	3.5800	3.5806	0.1871	24.89	0.01	0.750			
0.7091	45382.01	3.5770	3.5776	0.1365	24.90	0.02	0.750			
0.7094	45403.26	3.5740	3.5751	0.0871	24.90	0.02	0.750			
