Ah_balance (normalized)	Ah_balance (mAh)	Voltage - fit (V)	Voltage -  interpolate (V)	dQ/dV (1/V)	Temperature (°C)	Temperature - diff (°C)	Current (C)	R_DC 0ms (mOhm)	R_DC 50ms (mOhm)	R_DC 50 ms PEC (mOhm)
0.0521	3336.55	4.1960	4.1977	1.5363	24.80	1.16	0.704			
0.0561	3592.32	4.1930	4.1944	1.2733	24.80	1.16	0.751			
0.0593	3794.26	4.1900	4.1904	0.9848	24.79	1.15	0.751			
0.0619	3959.99	4.1870	4.1870	0.7782	24.79	1.15	0.751			
0.0642	4108.19	4.1840	4.1840	0.7774	24.78	1.14	0.750			
0.0665	4256.69	4.1810	4.1811	0.7786	24.78	1.14	0.750			
0.0689	4406.61	4.1780	4.1781	0.7829	24.77	1.13	0.750			
0.0712	4558.70	4.1750	4.1750	0.7811	24.77	1.13	0.750			
0.0736	4707.45	4.1720	4.1720	0.7833	24.76	1.12	0.750			
0.0759	4856.21	4.1690	4.1691	0.7859	24.76	1.12	0.750			
0.0782	5007.88	4.1660	4.1657	0.7877	24.75	1.11	0.750			
0.0806	5159.66	4.1630	4.1630	0.7903	24.74	1.10	0.750			
0.0830	5312.00	4.1600	4.1601	0.7943	24.74	1.10	0.750			
0.0854	5466.07	4.1570	4.1570	0.7988	24.73	1.09	0.750			
0.0878	5619.05	4.1540	4.1540	0.7982	24.73	1.09	0.750			
0.0902	5772.97	4.1510	4.1510	0.7995	24.72	1.08	0.750			
0.0926	5926.67	4.1480	4.1480	0.7975	24.72	1.08	0.750			
0.0950	6082.28	4.1450	4.1450	0.7944	24.72	1.08	0.750			
0.0974	6232.74	4.1420	4.1421	0.7978	24.71	1.07	0.750			
0.0998	6384.75	4.1390	4.1390	0.7990	24.71	1.07	0.750			
0.1021	6537.40	4.1360	4.1360	0.8010	24.71	1.07	0.750			
0.1046	6691.27	4.1330	4.1330	0.8052	24.71	1.07	0.750			
0.1070	6851.06	4.1300	4.1300	0.8030	24.70	1.06	0.750			
0.1094	7003.50	4.1270	4.1270	0.8080	24.70	1.06	0.750			
0.1118	7157.94	4.1240	4.1241	0.8134	24.69	1.05	0.750			
0.1142	7311.42	4.1210	4.1211	0.8143	24.68	1.04	0.750			
0.1167	7468.71	4.1180	4.1179	0.8193	24.68	1.04	0.750			
0.1192	7628.66	4.1150	4.1151	0.8195	24.67	1.03	0.750			
0.1217	7787.62	4.1120	4.1120	0.8247	24.67	1.03	0.750			
0.1242	7946.71	4.1090	4.1091	0.8271	24.67	1.03	0.750			
0.1266	8103.33	4.1060	4.1061	0.8234	24.66	1.02	0.750			
0.1291	8260.59	4.1030	4.1030	0.8258	24.66	1.02	0.750			
0.1316	8421.41	4.1000	4.1000	0.8247	24.65	1.01	0.750			
0.1341	8580.19	4.0970	4.0970	0.8307	24.65	1.01	0.750			
0.1366	8739.86	4.0940	4.0941	0.8320	24.65	1.01	0.750			
0.1391	8899.35	4.0910	4.0910	0.8316	24.64	1.00	0.750			
0.1415	9057.83	4.0880	4.0879	0.8338	24.64	1.00	0.750			
0.1440	9218.62	4.0850	4.0851	0.8397	24.63	0.99	0.750			
0.1466	9381.05	4.0820	4.0820	0.8334	24.63	0.99	0.750			
0.1491	9539.42	4.0790	4.0791	0.8410	24.62	0.98	0.750			
0.1515	9699.10	4.0760	4.0762	0.8434	24.61	0.97	0.750			
0.1541	9861.91	4.0730	4.0731	0.8487	24.61	0.97	0.750			
0.1567	10026.08	4.0700	4.0701	0.8544	24.61	0.97	0.750			
0.1592	10191.17	4.0670	4.0671	0.8595	24.61	0.97	0.750			
0.1619	10358.73	4.0640	4.0640	0.8658	24.60	0.96	0.750			
0.1644	10524.55	4.0610	4.0610	0.8614	24.60	0.96	0.750			
0.1670	10690.51	4.0580	4.0580	0.8634	24.60	0.96	0.750			
0.1697	10857.90	4.0550	4.0550	0.8623	24.59	0.95	0.750			
0.1722	11023.63	4.0520	4.0520	0.8640	24.59	0.95	0.750			
0.1748	11189.56	4.0490	4.0491	0.8651	24.59	0.95	0.750			
0.1774	11354.56	4.0460	4.0459	0.8653	24.58	0.94	0.750			
0.1800	11519.71	4.0430	4.0430	0.8701	24.58	0.94	0.750			
0.1827	11690.14	4.0400	4.0400	0.8573	24.57	0.93	0.750			
0.1852	11853.00	4.0370	4.0370	0.8698	24.57	0.93	0.750			
0.1878	12020.11	4.0340	4.0341	0.8812	24.56	0.92	0.750			
0.1904	12188.22	4.0310	4.0307	0.8884	24.56	0.92	0.750			
0.1931	12360.32	4.0280	4.0281	0.8936	24.56	0.92	0.750			
0.1958	12529.91	4.0250	4.0252	0.9181	24.55	0.91	0.750			
0.1986	12708.76	4.0220	4.0220	0.9396	24.55	0.91	0.750			
0.2015	12897.65	4.0190	4.0187	0.9529	24.54	0.90	0.750			
0.2044	13079.63	4.0160	4.0161	0.9462	24.54	0.90	0.750			
0.2072	13263.93	4.0130	4.0132	0.9412	24.53	0.89	0.750			
0.2101	13448.13	4.0100	4.0101	0.9381	24.53	0.89	0.750			
0.2129	13626.30	4.0070	4.0069	0.9266	24.52	0.88	0.750			
0.2156	13796.37	4.0040	4.0039	0.9066	24.52	0.88	0.750			
0.2183	13973.43	4.0010	4.0010	0.8981	24.51	0.87	0.750			
0.2210	14142.65	3.9980	3.9980	0.9037	24.50	0.86	0.750			
0.2237	14315.62	3.9950	3.9951	0.9090	24.50	0.86	0.750			
0.2264	14489.40	3.9920	3.9921	0.9145	24.49	0.85	0.750			
0.2291	14664.20	3.9890	3.9888	0.9217	24.48	0.84	0.750			
0.2319	14843.64	3.9860	3.9861	0.9269	24.47	0.83	0.750			
0.2347	15023.27	3.9830	3.9831	0.9374	24.47	0.83	0.750			
0.2376	15205.13	3.9800	3.9800	0.9436	24.47	0.83	0.750			
0.2404	15385.67	3.9770	3.9768	0.9377	24.46	0.82	0.750			
0.2432	15567.97	3.9740	3.9741	0.9385	24.46	0.82	0.750			
0.2461	15747.84	3.9710	3.9710	0.9410	24.45	0.81	0.750			
0.2489	15928.63	3.9680	3.9680	0.9419	24.45	0.81	0.750			
0.2517	16108.59	3.9650	3.9650	0.9380	24.44	0.80	0.750			
0.2545	16288.18	3.9620	3.9620	0.9410	24.44	0.80	0.750			
0.2573	16469.77	3.9590	3.9590	0.9378	24.43	0.79	0.750			
0.2601	16648.56	3.9560	3.9561	0.9432	24.43	0.79	0.750			
0.2630	16829.53	3.9530	3.9531	0.9503	24.42	0.78	0.750			
0.2658	17011.15	3.9500	3.9494	0.9543	24.42	0.78	0.750			
0.2687	17194.99	3.9470	3.9471	0.9611	24.41	0.77	0.750			
0.2716	17381.78	3.9440	3.9441	0.9668	24.40	0.76	0.750			
0.2745	17570.53	3.9410	3.9410	0.9743	24.39	0.75	0.750			
0.2775	17757.05	3.9380	3.9380	0.9648	24.38	0.74	0.750			
0.2804	17943.47	3.9350	3.9350	0.9618	24.38	0.74	0.750			
0.2832	18126.77	3.9320	3.9320	0.9697	24.38	0.74	0.750			
0.2861	18312.91	3.9290	3.9291	0.9722	24.38	0.74	0.750			
0.2891	18500.08	3.9260	3.9260	0.9776	24.38	0.74	0.750			
0.2920	18690.98	3.9230	3.9231	0.9766	24.38	0.74	0.750			
0.2950	18877.44	3.9200	3.9201	0.9775	24.37	0.73	0.750			
0.2979	19066.14	3.9170	3.9170	0.9816	24.36	0.72	0.750			
0.3008	19253.45	3.9140	3.9141	0.9871	24.35	0.71	0.750			
0.3038	19440.19	3.9110	3.9109	0.9887	24.34	0.70	0.750			
0.3068	19632.28	3.9080	3.9080	0.9938	24.33	0.69	0.750			
0.3098	19824.01	3.9050	3.9050	1.0016	24.32	0.68	0.750			
0.3128	20018.30	3.9020	3.9021	1.0069	24.31	0.67	0.750			
0.3158	20211.80	3.8990	3.8989	1.0057	24.30	0.66	0.750			
0.3188	20405.60	3.8960	3.8960	1.0060	24.30	0.66	0.750			
0.3218	20597.30	3.8930	3.8930	1.0111	24.29	0.65	0.750			
0.3249	20791.19	3.8900	3.8901	1.0163	24.29	0.65	0.750			
0.3279	20988.25	3.8870	3.8869	1.0220	24.28	0.64	0.750			
0.3310	21186.41	3.8840	3.8839	1.0113	24.27	0.63	0.750			
0.3341	21379.80	3.8810	3.8811	1.0188	24.26	0.62	0.750			
0.3371	21574.81	3.8780	3.8782	1.0249	24.25	0.61	0.750			
0.3402	21770.30	3.8750	3.8748	1.0269	24.24	0.60	0.750			
0.3432	21967.25	3.8720	3.8721	1.0372	24.23	0.59	0.750			
0.3463	22166.28	3.8690	3.8691	1.0467	24.22	0.58	0.750			
0.3495	22370.51	3.8660	3.8660	1.0522	24.21	0.57	0.750			
0.3528	22578.18	3.8630	3.8629	1.0633	24.20	0.56	0.750			
0.3559	22778.96	3.8600	3.8601	1.0564	24.19	0.55	0.750			
0.3591	22980.88	3.8570	3.8570	1.0640	24.17	0.53	0.750			
0.3622	23183.83	3.8540	3.8540	1.0703	24.16	0.52	0.750			
0.3655	23390.45	3.8510	3.8508	1.0768	24.14	0.50	0.750			
0.3687	23597.70	3.8480	3.8481	1.0881	24.13	0.49	0.750			
0.3720	23808.19	3.8450	3.8450	1.1008	24.12	0.48	0.750			
0.3753	24021.58	3.8420	3.8420	1.1092	24.11	0.47	0.750			
0.3787	24235.02	3.8390	3.8389	1.1123	24.10	0.46	0.750			
0.3820	24449.00	3.8360	3.8361	1.1249	24.08	0.44	0.750			
0.3854	24665.97	3.8330	3.8330	1.1346	24.07	0.43	0.750			
0.3888	24885.17	3.8300	3.8300	1.1484	24.05	0.41	0.750			
0.3923	25107.06	3.8270	3.8271	1.1556	24.03	0.39	0.750			
0.3958	25328.90	3.8240	3.8240	1.1694	24.02	0.38	0.750			
0.3993	25555.52	3.8210	3.8210	1.1824	24.00	0.36	0.750			
0.4029	25785.18	3.8180	3.8179	1.1846	23.98	0.34	0.750			
0.4065	26013.40	3.8150	3.8151	1.1913	23.97	0.33	0.750			
0.4100	26241.68	3.8120	3.8120	1.2034	23.95	0.31	0.750			
0.4136	26472.88	3.8090	3.8090	1.2084	23.93	0.29	0.750			
0.4173	26706.32	3.8060	3.8060	1.2149	23.91	0.27	0.750			
0.4209	26937.95	3.8030	3.8031	1.2198	23.89	0.25	0.750			
0.4246	27175.37	3.8000	3.8001	1.2272	23.87	0.23	0.750			
0.4284	27416.51	3.7970	3.7969	1.2223	23.85	0.21	0.750			
0.4320	27648.18	3.7940	3.7940	1.2147	23.83	0.19	0.750			
0.4356	27880.19	3.7910	3.7911	1.2080	23.81	0.17	0.750			
0.4392	28111.94	3.7880	3.7881	1.2061	23.79	0.15	0.750			
0.4429	28342.45	3.7850	3.7850	1.1895	23.77	0.13	0.750			
0.4464	28568.54	3.7820	3.7820	1.1811	23.75	0.11	0.750			
0.4499	28795.88	3.7790	3.7791	1.1732	23.74	0.10	0.750			
0.4535	29025.46	3.7760	3.7757	1.1565	23.72	0.08	0.750			
0.4569	29244.61	3.7730	3.7731	1.1253	23.71	0.07	0.750			
0.4603	29460.54	3.7700	3.7700	1.0929	23.70	0.06	0.750			
0.4636	29672.44	3.7670	3.7670	1.0446	23.69	0.05	0.750			
0.4667	29870.08	3.7640	3.7639	0.9799	23.68	0.04	0.750			
0.4696	30055.07	3.7610	3.7611	0.9073	23.67	0.03	0.750			
0.4723	30224.72	3.7580	3.7580	0.8332	23.66	0.02	0.750			
0.4746	30377.17	3.7550	3.7550	0.7511	23.65	0.01	0.750			
0.4767	30511.54	3.7520	3.7520	0.6718	23.65	0.01	0.750			
0.4786	30630.52	3.7490	3.7489	0.5972	23.64	-0.00	0.750			
0.4803	30736.55	3.7460	3.7460	0.5364	23.63	-0.01	0.750			
0.4817	30830.69	3.7430	3.7430	0.4808	23.63	-0.01	0.750			
0.4831	30916.89	3.7400	3.7400	0.4347	23.62	-0.02	0.750			
0.4843	30995.39	3.7370	3.7369	0.3956	23.62	-0.02	0.750			
0.4854	31065.89	3.7340	3.7340	0.3585	23.62	-0.02	0.750			
0.4864	31131.06	3.7310	3.7309	0.3259	23.61	-0.03	0.750			
0.4873	31190.37	3.7280	3.7280	0.2942	23.61	-0.03	0.750			
0.4882	31243.99	3.7250	3.7249	0.2619	23.61	-0.03	0.750			
0.4889	31290.73	3.7220	3.7220	0.2299	23.61	-0.03	0.750			
0.4896	31333.12	3.7190	3.7189	0.1979	23.60	-0.04	0.750			
0.4901	31367.84	3.7160	3.7162	0.1638	23.60	-0.04	0.750			
0.4906	31395.98	3.7130	3.7132	0.1291	23.60	-0.04	0.750			
