Ah_balance (normalized)	Ah_balance (mAh)	Voltage - fit (V)	Voltage -  interpolate (V)	dQ/dV (1/V)	Temperature (°C)	Temperature - diff (°C)	Current (C)	R_DC 0ms (mOhm)	R_DC 50ms (mOhm)	R_DC 50 ms PEC (mOhm)
0.0472	3020.59	4.1990	4.1991	0.7596	25.39	0.45	0.750			
0.0495	3169.33	4.1960	4.1961	0.7782	25.39	0.45	0.750			
0.0518	3317.01	4.1930	4.1931	0.7619	25.39	0.45	0.750			
0.0541	3461.10	4.1900	4.1901	0.7478	25.39	0.45	0.750			
0.0563	3602.68	4.1870	4.1870	0.7483	25.39	0.45	0.750			
0.0585	3741.64	4.1840	4.1840	0.7440	25.39	0.45	0.750			
0.0607	3884.44	4.1810	4.1808	0.7444	25.39	0.45	0.750			
0.0629	4027.78	4.1780	4.1780	0.7498	25.39	0.45	0.750			
0.0652	4175.98	4.1750	4.1751	0.7433	25.39	0.45	0.750			
0.0675	4319.30	4.1720	4.1720	0.7538	25.40	0.46	0.750			
0.0697	4461.23	4.1690	4.1690	0.7567	25.40	0.46	0.750			
0.0720	4606.31	4.1660	4.1661	0.7628	25.40	0.46	0.750			
0.0743	4752.80	4.1630	4.1632	0.7673	25.40	0.46	0.750			
0.0766	4902.48	4.1600	4.1601	0.7741	25.40	0.46	0.750			
0.0790	5053.56	4.1570	4.1571	0.7696	25.40	0.46	0.750			
0.0813	5201.92	4.1540	4.1540	0.7687	25.39	0.45	0.750			
0.0835	5346.63	4.1510	4.1512	0.7649	25.39	0.45	0.750			
0.0858	5493.29	4.1480	4.1478	0.7691	25.39	0.45	0.750			
0.0881	5640.13	4.1450	4.1451	0.7740	25.39	0.45	0.750			
0.0905	5790.95	4.1420	4.1420	0.7731	25.39	0.45	0.750			
0.0928	5941.01	4.1390	4.1390	0.7811	25.40	0.46	0.750			
0.0952	6091.21	4.1360	4.1361	0.7859	25.40	0.46	0.750			
0.0975	6240.42	4.1330	4.1329	0.7811	25.40	0.46	0.750			
0.0999	6390.69	4.1300	4.1299	0.7825	25.40	0.46	0.750			
0.1022	6540.83	4.1270	4.1271	0.7840	25.40	0.46	0.750			
0.1046	6691.88	4.1240	4.1241	0.7720	25.40	0.46	0.750			
0.1069	6838.71	4.1210	4.1210	0.7753	25.40	0.46	0.750			
0.1092	6986.40	4.1180	4.1182	0.7779	25.40	0.46	0.750			
0.1115	7134.27	4.1150	4.1151	0.7767	25.40	0.46	0.750			
0.1138	7285.01	4.1120	4.1121	0.7862	25.40	0.46	0.750			
0.1162	7438.81	4.1090	4.1091	0.7807	25.40	0.46	0.750			
0.1185	7586.52	4.1060	4.1061	0.7908	25.40	0.46	0.750			
0.1209	7737.72	4.1030	4.1031	0.7843	25.40	0.46	0.750			
0.1233	7889.82	4.1000	4.0994	0.7859	25.40	0.46	0.750			
0.1256	8041.36	4.0970	4.0971	0.7885	25.40	0.46	0.750			
0.1280	8194.00	4.0940	4.0943	0.7913	25.40	0.46	0.750			
0.1304	8347.86	4.0910	4.0910	0.7967	25.41	0.47	0.750			
0.1328	8498.67	4.0880	4.0880	0.7885	25.41	0.47	0.750			
0.1352	8649.82	4.0850	4.0850	0.7914	25.41	0.47	0.750			
0.1376	8803.44	4.0820	4.0820	0.8012	25.41	0.47	0.750			
0.1400	8962.61	4.0790	4.0789	0.7851	25.41	0.47	0.750			
0.1423	9110.14	4.0760	4.0761	0.7937	25.42	0.48	0.750			
0.1447	9259.99	4.0730	4.0731	0.7988	25.42	0.48	0.750			
0.1471	9413.39	4.0700	4.0701	0.8055	25.42	0.48	0.750			
0.1495	9566.92	4.0670	4.0670	0.8122	25.42	0.48	0.750			
0.1520	9726.96	4.0640	4.0641	0.8051	25.42	0.48	0.750			
0.1544	9882.89	4.0610	4.0611	0.8171	25.43	0.49	0.750			
0.1569	10041.08	4.0580	4.0581	0.8251	25.43	0.49	0.750			
0.1593	10196.64	4.0550	4.0551	0.8171	25.43	0.49	0.750			
0.1618	10353.71	4.0520	4.0521	0.8217	25.43	0.49	0.750			
0.1643	10513.58	4.0490	4.0491	0.8260	25.43	0.49	0.750			
0.1668	10673.73	4.0460	4.0461	0.8318	25.43	0.49	0.750			
0.1693	10835.20	4.0430	4.0430	0.8360	25.44	0.50	0.750			
0.1718	10993.31	4.0400	4.0400	0.8324	25.44	0.50	0.750			
0.1743	11153.48	4.0370	4.0370	0.8415	25.44	0.50	0.750			
0.1769	11320.95	4.0340	4.0339	0.8296	25.44	0.50	0.750			
0.1793	11477.19	4.0310	4.0310	0.8318	25.44	0.50	0.750			
0.1818	11635.23	4.0280	4.0282	0.8404	25.45	0.51	0.750			
0.1843	11795.41	4.0250	4.0251	0.8433	25.45	0.51	0.750			
0.1868	11957.03	4.0220	4.0221	0.8471	25.45	0.51	0.750			
0.1894	12122.18	4.0190	4.0191	0.8471	25.46	0.52	0.750			
0.1920	12285.99	4.0160	4.0161	0.8559	25.46	0.52	0.750			
0.1946	12453.87	4.0130	4.0131	0.8627	25.46	0.52	0.750			
0.1971	12615.87	4.0100	4.0101	0.8566	25.47	0.53	0.750			
0.1997	12780.69	4.0070	4.0071	0.8606	25.47	0.53	0.750			
0.2023	12947.66	4.0040	4.0040	0.8624	25.47	0.53	0.750			
0.2049	13113.42	4.0010	4.0010	0.8683	25.47	0.53	0.750			
0.2075	13282.74	3.9980	3.9981	0.8768	25.47	0.53	0.750			
0.2101	13449.57	3.9950	3.9949	0.8676	25.47	0.53	0.750			
0.2128	13616.27	3.9920	3.9920	0.8709	25.47	0.53	0.750			
0.2154	13783.28	3.9890	3.9890	0.8638	25.47	0.53	0.750			
0.2179	13948.03	3.9860	3.9861	0.8668	25.48	0.54	0.750			
0.2205	14111.51	3.9830	3.9830	0.8709	25.48	0.54	0.750			
0.2231	14278.16	3.9800	3.9793	0.8798	25.48	0.54	0.750			
0.2258	14451.16	3.9770	3.9771	0.8808	25.48	0.54	0.750			
0.2285	14622.24	3.9740	3.9741	0.8884	25.48	0.54	0.750			
0.2312	14795.74	3.9710	3.9711	0.8929	25.49	0.55	0.750			
0.2339	14970.27	3.9680	3.9680	0.8964	25.49	0.55	0.750			
0.2365	15133.79	3.9650	3.9650	0.8892	25.49	0.55	0.750			
0.2392	15305.88	3.9620	3.9621	0.8856	25.50	0.56	0.750			
0.2418	15475.51	3.9590	3.9590	0.8932	25.50	0.56	0.750			
0.2445	15649.07	3.9560	3.9561	0.8999	25.50	0.56	0.750			
0.2472	15822.43	3.9530	3.9530	0.8967	25.51	0.57	0.750			
0.2499	15995.30	3.9500	3.9501	0.8974	25.51	0.57	0.750			
0.2526	16167.96	3.9470	3.9470	0.8903	25.51	0.57	0.750			
0.2553	16337.41	3.9440	3.9441	0.8888	25.51	0.57	0.750			
0.2579	16506.60	3.9410	3.9411	0.8901	25.51	0.57	0.750			
0.2606	16676.14	3.9380	3.9371	0.8956	25.51	0.57	0.750			
0.2634	16854.51	3.9350	3.9350	0.8918	25.51	0.57	0.750			
0.2660	17024.30	3.9320	3.9321	0.8993	25.51	0.57	0.750			
0.2687	17197.93	3.9290	3.9291	0.9028	25.51	0.57	0.750			
0.2715	17373.55	3.9260	3.9262	0.9095	25.51	0.57	0.750			
0.2741	17543.92	3.9230	3.9228	0.9018	25.51	0.57	0.750			
0.2768	17717.06	3.9200	3.9201	0.9014	25.51	0.57	0.750			
0.2795	17890.61	3.9170	3.9171	0.9065	25.51	0.57	0.750			
0.2823	18066.77	3.9140	3.9140	0.9109	25.51	0.57	0.750			
0.2850	18240.31	3.9110	3.9109	0.9077	25.51	0.57	0.750			
0.2878	18416.38	3.9080	3.9081	0.9108	25.51	0.57	0.750			
0.2905	18591.91	3.9050	3.9050	0.9020	25.51	0.57	0.750			
0.2932	18765.14	3.9020	3.9021	0.9028	25.51	0.57	0.750			
0.2959	18936.64	3.8990	3.8991	0.8970	25.51	0.57	0.750			
0.2986	19108.27	3.8960	3.8960	0.8967	25.51	0.57	0.750			
0.3013	19282.33	3.8930	3.8930	0.8874	25.50	0.56	0.750			
0.3039	19449.66	3.8900	3.8901	0.8954	25.50	0.56	0.750			
0.3066	19623.33	3.8870	3.8871	0.9070	25.49	0.55	0.750			
0.3093	19795.51	3.8840	3.8842	0.9097	25.48	0.54	0.750			
0.3121	19971.66	3.8810	3.8810	0.9211	25.48	0.54	0.750			
0.3149	20150.45	3.8780	3.8781	0.9165	25.48	0.54	0.750			
0.3176	20329.31	3.8750	3.8750	0.9232	25.47	0.53	0.750			
0.3204	20507.76	3.8720	3.8721	0.9211	25.47	0.53	0.750			
0.3232	20683.08	3.8690	3.8687	0.9124	25.47	0.53	0.750			
0.3259	20859.52	3.8660	3.8660	0.9061	25.47	0.53	0.750			
0.3286	21032.03	3.8630	3.8630	0.9059	25.46	0.52	0.750			
0.3313	21204.02	3.8600	3.8601	0.9145	25.46	0.52	0.750			
0.3341	21380.65	3.8570	3.8571	0.9248	25.45	0.51	0.750			
0.3368	21557.36	3.8540	3.8541	0.9205	25.45	0.51	0.750			
0.3397	21739.28	3.8510	3.8510	0.9033	25.44	0.50	0.750			
0.3424	21910.42	3.8480	3.8482	0.9183	25.43	0.49	0.750			
0.3451	22084.42	3.8450	3.8451	0.9305	25.43	0.49	0.750			
0.3478	22258.41	3.8420	3.8415	0.8931	25.42	0.48	0.750			
0.3504	22423.90	3.8390	3.8394	0.9126	25.41	0.47	0.750			
0.3530	22593.61	3.8360	3.8368	0.9472	25.40	0.46	0.750	0.315	0.445	
0.3560	22783.01	3.8330	3.8337	0.9753	25.39	0.45	0.750			
0.3590	22974.43	3.8300	3.8306	0.9908	25.39	0.45	0.750			
0.3622	23182.73	3.8270	3.8273	1.0055	25.38	0.44	0.750			
0.3653	23381.14	3.8240	3.8241	1.0135	25.37	0.43	0.750			
0.3682	23563.86	3.8210	3.8210	0.9699	25.37	0.43	0.750			
0.3711	23748.24	3.8180	3.8181	0.9819	25.36	0.42	0.750			
0.3740	23935.84	3.8150	3.8150	0.9924	25.36	0.42	0.750			
0.3770	24128.51	3.8120	3.8122	1.0007	25.35	0.41	0.750			
0.3800	24322.63	3.8090	3.8091	1.0196	25.34	0.40	0.750			
0.3831	24520.91	3.8060	3.8061	1.0347	25.33	0.39	0.750			
0.3862	24719.39	3.8030	3.8031	1.0342	25.32	0.38	0.750			
0.3894	24919.44	3.8000	3.8000	1.0487	25.31	0.37	0.750			
0.3925	25122.55	3.7970	3.7971	1.0649	25.30	0.36	0.750			
0.3958	25329.96	3.7940	3.7940	1.0822	25.30	0.36	0.750			
0.3991	25542.85	3.7910	3.7909	1.0714	25.29	0.35	0.750			
0.4023	25745.08	3.7880	3.7881	1.0915	25.28	0.34	0.750			
0.4055	25951.91	3.7850	3.7852	1.1126	25.27	0.33	0.750			
0.4089	26167.18	3.7820	3.7821	1.1373	25.26	0.32	0.750			
0.4123	26386.98	3.7790	3.7790	1.1473	25.25	0.31	0.750			
0.4158	26608.30	3.7760	3.7762	1.1724	25.24	0.30	0.750			
0.4193	26836.64	3.7730	3.7732	1.2056	25.23	0.29	0.750			
0.4230	27074.50	3.7700	3.7691	1.2280	25.22	0.28	0.750			
0.4267	27307.75	3.7670	3.7671	1.2420	25.21	0.27	0.750			
0.4305	27550.84	3.7640	3.7642	1.2726	25.20	0.26	0.750			
0.4345	27807.60	3.7610	3.7608	1.2834	25.18	0.24	0.750			
0.4383	28051.61	3.7580	3.7580	1.3164	25.17	0.23	0.750			
0.4421	28296.89	3.7550	3.7551	1.3418	25.16	0.22	0.750			
0.4462	28559.24	3.7520	3.7521	1.3627	25.15	0.21	0.750			
0.4504	28823.86	3.7490	3.7491	1.3923	25.13	0.19	0.750			
0.4545	29089.89	3.7460	3.7463	1.4216	25.12	0.18	0.750			
0.4588	29363.30	3.7430	3.7433	1.4754	25.11	0.17	0.750			
0.4634	29658.27	3.7400	3.7397	1.4885	25.10	0.16	0.750			
0.4678	29940.04	3.7370	3.7366	1.5246	25.09	0.15	0.750			
0.4724	30236.55	3.7340	3.7343	1.5766	25.08	0.14	0.750			
0.4773	30548.34	3.7310	3.7306	1.6391	25.07	0.13	0.750			
0.4823	30864.54	3.7280	3.7279	1.6562	25.05	0.11	0.750			
0.4873	31188.71	3.7250	3.7248	1.6932	25.04	0.10	0.750			
0.4926	31528.06	3.7220	3.7216	1.8030	25.02	0.08	0.750			
0.4981	31879.27	3.7190	3.7190	1.8216	25.01	0.07	0.750			
0.5036	32230.42	3.7160	3.7161	1.8621	25.00	0.06	0.750			
0.5092	32587.51	3.7130	3.7134	1.9191	24.98	0.04	0.750			
0.5150	32958.40	3.7100	3.7102	1.9679	24.97	0.03	0.750			
0.5208	33332.62	3.7070	3.7075	2.0652	24.96	0.02	0.750			
0.5271	33731.88	3.7040	3.7038	2.0638	24.94	0.00	0.750			
0.5335	34144.49	3.7010	3.7013	2.1540	24.93	-0.01	0.750			
0.5399	34555.26	3.6980	3.6978	2.2156	24.92	-0.02	0.750			
0.5469	35002.08	3.6950	3.6951	2.3112	24.90	-0.04	0.750			
0.5541	35462.03	3.6920	3.6917	2.3908	24.89	-0.05	0.750			
0.5610	35904.64	3.6890	3.6892	2.3643	24.88	-0.06	0.750			
0.5683	36371.90	3.6860	3.6854	2.4552	24.87	-0.07	0.750			
0.5757	36841.85	3.6830	3.6829	2.5383	24.86	-0.08	0.750			
0.5835	37342.51	3.6800	3.6799	2.5242	24.84	-0.10	0.750			
0.5913	37843.54	3.6770	3.6771	2.6934	24.84	-0.10	0.750			
0.5990	38334.64	3.6740	3.6743	2.4794	24.84	-0.10	0.750			
0.6068	38832.76	3.6710	3.6706	2.4959	24.83	-0.11	0.750			
0.6140	39292.90	3.6680	3.6683	2.3807	24.82	-0.12	0.750			
0.6210	39745.55	3.6650	3.6645	2.1850	24.82	-0.12	0.750			
0.6274	40154.94	3.6620	3.6620	2.0599	24.83	-0.11	0.750			
0.6329	40508.79	3.6590	3.6593	1.8654	24.84	-0.10	0.750			
0.6382	40847.15	3.6560	3.6562	1.7070	24.84	-0.10	0.750			
0.6432	41167.35	3.6530	3.6533	1.6361	24.85	-0.09	0.750			
0.6480	41474.89	3.6500	3.6492	1.5251	24.85	-0.09	0.750			
0.6526	41765.05	3.6470	3.6472	1.4323	24.86	-0.08	0.750			
0.6568	42033.59	3.6440	3.6442	1.3253	24.86	-0.08	0.750			
0.6606	42279.05	3.6410	3.6409	1.2278	24.87	-0.07	0.750			
0.6641	42500.88	3.6380	3.6381	1.1214	24.88	-0.06	0.750			
0.6673	42706.72	3.6350	3.6350	1.0594	24.89	-0.05	0.750			
0.6703	42896.48	3.6320	3.6321	1.0130	24.89	-0.05	0.750			
0.6732	43085.15	3.6290	3.6283	0.9788	24.90	-0.04	0.750			
0.6761	43273.31	3.6260	3.6261	0.9407	24.90	-0.04	0.750			
0.6790	43454.86	3.6230	3.6230	0.9034	24.90	-0.04	0.750			
0.6816	43622.71	3.6200	3.6201	0.8683	24.91	-0.03	0.750			
0.6841	43783.86	3.6170	3.6173	0.8349	24.91	-0.03	0.750			
0.6865	43936.29	3.6140	3.6144	0.7909	24.91	-0.03	0.750			
0.6888	44084.73	3.6110	3.6116	0.7538	24.92	-0.02	0.750			
0.6911	44227.74	3.6080	3.6084	0.7059	24.92	-0.02	0.750			
0.6932	44362.56	3.6050	3.6053	0.6597	24.93	-0.01	0.750			
0.6951	44488.74	3.6020	3.6020	0.6034	24.93	-0.01	0.750			
0.6968	44597.70	3.5990	3.5990	0.5294	24.94	-0.00	0.750			
0.6983	44693.08	3.5960	3.5960	0.4775	24.94	0.00	0.750			
0.6997	44779.90	3.5930	3.5930	0.4295	24.94	0.00	0.750			
0.7009	44857.31	3.5900	3.5899	0.3804	24.95	0.01	0.750			
0.7020	44926.75	3.5870	3.5870	0.3323	24.95	0.01	0.750			
0.7029	44986.28	3.5840	3.5839	0.2838	24.95	0.01	0.750			
0.7037	45036.22	3.5810	3.5810	0.2340	24.95	0.01	0.750			
0.7043	45077.05	3.5780	3.5781	0.1826	24.95	0.01	0.750			
0.7048	45107.07	3.5750	3.5754	0.1301	24.96	0.02	0.750			
0.7051	45126.94	3.5720	3.5725	0.0678	24.96	0.02	0.750			
