Ah_balance (normalized)	Ah_balance (mAh)	Voltage - fit (V)	Voltage -  interpolate (V)	dQ/dV (1/V)	Temperature (°C)	Temperature - diff (°C)	Current (C)	R_DC 0ms (mOhm)	R_DC 50ms (mOhm)	R_DC 50 ms PEC (mOhm)
0.0488	3120.22	4.1960	4.1960	0.7359	25.64	0.44	0.750			
0.0510	3261.76	4.1930	4.1932	0.7426	25.64	0.44	0.750			
0.0532	3405.33	4.1900	4.1898	0.7509	25.64	0.44	0.750			
0.0555	3550.76	4.1870	4.1872	0.7558	25.64	0.44	0.750			
0.0578	3696.99	4.1840	4.1841	0.7537	25.64	0.44	0.750			
0.0600	3842.44	4.1810	4.1810	0.7588	25.63	0.43	0.750			
0.0624	3991.78	4.1780	4.1780	0.7681	25.63	0.43	0.750			
0.0646	4133.84	4.1750	4.1751	0.7583	25.63	0.43	0.750			
0.0669	4279.71	4.1720	4.1721	0.7614	25.63	0.43	0.750			
0.0692	4426.38	4.1690	4.1690	0.7647	25.63	0.43	0.750			
0.0715	4575.15	4.1660	4.1660	0.7628	25.63	0.43	0.750			
0.0738	4720.74	4.1630	4.1631	0.7644	25.64	0.44	0.750			
0.0760	4867.11	4.1600	4.1601	0.7641	25.64	0.44	0.750			
0.0783	5013.41	4.1570	4.1568	0.7703	25.64	0.44	0.750			
0.0806	5160.63	4.1540	4.1541	0.7708	25.64	0.44	0.750			
0.0830	5311.40	4.1510	4.1510	0.7694	25.64	0.44	0.750			
0.0853	5460.24	4.1480	4.1481	0.7750	25.64	0.44	0.750			
0.0876	5607.53	4.1450	4.1451	0.7732	25.64	0.44	0.750			
0.0899	5756.33	4.1420	4.1420	0.7752	25.64	0.44	0.750			
0.0923	5905.19	4.1390	4.1391	0.7742	25.64	0.44	0.750			
0.0946	6053.61	4.1360	4.1360	0.7766	25.64	0.44	0.750			
0.0969	6204.25	4.1330	4.1331	0.7834	25.64	0.44	0.750			
0.0993	6355.83	4.1300	4.1299	0.7834	25.65	0.45	0.750			
0.1016	6505.56	4.1270	4.1270	0.7780	25.65	0.45	0.750			
0.1040	6654.59	4.1240	4.1240	0.7778	25.65	0.45	0.750			
0.1063	6804.67	4.1210	4.1210	0.7797	25.65	0.45	0.750			
0.1087	6955.05	4.1180	4.1180	0.7777	25.65	0.45	0.750			
0.1110	7101.26	4.1150	4.1150	0.7832	25.65	0.45	0.750			
0.1133	7252.86	4.1120	4.1120	0.7886	25.65	0.45	0.750			
0.1157	7405.20	4.1090	4.1088	0.7933	25.65	0.45	0.750			
0.1181	7557.93	4.1060	4.1060	0.7992	25.65	0.45	0.750			
0.1206	7717.10	4.1030	4.1030	0.7851	25.66	0.46	0.750			
0.1229	7865.44	4.1000	4.1001	0.7884	25.66	0.46	0.750			
0.1253	8016.10	4.0970	4.0970	0.7875	25.66	0.46	0.750			
0.1276	8163.46	4.0940	4.0942	0.7912	25.67	0.47	0.750			
0.1299	8314.10	4.0910	4.0910	0.7986	25.67	0.47	0.750			
0.1323	8469.47	4.0880	4.0881	0.7975	25.67	0.47	0.750			
0.1348	8624.86	4.0850	4.0850	0.8050	25.67	0.47	0.750			
0.1372	8782.36	4.0820	4.0821	0.8123	25.67	0.47	0.750			
0.1396	8936.29	4.0790	4.0791	0.8096	25.67	0.47	0.750			
0.1421	9092.51	4.0760	4.0759	0.8127	25.67	0.47	0.750			
0.1445	9249.54	4.0730	4.0730	0.8104	25.68	0.48	0.750			
0.1470	9404.91	4.0700	4.0701	0.8146	25.68	0.48	0.750			
0.1494	9562.08	4.0670	4.0671	0.8196	25.68	0.48	0.750			
0.1519	9718.65	4.0640	4.0640	0.8210	25.69	0.49	0.750			
0.1543	9875.64	4.0610	4.0610	0.8221	25.69	0.49	0.750			
0.1568	10034.67	4.0580	4.0580	0.8245	25.69	0.49	0.750			
0.1593	10194.16	4.0550	4.0551	0.8253	25.69	0.49	0.750			
0.1618	10352.37	4.0520	4.0520	0.8271	25.69	0.49	0.750			
0.1642	10509.82	4.0490	4.0491	0.8253	25.69	0.49	0.750			
0.1667	10668.89	4.0460	4.0461	0.8283	25.69	0.49	0.750			
0.1691	10823.39	4.0430	4.0432	0.8426	25.69	0.49	0.750			
0.1716	10985.31	4.0400	4.0400	0.8557	25.69	0.49	0.750			
0.1743	11152.08	4.0370	4.0370	0.8739	25.70	0.50	0.750			
0.1769	11320.46	4.0340	4.0338	0.8781	25.70	0.50	0.750			
0.1796	11494.95	4.0310	4.0314	0.8852	25.70	0.50	0.750			
0.1823	11669.86	4.0280	4.0281	0.8867	25.70	0.50	0.750			
0.1850	11840.51	4.0250	4.0250	0.8816	25.70	0.50	0.750			
0.1876	12008.30	4.0220	4.0220	0.8759	25.71	0.51	0.750			
0.1902	12170.05	4.0190	4.0189	0.8608	25.71	0.51	0.750			
0.1928	12336.57	4.0160	4.0161	0.8647	25.71	0.51	0.750			
0.1954	12504.26	4.0130	4.0130	0.8620	25.72	0.52	0.750			
0.1979	12668.70	4.0100	4.0100	0.8658	25.72	0.52	0.750			
0.2005	12834.98	4.0070	4.0071	0.8680	25.72	0.52	0.750			
0.2031	13000.63	4.0040	4.0037	0.8694	25.73	0.53	0.750			
0.2057	13167.82	4.0010	4.0010	0.8718	25.73	0.53	0.750			
0.2084	13336.15	3.9980	3.9981	0.8734	25.73	0.53	0.750			
0.2110	13504.07	3.9950	3.9950	0.8758	25.73	0.53	0.750			
0.2136	13673.60	3.9920	3.9920	0.8829	25.73	0.53	0.750			
0.2163	13841.12	3.9890	3.9888	0.8830	25.73	0.53	0.750			
0.2190	14013.18	3.9860	3.9860	0.8802	25.73	0.53	0.750			
0.2216	14182.10	3.9830	3.9831	0.8822	25.74	0.54	0.750			
0.2242	14350.97	3.9800	3.9801	0.8891	25.74	0.54	0.750			
0.2269	14521.93	3.9770	3.9771	0.8911	25.75	0.55	0.750			
0.2296	14691.75	3.9740	3.9740	0.8931	25.75	0.55	0.750			
0.2323	14864.94	3.9710	3.9710	0.8878	25.75	0.55	0.750			
0.2349	15035.86	3.9680	3.9681	0.8957	25.75	0.55	0.750			
0.2376	15208.99	3.9650	3.9651	0.8993	25.75	0.55	0.750			
0.2403	15381.32	3.9620	3.9620	0.8976	25.75	0.55	0.750			
0.2430	15553.13	3.9590	3.9591	0.8982	25.75	0.55	0.750			
0.2457	15726.27	3.9560	3.9560	0.8972	25.75	0.55	0.750			
0.2484	15897.09	3.9530	3.9531	0.9025	25.75	0.55	0.750			
0.2511	16072.41	3.9500	3.9500	0.9123	25.75	0.55	0.750			
0.2538	16244.73	3.9470	3.9467	0.9092	25.75	0.55	0.750			
0.2566	16421.15	3.9440	3.9441	0.9135	25.75	0.55	0.750			
0.2593	16597.41	3.9410	3.9411	0.9193	25.76	0.56	0.750			
0.2621	16776.79	3.9380	3.9380	0.9245	25.76	0.56	0.750			
0.2649	16953.58	3.9350	3.9350	0.9182	25.77	0.57	0.750			
0.2677	17130.70	3.9320	3.9320	0.9175	25.77	0.57	0.750			
0.2704	17307.60	3.9290	3.9290	0.9088	25.77	0.57	0.750			
0.2731	17479.88	3.9260	3.9261	0.9117	25.77	0.57	0.750			
0.2758	17653.81	3.9230	3.9230	0.9128	25.77	0.57	0.750			
0.2786	17827.81	3.9200	3.9196	0.9133	25.77	0.57	0.750			
0.2813	18003.64	3.9170	3.9171	0.9156	25.77	0.57	0.750			
0.2841	18179.46	3.9140	3.9140	0.9225	25.77	0.57	0.750			
0.2869	18359.17	3.9110	3.9110	0.9327	25.77	0.57	0.750			
0.2897	18538.39	3.9080	3.9080	0.9273	25.77	0.57	0.750			
0.2925	18716.82	3.9050	3.9049	0.9270	25.77	0.57	0.750			
0.2953	18896.71	3.9020	3.9021	0.9281	25.77	0.57	0.750			
0.2980	19074.96	3.8990	3.8991	0.9284	25.77	0.57	0.750			
0.3008	19252.98	3.8960	3.8959	0.9310	25.77	0.57	0.750			
0.3036	19429.95	3.8930	3.8929	0.9322	25.77	0.57	0.750			
0.3064	19612.18	3.8900	3.8899	0.9189	25.77	0.57	0.750			
0.3092	19786.83	3.8870	3.8870	0.9259	25.76	0.56	0.750			
0.3119	19964.15	3.8840	3.8841	0.9319	25.76	0.56	0.750			
0.3147	20143.01	3.8810	3.8811	0.9336	25.75	0.55	0.750			
0.3175	20321.13	3.8780	3.8779	0.9359	25.75	0.55	0.750			
0.3203	20501.78	3.8750	3.8751	0.9323	25.74	0.54	0.750			
0.3231	20680.60	3.8720	3.8721	0.9380	25.74	0.54	0.750			
0.3260	20863.44	3.8690	3.8690	0.9420	25.73	0.53	0.750			
0.3288	21042.41	3.8660	3.8657	0.9344	25.73	0.53	0.750			
0.3316	21222.12	3.8630	3.8631	0.9333	25.73	0.53	0.750			
0.3344	21402.25	3.8600	3.8601	0.9409	25.72	0.52	0.750			
0.3372	21583.65	3.8570	3.8570	0.9453	25.72	0.52	0.750			
0.3401	21764.59	3.8540	3.8540	0.9439	25.71	0.51	0.750			
0.3429	21946.35	3.8510	3.8511	0.9490	25.70	0.50	0.750			
0.3458	22130.46	3.8480	3.8480	0.9446	25.70	0.50	0.750			
0.3486	22310.14	3.8450	3.8450	0.9486	25.69	0.49	0.750			
0.3514	22490.17	3.8420	3.8421	0.9593	25.68	0.48	0.750			
0.3543	22673.84	3.8390	3.8390	0.9660	25.67	0.47	0.750			
0.3572	22861.26	3.8360	3.8355	0.9666	25.66	0.46	0.750	0.326	0.423	
0.3601	23047.78	3.8330	3.8332	0.9757	25.65	0.45	0.750			
0.3631	23237.96	3.8300	3.8301	0.9843	25.65	0.45	0.750			
0.3660	23427.05	3.8270	3.8267	0.9868	25.64	0.44	0.750			
0.3690	23613.73	3.8240	3.8240	0.9789	25.63	0.43	0.750			
0.3719	23802.70	3.8210	3.8211	0.9938	25.62	0.42	0.750			
0.3750	23996.87	3.8180	3.8180	1.0055	25.61	0.41	0.750			
0.3780	24190.69	3.8150	3.8149	1.0087	25.60	0.40	0.750			
0.3811	24388.47	3.8120	3.8120	1.0016	25.59	0.39	0.750			
0.3840	24578.41	3.8090	3.8092	1.0138	25.59	0.39	0.750			
0.3870	24770.71	3.8060	3.8061	1.0248	25.58	0.38	0.750			
0.3901	24967.37	3.8030	3.8030	1.0348	25.57	0.37	0.750			
0.3932	25167.41	3.8000	3.8000	1.0485	25.56	0.36	0.750			
0.3964	25370.84	3.7970	3.7971	1.0684	25.55	0.35	0.750			
0.3997	25578.40	3.7940	3.7941	1.0871	25.54	0.34	0.750			
0.4030	25793.30	3.7910	3.7908	1.1090	25.53	0.33	0.750			
0.4063	26001.34	3.7880	3.7881	1.1099	25.52	0.32	0.750			
0.4096	26216.78	3.7850	3.7850	1.1308	25.52	0.32	0.750			
0.4131	26436.72	3.7820	3.7820	1.1500	25.51	0.31	0.750			
0.4166	26659.41	3.7790	3.7789	1.1592	25.50	0.30	0.750			
0.4200	26882.61	3.7760	3.7761	1.1818	25.48	0.28	0.750			
0.4236	27110.05	3.7730	3.7731	1.2042	25.47	0.27	0.750			
0.4273	27344.90	3.7700	3.7699	1.2275	25.46	0.26	0.750			
0.4310	27581.84	3.7670	3.7670	1.2533	25.45	0.25	0.750			
0.4348	27824.87	3.7640	3.7640	1.2791	25.44	0.24	0.750			
0.4387	28074.23	3.7610	3.7612	1.3050	25.43	0.23	0.750			
0.4426	28328.37	3.7580	3.7580	1.3344	25.42	0.22	0.750			
0.4467	28589.48	3.7550	3.7550	1.3394	25.41	0.21	0.750			
0.4508	28850.53	3.7520	3.7520	1.3619	25.39	0.19	0.750			
0.4548	29108.52	3.7490	3.7491	1.3953	25.38	0.18	0.750			
0.4590	29374.85	3.7460	3.7463	1.4306	25.37	0.17	0.750			
0.4633	29651.18	3.7430	3.7430	1.4683	25.36	0.16	0.750			
0.4678	29938.56	3.7400	3.7398	1.5159	25.35	0.15	0.750			
0.4724	30233.94	3.7370	3.7367	1.5698	25.33	0.13	0.750			
0.4772	30542.14	3.7340	3.7343	1.6242	25.31	0.11	0.750			
0.4823	30864.23	3.7310	3.7312	1.6796	25.30	0.10	0.750			
0.4873	31186.67	3.7280	3.7280	1.6943	25.28	0.08	0.750			
0.4925	31518.50	3.7250	3.7248	1.7266	25.27	0.07	0.750			
0.4978	31857.35	3.7220	3.7218	1.7836	25.25	0.05	0.750			
0.5032	32202.22	3.7190	3.7189	1.8386	25.24	0.04	0.750			
0.5086	32552.82	3.7160	3.7160	1.9054	25.22	0.02	0.750			
0.5144	32919.27	3.7130	3.7128	1.9514	25.21	0.01	0.750			
0.5203	33298.81	3.7100	3.7101	2.0118	25.19	-0.01	0.750			
0.5266	33701.89	3.7070	3.7071	2.0716	25.18	-0.02	0.750			
0.5330	34109.36	3.7040	3.7041	2.1350	25.17	-0.03	0.750			
0.5393	34517.17	3.7010	3.7011	2.1955	25.15	-0.05	0.750			
0.5461	34947.23	3.6980	3.6981	2.2476	25.14	-0.06	0.750			
0.5528	35380.50	3.6950	3.6949	2.3167	25.13	-0.07	0.750			
0.5598	35828.67	3.6920	3.6917	2.3512	25.12	-0.08	0.750			
0.5669	36280.55	3.6890	3.6890	2.4388	25.10	-0.10	0.750			
0.5745	36766.46	3.6860	3.6859	2.5107	25.09	-0.11	0.750			
0.5821	37256.08	3.6830	3.6833	2.5853	25.09	-0.11	0.750			
0.5901	37765.09	3.6800	3.6800	2.6226	25.08	-0.12	0.750			
0.5980	38274.48	3.6770	3.6771	2.6500	25.07	-0.13	0.750			
0.6060	38781.91	3.6740	3.6740	2.6649	25.06	-0.14	0.750			
0.6140	39294.96	3.6710	3.6711	2.7203	25.06	-0.14	0.750			
0.6222	39820.20	3.6680	3.6680	2.6136	25.06	-0.14	0.750			
0.6300	40319.96	3.6650	3.6654	2.3622	25.06	-0.14	0.750			
0.6365	40737.97	3.6620	3.6622	2.1012	25.07	-0.13	0.750			
0.6422	41100.46	3.6590	3.6591	1.8813	25.07	-0.13	0.750			
0.6473	41427.80	3.6560	3.6564	1.7582	25.08	-0.12	0.750			
0.6525	41762.23	3.6530	3.6535	1.6981	25.10	-0.10	0.750			
0.6575	42078.35	3.6500	3.6505	1.6112	25.10	-0.10	0.750			
0.6625	42401.03	3.6470	3.6473	1.5239	25.11	-0.09	0.750			
0.6670	42690.33	3.6440	3.6440	1.4064	25.11	-0.09	0.750			
0.6710	42947.03	3.6410	3.6409	1.2955	25.12	-0.08	0.750			
0.6744	43161.30	3.6380	3.6380	1.1576	25.13	-0.07	0.750			
0.6777	43373.00	3.6350	3.6349	1.0928	25.14	-0.06	0.750			
0.6808	43571.38	3.6320	3.6320	1.0339	25.14	-0.06	0.750			
0.6838	43761.32	3.6290	3.6291	0.9819	25.15	-0.05	0.750			
0.6867	43947.63	3.6260	3.6260	0.9321	25.16	-0.04	0.750			
0.6894	44119.60	3.6230	3.6232	0.8946	25.17	-0.03	0.750			
0.6919	44282.10	3.6200	3.6196	0.8713	25.17	-0.03	0.750			
0.6945	44445.01	3.6170	3.6176	0.8484	25.18	-0.02	0.750			
0.6970	44608.08	3.6140	3.6147	0.8262	25.18	-0.02	0.750			
0.6995	44768.96	3.6110	3.6105	0.7972	25.19	-0.01	0.750			
0.7019	44922.44	3.6080	3.6086	0.7339	25.20	-0.00	0.750			
0.7041	45065.01	3.6050	3.6050	0.6792	25.20	0.00	0.750			
0.7061	45190.19	3.6020	3.6020	0.5932	25.21	0.01	0.750			
0.7078	45296.32	3.5990	3.5991	0.5180	25.21	0.01	0.750			
0.7092	45388.91	3.5960	3.5960	0.4605	25.21	0.01	0.750			
0.7105	45470.73	3.5930	3.5931	0.4038	25.22	0.02	0.750			
0.7116	45541.38	3.5900	3.5898	0.3477	25.22	0.02	0.750			
0.7125	45602.24	3.5870	3.5869	0.2969	25.22	0.02	0.750			
0.7133	45653.35	3.5840	3.5841	0.2487	25.22	0.02	0.750			
0.7140	45697.40	3.5810	3.5811	0.2038	25.22	0.02	0.750			
0.7146	45733.61	3.5780	3.5782	0.1492	25.23	0.03	0.750			
0.7150	45757.11	3.5750	3.5752	0.0976	25.23	0.03	0.750			
