Ah_balance (normalized)	Ah_balance (mAh)	Voltage - fit (V)	Voltage -  interpolate (V)	dQ/dV (1/V)	Temperature (°C)	Temperature - diff (°C)	Current (C)	R_DC 0ms (mOhm)	R_DC 50ms (mOhm)	R_DC 50 ms PEC (mOhm)
0.0475	3039.14	4.1990	4.1990	0.7406	26.07	0.53	0.750			
0.0497	3181.98	4.1960	4.1960	0.7444	26.07	0.53	0.750			
0.0519	3324.42	4.1930	4.1930	0.7418	26.07	0.53	0.750			
0.0542	3465.81	4.1900	4.1900	0.7436	26.07	0.53	0.750			
0.0564	3608.15	4.1870	4.1871	0.7471	26.07	0.53	0.750			
0.0586	3752.37	4.1840	4.1838	0.7497	26.07	0.53	0.750			
0.0609	3896.06	4.1810	4.1810	0.7549	26.07	0.53	0.750			
0.0632	4044.02	4.1780	4.1780	0.7482	26.07	0.53	0.750			
0.0654	4187.60	4.1750	4.1751	0.7548	26.07	0.53	0.750			
0.0677	4330.96	4.1720	4.1721	0.7563	26.07	0.53	0.750			
0.0699	4475.41	4.1690	4.1690	0.7559	26.07	0.53	0.750			
0.0722	4621.38	4.1660	4.1660	0.7596	26.07	0.53	0.750			
0.0745	4768.19	4.1630	4.1631	0.7650	26.07	0.53	0.750			
0.0768	4916.05	4.1600	4.1600	0.7588	26.07	0.53	0.750			
0.0791	5062.47	4.1570	4.1570	0.7633	26.07	0.53	0.750			
0.0814	5206.60	4.1540	4.1541	0.7608	26.07	0.53	0.750			
0.0836	5351.66	4.1510	4.1499	0.7638	26.07	0.53	0.750			
0.0859	5499.24	4.1480	4.1481	0.7709	26.07	0.53	0.750			
0.0883	5648.66	4.1450	4.1450	0.7718	26.07	0.53	0.750			
0.0906	5798.00	4.1420	4.1420	0.7709	26.07	0.53	0.750			
0.0929	5948.40	4.1390	4.1390	0.7768	26.07	0.53	0.750			
0.0952	6093.69	4.1360	4.1361	0.7694	26.07	0.53	0.750			
0.0975	6242.44	4.1330	4.1330	0.7713	26.07	0.53	0.750			
0.0998	6389.67	4.1300	4.1299	0.7729	26.08	0.54	0.750			
0.1022	6538.08	4.1270	4.1271	0.7668	26.08	0.54	0.750			
0.1045	6684.85	4.1240	4.1241	0.7694	26.08	0.54	0.750			
0.1068	6832.05	4.1210	4.1211	0.7750	26.09	0.55	0.750			
0.1091	6980.65	4.1180	4.1178	0.7769	26.09	0.55	0.750			
0.1114	7129.84	4.1150	4.1151	0.7817	26.09	0.55	0.750			
0.1138	7283.38	4.1120	4.1121	0.7672	26.09	0.55	0.750			
0.1161	7431.69	4.1090	4.1090	0.7768	26.09	0.55	0.750			
0.1184	7578.44	4.1060	4.1062	0.7758	26.09	0.55	0.750			
0.1207	7725.94	4.1030	4.1027	0.7819	26.09	0.55	0.750			
0.1231	7877.26	4.1000	4.1002	0.7845	26.09	0.55	0.750			
0.1255	8029.50	4.0970	4.0971	0.7888	26.09	0.55	0.750			
0.1278	8181.90	4.0940	4.0941	0.7916	26.09	0.55	0.750			
0.1303	8339.57	4.0910	4.0909	0.7981	26.09	0.55	0.750			
0.1326	8486.59	4.0880	4.0880	0.7914	26.09	0.55	0.750			
0.1350	8639.05	4.0850	4.0850	0.7935	26.09	0.55	0.750			
0.1374	8792.87	4.0820	4.0820	0.7911	26.09	0.55	0.750			
0.1398	8944.32	4.0790	4.0790	0.8005	26.09	0.55	0.750			
0.1422	9098.21	4.0760	4.0761	0.8036	26.10	0.56	0.750			
0.1446	9252.64	4.0730	4.0730	0.8066	26.10	0.56	0.750			
0.1470	9408.09	4.0700	4.0699	0.8092	26.10	0.56	0.750			
0.1495	9566.69	4.0670	4.0671	0.8031	26.10	0.56	0.750			
0.1519	9721.15	4.0640	4.0641	0.8093	26.10	0.56	0.750			
0.1543	9875.43	4.0610	4.0610	0.8094	26.11	0.57	0.750			
0.1567	10028.22	4.0580	4.0581	0.8106	26.11	0.57	0.750			
0.1591	10183.75	4.0550	4.0548	0.8172	26.11	0.57	0.750			
0.1616	10342.30	4.0520	4.0521	0.8198	26.11	0.57	0.750			
0.1641	10502.63	4.0490	4.0491	0.8270	26.11	0.57	0.750			
0.1666	10662.03	4.0460	4.0460	0.8309	26.11	0.57	0.750			
0.1691	10821.38	4.0430	4.0430	0.8269	26.11	0.57	0.750			
0.1716	10979.98	4.0400	4.0399	0.8271	26.11	0.57	0.750			
0.1741	11140.70	4.0370	4.0369	0.8223	26.11	0.57	0.750			
0.1765	11297.15	4.0340	4.0340	0.8280	26.11	0.57	0.750			
0.1790	11455.71	4.0310	4.0311	0.8337	26.11	0.57	0.750			
0.1815	11615.30	4.0280	4.0281	0.8389	26.11	0.57	0.750			
0.1840	11776.51	4.0250	4.0247	0.8432	26.11	0.57	0.750			
0.1866	11943.85	4.0220	4.0221	0.8395	26.11	0.57	0.750			
0.1891	12105.36	4.0190	4.0191	0.8470	26.11	0.57	0.750			
0.1917	12267.00	4.0160	4.0161	0.8499	26.12	0.58	0.750			
0.1942	12428.31	4.0130	4.0131	0.8477	26.12	0.58	0.750			
0.1967	12590.43	4.0100	4.0101	0.8487	26.12	0.58	0.750			
0.1993	12754.73	4.0070	4.0071	0.8516	26.12	0.58	0.750			
0.2019	12920.27	4.0040	4.0040	0.8604	26.12	0.58	0.750			
0.2045	13086.39	4.0010	4.0011	0.8656	26.13	0.59	0.750			
0.2071	13251.66	3.9980	3.9980	0.8592	26.13	0.59	0.750			
0.2096	13417.11	3.9950	3.9950	0.8622	26.13	0.59	0.750			
0.2123	13585.10	3.9920	3.9920	0.8559	26.13	0.59	0.750			
0.2148	13749.24	3.9890	3.9891	0.8588	26.13	0.59	0.750			
0.2174	13913.87	3.9860	3.9860	0.8610	26.13	0.59	0.750			
0.2199	14076.72	3.9830	3.9831	0.8615	26.13	0.59	0.750			
0.2225	14242.57	3.9800	3.9801	0.8651	26.13	0.59	0.750			
0.2252	14411.08	3.9770	3.9770	0.8625	26.13	0.59	0.750			
0.2278	14576.11	3.9740	3.9740	0.8655	26.13	0.59	0.750			
0.2304	14744.97	3.9710	3.9710	0.8682	26.13	0.59	0.750			
0.2329	14908.31	3.9680	3.9678	0.8653	26.13	0.59	0.750			
0.2355	15073.98	3.9650	3.9651	0.8672	26.13	0.59	0.750			
0.2381	15239.58	3.9620	3.9620	0.8655	26.13	0.59	0.750			
0.2407	15407.26	3.9590	3.9590	0.8716	26.13	0.59	0.750			
0.2434	15577.19	3.9560	3.9560	0.8771	26.13	0.59	0.750			
0.2460	15743.18	3.9530	3.9528	0.8726	26.13	0.59	0.750			
0.2486	15911.66	3.9500	3.9501	0.8756	26.13	0.59	0.750			
0.2512	16078.97	3.9470	3.9470	0.8663	26.13	0.59	0.750			
0.2538	16244.38	3.9440	3.9440	0.8669	26.12	0.58	0.750			
0.2564	16409.17	3.9410	3.9411	0.8651	26.12	0.58	0.750			
0.2590	16575.31	3.9380	3.9376	0.8685	26.12	0.58	0.750			
0.2616	16744.63	3.9350	3.9351	0.8634	26.12	0.58	0.750			
0.2642	16910.05	3.9320	3.9321	0.8651	26.11	0.57	0.750			
0.2668	17077.20	3.9290	3.9291	0.8682	26.11	0.57	0.750			
0.2694	17242.43	3.9260	3.9261	0.8609	26.10	0.56	0.750			
0.2720	17406.64	3.9230	3.9231	0.8635	26.10	0.56	0.750			
0.2746	17574.01	3.9200	3.9200	0.8632	26.10	0.56	0.750			
0.2772	17739.55	3.9170	3.9171	0.8699	26.10	0.56	0.750			
0.2798	17908.06	3.9140	3.9140	0.8723	26.09	0.55	0.750			
0.2824	18075.18	3.9110	3.9110	0.8700	26.09	0.55	0.750			
0.2851	18243.42	3.9080	3.9081	0.8712	26.09	0.55	0.750			
0.2877	18412.12	3.9050	3.9049	0.8628	26.08	0.54	0.750			
0.2902	18575.89	3.9020	3.9021	0.8671	26.08	0.54	0.750			
0.2929	18742.80	3.8990	3.8991	0.8684	26.08	0.54	0.750			
0.2954	18907.62	3.8960	3.8958	0.8701	26.07	0.53	0.750			
0.2981	19076.09	3.8930	3.8931	0.8694	26.06	0.52	0.750			
0.3007	19242.84	3.8900	3.8900	0.8636	26.06	0.52	0.750			
0.3033	19408.21	3.8870	3.8871	0.8664	26.05	0.51	0.750			
0.3059	19574.88	3.8840	3.8840	0.8758	26.04	0.50	0.750			
0.3084	19740.23	3.8810	3.8802	0.8745	26.03	0.49	0.750			
0.3111	19910.00	3.8780	3.8780	0.8807	26.02	0.48	0.750			
0.3137	20079.74	3.8750	3.8752	0.8835	26.01	0.47	0.750			
0.3164	20251.03	3.8720	3.8720	0.8926	26.01	0.47	0.750			
0.3191	20424.56	3.8690	3.8690	0.8995	26.00	0.46	0.750			
0.3218	20593.58	3.8660	3.8660	0.8954	25.99	0.45	0.750			
0.3245	20766.73	3.8630	3.8629	0.8958	25.98	0.44	0.750			
0.3272	20941.12	3.8600	3.8601	0.9013	25.98	0.44	0.750			
0.3299	21113.82	3.8570	3.8570	0.9045	25.98	0.44	0.750			
0.3326	21287.45	3.8540	3.8540	0.9070	25.97	0.43	0.750			
0.3353	21460.23	3.8510	3.8510	0.9102	25.96	0.42	0.750			
0.3380	21633.80	3.8480	3.8480	0.9118	25.96	0.42	0.750			
0.3408	21809.45	3.8450	3.8446	0.9228	25.95	0.41	0.750	0.310	0.453	
0.3436	21988.06	3.8420	3.8422	0.9312	25.94	0.40	0.750			
0.3464	22167.74	3.8390	3.8388	0.9357	25.93	0.39	0.750			
0.3492	22347.87	3.8360	3.8360	0.9414	25.92	0.38	0.750			
0.3520	22530.24	3.8330	3.8331	0.9505	25.91	0.37	0.750			
0.3549	22713.43	3.8300	3.8300	0.9524	25.90	0.36	0.750			
0.3577	22895.65	3.8270	3.8269	0.9537	25.89	0.35	0.750			
0.3606	23080.13	3.8240	3.8241	0.9563	25.88	0.34	0.750			
0.3635	23263.71	3.8210	3.8210	0.9701	25.87	0.33	0.750			
0.3664	23450.69	3.8180	3.8180	0.9801	25.86	0.32	0.750			
0.3693	23638.26	3.8150	3.8150	0.9879	25.86	0.32	0.750			
0.3724	23831.60	3.8120	3.8121	0.9894	25.85	0.31	0.750			
0.3753	24021.93	3.8090	3.8091	1.0074	25.84	0.30	0.750			
0.3784	24214.62	3.8060	3.8061	1.0162	25.83	0.29	0.750			
0.3814	24410.22	3.8030	3.8030	1.0302	25.82	0.28	0.750			
0.3845	24608.68	3.8000	3.7998	1.0382	25.81	0.27	0.750			
0.3877	24809.88	3.7970	3.7971	1.0551	25.80	0.26	0.750			
0.3908	25014.04	3.7940	3.7941	1.0763	25.79	0.25	0.750			
0.3941	25223.84	3.7910	3.7910	1.0980	25.78	0.24	0.750			
0.3974	25435.49	3.7880	3.7880	1.1006	25.77	0.23	0.750			
0.4008	25648.32	3.7850	3.7850	1.1229	25.76	0.22	0.750			
0.4042	25866.00	3.7820	3.7821	1.1395	25.74	0.20	0.750			
0.4077	26091.55	3.7790	3.7788	1.1489	25.73	0.19	0.750			
0.4111	26309.53	3.7760	3.7761	1.1618	25.72	0.18	0.750			
0.4145	26530.02	3.7730	3.7731	1.1830	25.71	0.17	0.750			
0.4181	26757.53	3.7700	3.7701	1.2178	25.70	0.16	0.750			
0.4218	26994.16	3.7670	3.7667	1.2355	25.69	0.15	0.750			
0.4256	27236.13	3.7640	3.7641	1.2623	25.68	0.14	0.750			
0.4294	27482.81	3.7610	3.7611	1.2977	25.68	0.14	0.750			
0.4334	27740.27	3.7580	3.7579	1.3018	25.67	0.13	0.750			
0.4373	27986.64	3.7550	3.7550	1.3165	25.66	0.12	0.750			
0.4413	28240.34	3.7520	3.7520	1.3434	25.65	0.11	0.750			
0.4453	28502.08	3.7490	3.7488	1.3416	25.63	0.09	0.750			
0.4493	28754.71	3.7460	3.7461	1.3887	25.62	0.08	0.750			
0.4536	29029.60	3.7430	3.7431	1.4051	25.61	0.07	0.750			
0.4578	29296.47	3.7400	3.7399	1.4836	25.60	0.06	0.750			
0.4624	29591.17	3.7370	3.7371	1.5097	25.59	0.05	0.750			
0.4670	29886.21	3.7340	3.7338	1.5711	25.58	0.04	0.750			
0.4718	30196.28	3.7310	3.7313	1.6365	25.57	0.03	0.750			
0.4769	30520.08	3.7280	3.7278	1.6792	25.55	0.01	0.750			
0.4818	30834.54	3.7250	3.7252	1.7376	25.54	-0.00	0.750			
0.4871	31176.07	3.7220	3.7217	1.7681	25.52	-0.02	0.750			
0.4923	31509.92	3.7190	3.7188	1.8136	25.51	-0.03	0.750			
0.4979	31868.52	3.7160	3.7165	1.8738	25.50	-0.04	0.750			
0.5036	32228.50	3.7130	3.7133	1.9446	25.48	-0.06	0.750			
0.5095	32608.66	3.7100	3.7096	1.9837	25.47	-0.07	0.750			
0.5156	32996.86	3.7070	3.7067	2.0571	25.46	-0.08	0.750			
0.5217	33387.82	3.7040	3.7042	2.0526	25.45	-0.09	0.750			
0.5280	33789.95	3.7010	3.7009	2.1207	25.44	-0.10	0.750			
0.5345	34207.36	3.6980	3.6979	2.1614	25.43	-0.11	0.750			
0.5413	34640.40	3.6950	3.6953	2.2537	25.41	-0.13	0.750			
0.5480	35075.08	3.6920	3.6920	2.2643	25.40	-0.14	0.750			
0.5549	35516.78	3.6890	3.6892	2.3222	25.39	-0.15	0.750			
0.5619	35960.76	3.6860	3.6863	2.3255	25.39	-0.15	0.750			
0.5692	36427.02	3.6830	3.6832	2.3083	25.39	-0.15	0.750			
0.5760	36861.67	3.6800	3.6797	2.2787	25.39	-0.15	0.750			
0.5827	37290.71	3.6770	3.6771	2.2170	25.38	-0.16	0.750			
0.5893	37714.35	3.6740	3.6740	2.1466	25.39	-0.15	0.750			
0.5958	38128.29	3.6710	3.6708	1.9934	25.40	-0.14	0.750			
0.6015	38499.15	3.6680	3.6685	1.9071	25.40	-0.14	0.750			
0.6070	38851.20	3.6650	3.6654	1.7992	25.40	-0.14	0.750			
0.6122	39180.33	3.6620	3.6614	1.6651	25.41	-0.13	0.750			
0.6172	39497.70	3.6590	3.6594	1.5804	25.42	-0.12	0.750			
0.6218	39793.12	3.6560	3.6561	1.4782	25.43	-0.11	0.750			
0.6261	40068.54	3.6530	3.6530	1.3815	25.44	-0.10	0.750			
0.6299	40310.58	3.6500	3.6501	1.2596	25.44	-0.10	0.750			
0.6335	40545.11	3.6470	3.6463	1.2030	25.45	-0.09	0.750			
0.6370	40769.40	3.6440	3.6441	1.1281	25.46	-0.08	0.750			
0.6403	40977.76	3.6410	3.6411	1.0844	25.46	-0.08	0.750			
0.6434	41179.57	3.6380	3.6381	1.0427	25.47	-0.07	0.750			
0.6465	41375.81	3.6350	3.6344	1.0101	25.47	-0.07	0.750			
0.6494	41562.43	3.6320	3.6321	0.9679	25.48	-0.06	0.750			
0.6523	41745.92	3.6290	3.6291	0.9347	25.49	-0.05	0.750			
0.6551	41925.10	3.6260	3.6260	0.9025	25.50	-0.04	0.750			
0.6577	42094.04	3.6230	3.6230	0.8577	25.51	-0.03	0.750			
0.6603	42256.38	3.6200	3.6200	0.8217	25.51	-0.03	0.750			
0.6627	42410.88	3.6170	3.6170	0.7837	25.52	-0.02	0.750			
0.6650	42558.25	3.6140	3.6140	0.7388	25.53	-0.01	0.750			
0.6671	42696.96	3.6110	3.6110	0.6992	25.53	-0.01	0.750			
0.6692	42826.73	3.6080	3.6081	0.6548	25.54	-0.00	0.750			
0.6711	42948.28	3.6050	3.6042	0.6100	25.54	-0.00	0.750			
0.6728	43061.28	3.6020	3.6021	0.5618	25.54	0.00	0.750			
0.6745	43165.77	3.5990	3.5991	0.5144	25.55	0.01	0.750			
0.6760	43260.86	3.5960	3.5959	0.4657	25.55	0.01	0.750			
0.6773	43345.85	3.5930	3.5929	0.4168	25.55	0.01	0.750			
0.6784	43418.57	3.5900	3.5902	0.3628	25.56	0.02	0.750			
0.6794	43484.18	3.5870	3.5868	0.3135	25.56	0.02	0.750			
0.6803	43540.46	3.5840	3.5839	0.2659	25.56	0.02	0.750			
0.6811	43587.34	3.5810	3.5812	0.2160	25.56	0.02	0.750			
0.6816	43625.12	3.5780	3.5782	0.1633	25.57	0.03	0.750			
0.6821	43651.63	3.5750	3.5753	0.1021	25.57	0.03	0.750			
0.6823	43665.95	3.5720	3.5742	0.0612	25.57	0.03	0.750			
