Ah_balance (normalized)	Ah_balance (mAh)	Voltage - fit (V)	Voltage -  interpolate (V)	dQ/dV (1/V)	Temperature (°C)	Temperature - diff (°C)	Current (C)	R_DC 0ms (mOhm)	R_DC 50ms (mOhm)	R_DC 50 ms PEC (mOhm)
0.0002	15.59	4.1630	4.1625	-0.1023	25.15	0.01	-0.750			
0.0006	39.29	4.1600	4.1599	-0.1477	25.15	0.01	-0.750			
0.0011	72.62	4.1570	4.1569	-0.1951	25.15	0.01	-0.750			
0.0018	114.44	4.1540	4.1541	-0.2417	25.15	0.01	-0.750			
0.0026	166.40	4.1510	4.1509	-0.2818	25.15	0.01	-0.750			
0.0035	224.90	4.1480	4.1481	-0.3270	25.15	0.01	-0.750			
0.0046	291.84	4.1450	4.1450	-0.3672	25.15	0.01	-0.750			
0.0057	367.31	4.1420	4.1419	-0.4035	25.15	0.01	-0.750			
0.0070	449.01	4.1390	4.1390	-0.4398	25.14	0.00	-0.750			
0.0084	537.29	4.1360	4.1361	-0.4727	25.14	0.00	-0.750			
0.0099	631.63	4.1330	4.1331	-0.5053	25.14	-0.00	-0.750			
0.0115	733.76	4.1300	4.1299	-0.5309	25.14	-0.00	-0.750			
0.0131	836.67	4.1270	4.1270	-0.5571	25.13	-0.01	-0.750			
0.0147	942.36	4.1240	4.1241	-0.6015	25.13	-0.01	-0.750			
0.0166	1062.66	4.1210	4.1209	-0.6254	25.13	-0.01	-0.750			
0.0186	1188.00	4.1180	4.1178	-0.6494	25.13	-0.01	-0.750			
0.0206	1318.29	4.1150	4.1147	-0.6596	25.12	-0.02	-0.750			
0.0226	1447.75	4.1120	4.1121	-0.6642	25.12	-0.02	-0.750			
0.0247	1578.99	4.1090	4.1090	-0.6718	25.12	-0.02	-0.750			
0.0266	1705.15	4.1060	4.1059	-0.6686	25.11	-0.03	-0.750			
0.0286	1831.84	4.1030	4.1029	-0.6769	25.11	-0.03	-0.750			
0.0306	1960.45	4.1000	4.0999	-0.6764	25.11	-0.03	-0.750			
0.0327	2091.14	4.0970	4.0970	-0.6864	25.10	-0.04	-0.750			
0.0347	2223.65	4.0940	4.0941	-0.6906	25.10	-0.04	-0.750			
0.0368	2356.67	4.0910	4.0910	-0.6983	25.10	-0.04	-0.750			
0.0389	2490.14	4.0880	4.0880	-0.7048	25.10	-0.04	-0.750			
0.0410	2624.75	4.0850	4.0847	-0.7111	25.09	-0.05	-0.750			
0.0432	2764.92	4.0820	4.0821	-0.7214	25.09	-0.05	-0.750			
0.0454	2904.32	4.0790	4.0789	-0.7226	25.09	-0.05	-0.750			
0.0476	3043.90	4.0760	4.0761	-0.7246	25.09	-0.05	-0.750			
0.0498	3184.46	4.0730	4.0731	-0.7262	25.09	-0.05	-0.750			
0.0519	3321.13	4.0700	4.0700	-0.7347	25.09	-0.05	-0.750			
0.0541	3464.66	4.0670	4.0669	-0.7332	25.09	-0.05	-0.750			
0.0563	3606.18	4.0640	4.0639	-0.7353	25.09	-0.05	-0.750			
0.0586	3748.20	4.0610	4.0609	-0.7353	25.09	-0.05	-0.750			
0.0608	3891.06	4.0580	4.0578	-0.7365	25.09	-0.05	-0.750			
0.0630	4031.33	4.0550	4.0549	-0.7347	25.09	-0.05	-0.750			
0.0651	4169.42	4.0520	4.0520	-0.7408	25.09	-0.05	-0.750			
0.0673	4309.54	4.0490	4.0491	-0.7429	25.09	-0.05	-0.750			
0.0697	4458.45	4.0460	4.0458	-0.7631	25.09	-0.05	-0.750			
0.0719	4603.63	4.0430	4.0434	-0.7707	25.09	-0.05	-0.750			
0.0743	4754.40	4.0400	4.0399	-0.7769	25.09	-0.05	-0.750			
0.0766	4904.23	4.0370	4.0370	-0.7869	25.09	-0.05	-0.750			
0.0790	5056.14	4.0340	4.0340	-0.7904	25.10	-0.04	-0.750			
0.0814	5212.00	4.0310	4.0310	-0.7928	25.10	-0.04	-0.750			
0.0838	5364.24	4.0280	4.0281	-0.7838	25.10	-0.04	-0.750			
0.0861	5513.22	4.0250	4.0250	-0.7800	25.10	-0.04	-0.750			
0.0884	5659.42	4.0220	4.0220	-0.7888	25.10	-0.04	-0.750			
0.0908	5812.47	4.0190	4.0189	-0.7807	25.10	-0.04	-0.750			
0.0931	5959.88	4.0160	4.0159	-0.7770	25.10	-0.04	-0.750			
0.0955	6111.56	4.0130	4.0130	-0.7801	25.10	-0.04	-0.750			
0.0979	6262.55	4.0100	4.0098	-0.7790	25.10	-0.04	-0.750			
0.1002	6411.55	4.0070	4.0069	-0.7776	25.10	-0.04	-0.750			
0.1025	6558.75	4.0040	4.0040	-0.7811	25.10	-0.04	-0.750			
0.1048	6707.42	4.0010	4.0010	-0.7769	25.11	-0.03	-0.750			
0.1072	6862.60	3.9980	3.9979	-0.7851	25.11	-0.03	-0.750			
0.1096	7011.78	3.9950	3.9954	-0.7857	25.11	-0.03	-0.750			
0.1119	7162.47	3.9920	3.9920	-0.7901	25.11	-0.03	-0.750			
0.1143	7314.50	3.9890	3.9889	-0.7923	25.11	-0.03	-0.750			
0.1167	7465.63	3.9860	3.9859	-0.7955	25.12	-0.02	-0.750			
0.1191	7620.64	3.9830	3.9830	-0.8010	25.12	-0.02	-0.750			
0.1215	7774.52	3.9800	3.9800	-0.8023	25.12	-0.02	-0.750			
0.1239	7930.03	3.9770	3.9769	-0.8035	25.12	-0.02	-0.750			
0.1263	8083.37	3.9740	3.9741	-0.8122	25.13	-0.01	-0.750			
0.1287	8239.95	3.9710	3.9709	-0.8089	25.13	-0.01	-0.750			
0.1312	8396.67	3.9680	3.9678	-0.8044	25.13	-0.01	-0.750			
0.1336	8552.01	3.9650	3.9654	-0.8038	25.14	-0.00	-0.750			
0.1360	8705.08	3.9620	3.9618	-0.8050	25.14	0.00	-0.750			
0.1384	8858.31	3.9590	3.9589	-0.8080	25.14	0.00	-0.750			
0.1408	9012.87	3.9560	3.9560	-0.8112	25.14	0.00	-0.750			
0.1432	9166.12	3.9530	3.9529	-0.8089	25.14	0.00	-0.750			
0.1458	9329.37	3.9500	3.9500	-0.8262	25.14	0.00	-0.750			
0.1483	9488.04	3.9470	3.9469	-0.8247	25.14	0.00	-0.750			
0.1507	9645.63	3.9440	3.9440	-0.8289	25.15	0.01	-0.750			
0.1532	9804.98	3.9410	3.9409	-0.8318	25.16	0.02	-0.750			
0.1557	9963.80	3.9380	3.9379	-0.8273	25.16	0.02	-0.750			
0.1582	10124.97	3.9350	3.9351	-0.8337	25.17	0.03	-0.750			
0.1607	10284.52	3.9320	3.9319	-0.8363	25.17	0.03	-0.750			
0.1632	10446.96	3.9290	3.9289	-0.8411	25.17	0.03	-0.750			
0.1658	10609.83	3.9260	3.9259	-0.8406	25.17	0.03	-0.750			
0.1682	10767.21	3.9230	3.9230	-0.8444	25.17	0.03	-0.750			
0.1708	10932.00	3.9200	3.9199	-0.8594	25.17	0.03	-0.750			
0.1734	11099.71	3.9170	3.9166	-0.8638	25.17	0.03	-0.750			
0.1760	11266.13	3.9140	3.9140	-0.8629	25.17	0.03	-0.750			
0.1786	11432.74	3.9110	3.9110	-0.8581	25.18	0.04	-0.750			
0.1812	11596.48	3.9080	3.9081	-0.8547	25.18	0.04	-0.750			
0.1838	11764.82	3.9050	3.9050	-0.8534	25.18	0.04	-0.750			
0.1863	11924.52	3.9020	3.9019	-0.8467	25.18	0.04	-0.750			
0.1888	12085.15	3.8990	3.8990	-0.8481	25.19	0.05	-0.750			
0.1914	12250.44	3.8960	3.8960	-0.8491	25.20	0.06	-0.750			
0.1940	12414.18	3.8930	3.8929	-0.8478	25.20	0.06	-0.750			
0.1965	12578.89	3.8900	3.8902	-0.8526	25.21	0.07	-0.750			
0.1991	12742.00	3.8870	3.8869	-0.8429	25.21	0.07	-0.750			
0.2016	12904.47	3.8840	3.8840	-0.8500	25.21	0.07	-0.750			
0.2042	13066.13	3.8810	3.8810	-0.8477	25.22	0.08	-0.750			
0.2067	13230.36	3.8780	3.8778	-0.8523	25.22	0.08	-0.750			
0.2093	13394.12	3.8750	3.8756	-0.8513	25.22	0.08	-0.750			
0.2118	13556.56	3.8720	3.8719	-0.8479	25.23	0.09	-0.750			
0.2144	13718.87	3.8690	3.8690	-0.8490	25.23	0.09	-0.750			
0.2169	13882.35	3.8660	3.8660	-0.8512	25.24	0.10	-0.750			
0.2195	14046.35	3.8630	3.8629	-0.8538	25.24	0.10	-0.750			
0.2220	14209.60	3.8600	3.8601	-0.8492	25.25	0.11	-0.750			
0.2246	14373.26	3.8570	3.8569	-0.8461	25.25	0.11	-0.750			
0.2271	14535.32	3.8540	3.8541	-0.8448	25.25	0.11	-0.750			
0.2296	14697.03	3.8510	3.8510	-0.8440	25.26	0.12	-0.750			
0.2322	14859.14	3.8480	3.8479	-0.8469	25.26	0.12	-0.750			
0.2347	15021.86	3.8450	3.8451	-0.8401	25.26	0.12	-0.750			
0.2372	15183.37	3.8420	3.8421	-0.8369	25.26	0.12	-0.750			
0.2398	15345.06	3.8390	3.8390	-0.8418	25.27	0.13	-0.750			
0.2423	15507.28	3.8360	3.8358	-0.8380	25.27	0.13	-0.750			
0.2448	15668.01	3.8330	3.8329	-0.8366	25.28	0.14	-0.750			
0.2473	15827.24	3.8300	3.8304	-0.8297	25.28	0.14	-0.750			
0.2498	15986.59	3.8270	3.8269	-0.8279	25.28	0.14	-0.750			
0.2523	16145.84	3.8240	3.8239	-0.8270	25.29	0.15	-0.750			
0.2547	16300.64	3.8210	3.8211	-0.8104	25.29	0.15	-0.750			
0.2572	16460.62	3.8180	3.8180	-0.8177	25.30	0.16	-0.750			
0.2596	16617.43	3.8150	3.8150	-0.8152	25.30	0.16	-0.750			
0.2621	16772.76	3.8120	3.8120	-0.8114	25.30	0.16	-0.750			
0.2645	16928.29	3.8090	3.8089	-0.8077	25.30	0.16	-0.750			
0.2669	17083.39	3.8060	3.8059	-0.8019	25.31	0.17	-0.750			
0.2693	17237.25	3.8030	3.8030	-0.7981	25.31	0.17	-0.750			
0.2717	17391.09	3.8000	3.8002	-0.7922	25.31	0.17	-0.750			
0.2741	17542.34	3.7970	3.7969	-0.7851	25.31	0.17	-0.750			
0.2764	17690.63	3.7940	3.7940	-0.7864	25.31	0.17	-0.750			
0.2788	17840.64	3.7910	3.7910	-0.7807	25.32	0.18	-0.750			
0.2811	17992.22	3.7880	3.7879	-0.7851	25.32	0.18	-0.750			
0.2835	18142.65	3.7850	3.7852	-0.7788	25.32	0.18	-0.750			
0.2858	18292.12	3.7820	3.7819	-0.7788	25.32	0.18	-0.750			
0.2881	18440.95	3.7790	3.7789	-0.7797	25.33	0.19	-0.750			
0.2905	18589.48	3.7760	3.7760	-0.7755	25.33	0.19	-0.750			
0.2927	18734.71	3.7730	3.7730	-0.7738	25.33	0.19	-0.750			
0.2951	18887.28	3.7700	3.7700	-0.7829	25.34	0.20	-0.750			
0.2974	19036.42	3.7670	3.7671	-0.7863	25.34	0.20	-0.750			
0.2998	19187.61	3.7640	3.7640	-0.7945	25.34	0.20	-0.750			
0.3022	19340.87	3.7610	3.7610	-0.7990	25.35	0.21	-0.750			
0.3046	19495.79	3.7580	3.7579	-0.8020	25.35	0.21	-0.750			
0.3071	19652.80	3.7550	3.7550	-0.8027	25.36	0.22	-0.750			
0.3095	19805.81	3.7520	3.7522	-0.8016	25.36	0.22	-0.750			
0.3119	19958.94	3.7490	3.7490	-0.8040	25.36	0.22	-0.750			
0.3143	20112.55	3.7460	3.7460	-0.8202	25.36	0.22	-0.750			
0.3167	20268.75	3.7430	3.7429	-0.8242	25.37	0.23	-0.750			
0.3192	20430.17	3.7400	3.7398	-0.8388	25.37	0.23	-0.750			
0.3217	20591.92	3.7370	3.7376	-0.8522	25.37	0.23	-0.750			
0.3244	20758.82	3.7340	3.7338	-0.8662	25.37	0.23	-0.750			
0.3269	20923.69	3.7310	3.7310	-0.8801	25.37	0.23	-0.750			
0.3295	21090.66	3.7280	3.7281	-0.8857	25.37	0.23	-0.750			
0.3323	21266.28	3.7250	3.7249	-0.9041	25.37	0.23	-0.750			
0.3350	21441.78	3.7220	3.7221	-0.9109	25.37	0.23	-0.750			
0.3378	21622.39	3.7190	3.7187	-0.8923	25.37	0.23	-0.750			
0.3405	21789.57	3.7160	3.7162	-0.8752	25.37	0.23	-0.750			
0.3430	21952.90	3.7130	3.7134	-0.8735	25.37	0.23	-0.750			
0.3455	22112.96	3.7100	3.7101	-0.8861	25.37	0.23	-0.750			
0.3482	22282.15	3.7070	3.7067	-0.9354	25.37	0.23	-0.750			
0.3510	22461.40	3.7040	3.7039	-0.9653	25.36	0.22	-0.750			
0.3540	22658.46	3.7010	3.7008	-0.9885	25.36	0.22	-0.750			
0.3572	22861.90	3.6980	3.6981	-1.0351	25.35	0.21	-0.750	0.418	0.542	
0.3603	23060.68	3.6950	3.6948	-1.0603	25.35	0.21	-0.750			
0.3635	23264.13	3.6920	3.6918	-1.0643	25.34	0.20	-0.750			
0.3667	23467.18	3.6890	3.6887	-1.0786	25.33	0.19	-0.750			
0.3698	23669.21	3.6860	3.6861	-1.0857	25.32	0.18	-0.750			
0.3733	23892.87	3.6830	3.6829	-1.1357	25.32	0.18	-0.750			
0.3768	24112.84	3.6800	3.6799	-1.1536	25.31	0.17	-0.750			
0.3802	24331.64	3.6770	3.6770	-1.1649	25.31	0.17	-0.750			
0.3837	24555.62	3.6740	3.6742	-1.1942	25.30	0.16	-0.750			
0.3874	24794.06	3.6710	3.6708	-1.2326	25.30	0.16	-0.750			
0.3912	25033.78	3.6680	3.6678	-1.2470	25.29	0.15	-0.750			
0.3949	25274.80	3.6650	3.6649	-1.2670	25.28	0.14	-0.750			
0.3988	25524.06	3.6620	3.6619	-1.2872	25.28	0.14	-0.750			
0.4028	25776.97	3.6590	3.6588	-1.3037	25.28	0.14	-0.750			
0.4067	26026.47	3.6560	3.6559	-1.3535	25.27	0.13	-0.750			
0.4108	26289.14	3.6530	3.6528	-1.3661	25.27	0.13	-0.750			
0.4150	26559.27	3.6500	3.6496	-1.4098	25.26	0.12	-0.750			
0.4193	26835.92	3.6470	3.6476	-1.4415	25.25	0.11	-0.750			
0.4237	27116.53	3.6440	3.6439	-1.4594	25.25	0.11	-0.750			
0.4282	27404.86	3.6410	3.6408	-1.4998	25.24	0.10	-0.750			
0.4327	27693.35	3.6380	3.6379	-1.4839	25.23	0.09	-0.750			
0.4372	27979.76	3.6350	3.6349	-1.5129	25.22	0.08	-0.750			
0.4418	28273.87	3.6320	3.6318	-1.5353	25.21	0.07	-0.750			
0.4463	28564.20	3.6290	3.6288	-1.5318	25.20	0.06	-0.750			
0.4510	28861.00	3.6260	3.6262	-1.5689	25.19	0.05	-0.750			
0.4558	29174.26	3.6230	3.6233	-1.6260	25.19	0.05	-0.750			
0.4609	29495.49	3.6200	3.6197	-1.6544	25.18	0.04	-0.750			
0.4659	29816.89	3.6170	3.6171	-1.7164	25.18	0.04	-0.750			
0.4711	30151.68	3.6140	3.6146	-1.7287	25.18	0.04	-0.750			
0.4764	30487.84	3.6110	3.6111	-1.7651	25.18	0.04	-0.750			
0.4816	30823.86	3.6080	3.6086	-1.7639	25.17	0.03	-0.750			
0.4868	31156.56	3.6050	3.6046	-1.7756	25.16	0.02	-0.750			
0.4925	31518.85	3.6020	3.6017	-1.8729	25.15	0.01	-0.750			
0.4981	31879.29	3.5990	3.5988	-1.9095	25.14	-0.00	-0.750			
0.5040	32258.07	3.5960	3.5957	-1.9764	25.13	-0.01	-0.750			
0.5099	32631.37	3.5930	3.5933	-1.9989	25.13	-0.01	-0.750			
0.5159	33020.27	3.5900	3.5898	-2.0101	25.12	-0.02	-0.750			
0.5220	33404.89	3.5870	3.5872	-2.0445	25.12	-0.02	-0.750			
0.5280	33792.01	3.5840	3.5841	-2.1219	25.11	-0.03	-0.750			
0.5345	34208.97	3.5810	3.5809	-2.1564	25.10	-0.04	-0.750			
0.5410	34627.19	3.5780	3.5779	-2.1371	25.10	-0.04	-0.750			
0.5475	35038.88	3.5750	3.5752	-2.1318	25.10	-0.04	-0.750			
0.5538	35443.18	3.5720	3.5727	-2.1602	25.09	-0.05	-0.750			
0.5604	35864.16	3.5690	3.5689	-2.2124	25.09	-0.05	-0.750			
0.5671	36296.84	3.5660	3.5658	-2.2113	25.10	-0.04	-0.750			
0.5739	36728.98	3.5630	3.5634	-2.2803	25.10	-0.04	-0.750			
0.5806	37160.63	3.5600	3.5602	-2.1997	25.09	-0.05	-0.750			
0.5873	37589.99	3.5570	3.5568	-2.1755	25.09	-0.05	-0.750			
0.5936	37990.84	3.5540	3.5542	-2.1484	25.10	-0.04	-0.750			
0.6000	38399.24	3.5510	3.5508	-2.0997	25.10	-0.04	-0.750			
0.6066	38822.69	3.5480	3.5479	-2.1442	25.10	-0.04	-0.750			
0.6130	39233.46	3.5450	3.5446	-2.1027	25.10	-0.04	-0.750			
0.6194	39640.77	3.5420	3.5420	-2.0558	25.10	-0.04	-0.750			
0.6256	40036.36	3.5390	3.5386	-1.9930	25.11	-0.03	-0.750			
0.6314	40411.42	3.5360	3.5356	-1.9480	25.12	-0.02	-0.750			
0.6370	40767.69	3.5330	3.5328	-1.9380	25.12	-0.02	-0.750			
0.6428	41139.83	3.5300	3.5296	-1.9095	25.13	-0.01	-0.750			
0.6488	41524.33	3.5270	3.5266	-1.9180	25.14	0.00	-0.750			
0.6545	41890.14	3.5240	3.5235	-1.8368	25.16	0.02	-0.750			
0.6600	42240.38	3.5210	3.5210	-1.7973	25.17	0.03	-0.750			
0.6652	42571.28	3.5180	3.5179	-1.7189	25.18	0.04	-0.750			
0.6702	42890.53	3.5150	3.5148	-1.6498	25.20	0.06	-0.750			
0.6751	43204.83	3.5120	3.5119	-1.5977	25.21	0.07	-0.750			
0.6798	43506.12	3.5090	3.5090	-1.5928	25.23	0.09	-0.750			
0.6847	43821.55	3.5060	3.5060	-1.5472	25.24	0.10	-0.750			
0.6894	44119.63	3.5030	3.5027	-1.5145	25.26	0.12	-0.750			
0.6937	44394.15	3.5000	3.4999	-1.4584	25.27	0.13	-0.750			
0.6981	44676.40	3.4970	3.4968	-1.4289	25.28	0.14	-0.750			
0.7024	44952.57	3.4940	3.4939	-1.3926	25.30	0.16	-0.750			
0.7065	45214.25	3.4910	3.4910	-1.3425	25.31	0.17	-0.750			
0.7105	45470.27	3.4880	3.4881	-1.2971	25.32	0.18	-0.750			
