Ah_balance (normalized)	Ah_balance (mAh)	Voltage - fit (V)	Voltage -  interpolate (V)	dQ/dV (1/V)	Temperature (°C)	Temperature - diff (°C)	Current (C)	R_DC 0ms (mOhm)	R_DC 50ms (mOhm)	R_DC 50 ms PEC (mOhm)
0.0497	3179.21	4.1960	4.1960	0.7547	25.60	0.64	0.750			
0.0519	3320.67	4.1930	4.1931	0.7418	25.61	0.65	0.750			
0.0541	3462.09	4.1900	4.1901	0.7465	25.61	0.65	0.750			
0.0563	3606.21	4.1870	4.1865	0.7533	25.61	0.65	0.750			
0.0586	3750.63	4.1840	4.1840	0.7561	25.61	0.65	0.750			
0.0609	3898.12	4.1810	4.1810	0.7553	25.61	0.65	0.750			
0.0632	4045.23	4.1780	4.1781	0.7604	25.62	0.66	0.750			
0.0655	4190.24	4.1750	4.1750	0.7581	25.62	0.66	0.750			
0.0677	4335.24	4.1720	4.1721	0.7566	25.62	0.66	0.750			
0.0700	4480.31	4.1690	4.1691	0.7612	25.62	0.66	0.750			
0.0723	4627.06	4.1660	4.1660	0.7621	25.62	0.66	0.750			
0.0746	4774.23	4.1630	4.1631	0.7593	25.62	0.66	0.750			
0.0769	4921.49	4.1600	4.1601	0.7631	25.61	0.65	0.750			
0.0792	5065.64	4.1570	4.1571	0.7609	25.61	0.65	0.750			
0.0814	5211.31	4.1540	4.1534	0.7636	25.61	0.65	0.750			
0.0837	5357.65	4.1510	4.1511	0.7641	25.61	0.65	0.750			
0.0860	5504.67	4.1480	4.1481	0.7628	25.61	0.65	0.750			
0.0883	5653.57	4.1450	4.1450	0.7722	25.61	0.65	0.750			
0.0907	5802.23	4.1420	4.1420	0.7731	25.61	0.65	0.750			
0.0929	5947.72	4.1390	4.1389	0.7706	25.61	0.65	0.750			
0.0952	6095.91	4.1360	4.1360	0.7751	25.61	0.65	0.750			
0.0976	6246.48	4.1330	4.1330	0.7736	25.61	0.65	0.750			
0.0999	6395.70	4.1300	4.1300	0.7749	25.61	0.65	0.750			
0.1023	6544.52	4.1270	4.1270	0.7779	25.61	0.65	0.750			
0.1046	6692.56	4.1240	4.1240	0.7748	25.61	0.65	0.750			
0.1069	6840.86	4.1210	4.1209	0.7769	25.61	0.65	0.750			
0.1092	6990.00	4.1180	4.1180	0.7804	25.61	0.65	0.750			
0.1116	7140.55	4.1150	4.1151	0.7767	25.61	0.65	0.750			
0.1139	7290.04	4.1120	4.1120	0.7802	25.62	0.66	0.750			
0.1162	7438.94	4.1090	4.1091	0.7835	25.62	0.66	0.750			
0.1186	7589.21	4.1060	4.1057	0.7886	25.62	0.66	0.750			
0.1210	7741.24	4.1030	4.1030	0.7908	25.62	0.66	0.750			
0.1233	7894.35	4.1000	4.1001	0.7888	25.62	0.66	0.750			
0.1257	8047.15	4.0970	4.0970	0.7938	25.62	0.66	0.750			
0.1281	8200.12	4.0940	4.0940	0.7973	25.62	0.66	0.750			
0.1305	8350.15	4.0910	4.0910	0.7923	25.62	0.66	0.750			
0.1328	8501.61	4.0880	4.0881	0.7971	25.62	0.66	0.750			
0.1352	8655.57	4.0850	4.0850	0.7995	25.62	0.66	0.750			
0.1377	8810.88	4.0820	4.0820	0.8022	25.61	0.65	0.750			
0.1401	8966.65	4.0790	4.0790	0.8042	25.61	0.65	0.750			
0.1425	9118.71	4.0760	4.0761	0.8059	25.61	0.65	0.750			
0.1449	9273.29	4.0730	4.0730	0.8093	25.61	0.65	0.750			
0.1474	9432.02	4.0700	4.0699	0.8035	25.61	0.65	0.750			
0.1498	9584.11	4.0670	4.0670	0.8054	25.61	0.65	0.750			
0.1522	9739.42	4.0640	4.0641	0.8106	25.62	0.66	0.750			
0.1546	9893.49	4.0610	4.0611	0.8155	25.62	0.66	0.750			
0.1570	10049.09	4.0580	4.0578	0.8210	25.62	0.66	0.750			
0.1595	10209.29	4.0550	4.0550	0.8168	25.62	0.66	0.750			
0.1620	10367.51	4.0520	4.0520	0.8232	25.62	0.66	0.750			
0.1645	10526.26	4.0490	4.0491	0.8293	25.63	0.67	0.750			
0.1669	10684.43	4.0460	4.0461	0.8290	25.63	0.67	0.750			
0.1694	10843.87	4.0430	4.0428	0.8305	25.63	0.67	0.750			
0.1720	11005.88	4.0400	4.0399	0.8245	25.63	0.67	0.750			
0.1744	11163.25	4.0370	4.0372	0.8305	25.63	0.67	0.750			
0.1769	11323.57	4.0340	4.0341	0.8382	25.62	0.66	0.750			
0.1794	11483.40	4.0310	4.0310	0.8387	25.62	0.66	0.750			
0.1819	11642.96	4.0280	4.0279	0.8400	25.62	0.66	0.750			
0.1845	11807.52	4.0250	4.0251	0.8427	25.62	0.66	0.750			
0.1871	11971.68	4.0220	4.0220	0.8550	25.62	0.66	0.750			
0.1896	12135.63	4.0190	4.0190	0.8628	25.63	0.67	0.750			
0.1922	12301.12	4.0160	4.0161	0.8605	25.63	0.67	0.750			
0.1948	12467.14	4.0130	4.0131	0.8609	25.63	0.67	0.750			
0.1974	12633.81	4.0100	4.0101	0.8630	25.63	0.67	0.750			
0.2000	12800.10	4.0070	4.0071	0.8650	25.63	0.67	0.750			
0.2026	12965.56	4.0040	4.0040	0.8672	25.63	0.67	0.750			
0.2052	13131.19	4.0010	4.0009	0.8646	25.63	0.67	0.750			
0.2078	13297.14	3.9980	3.9981	0.8675	25.63	0.67	0.750			
0.2104	13465.61	3.9950	3.9950	0.8719	25.63	0.67	0.750			
0.2130	13632.79	3.9920	3.9920	0.8744	25.63	0.67	0.750			
0.2156	13801.22	3.9890	3.9890	0.8752	25.63	0.67	0.750			
0.2183	13968.92	3.9860	3.9860	0.8760	25.63	0.67	0.750			
0.2209	14136.64	3.9830	3.9830	0.8771	25.63	0.67	0.750			
0.2235	14305.57	3.9800	3.9801	0.8786	25.63	0.67	0.750			
0.2262	14474.46	3.9770	3.9771	0.8806	25.63	0.67	0.750			
0.2288	14643.10	3.9740	3.9740	0.8836	25.63	0.67	0.750			
0.2315	14813.35	3.9710	3.9706	0.8857	25.63	0.67	0.750			
0.2341	14984.71	3.9680	3.9681	0.8858	25.63	0.67	0.750			
0.2368	15154.23	3.9650	3.9651	0.8876	25.63	0.67	0.750			
0.2395	15324.93	3.9620	3.9620	0.8931	25.63	0.67	0.750			
0.2421	15497.22	3.9590	3.9591	0.8965	25.63	0.67	0.750			
0.2448	15667.86	3.9560	3.9560	0.8940	25.63	0.67	0.750			
0.2475	15840.08	3.9530	3.9529	0.8918	25.62	0.66	0.750			
0.2502	16011.96	3.9500	3.9501	0.8952	25.62	0.66	0.750			
0.2529	16183.47	3.9470	3.9470	0.8962	25.62	0.66	0.750			
0.2556	16355.30	3.9440	3.9439	0.8956	25.61	0.65	0.750			
0.2582	16527.73	3.9410	3.9410	0.8957	25.61	0.65	0.750			
0.2609	16700.37	3.9380	3.9380	0.8891	25.61	0.65	0.750			
0.2636	16870.34	3.9350	3.9351	0.8903	25.61	0.65	0.750			
0.2662	17039.96	3.9320	3.9321	0.8952	25.61	0.65	0.750			
0.2689	17210.71	3.9290	3.9286	0.8964	25.61	0.65	0.750			
0.2716	17383.48	3.9260	3.9260	0.8931	25.61	0.65	0.750			
0.2743	17555.56	3.9230	3.9231	0.8975	25.60	0.64	0.750			
0.2770	17730.87	3.9200	3.9200	0.9032	25.60	0.64	0.750			
0.2798	17905.88	3.9170	3.9170	0.9058	25.59	0.63	0.750			
0.2824	18074.80	3.9140	3.9141	0.8942	25.59	0.63	0.750			
0.2851	18246.03	3.9110	3.9110	0.8945	25.58	0.62	0.750			
0.2878	18418.36	3.9080	3.9080	0.8960	25.58	0.62	0.750			
0.2905	18590.67	3.9050	3.9050	0.8986	25.58	0.62	0.750			
0.2932	18762.44	3.9020	3.9019	0.8977	25.57	0.61	0.750			
0.2959	18936.39	3.8990	3.8991	0.8973	25.57	0.61	0.750			
0.2986	19108.72	3.8960	3.8960	0.9003	25.56	0.60	0.750			
0.3013	19281.96	3.8930	3.8930	0.9026	25.56	0.60	0.750			
0.3040	19455.73	3.8900	3.8900	0.9024	25.55	0.59	0.750			
0.3067	19628.44	3.8870	3.8870	0.9005	25.55	0.59	0.750			
0.3094	19801.51	3.8840	3.8841	0.8965	25.54	0.58	0.750			
0.3121	19972.25	3.8810	3.8810	0.8994	25.53	0.57	0.750			
0.3148	20145.39	3.8780	3.8780	0.9013	25.52	0.56	0.750			
0.3175	20316.89	3.8750	3.8750	0.9007	25.51	0.55	0.750			
0.3202	20490.25	3.8720	3.8720	0.9072	25.51	0.55	0.750			
0.3229	20667.09	3.8690	3.8690	0.9054	25.50	0.54	0.750			
0.3256	20840.99	3.8660	3.8660	0.9061	25.49	0.53	0.750			
0.3284	21014.51	3.8630	3.8631	0.9102	25.49	0.53	0.750			
0.3311	21188.38	3.8600	3.8598	0.9066	25.48	0.52	0.750			
0.3338	21363.60	3.8570	3.8570	0.9075	25.47	0.51	0.750			
0.3365	21537.17	3.8540	3.8541	0.9120	25.47	0.51	0.750			
0.3393	21713.25	3.8510	3.8510	0.9174	25.46	0.50	0.750			
0.3420	21889.30	3.8480	3.8481	0.9294	25.45	0.49	0.750			
0.3448	22064.88	3.8450	3.8451	0.9349	25.45	0.49	0.750			
0.3476	22246.18	3.8420	3.8419	0.9371	25.43	0.47	0.750			
0.3504	22428.55	3.8390	3.8390	0.9470	25.42	0.46	0.750	0.333	0.456	
0.3533	22610.30	3.8360	3.8361	0.9528	25.41	0.45	0.750			
0.3562	22793.81	3.8330	3.8328	0.9596	25.40	0.44	0.750			
0.3591	22980.74	3.8300	3.8300	0.9601	25.39	0.43	0.750			
0.3619	23163.53	3.8270	3.8270	0.9625	25.38	0.42	0.750			
0.3648	23349.92	3.8240	3.8241	0.9703	25.37	0.41	0.750			
0.3678	23536.46	3.8210	3.8210	0.9732	25.36	0.40	0.750			
0.3707	23724.96	3.8180	3.8180	0.9768	25.35	0.39	0.750			
0.3736	23911.16	3.8150	3.8151	0.9851	25.34	0.38	0.750			
0.3766	24100.54	3.8120	3.8120	0.9966	25.33	0.37	0.750			
0.3796	24294.36	3.8090	3.8091	1.0126	25.32	0.36	0.750			
0.3826	24488.43	3.8060	3.8060	1.0198	25.31	0.35	0.750			
0.3857	24685.34	3.8030	3.8030	1.0351	25.30	0.34	0.750			
0.3888	24885.03	3.8000	3.8001	1.0528	25.29	0.33	0.750			
0.3921	25091.42	3.7970	3.7969	1.0716	25.28	0.32	0.750			
0.3953	25297.18	3.7940	3.7940	1.0736	25.27	0.31	0.750			
0.3985	25503.88	3.7910	3.7911	1.0912	25.25	0.29	0.750			
0.4018	25714.53	3.7880	3.7881	1.1069	25.24	0.28	0.750			
0.4052	25929.72	3.7850	3.7849	1.1210	25.23	0.27	0.750			
0.4085	26145.31	3.7820	3.7821	1.1238	25.22	0.26	0.750			
0.4118	26357.83	3.7790	3.7791	1.1467	25.21	0.25	0.750			
0.4153	26579.27	3.7760	3.7761	1.1758	25.20	0.24	0.750			
0.4189	26806.55	3.7730	3.7725	1.2048	25.19	0.23	0.750			
0.4225	27038.97	3.7700	3.7701	1.2330	25.18	0.22	0.750			
0.4263	27281.79	3.7670	3.7671	1.2572	25.16	0.20	0.750			
0.4302	27532.45	3.7640	3.7640	1.2840	25.14	0.18	0.750			
0.4340	27777.08	3.7610	3.7611	1.2950	25.13	0.17	0.750			
0.4379	28025.38	3.7580	3.7580	1.3252	25.12	0.16	0.750			
0.4419	28282.99	3.7550	3.7550	1.3438	25.11	0.15	0.750			
0.4460	28541.65	3.7520	3.7520	1.3807	25.09	0.13	0.750			
0.4501	28809.58	3.7490	3.7491	1.4184	25.08	0.12	0.750			
0.4545	29089.62	3.7460	3.7460	1.4423	25.07	0.11	0.750			
0.4589	29372.54	3.7430	3.7430	1.4706	25.05	0.09	0.750			
0.4633	29651.08	3.7400	3.7401	1.5028	25.04	0.08	0.750			
0.4679	29945.44	3.7370	3.7371	1.5229	25.02	0.06	0.750			
0.4726	30245.07	3.7340	3.7342	1.5578	25.01	0.05	0.750			
0.4771	30536.74	3.7310	3.7310	1.6189	24.99	0.03	0.750			
0.4820	30847.18	3.7280	3.7284	1.6510	24.98	0.02	0.750			
0.4870	31169.87	3.7250	3.7252	1.7096	24.97	0.01	0.750			
0.4922	31500.96	3.7220	3.7224	1.7700	24.96	0.00	0.750			
0.4976	31843.64	3.7190	3.7188	1.8101	24.95	-0.01	0.750			
0.5032	32203.44	3.7160	3.7157	1.8705	24.93	-0.03	0.750			
0.5089	32570.33	3.7130	3.7129	1.9278	24.91	-0.05	0.750			
0.5147	32940.98	3.7100	3.7100	2.0208	24.89	-0.07	0.750			
0.5208	33334.08	3.7070	3.7068	2.0625	24.88	-0.08	0.750			
0.5271	33736.11	3.7040	3.7039	2.0932	24.86	-0.10	0.750			
0.5335	34145.72	3.7010	3.7010	2.1497	24.84	-0.12	0.750			
0.5401	34564.60	3.6980	3.6979	2.1431	24.83	-0.13	0.750			
0.5466	34980.51	3.6950	3.6951	2.2215	24.82	-0.14	0.750			
0.5529	35387.36	3.6920	3.6918	2.1459	24.81	-0.15	0.750			
0.5591	35780.09	3.6890	3.6891	2.2367	24.80	-0.16	0.750			
0.5656	36195.81	3.6860	3.6859	2.3930	24.79	-0.17	0.750			
0.5732	36682.38	3.6830	3.6836	2.6935	24.78	-0.18	0.750			
0.5815	37213.10	3.6800	3.6798	2.7123	24.78	-0.18	0.750			
0.5890	37698.54	3.6770	3.6772	2.5739	24.77	-0.19	0.750			
0.5965	38172.81	3.6740	3.6735	2.4830	24.77	-0.19	0.750			
0.6039	38652.69	3.6710	3.6713	2.4331	24.78	-0.18	0.750			
0.6107	39084.63	3.6680	3.6678	2.2260	24.78	-0.18	0.750			
0.6172	39497.69	3.6650	3.6647	2.0608	24.79	-0.17	0.750			
0.6232	39887.64	3.6620	3.6621	1.9697	24.80	-0.16	0.750			
0.6289	40252.23	3.6590	3.6596	1.8342	24.81	-0.15	0.750			
0.6342	40591.61	3.6560	3.6559	1.7193	24.81	-0.15	0.750			
0.6391	40900.47	3.6530	3.6529	1.5860	24.82	-0.14	0.750			
0.6437	41196.00	3.6500	3.6495	1.4825	24.82	-0.14	0.750			
0.6480	41473.39	3.6470	3.6472	1.3639	24.83	-0.13	0.750			
0.6519	41724.45	3.6440	3.6442	1.2640	24.85	-0.11	0.750			
0.6555	41954.21	3.6410	3.6408	1.1697	24.86	-0.10	0.750			
0.6590	42173.33	3.6380	3.6380	1.1173	24.86	-0.10	0.750			
0.6620	42368.86	3.6350	3.6350	1.0442	24.87	-0.09	0.750			
0.6651	42566.41	3.6320	3.6319	0.9902	24.87	-0.09	0.750			
0.6680	42754.16	3.6290	3.6288	0.9696	24.88	-0.08	0.750			
0.6708	42933.33	3.6260	3.6261	0.9223	24.89	-0.07	0.750			
0.6735	43106.06	3.6230	3.6231	0.8893	24.90	-0.06	0.750			
0.6762	43274.17	3.6200	3.6202	0.8593	24.90	-0.06	0.750			
0.6787	43436.78	3.6170	3.6172	0.8209	24.91	-0.05	0.750			
0.6811	43592.24	3.6140	3.6143	0.7828	24.92	-0.04	0.750			
0.6835	43745.82	3.6110	3.6110	0.7206	24.93	-0.03	0.750			
0.6855	43874.67	3.6080	3.6082	0.6488	24.93	-0.03	0.750			
0.6873	43987.65	3.6050	3.6053	0.6021	24.94	-0.02	0.750			
0.6890	44098.44	3.6020	3.6023	0.5558	24.94	-0.02	0.750			
0.6906	44195.93	3.5990	3.5979	0.5021	24.95	-0.01	0.750			
0.6920	44288.84	3.5960	3.5966	0.4614	24.95	-0.01	0.750			
0.6934	44378.17	3.5930	3.5932	0.4180	24.96	-0.00	0.750			
0.6946	44457.45	3.5900	3.5901	0.3751	24.96	0.00	0.750			
0.6956	44521.05	3.5870	3.5870	0.3068	24.97	0.01	0.750			
0.6964	44572.47	3.5840	3.5841	0.2505	24.97	0.01	0.750			
0.6971	44615.81	3.5810	3.5813	0.2034	24.97	0.01	0.750			
0.6976	44648.04	3.5780	3.5787	0.1653	24.97	0.01	0.750			
0.6981	44676.11	3.5750	3.5756	0.1404	24.97	0.01	0.750			
