Ah_balance (normalized)	Ah_balance (mAh)	Voltage - fit (V)	Voltage -  interpolate (V)	dQ/dV (1/V)	Temperature (°C)	Temperature - diff (°C)	Current (C)	R_DC 0ms (mOhm)	R_DC 50ms (mOhm)	R_DC 50 ms PEC (mOhm)
0.0002	15.17	4.1650	4.1646	-0.1129	25.02	0.02	-0.750			
0.0006	40.85	4.1620	4.1618	-0.1576	25.02	0.02	-0.750			
0.0012	75.82	4.1590	4.1590	-0.2049	25.01	0.01	-0.750			
0.0019	121.27	4.1560	4.1560	-0.2467	25.01	0.01	-0.750			
0.0027	172.22	4.1530	4.1530	-0.2896	25.01	0.01	-0.750			
0.0036	232.37	4.1500	4.1501	-0.3340	25.01	0.01	-0.750			
0.0047	301.68	4.1470	4.1468	-0.3708	25.01	0.01	-0.750			
0.0059	376.81	4.1440	4.1439	-0.4096	25.00	0.00	-0.750			
0.0072	459.64	4.1410	4.1414	-0.4463	25.00	-0.00	-0.750			
0.0086	549.31	4.1380	4.1378	-0.4810	25.00	-0.00	-0.750			
0.0101	646.07	4.1350	4.1350	-0.5125	24.99	-0.01	-0.750			
0.0117	747.40	4.1320	4.1321	-0.5372	24.99	-0.01	-0.750			
0.0134	855.77	4.1290	4.1290	-0.5688	24.99	-0.01	-0.750			
0.0151	968.14	4.1260	4.1260	-0.5874	24.98	-0.02	-0.750			
0.0169	1082.65	4.1230	4.1229	-0.6040	24.98	-0.02	-0.750			
0.0188	1200.70	4.1200	4.1199	-0.6197	24.97	-0.03	-0.750			
0.0207	1322.60	4.1170	4.1169	-0.6330	24.97	-0.03	-0.750			
0.0226	1445.67	4.1140	4.1140	-0.6421	24.97	-0.03	-0.750			
0.0245	1570.11	4.1110	4.1110	-0.6551	24.96	-0.04	-0.750			
0.0265	1696.28	4.1080	4.1081	-0.6668	24.96	-0.04	-0.750			
0.0285	1826.93	4.1050	4.1048	-0.6805	24.96	-0.04	-0.750			
0.0306	1958.14	4.1020	4.1019	-0.6896	24.95	-0.05	-0.750			
0.0327	2093.02	4.0990	4.0991	-0.6947	24.95	-0.05	-0.750			
0.0348	2227.26	4.0960	4.0960	-0.6991	24.95	-0.05	-0.750			
0.0369	2361.39	4.0930	4.0931	-0.7173	24.95	-0.05	-0.750			
0.0390	2497.39	4.0900	4.0899	-0.7157	24.94	-0.06	-0.750			
0.0412	2638.71	4.0870	4.0869	-0.7220	24.94	-0.06	-0.750			
0.0434	2779.16	4.0840	4.0839	-0.7257	24.94	-0.06	-0.750			
0.0456	2918.51	4.0810	4.0809	-0.7305	24.94	-0.06	-0.750			
0.0478	3059.72	4.0780	4.0779	-0.7325	24.94	-0.06	-0.750			
0.0500	3199.01	4.0750	4.0750	-0.7383	24.94	-0.06	-0.750			
0.0522	3339.25	4.0720	4.0719	-0.7368	24.94	-0.06	-0.750			
0.0545	3485.34	4.0690	4.0689	-0.7489	24.94	-0.06	-0.750			
0.0567	3631.15	4.0660	4.0663	-0.7521	24.94	-0.06	-0.750			
0.0590	3774.24	4.0630	4.0629	-0.7519	24.94	-0.06	-0.750			
0.0612	3918.48	4.0600	4.0601	-0.7478	24.94	-0.06	-0.750			
0.0635	4061.85	4.0570	4.0570	-0.7546	24.94	-0.06	-0.750			
0.0657	4207.67	4.0540	4.0540	-0.7625	24.94	-0.06	-0.750			
0.0680	4353.21	4.0510	4.0509	-0.7608	24.94	-0.06	-0.750			
0.0703	4500.83	4.0480	4.0481	-0.7455	24.94	-0.06	-0.750			
0.0726	4647.81	4.0450	4.0450	-0.7177	24.94	-0.06	-0.750			
0.0747	4781.06	4.0420	4.0422	-0.7186	24.94	-0.06	-0.750			
0.0768	4912.35	4.0390	4.0396	-0.7047	24.94	-0.06	-0.750			
0.0788	5045.03	4.0360	4.0353	-0.7118	24.94	-0.06	-0.750			
0.0809	5179.69	4.0330	4.0327	-0.7278	24.94	-0.06	-0.750			
0.0832	5321.66	4.0300	4.0300	-0.7378	24.94	-0.06	-0.750			
0.0855	5469.30	4.0270	4.0269	-0.7626	24.94	-0.06	-0.750			
0.0878	5620.83	4.0240	4.0239	-0.7803	24.94	-0.06	-0.750			
0.0901	5767.15	4.0210	4.0210	-0.7673	24.94	-0.06	-0.750			
0.0925	5921.82	4.0180	4.0178	-0.7794	24.94	-0.06	-0.750			
0.0949	6070.83	4.0150	4.0154	-0.7821	24.94	-0.06	-0.750			
0.0972	6219.48	4.0120	4.0120	-0.7784	24.94	-0.06	-0.750			
0.0995	6369.72	4.0090	4.0089	-0.7864	24.95	-0.05	-0.750			
0.1018	6516.95	4.0060	4.0061	-0.7841	24.95	-0.05	-0.750			
0.1043	6673.01	4.0030	4.0029	-0.7923	24.96	-0.04	-0.750			
0.1067	6825.98	4.0000	4.0000	-0.7855	24.96	-0.04	-0.750			
0.1090	6975.53	3.9970	3.9970	-0.7881	24.96	-0.04	-0.750			
0.1113	7124.28	3.9940	3.9941	-0.8019	24.96	-0.04	-0.750			
0.1137	7279.06	3.9910	3.9908	-0.8057	24.96	-0.04	-0.750			
0.1162	7435.97	3.9880	3.9877	-0.7967	24.96	-0.04	-0.750			
0.1186	7592.22	3.9850	3.9852	-0.7990	24.96	-0.04	-0.750			
0.1210	7744.73	3.9820	3.9820	-0.8041	24.96	-0.04	-0.750			
0.1234	7897.98	3.9790	3.9786	-0.8101	24.97	-0.03	-0.750			
0.1258	8051.32	3.9760	3.9759	-0.8025	24.97	-0.03	-0.750			
0.1281	8199.78	3.9730	3.9731	-0.8033	24.97	-0.03	-0.750			
0.1307	8362.90	3.9700	3.9700	-0.8182	24.98	-0.02	-0.750			
0.1332	8521.89	3.9670	3.9668	-0.8216	24.98	-0.02	-0.750			
0.1356	8676.25	3.9640	3.9640	-0.8248	24.98	-0.02	-0.750			
0.1380	8834.89	3.9610	3.9609	-0.8208	24.98	-0.02	-0.750			
0.1405	8992.92	3.9580	3.9580	-0.8200	24.98	-0.02	-0.750			
0.1430	9153.22	3.9550	3.9550	-0.8264	24.98	-0.02	-0.750			
0.1455	9310.43	3.9520	3.9521	-0.8252	24.98	-0.02	-0.750			
0.1479	9467.03	3.9490	3.9490	-0.8414	24.99	-0.01	-0.750			
0.1505	9630.39	3.9460	3.9459	-0.8298	24.99	-0.01	-0.750			
0.1530	9789.34	3.9430	3.9429	-0.8313	24.99	-0.01	-0.750			
0.1555	9951.47	3.9400	3.9399	-0.8351	25.00	-0.00	-0.750			
0.1580	10112.18	3.9370	3.9366	-0.8334	25.00	0.00	-0.750			
0.1604	10268.25	3.9340	3.9340	-0.8406	25.00	0.00	-0.750			
0.1630	10429.66	3.9310	3.9310	-0.8315	25.00	0.00	-0.750			
0.1654	10588.03	3.9280	3.9280	-0.8305	25.01	0.01	-0.750			
0.1680	10754.93	3.9250	3.9249	-0.8447	25.01	0.01	-0.750			
0.1705	10914.04	3.9220	3.9220	-0.8400	25.01	0.01	-0.750			
0.1730	11074.91	3.9190	3.9189	-0.8450	25.01	0.01	-0.750			
0.1756	11236.09	3.9160	3.9160	-0.8431	25.01	0.01	-0.750			
0.1781	11395.85	3.9130	3.9130	-0.8434	25.02	0.02	-0.750			
0.1807	11564.25	3.9100	3.9099	-0.8509	25.02	0.02	-0.750			
0.1832	11726.87	3.9070	3.9070	-0.8496	25.02	0.02	-0.750			
0.1858	11889.84	3.9040	3.9040	-0.8552	25.03	0.03	-0.750			
0.1883	12053.80	3.9010	3.9009	-0.8530	25.03	0.03	-0.750			
0.1909	12217.18	3.8980	3.8979	-0.8537	25.03	0.03	-0.750			
0.1935	12382.83	3.8950	3.8950	-0.8591	25.04	0.04	-0.750			
0.1961	12548.34	3.8920	3.8918	-0.8574	25.04	0.04	-0.750			
0.1986	12713.47	3.8890	3.8890	-0.8683	25.04	0.04	-0.750			
0.2012	12879.12	3.8860	3.8860	-0.8628	25.05	0.05	-0.750			
0.2038	13045.12	3.8830	3.8829	-0.8588	25.05	0.05	-0.750			
0.2065	13214.03	3.8800	3.8802	-0.8616	25.05	0.05	-0.750			
0.2090	13377.74	3.8770	3.8769	-0.8576	25.05	0.05	-0.750			
0.2116	13540.84	3.8740	3.8738	-0.8609	25.05	0.05	-0.750			
0.2142	13706.33	3.8710	3.8710	-0.8594	25.06	0.06	-0.750			
0.2167	13867.86	3.8680	3.8680	-0.8565	25.06	0.06	-0.750			
0.2193	14038.03	3.8650	3.8652	-0.8697	25.06	0.06	-0.750			
0.2219	14202.84	3.8620	3.8619	-0.8827	25.06	0.06	-0.750			
0.2246	14374.86	3.8590	3.8589	-0.8723	25.07	0.07	-0.750			
0.2272	14542.51	3.8560	3.8560	-0.8672	25.07	0.07	-0.750			
0.2298	14710.15	3.8530	3.8528	-0.8670	25.08	0.08	-0.750			
0.2324	14875.12	3.8500	3.8503	-0.8630	25.08	0.08	-0.750			
0.2350	15039.07	3.8470	3.8469	-0.8549	25.08	0.08	-0.750			
0.2375	15202.52	3.8440	3.8439	-0.8581	25.08	0.08	-0.750			
0.2401	15365.02	3.8410	3.8409	-0.8571	25.09	0.09	-0.750			
0.2427	15535.96	3.8380	3.8379	-0.8654	25.09	0.09	-0.750			
0.2453	15700.84	3.8350	3.8350	-0.8531	25.09	0.09	-0.750			
0.2479	15863.09	3.8320	3.8320	-0.8556	25.09	0.09	-0.750			
0.2504	16026.29	3.8290	3.8289	-0.8543	25.09	0.09	-0.750			
0.2529	16186.86	3.8260	3.8260	-0.8420	25.10	0.10	-0.750			
0.2555	16354.03	3.8230	3.8229	-0.8549	25.10	0.10	-0.750			
0.2581	16516.86	3.8200	3.8202	-0.8514	25.10	0.10	-0.750			
0.2607	16681.64	3.8170	3.8169	-0.8606	25.11	0.11	-0.750			
0.2633	16848.58	3.8140	3.8139	-0.8554	25.11	0.11	-0.750			
0.2658	17012.41	3.8110	3.8108	-0.8405	25.11	0.11	-0.750			
0.2684	17174.56	3.8080	3.8078	-0.8373	25.12	0.12	-0.750			
0.2709	17335.23	3.8050	3.8049	-0.8381	25.12	0.12	-0.750			
0.2733	17492.23	3.8020	3.8020	-0.8314	25.13	0.13	-0.750			
0.2758	17650.08	3.7990	3.7988	-0.8205	25.13	0.13	-0.750			
0.2783	17810.57	3.7960	3.7960	-0.8245	25.13	0.13	-0.750			
0.2808	17968.16	3.7930	3.7929	-0.8203	25.14	0.14	-0.750			
0.2832	18124.80	3.7900	3.7900	-0.8111	25.14	0.14	-0.750			
0.2856	18277.83	3.7870	3.7869	-0.8047	25.14	0.14	-0.750			
0.2880	18430.52	3.7840	3.7841	-0.8011	25.14	0.14	-0.750			
0.2904	18584.54	3.7810	3.7810	-0.7973	25.14	0.14	-0.750			
0.2928	18739.43	3.7780	3.7780	-0.7982	25.14	0.14	-0.750			
0.2952	18893.07	3.7750	3.7752	-0.7987	25.14	0.14	-0.750			
0.2976	19045.63	3.7720	3.7721	-0.7918	25.15	0.15	-0.750			
0.3000	19201.01	3.7690	3.7688	-0.8035	25.15	0.15	-0.750			
0.3024	19355.89	3.7660	3.7660	-0.7993	25.16	0.16	-0.750			
0.3048	19509.96	3.7630	3.7627	-0.7966	25.16	0.16	-0.750			
0.3072	19663.05	3.7600	3.7608	-0.7904	25.17	0.17	-0.750			
0.3096	19813.74	3.7570	3.7569	-0.7887	25.17	0.17	-0.750			
0.3119	19962.28	3.7540	3.7539	-0.7960	25.17	0.17	-0.750			
0.3142	20107.27	3.7510	3.7512	-0.7921	25.17	0.17	-0.750			
0.3167	20270.10	3.7480	3.7479	-0.8197	25.17	0.17	-0.750			
0.3192	20430.06	3.7450	3.7449	-0.8277	25.17	0.17	-0.750			
0.3217	20589.60	3.7420	3.7420	-0.8363	25.17	0.17	-0.750			
0.3242	20749.37	3.7390	3.7391	-0.8466	25.17	0.17	-0.750			
0.3268	20912.78	3.7360	3.7359	-0.8495	25.17	0.17	-0.750			
0.3293	21077.02	3.7330	3.7329	-0.8618	25.17	0.17	-0.750			
0.3319	21242.70	3.7300	3.7302	-0.8690	25.17	0.17	-0.750			
0.3345	21408.82	3.7270	3.7269	-0.8929	25.17	0.17	-0.750			
0.3372	21582.41	3.7240	3.7240	-0.9047	25.17	0.17	-0.750			
0.3400	21757.46	3.7210	3.7209	-0.9154	25.16	0.16	-0.750			
0.3428	21936.47	3.7180	3.7179	-0.9340	25.16	0.16	-0.750			
0.3456	22117.27	3.7150	3.7150	-0.9503	25.16	0.16	-0.750			
0.3484	22299.71	3.7120	3.7119	-0.9703	25.15	0.15	-0.750			
0.3513	22483.55	3.7090	3.7091	-0.9992	25.15	0.15	-0.750			
0.3544	22680.44	3.7060	3.7058	-1.0005	25.14	0.14	-0.750			
0.3575	22878.50	3.7030	3.7032	-1.0185	25.14	0.14	-0.750			
0.3606	23078.90	3.7000	3.6997	-1.0318	25.13	0.13	-0.750			
0.3637	23275.45	3.6970	3.6973	-1.0382	25.13	0.13	-0.750	0.388	0.502	
0.3667	23469.95	3.6940	3.6939	-1.0587	25.12	0.12	-0.750			
0.3699	23675.37	3.6910	3.6911	-1.0887	25.12	0.12	-0.750			
0.3732	23884.77	3.6880	3.6878	-1.0967	25.11	0.11	-0.750			
0.3767	24107.60	3.6850	3.6849	-1.1357	25.11	0.11	-0.750			
0.3801	24328.73	3.6820	3.6819	-1.1474	25.10	0.10	-0.750			
0.3837	24553.93	3.6790	3.6787	-1.1765	25.10	0.10	-0.750			
0.3872	24778.33	3.6760	3.6758	-1.1823	25.09	0.09	-0.750			
0.3906	24998.46	3.6730	3.6730	-1.1901	25.09	0.09	-0.750			
0.3942	25227.33	3.6700	3.6705	-1.2194	25.08	0.08	-0.750			
0.3980	25473.94	3.6670	3.6668	-1.2626	25.07	0.07	-0.750			
0.4018	25715.89	3.6640	3.6639	-1.2829	25.07	0.07	-0.750			
0.4057	25966.08	3.6610	3.6608	-1.3228	25.06	0.06	-0.750			
0.4098	26229.49	3.6580	3.6580	-1.3590	25.05	0.05	-0.750			
0.4139	26492.75	3.6550	3.6548	-1.3685	25.04	0.04	-0.750			
0.4180	26754.60	3.6520	3.6521	-1.4016	25.02	0.02	-0.750			
0.4223	27028.56	3.6490	3.6487	-1.4297	25.02	0.02	-0.750			
0.4265	27298.14	3.6460	3.6459	-1.4644	25.01	0.01	-0.750			
0.4310	27584.50	3.6430	3.6432	-1.4793	25.00	0.00	-0.750			
0.4355	27869.29	3.6400	3.6399	-1.5073	24.99	-0.01	-0.750			
0.4401	28169.25	3.6370	3.6367	-1.5708	24.99	-0.01	-0.750			
0.4449	28476.49	3.6340	3.6339	-1.5706	24.98	-0.02	-0.750			
0.4497	28779.97	3.6310	3.6312	-1.5537	24.97	-0.03	-0.750			
0.4545	29086.66	3.6280	3.6280	-1.5926	24.96	-0.04	-0.750			
0.4592	29386.70	3.6250	3.6246	-1.6055	24.96	-0.04	-0.750			
0.4641	29700.19	3.6220	3.6217	-1.6593	24.95	-0.05	-0.750			
0.4690	30015.04	3.6190	3.6193	-1.6949	24.94	-0.06	-0.750			
0.4741	30341.93	3.6160	3.6165	-1.7588	24.93	-0.07	-0.750			
0.4797	30697.68	3.6130	3.6133	-1.7926	24.92	-0.08	-0.750			
0.4852	31052.57	3.6100	3.6095	-1.8409	24.92	-0.08	-0.750			
0.4908	31412.29	3.6070	3.6066	-1.8598	24.91	-0.09	-0.750			
0.4964	31769.59	3.6040	3.6037	-1.9166	24.90	-0.10	-0.750			
0.5022	32138.01	3.6010	3.6015	-1.9388	24.89	-0.11	-0.750			
0.5078	32501.51	3.5980	3.5980	-1.9568	24.88	-0.12	-0.750			
0.5137	32874.75	3.5950	3.5951	-2.0397	24.88	-0.12	-0.750			
0.5199	33276.24	3.5920	3.5918	-2.0274	24.88	-0.12	-0.750			
0.5261	33673.48	3.5890	3.5890	-2.1107	24.87	-0.13	-0.750			
0.5325	34082.49	3.5860	3.5863	-2.1281	24.86	-0.14	-0.750			
0.5388	34485.90	3.5830	3.5827	-2.1686	24.86	-0.14	-0.750			
0.5455	34912.13	3.5800	3.5801	-2.2066	24.86	-0.14	-0.750			
0.5523	35348.69	3.5770	3.5766	-2.2095	24.86	-0.14	-0.750			
0.5590	35772.88	3.5740	3.5742	-2.2400	24.86	-0.14	-0.750			
0.5657	36207.67	3.5710	3.5713	-2.2491	24.86	-0.14	-0.750			
0.5723	36624.70	3.5680	3.5677	-2.2771	24.86	-0.14	-0.750			
0.5791	37061.29	3.5650	3.5649	-2.2662	24.86	-0.14	-0.750			
0.5858	37492.80	3.5620	3.5618	-2.2788	24.86	-0.14	-0.750			
0.5928	37939.06	3.5590	3.5588	-2.2375	24.86	-0.14	-0.750			
0.5995	38370.31	3.5560	3.5558	-2.2202	24.86	-0.14	-0.750			
0.6063	38805.78	3.5530	3.5529	-2.2069	24.87	-0.13	-0.750			
0.6130	39232.34	3.5500	3.5501	-2.2155	24.87	-0.13	-0.750			
0.6198	39666.90	3.5470	3.5474	-2.1472	24.88	-0.12	-0.750			
0.6262	40076.60	3.5440	3.5440	-2.1113	24.89	-0.11	-0.750			
0.6323	40465.24	3.5410	3.5411	-2.0250	24.89	-0.11	-0.750			
0.6381	40838.68	3.5380	3.5380	-1.9997	24.90	-0.10	-0.750			
0.6441	41222.12	3.5350	3.5355	-1.9453	24.92	-0.08	-0.750			
0.6499	41593.40	3.5320	3.5322	-1.9426	24.93	-0.07	-0.750			
0.6558	41972.23	3.5290	3.5288	-1.9066	24.94	-0.06	-0.750			
0.6615	42333.23	3.5260	3.5265	-1.8602	24.95	-0.05	-0.750			
0.6670	42689.43	3.5230	3.5234	-1.8336	24.96	-0.04	-0.750			
0.6725	43043.10	3.5200	3.5195	-1.7980	24.98	-0.02	-0.750			
0.6781	43398.80	3.5170	3.5168	-1.7617	24.99	-0.01	-0.750			
0.6833	43731.77	3.5140	3.5138	-1.6845	25.00	0.00	-0.750			
0.6883	44051.60	3.5110	3.5104	-1.6454	25.02	0.02	-0.750			
0.6930	44354.34	3.5080	3.5076	-1.5642	25.04	0.04	-0.750			
0.6977	44650.28	3.5050	3.5046	-1.5106	25.06	0.06	-0.750			
0.7019	44923.34	3.5020	3.5031	-1.4853	25.07	0.07	-0.750			
0.7064	45210.20	3.4990	3.4989	-1.4496	25.09	0.09	-0.750			
0.7110	45501.84	3.4960	3.4957	-1.4362	25.11	0.11	-0.750			
0.7149	45756.42	3.4930	3.4929	-1.4002	25.12	0.12	-0.750			
0.7193	46035.90	3.4900	3.4908	-1.3155	25.14	0.14	-0.750			
0.7231	46277.61	3.4870	3.4869	-1.1998	25.15	0.15	-0.750			
