Ah_balance (normalized)	Ah_balance (mAh)	Voltage - fit (V)	Voltage -  interpolate (V)	dQ/dV (1/V)	Temperature (°C)	Temperature - diff (°C)	Current (C)	R_DC 0ms (mOhm)	R_DC 50ms (mOhm)	R_DC 50 ms PEC (mOhm)
0.0481	3076.11	4.1980	4.1980	0.7243	26.02	0.54	0.750			
0.0503	3218.46	4.1950	4.1950	0.7514	26.02	0.54	0.750			
0.0526	3363.51	4.1920	4.1919	0.7544	26.02	0.54	0.750			
0.0548	3507.86	4.1890	4.1890	0.7556	26.02	0.54	0.750			
0.0571	3654.32	4.1860	4.1861	0.7537	26.02	0.54	0.750			
0.0594	3798.90	4.1830	4.1829	0.7564	26.01	0.53	0.750			
0.0616	3943.38	4.1800	4.1800	0.7541	26.01	0.53	0.750			
0.0639	4087.90	4.1770	4.1770	0.7556	26.01	0.53	0.750			
0.0661	4233.26	4.1740	4.1741	0.7601	26.01	0.53	0.750			
0.0685	4380.84	4.1710	4.1709	0.7606	26.01	0.53	0.750			
0.0707	4526.62	4.1680	4.1680	0.7616	26.01	0.53	0.750			
0.0730	4673.86	4.1650	4.1650	0.7640	26.01	0.53	0.750			
0.0753	4818.34	4.1620	4.1620	0.7645	26.01	0.53	0.750			
0.0776	4966.46	4.1590	4.1590	0.7649	26.01	0.53	0.750			
0.0799	5112.86	4.1560	4.1560	0.7655	26.01	0.53	0.750			
0.0822	5260.76	4.1530	4.1530	0.7643	26.01	0.53	0.750			
0.0845	5407.83	4.1500	4.1500	0.7692	26.01	0.53	0.750			
0.0868	5555.59	4.1470	4.1470	0.7703	26.01	0.53	0.750			
0.0891	5701.79	4.1440	4.1439	0.7772	26.01	0.53	0.750			
0.0914	5851.65	4.1410	4.1411	0.7804	26.01	0.53	0.750			
0.0938	6004.71	4.1380	4.1379	0.7796	26.01	0.53	0.750			
0.0962	6154.00	4.1350	4.1351	0.7788	26.01	0.53	0.750			
0.0985	6304.09	4.1320	4.1321	0.7793	26.01	0.53	0.750			
0.1008	6451.61	4.1290	4.1290	0.7776	26.01	0.53	0.750			
0.1031	6600.29	4.1260	4.1260	0.7785	26.01	0.53	0.750			
0.1055	6749.40	4.1230	4.1230	0.7772	26.01	0.53	0.750			
0.1078	6900.11	4.1200	4.1200	0.7818	26.01	0.53	0.750			
0.1102	7051.28	4.1170	4.1170	0.7859	26.01	0.53	0.750			
0.1125	7200.40	4.1140	4.1140	0.7847	26.01	0.53	0.750			
0.1149	7351.79	4.1110	4.1110	0.7856	26.01	0.53	0.750			
0.1172	7502.50	4.1080	4.1080	0.7883	26.01	0.53	0.750			
0.1196	7654.61	4.1050	4.1050	0.7862	26.01	0.53	0.750			
0.1220	7805.60	4.1020	4.1020	0.7890	26.01	0.53	0.750			
0.1243	7956.15	4.0990	4.0990	0.7917	26.01	0.53	0.750			
0.1267	8108.22	4.0960	4.0959	0.7929	26.01	0.53	0.750			
0.1291	8260.67	4.0930	4.0930	0.7921	26.01	0.53	0.750			
0.1315	8414.76	4.0900	4.0900	0.7896	26.01	0.53	0.750			
0.1338	8566.12	4.0870	4.0871	0.7946	26.01	0.53	0.750			
0.1362	8718.17	4.0840	4.0840	0.8019	26.01	0.53	0.750			
0.1386	8869.89	4.0810	4.0810	0.8016	26.01	0.53	0.750			
0.1410	9025.63	4.0780	4.0781	0.8039	26.01	0.53	0.750			
0.1435	9182.02	4.0750	4.0750	0.8087	26.01	0.53	0.750			
0.1459	9338.11	4.0720	4.0721	0.8113	26.01	0.53	0.750			
0.1484	9495.04	4.0690	4.0690	0.8135	26.01	0.53	0.750			
0.1508	9648.96	4.0660	4.0659	0.8103	26.01	0.53	0.750			
0.1532	9803.22	4.0630	4.0631	0.8142	26.01	0.53	0.750			
0.1556	9961.30	4.0600	4.0600	0.8140	26.01	0.53	0.750			
0.1581	10117.51	4.0570	4.0569	0.8205	26.01	0.53	0.750			
0.1606	10275.33	4.0540	4.0541	0.8232	26.01	0.53	0.750			
0.1630	10433.94	4.0510	4.0510	0.8228	26.01	0.53	0.750			
0.1655	10592.48	4.0480	4.0480	0.8250	26.01	0.53	0.750			
0.1680	10752.87	4.0450	4.0450	0.8209	26.01	0.53	0.750			
0.1704	10908.29	4.0420	4.0421	0.8254	26.01	0.53	0.750			
0.1729	11067.41	4.0390	4.0390	0.8319	26.01	0.53	0.750			
0.1754	11225.61	4.0360	4.0361	0.8339	26.01	0.53	0.750			
0.1779	11386.22	4.0330	4.0330	0.8410	26.01	0.53	0.750			
0.1805	11549.96	4.0300	4.0301	0.8410	26.01	0.53	0.750			
0.1830	11712.78	4.0270	4.0270	0.8454	26.01	0.53	0.750			
0.1855	11875.07	4.0240	4.0240	0.8478	26.01	0.53	0.750			
0.1881	12036.45	4.0210	4.0210	0.8466	26.01	0.53	0.750			
0.1906	12199.27	4.0180	4.0180	0.8490	26.01	0.53	0.750			
0.1932	12363.35	4.0150	4.0150	0.8499	26.01	0.53	0.750			
0.1957	12526.93	4.0120	4.0121	0.8551	26.01	0.53	0.750			
0.1983	12692.09	4.0090	4.0090	0.8593	26.01	0.53	0.750			
0.2009	12856.98	4.0060	4.0059	0.8601	26.01	0.53	0.750			
0.2035	13022.67	4.0030	4.0030	0.8604	26.01	0.53	0.750			
0.2061	13187.91	4.0000	4.0001	0.8591	26.01	0.53	0.750			
0.2086	13352.70	3.9970	3.9970	0.8634	26.01	0.53	0.750			
0.2112	13517.89	3.9940	3.9940	0.8691	26.01	0.53	0.750			
0.2138	13684.22	3.9910	3.9909	0.8702	26.01	0.53	0.750			
0.2164	13851.51	3.9880	3.9880	0.8767	26.01	0.53	0.750			
0.2191	14022.02	3.9850	3.9850	0.8774	26.01	0.53	0.750			
0.2217	14191.55	3.9820	3.9820	0.8786	26.01	0.53	0.750			
0.2244	14361.06	3.9790	3.9790	0.8796	26.01	0.53	0.750			
0.2270	14528.53	3.9760	3.9758	0.8769	26.01	0.53	0.750			
0.2296	14696.25	3.9730	3.9730	0.8736	26.01	0.53	0.750			
0.2323	14864.67	3.9700	3.9700	0.8755	26.01	0.53	0.750			
0.2349	15031.49	3.9670	3.9670	0.8804	26.01	0.53	0.750			
0.2375	15201.86	3.9640	3.9641	0.8857	26.01	0.53	0.750			
0.2402	15371.67	3.9610	3.9609	0.8849	26.01	0.53	0.750			
0.2429	15544.41	3.9580	3.9580	0.8715	26.01	0.53	0.750			
0.2455	15713.53	3.9550	3.9551	0.8488	26.01	0.53	0.750			
0.2480	15870.79	3.9520	3.9522	0.8431	26.00	0.52	0.750			
0.2504	16028.48	3.9490	3.9492	0.8344	26.00	0.52	0.750			
0.2529	16184.69	3.9460	3.9459	0.8393	26.00	0.52	0.750			
0.2554	16342.65	3.9430	3.9430	0.8449	26.00	0.52	0.750			
0.2579	16506.69	3.9400	3.9402	0.8626	26.00	0.52	0.750			
0.2606	16680.53	3.9370	3.9370	0.8868	26.00	0.52	0.750			
0.2633	16850.82	3.9340	3.9340	0.8837	26.00	0.52	0.750			
0.2660	17021.73	3.9310	3.9310	0.8853	26.00	0.52	0.750			
0.2687	17194.55	3.9280	3.9280	0.8786	26.00	0.52	0.750			
0.2713	17360.80	3.9250	3.9251	0.8829	25.99	0.51	0.750			
0.2739	17529.55	3.9220	3.9221	0.8846	25.99	0.51	0.750			
0.2765	17698.48	3.9190	3.9188	0.8847	25.99	0.51	0.750			
0.2792	17868.16	3.9160	3.9161	0.8864	25.99	0.51	0.750			
0.2819	18040.02	3.9130	3.9131	0.8842	25.98	0.50	0.750			
0.2845	18209.73	3.9100	3.9100	0.8841	25.98	0.50	0.750			
0.2872	18379.61	3.9070	3.9071	0.8815	25.97	0.49	0.750			
0.2898	18548.26	3.9040	3.9037	0.8828	25.97	0.49	0.750			
0.2925	18717.90	3.9010	3.9011	0.8828	25.97	0.49	0.750			
0.2951	18887.95	3.8980	3.8981	0.8871	25.96	0.48	0.750			
0.2978	19059.73	3.8950	3.8950	0.8932	25.96	0.48	0.750			
0.3005	19232.52	3.8920	3.8920	0.8953	25.95	0.47	0.750			
0.3032	19402.19	3.8890	3.8890	0.8916	25.95	0.47	0.750			
0.3059	19575.24	3.8860	3.8860	0.8828	25.94	0.46	0.750			
0.3085	19743.55	3.8830	3.8831	0.8910	25.94	0.46	0.750			
0.3112	19914.44	3.8800	3.8800	0.8928	25.94	0.46	0.750			
0.3138	20084.90	3.8770	3.8769	0.8953	25.93	0.45	0.750			
0.3165	20256.81	3.8740	3.8741	0.9019	25.93	0.45	0.750			
0.3193	20432.62	3.8710	3.8710	0.8912	25.92	0.44	0.750			
0.3219	20601.86	3.8680	3.8681	0.8993	25.92	0.44	0.750			
0.3246	20772.84	3.8650	3.8652	0.8991	25.91	0.43	0.750			
0.3273	20946.13	3.8620	3.8613	0.9057	25.91	0.43	0.750			
0.3300	21122.56	3.8590	3.8591	0.9061	25.90	0.42	0.750			
0.3328	21296.59	3.8560	3.8561	0.9123	25.89	0.41	0.750			
0.3355	21474.51	3.8530	3.8531	0.9243	25.88	0.40	0.750			
0.3383	21652.52	3.8500	3.8500	0.9129	25.87	0.39	0.750			
0.3410	21826.89	3.8470	3.8470	0.9254	25.87	0.39	0.750			
0.3438	22004.30	3.8440	3.8441	0.9377	25.86	0.38	0.750			
0.3467	22186.74	3.8410	3.8408	0.9537	25.86	0.38	0.750	0.315	0.453	
0.3496	22373.55	3.8380	3.8382	0.9680	25.85	0.37	0.750			
0.3525	22560.01	3.8350	3.8348	0.9684	25.85	0.37	0.750			
0.3554	22746.93	3.8320	3.8321	0.9731	25.84	0.36	0.750			
0.3583	22929.93	3.8290	3.8291	0.9617	25.83	0.35	0.750			
0.3612	23113.78	3.8260	3.8261	0.9719	25.82	0.34	0.750			
0.3641	23300.00	3.8230	3.8227	0.9804	25.81	0.33	0.750			
0.3670	23489.57	3.8200	3.8201	0.9909	25.80	0.32	0.750			
0.3700	23681.96	3.8170	3.8171	1.0049	25.79	0.31	0.750			
0.3731	23878.04	3.8140	3.8141	1.0171	25.78	0.30	0.750			
0.3762	24079.63	3.8110	3.8108	1.0331	25.77	0.29	0.750			
0.3793	24273.01	3.8080	3.8080	1.0154	25.77	0.29	0.750			
0.3823	24468.26	3.8050	3.8050	1.0262	25.76	0.28	0.750			
0.3854	24665.27	3.8020	3.8020	1.0344	25.76	0.28	0.750			
0.3885	24865.10	3.7990	3.7989	1.0413	25.75	0.27	0.750			
0.3917	25067.10	3.7960	3.7961	1.0288	25.74	0.26	0.750			
0.3947	25260.06	3.7930	3.7930	1.0595	25.73	0.25	0.750			
0.3979	25463.57	3.7900	3.7901	1.0844	25.72	0.24	0.750			
0.4012	25675.26	3.7870	3.7868	1.0970	25.71	0.23	0.750			
0.4045	25887.54	3.7840	3.7842	1.1243	25.70	0.22	0.750			
0.4079	26108.49	3.7810	3.7812	1.1538	25.69	0.21	0.750			
0.4115	26334.12	3.7780	3.7781	1.1832	25.68	0.20	0.750			
0.4151	26565.68	3.7750	3.7748	1.1780	25.67	0.19	0.750			
0.4186	26790.47	3.7720	3.7721	1.2038	25.66	0.18	0.750			
0.4223	27024.29	3.7690	3.7691	1.2339	25.65	0.17	0.750			
0.4260	27265.24	3.7660	3.7659	1.2617	25.63	0.15	0.750			
0.4298	27508.84	3.7630	3.7631	1.2580	25.63	0.15	0.750			
0.4335	27745.43	3.7600	3.7602	1.2933	25.62	0.14	0.750			
0.4375	27997.61	3.7570	3.7572	1.3185	25.61	0.13	0.750			
0.4414	28251.56	3.7540	3.7542	1.3557	25.60	0.12	0.750			
0.4456	28515.79	3.7510	3.7512	1.3973	25.59	0.11	0.750			
0.4499	28793.75	3.7480	3.7482	1.4332	25.57	0.09	0.750			
0.4544	29082.23	3.7450	3.7450	1.4422	25.55	0.07	0.750			
0.4588	29364.38	3.7420	3.7420	1.4350	25.54	0.06	0.750			
0.4632	29643.96	3.7390	3.7390	1.4644	25.53	0.05	0.750			
0.4676	29923.28	3.7360	3.7360	1.5010	25.52	0.04	0.750			
0.4719	30203.47	3.7330	3.7334	1.5585	25.51	0.03	0.750			
0.4767	30507.25	3.7300	3.7299	1.6326	25.49	0.01	0.750			
0.4817	30829.34	3.7270	3.7273	1.6941	25.48	-0.00	0.750			
0.4870	31165.86	3.7240	3.7245	1.7703	25.47	-0.01	0.750			
0.4923	31506.18	3.7210	3.7204	1.8048	25.45	-0.03	0.750			
0.4979	31867.39	3.7180	3.7177	1.8486	25.44	-0.04	0.750			
0.5033	32211.65	3.7150	3.7154	1.8479	25.43	-0.05	0.750			
0.5091	32580.95	3.7120	3.7123	1.9109	25.41	-0.07	0.750			
0.5147	32937.96	3.7090	3.7081	1.9270	25.40	-0.08	0.750			
0.5206	33319.99	3.7060	3.7060	2.0309	25.39	-0.09	0.750			
0.5268	33714.86	3.7030	3.7033	2.1439	25.37	-0.11	0.750			
0.5336	34148.87	3.7000	3.6994	2.2691	25.36	-0.12	0.750			
0.5403	34578.21	3.6970	3.6970	2.2134	25.36	-0.12	0.750			
0.5473	35028.10	3.6940	3.6935	2.2630	25.35	-0.13	0.750			
0.5540	35457.24	3.6910	3.6911	2.2884	25.34	-0.14	0.750			
0.5610	35904.73	3.6880	3.6876	2.3687	25.33	-0.15	0.750			
0.5683	36370.20	3.6850	3.6844	2.4040	25.31	-0.17	0.750			
0.5755	36834.00	3.6820	3.6820	2.4662	25.30	-0.18	0.750			
0.5830	37310.59	3.6790	3.6790	2.4308	25.30	-0.18	0.750			
0.5903	37778.84	3.6760	3.6758	2.4132	25.31	-0.17	0.750			
0.5974	38232.46	3.6730	3.6733	2.3661	25.31	-0.17	0.750			
0.6040	38656.47	3.6700	3.6698	2.1766	25.31	-0.17	0.750			
0.6109	39098.07	3.6670	3.6672	2.0882	25.32	-0.16	0.750			
0.6166	39464.56	3.6640	3.6644	1.9335	25.32	-0.16	0.750			
0.6220	39807.52	3.6610	3.6612	1.7909	25.33	-0.15	0.750			
0.6272	40137.79	3.6580	3.6572	1.6936	25.34	-0.14	0.750			
0.6321	40455.79	3.6550	3.6555	1.5761	25.34	-0.14	0.750			
0.6369	40759.01	3.6520	3.6522	1.5018	25.35	-0.13	0.750			
0.6413	41040.98	3.6490	3.6491	1.3853	25.35	-0.13	0.750			
0.6451	41286.09	3.6460	3.6461	1.2530	25.36	-0.12	0.750			
0.6487	41518.45	3.6430	3.6430	1.1831	25.37	-0.11	0.750			
0.6521	41736.04	3.6400	3.6395	1.1233	25.38	-0.10	0.750			
0.6554	41942.41	3.6370	3.6372	1.0723	25.39	-0.09	0.750			
0.6585	42141.23	3.6340	3.6341	1.0190	25.39	-0.09	0.750			
0.6614	42330.29	3.6310	3.6310	0.9831	25.39	-0.09	0.750			
0.6643	42513.43	3.6280	3.6276	0.9377	25.40	-0.08	0.750			
0.6671	42691.46	3.6250	3.6252	0.9123	25.41	-0.07	0.750			
0.6698	42866.35	3.6220	3.6221	0.8790	25.42	-0.06	0.750			
0.6724	43033.38	3.6190	3.6190	0.8402	25.43	-0.05	0.750			
0.6750	43197.39	3.6160	3.6159	0.8108	25.44	-0.04	0.750			
0.6772	43339.65	3.6130	3.6128	0.7488	25.45	-0.03	0.750			
0.6794	43480.09	3.6100	3.6101	0.7056	25.46	-0.02	0.750			
0.6815	43612.80	3.6070	3.6070	0.6624	25.46	-0.02	0.750			
0.6834	43736.21	3.6040	3.6040	0.6148	25.47	-0.01	0.750			
0.6851	43849.37	3.6010	3.6010	0.5628	25.47	-0.01	0.750			
0.6868	43953.38	3.5980	3.5980	0.5163	25.47	-0.01	0.750			
0.6882	44046.92	3.5950	3.5950	0.4688	25.48	-0.00	0.750			
0.6896	44132.08	3.5920	3.5917	0.4224	25.48	-0.00	0.750			
0.6908	44209.13	3.5890	3.5890	0.3764	25.48	0.00	0.750			
0.6918	44277.65	3.5860	3.5859	0.3262	25.49	0.01	0.750			
0.6928	44336.79	3.5830	3.5831	0.2804	25.49	0.01	0.750			
0.6935	44386.60	3.5800	3.5799	0.2298	25.49	0.01	0.750			
0.6942	44425.79	3.5770	3.5771	0.1764	25.49	0.01	0.750			
0.6946	44454.38	3.5740	3.5743	0.1222	25.49	0.01	0.750			
0.6949	44472.60	3.5710	3.5718	0.0708	25.49	0.01	0.750			
