Ah_balance (normalized)	Ah_balance (mAh)	Voltage - fit (V)	Voltage -  interpolate (V)	dQ/dV (1/V)	Temperature (°C)	Temperature - diff (°C)	Current (C)	R_DC 0ms (mOhm)	R_DC 50ms (mOhm)	R_DC 50 ms PEC (mOhm)
0.0491	3142.59	4.1970	4.1970	0.7368	26.03	0.43	0.750			
0.0514	3288.87	4.1940	4.1939	0.7432	26.03	0.43	0.750			
0.0536	3431.36	4.1910	4.1910	0.7225	26.03	0.43	0.750			
0.0557	3565.96	4.1880	4.1882	0.7128	26.03	0.43	0.750			
0.0578	3700.22	4.1850	4.1853	0.7109	26.03	0.43	0.750			
0.0599	3833.74	4.1820	4.1814	0.7115	26.03	0.43	0.750			
0.0620	3965.52	4.1790	4.1789	0.7150	26.03	0.43	0.750			
0.0642	4106.41	4.1760	4.1760	0.7192	26.03	0.43	0.750			
0.0663	4245.65	4.1730	4.1731	0.7364	26.03	0.43	0.750			
0.0686	4391.67	4.1700	4.1700	0.7528	26.03	0.43	0.750			
0.0709	4534.89	4.1670	4.1672	0.7578	26.03	0.43	0.750			
0.0731	4680.52	4.1640	4.1642	0.7613	26.03	0.43	0.750			
0.0755	4830.23	4.1610	4.1610	0.7661	26.03	0.43	0.750			
0.0778	4978.21	4.1580	4.1580	0.7693	26.03	0.43	0.750			
0.0801	5127.50	4.1550	4.1551	0.7712	26.03	0.43	0.750			
0.0824	5274.28	4.1520	4.1520	0.7654	26.03	0.43	0.750			
0.0847	5421.51	4.1490	4.1489	0.7639	26.03	0.43	0.750			
0.0870	5567.89	4.1460	4.1460	0.7680	26.03	0.43	0.750			
0.0893	5718.11	4.1430	4.1430	0.7619	26.03	0.43	0.750			
0.0916	5862.30	4.1400	4.1400	0.7640	26.03	0.43	0.750			
0.0939	6007.39	4.1370	4.1372	0.7663	26.03	0.43	0.750			
0.0962	6154.45	4.1340	4.1339	0.7663	26.03	0.43	0.750			
0.0985	6302.05	4.1310	4.1311	0.7684	26.03	0.43	0.750			
0.1008	6449.93	4.1280	4.1280	0.7702	26.04	0.44	0.750			
0.1031	6597.37	4.1250	4.1251	0.7602	26.04	0.44	0.750			
0.1054	6743.20	4.1220	4.1222	0.7652	26.04	0.44	0.750			
0.1076	6889.31	4.1190	4.1191	0.7701	26.05	0.45	0.750			
0.1099	7036.45	4.1160	4.1156	0.7760	26.05	0.45	0.750			
0.1123	7188.87	4.1130	4.1132	0.7845	26.05	0.45	0.750			
0.1147	7339.93	4.1100	4.1101	0.7873	26.05	0.45	0.750			
0.1171	7495.44	4.1070	4.1071	0.7932	26.05	0.45	0.750			
0.1195	7645.66	4.1040	4.1040	0.7833	26.05	0.45	0.750			
0.1218	7796.28	4.1010	4.1010	0.7874	26.05	0.45	0.750			
0.1242	7947.58	4.0980	4.0980	0.7907	26.05	0.45	0.750			
0.1265	8099.02	4.0950	4.0950	0.7943	26.05	0.45	0.750			
0.1289	8251.24	4.0920	4.0920	0.7910	26.06	0.46	0.750			
0.1313	8401.66	4.0890	4.0891	0.7915	26.06	0.46	0.750			
0.1337	8553.76	4.0860	4.0860	0.7944	26.06	0.46	0.750			
0.1360	8706.52	4.0830	4.0831	0.7966	26.06	0.46	0.750			
0.1385	8864.43	4.0800	4.0800	0.7848	26.06	0.46	0.750			
0.1408	9012.55	4.0770	4.0771	0.7913	26.07	0.47	0.750			
0.1432	9164.56	4.0740	4.0741	0.8078	26.07	0.47	0.750			
0.1455	9314.36	4.0710	4.0712	0.8019	26.07	0.47	0.750			
0.1479	9468.02	4.0680	4.0681	0.8123	26.07	0.47	0.750			
0.1504	9627.23	4.0650	4.0652	0.8166	26.07	0.47	0.750			
0.1529	9787.30	4.0620	4.0621	0.8253	26.07	0.47	0.750			
0.1554	9948.75	4.0590	4.0590	0.8247	26.07	0.47	0.750			
0.1579	10104.71	4.0560	4.0561	0.8133	26.07	0.47	0.750			
0.1603	10260.29	4.0530	4.0530	0.8173	26.07	0.47	0.750			
0.1628	10418.99	4.0500	4.0500	0.8136	26.07	0.47	0.750			
0.1652	10573.99	4.0470	4.0470	0.8157	26.07	0.47	0.750			
0.1677	10730.76	4.0440	4.0440	0.8217	26.08	0.48	0.750			
0.1701	10888.12	4.0410	4.0411	0.8262	26.08	0.48	0.750			
0.1726	11047.87	4.0380	4.0380	0.8302	26.08	0.48	0.750			
0.1751	11207.41	4.0350	4.0351	0.8305	26.08	0.48	0.750			
0.1776	11368.62	4.0320	4.0320	0.8216	26.08	0.48	0.750			
0.1801	11523.35	4.0290	4.0291	0.8316	26.09	0.49	0.750			
0.1825	11680.37	4.0260	4.0262	0.8317	26.09	0.49	0.750			
0.1850	11840.86	4.0230	4.0232	0.8402	26.09	0.49	0.750			
0.1875	12002.71	4.0200	4.0202	0.8468	26.10	0.50	0.750			
0.1901	12168.15	4.0170	4.0171	0.8557	26.10	0.50	0.750			
0.1928	12337.62	4.0140	4.0140	0.8621	26.10	0.50	0.750			
0.1953	12501.35	4.0110	4.0110	0.8498	26.11	0.51	0.750			
0.1979	12664.20	4.0080	4.0080	0.8550	26.11	0.51	0.750			
0.2005	12831.73	4.0050	4.0049	0.8516	26.11	0.51	0.750			
0.2030	12993.73	4.0020	4.0020	0.8566	26.11	0.51	0.750			
0.2056	13158.12	3.9990	3.9991	0.8606	26.11	0.51	0.750			
0.2082	13323.02	3.9960	3.9960	0.8647	26.11	0.51	0.750			
0.2108	13489.64	3.9930	3.9930	0.8693	26.11	0.51	0.750			
0.2134	13659.86	3.9900	3.9900	0.8582	26.11	0.51	0.750			
0.2160	13821.65	3.9870	3.9871	0.8625	26.11	0.51	0.750			
0.2186	13990.60	3.9840	3.9841	0.8679	26.11	0.51	0.750			
0.2211	14153.03	3.9810	3.9811	0.8575	26.11	0.51	0.750			
0.2237	14315.23	3.9780	3.9782	0.8652	26.11	0.51	0.750			
0.2263	14482.06	3.9750	3.9752	0.8729	26.11	0.51	0.750			
0.2289	14651.27	3.9720	3.9720	0.8835	26.11	0.51	0.750			
0.2317	14825.76	3.9690	3.9691	0.8926	26.11	0.51	0.750			
0.2343	14994.46	3.9660	3.9661	0.8821	26.11	0.51	0.750			
0.2370	15169.30	3.9630	3.9630	0.8803	26.11	0.51	0.750			
0.2396	15333.96	3.9600	3.9600	0.8678	26.11	0.51	0.750			
0.2422	15499.64	3.9570	3.9572	0.8700	26.11	0.51	0.750			
0.2448	15665.83	3.9540	3.9541	0.8749	26.11	0.51	0.750			
0.2474	15832.58	3.9510	3.9508	0.8787	26.11	0.51	0.750			
0.2501	16005.71	3.9480	3.9480	0.8746	26.11	0.51	0.750			
0.2527	16173.59	3.9450	3.9451	0.8819	26.11	0.51	0.750			
0.2554	16342.79	3.9420	3.9421	0.8842	26.11	0.51	0.750			
0.2580	16512.08	3.9390	3.9391	0.8788	26.11	0.51	0.750			
0.2606	16679.62	3.9360	3.9361	0.8786	26.11	0.51	0.750			
0.2633	16848.73	3.9330	3.9331	0.8784	26.11	0.51	0.750			
0.2659	17018.70	3.9300	3.9301	0.8816	26.11	0.51	0.750			
0.2686	17189.85	3.9270	3.9269	0.8837	26.11	0.51	0.750			
0.2712	17357.37	3.9240	3.9240	0.8765	26.11	0.51	0.750			
0.2738	17526.04	3.9210	3.9210	0.8741	26.11	0.51	0.750			
0.2765	17695.17	3.9180	3.9180	0.8665	26.10	0.50	0.750			
0.2791	17859.86	3.9150	3.9151	0.8660	26.10	0.50	0.750			
0.2816	18023.88	3.9120	3.9121	0.8659	26.09	0.49	0.750			
0.2842	18189.89	3.9090	3.9086	0.8709	26.09	0.49	0.750			
0.2868	18356.44	3.9060	3.9061	0.8769	26.09	0.49	0.750			
0.2895	18526.51	3.9030	3.9030	0.8732	26.08	0.48	0.750			
0.2921	18695.80	3.9000	3.9001	0.8840	26.08	0.48	0.750			
0.2948	18864.31	3.8970	3.8971	0.8787	26.07	0.47	0.750			
0.2974	19033.87	3.8940	3.8941	0.8799	26.07	0.47	0.750			
0.3000	19202.43	3.8910	3.8911	0.8802	26.06	0.46	0.750			
0.3027	19372.32	3.8880	3.8881	0.8850	26.05	0.45	0.750			
0.3054	19544.22	3.8850	3.8849	0.8884	26.04	0.44	0.750			
0.3080	19713.66	3.8820	3.8820	0.8816	26.03	0.43	0.750			
0.3107	19883.06	3.8790	3.8790	0.8871	26.03	0.43	0.750			
0.3134	20057.50	3.8760	3.8759	0.8773	26.02	0.42	0.750			
0.3160	20223.32	3.8730	3.8730	0.8836	26.02	0.42	0.750			
0.3186	20391.22	3.8700	3.8702	0.8840	26.02	0.42	0.750			
0.3213	20560.63	3.8670	3.8668	0.8854	26.01	0.41	0.750			
0.3239	20731.26	3.8640	3.8641	0.8885	26.00	0.40	0.750			
0.3267	20906.73	3.8610	3.8610	0.8632	25.99	0.39	0.750			
0.3292	21067.86	3.8580	3.8582	0.8874	25.99	0.39	0.750			
0.3319	21238.68	3.8550	3.8551	0.8887	25.98	0.38	0.750			
0.3345	21409.54	3.8520	3.8510	0.8978	25.97	0.37	0.750			
0.3372	21581.78	3.8490	3.8493	0.9086	25.96	0.36	0.750			
0.3400	21759.29	3.8460	3.8462	0.9245	25.95	0.35	0.750			
0.3428	21942.29	3.8430	3.8430	0.9411	25.94	0.34	0.750			
0.3457	22121.67	3.8400	3.8398	0.9291	25.93	0.33	0.750	0.316	0.449	
0.3485	22301.72	3.8370	3.8371	0.9393	25.93	0.33	0.750			
0.3513	22485.26	3.8340	3.8340	0.9446	25.92	0.32	0.750			
0.3542	22667.11	3.8310	3.8310	0.9464	25.91	0.31	0.750			
0.3570	22846.21	3.8280	3.8280	0.9450	25.91	0.31	0.750			
0.3598	23028.48	3.8250	3.8251	0.9552	25.90	0.30	0.750			
0.3628	23217.08	3.8220	3.8220	0.9454	25.89	0.29	0.750			
0.3655	23394.69	3.8190	3.8190	0.9603	25.89	0.29	0.750			
0.3684	23576.96	3.8160	3.8161	0.9781	25.88	0.28	0.750			
0.3713	23764.82	3.8130	3.8130	0.9870	25.87	0.27	0.750			
0.3743	23957.83	3.8100	3.8102	0.9997	25.86	0.26	0.750			
0.3774	24151.58	3.8070	3.8072	1.0141	25.85	0.25	0.750			
0.3805	24349.18	3.8040	3.8042	1.0381	25.84	0.24	0.750			
0.3837	24558.01	3.8010	3.8008	1.0615	25.83	0.23	0.750			
0.3868	24753.38	3.7980	3.7979	1.0461	25.82	0.22	0.750			
0.3899	24955.41	3.7950	3.7952	1.0595	25.81	0.21	0.750			
0.3931	25160.12	3.7920	3.7920	1.0840	25.80	0.20	0.750			
0.3964	25370.37	3.7890	3.7887	1.0972	25.79	0.19	0.750			
0.3997	25581.60	3.7860	3.7859	1.0889	25.78	0.18	0.750			
0.4029	25786.73	3.7830	3.7831	1.1035	25.77	0.17	0.750			
0.4063	26001.85	3.7800	3.7803	1.1370	25.76	0.16	0.750			
0.4097	26220.91	3.7770	3.7766	1.1633	25.75	0.15	0.750			
0.4132	26443.95	3.7740	3.7741	1.1854	25.74	0.14	0.750			
0.4168	26674.18	3.7710	3.7712	1.2170	25.73	0.13	0.750			
0.4206	26921.45	3.7680	3.7679	1.2386	25.71	0.11	0.750			
0.4245	27165.92	3.7650	3.7650	1.2660	25.70	0.10	0.750			
0.4281	27396.93	3.7620	3.7621	1.2752	25.70	0.10	0.750			
0.4319	27643.46	3.7590	3.7590	1.3031	25.69	0.09	0.750			
0.4358	27894.23	3.7560	3.7560	1.3069	25.68	0.08	0.750			
0.4397	28143.90	3.7530	3.7532	1.3435	25.67	0.07	0.750			
0.4438	28404.40	3.7500	3.7502	1.3642	25.66	0.06	0.750			
0.4479	28666.76	3.7470	3.7466	1.4159	25.65	0.05	0.750			
0.4523	28945.18	3.7440	3.7442	1.4144	25.63	0.03	0.750			
0.4566	29219.43	3.7410	3.7404	1.4678	25.62	0.02	0.750			
0.4611	29512.52	3.7380	3.7383	1.5122	25.61	0.01	0.750			
0.4656	29800.24	3.7350	3.7348	1.5320	25.59	-0.01	0.750			
0.4704	30103.39	3.7320	3.7322	1.5675	25.58	-0.02	0.750			
0.4751	30405.53	3.7290	3.7281	1.5983	25.57	-0.03	0.750			
0.4799	30715.02	3.7260	3.7256	1.6757	25.56	-0.04	0.750			
0.4851	31046.63	3.7230	3.7224	1.7471	25.55	-0.05	0.750			
0.4903	31382.20	3.7200	3.7199	1.7942	25.54	-0.06	0.750			
0.4960	31743.38	3.7170	3.7170	1.8604	25.53	-0.07	0.750			
0.5017	32108.55	3.7140	3.7145	1.9006	25.52	-0.08	0.750			
0.5074	32473.53	3.7110	3.7114	1.9565	25.50	-0.10	0.750			
0.5133	32850.67	3.7080	3.7075	2.0108	25.49	-0.11	0.750			
0.5194	33242.26	3.7050	3.7053	2.0235	25.48	-0.12	0.750			
0.5254	33623.44	3.7020	3.7025	2.0854	25.46	-0.14	0.750			
0.5319	34039.82	3.6990	3.6987	2.2312	25.45	-0.15	0.750			
0.5384	34457.48	3.6960	3.6964	2.2716	25.44	-0.16	0.750			
0.5453	34898.40	3.6930	3.6933	2.3329	25.43	-0.17	0.750			
0.5525	35360.36	3.6900	3.6903	2.3462	25.43	-0.17	0.750			
0.5593	35793.58	3.6870	3.6865	2.3263	25.43	-0.17	0.750			
0.5663	36245.56	3.6840	3.6844	2.3925	25.42	-0.18	0.750			
0.5737	36718.59	3.6810	3.6806	2.4906	25.41	-0.19	0.750			
0.5812	37199.46	3.6780	3.6785	2.4991	25.42	-0.18	0.750			
0.5883	37651.61	3.6750	3.6746	2.3495	25.42	-0.18	0.750			
0.5951	38088.17	3.6720	3.6724	2.2084	25.43	-0.17	0.750			
0.6016	38504.85	3.6690	3.6688	2.1120	25.43	-0.17	0.750			
0.6078	38896.88	3.6660	3.6658	1.9640	25.43	-0.17	0.750			
0.6135	39267.05	3.6630	3.6626	1.8953	25.44	-0.16	0.750			
0.6186	39589.06	3.6600	3.6601	1.7183	25.44	-0.16	0.750			
0.6236	39910.61	3.6570	3.6572	1.5978	25.45	-0.15	0.750			
0.6283	40211.35	3.6540	3.6544	1.5122	25.46	-0.14	0.750			
0.6327	40495.09	3.6510	3.6513	1.4158	25.47	-0.13	0.750			
0.6368	40756.87	3.6480	3.6483	1.3247	25.48	-0.12	0.750			
0.6407	41007.62	3.6450	3.6452	1.2534	25.49	-0.11	0.750			
0.6443	41237.54	3.6420	3.6421	1.1832	25.49	-0.11	0.750			
0.6479	41463.60	3.6390	3.6391	1.1297	25.50	-0.10	0.750			
0.6510	41666.10	3.6360	3.6360	1.0527	25.51	-0.09	0.750			
0.6541	41865.29	3.6330	3.6331	0.9911	25.52	-0.08	0.750			
0.6570	42047.43	3.6300	3.6300	0.9710	25.52	-0.08	0.750			
0.6598	42226.93	3.6270	3.6271	0.9398	25.53	-0.07	0.750			
0.6627	42410.87	3.6240	3.6240	0.8947	25.54	-0.06	0.750			
0.6653	42577.00	3.6210	3.6214	0.8703	25.54	-0.06	0.750			
0.6679	42742.60	3.6180	3.6182	0.8457	25.54	-0.06	0.750			
0.6704	42905.07	3.6150	3.6153	0.8031	25.55	-0.05	0.750			
0.6728	43058.51	3.6120	3.6113	0.7702	25.55	-0.05	0.750			
0.6750	43198.17	3.6090	3.6092	0.7210	25.56	-0.04	0.750			
0.6771	43334.55	3.6060	3.6063	0.6793	25.57	-0.03	0.750			
0.6791	43462.14	3.6030	3.6033	0.6318	25.58	-0.02	0.750			
0.6809	43578.93	3.6000	3.6001	0.5732	25.59	-0.01	0.750			
0.6826	43684.11	3.5970	3.5970	0.5256	25.59	-0.01	0.750			
0.6841	43782.72	3.5940	3.5939	0.4769	25.60	-0.00	0.750			
0.6855	43869.50	3.5910	3.5910	0.4237	25.60	0.00	0.750			
0.6866	43945.34	3.5880	3.5880	0.3758	25.61	0.01	0.750			
0.6877	44013.54	3.5850	3.5852	0.3288	25.61	0.01	0.750			
0.6886	44070.98	3.5820	3.5824	0.2838	25.62	0.02	0.750			
0.6894	44120.18	3.5790	3.5792	0.2385	25.62	0.02	0.750			
0.6900	44160.70	3.5760	3.5766	0.1973	25.62	0.02	0.750			
0.6905	44194.58	3.5730	3.5739	0.1608	25.62	0.02	0.750			
0.6910	44221.41	3.5700	3.5709	0.1325	25.63	0.03	0.750			
