Ah_balance (normalized)	Ah_balance (mAh)	Voltage - fit (V)	Voltage -  interpolate (V)	dQ/dV (1/V)	Temperature (°C)	Temperature - diff (°C)	Current (C)	R_DC 0ms (mOhm)	R_DC 50ms (mOhm)	R_DC 50 ms PEC (mOhm)
0.0485	3102.48	4.1970	4.1970	0.7065	26.13	0.52	0.750			
0.0506	3238.72	4.1940	4.1942	0.7242	26.13	0.52	0.750			
0.0529	3382.83	4.1910	4.1908	0.7414	26.13	0.52	0.750			
0.0551	3526.66	4.1880	4.1882	0.7500	26.13	0.52	0.750			
0.0574	3672.73	4.1850	4.1851	0.7516	26.13	0.52	0.750			
0.0597	3818.18	4.1820	4.1820	0.7573	26.13	0.52	0.750			
0.0619	3963.53	4.1790	4.1790	0.7783	26.13	0.52	0.750			
0.0642	4106.11	4.1760	4.1760	0.7831	26.13	0.52	0.750			
0.0666	4259.20	4.1730	4.1729	0.7915	26.13	0.52	0.750			
0.0690	4416.15	4.1700	4.1697	0.8021	26.13	0.52	0.750			
0.0715	4575.75	4.1670	4.1673	0.7976	26.13	0.52	0.750			
0.0739	4729.09	4.1640	4.1640	0.7919	26.13	0.52	0.750			
0.0762	4879.27	4.1610	4.1610	0.7813	26.13	0.52	0.750			
0.0785	5026.20	4.1580	4.1578	0.7733	26.13	0.52	0.750			
0.0808	5170.80	4.1550	4.1550	0.7633	26.13	0.52	0.750			
0.0831	5318.93	4.1520	4.1521	0.7617	26.13	0.52	0.750			
0.0854	5464.82	4.1490	4.1490	0.7677	26.13	0.52	0.750			
0.0877	5611.60	4.1460	4.1461	0.7680	26.13	0.52	0.750			
0.0900	5757.60	4.1430	4.1428	0.7661	26.13	0.52	0.750			
0.0923	5906.05	4.1400	4.1400	0.7711	26.13	0.52	0.750			
0.0946	6055.28	4.1370	4.1371	0.7702	26.13	0.52	0.750			
0.0969	6204.54	4.1340	4.1340	0.7739	26.13	0.52	0.750			
0.0993	6353.69	4.1310	4.1310	0.7752	26.13	0.52	0.750			
0.1016	6500.16	4.1280	4.1280	0.7723	26.13	0.52	0.750			
0.1039	6648.57	4.1250	4.1250	0.7735	26.13	0.52	0.750			
0.1062	6797.72	4.1220	4.1220	0.7751	26.13	0.52	0.750			
0.1085	6947.01	4.1190	4.1190	0.7769	26.13	0.52	0.750			
0.1109	7096.18	4.1160	4.1161	0.7788	26.13	0.52	0.750			
0.1132	7244.53	4.1130	4.1130	0.7800	26.13	0.52	0.750			
0.1155	7394.46	4.1100	4.1098	0.7841	26.13	0.52	0.750			
0.1179	7545.79	4.1070	4.1070	0.7844	26.13	0.52	0.750			
0.1203	7697.81	4.1040	4.1040	0.7853	26.13	0.52	0.750			
0.1226	7848.80	4.1010	4.1011	0.7909	26.13	0.52	0.750			
0.1250	8001.15	4.0980	4.0980	0.7898	26.13	0.52	0.750			
0.1274	8151.55	4.0950	4.0949	0.7903	26.13	0.52	0.750			
0.1297	8303.47	4.0920	4.0921	0.7920	26.13	0.52	0.750			
0.1321	8457.51	4.0890	4.0890	0.7902	26.13	0.52	0.750			
0.1345	8608.42	4.0860	4.0860	0.7948	26.13	0.52	0.750			
0.1369	8760.92	4.0830	4.0830	0.7966	26.13	0.52	0.750			
0.1393	8912.72	4.0800	4.0801	0.7969	26.13	0.52	0.750			
0.1417	9065.98	4.0770	4.0769	0.8028	26.13	0.52	0.750			
0.1441	9220.02	4.0740	4.0740	0.8052	26.13	0.52	0.750			
0.1465	9376.27	4.0710	4.0710	0.8020	26.13	0.52	0.750			
0.1489	9529.45	4.0680	4.0680	0.8064	26.13	0.52	0.750			
0.1513	9683.28	4.0650	4.0651	0.8047	26.13	0.52	0.750			
0.1537	9837.64	4.0620	4.0617	0.8123	26.13	0.52	0.750			
0.1562	9994.52	4.0590	4.0590	0.8180	26.13	0.52	0.750			
0.1586	10152.80	4.0560	4.0560	0.8140	26.13	0.52	0.750			
0.1611	10310.61	4.0530	4.0531	0.8211	26.13	0.52	0.750			
0.1636	10467.23	4.0500	4.0501	0.8200	26.13	0.52	0.750			
0.1660	10624.81	4.0470	4.0466	0.8239	26.13	0.52	0.750			
0.1685	10783.33	4.0440	4.0441	0.8252	26.13	0.52	0.750			
0.1710	10941.34	4.0410	4.0410	0.8247	26.14	0.53	0.750			
0.1735	11101.46	4.0380	4.0381	0.8337	26.14	0.53	0.750			
0.1760	11261.24	4.0350	4.0350	0.8303	26.15	0.54	0.750			
0.1784	11420.57	4.0320	4.0318	0.8348	26.15	0.54	0.750			
0.1810	11581.13	4.0290	4.0291	0.8369	26.15	0.54	0.750			
0.1835	11741.35	4.0260	4.0260	0.8410	26.15	0.54	0.750			
0.1860	11904.58	4.0230	4.0230	0.8467	26.15	0.54	0.750			
0.1885	12066.76	4.0200	4.0200	0.8443	26.15	0.54	0.750			
0.1911	12229.54	4.0170	4.0168	0.8474	26.15	0.54	0.750			
0.1937	12394.27	4.0140	4.0142	0.8504	26.15	0.54	0.750			
0.1962	12557.05	4.0110	4.0110	0.8508	26.15	0.54	0.750			
0.1988	12721.66	4.0080	4.0079	0.8528	26.15	0.54	0.750			
0.2013	12883.34	4.0050	4.0051	0.8518	26.15	0.54	0.750			
0.2039	13047.16	4.0020	4.0020	0.8581	26.15	0.54	0.750			
0.2065	13212.86	3.9990	3.9990	0.8612	26.15	0.54	0.750			
0.2090	13379.13	3.9960	3.9960	0.8637	26.15	0.54	0.750			
0.2116	13545.13	3.9930	3.9930	0.8662	26.15	0.54	0.750			
0.2143	13712.64	3.9900	3.9900	0.8704	26.15	0.54	0.750			
0.2169	13879.26	3.9870	3.9870	0.8696	26.15	0.54	0.750			
0.2195	14046.95	3.9840	3.9840	0.8652	26.15	0.54	0.750			
0.2221	14212.83	3.9810	3.9810	0.8667	26.15	0.54	0.750			
0.2247	14378.55	3.9780	3.9781	0.8713	26.15	0.54	0.750			
0.2273	14545.57	3.9750	3.9750	0.8743	26.15	0.54	0.750			
0.2299	14713.78	3.9720	3.9720	0.8755	26.15	0.54	0.750			
0.2326	14883.21	3.9690	3.9691	0.8723	26.16	0.55	0.750			
0.2352	15051.19	3.9660	3.9660	0.8758	26.16	0.55	0.750			
0.2378	15220.71	3.9630	3.9631	0.8786	26.16	0.55	0.750			
0.2404	15387.14	3.9600	3.9597	0.8734	26.17	0.56	0.750			
0.2430	15554.54	3.9570	3.9571	0.8744	26.17	0.56	0.750			
0.2457	15722.19	3.9540	3.9541	0.8757	26.16	0.55	0.750			
0.2483	15890.79	3.9510	3.9510	0.8797	26.16	0.55	0.750			
0.2510	16061.46	3.9480	3.9480	0.8827	26.15	0.54	0.750			
0.2536	16228.81	3.9450	3.9449	0.8821	26.15	0.54	0.750			
0.2563	16400.76	3.9420	3.9420	0.8759	26.15	0.54	0.750			
0.2589	16569.18	3.9390	3.9390	0.8760	26.15	0.54	0.750			
0.2615	16736.16	3.9360	3.9361	0.8768	26.15	0.54	0.750			
0.2641	16903.82	3.9330	3.9331	0.8773	26.15	0.54	0.750			
0.2667	17070.84	3.9300	3.9300	0.8785	26.15	0.54	0.750			
0.2694	17240.97	3.9270	3.9270	0.8775	26.14	0.53	0.750			
0.2720	17409.94	3.9240	3.9240	0.8777	26.14	0.53	0.750			
0.2747	17579.96	3.9210	3.9211	0.8794	26.14	0.53	0.750			
0.2773	17747.58	3.9180	3.9180	0.8770	26.13	0.52	0.750			
0.2799	17915.49	3.9150	3.9151	0.8756	26.13	0.52	0.750			
0.2825	18083.19	3.9120	3.9120	0.8728	26.12	0.51	0.750			
0.2852	18250.75	3.9090	3.9090	0.8735	26.12	0.51	0.750			
0.2878	18420.50	3.9060	3.9061	0.8785	26.12	0.51	0.750			
0.2904	18587.49	3.9030	3.9029	0.8757	26.11	0.50	0.750			
0.2930	18755.03	3.9000	3.9000	0.8771	26.11	0.50	0.750			
0.2957	18923.99	3.8970	3.8970	0.8762	26.10	0.49	0.750			
0.2983	19092.01	3.8940	3.8940	0.8808	26.10	0.49	0.750			
0.3010	19262.67	3.8910	3.8910	0.8785	26.09	0.48	0.750			
0.3036	19431.05	3.8880	3.8878	0.8767	26.09	0.48	0.750			
0.3062	19599.68	3.8850	3.8850	0.8742	26.08	0.47	0.750			
0.3089	19767.29	3.8820	3.8820	0.8734	26.07	0.46	0.750			
0.3114	19932.69	3.8790	3.8790	0.8793	26.06	0.45	0.750			
0.3141	20102.36	3.8760	3.8760	0.8842	26.06	0.45	0.750			
0.3167	20271.40	3.8730	3.8730	0.8833	26.05	0.44	0.750			
0.3194	20443.48	3.8700	3.8700	0.8861	26.04	0.43	0.750			
0.3221	20614.19	3.8670	3.8671	0.8881	26.04	0.43	0.750			
0.3248	20784.37	3.8640	3.8640	0.8917	26.04	0.43	0.750			
0.3274	20954.88	3.8610	3.8609	0.8921	26.03	0.42	0.750			
0.3301	21125.38	3.8580	3.8580	0.8944	26.02	0.41	0.750			
0.3328	21298.01	3.8550	3.8550	0.8977	26.02	0.41	0.750			
0.3355	21472.15	3.8520	3.8520	0.8964	26.01	0.40	0.750			
0.3382	21643.66	3.8490	3.8491	0.9081	26.00	0.39	0.750			
0.3409	21816.48	3.8460	3.8456	0.9155	25.99	0.38	0.750			
0.3437	21994.61	3.8430	3.8431	0.9125	25.98	0.37	0.750			
0.3464	22170.07	3.8400	3.8401	0.9260	25.97	0.36	0.750	0.316	0.451	
0.3492	22349.34	3.8370	3.8371	0.9358	25.96	0.35	0.750			
0.3520	22530.08	3.8340	3.8342	0.9456	25.95	0.34	0.750			
0.3549	22711.56	3.8310	3.8311	0.9472	25.95	0.34	0.750			
0.3577	22893.67	3.8280	3.8280	0.9522	25.94	0.33	0.750			
0.3606	23077.45	3.8250	3.8250	0.9628	25.93	0.32	0.750			
0.3635	23265.14	3.8220	3.8220	0.9759	25.92	0.31	0.750			
0.3664	23449.38	3.8190	3.8190	0.9809	25.91	0.30	0.750			
0.3694	23639.70	3.8160	3.8160	0.9864	25.90	0.29	0.750			
0.3723	23829.48	3.8130	3.8130	0.9942	25.89	0.28	0.750			
0.3753	24021.66	3.8100	3.8101	1.0069	25.89	0.28	0.750			
0.3784	24215.55	3.8070	3.8066	1.0170	25.88	0.27	0.750			
0.3814	24411.41	3.8040	3.8040	1.0231	25.87	0.26	0.750			
0.3845	24608.10	3.8010	3.8010	1.0415	25.86	0.25	0.750			
0.3876	24808.45	3.7980	3.7981	1.0561	25.85	0.24	0.750			
0.3909	25015.34	3.7950	3.7947	1.0743	25.84	0.23	0.750			
0.3941	25221.89	3.7920	3.7921	1.0872	25.83	0.22	0.750			
0.3974	25432.02	3.7890	3.7890	1.1018	25.82	0.21	0.750			
0.4007	25645.74	3.7860	3.7860	1.1193	25.82	0.21	0.750			
0.4041	25862.25	3.7830	3.7830	1.1226	25.81	0.20	0.750			
0.4075	26077.40	3.7800	3.7800	1.1418	25.80	0.19	0.750			
0.4109	26298.18	3.7770	3.7770	1.1635	25.79	0.18	0.750			
0.4144	26524.74	3.7740	3.7740	1.1806	25.77	0.16	0.750			
0.4180	26750.95	3.7710	3.7710	1.2059	25.76	0.15	0.750			
0.4216	26983.63	3.7680	3.7681	1.2340	25.75	0.14	0.750			
0.4254	27225.32	3.7650	3.7651	1.2579	25.74	0.13	0.750			
0.4292	27469.77	3.7620	3.7619	1.2923	25.73	0.12	0.750			
0.4331	27717.76	3.7590	3.7590	1.3165	25.72	0.11	0.750			
0.4371	27975.46	3.7560	3.7560	1.3408	25.70	0.09	0.750			
0.4412	28236.57	3.7530	3.7529	1.3696	25.69	0.08	0.750			
0.4453	28499.50	3.7500	3.7501	1.3978	25.68	0.07	0.750			
0.4496	28771.33	3.7470	3.7471	1.4309	25.66	0.05	0.750			
0.4540	29054.31	3.7440	3.7439	1.4427	25.65	0.04	0.750			
0.4584	29334.73	3.7410	3.7409	1.4198	25.63	0.02	0.750			
0.4625	29602.53	3.7380	3.7383	1.4368	25.62	0.01	0.750			
0.4668	29873.28	3.7350	3.7355	1.4775	25.61	-0.00	0.750			
0.4711	30152.03	3.7320	3.7315	1.5152	25.60	-0.01	0.750			
0.4758	30448.02	3.7290	3.7287	1.5508	25.59	-0.02	0.750			
0.4805	30749.35	3.7260	3.7256	1.6466	25.58	-0.03	0.750			
0.4857	31083.19	3.7230	3.7225	1.7268	25.57	-0.04	0.750			
0.4910	31421.83	3.7200	3.7197	1.7397	25.55	-0.06	0.750			
0.4963	31762.16	3.7170	3.7172	1.8462	25.54	-0.07	0.750			
0.5018	32118.27	3.7140	3.7145	1.9068	25.53	-0.08	0.750			
0.5076	32485.74	3.7110	3.7105	1.9722	25.52	-0.09	0.750			
0.5138	32884.40	3.7080	3.7079	1.9852	25.51	-0.10	0.750			
0.5198	33270.02	3.7050	3.7054	2.0781	25.49	-0.12	0.750			
0.5261	33671.13	3.7020	3.7024	2.1725	25.48	-0.13	0.750			
0.5327	34091.53	3.6990	3.6992	2.1597	25.48	-0.13	0.750			
0.5390	34495.14	3.6960	3.6964	2.2715	25.47	-0.14	0.750			
0.5460	34942.54	3.6930	3.6930	2.3462	25.46	-0.15	0.750			
0.5530	35391.50	3.6900	3.6901	2.3238	25.45	-0.16	0.750			
0.5599	35833.42	3.6870	3.6868	2.3651	25.45	-0.16	0.750			
0.5671	36295.08	3.6840	3.6845	2.3614	25.45	-0.16	0.750			
0.5747	36779.70	3.6810	3.6808	2.4614	25.44	-0.17	0.750			
0.5819	37239.97	3.6780	3.6776	2.4306	25.44	-0.17	0.750			
0.5889	37686.54	3.6750	3.6748	2.3363	25.45	-0.16	0.750			
0.5955	38114.78	3.6720	3.6724	2.1762	25.45	-0.16	0.750			
0.6021	38534.26	3.6690	3.6690	2.1025	25.45	-0.16	0.750			
0.6082	38923.35	3.6660	3.6661	1.9628	25.45	-0.16	0.750			
0.6138	39286.31	3.6630	3.6633	1.8584	25.46	-0.15	0.750			
0.6191	39625.41	3.6600	3.6600	1.7324	25.47	-0.14	0.750			
0.6243	39955.27	3.6570	3.6568	1.6314	25.47	-0.14	0.750			
0.6289	40251.88	3.6540	3.6543	1.5014	25.48	-0.13	0.750			
0.6334	40537.98	3.6510	3.6511	1.4253	25.49	-0.12	0.750			
0.6374	40793.68	3.6480	3.6481	1.3168	25.50	-0.11	0.750			
0.6412	41038.57	3.6450	3.6450	1.2139	25.51	-0.10	0.750			
0.6447	41259.40	3.6420	3.6421	1.1491	25.52	-0.09	0.750			
0.6480	41472.12	3.6390	3.6391	1.0959	25.52	-0.09	0.750			
0.6512	41674.11	3.6360	3.6362	1.0561	25.53	-0.08	0.750			
0.6542	41869.65	3.6330	3.6327	1.0099	25.53	-0.08	0.750			
0.6572	42059.70	3.6300	3.6302	0.9719	25.54	-0.07	0.750			
0.6601	42246.46	3.6270	3.6271	0.9479	25.55	-0.06	0.750			
0.6629	42427.92	3.6240	3.6241	0.9191	25.56	-0.05	0.750			
0.6656	42600.89	3.6210	3.6207	0.8737	25.57	-0.04	0.750			
0.6682	42766.14	3.6180	3.6180	0.8348	25.58	-0.03	0.750			
0.6707	42926.39	3.6150	3.6150	0.7823	25.59	-0.02	0.750			
0.6730	43074.35	3.6120	3.6120	0.7416	25.59	-0.02	0.750			
0.6752	43212.53	3.6090	3.6091	0.6812	25.60	-0.01	0.750			
0.6771	43335.41	3.6060	3.6061	0.6335	25.61	-0.00	0.750			
0.6789	43446.65	3.6030	3.6029	0.5933	25.61	0.00	0.750			
0.6806	43556.42	3.6000	3.6006	0.5604	25.62	0.01	0.750			
0.6822	43662.42	3.5970	3.5968	0.5197	25.62	0.01	0.750			
0.6838	43760.53	3.5940	3.5945	0.4810	25.63	0.02	0.750			
0.6852	43850.71	3.5910	3.5914	0.4305	25.63	0.02	0.750			
0.6865	43934.25	3.5880	3.5879	0.3864	25.64	0.03	0.750			
0.6875	44000.64	3.5850	3.5849	0.3163	25.64	0.03	0.750			
0.6884	44056.83	3.5820	3.5819	0.2681	25.64	0.03	0.750			
0.6891	44104.18	3.5790	3.5792	0.2197	25.64	0.03	0.750			
0.6897	44142.60	3.5760	3.5760	0.1685	25.65	0.04	0.750			
0.6902	44170.09	3.5730	3.5733	0.1138	25.65	0.04	0.750			
0.6904	44186.58	3.5700	3.5715	0.0534	25.65	0.04	0.751			
