Ah_balance (normalized)	Ah_balance (mAh)	Voltage - fit (V)	Voltage -  interpolate (V)	dQ/dV (1/V)	Temperature (°C)	Temperature - diff (°C)	Current (C)	R_DC 0ms (mOhm)	R_DC 50ms (mOhm)	R_DC 50 ms PEC (mOhm)
0.0485	3102.77	4.1960	4.1960	0.7799	25.47	0.55	0.750			
0.0508	3248.66	4.1930	4.1930	0.7578	25.47	0.55	0.750			
0.0530	3392.20	4.1900	4.1900	0.7500	25.47	0.55	0.750			
0.0552	3533.72	4.1870	4.1871	0.7536	25.47	0.55	0.750			
0.0575	3677.22	4.1840	4.1839	0.7540	25.47	0.55	0.750			
0.0597	3822.21	4.1810	4.1810	0.7593	25.47	0.55	0.750			
0.0620	3970.75	4.1780	4.1780	0.7563	25.47	0.55	0.750			
0.0643	4115.73	4.1750	4.1752	0.7642	25.47	0.55	0.750			
0.0666	4262.69	4.1720	4.1720	0.7678	25.47	0.55	0.750			
0.0689	4409.95	4.1690	4.1692	0.7675	25.47	0.55	0.750			
0.0712	4556.53	4.1660	4.1661	0.7710	25.47	0.55	0.750			
0.0735	4706.12	4.1630	4.1630	0.7761	25.47	0.55	0.750			
0.0759	4855.86	4.1600	4.1601	0.7809	25.47	0.55	0.750			
0.0783	5008.67	4.1570	4.1570	0.7878	25.47	0.55	0.750			
0.0806	5156.89	4.1540	4.1541	0.7813	25.47	0.55	0.750			
0.0829	5307.57	4.1510	4.1509	0.7826	25.47	0.55	0.750			
0.0853	5458.19	4.1480	4.1480	0.7818	25.47	0.55	0.750			
0.0876	5606.35	4.1450	4.1451	0.7742	25.47	0.55	0.750			
0.0899	5753.84	4.1420	4.1420	0.7767	25.47	0.55	0.750			
0.0922	5901.39	4.1390	4.1392	0.7789	25.47	0.55	0.750			
0.0945	6050.99	4.1360	4.1353	0.7885	25.47	0.55	0.750			
0.0969	6203.73	4.1330	4.1332	0.7931	25.47	0.55	0.750			
0.0994	6362.61	4.1300	4.1300	0.7784	25.47	0.55	0.750			
0.1018	6512.80	4.1270	4.1270	0.7887	25.47	0.55	0.750			
0.1040	6658.40	4.1240	4.1243	0.7857	25.47	0.55	0.750			
0.1064	6807.96	4.1210	4.1212	0.7888	25.47	0.55	0.750			
0.1088	6960.54	4.1180	4.1181	0.7946	25.47	0.55	0.750			
0.1112	7113.93	4.1150	4.1152	0.7974	25.47	0.55	0.750			
0.1136	7270.55	4.1120	4.1122	0.8071	25.47	0.55	0.750			
0.1161	7432.48	4.1090	4.1090	0.8207	25.47	0.55	0.750			
0.1185	7582.31	4.1060	4.1059	0.8012	25.47	0.55	0.750			
0.1209	7737.00	4.1030	4.1030	0.8061	25.47	0.55	0.750			
0.1234	7895.05	4.1000	4.1000	0.8039	25.47	0.55	0.750			
0.1257	8047.96	4.0970	4.0971	0.8044	25.47	0.55	0.750			
0.1282	8201.97	4.0940	4.0940	0.8103	25.47	0.55	0.750			
0.1306	8355.82	4.0910	4.0910	0.8111	25.47	0.55	0.750			
0.1330	8511.44	4.0880	4.0880	0.8121	25.47	0.55	0.750			
0.1355	8668.89	4.0850	4.0851	0.8188	25.47	0.55	0.750			
0.1379	8827.63	4.0820	4.0821	0.8107	25.47	0.55	0.750			
0.1404	8982.42	4.0790	4.0790	0.8128	25.47	0.55	0.750			
0.1427	9134.54	4.0760	4.0762	0.8161	25.47	0.55	0.750			
0.1452	9291.27	4.0730	4.0728	0.8289	25.47	0.55	0.750			
0.1477	9452.21	4.0700	4.0702	0.8327	25.47	0.55	0.750			
0.1502	9614.64	4.0670	4.0671	0.8391	25.47	0.55	0.750			
0.1528	9779.71	4.0640	4.0641	0.8490	25.48	0.56	0.750			
0.1554	9946.99	4.0610	4.0610	0.8558	25.48	0.56	0.750			
0.1579	10104.08	4.0580	4.0579	0.8392	25.48	0.56	0.750			
0.1604	10267.18	4.0550	4.0550	0.8288	25.48	0.56	0.750			
0.1629	10423.99	4.0520	4.0521	0.8361	25.48	0.56	0.750			
0.1654	10583.86	4.0490	4.0490	0.8453	25.48	0.56	0.750			
0.1679	10746.07	4.0460	4.0460	0.8505	25.48	0.56	0.750			
0.1704	10908.63	4.0430	4.0430	0.8530	25.48	0.56	0.750			
0.1731	11076.60	4.0400	4.0401	0.8530	25.48	0.56	0.750			
0.1757	11241.89	4.0370	4.0371	0.8634	25.48	0.56	0.750			
0.1782	11407.89	4.0340	4.0340	0.8652	25.49	0.57	0.750			
0.1808	11570.53	4.0310	4.0311	0.8617	25.49	0.57	0.750			
0.1834	11736.89	4.0280	4.0281	0.8661	25.49	0.57	0.750			
0.1860	11905.47	4.0250	4.0251	0.8699	25.49	0.57	0.750			
0.1887	12074.77	4.0220	4.0220	0.8738	25.50	0.58	0.750			
0.1913	12242.92	4.0190	4.0192	0.8739	25.50	0.58	0.750			
0.1939	12409.12	4.0160	4.0160	0.8723	25.50	0.58	0.750			
0.1965	12575.88	4.0130	4.0130	0.8776	25.50	0.58	0.750			
0.1991	12745.40	4.0100	4.0099	0.8704	25.50	0.58	0.750			
0.2017	12910.97	4.0070	4.0071	0.8779	25.51	0.59	0.750			
0.2044	13079.52	4.0040	4.0041	0.8831	25.51	0.59	0.750			
0.2070	13249.56	4.0010	4.0002	0.8889	25.51	0.59	0.750			
0.2098	13425.41	3.9980	3.9980	0.8792	25.51	0.59	0.750			
0.2124	13591.27	3.9950	3.9953	0.8845	25.51	0.59	0.750			
0.2150	13761.97	3.9920	3.9920	0.8923	25.51	0.59	0.750			
0.2177	13934.96	3.9890	3.9891	0.9068	25.51	0.59	0.750			
0.2203	14100.46	3.9860	3.9857	0.8958	25.51	0.59	0.750			
0.2231	14275.81	3.9830	3.9831	0.9061	25.51	0.59	0.750			
0.2258	14453.86	3.9800	3.9801	0.9194	25.51	0.59	0.750			
0.2287	14634.59	3.9770	3.9770	0.9219	25.51	0.59	0.750			
0.2314	14809.66	3.9740	3.9739	0.9113	25.51	0.59	0.750			
0.2341	14985.53	3.9710	3.9710	0.9119	25.51	0.59	0.750			
0.2369	15159.65	3.9680	3.9680	0.9147	25.51	0.59	0.750			
0.2396	15334.93	3.9650	3.9650	0.9183	25.52	0.60	0.750			
0.2424	15512.28	3.9620	3.9621	0.9240	25.52	0.60	0.750			
0.2451	15689.29	3.9590	3.9591	0.9297	25.52	0.60	0.750			
0.2480	15873.23	3.9560	3.9560	0.9180	25.52	0.60	0.750			
0.2508	16048.03	3.9530	3.9530	0.9202	25.52	0.60	0.750			
0.2535	16222.01	3.9500	3.9502	0.9287	25.52	0.60	0.750			
0.2562	16398.94	3.9470	3.9470	0.9318	25.52	0.60	0.750			
0.2591	16579.78	3.9440	3.9440	0.9332	25.52	0.60	0.750			
0.2619	16758.61	3.9410	3.9412	0.9430	25.52	0.60	0.750			
0.2647	16941.62	3.9380	3.9381	0.9463	25.53	0.61	0.750			
0.2677	17130.52	3.9350	3.9349	0.9520	25.53	0.61	0.750			
0.2704	17307.64	3.9320	3.9320	0.9422	25.53	0.61	0.750			
0.2732	17487.74	3.9290	3.9290	0.9359	25.53	0.61	0.750			
0.2761	17667.58	3.9260	3.9260	0.9390	25.53	0.61	0.750			
0.2789	17846.68	3.9230	3.9231	0.9475	25.53	0.61	0.750			
0.2817	18026.44	3.9200	3.9196	0.9483	25.53	0.61	0.750			
0.2845	18211.11	3.9170	3.9170	0.9568	25.53	0.61	0.750			
0.2874	18396.27	3.9140	3.9140	0.9446	25.53	0.61	0.750			
0.2902	18573.75	3.9110	3.9113	0.9546	25.53	0.61	0.750			
0.2931	18757.55	3.9080	3.9082	0.9660	25.53	0.61	0.750			
0.2960	18941.54	3.9050	3.9052	0.9619	25.53	0.61	0.750			
0.2989	19127.26	3.9020	3.9022	0.9703	25.53	0.61	0.750			
0.3018	19317.39	3.8990	3.8991	0.9835	25.54	0.62	0.750			
0.3048	19509.95	3.8960	3.8960	0.9878	25.54	0.62	0.750			
0.3078	19697.55	3.8930	3.8929	0.9735	25.54	0.62	0.750			
0.3107	19886.06	3.8900	3.8900	0.9636	25.54	0.62	0.750			
0.3136	20067.75	3.8870	3.8871	0.9697	25.53	0.61	0.750			
0.3165	20254.04	3.8840	3.8841	0.9758	25.53	0.61	0.750			
0.3194	20439.76	3.8810	3.8804	0.9789	25.53	0.61	0.750			
0.3223	20627.32	3.8780	3.8782	0.9889	25.53	0.61	0.750			
0.3253	20816.63	3.8750	3.8752	0.9854	25.53	0.61	0.750			
0.3282	21007.99	3.8720	3.8721	1.0005	25.53	0.61	0.750			
0.3312	21198.89	3.8690	3.8692	0.9973	25.53	0.61	0.750			
0.3343	21392.61	3.8660	3.8662	1.0039	25.53	0.61	0.750			
0.3373	21587.95	3.8630	3.8632	1.0121	25.53	0.61	0.750			
0.3404	21784.20	3.8600	3.8602	1.0179	25.52	0.60	0.750			
0.3436	21987.60	3.8570	3.8568	1.0301	25.52	0.60	0.750			
0.3466	22179.25	3.8540	3.8539	0.9899	25.52	0.60	0.750			
0.3495	22366.65	3.8510	3.8511	1.0015	25.52	0.60	0.750			
0.3524	22556.47	3.8480	3.8481	1.0139	25.51	0.59	0.750			
0.3555	22751.82	3.8450	3.8452	1.0257	25.51	0.59	0.750			
0.3587	22954.85	3.8420	3.8420	1.0095	25.51	0.59	0.750			
0.3616	23144.63	3.8390	3.8392	1.0291	25.50	0.58	0.750			
0.3647	23343.43	3.8360	3.8363	1.0499	25.49	0.57	0.750			
0.3679	23546.72	3.8330	3.8331	1.0678	25.48	0.56	0.750			
0.3711	23749.75	3.8300	3.8299	1.0665	25.48	0.56	0.750	0.326	0.414	
0.3744	23959.21	3.8270	3.8272	1.0826	25.47	0.55	0.750			
0.3777	24172.87	3.8240	3.8241	1.0988	25.46	0.54	0.750			
0.3811	24389.50	3.8210	3.8209	1.0965	25.45	0.53	0.750			
0.3843	24595.43	3.8180	3.8181	1.0703	25.44	0.52	0.750			
0.3875	24799.60	3.8150	3.8151	1.0730	25.43	0.51	0.750			
0.3907	25003.79	3.8120	3.8121	1.0810	25.42	0.50	0.750			
0.3939	25210.65	3.8090	3.8086	1.0855	25.41	0.49	0.750			
0.3972	25419.92	3.8060	3.8060	1.0752	25.40	0.48	0.750			
0.4004	25625.58	3.8030	3.8031	1.0919	25.40	0.48	0.750			
0.4037	25836.57	3.8000	3.8002	1.1081	25.39	0.47	0.750			
0.4071	26052.75	3.7970	3.7963	1.1160	25.38	0.46	0.750			
0.4104	26262.55	3.7940	3.7942	1.1230	25.37	0.45	0.750			
0.4138	26480.48	3.7910	3.7911	1.1404	25.36	0.44	0.750			
0.4172	26703.88	3.7880	3.7881	1.1621	25.35	0.43	0.750			
0.4208	26930.82	3.7850	3.7849	1.1417	25.34	0.42	0.750			
0.4242	27147.91	3.7820	3.7822	1.1676	25.33	0.41	0.750			
0.4277	27372.03	3.7790	3.7792	1.1899	25.31	0.39	0.750			
0.4314	27608.31	3.7760	3.7756	1.1931	25.30	0.38	0.750			
0.4349	27835.11	3.7730	3.7731	1.2211	25.29	0.37	0.750			
0.4386	28069.41	3.7700	3.7701	1.2500	25.28	0.36	0.750			
0.4424	28313.10	3.7670	3.7672	1.2797	25.27	0.35	0.750			
0.4463	28561.51	3.7640	3.7640	1.3039	25.25	0.33	0.750			
0.4502	28814.99	3.7610	3.7611	1.3401	25.24	0.32	0.750			
0.4544	29083.15	3.7580	3.7581	1.3558	25.23	0.31	0.750			
0.4585	29344.38	3.7550	3.7550	1.3982	25.22	0.30	0.750			
0.4626	29605.57	3.7520	3.7522	1.4526	25.20	0.28	0.750			
0.4670	29890.67	3.7490	3.7491	1.4720	25.19	0.27	0.750			
0.4714	30172.26	3.7460	3.7459	1.5365	25.18	0.26	0.750			
0.4761	30471.30	3.7430	3.7430	1.6010	25.16	0.24	0.750			
0.4811	30790.43	3.7400	3.7404	1.6528	25.15	0.23	0.750			
0.4862	31115.70	3.7370	3.7369	1.7075	25.13	0.21	0.750			
0.4913	31446.38	3.7340	3.7340	1.7250	25.11	0.19	0.750			
0.4968	31793.07	3.7310	3.7310	1.7967	25.09	0.17	0.750			
0.5019	32122.39	3.7280	3.7279	1.7499	25.08	0.16	0.750			
0.5072	32459.88	3.7250	3.7247	1.8021	25.06	0.14	0.750			
0.5126	32808.40	3.7220	3.7220	1.8582	25.05	0.13	0.750			
0.5184	33179.35	3.7190	3.7189	1.9117	25.03	0.11	0.750			
0.5242	33546.61	3.7160	3.7157	1.9754	25.02	0.10	0.750			
0.5302	33930.93	3.7130	3.7129	2.0491	25.00	0.08	0.750			
0.5364	34326.79	3.7100	3.7104	2.1012	24.98	0.06	0.750			
0.5429	34745.07	3.7070	3.7071	2.1465	24.96	0.04	0.750			
0.5493	35157.84	3.7040	3.7040	2.1919	24.94	0.02	0.750			
0.5560	35586.39	3.7010	3.7009	2.2818	24.92	0.00	0.750			
0.5628	36019.68	3.6980	3.6979	2.3405	24.91	-0.01	0.750			
0.5701	36486.83	3.6950	3.6951	2.3868	24.90	-0.02	0.750			
0.5775	36957.55	3.6920	3.6920	2.4321	24.87	-0.05	0.750			
0.5849	37430.56	3.6890	3.6890	2.4651	24.86	-0.06	0.750			
0.5923	37905.81	3.6860	3.6862	2.5401	24.84	-0.08	0.750			
0.5997	38383.24	3.6830	3.6833	2.6886	24.83	-0.09	0.750			
0.6082	38924.37	3.6800	3.6801	2.7806	24.82	-0.10	0.750			
0.6167	39466.96	3.6770	3.6772	2.8565	24.80	-0.12	0.750			
0.6254	40023.71	3.6740	3.6742	2.9022	24.80	-0.12	0.750			
0.6341	40582.01	3.6710	3.6712	2.9200	24.80	-0.12	0.750			
0.6433	41168.06	3.6680	3.6680	2.8793	24.79	-0.13	0.750			
0.6520	41727.37	3.6650	3.6649	2.8050	24.79	-0.13	0.750			
0.6603	42260.06	3.6620	3.6615	2.6898	24.79	-0.13	0.750			
0.6681	42759.37	3.6590	3.6589	2.5111	24.80	-0.12	0.750			
0.6755	43232.90	3.6560	3.6564	2.3103	24.81	-0.11	0.750			
0.6820	43646.52	3.6530	3.6532	2.0602	24.82	-0.10	0.750			
0.6878	44022.34	3.6500	3.6498	1.8625	24.82	-0.10	0.750			
0.6931	44358.95	3.6470	3.6469	1.6392	24.83	-0.09	0.750			
0.6978	44656.58	3.6440	3.6440	1.4817	24.84	-0.08	0.750			
0.7018	44914.68	3.6410	3.6412	1.2977	24.85	-0.07	0.750			
0.7054	45143.87	3.6380	3.6380	1.1752	24.86	-0.06	0.750			
0.7085	45343.43	3.6350	3.6350	1.0504	24.86	-0.06	0.750			
0.7114	45530.51	3.6320	3.6320	0.9765	24.87	-0.05	0.750			
0.7141	45701.38	3.6290	3.6290	0.9309	24.87	-0.05	0.750			
0.7168	45875.47	3.6260	3.6261	0.9106	24.88	-0.04	0.750			
0.7194	46043.98	3.6230	3.6228	0.8810	24.88	-0.04	0.750			
0.7221	46214.55	3.6200	3.6200	0.8734	24.89	-0.03	0.750			
0.7247	46383.32	3.6170	3.6171	0.8410	24.90	-0.02	0.750			
0.7273	46548.08	3.6140	3.6140	0.8098	24.90	-0.02	0.750			
0.7297	46702.99	3.6110	3.6110	0.7575	24.91	-0.01	0.750			
0.7319	46843.08	3.6080	3.6075	0.6958	24.92	-0.00	0.750			
0.7339	46972.38	3.6050	3.6050	0.6271	24.93	0.01	0.750			
0.7357	47087.57	3.6020	3.6020	0.5559	24.93	0.01	0.750			
0.7373	47185.49	3.5990	3.5991	0.4864	24.94	0.02	0.750			
0.7386	47272.01	3.5960	3.5960	0.4240	24.94	0.02	0.750			
0.7398	47344.06	3.5930	3.5928	0.3580	24.94	0.02	0.750			
0.7407	47406.25	3.5900	3.5899	0.2981	24.95	0.03	0.750			
0.7415	47456.81	3.5870	3.5871	0.2414	24.95	0.03	0.750			
0.7422	47499.10	3.5840	3.5843	0.1878	24.95	0.03	0.750			
0.7427	47531.95	3.5810	3.5813	0.1216	24.95	0.03	0.750			
0.7430	47548.94	3.5780	3.5797	0.0590	24.95	0.03	0.750			
