Ah_balance (normalized)	Ah_balance (mAh)	Voltage - fit (V)	Voltage -  interpolate (V)	dQ/dV (1/V)	Temperature (°C)	Temperature - diff (°C)	Current (C)	R_DC 0ms (mOhm)	R_DC 50ms (mOhm)	R_DC 50 ms PEC (mOhm)
0.0478	3059.95	4.1970	4.1968	0.7583	25.64	0.47	0.750			
0.0501	3205.66	4.1940	4.1941	0.7598	25.64	0.47	0.750			
0.0524	3355.55	4.1910	4.1909	0.7568	25.64	0.47	0.750			
0.0546	3497.32	4.1880	4.1880	0.7544	25.65	0.48	0.750			
0.0569	3640.25	4.1850	4.1851	0.7564	25.65	0.48	0.750			
0.0591	3785.10	4.1820	4.1821	0.7606	25.65	0.48	0.750			
0.0614	3931.61	4.1790	4.1791	0.7634	25.65	0.48	0.750			
0.0637	4078.58	4.1760	4.1761	0.7672	25.65	0.48	0.750			
0.0661	4227.26	4.1730	4.1731	0.7660	25.65	0.48	0.750			
0.0684	4375.72	4.1700	4.1700	0.7659	25.66	0.49	0.750			
0.0706	4521.04	4.1670	4.1671	0.7642	25.66	0.49	0.750			
0.0729	4667.32	4.1640	4.1635	0.7676	25.66	0.49	0.750			
0.0752	4814.73	4.1610	4.1611	0.7698	25.66	0.49	0.750			
0.0776	4964.81	4.1580	4.1580	0.7665	25.66	0.49	0.750			
0.0799	5113.47	4.1550	4.1550	0.7692	25.66	0.49	0.750			
0.0822	5260.69	4.1520	4.1520	0.7718	25.66	0.49	0.750			
0.0845	5406.66	4.1490	4.1490	0.7681	25.66	0.49	0.750			
0.0868	5553.43	4.1460	4.1460	0.7687	25.66	0.49	0.750			
0.0891	5700.53	4.1430	4.1430	0.7714	25.66	0.49	0.750			
0.0914	5848.99	4.1400	4.1401	0.7663	25.66	0.49	0.750			
0.0937	5996.32	4.1370	4.1371	0.7732	25.67	0.50	0.750			
0.0960	6142.72	4.1340	4.1341	0.7765	25.67	0.50	0.750			
0.0983	6291.72	4.1310	4.1308	0.7831	25.67	0.50	0.750			
0.1007	6443.42	4.1280	4.1282	0.7864	25.67	0.50	0.750			
0.1031	6599.04	4.1250	4.1251	0.7676	25.67	0.50	0.750			
0.1054	6748.78	4.1220	4.1220	0.7781	25.67	0.50	0.750			
0.1077	6894.25	4.1190	4.1192	0.7736	25.67	0.50	0.750			
0.1100	7040.29	4.1160	4.1155	0.7772	25.67	0.50	0.750			
0.1123	7190.27	4.1130	4.1132	0.7844	25.67	0.50	0.750			
0.1147	7341.18	4.1100	4.1101	0.7914	25.68	0.51	0.750			
0.1171	7495.79	4.1070	4.1071	0.8008	25.68	0.51	0.750			
0.1196	7656.20	4.1040	4.1040	0.8116	25.68	0.51	0.750			
0.1220	7807.73	4.1010	4.1009	0.7986	25.69	0.52	0.750			
0.1244	7961.20	4.0980	4.0981	0.8014	25.69	0.52	0.750			
0.1268	8117.06	4.0950	4.0950	0.7954	25.69	0.52	0.750			
0.1292	8267.63	4.0920	4.0920	0.7983	25.69	0.52	0.750			
0.1316	8419.21	4.0890	4.0890	0.8004	25.69	0.52	0.750			
0.1340	8572.82	4.0860	4.0861	0.8016	25.69	0.52	0.750			
0.1364	8727.47	4.0830	4.0831	0.8059	25.69	0.52	0.750			
0.1388	8883.58	4.0800	4.0801	0.8104	25.69	0.52	0.750			
0.1412	9039.08	4.0770	4.0771	0.8032	25.69	0.52	0.750			
0.1436	9193.31	4.0740	4.0741	0.8071	25.70	0.53	0.750			
0.1460	9345.09	4.0710	4.0711	0.8095	25.70	0.53	0.750			
0.1484	9499.52	4.0680	4.0679	0.8156	25.70	0.53	0.750			
0.1509	9659.10	4.0650	4.0651	0.8226	25.70	0.53	0.750			
0.1534	9818.48	4.0620	4.0621	0.8283	25.70	0.53	0.750			
0.1560	9981.05	4.0590	4.0590	0.8350	25.71	0.54	0.750			
0.1584	10139.50	4.0560	4.0560	0.8281	25.71	0.54	0.750			
0.1609	10299.58	4.0530	4.0530	0.8322	25.71	0.54	0.750			
0.1635	10461.05	4.0500	4.0500	0.8272	25.72	0.55	0.750			
0.1659	10619.52	4.0470	4.0470	0.8311	25.72	0.55	0.750			
0.1684	10778.84	4.0440	4.0441	0.8352	25.72	0.55	0.750			
0.1709	10938.36	4.0410	4.0410	0.8366	25.73	0.56	0.750			
0.1734	11099.10	4.0380	4.0381	0.8406	25.73	0.56	0.750			
0.1760	11261.42	4.0350	4.0351	0.8439	25.73	0.56	0.750			
0.1785	11425.38	4.0320	4.0320	0.8373	25.73	0.56	0.750			
0.1810	11582.19	4.0290	4.0292	0.8459	25.73	0.56	0.750			
0.1835	11741.63	4.0260	4.0262	0.8465	25.73	0.56	0.750			
0.1860	11906.12	4.0230	4.0232	0.8558	25.73	0.56	0.750			
0.1886	12072.04	4.0200	4.0202	0.8583	25.74	0.57	0.750			
0.1912	12237.23	4.0170	4.0172	0.8687	25.74	0.57	0.750			
0.1939	12409.48	4.0140	4.0141	0.8774	25.74	0.57	0.750			
0.1965	12576.08	4.0110	4.0109	0.8639	25.75	0.58	0.750			
0.1991	12742.94	4.0080	4.0080	0.8693	25.75	0.58	0.750			
0.2018	12913.86	4.0050	4.0051	0.8578	25.75	0.58	0.750			
0.2043	13077.16	4.0020	4.0020	0.8609	25.75	0.58	0.750			
0.2069	13240.98	3.9990	3.9991	0.8702	25.75	0.58	0.750			
0.2094	13404.21	3.9960	3.9961	0.8673	25.75	0.58	0.750			
0.2121	13572.93	3.9930	3.9931	0.8787	25.75	0.58	0.750			
0.2147	13743.91	3.9900	3.9901	0.8789	25.76	0.59	0.750			
0.2174	13912.64	3.9870	3.9871	0.8871	25.76	0.59	0.750			
0.2201	14087.10	3.9840	3.9841	0.8982	25.77	0.60	0.750			
0.2228	14256.21	3.9810	3.9800	0.8882	25.77	0.60	0.750			
0.2254	14427.42	3.9780	3.9781	0.8871	25.77	0.60	0.750			
0.2281	14598.63	3.9750	3.9751	0.8924	25.77	0.60	0.750			
0.2308	14770.38	3.9720	3.9720	0.8942	25.77	0.60	0.750			
0.2335	14945.17	3.9690	3.9690	0.8997	25.77	0.60	0.750			
0.2361	15112.23	3.9660	3.9660	0.8960	25.77	0.60	0.750			
0.2389	15288.34	3.9630	3.9630	0.8895	25.77	0.60	0.750			
0.2416	15459.66	3.9600	3.9600	0.8982	25.78	0.61	0.750			
0.2442	15630.49	3.9570	3.9572	0.8998	25.78	0.61	0.750			
0.2469	15802.83	3.9540	3.9540	0.8998	25.78	0.61	0.750			
0.2496	15975.81	3.9510	3.9511	0.9053	25.78	0.61	0.750			
0.2524	16150.93	3.9480	3.9480	0.8938	25.78	0.61	0.750			
0.2550	16320.42	3.9450	3.9452	0.9019	25.79	0.62	0.750			
0.2577	16494.46	3.9420	3.9421	0.9042	25.79	0.62	0.750			
0.2604	16668.19	3.9390	3.9383	0.9114	25.79	0.62	0.750			
0.2632	16843.10	3.9360	3.9361	0.9170	25.79	0.62	0.750			
0.2660	17021.77	3.9330	3.9331	0.9232	25.79	0.62	0.750			
0.2688	17203.64	3.9300	3.9301	0.9305	25.80	0.63	0.750			
0.2716	17380.51	3.9270	3.9270	0.9204	25.80	0.63	0.750			
0.2744	17558.42	3.9240	3.9239	0.9197	25.80	0.63	0.750			
0.2771	17734.30	3.9210	3.9210	0.9161	25.80	0.63	0.750			
0.2798	17908.89	3.9180	3.9180	0.9188	25.80	0.63	0.750			
0.2826	18085.50	3.9150	3.9151	0.9233	25.80	0.63	0.750			
0.2854	18262.66	3.9120	3.9115	0.9290	25.80	0.63	0.750			
0.2882	18447.30	3.9090	3.9090	0.9143	25.80	0.63	0.750			
0.2909	18619.74	3.9060	3.9061	0.9210	25.80	0.63	0.750			
0.2937	18795.78	3.9030	3.9031	0.9311	25.79	0.62	0.750			
0.2965	18974.28	3.9000	3.9001	0.9333	25.79	0.62	0.750			
0.2993	19152.07	3.8970	3.8971	0.9289	25.79	0.62	0.750			
0.3021	19331.26	3.8940	3.8942	0.9337	25.79	0.62	0.750			
0.3049	19513.06	3.8910	3.8910	0.9401	25.78	0.61	0.750			
0.3078	19696.41	3.8880	3.8881	0.9433	25.78	0.61	0.750			
0.3105	19874.77	3.8850	3.8848	0.9311	25.78	0.61	0.750			
0.3133	20054.22	3.8820	3.8820	0.9263	25.78	0.61	0.750			
0.3161	20231.49	3.8790	3.8790	0.9330	25.78	0.61	0.750			
0.3189	20410.44	3.8760	3.8760	0.9365	25.77	0.60	0.750			
0.3217	20591.29	3.8730	3.8729	0.9374	25.77	0.60	0.750			
0.3245	20771.04	3.8700	3.8701	0.9398	25.77	0.60	0.750			
0.3274	20952.97	3.8670	3.8671	0.9290	25.76	0.59	0.750			
0.3301	21128.62	3.8640	3.8641	0.9334	25.75	0.58	0.750			
0.3329	21306.24	3.8610	3.8611	0.9402	25.75	0.58	0.750			
0.3357	21484.72	3.8580	3.8574	0.9436	25.74	0.57	0.750			
0.3385	21666.78	3.8550	3.8551	0.9472	25.73	0.56	0.750			
0.3414	21851.55	3.8520	3.8522	0.9524	25.73	0.56	0.750			
0.3444	22039.89	3.8490	3.8490	0.9593	25.72	0.55	0.750			
0.3472	22220.89	3.8460	3.8459	0.9519	25.71	0.54	0.750			
0.3501	22403.54	3.8430	3.8430	0.9349	25.70	0.53	0.750			
0.3528	22580.40	3.8400	3.8401	0.9476	25.70	0.53	0.750			
0.3556	22759.62	3.8370	3.8371	0.9603	25.69	0.52	0.750			
0.3585	22945.66	3.8340	3.8343	0.9713	25.68	0.51	0.750	0.299	0.410	
0.3615	23134.87	3.8310	3.8311	0.9833	25.68	0.51	0.750			
0.3645	23326.15	3.8280	3.8281	0.9854	25.67	0.50	0.750			
0.3675	23517.23	3.8250	3.8251	0.9943	25.66	0.49	0.750			
0.3704	23708.59	3.8220	3.8221	0.9948	25.66	0.49	0.750			
0.3734	23898.41	3.8190	3.8191	0.9910	25.65	0.48	0.750			
0.3764	24088.39	3.8160	3.8161	0.9975	25.64	0.47	0.750			
0.3794	24281.70	3.8130	3.8130	1.0070	25.63	0.46	0.750			
0.3825	24477.04	3.8100	3.8099	1.0207	25.62	0.45	0.750			
0.3855	24671.16	3.8070	3.8070	1.0220	25.61	0.44	0.750			
0.3886	24868.43	3.8040	3.8040	1.0297	25.60	0.43	0.750			
0.3917	25065.83	3.8010	3.8011	1.0475	25.59	0.42	0.750			
0.3948	25269.85	3.7980	3.7980	1.0660	25.58	0.41	0.750			
0.3981	25479.33	3.7950	3.7950	1.0638	25.57	0.40	0.750			
0.4013	25683.03	3.7920	3.7921	1.0827	25.56	0.39	0.750			
0.4045	25890.15	3.7890	3.7892	1.1001	25.55	0.38	0.750			
0.4079	26102.58	3.7860	3.7862	1.1244	25.54	0.37	0.750			
0.4112	26319.06	3.7830	3.7830	1.1307	25.53	0.36	0.750			
0.4147	26538.04	3.7800	3.7801	1.1529	25.51	0.34	0.750			
0.4182	26762.79	3.7770	3.7770	1.1783	25.50	0.33	0.750			
0.4218	26996.33	3.7740	3.7739	1.1885	25.48	0.31	0.750			
0.4253	27222.04	3.7710	3.7710	1.2031	25.48	0.31	0.750			
0.4290	27453.84	3.7680	3.7681	1.2277	25.47	0.30	0.750			
0.4327	27691.77	3.7650	3.7651	1.2416	25.46	0.29	0.750			
0.4364	27929.23	3.7620	3.7619	1.2617	25.46	0.29	0.750			
0.4401	28168.67	3.7590	3.7592	1.3012	25.44	0.27	0.750			
0.4441	28419.91	3.7560	3.7552	1.3450	25.43	0.26	0.750			
0.4482	28683.98	3.7530	3.7526	1.3942	25.42	0.25	0.750			
0.4526	28963.90	3.7500	3.7502	1.3914	25.40	0.23	0.750			
0.4570	29244.82	3.7470	3.7471	1.4372	25.39	0.22	0.750			
0.4613	29522.73	3.7440	3.7441	1.4361	25.38	0.21	0.750			
0.4657	29807.12	3.7410	3.7411	1.4712	25.37	0.20	0.750			
0.4698	30070.11	3.7380	3.7381	1.5167	25.36	0.19	0.750			
0.4746	30372.43	3.7350	3.7351	1.5397	25.34	0.17	0.750			
0.4793	30672.87	3.7320	3.7322	1.6047	25.33	0.16	0.750			
0.4842	30991.82	3.7290	3.7291	1.6750	25.31	0.14	0.750			
0.4892	31309.25	3.7260	3.7258	1.6889	25.30	0.13	0.750			
0.4943	31633.39	3.7230	3.7228	1.8259	25.29	0.12	0.750			
0.4998	31987.19	3.7200	3.7197	1.9257	25.28	0.11	0.750			
0.5057	32364.65	3.7170	3.7166	2.0115	25.26	0.09	0.750			
0.5122	32783.08	3.7140	3.7144	2.0739	25.24	0.07	0.750			
0.5186	33187.65	3.7110	3.7111	2.0949	25.22	0.05	0.750			
0.5250	33597.06	3.7080	3.7077	2.0926	25.20	0.03	0.750			
0.5308	33973.16	3.7050	3.7050	2.0859	25.19	0.02	0.750			
0.5372	34383.40	3.7020	3.7020	2.1422	25.18	0.01	0.750			
0.5438	34805.43	3.6990	3.6992	2.1950	25.17	-0.00	0.750			
0.5506	35238.97	3.6960	3.6959	2.2688	25.15	-0.02	0.750			
0.5574	35672.29	3.6930	3.6929	2.3484	25.13	-0.04	0.750			
0.5644	36121.91	3.6900	3.6900	2.4370	25.11	-0.06	0.750			
0.5719	36603.82	3.6870	3.6870	2.5154	25.10	-0.07	0.750			
0.5797	37097.81	3.6840	3.6839	2.5634	25.09	-0.08	0.750			
0.5876	37607.45	3.6810	3.6808	2.6229	25.09	-0.08	0.750			
0.5953	38099.02	3.6780	3.6779	2.6599	25.07	-0.10	0.750			
0.6033	38608.14	3.6750	3.6753	2.6993	25.07	-0.10	0.750			
0.6114	39132.00	3.6720	3.6719	2.6562	25.06	-0.11	0.750			
0.6196	39657.29	3.6690	3.6691	2.6119	25.06	-0.11	0.750			
0.6276	40165.79	3.6660	3.6659	2.5095	25.06	-0.11	0.750			
0.6349	40630.45	3.6630	3.6626	2.3439	25.06	-0.11	0.750			
0.6415	41053.30	3.6600	3.6603	2.1450	25.06	-0.11	0.750			
0.6474	41436.14	3.6570	3.6571	1.9556	25.07	-0.10	0.750			
0.6530	41790.45	3.6540	3.6541	1.7927	25.07	-0.10	0.750			
0.6582	42127.11	3.6510	3.6510	1.6329	25.08	-0.09	0.750			
0.6629	42426.03	3.6480	3.6481	1.5114	25.08	-0.09	0.750			
0.6671	42696.64	3.6450	3.6451	1.3797	25.09	-0.08	0.750			
0.6710	42946.99	3.6420	3.6421	1.2845	25.10	-0.07	0.750			
0.6747	43177.99	3.6390	3.6390	1.1839	25.10	-0.07	0.750			
0.6780	43388.98	3.6360	3.6361	1.1078	25.11	-0.06	0.750			
0.6811	43593.46	3.6330	3.6332	1.0522	25.11	-0.06	0.750			
0.6842	43791.10	3.6300	3.6299	1.0150	25.12	-0.05	0.750			
0.6872	43977.80	3.6270	3.6270	0.9669	25.12	-0.05	0.750			
0.6900	44160.27	3.6240	3.6240	0.9233	25.13	-0.04	0.750			
0.6927	44331.52	3.6210	3.6211	0.8994	25.13	-0.04	0.750			
0.6954	44503.59	3.6180	3.6181	0.8719	25.14	-0.03	0.750			
0.6979	44668.70	3.6150	3.6144	0.8309	25.14	-0.03	0.750			
0.7004	44827.08	3.6120	3.6122	0.7876	25.15	-0.02	0.750			
0.7027	44975.86	3.6090	3.6091	0.7294	25.15	-0.02	0.750			
0.7049	45115.71	3.6060	3.6061	0.6733	25.16	-0.01	0.750			
0.7068	45236.55	3.6030	3.6030	0.5979	25.16	-0.01	0.750			
0.7085	45343.25	3.6000	3.6000	0.5345	25.17	-0.00	0.750			
0.7100	45438.80	3.5970	3.5967	0.4764	25.17	-0.00	0.750			
0.7113	45523.59	3.5940	3.5941	0.4226	25.17	0.00	0.750			
0.7125	45600.38	3.5910	3.5910	0.3698	25.18	0.01	0.750			
0.7135	45666.43	3.5880	3.5878	0.3175	25.18	0.01	0.750			
0.7144	45723.61	3.5850	3.5849	0.2668	25.18	0.01	0.750			
0.7151	45769.07	3.5820	3.5822	0.2121	25.18	0.01	0.750			
0.7157	45805.56	3.5790	3.5793	0.1569	25.18	0.01	0.750			
0.7161	45831.79	3.5760	3.5765	0.0929	25.18	0.01	0.750			
0.7163	45843.47	3.5730	3.5745	0.0263	25.18	0.01	0.750			
