Ah_balance (normalized)	Ah_balance (mAh)	Voltage - fit (V)	Voltage -  interpolate (V)	dQ/dV (1/V)	Temperature (°C)	Temperature - diff (°C)	Current (C)	R_DC 0ms (mOhm)	R_DC 50ms (mOhm)	R_DC 50 ms PEC (mOhm)
0.0486	3110.02	4.1970	4.1970	0.7213	26.07	0.41	0.750			
0.0508	3250.85	4.1940	4.1941	0.7372	26.07	0.41	0.750			
0.0530	3393.53	4.1910	4.1909	0.7466	26.07	0.41	0.750			
0.0553	3539.01	4.1880	4.1880	0.7482	26.07	0.41	0.750			
0.0576	3686.83	4.1850	4.1850	0.7417	26.07	0.41	0.750			
0.0598	3827.33	4.1820	4.1820	0.7467	26.07	0.41	0.750			
0.0620	3969.55	4.1790	4.1791	0.7489	26.07	0.41	0.750			
0.0642	4111.67	4.1760	4.1759	0.7492	26.07	0.41	0.750			
0.0665	4256.11	4.1730	4.1732	0.7554	26.07	0.41	0.750			
0.0688	4402.64	4.1700	4.1701	0.7600	26.07	0.41	0.750			
0.0711	4551.75	4.1670	4.1669	0.7560	26.07	0.41	0.750			
0.0734	4697.67	4.1640	4.1641	0.7587	26.07	0.41	0.750			
0.0756	4838.50	4.1610	4.1611	0.7554	26.07	0.41	0.750			
0.0779	4983.62	4.1580	4.1576	0.7589	26.07	0.41	0.750			
0.0801	5129.57	4.1550	4.1552	0.7612	26.07	0.41	0.750			
0.0824	5276.77	4.1520	4.1522	0.7633	26.07	0.41	0.750			
0.0848	5426.71	4.1490	4.1490	0.7714	26.07	0.41	0.750			
0.0872	5577.71	4.1460	4.1459	0.7785	26.07	0.41	0.750			
0.0894	5720.28	4.1430	4.1429	0.7664	26.07	0.41	0.750			
0.0917	5868.33	4.1400	4.1400	0.7701	26.07	0.41	0.750			
0.0941	6020.21	4.1370	4.1370	0.7647	26.07	0.41	0.750			
0.0963	6164.81	4.1340	4.1340	0.7671	26.07	0.41	0.750			
0.0986	6311.29	4.1310	4.1311	0.7709	26.08	0.42	0.750			
0.1009	6457.54	4.1280	4.1281	0.7742	26.08	0.42	0.750			
0.1032	6606.18	4.1250	4.1250	0.7768	26.08	0.42	0.750			
0.1056	6757.85	4.1220	4.1221	0.7796	26.08	0.42	0.750			
0.1080	6912.64	4.1190	4.1189	0.7668	26.08	0.42	0.750			
0.1103	7058.07	4.1160	4.1161	0.7737	26.07	0.41	0.750			
0.1125	7201.72	4.1130	4.1132	0.7705	26.07	0.41	0.750			
0.1148	7349.56	4.1100	4.1095	0.7807	26.07	0.41	0.750			
0.1172	7501.21	4.1070	4.1072	0.7846	26.07	0.41	0.750			
0.1196	7653.62	4.1040	4.1041	0.7904	26.07	0.41	0.750			
0.1220	7807.49	4.1010	4.1011	0.7908	26.08	0.42	0.750			
0.1244	7964.12	4.0980	4.0979	0.7949	26.08	0.42	0.750			
0.1267	8110.73	4.0950	4.0949	0.7878	26.08	0.42	0.750			
0.1291	8262.04	4.0920	4.0920	0.7881	26.08	0.42	0.750			
0.1315	8416.98	4.0890	4.0889	0.7792	26.08	0.42	0.750			
0.1338	8563.90	4.0860	4.0861	0.7872	26.08	0.42	0.750			
0.1362	8713.78	4.0830	4.0831	0.7902	26.09	0.43	0.750			
0.1385	8864.51	4.0800	4.0801	0.7973	26.09	0.43	0.750			
0.1409	9017.55	4.0770	4.0767	0.7990	26.09	0.43	0.750			
0.1434	9174.89	4.0740	4.0741	0.7955	26.09	0.43	0.750			
0.1458	9328.86	4.0710	4.0711	0.8079	26.09	0.43	0.750			
0.1482	9484.60	4.0680	4.0682	0.8107	26.09	0.43	0.750			
0.1506	9637.66	4.0650	4.0650	0.8057	26.09	0.43	0.750			
0.1530	9792.61	4.0620	4.0617	0.8095	26.09	0.43	0.750			
0.1555	9949.59	4.0590	4.0591	0.8118	26.09	0.43	0.750			
0.1579	10107.48	4.0560	4.0560	0.8216	26.09	0.43	0.750			
0.1604	10265.76	4.0530	4.0530	0.8251	26.09	0.43	0.750			
0.1628	10422.30	4.0500	4.0500	0.8224	26.09	0.43	0.750			
0.1653	10581.08	4.0470	4.0469	0.8260	26.09	0.43	0.750			
0.1678	10740.44	4.0440	4.0441	0.8291	26.09	0.43	0.750			
0.1704	10902.49	4.0410	4.0410	0.8225	26.09	0.43	0.750			
0.1728	11057.33	4.0380	4.0380	0.8262	26.09	0.43	0.750			
0.1752	11213.51	4.0350	4.0352	0.8268	26.09	0.43	0.750			
0.1777	11372.96	4.0320	4.0315	0.8318	26.09	0.43	0.750			
0.1802	11532.53	4.0290	4.0291	0.8385	26.09	0.43	0.750			
0.1827	11695.59	4.0260	4.0261	0.8380	26.10	0.44	0.750			
0.1853	11858.74	4.0230	4.0231	0.8435	26.10	0.44	0.750			
0.1878	12018.93	4.0200	4.0201	0.8413	26.11	0.45	0.750			
0.1903	12179.61	4.0170	4.0167	0.8501	26.11	0.45	0.750			
0.1929	12343.83	4.0140	4.0140	0.8541	26.11	0.45	0.750			
0.1955	12509.52	4.0110	4.0110	0.8608	26.11	0.45	0.750			
0.1981	12677.28	4.0080	4.0080	0.8664	26.11	0.45	0.750			
0.2007	12847.06	4.0050	4.0050	0.8702	26.11	0.45	0.750			
0.2033	13011.20	4.0020	4.0020	0.8616	26.11	0.45	0.750			
0.2059	13178.72	3.9990	3.9989	0.8480	26.12	0.46	0.750			
0.2084	13338.75	3.9960	3.9961	0.8490	26.12	0.46	0.750			
0.2109	13499.70	3.9930	3.9930	0.8572	26.12	0.46	0.750			
0.2135	13663.37	3.9900	3.9901	0.8607	26.13	0.47	0.750			
0.2161	13828.30	3.9870	3.9871	0.8665	26.13	0.47	0.750			
0.2187	13997.18	3.9840	3.9841	0.8699	26.13	0.47	0.750			
0.2213	14165.55	3.9810	3.9811	0.8797	26.13	0.47	0.750			
0.2240	14336.81	3.9780	3.9780	0.8815	26.13	0.47	0.750			
0.2266	14505.24	3.9750	3.9750	0.8758	26.13	0.47	0.750			
0.2293	14673.69	3.9720	3.9720	0.8776	26.13	0.47	0.750			
0.2319	14843.79	3.9690	3.9691	0.8754	26.13	0.47	0.750			
0.2345	15011.07	3.9660	3.9660	0.8746	26.13	0.47	0.750			
0.2372	15179.31	3.9630	3.9630	0.8771	26.13	0.47	0.750			
0.2398	15345.02	3.9600	3.9598	0.8726	26.13	0.47	0.750			
0.2424	15512.76	3.9570	3.9570	0.8775	26.13	0.47	0.750			
0.2450	15680.33	3.9540	3.9541	0.8713	26.13	0.47	0.750			
0.2476	15847.23	3.9510	3.9510	0.8758	26.13	0.47	0.750			
0.2502	16014.66	3.9480	3.9481	0.8757	26.13	0.47	0.750			
0.2529	16184.22	3.9450	3.9446	0.8793	26.13	0.47	0.750			
0.2555	16353.59	3.9420	3.9421	0.8786	26.13	0.47	0.750			
0.2582	16522.53	3.9390	3.9391	0.8711	26.13	0.47	0.750			
0.2608	16690.01	3.9360	3.9361	0.8728	26.13	0.47	0.750			
0.2634	16856.16	3.9330	3.9331	0.8636	26.13	0.47	0.750			
0.2659	17020.59	3.9300	3.9302	0.8621	26.13	0.47	0.750			
0.2686	17187.27	3.9270	3.9273	0.8610	26.12	0.46	0.750			
0.2711	17353.09	3.9240	3.9239	0.8682	26.12	0.46	0.750			
0.2738	17520.04	3.9210	3.9210	0.8716	26.12	0.46	0.750			
0.2763	17684.68	3.9180	3.9180	0.8624	26.11	0.45	0.750			
0.2789	17852.31	3.9150	3.9151	0.8718	26.11	0.45	0.750			
0.2816	18024.62	3.9120	3.9119	0.8654	26.11	0.45	0.750			
0.2842	18189.75	3.9090	3.9091	0.8694	26.11	0.45	0.750			
0.2868	18354.85	3.9060	3.9061	0.8777	26.11	0.45	0.750			
0.2894	18521.87	3.9030	3.9029	0.8762	26.11	0.45	0.750			
0.2920	18691.06	3.9000	3.9001	0.8814	26.10	0.44	0.750			
0.2947	18861.97	3.8970	3.8969	0.8746	26.10	0.44	0.750			
0.2973	19028.92	3.8940	3.8942	0.8761	26.09	0.43	0.750			
0.3000	19198.94	3.8910	3.8910	0.8840	26.08	0.42	0.750			
0.3026	19364.65	3.8880	3.8870	0.8787	26.07	0.41	0.750			
0.3052	19535.01	3.8850	3.8850	0.8753	26.07	0.41	0.750			
0.3079	19706.49	3.8820	3.8819	0.8747	26.06	0.40	0.750			
0.3105	19873.76	3.8790	3.8792	0.8742	26.06	0.40	0.750			
0.3132	20042.34	3.8760	3.8761	0.8861	26.05	0.39	0.750			
0.3157	20207.11	3.8730	3.8731	0.8796	26.05	0.39	0.750			
0.3184	20376.78	3.8700	3.8702	0.8875	26.04	0.38	0.750			
0.3210	20545.27	3.8670	3.8671	0.8826	26.04	0.38	0.750			
0.3237	20715.18	3.8640	3.8642	0.8920	26.04	0.38	0.750			
0.3264	20887.49	3.8610	3.8612	0.9001	26.03	0.37	0.750			
0.3291	21060.05	3.8580	3.8581	0.9025	26.03	0.37	0.750			
0.3318	21234.48	3.8550	3.8551	0.9028	26.02	0.36	0.750			
0.3345	21409.72	3.8520	3.8522	0.9120	26.01	0.35	0.750			
0.3373	21587.51	3.8490	3.8490	0.9270	26.00	0.34	0.750			
0.3400	21761.71	3.8460	3.8451	0.9224	25.99	0.33	0.750			
0.3428	21940.23	3.8430	3.8431	0.9260	25.98	0.32	0.750			
0.3456	22119.27	3.8400	3.8394	0.9335	25.97	0.31	0.750	0.335	0.452	
0.3485	22301.81	3.8370	3.8372	0.9464	25.96	0.30	0.750			
0.3513	22485.73	3.8340	3.8339	0.9528	25.95	0.29	0.750			
0.3541	22665.46	3.8310	3.8310	0.9486	25.95	0.29	0.750			
0.3570	22846.89	3.8280	3.8280	0.9349	25.94	0.28	0.750			
0.3597	23023.97	3.8250	3.8252	0.9528	25.93	0.27	0.750			
0.3626	23206.95	3.8220	3.8221	0.9661	25.93	0.27	0.750			
0.3655	23392.32	3.8190	3.8184	0.9760	25.92	0.26	0.750			
0.3685	23581.17	3.8160	3.8161	0.9758	25.91	0.25	0.750			
0.3714	23770.38	3.8130	3.8132	0.9896	25.90	0.24	0.750			
0.3744	23964.22	3.8100	3.8101	1.0075	25.89	0.23	0.750			
0.3774	24155.50	3.8070	3.8061	1.0038	25.88	0.22	0.750			
0.3804	24348.18	3.8040	3.8041	1.0184	25.87	0.21	0.750			
0.3835	24544.23	3.8010	3.8010	1.0340	25.87	0.21	0.750			
0.3867	24745.69	3.7980	3.7981	1.0554	25.86	0.20	0.750			
0.3899	24955.12	3.7950	3.7948	1.0745	25.85	0.19	0.750			
0.3931	25158.92	3.7920	3.7921	1.0721	25.84	0.18	0.750			
0.3963	25363.32	3.7890	3.7891	1.0941	25.83	0.17	0.750			
0.3996	25574.62	3.7860	3.7861	1.1112	25.82	0.16	0.750			
0.4030	25792.37	3.7830	3.7830	1.1166	25.81	0.15	0.750			
0.4063	26003.92	3.7800	3.7802	1.1392	25.80	0.14	0.750			
0.4097	26223.57	3.7770	3.7772	1.1611	25.79	0.13	0.750			
0.4133	26451.80	3.7740	3.7741	1.1913	25.78	0.12	0.750			
0.4169	26679.30	3.7710	3.7711	1.2027	25.76	0.10	0.750			
0.4205	26912.36	3.7680	3.7682	1.2322	25.75	0.09	0.750			
0.4243	27154.54	3.7650	3.7651	1.2660	25.74	0.08	0.750			
0.4282	27407.10	3.7620	3.7619	1.2631	25.73	0.07	0.750			
0.4319	27644.59	3.7590	3.7590	1.2890	25.72	0.06	0.750			
0.4358	27890.06	3.7560	3.7562	1.3239	25.70	0.04	0.750			
0.4399	28155.09	3.7530	3.7520	1.3212	25.69	0.03	0.750			
0.4438	28406.19	3.7500	3.7502	1.3684	25.68	0.02	0.750			
0.4479	28667.62	3.7470	3.7473	1.4135	25.68	0.02	0.750			
0.4522	28943.36	3.7440	3.7437	1.4655	25.67	0.01	0.750			
0.4568	29237.35	3.7410	3.7412	1.4992	25.66	-0.00	0.750			
0.4611	29512.89	3.7380	3.7383	1.5072	25.64	-0.02	0.750			
0.4659	29816.45	3.7350	3.7353	1.5107	25.63	-0.03	0.750			
0.4705	30108.99	3.7320	3.7315	1.5903	25.61	-0.05	0.750			
0.4751	30406.44	3.7290	3.7288	1.5836	25.60	-0.06	0.750			
0.4800	30717.17	3.7260	3.7262	1.6436	25.59	-0.07	0.750			
0.4850	31038.93	3.7230	3.7228	1.7413	25.58	-0.08	0.750			
0.4904	31386.77	3.7200	3.7203	1.8048	25.57	-0.09	0.750			
0.4960	31742.07	3.7170	3.7168	1.8706	25.56	-0.10	0.750			
0.5015	32097.17	3.7140	3.7143	1.9106	25.54	-0.12	0.750			
0.5073	32468.73	3.7110	3.7113	1.9587	25.53	-0.13	0.750			
0.5133	32850.18	3.7080	3.7083	2.0018	25.52	-0.14	0.750			
0.5192	33229.63	3.7050	3.7049	2.0275	25.51	-0.15	0.750			
0.5255	33629.91	3.7020	3.7024	2.0909	25.50	-0.16	0.750			
0.5318	34037.67	3.6990	3.6983	2.1684	25.48	-0.18	0.750			
0.5384	34455.19	3.6960	3.6960	2.2028	25.47	-0.19	0.750			
0.5451	34887.75	3.6930	3.6935	2.3242	25.47	-0.19	0.750			
0.5523	35349.20	3.6900	3.6897	2.2756	25.46	-0.20	0.750			
0.5594	35799.83	3.6870	3.6871	2.3461	25.45	-0.21	0.750			
0.5664	36247.70	3.6840	3.6840	2.3427	25.45	-0.21	0.750			
0.5733	36691.82	3.6810	3.6813	2.4676	25.45	-0.21	0.750			
0.5811	37189.09	3.6780	3.6781	2.5546	25.45	-0.21	0.750			
0.5884	37654.50	3.6750	3.6753	2.3468	25.44	-0.22	0.750			
0.5951	38089.36	3.6720	3.6723	2.1829	25.44	-0.22	0.750			
0.6013	38486.33	3.6690	3.6694	2.0616	25.45	-0.21	0.750			
0.6073	38866.31	3.6660	3.6656	1.9969	25.46	-0.20	0.750			
0.6131	39240.02	3.6630	3.6628	1.9235	25.47	-0.19	0.750			
0.6186	39588.47	3.6600	3.6605	1.7608	25.47	-0.19	0.750			
0.6236	39909.72	3.6570	3.6576	1.6333	25.48	-0.18	0.750			
0.6285	40221.82	3.6540	3.6542	1.5260	25.48	-0.18	0.750			
0.6327	40494.20	3.6510	3.6513	1.4136	25.49	-0.17	0.750			
0.6369	40759.21	3.6480	3.6482	1.3101	25.50	-0.16	0.750			
0.6405	40992.37	3.6450	3.6443	1.2409	25.51	-0.15	0.750			
0.6441	41224.13	3.6420	3.6424	1.1758	25.52	-0.14	0.750			
0.6476	41448.27	3.6390	3.6392	1.1316	25.53	-0.13	0.750			
0.6509	41658.42	3.6360	3.6362	1.0807	25.54	-0.12	0.750			
0.6542	41866.49	3.6330	3.6329	1.0512	25.54	-0.12	0.750			
0.6571	42051.30	3.6300	3.6301	0.9823	25.55	-0.11	0.750			
0.6601	42243.78	3.6270	3.6269	0.9337	25.56	-0.10	0.750			
0.6627	42415.48	3.6240	3.6240	0.8637	25.56	-0.10	0.750			
0.6651	42564.07	3.6210	3.6203	0.8428	25.57	-0.09	0.750			
0.6673	42709.95	3.6180	3.6189	0.8347	25.58	-0.08	0.750			
0.6699	42870.61	3.6150	3.6137	0.8346	25.59	-0.07	0.750			
0.6724	43031.06	3.6120	3.6127	0.8273	25.59	-0.07	0.750			
0.6750	43200.07	3.6090	3.6093	0.7949	25.60	-0.06	0.750			
0.6777	43374.42	3.6060	3.6059	0.7621	25.61	-0.05	0.750			
0.6798	43507.26	3.6030	3.6030	0.6611	25.62	-0.04	0.750			
0.6816	43622.26	3.6000	3.5999	0.5812	25.63	-0.03	0.750			
0.6831	43721.34	3.5970	3.5970	0.5152	25.63	-0.03	0.750			
0.6846	43814.34	3.5940	3.5940	0.4615	25.64	-0.02	0.750			
0.6859	43899.02	3.5910	3.5910	0.4168	25.64	-0.02	0.750			
0.6871	43974.32	3.5880	3.5880	0.3697	25.65	-0.01	0.750			
0.6882	44041.67	3.5850	3.5849	0.3220	25.65	-0.01	0.750			
0.6890	44098.92	3.5820	3.5820	0.2734	25.66	-0.00	0.750			
0.6898	44147.29	3.5790	3.5790	0.2248	25.66	-0.00	0.750			
0.6904	44185.72	3.5760	3.5761	0.1744	25.66	0.00	0.750			
0.6909	44215.38	3.5730	3.5732	0.1196	25.66	0.00	0.750			
0.6911	44233.03	3.5700	3.5713	0.0673	25.66	0.00	0.751			
