Ah_balance (normalized)	Ah_balance (mAh)	Voltage - fit (V)	Voltage -  interpolate (V)	dQ/dV (1/V)	Temperature (°C)	Temperature - diff (°C)	Current (C)	R_DC 0ms (mOhm)	R_DC 50ms (mOhm)	R_DC 50 ms PEC (mOhm)
0.0004	25.09	4.1600	4.1598	-0.1277	25.21	0.01	-0.750			
0.0008	53.82	4.1570	4.1570	-0.1714	25.21	0.01	-0.750			
0.0014	91.58	4.1540	4.1540	-0.2137	25.21	0.01	-0.750			
0.0021	137.16	4.1510	4.1511	-0.2553	25.21	0.01	-0.750			
0.0030	190.52	4.1480	4.1479	-0.2919	25.20	0.00	-0.750			
0.0039	251.41	4.1450	4.1450	-0.3295	25.20	0.00	-0.750			
0.0050	318.03	4.1420	4.1423	-0.3656	25.20	0.00	-0.750			
0.0061	391.67	4.1390	4.1388	-0.3996	25.20	-0.00	-0.750			
0.0074	471.44	4.1360	4.1361	-0.4323	25.19	-0.01	-0.750			
0.0087	557.61	4.1330	4.1329	-0.4636	25.19	-0.01	-0.750			
0.0102	651.38	4.1300	4.1301	-0.4953	25.19	-0.01	-0.750			
0.0117	750.34	4.1270	4.1270	-0.5229	25.18	-0.02	-0.750			
0.0134	854.49	4.1240	4.1239	-0.5461	25.18	-0.02	-0.750			
0.0150	962.53	4.1210	4.1210	-0.5609	25.18	-0.02	-0.750			
0.0167	1071.72	4.1180	4.1178	-0.5792	25.17	-0.03	-0.750			
0.0185	1183.94	4.1150	4.1148	-0.5957	25.17	-0.03	-0.750			
0.0203	1299.56	4.1120	4.1119	-0.6105	25.16	-0.04	-0.750			
0.0221	1417.32	4.1090	4.1089	-0.6236	25.16	-0.04	-0.750			
0.0240	1536.72	4.1060	4.1061	-0.6347	25.15	-0.05	-0.750			
0.0260	1665.62	4.1030	4.1030	-0.6512	25.15	-0.05	-0.750			
0.0280	1792.14	4.1000	4.1000	-0.6586	25.14	-0.06	-0.750			
0.0300	1917.46	4.0970	4.0970	-0.6635	25.14	-0.06	-0.750			
0.0320	2045.66	4.0940	4.0940	-0.6706	25.14	-0.06	-0.750			
0.0340	2174.91	4.0910	4.0909	-0.6781	25.14	-0.06	-0.750			
0.0360	2305.97	4.0880	4.0880	-0.6895	25.14	-0.06	-0.750			
0.0381	2440.76	4.0850	4.0849	-0.6890	25.15	-0.05	-0.750			
0.0402	2575.26	4.0820	4.0820	-0.6966	25.15	-0.05	-0.750			
0.0423	2708.24	4.0790	4.0793	-0.7005	25.15	-0.05	-0.750			
0.0444	2842.11	4.0760	4.0758	-0.7027	25.15	-0.05	-0.750			
0.0465	2977.26	4.0730	4.0730	-0.7101	25.15	-0.05	-0.750			
0.0487	3113.64	4.0700	4.0700	-0.7190	25.15	-0.05	-0.750			
0.0509	3256.17	4.0670	4.0668	-0.7268	25.14	-0.06	-0.750			
0.0531	3397.93	4.0640	4.0639	-0.7253	25.14	-0.06	-0.750			
0.0552	3534.41	4.0610	4.0614	-0.7265	25.14	-0.06	-0.750			
0.0574	3672.91	4.0580	4.0580	-0.7282	25.14	-0.06	-0.750			
0.0596	3812.05	4.0550	4.0549	-0.7376	25.14	-0.06	-0.750			
0.0618	3953.37	4.0520	4.0520	-0.7295	25.14	-0.06	-0.750			
0.0640	4097.99	4.0490	4.0490	-0.7397	25.14	-0.06	-0.750			
0.0662	4237.68	4.0460	4.0460	-0.7399	25.14	-0.06	-0.750			
0.0684	4380.13	4.0430	4.0429	-0.7412	25.14	-0.06	-0.750			
0.0706	4520.81	4.0400	4.0399	-0.7382	25.14	-0.06	-0.750			
0.0728	4662.24	4.0370	4.0369	-0.7419	25.14	-0.06	-0.750			
0.0751	4805.17	4.0340	4.0342	-0.7432	25.15	-0.05	-0.750			
0.0774	4952.00	4.0310	4.0309	-0.7477	25.15	-0.05	-0.750			
0.0796	5093.73	4.0280	4.0281	-0.7483	25.15	-0.05	-0.750			
0.0818	5236.50	4.0250	4.0249	-0.7498	25.15	-0.05	-0.750			
0.0840	5378.33	4.0220	4.0219	-0.7575	25.15	-0.05	-0.750			
0.0864	5526.77	4.0190	4.0189	-0.7564	25.16	-0.04	-0.750			
0.0886	5670.80	4.0160	4.0160	-0.7588	25.16	-0.04	-0.750			
0.0909	5819.96	4.0130	4.0130	-0.7664	25.16	-0.04	-0.750			
0.0932	5967.11	4.0100	4.0102	-0.7677	25.16	-0.04	-0.750			
0.0955	6112.98	4.0070	4.0068	-0.7642	25.16	-0.04	-0.750			
0.0978	6260.56	4.0040	4.0040	-0.7683	25.16	-0.04	-0.750			
0.1001	6406.90	4.0010	4.0010	-0.7676	25.17	-0.03	-0.750			
0.1024	6556.45	3.9980	3.9980	-0.7749	25.17	-0.03	-0.750			
0.1048	6704.95	3.9950	3.9950	-0.7712	25.17	-0.03	-0.750			
0.1071	6852.87	3.9920	3.9920	-0.7728	25.17	-0.03	-0.750			
0.1095	7006.35	3.9890	3.9889	-0.7549	25.17	-0.03	-0.750			
0.1118	7152.77	3.9860	3.9860	-0.7286	25.18	-0.02	-0.750			
0.1139	7287.48	3.9830	3.9831	-0.7175	25.18	-0.02	-0.750			
0.1159	7420.55	3.9800	3.9806	-0.7052	25.18	-0.02	-0.750			
0.1180	7549.44	3.9770	3.9768	-0.7137	25.18	-0.02	-0.750			
0.1200	7681.62	3.9740	3.9740	-0.7214	25.18	-0.02	-0.750			
0.1222	7821.05	3.9710	3.9711	-0.7549	25.18	-0.02	-0.750			
0.1247	7978.96	3.9680	3.9676	-0.7807	25.18	-0.02	-0.750			
0.1271	8132.91	3.9650	3.9648	-0.7895	25.18	-0.02	-0.750			
0.1294	8283.54	3.9620	3.9619	-0.7901	25.18	-0.02	-0.750			
0.1318	8437.88	3.9590	3.9589	-0.7920	25.18	-0.02	-0.750			
0.1341	8583.29	3.9560	3.9559	-0.7841	25.18	-0.02	-0.750			
0.1365	8738.63	3.9530	3.9530	-0.7883	25.19	-0.01	-0.750			
0.1389	8890.97	3.9500	3.9500	-0.7952	25.19	-0.01	-0.750			
0.1413	9044.00	3.9470	3.9470	-0.8022	25.19	-0.01	-0.750			
0.1437	9198.26	3.9440	3.9440	-0.8009	25.19	-0.01	-0.750			
0.1461	9349.19	3.9410	3.9409	-0.8123	25.19	-0.01	-0.750			
0.1486	9508.56	3.9380	3.9381	-0.8073	25.19	-0.01	-0.750			
0.1510	9662.81	3.9350	3.9349	-0.8066	25.20	-0.00	-0.750			
0.1535	9821.00	3.9320	3.9319	-0.8069	25.20	-0.00	-0.750			
0.1559	9975.14	3.9290	3.9289	-0.8005	25.20	0.00	-0.750			
0.1582	10124.49	3.9260	3.9260	-0.8106	25.20	0.00	-0.750			
0.1607	10281.60	3.9230	3.9230	-0.8082	25.20	0.00	-0.750			
0.1630	10435.00	3.9200	3.9199	-0.8041	25.20	0.00	-0.750			
0.1655	10594.84	3.9170	3.9169	-0.8140	25.20	0.00	-0.750			
0.1680	10750.83	3.9140	3.9143	-0.8086	25.20	0.00	-0.750			
0.1704	10906.66	3.9110	3.9109	-0.8036	25.20	0.00	-0.750			
0.1728	11059.41	3.9080	3.9079	-0.8011	25.21	0.01	-0.750			
0.1752	11211.06	3.9050	3.9051	-0.7918	25.21	0.01	-0.750			
0.1776	11365.74	3.9020	3.9019	-0.8029	25.22	0.02	-0.750			
0.1800	11520.15	3.8990	3.8994	-0.8017	25.22	0.02	-0.750			
0.1824	11673.17	3.8960	3.8959	-0.8023	25.22	0.02	-0.750			
0.1848	11827.03	3.8930	3.8929	-0.8085	25.22	0.02	-0.750			
0.1872	11983.82	3.8900	3.8900	-0.8048	25.22	0.02	-0.750			
0.1897	12138.85	3.8870	3.8869	-0.8131	25.22	0.02	-0.750			
0.1921	12294.20	3.8840	3.8843	-0.8138	25.22	0.02	-0.750			
0.1946	12451.49	3.8810	3.8808	-0.8041	25.22	0.02	-0.750			
0.1970	12606.78	3.8780	3.8780	-0.8163	25.23	0.03	-0.750			
0.1995	12765.94	3.8750	3.8750	-0.8027	25.23	0.03	-0.750			
0.2019	12919.84	3.8720	3.8718	-0.7916	25.23	0.03	-0.750			
0.2043	13073.25	3.8690	3.8694	-0.7930	25.24	0.04	-0.750			
0.2066	13221.53	3.8660	3.8658	-0.7805	25.24	0.04	-0.750			
0.2089	13367.85	3.8630	3.8629	-0.7753	25.24	0.04	-0.750			
0.2112	13516.28	3.8600	3.8599	-0.8002	25.24	0.04	-0.750			
0.2136	13671.66	3.8570	3.8570	-0.8214	25.25	0.05	-0.750			
0.2162	13833.91	3.8540	3.8537	-0.8200	25.25	0.05	-0.750			
0.2187	13994.34	3.8510	3.8512	-0.8202	25.25	0.05	-0.750			
0.2211	14151.34	3.8480	3.8480	-0.8027	25.25	0.05	-0.750			
0.2235	14303.54	3.8450	3.8450	-0.7880	25.25	0.05	-0.750			
0.2258	14448.48	3.8420	3.8421	-0.7625	25.26	0.06	-0.750			
0.2281	14595.78	3.8390	3.8387	-0.7637	25.26	0.06	-0.750			
0.2303	14740.81	3.8360	3.8362	-0.7592	25.26	0.06	-0.750			
0.2326	14886.49	3.8330	3.8329	-0.7622	25.26	0.06	-0.750			
0.2349	15033.15	3.8300	3.8300	-0.7670	25.26	0.06	-0.750			
0.2372	15183.02	3.8270	3.8270	-0.7680	25.27	0.07	-0.750			
0.2395	15329.72	3.8240	3.8238	-0.7646	25.27	0.07	-0.750			
0.2418	15477.65	3.8210	3.8210	-0.7629	25.27	0.07	-0.750			
0.2441	15622.62	3.8180	3.8179	-0.7582	25.27	0.07	-0.750			
0.2464	15767.36	3.8150	3.8150	-0.7560	25.27	0.07	-0.750			
0.2486	15911.76	3.8120	3.8120	-0.7545	25.27	0.07	-0.750			
0.2509	16057.21	3.8090	3.8089	-0.7514	25.28	0.08	-0.750			
0.2532	16203.76	3.8060	3.8060	-0.7563	25.28	0.08	-0.750			
0.2554	16348.21	3.8030	3.8032	-0.7547	25.28	0.08	-0.750			
0.2577	16492.65	3.8000	3.8000	-0.7558	25.28	0.08	-0.750			
0.2600	16636.83	3.7970	3.7970	-0.7614	25.28	0.08	-0.750			
0.2622	16781.21	3.7940	3.7940	-0.7609	25.27	0.07	-0.750			
0.2646	16932.60	3.7910	3.7910	-0.7708	25.27	0.07	-0.750			
0.2669	17080.06	3.7880	3.7879	-0.7676	25.27	0.07	-0.750			
0.2692	17226.80	3.7850	3.7850	-0.7691	25.27	0.07	-0.750			
0.2715	17373.53	3.7820	3.7820	-0.7815	25.27	0.07	-0.750			
0.2738	17522.73	3.7790	3.7789	-0.7788	25.28	0.08	-0.750			
0.2761	17671.67	3.7760	3.7759	-0.7829	25.28	0.08	-0.750			
0.2785	17825.32	3.7730	3.7730	-0.7930	25.28	0.08	-0.750			
0.2809	17978.48	3.7700	3.7698	-0.7980	25.28	0.08	-0.750			
0.2833	18132.05	3.7670	3.7670	-0.8043	25.28	0.08	-0.750			
0.2857	18285.69	3.7640	3.7641	-0.8083	25.28	0.08	-0.750			
0.2881	18439.00	3.7610	3.7610	-0.8103	25.28	0.08	-0.750			
0.2906	18598.39	3.7580	3.7579	-0.8203	25.28	0.08	-0.750			
0.2931	18756.18	3.7550	3.7552	-0.8256	25.28	0.08	-0.750			
0.2956	18915.36	3.7520	3.7521	-0.8294	25.28	0.08	-0.750			
0.2981	19076.48	3.7490	3.7490	-0.8347	25.28	0.08	-0.750			
0.3006	19235.86	3.7460	3.7460	-0.8442	25.27	0.07	-0.750			
0.3031	19398.10	3.7430	3.7430	-0.8492	25.27	0.07	-0.750			
0.3056	19561.45	3.7400	3.7400	-0.8555	25.27	0.07	-0.750			
0.3082	19726.25	3.7370	3.7370	-0.8730	25.27	0.07	-0.750			
0.3109	19895.98	3.7340	3.7340	-0.8792	25.27	0.07	-0.750			
0.3135	20067.13	3.7310	3.7309	-0.8882	25.27	0.07	-0.750			
0.3162	20239.19	3.7280	3.7279	-0.8974	25.27	0.07	-0.750			
0.3189	20409.65	3.7250	3.7249	-0.9064	25.27	0.07	-0.750			
0.3216	20585.24	3.7220	3.7220	-0.9173	25.26	0.06	-0.750			
0.3244	20761.57	3.7190	3.7189	-0.9205	25.26	0.06	-0.750			
0.3271	20935.71	3.7160	3.7160	-0.9254	25.25	0.05	-0.750			
0.3300	21118.64	3.7130	3.7134	-0.9449	25.25	0.05	-0.750			
0.3328	21299.41	3.7100	3.7099	-0.9591	25.25	0.05	-0.750			
0.3357	21485.36	3.7070	3.7069	-0.9763	25.24	0.04	-0.750			
0.3387	21674.77	3.7040	3.7039	-0.9919	25.24	0.04	-0.750			
0.3417	21867.71	3.7010	3.7010	-1.0108	25.23	0.03	-0.750			
0.3448	22065.24	3.6980	3.6981	-1.0313	25.23	0.03	-0.750	0.382	0.547	
0.3479	22266.36	3.6950	3.6948	-1.0377	25.23	0.03	-0.750			
0.3510	22464.54	3.6920	3.6919	-1.0502	25.22	0.02	-0.750			
0.3541	22665.43	3.6890	3.6888	-1.0530	25.22	0.02	-0.750			
0.3573	22870.10	3.6860	3.6858	-1.0631	25.22	0.02	-0.750			
0.3606	23077.92	3.6830	3.6830	-1.0788	25.21	0.01	-0.750			
0.3638	23281.77	3.6800	3.6801	-1.0975	25.21	0.01	-0.750			
0.3671	23497.12	3.6770	3.6768	-1.1218	25.20	0.00	-0.750			
0.3705	23713.68	3.6740	3.6739	-1.1482	25.20	-0.00	-0.750			
0.3740	23935.10	3.6710	3.6712	-1.1670	25.19	-0.01	-0.750			
0.3775	24161.96	3.6680	3.6679	-1.1938	25.18	-0.02	-0.750			
0.3812	24393.98	3.6650	3.6652	-1.2056	25.18	-0.02	-0.750			
0.3848	24628.71	3.6620	3.6619	-1.2137	25.18	-0.02	-0.750			
0.3885	24860.91	3.6590	3.6588	-1.2257	25.17	-0.03	-0.750			
0.3921	25095.29	3.6560	3.6562	-1.2423	25.17	-0.03	-0.750			
0.3959	25339.48	3.6530	3.6529	-1.2705	25.17	-0.03	-0.750			
0.3998	25584.64	3.6500	3.6499	-1.2937	25.16	-0.04	-0.750			
0.4037	25836.24	3.6470	3.6470	-1.3227	25.16	-0.04	-0.750			
0.4077	26093.71	3.6440	3.6439	-1.3522	25.16	-0.04	-0.750			
0.4117	26350.94	3.6410	3.6410	-1.3887	25.15	-0.05	-0.750			
0.4160	26621.05	3.6380	3.6380	-1.4199	25.14	-0.06	-0.750			
0.4204	26903.46	3.6350	3.6347	-1.4263	25.14	-0.06	-0.750			
0.4247	27182.32	3.6320	3.6316	-1.4678	25.13	-0.07	-0.750			
0.4292	27465.93	3.6290	3.6296	-1.4816	25.12	-0.08	-0.750			
0.4336	27751.79	3.6260	3.6257	-1.4945	25.12	-0.08	-0.750			
0.4381	28037.99	3.6230	3.6228	-1.5231	25.11	-0.09	-0.750			
0.4427	28334.06	3.6200	3.6200	-1.5383	25.11	-0.09	-0.750			
0.4473	28628.38	3.6170	3.6170	-1.6098	25.11	-0.09	-0.750			
0.4523	28944.68	3.6140	3.6139	-1.6182	25.10	-0.10	-0.750			
0.4571	29254.50	3.6110	3.6109	-1.6305	25.10	-0.10	-0.750			
0.4621	29576.45	3.6080	3.6078	-1.6803	25.10	-0.10	-0.750			
0.4671	29897.52	3.6050	3.6053	-1.7131	25.10	-0.10	-0.750			
0.4723	30226.24	3.6020	3.6024	-1.7485	25.10	-0.10	-0.750			
0.4777	30574.38	3.5990	3.5993	-1.7709	25.09	-0.11	-0.750			
0.4830	30914.61	3.5960	3.5957	-1.7880	25.09	-0.11	-0.750			
0.4886	31272.14	3.5930	3.5927	-1.8335	25.08	-0.12	-0.750			
0.4942	31627.38	3.5900	3.5897	-1.8579	25.08	-0.12	-0.750			
0.4998	31984.72	3.5870	3.5867	-1.8733	25.08	-0.12	-0.750			
0.5053	32336.42	3.5840	3.5844	-1.8983	25.08	-0.12	-0.750			
0.5111	32707.47	3.5810	3.5809	-1.9191	25.08	-0.12	-0.750			
0.5168	33076.19	3.5780	3.5782	-1.8979	25.07	-0.13	-0.750			
0.5224	33436.73	3.5750	3.5753	-1.9791	25.07	-0.13	-0.750			
0.5285	33825.43	3.5720	3.5722	-1.9714	25.07	-0.13	-0.750			
0.5344	34204.23	3.5690	3.5686	-1.9752	25.07	-0.13	-0.750			
0.5404	34586.66	3.5660	3.5658	-1.9765	25.07	-0.13	-0.750			
0.5464	34971.00	3.5630	3.5634	-1.9967	25.07	-0.13	-0.750			
0.5524	35353.54	3.5600	3.5603	-2.0443	25.08	-0.12	-0.750			
0.5584	35739.79	3.5570	3.5568	-2.0042	25.08	-0.12	-0.750			
0.5648	36147.73	3.5540	3.5539	-2.0215	25.08	-0.12	-0.750			
0.5709	36535.20	3.5510	3.5516	-2.0024	25.09	-0.11	-0.750			
0.5768	36917.58	3.5480	3.5482	-1.9533	25.09	-0.11	-0.750			
0.5827	37292.75	3.5450	3.5449	-1.9317	25.10	-0.10	-0.750			
0.5883	37651.82	3.5420	3.5421	-1.8814	25.11	-0.09	-0.750			
0.5941	38019.47	3.5390	3.5388	-1.9253	25.11	-0.09	-0.750			
0.5999	38391.62	3.5360	3.5361	-1.9201	25.13	-0.07	-0.750			
0.6058	38768.28	3.5330	3.5328	-1.8999	25.14	-0.06	-0.750			
0.6116	39139.21	3.5300	3.5302	-1.8780	25.15	-0.05	-0.750			
0.6170	39490.17	3.5270	3.5276	-1.7836	25.15	-0.05	-0.750			
0.6223	39828.62	3.5240	3.5242	-1.7511	25.16	-0.04	-0.750			
0.6274	40156.15	3.5210	3.5211	-1.7032	25.17	-0.03	-0.750			
0.6324	40474.50	3.5180	3.5177	-1.6699	25.19	-0.01	-0.750			
0.6374	40792.95	3.5150	3.5152	-1.6748	25.20	0.00	-0.750			
0.6424	41113.61	3.5120	3.5120	-1.6423	25.22	0.02	-0.750			
0.6476	41443.40	3.5090	3.5089	-1.6141	25.24	0.04	-0.750			
0.6524	41752.94	3.5060	3.5058	-1.5691	25.26	0.06	-0.750			
0.6569	42042.59	3.5030	3.5029	-1.4867	25.27	0.07	-0.750			
0.6614	42328.25	3.5000	3.4997	-1.4437	25.29	0.09	-0.750			
0.6655	42589.71	3.4970	3.4966	-1.3939	25.30	0.10	-0.750			
0.6695	42849.34	3.4940	3.4940	-1.3535	25.31	0.11	-0.750			
0.6735	43102.82	3.4910	3.4909	-1.3158	25.33	0.13	-0.750			
0.6776	43366.30	3.4880	3.4879	-1.2929	25.35	0.15	-0.750			
0.6814	43612.11	3.4850	3.4850	-1.2473	25.37	0.17	-0.750			
0.6851	43847.47	3.4820	3.4819	-1.1701	25.38	0.18	-0.750			
0.6885	44063.85	3.4790	3.4790	-1.0821	25.40	0.20	-0.750			
