Ah_balance (normalized)	Ah_balance (mAh)	Voltage - fit (V)	Voltage -  interpolate (V)	dQ/dV (1/V)	Temperature (°C)	Temperature - diff (°C)	Current (C)	R_DC 0ms (mOhm)	R_DC 50ms (mOhm)	R_DC 50 ms PEC (mOhm)
0.0488	3122.20	4.1970	4.1971	0.6727	25.86	0.46	0.750			
0.0509	3257.16	4.1940	4.1941	0.7196	25.86	0.46	0.750			
0.0531	3400.01	4.1910	4.1912	0.7426	25.86	0.46	0.750			
0.0554	3546.50	4.1880	4.1880	0.7481	25.86	0.46	0.750			
0.0577	3691.22	4.1850	4.1851	0.7531	25.86	0.46	0.750			
0.0600	3839.92	4.1820	4.1821	0.7594	25.86	0.46	0.750			
0.0622	3980.64	4.1790	4.1790	0.7525	25.86	0.46	0.750			
0.0645	4126.31	4.1760	4.1758	0.7540	25.86	0.46	0.750			
0.0667	4271.50	4.1730	4.1730	0.7539	25.86	0.46	0.750			
0.0691	4419.77	4.1700	4.1701	0.7522	25.86	0.46	0.750			
0.0713	4562.58	4.1670	4.1670	0.7518	25.87	0.47	0.750			
0.0735	4704.76	4.1640	4.1640	0.7536	25.87	0.47	0.750			
0.0758	4848.40	4.1610	4.1610	0.7545	25.87	0.47	0.750			
0.0780	4993.97	4.1580	4.1581	0.7561	25.87	0.47	0.750			
0.0803	5141.52	4.1550	4.1551	0.7633	25.88	0.48	0.750			
0.0826	5288.81	4.1520	4.1521	0.7592	25.88	0.48	0.750			
0.0849	5435.47	4.1490	4.1490	0.7613	25.88	0.48	0.750			
0.0872	5578.54	4.1460	4.1460	0.7596	25.89	0.49	0.750			
0.0894	5723.81	4.1430	4.1429	0.7642	25.89	0.49	0.750			
0.0917	5870.64	4.1400	4.1401	0.7691	25.89	0.49	0.750			
0.0941	6019.89	4.1370	4.1371	0.7699	25.89	0.49	0.750			
0.0964	6169.44	4.1340	4.1340	0.7732	25.89	0.49	0.750			
0.0987	6318.94	4.1310	4.1308	0.7750	25.89	0.49	0.750			
0.1010	6464.94	4.1280	4.1280	0.7724	25.89	0.49	0.750			
0.1033	6613.35	4.1250	4.1250	0.7738	25.89	0.49	0.750			
0.1057	6763.75	4.1220	4.1220	0.7703	25.89	0.49	0.750			
0.1080	6911.33	4.1190	4.1190	0.7728	25.89	0.49	0.750			
0.1103	7059.73	4.1160	4.1161	0.7756	25.89	0.49	0.750			
0.1126	7208.15	4.1130	4.1130	0.7730	25.89	0.49	0.750			
0.1149	7356.35	4.1100	4.1100	0.7726	25.89	0.49	0.750			
0.1173	7504.37	4.1070	4.1071	0.7764	25.89	0.49	0.750			
0.1196	7653.10	4.1040	4.1041	0.7769	25.90	0.50	0.750			
0.1219	7802.23	4.1010	4.1009	0.7817	25.90	0.50	0.750			
0.1242	7951.42	4.0980	4.0980	0.7802	25.91	0.51	0.750			
0.1266	8101.89	4.0950	4.0943	0.7854	25.91	0.51	0.750			
0.1290	8253.57	4.0920	4.0922	0.7910	25.91	0.51	0.750			
0.1314	8408.06	4.0890	4.0889	0.7887	25.91	0.51	0.750			
0.1337	8558.63	4.0860	4.0860	0.7945	25.91	0.51	0.750			
0.1361	8712.32	4.0830	4.0830	0.7994	25.91	0.51	0.750			
0.1385	8864.14	4.0800	4.0799	0.7978	25.91	0.51	0.750			
0.1409	9017.52	4.0770	4.0771	0.8052	25.91	0.51	0.750			
0.1433	9173.43	4.0740	4.0741	0.8031	25.91	0.51	0.750			
0.1457	9327.79	4.0710	4.0709	0.8043	25.92	0.52	0.750			
0.1482	9484.09	4.0680	4.0680	0.8073	25.92	0.52	0.750			
0.1506	9635.35	4.0650	4.0652	0.8063	25.92	0.52	0.750			
0.1530	9790.91	4.0620	4.0620	0.8117	25.92	0.52	0.750			
0.1555	9954.04	4.0590	4.0588	0.8002	25.92	0.52	0.750			
0.1579	10103.16	4.0560	4.0560	0.8010	25.92	0.52	0.750			
0.1603	10256.43	4.0530	4.0532	0.8100	25.93	0.53	0.750			
0.1626	10409.54	4.0500	4.0502	0.8119	25.93	0.53	0.750			
0.1651	10564.24	4.0470	4.0468	0.8154	25.93	0.53	0.750			
0.1676	10723.46	4.0440	4.0441	0.8146	25.94	0.54	0.750			
0.1700	10882.12	4.0410	4.0411	0.8278	25.94	0.54	0.750			
0.1726	11043.93	4.0380	4.0380	0.8339	25.94	0.54	0.750			
0.1750	11201.80	4.0350	4.0351	0.8286	25.95	0.55	0.750			
0.1775	11359.97	4.0320	4.0320	0.8345	25.95	0.55	0.750			
0.1801	11524.37	4.0290	4.0290	0.8332	25.95	0.55	0.750			
0.1826	11684.55	4.0260	4.0261	0.8431	25.95	0.55	0.750			
0.1851	11848.01	4.0230	4.0230	0.8444	25.95	0.55	0.750			
0.1877	12009.90	4.0200	4.0201	0.8419	25.95	0.55	0.750			
0.1902	12171.03	4.0170	4.0170	0.8450	25.95	0.55	0.750			
0.1927	12332.65	4.0140	4.0140	0.8494	25.95	0.55	0.750			
0.1953	12496.46	4.0110	4.0110	0.8393	25.95	0.55	0.750			
0.1977	12654.75	4.0080	4.0080	0.8513	25.95	0.55	0.750			
0.2002	12815.81	4.0050	4.0052	0.8539	25.95	0.55	0.750			
0.2029	12982.70	4.0020	4.0022	0.8627	25.95	0.55	0.750			
0.2055	13150.53	3.9990	3.9991	0.8599	25.96	0.56	0.750			
0.2081	13317.24	3.9960	3.9962	0.8678	25.96	0.56	0.750			
0.2107	13484.80	3.9930	3.9930	0.8749	25.96	0.56	0.750			
0.2133	13651.57	3.9900	3.9900	0.8694	25.97	0.57	0.750			
0.2159	13818.91	3.9870	3.9870	0.8691	25.97	0.57	0.750			
0.2186	13987.33	3.9840	3.9840	0.8671	25.97	0.57	0.750			
0.2212	14154.14	3.9810	3.9811	0.8696	25.97	0.57	0.750			
0.2238	14321.04	3.9780	3.9781	0.8645	25.97	0.57	0.750			
0.2263	14486.30	3.9750	3.9748	0.8662	25.97	0.57	0.750			
0.2289	14650.06	3.9720	3.9721	0.8664	25.97	0.57	0.750			
0.2315	14818.45	3.9690	3.9690	0.8633	25.97	0.57	0.750			
0.2341	14984.11	3.9660	3.9661	0.8722	25.96	0.56	0.750			
0.2367	15150.85	3.9630	3.9631	0.8690	25.96	0.56	0.750			
0.2393	15318.20	3.9600	3.9592	0.8729	25.96	0.56	0.750			
0.2420	15489.45	3.9570	3.9572	0.8670	25.96	0.56	0.750			
0.2446	15654.37	3.9540	3.9542	0.8702	25.96	0.56	0.750			
0.2472	15821.79	3.9510	3.9510	0.8756	25.96	0.56	0.750			
0.2499	15991.70	3.9480	3.9480	0.8862	25.96	0.56	0.750			
0.2524	16154.57	3.9450	3.9451	0.8732	25.96	0.56	0.750			
0.2551	16327.21	3.9420	3.9421	0.8706	25.96	0.56	0.750			
0.2578	16496.06	3.9390	3.9390	0.8768	25.96	0.56	0.750			
0.2604	16664.35	3.9360	3.9361	0.8789	25.95	0.55	0.750			
0.2630	16830.29	3.9330	3.9332	0.8713	25.95	0.55	0.750			
0.2656	16997.92	3.9300	3.9301	0.8745	25.95	0.55	0.750			
0.2682	17167.82	3.9270	3.9271	0.8636	25.94	0.54	0.750			
0.2708	17333.01	3.9240	3.9240	0.8686	25.94	0.54	0.750			
0.2734	17500.12	3.9210	3.9211	0.8702	25.94	0.54	0.750			
0.2760	17665.56	3.9180	3.9182	0.8652	25.93	0.53	0.750			
0.2786	17831.15	3.9150	3.9150	0.8680	25.93	0.53	0.750			
0.2812	17997.54	3.9120	3.9122	0.8691	25.93	0.53	0.750			
0.2838	18166.22	3.9090	3.9091	0.8751	25.92	0.52	0.750			
0.2865	18337.63	3.9060	3.9060	0.8865	25.92	0.52	0.750			
0.2891	18504.19	3.9030	3.9027	0.8795	25.92	0.52	0.750			
0.2918	18675.60	3.9000	3.9000	0.8737	25.91	0.51	0.750			
0.2944	18842.30	3.8970	3.8970	0.8768	25.91	0.51	0.750			
0.2970	19011.18	3.8940	3.8940	0.8762	25.90	0.50	0.750			
0.2996	19177.07	3.8910	3.8911	0.8743	25.90	0.50	0.750			
0.3023	19345.93	3.8880	3.8878	0.8755	25.89	0.49	0.750			
0.3049	19513.57	3.8850	3.8851	0.8760	25.88	0.48	0.750			
0.3075	19683.19	3.8820	3.8820	0.8668	25.88	0.48	0.750			
0.3101	19848.72	3.8790	3.8792	0.8750	25.88	0.48	0.750			
0.3127	20014.13	3.8760	3.8761	0.8738	25.87	0.47	0.750			
0.3153	20182.00	3.8730	3.8731	0.8794	25.87	0.47	0.750			
0.3180	20352.09	3.8700	3.8702	0.8810	25.86	0.46	0.750			
0.3207	20522.13	3.8670	3.8671	0.8872	25.85	0.45	0.750			
0.3234	20696.00	3.8640	3.8641	0.8961	25.84	0.44	0.750			
0.3260	20866.58	3.8610	3.8608	0.8920	25.83	0.43	0.750			
0.3287	21037.69	3.8580	3.8580	0.8942	25.83	0.43	0.750			
0.3314	21210.88	3.8550	3.8551	0.8900	25.82	0.42	0.750			
0.3341	21381.55	3.8520	3.8521	0.8915	25.82	0.42	0.750			
0.3367	21551.18	3.8490	3.8491	0.9045	25.81	0.41	0.750			
0.3394	21723.31	3.8460	3.8457	0.9113	25.81	0.41	0.750			
0.3422	21897.79	3.8430	3.8428	0.9201	25.80	0.40	0.750	0.317	0.459	
0.3449	22075.79	3.8400	3.8402	0.9155	25.79	0.39	0.750			
0.3477	22252.89	3.8370	3.8372	0.9338	25.78	0.38	0.750			
0.3505	22430.44	3.8340	3.8343	0.9433	25.77	0.37	0.750			
0.3533	22612.79	3.8310	3.8312	0.9452	25.76	0.36	0.750			
0.3562	22796.55	3.8280	3.8282	0.9617	25.76	0.36	0.750			
0.3592	22985.90	3.8250	3.8251	0.9757	25.75	0.35	0.750			
0.3621	23176.90	3.8220	3.8222	0.9818	25.74	0.34	0.750			
0.3651	23364.53	3.8190	3.8190	0.9781	25.73	0.33	0.750			
0.3680	23552.11	3.8160	3.8160	0.9790	25.72	0.32	0.750			
0.3709	23738.95	3.8130	3.8131	0.9824	25.71	0.31	0.750			
0.3739	23927.49	3.8100	3.8101	0.9992	25.70	0.30	0.750			
0.3769	24119.96	3.8070	3.8068	1.0135	25.69	0.29	0.750			
0.3800	24317.05	3.8040	3.8040	1.0107	25.68	0.28	0.750			
0.3829	24508.55	3.8010	3.8011	1.0324	25.67	0.27	0.750			
0.3861	24708.49	3.7980	3.7982	1.0493	25.66	0.26	0.750			
0.3893	24913.54	3.7950	3.7942	1.0572	25.65	0.25	0.750			
0.3925	25117.04	3.7920	3.7922	1.0785	25.64	0.24	0.750			
0.3957	25324.92	3.7890	3.7892	1.0966	25.63	0.23	0.750			
0.3991	25540.48	3.7860	3.7861	1.1212	25.62	0.22	0.750			
0.4025	25757.75	3.7830	3.7829	1.1167	25.61	0.21	0.750			
0.4058	25971.77	3.7800	3.7801	1.1418	25.60	0.20	0.750			
0.4093	26194.39	3.7770	3.7771	1.1689	25.59	0.19	0.750			
0.4128	26421.37	3.7740	3.7739	1.1876	25.58	0.18	0.750			
0.4164	26651.46	3.7710	3.7711	1.1826	25.57	0.17	0.750			
0.4200	26876.89	3.7680	3.7682	1.2162	25.56	0.16	0.750			
0.4236	27111.16	3.7650	3.7651	1.2477	25.55	0.15	0.750			
0.4274	27352.75	3.7620	3.7614	1.2756	25.54	0.14	0.750			
0.4312	27597.62	3.7590	3.7592	1.3026	25.53	0.13	0.750			
0.4352	27852.18	3.7560	3.7562	1.3412	25.52	0.12	0.750			
0.4394	28120.09	3.7530	3.7528	1.3721	25.51	0.11	0.750			
0.4436	28388.87	3.7500	3.7500	1.3595	25.50	0.10	0.750			
0.4477	28650.16	3.7470	3.7471	1.3945	25.48	0.08	0.750			
0.4520	28927.00	3.7440	3.7437	1.3925	25.47	0.07	0.750			
0.4561	29193.26	3.7410	3.7412	1.4045	25.46	0.06	0.750			
0.4603	29457.05	3.7380	3.7368	1.4595	25.44	0.04	0.750			
0.4646	29736.84	3.7350	3.7347	1.5176	25.43	0.03	0.750			
0.4692	30029.68	3.7320	3.7323	1.5753	25.42	0.02	0.750			
0.4741	30345.12	3.7290	3.7294	1.6296	25.41	0.01	0.750			
0.4792	30669.97	3.7260	3.7252	1.6768	25.39	-0.01	0.750			
0.4844	31004.48	3.7230	3.7227	1.7547	25.38	-0.02	0.750			
0.4898	31345.06	3.7200	3.7200	1.7596	25.37	-0.03	0.750			
0.4951	31685.48	3.7170	3.7172	1.7973	25.36	-0.04	0.750			
0.5003	32020.13	3.7140	3.7147	1.8605	25.35	-0.05	0.750			
0.5059	32376.44	3.7110	3.7112	1.9166	25.34	-0.06	0.750			
0.5117	32746.19	3.7080	3.7076	2.0444	25.33	-0.07	0.750			
0.5179	33144.45	3.7050	3.7048	2.2831	25.31	-0.09	0.750			
0.5250	33603.04	3.7020	3.7022	2.3714	25.30	-0.10	0.750			
0.5325	34081.79	3.6990	3.6996	2.3956	25.29	-0.11	0.750			
0.5400	34563.00	3.6960	3.6959	2.3832	25.28	-0.12	0.750			
0.5470	35004.85	3.6930	3.6929	2.3538	25.28	-0.12	0.750			
0.5537	35439.69	3.6900	3.6902	2.3334	25.28	-0.12	0.750			
0.5609	35895.21	3.6870	3.6870	2.3645	25.27	-0.13	0.750			
0.5680	36353.26	3.6840	3.6837	2.3720	25.26	-0.14	0.750			
0.5753	36816.21	3.6810	3.6810	2.3802	25.25	-0.15	0.750			
0.5824	37272.66	3.6780	3.6781	2.2837	25.25	-0.15	0.750			
0.5891	37702.70	3.6750	3.6754	2.1710	25.25	-0.15	0.750			
0.5954	38108.14	3.6720	3.6715	2.0439	25.25	-0.15	0.750			
0.6014	38492.26	3.6690	3.6688	1.9300	25.26	-0.14	0.750			
0.6070	38847.33	3.6660	3.6663	1.8460	25.26	-0.14	0.750			
0.6124	39193.65	3.6630	3.6634	1.7508	25.27	-0.13	0.750			
0.6174	39513.76	3.6600	3.6599	1.6356	25.28	-0.12	0.750			
0.6223	39828.44	3.6570	3.6573	1.5499	25.28	-0.12	0.750			
0.6267	40109.75	3.6540	3.6536	1.4293	25.29	-0.11	0.750			
0.6310	40384.73	3.6510	3.6510	1.3626	25.30	-0.10	0.750			
0.6346	40617.49	3.6480	3.6480	1.2385	25.30	-0.10	0.750			
0.6383	40848.75	3.6450	3.6449	1.1822	25.31	-0.09	0.750			
0.6417	41069.63	3.6420	3.6420	1.1290	25.32	-0.08	0.750			
0.6449	41274.53	3.6390	3.6391	1.0674	25.32	-0.08	0.750			
0.6480	41474.37	3.6360	3.6361	1.0283	25.33	-0.07	0.750			
0.6511	41672.31	3.6330	3.6326	0.9517	25.34	-0.06	0.750			
0.6538	41843.60	3.6300	3.6303	0.9198	25.35	-0.05	0.750			
0.6564	42008.59	3.6270	3.6275	0.8923	25.35	-0.05	0.750			
0.6590	42176.76	3.6240	3.6243	0.8777	25.36	-0.04	0.750			
0.6617	42346.94	3.6210	3.6215	0.8581	25.36	-0.04	0.750			
0.6642	42506.37	3.6180	3.6181	0.8194	25.37	-0.03	0.750			
0.6667	42670.76	3.6150	3.6152	0.7938	25.38	-0.02	0.750			
0.6692	42830.91	3.6120	3.6118	0.7514	25.38	-0.02	0.750			
0.6712	42958.66	3.6090	3.6090	0.6701	25.39	-0.01	0.750			
0.6732	43081.84	3.6060	3.6060	0.6169	25.39	-0.01	0.750			
0.6749	43195.37	3.6030	3.6031	0.5709	25.40	-0.00	0.750			
0.6766	43300.50	3.6000	3.5995	0.5238	25.40	-0.00	0.750			
0.6781	43397.15	3.5970	3.5970	0.4725	25.40	0.00	0.750			
0.6794	43482.27	3.5940	3.5941	0.4249	25.41	0.01	0.750			
0.6806	43559.46	3.5910	3.5910	0.3815	25.41	0.01	0.750			
0.6817	43628.78	3.5880	3.5880	0.3349	25.41	0.01	0.750			
0.6826	43686.88	3.5850	3.5850	0.2843	25.41	0.01	0.750			
0.6834	43736.04	3.5820	3.5823	0.2380	25.42	0.02	0.750			
0.6840	43778.18	3.5790	3.5793	0.1948	25.42	0.02	0.750			
0.6846	43812.13	3.5760	3.5764	0.1477	25.42	0.02	0.750			
0.6849	43835.81	3.5730	3.5730	0.0593	25.42	0.02	0.750			
