Ah_balance (normalized)	Ah_balance (mAh)	Voltage - fit (V)	Voltage -  interpolate (V)	dQ/dV (1/V)	Temperature (°C)	Temperature - diff (°C)	Current (C)	R_DC 0ms (mOhm)	R_DC 50ms (mOhm)	R_DC 50 ms PEC (mOhm)
0.0470	3011.16	4.1990	4.1990	0.7332	25.53	0.65	0.750			
0.0493	3153.41	4.1960	4.1960	0.7445	25.53	0.65	0.750			
0.0515	3297.03	4.1930	4.1929	0.7494	25.53	0.65	0.750			
0.0538	3441.49	4.1900	4.1900	0.7533	25.53	0.65	0.750			
0.0561	3591.41	4.1870	4.1869	0.7379	25.53	0.65	0.750			
0.0583	3730.76	4.1840	4.1841	0.7435	25.53	0.65	0.750			
0.0605	3870.83	4.1810	4.1812	0.7460	25.53	0.65	0.750			
0.0627	4012.50	4.1780	4.1782	0.7512	25.53	0.65	0.750			
0.0650	4158.30	4.1750	4.1751	0.7534	25.53	0.65	0.750			
0.0672	4303.45	4.1720	4.1722	0.7563	25.53	0.65	0.750			
0.0695	4449.79	4.1690	4.1691	0.7579	25.53	0.65	0.750			
0.0719	4599.70	4.1660	4.1660	0.7705	25.53	0.65	0.750			
0.0741	4741.29	4.1630	4.1630	0.7574	25.53	0.65	0.750			
0.0764	4888.15	4.1600	4.1602	0.7641	25.53	0.65	0.750			
0.0787	5035.47	4.1570	4.1572	0.7667	25.53	0.65	0.750			
0.0810	5185.00	4.1540	4.1539	0.7699	25.54	0.66	0.750			
0.0834	5334.71	4.1510	4.1510	0.7712	25.54	0.66	0.750			
0.0856	5479.69	4.1480	4.1480	0.7644	25.55	0.67	0.750			
0.0879	5626.69	4.1450	4.1450	0.7672	25.55	0.67	0.750			
0.0902	5774.61	4.1420	4.1420	0.7702	25.55	0.67	0.750			
0.0926	5926.65	4.1390	4.1389	0.7583	25.55	0.67	0.750			
0.0949	6071.76	4.1360	4.1360	0.7625	25.55	0.67	0.750			
0.0971	6216.28	4.1330	4.1331	0.7630	25.55	0.67	0.750			
0.0994	6360.98	4.1300	4.1302	0.7685	25.55	0.67	0.750			
0.1017	6507.33	4.1270	4.1270	0.7699	25.55	0.67	0.750			
0.1040	6656.56	4.1240	4.1241	0.7743	25.55	0.67	0.750			
0.1064	6807.05	4.1210	4.1211	0.7747	25.55	0.67	0.750			
0.1087	6956.43	4.1180	4.1181	0.7827	25.55	0.67	0.750			
0.1110	7105.75	4.1150	4.1150	0.7790	25.55	0.67	0.750			
0.1134	7254.95	4.1120	4.1110	0.7824	25.55	0.67	0.750			
0.1157	7406.41	4.1090	4.1091	0.7864	25.55	0.67	0.750			
0.1181	7560.42	4.1060	4.1061	0.7864	25.55	0.67	0.750			
0.1205	7711.38	4.1030	4.1030	0.7898	25.56	0.68	0.750			
0.1229	7864.95	4.1000	4.1001	0.7908	25.56	0.68	0.750			
0.1252	8011.53	4.0970	4.0968	0.7863	25.56	0.68	0.750			
0.1276	8163.97	4.0940	4.0940	0.7924	25.56	0.68	0.750			
0.1299	8316.50	4.0910	4.0910	0.7951	25.56	0.68	0.750			
0.1323	8469.98	4.0880	4.0881	0.7840	25.57	0.69	0.750			
0.1347	8620.17	4.0850	4.0851	0.7936	25.57	0.69	0.750			
0.1370	8769.89	4.0820	4.0822	0.7951	25.57	0.69	0.750			
0.1394	8922.63	4.0790	4.0791	0.7979	25.57	0.69	0.750			
0.1418	9075.92	4.0760	4.0763	0.8027	25.57	0.69	0.750			
0.1443	9232.46	4.0730	4.0730	0.8000	25.57	0.69	0.750			
0.1466	9385.18	4.0700	4.0701	0.8071	25.57	0.69	0.750			
0.1490	9538.31	4.0670	4.0671	0.8044	25.57	0.69	0.750			
0.1515	9692.95	4.0640	4.0636	0.8105	25.57	0.69	0.750			
0.1539	9850.50	4.0610	4.0612	0.8155	25.57	0.69	0.750			
0.1564	10009.34	4.0580	4.0582	0.8220	25.57	0.69	0.750			
0.1589	10170.86	4.0550	4.0549	0.8284	25.58	0.70	0.750			
0.1614	10327.69	4.0520	4.0520	0.8146	25.58	0.70	0.750			
0.1638	10483.59	4.0490	4.0490	0.8162	25.58	0.70	0.750			
0.1663	10641.50	4.0460	4.0460	0.8214	25.58	0.70	0.750			
0.1688	10801.42	4.0430	4.0430	0.8110	25.58	0.70	0.750			
0.1711	10952.82	4.0400	4.0400	0.8170	25.58	0.70	0.750			
0.1736	11107.65	4.0370	4.0372	0.8229	25.58	0.70	0.750			
0.1760	11266.53	4.0340	4.0332	0.8317	25.58	0.70	0.750			
0.1785	11426.88	4.0310	4.0311	0.8442	25.58	0.70	0.750			
0.1811	11592.33	4.0280	4.0281	0.8370	25.58	0.70	0.750			
0.1837	11754.43	4.0250	4.0252	0.8502	25.59	0.71	0.750			
0.1862	11914.68	4.0220	4.0221	0.8452	25.59	0.71	0.750			
0.1887	12078.32	4.0190	4.0183	0.8528	25.59	0.71	0.750			
0.1913	12244.59	4.0160	4.0161	0.8484	25.59	0.71	0.750			
0.1939	12408.07	4.0130	4.0132	0.8538	25.59	0.71	0.750			
0.1965	12575.94	4.0100	4.0101	0.8581	25.59	0.71	0.750			
0.1991	12742.92	4.0070	4.0070	0.8691	25.59	0.71	0.750			
0.2015	12899.01	4.0040	4.0039	0.8514	25.59	0.71	0.750			
0.2042	13067.52	4.0010	4.0010	0.8468	25.59	0.71	0.750			
0.2067	13230.52	3.9980	3.9981	0.8610	25.59	0.71	0.750			
0.2093	13395.94	3.9950	3.9951	0.8668	25.59	0.71	0.750			
0.2119	13562.03	3.9920	3.9921	0.8672	25.59	0.71	0.750			
0.2145	13728.02	3.9890	3.9892	0.8745	25.59	0.71	0.750			
0.2172	13897.93	3.9860	3.9861	0.8705	25.59	0.71	0.750			
0.2198	14065.23	3.9830	3.9831	0.8790	25.59	0.71	0.750			
0.2224	14235.76	3.9800	3.9800	0.8840	25.59	0.71	0.750			
0.2251	14404.06	3.9770	3.9772	0.8809	25.59	0.71	0.750			
0.2277	14574.87	3.9740	3.9740	0.8858	25.59	0.71	0.750			
0.2304	14746.37	3.9710	3.9711	0.8803	25.59	0.71	0.750			
0.2330	14913.83	3.9680	3.9681	0.8828	25.60	0.72	0.750			
0.2357	15085.88	3.9650	3.9650	0.8892	25.60	0.72	0.750			
0.2383	15252.92	3.9620	3.9616	0.8834	25.60	0.72	0.750			
0.2410	15421.61	3.9590	3.9591	0.8862	25.60	0.72	0.750			
0.2436	15592.45	3.9560	3.9561	0.8748	25.60	0.72	0.750			
0.2463	15761.56	3.9530	3.9531	0.8791	25.60	0.72	0.750			
0.2489	15927.50	3.9500	3.9501	0.8785	25.60	0.72	0.750			
0.2515	16095.86	3.9470	3.9469	0.8880	25.60	0.72	0.750			
0.2542	16270.20	3.9440	3.9441	0.8762	25.60	0.72	0.750			
0.2568	16434.43	3.9410	3.9413	0.8996	25.60	0.72	0.750			
0.2595	16608.18	3.9380	3.9381	0.9257	25.59	0.71	0.750			
0.2624	16792.14	3.9350	3.9349	0.9460	25.59	0.71	0.750			
0.2652	16970.57	3.9320	3.9321	0.9376	25.59	0.71	0.750			
0.2680	17153.99	3.9290	3.9295	0.9400	25.59	0.71	0.750			
0.2710	17342.31	3.9260	3.9261	0.9366	25.59	0.71	0.750			
0.2738	17523.58	3.9230	3.9229	0.9215	25.59	0.71	0.750			
0.2764	17689.87	3.9200	3.9201	0.8888	25.59	0.71	0.750			
0.2791	17861.94	3.9170	3.9170	0.8863	25.58	0.70	0.750			
0.2817	18030.73	3.9140	3.9139	0.8861	25.58	0.70	0.750			
0.2844	18199.87	3.9110	3.9110	0.8867	25.58	0.70	0.750			
0.2870	18370.32	3.9080	3.9081	0.8892	25.57	0.69	0.750			
0.2897	18541.83	3.9050	3.9050	0.8921	25.57	0.69	0.750			
0.2924	18712.82	3.9020	3.9021	0.8900	25.56	0.68	0.750			
0.2951	18883.50	3.8990	3.8990	0.8914	25.55	0.67	0.750			
0.2978	19056.04	3.8960	3.8960	0.8965	25.54	0.66	0.750			
0.3004	19225.80	3.8930	3.8927	0.8980	25.53	0.65	0.750			
0.3031	19398.52	3.8900	3.8901	0.8996	25.52	0.64	0.750			
0.3058	19572.18	3.8870	3.8870	0.9037	25.52	0.64	0.750			
0.3085	19746.94	3.8840	3.8840	0.9091	25.51	0.63	0.750			
0.3113	19923.01	3.8810	3.8811	0.9089	25.51	0.63	0.750			
0.3140	20096.73	3.8780	3.8780	0.9061	25.50	0.62	0.750			
0.3167	20271.34	3.8750	3.8750	0.9002	25.49	0.61	0.750			
0.3194	20441.44	3.8720	3.8721	0.8971	25.49	0.61	0.750			
0.3221	20613.78	3.8690	3.8690	0.9014	25.48	0.60	0.750			
0.3248	20785.67	3.8660	3.8659	0.9057	25.47	0.59	0.750			
0.3275	20960.06	3.8630	3.8630	0.9091	25.46	0.58	0.750			
0.3303	21136.83	3.8600	3.8600	0.9064	25.46	0.58	0.750			
0.3330	21310.18	3.8570	3.8571	0.9073	25.45	0.57	0.750			
0.3357	21484.99	3.8540	3.8541	0.9121	25.44	0.56	0.750			
0.3384	21659.68	3.8510	3.8506	0.9053	25.43	0.55	0.750			
0.3411	21831.36	3.8480	3.8480	0.9119	25.42	0.54	0.750			
0.3438	22005.50	3.8450	3.8452	0.9302	25.40	0.52	0.750			
0.3467	22187.45	3.8420	3.8418	0.9434	25.39	0.51	0.750	0.327	0.460	
0.3495	22370.14	3.8390	3.8390	0.9481	25.38	0.50	0.750			
0.3524	22556.33	3.8360	3.8362	0.9510	25.36	0.48	0.750			
0.3553	22739.35	3.8330	3.8330	0.9579	25.35	0.47	0.750			
0.3582	22925.73	3.8300	3.8300	0.9621	25.34	0.46	0.750			
0.3610	23106.92	3.8270	3.8271	0.9617	25.33	0.45	0.750			
0.3639	23290.35	3.8240	3.8239	0.9669	25.32	0.44	0.750			
0.3668	23477.04	3.8210	3.8211	0.9751	25.31	0.43	0.750			
0.3698	23665.10	3.8180	3.8180	0.9850	25.30	0.42	0.750			
0.3727	23854.77	3.8150	3.8150	0.9952	25.29	0.41	0.750			
0.3757	24046.37	3.8120	3.8117	1.0021	25.28	0.40	0.750			
0.3787	24239.90	3.8090	3.8091	1.0132	25.27	0.39	0.750			
0.3818	24435.47	3.8060	3.8060	1.0251	25.27	0.39	0.750			
0.3849	24634.00	3.8030	3.8030	1.0378	25.26	0.38	0.750			
0.3881	24835.30	3.8000	3.7999	1.0484	25.25	0.37	0.750			
0.3912	25037.17	3.7970	3.7970	1.0487	25.24	0.36	0.750			
0.3943	25236.28	3.7940	3.7941	1.0686	25.22	0.34	0.750			
0.3975	25441.53	3.7910	3.7911	1.0849	25.21	0.33	0.750			
0.4008	25651.00	3.7880	3.7875	1.1075	25.19	0.31	0.750			
0.4041	25864.19	3.7850	3.7852	1.1171	25.18	0.30	0.750			
0.4075	26079.11	3.7820	3.7821	1.1444	25.17	0.29	0.750			
0.4110	26303.26	3.7790	3.7791	1.1712	25.16	0.28	0.750			
0.4145	26528.77	3.7760	3.7761	1.1780	25.15	0.27	0.750			
0.4181	26756.65	3.7730	3.7730	1.2011	25.13	0.25	0.750			
0.4217	26991.77	3.7700	3.7702	1.2264	25.12	0.24	0.750			
0.4255	27231.89	3.7670	3.7669	1.2372	25.10	0.22	0.750			
0.4292	27467.76	3.7640	3.7640	1.2632	25.09	0.21	0.750			
0.4330	27711.07	3.7610	3.7611	1.2944	25.08	0.20	0.750			
0.4370	27965.51	3.7580	3.7579	1.3122	25.06	0.18	0.750			
0.4409	28217.85	3.7550	3.7551	1.3557	25.05	0.17	0.750			
0.4450	28478.84	3.7520	3.7522	1.3921	25.03	0.15	0.750			
0.4492	28750.87	3.7490	3.7490	1.4273	25.02	0.14	0.750			
0.4537	29034.86	3.7460	3.7460	1.4509	25.00	0.12	0.750			
0.4579	29308.68	3.7430	3.7431	1.4832	24.98	0.10	0.750			
0.4625	29598.12	3.7400	3.7400	1.5195	24.96	0.08	0.750			
0.4670	29890.42	3.7370	3.7371	1.5508	24.95	0.07	0.750			
0.4718	30193.94	3.7340	3.7339	1.5859	24.94	0.06	0.750			
0.4766	30503.92	3.7310	3.7312	1.6253	24.93	0.05	0.750			
0.4815	30818.94	3.7280	3.7280	1.6743	24.91	0.03	0.750			
0.4866	31144.50	3.7250	3.7251	1.7351	24.90	0.02	0.750			
0.4919	31480.18	3.7220	3.7223	1.7794	24.88	0.00	0.750			
0.4973	31824.31	3.7190	3.7189	1.8252	24.87	-0.01	0.750			
0.5028	32178.48	3.7160	3.7161	1.8610	24.85	-0.03	0.750			
0.5085	32544.82	3.7130	3.7129	1.9005	24.84	-0.04	0.750			
0.5144	32918.78	3.7100	3.7100	1.9675	24.82	-0.06	0.750			
0.5202	33291.24	3.7070	3.7071	2.0375	24.80	-0.08	0.750			
0.5265	33695.38	3.7040	3.7036	2.0775	24.79	-0.09	0.750			
0.5328	34099.57	3.7010	3.7009	2.1595	24.78	-0.10	0.750			
0.5392	34509.38	3.6980	3.6983	2.2355	24.78	-0.10	0.750			
0.5461	34948.50	3.6950	3.6950	2.2713	24.77	-0.11	0.750			
0.5531	35396.57	3.6920	3.6920	2.3396	24.76	-0.12	0.750			
0.5603	35860.87	3.6890	3.6888	2.4277	24.74	-0.14	0.750			
0.5675	36320.48	3.6860	3.6860	2.4406	24.73	-0.15	0.750			
0.5750	36800.63	3.6830	3.6831	2.4162	24.72	-0.16	0.750			
0.5822	37263.03	3.6800	3.6801	2.4514	24.72	-0.16	0.750			
0.5896	37734.42	3.6770	3.6769	2.3530	24.72	-0.16	0.750			
0.5967	38188.20	3.6740	3.6741	2.3117	24.72	-0.16	0.750			
0.6035	38623.69	3.6710	3.6711	2.2667	24.72	-0.16	0.750			
0.6103	39058.91	3.6680	3.6675	2.1363	24.73	-0.15	0.750			
0.6164	39447.63	3.6650	3.6650	1.9969	24.73	-0.15	0.750			
0.6225	39839.19	3.6620	3.6618	1.8849	24.74	-0.14	0.750			
0.6277	40170.25	3.6590	3.6593	1.7337	24.75	-0.13	0.750			
0.6327	40493.26	3.6560	3.6562	1.6127	24.76	-0.12	0.750			
0.6373	40788.87	3.6530	3.6529	1.4919	24.77	-0.11	0.750			
0.6416	41062.73	3.6500	3.6503	1.3990	24.78	-0.10	0.750			
0.6456	41321.19	3.6470	3.6471	1.3033	24.79	-0.09	0.750			
0.6494	41562.12	3.6440	3.6439	1.2222	24.80	-0.08	0.750			
0.6531	41798.55	3.6410	3.6409	1.1450	24.80	-0.08	0.750			
0.6562	41995.24	3.6380	3.6383	1.0747	24.81	-0.07	0.750			
0.6593	42196.11	3.6350	3.6350	1.0328	24.81	-0.07	0.750			
0.6623	42385.79	3.6320	3.6321	0.9828	24.82	-0.06	0.750			
0.6652	42570.03	3.6290	3.6291	0.9465	24.83	-0.05	0.750			
0.6680	42755.10	3.6260	3.6262	0.9038	24.84	-0.04	0.750			
0.6707	42924.07	3.6230	3.6231	0.8784	24.84	-0.04	0.750			
0.6733	43088.20	3.6200	3.6202	0.8322	24.85	-0.03	0.750			
0.6757	43244.90	3.6170	3.6163	0.7965	24.86	-0.02	0.750			
0.6781	43395.61	3.6140	3.6141	0.7599	24.86	-0.02	0.750			
0.6803	43540.81	3.6110	3.6111	0.7158	24.87	-0.01	0.750			
0.6824	43676.08	3.6080	3.6082	0.6645	24.87	-0.01	0.750			
0.6844	43801.08	3.6050	3.6050	0.6048	24.87	-0.01	0.750			
0.6861	43911.36	3.6020	3.6020	0.5529	24.88	-0.00	0.750			
0.6877	44010.17	3.5990	3.5990	0.5010	24.88	-0.00	0.750			
0.6891	44101.69	3.5960	3.5961	0.4534	24.88	0.00	0.750			
0.6904	44184.61	3.5930	3.5929	0.4078	24.88	0.00	0.750			
0.6915	44258.35	3.5900	3.5900	0.3613	24.89	0.01	0.750			
0.6926	44324.70	3.5870	3.5870	0.3136	24.89	0.01	0.750			
0.6934	44380.43	3.5840	3.5839	0.2646	24.89	0.01	0.750			
0.6942	44426.56	3.5810	3.5811	0.2135	24.89	0.01	0.750			
0.6947	44461.85	3.5780	3.5782	0.1620	24.89	0.01	0.750			
0.6951	44489.44	3.5750	3.5755	0.1076	24.89	0.01	0.750			
0.6954	44504.86	3.5720	3.5731	0.0492	24.89	0.01	0.750			
