Ah_balance (normalized)	Ah_balance (mAh)	Voltage - fit (V)	Voltage -  interpolate (V)	dQ/dV (1/V)	Temperature (°C)	Temperature - diff (°C)	Current (C)	R_DC 0ms (mOhm)	R_DC 50ms (mOhm)	R_DC 50 ms PEC (mOhm)
0.0001	9.44	4.1670	4.1670	-0.0810	25.38	0.01	-0.750			
0.0005	33.80	4.1640	4.1637	-0.1523	25.38	0.01	-0.750			
0.0011	68.62	4.1610	4.1608	-0.2012	25.38	0.01	-0.750			
0.0017	111.18	4.1580	4.1580	-0.2482	25.37	0.00	-0.750			
0.0026	164.59	4.1550	4.1554	-0.2905	25.37	0.00	-0.750			
0.0035	224.65	4.1520	4.1520	-0.3327	25.37	-0.00	-0.750			
0.0046	293.99	4.1490	4.1490	-0.3754	25.36	-0.01	-0.750			
0.0058	369.84	4.1460	4.1461	-0.4139	25.36	-0.01	-0.750			
0.0071	452.93	4.1430	4.1429	-0.4567	25.35	-0.02	-0.750			
0.0085	542.60	4.1400	4.1401	-0.5011	25.35	-0.02	-0.750			
0.0101	643.83	4.1370	4.1370	-0.5310	25.34	-0.03	-0.750			
0.0117	751.70	4.1340	4.1340	-0.5610	25.33	-0.04	-0.750			
0.0135	864.00	4.1310	4.1309	-0.5874	25.33	-0.04	-0.750			
0.0153	979.15	4.1280	4.1285	-0.6078	25.32	-0.05	-0.750			
0.0172	1098.37	4.1250	4.1248	-0.6239	25.32	-0.05	-0.750			
0.0190	1218.78	4.1220	4.1221	-0.6374	25.32	-0.05	-0.750			
0.0210	1343.47	4.1190	4.1190	-0.6559	25.32	-0.05	-0.750			
0.0230	1472.00	4.1160	4.1160	-0.6753	25.32	-0.05	-0.750			
0.0251	1603.62	4.1130	4.1128	-0.6825	25.32	-0.05	-0.750			
0.0271	1736.00	4.1100	4.1102	-0.6912	25.32	-0.05	-0.750			
0.0292	1868.95	4.1070	4.1070	-0.7042	25.32	-0.05	-0.750			
0.0313	2006.12	4.1040	4.1038	-0.7119	25.31	-0.06	-0.750			
0.0335	2143.28	4.1010	4.1010	-0.7238	25.31	-0.06	-0.750			
0.0357	2283.41	4.0980	4.0980	-0.7225	25.31	-0.06	-0.750			
0.0379	2424.92	4.0950	4.0950	-0.7306	25.30	-0.07	-0.750			
0.0401	2565.95	4.0920	4.0924	-0.7369	25.30	-0.07	-0.750			
0.0423	2705.91	4.0890	4.0889	-0.7388	25.30	-0.07	-0.750			
0.0445	2845.96	4.0860	4.0860	-0.7421	25.30	-0.07	-0.750			
0.0467	2989.44	4.0830	4.0830	-0.7453	25.29	-0.08	-0.750			
0.0490	3135.39	4.0800	4.0801	-0.7530	25.29	-0.08	-0.750			
0.0512	3279.88	4.0770	4.0768	-0.7598	25.29	-0.08	-0.750			
0.0535	3424.98	4.0740	4.0740	-0.7611	25.29	-0.08	-0.750			
0.0558	3572.74	4.0710	4.0709	-0.7602	25.29	-0.08	-0.750			
0.0581	3717.79	4.0680	4.0680	-0.7641	25.29	-0.08	-0.750			
0.0604	3865.26	4.0650	4.0651	-0.7606	25.29	-0.08	-0.750			
0.0627	4013.78	4.0620	4.0620	-0.7689	25.29	-0.08	-0.750			
0.0650	4161.06	4.0590	4.0591	-0.7675	25.29	-0.08	-0.750			
0.0673	4307.26	4.0560	4.0560	-0.7642	25.29	-0.08	-0.750			
0.0696	4453.57	4.0530	4.0529	-0.7712	25.29	-0.08	-0.750			
0.0719	4602.92	4.0500	4.0500	-0.7743	25.29	-0.08	-0.750			
0.0743	4752.03	4.0470	4.0469	-0.7767	25.29	-0.08	-0.750			
0.0766	4901.06	4.0440	4.0439	-0.7831	25.29	-0.08	-0.750			
0.0790	5053.31	4.0410	4.0409	-0.7839	25.29	-0.08	-0.750			
0.0813	5202.65	4.0380	4.0381	-0.7921	25.29	-0.08	-0.750			
0.0837	5356.15	4.0350	4.0349	-0.7900	25.29	-0.08	-0.750			
0.0860	5506.74	4.0320	4.0321	-0.7874	25.30	-0.07	-0.750			
0.0884	5659.79	4.0290	4.0288	-0.7927	25.30	-0.07	-0.750			
0.0908	5811.31	4.0260	4.0261	-0.7905	25.30	-0.07	-0.750			
0.0931	5961.50	4.0230	4.0230	-0.7921	25.30	-0.07	-0.750			
0.0956	6116.03	4.0200	4.0200	-0.7911	25.30	-0.07	-0.750			
0.0979	6265.48	4.0170	4.0170	-0.7903	25.30	-0.07	-0.750			
0.1003	6420.11	4.0140	4.0140	-0.7986	25.30	-0.07	-0.750			
0.1027	6572.38	4.0110	4.0114	-0.8020	25.30	-0.07	-0.750			
0.1051	6726.26	4.0080	4.0079	-0.8066	25.30	-0.07	-0.750			
0.1075	6882.81	4.0050	4.0050	-0.8154	25.31	-0.06	-0.750			
0.1100	7041.36	4.0020	4.0019	-0.8155	25.31	-0.06	-0.750			
0.1125	7201.15	3.9990	3.9989	-0.8204	25.32	-0.05	-0.750			
0.1149	7356.44	3.9960	3.9964	-0.8111	25.32	-0.05	-0.750			
0.1174	7511.91	3.9930	3.9929	-0.8080	25.32	-0.05	-0.750			
0.1198	7664.70	3.9900	3.9900	-0.8192	25.32	-0.05	-0.750			
0.1222	7823.03	3.9870	3.9867	-0.8139	25.32	-0.05	-0.750			
0.1247	7982.46	3.9840	3.9839	-0.8240	25.32	-0.05	-0.750			
0.1272	8139.79	3.9810	3.9815	-0.8203	25.32	-0.05	-0.750			
0.1297	8298.33	3.9780	3.9780	-0.8226	25.32	-0.05	-0.750			
0.1321	8455.35	3.9750	3.9748	-0.8246	25.32	-0.05	-0.750			
0.1345	8608.74	3.9720	3.9719	-0.8170	25.32	-0.05	-0.750			
0.1370	8768.48	3.9690	3.9690	-0.8269	25.32	-0.05	-0.750			
0.1395	8927.14	3.9660	3.9662	-0.8326	25.32	-0.05	-0.750			
0.1420	9087.80	3.9630	3.9629	-0.8337	25.32	-0.05	-0.750			
0.1445	9248.56	3.9600	3.9599	-0.8438	25.33	-0.04	-0.750			
0.1470	9410.33	3.9570	3.9570	-0.8428	25.34	-0.03	-0.750			
0.1496	9573.64	3.9540	3.9539	-0.8398	25.34	-0.03	-0.750			
0.1522	9737.90	3.9510	3.9512	-0.8421	25.35	-0.02	-0.750			
0.1547	9899.20	3.9480	3.9479	-0.8348	25.35	-0.02	-0.750			
0.1571	10056.13	3.9450	3.9449	-0.8411	25.35	-0.02	-0.750			
0.1597	10219.00	3.9420	3.9419	-0.8427	25.35	-0.02	-0.750			
0.1622	10378.90	3.9390	3.9389	-0.8417	25.35	-0.02	-0.750			
0.1648	10545.15	3.9360	3.9364	-0.8520	25.35	-0.02	-0.750			
0.1673	10709.27	3.9330	3.9330	-0.8514	25.35	-0.02	-0.750			
0.1699	10872.03	3.9300	3.9299	-0.8595	25.36	-0.01	-0.750			
0.1725	11037.43	3.9270	3.9269	-0.8588	25.36	-0.01	-0.750			
0.1750	11202.47	3.9240	3.9240	-0.8660	25.37	-0.00	-0.750			
0.1776	11369.27	3.9210	3.9213	-0.8664	25.37	0.00	-0.750			
0.1803	11536.96	3.9180	3.9179	-0.8649	25.37	0.00	-0.750			
0.1829	11703.43	3.9150	3.9150	-0.8709	25.37	0.00	-0.750			
0.1855	11871.17	3.9120	3.9119	-0.8663	25.37	0.00	-0.750			
0.1881	12037.38	3.9090	3.9089	-0.8686	25.37	0.00	-0.750			
0.1907	12204.19	3.9060	3.9062	-0.8679	25.37	0.00	-0.750			
0.1932	12367.67	3.9030	3.9031	-0.8737	25.37	0.00	-0.750			
0.1959	12537.79	3.9000	3.8998	-0.8752	25.37	0.00	-0.750			
0.1985	12703.90	3.8970	3.8971	-0.8713	25.38	0.01	-0.750			
0.2012	12876.51	3.8940	3.8939	-0.8810	25.38	0.01	-0.750			
0.2039	13048.25	3.8910	3.8910	-0.8796	25.38	0.01	-0.750			
0.2065	13214.79	3.8880	3.8879	-0.8819	25.38	0.01	-0.750			
0.2091	13380.62	3.8850	3.8850	-0.8765	25.39	0.02	-0.750			
0.2117	13547.62	3.8820	3.8819	-0.8716	25.39	0.02	-0.750			
0.2144	13719.58	3.8790	3.8790	-0.8841	25.39	0.02	-0.750			
0.2170	13889.14	3.8760	3.8759	-0.8870	25.39	0.02	-0.750			
0.2197	14060.10	3.8730	3.8730	-0.8881	25.39	0.02	-0.750			
0.2224	14231.79	3.8700	3.8699	-0.8849	25.40	0.03	-0.750			
0.2250	14399.40	3.8670	3.8670	-0.8794	25.40	0.03	-0.750			
0.2277	14569.66	3.8640	3.8644	-0.8854	25.40	0.03	-0.750			
0.2303	14737.97	3.8610	3.8610	-0.8915	25.40	0.03	-0.750			
0.2330	14909.85	3.8580	3.8579	-0.8889	25.41	0.04	-0.750			
0.2356	15080.21	3.8550	3.8549	-0.8934	25.41	0.04	-0.750			
0.2383	15253.99	3.8520	3.8521	-0.8970	25.42	0.05	-0.750			
0.2411	15427.49	3.8490	3.8492	-0.8962	25.42	0.05	-0.750			
0.2438	15601.01	3.8460	3.8459	-0.8941	25.42	0.05	-0.750			
0.2464	15770.79	3.8430	3.8430	-0.8890	25.43	0.06	-0.750			
0.2490	15938.56	3.8400	3.8400	-0.8836	25.43	0.06	-0.750			
0.2517	16109.00	3.8370	3.8369	-0.8900	25.43	0.06	-0.750			
0.2543	16277.30	3.8340	3.8339	-0.8931	25.43	0.06	-0.750			
0.2570	16450.72	3.8310	3.8310	-0.8977	25.43	0.06	-0.750			
0.2598	16624.97	3.8280	3.8279	-0.8996	25.44	0.07	-0.750			
0.2625	16798.45	3.8250	3.8250	-0.8962	25.44	0.07	-0.750			
0.2652	16972.37	3.8220	3.8222	-0.8967	25.44	0.07	-0.750			
0.2679	17143.26	3.8190	3.8190	-0.8993	25.44	0.07	-0.750			
0.2705	17314.55	3.8160	3.8160	-0.8917	25.44	0.07	-0.750			
0.2732	17485.48	3.8130	3.8130	-0.8908	25.45	0.08	-0.750			
0.2759	17657.93	3.8100	3.8099	-0.8907	25.45	0.08	-0.750			
0.2786	17828.11	3.8070	3.8069	-0.8862	25.45	0.08	-0.750			
0.2812	17997.81	3.8040	3.8040	-0.8902	25.45	0.08	-0.750			
0.2839	18168.95	3.8010	3.8009	-0.8838	25.46	0.09	-0.750			
0.2865	18338.15	3.7980	3.7980	-0.8775	25.46	0.09	-0.750			
0.2892	18507.53	3.7950	3.7950	-0.8821	25.46	0.09	-0.750			
0.2918	18675.94	3.7920	3.7920	-0.8827	25.46	0.09	-0.750			
0.2945	18846.10	3.7890	3.7889	-0.8805	25.46	0.09	-0.750			
0.2971	19014.90	3.7860	3.7859	-0.8698	25.47	0.10	-0.750			
0.2997	19179.86	3.7830	3.7831	-0.8652	25.47	0.10	-0.750			
0.3023	19348.65	3.7800	3.7800	-0.8717	25.47	0.10	-0.750			
0.3048	19510.21	3.7770	3.7770	-0.8827	25.47	0.10	-0.750			
0.3075	19681.14	3.7740	3.7738	-0.8687	25.47	0.10	-0.750			
0.3101	19849.23	3.7710	3.7710	-0.8714	25.48	0.11	-0.750			
0.3128	20019.89	3.7680	3.7678	-0.8740	25.48	0.11	-0.750			
0.3154	20188.53	3.7650	3.7654	-0.8661	25.48	0.11	-0.750			
0.3180	20353.67	3.7620	3.7619	-0.8559	25.49	0.12	-0.750			
0.3205	20514.32	3.7590	3.7590	-0.8532	25.49	0.12	-0.750			
0.3230	20674.83	3.7560	3.7560	-0.8479	25.50	0.13	-0.750			
0.3257	20841.83	3.7530	3.7529	-0.8600	25.51	0.14	-0.750			
0.3282	21004.83	3.7500	3.7502	-0.8592	25.51	0.14	-0.750			
0.3308	21168.40	3.7470	3.7470	-0.8774	25.51	0.14	-0.750			
0.3334	21339.62	3.7440	3.7439	-0.8700	25.51	0.14	-0.750			
0.3360	21505.30	3.7410	3.7409	-0.8670	25.51	0.14	-0.750			
0.3387	21674.16	3.7380	3.7379	-0.8759	25.51	0.14	-0.750			
0.3413	21841.67	3.7350	3.7349	-0.8807	25.51	0.14	-0.750			
0.3439	22009.17	3.7320	3.7319	-0.8970	25.51	0.14	-0.750			
0.3466	22183.22	3.7290	3.7289	-0.9039	25.51	0.14	-0.750			
0.3494	22358.51	3.7260	3.7259	-0.9245	25.51	0.14	-0.750			
0.3521	22536.22	3.7230	3.7231	-0.9326	25.51	0.14	-0.750			
0.3549	22715.23	3.7200	3.7199	-0.9492	25.51	0.14	-0.750			
0.3578	22898.25	3.7170	3.7170	-0.9600	25.51	0.14	-0.750			
0.3606	23081.22	3.7140	3.7140	-0.9700	25.51	0.14	-0.750			
0.3636	23268.07	3.7110	3.7110	-1.0021	25.51	0.14	-0.750			
0.3666	23463.55	3.7080	3.7078	-1.0229	25.51	0.14	-0.750			
0.3697	23663.00	3.7050	3.7049	-1.0320	25.51	0.14	-0.750			
0.3729	23863.79	3.7020	3.7018	-1.0421	25.50	0.13	-0.750			
0.3760	24064.47	3.6990	3.6989	-1.0480	25.50	0.13	-0.750	0.352	0.469	
0.3792	24268.65	3.6960	3.6959	-1.0784	25.50	0.13	-0.750			
0.3824	24476.28	3.6930	3.6929	-1.0837	25.49	0.12	-0.750			
0.3857	24681.98	3.6900	3.6898	-1.0913	25.49	0.12	-0.750			
0.3890	24894.52	3.6870	3.6872	-1.1182	25.48	0.11	-0.750			
0.3924	25114.23	3.6840	3.6838	-1.1591	25.48	0.11	-0.750			
0.3959	25338.53	3.6810	3.6809	-1.1824	25.48	0.11	-0.750			
0.3995	25566.79	3.6780	3.6779	-1.2089	25.47	0.10	-0.750			
0.4031	25798.36	3.6750	3.6753	-1.2295	25.47	0.10	-0.750			
0.4070	26045.69	3.6720	3.6718	-1.2738	25.46	0.09	-0.750			
0.4108	26291.09	3.6690	3.6690	-1.2931	25.45	0.08	-0.750			
0.4147	26538.07	3.6660	3.6659	-1.3301	25.44	0.07	-0.750			
0.4188	26802.93	3.6630	3.6628	-1.3598	25.44	0.07	-0.750			
0.4229	27066.60	3.6600	3.6599	-1.3827	25.43	0.06	-0.750			
0.4271	27334.00	3.6570	3.6574	-1.4166	25.43	0.06	-0.750			
0.4315	27612.94	3.6540	3.6539	-1.4582	25.42	0.05	-0.750			
0.4357	27887.49	3.6510	3.6508	-1.5075	25.41	0.04	-0.750			
0.4403	28180.90	3.6480	3.6482	-1.5293	25.40	0.03	-0.750			
0.4450	28480.87	3.6450	3.6452	-1.5802	25.39	0.02	-0.750			
0.4499	28791.26	3.6420	3.6421	-1.6213	25.38	0.01	-0.750			
0.4548	29108.03	3.6390	3.6385	-1.6393	25.37	-0.00	-0.750			
0.4598	29424.79	3.6360	3.6358	-1.6811	25.36	-0.01	-0.750			
0.4648	29747.55	3.6330	3.6335	-1.6964	25.35	-0.02	-0.750			
0.4699	30075.96	3.6300	3.6301	-1.7254	25.34	-0.03	-0.750			
0.4752	30411.76	3.6270	3.6272	-1.7406	25.33	-0.04	-0.750			
0.4805	30749.93	3.6240	3.6236	-1.7620	25.32	-0.05	-0.750			
0.4859	31100.32	3.6210	3.6206	-1.8000	25.31	-0.06	-0.750			
0.4913	31444.16	3.6180	3.6180	-1.8176	25.30	-0.07	-0.750			
0.4969	31799.13	3.6150	3.6151	-1.8560	25.29	-0.08	-0.750			
0.5023	32150.27	3.6120	3.6120	-1.8780	25.28	-0.09	-0.750			
0.5080	32510.32	3.6090	3.6093	-1.9139	25.28	-0.09	-0.750			
0.5139	32886.51	3.6060	3.6063	-1.9857	25.27	-0.10	-0.750			
0.5198	33265.16	3.6030	3.6030	-2.0368	25.26	-0.11	-0.750			
0.5261	33667.71	3.6000	3.5999	-2.0767	25.25	-0.12	-0.750			
0.5323	34070.32	3.5970	3.5971	-2.1458	25.25	-0.12	-0.750			
0.5390	34492.94	3.5940	3.5942	-2.1810	25.24	-0.13	-0.750			
0.5455	34913.33	3.5910	3.5909	-2.2089	25.23	-0.14	-0.750			
0.5521	35336.84	3.5880	3.5876	-2.2252	25.22	-0.15	-0.750			
0.5588	35765.17	3.5850	3.5846	-2.2679	25.21	-0.16	-0.750			
0.5657	36202.79	3.5820	3.5821	-2.3083	25.21	-0.16	-0.750			
0.5725	36641.94	3.5790	3.5789	-2.3683	25.21	-0.16	-0.750			
0.5798	37108.06	3.5760	3.5759	-2.3557	25.21	-0.16	-0.750			
0.5869	37563.17	3.5730	3.5732	-2.3735	25.20	-0.17	-0.750			
0.5941	38021.85	3.5700	3.5700	-2.3596	25.20	-0.17	-0.750			
0.6012	38476.41	3.5670	3.5669	-2.3463	25.20	-0.17	-0.750			
0.6081	38919.76	3.5640	3.5637	-2.3143	25.20	-0.17	-0.750			
0.6150	39362.59	3.5610	3.5613	-2.3677	25.20	-0.17	-0.750			
0.6222	39819.35	3.5580	3.5580	-2.3453	25.20	-0.17	-0.750			
0.6291	40264.90	3.5550	3.5551	-2.3370	25.20	-0.17	-0.750			
0.6363	40721.27	3.5520	3.5517	-2.3451	25.21	-0.16	-0.750			
0.6435	41182.59	3.5490	3.5490	-2.3299	25.21	-0.16	-0.750			
0.6503	41616.12	3.5460	3.5462	-2.2477	25.21	-0.16	-0.750			
0.6571	42054.52	3.5430	3.5429	-2.2349	25.21	-0.16	-0.750			
0.6636	42468.25	3.5400	3.5399	-2.1699	25.22	-0.15	-0.750			
0.6700	42878.85	3.5370	3.5372	-2.1274	25.22	-0.15	-0.750			
0.6764	43286.94	3.5340	3.5341	-2.0796	25.23	-0.14	-0.750			
0.6825	43680.97	3.5310	3.5311	-2.0177	25.24	-0.13	-0.750			
0.6885	44060.84	3.5280	3.5282	-1.9539	25.26	-0.11	-0.750			
0.6942	44427.62	3.5250	3.5250	-1.8938	25.27	-0.10	-0.750			
0.6999	44793.23	3.5220	3.5220	-1.8476	25.28	-0.09	-0.750			
0.7054	45143.50	3.5190	3.5187	-1.7820	25.29	-0.08	-0.750			
0.7107	45485.10	3.5160	3.5158	-1.7370	25.31	-0.06	-0.750			
0.7159	45817.88	3.5130	3.5131	-1.6694	25.32	-0.05	-0.750			
0.7209	46135.88	3.5100	3.5101	-1.6129	25.34	-0.03	-0.750			
0.7255	46432.05	3.5070	3.5073	-1.5433	25.36	-0.01	-0.750			
0.7300	46720.21	3.5040	3.5037	-1.4852	25.38	0.01	-0.750			
0.7345	47006.55	3.5010	3.5008	-1.4493	25.39	0.02	-0.750			
0.7387	47274.50	3.4980	3.4980	-1.4043	25.41	0.04	-0.750			
0.7428	47537.00	3.4950	3.4950	-1.3998	25.42	0.05	-0.750			
0.7468	47798.25	3.4920	3.4920	-1.2488	25.43	0.06	-0.750			
