Ah_balance (normalized)	Ah_balance (mAh)	Voltage - fit (V)	Voltage -  interpolate (V)	dQ/dV (1/V)	Temperature (°C)	Temperature - diff (°C)	Current (C)	R_DC 0ms (mOhm)	R_DC 50ms (mOhm)	R_DC 50 ms PEC (mOhm)
0.0469	3004.35	4.1980	4.1980	0.7461	25.50	0.66	0.750			
0.0492	3149.95	4.1950	4.1950	0.7548	25.50	0.66	0.750			
0.0514	3292.10	4.1920	4.1920	0.7516	25.50	0.66	0.750			
0.0537	3436.83	4.1890	4.1890	0.7559	25.50	0.66	0.750			
0.0560	3582.00	4.1860	4.1857	0.7608	25.50	0.66	0.750			
0.0583	3728.77	4.1830	4.1831	0.7669	25.50	0.66	0.750			
0.0606	3878.94	4.1800	4.1799	0.7610	25.50	0.66	0.750			
0.0629	4024.58	4.1770	4.1771	0.7672	25.50	0.66	0.750			
0.0652	4171.18	4.1740	4.1740	0.7619	25.50	0.66	0.750			
0.0675	4317.52	4.1710	4.1711	0.7649	25.50	0.66	0.750			
0.0698	4464.17	4.1680	4.1681	0.7674	25.50	0.66	0.750			
0.0721	4612.19	4.1650	4.1651	0.7667	25.50	0.66	0.750			
0.0744	4761.24	4.1620	4.1620	0.7718	25.50	0.66	0.750			
0.0767	4910.39	4.1590	4.1589	0.7757	25.51	0.67	0.750			
0.0790	5057.76	4.1560	4.1560	0.7738	25.51	0.67	0.750			
0.0814	5207.01	4.1530	4.1529	0.7798	25.51	0.67	0.750			
0.0837	5357.34	4.1500	4.1499	0.7793	25.51	0.67	0.750			
0.0861	5511.69	4.1470	4.1471	0.7694	25.51	0.67	0.750			
0.0884	5657.77	4.1440	4.1440	0.7703	25.51	0.67	0.750			
0.0907	5802.66	4.1410	4.1411	0.7719	25.51	0.67	0.750			
0.0930	5949.07	4.1380	4.1380	0.7707	25.51	0.67	0.750			
0.0953	6097.14	4.1350	4.1351	0.7756	25.51	0.67	0.750			
0.0976	6249.58	4.1320	4.1321	0.7722	25.51	0.67	0.750			
0.1000	6397.67	4.1290	4.1291	0.7839	25.51	0.67	0.750			
0.1024	6551.52	4.1260	4.1261	0.7915	25.51	0.67	0.750			
0.1047	6699.35	4.1230	4.1231	0.7858	25.51	0.67	0.750			
0.1071	6851.42	4.1200	4.1195	0.7897	25.51	0.67	0.750			
0.1094	7004.71	4.1170	4.1171	0.7927	25.51	0.67	0.750			
0.1118	7156.68	4.1140	4.1141	0.7965	25.51	0.67	0.750			
0.1142	7311.22	4.1110	4.1109	0.8017	25.51	0.67	0.750			
0.1166	7463.51	4.1080	4.1080	0.7970	25.51	0.67	0.750			
0.1190	7617.75	4.1050	4.1049	0.8004	25.51	0.67	0.750			
0.1214	7771.94	4.1020	4.1021	0.8011	25.51	0.67	0.750			
0.1239	7927.63	4.0990	4.0990	0.7993	25.52	0.68	0.750			
0.1262	8079.21	4.0960	4.0960	0.7984	25.52	0.68	0.750			
0.1286	8231.57	4.0930	4.0931	0.8029	25.53	0.69	0.750			
0.1310	8383.77	4.0900	4.0894	0.8047	25.53	0.69	0.750			
0.1334	8539.68	4.0870	4.0870	0.8125	25.53	0.69	0.750			
0.1360	8700.96	4.0840	4.0839	0.8003	25.53	0.69	0.750			
0.1383	8853.38	4.0810	4.0811	0.8051	25.53	0.69	0.750			
0.1408	9008.73	4.0780	4.0782	0.8114	25.53	0.69	0.750			
0.1431	9160.25	4.0750	4.0749	0.8087	25.53	0.69	0.750			
0.1456	9315.87	4.0720	4.0721	0.8145	25.53	0.69	0.750			
0.1480	9471.97	4.0690	4.0691	0.8164	25.53	0.69	0.750			
0.1505	9629.75	4.0660	4.0661	0.8257	25.53	0.69	0.750			
0.1530	9794.70	4.0630	4.0630	0.8394	25.53	0.69	0.750			
0.1555	9951.90	4.0600	4.0599	0.8308	25.53	0.69	0.750			
0.1580	10112.69	4.0570	4.0571	0.8340	25.53	0.69	0.750			
0.1606	10275.97	4.0540	4.0540	0.8219	25.53	0.69	0.750			
0.1630	10431.18	4.0510	4.0511	0.8338	25.54	0.70	0.750			
0.1655	10591.05	4.0480	4.0481	0.8381	25.54	0.70	0.750			
0.1680	10751.20	4.0450	4.0449	0.8369	25.54	0.70	0.750			
0.1705	10912.31	4.0420	4.0422	0.8400	25.54	0.70	0.750			
0.1731	11077.53	4.0390	4.0391	0.8370	25.54	0.70	0.750			
0.1756	11236.97	4.0360	4.0361	0.8437	25.55	0.71	0.750			
0.1781	11401.09	4.0330	4.0330	0.8490	25.55	0.71	0.750			
0.1806	11557.60	4.0300	4.0300	0.8422	25.55	0.71	0.750			
0.1831	11721.39	4.0270	4.0272	0.8527	25.55	0.71	0.750			
0.1857	11886.78	4.0240	4.0241	0.8616	25.55	0.71	0.750			
0.1883	12053.13	4.0210	4.0209	0.8666	25.56	0.72	0.750			
0.1910	12222.87	4.0180	4.0180	0.8753	25.56	0.72	0.750			
0.1936	12387.50	4.0150	4.0150	0.8713	25.56	0.72	0.750			
0.1962	12556.91	4.0120	4.0120	0.8738	25.56	0.72	0.750			
0.1988	12725.89	4.0090	4.0090	0.8615	25.56	0.72	0.750			
0.2013	12884.10	4.0060	4.0061	0.8807	25.57	0.73	0.750			
0.2039	13049.34	4.0030	4.0033	0.9014	25.57	0.73	0.750			
0.2067	13226.66	4.0000	3.9994	0.9177	25.57	0.73	0.750			
0.2095	13406.71	3.9970	3.9969	0.9280	25.57	0.73	0.750			
0.2123	13590.22	3.9940	3.9944	0.9313	25.57	0.73	0.750			
0.2153	13777.03	3.9910	3.9911	0.9367	25.57	0.73	0.750			
0.2180	13954.08	3.9880	3.9877	0.9156	25.57	0.73	0.750			
0.2207	14125.47	3.9850	3.9850	0.9022	25.57	0.73	0.750			
0.2233	14293.11	3.9820	3.9820	0.8937	25.57	0.73	0.750			
0.2260	14466.83	3.9790	3.9790	0.8952	25.57	0.73	0.750			
0.2287	14639.50	3.9760	3.9760	0.9001	25.57	0.73	0.750			
0.2314	14811.09	3.9730	3.9730	0.8989	25.57	0.73	0.750			
0.2341	14984.71	3.9700	3.9700	0.8974	25.57	0.73	0.750			
0.2368	15155.88	3.9670	3.9669	0.8989	25.57	0.73	0.750			
0.2395	15329.00	3.9640	3.9641	0.9029	25.57	0.73	0.750			
0.2422	15502.71	3.9610	3.9611	0.9052	25.57	0.73	0.750			
0.2450	15677.55	3.9580	3.9580	0.9077	25.57	0.73	0.750			
0.2477	15852.03	3.9550	3.9550	0.9024	25.57	0.73	0.750			
0.2504	16023.89	3.9520	3.9521	0.9057	25.57	0.73	0.750			
0.2531	16197.19	3.9490	3.9490	0.9124	25.57	0.73	0.750			
0.2558	16371.20	3.9460	3.9457	0.9124	25.57	0.73	0.750			
0.2585	16546.73	3.9430	3.9431	0.9170	25.57	0.73	0.750			
0.2613	16724.25	3.9400	3.9400	0.9229	25.57	0.73	0.750			
0.2641	16904.65	3.9370	3.9370	0.9328	25.57	0.73	0.750			
0.2669	17083.40	3.9340	3.9340	0.9261	25.57	0.73	0.750			
0.2697	17262.03	3.9310	3.9310	0.9294	25.57	0.73	0.750			
0.2725	17440.15	3.9280	3.9280	0.9257	25.57	0.73	0.750			
0.2753	17618.58	3.9250	3.9250	0.9277	25.57	0.73	0.750			
0.2781	17795.75	3.9220	3.9220	0.9288	25.57	0.73	0.750			
0.2808	17973.44	3.9190	3.9189	0.9318	25.57	0.73	0.750			
0.2837	18154.24	3.9160	3.9160	0.9287	25.57	0.73	0.750			
0.2864	18332.68	3.9130	3.9130	0.9353	25.57	0.73	0.750			
0.2892	18511.21	3.9100	3.9100	0.9437	25.57	0.73	0.750			
0.2921	18694.44	3.9070	3.9071	0.9462	25.57	0.73	0.750			
0.2949	18875.38	3.9040	3.9041	0.9458	25.57	0.73	0.750			
0.2978	19057.08	3.9010	3.9011	0.9464	25.56	0.72	0.750			
0.3006	19239.31	3.8980	3.8980	0.9490	25.56	0.72	0.750			
0.3035	19422.38	3.8950	3.8950	0.9508	25.55	0.71	0.750			
0.3063	19603.57	3.8920	3.8919	0.9523	25.55	0.71	0.750			
0.3092	19787.13	3.8890	3.8890	0.9468	25.55	0.71	0.750			
0.3120	19970.14	3.8860	3.8860	0.9574	25.55	0.71	0.750			
0.3149	20154.38	3.8830	3.8831	0.9622	25.54	0.70	0.750			
0.3178	20338.75	3.8800	3.8799	0.9613	25.54	0.70	0.750			
0.3207	20526.19	3.8770	3.8770	0.9545	25.54	0.70	0.750			
0.3236	20708.85	3.8740	3.8741	0.9589	25.53	0.69	0.750			
0.3264	20891.86	3.8710	3.8711	0.9617	25.52	0.68	0.750			
0.3293	21077.69	3.8680	3.8680	0.9674	25.51	0.67	0.750			
0.3322	21261.28	3.8650	3.8651	0.9643	25.51	0.67	0.750			
0.3351	21447.38	3.8620	3.8621	0.9707	25.49	0.65	0.750			
0.3381	21636.03	3.8590	3.8590	0.9782	25.48	0.64	0.750			
0.3410	21825.14	3.8560	3.8560	0.9805	25.47	0.63	0.750			
0.3439	22011.94	3.8530	3.8530	0.9774	25.46	0.62	0.750			
0.3469	22200.74	3.8500	3.8500	0.9754	25.45	0.61	0.750			
0.3498	22387.90	3.8470	3.8470	0.9801	25.45	0.61	0.750			
0.3528	22576.65	3.8440	3.8440	0.9810	25.44	0.60	0.750			
0.3557	22762.58	3.8410	3.8408	0.9820	25.43	0.59	0.750			
0.3586	22951.49	3.8380	3.8383	0.9848	25.42	0.58	0.750			
0.3616	23139.45	3.8350	3.8350	1.0002	25.41	0.57	0.750	0.358	0.426	
0.3646	23331.84	3.8320	3.8322	1.0109	25.40	0.56	0.750			
0.3676	23528.04	3.8290	3.8290	1.0103	25.38	0.54	0.750			
0.3707	23725.13	3.8260	3.8261	1.0175	25.37	0.53	0.750			
0.3739	23927.00	3.8230	3.8231	1.0264	25.36	0.52	0.750			
0.3769	24119.06	3.8200	3.8200	1.0159	25.34	0.50	0.750			
0.3799	24314.95	3.8170	3.8169	1.0213	25.33	0.49	0.750			
0.3830	24509.02	3.8140	3.8140	1.0169	25.31	0.47	0.750			
0.3860	24704.28	3.8110	3.8110	1.0264	25.30	0.46	0.750			
0.3891	24902.04	3.8080	3.8081	1.0362	25.29	0.45	0.750			
0.3922	25101.23	3.8050	3.8050	1.0458	25.28	0.44	0.750			
0.3954	25303.96	3.8020	3.8020	1.0481	25.28	0.44	0.750			
0.3985	25503.90	3.7990	3.7991	1.0657	25.27	0.43	0.750			
0.4017	25710.06	3.7960	3.7960	1.0834	25.26	0.42	0.750			
0.4050	25920.17	3.7930	3.7929	1.1032	25.25	0.41	0.750			
0.4083	26132.03	3.7900	3.7901	1.1211	25.24	0.40	0.750			
0.4117	26349.75	3.7870	3.7871	1.1393	25.23	0.39	0.750			
0.4152	26571.15	3.7840	3.7840	1.1583	25.21	0.37	0.750			
0.4187	26799.30	3.7810	3.7809	1.1666	25.20	0.36	0.750			
0.4222	27020.30	3.7780	3.7781	1.1855	25.19	0.35	0.750			
0.4258	27249.26	3.7750	3.7750	1.2068	25.17	0.33	0.750			
0.4295	27486.47	3.7720	3.7720	1.2147	25.16	0.32	0.750			
0.4331	27717.03	3.7690	3.7691	1.2432	25.14	0.30	0.750			
0.4369	27958.69	3.7660	3.7661	1.2717	25.13	0.29	0.750			
0.4407	28204.41	3.7630	3.7631	1.3023	25.11	0.27	0.750			
0.4446	28456.64	3.7600	3.7598	1.3266	25.10	0.26	0.750			
0.4487	28716.40	3.7570	3.7571	1.3603	25.08	0.24	0.750			
0.4529	28984.77	3.7540	3.7540	1.3858	25.07	0.23	0.750			
0.4571	29252.01	3.7510	3.7511	1.4218	25.06	0.22	0.750			
0.4614	29528.10	3.7480	3.7480	1.4232	25.04	0.20	0.750			
0.4657	29804.00	3.7450	3.7450	1.4690	25.03	0.19	0.750			
0.4701	30084.54	3.7420	3.7420	1.5014	25.02	0.18	0.750			
0.4746	30372.78	3.7390	3.7391	1.5565	25.00	0.16	0.750			
0.4793	30675.83	3.7360	3.7363	1.6057	24.99	0.15	0.750			
0.4842	30988.05	3.7330	3.7332	1.6641	24.97	0.13	0.750			
0.4893	31312.85	3.7300	3.7301	1.7082	24.95	0.11	0.750			
0.4946	31654.83	3.7270	3.7267	1.7599	24.94	0.10	0.750			
0.5000	31998.22	3.7240	3.7239	1.8067	24.92	0.08	0.750			
0.5053	32341.44	3.7210	3.7209	1.8483	24.90	0.06	0.750			
0.5109	32699.65	3.7180	3.7181	1.8810	24.88	0.04	0.750			
0.5167	33066.81	3.7150	3.7151	1.9433	24.87	0.03	0.750			
0.5225	33442.31	3.7120	3.7120	2.0185	24.85	0.01	0.750			
0.5290	33857.44	3.7090	3.7087	1.9165	24.83	-0.01	0.750			
0.5348	34226.13	3.7060	3.7061	1.9529	24.81	-0.03	0.750			
0.5403	34579.90	3.7030	3.7034	1.9417	24.79	-0.05	0.750			
0.5459	34940.28	3.7000	3.6990	2.0184	24.77	-0.07	0.750			
0.5518	35317.22	3.6970	3.6967	2.1390	24.76	-0.08	0.750			
0.5584	35739.52	3.6940	3.6947	2.4434	24.75	-0.09	0.750			
0.5659	36218.14	3.6910	3.6905	2.4465	24.74	-0.10	0.750			
0.5732	36682.43	3.6880	3.6882	2.3824	24.73	-0.11	0.750			
0.5804	37144.39	3.6850	3.6851	2.5180	24.72	-0.12	0.750			
0.5884	37655.10	3.6820	3.6818	2.6965	24.71	-0.13	0.750			
0.5962	38155.86	3.6790	3.6793	2.7066	24.70	-0.14	0.750			
0.6039	38650.08	3.6760	3.6755	2.7735	24.68	-0.16	0.750			
0.6124	39194.25	3.6730	3.6729	2.8503	24.68	-0.16	0.750			
0.6212	39755.22	3.6700	3.6694	2.9168	24.68	-0.16	0.750			
0.6297	40300.78	3.6670	3.6677	2.8385	24.68	-0.16	0.750			
0.6376	40807.86	3.6640	3.6640	2.6921	24.69	-0.15	0.750			
0.6453	41301.83	3.6610	3.6606	2.5106	24.69	-0.15	0.750			
0.6524	41753.63	3.6580	3.6581	2.3183	24.70	-0.14	0.750			
0.6588	42161.66	3.6550	3.6553	2.0904	24.71	-0.13	0.750			
0.6646	42532.30	3.6520	3.6513	1.8844	24.72	-0.12	0.750			
0.6696	42851.64	3.6490	3.6490	1.6700	24.72	-0.12	0.750			
0.6744	43162.90	3.6460	3.6463	1.5312	24.73	-0.11	0.750			
0.6787	43439.74	3.6430	3.6432	1.3861	24.74	-0.10	0.750			
0.6827	43695.72	3.6400	3.6400	1.2631	24.74	-0.10	0.750			
0.6863	43921.14	3.6370	3.6370	1.1281	24.75	-0.09	0.750			
0.6894	44120.81	3.6340	3.6341	1.0629	24.76	-0.08	0.750			
0.6924	44312.82	3.6310	3.6311	1.0056	24.77	-0.07	0.750			
0.6953	44498.42	3.6280	3.6281	0.9719	24.77	-0.07	0.750			
0.6982	44685.36	3.6250	3.6250	0.9180	24.78	-0.06	0.750			
0.7009	44856.21	3.6220	3.6221	0.9157	24.79	-0.05	0.750			
0.7036	45031.56	3.6190	3.6192	0.8965	24.79	-0.05	0.750			
0.7063	45201.13	3.6160	3.6148	0.8576	24.80	-0.04	0.750			
0.7088	45365.17	3.6130	3.6132	0.8255	24.81	-0.03	0.750			
0.7114	45526.64	3.6100	3.6103	0.7722	24.82	-0.02	0.750			
0.7136	45673.24	3.6070	3.6072	0.7118	24.82	-0.02	0.750			
0.7158	45808.23	3.6040	3.6040	0.6325	24.83	-0.01	0.750			
0.7175	45921.07	3.6010	3.6010	0.5613	24.84	-0.00	0.750			
0.7191	46019.83	3.5980	3.5979	0.4973	24.84	0.00	0.750			
0.7204	46107.44	3.5950	3.5950	0.4375	24.85	0.01	0.750			
0.7216	46185.18	3.5920	3.5919	0.3795	24.85	0.01	0.750			
0.7227	46253.08	3.5890	3.5890	0.3292	24.85	0.01	0.750			
0.7236	46310.76	3.5860	3.5860	0.2751	24.86	0.02	0.750			
0.7244	46358.91	3.5830	3.5831	0.2243	24.86	0.02	0.750			
0.7249	46396.38	3.5800	3.5804	0.1727	24.86	0.02	0.750			
0.7254	46424.24	3.5770	3.5779	0.1246	24.86	0.02	0.750			
0.7257	46442.58	3.5740	3.5753	0.1072	24.86	0.02	0.750			
