Ah_balance (normalized)	Ah_balance (mAh)	Voltage - fit (V)	Voltage -  interpolate (V)	dQ/dV (1/V)	Temperature (°C)	Temperature - diff (°C)	Current (C)	R_DC 0ms (mOhm)	R_DC 50ms (mOhm)	R_DC 50 ms PEC (mOhm)
0.0477	3050.75	4.1980	4.1980	0.8289	25.41	0.56	0.750			
0.0500	3197.87	4.1950	4.1951	0.7315	25.40	0.55	0.750			
0.0521	3337.18	4.1920	4.1921	0.7358	25.40	0.55	0.750			
0.0544	3480.05	4.1890	4.1890	0.7477	25.40	0.55	0.750			
0.0566	3623.65	4.1860	4.1858	0.7539	25.40	0.55	0.750			
0.0589	3770.54	4.1830	4.1832	0.7593	25.40	0.55	0.750			
0.0612	3919.95	4.1800	4.1801	0.7705	25.40	0.55	0.750			
0.0636	4067.78	4.1770	4.1770	0.7613	25.39	0.54	0.750			
0.0658	4210.60	4.1740	4.1741	0.7517	25.39	0.54	0.750			
0.0680	4353.50	4.1710	4.1708	0.7581	25.39	0.54	0.750			
0.0703	4499.52	4.1680	4.1681	0.7624	25.39	0.54	0.750			
0.0726	4647.70	4.1650	4.1650	0.7601	25.39	0.54	0.750			
0.0749	4794.14	4.1620	4.1620	0.7666	25.39	0.54	0.750			
0.0773	4945.35	4.1590	4.1591	0.7776	25.39	0.54	0.750			
0.0795	5089.48	4.1560	4.1560	0.7696	25.39	0.54	0.750			
0.0818	5237.61	4.1530	4.1531	0.7699	25.39	0.54	0.750			
0.0841	5385.27	4.1500	4.1500	0.7711	25.39	0.54	0.750			
0.0865	5534.71	4.1470	4.1470	0.7703	25.39	0.54	0.750			
0.0888	5681.92	4.1440	4.1441	0.7707	25.39	0.54	0.750			
0.0911	5828.11	4.1410	4.1411	0.7690	25.39	0.54	0.750			
0.0934	5975.93	4.1380	4.1376	0.7753	25.39	0.54	0.750			
0.0957	6123.96	4.1350	4.1351	0.7762	25.39	0.54	0.750			
0.0981	6278.23	4.1320	4.1320	0.7694	25.39	0.54	0.750			
0.1004	6425.69	4.1290	4.1291	0.7789	25.38	0.53	0.750			
0.1027	6572.92	4.1260	4.1261	0.7766	25.38	0.53	0.750			
0.1050	6722.39	4.1230	4.1232	0.7810	25.38	0.53	0.750			
0.1074	6871.95	4.1200	4.1201	0.7851	25.38	0.53	0.750			
0.1097	7023.31	4.1170	4.1172	0.7874	25.38	0.53	0.750			
0.1121	7177.35	4.1140	4.1140	0.7903	25.38	0.53	0.750			
0.1145	7329.59	4.1110	4.1110	0.7933	25.39	0.54	0.750			
0.1169	7479.91	4.1080	4.1080	0.7876	25.39	0.54	0.750			
0.1192	7631.38	4.1050	4.1051	0.7918	25.39	0.54	0.750			
0.1216	7784.76	4.1020	4.1020	0.7948	25.39	0.54	0.750			
0.1240	7938.50	4.0990	4.0990	0.7890	25.39	0.54	0.750			
0.1264	8089.43	4.0960	4.0961	0.7902	25.39	0.54	0.750			
0.1288	8240.39	4.0930	4.0931	0.7944	25.39	0.54	0.750			
0.1311	8391.28	4.0900	4.0894	0.7964	25.39	0.54	0.750			
0.1335	8544.27	4.0870	4.0870	0.7976	25.39	0.54	0.750			
0.1360	8701.97	4.0840	4.0840	0.7830	25.39	0.54	0.750			
0.1383	8850.53	4.0810	4.0811	0.8022	25.38	0.53	0.750			
0.1407	9005.22	4.0780	4.0781	0.8064	25.38	0.53	0.750			
0.1431	9156.67	4.0750	4.0748	0.8055	25.38	0.53	0.750			
0.1455	9312.02	4.0720	4.0722	0.8141	25.38	0.53	0.750			
0.1480	9470.08	4.0690	4.0692	0.8178	25.39	0.54	0.750			
0.1505	9629.86	4.0660	4.0660	0.8246	25.39	0.54	0.750			
0.1530	9788.90	4.0630	4.0630	0.8176	25.40	0.55	0.750			
0.1554	9946.43	4.0600	4.0600	0.8202	25.40	0.55	0.750			
0.1579	10104.88	4.0570	4.0570	0.8240	25.40	0.55	0.750			
0.1604	10264.36	4.0540	4.0539	0.8162	25.40	0.55	0.750			
0.1628	10420.46	4.0510	4.0511	0.8239	25.40	0.55	0.750			
0.1653	10578.29	4.0480	4.0480	0.8308	25.40	0.55	0.750			
0.1678	10736.43	4.0450	4.0449	0.8361	25.40	0.55	0.750			
0.1703	10898.19	4.0420	4.0421	0.8404	25.40	0.55	0.750			
0.1729	11063.70	4.0390	4.0390	0.8345	25.40	0.55	0.750			
0.1754	11222.72	4.0360	4.0361	0.8416	25.40	0.55	0.750			
0.1779	11385.71	4.0330	4.0331	0.8433	25.40	0.55	0.750			
0.1804	11544.10	4.0300	4.0299	0.8422	25.40	0.55	0.750			
0.1829	11705.66	4.0270	4.0271	0.8463	25.40	0.55	0.750			
0.1854	11868.55	4.0240	4.0241	0.8458	25.40	0.55	0.750			
0.1880	12032.27	4.0210	4.0210	0.8529	25.40	0.55	0.750			
0.1906	12197.30	4.0180	4.0181	0.8505	25.40	0.55	0.750			
0.1931	12360.42	4.0150	4.0149	0.8541	25.40	0.55	0.750			
0.1957	12524.82	4.0120	4.0120	0.8598	25.40	0.55	0.750			
0.1983	12689.97	4.0090	4.0091	0.8543	25.40	0.55	0.750			
0.2008	12854.05	4.0060	4.0060	0.8593	25.40	0.55	0.750			
0.2034	13018.24	4.0030	4.0032	0.8624	25.40	0.55	0.750			
0.2060	13183.29	4.0000	3.9996	0.8686	25.40	0.55	0.750			
0.2086	13350.59	3.9970	3.9971	0.8748	25.40	0.55	0.750			
0.2112	13519.18	3.9940	3.9940	0.8751	25.40	0.55	0.750			
0.2139	13688.98	3.9910	3.9910	0.8812	25.41	0.56	0.750			
0.2165	13858.47	3.9880	3.9881	0.8779	25.41	0.56	0.750			
0.2192	14026.67	3.9850	3.9851	0.8786	25.41	0.56	0.750			
0.2218	14195.57	3.9820	3.9821	0.8813	25.41	0.56	0.750			
0.2244	14364.41	3.9790	3.9790	0.8852	25.41	0.56	0.750			
0.2271	14535.76	3.9760	3.9759	0.8913	25.42	0.57	0.750			
0.2298	14705.74	3.9730	3.9730	0.8880	25.42	0.57	0.750			
0.2325	14878.00	3.9700	3.9700	0.8928	25.42	0.57	0.750			
0.2352	15052.23	3.9670	3.9670	0.8881	25.42	0.57	0.750			
0.2378	15220.44	3.9640	3.9640	0.8901	25.43	0.58	0.750			
0.2405	15388.93	3.9610	3.9611	0.8928	25.43	0.58	0.750			
0.2431	15560.46	3.9580	3.9577	0.8958	25.43	0.58	0.750			
0.2458	15732.51	3.9550	3.9550	0.9008	25.43	0.58	0.750			
0.2486	15908.73	3.9520	3.9521	0.8860	25.43	0.58	0.750			
0.2512	16077.09	3.9490	3.9491	0.8967	25.42	0.57	0.750			
0.2539	16246.84	3.9460	3.9462	0.8938	25.42	0.57	0.750			
0.2565	16418.34	3.9430	3.9423	0.9012	25.42	0.57	0.750			
0.2592	16590.71	3.9400	3.9402	0.9028	25.42	0.57	0.750			
0.2620	16766.56	3.9370	3.9371	0.9134	25.42	0.57	0.750			
0.2648	16948.34	3.9340	3.9340	0.9189	25.42	0.57	0.750			
0.2676	17124.30	3.9310	3.9309	0.8994	25.42	0.57	0.750			
0.2703	17296.10	3.9280	3.9281	0.8954	25.42	0.57	0.750			
0.2729	17467.58	3.9250	3.9252	0.8881	25.42	0.57	0.750			
0.2755	17634.73	3.9220	3.9219	0.8895	25.41	0.56	0.750			
0.2782	17802.64	3.9190	3.9190	0.8889	25.41	0.56	0.750			
0.2808	17973.17	3.9160	3.9155	0.8980	25.41	0.56	0.750			
0.2837	18153.88	3.9130	3.9130	0.9000	25.41	0.56	0.750			
0.2863	18324.47	3.9100	3.9101	0.9072	25.41	0.56	0.750			
0.2890	18498.32	3.9070	3.9071	0.9141	25.40	0.55	0.750			
0.2918	18676.23	3.9040	3.9041	0.9247	25.40	0.55	0.750			
0.2945	18847.66	3.9010	3.9008	0.9123	25.40	0.55	0.750			
0.2973	19024.62	3.8980	3.8982	0.9216	25.39	0.54	0.750			
0.3001	19203.37	3.8950	3.8951	0.9289	25.39	0.54	0.750			
0.3029	19384.98	3.8920	3.8920	0.9319	25.39	0.54	0.750			
0.3057	19561.74	3.8890	3.8889	0.9218	25.38	0.53	0.750			
0.3085	19741.62	3.8860	3.8861	0.9178	25.38	0.53	0.750			
0.3112	19918.26	3.8830	3.8830	0.9165	25.38	0.53	0.750			
0.3139	20092.52	3.8800	3.8800	0.9196	25.37	0.52	0.750			
0.3167	20267.19	3.8770	3.8771	0.9197	25.37	0.52	0.750			
0.3194	20443.12	3.8740	3.8741	0.9200	25.37	0.52	0.750			
0.3223	20624.33	3.8710	3.8710	0.9048	25.36	0.51	0.750			
0.3249	20796.38	3.8680	3.8681	0.9173	25.35	0.50	0.750			
0.3277	20972.37	3.8650	3.8651	0.9225	25.34	0.49	0.750			
0.3304	21148.09	3.8620	3.8618	0.9229	25.33	0.48	0.750			
0.3332	21325.70	3.8590	3.8592	0.9257	25.32	0.47	0.750			
0.3360	21504.02	3.8560	3.8560	0.9306	25.32	0.47	0.750			
0.3388	21685.03	3.8530	3.8531	0.9368	25.31	0.46	0.750			
0.3417	21868.72	3.8500	3.8500	0.9442	25.30	0.45	0.750			
0.3444	22044.35	3.8470	3.8470	0.9377	25.30	0.45	0.750			
0.3473	22224.10	3.8440	3.8440	0.9319	25.29	0.44	0.750			
0.3500	22399.01	3.8410	3.8411	0.9420	25.28	0.43	0.750			
0.3528	22580.76	3.8380	3.8382	0.9548	25.28	0.43	0.750	0.255	0.383	
0.3557	22764.90	3.8350	3.8347	0.9678	25.27	0.42	0.750			
0.3586	22952.40	3.8320	3.8323	0.9755	25.26	0.41	0.750			
0.3616	23139.46	3.8290	3.8292	0.9720	25.25	0.40	0.750			
0.3645	23330.13	3.8260	3.8261	0.9912	25.24	0.39	0.750			
0.3674	23515.16	3.8230	3.8231	0.9884	25.22	0.37	0.750			
0.3703	23702.34	3.8200	3.8201	0.9829	25.22	0.37	0.750			
0.3733	23893.38	3.8170	3.8171	0.9989	25.21	0.36	0.750			
0.3764	24087.44	3.8140	3.8141	1.0124	25.21	0.36	0.750			
0.3795	24287.68	3.8110	3.8111	1.0256	25.20	0.35	0.750			
0.3826	24486.07	3.8080	3.8080	1.0026	25.20	0.35	0.750			
0.3856	24676.26	3.8050	3.8050	1.0156	25.19	0.34	0.750			
0.3885	24866.24	3.8020	3.8022	1.0442	25.18	0.33	0.750			
0.3916	25062.93	3.7990	3.7992	1.0881	25.17	0.32	0.750			
0.3950	25278.24	3.7960	3.7960	1.1025	25.16	0.31	0.750			
0.3984	25494.53	3.7930	3.7937	1.1355	25.14	0.29	0.750			
0.4019	25722.38	3.7900	3.7905	1.1657	25.13	0.28	0.750			
0.4055	25952.13	3.7870	3.7867	1.1722	25.12	0.27	0.750			
0.4090	26175.99	3.7840	3.7841	1.1656	25.11	0.26	0.750			
0.4124	26391.75	3.7810	3.7811	1.1575	25.09	0.24	0.750			
0.4159	26617.36	3.7780	3.7781	1.1814	25.08	0.23	0.750			
0.4195	26848.35	3.7750	3.7750	1.1893	25.07	0.22	0.750			
0.4231	27077.02	3.7720	3.7721	1.2151	25.06	0.21	0.750			
0.4268	27313.07	3.7690	3.7691	1.2420	25.04	0.19	0.750			
0.4306	27556.84	3.7660	3.7655	1.2487	25.03	0.18	0.750			
0.4343	27795.83	3.7630	3.7631	1.2788	25.02	0.17	0.750			
0.4382	28042.80	3.7600	3.7602	1.3074	25.00	0.15	0.750			
0.4421	28296.74	3.7570	3.7569	1.3417	24.99	0.14	0.750			
0.4462	28558.37	3.7540	3.7541	1.3715	24.97	0.12	0.750			
0.4503	28819.97	3.7510	3.7510	1.3909	24.96	0.11	0.750			
0.4546	29093.96	3.7480	3.7481	1.4181	24.95	0.10	0.750			
0.4588	29366.39	3.7450	3.7451	1.4479	24.94	0.09	0.750			
0.4632	29647.81	3.7420	3.7418	1.4877	24.92	0.07	0.750			
0.4677	29934.96	3.7390	3.7389	1.5246	24.90	0.05	0.750			
0.4724	30231.00	3.7360	3.7358	1.5689	24.89	0.04	0.750			
0.4772	30542.74	3.7330	3.7332	1.6004	24.88	0.03	0.750			
0.4821	30852.93	3.7300	3.7299	1.6422	24.87	0.02	0.750			
0.4871	31173.15	3.7270	3.7268	1.6778	24.86	0.01	0.750			
0.4921	31494.30	3.7240	3.7242	1.7216	24.84	-0.01	0.750			
0.4974	31831.06	3.7210	3.7213	1.7868	24.83	-0.02	0.750			
0.5028	32177.37	3.7180	3.7182	1.8328	24.81	-0.04	0.750			
0.5083	32529.96	3.7150	3.7149	1.9151	24.79	-0.06	0.750			
0.5142	32910.28	3.7120	3.7119	1.9705	24.78	-0.07	0.750			
0.5203	33297.73	3.7090	3.7091	1.9970	24.77	-0.08	0.750			
0.5264	33686.52	3.7060	3.7061	2.0797	24.75	-0.10	0.750			
0.5326	34088.03	3.7030	3.7029	2.1415	24.73	-0.12	0.750			
0.5392	34507.48	3.7000	3.6999	2.1923	24.71	-0.14	0.750			
0.5459	34937.63	3.6970	3.6969	2.2697	24.70	-0.15	0.750			
0.5528	35377.39	3.6940	3.6938	2.3031	24.69	-0.16	0.750			
0.5597	35822.45	3.6910	3.6913	2.3563	24.69	-0.16	0.750			
0.5669	36278.84	3.6880	3.6881	2.4104	24.68	-0.17	0.750			
0.5742	36748.49	3.6850	3.6849	2.4844	24.67	-0.18	0.750			
0.5817	37231.25	3.6820	3.6818	2.6102	24.66	-0.19	0.750			
0.5899	37752.96	3.6790	3.6790	2.6355	24.66	-0.19	0.750			
0.5977	38250.38	3.6760	3.6762	2.6329	24.66	-0.19	0.750			
0.6057	38763.80	3.6730	3.6731	2.5577	24.66	-0.19	0.750			
0.6134	39260.51	3.6700	3.6701	2.5037	24.66	-0.19	0.750			
0.6211	39748.01	3.6670	3.6671	2.4279	24.66	-0.19	0.750			
0.6279	40188.72	3.6640	3.6643	2.2412	24.68	-0.17	0.750			
0.6343	40597.47	3.6610	3.6611	2.0506	24.68	-0.17	0.750			
0.6402	40972.33	3.6580	3.6578	1.8627	24.69	-0.16	0.750			
0.6455	41311.36	3.6550	3.6553	1.7119	24.69	-0.16	0.750			
0.6505	41630.70	3.6520	3.6521	1.6001	24.71	-0.14	0.750			
0.6550	41918.45	3.6490	3.6489	1.4652	24.72	-0.13	0.750			
0.6592	42187.86	3.6460	3.6461	1.3456	24.73	-0.12	0.750			
0.6631	42437.67	3.6430	3.6431	1.2633	24.73	-0.12	0.750			
0.6666	42661.70	3.6400	3.6400	1.1631	24.74	-0.11	0.750			
0.6699	42873.81	3.6370	3.6371	1.0895	24.74	-0.11	0.750			
0.6730	43075.05	3.6340	3.6342	1.0424	24.75	-0.10	0.750			
0.6761	43267.61	3.6310	3.6310	1.0022	24.76	-0.09	0.750			
0.6790	43458.95	3.6280	3.6280	0.9704	24.77	-0.08	0.750			
0.6818	43638.35	3.6250	3.6250	0.9289	24.77	-0.08	0.750			
0.6847	43817.62	3.6220	3.6220	0.8892	24.78	-0.07	0.750			
0.6873	43986.64	3.6190	3.6190	0.8566	24.80	-0.05	0.750			
0.6898	44147.17	3.6160	3.6161	0.8139	24.81	-0.04	0.750			
0.6922	44300.44	3.6130	3.6130	0.7628	24.81	-0.04	0.750			
0.6944	44443.15	3.6100	3.6100	0.7116	24.82	-0.03	0.750			
0.6965	44575.67	3.6070	3.6071	0.6562	24.83	-0.02	0.750			
0.6984	44696.96	3.6040	3.6040	0.6002	24.83	-0.02	0.750			
0.7001	44807.78	3.6010	3.6009	0.5431	24.84	-0.01	0.750			
0.7016	44904.67	3.5980	3.5980	0.4787	24.84	-0.01	0.750			
0.7030	44990.32	3.5950	3.5950	0.4260	24.84	-0.01	0.750			
0.7042	45066.55	3.5920	3.5920	0.3773	24.85	-0.00	0.750			
0.7052	45133.48	3.5890	3.5890	0.3250	24.85	-0.00	0.750			
0.7061	45190.76	3.5860	3.5854	0.2756	24.85	0.00	0.750			
0.7069	45238.75	3.5830	3.5832	0.2276	24.85	0.00	0.750			
0.7075	45278.60	3.5800	3.5803	0.1798	24.85	0.00	0.750			
0.7080	45309.14	3.5770	3.5775	0.1267	24.85	0.00	0.750			
0.7082	45327.47	3.5740	3.5752	0.0465	24.86	0.01	0.750			
