Ah_balance (normalized)	Ah_balance (mAh)	Voltage - fit (V)	Voltage -  interpolate (V)	dQ/dV (1/V)	Temperature (°C)	Temperature - diff (°C)	Current (C)	R_DC 0ms (mOhm)	R_DC 50ms (mOhm)	R_DC 50 ms PEC (mOhm)
0.0473	3029.07	4.1970	4.1970	0.7420	25.69	0.57	0.750			
0.0496	3173.60	4.1940	4.1939	0.7555	25.69	0.57	0.750			
0.0519	3319.27	4.1910	4.1910	0.7626	25.69	0.57	0.750			
0.0542	3469.19	4.1880	4.1880	0.7593	25.69	0.57	0.750			
0.0565	3614.75	4.1850	4.1850	0.7643	25.69	0.57	0.750			
0.0588	3760.37	4.1820	4.1821	0.7658	25.69	0.57	0.750			
0.0611	3907.44	4.1790	4.1791	0.7685	25.69	0.57	0.750			
0.0634	4054.56	4.1760	4.1759	0.7715	25.69	0.57	0.750			
0.0657	4203.80	4.1730	4.1731	0.7713	25.69	0.57	0.750			
0.0680	4353.37	4.1700	4.1701	0.7674	25.69	0.57	0.750			
0.0703	4501.07	4.1670	4.1670	0.7683	25.69	0.57	0.750			
0.0726	4646.26	4.1640	4.1641	0.7665	25.69	0.57	0.750			
0.0749	4791.76	4.1610	4.1604	0.7680	25.69	0.57	0.750			
0.0772	4940.01	4.1580	4.1581	0.7770	25.69	0.57	0.750			
0.0795	5090.57	4.1550	4.1550	0.7805	25.69	0.57	0.750			
0.0819	5242.47	4.1520	4.1520	0.7838	25.70	0.58	0.750			
0.0843	5395.56	4.1490	4.1491	0.7893	25.70	0.58	0.750			
0.0866	5544.04	4.1460	4.1460	0.7835	25.70	0.58	0.750			
0.0890	5694.41	4.1430	4.1429	0.7858	25.70	0.58	0.750			
0.0914	5848.43	4.1400	4.1400	0.7763	25.70	0.58	0.750			
0.0937	5994.39	4.1370	4.1370	0.7790	25.70	0.58	0.750			
0.0960	6145.24	4.1340	4.1341	0.7831	25.71	0.59	0.750			
0.0983	6294.29	4.1310	4.1311	0.7848	25.71	0.59	0.750			
0.1007	6443.24	4.1280	4.1280	0.7864	25.71	0.59	0.750			
0.1031	6595.45	4.1250	4.1252	0.7920	25.71	0.59	0.750			
0.1055	6752.60	4.1220	4.1219	0.7782	25.71	0.59	0.750			
0.1078	6900.11	4.1190	4.1191	0.7903	25.71	0.59	0.750			
0.1101	7048.84	4.1160	4.1161	0.7896	25.71	0.59	0.750			
0.1125	7200.49	4.1130	4.1124	0.7954	25.71	0.59	0.750			
0.1149	7353.70	4.1100	4.1101	0.8015	25.71	0.59	0.750			
0.1173	7507.82	4.1070	4.1071	0.8081	25.71	0.59	0.750			
0.1198	7665.57	4.1040	4.1041	0.8144	25.72	0.60	0.750			
0.1222	7823.81	4.1010	4.1009	0.8087	25.72	0.60	0.750			
0.1247	7980.11	4.0980	4.0980	0.8140	25.72	0.60	0.750			
0.1271	8136.13	4.0950	4.0951	0.8110	25.72	0.60	0.750			
0.1296	8293.15	4.0920	4.0920	0.8110	25.72	0.60	0.750			
0.1320	8448.40	4.0890	4.0890	0.8140	25.73	0.61	0.750			
0.1344	8603.95	4.0860	4.0859	0.8157	25.73	0.61	0.750			
0.1369	8760.51	4.0830	4.0829	0.8204	25.73	0.61	0.750			
0.1393	8918.37	4.0800	4.0801	0.8227	25.73	0.61	0.750			
0.1418	9077.04	4.0770	4.0770	0.8244	25.74	0.62	0.750			
0.1443	9236.50	4.0740	4.0740	0.8110	25.74	0.62	0.750			
0.1467	9387.95	4.0710	4.0712	0.8194	25.74	0.62	0.750			
0.1491	9543.73	4.0680	4.0681	0.8241	25.75	0.63	0.750			
0.1516	9701.59	4.0650	4.0652	0.8282	25.75	0.63	0.750			
0.1541	9861.62	4.0620	4.0622	0.8360	25.75	0.63	0.750			
0.1566	10025.55	4.0590	4.0591	0.8471	25.75	0.63	0.750			
0.1592	10190.93	4.0560	4.0560	0.8522	25.75	0.63	0.750			
0.1618	10354.07	4.0530	4.0529	0.8439	25.75	0.63	0.750			
0.1643	10515.98	4.0500	4.0501	0.8426	25.75	0.63	0.750			
0.1669	10681.43	4.0470	4.0470	0.8346	25.75	0.63	0.750			
0.1694	10839.55	4.0440	4.0441	0.8393	25.76	0.64	0.750			
0.1718	10998.03	4.0410	4.0411	0.8460	25.76	0.64	0.750			
0.1744	11159.64	4.0380	4.0379	0.8517	25.76	0.64	0.750			
0.1769	11323.59	4.0350	4.0351	0.8577	25.76	0.64	0.750			
0.1796	11491.45	4.0320	4.0321	0.8603	25.76	0.64	0.750			
0.1821	11657.40	4.0290	4.0290	0.8624	25.76	0.64	0.750			
0.1848	11825.31	4.0260	4.0259	0.8690	25.76	0.64	0.750			
0.1873	11987.10	4.0230	4.0227	0.8616	25.76	0.64	0.750			
0.1899	12153.93	4.0200	4.0200	0.8636	25.76	0.64	0.750			
0.1925	12320.60	4.0170	4.0171	0.8685	25.76	0.64	0.750			
0.1951	12487.77	4.0140	4.0140	0.8742	25.77	0.65	0.750			
0.1978	12658.09	4.0110	4.0109	0.8791	25.77	0.65	0.750			
0.2004	12824.36	4.0080	4.0080	0.8769	25.77	0.65	0.750			
0.2030	12994.63	4.0050	4.0050	0.8743	25.77	0.65	0.750			
0.2057	13162.19	4.0020	4.0020	0.8819	25.77	0.65	0.750			
0.2083	13331.71	3.9990	3.9990	0.8900	25.77	0.65	0.750			
0.2110	13502.20	3.9960	3.9961	0.8942	25.77	0.65	0.750			
0.2137	13674.03	3.9930	3.9931	0.8967	25.77	0.65	0.750			
0.2164	13851.94	3.9900	3.9900	0.8797	25.78	0.66	0.750			
0.2191	14019.84	3.9870	3.9870	0.8894	25.78	0.66	0.750			
0.2217	14187.49	3.9840	3.9842	0.9007	25.78	0.66	0.750			
0.2243	14358.17	3.9810	3.9812	0.9002	25.79	0.67	0.750			
0.2271	14532.55	3.9780	3.9781	0.9055	25.79	0.67	0.750			
0.2298	14708.36	3.9750	3.9752	0.9136	25.79	0.67	0.750			
0.2326	14887.26	3.9720	3.9721	0.9201	25.79	0.67	0.750			
0.2355	15071.25	3.9690	3.9689	0.9282	25.79	0.67	0.750			
0.2381	15240.54	3.9660	3.9659	0.9119	25.79	0.67	0.750			
0.2409	15417.43	3.9630	3.9630	0.9084	25.79	0.67	0.750			
0.2436	15591.33	3.9600	3.9600	0.9159	25.79	0.67	0.750			
0.2464	15766.84	3.9570	3.9570	0.9190	25.79	0.67	0.750			
0.2491	15943.13	3.9540	3.9540	0.9228	25.79	0.67	0.750			
0.2519	16120.21	3.9510	3.9510	0.9280	25.79	0.67	0.750			
0.2547	16299.38	3.9480	3.9481	0.9231	25.80	0.68	0.750			
0.2574	16475.43	3.9450	3.9451	0.9261	25.80	0.68	0.750			
0.2602	16652.88	3.9420	3.9421	0.9384	25.81	0.69	0.750			
0.2630	16831.58	3.9390	3.9384	0.9392	25.81	0.69	0.750			
0.2658	17012.53	3.9360	3.9362	0.9429	25.81	0.69	0.750			
0.2687	17195.42	3.9330	3.9331	0.9478	25.81	0.69	0.750			
0.2716	17381.63	3.9300	3.9302	0.9542	25.81	0.69	0.750			
0.2744	17563.02	3.9270	3.9270	0.9436	25.81	0.69	0.750			
0.2773	17746.20	3.9240	3.9240	0.9413	25.81	0.69	0.750			
0.2801	17925.88	3.9210	3.9209	0.9388	25.81	0.69	0.750			
0.2829	18105.69	3.9180	3.9181	0.9424	25.82	0.70	0.750			
0.2857	18286.22	3.9150	3.9150	0.9444	25.82	0.70	0.750			
0.2885	18466.93	3.9120	3.9121	0.9485	25.82	0.70	0.750			
0.2914	18652.43	3.9090	3.9090	0.9348	25.82	0.70	0.750			
0.2942	18827.17	3.9060	3.9061	0.9468	25.82	0.70	0.750			
0.2970	19009.03	3.9030	3.9031	0.9601	25.82	0.70	0.750			
0.2999	19193.21	3.9000	3.8994	0.9652	25.82	0.70	0.750			
0.3028	19379.72	3.8970	3.8971	0.9730	25.82	0.70	0.750			
0.3058	19568.49	3.8940	3.8942	0.9783	25.82	0.70	0.750			
0.3087	19758.75	3.8910	3.8911	0.9832	25.83	0.71	0.750			
0.3118	19955.11	3.8880	3.8879	0.9947	25.83	0.71	0.750			
0.3147	20137.69	3.8850	3.8850	0.9657	25.83	0.71	0.750			
0.3175	20321.80	3.8820	3.8820	0.9708	25.82	0.70	0.750			
0.3204	20508.68	3.8790	3.8791	0.9745	25.82	0.70	0.750			
0.3234	20695.62	3.8760	3.8761	0.9792	25.81	0.69	0.750			
0.3263	20883.43	3.8730	3.8729	0.9808	25.81	0.69	0.750			
0.3292	21071.44	3.8700	3.8701	0.9768	25.80	0.68	0.750			
0.3322	21258.94	3.8670	3.8671	0.9864	25.80	0.68	0.750			
0.3351	21449.27	3.8640	3.8640	0.9933	25.79	0.67	0.750			
0.3381	21639.89	3.8610	3.8611	0.9952	25.79	0.67	0.750			
0.3411	21831.63	3.8580	3.8581	1.0017	25.78	0.66	0.750			
0.3441	22025.31	3.8550	3.8550	1.0076	25.78	0.66	0.750			
0.3472	22222.32	3.8520	3.8520	1.0162	25.77	0.65	0.750			
0.3502	22415.93	3.8490	3.8489	1.0086	25.77	0.65	0.750			
0.3533	22610.08	3.8460	3.8460	1.0034	25.77	0.65	0.750			
0.3564	22808.08	3.8430	3.8429	0.9981	25.76	0.64	0.750			
0.3593	22995.37	3.8400	3.8401	1.0012	25.76	0.64	0.750			
0.3622	23183.99	3.8370	3.8368	1.0200	25.75	0.63	0.750			
0.3654	23385.79	3.8340	3.8341	1.0065	25.74	0.62	0.750			
0.3684	23575.46	3.8310	3.8313	1.0350	25.73	0.61	0.750	0.281	0.384	
0.3715	23776.23	3.8280	3.8284	1.0541	25.72	0.60	0.750			
0.3747	23979.89	3.8250	3.8249	1.0620	25.71	0.59	0.750			
0.3779	24188.72	3.8220	3.8223	1.0702	25.70	0.58	0.750			
0.3811	24393.57	3.8190	3.8191	1.0608	25.69	0.57	0.750			
0.3844	24601.01	3.8160	3.8161	1.0711	25.68	0.56	0.750			
0.3877	24814.88	3.8130	3.8128	1.0796	25.67	0.55	0.750			
0.3908	25012.57	3.8100	3.8100	1.0623	25.66	0.54	0.750			
0.3940	25217.11	3.8070	3.8071	1.0709	25.65	0.53	0.750			
0.3972	25422.96	3.8040	3.8040	1.0772	25.64	0.52	0.750			
0.4005	25634.55	3.8010	3.8011	1.0695	25.63	0.51	0.750			
0.4037	25837.84	3.7980	3.7980	1.0790	25.62	0.50	0.750			
0.4069	26041.49	3.7950	3.7951	1.0949	25.61	0.49	0.750			
0.4102	26252.45	3.7920	3.7921	1.1115	25.60	0.48	0.750			
0.4135	26465.17	3.7890	3.7891	1.1245	25.59	0.47	0.750			
0.4169	26684.19	3.7860	3.7861	1.1524	25.58	0.46	0.750			
0.4205	26910.75	3.7830	3.7831	1.1755	25.56	0.44	0.750			
0.4241	27142.89	3.7800	3.7799	1.1865	25.55	0.43	0.750			
0.4277	27370.57	3.7770	3.7772	1.1951	25.54	0.42	0.750			
0.4312	27598.34	3.7740	3.7740	1.2141	25.53	0.41	0.750			
0.4349	27830.70	3.7710	3.7711	1.2398	25.51	0.39	0.750			
0.4386	28069.46	3.7680	3.7681	1.2465	25.50	0.38	0.750			
0.4423	28307.32	3.7650	3.7651	1.2793	25.48	0.36	0.750			
0.4462	28557.89	3.7620	3.7621	1.3188	25.47	0.35	0.750			
0.4502	28814.42	3.7590	3.7581	1.3558	25.45	0.33	0.750			
0.4543	29077.66	3.7560	3.7562	1.3894	25.44	0.32	0.750			
0.4587	29354.08	3.7530	3.7531	1.4073	25.42	0.30	0.750			
0.4631	29636.84	3.7500	3.7499	1.4335	25.41	0.29	0.750			
0.4675	29919.41	3.7470	3.7469	1.4567	25.39	0.27	0.750			
0.4717	30189.11	3.7440	3.7441	1.4529	25.38	0.26	0.750			
0.4760	30466.06	3.7410	3.7411	1.4871	25.37	0.25	0.750			
0.4804	30743.91	3.7380	3.7382	1.5481	25.35	0.23	0.750			
0.4851	31048.95	3.7350	3.7352	1.5808	25.33	0.21	0.750			
0.4900	31361.31	3.7320	3.7318	1.6437	25.31	0.19	0.750			
0.4951	31685.79	3.7290	3.7289	1.7139	25.30	0.18	0.750			
0.5003	32019.14	3.7260	3.7262	1.7873	25.29	0.17	0.750			
0.5057	32365.21	3.7230	3.7231	1.9215	25.27	0.15	0.750			
0.5116	32741.29	3.7200	3.7199	2.0209	25.25	0.13	0.750			
0.5179	33142.57	3.7170	3.7170	2.1072	25.23	0.11	0.750			
0.5246	33576.65	3.7140	3.7142	2.1770	25.20	0.08	0.750			
0.5312	33998.33	3.7110	3.7110	2.1629	25.19	0.07	0.750			
0.5375	34398.80	3.7080	3.7083	2.1204	25.17	0.05	0.750			
0.5439	34812.66	3.7050	3.7049	2.1682	25.15	0.03	0.750			
0.5504	35226.94	3.7020	3.7019	2.2422	25.14	0.02	0.750			
0.5572	35659.74	3.6990	3.6992	2.2627	25.12	-0.00	0.750			
0.5643	36115.00	3.6960	3.6959	2.3146	25.10	-0.02	0.750			
0.5714	36567.00	3.6930	3.6928	2.3928	25.09	-0.03	0.750			
0.5786	37030.34	3.6900	3.6904	2.4628	25.07	-0.05	0.750			
0.5859	37498.49	3.6870	3.6872	2.5606	25.05	-0.07	0.750			
0.5938	38004.89	3.6840	3.6842	2.6871	25.03	-0.09	0.750			
0.6022	38538.20	3.6810	3.6811	2.7348	25.02	-0.10	0.750			
0.6107	39083.15	3.6780	3.6780	2.7895	25.02	-0.10	0.750			
0.6190	39618.84	3.6750	3.6748	2.8167	25.00	-0.12	0.750			
0.6276	40167.83	3.6720	3.6718	2.8275	24.99	-0.13	0.750			
0.6362	40719.68	3.6690	3.6690	2.8546	24.99	-0.13	0.750			
0.6448	41265.98	3.6660	3.6658	2.8038	24.98	-0.14	0.750			
0.6532	41803.93	3.6630	3.6631	2.6848	24.98	-0.14	0.750			
0.6611	42311.48	3.6600	3.6601	2.5056	25.00	-0.12	0.750			
0.6681	42757.76	3.6570	3.6570	2.2271	25.00	-0.12	0.750			
0.6745	43165.44	3.6540	3.6539	2.0377	25.01	-0.11	0.750			
0.6803	43538.72	3.6510	3.6508	1.8427	25.01	-0.11	0.750			
0.6854	43866.36	3.6480	3.6479	1.6323	25.02	-0.10	0.750			
0.6901	44163.64	3.6450	3.6451	1.4669	25.03	-0.09	0.750			
0.6942	44428.70	3.6420	3.6420	1.3228	25.04	-0.08	0.750			
0.6978	44660.29	3.6390	3.6390	1.1822	25.04	-0.08	0.750			
0.7010	44863.59	3.6360	3.6360	1.0802	25.05	-0.07	0.750			
0.7041	45060.49	3.6330	3.6330	1.0145	25.06	-0.06	0.750			
0.7069	45239.56	3.6300	3.6300	0.9555	25.07	-0.05	0.750			
0.7097	45421.27	3.6270	3.6271	0.9023	25.07	-0.05	0.750			
0.7122	45583.91	3.6240	3.6236	0.8813	25.08	-0.04	0.750			
0.7148	45749.53	3.6210	3.6214	0.8748	25.09	-0.03	0.750			
0.7174	45913.81	3.6180	3.6184	0.8652	25.10	-0.02	0.750			
0.7201	46085.42	3.6150	3.6148	0.8362	25.10	-0.02	0.750			
0.7227	46255.51	3.6120	3.6122	0.8135	25.11	-0.01	0.750			
0.7250	46402.48	3.6090	3.6093	0.7307	25.12	-0.00	0.750			
0.7272	46542.94	3.6060	3.6061	0.6665	25.13	0.01	0.750			
0.7291	46664.45	3.6030	3.6030	0.5783	25.13	0.01	0.750			
0.7307	46767.79	3.6000	3.5999	0.5090	25.14	0.02	0.750			
0.7321	46856.20	3.5970	3.5971	0.4428	25.14	0.02	0.750			
0.7334	46935.29	3.5940	3.5940	0.3854	25.15	0.03	0.750			
0.7344	47002.89	3.5910	3.5909	0.3253	25.15	0.03	0.750			
0.7353	47059.97	3.5880	3.5881	0.2688	25.15	0.03	0.750			
0.7360	47106.22	3.5850	3.5849	0.2126	25.15	0.03	0.750			
0.7366	47141.51	3.5820	3.5823	0.1558	25.16	0.04	0.750			
0.7370	47165.82	3.5790	3.5797	0.1011	25.16	0.04	0.750			
