Ah_balance (normalized)	Ah_balance (mAh)	Voltage - fit (V)	Voltage -  interpolate (V)	dQ/dV (1/V)	Temperature (°C)	Temperature - diff (°C)	Current (C)	R_DC 0ms (mOhm)	R_DC 50ms (mOhm)	R_DC 50 ms PEC (mOhm)
0.0474	3034.05	4.1980	4.1980	0.7608	25.20	0.49	0.750			
0.0496	3177.18	4.1950	4.1950	0.7435	25.20	0.49	0.750			
0.0519	3320.26	4.1920	4.1920	0.7506	25.20	0.49	0.750			
0.0541	3465.10	4.1890	4.1891	0.7592	25.20	0.49	0.750			
0.0564	3612.61	4.1860	4.1861	0.7646	25.20	0.49	0.750			
0.0588	3760.35	4.1830	4.1830	0.7674	25.20	0.49	0.750			
0.0611	3908.87	4.1800	4.1800	0.7638	25.20	0.49	0.750			
0.0634	4055.06	4.1770	4.1771	0.7670	25.20	0.49	0.750			
0.0657	4202.03	4.1740	4.1740	0.7633	25.20	0.49	0.750			
0.0679	4347.95	4.1710	4.1708	0.7681	25.20	0.49	0.750			
0.0702	4494.64	4.1680	4.1681	0.7701	25.20	0.49	0.750			
0.0726	4643.52	4.1650	4.1650	0.7718	25.20	0.49	0.750			
0.0749	4791.07	4.1620	4.1620	0.7684	25.21	0.50	0.750			
0.0771	4937.26	4.1590	4.1592	0.7683	25.21	0.50	0.750			
0.0795	5085.05	4.1560	4.1560	0.7684	25.21	0.50	0.750			
0.0818	5232.78	4.1530	4.1531	0.7709	25.21	0.50	0.750			
0.0841	5382.21	4.1500	4.1501	0.7654	25.21	0.50	0.750			
0.0864	5530.38	4.1470	4.1471	0.7708	25.21	0.50	0.750			
0.0887	5679.38	4.1440	4.1439	0.7794	25.22	0.51	0.750			
0.0910	5824.95	4.1410	4.1411	0.7736	25.22	0.51	0.750			
0.0933	5974.21	4.1380	4.1377	0.7777	25.22	0.51	0.750			
0.0957	6125.04	4.1350	4.1352	0.7842	25.22	0.51	0.750			
0.0981	6277.34	4.1320	4.1320	0.7860	25.22	0.51	0.750			
0.1004	6428.48	4.1290	4.1290	0.7893	25.22	0.51	0.750			
0.1028	6578.58	4.1260	4.1260	0.7866	25.22	0.51	0.750			
0.1052	6730.09	4.1230	4.1229	0.7889	25.22	0.51	0.750			
0.1075	6882.46	4.1200	4.1200	0.7935	25.22	0.51	0.750			
0.1100	7037.61	4.1170	4.1170	0.7863	25.22	0.51	0.750			
0.1123	7187.54	4.1140	4.1140	0.7917	25.22	0.51	0.750			
0.1147	7338.61	4.1110	4.1111	0.7909	25.22	0.51	0.750			
0.1170	7490.50	4.1080	4.1080	0.7924	25.22	0.51	0.750			
0.1194	7641.74	4.1050	4.1052	0.7949	25.22	0.51	0.750			
0.1219	7798.43	4.1020	4.1020	0.7863	25.22	0.51	0.750			
0.1242	7947.73	4.0990	4.0991	0.7949	25.22	0.51	0.750			
0.1266	8101.05	4.0960	4.0960	0.8030	25.23	0.52	0.750			
0.1289	8252.22	4.0930	4.0931	0.7988	25.23	0.52	0.750			
0.1314	8406.70	4.0900	4.0899	0.8041	25.23	0.52	0.750			
0.1338	8562.30	4.0870	4.0872	0.8113	25.24	0.53	0.750			
0.1362	8719.98	4.0840	4.0841	0.8167	25.24	0.53	0.750			
0.1387	8879.34	4.0810	4.0809	0.8174	25.24	0.53	0.750			
0.1412	9034.33	4.0780	4.0781	0.8093	25.25	0.54	0.750			
0.1436	9188.97	4.0750	4.0750	0.8154	25.25	0.54	0.750			
0.1460	9346.50	4.0720	4.0720	0.8215	25.25	0.54	0.750			
0.1485	9504.90	4.0690	4.0689	0.8123	25.25	0.54	0.750			
0.1509	9658.34	4.0660	4.0661	0.8181	25.25	0.54	0.750			
0.1534	9815.84	4.0630	4.0632	0.8273	25.25	0.54	0.750			
0.1559	9975.62	4.0600	4.0595	0.8327	25.25	0.54	0.750			
0.1584	10135.73	4.0570	4.0571	0.8347	25.25	0.54	0.750			
0.1609	10296.59	4.0540	4.0541	0.8284	25.25	0.54	0.750			
0.1634	10457.00	4.0510	4.0511	0.8367	25.26	0.55	0.750			
0.1659	10615.34	4.0480	4.0481	0.8350	25.26	0.55	0.750			
0.1684	10776.32	4.0450	4.0449	0.8423	25.26	0.55	0.750			
0.1709	10938.33	4.0420	4.0421	0.8466	25.26	0.55	0.750			
0.1735	11103.35	4.0390	4.0392	0.8520	25.26	0.55	0.750			
0.1761	11271.11	4.0360	4.0359	0.8557	25.27	0.56	0.750			
0.1787	11436.56	4.0330	4.0329	0.8604	25.27	0.56	0.750			
0.1812	11595.39	4.0300	4.0300	0.8488	25.27	0.56	0.750			
0.1838	11761.53	4.0270	4.0270	0.8410	25.27	0.56	0.750			
0.1863	11922.35	4.0240	4.0240	0.8486	25.27	0.56	0.750			
0.1888	12083.19	4.0210	4.0211	0.8565	25.28	0.57	0.750			
0.1914	12247.66	4.0180	4.0181	0.8641	25.28	0.57	0.750			
0.1940	12414.32	4.0150	4.0151	0.8682	25.28	0.57	0.750			
0.1966	12583.11	4.0120	4.0121	0.8646	25.28	0.57	0.750			
0.1992	12749.90	4.0090	4.0091	0.8737	25.28	0.57	0.750			
0.2019	12918.73	4.0060	4.0061	0.8757	25.28	0.57	0.750			
0.2044	13084.77	4.0030	4.0031	0.8707	25.28	0.57	0.750			
0.2071	13251.96	4.0000	4.0000	0.8761	25.28	0.57	0.750			
0.2097	13420.88	3.9970	3.9971	0.8831	25.28	0.57	0.750			
0.2124	13593.14	3.9940	3.9940	0.8886	25.29	0.58	0.750			
0.2151	13767.28	3.9910	3.9909	0.8941	25.29	0.58	0.750			
0.2177	13935.34	3.9880	3.9880	0.8917	25.29	0.58	0.750			
0.2204	14107.30	3.9850	3.9851	0.8933	25.29	0.58	0.750			
0.2231	14279.14	3.9820	3.9819	0.8796	25.29	0.58	0.750			
0.2257	14443.50	3.9790	3.9792	0.8855	25.30	0.59	0.750			
0.2283	14611.75	3.9760	3.9762	0.8907	25.30	0.59	0.750			
0.2310	14784.28	3.9730	3.9731	0.8964	25.30	0.59	0.750			
0.2338	14960.46	3.9700	3.9701	0.8877	25.30	0.59	0.750			
0.2364	15129.34	3.9670	3.9672	0.8982	25.30	0.59	0.750			
0.2391	15305.03	3.9640	3.9642	0.9116	25.31	0.60	0.750			
0.2418	15477.30	3.9610	3.9611	0.9040	25.31	0.60	0.750			
0.2445	15650.97	3.9580	3.9581	0.9121	25.31	0.60	0.750			
0.2473	15827.70	3.9550	3.9551	0.9160	25.31	0.60	0.750			
0.2501	16006.79	3.9520	3.9521	0.9224	25.32	0.61	0.750			
0.2529	16185.87	3.9490	3.9491	0.9299	25.32	0.61	0.750			
0.2557	16362.53	3.9460	3.9459	0.9217	25.32	0.61	0.750			
0.2584	16539.95	3.9430	3.9430	0.9237	25.32	0.61	0.750			
0.2612	16716.09	3.9400	3.9401	0.9138	25.32	0.61	0.750			
0.2639	16890.26	3.9370	3.9371	0.9170	25.32	0.61	0.750			
0.2666	17065.58	3.9340	3.9341	0.9235	25.32	0.61	0.750			
0.2694	17240.95	3.9310	3.9312	0.9265	25.32	0.61	0.750			
0.2722	17420.48	3.9280	3.9280	0.9128	25.33	0.62	0.750			
0.2750	17596.93	3.9250	3.9252	0.9279	25.33	0.62	0.750			
0.2778	17777.23	3.9220	3.9221	0.9353	25.34	0.63	0.750			
0.2805	17953.45	3.9190	3.9181	0.9334	25.34	0.63	0.750			
0.2833	18131.69	3.9160	3.9162	0.9396	25.34	0.63	0.750			
0.2862	18314.33	3.9130	3.9131	0.9475	25.34	0.63	0.750			
0.2891	18501.40	3.9100	3.9100	0.9585	25.34	0.63	0.750			
0.2920	18685.60	3.9070	3.9070	0.9431	25.34	0.63	0.750			
0.2948	18867.12	3.9040	3.9040	0.9419	25.34	0.63	0.750			
0.2976	19049.02	3.9010	3.9010	0.9359	25.34	0.63	0.750			
0.3004	19226.08	3.8980	3.8980	0.9374	25.33	0.62	0.750			
0.3032	19403.87	3.8950	3.8950	0.9379	25.33	0.62	0.750			
0.3060	19583.76	3.8920	3.8921	0.9434	25.33	0.62	0.750			
0.3089	19770.29	3.8890	3.8890	0.9269	25.33	0.62	0.750			
0.3117	19945.74	3.8860	3.8861	0.9439	25.33	0.62	0.750			
0.3145	20126.40	3.8830	3.8831	0.9541	25.32	0.61	0.750			
0.3173	20307.48	3.8800	3.8801	0.9565	25.32	0.61	0.750			
0.3202	20493.81	3.8770	3.8772	0.9623	25.32	0.61	0.750			
0.3231	20679.51	3.8740	3.8741	0.9725	25.32	0.61	0.750			
0.3261	20869.49	3.8710	3.8711	0.9799	25.31	0.60	0.750			
0.3291	21060.44	3.8680	3.8681	0.9696	25.31	0.60	0.750			
0.3320	21246.67	3.8650	3.8650	0.9715	25.31	0.60	0.750			
0.3349	21432.05	3.8620	3.8621	0.9622	25.30	0.59	0.750			
0.3377	21615.40	3.8590	3.8590	0.9675	25.29	0.58	0.750			
0.3406	21800.64	3.8560	3.8561	0.9769	25.29	0.58	0.750			
0.3435	21986.84	3.8530	3.8527	0.9811	25.28	0.57	0.750			
0.3465	22177.11	3.8500	3.8501	0.9774	25.27	0.56	0.750			
0.3495	22364.92	3.8470	3.8471	0.9858	25.26	0.55	0.750			
0.3524	22556.11	3.8440	3.8441	0.9945	25.26	0.55	0.750			
0.3554	22747.28	3.8410	3.8404	0.9752	25.25	0.54	0.750			
0.3583	22933.13	3.8380	3.8382	0.9965	25.24	0.53	0.750			
0.3613	23125.59	3.8350	3.8351	1.0123	25.24	0.53	0.750			
0.3644	23322.97	3.8320	3.8319	1.0283	25.23	0.52	0.750	0.278	0.391	
0.3675	23522.08	3.8290	3.8290	1.0252	25.22	0.51	0.750			
0.3707	23724.05	3.8260	3.8260	1.0143	25.21	0.50	0.750			
0.3737	23919.33	3.8230	3.8231	1.0278	25.20	0.49	0.750			
0.3768	24113.34	3.8200	3.8201	1.0203	25.19	0.48	0.750			
0.3798	24308.65	3.8170	3.8167	1.0303	25.18	0.47	0.750			
0.3830	24510.52	3.8140	3.8140	1.0184	25.17	0.46	0.750			
0.3860	24705.66	3.8110	3.8111	1.0323	25.17	0.46	0.750			
0.3891	24904.56	3.8080	3.8082	1.0448	25.16	0.45	0.750			
0.3923	25105.97	3.8050	3.8048	1.0457	25.15	0.44	0.750			
0.3954	25306.60	3.8020	3.8021	1.0554	25.14	0.43	0.750			
0.3986	25507.75	3.7990	3.7991	1.0746	25.13	0.42	0.750			
0.4018	25716.21	3.7960	3.7961	1.0937	25.12	0.41	0.750			
0.4052	25935.16	3.7930	3.7928	1.1172	25.11	0.40	0.750			
0.4085	26145.81	3.7900	3.7901	1.1112	25.10	0.39	0.750			
0.4118	26358.35	3.7870	3.7871	1.1292	25.09	0.38	0.750			
0.4152	26575.86	3.7840	3.7841	1.1515	25.09	0.38	0.750			
0.4188	26802.12	3.7810	3.7807	1.1508	25.08	0.37	0.750			
0.4222	27020.04	3.7780	3.7781	1.1723	25.06	0.35	0.750			
0.4257	27245.99	3.7750	3.7752	1.2073	25.05	0.34	0.750			
0.4294	27483.02	3.7720	3.7719	1.2335	25.03	0.32	0.750			
0.4331	27718.97	3.7690	3.7691	1.2470	25.02	0.31	0.750			
0.4369	27961.76	3.7660	3.7661	1.2760	25.01	0.30	0.750			
0.4409	28217.39	3.7630	3.7631	1.2879	25.00	0.29	0.750			
0.4448	28468.78	3.7600	3.7599	1.3320	24.99	0.28	0.750			
0.4487	28717.74	3.7570	3.7571	1.3484	24.98	0.27	0.750			
0.4528	28979.70	3.7540	3.7541	1.3749	24.97	0.26	0.750			
0.4570	29246.58	3.7510	3.7510	1.4180	24.96	0.25	0.750			
0.4613	29521.43	3.7480	3.7482	1.4529	24.94	0.23	0.750			
0.4657	29806.13	3.7450	3.7452	1.4898	24.93	0.22	0.750			
0.4703	30097.53	3.7420	3.7421	1.5110	24.91	0.20	0.750			
0.4747	30380.86	3.7390	3.7392	1.5386	24.90	0.19	0.750			
0.4795	30686.19	3.7360	3.7359	1.5441	24.88	0.17	0.750			
0.4842	30987.47	3.7330	3.7326	1.5902	24.87	0.16	0.750			
0.4889	31289.05	3.7300	3.7297	1.6873	24.85	0.14	0.750			
0.4939	31607.66	3.7270	3.7272	1.7622	24.84	0.13	0.750			
0.4991	31945.19	3.7240	3.7244	1.7900	24.82	0.11	0.750			
0.5048	32309.68	3.7210	3.7208	1.8351	24.80	0.09	0.750			
0.5104	32665.60	3.7180	3.7180	1.9051	24.78	0.07	0.750			
0.5160	33025.04	3.7150	3.7154	1.9303	24.77	0.06	0.750			
0.5219	33402.55	3.7120	3.7119	1.9375	24.75	0.04	0.750			
0.5280	33793.76	3.7090	3.7093	2.0586	24.74	0.03	0.750			
0.5339	34166.60	3.7060	3.7059	2.1109	24.73	0.02	0.750			
0.5404	34582.64	3.7030	3.7035	2.1482	24.71	-0.00	0.750			
0.5469	35002.85	3.7000	3.6998	2.2197	24.69	-0.02	0.750			
0.5539	35449.63	3.6970	3.6968	2.2317	24.68	-0.03	0.750			
0.5606	35876.47	3.6940	3.6944	2.3163	24.67	-0.04	0.750			
0.5677	36331.04	3.6910	3.6908	2.3883	24.66	-0.05	0.750			
0.5750	36802.26	3.6880	3.6874	2.4849	24.64	-0.07	0.750			
0.5826	37286.20	3.6850	3.6851	2.5842	24.63	-0.08	0.750			
0.5905	37790.32	3.6820	3.6818	2.6097	24.62	-0.09	0.750			
0.5984	38299.35	3.6790	3.6794	2.6667	24.61	-0.10	0.750			
0.6062	38796.87	3.6760	3.6754	2.6239	24.60	-0.11	0.750			
0.6144	39318.89	3.6730	3.6735	2.7231	24.60	-0.11	0.750			
0.6229	39867.82	3.6700	3.6701	2.7291	24.60	-0.11	0.750			
0.6304	40346.22	3.6670	3.6677	2.4947	24.59	-0.12	0.750			
0.6376	40803.32	3.6640	3.6638	2.4530	24.60	-0.11	0.750			
0.6449	41271.26	3.6610	3.6612	2.4328	24.60	-0.11	0.750			
0.6525	41758.04	3.6580	3.6584	2.4810	24.60	-0.11	0.750			
0.6601	42249.56	3.6550	3.6548	2.4106	24.61	-0.10	0.750			
0.6668	42677.74	3.6520	3.6521	2.1519	24.62	-0.09	0.750			
0.6729	43062.49	3.6490	3.6492	1.8729	24.63	-0.08	0.750			
0.6782	43407.54	3.6460	3.6455	1.6881	24.64	-0.07	0.750			
0.6826	43688.50	3.6430	3.6434	1.4562	24.64	-0.07	0.750			
0.6867	43951.60	3.6400	3.6402	1.2926	24.65	-0.06	0.750			
0.6903	44180.78	3.6370	3.6370	1.1833	24.65	-0.06	0.750			
0.6934	44378.78	3.6340	3.6339	1.0556	24.65	-0.06	0.750			
0.6965	44573.50	3.6310	3.6310	1.0121	24.66	-0.05	0.750			
0.6994	44759.57	3.6280	3.6280	0.9770	24.67	-0.04	0.750			
0.7023	44944.36	3.6250	3.6250	0.9536	24.67	-0.04	0.750			
0.7051	45125.16	3.6220	3.6219	0.9240	24.68	-0.03	0.750			
0.7079	45302.86	3.6190	3.6190	0.9019	24.69	-0.02	0.750			
0.7106	45475.67	3.6160	3.6160	0.8652	24.69	-0.02	0.750			
0.7131	45641.36	3.6130	3.6131	0.8221	24.70	-0.01	0.750			
0.7156	45796.57	3.6100	3.6099	0.7650	24.70	-0.01	0.750			
0.7178	45941.48	3.6070	3.6066	0.6976	24.71	-0.00	0.750			
0.7198	46069.19	3.6040	3.6041	0.6328	24.71	0.00	0.750			
0.7216	46183.36	3.6010	3.6011	0.5631	24.72	0.01	0.750			
0.7232	46282.74	3.5980	3.5981	0.4983	24.72	0.01	0.750			
0.7246	46371.33	3.5950	3.5951	0.4390	24.73	0.02	0.750			
0.7257	46447.43	3.5920	3.5921	0.3836	24.73	0.02	0.750			
0.7268	46516.82	3.5890	3.5890	0.3315	24.73	0.02	0.750			
0.7278	46576.46	3.5860	3.5859	0.2833	24.73	0.02	0.750			
0.7285	46626.22	3.5830	3.5831	0.2306	24.74	0.03	0.750			
0.7292	46666.94	3.5800	3.5801	0.1790	24.74	0.03	0.750			
0.7296	46696.18	3.5770	3.5773	0.1230	24.74	0.03	0.750			
0.7299	46714.35	3.5740	3.5748	0.0574	24.74	0.03	0.750			
