Ah_balance (normalized)	Ah_balance (mAh)	Voltage - fit (V)	Voltage -  interpolate (V)	dQ/dV (1/V)	Temperature (°C)	Temperature - diff (°C)	Current (C)	R_DC 0ms (mOhm)	R_DC 50ms (mOhm)	R_DC 50 ms PEC (mOhm)
0.0486	3110.61	4.1960	4.1960	0.7678	25.71	0.43	0.750			
0.0509	3258.67	4.1930	4.1930	0.7693	25.71	0.43	0.750			
0.0532	3406.00	4.1900	4.1900	0.7674	25.71	0.43	0.750			
0.0555	3552.72	4.1870	4.1870	0.7683	25.71	0.43	0.750			
0.0578	3700.26	4.1840	4.1840	0.7698	25.71	0.43	0.750			
0.0601	3847.71	4.1810	4.1810	0.7708	25.71	0.43	0.750			
0.0624	3996.04	4.1780	4.1780	0.7722	25.71	0.43	0.750			
0.0648	4145.12	4.1750	4.1750	0.7714	25.71	0.43	0.750			
0.0671	4293.10	4.1720	4.1720	0.7749	25.71	0.43	0.750			
0.0694	4441.39	4.1690	4.1690	0.7769	25.72	0.44	0.750			
0.0717	4591.39	4.1660	4.1660	0.7749	25.72	0.44	0.750			
0.0741	4740.55	4.1630	4.1630	0.7738	25.72	0.44	0.750			
0.0764	4889.28	4.1600	4.1601	0.7720	25.72	0.44	0.750			
0.0787	5037.89	4.1570	4.1571	0.7667	25.72	0.44	0.750			
0.0810	5183.32	4.1540	4.1540	0.7672	25.72	0.44	0.750			
0.0832	5327.39	4.1510	4.1511	0.7694	25.72	0.44	0.750			
0.0856	5475.64	4.1480	4.1477	0.7792	25.72	0.44	0.750			
0.0879	5627.67	4.1450	4.1451	0.7866	25.72	0.44	0.750			
0.0903	5779.55	4.1420	4.1421	0.7908	25.72	0.44	0.750			
0.0927	5934.14	4.1390	4.1390	0.8008	25.73	0.45	0.750			
0.0951	6089.52	4.1360	4.1359	0.8013	25.73	0.45	0.750			
0.0975	6240.06	4.1330	4.1329	0.7943	25.73	0.45	0.750			
0.0999	6392.68	4.1300	4.1301	0.7957	25.73	0.45	0.750			
0.1023	6548.16	4.1270	4.1270	0.7908	25.73	0.45	0.750			
0.1047	6698.42	4.1240	4.1239	0.7934	25.73	0.45	0.750			
0.1070	6848.91	4.1210	4.1211	0.7935	25.73	0.45	0.750			
0.1094	7000.56	4.1180	4.1181	0.7960	25.73	0.45	0.750			
0.1118	7154.59	4.1150	4.1149	0.8013	25.73	0.45	0.750			
0.1142	7309.52	4.1120	4.1121	0.8048	25.73	0.45	0.750			
0.1166	7464.40	4.1090	4.1091	0.8096	25.73	0.45	0.750			
0.1191	7621.03	4.1060	4.1060	0.8142	25.73	0.45	0.750			
0.1215	7776.49	4.1030	4.1030	0.8155	25.73	0.45	0.750			
0.1240	7933.82	4.1000	4.1000	0.8177	25.73	0.45	0.750			
0.1264	8092.74	4.0970	4.0969	0.8163	25.73	0.45	0.750			
0.1289	8250.57	4.0940	4.0940	0.8161	25.74	0.46	0.750			
0.1313	8405.59	4.0910	4.0911	0.8179	25.74	0.46	0.750			
0.1338	8562.09	4.0880	4.0880	0.8180	25.75	0.47	0.750			
0.1362	8718.88	4.0850	4.0849	0.8180	25.75	0.47	0.750			
0.1387	8875.77	4.0820	4.0820	0.8217	25.75	0.47	0.750			
0.1412	9035.35	4.0790	4.0790	0.8227	25.75	0.47	0.750			
0.1436	9192.32	4.0760	4.0760	0.8287	25.75	0.47	0.750			
0.1461	9351.20	4.0730	4.0730	0.8300	25.75	0.47	0.750			
0.1486	9510.41	4.0700	4.0697	0.8336	25.75	0.47	0.750			
0.1511	9671.29	4.0670	4.0671	0.8381	25.75	0.47	0.750			
0.1536	9833.03	4.0640	4.0640	0.8342	25.75	0.47	0.750			
0.1561	9992.96	4.0610	4.0611	0.8392	25.75	0.47	0.750			
0.1586	10152.09	4.0580	4.0581	0.8391	25.75	0.47	0.750			
0.1612	10314.42	4.0550	4.0547	0.8442	25.75	0.47	0.750			
0.1637	10478.82	4.0520	4.0520	0.8435	25.75	0.47	0.750			
0.1663	10641.20	4.0490	4.0491	0.8437	25.75	0.47	0.750			
0.1688	10805.61	4.0460	4.0461	0.8471	25.75	0.47	0.750			
0.1713	10966.21	4.0430	4.0430	0.8448	25.75	0.47	0.750			
0.1738	11125.18	4.0400	4.0400	0.8470	25.75	0.47	0.750			
0.1764	11289.16	4.0370	4.0370	0.8562	25.75	0.47	0.750			
0.1790	11455.83	4.0340	4.0340	0.8674	25.75	0.47	0.750			
0.1816	11623.57	4.0310	4.0310	0.8746	25.75	0.47	0.750			
0.1843	11793.13	4.0280	4.0280	0.8794	25.75	0.47	0.750			
0.1869	11961.74	4.0250	4.0251	0.8821	25.75	0.47	0.750			
0.1896	12132.06	4.0220	4.0219	0.8827	25.75	0.47	0.750			
0.1922	12300.45	4.0190	4.0191	0.8869	25.75	0.47	0.750			
0.1949	12471.75	4.0160	4.0160	0.8896	25.76	0.48	0.750			
0.1976	12643.34	4.0130	4.0129	0.8925	25.76	0.48	0.750			
0.2002	12814.41	4.0100	4.0100	0.8978	25.76	0.48	0.750			
0.2029	12986.90	4.0070	4.0070	0.8990	25.76	0.48	0.750			
0.2056	13160.00	4.0040	4.0040	0.9000	25.77	0.49	0.750			
0.2084	13334.48	4.0010	4.0010	0.9023	25.77	0.49	0.750			
0.2110	13506.71	3.9980	3.9979	0.9017	25.77	0.49	0.750			
0.2138	13682.83	3.9950	3.9950	0.8957	25.77	0.49	0.750			
0.2164	13851.23	3.9920	3.9921	0.9012	25.77	0.49	0.750			
0.2191	14022.43	3.9890	3.9890	0.9048	25.77	0.49	0.750			
0.2218	14197.56	3.9860	3.9861	0.9124	25.77	0.49	0.750			
0.2246	14372.92	3.9830	3.9829	0.9157	25.77	0.49	0.750			
0.2273	14550.00	3.9800	3.9801	0.9127	25.77	0.49	0.750			
0.2301	14727.12	3.9770	3.9771	0.9149	25.78	0.50	0.750			
0.2329	14903.83	3.9740	3.9740	0.9250	25.78	0.50	0.750			
0.2356	15080.16	3.9710	3.9707	0.9182	25.78	0.50	0.750			
0.2384	15257.29	3.9680	3.9679	0.9168	25.78	0.50	0.750			
0.2412	15434.01	3.9650	3.9654	0.9172	25.78	0.50	0.750			
0.2439	15611.42	3.9620	3.9619	0.9234	25.79	0.51	0.750			
0.2467	15788.49	3.9590	3.9590	0.9251	25.79	0.51	0.750			
0.2494	15962.28	3.9560	3.9560	0.9223	25.79	0.51	0.750			
0.2522	16140.95	3.9530	3.9530	0.9060	25.80	0.52	0.750			
0.2549	16316.31	3.9500	3.9501	0.9278	25.80	0.52	0.750			
0.2577	16493.58	3.9470	3.9472	0.9355	25.80	0.52	0.750			
0.2605	16672.78	3.9440	3.9436	0.9407	25.81	0.53	0.750			
0.2634	16855.46	3.9410	3.9411	0.9396	25.81	0.53	0.750			
0.2662	17035.69	3.9380	3.9382	0.9528	25.81	0.53	0.750			
0.2691	17221.50	3.9350	3.9351	0.9615	25.81	0.53	0.750			
0.2720	17408.99	3.9320	3.9320	0.9570	25.81	0.53	0.750			
0.2749	17594.52	3.9290	3.9291	0.9540	25.81	0.53	0.750			
0.2778	17777.05	3.9260	3.9261	0.9569	25.81	0.53	0.750			
0.2806	17960.99	3.9230	3.9231	0.9602	25.82	0.54	0.750			
0.2835	18145.12	3.9200	3.9200	0.9684	25.82	0.54	0.750			
0.2864	18327.88	3.9170	3.9168	0.9648	25.82	0.54	0.750			
0.2893	18516.47	3.9140	3.9140	0.9621	25.83	0.55	0.750			
0.2922	18700.80	3.9110	3.9111	0.9742	25.83	0.55	0.750			
0.2951	18888.86	3.9080	3.9081	0.9777	25.83	0.55	0.750			
0.2981	19076.19	3.9050	3.9046	0.9813	25.84	0.56	0.750			
0.3010	19265.51	3.9020	3.9021	0.9786	25.84	0.56	0.750			
0.3040	19453.35	3.8990	3.8991	0.9906	25.84	0.56	0.750			
0.3070	19646.93	3.8960	3.8960	1.0008	25.85	0.57	0.750			
0.3100	19838.57	3.8930	3.8929	0.9990	25.85	0.57	0.750			
0.3130	20031.53	3.8900	3.8901	1.0006	25.85	0.57	0.750			
0.3160	20225.68	3.8870	3.8870	1.0066	25.85	0.57	0.750			
0.3190	20417.96	3.8840	3.8841	1.0108	25.85	0.57	0.750			
0.3221	20611.86	3.8810	3.8810	1.0090	25.85	0.57	0.750			
0.3251	20807.08	3.8780	3.8780	1.0162	25.85	0.57	0.750			
0.3282	21001.95	3.8750	3.8751	1.0121	25.85	0.57	0.750			
0.3312	21194.61	3.8720	3.8721	1.0204	25.85	0.57	0.750			
0.3343	21392.60	3.8690	3.8691	1.0257	25.85	0.57	0.750			
0.3373	21589.75	3.8660	3.8661	1.0220	25.85	0.57	0.750			
0.3404	21785.46	3.8630	3.8632	1.0260	25.85	0.57	0.750			
0.3435	21983.89	3.8600	3.8601	1.0331	25.85	0.57	0.750			
0.3466	22182.66	3.8570	3.8570	1.0411	25.85	0.57	0.750			
0.3497	22381.15	3.8540	3.8540	1.0358	25.85	0.57	0.750			
0.3528	22580.62	3.8510	3.8510	1.0482	25.84	0.56	0.750			
0.3560	22786.03	3.8480	3.8480	1.0553	25.84	0.56	0.750			
0.3592	22990.21	3.8450	3.8450	1.0631	25.83	0.55	0.750			
0.3624	23192.48	3.8420	3.8421	1.0646	25.83	0.55	0.750			
0.3656	23396.63	3.8390	3.8390	1.0515	25.82	0.54	0.750			
0.3687	23594.08	3.8360	3.8361	1.0702	25.82	0.54	0.750			
0.3719	23800.03	3.8330	3.8331	1.0841	25.81	0.53	0.750			
0.3752	24012.67	3.8300	3.8302	1.0802	25.80	0.52	0.750	0.340	0.410	
0.3784	24220.66	3.8270	3.8273	1.0988	25.79	0.51	0.750			
0.3818	24432.51	3.8240	3.8242	1.1159	25.78	0.50	0.750			
0.3852	24651.89	3.8210	3.8207	1.1305	25.77	0.49	0.750			
0.3885	24866.28	3.8180	3.8181	1.1188	25.77	0.49	0.750			
0.3919	25079.57	3.8150	3.8152	1.1259	25.76	0.48	0.750			
0.3953	25297.92	3.8120	3.8121	1.1399	25.76	0.48	0.750			
0.3988	25524.40	3.8090	3.8086	1.1389	25.75	0.47	0.750			
0.4021	25736.74	3.8060	3.8060	1.1321	25.74	0.46	0.750			
0.4055	25952.02	3.8030	3.8032	1.1440	25.73	0.45	0.750			
0.4090	26174.28	3.8000	3.8001	1.1563	25.72	0.44	0.750			
0.4124	26395.90	3.7970	3.7970	1.1521	25.71	0.43	0.750			
0.4159	26617.51	3.7940	3.7941	1.1646	25.69	0.41	0.750			
0.4194	26841.36	3.7910	3.7912	1.1765	25.68	0.40	0.750			
0.4230	27071.27	3.7880	3.7877	1.1866	25.67	0.39	0.750			
0.4265	27298.19	3.7850	3.7851	1.1977	25.66	0.38	0.750			
0.4301	27529.03	3.7820	3.7821	1.2147	25.65	0.37	0.750			
0.4338	27765.67	3.7790	3.7790	1.2364	25.64	0.36	0.750			
0.4376	28004.32	3.7760	3.7761	1.2283	25.62	0.34	0.750			
0.4412	28238.12	3.7730	3.7731	1.2527	25.61	0.33	0.750			
0.4450	28479.03	3.7700	3.7701	1.2796	25.60	0.32	0.750			
0.4488	28726.24	3.7670	3.7665	1.2982	25.59	0.31	0.750			
0.4527	28974.30	3.7640	3.7641	1.3267	25.58	0.30	0.750			
0.4568	29234.41	3.7610	3.7612	1.3595	25.58	0.30	0.750			
0.4609	29500.37	3.7580	3.7576	1.4032	25.57	0.29	0.750			
0.4652	29772.48	3.7550	3.7550	1.4122	25.55	0.27	0.750			
0.4695	30050.92	3.7520	3.7521	1.4293	25.54	0.26	0.750			
0.4738	30325.51	3.7490	3.7489	1.4648	25.52	0.24	0.750			
0.4782	30603.45	3.7460	3.7456	1.4905	25.50	0.22	0.750			
0.4827	30891.45	3.7430	3.7433	1.5172	25.48	0.20	0.750			
0.4873	31189.23	3.7400	3.7396	1.5653	25.47	0.19	0.750			
0.4921	31491.91	3.7370	3.7370	1.6327	25.46	0.18	0.750			
0.4971	31814.45	3.7340	3.7341	1.6707	25.44	0.16	0.750			
0.5022	32141.22	3.7310	3.7313	1.7442	25.43	0.15	0.750			
0.5075	32483.16	3.7280	3.7283	1.7709	25.41	0.13	0.750			
0.5130	32832.19	3.7250	3.7248	1.8303	25.39	0.11	0.750			
0.5186	33191.24	3.7220	3.7219	1.8865	25.38	0.10	0.750			
0.5244	33563.56	3.7190	3.7191	1.9499	25.37	0.09	0.750			
0.5304	33942.46	3.7160	3.7164	2.0019	25.35	0.07	0.750			
0.5364	34330.33	3.7130	3.7129	2.0644	25.34	0.06	0.750			
0.5427	34730.64	3.7100	3.7097	2.1475	25.32	0.04	0.750			
0.5491	35145.12	3.7070	3.7069	2.2037	25.31	0.03	0.750			
0.5560	35581.83	3.7040	3.7039	2.2295	25.29	0.01	0.750			
0.5630	36029.33	3.7010	3.7009	2.3003	25.27	-0.01	0.750			
0.5698	36466.78	3.6980	3.6977	2.3267	25.26	-0.02	0.750			
0.5768	36917.57	3.6950	3.6955	2.4200	25.24	-0.04	0.750			
0.5841	37385.23	3.6920	3.6921	2.4833	25.22	-0.06	0.750			
0.5919	37881.76	3.6890	3.6889	2.5288	25.20	-0.08	0.750			
0.5998	38385.68	3.6860	3.6858	2.6032	25.18	-0.10	0.750			
0.6076	38885.09	3.6830	3.6828	2.7171	25.17	-0.11	0.750			
0.6156	39399.35	3.6800	3.6800	2.8365	25.16	-0.12	0.750			
0.6242	39949.14	3.6770	3.6773	2.9051	25.14	-0.14	0.750			
0.6332	40524.56	3.6740	3.6742	3.0090	25.13	-0.15	0.750			
0.6423	41107.97	3.6710	3.6712	2.9305	25.12	-0.16	0.750			
0.6512	41675.90	3.6680	3.6685	2.9723	25.12	-0.16	0.750			
0.6599	42236.66	3.6650	3.6652	2.9199	25.12	-0.16	0.750			
0.6690	42817.15	3.6620	3.6621	2.7957	25.12	-0.16	0.750			
0.6777	43371.12	3.6590	3.6591	2.6835	25.13	-0.15	0.750			
0.6853	43858.45	3.6560	3.6559	2.4586	25.14	-0.14	0.750			
0.6923	44306.22	3.6530	3.6533	2.2236	25.15	-0.13	0.750			
0.6984	44694.45	3.6500	3.6502	1.9736	25.15	-0.13	0.750			
0.7041	45062.45	3.6470	3.6471	1.7859	25.16	-0.12	0.750			
0.7092	45389.71	3.6440	3.6442	1.5931	25.18	-0.10	0.750			
0.7139	45688.67	3.6410	3.6412	1.4315	25.18	-0.10	0.750			
0.7177	45933.08	3.6380	3.6382	1.2612	25.19	-0.09	0.750			
0.7211	46152.25	3.6350	3.6350	1.1172	25.20	-0.08	0.750			
0.7240	46334.05	3.6320	3.6321	0.9814	25.20	-0.08	0.750			
0.7268	46512.16	3.6290	3.6290	0.9176	25.21	-0.07	0.750			
0.7293	46677.96	3.6260	3.6260	0.8742	25.22	-0.06	0.750			
0.7319	46841.73	3.6230	3.6230	0.8504	25.23	-0.05	0.750			
0.7345	47004.85	3.6200	3.6200	0.8018	25.24	-0.04	0.750			
0.7367	47150.84	3.6170	3.6171	0.7694	25.24	-0.04	0.750			
0.7390	47294.71	3.6140	3.6143	0.7450	25.25	-0.03	0.750			
0.7412	47436.26	3.6110	3.6091	0.7121	25.26	-0.02	0.750			
0.7433	47572.17	3.6080	3.6085	0.6563	25.26	-0.02	0.750			
0.7452	47695.29	3.6050	3.6055	0.5962	25.27	-0.01	0.750			
0.7470	47811.20	3.6020	3.6023	0.5375	25.28	-0.00	0.750			
0.7486	47912.75	3.5990	3.5984	0.4638	25.28	0.00	0.750			
0.7497	47983.77	3.5960	3.5962	0.3758	25.28	0.00	0.750			
0.7508	48049.58	3.5930	3.5930	0.3142	25.29	0.01	0.750			
0.7516	48104.61	3.5900	3.5900	0.2544	25.29	0.01	0.750			
0.7523	48146.83	3.5870	3.5871	0.1918	25.29	0.01	0.750			
0.7528	48178.09	3.5840	3.5842	0.1402	25.29	0.01	0.750			
