Ah_balance (normalized)	Ah_balance (mAh)	Voltage - fit (V)	Voltage -  interpolate (V)	dQ/dV (1/V)	Temperature (°C)	Temperature - diff (°C)	Current (C)	R_DC 0ms (mOhm)	R_DC 50ms (mOhm)	R_DC 50 ms PEC (mOhm)
0.0002	10.02	4.1660	4.1659	-0.1045	25.02	0.02	-0.750			
0.0005	34.34	4.1630	4.1630	-0.1516	25.02	0.02	-0.750			
0.0011	68.72	4.1600	4.1600	-0.2021	25.02	0.02	-0.750			
0.0018	112.72	4.1570	4.1570	-0.2499	25.01	0.01	-0.750			
0.0026	165.59	4.1540	4.1540	-0.2939	25.01	0.01	-0.750			
0.0035	226.22	4.1510	4.1511	-0.3406	25.01	0.01	-0.750			
0.0046	297.08	4.1480	4.1480	-0.3818	25.01	0.01	-0.750			
0.0059	374.78	4.1450	4.1449	-0.4276	25.01	0.01	-0.750			
0.0072	462.43	4.1420	4.1420	-0.4651	25.01	0.01	-0.750			
0.0087	556.98	4.1390	4.1389	-0.4973	25.00	0.00	-0.750			
0.0103	657.38	4.1360	4.1361	-0.5308	25.00	0.00	-0.750			
0.0119	762.72	4.1330	4.1329	-0.5565	25.00	-0.00	-0.750			
0.0136	871.28	4.1300	4.1300	-0.5801	25.00	-0.00	-0.750			
0.0154	985.05	4.1270	4.1269	-0.6042	24.99	-0.01	-0.750			
0.0172	1101.02	4.1240	4.1241	-0.6225	24.99	-0.01	-0.750			
0.0192	1226.76	4.1210	4.1210	-0.6495	24.99	-0.01	-0.750			
0.0212	1354.80	4.1180	4.1180	-0.6524	24.98	-0.02	-0.750			
0.0231	1481.50	4.1150	4.1150	-0.6639	24.98	-0.02	-0.750			
0.0251	1609.57	4.1120	4.1122	-0.6773	24.98	-0.02	-0.750			
0.0272	1739.15	4.1090	4.1086	-0.6849	24.97	-0.03	-0.750			
0.0292	1871.91	4.1060	4.1060	-0.7056	24.97	-0.03	-0.750			
0.0314	2009.97	4.1030	4.1031	-0.7125	24.97	-0.03	-0.750			
0.0336	2151.29	4.1000	4.0998	-0.7256	24.96	-0.04	-0.750			
0.0358	2293.37	4.0970	4.0975	-0.7347	24.96	-0.04	-0.750			
0.0380	2432.56	4.0940	4.0939	-0.7316	24.96	-0.04	-0.750			
0.0402	2572.69	4.0910	4.0910	-0.7445	24.96	-0.04	-0.750			
0.0424	2716.26	4.0880	4.0880	-0.7481	24.95	-0.05	-0.750			
0.0448	2864.32	4.0850	4.0848	-0.7561	24.95	-0.05	-0.750			
0.0470	3009.99	4.0820	4.0817	-0.7524	24.95	-0.05	-0.750			
0.0493	3153.37	4.0790	4.0788	-0.7547	24.95	-0.05	-0.750			
0.0515	3296.78	4.0760	4.0759	-0.7534	24.95	-0.05	-0.750			
0.0537	3437.78	4.0730	4.0730	-0.7601	24.95	-0.05	-0.750			
0.0560	3583.61	4.0700	4.0700	-0.7526	24.96	-0.04	-0.750			
0.0584	3737.21	4.0670	4.0670	-0.7725	24.96	-0.04	-0.750			
0.0607	3886.39	4.0640	4.0643	-0.7752	24.96	-0.04	-0.750			
0.0631	4036.32	4.0610	4.0609	-0.7743	24.96	-0.04	-0.750			
0.0654	4182.54	4.0580	4.0580	-0.7752	24.96	-0.04	-0.750			
0.0677	4330.13	4.0550	4.0550	-0.7759	24.96	-0.04	-0.750			
0.0700	4479.09	4.0520	4.0520	-0.7814	24.96	-0.04	-0.750			
0.0724	4630.89	4.0490	4.0489	-0.7858	24.96	-0.04	-0.750			
0.0747	4781.37	4.0460	4.0459	-0.7884	24.96	-0.04	-0.750			
0.0771	4931.36	4.0430	4.0430	-0.7961	24.96	-0.04	-0.750			
0.0795	5086.08	4.0400	4.0400	-0.7987	24.96	-0.04	-0.750			
0.0819	5240.47	4.0370	4.0370	-0.7902	24.96	-0.04	-0.750			
0.0843	5395.31	4.0340	4.0339	-0.7927	24.96	-0.04	-0.750			
0.0867	5545.88	4.0310	4.0313	-0.7925	24.96	-0.04	-0.750			
0.0890	5696.32	4.0280	4.0280	-0.7921	24.96	-0.04	-0.750			
0.0914	5846.64	4.0250	4.0250	-0.7923	24.96	-0.04	-0.750			
0.0937	5997.14	4.0220	4.0219	-0.7930	24.96	-0.04	-0.750			
0.0961	6153.32	4.0190	4.0191	-0.8012	24.96	-0.04	-0.750			
0.0986	6310.67	4.0160	4.0160	-0.8074	24.96	-0.04	-0.750			
0.1010	6463.69	4.0130	4.0130	-0.8007	24.96	-0.04	-0.750			
0.1034	6615.95	4.0100	4.0101	-0.8073	24.96	-0.04	-0.750			
0.1058	6773.26	4.0070	4.0069	-0.8098	24.97	-0.03	-0.750			
0.1083	6928.69	4.0040	4.0039	-0.8122	24.97	-0.03	-0.750			
0.1107	7085.94	4.0010	4.0013	-0.8099	24.97	-0.03	-0.750			
0.1132	7243.09	3.9980	3.9979	-0.8139	24.97	-0.03	-0.750			
0.1156	7398.72	3.9950	3.9950	-0.8242	24.97	-0.03	-0.750			
0.1181	7557.91	3.9920	3.9918	-0.8184	24.98	-0.02	-0.750			
0.1206	7717.76	3.9890	3.9889	-0.8216	24.98	-0.02	-0.750			
0.1230	7874.38	3.9860	3.9866	-0.8236	24.98	-0.02	-0.750			
0.1255	8032.13	3.9830	3.9829	-0.8195	24.98	-0.02	-0.750			
0.1279	8188.24	3.9800	3.9798	-0.8253	24.98	-0.02	-0.750			
0.1304	8344.00	3.9770	3.9770	-0.8254	24.98	-0.02	-0.750			
0.1329	8504.93	3.9740	3.9740	-0.8361	24.98	-0.02	-0.750			
0.1354	8665.63	3.9710	3.9711	-0.8342	24.98	-0.02	-0.750			
0.1379	8826.90	3.9680	3.9680	-0.8375	24.98	-0.02	-0.750			
0.1404	8985.62	3.9650	3.9650	-0.8418	24.98	-0.02	-0.750			
0.1430	9149.24	3.9620	3.9619	-0.8427	24.99	-0.01	-0.750			
0.1455	9310.00	3.9590	3.9590	-0.8409	24.99	-0.01	-0.750			
0.1480	9473.72	3.9560	3.9561	-0.8449	24.99	-0.01	-0.750			
0.1506	9637.97	3.9530	3.9529	-0.8328	24.99	-0.01	-0.750			
0.1531	9797.29	3.9500	3.9499	-0.8433	24.99	-0.01	-0.750			
0.1556	9957.12	3.9470	3.9471	-0.8446	25.00	-0.00	-0.750			
0.1581	10117.93	3.9440	3.9438	-0.8486	25.00	-0.00	-0.750			
0.1607	10284.26	3.9410	3.9416	-0.8597	25.00	-0.00	-0.750			
0.1633	10449.37	3.9380	3.9380	-0.8627	25.00	0.00	-0.750			
0.1659	10616.58	3.9350	3.9350	-0.8683	25.00	0.00	-0.750			
0.1685	10784.91	3.9320	3.9320	-0.8670	25.01	0.01	-0.750			
0.1711	10951.40	3.9290	3.9290	-0.8698	25.01	0.01	-0.750			
0.1737	11116.92	3.9260	3.9261	-0.8659	25.01	0.01	-0.750			
0.1763	11281.72	3.9230	3.9230	-0.8686	25.01	0.01	-0.750			
0.1789	11449.47	3.9200	3.9200	-0.8681	25.01	0.01	-0.750			
0.1815	11615.73	3.9170	3.9170	-0.8690	25.01	0.01	-0.750			
0.1841	11783.43	3.9140	3.9139	-0.8686	25.01	0.01	-0.750			
0.1867	11950.03	3.9110	3.9112	-0.8710	25.01	0.01	-0.750			
0.1893	12116.83	3.9080	3.9080	-0.8773	25.01	0.01	-0.750			
0.1920	12286.72	3.9050	3.9048	-0.8799	25.01	0.01	-0.750			
0.1946	12456.43	3.9020	3.9019	-0.8778	25.02	0.02	-0.750			
0.1973	12626.47	3.8990	3.8989	-0.8825	25.02	0.02	-0.750			
0.1999	12796.37	3.8960	3.8958	-0.8823	25.02	0.02	-0.750			
0.2026	12965.36	3.8930	3.8929	-0.8867	25.03	0.03	-0.750			
0.2052	13131.08	3.8900	3.8900	-0.8815	25.03	0.03	-0.750			
0.2079	13304.58	3.8870	3.8869	-0.8881	25.04	0.04	-0.750			
0.2105	13474.57	3.8840	3.8841	-0.8845	25.04	0.04	-0.750			
0.2132	13642.74	3.8810	3.8810	-0.8903	25.04	0.04	-0.750			
0.2158	13812.21	3.8780	3.8779	-0.8903	25.04	0.04	-0.750			
0.2185	13983.82	3.8750	3.8749	-0.8918	25.05	0.05	-0.750			
0.2211	14153.38	3.8720	3.8721	-0.8936	25.05	0.05	-0.750			
0.2239	14330.49	3.8690	3.8692	-0.8951	25.05	0.05	-0.750			
0.2266	14501.79	3.8660	3.8659	-0.9026	25.05	0.05	-0.750			
0.2293	14675.88	3.8630	3.8630	-0.8917	25.05	0.05	-0.750			
0.2320	14844.90	3.8600	3.8600	-0.8910	25.06	0.06	-0.750			
0.2346	15016.10	3.8570	3.8569	-0.8948	25.06	0.06	-0.750			
0.2373	15188.37	3.8540	3.8539	-0.8932	25.06	0.06	-0.750			
0.2400	15358.88	3.8510	3.8509	-0.8964	25.07	0.07	-0.750			
0.2427	15532.41	3.8480	3.8480	-0.8973	25.07	0.07	-0.750			
0.2454	15702.51	3.8450	3.8450	-0.8930	25.08	0.08	-0.750			
0.2481	15879.51	3.8420	3.8421	-0.9019	25.08	0.08	-0.750			
0.2508	16048.90	3.8390	3.8390	-0.8987	25.08	0.08	-0.750			
0.2535	16221.04	3.8360	3.8360	-0.8960	25.08	0.08	-0.750			
0.2561	16393.26	3.8330	3.8330	-0.8987	25.09	0.09	-0.750			
0.2588	16563.72	3.8300	3.8300	-0.8992	25.09	0.09	-0.750			
0.2616	16740.57	3.8270	3.8271	-0.8953	25.09	0.09	-0.750			
0.2642	16910.59	3.8240	3.8241	-0.9020	25.09	0.09	-0.750			
0.2669	17084.33	3.8210	3.8211	-0.9029	25.09	0.09	-0.750			
0.2697	17258.21	3.8180	3.8177	-0.8973	25.10	0.10	-0.750			
0.2724	17431.97	3.8150	3.8148	-0.8974	25.10	0.10	-0.750			
0.2750	17602.08	3.8120	3.8120	-0.8909	25.10	0.10	-0.750			
0.2777	17773.93	3.8090	3.8090	-0.8926	25.11	0.11	-0.750			
0.2804	17945.72	3.8060	3.8059	-0.8928	25.11	0.11	-0.750			
0.2830	18112.84	3.8030	3.8029	-0.8846	25.12	0.12	-0.750			
0.2857	18286.09	3.8000	3.8001	-0.8909	25.12	0.12	-0.750			
0.2884	18456.77	3.7970	3.7970	-0.8946	25.12	0.12	-0.750			
0.2911	18628.71	3.7940	3.7941	-0.8922	25.12	0.12	-0.750			
0.2938	18801.56	3.7910	3.7909	-0.8843	25.13	0.13	-0.750			
0.2964	18969.83	3.7880	3.7879	-0.8777	25.13	0.13	-0.750			
0.2990	19139.00	3.7850	3.7853	-0.8741	25.13	0.13	-0.750			
0.3016	19305.39	3.7820	3.7821	-0.8826	25.14	0.14	-0.750			
0.3043	19475.04	3.7790	3.7789	-0.8789	25.14	0.14	-0.750			
0.3069	19644.11	3.7760	3.7759	-0.8714	25.14	0.14	-0.750			
0.3096	19811.74	3.7730	3.7730	-0.8737	25.15	0.15	-0.750			
0.3122	19980.97	3.7700	3.7699	-0.8764	25.15	0.15	-0.750			
0.3148	20145.99	3.7670	3.7668	-0.8727	25.16	0.16	-0.750			
0.3174	20313.10	3.7640	3.7640	-0.8712	25.16	0.16	-0.750			
0.3200	20476.86	3.7610	3.7610	-0.8652	25.16	0.16	-0.750			
0.3226	20648.11	3.7580	3.7580	-0.8803	25.17	0.17	-0.750			
0.3253	20816.90	3.7550	3.7550	-0.8833	25.17	0.17	-0.750			
0.3279	20985.55	3.7520	3.7520	-0.8789	25.17	0.17	-0.750			
0.3306	21155.59	3.7490	3.7489	-0.8775	25.18	0.18	-0.750			
0.3332	21322.60	3.7460	3.7460	-0.8755	25.18	0.18	-0.750			
0.3358	21490.94	3.7430	3.7433	-0.8828	25.18	0.18	-0.750			
0.3384	21657.92	3.7400	3.7400	-0.8946	25.18	0.18	-0.750			
0.3411	21830.92	3.7370	3.7369	-0.8920	25.18	0.18	-0.750			
0.3438	22003.89	3.7340	3.7339	-0.8985	25.18	0.18	-0.750			
0.3466	22179.27	3.7310	3.7310	-0.9049	25.18	0.18	-0.750			
0.3492	22351.80	3.7280	3.7281	-0.9120	25.18	0.18	-0.750			
0.3520	22525.12	3.7250	3.7249	-0.9225	25.18	0.18	-0.750			
0.3547	22702.26	3.7220	3.7219	-0.9333	25.18	0.18	-0.750			
0.3575	22880.65	3.7190	3.7190	-0.9430	25.18	0.18	-0.750			
0.3604	23067.65	3.7160	3.7160	-0.9639	25.18	0.18	-0.750			
0.3634	23257.35	3.7130	3.7129	-0.9946	25.18	0.18	-0.750			
0.3664	23452.07	3.7100	3.7099	-1.0052	25.18	0.18	-0.750			
0.3695	23645.55	3.7070	3.7068	-1.0139	25.18	0.18	-0.750			
0.3725	23841.56	3.7040	3.7049	-1.0273	25.18	0.18	-0.750	0.392	0.492	
0.3757	24042.09	3.7010	3.7008	-1.0622	25.18	0.18	-0.750			
0.3789	24249.02	3.6980	3.6979	-1.0693	25.18	0.18	-0.750			
0.3820	24450.87	3.6950	3.6948	-1.0688	25.18	0.18	-0.750			
0.3854	24662.97	3.6920	3.6926	-1.1128	25.18	0.18	-0.750			
0.3887	24879.54	3.6890	3.6888	-1.1291	25.18	0.18	-0.750			
0.3921	25094.90	3.6860	3.6859	-1.1458	25.17	0.17	-0.750			
0.3955	25313.65	3.6830	3.6829	-1.1555	25.16	0.16	-0.750			
0.3991	25542.94	3.6800	3.6802	-1.2010	25.16	0.16	-0.750			
0.4028	25776.54	3.6770	3.6770	-1.2175	25.15	0.15	-0.750			
0.4064	26010.50	3.6740	3.6739	-1.2396	25.15	0.15	-0.750			
0.4102	26249.74	3.6710	3.6709	-1.2860	25.14	0.14	-0.750			
0.4142	26505.96	3.6680	3.6678	-1.3050	25.14	0.14	-0.750			
0.4181	26759.12	3.6650	3.6649	-1.3230	25.13	0.13	-0.750			
0.4221	27015.96	3.6620	3.6625	-1.3625	25.13	0.13	-0.750			
0.4262	27275.62	3.6590	3.6587	-1.4105	25.12	0.12	-0.750			
0.4305	27552.90	3.6560	3.6557	-1.4447	25.11	0.11	-0.750			
0.4349	27832.46	3.6530	3.6530	-1.4776	25.10	0.10	-0.750			
0.4394	28123.43	3.6500	3.6501	-1.5448	25.09	0.09	-0.750			
0.4442	28426.84	3.6470	3.6468	-1.5752	25.09	0.09	-0.750			
0.4489	28726.99	3.6440	3.6441	-1.5974	25.08	0.08	-0.750			
0.4536	29031.78	3.6410	3.6407	-1.6194	25.07	0.07	-0.750			
0.4585	29346.95	3.6380	3.6379	-1.6280	25.06	0.06	-0.750			
0.4637	29673.67	3.6350	3.6348	-1.6742	25.06	0.06	-0.750			
0.4687	29998.13	3.6320	3.6317	-1.7154	25.05	0.05	-0.750			
0.4739	30327.21	3.6290	3.6289	-1.7162	25.04	0.04	-0.750			
0.4791	30662.74	3.6260	3.6262	-1.7991	25.03	0.03	-0.750			
0.4845	31009.93	3.6230	3.6233	-1.7986	25.02	0.02	-0.750			
0.4899	31354.62	3.6200	3.6199	-1.8369	25.01	0.01	-0.750			
0.4956	31717.08	3.6170	3.6167	-1.8725	25.00	0.00	-0.750			
0.5012	32076.10	3.6140	3.6138	-1.8915	25.00	-0.00	-0.750			
0.5068	32437.24	3.6110	3.6110	-1.9467	24.99	-0.01	-0.750			
0.5126	32808.56	3.6080	3.6079	-1.9870	24.98	-0.02	-0.750			
0.5188	33200.36	3.6050	3.6049	-2.0182	24.97	-0.03	-0.750			
0.5248	33589.27	3.6020	3.6021	-2.0424	24.97	-0.03	-0.750			
0.5310	33981.49	3.5990	3.5991	-2.0847	24.96	-0.04	-0.750			
0.5373	34386.02	3.5960	3.5960	-2.1545	24.96	-0.04	-0.750			
0.5437	34798.71	3.5930	3.5927	-2.1532	24.95	-0.05	-0.750			
0.5502	35213.17	3.5900	3.5901	-2.2243	24.94	-0.06	-0.750			
0.5572	35663.70	3.5870	3.5865	-2.2570	24.94	-0.06	-0.750			
0.5640	36095.18	3.5840	3.5835	-2.2899	24.94	-0.06	-0.750			
0.5708	36530.29	3.5810	3.5812	-2.3032	24.93	-0.07	-0.750			
0.5779	36983.14	3.5780	3.5780	-2.3443	24.93	-0.07	-0.750			
0.5850	37441.53	3.5750	3.5751	-2.3570	24.92	-0.08	-0.750			
0.5921	37896.91	3.5720	3.5724	-2.4310	24.92	-0.08	-0.750			
0.5991	38340.99	3.5690	3.5691	-2.3776	24.91	-0.09	-0.750			
0.6064	38808.77	3.5660	3.5661	-2.3474	24.90	-0.10	-0.750			
0.6134	39258.11	3.5630	3.5624	-2.3393	24.90	-0.10	-0.750			
0.6205	39710.59	3.5600	3.5603	-2.3450	24.90	-0.10	-0.750			
0.6275	40160.64	3.5570	3.5571	-2.3741	24.90	-0.10	-0.750			
0.6350	40639.25	3.5540	3.5539	-2.3240	24.91	-0.09	-0.750			
0.6421	41097.55	3.5510	3.5506	-2.3330	24.91	-0.09	-0.750			
0.6488	41520.90	3.5480	3.5484	-2.2711	24.92	-0.08	-0.750			
0.6557	41964.80	3.5450	3.5448	-2.2312	24.93	-0.07	-0.750			
0.6622	42380.19	3.5420	3.5420	-2.1820	24.93	-0.07	-0.750			
0.6687	42795.86	3.5390	3.5390	-2.1661	24.94	-0.06	-0.750			
0.6749	43194.91	3.5360	3.5358	-2.1213	24.94	-0.06	-0.750			
0.6812	43598.39	3.5330	3.5330	-2.0769	24.96	-0.04	-0.750			
0.6874	43994.18	3.5300	3.5300	-2.0330	24.97	-0.03	-0.750			
0.6936	44392.85	3.5270	3.5273	-1.9831	24.98	-0.02	-0.750			
0.6995	44764.91	3.5240	3.5241	-1.9209	24.99	-0.01	-0.750			
0.7052	45130.83	3.5210	3.5209	-1.8701	25.01	0.01	-0.750			
0.7107	45485.21	3.5180	3.5179	-1.8113	25.02	0.02	-0.750			
0.7160	45824.35	3.5150	3.5151	-1.7362	25.03	0.03	-0.750			
0.7211	46152.85	3.5120	3.5119	-1.6790	25.04	0.04	-0.750			
0.7261	46470.31	3.5090	3.5088	-1.6144	25.06	0.06	-0.750			
0.7309	46776.30	3.5060	3.5059	-1.5547	25.08	0.08	-0.750			
0.7354	47065.70	3.5030	3.5031	-1.4956	25.10	0.10	-0.750			
0.7398	47348.84	3.5000	3.5000	-1.4401	25.12	0.12	-0.750			
0.7441	47624.13	3.4970	3.4970	-1.4681	25.13	0.13	-0.750			
