Ah_balance (normalized)	Ah_balance (mAh)	Voltage - fit (V)	Voltage -  interpolate (V)	dQ/dV (1/V)	Temperature (°C)	Temperature - diff (°C)	Current (C)	R_DC 0ms (mOhm)	R_DC 50ms (mOhm)	R_DC 50 ms PEC (mOhm)
0.0489	3131.74	4.1970	4.1970	0.7700	26.09	0.47	0.750			
0.0512	3279.89	4.1940	4.1940	0.7598	26.09	0.47	0.750			
0.0534	3418.15	4.1910	4.1911	0.7437	26.09	0.47	0.750			
0.0556	3560.84	4.1880	4.1881	0.7468	26.09	0.47	0.750			
0.0579	3703.99	4.1850	4.1845	0.7487	26.09	0.47	0.750			
0.0601	3847.26	4.1820	4.1821	0.7511	26.09	0.47	0.750			
0.0624	3993.02	4.1790	4.1791	0.7531	26.09	0.47	0.750			
0.0647	4141.16	4.1760	4.1760	0.7587	26.09	0.47	0.750			
0.0670	4285.06	4.1730	4.1730	0.7543	26.09	0.47	0.750			
0.0692	4429.64	4.1700	4.1701	0.7572	26.09	0.47	0.750			
0.0715	4575.61	4.1670	4.1671	0.7613	26.09	0.47	0.750			
0.0738	4722.30	4.1640	4.1640	0.7631	26.09	0.47	0.750			
0.0761	4869.23	4.1610	4.1610	0.7629	26.09	0.47	0.750			
0.0784	5015.64	4.1580	4.1582	0.7640	26.09	0.47	0.750			
0.0807	5162.93	4.1550	4.1550	0.7641	26.09	0.47	0.750			
0.0830	5309.31	4.1520	4.1518	0.7626	26.09	0.47	0.750			
0.0852	5454.96	4.1490	4.1491	0.7656	26.09	0.47	0.750			
0.0876	5604.61	4.1460	4.1460	0.7575	26.09	0.47	0.750			
0.0899	5750.92	4.1430	4.1429	0.7640	26.10	0.48	0.750			
0.0921	5895.70	4.1400	4.1401	0.7654	26.10	0.48	0.750			
0.0944	6042.67	4.1370	4.1372	0.7668	26.10	0.48	0.750			
0.0967	6190.52	4.1340	4.1341	0.7687	26.10	0.48	0.750			
0.0990	6338.92	4.1310	4.1311	0.7720	26.10	0.48	0.750			
0.1013	6486.03	4.1280	4.1281	0.7701	26.10	0.48	0.750			
0.1037	6634.96	4.1250	4.1250	0.7740	26.10	0.48	0.750			
0.1060	6782.31	4.1220	4.1220	0.7708	26.10	0.48	0.750			
0.1083	6931.01	4.1190	4.1191	0.7759	26.10	0.48	0.750			
0.1106	7081.26	4.1160	4.1160	0.7804	26.10	0.48	0.750			
0.1130	7231.97	4.1130	4.1130	0.7795	26.10	0.48	0.750			
0.1153	7381.95	4.1100	4.1100	0.7839	26.11	0.49	0.750			
0.1177	7531.55	4.1070	4.1070	0.7810	26.11	0.49	0.750			
0.1200	7682.25	4.1040	4.1038	0.7877	26.11	0.49	0.750			
0.1224	7833.01	4.1010	4.1009	0.7903	26.11	0.49	0.750			
0.1248	7989.23	4.0980	4.0980	0.7767	26.11	0.49	0.750			
0.1271	8136.62	4.0950	4.0951	0.7843	26.12	0.50	0.750			
0.1295	8285.99	4.0920	4.0921	0.7865	26.12	0.50	0.750			
0.1318	8435.44	4.0890	4.0891	0.7897	26.12	0.50	0.750			
0.1342	8585.91	4.0860	4.0859	0.7933	26.12	0.50	0.750			
0.1366	8740.40	4.0830	4.0831	0.7913	26.12	0.50	0.750			
0.1390	8893.99	4.0800	4.0801	0.8029	26.12	0.50	0.750			
0.1414	9050.22	4.0770	4.0770	0.8104	26.13	0.51	0.750			
0.1438	9204.01	4.0740	4.0741	0.8051	26.13	0.51	0.750			
0.1462	9358.46	4.0710	4.0709	0.8095	26.13	0.51	0.750			
0.1487	9515.07	4.0680	4.0681	0.8133	26.13	0.51	0.750			
0.1511	9672.87	4.0650	4.0650	0.8175	26.13	0.51	0.750			
0.1536	9830.28	4.0620	4.0620	0.8204	26.14	0.52	0.750			
0.1561	9987.81	4.0590	4.0590	0.8150	26.14	0.52	0.750			
0.1585	10144.82	4.0560	4.0560	0.8158	26.14	0.52	0.750			
0.1610	10302.79	4.0530	4.0529	0.8146	26.14	0.52	0.750			
0.1634	10458.31	4.0500	4.0500	0.8132	26.14	0.52	0.750			
0.1658	10613.31	4.0470	4.0470	0.8183	26.15	0.53	0.750			
0.1683	10769.94	4.0440	4.0440	0.8198	26.15	0.53	0.750			
0.1707	10927.40	4.0410	4.0409	0.8238	26.15	0.53	0.750			
0.1732	11086.98	4.0380	4.0381	0.8310	26.15	0.53	0.750			
0.1757	11247.20	4.0350	4.0350	0.8292	26.15	0.53	0.750			
0.1782	11405.48	4.0320	4.0321	0.8342	26.15	0.53	0.750			
0.1807	11564.78	4.0290	4.0291	0.8357	26.15	0.53	0.750			
0.1832	11725.33	4.0260	4.0257	0.8409	26.15	0.53	0.750			
0.1858	11888.72	4.0230	4.0231	0.8446	26.15	0.53	0.750			
0.1883	12051.26	4.0200	4.0201	0.8478	26.15	0.53	0.750			
0.1909	12215.91	4.0170	4.0170	0.8540	26.15	0.53	0.750			
0.1934	12379.41	4.0140	4.0140	0.8485	26.15	0.53	0.750			
0.1960	12542.29	4.0110	4.0110	0.8509	26.15	0.53	0.750			
0.1986	12709.99	4.0080	4.0079	0.8438	26.16	0.54	0.750			
0.2011	12870.65	4.0050	4.0050	0.8508	26.16	0.54	0.750			
0.2036	13032.73	4.0020	4.0020	0.8553	26.16	0.54	0.750			
0.2062	13196.34	3.9990	3.9991	0.8564	26.17	0.55	0.750			
0.2088	13360.57	3.9960	3.9960	0.8588	26.17	0.55	0.750			
0.2114	13528.03	3.9930	3.9931	0.8574	26.17	0.55	0.750			
0.2139	13692.76	3.9900	3.9901	0.8633	26.17	0.55	0.750			
0.2165	13858.93	3.9870	3.9870	0.8674	26.17	0.55	0.750			
0.2191	14023.00	3.9840	3.9840	0.8648	26.17	0.55	0.750			
0.2217	14190.69	3.9810	3.9811	0.8654	26.17	0.55	0.750			
0.2244	14359.18	3.9780	3.9780	0.8644	26.17	0.55	0.750			
0.2270	14525.99	3.9750	3.9751	0.8714	26.16	0.54	0.750			
0.2296	14694.06	3.9720	3.9720	0.8691	26.16	0.54	0.750			
0.2322	14858.98	3.9690	3.9689	0.8648	26.16	0.54	0.750			
0.2348	15025.46	3.9660	3.9661	0.8677	26.16	0.54	0.750			
0.2374	15194.58	3.9630	3.9629	0.8504	26.16	0.54	0.750			
0.2400	15356.92	3.9600	3.9600	0.8647	26.16	0.54	0.750			
0.2425	15522.64	3.9570	3.9571	0.8650	26.16	0.54	0.750			
0.2451	15686.92	3.9540	3.9536	0.8696	26.16	0.54	0.750			
0.2477	15855.28	3.9510	3.9512	0.8751	26.16	0.54	0.750			
0.2504	16023.92	3.9480	3.9480	0.8646	26.16	0.54	0.750			
0.2530	16190.28	3.9450	3.9451	0.8640	26.16	0.54	0.750			
0.2555	16353.69	3.9420	3.9422	0.8596	26.16	0.54	0.750			
0.2581	16519.76	3.9390	3.9386	0.8674	26.16	0.54	0.750			
0.2608	16688.55	3.9360	3.9360	0.8633	26.16	0.54	0.750			
0.2633	16853.18	3.9330	3.9331	0.8670	26.15	0.53	0.750			
0.2660	17023.30	3.9300	3.9301	0.8756	26.15	0.53	0.750			
0.2687	17194.22	3.9270	3.9269	0.8778	26.14	0.52	0.750			
0.2712	17357.77	3.9240	3.9240	0.8662	26.14	0.52	0.750			
0.2738	17526.06	3.9210	3.9210	0.8541	26.14	0.52	0.750			
0.2764	17689.84	3.9180	3.9181	0.8613	26.14	0.52	0.750			
0.2790	17854.15	3.9150	3.9150	0.8653	26.13	0.51	0.750			
0.2815	18018.18	3.9120	3.9122	0.8639	26.13	0.51	0.750			
0.2841	18184.13	3.9090	3.9091	0.8654	26.13	0.51	0.750			
0.2867	18350.93	3.9060	3.9062	0.8746	26.12	0.50	0.750			
0.2894	18518.49	3.9030	3.9031	0.8705	26.11	0.49	0.750			
0.2920	18686.29	3.9000	3.9000	0.8730	26.11	0.49	0.750			
0.2946	18852.56	3.8970	3.8969	0.8690	26.10	0.48	0.750			
0.2972	19020.36	3.8940	3.8942	0.8724	26.10	0.48	0.750			
0.2998	19189.54	3.8910	3.8911	0.8713	26.09	0.47	0.750			
0.3025	19357.00	3.8880	3.8881	0.8758	26.08	0.46	0.750			
0.3051	19527.88	3.8850	3.8850	0.8826	26.08	0.46	0.750			
0.3077	19691.53	3.8820	3.8819	0.8746	26.07	0.45	0.750			
0.3103	19859.71	3.8790	3.8790	0.8806	26.06	0.44	0.750			
0.3130	20029.90	3.8760	3.8760	0.8723	26.05	0.43	0.750			
0.3156	20198.04	3.8730	3.8731	0.8769	26.05	0.43	0.750			
0.3182	20363.73	3.8700	3.8702	0.8825	26.04	0.42	0.750			
0.3208	20532.99	3.8670	3.8666	0.8884	26.03	0.41	0.750			
0.3235	20704.53	3.8640	3.8641	0.8936	26.03	0.41	0.750			
0.3262	20876.11	3.8610	3.8612	0.8878	26.02	0.40	0.750			
0.3289	21047.48	3.8580	3.8581	0.9016	26.02	0.40	0.750			
0.3316	21224.68	3.8550	3.8551	0.9113	26.01	0.39	0.750			
0.3343	21392.03	3.8520	3.8521	0.8947	26.01	0.39	0.750			
0.3369	21562.47	3.8490	3.8492	0.9071	26.00	0.38	0.750			
0.3397	21738.60	3.8460	3.8462	0.9186	25.99	0.37	0.750			
0.3425	21917.32	3.8430	3.8431	0.9297	25.99	0.37	0.750	0.325	0.474	
0.3452	22095.18	3.8400	3.8399	0.9304	25.98	0.36	0.750			
0.3481	22280.46	3.8370	3.8370	0.9205	25.97	0.35	0.750			
0.3509	22460.08	3.8340	3.8340	0.9357	25.96	0.34	0.750			
0.3536	22632.72	3.8310	3.8311	0.9365	25.95	0.33	0.750			
0.3564	22812.47	3.8280	3.8282	0.9520	25.94	0.32	0.750			
0.3594	22999.13	3.8250	3.8250	0.9514	25.94	0.32	0.750			
0.3622	23181.53	3.8220	3.8221	0.9624	25.93	0.31	0.750			
0.3651	23368.69	3.8190	3.8192	0.9786	25.92	0.30	0.750			
0.3681	23558.43	3.8160	3.8161	0.9917	25.92	0.30	0.750			
0.3711	23748.87	3.8130	3.8131	0.9882	25.91	0.29	0.750			
0.3740	23938.17	3.8100	3.8100	1.0040	25.90	0.28	0.750			
0.3771	24132.71	3.8070	3.8071	1.0223	25.89	0.27	0.750			
0.3802	24333.39	3.8040	3.8041	1.0388	25.88	0.26	0.750			
0.3833	24533.77	3.8010	3.8009	1.0447	25.87	0.25	0.750			
0.3865	24735.99	3.7980	3.7981	1.0385	25.86	0.24	0.750			
0.3896	24931.80	3.7950	3.7951	1.0582	25.85	0.23	0.750			
0.3927	25135.44	3.7920	3.7921	1.0792	25.84	0.22	0.750			
0.3960	25346.65	3.7890	3.7885	1.0819	25.83	0.21	0.750			
0.3993	25554.45	3.7860	3.7862	1.1085	25.82	0.20	0.750			
0.4027	25770.01	3.7830	3.7832	1.1318	25.81	0.19	0.750			
0.4061	25992.39	3.7800	3.7801	1.1570	25.80	0.18	0.750			
0.4096	26213.11	3.7770	3.7771	1.1604	25.79	0.17	0.750			
0.4131	26437.05	3.7740	3.7741	1.1868	25.78	0.16	0.750			
0.4167	26668.10	3.7710	3.7711	1.2127	25.77	0.15	0.750			
0.4204	26908.41	3.7680	3.7678	1.2156	25.76	0.14	0.750			
0.4241	27140.26	3.7650	3.7651	1.2412	25.75	0.13	0.750			
0.4278	27379.08	3.7620	3.7621	1.2784	25.74	0.12	0.750			
0.4317	27629.87	3.7590	3.7590	1.2921	25.72	0.10	0.750			
0.4356	27877.35	3.7560	3.7561	1.3306	25.71	0.09	0.750			
0.4396	28134.11	3.7530	3.7532	1.3672	25.70	0.08	0.750			
0.4438	28403.05	3.7500	3.7501	1.4011	25.69	0.07	0.750			
0.4481	28679.60	3.7470	3.7470	1.4403	25.68	0.06	0.750			
0.4524	28951.46	3.7440	3.7441	1.4547	25.67	0.05	0.750			
0.4569	29240.39	3.7410	3.7409	1.4620	25.65	0.03	0.750			
0.4613	29524.49	3.7380	3.7381	1.4907	25.64	0.02	0.750			
0.4658	29811.28	3.7350	3.7348	1.5345	25.62	0.00	0.750			
0.4704	30107.33	3.7320	3.7316	1.5742	25.61	-0.01	0.750			
0.4752	30410.80	3.7290	3.7294	1.6440	25.59	-0.03	0.750			
0.4802	30732.80	3.7260	3.7263	1.6852	25.58	-0.04	0.750			
0.4854	31062.61	3.7230	3.7230	1.7636	25.57	-0.05	0.750			
0.4908	31409.41	3.7200	3.7200	1.8131	25.56	-0.06	0.750			
0.4962	31758.84	3.7170	3.7169	1.8369	25.55	-0.07	0.750			
0.5018	32116.50	3.7140	3.7138	1.8945	25.53	-0.09	0.750			
0.5075	32480.18	3.7110	3.7108	1.9871	25.52	-0.10	0.750			
0.5135	32866.89	3.7080	3.7081	2.0385	25.50	-0.12	0.750			
0.5199	33274.62	3.7050	3.7048	2.1058	25.48	-0.14	0.750			
0.5263	33680.51	3.7020	3.7019	2.1696	25.48	-0.14	0.750			
0.5328	34101.83	3.6990	3.6991	2.1623	25.47	-0.15	0.750			
0.5395	34529.96	3.6960	3.6959	2.2412	25.46	-0.16	0.750			
0.5463	34962.03	3.6930	3.6931	2.2704	25.45	-0.17	0.750			
0.5531	35395.37	3.6900	3.6903	2.3112	25.44	-0.18	0.750			
0.5599	35835.93	3.6870	3.6870	2.3088	25.44	-0.18	0.750			
0.5671	36295.49	3.6840	3.6837	2.3182	25.43	-0.19	0.750			
0.5741	36744.38	3.6810	3.6808	2.3362	25.43	-0.19	0.750			
0.5812	37195.22	3.6780	3.6781	2.2162	25.43	-0.19	0.750			
0.5877	37609.98	3.6750	3.6754	2.1460	25.43	-0.19	0.750			
0.5941	38023.50	3.6720	3.6721	2.0596	25.44	-0.18	0.750			
0.6002	38410.23	3.6690	3.6695	1.9578	25.44	-0.18	0.750			
0.6059	38778.41	3.6660	3.6663	1.8499	25.45	-0.17	0.750			
0.6112	39115.20	3.6630	3.6632	1.7101	25.46	-0.16	0.750			
0.6162	39439.85	3.6600	3.6602	1.6046	25.46	-0.16	0.750			
0.6207	39725.86	3.6570	3.6571	1.4553	25.47	-0.15	0.750			
0.6249	39996.23	3.6540	3.6542	1.3836	25.48	-0.14	0.750			
0.6290	40254.44	3.6510	3.6511	1.3125	25.48	-0.14	0.750			
0.6327	40493.96	3.6480	3.6475	1.2363	25.49	-0.13	0.750			
0.6363	40721.42	3.6450	3.6451	1.1669	25.50	-0.12	0.750			
0.6397	40940.05	3.6420	3.6421	1.1162	25.50	-0.12	0.750			
0.6430	41153.39	3.6390	3.6390	1.0741	25.51	-0.11	0.750			
0.6461	41350.99	3.6360	3.6360	1.0161	25.51	-0.11	0.750			
0.6491	41541.38	3.6330	3.6331	0.9760	25.52	-0.10	0.750			
0.6519	41720.14	3.6300	3.6300	0.9304	25.53	-0.09	0.750			
0.6546	41893.95	3.6270	3.6271	0.9007	25.54	-0.08	0.750			
0.6572	42062.10	3.6240	3.6240	0.8670	25.55	-0.07	0.750			
0.6598	42226.33	3.6210	3.6212	0.8423	25.56	-0.06	0.750			
0.6624	42391.30	3.6180	3.6181	0.8035	25.56	-0.06	0.750			
0.6647	42542.57	3.6150	3.6151	0.7698	25.57	-0.05	0.750			
0.6671	42693.02	3.6120	3.6120	0.7392	25.58	-0.04	0.750			
0.6691	42823.03	3.6090	3.6091	0.6740	25.59	-0.03	0.750			
0.6711	42947.96	3.6060	3.6058	0.6297	25.59	-0.03	0.750			
0.6729	43066.34	3.6030	3.6031	0.5792	25.60	-0.02	0.750			
0.6746	43172.99	3.6000	3.6000	0.5322	25.60	-0.02	0.750			
0.6761	43271.08	3.5970	3.5970	0.4882	25.60	-0.02	0.750			
0.6775	43358.06	3.5940	3.5942	0.4347	25.61	-0.01	0.750			
0.6787	43437.57	3.5910	3.5912	0.3903	25.61	-0.01	0.750			
0.6798	43509.56	3.5880	3.5881	0.3434	25.61	-0.01	0.750			
0.6808	43571.11	3.5850	3.5850	0.2958	25.61	-0.01	0.750			
0.6816	43624.67	3.5820	3.5821	0.2488	25.62	-0.00	0.750			
0.6823	43668.56	3.5790	3.5790	0.1945	25.62	-0.00	0.750			
0.6828	43700.79	3.5760	3.5761	0.1421	25.62	-0.00	0.750			
0.6832	43723.13	3.5730	3.5734	0.0828	25.62	0.00	0.750			
