Ah_balance (normalized)	Ah_balance (mAh)	Voltage - fit (V)	Voltage -  interpolate (V)	dQ/dV (1/V)	Temperature (°C)	Temperature - diff (°C)	Current (C)	R_DC 0ms (mOhm)	R_DC 50ms (mOhm)	R_DC 50 ms PEC (mOhm)
0.0466	2982.68	4.1990	4.1990	0.7305	25.65	0.43	0.750			
0.0488	3120.85	4.1960	4.1961	0.7245	25.65	0.43	0.750			
0.0510	3262.50	4.1930	4.1931	0.7414	25.65	0.43	0.750			
0.0532	3406.52	4.1900	4.1900	0.7538	25.65	0.43	0.750			
0.0555	3552.27	4.1870	4.1871	0.7616	25.65	0.43	0.750			
0.0578	3700.87	4.1840	4.1841	0.7640	25.65	0.43	0.750			
0.0602	3851.06	4.1810	4.1810	0.7670	25.65	0.43	0.750			
0.0625	3997.52	4.1780	4.1781	0.7609	25.65	0.43	0.750			
0.0647	4143.06	4.1750	4.1748	0.7636	25.65	0.43	0.750			
0.0670	4289.14	4.1720	4.1720	0.7649	25.65	0.43	0.750			
0.0693	4436.98	4.1690	4.1689	0.7617	25.66	0.44	0.750			
0.0716	4583.81	4.1660	4.1661	0.7674	25.66	0.44	0.750			
0.0739	4731.24	4.1630	4.1630	0.7720	25.66	0.44	0.750			
0.0762	4878.46	4.1600	4.1601	0.7722	25.67	0.45	0.750			
0.0785	5026.92	4.1570	4.1570	0.7727	25.67	0.45	0.750			
0.0809	5174.79	4.1540	4.1540	0.7776	25.66	0.44	0.750			
0.0832	5325.71	4.1510	4.1510	0.7726	25.66	0.44	0.750			
0.0855	5473.63	4.1480	4.1480	0.7759	25.66	0.44	0.750			
0.0878	5621.83	4.1450	4.1451	0.7761	25.65	0.43	0.750			
0.0902	5771.09	4.1420	4.1415	0.7768	25.65	0.43	0.750			
0.0925	5919.98	4.1390	4.1391	0.7787	25.65	0.43	0.750			
0.0948	6070.38	4.1360	4.1361	0.7801	25.65	0.43	0.750			
0.0972	6220.75	4.1330	4.1330	0.7833	25.66	0.44	0.750			
0.0995	6370.67	4.1300	4.1300	0.7786	25.66	0.44	0.750			
0.1019	6520.16	4.1270	4.1270	0.7836	25.66	0.44	0.750			
0.1043	6672.07	4.1240	4.1240	0.7866	25.66	0.44	0.750			
0.1066	6824.89	4.1210	4.1210	0.7854	25.66	0.44	0.750			
0.1090	6974.85	4.1180	4.1180	0.7857	25.67	0.45	0.750			
0.1113	7125.43	4.1150	4.1150	0.7885	25.67	0.45	0.750			
0.1137	7276.13	4.1120	4.1120	0.7895	25.67	0.45	0.750			
0.1160	7427.16	4.1090	4.1090	0.7914	25.67	0.45	0.750			
0.1184	7578.80	4.1060	4.1060	0.7956	25.67	0.45	0.750			
0.1209	7735.15	4.1030	4.1030	0.7852	25.67	0.45	0.750			
0.1232	7882.78	4.1000	4.1000	0.7920	25.67	0.45	0.750			
0.1255	8032.57	4.0970	4.0972	0.7937	25.67	0.45	0.750			
0.1279	8185.36	4.0940	4.0933	0.8023	25.67	0.45	0.750			
0.1303	8338.84	4.0910	4.0911	0.8109	25.67	0.45	0.750			
0.1328	8497.26	4.0880	4.0881	0.8114	25.67	0.45	0.750			
0.1353	8656.59	4.0850	4.0851	0.8189	25.67	0.45	0.750			
0.1377	8813.36	4.0820	4.0821	0.8108	25.67	0.45	0.750			
0.1401	8968.44	4.0790	4.0787	0.8104	25.67	0.45	0.750			
0.1426	9123.31	4.0760	4.0760	0.8127	25.67	0.45	0.750			
0.1450	9279.74	4.0730	4.0730	0.8093	25.67	0.45	0.750			
0.1474	9435.21	4.0700	4.0701	0.8127	25.68	0.46	0.750			
0.1499	9590.54	4.0670	4.0670	0.8169	25.68	0.46	0.750			
0.1523	9748.08	4.0640	4.0638	0.8222	25.68	0.46	0.750			
0.1548	9906.31	4.0610	4.0610	0.8271	25.68	0.46	0.750			
0.1573	10068.39	4.0580	4.0580	0.8192	25.68	0.46	0.750			
0.1598	10225.91	4.0550	4.0550	0.8315	25.69	0.47	0.750			
0.1623	10385.59	4.0520	4.0521	0.8406	25.69	0.47	0.750			
0.1648	10545.23	4.0490	4.0487	0.8397	25.69	0.47	0.750			
0.1673	10706.87	4.0460	4.0461	0.8444	25.69	0.47	0.750			
0.1699	10870.49	4.0430	4.0431	0.8495	25.69	0.47	0.750			
0.1724	11035.14	4.0400	4.0401	0.8497	25.69	0.47	0.750			
0.1750	11199.71	4.0370	4.0369	0.8442	25.69	0.47	0.750			
0.1775	11361.18	4.0340	4.0340	0.8464	25.69	0.47	0.750			
0.1800	11522.42	4.0310	4.0310	0.8465	25.69	0.47	0.750			
0.1826	11686.44	4.0280	4.0280	0.8486	25.70	0.48	0.750			
0.1851	11849.17	4.0250	4.0249	0.8513	25.70	0.48	0.750			
0.1877	12011.68	4.0220	4.0221	0.8575	25.71	0.49	0.750			
0.1903	12177.73	4.0190	4.0188	0.8637	25.71	0.49	0.750			
0.1929	12345.43	4.0160	4.0159	0.8648	25.71	0.49	0.750			
0.1955	12512.07	4.0130	4.0131	0.8657	25.71	0.49	0.750			
0.1981	12678.48	4.0100	4.0101	0.8697	25.71	0.49	0.750			
0.2007	12844.31	4.0070	4.0071	0.8694	25.71	0.49	0.750			
0.2033	13011.84	4.0040	4.0040	0.8698	25.71	0.49	0.750			
0.2059	13179.03	4.0010	4.0010	0.8693	25.71	0.49	0.750			
0.2085	13346.93	3.9980	3.9981	0.8748	25.71	0.49	0.750			
0.2112	13515.11	3.9950	3.9951	0.8816	25.72	0.50	0.750			
0.2138	13685.07	3.9920	3.9919	0.8849	25.72	0.50	0.750			
0.2165	13855.17	3.9890	3.9890	0.8878	25.72	0.50	0.750			
0.2192	14029.01	3.9860	3.9861	0.8785	25.72	0.50	0.750			
0.2218	14195.81	3.9830	3.9830	0.8883	25.73	0.51	0.750			
0.2245	14366.40	3.9800	3.9801	0.8901	25.73	0.51	0.750			
0.2271	14535.85	3.9770	3.9768	0.8901	25.73	0.51	0.750			
0.2298	14706.09	3.9740	3.9741	0.8963	25.73	0.51	0.750			
0.2325	14879.60	3.9710	3.9711	0.8945	25.74	0.52	0.750			
0.2352	15051.77	3.9680	3.9681	0.9010	25.74	0.52	0.750			
0.2379	15225.29	3.9650	3.9651	0.9022	25.75	0.53	0.750			
0.2406	15399.48	3.9620	3.9621	0.9062	25.75	0.53	0.750			
0.2434	15575.02	3.9590	3.9591	0.9073	25.75	0.53	0.750			
0.2461	15749.30	3.9560	3.9560	0.9109	25.75	0.53	0.750			
0.2488	15925.19	3.9530	3.9530	0.9148	25.75	0.53	0.750			
0.2516	16100.28	3.9500	3.9500	0.9140	25.75	0.53	0.750			
0.2543	16275.64	3.9470	3.9470	0.9159	25.75	0.53	0.750			
0.2571	16451.81	3.9440	3.9440	0.9139	25.76	0.54	0.750			
0.2598	16627.60	3.9410	3.9411	0.9192	25.76	0.54	0.750			
0.2626	16804.77	3.9380	3.9380	0.9229	25.77	0.55	0.750			
0.2653	16980.77	3.9350	3.9351	0.9215	25.77	0.55	0.750			
0.2681	17160.70	3.9320	3.9320	0.9130	25.77	0.55	0.750			
0.2709	17334.72	3.9290	3.9291	0.9184	25.77	0.55	0.750			
0.2736	17510.67	3.9260	3.9261	0.9272	25.77	0.55	0.750			
0.2764	17687.31	3.9230	3.9231	0.9267	25.77	0.55	0.750			
0.2792	17867.94	3.9200	3.9201	0.9279	25.77	0.55	0.750			
0.2820	18046.77	3.9170	3.9171	0.9315	25.77	0.55	0.750			
0.2848	18226.43	3.9140	3.9140	0.9345	25.77	0.55	0.750			
0.2876	18407.84	3.9110	3.9110	0.9426	25.77	0.55	0.750			
0.2904	18585.01	3.9080	3.9079	0.9331	25.77	0.55	0.750			
0.2932	18765.21	3.9050	3.9049	0.9254	25.77	0.55	0.750			
0.2960	18943.26	3.9020	3.9021	0.9346	25.77	0.55	0.750			
0.2988	19123.20	3.8990	3.8990	0.9403	25.77	0.55	0.750			
0.3016	19302.85	3.8960	3.8960	0.9428	25.77	0.55	0.750			
0.3045	19487.55	3.8930	3.8931	0.9341	25.77	0.55	0.750			
0.3073	19664.07	3.8900	3.8901	0.9389	25.77	0.55	0.750			
0.3101	19844.81	3.8870	3.8871	0.9504	25.77	0.55	0.750			
0.3129	20028.40	3.8840	3.8841	0.9559	25.77	0.55	0.750			
0.3158	20209.46	3.8810	3.8808	0.9544	25.77	0.55	0.750			
0.3187	20394.43	3.8780	3.8782	0.9574	25.76	0.54	0.750			
0.3216	20580.41	3.8750	3.8749	0.9609	25.76	0.54	0.750			
0.3245	20767.03	3.8720	3.8720	0.9646	25.76	0.54	0.750			
0.3273	20950.37	3.8690	3.8690	0.9533	25.75	0.53	0.750			
0.3302	21133.09	3.8660	3.8659	0.9490	25.75	0.53	0.750			
0.3330	21314.99	3.8630	3.8631	0.9606	25.74	0.52	0.750			
0.3359	21498.76	3.8600	3.8600	0.9609	25.74	0.52	0.750			
0.3388	21683.92	3.8570	3.8569	0.9673	25.73	0.51	0.750			
0.3417	21870.06	3.8540	3.8542	0.9707	25.73	0.51	0.750			
0.3447	22059.04	3.8510	3.8510	0.9549	25.72	0.50	0.750			
0.3475	22238.15	3.8480	3.8481	0.9656	25.71	0.49	0.750			
0.3503	22421.50	3.8450	3.8452	0.9683	25.71	0.49	0.750			
0.3532	22605.39	3.8420	3.8414	0.9696	25.70	0.48	0.750			
0.3562	22793.73	3.8390	3.8392	0.9801	25.69	0.47	0.750			
0.3591	22982.38	3.8360	3.8362	0.9910	25.68	0.46	0.750			
0.3621	23177.14	3.8330	3.8330	1.0046	25.68	0.46	0.750	0.310	0.417	
0.3651	23369.39	3.8300	3.8296	0.9954	25.67	0.45	0.750			
0.3682	23561.85	3.8270	3.8270	0.9974	25.66	0.44	0.750			
0.3712	23755.11	3.8240	3.8241	1.0104	25.65	0.43	0.750			
0.3742	23948.99	3.8210	3.8210	1.0109	25.64	0.42	0.750			
0.3772	24142.88	3.8180	3.8178	1.0128	25.63	0.41	0.750			
0.3803	24339.35	3.8150	3.8152	1.0184	25.62	0.40	0.750			
0.3834	24535.09	3.8120	3.8120	1.0279	25.61	0.39	0.750			
0.3865	24733.68	3.8090	3.8091	1.0390	25.60	0.38	0.750			
0.3896	24932.63	3.8060	3.8056	1.0418	25.59	0.37	0.750			
0.3927	25132.68	3.8030	3.8031	1.0472	25.58	0.36	0.750			
0.3959	25336.32	3.8000	3.8000	1.0595	25.58	0.36	0.750			
0.3991	25539.72	3.7970	3.7971	1.0735	25.57	0.35	0.750			
0.4023	25748.39	3.7940	3.7938	1.0885	25.56	0.34	0.750			
0.4055	25955.15	3.7910	3.7910	1.0898	25.55	0.33	0.750			
0.4088	26164.31	3.7880	3.7881	1.1107	25.55	0.33	0.750			
0.4122	26378.76	3.7850	3.7851	1.1323	25.54	0.32	0.750			
0.4156	26599.93	3.7820	3.7817	1.1458	25.53	0.31	0.750			
0.4190	26818.72	3.7790	3.7791	1.1696	25.51	0.29	0.750			
0.4226	27045.66	3.7760	3.7761	1.1892	25.50	0.28	0.750			
0.4263	27280.09	3.7730	3.7729	1.2112	25.49	0.27	0.750			
0.4299	27511.40	3.7700	3.7701	1.2282	25.47	0.25	0.750			
0.4335	27746.81	3.7670	3.7671	1.2538	25.47	0.25	0.750			
0.4374	27994.91	3.7640	3.7640	1.2767	25.46	0.24	0.750			
0.4413	28241.24	3.7610	3.7609	1.3153	25.45	0.23	0.750			
0.4452	28493.10	3.7580	3.7581	1.3420	25.43	0.21	0.750			
0.4494	28761.63	3.7550	3.7550	1.3630	25.42	0.20	0.750			
0.4535	29021.38	3.7520	3.7518	1.4020	25.41	0.19	0.750			
0.4578	29297.90	3.7490	3.7491	1.4055	25.40	0.18	0.750			
0.4620	29565.68	3.7460	3.7461	1.4560	25.39	0.17	0.750			
0.4664	29852.07	3.7430	3.7430	1.4826	25.38	0.16	0.750			
0.4709	30134.83	3.7400	3.7398	1.5101	25.37	0.15	0.750			
0.4755	30429.62	3.7370	3.7373	1.5425	25.36	0.14	0.750			
0.4802	30730.72	3.7340	3.7331	1.5973	25.34	0.12	0.750			
0.4850	31038.01	3.7310	3.7306	1.6527	25.32	0.10	0.750			
0.4901	31365.79	3.7280	3.7277	1.7235	25.30	0.08	0.750			
0.4953	31700.96	3.7250	3.7253	1.7748	25.29	0.07	0.750			
0.5008	32049.37	3.7220	3.7222	1.8025	25.27	0.05	0.750			
0.5063	32400.36	3.7190	3.7186	1.8531	25.26	0.04	0.750			
0.5119	32763.49	3.7160	3.7158	1.8791	25.23	0.01	0.750			
0.5176	33129.01	3.7130	3.7131	1.9437	25.22	-0.00	0.750			
0.5237	33515.50	3.7100	3.7100	2.0052	25.21	-0.01	0.750			
0.5297	33901.03	3.7070	3.7068	2.0614	25.20	-0.02	0.750			
0.5359	34296.95	3.7040	3.7035	2.1619	25.19	-0.03	0.750			
0.5425	34718.98	3.7010	3.7011	2.1975	25.17	-0.05	0.750			
0.5494	35162.28	3.6980	3.6978	2.2674	25.15	-0.07	0.750			
0.5562	35594.37	3.6950	3.6954	2.3013	25.13	-0.09	0.750			
0.5631	36039.97	3.6920	3.6922	2.3675	25.12	-0.10	0.750			
0.5704	36504.51	3.6890	3.6888	2.4090	25.11	-0.11	0.750			
0.5779	36985.06	3.6860	3.6860	2.5040	25.10	-0.12	0.750			
0.5857	37486.23	3.6830	3.6829	2.6125	25.09	-0.13	0.750			
0.5934	37979.12	3.6800	3.6804	2.6363	25.08	-0.14	0.750			
0.6013	38482.15	3.6770	3.6772	2.7010	25.07	-0.15	0.750			
0.6097	39019.13	3.6740	3.6742	2.7223	25.07	-0.15	0.750			
0.6177	39533.58	3.6710	3.6710	2.7209	25.07	-0.15	0.750			
0.6262	40079.86	3.6680	3.6679	2.7572	25.06	-0.16	0.750			
0.6345	40609.56	3.6650	3.6649	2.6135	25.07	-0.15	0.750			
0.6421	41096.49	3.6620	3.6619	2.4199	25.07	-0.15	0.750			
0.6492	41550.87	3.6590	3.6593	2.2478	25.08	-0.14	0.750			
0.6554	41948.54	3.6560	3.6561	2.0095	25.08	-0.14	0.750			
0.6613	42320.11	3.6530	3.6528	1.8197	25.09	-0.13	0.750			
0.6665	42657.16	3.6500	3.6503	1.6808	25.10	-0.12	0.750			
0.6715	42973.42	3.6470	3.6470	1.5473	25.11	-0.11	0.750			
0.6758	43250.09	3.6440	3.6442	1.3955	25.12	-0.10	0.750			
0.6799	43512.99	3.6410	3.6408	1.2560	25.12	-0.10	0.750			
0.6831	43719.79	3.6380	3.6381	1.1550	25.13	-0.09	0.750			
0.6864	43928.01	3.6350	3.6351	1.0832	25.13	-0.09	0.750			
0.6894	44124.02	3.6320	3.6320	1.0313	25.14	-0.08	0.750			
0.6924	44315.01	3.6290	3.6291	0.9923	25.15	-0.07	0.750			
0.6953	44499.86	3.6260	3.6262	0.9671	25.16	-0.06	0.750			
0.6982	44685.14	3.6230	3.6230	0.9493	25.17	-0.05	0.750			
0.7011	44867.84	3.6200	3.6200	0.9163	25.17	-0.05	0.750			
0.7038	45044.18	3.6170	3.6170	0.8822	25.18	-0.04	0.750			
0.7065	45214.49	3.6140	3.6140	0.8503	25.19	-0.03	0.750			
0.7091	45379.62	3.6110	3.6110	0.7800	25.20	-0.02	0.750			
0.7113	45523.70	3.6080	3.6079	0.7257	25.21	-0.01	0.750			
0.7133	45654.39	3.6050	3.6052	0.6605	25.21	-0.01	0.750			
0.7152	45774.26	3.6020	3.6018	0.5963	25.22	0.00	0.750			
0.7169	45881.39	3.5990	3.5994	0.5349	25.23	0.01	0.750			
0.7184	45978.31	3.5960	3.5961	0.4785	25.23	0.01	0.750			
0.7198	46064.16	3.5930	3.5930	0.4248	25.23	0.01	0.750			
0.7210	46142.01	3.5900	3.5900	0.3752	25.24	0.02	0.750			
0.7220	46205.64	3.5870	3.5869	0.3138	25.24	0.02	0.750			
0.7228	46261.30	3.5840	3.5839	0.2647	25.24	0.02	0.750			
0.7236	46308.05	3.5810	3.5811	0.2147	25.25	0.03	0.750			
0.7241	46343.97	3.5780	3.5782	0.1650	25.25	0.03	0.750			
0.7245	46370.77	3.5750	3.5754	0.1036	25.25	0.03	0.750			
