Ah_balance (normalized)	Ah_balance (mAh)	Voltage - fit (V)	Voltage -  interpolate (V)	dQ/dV (1/V)	Temperature (°C)	Temperature - diff (°C)	Current (C)	R_DC 0ms (mOhm)	R_DC 50ms (mOhm)	R_DC 50 ms PEC (mOhm)
0.0485	3103.26	4.1980	4.1980	0.7229	25.77	0.53	0.750			
0.0507	3243.22	4.1950	4.1949	0.7348	25.77	0.53	0.750			
0.0529	3386.61	4.1920	4.1920	0.7427	25.77	0.53	0.750			
0.0552	3531.39	4.1890	4.1890	0.7407	25.77	0.53	0.750			
0.0574	3672.25	4.1860	4.1861	0.7457	25.77	0.53	0.750			
0.0596	3814.82	4.1830	4.1830	0.7481	25.77	0.53	0.750			
0.0619	3958.75	4.1800	4.1801	0.7466	25.77	0.53	0.750			
0.0641	4102.56	4.1770	4.1769	0.7503	25.77	0.53	0.750			
0.0663	4246.17	4.1740	4.1742	0.7532	25.77	0.53	0.750			
0.0687	4394.86	4.1710	4.1710	0.7489	25.77	0.53	0.750			
0.0709	4536.68	4.1680	4.1679	0.7522	25.77	0.53	0.750			
0.0731	4679.27	4.1650	4.1652	0.7533	25.77	0.53	0.750			
0.0754	4823.21	4.1620	4.1616	0.7575	25.77	0.53	0.750			
0.0777	4970.93	4.1590	4.1590	0.7604	25.77	0.53	0.750			
0.0800	5117.75	4.1560	4.1561	0.7602	25.77	0.53	0.750			
0.0823	5264.12	4.1530	4.1531	0.7627	25.77	0.53	0.750			
0.0846	5414.13	4.1500	4.1500	0.7687	25.77	0.53	0.750			
0.0868	5557.61	4.1470	4.1469	0.7594	25.77	0.53	0.750			
0.0891	5703.71	4.1440	4.1440	0.7589	25.77	0.53	0.750			
0.0914	5849.40	4.1410	4.1411	0.7611	25.77	0.53	0.750			
0.0937	5996.30	4.1380	4.1380	0.7601	25.77	0.53	0.750			
0.0960	6141.55	4.1350	4.1350	0.7619	25.77	0.53	0.750			
0.0982	6286.07	4.1320	4.1320	0.7625	25.77	0.53	0.750			
0.1005	6433.30	4.1290	4.1288	0.7637	25.77	0.53	0.750			
0.1028	6580.54	4.1260	4.1260	0.7658	25.77	0.53	0.750			
0.1052	6732.51	4.1230	4.1230	0.7507	25.77	0.53	0.750			
0.1074	6873.92	4.1200	4.1200	0.7569	25.78	0.54	0.750			
0.1096	7016.26	4.1170	4.1172	0.7558	25.78	0.54	0.750			
0.1119	7160.35	4.1140	4.1141	0.7650	25.78	0.54	0.750			
0.1142	7306.09	4.1110	4.1108	0.7704	25.78	0.54	0.750			
0.1165	7456.59	4.1080	4.1082	0.7835	25.78	0.54	0.750			
0.1189	7610.34	4.1050	4.1050	0.7944	25.78	0.54	0.750			
0.1214	7766.71	4.1020	4.1020	0.7985	25.79	0.55	0.750			
0.1237	7918.66	4.0990	4.0991	0.7866	25.79	0.55	0.750			
0.1261	8070.45	4.0960	4.0961	0.7900	25.79	0.55	0.750			
0.1285	8221.79	4.0930	4.0930	0.7908	25.79	0.55	0.750			
0.1308	8372.19	4.0900	4.0900	0.7886	25.79	0.55	0.750			
0.1332	8522.22	4.0870	4.0870	0.7897	25.79	0.55	0.750			
0.1356	8675.38	4.0840	4.0840	0.7933	25.79	0.55	0.750			
0.1379	8827.43	4.0810	4.0806	0.7988	25.79	0.55	0.750			
0.1403	8981.66	4.0780	4.0782	0.8035	25.79	0.55	0.750			
0.1428	9140.79	4.0750	4.0749	0.7877	25.79	0.55	0.750			
0.1452	9291.64	4.0720	4.0719	0.7966	25.79	0.55	0.750			
0.1475	9441.68	4.0690	4.0692	0.8063	25.79	0.55	0.750			
0.1499	9593.24	4.0660	4.0662	0.8106	25.79	0.55	0.750			
0.1524	9750.80	4.0630	4.0632	0.8160	25.79	0.55	0.750			
0.1548	9906.87	4.0600	4.0600	0.8212	25.79	0.55	0.750			
0.1573	10068.58	4.0570	4.0572	0.8238	25.80	0.56	0.750			
0.1598	10229.29	4.0540	4.0540	0.8167	25.80	0.56	0.750			
0.1623	10386.21	4.0510	4.0510	0.8185	25.80	0.56	0.750			
0.1647	10542.46	4.0480	4.0480	0.8208	25.80	0.56	0.750			
0.1672	10699.61	4.0450	4.0449	0.8199	25.80	0.56	0.750			
0.1697	10857.82	4.0420	4.0421	0.8244	25.81	0.57	0.750			
0.1721	11015.55	4.0390	4.0390	0.8300	25.81	0.57	0.750			
0.1746	11177.59	4.0360	4.0360	0.8313	25.81	0.57	0.750			
0.1771	11336.87	4.0330	4.0330	0.8295	25.81	0.57	0.750			
0.1796	11495.92	4.0300	4.0300	0.8296	25.81	0.57	0.750			
0.1821	11655.03	4.0270	4.0270	0.8148	25.81	0.57	0.750			
0.1845	11806.64	4.0240	4.0241	0.8244	25.81	0.57	0.750			
0.1869	11962.77	4.0210	4.0212	0.8325	25.81	0.57	0.750			
0.1894	12122.98	4.0180	4.0182	0.8348	25.81	0.57	0.750			
0.1920	12286.47	4.0150	4.0152	0.8451	25.81	0.57	0.750			
0.1946	12451.70	4.0120	4.0122	0.8546	25.81	0.57	0.750			
0.1972	12618.35	4.0090	4.0091	0.8579	25.81	0.57	0.750			
0.1997	12780.87	4.0060	4.0059	0.8486	25.81	0.57	0.750			
0.2023	12944.22	4.0030	4.0030	0.8539	25.81	0.57	0.750			
0.2048	13110.07	4.0000	4.0000	0.8498	25.82	0.58	0.750			
0.2074	13273.45	3.9970	3.9970	0.8609	25.82	0.58	0.750			
0.2100	13439.38	3.9940	3.9941	0.8648	25.82	0.58	0.750			
0.2126	13604.47	3.9910	3.9908	0.8671	25.83	0.59	0.750			
0.2152	13771.85	3.9880	3.9881	0.8706	25.83	0.59	0.750			
0.2178	13939.86	3.9850	3.9850	0.8648	25.83	0.59	0.750			
0.2204	14104.88	3.9820	3.9821	0.8690	25.83	0.59	0.750			
0.2230	14273.87	3.9790	3.9790	0.8700	25.83	0.59	0.750			
0.2256	14438.09	3.9760	3.9751	0.8624	25.83	0.59	0.750			
0.2282	14604.24	3.9730	3.9731	0.8659	25.83	0.59	0.750			
0.2308	14769.81	3.9700	3.9701	0.8685	25.83	0.59	0.750			
0.2334	14938.06	3.9670	3.9670	0.8706	25.82	0.58	0.750			
0.2360	15107.08	3.9640	3.9640	0.8778	25.82	0.58	0.750			
0.2386	15271.98	3.9610	3.9610	0.8712	25.82	0.58	0.750			
0.2413	15444.17	3.9580	3.9580	0.8647	25.82	0.58	0.750			
0.2439	15608.93	3.9550	3.9551	0.8662	25.82	0.58	0.750			
0.2464	15772.67	3.9520	3.9521	0.8649	25.83	0.59	0.750			
0.2490	15937.28	3.9490	3.9491	0.8714	25.83	0.59	0.750			
0.2516	16104.16	3.9460	3.9459	0.8736	25.83	0.59	0.750			
0.2543	16274.49	3.9430	3.9430	0.8655	25.83	0.59	0.750			
0.2569	16441.49	3.9400	3.9401	0.8767	25.83	0.59	0.750			
0.2595	16610.92	3.9370	3.9371	0.8806	25.83	0.59	0.750			
0.2622	16778.75	3.9340	3.9341	0.8763	25.83	0.59	0.750			
0.2648	16946.76	3.9310	3.9311	0.8733	25.83	0.59	0.750			
0.2674	17114.53	3.9280	3.9281	0.8737	25.83	0.59	0.750			
0.2701	17283.41	3.9250	3.9251	0.8803	25.82	0.58	0.750			
0.2727	17455.60	3.9220	3.9219	0.8833	25.82	0.58	0.750			
0.2753	17619.76	3.9190	3.9189	0.8714	25.82	0.58	0.750			
0.2779	17786.89	3.9160	3.9160	0.8759	25.82	0.58	0.750			
0.2806	17957.14	3.9130	3.9131	0.8649	25.81	0.57	0.750			
0.2832	18122.11	3.9100	3.9100	0.8721	25.81	0.57	0.750			
0.2857	18287.53	3.9070	3.9072	0.8701	25.80	0.56	0.750			
0.2884	18455.21	3.9040	3.9035	0.8711	25.80	0.56	0.750			
0.2910	18623.25	3.9010	3.9011	0.8740	25.80	0.56	0.750			
0.2936	18790.95	3.8980	3.8981	0.8667	25.79	0.55	0.750			
0.2962	18956.33	3.8950	3.8951	0.8749	25.79	0.55	0.750			
0.2988	19122.97	3.8920	3.8920	0.8772	25.78	0.54	0.750			
0.3014	19291.97	3.8890	3.8891	0.8772	25.78	0.54	0.750			
0.3041	19462.01	3.8860	3.8861	0.8824	25.77	0.53	0.750			
0.3068	19632.74	3.8830	3.8831	0.8883	25.77	0.53	0.750			
0.3095	19810.21	3.8800	3.8799	0.8796	25.76	0.52	0.750			
0.3121	19974.20	3.8770	3.8769	0.8757	25.75	0.51	0.750			
0.3147	20140.56	3.8740	3.8741	0.8757	25.75	0.51	0.750			
0.3173	20307.64	3.8710	3.8712	0.8715	25.74	0.50	0.750			
0.3199	20474.74	3.8680	3.8683	0.8791	25.74	0.50	0.750			
0.3225	20641.75	3.8650	3.8652	0.8839	25.74	0.50	0.750			
0.3252	20811.79	3.8620	3.8619	0.8917	25.73	0.49	0.750			
0.3280	20989.59	3.8590	3.8590	0.8851	25.72	0.48	0.750			
0.3306	21159.05	3.8560	3.8561	0.8841	25.71	0.47	0.750			
0.3333	21328.44	3.8530	3.8532	0.9006	25.71	0.47	0.750			
0.3359	21497.02	3.8500	3.8502	0.8933	25.70	0.46	0.750			
0.3385	21667.17	3.8470	3.8459	0.9106	25.69	0.45	0.750			
0.3413	21842.45	3.8440	3.8442	0.9186	25.68	0.44	0.750	0.304	0.427	
0.3441	22022.47	3.8410	3.8414	0.9386	25.68	0.44	0.750			
0.3470	22206.91	3.8380	3.8381	0.9505	25.67	0.43	0.750			
0.3499	22392.75	3.8350	3.8351	0.9533	25.66	0.42	0.750			
0.3528	22581.23	3.8320	3.8319	0.9544	25.65	0.41	0.750			
0.3556	22757.38	3.8290	3.8291	0.9469	25.64	0.40	0.750			
0.3584	22939.72	3.8260	3.8260	0.9526	25.64	0.40	0.750			
0.3613	23124.64	3.8230	3.8229	0.9595	25.63	0.39	0.750			
0.3642	23307.76	3.8200	3.8201	0.9677	25.62	0.38	0.750			
0.3671	23493.97	3.8170	3.8172	0.9684	25.60	0.36	0.750			
0.3700	23679.26	3.8140	3.8140	0.9855	25.59	0.35	0.750			
0.3730	23869.53	3.8110	3.8111	1.0011	25.58	0.34	0.750			
0.3760	24061.72	3.8080	3.8081	1.0060	25.57	0.33	0.750			
0.3790	24257.69	3.8050	3.8051	1.0261	25.56	0.32	0.750			
0.3821	24455.91	3.8020	3.8021	1.0429	25.55	0.31	0.750			
0.3853	24658.05	3.7990	3.7990	1.0558	25.54	0.30	0.750			
0.3885	24863.35	3.7960	3.7959	1.0542	25.53	0.29	0.750			
0.3917	25066.56	3.7930	3.7930	1.0683	25.52	0.28	0.750			
0.3949	25272.01	3.7900	3.7902	1.0872	25.50	0.26	0.750			
0.3982	25482.88	3.7870	3.7870	1.1037	25.49	0.25	0.750			
0.4015	25693.89	3.7840	3.7840	1.1215	25.48	0.24	0.750			
0.4049	25912.64	3.7810	3.7811	1.1212	25.47	0.23	0.750			
0.4082	26126.00	3.7780	3.7781	1.1495	25.46	0.22	0.750			
0.4118	26355.07	3.7750	3.7752	1.1491	25.45	0.21	0.750			
0.4152	26570.39	3.7720	3.7723	1.1759	25.44	0.20	0.750			
0.4186	26793.33	3.7690	3.7694	1.2219	25.43	0.19	0.750			
0.4224	27030.43	3.7660	3.7660	1.2653	25.42	0.18	0.750			
0.4263	27281.62	3.7630	3.7631	1.3033	25.41	0.17	0.750			
0.4302	27532.06	3.7600	3.7602	1.3238	25.40	0.16	0.750			
0.4342	27791.81	3.7570	3.7572	1.3563	25.38	0.14	0.750			
0.4386	28068.30	3.7540	3.7535	1.3856	25.37	0.13	0.750			
0.4425	28318.19	3.7510	3.7512	1.3808	25.36	0.12	0.750			
0.4466	28583.71	3.7480	3.7481	1.4186	25.34	0.10	0.750			
0.4511	28868.00	3.7450	3.7448	1.4350	25.33	0.09	0.750			
0.4553	29139.60	3.7420	3.7422	1.4688	25.32	0.08	0.750			
0.4598	29429.86	3.7390	3.7392	1.5000	25.31	0.07	0.750			
0.4644	29723.47	3.7360	3.7362	1.5412	25.30	0.06	0.750			
0.4691	30023.45	3.7330	3.7329	1.5817	25.29	0.05	0.750			
0.4738	30326.39	3.7300	3.7301	1.5539	25.27	0.03	0.750			
0.4785	30624.33	3.7270	3.7265	1.6208	25.26	0.02	0.750			
0.4835	30943.76	3.7240	3.7237	1.6718	25.25	0.01	0.750			
0.4883	31251.80	3.7210	3.7205	1.7459	25.24	-0.00	0.750			
0.4936	31588.67	3.7180	3.7174	1.7819	25.23	-0.01	0.750			
0.4991	31940.91	3.7150	3.7149	1.8961	25.21	-0.03	0.750			
0.5048	32306.48	3.7120	3.7120	1.9419	25.20	-0.04	0.750			
0.5108	32689.34	3.7090	3.7096	2.0448	25.19	-0.05	0.750			
0.5169	33083.56	3.7060	3.7052	2.0213	25.18	-0.06	0.750			
0.5231	33478.56	3.7030	3.7031	2.1200	25.17	-0.07	0.750			
0.5296	33895.38	3.7000	3.6995	2.1272	25.16	-0.08	0.750			
0.5361	34311.61	3.6970	3.6970	2.2466	25.14	-0.10	0.750			
0.5429	34747.64	3.6940	3.6945	2.3473	25.13	-0.11	0.750			
0.5495	35169.74	3.6910	3.6914	2.2963	25.12	-0.12	0.750			
0.5565	35618.64	3.6880	3.6884	2.4297	25.11	-0.13	0.750			
0.5638	36086.38	3.6850	3.6845	2.3898	25.10	-0.14	0.750			
0.5708	36528.06	3.6820	3.6827	2.5075	25.10	-0.14	0.750			
0.5784	37019.53	3.6790	3.6786	2.4219	25.10	-0.14	0.750			
0.5853	37459.13	3.6760	3.6766	2.2890	25.09	-0.15	0.750			
0.5920	37890.19	3.6730	3.6723	2.2258	25.09	-0.15	0.750			
0.5981	38281.24	3.6700	3.6701	2.1096	25.10	-0.14	0.750			
0.6041	38664.61	3.6670	3.6675	1.9461	25.10	-0.14	0.750			
0.6101	39049.42	3.6640	3.6634	1.8745	25.10	-0.14	0.750			
0.6155	39394.86	3.6610	3.6615	1.7357	25.10	-0.14	0.750			
0.6206	39718.31	3.6580	3.6583	1.5956	25.11	-0.13	0.750			
0.6255	40033.74	3.6550	3.6542	1.5022	25.12	-0.12	0.750			
0.6294	40281.31	3.6520	3.6521	1.3485	25.13	-0.11	0.750			
0.6333	40534.27	3.6490	3.6492	1.2914	25.13	-0.11	0.750			
0.6370	40765.36	3.6460	3.6463	1.2092	25.14	-0.10	0.750			
0.6405	40991.08	3.6430	3.6432	1.1407	25.15	-0.09	0.750			
0.6438	41205.35	3.6400	3.6402	1.0966	25.15	-0.09	0.750			
0.6471	41412.27	3.6370	3.6371	1.0539	25.16	-0.08	0.750			
0.6502	41612.36	3.6340	3.6339	1.0115	25.17	-0.07	0.750			
0.6531	41798.12	3.6310	3.6310	0.9548	25.18	-0.06	0.750			
0.6559	41977.69	3.6280	3.6280	0.9162	25.18	-0.06	0.750			
0.6586	42149.02	3.6250	3.6251	0.8835	25.19	-0.05	0.750			
0.6612	42314.26	3.6220	3.6221	0.8500	25.20	-0.04	0.750			
0.6637	42474.78	3.6190	3.6187	0.8203	25.20	-0.04	0.750			
0.6661	42633.49	3.6160	3.6161	0.7754	25.21	-0.03	0.750			
0.6685	42780.88	3.6130	3.6131	0.7259	25.22	-0.02	0.750			
0.6706	42918.85	3.6100	3.6100	0.6903	25.22	-0.02	0.750			
0.6726	43046.76	3.6070	3.6071	0.6275	25.23	-0.01	0.750			
0.6744	43162.49	3.6040	3.6042	0.5740	25.24	-0.00	0.750			
0.6760	43266.68	3.6010	3.6009	0.5157	25.24	0.00	0.750			
0.6775	43358.40	3.5980	3.5986	0.4729	25.25	0.01	0.750			
0.6788	43444.83	3.5950	3.5953	0.4322	25.25	0.01	0.750			
0.6801	43524.02	3.5920	3.5927	0.3981	25.25	0.01	0.750			
0.6811	43590.97	3.5890	3.5899	0.3508	25.26	0.02	0.750			
0.6822	43661.35	3.5860	3.5867	0.3075	25.26	0.02	0.750			
0.6832	43723.40	3.5830	3.5833	0.2734	25.26	0.02	0.750			
0.6839	43771.40	3.5800	3.5802	0.2132	25.27	0.03	0.750			
0.6845	43806.36	3.5770	3.5772	0.1501	25.27	0.03	0.750			
0.6849	43832.60	3.5740	3.5741	0.0764	25.27	0.03	0.750			
0.6850	43839.42	3.5710	3.5722	0.0161	25.27	0.03	0.750			
