Ah_balance (normalized)	Ah_balance (mAh)	Voltage - fit (V)	Voltage -  interpolate (V)	dQ/dV (1/V)	Temperature (°C)	Temperature - diff (°C)	Current (C)	R_DC 0ms (mOhm)	R_DC 50ms (mOhm)	R_DC 50 ms PEC (mOhm)
0.0473	3027.48	4.1980	4.1980	0.7564	25.17	0.51	0.750			
0.0496	3174.82	4.1950	4.1950	0.7717	25.17	0.51	0.750			
0.0519	3321.85	4.1920	4.1919	0.7670	25.17	0.51	0.750			
0.0542	3469.13	4.1890	4.1890	0.7660	25.17	0.51	0.750			
0.0565	3615.44	4.1860	4.1861	0.7663	25.17	0.51	0.750			
0.0588	3763.30	4.1830	4.1830	0.7661	25.17	0.51	0.750			
0.0611	3908.80	4.1800	4.1801	0.7670	25.17	0.51	0.750			
0.0634	4056.45	4.1770	4.1770	0.7630	25.17	0.51	0.750			
0.0657	4202.76	4.1740	4.1741	0.7670	25.17	0.51	0.750			
0.0680	4349.07	4.1710	4.1710	0.7660	25.17	0.51	0.750			
0.0702	4495.66	4.1680	4.1674	0.7736	25.17	0.51	0.750			
0.0726	4645.14	4.1650	4.1652	0.7720	25.17	0.51	0.750			
0.0749	4795.92	4.1620	4.1620	0.7696	25.17	0.51	0.750			
0.0772	4943.26	4.1590	4.1590	0.7754	25.17	0.51	0.750			
0.0796	5091.24	4.1560	4.1561	0.7725	25.17	0.51	0.750			
0.0819	5239.80	4.1530	4.1531	0.7730	25.17	0.51	0.750			
0.0842	5388.66	4.1500	4.1500	0.7771	25.17	0.51	0.750			
0.0865	5537.78	4.1470	4.1472	0.7781	25.17	0.51	0.750			
0.0889	5689.74	4.1440	4.1440	0.7865	25.17	0.51	0.750			
0.0913	5842.08	4.1410	4.1409	0.7884	25.17	0.51	0.750			
0.0936	5990.79	4.1380	4.1380	0.7820	25.17	0.51	0.750			
0.0960	6141.30	4.1350	4.1352	0.7857	25.17	0.51	0.750			
0.0983	6292.63	4.1320	4.1320	0.7908	25.17	0.51	0.750			
0.1007	6445.51	4.1290	4.1289	0.7811	25.17	0.51	0.750			
0.1030	6593.60	4.1260	4.1261	0.7849	25.17	0.51	0.750			
0.1054	6743.12	4.1230	4.1231	0.7867	25.17	0.51	0.750			
0.1077	6894.84	4.1200	4.1195	0.7906	25.17	0.51	0.750			
0.1101	7045.92	4.1170	4.1171	0.7962	25.17	0.51	0.750			
0.1125	7201.54	4.1140	4.1140	0.7837	25.17	0.51	0.750			
0.1149	7352.79	4.1110	4.1110	0.7961	25.18	0.52	0.750			
0.1173	7504.74	4.1080	4.1081	0.7974	25.18	0.52	0.750			
0.1196	7657.49	4.1050	4.1053	0.8016	25.18	0.52	0.750			
0.1221	7811.35	4.1020	4.1021	0.8096	25.18	0.52	0.750			
0.1245	7968.20	4.0990	4.0990	0.8169	25.18	0.52	0.750			
0.1270	8128.03	4.0960	4.0960	0.8142	25.18	0.52	0.750			
0.1295	8287.07	4.0930	4.0930	0.8185	25.18	0.52	0.750			
0.1319	8439.57	4.0900	4.0901	0.8094	25.18	0.52	0.750			
0.1343	8595.46	4.0870	4.0869	0.8121	25.18	0.52	0.750			
0.1367	8751.04	4.0840	4.0839	0.8102	25.18	0.52	0.750			
0.1391	8905.18	4.0810	4.0810	0.8130	25.18	0.52	0.750			
0.1416	9062.29	4.0780	4.0781	0.8185	25.18	0.52	0.750			
0.1441	9219.77	4.0750	4.0750	0.8267	25.18	0.52	0.750			
0.1465	9378.95	4.0720	4.0721	0.8267	25.18	0.52	0.750			
0.1490	9538.31	4.0690	4.0690	0.8293	25.18	0.52	0.750			
0.1515	9698.32	4.0660	4.0660	0.8187	25.18	0.52	0.750			
0.1539	9851.58	4.0630	4.0633	0.8275	25.18	0.52	0.750			
0.1564	10009.27	4.0600	4.0601	0.8322	25.18	0.52	0.750			
0.1589	10168.83	4.0570	4.0572	0.8368	25.18	0.52	0.750			
0.1614	10331.12	4.0540	4.0542	0.8406	25.18	0.52	0.750			
0.1640	10497.70	4.0510	4.0512	0.8526	25.18	0.52	0.750			
0.1666	10662.62	4.0480	4.0481	0.8561	25.19	0.53	0.750			
0.1691	10824.39	4.0450	4.0450	0.8454	25.19	0.53	0.750			
0.1717	10987.91	4.0420	4.0420	0.8504	25.19	0.53	0.750			
0.1743	11153.38	4.0390	4.0391	0.8458	25.19	0.53	0.750			
0.1768	11314.93	4.0360	4.0360	0.8489	25.20	0.54	0.750			
0.1794	11478.93	4.0330	4.0331	0.8556	25.20	0.54	0.750			
0.1819	11640.77	4.0300	4.0299	0.8548	25.20	0.54	0.750			
0.1844	11804.66	4.0270	4.0270	0.8582	25.20	0.54	0.750			
0.1871	11972.62	4.0240	4.0241	0.8526	25.20	0.54	0.750			
0.1896	12135.33	4.0210	4.0210	0.8636	25.20	0.54	0.750			
0.1922	12303.83	4.0180	4.0181	0.8725	25.20	0.54	0.750			
0.1948	12467.52	4.0150	4.0149	0.8739	25.20	0.54	0.750			
0.1975	12637.12	4.0120	4.0121	0.8762	25.20	0.54	0.750			
0.2001	12806.40	4.0090	4.0091	0.8841	25.20	0.54	0.750			
0.2028	12978.42	4.0060	4.0060	0.8892	25.20	0.54	0.750			
0.2055	13152.50	4.0030	4.0030	0.8963	25.20	0.54	0.750			
0.2081	13320.64	4.0000	3.9999	0.8877	25.20	0.54	0.750			
0.2109	13494.83	3.9970	3.9970	0.8774	25.20	0.54	0.750			
0.2134	13660.52	3.9940	3.9940	0.8805	25.21	0.55	0.750			
0.2161	13832.84	3.9910	3.9910	0.8723	25.21	0.55	0.750			
0.2187	13997.13	3.9880	3.9881	0.8854	25.22	0.56	0.750			
0.2213	14165.36	3.9850	3.9852	0.8903	25.22	0.56	0.750			
0.2241	14339.52	3.9820	3.9821	0.8801	25.22	0.56	0.750			
0.2267	14508.24	3.9790	3.9792	0.8968	25.22	0.56	0.750			
0.2294	14680.79	3.9760	3.9762	0.9079	25.22	0.56	0.750			
0.2321	14855.21	3.9730	3.9728	0.9097	25.22	0.56	0.750			
0.2349	15033.90	3.9700	3.9701	0.9154	25.22	0.56	0.750			
0.2376	15206.90	3.9670	3.9671	0.9114	25.22	0.56	0.750			
0.2404	15383.31	3.9640	3.9642	0.9193	25.23	0.57	0.750			
0.2432	15564.95	3.9610	3.9609	0.9275	25.23	0.57	0.750			
0.2459	15737.47	3.9580	3.9580	0.9168	25.23	0.57	0.750			
0.2487	15916.41	3.9550	3.9549	0.9105	25.24	0.58	0.750			
0.2514	16092.12	3.9520	3.9521	0.9189	25.24	0.58	0.750			
0.2542	16268.18	3.9490	3.9492	0.9184	25.24	0.58	0.750			
0.2569	16443.06	3.9460	3.9458	0.9213	25.25	0.59	0.750			
0.2597	16618.92	3.9430	3.9431	0.9248	25.25	0.59	0.750			
0.2624	16795.93	3.9400	3.9400	0.9140	25.26	0.60	0.750			
0.2652	16969.91	3.9370	3.9371	0.9204	25.26	0.60	0.750			
0.2679	17145.94	3.9340	3.9342	0.9259	25.27	0.61	0.750			
0.2707	17324.86	3.9310	3.9303	0.9378	25.27	0.61	0.750			
0.2735	17505.94	3.9280	3.9281	0.9423	25.27	0.61	0.750			
0.2764	17688.77	3.9250	3.9251	0.9493	25.27	0.61	0.750			
0.2793	17876.48	3.9220	3.9221	0.9576	25.27	0.61	0.750			
0.2822	18058.97	3.9190	3.9189	0.9436	25.27	0.61	0.750			
0.2850	18242.38	3.9160	3.9161	0.9404	25.27	0.61	0.750			
0.2878	18421.83	3.9130	3.9130	0.9399	25.27	0.61	0.750			
0.2906	18600.92	3.9100	3.9101	0.9461	25.28	0.62	0.750			
0.2935	18782.81	3.9070	3.9071	0.9516	25.28	0.62	0.750			
0.2963	18965.57	3.9040	3.9040	0.9541	25.28	0.62	0.750			
0.2993	19153.68	3.9010	3.9009	0.9358	25.28	0.62	0.750			
0.3020	19330.33	3.8980	3.8981	0.9445	25.28	0.62	0.750			
0.3048	19508.77	3.8950	3.8952	0.9581	25.28	0.62	0.750			
0.3077	19691.47	3.8920	3.8910	0.9602	25.28	0.62	0.750			
0.3106	19876.81	3.8890	3.8891	0.9695	25.28	0.62	0.750			
0.3135	20063.90	3.8860	3.8862	0.9821	25.28	0.62	0.750			
0.3165	20258.10	3.8830	3.8830	0.9813	25.28	0.62	0.750			
0.3197	20459.47	3.8800	3.8799	0.9809	25.28	0.62	0.750			
0.3224	20636.70	3.8770	3.8770	0.9523	25.28	0.62	0.750			
0.3252	20813.00	3.8740	3.8741	0.9597	25.28	0.62	0.750			
0.3280	20994.77	3.8710	3.8711	0.9686	25.28	0.62	0.750			
0.3310	21181.38	3.8680	3.8683	0.9783	25.28	0.62	0.750			
0.3339	21370.18	3.8650	3.8650	0.9937	25.28	0.62	0.750			
0.3370	21567.23	3.8620	3.8622	0.9900	25.27	0.61	0.750			
0.3400	21757.00	3.8590	3.8591	0.9978	25.27	0.61	0.750			
0.3429	21947.23	3.8560	3.8561	0.9997	25.26	0.60	0.750			
0.3459	22138.09	3.8530	3.8533	1.0006	25.26	0.60	0.750			
0.3489	22330.41	3.8500	3.8501	1.0106	25.26	0.60	0.750			
0.3520	22530.17	3.8470	3.8470	1.0111	25.25	0.59	0.750			
0.3551	22727.70	3.8440	3.8441	1.0206	25.25	0.59	0.750			
0.3582	22922.73	3.8410	3.8410	1.0165	25.25	0.59	0.750			
0.3611	23113.34	3.8380	3.8381	1.0187	25.24	0.58	0.750			
0.3641	23304.43	3.8350	3.8353	1.0269	25.23	0.57	0.750			
0.3672	23503.65	3.8320	3.8322	1.0475	25.23	0.57	0.750			
0.3704	23707.61	3.8290	3.8289	1.0645	25.22	0.56	0.750	0.259	0.374	
0.3737	23918.90	3.8260	3.8263	1.0549	25.21	0.55	0.750			
0.3769	24120.66	3.8230	3.8232	1.0667	25.20	0.54	0.750			
0.3801	24326.12	3.8200	3.8202	1.0776	25.19	0.53	0.750			
0.3832	24527.76	3.8170	3.8162	1.0632	25.18	0.52	0.750			
0.3865	24735.22	3.8140	3.8142	1.0807	25.17	0.51	0.750			
0.3898	24945.47	3.8110	3.8112	1.0937	25.17	0.51	0.750			
0.3932	25164.87	3.8080	3.8080	1.1114	25.16	0.50	0.750			
0.3966	25379.66	3.8050	3.8050	1.0786	25.16	0.50	0.750			
0.3997	25583.52	3.8020	3.8021	1.0908	25.15	0.49	0.750			
0.4030	25791.19	3.7990	3.7991	1.0973	25.14	0.48	0.750			
0.4063	26001.27	3.7960	3.7960	1.1199	25.12	0.46	0.750			
0.4096	26216.85	3.7930	3.7930	1.1235	25.11	0.45	0.750			
0.4130	26433.22	3.7900	3.7901	1.1433	25.10	0.44	0.750			
0.4165	26654.75	3.7870	3.7872	1.1651	25.09	0.43	0.750			
0.4201	26885.05	3.7840	3.7831	1.1880	25.08	0.42	0.750			
0.4236	27108.41	3.7810	3.7811	1.1968	25.07	0.41	0.750			
0.4272	27341.74	3.7780	3.7780	1.2141	25.06	0.40	0.750			
0.4309	27576.63	3.7750	3.7750	1.2295	25.05	0.39	0.750			
0.4347	27819.23	3.7720	3.7720	1.2408	25.03	0.37	0.750			
0.4382	28047.57	3.7690	3.7691	1.2546	25.02	0.36	0.750			
0.4420	28288.97	3.7660	3.7661	1.2830	25.00	0.34	0.750			
0.4460	28541.81	3.7630	3.7630	1.2850	24.99	0.33	0.750			
0.4498	28784.49	3.7600	3.7602	1.3277	24.98	0.32	0.750			
0.4538	29044.13	3.7570	3.7573	1.3691	24.97	0.31	0.750			
0.4580	29312.13	3.7540	3.7531	1.4110	24.96	0.30	0.750			
0.4624	29593.29	3.7510	3.7511	1.3912	24.95	0.29	0.750			
0.4666	29859.60	3.7480	3.7482	1.4217	24.93	0.27	0.750			
0.4709	30138.73	3.7450	3.7451	1.4600	24.92	0.26	0.750			
0.4754	30425.42	3.7420	3.7416	1.5079	24.90	0.24	0.750			
0.4797	30703.78	3.7390	3.7389	1.5352	24.89	0.23	0.750			
0.4845	31009.54	3.7360	3.7363	1.5800	24.87	0.21	0.750			
0.4893	31316.46	3.7330	3.7334	1.6683	24.86	0.20	0.750			
0.4945	31648.79	3.7300	3.7304	1.7148	24.84	0.18	0.750			
0.4996	31972.63	3.7270	3.7273	1.7621	24.83	0.17	0.750			
0.5050	32320.78	3.7240	3.7247	1.8063	24.81	0.15	0.750			
0.5106	32676.48	3.7210	3.7204	1.8299	24.79	0.13	0.750			
0.5161	33031.45	3.7180	3.7178	1.9161	24.77	0.11	0.750			
0.5218	33393.03	3.7150	3.7153	1.9549	24.76	0.10	0.750			
0.5280	33789.28	3.7120	3.7114	2.0326	24.74	0.08	0.750			
0.5341	34184.83	3.7090	3.7090	2.1431	24.72	0.06	0.750			
0.5405	34594.57	3.7060	3.7065	2.1953	24.71	0.05	0.750			
0.5472	35018.95	3.7030	3.7027	2.1611	24.69	0.03	0.750			
0.5536	35432.61	3.7000	3.7000	2.2651	24.67	0.01	0.750			
0.5603	35860.66	3.6970	3.6972	2.3285	24.65	-0.01	0.750			
0.5675	36320.49	3.6940	3.6943	2.3844	24.64	-0.02	0.750			
0.5746	36775.96	3.6910	3.6917	2.3400	24.62	-0.04	0.750			
0.5819	37239.95	3.6880	3.6881	2.4908	24.60	-0.06	0.750			
0.5895	37729.74	3.6850	3.6844	2.7510	24.59	-0.07	0.750			
0.5975	38242.81	3.6820	3.6817	2.7439	24.58	-0.08	0.750			
0.6056	38757.97	3.6790	3.6793	2.6483	24.56	-0.10	0.750			
0.6135	39266.69	3.6760	3.6760	2.8628	24.55	-0.11	0.750			
0.6225	39841.00	3.6730	3.6727	2.8484	24.54	-0.12	0.750			
0.6305	40353.40	3.6700	3.6704	2.8725	24.53	-0.13	0.750			
0.6391	40903.14	3.6670	3.6674	2.8540	24.53	-0.13	0.750			
0.6474	41431.21	3.6640	3.6647	2.8286	24.53	-0.13	0.750			
0.6562	41995.30	3.6610	3.6610	2.9971	24.54	-0.12	0.750			
0.6652	42571.08	3.6580	3.6574	2.7984	24.55	-0.11	0.750			
0.6731	43078.27	3.6550	3.6555	2.5920	24.56	-0.10	0.750			
0.6797	43498.93	3.6520	3.6523	2.1145	24.56	-0.10	0.750			
0.6854	43866.58	3.6490	3.6489	1.8291	24.56	-0.10	0.750			
0.6902	44170.08	3.6460	3.6462	1.5608	24.57	-0.09	0.750			
0.6946	44452.18	3.6430	3.6429	1.4116	24.58	-0.08	0.750			
0.6985	44705.65	3.6400	3.6400	1.2745	24.59	-0.07	0.750			
0.7020	44929.74	3.6370	3.6370	1.1443	24.59	-0.07	0.750			
0.7051	45126.60	3.6340	3.6340	1.0498	24.60	-0.06	0.750			
0.7081	45315.51	3.6310	3.6309	0.9765	24.60	-0.06	0.750			
0.7109	45497.81	3.6280	3.6280	0.9292	24.61	-0.05	0.750			
0.7136	45667.20	3.6250	3.6250	0.9009	24.61	-0.05	0.750			
0.7162	45836.77	3.6220	3.6221	0.8786	24.62	-0.04	0.750			
0.7188	46004.66	3.6190	3.6191	0.8558	24.63	-0.03	0.750			
0.7214	46167.54	3.6160	3.6159	0.8269	24.63	-0.03	0.750			
0.7239	46326.91	3.6130	3.6131	0.7812	24.64	-0.02	0.750			
0.7262	46477.94	3.6100	3.6101	0.7358	24.64	-0.02	0.750			
0.7284	46616.48	3.6070	3.6070	0.6702	24.65	-0.01	0.750			
0.7303	46738.29	3.6040	3.6040	0.5969	24.65	-0.01	0.750			
0.7320	46846.05	3.6010	3.6010	0.5276	24.66	-0.00	0.750			
0.7334	46939.55	3.5980	3.5979	0.4602	24.66	0.00	0.750			
0.7347	47020.73	3.5950	3.5950	0.3983	24.66	0.00	0.750			
0.7358	47090.85	3.5920	3.5920	0.3396	24.67	0.01	0.750			
0.7367	47149.46	3.5890	3.5889	0.2789	24.67	0.01	0.750			
0.7375	47197.97	3.5860	3.5860	0.2228	24.67	0.01	0.750			
0.7381	47235.56	3.5830	3.5834	0.1659	24.67	0.01	0.750			
0.7385	47264.48	3.5800	3.5808	0.1068	24.67	0.01	0.750			
0.7387	47278.77	3.5770	3.5784	0.0443	24.67	0.01	0.750			
0.7388	47281.28	3.5740	3.5765	-0.0182	24.67	0.01	0.750			
