Ah_balance (normalized)	Ah_balance (mAh)	Voltage - fit (V)	Voltage -  interpolate (V)	dQ/dV (1/V)	Temperature (°C)	Temperature - diff (°C)	Current (C)	R_DC 0ms (mOhm)	R_DC 50ms (mOhm)	R_DC 50 ms PEC (mOhm)
0.0482	3084.38	4.1980	4.1980	0.7514	25.55	0.59	0.750			
0.0504	3227.87	4.1950	4.1950	0.7473	25.55	0.59	0.750			
0.0527	3371.99	4.1920	4.1920	0.7511	25.55	0.59	0.750			
0.0549	3516.61	4.1890	4.1890	0.7540	25.55	0.59	0.750			
0.0572	3662.21	4.1860	4.1860	0.7548	25.55	0.59	0.750			
0.0595	3807.16	4.1830	4.1830	0.7556	25.55	0.59	0.750			
0.0618	3957.12	4.1800	4.1799	0.7422	25.55	0.59	0.750			
0.0640	4096.72	4.1770	4.1770	0.7427	25.55	0.59	0.750			
0.0662	4235.82	4.1740	4.1741	0.7487	25.55	0.59	0.750			
0.0684	4378.05	4.1710	4.1712	0.7518	25.55	0.59	0.750			
0.0707	4523.54	4.1680	4.1681	0.7572	25.55	0.59	0.750			
0.0730	4670.37	4.1650	4.1651	0.7655	25.56	0.60	0.750			
0.0753	4819.55	4.1620	4.1621	0.7618	25.56	0.60	0.750			
0.0776	4968.90	4.1590	4.1591	0.7711	25.56	0.60	0.750			
0.0799	5111.76	4.1560	4.1560	0.7605	25.57	0.61	0.750			
0.0822	5258.20	4.1530	4.1529	0.7610	25.57	0.61	0.750			
0.0844	5403.73	4.1500	4.1501	0.7652	25.57	0.61	0.750			
0.0867	5551.68	4.1470	4.1470	0.7646	25.57	0.61	0.750			
0.0891	5701.05	4.1440	4.1441	0.7700	25.57	0.61	0.750			
0.0914	5848.50	4.1410	4.1409	0.7634	25.57	0.61	0.750			
0.0937	5995.04	4.1380	4.1379	0.7688	25.57	0.61	0.750			
0.0960	6142.36	4.1350	4.1351	0.7707	25.57	0.61	0.750			
0.0983	6293.69	4.1320	4.1319	0.7680	25.57	0.61	0.750			
0.1006	6440.55	4.1290	4.1291	0.7716	25.57	0.61	0.750			
0.1029	6587.86	4.1260	4.1260	0.7761	25.57	0.61	0.750			
0.1052	6735.50	4.1230	4.1231	0.7759	25.57	0.61	0.750			
0.1076	6885.02	4.1200	4.1200	0.7794	25.57	0.61	0.750			
0.1099	7034.47	4.1170	4.1171	0.7794	25.57	0.61	0.750			
0.1123	7186.09	4.1140	4.1141	0.7786	25.57	0.61	0.750			
0.1146	7334.81	4.1110	4.1110	0.7834	25.57	0.61	0.750			
0.1169	7484.12	4.1080	4.1082	0.7793	25.57	0.61	0.750			
0.1193	7634.57	4.1050	4.1050	0.7823	25.57	0.61	0.750			
0.1216	7784.86	4.1020	4.1021	0.7865	25.57	0.61	0.750			
0.1240	7936.51	4.0990	4.0991	0.7889	25.58	0.62	0.750			
0.1264	8089.76	4.0960	4.0960	0.7954	25.58	0.62	0.750			
0.1288	8241.58	4.0930	4.0930	0.7894	25.59	0.63	0.750			
0.1312	8393.72	4.0900	4.0898	0.7895	25.59	0.63	0.750			
0.1335	8545.84	4.0870	4.0871	0.7924	25.59	0.63	0.750			
0.1359	8698.12	4.0840	4.0840	0.7903	25.59	0.63	0.750			
0.1382	8847.87	4.0810	4.0810	0.7939	25.59	0.63	0.750			
0.1406	9000.52	4.0780	4.0780	0.8002	25.59	0.63	0.750			
0.1430	9154.09	4.0750	4.0750	0.8006	25.59	0.63	0.750			
0.1455	9308.85	4.0720	4.0721	0.8074	25.59	0.63	0.750			
0.1480	9469.70	4.0690	4.0690	0.8012	25.59	0.63	0.750			
0.1503	9619.80	4.0660	4.0660	0.8041	25.59	0.63	0.750			
0.1527	9772.24	4.0630	4.0631	0.8077	25.60	0.64	0.750			
0.1551	9926.26	4.0600	4.0601	0.8086	25.60	0.64	0.750			
0.1575	10080.82	4.0570	4.0569	0.8169	25.60	0.64	0.750			
0.1600	10241.19	4.0540	4.0542	0.8176	25.60	0.64	0.750			
0.1625	10398.16	4.0510	4.0510	0.8244	25.60	0.64	0.750			
0.1650	10558.68	4.0480	4.0480	0.8300	25.61	0.65	0.750			
0.1674	10715.64	4.0450	4.0450	0.8247	25.61	0.65	0.750			
0.1699	10873.84	4.0420	4.0419	0.8299	25.61	0.65	0.750			
0.1724	11034.88	4.0390	4.0391	0.8362	25.61	0.65	0.750			
0.1749	11196.32	4.0360	4.0360	0.8230	25.61	0.65	0.750			
0.1774	11353.65	4.0330	4.0332	0.8323	25.61	0.65	0.750			
0.1799	11511.10	4.0300	4.0302	0.8328	25.61	0.65	0.750			
0.1824	11670.83	4.0270	4.0266	0.8379	25.61	0.65	0.750			
0.1849	11832.32	4.0240	4.0242	0.8466	25.62	0.66	0.750			
0.1874	11995.46	4.0210	4.0211	0.8352	25.62	0.66	0.750			
0.1899	12156.09	4.0180	4.0182	0.8500	25.62	0.66	0.750			
0.1925	12316.83	4.0150	4.0152	0.8467	25.63	0.67	0.750			
0.1950	12480.63	4.0120	4.0121	0.8531	25.63	0.67	0.750			
0.1976	12646.72	4.0090	4.0092	0.8527	25.63	0.67	0.750			
0.2002	12811.31	4.0060	4.0062	0.8618	25.63	0.67	0.750			
0.2028	12980.35	4.0030	4.0031	0.8734	25.63	0.67	0.750			
0.2054	13146.50	4.0000	4.0000	0.8612	25.63	0.67	0.750			
0.2080	13313.15	3.9970	3.9971	0.8670	25.63	0.67	0.750			
0.2107	13484.90	3.9940	3.9940	0.8564	25.63	0.67	0.750			
0.2132	13647.74	3.9910	3.9911	0.8653	25.63	0.67	0.750			
0.2158	13813.68	3.9880	3.9881	0.8723	25.63	0.67	0.750			
0.2184	13977.30	3.9850	3.9851	0.8694	25.63	0.67	0.750			
0.2210	14144.75	3.9820	3.9822	0.8740	25.63	0.67	0.750			
0.2237	14315.71	3.9790	3.9791	0.8741	25.63	0.67	0.750			
0.2263	14484.02	3.9760	3.9761	0.8746	25.64	0.68	0.750			
0.2290	14653.82	3.9730	3.9731	0.8868	25.64	0.68	0.750			
0.2315	14818.71	3.9700	3.9692	0.8768	25.64	0.68	0.750			
0.2342	14988.64	3.9670	3.9670	0.8800	25.64	0.68	0.750			
0.2368	15158.28	3.9640	3.9641	0.8851	25.64	0.68	0.750			
0.2395	15330.53	3.9610	3.9611	0.8879	25.65	0.69	0.750			
0.2423	15504.36	3.9580	3.9579	0.8929	25.65	0.69	0.750			
0.2449	15672.36	3.9550	3.9551	0.8844	25.65	0.69	0.750			
0.2475	15842.56	3.9520	3.9520	0.8739	25.65	0.69	0.750			
0.2502	16011.10	3.9490	3.9490	0.8780	25.65	0.69	0.750			
0.2528	16177.42	3.9460	3.9461	0.8821	25.65	0.69	0.750			
0.2554	16345.52	3.9430	3.9431	0.8827	25.65	0.69	0.750			
0.2581	16515.84	3.9400	3.9401	0.8844	25.65	0.69	0.750			
0.2607	16687.75	3.9370	3.9370	0.8803	25.64	0.68	0.750			
0.2634	16856.39	3.9340	3.9341	0.8859	25.64	0.68	0.750			
0.2661	17028.00	3.9310	3.9310	0.8879	25.64	0.68	0.750			
0.2687	17196.35	3.9280	3.9276	0.8820	25.63	0.67	0.750			
0.2713	17364.69	3.9250	3.9250	0.8844	25.63	0.67	0.750			
0.2740	17535.03	3.9220	3.9221	0.8818	25.63	0.67	0.750			
0.2766	17704.94	3.9190	3.9190	0.8814	25.63	0.67	0.750			
0.2793	17874.32	3.9160	3.9160	0.8862	25.63	0.67	0.750			
0.2819	18042.10	3.9130	3.9128	0.8816	25.63	0.67	0.750			
0.2846	18214.61	3.9100	3.9100	0.8738	25.63	0.67	0.750			
0.2872	18381.20	3.9070	3.9070	0.8782	25.62	0.66	0.750			
0.2898	18548.44	3.9040	3.9042	0.8829	25.62	0.66	0.750			
0.2925	18717.94	3.9010	3.9011	0.8830	25.61	0.65	0.750			
0.2951	18887.88	3.8980	3.8981	0.8867	25.61	0.65	0.750			
0.2978	19061.03	3.8950	3.8951	0.8739	25.60	0.64	0.750			
0.3004	19227.09	3.8920	3.8921	0.8879	25.60	0.64	0.750			
0.3031	19398.58	3.8890	3.8891	0.8911	25.60	0.64	0.750			
0.3058	19568.15	3.8860	3.8861	0.8856	25.59	0.63	0.750			
0.3084	19739.34	3.8830	3.8831	0.8893	25.59	0.63	0.750			
0.3111	19912.28	3.8800	3.8802	0.8949	25.58	0.62	0.750			
0.3138	20084.94	3.8770	3.8770	0.8977	25.57	0.61	0.750			
0.3166	20260.62	3.8740	3.8739	0.9042	25.57	0.61	0.750			
0.3192	20428.35	3.8710	3.8710	0.8893	25.56	0.60	0.750			
0.3219	20604.65	3.8680	3.8678	0.8834	25.55	0.59	0.750			
0.3246	20772.08	3.8650	3.8651	0.8867	25.55	0.59	0.750			
0.3272	20938.58	3.8620	3.8620	0.8929	25.54	0.58	0.750			
0.3298	21108.42	3.8590	3.8591	0.9015	25.53	0.57	0.750			
0.3325	21282.83	3.8560	3.8561	0.9055	25.53	0.57	0.750			
0.3354	21463.55	3.8530	3.8530	0.8911	25.52	0.56	0.750			
0.3381	21635.36	3.8500	3.8501	0.9113	25.50	0.54	0.750			
0.3408	21808.95	3.8470	3.8472	0.9258	25.49	0.53	0.750			
0.3435	21983.24	3.8440	3.8441	0.9246	25.48	0.52	0.750			
0.3463	22164.16	3.8410	3.8409	0.9292	25.47	0.51	0.750	0.311	0.448	
0.3491	22343.54	3.8380	3.8382	0.9415	25.46	0.50	0.750			
0.3520	22528.99	3.8350	3.8351	0.9528	25.45	0.49	0.750			
0.3550	22717.52	3.8320	3.8320	0.9681	25.45	0.49	0.750			
0.3577	22894.84	3.8290	3.8290	0.9525	25.44	0.48	0.750			
0.3606	23079.34	3.8260	3.8260	0.9544	25.43	0.47	0.750			
0.3635	23262.32	3.8230	3.8231	0.9656	25.42	0.46	0.750			
0.3664	23448.36	3.8200	3.8201	0.9804	25.41	0.45	0.750			
0.3693	23636.83	3.8170	3.8166	0.9864	25.40	0.44	0.750			
0.3723	23828.51	3.8140	3.8140	0.9911	25.39	0.43	0.750			
0.3753	24018.10	3.8110	3.8112	1.0009	25.38	0.42	0.750			
0.3783	24212.84	3.8080	3.8081	1.0145	25.37	0.41	0.750			
0.3813	24405.36	3.8050	3.8047	1.0274	25.36	0.40	0.750			
0.3844	24602.01	3.8020	3.8021	1.0432	25.35	0.39	0.750			
0.3876	24806.01	3.7990	3.7990	1.0618	25.34	0.38	0.750			
0.3909	25016.43	3.7960	3.7960	1.0847	25.32	0.36	0.750			
0.3942	25228.68	3.7930	3.7930	1.0868	25.31	0.35	0.750			
0.3975	25437.21	3.7900	3.7900	1.1010	25.30	0.34	0.750			
0.4008	25648.36	3.7870	3.7870	1.1113	25.29	0.33	0.750			
0.4041	25859.35	3.7840	3.7841	1.1245	25.28	0.32	0.750			
0.4075	26078.37	3.7810	3.7810	1.1368	25.27	0.31	0.750			
0.4109	26297.59	3.7780	3.7781	1.1629	25.25	0.29	0.750			
0.4144	26522.02	3.7750	3.7751	1.1868	25.24	0.28	0.750			
0.4180	26753.07	3.7720	3.7719	1.2085	25.22	0.26	0.750			
0.4217	26986.31	3.7690	3.7691	1.2302	25.21	0.25	0.750			
0.4254	27225.39	3.7660	3.7660	1.2571	25.20	0.24	0.750			
0.4292	27471.10	3.7630	3.7630	1.2801	25.19	0.23	0.750			
0.4331	27721.29	3.7600	3.7600	1.3082	25.18	0.22	0.750			
0.4370	27970.84	3.7570	3.7570	1.3185	25.16	0.20	0.750			
0.4410	28224.61	3.7540	3.7542	1.3491	25.15	0.19	0.750			
0.4451	28483.70	3.7510	3.7510	1.3896	25.14	0.18	0.750			
0.4492	28751.65	3.7480	3.7475	1.4274	25.12	0.16	0.750			
0.4536	29028.90	3.7450	3.7452	1.4696	25.11	0.15	0.750			
0.4581	29317.25	3.7420	3.7421	1.4889	25.09	0.13	0.750			
0.4627	29610.11	3.7390	3.7391	1.5189	25.08	0.12	0.750			
0.4672	29903.16	3.7360	3.7361	1.5683	25.06	0.10	0.750			
0.4719	30199.40	3.7330	3.7326	1.5905	25.04	0.08	0.750			
0.4766	30502.25	3.7300	3.7296	1.6522	25.03	0.07	0.750			
0.4817	30826.69	3.7270	3.7267	1.6926	25.02	0.06	0.750			
0.4869	31160.78	3.7240	3.7240	1.7436	25.00	0.04	0.750			
0.4923	31507.94	3.7210	3.7211	1.7606	24.99	0.03	0.750			
0.4976	31845.92	3.7180	3.7176	1.8127	24.97	0.01	0.750			
0.5031	32195.48	3.7150	3.7150	1.8794	24.95	-0.01	0.750			
0.5087	32557.17	3.7120	3.7112	1.9510	24.94	-0.02	0.750			
0.5148	32946.78	3.7090	3.7088	1.9936	24.93	-0.03	0.750			
0.5208	33332.21	3.7060	3.7064	2.0585	24.91	-0.05	0.750			
0.5272	33743.18	3.7030	3.7031	2.1207	24.89	-0.07	0.750			
0.5335	34141.66	3.7000	3.7004	2.1116	24.88	-0.08	0.750			
0.5399	34552.63	3.6970	3.6971	2.2684	24.87	-0.09	0.750			
0.5468	34996.60	3.6940	3.6941	2.3018	24.86	-0.10	0.750			
0.5540	35457.10	3.6910	3.6912	2.3632	24.85	-0.11	0.750			
0.5612	35915.06	3.6880	3.6877	2.3877	24.84	-0.12	0.750			
0.5684	36376.32	3.6850	3.6847	2.4227	24.82	-0.14	0.750			
0.5757	36844.69	3.6820	3.6819	2.4509	24.82	-0.14	0.750			
0.5832	37324.59	3.6790	3.6791	2.3907	24.82	-0.14	0.750			
0.5902	37774.94	3.6760	3.6761	2.3750	24.81	-0.15	0.750			
0.5973	38227.73	3.6730	3.6728	2.2624	24.81	-0.15	0.750			
0.6042	38666.15	3.6700	3.6703	2.1685	24.82	-0.14	0.750			
0.6103	39061.82	3.6670	3.6667	2.0402	24.82	-0.14	0.750			
0.6161	39430.08	3.6640	3.6637	1.8876	24.82	-0.14	0.750			
0.6216	39784.23	3.6610	3.6603	1.7480	24.82	-0.14	0.750			
0.6269	40119.75	3.6580	3.6577	1.6813	24.83	-0.13	0.750			
0.6316	40419.25	3.6550	3.6547	1.5059	24.84	-0.12	0.750			
0.6359	40697.64	3.6520	3.6524	1.4307	24.85	-0.11	0.750			
0.6400	40958.94	3.6490	3.6493	1.3316	24.85	-0.11	0.750			
0.6439	41206.60	3.6460	3.6455	1.2484	24.86	-0.10	0.750			
0.6476	41445.47	3.6430	3.6432	1.1956	24.87	-0.09	0.750			
0.6509	41658.13	3.6400	3.6401	1.1135	24.87	-0.09	0.750			
0.6542	41867.66	3.6370	3.6371	1.0655	24.88	-0.08	0.750			
0.6573	42066.79	3.6340	3.6339	1.0081	24.88	-0.08	0.750			
0.6602	42254.99	3.6310	3.6310	0.9661	24.89	-0.07	0.750			
0.6631	42436.72	3.6280	3.6280	0.9343	24.89	-0.07	0.750			
0.6658	42614.30	3.6250	3.6251	0.9012	24.89	-0.07	0.750			
0.6685	42784.68	3.6220	3.6218	0.8638	24.90	-0.06	0.750			
0.6711	42948.42	3.6190	3.6190	0.8249	24.91	-0.05	0.750			
0.6735	43102.93	3.6160	3.6161	0.7851	24.92	-0.04	0.750			
0.6758	43250.63	3.6130	3.6130	0.7322	24.93	-0.03	0.750			
0.6779	43387.34	3.6100	3.6101	0.6887	24.94	-0.02	0.750			
0.6799	43513.08	3.6070	3.6071	0.6362	24.95	-0.01	0.750			
0.6817	43631.54	3.6040	3.6033	0.5875	24.96	0.00	0.750			
0.6834	43739.65	3.6010	3.6012	0.5373	24.97	0.01	0.750			
0.6850	43838.11	3.5980	3.5982	0.4873	24.98	0.02	0.750			
0.6864	43927.79	3.5950	3.5950	0.4399	24.98	0.02	0.750			
0.6876	44006.99	3.5920	3.5919	0.3834	24.99	0.03	0.750			
0.6887	44076.74	3.5890	3.5889	0.3381	24.99	0.03	0.750			
0.6897	44138.01	3.5860	3.5859	0.2873	25.00	0.04	0.750			
0.6904	44188.74	3.5830	3.5831	0.2360	25.00	0.04	0.750			
0.6911	44230.28	3.5800	3.5802	0.1831	25.01	0.05	0.750			
0.6916	44260.31	3.5770	3.5777	0.1260	25.01	0.05	0.750			
0.6919	44278.84	3.5740	3.5756	0.0681	25.01	0.05	0.750			
0.6920	44286.53	3.5710	3.5726	0.0184	25.01	0.05	0.750			
