Ah_balance (normalized)	Ah_balance (mAh)	Voltage - fit (V)	Voltage -  interpolate (V)	dQ/dV (1/V)	Temperature (°C)	Temperature - diff (°C)	Current (C)	R_DC 0ms (mOhm)	R_DC 50ms (mOhm)	R_DC 50 ms PEC (mOhm)
0.0468	2992.37	4.1990	4.1990	0.7722	25.23	0.41	0.750			
0.0490	3138.95	4.1960	4.1960	0.7588	25.23	0.41	0.750			
0.0513	3282.76	4.1930	4.1930	0.7547	25.23	0.41	0.750			
0.0536	3427.98	4.1900	4.1901	0.7558	25.23	0.41	0.750			
0.0558	3572.81	4.1870	4.1869	0.7580	25.23	0.41	0.750			
0.0581	3718.51	4.1840	4.1840	0.7595	25.23	0.41	0.750			
0.0604	3868.07	4.1810	4.1809	0.7477	25.23	0.41	0.750			
0.0626	4009.25	4.1780	4.1781	0.7526	25.23	0.41	0.750			
0.0649	4152.56	4.1750	4.1751	0.7587	25.23	0.41	0.750			
0.0671	4296.08	4.1720	4.1721	0.7637	25.23	0.41	0.750			
0.0695	4445.07	4.1690	4.1691	0.7669	25.23	0.41	0.750			
0.0718	4592.36	4.1660	4.1660	0.7710	25.24	0.42	0.750			
0.0741	4742.93	4.1630	4.1631	0.7654	25.24	0.42	0.750			
0.0764	4891.90	4.1600	4.1600	0.7755	25.24	0.42	0.750			
0.0787	5035.56	4.1570	4.1571	0.7667	25.25	0.43	0.750			
0.0810	5183.31	4.1540	4.1540	0.7694	25.25	0.43	0.750			
0.0833	5330.45	4.1510	4.1512	0.7710	25.25	0.43	0.750			
0.0856	5481.02	4.1480	4.1481	0.7748	25.25	0.43	0.750			
0.0880	5631.77	4.1450	4.1450	0.7767	25.26	0.44	0.750			
0.0903	5779.55	4.1420	4.1420	0.7708	25.26	0.44	0.750			
0.0926	5926.48	4.1390	4.1390	0.7712	25.26	0.44	0.750			
0.0949	6075.02	4.1360	4.1360	0.7748	25.26	0.44	0.750			
0.0973	6226.37	4.1330	4.1330	0.7682	25.26	0.44	0.750			
0.0996	6372.87	4.1300	4.1299	0.7725	25.26	0.44	0.750			
0.1019	6519.88	4.1270	4.1271	0.7770	25.26	0.44	0.750			
0.1042	6668.63	4.1240	4.1241	0.7806	25.26	0.44	0.750			
0.1065	6818.86	4.1210	4.1210	0.7873	25.26	0.44	0.750			
0.1089	6971.13	4.1180	4.1181	0.7905	25.26	0.44	0.750			
0.1113	7124.03	4.1150	4.1150	0.7816	25.26	0.44	0.750			
0.1137	7275.78	4.1120	4.1121	0.7849	25.27	0.45	0.750			
0.1159	7420.66	4.1090	4.1092	0.7803	25.27	0.45	0.750			
0.1183	7570.48	4.1060	4.1054	0.7886	25.27	0.45	0.750			
0.1206	7720.92	4.1030	4.1032	0.7949	25.27	0.45	0.750			
0.1231	7875.28	4.1000	4.1001	0.8013	25.27	0.45	0.750			
0.1256	8035.72	4.0970	4.0971	0.8118	25.28	0.46	0.750			
0.1280	8190.26	4.0940	4.0940	0.8002	25.28	0.46	0.750			
0.1304	8344.24	4.0910	4.0910	0.8009	25.28	0.46	0.750			
0.1328	8496.87	4.0880	4.0880	0.8053	25.28	0.46	0.750			
0.1352	8651.91	4.0850	4.0849	0.8058	25.28	0.46	0.750			
0.1376	8806.58	4.0820	4.0820	0.8085	25.29	0.47	0.750			
0.1400	8963.00	4.0790	4.0791	0.8105	25.29	0.47	0.750			
0.1425	9119.25	4.0760	4.0756	0.8125	25.29	0.47	0.750			
0.1449	9275.46	4.0730	4.0731	0.8144	25.29	0.47	0.750			
0.1474	9434.68	4.0700	4.0700	0.7989	25.29	0.47	0.750			
0.1498	9584.42	4.0670	4.0670	0.8080	25.30	0.48	0.750			
0.1522	9739.33	4.0640	4.0641	0.8162	25.30	0.48	0.750			
0.1546	9893.56	4.0610	4.0610	0.8190	25.30	0.48	0.750			
0.1571	10051.84	4.0580	4.0582	0.8252	25.30	0.48	0.750			
0.1596	10211.80	4.0550	4.0550	0.8276	25.30	0.48	0.750			
0.1621	10372.17	4.0520	4.0521	0.8343	25.30	0.48	0.750			
0.1646	10533.42	4.0490	4.0489	0.8331	25.30	0.48	0.750			
0.1671	10694.77	4.0460	4.0460	0.8385	25.30	0.48	0.750			
0.1696	10856.19	4.0430	4.0430	0.8439	25.30	0.48	0.750			
0.1722	11022.51	4.0400	4.0400	0.8334	25.31	0.49	0.750			
0.1747	11180.73	4.0370	4.0371	0.8415	25.31	0.49	0.750			
0.1772	11341.32	4.0340	4.0341	0.8461	25.31	0.49	0.750			
0.1797	11501.72	4.0310	4.0309	0.8472	25.32	0.50	0.750			
0.1823	11664.23	4.0280	4.0281	0.8525	25.32	0.50	0.750			
0.1849	11831.80	4.0250	4.0250	0.8490	25.32	0.50	0.750			
0.1874	11993.71	4.0220	4.0221	0.8561	25.32	0.50	0.750			
0.1900	12161.09	4.0190	4.0191	0.8700	25.32	0.50	0.750			
0.1925	12322.19	4.0160	4.0156	0.8649	25.32	0.50	0.750			
0.1952	12491.25	4.0130	4.0130	0.8709	25.32	0.50	0.750			
0.1978	12659.25	4.0100	4.0101	0.8771	25.32	0.50	0.750			
0.2005	12829.64	4.0070	4.0070	0.8817	25.32	0.50	0.750			
0.2032	13003.48	4.0040	4.0039	0.8862	25.32	0.50	0.750			
0.2058	13168.76	4.0010	4.0010	0.8741	25.32	0.50	0.750			
0.2084	13338.92	3.9980	3.9980	0.8640	25.33	0.51	0.750			
0.2110	13503.59	3.9950	3.9950	0.8655	25.33	0.51	0.750			
0.2136	13667.84	3.9920	3.9921	0.8729	25.34	0.52	0.750			
0.2162	13834.08	3.9890	3.9891	0.8751	25.35	0.53	0.750			
0.2188	14002.10	3.9860	3.9861	0.8823	25.35	0.53	0.750			
0.2215	14173.94	3.9830	3.9831	0.8825	25.35	0.53	0.750			
0.2241	14343.74	3.9800	3.9801	0.8945	25.35	0.53	0.750			
0.2268	14517.79	3.9770	3.9770	0.9007	25.35	0.53	0.750			
0.2295	14690.54	3.9740	3.9739	0.8946	25.35	0.53	0.750			
0.2322	14862.04	3.9710	3.9711	0.8995	25.35	0.53	0.750			
0.2349	15036.75	3.9680	3.9681	0.8978	25.35	0.53	0.750			
0.2376	15208.85	3.9650	3.9650	0.8969	25.36	0.54	0.750			
0.2403	15382.20	3.9620	3.9620	0.9012	25.36	0.54	0.750			
0.2430	15551.05	3.9590	3.9589	0.8974	25.36	0.54	0.750			
0.2457	15723.79	3.9560	3.9560	0.9048	25.36	0.54	0.750			
0.2484	15898.32	3.9530	3.9530	0.8986	25.36	0.54	0.750			
0.2511	16068.91	3.9500	3.9501	0.9044	25.36	0.54	0.750			
0.2538	16243.98	3.9470	3.9472	0.9130	25.36	0.54	0.750			
0.2565	16418.69	3.9440	3.9441	0.9147	25.36	0.54	0.750			
0.2593	16598.18	3.9410	3.9410	0.8961	25.36	0.54	0.750			
0.2620	16768.23	3.9380	3.9381	0.9100	25.37	0.55	0.750			
0.2647	16943.57	3.9350	3.9352	0.9139	25.37	0.55	0.750			
0.2675	17117.02	3.9320	3.9316	0.9151	25.37	0.55	0.750			
0.2702	17293.14	3.9290	3.9291	0.9197	25.37	0.55	0.750			
0.2730	17471.40	3.9260	3.9261	0.9240	25.37	0.55	0.750			
0.2758	17651.39	3.9230	3.9231	0.9296	25.37	0.55	0.750			
0.2786	17832.25	3.9200	3.9201	0.9215	25.37	0.55	0.750			
0.2814	18009.47	3.9170	3.9170	0.9244	25.37	0.55	0.750			
0.2842	18187.46	3.9140	3.9140	0.9203	25.37	0.55	0.750			
0.2869	18362.34	3.9110	3.9110	0.9192	25.37	0.55	0.750			
0.2897	18538.30	3.9080	3.9081	0.9249	25.37	0.55	0.750			
0.2924	18715.25	3.9050	3.9047	0.9295	25.37	0.55	0.750			
0.2953	18898.74	3.9020	3.9019	0.9212	25.37	0.55	0.750			
0.2980	19073.00	3.8990	3.8990	0.9279	25.37	0.55	0.750			
0.3008	19251.26	3.8960	3.8961	0.9325	25.36	0.54	0.750			
0.3036	19431.32	3.8930	3.8931	0.9367	25.36	0.54	0.750			
0.3064	19608.28	3.8900	3.8900	0.9362	25.36	0.54	0.750			
0.3092	19788.59	3.8870	3.8872	0.9392	25.35	0.53	0.750			
0.3120	19970.24	3.8840	3.8840	0.9443	25.35	0.53	0.750			
0.3149	20154.51	3.8810	3.8810	0.9474	25.34	0.52	0.750			
0.3177	20334.36	3.8780	3.8779	0.9423	25.34	0.52	0.750			
0.3206	20517.88	3.8750	3.8750	0.9420	25.34	0.52	0.750			
0.3234	20697.99	3.8720	3.8720	0.9474	25.33	0.51	0.750			
0.3262	20878.96	3.8690	3.8690	0.9478	25.33	0.51	0.750			
0.3291	21061.00	3.8660	3.8660	0.9479	25.32	0.50	0.750			
0.3319	21243.33	3.8630	3.8631	0.9520	25.32	0.50	0.750			
0.3348	21428.06	3.8600	3.8600	0.9419	25.31	0.49	0.750			
0.3376	21605.70	3.8570	3.8571	0.9408	25.30	0.48	0.750			
0.3404	21784.86	3.8540	3.8542	0.9503	25.30	0.48	0.750			
0.3432	21965.15	3.8510	3.8506	0.9548	25.29	0.47	0.750			
0.3461	22149.06	3.8480	3.8481	0.9644	25.28	0.46	0.750			
0.3491	22342.36	3.8450	3.8450	0.9479	25.27	0.45	0.750			
0.3520	22526.56	3.8420	3.8421	0.9681	25.26	0.44	0.750			
0.3549	22712.96	3.8390	3.8391	0.9878	25.25	0.43	0.750			
0.3578	22897.75	3.8360	3.8362	0.9622	25.24	0.42	0.750	0.305	0.416	
0.3606	23080.55	3.8330	3.8333	0.9767	25.23	0.41	0.750			
0.3636	23267.72	3.8300	3.8302	0.9876	25.22	0.40	0.750			
0.3666	23460.86	3.8270	3.8273	1.0023	25.21	0.39	0.750			
0.3696	23656.28	3.8240	3.8241	0.9967	25.20	0.38	0.750			
0.3726	23847.62	3.8210	3.8211	0.9954	25.19	0.37	0.750			
0.3756	24038.06	3.8180	3.8181	1.0022	25.19	0.37	0.750			
0.3786	24233.08	3.8150	3.8151	1.0191	25.18	0.36	0.750			
0.3816	24423.79	3.8120	3.8121	1.0161	25.17	0.35	0.750			
0.3847	24620.91	3.8090	3.8090	1.0243	25.16	0.34	0.750			
0.3878	24821.02	3.8060	3.8060	1.0389	25.15	0.33	0.750			
0.3910	25022.50	3.8030	3.8031	1.0502	25.14	0.32	0.750			
0.3941	25225.03	3.8000	3.8000	1.0518	25.14	0.32	0.750			
0.3973	25425.57	3.7970	3.7970	1.0669	25.13	0.31	0.750			
0.4005	25630.84	3.7940	3.7941	1.0856	25.12	0.30	0.750			
0.4038	25840.90	3.7910	3.7909	1.1007	25.10	0.28	0.750			
0.4071	26055.51	3.7880	3.7881	1.1164	25.09	0.27	0.750			
0.4104	26266.18	3.7850	3.7851	1.1177	25.08	0.26	0.750			
0.4137	26479.10	3.7820	3.7822	1.1400	25.07	0.25	0.750			
0.4172	26699.72	3.7790	3.7787	1.1579	25.06	0.24	0.750			
0.4206	26921.53	3.7760	3.7762	1.1805	25.05	0.23	0.750			
0.4242	27150.61	3.7730	3.7732	1.2096	25.04	0.22	0.750			
0.4280	27390.66	3.7700	3.7700	1.2352	25.03	0.21	0.750			
0.4319	27638.69	3.7670	3.7669	1.2732	25.02	0.20	0.750			
0.4355	27872.69	3.7640	3.7641	1.2702	25.00	0.18	0.750			
0.4394	28118.95	3.7610	3.7610	1.2984	24.99	0.17	0.750			
0.4433	28372.16	3.7580	3.7581	1.3138	24.98	0.16	0.750			
0.4472	28621.81	3.7550	3.7551	1.3413	24.97	0.15	0.750			
0.4512	28880.00	3.7520	3.7521	1.3770	24.95	0.13	0.750			
0.4556	29156.17	3.7490	3.7484	1.3970	24.94	0.12	0.750			
0.4597	29422.06	3.7460	3.7462	1.4416	24.93	0.11	0.750			
0.4641	29705.16	3.7430	3.7432	1.4750	24.91	0.09	0.750			
0.4687	29995.39	3.7400	3.7401	1.5150	24.90	0.08	0.750			
0.4733	30290.35	3.7370	3.7367	1.5531	24.89	0.07	0.750			
0.4779	30587.73	3.7340	3.7342	1.5390	24.88	0.06	0.750			
0.4825	30881.41	3.7310	3.7308	1.6057	24.87	0.05	0.750			
0.4874	31191.80	3.7280	3.7278	1.6572	24.86	0.04	0.750			
0.4923	31507.60	3.7250	3.7250	1.7051	24.84	0.02	0.750			
0.4976	31845.01	3.7220	3.7217	1.7711	24.83	0.01	0.750			
0.5031	32199.73	3.7190	3.7187	1.8283	24.82	-0.00	0.750			
0.5089	32570.31	3.7160	3.7160	1.9203	24.80	-0.02	0.750			
0.5147	32943.45	3.7130	3.7133	1.9368	24.79	-0.03	0.750			
0.5204	33306.35	3.7100	3.7103	2.0037	24.78	-0.04	0.750			
0.5263	33684.68	3.7070	3.7065	2.1576	24.77	-0.05	0.750			
0.5328	34100.83	3.7040	3.7041	2.2878	24.76	-0.06	0.750			
0.5405	34592.99	3.7010	3.7014	2.4833	24.74	-0.08	0.750			
0.5480	35074.59	3.6980	3.6978	2.4298	24.73	-0.09	0.750			
0.5550	35517.02	3.6950	3.6950	2.3717	24.71	-0.11	0.750			
0.5618	35957.29	3.6920	3.6922	2.3869	24.69	-0.13	0.750			
0.5691	36424.16	3.6890	3.6890	2.4176	24.68	-0.14	0.750			
0.5765	36896.07	3.6860	3.6859	2.5180	24.67	-0.15	0.750			
0.5841	37380.46	3.6830	3.6828	2.5756	24.66	-0.16	0.750			
0.5918	37877.94	3.6800	3.6800	2.6513	24.66	-0.16	0.750			
0.5999	38391.78	3.6770	3.6771	2.7220	24.65	-0.17	0.750			
0.6081	38919.60	3.6740	3.6742	2.7377	24.64	-0.18	0.750			
0.6165	39459.07	3.6710	3.6711	2.7373	24.64	-0.18	0.750			
0.6249	39993.23	3.6680	3.6679	2.6380	24.64	-0.18	0.750			
0.6326	40487.55	3.6650	3.6650	2.4669	24.64	-0.18	0.750			
0.6397	40938.55	3.6620	3.6621	2.2758	24.65	-0.17	0.750			
0.6460	41346.52	3.6590	3.6592	2.0609	24.67	-0.15	0.750			
0.6520	41725.43	3.6560	3.6563	1.8952	24.67	-0.15	0.750			
0.6574	42075.57	3.6530	3.6531	1.7529	24.68	-0.14	0.750			
0.6625	42398.74	3.6500	3.6502	1.6103	24.69	-0.13	0.750			
0.6670	42688.84	3.6470	3.6470	1.4648	24.70	-0.12	0.750			
0.6712	42955.72	3.6440	3.6441	1.3256	24.71	-0.11	0.750			
0.6749	43190.41	3.6410	3.6411	1.2285	24.71	-0.11	0.750			
0.6782	43404.37	3.6380	3.6382	1.1270	24.72	-0.10	0.750			
0.6814	43609.47	3.6350	3.6351	1.0579	24.72	-0.10	0.750			
0.6845	43805.01	3.6320	3.6321	1.0151	24.73	-0.09	0.750			
0.6874	43995.44	3.6290	3.6291	0.9807	24.73	-0.09	0.750			
0.6904	44182.41	3.6260	3.6260	0.9544	24.74	-0.08	0.750			
0.6931	44360.06	3.6230	3.6229	0.9159	24.74	-0.08	0.750			
0.6959	44536.51	3.6200	3.6200	0.8823	24.75	-0.07	0.750			
0.6985	44705.24	3.6170	3.6169	0.8504	24.76	-0.06	0.750			
0.7011	44867.70	3.6140	3.6140	0.8045	24.77	-0.05	0.750			
0.7034	45019.19	3.6110	3.6111	0.7512	24.77	-0.05	0.750			
0.7057	45162.91	3.6080	3.6079	0.6848	24.78	-0.04	0.750			
0.7076	45285.99	3.6050	3.6051	0.6218	24.79	-0.03	0.750			
0.7093	45396.23	3.6020	3.6021	0.5573	24.79	-0.03	0.750			
0.7109	45497.35	3.5990	3.5990	0.5000	24.80	-0.02	0.750			
0.7123	45584.75	3.5960	3.5962	0.4395	24.80	-0.02	0.750			
0.7135	45664.52	3.5930	3.5931	0.3886	24.81	-0.01	0.750			
0.7146	45736.10	3.5900	3.5901	0.3401	24.81	-0.01	0.750			
0.7156	45798.35	3.5870	3.5869	0.2921	24.81	-0.01	0.750			
0.7164	45846.91	3.5840	3.5841	0.2326	24.82	-0.00	0.750			
0.7170	45887.18	3.5810	3.5810	0.1788	24.82	-0.00	0.750			
0.7174	45916.46	3.5780	3.5783	0.1228	24.82	-0.00	0.750			
0.7177	45934.53	3.5750	3.5764	0.0680	24.82	-0.00	0.750			
