Ah_balance (normalized)	Ah_balance (mAh)	Voltage - fit (V)	Voltage -  interpolate (V)	dQ/dV (1/V)	Temperature (°C)	Temperature - diff (°C)	Current (C)	R_DC 0ms (mOhm)	R_DC 50ms (mOhm)	R_DC 50 ms PEC (mOhm)
0.0479	3063.50	4.1970	4.1969	0.7661	25.59	0.57	0.750			
0.0502	3211.90	4.1940	4.1941	0.7709	25.59	0.57	0.750			
0.0526	3364.15	4.1910	4.1909	0.7607	25.59	0.57	0.750			
0.0548	3507.48	4.1880	4.1880	0.7429	25.59	0.57	0.750			
0.0570	3648.25	4.1850	4.1852	0.7329	25.59	0.57	0.750			
0.0591	3783.26	4.1820	4.1822	0.7336	25.59	0.57	0.750			
0.0613	3922.05	4.1790	4.1788	0.7386	25.59	0.57	0.750			
0.0635	4062.93	4.1760	4.1759	0.7410	25.59	0.57	0.750			
0.0657	4206.88	4.1730	4.1731	0.7548	25.59	0.57	0.750			
0.0681	4358.17	4.1700	4.1701	0.7775	25.59	0.57	0.750			
0.0704	4507.27	4.1670	4.1670	0.7777	25.59	0.57	0.750			
0.0728	4656.05	4.1640	4.1640	0.7792	25.59	0.57	0.750			
0.0751	4806.10	4.1610	4.1610	0.7808	25.59	0.57	0.750			
0.0775	4959.35	4.1580	4.1580	0.7737	25.59	0.57	0.750			
0.0798	5106.55	4.1550	4.1550	0.7778	25.59	0.57	0.750			
0.0821	5253.85	4.1520	4.1521	0.7787	25.59	0.57	0.750			
0.0844	5402.83	4.1490	4.1487	0.7811	25.59	0.57	0.750			
0.0868	5553.19	4.1460	4.1460	0.7817	25.59	0.57	0.750			
0.0891	5703.55	4.1430	4.1431	0.7847	25.59	0.57	0.750			
0.0915	5855.49	4.1400	4.1401	0.7909	25.59	0.57	0.750			
0.0939	6010.58	4.1370	4.1369	0.7971	25.59	0.57	0.750			
0.0963	6160.35	4.1340	4.1340	0.7924	25.59	0.57	0.750			
0.0986	6313.00	4.1310	4.1311	0.7966	25.59	0.57	0.750			
0.1011	6468.52	4.1280	4.1280	0.7962	25.59	0.57	0.750			
0.1035	6621.72	4.1250	4.1250	0.7957	25.59	0.57	0.750			
0.1058	6772.82	4.1220	4.1220	0.7960	25.58	0.56	0.750			
0.1082	6924.65	4.1190	4.1190	0.7971	25.58	0.56	0.750			
0.1106	7077.27	4.1160	4.1161	0.8012	25.58	0.56	0.750			
0.1130	7232.00	4.1130	4.1130	0.8034	25.58	0.56	0.750			
0.1154	7386.48	4.1100	4.1100	0.8002	25.58	0.56	0.750			
0.1178	7540.22	4.1070	4.1071	0.8035	25.58	0.56	0.750			
0.1202	7692.59	4.1040	4.1041	0.8063	25.58	0.56	0.750			
0.1226	7848.03	4.1010	4.1006	0.8089	25.58	0.56	0.750			
0.1251	8003.22	4.0980	4.0981	0.8106	25.58	0.56	0.750			
0.1275	8159.16	4.0950	4.0951	0.8179	25.58	0.56	0.750			
0.1300	8320.11	4.0920	4.0921	0.8246	25.57	0.55	0.750			
0.1325	8477.71	4.0890	4.0890	0.8184	25.57	0.55	0.750			
0.1349	8634.72	4.0860	4.0859	0.8204	25.57	0.55	0.750			
0.1374	8792.12	4.0830	4.0830	0.8228	25.57	0.55	0.750			
0.1399	8951.60	4.0800	4.0800	0.8217	25.57	0.55	0.750			
0.1423	9106.74	4.0770	4.0771	0.8250	25.57	0.55	0.750			
0.1448	9264.19	4.0740	4.0741	0.8288	25.57	0.55	0.750			
0.1473	9424.69	4.0710	4.0707	0.8354	25.57	0.55	0.750			
0.1498	9585.25	4.0680	4.0681	0.8422	25.57	0.55	0.750			
0.1523	9747.42	4.0650	4.0651	0.8388	25.57	0.55	0.750			
0.1548	9910.11	4.0620	4.0620	0.8430	25.58	0.56	0.750			
0.1574	10070.67	4.0590	4.0591	0.8417	25.58	0.56	0.750			
0.1599	10232.45	4.0560	4.0556	0.8455	25.58	0.56	0.750			
0.1624	10395.69	4.0530	4.0532	0.8467	25.58	0.56	0.750			
0.1650	10558.42	4.0500	4.0501	0.8534	25.58	0.56	0.750			
0.1676	10723.68	4.0470	4.0470	0.8589	25.57	0.55	0.750			
0.1701	10889.02	4.0440	4.0440	0.8594	25.57	0.55	0.750			
0.1727	11054.71	4.0410	4.0410	0.8626	25.57	0.55	0.750			
0.1753	11222.33	4.0380	4.0380	0.8572	25.57	0.55	0.750			
0.1779	11387.46	4.0350	4.0351	0.8657	25.57	0.55	0.750			
0.1805	11553.31	4.0320	4.0320	0.8668	25.58	0.56	0.750			
0.1831	11718.48	4.0290	4.0290	0.8657	25.58	0.56	0.750			
0.1857	11884.72	4.0260	4.0262	0.8683	25.58	0.56	0.750			
0.1883	12052.43	4.0230	4.0230	0.8660	25.58	0.56	0.750			
0.1909	12219.40	4.0200	4.0200	0.8730	25.58	0.56	0.750			
0.1935	12386.35	4.0170	4.0171	0.8780	25.59	0.57	0.750			
0.1962	12554.89	4.0140	4.0140	0.8795	25.59	0.57	0.750			
0.1988	12724.16	4.0110	4.0110	0.8860	25.59	0.57	0.750			
0.2015	12895.28	4.0080	4.0081	0.8871	25.59	0.57	0.750			
0.2042	13066.22	4.0050	4.0051	0.8919	25.59	0.57	0.750			
0.2069	13239.34	4.0020	4.0020	0.8974	25.59	0.57	0.750			
0.2095	13409.29	3.9990	3.9989	0.8951	25.59	0.57	0.750			
0.2122	13580.79	3.9960	3.9961	0.8978	25.59	0.57	0.750			
0.2149	13754.56	3.9930	3.9930	0.9022	25.59	0.57	0.750			
0.2176	13928.72	3.9900	3.9900	0.9067	25.59	0.57	0.750			
0.2204	14104.03	3.9870	3.9871	0.9115	25.59	0.57	0.750			
0.2231	14277.66	3.9840	3.9841	0.9125	25.59	0.57	0.750			
0.2259	14455.98	3.9810	3.9810	0.9032	25.59	0.57	0.750			
0.2286	14627.52	3.9780	3.9780	0.9085	25.59	0.57	0.750			
0.2313	14800.80	3.9750	3.9751	0.9147	25.60	0.58	0.750			
0.2340	14976.87	3.9720	3.9719	0.9194	25.60	0.58	0.750			
0.2368	15154.28	3.9690	3.9691	0.9196	25.60	0.58	0.750			
0.2396	15331.53	3.9660	3.9661	0.9234	25.60	0.58	0.750			
0.2423	15509.99	3.9630	3.9631	0.9277	25.61	0.59	0.750			
0.2452	15691.87	3.9600	3.9600	0.9320	25.61	0.59	0.750			
0.2479	15866.37	3.9570	3.9569	0.9275	25.61	0.59	0.750			
0.2507	16045.56	3.9540	3.9540	0.9234	25.61	0.59	0.750			
0.2535	16221.91	3.9510	3.9510	0.9327	25.61	0.59	0.750			
0.2563	16401.85	3.9480	3.9480	0.9377	25.60	0.58	0.750			
0.2591	16582.00	3.9450	3.9449	0.9412	25.60	0.58	0.750			
0.2620	16766.78	3.9420	3.9420	0.9334	25.60	0.58	0.750			
0.2648	16945.72	3.9390	3.9391	0.9399	25.60	0.58	0.750			
0.2676	17124.12	3.9360	3.9361	0.9458	25.61	0.59	0.750			
0.2704	17306.56	3.9330	3.9331	0.9513	25.61	0.59	0.750			
0.2732	17486.41	3.9300	3.9301	0.9492	25.61	0.59	0.750			
0.2761	17670.40	3.9270	3.9270	0.9552	25.61	0.59	0.750			
0.2790	17854.90	3.9240	3.9241	0.9633	25.61	0.59	0.750			
0.2819	18042.12	3.9210	3.9210	0.9689	25.61	0.59	0.750			
0.2848	18227.87	3.9180	3.9180	0.9661	25.61	0.59	0.750			
0.2877	18415.55	3.9150	3.9149	0.9577	25.61	0.59	0.750			
0.2906	18597.84	3.9120	3.9121	0.9663	25.61	0.59	0.750			
0.2935	18783.95	3.9090	3.9091	0.9726	25.61	0.59	0.750			
0.2964	18970.91	3.9060	3.9059	0.9738	25.61	0.59	0.750			
0.2993	19157.70	3.9030	3.9031	0.9753	25.61	0.59	0.750			
0.3023	19344.98	3.9000	3.9001	0.9696	25.61	0.59	0.750			
0.3051	19527.94	3.8970	3.8972	0.9846	25.61	0.59	0.750			
0.3081	19718.61	3.8940	3.8941	0.9941	25.61	0.59	0.750			
0.3111	19909.17	3.8910	3.8910	0.9876	25.61	0.59	0.750			
0.3141	20100.30	3.8880	3.8882	0.9969	25.61	0.59	0.750			
0.3171	20295.27	3.8850	3.8852	1.0048	25.61	0.59	0.750			
0.3201	20489.07	3.8820	3.8820	1.0059	25.61	0.59	0.750			
0.3231	20680.84	3.8790	3.8791	0.9928	25.61	0.59	0.750			
0.3261	20869.51	3.8760	3.8760	0.9961	25.61	0.59	0.750			
0.3291	21061.44	3.8730	3.8731	1.0074	25.61	0.59	0.750			
0.3321	21256.09	3.8700	3.8700	1.0145	25.61	0.59	0.750			
0.3352	21451.71	3.8670	3.8668	1.0176	25.61	0.59	0.750			
0.3383	21648.94	3.8640	3.8641	1.0127	25.60	0.58	0.750			
0.3413	21841.81	3.8610	3.8611	1.0199	25.60	0.58	0.750			
0.3443	22037.84	3.8580	3.8581	1.0268	25.59	0.57	0.750			
0.3474	22234.59	3.8550	3.8551	1.0269	25.59	0.57	0.750			
0.3505	22430.91	3.8520	3.8521	1.0292	25.59	0.57	0.750			
0.3536	22630.62	3.8490	3.8491	1.0366	25.59	0.57	0.750			
0.3568	22833.43	3.8460	3.8460	1.0472	25.59	0.57	0.750			
0.3599	23032.85	3.8430	3.8430	1.0433	25.59	0.57	0.750			
0.3631	23237.70	3.8400	3.8399	1.0194	25.58	0.56	0.750			
0.3660	23424.36	3.8370	3.8372	1.0474	25.57	0.55	0.750			
0.3692	23626.23	3.8340	3.8342	1.0681	25.56	0.54	0.750			
0.3725	23838.20	3.8310	3.8306	1.0659	25.55	0.53	0.750	0.328	0.414	
0.3757	24043.10	3.8280	3.8283	1.0831	25.54	0.52	0.750			
0.3789	24252.37	3.8250	3.8254	1.0949	25.54	0.52	0.750			
0.3823	24468.22	3.8220	3.8222	1.1075	25.53	0.51	0.750			
0.3856	24678.47	3.8190	3.8187	1.0890	25.53	0.51	0.750			
0.3889	24888.71	3.8160	3.8161	1.0997	25.52	0.50	0.750			
0.3922	25103.70	3.8130	3.8131	1.1125	25.51	0.49	0.750			
0.3956	25320.62	3.8100	3.8099	1.1213	25.50	0.48	0.750			
0.3990	25535.37	3.8070	3.8070	1.1079	25.48	0.46	0.750			
0.4023	25748.29	3.8040	3.8040	1.1128	25.47	0.45	0.750			
0.4056	25960.85	3.8010	3.8010	1.1226	25.46	0.44	0.750			
0.4090	26175.95	3.7980	3.7979	1.1300	25.45	0.43	0.750			
0.4124	26392.94	3.7950	3.7950	1.1334	25.44	0.42	0.750			
0.4158	26610.81	3.7920	3.7922	1.1461	25.44	0.42	0.750			
0.4193	26832.99	3.7890	3.7891	1.1615	25.43	0.41	0.750			
0.4228	27058.44	3.7860	3.7859	1.1748	25.42	0.40	0.750			
0.4263	27281.95	3.7830	3.7831	1.1860	25.40	0.38	0.750			
0.4298	27509.80	3.7800	3.7802	1.2099	25.39	0.37	0.750			
0.4336	27749.50	3.7770	3.7768	1.2192	25.37	0.35	0.750			
0.4372	27981.48	3.7740	3.7740	1.2354	25.36	0.34	0.750			
0.4409	28219.54	3.7710	3.7711	1.2598	25.35	0.33	0.750			
0.4448	28467.26	3.7680	3.7680	1.2731	25.33	0.31	0.750			
0.4486	28713.01	3.7650	3.7649	1.3030	25.32	0.30	0.750			
0.4525	28962.31	3.7620	3.7621	1.3338	25.31	0.29	0.750			
0.4566	29221.37	3.7590	3.7591	1.3580	25.30	0.28	0.750			
0.4607	29487.00	3.7560	3.7559	1.3973	25.29	0.27	0.750			
0.4649	29755.11	3.7530	3.7531	1.4253	25.27	0.25	0.750			
0.4693	30034.55	3.7500	3.7501	1.4584	25.26	0.24	0.750			
0.4737	30319.07	3.7470	3.7470	1.4792	25.25	0.23	0.750			
0.4782	30602.59	3.7440	3.7441	1.4943	25.24	0.22	0.750			
0.4827	30891.76	3.7410	3.7411	1.5273	25.23	0.21	0.750			
0.4873	31186.83	3.7380	3.7375	1.5785	25.21	0.19	0.750			
0.4920	31487.93	3.7350	3.7344	1.6299	25.20	0.18	0.750			
0.4970	31809.62	3.7320	3.7319	1.6791	25.18	0.16	0.750			
0.5022	32140.20	3.7290	3.7289	1.7536	25.16	0.14	0.750			
0.5075	32482.54	3.7260	3.7259	1.7874	25.15	0.13	0.750			
0.5129	32825.92	3.7230	3.7233	1.8481	25.13	0.11	0.750			
0.5187	33196.44	3.7200	3.7200	1.9101	25.11	0.09	0.750			
0.5244	33558.98	3.7170	3.7168	1.9706	25.10	0.08	0.750			
0.5304	33947.11	3.7140	3.7140	2.0217	25.08	0.06	0.750			
0.5367	34346.51	3.7110	3.7111	2.0449	25.07	0.05	0.750			
0.5428	34740.93	3.7080	3.7080	2.1271	25.05	0.03	0.750			
0.5492	35150.57	3.7050	3.7048	2.1848	25.04	0.02	0.750			
0.5560	35583.09	3.7020	3.7021	2.2493	25.02	-0.00	0.750			
0.5630	36031.30	3.6990	3.6990	2.3248	25.00	-0.02	0.750			
0.5699	36471.55	3.6960	3.6963	2.3825	24.99	-0.03	0.750			
0.5773	36945.65	3.6930	3.6931	2.4387	24.97	-0.05	0.750			
0.5846	37416.95	3.6900	3.6902	2.5270	24.96	-0.06	0.750			
0.5925	37917.38	3.6870	3.6869	2.6089	24.95	-0.07	0.750			
0.6005	38431.17	3.6840	3.6838	2.6671	24.94	-0.08	0.750			
0.6087	38957.68	3.6810	3.6808	2.7365	24.93	-0.09	0.750			
0.6170	39486.25	3.6780	3.6782	2.8191	24.92	-0.10	0.750			
0.6253	40021.65	3.6750	3.6754	2.8816	24.92	-0.10	0.750			
0.6341	40579.40	3.6720	3.6721	2.8970	24.90	-0.12	0.750			
0.6431	41155.50	3.6690	3.6691	2.8798	24.90	-0.12	0.750			
0.6518	41714.20	3.6660	3.6658	2.8655	24.90	-0.12	0.750			
0.6605	42272.63	3.6630	3.6633	2.7844	24.90	-0.12	0.750			
0.6692	42827.32	3.6600	3.6602	2.6961	24.92	-0.10	0.750			
0.6770	43325.16	3.6570	3.6574	2.4686	24.92	-0.10	0.750			
0.6838	43762.55	3.6540	3.6541	2.2111	24.92	-0.10	0.750			
0.6898	44149.40	3.6510	3.6507	1.9812	24.93	-0.09	0.750			
0.6955	44513.48	3.6480	3.6477	1.7903	24.94	-0.08	0.750			
0.7007	44841.89	3.6450	3.6448	1.6197	24.95	-0.07	0.750			
0.7052	45133.48	3.6420	3.6424	1.4277	24.95	-0.07	0.750			
0.7093	45394.29	3.6390	3.6387	1.2678	24.96	-0.06	0.750			
0.7128	45621.00	3.6360	3.6360	1.1091	24.97	-0.05	0.750			
0.7157	45805.88	3.6330	3.6330	0.9869	24.97	-0.05	0.750			
0.7183	45971.99	3.6300	3.6302	0.9266	24.98	-0.04	0.750			
0.7210	46144.52	3.6270	3.6271	0.8957	24.99	-0.03	0.750			
0.7236	46310.08	3.6240	3.6241	0.8547	24.99	-0.03	0.750			
0.7262	46475.08	3.6210	3.6211	0.8306	25.00	-0.02	0.750			
0.7286	46631.86	3.6180	3.6183	0.8073	25.01	-0.01	0.750			
0.7310	46785.59	3.6150	3.6153	0.7809	25.01	-0.01	0.750			
0.7333	46931.97	3.6120	3.6125	0.7302	25.02	-0.00	0.750			
0.7355	47070.33	3.6090	3.6096	0.6841	25.02	0.00	0.750			
0.7375	47202.98	3.6060	3.6065	0.6315	25.03	0.01	0.750			
0.7394	47322.75	3.6030	3.6033	0.5690	25.03	0.01	0.750			
0.7411	47429.76	3.6000	3.6000	0.5013	25.04	0.02	0.750			
0.7424	47511.46	3.5970	3.5969	0.4011	25.04	0.02	0.750			
0.7435	47580.90	3.5940	3.5940	0.3373	25.04	0.02	0.750			
0.7444	47638.94	3.5910	3.5910	0.2756	25.04	0.02	0.750			
0.7451	47687.15	3.5880	3.5878	0.2165	25.04	0.02	0.750			
0.7457	47722.55	3.5850	3.5852	0.1562	25.05	0.03	0.750			
0.7460	47746.88	3.5820	3.5823	0.0991	25.05	0.03	0.750			
