Ah_balance (normalized)	Ah_balance (mAh)	Voltage - fit (V)	Voltage -  interpolate (V)	dQ/dV (1/V)	Temperature (°C)	Temperature - diff (°C)	Current (C)	R_DC 0ms (mOhm)	R_DC 50ms (mOhm)	R_DC 50 ms PEC (mOhm)
0.0468	2995.65	4.1980	4.1980	0.7965	25.76	0.50	0.750			
0.0492	3148.07	4.1950	4.1952	0.7887	25.76	0.50	0.750			
0.0516	3299.46	4.1920	4.1920	0.7771	25.76	0.50	0.750			
0.0538	3445.48	4.1890	4.1891	0.7641	25.76	0.50	0.750			
0.0561	3588.64	4.1860	4.1860	0.7545	25.76	0.50	0.750			
0.0583	3733.63	4.1830	4.1831	0.7568	25.76	0.50	0.750			
0.0606	3878.85	4.1800	4.1801	0.7572	25.76	0.50	0.750			
0.0629	4024.64	4.1770	4.1771	0.7630	25.76	0.50	0.750			
0.0652	4172.47	4.1740	4.1741	0.7655	25.76	0.50	0.750			
0.0675	4319.58	4.1710	4.1710	0.7662	25.77	0.51	0.750			
0.0698	4466.78	4.1680	4.1680	0.7646	25.77	0.51	0.750			
0.0721	4613.84	4.1650	4.1650	0.7647	25.77	0.51	0.750			
0.0744	4760.92	4.1620	4.1619	0.7687	25.77	0.51	0.750			
0.0767	4911.24	4.1590	4.1590	0.7574	25.77	0.51	0.750			
0.0790	5055.15	4.1560	4.1560	0.7591	25.77	0.51	0.750			
0.0812	5199.18	4.1530	4.1531	0.7610	25.77	0.51	0.750			
0.0835	5344.92	4.1500	4.1501	0.7648	25.77	0.51	0.750			
0.0858	5490.76	4.1470	4.1471	0.7670	25.77	0.51	0.750			
0.0881	5638.47	4.1440	4.1440	0.7725	25.77	0.51	0.750			
0.0905	5788.98	4.1410	4.1411	0.7662	25.77	0.51	0.750			
0.0927	5935.62	4.1380	4.1381	0.7767	25.77	0.51	0.750			
0.0950	6082.60	4.1350	4.1352	0.7767	25.77	0.51	0.750			
0.0974	6232.98	4.1320	4.1312	0.7819	25.77	0.51	0.750			
0.0997	6383.03	4.1290	4.1292	0.7867	25.77	0.51	0.750			
0.1021	6536.41	4.1260	4.1261	0.7908	25.77	0.51	0.750			
0.1046	6691.74	4.1230	4.1230	0.7980	25.77	0.51	0.750			
0.1069	6842.79	4.1200	4.1200	0.7877	25.77	0.51	0.750			
0.1093	6994.42	4.1170	4.1170	0.7897	25.77	0.51	0.750			
0.1117	7146.82	4.1140	4.1140	0.7905	25.77	0.51	0.750			
0.1141	7301.23	4.1110	4.1110	0.7834	25.77	0.51	0.750			
0.1164	7450.56	4.1080	4.1080	0.7827	25.78	0.52	0.750			
0.1187	7598.47	4.1050	4.1051	0.7881	25.78	0.52	0.750			
0.1211	7748.70	4.1020	4.1021	0.7953	25.78	0.52	0.750			
0.1235	7901.48	4.0990	4.0990	0.7960	25.78	0.52	0.750			
0.1259	8055.91	4.0960	4.0960	0.8010	25.78	0.52	0.750			
0.1283	8212.15	4.0930	4.0931	0.7953	25.78	0.52	0.750			
0.1307	8364.02	4.0900	4.0902	0.7951	25.78	0.52	0.750			
0.1330	8512.69	4.0870	4.0871	0.7977	25.78	0.52	0.750			
0.1354	8665.36	4.0840	4.0837	0.8057	25.78	0.52	0.750			
0.1378	8819.78	4.0810	4.0811	0.8079	25.78	0.52	0.750			
0.1403	8977.73	4.0780	4.0782	0.8179	25.78	0.52	0.750			
0.1428	9140.46	4.0750	4.0750	0.8247	25.79	0.53	0.750			
0.1453	9297.29	4.0720	4.0720	0.8140	25.79	0.53	0.750			
0.1477	9453.31	4.0690	4.0690	0.8159	25.79	0.53	0.750			
0.1502	9609.68	4.0660	4.0660	0.8140	25.79	0.53	0.750			
0.1526	9767.93	4.0630	4.0630	0.8053	25.79	0.53	0.750			
0.1550	9918.89	4.0600	4.0601	0.8157	25.79	0.53	0.750			
0.1574	10074.30	4.0570	4.0572	0.8191	25.79	0.53	0.750			
0.1599	10232.17	4.0540	4.0532	0.8274	25.79	0.53	0.750			
0.1624	10390.77	4.0510	4.0513	0.8368	25.79	0.53	0.750			
0.1649	10554.29	4.0480	4.0481	0.8330	25.80	0.54	0.750			
0.1675	10718.69	4.0450	4.0450	0.8412	25.80	0.54	0.750			
0.1700	10879.40	4.0420	4.0421	0.8239	25.81	0.55	0.750			
0.1724	11036.23	4.0390	4.0384	0.8259	25.81	0.55	0.750			
0.1749	11194.50	4.0360	4.0362	0.8359	25.81	0.55	0.750			
0.1774	11353.97	4.0330	4.0332	0.8444	25.81	0.55	0.750			
0.1800	11517.45	4.0300	4.0302	0.8543	25.82	0.56	0.750			
0.1825	11682.75	4.0270	4.0271	0.8568	25.82	0.56	0.750			
0.1852	11849.98	4.0240	4.0240	0.8644	25.82	0.56	0.750			
0.1878	12021.75	4.0210	4.0210	0.8538	25.82	0.56	0.750			
0.1904	12185.09	4.0180	4.0180	0.8545	25.82	0.56	0.750			
0.1929	12346.20	4.0150	4.0152	0.8549	25.83	0.57	0.750			
0.1955	12508.93	4.0120	4.0121	0.8569	25.83	0.57	0.750			
0.1980	12672.66	4.0090	4.0088	0.8612	25.83	0.57	0.750			
0.2006	12840.51	4.0060	4.0061	0.8613	25.84	0.58	0.750			
0.2032	13007.29	4.0030	4.0030	0.8723	25.84	0.58	0.750			
0.2059	13175.97	4.0000	4.0001	0.8761	25.84	0.58	0.750			
0.2085	13340.85	3.9970	3.9972	0.8747	25.85	0.59	0.750			
0.2111	13509.76	3.9940	3.9940	0.8809	25.85	0.59	0.750			
0.2138	13681.59	3.9910	3.9911	0.8840	25.85	0.59	0.750			
0.2164	13851.59	3.9880	3.9880	0.8896	25.85	0.59	0.750			
0.2191	14023.98	3.9850	3.9852	0.8916	25.85	0.59	0.750			
0.2218	14195.50	3.9820	3.9819	0.8897	25.85	0.59	0.750			
0.2245	14365.98	3.9790	3.9790	0.8885	25.85	0.59	0.750			
0.2271	14535.61	3.9760	3.9761	0.8800	25.86	0.60	0.750			
0.2297	14703.62	3.9730	3.9731	0.8846	25.86	0.60	0.750			
0.2324	14871.63	3.9700	3.9701	0.8891	25.87	0.61	0.750			
0.2350	15041.86	3.9670	3.9664	0.8958	25.87	0.61	0.750			
0.2378	15217.05	3.9640	3.9641	0.8945	25.87	0.61	0.750			
0.2404	15387.84	3.9610	3.9612	0.9029	25.87	0.61	0.750			
0.2432	15564.62	3.9580	3.9580	0.9099	25.87	0.61	0.750			
0.2460	15741.95	3.9550	3.9550	0.9149	25.87	0.61	0.750			
0.2486	15910.73	3.9520	3.9520	0.9027	25.87	0.61	0.750			
0.2513	16084.42	3.9490	3.9492	0.9039	25.87	0.61	0.750			
0.2541	16259.25	3.9460	3.9460	0.9070	25.87	0.61	0.750			
0.2568	16434.80	3.9430	3.9430	0.9082	25.87	0.61	0.750			
0.2595	16606.53	3.9400	3.9399	0.9103	25.87	0.61	0.750			
0.2622	16781.85	3.9370	3.9369	0.9160	25.87	0.61	0.750			
0.2650	16959.39	3.9340	3.9340	0.9034	25.88	0.62	0.750			
0.2676	17129.42	3.9310	3.9311	0.9100	25.88	0.62	0.750			
0.2704	17302.87	3.9280	3.9282	0.9126	25.89	0.63	0.750			
0.2731	17479.72	3.9250	3.9252	0.9209	25.89	0.63	0.750			
0.2759	17660.26	3.9220	3.9220	0.9029	25.89	0.63	0.750			
0.2786	17831.19	3.9190	3.9192	0.9142	25.89	0.63	0.750			
0.2814	18009.10	3.9160	3.9162	0.9274	25.89	0.63	0.750			
0.2841	18185.21	3.9130	3.9131	0.9205	25.89	0.63	0.750			
0.2869	18363.26	3.9100	3.9102	0.9228	25.89	0.63	0.750			
0.2897	18541.13	3.9070	3.9072	0.9310	25.89	0.63	0.750			
0.2925	18722.52	3.9040	3.9041	0.9378	25.89	0.63	0.750			
0.2955	18909.29	3.9010	3.9010	0.9460	25.89	0.63	0.750			
0.2982	19083.00	3.8980	3.8980	0.9302	25.89	0.63	0.750			
0.3010	19264.75	3.8950	3.8950	0.9216	25.88	0.62	0.750			
0.3038	19440.94	3.8920	3.8921	0.9262	25.88	0.62	0.750			
0.3065	19618.14	3.8890	3.8890	0.9254	25.88	0.62	0.750			
0.3093	19793.88	3.8860	3.8858	0.9275	25.87	0.61	0.750			
0.3121	19971.89	3.8830	3.8831	0.9338	25.87	0.61	0.750			
0.3149	20151.50	3.8800	3.8800	0.9233	25.86	0.60	0.750			
0.3176	20327.12	3.8770	3.8772	0.9309	25.86	0.60	0.750			
0.3204	20506.78	3.8740	3.8742	0.9437	25.85	0.59	0.750			
0.3232	20685.58	3.8710	3.8707	0.9413	25.85	0.59	0.750			
0.3260	20867.13	3.8680	3.8682	0.9432	25.84	0.58	0.750			
0.3289	21048.75	3.8650	3.8651	0.9500	25.83	0.57	0.750			
0.3318	21236.51	3.8620	3.8621	0.9566	25.83	0.57	0.750			
0.3347	21418.50	3.8590	3.8588	0.9411	25.82	0.56	0.750			
0.3375	21599.28	3.8560	3.8560	0.9430	25.82	0.56	0.750			
0.3403	21780.55	3.8530	3.8530	0.9292	25.81	0.55	0.750			
0.3431	21955.31	3.8500	3.8501	0.9368	25.81	0.55	0.750			
0.3458	22133.04	3.8470	3.8472	0.9451	25.80	0.54	0.750			
0.3486	22311.18	3.8440	3.8442	0.9546	25.80	0.54	0.750			
0.3515	22495.06	3.8410	3.8412	0.9431	25.79	0.53	0.750			
0.3543	22675.92	3.8380	3.8382	0.9585	25.78	0.52	0.750			
0.3572	22860.97	3.8350	3.8354	0.9761	25.77	0.51	0.750	0.309	0.414	
0.3601	23047.39	3.8320	3.8316	0.9761	25.76	0.50	0.750			
0.3631	23237.55	3.8290	3.8293	0.9865	25.75	0.49	0.750			
0.3661	23432.19	3.8260	3.8262	0.9963	25.74	0.48	0.750			
0.3692	23629.47	3.8230	3.8230	1.0019	25.74	0.48	0.750			
0.3722	23822.11	3.8200	3.8199	1.0068	25.73	0.47	0.750			
0.3752	24010.68	3.8170	3.8170	0.9758	25.72	0.46	0.750			
0.3780	24194.71	3.8140	3.8140	0.9938	25.71	0.45	0.750			
0.3810	24383.62	3.8110	3.8111	1.0084	25.70	0.44	0.750			
0.3840	24577.73	3.8080	3.8079	1.0235	25.69	0.43	0.750			
0.3872	24781.27	3.8050	3.8050	1.0115	25.68	0.42	0.750			
0.3902	24975.77	3.8020	3.8021	1.0358	25.67	0.41	0.750			
0.3933	25174.31	3.7990	3.7992	1.0592	25.66	0.40	0.750			
0.3965	25377.82	3.7960	3.7963	1.0701	25.65	0.39	0.750			
0.3998	25586.03	3.7930	3.7932	1.0861	25.64	0.38	0.750			
0.4031	25796.10	3.7900	3.7902	1.1035	25.63	0.37	0.750			
0.4064	26012.08	3.7870	3.7871	1.1319	25.62	0.36	0.750			
0.4100	26239.77	3.7840	3.7838	1.1185	25.61	0.35	0.750			
0.4133	26452.91	3.7810	3.7810	1.1371	25.60	0.34	0.750			
0.4167	26669.16	3.7780	3.7782	1.1616	25.59	0.33	0.750			
0.4202	26892.32	3.7750	3.7752	1.1856	25.59	0.33	0.750			
0.4238	27125.37	3.7720	3.7720	1.1871	25.58	0.32	0.750			
0.4273	27350.35	3.7690	3.7692	1.2226	25.56	0.30	0.750			
0.4310	27585.03	3.7660	3.7663	1.2531	25.55	0.29	0.750			
0.4349	27832.01	3.7630	3.7620	1.2880	25.54	0.28	0.750			
0.4387	28079.21	3.7600	3.7603	1.3101	25.53	0.27	0.750			
0.4427	28334.47	3.7570	3.7571	1.3502	25.52	0.26	0.750			
0.4470	28610.76	3.7540	3.7538	1.3580	25.51	0.25	0.750			
0.4510	28864.54	3.7510	3.7511	1.3845	25.50	0.24	0.750			
0.4552	29131.68	3.7480	3.7482	1.4232	25.48	0.22	0.750			
0.4595	29407.65	3.7450	3.7444	1.4503	25.47	0.21	0.750			
0.4640	29696.45	3.7420	3.7421	1.4548	25.46	0.20	0.750			
0.4684	29977.42	3.7390	3.7392	1.4875	25.44	0.18	0.750			
0.4729	30264.74	3.7360	3.7355	1.5336	25.43	0.17	0.750			
0.4775	30560.24	3.7330	3.7334	1.5582	25.41	0.15	0.750			
0.4822	30861.99	3.7300	3.7305	1.6111	25.40	0.14	0.750			
0.4873	31184.15	3.7270	3.7272	1.6411	25.38	0.12	0.750			
0.4922	31498.79	3.7240	3.7238	1.6900	25.37	0.11	0.750			
0.4975	31840.64	3.7210	3.7206	1.7636	25.36	0.10	0.750			
0.5027	32171.58	3.7180	3.7183	1.8913	25.34	0.08	0.750			
0.5083	32533.47	3.7150	3.7155	2.0017	25.32	0.06	0.750			
0.5144	32922.91	3.7120	3.7113	2.1622	25.31	0.05	0.750			
0.5214	33369.91	3.7090	3.7092	2.2069	25.29	0.03	0.750			
0.5282	33805.96	3.7060	3.7060	2.2548	25.28	0.02	0.750			
0.5349	34235.45	3.7030	3.7028	2.2270	25.27	0.01	0.750			
0.5417	34670.93	3.7000	3.6995	2.2354	25.25	-0.01	0.750			
0.5482	35083.57	3.6970	3.6972	2.2313	25.23	-0.03	0.750			
0.5549	35516.11	3.6940	3.6942	2.3159	25.21	-0.05	0.750			
0.5619	35961.29	3.6910	3.6910	2.3587	25.19	-0.07	0.750			
0.5693	36437.90	3.6880	3.6882	2.4481	25.18	-0.08	0.750			
0.5770	36926.47	3.6850	3.6849	2.4914	25.16	-0.10	0.750			
0.5846	37411.98	3.6820	3.6819	2.5817	25.15	-0.11	0.750			
0.5922	37903.19	3.6790	3.6792	2.6405	25.14	-0.12	0.750			
0.6004	38422.63	3.6760	3.6765	2.6487	25.14	-0.12	0.750			
0.6083	38930.63	3.6730	3.6730	2.6668	25.13	-0.13	0.750			
0.6163	39446.21	3.6700	3.6705	2.7082	25.12	-0.14	0.750			
0.6247	39981.46	3.6670	3.6671	2.5919	25.12	-0.14	0.750			
0.6324	40473.01	3.6640	3.6643	2.4417	25.13	-0.13	0.750			
0.6397	40941.59	3.6610	3.6608	2.2865	25.13	-0.13	0.750			
0.6459	41335.01	3.6580	3.6580	2.0032	25.14	-0.12	0.750			
0.6515	41695.93	3.6550	3.6546	1.8264	25.14	-0.12	0.750			
0.6567	42030.25	3.6520	3.6522	1.6792	25.14	-0.12	0.750			
0.6615	42338.57	3.6490	3.6491	1.5397	25.14	-0.12	0.750			
0.6658	42613.79	3.6460	3.6461	1.4073	25.15	-0.11	0.750			
0.6698	42869.08	3.6430	3.6431	1.2887	25.16	-0.10	0.750			
0.6736	43111.61	3.6400	3.6400	1.2011	25.17	-0.09	0.750			
0.6769	43324.76	3.6370	3.6370	1.1145	25.17	-0.09	0.750			
0.6801	43526.69	3.6340	3.6340	1.0620	25.18	-0.08	0.750			
0.6832	43722.52	3.6310	3.6311	1.0203	25.18	-0.08	0.750			
0.6862	43916.42	3.6280	3.6280	0.9713	25.18	-0.08	0.750			
0.6891	44100.48	3.6250	3.6250	0.9270	25.19	-0.07	0.750			
0.6918	44273.07	3.6220	3.6222	0.9133	25.20	-0.06	0.750			
0.6945	44445.28	3.6190	3.6193	0.8877	25.20	-0.06	0.750			
0.6971	44612.48	3.6160	3.6154	0.8499	25.21	-0.05	0.750			
0.6996	44776.17	3.6130	3.6133	0.8050	25.22	-0.04	0.750			
0.7020	44930.60	3.6100	3.6103	0.7610	25.23	-0.03	0.750			
0.7043	45076.33	3.6070	3.6071	0.7059	25.24	-0.02	0.750			
0.7064	45209.20	3.6040	3.6039	0.6360	25.25	-0.01	0.750			
0.7081	45317.54	3.6010	3.6009	0.5599	25.25	-0.01	0.750			
0.7097	45419.49	3.5980	3.5977	0.5034	25.26	-0.00	0.750			
0.7111	45510.21	3.5950	3.5952	0.4469	25.27	0.01	0.750			
0.7123	45589.99	3.5920	3.5920	0.3941	25.27	0.01	0.750			
0.7134	45660.67	3.5890	3.5889	0.3402	25.27	0.01	0.750			
0.7144	45720.92	3.5860	3.5859	0.2875	25.28	0.02	0.750			
0.7152	45770.81	3.5830	3.5829	0.2351	25.28	0.02	0.750			
0.7158	45811.31	3.5800	3.5803	0.1827	25.28	0.02	0.750			
0.7163	45842.49	3.5770	3.5778	0.1284	25.29	0.03	0.750			
0.7166	45863.32	3.5740	3.5752	0.0660	25.29	0.03	0.750			
0.7167	45869.97	3.5710	3.5735	-0.0085	25.29	0.03	0.750			
