Ah_balance (normalized)	Ah_balance (mAh)	Voltage - fit (V)	Voltage -  interpolate (V)	dQ/dV (1/V)	Temperature (°C)	Temperature - diff (°C)	Current (C)	R_DC 0ms (mOhm)	R_DC 50ms (mOhm)	R_DC 50 ms PEC (mOhm)
0.0477	3050.28	4.1990	4.1990	0.8073	25.47	0.43	0.750			
0.0500	3202.11	4.1960	4.1961	0.7805	25.47	0.43	0.750			
0.0524	3351.11	4.1930	4.1929	0.7647	25.47	0.43	0.750			
0.0546	3493.14	4.1900	4.1900	0.7585	25.47	0.43	0.750			
0.0568	3636.44	4.1870	4.1870	0.7536	25.47	0.43	0.750			
0.0591	3781.42	4.1840	4.1838	0.7543	25.47	0.43	0.750			
0.0614	3926.43	4.1810	4.1810	0.7544	25.47	0.43	0.750			
0.0636	4071.02	4.1780	4.1781	0.7541	25.47	0.43	0.750			
0.0659	4216.61	4.1750	4.1750	0.7587	25.47	0.43	0.750			
0.0682	4362.86	4.1720	4.1720	0.7601	25.47	0.43	0.750			
0.0704	4507.41	4.1690	4.1690	0.7555	25.47	0.43	0.750			
0.0727	4652.75	4.1660	4.1660	0.7589	25.47	0.43	0.750			
0.0750	4798.75	4.1630	4.1630	0.7617	25.47	0.43	0.750			
0.0773	4945.52	4.1600	4.1600	0.7622	25.47	0.43	0.750			
0.0796	5091.57	4.1570	4.1570	0.7634	25.47	0.43	0.750			
0.0818	5237.77	4.1540	4.1540	0.7631	25.47	0.43	0.750			
0.0841	5385.29	4.1510	4.1509	0.7642	25.47	0.43	0.750			
0.0864	5531.53	4.1480	4.1480	0.7684	25.47	0.43	0.750			
0.0887	5679.04	4.1450	4.1450	0.7660	25.47	0.43	0.750			
0.0910	5826.08	4.1420	4.1419	0.7682	25.47	0.43	0.750			
0.0933	5974.16	4.1390	4.1390	0.7705	25.47	0.43	0.750			
0.0957	6122.26	4.1360	4.1360	0.7699	25.47	0.43	0.750			
0.0980	6270.67	4.1330	4.1330	0.7729	25.47	0.43	0.750			
0.1003	6419.08	4.1300	4.1300	0.7733	25.47	0.43	0.750			
0.1026	6565.68	4.1270	4.1270	0.7749	25.47	0.43	0.750			
0.1049	6716.35	4.1240	4.1240	0.7775	25.47	0.43	0.750			
0.1073	6865.70	4.1210	4.1210	0.7762	25.47	0.43	0.750			
0.1096	7014.91	4.1180	4.1180	0.7780	25.47	0.43	0.750			
0.1119	7164.35	4.1150	4.1151	0.7810	25.47	0.43	0.750			
0.1143	7315.09	4.1120	4.1119	0.7747	25.47	0.43	0.750			
0.1167	7466.33	4.1090	4.1089	0.7684	25.47	0.43	0.750			
0.1189	7612.74	4.1060	4.1061	0.7585	25.47	0.43	0.750			
0.1212	7758.40	4.1030	4.1031	0.7519	25.47	0.43	0.750			
0.1234	7898.48	4.1000	4.1004	0.7519	25.47	0.43	0.750			
0.1256	8038.33	4.0970	4.0968	0.7513	25.47	0.43	0.750			
0.1279	8183.78	4.0940	4.0940	0.7480	25.47	0.43	0.750			
0.1301	8326.01	4.0910	4.0910	0.7665	25.48	0.44	0.750			
0.1324	8476.05	4.0880	4.0882	0.7873	25.48	0.44	0.750			
0.1348	8627.62	4.0850	4.0841	0.7953	25.48	0.44	0.750			
0.1372	8781.11	4.0820	4.0822	0.8047	25.48	0.44	0.750			
0.1396	8937.02	4.0790	4.0791	0.8092	25.48	0.44	0.750			
0.1421	9096.92	4.0760	4.0760	0.8156	25.48	0.44	0.750			
0.1446	9253.02	4.0730	4.0730	0.8011	25.48	0.44	0.750			
0.1470	9407.69	4.0700	4.0701	0.8047	25.48	0.44	0.750			
0.1494	9562.14	4.0670	4.0670	0.8050	25.48	0.44	0.750			
0.1518	9717.17	4.0640	4.0640	0.8009	25.48	0.44	0.750			
0.1542	9868.56	4.0610	4.0610	0.8082	25.48	0.44	0.750			
0.1566	10023.60	4.0580	4.0581	0.8149	25.48	0.44	0.750			
0.1591	10180.91	4.0550	4.0547	0.8202	25.48	0.44	0.750			
0.1616	10339.34	4.0520	4.0521	0.8233	25.48	0.44	0.750			
0.1641	10504.22	4.0490	4.0490	0.8050	25.48	0.44	0.750			
0.1665	10656.54	4.0460	4.0459	0.8138	25.48	0.44	0.750			
0.1689	10809.93	4.0430	4.0432	0.8242	25.48	0.44	0.750			
0.1713	10966.16	4.0400	4.0401	0.8269	25.48	0.44	0.750			
0.1738	11125.56	4.0370	4.0372	0.8329	25.48	0.44	0.750			
0.1764	11288.22	4.0340	4.0342	0.8320	25.48	0.44	0.750			
0.1789	11450.05	4.0310	4.0311	0.8450	25.49	0.45	0.750			
0.1815	11613.79	4.0280	4.0281	0.8496	25.49	0.45	0.750			
0.1840	11773.39	4.0250	4.0249	0.8430	25.49	0.45	0.750			
0.1865	11936.62	4.0220	4.0221	0.8482	25.49	0.45	0.750			
0.1891	12103.84	4.0190	4.0190	0.8425	25.50	0.46	0.750			
0.1916	12264.68	4.0160	4.0161	0.8527	25.50	0.46	0.750			
0.1942	12428.39	4.0130	4.0131	0.8501	25.51	0.47	0.750			
0.1967	12591.64	4.0100	4.0097	0.8568	25.51	0.47	0.750			
0.1993	12756.80	4.0070	4.0071	0.8617	25.51	0.47	0.750			
0.2019	12922.78	4.0040	4.0040	0.8599	25.51	0.47	0.750			
0.2045	13088.60	4.0010	4.0011	0.8647	25.51	0.47	0.750			
0.2071	13254.62	3.9980	3.9981	0.8602	25.51	0.47	0.750			
0.2097	13421.15	3.9950	3.9942	0.8663	25.51	0.47	0.750			
0.2123	13588.31	3.9920	3.9921	0.8657	25.51	0.47	0.750			
0.2149	13753.30	3.9890	3.9891	0.8717	25.51	0.47	0.750			
0.2176	13923.57	3.9860	3.9860	0.8786	25.51	0.47	0.750			
0.2202	14094.01	3.9830	3.9829	0.8790	25.51	0.47	0.750			
0.2228	14258.73	3.9800	3.9800	0.8769	25.51	0.47	0.750			
0.2255	14429.63	3.9770	3.9771	0.8725	25.51	0.47	0.750			
0.2281	14596.84	3.9740	3.9740	0.8783	25.51	0.47	0.750			
0.2307	14765.29	3.9710	3.9709	0.8789	25.52	0.48	0.750			
0.2333	14932.18	3.9680	3.9682	0.8749	25.52	0.48	0.750			
0.2360	15101.59	3.9650	3.9651	0.8808	25.52	0.48	0.750			
0.2386	15273.52	3.9620	3.9620	0.8770	25.52	0.48	0.750			
0.2412	15439.81	3.9590	3.9590	0.8850	25.52	0.48	0.750			
0.2439	15610.53	3.9560	3.9560	0.8924	25.52	0.48	0.750			
0.2466	15780.65	3.9530	3.9526	0.8885	25.52	0.48	0.750			
0.2493	15953.38	3.9500	3.9502	0.8898	25.52	0.48	0.750			
0.2520	16125.20	3.9470	3.9471	0.8907	25.52	0.48	0.750			
0.2546	16295.85	3.9440	3.9441	0.8893	25.53	0.49	0.750			
0.2573	16467.52	3.9410	3.9409	0.8890	25.53	0.49	0.750			
0.2599	16635.11	3.9380	3.9380	0.8821	25.53	0.49	0.750			
0.2626	16806.61	3.9350	3.9350	0.8740	25.53	0.49	0.750			
0.2652	16973.84	3.9320	3.9320	0.8798	25.52	0.48	0.750			
0.2678	17140.89	3.9290	3.9291	0.8831	25.52	0.48	0.750			
0.2705	17309.82	3.9260	3.9261	0.8825	25.51	0.47	0.750			
0.2731	17479.20	3.9230	3.9230	0.8850	25.51	0.47	0.750			
0.2758	17651.99	3.9200	3.9201	0.8788	25.51	0.47	0.750			
0.2784	17819.76	3.9170	3.9170	0.8888	25.51	0.47	0.750			
0.2811	17991.06	3.9140	3.9140	0.8919	25.51	0.47	0.750			
0.2838	18160.90	3.9110	3.9111	0.8902	25.51	0.47	0.750			
0.2864	18331.55	3.9080	3.9082	0.8944	25.51	0.47	0.750			
0.2892	18505.90	3.9050	3.9051	0.8951	25.50	0.46	0.750			
0.2919	18679.17	3.9020	3.9020	0.8957	25.50	0.46	0.750			
0.2946	18852.74	3.8990	3.8990	0.8994	25.49	0.45	0.750			
0.2972	19020.88	3.8960	3.8959	0.8893	25.49	0.45	0.750			
0.2999	19194.85	3.8930	3.8929	0.8834	25.49	0.45	0.750			
0.3025	19362.51	3.8900	3.8900	0.8857	25.48	0.44	0.750			
0.3052	19531.68	3.8870	3.8871	0.8886	25.48	0.44	0.750			
0.3079	19702.47	3.8840	3.8841	0.8919	25.47	0.43	0.750			
0.3105	19873.09	3.8810	3.8810	0.8918	25.47	0.43	0.750			
0.3132	20047.00	3.8780	3.8781	0.8802	25.46	0.42	0.750			
0.3159	20214.96	3.8750	3.8750	0.8916	25.45	0.41	0.750			
0.3185	20385.17	3.8720	3.8721	0.8995	25.44	0.40	0.750			
0.3212	20556.22	3.8690	3.8690	0.8959	25.43	0.39	0.750			
0.3239	20730.81	3.8660	3.8661	0.9003	25.43	0.39	0.750			
0.3267	20905.70	3.8630	3.8631	0.9054	25.42	0.38	0.750			
0.3294	21081.31	3.8600	3.8601	0.9081	25.41	0.37	0.750			
0.3322	21259.63	3.8570	3.8569	0.9134	25.41	0.37	0.750			
0.3348	21428.12	3.8540	3.8539	0.9034	25.40	0.36	0.750			
0.3376	21606.86	3.8510	3.8509	0.8897	25.39	0.35	0.750			
0.3402	21773.42	3.8480	3.8482	0.9062	25.39	0.35	0.750			
0.3429	21945.07	3.8450	3.8451	0.9199	25.38	0.34	0.750			
0.3457	22123.64	3.8420	3.8420	0.9325	25.37	0.33	0.750			
0.3485	22302.14	3.8390	3.8389	0.9437	25.37	0.33	0.750	0.309	0.444	
0.3513	22486.25	3.8360	3.8362	0.9420	25.36	0.32	0.750			
0.3542	22670.22	3.8330	3.8332	0.9517	25.35	0.31	0.750			
0.3571	22853.97	3.8300	3.8300	0.9681	25.34	0.30	0.750			
0.3599	23036.49	3.8270	3.8266	0.9622	25.33	0.29	0.750			
0.3628	23221.67	3.8240	3.8241	0.9688	25.32	0.28	0.750			
0.3658	23411.60	3.8210	3.8212	0.9796	25.32	0.28	0.750			
0.3688	23603.51	3.8180	3.8180	0.9902	25.31	0.27	0.750			
0.3718	23797.14	3.8150	3.8149	1.0009	25.30	0.26	0.750			
0.3748	23985.79	3.8120	3.8120	0.9768	25.29	0.25	0.750			
0.3776	24168.50	3.8090	3.8090	0.9943	25.29	0.25	0.750			
0.3806	24360.12	3.8060	3.8060	1.0098	25.28	0.24	0.750			
0.3837	24554.59	3.8030	3.8029	1.0244	25.27	0.23	0.750			
0.3868	24757.43	3.8000	3.8001	1.0164	25.26	0.22	0.750			
0.3899	24952.10	3.7970	3.7971	1.0444	25.25	0.21	0.750			
0.3930	25153.68	3.7940	3.7941	1.0609	25.24	0.20	0.750			
0.3962	25354.00	3.7910	3.7913	1.0765	25.22	0.18	0.750			
0.3994	25563.23	3.7880	3.7883	1.0998	25.22	0.18	0.750			
0.4028	25777.97	3.7850	3.7852	1.1259	25.21	0.17	0.750			
0.4062	25997.94	3.7820	3.7823	1.1580	25.21	0.17	0.750			
0.4098	26230.20	3.7790	3.7787	1.1829	25.20	0.16	0.750			
0.4133	26452.28	3.7760	3.7760	1.1668	25.19	0.15	0.750			
0.4168	26677.16	3.7730	3.7731	1.1940	25.17	0.13	0.750			
0.4203	26901.38	3.7700	3.7702	1.2070	25.16	0.12	0.750			
0.4240	27134.22	3.7670	3.7671	1.2146	25.15	0.11	0.750			
0.4276	27368.14	3.7640	3.7642	1.2495	25.14	0.10	0.750			
0.4314	27607.93	3.7610	3.7612	1.2864	25.13	0.09	0.750			
0.4354	27862.62	3.7580	3.7576	1.3276	25.12	0.08	0.750			
0.4394	28124.29	3.7550	3.7551	1.3287	25.11	0.07	0.750			
0.4435	28385.69	3.7520	3.7521	1.3588	25.10	0.06	0.750			
0.4477	28650.02	3.7490	3.7491	1.4083	25.09	0.05	0.750			
0.4519	28922.64	3.7460	3.7461	1.4587	25.08	0.04	0.750			
0.4561	29192.37	3.7430	3.7428	1.4764	25.07	0.03	0.750			
0.4608	29489.29	3.7400	3.7401	1.4760	25.06	0.02	0.750			
0.4654	29783.25	3.7370	3.7371	1.5102	25.05	0.01	0.750			
0.4700	30078.07	3.7340	3.7342	1.5264	25.04	-0.00	0.750			
0.4745	30366.83	3.7310	3.7314	1.5688	25.02	-0.02	0.750			
0.4791	30662.40	3.7280	3.7281	1.6205	25.01	-0.03	0.750			
0.4841	30980.76	3.7250	3.7252	1.6965	25.00	-0.04	0.750			
0.4894	31322.89	3.7220	3.7224	1.7731	24.99	-0.05	0.750			
0.4948	31666.57	3.7190	3.7193	1.8482	24.98	-0.06	0.750			
0.5004	32025.21	3.7160	3.7155	1.8561	24.96	-0.08	0.750			
0.5059	32377.24	3.7130	3.7126	1.9393	24.95	-0.09	0.750			
0.5115	32735.05	3.7100	3.7095	1.9833	24.94	-0.10	0.750			
0.5177	33134.14	3.7070	3.7075	2.0278	24.93	-0.11	0.750			
0.5239	33527.14	3.7040	3.7039	2.0825	24.92	-0.12	0.750			
0.5302	33934.37	3.7010	3.7008	2.1631	24.90	-0.14	0.750			
0.5368	34356.35	3.6980	3.6981	2.2188	24.89	-0.15	0.750			
0.5434	34779.48	3.6950	3.6946	2.3330	24.88	-0.16	0.750			
0.5505	35228.91	3.6920	3.6919	2.3486	24.88	-0.16	0.750			
0.5574	35672.59	3.6890	3.6887	2.4313	24.87	-0.17	0.750			
0.5647	36142.34	3.6860	3.6865	2.5098	24.87	-0.17	0.750			
0.5719	36602.18	3.6830	3.6829	2.4743	24.86	-0.18	0.750			
0.5793	37075.79	3.6800	3.6798	2.5678	24.86	-0.18	0.750			
0.5869	37560.21	3.6770	3.6774	2.4782	24.86	-0.18	0.750			
0.5942	38025.92	3.6740	3.6734	2.4946	24.86	-0.18	0.750			
0.6014	38491.21	3.6710	3.6716	2.4164	24.86	-0.18	0.750			
0.6084	38938.03	3.6680	3.6683	2.2221	24.86	-0.18	0.750			
0.6146	39336.74	3.6650	3.6653	2.0429	24.87	-0.17	0.750			
0.6204	39706.83	3.6620	3.6625	1.9077	24.88	-0.16	0.750			
0.6259	40056.71	3.6590	3.6589	1.7749	24.89	-0.15	0.750			
0.6311	40393.18	3.6560	3.6561	1.6754	24.91	-0.13	0.750			
0.6360	40702.54	3.6530	3.6531	1.5500	24.92	-0.12	0.750			
0.6406	40996.28	3.6500	3.6500	1.4681	24.93	-0.11	0.750			
0.6445	41249.28	3.6470	3.6471	1.3210	24.94	-0.10	0.750			
0.6483	41488.23	3.6440	3.6441	1.2273	24.94	-0.10	0.750			
0.6518	41712.48	3.6410	3.6411	1.1376	24.95	-0.09	0.750			
0.6550	41919.71	3.6380	3.6382	1.0893	24.95	-0.09	0.750			
0.6581	42121.29	3.6350	3.6352	1.0460	24.96	-0.08	0.750			
0.6612	42315.06	3.6320	3.6321	0.9956	24.96	-0.08	0.750			
0.6641	42502.53	3.6290	3.6292	0.9652	24.97	-0.07	0.750			
0.6670	42688.57	3.6260	3.6261	0.9371	24.98	-0.06	0.750			
0.6698	42867.94	3.6230	3.6229	0.9006	24.98	-0.06	0.750			
0.6725	43039.00	3.6200	3.6199	0.8416	24.99	-0.05	0.750			
0.6749	43196.40	3.6170	3.6170	0.8008	25.00	-0.04	0.750			
0.6773	43348.68	3.6140	3.6140	0.7540	25.01	-0.03	0.750			
0.6795	43487.71	3.6110	3.6111	0.7114	25.02	-0.02	0.750			
0.6816	43620.06	3.6080	3.6082	0.6550	25.03	-0.01	0.750			
0.6834	43739.53	3.6050	3.6053	0.6121	25.04	-0.00	0.750			
0.6852	43852.50	3.6020	3.6020	0.5657	25.04	0.00	0.750			
0.6869	43958.44	3.5990	3.5992	0.5106	25.05	0.01	0.750			
0.6883	44051.85	3.5960	3.5963	0.4516	25.05	0.01	0.750			
0.6896	44133.81	3.5930	3.5933	0.4033	25.06	0.02	0.750			
0.6907	44203.13	3.5900	3.5903	0.3581	25.06	0.02	0.750			
0.6917	44269.28	3.5870	3.5878	0.3123	25.07	0.03	0.750			
0.6925	44322.61	3.5840	3.5843	0.2615	25.07	0.03	0.750			
0.6933	44370.51	3.5810	3.5820	0.2241	25.07	0.03	0.750			
0.6940	44415.09	3.5780	3.5788	0.1785	25.08	0.04	0.750			
0.6945	44450.26	3.5750	3.5748	0.0947	25.08	0.04	0.750			
0.6947	44460.07	3.5720	3.5727	0.0010	25.08	0.04	0.750			
