Ah_balance (normalized)	Ah_balance (mAh)	Voltage - fit (V)	Voltage -  interpolate (V)	dQ/dV (1/V)	Temperature (°C)	Temperature - diff (°C)	Current (C)	R_DC 0ms (mOhm)	R_DC 50ms (mOhm)	R_DC 50 ms PEC (mOhm)
0.0466	2984.89	4.1990	4.1990	0.7536	25.71	0.57	0.750			
0.0489	3130.20	4.1960	4.1961	0.7576	25.71	0.57	0.750			
0.0512	3275.82	4.1930	4.1929	0.7577	25.71	0.57	0.750			
0.0535	3421.15	4.1900	4.1900	0.7576	25.71	0.57	0.750			
0.0557	3566.10	4.1870	4.1870	0.7589	25.71	0.57	0.750			
0.0580	3712.47	4.1840	4.1840	0.7577	25.71	0.57	0.750			
0.0603	3857.87	4.1810	4.1810	0.7616	25.71	0.57	0.750			
0.0626	4003.59	4.1780	4.1780	0.7629	25.71	0.57	0.750			
0.0649	4150.55	4.1750	4.1750	0.7680	25.71	0.57	0.750			
0.0672	4299.13	4.1720	4.1720	0.7685	25.71	0.57	0.750			
0.0695	4447.22	4.1690	4.1690	0.7686	25.71	0.57	0.750			
0.0718	4594.03	4.1660	4.1661	0.7710	25.71	0.57	0.750			
0.0741	4743.64	4.1630	4.1630	0.7711	25.72	0.58	0.750			
0.0764	4890.28	4.1600	4.1599	0.7676	25.72	0.58	0.750			
0.0787	5037.73	4.1570	4.1570	0.7675	25.72	0.58	0.750			
0.0810	5183.58	4.1540	4.1541	0.7718	25.72	0.58	0.750			
0.0833	5334.18	4.1510	4.1510	0.7735	25.72	0.58	0.750			
0.0857	5482.25	4.1480	4.1479	0.7725	25.72	0.58	0.750			
0.0880	5630.02	4.1450	4.1450	0.7734	25.72	0.58	0.750			
0.0903	5779.29	4.1420	4.1420	0.7756	25.72	0.58	0.750			
0.0926	5927.65	4.1390	4.1390	0.7753	25.72	0.58	0.750			
0.0950	6078.69	4.1360	4.1359	0.7685	25.72	0.58	0.750			
0.0972	6223.07	4.1330	4.1330	0.7726	25.72	0.58	0.750			
0.0995	6371.13	4.1300	4.1301	0.7798	25.73	0.59	0.750			
0.1019	6520.31	4.1270	4.1270	0.7812	25.73	0.59	0.750			
0.1042	6670.64	4.1240	4.1238	0.7832	25.73	0.59	0.750			
0.1066	6822.19	4.1210	4.1212	0.7882	25.73	0.59	0.750			
0.1090	6974.82	4.1180	4.1180	0.7935	25.73	0.59	0.750			
0.1114	7128.83	4.1150	4.1150	0.7958	25.73	0.59	0.750			
0.1137	7279.91	4.1120	4.1120	0.7921	25.73	0.59	0.750			
0.1161	7432.35	4.1090	4.1090	0.7937	25.73	0.59	0.750			
0.1185	7585.57	4.1060	4.1060	0.7978	25.73	0.59	0.750			
0.1210	7741.13	4.1030	4.1030	0.7896	25.73	0.59	0.750			
0.1233	7889.90	4.1000	4.1000	0.7951	25.74	0.60	0.750			
0.1257	8041.65	4.0970	4.0970	0.8012	25.74	0.60	0.750			
0.1281	8195.69	4.0940	4.0938	0.8042	25.74	0.60	0.750			
0.1305	8350.62	4.0910	4.0911	0.8070	25.74	0.60	0.750			
0.1330	8509.42	4.0880	4.0880	0.8004	25.74	0.60	0.750			
0.1353	8662.25	4.0850	4.0851	0.8040	25.75	0.61	0.750			
0.1378	8816.19	4.0820	4.0820	0.8145	25.75	0.61	0.750			
0.1401	8968.51	4.0790	4.0791	0.8135	25.75	0.61	0.750			
0.1426	9126.17	4.0760	4.0761	0.8176	25.75	0.61	0.750			
0.1451	9286.52	4.0730	4.0730	0.8215	25.75	0.61	0.750			
0.1476	9444.74	4.0700	4.0701	0.8253	25.76	0.62	0.750			
0.1501	9605.43	4.0670	4.0670	0.8306	25.76	0.62	0.750			
0.1525	9760.97	4.0640	4.0639	0.8245	25.76	0.62	0.750			
0.1550	9918.77	4.0610	4.0610	0.8265	25.76	0.62	0.750			
0.1575	10078.69	4.0580	4.0580	0.8271	25.76	0.62	0.750			
0.1600	10238.43	4.0550	4.0550	0.8291	25.77	0.63	0.750			
0.1625	10398.35	4.0520	4.0521	0.8341	25.77	0.63	0.750			
0.1649	10556.18	4.0490	4.0490	0.8331	25.77	0.63	0.750			
0.1675	10717.15	4.0460	4.0459	0.8389	25.77	0.63	0.750			
0.1700	10879.71	4.0430	4.0430	0.8323	25.77	0.63	0.750			
0.1725	11039.06	4.0400	4.0401	0.8396	25.77	0.63	0.750			
0.1750	11201.19	4.0370	4.0371	0.8477	25.77	0.63	0.750			
0.1775	11363.10	4.0340	4.0339	0.8459	25.77	0.63	0.750			
0.1801	11525.44	4.0310	4.0311	0.8506	25.77	0.63	0.750			
0.1826	11688.96	4.0280	4.0280	0.8512	25.77	0.63	0.750			
0.1852	11853.63	4.0250	4.0251	0.8564	25.77	0.63	0.750			
0.1878	12019.81	4.0220	4.0220	0.8560	25.77	0.63	0.750			
0.1904	12183.95	4.0190	4.0190	0.8618	25.77	0.63	0.750			
0.1929	12348.72	4.0160	4.0161	0.8664	25.77	0.63	0.750			
0.1956	12517.70	4.0130	4.0129	0.8663	25.78	0.64	0.750			
0.1982	12683.87	4.0100	4.0101	0.8680	25.78	0.64	0.750			
0.2008	12850.72	4.0070	4.0071	0.8707	25.79	0.65	0.750			
0.2034	13016.93	4.0040	4.0037	0.8744	25.79	0.65	0.750			
0.2060	13184.78	4.0010	4.0010	0.8773	25.79	0.65	0.750			
0.2086	13353.27	3.9980	3.9980	0.8737	25.79	0.65	0.750			
0.2113	13521.24	3.9950	3.9951	0.8817	25.80	0.66	0.750			
0.2139	13690.40	3.9920	3.9921	0.8857	25.80	0.66	0.750			
0.2166	13861.86	3.9890	3.9891	0.8895	25.80	0.66	0.750			
0.2193	14032.92	3.9860	3.9860	0.8905	25.80	0.66	0.750			
0.2219	14204.35	3.9830	3.9831	0.8939	25.80	0.66	0.750			
0.2247	14378.63	3.9800	3.9800	0.8966	25.81	0.67	0.750			
0.2273	14549.42	3.9770	3.9770	0.8941	25.81	0.67	0.750			
0.2300	14720.58	3.9740	3.9740	0.8953	25.81	0.67	0.750			
0.2327	14892.05	3.9710	3.9711	0.8932	25.81	0.67	0.750			
0.2354	15063.82	3.9680	3.9680	0.8989	25.81	0.67	0.750			
0.2381	15236.71	3.9650	3.9651	0.9021	25.81	0.67	0.750			
0.2408	15410.15	3.9620	3.9616	0.9020	25.81	0.67	0.750			
0.2435	15587.10	3.9590	3.9590	0.8978	25.81	0.67	0.750			
0.2462	15756.10	3.9560	3.9561	0.9008	25.81	0.67	0.750			
0.2489	15928.84	3.9530	3.9530	0.9046	25.82	0.68	0.750			
0.2516	16102.33	3.9500	3.9500	0.9104	25.82	0.68	0.750			
0.2543	16274.66	3.9470	3.9468	0.9091	25.82	0.68	0.750			
0.2570	16451.06	3.9440	3.9441	0.9114	25.82	0.68	0.750			
0.2598	16627.81	3.9410	3.9410	0.9199	25.82	0.68	0.750			
0.2626	16805.32	3.9380	3.9381	0.9236	25.82	0.68	0.750			
0.2653	16981.37	3.9350	3.9349	0.9176	25.82	0.68	0.750			
0.2681	17159.84	3.9320	3.9320	0.9204	25.82	0.68	0.750			
0.2709	17336.52	3.9290	3.9291	0.9228	25.82	0.68	0.750			
0.2736	17513.48	3.9260	3.9260	0.9299	25.83	0.69	0.750			
0.2764	17692.55	3.9230	3.9230	0.9344	25.83	0.69	0.750			
0.2792	17869.81	3.9200	3.9200	0.9324	25.83	0.69	0.750			
0.2821	18052.78	3.9170	3.9169	0.9214	25.83	0.69	0.750			
0.2849	18230.44	3.9140	3.9141	0.9295	25.83	0.69	0.750			
0.2876	18406.81	3.9110	3.9111	0.9343	25.83	0.69	0.750			
0.2904	18585.04	3.9080	3.9078	0.9369	25.83	0.69	0.750			
0.2932	18766.49	3.9050	3.9051	0.9339	25.83	0.69	0.750			
0.2960	18945.70	3.9020	3.9021	0.9372	25.82	0.68	0.750			
0.2989	19127.02	3.8990	3.8991	0.9415	25.82	0.68	0.750			
0.3017	19309.69	3.8960	3.8960	0.9525	25.81	0.67	0.750			
0.3045	19488.19	3.8930	3.8930	0.9482	25.81	0.67	0.750			
0.3073	19670.25	3.8900	3.8900	0.9499	25.81	0.67	0.750			
0.3102	19854.24	3.8870	3.8870	0.9563	25.80	0.66	0.750			
0.3131	20040.38	3.8840	3.8841	0.9605	25.80	0.66	0.750			
0.3160	20226.04	3.8810	3.8808	0.9574	25.80	0.66	0.750			
0.3190	20413.73	3.8780	3.8780	0.9418	25.80	0.66	0.750			
0.3217	20591.57	3.8750	3.8750	0.9441	25.79	0.65	0.750			
0.3245	20770.03	3.8720	3.8721	0.9492	25.79	0.65	0.750			
0.3273	20949.66	3.8690	3.8690	0.9484	25.78	0.64	0.750			
0.3302	21133.79	3.8660	3.8661	0.9531	25.78	0.64	0.750			
0.3331	21318.58	3.8630	3.8631	0.9618	25.77	0.63	0.750			
0.3360	21504.95	3.8600	3.8601	0.9678	25.76	0.62	0.750			
0.3390	21693.79	3.8570	3.8570	0.9775	25.75	0.61	0.750			
0.3418	21878.15	3.8540	3.8540	0.9691	25.75	0.61	0.750			
0.3448	22065.21	3.8510	3.8510	0.9652	25.74	0.60	0.750			
0.3477	22250.26	3.8480	3.8481	0.9690	25.74	0.60	0.750			
0.3506	22436.59	3.8450	3.8451	0.9714	25.73	0.59	0.750			
0.3535	22621.84	3.8420	3.8417	0.9739	25.73	0.59	0.750			
0.3564	22810.75	3.8390	3.8390	0.9679	25.72	0.58	0.750			
0.3593	22994.95	3.8360	3.8361	0.9822	25.71	0.57	0.750			
0.3623	23185.00	3.8330	3.8332	0.9951	25.70	0.56	0.750	0.312	0.426	
0.3653	23376.55	3.8300	3.8298	0.9967	25.69	0.55	0.750			
0.3683	23570.14	3.8270	3.8271	0.9998	25.68	0.54	0.750			
0.3713	23763.45	3.8240	3.8241	1.0079	25.67	0.53	0.750			
0.3743	23956.25	3.8210	3.8211	1.0095	25.66	0.52	0.750			
0.3773	24150.29	3.8180	3.8179	1.0116	25.64	0.50	0.750			
0.3804	24346.96	3.8150	3.8150	1.0164	25.63	0.49	0.750			
0.3835	24542.18	3.8120	3.8120	1.0233	25.62	0.48	0.750			
0.3866	24739.64	3.8090	3.8090	1.0342	25.61	0.47	0.750			
0.3897	24939.89	3.8060	3.8060	1.0434	25.60	0.46	0.750			
0.3928	25141.07	3.8030	3.8030	1.0359	25.59	0.45	0.750			
0.3959	25338.73	3.8000	3.8000	1.0557	25.58	0.44	0.750			
0.3991	25541.14	3.7970	3.7971	1.0743	25.57	0.43	0.750			
0.4023	25749.38	3.7940	3.7939	1.0957	25.55	0.41	0.750			
0.4056	25960.70	3.7910	3.7912	1.1054	25.54	0.40	0.750			
0.4090	26174.80	3.7880	3.7881	1.1231	25.53	0.39	0.750			
0.4124	26393.33	3.7850	3.7851	1.1425	25.52	0.38	0.750			
0.4159	26616.76	3.7820	3.7818	1.1553	25.51	0.37	0.750			
0.4193	26835.66	3.7790	3.7790	1.1696	25.50	0.36	0.750			
0.4228	27061.19	3.7760	3.7760	1.1915	25.49	0.35	0.750			
0.4265	27295.22	3.7730	3.7730	1.2069	25.48	0.34	0.750			
0.4301	27526.44	3.7700	3.7701	1.2307	25.46	0.32	0.750			
0.4338	27763.48	3.7670	3.7671	1.2577	25.45	0.31	0.750			
0.4376	28008.60	3.7640	3.7641	1.2846	25.44	0.30	0.750			
0.4415	28255.81	3.7610	3.7608	1.3127	25.43	0.29	0.750			
0.4455	28512.40	3.7580	3.7581	1.3501	25.41	0.27	0.750			
0.4497	28779.56	3.7550	3.7550	1.3721	25.40	0.26	0.750			
0.4538	29044.00	3.7520	3.7519	1.4069	25.38	0.24	0.750			
0.4581	29318.80	3.7490	3.7491	1.4134	25.37	0.23	0.750			
0.4623	29587.30	3.7460	3.7461	1.4555	25.36	0.22	0.750			
0.4668	29872.30	3.7430	3.7428	1.4689	25.35	0.21	0.750			
0.4711	30152.64	3.7400	3.7402	1.5138	25.33	0.19	0.750			
0.4757	30443.26	3.7370	3.7372	1.5682	25.31	0.17	0.750			
0.4805	30752.71	3.7340	3.7341	1.6193	25.30	0.16	0.750			
0.4855	31069.87	3.7310	3.7313	1.6626	25.28	0.14	0.750			
0.4907	31403.16	3.7280	3.7281	1.7179	25.27	0.13	0.750			
0.4958	31730.03	3.7250	3.7252	1.7617	25.25	0.11	0.750			
0.5013	32080.31	3.7220	3.7222	1.7851	25.23	0.09	0.750			
0.5066	32423.61	3.7190	3.7191	1.8360	25.21	0.07	0.750			
0.5120	32770.90	3.7160	3.7161	1.8931	25.19	0.05	0.750			
0.5179	33148.43	3.7130	3.7130	1.9401	25.17	0.03	0.750			
0.5238	33523.23	3.7100	3.7101	2.0012	25.15	0.01	0.750			
0.5300	33916.83	3.7070	3.7070	2.1052	25.14	-0.00	0.750			
0.5365	34334.78	3.7040	3.7038	2.1350	25.13	-0.01	0.750			
0.5429	34746.74	3.7010	3.7009	2.1973	25.12	-0.02	0.750			
0.5496	35173.06	3.6980	3.6978	2.2430	25.10	-0.04	0.750			
0.5564	35609.13	3.6950	3.6953	2.2971	25.08	-0.06	0.750			
0.5634	36056.19	3.6920	3.6920	2.3544	25.07	-0.07	0.750			
0.5707	36524.48	3.6890	3.6887	2.4466	25.05	-0.09	0.750			
0.5781	36996.05	3.6860	3.6859	2.5131	25.04	-0.10	0.750			
0.5856	37477.56	3.6830	3.6832	2.6203	25.03	-0.11	0.750			
0.5937	37993.84	3.6800	3.6802	2.6524	25.02	-0.12	0.750			
0.6017	38508.71	3.6770	3.6772	2.7017	25.01	-0.13	0.750			
0.6101	39046.67	3.6740	3.6737	2.7186	25.00	-0.14	0.750			
0.6183	39571.12	3.6710	3.6709	2.7051	25.00	-0.14	0.750			
0.6266	40099.89	3.6680	3.6679	2.7119	25.00	-0.14	0.750			
0.6346	40615.03	3.6650	3.6648	2.5906	25.00	-0.14	0.750			
0.6423	41110.13	3.6620	3.6622	2.4394	25.00	-0.14	0.750			
0.6491	41545.54	3.6590	3.6591	2.1935	25.01	-0.13	0.750			
0.6554	41944.02	3.6560	3.6557	1.9897	25.02	-0.12	0.750			
0.6611	42307.76	3.6530	3.6526	1.8191	25.03	-0.11	0.750			
0.6664	42646.81	3.6500	3.6498	1.6770	25.04	-0.10	0.750			
0.6711	42950.71	3.6470	3.6471	1.5274	25.04	-0.10	0.750			
0.6754	43227.28	3.6440	3.6441	1.3851	25.05	-0.09	0.750			
0.6793	43474.34	3.6410	3.6410	1.2641	25.05	-0.09	0.750			
0.6828	43701.62	3.6380	3.6380	1.1495	25.06	-0.08	0.750			
0.6860	43904.67	3.6350	3.6350	1.0802	25.07	-0.07	0.750			
0.6891	44102.41	3.6320	3.6321	1.0301	25.08	-0.06	0.750			
0.6921	44291.48	3.6290	3.6292	0.9895	25.08	-0.06	0.750			
0.6950	44477.97	3.6260	3.6260	0.9636	25.09	-0.05	0.750			
0.6978	44656.66	3.6230	3.6231	0.9271	25.10	-0.04	0.750			
0.7005	44832.15	3.6200	3.6201	0.9089	25.11	-0.03	0.750			
0.7032	45004.96	3.6170	3.6165	0.8736	25.12	-0.02	0.750			
0.7058	45171.35	3.6140	3.6142	0.8417	25.12	-0.02	0.750			
0.7084	45334.75	3.6110	3.6112	0.7943	25.13	-0.01	0.750			
0.7107	45487.01	3.6080	3.6081	0.7386	25.13	-0.01	0.750			
0.7130	45630.90	3.6050	3.6048	0.6870	25.14	-0.00	0.750			
0.7148	45745.86	3.6020	3.6021	0.5948	25.14	-0.00	0.750			
0.7165	45853.15	3.5990	3.5990	0.5226	25.14	0.00	0.750			
0.7179	45945.14	3.5960	3.5960	0.4682	25.14	0.00	0.750			
0.7192	46026.95	3.5930	3.5931	0.4103	25.15	0.01	0.750			
0.7203	46100.17	3.5900	3.5901	0.3594	25.15	0.01	0.750			
0.7213	46164.84	3.5870	3.5872	0.3058	25.15	0.01	0.750			
0.7222	46219.03	3.5840	3.5842	0.2557	25.15	0.01	0.750			
0.7229	46263.57	3.5810	3.5812	0.2044	25.15	0.01	0.750			
0.7235	46303.76	3.5780	3.5779	0.1478	25.15	0.01	0.750			
0.7238	46322.55	3.5750	3.5759	0.0924	25.15	0.01	0.750			
0.7240	46335.11	3.5720	3.5732	0.0305	25.15	0.01	0.750			
