Ah_balance (normalized)	Ah_balance (mAh)	Voltage - fit (V)	Voltage -  interpolate (V)	dQ/dV (1/V)	Temperature (°C)	Temperature - diff (°C)	Current (C)	R_DC 0ms (mOhm)	R_DC 50ms (mOhm)	R_DC 50 ms PEC (mOhm)
0.0482	3087.71	4.1980	4.1980	0.7232	25.83	0.47	0.750			
0.0504	3228.66	4.1950	4.1950	0.7384	25.83	0.47	0.750			
0.0527	3370.82	4.1920	4.1920	0.7437	25.83	0.47	0.750			
0.0549	3515.29	4.1890	4.1890	0.7415	25.83	0.47	0.750			
0.0572	3658.14	4.1860	4.1861	0.7445	25.84	0.48	0.750			
0.0594	3800.30	4.1830	4.1830	0.7391	25.84	0.48	0.750			
0.0616	3942.20	4.1800	4.1799	0.7391	25.84	0.48	0.750			
0.0638	4082.44	4.1770	4.1771	0.7424	25.84	0.48	0.750			
0.0660	4226.69	4.1740	4.1739	0.7347	25.84	0.48	0.750			
0.0682	4366.76	4.1710	4.1710	0.7434	25.85	0.49	0.750			
0.0705	4510.72	4.1680	4.1680	0.7494	25.85	0.49	0.750			
0.0727	4653.22	4.1650	4.1652	0.7514	25.85	0.49	0.750			
0.0750	4799.19	4.1620	4.1621	0.7587	25.85	0.49	0.750			
0.0773	4944.78	4.1590	4.1591	0.7637	25.85	0.49	0.750			
0.0796	5093.17	4.1560	4.1561	0.7654	25.85	0.49	0.750			
0.0819	5240.73	4.1530	4.1529	0.7681	25.85	0.49	0.750			
0.0842	5388.67	4.1500	4.1501	0.7659	25.85	0.49	0.750			
0.0865	5536.76	4.1470	4.1470	0.7674	25.85	0.49	0.750			
0.0888	5683.36	4.1440	4.1439	0.7689	25.85	0.49	0.750			
0.0912	5834.42	4.1410	4.1410	0.7577	25.85	0.49	0.750			
0.0934	5977.09	4.1380	4.1380	0.7634	25.86	0.50	0.750			
0.0957	6123.94	4.1350	4.1351	0.7696	25.86	0.50	0.750			
0.0980	6270.79	4.1320	4.1321	0.7696	25.86	0.50	0.750			
0.1003	6419.21	4.1290	4.1292	0.7738	25.86	0.50	0.750			
0.1026	6568.06	4.1260	4.1261	0.7806	25.86	0.50	0.750			
0.1050	6720.18	4.1230	4.1230	0.7664	25.86	0.50	0.750			
0.1073	6866.97	4.1200	4.1201	0.7779	25.85	0.49	0.750			
0.1096	7011.31	4.1170	4.1172	0.7743	25.85	0.49	0.750			
0.1119	7160.51	4.1140	4.1135	0.7830	25.85	0.49	0.750			
0.1142	7311.32	4.1110	4.1111	0.7900	25.85	0.49	0.750			
0.1166	7465.46	4.1080	4.1081	0.7884	25.85	0.49	0.750			
0.1191	7620.68	4.1050	4.1050	0.7949	25.86	0.50	0.750			
0.1214	7771.05	4.1020	4.1021	0.7936	25.86	0.50	0.750			
0.1238	7923.66	4.0990	4.0989	0.7979	25.86	0.50	0.750			
0.1262	8078.21	4.0960	4.0959	0.7944	25.86	0.50	0.750			
0.1286	8231.95	4.0930	4.0931	0.7887	25.86	0.50	0.750			
0.1310	8384.07	4.0900	4.0902	0.7889	25.87	0.51	0.750			
0.1333	8532.23	4.0870	4.0870	0.7986	25.87	0.51	0.750			
0.1357	8685.05	4.0840	4.0839	0.7869	25.87	0.51	0.750			
0.1381	8835.53	4.0810	4.0809	0.7859	25.87	0.51	0.750			
0.1405	8992.35	4.0780	4.0779	0.7754	25.87	0.51	0.750			
0.1428	9139.39	4.0750	4.0753	0.7816	25.87	0.51	0.750			
0.1451	9287.83	4.0720	4.0720	0.7811	25.87	0.51	0.750			
0.1474	9435.00	4.0690	4.0691	0.7903	25.87	0.51	0.750			
0.1497	9582.79	4.0660	4.0660	0.7920	25.87	0.51	0.750			
0.1522	9742.26	4.0630	4.0631	0.8122	25.87	0.51	0.750			
0.1547	9901.05	4.0600	4.0601	0.8184	25.87	0.51	0.750			
0.1572	10060.45	4.0570	4.0570	0.8228	25.87	0.51	0.750			
0.1596	10216.77	4.0540	4.0541	0.8130	25.87	0.51	0.750			
0.1621	10373.17	4.0510	4.0510	0.8186	25.87	0.51	0.750			
0.1645	10529.86	4.0480	4.0480	0.8237	25.88	0.52	0.750			
0.1670	10689.04	4.0450	4.0450	0.8202	25.88	0.52	0.750			
0.1695	10845.30	4.0420	4.0420	0.8270	25.88	0.52	0.750			
0.1720	11004.80	4.0390	4.0391	0.8327	25.89	0.53	0.750			
0.1745	11165.18	4.0360	4.0360	0.8337	25.89	0.53	0.750			
0.1770	11326.46	4.0330	4.0330	0.8359	25.89	0.53	0.750			
0.1795	11487.06	4.0300	4.0301	0.8249	25.89	0.53	0.750			
0.1819	11641.24	4.0270	4.0272	0.8369	25.89	0.53	0.750			
0.1844	11800.87	4.0240	4.0241	0.8386	25.89	0.53	0.750			
0.1869	11962.87	4.0210	4.0211	0.8435	25.89	0.53	0.750			
0.1895	12126.14	4.0180	4.0183	0.8505	25.89	0.53	0.750			
0.1921	12292.08	4.0150	4.0153	0.8582	25.90	0.54	0.750			
0.1947	12462.03	4.0120	4.0119	0.8658	25.90	0.54	0.750			
0.1973	12625.17	4.0090	4.0090	0.8490	25.91	0.55	0.750			
0.1998	12787.75	4.0060	4.0061	0.8542	25.91	0.55	0.750			
0.2025	12957.79	4.0030	4.0029	0.8477	25.91	0.55	0.750			
0.2050	13117.87	4.0000	3.9999	0.8485	25.91	0.55	0.750			
0.2074	13276.31	3.9970	3.9972	0.8548	25.91	0.55	0.750			
0.2100	13439.86	3.9940	3.9941	0.8622	25.91	0.55	0.750			
0.2126	13606.14	3.9910	3.9910	0.8647	25.91	0.55	0.750			
0.2153	13776.05	3.9880	3.9881	0.8615	25.91	0.55	0.750			
0.2178	13941.84	3.9850	3.9852	0.8702	25.92	0.56	0.750			
0.2205	14111.91	3.9820	3.9820	0.8721	25.92	0.56	0.750			
0.2231	14275.51	3.9790	3.9792	0.8655	25.92	0.56	0.750			
0.2256	14441.15	3.9760	3.9761	0.8675	25.92	0.56	0.750			
0.2283	14608.40	3.9730	3.9731	0.8713	25.92	0.56	0.750			
0.2309	14778.01	3.9700	3.9699	0.8775	25.92	0.56	0.750			
0.2336	14948.65	3.9670	3.9671	0.8835	25.92	0.56	0.750			
0.2362	15114.11	3.9640	3.9639	0.8769	25.92	0.56	0.750			
0.2388	15286.33	3.9610	3.9610	0.8732	25.92	0.56	0.750			
0.2414	15452.08	3.9580	3.9580	0.8748	25.92	0.56	0.750			
0.2441	15619.70	3.9550	3.9551	0.8764	25.93	0.57	0.750			
0.2467	15789.97	3.9520	3.9520	0.8599	25.93	0.57	0.750			
0.2493	15953.24	3.9490	3.9488	0.8666	25.93	0.57	0.750			
0.2519	16121.24	3.9460	3.9461	0.8601	25.93	0.57	0.750			
0.2544	16284.12	3.9430	3.9432	0.8586	25.93	0.57	0.750			
0.2570	16448.63	3.9400	3.9401	0.8667	25.92	0.56	0.750			
0.2596	16612.36	3.9370	3.9373	0.8670	25.92	0.56	0.750			
0.2622	16781.76	3.9340	3.9340	0.8757	25.92	0.56	0.750			
0.2649	16954.51	3.9310	3.9310	0.8798	25.92	0.56	0.750			
0.2675	17120.13	3.9280	3.9281	0.8764	25.92	0.56	0.750			
0.2702	17291.05	3.9250	3.9251	0.8800	25.91	0.55	0.750			
0.2728	17459.85	3.9220	3.9219	0.8724	25.91	0.55	0.750			
0.2754	17626.50	3.9190	3.9191	0.8709	25.91	0.55	0.750			
0.2781	17795.98	3.9160	3.9160	0.8528	25.91	0.55	0.750			
0.2806	17955.50	3.9130	3.9131	0.8644	25.90	0.54	0.750			
0.2831	18120.72	3.9100	3.9101	0.8686	25.90	0.54	0.750			
0.2857	18286.47	3.9070	3.9069	0.8696	25.90	0.54	0.750			
0.2883	18454.15	3.9040	3.9041	0.8774	25.90	0.54	0.750			
0.2910	18625.15	3.9010	3.9011	0.8776	25.89	0.53	0.750			
0.2937	18794.48	3.8980	3.8981	0.8809	25.88	0.52	0.750			
0.2963	18963.64	3.8950	3.8951	0.8764	25.88	0.52	0.750			
0.2989	19131.60	3.8920	3.8913	0.8752	25.87	0.51	0.750			
0.3016	19304.89	3.8890	3.8890	0.8697	25.86	0.50	0.750			
0.3042	19470.62	3.8860	3.8860	0.8556	25.86	0.50	0.750			
0.3067	19626.23	3.8830	3.8833	0.8727	25.85	0.49	0.750			
0.3093	19795.13	3.8800	3.8803	0.8863	25.84	0.48	0.750			
0.3119	19962.78	3.8770	3.8773	0.8860	25.84	0.48	0.750			
0.3146	20136.87	3.8740	3.8743	0.8882	25.83	0.47	0.750			
0.3174	20312.60	3.8710	3.8714	0.9052	25.83	0.47	0.750			
0.3201	20489.08	3.8680	3.8681	0.9099	25.82	0.46	0.750			
0.3228	20661.87	3.8650	3.8649	0.8883	25.81	0.45	0.750			
0.3255	20831.24	3.8620	3.8621	0.8906	25.80	0.44	0.750			
0.3282	21006.10	3.8590	3.8590	0.8913	25.80	0.44	0.750			
0.3309	21176.58	3.8560	3.8561	0.8957	25.79	0.43	0.750			
0.3336	21348.93	3.8530	3.8530	0.8883	25.78	0.42	0.750			
0.3362	21517.03	3.8500	3.8495	0.9045	25.77	0.41	0.750			
0.3389	21690.61	3.8470	3.8472	0.9118	25.76	0.40	0.750			
0.3417	21868.86	3.8440	3.8439	0.9259	25.75	0.39	0.750			
0.3446	22051.39	3.8410	3.8412	0.9372	25.74	0.38	0.750	0.323	0.462	
0.3474	22231.69	3.8380	3.8381	0.9325	25.73	0.37	0.750			
0.3502	22412.84	3.8350	3.8351	0.9379	25.73	0.37	0.750			
0.3530	22595.08	3.8320	3.8319	0.9325	25.72	0.36	0.750			
0.3557	22767.72	3.8290	3.8291	0.9339	25.71	0.35	0.750			
0.3585	22946.54	3.8260	3.8261	0.9473	25.70	0.34	0.750			
0.3614	23128.66	3.8230	3.8225	0.9574	25.69	0.33	0.750			
0.3643	23316.86	3.8200	3.8201	0.9601	25.68	0.32	0.750			
0.3672	23500.57	3.8170	3.8171	0.9748	25.67	0.31	0.750			
0.3702	23691.62	3.8140	3.8141	0.9891	25.66	0.30	0.750			
0.3731	23879.73	3.8110	3.8110	0.9922	25.65	0.29	0.750			
0.3761	24071.25	3.8080	3.8081	1.0046	25.64	0.28	0.750			
0.3791	24264.31	3.8050	3.8051	1.0217	25.63	0.27	0.750			
0.3823	24464.47	3.8020	3.8020	1.0389	25.62	0.26	0.750			
0.3855	24669.19	3.7990	3.7988	1.0582	25.61	0.25	0.750			
0.3886	24869.36	3.7960	3.7961	1.0539	25.60	0.24	0.750			
0.3918	25072.12	3.7930	3.7930	1.0707	25.59	0.23	0.750			
0.3949	25276.72	3.7900	3.7901	1.0915	25.58	0.22	0.750			
0.3982	25486.94	3.7870	3.7867	1.1090	25.56	0.20	0.750			
0.4016	25702.85	3.7840	3.7841	1.1103	25.55	0.19	0.750			
0.4049	25913.70	3.7810	3.7811	1.1353	25.55	0.19	0.750			
0.4083	26132.63	3.7780	3.7783	1.1615	25.54	0.18	0.750			
0.4119	26358.42	3.7750	3.7749	1.1876	25.53	0.17	0.750			
0.4154	26583.73	3.7720	3.7721	1.2047	25.51	0.15	0.750			
0.4191	26820.01	3.7690	3.7691	1.2334	25.50	0.14	0.750			
0.4230	27068.87	3.7660	3.7658	1.2524	25.48	0.12	0.750			
0.4267	27307.02	3.7630	3.7631	1.2717	25.47	0.11	0.750			
0.4305	27551.49	3.7600	3.7601	1.2998	25.46	0.10	0.750			
0.4344	27802.13	3.7570	3.7570	1.3310	25.45	0.09	0.750			
0.4384	28059.63	3.7540	3.7541	1.3482	25.44	0.08	0.750			
0.4425	28318.39	3.7510	3.7512	1.3780	25.43	0.07	0.750			
0.4467	28585.94	3.7480	3.7481	1.4170	25.41	0.05	0.750			
0.4510	28865.42	3.7450	3.7451	1.4389	25.39	0.03	0.750			
0.4553	29136.88	3.7420	3.7421	1.4531	25.38	0.02	0.750			
0.4598	29424.06	3.7390	3.7391	1.4823	25.37	0.01	0.750			
0.4643	29714.99	3.7360	3.7354	1.5204	25.36	0.00	0.750			
0.4688	30001.48	3.7330	3.7326	1.5663	25.35	-0.01	0.750			
0.4736	30308.72	3.7300	3.7298	1.6008	25.34	-0.02	0.750			
0.4785	30627.14	3.7270	3.7268	1.6551	25.32	-0.04	0.750			
0.4835	30943.21	3.7240	3.7241	1.7327	25.31	-0.05	0.750			
0.4888	31280.52	3.7210	3.7214	1.7620	25.29	-0.07	0.750			
0.4942	31631.69	3.7180	3.7185	1.8376	25.28	-0.08	0.750			
0.4999	31990.74	3.7150	3.7151	1.8936	25.27	-0.09	0.750			
0.5056	32357.73	3.7120	3.7113	1.9443	25.26	-0.10	0.750			
0.5115	32735.66	3.7090	3.7091	2.0072	25.25	-0.11	0.750			
0.5176	33126.55	3.7060	3.7062	1.9984	25.23	-0.13	0.750			
0.5237	33515.47	3.7030	3.7025	2.0389	25.22	-0.14	0.750			
0.5299	33915.51	3.7000	3.7001	2.1703	25.21	-0.15	0.750			
0.5365	34336.88	3.6970	3.6972	2.2060	25.20	-0.16	0.750			
0.5433	34773.22	3.6940	3.6937	2.2970	25.19	-0.17	0.750			
0.5501	35207.86	3.6910	3.6910	2.2452	25.18	-0.18	0.750			
0.5570	35649.22	3.6880	3.6877	2.2661	25.17	-0.19	0.750			
0.5640	36095.15	3.6850	3.6857	2.3924	25.17	-0.19	0.750			
0.5707	36526.69	3.6820	3.6814	2.3814	25.17	-0.19	0.750			
0.5781	36997.17	3.6790	3.6796	2.3734	25.17	-0.19	0.750			
0.5855	37470.38	3.6760	3.6760	2.3373	25.17	-0.19	0.750			
0.5922	37902.19	3.6730	3.6734	2.2540	25.17	-0.19	0.750			
0.5983	38294.12	3.6700	3.6697	2.0800	25.17	-0.19	0.750			
0.6045	38687.83	3.6670	3.6666	1.9736	25.18	-0.18	0.750			
0.6102	39055.04	3.6640	3.6640	1.8622	25.19	-0.17	0.750			
0.6155	39390.84	3.6610	3.6616	1.7152	25.19	-0.17	0.750			
0.6205	39710.84	3.6580	3.6578	1.6071	25.20	-0.16	0.750			
0.6252	40011.43	3.6550	3.6553	1.4821	25.20	-0.16	0.750			
0.6294	40280.07	3.6520	3.6523	1.3675	25.21	-0.15	0.750			
0.6334	40539.56	3.6490	3.6492	1.3120	25.22	-0.14	0.750			
0.6372	40780.96	3.6460	3.6456	1.2252	25.22	-0.14	0.750			
0.6407	41006.49	3.6430	3.6432	1.1571	25.23	-0.13	0.750			
0.6441	41224.16	3.6400	3.6402	1.1068	25.24	-0.12	0.750			
0.6475	41438.29	3.6370	3.6370	1.0556	25.25	-0.11	0.750			
0.6505	41632.79	3.6340	3.6340	0.9929	25.25	-0.11	0.750			
0.6534	41816.49	3.6310	3.6311	0.9505	25.26	-0.10	0.750			
0.6561	41990.78	3.6280	3.6281	0.9240	25.27	-0.09	0.750			
0.6588	42165.09	3.6250	3.6253	0.8976	25.27	-0.09	0.750			
0.6615	42334.61	3.6220	3.6217	0.8675	25.28	-0.08	0.750			
0.6641	42500.98	3.6190	3.6192	0.8438	25.29	-0.07	0.750			
0.6667	42666.49	3.6160	3.6160	0.7880	25.30	-0.06	0.750			
0.6691	42819.77	3.6130	3.6130	0.7227	25.30	-0.06	0.750			
0.6710	42943.72	3.6100	3.6103	0.6740	25.31	-0.05	0.750			
0.6729	43065.21	3.6070	3.6075	0.6380	25.32	-0.04	0.750			
0.6747	43182.33	3.6040	3.6041	0.5936	25.32	-0.04	0.750			
0.6765	43293.37	3.6010	3.6015	0.5556	25.33	-0.03	0.750			
0.6781	43397.98	3.5980	3.5990	0.5251	25.33	-0.03	0.750			
0.6797	43501.44	3.5950	3.5954	0.4881	25.34	-0.02	0.750			
0.6812	43595.09	3.5920	3.5923	0.4336	25.34	-0.02	0.750			
0.6823	43668.07	3.5890	3.5890	0.3660	25.35	-0.01	0.750			
0.6834	43736.98	3.5860	3.5862	0.3222	25.35	-0.01	0.750			
0.6843	43797.46	3.5830	3.5831	0.2791	25.35	-0.01	0.750			
0.6850	43842.91	3.5800	3.5802	0.2213	25.36	-0.00	0.750			
0.6856	43880.81	3.5770	3.5774	0.1698	25.36	-0.00	0.750			
0.6861	43908.59	3.5740	3.5747	0.1233	25.36	-0.00	0.750			
0.6864	43927.65	3.5710	3.5724	0.1018	25.36	0.00	0.750			
