Ah_balance (normalized)	Ah_balance (mAh)	Voltage - fit (V)	Voltage -  interpolate (V)	dQ/dV (1/V)	Temperature (°C)	Temperature - diff (°C)	Current (C)	R_DC 0ms (mOhm)	R_DC 50ms (mOhm)	R_DC 50 ms PEC (mOhm)
0.0463	2965.18	4.1990	4.1990	0.7756	25.47	0.64	0.750			
0.0487	3113.74	4.1960	4.1960	0.7721	25.46	0.63	0.750			
0.0510	3261.85	4.1930	4.1930	0.7691	25.46	0.63	0.750			
0.0533	3408.30	4.1900	4.1900	0.7693	25.46	0.63	0.750			
0.0556	3556.47	4.1870	4.1870	0.7685	25.46	0.63	0.750			
0.0579	3703.64	4.1840	4.1840	0.7689	25.46	0.63	0.750			
0.0602	3851.26	4.1810	4.1811	0.7710	25.46	0.63	0.750			
0.0625	3999.57	4.1780	4.1780	0.7728	25.45	0.62	0.750			
0.0648	4148.32	4.1750	4.1750	0.7755	25.45	0.62	0.750			
0.0671	4297.40	4.1720	4.1720	0.7748	25.45	0.62	0.750			
0.0695	4445.58	4.1690	4.1691	0.7753	25.45	0.62	0.750			
0.0718	4595.24	4.1660	4.1660	0.7775	25.45	0.62	0.750			
0.0741	4743.47	4.1630	4.1629	0.7804	25.45	0.62	0.750			
0.0765	4893.28	4.1600	4.1600	0.7817	25.45	0.62	0.750			
0.0788	5043.90	4.1570	4.1569	0.7841	25.45	0.62	0.750			
0.0812	5195.08	4.1540	4.1540	0.7874	25.45	0.62	0.750			
0.0836	5347.98	4.1510	4.1510	0.7857	25.45	0.62	0.750			
0.0859	5497.86	4.1480	4.1480	0.7898	25.45	0.62	0.750			
0.0883	5649.53	4.1450	4.1450	0.7920	25.45	0.62	0.750			
0.0906	5800.27	4.1420	4.1420	0.7930	25.45	0.62	0.750			
0.0930	5953.65	4.1390	4.1391	0.7965	25.45	0.62	0.750			
0.0954	6108.54	4.1360	4.1360	0.7956	25.45	0.62	0.750			
0.0978	6260.64	4.1330	4.1330	0.7967	25.44	0.61	0.750			
0.1002	6414.35	4.1300	4.1300	0.7980	25.44	0.61	0.750			
0.1026	6565.80	4.1270	4.1271	0.7979	25.44	0.61	0.750			
0.1050	6719.28	4.1240	4.1239	0.8007	25.44	0.61	0.750			
0.1074	6873.63	4.1210	4.1210	0.8000	25.44	0.61	0.750			
0.1098	7027.85	4.1180	4.1181	0.8011	25.44	0.61	0.750			
0.1122	7182.15	4.1150	4.1150	0.8057	25.44	0.61	0.750			
0.1146	7334.78	4.1120	4.1121	0.8072	25.44	0.61	0.750			
0.1170	7489.06	4.1090	4.1089	0.8108	25.44	0.61	0.750			
0.1195	7646.65	4.1060	4.1060	0.8102	25.44	0.61	0.750			
0.1219	7802.52	4.1030	4.1030	0.8178	25.44	0.61	0.750			
0.1244	7960.43	4.1000	4.1001	0.8226	25.43	0.60	0.750			
0.1269	8119.69	4.0970	4.0971	0.8239	25.43	0.60	0.750			
0.1293	8277.07	4.0940	4.0938	0.8216	25.43	0.60	0.750			
0.1318	8436.08	4.0910	4.0911	0.8207	25.43	0.60	0.750			
0.1343	8592.98	4.0880	4.0880	0.8252	25.43	0.60	0.750			
0.1367	8751.67	4.0850	4.0850	0.8286	25.43	0.60	0.750			
0.1392	8910.06	4.0820	4.0820	0.8293	25.43	0.60	0.750			
0.1417	9069.74	4.0790	4.0789	0.8335	25.43	0.60	0.750			
0.1442	9231.05	4.0760	4.0760	0.8371	25.43	0.60	0.750			
0.1468	9392.71	4.0730	4.0730	0.8413	25.43	0.60	0.750			
0.1493	9554.17	4.0700	4.0700	0.8438	25.43	0.60	0.750			
0.1518	9716.16	4.0670	4.0670	0.8423	25.43	0.60	0.750			
0.1543	9878.30	4.0640	4.0640	0.8462	25.43	0.60	0.750			
0.1569	10041.61	4.0610	4.0610	0.8457	25.43	0.60	0.750			
0.1594	10204.41	4.0580	4.0580	0.8505	25.43	0.60	0.750			
0.1620	10366.94	4.0550	4.0550	0.8550	25.43	0.60	0.750			
0.1646	10531.25	4.0520	4.0520	0.8574	25.43	0.60	0.750			
0.1671	10695.98	4.0490	4.0490	0.8605	25.43	0.60	0.750			
0.1697	10862.51	4.0460	4.0461	0.8633	25.43	0.60	0.750			
0.1723	11029.23	4.0430	4.0430	0.8662	25.43	0.60	0.750			
0.1749	11196.00	4.0400	4.0400	0.8693	25.43	0.60	0.750			
0.1775	11361.65	4.0370	4.0371	0.8716	25.43	0.60	0.750			
0.1801	11529.49	4.0340	4.0341	0.8754	25.43	0.60	0.750			
0.1828	11699.06	4.0310	4.0309	0.8801	25.43	0.60	0.750			
0.1854	11868.10	4.0280	4.0281	0.8837	25.43	0.60	0.750			
0.1881	12039.56	4.0250	4.0250	0.8859	25.43	0.60	0.750			
0.1908	12208.91	4.0220	4.0219	0.8860	25.43	0.60	0.750			
0.1934	12378.26	4.0190	4.0190	0.8859	25.43	0.60	0.750			
0.1961	12547.62	4.0160	4.0160	0.8887	25.43	0.60	0.750			
0.1988	12720.05	4.0130	4.0130	0.8935	25.43	0.60	0.750			
0.2014	12891.50	4.0100	4.0100	0.8969	25.43	0.60	0.750			
0.2041	13063.76	4.0070	4.0071	0.8987	25.43	0.60	0.750			
0.2068	13238.25	4.0040	4.0040	0.9000	25.43	0.60	0.750			
0.2095	13410.33	4.0010	4.0010	0.9018	25.43	0.60	0.750			
0.2123	13585.79	3.9980	3.9980	0.8955	25.43	0.60	0.750			
0.2149	13756.58	3.9950	3.9950	0.8888	25.43	0.60	0.750			
0.2176	13926.33	3.9920	3.9921	0.8875	25.43	0.60	0.750			
0.2202	14093.84	3.9890	3.9892	0.8875	25.43	0.60	0.750			
0.2229	14263.94	3.9860	3.9859	0.8932	25.42	0.59	0.750			
0.2255	14434.09	3.9830	3.9830	0.9027	25.42	0.59	0.750			
0.2283	14608.13	3.9800	3.9800	0.9111	25.42	0.59	0.750			
0.2311	14789.90	3.9770	3.9770	0.9219	25.42	0.59	0.750			
0.2338	14966.17	3.9740	3.9740	0.9219	25.42	0.59	0.750			
0.2366	15142.24	3.9710	3.9711	0.9242	25.43	0.60	0.750			
0.2394	15318.78	3.9680	3.9680	0.9312	25.43	0.60	0.750			
0.2421	15497.08	3.9650	3.9649	0.9355	25.43	0.60	0.750			
0.2450	15677.99	3.9620	3.9619	0.9324	25.43	0.60	0.750			
0.2478	15857.96	3.9590	3.9591	0.9398	25.43	0.60	0.750			
0.2506	16038.83	3.9560	3.9561	0.9430	25.43	0.60	0.750			
0.2534	16219.84	3.9530	3.9528	0.9426	25.43	0.60	0.750			
0.2563	16400.58	3.9500	3.9500	0.9396	25.43	0.60	0.750			
0.2591	16580.83	3.9470	3.9471	0.9427	25.43	0.60	0.750			
0.2619	16762.76	3.9440	3.9441	0.9509	25.43	0.60	0.750			
0.2648	16945.51	3.9410	3.9410	0.9521	25.43	0.60	0.750			
0.2677	17129.94	3.9380	3.9380	0.9505	25.43	0.60	0.750			
0.2705	17311.44	3.9350	3.9350	0.9560	25.43	0.60	0.750			
0.2734	17496.36	3.9320	3.9320	0.9589	25.43	0.60	0.750			
0.2763	17680.94	3.9290	3.9290	0.9633	25.43	0.60	0.750			
0.2791	17864.63	3.9260	3.9258	0.9641	25.43	0.60	0.750			
0.2820	18050.03	3.9230	3.9231	0.9635	25.43	0.60	0.750			
0.2849	18235.06	3.9200	3.9200	0.9708	25.43	0.60	0.750			
0.2879	18422.70	3.9170	3.9170	0.9766	25.44	0.61	0.750			
0.2908	18610.12	3.9140	3.9139	0.9771	25.44	0.61	0.750			
0.2938	18800.14	3.9110	3.9110	0.9797	25.44	0.61	0.750			
0.2967	18987.66	3.9080	3.9081	0.9804	25.44	0.61	0.750			
0.2996	19175.51	3.9050	3.9050	0.9850	25.45	0.62	0.750			
0.3026	19363.94	3.9020	3.9020	0.9880	25.45	0.62	0.750			
0.3055	19554.94	3.8990	3.8990	0.9884	25.45	0.62	0.750			
0.3085	19744.57	3.8960	3.8960	0.9994	25.45	0.62	0.750			
0.3115	19937.72	3.8930	3.8931	1.0070	25.45	0.62	0.750			
0.3146	20132.83	3.8900	3.8900	1.0159	25.45	0.62	0.750			
0.3176	20328.91	3.8870	3.8870	1.0144	25.45	0.62	0.750			
0.3207	20523.82	3.8840	3.8841	1.0174	25.45	0.62	0.750			
0.3237	20718.70	3.8810	3.8810	1.0254	25.45	0.62	0.750			
0.3268	20916.77	3.8780	3.8781	1.0309	25.45	0.62	0.750			
0.3299	21113.97	3.8750	3.8750	1.0342	25.45	0.62	0.750			
0.3330	21314.18	3.8720	3.8720	1.0407	25.45	0.62	0.750			
0.3362	21516.01	3.8690	3.8690	1.0441	25.45	0.62	0.750			
0.3393	21717.62	3.8660	3.8662	1.0482	25.45	0.62	0.750			
0.3425	21919.82	3.8630	3.8630	1.0434	25.45	0.62	0.750			
0.3456	22117.68	3.8600	3.8600	1.0484	25.45	0.62	0.750			
0.3487	22317.47	3.8570	3.8570	1.0557	25.44	0.61	0.750			
0.3519	22520.53	3.8540	3.8540	1.0597	25.44	0.61	0.750			
0.3551	22727.61	3.8510	3.8509	1.0627	25.44	0.61	0.750			
0.3583	22931.33	3.8480	3.8481	1.0716	25.44	0.61	0.750			
0.3615	23138.66	3.8450	3.8450	1.0764	25.43	0.60	0.750			
0.3648	23346.36	3.8420	3.8420	1.0829	25.43	0.60	0.750			
0.3680	23552.82	3.8390	3.8391	1.0881	25.43	0.60	0.750			
0.3713	23761.44	3.8360	3.8361	1.0976	25.42	0.59	0.750			
0.3746	23975.12	3.8330	3.8328	1.1092	25.41	0.58	0.750	0.327	0.430	
0.3780	24190.29	3.8300	3.8300	1.1160	25.40	0.57	0.750			
0.3813	24403.74	3.8270	3.8270	1.1196	25.40	0.57	0.750			
0.3847	24619.43	3.8240	3.8241	1.1275	25.39	0.56	0.750			
0.3881	24835.31	3.8210	3.8210	1.1325	25.39	0.56	0.750			
0.3915	25056.57	3.8180	3.8179	1.1301	25.38	0.55	0.750			
0.3949	25271.90	3.8150	3.8150	1.1390	25.37	0.54	0.750			
0.3983	25491.31	3.8120	3.8121	1.1507	25.36	0.53	0.750			
0.4018	25712.81	3.8090	3.8090	1.1577	25.36	0.53	0.750			
0.4052	25934.69	3.8060	3.8061	1.1626	25.35	0.52	0.750			
0.4087	26159.47	3.8030	3.8031	1.1717	25.33	0.50	0.750			
0.4123	26385.44	3.8000	3.8000	1.1829	25.32	0.49	0.750			
0.4159	26616.08	3.7970	3.7969	1.1858	25.31	0.48	0.750			
0.4194	26842.56	3.7940	3.7941	1.1861	25.30	0.47	0.750			
0.4230	27070.09	3.7910	3.7910	1.1973	25.29	0.46	0.750			
0.4266	27300.10	3.7880	3.7881	1.2100	25.29	0.46	0.750			
0.4302	27532.68	3.7850	3.7850	1.2141	25.28	0.45	0.750			
0.4339	27766.41	3.7820	3.7820	1.2308	25.27	0.44	0.750			
0.4376	28003.84	3.7790	3.7791	1.2457	25.26	0.43	0.750			
0.4414	28247.90	3.7760	3.7755	1.2494	25.25	0.42	0.750			
0.4451	28487.03	3.7730	3.7731	1.2724	25.24	0.41	0.750			
0.4489	28731.21	3.7700	3.7701	1.2938	25.22	0.39	0.750			
0.4529	28982.42	3.7670	3.7668	1.3094	25.20	0.37	0.750			
0.4568	29235.24	3.7640	3.7641	1.3480	25.19	0.36	0.750			
0.4608	29493.13	3.7610	3.7610	1.3750	25.18	0.35	0.750			
0.4651	29764.48	3.7580	3.7579	1.3908	25.16	0.33	0.750			
0.4693	30034.97	3.7550	3.7551	1.4406	25.15	0.32	0.750			
0.4736	30312.54	3.7520	3.7521	1.4643	25.14	0.31	0.750			
0.4781	30597.19	3.7490	3.7488	1.4982	25.12	0.29	0.750			
0.4827	30892.41	3.7460	3.7461	1.5033	25.11	0.28	0.750			
0.4872	31179.32	3.7430	3.7432	1.5573	25.09	0.26	0.750			
0.4919	31482.32	3.7400	3.7399	1.6055	25.08	0.25	0.750			
0.4968	31795.03	3.7370	3.7368	1.6668	25.06	0.23	0.750			
0.5018	32115.55	3.7340	3.7342	1.7082	25.05	0.22	0.750			
0.5071	32452.68	3.7310	3.7308	1.7658	25.03	0.20	0.750			
0.5125	32799.19	3.7280	3.7282	1.8244	25.02	0.19	0.750			
0.5180	33153.27	3.7250	3.7250	1.8575	25.00	0.17	0.750			
0.5237	33517.48	3.7220	3.7219	1.9080	24.99	0.16	0.750			
0.5295	33887.45	3.7190	3.7191	1.9637	24.97	0.14	0.750			
0.5355	34274.25	3.7160	3.7159	2.0219	24.95	0.12	0.750			
0.5415	34658.32	3.7130	3.7130	2.1334	24.94	0.11	0.750			
0.5481	35077.07	3.7100	3.7099	2.1778	24.92	0.09	0.750			
0.5548	35509.85	3.7070	3.7068	2.2155	24.90	0.07	0.750			
0.5616	35942.00	3.7040	3.7047	2.2623	24.88	0.05	0.750			
0.5684	36375.51	3.7010	3.7010	2.3122	24.87	0.04	0.750			
0.5753	36818.61	3.6980	3.6981	2.3793	24.85	0.02	0.750			
0.5827	37291.66	3.6950	3.6948	2.4667	24.83	-0.00	0.750			
0.5902	37771.17	3.6920	3.6921	2.5632	24.80	-0.03	0.750			
0.5979	38268.50	3.6890	3.6890	2.6607	24.79	-0.04	0.750			
0.6060	38786.72	3.6860	3.6861	2.7105	24.77	-0.06	0.750			
0.6143	39318.34	3.6830	3.6831	2.7779	24.75	-0.08	0.750			
0.6227	39849.97	3.6800	3.6802	2.8228	24.74	-0.09	0.750			
0.6313	40403.09	3.6770	3.6771	2.8622	24.74	-0.09	0.750			
0.6400	40957.58	3.6740	3.6741	2.9207	24.72	-0.11	0.750			
0.6489	41531.14	3.6710	3.6708	2.9816	24.71	-0.12	0.750			
0.6581	42117.06	3.6680	3.6679	3.0093	24.70	-0.13	0.750			
0.6674	42711.17	3.6650	3.6650	2.9793	24.70	-0.13	0.750			
0.6762	43273.87	3.6620	3.6617	2.8214	24.70	-0.13	0.750			
0.6844	43800.44	3.6590	3.6589	2.5820	24.71	-0.12	0.750			
0.6917	44269.36	3.6560	3.6561	2.3509	24.72	-0.11	0.750			
0.6983	44690.96	3.6530	3.6529	2.1191	24.73	-0.10	0.750			
0.7043	45074.32	3.6500	3.6496	1.9176	24.74	-0.09	0.750			
0.7097	45422.90	3.6470	3.6469	1.7240	24.75	-0.08	0.750			
0.7147	45742.10	3.6440	3.6441	1.5463	24.77	-0.06	0.750			
0.7191	46019.59	3.6410	3.6412	1.3513	24.78	-0.05	0.750			
0.7227	46253.40	3.6380	3.6381	1.1735	24.79	-0.04	0.750			
0.7260	46462.80	3.6350	3.6349	1.0403	24.79	-0.04	0.750			
0.7287	46634.05	3.6320	3.6318	0.9312	24.80	-0.03	0.750			
0.7312	46795.02	3.6290	3.6290	0.8471	24.81	-0.02	0.750			
0.7336	46950.77	3.6260	3.6260	0.7937	24.81	-0.02	0.750			
0.7359	47096.34	3.6230	3.6230	0.7613	24.82	-0.01	0.750			
0.7381	47238.54	3.6200	3.6200	0.7273	24.82	-0.01	0.750			
0.7402	47375.43	3.6170	3.6170	0.6930	24.83	-0.00	0.750			
0.7423	47507.43	3.6140	3.6141	0.6519	24.83	0.00	0.750			
0.7442	47630.50	3.6110	3.6111	0.6030	24.84	0.01	0.750			
0.7460	47746.38	3.6080	3.6080	0.5431	24.84	0.01	0.750			
0.7476	47846.32	3.6050	3.6050	0.4739	24.84	0.01	0.750			
0.7489	47929.54	3.6020	3.6021	0.3979	24.85	0.02	0.750			
0.7500	47999.43	3.5990	3.5989	0.3260	24.85	0.02	0.750			
0.7508	48053.99	3.5960	3.5959	0.2514	24.85	0.02	0.750			
0.7515	48094.52	3.5930	3.5930	0.1802	24.85	0.02	0.750			
0.7519	48122.17	3.5900	3.5905	0.1128	24.86	0.03	0.750			
0.7521	48137.31	3.5870	3.5887	0.0401	24.86	0.03	0.750			
