Ah_balance (normalized)	Ah_balance (mAh)	Voltage - fit (V)	Voltage -  interpolate (V)	dQ/dV (1/V)	Temperature (°C)	Temperature - diff (°C)	Current (C)	R_DC 0ms (mOhm)	R_DC 50ms (mOhm)	R_DC 50 ms PEC (mOhm)
0.0463	2963.98	4.1990	4.1992	0.8174	25.48	0.50	0.750			
0.0487	3116.02	4.1960	4.1961	0.7752	25.48	0.50	0.750			
0.0510	3263.32	4.1930	4.1931	0.7636	25.48	0.50	0.750			
0.0532	3407.00	4.1900	4.1899	0.7582	25.48	0.50	0.750			
0.0555	3549.76	4.1870	4.1870	0.7545	25.48	0.50	0.750			
0.0577	3695.40	4.1840	4.1840	0.7581	25.48	0.50	0.750			
0.0600	3842.73	4.1810	4.1810	0.7661	25.48	0.50	0.750			
0.0624	3992.63	4.1780	4.1780	0.7631	25.48	0.50	0.750			
0.0647	4138.53	4.1750	4.1750	0.7620	25.48	0.50	0.750			
0.0669	4283.69	4.1720	4.1720	0.7645	25.48	0.50	0.750			
0.0692	4429.74	4.1690	4.1691	0.7662	25.48	0.50	0.750			
0.0715	4575.78	4.1660	4.1661	0.7665	25.48	0.50	0.750			
0.0738	4723.93	4.1630	4.1631	0.7713	25.48	0.50	0.750			
0.0761	4873.58	4.1600	4.1600	0.7725	25.49	0.51	0.750			
0.0785	5022.49	4.1570	4.1570	0.7781	25.49	0.51	0.750			
0.0808	5172.16	4.1540	4.1541	0.7726	25.50	0.52	0.750			
0.0831	5320.05	4.1510	4.1507	0.7724	25.50	0.52	0.750			
0.0854	5468.79	4.1480	4.1480	0.7734	25.50	0.52	0.750			
0.0878	5619.46	4.1450	4.1450	0.7663	25.50	0.52	0.750			
0.0901	5764.91	4.1420	4.1419	0.7733	25.51	0.53	0.750			
0.0924	5912.60	4.1390	4.1391	0.7774	25.51	0.53	0.750			
0.0947	6059.46	4.1360	4.1360	0.7800	25.51	0.53	0.750			
0.0971	6212.08	4.1330	4.1331	0.7840	25.51	0.53	0.750			
0.0994	6363.45	4.1300	4.1300	0.7862	25.51	0.53	0.750			
0.1018	6514.90	4.1270	4.1271	0.7850	25.51	0.53	0.750			
0.1042	6665.95	4.1240	4.1240	0.7901	25.52	0.54	0.750			
0.1065	6815.00	4.1210	4.1210	0.7830	25.52	0.54	0.750			
0.1088	6966.34	4.1180	4.1181	0.7884	25.52	0.54	0.750			
0.1112	7117.05	4.1150	4.1151	0.7915	25.52	0.54	0.750			
0.1136	7271.99	4.1120	4.1121	0.7853	25.52	0.54	0.750			
0.1160	7421.01	4.1090	4.1090	0.7916	25.52	0.54	0.750			
0.1183	7570.83	4.1060	4.1061	0.7870	25.52	0.54	0.750			
0.1207	7722.63	4.1030	4.1026	0.7951	25.52	0.54	0.750			
0.1231	7876.11	4.1000	4.1001	0.8016	25.52	0.54	0.750			
0.1255	8031.23	4.0970	4.0972	0.8026	25.52	0.54	0.750			
0.1279	8188.63	4.0940	4.0940	0.8103	25.53	0.55	0.750			
0.1304	8343.84	4.0910	4.0910	0.8032	25.53	0.55	0.750			
0.1328	8497.60	4.0880	4.0879	0.8039	25.53	0.55	0.750			
0.1352	8651.63	4.0850	4.0851	0.8071	25.53	0.55	0.750			
0.1377	8811.78	4.0820	4.0819	0.7894	25.54	0.56	0.750			
0.1400	8959.73	4.0790	4.0791	0.7986	25.54	0.56	0.750			
0.1424	9112.06	4.0760	4.0761	0.8037	25.54	0.56	0.750			
0.1448	9264.35	4.0730	4.0732	0.8123	25.55	0.57	0.750			
0.1472	9419.84	4.0700	4.0701	0.8225	25.55	0.57	0.750			
0.1497	9582.43	4.0670	4.0671	0.8162	25.55	0.57	0.750			
0.1522	9741.28	4.0640	4.0642	0.8284	25.55	0.57	0.750			
0.1547	9901.71	4.0610	4.0611	0.8370	25.55	0.57	0.750			
0.1572	10059.17	4.0580	4.0581	0.8315	25.55	0.57	0.750			
0.1597	10219.46	4.0550	4.0551	0.8352	25.55	0.57	0.750			
0.1622	10381.61	4.0520	4.0521	0.8320	25.55	0.57	0.750			
0.1647	10542.89	4.0490	4.0491	0.8404	25.55	0.57	0.750			
0.1673	10706.51	4.0460	4.0460	0.8427	25.55	0.57	0.750			
0.1698	10866.64	4.0430	4.0430	0.8389	25.55	0.57	0.750			
0.1723	11027.22	4.0400	4.0401	0.8415	25.55	0.57	0.750			
0.1749	11193.54	4.0370	4.0369	0.8294	25.55	0.57	0.750			
0.1774	11350.69	4.0340	4.0341	0.8394	25.56	0.58	0.750			
0.1799	11510.48	4.0310	4.0311	0.8487	25.56	0.58	0.750			
0.1824	11670.89	4.0280	4.0282	0.8511	25.56	0.58	0.750			
0.1849	11835.51	4.0250	4.0251	0.8561	25.56	0.58	0.750			
0.1875	12002.05	4.0220	4.0221	0.8531	25.56	0.58	0.750			
0.1901	12167.40	4.0190	4.0191	0.8638	25.57	0.59	0.750			
0.1927	12334.62	4.0160	4.0160	0.8719	25.57	0.59	0.750			
0.1953	12499.02	4.0130	4.0128	0.8658	25.57	0.59	0.750			
0.1979	12667.00	4.0100	4.0101	0.8756	25.57	0.59	0.750			
0.2006	12836.64	4.0070	4.0071	0.8766	25.58	0.60	0.750			
0.2032	13006.05	4.0040	4.0040	0.8840	25.58	0.60	0.750			
0.2059	13179.29	4.0010	4.0010	0.8854	25.59	0.61	0.750			
0.2085	13344.77	3.9980	3.9978	0.8800	25.59	0.61	0.750			
0.2112	13514.13	3.9950	3.9951	0.8797	25.59	0.61	0.750			
0.2138	13683.66	3.9920	3.9920	0.8701	25.59	0.61	0.750			
0.2164	13848.66	3.9890	3.9891	0.8729	25.59	0.61	0.750			
0.2190	14013.45	3.9860	3.9862	0.8795	25.59	0.61	0.750			
0.2216	14182.19	3.9830	3.9829	0.8902	25.59	0.61	0.750			
0.2243	14356.93	3.9800	3.9801	0.8865	25.60	0.62	0.750			
0.2270	14527.16	3.9770	3.9772	0.8920	25.60	0.62	0.750			
0.2297	14702.46	3.9740	3.9741	0.9034	25.60	0.62	0.750			
0.2325	14878.45	3.9710	3.9709	0.9118	25.61	0.63	0.750			
0.2351	15044.64	3.9680	3.9682	0.9008	25.61	0.63	0.750			
0.2378	15218.35	3.9650	3.9650	0.8999	25.61	0.63	0.750			
0.2405	15392.33	3.9620	3.9621	0.9081	25.62	0.64	0.750			
0.2433	15569.18	3.9590	3.9590	0.9184	25.62	0.64	0.750			
0.2460	15742.54	3.9560	3.9557	0.9131	25.62	0.64	0.750			
0.2488	15921.30	3.9530	3.9530	0.9024	25.62	0.64	0.750			
0.2514	16092.53	3.9500	3.9501	0.9111	25.62	0.64	0.750			
0.2542	16268.02	3.9470	3.9471	0.9161	25.63	0.65	0.750			
0.2569	16442.65	3.9440	3.9441	0.9159	25.63	0.65	0.750			
0.2597	16617.82	3.9410	3.9411	0.9185	25.63	0.65	0.750			
0.2624	16796.62	3.9380	3.9382	0.9137	25.63	0.65	0.750			
0.2652	16973.00	3.9350	3.9351	0.9249	25.63	0.65	0.750			
0.2680	17151.63	3.9320	3.9321	0.9313	25.63	0.65	0.750			
0.2707	17327.82	3.9290	3.9284	0.9238	25.63	0.65	0.750			
0.2735	17505.87	3.9260	3.9261	0.9278	25.63	0.65	0.750			
0.2763	17685.04	3.9230	3.9231	0.9341	25.64	0.66	0.750			
0.2792	17867.42	3.9200	3.9201	0.9433	25.64	0.66	0.750			
0.2820	18046.73	3.9170	3.9169	0.9377	25.65	0.67	0.750			
0.2848	18228.13	3.9140	3.9140	0.9373	25.65	0.67	0.750			
0.2876	18409.32	3.9110	3.9110	0.9306	25.65	0.67	0.750			
0.2904	18585.81	3.9080	3.9081	0.9369	25.65	0.67	0.750			
0.2932	18765.16	3.9050	3.9051	0.9378	25.65	0.67	0.750			
0.2960	18944.20	3.9020	3.9022	0.9393	25.65	0.67	0.750			
0.2989	19129.11	3.8990	3.8990	0.9285	25.65	0.67	0.750			
0.3017	19305.66	3.8960	3.8962	0.9371	25.65	0.67	0.750			
0.3045	19486.08	3.8930	3.8931	0.9466	25.64	0.66	0.750			
0.3073	19666.13	3.8900	3.8902	0.9447	25.64	0.66	0.750			
0.3101	19849.43	3.8870	3.8871	0.9452	25.64	0.66	0.750			
0.3130	20031.96	3.8840	3.8841	0.9524	25.64	0.66	0.750			
0.3159	20216.43	3.8810	3.8811	0.9566	25.63	0.65	0.750			
0.3188	20405.14	3.8780	3.8780	0.9642	25.63	0.65	0.750			
0.3216	20584.38	3.8750	3.8750	0.9547	25.63	0.65	0.750			
0.3246	20773.35	3.8720	3.8719	0.9307	25.62	0.64	0.750			
0.3273	20948.36	3.8690	3.8691	0.9499	25.62	0.64	0.750			
0.3302	21130.16	3.8660	3.8662	0.9596	25.62	0.64	0.750			
0.3330	21313.47	3.8630	3.8625	0.9610	25.61	0.63	0.750			
0.3360	21500.90	3.8600	3.8602	0.9563	25.61	0.63	0.750			
0.3388	21683.69	3.8570	3.8571	0.9724	25.60	0.62	0.750			
0.3418	21872.02	3.8540	3.8542	0.9824	25.60	0.62	0.750			
0.3447	22062.58	3.8510	3.8509	0.9757	25.59	0.61	0.750			
0.3477	22253.01	3.8480	3.8482	0.9800	25.59	0.61	0.750			
0.3507	22442.50	3.8450	3.8451	0.9860	25.58	0.60	0.750			
0.3537	22635.99	3.8420	3.8420	0.9814	25.57	0.59	0.750			
0.3566	22823.26	3.8390	3.8390	0.9983	25.56	0.58	0.750			
0.3595	23010.46	3.8360	3.8361	0.9967	25.56	0.58	0.750			
0.3626	23204.07	3.8330	3.8327	0.9912	25.55	0.57	0.750	0.315	0.425	
0.3655	23393.07	3.8300	3.8302	1.0021	25.54	0.56	0.750			
0.3685	23586.59	3.8270	3.8272	1.0140	25.53	0.55	0.750			
0.3716	23781.05	3.8240	3.8236	1.0212	25.52	0.54	0.750			
0.3746	23977.38	3.8210	3.8212	1.0112	25.51	0.53	0.750			
0.3777	24174.32	3.8180	3.8182	1.0173	25.50	0.52	0.750			
0.3808	24373.07	3.8150	3.8151	1.0302	25.49	0.51	0.750			
0.3839	24569.59	3.8120	3.8122	1.0140	25.48	0.50	0.750			
0.3869	24762.13	3.8090	3.8091	1.0239	25.47	0.49	0.750			
0.3900	24959.92	3.8060	3.8060	1.0391	25.46	0.48	0.750			
0.3932	25162.34	3.8030	3.8031	1.0546	25.46	0.48	0.750			
0.3963	25364.99	3.8000	3.7999	1.0646	25.45	0.47	0.750			
0.3995	25570.97	3.7970	3.7971	1.0656	25.44	0.46	0.750			
0.4027	25771.88	3.7940	3.7942	1.0800	25.42	0.44	0.750			
0.4060	25981.12	3.7910	3.7911	1.1054	25.41	0.43	0.750			
0.4094	26198.50	3.7880	3.7874	1.0967	25.40	0.42	0.750			
0.4126	26408.01	3.7850	3.7851	1.1300	25.39	0.41	0.750			
0.4159	26620.51	3.7820	3.7824	1.1827	25.38	0.40	0.750			
0.4196	26851.47	3.7790	3.7792	1.2319	25.37	0.39	0.750			
0.4233	27093.27	3.7760	3.7761	1.2471	25.36	0.38	0.750			
0.4272	27340.85	3.7730	3.7737	1.2901	25.34	0.36	0.750			
0.4313	27602.08	3.7700	3.7702	1.3049	25.33	0.35	0.750			
0.4354	27863.83	3.7670	3.7670	1.3348	25.31	0.33	0.750			
0.4392	28110.45	3.7640	3.7640	1.3178	25.30	0.32	0.750			
0.4431	28359.06	3.7610	3.7610	1.2998	25.28	0.30	0.750			
0.4470	28607.45	3.7580	3.7579	1.3385	25.27	0.29	0.750			
0.4510	28865.41	3.7550	3.7551	1.3735	25.25	0.27	0.750			
0.4552	29134.97	3.7520	3.7521	1.3947	25.23	0.25	0.750			
0.4595	29406.41	3.7490	3.7490	1.4163	25.22	0.24	0.750			
0.4637	29673.85	3.7460	3.7463	1.4598	25.20	0.22	0.750			
0.4682	29963.82	3.7430	3.7432	1.4814	25.19	0.21	0.750			
0.4727	30251.60	3.7400	3.7394	1.5246	25.17	0.19	0.750			
0.4772	30543.21	3.7370	3.7374	1.5662	25.16	0.18	0.750			
0.4820	30847.47	3.7340	3.7341	1.6245	25.14	0.16	0.750			
0.4870	31168.29	3.7310	3.7312	1.6684	25.13	0.15	0.750			
0.4920	31485.50	3.7280	3.7282	1.7161	25.11	0.13	0.750			
0.4973	31824.24	3.7250	3.7247	1.7917	25.10	0.12	0.750			
0.5028	32177.28	3.7220	3.7215	1.8728	25.08	0.10	0.750			
0.5085	32546.93	3.7190	3.7193	1.9083	25.06	0.08	0.750			
0.5145	32926.53	3.7160	3.7159	1.9388	25.04	0.06	0.750			
0.5203	33300.63	3.7130	3.7127	1.9813	25.02	0.04	0.750			
0.5260	33667.00	3.7100	3.7101	2.0099	25.00	0.02	0.750			
0.5322	34060.62	3.7070	3.7070	2.0915	24.98	0.00	0.750			
0.5387	34477.17	3.7040	3.7038	2.1719	24.97	-0.01	0.750			
0.5451	34888.39	3.7010	3.7011	2.2131	24.95	-0.03	0.750			
0.5520	35329.91	3.6980	3.6978	2.2714	24.94	-0.04	0.750			
0.5590	35774.81	3.6950	3.6947	2.3176	24.92	-0.06	0.750			
0.5658	36213.67	3.6920	3.6921	2.3915	24.90	-0.08	0.750			
0.5731	36675.36	3.6890	3.6891	2.4558	24.88	-0.10	0.750			
0.5806	37160.71	3.6860	3.6860	2.5291	24.86	-0.12	0.750			
0.5885	37663.23	3.6830	3.6829	2.5900	24.85	-0.13	0.750			
0.5963	38166.31	3.6800	3.6800	2.6802	24.84	-0.14	0.750			
0.6045	38686.00	3.6770	3.6768	2.7282	24.83	-0.15	0.750			
0.6128	39217.75	3.6740	3.6742	2.7778	24.83	-0.15	0.750			
0.6212	39753.78	3.6710	3.6711	2.7899	24.82	-0.16	0.750			
0.6294	40280.41	3.6680	3.6682	2.7359	24.82	-0.16	0.750			
0.6378	40819.19	3.6650	3.6650	2.6311	24.83	-0.15	0.750			
0.6457	41327.27	3.6620	3.6622	2.4792	24.84	-0.14	0.750			
0.6527	41774.79	3.6590	3.6588	2.2582	24.85	-0.13	0.750			
0.6591	42179.54	3.6560	3.6561	2.0166	24.85	-0.13	0.750			
0.6646	42534.38	3.6530	3.6532	1.8259	24.86	-0.12	0.750			
0.6699	42873.02	3.6500	3.6499	1.6754	24.86	-0.12	0.750			
0.6747	43178.53	3.6470	3.6469	1.5304	24.87	-0.11	0.750			
0.6791	43459.42	3.6440	3.6443	1.4074	24.87	-0.11	0.750			
0.6831	43715.51	3.6410	3.6406	1.2860	24.88	-0.10	0.750			
0.6867	43950.86	3.6380	3.6380	1.1941	24.89	-0.09	0.750			
0.6898	44150.29	3.6350	3.6351	1.0764	24.89	-0.09	0.750			
0.6930	44348.99	3.6320	3.6321	1.0272	24.90	-0.08	0.750			
0.6960	44541.89	3.6290	3.6288	0.9860	24.90	-0.08	0.750			
0.6988	44721.63	3.6260	3.6260	0.9360	24.91	-0.07	0.750			
0.7015	44896.35	3.6230	3.6230	0.9157	24.92	-0.06	0.750			
0.7042	45069.59	3.6200	3.6200	0.8953	24.93	-0.05	0.750			
0.7069	45241.52	3.6170	3.6170	0.8648	24.94	-0.04	0.750			
0.7095	45405.22	3.6140	3.6141	0.8250	24.94	-0.04	0.750			
0.7119	45563.39	3.6110	3.6111	0.7731	24.95	-0.03	0.750			
0.7143	45712.52	3.6080	3.6081	0.7132	24.96	-0.02	0.750			
0.7163	45844.26	3.6050	3.6050	0.6476	24.97	-0.01	0.750			
0.7181	45959.62	3.6020	3.6020	0.5725	24.97	-0.01	0.750			
0.7197	46060.51	3.5990	3.5991	0.5076	24.98	-0.00	0.750			
0.7211	46151.29	3.5960	3.5956	0.4483	24.98	0.00	0.750			
0.7224	46230.87	3.5930	3.5930	0.3917	24.98	0.00	0.750			
0.7235	46301.11	3.5900	3.5900	0.3360	24.99	0.01	0.750			
0.7244	46360.77	3.5870	3.5870	0.2824	24.99	0.01	0.750			
0.7252	46409.88	3.5840	3.5840	0.2264	24.99	0.01	0.750			
0.7258	46448.70	3.5810	3.5812	0.1714	25.00	0.02	0.750			
0.7262	46476.49	3.5780	3.5787	0.1140	25.00	0.02	0.750			
0.7265	46493.03	3.5750	3.5763	0.0518	25.00	0.02	0.750			
