Ah_balance (normalized)	Ah_balance (mAh)	Voltage - fit (V)	Voltage -  interpolate (V)	dQ/dV (1/V)	Temperature (°C)	Temperature - diff (°C)	Current (C)	R_DC 0ms (mOhm)	R_DC 50ms (mOhm)	R_DC 50 ms PEC (mOhm)
0.0525	3362.52	4.1960	4.1961	0.7639	25.67	0.45	0.750			
0.0549	3511.09	4.1930	4.1931	0.7760	25.67	0.45	0.750			
0.0572	3660.76	4.1900	4.1899	0.7829	25.67	0.45	0.750			
0.0596	3812.47	4.1870	4.1870	0.7859	25.67	0.45	0.750			
0.0619	3964.11	4.1840	4.1840	0.7866	25.67	0.45	0.750			
0.0643	4116.24	4.1810	4.1810	0.7877	25.67	0.45	0.750			
0.0667	4267.38	4.1780	4.1781	0.7872	25.67	0.45	0.750			
0.0690	4418.12	4.1750	4.1749	0.7858	25.67	0.45	0.750			
0.0714	4568.64	4.1720	4.1720	0.7873	25.67	0.45	0.750			
0.0737	4719.77	4.1690	4.1691	0.7859	25.67	0.45	0.750			
0.0761	4871.17	4.1660	4.1660	0.7893	25.67	0.45	0.750			
0.0785	5022.06	4.1630	4.1630	0.7905	25.67	0.45	0.750			
0.0808	5172.63	4.1600	4.1600	0.7932	25.67	0.45	0.750			
0.0832	5325.83	4.1570	4.1569	0.7944	25.67	0.45	0.750			
0.0856	5480.22	4.1540	4.1540	0.7967	25.67	0.45	0.750			
0.0880	5632.92	4.1510	4.1510	0.7987	25.67	0.45	0.750			
0.0904	5787.28	4.1480	4.1481	0.8006	25.67	0.45	0.750			
0.0928	5939.70	4.1450	4.1449	0.7996	25.67	0.45	0.750			
0.0952	6093.66	4.1420	4.1420	0.8007	25.67	0.45	0.750			
0.0976	6247.09	4.1390	4.1390	0.7992	25.67	0.45	0.750			
0.1000	6400.71	4.1360	4.1360	0.8049	25.67	0.45	0.750			
0.1024	6555.43	4.1330	4.1330	0.8099	25.67	0.45	0.750			
0.1049	6711.69	4.1300	4.1300	0.8084	25.67	0.45	0.750			
0.1073	6867.12	4.1270	4.1270	0.8116	25.67	0.45	0.750			
0.1097	7023.95	4.1240	4.1240	0.8117	25.67	0.45	0.750			
0.1122	7180.49	4.1210	4.1210	0.8147	25.67	0.45	0.750			
0.1146	7336.03	4.1180	4.1179	0.8163	25.67	0.45	0.750			
0.1171	7491.73	4.1150	4.1151	0.8167	25.67	0.45	0.750			
0.1195	7648.43	4.1120	4.1119	0.8207	25.67	0.45	0.750			
0.1220	7807.94	4.1090	4.1090	0.8270	25.67	0.45	0.750			
0.1245	7966.12	4.1060	4.1061	0.8296	25.67	0.45	0.750			
0.1270	8126.30	4.1030	4.1030	0.8347	25.67	0.45	0.750			
0.1295	8288.62	4.1000	4.1000	0.8331	25.67	0.45	0.750			
0.1320	8448.81	4.0970	4.0969	0.8312	25.67	0.45	0.750			
0.1345	8607.91	4.0940	4.0941	0.8339	25.67	0.45	0.750			
0.1370	8766.98	4.0910	4.0910	0.8356	25.67	0.45	0.750			
0.1395	8927.01	4.0880	4.0879	0.8402	25.67	0.45	0.750			
0.1420	9089.15	4.0850	4.0850	0.8425	25.67	0.45	0.750			
0.1446	9251.74	4.0820	4.0820	0.8472	25.67	0.45	0.750			
0.1471	9416.69	4.0790	4.0790	0.8480	25.67	0.45	0.750			
0.1497	9579.50	4.0760	4.0761	0.8516	25.67	0.45	0.750			
0.1522	9741.60	4.0730	4.0730	0.8530	25.67	0.45	0.750			
0.1548	9904.94	4.0700	4.0700	0.8548	25.67	0.45	0.750			
0.1573	10068.69	4.0670	4.0670	0.8586	25.67	0.45	0.750			
0.1599	10235.14	4.0640	4.0641	0.8606	25.68	0.46	0.750			
0.1625	10402.04	4.0610	4.0610	0.8634	25.68	0.46	0.750			
0.1651	10567.38	4.0580	4.0580	0.8683	25.68	0.46	0.750			
0.1677	10732.64	4.0550	4.0551	0.8677	25.69	0.47	0.750			
0.1703	10900.26	4.0520	4.0520	0.8731	25.69	0.47	0.750			
0.1729	11068.78	4.0490	4.0490	0.8761	25.69	0.47	0.750			
0.1756	11237.81	4.0460	4.0461	0.8785	25.69	0.47	0.750			
0.1782	11407.29	4.0430	4.0430	0.8815	25.69	0.47	0.750			
0.1809	11576.78	4.0400	4.0400	0.8830	25.69	0.47	0.750			
0.1835	11746.01	4.0370	4.0370	0.8826	25.69	0.47	0.750			
0.1862	11915.31	4.0340	4.0340	0.8825	25.69	0.47	0.750			
0.1888	12083.84	4.0310	4.0310	0.8883	25.69	0.47	0.750			
0.1915	12254.42	4.0280	4.0280	0.8927	25.69	0.47	0.750			
0.1942	12426.51	4.0250	4.0248	0.8962	25.69	0.47	0.750			
0.1969	12599.26	4.0220	4.0220	0.8998	25.69	0.47	0.750			
0.1996	12772.88	4.0190	4.0191	0.9055	25.69	0.47	0.750			
0.2023	12948.66	4.0160	4.0160	0.9107	25.69	0.47	0.750			
0.2050	13122.67	4.0130	4.0129	0.9082	25.69	0.47	0.750			
0.2078	13296.67	4.0100	4.0100	0.9128	25.69	0.47	0.750			
0.2105	13472.41	4.0070	4.0070	0.9150	25.69	0.47	0.750			
0.2133	13648.32	4.0040	4.0040	0.9184	25.69	0.47	0.750			
0.2160	13825.49	4.0010	4.0010	0.9216	25.69	0.47	0.750			
0.2188	14002.12	3.9980	3.9979	0.9245	25.69	0.47	0.750			
0.2216	14181.57	3.9950	3.9950	0.9254	25.69	0.47	0.750			
0.2244	14359.24	3.9920	3.9921	0.9273	25.70	0.48	0.750			
0.2271	14536.33	3.9890	3.9890	0.9288	25.70	0.48	0.750			
0.2299	14715.35	3.9860	3.9859	0.9326	25.71	0.49	0.750			
0.2327	14893.35	3.9830	3.9830	0.9342	25.71	0.49	0.750			
0.2355	15072.96	3.9800	3.9800	0.9371	25.71	0.49	0.750			
0.2383	15253.98	3.9770	3.9770	0.9401	25.71	0.49	0.750			
0.2412	15435.45	3.9740	3.9740	0.9433	25.71	0.49	0.750			
0.2440	15616.24	3.9710	3.9710	0.9429	25.71	0.49	0.750			
0.2468	15797.71	3.9680	3.9680	0.9434	25.71	0.49	0.750			
0.2497	15979.09	3.9650	3.9650	0.9472	25.71	0.49	0.750			
0.2525	16159.91	3.9620	3.9620	0.9510	25.71	0.49	0.750			
0.2554	16342.48	3.9590	3.9590	0.9568	25.71	0.49	0.750			
0.2583	16528.57	3.9560	3.9560	0.9565	25.71	0.49	0.750			
0.2611	16712.50	3.9530	3.9530	0.9605	25.71	0.49	0.750			
0.2640	16897.28	3.9500	3.9501	0.9635	25.71	0.49	0.750			
0.2669	17081.93	3.9470	3.9471	0.9669	25.71	0.49	0.750			
0.2698	17267.12	3.9440	3.9439	0.9691	25.71	0.49	0.750			
0.2727	17452.93	3.9410	3.9410	0.9714	25.71	0.49	0.750			
0.2756	17639.09	3.9380	3.9380	0.9772	25.71	0.49	0.750			
0.2786	17828.47	3.9350	3.9350	0.9848	25.71	0.49	0.750			
0.2815	18018.41	3.9320	3.9319	0.9870	25.71	0.49	0.750			
0.2845	18209.28	3.9290	3.9290	0.9855	25.71	0.49	0.750			
0.2875	18398.96	3.9260	3.9260	0.9899	25.71	0.49	0.750			
0.2905	18589.81	3.9230	3.9231	0.9916	25.72	0.50	0.750			
0.2934	18778.59	3.9200	3.9199	0.9941	25.72	0.50	0.750			
0.2964	18969.99	3.9170	3.9170	0.9969	25.72	0.50	0.750			
0.2994	19161.02	3.9140	3.9140	1.0018	25.72	0.50	0.750			
0.3024	19353.76	3.9110	3.9110	1.0089	25.73	0.51	0.750			
0.3055	19548.81	3.9080	3.9080	1.0105	25.73	0.51	0.750			
0.3085	19744.50	3.9050	3.9050	1.0155	25.73	0.51	0.750			
0.3116	19939.44	3.9020	3.9020	1.0208	25.73	0.51	0.750			
0.3146	20134.74	3.8990	3.8990	1.0277	25.73	0.51	0.750			
0.3177	20332.86	3.8960	3.8960	1.0356	25.73	0.51	0.750			
0.3208	20532.86	3.8930	3.8930	1.0363	25.73	0.51	0.750			
0.3239	20731.67	3.8900	3.8900	1.0467	25.74	0.52	0.750			
0.3271	20934.23	3.8870	3.8870	1.0550	25.74	0.52	0.750			
0.3303	21137.38	3.8840	3.8840	1.0627	25.75	0.53	0.750			
0.3335	21341.51	3.8810	3.8811	1.0681	25.75	0.53	0.750			
0.3367	21547.48	3.8780	3.8780	1.0719	25.75	0.53	0.750			
0.3399	21754.63	3.8750	3.8750	1.0799	25.75	0.53	0.750			
0.3432	21963.39	3.8720	3.8720	1.0860	25.75	0.53	0.750			
0.3464	22171.13	3.8690	3.8690	1.0819	25.75	0.53	0.750			
0.3496	22377.30	3.8660	3.8660	1.0895	25.75	0.53	0.750			
0.3529	22586.20	3.8630	3.8631	1.0967	25.75	0.53	0.750			
0.3562	22797.73	3.8600	3.8597	1.1055	25.75	0.53	0.750			
0.3595	23010.39	3.8570	3.8571	1.1187	25.75	0.53	0.750			
0.3630	23230.04	3.8540	3.8540	1.1049	25.75	0.53	0.750			
0.3664	23446.94	3.8510	3.8511	1.0998	25.75	0.53	0.750			
0.3696	23652.84	3.8480	3.8481	1.0883	25.75	0.53	0.750			
0.3728	23860.17	3.8450	3.8448	1.0870	25.76	0.54	0.750			
0.3760	24061.99	3.8420	3.8419	1.1035	25.76	0.54	0.750			
0.3793	24273.56	3.8390	3.8391	1.1287	25.77	0.55	0.750			
0.3827	24495.90	3.8360	3.8361	1.1460	25.77	0.55	0.750			
0.3863	24722.30	3.8330	3.8332	1.1824	25.77	0.55	0.750	0.329	0.432	
0.3899	24951.78	3.8300	3.8301	1.2003	25.77	0.55	0.750			
0.3935	25184.25	3.8270	3.8267	1.2074	25.77	0.55	0.750			
0.3972	25418.27	3.8240	3.8241	1.2136	25.77	0.55	0.750			
0.4008	25651.44	3.8210	3.8211	1.2169	25.76	0.54	0.750			
0.4045	25886.15	3.8180	3.8181	1.2280	25.75	0.53	0.750			
0.4082	26126.28	3.8150	3.8149	1.2376	25.75	0.53	0.750			
0.4118	26355.91	3.8120	3.8121	1.2328	25.74	0.52	0.750			
0.4155	26593.35	3.8090	3.8090	1.2494	25.74	0.52	0.750			
0.4193	26838.32	3.8060	3.8057	1.2431	25.73	0.51	0.750			
0.4231	27077.24	3.8030	3.8031	1.2649	25.72	0.50	0.750			
0.4269	27319.10	3.8000	3.8002	1.2845	25.72	0.50	0.750			
0.4308	27568.43	3.7970	3.7968	1.2919	25.71	0.49	0.750			
0.4347	27819.88	3.7940	3.7941	1.3197	25.70	0.48	0.750			
0.4386	28070.66	3.7910	3.7911	1.3283	25.69	0.47	0.750			
0.4427	28330.42	3.7880	3.7880	1.3400	25.68	0.46	0.750			
0.4468	28594.21	3.7850	3.7851	1.3649	25.67	0.45	0.750			
0.4508	28850.48	3.7820	3.7820	1.3647	25.66	0.44	0.750			
0.4550	29117.65	3.7790	3.7790	1.3648	25.65	0.43	0.750			
0.4591	29385.12	3.7760	3.7760	1.3739	25.64	0.42	0.750			
0.4632	29642.47	3.7730	3.7732	1.3955	25.63	0.41	0.750			
0.4674	29910.59	3.7700	3.7701	1.4186	25.62	0.40	0.750			
0.4716	30184.64	3.7670	3.7670	1.4353	25.60	0.38	0.750			
0.4759	30457.78	3.7640	3.7642	1.4589	25.59	0.37	0.750			
0.4804	30745.23	3.7610	3.7611	1.4717	25.57	0.35	0.750			
0.4849	31032.35	3.7580	3.7577	1.5180	25.56	0.34	0.750			
0.4895	31326.07	3.7550	3.7552	1.5420	25.55	0.33	0.750			
0.4941	31622.24	3.7520	3.7519	1.5684	25.53	0.31	0.750			
0.4989	31930.15	3.7490	3.7492	1.6058	25.51	0.29	0.750			
0.5037	32239.34	3.7460	3.7462	1.6591	25.49	0.27	0.750			
0.5087	32556.77	3.7430	3.7431	1.6957	25.48	0.26	0.750			
0.5139	32889.56	3.7400	3.7401	1.7403	25.46	0.24	0.750			
0.5192	33226.38	3.7370	3.7371	1.7712	25.45	0.23	0.750			
0.5246	33573.55	3.7340	3.7339	1.8365	25.44	0.22	0.750			
0.5302	33929.99	3.7310	3.7311	1.8831	25.42	0.20	0.750			
0.5359	34298.25	3.7280	3.7283	1.9449	25.41	0.19	0.750			
0.5417	34667.13	3.7250	3.7254	2.0071	25.39	0.17	0.750			
0.5478	35059.08	3.7220	3.7221	2.0583	25.37	0.15	0.750			
0.5542	35469.09	3.7190	3.7190	2.0969	25.36	0.14	0.750			
0.5606	35875.84	3.7160	3.7162	2.1430	25.34	0.12	0.750			
0.5671	36294.43	3.7130	3.7132	2.2191	25.33	0.11	0.750			
0.5739	36728.85	3.7100	3.7099	2.2449	25.31	0.09	0.750			
0.5807	37166.21	3.7070	3.7069	2.3296	25.28	0.06	0.750			
0.5878	37616.09	3.7040	3.7040	2.4128	25.27	0.05	0.750			
0.5951	38084.63	3.7010	3.7011	2.5063	25.26	0.04	0.750			
0.6027	38573.12	3.6980	3.6982	2.5717	25.23	0.01	0.750			
0.6108	39089.06	3.6950	3.6950	2.6169	25.21	-0.01	0.750			
0.6187	39594.39	3.6920	3.6919	2.6537	25.20	-0.02	0.750			
0.6267	40106.56	3.6890	3.6889	2.7548	25.19	-0.03	0.750			
0.6350	40640.77	3.6860	3.6859	2.8445	25.17	-0.05	0.750			
0.6438	41201.12	3.6830	3.6831	2.9157	25.14	-0.08	0.750			
0.6526	41768.52	3.6800	3.6800	2.9647	25.13	-0.09	0.750			
0.6613	42325.39	3.6770	3.6771	2.9509	25.11	-0.11	0.750			
0.6702	42894.28	3.6740	3.6742	2.9823	25.10	-0.12	0.750			
0.6794	43480.78	3.6710	3.6712	2.9512	25.10	-0.12	0.750			
0.6882	44044.85	3.6680	3.6682	2.9165	25.09	-0.13	0.750			
0.6968	44596.89	3.6650	3.6651	2.8480	25.09	-0.13	0.750			
0.7056	45156.27	3.6620	3.6621	2.7502	25.10	-0.12	0.750			
0.7139	45688.07	3.6590	3.6589	2.6615	25.11	-0.11	0.750			
0.7215	46173.78	3.6560	3.6559	2.3828	25.13	-0.09	0.750			
0.7282	46601.95	3.6530	3.6532	2.1401	25.14	-0.08	0.750			
0.7342	46988.41	3.6500	3.6501	1.8963	25.16	-0.06	0.750			
0.7395	47325.53	3.6470	3.6471	1.6541	25.17	-0.05	0.750			
0.7442	47627.74	3.6440	3.6444	1.4348	25.18	-0.04	0.750			
0.7481	47877.23	3.6410	3.6411	1.2066	25.19	-0.03	0.750			
0.7513	48084.04	3.6380	3.6380	1.0269	25.20	-0.02	0.750			
0.7539	48249.73	3.6350	3.6349	0.8611	25.21	-0.01	0.750			
0.7560	48385.49	3.6320	3.6318	0.7401	25.22	-0.00	0.750			
0.7580	48514.54	3.6290	3.6290	0.6615	25.22	0.00	0.750			
0.7598	48629.89	3.6260	3.6261	0.5987	25.23	0.01	0.750			
0.7616	48739.65	3.6230	3.6230	0.5486	25.24	0.02	0.750			
0.7632	48842.66	3.6200	3.6199	0.5001	25.24	0.02	0.750			
0.7646	48932.13	3.6170	3.6169	0.4424	25.25	0.03	0.750			
0.7658	49013.61	3.6140	3.6140	0.3849	25.25	0.03	0.750			
0.7669	49083.26	3.6110	3.6110	0.3267	25.25	0.03	0.750			
0.7678	49140.95	3.6080	3.6081	0.2626	25.26	0.04	0.750			
0.7685	49185.71	3.6050	3.6050	0.1930	25.26	0.04	0.750			
0.7690	49216.22	3.6020	3.6018	0.1234	25.26	0.04	0.750			
