Ah_balance (normalized)	Ah_balance (mAh)	Voltage - fit (V)	Voltage -  interpolate (V)	dQ/dV (1/V)	Temperature (°C)	Temperature - diff (°C)	Current (C)	R_DC 0ms (mOhm)	R_DC 50ms (mOhm)	R_DC 50 ms PEC (mOhm)
0.0488	3121.95	4.1960	4.1960	0.7513	25.57	0.35	0.750			
0.0510	3265.31	4.1930	4.1932	0.7527	25.57	0.35	0.750			
0.0533	3408.21	4.1900	4.1898	0.7689	25.57	0.35	0.750			
0.0556	3558.43	4.1870	4.1871	0.7831	25.57	0.35	0.750			
0.0580	3712.14	4.1840	4.1838	0.7834	25.57	0.35	0.750			
0.0604	3863.83	4.1810	4.1811	0.7872	25.58	0.36	0.750			
0.0628	4017.60	4.1780	4.1782	0.7827	25.58	0.36	0.750			
0.0651	4168.77	4.1750	4.1751	0.7791	25.58	0.36	0.750			
0.0675	4318.06	4.1720	4.1720	0.7697	25.58	0.36	0.750			
0.0697	4463.22	4.1690	4.1689	0.7600	25.58	0.36	0.750			
0.0720	4609.27	4.1660	4.1661	0.7586	25.58	0.36	0.750			
0.0743	4753.83	4.1630	4.1631	0.7590	25.59	0.37	0.750			
0.0765	4898.30	4.1600	4.1599	0.7573	25.59	0.37	0.750			
0.0788	5043.73	4.1570	4.1569	0.7621	25.59	0.37	0.750			
0.0811	5190.27	4.1540	4.1540	0.7669	25.59	0.37	0.750			
0.0834	5339.52	4.1510	4.1510	0.7669	25.59	0.37	0.750			
0.0857	5487.65	4.1480	4.1480	0.7740	25.59	0.37	0.750			
0.0881	5636.23	4.1450	4.1451	0.7756	25.59	0.37	0.750			
0.0904	5784.12	4.1420	4.1419	0.7764	25.59	0.37	0.750			
0.0927	5933.64	4.1390	4.1391	0.7820	25.59	0.37	0.750			
0.0951	6083.82	4.1360	4.1360	0.7836	25.59	0.37	0.750			
0.0974	6234.89	4.1330	4.1330	0.7791	25.59	0.37	0.750			
0.0998	6384.95	4.1300	4.1300	0.7819	25.60	0.38	0.750			
0.1021	6534.37	4.1270	4.1271	0.7853	25.60	0.38	0.750			
0.1045	6686.02	4.1240	4.1241	0.7861	25.60	0.38	0.750			
0.1068	6837.21	4.1210	4.1211	0.7876	25.60	0.38	0.750			
0.1092	6989.43	4.1180	4.1180	0.7898	25.60	0.38	0.750			
0.1116	7143.00	4.1150	4.1150	0.7900	25.61	0.39	0.750			
0.1139	7292.10	4.1120	4.1120	0.7879	25.61	0.39	0.750			
0.1163	7442.70	4.1090	4.1089	0.7932	25.61	0.39	0.750			
0.1187	7595.21	4.1060	4.1060	0.7993	25.61	0.39	0.750			
0.1211	7751.17	4.1030	4.1029	0.7986	25.61	0.39	0.750			
0.1235	7905.09	4.1000	4.1000	0.8049	25.61	0.39	0.750			
0.1259	8060.44	4.0970	4.0972	0.8049	25.61	0.39	0.750			
0.1284	8216.02	4.0940	4.0936	0.8037	25.61	0.39	0.750			
0.1308	8369.01	4.0910	4.0911	0.8018	25.61	0.39	0.750			
0.1332	8525.50	4.0880	4.0880	0.7853	25.61	0.39	0.750			
0.1355	8672.82	4.0850	4.0850	0.7954	25.62	0.40	0.750			
0.1379	8825.12	4.0820	4.0821	0.8077	25.62	0.40	0.750			
0.1403	8978.29	4.0790	4.0791	0.8134	25.62	0.40	0.750			
0.1428	9136.08	4.0760	4.0762	0.8206	25.62	0.40	0.750			
0.1453	9296.07	4.0730	4.0732	0.8224	25.62	0.40	0.750			
0.1478	9456.49	4.0700	4.0700	0.8273	25.63	0.41	0.750			
0.1503	9617.73	4.0670	4.0670	0.8260	25.63	0.41	0.750			
0.1527	9771.19	4.0640	4.0641	0.8176	25.63	0.41	0.750			
0.1551	9928.81	4.0610	4.0610	0.8223	25.63	0.41	0.750			
0.1576	10088.82	4.0580	4.0580	0.8211	25.63	0.41	0.750			
0.1601	10246.56	4.0550	4.0549	0.8269	25.63	0.41	0.750			
0.1626	10407.12	4.0520	4.0521	0.8296	25.63	0.41	0.750			
0.1651	10565.42	4.0490	4.0490	0.8242	25.63	0.41	0.750			
0.1675	10722.89	4.0460	4.0461	0.8294	25.63	0.41	0.750			
0.1700	10881.98	4.0430	4.0430	0.8217	25.64	0.42	0.750			
0.1725	11040.24	4.0400	4.0399	0.8295	25.64	0.42	0.750			
0.1750	11199.29	4.0370	4.0371	0.8411	25.64	0.42	0.750			
0.1775	11359.59	4.0340	4.0341	0.8444	25.65	0.43	0.750			
0.1801	11523.66	4.0310	4.0310	0.8550	25.65	0.43	0.750			
0.1827	11689.79	4.0280	4.0280	0.8589	25.65	0.43	0.750			
0.1852	11853.95	4.0250	4.0251	0.8659	25.65	0.43	0.750			
0.1879	12022.88	4.0220	4.0220	0.8753	25.65	0.43	0.750			
0.1905	12190.82	4.0190	4.0189	0.8751	25.65	0.43	0.750			
0.1931	12359.39	4.0160	4.0160	0.8797	25.65	0.43	0.750			
0.1958	12530.49	4.0130	4.0130	0.8761	25.66	0.44	0.750			
0.1984	12697.64	4.0100	4.0100	0.8756	25.66	0.44	0.750			
0.2010	12864.68	4.0070	4.0071	0.8749	25.67	0.45	0.750			
0.2036	13032.92	4.0040	4.0037	0.8822	25.67	0.45	0.750			
0.2063	13201.26	4.0010	4.0010	0.8847	25.67	0.45	0.750			
0.2089	13371.88	3.9980	3.9980	0.8827	25.67	0.45	0.750			
0.2116	13541.38	3.9950	3.9951	0.8921	25.67	0.45	0.750			
0.2143	13713.29	3.9920	3.9921	0.8943	25.67	0.45	0.750			
0.2170	13885.99	3.9890	3.9891	0.8968	25.67	0.45	0.750			
0.2197	14058.21	3.9860	3.9860	0.8961	25.68	0.46	0.750			
0.2224	14230.60	3.9830	3.9831	0.8977	25.68	0.46	0.750			
0.2251	14405.32	3.9800	3.9800	0.9022	25.68	0.46	0.750			
0.2278	14576.21	3.9770	3.9770	0.8983	25.69	0.47	0.750			
0.2305	14748.91	3.9740	3.9739	0.8993	25.69	0.47	0.750			
0.2331	14921.52	3.9710	3.9711	0.8994	25.70	0.48	0.750			
0.2359	15094.70	3.9680	3.9680	0.8997	25.70	0.48	0.750			
0.2386	15268.16	3.9650	3.9651	0.9029	25.71	0.49	0.750			
0.2413	15441.10	3.9620	3.9617	0.9015	25.71	0.49	0.750			
0.2440	15617.24	3.9590	3.9590	0.8907	25.71	0.49	0.750			
0.2466	15785.07	3.9560	3.9560	0.8991	25.71	0.49	0.750			
0.2493	15957.29	3.9530	3.9531	0.9050	25.71	0.49	0.750			
0.2520	16130.55	3.9500	3.9501	0.9166	25.71	0.49	0.750			
0.2548	16305.47	3.9470	3.9470	0.9228	25.71	0.49	0.750			
0.2576	16483.77	3.9440	3.9441	0.9306	25.72	0.50	0.750			
0.2604	16666.76	3.9410	3.9411	0.9383	25.72	0.50	0.750			
0.2633	16848.29	3.9380	3.9380	0.9428	25.73	0.51	0.750			
0.2661	17028.31	3.9350	3.9350	0.9324	25.73	0.51	0.750			
0.2689	17210.40	3.9320	3.9320	0.9271	25.73	0.51	0.750			
0.2717	17386.84	3.9290	3.9290	0.9266	25.73	0.51	0.750			
0.2744	17564.44	3.9260	3.9261	0.9309	25.73	0.51	0.750			
0.2772	17740.54	3.9230	3.9231	0.9355	25.73	0.51	0.750			
0.2800	17922.09	3.9200	3.9201	0.9403	25.73	0.51	0.750			
0.2829	18107.88	3.9170	3.9170	0.9175	25.74	0.52	0.750			
0.2856	18281.02	3.9140	3.9141	0.9385	25.74	0.52	0.750			
0.2884	18460.55	3.9110	3.9112	0.9429	25.75	0.53	0.750			
0.2913	18640.61	3.9080	3.9069	0.9462	25.75	0.53	0.750			
0.2941	18822.94	3.9050	3.9052	0.9447	25.75	0.53	0.750			
0.2969	19004.14	3.9020	3.9022	0.9510	25.75	0.53	0.750			
0.2999	19190.53	3.8990	3.8991	0.9596	25.75	0.53	0.750			
0.3027	19375.11	3.8960	3.8960	0.9508	25.75	0.53	0.750			
0.3057	19561.70	3.8930	3.8930	0.9465	25.75	0.53	0.750			
0.3085	19742.99	3.8900	3.8900	0.9526	25.75	0.53	0.750			
0.3113	19925.30	3.8870	3.8871	0.9549	25.75	0.53	0.750			
0.3142	20108.77	3.8840	3.8841	0.9630	25.75	0.53	0.750			
0.3171	20292.36	3.8810	3.8808	0.9620	25.75	0.53	0.750			
0.3200	20477.87	3.8780	3.8780	0.9547	25.74	0.52	0.750			
0.3228	20660.52	3.8750	3.8751	0.9599	25.74	0.52	0.750			
0.3257	20845.62	3.8720	3.8721	0.9688	25.73	0.51	0.750			
0.3286	21029.24	3.8690	3.8684	0.9709	25.73	0.51	0.750			
0.3315	21215.67	3.8660	3.8661	0.9725	25.73	0.51	0.750			
0.3344	21403.76	3.8630	3.8631	0.9848	25.72	0.50	0.750			
0.3375	21597.61	3.8600	3.8600	1.0021	25.72	0.50	0.750			
0.3405	21794.02	3.8570	3.8569	1.0120	25.71	0.49	0.750			
0.3435	21983.76	3.8540	3.8540	0.9957	25.71	0.49	0.750			
0.3465	22175.48	3.8510	3.8510	0.9968	25.70	0.48	0.750			
0.3495	22366.78	3.8480	3.8480	0.9976	25.70	0.48	0.750			
0.3525	22557.18	3.8450	3.8450	0.9939	25.69	0.47	0.750			
0.3554	22747.62	3.8420	3.8421	0.9945	25.68	0.46	0.750			
0.3584	22936.10	3.8390	3.8390	0.9918	25.68	0.46	0.750			
0.3613	23126.20	3.8360	3.8361	1.0056	25.67	0.45	0.750			
0.3644	23319.49	3.8330	3.8326	1.0177	25.66	0.44	0.750	0.325	0.423	
0.3674	23516.48	3.8300	3.8302	1.0197	25.65	0.43	0.750			
0.3705	23714.03	3.8270	3.8272	1.0281	25.64	0.42	0.750			
0.3737	23913.91	3.8240	3.8240	1.0354	25.64	0.42	0.750			
0.3768	24116.95	3.8210	3.8210	1.0376	25.63	0.41	0.750			
0.3799	24313.48	3.8180	3.8180	1.0204	25.63	0.41	0.750			
0.3829	24508.22	3.8150	3.8150	1.0294	25.62	0.40	0.750			
0.3860	24704.71	3.8120	3.8121	1.0373	25.61	0.39	0.750			
0.3891	24905.47	3.8090	3.8090	1.0443	25.60	0.38	0.750			
0.3924	25110.64	3.8060	3.8061	1.0354	25.59	0.37	0.750			
0.3954	25306.92	3.8030	3.8031	1.0481	25.58	0.36	0.750			
0.3985	25506.86	3.8000	3.8002	1.0652	25.57	0.35	0.750			
0.4018	25712.17	3.7970	3.7971	1.0811	25.56	0.34	0.750			
0.4050	25919.10	3.7940	3.7940	1.0889	25.55	0.33	0.750			
0.4083	26130.01	3.7910	3.7912	1.1099	25.54	0.32	0.750			
0.4117	26347.72	3.7880	3.7881	1.1331	25.53	0.31	0.750			
0.4151	26568.72	3.7850	3.7849	1.1465	25.52	0.30	0.750			
0.4185	26786.35	3.7820	3.7820	1.1507	25.51	0.29	0.750			
0.4220	27006.71	3.7790	3.7791	1.1712	25.50	0.28	0.750			
0.4255	27234.44	3.7760	3.7760	1.1982	25.49	0.27	0.750			
0.4292	27471.51	3.7730	3.7728	1.1956	25.48	0.26	0.750			
0.4328	27696.77	3.7700	3.7703	1.2326	25.47	0.25	0.750			
0.4365	27935.18	3.7670	3.7671	1.2651	25.46	0.24	0.750			
0.4403	28181.47	3.7640	3.7639	1.2981	25.45	0.23	0.750			
0.4442	28431.47	3.7610	3.7611	1.3215	25.44	0.22	0.750			
0.4483	28690.22	3.7580	3.7581	1.3556	25.42	0.20	0.750			
0.4525	28958.12	3.7550	3.7550	1.3744	25.41	0.19	0.750			
0.4567	29230.94	3.7520	3.7520	1.3760	25.39	0.17	0.750			
0.4608	29489.30	3.7490	3.7492	1.4204	25.38	0.16	0.750			
0.4651	29763.36	3.7460	3.7459	1.4494	25.37	0.15	0.750			
0.4694	30043.84	3.7430	3.7428	1.4837	25.36	0.14	0.750			
0.4739	30329.63	3.7400	3.7403	1.5187	25.35	0.13	0.750			
0.4785	30621.43	3.7370	3.7369	1.5720	25.33	0.11	0.750			
0.4833	30929.71	3.7340	3.7335	1.6200	25.32	0.10	0.750			
0.4883	31251.48	3.7310	3.7304	1.6540	25.30	0.08	0.750			
0.4933	31571.73	3.7280	3.7277	1.7043	25.29	0.07	0.750			
0.4985	31902.23	3.7250	3.7245	1.7671	25.28	0.06	0.750			
0.5039	32247.45	3.7220	3.7221	1.8150	25.27	0.05	0.750			
0.5094	32602.59	3.7190	3.7194	1.8579	25.25	0.03	0.750			
0.5152	32974.39	3.7160	3.7159	1.9153	25.22	0.00	0.750			
0.5208	33334.10	3.7130	3.7127	1.9619	25.21	-0.01	0.750			
0.5269	33722.98	3.7100	3.7099	2.0469	25.19	-0.03	0.750			
0.5330	34114.15	3.7070	3.7074	2.0986	25.18	-0.04	0.750			
0.5395	34528.56	3.7040	3.7043	2.1373	25.17	-0.05	0.750			
0.5462	34959.43	3.7010	3.7011	2.1713	25.15	-0.07	0.750			
0.5528	35381.16	3.6980	3.6978	2.2191	25.12	-0.10	0.750			
0.5596	35814.53	3.6950	3.6950	2.3273	25.12	-0.10	0.750			
0.5667	36269.67	3.6920	3.6921	2.3657	25.11	-0.11	0.750			
0.5741	36740.58	3.6890	3.6889	2.3812	25.10	-0.12	0.750			
0.5811	37189.32	3.6860	3.6853	2.4457	25.09	-0.13	0.750			
0.5884	37656.87	3.6830	3.6833	2.6006	25.07	-0.15	0.750			
0.5963	38163.43	3.6800	3.6801	2.7295	25.07	-0.15	0.750			
0.6052	38734.07	3.6770	3.6767	2.8943	25.06	-0.16	0.750			
0.6137	39279.25	3.6740	3.6743	2.8262	25.04	-0.18	0.750			
0.6222	39822.90	3.6710	3.6706	2.8167	25.04	-0.18	0.750			
0.6308	40368.20	3.6680	3.6677	2.7677	25.04	-0.18	0.750			
0.6388	40885.06	3.6650	3.6647	2.7052	25.05	-0.17	0.750			
0.6470	41410.78	3.6620	3.6617	2.6192	25.05	-0.17	0.750			
0.6545	41886.62	3.6590	3.6590	2.3239	25.06	-0.16	0.750			
0.6612	42313.77	3.6560	3.6557	2.1490	25.07	-0.15	0.750			
0.6672	42702.25	3.6530	3.6525	1.9620	25.07	-0.15	0.750			
0.6727	43055.91	3.6500	3.6497	1.7709	25.08	-0.14	0.750			
0.6779	43384.02	3.6470	3.6471	1.5959	25.08	-0.14	0.750			
0.6825	43680.18	3.6440	3.6442	1.4515	25.09	-0.13	0.750			
0.6866	43939.71	3.6410	3.6411	1.2972	25.10	-0.12	0.750			
0.6901	44169.47	3.6380	3.6379	1.1666	25.11	-0.11	0.750			
0.6935	44381.77	3.6350	3.6351	1.0834	25.12	-0.10	0.750			
0.6964	44571.43	3.6320	3.6321	1.0160	25.12	-0.10	0.750			
0.6994	44758.93	3.6290	3.6290	0.9764	25.13	-0.09	0.750			
0.7022	44941.57	3.6260	3.6260	0.9539	25.14	-0.08	0.750			
0.7049	45116.55	3.6230	3.6231	0.9232	25.14	-0.08	0.750			
0.7077	45295.38	3.6200	3.6200	0.9006	25.15	-0.07	0.750			
0.7105	45469.57	3.6170	3.6169	0.8764	25.16	-0.06	0.750			
0.7131	45639.18	3.6140	3.6141	0.8327	25.17	-0.05	0.750			
0.7156	45797.70	3.6110	3.6110	0.7786	25.18	-0.04	0.750			
0.7179	45945.32	3.6080	3.6081	0.7193	25.19	-0.03	0.750			
0.7200	46077.41	3.6050	3.6050	0.6485	25.19	-0.03	0.750			
0.7218	46193.70	3.6020	3.6020	0.5774	25.20	-0.02	0.750			
0.7234	46298.10	3.5990	3.5989	0.5101	25.20	-0.02	0.750			
0.7248	46387.61	3.5960	3.5960	0.4412	25.21	-0.01	0.750			
0.7260	46466.06	3.5930	3.5929	0.3771	25.21	-0.01	0.750			
0.7270	46530.17	3.5900	3.5900	0.3217	25.21	-0.01	0.750			
0.7279	46586.17	3.5870	3.5872	0.2662	25.22	-0.00	0.750			
0.7286	46631.23	3.5840	3.5845	0.2127	25.22	-0.00	0.750			
0.7292	46666.23	3.5810	3.5818	0.1633	25.22	0.00	0.750			
0.7295	46691.11	3.5780	3.5794	0.1263	25.22	0.00	0.750			
0.7299	46712.57	3.5750	3.5756	0.1213	25.22	0.00	0.750			
