Ah_balance (normalized)	Ah_balance (mAh)	Voltage - fit (V)	Voltage -  interpolate (V)	dQ/dV (1/V)	Temperature (°C)	Temperature - diff (°C)	Current (C)	R_DC 0ms (mOhm)	R_DC 50ms (mOhm)	R_DC 50 ms PEC (mOhm)
0.0493	3154.96	4.1970	4.1971	0.7562	25.52	0.60	0.750			
0.0516	3299.97	4.1940	4.1940	0.7561	25.52	0.60	0.750			
0.0538	3445.82	4.1910	4.1910	0.7547	25.52	0.60	0.750			
0.0561	3589.97	4.1880	4.1880	0.7539	25.51	0.59	0.750			
0.0583	3734.00	4.1850	4.1850	0.7517	25.51	0.59	0.750			
0.0606	3878.41	4.1820	4.1819	0.7550	25.51	0.59	0.750			
0.0629	4023.83	4.1790	4.1790	0.7558	25.51	0.59	0.750			
0.0652	4169.90	4.1760	4.1760	0.7537	25.51	0.59	0.750			
0.0674	4314.24	4.1730	4.1730	0.7567	25.51	0.59	0.750			
0.0697	4459.38	4.1700	4.1701	0.7564	25.51	0.59	0.750			
0.0720	4604.90	4.1670	4.1670	0.7594	25.51	0.59	0.750			
0.0742	4750.32	4.1640	4.1641	0.7609	25.51	0.59	0.750			
0.0765	4896.15	4.1610	4.1611	0.7653	25.51	0.59	0.750			
0.0788	5044.85	4.1580	4.1580	0.7671	25.51	0.59	0.750			
0.0811	5192.34	4.1550	4.1550	0.7674	25.51	0.59	0.750			
0.0834	5338.75	4.1520	4.1520	0.7669	25.51	0.59	0.750			
0.0857	5487.14	4.1490	4.1488	0.7679	25.51	0.59	0.750			
0.0880	5634.56	4.1460	4.1460	0.7670	25.51	0.59	0.750			
0.0903	5782.04	4.1430	4.1430	0.7642	25.51	0.59	0.750			
0.0926	5927.94	4.1400	4.1400	0.7653	25.50	0.58	0.750			
0.0949	6075.13	4.1370	4.1370	0.7700	25.50	0.58	0.750			
0.0972	6221.67	4.1340	4.1339	0.7737	25.50	0.58	0.750			
0.0995	6370.60	4.1310	4.1311	0.7722	25.50	0.58	0.750			
0.1019	6520.14	4.1280	4.1279	0.7751	25.50	0.58	0.750			
0.1042	6669.95	4.1250	4.1251	0.7757	25.50	0.58	0.750			
0.1065	6819.15	4.1220	4.1220	0.7762	25.51	0.59	0.750			
0.1089	6966.94	4.1190	4.1190	0.7746	25.51	0.59	0.750			
0.1112	7115.67	4.1160	4.1158	0.7763	25.51	0.59	0.750			
0.1135	7263.16	4.1130	4.1131	0.7790	25.51	0.59	0.750			
0.1159	7415.36	4.1100	4.1100	0.7780	25.51	0.59	0.750			
0.1182	7564.19	4.1070	4.1070	0.7842	25.51	0.59	0.750			
0.1205	7714.82	4.1040	4.1040	0.7884	25.51	0.59	0.750			
0.1229	7865.72	4.1010	4.1010	0.7905	25.51	0.59	0.750			
0.1253	8018.50	4.0980	4.0981	0.7935	25.51	0.59	0.750			
0.1277	8172.73	4.0950	4.0950	0.7927	25.51	0.59	0.750			
0.1301	8324.92	4.0920	4.0920	0.7929	25.50	0.58	0.750			
0.1325	8478.13	4.0890	4.0890	0.7955	25.50	0.58	0.750			
0.1348	8628.21	4.0860	4.0860	0.7926	25.50	0.58	0.750			
0.1372	8780.51	4.0830	4.0829	0.7948	25.50	0.58	0.750			
0.1396	8935.74	4.0800	4.0799	0.7909	25.50	0.58	0.750			
0.1420	9085.20	4.0770	4.0771	0.7976	25.50	0.58	0.750			
0.1444	9238.93	4.0740	4.0740	0.8043	25.51	0.59	0.750			
0.1468	9392.51	4.0710	4.0710	0.8080	25.51	0.59	0.750			
0.1492	9548.20	4.0680	4.0678	0.8098	25.51	0.59	0.750			
0.1517	9706.25	4.0650	4.0651	0.8098	25.51	0.59	0.750			
0.1541	9863.12	4.0620	4.0621	0.8173	25.51	0.59	0.750			
0.1566	10020.26	4.0590	4.0590	0.8193	25.51	0.59	0.750			
0.1590	10174.77	4.0560	4.0560	0.8146	25.51	0.59	0.750			
0.1614	10331.30	4.0530	4.0528	0.8197	25.51	0.59	0.750			
0.1639	10490.30	4.0500	4.0501	0.8224	25.51	0.59	0.750			
0.1664	10650.28	4.0470	4.0470	0.8320	25.51	0.59	0.750			
0.1689	10809.86	4.0440	4.0440	0.8354	25.51	0.59	0.750			
0.1714	10970.75	4.0410	4.0410	0.8333	25.51	0.59	0.750			
0.1739	11130.89	4.0380	4.0379	0.8353	25.51	0.59	0.750			
0.1764	11291.52	4.0350	4.0350	0.8388	25.51	0.59	0.750			
0.1789	11451.81	4.0320	4.0320	0.8346	25.51	0.59	0.750			
0.1814	11611.48	4.0290	4.0290	0.8364	25.51	0.59	0.750			
0.1839	11770.35	4.0260	4.0261	0.8386	25.51	0.59	0.750			
0.1864	11931.77	4.0230	4.0227	0.8469	25.51	0.59	0.750			
0.1890	12098.60	4.0200	4.0201	0.8437	25.51	0.59	0.750			
0.1916	12259.61	4.0170	4.0170	0.8490	25.51	0.59	0.750			
0.1941	12424.13	4.0140	4.0141	0.8538	25.51	0.59	0.750			
0.1967	12587.91	4.0110	4.0111	0.8515	25.51	0.59	0.750			
0.1992	12750.55	4.0080	4.0080	0.8549	25.51	0.59	0.750			
0.2018	12915.86	4.0050	4.0051	0.8536	25.51	0.59	0.750			
0.2044	13078.57	4.0020	4.0021	0.8613	25.51	0.59	0.750			
0.2070	13246.39	3.9990	3.9990	0.8665	25.52	0.60	0.750			
0.2096	13412.28	3.9960	3.9961	0.8640	25.52	0.60	0.750			
0.2122	13579.09	3.9930	3.9931	0.8678	25.52	0.60	0.750			
0.2148	13747.01	3.9900	3.9900	0.8662	25.52	0.60	0.750			
0.2174	13912.27	3.9870	3.9870	0.8713	25.53	0.61	0.750			
0.2200	14079.78	3.9840	3.9840	0.8777	25.53	0.61	0.750			
0.2226	14247.50	3.9810	3.9809	0.8762	25.53	0.61	0.750			
0.2253	14417.78	3.9780	3.9780	0.8826	25.53	0.61	0.750			
0.2279	14588.17	3.9750	3.9751	0.8841	25.53	0.61	0.750			
0.2306	14758.71	3.9720	3.9720	0.8844	25.53	0.61	0.750			
0.2333	14929.42	3.9690	3.9690	0.8860	25.53	0.61	0.750			
0.2359	15097.41	3.9660	3.9658	0.8801	25.53	0.61	0.750			
0.2385	15265.67	3.9630	3.9631	0.8810	25.53	0.61	0.750			
0.2412	15435.24	3.9600	3.9600	0.8854	25.53	0.61	0.750			
0.2439	15606.49	3.9570	3.9570	0.8855	25.53	0.61	0.750			
0.2465	15776.61	3.9540	3.9540	0.8864	25.53	0.61	0.750			
0.2492	15945.88	3.9510	3.9510	0.8884	25.53	0.61	0.750			
0.2518	16117.27	3.9480	3.9480	0.8867	25.52	0.60	0.750			
0.2545	16286.76	3.9450	3.9449	0.8918	25.52	0.60	0.750			
0.2572	16457.92	3.9420	3.9420	0.8930	25.52	0.60	0.750			
0.2599	16630.89	3.9390	3.9390	0.8925	25.51	0.59	0.750			
0.2625	16802.90	3.9360	3.9361	0.8947	25.51	0.59	0.750			
0.2652	16975.70	3.9330	3.9330	0.8883	25.51	0.59	0.750			
0.2679	17145.18	3.9300	3.9300	0.8856	25.51	0.59	0.750			
0.2705	17314.18	3.9270	3.9270	0.8882	25.51	0.59	0.750			
0.2732	17483.04	3.9240	3.9238	0.8836	25.51	0.59	0.750			
0.2759	17654.68	3.9210	3.9209	0.8843	25.51	0.59	0.750			
0.2785	17824.33	3.9180	3.9182	0.8859	25.50	0.58	0.750			
0.2812	17996.41	3.9150	3.9149	0.8818	25.50	0.58	0.750			
0.2838	18165.33	3.9120	3.9120	0.8820	25.49	0.57	0.750			
0.2864	18331.63	3.9090	3.9090	0.8745	25.49	0.57	0.750			
0.2891	18499.74	3.9060	3.9060	0.8713	25.49	0.57	0.750			
0.2917	18667.71	3.9030	3.9030	0.8782	25.48	0.56	0.750			
0.2943	18835.64	3.9000	3.9001	0.8843	25.48	0.56	0.750			
0.2970	19004.85	3.8970	3.8971	0.8897	25.47	0.55	0.750			
0.2997	19178.56	3.8940	3.8940	0.8976	25.47	0.55	0.750			
0.3024	19351.41	3.8910	3.8911	0.8933	25.46	0.54	0.750			
0.3051	19523.84	3.8880	3.8880	0.8970	25.46	0.54	0.750			
0.3078	19696.10	3.8850	3.8850	0.8976	25.46	0.54	0.750			
0.3104	19867.40	3.8820	3.8818	0.8917	25.45	0.53	0.750			
0.3131	20039.70	3.8790	3.8791	0.8887	25.45	0.53	0.750			
0.3158	20209.06	3.8760	3.8760	0.8926	25.44	0.52	0.750			
0.3185	20380.98	3.8730	3.8730	0.8944	25.43	0.51	0.750			
0.3211	20553.39	3.8700	3.8700	0.8996	25.43	0.51	0.750			
0.3238	20724.69	3.8670	3.8669	0.9016	25.42	0.50	0.750			
0.3266	20902.20	3.8640	3.8640	0.8904	25.41	0.49	0.750			
0.3293	21072.67	3.8610	3.8611	0.8996	25.40	0.48	0.750			
0.3319	21243.15	3.8580	3.8580	0.9032	25.39	0.47	0.750			
0.3346	21414.64	3.8550	3.8551	0.9052	25.38	0.46	0.750			
0.3373	21589.48	3.8520	3.8521	0.9092	25.38	0.46	0.750			
0.3401	21763.22	3.8490	3.8491	0.9176	25.37	0.45	0.750			
0.3428	21940.28	3.8460	3.8461	0.9323	25.36	0.44	0.750			
0.3457	22122.97	3.8430	3.8430	0.9438	25.36	0.44	0.750			
0.3485	22304.55	3.8400	3.8399	0.9420	25.35	0.43	0.750	0.334	0.458	
0.3514	22487.41	3.8370	3.8371	0.9462	25.34	0.42	0.750			
0.3542	22670.63	3.8340	3.8341	0.9526	25.34	0.42	0.750			
0.3571	22853.02	3.8310	3.8310	0.9613	25.33	0.41	0.750			
0.3599	23035.48	3.8280	3.8279	0.9604	25.32	0.40	0.750			
0.3629	23223.61	3.8250	3.8250	0.9585	25.31	0.39	0.750			
0.3658	23408.06	3.8220	3.8220	0.9719	25.30	0.38	0.750			
0.3687	23593.66	3.8190	3.8192	0.9845	25.29	0.37	0.750			
0.3716	23783.77	3.8160	3.8161	0.9947	25.28	0.36	0.750			
0.3746	23976.38	3.8130	3.8130	0.9971	25.27	0.35	0.750			
0.3776	24167.59	3.8100	3.8101	1.0065	25.26	0.34	0.750			
0.3807	24362.69	3.8070	3.8071	1.0224	25.25	0.33	0.750			
0.3838	24560.75	3.8040	3.8041	1.0350	25.25	0.33	0.750			
0.3869	24759.45	3.8010	3.8008	1.0349	25.24	0.32	0.750			
0.3900	24957.77	3.7980	3.7981	1.0538	25.23	0.31	0.750			
0.3932	25161.82	3.7950	3.7951	1.0734	25.22	0.30	0.750			
0.3964	25370.30	3.7920	3.7921	1.0912	25.21	0.29	0.750			
0.3997	25583.60	3.7890	3.7889	1.0919	25.20	0.28	0.750			
0.4030	25792.77	3.7860	3.7861	1.1163	25.19	0.27	0.750			
0.4064	26008.88	3.7830	3.7831	1.1341	25.18	0.26	0.750			
0.4098	26229.01	3.7800	3.7799	1.1510	25.16	0.24	0.750			
0.4133	26449.90	3.7770	3.7771	1.1679	25.15	0.23	0.750			
0.4168	26674.72	3.7740	3.7741	1.1909	25.14	0.22	0.750			
0.4204	26905.85	3.7710	3.7710	1.2187	25.13	0.21	0.750			
0.4241	27142.50	3.7680	3.7681	1.2319	25.12	0.20	0.750			
0.4278	27381.90	3.7650	3.7650	1.2611	25.11	0.19	0.750			
0.4317	27626.89	3.7620	3.7621	1.2930	25.09	0.17	0.750			
0.4356	27877.03	3.7590	3.7589	1.3261	25.08	0.16	0.750			
0.4395	28129.57	3.7560	3.7560	1.3392	25.07	0.15	0.750			
0.4436	28389.00	3.7530	3.7531	1.3732	25.06	0.14	0.750			
0.4477	28654.95	3.7500	3.7497	1.4034	25.04	0.12	0.750			
0.4520	28930.08	3.7470	3.7471	1.4342	25.03	0.11	0.750			
0.4564	29208.38	3.7440	3.7441	1.4643	25.02	0.10	0.750			
0.4609	29496.19	3.7410	3.7409	1.4877	25.00	0.08	0.750			
0.4655	29793.82	3.7380	3.7379	1.5233	24.99	0.07	0.750			
0.4699	30072.96	3.7350	3.7351	1.5657	24.97	0.05	0.750			
0.4745	30371.00	3.7320	3.7323	1.6050	24.96	0.04	0.750			
0.4795	30685.12	3.7290	3.7293	1.6390	24.94	0.02	0.750			
0.4845	31005.07	3.7260	3.7264	1.7000	24.93	0.01	0.750			
0.4897	31338.81	3.7230	3.7232	1.7679	24.91	-0.01	0.750			
0.4951	31687.16	3.7200	3.7196	1.8317	24.90	-0.02	0.750			
0.5006	32040.15	3.7170	3.7171	1.8830	24.89	-0.03	0.750			
0.5066	32422.12	3.7140	3.7140	1.9456	24.87	-0.05	0.750			
0.5125	32799.13	3.7110	3.7109	2.0024	24.86	-0.06	0.750			
0.5184	33178.09	3.7080	3.7077	2.0227	24.84	-0.08	0.750			
0.5247	33578.77	3.7050	3.7050	1.9949	24.82	-0.10	0.750			
0.5304	33944.73	3.7020	3.7022	1.9842	24.80	-0.12	0.750			
0.5362	34316.14	3.6990	3.6982	2.0260	24.79	-0.13	0.750			
0.5424	34712.18	3.6960	3.6963	2.1122	24.78	-0.14	0.750			
0.5489	35130.15	3.6930	3.6934	2.2190	24.78	-0.14	0.750			
0.5560	35585.47	3.6900	3.6896	2.2922	24.77	-0.15	0.750			
0.5628	36018.44	3.6870	3.6873	2.4261	24.76	-0.16	0.750			
0.5701	36483.67	3.6840	3.6838	2.4339	24.75	-0.17	0.750			
0.5776	36965.56	3.6810	3.6817	2.4632	24.75	-0.17	0.750			
0.5850	37441.93	3.6780	3.6784	2.5094	24.75	-0.17	0.750			
0.5929	37943.68	3.6750	3.6744	2.5061	24.75	-0.17	0.750			
0.6001	38405.95	3.6720	3.6712	2.3445	24.75	-0.17	0.750			
0.6069	38840.68	3.6690	3.6692	2.2134	24.76	-0.16	0.750			
0.6135	39264.74	3.6660	3.6666	2.0798	24.76	-0.16	0.750			
0.6198	39669.92	3.6630	3.6628	2.0094	24.77	-0.15	0.750			
0.6252	40010.92	3.6600	3.6599	1.7703	24.78	-0.14	0.750			
0.6305	40353.00	3.6570	3.6570	1.6928	24.79	-0.13	0.750			
0.6353	40658.51	3.6540	3.6539	1.5380	24.80	-0.12	0.750			
0.6399	40950.66	3.6510	3.6512	1.4623	24.81	-0.11	0.750			
0.6439	41210.12	3.6480	3.6482	1.3528	24.81	-0.11	0.750			
0.6478	41458.46	3.6450	3.6448	1.2590	24.82	-0.10	0.750			
0.6516	41699.65	3.6420	3.6421	1.1982	24.83	-0.09	0.750			
0.6548	41909.81	3.6390	3.6392	1.1118	24.84	-0.08	0.750			
0.6581	42118.31	3.6360	3.6360	1.0623	24.84	-0.08	0.750			
0.6612	42318.65	3.6330	3.6326	1.0172	24.85	-0.07	0.750			
0.6641	42503.28	3.6300	3.6301	0.9591	24.86	-0.06	0.750			
0.6669	42683.10	3.6270	3.6271	0.9315	24.86	-0.06	0.750			
0.6697	42859.65	3.6240	3.6240	0.9013	24.87	-0.05	0.750			
0.6723	43028.90	3.6210	3.6211	0.8600	24.88	-0.04	0.750			
0.6749	43191.93	3.6180	3.6182	0.8285	24.88	-0.04	0.750			
0.6774	43350.56	3.6150	3.6151	0.7873	24.89	-0.03	0.750			
0.6797	43502.09	3.6120	3.6120	0.7377	24.90	-0.02	0.750			
0.6818	43638.31	3.6090	3.6090	0.6881	24.91	-0.01	0.750			
0.6838	43763.66	3.6060	3.6061	0.6321	24.91	-0.01	0.750			
0.6856	43879.85	3.6030	3.6029	0.5809	24.92	-0.00	0.750			
0.6873	43986.31	3.6000	3.6001	0.5303	24.92	0.00	0.750			
0.6888	44085.35	3.5970	3.5970	0.4743	24.93	0.01	0.750			
0.6902	44172.90	3.5940	3.5941	0.4171	24.93	0.01	0.750			
0.6913	44245.79	3.5910	3.5911	0.3749	24.94	0.02	0.750			
0.6923	44309.45	3.5880	3.5884	0.3220	24.94	0.02	0.750			
0.6932	44365.39	3.5850	3.5843	0.2749	24.94	0.02	0.750			
0.6940	44413.41	3.5820	3.5829	0.2348	24.95	0.03	0.750			
0.6946	44453.45	3.5790	3.5802	0.1986	24.95	0.03	0.750			
0.6951	44488.94	3.5760	3.5772	0.1644	24.95	0.03	0.750			
0.6956	44518.52	3.5730	3.5727	0.0175	24.95	0.03	0.750			
