Ah_balance (normalized)	Ah_balance (mAh)	Voltage - fit (V)	Voltage -  interpolate (V)	dQ/dV (1/V)	Temperature (°C)	Temperature - diff (°C)	Current (C)	R_DC 0ms (mOhm)	R_DC 50ms (mOhm)	R_DC 50 ms PEC (mOhm)
0.0484	3100.01	4.1970	4.1970	0.7507	25.20	0.44	0.750			
0.0507	3245.92	4.1940	4.1939	0.7584	25.20	0.44	0.750			
0.0530	3390.90	4.1910	4.1911	0.7644	25.20	0.44	0.750			
0.0553	3538.75	4.1880	4.1881	0.7691	25.20	0.44	0.750			
0.0576	3687.66	4.1850	4.1846	0.7731	25.20	0.44	0.750			
0.0599	3836.35	4.1820	4.1821	0.7761	25.20	0.44	0.750			
0.0623	3986.26	4.1790	4.1790	0.7770	25.20	0.44	0.750			
0.0646	4135.52	4.1760	4.1761	0.7772	25.20	0.44	0.750			
0.0670	4287.02	4.1730	4.1730	0.7789	25.20	0.44	0.750			
0.0693	4433.21	4.1700	4.1701	0.7767	25.20	0.44	0.750			
0.0716	4583.30	4.1670	4.1670	0.7809	25.20	0.44	0.750			
0.0740	4732.92	4.1640	4.1640	0.7814	25.20	0.44	0.750			
0.0763	4882.56	4.1610	4.1610	0.7804	25.20	0.44	0.750			
0.0786	5033.32	4.1580	4.1580	0.7848	25.20	0.44	0.750			
0.0810	5183.30	4.1550	4.1550	0.7865	25.20	0.44	0.750			
0.0834	5335.00	4.1520	4.1520	0.7871	25.20	0.44	0.750			
0.0857	5485.80	4.1490	4.1491	0.7851	25.20	0.44	0.750			
0.0881	5637.50	4.1460	4.1460	0.7827	25.20	0.44	0.750			
0.0904	5788.03	4.1430	4.1431	0.7862	25.20	0.44	0.750			
0.0928	5936.34	4.1400	4.1400	0.7844	25.20	0.44	0.750			
0.0951	6087.59	4.1370	4.1368	0.7907	25.20	0.44	0.750			
0.0975	6239.42	4.1340	4.1341	0.7944	25.20	0.44	0.750			
0.0999	6393.88	4.1310	4.1310	0.8006	25.20	0.44	0.750			
0.1023	6550.36	4.1280	4.1280	0.8065	25.20	0.44	0.750			
0.1048	6705.76	4.1250	4.1250	0.8069	25.20	0.44	0.750			
0.1072	6857.92	4.1220	4.1220	0.8044	25.20	0.44	0.750			
0.1096	7013.41	4.1190	4.1190	0.8056	25.20	0.44	0.750			
0.1120	7169.24	4.1160	4.1160	0.8023	25.20	0.44	0.750			
0.1144	7322.28	4.1130	4.1130	0.8062	25.20	0.44	0.750			
0.1168	7477.15	4.1100	4.1101	0.8101	25.20	0.44	0.750			
0.1193	7632.79	4.1070	4.1069	0.8110	25.20	0.44	0.750			
0.1217	7788.79	4.1040	4.1041	0.8127	25.20	0.44	0.750			
0.1241	7945.37	4.1010	4.1011	0.8122	25.20	0.44	0.750			
0.1266	8101.93	4.0980	4.0980	0.8171	25.20	0.44	0.750			
0.1290	8259.16	4.0950	4.0950	0.8219	25.20	0.44	0.750			
0.1315	8415.61	4.0920	4.0920	0.8224	25.20	0.44	0.750			
0.1340	8573.91	4.0890	4.0891	0.8256	25.20	0.44	0.750			
0.1365	8734.20	4.0860	4.0860	0.8309	25.20	0.44	0.750			
0.1390	8893.79	4.0830	4.0830	0.8335	25.20	0.44	0.750			
0.1415	9054.96	4.0800	4.0800	0.8348	25.20	0.44	0.750			
0.1440	9214.32	4.0770	4.0770	0.8345	25.20	0.44	0.750			
0.1465	9374.08	4.0740	4.0740	0.8371	25.20	0.44	0.750			
0.1490	9536.79	4.0710	4.0710	0.8361	25.20	0.44	0.750			
0.1515	9696.47	4.0680	4.0680	0.8420	25.20	0.44	0.750			
0.1540	9857.58	4.0650	4.0651	0.8476	25.20	0.44	0.750			
0.1566	10020.48	4.0620	4.0620	0.8523	25.20	0.44	0.750			
0.1592	10185.89	4.0590	4.0590	0.8561	25.20	0.44	0.750			
0.1617	10351.28	4.0560	4.0560	0.8544	25.20	0.44	0.750			
0.1643	10514.75	4.0530	4.0531	0.8575	25.21	0.45	0.750			
0.1669	10680.65	4.0500	4.0500	0.8620	25.21	0.45	0.750			
0.1694	10843.55	4.0470	4.0470	0.8607	25.21	0.45	0.750			
0.1720	11009.21	4.0440	4.0440	0.8674	25.21	0.45	0.750			
0.1746	11176.33	4.0410	4.0411	0.8741	25.21	0.45	0.750			
0.1773	11346.57	4.0380	4.0380	0.8776	25.20	0.44	0.750			
0.1800	11518.04	4.0350	4.0349	0.8777	25.20	0.44	0.750			
0.1826	11684.54	4.0320	4.0320	0.8757	25.20	0.44	0.750			
0.1852	11851.90	4.0290	4.0290	0.8752	25.20	0.44	0.750			
0.1878	12019.32	4.0260	4.0259	0.8737	25.20	0.44	0.750			
0.1904	12184.99	4.0230	4.0231	0.8809	25.21	0.45	0.750			
0.1930	12354.27	4.0200	4.0201	0.8900	25.21	0.45	0.750			
0.1957	12527.79	4.0170	4.0169	0.8974	25.21	0.45	0.750			
0.1985	12704.97	4.0140	4.0140	0.8933	25.21	0.45	0.750			
0.2012	12873.93	4.0110	4.0112	0.8982	25.21	0.45	0.750			
0.2039	13047.68	4.0080	4.0080	0.9009	25.21	0.45	0.750			
0.2066	13219.69	4.0050	4.0050	0.9083	25.21	0.45	0.750			
0.2092	13390.12	4.0020	4.0020	0.9086	25.21	0.45	0.750			
0.2120	13566.86	3.9990	3.9991	0.9120	25.21	0.45	0.750			
0.2148	13745.71	3.9960	3.9961	0.9201	25.22	0.46	0.750			
0.2175	13923.04	3.9930	3.9931	0.9216	25.22	0.46	0.750			
0.2203	14098.55	3.9900	3.9899	0.9183	25.22	0.46	0.750			
0.2231	14277.42	3.9870	3.9869	0.9132	25.22	0.46	0.750			
0.2258	14449.64	3.9840	3.9840	0.9156	25.22	0.46	0.750			
0.2285	14625.08	3.9810	3.9811	0.9202	25.21	0.45	0.750			
0.2313	14802.79	3.9780	3.9780	0.9267	25.21	0.45	0.750			
0.2341	14980.06	3.9750	3.9749	0.9298	25.21	0.45	0.750			
0.2369	15159.90	3.9720	3.9721	0.9258	25.21	0.45	0.750			
0.2396	15337.47	3.9690	3.9691	0.9328	25.21	0.45	0.750			
0.2425	15519.78	3.9660	3.9660	0.9295	25.21	0.45	0.750			
0.2453	15696.75	3.9630	3.9626	0.9201	25.21	0.45	0.750			
0.2480	15872.96	3.9600	3.9602	0.9172	25.21	0.45	0.750			
0.2507	16047.66	3.9570	3.9572	0.9206	25.21	0.45	0.750			
0.2535	16223.94	3.9540	3.9539	0.9270	25.22	0.46	0.750			
0.2563	16400.10	3.9510	3.9510	0.9268	25.22	0.46	0.750			
0.2591	16579.87	3.9480	3.9480	0.9396	25.22	0.46	0.750			
0.2620	16766.67	3.9450	3.9449	0.9457	25.22	0.46	0.750			
0.2648	16945.49	3.9420	3.9421	0.9499	25.22	0.46	0.750			
0.2676	17127.59	3.9390	3.9391	0.9546	25.22	0.46	0.750			
0.2705	17310.19	3.9360	3.9355	0.9573	25.22	0.46	0.750			
0.2733	17493.55	3.9330	3.9331	0.9630	25.22	0.46	0.750			
0.2762	17677.69	3.9300	3.9301	0.9603	25.22	0.46	0.750			
0.2791	17863.76	3.9270	3.9271	0.9726	25.23	0.47	0.750			
0.2820	18048.89	3.9240	3.9240	0.9711	25.23	0.47	0.750			
0.2850	18237.32	3.9210	3.9212	0.9756	25.23	0.47	0.750			
0.2879	18426.35	3.9180	3.9180	0.9830	25.23	0.47	0.750			
0.2909	18616.79	3.9150	3.9151	0.9905	25.24	0.48	0.750			
0.2939	18812.56	3.9120	3.9120	1.0048	25.24	0.48	0.750			
0.2969	19001.12	3.9090	3.9089	0.9795	25.24	0.48	0.750			
0.2998	19187.50	3.9060	3.9061	0.9866	25.24	0.48	0.750			
0.3028	19376.82	3.9030	3.9031	0.9937	25.25	0.49	0.750			
0.3058	19568.47	3.9000	3.9000	1.0067	25.25	0.49	0.750			
0.3088	19760.76	3.8970	3.8969	1.0079	25.25	0.49	0.750			
0.3118	19955.36	3.8940	3.8941	1.0084	25.25	0.49	0.750			
0.3149	20150.49	3.8910	3.8912	1.0204	25.25	0.49	0.750			
0.3179	20346.77	3.8880	3.8881	1.0320	25.25	0.49	0.750			
0.3210	20545.19	3.8850	3.8850	1.0273	25.25	0.49	0.750			
0.3241	20743.80	3.8820	3.8820	1.0322	25.25	0.49	0.750			
0.3272	20942.11	3.8790	3.8791	1.0404	25.25	0.49	0.750			
0.3304	21145.99	3.8760	3.8761	1.0498	25.25	0.49	0.750			
0.3335	21346.23	3.8730	3.8730	1.0499	25.25	0.49	0.750			
0.3367	21548.16	3.8700	3.8700	1.0448	25.25	0.49	0.750			
0.3398	21746.78	3.8670	3.8671	1.0485	25.25	0.49	0.750			
0.3430	21949.43	3.8640	3.8641	1.0605	25.25	0.49	0.750			
0.3462	22158.15	3.8610	3.8610	1.0523	25.25	0.49	0.750			
0.3493	22356.07	3.8580	3.8581	1.0580	25.25	0.49	0.750			
0.3525	22558.61	3.8550	3.8551	1.0696	25.25	0.49	0.750			
0.3557	22763.81	3.8520	3.8522	1.0841	25.25	0.49	0.750			
0.3590	22973.99	3.8490	3.8488	1.0853	25.25	0.49	0.750			
0.3622	23183.07	3.8460	3.8461	1.1005	25.24	0.48	0.750			
0.3656	23397.39	3.8430	3.8431	1.1067	25.23	0.47	0.750			
0.3689	23612.01	3.8400	3.8401	1.1193	25.22	0.46	0.750			
0.3723	23825.43	3.8370	3.8371	1.1122	25.22	0.46	0.750			
0.3756	24037.86	3.8340	3.8339	1.1233	25.22	0.46	0.750	0.295	0.412	
0.3790	24254.45	3.8310	3.8312	1.1403	25.22	0.46	0.750			
0.3824	24476.40	3.8280	3.8278	1.1558	25.22	0.46	0.750			
0.3859	24700.26	3.8250	3.8251	1.1490	25.22	0.46	0.750			
0.3893	24917.72	3.8220	3.8222	1.1481	25.21	0.45	0.750			
0.3928	25141.35	3.8190	3.8192	1.1646	25.20	0.44	0.750			
0.3964	25366.57	3.8160	3.8161	1.1760	25.20	0.44	0.750			
0.3998	25589.67	3.8130	3.8131	1.1768	25.19	0.43	0.750			
0.4034	25816.74	3.8100	3.8101	1.1917	25.19	0.43	0.750			
0.4071	26054.16	3.8070	3.8069	1.1935	25.18	0.42	0.750			
0.4106	26280.22	3.8040	3.8040	1.1876	25.17	0.41	0.750			
0.4142	26508.61	3.8010	3.8010	1.1998	25.16	0.40	0.750			
0.4178	26739.33	3.7980	3.7981	1.2085	25.15	0.39	0.750			
0.4215	26976.58	3.7950	3.7949	1.1915	25.14	0.38	0.750			
0.4250	27202.59	3.7920	3.7921	1.2086	25.13	0.37	0.750			
0.4286	27432.82	3.7890	3.7893	1.2216	25.13	0.37	0.750			
0.4323	27669.61	3.7860	3.7856	1.2410	25.12	0.36	0.750			
0.4360	27907.19	3.7830	3.7831	1.2480	25.11	0.35	0.750			
0.4398	28146.73	3.7800	3.7801	1.2654	25.10	0.34	0.750			
0.4437	28398.25	3.7770	3.7770	1.2703	25.09	0.33	0.750			
0.4476	28648.39	3.7740	3.7740	1.2980	25.07	0.31	0.750			
0.4514	28888.02	3.7710	3.7711	1.2987	25.07	0.31	0.750			
0.4553	29142.08	3.7680	3.7681	1.3119	25.06	0.30	0.750			
0.4593	29392.96	3.7650	3.7648	1.3368	25.05	0.29	0.750			
0.4633	29650.01	3.7620	3.7621	1.3729	25.04	0.28	0.750			
0.4674	29916.74	3.7590	3.7592	1.4024	25.03	0.27	0.750			
0.4717	30190.41	3.7560	3.7560	1.4483	25.02	0.26	0.750			
0.4761	30472.22	3.7530	3.7531	1.4569	25.00	0.24	0.750			
0.4806	30760.76	3.7500	3.7500	1.4752	24.99	0.23	0.750			
0.4851	31045.82	3.7470	3.7473	1.5081	24.98	0.22	0.750			
0.4896	31334.00	3.7440	3.7435	1.5366	24.97	0.21	0.750			
0.4943	31634.43	3.7410	3.7410	1.5687	24.96	0.20	0.750			
0.4991	31939.67	3.7380	3.7380	1.6171	24.95	0.19	0.750			
0.5040	32256.88	3.7350	3.7350	1.6763	24.93	0.17	0.750			
0.5091	32583.42	3.7320	3.7320	1.7274	24.92	0.16	0.750			
0.5144	32924.40	3.7290	3.7291	1.7953	24.90	0.14	0.750			
0.5200	33278.03	3.7260	3.7262	1.8306	24.88	0.12	0.750			
0.5254	33626.93	3.7230	3.7234	1.8981	24.86	0.10	0.750			
0.5313	34004.54	3.7200	3.7202	1.9617	24.85	0.09	0.750			
0.5372	34383.27	3.7170	3.7174	2.0374	24.83	0.07	0.750			
0.5434	34777.88	3.7140	3.7144	2.1078	24.81	0.05	0.750			
0.5498	35185.88	3.7110	3.7110	2.1519	24.79	0.03	0.750			
0.5565	35613.85	3.7080	3.7079	2.2038	24.78	0.02	0.750			
0.5630	36029.51	3.7050	3.7052	2.2762	24.76	0.00	0.750			
0.5698	36466.07	3.7020	3.7021	2.3068	24.74	-0.02	0.750			
0.5769	36924.34	3.6990	3.6986	2.3767	24.72	-0.04	0.750			
0.5843	37396.64	3.6960	3.6963	2.4503	24.71	-0.05	0.750			
0.5917	37866.12	3.6930	3.6929	2.4900	24.69	-0.07	0.750			
0.5993	38354.90	3.6900	3.6905	2.5740	24.67	-0.09	0.750			
0.6071	38853.30	3.6870	3.6870	2.6985	24.64	-0.12	0.750			
0.6155	39390.75	3.6840	3.6841	2.8128	24.64	-0.12	0.750			
0.6242	39948.28	3.6810	3.6810	2.8346	24.63	-0.13	0.750			
0.6327	40494.36	3.6780	3.6785	2.8814	24.62	-0.14	0.750			
0.6413	41045.68	3.6750	3.6751	2.8774	24.61	-0.15	0.750			
0.6500	41598.60	3.6720	3.6722	2.9105	24.61	-0.15	0.750			
0.6593	42197.29	3.6690	3.6689	2.9702	24.60	-0.16	0.750			
0.6683	42772.98	3.6660	3.6659	2.9454	24.60	-0.16	0.750			
0.6771	43336.53	3.6630	3.6626	2.8904	24.60	-0.16	0.750			
0.6856	43880.96	3.6600	3.6601	2.6424	24.61	-0.15	0.750			
0.6932	44363.34	3.6570	3.6574	2.4299	24.62	-0.14	0.750			
0.7003	44819.42	3.6540	3.6538	2.2474	24.64	-0.12	0.750			
0.7069	45240.67	3.6510	3.6509	2.0505	24.66	-0.10	0.750			
0.7128	45616.20	3.6480	3.6482	1.8811	24.67	-0.09	0.750			
0.7180	45955.09	3.6450	3.6452	1.6489	24.68	-0.08	0.750			
0.7225	46239.25	3.6420	3.6423	1.4126	24.69	-0.07	0.750			
0.7263	46486.06	3.6390	3.6391	1.2114	24.70	-0.06	0.750			
0.7296	46693.75	3.6360	3.6361	1.0421	24.71	-0.05	0.750			
0.7323	46866.11	3.6330	3.6329	0.9096	24.72	-0.04	0.750			
0.7348	47024.26	3.6300	3.6300	0.8094	24.73	-0.03	0.750			
0.7370	47166.28	3.6270	3.6270	0.7376	24.73	-0.03	0.750			
0.7391	47300.02	3.6240	3.6240	0.6854	24.74	-0.02	0.750			
0.7411	47430.07	3.6210	3.6210	0.6464	24.75	-0.01	0.750			
0.7429	47547.36	3.6180	3.6179	0.5734	24.75	-0.01	0.750			
0.7446	47651.39	3.6150	3.6151	0.5308	24.76	-0.00	0.750			
0.7461	47748.35	3.6120	3.6123	0.4808	24.76	0.00	0.750			
0.7475	47839.30	3.6090	3.6070	0.4237	24.77	0.01	0.750			
0.7487	47914.82	3.6060	3.6064	0.3627	24.77	0.01	0.750			
0.7497	47978.45	3.6030	3.6036	0.3015	24.77	0.01	0.750			
0.7505	48032.81	3.6000	3.6005	0.2394	24.78	0.02	0.750			
0.7513	48082.82	3.5970	3.5966	0.1190	24.78	0.02	0.750			
0.7515	48094.68	3.5940	3.5953	0.0603	24.78	0.02	0.750			
