Ah_balance (normalized)	Ah_balance (mAh)	Voltage - fit (V)	Voltage -  interpolate (V)	dQ/dV (1/V)	Temperature (°C)	Temperature - diff (°C)	Current (C)	R_DC 0ms (mOhm)	R_DC 50ms (mOhm)	R_DC 50 ms PEC (mOhm)
0.0484	3095.55	4.1970	4.1970	0.7426	25.72	0.82	0.750			
0.0506	3237.61	4.1940	4.1941	0.7418	25.72	0.82	0.750			
0.0528	3379.70	4.1910	4.1911	0.7482	25.71	0.81	0.750			
0.0551	3525.04	4.1880	4.1878	0.7547	25.71	0.81	0.750			
0.0574	3671.10	4.1850	4.1850	0.7563	25.71	0.81	0.750			
0.0597	3819.13	4.1820	4.1820	0.7539	25.70	0.80	0.750			
0.0619	3963.13	4.1790	4.1791	0.7577	25.70	0.80	0.750			
0.0642	4106.69	4.1760	4.1761	0.7566	25.69	0.79	0.750			
0.0664	4251.07	4.1730	4.1729	0.7583	25.69	0.79	0.750			
0.0687	4396.82	4.1700	4.1700	0.7607	25.69	0.79	0.750			
0.0710	4545.17	4.1670	4.1671	0.7644	25.69	0.79	0.750			
0.0733	4692.47	4.1640	4.1640	0.7663	25.69	0.79	0.750			
0.0757	4842.37	4.1610	4.1610	0.7721	25.69	0.79	0.750			
0.0779	4987.57	4.1580	4.1580	0.7661	25.69	0.79	0.750			
0.0802	5134.34	4.1550	4.1550	0.7647	25.69	0.79	0.750			
0.0825	5281.73	4.1520	4.1521	0.7673	25.69	0.79	0.750			
0.0848	5430.34	4.1490	4.1489	0.7656	25.69	0.79	0.750			
0.0871	5575.94	4.1460	4.1461	0.7672	25.69	0.79	0.750			
0.0894	5722.51	4.1430	4.1430	0.7659	25.69	0.79	0.750			
0.0917	5869.39	4.1400	4.1399	0.7684	25.69	0.79	0.750			
0.0940	6017.38	4.1370	4.1371	0.7710	25.69	0.79	0.750			
0.0964	6168.26	4.1340	4.1340	0.7673	25.69	0.79	0.750			
0.0987	6314.66	4.1310	4.1311	0.7718	25.69	0.79	0.750			
0.1010	6461.62	4.1280	4.1281	0.7725	25.69	0.79	0.750			
0.1033	6608.96	4.1250	4.1251	0.7767	25.69	0.79	0.750			
0.1056	6758.92	4.1220	4.1221	0.7795	25.69	0.79	0.750			
0.1080	6909.10	4.1190	4.1191	0.7825	25.69	0.79	0.750			
0.1103	7061.30	4.1160	4.1161	0.7857	25.69	0.79	0.750			
0.1127	7212.75	4.1130	4.1130	0.7895	25.69	0.79	0.750			
0.1150	7362.79	4.1100	4.1100	0.7855	25.69	0.79	0.750			
0.1174	7513.94	4.1070	4.1070	0.7865	25.69	0.79	0.750			
0.1198	7665.30	4.1040	4.1040	0.7886	25.69	0.79	0.750			
0.1221	7817.20	4.1010	4.1010	0.7909	25.69	0.79	0.750			
0.1245	7969.68	4.0980	4.0980	0.7928	25.69	0.79	0.750			
0.1269	8121.11	4.0950	4.0950	0.7893	25.69	0.79	0.750			
0.1293	8272.48	4.0920	4.0918	0.7934	25.69	0.79	0.750			
0.1316	8424.18	4.0890	4.0891	0.8005	25.69	0.79	0.750			
0.1341	8583.21	4.0860	4.0859	0.7874	25.69	0.79	0.750			
0.1364	8732.45	4.0830	4.0830	0.7932	25.68	0.78	0.750			
0.1388	8883.39	4.0800	4.0802	0.7957	25.68	0.78	0.750			
0.1412	9033.90	4.0770	4.0771	0.8018	25.68	0.78	0.750			
0.1436	9188.58	4.0740	4.0741	0.8082	25.68	0.78	0.750			
0.1460	9345.95	4.0710	4.0711	0.8025	25.68	0.78	0.750			
0.1484	9500.72	4.0680	4.0681	0.8102	25.67	0.77	0.750			
0.1509	9658.98	4.0650	4.0651	0.8171	25.67	0.77	0.750			
0.1533	9813.44	4.0620	4.0621	0.8139	25.67	0.77	0.750			
0.1558	9968.76	4.0590	4.0591	0.8189	25.67	0.77	0.750			
0.1582	10127.75	4.0560	4.0560	0.8201	25.67	0.77	0.750			
0.1607	10286.68	4.0530	4.0530	0.8273	25.67	0.77	0.750			
0.1632	10446.48	4.0500	4.0501	0.8321	25.67	0.77	0.750			
0.1657	10606.92	4.0470	4.0471	0.8299	25.67	0.77	0.750			
0.1682	10766.11	4.0440	4.0440	0.8324	25.67	0.77	0.750			
0.1708	10928.86	4.0410	4.0410	0.8213	25.67	0.77	0.750			
0.1732	11084.52	4.0380	4.0381	0.8251	25.67	0.77	0.750			
0.1756	11241.25	4.0350	4.0351	0.8304	25.68	0.78	0.750			
0.1781	11399.75	4.0320	4.0321	0.8364	25.68	0.78	0.750			
0.1806	11559.95	4.0290	4.0290	0.8418	25.68	0.78	0.750			
0.1832	11725.93	4.0260	4.0261	0.8369	25.68	0.78	0.750			
0.1857	11887.16	4.0230	4.0231	0.8477	25.68	0.78	0.750			
0.1883	12051.43	4.0200	4.0201	0.8538	25.67	0.77	0.750			
0.1908	12213.75	4.0170	4.0170	0.8490	25.67	0.77	0.750			
0.1934	12375.96	4.0140	4.0141	0.8521	25.67	0.77	0.750			
0.1960	12541.87	4.0110	4.0111	0.8498	25.67	0.77	0.750			
0.1985	12706.13	4.0080	4.0080	0.8592	25.67	0.77	0.750			
0.2011	12872.19	4.0050	4.0051	0.8619	25.67	0.77	0.750			
0.2037	13035.65	4.0020	4.0020	0.8576	25.67	0.77	0.750			
0.2063	13201.72	3.9990	3.9991	0.8610	25.67	0.77	0.750			
0.2089	13366.89	3.9960	3.9961	0.8657	25.67	0.77	0.750			
0.2114	13529.97	3.9930	3.9931	0.8627	25.67	0.77	0.750			
0.2140	13696.92	3.9900	3.9901	0.8705	25.67	0.77	0.750			
0.2166	13861.33	3.9870	3.9867	0.8703	25.67	0.77	0.750			
0.2192	14030.32	3.9840	3.9841	0.8801	25.67	0.77	0.750			
0.2219	14201.08	3.9810	3.9812	0.8830	25.67	0.77	0.750			
0.2246	14372.64	3.9780	3.9781	0.8857	25.67	0.77	0.750			
0.2273	14546.66	3.9750	3.9750	0.8944	25.67	0.77	0.750			
0.2299	14711.39	3.9720	3.9718	0.8806	25.67	0.77	0.750			
0.2325	14883.17	3.9690	3.9690	0.8773	25.67	0.77	0.750			
0.2352	15049.95	3.9660	3.9660	0.8801	25.67	0.77	0.750			
0.2378	15219.29	3.9630	3.9631	0.8823	25.67	0.77	0.750			
0.2404	15388.65	3.9600	3.9601	0.8860	25.67	0.77	0.750			
0.2431	15557.46	3.9570	3.9570	0.8884	25.67	0.77	0.750			
0.2458	15732.60	3.9540	3.9540	0.8719	25.67	0.77	0.750			
0.2484	15897.69	3.9510	3.9511	0.8840	25.67	0.77	0.750			
0.2510	16067.09	3.9480	3.9481	0.8906	25.67	0.77	0.750			
0.2537	16237.51	3.9450	3.9452	0.8927	25.67	0.77	0.750			
0.2564	16408.41	3.9420	3.9421	0.8977	25.67	0.77	0.750			
0.2591	16581.78	3.9390	3.9392	0.8986	25.67	0.77	0.750			
0.2618	16757.11	3.9360	3.9361	0.9019	25.67	0.77	0.750			
0.2646	16932.00	3.9330	3.9330	0.9049	25.67	0.77	0.750			
0.2672	17102.62	3.9300	3.9299	0.8943	25.67	0.77	0.750			
0.2700	17278.64	3.9270	3.9270	0.8871	25.67	0.77	0.750			
0.2726	17447.57	3.9240	3.9240	0.8890	25.66	0.76	0.750			
0.2753	17618.24	3.9210	3.9211	0.8879	25.66	0.76	0.750			
0.2779	17783.35	3.9180	3.9182	0.9001	25.65	0.75	0.750			
0.2805	17953.66	3.9150	3.9148	0.9159	25.65	0.75	0.750			
0.2833	18131.52	3.9120	3.9120	0.9252	25.64	0.74	0.750			
0.2861	18312.77	3.9090	3.9088	0.9400	25.64	0.74	0.750			
0.2891	18499.29	3.9060	3.9063	0.9436	25.64	0.74	0.750			
0.2919	18683.57	3.9030	3.9026	0.9358	25.63	0.73	0.750			
0.2948	18865.70	3.9000	3.9000	0.9281	25.63	0.73	0.750			
0.2975	19039.70	3.8970	3.8969	0.9131	25.62	0.72	0.750			
0.3002	19210.46	3.8940	3.8940	0.9041	25.62	0.72	0.750			
0.3029	19385.44	3.8910	3.8910	0.9024	25.61	0.71	0.750			
0.3056	19556.55	3.8880	3.8880	0.8998	25.61	0.71	0.750			
0.3083	19729.43	3.8850	3.8851	0.8961	25.60	0.70	0.750			
0.3110	19901.22	3.8820	3.8819	0.8979	25.59	0.69	0.750			
0.3136	20072.92	3.8790	3.8791	0.9000	25.58	0.68	0.750			
0.3163	20244.23	3.8760	3.8759	0.9011	25.57	0.67	0.750			
0.3190	20418.61	3.8730	3.8730	0.9040	25.56	0.66	0.750			
0.3218	20594.19	3.8700	3.8700	0.8950	25.56	0.66	0.750			
0.3244	20763.12	3.8670	3.8671	0.8993	25.55	0.65	0.750			
0.3271	20935.87	3.8640	3.8641	0.9048	25.54	0.64	0.750			
0.3298	21108.51	3.8610	3.8605	0.9081	25.53	0.63	0.750			
0.3325	21282.22	3.8580	3.8581	0.9113	25.52	0.62	0.750			
0.3353	21458.81	3.8550	3.8551	0.9189	25.51	0.61	0.750			
0.3381	21640.22	3.8520	3.8520	0.9266	25.50	0.60	0.750			
0.3409	21816.19	3.8490	3.8490	0.9247	25.49	0.59	0.750			
0.3436	21993.44	3.8460	3.8460	0.9331	25.48	0.58	0.750			
0.3464	22172.45	3.8430	3.8430	0.9411	25.47	0.57	0.750			
0.3493	22354.82	3.8400	3.8402	0.9501	25.46	0.56	0.750	0.356	0.468	
0.3522	22538.65	3.8370	3.8371	0.9597	25.45	0.55	0.750			
0.3551	22723.92	3.8340	3.8339	0.9643	25.44	0.54	0.750			
0.3580	22913.98	3.8310	3.8310	0.9573	25.42	0.52	0.750			
0.3608	23092.16	3.8280	3.8281	0.9635	25.41	0.51	0.750			
0.3637	23276.94	3.8250	3.8251	0.9720	25.40	0.50	0.750			
0.3666	23464.43	3.8220	3.8218	0.9811	25.38	0.48	0.750			
0.3696	23652.64	3.8190	3.8191	0.9958	25.37	0.47	0.750			
0.3726	23844.65	3.8160	3.8161	1.0016	25.37	0.47	0.750			
0.3756	24039.30	3.8130	3.8130	1.0139	25.36	0.46	0.750			
0.3787	24235.39	3.8100	3.8099	1.0199	25.35	0.45	0.750			
0.3818	24432.45	3.8070	3.8071	1.0249	25.34	0.44	0.750			
0.3849	24630.60	3.8040	3.8040	1.0386	25.33	0.43	0.750			
0.3880	24830.49	3.8010	3.8011	1.0510	25.31	0.41	0.750			
0.3912	25034.63	3.7980	3.7979	1.0690	25.29	0.39	0.750			
0.3944	25240.80	3.7950	3.7950	1.0558	25.28	0.38	0.750			
0.3975	25441.72	3.7920	3.7921	1.0841	25.27	0.37	0.750			
0.4008	25650.13	3.7890	3.7891	1.1057	25.26	0.36	0.750			
0.4041	25865.25	3.7860	3.7856	1.1260	25.25	0.35	0.750			
0.4075	26082.43	3.7830	3.7832	1.1432	25.24	0.34	0.750			
0.4110	26303.78	3.7800	3.7801	1.1656	25.22	0.32	0.750			
0.4146	26531.57	3.7770	3.7770	1.1865	25.21	0.31	0.750			
0.4182	26762.42	3.7740	3.7741	1.1940	25.20	0.30	0.750			
0.4217	26991.42	3.7710	3.7710	1.2143	25.19	0.29	0.750			
0.4254	27226.30	3.7680	3.7681	1.2390	25.17	0.27	0.750			
0.4292	27471.40	3.7650	3.7647	1.2417	25.16	0.26	0.750			
0.4329	27706.02	3.7620	3.7621	1.2842	25.14	0.24	0.750			
0.4368	27953.21	3.7590	3.7591	1.3150	25.13	0.23	0.750			
0.4408	28209.20	3.7560	3.7560	1.3499	25.11	0.21	0.750			
0.4449	28475.20	3.7530	3.7531	1.3787	25.09	0.19	0.750			
0.4491	28739.96	3.7500	3.7502	1.4144	25.08	0.18	0.750			
0.4534	29016.50	3.7470	3.7470	1.4473	25.06	0.16	0.750			
0.4578	29298.91	3.7440	3.7441	1.4654	25.05	0.15	0.750			
0.4622	29579.76	3.7410	3.7408	1.5119	25.04	0.14	0.750			
0.4668	29875.02	3.7380	3.7378	1.5438	25.02	0.12	0.750			
0.4715	30178.51	3.7350	3.7350	1.5775	25.01	0.11	0.750			
0.4763	30483.96	3.7320	3.7321	1.6210	24.99	0.09	0.750			
0.4812	30798.55	3.7290	3.7291	1.6601	24.97	0.07	0.750			
0.4863	31120.20	3.7260	3.7262	1.7031	24.96	0.06	0.750			
0.4915	31453.13	3.7230	3.7230	1.7630	24.94	0.04	0.750			
0.4968	31794.88	3.7200	3.7200	1.8154	24.93	0.03	0.750			
0.5023	32149.64	3.7170	3.7169	1.8739	24.91	0.01	0.750			
0.5081	32520.52	3.7140	3.7143	1.9252	24.89	-0.01	0.750			
0.5138	32886.13	3.7110	3.7110	1.9970	24.87	-0.03	0.750			
0.5200	33280.34	3.7080	3.7081	2.0359	24.85	-0.05	0.750			
0.5261	33671.17	3.7050	3.7049	2.0750	24.84	-0.06	0.750			
0.5325	34078.29	3.7020	3.7023	2.1587	24.83	-0.07	0.750			
0.5390	34494.78	3.6990	3.6990	2.2106	24.82	-0.08	0.750			
0.5458	34928.67	3.6960	3.6959	2.2643	24.80	-0.10	0.750			
0.5526	35365.24	3.6930	3.6930	2.3313	24.78	-0.12	0.750			
0.5598	35828.03	3.6900	3.6899	2.3551	24.78	-0.12	0.750			
0.5669	36279.07	3.6870	3.6872	2.3728	24.77	-0.13	0.750			
0.5741	36740.39	3.6840	3.6839	2.4303	24.76	-0.14	0.750			
0.5813	37202.92	3.6810	3.6810	2.4034	24.76	-0.14	0.750			
0.5885	37663.93	3.6780	3.6782	2.4575	24.75	-0.15	0.750			
0.5960	38144.43	3.6750	3.6751	2.4074	24.75	-0.15	0.750			
0.6033	38610.94	3.6720	3.6722	2.3597	24.74	-0.16	0.750			
0.6104	39065.35	3.6690	3.6688	2.2696	24.75	-0.15	0.750			
0.6168	39474.87	3.6660	3.6659	2.0689	24.76	-0.14	0.750			
0.6227	39851.21	3.6630	3.6631	1.9215	24.77	-0.13	0.750			
0.6283	40210.97	3.6600	3.6601	1.8123	24.78	-0.12	0.750			
0.6335	40541.36	3.6570	3.6571	1.6810	24.78	-0.12	0.750			
0.6383	40850.09	3.6540	3.6540	1.5598	24.79	-0.11	0.750			
0.6428	41141.74	3.6510	3.6511	1.4586	24.79	-0.11	0.750			
0.6471	41413.30	3.6480	3.6480	1.3615	24.80	-0.10	0.750			
0.6508	41652.61	3.6450	3.6451	1.2516	24.80	-0.10	0.750			
0.6544	41881.54	3.6420	3.6418	1.1730	24.81	-0.09	0.750			
0.6578	42098.59	3.6390	3.6390	1.1004	24.82	-0.08	0.750			
0.6610	42301.76	3.6360	3.6361	1.0469	24.83	-0.07	0.750			
0.6640	42495.14	3.6330	3.6330	1.0076	24.83	-0.07	0.750			
0.6669	42681.58	3.6300	3.6294	0.9624	24.84	-0.06	0.750			
0.6697	42863.61	3.6270	3.6270	0.9253	24.84	-0.06	0.750			
0.6725	43040.17	3.6240	3.6240	0.8903	24.85	-0.05	0.750			
0.6751	43209.43	3.6210	3.6211	0.8535	24.85	-0.05	0.750			
0.6777	43372.76	3.6180	3.6179	0.8173	24.86	-0.04	0.750			
0.6800	43522.49	3.6150	3.6150	0.7639	24.86	-0.04	0.750			
0.6823	43664.86	3.6120	3.6119	0.7176	24.87	-0.03	0.750			
0.6843	43798.27	3.6090	3.6091	0.6740	24.88	-0.02	0.750			
0.6863	43925.11	3.6060	3.6059	0.6220	24.88	-0.02	0.750			
0.6881	44040.14	3.6030	3.6029	0.5725	24.89	-0.01	0.750			
0.6898	44147.68	3.6000	3.6000	0.5139	24.89	-0.01	0.750			
0.6912	44238.37	3.5970	3.5972	0.4673	24.90	-0.00	0.750			
0.6925	44322.12	3.5940	3.5941	0.4221	24.90	0.00	0.750			
0.6937	44397.63	3.5910	3.5897	0.3796	24.91	0.01	0.750			
0.6948	44469.46	3.5880	3.5883	0.3286	24.91	0.01	0.750			
0.6958	44528.90	3.5850	3.5854	0.2841	24.91	0.01	0.750			
0.6966	44580.12	3.5820	3.5824	0.2361	24.91	0.01	0.750			
0.6973	44627.70	3.5790	3.5789	0.1877	24.92	0.02	0.750			
0.6978	44658.62	3.5760	3.5760	0.1192	24.92	0.02	0.750			
0.6980	44673.75	3.5730	3.5740	0.0569	24.92	0.02	0.750			
0.6981	44678.32	3.5700	3.5719	0.0032	24.92	0.02	0.750			
