Ah_balance (normalized)	Ah_balance (mAh)	Voltage - fit (V)	Voltage -  interpolate (V)	dQ/dV (1/V)	Temperature (°C)	Temperature - diff (°C)	Current (C)	R_DC 0ms (mOhm)	R_DC 50ms (mOhm)	R_DC 50 ms PEC (mOhm)
0.0467	2986.66	4.1980	4.1980	0.7082	25.50	0.46	0.750			
0.0489	3129.88	4.1950	4.1949	0.7507	25.50	0.46	0.750			
0.0512	3275.31	4.1920	4.1921	0.7598	25.50	0.46	0.750			
0.0535	3424.59	4.1890	4.1890	0.7591	25.50	0.46	0.750			
0.0558	3570.44	4.1860	4.1861	0.7629	25.51	0.47	0.750			
0.0581	3717.07	4.1830	4.1830	0.7592	25.51	0.47	0.750			
0.0603	3862.30	4.1800	4.1801	0.7647	25.51	0.47	0.750			
0.0626	4008.18	4.1770	4.1769	0.7664	25.51	0.47	0.750			
0.0650	4161.32	4.1740	4.1739	0.7639	25.51	0.47	0.750			
0.0673	4308.47	4.1710	4.1710	0.7654	25.51	0.47	0.750			
0.0696	4454.84	4.1680	4.1681	0.7695	25.51	0.47	0.750			
0.0719	4601.41	4.1650	4.1652	0.7672	25.51	0.47	0.750			
0.0742	4747.79	4.1620	4.1620	0.7684	25.51	0.47	0.750			
0.0765	4894.76	4.1590	4.1591	0.7742	25.51	0.47	0.750			
0.0788	5045.99	4.1560	4.1560	0.7749	25.51	0.47	0.750			
0.0812	5195.36	4.1530	4.1530	0.7815	25.51	0.47	0.750			
0.0835	5346.62	4.1500	4.1500	0.7770	25.51	0.47	0.750			
0.0859	5496.29	4.1470	4.1471	0.7807	25.51	0.47	0.750			
0.0882	5646.32	4.1440	4.1441	0.7845	25.51	0.47	0.750			
0.0906	5797.88	4.1410	4.1410	0.7844	25.51	0.47	0.750			
0.0929	5947.67	4.1380	4.1380	0.7869	25.51	0.47	0.750			
0.0953	6101.47	4.1350	4.1350	0.7933	25.51	0.47	0.750			
0.0977	6251.12	4.1320	4.1320	0.7883	25.51	0.47	0.750			
0.1001	6403.63	4.1290	4.1291	0.7917	25.51	0.47	0.750			
0.1024	6555.19	4.1260	4.1261	0.7909	25.51	0.47	0.750			
0.1048	6706.52	4.1230	4.1230	0.7864	25.51	0.47	0.750			
0.1071	6857.00	4.1200	4.1200	0.7891	25.52	0.48	0.750			
0.1095	7006.97	4.1170	4.1171	0.7901	25.52	0.48	0.750			
0.1119	7159.53	4.1140	4.1134	0.7966	25.52	0.48	0.750			
0.1142	7310.19	4.1110	4.1113	0.8174	25.52	0.48	0.750			
0.1167	7468.64	4.1080	4.1081	0.8407	25.52	0.48	0.750			
0.1193	7636.29	4.1050	4.1047	0.8542	25.52	0.48	0.750			
0.1219	7802.38	4.1020	4.1021	0.8534	25.52	0.48	0.750			
0.1246	7971.72	4.0990	4.0990	0.8553	25.52	0.48	0.750			
0.1271	8136.84	4.0960	4.0960	0.8438	25.52	0.48	0.750			
0.1296	8297.29	4.0930	4.0929	0.8310	25.52	0.48	0.750			
0.1320	8449.93	4.0900	4.0900	0.8154	25.52	0.48	0.750			
0.1345	8606.41	4.0870	4.0870	0.8148	25.52	0.48	0.750			
0.1369	8762.65	4.0840	4.0840	0.8162	25.52	0.48	0.750			
0.1394	8918.93	4.0810	4.0810	0.8172	25.52	0.48	0.750			
0.1418	9076.91	4.0780	4.0780	0.8128	25.52	0.48	0.750			
0.1442	9231.11	4.0750	4.0750	0.8203	25.52	0.48	0.750			
0.1467	9388.81	4.0720	4.0721	0.8232	25.52	0.48	0.750			
0.1492	9546.20	4.0690	4.0686	0.8307	25.52	0.48	0.750			
0.1517	9706.68	4.0660	4.0662	0.8362	25.52	0.48	0.750			
0.1542	9869.31	4.0630	4.0631	0.8356	25.52	0.48	0.750			
0.1567	10031.41	4.0600	4.0600	0.8403	25.53	0.49	0.750			
0.1592	10190.55	4.0570	4.0572	0.8329	25.53	0.49	0.750			
0.1617	10350.70	4.0540	4.0537	0.8383	25.53	0.49	0.750			
0.1642	10511.63	4.0510	4.0510	0.8470	25.53	0.49	0.750			
0.1668	10674.19	4.0480	4.0480	0.8474	25.53	0.49	0.750			
0.1694	10839.74	4.0450	4.0450	0.8564	25.52	0.48	0.750			
0.1719	11003.90	4.0420	4.0421	0.8557	25.52	0.48	0.750			
0.1745	11169.58	4.0390	4.0389	0.8576	25.52	0.48	0.750			
0.1771	11335.02	4.0360	4.0360	0.8560	25.52	0.48	0.750			
0.1797	11499.17	4.0330	4.0330	0.8564	25.52	0.48	0.750			
0.1822	11662.12	4.0300	4.0301	0.8577	25.53	0.49	0.750			
0.1848	11827.19	4.0270	4.0270	0.8619	25.53	0.49	0.750			
0.1874	11991.92	4.0240	4.0239	0.8655	25.53	0.49	0.750			
0.1900	12159.85	4.0210	4.0210	0.8650	25.53	0.49	0.750			
0.1926	12326.61	4.0180	4.0180	0.8723	25.53	0.49	0.750			
0.1952	12494.02	4.0150	4.0150	0.8763	25.54	0.50	0.750			
0.1979	12662.86	4.0120	4.0120	0.8770	25.54	0.50	0.750			
0.2005	12830.37	4.0090	4.0091	0.8805	25.54	0.50	0.750			
0.2031	13000.86	4.0060	4.0061	0.8813	25.54	0.50	0.750			
0.2058	13170.61	4.0030	4.0030	0.8849	25.55	0.51	0.750			
0.2085	13341.23	4.0000	4.0000	0.8891	25.55	0.51	0.750			
0.2111	13510.82	3.9970	3.9969	0.8879	25.55	0.51	0.750			
0.2138	13682.14	3.9940	3.9940	0.8915	25.55	0.51	0.750			
0.2165	13854.14	3.9910	3.9910	0.8927	25.55	0.51	0.750			
0.2191	14024.95	3.9880	3.9881	0.8943	25.55	0.51	0.750			
0.2218	14197.97	3.9850	3.9850	0.9002	25.55	0.51	0.750			
0.2245	14369.64	3.9820	3.9817	0.9012	25.55	0.51	0.750			
0.2273	14544.46	3.9790	3.9790	0.8984	25.55	0.51	0.750			
0.2299	14716.32	3.9760	3.9761	0.9039	25.55	0.51	0.750			
0.2327	14890.91	3.9730	3.9730	0.9076	25.55	0.51	0.750			
0.2354	15064.99	3.9700	3.9701	0.9125	25.55	0.51	0.750			
0.2381	15239.12	3.9670	3.9669	0.9133	25.55	0.51	0.750			
0.2409	15414.98	3.9640	3.9641	0.9132	25.56	0.52	0.750			
0.2436	15591.06	3.9610	3.9611	0.9164	25.56	0.52	0.750			
0.2464	15767.60	3.9580	3.9581	0.9213	25.57	0.53	0.750			
0.2491	15944.42	3.9550	3.9549	0.9219	25.57	0.53	0.750			
0.2519	16122.66	3.9520	3.9520	0.9196	25.57	0.53	0.750			
0.2547	16297.91	3.9490	3.9491	0.9243	25.57	0.53	0.750			
0.2574	16476.26	3.9460	3.9461	0.9310	25.57	0.53	0.750			
0.2602	16655.79	3.9430	3.9429	0.9355	25.57	0.53	0.750			
0.2630	16834.45	3.9400	3.9400	0.9367	25.57	0.53	0.750			
0.2659	17014.75	3.9370	3.9371	0.9388	25.58	0.54	0.750			
0.2687	17196.97	3.9340	3.9340	0.9408	25.58	0.54	0.750			
0.2715	17378.11	3.9310	3.9310	0.9439	25.59	0.55	0.750			
0.2744	17558.41	3.9280	3.9280	0.9412	25.59	0.55	0.750			
0.2772	17739.47	3.9250	3.9249	0.9393	25.59	0.55	0.750			
0.2800	17919.40	3.9220	3.9220	0.9428	25.59	0.55	0.750			
0.2828	18099.58	3.9190	3.9191	0.9483	25.59	0.55	0.750			
0.2857	18281.91	3.9160	3.9160	0.9531	25.59	0.55	0.750			
0.2886	18468.27	3.9130	3.9129	0.9489	25.59	0.55	0.750			
0.2914	18648.77	3.9100	3.9100	0.9531	25.59	0.55	0.750			
0.2943	18832.82	3.9070	3.9071	0.9574	25.59	0.55	0.750			
0.2971	19016.61	3.9040	3.9041	0.9647	25.59	0.55	0.750			
0.3000	19200.60	3.9010	3.9008	0.9641	25.59	0.55	0.750			
0.3029	19386.99	3.8980	3.8980	0.9613	25.59	0.55	0.750			
0.3058	19570.84	3.8950	3.8951	0.9704	25.59	0.55	0.750			
0.3087	19758.82	3.8920	3.8921	0.9755	25.59	0.55	0.750			
0.3117	19945.74	3.8890	3.8888	0.9715	25.59	0.55	0.750			
0.3146	20133.90	3.8860	3.8860	0.9726	25.59	0.55	0.750			
0.3175	20320.91	3.8830	3.8831	0.9699	25.59	0.55	0.750			
0.3205	20510.02	3.8800	3.8800	0.9682	25.59	0.55	0.750			
0.3233	20694.10	3.8770	3.8770	0.9575	25.59	0.55	0.750			
0.3262	20877.84	3.8740	3.8740	0.9501	25.59	0.55	0.750			
0.3290	21057.07	3.8710	3.8710	0.9586	25.58	0.54	0.750			
0.3319	21239.63	3.8680	3.8680	0.9691	25.58	0.54	0.750			
0.3348	21426.32	3.8650	3.8651	0.9782	25.57	0.53	0.750			
0.3378	21616.25	3.8620	3.8620	0.9881	25.57	0.53	0.750			
0.3407	21807.34	3.8590	3.8591	0.9933	25.56	0.52	0.750			
0.3437	21998.57	3.8560	3.8560	1.0016	25.56	0.52	0.750			
0.3467	22191.68	3.8530	3.8530	1.0085	25.55	0.51	0.750			
0.3498	22384.02	3.8500	3.8498	1.0110	25.55	0.51	0.750			
0.3528	22580.02	3.8470	3.8471	1.0164	25.54	0.50	0.750			
0.3559	22777.27	3.8440	3.8441	1.0239	25.53	0.49	0.750			
0.3590	22975.35	3.8410	3.8410	1.0266	25.53	0.49	0.750			
0.3621	23171.65	3.8380	3.8378	1.0294	25.52	0.48	0.750			
0.3651	23366.65	3.8350	3.8351	1.0238	25.51	0.47	0.750			
0.3682	23561.84	3.8320	3.8320	1.0348	25.50	0.46	0.750	0.300	0.401	
0.3712	23759.85	3.8290	3.8292	1.0468	25.49	0.45	0.750			
0.3744	23963.28	3.8260	3.8251	1.0596	25.48	0.44	0.750			
0.3776	24169.35	3.8230	3.8232	1.0528	25.47	0.43	0.750			
0.3808	24371.59	3.8200	3.8202	1.0637	25.46	0.42	0.750			
0.3840	24575.08	3.8170	3.8172	1.0703	25.46	0.42	0.750			
0.3873	24786.04	3.8140	3.8133	1.0769	25.45	0.41	0.750			
0.3904	24984.25	3.8110	3.8112	1.0651	25.44	0.40	0.750			
0.3936	25189.90	3.8080	3.8081	1.0756	25.43	0.39	0.750			
0.3969	25400.34	3.8050	3.8050	1.0886	25.43	0.39	0.750			
0.4002	25613.10	3.8020	3.8020	1.0608	25.42	0.38	0.750			
0.4033	25812.54	3.7990	3.7991	1.0735	25.41	0.37	0.750			
0.4065	26016.91	3.7960	3.7962	1.0844	25.40	0.36	0.750			
0.4098	26225.68	3.7930	3.7931	1.1037	25.39	0.35	0.750			
0.4131	26437.32	3.7900	3.7897	1.1116	25.38	0.34	0.750			
0.4164	26649.03	3.7870	3.7872	1.1176	25.37	0.33	0.750			
0.4198	26865.85	3.7840	3.7842	1.1425	25.35	0.31	0.750			
0.4233	27090.67	3.7810	3.7811	1.1626	25.34	0.30	0.750			
0.4267	27309.61	3.7780	3.7781	1.1774	25.33	0.29	0.750			
0.4303	27537.74	3.7750	3.7752	1.2091	25.32	0.28	0.750			
0.4340	27774.83	3.7720	3.7721	1.2432	25.31	0.27	0.750			
0.4380	28031.29	3.7690	3.7690	1.2464	25.30	0.26	0.750			
0.4415	28258.35	3.7660	3.7661	1.2760	25.29	0.25	0.750			
0.4454	28502.54	3.7630	3.7632	1.3121	25.28	0.24	0.750			
0.4493	28757.98	3.7600	3.7591	1.3395	25.27	0.23	0.750			
0.4534	29015.02	3.7570	3.7573	1.3726	25.26	0.22	0.750			
0.4576	29286.03	3.7540	3.7541	1.4096	25.24	0.20	0.750			
0.4620	29567.52	3.7510	3.7504	1.4251	25.23	0.19	0.750			
0.4664	29849.85	3.7480	3.7481	1.4310	25.21	0.17	0.750			
0.4707	30125.64	3.7450	3.7451	1.4595	25.19	0.15	0.750			
0.4750	30402.58	3.7420	3.7422	1.5281	25.18	0.14	0.750			
0.4798	30706.35	3.7390	3.7390	1.5620	25.17	0.13	0.750			
0.4845	31005.86	3.7360	3.7360	1.5666	25.16	0.12	0.750			
0.4893	31312.34	3.7330	3.7335	1.6127	25.15	0.11	0.750			
0.4941	31624.57	3.7300	3.7293	1.6950	25.14	0.10	0.750			
0.4993	31955.84	3.7270	3.7268	1.7358	25.12	0.08	0.750			
0.5044	32283.88	3.7240	3.7244	1.7766	25.10	0.06	0.750			
0.5100	32640.94	3.7210	3.7213	1.8679	25.09	0.05	0.750			
0.5157	33004.94	3.7180	3.7180	1.9031	25.07	0.03	0.750			
0.5214	33367.76	3.7150	3.7152	1.9315	25.06	0.02	0.750			
0.5272	33743.74	3.7120	3.7116	2.0087	25.05	0.01	0.750			
0.5336	34147.56	3.7090	3.7090	2.0627	25.03	-0.01	0.750			
0.5398	34550.34	3.7060	3.7058	2.1308	25.01	-0.03	0.750			
0.5467	34986.51	3.7030	3.7028	2.1453	25.00	-0.04	0.750			
0.5530	35389.85	3.7000	3.6997	2.1891	24.98	-0.06	0.750			
0.5596	35817.44	3.6970	3.6973	2.2767	24.97	-0.07	0.750			
0.5665	36256.57	3.6940	3.6945	2.3390	24.95	-0.09	0.750			
0.5735	36705.69	3.6910	3.6911	2.5059	24.94	-0.10	0.750			
0.5812	37199.66	3.6880	3.6871	2.5634	24.93	-0.11	0.750			
0.5890	37693.34	3.6850	3.6848	2.5641	24.92	-0.12	0.750			
0.5968	38194.01	3.6820	3.6823	2.5937	24.90	-0.14	0.750			
0.6045	38684.81	3.6790	3.6790	2.6657	24.90	-0.14	0.750			
0.6128	39221.10	3.6760	3.6759	2.9598	24.90	-0.14	0.750			
0.6214	39768.93	3.6730	3.6729	2.9330	24.88	-0.16	0.750			
0.6305	40351.61	3.6700	3.6704	2.7901	24.88	-0.16	0.750			
0.6390	40896.00	3.6670	3.6673	2.7596	24.88	-0.16	0.750			
0.6469	41401.00	3.6640	3.6636	2.8475	24.88	-0.16	0.750			
0.6554	41946.09	3.6610	3.6606	2.7455	24.88	-0.16	0.750			
0.6636	42470.60	3.6580	3.6580	2.5253	24.89	-0.15	0.750			
0.6704	42906.83	3.6550	3.6548	2.3015	24.90	-0.14	0.750			
0.6766	43301.70	3.6520	3.6516	2.0161	24.91	-0.13	0.750			
0.6821	43655.75	3.6490	3.6486	1.7946	24.92	-0.12	0.750			
0.6876	44003.56	3.6460	3.6457	1.6713	24.93	-0.11	0.750			
0.6921	44296.21	3.6430	3.6433	1.4906	24.94	-0.10	0.750			
0.6963	44564.72	3.6400	3.6402	1.3091	24.95	-0.09	0.750			
0.6999	44793.99	3.6370	3.6370	1.1710	24.95	-0.09	0.750			
0.7031	44997.15	3.6340	3.6340	1.0481	24.96	-0.08	0.750			
0.7059	45175.03	3.6310	3.6311	0.9817	24.97	-0.07	0.750			
0.7087	45355.28	3.6280	3.6283	0.9520	24.97	-0.07	0.750			
0.7115	45533.46	3.6250	3.6253	0.9246	24.98	-0.06	0.750			
0.7142	45711.42	3.6220	3.6220	0.9115	24.99	-0.05	0.750			
0.7170	45889.22	3.6190	3.6191	0.8710	24.99	-0.05	0.750			
0.7196	46054.43	3.6160	3.6162	0.8410	25.00	-0.04	0.750			
0.7221	46213.48	3.6130	3.6132	0.8054	25.00	-0.04	0.750			
0.7245	46366.00	3.6100	3.6097	0.7646	25.01	-0.03	0.750			
0.7267	46511.02	3.6070	3.6077	0.7042	25.02	-0.02	0.750			
0.7288	46643.54	3.6040	3.6044	0.6429	25.02	-0.02	0.750			
0.7307	46767.15	3.6010	3.6012	0.5754	25.03	-0.01	0.750			
0.7324	46873.13	3.5980	3.5978	0.4963	25.03	-0.01	0.750			
0.7336	46951.04	3.5950	3.5950	0.4103	25.03	-0.01	0.750			
0.7347	47022.96	3.5920	3.5919	0.3495	25.03	-0.01	0.750			
0.7357	47083.93	3.5890	3.5889	0.2898	25.04	-0.00	0.750			
0.7365	47134.02	3.5860	3.5861	0.2323	25.04	-0.00	0.750			
0.7371	47173.55	3.5830	3.5831	0.1753	25.04	0.00	0.750			
0.7375	47202.65	3.5800	3.5806	0.1166	25.04	0.00	0.750			
0.7378	47220.33	3.5770	3.5785	0.0533	25.04	0.00	0.750			
0.7379	47224.11	3.5740	3.5741	0.0004	25.04	0.00	0.750			
