Ah_balance (normalized)	Ah_balance (mAh)	Voltage - fit (V)	Voltage -  interpolate (V)	dQ/dV (1/V)	Temperature (°C)	Temperature - diff (°C)	Current (C)	R_DC 0ms (mOhm)	R_DC 50ms (mOhm)	R_DC 50 ms PEC (mOhm)
0.0473	3029.85	4.1970	4.1971	0.7383	25.48	0.58	0.750			
0.0496	3174.95	4.1940	4.1941	0.7590	25.48	0.58	0.750			
0.0519	3323.01	4.1910	4.1911	0.7686	25.48	0.58	0.750			
0.0542	3471.74	4.1880	4.1880	0.7713	25.48	0.58	0.750			
0.0566	3622.64	4.1850	4.1850	0.7755	25.48	0.58	0.750			
0.0589	3770.98	4.1820	4.1820	0.7686	25.48	0.58	0.750			
0.0612	3918.20	4.1790	4.1789	0.7689	25.48	0.58	0.750			
0.0635	4066.23	4.1760	4.1760	0.7704	25.48	0.58	0.750			
0.0659	4216.65	4.1730	4.1729	0.7593	25.48	0.58	0.750			
0.0681	4361.12	4.1700	4.1700	0.7651	25.48	0.58	0.750			
0.0704	4505.27	4.1670	4.1671	0.7678	25.48	0.58	0.750			
0.0727	4652.84	4.1640	4.1642	0.7742	25.48	0.58	0.750			
0.0750	4802.13	4.1610	4.1611	0.7777	25.48	0.58	0.750			
0.0774	4952.15	4.1580	4.1581	0.7798	25.48	0.58	0.750			
0.0798	5106.27	4.1550	4.1550	0.7687	25.48	0.58	0.750			
0.0820	5250.61	4.1520	4.1521	0.7770	25.48	0.58	0.750			
0.0843	5395.80	4.1490	4.1492	0.7733	25.48	0.58	0.750			
0.0866	5545.52	4.1460	4.1451	0.7805	25.48	0.58	0.750			
0.0890	5694.56	4.1430	4.1432	0.7920	25.48	0.58	0.750			
0.0914	5850.60	4.1400	4.1401	0.7979	25.48	0.58	0.750			
0.0939	6009.69	4.1370	4.1370	0.8106	25.48	0.58	0.750			
0.0963	6163.32	4.1340	4.1340	0.7979	25.48	0.58	0.750			
0.0987	6315.96	4.1310	4.1310	0.8004	25.48	0.58	0.750			
0.1011	6471.47	4.1280	4.1279	0.8008	25.48	0.58	0.750			
0.1035	6625.71	4.1250	4.1250	0.8006	25.48	0.58	0.750			
0.1059	6777.44	4.1220	4.1220	0.7878	25.47	0.57	0.750			
0.1083	6928.58	4.1190	4.1191	0.7886	25.47	0.57	0.750			
0.1106	7076.60	4.1160	4.1160	0.7890	25.47	0.57	0.750			
0.1129	7227.90	4.1130	4.1131	0.7938	25.47	0.57	0.750			
0.1154	7385.22	4.1100	4.1099	0.7848	25.47	0.57	0.750			
0.1177	7534.35	4.1070	4.1071	0.7961	25.47	0.57	0.750			
0.1202	7690.87	4.1040	4.1041	0.8089	25.48	0.58	0.750			
0.1225	7841.06	4.1010	4.1012	0.8054	25.48	0.58	0.750			
0.1249	7994.85	4.0980	4.0979	0.8109	25.48	0.58	0.750			
0.1274	8152.72	4.0950	4.0952	0.8106	25.48	0.58	0.750			
0.1299	8310.79	4.0920	4.0921	0.8186	25.48	0.58	0.750			
0.1323	8469.47	4.0890	4.0891	0.8226	25.47	0.57	0.750			
0.1348	8625.14	4.0860	4.0860	0.8138	25.47	0.57	0.750			
0.1372	8781.47	4.0830	4.0829	0.8215	25.47	0.57	0.750			
0.1397	8942.16	4.0800	4.0800	0.8172	25.47	0.57	0.750			
0.1422	9098.02	4.0770	4.0770	0.8237	25.47	0.57	0.750			
0.1446	9257.09	4.0740	4.0741	0.8294	25.47	0.57	0.750			
0.1471	9415.48	4.0710	4.0712	0.8312	25.47	0.57	0.750			
0.1496	9574.28	4.0680	4.0678	0.8353	25.47	0.57	0.750			
0.1521	9736.49	4.0650	4.0651	0.8383	25.47	0.57	0.750			
0.1546	9897.60	4.0620	4.0620	0.8325	25.47	0.57	0.750			
0.1571	10057.01	4.0590	4.0591	0.8397	25.47	0.57	0.750			
0.1596	10217.16	4.0560	4.0561	0.8376	25.47	0.57	0.750			
0.1621	10377.38	4.0530	4.0531	0.8425	25.47	0.57	0.750			
0.1647	10540.55	4.0500	4.0501	0.8476	25.47	0.57	0.750			
0.1673	10704.32	4.0470	4.0471	0.8545	25.47	0.57	0.750			
0.1699	10870.81	4.0440	4.0440	0.8608	25.48	0.58	0.750			
0.1724	11035.49	4.0410	4.0410	0.8545	25.48	0.58	0.750			
0.1750	11199.78	4.0380	4.0380	0.8551	25.48	0.58	0.750			
0.1776	11366.24	4.0350	4.0349	0.8499	25.48	0.58	0.750			
0.1801	11527.25	4.0320	4.0322	0.8547	25.48	0.58	0.750			
0.1827	11691.19	4.0290	4.0290	0.8611	25.48	0.58	0.750			
0.1852	11855.62	4.0260	4.0261	0.8642	25.48	0.58	0.750			
0.1879	12023.08	4.0230	4.0231	0.8686	25.48	0.58	0.750			
0.1905	12194.11	4.0200	4.0200	0.8621	25.48	0.58	0.750			
0.1931	12357.54	4.0170	4.0171	0.8715	25.48	0.58	0.750			
0.1957	12524.28	4.0140	4.0141	0.8799	25.48	0.58	0.750			
0.1983	12690.13	4.0110	4.0108	0.8798	25.48	0.58	0.750			
0.2009	12860.62	4.0080	4.0082	0.8882	25.48	0.58	0.750			
0.2036	13033.46	4.0050	4.0051	0.8946	25.49	0.59	0.750			
0.2064	13208.31	4.0020	4.0020	0.8970	25.49	0.59	0.750			
0.2091	13383.84	3.9990	3.9990	0.9034	25.50	0.60	0.750			
0.2118	13552.36	3.9960	3.9960	0.8943	25.50	0.60	0.750			
0.2144	13724.00	3.9930	3.9930	0.8970	25.50	0.60	0.750			
0.2171	13894.82	3.9900	3.9900	0.8910	25.50	0.60	0.750			
0.2198	14064.39	3.9870	3.9871	0.8980	25.51	0.61	0.750			
0.2225	14237.50	3.9840	3.9841	0.9033	25.51	0.61	0.750			
0.2252	14411.89	3.9810	3.9812	0.9079	25.51	0.61	0.750			
0.2279	14588.61	3.9780	3.9780	0.8908	25.51	0.61	0.750			
0.2306	14760.01	3.9750	3.9751	0.9026	25.51	0.61	0.750			
0.2333	14932.39	3.9720	3.9722	0.9135	25.51	0.61	0.750			
0.2360	15104.35	3.9690	3.9687	0.9094	25.51	0.61	0.750			
0.2388	15281.79	3.9660	3.9661	0.9165	25.51	0.61	0.750			
0.2416	15459.35	3.9630	3.9631	0.9239	25.51	0.61	0.750			
0.2443	15638.32	3.9600	3.9601	0.9292	25.52	0.62	0.750			
0.2472	15822.97	3.9570	3.9570	0.9363	25.52	0.62	0.750			
0.2500	15997.01	3.9540	3.9540	0.9262	25.52	0.62	0.750			
0.2527	16175.27	3.9510	3.9510	0.9226	25.52	0.62	0.750			
0.2555	16352.53	3.9480	3.9480	0.9260	25.53	0.63	0.750			
0.2583	16529.90	3.9450	3.9450	0.9274	25.53	0.63	0.750			
0.2610	16706.64	3.9420	3.9416	0.9304	25.53	0.63	0.750			
0.2639	16889.55	3.9390	3.9390	0.9211	25.53	0.63	0.750			
0.2666	17065.03	3.9360	3.9360	0.9324	25.53	0.63	0.750			
0.2694	17243.94	3.9330	3.9330	0.9406	25.53	0.63	0.750			
0.2723	17426.03	3.9300	3.9302	0.9479	25.53	0.63	0.750			
0.2751	17607.01	3.9270	3.9272	0.9486	25.53	0.63	0.750			
0.2780	17790.36	3.9240	3.9241	0.9547	25.54	0.64	0.750			
0.2809	17974.84	3.9210	3.9210	0.9579	25.54	0.64	0.750			
0.2838	18161.80	3.9180	3.9181	0.9566	25.55	0.65	0.750			
0.2866	18339.68	3.9150	3.9150	0.9773	25.55	0.65	0.750			
0.2895	18530.76	3.9120	3.9120	0.9910	25.55	0.65	0.750			
0.2926	18724.95	3.9090	3.9088	1.0020	25.55	0.65	0.750			
0.2956	18920.15	3.9060	3.9066	1.0086	25.55	0.65	0.750			
0.2987	19117.93	3.9030	3.9029	1.0087	25.55	0.65	0.750			
0.3018	19315.90	3.9000	3.9000	1.0045	25.55	0.65	0.750			
0.3047	19501.38	3.8970	3.8970	0.9784	25.55	0.65	0.750			
0.3075	19681.83	3.8940	3.8941	0.9724	25.55	0.65	0.750			
0.3104	19867.70	3.8910	3.8912	0.9743	25.55	0.65	0.750			
0.3134	20055.04	3.8880	3.8881	0.9823	25.55	0.65	0.750			
0.3163	20245.09	3.8850	3.8851	0.9902	25.55	0.65	0.750			
0.3194	20438.61	3.8820	3.8821	0.9957	25.55	0.65	0.750			
0.3225	20636.81	3.8790	3.8789	1.0095	25.55	0.65	0.750			
0.3254	20823.99	3.8760	3.8760	0.9888	25.55	0.65	0.750			
0.3283	21012.85	3.8730	3.8730	0.9875	25.55	0.65	0.750			
0.3313	21202.22	3.8700	3.8700	0.9910	25.54	0.64	0.750			
0.3343	21392.30	3.8670	3.8670	0.9921	25.54	0.64	0.750			
0.3372	21583.41	3.8640	3.8640	0.9929	25.54	0.64	0.750			
0.3402	21773.37	3.8610	3.8610	1.0006	25.53	0.63	0.750			
0.3432	21965.23	3.8580	3.8581	1.0088	25.53	0.63	0.750			
0.3463	22160.66	3.8550	3.8550	1.0166	25.52	0.62	0.750			
0.3493	22356.21	3.8520	3.8519	1.0256	25.52	0.62	0.750			
0.3524	22554.25	3.8490	3.8491	1.0233	25.51	0.61	0.750			
0.3555	22751.88	3.8460	3.8461	1.0295	25.50	0.60	0.750			
0.3586	22948.90	3.8430	3.8430	1.0330	25.50	0.60	0.750			
0.3617	23146.25	3.8400	3.8397	1.0371	25.49	0.59	0.750			
0.3647	23343.99	3.8370	3.8371	1.0470	25.48	0.58	0.750			
0.3679	23546.60	3.8340	3.8340	1.0600	25.48	0.58	0.750			
0.3711	23751.94	3.8310	3.8307	1.0734	25.47	0.57	0.750	0.330	0.431	
0.3744	23963.68	3.8280	3.8281	1.0659	25.47	0.57	0.750			
0.3776	24168.12	3.8250	3.8251	1.0735	25.46	0.56	0.750			
0.3809	24374.51	3.8220	3.8221	1.0772	25.45	0.55	0.750			
0.3840	24579.03	3.8190	3.8191	1.0751	25.44	0.54	0.750			
0.3873	24785.92	3.8160	3.8158	1.0772	25.43	0.53	0.750			
0.3905	24993.45	3.8130	3.8131	1.0852	25.41	0.51	0.750			
0.3938	25202.88	3.8100	3.8101	1.0961	25.40	0.50	0.750			
0.3972	25417.78	3.8070	3.8070	1.0996	25.39	0.49	0.750			
0.4004	25628.33	3.8040	3.8040	1.0902	25.38	0.48	0.750			
0.4037	25836.85	3.8010	3.8010	1.0964	25.37	0.47	0.750			
0.4070	26046.79	3.7980	3.7981	1.1051	25.36	0.46	0.750			
0.4103	26258.00	3.7950	3.7949	1.1160	25.35	0.45	0.750			
0.4136	26472.27	3.7920	3.7920	1.1212	25.34	0.44	0.750			
0.4170	26687.04	3.7890	3.7890	1.1376	25.33	0.43	0.750			
0.4204	26907.78	3.7860	3.7861	1.1610	25.31	0.41	0.750			
0.4240	27133.30	3.7830	3.7826	1.1781	25.30	0.40	0.750			
0.4275	27359.87	3.7800	3.7800	1.1972	25.29	0.39	0.750			
0.4311	27592.22	3.7770	3.7771	1.2199	25.28	0.38	0.750			
0.4349	27831.95	3.7740	3.7739	1.2338	25.27	0.37	0.750			
0.4386	28068.32	3.7710	3.7710	1.2498	25.26	0.36	0.750			
0.4423	28308.69	3.7680	3.7681	1.2736	25.25	0.35	0.750			
0.4462	28557.81	3.7650	3.7650	1.2914	25.23	0.33	0.750			
0.4501	28805.35	3.7620	3.7619	1.3260	25.22	0.32	0.750			
0.4541	29060.23	3.7590	3.7591	1.3611	25.21	0.31	0.750			
0.4582	29326.26	3.7560	3.7561	1.3940	25.20	0.30	0.750			
0.4625	29598.28	3.7530	3.7531	1.4210	25.19	0.29	0.750			
0.4668	29872.26	3.7500	3.7502	1.4454	25.17	0.27	0.750			
0.4711	30151.92	3.7470	3.7472	1.4772	25.15	0.25	0.750			
0.4756	30440.28	3.7440	3.7436	1.5083	25.13	0.23	0.750			
0.4801	30725.50	3.7410	3.7409	1.5420	25.12	0.22	0.750			
0.4848	31028.43	3.7380	3.7382	1.5803	25.11	0.21	0.750			
0.4897	31341.44	3.7350	3.7348	1.6397	25.09	0.19	0.750			
0.4946	31653.10	3.7320	3.7318	1.6855	25.07	0.17	0.750			
0.4997	31983.89	3.7290	3.7289	1.7554	25.06	0.16	0.750			
0.5051	32325.62	3.7260	3.7263	1.8100	25.04	0.14	0.750			
0.5107	32681.82	3.7230	3.7231	1.8716	25.02	0.12	0.750			
0.5164	33050.73	3.7200	3.7200	1.9521	25.00	0.10	0.750			
0.5222	33422.18	3.7170	3.7171	1.9614	24.99	0.09	0.750			
0.5284	33815.16	3.7140	3.7142	2.0115	24.97	0.07	0.750			
0.5343	34196.11	3.7110	3.7112	2.0437	24.95	0.05	0.750			
0.5405	34591.86	3.7080	3.7079	2.1157	24.93	0.03	0.750			
0.5469	35002.04	3.7050	3.7049	2.1438	24.92	0.02	0.750			
0.5535	35420.83	3.7020	3.7018	2.2520	24.91	0.01	0.750			
0.5603	35861.96	3.6990	3.6990	2.3206	24.88	-0.02	0.750			
0.5675	36318.50	3.6960	3.6963	2.3739	24.87	-0.03	0.750			
0.5749	36793.73	3.6930	3.6931	2.4066	24.85	-0.05	0.750			
0.5822	37263.71	3.6900	3.6899	2.4851	24.83	-0.07	0.750			
0.5896	37735.30	3.6870	3.6870	2.5940	24.81	-0.09	0.750			
0.5975	38241.67	3.6840	3.6840	2.6242	24.80	-0.10	0.750			
0.6056	38756.76	3.6810	3.6810	2.7042	24.79	-0.11	0.750			
0.6138	39282.80	3.6780	3.6780	2.7562	24.78	-0.12	0.750			
0.6224	39832.02	3.6750	3.6750	2.8103	24.78	-0.12	0.750			
0.6310	40383.02	3.6720	3.6718	2.9131	24.77	-0.13	0.750			
0.6397	40942.32	3.6690	3.6688	2.9270	24.77	-0.13	0.750			
0.6487	41518.02	3.6660	3.6659	2.9523	24.76	-0.14	0.750			
0.6576	42087.96	3.6630	3.6628	2.8145	24.77	-0.13	0.750			
0.6658	42610.49	3.6600	3.6600	2.5958	24.77	-0.13	0.750			
0.6732	43087.27	3.6570	3.6570	2.3334	24.76	-0.14	0.750			
0.6796	43495.82	3.6540	3.6541	2.0205	24.77	-0.13	0.750			
0.6851	43847.21	3.6510	3.6513	1.8084	24.78	-0.12	0.750			
0.6902	44171.16	3.6480	3.6484	1.6421	24.79	-0.11	0.750			
0.6947	44457.90	3.6450	3.6447	1.4645	24.79	-0.11	0.750			
0.6990	44733.96	3.6420	3.6402	1.3252	24.80	-0.10	0.750			
0.7028	44980.39	3.6390	3.6393	1.2291	24.81	-0.09	0.750			
0.7064	45209.19	3.6360	3.6363	1.1603	24.81	-0.09	0.750			
0.7095	45410.16	3.6330	3.6332	1.0453	24.82	-0.08	0.750			
0.7124	45594.23	3.6300	3.6300	0.9729	24.82	-0.08	0.750			
0.7153	45776.07	3.6270	3.6271	0.9392	24.83	-0.07	0.750			
0.7180	45954.04	3.6240	3.6240	0.8985	24.84	-0.06	0.750			
0.7207	46122.28	3.6210	3.6212	0.8784	24.85	-0.05	0.750			
0.7232	46285.12	3.6180	3.6183	0.8464	24.86	-0.04	0.750			
0.7257	46446.14	3.6150	3.6153	0.8208	24.87	-0.03	0.750			
0.7282	46603.93	3.6120	3.6122	0.7915	24.87	-0.03	0.750			
0.7306	46758.76	3.6090	3.6093	0.7383	24.88	-0.02	0.750			
0.7329	46905.81	3.6060	3.6061	0.6868	24.89	-0.01	0.750			
0.7348	47026.93	3.6030	3.6031	0.5995	24.89	-0.01	0.750			
0.7364	47132.69	3.6000	3.5999	0.5175	24.90	0.00	0.750			
0.7379	47224.35	3.5970	3.5970	0.4510	24.90	0.00	0.750			
0.7391	47303.07	3.5940	3.5941	0.3869	24.91	0.01	0.750			
0.7402	47370.99	3.5910	3.5909	0.3252	24.91	0.01	0.750			
0.7411	47427.70	3.5880	3.5880	0.2657	24.91	0.01	0.750			
0.7418	47472.59	3.5850	3.5851	0.2064	24.92	0.02	0.750			
0.7423	47507.52	3.5820	3.5825	0.1480	24.92	0.02	0.750			
0.7427	47531.07	3.5790	3.5802	0.0842	24.92	0.02	0.750			
0.7428	47541.09	3.5760	3.5784	0.0186	24.92	0.02	0.750			
