Ah_balance (normalized)	Ah_balance (mAh)	Voltage - fit (V)	Voltage -  interpolate (V)	dQ/dV (1/V)	Temperature (°C)	Temperature - diff (°C)	Current (C)	R_DC 0ms (mOhm)	R_DC 50ms (mOhm)	R_DC 50 ms PEC (mOhm)
0.0470	3005.22	4.1980	4.1980	0.7442	25.72	0.57	0.750			
0.0492	3149.77	4.1950	4.1949	0.7485	25.72	0.57	0.750			
0.0514	3290.65	4.1920	4.1920	0.7457	25.72	0.57	0.750			
0.0537	3433.72	4.1890	4.1892	0.7552	25.72	0.57	0.750			
0.0559	3579.47	4.1860	4.1855	0.7600	25.72	0.57	0.750			
0.0582	3726.83	4.1830	4.1830	0.7628	25.72	0.57	0.750			
0.0605	3874.68	4.1800	4.1801	0.7643	25.72	0.57	0.750			
0.0629	4023.39	4.1770	4.1770	0.7706	25.72	0.57	0.750			
0.0652	4172.21	4.1740	4.1740	0.7708	25.72	0.57	0.750			
0.0674	4315.88	4.1710	4.1710	0.7632	25.72	0.57	0.750			
0.0697	4462.92	4.1680	4.1680	0.7630	25.72	0.57	0.750			
0.0721	4611.42	4.1650	4.1650	0.7645	25.72	0.57	0.750			
0.0743	4757.47	4.1620	4.1620	0.7666	25.72	0.57	0.750			
0.0766	4904.94	4.1590	4.1590	0.7687	25.73	0.58	0.750			
0.0789	5050.87	4.1560	4.1561	0.7736	25.73	0.58	0.750			
0.0812	5199.98	4.1530	4.1529	0.7764	25.73	0.58	0.750			
0.0836	5350.84	4.1500	4.1499	0.7764	25.73	0.58	0.750			
0.0860	5503.05	4.1470	4.1470	0.7697	25.73	0.58	0.750			
0.0882	5647.95	4.1440	4.1442	0.7707	25.72	0.57	0.750			
0.0905	5794.05	4.1410	4.1410	0.7728	25.72	0.57	0.750			
0.0928	5942.10	4.1380	4.1376	0.7736	25.72	0.57	0.750			
0.0952	6090.67	4.1350	4.1351	0.7776	25.72	0.57	0.750			
0.0975	6243.01	4.1320	4.1321	0.7833	25.72	0.57	0.750			
0.0999	6394.16	4.1290	4.1290	0.7864	25.73	0.58	0.750			
0.1023	6547.26	4.1260	4.1260	0.7892	25.73	0.58	0.750			
0.1046	6694.71	4.1230	4.1230	0.7839	25.73	0.58	0.750			
0.1070	6844.82	4.1200	4.1200	0.7870	25.73	0.58	0.750			
0.1094	6999.03	4.1170	4.1170	0.7871	25.73	0.58	0.750			
0.1117	7148.81	4.1140	4.1140	0.7887	25.73	0.58	0.750			
0.1141	7301.24	4.1110	4.1110	0.7965	25.73	0.58	0.750			
0.1165	7453.26	4.1080	4.1081	0.7968	25.73	0.58	0.750			
0.1189	7606.63	4.1050	4.1050	0.7981	25.73	0.58	0.750			
0.1213	7760.34	4.1020	4.1021	0.7986	25.73	0.58	0.750			
0.1237	7916.09	4.0990	4.0990	0.7914	25.73	0.58	0.750			
0.1260	8066.01	4.0960	4.0961	0.7954	25.73	0.58	0.750			
0.1284	8216.05	4.0930	4.0931	0.7914	25.73	0.58	0.750			
0.1307	8367.62	4.0900	4.0892	0.8003	25.73	0.58	0.750			
0.1331	8521.13	4.0870	4.0872	0.8081	25.73	0.58	0.750			
0.1356	8678.36	4.0840	4.0840	0.8157	25.73	0.58	0.750			
0.1381	8839.37	4.0810	4.0811	0.8268	25.73	0.58	0.750			
0.1406	8996.55	4.0780	4.0780	0.8198	25.73	0.58	0.750			
0.1431	9156.79	4.0750	4.0749	0.8223	25.73	0.58	0.750			
0.1456	9315.62	4.0720	4.0720	0.8242	25.73	0.58	0.750			
0.1480	9475.05	4.0690	4.0689	0.8108	25.73	0.58	0.750			
0.1505	9629.45	4.0660	4.0661	0.8178	25.73	0.58	0.750			
0.1529	9783.90	4.0630	4.0630	0.8187	25.73	0.58	0.750			
0.1553	9940.52	4.0600	4.0598	0.8266	25.73	0.58	0.750			
0.1578	10100.60	4.0570	4.0571	0.8300	25.73	0.58	0.750			
0.1604	10266.01	4.0540	4.0539	0.8191	25.74	0.59	0.750			
0.1628	10422.28	4.0510	4.0511	0.8330	25.74	0.59	0.750			
0.1654	10582.94	4.0480	4.0481	0.8352	25.75	0.60	0.750			
0.1678	10738.82	4.0450	4.0447	0.8321	25.75	0.60	0.750			
0.1703	10899.21	4.0420	4.0422	0.8388	25.75	0.60	0.750			
0.1728	11060.57	4.0390	4.0391	0.8381	25.75	0.60	0.750			
0.1754	11222.52	4.0360	4.0361	0.8495	25.75	0.60	0.750			
0.1779	11387.19	4.0330	4.0330	0.8460	25.75	0.60	0.750			
0.1805	11550.81	4.0300	4.0298	0.8493	25.75	0.60	0.750			
0.1831	11715.23	4.0270	4.0270	0.8543	25.75	0.60	0.750			
0.1856	11878.81	4.0240	4.0242	0.8508	25.75	0.60	0.750			
0.1882	12043.08	4.0210	4.0210	0.8548	25.76	0.61	0.750			
0.1907	12205.05	4.0180	4.0181	0.8573	25.76	0.61	0.750			
0.1933	12369.61	4.0150	4.0145	0.8599	25.76	0.61	0.750			
0.1959	12537.62	4.0120	4.0121	0.8618	25.76	0.61	0.750			
0.1985	12703.58	4.0090	4.0091	0.8664	25.76	0.61	0.750			
0.2011	12871.26	4.0060	4.0061	0.8758	25.76	0.61	0.750			
0.2037	13038.39	4.0030	4.0030	0.8729	25.76	0.61	0.750			
0.2063	13205.84	4.0000	4.0000	0.8768	25.76	0.61	0.750			
0.2090	13375.38	3.9970	3.9971	0.8776	25.76	0.61	0.750			
0.2117	13546.37	3.9940	3.9940	0.8838	25.76	0.61	0.750			
0.2143	13715.64	3.9910	3.9910	0.8850	25.77	0.62	0.750			
0.2169	13883.92	3.9880	3.9881	0.8819	25.77	0.62	0.750			
0.2196	14052.85	3.9850	3.9850	0.8843	25.77	0.62	0.750			
0.2223	14224.78	3.9820	3.9820	0.8829	25.77	0.62	0.750			
0.2249	14393.45	3.9790	3.9791	0.8872	25.77	0.62	0.750			
0.2276	14564.93	3.9760	3.9761	0.8925	25.77	0.62	0.750			
0.2302	14734.84	3.9730	3.9728	0.8963	25.77	0.62	0.750			
0.2329	14906.10	3.9700	3.9700	0.8985	25.77	0.62	0.750			
0.2356	15080.42	3.9670	3.9670	0.8963	25.77	0.62	0.750			
0.2383	15253.01	3.9640	3.9641	0.9029	25.77	0.62	0.750			
0.2410	15425.55	3.9610	3.9611	0.9022	25.77	0.62	0.750			
0.2437	15599.67	3.9580	3.9581	0.9043	25.77	0.62	0.750			
0.2465	15775.22	3.9550	3.9550	0.8983	25.77	0.62	0.750			
0.2492	15945.68	3.9520	3.9521	0.9047	25.77	0.62	0.750			
0.2519	16120.69	3.9490	3.9491	0.9118	25.78	0.63	0.750			
0.2546	16294.65	3.9460	3.9459	0.9122	25.78	0.63	0.750			
0.2574	16470.65	3.9430	3.9430	0.9147	25.78	0.63	0.750			
0.2601	16646.71	3.9400	3.9401	0.9156	25.78	0.63	0.750			
0.2629	16823.25	3.9370	3.9371	0.9230	25.78	0.63	0.750			
0.2657	17003.50	3.9340	3.9340	0.9278	25.78	0.63	0.750			
0.2684	17178.32	3.9310	3.9310	0.9221	25.78	0.63	0.750			
0.2712	17358.90	3.9280	3.9280	0.9103	25.78	0.63	0.750			
0.2739	17531.89	3.9250	3.9251	0.9139	25.78	0.63	0.750			
0.2767	17706.30	3.9220	3.9221	0.9213	25.79	0.64	0.750			
0.2794	17881.08	3.9190	3.9191	0.9180	25.79	0.64	0.750			
0.2821	18057.08	3.9160	3.9161	0.9270	25.79	0.64	0.750			
0.2849	18236.57	3.9130	3.9131	0.9349	25.78	0.63	0.750			
0.2878	18419.87	3.9100	3.9100	0.9385	25.78	0.63	0.750			
0.2907	18602.47	3.9070	3.9070	0.9410	25.77	0.62	0.750			
0.2935	18782.35	3.9040	3.9041	0.9346	25.77	0.62	0.750			
0.2963	18962.55	3.9010	3.9009	0.9273	25.77	0.62	0.750			
0.2990	19138.29	3.8980	3.8980	0.9319	25.77	0.62	0.750			
0.3018	19315.81	3.8950	3.8951	0.9320	25.77	0.62	0.750			
0.3046	19496.61	3.8920	3.8919	0.9346	25.77	0.62	0.750			
0.3074	19676.17	3.8890	3.8891	0.9364	25.77	0.62	0.750			
0.3102	19854.79	3.8860	3.8861	0.9291	25.76	0.61	0.750			
0.3130	20032.54	3.8830	3.8830	0.9318	25.76	0.61	0.750			
0.3158	20210.09	3.8800	3.8801	0.9381	25.75	0.60	0.750			
0.3186	20387.74	3.8770	3.8766	0.9427	25.75	0.60	0.750			
0.3214	20570.91	3.8740	3.8741	0.9481	25.74	0.59	0.750			
0.3243	20754.59	3.8710	3.8711	0.9567	25.73	0.58	0.750			
0.3272	20942.08	3.8680	3.8680	0.9624	25.72	0.57	0.750			
0.3301	21126.64	3.8650	3.8649	0.9520	25.71	0.56	0.750			
0.3330	21312.73	3.8620	3.8620	0.9474	25.71	0.56	0.750			
0.3358	21490.94	3.8590	3.8591	0.9486	25.70	0.55	0.750			
0.3386	21671.32	3.8560	3.8560	0.9495	25.70	0.55	0.750			
0.3415	21853.96	3.8530	3.8531	0.9569	25.69	0.54	0.750			
0.3443	22035.61	3.8500	3.8499	0.9584	25.69	0.54	0.750			
0.3472	22221.12	3.8470	3.8472	0.9536	25.68	0.53	0.750			
0.3501	22407.96	3.8440	3.8440	0.9554	25.67	0.52	0.750			
0.3529	22587.33	3.8410	3.8412	0.9743	25.67	0.52	0.750			
0.3558	22773.61	3.8380	3.8372	0.9797	25.66	0.51	0.750			
0.3588	22963.21	3.8350	3.8351	0.9846	25.65	0.50	0.750	0.312	0.404	
0.3618	23154.54	3.8320	3.8322	0.9967	25.64	0.49	0.750			
0.3649	23350.52	3.8290	3.8292	1.0090	25.63	0.48	0.750			
0.3679	23543.43	3.8260	3.8258	1.0004	25.62	0.47	0.750			
0.3709	23736.63	3.8230	3.8231	0.9896	25.61	0.46	0.750			
0.3739	23926.75	3.8200	3.8200	1.0001	25.61	0.46	0.750			
0.3769	24120.15	3.8170	3.8170	1.0098	25.60	0.45	0.750			
0.3799	24313.23	3.8140	3.8139	1.0107	25.59	0.44	0.750			
0.3829	24507.65	3.8110	3.8111	1.0236	25.58	0.43	0.750			
0.3860	24702.45	3.8080	3.8080	1.0228	25.57	0.42	0.750			
0.3890	24898.92	3.8050	3.8051	1.0371	25.56	0.41	0.750			
0.3921	25092.22	3.8020	3.8023	1.0682	25.55	0.40	0.750			
0.3954	25303.05	3.7990	3.7992	1.1068	25.54	0.39	0.750			
0.3988	25521.44	3.7960	3.7959	1.1379	25.53	0.38	0.750			
0.4023	25749.82	3.7930	3.7931	1.1573	25.52	0.37	0.750			
0.4060	25983.82	3.7900	3.7900	1.1682	25.51	0.36	0.750			
0.4094	26203.07	3.7870	3.7870	1.1579	25.50	0.35	0.750			
0.4129	26422.50	3.7840	3.7840	1.1602	25.48	0.33	0.750			
0.4163	26640.69	3.7810	3.7810	1.1534	25.47	0.32	0.750			
0.4197	26863.80	3.7780	3.7781	1.1621	25.46	0.31	0.750			
0.4232	27087.73	3.7750	3.7751	1.1809	25.44	0.29	0.750			
0.4268	27313.17	3.7720	3.7722	1.2086	25.43	0.28	0.750			
0.4305	27548.89	3.7690	3.7684	1.2300	25.42	0.27	0.750			
0.4341	27783.34	3.7660	3.7660	1.2607	25.41	0.26	0.750			
0.4380	28030.06	3.7630	3.7631	1.2935	25.39	0.24	0.750			
0.4420	28288.75	3.7600	3.7599	1.3200	25.37	0.22	0.750			
0.4460	28542.30	3.7570	3.7571	1.3484	25.37	0.22	0.750			
0.4500	28798.86	3.7540	3.7541	1.3756	25.36	0.21	0.750			
0.4542	29070.63	3.7510	3.7509	1.3779	25.35	0.20	0.750			
0.4584	29337.08	3.7480	3.7480	1.4147	25.34	0.19	0.750			
0.4626	29604.85	3.7450	3.7452	1.4490	25.32	0.17	0.750			
0.4669	29884.03	3.7420	3.7421	1.5002	25.30	0.15	0.750			
0.4716	30179.99	3.7390	3.7391	1.5373	25.28	0.13	0.750			
0.4762	30474.80	3.7360	3.7360	1.5825	25.26	0.11	0.750			
0.4810	30785.64	3.7330	3.7329	1.6273	25.25	0.10	0.750			
0.4861	31109.98	3.7300	3.7300	1.6689	25.23	0.08	0.750			
0.4911	31429.83	3.7270	3.7272	1.7228	25.21	0.06	0.750			
0.4964	31770.38	3.7240	3.7240	1.7467	25.19	0.04	0.750			
0.5017	32110.80	3.7210	3.7211	1.8035	25.18	0.03	0.750			
0.5072	32462.05	3.7180	3.7182	1.8529	25.17	0.02	0.750			
0.5129	32824.78	3.7150	3.7153	1.9217	25.15	0.00	0.750			
0.5186	33193.26	3.7120	3.7121	1.9723	25.14	-0.01	0.750			
0.5247	33583.61	3.7090	3.7085	2.0467	25.12	-0.03	0.750			
0.5310	33982.65	3.7060	3.7063	2.1010	25.10	-0.05	0.750			
0.5374	34394.29	3.7030	3.7029	2.1636	25.09	-0.06	0.750			
0.5441	34823.78	3.7000	3.6998	2.2111	25.08	-0.07	0.750			
0.5506	35240.32	3.6970	3.6968	2.2586	25.06	-0.09	0.750			
0.5574	35672.38	3.6940	3.6941	2.3201	25.04	-0.11	0.750			
0.5645	36130.53	3.6910	3.6912	2.3991	25.03	-0.12	0.750			
0.5720	36606.04	3.6880	3.6879	2.4577	25.01	-0.14	0.750			
0.5795	37090.62	3.6850	3.6848	2.5096	25.00	-0.15	0.750			
0.5871	37573.79	3.6820	3.6820	2.5995	24.99	-0.16	0.750			
0.5948	38068.83	3.6790	3.6792	2.6839	24.99	-0.16	0.750			
0.6031	38596.77	3.6760	3.6761	2.7201	24.98	-0.17	0.750			
0.6114	39132.73	3.6730	3.6729	2.7578	24.98	-0.17	0.750			
0.6200	39680.79	3.6700	3.6699	2.7054	24.98	-0.17	0.750			
0.6279	40187.48	3.6670	3.6669	2.5802	24.98	-0.17	0.750			
0.6354	40664.76	3.6640	3.6639	2.3921	24.98	-0.17	0.750			
0.6424	41113.29	3.6610	3.6610	2.1976	24.98	-0.17	0.750			
0.6486	41509.41	3.6580	3.6581	2.0086	24.99	-0.16	0.750			
0.6544	41879.31	3.6550	3.6550	1.8710	25.00	-0.15	0.750			
0.6597	42218.79	3.6520	3.6514	1.7216	25.01	-0.14	0.750			
0.6646	42535.02	3.6490	3.6493	1.5859	25.01	-0.14	0.750			
0.6693	42834.17	3.6460	3.6461	1.4634	25.02	-0.13	0.750			
0.6734	43099.34	3.6430	3.6431	1.3398	25.03	-0.12	0.750			
0.6772	43338.65	3.6400	3.6401	1.2093	25.04	-0.11	0.750			
0.6806	43559.58	3.6370	3.6368	1.1381	25.05	-0.10	0.750			
0.6838	43765.57	3.6340	3.6340	1.0471	25.06	-0.09	0.750			
0.6868	43956.69	3.6310	3.6311	1.0063	25.06	-0.09	0.750			
0.6897	44141.90	3.6280	3.6281	0.9738	25.07	-0.08	0.750			
0.6926	44323.82	3.6250	3.6250	0.9401	25.08	-0.07	0.750			
0.6954	44502.89	3.6220	3.6221	0.9144	25.09	-0.06	0.750			
0.6981	44677.16	3.6190	3.6191	0.8920	25.10	-0.05	0.750			
0.7008	44849.47	3.6160	3.6160	0.8535	25.10	-0.05	0.750			
0.7034	45017.11	3.6130	3.6129	0.8152	25.11	-0.04	0.750			
0.7057	45166.44	3.6100	3.6100	0.7526	25.12	-0.03	0.750			
0.7079	45305.87	3.6070	3.6070	0.6928	25.13	-0.02	0.750			
0.7099	45434.60	3.6040	3.6040	0.6304	25.13	-0.02	0.750			
0.7117	45548.68	3.6010	3.6010	0.5640	25.13	-0.02	0.750			
0.7133	45648.55	3.5980	3.5980	0.4995	25.14	-0.01	0.750			
0.7147	45739.28	3.5950	3.5950	0.4419	25.14	-0.01	0.750			
0.7159	45816.44	3.5920	3.5919	0.3863	25.14	-0.01	0.750			
0.7169	45884.34	3.5890	3.5890	0.3317	25.15	-0.00	0.750			
0.7179	45942.91	3.5860	3.5860	0.2813	25.15	-0.00	0.750			
0.7186	45992.69	3.5830	3.5832	0.2333	25.15	0.00	0.750			
0.7193	46032.88	3.5800	3.5803	0.1838	25.15	0.00	0.750			
0.7197	46063.72	3.5770	3.5775	0.1329	25.15	0.00	0.750			
0.7201	46084.27	3.5740	3.5745	0.0754	25.15	0.00	0.750			
