Ah_balance (normalized)	Ah_balance (mAh)	Voltage - fit (V)	Voltage -  interpolate (V)	dQ/dV (1/V)	Temperature (°C)	Temperature - diff (°C)	Current (C)	R_DC 0ms (mOhm)	R_DC 50ms (mOhm)	R_DC 50 ms PEC (mOhm)
0.0468	2998.15	4.1990	4.1990	0.7552	25.30	0.63	0.750			
0.0491	3143.99	4.1960	4.1959	0.7669	25.30	0.63	0.750			
0.0514	3290.43	4.1930	4.1931	0.7710	25.31	0.64	0.750			
0.0537	3439.61	4.1900	4.1899	0.7796	25.31	0.64	0.750			
0.0561	3591.66	4.1870	4.1872	0.7851	25.31	0.64	0.750			
0.0585	3742.82	4.1840	4.1841	0.7841	25.31	0.64	0.750			
0.0608	3893.97	4.1810	4.1810	0.7823	25.31	0.64	0.750			
0.0632	4044.86	4.1780	4.1780	0.7799	25.31	0.64	0.750			
0.0655	4194.25	4.1750	4.1750	0.7812	25.32	0.65	0.750			
0.0678	4341.10	4.1720	4.1720	0.7770	25.32	0.65	0.750			
0.0702	4490.69	4.1690	4.1690	0.7768	25.32	0.65	0.750			
0.0725	4639.78	4.1660	4.1660	0.7806	25.32	0.65	0.750			
0.0748	4790.19	4.1630	4.1630	0.7813	25.32	0.65	0.750			
0.0772	4939.89	4.1600	4.1600	0.7842	25.32	0.65	0.750			
0.0795	5091.14	4.1570	4.1570	0.7873	25.32	0.65	0.750			
0.0819	5242.37	4.1540	4.1536	0.7894	25.32	0.65	0.750			
0.0843	5394.46	4.1510	4.1511	0.7892	25.32	0.65	0.750			
0.0867	5550.13	4.1480	4.1480	0.7778	25.33	0.66	0.750			
0.0890	5697.15	4.1450	4.1449	0.7837	25.33	0.66	0.750			
0.0913	5845.94	4.1420	4.1421	0.7905	25.33	0.66	0.750			
0.0937	5994.53	4.1390	4.1391	0.7899	25.34	0.67	0.750			
0.0961	6147.56	4.1360	4.1362	0.7964	25.34	0.67	0.750			
0.0985	6303.40	4.1330	4.1331	0.8017	25.34	0.67	0.750			
0.1009	6458.88	4.1300	4.1301	0.8064	25.34	0.67	0.750			
0.1034	6617.92	4.1270	4.1270	0.8104	25.34	0.67	0.750			
0.1058	6768.82	4.1240	4.1240	0.8007	25.34	0.67	0.750			
0.1082	6922.12	4.1210	4.1209	0.8037	25.34	0.67	0.750			
0.1106	7077.48	4.1180	4.1181	0.8037	25.34	0.67	0.750			
0.1130	7230.92	4.1150	4.1151	0.8090	25.34	0.67	0.750			
0.1154	7387.98	4.1120	4.1119	0.8138	25.35	0.68	0.750			
0.1179	7543.45	4.1090	4.1090	0.8146	25.35	0.68	0.750			
0.1203	7699.22	4.1060	4.1059	0.8187	25.35	0.68	0.750			
0.1228	7856.52	4.1030	4.1031	0.8229	25.35	0.68	0.750			
0.1252	8015.70	4.1000	4.1000	0.8145	25.35	0.68	0.750			
0.1277	8171.14	4.0970	4.0971	0.8184	25.35	0.68	0.750			
0.1301	8325.93	4.0940	4.0942	0.8212	25.35	0.68	0.750			
0.1326	8483.21	4.0910	4.0908	0.8290	25.35	0.68	0.750			
0.1351	8643.93	4.0880	4.0881	0.8304	25.35	0.68	0.750			
0.1376	8804.54	4.0850	4.0850	0.8330	25.35	0.68	0.750			
0.1401	8967.97	4.0820	4.0821	0.8389	25.35	0.68	0.750			
0.1426	9128.46	4.0790	4.0790	0.8348	25.35	0.68	0.750			
0.1451	9287.20	4.0760	4.0760	0.8353	25.35	0.68	0.750			
0.1476	9449.12	4.0730	4.0730	0.8368	25.35	0.68	0.750			
0.1501	9608.73	4.0700	4.0700	0.8408	25.36	0.69	0.750			
0.1527	9771.71	4.0670	4.0670	0.8457	25.36	0.69	0.750			
0.1552	9934.40	4.0640	4.0641	0.8477	25.37	0.70	0.750			
0.1578	10096.77	4.0610	4.0609	0.8505	25.37	0.70	0.750			
0.1603	10261.77	4.0580	4.0580	0.8482	25.37	0.70	0.750			
0.1629	10423.53	4.0550	4.0550	0.8527	25.37	0.70	0.750			
0.1654	10587.38	4.0520	4.0520	0.8584	25.37	0.70	0.750			
0.1680	10752.09	4.0490	4.0491	0.8619	25.37	0.70	0.750			
0.1706	10918.65	4.0460	4.0461	0.8669	25.37	0.70	0.750			
0.1732	11086.05	4.0430	4.0430	0.8693	25.37	0.70	0.750			
0.1758	11253.80	4.0400	4.0400	0.8727	25.38	0.71	0.750			
0.1785	11422.34	4.0370	4.0371	0.8769	25.38	0.71	0.750			
0.1811	11589.69	4.0340	4.0340	0.8758	25.38	0.71	0.750			
0.1837	11758.52	4.0310	4.0310	0.8820	25.38	0.71	0.750			
0.1864	11927.75	4.0280	4.0280	0.8790	25.38	0.71	0.750			
0.1890	12096.12	4.0250	4.0251	0.8828	25.39	0.72	0.750			
0.1917	12266.00	4.0220	4.0220	0.8877	25.39	0.72	0.750			
0.1943	12436.13	4.0190	4.0187	0.8888	25.39	0.72	0.750			
0.1970	12606.40	4.0160	4.0162	0.8912	25.39	0.72	0.750			
0.1996	12777.01	4.0130	4.0131	0.8866	25.39	0.72	0.750			
0.2023	12947.77	4.0100	4.0100	0.8931	25.40	0.73	0.750			
0.2050	13118.19	4.0070	4.0071	0.8938	25.40	0.73	0.750			
0.2076	13289.22	4.0040	4.0036	0.9007	25.40	0.73	0.750			
0.2104	13464.06	4.0010	4.0011	0.9071	25.40	0.73	0.750			
0.2131	13640.13	3.9980	3.9980	0.9151	25.40	0.73	0.750			
0.2159	13818.32	3.9950	3.9951	0.9244	25.40	0.73	0.750			
0.2187	13994.89	3.9920	3.9920	0.9176	25.40	0.73	0.750			
0.2215	14173.56	3.9890	3.9889	0.9215	25.40	0.73	0.750			
0.2242	14351.30	3.9860	3.9860	0.9218	25.41	0.74	0.750			
0.2270	14527.73	3.9830	3.9831	0.9207	25.42	0.75	0.750			
0.2297	14703.86	3.9800	3.9801	0.9220	25.42	0.75	0.750			
0.2325	14880.34	3.9770	3.9771	0.9222	25.43	0.76	0.750			
0.2353	15061.20	3.9740	3.9739	0.9068	25.43	0.76	0.750			
0.2380	15233.48	3.9710	3.9710	0.9145	25.43	0.76	0.750			
0.2407	15405.82	3.9680	3.9682	0.9253	25.43	0.76	0.750			
0.2435	15583.94	3.9650	3.9651	0.9332	25.43	0.76	0.750			
0.2463	15764.57	3.9620	3.9621	0.9403	25.43	0.76	0.750			
0.2491	15945.26	3.9590	3.9591	0.9473	25.44	0.77	0.750			
0.2520	16130.16	3.9560	3.9561	0.9583	25.44	0.77	0.750			
0.2550	16320.16	3.9530	3.9530	0.9680	25.45	0.78	0.750			
0.2578	16501.72	3.9500	3.9500	0.9552	25.45	0.78	0.750			
0.2607	16684.90	3.9470	3.9470	0.9498	25.45	0.78	0.750			
0.2636	16867.44	3.9440	3.9440	0.9523	25.45	0.78	0.750			
0.2664	17048.69	3.9410	3.9411	0.9585	25.45	0.78	0.750			
0.2692	17231.68	3.9380	3.9378	0.9618	25.45	0.78	0.750			
0.2722	17418.17	3.9350	3.9350	0.9635	25.45	0.78	0.750			
0.2750	17603.19	3.9320	3.9321	0.9560	25.45	0.78	0.750			
0.2779	17784.36	3.9290	3.9292	0.9696	25.46	0.79	0.750			
0.2808	17971.78	3.9260	3.9261	0.9757	25.46	0.79	0.750			
0.2837	18157.39	3.9230	3.9231	0.9740	25.46	0.79	0.750			
0.2866	18344.84	3.9200	3.9202	0.9810	25.46	0.79	0.750			
0.2896	18536.37	3.9170	3.9171	0.9913	25.47	0.80	0.750			
0.2926	18729.40	3.9140	3.9140	0.9958	25.47	0.80	0.750			
0.2956	18919.57	3.9110	3.9110	0.9846	25.47	0.80	0.750			
0.2986	19108.16	3.9080	3.9081	0.9913	25.47	0.80	0.750			
0.3016	19299.75	3.9050	3.9050	1.0001	25.47	0.80	0.750			
0.3046	19491.54	3.9020	3.9021	1.0077	25.47	0.80	0.750			
0.3076	19685.06	3.8990	3.8989	1.0113	25.47	0.80	0.750			
0.3106	19880.13	3.8960	3.8960	1.0119	25.47	0.80	0.750			
0.3137	20074.83	3.8930	3.8931	1.0227	25.47	0.80	0.750			
0.3167	20271.89	3.8900	3.8901	1.0306	25.47	0.80	0.750			
0.3199	20470.82	3.8870	3.8871	1.0305	25.47	0.80	0.750			
0.3230	20669.05	3.8840	3.8840	1.0348	25.47	0.80	0.750			
0.3261	20868.23	3.8810	3.8811	1.0414	25.47	0.80	0.750			
0.3292	21070.09	3.8780	3.8780	1.0509	25.47	0.80	0.750			
0.3324	21270.85	3.8750	3.8750	1.0498	25.47	0.80	0.750			
0.3355	21473.11	3.8720	3.8720	1.0445	25.47	0.80	0.750			
0.3386	21672.43	3.8690	3.8690	1.0527	25.47	0.80	0.750			
0.3418	21875.44	3.8660	3.8661	1.0608	25.47	0.80	0.750			
0.3450	22078.82	3.8630	3.8630	1.0722	25.47	0.80	0.750			
0.3482	22282.97	3.8600	3.8601	1.0656	25.47	0.80	0.750			
0.3514	22486.92	3.8570	3.8571	1.0797	25.47	0.80	0.750			
0.3546	22695.41	3.8540	3.8541	1.0956	25.47	0.80	0.750			
0.3580	22909.33	3.8510	3.8507	1.1094	25.47	0.80	0.750			
0.3612	23119.00	3.8480	3.8482	1.1108	25.47	0.80	0.750			
0.3646	23335.71	3.8450	3.8451	1.1240	25.46	0.79	0.750			
0.3681	23555.73	3.8420	3.8420	1.1338	25.46	0.79	0.750			
0.3714	23771.95	3.8390	3.8390	1.1316	25.46	0.79	0.750			
0.3748	23989.87	3.8360	3.8360	1.1427	25.45	0.78	0.750			
0.3783	24210.78	3.8330	3.8329	1.1548	25.44	0.77	0.750	0.311	0.424	
0.3818	24435.34	3.8300	3.8298	1.1629	25.43	0.76	0.750			
0.3853	24659.37	3.8270	3.8271	1.1756	25.43	0.76	0.750			
0.3888	24885.74	3.8240	3.8240	1.1840	25.42	0.75	0.750			
0.3924	25114.64	3.8210	3.8211	1.1911	25.42	0.75	0.750			
0.3960	25343.25	3.8180	3.8181	1.1926	25.42	0.75	0.750			
0.3996	25574.32	3.8150	3.8151	1.2014	25.40	0.73	0.750			
0.4032	25806.43	3.8120	3.8120	1.2063	25.39	0.72	0.750			
0.4069	26040.30	3.8090	3.8090	1.1997	25.38	0.71	0.750			
0.4104	26268.73	3.8060	3.8060	1.2072	25.37	0.70	0.750			
0.4141	26500.62	3.8030	3.8031	1.2181	25.37	0.70	0.750			
0.4177	26734.52	3.8000	3.8000	1.2297	25.36	0.69	0.750			
0.4214	26972.62	3.7970	3.7971	1.2218	25.35	0.68	0.750			
0.4251	27204.68	3.7940	3.7941	1.2371	25.34	0.67	0.750			
0.4288	27442.06	3.7910	3.7912	1.2550	25.33	0.66	0.750			
0.4326	27685.33	3.7880	3.7874	1.2687	25.32	0.65	0.750			
0.4364	27927.13	3.7850	3.7852	1.2783	25.30	0.63	0.750			
0.4403	28176.81	3.7820	3.7821	1.2916	25.29	0.62	0.750			
0.4443	28433.02	3.7790	3.7788	1.2955	25.27	0.60	0.750			
0.4481	28677.00	3.7760	3.7761	1.2978	25.26	0.59	0.750			
0.4520	28927.08	3.7730	3.7731	1.3156	25.24	0.57	0.750			
0.4560	29185.24	3.7700	3.7698	1.3097	25.22	0.55	0.750			
0.4599	29432.48	3.7670	3.7671	1.3474	25.21	0.54	0.750			
0.4639	29688.33	3.7640	3.7642	1.3747	25.20	0.53	0.750			
0.4681	29958.25	3.7610	3.7609	1.3931	25.18	0.51	0.750			
0.4723	30228.41	3.7580	3.7581	1.4409	25.17	0.50	0.750			
0.4766	30504.90	3.7550	3.7552	1.4671	25.16	0.49	0.750			
0.4812	30797.76	3.7520	3.7519	1.4890	25.14	0.47	0.750			
0.4858	31091.74	3.7490	3.7491	1.5028	25.12	0.45	0.750			
0.4902	31373.06	3.7460	3.7462	1.5584	25.10	0.43	0.750			
0.4950	31682.16	3.7430	3.7432	1.5625	25.08	0.41	0.750			
0.4996	31977.06	3.7400	3.7402	1.6357	25.06	0.39	0.750			
0.5045	32287.21	3.7370	3.7372	1.6799	25.05	0.38	0.750			
0.5097	32619.31	3.7340	3.7340	1.7385	25.03	0.36	0.750			
0.5151	32967.40	3.7310	3.7311	1.7910	25.01	0.34	0.750			
0.5206	33319.63	3.7280	3.7278	1.8375	24.99	0.32	0.750			
0.5263	33683.47	3.7250	3.7246	1.9062	24.96	0.29	0.750			
0.5319	34038.52	3.7220	3.7220	1.9240	24.94	0.27	0.750			
0.5377	34414.42	3.7190	3.7190	2.0189	24.91	0.24	0.750			
0.5440	34813.43	3.7160	3.7158	2.0835	24.88	0.21	0.750			
0.5503	35216.68	3.7130	3.7128	2.1581	24.86	0.19	0.750			
0.5569	35644.47	3.7100	3.7101	2.2056	24.84	0.17	0.750			
0.5635	36065.22	3.7070	3.7067	2.2886	24.82	0.15	0.750			
0.5705	36513.93	3.7040	3.7040	2.3178	24.81	0.14	0.750			
0.5775	36959.81	3.7010	3.7011	2.3358	24.78	0.11	0.750			
0.5846	37413.12	3.6980	3.6981	2.3826	24.76	0.09	0.750			
0.5915	37855.91	3.6950	3.6943	2.5485	24.75	0.08	0.750			
0.5997	38379.31	3.6920	3.6918	2.7797	24.72	0.05	0.750			
0.6083	38930.90	3.6890	3.6889	2.8776	24.70	0.03	0.750			
0.6173	39506.59	3.6860	3.6860	2.8995	24.68	0.01	0.750			
0.6258	40048.09	3.6830	3.6829	2.8791	24.66	-0.01	0.750			
0.6343	40592.64	3.6800	3.6801	2.9027	24.63	-0.04	0.750			
0.6431	41158.39	3.6770	3.6772	2.9896	24.60	-0.07	0.750			
0.6521	41735.62	3.6740	3.6741	2.9741	24.59	-0.08	0.750			
0.6610	42302.01	3.6710	3.6712	2.9877	24.57	-0.10	0.750			
0.6701	42885.39	3.6680	3.6682	2.9668	24.56	-0.11	0.750			
0.6792	43469.93	3.6650	3.6651	2.8613	24.56	-0.11	0.750			
0.6878	44017.54	3.6620	3.6620	2.7327	24.56	-0.11	0.750			
0.6955	44514.51	3.6590	3.6585	2.5583	24.56	-0.11	0.750			
0.7029	44987.54	3.6560	3.6561	2.4329	24.56	-0.11	0.750			
0.7102	45453.64	3.6530	3.6534	2.2578	24.57	-0.10	0.750			
0.7169	45883.84	3.6500	3.6504	2.0299	24.58	-0.09	0.750			
0.7227	46253.26	3.6470	3.6471	1.7769	24.60	-0.07	0.750			
0.7277	46572.81	3.6440	3.6443	1.5517	24.60	-0.07	0.750			
0.7320	46848.15	3.6410	3.6406	1.3421	24.61	-0.06	0.750			
0.7356	47077.38	3.6380	3.6381	1.1412	24.62	-0.05	0.750			
0.7386	47270.56	3.6350	3.6349	0.9917	24.63	-0.04	0.750			
0.7411	47432.86	3.6320	3.6319	0.8388	24.63	-0.04	0.750			
0.7433	47569.73	3.6290	3.6291	0.7362	24.64	-0.03	0.750			
0.7453	47698.64	3.6260	3.6263	0.6835	24.64	-0.03	0.750			
0.7472	47819.56	3.6230	3.6236	0.6414	24.65	-0.02	0.750			
0.7491	47939.72	3.6200	3.6207	0.6110	24.65	-0.02	0.750			
0.7509	48057.23	3.6170	3.6174	0.5740	24.66	-0.01	0.750			
0.7526	48167.89	3.6140	3.6143	0.5306	24.66	-0.01	0.750			
0.7543	48273.82	3.6110	3.6109	0.4757	24.66	-0.01	0.750			
0.7556	48355.87	3.6080	3.6081	0.3915	24.67	-0.00	0.750			
0.7567	48427.08	3.6050	3.6049	0.3291	24.67	-0.00	0.750			
0.7576	48484.02	3.6020	3.6021	0.2599	24.67	0.00	0.750			
0.7582	48527.41	3.5990	3.5991	0.1887	24.67	0.00	0.750			
0.7587	48556.79	3.5960	3.5962	0.1243	24.67	0.00	0.750			
