Ah_balance (normalized)	Ah_balance (mAh)	Voltage - fit (V)	Voltage -  interpolate (V)	dQ/dV (1/V)	Temperature (°C)	Temperature - diff (°C)	Current (C)	R_DC 0ms (mOhm)	R_DC 50ms (mOhm)	R_DC 50 ms PEC (mOhm)
0.0464	2967.25	4.1990	4.1990	0.7965	25.27	0.39	0.750			
0.0488	3120.62	4.1960	4.1959	0.7864	25.27	0.39	0.750			
0.0510	3261.87	4.1930	4.1931	0.7601	25.27	0.39	0.750			
0.0532	3407.30	4.1900	4.1901	0.7617	25.27	0.39	0.750			
0.0555	3553.23	4.1870	4.1865	0.7609	25.27	0.39	0.750			
0.0578	3698.89	4.1840	4.1842	0.7639	25.27	0.39	0.750			
0.0601	3846.71	4.1810	4.1811	0.7646	25.27	0.39	0.750			
0.0624	3994.62	4.1780	4.1780	0.7664	25.27	0.39	0.750			
0.0647	4143.48	4.1750	4.1750	0.7717	25.27	0.39	0.750			
0.0670	4288.35	4.1720	4.1720	0.7656	25.27	0.39	0.750			
0.0693	4435.73	4.1690	4.1691	0.7686	25.27	0.39	0.750			
0.0716	4583.68	4.1660	4.1660	0.7723	25.27	0.39	0.750			
0.0739	4732.24	4.1630	4.1630	0.7682	25.27	0.39	0.750			
0.0762	4879.79	4.1600	4.1600	0.7699	25.27	0.39	0.750			
0.0785	5026.42	4.1570	4.1571	0.7725	25.27	0.39	0.750			
0.0809	5174.69	4.1540	4.1536	0.7744	25.27	0.39	0.750			
0.0832	5323.77	4.1510	4.1510	0.7788	25.27	0.39	0.750			
0.0856	5477.27	4.1480	4.1480	0.7642	25.27	0.39	0.750			
0.0879	5622.65	4.1450	4.1451	0.7735	25.27	0.39	0.750			
0.0901	5768.71	4.1420	4.1421	0.7740	25.27	0.39	0.750			
0.0925	5917.37	4.1390	4.1391	0.7807	25.27	0.39	0.750			
0.0948	6066.06	4.1360	4.1361	0.7846	25.27	0.39	0.750			
0.0972	6218.95	4.1330	4.1332	0.7899	25.27	0.39	0.750			
0.0996	6372.66	4.1300	4.1301	0.7977	25.27	0.39	0.750			
0.1020	6528.80	4.1270	4.1270	0.8012	25.28	0.40	0.750			
0.1044	6681.34	4.1240	4.1241	0.7897	25.28	0.40	0.750			
0.1068	6834.21	4.1210	4.1209	0.7894	25.28	0.40	0.750			
0.1091	6985.33	4.1180	4.1181	0.7910	25.28	0.40	0.750			
0.1115	7136.91	4.1150	4.1150	0.7913	25.28	0.40	0.750			
0.1139	7287.45	4.1120	4.1120	0.7960	25.28	0.40	0.750			
0.1163	7440.09	4.1090	4.1090	0.7975	25.28	0.40	0.750			
0.1187	7594.34	4.1060	4.1060	0.8034	25.28	0.40	0.750			
0.1211	7750.06	4.1030	4.1030	0.8060	25.28	0.40	0.750			
0.1236	7909.55	4.1000	4.1000	0.7913	25.28	0.40	0.750			
0.1259	8056.13	4.0970	4.0971	0.7995	25.28	0.40	0.750			
0.1283	8208.51	4.0940	4.0941	0.8021	25.28	0.40	0.750			
0.1307	8361.91	4.0910	4.0905	0.8083	25.28	0.40	0.750			
0.1331	8518.37	4.0880	4.0882	0.8164	25.28	0.40	0.750			
0.1356	8678.22	4.0850	4.0851	0.8145	25.28	0.40	0.750			
0.1381	8836.57	4.0820	4.0821	0.8128	25.29	0.41	0.750			
0.1405	8992.52	4.0790	4.0791	0.8063	25.29	0.41	0.750			
0.1429	9146.78	4.0760	4.0760	0.8080	25.29	0.41	0.750			
0.1453	9300.55	4.0730	4.0729	0.8092	25.29	0.41	0.750			
0.1478	9456.96	4.0700	4.0700	0.8083	25.29	0.41	0.750			
0.1502	9612.13	4.0670	4.0671	0.8202	25.30	0.42	0.750			
0.1527	9771.57	4.0640	4.0641	0.8278	25.30	0.42	0.750			
0.1552	9930.51	4.0610	4.0608	0.8324	25.30	0.42	0.750			
0.1577	10090.40	4.0580	4.0580	0.8351	25.30	0.42	0.750			
0.1602	10252.22	4.0550	4.0551	0.8362	25.30	0.42	0.750			
0.1627	10409.70	4.0520	4.0522	0.8283	25.31	0.43	0.750			
0.1651	10567.79	4.0490	4.0491	0.8340	25.31	0.43	0.750			
0.1676	10724.96	4.0460	4.0462	0.8384	25.31	0.43	0.750			
0.1701	10885.26	4.0430	4.0432	0.8472	25.31	0.43	0.750			
0.1727	11049.70	4.0400	4.0402	0.8504	25.31	0.43	0.750			
0.1753	11217.82	4.0370	4.0371	0.8618	25.32	0.44	0.750			
0.1779	11388.48	4.0340	4.0340	0.8706	25.32	0.44	0.750			
0.1805	11549.80	4.0310	4.0308	0.8549	25.32	0.44	0.750			
0.1830	11714.30	4.0280	4.0281	0.8599	25.32	0.44	0.750			
0.1856	11881.21	4.0250	4.0250	0.8516	25.32	0.44	0.750			
0.1882	12042.87	4.0220	4.0221	0.8608	25.32	0.44	0.750			
0.1907	12206.82	4.0190	4.0191	0.8642	25.32	0.44	0.750			
0.1933	12373.79	4.0160	4.0154	0.8673	25.32	0.44	0.750			
0.1959	12540.75	4.0130	4.0132	0.8716	25.33	0.45	0.750			
0.1986	12710.02	4.0100	4.0101	0.8635	25.33	0.45	0.750			
0.2012	12875.12	4.0070	4.0071	0.8759	25.34	0.46	0.750			
0.2038	13041.05	4.0040	4.0041	0.8720	25.34	0.46	0.750			
0.2064	13208.98	4.0010	4.0004	0.8817	25.35	0.47	0.750			
0.2091	13379.22	3.9980	3.9982	0.8918	25.35	0.47	0.750			
0.2118	13554.57	3.9950	3.9951	0.8961	25.35	0.47	0.750			
0.2145	13730.32	3.9920	3.9921	0.9061	25.35	0.47	0.750			
0.2172	13902.02	3.9890	3.9890	0.8906	25.35	0.47	0.750			
0.2199	14074.05	3.9860	3.9860	0.8922	25.35	0.47	0.750			
0.2226	14244.48	3.9830	3.9830	0.8926	25.36	0.48	0.750			
0.2252	14414.89	3.9800	3.9800	0.8954	25.36	0.48	0.750			
0.2279	14587.83	3.9770	3.9770	0.9014	25.37	0.49	0.750			
0.2307	14761.80	3.9740	3.9736	0.9075	25.37	0.49	0.750			
0.2334	14940.26	3.9710	3.9710	0.8971	25.37	0.49	0.750			
0.2361	15111.26	3.9680	3.9681	0.9046	25.37	0.49	0.750			
0.2388	15283.86	3.9650	3.9650	0.9074	25.38	0.50	0.750			
0.2415	15456.78	3.9620	3.9621	0.9117	25.38	0.50	0.750			
0.2442	15628.84	3.9590	3.9588	0.9130	25.38	0.50	0.750			
0.2470	15805.86	3.9560	3.9561	0.9184	25.38	0.50	0.750			
0.2498	15985.07	3.9530	3.9531	0.9305	25.38	0.50	0.750			
0.2526	16167.43	3.9500	3.9500	0.9322	25.38	0.50	0.750			
0.2554	16344.94	3.9470	3.9471	0.9257	25.38	0.50	0.750			
0.2582	16524.70	3.9440	3.9439	0.9225	25.38	0.50	0.750			
0.2610	16700.90	3.9410	3.9409	0.9231	25.39	0.51	0.750			
0.2637	16876.88	3.9380	3.9380	0.9226	25.39	0.51	0.750			
0.2665	17053.24	3.9350	3.9351	0.9269	25.40	0.52	0.750			
0.2692	17230.54	3.9320	3.9320	0.9297	25.40	0.52	0.750			
0.2721	17416.45	3.9290	3.9289	0.9116	25.41	0.53	0.750			
0.2748	17586.14	3.9260	3.9261	0.9281	25.41	0.53	0.750			
0.2776	17765.01	3.9230	3.9232	0.9357	25.41	0.53	0.750			
0.2804	17943.67	3.9200	3.9200	0.9385	25.42	0.54	0.750			
0.2832	18125.69	3.9170	3.9172	0.9452	25.42	0.54	0.750			
0.2861	18307.64	3.9140	3.9142	0.9483	25.42	0.54	0.750			
0.2889	18492.61	3.9110	3.9110	0.9541	25.43	0.55	0.750			
0.2918	18676.91	3.9080	3.9081	0.9455	25.43	0.55	0.750			
0.2947	18859.52	3.9050	3.9050	0.9488	25.43	0.55	0.750			
0.2975	19043.03	3.9020	3.9020	0.9480	25.43	0.55	0.750			
0.3004	19223.35	3.8990	3.8991	0.9515	25.43	0.55	0.750			
0.3032	19406.30	3.8960	3.8961	0.9566	25.43	0.55	0.750			
0.3061	19589.85	3.8930	3.8931	0.9574	25.43	0.55	0.750			
0.3090	19773.51	3.8900	3.8900	0.9617	25.43	0.55	0.750			
0.3118	19955.22	3.8870	3.8871	0.9540	25.43	0.55	0.750			
0.3147	20138.21	3.8840	3.8841	0.9643	25.43	0.55	0.750			
0.3175	20322.21	3.8810	3.8812	0.9656	25.43	0.55	0.750			
0.3205	20509.19	3.8780	3.8782	0.9706	25.43	0.55	0.750			
0.3234	20696.92	3.8750	3.8751	0.9793	25.43	0.55	0.750			
0.3264	20887.77	3.8720	3.8721	0.9872	25.43	0.55	0.750			
0.3294	21083.98	3.8690	3.8689	0.9991	25.43	0.55	0.750			
0.3323	21267.73	3.8660	3.8660	0.9732	25.43	0.55	0.750			
0.3352	21453.35	3.8630	3.8631	0.9784	25.42	0.54	0.750			
0.3381	21641.51	3.8600	3.8601	0.9850	25.42	0.54	0.750			
0.3411	21831.23	3.8570	3.8570	0.9936	25.41	0.53	0.750			
0.3441	22020.97	3.8540	3.8539	0.9967	25.41	0.53	0.750			
0.3471	22215.79	3.8510	3.8510	0.9837	25.40	0.52	0.750			
0.3500	22402.38	3.8480	3.8481	1.0003	25.40	0.52	0.750			
0.3530	22593.74	3.8450	3.8452	1.0076	25.39	0.51	0.750			
0.3561	22790.58	3.8420	3.8410	0.9874	25.39	0.51	0.750			
0.3590	22976.71	3.8390	3.8393	1.0118	25.39	0.51	0.750			
0.3621	23171.84	3.8360	3.8363	1.0292	25.38	0.50	0.750			
0.3652	23375.72	3.8330	3.8331	1.0466	25.38	0.50	0.750	0.334	0.418	
0.3684	23576.00	3.8300	3.8302	1.0391	25.37	0.49	0.750			
0.3716	23779.56	3.8270	3.8271	1.0300	25.36	0.48	0.750			
0.3747	23979.74	3.8240	3.8241	1.0446	25.36	0.48	0.750			
0.3778	24177.73	3.8210	3.8211	1.0570	25.35	0.47	0.750			
0.3809	24374.86	3.8180	3.8172	1.0594	25.35	0.47	0.750			
0.3840	24577.42	3.8150	3.8151	1.0859	25.34	0.46	0.750			
0.3874	24791.39	3.8120	3.8109	1.1122	25.32	0.44	0.750			
0.3909	25014.69	3.8090	3.8095	1.1295	25.31	0.43	0.750			
0.3943	25234.80	3.8060	3.8059	1.1225	25.30	0.42	0.750			
0.3977	25452.14	3.8030	3.8031	1.1185	25.29	0.41	0.750			
0.4009	25659.09	3.8000	3.8000	1.0933	25.28	0.40	0.750			
0.4042	25871.43	3.7970	3.7970	1.1058	25.27	0.39	0.750			
0.4075	26083.09	3.7940	3.7940	1.1021	25.26	0.38	0.750			
0.4109	26294.59	3.7910	3.7910	1.1211	25.25	0.37	0.750			
0.4142	26511.13	3.7880	3.7880	1.1333	25.24	0.36	0.750			
0.4177	26733.13	3.7850	3.7849	1.1413	25.22	0.34	0.750			
0.4211	26951.83	3.7820	3.7820	1.1543	25.21	0.33	0.750			
0.4246	27173.17	3.7790	3.7791	1.1814	25.21	0.33	0.750			
0.4281	27400.19	3.7760	3.7761	1.2033	25.20	0.32	0.750			
0.4318	27633.21	3.7730	3.7727	1.2235	25.19	0.31	0.750			
0.4355	27869.38	3.7700	3.7701	1.2474	25.18	0.30	0.750			
0.4393	28113.52	3.7670	3.7671	1.2800	25.17	0.29	0.750			
0.4432	28362.76	3.7640	3.7639	1.3006	25.16	0.28	0.750			
0.4471	28611.31	3.7610	3.7610	1.3264	25.15	0.27	0.750			
0.4511	28867.82	3.7580	3.7581	1.3588	25.14	0.26	0.750			
0.4553	29139.19	3.7550	3.7547	1.3593	25.12	0.24	0.750			
0.4593	29395.08	3.7520	3.7521	1.4026	25.11	0.23	0.750			
0.4636	29671.09	3.7490	3.7492	1.4170	25.10	0.22	0.750			
0.4678	29938.70	3.7460	3.7459	1.4773	25.08	0.20	0.750			
0.4722	30223.05	3.7430	3.7432	1.5213	25.07	0.19	0.750			
0.4769	30524.05	3.7400	3.7398	1.5680	25.05	0.17	0.750			
0.4818	30836.86	3.7370	3.7370	1.6185	25.04	0.16	0.750			
0.4867	31149.73	3.7340	3.7341	1.6810	25.02	0.14	0.750			
0.4918	31472.86	3.7310	3.7311	1.6967	25.01	0.13	0.750			
0.4970	31810.70	3.7280	3.7281	1.7535	24.99	0.11	0.750			
0.5023	32144.08	3.7250	3.7251	1.7885	24.97	0.09	0.750			
0.5077	32495.65	3.7220	3.7221	1.8367	24.95	0.07	0.750			
0.5133	32854.20	3.7190	3.7191	1.9085	24.94	0.06	0.750			
0.5191	33222.86	3.7160	3.7160	1.9598	24.92	0.04	0.750			
0.5251	33605.48	3.7130	3.7129	2.0317	24.90	0.02	0.750			
0.5312	33995.75	3.7100	3.7103	2.0786	24.89	0.01	0.750			
0.5376	34404.11	3.7070	3.7072	2.1379	24.87	-0.01	0.750			
0.5441	34824.18	3.7040	3.7040	2.1725	24.86	-0.02	0.750			
0.5507	35244.71	3.7010	3.7009	2.2145	24.84	-0.04	0.750			
0.5573	35668.14	3.6980	3.6982	2.2780	24.82	-0.06	0.750			
0.5643	36114.90	3.6950	3.6949	2.3237	24.80	-0.08	0.750			
0.5714	36571.61	3.6920	3.6923	2.4008	24.79	-0.09	0.750			
0.5787	37038.87	3.6890	3.6892	2.5236	24.77	-0.11	0.750			
0.5865	37533.04	3.6860	3.6863	2.5708	24.76	-0.12	0.750			
0.5943	38033.15	3.6830	3.6833	2.6568	24.75	-0.13	0.750			
0.6023	38546.65	3.6800	3.6800	2.6822	24.74	-0.14	0.750			
0.6103	39061.18	3.6770	3.6771	2.7251	24.73	-0.15	0.750			
0.6189	39610.19	3.6740	3.6736	2.7854	24.72	-0.16	0.750			
0.6273	40146.41	3.6710	3.6708	2.8138	24.71	-0.17	0.750			
0.6359	40695.80	3.6680	3.6678	2.8664	24.71	-0.17	0.750			
0.6446	41251.59	3.6650	3.6648	2.7499	24.71	-0.17	0.750			
0.6528	41776.56	3.6620	3.6620	2.6097	24.72	-0.16	0.750			
0.6601	42249.13	3.6590	3.6585	2.3484	24.73	-0.15	0.750			
0.6669	42678.80	3.6560	3.6559	2.1298	24.74	-0.14	0.750			
0.6729	43064.56	3.6530	3.6531	1.9396	24.75	-0.13	0.750			
0.6784	43416.78	3.6500	3.6501	1.7333	24.76	-0.12	0.750			
0.6833	43730.07	3.6470	3.6472	1.5592	24.76	-0.12	0.750			
0.6877	44014.38	3.6440	3.6441	1.4098	24.77	-0.11	0.750			
0.6917	44269.55	3.6410	3.6410	1.2746	24.78	-0.10	0.750			
0.6952	44494.26	3.6380	3.6381	1.1552	24.78	-0.10	0.750			
0.6983	44694.23	3.6350	3.6351	1.0518	24.79	-0.09	0.750			
0.7013	44883.57	3.6320	3.6320	0.9953	24.79	-0.09	0.750			
0.7042	45067.17	3.6290	3.6290	0.9516	24.80	-0.08	0.750			
0.7069	45240.77	3.6260	3.6260	0.9126	24.80	-0.08	0.750			
0.7096	45415.19	3.6230	3.6230	0.8821	24.81	-0.07	0.750			
0.7122	45583.27	3.6200	3.6201	0.8631	24.82	-0.06	0.750			
0.7148	45748.29	3.6170	3.6170	0.8355	24.83	-0.05	0.750			
0.7173	45909.38	3.6140	3.6140	0.7947	24.84	-0.04	0.750			
0.7197	46060.19	3.6110	3.6111	0.7470	24.84	-0.04	0.750			
0.7219	46201.76	3.6080	3.6081	0.6913	24.85	-0.03	0.750			
0.7239	46330.33	3.6050	3.6051	0.6210	24.86	-0.02	0.750			
0.7257	46443.95	3.6020	3.6019	0.5444	24.86	-0.02	0.750			
0.7272	46540.41	3.5990	3.5990	0.4734	24.87	-0.01	0.750			
0.7285	46621.90	3.5960	3.5960	0.4074	24.87	-0.01	0.750			
0.7296	46693.28	3.5930	3.5930	0.3474	24.88	-0.00	0.750			
0.7305	46753.97	3.5900	3.5901	0.2893	24.88	-0.00	0.750			
0.7313	46804.03	3.5870	3.5871	0.2346	24.88	0.00	0.750			
0.7319	46843.98	3.5840	3.5843	0.1806	24.88	0.00	0.750			
0.7324	46873.20	3.5810	3.5818	0.1277	24.88	0.00	0.750			
0.7327	46892.59	3.5780	3.5783	0.0718	24.89	0.01	0.750			
