Ah_balance (normalized)	Ah_balance (mAh)	Voltage - fit (V)	Voltage -  interpolate (V)	dQ/dV (1/V)	Temperature (°C)	Temperature - diff (°C)	Current (C)	R_DC 0ms (mOhm)	R_DC 50ms (mOhm)	R_DC 50 ms PEC (mOhm)
0.0471	3017.54	4.1980	4.1980	0.7191	25.34	0.56	0.750			
0.0493	3156.87	4.1950	4.1950	0.7331	25.34	0.56	0.750			
0.0516	3300.83	4.1920	4.1919	0.7481	25.34	0.56	0.750			
0.0538	3445.93	4.1890	4.1890	0.7540	25.34	0.56	0.750			
0.0561	3593.22	4.1860	4.1860	0.7548	25.34	0.56	0.750			
0.0584	3737.97	4.1830	4.1831	0.7601	25.34	0.56	0.750			
0.0607	3884.52	4.1800	4.1800	0.7646	25.35	0.57	0.750			
0.0630	4029.63	4.1770	4.1771	0.7657	25.35	0.57	0.750			
0.0653	4176.44	4.1740	4.1738	0.7681	25.35	0.57	0.750			
0.0676	4325.70	4.1710	4.1711	0.7709	25.35	0.57	0.750			
0.0699	4474.72	4.1680	4.1681	0.7760	25.35	0.57	0.750			
0.0722	4621.39	4.1650	4.1651	0.7668	25.35	0.57	0.750			
0.0745	4766.97	4.1620	4.1621	0.7674	25.35	0.57	0.750			
0.0768	4913.25	4.1590	4.1588	0.7684	25.35	0.57	0.750			
0.0791	5061.20	4.1560	4.1561	0.7732	25.35	0.57	0.750			
0.0814	5211.72	4.1530	4.1532	0.7749	25.35	0.57	0.750			
0.0838	5362.01	4.1500	4.1500	0.7767	25.36	0.58	0.750			
0.0862	5515.64	4.1470	4.1469	0.7880	25.36	0.58	0.750			
0.0884	5659.76	4.1440	4.1440	0.7722	25.36	0.58	0.750			
0.0907	5807.32	4.1410	4.1411	0.7758	25.36	0.58	0.750			
0.0931	5957.16	4.1380	4.1380	0.7810	25.36	0.58	0.750			
0.0954	6107.12	4.1350	4.1350	0.7813	25.36	0.58	0.750			
0.0978	6257.65	4.1320	4.1320	0.7841	25.36	0.58	0.750			
0.1001	6408.81	4.1290	4.1290	0.7845	25.36	0.58	0.750			
0.1025	6559.46	4.1260	4.1257	0.7848	25.36	0.58	0.750			
0.1048	6709.81	4.1230	4.1231	0.7885	25.36	0.58	0.750			
0.1072	6862.98	4.1200	4.1200	0.7800	25.36	0.58	0.750			
0.1096	7012.46	4.1170	4.1170	0.7856	25.36	0.58	0.750			
0.1119	7161.26	4.1140	4.1141	0.7869	25.36	0.58	0.750			
0.1143	7312.99	4.1110	4.1112	0.7912	25.36	0.58	0.750			
0.1166	7465.14	4.1080	4.1081	0.7971	25.36	0.58	0.750			
0.1191	7620.96	4.1050	4.1051	0.7955	25.36	0.58	0.750			
0.1214	7772.70	4.1020	4.1021	0.8009	25.37	0.59	0.750			
0.1239	7929.73	4.0990	4.0990	0.8094	25.37	0.59	0.750			
0.1263	8080.95	4.0960	4.0961	0.8050	25.37	0.59	0.750			
0.1287	8236.28	4.0930	4.0930	0.8082	25.37	0.59	0.750			
0.1312	8394.66	4.0900	4.0900	0.8105	25.37	0.59	0.750			
0.1336	8549.95	4.0870	4.0871	0.8103	25.37	0.59	0.750			
0.1361	8707.54	4.0840	4.0840	0.8159	25.37	0.59	0.750			
0.1384	8860.80	4.0810	4.0811	0.8106	25.37	0.59	0.750			
0.1409	9016.02	4.0780	4.0781	0.8138	25.37	0.59	0.750			
0.1433	9173.03	4.0750	4.0750	0.8149	25.37	0.59	0.750			
0.1458	9329.44	4.0720	4.0720	0.8086	25.37	0.59	0.750			
0.1482	9482.33	4.0690	4.0693	0.8130	25.37	0.59	0.750			
0.1506	9637.27	4.0660	4.0661	0.8188	25.37	0.59	0.750			
0.1530	9794.96	4.0630	4.0627	0.8265	25.37	0.59	0.750			
0.1555	9955.10	4.0600	4.0602	0.8248	25.37	0.59	0.750			
0.1580	10114.62	4.0570	4.0572	0.8333	25.37	0.59	0.750			
0.1606	10279.86	4.0540	4.0540	0.8439	25.37	0.59	0.750			
0.1631	10439.74	4.0510	4.0510	0.8327	25.37	0.59	0.750			
0.1656	10598.85	4.0480	4.0481	0.8384	25.37	0.59	0.750			
0.1681	10761.31	4.0450	4.0450	0.8428	25.37	0.59	0.750			
0.1707	10924.12	4.0420	4.0420	0.8503	25.37	0.59	0.750			
0.1733	11088.68	4.0390	4.0390	0.8530	25.37	0.59	0.750			
0.1758	11252.76	4.0360	4.0360	0.8534	25.37	0.59	0.750			
0.1784	11416.34	4.0330	4.0331	0.8544	25.37	0.59	0.750			
0.1809	11580.45	4.0300	4.0300	0.8588	25.37	0.59	0.750			
0.1835	11742.35	4.0270	4.0270	0.8527	25.37	0.59	0.750			
0.1860	11906.61	4.0240	4.0241	0.8567	25.38	0.60	0.750			
0.1886	12070.58	4.0210	4.0211	0.8597	25.38	0.60	0.750			
0.1912	12236.88	4.0180	4.0182	0.8651	25.38	0.60	0.750			
0.1938	12404.00	4.0150	4.0152	0.8643	25.38	0.60	0.750			
0.1964	12571.02	4.0120	4.0120	0.8731	25.37	0.59	0.750			
0.1991	12741.29	4.0090	4.0090	0.8798	25.37	0.59	0.750			
0.2017	12906.87	4.0060	4.0059	0.8721	25.37	0.59	0.750			
0.2043	13075.87	4.0030	4.0031	0.8824	25.37	0.59	0.750			
0.2070	13245.83	4.0000	4.0000	0.8808	25.37	0.59	0.750			
0.2096	13416.47	3.9970	3.9970	0.8841	25.38	0.60	0.750			
0.2122	13583.33	3.9940	3.9940	0.8862	25.38	0.60	0.750			
0.2149	13754.58	3.9910	3.9907	0.8931	25.38	0.60	0.750			
0.2176	13926.87	3.9880	3.9880	0.8953	25.38	0.60	0.750			
0.2203	14099.77	3.9850	3.9850	0.8879	25.38	0.60	0.750			
0.2230	14268.85	3.9820	3.9822	0.8929	25.38	0.60	0.750			
0.2256	14440.92	3.9790	3.9791	0.8991	25.38	0.60	0.750			
0.2283	14611.54	3.9760	3.9761	0.8976	25.38	0.60	0.750			
0.2310	14784.50	3.9730	3.9729	0.8932	25.38	0.60	0.750			
0.2337	14957.19	3.9700	3.9702	0.9021	25.39	0.61	0.750			
0.2364	15131.87	3.9670	3.9670	0.9056	25.39	0.61	0.750			
0.2391	15304.30	3.9640	3.9638	0.9049	25.39	0.61	0.750			
0.2419	15480.71	3.9610	3.9610	0.8996	25.39	0.61	0.750			
0.2446	15651.33	3.9580	3.9580	0.9045	25.39	0.61	0.750			
0.2473	15826.33	3.9550	3.9550	0.9082	25.40	0.62	0.750			
0.2500	16002.13	3.9520	3.9521	0.9147	25.40	0.62	0.750			
0.2527	16175.10	3.9490	3.9489	0.9117	25.40	0.62	0.750			
0.2556	16355.47	3.9460	3.9460	0.8975	25.40	0.62	0.750			
0.2582	16524.85	3.9430	3.9431	0.9051	25.40	0.62	0.750			
0.2609	16696.99	3.9400	3.9401	0.9185	25.40	0.62	0.750			
0.2636	16872.59	3.9370	3.9372	0.9192	25.40	0.62	0.750			
0.2664	17050.40	3.9340	3.9342	0.9241	25.40	0.62	0.750			
0.2692	17228.13	3.9310	3.9312	0.9325	25.40	0.62	0.750			
0.2720	17411.14	3.9280	3.9281	0.9377	25.40	0.62	0.750			
0.2749	17593.79	3.9250	3.9249	0.9403	25.40	0.62	0.750			
0.2777	17771.43	3.9220	3.9220	0.9292	25.40	0.62	0.750			
0.2805	17951.54	3.9190	3.9190	0.9227	25.40	0.62	0.750			
0.2833	18128.07	3.9160	3.9160	0.9334	25.40	0.62	0.750			
0.2860	18306.69	3.9130	3.9130	0.9358	25.39	0.61	0.750			
0.2888	18485.31	3.9100	3.9100	0.9360	25.39	0.61	0.750			
0.2917	18665.69	3.9070	3.9070	0.9453	25.39	0.61	0.750			
0.2945	18847.30	3.9040	3.9041	0.9375	25.39	0.61	0.750			
0.2973	19027.74	3.9010	3.9010	0.9406	25.39	0.61	0.750			
0.3001	19209.12	3.8980	3.8981	0.9465	25.39	0.61	0.750			
0.3029	19387.72	3.8950	3.8946	0.9437	25.39	0.61	0.750			
0.3058	19569.70	3.8920	3.8921	0.9428	25.39	0.61	0.750			
0.3086	19750.30	3.8890	3.8891	0.9508	25.39	0.61	0.750			
0.3115	19934.25	3.8860	3.8860	0.9567	25.38	0.60	0.750			
0.3143	20117.97	3.8830	3.8828	0.9508	25.38	0.60	0.750			
0.3172	20302.70	3.8800	3.8801	0.9546	25.38	0.60	0.750			
0.3201	20485.14	3.8770	3.8771	0.9606	25.38	0.60	0.750			
0.3230	20670.25	3.8740	3.8740	0.9681	25.37	0.59	0.750			
0.3259	20856.98	3.8710	3.8709	0.9637	25.37	0.59	0.750			
0.3288	21042.33	3.8680	3.8680	0.9680	25.37	0.59	0.750			
0.3317	21229.30	3.8650	3.8651	0.9620	25.36	0.58	0.750			
0.3346	21412.50	3.8620	3.8621	0.9639	25.36	0.58	0.750			
0.3374	21595.48	3.8590	3.8591	0.9744	25.35	0.57	0.750			
0.3403	21781.59	3.8560	3.8556	0.9815	25.35	0.57	0.750			
0.3433	21970.73	3.8530	3.8532	0.9799	25.34	0.56	0.750			
0.3463	22161.03	3.8500	3.8502	0.9926	25.32	0.54	0.750			
0.3493	22356.08	3.8470	3.8470	0.9999	25.31	0.53	0.750			
0.3524	22552.04	3.8440	3.8436	1.0015	25.30	0.52	0.750			
0.3552	22735.23	3.8410	3.8411	0.9852	25.30	0.52	0.750			
0.3581	22920.92	3.8380	3.8382	0.9952	25.29	0.51	0.750			
0.3611	23113.56	3.8350	3.8350	1.0078	25.29	0.51	0.750			
0.3642	23308.71	3.8320	3.8314	1.0119	25.28	0.50	0.750	0.318	0.422	
0.3673	23505.69	3.8290	3.8291	1.0060	25.27	0.49	0.750			
0.3703	23702.33	3.8260	3.8262	1.0182	25.27	0.49	0.750			
0.3734	23899.37	3.8230	3.8231	1.0208	25.26	0.48	0.750			
0.3764	24091.39	3.8200	3.8201	1.0132	25.25	0.47	0.750			
0.3795	24286.95	3.8170	3.8171	1.0146	25.24	0.46	0.750			
0.3825	24480.72	3.8140	3.8141	1.0316	25.23	0.45	0.750			
0.3856	24681.58	3.8110	3.8111	1.0423	25.22	0.44	0.750			
0.3889	24887.58	3.8080	3.8078	1.0570	25.20	0.42	0.750			
0.3920	25086.96	3.8050	3.8052	1.0470	25.19	0.41	0.750			
0.3951	25288.47	3.8020	3.8020	1.0572	25.19	0.41	0.750			
0.3983	25491.37	3.7990	3.7990	1.0707	25.18	0.40	0.750			
0.4015	25697.33	3.7960	3.7958	1.0841	25.17	0.39	0.750			
0.4048	25906.96	3.7930	3.7930	1.0714	25.16	0.38	0.750			
0.4080	26112.49	3.7900	3.7901	1.0996	25.15	0.37	0.750			
0.4113	26321.78	3.7870	3.7872	1.1258	25.13	0.35	0.750			
0.4147	26540.45	3.7840	3.7832	1.1443	25.12	0.34	0.750			
0.4181	26761.19	3.7810	3.7811	1.1619	25.11	0.33	0.750			
0.4217	26986.24	3.7780	3.7782	1.1841	25.10	0.32	0.750			
0.4253	27218.60	3.7750	3.7752	1.2101	25.09	0.31	0.750			
0.4291	27460.28	3.7720	3.7719	1.2410	25.08	0.30	0.750			
0.4326	27684.46	3.7690	3.7691	1.2421	25.07	0.29	0.750			
0.4363	27926.36	3.7660	3.7661	1.2725	25.06	0.28	0.750			
0.4403	28176.31	3.7630	3.7629	1.3066	25.05	0.27	0.750			
0.4441	28422.73	3.7600	3.7602	1.3140	25.04	0.26	0.750			
0.4480	28674.76	3.7570	3.7572	1.3525	25.03	0.25	0.750			
0.4521	28936.78	3.7540	3.7532	1.3773	25.02	0.24	0.750			
0.4563	29204.26	3.7510	3.7512	1.3806	25.01	0.23	0.750			
0.4605	29469.05	3.7480	3.7483	1.4197	24.99	0.21	0.750			
0.4649	29755.85	3.7450	3.7447	1.4402	24.98	0.20	0.750			
0.4692	30028.80	3.7420	3.7412	1.5398	24.97	0.19	0.750			
0.4735	30306.59	3.7390	3.7395	1.5758	24.96	0.18	0.750			
0.4783	30614.24	3.7360	3.7363	1.6609	24.95	0.17	0.750			
0.4836	30948.49	3.7330	3.7326	1.7474	24.94	0.16	0.750			
0.4890	31298.76	3.7300	3.7303	1.7744	24.92	0.14	0.750			
0.4946	31653.08	3.7270	3.7274	1.8234	24.90	0.12	0.750			
0.5004	32025.69	3.7240	3.7242	1.8704	24.89	0.11	0.750			
0.5059	32379.40	3.7210	3.7211	1.8983	24.87	0.09	0.750			
0.5113	32723.45	3.7180	3.7179	1.8872	24.85	0.07	0.750			
0.5171	33095.67	3.7150	3.7151	1.9426	24.83	0.05	0.750			
0.5231	33476.98	3.7120	3.7121	2.0196	24.81	0.03	0.750			
0.5294	33878.85	3.7090	3.7089	2.0624	24.79	0.01	0.750			
0.5355	34270.66	3.7060	3.7059	2.0869	24.77	-0.01	0.750			
0.5417	34669.08	3.7030	3.7033	2.1652	24.76	-0.02	0.750			
0.5485	35104.15	3.7000	3.6999	2.2140	24.75	-0.03	0.750			
0.5553	35539.68	3.6970	3.6969	2.2719	24.74	-0.04	0.750			
0.5621	35973.85	3.6940	3.6942	2.3544	24.72	-0.06	0.750			
0.5693	36433.57	3.6910	3.6910	2.4415	24.71	-0.07	0.750			
0.5766	36903.17	3.6880	3.6880	2.4768	24.68	-0.10	0.750			
0.5844	37400.10	3.6850	3.6850	2.5935	24.67	-0.11	0.750			
0.5924	37911.02	3.6820	3.6818	2.6593	24.66	-0.12	0.750			
0.6002	38412.95	3.6790	3.6791	2.7300	24.64	-0.14	0.750			
0.6084	38938.80	3.6760	3.6762	2.7168	24.64	-0.14	0.750			
0.6164	39450.61	3.6730	3.6735	2.7805	24.63	-0.15	0.750			
0.6250	39997.29	3.6700	3.6702	2.8446	24.62	-0.16	0.750			
0.6339	40567.62	3.6670	3.6671	2.7656	24.63	-0.15	0.750			
0.6423	41107.24	3.6640	3.6639	2.5800	24.63	-0.15	0.750			
0.6497	41579.98	3.6610	3.6608	2.3756	24.64	-0.14	0.750			
0.6565	42013.22	3.6580	3.6582	2.1505	24.64	-0.14	0.750			
0.6625	42401.60	3.6550	3.6550	1.9478	24.65	-0.13	0.750			
0.6680	42750.73	3.6520	3.6520	1.7666	24.65	-0.13	0.750			
0.6729	43068.76	3.6490	3.6491	1.6087	24.66	-0.12	0.750			
0.6776	43364.48	3.6460	3.6456	1.4587	24.66	-0.12	0.750			
0.6816	43622.43	3.6430	3.6432	1.3371	24.67	-0.11	0.750			
0.6855	43869.71	3.6400	3.6401	1.2390	24.67	-0.11	0.750			
0.6889	44087.70	3.6370	3.6368	1.1442	24.68	-0.10	0.750			
0.6922	44300.42	3.6340	3.6340	1.0731	24.68	-0.10	0.750			
0.6951	44485.98	3.6310	3.6311	1.0054	24.69	-0.09	0.750			
0.6980	44673.12	3.6280	3.6280	0.9754	24.69	-0.09	0.750			
0.7009	44855.25	3.6250	3.6250	0.9383	24.70	-0.08	0.750			
0.7037	45033.77	3.6220	3.6220	0.9187	24.70	-0.08	0.750			
0.7064	45212.30	3.6190	3.6190	0.8855	24.71	-0.07	0.750			
0.7091	45381.29	3.6160	3.6161	0.8531	24.72	-0.06	0.750			
0.7116	45545.35	3.6130	3.6130	0.8127	24.73	-0.05	0.750			
0.7140	45697.22	3.6100	3.6102	0.7558	24.74	-0.04	0.750			
0.7162	45837.35	3.6070	3.6071	0.6957	24.74	-0.04	0.750			
0.7182	45965.59	3.6040	3.6040	0.6291	24.75	-0.03	0.750			
0.7200	46081.05	3.6010	3.6010	0.5636	24.76	-0.02	0.750			
0.7216	46183.85	3.5980	3.5980	0.5042	24.76	-0.02	0.750			
0.7230	46269.64	3.5950	3.5950	0.4341	24.77	-0.01	0.750			
0.7242	46347.01	3.5920	3.5920	0.3770	24.77	-0.01	0.750			
0.7252	46413.35	3.5890	3.5889	0.3235	24.77	-0.01	0.750			
0.7261	46469.78	3.5860	3.5860	0.2706	24.78	-0.00	0.750			
0.7268	46517.56	3.5830	3.5830	0.2207	24.78	-0.00	0.750			
0.7274	46555.33	3.5800	3.5801	0.1688	24.78	0.00	0.750			
0.7279	46582.51	3.5770	3.5776	0.1163	24.78	0.00	0.750			
0.7281	46600.01	3.5740	3.5748	0.0823	24.78	0.00	0.750			
