Ah_balance (normalized)	Ah_balance (mAh)	Voltage - fit (V)	Voltage -  interpolate (V)	dQ/dV (1/V)	Temperature (°C)	Temperature - diff (°C)	Current (C)	R_DC 0ms (mOhm)	R_DC 50ms (mOhm)	R_DC 50 ms PEC (mOhm)
0.0477	3055.40	4.1980	4.1980	0.7586	25.72	0.44	0.750			
0.0500	3201.49	4.1950	4.1949	0.7566	25.72	0.44	0.750			
0.0523	3344.47	4.1920	4.1921	0.7503	25.73	0.45	0.750			
0.0545	3488.00	4.1890	4.1890	0.7496	25.73	0.45	0.750			
0.0567	3631.24	4.1860	4.1860	0.7530	25.73	0.45	0.750			
0.0590	3775.49	4.1830	4.1830	0.7526	25.73	0.45	0.750			
0.0613	3920.11	4.1800	4.1800	0.7524	25.73	0.45	0.750			
0.0636	4068.53	4.1770	4.1770	0.7441	25.73	0.45	0.750			
0.0658	4208.78	4.1740	4.1741	0.7540	25.74	0.46	0.750			
0.0680	4352.67	4.1710	4.1711	0.7556	25.74	0.46	0.750			
0.0703	4497.18	4.1680	4.1678	0.7595	25.74	0.46	0.750			
0.0725	4643.12	4.1650	4.1652	0.7667	25.74	0.46	0.750			
0.0749	4792.73	4.1620	4.1621	0.7719	25.74	0.46	0.750			
0.0772	4942.52	4.1590	4.1591	0.7643	25.75	0.47	0.750			
0.0795	5088.75	4.1560	4.1560	0.7582	25.75	0.47	0.750			
0.0818	5233.25	4.1530	4.1531	0.7624	25.75	0.47	0.750			
0.0840	5378.17	4.1500	4.1501	0.7654	25.75	0.47	0.750			
0.0863	5525.23	4.1470	4.1471	0.7711	25.75	0.47	0.750			
0.0887	5675.63	4.1440	4.1440	0.7742	25.75	0.47	0.750			
0.0910	5827.17	4.1410	4.1410	0.7790	25.75	0.47	0.750			
0.0934	5976.73	4.1380	4.1381	0.7713	25.75	0.47	0.750			
0.0957	6124.39	4.1350	4.1348	0.7710	25.75	0.47	0.750			
0.0980	6271.12	4.1320	4.1320	0.7686	25.75	0.47	0.750			
0.1003	6418.43	4.1290	4.1290	0.7719	25.75	0.47	0.750			
0.1026	6564.75	4.1260	4.1260	0.7668	25.75	0.47	0.750			
0.1049	6710.49	4.1230	4.1231	0.7687	25.75	0.47	0.750			
0.1072	6858.48	4.1200	4.1201	0.7768	25.75	0.47	0.750			
0.1095	7008.28	4.1170	4.1172	0.7836	25.75	0.47	0.750			
0.1119	7159.01	4.1140	4.1141	0.7876	25.75	0.47	0.750			
0.1143	7312.74	4.1110	4.1111	0.7826	25.75	0.47	0.750			
0.1166	7464.01	4.1080	4.1081	0.7916	25.75	0.47	0.750			
0.1189	7612.43	4.1050	4.1051	0.7849	25.75	0.47	0.750			
0.1213	7762.59	4.1020	4.1016	0.7898	25.75	0.47	0.750			
0.1237	7915.42	4.0990	4.0992	0.7940	25.75	0.47	0.750			
0.1261	8069.76	4.0960	4.0960	0.7934	25.75	0.47	0.750			
0.1285	8224.79	4.0930	4.0930	0.7996	25.76	0.48	0.750			
0.1309	8376.29	4.0900	4.0901	0.7931	25.76	0.48	0.750			
0.1333	8528.84	4.0870	4.0869	0.7948	25.76	0.48	0.750			
0.1356	8681.55	4.0840	4.0840	0.7968	25.76	0.48	0.750			
0.1381	8835.93	4.0810	4.0810	0.7882	25.76	0.48	0.750			
0.1404	8987.17	4.0780	4.0780	0.7987	25.77	0.49	0.750			
0.1428	9139.55	4.0750	4.0750	0.8048	25.77	0.49	0.750			
0.1452	9292.68	4.0720	4.0719	0.8062	25.77	0.49	0.750			
0.1476	9449.36	4.0690	4.0691	0.8104	25.77	0.49	0.750			
0.1501	9609.21	4.0660	4.0660	0.8048	25.78	0.50	0.750			
0.1525	9762.61	4.0630	4.0631	0.8128	25.78	0.50	0.750			
0.1550	9919.80	4.0600	4.0600	0.8174	25.78	0.50	0.750			
0.1574	10072.85	4.0570	4.0570	0.8116	25.79	0.51	0.750			
0.1598	10228.81	4.0540	4.0542	0.8184	25.79	0.51	0.750			
0.1623	10388.48	4.0510	4.0510	0.8205	25.79	0.51	0.750			
0.1648	10546.90	4.0480	4.0480	0.8233	25.79	0.51	0.750			
0.1673	10705.83	4.0450	4.0451	0.8312	25.79	0.51	0.750			
0.1697	10861.69	4.0420	4.0420	0.8283	25.79	0.51	0.750			
0.1722	11022.86	4.0390	4.0389	0.8316	25.79	0.51	0.750			
0.1748	11185.29	4.0360	4.0360	0.8237	25.80	0.52	0.750			
0.1772	11341.22	4.0330	4.0331	0.8290	25.80	0.52	0.750			
0.1797	11501.50	4.0300	4.0301	0.8394	25.80	0.52	0.750			
0.1822	11659.64	4.0270	4.0271	0.8405	25.81	0.53	0.750			
0.1847	11821.53	4.0240	4.0241	0.8473	25.81	0.53	0.750			
0.1873	11985.31	4.0210	4.0211	0.8558	25.81	0.53	0.750			
0.1899	12151.22	4.0180	4.0181	0.8564	25.81	0.53	0.750			
0.1925	12318.30	4.0150	4.0150	0.8619	25.81	0.53	0.750			
0.1950	12479.89	4.0120	4.0120	0.8554	25.81	0.53	0.750			
0.1976	12644.99	4.0090	4.0091	0.8583	25.81	0.53	0.750			
0.2002	12809.72	4.0060	4.0061	0.8573	25.82	0.54	0.750			
0.2027	12975.14	4.0030	4.0031	0.8630	25.82	0.54	0.750			
0.2054	13144.17	4.0000	4.0000	0.8726	25.83	0.55	0.750			
0.2079	13306.47	3.9970	3.9969	0.8658	25.83	0.55	0.750			
0.2105	13473.38	3.9940	3.9940	0.8703	25.83	0.55	0.750			
0.2131	13640.97	3.9910	3.9910	0.8667	25.83	0.55	0.750			
0.2157	13807.98	3.9880	3.9881	0.8733	25.83	0.55	0.750			
0.2184	13974.85	3.9850	3.9851	0.8726	25.83	0.55	0.750			
0.2210	14142.56	3.9820	3.9814	0.8762	25.83	0.55	0.750			
0.2236	14312.65	3.9790	3.9791	0.8727	25.83	0.55	0.750			
0.2262	14479.61	3.9760	3.9761	0.8769	25.84	0.56	0.750			
0.2289	14649.76	3.9730	3.9730	0.8852	25.84	0.56	0.750			
0.2315	14817.49	3.9700	3.9701	0.8801	25.85	0.57	0.750			
0.2342	14987.30	3.9670	3.9671	0.8844	25.85	0.57	0.750			
0.2369	15158.88	3.9640	3.9641	0.8893	25.85	0.57	0.750			
0.2396	15331.21	3.9610	3.9610	0.8926	25.85	0.57	0.750			
0.2422	15503.91	3.9580	3.9580	0.8916	25.85	0.57	0.750			
0.2449	15673.04	3.9550	3.9550	0.8876	25.85	0.57	0.750			
0.2476	15843.81	3.9520	3.9520	0.8899	25.85	0.57	0.750			
0.2502	16014.95	3.9490	3.9490	0.8892	25.85	0.57	0.750			
0.2528	16181.87	3.9460	3.9461	0.8789	25.86	0.58	0.750			
0.2554	16348.58	3.9430	3.9432	0.8835	25.86	0.58	0.750			
0.2581	16517.71	3.9400	3.9394	0.8847	25.86	0.58	0.750			
0.2607	16687.70	3.9370	3.9371	0.8923	25.86	0.58	0.750			
0.2634	16859.01	3.9340	3.9342	0.8855	25.86	0.58	0.750			
0.2661	17030.65	3.9310	3.9310	0.8911	25.85	0.57	0.750			
0.2689	17207.65	3.9280	3.9280	0.9038	25.85	0.57	0.750			
0.2715	17373.13	3.9250	3.9251	0.8905	25.85	0.57	0.750			
0.2741	17544.09	3.9220	3.9220	0.8921	25.85	0.57	0.750			
0.2768	17716.94	3.9190	3.9190	0.8970	25.85	0.57	0.750			
0.2795	17890.61	3.9160	3.9160	0.8997	25.85	0.57	0.750			
0.2822	18063.88	3.9130	3.9130	0.8953	25.85	0.57	0.750			
0.2849	18235.61	3.9100	3.9100	0.8929	25.85	0.57	0.750			
0.2876	18407.54	3.9070	3.9070	0.8826	25.84	0.56	0.750			
0.2902	18574.04	3.9040	3.9041	0.8882	25.84	0.56	0.750			
0.2929	18743.51	3.9010	3.9011	0.8908	25.83	0.55	0.750			
0.2955	18914.69	3.8980	3.8976	0.8900	25.83	0.55	0.750			
0.2982	19085.90	3.8950	3.8950	0.8937	25.83	0.55	0.750			
0.3009	19258.74	3.8920	3.8922	0.8904	25.82	0.54	0.750			
0.3036	19430.86	3.8890	3.8891	0.8955	25.82	0.54	0.750			
0.3063	19600.04	3.8860	3.8860	0.8930	25.81	0.53	0.750			
0.3089	19772.08	3.8830	3.8832	0.8972	25.81	0.53	0.750			
0.3116	19945.50	3.8800	3.8800	0.8982	25.80	0.52	0.750			
0.3144	20119.98	3.8770	3.8770	0.9026	25.80	0.52	0.750			
0.3171	20295.07	3.8740	3.8741	0.9063	25.80	0.52	0.750			
0.3198	20467.34	3.8710	3.8709	0.9020	25.79	0.51	0.750			
0.3225	20640.27	3.8680	3.8681	0.9042	25.78	0.50	0.750			
0.3252	20812.89	3.8650	3.8650	0.8912	25.78	0.50	0.750			
0.3279	20983.35	3.8620	3.8621	0.8947	25.77	0.49	0.750			
0.3305	21153.07	3.8590	3.8592	0.8974	25.76	0.48	0.750			
0.3332	21327.03	3.8560	3.8552	0.9072	25.75	0.47	0.750			
0.3360	21502.47	3.8530	3.8532	0.9055	25.75	0.47	0.750			
0.3387	21676.31	3.8500	3.8501	0.9185	25.74	0.46	0.750			
0.3415	21854.00	3.8470	3.8472	0.9367	25.74	0.46	0.750			
0.3444	22038.48	3.8440	3.8440	0.9531	25.73	0.45	0.750			
0.3471	22217.43	3.8410	3.8411	0.9498	25.73	0.45	0.750			
0.3500	22401.94	3.8380	3.8376	0.9568	25.72	0.44	0.750	0.321	0.446	
0.3530	22589.27	3.8350	3.8350	0.9656	25.71	0.43	0.750			
0.3559	22776.09	3.8320	3.8321	0.9630	25.70	0.42	0.750			
0.3587	22959.00	3.8290	3.8289	0.9588	25.69	0.41	0.750			
0.3616	23144.69	3.8260	3.8261	0.9397	25.68	0.40	0.750			
0.3644	23322.17	3.8230	3.8230	0.9573	25.67	0.39	0.750			
0.3673	23504.50	3.8200	3.8201	0.9681	25.66	0.38	0.750			
0.3702	23690.24	3.8170	3.8167	0.9853	25.65	0.37	0.750			
0.3732	23883.32	3.8140	3.8141	0.9832	25.64	0.36	0.750			
0.3762	24074.38	3.8110	3.8111	1.0041	25.63	0.35	0.750			
0.3792	24267.69	3.8080	3.8082	1.0199	25.62	0.34	0.750			
0.3823	24464.99	3.8050	3.8051	1.0235	25.61	0.33	0.750			
0.3854	24663.97	3.8020	3.8021	1.0390	25.60	0.32	0.750			
0.3885	24863.51	3.7990	3.7991	1.0539	25.59	0.31	0.750			
0.3917	25068.29	3.7960	3.7961	1.0720	25.58	0.30	0.750			
0.3950	25282.37	3.7930	3.7929	1.0948	25.57	0.29	0.750			
0.3983	25490.64	3.7900	3.7899	1.0835	25.56	0.28	0.750			
0.4015	25695.67	3.7870	3.7871	1.1007	25.56	0.28	0.750			
0.4048	25906.58	3.7840	3.7841	1.1192	25.55	0.27	0.750			
0.4082	26124.25	3.7810	3.7803	1.1349	25.54	0.26	0.750			
0.4116	26340.91	3.7780	3.7782	1.1559	25.53	0.25	0.750			
0.4151	26564.81	3.7750	3.7751	1.1873	25.52	0.24	0.750			
0.4188	26800.40	3.7720	3.7721	1.2184	25.51	0.23	0.750			
0.4224	27033.70	3.7690	3.7690	1.2290	25.50	0.22	0.750			
0.4261	27272.98	3.7660	3.7661	1.2614	25.49	0.21	0.750			
0.4300	27519.89	3.7630	3.7631	1.2884	25.48	0.20	0.750			
0.4340	27773.17	3.7600	3.7600	1.2943	25.47	0.19	0.750			
0.4378	28019.19	3.7570	3.7571	1.3211	25.46	0.18	0.750			
0.4417	28271.24	3.7540	3.7542	1.3488	25.44	0.16	0.750			
0.4459	28538.38	3.7510	3.7502	1.3603	25.43	0.15	0.750			
0.4499	28794.52	3.7480	3.7482	1.3968	25.42	0.14	0.750			
0.4541	29065.49	3.7450	3.7452	1.4364	25.40	0.12	0.750			
0.4585	29346.25	3.7420	3.7417	1.4948	25.39	0.11	0.750			
0.4631	29639.86	3.7390	3.7387	1.4984	25.37	0.09	0.750			
0.4677	29933.84	3.7360	3.7361	1.5518	25.36	0.08	0.750			
0.4725	30242.65	3.7330	3.7332	1.5800	25.35	0.07	0.750			
0.4773	30547.51	3.7300	3.7297	1.6166	25.33	0.05	0.750			
0.4821	30856.70	3.7270	3.7271	1.6540	25.32	0.04	0.750			
0.4872	31181.72	3.7240	3.7239	1.7055	25.31	0.03	0.750			
0.4924	31516.47	3.7210	3.7211	1.7657	25.29	0.01	0.750			
0.4978	31859.77	3.7180	3.7184	1.8248	25.28	-0.00	0.750			
0.5034	32220.29	3.7150	3.7152	1.9160	25.27	-0.01	0.750			
0.5092	32590.37	3.7120	3.7120	1.9416	25.26	-0.02	0.750			
0.5150	32960.39	3.7090	3.7085	1.9837	25.24	-0.04	0.750			
0.5212	33357.34	3.7060	3.7062	1.9929	25.22	-0.06	0.750			
0.5272	33743.73	3.7030	3.7032	2.0862	25.20	-0.08	0.750			
0.5336	34151.81	3.7000	3.6994	2.1150	25.19	-0.09	0.750			
0.5402	34574.58	3.6970	3.6976	2.2301	25.18	-0.10	0.750			
0.5471	35012.05	3.6940	3.6936	2.2824	25.17	-0.11	0.750			
0.5540	35453.02	3.6910	3.6911	2.4176	25.15	-0.13	0.750			
0.5614	35928.22	3.6880	3.6881	2.3919	25.14	-0.14	0.750			
0.5687	36394.83	3.6850	3.6853	2.3860	25.14	-0.14	0.750			
0.5760	36862.15	3.6820	3.6821	2.5208	25.13	-0.15	0.750			
0.5836	37347.87	3.6790	3.6794	2.4611	25.12	-0.16	0.750			
0.5907	37807.62	3.6760	3.6756	2.4786	25.12	-0.16	0.750			
0.5985	38304.92	3.6730	3.6727	2.6811	25.12	-0.16	0.750			
0.6070	38850.77	3.6700	3.6702	2.6504	25.12	-0.16	0.750			
0.6145	39329.32	3.6670	3.6674	2.4213	25.12	-0.16	0.750			
0.6209	39736.39	3.6640	3.6641	2.0532	25.13	-0.15	0.750			
0.6265	40093.24	3.6610	3.6610	1.8402	25.13	-0.15	0.750			
0.6317	40430.39	3.6580	3.6581	1.7138	25.14	-0.14	0.750			
0.6367	40748.56	3.6550	3.6550	1.6001	25.15	-0.13	0.750			
0.6412	41036.54	3.6520	3.6522	1.4770	25.15	-0.13	0.750			
0.6456	41316.08	3.6490	3.6487	1.3868	25.16	-0.12	0.750			
0.6496	41573.12	3.6460	3.6460	1.2975	25.17	-0.11	0.750			
0.6532	41802.90	3.6430	3.6431	1.2055	25.17	-0.11	0.750			
0.6567	42026.32	3.6400	3.6401	1.1409	25.18	-0.10	0.750			
0.6600	42238.20	3.6370	3.6369	1.0803	25.18	-0.10	0.750			
0.6631	42437.79	3.6340	3.6340	1.0343	25.19	-0.09	0.750			
0.6661	42630.27	3.6310	3.6310	0.9934	25.19	-0.09	0.750			
0.6690	42818.38	3.6280	3.6280	0.9614	25.20	-0.08	0.750			
0.6718	42997.54	3.6250	3.6251	0.9215	25.20	-0.08	0.750			
0.6746	43173.86	3.6220	3.6220	0.8772	25.22	-0.06	0.750			
0.6772	43338.98	3.6190	3.6190	0.8370	25.23	-0.05	0.750			
0.6796	43493.19	3.6160	3.6162	0.8057	25.24	-0.04	0.750			
0.6819	43643.24	3.6130	3.6133	0.7663	25.24	-0.04	0.750			
0.6842	43787.38	3.6100	3.6105	0.7226	25.25	-0.03	0.750			
0.6863	43923.44	3.6070	3.6073	0.6813	25.26	-0.02	0.750			
0.6884	44054.57	3.6040	3.6041	0.6374	25.26	-0.02	0.750			
0.6903	44176.11	3.6010	3.6009	0.5872	25.27	-0.01	0.750			
0.6918	44276.80	3.5980	3.5980	0.5180	25.27	-0.01	0.750			
0.6933	44371.49	3.5950	3.5950	0.4710	25.27	-0.01	0.750			
0.6946	44457.04	3.5920	3.5920	0.4234	25.28	-0.00	0.750			
0.6958	44533.63	3.5890	3.5888	0.3753	25.28	0.00	0.750			
0.6969	44601.94	3.5860	3.5860	0.3262	25.28	0.00	0.750			
0.6978	44660.11	3.5830	3.5830	0.2773	25.28	0.00	0.750			
0.6986	44709.07	3.5800	3.5801	0.2274	25.29	0.01	0.750			
0.6992	44748.85	3.5770	3.5770	0.1752	25.29	0.01	0.750			
0.6996	44776.88	3.5740	3.5745	0.1223	25.29	0.01	0.750			
0.6999	44795.33	3.5710	3.5717	0.0630	25.29	0.01	0.750			
