Ah_balance (normalized)	Ah_balance (mAh)	Voltage - fit (V)	Voltage -  interpolate (V)	dQ/dV (1/V)	Temperature (°C)	Temperature - diff (°C)	Current (C)	R_DC 0ms (mOhm)	R_DC 50ms (mOhm)	R_DC 50 ms PEC (mOhm)
0.0466	2983.59	4.1990	4.1990	0.7502	25.72	0.50	0.750			
0.0489	3128.74	4.1960	4.1960	0.7599	25.71	0.49	0.750			
0.0512	3274.66	4.1930	4.1930	0.7634	25.71	0.49	0.750			
0.0535	3421.77	4.1900	4.1899	0.7668	25.71	0.49	0.750			
0.0558	3569.88	4.1870	4.1870	0.7702	25.71	0.49	0.750			
0.0581	3718.65	4.1840	4.1840	0.7692	25.71	0.49	0.750			
0.0604	3866.00	4.1810	4.1809	0.7688	25.70	0.48	0.750			
0.0627	4014.33	4.1780	4.1780	0.7701	25.70	0.48	0.750			
0.0650	4161.25	4.1750	4.1751	0.7719	25.70	0.48	0.750			
0.0673	4309.03	4.1720	4.1720	0.7724	25.70	0.48	0.750			
0.0697	4457.70	4.1690	4.1690	0.7752	25.70	0.48	0.750			
0.0720	4606.26	4.1660	4.1660	0.7750	25.70	0.48	0.750			
0.0743	4755.35	4.1630	4.1630	0.7772	25.71	0.49	0.750			
0.0766	4905.03	4.1600	4.1600	0.7781	25.71	0.49	0.750			
0.0790	5054.68	4.1570	4.1567	0.7792	25.71	0.49	0.750			
0.0813	5203.42	4.1540	4.1541	0.7797	25.71	0.49	0.750			
0.0837	5354.23	4.1510	4.1510	0.7819	25.70	0.48	0.750			
0.0860	5504.50	4.1480	4.1480	0.7851	25.70	0.48	0.750			
0.0884	5655.53	4.1450	4.1449	0.7880	25.69	0.47	0.750			
0.0907	5806.08	4.1420	4.1420	0.7876	25.69	0.47	0.750			
0.0931	5957.60	4.1390	4.1390	0.7899	25.69	0.47	0.750			
0.0955	6111.02	4.1360	4.1360	0.7878	25.69	0.47	0.750			
0.0978	6261.42	4.1330	4.1331	0.7892	25.69	0.47	0.750			
0.1002	6412.04	4.1300	4.1300	0.7925	25.69	0.47	0.750			
0.1026	6563.33	4.1270	4.1271	0.7940	25.69	0.47	0.750			
0.1049	6716.54	4.1240	4.1239	0.7969	25.69	0.47	0.750			
0.1074	6872.30	4.1210	4.1210	0.7953	25.69	0.47	0.750			
0.1097	7023.34	4.1180	4.1180	0.7996	25.69	0.47	0.750			
0.1122	7178.29	4.1150	4.1151	0.8047	25.70	0.48	0.750			
0.1145	7330.70	4.1120	4.1120	0.8067	25.70	0.48	0.750			
0.1170	7485.34	4.1090	4.1088	0.8076	25.70	0.48	0.750			
0.1194	7642.07	4.1060	4.1060	0.8116	25.70	0.48	0.750			
0.1219	7799.61	4.1030	4.1031	0.8155	25.70	0.48	0.750			
0.1243	7956.85	4.1000	4.1000	0.8140	25.70	0.48	0.750			
0.1267	8111.30	4.0970	4.0970	0.8095	25.70	0.48	0.750			
0.1292	8267.01	4.0940	4.0940	0.8099	25.70	0.48	0.750			
0.1316	8421.38	4.0910	4.0910	0.8117	25.70	0.48	0.750			
0.1340	8578.86	4.0880	4.0880	0.8125	25.70	0.48	0.750			
0.1365	8733.34	4.0850	4.0850	0.8159	25.70	0.48	0.750			
0.1389	8890.55	4.0820	4.0820	0.8178	25.70	0.48	0.750			
0.1414	9047.58	4.0790	4.0787	0.8224	25.70	0.48	0.750			
0.1438	9205.17	4.0760	4.0760	0.8250	25.70	0.48	0.750			
0.1463	9364.54	4.0730	4.0731	0.8272	25.70	0.48	0.750			
0.1488	9523.61	4.0700	4.0700	0.8311	25.71	0.49	0.750			
0.1513	9682.09	4.0670	4.0671	0.8351	25.71	0.49	0.750			
0.1538	9844.14	4.0640	4.0637	0.8408	25.71	0.49	0.750			
0.1564	10007.11	4.0610	4.0610	0.8446	25.71	0.49	0.750			
0.1589	10169.66	4.0580	4.0580	0.8452	25.71	0.49	0.750			
0.1615	10334.02	4.0550	4.0551	0.8480	25.71	0.49	0.750			
0.1640	10496.08	4.0520	4.0520	0.8429	25.71	0.49	0.750			
0.1665	10657.19	4.0490	4.0490	0.8422	25.71	0.49	0.750			
0.1690	10817.44	4.0460	4.0460	0.8457	25.71	0.49	0.750			
0.1716	10980.32	4.0430	4.0430	0.8499	25.71	0.49	0.750			
0.1741	11142.69	4.0400	4.0400	0.8560	25.71	0.49	0.750			
0.1767	11307.99	4.0370	4.0371	0.8609	25.71	0.49	0.750			
0.1793	11474.99	4.0340	4.0338	0.8655	25.71	0.49	0.750			
0.1819	11642.76	4.0310	4.0310	0.8686	25.71	0.49	0.750			
0.1845	11810.23	4.0280	4.0280	0.8696	25.71	0.49	0.750			
0.1871	11976.88	4.0250	4.0250	0.8726	25.72	0.50	0.750			
0.1897	12143.40	4.0220	4.0221	0.8692	25.72	0.50	0.750			
0.1924	12311.27	4.0190	4.0191	0.8753	25.72	0.50	0.750			
0.1950	12480.67	4.0160	4.0161	0.8772	25.72	0.50	0.750			
0.1977	12650.09	4.0130	4.0130	0.8823	25.72	0.50	0.750			
0.2003	12818.83	4.0100	4.0101	0.8857	25.72	0.50	0.750			
0.2030	12990.05	4.0070	4.0069	0.8867	25.72	0.50	0.750			
0.2056	13160.33	4.0040	4.0041	0.8862	25.72	0.50	0.750			
0.2083	13331.03	4.0010	4.0010	0.8890	25.72	0.50	0.750			
0.2110	13501.09	3.9980	3.9980	0.8899	25.73	0.51	0.750			
0.2136	13673.07	3.9950	3.9950	0.8932	25.73	0.51	0.750			
0.2163	13843.03	3.9920	3.9920	0.8955	25.73	0.51	0.750			
0.2190	14017.39	3.9890	3.9890	0.8927	25.73	0.51	0.750			
0.2217	14187.65	3.9860	3.9860	0.9018	25.73	0.51	0.750			
0.2244	14361.21	3.9830	3.9830	0.9069	25.74	0.52	0.750			
0.2271	14535.69	3.9800	3.9801	0.9091	25.74	0.52	0.750			
0.2299	14710.64	3.9770	3.9768	0.9134	25.74	0.52	0.750			
0.2326	14887.02	3.9740	3.9742	0.9140	25.74	0.52	0.750			
0.2353	15061.93	3.9710	3.9710	0.9180	25.75	0.53	0.750			
0.2381	15239.02	3.9680	3.9680	0.9240	25.75	0.53	0.750			
0.2409	15416.01	3.9650	3.9649	0.9216	25.75	0.53	0.750			
0.2437	15595.02	3.9620	3.9620	0.9213	25.75	0.53	0.750			
0.2464	15771.41	3.9590	3.9590	0.9259	25.75	0.53	0.750			
0.2492	15949.82	3.9560	3.9561	0.9267	25.75	0.53	0.750			
0.2520	16128.06	3.9530	3.9530	0.9281	25.75	0.53	0.750			
0.2548	16304.51	3.9500	3.9499	0.9271	25.75	0.53	0.750			
0.2576	16484.90	3.9470	3.9470	0.9187	25.75	0.53	0.750			
0.2603	16660.28	3.9440	3.9440	0.9319	25.75	0.53	0.750			
0.2631	16838.88	3.9410	3.9411	0.9378	25.75	0.53	0.750			
0.2659	17017.99	3.9380	3.9377	0.9384	25.75	0.53	0.750			
0.2688	17200.35	3.9350	3.9351	0.9423	25.75	0.53	0.750			
0.2716	17381.37	3.9320	3.9321	0.9527	25.76	0.54	0.750			
0.2745	17566.74	3.9290	3.9290	0.9552	25.76	0.54	0.750			
0.2774	17751.65	3.9260	3.9260	0.9521	25.77	0.55	0.750			
0.2802	17935.29	3.9230	3.9231	0.9510	25.77	0.55	0.750			
0.2831	18117.33	3.9200	3.9201	0.9556	25.77	0.55	0.750			
0.2860	18301.29	3.9170	3.9170	0.9589	25.77	0.55	0.750			
0.2888	18484.91	3.9140	3.9140	0.9625	25.77	0.55	0.750			
0.2917	18668.59	3.9110	3.9109	0.9649	25.77	0.55	0.750			
0.2946	18856.49	3.9080	3.9080	0.9668	25.77	0.55	0.750			
0.2975	19042.24	3.9050	3.9050	0.9729	25.77	0.55	0.750			
0.3005	19229.17	3.9020	3.9021	0.9774	25.77	0.55	0.750			
0.3034	19416.44	3.8990	3.8988	0.9749	25.77	0.55	0.750			
0.3063	19605.55	3.8960	3.8961	0.9769	25.77	0.55	0.750			
0.3093	19792.95	3.8930	3.8930	0.9798	25.77	0.55	0.750			
0.3122	19980.62	3.8900	3.8900	0.9871	25.77	0.55	0.750			
0.3152	20170.45	3.8870	3.8869	0.9840	25.77	0.55	0.750			
0.3181	20361.20	3.8840	3.8840	0.9797	25.77	0.55	0.750			
0.3211	20550.78	3.8810	3.8811	0.9823	25.77	0.55	0.750			
0.3240	20738.04	3.8780	3.8781	0.9891	25.77	0.55	0.750			
0.3270	20927.45	3.8750	3.8750	0.9921	25.77	0.55	0.750			
0.3300	21117.91	3.8720	3.8720	0.9909	25.77	0.55	0.750			
0.3329	21307.77	3.8690	3.8690	0.9969	25.77	0.55	0.750			
0.3360	21501.98	3.8660	3.8661	1.0073	25.76	0.54	0.750			
0.3390	21696.32	3.8630	3.8630	1.0109	25.76	0.54	0.750			
0.3421	21891.55	3.8600	3.8601	1.0141	25.76	0.54	0.750			
0.3451	22085.05	3.8570	3.8570	1.0145	25.75	0.53	0.750			
0.3481	22280.47	3.8540	3.8540	1.0220	25.75	0.53	0.750			
0.3512	22477.71	3.8510	3.8510	1.0263	25.74	0.52	0.750			
0.3543	22675.34	3.8480	3.8480	1.0299	25.74	0.52	0.750			
0.3574	22872.72	3.8450	3.8451	1.0329	25.73	0.51	0.750			
0.3605	23071.69	3.8420	3.8420	1.0369	25.73	0.51	0.750			
0.3636	23271.48	3.8390	3.8390	1.0374	25.72	0.50	0.750			
0.3667	23470.24	3.8360	3.8361	1.0474	25.72	0.50	0.750			
0.3698	23670.11	3.8330	3.8330	1.0619	25.71	0.49	0.750			
0.3731	23875.78	3.8300	3.8300	1.0760	25.70	0.48	0.750			
0.3763	24085.13	3.8270	3.8272	1.0863	25.70	0.48	0.750	0.347	0.425	
0.3797	24297.83	3.8240	3.8239	1.0938	25.69	0.47	0.750			
0.3829	24508.78	3.8210	3.8211	1.1030	25.68	0.46	0.750			
0.3863	24721.08	3.8180	3.8180	1.1072	25.68	0.46	0.750			
0.3896	24931.68	3.8150	3.8150	1.1053	25.67	0.45	0.750			
0.3929	25145.60	3.8120	3.8120	1.0997	25.67	0.45	0.750			
0.3962	25357.23	3.8090	3.8091	1.1064	25.65	0.43	0.750			
0.3995	25569.36	3.8060	3.8061	1.1077	25.64	0.42	0.750			
0.4028	25782.27	3.8030	3.8029	1.1123	25.63	0.41	0.750			
0.4061	25992.77	3.8000	3.8001	1.1134	25.62	0.40	0.750			
0.4095	26205.14	3.7970	3.7970	1.1252	25.61	0.39	0.750			
0.4129	26422.86	3.7940	3.7941	1.1404	25.60	0.38	0.750			
0.4163	26644.76	3.7910	3.7907	1.1575	25.59	0.37	0.750			
0.4198	26867.38	3.7880	3.7881	1.1691	25.58	0.36	0.750			
0.4233	27094.38	3.7850	3.7850	1.1872	25.57	0.35	0.750			
0.4270	27325.36	3.7820	3.7820	1.1989	25.56	0.34	0.750			
0.4305	27553.93	3.7790	3.7791	1.2100	25.55	0.33	0.750			
0.4342	27787.76	3.7760	3.7760	1.2289	25.54	0.32	0.750			
0.4379	28025.33	3.7730	3.7730	1.2518	25.53	0.31	0.750			
0.4417	28267.72	3.7700	3.7698	1.2678	25.52	0.30	0.750			
0.4455	28510.01	3.7670	3.7671	1.2971	25.51	0.29	0.750			
0.4494	28761.46	3.7640	3.7640	1.3238	25.49	0.27	0.750			
0.4534	29019.12	3.7610	3.7608	1.3589	25.48	0.26	0.750			
0.4575	29281.93	3.7580	3.7580	1.3858	25.47	0.25	0.750			
0.4618	29554.51	3.7550	3.7550	1.4166	25.45	0.23	0.750			
0.4661	29830.83	3.7520	3.7520	1.4489	25.44	0.22	0.750			
0.4705	30109.79	3.7490	3.7490	1.4693	25.43	0.21	0.750			
0.4749	30394.17	3.7460	3.7460	1.5036	25.41	0.19	0.750			
0.4794	30682.49	3.7430	3.7431	1.5461	25.40	0.18	0.750			
0.4841	30981.54	3.7400	3.7400	1.5848	25.39	0.17	0.750			
0.4889	31289.30	3.7370	3.7370	1.6320	25.38	0.16	0.750			
0.4939	31607.63	3.7340	3.7340	1.6788	25.36	0.14	0.750			
0.4990	31934.52	3.7310	3.7311	1.7270	25.35	0.13	0.750			
0.5043	32275.96	3.7280	3.7277	1.7704	25.34	0.12	0.750			
0.5097	32621.47	3.7250	3.7248	1.8114	25.32	0.10	0.750			
0.5151	32968.60	3.7220	3.7220	1.8749	25.30	0.08	0.750			
0.5209	33337.06	3.7190	3.7191	1.9296	25.29	0.07	0.750			
0.5267	33711.54	3.7160	3.7161	1.9806	25.28	0.06	0.750			
0.5327	34095.25	3.7130	3.7132	2.0531	25.26	0.04	0.750			
0.5391	34500.44	3.7100	3.7100	2.0926	25.25	0.03	0.750			
0.5455	34908.89	3.7070	3.7069	2.1530	25.23	0.01	0.750			
0.5519	35324.20	3.7040	3.7041	2.2063	25.21	-0.01	0.750			
0.5586	35752.06	3.7010	3.7010	2.2753	25.20	-0.02	0.750			
0.5656	36197.72	3.6980	3.6978	2.3515	25.18	-0.04	0.750			
0.5729	36664.05	3.6950	3.6950	2.4299	25.17	-0.05	0.750			
0.5803	37139.89	3.6920	3.6921	2.4784	25.16	-0.06	0.750			
0.5876	37608.28	3.6890	3.6892	2.4963	25.15	-0.07	0.750			
0.5953	38100.00	3.6860	3.6858	2.5441	25.13	-0.09	0.750			
0.6029	38588.52	3.6830	3.6829	2.6978	25.11	-0.11	0.750			
0.6114	39129.80	3.6800	3.6798	2.8238	25.10	-0.12	0.750			
0.6201	39684.10	3.6770	3.6771	2.9096	25.09	-0.13	0.750			
0.6290	40253.36	3.6740	3.6738	2.9908	25.08	-0.14	0.750			
0.6379	40822.76	3.6710	3.6710	2.9638	25.07	-0.15	0.750			
0.6469	41404.13	3.6680	3.6681	2.9564	25.07	-0.15	0.750			
0.6555	41953.54	3.6650	3.6651	2.8439	25.08	-0.14	0.750			
0.6640	42493.21	3.6620	3.6620	2.7344	25.08	-0.14	0.750			
0.6722	43018.00	3.6590	3.6587	2.5570	25.08	-0.14	0.750			
0.6797	43501.23	3.6560	3.6558	2.3653	25.08	-0.14	0.750			
0.6863	43921.19	3.6530	3.6530	2.0954	25.10	-0.12	0.750			
0.6921	44296.50	3.6500	3.6500	1.8925	25.11	-0.11	0.750			
0.6974	44632.05	3.6470	3.6469	1.6848	25.11	-0.11	0.750			
0.7021	44935.37	3.6440	3.6440	1.5059	25.12	-0.10	0.750			
0.7064	45212.64	3.6410	3.6412	1.3504	25.13	-0.09	0.750			
0.7101	45446.66	3.6380	3.6382	1.2147	25.13	-0.09	0.750			
0.7135	45662.96	3.6350	3.6350	1.1076	25.14	-0.08	0.750			
0.7165	45854.95	3.6320	3.6315	1.0266	25.15	-0.07	0.750			
0.7193	46035.82	3.6290	3.6291	0.9607	25.16	-0.06	0.750			
0.7221	46215.72	3.6260	3.6260	0.9330	25.16	-0.06	0.750			
0.7249	46393.16	3.6230	3.6230	0.9123	25.17	-0.05	0.750			
0.7276	46564.61	3.6200	3.6200	0.8831	25.18	-0.04	0.750			
0.7302	46733.92	3.6170	3.6170	0.8561	25.18	-0.04	0.750			
0.7328	46898.55	3.6140	3.6140	0.8268	25.19	-0.03	0.750			
0.7353	47057.32	3.6110	3.6110	0.7758	25.20	-0.02	0.750			
0.7376	47204.89	3.6080	3.6080	0.7214	25.21	-0.01	0.750			
0.7397	47338.59	3.6050	3.6051	0.6560	25.21	-0.01	0.750			
0.7416	47459.99	3.6020	3.6017	0.5835	25.22	0.00	0.750			
0.7432	47563.77	3.5990	3.5990	0.5130	25.23	0.01	0.750			
0.7446	47653.40	3.5960	3.5962	0.4499	25.23	0.01	0.750			
0.7458	47731.39	3.5930	3.5931	0.3870	25.23	0.01	0.750			
0.7469	47799.13	3.5900	3.5903	0.3258	25.24	0.02	0.750			
0.7478	47856.17	3.5870	3.5871	0.2722	25.24	0.02	0.750			
0.7485	47902.93	3.5840	3.5842	0.2210	25.24	0.02	0.750			
0.7491	47941.21	3.5810	3.5814	0.1677	25.24	0.02	0.750			
0.7495	47967.53	3.5780	3.5784	0.1081	25.25	0.03	0.750			
