Ah_balance (normalized)	Ah_balance (mAh)	Voltage - fit (V)	Voltage -  interpolate (V)	dQ/dV (1/V)	Temperature (°C)	Temperature - diff (°C)	Current (C)	R_DC 0ms (mOhm)	R_DC 50ms (mOhm)	R_DC 50 ms PEC (mOhm)
0.0461	2951.47	4.1990	4.1990	0.7127	25.30	0.50	0.750			
0.0483	3091.80	4.1960	4.1961	0.7427	25.30	0.50	0.750			
0.0506	3237.79	4.1930	4.1928	0.7568	25.30	0.50	0.750			
0.0529	3383.79	4.1900	4.1900	0.7618	25.30	0.50	0.750			
0.0552	3531.99	4.1870	4.1871	0.7610	25.30	0.50	0.750			
0.0575	3677.98	4.1840	4.1840	0.7660	25.30	0.50	0.750			
0.0598	3826.60	4.1810	4.1810	0.7700	25.30	0.50	0.750			
0.0621	3971.87	4.1780	4.1781	0.7672	25.30	0.50	0.750			
0.0644	4119.62	4.1750	4.1750	0.7704	25.30	0.50	0.750			
0.0667	4267.79	4.1720	4.1721	0.7740	25.30	0.50	0.750			
0.0690	4417.01	4.1690	4.1690	0.7749	25.30	0.50	0.750			
0.0713	4563.87	4.1660	4.1660	0.7636	25.30	0.50	0.750			
0.0736	4707.91	4.1630	4.1631	0.7645	25.30	0.50	0.750			
0.0758	4853.77	4.1600	4.1598	0.7698	25.30	0.50	0.750			
0.0782	5001.61	4.1570	4.1571	0.7784	25.30	0.50	0.750			
0.0805	5153.59	4.1540	4.1541	0.7789	25.31	0.51	0.750			
0.0829	5303.47	4.1510	4.1512	0.7884	25.31	0.51	0.750			
0.0854	5462.80	4.1480	4.1479	0.7987	25.31	0.51	0.750			
0.0876	5608.61	4.1450	4.1451	0.7850	25.32	0.52	0.750			
0.0900	5759.12	4.1420	4.1421	0.7862	25.32	0.52	0.750			
0.0924	5911.63	4.1390	4.1391	0.7831	25.32	0.52	0.750			
0.0947	6062.72	4.1360	4.1360	0.7821	25.32	0.52	0.750			
0.0971	6213.05	4.1330	4.1330	0.7879	25.32	0.52	0.750			
0.0994	6360.48	4.1300	4.1301	0.7855	25.32	0.52	0.750			
0.1018	6513.04	4.1270	4.1270	0.7905	25.32	0.52	0.750			
0.1041	6663.92	4.1240	4.1240	0.7925	25.32	0.52	0.750			
0.1065	6817.29	4.1210	4.1210	0.7919	25.32	0.52	0.750			
0.1089	6969.83	4.1180	4.1181	0.7956	25.32	0.52	0.750			
0.1113	7122.14	4.1150	4.1150	0.7987	25.32	0.52	0.750			
0.1137	7274.26	4.1120	4.1111	0.8010	25.32	0.52	0.750			
0.1161	7428.09	4.1090	4.1091	0.8032	25.32	0.52	0.750			
0.1186	7587.25	4.1060	4.1060	0.7964	25.32	0.52	0.750			
0.1209	7739.97	4.1030	4.1030	0.8022	25.32	0.52	0.750			
0.1233	7894.19	4.1000	4.1001	0.8112	25.32	0.52	0.750			
0.1257	8046.51	4.0970	4.0967	0.8072	25.32	0.52	0.750			
0.1282	8201.99	4.0940	4.0941	0.8106	25.32	0.52	0.750			
0.1306	8358.79	4.0910	4.0911	0.8100	25.33	0.53	0.750			
0.1331	8515.26	4.0880	4.0881	0.8141	25.33	0.53	0.750			
0.1356	8675.56	4.0850	4.0850	0.8178	25.33	0.53	0.750			
0.1379	8827.08	4.0820	4.0819	0.8126	25.34	0.54	0.750			
0.1404	8982.41	4.0790	4.0791	0.8185	25.34	0.54	0.750			
0.1429	9146.88	4.0760	4.0759	0.8049	25.34	0.54	0.750			
0.1453	9297.69	4.0730	4.0730	0.8146	25.35	0.55	0.750			
0.1477	9452.71	4.0700	4.0702	0.8255	25.35	0.55	0.750			
0.1502	9610.14	4.0670	4.0672	0.8303	25.35	0.55	0.750			
0.1527	9771.26	4.0640	4.0642	0.8335	25.35	0.55	0.750			
0.1552	9934.51	4.0610	4.0611	0.8243	25.35	0.55	0.750			
0.1577	10092.48	4.0580	4.0582	0.8377	25.36	0.56	0.750			
0.1602	10254.32	4.0550	4.0551	0.8466	25.36	0.56	0.750			
0.1627	10413.20	4.0520	4.0519	0.8392	25.36	0.56	0.750			
0.1652	10575.24	4.0490	4.0491	0.8522	25.36	0.56	0.750			
0.1678	10742.07	4.0460	4.0461	0.8565	25.36	0.56	0.750			
0.1704	10908.76	4.0430	4.0431	0.8631	25.37	0.57	0.750			
0.1731	11077.73	4.0400	4.0400	0.8546	25.37	0.57	0.750			
0.1756	11240.80	4.0370	4.0369	0.8561	25.37	0.57	0.750			
0.1782	11403.71	4.0340	4.0341	0.8543	25.37	0.57	0.750			
0.1808	11570.05	4.0310	4.0311	0.8476	25.37	0.57	0.750			
0.1833	11729.56	4.0280	4.0281	0.8593	25.38	0.58	0.750			
0.1859	11894.88	4.0250	4.0251	0.8627	25.38	0.58	0.750			
0.1885	12062.26	4.0220	4.0214	0.8731	25.38	0.58	0.750			
0.1911	12232.13	4.0190	4.0192	0.8798	25.38	0.58	0.750			
0.1938	12400.52	4.0160	4.0162	0.8791	25.38	0.58	0.750			
0.1964	12571.00	4.0130	4.0131	0.8867	25.38	0.58	0.750			
0.1991	12744.69	4.0100	4.0099	0.8961	25.38	0.58	0.750			
0.2017	12911.18	4.0070	4.0071	0.8821	25.38	0.58	0.750			
0.2044	13083.53	4.0040	4.0041	0.8802	25.38	0.58	0.750			
0.2071	13252.15	4.0010	4.0011	0.8872	25.38	0.58	0.750			
0.2097	13423.85	3.9980	3.9980	0.8911	25.38	0.58	0.750			
0.2124	13592.06	3.9950	3.9949	0.8858	25.38	0.58	0.750			
0.2150	13762.80	3.9920	3.9921	0.8902	25.38	0.58	0.750			
0.2177	13934.08	3.9890	3.9891	0.8926	25.38	0.58	0.750			
0.2204	14106.40	3.9860	3.9860	0.9007	25.39	0.59	0.750			
0.2231	14279.96	3.9830	3.9830	0.9053	25.39	0.59	0.750			
0.2258	14452.45	3.9800	3.9795	0.9052	25.39	0.59	0.750			
0.2286	14628.85	3.9770	3.9771	0.9059	25.39	0.59	0.750			
0.2313	14804.00	3.9740	3.9741	0.9070	25.39	0.59	0.750			
0.2340	14977.77	3.9710	3.9710	0.9116	25.40	0.60	0.750			
0.2368	15153.47	3.9680	3.9680	0.9156	25.40	0.60	0.750			
0.2395	15326.20	3.9650	3.9651	0.9135	25.40	0.60	0.750			
0.2423	15504.09	3.9620	3.9620	0.9099	25.40	0.60	0.750			
0.2450	15679.01	3.9590	3.9591	0.9217	25.41	0.61	0.750			
0.2478	15857.21	3.9560	3.9560	0.9248	25.41	0.61	0.750			
0.2505	16034.17	3.9530	3.9528	0.9304	25.41	0.61	0.750			
0.2533	16212.83	3.9500	3.9501	0.9334	25.41	0.61	0.750			
0.2561	16392.60	3.9470	3.9470	0.9267	25.41	0.61	0.750			
0.2589	16570.75	3.9440	3.9441	0.9313	25.41	0.61	0.750			
0.2617	16748.74	3.9410	3.9411	0.9282	25.41	0.61	0.750			
0.2645	16927.34	3.9380	3.9381	0.9357	25.41	0.61	0.750			
0.2673	17110.09	3.9350	3.9350	0.9229	25.42	0.62	0.750			
0.2701	17284.53	3.9320	3.9321	0.9354	25.42	0.62	0.750			
0.2729	17467.23	3.9290	3.9291	0.9449	25.42	0.62	0.750			
0.2757	17646.84	3.9260	3.9257	0.9407	25.43	0.63	0.750			
0.2786	17829.58	3.9230	3.9232	0.9440	25.43	0.63	0.750			
0.2814	18011.07	3.9200	3.9201	0.9509	25.43	0.63	0.750			
0.2843	18194.63	3.9170	3.9171	0.9547	25.44	0.64	0.750			
0.2872	18377.92	3.9140	3.9140	0.9507	25.44	0.64	0.750			
0.2901	18566.31	3.9110	3.9110	0.9423	25.44	0.64	0.750			
0.2929	18747.77	3.9080	3.9080	0.9444	25.44	0.64	0.750			
0.2957	18925.41	3.9050	3.9051	0.9566	25.45	0.65	0.750			
0.2986	19109.16	3.9020	3.9021	0.9635	25.45	0.65	0.750			
0.3015	19293.05	3.8990	3.8979	0.9645	25.45	0.65	0.750			
0.3044	19482.73	3.8960	3.8962	0.9546	25.45	0.65	0.750			
0.3073	19665.99	3.8930	3.8932	0.9712	25.45	0.65	0.750			
0.3102	19854.45	3.8900	3.8900	0.9794	25.45	0.65	0.750			
0.3131	20041.47	3.8870	3.8867	0.9732	25.45	0.65	0.750			
0.3161	20228.08	3.8840	3.8842	0.9719	25.45	0.65	0.750			
0.3190	20416.49	3.8810	3.8811	0.9825	25.45	0.65	0.750			
0.3220	20606.86	3.8780	3.8781	0.9870	25.45	0.65	0.750			
0.3249	20795.77	3.8750	3.8749	0.9813	25.45	0.65	0.750			
0.3279	20985.36	3.8720	3.8721	0.9888	25.45	0.65	0.750			
0.3309	21177.53	3.8690	3.8690	0.9754	25.45	0.65	0.750			
0.3338	21360.25	3.8660	3.8662	0.9853	25.44	0.64	0.750			
0.3367	21549.03	3.8630	3.8632	0.9909	25.44	0.64	0.750			
0.3397	21739.65	3.8600	3.8601	0.9899	25.44	0.64	0.750			
0.3426	21928.92	3.8570	3.8572	1.0018	25.44	0.64	0.750			
0.3457	22122.52	3.8540	3.8542	1.0132	25.43	0.63	0.750			
0.3489	22328.31	3.8510	3.8510	1.0059	25.43	0.63	0.750			
0.3517	22511.76	3.8480	3.8482	1.0301	25.43	0.63	0.750			
0.3548	22709.62	3.8450	3.8452	1.0690	25.42	0.62	0.750			
0.3582	22925.90	3.8420	3.8415	1.0844	25.41	0.61	0.750			
0.3615	23137.56	3.8390	3.8394	1.1030	25.41	0.61	0.750			
0.3650	23360.52	3.8360	3.8362	1.0908	25.40	0.60	0.750			
0.3683	23568.48	3.8330	3.8331	1.0946	25.39	0.59	0.750	0.330	0.428	
0.3715	23779.10	3.8300	3.8301	1.0896	25.38	0.58	0.750			
0.3746	23975.78	3.8270	3.8272	1.0727	25.37	0.57	0.750			
0.3779	24182.98	3.8240	3.8240	1.0733	25.37	0.57	0.750			
0.3811	24391.87	3.8210	3.8212	1.0837	25.36	0.56	0.750			
0.3844	24599.02	3.8180	3.8181	1.0805	25.36	0.56	0.750			
0.3877	24809.70	3.8150	3.8150	1.0853	25.35	0.55	0.750			
0.3909	25015.80	3.8120	3.8120	1.0720	25.34	0.54	0.750			
0.3941	25221.51	3.8090	3.8091	1.0765	25.33	0.53	0.750			
0.3973	25428.76	3.8060	3.8060	1.0837	25.32	0.52	0.750			
0.4006	25637.15	3.8030	3.8029	1.0954	25.30	0.50	0.750			
0.4038	25844.35	3.8000	3.8000	1.0881	25.29	0.49	0.750			
0.4071	26053.44	3.7970	3.7970	1.1040	25.29	0.49	0.750			
0.4104	26265.11	3.7940	3.7941	1.1206	25.28	0.48	0.750			
0.4138	26483.75	3.7910	3.7903	1.1334	25.27	0.47	0.750			
0.4172	26701.44	3.7880	3.7881	1.1499	25.26	0.46	0.750			
0.4207	26924.27	3.7850	3.7851	1.1687	25.24	0.44	0.750			
0.4242	27151.80	3.7820	3.7821	1.1881	25.23	0.43	0.750			
0.4278	27380.36	3.7790	3.7790	1.1897	25.21	0.41	0.750			
0.4314	27610.80	3.7760	3.7760	1.2105	25.20	0.40	0.750			
0.4351	27844.50	3.7730	3.7731	1.2349	25.19	0.39	0.750			
0.4389	28087.87	3.7700	3.7699	1.2356	25.18	0.38	0.750			
0.4426	28323.35	3.7670	3.7670	1.2671	25.17	0.37	0.750			
0.4464	28566.40	3.7640	3.7642	1.3064	25.16	0.36	0.750			
0.4503	28818.71	3.7610	3.7608	1.3420	25.14	0.34	0.750			
0.4543	29077.80	3.7580	3.7581	1.3648	25.13	0.33	0.750			
0.4584	29340.70	3.7550	3.7552	1.4008	25.12	0.32	0.750			
0.4627	29613.59	3.7520	3.7518	1.4388	25.10	0.30	0.750			
0.4672	29899.25	3.7490	3.7491	1.4618	25.09	0.29	0.750			
0.4715	30177.40	3.7460	3.7461	1.4811	25.07	0.27	0.750			
0.4760	30462.04	3.7430	3.7431	1.5169	25.05	0.25	0.750			
0.4806	30758.42	3.7400	3.7394	1.5688	25.04	0.24	0.750			
0.4853	31058.58	3.7370	3.7373	1.5778	25.02	0.22	0.750			
0.4901	31368.12	3.7340	3.7335	1.6258	25.00	0.20	0.750			
0.4950	31681.92	3.7310	3.7308	1.6988	24.98	0.18	0.750			
0.5001	32008.22	3.7280	3.7282	1.7444	24.96	0.16	0.750			
0.5055	32352.86	3.7250	3.7255	1.8139	24.95	0.15	0.750			
0.5111	32708.13	3.7220	3.7223	1.8447	24.93	0.13	0.750			
0.5168	33073.08	3.7190	3.7189	1.9071	24.91	0.11	0.750			
0.5225	33442.45	3.7160	3.7161	1.9783	24.89	0.09	0.750			
0.5286	33828.93	3.7130	3.7130	2.0369	24.87	0.07	0.750			
0.5349	34234.12	3.7100	3.7098	2.1094	24.85	0.05	0.750			
0.5412	34636.44	3.7070	3.7073	2.1780	24.84	0.04	0.750			
0.5481	35077.01	3.7040	3.7042	2.2342	24.82	0.02	0.750			
0.5550	35519.18	3.7010	3.7008	2.2897	24.81	0.01	0.750			
0.5617	35948.10	3.6980	3.6981	2.3515	24.79	-0.01	0.750			
0.5689	36409.25	3.6950	3.6952	2.3775	24.77	-0.03	0.750			
0.5759	36860.31	3.6920	3.6919	2.4525	24.75	-0.05	0.750			
0.5835	37344.19	3.6890	3.6887	2.5721	24.73	-0.07	0.750			
0.5915	37853.91	3.6860	3.6859	2.6284	24.72	-0.08	0.750			
0.5996	38375.65	3.6830	3.6830	2.7360	24.70	-0.10	0.750			
0.6075	38882.61	3.6800	3.6799	2.7561	24.69	-0.11	0.750			
0.6159	39416.91	3.6770	3.6772	2.7833	24.68	-0.12	0.750			
0.6244	39958.79	3.6740	3.6742	2.8609	24.66	-0.14	0.750			
0.6329	40508.16	3.6710	3.6708	2.8430	24.66	-0.14	0.750			
0.6415	41057.33	3.6680	3.6681	2.8970	24.66	-0.14	0.750			
0.6506	41640.14	3.6650	3.6648	2.8881	24.64	-0.16	0.750			
0.6593	42192.53	3.6620	3.6621	2.7081	24.65	-0.15	0.750			
0.6672	42699.92	3.6590	3.6590	2.5083	24.66	-0.14	0.750			
0.6740	43138.05	3.6560	3.6562	2.2104	24.67	-0.13	0.750			
0.6802	43532.76	3.6530	3.6532	1.9806	24.67	-0.13	0.750			
0.6859	43896.01	3.6500	3.6502	1.7891	24.68	-0.12	0.750			
0.6908	44212.54	3.6470	3.6471	1.5999	24.68	-0.12	0.750			
0.6954	44504.19	3.6440	3.6441	1.4447	24.69	-0.11	0.750			
0.6994	44762.03	3.6410	3.6410	1.2945	24.70	-0.10	0.750			
0.7030	44989.26	3.6380	3.6380	1.1610	24.70	-0.10	0.750			
0.7061	45190.30	3.6350	3.6350	1.0448	24.70	-0.10	0.750			
0.7090	45375.03	3.6320	3.6320	0.9825	24.70	-0.10	0.750			
0.7118	45553.16	3.6290	3.6290	0.9321	24.70	-0.10	0.750			
0.7145	45725.87	3.6260	3.6260	0.8751	24.70	-0.10	0.750			
0.7170	45890.07	3.6230	3.6231	0.8430	24.71	-0.09	0.750			
0.7195	46046.94	3.6200	3.6203	0.8151	24.72	-0.08	0.750			
0.7219	46200.65	3.6170	3.6165	0.7926	24.73	-0.07	0.750			
0.7242	46347.65	3.6140	3.6140	0.7591	24.74	-0.06	0.750			
0.7265	46494.12	3.6110	3.6111	0.7155	24.75	-0.05	0.750			
0.7287	46635.23	3.6080	3.6082	0.6701	24.76	-0.04	0.750			
0.7307	46762.97	3.6050	3.6052	0.6209	24.77	-0.03	0.750			
0.7324	46874.88	3.6020	3.6022	0.5528	24.78	-0.02	0.750			
0.7339	46970.41	3.5990	3.5992	0.4800	24.78	-0.02	0.750			
0.7353	47057.55	3.5960	3.5963	0.4199	24.79	-0.01	0.750			
0.7364	47132.74	3.5930	3.5932	0.3601	24.79	-0.01	0.750			
0.7375	47198.72	3.5900	3.5899	0.3077	24.80	-0.00	0.750			
0.7383	47250.17	3.5870	3.5872	0.2419	24.80	-0.00	0.750			
0.7389	47289.82	3.5840	3.5843	0.1792	24.80	0.00	0.750			
0.7394	47318.63	3.5810	3.5815	0.1213	24.80	0.00	0.750			
0.7396	47336.18	3.5780	3.5793	0.0683	24.80	0.00	0.750			
