Ah_balance (normalized)	Ah_balance (mAh)	Voltage - fit (V)	Voltage -  interpolate (V)	dQ/dV (1/V)	Temperature (°C)	Temperature - diff (°C)	Current (C)	R_DC 0ms (mOhm)	R_DC 50ms (mOhm)	R_DC 50 ms PEC (mOhm)
0.0466	2985.09	4.1980	4.1979	0.7414	25.55	0.52	0.750			
0.0489	3130.06	4.1950	4.1951	0.7568	25.55	0.52	0.750			
0.0512	3274.88	4.1920	4.1919	0.7599	25.55	0.52	0.750			
0.0535	3421.62	4.1890	4.1891	0.7638	25.55	0.52	0.750			
0.0558	3569.23	4.1860	4.1860	0.7706	25.55	0.52	0.750			
0.0581	3717.84	4.1830	4.1829	0.7729	25.55	0.52	0.750			
0.0604	3867.41	4.1800	4.1800	0.7658	25.55	0.52	0.750			
0.0627	4014.55	4.1770	4.1771	0.7660	25.55	0.52	0.750			
0.0650	4159.73	4.1740	4.1741	0.7710	25.55	0.52	0.750			
0.0673	4307.31	4.1710	4.1709	0.7743	25.55	0.52	0.750			
0.0696	4454.98	4.1680	4.1680	0.7751	25.55	0.52	0.750			
0.0719	4603.97	4.1650	4.1651	0.7778	25.55	0.52	0.750			
0.0743	4756.16	4.1620	4.1621	0.7756	25.55	0.52	0.750			
0.0766	4904.39	4.1590	4.1590	0.7818	25.55	0.52	0.750			
0.0789	5052.77	4.1560	4.1561	0.7793	25.55	0.52	0.750			
0.0813	5201.53	4.1530	4.1525	0.7819	25.55	0.52	0.750			
0.0836	5352.48	4.1500	4.1501	0.7860	25.55	0.52	0.750			
0.0860	5504.37	4.1470	4.1470	0.7912	25.55	0.52	0.750			
0.0884	5658.51	4.1440	4.1440	0.7961	25.55	0.52	0.750			
0.0908	5809.81	4.1410	4.1411	0.7920	25.55	0.52	0.750			
0.0932	5962.28	4.1380	4.1379	0.7919	25.55	0.52	0.750			
0.0956	6115.43	4.1350	4.1351	0.7961	25.55	0.52	0.750			
0.0980	6269.90	4.1320	4.1320	0.7905	25.56	0.53	0.750			
0.1003	6420.96	4.1290	4.1290	0.7937	25.56	0.53	0.750			
0.1027	6572.09	4.1260	4.1261	0.7937	25.56	0.53	0.750			
0.1051	6723.41	4.1230	4.1231	0.7932	25.57	0.54	0.750			
0.1074	6875.77	4.1200	4.1200	0.7959	25.57	0.54	0.750			
0.1099	7031.95	4.1170	4.1170	0.7911	25.57	0.54	0.750			
0.1122	7182.39	4.1140	4.1140	0.7965	25.57	0.54	0.750			
0.1146	7336.18	4.1110	4.1110	0.8044	25.57	0.54	0.750			
0.1170	7488.19	4.1080	4.1081	0.8054	25.57	0.54	0.750			
0.1194	7642.89	4.1050	4.1049	0.8088	25.57	0.54	0.750			
0.1219	7799.97	4.1020	4.1021	0.8134	25.57	0.54	0.750			
0.1243	7958.01	4.0990	4.0990	0.8176	25.57	0.54	0.750			
0.1268	8115.58	4.0960	4.0960	0.8221	25.57	0.54	0.750			
0.1293	8272.80	4.0930	4.0930	0.8194	25.57	0.54	0.750			
0.1317	8429.92	4.0900	4.0900	0.8215	25.57	0.54	0.750			
0.1342	8590.63	4.0870	4.0869	0.8176	25.57	0.54	0.750			
0.1367	8746.94	4.0840	4.0841	0.8228	25.57	0.54	0.750			
0.1391	8903.53	4.0810	4.0810	0.8251	25.58	0.55	0.750			
0.1416	9061.68	4.0780	4.0780	0.8259	25.58	0.55	0.750			
0.1440	9219.03	4.0750	4.0748	0.8263	25.58	0.55	0.750			
0.1466	9381.48	4.0720	4.0721	0.8242	25.58	0.55	0.750			
0.1491	9539.97	4.0690	4.0691	0.8324	25.58	0.55	0.750			
0.1516	9699.82	4.0660	4.0660	0.8374	25.59	0.56	0.750			
0.1541	9859.41	4.0630	4.0630	0.8343	25.59	0.56	0.750			
0.1566	10019.35	4.0600	4.0598	0.8363	25.59	0.56	0.750			
0.1591	10181.85	4.0570	4.0571	0.8419	25.59	0.56	0.750			
0.1616	10343.88	4.0540	4.0540	0.8482	25.59	0.56	0.750			
0.1642	10507.90	4.0510	4.0510	0.8551	25.59	0.56	0.750			
0.1667	10671.22	4.0480	4.0480	0.8522	25.59	0.56	0.750			
0.1693	10835.38	4.0450	4.0451	0.8581	25.59	0.56	0.750			
0.1719	11003.04	4.0420	4.0420	0.8593	25.60	0.57	0.750			
0.1745	11168.11	4.0390	4.0390	0.8629	25.60	0.57	0.750			
0.1771	11332.22	4.0360	4.0360	0.8681	25.60	0.57	0.750			
0.1797	11498.61	4.0330	4.0332	0.8710	25.61	0.58	0.750			
0.1823	11666.80	4.0300	4.0299	0.8742	25.61	0.58	0.750			
0.1850	11837.38	4.0270	4.0271	0.8687	25.61	0.58	0.750			
0.1876	12004.07	4.0240	4.0241	0.8745	25.61	0.58	0.750			
0.1902	12172.01	4.0210	4.0210	0.8776	25.61	0.58	0.750			
0.1928	12338.50	4.0180	4.0182	0.8767	25.61	0.58	0.750			
0.1954	12507.20	4.0150	4.0151	0.8803	25.61	0.58	0.750			
0.1981	12677.31	4.0120	4.0121	0.8875	25.61	0.58	0.750			
0.2008	12849.81	4.0090	4.0090	0.8943	25.61	0.58	0.750			
0.2035	13024.83	4.0060	4.0060	0.9017	25.61	0.58	0.750			
0.2062	13194.22	4.0030	4.0030	0.8948	25.61	0.58	0.750			
0.2089	13367.91	4.0000	4.0000	0.8932	25.61	0.58	0.750			
0.2115	13539.13	3.9970	3.9970	0.8951	25.61	0.58	0.750			
0.2142	13710.60	3.9940	3.9940	0.9022	25.62	0.59	0.750			
0.2169	13883.47	3.9910	3.9910	0.9021	25.62	0.59	0.750			
0.2196	14055.64	3.9880	3.9880	0.9081	25.62	0.59	0.750			
0.2224	14233.10	3.9850	3.9850	0.8992	25.62	0.59	0.750			
0.2251	14405.71	3.9820	3.9821	0.9082	25.63	0.60	0.750			
0.2278	14579.75	3.9790	3.9791	0.9130	25.63	0.60	0.750			
0.2305	14753.86	3.9760	3.9759	0.9132	25.63	0.60	0.750			
0.2333	14930.35	3.9730	3.9731	0.9136	25.63	0.60	0.750			
0.2360	15105.95	3.9700	3.9700	0.9218	25.63	0.60	0.750			
0.2388	15282.75	3.9670	3.9671	0.9274	25.63	0.60	0.750			
0.2416	15464.50	3.9640	3.9640	0.9378	25.63	0.60	0.750			
0.2444	15641.90	3.9610	3.9609	0.9337	25.63	0.60	0.750			
0.2472	15823.03	3.9580	3.9580	0.9328	25.63	0.60	0.750			
0.2500	16002.57	3.9550	3.9550	0.9348	25.64	0.61	0.750			
0.2528	16181.44	3.9520	3.9521	0.9386	25.64	0.61	0.750			
0.2556	16359.81	3.9490	3.9488	0.9392	25.64	0.61	0.750			
0.2585	16545.09	3.9460	3.9459	0.9283	25.64	0.61	0.750			
0.2613	16720.56	3.9430	3.9430	0.9336	25.64	0.61	0.750			
0.2641	16899.39	3.9400	3.9401	0.9398	25.65	0.62	0.750			
0.2669	17079.76	3.9370	3.9371	0.9485	25.65	0.62	0.750			
0.2697	17259.98	3.9340	3.9340	0.9506	25.65	0.62	0.750			
0.2726	17443.47	3.9310	3.9311	0.9520	25.65	0.62	0.750			
0.2754	17628.17	3.9280	3.9281	0.9601	25.65	0.62	0.750			
0.2784	17816.21	3.9250	3.9250	0.9642	25.65	0.62	0.750			
0.2812	17999.43	3.9220	3.9218	0.9564	25.65	0.62	0.750			
0.2841	18184.01	3.9190	3.9191	0.9517	25.65	0.62	0.750			
0.2870	18365.82	3.9160	3.9160	0.9630	25.66	0.63	0.750			
0.2899	18551.74	3.9130	3.9130	0.9695	25.66	0.63	0.750			
0.2928	18737.83	3.9100	3.9099	0.9711	25.67	0.64	0.750			
0.2958	18928.87	3.9070	3.9071	0.9597	25.67	0.64	0.750			
0.2986	19113.55	3.9040	3.9041	0.9710	25.67	0.64	0.750			
0.3015	19297.82	3.9010	3.9010	0.9785	25.67	0.64	0.750			
0.3045	19485.29	3.8980	3.8980	0.9842	25.67	0.64	0.750			
0.3074	19674.18	3.8950	3.8952	0.9820	25.67	0.64	0.750			
0.3104	19863.29	3.8920	3.8921	0.9916	25.67	0.64	0.750			
0.3134	20056.63	3.8890	3.8891	1.0019	25.67	0.64	0.750			
0.3164	20251.38	3.8860	3.8860	1.0055	25.67	0.64	0.750			
0.3194	20443.92	3.8830	3.8831	0.9982	25.67	0.64	0.750			
0.3224	20635.32	3.8800	3.8800	1.0043	25.67	0.64	0.750			
0.3254	20828.79	3.8770	3.8771	1.0109	25.67	0.64	0.750			
0.3285	21023.62	3.8740	3.8741	1.0161	25.67	0.64	0.750			
0.3316	21219.36	3.8710	3.8708	1.0172	25.67	0.64	0.750			
0.3346	21415.08	3.8680	3.8680	1.0119	25.67	0.64	0.750			
0.3376	21608.05	3.8650	3.8651	1.0174	25.67	0.64	0.750			
0.3407	21802.68	3.8620	3.8621	1.0219	25.67	0.64	0.750			
0.3437	21999.18	3.8590	3.8584	1.0253	25.67	0.64	0.750			
0.3468	22197.20	3.8560	3.8561	1.0279	25.67	0.64	0.750			
0.3499	22394.95	3.8530	3.8531	1.0399	25.67	0.64	0.750			
0.3531	22598.72	3.8500	3.8500	1.0472	25.66	0.63	0.750			
0.3563	22801.03	3.8470	3.8468	1.0504	25.66	0.63	0.750			
0.3594	22998.47	3.8440	3.8440	1.0437	25.65	0.62	0.750			
0.3625	23199.74	3.8410	3.8411	1.0498	25.64	0.61	0.750			
0.3656	23400.25	3.8380	3.8380	1.0649	25.64	0.61	0.750			
0.3689	23609.78	3.8350	3.8348	1.0641	25.63	0.60	0.750			
0.3720	23810.62	3.8320	3.8321	1.0753	25.62	0.59	0.750	0.334	0.416	
0.3753	24018.46	3.8290	3.8291	1.0949	25.62	0.59	0.750			
0.3786	24231.00	3.8260	3.8262	1.1086	25.61	0.58	0.750			
0.3820	24447.25	3.8230	3.8228	1.1165	25.61	0.58	0.750			
0.3853	24662.24	3.8200	3.8201	1.1150	25.60	0.57	0.750			
0.3887	24877.74	3.8170	3.8171	1.1159	25.60	0.57	0.750			
0.3921	25093.65	3.8140	3.8140	1.1172	25.59	0.56	0.750			
0.3954	25304.76	3.8110	3.8110	1.1060	25.58	0.55	0.750			
0.3987	25514.11	3.8080	3.8080	1.1080	25.57	0.54	0.750			
0.4020	25727.04	3.8050	3.8050	1.1205	25.56	0.53	0.750			
0.4054	25944.45	3.8020	3.8019	1.1320	25.55	0.52	0.750			
0.4088	26164.01	3.7990	3.7991	1.1280	25.54	0.51	0.750			
0.4122	26379.39	3.7960	3.7961	1.1341	25.53	0.50	0.750			
0.4155	26594.62	3.7930	3.7932	1.1488	25.52	0.49	0.750			
0.4190	26817.27	3.7900	3.7896	1.1593	25.51	0.48	0.750			
0.4225	27037.07	3.7870	3.7871	1.1770	25.50	0.47	0.750			
0.4259	27260.33	3.7840	3.7841	1.1999	25.49	0.46	0.750			
0.4296	27494.26	3.7810	3.7811	1.2360	25.48	0.45	0.750			
0.4334	27736.78	3.7780	3.7781	1.2819	25.47	0.44	0.750			
0.4372	27979.82	3.7750	3.7745	1.3011	25.46	0.43	0.750			
0.4412	28237.36	3.7720	3.7724	1.3189	25.44	0.41	0.750			
0.4453	28498.63	3.7690	3.7691	1.3460	25.42	0.39	0.750			
0.4494	28763.23	3.7660	3.7660	1.3591	25.41	0.38	0.750			
0.4534	29015.78	3.7630	3.7630	1.3409	25.39	0.36	0.750			
0.4575	29277.57	3.7600	3.7600	1.3755	25.38	0.35	0.750			
0.4616	29541.23	3.7570	3.7570	1.3983	25.37	0.34	0.750			
0.4658	29814.03	3.7540	3.7541	1.4235	25.36	0.33	0.750			
0.4702	30091.31	3.7510	3.7510	1.4548	25.34	0.31	0.750			
0.4746	30371.25	3.7480	3.7480	1.4871	25.33	0.30	0.750			
0.4790	30658.12	3.7450	3.7450	1.5246	25.31	0.28	0.750			
0.4837	30954.17	3.7420	3.7421	1.5595	25.29	0.26	0.750			
0.4883	31254.12	3.7390	3.7389	1.6077	25.28	0.25	0.750			
0.4933	31568.81	3.7360	3.7359	1.6513	25.27	0.24	0.750			
0.4982	31887.81	3.7330	3.7331	1.7032	25.26	0.23	0.750			
0.5035	32224.58	3.7300	3.7300	1.7534	25.24	0.21	0.750			
0.5088	32563.16	3.7270	3.7270	1.8094	25.22	0.19	0.750			
0.5143	32915.80	3.7240	3.7241	1.8494	25.20	0.17	0.750			
0.5200	33278.32	3.7210	3.7210	1.9089	25.19	0.16	0.750			
0.5257	33644.63	3.7180	3.7180	1.9722	25.17	0.14	0.750			
0.5318	34032.72	3.7150	3.7148	2.0187	25.15	0.12	0.750			
0.5379	34426.23	3.7120	3.7120	2.0769	25.13	0.10	0.750			
0.5442	34827.50	3.7090	3.7092	2.1499	25.12	0.09	0.750			
0.5508	35249.41	3.7060	3.7059	2.2219	25.10	0.07	0.750			
0.5574	35676.43	3.7030	3.7029	2.2850	25.08	0.05	0.750			
0.5644	36124.13	3.7000	3.7001	2.3629	25.05	0.02	0.750			
0.5716	36583.77	3.6970	3.6969	2.4196	25.04	0.01	0.750			
0.5790	37054.31	3.6940	3.6939	2.4672	25.02	-0.01	0.750			
0.5866	37540.67	3.6910	3.6909	2.5110	25.01	-0.02	0.750			
0.5941	38020.62	3.6880	3.6880	2.5925	24.99	-0.04	0.750			
0.6019	38524.62	3.6850	3.6850	2.6883	24.98	-0.05	0.750			
0.6102	39049.92	3.6820	3.6821	2.7550	24.97	-0.06	0.750			
0.6186	39592.23	3.6790	3.6793	2.8181	24.96	-0.07	0.750			
0.6271	40134.09	3.6760	3.6760	2.8526	24.95	-0.08	0.750			
0.6357	40687.63	3.6730	3.6730	2.9497	24.94	-0.09	0.750			
0.6449	41272.77	3.6700	3.6699	2.9992	24.93	-0.10	0.750			
0.6540	41858.75	3.6670	3.6671	2.9720	24.92	-0.11	0.750			
0.6629	42426.39	3.6640	3.6638	2.8676	24.93	-0.10	0.750			
0.6713	42964.69	3.6610	3.6610	2.6685	24.93	-0.10	0.750			
0.6791	43461.60	3.6580	3.6580	2.4721	24.94	-0.09	0.750			
0.6861	43913.24	3.6550	3.6550	2.2308	24.95	-0.08	0.750			
0.6923	44308.94	3.6520	3.6521	1.9912	24.96	-0.07	0.750			
0.6980	44674.59	3.6490	3.6492	1.8043	24.96	-0.07	0.750			
0.7031	45000.82	3.6460	3.6461	1.6085	24.97	-0.06	0.750			
0.7077	45295.24	3.6430	3.6431	1.4284	24.97	-0.06	0.750			
0.7117	45545.86	3.6400	3.6402	1.2656	24.97	-0.06	0.750			
0.7151	45766.04	3.6370	3.6370	1.1196	24.98	-0.05	0.750			
0.7181	45955.71	3.6340	3.6338	1.0145	24.98	-0.05	0.750			
0.7208	46129.21	3.6310	3.6310	0.9224	24.98	-0.05	0.750			
0.7234	46299.56	3.6280	3.6280	0.8742	24.99	-0.04	0.750			
0.7260	46461.94	3.6250	3.6250	0.8422	24.99	-0.04	0.750			
0.7284	46618.45	3.6220	3.6221	0.8165	25.00	-0.03	0.750			
0.7308	46773.87	3.6190	3.6191	0.7951	25.00	-0.03	0.750			
0.7332	46926.82	3.6160	3.6160	0.7596	25.00	-0.03	0.750			
0.7355	47071.80	3.6130	3.6131	0.7192	25.01	-0.02	0.750			
0.7377	47212.56	3.6100	3.6101	0.6650	25.02	-0.01	0.750			
0.7397	47339.74	3.6070	3.6070	0.5985	25.02	-0.01	0.750			
0.7413	47445.61	3.6040	3.6039	0.5156	25.02	-0.01	0.750			
0.7427	47534.19	3.6010	3.6011	0.4452	25.03	-0.00	0.750			
0.7439	47609.01	3.5980	3.5981	0.3741	25.03	0.00	0.750			
0.7449	47673.71	3.5950	3.5946	0.3100	25.03	0.00	0.750			
0.7457	47725.27	3.5920	3.5919	0.2487	25.03	0.00	0.750			
0.7464	47767.62	3.5890	3.5893	0.1955	25.04	0.01	0.750			
0.7469	47801.16	3.5860	3.5866	0.1392	25.04	0.01	0.750			
0.7472	47823.11	3.5830	3.5837	0.0561	25.04	0.01	0.750			
