Ah_balance (normalized)	Ah_balance (mAh)	Voltage - fit (V)	Voltage -  interpolate (V)	dQ/dV (1/V)	Temperature (°C)	Temperature - diff (°C)	Current (C)	R_DC 0ms (mOhm)	R_DC 50ms (mOhm)	R_DC 50 ms PEC (mOhm)
0.0486	3113.41	4.1960	4.1959	0.7507	25.77	0.44	0.750			
0.0509	3256.73	4.1930	4.1931	0.7457	25.77	0.44	0.750			
0.0531	3399.77	4.1900	4.1900	0.7493	25.77	0.44	0.750			
0.0554	3543.27	4.1870	4.1871	0.7570	25.77	0.44	0.750			
0.0576	3688.92	4.1840	4.1837	0.7580	25.77	0.44	0.750			
0.0599	3836.51	4.1810	4.1811	0.7602	25.77	0.44	0.750			
0.0623	3985.41	4.1780	4.1780	0.7551	25.77	0.44	0.750			
0.0645	4129.56	4.1750	4.1752	0.7606	25.77	0.44	0.750			
0.0668	4273.29	4.1720	4.1721	0.7596	25.77	0.44	0.750			
0.0690	4418.76	4.1690	4.1689	0.7622	25.77	0.44	0.750			
0.0713	4565.40	4.1660	4.1660	0.7661	25.77	0.44	0.750			
0.0737	4715.75	4.1630	4.1631	0.7711	25.77	0.44	0.750			
0.0760	4864.08	4.1600	4.1600	0.7726	25.77	0.44	0.750			
0.0784	5015.22	4.1570	4.1570	0.7740	25.78	0.45	0.750			
0.0806	5160.16	4.1540	4.1541	0.7679	25.78	0.45	0.750			
0.0829	5306.45	4.1510	4.1509	0.7693	25.78	0.45	0.750			
0.0852	5455.09	4.1480	4.1480	0.7739	25.78	0.45	0.750			
0.0876	5606.62	4.1450	4.1450	0.7630	25.78	0.45	0.750			
0.0899	5750.45	4.1420	4.1420	0.7709	25.78	0.45	0.750			
0.0921	5897.06	4.1390	4.1392	0.7705	25.78	0.45	0.750			
0.0945	6046.19	4.1360	4.1357	0.7746	25.78	0.45	0.750			
0.0968	6194.29	4.1330	4.1331	0.7811	25.78	0.45	0.750			
0.0992	6349.30	4.1300	4.1301	0.7690	25.78	0.45	0.750			
0.1015	6495.56	4.1270	4.1270	0.7757	25.79	0.46	0.750			
0.1038	6644.77	4.1240	4.1241	0.7731	25.79	0.46	0.750			
0.1061	6792.19	4.1210	4.1212	0.7769	25.79	0.46	0.750			
0.1084	6940.20	4.1180	4.1179	0.7824	25.79	0.46	0.750			
0.1108	7091.78	4.1150	4.1151	0.7878	25.79	0.46	0.750			
0.1132	7243.88	4.1120	4.1120	0.7924	25.79	0.46	0.750			
0.1156	7399.70	4.1090	4.1090	0.7974	25.79	0.46	0.750			
0.1180	7551.40	4.1060	4.1061	0.7905	25.79	0.46	0.750			
0.1204	7704.00	4.1030	4.1030	0.7955	25.79	0.46	0.750			
0.1228	7856.77	4.1000	4.1000	0.7987	25.79	0.46	0.750			
0.1252	8009.65	4.0970	4.0970	0.7948	25.79	0.46	0.750			
0.1275	8162.32	4.0940	4.0940	0.7979	25.79	0.46	0.750			
0.1299	8316.67	4.0910	4.0910	0.7989	25.79	0.46	0.750			
0.1323	8469.61	4.0880	4.0874	0.8013	25.79	0.46	0.750			
0.1347	8622.63	4.0850	4.0851	0.8036	25.79	0.46	0.750			
0.1372	8781.01	4.0820	4.0819	0.7878	25.79	0.46	0.750			
0.1395	8930.44	4.0790	4.0790	0.8025	25.80	0.47	0.750			
0.1419	9084.77	4.0760	4.0761	0.8087	25.80	0.47	0.750			
0.1443	9236.66	4.0730	4.0728	0.8149	25.80	0.47	0.750			
0.1468	9394.84	4.0700	4.0702	0.8231	25.80	0.47	0.750			
0.1493	9553.85	4.0670	4.0670	0.8241	25.80	0.47	0.750			
0.1518	9714.13	4.0640	4.0641	0.8308	25.81	0.48	0.750			
0.1543	9875.68	4.0610	4.0612	0.8243	25.81	0.48	0.750			
0.1568	10034.52	4.0580	4.0579	0.8287	25.81	0.48	0.750			
0.1593	10194.40	4.0550	4.0550	0.8290	25.81	0.48	0.750			
0.1618	10353.40	4.0520	4.0520	0.8265	25.81	0.48	0.750			
0.1643	10513.17	4.0490	4.0490	0.8327	25.81	0.48	0.750			
0.1668	10672.83	4.0460	4.0461	0.8340	25.81	0.48	0.750			
0.1692	10831.60	4.0430	4.0427	0.8329	25.81	0.48	0.750			
0.1717	10991.90	4.0400	4.0400	0.8364	25.81	0.48	0.750			
0.1742	11151.95	4.0370	4.0371	0.8407	25.82	0.49	0.750			
0.1767	11311.30	4.0340	4.0340	0.8365	25.82	0.49	0.750			
0.1792	11471.56	4.0310	4.0311	0.8448	25.83	0.50	0.750			
0.1818	11632.33	4.0280	4.0278	0.8456	25.83	0.50	0.750			
0.1843	11795.80	4.0250	4.0253	0.8548	25.83	0.50	0.750			
0.1869	11962.27	4.0220	4.0221	0.8583	25.83	0.50	0.750			
0.1895	12128.87	4.0190	4.0190	0.8616	25.83	0.50	0.750			
0.1922	12298.31	4.0160	4.0160	0.8766	25.83	0.50	0.750			
0.1947	12459.25	4.0130	4.0129	0.8594	25.83	0.50	0.750			
0.1973	12627.09	4.0100	4.0099	0.8587	25.83	0.50	0.750			
0.1999	12791.70	4.0070	4.0070	0.8640	25.84	0.51	0.750			
0.2025	12957.02	4.0040	4.0041	0.8667	25.84	0.51	0.750			
0.2050	13122.48	4.0010	4.0011	0.8731	25.85	0.52	0.750			
0.2077	13291.38	3.9980	3.9978	0.8765	25.85	0.52	0.750			
0.2103	13461.45	3.9950	3.9951	0.8740	25.85	0.52	0.750			
0.2130	13629.78	3.9920	3.9921	0.8831	25.86	0.53	0.750			
0.2156	13800.65	3.9890	3.9891	0.8863	25.86	0.53	0.750			
0.2183	13969.77	3.9860	3.9861	0.8843	25.87	0.54	0.750			
0.2209	14138.87	3.9830	3.9831	0.8850	25.87	0.54	0.750			
0.2236	14308.58	3.9800	3.9801	0.8868	25.87	0.54	0.750			
0.2263	14481.00	3.9770	3.9769	0.8912	25.87	0.54	0.750			
0.2289	14652.53	3.9740	3.9741	0.8893	25.87	0.54	0.750			
0.2316	14822.12	3.9710	3.9709	0.8884	25.87	0.54	0.750			
0.2343	14993.36	3.9680	3.9681	0.8940	25.87	0.54	0.750			
0.2370	15164.95	3.9650	3.9649	0.8929	25.88	0.55	0.750			
0.2396	15335.17	3.9620	3.9621	0.8964	25.88	0.55	0.750			
0.2423	15507.78	3.9590	3.9590	0.8996	25.89	0.56	0.750			
0.2450	15680.71	3.9560	3.9558	0.8997	25.89	0.56	0.750			
0.2478	15857.75	3.9530	3.9530	0.8916	25.89	0.56	0.750			
0.2504	16025.61	3.9500	3.9501	0.8987	25.89	0.56	0.750			
0.2531	16197.97	3.9470	3.9471	0.9045	25.89	0.56	0.750			
0.2558	16370.49	3.9440	3.9441	0.9085	25.89	0.56	0.750			
0.2585	16545.14	3.9410	3.9410	0.9167	25.89	0.56	0.750			
0.2613	16723.58	3.9380	3.9381	0.9217	25.89	0.56	0.750			
0.2641	16904.18	3.9350	3.9351	0.9277	25.89	0.56	0.750			
0.2669	17083.42	3.9320	3.9320	0.9264	25.89	0.56	0.750			
0.2697	17259.39	3.9290	3.9290	0.9158	25.89	0.56	0.750			
0.2725	17437.35	3.9260	3.9260	0.9120	25.89	0.56	0.750			
0.2752	17610.98	3.9230	3.9230	0.9109	25.89	0.56	0.750			
0.2779	17785.21	3.9200	3.9200	0.9139	25.90	0.57	0.750			
0.2806	17960.18	3.9170	3.9171	0.9175	25.90	0.57	0.750			
0.2834	18136.08	3.9140	3.9140	0.9204	25.90	0.57	0.750			
0.2862	18316.96	3.9110	3.9110	0.9022	25.90	0.57	0.750			
0.2889	18487.77	3.9080	3.9081	0.9187	25.90	0.57	0.750			
0.2916	18664.03	3.9050	3.9052	0.9227	25.90	0.57	0.750			
0.2944	18840.44	3.9020	3.9016	0.9230	25.90	0.57	0.750			
0.2972	19019.10	3.8990	3.8992	0.9248	25.90	0.57	0.750			
0.3000	19197.22	3.8960	3.8961	0.9295	25.90	0.57	0.750			
0.3028	19377.57	3.8930	3.8931	0.9342	25.89	0.56	0.750			
0.3056	19557.93	3.8900	3.8900	0.9256	25.89	0.56	0.750			
0.3084	19735.98	3.8870	3.8870	0.9297	25.89	0.56	0.750			
0.3112	19916.03	3.8840	3.8840	0.9287	25.88	0.55	0.750			
0.3140	20093.74	3.8810	3.8810	0.9300	25.88	0.55	0.750			
0.3168	20272.79	3.8780	3.8781	0.9349	25.87	0.54	0.750			
0.3196	20451.83	3.8750	3.8746	0.9321	25.87	0.54	0.750			
0.3225	20637.16	3.8720	3.8720	0.9182	25.86	0.53	0.750			
0.3251	20809.08	3.8690	3.8691	0.9242	25.85	0.52	0.750			
0.3279	20985.23	3.8660	3.8661	0.9287	25.84	0.51	0.750			
0.3307	21163.66	3.8630	3.8631	0.9339	25.84	0.51	0.750			
0.3334	21339.87	3.8600	3.8602	0.9351	25.83	0.50	0.750			
0.3363	21520.78	3.8570	3.8572	0.9439	25.82	0.49	0.750			
0.3392	21706.86	3.8540	3.8540	0.9526	25.82	0.49	0.750			
0.3421	21891.64	3.8510	3.8511	0.9554	25.81	0.48	0.750			
0.3449	22073.76	3.8480	3.8480	0.9459	25.81	0.48	0.750			
0.3479	22262.78	3.8450	3.8449	0.9258	25.80	0.47	0.750			
0.3505	22434.74	3.8420	3.8420	0.9364	25.80	0.47	0.750			
0.3533	22608.72	3.8390	3.8392	0.9513	25.79	0.46	0.750			
0.3561	22791.37	3.8360	3.8361	0.9667	25.78	0.45	0.750	0.299	0.400	
0.3591	22980.02	3.8330	3.8333	0.9788	25.78	0.45	0.750			
0.3621	23171.21	3.8300	3.8301	0.9756	25.77	0.44	0.750			
0.3650	23359.42	3.8270	3.8273	0.9894	25.76	0.43	0.750			
0.3680	23552.17	3.8240	3.8242	0.9980	25.75	0.42	0.750			
0.3709	23740.27	3.8210	3.8212	0.9869	25.75	0.42	0.750			
0.3739	23930.50	3.8180	3.8181	0.9951	25.74	0.41	0.750			
0.3769	24124.06	3.8150	3.8151	1.0093	25.73	0.40	0.750			
0.3800	24322.02	3.8120	3.8120	1.0179	25.72	0.39	0.750			
0.3831	24518.80	3.8090	3.8090	1.0114	25.71	0.38	0.750			
0.3861	24712.23	3.8060	3.8061	1.0212	25.70	0.37	0.750			
0.3892	24907.44	3.8030	3.8030	1.0345	25.69	0.36	0.750			
0.3923	25107.12	3.8000	3.8001	1.0487	25.68	0.35	0.750			
0.3955	25314.18	3.7970	3.7970	1.0472	25.67	0.34	0.750			
0.3986	25512.07	3.7940	3.7941	1.0652	25.66	0.33	0.750			
0.4018	25716.73	3.7910	3.7911	1.0892	25.65	0.32	0.750			
0.4051	25926.69	3.7880	3.7882	1.1132	25.64	0.31	0.750			
0.4085	26144.43	3.7850	3.7850	1.1198	25.63	0.30	0.750			
0.4119	26360.35	3.7820	3.7822	1.1449	25.62	0.29	0.750			
0.4154	26583.71	3.7790	3.7792	1.1699	25.60	0.27	0.750			
0.4190	26813.73	3.7760	3.7758	1.1835	25.59	0.26	0.750			
0.4225	27039.22	3.7730	3.7731	1.1929	25.58	0.25	0.750			
0.4261	27267.89	3.7700	3.7701	1.2188	25.57	0.24	0.750			
0.4298	27504.65	3.7670	3.7671	1.2534	25.57	0.24	0.750			
0.4336	27748.20	3.7640	3.7642	1.2622	25.56	0.23	0.750			
0.4374	27991.11	3.7610	3.7611	1.2911	25.54	0.21	0.750			
0.4413	28243.88	3.7580	3.7582	1.3206	25.53	0.20	0.750			
0.4453	28500.20	3.7550	3.7547	1.3535	25.52	0.19	0.750			
0.4494	28760.46	3.7520	3.7521	1.3627	25.51	0.18	0.750			
0.4536	29027.63	3.7490	3.7491	1.3888	25.49	0.16	0.750			
0.4578	29302.30	3.7460	3.7459	1.4140	25.48	0.15	0.750			
0.4620	29566.91	3.7430	3.7424	1.4607	25.46	0.13	0.750			
0.4665	29854.95	3.7400	3.7403	1.4812	25.45	0.12	0.750			
0.4710	30145.88	3.7370	3.7368	1.5217	25.44	0.11	0.750			
0.4757	30446.23	3.7340	3.7337	1.5634	25.42	0.09	0.750			
0.4804	30743.28	3.7310	3.7315	1.6069	25.41	0.08	0.750			
0.4853	31057.77	3.7280	3.7283	1.6695	25.39	0.06	0.750			
0.4904	31383.04	3.7250	3.7252	1.7148	25.38	0.05	0.750			
0.4955	31710.74	3.7220	3.7221	1.7826	25.37	0.04	0.750			
0.5012	32074.59	3.7190	3.7186	1.8303	25.35	0.02	0.750			
0.5068	32434.16	3.7160	3.7159	1.8590	25.33	0.00	0.750			
0.5125	32801.98	3.7130	3.7133	1.9001	25.32	-0.01	0.750			
0.5183	33169.46	3.7100	3.7103	1.9638	25.30	-0.03	0.750			
0.5242	33551.80	3.7070	3.7063	2.0306	25.29	-0.04	0.750			
0.5304	33942.49	3.7040	3.7038	2.0554	25.27	-0.06	0.750			
0.5366	34344.58	3.7010	3.7015	2.2253	25.26	-0.07	0.750			
0.5435	34782.18	3.6980	3.6982	2.1747	25.25	-0.08	0.750			
0.5502	35214.05	3.6950	3.6949	2.2773	25.24	-0.09	0.750			
0.5570	35647.18	3.6920	3.6916	2.2763	25.22	-0.11	0.750			
0.5640	36097.02	3.6890	3.6894	2.3786	25.21	-0.12	0.750			
0.5716	36580.72	3.6860	3.6856	2.5042	25.20	-0.13	0.750			
0.5790	37055.33	3.6830	3.6833	2.5540	25.19	-0.14	0.750			
0.5869	37559.39	3.6800	3.6805	2.5486	25.18	-0.15	0.750			
0.5947	38060.55	3.6770	3.6764	2.6251	25.17	-0.16	0.750			
0.6027	38569.91	3.6740	3.6737	2.7725	25.17	-0.16	0.750			
0.6107	39083.41	3.6710	3.6715	2.6309	25.17	-0.16	0.750			
0.6188	39604.56	3.6680	3.6681	2.6861	25.18	-0.15	0.750			
0.6265	40095.71	3.6650	3.6642	2.5666	25.19	-0.14	0.750			
0.6342	40589.10	3.6620	3.6619	2.4889	25.20	-0.13	0.750			
0.6417	41070.73	3.6590	3.6591	2.2739	25.20	-0.13	0.750			
0.6479	41462.96	3.6560	3.6562	2.0342	25.20	-0.13	0.750			
0.6534	41819.78	3.6530	3.6529	1.8098	25.21	-0.12	0.750			
0.6585	42141.29	3.6500	3.6498	1.6224	25.22	-0.11	0.750			
0.6627	42411.05	3.6470	3.6471	1.4456	25.23	-0.10	0.750			
0.6668	42673.08	3.6440	3.6441	1.3341	25.24	-0.09	0.750			
0.6706	42915.80	3.6410	3.6408	1.2294	25.24	-0.09	0.750			
0.6740	43138.22	3.6380	3.6382	1.1480	25.25	-0.08	0.750			
0.6773	43348.19	3.6350	3.6350	1.0810	25.26	-0.07	0.750			
0.6805	43551.39	3.6320	3.6319	1.0206	25.27	-0.06	0.750			
0.6834	43736.75	3.6290	3.6290	0.9798	25.27	-0.06	0.750			
0.6863	43920.24	3.6260	3.6260	0.9437	25.28	-0.05	0.750			
0.6890	44096.15	3.6230	3.6232	0.9245	25.29	-0.04	0.750			
0.6917	44271.05	3.6200	3.6202	0.8992	25.29	-0.04	0.750			
0.6944	44443.68	3.6170	3.6167	0.8624	25.30	-0.03	0.750			
0.6970	44610.77	3.6140	3.6141	0.8295	25.31	-0.02	0.750			
0.6996	44771.91	3.6110	3.6110	0.7719	25.31	-0.02	0.750			
0.7018	44913.70	3.6080	3.6081	0.7070	25.32	-0.01	0.750			
0.7038	45040.54	3.6050	3.6050	0.6370	25.32	-0.01	0.750			
0.7056	45155.23	3.6020	3.6020	0.5759	25.33	-0.00	0.750			
0.7072	45258.36	3.5990	3.5983	0.5186	25.33	-0.00	0.750			
0.7086	45352.20	3.5960	3.5960	0.4638	25.33	0.00	0.750			
0.7099	45436.06	3.5930	3.5931	0.4117	25.34	0.01	0.750			
0.7111	45511.65	3.5900	3.5899	0.3612	25.34	0.01	0.750			
0.7121	45575.75	3.5870	3.5871	0.3046	25.34	0.01	0.750			
0.7130	45629.42	3.5840	3.5839	0.2517	25.34	0.01	0.750			
0.7136	45672.96	3.5810	3.5811	0.1981	25.35	0.02	0.750			
0.7142	45706.55	3.5780	3.5784	0.1423	25.35	0.02	0.750			
0.7145	45729.98	3.5750	3.5761	0.0796	25.35	0.02	0.750			
0.7147	45739.08	3.5720	3.5753	0.0161	25.35	0.02	0.750			
