Ah_balance (normalized)	Ah_balance (mAh)	Voltage - fit (V)	Voltage -  interpolate (V)	dQ/dV (1/V)	Temperature (°C)	Temperature - diff (°C)	Current (C)	R_DC 0ms (mOhm)	R_DC 50ms (mOhm)	R_DC 50 ms PEC (mOhm)
0.0478	3059.83	4.1980	4.1980	0.7539	25.48	0.35	0.750			
0.0501	3205.48	4.1950	4.1949	0.7548	25.48	0.35	0.750			
0.0523	3348.45	4.1920	4.1921	0.7489	25.48	0.35	0.750			
0.0546	3491.99	4.1890	4.1890	0.7468	25.48	0.35	0.750			
0.0568	3634.46	4.1860	4.1860	0.7496	25.48	0.35	0.750			
0.0590	3777.86	4.1830	4.1829	0.7506	25.48	0.35	0.750			
0.0613	3922.16	4.1800	4.1800	0.7505	25.48	0.35	0.750			
0.0636	4071.53	4.1770	4.1770	0.7390	25.48	0.35	0.750			
0.0658	4210.38	4.1740	4.1741	0.7465	25.48	0.35	0.750			
0.0680	4351.04	4.1710	4.1712	0.7531	25.48	0.35	0.750			
0.0702	4494.77	4.1680	4.1680	0.7572	25.48	0.35	0.750			
0.0725	4641.49	4.1650	4.1652	0.7598	25.48	0.35	0.750			
0.0748	4789.42	4.1620	4.1621	0.7668	25.48	0.35	0.750			
0.0772	4939.26	4.1590	4.1592	0.7620	25.48	0.35	0.750			
0.0795	5087.40	4.1560	4.1561	0.7701	25.49	0.36	0.750			
0.0817	5228.14	4.1530	4.1530	0.7587	25.49	0.36	0.750			
0.0840	5374.32	4.1500	4.1501	0.7648	25.49	0.36	0.750			
0.0863	5521.06	4.1470	4.1471	0.7701	25.49	0.36	0.750			
0.0886	5670.50	4.1440	4.1441	0.7742	25.50	0.37	0.750			
0.0910	5822.72	4.1410	4.1410	0.7795	25.50	0.37	0.750			
0.0933	5970.95	4.1380	4.1381	0.7724	25.51	0.38	0.750			
0.0956	6119.84	4.1350	4.1349	0.7723	25.51	0.38	0.750			
0.0979	6267.89	4.1320	4.1319	0.7709	25.51	0.38	0.750			
0.1003	6419.37	4.1290	4.1290	0.7609	25.51	0.38	0.750			
0.1026	6563.93	4.1260	4.1260	0.7642	25.52	0.39	0.750			
0.1048	6706.64	4.1230	4.1231	0.7681	25.52	0.39	0.750			
0.1071	6854.76	4.1200	4.1202	0.7744	25.52	0.39	0.750			
0.1094	7002.43	4.1170	4.1171	0.7801	25.52	0.39	0.750			
0.1118	7153.50	4.1140	4.1141	0.7891	25.52	0.39	0.750			
0.1142	7309.10	4.1110	4.1111	0.7808	25.52	0.39	0.750			
0.1165	7457.24	4.1080	4.1081	0.7871	25.53	0.40	0.750			
0.1189	7606.65	4.1050	4.1053	0.7821	25.53	0.40	0.750			
0.1212	7757.08	4.1020	4.1012	0.7878	25.53	0.40	0.750			
0.1236	7908.23	4.0990	4.0991	0.7930	25.53	0.40	0.750			
0.1260	8061.59	4.0960	4.0962	0.7941	25.54	0.41	0.750			
0.1284	8217.63	4.0930	4.0931	0.8034	25.54	0.41	0.750			
0.1308	8370.11	4.0900	4.0900	0.7933	25.55	0.42	0.750			
0.1332	8522.64	4.0870	4.0868	0.7972	25.55	0.42	0.750			
0.1356	8675.91	4.0840	4.0840	0.7990	25.55	0.42	0.750			
0.1380	8829.44	4.0810	4.0810	0.7998	25.55	0.42	0.750			
0.1403	8981.31	4.0780	4.0781	0.7959	25.56	0.43	0.750			
0.1427	9133.51	4.0750	4.0751	0.7997	25.56	0.43	0.750			
0.1451	9285.97	4.0720	4.0722	0.8000	25.56	0.43	0.750			
0.1475	9440.47	4.0690	4.0691	0.8052	25.56	0.43	0.750			
0.1500	9598.06	4.0660	4.0661	0.7985	25.56	0.43	0.750			
0.1524	9751.37	4.0630	4.0631	0.8083	25.57	0.44	0.750			
0.1548	9907.87	4.0600	4.0600	0.8243	25.57	0.44	0.750			
0.1572	10059.34	4.0570	4.0572	0.8162	25.57	0.44	0.750			
0.1597	10219.60	4.0540	4.0541	0.8126	25.57	0.44	0.750			
0.1621	10376.29	4.0510	4.0511	0.8206	25.58	0.45	0.750			
0.1646	10535.31	4.0480	4.0482	0.8322	25.58	0.45	0.750			
0.1671	10696.38	4.0450	4.0451	0.8394	25.58	0.45	0.750			
0.1696	10855.13	4.0420	4.0421	0.8316	25.59	0.46	0.750			
0.1721	11016.16	4.0390	4.0390	0.8330	25.59	0.46	0.750			
0.1747	11183.81	4.0360	4.0360	0.8245	25.60	0.47	0.750			
0.1772	11339.26	4.0330	4.0331	0.8305	25.60	0.47	0.750			
0.1796	11492.62	4.0300	4.0301	0.8238	25.60	0.47	0.750			
0.1820	11647.97	4.0270	4.0271	0.8305	25.61	0.48	0.750			
0.1845	11806.66	4.0240	4.0238	0.8348	25.61	0.48	0.750			
0.1870	11969.31	4.0210	4.0212	0.8479	25.61	0.48	0.750			
0.1896	12133.61	4.0180	4.0181	0.8499	25.61	0.48	0.750			
0.1922	12297.75	4.0150	4.0151	0.8556	25.61	0.48	0.750			
0.1947	12459.45	4.0120	4.0121	0.8520	25.61	0.48	0.750			
0.1972	12623.33	4.0090	4.0092	0.8588	25.61	0.48	0.750			
0.1998	12790.05	4.0060	4.0063	0.8628	25.62	0.49	0.750			
0.2025	12960.03	4.0030	4.0030	0.8712	25.62	0.49	0.750			
0.2052	13130.37	4.0000	4.0000	0.8758	25.62	0.49	0.750			
0.2077	13293.98	3.9970	3.9969	0.8633	25.63	0.50	0.750			
0.2103	13459.16	3.9940	3.9941	0.8696	25.63	0.50	0.750			
0.2129	13627.12	3.9910	3.9911	0.8643	25.64	0.51	0.750			
0.2154	13788.32	3.9880	3.9881	0.8845	25.64	0.51	0.750			
0.2181	13958.67	3.9850	3.9851	0.9092	25.65	0.52	0.750			
0.2209	14135.26	3.9820	3.9810	0.9241	25.65	0.52	0.750			
0.2237	14318.71	3.9790	3.9789	0.9194	25.65	0.52	0.750			
0.2266	14499.69	3.9760	3.9764	0.9272	25.65	0.52	0.750			
0.2294	14679.14	3.9730	3.9732	0.9234	25.65	0.52	0.750			
0.2322	14859.42	3.9700	3.9700	0.9174	25.65	0.52	0.750			
0.2347	15023.72	3.9670	3.9671	0.8862	25.65	0.52	0.750			
0.2374	15194.89	3.9640	3.9642	0.8901	25.65	0.52	0.750			
0.2401	15367.69	3.9610	3.9610	0.8952	25.66	0.53	0.750			
0.2428	15541.58	3.9580	3.9580	0.9007	25.66	0.53	0.750			
0.2455	15711.09	3.9550	3.9549	0.8905	25.66	0.53	0.750			
0.2482	15883.44	3.9520	3.9520	0.8892	25.66	0.53	0.750			
0.2509	16054.84	3.9490	3.9490	0.8903	25.66	0.53	0.750			
0.2535	16223.92	3.9460	3.9460	0.8894	25.67	0.54	0.750			
0.2561	16393.54	3.9430	3.9430	0.8924	25.67	0.54	0.750			
0.2588	16564.72	3.9400	3.9401	0.8929	25.67	0.54	0.750			
0.2615	16738.87	3.9370	3.9370	0.8877	25.67	0.54	0.750			
0.2642	16909.47	3.9340	3.9340	0.8950	25.67	0.54	0.750			
0.2669	17081.96	3.9310	3.9311	0.8928	25.67	0.54	0.750			
0.2696	17252.11	3.9280	3.9281	0.8906	25.67	0.54	0.750			
0.2722	17422.35	3.9250	3.9250	0.8915	25.67	0.54	0.750			
0.2749	17591.84	3.9220	3.9221	0.8937	25.67	0.54	0.750			
0.2776	17765.61	3.9190	3.9190	0.8991	25.66	0.53	0.750			
0.2803	17940.80	3.9160	3.9159	0.9052	25.66	0.53	0.750			
0.2830	18111.96	3.9130	3.9130	0.8982	25.66	0.53	0.750			
0.2857	18287.23	3.9100	3.9100	0.8980	25.66	0.53	0.750			
0.2884	18458.62	3.9070	3.9069	0.8947	25.66	0.53	0.750			
0.2911	18629.41	3.9040	3.9041	0.8937	25.65	0.52	0.750			
0.2938	18800.19	3.9010	3.9010	0.8959	25.65	0.52	0.750			
0.2964	18972.29	3.8980	3.8980	0.8999	25.65	0.52	0.750			
0.2992	19148.21	3.8950	3.8949	0.8847	25.64	0.51	0.750			
0.3018	19316.42	3.8920	3.8921	0.8911	25.64	0.51	0.750			
0.3045	19486.96	3.8890	3.8891	0.8918	25.64	0.51	0.750			
0.3071	19656.44	3.8860	3.8861	0.8948	25.63	0.50	0.750			
0.3098	19826.64	3.8830	3.8830	0.8992	25.63	0.50	0.750			
0.3125	20000.40	3.8800	3.8801	0.9042	25.62	0.49	0.750			
0.3153	20176.41	3.8770	3.8770	0.9099	25.62	0.49	0.750			
0.3180	20354.26	3.8740	3.8740	0.9134	25.61	0.48	0.750			
0.3208	20528.28	3.8710	3.8710	0.9050	25.61	0.48	0.750			
0.3235	20704.28	3.8680	3.8680	0.8998	25.61	0.48	0.750			
0.3262	20875.38	3.8650	3.8651	0.8995	25.60	0.47	0.750			
0.3288	21045.77	3.8620	3.8621	0.9023	25.60	0.47	0.750			
0.3316	21219.20	3.8590	3.8590	0.9069	25.59	0.46	0.750			
0.3343	21393.30	3.8560	3.8560	0.9116	25.59	0.46	0.750			
0.3371	21571.94	3.8530	3.8530	0.8960	25.58	0.45	0.750			
0.3398	21745.40	3.8500	3.8500	0.9057	25.57	0.44	0.750			
0.3424	21916.76	3.8470	3.8472	0.9207	25.56	0.43	0.750			
0.3452	22091.08	3.8440	3.8440	0.9241	25.55	0.42	0.750			
0.3479	22268.75	3.8410	3.8412	0.9392	25.55	0.42	0.750	0.303	0.442	
0.3508	22451.62	3.8380	3.8382	0.9510	25.54	0.41	0.750			
0.3537	22637.66	3.8350	3.8351	0.9620	25.54	0.41	0.750			
0.3567	22827.89	3.8320	3.8320	0.9594	25.53	0.40	0.750			
0.3596	23011.87	3.8290	3.8289	0.9596	25.53	0.40	0.750			
0.3624	23194.78	3.8260	3.8260	0.9605	25.51	0.38	0.750			
0.3653	23377.89	3.8230	3.8231	0.9675	25.50	0.37	0.750			
0.3681	23561.48	3.8200	3.8200	0.9748	25.49	0.36	0.750			
0.3711	23750.78	3.8170	3.8167	0.9874	25.48	0.35	0.750			
0.3741	23941.70	3.8140	3.8141	0.9928	25.47	0.34	0.750			
0.3771	24133.56	3.8110	3.8111	1.0021	25.47	0.34	0.750			
0.3801	24328.10	3.8080	3.8081	1.0156	25.46	0.33	0.750			
0.3832	24522.00	3.8050	3.8046	1.0217	25.45	0.32	0.750			
0.3862	24718.04	3.8020	3.8020	1.0299	25.44	0.31	0.750			
0.3893	24916.83	3.7990	3.7990	1.0491	25.43	0.30	0.750			
0.3925	25120.64	3.7960	3.7961	1.0682	25.42	0.29	0.750			
0.3958	25330.02	3.7930	3.7928	1.0777	25.41	0.28	0.750			
0.3990	25536.36	3.7900	3.7900	1.0917	25.40	0.27	0.750			
0.4023	25746.61	3.7870	3.7871	1.1060	25.39	0.26	0.750			
0.4056	25958.75	3.7840	3.7841	1.1273	25.38	0.25	0.750			
0.4090	26177.05	3.7810	3.7809	1.1394	25.37	0.24	0.750			
0.4125	26396.80	3.7780	3.7780	1.1619	25.36	0.23	0.750			
0.4160	26622.46	3.7750	3.7751	1.1880	25.35	0.22	0.750			
0.4196	26854.36	3.7720	3.7719	1.2109	25.33	0.20	0.750			
0.4233	27088.41	3.7690	3.7691	1.2319	25.32	0.19	0.750			
0.4270	27326.99	3.7660	3.7660	1.2556	25.32	0.19	0.750			
0.4308	27572.32	3.7630	3.7630	1.2722	25.31	0.18	0.750			
0.4347	27818.19	3.7600	3.7600	1.3068	25.29	0.16	0.750			
0.4386	28068.76	3.7570	3.7570	1.3327	25.28	0.15	0.750			
0.4426	28326.54	3.7540	3.7540	1.3641	25.26	0.13	0.750			
0.4467	28591.52	3.7510	3.7510	1.3997	25.25	0.12	0.750			
0.4510	28863.48	3.7480	3.7481	1.4329	25.24	0.11	0.750			
0.4554	29144.08	3.7450	3.7450	1.4671	25.23	0.10	0.750			
0.4599	29431.19	3.7420	3.7420	1.4830	25.22	0.09	0.750			
0.4643	29713.29	3.7390	3.7391	1.5131	25.20	0.07	0.750			
0.4688	30002.33	3.7360	3.7361	1.5562	25.19	0.06	0.750			
0.4736	30307.47	3.7330	3.7329	1.5871	25.17	0.04	0.750			
0.4783	30611.04	3.7300	3.7299	1.6539	25.16	0.03	0.750			
0.4833	30934.12	3.7270	3.7269	1.6945	25.14	0.01	0.750			
0.4886	31268.25	3.7240	3.7241	1.7463	25.13	0.00	0.750			
0.4939	31606.93	3.7210	3.7212	1.7909	25.12	-0.01	0.750			
0.4993	31955.20	3.7180	3.7177	1.8423	25.11	-0.02	0.750			
0.5049	32310.47	3.7150	3.7150	1.9158	25.09	-0.04	0.750			
0.5108	32690.23	3.7120	3.7119	1.9385	25.07	-0.06	0.750			
0.5168	33072.87	3.7090	3.7090	1.9997	25.05	-0.08	0.750			
0.5227	33452.26	3.7060	3.7061	2.0628	25.04	-0.09	0.750			
0.5290	33855.32	3.7030	3.7030	2.1238	25.03	-0.10	0.750			
0.5354	34267.56	3.7000	3.6999	2.1551	25.02	-0.11	0.750			
0.5420	34689.41	3.6970	3.6969	2.2318	25.01	-0.12	0.750			
0.5489	35126.74	3.6940	3.6942	2.3163	25.00	-0.13	0.750			
0.5557	35566.96	3.6910	3.6912	2.3688	24.98	-0.15	0.750			
0.5631	36039.80	3.6880	3.6881	2.4319	24.98	-0.15	0.750			
0.5705	36513.25	3.6850	3.6849	2.4687	24.98	-0.15	0.750			
0.5778	36976.29	3.6820	3.6820	2.4744	24.97	-0.16	0.750			
0.5853	37456.28	3.6790	3.6790	2.5143	24.96	-0.17	0.750			
0.5928	37941.76	3.6760	3.6762	2.4787	24.96	-0.17	0.750			
0.6006	38437.43	3.6730	3.6729	2.4581	24.96	-0.17	0.750			
0.6078	38897.01	3.6700	3.6701	2.3550	24.97	-0.16	0.750			
0.6147	39343.91	3.6670	3.6673	2.2087	24.98	-0.15	0.750			
0.6210	39745.90	3.6640	3.6642	2.0360	24.98	-0.15	0.750			
0.6269	40124.72	3.6610	3.6606	1.8957	24.98	-0.15	0.750			
0.6324	40473.88	3.6580	3.6580	1.7330	24.99	-0.14	0.750			
0.6374	40791.34	3.6550	3.6551	1.5985	25.00	-0.13	0.750			
0.6418	41074.06	3.6520	3.6522	1.4754	25.00	-0.13	0.750			
0.6460	41342.76	3.6490	3.6483	1.3621	25.01	-0.12	0.750			
0.6499	41592.45	3.6460	3.6461	1.2749	25.02	-0.11	0.750			
0.6536	41830.02	3.6430	3.6431	1.2079	25.02	-0.11	0.750			
0.6571	42056.98	3.6400	3.6400	1.1462	25.03	-0.10	0.750			
0.6606	42277.49	3.6370	3.6368	1.0880	25.04	-0.09	0.750			
0.6635	42467.08	3.6340	3.6341	1.0163	25.04	-0.09	0.750			
0.6665	42654.73	3.6310	3.6311	0.9747	25.05	-0.08	0.750			
0.6693	42834.70	3.6280	3.6281	0.9425	25.06	-0.07	0.750			
0.6720	43010.90	3.6250	3.6251	0.9079	25.06	-0.07	0.750			
0.6748	43185.81	3.6220	3.6221	0.8661	25.07	-0.06	0.750			
0.6774	43351.60	3.6190	3.6191	0.8370	25.08	-0.05	0.750			
0.6799	43510.50	3.6160	3.6161	0.7973	25.09	-0.04	0.750			
0.6822	43660.19	3.6130	3.6131	0.7468	25.10	-0.03	0.750			
0.6843	43797.36	3.6100	3.6101	0.6925	25.10	-0.03	0.750			
0.6863	43926.09	3.6070	3.6071	0.6399	25.11	-0.02	0.750			
0.6882	44045.91	3.6040	3.6041	0.5884	25.11	-0.02	0.750			
0.6899	44153.91	3.6010	3.6010	0.5313	25.12	-0.01	0.750			
0.6914	44249.44	3.5980	3.5980	0.4710	25.12	-0.01	0.750			
0.6927	44333.26	3.5950	3.5951	0.4211	25.12	-0.01	0.750			
0.6939	44409.34	3.5920	3.5918	0.3726	25.13	-0.00	0.750			
0.6950	44477.01	3.5890	3.5889	0.3222	25.13	-0.00	0.750			
0.6958	44533.90	3.5860	3.5860	0.2714	25.13	-0.00	0.750			
0.6966	44582.19	3.5830	3.5831	0.2219	25.13	0.00	0.750			
0.6972	44621.05	3.5800	3.5801	0.1677	25.13	0.00	0.750			
0.6976	44648.88	3.5770	3.5773	0.1071	25.13	0.00	0.750			
0.6979	44663.53	3.5740	3.5759	0.0502	25.13	0.00	0.750			
