Ah_balance (normalized)	Ah_balance (mAh)	Voltage - fit (V)	Voltage -  interpolate (V)	dQ/dV (1/V)	Temperature (°C)	Temperature - diff (°C)	Current (C)	R_DC 0ms (mOhm)	R_DC 50ms (mOhm)	R_DC 50 ms PEC (mOhm)
0.0004	22.60	4.1630	4.1629	-0.1390	25.17	0.03	-0.750			
0.0008	54.19	4.1600	4.1599	-0.1835	25.17	0.03	-0.750			
0.0015	93.63	4.1570	4.1569	-0.2233	25.16	0.02	-0.750			
0.0022	140.21	4.1540	4.1541	-0.2628	25.16	0.02	-0.750			
0.0030	194.32	4.1510	4.1511	-0.3031	25.16	0.02	-0.750			
0.0040	256.56	4.1480	4.1480	-0.3436	25.16	0.02	-0.750			
0.0051	325.88	4.1450	4.1450	-0.3843	25.15	0.01	-0.750			
0.0063	405.21	4.1420	4.1419	-0.4211	25.15	0.01	-0.750			
0.0077	490.26	4.1390	4.1390	-0.4560	25.15	0.01	-0.750			
0.0091	582.66	4.1360	4.1360	-0.4885	25.15	0.01	-0.750			
0.0106	679.61	4.1330	4.1330	-0.5160	25.14	0.00	-0.750			
0.0122	782.16	4.1300	4.1298	-0.5398	25.14	-0.00	-0.750			
0.0139	888.29	4.1270	4.1270	-0.5613	25.13	-0.01	-0.750			
0.0156	998.39	4.1240	4.1241	-0.5772	25.13	-0.01	-0.750			
0.0173	1110.37	4.1210	4.1211	-0.6038	25.13	-0.01	-0.750			
0.0192	1229.90	4.1180	4.1180	-0.6226	25.12	-0.02	-0.750			
0.0211	1352.46	4.1150	4.1148	-0.6351	25.12	-0.02	-0.750			
0.0231	1476.45	4.1120	4.1119	-0.6489	25.11	-0.03	-0.750			
0.0250	1602.74	4.1090	4.1091	-0.6611	25.11	-0.03	-0.750			
0.0271	1731.25	4.1060	4.1058	-0.6716	25.11	-0.03	-0.750			
0.0291	1860.92	4.1030	4.1030	-0.6786	25.11	-0.03	-0.750			
0.0311	1989.39	4.1000	4.1001	-0.6793	25.10	-0.04	-0.750			
0.0332	2124.43	4.0970	4.0970	-0.6922	25.10	-0.04	-0.750			
0.0353	2258.72	4.0940	4.0939	-0.6922	25.10	-0.04	-0.750			
0.0373	2389.99	4.0910	4.0911	-0.6971	25.10	-0.04	-0.750			
0.0394	2523.47	4.0880	4.0880	-0.7045	25.10	-0.04	-0.750			
0.0416	2659.38	4.0850	4.0849	-0.7143	25.10	-0.04	-0.750			
0.0437	2797.77	4.0820	4.0819	-0.7213	25.09	-0.05	-0.750			
0.0459	2939.47	4.0790	4.0791	-0.7250	25.09	-0.05	-0.750			
0.0482	3082.02	4.0760	4.0761	-0.7269	25.09	-0.05	-0.750			
0.0503	3220.60	4.0730	4.0729	-0.7295	25.09	-0.05	-0.750			
0.0525	3357.15	4.0700	4.0701	-0.7251	25.09	-0.05	-0.750			
0.0546	3496.98	4.0670	4.0669	-0.7371	25.09	-0.05	-0.750			
0.0569	3639.30	4.0640	4.0639	-0.7366	25.08	-0.06	-0.750			
0.0591	3784.62	4.0610	4.0610	-0.7440	25.08	-0.06	-0.750			
0.0614	3927.81	4.0580	4.0585	-0.7510	25.08	-0.06	-0.750			
0.0637	4074.60	4.0550	4.0549	-0.7504	25.08	-0.06	-0.750			
0.0659	4216.58	4.0520	4.0519	-0.7532	25.08	-0.06	-0.750			
0.0681	4360.44	4.0490	4.0491	-0.7496	25.08	-0.06	-0.750			
0.0704	4507.35	4.0460	4.0459	-0.7590	25.08	-0.06	-0.750			
0.0727	4651.65	4.0430	4.0429	-0.7594	25.08	-0.06	-0.750			
0.0749	4796.78	4.0400	4.0399	-0.7597	25.08	-0.06	-0.750			
0.0772	4942.01	4.0370	4.0369	-0.7557	25.08	-0.06	-0.750			
0.0795	5088.21	4.0340	4.0340	-0.7633	25.08	-0.06	-0.750			
0.0818	5232.84	4.0310	4.0311	-0.7631	25.09	-0.05	-0.750			
0.0841	5383.69	4.0280	4.0278	-0.7747	25.09	-0.05	-0.750			
0.0864	5531.81	4.0250	4.0252	-0.7735	25.09	-0.05	-0.750			
0.0887	5679.80	4.0220	4.0221	-0.7746	25.09	-0.05	-0.750			
0.0911	5829.75	4.0190	4.0190	-0.7831	25.09	-0.05	-0.750			
0.0935	5981.50	4.0160	4.0159	-0.7852	25.09	-0.05	-0.750			
0.0958	6133.50	4.0130	4.0129	-0.7800	25.09	-0.05	-0.750			
0.0982	6282.20	4.0100	4.0100	-0.7744	25.09	-0.05	-0.750			
0.1005	6430.46	4.0070	4.0071	-0.7782	25.09	-0.05	-0.750			
0.1028	6578.75	4.0040	4.0039	-0.7805	25.09	-0.05	-0.750			
0.1051	6727.26	4.0010	4.0009	-0.7782	25.10	-0.04	-0.750			
0.1075	6877.16	3.9980	3.9980	-0.7789	25.10	-0.04	-0.750			
0.1098	7029.03	3.9950	3.9950	-0.7867	25.10	-0.04	-0.750			
0.1122	7181.11	3.9920	3.9921	-0.7908	25.10	-0.04	-0.750			
0.1145	7330.70	3.9890	3.9890	-0.7931	25.10	-0.04	-0.750			
0.1169	7482.87	3.9860	3.9860	-0.7939	25.10	-0.04	-0.750			
0.1193	7636.69	3.9830	3.9830	-0.7928	25.10	-0.04	-0.750			
0.1217	7790.54	3.9800	3.9799	-0.7940	25.10	-0.04	-0.750			
0.1241	7944.04	3.9770	3.9772	-0.7972	25.10	-0.04	-0.750			
0.1265	8095.88	3.9740	3.9740	-0.7925	25.10	-0.04	-0.750			
0.1289	8246.58	3.9710	3.9710	-0.7997	25.10	-0.04	-0.750			
0.1313	8401.79	3.9680	3.9680	-0.8001	25.11	-0.03	-0.750			
0.1337	8557.64	3.9650	3.9649	-0.8018	25.11	-0.03	-0.750			
0.1361	8710.38	3.9620	3.9623	-0.8062	25.11	-0.03	-0.750			
0.1385	8865.49	3.9590	3.9590	-0.8069	25.11	-0.03	-0.750			
0.1409	9020.17	3.9560	3.9559	-0.8105	25.11	-0.03	-0.750			
0.1434	9175.10	3.9530	3.9529	-0.8119	25.11	-0.03	-0.750			
0.1458	9333.49	3.9500	3.9500	-0.8150	25.11	-0.03	-0.750			
0.1483	9490.89	3.9470	3.9472	-0.8129	25.11	-0.03	-0.750			
0.1507	9645.98	3.9440	3.9439	-0.8173	25.11	-0.03	-0.750			
0.1531	9800.33	3.9410	3.9410	-0.8183	25.11	-0.03	-0.750			
0.1556	9957.74	3.9380	3.9379	-0.8220	25.12	-0.02	-0.750			
0.1580	10115.06	3.9350	3.9349	-0.8251	25.12	-0.02	-0.750			
0.1606	10276.52	3.9320	3.9322	-0.8350	25.12	-0.02	-0.750			
0.1631	10438.94	3.9290	3.9289	-0.8345	25.12	-0.02	-0.750			
0.1656	10600.49	3.9260	3.9259	-0.8394	25.12	-0.02	-0.750			
0.1681	10761.16	3.9230	3.9230	-0.8341	25.13	-0.01	-0.750			
0.1706	10920.37	3.9200	3.9199	-0.8290	25.13	-0.01	-0.750			
0.1731	11081.33	3.9170	3.9171	-0.8328	25.13	-0.01	-0.750			
0.1756	11241.51	3.9140	3.9139	-0.8185	25.13	-0.01	-0.750			
0.1781	11396.39	3.9110	3.9110	-0.8193	25.13	-0.01	-0.750			
0.1805	11553.28	3.9080	3.9081	-0.8190	25.14	-0.00	-0.750			
0.1829	11706.91	3.9050	3.9049	-0.8165	25.14	-0.00	-0.750			
0.1854	11866.47	3.9020	3.9020	-0.8246	25.14	-0.00	-0.750			
0.1879	12024.47	3.8990	3.8989	-0.8299	25.14	0.00	-0.750			
0.1904	12184.84	3.8960	3.8959	-0.8403	25.14	0.00	-0.750			
0.1930	12351.08	3.8930	3.8930	-0.8438	25.14	0.00	-0.750			
0.1955	12508.94	3.8900	3.8900	-0.8493	25.14	0.00	-0.750			
0.1981	12675.43	3.8870	3.8871	-0.8622	25.14	0.00	-0.750			
0.2007	12842.88	3.8840	3.8837	-0.8621	25.14	0.00	-0.750			
0.2033	13009.15	3.8810	3.8809	-0.8686	25.14	0.00	-0.750			
0.2059	13177.34	3.8780	3.8781	-0.8630	25.14	0.00	-0.750			
0.2085	13342.09	3.8750	3.8750	-0.8581	25.14	0.00	-0.750			
0.2111	13511.35	3.8720	3.8724	-0.8600	25.14	0.00	-0.750			
0.2136	13672.85	3.8690	3.8689	-0.8449	25.14	0.00	-0.750			
0.2162	13833.70	3.8660	3.8660	-0.8448	25.15	0.01	-0.750			
0.2187	13996.31	3.8630	3.8630	-0.8415	25.15	0.01	-0.750			
0.2212	14158.78	3.8600	3.8599	-0.8436	25.16	0.02	-0.750			
0.2237	14319.17	3.8570	3.8573	-0.8392	25.16	0.02	-0.750			
0.2262	14478.66	3.8540	3.8540	-0.8375	25.16	0.02	-0.750			
0.2287	14639.52	3.8510	3.8509	-0.8408	25.16	0.02	-0.750			
0.2313	14801.69	3.8480	3.8479	-0.8361	25.17	0.03	-0.750			
0.2338	14963.69	3.8450	3.8450	-0.8381	25.17	0.03	-0.750			
0.2363	15124.06	3.8420	3.8422	-0.8322	25.17	0.03	-0.750			
0.2388	15284.06	3.8390	3.8390	-0.8283	25.17	0.03	-0.750			
0.2413	15441.14	3.8360	3.8359	-0.8320	25.17	0.03	-0.750			
0.2438	15601.20	3.8330	3.8329	-0.8212	25.18	0.04	-0.750			
0.2463	15761.05	3.8300	3.8299	-0.8188	25.18	0.04	-0.750			
0.2487	15916.96	3.8270	3.8274	-0.8160	25.18	0.04	-0.750			
0.2511	16072.08	3.8240	3.8240	-0.8143	25.18	0.04	-0.750			
0.2536	16227.27	3.8210	3.8209	-0.8171	25.18	0.04	-0.750			
0.2560	16381.89	3.8180	3.8179	-0.8115	25.19	0.05	-0.750			
0.2585	16543.45	3.8150	3.8149	-0.8043	25.19	0.05	-0.750			
0.2609	16698.76	3.8120	3.8122	-0.7989	25.19	0.05	-0.750			
0.2633	16851.08	3.8090	3.8090	-0.7953	25.19	0.05	-0.750			
0.2656	16999.56	3.8060	3.8061	-0.7872	25.19	0.05	-0.750			
0.2679	17146.27	3.8030	3.8028	-0.7764	25.19	0.05	-0.750			
0.2702	17295.45	3.8000	3.8001	-0.7796	25.19	0.05	-0.750			
0.2726	17448.59	3.7970	3.7970	-0.7823	25.19	0.05	-0.750			
0.2750	17599.25	3.7940	3.7939	-0.7834	25.19	0.05	-0.750			
0.2773	17747.70	3.7910	3.7910	-0.7849	25.19	0.05	-0.750			
0.2797	17899.54	3.7880	3.7880	-0.7824	25.19	0.05	-0.750			
0.2820	18049.65	3.7850	3.7849	-0.7818	25.20	0.06	-0.750			
0.2844	18201.62	3.7820	3.7820	-0.7841	25.20	0.06	-0.750			
0.2868	18352.51	3.7790	3.7792	-0.7817	25.20	0.06	-0.750			
0.2891	18501.10	3.7760	3.7760	-0.7822	25.20	0.06	-0.750			
0.2914	18649.24	3.7730	3.7731	-0.7805	25.20	0.06	-0.750			
0.2937	18798.96	3.7700	3.7700	-0.7829	25.21	0.07	-0.750			
0.2961	18950.52	3.7670	3.7669	-0.7901	25.21	0.07	-0.750			
0.2985	19103.40	3.7640	3.7640	-0.7864	25.21	0.07	-0.750			
0.3008	19252.56	3.7610	3.7611	-0.7980	25.21	0.07	-0.750			
0.3032	19406.40	3.7580	3.7580	-0.8126	25.21	0.07	-0.750			
0.3057	19563.32	3.7550	3.7548	-0.8231	25.21	0.07	-0.750			
0.3082	19722.66	3.7520	3.7520	-0.8292	25.21	0.07	-0.750			
0.3107	19883.91	3.7490	3.7492	-0.8381	25.21	0.07	-0.750			
0.3132	20046.14	3.7460	3.7460	-0.8418	25.21	0.07	-0.750			
0.3158	20209.81	3.7430	3.7428	-0.8574	25.21	0.07	-0.750			
0.3183	20371.72	3.7400	3.7400	-0.8591	25.22	0.08	-0.750			
0.3209	20535.90	3.7370	3.7368	-0.8699	25.22	0.08	-0.750			
0.3235	20706.81	3.7340	3.7343	-0.8843	25.22	0.08	-0.750			
0.3262	20878.12	3.7310	3.7309	-0.8980	25.22	0.08	-0.750			
0.3289	21050.89	3.7280	3.7280	-0.9073	25.21	0.07	-0.750			
0.3317	21226.46	3.7250	3.7250	-0.9144	25.21	0.07	-0.750			
0.3344	21404.69	3.7220	3.7219	-0.9236	25.20	0.06	-0.750			
0.3372	21582.56	3.7190	3.7190	-0.9244	25.20	0.06	-0.750			
0.3400	21757.82	3.7160	3.7161	-0.9471	25.20	0.06	-0.750			
0.3428	21941.89	3.7130	3.7131	-0.9636	25.19	0.05	-0.750			
0.3457	22126.36	3.7100	3.7096	-0.9816	25.19	0.05	-0.750			
0.3487	22316.47	3.7070	3.7075	-1.0178	25.19	0.05	-0.750			
0.3518	22516.07	3.7040	3.7040	-1.0415	25.19	0.05	-0.750			
0.3550	22720.98	3.7010	3.7008	-1.0524	25.18	0.04	-0.750			
0.3582	22927.29	3.6980	3.6969	-1.0584	25.18	0.04	-0.749	0.377	0.515	
0.3614	23129.47	3.6950	3.6955	-1.0752	25.18	0.04	-0.750			
0.3646	23336.06	3.6920	3.6920	-1.0878	25.18	0.04	-0.750			
0.3678	23541.68	3.6890	3.6889	-1.0967	25.17	0.03	-0.750			
0.3711	23752.96	3.6860	3.6858	-1.1155	25.17	0.03	-0.750			
0.3746	23972.31	3.6830	3.6832	-1.1425	25.17	0.03	-0.750			
0.3781	24195.69	3.6800	3.6799	-1.1584	25.16	0.02	-0.750			
0.3816	24419.60	3.6770	3.6770	-1.1852	25.15	0.01	-0.750			
0.3851	24643.46	3.6740	3.6739	-1.1993	25.14	0.00	-0.750			
0.3888	24881.36	3.6710	3.6708	-1.2207	25.14	-0.00	-0.750			
0.3925	25118.30	3.6680	3.6680	-1.2397	25.13	-0.01	-0.750			
0.3962	25356.97	3.6650	3.6650	-1.2612	25.12	-0.02	-0.750			
0.4000	25599.28	3.6620	3.6621	-1.2739	25.12	-0.02	-0.750			
0.4039	25848.08	3.6590	3.6589	-1.3018	25.11	-0.03	-0.750			
0.4078	26096.78	3.6560	3.6559	-1.3193	25.11	-0.03	-0.750			
0.4118	26357.86	3.6530	3.6532	-1.3411	25.10	-0.04	-0.750			
0.4160	26620.89	3.6500	3.6500	-1.3838	25.09	-0.05	-0.750			
0.4202	26890.20	3.6470	3.6469	-1.4131	25.09	-0.05	-0.750			
0.4245	27164.90	3.6440	3.6437	-1.4426	25.08	-0.06	-0.750			
0.4289	27447.12	3.6410	3.6411	-1.4598	25.07	-0.07	-0.750			
0.4332	27726.79	3.6380	3.6383	-1.4936	25.06	-0.08	-0.750			
0.4378	28017.80	3.6350	3.6350	-1.5058	25.06	-0.08	-0.750			
0.4424	28312.38	3.6320	3.6319	-1.5444	25.05	-0.09	-0.750			
0.4470	28607.60	3.6290	3.6293	-1.5607	25.04	-0.10	-0.750			
0.4517	28907.16	3.6260	3.6259	-1.5914	25.04	-0.10	-0.750			
0.4565	29217.36	3.6230	3.6231	-1.6452	25.03	-0.11	-0.750			
0.4615	29535.92	3.6200	3.6201	-1.6729	25.02	-0.12	-0.750			
0.4666	29860.71	3.6170	3.6172	-1.7069	25.02	-0.12	-0.750			
0.4718	30194.43	3.6140	3.6141	-1.7339	25.01	-0.13	-0.750			
0.4769	30522.40	3.6110	3.6108	-1.7884	25.01	-0.13	-0.750			
0.4825	30877.67	3.6080	3.6075	-1.8079	25.00	-0.14	-0.750			
0.4880	31230.34	3.6050	3.6048	-1.8342	25.00	-0.14	-0.750			
0.4936	31589.37	3.6020	3.6022	-1.8862	24.99	-0.15	-0.750			
0.4992	31946.54	3.5990	3.5991	-1.9062	24.98	-0.16	-0.750			
0.5049	32314.45	3.5960	3.5961	-1.9256	24.98	-0.16	-0.750			
0.5107	32686.64	3.5930	3.5932	-1.9597	24.98	-0.16	-0.750			
0.5168	33072.22	3.5900	3.5902	-2.0434	24.97	-0.17	-0.750			
0.5229	33467.17	3.5870	3.5871	-2.0631	24.96	-0.18	-0.750			
0.5291	33865.48	3.5840	3.5838	-2.0931	24.96	-0.18	-0.750			
0.5356	34278.27	3.5810	3.5813	-2.1010	24.96	-0.18	-0.750			
0.5420	34685.90	3.5780	3.5778	-2.1103	24.96	-0.18	-0.750			
0.5483	35091.14	3.5750	3.5753	-2.1705	24.96	-0.18	-0.750			
0.5547	35503.63	3.5720	3.5722	-2.1601	24.96	-0.18	-0.750			
0.5615	35937.53	3.5690	3.5689	-2.2089	24.96	-0.18	-0.750			
0.5680	36352.77	3.5660	3.5663	-2.2396	24.96	-0.18	-0.750			
0.5747	36782.22	3.5630	3.5631	-2.1889	24.96	-0.18	-0.750			
0.5813	37204.97	3.5600	3.5599	-2.2160	24.96	-0.18	-0.750			
0.5879	37628.65	3.5570	3.5571	-2.1973	24.96	-0.18	-0.750			
0.5944	38042.76	3.5540	3.5543	-2.1728	24.96	-0.18	-0.750			
0.6011	38468.10	3.5510	3.5507	-2.1572	24.96	-0.18	-0.750			
0.6076	38889.25	3.5480	3.5475	-2.1313	24.97	-0.17	-0.750			
0.6139	39292.16	3.5450	3.5453	-2.0933	24.97	-0.17	-0.750			
0.6204	39707.70	3.5420	3.5421	-2.0741	24.98	-0.16	-0.750			
0.6265	40098.11	3.5390	3.5386	-2.0179	24.98	-0.16	-0.750			
0.6323	40469.67	3.5360	3.5357	-1.9700	24.99	-0.15	-0.750			
0.6382	40844.42	3.5330	3.5328	-1.9362	25.00	-0.14	-0.750			
0.6441	41223.94	3.5300	3.5298	-1.9386	25.01	-0.13	-0.750			
0.6498	41587.24	3.5270	3.5272	-1.9012	25.02	-0.12	-0.750			
0.6556	41956.69	3.5240	3.5242	-1.8632	25.03	-0.11	-0.750			
0.6611	42309.21	3.5210	3.5212	-1.7937	25.04	-0.10	-0.750			
0.6663	42644.20	3.5180	3.5181	-1.7307	25.05	-0.09	-0.750			
0.6715	42976.23	3.5150	3.5150	-1.6884	25.06	-0.08	-0.750			
0.6765	43297.64	3.5120	3.5117	-1.6317	25.08	-0.06	-0.750			
0.6812	43599.13	3.5090	3.5089	-1.5955	25.09	-0.05	-0.750			
0.6859	43899.46	3.5060	3.5062	-1.5449	25.11	-0.03	-0.750			
0.6906	44196.05	3.5030	3.5028	-1.5035	25.12	-0.02	-0.750			
0.6950	44478.63	3.5000	3.4998	-1.4522	25.14	-0.00	-0.750			
0.6993	44754.16	3.4970	3.4973	-1.4244	25.15	0.01	-0.750			
0.7035	45023.79	3.4940	3.4940	-1.3870	25.17	0.03	-0.750			
0.7077	45289.64	3.4910	3.4908	-1.3434	25.19	0.05	-0.750			
0.7116	45540.27	3.4880	3.4881	-1.3118	25.20	0.06	-0.750			
0.7155	45790.22	3.4850	3.4850	-1.2780	25.22	0.08	-0.750			
