Ah_balance (normalized)	Ah_balance (mAh)	Voltage - fit (V)	Voltage -  interpolate (V)	dQ/dV (1/V)	Temperature (°C)	Temperature - diff (°C)	Current (C)	R_DC 0ms (mOhm)	R_DC 50ms (mOhm)	R_DC 50 ms PEC (mOhm)
0.0462	2954.20	4.1990	4.1990	0.8049	25.37	0.51	0.750			
0.0485	3103.71	4.1960	4.1961	0.7712	25.37	0.51	0.750			
0.0509	3254.41	4.1930	4.1929	0.7669	25.37	0.51	0.750			
0.0531	3396.98	4.1900	4.1899	0.7633	25.37	0.51	0.750			
0.0553	3541.77	4.1870	4.1871	0.7629	25.37	0.51	0.750			
0.0576	3688.26	4.1840	4.1838	0.7611	25.37	0.51	0.750			
0.0599	3836.51	4.1810	4.1810	0.7674	25.37	0.51	0.750			
0.0623	3984.32	4.1780	4.1781	0.7635	25.37	0.51	0.750			
0.0645	4130.81	4.1750	4.1751	0.7641	25.37	0.51	0.750			
0.0669	4278.76	4.1720	4.1719	0.7731	25.37	0.51	0.750			
0.0691	4424.30	4.1690	4.1690	0.7688	25.37	0.51	0.750			
0.0714	4572.20	4.1660	4.1660	0.7706	25.37	0.51	0.750			
0.0738	4720.96	4.1630	4.1631	0.7757	25.37	0.51	0.750			
0.0761	4870.81	4.1600	4.1600	0.7734	25.37	0.51	0.750			
0.0784	5018.69	4.1570	4.1570	0.7793	25.37	0.51	0.750			
0.0807	5167.38	4.1540	4.1540	0.7791	25.37	0.51	0.750			
0.0831	5316.83	4.1510	4.1508	0.7817	25.37	0.51	0.750			
0.0854	5468.74	4.1480	4.1480	0.7857	25.37	0.51	0.750			
0.0878	5618.39	4.1450	4.1451	0.7994	25.37	0.51	0.750			
0.0902	5772.57	4.1420	4.1420	0.8079	25.36	0.50	0.750			
0.0926	5929.27	4.1390	4.1389	0.8108	25.36	0.50	0.750			
0.0951	6086.42	4.1360	4.1360	0.8164	25.36	0.50	0.750			
0.0976	6246.56	4.1330	4.1331	0.8162	25.36	0.50	0.750			
0.1001	6404.02	4.1300	4.1300	0.8108	25.36	0.50	0.750			
0.1025	6559.25	4.1270	4.1270	0.8049	25.36	0.50	0.750			
0.1048	6710.20	4.1240	4.1239	0.7954	25.36	0.50	0.750			
0.1072	6862.98	4.1210	4.1210	0.7917	25.36	0.50	0.750			
0.1096	7013.56	4.1180	4.1180	0.7907	25.36	0.50	0.750			
0.1119	7164.71	4.1150	4.1151	0.7922	25.36	0.50	0.750			
0.1143	7317.04	4.1120	4.1120	0.7967	25.36	0.50	0.750			
0.1167	7469.04	4.1090	4.1090	0.7995	25.35	0.49	0.750			
0.1191	7623.23	4.1060	4.1060	0.8023	25.35	0.49	0.750			
0.1215	7778.11	4.1030	4.1030	0.8059	25.35	0.49	0.750			
0.1240	7935.94	4.1000	4.1000	0.8067	25.35	0.49	0.750			
0.1264	8089.40	4.0970	4.0970	0.8052	25.35	0.49	0.750			
0.1288	8243.03	4.0940	4.0940	0.8059	25.35	0.49	0.750			
0.1312	8397.49	4.0910	4.0910	0.8092	25.35	0.49	0.750			
0.1336	8552.72	4.0880	4.0879	0.8111	25.35	0.49	0.750			
0.1361	8708.73	4.0850	4.0850	0.8174	25.35	0.49	0.750			
0.1385	8865.90	4.0820	4.0820	0.8165	25.35	0.49	0.750			
0.1410	9022.86	4.0790	4.0790	0.8207	25.35	0.49	0.750			
0.1434	9179.04	4.0760	4.0761	0.8235	25.35	0.49	0.750			
0.1459	9338.22	4.0730	4.0727	0.8297	25.35	0.49	0.750			
0.1484	9498.89	4.0700	4.0701	0.8311	25.35	0.49	0.750			
0.1509	9659.35	4.0670	4.0670	0.8352	25.35	0.49	0.750			
0.1535	9821.10	4.0640	4.0641	0.8401	25.36	0.50	0.750			
0.1560	9981.58	4.0610	4.0611	0.8396	25.36	0.50	0.750			
0.1585	10143.08	4.0580	4.0579	0.8426	25.36	0.50	0.750			
0.1610	10305.20	4.0550	4.0551	0.8451	25.36	0.50	0.750			
0.1636	10468.55	4.0520	4.0520	0.8385	25.36	0.50	0.750			
0.1661	10627.64	4.0490	4.0490	0.8408	25.35	0.49	0.750			
0.1686	10787.79	4.0460	4.0462	0.8435	25.35	0.49	0.750			
0.1711	10949.38	4.0430	4.0428	0.8491	25.35	0.49	0.750			
0.1736	11113.10	4.0400	4.0401	0.8506	25.35	0.49	0.750			
0.1762	11277.61	4.0370	4.0371	0.8602	25.35	0.49	0.750			
0.1788	11445.97	4.0340	4.0340	0.8652	25.35	0.49	0.750			
0.1814	11611.18	4.0310	4.0310	0.8609	25.35	0.49	0.750			
0.1840	11776.05	4.0280	4.0281	0.8656	25.35	0.49	0.750			
0.1866	11943.96	4.0250	4.0250	0.8690	25.36	0.50	0.750			
0.1892	12110.90	4.0220	4.0220	0.8727	25.36	0.50	0.750			
0.1919	12278.85	4.0190	4.0191	0.8775	25.36	0.50	0.750			
0.1945	12447.78	4.0160	4.0160	0.8775	25.37	0.51	0.750			
0.1971	12617.44	4.0130	4.0129	0.8818	25.37	0.51	0.750			
0.1998	12786.31	4.0100	4.0100	0.8790	25.37	0.51	0.750			
0.2024	12954.46	4.0070	4.0071	0.8810	25.37	0.51	0.750			
0.2051	13124.43	4.0040	4.0040	0.8855	25.37	0.51	0.750			
0.2077	13293.43	4.0010	4.0007	0.8868	25.37	0.51	0.750			
0.2104	13464.93	3.9980	3.9981	0.8855	25.37	0.51	0.750			
0.2130	13635.06	3.9950	3.9950	0.8913	25.37	0.51	0.750			
0.2157	13806.58	3.9920	3.9920	0.8987	25.37	0.51	0.750			
0.2184	13980.16	3.9890	3.9890	0.9051	25.37	0.51	0.750			
0.2211	14153.13	3.9860	3.9858	0.9051	25.37	0.51	0.750			
0.2239	14328.10	3.9830	3.9830	0.9082	25.37	0.51	0.750			
0.2266	14503.75	3.9800	3.9800	0.9089	25.37	0.51	0.750			
0.2294	14678.86	3.9770	3.9771	0.9100	25.37	0.51	0.750			
0.2321	14851.59	3.9740	3.9739	0.9088	25.37	0.51	0.750			
0.2348	15026.17	3.9710	3.9710	0.9108	25.37	0.51	0.750			
0.2375	15200.70	3.9680	3.9680	0.9071	25.37	0.51	0.750			
0.2402	15374.25	3.9650	3.9650	0.9132	25.38	0.52	0.750			
0.2430	15550.52	3.9620	3.9621	0.9173	25.38	0.52	0.750			
0.2457	15726.38	3.9590	3.9586	0.9245	25.38	0.52	0.750			
0.2485	15905.28	3.9560	3.9560	0.9217	25.38	0.52	0.750			
0.2513	16082.35	3.9530	3.9531	0.9287	25.38	0.52	0.750			
0.2541	16262.42	3.9500	3.9500	0.9347	25.38	0.52	0.750			
0.2569	16440.34	3.9470	3.9471	0.9315	25.38	0.52	0.750			
0.2597	16620.95	3.9440	3.9441	0.9350	25.38	0.52	0.750			
0.2625	16800.91	3.9410	3.9410	0.9378	25.39	0.53	0.750			
0.2653	16980.86	3.9380	3.9380	0.9380	25.39	0.53	0.750			
0.2682	17162.47	3.9350	3.9350	0.9462	25.40	0.54	0.750			
0.2710	17342.31	3.9320	3.9320	0.9443	25.40	0.54	0.750			
0.2739	17528.54	3.9290	3.9289	0.9289	25.40	0.54	0.750			
0.2766	17704.62	3.9260	3.9260	0.9345	25.40	0.54	0.750			
0.2794	17881.75	3.9230	3.9232	0.9453	25.41	0.55	0.750			
0.2822	18062.93	3.9200	3.9201	0.9486	25.41	0.55	0.750			
0.2851	18246.52	3.9170	3.9171	0.9518	25.41	0.55	0.750			
0.2880	18429.45	3.9140	3.9142	0.9560	25.41	0.55	0.750			
0.2909	18615.85	3.9110	3.9111	0.9646	25.41	0.55	0.750			
0.2938	18805.44	3.9080	3.9080	0.9736	25.41	0.55	0.750			
0.2967	18987.17	3.9050	3.9051	0.9631	25.41	0.55	0.750			
0.2996	19172.04	3.9020	3.9020	0.9616	25.41	0.55	0.750			
0.3025	19358.07	3.8990	3.8990	0.9658	25.40	0.54	0.750			
0.3054	19543.10	3.8960	3.8961	0.9675	25.40	0.54	0.750			
0.3083	19728.48	3.8930	3.8928	0.9720	25.40	0.54	0.750			
0.3112	19918.07	3.8900	3.8900	0.9612	25.40	0.54	0.750			
0.3141	20100.47	3.8870	3.8870	0.9773	25.40	0.54	0.750			
0.3170	20289.01	3.8840	3.8842	0.9839	25.40	0.54	0.750			
0.3200	20478.71	3.8810	3.8807	0.9829	25.40	0.54	0.750			
0.3230	20669.65	3.8780	3.8781	0.9826	25.40	0.54	0.750			
0.3259	20857.38	3.8750	3.8752	0.9889	25.40	0.54	0.750			
0.3289	21047.52	3.8720	3.8721	0.9931	25.40	0.54	0.750			
0.3319	21239.34	3.8690	3.8689	0.9866	25.40	0.54	0.750			
0.3348	21430.03	3.8660	3.8660	0.9894	25.40	0.54	0.750			
0.3378	21621.16	3.8630	3.8631	0.9973	25.39	0.53	0.750			
0.3408	21812.09	3.8600	3.8601	1.0059	25.39	0.53	0.750			
0.3438	22005.52	3.8570	3.8570	1.0070	25.38	0.52	0.750			
0.3469	22200.90	3.8540	3.8540	1.0068	25.38	0.52	0.750			
0.3499	22393.75	3.8510	3.8511	1.0190	25.38	0.52	0.750			
0.3530	22590.99	3.8480	3.8481	1.0274	25.37	0.51	0.750			
0.3561	22789.52	3.8450	3.8450	1.0352	25.37	0.51	0.750			
0.3592	22988.56	3.8420	3.8421	1.0339	25.37	0.51	0.750			
0.3623	23185.07	3.8390	3.8391	1.0401	25.36	0.50	0.750			
0.3654	23385.54	3.8360	3.8361	1.0520	25.35	0.49	0.750			
0.3686	23589.57	3.8330	3.8329	1.0579	25.34	0.48	0.750	0.346	0.426	
0.3717	23791.47	3.8300	3.8300	1.0563	25.34	0.48	0.750			
0.3749	23996.64	3.8270	3.8271	1.0664	25.33	0.47	0.750			
0.3782	24203.98	3.8240	3.8241	1.0721	25.32	0.46	0.750			
0.3814	24411.18	3.8210	3.8209	1.0754	25.31	0.45	0.750			
0.3847	24618.87	3.8180	3.8180	1.0534	25.30	0.44	0.750			
0.3878	24818.69	3.8150	3.8151	1.0646	25.29	0.43	0.750			
0.3910	25021.69	3.8120	3.8121	1.0757	25.28	0.42	0.750			
0.3942	25226.80	3.8090	3.8092	1.0845	25.27	0.41	0.750			
0.3974	25436.62	3.8060	3.8061	1.0873	25.26	0.40	0.750			
0.4007	25647.09	3.8030	3.8031	1.1011	25.25	0.39	0.750			
0.4041	25860.93	3.8000	3.8001	1.1112	25.24	0.38	0.750			
0.4075	26079.51	3.7970	3.7968	1.1240	25.22	0.36	0.750			
0.4108	26289.22	3.7940	3.7941	1.1198	25.21	0.35	0.750			
0.4141	26504.52	3.7910	3.7910	1.1321	25.21	0.35	0.750			
0.4175	26722.98	3.7880	3.7880	1.1502	25.20	0.34	0.750			
0.4210	26946.25	3.7850	3.7849	1.1580	25.19	0.33	0.750			
0.4245	27169.66	3.7820	3.7820	1.1787	25.18	0.32	0.750			
0.4281	27398.97	3.7790	3.7791	1.1997	25.17	0.31	0.750			
0.4318	27632.48	3.7760	3.7759	1.2126	25.15	0.29	0.750			
0.4354	27864.19	3.7730	3.7730	1.2321	25.14	0.28	0.750			
0.4391	28100.78	3.7700	3.7701	1.2597	25.13	0.27	0.750			
0.4429	28345.52	3.7670	3.7671	1.2833	25.12	0.26	0.750			
0.4468	28596.21	3.7640	3.7639	1.3182	25.11	0.25	0.750			
0.4508	28853.24	3.7610	3.7610	1.3288	25.09	0.23	0.750			
0.4549	29116.16	3.7580	3.7580	1.3241	25.08	0.22	0.750			
0.4590	29376.75	3.7550	3.7551	1.2882	25.07	0.21	0.750			
0.4627	29612.14	3.7520	3.7523	1.3193	25.06	0.20	0.750			
0.4665	29856.42	3.7490	3.7489	1.3413	25.05	0.19	0.750			
0.4705	30111.49	3.7460	3.7451	1.4117	25.04	0.18	0.750			
0.4748	30387.14	3.7430	3.7433	1.4540	25.03	0.17	0.750			
0.4793	30676.14	3.7400	3.7404	1.5423	25.01	0.15	0.750			
0.4842	30986.22	3.7370	3.7371	1.5897	25.00	0.14	0.750			
0.4891	31301.29	3.7340	3.7334	1.6290	24.98	0.12	0.750			
0.4938	31606.22	3.7310	3.7312	1.6539	24.97	0.11	0.750			
0.4989	31928.94	3.7280	3.7275	1.7137	24.95	0.09	0.750			
0.5042	32271.01	3.7250	3.7245	1.7588	24.93	0.07	0.750			
0.5095	32608.99	3.7220	3.7221	1.8096	24.92	0.06	0.750			
0.5151	32963.76	3.7190	3.7186	1.8815	24.90	0.04	0.750			
0.5208	33328.16	3.7160	3.7160	1.9790	24.88	0.02	0.750			
0.5269	33723.21	3.7130	3.7133	2.0005	24.87	0.01	0.750			
0.5328	34096.42	3.7100	3.7101	2.0199	24.86	0.00	0.750			
0.5387	34475.43	3.7070	3.7071	2.1389	24.84	-0.02	0.750			
0.5452	34890.25	3.7040	3.7038	2.1097	24.82	-0.04	0.750			
0.5516	35303.51	3.7010	3.7015	2.2238	24.81	-0.05	0.750			
0.5587	35759.32	3.6980	3.6981	2.4256	24.79	-0.07	0.750			
0.5658	36211.35	3.6950	3.6953	2.4382	24.77	-0.09	0.750			
0.5732	36683.61	3.6920	3.6922	2.4869	24.76	-0.10	0.750			
0.5806	37159.33	3.6890	3.6891	2.5059	24.74	-0.12	0.750			
0.5879	37623.84	3.6860	3.6861	2.5081	24.73	-0.13	0.750			
0.5956	38118.11	3.6830	3.6827	2.8005	24.72	-0.14	0.750			
0.6043	38676.75	3.6800	3.6798	2.7923	24.71	-0.15	0.750			
0.6119	39163.41	3.6770	3.6764	2.7071	24.70	-0.16	0.750			
0.6200	39680.82	3.6740	3.6744	2.6988	24.70	-0.16	0.750			
0.6278	40179.47	3.6710	3.6717	2.9215	24.69	-0.17	0.750			
0.6375	40797.51	3.6680	3.6684	3.0905	24.69	-0.17	0.750			
0.6465	41374.53	3.6650	3.6655	3.0305	24.70	-0.16	0.750			
0.6551	41923.89	3.6620	3.6618	2.8497	24.70	-0.16	0.750			
0.6634	42458.70	3.6590	3.6593	2.7212	24.71	-0.15	0.750			
0.6709	42938.68	3.6560	3.6558	2.3307	24.72	-0.14	0.750			
0.6773	43348.78	3.6530	3.6535	2.0873	24.73	-0.13	0.750			
0.6832	43727.44	3.6500	3.6502	1.9262	24.74	-0.12	0.750			
0.6887	44078.59	3.6470	3.6463	1.7423	24.75	-0.11	0.750			
0.6934	44380.28	3.6440	3.6445	1.5339	24.76	-0.10	0.750			
0.6979	44667.81	3.6410	3.6415	1.3898	24.76	-0.10	0.750			
0.7017	44910.25	3.6380	3.6384	1.2271	24.77	-0.09	0.750			
0.7051	45127.69	3.6350	3.6352	1.1095	24.78	-0.08	0.750			
0.7084	45334.42	3.6320	3.6319	1.0199	24.78	-0.08	0.750			
0.7110	45503.52	3.6290	3.6292	0.9375	24.79	-0.07	0.750			
0.7138	45680.67	3.6260	3.6260	0.9063	24.80	-0.06	0.750			
0.7164	45851.39	3.6230	3.6231	0.8878	24.81	-0.05	0.750			
0.7191	46019.52	3.6200	3.6202	0.8547	24.82	-0.04	0.750			
0.7215	46179.09	3.6170	3.6173	0.8380	24.82	-0.04	0.750			
0.7242	46346.26	3.6140	3.6138	0.7991	24.83	-0.03	0.750			
0.7266	46504.86	3.6110	3.6111	0.7628	24.84	-0.02	0.750			
0.7288	46643.30	3.6080	3.6083	0.6913	24.85	-0.01	0.750			
0.7308	46773.00	3.6050	3.6054	0.6323	24.85	-0.01	0.750			
0.7326	46886.32	3.6020	3.6024	0.5593	24.86	-0.00	0.750			
0.7342	46989.43	3.5990	3.5994	0.4902	24.86	0.00	0.750			
0.7355	47073.72	3.5960	3.5965	0.4150	24.87	0.01	0.750			
0.7367	47146.31	3.5930	3.5936	0.3606	24.87	0.01	0.750			
0.7377	47212.30	3.5900	3.5904	0.3075	24.87	0.01	0.750			
0.7385	47261.90	3.5870	3.5876	0.2435	24.88	0.02	0.750			
0.7391	47301.57	3.5840	3.5852	0.1936	24.88	0.02	0.750			
0.7395	47330.82	3.5810	3.5827	0.1697	24.88	0.02	0.750			
0.7400	47361.01	3.5780	3.5795	0.1360	24.88	0.02	0.750			
