Ah_balance (normalized)	Ah_balance (mAh)	Voltage - fit (V)	Voltage -  interpolate (V)	dQ/dV (1/V)	Temperature (°C)	Temperature - diff (°C)	Current (C)	R_DC 0ms (mOhm)	R_DC 50ms (mOhm)	R_DC 50 ms PEC (mOhm)
0.0495	3170.21	4.1960	4.1961	0.7359	25.65	0.35	0.750			
0.0518	3315.62	4.1930	4.1930	0.7568	25.65	0.35	0.750			
0.0541	3461.82	4.1900	4.1901	0.7577	25.65	0.35	0.750			
0.0564	3606.95	4.1870	4.1871	0.7533	25.65	0.35	0.750			
0.0586	3752.34	4.1840	4.1840	0.7528	25.65	0.35	0.750			
0.0609	3895.02	4.1810	4.1810	0.7489	25.65	0.35	0.750			
0.0631	4037.98	4.1780	4.1776	0.7507	25.65	0.35	0.750			
0.0654	4183.15	4.1750	4.1751	0.7544	25.65	0.35	0.750			
0.0676	4328.94	4.1720	4.1721	0.7568	25.65	0.35	0.750			
0.0699	4475.66	4.1690	4.1689	0.7597	25.65	0.35	0.750			
0.0722	4621.57	4.1660	4.1660	0.7626	25.65	0.35	0.750			
0.0745	4765.37	4.1630	4.1630	0.7627	25.65	0.35	0.750			
0.0768	4912.32	4.1600	4.1600	0.7632	25.65	0.35	0.750			
0.0791	5060.39	4.1570	4.1570	0.7659	25.66	0.36	0.750			
0.0814	5208.24	4.1540	4.1540	0.7639	25.66	0.36	0.750			
0.0837	5354.67	4.1510	4.1510	0.7651	25.66	0.36	0.750			
0.0859	5499.93	4.1480	4.1480	0.7668	25.67	0.37	0.750			
0.0882	5646.72	4.1450	4.1448	0.7684	25.67	0.37	0.750			
0.0905	5794.12	4.1420	4.1420	0.7692	25.67	0.37	0.750			
0.0929	5944.02	4.1390	4.1390	0.7685	25.67	0.37	0.750			
0.0952	6092.04	4.1360	4.1361	0.7722	25.67	0.37	0.750			
0.0975	6240.34	4.1330	4.1330	0.7746	25.67	0.37	0.750			
0.0998	6387.19	4.1300	4.1300	0.7738	25.67	0.37	0.750			
0.1021	6535.99	4.1270	4.1270	0.7770	25.67	0.37	0.750			
0.1045	6685.74	4.1240	4.1240	0.7788	25.67	0.37	0.750			
0.1068	6835.99	4.1210	4.1210	0.7815	25.67	0.37	0.750			
0.1092	6987.26	4.1180	4.1180	0.7868	25.68	0.38	0.750			
0.1115	7136.55	4.1150	4.1149	0.7858	25.68	0.38	0.750			
0.1139	7286.71	4.1120	4.1121	0.7879	25.68	0.38	0.750			
0.1162	7439.45	4.1090	4.1090	0.7897	25.68	0.38	0.750			
0.1186	7592.23	4.1060	4.1060	0.7883	25.68	0.38	0.750			
0.1210	7743.87	4.1030	4.1030	0.7867	25.69	0.39	0.750			
0.1233	7892.94	4.1000	4.1001	0.7896	25.69	0.39	0.750			
0.1257	8044.16	4.0970	4.0965	0.7916	25.69	0.39	0.750			
0.1281	8195.50	4.0940	4.0940	0.7918	25.69	0.39	0.750			
0.1305	8349.96	4.0910	4.0909	0.7863	25.69	0.39	0.750			
0.1328	8501.35	4.0880	4.0881	0.7960	25.69	0.39	0.750			
0.1352	8653.41	4.0850	4.0850	0.8013	25.69	0.39	0.750			
0.1376	8806.02	4.0820	4.0819	0.8036	25.69	0.39	0.750			
0.1400	8960.58	4.0790	4.0791	0.8072	25.69	0.39	0.750			
0.1425	9116.91	4.0760	4.0761	0.8111	25.70	0.40	0.750			
0.1449	9274.34	4.0730	4.0730	0.8127	25.70	0.40	0.750			
0.1474	9432.56	4.0700	4.0700	0.8164	25.70	0.40	0.750			
0.1498	9586.02	4.0670	4.0670	0.8080	25.71	0.41	0.750			
0.1522	9741.18	4.0640	4.0640	0.8119	25.71	0.41	0.750			
0.1546	9897.37	4.0610	4.0610	0.8110	25.71	0.41	0.750			
0.1571	10052.78	4.0580	4.0580	0.8156	25.72	0.42	0.750			
0.1595	10210.07	4.0550	4.0551	0.8204	25.72	0.42	0.750			
0.1620	10367.57	4.0520	4.0520	0.8227	25.72	0.42	0.750			
0.1645	10525.99	4.0490	4.0491	0.8249	25.72	0.42	0.750			
0.1670	10685.76	4.0460	4.0460	0.8257	25.72	0.42	0.750			
0.1694	10843.45	4.0430	4.0431	0.8298	25.72	0.42	0.750			
0.1719	11004.06	4.0400	4.0400	0.8349	25.73	0.43	0.750			
0.1744	11164.10	4.0370	4.0370	0.8355	25.73	0.43	0.750			
0.1770	11325.17	4.0340	4.0341	0.8381	25.73	0.43	0.750			
0.1795	11487.14	4.0310	4.0310	0.8386	25.73	0.43	0.750			
0.1820	11648.00	4.0280	4.0280	0.8412	25.73	0.43	0.750			
0.1845	11809.09	4.0250	4.0251	0.8457	25.73	0.43	0.750			
0.1870	11970.58	4.0220	4.0219	0.8469	25.73	0.43	0.750			
0.1896	12133.96	4.0190	4.0190	0.8495	25.73	0.43	0.750			
0.1922	12299.58	4.0160	4.0160	0.8465	25.74	0.44	0.750			
0.1947	12460.72	4.0130	4.0131	0.8539	25.74	0.44	0.750			
0.1973	12625.71	4.0100	4.0100	0.8581	25.74	0.44	0.750			
0.1998	12789.67	4.0070	4.0069	0.8582	25.75	0.45	0.750			
0.2024	12954.28	4.0040	4.0041	0.8637	25.75	0.45	0.750			
0.2050	13121.83	4.0010	4.0010	0.8638	25.75	0.45	0.750			
0.2076	13287.69	3.9980	3.9980	0.8688	25.76	0.46	0.750			
0.2102	13453.65	3.9950	3.9950	0.8680	25.76	0.46	0.750			
0.2128	13621.13	3.9920	3.9917	0.8728	25.76	0.46	0.750			
0.2155	13791.03	3.9890	3.9890	0.8754	25.76	0.46	0.750			
0.2181	13959.55	3.9860	3.9861	0.8771	25.76	0.46	0.750			
0.2208	14128.12	3.9830	3.9831	0.8805	25.77	0.47	0.750			
0.2234	14298.70	3.9800	3.9799	0.8834	25.77	0.47	0.750			
0.2260	14465.14	3.9770	3.9770	0.8787	25.77	0.47	0.750			
0.2287	14635.22	3.9740	3.9740	0.8802	25.77	0.47	0.750			
0.2313	14804.95	3.9710	3.9710	0.8854	25.77	0.47	0.750			
0.2340	14974.77	3.9680	3.9680	0.8888	25.77	0.47	0.750			
0.2366	15145.17	3.9650	3.9650	0.8878	25.77	0.47	0.750			
0.2393	15315.35	3.9620	3.9620	0.8900	25.77	0.47	0.750			
0.2420	15488.10	3.9590	3.9590	0.8892	25.78	0.48	0.750			
0.2447	15658.34	3.9560	3.9560	0.8909	25.78	0.48	0.750			
0.2473	15829.32	3.9530	3.9530	0.8933	25.78	0.48	0.750			
0.2500	15999.62	3.9500	3.9499	0.8957	25.79	0.49	0.750			
0.2527	16172.27	3.9470	3.9470	0.8989	25.79	0.49	0.750			
0.2554	16345.87	3.9440	3.9440	0.8974	25.79	0.49	0.750			
0.2581	16517.50	3.9410	3.9410	0.8996	25.79	0.49	0.750			
0.2608	16691.42	3.9380	3.9381	0.9035	25.79	0.49	0.750			
0.2635	16864.02	3.9350	3.9350	0.8989	25.79	0.49	0.750			
0.2662	17037.35	3.9320	3.9320	0.8955	25.79	0.49	0.750			
0.2689	17208.33	3.9290	3.9291	0.8993	25.79	0.49	0.750			
0.2716	17381.61	3.9260	3.9260	0.9024	25.79	0.49	0.750			
0.2743	17554.26	3.9230	3.9230	0.8997	25.79	0.49	0.750			
0.2770	17727.28	3.9200	3.9201	0.8997	25.79	0.49	0.750			
0.2797	17900.20	3.9170	3.9171	0.8965	25.79	0.49	0.750			
0.2824	18072.95	3.9140	3.9140	0.9006	25.79	0.49	0.750			
0.2851	18245.18	3.9110	3.9110	0.9034	25.79	0.49	0.750			
0.2878	18417.29	3.9080	3.9078	0.8992	25.79	0.49	0.750			
0.2905	18591.27	3.9050	3.9051	0.9021	25.79	0.49	0.750			
0.2932	18765.06	3.9020	3.9021	0.9041	25.78	0.48	0.750			
0.2959	18939.98	3.8990	3.8990	0.9113	25.78	0.48	0.750			
0.2987	19115.77	3.8960	3.8960	0.9113	25.77	0.47	0.750			
0.3014	19288.62	3.8930	3.8929	0.9036	25.77	0.47	0.750			
0.3041	19463.37	3.8900	3.8901	0.8988	25.76	0.46	0.750			
0.3068	19636.06	3.8870	3.8870	0.9019	25.76	0.46	0.750			
0.3095	19807.71	3.8840	3.8840	0.8992	25.76	0.46	0.750			
0.3122	19979.48	3.8810	3.8809	0.8970	25.75	0.45	0.750			
0.3148	20150.14	3.8780	3.8781	0.9009	25.75	0.45	0.750			
0.3176	20324.34	3.8750	3.8751	0.9013	25.74	0.44	0.750			
0.3203	20497.51	3.8720	3.8720	0.9100	25.74	0.44	0.750			
0.3230	20673.38	3.8690	3.8690	0.9154	25.73	0.43	0.750			
0.3258	20849.22	3.8660	3.8656	0.9128	25.73	0.43	0.750			
0.3285	21025.67	3.8630	3.8631	0.9165	25.72	0.42	0.750			
0.3313	21201.97	3.8600	3.8600	0.9193	25.71	0.41	0.750			
0.3340	21378.55	3.8570	3.8570	0.9204	25.70	0.40	0.750			
0.3368	21553.48	3.8540	3.8539	0.9178	25.69	0.39	0.750			
0.3395	21730.38	3.8510	3.8511	0.9210	25.69	0.39	0.750			
0.3424	21911.50	3.8480	3.8480	0.9118	25.68	0.38	0.750			
0.3450	22079.69	3.8450	3.8451	0.9216	25.68	0.38	0.750			
0.3477	22253.21	3.8420	3.8423	0.9318	25.67	0.37	0.750			
0.3505	22433.97	3.8390	3.8385	0.9459	25.67	0.37	0.750	0.316	0.434	
0.3534	22618.75	3.8360	3.8363	0.9482	25.66	0.36	0.750			
0.3563	22802.81	3.8330	3.8333	0.9629	25.65	0.35	0.750			
0.3593	22994.07	3.8300	3.8301	0.9806	25.64	0.34	0.750			
0.3622	23182.08	3.8270	3.8269	0.9765	25.63	0.33	0.750			
0.3651	23365.77	3.8240	3.8241	0.9683	25.62	0.32	0.750			
0.3680	23551.93	3.8210	3.8211	0.9811	25.61	0.31	0.750			
0.3710	23742.87	3.8180	3.8180	0.9936	25.61	0.31	0.750			
0.3740	23935.76	3.8150	3.8150	0.9977	25.60	0.30	0.750			
0.3770	24129.43	3.8120	3.8121	1.0018	25.59	0.29	0.750			
0.3800	24322.96	3.8090	3.8090	1.0074	25.58	0.28	0.750			
0.3831	24516.05	3.8060	3.8061	1.0227	25.57	0.27	0.750			
0.3861	24712.32	3.8030	3.8031	1.0327	25.56	0.26	0.750			
0.3893	24913.29	3.8000	3.7999	1.0340	25.56	0.26	0.750			
0.3923	25110.22	3.7970	3.7971	1.0534	25.55	0.25	0.750			
0.3955	25314.05	3.7940	3.7941	1.0693	25.54	0.24	0.750			
0.3988	25520.98	3.7910	3.7910	1.0876	25.53	0.23	0.750			
0.4020	25730.56	3.7880	3.7881	1.1039	25.52	0.22	0.750			
0.4054	25943.48	3.7850	3.7851	1.1220	25.51	0.21	0.750			
0.4088	26162.61	3.7820	3.7819	1.1456	25.50	0.20	0.750			
0.4123	26385.59	3.7790	3.7790	1.1652	25.48	0.18	0.750			
0.4158	26608.15	3.7760	3.7761	1.1707	25.47	0.17	0.750			
0.4193	26833.90	3.7730	3.7730	1.1980	25.47	0.17	0.750			
0.4229	27064.30	3.7700	3.7701	1.2187	25.46	0.16	0.750			
0.4266	27302.46	3.7670	3.7671	1.2246	25.45	0.15	0.750			
0.4303	27536.54	3.7640	3.7642	1.2569	25.44	0.14	0.750			
0.4340	27778.71	3.7610	3.7612	1.2935	25.42	0.12	0.750			
0.4380	28031.06	3.7580	3.7575	1.3313	25.41	0.11	0.750			
0.4420	28288.03	3.7550	3.7551	1.3559	25.40	0.10	0.750			
0.4462	28557.31	3.7520	3.7520	1.3883	25.38	0.08	0.750			
0.4505	28834.24	3.7490	3.7489	1.4264	25.37	0.07	0.750			
0.4548	29106.80	3.7460	3.7460	1.4439	25.36	0.06	0.750			
0.4592	29389.21	3.7430	3.7430	1.4606	25.36	0.06	0.750			
0.4636	29671.75	3.7400	3.7398	1.4894	25.35	0.05	0.750			
0.4681	29958.02	3.7370	3.7368	1.5349	25.33	0.03	0.750			
0.4728	30257.94	3.7340	3.7342	1.5840	25.31	0.01	0.750			
0.4775	30563.11	3.7310	3.7311	1.6382	25.30	-0.00	0.750			
0.4826	30883.58	3.7280	3.7284	1.6810	25.29	-0.01	0.750			
0.4877	31210.72	3.7250	3.7251	1.7186	25.28	-0.02	0.750			
0.4929	31547.23	3.7220	3.7219	1.7679	25.27	-0.03	0.750			
0.4984	31894.42	3.7190	3.7192	1.8052	25.26	-0.04	0.750			
0.5037	32239.94	3.7160	3.7160	1.8574	25.24	-0.06	0.750			
0.5095	32606.53	3.7130	3.7131	1.9396	25.23	-0.07	0.750			
0.5153	32980.83	3.7100	3.7099	1.9875	25.21	-0.09	0.750			
0.5215	33377.19	3.7070	3.7070	2.0395	25.20	-0.10	0.750			
0.5278	33776.63	3.7040	3.7040	2.0974	25.19	-0.11	0.750			
0.5342	34191.28	3.7010	3.7010	2.1678	25.18	-0.12	0.750			
0.5408	34609.39	3.6980	3.6977	2.1904	25.16	-0.14	0.750			
0.5474	35033.18	3.6950	3.6949	2.2580	25.15	-0.15	0.750			
0.5541	35462.15	3.6920	3.6922	2.3119	25.14	-0.16	0.750			
0.5612	35918.01	3.6890	3.6891	2.3979	25.14	-0.16	0.750			
0.5686	36387.29	3.6860	3.6858	2.5075	25.13	-0.17	0.750			
0.5764	36889.08	3.6830	3.6828	2.5519	25.12	-0.18	0.750			
0.5842	37390.70	3.6800	3.6801	2.5754	25.13	-0.17	0.750			
0.5917	37868.27	3.6770	3.6772	2.5319	25.13	-0.17	0.750			
0.5993	38355.71	3.6740	3.6740	2.4526	25.12	-0.18	0.750			
0.6068	38835.74	3.6710	3.6709	2.4147	25.12	-0.18	0.750			
0.6141	39304.17	3.6680	3.6678	2.3394	25.12	-0.18	0.750			
0.6208	39732.49	3.6650	3.6649	2.1589	25.13	-0.17	0.750			
0.6269	40124.27	3.6620	3.6623	1.9841	25.14	-0.16	0.750			
0.6328	40498.84	3.6590	3.6593	1.8485	25.16	-0.14	0.750			
0.6381	40837.52	3.6560	3.6562	1.7210	25.17	-0.13	0.750			
0.6429	41148.61	3.6530	3.6533	1.5860	25.17	-0.13	0.750			
0.6476	41446.80	3.6500	3.6501	1.4828	25.18	-0.12	0.750			
0.6518	41717.25	3.6470	3.6470	1.3710	25.18	-0.12	0.750			
0.6557	41962.55	3.6440	3.6441	1.2661	25.19	-0.11	0.750			
0.6592	42187.27	3.6410	3.6411	1.1799	25.19	-0.11	0.750			
0.6626	42405.81	3.6380	3.6377	1.1236	25.20	-0.10	0.750			
0.6658	42613.43	3.6350	3.6351	1.0607	25.20	-0.10	0.750			
0.6689	42811.24	3.6320	3.6321	1.0206	25.21	-0.09	0.750			
0.6719	43003.21	3.6290	3.6291	0.9864	25.21	-0.09	0.750			
0.6749	43193.04	3.6260	3.6258	0.9590	25.22	-0.08	0.750			
0.6776	43366.94	3.6230	3.6230	0.9140	25.23	-0.07	0.750			
0.6803	43541.63	3.6200	3.6200	0.8725	25.24	-0.06	0.750			
0.6830	43712.22	3.6170	3.6169	0.8210	25.25	-0.05	0.750			
0.6854	43865.67	3.6140	3.6141	0.7867	25.26	-0.04	0.750			
0.6876	44009.13	3.6110	3.6111	0.7381	25.27	-0.03	0.750			
0.6898	44145.80	3.6080	3.6084	0.6904	25.27	-0.03	0.750			
0.6918	44273.52	3.6050	3.6025	0.6411	25.28	-0.02	0.750			
0.6936	44392.16	3.6020	3.6022	0.5927	25.28	-0.02	0.750			
0.6954	44505.46	3.5990	3.5992	0.5469	25.29	-0.01	0.750			
0.6969	44604.09	3.5960	3.5960	0.4856	25.29	-0.01	0.750			
0.6983	44691.64	3.5930	3.5930	0.4272	25.29	-0.01	0.750			
0.6995	44767.66	3.5900	3.5902	0.3774	25.30	-0.00	0.750			
0.7006	44837.25	3.5870	3.5864	0.3305	25.30	-0.00	0.750			
0.7015	44896.46	3.5840	3.5840	0.2831	25.30	0.00	0.750			
0.7023	44946.24	3.5810	3.5812	0.2344	25.30	0.00	0.750			
0.7029	44986.88	3.5780	3.5783	0.1851	25.31	0.01	0.750			
0.7035	45021.00	3.5750	3.5749	0.1206	25.31	0.01	0.750			
0.7037	45037.73	3.5720	3.5727	0.0619	25.31	0.01	0.750			
