Ah_balance (normalized)	Ah_balance (mAh)	Voltage - fit (V)	Voltage -  interpolate (V)	dQ/dV (1/V)	Temperature (°C)	Temperature - diff (°C)	Current (C)	R_DC 0ms (mOhm)	R_DC 50ms (mOhm)	R_DC 50 ms PEC (mOhm)
0.0003	16.56	4.1630	4.1627	-0.1063	25.04	0.03	-0.750			
0.0006	41.46	4.1600	4.1600	-0.1545	25.04	0.03	-0.750			
0.0012	76.35	4.1570	4.1569	-0.2021	25.04	0.03	-0.750			
0.0019	119.73	4.1540	4.1540	-0.2486	25.03	0.02	-0.750			
0.0027	173.63	4.1510	4.1510	-0.2879	25.03	0.02	-0.750			
0.0037	234.06	4.1480	4.1479	-0.3314	25.03	0.02	-0.750			
0.0047	300.99	4.1450	4.1452	-0.3688	25.03	0.02	-0.750			
0.0059	376.42	4.1420	4.1421	-0.4039	25.02	0.01	-0.750			
0.0071	457.05	4.1390	4.1388	-0.4451	25.02	0.01	-0.750			
0.0086	547.29	4.1360	4.1359	-0.4800	25.02	0.01	-0.750			
0.0101	644.40	4.1330	4.1331	-0.5081	25.01	0.00	-0.750			
0.0117	746.15	4.1300	4.1306	-0.5364	25.01	0.00	-0.750			
0.0133	852.68	4.1270	4.1270	-0.5619	25.01	-0.00	-0.750			
0.0150	962.98	4.1240	4.1239	-0.5837	25.00	-0.01	-0.750			
0.0168	1075.97	4.1210	4.1209	-0.6014	25.00	-0.01	-0.750			
0.0186	1192.71	4.1180	4.1180	-0.6123	24.99	-0.02	-0.750			
0.0205	1314.37	4.1150	4.1151	-0.6359	24.99	-0.02	-0.750			
0.0225	1440.05	4.1120	4.1120	-0.6540	24.98	-0.03	-0.750			
0.0245	1565.88	4.1090	4.1090	-0.6614	24.98	-0.03	-0.750			
0.0265	1693.64	4.1060	4.1059	-0.6687	24.98	-0.03	-0.750			
0.0285	1823.59	4.1030	4.1031	-0.6772	24.98	-0.03	-0.750			
0.0305	1954.42	4.1000	4.1001	-0.6960	24.98	-0.03	-0.750			
0.0327	2090.83	4.0970	4.0967	-0.7005	24.97	-0.04	-0.750			
0.0348	2225.69	4.0940	4.0940	-0.7060	24.97	-0.04	-0.750			
0.0369	2362.70	4.0910	4.0916	-0.7155	24.97	-0.04	-0.750			
0.0391	2502.29	4.0880	4.0877	-0.7247	24.97	-0.04	-0.750			
0.0413	2640.50	4.0850	4.0850	-0.7368	24.97	-0.04	-0.750			
0.0435	2782.10	4.0820	4.0820	-0.7328	24.96	-0.05	-0.750			
0.0457	2926.06	4.0790	4.0789	-0.7419	24.96	-0.05	-0.750			
0.0479	3068.68	4.0760	4.0758	-0.7395	24.96	-0.05	-0.750			
0.0501	3209.59	4.0730	4.0731	-0.7329	24.96	-0.05	-0.750			
0.0523	3348.79	4.0700	4.0700	-0.7300	24.96	-0.05	-0.750			
0.0545	3485.94	4.0670	4.0669	-0.7348	24.96	-0.05	-0.750			
0.0566	3624.73	4.0640	4.0642	-0.7343	24.97	-0.04	-0.750			
0.0590	3773.07	4.0610	4.0608	-0.7474	24.97	-0.04	-0.750			
0.0612	3916.90	4.0580	4.0580	-0.7521	24.97	-0.04	-0.750			
0.0635	4062.37	4.0550	4.0550	-0.7547	24.97	-0.04	-0.750			
0.0657	4207.87	4.0520	4.0519	-0.7546	24.97	-0.04	-0.750			
0.0680	4352.18	4.0490	4.0489	-0.7587	24.97	-0.04	-0.750			
0.0702	4495.51	4.0460	4.0460	-0.7562	24.96	-0.05	-0.750			
0.0726	4644.81	4.0430	4.0430	-0.7600	24.96	-0.05	-0.750			
0.0749	4791.26	4.0400	4.0402	-0.7592	24.96	-0.05	-0.750			
0.0771	4935.48	4.0370	4.0370	-0.7566	24.96	-0.05	-0.750			
0.0794	5081.48	4.0340	4.0340	-0.7671	24.96	-0.05	-0.750			
0.0817	5228.91	4.0310	4.0309	-0.7633	24.97	-0.04	-0.750			
0.0841	5379.65	4.0280	4.0278	-0.7568	24.97	-0.04	-0.750			
0.0863	5523.46	4.0250	4.0249	-0.7512	24.97	-0.04	-0.750			
0.0885	5666.96	4.0220	4.0219	-0.7602	24.97	-0.04	-0.750			
0.0908	5810.63	4.0190	4.0189	-0.7586	24.97	-0.04	-0.750			
0.0930	5953.16	4.0160	4.0158	-0.7620	24.97	-0.04	-0.750			
0.0954	6103.44	4.0130	4.0130	-0.7798	24.98	-0.03	-0.750			
0.0978	6256.33	4.0100	4.0100	-0.7838	24.98	-0.03	-0.750			
0.1001	6408.39	4.0070	4.0071	-0.7815	24.98	-0.03	-0.750			
0.1025	6556.80	4.0040	4.0039	-0.7798	24.98	-0.03	-0.750			
0.1048	6705.41	4.0010	4.0010	-0.7808	24.98	-0.03	-0.750			
0.1071	6853.07	3.9980	3.9981	-0.7806	24.98	-0.03	-0.750			
0.1095	7005.75	3.9950	3.9950	-0.7874	24.98	-0.03	-0.750			
0.1118	7157.63	3.9920	3.9919	-0.7922	24.98	-0.03	-0.750			
0.1142	7310.72	3.9890	3.9890	-0.7931	24.98	-0.03	-0.750			
0.1166	7464.22	3.9860	3.9859	-0.8085	24.98	-0.03	-0.750			
0.1191	7621.84	3.9830	3.9829	-0.8019	24.98	-0.03	-0.750			
0.1215	7777.23	3.9800	3.9798	-0.8005	24.98	-0.03	-0.750			
0.1239	7931.40	3.9770	3.9776	-0.8015	24.98	-0.03	-0.750			
0.1263	8084.90	3.9740	3.9737	-0.7990	24.98	-0.03	-0.750			
0.1287	8235.06	3.9710	3.9709	-0.7984	24.99	-0.02	-0.750			
0.1311	8388.53	3.9680	3.9679	-0.7938	24.99	-0.02	-0.750			
0.1335	8542.33	3.9650	3.9650	-0.8109	24.99	-0.02	-0.750			
0.1359	8697.28	3.9620	3.9620	-0.8105	25.00	-0.01	-0.750			
0.1383	8852.65	3.9590	3.9590	-0.8094	25.00	-0.01	-0.750			
0.1407	9005.19	3.9560	3.9559	-0.8232	25.00	-0.01	-0.750			
0.1432	9165.83	3.9530	3.9530	-0.8167	25.00	-0.01	-0.750			
0.1457	9323.30	3.9500	3.9499	-0.8166	25.00	-0.01	-0.750			
0.1482	9483.78	3.9470	3.9470	-0.8247	25.00	-0.01	-0.750			
0.1506	9639.17	3.9440	3.9438	-0.8157	25.00	-0.01	-0.750			
0.1531	9796.13	3.9410	3.9409	-0.8246	25.01	-0.00	-0.750			
0.1555	9954.86	3.9380	3.9380	-0.8238	25.01	-0.00	-0.750			
0.1580	10112.13	3.9350	3.9349	-0.8188	25.01	0.00	-0.750			
0.1605	10274.56	3.9320	3.9317	-0.8252	25.02	0.01	-0.750			
0.1630	10430.56	3.9290	3.9287	-0.8275	25.02	0.01	-0.750			
0.1654	10588.61	3.9260	3.9259	-0.8257	25.02	0.01	-0.750			
0.1679	10745.21	3.9230	3.9230	-0.8241	25.02	0.01	-0.750			
0.1703	10900.62	3.9200	3.9201	-0.8139	25.02	0.01	-0.750			
0.1729	11064.41	3.9170	3.9171	-0.8326	25.02	0.01	-0.750			
0.1754	11223.31	3.9140	3.9140	-0.8408	25.02	0.01	-0.750			
0.1779	11382.90	3.9110	3.9110	-0.8512	25.03	0.02	-0.750			
0.1804	11548.33	3.9080	3.9079	-0.8467	25.03	0.02	-0.750			
0.1830	11715.11	3.9050	3.9051	-0.8554	25.03	0.02	-0.750			
0.1856	11879.87	3.9020	3.9020	-0.8569	25.04	0.03	-0.750			
0.1882	12044.97	3.8990	3.8989	-0.8543	25.04	0.03	-0.750			
0.1907	12207.12	3.8960	3.8959	-0.8610	25.04	0.03	-0.750			
0.1934	12374.50	3.8930	3.8929	-0.8570	25.04	0.03	-0.750			
0.1959	12539.77	3.8900	3.8899	-0.8544	25.04	0.03	-0.750			
0.1985	12705.91	3.8870	3.8868	-0.8577	25.04	0.03	-0.750			
0.2011	12870.77	3.8840	3.8837	-0.8501	25.04	0.03	-0.750			
0.2036	13031.09	3.8810	3.8809	-0.8509	25.05	0.04	-0.750			
0.2061	13190.76	3.8780	3.8781	-0.8474	25.05	0.04	-0.750			
0.2087	13357.91	3.8750	3.8750	-0.8560	25.05	0.04	-0.750			
0.2113	13522.19	3.8720	3.8720	-0.8538	25.06	0.05	-0.750			
0.2138	13684.74	3.8690	3.8690	-0.8461	25.06	0.05	-0.750			
0.2163	13845.59	3.8660	3.8660	-0.8525	25.06	0.05	-0.750			
0.2189	14009.93	3.8630	3.8629	-0.8559	25.06	0.05	-0.750			
0.2215	14173.24	3.8600	3.8599	-0.8524	25.06	0.05	-0.750			
0.2241	14340.43	3.8570	3.8571	-0.8554	25.06	0.05	-0.750			
0.2266	14501.07	3.8540	3.8540	-0.8732	25.06	0.05	-0.750			
0.2292	14670.67	3.8510	3.8511	-0.8616	25.06	0.05	-0.750			
0.2318	14836.85	3.8480	3.8478	-0.8597	25.06	0.05	-0.750			
0.2344	15003.85	3.8450	3.8447	-0.8570	25.06	0.05	-0.750			
0.2370	15167.38	3.8420	3.8430	-0.8485	25.06	0.05	-0.750			
0.2395	15330.52	3.8390	3.8389	-0.8425	25.06	0.05	-0.750			
0.2420	15489.50	3.8360	3.8359	-0.8404	25.07	0.06	-0.750			
0.2444	15643.97	3.8330	3.8330	-0.8283	25.07	0.06	-0.750			
0.2470	15808.90	3.8300	3.8299	-0.8391	25.08	0.07	-0.750			
0.2495	15970.09	3.8270	3.8272	-0.8387	25.08	0.07	-0.750			
0.2521	16131.72	3.8240	3.8239	-0.8388	25.08	0.07	-0.750			
0.2546	16292.87	3.8210	3.8211	-0.8414	25.08	0.07	-0.750			
0.2571	16456.52	3.8180	3.8179	-0.8306	25.08	0.07	-0.750			
0.2596	16616.47	3.8150	3.8149	-0.8258	25.08	0.07	-0.750			
0.2621	16773.53	3.8120	3.8125	-0.8202	25.08	0.07	-0.750			
0.2645	16930.42	3.8090	3.8089	-0.8130	25.08	0.07	-0.750			
0.2669	17084.10	3.8060	3.8058	-0.8191	25.09	0.08	-0.750			
0.2694	17241.49	3.8030	3.8030	-0.8093	25.09	0.08	-0.750			
0.2719	17401.66	3.8000	3.7998	-0.8106	25.10	0.09	-0.750			
0.2743	17555.80	3.7970	3.7979	-0.8025	25.10	0.09	-0.750			
0.2767	17708.31	3.7940	3.7939	-0.7949	25.10	0.09	-0.750			
0.2790	17858.60	3.7910	3.7909	-0.7897	25.10	0.09	-0.750			
0.2813	18005.59	3.7880	3.7879	-0.7830	25.10	0.09	-0.750			
0.2838	18161.42	3.7850	3.7851	-0.7918	25.10	0.09	-0.750			
0.2861	18312.02	3.7820	3.7821	-0.7892	25.10	0.09	-0.750			
0.2885	18464.89	3.7790	3.7789	-0.7869	25.10	0.09	-0.750			
0.2908	18612.32	3.7760	3.7761	-0.7921	25.11	0.10	-0.750			
0.2932	18763.89	3.7730	3.7728	-0.7825	25.11	0.10	-0.750			
0.2955	18914.98	3.7700	3.7700	-0.7813	25.11	0.10	-0.750			
0.2979	19065.17	3.7670	3.7669	-0.7844	25.12	0.11	-0.750			
0.3002	19215.97	3.7640	3.7639	-0.7872	25.12	0.11	-0.750			
0.3026	19363.37	3.7610	3.7610	-0.7919	25.12	0.11	-0.750			
0.3050	19519.36	3.7580	3.7580	-0.7953	25.12	0.11	-0.750			
0.3073	19670.04	3.7550	3.7550	-0.7958	25.12	0.11	-0.750			
0.3098	19828.04	3.7520	3.7518	-0.8090	25.12	0.11	-0.750			
0.3122	19982.66	3.7490	3.7498	-0.8132	25.12	0.11	-0.750			
0.3146	20135.46	3.7460	3.7458	-0.8297	25.12	0.11	-0.750			
0.3171	20294.56	3.7430	3.7430	-0.8410	25.12	0.11	-0.750			
0.3197	20458.86	3.7400	3.7399	-0.8515	25.12	0.11	-0.750			
0.3223	20625.88	3.7370	3.7370	-0.8664	25.12	0.11	-0.750			
0.3249	20794.69	3.7340	3.7342	-0.8777	25.12	0.11	-0.750			
0.3276	20963.75	3.7310	3.7310	-0.8901	25.12	0.11	-0.750			
0.3302	21135.03	3.7280	3.7279	-0.8902	25.12	0.11	-0.750			
0.3329	21305.45	3.7250	3.7250	-0.8941	25.11	0.10	-0.750			
0.3356	21479.51	3.7220	3.7219	-0.9026	25.11	0.10	-0.750			
0.3383	21652.42	3.7190	3.7191	-0.9111	25.11	0.10	-0.750			
0.3411	21832.56	3.7160	3.7159	-0.9373	25.11	0.10	-0.750			
0.3439	22012.71	3.7130	3.7127	-0.9496	25.10	0.09	-0.750			
0.3468	22192.54	3.7100	3.7099	-0.9814	25.10	0.09	-0.750			
0.3498	22388.98	3.7070	3.7073	-0.9930	25.10	0.09	-0.750			
0.3529	22585.31	3.7040	3.7037	-1.0013	25.10	0.09	-0.750			
0.3559	22779.74	3.7010	3.7007	-0.9940	25.09	0.08	-0.750			
0.3587	22959.62	3.6980	3.6980	-0.9923	25.09	0.08	-0.750	0.385	0.500	
0.3619	23161.62	3.6950	3.6950	-1.0284	25.09	0.08	-0.750			
0.3649	23353.40	3.6920	3.6918	-1.0521	25.09	0.08	-0.750			
0.3681	23555.66	3.6890	3.6890	-1.0537	25.09	0.08	-0.750			
0.3714	23772.42	3.6860	3.6859	-1.1017	25.08	0.07	-0.750			
0.3748	23984.15	3.6830	3.6836	-1.1533	25.08	0.07	-0.750			
0.3783	24213.38	3.6800	3.6798	-1.1826	25.07	0.06	-0.750			
0.3819	24439.88	3.6770	3.6766	-1.2024	25.07	0.06	-0.750			
0.3855	24672.17	3.6740	3.6739	-1.2281	25.06	0.05	-0.750			
0.3893	24916.97	3.6710	3.6709	-1.2659	25.06	0.05	-0.750			
0.3932	25163.89	3.6680	3.6678	-1.2729	25.05	0.04	-0.750			
0.3969	25403.24	3.6650	3.6651	-1.2883	25.04	0.03	-0.750			
0.4009	25655.71	3.6620	3.6621	-1.3136	25.04	0.03	-0.750			
0.4048	25909.46	3.6590	3.6589	-1.3228	25.03	0.02	-0.750			
0.4088	26162.47	3.6560	3.6558	-1.3367	25.03	0.02	-0.750			
0.4127	26415.63	3.6530	3.6533	-1.3905	25.02	0.01	-0.750			
0.4171	26695.18	3.6500	3.6497	-1.4110	25.01	0.00	-0.750			
0.4215	26974.22	3.6470	3.6467	-1.4482	25.00	-0.01	-0.750			
0.4259	27254.50	3.6440	3.6436	-1.4467	25.00	-0.01	-0.750			
0.4303	27536.87	3.6410	3.6408	-1.4896	24.99	-0.02	-0.750			
0.4348	27825.26	3.6380	3.6381	-1.5132	24.98	-0.03	-0.750			
0.4392	28108.79	3.6350	3.6346	-1.5000	24.98	-0.03	-0.750			
0.4438	28405.62	3.6320	3.6322	-1.5401	24.97	-0.04	-0.750			
0.4486	28709.10	3.6290	3.6293	-1.6184	24.96	-0.05	-0.750			
0.4535	29025.45	3.6260	3.6256	-1.6112	24.95	-0.06	-0.750			
0.4585	29346.23	3.6230	3.6229	-1.6508	24.95	-0.06	-0.750			
0.4633	29652.85	3.6200	3.6197	-1.7076	24.94	-0.07	-0.750			
0.4685	29985.54	3.6170	3.6167	-1.7539	24.93	-0.08	-0.750			
0.4739	30330.14	3.6140	3.6141	-1.7947	24.92	-0.09	-0.750			
0.4792	30671.14	3.6110	3.6111	-1.8180	24.91	-0.10	-0.750			
0.4849	31033.52	3.6080	3.6078	-1.8429	24.90	-0.11	-0.750			
0.4907	31402.48	3.6050	3.6049	-1.9075	24.89	-0.12	-0.750			
0.4964	31770.57	3.6020	3.6018	-1.9100	24.88	-0.13	-0.750			
0.5020	32129.79	3.5990	3.5986	-1.9249	24.88	-0.13	-0.750			
0.5080	32515.19	3.5960	3.5964	-1.9649	24.88	-0.13	-0.750			
0.5140	32894.26	3.5930	3.5929	-1.9912	24.88	-0.13	-0.750			
0.5201	33283.54	3.5900	3.5899	-2.0399	24.87	-0.14	-0.750			
0.5260	33664.97	3.5870	3.5870	-2.0594	24.87	-0.14	-0.750			
0.5323	34068.78	3.5840	3.5839	-2.1226	24.86	-0.15	-0.750			
0.5389	34491.68	3.5810	3.5807	-2.1642	24.86	-0.15	-0.750			
0.5455	34909.45	3.5780	3.5776	-2.1534	24.86	-0.15	-0.750			
0.5520	35325.47	3.5750	3.5752	-2.1987	24.86	-0.15	-0.750			
0.5587	35757.44	3.5720	3.5716	-2.1844	24.86	-0.15	-0.750			
0.5652	36172.19	3.5690	3.5686	-2.1856	24.86	-0.15	-0.750			
0.5716	36580.09	3.5660	3.5665	-2.2103	24.85	-0.16	-0.750			
0.5784	37015.19	3.5630	3.5626	-2.2344	24.85	-0.16	-0.750			
0.5853	37460.44	3.5600	3.5596	-2.2368	24.85	-0.16	-0.750			
0.5920	37885.59	3.5570	3.5573	-2.2657	24.85	-0.16	-0.750			
0.5987	38314.75	3.5540	3.5542	-2.2049	24.84	-0.17	-0.750			
0.6052	38730.93	3.5510	3.5505	-2.1422	24.85	-0.16	-0.750			
0.6116	39139.38	3.5480	3.5482	-2.1154	24.86	-0.15	-0.750			
0.6180	39549.15	3.5450	3.5452	-2.1038	24.86	-0.15	-0.750			
0.6242	39947.62	3.5420	3.5422	-2.0920	24.86	-0.15	-0.750			
0.6304	40348.53	3.5390	3.5392	-2.0776	24.87	-0.14	-0.750			
0.6364	40731.50	3.5360	3.5362	-2.0123	24.88	-0.13	-0.750			
0.6425	41122.61	3.5330	3.5333	-1.9856	24.89	-0.12	-0.750			
0.6485	41505.64	3.5300	3.5303	-1.9277	24.90	-0.11	-0.750			
0.6543	41876.14	3.5270	3.5272	-1.8656	24.91	-0.10	-0.750			
0.6597	42223.27	3.5240	3.5243	-1.8149	24.92	-0.09	-0.750			
0.6650	42561.28	3.5210	3.5208	-1.7769	24.93	-0.08	-0.750			
0.6703	42898.08	3.5180	3.5176	-1.7190	24.95	-0.06	-0.750			
0.6754	43227.21	3.5150	3.5151	-1.6879	24.96	-0.05	-0.750			
0.6805	43550.67	3.5120	3.5118	-1.6327	24.98	-0.03	-0.750			
0.6853	43860.24	3.5090	3.5088	-1.5840	24.99	-0.02	-0.750			
0.6899	44156.30	3.5060	3.5060	-1.5301	25.01	-0.00	-0.750			
0.6944	44439.46	3.5030	3.5029	-1.4875	25.02	0.01	-0.750			
0.6988	44722.79	3.5000	3.4999	-1.4586	25.04	0.03	-0.750			
0.7031	45000.31	3.4970	3.4971	-1.4252	25.05	0.04	-0.750			
0.7074	45271.28	3.4940	3.4941	-1.4087	25.07	0.06	-0.750			
0.7118	45552.39	3.4910	3.4911	-1.3333	25.08	0.07	-0.750			
0.7156	45800.30	3.4880	3.4879	-1.2564	25.09	0.08	-0.750			
