Ah_balance (normalized)	Ah_balance (mAh)	Voltage - fit (V)	Voltage -  interpolate (V)	dQ/dV (1/V)	Temperature (°C)	Temperature - diff (°C)	Current (C)	R_DC 0ms (mOhm)	R_DC 50ms (mOhm)	R_DC 50 ms PEC (mOhm)
0.0480	3073.91	4.1980	4.1981	0.7167	25.35	0.39	0.750			
0.0502	3215.42	4.1950	4.1947	0.7474	25.35	0.39	0.750			
0.0525	3360.90	4.1920	4.1921	0.7579	25.35	0.39	0.750			
0.0548	3509.21	4.1890	4.1891	0.7575	25.35	0.39	0.750			
0.0571	3655.51	4.1860	4.1860	0.7611	25.35	0.39	0.750			
0.0594	3799.69	4.1830	4.1830	0.7541	25.35	0.39	0.750			
0.0616	3945.34	4.1800	4.1799	0.7541	25.35	0.39	0.750			
0.0639	4089.37	4.1770	4.1771	0.7568	25.35	0.39	0.750			
0.0662	4235.92	4.1740	4.1741	0.7566	25.35	0.39	0.750			
0.0685	4381.11	4.1710	4.1710	0.7568	25.35	0.39	0.750			
0.0707	4527.96	4.1680	4.1680	0.7612	25.35	0.39	0.750			
0.0730	4671.51	4.1650	4.1650	0.7595	25.35	0.39	0.750			
0.0753	4817.08	4.1620	4.1620	0.7633	25.35	0.39	0.750			
0.0776	4964.86	4.1590	4.1590	0.7679	25.35	0.39	0.750			
0.0799	5114.23	4.1560	4.1559	0.7596	25.36	0.40	0.750			
0.0822	5259.90	4.1530	4.1530	0.7641	25.36	0.40	0.750			
0.0845	5405.94	4.1500	4.1502	0.7655	25.37	0.41	0.750			
0.0867	5551.81	4.1470	4.1468	0.7679	25.37	0.41	0.750			
0.0891	5699.21	4.1440	4.1441	0.7711	25.37	0.41	0.750			
0.0914	5848.26	4.1410	4.1410	0.7697	25.37	0.41	0.750			
0.0937	5996.47	4.1380	4.1381	0.7760	25.37	0.41	0.750			
0.0961	6148.63	4.1350	4.1350	0.7873	25.37	0.41	0.750			
0.0984	6297.07	4.1320	4.1320	0.7797	25.37	0.41	0.750			
0.1007	6446.97	4.1290	4.1290	0.7797	25.37	0.41	0.750			
0.1031	6597.37	4.1260	4.1261	0.7798	25.37	0.41	0.750			
0.1054	6747.63	4.1230	4.1230	0.7790	25.37	0.41	0.750			
0.1078	6896.80	4.1200	4.1200	0.7782	25.37	0.41	0.750			
0.1101	7043.46	4.1170	4.1170	0.7788	25.37	0.41	0.750			
0.1124	7193.17	4.1140	4.1138	0.7850	25.37	0.41	0.750			
0.1148	7346.48	4.1110	4.1110	0.7834	25.37	0.41	0.750			
0.1172	7498.65	4.1080	4.1080	0.7724	25.37	0.41	0.750			
0.1195	7647.54	4.1050	4.1051	0.7728	25.38	0.42	0.750			
0.1218	7792.54	4.1020	4.1021	0.7686	25.38	0.42	0.750			
0.1240	7936.69	4.0990	4.0992	0.7751	25.38	0.42	0.750			
0.1263	8084.18	4.0960	4.0960	0.7896	25.38	0.42	0.750			
0.1287	8239.82	4.0930	4.0930	0.7931	25.38	0.42	0.750			
0.1313	8400.26	4.0900	4.0900	0.7948	25.38	0.42	0.750			
0.1337	8556.55	4.0870	4.0871	0.7878	25.38	0.42	0.750			
0.1360	8701.84	4.0840	4.0842	0.7679	25.38	0.42	0.750			
0.1381	8841.29	4.0810	4.0813	0.7739	25.38	0.42	0.750			
0.1404	8986.73	4.0780	4.0783	0.7902	25.38	0.42	0.750			
0.1428	9138.87	4.0750	4.0758	0.7933	25.38	0.42	0.750			
0.1452	9294.40	4.0720	4.0723	0.8220	25.38	0.42	0.750			
0.1478	9461.00	4.0690	4.0694	0.8443	25.38	0.42	0.750			
0.1504	9625.94	4.0660	4.0664	0.8460	25.38	0.42	0.750			
0.1530	9792.39	4.0630	4.0631	0.8260	25.39	0.43	0.750			
0.1554	9948.01	4.0600	4.0601	0.7897	25.39	0.43	0.750			
0.1577	10091.58	4.0570	4.0573	0.8056	25.39	0.43	0.750			
0.1601	10246.18	4.0540	4.0544	0.8173	25.40	0.44	0.750			
0.1625	10397.57	4.0510	4.0504	0.8202	25.40	0.44	0.750			
0.1650	10556.92	4.0480	4.0485	0.8377	25.40	0.44	0.750			
0.1675	10721.66	4.0450	4.0453	0.8394	25.40	0.44	0.750			
0.1701	10887.58	4.0420	4.0423	0.8487	25.40	0.44	0.750			
0.1727	11053.52	4.0390	4.0390	0.8467	25.40	0.44	0.750			
0.1752	11211.38	4.0360	4.0357	0.8400	25.40	0.44	0.750			
0.1777	11375.97	4.0330	4.0331	0.8382	25.40	0.44	0.750			
0.1803	11536.02	4.0300	4.0301	0.8430	25.40	0.44	0.750			
0.1828	11700.94	4.0270	4.0271	0.8498	25.41	0.45	0.750			
0.1853	11862.28	4.0240	4.0239	0.8453	25.41	0.45	0.750			
0.1879	12024.67	4.0210	4.0209	0.8474	25.41	0.45	0.750			
0.1905	12190.87	4.0180	4.0181	0.8369	25.42	0.46	0.750			
0.1930	12351.84	4.0150	4.0150	0.8451	25.42	0.46	0.750			
0.1955	12514.27	4.0120	4.0121	0.8471	25.42	0.46	0.750			
0.1980	12673.18	4.0090	4.0091	0.8470	25.43	0.47	0.750			
0.2005	12834.58	4.0060	4.0059	0.8499	25.43	0.47	0.750			
0.2031	13000.31	4.0030	4.0031	0.8506	25.43	0.47	0.750			
0.2057	13165.64	4.0000	4.0000	0.8599	25.43	0.47	0.750			
0.2083	13331.26	3.9970	3.9971	0.8678	25.43	0.47	0.750			
0.2109	13496.92	3.9940	3.9941	0.8636	25.43	0.47	0.750			
0.2135	13663.71	3.9910	3.9911	0.8643	25.43	0.47	0.750			
0.2161	13831.00	3.9880	3.9881	0.8624	25.44	0.48	0.750			
0.2188	14000.11	3.9850	3.9850	0.8591	25.44	0.48	0.750			
0.2213	14165.74	3.9820	3.9820	0.8449	25.44	0.48	0.750			
0.2238	14322.22	3.9790	3.9790	0.8596	25.45	0.49	0.750			
0.2263	14485.99	3.9760	3.9763	0.8759	25.45	0.49	0.750			
0.2290	14657.27	3.9730	3.9732	0.8742	25.45	0.49	0.750			
0.2316	14824.80	3.9700	3.9702	0.8943	25.45	0.49	0.750			
0.2344	15000.00	3.9670	3.9673	0.9050	25.45	0.49	0.750			
0.2371	15174.84	3.9640	3.9632	0.9130	25.45	0.49	0.750			
0.2400	15358.18	3.9610	3.9610	0.9049	25.45	0.49	0.750			
0.2426	15525.22	3.9580	3.9581	0.8992	25.45	0.49	0.750			
0.2453	15698.49	3.9550	3.9551	0.9064	25.46	0.50	0.750			
0.2481	15876.61	3.9520	3.9521	0.9182	25.46	0.50	0.750			
0.2507	16046.84	3.9490	3.9488	0.9087	25.46	0.50	0.750			
0.2535	16223.92	3.9460	3.9461	0.9097	25.46	0.50	0.750			
0.2562	16399.59	3.9430	3.9432	0.9117	25.46	0.50	0.750			
0.2590	16576.42	3.9400	3.9400	0.9139	25.46	0.50	0.750			
0.2617	16749.96	3.9370	3.9369	0.9100	25.46	0.50	0.750			
0.2644	16924.39	3.9340	3.9340	0.9090	25.46	0.50	0.750			
0.2672	17099.21	3.9310	3.9310	0.8971	25.46	0.50	0.750			
0.2699	17271.41	3.9280	3.9282	0.8993	25.46	0.50	0.750			
0.2725	17442.13	3.9250	3.9252	0.9015	25.46	0.50	0.750			
0.2752	17615.10	3.9220	3.9217	0.9056	25.46	0.50	0.750			
0.2780	17790.25	3.9190	3.9191	0.8965	25.46	0.50	0.750			
0.2806	17961.15	3.9160	3.9162	0.8997	25.46	0.50	0.750			
0.2834	18137.47	3.9130	3.9131	0.9081	25.45	0.49	0.750			
0.2861	18309.28	3.9100	3.9101	0.9068	25.45	0.49	0.750			
0.2888	18482.26	3.9070	3.9074	0.9133	25.45	0.49	0.750			
0.2915	18658.63	3.9040	3.9041	0.9153	25.45	0.49	0.750			
0.2943	18837.08	3.9010	3.9011	0.9256	25.45	0.49	0.750			
0.2972	19019.86	3.8980	3.8980	0.9292	25.45	0.49	0.750			
0.2999	19194.07	3.8950	3.8947	0.9195	25.45	0.49	0.750			
0.3027	19374.14	3.8920	3.8920	0.9082	25.45	0.49	0.750			
0.3054	19545.15	3.8890	3.8891	0.9114	25.44	0.48	0.750			
0.3081	19719.54	3.8860	3.8860	0.9141	25.44	0.48	0.750			
0.3108	19893.88	3.8830	3.8831	0.9102	25.43	0.47	0.750			
0.3136	20069.33	3.8800	3.8802	0.9132	25.43	0.47	0.750			
0.3164	20246.40	3.8770	3.8771	0.9096	25.42	0.46	0.750			
0.3190	20418.78	3.8740	3.8742	0.9171	25.42	0.46	0.750			
0.3218	20596.69	3.8710	3.8711	0.9254	25.41	0.45	0.750			
0.3246	20771.90	3.8680	3.8675	0.9172	25.41	0.45	0.750			
0.3274	20951.96	3.8650	3.8651	0.9187	25.40	0.44	0.750			
0.3301	21129.28	3.8620	3.8622	0.9257	25.40	0.44	0.750			
0.3330	21310.11	3.8590	3.8590	0.9321	25.39	0.43	0.750			
0.3357	21485.58	3.8560	3.8561	0.9188	25.38	0.42	0.750			
0.3385	21662.11	3.8530	3.8531	0.9225	25.38	0.42	0.750			
0.3413	21844.87	3.8500	3.8500	0.9114	25.37	0.41	0.750			
0.3440	22015.32	3.8470	3.8471	0.9205	25.36	0.40	0.750			
0.3467	22187.16	3.8440	3.8442	0.9302	25.36	0.40	0.750			
0.3494	22362.83	3.8410	3.8407	0.9403	25.35	0.39	0.750			
0.3523	22545.89	3.8380	3.8379	0.9550	25.34	0.38	0.750	0.315	0.413	
0.3552	22729.79	3.8350	3.8355	0.9566	25.34	0.38	0.750			
0.3581	22916.35	3.8320	3.8323	0.9718	25.33	0.37	0.750			
0.3611	23109.97	3.8290	3.8292	0.9931	25.32	0.36	0.750			
0.3640	23297.15	3.8260	3.8260	0.9883	25.31	0.35	0.750			
0.3669	23479.61	3.8230	3.8231	0.9777	25.31	0.35	0.750			
0.3699	23672.04	3.8200	3.8201	0.9951	25.30	0.34	0.750			
0.3730	23869.03	3.8170	3.8171	1.0114	25.29	0.33	0.750			
0.3759	24059.14	3.8140	3.8140	1.0004	25.28	0.32	0.750			
0.3790	24256.38	3.8110	3.8109	0.9848	25.27	0.31	0.750			
0.3818	24436.31	3.8080	3.8082	0.9957	25.26	0.30	0.750			
0.3847	24623.89	3.8050	3.8053	1.0104	25.26	0.30	0.750			
0.3878	24817.27	3.8020	3.8018	1.0327	25.25	0.29	0.750			
0.3909	25014.88	3.7990	3.7994	1.0363	25.24	0.28	0.750			
0.3941	25219.46	3.7960	3.7963	1.0521	25.22	0.26	0.750			
0.3973	25426.91	3.7930	3.7933	1.0908	25.21	0.25	0.750			
0.4007	25644.94	3.7900	3.7898	1.1162	25.20	0.24	0.750			
0.4039	25846.81	3.7870	3.7872	1.1142	25.19	0.23	0.750			
0.4072	26063.14	3.7840	3.7843	1.1437	25.18	0.22	0.750			
0.4108	26289.58	3.7810	3.7811	1.1670	25.17	0.21	0.750			
0.4144	26521.12	3.7780	3.7780	1.1444	25.16	0.20	0.750			
0.4179	26744.39	3.7750	3.7751	1.1799	25.16	0.20	0.750			
0.4213	26962.90	3.7720	3.7721	1.1998	25.15	0.19	0.750			
0.4250	27197.00	3.7690	3.7682	1.2111	25.14	0.18	0.750			
0.4286	27429.11	3.7660	3.7662	1.2517	25.13	0.17	0.750			
0.4324	27672.03	3.7630	3.7632	1.2864	25.12	0.16	0.750			
0.4363	27926.40	3.7600	3.7598	1.3142	25.10	0.14	0.750			
0.4405	28190.08	3.7570	3.7571	1.3588	25.09	0.13	0.750			
0.4444	28441.87	3.7540	3.7541	1.3618	25.08	0.12	0.750			
0.4485	28706.29	3.7510	3.7510	1.3959	25.06	0.10	0.750			
0.4527	28971.72	3.7480	3.7481	1.3820	25.05	0.09	0.750			
0.4570	29248.48	3.7450	3.7451	1.3773	25.04	0.08	0.750			
0.4611	29511.48	3.7420	3.7422	1.4296	25.02	0.06	0.750			
0.4653	29778.41	3.7390	3.7395	1.4947	25.01	0.05	0.750			
0.4698	30064.40	3.7360	3.7358	1.5446	25.00	0.04	0.750			
0.4747	30378.03	3.7330	3.7325	1.5843	24.98	0.02	0.750			
0.4797	30702.17	3.7300	3.7299	1.6815	24.97	0.01	0.750			
0.4847	31020.60	3.7270	3.7273	1.6846	24.96	-0.00	0.750			
0.4898	31349.69	3.7240	3.7238	1.7081	24.94	-0.02	0.750			
0.4951	31685.40	3.7210	3.7203	1.7658	24.93	-0.03	0.750			
0.5003	32018.00	3.7180	3.7182	1.8144	24.92	-0.04	0.750			
0.5058	32373.41	3.7150	3.7156	1.9085	24.90	-0.06	0.750			
0.5117	32749.98	3.7120	3.7119	1.9696	24.88	-0.08	0.750			
0.5178	33138.79	3.7090	3.7090	2.0401	24.87	-0.09	0.750			
0.5239	33532.26	3.7060	3.7061	2.0662	24.86	-0.10	0.750			
0.5302	33931.09	3.7030	3.7033	2.1129	24.85	-0.11	0.750			
0.5364	34329.38	3.7000	3.6999	2.1561	24.84	-0.12	0.750			
0.5429	34748.22	3.6970	3.6972	2.2418	24.83	-0.13	0.750			
0.5499	35196.01	3.6940	3.6936	2.2687	24.82	-0.14	0.750			
0.5568	35632.70	3.6910	3.6915	2.3903	24.81	-0.15	0.750			
0.5641	36102.65	3.6880	3.6877	2.3516	24.80	-0.16	0.750			
0.5714	36571.25	3.6850	3.6849	2.4725	24.79	-0.17	0.750			
0.5786	37031.24	3.6820	3.6822	2.5269	24.78	-0.18	0.750			
0.5864	37528.74	3.6790	3.6787	2.5912	24.78	-0.18	0.750			
0.5944	38038.80	3.6760	3.6763	2.7155	24.77	-0.19	0.750			
0.6021	38535.94	3.6730	3.6728	2.6377	24.77	-0.19	0.750			
0.6099	39031.65	3.6700	3.6703	2.4531	24.78	-0.18	0.750			
0.6172	39499.10	3.6670	3.6672	2.4151	24.78	-0.18	0.750			
0.6244	39961.00	3.6640	3.6638	2.3293	24.79	-0.17	0.750			
0.6311	40388.14	3.6610	3.6612	2.2004	24.80	-0.16	0.750			
0.6369	40763.69	3.6580	3.6582	1.9728	24.81	-0.15	0.750			
0.6425	41118.98	3.6550	3.6549	1.8028	24.81	-0.15	0.750			
0.6474	41436.71	3.6520	3.6520	1.6030	24.82	-0.14	0.750			
0.6521	41735.18	3.6490	3.6494	1.4978	24.83	-0.13	0.750			
0.6563	42002.84	3.6460	3.6464	1.3785	24.84	-0.12	0.750			
0.6603	42256.57	3.6430	3.6433	1.2772	24.85	-0.11	0.750			
0.6640	42493.79	3.6400	3.6398	1.1844	24.85	-0.11	0.750			
0.6673	42704.52	3.6370	3.6372	1.1045	24.86	-0.10	0.750			
0.6704	42907.43	3.6340	3.6341	1.0595	24.87	-0.09	0.750			
0.6736	43110.60	3.6310	3.6309	1.0249	24.88	-0.08	0.750			
0.6766	43299.27	3.6280	3.6281	0.9742	24.89	-0.07	0.750			
0.6794	43484.40	3.6250	3.6251	0.9342	24.90	-0.06	0.750			
0.6822	43661.47	3.6220	3.6220	0.9017	24.90	-0.06	0.750			
0.6849	43832.48	3.6190	3.6190	0.8640	24.91	-0.05	0.750			
0.6874	43994.65	3.6160	3.6155	0.8075	24.92	-0.04	0.750			
0.6898	44144.32	3.6130	3.6132	0.7598	24.93	-0.03	0.750			
0.6920	44286.87	3.6100	3.6102	0.7147	24.94	-0.02	0.750			
0.6941	44420.84	3.6070	3.6072	0.6551	24.94	-0.02	0.750			
0.6960	44543.02	3.6040	3.6041	0.6106	24.95	-0.01	0.750			
0.6977	44650.79	3.6010	3.6014	0.5487	24.95	-0.01	0.750			
0.6992	44751.95	3.5980	3.5983	0.4991	24.96	-0.00	0.750			
0.7007	44845.91	3.5950	3.5951	0.4531	24.96	0.00	0.750			
0.7020	44926.32	3.5920	3.5920	0.3921	24.97	0.01	0.750			
0.7030	44994.82	3.5890	3.5889	0.3381	24.97	0.01	0.750			
0.7040	45055.91	3.5860	3.5860	0.2879	24.97	0.01	0.750			
0.7047	45103.68	3.5830	3.5833	0.2310	24.98	0.02	0.750			
0.7054	45143.88	3.5800	3.5803	0.1802	24.98	0.02	0.750			
0.7058	45172.42	3.5770	3.5778	0.1302	24.98	0.02	0.750			
0.7061	45192.45	3.5740	3.5750	0.0909	24.98	0.02	0.750			
