Ah_balance (normalized)	Ah_balance (mAh)	Voltage - fit (V)	Voltage -  interpolate (V)	dQ/dV (1/V)	Temperature (°C)	Temperature - diff (°C)	Current (C)	R_DC 0ms (mOhm)	R_DC 50ms (mOhm)	R_DC 50 ms PEC (mOhm)
0.0479	3064.31	4.1980	4.1980	0.7381	25.83	0.52	0.750			
0.0501	3207.00	4.1950	4.1950	0.7443	25.83	0.52	0.750			
0.0523	3349.74	4.1920	4.1920	0.7467	25.83	0.52	0.750			
0.0546	3494.48	4.1890	4.1890	0.7456	25.83	0.52	0.750			
0.0568	3636.56	4.1860	4.1860	0.7530	25.83	0.52	0.750			
0.0591	3780.15	4.1830	4.1831	0.7582	25.83	0.52	0.750			
0.0614	3927.18	4.1800	4.1799	0.7636	25.83	0.52	0.750			
0.0637	4075.56	4.1770	4.1770	0.7661	25.83	0.52	0.750			
0.0660	4223.95	4.1740	4.1742	0.7715	25.83	0.52	0.750			
0.0683	4372.67	4.1710	4.1710	0.7639	25.83	0.52	0.750			
0.0706	4519.89	4.1680	4.1680	0.7641	25.82	0.51	0.750			
0.0728	4662.21	4.1650	4.1651	0.7536	25.82	0.51	0.750			
0.0751	4806.84	4.1620	4.1621	0.7589	25.82	0.51	0.750			
0.0774	4953.31	4.1590	4.1590	0.7630	25.82	0.51	0.750			
0.0797	5100.05	4.1560	4.1560	0.7641	25.82	0.51	0.750			
0.0820	5247.77	4.1530	4.1530	0.7683	25.83	0.52	0.750			
0.0843	5395.37	4.1500	4.1500	0.7701	25.83	0.52	0.750			
0.0866	5544.74	4.1470	4.1469	0.7702	25.83	0.52	0.750			
0.0889	5692.79	4.1440	4.1440	0.7686	25.83	0.52	0.750			
0.0913	5841.14	4.1410	4.1410	0.7638	25.83	0.52	0.750			
0.0936	5988.07	4.1380	4.1379	0.7669	25.82	0.51	0.750			
0.0958	6134.09	4.1350	4.1350	0.7640	25.82	0.51	0.750			
0.0981	6280.21	4.1320	4.1321	0.7684	25.82	0.51	0.750			
0.1004	6427.54	4.1290	4.1291	0.7695	25.82	0.51	0.750			
0.1028	6576.59	4.1260	4.1260	0.7749	25.82	0.51	0.750			
0.1051	6725.60	4.1230	4.1230	0.7717	25.82	0.51	0.750			
0.1074	6873.13	4.1200	4.1200	0.7728	25.81	0.50	0.750			
0.1097	7021.09	4.1170	4.1171	0.7746	25.81	0.50	0.750			
0.1120	7169.90	4.1140	4.1133	0.7808	25.81	0.50	0.750			
0.1144	7320.57	4.1110	4.1111	0.7833	25.81	0.50	0.750			
0.1168	7472.55	4.1080	4.1080	0.7855	25.81	0.50	0.750			
0.1191	7624.13	4.1050	4.1050	0.7849	25.82	0.51	0.750			
0.1215	7777.75	4.1020	4.1020	0.7864	25.82	0.51	0.750			
0.1238	7925.03	4.0990	4.0989	0.7860	25.82	0.51	0.750			
0.1262	8075.02	4.0960	4.0961	0.7914	25.82	0.51	0.750			
0.1286	8228.37	4.0930	4.0929	0.7847	25.82	0.51	0.750			
0.1309	8379.66	4.0900	4.0900	0.7866	25.82	0.51	0.750			
0.1333	8530.77	4.0870	4.0871	0.7917	25.81	0.50	0.750			
0.1357	8682.11	4.0840	4.0840	0.7924	25.81	0.50	0.750			
0.1380	8833.71	4.0810	4.0810	0.7962	25.81	0.50	0.750			
0.1404	8986.41	4.0780	4.0779	0.7982	25.82	0.51	0.750			
0.1428	9140.01	4.0750	4.0751	0.7963	25.82	0.51	0.750			
0.1452	9294.07	4.0720	4.0722	0.8050	25.82	0.51	0.750			
0.1476	9447.53	4.0690	4.0691	0.8063	25.83	0.52	0.750			
0.1500	9602.16	4.0660	4.0655	0.8118	25.83	0.52	0.750			
0.1525	9759.15	4.0630	4.0631	0.8117	25.83	0.52	0.750			
0.1549	9915.57	4.0600	4.0601	0.8140	25.83	0.52	0.750			
0.1574	10074.96	4.0570	4.0570	0.8223	25.83	0.52	0.750			
0.1598	10230.04	4.0540	4.0541	0.8134	25.83	0.52	0.750			
0.1623	10386.75	4.0510	4.0508	0.8181	25.83	0.52	0.750			
0.1648	10544.38	4.0480	4.0479	0.8253	25.83	0.52	0.750			
0.1673	10704.17	4.0450	4.0451	0.8232	25.83	0.52	0.750			
0.1697	10862.89	4.0420	4.0421	0.8283	25.83	0.52	0.750			
0.1722	11023.20	4.0390	4.0390	0.8267	25.83	0.52	0.750			
0.1747	11180.51	4.0360	4.0357	0.8274	25.83	0.52	0.750			
0.1772	11337.99	4.0330	4.0331	0.8294	25.83	0.52	0.750			
0.1797	11498.47	4.0300	4.0301	0.8196	25.84	0.53	0.750			
0.1821	11653.66	4.0270	4.0270	0.8291	25.84	0.53	0.750			
0.1845	11806.94	4.0240	4.0243	0.8469	25.85	0.54	0.750			
0.1871	11971.66	4.0210	4.0203	0.8729	25.85	0.54	0.750			
0.1897	12143.06	4.0180	4.0180	0.8958	25.85	0.54	0.750			
0.1925	12320.12	4.0150	4.0149	0.9072	25.85	0.54	0.750			
0.1954	12504.67	4.0120	4.0122	0.9169	25.85	0.54	0.750			
0.1982	12681.68	4.0090	4.0090	0.8961	25.85	0.54	0.750			
0.2008	12851.92	4.0060	4.0059	0.8862	25.85	0.54	0.750			
0.2034	13015.44	4.0030	4.0030	0.8599	25.85	0.54	0.750			
0.2059	13180.72	4.0000	4.0000	0.8611	25.85	0.54	0.750			
0.2085	13345.91	3.9970	3.9971	0.8596	25.85	0.54	0.750			
0.2111	13509.92	3.9940	3.9939	0.8616	25.85	0.54	0.750			
0.2137	13675.28	3.9910	3.9911	0.8648	25.85	0.54	0.750			
0.2163	13842.33	3.9880	3.9879	0.8635	25.85	0.54	0.750			
0.2189	14007.33	3.9850	3.9850	0.8653	25.85	0.54	0.750			
0.2215	14174.91	3.9820	3.9821	0.8664	25.85	0.54	0.750			
0.2241	14341.08	3.9790	3.9788	0.8698	25.85	0.54	0.750			
0.2267	14508.64	3.9760	3.9760	0.8748	25.85	0.54	0.750			
0.2293	14675.28	3.9730	3.9730	0.8714	25.85	0.54	0.750			
0.2319	14843.24	3.9700	3.9700	0.8756	25.85	0.54	0.750			
0.2346	15013.60	3.9670	3.9670	0.8792	25.85	0.54	0.750			
0.2372	15180.74	3.9640	3.9638	0.8804	25.85	0.54	0.750			
0.2399	15351.10	3.9610	3.9610	0.8798	25.85	0.54	0.750			
0.2425	15519.44	3.9580	3.9579	0.8814	25.85	0.54	0.750			
0.2452	15689.86	3.9550	3.9550	0.8796	25.85	0.54	0.750			
0.2478	15859.58	3.9520	3.9521	0.8791	25.85	0.54	0.750			
0.2504	16027.65	3.9490	3.9490	0.8757	25.85	0.54	0.750			
0.2531	16196.26	3.9460	3.9460	0.8687	25.85	0.54	0.750			
0.2556	16359.84	3.9430	3.9430	0.8698	25.85	0.54	0.750			
0.2582	16527.37	3.9400	3.9400	0.8727	25.85	0.54	0.750			
0.2609	16694.47	3.9370	3.9370	0.8726	25.85	0.54	0.750			
0.2635	16863.47	3.9340	3.9341	0.8763	25.85	0.54	0.750			
0.2661	17032.50	3.9310	3.9310	0.8738	25.85	0.54	0.750			
0.2687	17199.86	3.9280	3.9280	0.8758	25.84	0.53	0.750			
0.2714	17368.99	3.9250	3.9251	0.8763	25.84	0.53	0.750			
0.2740	17535.10	3.9220	3.9219	0.8685	25.84	0.53	0.750			
0.2766	17702.54	3.9190	3.9190	0.8720	25.84	0.53	0.750			
0.2792	17870.34	3.9160	3.9161	0.8676	25.83	0.52	0.750			
0.2818	18035.25	3.9130	3.9130	0.8722	25.82	0.51	0.750			
0.2844	18202.89	3.9100	3.9100	0.8751	25.82	0.51	0.750			
0.2870	18370.10	3.9070	3.9068	0.8763	25.81	0.50	0.750			
0.2897	18539.31	3.9040	3.9040	0.8785	25.81	0.50	0.750			
0.2923	18708.76	3.9010	3.9011	0.8737	25.80	0.49	0.750			
0.2949	18876.03	3.8980	3.8980	0.8764	25.80	0.49	0.750			
0.2975	19043.04	3.8950	3.8951	0.8750	25.79	0.48	0.750			
0.3002	19210.65	3.8920	3.8921	0.8796	25.79	0.48	0.750			
0.3028	19380.41	3.8890	3.8891	0.8816	25.78	0.47	0.750			
0.3055	19551.38	3.8860	3.8860	0.8812	25.78	0.47	0.750			
0.3082	19723.03	3.8830	3.8830	0.8869	25.78	0.47	0.750			
0.3108	19890.75	3.8800	3.8801	0.8801	25.77	0.46	0.750			
0.3134	20059.89	3.8770	3.8770	0.8852	25.77	0.46	0.750			
0.3161	20229.49	3.8740	3.8739	0.8832	25.76	0.45	0.750			
0.3187	20399.33	3.8710	3.8710	0.8864	25.76	0.45	0.750			
0.3214	20571.28	3.8680	3.8681	0.8930	25.76	0.45	0.750			
0.3241	20742.39	3.8650	3.8648	0.8946	25.75	0.44	0.750			
0.3268	20915.69	3.8620	3.8620	0.8888	25.74	0.43	0.750			
0.3294	21084.41	3.8590	3.8590	0.8941	25.73	0.42	0.750			
0.3321	21255.38	3.8560	3.8560	0.9013	25.73	0.42	0.750			
0.3349	21430.50	3.8530	3.8531	0.9068	25.72	0.41	0.750			
0.3375	21602.20	3.8500	3.8499	0.9154	25.71	0.40	0.750			
0.3403	21779.31	3.8470	3.8471	0.9245	25.70	0.39	0.750			
0.3431	21959.29	3.8440	3.8439	0.9306	25.69	0.38	0.750			
0.3459	22140.00	3.8410	3.8411	0.9357	25.68	0.37	0.750	0.319	0.462	
0.3487	22319.00	3.8380	3.8381	0.9359	25.67	0.36	0.750			
0.3516	22500.91	3.8350	3.8350	0.9356	25.66	0.35	0.750			
0.3544	22679.99	3.8320	3.8320	0.9427	25.65	0.34	0.750			
0.3572	22858.41	3.8290	3.8290	0.9445	25.65	0.34	0.750			
0.3600	23040.81	3.8260	3.8260	0.9566	25.64	0.33	0.750			
0.3629	23224.81	3.8230	3.8230	0.9675	25.63	0.32	0.750			
0.3658	23411.78	3.8200	3.8200	0.9705	25.62	0.31	0.750			
0.3687	23598.63	3.8170	3.8170	0.9805	25.61	0.30	0.750			
0.3717	23788.64	3.8140	3.8141	0.9927	25.60	0.29	0.750			
0.3747	23978.60	3.8110	3.8105	0.9994	25.59	0.28	0.750			
0.3777	24171.58	3.8080	3.8080	1.0111	25.58	0.27	0.750			
0.3807	24366.10	3.8050	3.8051	1.0258	25.58	0.27	0.750			
0.3838	24565.22	3.8020	3.8020	1.0392	25.57	0.26	0.750			
0.3870	24767.42	3.7990	3.7989	1.0553	25.56	0.25	0.750			
0.3902	24969.70	3.7960	3.7960	1.0581	25.55	0.24	0.750			
0.3933	25172.67	3.7930	3.7930	1.0763	25.54	0.23	0.750			
0.3966	25380.19	3.7900	3.7901	1.0922	25.53	0.22	0.750			
0.3999	25592.46	3.7870	3.7868	1.1046	25.52	0.21	0.750			
0.4032	25805.17	3.7840	3.7840	1.1185	25.51	0.20	0.750			
0.4066	26021.59	3.7810	3.7811	1.1415	25.50	0.19	0.750			
0.4100	26242.67	3.7780	3.7781	1.1611	25.49	0.18	0.750			
0.4135	26465.99	3.7750	3.7750	1.1803	25.48	0.17	0.750			
0.4171	26694.04	3.7720	3.7721	1.2029	25.47	0.16	0.750			
0.4207	26927.18	3.7690	3.7690	1.2316	25.46	0.15	0.750			
0.4245	27168.82	3.7660	3.7659	1.2474	25.45	0.14	0.750			
0.4283	27409.30	3.7630	3.7630	1.2806	25.44	0.13	0.750			
0.4321	27656.61	3.7600	3.7601	1.3084	25.42	0.11	0.750			
0.4361	27911.24	3.7570	3.7569	1.3383	25.40	0.09	0.750			
0.4401	28167.25	3.7540	3.7541	1.3556	25.40	0.09	0.750			
0.4442	28427.65	3.7510	3.7511	1.3893	25.39	0.08	0.750			
0.4484	28696.47	3.7480	3.7479	1.4230	25.38	0.07	0.750			
0.4528	28976.62	3.7450	3.7450	1.4523	25.37	0.06	0.750			
0.4571	29254.27	3.7420	3.7421	1.4879	25.36	0.05	0.750			
0.4617	29549.31	3.7390	3.7389	1.5062	25.34	0.03	0.750			
0.4664	29852.13	3.7360	3.7359	1.5475	25.33	0.02	0.750			
0.4709	30138.02	3.7330	3.7331	1.5892	25.31	0.00	0.750			
0.4757	30442.17	3.7300	3.7300	1.6447	25.30	-0.01	0.750			
0.4807	30764.59	3.7270	3.7270	1.6862	25.29	-0.02	0.750			
0.4859	31098.03	3.7240	3.7240	1.7473	25.27	-0.04	0.750			
0.4912	31434.20	3.7210	3.7211	1.8047	25.26	-0.05	0.750			
0.4967	31790.16	3.7180	3.7178	1.8357	25.25	-0.06	0.750			
0.5023	32146.22	3.7150	3.7150	1.8885	25.24	-0.07	0.750			
0.5080	32514.32	3.7120	3.7121	1.9623	25.23	-0.08	0.750			
0.5142	32905.66	3.7090	3.7088	2.0114	25.22	-0.09	0.750			
0.5202	33294.09	3.7060	3.7061	2.0730	25.20	-0.11	0.750			
0.5264	33691.58	3.7030	3.7032	2.1263	25.19	-0.12	0.750			
0.5329	34105.71	3.7000	3.6998	2.2030	25.18	-0.13	0.750			
0.5396	34536.37	3.6970	3.6970	2.2275	25.17	-0.14	0.750			
0.5463	34964.87	3.6940	3.6942	2.2782	25.16	-0.15	0.750			
0.5534	35414.62	3.6910	3.6905	2.3171	25.15	-0.16	0.750			
0.5603	35859.41	3.6880	3.6880	2.3560	25.14	-0.17	0.750			
0.5674	36316.03	3.6850	3.6851	2.3849	25.14	-0.17	0.750			
0.5747	36780.33	3.6820	3.6822	2.4025	25.13	-0.18	0.750			
0.5819	37244.01	3.6790	3.6790	2.4149	25.13	-0.18	0.750			
0.5893	37718.28	3.6760	3.6759	2.3337	25.13	-0.18	0.750			
0.5963	38162.25	3.6730	3.6730	2.2196	25.14	-0.17	0.750			
0.6026	38568.83	3.6700	3.6697	2.0955	25.14	-0.17	0.750			
0.6086	38953.44	3.6670	3.6669	1.9600	25.14	-0.17	0.750			
0.6144	39318.47	3.6640	3.6638	1.8474	25.14	-0.17	0.750			
0.6199	39676.58	3.6610	3.6608	1.7294	25.15	-0.16	0.750			
0.6249	39991.20	3.6580	3.6579	1.5631	25.16	-0.15	0.750			
0.6294	40278.44	3.6550	3.6552	1.4384	25.16	-0.15	0.750			
0.6333	40533.90	3.6520	3.6523	1.3178	25.17	-0.14	0.750			
0.6370	40765.59	3.6490	3.6494	1.2376	25.17	-0.14	0.750			
0.6405	40989.50	3.6460	3.6458	1.1733	25.18	-0.13	0.750			
0.6438	41205.77	3.6430	3.6431	1.1286	25.19	-0.12	0.750			
0.6473	41425.56	3.6400	3.6401	1.0965	25.19	-0.12	0.750			
0.6506	41640.21	3.6370	3.6369	1.0592	25.20	-0.11	0.750			
0.6537	41836.15	3.6340	3.6340	1.0102	25.21	-0.10	0.750			
0.6566	42020.27	3.6310	3.6311	0.9662	25.22	-0.09	0.750			
0.6594	42201.66	3.6280	3.6280	0.9349	25.22	-0.09	0.750			
0.6621	42377.36	3.6250	3.6245	0.9048	25.23	-0.08	0.750			
0.6649	42553.72	3.6220	3.6221	0.8594	25.24	-0.07	0.750			
0.6674	42716.40	3.6190	3.6190	0.8129	25.25	-0.06	0.750			
0.6698	42865.65	3.6160	3.6162	0.7746	25.25	-0.06	0.750			
0.6720	43007.74	3.6130	3.6134	0.7401	25.26	-0.05	0.750			
0.6741	43139.32	3.6100	3.6102	0.6974	25.27	-0.04	0.750			
0.6761	43271.19	3.6070	3.6076	0.6685	25.27	-0.04	0.750			
0.6781	43398.75	3.6040	3.6045	0.6290	25.28	-0.03	0.750			
0.6800	43521.91	3.6010	3.6013	0.5907	25.29	-0.02	0.750			
0.6819	43639.86	3.5980	3.5978	0.5408	25.29	-0.02	0.750			
0.6833	43728.61	3.5950	3.5951	0.4632	25.30	-0.01	0.750			
0.6846	43812.04	3.5920	3.5920	0.4155	25.30	-0.01	0.750			
0.6857	43887.05	3.5890	3.5890	0.3675	25.31	-0.00	0.750			
0.6868	43953.75	3.5860	3.5858	0.3175	25.31	-0.00	0.750			
0.6877	44009.99	3.5830	3.5830	0.2687	25.31	0.00	0.750			
0.6884	44058.33	3.5800	3.5801	0.2212	25.31	0.00	0.750			
0.6890	44096.06	3.5770	3.5771	0.1691	25.32	0.01	0.750			
0.6894	44124.46	3.5740	3.5744	0.1130	25.32	0.01	0.750			
0.6897	44140.70	3.5710	3.5725	0.0561	25.32	0.01	0.751			
