Ah_balance (normalized)	Ah_balance (mAh)	Voltage - fit (V)	Voltage -  interpolate (V)	dQ/dV (1/V)	Temperature (°C)	Temperature - diff (°C)	Current (C)	R_DC 0ms (mOhm)	R_DC 50ms (mOhm)	R_DC 50 ms PEC (mOhm)
0.0482	3085.10	4.1970	4.1970	0.7505	25.67	0.56	0.750			
0.0505	3229.23	4.1940	4.1939	0.7535	25.67	0.56	0.750			
0.0527	3374.99	4.1910	4.1911	0.7588	25.67	0.56	0.750			
0.0550	3521.78	4.1880	4.1880	0.7603	25.67	0.56	0.750			
0.0573	3667.81	4.1850	4.1850	0.7629	25.67	0.56	0.750			
0.0596	3815.25	4.1820	4.1820	0.7643	25.67	0.56	0.750			
0.0619	3961.16	4.1790	4.1790	0.7617	25.67	0.56	0.750			
0.0642	4107.94	4.1760	4.1760	0.7652	25.67	0.56	0.750			
0.0665	4254.58	4.1730	4.1730	0.7645	25.67	0.56	0.750			
0.0688	4402.84	4.1700	4.1700	0.7573	25.67	0.56	0.750			
0.0710	4547.04	4.1670	4.1670	0.7632	25.67	0.56	0.750			
0.0733	4693.00	4.1640	4.1640	0.7629	25.67	0.56	0.750			
0.0756	4840.03	4.1610	4.1608	0.7663	25.67	0.56	0.750			
0.0779	4985.87	4.1580	4.1581	0.7710	25.67	0.56	0.750			
0.0802	5135.90	4.1550	4.1550	0.7681	25.67	0.56	0.750			
0.0826	5284.47	4.1520	4.1520	0.7714	25.67	0.56	0.750			
0.0849	5432.38	4.1490	4.1491	0.7686	25.67	0.56	0.750			
0.0872	5580.10	4.1460	4.1461	0.7732	25.67	0.56	0.750			
0.0895	5728.89	4.1430	4.1430	0.7753	25.67	0.56	0.750			
0.0918	5878.07	4.1400	4.1400	0.7760	25.68	0.57	0.750			
0.0942	6026.58	4.1370	4.1370	0.7758	25.68	0.57	0.750			
0.0965	6176.83	4.1340	4.1341	0.7840	25.68	0.57	0.750			
0.0989	6327.16	4.1310	4.1310	0.7841	25.69	0.58	0.750			
0.1012	6478.39	4.1280	4.1280	0.7853	25.69	0.58	0.750			
0.1036	6629.40	4.1250	4.1250	0.7877	25.69	0.58	0.750			
0.1060	6781.69	4.1220	4.1221	0.7895	25.69	0.58	0.750			
0.1083	6933.06	4.1190	4.1190	0.7910	25.69	0.58	0.750			
0.1107	7084.71	4.1160	4.1160	0.7914	25.69	0.58	0.750			
0.1131	7235.55	4.1130	4.1129	0.7922	25.69	0.58	0.750			
0.1154	7388.28	4.1100	4.1100	0.7947	25.69	0.58	0.750			
0.1179	7543.14	4.1070	4.1070	0.7899	25.69	0.58	0.750			
0.1202	7694.44	4.1040	4.1040	0.7957	25.69	0.58	0.750			
0.1226	7847.27	4.1010	4.1010	0.7976	25.69	0.58	0.750			
0.1250	7998.27	4.0980	4.0981	0.7996	25.69	0.58	0.750			
0.1274	8152.69	4.0950	4.0952	0.8036	25.69	0.58	0.750			
0.1298	8307.59	4.0920	4.0920	0.8047	25.70	0.59	0.750			
0.1322	8463.55	4.0890	4.0889	0.8072	25.70	0.59	0.750			
0.1347	8620.49	4.0860	4.0860	0.8102	25.70	0.59	0.750			
0.1371	8772.88	4.0830	4.0831	0.8107	25.71	0.60	0.750			
0.1395	8928.05	4.0800	4.0800	0.8174	25.71	0.60	0.750			
0.1420	9087.08	4.0770	4.0769	0.8106	25.71	0.60	0.750			
0.1444	9242.85	4.0740	4.0740	0.8177	25.71	0.60	0.750			
0.1469	9401.01	4.0710	4.0711	0.8218	25.71	0.60	0.750			
0.1493	9557.73	4.0680	4.0680	0.8250	25.71	0.60	0.750			
0.1518	9715.11	4.0650	4.0649	0.8276	25.71	0.60	0.750			
0.1543	9876.84	4.0620	4.0620	0.8205	25.71	0.60	0.750			
0.1568	10035.01	4.0590	4.0590	0.8240	25.71	0.60	0.750			
0.1593	10193.43	4.0560	4.0561	0.8310	25.72	0.61	0.750			
0.1617	10351.36	4.0530	4.0532	0.8269	25.72	0.61	0.750			
0.1642	10509.63	4.0500	4.0500	0.8296	25.72	0.61	0.750			
0.1667	10667.95	4.0470	4.0471	0.8364	25.72	0.61	0.750			
0.1692	10829.96	4.0440	4.0441	0.8408	25.72	0.61	0.750			
0.1718	10993.28	4.0410	4.0410	0.8491	25.72	0.61	0.750			
0.1743	11156.59	4.0380	4.0380	0.8507	25.72	0.61	0.750			
0.1769	11320.57	4.0350	4.0350	0.8522	25.72	0.61	0.750			
0.1795	11487.20	4.0320	4.0319	0.8531	25.72	0.61	0.750			
0.1820	11650.06	4.0290	4.0291	0.8548	25.72	0.61	0.750			
0.1846	11813.04	4.0260	4.0261	0.8563	25.73	0.62	0.750			
0.1872	11978.22	4.0230	4.0230	0.8604	25.73	0.62	0.750			
0.1897	12143.11	4.0200	4.0200	0.8608	25.73	0.62	0.750			
0.1923	12309.64	4.0170	4.0170	0.8571	25.73	0.62	0.750			
0.1949	12474.73	4.0140	4.0140	0.8619	25.73	0.62	0.750			
0.1976	12644.80	4.0110	4.0110	0.8516	25.73	0.62	0.750			
0.2001	12806.47	4.0080	4.0079	0.8346	25.73	0.62	0.750			
0.2026	12963.87	4.0050	4.0052	0.8300	25.73	0.62	0.750			
0.2050	13120.04	4.0020	4.0022	0.8266	25.73	0.62	0.750			
0.2074	13276.46	3.9990	3.9988	0.8375	25.74	0.63	0.750			
0.2099	13435.98	3.9960	3.9959	0.8492	25.74	0.63	0.750			
0.2125	13599.42	3.9930	3.9930	0.8633	25.74	0.63	0.750			
0.2152	13769.95	3.9900	3.9901	0.8775	25.74	0.63	0.750			
0.2179	13946.99	3.9870	3.9869	0.8678	25.74	0.63	0.750			
0.2205	14110.07	3.9840	3.9841	0.8800	25.75	0.64	0.750			
0.2231	14276.57	3.9810	3.9811	0.8842	25.75	0.64	0.750			
0.2257	14445.40	3.9780	3.9776	0.8911	25.75	0.64	0.750			
0.2284	14617.43	3.9750	3.9751	0.8986	25.75	0.64	0.750			
0.2311	14790.75	3.9720	3.9722	0.8918	25.75	0.64	0.750			
0.2338	14962.18	3.9690	3.9691	0.8986	25.75	0.64	0.750			
0.2365	15133.70	3.9660	3.9662	0.8993	25.75	0.64	0.750			
0.2392	15307.25	3.9630	3.9625	0.9076	25.75	0.64	0.750			
0.2419	15481.59	3.9600	3.9602	0.9138	25.76	0.65	0.750			
0.2447	15660.50	3.9570	3.9571	0.9204	25.76	0.65	0.750			
0.2475	15843.18	3.9540	3.9542	0.9291	25.76	0.65	0.750			
0.2503	16019.12	3.9510	3.9510	0.9173	25.77	0.66	0.750			
0.2531	16196.18	3.9480	3.9480	0.9188	25.77	0.66	0.750			
0.2558	16373.15	3.9450	3.9449	0.9044	25.77	0.66	0.750			
0.2585	16543.90	3.9420	3.9421	0.9064	25.77	0.66	0.750			
0.2612	16714.74	3.9390	3.9392	0.9125	25.77	0.66	0.750			
0.2639	16890.25	3.9360	3.9356	0.9206	25.77	0.66	0.750			
0.2667	17071.99	3.9330	3.9331	0.9063	25.77	0.66	0.750			
0.2694	17243.91	3.9300	3.9302	0.9161	25.77	0.66	0.750			
0.2722	17422.09	3.9270	3.9272	0.9317	25.77	0.66	0.750			
0.2751	17604.53	3.9240	3.9241	0.9383	25.77	0.66	0.750			
0.2778	17776.28	3.9210	3.9212	0.9275	25.77	0.66	0.750			
0.2806	17956.31	3.9180	3.9182	0.9350	25.78	0.67	0.750			
0.2834	18139.46	3.9150	3.9151	0.9399	25.78	0.67	0.750			
0.2863	18322.26	3.9120	3.9120	0.9431	25.79	0.68	0.750			
0.2891	18500.41	3.9090	3.9091	0.9310	25.79	0.68	0.750			
0.2919	18682.29	3.9060	3.9059	0.9233	25.79	0.68	0.750			
0.2947	18858.54	3.9030	3.9030	0.9294	25.79	0.68	0.750			
0.2974	19034.90	3.9000	3.9001	0.9333	25.79	0.68	0.750			
0.3002	19213.60	3.8970	3.8971	0.9391	25.79	0.68	0.750			
0.3030	19395.08	3.8940	3.8941	0.9418	25.79	0.68	0.750			
0.3059	19575.34	3.8910	3.8910	0.9320	25.78	0.67	0.750			
0.3086	19753.42	3.8880	3.8882	0.9395	25.78	0.67	0.750			
0.3115	19933.70	3.8850	3.8852	0.9537	25.77	0.66	0.750			
0.3143	20113.33	3.8820	3.8816	0.9571	25.77	0.66	0.750			
0.3172	20297.78	3.8790	3.8793	0.9572	25.76	0.65	0.750			
0.3201	20485.08	3.8760	3.8761	0.9649	25.76	0.65	0.750			
0.3231	20677.26	3.8730	3.8731	0.9731	25.75	0.64	0.750			
0.3261	20867.50	3.8700	3.8696	0.9742	25.75	0.64	0.750			
0.3288	21046.02	3.8670	3.8670	0.9474	25.75	0.64	0.750			
0.3316	21225.29	3.8640	3.8640	0.9528	25.74	0.63	0.750			
0.3345	21407.08	3.8610	3.8611	0.9560	25.74	0.63	0.750			
0.3374	21591.49	3.8580	3.8581	0.9704	25.73	0.62	0.750			
0.3403	21777.87	3.8550	3.8552	0.9753	25.73	0.62	0.750			
0.3432	21965.31	3.8520	3.8520	0.9652	25.72	0.61	0.750			
0.3461	22150.98	3.8490	3.8492	0.9695	25.72	0.61	0.750			
0.3491	22341.24	3.8460	3.8461	0.9708	25.71	0.60	0.750			
0.3519	22522.48	3.8430	3.8429	0.9622	25.71	0.60	0.750			
0.3548	22704.72	3.8400	3.8403	0.9795	25.70	0.59	0.750			
0.3577	22892.98	3.8370	3.8372	0.9932	25.69	0.58	0.750			
0.3608	23089.83	3.8340	3.8342	1.0091	25.68	0.57	0.750			
0.3639	23289.28	3.8310	3.8310	1.0228	25.67	0.56	0.750	0.306	0.421	
0.3669	23482.40	3.8280	3.8281	1.0033	25.66	0.55	0.750			
0.3699	23675.01	3.8250	3.8251	1.0068	25.65	0.54	0.750			
0.3729	23866.36	3.8220	3.8221	1.0022	25.64	0.53	0.750			
0.3759	24055.43	3.8190	3.8185	1.0010	25.63	0.52	0.750			
0.3790	24253.00	3.8160	3.8160	0.9902	25.62	0.51	0.750			
0.3819	24439.67	3.8130	3.8131	1.0112	25.61	0.50	0.750			
0.3849	24635.49	3.8100	3.8102	1.0308	25.60	0.49	0.750			
0.3880	24832.91	3.8070	3.8066	1.0353	25.59	0.48	0.750			
0.3912	25034.64	3.8040	3.8042	1.0471	25.58	0.47	0.750			
0.3943	25237.07	3.8010	3.8012	1.0631	25.57	0.46	0.750			
0.3976	25444.78	3.7980	3.7981	1.0778	25.56	0.45	0.750			
0.4009	25658.80	3.7950	3.7947	1.0921	25.55	0.44	0.750			
0.4041	25863.22	3.7920	3.7920	1.0725	25.54	0.43	0.750			
0.4073	26065.27	3.7890	3.7892	1.1023	25.53	0.42	0.750			
0.4106	26276.86	3.7860	3.7861	1.1251	25.52	0.41	0.750			
0.4140	26497.86	3.7830	3.7824	1.1387	25.51	0.40	0.750			
0.4174	26715.12	3.7800	3.7803	1.1647	25.50	0.39	0.750			
0.4210	26943.10	3.7770	3.7772	1.1903	25.49	0.38	0.750			
0.4247	27178.80	3.7740	3.7741	1.2166	25.47	0.36	0.750			
0.4283	27410.32	3.7710	3.7712	1.2201	25.46	0.35	0.750			
0.4320	27645.21	3.7680	3.7681	1.2475	25.45	0.34	0.750			
0.4358	27889.20	3.7650	3.7650	1.2781	25.44	0.33	0.750			
0.4397	28139.47	3.7620	3.7620	1.2984	25.43	0.32	0.750			
0.4435	28383.85	3.7590	3.7590	1.3247	25.41	0.30	0.750			
0.4475	28642.22	3.7560	3.7561	1.3605	25.39	0.28	0.750			
0.4516	28904.71	3.7530	3.7531	1.3722	25.38	0.27	0.750			
0.4559	29178.92	3.7500	3.7501	1.3746	25.37	0.26	0.750			
0.4599	29436.59	3.7470	3.7473	1.4182	25.36	0.25	0.750			
0.4643	29716.76	3.7440	3.7433	1.4465	25.35	0.24	0.750			
0.4687	29996.40	3.7410	3.7414	1.4637	25.33	0.22	0.750			
0.4732	30281.84	3.7380	3.7383	1.5087	25.32	0.21	0.750			
0.4779	30585.23	3.7350	3.7354	1.5677	25.30	0.19	0.750			
0.4826	30887.12	3.7320	3.7322	1.5941	25.29	0.18	0.750			
0.4876	31208.03	3.7290	3.7290	1.6493	25.27	0.16	0.750			
0.4925	31519.57	3.7260	3.7256	1.6851	25.25	0.14	0.750			
0.4977	31851.41	3.7230	3.7229	1.7681	25.23	0.12	0.750			
0.5031	32195.37	3.7200	3.7200	1.8590	25.22	0.11	0.750			
0.5086	32551.81	3.7170	3.7176	1.8959	25.20	0.09	0.750			
0.5145	32930.78	3.7140	3.7146	1.9879	25.19	0.08	0.750			
0.5206	33319.68	3.7110	3.7103	2.0094	25.17	0.06	0.750			
0.5266	33705.48	3.7080	3.7085	2.0098	25.16	0.05	0.750			
0.5328	34100.69	3.7050	3.7051	2.0754	25.14	0.03	0.750			
0.5392	34511.81	3.7020	3.7016	2.1622	25.12	0.01	0.750			
0.5458	34931.11	3.6990	3.6992	2.1954	25.10	-0.01	0.750			
0.5526	35368.31	3.6960	3.6956	2.2796	25.08	-0.03	0.750			
0.5595	35807.25	3.6930	3.6932	2.4267	25.06	-0.05	0.750			
0.5670	36285.32	3.6900	3.6900	2.3679	25.05	-0.06	0.750			
0.5740	36736.26	3.6870	3.6875	2.4921	25.04	-0.07	0.750			
0.5819	37238.77	3.6840	3.6839	2.5976	25.03	-0.08	0.750			
0.5893	37716.34	3.6810	3.6809	2.5644	25.01	-0.10	0.750			
0.5972	38217.83	3.6780	3.6783	2.8092	25.00	-0.11	0.750			
0.6053	38741.56	3.6750	3.6756	2.8191	25.00	-0.11	0.750			
0.6141	39299.68	3.6720	3.6718	2.9184	24.99	-0.12	0.750			
0.6225	39842.06	3.6690	3.6685	2.8314	24.98	-0.13	0.750			
0.6304	40348.34	3.6660	3.6667	2.6557	24.98	-0.13	0.750			
0.6386	40872.74	3.6630	3.6627	2.4875	24.98	-0.13	0.750			
0.6461	41348.36	3.6600	3.6599	2.3177	24.99	-0.12	0.750			
0.6528	41776.92	3.6570	3.6571	2.1879	24.99	-0.12	0.750			
0.6588	42165.58	3.6540	3.6544	1.9820	25.00	-0.11	0.750			
0.6642	42507.64	3.6510	3.6513	1.7726	25.01	-0.10	0.750			
0.6693	42832.63	3.6480	3.6477	1.6268	25.01	-0.10	0.750			
0.6740	43134.01	3.6450	3.6454	1.4955	25.02	-0.09	0.750			
0.6783	43413.98	3.6420	3.6423	1.3693	25.02	-0.09	0.750			
0.6821	43652.76	3.6390	3.6392	1.2402	25.03	-0.08	0.750			
0.6855	43871.77	3.6360	3.6361	1.1408	25.04	-0.07	0.750			
0.6888	44081.66	3.6330	3.6324	1.0775	25.04	-0.07	0.750			
0.6918	44275.62	3.6300	3.6301	1.0113	25.05	-0.06	0.750			
0.6948	44464.72	3.6270	3.6271	0.9809	25.05	-0.06	0.750			
0.6977	44650.29	3.6240	3.6240	0.9549	25.06	-0.05	0.750			
0.7005	44829.61	3.6210	3.6208	0.9183	25.07	-0.04	0.750			
0.7032	45005.85	3.6180	3.6181	0.8917	25.08	-0.03	0.750			
0.7059	45179.11	3.6150	3.6151	0.8487	25.09	-0.02	0.750			
0.7085	45342.28	3.6120	3.6120	0.8108	25.09	-0.02	0.750			
0.7109	45494.54	3.6090	3.6091	0.7540	25.10	-0.01	0.750			
0.7130	45632.42	3.6060	3.6058	0.6856	25.11	-0.00	0.750			
0.7150	45759.49	3.6030	3.6031	0.6156	25.11	0.00	0.750			
0.7168	45872.26	3.6000	3.6000	0.5410	25.12	0.01	0.750			
0.7182	45966.97	3.5970	3.5971	0.4854	25.12	0.01	0.750			
0.7196	46052.01	3.5940	3.5943	0.4237	25.13	0.02	0.750			
0.7207	46126.49	3.5910	3.5887	0.3727	25.13	0.02	0.750			
0.7218	46195.05	3.5880	3.5885	0.3218	25.14	0.03	0.750			
0.7227	46253.03	3.5850	3.5853	0.2756	25.14	0.03	0.750			
0.7235	46302.37	3.5820	3.5822	0.2265	25.14	0.03	0.750			
0.7242	46347.91	3.5790	3.5788	0.1655	25.14	0.03	0.750			
0.7245	46370.20	3.5760	3.5766	0.1086	25.15	0.04	0.750			
0.7248	46385.60	3.5730	3.5746	0.0433	25.15	0.04	0.751			
