Ah_balance (normalized)	Ah_balance (mAh)	Voltage - fit (V)	Voltage -  interpolate (V)	dQ/dV (1/V)	Temperature (°C)	Temperature - diff (°C)	Current (C)	R_DC 0ms (mOhm)	R_DC 50ms (mOhm)	R_DC 50 ms PEC (mOhm)
0.0473	3024.30	4.1980	4.1979	0.7631	25.53	0.55	0.750			
0.0495	3168.85	4.1950	4.1950	0.7505	25.53	0.55	0.750			
0.0518	3314.34	4.1920	4.1920	0.7595	25.53	0.55	0.750			
0.0541	3460.90	4.1890	4.1890	0.7522	25.53	0.55	0.750			
0.0563	3601.85	4.1860	4.1861	0.7579	25.53	0.55	0.750			
0.0586	3748.80	4.1830	4.1833	0.7634	25.53	0.55	0.750			
0.0609	3895.92	4.1800	4.1801	0.7652	25.53	0.55	0.750			
0.0632	4042.81	4.1770	4.1772	0.7670	25.53	0.55	0.750			
0.0655	4190.73	4.1740	4.1741	0.7642	25.53	0.55	0.750			
0.0678	4339.07	4.1710	4.1710	0.7653	25.53	0.55	0.750			
0.0701	4484.20	4.1680	4.1681	0.7613	25.53	0.55	0.750			
0.0723	4630.38	4.1650	4.1649	0.7634	25.53	0.55	0.750			
0.0747	4778.19	4.1620	4.1620	0.7669	25.53	0.55	0.750			
0.0770	4926.56	4.1590	4.1591	0.7616	25.53	0.55	0.750			
0.0793	5073.09	4.1560	4.1560	0.7656	25.53	0.55	0.750			
0.0816	5220.22	4.1530	4.1530	0.7665	25.53	0.55	0.750			
0.0838	5364.45	4.1500	4.1499	0.7678	25.53	0.55	0.750			
0.0861	5511.80	4.1470	4.1471	0.7718	25.53	0.55	0.750			
0.0885	5662.45	4.1440	4.1439	0.7724	25.53	0.55	0.750			
0.0908	5810.35	4.1410	4.1410	0.7766	25.53	0.55	0.750			
0.0931	5960.18	4.1380	4.1381	0.7791	25.53	0.55	0.750			
0.0955	6109.79	4.1350	4.1351	0.7807	25.53	0.55	0.750			
0.0978	6260.14	4.1320	4.1321	0.7828	25.53	0.55	0.750			
0.1002	6410.85	4.1290	4.1291	0.7840	25.53	0.55	0.750			
0.1025	6562.84	4.1260	4.1260	0.7867	25.53	0.55	0.750			
0.1049	6714.81	4.1230	4.1230	0.7855	25.54	0.56	0.750			
0.1073	6864.59	4.1200	4.1200	0.7828	25.54	0.56	0.750			
0.1096	7014.21	4.1170	4.1170	0.7818	25.54	0.56	0.750			
0.1119	7164.38	4.1140	4.1140	0.7842	25.54	0.56	0.750			
0.1143	7315.26	4.1110	4.1110	0.7825	25.54	0.56	0.750			
0.1166	7464.81	4.1080	4.1080	0.7881	25.55	0.57	0.750			
0.1190	7616.79	4.1050	4.1051	0.7929	25.55	0.57	0.750			
0.1214	7770.11	4.1020	4.1018	0.7946	25.55	0.57	0.750			
0.1238	7922.68	4.0990	4.0991	0.7973	25.55	0.57	0.750			
0.1262	8079.32	4.0960	4.0960	0.7892	25.56	0.58	0.750			
0.1286	8229.47	4.0930	4.0931	0.7914	25.56	0.58	0.750			
0.1309	8380.22	4.0900	4.0900	0.7971	25.56	0.58	0.750			
0.1333	8528.73	4.0870	4.0872	0.8166	25.57	0.59	0.750			
0.1357	8685.14	4.0840	4.0841	0.8346	25.57	0.59	0.750			
0.1383	8848.73	4.0810	4.0809	0.8487	25.57	0.59	0.750			
0.1409	9017.06	4.0780	4.0780	0.8581	25.57	0.59	0.750			
0.1435	9187.19	4.0750	4.0752	0.8558	25.57	0.59	0.750			
0.1462	9354.18	4.0720	4.0720	0.8486	25.57	0.59	0.750			
0.1487	9515.55	4.0690	4.0690	0.8366	25.57	0.59	0.750			
0.1511	9669.62	4.0660	4.0660	0.8170	25.57	0.59	0.750			
0.1535	9826.79	4.0630	4.0630	0.8191	25.57	0.59	0.750			
0.1560	9983.28	4.0600	4.0600	0.8235	25.57	0.59	0.750			
0.1584	10140.39	4.0570	4.0570	0.8246	25.57	0.59	0.750			
0.1609	10298.97	4.0540	4.0540	0.8294	25.57	0.59	0.750			
0.1635	10461.99	4.0510	4.0509	0.8234	25.58	0.60	0.750			
0.1659	10619.31	4.0480	4.0481	0.8332	25.58	0.60	0.750			
0.1684	10780.42	4.0450	4.0450	0.8318	25.58	0.60	0.750			
0.1709	10939.82	4.0420	4.0421	0.8286	25.59	0.61	0.750			
0.1734	11097.34	4.0390	4.0392	0.8336	25.59	0.61	0.750			
0.1759	11256.58	4.0360	4.0360	0.8376	25.59	0.61	0.750			
0.1784	11417.72	4.0330	4.0329	0.8415	25.59	0.61	0.750			
0.1810	11582.26	4.0300	4.0301	0.8467	25.59	0.61	0.750			
0.1835	11741.84	4.0270	4.0271	0.8475	25.59	0.61	0.750			
0.1861	11907.34	4.0240	4.0240	0.8559	25.59	0.61	0.750			
0.1887	12073.86	4.0210	4.0209	0.8488	25.59	0.61	0.750			
0.1912	12233.87	4.0180	4.0181	0.8553	25.60	0.62	0.750			
0.1937	12398.96	4.0150	4.0151	0.8610	25.60	0.62	0.750			
0.1963	12564.79	4.0120	4.0118	0.8616	25.60	0.62	0.750			
0.1989	12730.74	4.0090	4.0091	0.8672	25.60	0.62	0.750			
0.2015	12896.50	4.0060	4.0061	0.8616	25.60	0.62	0.750			
0.2041	13062.68	4.0030	4.0030	0.8674	25.61	0.63	0.750			
0.2067	13228.90	4.0000	4.0000	0.8699	25.61	0.63	0.750			
0.2093	13396.07	3.9970	3.9965	0.8763	25.61	0.63	0.750			
0.2120	13566.62	3.9940	3.9940	0.8819	25.61	0.63	0.750			
0.2146	13737.57	3.9910	3.9911	0.8861	25.61	0.63	0.750			
0.2173	13907.51	3.9880	3.9880	0.8903	25.61	0.63	0.750			
0.2200	14081.50	3.9850	3.9850	0.8948	25.61	0.63	0.750			
0.2227	14250.41	3.9820	3.9820	0.8882	25.61	0.63	0.750			
0.2253	14421.37	3.9790	3.9790	0.8851	25.62	0.64	0.750			
0.2280	14591.54	3.9760	3.9761	0.8896	25.62	0.64	0.750			
0.2307	14762.20	3.9730	3.9730	0.8919	25.62	0.64	0.750			
0.2333	14932.98	3.9700	3.9699	0.8934	25.63	0.65	0.750			
0.2360	15103.97	3.9670	3.9670	0.8962	25.63	0.65	0.750			
0.2387	15278.48	3.9640	3.9640	0.8902	25.63	0.65	0.750			
0.2414	15447.81	3.9610	3.9611	0.8947	25.63	0.65	0.750			
0.2440	15619.16	3.9580	3.9581	0.9024	25.63	0.65	0.750			
0.2467	15791.03	3.9550	3.9546	0.9055	25.63	0.65	0.750			
0.2495	15966.41	3.9520	3.9520	0.9044	25.63	0.65	0.750			
0.2522	16140.22	3.9490	3.9491	0.9109	25.63	0.65	0.750			
0.2550	16318.26	3.9460	3.9461	0.9176	25.63	0.65	0.750			
0.2577	16495.88	3.9430	3.9430	0.9220	25.63	0.65	0.750			
0.2604	16667.65	3.9400	3.9399	0.9131	25.63	0.65	0.750			
0.2632	16844.15	3.9370	3.9371	0.9177	25.64	0.66	0.750			
0.2660	17021.82	3.9340	3.9340	0.9203	25.64	0.66	0.750			
0.2687	17199.61	3.9310	3.9310	0.9234	25.64	0.66	0.750			
0.2715	17376.48	3.9280	3.9280	0.9227	25.65	0.67	0.750			
0.2743	17553.99	3.9250	3.9250	0.9242	25.65	0.67	0.750			
0.2770	17730.39	3.9220	3.9220	0.9123	25.65	0.67	0.750			
0.2797	17902.98	3.9190	3.9191	0.9130	25.65	0.67	0.750			
0.2825	18076.89	3.9160	3.9162	0.9178	25.65	0.67	0.750			
0.2852	18253.60	3.9130	3.9127	0.9211	25.65	0.67	0.750			
0.2880	18429.86	3.9100	3.9101	0.9233	25.65	0.67	0.750			
0.2908	18608.41	3.9070	3.9071	0.9307	25.65	0.67	0.750			
0.2936	18790.83	3.9040	3.9041	0.9381	25.64	0.66	0.750			
0.2964	18969.53	3.9010	3.9010	0.9290	25.64	0.66	0.750			
0.2992	19149.97	3.8980	3.8980	0.9271	25.64	0.66	0.750			
0.3020	19327.53	3.8950	3.8950	0.9304	25.64	0.66	0.750			
0.3048	19506.44	3.8920	3.8921	0.9335	25.63	0.65	0.750			
0.3076	19684.61	3.8890	3.8890	0.9343	25.63	0.65	0.750			
0.3104	19862.83	3.8860	3.8859	0.9386	25.63	0.65	0.750			
0.3132	20044.18	3.8830	3.8831	0.9364	25.62	0.64	0.750			
0.3160	20223.85	3.8800	3.8800	0.9436	25.62	0.64	0.750			
0.3188	20406.06	3.8770	3.8771	0.9469	25.62	0.64	0.750			
0.3217	20587.57	3.8740	3.8738	0.9465	25.61	0.63	0.750			
0.3246	20771.79	3.8710	3.8710	0.9405	25.61	0.63	0.750			
0.3274	20951.05	3.8680	3.8681	0.9433	25.60	0.62	0.750			
0.3302	21131.21	3.8650	3.8650	0.9470	25.60	0.62	0.750			
0.3330	21312.10	3.8620	3.8621	0.9452	25.59	0.61	0.750			
0.3358	21494.19	3.8590	3.8590	0.9492	25.59	0.61	0.750			
0.3387	21678.65	3.8560	3.8561	0.9431	25.58	0.60	0.750			
0.3415	21858.41	3.8530	3.8530	0.9485	25.57	0.59	0.750			
0.3444	22042.44	3.8500	3.8501	0.9542	25.57	0.59	0.750			
0.3472	22223.06	3.8470	3.8465	0.9487	25.56	0.58	0.750			
0.3501	22405.89	3.8440	3.8441	0.9417	25.55	0.57	0.750			
0.3529	22585.39	3.8410	3.8411	0.9641	25.54	0.56	0.750			
0.3558	22771.95	3.8380	3.8381	0.9780	25.53	0.55	0.750			
0.3588	22960.38	3.8350	3.8351	0.9788	25.52	0.54	0.750	0.325	0.429	
0.3617	23150.29	3.8320	3.8321	0.9861	25.51	0.53	0.750			
0.3647	23342.79	3.8290	3.8292	0.9948	25.50	0.52	0.750			
0.3677	23535.82	3.8260	3.8261	0.9957	25.49	0.51	0.750			
0.3707	23726.32	3.8230	3.8230	0.9884	25.48	0.50	0.750			
0.3737	23917.34	3.8200	3.8200	0.9878	25.48	0.50	0.750			
0.3767	24106.17	3.8170	3.8170	0.9941	25.47	0.49	0.750			
0.3796	24296.48	3.8140	3.8140	1.0028	25.46	0.48	0.750			
0.3826	24489.54	3.8110	3.8111	1.0131	25.45	0.47	0.750			
0.3857	24687.05	3.8080	3.8080	1.0125	25.45	0.47	0.750			
0.3887	24879.78	3.8050	3.8051	1.0322	25.43	0.45	0.750			
0.3918	25077.56	3.8020	3.8021	1.0478	25.42	0.44	0.750			
0.3950	25281.20	3.7990	3.7991	1.0659	25.41	0.43	0.750			
0.3983	25488.08	3.7960	3.7959	1.0699	25.40	0.42	0.750			
0.4015	25695.19	3.7930	3.7932	1.0890	25.39	0.41	0.750			
0.4048	25905.97	3.7900	3.7901	1.1086	25.38	0.40	0.750			
0.4081	26121.51	3.7870	3.7870	1.1240	25.37	0.39	0.750			
0.4115	26336.28	3.7840	3.7841	1.1300	25.36	0.38	0.750			
0.4149	26553.93	3.7810	3.7811	1.1522	25.35	0.37	0.750			
0.4184	26776.91	3.7780	3.7781	1.1794	25.33	0.35	0.750			
0.4221	27011.24	3.7750	3.7747	1.1869	25.32	0.34	0.750			
0.4256	27236.39	3.7720	3.7720	1.2124	25.31	0.33	0.750			
0.4292	27469.46	3.7690	3.7692	1.2418	25.30	0.32	0.750			
0.4330	27712.65	3.7660	3.7661	1.2651	25.28	0.30	0.750			
0.4368	27955.87	3.7630	3.7631	1.2901	25.27	0.29	0.750			
0.4407	28204.92	3.7600	3.7602	1.3237	25.27	0.29	0.750			
0.4448	28464.66	3.7570	3.7570	1.3535	25.26	0.28	0.750			
0.4489	28732.41	3.7540	3.7540	1.3950	25.24	0.26	0.750			
0.4531	28996.40	3.7510	3.7511	1.4007	25.23	0.25	0.750			
0.4574	29272.01	3.7480	3.7480	1.4154	25.21	0.23	0.750			
0.4617	29547.29	3.7450	3.7450	1.4459	25.19	0.21	0.750			
0.4659	29819.87	3.7420	3.7419	1.4735	25.18	0.20	0.750			
0.4703	30100.71	3.7390	3.7392	1.5236	25.17	0.19	0.750			
0.4749	30395.44	3.7360	3.7361	1.5812	25.16	0.18	0.750			
0.4798	30704.17	3.7330	3.7329	1.6357	25.14	0.16	0.750			
0.4849	31032.26	3.7300	3.7297	1.6826	25.12	0.14	0.750			
0.4900	31359.88	3.7270	3.7270	1.7415	25.10	0.12	0.750			
0.4953	31696.65	3.7240	3.7242	1.7736	25.09	0.11	0.750			
0.5007	32042.31	3.7210	3.7213	1.8183	25.07	0.09	0.750			
0.5061	32392.39	3.7180	3.7182	1.8728	25.06	0.08	0.750			
0.5118	32757.79	3.7150	3.7150	1.9150	25.04	0.06	0.750			
0.5177	33131.37	3.7120	3.7120	1.9664	25.02	0.04	0.750			
0.5237	33513.67	3.7090	3.7091	2.0273	25.00	0.02	0.750			
0.5299	33916.42	3.7060	3.7059	2.0798	24.98	0.00	0.750			
0.5363	34325.33	3.7030	3.7030	2.1119	24.97	-0.01	0.750			
0.5427	34734.44	3.7000	3.7002	2.0812	24.95	-0.03	0.750			
0.5489	35128.38	3.6970	3.6968	2.1227	24.94	-0.04	0.750			
0.5550	35520.15	3.6940	3.6938	2.1588	24.93	-0.05	0.750			
0.5614	35930.65	3.6910	3.6914	2.2441	24.92	-0.06	0.750			
0.5682	36367.16	3.6880	3.6881	2.3781	24.91	-0.07	0.750			
0.5758	36853.38	3.6850	3.6847	2.5108	24.89	-0.09	0.750			
0.5834	37336.68	3.6820	3.6822	2.4642	24.88	-0.10	0.750			
0.5906	37798.55	3.6790	3.6790	2.5445	24.87	-0.11	0.750			
0.5986	38308.00	3.6760	3.6756	2.8581	24.86	-0.12	0.750			
0.6072	38859.91	3.6730	3.6731	2.8860	24.85	-0.13	0.750			
0.6155	39392.80	3.6700	3.6705	2.7752	24.85	-0.13	0.750			
0.6235	39904.46	3.6670	3.6668	2.5462	24.84	-0.14	0.750			
0.6307	40366.35	3.6640	3.6645	2.3966	24.85	-0.13	0.750			
0.6382	40844.25	3.6610	3.6615	2.3246	24.85	-0.13	0.750			
0.6447	41258.47	3.6580	3.6583	2.1394	24.86	-0.12	0.750			
0.6506	41637.14	3.6550	3.6556	1.9680	24.87	-0.11	0.750			
0.6561	41988.58	3.6520	3.6512	1.8177	24.87	-0.11	0.750			
0.6611	42311.45	3.6490	3.6491	1.6351	24.88	-0.10	0.750			
0.6658	42608.60	3.6460	3.6463	1.4944	24.89	-0.09	0.750			
0.6700	42883.04	3.6430	3.6432	1.3604	24.90	-0.08	0.750			
0.6740	43133.71	3.6400	3.6401	1.2221	24.90	-0.08	0.750			
0.6773	43347.87	3.6370	3.6371	1.1182	24.91	-0.07	0.750			
0.6805	43554.14	3.6340	3.6340	1.0411	24.91	-0.07	0.750			
0.6835	43743.00	3.6310	3.6309	1.0017	24.92	-0.06	0.750			
0.6863	43925.94	3.6280	3.6281	0.9628	24.92	-0.06	0.750			
0.6891	44105.60	3.6250	3.6252	0.9313	24.93	-0.05	0.750			
0.6919	44282.07	3.6220	3.6222	0.9131	24.94	-0.04	0.750			
0.6946	44457.26	3.6190	3.6192	0.8858	24.94	-0.04	0.750			
0.6973	44629.24	3.6160	3.6161	0.8526	24.95	-0.03	0.750			
0.6999	44795.28	3.6130	3.6131	0.8033	24.96	-0.02	0.750			
0.7023	44949.21	3.6100	3.6101	0.7359	24.96	-0.02	0.750			
0.7045	45087.14	3.6070	3.6071	0.6810	24.97	-0.01	0.750			
0.7064	45206.81	3.6040	3.6043	0.6125	24.97	-0.01	0.750			
0.7081	45317.05	3.6010	3.6013	0.5540	24.98	-0.00	0.750			
0.7097	45417.67	3.5980	3.5979	0.4957	24.98	0.00	0.750			
0.7111	45508.56	3.5950	3.5953	0.4427	24.98	0.00	0.750			
0.7123	45589.79	3.5920	3.5920	0.3922	24.99	0.01	0.750			
0.7135	45662.90	3.5890	3.5889	0.3409	24.99	0.01	0.750			
0.7143	45718.26	3.5860	3.5860	0.2714	24.99	0.01	0.750			
0.7151	45765.36	3.5830	3.5831	0.2189	24.99	0.01	0.750			
0.7157	45803.62	3.5800	3.5801	0.1652	24.99	0.01	0.750			
0.7161	45830.27	3.5770	3.5776	0.1095	25.00	0.02	0.750			
0.7163	45846.18	3.5740	3.5753	0.0485	25.00	0.02	0.750			
