Ah_balance (normalized)	Ah_balance (mAh)	Voltage - fit (V)	Voltage -  interpolate (V)	dQ/dV (1/V)	Temperature (°C)	Temperature - diff (°C)	Current (C)	R_DC 0ms (mOhm)	R_DC 50ms (mOhm)	R_DC 50 ms PEC (mOhm)
0.0471	3012.45	4.1980	4.1980	0.7832	25.89	0.42	0.750			
0.0494	3161.04	4.1950	4.1951	0.7706	25.89	0.42	0.750			
0.0517	3307.83	4.1920	4.1920	0.7662	25.88	0.41	0.750			
0.0540	3454.32	4.1890	4.1891	0.7660	25.88	0.41	0.750			
0.0563	3600.75	4.1860	4.1860	0.7687	25.88	0.41	0.750			
0.0586	3747.53	4.1830	4.1830	0.7718	25.88	0.41	0.750			
0.0609	3897.55	4.1800	4.1800	0.7706	25.88	0.41	0.750			
0.0632	4046.85	4.1770	4.1770	0.7723	25.87	0.40	0.750			
0.0655	4193.98	4.1740	4.1741	0.7710	25.87	0.40	0.750			
0.0678	4342.02	4.1710	4.1710	0.7703	25.87	0.40	0.750			
0.0701	4488.62	4.1680	4.1681	0.7695	25.87	0.40	0.750			
0.0724	4635.81	4.1650	4.1650	0.7720	25.87	0.40	0.750			
0.0748	4784.18	4.1620	4.1621	0.7721	25.88	0.41	0.750			
0.0771	4933.54	4.1590	4.1590	0.7763	25.88	0.41	0.750			
0.0794	5082.40	4.1560	4.1560	0.7771	25.89	0.42	0.750			
0.0817	5231.28	4.1530	4.1527	0.7792	25.89	0.42	0.750			
0.0841	5380.81	4.1500	4.1501	0.7823	25.89	0.42	0.750			
0.0864	5531.75	4.1470	4.1469	0.7829	25.89	0.42	0.750			
0.0888	5682.61	4.1440	4.1440	0.7864	25.89	0.42	0.750			
0.0912	5834.48	4.1410	4.1410	0.7901	25.89	0.42	0.750			
0.0935	5985.28	4.1380	4.1380	0.7916	25.89	0.42	0.750			
0.0959	6137.74	4.1350	4.1350	0.7944	25.89	0.42	0.750			
0.0983	6291.19	4.1320	4.1320	0.7899	25.89	0.42	0.750			
0.1007	6442.24	4.1290	4.1291	0.7911	25.89	0.42	0.750			
0.1030	6595.20	4.1260	4.1260	0.7916	25.89	0.42	0.750			
0.1054	6745.24	4.1230	4.1230	0.7942	25.89	0.42	0.750			
0.1078	6896.61	4.1200	4.1199	0.7963	25.89	0.42	0.750			
0.1102	7051.97	4.1170	4.1170	0.7936	25.89	0.42	0.750			
0.1126	7205.32	4.1140	4.1140	0.7967	25.89	0.42	0.750			
0.1150	7358.66	4.1110	4.1110	0.7997	25.90	0.43	0.750			
0.1174	7511.24	4.1080	4.1081	0.7995	25.90	0.43	0.750			
0.1197	7663.87	4.1050	4.1048	0.8009	25.90	0.43	0.750			
0.1221	7815.92	4.1020	4.1020	0.8067	25.90	0.43	0.750			
0.1246	7972.61	4.0990	4.0990	0.8097	25.90	0.43	0.750			
0.1270	8130.71	4.0960	4.0959	0.8139	25.91	0.44	0.750			
0.1295	8286.69	4.0930	4.0931	0.8143	25.91	0.44	0.750			
0.1319	8443.15	4.0900	4.0898	0.8172	25.91	0.44	0.750			
0.1344	8600.46	4.0870	4.0870	0.8168	25.91	0.44	0.750			
0.1368	8757.80	4.0840	4.0839	0.8147	25.91	0.44	0.750			
0.1393	8912.14	4.0810	4.0811	0.8158	25.91	0.44	0.750			
0.1417	9068.94	4.0780	4.0781	0.8187	25.91	0.44	0.750			
0.1442	9226.72	4.0750	4.0749	0.8244	25.91	0.44	0.750			
0.1466	9384.21	4.0720	4.0720	0.8294	25.91	0.44	0.750			
0.1492	9546.31	4.0690	4.0690	0.8265	25.92	0.45	0.750			
0.1517	9705.66	4.0660	4.0661	0.8350	25.92	0.45	0.750			
0.1541	9864.98	4.0630	4.0630	0.8365	25.93	0.46	0.750			
0.1566	10025.33	4.0600	4.0597	0.8408	25.93	0.46	0.750			
0.1592	10186.66	4.0570	4.0571	0.8428	25.93	0.46	0.750			
0.1617	10349.11	4.0540	4.0541	0.8458	25.93	0.46	0.750			
0.1643	10512.90	4.0510	4.0510	0.8538	25.93	0.46	0.750			
0.1668	10678.13	4.0480	4.0480	0.8491	25.93	0.46	0.750			
0.1694	10841.24	4.0450	4.0449	0.8539	25.93	0.46	0.750			
0.1720	11006.91	4.0420	4.0420	0.8518	25.93	0.46	0.750			
0.1745	11170.05	4.0390	4.0391	0.8552	25.93	0.46	0.750			
0.1771	11334.80	4.0360	4.0359	0.8582	25.93	0.46	0.750			
0.1797	11498.15	4.0330	4.0331	0.8610	25.93	0.46	0.750			
0.1822	11663.54	4.0300	4.0298	0.8626	25.93	0.46	0.750			
0.1849	11831.81	4.0270	4.0270	0.8648	25.93	0.46	0.750			
0.1875	11997.21	4.0240	4.0241	0.8685	25.94	0.47	0.750			
0.1901	12164.99	4.0210	4.0210	0.8744	25.94	0.47	0.750			
0.1927	12332.05	4.0180	4.0180	0.8758	25.95	0.48	0.750			
0.1953	12500.28	4.0150	4.0151	0.8789	25.95	0.48	0.750			
0.1980	12669.46	4.0120	4.0120	0.8822	25.95	0.48	0.750			
0.2006	12841.45	4.0090	4.0090	0.8876	25.95	0.48	0.750			
0.2033	13012.26	4.0060	4.0060	0.8873	25.95	0.48	0.750			
0.2060	13181.47	4.0030	4.0030	0.8857	25.95	0.48	0.750			
0.2086	13351.78	4.0000	4.0000	0.8910	25.95	0.48	0.750			
0.2113	13522.10	3.9970	3.9970	0.8890	25.96	0.49	0.750			
0.2140	13692.98	3.9940	3.9940	0.8934	25.96	0.49	0.750			
0.2166	13864.51	3.9910	3.9911	0.8999	25.97	0.50	0.750			
0.2193	14037.73	3.9880	3.9877	0.9048	25.97	0.50	0.750			
0.2221	14213.96	3.9850	3.9850	0.9049	25.97	0.50	0.750			
0.2248	14386.74	3.9820	3.9821	0.9092	25.97	0.50	0.750			
0.2275	14562.22	3.9790	3.9790	0.9118	25.97	0.50	0.750			
0.2303	14738.42	3.9760	3.9761	0.9169	25.97	0.50	0.750			
0.2330	14912.36	3.9730	3.9729	0.9152	25.97	0.50	0.750			
0.2358	15088.44	3.9700	3.9701	0.9131	25.97	0.50	0.750			
0.2385	15264.11	3.9670	3.9671	0.9170	25.97	0.50	0.750			
0.2413	15440.22	3.9640	3.9640	0.9237	25.97	0.50	0.750			
0.2440	15617.75	3.9610	3.9609	0.9241	25.97	0.50	0.750			
0.2468	15797.28	3.9580	3.9580	0.9233	25.97	0.50	0.750			
0.2496	15973.38	3.9550	3.9551	0.9266	25.98	0.51	0.750			
0.2524	16152.22	3.9520	3.9520	0.9332	25.98	0.51	0.750			
0.2552	16332.05	3.9490	3.9491	0.9370	25.99	0.52	0.750			
0.2580	16510.38	3.9460	3.9459	0.9339	25.99	0.52	0.750			
0.2608	16690.06	3.9430	3.9431	0.9311	25.99	0.52	0.750			
0.2636	16869.26	3.9400	3.9401	0.9377	25.99	0.52	0.750			
0.2664	17049.20	3.9370	3.9371	0.9413	25.99	0.52	0.750			
0.2692	17229.16	3.9340	3.9338	0.9412	25.99	0.52	0.750			
0.2720	17409.43	3.9310	3.9310	0.9449	25.99	0.52	0.750			
0.2749	17592.52	3.9280	3.9281	0.9511	26.00	0.53	0.750			
0.2778	17777.89	3.9250	3.9250	0.9573	26.00	0.53	0.750			
0.2806	17961.44	3.9220	3.9220	0.9542	26.01	0.54	0.750			
0.2835	18145.98	3.9190	3.9190	0.9527	26.01	0.54	0.750			
0.2864	18327.38	3.9160	3.9160	0.9558	26.01	0.54	0.750			
0.2892	18511.48	3.9130	3.9130	0.9565	26.01	0.54	0.750			
0.2921	18693.57	3.9100	3.9100	0.9608	26.01	0.54	0.750			
0.2950	18878.38	3.9070	3.9069	0.9651	26.01	0.54	0.750			
0.2979	19064.93	3.9040	3.9040	0.9617	26.01	0.54	0.750			
0.3008	19249.01	3.9010	3.9010	0.9695	26.02	0.55	0.750			
0.3037	19435.93	3.8980	3.8981	0.9726	26.02	0.55	0.750			
0.3066	19621.92	3.8950	3.8947	0.9759	26.02	0.55	0.750			
0.3096	19811.38	3.8920	3.8921	0.9776	26.02	0.55	0.750			
0.3125	19998.21	3.8890	3.8890	0.9812	26.02	0.55	0.750			
0.3154	20187.52	3.8860	3.8860	0.9909	26.01	0.54	0.750			
0.3184	20377.83	3.8830	3.8830	0.9868	26.01	0.54	0.750			
0.3214	20569.54	3.8800	3.8800	0.9847	26.01	0.54	0.750			
0.3244	20759.47	3.8770	3.8770	0.9932	26.01	0.54	0.750			
0.3273	20949.14	3.8740	3.8741	0.9974	26.01	0.54	0.750			
0.3303	21141.42	3.8710	3.8710	0.9981	26.01	0.54	0.750			
0.3334	21334.47	3.8680	3.8680	0.9974	26.01	0.54	0.750			
0.3363	21524.57	3.8650	3.8651	1.0020	26.01	0.54	0.750			
0.3394	21719.36	3.8620	3.8621	1.0084	26.00	0.53	0.750			
0.3424	21914.70	3.8590	3.8590	1.0141	26.00	0.53	0.750			
0.3454	22106.78	3.8560	3.8561	1.0127	26.00	0.53	0.750			
0.3485	22301.43	3.8530	3.8531	1.0226	26.00	0.53	0.750			
0.3516	22499.67	3.8500	3.8499	1.0281	25.99	0.52	0.750			
0.3547	22697.64	3.8470	3.8470	1.0333	25.99	0.52	0.750			
0.3578	22898.51	3.8440	3.8440	1.0273	25.99	0.52	0.750			
0.3609	23095.12	3.8410	3.8410	1.0368	25.98	0.51	0.750			
0.3639	23291.89	3.8380	3.8381	1.0471	25.97	0.50	0.750			
0.3671	23493.21	3.8350	3.8351	1.0589	25.97	0.50	0.750			
0.3703	23699.56	3.8320	3.8320	1.0589	25.96	0.49	0.750			
0.3735	23903.96	3.8290	3.8291	1.0739	25.95	0.48	0.750	0.308	0.410	
0.3768	24112.41	3.8260	3.8261	1.0807	25.94	0.47	0.750			
0.3800	24321.98	3.8230	3.8230	1.0848	25.93	0.46	0.750			
0.3833	24528.76	3.8200	3.8200	1.0772	25.93	0.46	0.750			
0.3865	24734.41	3.8170	3.8171	1.0870	25.92	0.45	0.750			
0.3898	24945.23	3.8140	3.8140	1.0922	25.90	0.43	0.750			
0.3931	25156.15	3.8110	3.8109	1.0980	25.89	0.42	0.750			
0.3963	25365.98	3.8080	3.8081	1.0938	25.89	0.42	0.750			
0.3997	25577.96	3.8050	3.8050	1.1010	25.88	0.41	0.750			
0.4029	25788.62	3.8020	3.8020	1.1072	25.88	0.41	0.750			
0.4063	26001.58	3.7990	3.7989	1.1135	25.87	0.40	0.750			
0.4096	26212.89	3.7960	3.7961	1.1149	25.86	0.39	0.750			
0.4129	26427.57	3.7930	3.7931	1.1347	25.85	0.38	0.750			
0.4163	26646.27	3.7900	3.7900	1.1503	25.84	0.37	0.750			
0.4198	26869.99	3.7870	3.7868	1.1675	25.83	0.36	0.750			
0.4234	27094.71	3.7840	3.7841	1.1808	25.82	0.35	0.750			
0.4269	27323.07	3.7810	3.7811	1.1973	25.81	0.34	0.750			
0.4306	27557.76	3.7780	3.7779	1.2128	25.79	0.32	0.750			
0.4342	27787.32	3.7750	3.7750	1.2293	25.78	0.31	0.750			
0.4379	28023.88	3.7720	3.7720	1.2525	25.77	0.30	0.750			
0.4417	28271.62	3.7690	3.7690	1.2689	25.76	0.29	0.750			
0.4456	28516.10	3.7660	3.7659	1.3020	25.75	0.28	0.750			
0.4495	28768.30	3.7630	3.7631	1.3267	25.73	0.26	0.750			
0.4535	29024.24	3.7600	3.7601	1.3587	25.72	0.25	0.750			
0.4576	29288.07	3.7570	3.7569	1.3878	25.71	0.24	0.750			
0.4618	29557.28	3.7540	3.7541	1.4012	25.69	0.22	0.750			
0.4661	29831.81	3.7510	3.7511	1.4385	25.68	0.21	0.750			
0.4705	30109.40	3.7480	3.7480	1.4655	25.67	0.20	0.750			
0.4748	30387.71	3.7450	3.7450	1.4953	25.65	0.18	0.750			
0.4794	30679.76	3.7420	3.7422	1.5328	25.64	0.17	0.750			
0.4840	30973.04	3.7390	3.7386	1.5887	25.62	0.15	0.750			
0.4888	31283.34	3.7360	3.7358	1.6380	25.61	0.14	0.750			
0.4939	31607.91	3.7330	3.7328	1.6874	25.59	0.12	0.750			
0.4990	31938.19	3.7300	3.7298	1.7476	25.58	0.11	0.750			
0.5043	32274.67	3.7270	3.7267	1.7802	25.57	0.10	0.750			
0.5097	32619.92	3.7240	3.7241	1.8415	25.55	0.08	0.750			
0.5154	32986.94	3.7210	3.7211	1.9003	25.53	0.06	0.750			
0.5211	33349.78	3.7180	3.7179	1.9362	25.51	0.04	0.750			
0.5270	33727.74	3.7150	3.7150	2.0032	25.50	0.03	0.750			
0.5331	34118.40	3.7120	3.7118	2.0499	25.48	0.01	0.750			
0.5393	34517.57	3.7090	3.7090	2.1194	25.47	-0.00	0.750			
0.5458	34929.36	3.7060	3.7060	2.1792	25.46	-0.01	0.750			
0.5525	35361.50	3.7030	3.7030	2.2091	25.44	-0.03	0.750			
0.5592	35789.83	3.7000	3.6997	2.2716	25.42	-0.05	0.750			
0.5660	36224.23	3.6970	3.6970	2.3858	25.40	-0.07	0.750			
0.5732	36686.15	3.6940	3.6935	2.4412	25.38	-0.09	0.750			
0.5807	37165.38	3.6910	3.6911	2.4856	25.37	-0.10	0.750			
0.5885	37665.97	3.6880	3.6876	2.5767	25.36	-0.11	0.750			
0.5961	38147.51	3.6850	3.6850	2.6164	25.35	-0.12	0.750			
0.6040	38654.99	3.6820	3.6820	2.7066	25.33	-0.14	0.750			
0.6124	39195.17	3.6790	3.6790	2.7836	25.32	-0.15	0.750			
0.6209	39739.06	3.6760	3.6762	2.8548	25.32	-0.15	0.750			
0.6295	40285.73	3.6730	3.6732	2.9198	25.32	-0.15	0.750			
0.6384	40854.83	3.6700	3.6702	2.9310	25.31	-0.16	0.750			
0.6473	41425.54	3.6670	3.6671	2.9240	25.30	-0.17	0.750			
0.6562	41995.31	3.6640	3.6641	2.8501	25.30	-0.17	0.750			
0.6649	42553.84	3.6610	3.6610	2.7266	25.31	-0.16	0.750			
0.6729	43062.88	3.6580	3.6577	2.4932	25.32	-0.15	0.750			
0.6798	43504.85	3.6550	3.6550	2.2443	25.33	-0.14	0.750			
0.6859	43897.35	3.6520	3.6518	2.0129	25.34	-0.13	0.750			
0.6917	44266.99	3.6490	3.6485	1.8300	25.35	-0.12	0.750			
0.6968	44595.31	3.6460	3.6457	1.6503	25.35	-0.12	0.750			
0.7015	44897.41	3.6430	3.6433	1.4906	25.36	-0.11	0.750			
0.7058	45170.88	3.6400	3.6400	1.3468	25.37	-0.10	0.750			
0.7096	45416.41	3.6370	3.6371	1.1996	25.37	-0.10	0.750			
0.7128	45621.62	3.6340	3.6340	1.0819	25.38	-0.09	0.750			
0.7158	45812.25	3.6310	3.6310	1.0163	25.38	-0.09	0.750			
0.7187	45993.67	3.6280	3.6278	0.9551	25.39	-0.08	0.750			
0.7214	46171.14	3.6250	3.6251	0.9288	25.40	-0.07	0.750			
0.7242	46346.45	3.6220	3.6220	0.9093	25.41	-0.06	0.750			
0.7269	46520.50	3.6190	3.6191	0.8878	25.41	-0.06	0.750			
0.7296	46692.64	3.6160	3.6160	0.8666	25.42	-0.05	0.750			
0.7322	46859.17	3.6130	3.6130	0.8271	25.43	-0.04	0.750			
0.7346	47016.54	3.6100	3.6100	0.7774	25.44	-0.03	0.750			
0.7370	47166.27	3.6070	3.6070	0.7190	25.45	-0.02	0.750			
0.7391	47300.13	3.6040	3.6039	0.6370	25.45	-0.02	0.750			
0.7408	47413.58	3.6010	3.6011	0.5702	25.46	-0.01	0.750			
0.7424	47512.50	3.5980	3.5982	0.5044	25.46	-0.01	0.750			
0.7437	47599.58	3.5950	3.5954	0.4381	25.47	-0.00	0.750			
0.7450	47678.31	3.5920	3.5923	0.3807	25.47	0.00	0.750			
0.7460	47745.59	3.5890	3.5892	0.3267	25.48	0.01	0.750			
0.7469	47803.68	3.5860	3.5862	0.2762	25.48	0.01	0.750			
0.7478	47856.76	3.5830	3.5829	0.2192	25.48	0.01	0.750			
0.7483	47890.74	3.5800	3.5803	0.1589	25.48	0.01	0.750			
0.7487	47915.83	3.5770	3.5776	0.0985	25.48	0.01	0.750			
