Ah_balance (normalized)	Ah_balance (mAh)	Voltage - fit (V)	Voltage -  interpolate (V)	dQ/dV (1/V)	Temperature (°C)	Temperature - diff (°C)	Current (C)	R_DC 0ms (mOhm)	R_DC 50ms (mOhm)	R_DC 50 ms PEC (mOhm)
0.0243	1552.12	4.1990	4.1992	107.6546	24.94	1.02	0.305			
0.0501	3208.92	4.1960	4.1984	1.4586	24.90	0.98	0.734			
0.0540	3453.25	4.1930	4.1939	1.2253	24.90	0.98	0.750			
0.0569	3639.91	4.1900	4.1902	0.9500	24.89	0.97	0.750			
0.0593	3796.85	4.1870	4.1870	0.7749	24.88	0.96	0.750			
0.0617	3946.10	4.1840	4.1841	0.7810	24.88	0.96	0.750			
0.0640	4095.55	4.1810	4.1810	0.7841	24.87	0.95	0.750			
0.0663	4246.14	4.1780	4.1779	0.7868	24.87	0.95	0.750			
0.0687	4399.13	4.1750	4.1750	0.7894	24.86	0.94	0.750			
0.0711	4551.45	4.1720	4.1721	0.7923	24.86	0.94	0.750			
0.0735	4705.57	4.1690	4.1689	0.7948	24.86	0.94	0.750			
0.0759	4856.50	4.1660	4.1660	0.7911	24.85	0.93	0.750			
0.0782	5007.04	4.1630	4.1629	0.7899	24.85	0.93	0.750			
0.0806	5158.83	4.1600	4.1600	0.7919	24.84	0.92	0.750			
0.0830	5311.23	4.1570	4.1570	0.7951	24.84	0.92	0.750			
0.0854	5464.17	4.1540	4.1541	0.7968	24.83	0.91	0.750			
0.0878	5617.65	4.1510	4.1510	0.7987	24.83	0.91	0.750			
0.0902	5771.61	4.1480	4.1480	0.8007	24.82	0.90	0.750			
0.0926	5924.38	4.1450	4.1450	0.8044	24.81	0.89	0.750			
0.0950	6079.79	4.1420	4.1420	0.8035	24.81	0.89	0.750			
0.0974	6234.50	4.1390	4.1390	0.8059	24.80	0.88	0.750			
0.0998	6388.74	4.1360	4.1360	0.8076	24.80	0.88	0.750			
0.1023	6544.29	4.1330	4.1330	0.8106	24.79	0.87	0.750			
0.1047	6699.54	4.1300	4.1300	0.8144	24.79	0.87	0.750			
0.1071	6856.99	4.1270	4.1270	0.8149	24.78	0.86	0.750			
0.1096	7013.49	4.1240	4.1240	0.8156	24.78	0.86	0.750			
0.1121	7171.43	4.1210	4.1210	0.8201	24.78	0.86	0.750			
0.1145	7327.83	4.1180	4.1180	0.8186	24.77	0.85	0.750			
0.1170	7484.96	4.1150	4.1150	0.8227	24.77	0.85	0.750			
0.1194	7642.90	4.1120	4.1120	0.8237	24.76	0.84	0.750			
0.1219	7800.83	4.1090	4.1090	0.8276	24.75	0.83	0.750			
0.1244	7961.26	4.1060	4.1060	0.8319	24.75	0.83	0.750			
0.1269	8120.99	4.1030	4.1030	0.8325	24.74	0.82	0.750			
0.1294	8281.01	4.1000	4.1000	0.8334	24.74	0.82	0.750			
0.1319	8441.80	4.0970	4.0970	0.8321	24.73	0.81	0.750			
0.1344	8600.60	4.0940	4.0940	0.8356	24.73	0.81	0.750			
0.1369	8761.36	4.0910	4.0910	0.8395	24.73	0.81	0.750			
0.1394	8921.99	4.0880	4.0879	0.8426	24.72	0.80	0.750			
0.1420	9085.00	4.0850	4.0850	0.8461	24.72	0.80	0.750			
0.1445	9248.81	4.0820	4.0820	0.8477	24.71	0.79	0.750			
0.1471	9411.74	4.0790	4.0791	0.8491	24.71	0.79	0.750			
0.1496	9574.82	4.0760	4.0760	0.8490	24.71	0.79	0.750			
0.1522	9737.70	4.0730	4.0729	0.8536	24.70	0.78	0.750			
0.1547	9900.43	4.0700	4.0700	0.8548	24.70	0.78	0.750			
0.1573	10064.43	4.0670	4.0670	0.8609	24.69	0.77	0.750			
0.1599	10232.18	4.0640	4.0640	0.8700	24.69	0.77	0.750			
0.1625	10399.89	4.0610	4.0610	0.8739	24.68	0.76	0.750			
0.1651	10568.24	4.0580	4.0580	0.8756	24.68	0.76	0.750			
0.1678	10737.41	4.0550	4.0551	0.8756	24.67	0.75	0.750			
0.1704	10905.59	4.0520	4.0520	0.8758	24.67	0.75	0.750			
0.1730	11073.58	4.0490	4.0490	0.8787	24.66	0.74	0.750			
0.1757	11241.70	4.0460	4.0460	0.8799	24.66	0.74	0.750			
0.1783	11410.43	4.0430	4.0430	0.8814	24.65	0.73	0.750			
0.1809	11580.16	4.0400	4.0400	0.8828	24.64	0.72	0.750			
0.1836	11749.69	4.0370	4.0370	0.8884	24.64	0.72	0.750			
0.1863	11920.35	4.0340	4.0340	0.8936	24.63	0.71	0.750			
0.1889	12092.10	4.0310	4.0310	0.8948	24.62	0.70	0.750			
0.1916	12263.96	4.0280	4.0280	0.8990	24.62	0.70	0.750			
0.1943	12437.64	4.0250	4.0251	0.9015	24.61	0.69	0.750			
0.1970	12610.95	4.0220	4.0220	0.9072	24.61	0.69	0.750			
0.1998	12785.43	4.0190	4.0190	0.9125	24.60	0.68	0.750			
0.2025	12960.59	4.0160	4.0160	0.9147	24.60	0.68	0.750			
0.2053	13137.65	4.0130	4.0130	0.9131	24.60	0.68	0.750			
0.2080	13313.41	4.0100	4.0100	0.9165	24.59	0.67	0.750			
0.2108	13488.67	4.0070	4.0071	0.9191	24.59	0.67	0.750			
0.2135	13664.98	4.0040	4.0040	0.9230	24.58	0.66	0.750			
0.2163	13841.06	4.0010	4.0010	0.9227	24.58	0.66	0.750			
0.2190	14019.17	3.9980	3.9980	0.9232	24.57	0.65	0.750			
0.2218	14196.75	3.9950	3.9950	0.9296	24.57	0.65	0.750			
0.2246	14375.56	3.9920	3.9921	0.9357	24.57	0.65	0.750			
0.2274	14554.72	3.9890	3.9888	0.9378	24.56	0.64	0.750			
0.2302	14734.82	3.9860	3.9861	0.9404	24.56	0.64	0.750			
0.2331	14917.19	3.9830	3.9830	0.9448	24.55	0.63	0.750			
0.2359	15100.51	3.9800	3.9800	0.9503	24.55	0.63	0.750			
0.2388	15282.29	3.9770	3.9770	0.9463	24.54	0.62	0.750			
0.2416	15464.45	3.9740	3.9740	0.9500	24.54	0.62	0.750			
0.2445	15645.96	3.9710	3.9710	0.9468	24.53	0.61	0.750			
0.2473	15827.47	3.9680	3.9681	0.9511	24.52	0.60	0.750			
0.2501	16009.20	3.9650	3.9650	0.9557	24.52	0.60	0.750			
0.2530	16193.26	3.9620	3.9618	0.9596	24.51	0.59	0.750			
0.2559	16377.99	3.9590	3.9591	0.9605	24.50	0.58	0.750			
0.2588	16562.88	3.9560	3.9561	0.9671	24.50	0.58	0.750			
0.2617	16749.83	3.9530	3.9531	0.9740	24.49	0.57	0.750			
0.2646	16936.49	3.9500	3.9499	0.9767	24.48	0.56	0.750			
0.2676	17128.47	3.9470	3.9470	0.9563	24.47	0.55	0.750			
0.2705	17311.34	3.9440	3.9441	0.9440	24.46	0.54	0.750			
0.2733	17491.90	3.9410	3.9412	0.9363	24.45	0.53	0.750			
0.2760	17665.84	3.9380	3.9378	0.9429	24.45	0.53	0.750			
0.2788	17841.27	3.9350	3.9349	0.9448	24.44	0.52	0.750			
0.2816	18022.52	3.9320	3.9320	0.9554	24.43	0.51	0.750			
0.2845	18207.34	3.9290	3.9291	0.9764	24.43	0.51	0.750			
0.2875	18402.93	3.9260	3.9261	0.9920	24.42	0.50	0.750			
0.2905	18593.90	3.9230	3.9228	0.9978	24.42	0.50	0.750			
0.2935	18786.03	3.9200	3.9201	0.9989	24.41	0.49	0.750			
0.2965	18977.57	3.9170	3.9170	1.0007	24.41	0.49	0.750			
0.2995	19169.93	3.9140	3.9140	1.0130	24.41	0.49	0.750			
0.3026	19363.63	3.9110	3.9107	1.0157	24.40	0.48	0.750			
0.3056	19560.49	3.9080	3.9080	1.0213	24.39	0.47	0.750			
0.3087	19758.49	3.9050	3.9051	1.0297	24.38	0.46	0.750			
0.3118	19956.60	3.9020	3.9021	1.0349	24.37	0.45	0.750			
0.3150	20157.20	3.8990	3.8988	1.0396	24.36	0.44	0.750			
0.3181	20355.84	3.8960	3.8960	1.0378	24.36	0.44	0.750			
0.3211	20553.51	3.8930	3.8930	1.0394	24.35	0.43	0.750			
0.3243	20753.95	3.8900	3.8901	1.0493	24.35	0.43	0.750			
0.3274	20955.96	3.8870	3.8868	1.0592	24.34	0.42	0.750			
0.3306	21160.30	3.8840	3.8840	1.0528	24.34	0.42	0.750			
0.3338	21360.73	3.8810	3.8811	1.0643	24.33	0.41	0.750			
0.3370	21565.03	3.8780	3.8781	1.0765	24.33	0.41	0.750			
0.3402	21773.23	3.8750	3.8745	1.0863	24.32	0.40	0.750			
0.3435	21982.20	3.8720	3.8721	1.0909	24.31	0.39	0.750			
0.3468	22193.72	3.8690	3.8691	1.0964	24.30	0.38	0.750			
0.3501	22406.13	3.8660	3.8660	1.1102	24.29	0.37	0.750			
0.3535	22620.84	3.8630	3.8630	1.1030	24.28	0.36	0.750			
0.3567	22831.88	3.8600	3.8600	1.1113	24.27	0.35	0.750			
0.3601	23045.37	3.8570	3.8570	1.1171	24.26	0.34	0.750			
0.3635	23260.98	3.8540	3.8541	1.1255	24.25	0.33	0.750			
0.3669	23478.96	3.8510	3.8511	1.1265	24.25	0.33	0.750			
0.3702	23694.56	3.8480	3.8481	1.1381	24.24	0.32	0.750			
0.3736	23911.86	3.8450	3.8450	1.1448	24.23	0.31	0.750			
0.3771	24134.01	3.8420	3.8418	1.1592	24.22	0.30	0.750			
0.3806	24356.28	3.8390	3.8391	1.1649	24.21	0.29	0.750			
0.3841	24581.66	3.8360	3.8360	1.1789	24.20	0.28	0.750			
0.3877	24811.40	3.8330	3.8330	1.1902	24.19	0.27	0.750			
0.3913	25040.20	3.8300	3.8300	1.1888	24.18	0.26	0.750			
0.3948	25268.68	3.8270	3.8270	1.1988	24.17	0.25	0.750			
0.3984	25498.81	3.8240	3.8241	1.2110	24.15	0.23	0.750			
0.4021	25734.98	3.8210	3.8208	1.2133	24.14	0.22	0.750			
0.4057	25966.37	3.8180	3.8180	1.2264	24.13	0.21	0.750			
0.4094	26201.26	3.8150	3.8151	1.2399	24.12	0.20	0.750			
0.4132	26443.54	3.8120	3.8121	1.2525	24.11	0.19	0.750			
0.4169	26684.52	3.8090	3.8089	1.2525	24.09	0.17	0.750			
0.4207	26927.00	3.8060	3.8061	1.2615	24.07	0.15	0.750			
0.4245	27169.98	3.8030	3.8031	1.2652	24.06	0.14	0.750			
0.4285	27421.29	3.8000	3.7998	1.2540	24.04	0.12	0.750			
0.4321	27655.38	3.7970	3.7970	1.2375	24.02	0.10	0.750			
0.4358	27893.35	3.7940	3.7941	1.2227	24.01	0.09	0.750			
0.4395	28129.53	3.7910	3.7908	1.1973	23.99	0.07	0.750			
0.4431	28359.23	3.7880	3.7881	1.1568	23.98	0.06	0.750			
0.4465	28578.07	3.7850	3.7851	1.1138	23.98	0.06	0.750			
0.4499	28790.91	3.7820	3.7820	1.0521	23.97	0.05	0.750			
0.4530	28994.87	3.7790	3.7790	0.9874	23.96	0.04	0.750			
0.4558	29173.94	3.7760	3.7761	0.9012	23.95	0.03	0.750			
0.4584	29340.31	3.7730	3.7731	0.8222	23.94	0.02	0.750			
0.4608	29491.00	3.7700	3.7699	0.7475	23.93	0.01	0.750			
0.4629	29625.15	3.7670	3.7669	0.6696	23.93	0.01	0.750			
0.4647	29740.83	3.7640	3.7640	0.5993	23.92	0.00	0.750			
0.4664	29849.52	3.7610	3.7610	0.5430	23.92	-0.00	0.750			
0.4679	29946.59	3.7580	3.7580	0.4904	23.91	-0.01	0.750			
0.4693	30034.48	3.7550	3.7550	0.4425	23.91	-0.01	0.750			
0.4705	30113.39	3.7520	3.7520	0.4015	23.90	-0.02	0.750			
0.4717	30185.71	3.7490	3.7490	0.3653	23.90	-0.02	0.750			
0.4727	30251.21	3.7460	3.7459	0.3310	23.90	-0.02	0.750			
0.4736	30311.25	3.7430	3.7430	0.3002	23.89	-0.03	0.750			
0.4745	30366.02	3.7400	3.7400	0.2716	23.89	-0.03	0.750			
0.4752	30415.90	3.7370	3.7370	0.2431	23.89	-0.03	0.750			
0.4759	30459.92	3.7340	3.7340	0.2138	23.89	-0.03	0.750			
0.4765	30498.09	3.7310	3.7310	0.1845	23.88	-0.04	0.750			
0.4770	30531.09	3.7280	3.7280	0.1537	23.88	-0.04	0.750			
0.4775	30557.63	3.7250	3.7253	0.1245	23.88	-0.04	0.750			
