Ah_balance (normalized)	Ah_balance (mAh)	Voltage - fit (V)	Voltage -  interpolate (V)	dQ/dV (1/V)	Temperature (°C)	Temperature - diff (°C)	Current (C)	R_DC 0ms (mOhm)	R_DC 50ms (mOhm)	R_DC 50 ms PEC (mOhm)
0.0481	3077.86	4.1970	4.1970	0.7175	25.28	0.44	0.750			
0.0503	3218.88	4.1940	4.1940	0.7423	25.28	0.44	0.750			
0.0526	3364.98	4.1910	4.1910	0.7519	25.28	0.44	0.750			
0.0548	3509.54	4.1880	4.1881	0.7515	25.28	0.44	0.750			
0.0571	3656.56	4.1850	4.1850	0.7407	25.28	0.44	0.750			
0.0593	3796.45	4.1820	4.1821	0.7506	25.28	0.44	0.750			
0.0615	3938.12	4.1790	4.1791	0.7535	25.28	0.44	0.750			
0.0638	4081.75	4.1760	4.1757	0.7579	25.28	0.44	0.750			
0.0661	4228.32	4.1730	4.1731	0.7643	25.28	0.44	0.750			
0.0684	4380.08	4.1700	4.1700	0.7653	25.28	0.44	0.750			
0.0707	4525.97	4.1670	4.1671	0.7679	25.28	0.44	0.750			
0.0730	4673.11	4.1640	4.1641	0.7655	25.28	0.44	0.750			
0.0753	4819.79	4.1610	4.1610	0.7686	25.28	0.44	0.750			
0.0776	4967.15	4.1580	4.1581	0.7712	25.28	0.44	0.750			
0.0799	5116.32	4.1550	4.1550	0.7779	25.28	0.44	0.750			
0.0823	5268.14	4.1520	4.1521	0.7808	25.28	0.44	0.750			
0.0847	5419.02	4.1490	4.1489	0.7805	25.27	0.43	0.750			
0.0870	5566.93	4.1460	4.1460	0.7754	25.27	0.43	0.750			
0.0893	5715.29	4.1430	4.1429	0.7737	25.27	0.43	0.750			
0.0916	5863.35	4.1400	4.1401	0.7778	25.27	0.43	0.750			
0.0940	6013.54	4.1370	4.1370	0.7847	25.27	0.43	0.750			
0.0963	6161.94	4.1340	4.1340	0.7790	25.27	0.43	0.750			
0.0986	6311.80	4.1310	4.1310	0.7844	25.27	0.43	0.750			
0.1010	6462.45	4.1280	4.1280	0.7861	25.27	0.43	0.750			
0.1033	6613.76	4.1250	4.1251	0.7910	25.27	0.43	0.750			
0.1058	6770.77	4.1220	4.1220	0.7834	25.27	0.43	0.750			
0.1081	6918.76	4.1190	4.1191	0.7859	25.28	0.44	0.750			
0.1105	7071.13	4.1160	4.1160	0.7950	25.28	0.44	0.750			
0.1128	7217.45	4.1130	4.1132	0.7920	25.28	0.44	0.750			
0.1151	7369.21	4.1100	4.1098	0.7953	25.28	0.44	0.750			
0.1176	7524.70	4.1070	4.1071	0.7971	25.28	0.44	0.750			
0.1200	7679.33	4.1040	4.1041	0.8047	25.28	0.44	0.750			
0.1224	7836.31	4.1010	4.1011	0.8087	25.28	0.44	0.750			
0.1248	7990.19	4.0980	4.0980	0.8017	25.28	0.44	0.750			
0.1273	8144.17	4.0950	4.0949	0.8019	25.28	0.44	0.750			
0.1297	8298.18	4.0920	4.0921	0.8039	25.28	0.44	0.750			
0.1321	8454.00	4.0890	4.0890	0.8032	25.28	0.44	0.750			
0.1345	8606.83	4.0860	4.0860	0.8059	25.28	0.44	0.750			
0.1369	8760.15	4.0830	4.0831	0.8061	25.28	0.44	0.750			
0.1393	8915.58	4.0800	4.0800	0.8120	25.28	0.44	0.750			
0.1417	9071.69	4.0770	4.0771	0.8170	25.28	0.44	0.750			
0.1443	9232.95	4.0740	4.0739	0.8013	25.28	0.44	0.750			
0.1467	9386.55	4.0710	4.0710	0.8146	25.29	0.45	0.750			
0.1491	9541.01	4.0680	4.0682	0.8142	25.29	0.45	0.750			
0.1515	9696.33	4.0650	4.0644	0.8233	25.29	0.45	0.750			
0.1540	9854.20	4.0620	4.0622	0.8321	25.29	0.45	0.750			
0.1565	10016.24	4.0590	4.0590	0.8396	25.29	0.45	0.750			
0.1591	10179.24	4.0560	4.0562	0.8467	25.30	0.46	0.750			
0.1616	10345.43	4.0530	4.0530	0.8435	25.30	0.46	0.750			
0.1642	10508.14	4.0500	4.0499	0.8437	25.30	0.46	0.750			
0.1667	10670.63	4.0470	4.0471	0.8435	25.30	0.46	0.750			
0.1692	10831.52	4.0440	4.0440	0.8395	25.30	0.46	0.750			
0.1717	10991.85	4.0410	4.0410	0.8434	25.30	0.46	0.750			
0.1743	11153.18	4.0380	4.0381	0.8441	25.30	0.46	0.750			
0.1768	11315.46	4.0350	4.0347	0.8488	25.30	0.46	0.750			
0.1794	11479.66	4.0320	4.0321	0.8561	25.30	0.46	0.750			
0.1820	11644.90	4.0290	4.0290	0.8523	25.30	0.46	0.750			
0.1845	11808.34	4.0260	4.0260	0.8599	25.31	0.47	0.750			
0.1871	11971.95	4.0230	4.0231	0.8589	25.31	0.47	0.750			
0.1897	12138.12	4.0200	4.0202	0.8659	25.31	0.47	0.750			
0.1923	12305.73	4.0170	4.0171	0.8692	25.31	0.47	0.750			
0.1949	12473.16	4.0140	4.0140	0.8741	25.31	0.47	0.750			
0.1976	12643.63	4.0110	4.0110	0.8775	25.32	0.48	0.750			
0.2002	12810.45	4.0080	4.0080	0.8770	25.32	0.48	0.750			
0.2028	12978.84	4.0050	4.0051	0.8785	25.32	0.48	0.750			
0.2055	13150.53	4.0020	4.0019	0.8718	25.32	0.48	0.750			
0.2081	13315.51	3.9990	3.9990	0.8772	25.32	0.48	0.750			
0.2107	13482.51	3.9960	3.9961	0.8838	25.32	0.48	0.750			
0.2133	13652.77	3.9930	3.9930	0.8873	25.32	0.48	0.750			
0.2160	13823.53	3.9900	3.9900	0.8934	25.32	0.48	0.750			
0.2187	13996.73	3.9870	3.9871	0.8804	25.33	0.49	0.750			
0.2213	14164.11	3.9840	3.9842	0.8933	25.33	0.49	0.750			
0.2240	14335.45	3.9810	3.9811	0.8930	25.34	0.50	0.750			
0.2267	14507.15	3.9780	3.9771	0.8966	25.34	0.50	0.750			
0.2294	14678.85	3.9750	3.9752	0.8984	25.34	0.50	0.750			
0.2321	14854.33	3.9720	3.9722	0.9071	25.34	0.50	0.750			
0.2349	15032.77	3.9690	3.9690	0.9153	25.35	0.51	0.750			
0.2376	15206.24	3.9660	3.9660	0.9033	25.35	0.51	0.750			
0.2403	15379.32	3.9630	3.9630	0.9042	25.35	0.51	0.750			
0.2431	15557.35	3.9600	3.9599	0.8950	25.35	0.51	0.750			
0.2457	15727.19	3.9570	3.9571	0.9089	25.35	0.51	0.750			
0.2485	15901.45	3.9540	3.9540	0.9130	25.35	0.51	0.750			
0.2512	16076.35	3.9510	3.9507	0.9192	25.35	0.51	0.750			
0.2540	16253.08	3.9480	3.9482	0.9254	25.35	0.51	0.750			
0.2567	16431.20	3.9450	3.9450	0.9138	25.36	0.52	0.750			
0.2595	16606.26	3.9420	3.9421	0.9198	25.36	0.52	0.750			
0.2622	16780.39	3.9390	3.9392	0.9173	25.37	0.53	0.750			
0.2650	16958.06	3.9360	3.9357	0.9286	25.37	0.53	0.750			
0.2678	17137.87	3.9330	3.9332	0.9331	25.37	0.53	0.750			
0.2706	17318.40	3.9300	3.9302	0.9387	25.37	0.53	0.750			
0.2735	17503.51	3.9270	3.9270	0.9463	25.37	0.53	0.750			
0.2763	17683.15	3.9240	3.9240	0.9347	25.37	0.53	0.750			
0.2791	17864.14	3.9210	3.9210	0.9318	25.37	0.53	0.750			
0.2819	18042.30	3.9180	3.9180	0.9352	25.37	0.53	0.750			
0.2847	18221.52	3.9150	3.9151	0.9403	25.37	0.53	0.750			
0.2875	18402.08	3.9120	3.9121	0.9450	25.37	0.53	0.750			
0.2904	18583.98	3.9090	3.9090	0.9484	25.37	0.53	0.750			
0.2933	18768.53	3.9060	3.9060	0.9346	25.37	0.53	0.750			
0.2960	18945.62	3.9030	3.9031	0.9437	25.37	0.53	0.750			
0.2989	19126.81	3.9000	3.9001	0.9506	25.37	0.53	0.750			
0.3017	19308.01	3.8970	3.8962	0.9531	25.37	0.53	0.750			
0.3045	19490.51	3.8940	3.8941	0.9532	25.37	0.53	0.750			
0.3074	19675.59	3.8910	3.8911	0.9613	25.37	0.53	0.750			
0.3104	19865.26	3.8880	3.8880	0.9695	25.37	0.53	0.750			
0.3133	20049.67	3.8850	3.8850	0.9601	25.37	0.53	0.750			
0.3162	20236.62	3.8820	3.8820	0.9493	25.37	0.53	0.750			
0.3190	20415.69	3.8790	3.8791	0.9596	25.37	0.53	0.750			
0.3219	20599.77	3.8760	3.8760	0.9662	25.36	0.52	0.750			
0.3248	20784.97	3.8730	3.8731	0.9753	25.36	0.52	0.750			
0.3277	20973.56	3.8700	3.8698	0.9763	25.36	0.52	0.750			
0.3307	21162.97	3.8670	3.8672	0.9680	25.35	0.51	0.750			
0.3336	21349.32	3.8640	3.8641	0.9708	25.35	0.51	0.750			
0.3365	21534.44	3.8610	3.8612	0.9820	25.34	0.50	0.750			
0.3394	21719.35	3.8580	3.8572	0.9785	25.34	0.50	0.750			
0.3423	21907.37	3.8550	3.8552	0.9833	25.33	0.49	0.750			
0.3453	22098.46	3.8520	3.8522	0.9920	25.33	0.49	0.750			
0.3484	22295.26	3.8490	3.8490	1.0081	25.32	0.48	0.750			
0.3514	22492.06	3.8460	3.8458	1.0200	25.31	0.47	0.750			
0.3544	22682.65	3.8430	3.8430	0.9917	25.30	0.46	0.750			
0.3573	22868.23	3.8400	3.8400	0.9897	25.30	0.46	0.750			
0.3602	23054.70	3.8370	3.8373	1.0006	25.29	0.45	0.750			
0.3632	23245.62	3.8340	3.8341	1.0157	25.28	0.44	0.750			
0.3663	23443.78	3.8310	3.8314	1.0219	25.27	0.43	0.750	0.279	0.396	
0.3694	23640.45	3.8280	3.8284	1.0368	25.26	0.42	0.750			
0.3726	23843.47	3.8250	3.8253	1.0523	25.25	0.41	0.750			
0.3759	24055.05	3.8220	3.8219	1.0610	25.24	0.40	0.750			
0.3790	24254.10	3.8190	3.8191	1.0251	25.23	0.39	0.750			
0.3821	24454.02	3.8160	3.8161	1.0375	25.22	0.38	0.750			
0.3852	24652.78	3.8130	3.8131	1.0445	25.21	0.37	0.750			
0.3884	24856.08	3.8100	3.8098	1.0554	25.20	0.36	0.750			
0.3915	25055.82	3.8070	3.8071	1.0423	25.19	0.35	0.750			
0.3946	25255.23	3.8040	3.8040	1.0580	25.19	0.35	0.750			
0.3978	25459.08	3.8010	3.8010	1.0700	25.18	0.34	0.750			
0.4010	25665.48	3.7980	3.7977	1.0808	25.17	0.33	0.750			
0.4044	25879.40	3.7950	3.7951	1.0697	25.16	0.32	0.750			
0.4075	26081.18	3.7920	3.7921	1.0904	25.15	0.31	0.750			
0.4108	26290.41	3.7890	3.7892	1.1132	25.14	0.30	0.750			
0.4141	26504.96	3.7860	3.7850	1.1351	25.13	0.29	0.750			
0.4175	26721.17	3.7830	3.7832	1.1547	25.12	0.28	0.750			
0.4210	26946.61	3.7800	3.7801	1.1774	25.11	0.27	0.750			
0.4246	27176.73	3.7770	3.7771	1.2027	25.10	0.26	0.750			
0.4284	27419.06	3.7740	3.7739	1.2318	25.08	0.24	0.750			
0.4319	27644.70	3.7710	3.7711	1.2309	25.07	0.23	0.750			
0.4357	27884.21	3.7680	3.7680	1.2533	25.06	0.22	0.750			
0.4395	28125.45	3.7650	3.7648	1.2749	25.05	0.21	0.750			
0.4432	28365.91	3.7620	3.7622	1.2907	25.04	0.20	0.750			
0.4471	28614.05	3.7590	3.7591	1.3310	25.03	0.19	0.750			
0.4511	28872.21	3.7560	3.7555	1.3585	25.02	0.18	0.750			
0.4552	29135.86	3.7530	3.7532	1.3736	25.01	0.17	0.750			
0.4595	29405.84	3.7500	3.7502	1.4120	25.00	0.16	0.750			
0.4639	29689.86	3.7470	3.7469	1.4360	24.98	0.14	0.750			
0.4684	29975.29	3.7440	3.7431	1.4798	24.97	0.13	0.750			
0.4727	30250.24	3.7410	3.7413	1.4776	24.95	0.11	0.750			
0.4771	30536.78	3.7380	3.7379	1.5274	24.94	0.10	0.750			
0.4818	30836.99	3.7350	3.7348	1.5812	24.92	0.08	0.750			
0.4866	31141.23	3.7320	3.7321	1.6245	24.91	0.07	0.750			
0.4917	31470.77	3.7290	3.7294	1.6725	24.89	0.05	0.750			
0.4969	31800.00	3.7260	3.7264	1.7376	24.88	0.04	0.750			
0.5023	32147.40	3.7230	3.7234	1.7952	24.87	0.03	0.750			
0.5077	32493.43	3.7200	3.7203	1.8302	24.86	0.02	0.750			
0.5132	32842.28	3.7170	3.7171	1.8266	24.84	0.00	0.750			
0.5188	33203.89	3.7140	3.7136	1.8917	24.83	-0.01	0.750			
0.5245	33569.10	3.7110	3.7111	2.0051	24.81	-0.03	0.750			
0.5305	33949.54	3.7080	3.7082	2.1036	24.79	-0.05	0.750			
0.5371	34371.41	3.7050	3.7047	2.1293	24.78	-0.06	0.750			
0.5437	34796.47	3.7020	3.7022	2.2720	24.77	-0.07	0.750			
0.5502	35209.88	3.6990	3.6992	2.2173	24.74	-0.10	0.750			
0.5570	35646.13	3.6960	3.6963	2.2671	24.73	-0.11	0.750			
0.5641	36100.13	3.6930	3.6923	2.3986	24.72	-0.12	0.750			
0.5711	36550.37	3.6900	3.6905	2.3983	24.71	-0.13	0.750			
0.5782	37003.42	3.6870	3.6872	2.5142	24.70	-0.14	0.750			
0.5856	37481.14	3.6840	3.6845	2.5508	24.70	-0.14	0.750			
0.5930	37950.10	3.6810	3.6808	2.5527	24.69	-0.15	0.750			
0.6012	38474.35	3.6780	3.6779	2.7679	24.68	-0.16	0.750			
0.6095	39010.86	3.6750	3.6752	2.8207	24.67	-0.17	0.750			
0.6177	39534.85	3.6720	3.6719	2.9284	24.67	-0.17	0.750			
0.6264	40087.68	3.6690	3.6688	2.8877	24.67	-0.17	0.750			
0.6349	40633.94	3.6660	3.6654	2.9460	24.68	-0.16	0.750			
0.6431	41159.74	3.6630	3.6628	2.5816	24.68	-0.16	0.750			
0.6509	41657.64	3.6600	3.6602	2.5577	24.68	-0.16	0.750			
0.6580	42112.83	3.6570	3.6575	2.3013	24.69	-0.15	0.750			
0.6644	42520.91	3.6540	3.6539	2.0814	24.70	-0.14	0.750			
0.6701	42884.35	3.6510	3.6511	1.8865	24.71	-0.13	0.750			
0.6755	43230.57	3.6480	3.6486	1.7271	24.72	-0.12	0.750			
0.6803	43538.83	3.6450	3.6450	1.5502	24.73	-0.11	0.750			
0.6847	43822.69	3.6420	3.6423	1.4089	24.73	-0.11	0.750			
0.6889	44087.79	3.6390	3.6389	1.2832	24.74	-0.10	0.750			
0.6926	44325.55	3.6360	3.6359	1.1704	24.75	-0.09	0.750			
0.6955	44510.03	3.6330	3.6330	1.0254	24.75	-0.09	0.750			
0.6983	44690.81	3.6300	3.6301	0.9695	24.75	-0.09	0.750			
0.7010	44865.96	3.6270	3.6270	0.9361	24.76	-0.08	0.750			
0.7038	45045.79	3.6240	3.6241	0.9016	24.77	-0.07	0.750			
0.7065	45213.62	3.6210	3.6213	0.9030	24.78	-0.06	0.750			
0.7092	45388.25	3.6180	3.6183	0.8941	24.78	-0.06	0.750			
0.7120	45569.20	3.6150	3.6148	0.8866	24.79	-0.05	0.750			
0.7146	45736.98	3.6120	3.6125	0.8239	24.80	-0.04	0.750			
0.7171	45891.91	3.6090	3.6093	0.7623	24.81	-0.03	0.750			
0.7194	46038.89	3.6060	3.6062	0.6811	24.82	-0.02	0.750			
0.7214	46171.05	3.6030	3.6028	0.5989	24.82	-0.02	0.750			
0.7228	46259.84	3.6000	3.6003	0.5020	24.83	-0.01	0.750			
0.7242	46346.92	3.5970	3.5973	0.4416	24.83	-0.01	0.750			
0.7253	46420.97	3.5940	3.5930	0.3838	24.84	-0.00	0.750			
0.7264	46492.73	3.5910	3.5915	0.3287	24.84	-0.00	0.750			
0.7274	46552.71	3.5880	3.5885	0.2852	24.84	0.00	0.750			
0.7283	46609.88	3.5850	3.5850	0.2386	24.85	0.01	0.750			
0.7290	46653.12	3.5820	3.5815	0.1645	24.85	0.01	0.750			
0.7293	46672.09	3.5790	3.5799	0.1044	24.85	0.01	0.750			
0.7295	46686.46	3.5760	3.5772	0.0280	24.85	0.01	0.750			
