Ah_balance (normalized)	Ah_balance (mAh)	Voltage - fit (V)	Voltage -  interpolate (V)	dQ/dV (1/V)	Temperature (°C)	Temperature - diff (°C)	Current (C)	R_DC 0ms (mOhm)	R_DC 50ms (mOhm)	R_DC 50 ms PEC (mOhm)
0.0476	3045.15	4.1980	4.1980	0.7538	25.58	0.56	0.750			
0.0499	3192.19	4.1950	4.1950	0.7560	25.59	0.57	0.750			
0.0521	3332.25	4.1920	4.1920	0.7403	25.59	0.57	0.750			
0.0542	3471.77	4.1890	4.1891	0.7450	25.59	0.57	0.750			
0.0565	3614.21	4.1860	4.1863	0.7490	25.59	0.57	0.750			
0.0587	3759.53	4.1830	4.1832	0.7496	25.59	0.57	0.750			
0.0610	3904.27	4.1800	4.1801	0.7536	25.59	0.57	0.750			
0.0633	4052.45	4.1770	4.1771	0.7671	25.60	0.58	0.750			
0.0655	4195.15	4.1740	4.1741	0.7569	25.60	0.58	0.750			
0.0678	4341.65	4.1710	4.1709	0.7526	25.60	0.58	0.750			
0.0701	4485.62	4.1680	4.1680	0.7572	25.60	0.58	0.750			
0.0724	4632.04	4.1650	4.1651	0.7607	25.60	0.58	0.750			
0.0747	4779.28	4.1620	4.1620	0.7473	25.61	0.59	0.750			
0.0768	4917.97	4.1590	4.1591	0.7551	25.61	0.59	0.750			
0.0791	5062.39	4.1560	4.1562	0.7628	25.61	0.59	0.750			
0.0814	5209.10	4.1530	4.1532	0.7673	25.61	0.59	0.750			
0.0837	5357.97	4.1500	4.1502	0.7748	25.61	0.59	0.750			
0.0861	5508.85	4.1470	4.1471	0.7756	25.61	0.59	0.750			
0.0884	5660.39	4.1440	4.1441	0.7812	25.61	0.59	0.750			
0.0908	5808.01	4.1410	4.1410	0.7717	25.61	0.59	0.750			
0.0931	5956.39	4.1380	4.1381	0.7717	25.61	0.59	0.750			
0.0954	6105.41	4.1350	4.1351	0.7744	25.61	0.59	0.750			
0.0977	6255.13	4.1320	4.1320	0.7699	25.62	0.60	0.750			
0.1000	6402.56	4.1290	4.1291	0.7765	25.62	0.60	0.750			
0.1023	6549.61	4.1260	4.1260	0.7710	25.63	0.61	0.750			
0.1047	6698.74	4.1230	4.1227	0.7735	25.63	0.61	0.750			
0.1070	6847.30	4.1200	4.1201	0.7788	25.63	0.61	0.750			
0.1094	7000.54	4.1170	4.1171	0.7740	25.63	0.61	0.750			
0.1117	7148.52	4.1140	4.1140	0.7806	25.63	0.61	0.750			
0.1140	7296.72	4.1110	4.1110	0.7749	25.63	0.61	0.750			
0.1163	7444.92	4.1080	4.1082	0.7802	25.63	0.61	0.750			
0.1187	7594.98	4.1050	4.1051	0.7887	25.63	0.61	0.750			
0.1211	7750.70	4.1020	4.1020	0.7835	25.63	0.61	0.750			
0.1235	7901.65	4.0990	4.0990	0.7860	25.63	0.61	0.750			
0.1258	8051.90	4.0960	4.0960	0.7962	25.63	0.61	0.750			
0.1282	8203.27	4.0930	4.0932	0.7913	25.63	0.61	0.750			
0.1306	8356.00	4.0900	4.0896	0.7931	25.63	0.61	0.750			
0.1329	8507.56	4.0870	4.0871	0.7967	25.63	0.61	0.750			
0.1354	8662.42	4.0840	4.0842	0.7979	25.63	0.61	0.750			
0.1378	8817.58	4.0810	4.0810	0.8032	25.64	0.62	0.750			
0.1402	8969.93	4.0780	4.0780	0.7990	25.64	0.62	0.750			
0.1425	9123.02	4.0750	4.0748	0.8021	25.64	0.62	0.750			
0.1450	9277.73	4.0720	4.0720	0.8100	25.64	0.62	0.750			
0.1475	9437.16	4.0690	4.0689	0.7928	25.64	0.62	0.750			
0.1498	9588.26	4.0660	4.0660	0.8028	25.65	0.63	0.750			
0.1522	9741.88	4.0630	4.0631	0.8089	25.65	0.63	0.750			
0.1546	9895.14	4.0600	4.0598	0.8098	25.65	0.63	0.750			
0.1570	10050.76	4.0570	4.0572	0.8176	25.65	0.63	0.750			
0.1595	10211.01	4.0540	4.0540	0.8104	25.65	0.63	0.750			
0.1620	10365.90	4.0510	4.0511	0.8241	25.66	0.64	0.750			
0.1645	10527.94	4.0480	4.0480	0.8393	25.66	0.64	0.750			
0.1669	10684.63	4.0450	4.0448	0.8354	25.66	0.64	0.750			
0.1695	10846.90	4.0420	4.0421	0.8422	25.66	0.64	0.750			
0.1721	11012.39	4.0390	4.0390	0.8340	25.66	0.64	0.750			
0.1746	11172.42	4.0360	4.0361	0.8388	25.67	0.65	0.750			
0.1771	11334.82	4.0330	4.0332	0.8460	25.67	0.65	0.750			
0.1795	11490.51	4.0300	4.0298	0.8470	25.67	0.65	0.750			
0.1821	11654.65	4.0270	4.0271	0.8548	25.67	0.65	0.750			
0.1847	11822.44	4.0240	4.0238	0.8457	25.67	0.65	0.750			
0.1872	11982.54	4.0210	4.0212	0.8581	25.67	0.65	0.750			
0.1898	12149.32	4.0180	4.0182	0.8595	25.67	0.65	0.750			
0.1924	12315.65	4.0150	4.0142	0.8618	25.67	0.65	0.750			
0.1950	12481.28	4.0120	4.0121	0.8625	25.67	0.65	0.750			
0.1976	12644.35	4.0090	4.0093	0.8571	25.67	0.65	0.750			
0.2002	12811.04	4.0060	4.0060	0.8662	25.67	0.65	0.750			
0.2029	12983.06	4.0030	4.0029	0.8766	25.67	0.65	0.750			
0.2054	13142.71	4.0000	4.0000	0.8650	25.67	0.65	0.750			
0.2080	13310.90	3.9970	3.9970	0.8684	25.67	0.65	0.750			
0.2106	13478.76	3.9940	3.9941	0.8730	25.68	0.66	0.750			
0.2132	13647.93	3.9910	3.9910	0.8751	25.68	0.66	0.750			
0.2159	13815.30	3.9880	3.9880	0.8698	25.69	0.67	0.750			
0.2185	13981.57	3.9850	3.9850	0.8729	25.69	0.67	0.750			
0.2211	14148.91	3.9820	3.9820	0.8752	25.69	0.67	0.750			
0.2237	14314.17	3.9790	3.9790	0.8707	25.69	0.67	0.750			
0.2263	14481.28	3.9760	3.9761	0.8771	25.69	0.67	0.750			
0.2289	14649.39	3.9730	3.9731	0.8800	25.69	0.67	0.750			
0.2316	14819.73	3.9700	3.9701	0.8870	25.69	0.67	0.750			
0.2342	14991.20	3.9670	3.9672	0.8853	25.69	0.67	0.750			
0.2369	15161.75	3.9640	3.9641	0.8897	25.69	0.67	0.750			
0.2396	15335.92	3.9610	3.9610	0.8964	25.69	0.67	0.750			
0.2422	15503.72	3.9580	3.9576	0.8866	25.69	0.67	0.750			
0.2449	15675.55	3.9550	3.9550	0.8861	25.69	0.67	0.750			
0.2476	15845.42	3.9520	3.9521	0.8898	25.69	0.67	0.750			
0.2503	16017.93	3.9490	3.9490	0.8931	25.70	0.68	0.750			
0.2530	16189.81	3.9460	3.9459	0.8949	25.70	0.68	0.750			
0.2556	16359.15	3.9430	3.9430	0.8903	25.70	0.68	0.750			
0.2583	16532.55	3.9400	3.9400	0.8850	25.70	0.68	0.750			
0.2610	16701.87	3.9370	3.9371	0.8885	25.70	0.68	0.750			
0.2636	16871.95	3.9340	3.9340	0.8902	25.69	0.67	0.750			
0.2663	17041.26	3.9310	3.9311	0.8895	25.69	0.67	0.750			
0.2689	17212.33	3.9280	3.9280	0.8923	25.69	0.67	0.750			
0.2716	17384.05	3.9250	3.9250	0.8902	25.69	0.67	0.750			
0.2743	17556.15	3.9220	3.9221	0.8929	25.69	0.67	0.750			
0.2770	17728.14	3.9190	3.9190	0.8943	25.69	0.67	0.750			
0.2797	17898.85	3.9160	3.9157	0.8909	25.69	0.67	0.750			
0.2824	18071.31	3.9130	3.9130	0.8864	25.69	0.67	0.750			
0.2850	18240.14	3.9100	3.9100	0.8940	25.68	0.66	0.750			
0.2877	18412.21	3.9070	3.9070	0.9012	25.68	0.66	0.750			
0.2904	18587.09	3.9040	3.9040	0.9026	25.67	0.65	0.750			
0.2931	18759.64	3.9010	3.9010	0.9001	25.67	0.65	0.750			
0.2958	18932.74	3.8980	3.8981	0.8977	25.66	0.64	0.750			
0.2985	19103.53	3.8950	3.8950	0.8896	25.66	0.64	0.750			
0.3011	19272.56	3.8920	3.8921	0.8896	25.66	0.64	0.750			
0.3038	19440.50	3.8890	3.8890	0.8884	25.65	0.63	0.750			
0.3064	19611.28	3.8860	3.8862	0.8923	25.65	0.63	0.750			
0.3091	19784.55	3.8830	3.8830	0.8946	25.64	0.62	0.750			
0.3118	19958.06	3.8800	3.8801	0.9016	25.63	0.61	0.750			
0.3146	20133.38	3.8770	3.8771	0.9076	25.63	0.61	0.750			
0.3173	20304.18	3.8740	3.8735	0.8995	25.62	0.60	0.750			
0.3200	20479.85	3.8710	3.8710	0.8959	25.61	0.59	0.750			
0.3227	20651.03	3.8680	3.8680	0.8995	25.61	0.59	0.750			
0.3254	20825.52	3.8650	3.8651	0.9033	25.60	0.58	0.750			
0.3281	20997.61	3.8620	3.8621	0.9087	25.59	0.57	0.750			
0.3308	21170.13	3.8590	3.8590	0.9052	25.59	0.57	0.750			
0.3335	21344.73	3.8560	3.8560	0.9090	25.58	0.56	0.750			
0.3362	21516.06	3.8530	3.8532	0.9036	25.58	0.56	0.750			
0.3389	21689.02	3.8500	3.8502	0.9103	25.57	0.55	0.750			
0.3416	21860.04	3.8470	3.8472	0.9219	25.56	0.54	0.750			
0.3444	22044.28	3.8440	3.8441	0.9251	25.56	0.54	0.750			
0.3472	22221.66	3.8410	3.8412	0.9396	25.55	0.53	0.750			
0.3501	22407.33	3.8380	3.8382	0.9540	25.54	0.52	0.750	0.335	0.447	
0.3530	22594.38	3.8350	3.8352	0.9659	25.53	0.51	0.750			
0.3558	22773.94	3.8320	3.8319	0.9556	25.53	0.51	0.750			
0.3587	22957.94	3.8290	3.8291	0.9548	25.52	0.50	0.750			
0.3616	23140.65	3.8260	3.8260	0.9622	25.50	0.48	0.750			
0.3645	23327.52	3.8230	3.8231	0.9773	25.49	0.47	0.750			
0.3674	23514.81	3.8200	3.8197	0.9768	25.48	0.46	0.750			
0.3704	23704.17	3.8170	3.8170	0.9891	25.47	0.45	0.750			
0.3733	23891.31	3.8140	3.8140	0.9825	25.46	0.44	0.750			
0.3762	24078.60	3.8110	3.8112	0.9960	25.45	0.43	0.750			
0.3792	24269.32	3.8080	3.8082	1.0041	25.43	0.41	0.750			
0.3823	24465.50	3.8050	3.8051	1.0046	25.42	0.40	0.750			
0.3853	24657.72	3.8020	3.8023	1.0272	25.41	0.39	0.750			
0.3884	24859.02	3.7990	3.7991	1.0497	25.40	0.38	0.750			
0.3917	25068.75	3.7960	3.7957	1.0810	25.39	0.37	0.750			
0.3948	25267.20	3.7930	3.7932	1.0715	25.38	0.36	0.750			
0.3980	25475.05	3.7900	3.7901	1.0880	25.38	0.36	0.750			
0.4014	25687.48	3.7870	3.7870	1.1068	25.37	0.35	0.750			
0.4048	25904.86	3.7840	3.7837	1.1263	25.36	0.34	0.750			
0.4081	26117.78	3.7810	3.7811	1.1157	25.35	0.33	0.750			
0.4114	26329.75	3.7780	3.7781	1.1359	25.34	0.32	0.750			
0.4148	26545.27	3.7750	3.7752	1.1662	25.33	0.31	0.750			
0.4184	26776.50	3.7720	3.7718	1.1698	25.32	0.30	0.750			
0.4219	27000.52	3.7690	3.7692	1.2133	25.31	0.29	0.750			
0.4256	27235.77	3.7660	3.7663	1.2476	25.29	0.27	0.750			
0.4294	27483.97	3.7630	3.7626	1.2757	25.28	0.26	0.750			
0.4334	27735.81	3.7600	3.7601	1.3210	25.27	0.25	0.750			
0.4372	27980.79	3.7570	3.7571	1.3314	25.26	0.24	0.750			
0.4414	28248.26	3.7540	3.7538	1.3329	25.24	0.22	0.750			
0.4455	28512.03	3.7510	3.7511	1.3609	25.23	0.21	0.750			
0.4494	28758.82	3.7480	3.7483	1.3696	25.22	0.20	0.750			
0.4535	29021.15	3.7450	3.7454	1.4042	25.20	0.18	0.750			
0.4574	29275.70	3.7420	3.7426	1.4878	25.19	0.17	0.750			
0.4620	29566.88	3.7390	3.7392	1.5622	25.18	0.16	0.750			
0.4668	29877.15	3.7360	3.7362	1.6803	25.17	0.15	0.750			
0.4721	30217.01	3.7330	3.7328	1.7519	25.15	0.13	0.750			
0.4779	30585.20	3.7300	3.7305	1.7791	25.13	0.11	0.750			
0.4831	30920.44	3.7270	3.7270	1.7779	25.11	0.09	0.750			
0.4886	31269.03	3.7240	3.7239	1.7718	25.09	0.07	0.750			
0.4936	31590.43	3.7210	3.7210	1.7801	25.08	0.06	0.750			
0.4991	31942.48	3.7180	3.7182	1.8509	25.06	0.04	0.750			
0.5048	32304.70	3.7150	3.7151	1.9107	25.04	0.02	0.750			
0.5106	32678.96	3.7120	3.7122	1.9628	25.03	0.01	0.750			
0.5166	33063.55	3.7090	3.7089	2.0254	25.02	0.00	0.750			
0.5228	33460.97	3.7060	3.7059	2.0709	25.00	-0.02	0.750			
0.5291	33863.05	3.7030	3.7030	2.1221	24.98	-0.04	0.750			
0.5356	34277.62	3.7000	3.7001	2.1917	24.97	-0.05	0.750			
0.5424	34711.20	3.6970	3.6969	2.2448	24.96	-0.06	0.750			
0.5492	35150.23	3.6940	3.6939	2.2953	24.94	-0.08	0.750			
0.5560	35584.58	3.6910	3.6912	2.3693	24.93	-0.09	0.750			
0.5631	36041.55	3.6880	3.6881	2.4404	24.92	-0.10	0.750			
0.5708	36528.37	3.6850	3.6850	2.5067	24.91	-0.11	0.750			
0.5785	37023.60	3.6820	3.6819	2.5433	24.90	-0.12	0.750			
0.5862	37519.98	3.6790	3.6789	2.5382	24.89	-0.13	0.750			
0.5937	37996.52	3.6760	3.6760	2.4748	24.88	-0.14	0.750			
0.6011	38473.14	3.6730	3.6731	2.3488	24.88	-0.14	0.750			
0.6080	38914.66	3.6700	3.6699	2.2578	24.88	-0.14	0.750			
0.6146	39334.89	3.6670	3.6668	2.1430	24.90	-0.12	0.750			
0.6209	39735.95	3.6640	3.6643	1.9902	24.90	-0.12	0.750			
0.6266	40105.39	3.6610	3.6614	1.8626	24.90	-0.12	0.750			
0.6320	40446.09	3.6580	3.6583	1.7257	24.90	-0.12	0.750			
0.6370	40767.94	3.6550	3.6550	1.6068	24.91	-0.11	0.750			
0.6416	41061.98	3.6520	3.6518	1.4827	24.92	-0.10	0.750			
0.6458	41328.89	3.6490	3.6492	1.3760	24.93	-0.09	0.750			
0.6498	41587.53	3.6460	3.6459	1.2690	24.93	-0.09	0.750			
0.6533	41810.78	3.6430	3.6432	1.1710	24.94	-0.08	0.750			
0.6566	42024.14	3.6400	3.6402	1.1099	24.94	-0.08	0.750			
0.6597	42221.42	3.6370	3.6374	1.0599	24.95	-0.07	0.750			
0.6628	42420.88	3.6340	3.6344	1.0287	24.95	-0.07	0.750			
0.6659	42615.22	3.6310	3.6313	1.0005	24.96	-0.06	0.750			
0.6689	42806.58	3.6280	3.6282	0.9676	24.96	-0.06	0.750			
0.6718	42995.90	3.6250	3.6250	0.9222	24.97	-0.05	0.750			
0.6745	43166.82	3.6220	3.6221	0.8725	24.98	-0.04	0.750			
0.6771	43332.76	3.6190	3.6190	0.8370	24.98	-0.04	0.750			
0.6795	43490.09	3.6160	3.6157	0.7934	24.99	-0.03	0.750			
0.6819	43638.73	3.6130	3.6132	0.7481	24.99	-0.03	0.750			
0.6840	43778.95	3.6100	3.6101	0.7022	25.00	-0.02	0.750			
0.6861	43910.01	3.6070	3.6070	0.6510	25.00	-0.02	0.750			
0.6880	44031.20	3.6040	3.6040	0.5868	25.01	-0.01	0.750			
0.6897	44138.68	3.6010	3.6010	0.5341	25.01	-0.01	0.750			
0.6912	44235.37	3.5980	3.5983	0.4827	25.02	-0.00	0.750			
0.6925	44322.40	3.5950	3.5943	0.4314	25.02	0.00	0.750			
0.6937	44399.26	3.5920	3.5920	0.3811	25.02	0.00	0.750			
0.6948	44468.25	3.5890	3.5890	0.3319	25.03	0.01	0.750			
0.6958	44528.42	3.5860	3.5860	0.2881	25.03	0.01	0.750			
0.6966	44581.03	3.5830	3.5828	0.2402	25.03	0.01	0.750			
0.6972	44620.55	3.5800	3.5801	0.1871	25.03	0.01	0.750			
0.6977	44651.85	3.5770	3.5773	0.1353	25.03	0.01	0.750			
0.6980	44672.85	3.5740	3.5745	0.0829	25.03	0.01	0.750			
