Ah_balance (normalized)	Ah_balance (mAh)	Voltage - fit (V)	Voltage -  interpolate (V)	dQ/dV (1/V)	Temperature (°C)	Temperature - diff (°C)	Current (C)	R_DC 0ms (mOhm)	R_DC 50ms (mOhm)	R_DC 50 ms PEC (mOhm)
0.0001	7.34	4.1620	4.1620	-0.1000	25.14	0.00	-0.750			
0.0005	29.64	4.1590	4.1586	-0.1356	25.14	0.00	-0.750			
0.0009	59.25	4.1560	4.1559	-0.1760	25.14	0.00	-0.750			
0.0015	97.33	4.1530	4.1533	-0.2168	25.14	-0.00	-0.750			
0.0022	142.57	4.1500	4.1499	-0.2583	25.14	-0.00	-0.750			
0.0031	196.28	4.1470	4.1470	-0.2980	25.13	-0.01	-0.750			
0.0040	258.03	4.1440	4.1440	-0.3363	25.13	-0.01	-0.750			
0.0051	326.00	4.1410	4.1410	-0.3705	25.13	-0.01	-0.750			
0.0063	401.55	4.1380	4.1381	-0.4070	25.12	-0.02	-0.750			
0.0075	483.05	4.1350	4.1351	-0.4397	25.12	-0.02	-0.750			
0.0089	572.72	4.1320	4.1316	-0.4731	25.12	-0.02	-0.750			
0.0104	666.95	4.1290	4.1291	-0.5026	25.11	-0.03	-0.750			
0.0120	767.53	4.1260	4.1259	-0.5277	25.11	-0.03	-0.750			
0.0136	873.29	4.1230	4.1235	-0.5519	25.10	-0.04	-0.750			
0.0153	982.21	4.1200	4.1197	-0.5670	25.10	-0.04	-0.750			
0.0170	1090.35	4.1170	4.1171	-0.5815	25.10	-0.04	-0.750			
0.0188	1203.21	4.1140	4.1140	-0.5952	25.09	-0.05	-0.750			
0.0206	1317.24	4.1110	4.1111	-0.6139	25.09	-0.05	-0.750			
0.0225	1441.37	4.1080	4.1078	-0.6334	25.09	-0.05	-0.750			
0.0244	1563.93	4.1050	4.1051	-0.6467	25.08	-0.06	-0.750			
0.0264	1689.94	4.1020	4.1024	-0.6564	25.08	-0.06	-0.750			
0.0284	1818.74	4.0990	4.0989	-0.6676	25.08	-0.06	-0.750			
0.0304	1945.90	4.0960	4.0960	-0.6774	25.08	-0.06	-0.750			
0.0324	2075.83	4.0930	4.0930	-0.6824	25.08	-0.06	-0.750			
0.0345	2208.75	4.0900	4.0900	-0.6931	25.08	-0.06	-0.750			
0.0366	2343.15	4.0870	4.0869	-0.6962	25.08	-0.06	-0.750			
0.0387	2476.88	4.0840	4.0841	-0.7019	25.08	-0.06	-0.750			
0.0408	2613.09	4.0810	4.0810	-0.7058	25.08	-0.06	-0.750			
0.0429	2748.65	4.0780	4.0780	-0.7084	25.08	-0.06	-0.750			
0.0451	2887.15	4.0750	4.0749	-0.7190	25.08	-0.06	-0.750			
0.0473	3026.82	4.0720	4.0720	-0.7271	25.08	-0.06	-0.750			
0.0495	3168.13	4.0690	4.0688	-0.7222	25.08	-0.06	-0.750			
0.0517	3307.73	4.0660	4.0663	-0.7252	25.08	-0.06	-0.750			
0.0538	3445.81	4.0630	4.0629	-0.7205	25.08	-0.06	-0.750			
0.0560	3581.86	4.0600	4.0600	-0.7236	25.08	-0.06	-0.750			
0.0581	3716.17	4.0570	4.0569	-0.7155	25.08	-0.06	-0.750			
0.0603	3861.81	4.0540	4.0541	-0.7357	25.08	-0.06	-0.750			
0.0625	4001.14	4.0510	4.0508	-0.7351	25.08	-0.06	-0.750			
0.0648	4144.97	4.0480	4.0482	-0.7362	25.08	-0.06	-0.750			
0.0670	4284.86	4.0450	4.0449	-0.7354	25.08	-0.06	-0.750			
0.0692	4425.79	4.0420	4.0420	-0.7459	25.08	-0.06	-0.750			
0.0714	4568.65	4.0390	4.0391	-0.7454	25.08	-0.06	-0.750			
0.0737	4714.12	4.0360	4.0359	-0.7529	25.08	-0.06	-0.750			
0.0760	4861.69	4.0330	4.0330	-0.7566	25.08	-0.06	-0.750			
0.0782	5006.94	4.0300	4.0299	-0.7533	25.08	-0.06	-0.750			
0.0805	5152.14	4.0270	4.0270	-0.7556	25.08	-0.06	-0.750			
0.0828	5296.02	4.0240	4.0240	-0.7571	25.08	-0.06	-0.750			
0.0850	5439.86	4.0210	4.0209	-0.7562	25.08	-0.06	-0.750			
0.0873	5588.76	4.0180	4.0179	-0.7652	25.08	-0.06	-0.750			
0.0896	5735.30	4.0150	4.0149	-0.7664	25.08	-0.06	-0.750			
0.0920	5885.12	4.0120	4.0118	-0.7682	25.08	-0.06	-0.750			
0.0943	6032.96	4.0090	4.0090	-0.7693	25.09	-0.05	-0.750			
0.0964	6171.44	4.0060	4.0061	-0.7819	25.09	-0.05	-0.750			
0.0989	6327.51	4.0030	4.0030	-0.8156	25.10	-0.04	-0.750			
0.1014	6487.09	4.0000	4.0002	-0.8236	25.10	-0.04	-0.750			
0.1039	6650.85	3.9970	3.9969	-0.8354	25.10	-0.04	-0.750			
0.1065	6815.46	3.9940	3.9942	-0.8398	25.10	-0.04	-0.750			
0.1091	6981.71	3.9910	3.9909	-0.8324	25.11	-0.03	-0.750			
0.1116	7140.56	3.9880	3.9880	-0.8178	25.11	-0.03	-0.750			
0.1139	7289.15	3.9850	3.9855	-0.7878	25.11	-0.03	-0.750			
0.1163	7440.04	3.9820	3.9819	-0.7807	25.11	-0.03	-0.750			
0.1185	7587.07	3.9790	3.9790	-0.7842	25.11	-0.03	-0.750			
0.1209	7735.81	3.9760	3.9760	-0.7837	25.12	-0.02	-0.750			
0.1232	7887.50	3.9730	3.9728	-0.7849	25.12	-0.02	-0.750			
0.1256	8037.87	3.9700	3.9700	-0.7838	25.12	-0.02	-0.750			
0.1279	8187.41	3.9670	3.9671	-0.7878	25.12	-0.02	-0.750			
0.1303	8338.64	3.9640	3.9637	-0.7950	25.13	-0.01	-0.750			
0.1327	8491.34	3.9610	3.9611	-0.7914	25.13	-0.01	-0.750			
0.1350	8641.75	3.9580	3.9580	-0.7939	25.13	-0.01	-0.750			
0.1375	8798.72	3.9550	3.9551	-0.8019	25.14	-0.00	-0.750			
0.1399	8954.20	3.9520	3.9519	-0.8022	25.14	0.00	-0.750			
0.1423	9104.19	3.9490	3.9490	-0.8064	25.15	0.01	-0.750			
0.1447	9260.01	3.9460	3.9460	-0.8057	25.15	0.01	-0.750			
0.1471	9415.29	3.9430	3.9429	-0.8057	25.15	0.01	-0.750			
0.1496	9571.57	3.9400	3.9399	-0.8078	25.16	0.02	-0.750			
0.1520	9725.71	3.9370	3.9373	-0.8065	25.16	0.02	-0.750			
0.1544	9880.74	3.9340	3.9340	-0.8082	25.16	0.02	-0.750			
0.1569	10039.09	3.9310	3.9308	-0.8140	25.16	0.02	-0.750			
0.1593	10194.35	3.9280	3.9279	-0.8065	25.17	0.03	-0.750			
0.1618	10353.18	3.9250	3.9249	-0.8084	25.17	0.03	-0.750			
0.1642	10507.70	3.9220	3.9226	-0.8145	25.17	0.03	-0.750			
0.1666	10662.99	3.9190	3.9187	-0.8100	25.17	0.03	-0.750			
0.1690	10815.64	3.9160	3.9158	-0.8138	25.17	0.03	-0.750			
0.1714	10967.61	3.9130	3.9130	-0.8078	25.18	0.04	-0.750			
0.1739	11131.08	3.9100	3.9100	-0.8293	25.18	0.04	-0.750			
0.1765	11293.24	3.9070	3.9074	-0.8276	25.18	0.04	-0.750			
0.1789	11452.00	3.9040	3.9040	-0.8213	25.18	0.04	-0.750			
0.1814	11607.32	3.9010	3.9010	-0.8208	25.18	0.04	-0.750			
0.1838	11764.58	3.8980	3.8980	-0.8185	25.19	0.05	-0.750			
0.1863	11920.97	3.8950	3.8948	-0.8198	25.19	0.05	-0.750			
0.1887	12078.36	3.8920	3.8922	-0.8174	25.19	0.05	-0.750			
0.1912	12236.46	3.8890	3.8889	-0.8152	25.19	0.05	-0.750			
0.1936	12392.18	3.8860	3.8861	-0.8246	25.19	0.05	-0.750			
0.1961	12552.70	3.8830	3.8829	-0.8147	25.20	0.06	-0.750			
0.1986	12707.50	3.8800	3.8798	-0.8098	25.20	0.06	-0.750			
0.2010	12863.84	3.8770	3.8774	-0.8120	25.20	0.06	-0.750			
0.2034	13019.15	3.8740	3.8738	-0.8063	25.20	0.06	-0.750			
0.2058	13174.18	3.8710	3.8709	-0.8084	25.21	0.07	-0.750			
0.2083	13329.04	3.8680	3.8680	-0.8019	25.21	0.07	-0.750			
0.2107	13482.27	3.8650	3.8651	-0.8071	25.21	0.07	-0.750			
0.2131	13639.13	3.8620	3.8619	-0.8052	25.22	0.08	-0.750			
0.2155	13791.51	3.8590	3.8589	-0.7975	25.22	0.08	-0.750			
0.2179	13943.32	3.8560	3.8560	-0.7978	25.23	0.09	-0.750			
0.2203	14096.21	3.8530	3.8530	-0.7978	25.24	0.10	-0.750			
0.2226	14248.69	3.8500	3.8500	-0.7943	25.24	0.10	-0.750			
0.2251	14404.03	3.8470	3.8468	-0.7924	25.25	0.11	-0.750			
0.2274	14554.38	3.8440	3.8441	-0.7840	25.25	0.11	-0.750			
0.2297	14703.42	3.8410	3.8411	-0.7873	25.25	0.11	-0.750			
0.2321	14854.96	3.8380	3.8379	-0.7800	25.25	0.11	-0.750			
0.2344	15004.41	3.8350	3.8350	-0.7710	25.25	0.11	-0.750			
0.2368	15153.07	3.8320	3.8319	-0.7666	25.25	0.11	-0.750			
0.2391	15300.22	3.8290	3.8297	-0.7723	25.25	0.11	-0.750			
0.2414	15448.84	3.8260	3.8259	-0.7693	25.25	0.11	-0.750			
0.2437	15594.71	3.8230	3.8228	-0.7634	25.26	0.12	-0.750			
0.2459	15740.43	3.8200	3.8202	-0.7595	25.26	0.12	-0.750			
0.2482	15886.83	3.8170	3.8170	-0.7630	25.26	0.12	-0.750			
0.2505	16033.95	3.8140	3.8140	-0.7598	25.27	0.13	-0.750			
0.2528	16177.78	3.8110	3.8109	-0.7572	25.27	0.13	-0.750			
0.2550	16320.34	3.8080	3.8081	-0.7609	25.27	0.13	-0.750			
0.2573	16468.37	3.8050	3.8049	-0.7667	25.27	0.13	-0.750			
0.2596	16616.12	3.8020	3.8020	-0.7670	25.28	0.14	-0.750			
0.2619	16764.51	3.7990	3.7990	-0.7664	25.28	0.14	-0.750			
0.2643	16912.08	3.7960	3.7964	-0.7671	25.28	0.14	-0.750			
0.2666	17060.26	3.7930	3.7927	-0.7662	25.28	0.14	-0.750			
0.2688	17204.90	3.7900	3.7901	-0.7712	25.28	0.14	-0.750			
0.2712	17353.75	3.7870	3.7870	-0.7747	25.29	0.15	-0.750			
0.2735	17505.18	3.7840	3.7838	-0.7745	25.29	0.15	-0.750			
0.2758	17654.35	3.7810	3.7809	-0.7724	25.29	0.15	-0.750			
0.2782	17801.71	3.7780	3.7780	-0.7737	25.29	0.15	-0.750			
0.2804	17947.99	3.7750	3.7748	-0.7793	25.29	0.15	-0.750			
0.2828	18097.41	3.7720	3.7720	-0.7768	25.30	0.16	-0.750			
0.2851	18247.36	3.7690	3.7690	-0.7913	25.30	0.16	-0.750			
0.2875	18400.04	3.7660	3.7660	-0.7934	25.30	0.16	-0.750			
0.2899	18553.01	3.7630	3.7631	-0.8018	25.30	0.16	-0.750			
0.2922	18703.95	3.7600	3.7599	-0.8184	25.30	0.16	-0.750			
0.2948	18864.59	3.7570	3.7570	-0.8211	25.30	0.16	-0.750			
0.2972	19022.65	3.7540	3.7538	-0.8255	25.30	0.16	-0.750			
0.2998	19184.76	3.7510	3.7510	-0.8316	25.30	0.16	-0.750			
0.3023	19344.65	3.7480	3.7481	-0.8326	25.30	0.16	-0.750			
0.3048	19504.54	3.7450	3.7449	-0.8495	25.30	0.16	-0.750			
0.3073	19665.43	3.7420	3.7419	-0.8512	25.30	0.16	-0.750			
0.3098	19828.37	3.7390	3.7389	-0.8618	25.30	0.16	-0.750			
0.3125	19999.69	3.7360	3.7359	-0.8748	25.30	0.16	-0.750			
0.3152	20170.40	3.7330	3.7328	-0.8784	25.30	0.16	-0.750			
0.3178	20337.74	3.7300	3.7300	-0.8920	25.29	0.15	-0.750			
0.3204	20506.17	3.7270	3.7269	-0.8948	25.29	0.15	-0.750			
0.3231	20677.88	3.7240	3.7240	-0.8973	25.29	0.15	-0.750			
0.3259	20856.38	3.7210	3.7209	-0.9205	25.28	0.14	-0.750			
0.3286	21030.77	3.7180	3.7182	-0.9421	25.28	0.14	-0.750			
0.3315	21215.77	3.7150	3.7150	-0.9556	25.28	0.14	-0.750			
0.3344	21400.29	3.7120	3.7118	-0.9710	25.28	0.14	-0.750			
0.3373	21587.12	3.7090	3.7090	-0.9845	25.28	0.14	-0.750			
0.3403	21777.76	3.7060	3.7060	-1.0101	25.28	0.14	-0.750			
0.3434	21976.16	3.7030	3.7029	-1.0133	25.28	0.14	-0.750			
0.3465	22172.98	3.7000	3.6997	-1.0152	25.27	0.13	-0.750	0.363	0.517	
0.3495	22365.22	3.6970	3.6969	-1.0241	25.27	0.13	-0.750			
0.3526	22565.25	3.6940	3.6938	-1.0468	25.27	0.13	-0.750			
0.3557	22763.69	3.6910	3.6909	-1.0523	25.26	0.12	-0.750			
0.3588	22962.35	3.6880	3.6881	-1.0627	25.26	0.12	-0.750			
0.3621	23171.79	3.6850	3.6851	-1.0896	25.25	0.11	-0.750			
0.3654	23387.60	3.6820	3.6817	-1.1217	25.25	0.11	-0.750			
0.3688	23605.35	3.6790	3.6790	-1.1364	25.24	0.10	-0.750			
0.3723	23824.66	3.6760	3.6760	-1.1452	25.23	0.09	-0.750			
0.3757	24042.40	3.6730	3.6732	-1.1843	25.22	0.08	-0.750			
0.3793	24277.77	3.6700	3.6699	-1.1885	25.22	0.08	-0.750			
0.3829	24504.98	3.6670	3.6668	-1.2011	25.22	0.08	-0.750			
0.3865	24735.51	3.6640	3.6639	-1.2180	25.22	0.08	-0.750			
0.3902	24969.90	3.6610	3.6610	-1.2386	25.22	0.08	-0.750			
0.3940	25213.00	3.6580	3.6578	-1.2599	25.21	0.07	-0.750			
0.3977	25455.03	3.6550	3.6549	-1.2786	25.21	0.07	-0.750			
0.4016	25703.26	3.6520	3.6522	-1.3136	25.20	0.06	-0.750			
0.4056	25958.37	3.6490	3.6489	-1.3266	25.19	0.05	-0.750			
0.4096	26213.57	3.6460	3.6459	-1.3354	25.19	0.05	-0.750			
0.4136	26471.79	3.6430	3.6434	-1.3715	25.18	0.04	-0.750			
0.4178	26739.69	3.6400	3.6398	-1.3905	25.18	0.04	-0.750			
0.4219	27001.36	3.6370	3.6369	-1.4453	25.17	0.03	-0.750			
0.4263	27282.88	3.6340	3.6346	-1.4622	25.17	0.03	-0.750			
0.4309	27576.75	3.6310	3.6307	-1.5039	25.16	0.02	-0.750			
0.4354	27865.84	3.6280	3.6280	-1.5232	25.15	0.01	-0.750			
0.4400	28157.16	3.6250	3.6250	-1.5422	25.14	-0.00	-0.750			
0.4446	28456.34	3.6220	3.6220	-1.5802	25.13	-0.01	-0.750			
0.4494	28762.54	3.6190	3.6186	-1.5989	25.12	-0.02	-0.750			
0.4542	29070.33	3.6160	3.6158	-1.6151	25.12	-0.02	-0.750			
0.4592	29389.65	3.6130	3.6127	-1.6730	25.12	-0.02	-0.750			
0.4643	29714.30	3.6100	3.6102	-1.6970	25.12	-0.02	-0.750			
0.4693	30034.53	3.6070	3.6070	-1.7221	25.12	-0.02	-0.750			
0.4745	30370.49	3.6040	3.6045	-1.7717	25.11	-0.03	-0.750			
0.4798	30709.10	3.6010	3.6009	-1.7886	25.11	-0.03	-0.750			
0.4855	31069.98	3.5980	3.5978	-1.8390	25.10	-0.04	-0.750			
0.4910	31421.84	3.5950	3.5952	-1.8328	25.10	-0.04	-0.750			
0.4966	31780.15	3.5920	3.5917	-1.8790	25.10	-0.04	-0.750			
0.5023	32148.06	3.5890	3.5891	-1.8986	25.10	-0.04	-0.750			
0.5080	32513.19	3.5860	3.5859	-1.9567	25.10	-0.04	-0.750			
0.5139	32892.61	3.5830	3.5830	-1.9755	25.10	-0.04	-0.750			
0.5198	33265.36	3.5800	3.5797	-1.9943	25.10	-0.04	-0.750			
0.5259	33659.95	3.5770	3.5770	-2.0230	25.09	-0.05	-0.750			
0.5320	34050.67	3.5740	3.5742	-2.0377	25.09	-0.05	-0.750			
0.5383	34449.58	3.5710	3.5712	-2.0446	25.09	-0.05	-0.750			
0.5444	34841.27	3.5680	3.5680	-2.0595	25.09	-0.05	-0.750			
0.5503	35221.56	3.5650	3.5656	-2.0303	25.09	-0.05	-0.750			
0.5565	35614.62	3.5620	3.5620	-2.0219	25.09	-0.05	-0.750			
0.5630	36030.66	3.5590	3.5591	-1.9484	25.10	-0.04	-0.750			
0.5685	36386.50	3.5560	3.5563	-1.9081	25.10	-0.04	-0.750			
0.5739	36731.56	3.5530	3.5535	-1.8335	25.10	-0.04	-0.750			
0.5792	37071.07	3.5500	3.5500	-1.8466	25.10	-0.04	-0.750			
0.5847	37419.24	3.5470	3.5476	-1.8614	25.10	-0.04	-0.750			
0.5903	37778.33	3.5440	3.5439	-1.9221	25.10	-0.04	-0.750			
0.5966	38184.34	3.5410	3.5407	-1.9820	25.11	-0.03	-0.750			
0.6027	38571.50	3.5380	3.5379	-1.9510	25.12	-0.02	-0.750			
0.6085	38946.02	3.5350	3.5346	-1.9209	25.13	-0.01	-0.750			
0.6141	39305.09	3.5320	3.5324	-1.8910	25.13	-0.01	-0.750			
0.6197	39663.96	3.5290	3.5285	-1.8711	25.14	0.00	-0.750			
0.6254	40026.62	3.5260	3.5257	-1.8128	25.16	0.02	-0.750			
0.6307	40364.75	3.5230	3.5231	-1.8028	25.17	0.03	-0.750			
0.6360	40704.74	3.5200	3.5206	-1.7390	25.18	0.04	-0.750			
0.6415	41053.01	3.5170	3.5165	-1.7226	25.18	0.04	-0.750			
0.6464	41369.03	3.5140	3.5136	-1.6751	25.19	0.05	-0.750			
0.6513	41680.52	3.5110	3.5106	-1.6170	25.20	0.06	-0.750			
0.6563	42005.41	3.5080	3.5080	-1.6166	25.22	0.08	-0.750			
0.6610	42301.45	3.5050	3.5048	-1.5476	25.24	0.10	-0.750			
0.6655	42589.69	3.5020	3.5018	-1.4733	25.25	0.11	-0.750			
0.6700	42877.02	3.4990	3.4988	-1.4331	25.26	0.12	-0.750			
0.6743	43153.80	3.4960	3.4957	-1.4289	25.27	0.13	-0.750			
0.6783	43414.33	3.4930	3.4930	-1.3610	25.29	0.15	-0.750			
0.6826	43684.94	3.4900	3.4896	-1.3244	25.30	0.16	-0.750			
0.6863	43924.10	3.4870	3.4869	-1.2748	25.31	0.17	-0.750			
0.6902	44173.08	3.4840	3.4838	-1.2001	25.32	0.18	-0.750			
0.6936	44391.80	3.4810	3.4810	-1.0302	25.34	0.20	-0.750			
