Ah_balance (normalized)	Ah_balance (mAh)	Voltage - fit (V)	Voltage -  interpolate (V)	dQ/dV (1/V)	Temperature (°C)	Temperature - diff (°C)	Current (C)	R_DC 0ms (mOhm)	R_DC 50ms (mOhm)	R_DC 50 ms PEC (mOhm)
0.0475	3041.53	4.1980	4.1980	0.7444	25.65	0.55	0.750			
0.0498	3184.74	4.1950	4.1950	0.7452	25.65	0.55	0.750			
0.0520	3326.77	4.1920	4.1921	0.7488	25.66	0.56	0.750			
0.0543	3472.00	4.1890	4.1890	0.7544	25.66	0.56	0.750			
0.0565	3617.61	4.1860	4.1856	0.7584	25.66	0.56	0.750			
0.0588	3763.34	4.1830	4.1830	0.7619	25.66	0.56	0.750			
0.0611	3910.92	4.1800	4.1801	0.7582	25.66	0.56	0.750			
0.0634	4057.49	4.1770	4.1770	0.7645	25.67	0.57	0.750			
0.0657	4202.42	4.1740	4.1741	0.7607	25.67	0.57	0.750			
0.0680	4348.97	4.1710	4.1710	0.7627	25.67	0.57	0.750			
0.0703	4496.75	4.1680	4.1681	0.7664	25.67	0.57	0.750			
0.0726	4644.41	4.1650	4.1650	0.7684	25.67	0.57	0.750			
0.0749	4792.30	4.1620	4.1620	0.7704	25.67	0.57	0.750			
0.0772	4941.08	4.1590	4.1590	0.7761	25.66	0.56	0.750			
0.0795	5088.47	4.1560	4.1560	0.7728	25.66	0.56	0.750			
0.0818	5237.81	4.1530	4.1530	0.7733	25.66	0.56	0.750			
0.0842	5387.21	4.1500	4.1500	0.7728	25.66	0.56	0.750			
0.0865	5537.25	4.1470	4.1469	0.7684	25.66	0.56	0.750			
0.0888	5682.58	4.1440	4.1440	0.7727	25.66	0.56	0.750			
0.0911	5830.05	4.1410	4.1410	0.7757	25.66	0.56	0.750			
0.0934	5977.39	4.1380	4.1379	0.7800	25.66	0.56	0.750			
0.0958	6129.03	4.1350	4.1351	0.7869	25.66	0.56	0.750			
0.0982	6285.93	4.1320	4.1319	0.7779	25.66	0.56	0.750			
0.1005	6433.14	4.1290	4.1291	0.7806	25.67	0.57	0.750			
0.1028	6581.12	4.1260	4.1262	0.7770	25.67	0.57	0.750			
0.1052	6730.02	4.1230	4.1231	0.7811	25.67	0.57	0.750			
0.1075	6877.90	4.1200	4.1198	0.7838	25.67	0.57	0.750			
0.1098	7029.72	4.1170	4.1171	0.7880	25.67	0.57	0.750			
0.1122	7183.52	4.1140	4.1141	0.7986	25.67	0.57	0.750			
0.1147	7340.10	4.1110	4.1109	0.8003	25.67	0.57	0.750			
0.1171	7491.92	4.1080	4.1081	0.7931	25.67	0.57	0.750			
0.1194	7644.80	4.1050	4.1050	0.7947	25.67	0.57	0.750			
0.1218	7797.15	4.1020	4.1021	0.7972	25.67	0.57	0.750			
0.1242	7949.44	4.0990	4.0989	0.7946	25.67	0.57	0.750			
0.1266	8102.46	4.0960	4.0960	0.7975	25.67	0.57	0.750			
0.1290	8254.88	4.0930	4.0931	0.8022	25.67	0.57	0.750			
0.1314	8409.78	4.0900	4.0897	0.8089	25.67	0.57	0.750			
0.1338	8565.95	4.0870	4.0870	0.8101	25.67	0.57	0.750			
0.1363	8725.32	4.0840	4.0840	0.7989	25.67	0.57	0.750			
0.1387	8876.84	4.0810	4.0811	0.8065	25.67	0.57	0.750			
0.1411	9030.88	4.0780	4.0781	0.8118	25.67	0.57	0.750			
0.1435	9184.91	4.0750	4.0748	0.8140	25.67	0.57	0.750			
0.1460	9341.43	4.0720	4.0721	0.8171	25.67	0.57	0.750			
0.1484	9499.15	4.0690	4.0690	0.8232	25.68	0.58	0.750			
0.1509	9659.15	4.0660	4.0661	0.8309	25.68	0.58	0.750			
0.1534	9820.45	4.0630	4.0630	0.8266	25.68	0.58	0.750			
0.1559	9979.54	4.0600	4.0599	0.8309	25.69	0.59	0.750			
0.1584	10138.56	4.0570	4.0571	0.8301	25.69	0.59	0.750			
0.1609	10300.41	4.0540	4.0539	0.8258	25.69	0.59	0.750			
0.1634	10459.77	4.0510	4.0510	0.8329	25.69	0.59	0.750			
0.1659	10618.18	4.0480	4.0481	0.8331	25.69	0.59	0.750			
0.1684	10777.04	4.0450	4.0448	0.8372	25.69	0.59	0.750			
0.1709	10938.25	4.0420	4.0421	0.8437	25.69	0.59	0.750			
0.1734	11100.73	4.0390	4.0389	0.8402	25.69	0.59	0.750			
0.1760	11262.70	4.0360	4.0361	0.8451	25.69	0.59	0.750			
0.1786	11427.48	4.0330	4.0330	0.8493	25.69	0.59	0.750			
0.1811	11588.02	4.0300	4.0298	0.8511	25.69	0.59	0.750			
0.1836	11751.62	4.0270	4.0270	0.8567	25.69	0.59	0.750			
0.1862	11914.76	4.0240	4.0240	0.8600	25.69	0.59	0.750			
0.1888	12081.89	4.0210	4.0210	0.8662	25.70	0.60	0.750			
0.1914	12251.45	4.0180	4.0180	0.8724	25.70	0.60	0.750			
0.1940	12417.75	4.0150	4.0149	0.8682	25.70	0.60	0.750			
0.1967	12586.19	4.0120	4.0121	0.8655	25.70	0.60	0.750			
0.1992	12750.93	4.0090	4.0090	0.8670	25.70	0.60	0.750			
0.2018	12916.35	4.0060	4.0060	0.8687	25.71	0.61	0.750			
0.2044	13082.12	4.0030	4.0031	0.8718	25.71	0.61	0.750			
0.2070	13250.02	4.0000	4.0000	0.8802	25.71	0.61	0.750			
0.2097	13421.87	3.9970	3.9970	0.8723	25.71	0.61	0.750			
0.2123	13588.31	3.9940	3.9940	0.8798	25.71	0.61	0.750			
0.2150	13756.99	3.9910	3.9911	0.8833	25.71	0.61	0.750			
0.2176	13926.38	3.9880	3.9880	0.8828	25.71	0.61	0.750			
0.2202	14095.39	3.9850	3.9849	0.8898	25.71	0.61	0.750			
0.2229	14267.74	3.9820	3.9821	0.8922	25.72	0.62	0.750			
0.2256	14439.91	3.9790	3.9791	0.8987	25.72	0.62	0.750			
0.2284	14615.41	3.9760	3.9759	0.9012	25.72	0.62	0.750			
0.2310	14786.64	3.9730	3.9730	0.8962	25.73	0.63	0.750			
0.2337	14959.85	3.9700	3.9700	0.8959	25.73	0.63	0.750			
0.2364	15131.29	3.9670	3.9670	0.8975	25.73	0.63	0.750			
0.2391	15302.38	3.9640	3.9640	0.8983	25.73	0.63	0.750			
0.2418	15475.77	3.9610	3.9610	0.9040	25.73	0.63	0.750			
0.2445	15648.86	3.9580	3.9580	0.9047	25.73	0.63	0.750			
0.2473	15826.41	3.9550	3.9550	0.8987	25.73	0.63	0.750			
0.2500	15997.30	3.9520	3.9520	0.9054	25.73	0.63	0.750			
0.2527	16170.91	3.9490	3.9490	0.9109	25.73	0.63	0.750			
0.2554	16344.17	3.9460	3.9461	0.9125	25.73	0.63	0.750			
0.2581	16520.56	3.9430	3.9431	0.9179	25.73	0.63	0.750			
0.2609	16697.94	3.9400	3.9401	0.9240	25.74	0.64	0.750			
0.2637	16877.15	3.9370	3.9370	0.9284	25.74	0.64	0.750			
0.2665	17058.56	3.9340	3.9340	0.9348	25.75	0.65	0.750			
0.2693	17234.08	3.9310	3.9310	0.9267	25.75	0.65	0.750			
0.2721	17413.14	3.9280	3.9280	0.9266	25.75	0.65	0.750			
0.2748	17590.35	3.9250	3.9251	0.9286	25.75	0.65	0.750			
0.2776	17769.33	3.9220	3.9220	0.9304	25.75	0.65	0.750			
0.2804	17948.29	3.9190	3.9190	0.9318	25.75	0.65	0.750			
0.2832	18127.64	3.9160	3.9160	0.9299	25.75	0.65	0.750			
0.2860	18305.10	3.9130	3.9131	0.9224	25.75	0.65	0.750			
0.2887	18479.83	3.9100	3.9101	0.9281	25.75	0.65	0.750			
0.2915	18656.49	3.9070	3.9071	0.9327	25.75	0.65	0.750			
0.2943	18835.05	3.9040	3.9034	0.9381	25.75	0.65	0.750			
0.2971	19016.69	3.9010	3.9011	0.9438	25.75	0.65	0.750			
0.3000	19200.33	3.8980	3.8981	0.9464	25.75	0.65	0.750			
0.3029	19386.98	3.8950	3.8950	0.9516	25.75	0.65	0.750			
0.3057	19566.38	3.8920	3.8921	0.9389	25.75	0.65	0.750			
0.3085	19747.16	3.8890	3.8890	0.9330	25.75	0.65	0.750			
0.3113	19925.09	3.8860	3.8860	0.9405	25.74	0.64	0.750			
0.3141	20103.70	3.8830	3.8831	0.9437	25.74	0.64	0.750			
0.3170	20286.14	3.8800	3.8801	0.9498	25.73	0.63	0.750			
0.3199	20470.91	3.8770	3.8769	0.9569	25.73	0.63	0.750			
0.3227	20655.91	3.8740	3.8741	0.9481	25.73	0.63	0.750			
0.3256	20836.09	3.8710	3.8711	0.9537	25.72	0.62	0.750			
0.3284	21019.96	3.8680	3.8681	0.9587	25.72	0.62	0.750			
0.3313	21202.50	3.8650	3.8645	0.9571	25.72	0.62	0.750			
0.3342	21386.08	3.8620	3.8621	0.9600	25.71	0.61	0.750			
0.3371	21571.91	3.8590	3.8591	0.9656	25.71	0.61	0.750			
0.3400	21760.47	3.8560	3.8560	0.9733	25.70	0.60	0.750			
0.3429	21946.00	3.8530	3.8530	0.9643	25.69	0.59	0.750			
0.3458	22133.24	3.8500	3.8500	0.9637	25.69	0.59	0.750			
0.3487	22317.15	3.8470	3.8471	0.9700	25.68	0.58	0.750			
0.3517	22507.34	3.8440	3.8440	0.9588	25.67	0.57	0.750			
0.3545	22688.19	3.8410	3.8411	0.9710	25.66	0.56	0.750			
0.3574	22871.88	3.8380	3.8381	0.9779	25.66	0.56	0.750			
0.3603	23059.72	3.8350	3.8351	0.9843	25.65	0.55	0.750			
0.3633	23249.65	3.8320	3.8320	0.9945	25.64	0.54	0.750	0.315	0.419	
0.3663	23441.96	3.8290	3.8292	1.0085	25.64	0.54	0.750			
0.3693	23638.15	3.8260	3.8261	1.0121	25.63	0.53	0.750			
0.3724	23836.78	3.8230	3.8231	1.0223	25.62	0.52	0.750			
0.3755	24030.93	3.8200	3.8200	1.0160	25.61	0.51	0.750			
0.3786	24228.52	3.8170	3.8170	1.0224	25.60	0.50	0.750			
0.3816	24422.58	3.8140	3.8140	1.0211	25.59	0.49	0.750			
0.3847	24620.36	3.8110	3.8110	1.0267	25.58	0.48	0.750			
0.3878	24816.60	3.8080	3.8080	1.0304	25.57	0.47	0.750			
0.3909	25015.30	3.8050	3.8051	1.0444	25.56	0.46	0.750			
0.3940	25216.68	3.8020	3.8017	1.0518	25.55	0.45	0.750			
0.3972	25418.15	3.7990	3.7990	1.0566	25.54	0.44	0.750			
0.4003	25620.79	3.7960	3.7961	1.0709	25.53	0.43	0.750			
0.4035	25825.38	3.7930	3.7931	1.0877	25.52	0.42	0.750			
0.4068	26036.63	3.7900	3.7896	1.1116	25.51	0.41	0.750			
0.4101	26249.50	3.7870	3.7871	1.1332	25.50	0.40	0.750			
0.4136	26470.67	3.7840	3.7841	1.1505	25.49	0.39	0.750			
0.4172	26698.47	3.7810	3.7810	1.1720	25.48	0.38	0.750			
0.4207	26922.55	3.7780	3.7781	1.1773	25.46	0.36	0.750			
0.4242	27150.03	3.7750	3.7750	1.1977	25.45	0.35	0.750			
0.4278	27380.62	3.7720	3.7720	1.2183	25.44	0.34	0.750			
0.4315	27618.56	3.7690	3.7687	1.2220	25.43	0.33	0.750			
0.4352	27850.69	3.7660	3.7661	1.2593	25.42	0.32	0.750			
0.4390	28095.13	3.7630	3.7631	1.2941	25.41	0.31	0.750			
0.4429	28345.81	3.7600	3.7599	1.3245	25.39	0.29	0.750			
0.4469	28603.19	3.7570	3.7571	1.3593	25.38	0.28	0.750			
0.4511	28867.23	3.7540	3.7540	1.3911	25.37	0.27	0.750			
0.4553	29139.69	3.7510	3.7510	1.4196	25.35	0.25	0.750			
0.4596	29414.91	3.7480	3.7481	1.4356	25.34	0.24	0.750			
0.4639	29690.22	3.7450	3.7451	1.4715	25.33	0.23	0.750			
0.4684	29979.96	3.7420	3.7418	1.4903	25.31	0.21	0.750			
0.4729	30264.96	3.7390	3.7387	1.5302	25.30	0.20	0.750			
0.4775	30560.41	3.7360	3.7363	1.5774	25.28	0.18	0.750			
0.4823	30870.25	3.7330	3.7330	1.6275	25.27	0.17	0.750			
0.4873	31184.81	3.7300	3.7301	1.6897	25.26	0.16	0.750			
0.4924	31515.28	3.7270	3.7271	1.7248	25.24	0.14	0.750			
0.4977	31855.98	3.7240	3.7242	1.7818	25.23	0.13	0.750			
0.5033	32211.22	3.7210	3.7212	1.8298	25.21	0.11	0.750			
0.5088	32563.71	3.7180	3.7178	1.8713	25.19	0.09	0.750			
0.5144	32922.17	3.7150	3.7150	1.9208	25.18	0.08	0.750			
0.5203	33299.27	3.7120	3.7121	1.9793	25.16	0.06	0.750			
0.5263	33682.98	3.7090	3.7092	2.0475	25.14	0.04	0.750			
0.5325	34082.70	3.7060	3.7062	2.0879	25.12	0.02	0.750			
0.5390	34494.05	3.7030	3.7029	2.1460	25.11	0.01	0.750			
0.5455	34910.58	3.7000	3.7002	2.2095	25.10	-0.00	0.750			
0.5523	35345.19	3.6970	3.6971	2.2698	25.07	-0.03	0.750			
0.5590	35776.85	3.6940	3.6940	2.3303	25.06	-0.04	0.750			
0.5662	36234.53	3.6910	3.6908	2.3790	25.04	-0.06	0.750			
0.5734	36695.84	3.6880	3.6880	2.4561	25.03	-0.07	0.750			
0.5809	37178.86	3.6850	3.6851	2.5517	25.02	-0.08	0.750			
0.5887	37676.10	3.6820	3.6822	2.6145	25.01	-0.09	0.750			
0.5965	38178.62	3.6790	3.6792	2.6744	25.00	-0.10	0.750			
0.6050	38718.61	3.6760	3.6759	2.6962	24.98	-0.12	0.750			
0.6132	39245.20	3.6730	3.6728	2.7412	24.98	-0.12	0.750			
0.6215	39778.70	3.6700	3.6696	2.7519	24.98	-0.12	0.750			
0.6297	40298.25	3.6670	3.6670	2.7140	24.96	-0.14	0.750			
0.6379	40828.05	3.6640	3.6641	2.5788	24.97	-0.13	0.750			
0.6452	41294.40	3.6610	3.6610	2.3506	24.97	-0.13	0.750			
0.6520	41731.01	3.6580	3.6580	2.1307	24.98	-0.12	0.750			
0.6581	42115.31	3.6550	3.6550	1.9524	24.98	-0.12	0.750			
0.6636	42472.54	3.6520	3.6516	1.7873	24.99	-0.11	0.750			
0.6686	42790.69	3.6490	3.6487	1.6177	25.00	-0.10	0.750			
0.6732	43085.98	3.6460	3.6462	1.4755	25.01	-0.09	0.750			
0.6774	43356.35	3.6430	3.6431	1.3498	25.01	-0.09	0.750			
0.6813	43601.81	3.6400	3.6400	1.2324	25.02	-0.08	0.750			
0.6847	43820.73	3.6370	3.6370	1.1250	25.03	-0.07	0.750			
0.6879	44023.65	3.6340	3.6340	1.0573	25.03	-0.07	0.750			
0.6908	44213.81	3.6310	3.6310	1.0097	25.03	-0.07	0.750			
0.6938	44401.89	3.6280	3.6277	0.9775	25.04	-0.06	0.750			
0.6967	44586.30	3.6250	3.6250	0.9433	25.04	-0.06	0.750			
0.6995	44765.21	3.6220	3.6220	0.9265	25.05	-0.05	0.750			
0.7023	44944.66	3.6190	3.6190	0.9029	25.05	-0.05	0.750			
0.7050	45118.11	3.6160	3.6161	0.8696	25.06	-0.04	0.750			
0.7075	45282.38	3.6130	3.6132	0.8178	25.06	-0.04	0.750			
0.7100	45436.84	3.6100	3.6101	0.7657	25.07	-0.03	0.750			
0.7122	45583.20	3.6070	3.6070	0.7010	25.08	-0.02	0.750			
0.7142	45710.97	3.6040	3.6040	0.6333	25.08	-0.02	0.750			
0.7160	45824.49	3.6010	3.6010	0.5622	25.09	-0.01	0.750			
0.7176	45923.82	3.5980	3.5981	0.5023	25.10	-0.00	0.750			
0.7189	46012.62	3.5950	3.5952	0.4435	25.10	-0.00	0.750			
0.7202	46092.29	3.5920	3.5921	0.3914	25.10	0.00	0.750			
0.7213	46162.86	3.5890	3.5891	0.3391	25.11	0.01	0.750			
0.7223	46224.25	3.5860	3.5860	0.2912	25.11	0.01	0.750			
0.7231	46277.51	3.5830	3.5827	0.2394	25.11	0.01	0.750			
0.7237	46315.86	3.5800	3.5801	0.1833	25.11	0.01	0.750			
0.7241	46345.58	3.5770	3.5774	0.1314	25.12	0.02	0.750			
0.7245	46365.87	3.5740	3.5749	0.0742	25.12	0.02	0.750			
