Ah_balance (normalized)	Ah_balance (mAh)	Voltage - fit (V)	Voltage -  interpolate (V)	dQ/dV (1/V)	Temperature (°C)	Temperature - diff (°C)	Current (C)	R_DC 0ms (mOhm)	R_DC 50ms (mOhm)	R_DC 50 ms PEC (mOhm)
0.0477	3052.56	4.1980	4.1979	0.7532	25.21	0.53	0.750			
0.0499	3195.65	4.1950	4.1952	0.7488	25.21	0.53	0.750			
0.0522	3341.08	4.1920	4.1920	0.7532	25.21	0.53	0.750			
0.0545	3485.73	4.1890	4.1889	0.7546	25.21	0.53	0.750			
0.0567	3630.60	4.1860	4.1861	0.7552	25.21	0.53	0.750			
0.0590	3777.32	4.1830	4.1830	0.7502	25.21	0.53	0.750			
0.0613	3920.03	4.1800	4.1800	0.7584	25.22	0.54	0.750			
0.0635	4064.82	4.1770	4.1770	0.7597	25.22	0.54	0.750			
0.0658	4210.36	4.1740	4.1738	0.7605	25.22	0.54	0.750			
0.0681	4357.23	4.1710	4.1711	0.7675	25.22	0.54	0.750			
0.0704	4507.75	4.1680	4.1680	0.7629	25.22	0.54	0.750			
0.0727	4654.70	4.1650	4.1650	0.7612	25.23	0.55	0.750			
0.0750	4799.21	4.1620	4.1620	0.7603	25.23	0.55	0.750			
0.0773	4944.54	4.1590	4.1591	0.7617	25.23	0.55	0.750			
0.0795	5090.20	4.1560	4.1561	0.7649	25.23	0.55	0.750			
0.0818	5237.82	4.1530	4.1530	0.7700	25.23	0.55	0.750			
0.0842	5387.66	4.1500	4.1501	0.7707	25.23	0.55	0.750			
0.0865	5537.30	4.1470	4.1470	0.7765	25.24	0.56	0.750			
0.0888	5685.55	4.1440	4.1440	0.7732	25.24	0.56	0.750			
0.0911	5833.11	4.1410	4.1409	0.7745	25.24	0.56	0.750			
0.0935	5982.54	4.1380	4.1379	0.7749	25.24	0.56	0.750			
0.0958	6133.25	4.1350	4.1350	0.7665	25.25	0.57	0.750			
0.0981	6279.94	4.1320	4.1320	0.7736	25.25	0.57	0.750			
0.1004	6427.69	4.1290	4.1291	0.7790	25.25	0.57	0.750			
0.1027	6575.45	4.1260	4.1260	0.7809	25.26	0.58	0.750			
0.1051	6727.53	4.1230	4.1231	0.7810	25.26	0.58	0.750			
0.1075	6877.31	4.1200	4.1202	0.7848	25.26	0.58	0.750			
0.1098	7028.77	4.1170	4.1171	0.7797	25.26	0.58	0.750			
0.1121	7177.49	4.1140	4.1140	0.7844	25.27	0.59	0.750			
0.1144	7323.05	4.1110	4.1111	0.7846	25.27	0.59	0.750			
0.1168	7474.81	4.1080	4.1074	0.7918	25.27	0.59	0.750			
0.1192	7628.40	4.1050	4.1051	0.7980	25.27	0.59	0.750			
0.1216	7784.61	4.1020	4.1022	0.8039	25.27	0.59	0.750			
0.1241	7941.58	4.0990	4.0990	0.8072	25.28	0.60	0.750			
0.1265	8095.04	4.0960	4.0960	0.7946	25.28	0.60	0.750			
0.1289	8247.76	4.0930	4.0929	0.7995	25.28	0.60	0.750			
0.1313	8400.48	4.0900	4.0900	0.8015	25.28	0.60	0.750			
0.1337	8555.51	4.0870	4.0870	0.8010	25.28	0.60	0.750			
0.1361	8709.74	4.0840	4.0840	0.8051	25.28	0.60	0.750			
0.1385	8862.82	4.0810	4.0811	0.8069	25.28	0.60	0.750			
0.1409	9018.52	4.0780	4.0778	0.8141	25.28	0.60	0.750			
0.1434	9176.39	4.0750	4.0751	0.8132	25.28	0.60	0.750			
0.1459	9334.76	4.0720	4.0720	0.8015	25.29	0.61	0.750			
0.1483	9489.22	4.0690	4.0690	0.8116	25.29	0.61	0.750			
0.1507	9643.00	4.0660	4.0661	0.8224	25.29	0.61	0.750			
0.1531	9797.97	4.0630	4.0628	0.8200	25.30	0.62	0.750			
0.1556	9956.37	4.0600	4.0601	0.8262	25.30	0.62	0.750			
0.1581	10117.32	4.0570	4.0572	0.8300	25.31	0.63	0.750			
0.1606	10279.73	4.0540	4.0540	0.8329	25.31	0.63	0.750			
0.1631	10441.30	4.0510	4.0510	0.8361	25.31	0.63	0.750			
0.1656	10596.74	4.0480	4.0480	0.8301	25.32	0.64	0.750			
0.1681	10755.60	4.0450	4.0450	0.8354	25.32	0.64	0.750			
0.1706	10919.87	4.0420	4.0419	0.8313	25.32	0.64	0.750			
0.1731	11078.46	4.0390	4.0391	0.8346	25.32	0.64	0.750			
0.1756	11239.13	4.0360	4.0361	0.8444	25.32	0.64	0.750			
0.1781	11400.96	4.0330	4.0329	0.8476	25.32	0.64	0.750			
0.1807	11564.05	4.0300	4.0300	0.8466	25.32	0.64	0.750			
0.1832	11725.88	4.0270	4.0271	0.8481	25.33	0.65	0.750			
0.1857	11886.97	4.0240	4.0242	0.8475	25.34	0.66	0.750			
0.1883	12051.04	4.0210	4.0210	0.8582	25.34	0.66	0.750			
0.1908	12212.99	4.0180	4.0177	0.8591	25.35	0.67	0.750			
0.1934	12378.08	4.0150	4.0151	0.8651	25.35	0.67	0.750			
0.1961	12547.31	4.0120	4.0121	0.8666	25.35	0.67	0.750			
0.1987	12716.29	4.0090	4.0091	0.8679	25.36	0.68	0.750			
0.2013	12884.38	4.0060	4.0060	0.8776	25.36	0.68	0.750			
0.2039	13046.79	4.0030	4.0027	0.8681	25.36	0.68	0.750			
0.2065	13215.19	4.0000	4.0000	0.8615	25.36	0.68	0.750			
0.2091	13379.90	3.9970	3.9970	0.8692	25.36	0.68	0.750			
0.2117	13547.81	3.9940	3.9941	0.8786	25.37	0.69	0.750			
0.2143	13716.12	3.9910	3.9911	0.8815	25.37	0.69	0.750			
0.2170	13885.91	3.9880	3.9879	0.8873	25.37	0.69	0.750			
0.2197	14060.85	3.9850	3.9850	0.8710	25.38	0.70	0.750			
0.2223	14226.92	3.9820	3.9820	0.8799	25.38	0.70	0.750			
0.2249	14396.21	3.9790	3.9792	0.8841	25.38	0.70	0.750			
0.2275	14562.05	3.9760	3.9762	0.8864	25.39	0.71	0.750			
0.2302	14731.05	3.9730	3.9729	0.8904	25.39	0.71	0.750			
0.2329	14904.13	3.9700	3.9702	0.8989	25.40	0.72	0.750			
0.2356	15079.20	3.9670	3.9670	0.9070	25.40	0.72	0.750			
0.2384	15257.52	3.9640	3.9641	0.9084	25.41	0.73	0.750			
0.2411	15430.44	3.9610	3.9609	0.8988	25.41	0.73	0.750			
0.2438	15604.74	3.9580	3.9580	0.8939	25.41	0.73	0.750			
0.2465	15773.89	3.9550	3.9550	0.8991	25.42	0.74	0.750			
0.2491	15945.43	3.9520	3.9520	0.9041	25.42	0.74	0.750			
0.2518	16118.09	3.9490	3.9491	0.9134	25.43	0.75	0.750			
0.2546	16295.04	3.9460	3.9460	0.9189	25.43	0.75	0.750			
0.2575	16478.48	3.9430	3.9430	0.8966	25.43	0.75	0.750			
0.2602	16650.19	3.9400	3.9401	0.9044	25.43	0.75	0.750			
0.2628	16819.89	3.9370	3.9372	0.9139	25.43	0.75	0.750			
0.2655	16992.43	3.9340	3.9342	0.9159	25.43	0.75	0.750			
0.2683	17168.38	3.9310	3.9312	0.9163	25.43	0.75	0.750			
0.2710	17344.47	3.9280	3.9283	0.9268	25.43	0.75	0.750			
0.2739	17527.95	3.9250	3.9251	0.9347	25.44	0.76	0.750			
0.2767	17710.66	3.9220	3.9219	0.9332	25.44	0.76	0.750			
0.2795	17887.13	3.9190	3.9190	0.9194	25.44	0.76	0.750			
0.2822	18063.49	3.9160	3.9160	0.9137	25.44	0.76	0.750			
0.2850	18238.23	3.9130	3.9131	0.9195	25.44	0.76	0.750			
0.2877	18415.43	3.9100	3.9100	0.9235	25.45	0.77	0.750			
0.2905	18591.46	3.9070	3.9068	0.9217	25.45	0.77	0.750			
0.2933	18769.14	3.9040	3.9041	0.9299	25.45	0.77	0.750			
0.2961	18948.23	3.9010	3.9010	0.9221	25.45	0.77	0.750			
0.2988	19123.56	3.8980	3.8980	0.9260	25.45	0.77	0.750			
0.3016	19300.76	3.8950	3.8951	0.9317	25.45	0.77	0.750			
0.3043	19478.16	3.8920	3.8915	0.9347	25.45	0.77	0.750			
0.3072	19659.35	3.8890	3.8891	0.9387	25.44	0.76	0.750			
0.3100	19841.46	3.8860	3.8861	0.9427	25.44	0.76	0.750			
0.3129	20024.73	3.8830	3.8830	0.9485	25.44	0.76	0.750			
0.3157	20204.85	3.8800	3.8801	0.9407	25.43	0.75	0.750			
0.3186	20388.42	3.8770	3.8769	0.9388	25.43	0.75	0.750			
0.3214	20568.47	3.8740	3.8740	0.9422	25.42	0.74	0.750			
0.3242	20748.27	3.8710	3.8711	0.9477	25.42	0.74	0.750			
0.3271	20931.46	3.8680	3.8680	0.9497	25.41	0.73	0.750			
0.3299	21113.83	3.8650	3.8651	0.9528	25.41	0.73	0.750			
0.3328	21300.96	3.8620	3.8620	0.9305	25.40	0.72	0.750			
0.3355	21475.09	3.8590	3.8592	0.9384	25.39	0.71	0.750			
0.3383	21654.26	3.8560	3.8561	0.9470	25.39	0.71	0.750			
0.3411	21833.38	3.8530	3.8524	0.9491	25.38	0.70	0.750			
0.3440	22016.32	3.8500	3.8502	0.9591	25.37	0.69	0.750			
0.3469	22203.81	3.8470	3.8472	0.9690	25.37	0.69	0.750			
0.3499	22392.48	3.8440	3.8440	0.9713	25.36	0.68	0.750			
0.3529	22586.19	3.8410	3.8409	0.9913	25.35	0.67	0.750			
0.3558	22768.59	3.8380	3.8381	0.9695	25.34	0.66	0.750			
0.3587	22954.48	3.8350	3.8344	0.9806	25.33	0.65	0.750	0.300	0.394	
0.3616	23143.71	3.8320	3.8322	0.9904	25.32	0.64	0.750			
0.3646	23334.45	3.8290	3.8291	0.9973	25.31	0.63	0.750			
0.3677	23529.77	3.8260	3.8261	0.9957	25.30	0.62	0.750			
0.3707	23722.98	3.8230	3.8230	1.0021	25.29	0.61	0.750			
0.3736	23910.42	3.8200	3.8201	1.0008	25.28	0.60	0.750			
0.3766	24104.37	3.8170	3.8170	1.0120	25.28	0.60	0.750			
0.3797	24298.70	3.8140	3.8140	1.0112	25.27	0.59	0.750			
0.3827	24493.13	3.8110	3.8111	1.0192	25.25	0.57	0.750			
0.3858	24690.38	3.8080	3.8080	1.0294	25.24	0.56	0.750			
0.3889	24889.91	3.8050	3.8051	1.0389	25.23	0.55	0.750			
0.3920	25089.98	3.8020	3.8020	1.0361	25.22	0.54	0.750			
0.3951	25287.55	3.7990	3.7990	1.0525	25.21	0.53	0.750			
0.3982	25487.80	3.7960	3.7961	1.0689	25.20	0.52	0.750			
0.4015	25695.91	3.7930	3.7931	1.0887	25.19	0.51	0.750			
0.4048	25909.17	3.7900	3.7898	1.0970	25.18	0.50	0.750			
0.4081	26120.40	3.7870	3.7870	1.1167	25.17	0.49	0.750			
0.4115	26336.00	3.7840	3.7841	1.1362	25.16	0.48	0.750			
0.4149	26555.10	3.7810	3.7811	1.1592	25.14	0.46	0.750			
0.4184	26777.36	3.7780	3.7780	1.1745	25.13	0.45	0.750			
0.4219	27004.79	3.7750	3.7750	1.1955	25.12	0.44	0.750			
0.4256	27239.54	3.7720	3.7720	1.2226	25.11	0.43	0.750			
0.4294	27480.05	3.7690	3.7691	1.2432	25.10	0.42	0.750			
0.4330	27714.81	3.7660	3.7660	1.2571	25.08	0.40	0.750			
0.4368	27955.81	3.7630	3.7631	1.2836	25.07	0.39	0.750			
0.4407	28203.33	3.7600	3.7597	1.3183	25.05	0.37	0.750			
0.4446	28453.93	3.7570	3.7572	1.3391	25.04	0.36	0.750			
0.4487	28714.17	3.7540	3.7542	1.3803	25.02	0.34	0.750			
0.4529	28985.32	3.7510	3.7507	1.4158	25.00	0.32	0.750			
0.4573	29267.80	3.7480	3.7481	1.4112	24.99	0.31	0.750			
0.4614	29531.79	3.7450	3.7452	1.4371	24.98	0.30	0.750			
0.4658	29813.20	3.7420	3.7421	1.4659	24.96	0.28	0.750			
0.4703	30099.87	3.7390	3.7385	1.5136	24.95	0.27	0.750			
0.4748	30386.25	3.7360	3.7358	1.5335	24.93	0.25	0.750			
0.4795	30689.68	3.7330	3.7331	1.5866	24.92	0.24	0.750			
0.4844	31001.65	3.7300	3.7303	1.6617	24.89	0.21	0.750			
0.4894	31320.40	3.7270	3.7274	1.7043	24.87	0.19	0.750			
0.4945	31649.33	3.7240	3.7247	1.7553	24.85	0.17	0.750			
0.5001	32004.18	3.7210	3.7208	1.8186	24.83	0.15	0.750			
0.5057	32363.70	3.7180	3.7175	1.8509	24.81	0.13	0.750			
0.5113	32720.68	3.7150	3.7147	1.9439	24.79	0.11	0.750			
0.5170	33089.30	3.7120	3.7124	1.9769	24.77	0.09	0.750			
0.5231	33478.77	3.7090	3.7084	2.0393	24.75	0.07	0.750			
0.5294	33881.53	3.7060	3.7058	2.0673	24.74	0.06	0.750			
0.5356	34280.59	3.7030	3.7035	2.1621	24.71	0.03	0.750			
0.5424	34711.56	3.7000	3.6995	2.1850	24.69	0.01	0.750			
0.5489	35127.66	3.6970	3.6968	2.3051	24.67	-0.01	0.750			
0.5557	35564.52	3.6940	3.6935	2.3477	24.65	-0.03	0.750			
0.5627	36011.66	3.6910	3.6910	2.3718	24.63	-0.05	0.750			
0.5700	36477.51	3.6880	3.6880	2.4636	24.61	-0.07	0.750			
0.5776	36968.69	3.6850	3.6849	2.5288	24.60	-0.08	0.750			
0.5854	37463.44	3.6820	3.6817	2.6993	24.59	-0.09	0.750			
0.5938	38000.17	3.6790	3.6786	2.7046	24.58	-0.10	0.750			
0.6015	38493.15	3.6760	3.6759	2.6932	24.56	-0.12	0.750			
0.6097	39022.14	3.6730	3.6732	2.7166	24.56	-0.12	0.750			
0.6178	39539.24	3.6700	3.6699	2.7713	24.55	-0.13	0.750			
0.6259	40059.71	3.6670	3.6672	2.5903	24.55	-0.13	0.750			
0.6336	40549.84	3.6640	3.6645	2.4560	24.55	-0.13	0.750			
0.6407	41006.55	3.6610	3.6608	2.2713	24.56	-0.12	0.750			
0.6470	41406.79	3.6580	3.6579	2.0937	24.56	-0.12	0.750			
0.6529	41787.58	3.6550	3.6551	1.9254	24.56	-0.12	0.750			
0.6585	42142.57	3.6520	3.6519	1.7851	24.57	-0.11	0.750			
0.6638	42481.48	3.6490	3.6496	1.6329	24.58	-0.10	0.750			
0.6686	42788.86	3.6460	3.6464	1.4978	24.58	-0.10	0.750			
0.6729	43068.46	3.6430	3.6431	1.3656	24.59	-0.09	0.750			
0.6768	43314.45	3.6400	3.6400	1.2296	24.59	-0.09	0.750			
0.6800	43519.01	3.6370	3.6370	1.1044	24.59	-0.09	0.750			
0.6831	43720.38	3.6340	3.6340	1.0466	24.60	-0.08	0.750			
0.6861	43912.13	3.6310	3.6310	0.9983	24.60	-0.08	0.750			
0.6891	44100.96	3.6280	3.6280	0.9697	24.61	-0.07	0.750			
0.6919	44282.87	3.6250	3.6250	0.9335	24.61	-0.07	0.750			
0.6947	44460.51	3.6220	3.6220	0.9000	24.62	-0.06	0.750			
0.6974	44631.46	3.6190	3.6190	0.8681	24.62	-0.06	0.750			
0.6999	44796.67	3.6160	3.6160	0.8293	24.63	-0.05	0.750			
0.7024	44954.09	3.6130	3.6131	0.7790	24.64	-0.04	0.750			
0.7047	45101.48	3.6100	3.6100	0.7270	24.64	-0.04	0.750			
0.7068	45236.53	3.6070	3.6071	0.6639	24.65	-0.03	0.750			
0.7087	45359.21	3.6040	3.6040	0.6013	24.66	-0.02	0.750			
0.7104	45467.86	3.6010	3.6010	0.5362	24.66	-0.02	0.750			
0.7119	45562.30	3.5980	3.5980	0.4745	24.67	-0.01	0.750			
0.7132	45647.25	3.5950	3.5950	0.4162	24.67	-0.01	0.750			
0.7144	45720.90	3.5920	3.5920	0.3656	24.67	-0.01	0.750			
0.7154	45786.16	3.5890	3.5890	0.3127	24.68	-0.00	0.750			
0.7163	45841.63	3.5860	3.5852	0.2623	24.68	-0.00	0.750			
0.7170	45887.22	3.5830	3.5833	0.2105	24.68	0.00	0.750			
0.7175	45922.89	3.5800	3.5806	0.1578	24.68	0.00	0.750			
0.7179	45948.25	3.5770	3.5778	0.1041	24.69	0.01	0.750			
0.7182	45962.57	3.5740	3.5756	0.0021	24.69	0.01	0.750			
