Ah_balance (normalized)	Ah_balance (mAh)	Voltage - fit (V)	Voltage -  interpolate (V)	dQ/dV (1/V)	Temperature (°C)	Temperature - diff (°C)	Current (C)	R_DC 0ms (mOhm)	R_DC 50ms (mOhm)	R_DC 50 ms PEC (mOhm)
0.0476	3049.54	4.1970	4.1965	0.7746	25.80	0.50	0.750			
0.0500	3197.64	4.1940	4.1940	0.7677	25.80	0.50	0.750			
0.0523	3345.27	4.1910	4.1910	0.7601	25.80	0.50	0.750			
0.0545	3488.40	4.1880	4.1881	0.7584	25.81	0.51	0.750			
0.0568	3634.74	4.1850	4.1849	0.7616	25.81	0.51	0.750			
0.0590	3777.34	4.1820	4.1820	0.7561	25.81	0.51	0.750			
0.0613	3924.20	4.1790	4.1790	0.7607	25.81	0.51	0.750			
0.0636	4071.06	4.1760	4.1761	0.7651	25.81	0.51	0.750			
0.0659	4218.89	4.1730	4.1730	0.7538	25.81	0.51	0.750			
0.0682	4362.09	4.1700	4.1701	0.7533	25.81	0.51	0.750			
0.0703	4501.92	4.1670	4.1672	0.7552	25.81	0.51	0.750			
0.0726	4647.85	4.1640	4.1631	0.7624	25.81	0.51	0.750			
0.0749	4794.95	4.1610	4.1611	0.7663	25.81	0.51	0.750			
0.0773	4945.19	4.1580	4.1581	0.7669	25.81	0.51	0.750			
0.0796	5095.21	4.1550	4.1551	0.7771	25.81	0.51	0.750			
0.0820	5247.93	4.1520	4.1519	0.7820	25.81	0.51	0.750			
0.0842	5390.36	4.1490	4.1491	0.7674	25.81	0.51	0.750			
0.0865	5536.95	4.1460	4.1461	0.7710	25.81	0.51	0.750			
0.0889	5687.20	4.1430	4.1431	0.7740	25.81	0.51	0.750			
0.0912	5835.85	4.1400	4.1400	0.7756	25.81	0.51	0.750			
0.0935	5987.06	4.1370	4.1370	0.7787	25.81	0.51	0.750			
0.0958	6132.29	4.1340	4.1340	0.7793	25.81	0.51	0.750			
0.0982	6282.27	4.1310	4.1310	0.7836	25.81	0.51	0.750			
0.1005	6434.15	4.1280	4.1280	0.7854	25.81	0.51	0.750			
0.1029	6585.93	4.1250	4.1249	0.7799	25.81	0.51	0.750			
0.1052	6735.88	4.1220	4.1222	0.7812	25.82	0.52	0.750			
0.1076	6884.11	4.1190	4.1191	0.7842	25.82	0.52	0.750			
0.1099	7033.68	4.1160	4.1152	0.7855	25.82	0.52	0.750			
0.1122	7183.77	4.1130	4.1131	0.7890	25.82	0.52	0.750			
0.1147	7338.54	4.1100	4.1099	0.7846	25.82	0.52	0.750			
0.1170	7489.27	4.1070	4.1071	0.7918	25.83	0.53	0.750			
0.1194	7643.15	4.1040	4.1041	0.8015	25.83	0.53	0.750			
0.1218	7793.12	4.1010	4.1010	0.8000	25.83	0.53	0.750			
0.1242	7948.19	4.0980	4.0981	0.8034	25.83	0.53	0.750			
0.1266	8103.73	4.0950	4.0951	0.8045	25.83	0.53	0.750			
0.1290	8259.02	4.0920	4.0920	0.8058	25.84	0.54	0.750			
0.1315	8416.54	4.0890	4.0891	0.8130	25.84	0.54	0.750			
0.1339	8569.30	4.0860	4.0859	0.8034	25.84	0.54	0.750			
0.1363	8722.20	4.0830	4.0830	0.8025	25.84	0.54	0.750			
0.1387	8878.22	4.0800	4.0800	0.7983	25.84	0.54	0.750			
0.1411	9030.72	4.0770	4.0771	0.8030	25.84	0.54	0.750			
0.1435	9184.90	4.0740	4.0740	0.8077	25.85	0.55	0.750			
0.1459	9338.38	4.0710	4.0711	0.8119	25.85	0.55	0.750			
0.1483	9494.06	4.0680	4.0681	0.8151	25.85	0.55	0.750			
0.1509	9656.87	4.0650	4.0649	0.8127	25.85	0.55	0.750			
0.1533	9811.92	4.0620	4.0621	0.8201	25.85	0.55	0.750			
0.1558	9969.29	4.0590	4.0591	0.8246	25.85	0.55	0.750			
0.1582	10126.43	4.0560	4.0561	0.8223	25.85	0.55	0.750			
0.1607	10282.87	4.0530	4.0528	0.8245	25.85	0.55	0.750			
0.1632	10443.35	4.0500	4.0501	0.8245	25.86	0.56	0.750			
0.1657	10602.48	4.0470	4.0470	0.8344	25.86	0.56	0.750			
0.1682	10763.33	4.0440	4.0440	0.8410	25.86	0.56	0.750			
0.1707	10924.43	4.0410	4.0411	0.8369	25.87	0.57	0.750			
0.1732	11086.31	4.0380	4.0378	0.8427	25.87	0.57	0.750			
0.1758	11253.90	4.0350	4.0350	0.8352	25.87	0.57	0.750			
0.1783	11412.28	4.0320	4.0321	0.8430	25.87	0.57	0.750			
0.1808	11574.08	4.0290	4.0290	0.8465	25.87	0.57	0.750			
0.1834	11734.86	4.0260	4.0261	0.8480	25.87	0.57	0.750			
0.1859	11895.85	4.0230	4.0229	0.8523	25.87	0.57	0.750			
0.1885	12063.11	4.0200	4.0201	0.8510	25.88	0.58	0.750			
0.1910	12227.19	4.0170	4.0171	0.8616	25.88	0.58	0.750			
0.1936	12393.56	4.0140	4.0141	0.8672	25.88	0.58	0.750			
0.1962	12558.56	4.0110	4.0111	0.8629	25.89	0.59	0.750			
0.1988	12726.03	4.0080	4.0080	0.8695	25.89	0.59	0.750			
0.2015	12894.15	4.0050	4.0051	0.8710	25.89	0.59	0.750			
0.2041	13062.44	4.0020	4.0021	0.8765	25.90	0.60	0.750			
0.2067	13231.74	3.9990	3.9990	0.8822	25.90	0.60	0.750			
0.2094	13400.31	3.9960	3.9959	0.8764	25.90	0.60	0.750			
0.2120	13568.97	3.9930	3.9930	0.8759	25.90	0.60	0.750			
0.2146	13737.19	3.9900	3.9901	0.8695	25.90	0.60	0.750			
0.2172	13903.71	3.9870	3.9871	0.8737	25.89	0.59	0.750			
0.2198	14068.08	3.9840	3.9841	0.8751	25.89	0.59	0.750			
0.2224	14236.45	3.9810	3.9803	0.8824	25.89	0.59	0.750			
0.2252	14409.95	3.9780	3.9780	0.8746	25.89	0.59	0.750			
0.2278	14578.82	3.9750	3.9751	0.8815	25.90	0.60	0.750			
0.2305	14749.22	3.9720	3.9722	0.8975	25.90	0.60	0.750			
0.2332	14923.23	3.9690	3.9690	0.9062	25.91	0.61	0.750			
0.2358	15090.56	3.9660	3.9656	0.8989	25.91	0.61	0.750			
0.2385	15266.33	3.9630	3.9632	0.8999	25.91	0.61	0.750			
0.2413	15442.07	3.9600	3.9601	0.9090	25.91	0.61	0.750			
0.2440	15618.99	3.9570	3.9570	0.9083	25.92	0.62	0.750			
0.2467	15789.66	3.9540	3.9539	0.9015	25.92	0.62	0.750			
0.2494	15961.93	3.9510	3.9510	0.9037	25.92	0.62	0.750			
0.2521	16135.15	3.9480	3.9480	0.9038	25.92	0.62	0.750			
0.2548	16309.12	3.9450	3.9450	0.9098	25.92	0.62	0.750			
0.2576	16485.02	3.9420	3.9421	0.9119	25.92	0.62	0.750			
0.2603	16660.67	3.9390	3.9388	0.9179	25.92	0.62	0.750			
0.2632	16842.45	3.9360	3.9360	0.9062	25.92	0.62	0.750			
0.2658	17012.19	3.9330	3.9331	0.9095	25.92	0.62	0.750			
0.2685	17186.92	3.9300	3.9301	0.9148	25.93	0.63	0.750			
0.2713	17362.51	3.9270	3.9271	0.9223	25.93	0.63	0.750			
0.2740	17536.58	3.9240	3.9239	0.9225	25.93	0.63	0.750			
0.2768	17715.25	3.9210	3.9211	0.9200	25.93	0.63	0.750			
0.2796	17892.92	3.9180	3.9182	0.9269	25.93	0.63	0.750			
0.2824	18072.93	3.9150	3.9150	0.9308	25.93	0.63	0.750			
0.2851	18249.59	3.9120	3.9117	0.9256	25.93	0.63	0.750			
0.2880	18432.58	3.9090	3.9089	0.9065	25.93	0.63	0.750			
0.2907	18603.19	3.9060	3.9060	0.9132	25.92	0.62	0.750			
0.2934	18778.43	3.9030	3.9032	0.9200	25.92	0.62	0.750			
0.2961	18953.56	3.9000	3.9002	0.9213	25.91	0.61	0.750			
0.2989	19128.81	3.8970	3.8970	0.9300	25.91	0.61	0.750			
0.3017	19309.48	3.8940	3.8941	0.9334	25.91	0.61	0.750			
0.3045	19490.08	3.8910	3.8912	0.9433	25.90	0.60	0.750			
0.3074	19675.35	3.8880	3.8880	0.9511	25.90	0.60	0.750			
0.3102	19855.58	3.8850	3.8846	0.9386	25.90	0.60	0.750			
0.3131	20038.06	3.8820	3.8820	0.9376	25.89	0.59	0.750			
0.3159	20218.11	3.8790	3.8791	0.9417	25.89	0.59	0.750			
0.3187	20399.49	3.8760	3.8760	0.9419	25.88	0.58	0.750			
0.3215	20579.17	3.8730	3.8729	0.9350	25.87	0.57	0.750			
0.3244	20759.35	3.8700	3.8700	0.9405	25.87	0.57	0.750			
0.3272	20940.47	3.8670	3.8671	0.9297	25.86	0.56	0.750			
0.3300	21117.63	3.8640	3.8640	0.9347	25.86	0.56	0.750			
0.3328	21297.21	3.8610	3.8611	0.9384	25.85	0.55	0.750			
0.3356	21475.61	3.8580	3.8576	0.9408	25.85	0.55	0.750			
0.3384	21658.90	3.8550	3.8551	0.9317	25.84	0.54	0.750			
0.3412	21836.10	3.8520	3.8521	0.9456	25.83	0.53	0.750			
0.3440	22018.47	3.8490	3.8491	0.9538	25.82	0.52	0.750			
0.3469	22199.93	3.8460	3.8458	0.9514	25.81	0.51	0.750			
0.3498	22385.88	3.8430	3.8431	0.9403	25.80	0.50	0.750			
0.3526	22563.38	3.8400	3.8403	0.9546	25.79	0.49	0.750			
0.3554	22747.03	3.8370	3.8371	0.9668	25.78	0.48	0.750			
0.3583	22933.47	3.8340	3.8343	0.9698	25.78	0.48	0.750	0.303	0.427	
0.3613	23120.89	3.8310	3.8312	0.9814	25.77	0.47	0.750			
0.3643	23313.13	3.8280	3.8282	0.9794	25.76	0.46	0.750			
0.3672	23502.74	3.8250	3.8252	0.9856	25.75	0.45	0.750			
0.3701	23689.35	3.8220	3.8221	0.9835	25.74	0.44	0.750			
0.3731	23878.08	3.8190	3.8185	0.9930	25.73	0.43	0.750			
0.3761	24069.59	3.8160	3.8161	0.9941	25.72	0.42	0.750			
0.3791	24261.28	3.8130	3.8132	1.0056	25.71	0.41	0.750			
0.3822	24459.18	3.8100	3.8101	1.0205	25.70	0.40	0.750			
0.3852	24653.10	3.8070	3.8071	1.0137	25.69	0.39	0.750			
0.3883	24848.58	3.8040	3.8041	1.0286	25.68	0.38	0.750			
0.3913	25046.14	3.8010	3.8011	1.0463	25.67	0.37	0.750			
0.3946	25251.88	3.7980	3.7980	1.0644	25.66	0.36	0.750			
0.3978	25456.81	3.7950	3.7949	1.0746	25.65	0.35	0.750			
0.4010	25663.00	3.7920	3.7921	1.0746	25.64	0.34	0.750			
0.4042	25867.39	3.7890	3.7892	1.0926	25.63	0.33	0.750			
0.4075	26077.11	3.7860	3.7861	1.1144	25.62	0.32	0.750			
0.4108	26291.64	3.7830	3.7825	1.1431	25.61	0.31	0.750			
0.4142	26509.43	3.7800	3.7803	1.1465	25.60	0.30	0.750			
0.4177	26732.76	3.7770	3.7772	1.1759	25.59	0.29	0.750			
0.4213	26965.81	3.7740	3.7740	1.1996	25.57	0.27	0.750			
0.4249	27194.48	3.7710	3.7711	1.2126	25.56	0.26	0.750			
0.4286	27429.49	3.7680	3.7681	1.2416	25.55	0.25	0.750			
0.4324	27672.06	3.7650	3.7651	1.2769	25.54	0.24	0.750			
0.4363	27925.23	3.7620	3.7621	1.3062	25.52	0.22	0.750			
0.4401	28166.31	3.7590	3.7592	1.3172	25.51	0.21	0.750			
0.4441	28425.28	3.7560	3.7561	1.3369	25.49	0.19	0.750			
0.4483	28688.77	3.7530	3.7524	1.3520	25.48	0.18	0.750			
0.4522	28943.58	3.7500	3.7502	1.3945	25.47	0.17	0.750			
0.4565	29215.54	3.7470	3.7473	1.4280	25.46	0.16	0.750			
0.4610	29502.16	3.7440	3.7438	1.4515	25.45	0.15	0.750			
0.4652	29774.86	3.7410	3.7408	1.4873	25.43	0.13	0.750			
0.4698	30064.05	3.7380	3.7384	1.5272	25.41	0.11	0.750			
0.4746	30373.35	3.7350	3.7352	1.5542	25.40	0.10	0.750			
0.4792	30669.52	3.7320	3.7322	1.6006	25.38	0.08	0.750			
0.4839	30971.85	3.7290	3.7290	1.6379	25.37	0.07	0.750			
0.4890	31293.93	3.7260	3.7255	1.6990	25.36	0.06	0.750			
0.4941	31624.08	3.7230	3.7229	1.7602	25.34	0.04	0.750			
0.4994	31964.75	3.7200	3.7196	1.8172	25.32	0.02	0.750			
0.5051	32325.58	3.7170	3.7167	1.8624	25.31	0.01	0.750			
0.5109	32696.83	3.7140	3.7138	1.9240	25.29	-0.01	0.750			
0.5167	33067.66	3.7110	3.7108	1.9735	25.27	-0.03	0.750			
0.5227	33454.68	3.7080	3.7076	2.0393	25.26	-0.04	0.750			
0.5288	33844.74	3.7050	3.7047	2.0951	25.25	-0.05	0.750			
0.5352	34251.67	3.7020	3.7019	2.2078	25.24	-0.06	0.750			
0.5418	34677.52	3.6990	3.6994	2.1754	25.22	-0.08	0.750			
0.5484	35097.39	3.6960	3.6961	2.2153	25.20	-0.10	0.750			
0.5549	35514.66	3.6930	3.6928	2.3649	25.19	-0.11	0.750			
0.5621	35972.73	3.6900	3.6898	2.4763	25.18	-0.12	0.750			
0.5697	36462.63	3.6870	3.6875	2.5204	25.17	-0.13	0.750			
0.5773	36945.80	3.6840	3.6838	2.5173	25.16	-0.14	0.750			
0.5846	37415.39	3.6810	3.6814	2.6260	25.14	-0.16	0.750			
0.5928	37941.68	3.6780	3.6778	2.7096	25.14	-0.16	0.750			
0.6007	38443.15	3.6750	3.6755	2.6035	25.14	-0.16	0.750			
0.6083	38928.12	3.6720	3.6716	2.6741	25.14	-0.16	0.750			
0.6166	39461.23	3.6690	3.6695	2.6738	25.13	-0.17	0.750			
0.6245	39965.70	3.6660	3.6666	2.5088	25.13	-0.17	0.750			
0.6317	40426.07	3.6630	3.6629	2.4058	25.14	-0.16	0.750			
0.6383	40851.74	3.6600	3.6600	2.1143	25.16	-0.14	0.750			
0.6447	41258.06	3.6570	3.6574	2.0659	25.17	-0.13	0.750			
0.6503	41620.46	3.6540	3.6535	1.8846	25.17	-0.13	0.750			
0.6555	41954.19	3.6510	3.6507	1.7029	25.18	-0.12	0.750			
0.6603	42258.95	3.6480	3.6479	1.5389	25.18	-0.12	0.750			
0.6649	42553.90	3.6450	3.6453	1.4500	25.19	-0.11	0.750			
0.6689	42807.49	3.6420	3.6423	1.3137	25.19	-0.11	0.750			
0.6726	43047.18	3.6390	3.6381	1.2070	25.20	-0.10	0.750			
0.6760	43266.23	3.6360	3.6363	1.0915	25.21	-0.09	0.750			
0.6792	43468.78	3.6330	3.6331	1.0407	25.21	-0.09	0.750			
0.6821	43657.11	3.6300	3.6302	1.0093	25.22	-0.08	0.750			
0.6851	43849.27	3.6270	3.6262	0.9913	25.22	-0.08	0.750			
0.6880	44030.90	3.6240	3.6242	0.9268	25.23	-0.07	0.750			
0.6907	44204.50	3.6210	3.6213	0.8939	25.24	-0.06	0.750			
0.6933	44372.81	3.6180	3.6185	0.8831	25.25	-0.05	0.750			
0.6959	44538.15	3.6150	3.6155	0.8458	25.26	-0.04	0.750			
0.6985	44701.62	3.6120	3.6126	0.8073	25.27	-0.03	0.750			
0.7009	44856.41	3.6090	3.6095	0.7480	25.28	-0.02	0.750			
0.7032	45005.54	3.6060	3.6062	0.7065	25.28	-0.02	0.750			
0.7052	45133.41	3.6030	3.6032	0.6276	25.29	-0.01	0.750			
0.7069	45243.01	3.6000	3.6001	0.5478	25.29	-0.01	0.750			
0.7085	45341.32	3.5970	3.5973	0.4964	25.30	-0.00	0.750			
0.7099	45432.12	3.5940	3.5936	0.4400	25.30	-0.00	0.750			
0.7111	45512.19	3.5910	3.5913	0.3928	25.30	0.00	0.750			
0.7123	45585.66	3.5880	3.5883	0.3500	25.31	0.01	0.750			
0.7132	45646.27	3.5850	3.5852	0.2893	25.31	0.01	0.750			
0.7140	45698.23	3.5820	3.5821	0.2358	25.31	0.01	0.750			
0.7146	45734.56	3.5790	3.5798	0.1767	25.31	0.01	0.750			
0.7150	45762.02	3.5760	3.5775	0.1287	25.31	0.01	0.750			
0.7153	45781.00	3.5730	3.5754	0.0868	25.31	0.01	0.750			
0.7156	45798.03	3.5700	3.5695	-0.0776	25.31	0.01	0.750			
