Ah_balance (normalized)	Ah_balance (mAh)	Voltage - fit (V)	Voltage -  interpolate (V)	dQ/dV (1/V)	Temperature (°C)	Temperature - diff (°C)	Current (C)	R_DC 0ms (mOhm)	R_DC 50ms (mOhm)	R_DC 50 ms PEC (mOhm)
0.0483	3089.23	4.1970	4.1971	0.7360	25.80	0.66	0.750			
0.0505	3231.77	4.1940	4.1940	0.7462	25.80	0.66	0.750			
0.0528	3376.38	4.1910	4.1909	0.7525	25.80	0.66	0.750			
0.0550	3521.38	4.1880	4.1880	0.7574	25.80	0.66	0.750			
0.0573	3667.94	4.1850	4.1850	0.7607	25.80	0.66	0.750			
0.0596	3813.32	4.1820	4.1820	0.7502	25.81	0.67	0.750			
0.0618	3953.63	4.1790	4.1792	0.7544	25.81	0.67	0.750			
0.0640	4099.05	4.1760	4.1761	0.7585	25.81	0.67	0.750			
0.0663	4245.25	4.1730	4.1732	0.7582	25.81	0.67	0.750			
0.0686	4391.65	4.1700	4.1702	0.7619	25.81	0.67	0.750			
0.0709	4539.58	4.1670	4.1672	0.7620	25.81	0.67	0.750			
0.0732	4687.58	4.1640	4.1640	0.7634	25.81	0.67	0.750			
0.0755	4829.59	4.1610	4.1610	0.7559	25.81	0.67	0.750			
0.0778	4976.04	4.1580	4.1576	0.7614	25.81	0.67	0.750			
0.0801	5124.07	4.1550	4.1551	0.7648	25.81	0.67	0.750			
0.0824	5271.66	4.1520	4.1521	0.7647	25.81	0.67	0.750			
0.0847	5419.45	4.1490	4.1490	0.7670	25.81	0.67	0.750			
0.0870	5565.85	4.1460	4.1459	0.7721	25.81	0.67	0.750			
0.0892	5711.90	4.1430	4.1430	0.7697	25.81	0.67	0.750			
0.0916	5860.22	4.1400	4.1400	0.7722	25.81	0.67	0.750			
0.0939	6010.66	4.1370	4.1370	0.7768	25.82	0.68	0.750			
0.0962	6159.79	4.1340	4.1341	0.7731	25.82	0.68	0.750			
0.0986	6307.37	4.1310	4.1311	0.7767	25.82	0.68	0.750			
0.1009	6455.12	4.1280	4.1280	0.7780	25.83	0.69	0.750			
0.1032	6605.09	4.1250	4.1251	0.7767	25.83	0.69	0.750			
0.1055	6754.55	4.1220	4.1221	0.7806	25.83	0.69	0.750			
0.1079	6905.27	4.1190	4.1190	0.7729	25.83	0.69	0.750			
0.1102	7053.93	4.1160	4.1160	0.7788	25.83	0.69	0.750			
0.1125	7199.73	4.1130	4.1131	0.7774	25.83	0.69	0.750			
0.1148	7349.84	4.1100	4.1097	0.7846	25.83	0.69	0.750			
0.1172	7501.99	4.1070	4.1071	0.7881	25.83	0.69	0.750			
0.1196	7656.02	4.1040	4.1041	0.7925	25.83	0.69	0.750			
0.1220	7810.02	4.1010	4.1011	0.7952	25.84	0.70	0.750			
0.1244	7963.88	4.0980	4.0979	0.7957	25.84	0.70	0.750			
0.1267	8111.56	4.0950	4.0950	0.7877	25.84	0.70	0.750			
0.1291	8263.61	4.0920	4.0920	0.7909	25.84	0.70	0.750			
0.1316	8420.49	4.0890	4.0889	0.7810	25.84	0.70	0.750			
0.1338	8565.93	4.0860	4.0861	0.7881	25.84	0.70	0.750			
0.1362	8715.27	4.0830	4.0831	0.7932	25.84	0.70	0.750			
0.1386	8867.21	4.0800	4.0801	0.7990	25.84	0.70	0.750			
0.1409	9020.18	4.0770	4.0767	0.8044	25.84	0.70	0.750			
0.1434	9179.87	4.0740	4.0742	0.8031	25.84	0.70	0.750			
0.1459	9335.92	4.0710	4.0711	0.8156	25.84	0.70	0.750			
0.1483	9493.74	4.0680	4.0680	0.8192	25.85	0.71	0.750			
0.1507	9647.60	4.0650	4.0651	0.8105	25.85	0.71	0.750			
0.1532	9802.76	4.0620	4.0618	0.8154	25.85	0.71	0.750			
0.1557	9961.60	4.0590	4.0591	0.8171	25.85	0.71	0.750			
0.1581	10120.00	4.0560	4.0561	0.8214	25.85	0.71	0.750			
0.1606	10278.16	4.0530	4.0530	0.8292	25.85	0.71	0.750			
0.1631	10436.94	4.0500	4.0500	0.8238	25.85	0.71	0.750			
0.1656	10595.62	4.0470	4.0469	0.8245	25.85	0.71	0.750			
0.1680	10754.45	4.0440	4.0441	0.8265	25.85	0.71	0.750			
0.1705	10912.09	4.0410	4.0411	0.8243	25.85	0.71	0.750			
0.1730	11069.29	4.0380	4.0380	0.8305	25.85	0.71	0.750			
0.1754	11226.39	4.0350	4.0351	0.8336	25.85	0.71	0.750			
0.1779	11386.37	4.0320	4.0315	0.8407	25.85	0.71	0.750			
0.1805	11550.37	4.0290	4.0291	0.8524	25.85	0.71	0.750			
0.1831	11715.74	4.0260	4.0261	0.8456	25.85	0.71	0.750			
0.1856	11878.63	4.0230	4.0230	0.8538	25.85	0.71	0.750			
0.1881	12040.22	4.0200	4.0202	0.8466	25.85	0.71	0.750			
0.1907	12202.23	4.0170	4.0171	0.8523	25.85	0.71	0.750			
0.1933	12368.46	4.0140	4.0141	0.8549	25.85	0.71	0.750			
0.1958	12533.38	4.0110	4.0111	0.8592	25.85	0.71	0.750			
0.1985	12701.40	4.0080	4.0080	0.8636	25.85	0.71	0.750			
0.2010	12865.79	4.0050	4.0051	0.8564	25.85	0.71	0.750			
0.2036	13029.83	4.0020	4.0020	0.8605	25.85	0.71	0.750			
0.2063	13200.23	3.9990	3.9989	0.8502	25.85	0.71	0.750			
0.2088	13360.86	3.9960	3.9960	0.8538	25.85	0.71	0.750			
0.2113	13522.73	3.9930	3.9931	0.8631	25.85	0.71	0.750			
0.2139	13687.15	3.9900	3.9902	0.8700	25.85	0.71	0.750			
0.2165	13855.00	3.9870	3.9871	0.8769	25.85	0.71	0.750			
0.2192	14025.77	3.9840	3.9840	0.8761	25.85	0.71	0.750			
0.2218	14196.08	3.9810	3.9811	0.8835	25.85	0.71	0.750			
0.2245	14367.39	3.9780	3.9782	0.8898	25.85	0.71	0.750			
0.2271	14536.10	3.9750	3.9746	0.8838	25.85	0.71	0.750			
0.2298	14707.82	3.9720	3.9720	0.8813	25.85	0.71	0.750			
0.2324	14875.58	3.9690	3.9690	0.8844	25.85	0.71	0.750			
0.2351	15046.22	3.9660	3.9661	0.8892	25.85	0.71	0.750			
0.2378	15220.77	3.9630	3.9630	0.8945	25.85	0.71	0.750			
0.2405	15389.94	3.9600	3.9599	0.8892	25.85	0.71	0.750			
0.2432	15563.83	3.9570	3.9570	0.8755	25.85	0.71	0.750			
0.2458	15730.50	3.9540	3.9541	0.8786	25.85	0.71	0.750			
0.2484	15896.34	3.9510	3.9511	0.8864	25.85	0.71	0.750			
0.2510	16064.91	3.9480	3.9482	0.8882	25.85	0.71	0.750			
0.2537	16236.60	3.9450	3.9451	0.8888	25.85	0.71	0.750			
0.2564	16409.82	3.9420	3.9421	0.8842	25.85	0.71	0.750			
0.2591	16580.66	3.9390	3.9392	0.8920	25.85	0.71	0.750			
0.2618	16753.13	3.9360	3.9361	0.8951	25.85	0.71	0.750			
0.2644	16922.54	3.9330	3.9328	0.8859	25.85	0.71	0.750			
0.2671	17091.44	3.9300	3.9301	0.8927	25.85	0.71	0.750			
0.2697	17263.96	3.9270	3.9271	0.8931	25.85	0.71	0.750			
0.2725	17437.07	3.9240	3.9240	0.9000	25.84	0.70	0.750			
0.2752	17609.74	3.9210	3.9211	0.9094	25.84	0.70	0.750			
0.2778	17779.32	3.9180	3.9178	0.9206	25.84	0.70	0.750			
0.2806	17958.52	3.9150	3.9150	0.9279	25.83	0.69	0.750			
0.2834	18140.01	3.9120	3.9119	0.9365	25.83	0.69	0.750			
0.2863	18323.24	3.9090	3.9094	0.9398	25.82	0.68	0.750			
0.2892	18506.75	3.9060	3.9060	0.9341	25.81	0.67	0.750			
0.2920	18687.06	3.9030	3.9031	0.9261	25.81	0.67	0.750			
0.2947	18857.93	3.9000	3.9000	0.8972	25.80	0.66	0.750			
0.2974	19031.07	3.8970	3.8970	0.8996	25.80	0.66	0.750			
0.3001	19206.62	3.8940	3.8940	0.8995	25.79	0.65	0.750			
0.3027	19375.60	3.8910	3.8911	0.8933	25.79	0.65	0.750			
0.3054	19547.46	3.8880	3.8880	0.8938	25.78	0.64	0.750			
0.3081	19718.29	3.8850	3.8850	0.8958	25.78	0.64	0.750			
0.3108	19890.56	3.8820	3.8819	0.8941	25.77	0.63	0.750			
0.3135	20061.92	3.8790	3.8791	0.8958	25.76	0.62	0.750			
0.3162	20234.20	3.8760	3.8761	0.8993	25.76	0.62	0.750			
0.3189	20412.02	3.8730	3.8729	0.8911	25.75	0.61	0.750			
0.3216	20579.44	3.8700	3.8700	0.8937	25.74	0.60	0.750			
0.3242	20748.77	3.8670	3.8672	0.9006	25.73	0.59	0.750			
0.3269	20920.71	3.8640	3.8639	0.9066	25.72	0.58	0.750			
0.3296	21096.81	3.8610	3.8611	0.9146	25.71	0.57	0.750			
0.3324	21271.65	3.8580	3.8580	0.9214	25.70	0.56	0.750			
0.3352	21451.65	3.8550	3.8551	0.9239	25.70	0.56	0.750			
0.3380	21634.23	3.8520	3.8520	0.9332	25.69	0.55	0.750			
0.3408	21808.53	3.8490	3.8491	0.9287	25.68	0.54	0.750			
0.3435	21986.11	3.8460	3.8459	0.9340	25.67	0.53	0.750			
0.3463	22164.75	3.8430	3.8430	0.9413	25.66	0.52	0.750			
0.3492	22346.59	3.8400	3.8399	0.9512	25.65	0.51	0.750	0.346	0.454	
0.3521	22531.61	3.8370	3.8369	0.9565	25.64	0.50	0.750			
0.3550	22719.26	3.8340	3.8341	0.9538	25.63	0.49	0.750			
0.3578	22901.67	3.8310	3.8310	0.9606	25.62	0.48	0.750			
0.3607	23084.03	3.8280	3.8281	0.9651	25.61	0.47	0.750			
0.3636	23268.29	3.8250	3.8251	0.9706	25.60	0.46	0.750			
0.3665	23457.17	3.8220	3.8221	0.9785	25.58	0.44	0.750			
0.3695	23646.11	3.8190	3.8191	0.9923	25.57	0.43	0.750			
0.3725	23839.21	3.8160	3.8160	1.0038	25.56	0.42	0.750			
0.3755	24033.20	3.8130	3.8130	1.0137	25.55	0.41	0.750			
0.3786	24228.32	3.8100	3.8100	1.0133	25.54	0.40	0.750			
0.3816	24423.38	3.8070	3.8070	1.0221	25.53	0.39	0.750			
0.3847	24619.56	3.8040	3.8040	1.0340	25.52	0.38	0.750			
0.3878	24818.99	3.8010	3.8010	1.0480	25.51	0.37	0.750			
0.3910	25023.57	3.7980	3.7980	1.0462	25.50	0.36	0.750			
0.3941	25223.36	3.7950	3.7950	1.0646	25.48	0.34	0.750			
0.3973	25427.43	3.7920	3.7921	1.0820	25.47	0.33	0.750			
0.4006	25636.96	3.7890	3.7891	1.1052	25.46	0.32	0.750			
0.4039	25850.91	3.7860	3.7859	1.1143	25.44	0.30	0.750			
0.4073	26065.56	3.7830	3.7831	1.1400	25.43	0.29	0.750			
0.4107	26286.71	3.7800	3.7801	1.1641	25.42	0.28	0.750			
0.4143	26515.65	3.7770	3.7767	1.1815	25.40	0.26	0.750			
0.4178	26742.29	3.7740	3.7741	1.1961	25.39	0.25	0.750			
0.4214	26972.34	3.7710	3.7711	1.2203	25.38	0.24	0.750			
0.4252	27210.91	3.7680	3.7680	1.2420	25.37	0.23	0.750			
0.4289	27452.16	3.7650	3.7649	1.2706	25.35	0.21	0.750			
0.4327	27694.88	3.7620	3.7620	1.2901	25.34	0.20	0.750			
0.4367	27948.52	3.7590	3.7591	1.3112	25.32	0.18	0.750			
0.4406	28201.30	3.7560	3.7559	1.3437	25.31	0.17	0.750			
0.4447	28459.59	3.7530	3.7531	1.3719	25.30	0.16	0.750			
0.4488	28725.54	3.7500	3.7500	1.4006	25.28	0.14	0.750			
0.4531	28998.74	3.7470	3.7469	1.4240	25.27	0.13	0.750			
0.4574	29271.66	3.7440	3.7441	1.4597	25.25	0.11	0.750			
0.4618	29555.49	3.7410	3.7412	1.4911	25.24	0.10	0.750			
0.4663	29844.95	3.7380	3.7375	1.5423	25.23	0.09	0.750			
0.4710	30143.76	3.7350	3.7350	1.5818	25.22	0.08	0.750			
0.4758	30452.84	3.7320	3.7321	1.6302	25.20	0.06	0.750			
0.4809	30777.87	3.7290	3.7291	1.6923	25.19	0.05	0.750			
0.4861	31107.50	3.7260	3.7260	1.7305	25.17	0.03	0.750			
0.4913	31440.25	3.7230	3.7231	1.7647	25.15	0.01	0.750			
0.4966	31780.00	3.7200	3.7202	1.8000	25.13	-0.01	0.750			
0.5020	32128.17	3.7170	3.7170	1.8622	25.11	-0.03	0.750			
0.5076	32488.05	3.7140	3.7139	1.9160	25.10	-0.04	0.750			
0.5134	32859.76	3.7110	3.7109	2.0085	25.08	-0.06	0.750			
0.5195	33250.43	3.7080	3.7081	2.0085	25.07	-0.07	0.750			
0.5257	33645.95	3.7050	3.7051	2.0758	25.06	-0.08	0.750			
0.5319	34040.14	3.7020	3.7018	2.1498	25.05	-0.09	0.750			
0.5384	34456.67	3.6990	3.6987	2.1978	25.03	-0.11	0.750			
0.5453	34900.15	3.6960	3.6960	2.2918	25.02	-0.12	0.750			
0.5522	35337.83	3.6930	3.6929	2.3139	25.01	-0.13	0.750			
0.5592	35791.17	3.6900	3.6903	2.4020	25.00	-0.14	0.750			
0.5665	36252.88	3.6870	3.6870	2.4386	25.00	-0.14	0.750			
0.5740	36738.70	3.6840	3.6840	2.4621	24.99	-0.15	0.750			
0.5816	37219.66	3.6810	3.6809	2.5203	24.98	-0.16	0.750			
0.5891	37704.15	3.6780	3.6780	2.4866	24.98	-0.16	0.750			
0.5964	38167.94	3.6750	3.6750	2.4288	24.98	-0.16	0.750			
0.6038	38642.74	3.6720	3.6718	2.3288	24.98	-0.16	0.750			
0.6108	39089.43	3.6690	3.6690	2.2549	24.98	-0.16	0.750			
0.6172	39500.35	3.6660	3.6660	2.0771	24.98	-0.16	0.750			
0.6233	39889.57	3.6630	3.6630	1.9282	24.99	-0.15	0.750			
0.6289	40246.44	3.6600	3.6602	1.7972	25.00	-0.14	0.750			
0.6340	40578.23	3.6570	3.6571	1.6793	25.01	-0.13	0.750			
0.6389	40887.43	3.6540	3.6539	1.5553	25.02	-0.12	0.750			
0.6433	41172.06	3.6510	3.6511	1.4424	25.03	-0.11	0.750			
0.6475	41441.18	3.6480	3.6481	1.3522	25.03	-0.11	0.750			
0.6513	41685.03	3.6450	3.6449	1.2570	25.04	-0.10	0.750			
0.6550	41919.67	3.6420	3.6419	1.1835	25.04	-0.10	0.750			
0.6583	42131.33	3.6390	3.6390	1.1076	25.05	-0.09	0.750			
0.6615	42335.89	3.6360	3.6361	1.0576	25.05	-0.09	0.750			
0.6646	42533.18	3.6330	3.6326	1.0156	25.06	-0.08	0.750			
0.6675	42722.64	3.6300	3.6300	0.9730	25.07	-0.07	0.750			
0.6704	42903.59	3.6270	3.6270	0.9391	25.07	-0.07	0.750			
0.6732	43083.23	3.6240	3.6240	0.9050	25.08	-0.06	0.750			
0.6759	43256.27	3.6210	3.6210	0.8690	25.09	-0.05	0.750			
0.6784	43417.45	3.6180	3.6182	0.8244	25.09	-0.05	0.750			
0.6808	43572.95	3.6150	3.6150	0.7824	25.10	-0.04	0.750			
0.6831	43720.29	3.6120	3.6119	0.7322	25.11	-0.03	0.750			
0.6853	43856.80	3.6090	3.6089	0.6844	25.12	-0.02	0.750			
0.6872	43982.22	3.6060	3.6061	0.6328	25.13	-0.01	0.750			
0.6891	44099.88	3.6030	3.6031	0.5834	25.14	-0.00	0.750			
0.6907	44207.00	3.6000	3.6000	0.5321	25.14	0.00	0.750			
0.6922	44303.78	3.5970	3.5970	0.4831	25.15	0.01	0.750			
0.6936	44391.18	3.5940	3.5940	0.4337	25.15	0.01	0.750			
0.6948	44469.99	3.5910	3.5910	0.3872	25.16	0.02	0.750			
0.6959	44540.06	3.5880	3.5879	0.3368	25.16	0.02	0.750			
0.6969	44600.48	3.5850	3.5850	0.2892	25.17	0.03	0.750			
0.6977	44652.04	3.5820	3.5821	0.2408	25.17	0.03	0.750			
0.6983	44694.05	3.5790	3.5790	0.1896	25.17	0.03	0.750			
0.6988	44725.51	3.5760	3.5762	0.1364	25.17	0.03	0.750			
0.6992	44746.49	3.5730	3.5742	0.0749	25.18	0.04	0.750			
