Ah_balance (normalized)	Ah_balance (mAh)	Voltage - fit (V)	Voltage -  interpolate (V)	dQ/dV (1/V)	Temperature (°C)	Temperature - diff (°C)	Current (C)	R_DC 0ms (mOhm)	R_DC 50ms (mOhm)	R_DC 50 ms PEC (mOhm)
0.0507	3244.24	4.1970	4.1974	1.7547	25.12	1.08	0.653			
0.0552	3534.83	4.1940	4.1959	1.3974	25.11	1.07	0.751			
0.0587	3753.80	4.1910	4.1912	1.0860	25.11	1.07	0.750			
0.0613	3925.78	4.1880	4.1881	0.8946	25.11	1.07	0.750			
0.0637	4075.36	4.1850	4.1850	0.7798	25.11	1.07	0.750			
0.0660	4226.14	4.1820	4.1820	0.7840	25.10	1.06	0.750			
0.0684	4376.62	4.1790	4.1791	0.7825	25.10	1.06	0.750			
0.0707	4527.09	4.1760	4.1756	0.7850	25.10	1.06	0.750			
0.0731	4678.79	4.1730	4.1731	0.7837	25.10	1.06	0.750			
0.0755	4830.70	4.1700	4.1700	0.7801	25.09	1.05	0.750			
0.0778	4979.42	4.1670	4.1670	0.7863	25.09	1.05	0.750			
0.0801	5129.14	4.1640	4.1641	0.7885	25.09	1.05	0.750			
0.0825	5279.40	4.1610	4.1609	0.7871	25.08	1.04	0.750			
0.0849	5431.25	4.1580	4.1580	0.7902	25.08	1.04	0.750			
0.0872	5580.61	4.1550	4.1552	0.8020	25.08	1.04	0.750			
0.0896	5734.07	4.1520	4.1521	0.8050	25.08	1.04	0.750			
0.0920	5886.19	4.1490	4.1491	0.8189	25.07	1.03	0.750			
0.0945	6046.17	4.1460	4.1459	0.8355	25.07	1.03	0.750			
0.0970	6210.92	4.1430	4.1433	0.8417	25.07	1.03	0.750			
0.0996	6377.46	4.1400	4.1403	0.8442	25.06	1.02	0.750			
0.1023	6544.88	4.1370	4.1371	0.8468	25.05	1.01	0.750			
0.1048	6706.51	4.1340	4.1340	0.8326	25.05	1.01	0.750			
0.1072	6857.72	4.1310	4.1309	0.8079	25.04	1.00	0.750			
0.1096	7012.94	4.1280	4.1281	0.8102	25.04	1.00	0.750			
0.1120	7170.38	4.1250	4.1250	0.8076	25.04	1.00	0.750			
0.1144	7324.00	4.1220	4.1220	0.8094	25.04	1.00	0.750			
0.1169	7480.32	4.1190	4.1190	0.8130	25.03	0.99	0.750			
0.1193	7634.83	4.1160	4.1160	0.8116	25.03	0.99	0.750			
0.1217	7790.46	4.1130	4.1129	0.8150	25.03	0.99	0.750			
0.1242	7949.54	4.1100	4.1101	0.8117	25.02	0.98	0.750			
0.1266	8105.47	4.1070	4.1070	0.8163	25.02	0.98	0.750			
0.1291	8262.17	4.1040	4.1040	0.8204	25.02	0.98	0.750			
0.1315	8418.92	4.1010	4.1011	0.8203	25.01	0.97	0.750			
0.1340	8575.57	4.0980	4.0979	0.8233	25.01	0.97	0.750			
0.1365	8734.97	4.0950	4.0951	0.8259	25.01	0.97	0.750			
0.1390	8893.65	4.0920	4.0920	0.8315	25.00	0.96	0.750			
0.1415	9055.01	4.0890	4.0890	0.8357	25.00	0.96	0.750			
0.1440	9214.89	4.0860	4.0860	0.8348	24.99	0.95	0.750			
0.1465	9375.06	4.0830	4.0830	0.8377	24.99	0.95	0.750			
0.1490	9537.56	4.0800	4.0801	0.8394	24.98	0.94	0.750			
0.1515	9698.84	4.0770	4.0770	0.8414	24.98	0.94	0.750			
0.1541	9861.08	4.0740	4.0740	0.8411	24.97	0.93	0.750			
0.1566	10021.21	4.0710	4.0710	0.8447	24.96	0.92	0.750			
0.1591	10183.10	4.0680	4.0680	0.8494	24.96	0.92	0.750			
0.1617	10348.27	4.0650	4.0649	0.8442	24.95	0.91	0.750			
0.1642	10510.08	4.0620	4.0620	0.8495	24.95	0.91	0.750			
0.1668	10672.55	4.0590	4.0591	0.8567	24.95	0.91	0.750			
0.1693	10837.06	4.0560	4.0560	0.8620	24.94	0.90	0.750			
0.1719	11003.30	4.0530	4.0530	0.8660	24.94	0.90	0.750			
0.1745	11170.26	4.0500	4.0500	0.8648	24.93	0.89	0.750			
0.1771	11337.49	4.0470	4.0471	0.8688	24.93	0.89	0.750			
0.1798	11504.98	4.0440	4.0440	0.8746	24.93	0.89	0.750			
0.1824	11671.66	4.0410	4.0409	0.8731	24.92	0.88	0.750			
0.1850	11839.46	4.0380	4.0380	0.8749	24.92	0.88	0.750			
0.1876	12008.55	4.0350	4.0350	0.8743	24.91	0.87	0.750			
0.1903	12176.35	4.0320	4.0321	0.8801	24.91	0.87	0.750			
0.1929	12346.42	4.0290	4.0290	0.8882	24.90	0.86	0.750			
0.1956	12516.15	4.0260	4.0257	0.8874	24.90	0.86	0.750			
0.1982	12686.61	4.0230	4.0229	0.8849	24.90	0.86	0.750			
0.2009	12857.06	4.0200	4.0201	0.8930	24.89	0.85	0.750			
0.2036	13029.85	4.0170	4.0170	0.8999	24.89	0.85	0.750			
0.2063	13203.67	4.0140	4.0140	0.9000	24.88	0.84	0.750			
0.2090	13374.04	4.0110	4.0111	0.8974	24.88	0.84	0.750			
0.2117	13547.76	4.0080	4.0080	0.8978	24.87	0.83	0.750			
0.2144	13721.19	4.0050	4.0050	0.9053	24.87	0.83	0.750			
0.2171	13895.18	4.0020	4.0020	0.9069	24.87	0.83	0.750			
0.2198	14067.61	3.9990	3.9990	0.9071	24.86	0.82	0.750			
0.2225	14242.74	3.9960	3.9961	0.9139	24.86	0.82	0.750			
0.2253	14419.50	3.9930	3.9930	0.9153	24.85	0.81	0.750			
0.2280	14594.15	3.9900	3.9900	0.9219	24.85	0.81	0.750			
0.2308	14772.85	3.9870	3.9870	0.9250	24.84	0.80	0.750			
0.2336	14949.47	3.9840	3.9838	0.9244	24.84	0.80	0.750			
0.2364	15129.15	3.9810	3.9811	0.9233	24.84	0.80	0.750			
0.2392	15305.68	3.9780	3.9781	0.9252	24.83	0.79	0.750			
0.2419	15483.78	3.9750	3.9750	0.9261	24.83	0.79	0.750			
0.2447	15660.13	3.9720	3.9720	0.9236	24.82	0.78	0.750			
0.2474	15836.66	3.9690	3.9690	0.9309	24.82	0.78	0.750			
0.2503	16017.94	3.9660	3.9660	0.9282	24.81	0.77	0.750			
0.2530	16194.76	3.9630	3.9631	0.9335	24.81	0.77	0.750			
0.2559	16374.90	3.9600	3.9601	0.9408	24.80	0.76	0.750			
0.2587	16554.42	3.9570	3.9567	0.9444	24.80	0.76	0.750			
0.2615	16737.05	3.9540	3.9541	0.9438	24.79	0.75	0.750			
0.2643	16917.91	3.9510	3.9511	0.9510	24.79	0.75	0.750			
0.2672	17101.89	3.9480	3.9481	0.9553	24.78	0.74	0.750			
0.2701	17286.16	3.9450	3.9449	0.9522	24.77	0.73	0.750			
0.2730	17470.98	3.9420	3.9420	0.9458	24.76	0.72	0.750			
0.2758	17652.33	3.9390	3.9390	0.9491	24.76	0.72	0.750			
0.2786	17833.28	3.9360	3.9361	0.9554	24.75	0.71	0.750			
0.2815	18017.66	3.9330	3.9331	0.9621	24.74	0.70	0.750			
0.2844	18200.42	3.9300	3.9300	0.9602	24.74	0.70	0.750			
0.2873	18386.31	3.9270	3.9271	0.9637	24.73	0.69	0.750			
0.2902	18572.97	3.9240	3.9241	0.9696	24.73	0.69	0.750			
0.2931	18759.87	3.9210	3.9210	0.9705	24.72	0.68	0.750			
0.2960	18945.37	3.9180	3.9178	0.9681	24.72	0.68	0.750			
0.2989	19130.45	3.9150	3.9150	0.9643	24.71	0.67	0.750			
0.3018	19316.46	3.9120	3.9121	0.9696	24.70	0.66	0.750			
0.3047	19503.72	3.9090	3.9090	0.9748	24.69	0.65	0.750			
0.3077	19689.71	3.9060	3.9059	0.9742	24.68	0.64	0.750			
0.3106	19879.32	3.9030	3.9030	0.9724	24.68	0.64	0.750			
0.3135	20065.25	3.9000	3.9000	0.9792	24.67	0.63	0.750			
0.3165	20253.42	3.8970	3.8971	0.9839	24.67	0.63	0.750			
0.3194	20442.37	3.8940	3.8940	0.9848	24.66	0.62	0.750			
0.3224	20633.28	3.8910	3.8911	0.9863	24.66	0.62	0.750			
0.3253	20822.10	3.8880	3.8880	0.9917	24.65	0.61	0.750			
0.3283	21012.73	3.8850	3.8851	1.0013	24.64	0.60	0.750			
0.3314	21206.98	3.8820	3.8821	1.0101	24.63	0.59	0.750			
0.3344	21401.12	3.8790	3.8790	1.0061	24.62	0.58	0.750			
0.3374	21595.35	3.8760	3.8761	1.0115	24.61	0.57	0.750			
0.3405	21790.47	3.8730	3.8731	1.0151	24.60	0.56	0.750			
0.3435	21985.36	3.8700	3.8700	1.0176	24.59	0.55	0.750			
0.3466	22180.13	3.8670	3.8670	1.0147	24.58	0.54	0.750			
0.3496	22374.26	3.8640	3.8640	1.0193	24.57	0.53	0.750			
0.3527	22569.75	3.8610	3.8610	1.0289	24.55	0.51	0.750			
0.3558	22768.27	3.8580	3.8580	1.0401	24.54	0.50	0.750			
0.3589	22969.86	3.8550	3.8551	1.0450	24.53	0.49	0.750			
0.3621	23171.45	3.8520	3.8520	1.0576	24.52	0.48	0.750			
0.3653	23376.18	3.8490	3.8490	1.0665	24.50	0.46	0.750			
0.3685	23582.41	3.8460	3.8461	1.0762	24.49	0.45	0.750			
0.3717	23789.30	3.8430	3.8430	1.0830	24.48	0.44	0.750			
0.3750	23997.57	3.8400	3.8400	1.0919	24.46	0.42	0.750			
0.3782	24207.26	3.8370	3.8370	1.1001	24.44	0.40	0.750			
0.3816	24420.26	3.8340	3.8340	1.1086	24.43	0.39	0.750			
0.3849	24635.44	3.8310	3.8310	1.1051	24.41	0.37	0.750			
0.3883	24849.64	3.8280	3.8280	1.1158	24.40	0.36	0.750			
0.3916	25062.98	3.8250	3.8251	1.1203	24.38	0.34	0.750			
0.3950	25277.17	3.8220	3.8219	1.1259	24.36	0.32	0.750			
0.3983	25494.05	3.8190	3.8190	1.1269	24.35	0.31	0.750			
0.4017	25709.97	3.8160	3.8160	1.1340	24.33	0.29	0.750			
0.4051	25928.56	3.8130	3.8131	1.1408	24.31	0.27	0.750			
0.4086	26151.09	3.8100	3.8098	1.1456	24.29	0.25	0.750			
0.4120	26369.60	3.8070	3.8070	1.1447	24.27	0.23	0.750			
0.4155	26589.31	3.8040	3.8040	1.1484	24.26	0.22	0.750			
0.4189	26810.98	3.8010	3.8010	1.1519	24.24	0.20	0.750			
0.4224	27032.92	3.7980	3.7980	1.1423	24.22	0.18	0.750			
0.4258	27251.36	3.7950	3.7950	1.1449	24.21	0.17	0.750			
0.4292	27471.54	3.7920	3.7921	1.1462	24.20	0.16	0.750			
0.4327	27694.07	3.7890	3.7888	1.1398	24.18	0.14	0.750			
0.4361	27911.35	3.7860	3.7860	1.1356	24.17	0.13	0.750			
0.4395	28128.97	3.7830	3.7831	1.1314	24.15	0.11	0.750			
0.4429	28347.35	3.7800	3.7800	1.1297	24.13	0.09	0.750			
0.4463	28564.95	3.7770	3.7768	1.1106	24.12	0.08	0.750			
0.4496	28777.49	3.7740	3.7741	1.0923	24.10	0.06	0.750			
0.4530	28989.73	3.7710	3.7710	1.0660	24.09	0.05	0.750			
0.4562	29194.39	3.7680	3.7680	1.0260	24.08	0.04	0.750			
0.4592	29389.97	3.7650	3.7651	0.9666	24.07	0.03	0.750			
0.4621	29572.12	3.7620	3.7620	0.9023	24.06	0.02	0.750			
0.4647	29741.79	3.7590	3.7590	0.8251	24.05	0.01	0.750			
0.4671	29893.27	3.7560	3.7560	0.7480	24.05	0.01	0.750			
0.4692	30027.64	3.7530	3.7531	0.6704	24.04	0.00	0.750			
0.4711	30147.62	3.7500	3.7499	0.5979	24.04	-0.00	0.750			
0.4727	30252.36	3.7470	3.7471	0.5350	24.04	-0.00	0.750			
0.4742	30347.75	3.7440	3.7440	0.4801	24.03	-0.01	0.750			
0.4755	30432.79	3.7410	3.7409	0.4367	24.03	-0.01	0.750			
0.4768	30512.37	3.7380	3.7379	0.3980	24.03	-0.01	0.750			
0.4779	30582.58	3.7350	3.7349	0.3599	24.02	-0.02	0.750			
0.4789	30648.62	3.7320	3.7321	0.3289	24.02	-0.02	0.750			
0.4798	30708.91	3.7290	3.7290	0.2975	24.02	-0.02	0.750			
0.4807	30763.22	3.7260	3.7260	0.2642	24.02	-0.02	0.750			
0.4814	30811.09	3.7230	3.7229	0.2312	24.01	-0.03	0.750			
0.4821	30851.69	3.7200	3.7202	0.1978	24.01	-0.03	0.750			
0.4826	30886.88	3.7170	3.7171	0.1632	24.01	-0.03	0.750			
0.4830	30914.88	3.7140	3.7141	0.1279	24.01	-0.03	0.750			
