Ah_balance (normalized)	Ah_balance (mAh)	Voltage - fit (V)	Voltage -  interpolate (V)	dQ/dV (1/V)	Temperature (°C)	Temperature - diff (°C)	Current (C)	R_DC 0ms (mOhm)	R_DC 50ms (mOhm)	R_DC 50 ms PEC (mOhm)
0.0502	3212.66	4.1960	4.1960	0.7524	25.26	0.56	0.750			
0.0524	3356.43	4.1930	4.1930	0.7483	25.26	0.56	0.750			
0.0547	3499.01	4.1900	4.1901	0.7487	25.26	0.56	0.750			
0.0569	3643.37	4.1870	4.1870	0.7507	25.25	0.55	0.750			
0.0592	3787.40	4.1840	4.1839	0.7511	25.25	0.55	0.750			
0.0614	3931.85	4.1810	4.1810	0.7549	25.25	0.55	0.750			
0.0637	4078.05	4.1780	4.1781	0.7571	25.24	0.54	0.750			
0.0660	4222.21	4.1750	4.1750	0.7600	25.24	0.54	0.750			
0.0683	4369.14	4.1720	4.1720	0.7617	25.24	0.54	0.750			
0.0705	4514.56	4.1690	4.1690	0.7627	25.23	0.53	0.750			
0.0728	4662.18	4.1660	4.1660	0.7646	25.23	0.53	0.750			
0.0752	4810.82	4.1630	4.1630	0.7635	25.23	0.53	0.750			
0.0774	4956.61	4.1600	4.1600	0.7627	25.23	0.53	0.750			
0.0797	5102.47	4.1570	4.1571	0.7619	25.22	0.52	0.750			
0.0820	5248.52	4.1540	4.1540	0.7633	25.22	0.52	0.750			
0.0843	5395.37	4.1510	4.1510	0.7649	25.22	0.52	0.750			
0.0866	5541.75	4.1480	4.1481	0.7651	25.22	0.52	0.750			
0.0889	5689.51	4.1450	4.1450	0.7691	25.22	0.52	0.750			
0.0912	5837.07	4.1420	4.1420	0.7707	25.22	0.52	0.750			
0.0935	5984.92	4.1390	4.1390	0.7693	25.22	0.52	0.750			
0.0958	6132.73	4.1360	4.1360	0.7754	25.22	0.52	0.750			
0.0982	6282.54	4.1330	4.1330	0.7775	25.22	0.52	0.750			
0.1005	6433.30	4.1300	4.1299	0.7764	25.22	0.52	0.750			
0.1028	6582.34	4.1270	4.1271	0.7777	25.22	0.52	0.750			
0.1052	6731.48	4.1240	4.1240	0.7792	25.22	0.52	0.750			
0.1075	6880.77	4.1210	4.1210	0.7796	25.22	0.52	0.750			
0.1098	7030.30	4.1180	4.1180	0.7811	25.22	0.52	0.750			
0.1122	7179.67	4.1150	4.1151	0.7811	25.22	0.52	0.750			
0.1145	7331.01	4.1120	4.1120	0.7845	25.22	0.52	0.750			
0.1169	7481.93	4.1090	4.1090	0.7847	25.21	0.51	0.750			
0.1192	7631.54	4.1060	4.1060	0.7849	25.21	0.51	0.750			
0.1216	7782.11	4.1030	4.1032	0.7894	25.21	0.51	0.750			
0.1240	7934.31	4.1000	4.1000	0.7920	25.21	0.51	0.750			
0.1264	8087.40	4.0970	4.0969	0.7889	25.21	0.51	0.750			
0.1287	8239.60	4.0940	4.0941	0.7913	25.21	0.51	0.750			
0.1311	8390.10	4.0910	4.0911	0.7937	25.21	0.51	0.750			
0.1335	8542.50	4.0880	4.0879	0.7996	25.21	0.51	0.750			
0.1359	8695.76	4.0850	4.0850	0.8000	25.21	0.51	0.750			
0.1383	8851.35	4.0820	4.0820	0.7988	25.21	0.51	0.750			
0.1407	9006.44	4.0790	4.0790	0.8075	25.20	0.50	0.750			
0.1432	9162.40	4.0760	4.0760	0.8078	25.20	0.50	0.750			
0.1456	9315.25	4.0730	4.0729	0.8049	25.20	0.50	0.750			
0.1479	9468.06	4.0700	4.0701	0.8143	25.20	0.50	0.750			
0.1504	9625.75	4.0670	4.0670	0.8128	25.20	0.50	0.750			
0.1529	9782.59	4.0640	4.0639	0.8215	25.20	0.50	0.750			
0.1553	9942.26	4.0610	4.0611	0.8288	25.20	0.50	0.750			
0.1578	10101.11	4.0580	4.0582	0.8294	25.20	0.50	0.750			
0.1603	10261.57	4.0550	4.0550	0.8314	25.20	0.50	0.750			
0.1628	10421.83	4.0520	4.0520	0.8253	25.20	0.50	0.750			
0.1653	10578.39	4.0490	4.0491	0.8284	25.20	0.50	0.750			
0.1678	10739.18	4.0460	4.0460	0.8372	25.20	0.50	0.750			
0.1703	10897.30	4.0430	4.0429	0.8355	25.20	0.50	0.750			
0.1728	11059.30	4.0400	4.0401	0.8368	25.20	0.50	0.750			
0.1754	11222.73	4.0370	4.0370	0.8338	25.20	0.50	0.750			
0.1778	11382.09	4.0340	4.0341	0.8362	25.20	0.50	0.750			
0.1803	11542.15	4.0310	4.0311	0.8433	25.20	0.50	0.750			
0.1828	11702.22	4.0280	4.0279	0.8405	25.20	0.50	0.750			
0.1854	11863.90	4.0250	4.0250	0.8454	25.20	0.50	0.750			
0.1879	12028.24	4.0220	4.0221	0.8431	25.20	0.50	0.750			
0.1905	12190.96	4.0190	4.0191	0.8528	25.20	0.50	0.750			
0.1931	12356.07	4.0160	4.0160	0.8580	25.20	0.50	0.750			
0.1956	12518.13	4.0130	4.0129	0.8578	25.20	0.50	0.750			
0.1982	12683.41	4.0100	4.0101	0.8628	25.20	0.50	0.750			
0.2008	12851.48	4.0070	4.0070	0.8646	25.20	0.50	0.750			
0.2034	13017.48	4.0040	4.0041	0.8656	25.20	0.50	0.750			
0.2060	13183.70	4.0010	4.0011	0.8623	25.20	0.50	0.750			
0.2086	13349.91	3.9980	3.9977	0.8656	25.20	0.50	0.750			
0.2112	13515.81	3.9950	3.9951	0.8640	25.20	0.50	0.750			
0.2138	13681.20	3.9920	3.9920	0.8669	25.20	0.50	0.750			
0.2164	13849.11	3.9890	3.9890	0.8741	25.20	0.50	0.750			
0.2190	14018.02	3.9860	3.9860	0.8780	25.20	0.50	0.750			
0.2216	14184.78	3.9830	3.9829	0.8777	25.20	0.50	0.750			
0.2243	14355.45	3.9800	3.9800	0.8749	25.20	0.50	0.750			
0.2269	14523.08	3.9770	3.9770	0.8791	25.20	0.50	0.750			
0.2296	14691.59	3.9740	3.9740	0.8834	25.20	0.50	0.750			
0.2322	14860.90	3.9710	3.9710	0.8848	25.20	0.50	0.750			
0.2349	15032.08	3.9680	3.9680	0.8794	25.20	0.50	0.750			
0.2375	15201.61	3.9650	3.9651	0.8760	25.20	0.50	0.750			
0.2401	15369.51	3.9620	3.9621	0.8775	25.20	0.50	0.750			
0.2428	15537.96	3.9590	3.9589	0.8792	25.20	0.50	0.750			
0.2453	15702.24	3.9560	3.9559	0.8770	25.20	0.50	0.750			
0.2480	15871.24	3.9530	3.9531	0.8862	25.20	0.50	0.750			
0.2507	16043.55	3.9500	3.9500	0.8906	25.20	0.50	0.750			
0.2534	16216.24	3.9470	3.9469	0.9000	25.20	0.50	0.750			
0.2561	16391.14	3.9440	3.9441	0.8981	25.20	0.50	0.750			
0.2588	16562.86	3.9410	3.9408	0.8957	25.20	0.50	0.750			
0.2615	16735.34	3.9380	3.9380	0.8942	25.20	0.50	0.750			
0.2642	16906.35	3.9350	3.9350	0.8949	25.20	0.50	0.750			
0.2668	17077.06	3.9320	3.9320	0.8979	25.20	0.50	0.750			
0.2695	17248.46	3.9290	3.9291	0.8980	25.20	0.50	0.750			
0.2722	17422.72	3.9260	3.9261	0.8993	25.20	0.50	0.750			
0.2750	17598.23	3.9230	3.9230	0.8983	25.20	0.50	0.750			
0.2776	17769.58	3.9200	3.9200	0.8983	25.20	0.50	0.750			
0.2803	17941.34	3.9170	3.9170	0.8993	25.19	0.49	0.750			
0.2830	18112.99	3.9140	3.9139	0.8976	25.19	0.49	0.750			
0.2857	18285.47	3.9110	3.9110	0.9003	25.19	0.49	0.750			
0.2884	18458.34	3.9080	3.9080	0.8981	25.19	0.49	0.750			
0.2911	18631.21	3.9050	3.9051	0.9016	25.18	0.48	0.750			
0.2938	18805.12	3.9020	3.9020	0.9043	25.18	0.48	0.750			
0.2965	18977.01	3.8990	3.8986	0.9042	25.18	0.48	0.750			
0.2993	19152.83	3.8960	3.8961	0.8959	25.18	0.48	0.750			
0.3019	19323.80	3.8930	3.8931	0.8994	25.17	0.47	0.750			
0.3046	19497.01	3.8900	3.8900	0.9029	25.17	0.47	0.750			
0.3073	19668.32	3.8870	3.8871	0.9002	25.16	0.46	0.750			
0.3100	19841.24	3.8840	3.8841	0.9046	25.16	0.46	0.750			
0.3128	20016.67	3.8810	3.8811	0.9041	25.15	0.45	0.750			
0.3155	20190.53	3.8780	3.8781	0.9107	25.14	0.44	0.750			
0.3182	20367.80	3.8750	3.8750	0.9133	25.14	0.44	0.750			
0.3210	20541.44	3.8720	3.8717	0.9074	25.13	0.43	0.750			
0.3237	20717.27	3.8690	3.8690	0.9007	25.12	0.42	0.750			
0.3264	20888.78	3.8660	3.8660	0.9044	25.12	0.42	0.750			
0.3291	21062.39	3.8630	3.8631	0.9068	25.11	0.41	0.750			
0.3318	21237.81	3.8600	3.8600	0.9095	25.11	0.41	0.750			
0.3345	21410.00	3.8570	3.8569	0.9067	25.10	0.40	0.750			
0.3373	21585.74	3.8540	3.8541	0.9123	25.09	0.39	0.750			
0.3400	21758.01	3.8510	3.8511	0.9023	25.09	0.39	0.750			
0.3426	21927.40	3.8480	3.8481	0.9139	25.08	0.38	0.750			
0.3453	22100.34	3.8450	3.8452	0.9242	25.07	0.37	0.750			
0.3481	22280.62	3.8420	3.8422	0.9330	25.07	0.37	0.750			
0.3510	22461.59	3.8390	3.8380	0.9512	25.06	0.36	0.750	0.290	0.415	
0.3539	22648.51	3.8360	3.8363	0.9703	25.05	0.35	0.750			
0.3569	22841.16	3.8330	3.8331	0.9880	25.04	0.34	0.750			
0.3598	23028.57	3.8300	3.8300	0.9763	25.04	0.34	0.750			
0.3628	23218.98	3.8270	3.8270	0.9879	25.03	0.33	0.750			
0.3657	23405.02	3.8240	3.8241	0.9861	25.02	0.32	0.750			
0.3687	23595.58	3.8210	3.8211	0.9910	25.01	0.31	0.750			
0.3716	23784.85	3.8180	3.8179	0.9900	25.00	0.30	0.750			
0.3746	23974.32	3.8150	3.8150	0.9913	24.99	0.29	0.750			
0.3776	24163.67	3.8120	3.8121	1.0025	24.98	0.28	0.750			
0.3806	24357.48	3.8090	3.8091	1.0163	24.97	0.27	0.750			
0.3836	24552.96	3.8060	3.8055	1.0265	24.96	0.26	0.750			
0.3867	24751.54	3.8030	3.8031	1.0366	24.95	0.25	0.750			
0.3899	24953.68	3.8000	3.8000	1.0461	24.94	0.24	0.750			
0.3931	25156.16	3.7970	3.7971	1.0576	24.93	0.23	0.750			
0.3963	25361.40	3.7940	3.7938	1.0616	24.92	0.22	0.750			
0.3994	25560.67	3.7910	3.7910	1.0627	24.91	0.21	0.750			
0.4026	25764.74	3.7880	3.7880	1.0819	24.90	0.20	0.750			
0.4058	25971.45	3.7850	3.7851	1.0988	24.89	0.19	0.750			
0.4092	26187.26	3.7820	3.7817	1.1126	24.88	0.18	0.750			
0.4125	26400.44	3.7790	3.7792	1.1435	24.87	0.17	0.750			
0.4160	26621.03	3.7760	3.7760	1.1716	24.86	0.16	0.750			
0.4196	26852.79	3.7730	3.7731	1.1922	24.85	0.15	0.750			
0.4231	27079.80	3.7700	3.7701	1.2073	24.84	0.14	0.750			
0.4268	27314.03	3.7670	3.7671	1.2421	24.83	0.13	0.750			
0.4306	27556.05	3.7640	3.7641	1.2729	24.82	0.12	0.750			
0.4345	27804.89	3.7610	3.7608	1.2897	24.81	0.11	0.750			
0.4383	28050.77	3.7580	3.7581	1.3131	24.80	0.10	0.750			
0.4423	28305.93	3.7550	3.7552	1.3466	24.79	0.09	0.750			
0.4464	28570.01	3.7520	3.7516	1.3677	24.78	0.08	0.750			
0.4505	28829.25	3.7490	3.7491	1.3959	24.77	0.07	0.750			
0.4547	29102.02	3.7460	3.7461	1.4314	24.75	0.05	0.750			
0.4591	29379.45	3.7430	3.7424	1.4821	24.74	0.04	0.750			
0.4637	29674.65	3.7400	3.7401	1.4862	24.73	0.03	0.750			
0.4682	29962.96	3.7370	3.7372	1.5262	24.73	0.03	0.750			
0.4730	30271.63	3.7340	3.7340	1.5469	24.71	0.01	0.750			
0.4777	30569.78	3.7310	3.7306	1.6074	24.70	0.00	0.750			
0.4824	30876.34	3.7280	3.7281	1.6043	24.68	-0.02	0.750			
0.4872	31182.59	3.7250	3.7247	1.6772	24.67	-0.03	0.750			
0.4923	31506.48	3.7220	3.7215	1.7377	24.67	-0.03	0.750			
0.4977	31850.55	3.7190	3.7193	1.8051	24.66	-0.04	0.750			
0.5031	32196.24	3.7160	3.7154	1.8733	24.64	-0.06	0.750			
0.5089	32566.95	3.7130	3.7131	1.9567	24.62	-0.08	0.750			
0.5150	32958.88	3.7100	3.7095	2.0080	24.61	-0.09	0.750			
0.5209	33338.90	3.7070	3.7071	2.0670	24.60	-0.10	0.750			
0.5271	33736.84	3.7040	3.7042	2.0859	24.59	-0.11	0.750			
0.5333	34129.55	3.7010	3.7009	2.0888	24.58	-0.12	0.750			
0.5397	34543.28	3.6980	3.6981	2.2058	24.57	-0.13	0.750			
0.5466	34982.19	3.6950	3.6951	2.3222	24.56	-0.14	0.750			
0.5538	35444.30	3.6920	3.6918	2.4300	24.55	-0.15	0.750			
0.5610	35905.97	3.6890	3.6886	2.4222	24.55	-0.15	0.750			
0.5683	36370.35	3.6860	3.6861	2.4660	24.54	-0.16	0.750			
0.5756	36839.34	3.6830	3.6828	2.4464	24.53	-0.17	0.750			
0.5830	37309.15	3.6800	3.6801	2.4436	24.52	-0.18	0.750			
0.5908	37814.10	3.6770	3.6766	2.6284	24.52	-0.18	0.750			
0.5989	38326.73	3.6740	3.6737	2.5913	24.52	-0.18	0.750			
0.6066	38821.48	3.6710	3.6715	2.5245	24.52	-0.18	0.750			
0.6137	39274.11	3.6680	3.6682	2.3367	24.53	-0.17	0.750			
0.6206	39717.00	3.6650	3.6651	2.1690	24.54	-0.16	0.750			
0.6267	40109.47	3.6620	3.6623	2.0847	24.55	-0.15	0.750			
0.6324	40472.81	3.6590	3.6594	1.8496	24.56	-0.14	0.750			
0.6377	40815.44	3.6560	3.6565	1.7525	24.56	-0.14	0.750			
0.6429	41142.63	3.6530	3.6535	1.6335	24.56	-0.14	0.750			
0.6474	41434.36	3.6500	3.6497	1.4921	24.56	-0.14	0.750			
0.6519	41721.19	3.6470	3.6471	1.4015	24.58	-0.12	0.750			
0.6559	41980.59	3.6440	3.6440	1.2971	24.59	-0.11	0.750			
0.6596	42212.46	3.6410	3.6413	1.1909	24.60	-0.10	0.750			
0.6629	42427.23	3.6380	3.6380	1.1032	24.61	-0.09	0.750			
0.6660	42626.54	3.6350	3.6350	1.0409	24.61	-0.09	0.750			
0.6690	42818.49	3.6320	3.6321	1.0033	24.62	-0.08	0.750			
0.6720	43009.03	3.6290	3.6289	0.9560	24.62	-0.08	0.750			
0.6748	43188.92	3.6260	3.6260	0.9185	24.63	-0.07	0.750			
0.6775	43359.87	3.6230	3.6232	0.8928	24.64	-0.06	0.750			
0.6802	43532.18	3.6200	3.6201	0.8511	24.65	-0.05	0.750			
0.6827	43689.90	3.6170	3.6172	0.8138	24.66	-0.04	0.750			
0.6851	43843.25	3.6140	3.6142	0.7736	24.66	-0.04	0.750			
0.6874	43990.50	3.6110	3.6114	0.7216	24.67	-0.03	0.750			
0.6895	44128.13	3.6080	3.6083	0.6705	24.68	-0.02	0.750			
0.6914	44251.76	3.6050	3.6053	0.6148	24.68	-0.02	0.750			
0.6932	44362.18	3.6020	3.6022	0.5571	24.69	-0.01	0.750			
0.6948	44464.04	3.5990	3.5994	0.5090	24.69	-0.01	0.750			
0.6962	44555.47	3.5960	3.5960	0.4561	24.70	-0.00	0.750			
0.6975	44640.82	3.5930	3.5932	0.4119	24.70	0.00	0.750			
0.6987	44717.35	3.5900	3.5899	0.3635	24.71	0.01	0.750			
0.6997	44781.05	3.5870	3.5870	0.3064	24.71	0.01	0.750			
0.7006	44836.86	3.5840	3.5840	0.2545	24.71	0.01	0.750			
0.7013	44880.31	3.5810	3.5810	0.1994	24.72	0.02	0.750			
0.7018	44913.88	3.5780	3.5783	0.1428	24.72	0.02	0.750			
0.7021	44935.78	3.5750	3.5759	0.0854	24.72	0.02	0.750			
0.7023	44946.61	3.5720	3.5741	0.0287	24.72	0.02	0.750			
