Ah_balance (normalized)	Ah_balance (mAh)	Voltage - fit (V)	Voltage -  interpolate (V)	dQ/dV (1/V)	Temperature (°C)	Temperature - diff (°C)	Current (C)	R_DC 0ms (mOhm)	R_DC 50ms (mOhm)	R_DC 50 ms PEC (mOhm)
0.0492	3147.72	4.1960	4.1960	0.7588	25.53	0.41	0.750			
0.0515	3294.81	4.1930	4.1930	0.7638	25.53	0.41	0.750			
0.0538	3442.55	4.1900	4.1900	0.7583	25.53	0.41	0.750			
0.0560	3586.18	4.1870	4.1870	0.7563	25.54	0.42	0.750			
0.0583	3731.38	4.1840	4.1841	0.7557	25.54	0.42	0.750			
0.0605	3875.19	4.1810	4.1809	0.7546	25.54	0.42	0.750			
0.0628	4019.22	4.1780	4.1780	0.7578	25.54	0.42	0.750			
0.0651	4164.59	4.1750	4.1750	0.7610	25.54	0.42	0.750			
0.0674	4312.06	4.1720	4.1720	0.7520	25.54	0.42	0.750			
0.0697	4457.71	4.1690	4.1691	0.7537	25.55	0.43	0.750			
0.0719	4599.46	4.1660	4.1662	0.7535	25.55	0.43	0.750			
0.0741	4743.99	4.1630	4.1626	0.7594	25.55	0.43	0.750			
0.0764	4889.22	4.1600	4.1601	0.7576	25.55	0.43	0.750			
0.0787	5035.44	4.1570	4.1571	0.7591	25.55	0.43	0.750			
0.0810	5183.40	4.1540	4.1540	0.7685	25.55	0.43	0.750			
0.0833	5334.29	4.1510	4.1509	0.7754	25.55	0.43	0.750			
0.0856	5477.71	4.1480	4.1478	0.7685	25.55	0.43	0.750			
0.0879	5625.83	4.1450	4.1450	0.7705	25.55	0.43	0.750			
0.0903	5776.28	4.1420	4.1421	0.7660	25.55	0.43	0.750			
0.0926	5923.23	4.1390	4.1390	0.7705	25.55	0.43	0.750			
0.0949	6071.08	4.1360	4.1361	0.7707	25.55	0.43	0.750			
0.0971	6217.18	4.1330	4.1330	0.7697	25.55	0.43	0.750			
0.0994	6364.30	4.1300	4.1300	0.7724	25.55	0.43	0.750			
0.1018	6513.60	4.1270	4.1271	0.7745	25.55	0.43	0.750			
0.1041	6663.12	4.1240	4.1240	0.7769	25.55	0.43	0.750			
0.1064	6812.31	4.1210	4.1210	0.7805	25.56	0.44	0.750			
0.1088	6960.21	4.1180	4.1181	0.7825	25.56	0.44	0.750			
0.1111	7111.29	4.1150	4.1143	0.7870	25.56	0.44	0.750			
0.1135	7263.37	4.1120	4.1122	0.7899	25.56	0.44	0.750			
0.1159	7417.26	4.1090	4.1091	0.7882	25.56	0.44	0.750			
0.1183	7568.57	4.1060	4.1061	0.7911	25.57	0.45	0.750			
0.1206	7720.97	4.1030	4.1030	0.7956	25.57	0.45	0.750			
0.1230	7871.27	4.1000	4.1000	0.7882	25.57	0.45	0.750			
0.1253	8022.07	4.0970	4.0970	0.7930	25.57	0.45	0.750			
0.1278	8176.94	4.0940	4.0941	0.7945	25.57	0.45	0.750			
0.1301	8328.80	4.0910	4.0909	0.7983	25.58	0.46	0.750			
0.1326	8483.40	4.0880	4.0880	0.8022	25.58	0.46	0.750			
0.1349	8634.50	4.0850	4.0851	0.8034	25.58	0.46	0.750			
0.1373	8788.38	4.0820	4.0820	0.8064	25.58	0.46	0.750			
0.1398	8945.82	4.0790	4.0790	0.8110	25.58	0.46	0.750			
0.1422	9100.23	4.0760	4.0760	0.8020	25.58	0.46	0.750			
0.1446	9254.16	4.0730	4.0732	0.8050	25.59	0.47	0.750			
0.1470	9406.79	4.0700	4.0701	0.8073	25.59	0.47	0.750			
0.1494	9562.13	4.0670	4.0667	0.8084	25.59	0.47	0.750			
0.1518	9718.36	4.0640	4.0641	0.8096	25.59	0.47	0.750			
0.1543	9874.48	4.0610	4.0611	0.8204	25.60	0.48	0.750			
0.1568	10034.57	4.0580	4.0581	0.8259	25.60	0.48	0.750			
0.1592	10191.92	4.0550	4.0550	0.8180	25.61	0.49	0.750			
0.1617	10349.60	4.0520	4.0519	0.8214	25.61	0.49	0.750			
0.1642	10507.53	4.0490	4.0491	0.8238	25.61	0.49	0.750			
0.1667	10666.68	4.0460	4.0460	0.8273	25.61	0.49	0.750			
0.1691	10823.82	4.0430	4.0430	0.8309	25.61	0.49	0.750			
0.1716	10983.00	4.0400	4.0400	0.8320	25.61	0.49	0.750			
0.1741	11144.74	4.0370	4.0371	0.8389	25.61	0.49	0.750			
0.1767	11307.19	4.0340	4.0340	0.8401	25.61	0.49	0.750			
0.1792	11467.98	4.0310	4.0311	0.8307	25.61	0.49	0.750			
0.1816	11625.08	4.0280	4.0281	0.8351	25.61	0.49	0.750			
0.1841	11782.90	4.0250	4.0251	0.8386	25.61	0.49	0.750			
0.1866	11943.59	4.0220	4.0213	0.8498	25.61	0.49	0.750			
0.1892	12111.25	4.0190	4.0191	0.8483	25.61	0.49	0.750			
0.1918	12274.73	4.0160	4.0162	0.8571	25.62	0.50	0.750			
0.1944	12444.26	4.0130	4.0130	0.8665	25.62	0.50	0.750			
0.1971	12611.67	4.0100	4.0100	0.8717	25.63	0.51	0.750			
0.1995	12770.89	4.0070	4.0072	0.8574	25.63	0.51	0.750			
0.2022	12937.75	4.0040	4.0040	0.8585	25.63	0.51	0.750			
0.2047	13102.39	4.0010	4.0010	0.8641	25.63	0.51	0.750			
0.2073	13269.77	3.9980	3.9981	0.8733	25.63	0.51	0.750			
0.2100	13437.01	3.9950	3.9950	0.8718	25.63	0.51	0.750			
0.2126	13605.16	3.9920	3.9920	0.8768	25.63	0.51	0.750			
0.2153	13776.48	3.9890	3.9890	0.8624	25.63	0.51	0.750			
0.2178	13941.20	3.9860	3.9861	0.8767	25.64	0.52	0.750			
0.2205	14111.28	3.9830	3.9830	0.8812	25.64	0.52	0.750			
0.2231	14278.02	3.9800	3.9801	0.8800	25.64	0.52	0.750			
0.2257	14445.60	3.9770	3.9771	0.8831	25.64	0.52	0.750			
0.2284	14616.46	3.9740	3.9741	0.8864	25.64	0.52	0.750			
0.2311	14788.18	3.9710	3.9710	0.8928	25.65	0.53	0.750			
0.2337	14958.79	3.9680	3.9681	0.8863	25.65	0.53	0.750			
0.2364	15129.71	3.9650	3.9646	0.8943	25.65	0.53	0.750			
0.2391	15305.49	3.9620	3.9621	0.8892	25.65	0.53	0.750			
0.2418	15474.62	3.9590	3.9589	0.8916	25.65	0.53	0.750			
0.2445	15644.82	3.9560	3.9562	0.8969	25.66	0.54	0.750			
0.2472	15817.97	3.9530	3.9531	0.9003	25.66	0.54	0.750			
0.2498	15989.28	3.9500	3.9500	0.9002	25.66	0.54	0.750			
0.2526	16165.11	3.9470	3.9470	0.8919	25.66	0.54	0.750			
0.2552	16335.66	3.9440	3.9441	0.8925	25.67	0.55	0.750			
0.2579	16507.75	3.9410	3.9411	0.8935	25.67	0.55	0.750			
0.2605	16675.16	3.9380	3.9382	0.8908	25.67	0.55	0.750			
0.2632	16846.30	3.9350	3.9350	0.8978	25.67	0.55	0.750			
0.2659	17019.38	3.9320	3.9320	0.8943	25.67	0.55	0.750			
0.2686	17192.16	3.9290	3.9291	0.8977	25.66	0.54	0.750			
0.2714	17368.85	3.9260	3.9261	0.9066	25.66	0.54	0.750			
0.2740	17534.56	3.9230	3.9226	0.9270	25.66	0.54	0.750			
0.2768	17713.83	3.9200	3.9201	0.9365	25.66	0.54	0.750			
0.2796	17897.13	3.9170	3.9169	0.9499	25.66	0.54	0.750			
0.2826	18086.56	3.9140	3.9145	0.9597	25.65	0.53	0.750			
0.2855	18273.31	3.9110	3.9112	0.9531	25.65	0.53	0.750			
0.2885	18462.62	3.9080	3.9079	0.9463	25.65	0.53	0.750			
0.2912	18639.54	3.9050	3.9049	0.9209	25.65	0.53	0.750			
0.2939	18807.20	3.9020	3.9021	0.9033	25.64	0.52	0.750			
0.2966	18981.80	3.8990	3.8990	0.9047	25.64	0.52	0.750			
0.2993	19154.34	3.8960	3.8960	0.9016	25.64	0.52	0.750			
0.3020	19327.27	3.8930	3.8931	0.8963	25.63	0.51	0.750			
0.3047	19499.52	3.8900	3.8901	0.9045	25.63	0.51	0.750			
0.3074	19673.79	3.8870	3.8870	0.9104	25.62	0.50	0.750			
0.3101	19847.96	3.8840	3.8839	0.9109	25.61	0.49	0.750			
0.3129	20023.58	3.8810	3.8811	0.9125	25.61	0.49	0.750			
0.3156	20200.79	3.8780	3.8780	0.9139	25.60	0.48	0.750			
0.3184	20375.91	3.8750	3.8751	0.9160	25.60	0.48	0.750			
0.3211	20552.26	3.8720	3.8720	0.9188	25.59	0.47	0.750			
0.3239	20726.74	3.8690	3.8687	0.9140	25.59	0.47	0.750			
0.3266	20904.86	3.8660	3.8660	0.9081	25.59	0.47	0.750			
0.3293	21078.06	3.8630	3.8631	0.9113	25.58	0.46	0.750			
0.3321	21253.72	3.8600	3.8600	0.9153	25.58	0.46	0.750			
0.3348	21428.63	3.8570	3.8571	0.9177	25.57	0.45	0.750			
0.3375	21602.59	3.8540	3.8540	0.9173	25.57	0.45	0.750			
0.3403	21779.70	3.8510	3.8511	0.9242	25.55	0.43	0.750			
0.3431	21957.42	3.8480	3.8480	0.9385	25.54	0.42	0.750			
0.3459	22138.47	3.8450	3.8450	0.9509	25.53	0.41	0.750			
0.3488	22322.19	3.8420	3.8420	0.9513	25.52	0.40	0.750			
0.3517	22507.40	3.8390	3.8388	0.9567	25.51	0.39	0.750	0.341	0.450	
0.3546	22692.83	3.8360	3.8361	0.9593	25.51	0.39	0.750			
0.3575	22877.75	3.8330	3.8330	0.9638	25.50	0.38	0.750			
0.3603	23061.33	3.8300	3.8300	0.9667	25.49	0.37	0.750			
0.3633	23248.62	3.8270	3.8269	0.9582	25.48	0.36	0.750			
0.3661	23430.95	3.8240	3.8240	0.9708	25.47	0.35	0.750			
0.3690	23618.21	3.8210	3.8211	0.9836	25.47	0.35	0.750			
0.3720	23807.63	3.8180	3.8181	0.9944	25.46	0.34	0.750			
0.3750	24001.57	3.8150	3.8151	0.9965	25.45	0.33	0.750			
0.3780	24192.37	3.8120	3.8121	1.0057	25.44	0.32	0.750			
0.3810	24385.08	3.8090	3.8091	1.0208	25.43	0.31	0.750			
0.3841	24583.73	3.8060	3.8061	1.0350	25.43	0.31	0.750			
0.3872	24782.73	3.8030	3.8028	1.0347	25.42	0.30	0.750			
0.3903	24982.00	3.8000	3.8001	1.0527	25.40	0.28	0.750			
0.3935	25185.44	3.7970	3.7971	1.0695	25.39	0.27	0.750			
0.3968	25393.64	3.7940	3.7940	1.0831	25.38	0.26	0.750			
0.4000	25600.65	3.7910	3.7910	1.0952	25.37	0.25	0.750			
0.4033	25810.34	3.7880	3.7881	1.1033	25.36	0.24	0.750			
0.4066	26022.82	3.7850	3.7851	1.1266	25.35	0.23	0.750			
0.4100	26241.87	3.7820	3.7819	1.1462	25.34	0.22	0.750			
0.4135	26461.90	3.7790	3.7792	1.1646	25.33	0.21	0.750			
0.4170	26688.40	3.7760	3.7760	1.1849	25.32	0.20	0.750			
0.4206	26918.97	3.7730	3.7731	1.2124	25.30	0.18	0.750			
0.4243	27158.01	3.7700	3.7700	1.2389	25.29	0.17	0.750			
0.4279	27388.66	3.7670	3.7670	1.2452	25.28	0.16	0.750			
0.4317	27629.46	3.7640	3.7641	1.2723	25.28	0.16	0.750			
0.4356	27879.40	3.7610	3.7609	1.2936	25.27	0.15	0.750			
0.4395	28128.68	3.7580	3.7581	1.3276	25.26	0.14	0.750			
0.4436	28387.52	3.7550	3.7551	1.3581	25.24	0.12	0.750			
0.4477	28650.98	3.7520	3.7518	1.3768	25.22	0.10	0.750			
0.4519	28918.88	3.7490	3.7491	1.4079	25.21	0.09	0.750			
0.4560	29186.10	3.7460	3.7461	1.4374	25.20	0.08	0.750			
0.4605	29469.57	3.7430	3.7428	1.4459	25.19	0.07	0.750			
0.4648	29749.71	3.7400	3.7401	1.4812	25.18	0.06	0.750			
0.4693	30036.05	3.7370	3.7371	1.5316	25.16	0.04	0.750			
0.4740	30337.33	3.7340	3.7338	1.5828	25.15	0.03	0.750			
0.4789	30647.23	3.7310	3.7312	1.6168	25.14	0.02	0.750			
0.4837	30959.69	3.7280	3.7284	1.6958	25.13	0.01	0.750			
0.4890	31297.31	3.7250	3.7251	1.7232	25.11	-0.01	0.750			
0.4943	31636.81	3.7220	3.7219	1.7754	25.09	-0.03	0.750			
0.4996	31975.30	3.7190	3.7192	1.8281	25.08	-0.04	0.750			
0.5051	32323.99	3.7160	3.7155	1.8861	25.07	-0.05	0.750			
0.5109	32694.45	3.7130	3.7130	1.9349	25.06	-0.06	0.750			
0.5167	33071.46	3.7100	3.7101	1.9857	25.05	-0.07	0.750			
0.5229	33468.43	3.7070	3.7069	2.0673	25.03	-0.09	0.750			
0.5291	33862.29	3.7040	3.7041	2.1081	25.02	-0.10	0.750			
0.5356	34277.03	3.7010	3.7010	2.1634	25.00	-0.12	0.750			
0.5423	34706.21	3.6980	3.6979	2.2473	24.99	-0.13	0.750			
0.5490	35136.13	3.6950	3.6948	2.2924	24.98	-0.14	0.750			
0.5560	35584.51	3.6920	3.6918	2.3609	24.97	-0.15	0.750			
0.5632	36046.22	3.6890	3.6890	2.4005	24.97	-0.15	0.750			
0.5705	36511.37	3.6860	3.6858	2.4849	24.96	-0.16	0.750			
0.5781	36996.15	3.6830	3.6833	2.5533	24.95	-0.17	0.750			
0.5859	37498.38	3.6800	3.6800	2.5545	24.94	-0.18	0.750			
0.5936	37987.63	3.6770	3.6770	2.5404	24.95	-0.17	0.750			
0.6013	38484.99	3.6740	3.6739	2.4897	24.95	-0.17	0.750			
0.6088	38961.26	3.6710	3.6709	2.4331	24.94	-0.18	0.750			
0.6163	39440.14	3.6680	3.6680	2.3679	24.95	-0.17	0.750			
0.6230	39870.18	3.6650	3.6650	2.1707	24.96	-0.16	0.750			
0.6292	40268.50	3.6620	3.6621	1.9978	24.97	-0.15	0.750			
0.6349	40634.25	3.6590	3.6592	1.8554	24.98	-0.14	0.750			
0.6403	40979.44	3.6560	3.6562	1.7221	24.99	-0.13	0.750			
0.6452	41292.24	3.6530	3.6531	1.5845	24.99	-0.13	0.750			
0.6498	41587.33	3.6500	3.6500	1.4694	25.00	-0.12	0.750			
0.6541	41863.59	3.6470	3.6471	1.3694	25.01	-0.11	0.750			
0.6579	42108.07	3.6440	3.6440	1.2691	25.01	-0.11	0.750			
0.6616	42339.21	3.6410	3.6408	1.1797	25.02	-0.10	0.750			
0.6649	42554.50	3.6380	3.6381	1.1065	25.03	-0.09	0.750			
0.6681	42758.79	3.6350	3.6351	1.0558	25.04	-0.08	0.750			
0.6712	42955.32	3.6320	3.6320	1.0124	25.04	-0.08	0.750			
0.6741	43143.02	3.6290	3.6291	0.9709	25.05	-0.07	0.750			
0.6770	43326.47	3.6260	3.6260	0.9359	25.06	-0.06	0.750			
0.6797	43503.42	3.6230	3.6230	0.9010	25.06	-0.06	0.750			
0.6824	43675.61	3.6200	3.6201	0.8680	25.07	-0.05	0.750			
0.6850	43839.42	3.6170	3.6170	0.8230	25.08	-0.04	0.750			
0.6874	43994.91	3.6140	3.6140	0.7779	25.08	-0.04	0.750			
0.6897	44140.37	3.6110	3.6110	0.7267	25.09	-0.03	0.750			
0.6918	44275.48	3.6080	3.6081	0.6737	25.10	-0.02	0.750			
0.6938	44401.28	3.6050	3.6049	0.6202	25.10	-0.02	0.750			
0.6955	44513.48	3.6020	3.6020	0.5624	25.11	-0.01	0.750			
0.6971	44614.82	3.5990	3.5991	0.5077	25.11	-0.01	0.750			
0.6985	44706.64	3.5960	3.5959	0.4571	25.12	-0.00	0.750			
0.6998	44789.77	3.5930	3.5930	0.4078	25.12	0.00	0.750			
0.7010	44863.72	3.5900	3.5900	0.3573	25.13	0.01	0.750			
0.7020	44928.13	3.5870	3.5870	0.3093	25.13	0.01	0.750			
0.7029	44983.29	3.5840	3.5840	0.2586	25.13	0.01	0.750			
0.7036	45027.55	3.5810	3.5810	0.2061	25.14	0.02	0.750			
0.7041	45062.58	3.5780	3.5782	0.1519	25.14	0.02	0.750			
0.7045	45086.48	3.5750	3.5746	0.0994	25.14	0.02	0.750			
