Ah_balance (normalized)	Ah_balance (mAh)	Voltage - fit (V)	Voltage -  interpolate (V)	dQ/dV (1/V)	Temperature (°C)	Temperature - diff (°C)	Current (C)	R_DC 0ms (mOhm)	R_DC 50ms (mOhm)	R_DC 50 ms PEC (mOhm)
0.0506	3238.84	4.1980	4.1978	0.7845	25.58	0.44	0.750			
0.0530	3388.89	4.1950	4.1951	0.7802	25.58	0.44	0.750			
0.0553	3538.93	4.1920	4.1920	0.7781	25.58	0.44	0.750			
0.0576	3687.38	4.1890	4.1890	0.7766	25.58	0.44	0.750			
0.0599	3835.92	4.1860	4.1860	0.7779	25.58	0.44	0.750			
0.0623	3984.52	4.1830	4.1830	0.7779	25.58	0.44	0.750			
0.0646	4134.01	4.1800	4.1800	0.7827	25.58	0.44	0.750			
0.0670	4286.07	4.1770	4.1770	0.7793	25.58	0.44	0.750			
0.0693	4435.42	4.1740	4.1740	0.7827	25.58	0.44	0.750			
0.0716	4585.49	4.1710	4.1710	0.7881	25.57	0.43	0.750			
0.0740	4735.89	4.1680	4.1681	0.7931	25.57	0.43	0.750			
0.0764	4889.14	4.1650	4.1648	0.7907	25.57	0.43	0.750			
0.0788	5041.99	4.1620	4.1621	0.7923	25.57	0.43	0.750			
0.0812	5194.64	4.1590	4.1591	0.7913	25.57	0.43	0.750			
0.0835	5347.17	4.1560	4.1560	0.7938	25.57	0.43	0.750			
0.0859	5497.07	4.1530	4.1530	0.7901	25.57	0.43	0.750			
0.0883	5648.48	4.1500	4.1499	0.7948	25.57	0.43	0.750			
0.0906	5801.39	4.1470	4.1470	0.7952	25.57	0.43	0.750			
0.0931	5957.05	4.1440	4.1439	0.7951	25.57	0.43	0.750			
0.0955	6110.26	4.1410	4.1411	0.7983	25.57	0.43	0.750			
0.0979	6262.63	4.1380	4.1381	0.8012	25.57	0.43	0.750			
0.1002	6414.54	4.1350	4.1349	0.8035	25.57	0.43	0.750			
0.1027	6570.02	4.1320	4.1320	0.8072	25.57	0.43	0.750			
0.1051	6725.35	4.1290	4.1290	0.8075	25.57	0.43	0.750			
0.1075	6881.32	4.1260	4.1261	0.8132	25.57	0.43	0.750			
0.1100	7039.10	4.1230	4.1231	0.8172	25.57	0.43	0.750			
0.1124	7195.35	4.1200	4.1199	0.8152	25.57	0.43	0.750			
0.1149	7350.90	4.1170	4.1170	0.8180	25.57	0.43	0.750			
0.1173	7508.74	4.1140	4.1140	0.8146	25.57	0.43	0.750			
0.1198	7665.09	4.1110	4.1110	0.8208	25.57	0.43	0.750			
0.1222	7823.42	4.1080	4.1080	0.8241	25.57	0.43	0.750			
0.1247	7980.60	4.1050	4.1051	0.8251	25.57	0.43	0.750			
0.1272	8140.02	4.1020	4.1020	0.8283	25.57	0.43	0.750			
0.1297	8300.19	4.0990	4.0990	0.8292	25.57	0.43	0.750			
0.1322	8459.01	4.0960	4.0960	0.8316	25.57	0.43	0.750			
0.1347	8620.75	4.0930	4.0930	0.8367	25.57	0.43	0.750			
0.1372	8779.18	4.0900	4.0900	0.8332	25.57	0.43	0.750			
0.1397	8939.62	4.0870	4.0871	0.8389	25.57	0.43	0.750			
0.1422	9102.41	4.0840	4.0840	0.8345	25.57	0.43	0.750			
0.1447	9262.34	4.0810	4.0810	0.8399	25.57	0.43	0.750			
0.1472	9423.41	4.0780	4.0781	0.8447	25.57	0.43	0.750			
0.1498	9585.43	4.0750	4.0751	0.8485	25.57	0.43	0.750			
0.1523	9748.51	4.0720	4.0721	0.8525	25.57	0.43	0.750			
0.1549	9912.87	4.0690	4.0690	0.8544	25.57	0.43	0.750			
0.1575	10077.29	4.0660	4.0660	0.8606	25.57	0.43	0.750			
0.1601	10244.54	4.0630	4.0630	0.8695	25.57	0.43	0.750			
0.1627	10411.21	4.0600	4.0599	0.8664	25.57	0.43	0.750			
0.1653	10577.93	4.0570	4.0570	0.8682	25.57	0.43	0.750			
0.1679	10744.73	4.0540	4.0540	0.8694	25.57	0.43	0.750			
0.1705	10911.50	4.0510	4.0510	0.8714	25.57	0.43	0.750			
0.1731	11079.42	4.0480	4.0479	0.8727	25.57	0.43	0.750			
0.1757	11245.83	4.0450	4.0448	0.8715	25.57	0.43	0.750			
0.1783	11413.37	4.0420	4.0421	0.8730	25.57	0.43	0.750			
0.1810	11581.78	4.0390	4.0390	0.8792	25.57	0.43	0.750			
0.1837	11754.54	4.0360	4.0359	0.8687	25.56	0.42	0.750			
0.1863	11920.90	4.0330	4.0330	0.8585	25.56	0.42	0.750			
0.1888	12083.88	4.0300	4.0301	0.8517	25.56	0.42	0.750			
0.1913	12245.35	4.0270	4.0271	0.8540	25.56	0.42	0.750			
0.1938	12405.26	4.0240	4.0239	0.8542	25.56	0.42	0.750			
0.1964	12567.87	4.0210	4.0210	0.8688	25.56	0.42	0.750			
0.1990	12734.98	4.0180	4.0181	0.8876	25.56	0.42	0.750			
0.2018	12912.96	4.0150	4.0149	0.9049	25.56	0.42	0.750			
0.2045	13087.58	4.0120	4.0121	0.9022	25.56	0.42	0.750			
0.2072	13260.71	4.0090	4.0091	0.9086	25.56	0.42	0.750			
0.2099	13434.84	4.0060	4.0060	0.9128	25.57	0.43	0.750			
0.2127	13610.21	4.0030	4.0029	0.9148	25.57	0.43	0.750			
0.2154	13786.97	4.0000	4.0000	0.9123	25.57	0.43	0.750			
0.2182	13962.26	3.9970	3.9970	0.9162	25.57	0.43	0.750			
0.2209	14139.56	3.9940	3.9941	0.9214	25.58	0.44	0.750			
0.2237	14316.43	3.9910	3.9910	0.9256	25.58	0.44	0.750			
0.2264	14491.71	3.9880	3.9879	0.9245	25.58	0.44	0.750			
0.2292	14670.45	3.9850	3.9850	0.9294	25.58	0.44	0.750			
0.2320	14849.09	3.9820	3.9820	0.9359	25.58	0.44	0.750			
0.2348	15030.32	3.9790	3.9791	0.9390	25.59	0.45	0.750			
0.2377	15211.27	3.9760	3.9760	0.9388	25.59	0.45	0.750			
0.2405	15393.68	3.9730	3.9730	0.9377	25.59	0.45	0.750			
0.2433	15572.05	3.9700	3.9700	0.9410	25.59	0.45	0.750			
0.2461	15751.84	3.9670	3.9670	0.9423	25.60	0.46	0.750			
0.2490	15933.02	3.9640	3.9641	0.9474	25.60	0.46	0.750			
0.2518	16114.15	3.9610	3.9609	0.9505	25.60	0.46	0.750			
0.2547	16298.89	3.9580	3.9581	0.9473	25.60	0.46	0.750			
0.2575	16479.87	3.9550	3.9551	0.9534	25.61	0.47	0.750			
0.2603	16662.26	3.9520	3.9521	0.9606	25.61	0.47	0.750			
0.2632	16846.74	3.9490	3.9486	0.9623	25.61	0.47	0.750			
0.2661	17031.94	3.9460	3.9461	0.9684	25.61	0.47	0.750			
0.2690	17218.98	3.9430	3.9431	0.9731	25.62	0.48	0.750			
0.2720	17408.97	3.9400	3.9400	0.9806	25.62	0.48	0.750			
0.2750	17597.37	3.9370	3.9370	0.9740	25.63	0.49	0.750			
0.2779	17786.69	3.9340	3.9340	0.9665	25.63	0.49	0.750			
0.2808	17971.25	3.9310	3.9312	0.9697	25.63	0.49	0.750			
0.2837	18156.11	3.9280	3.9280	0.9781	25.63	0.49	0.750			
0.2866	18342.73	3.9250	3.9250	0.9818	25.63	0.49	0.750			
0.2896	18532.25	3.9220	3.9221	0.9867	25.63	0.49	0.750			
0.2925	18722.35	3.9190	3.9191	0.9919	25.64	0.50	0.750			
0.2956	18916.96	3.9160	3.9160	1.0011	25.64	0.50	0.750			
0.2986	19109.73	3.9130	3.9131	1.0050	25.65	0.51	0.750			
0.3016	19301.53	3.9100	3.9099	1.0031	25.65	0.51	0.750			
0.3046	19493.15	3.9070	3.9070	1.0053	25.65	0.51	0.750			
0.3076	19686.11	3.9040	3.9040	1.0129	25.65	0.51	0.750			
0.3106	19881.02	3.9010	3.9010	1.0187	25.65	0.51	0.750			
0.3137	20079.92	3.8980	3.8980	1.0250	25.65	0.51	0.750			
0.3168	20276.45	3.8950	3.8950	1.0272	25.66	0.52	0.750			
0.3199	20474.17	3.8920	3.8920	1.0299	25.66	0.52	0.750			
0.3230	20671.97	3.8890	3.8890	1.0393	25.67	0.53	0.750			
0.3261	20871.34	3.8860	3.8858	1.0453	25.67	0.53	0.750			
0.3293	21072.72	3.8830	3.8830	1.0382	25.67	0.53	0.750			
0.3324	21270.59	3.8800	3.8801	1.0538	25.67	0.53	0.750			
0.3355	21473.37	3.8770	3.8771	1.0659	25.67	0.53	0.750			
0.3387	21679.91	3.8740	3.8735	1.0730	25.67	0.53	0.750			
0.3420	21885.89	3.8710	3.8712	1.0837	25.67	0.53	0.750			
0.3452	22095.20	3.8680	3.8681	1.0928	25.68	0.54	0.750			
0.3486	22309.23	3.8650	3.8650	1.1040	25.68	0.54	0.750			
0.3519	22521.63	3.8620	3.8619	1.0933	25.68	0.54	0.750			
0.3552	22730.53	3.8590	3.8591	1.1018	25.68	0.54	0.750			
0.3585	22942.12	3.8560	3.8560	1.1137	25.69	0.55	0.750			
0.3618	23157.51	3.8530	3.8530	1.1202	25.69	0.55	0.750			
0.3652	23374.45	3.8500	3.8500	1.1145	25.69	0.55	0.750			
0.3686	23587.49	3.8470	3.8471	1.1290	25.69	0.55	0.750			
0.3720	23807.17	3.8440	3.8440	1.1272	25.69	0.55	0.750			
0.3754	24023.31	3.8410	3.8407	1.1536	25.69	0.55	0.750			
0.3788	24244.07	3.8380	3.8381	1.1663	25.69	0.55	0.750			
0.3823	24469.36	3.8350	3.8348	1.1836	25.69	0.55	0.750	0.336	0.433	
0.3860	24701.15	3.8320	3.8322	1.2016	25.69	0.55	0.750			
0.3897	24938.72	3.8290	3.8290	1.2103	25.69	0.55	0.750			
0.3932	25167.88	3.8260	3.8261	1.2058	25.69	0.55	0.750			
0.3968	25396.06	3.8230	3.8231	1.2030	25.69	0.55	0.750			
0.4005	25629.10	3.8200	3.8197	1.2080	25.69	0.55	0.750			
0.4041	25860.61	3.8170	3.8171	1.2186	25.69	0.55	0.750			
0.4077	26094.52	3.8140	3.8141	1.2293	25.68	0.54	0.750			
0.4115	26336.35	3.8110	3.8110	1.2425	25.67	0.53	0.750			
0.4152	26572.80	3.8080	3.8081	1.2513	25.67	0.53	0.750			
0.4190	26815.17	3.8050	3.8050	1.2641	25.66	0.52	0.750			
0.4228	27059.15	3.8020	3.8020	1.2774	25.66	0.52	0.750			
0.4267	27307.92	3.7990	3.7989	1.2853	25.65	0.51	0.750			
0.4305	27551.32	3.7960	3.7961	1.2935	25.64	0.50	0.750			
0.4344	27800.38	3.7930	3.7931	1.3126	25.64	0.50	0.750			
0.4384	28055.69	3.7900	3.7897	1.3162	25.63	0.49	0.750			
0.4423	28305.33	3.7870	3.7871	1.3258	25.62	0.48	0.750			
0.4463	28563.92	3.7840	3.7841	1.3465	25.60	0.46	0.750			
0.4504	28824.99	3.7810	3.7808	1.3612	25.59	0.45	0.750			
0.4545	29085.52	3.7780	3.7780	1.3708	25.58	0.44	0.750			
0.4586	29351.27	3.7750	3.7751	1.3877	25.57	0.43	0.750			
0.4629	29625.34	3.7720	3.7719	1.3796	25.55	0.41	0.750			
0.4669	29884.25	3.7690	3.7691	1.3997	25.54	0.40	0.750			
0.4711	30152.78	3.7660	3.7662	1.4231	25.53	0.39	0.750			
0.4754	30426.12	3.7630	3.7628	1.4415	25.52	0.38	0.750			
0.4798	30705.70	3.7600	3.7601	1.4566	25.51	0.37	0.750			
0.4842	30985.88	3.7570	3.7572	1.5009	25.49	0.35	0.750			
0.4888	31280.19	3.7540	3.7539	1.5314	25.48	0.34	0.750			
0.4934	31575.23	3.7510	3.7509	1.5718	25.47	0.33	0.750			
0.4981	31875.51	3.7480	3.7482	1.5843	25.46	0.32	0.750			
0.5029	32187.34	3.7450	3.7448	1.6352	25.44	0.30	0.750			
0.5079	32505.22	3.7420	3.7419	1.6792	25.42	0.28	0.750			
0.5130	32834.67	3.7390	3.7389	1.7380	25.40	0.26	0.750			
0.5183	33171.49	3.7360	3.7361	1.7825	25.39	0.25	0.750			
0.5236	33511.93	3.7330	3.7332	1.8428	25.38	0.24	0.750			
0.5293	33872.44	3.7300	3.7297	1.8861	25.36	0.22	0.750			
0.5351	34247.15	3.7270	3.7267	1.9240	25.33	0.19	0.750			
0.5409	34618.32	3.7240	3.7243	1.9768	25.31	0.17	0.750			
0.5470	35006.20	3.7210	3.7210	2.0493	25.29	0.15	0.750			
0.5532	35401.80	3.7180	3.7178	2.0949	25.28	0.14	0.750			
0.5594	35802.69	3.7150	3.7150	2.1620	25.27	0.13	0.750			
0.5661	36229.80	3.7120	3.7122	2.2411	25.25	0.11	0.750			
0.5731	36676.05	3.7090	3.7088	2.2971	25.23	0.09	0.750			
0.5800	37117.21	3.7060	3.7059	2.3666	25.21	0.07	0.750			
0.5871	37573.78	3.7030	3.7030	2.4100	25.18	0.04	0.750			
0.5943	38034.33	3.7000	3.7002	2.4698	25.16	0.02	0.750			
0.6020	38527.05	3.6970	3.6969	2.5310	25.14	-0.00	0.750			
0.6097	39023.90	3.6940	3.6938	2.5905	25.13	-0.01	0.750			
0.6176	39525.27	3.6910	3.6909	2.7039	25.11	-0.03	0.750			
0.6259	40055.21	3.6880	3.6879	2.7681	25.08	-0.06	0.750			
0.6342	40590.64	3.6850	3.6852	2.8375	25.07	-0.07	0.750			
0.6427	41132.02	3.6820	3.6822	2.8916	25.05	-0.09	0.750			
0.6514	41690.43	3.6790	3.6793	2.9500	25.03	-0.11	0.750			
0.6605	42273.19	3.6760	3.6763	2.9672	25.02	-0.12	0.750			
0.6695	42846.35	3.6730	3.6733	2.9615	25.01	-0.13	0.750			
0.6785	43423.74	3.6700	3.6700	2.9217	25.00	-0.14	0.750			
0.6872	43983.23	3.6670	3.6671	2.8873	25.00	-0.14	0.750			
0.6960	44545.54	3.6640	3.6639	2.9324	25.00	-0.14	0.750			
0.7048	45108.02	3.6610	3.6608	2.7174	25.01	-0.13	0.750			
0.7128	45618.64	3.6580	3.6577	2.5565	25.02	-0.12	0.750			
0.7199	46072.26	3.6550	3.6554	2.2980	25.03	-0.11	0.750			
0.7264	46489.02	3.6520	3.6521	2.0615	25.04	-0.10	0.750			
0.7324	46870.45	3.6490	3.6486	1.8419	25.06	-0.08	0.750			
0.7378	47219.53	3.6460	3.6459	1.6306	25.08	-0.06	0.750			
0.7423	47504.74	3.6430	3.6430	1.3838	25.09	-0.05	0.750			
0.7458	47729.73	3.6400	3.6402	1.1576	25.09	-0.05	0.750			
0.7488	47922.47	3.6370	3.6371	0.9639	25.10	-0.04	0.750			
0.7514	48086.68	3.6340	3.6338	0.8280	25.10	-0.04	0.750			
0.7534	48219.73	3.6310	3.6310	0.7208	25.11	-0.03	0.750			
0.7554	48346.88	3.6280	3.6280	0.6492	25.11	-0.03	0.750			
0.7572	48463.67	3.6250	3.6250	0.5934	25.12	-0.02	0.750			
0.7589	48571.65	3.6220	3.6220	0.5371	25.13	-0.01	0.750			
0.7605	48670.51	3.6190	3.6189	0.4850	25.13	-0.01	0.750			
0.7619	48761.57	3.6160	3.6159	0.4299	25.14	-0.00	0.750			
0.7631	48839.46	3.6130	3.6129	0.3726	25.14	-0.00	0.750			
0.7642	48905.76	3.6100	3.6101	0.3102	25.14	0.00	0.750			
0.7650	48960.81	3.6070	3.6071	0.2439	25.15	0.01	0.750			
0.7656	49001.32	3.6040	3.6042	0.1726	25.15	0.01	0.750			
0.7661	49027.88	3.6010	3.6020	0.0894	25.15	0.01	0.750			
