Ah_balance (normalized)	Ah_balance (mAh)	Voltage - fit (V)	Voltage -  interpolate (V)	dQ/dV (1/V)	Temperature (°C)	Temperature - diff (°C)	Current (C)	R_DC 0ms (mOhm)	R_DC 50ms (mOhm)	R_DC 50 ms PEC (mOhm)
0.0003	18.12	4.1590	4.1590	-0.1547	24.52	0.00	-0.750			
0.0008	50.95	4.1560	4.1559	-0.1921	24.52	0.00	-0.750			
0.0014	91.66	4.1530	4.1531	-0.2328	24.52	0.00	-0.750			
0.0022	139.77	4.1500	4.1499	-0.2755	24.52	-0.00	-0.750			
0.0031	196.41	4.1470	4.1470	-0.3214	24.52	-0.00	-0.750			
0.0041	262.25	4.1440	4.1440	-0.3641	24.52	-0.00	-0.750			
0.0053	337.27	4.1410	4.1409	-0.3996	24.51	-0.01	-0.750			
0.0065	417.90	4.1380	4.1381	-0.4443	24.51	-0.01	-0.750			
0.0079	507.24	4.1350	4.1352	-0.4840	24.51	-0.01	-0.750			
0.0095	605.52	4.1320	4.1317	-0.5185	24.51	-0.01	-0.750			
0.0111	708.20	4.1290	4.1289	-0.5516	24.50	-0.02	-0.750			
0.0128	818.98	4.1260	4.1262	-0.5759	24.50	-0.02	-0.750			
0.0146	934.48	4.1230	4.1230	-0.6052	24.50	-0.02	-0.750			
0.0165	1053.68	4.1200	4.1199	-0.6271	24.50	-0.02	-0.750			
0.0183	1173.65	4.1170	4.1170	-0.6383	24.49	-0.03	-0.750			
0.0203	1301.12	4.1140	4.1139	-0.6622	24.49	-0.03	-0.750			
0.0224	1431.21	4.1110	4.1110	-0.6739	24.49	-0.03	-0.750			
0.0244	1562.40	4.1080	4.1081	-0.6818	24.48	-0.04	-0.750			
0.0265	1695.82	4.1050	4.1061	-0.6947	24.48	-0.04	-0.750			
0.0286	1827.37	4.1020	4.1019	-0.6989	24.48	-0.04	-0.750			
0.0306	1958.98	4.0990	4.0990	-0.7088	24.48	-0.04	-0.750			
0.0328	2097.67	4.0960	4.0960	-0.7160	24.48	-0.04	-0.750			
0.0349	2236.19	4.0930	4.0930	-0.7217	24.48	-0.04	-0.750			
0.0372	2380.77	4.0900	4.0900	-0.7306	24.48	-0.04	-0.750			
0.0394	2521.04	4.0870	4.0874	-0.7302	24.48	-0.04	-0.750			
0.0415	2658.30	4.0840	4.0840	-0.7341	24.48	-0.04	-0.750			
0.0437	2799.05	4.0810	4.0809	-0.7421	24.48	-0.04	-0.750			
0.0460	2941.11	4.0780	4.0780	-0.7417	24.48	-0.04	-0.750			
0.0482	3086.35	4.0750	4.0750	-0.7540	24.48	-0.04	-0.750			
0.0505	3233.63	4.0720	4.0721	-0.7623	24.48	-0.04	-0.750			
0.0528	3381.40	4.0690	4.0690	-0.7649	24.48	-0.04	-0.750			
0.0551	3525.20	4.0660	4.0659	-0.7710	24.48	-0.04	-0.750			
0.0574	3676.05	4.0630	4.0630	-0.7619	24.48	-0.04	-0.750			
0.0597	3823.41	4.0600	4.0599	-0.7583	24.48	-0.04	-0.750			
0.0620	3967.65	4.0570	4.0570	-0.7621	24.48	-0.04	-0.750			
0.0643	4112.90	4.0540	4.0544	-0.7602	24.48	-0.04	-0.750			
0.0665	4257.27	4.0510	4.0508	-0.7663	24.48	-0.04	-0.750			
0.0688	4404.69	4.0480	4.0479	-0.7732	24.48	-0.04	-0.750			
0.0712	4554.74	4.0450	4.0451	-0.7755	24.49	-0.03	-0.750			
0.0736	4709.56	4.0420	4.0419	-0.7802	24.49	-0.03	-0.750			
0.0759	4858.87	4.0390	4.0392	-0.7786	24.49	-0.03	-0.750			
0.0782	5004.91	4.0360	4.0358	-0.7782	24.49	-0.03	-0.750			
0.0805	5150.14	4.0330	4.0329	-0.7864	24.49	-0.03	-0.750			
0.0829	5303.28	4.0300	4.0299	-0.7810	24.50	-0.02	-0.750			
0.0852	5451.88	4.0270	4.0269	-0.7895	24.50	-0.02	-0.750			
0.0877	5610.27	4.0240	4.0241	-0.7990	24.50	-0.02	-0.750			
0.0901	5763.60	4.0210	4.0208	-0.7995	24.50	-0.02	-0.750			
0.0924	5914.75	4.0180	4.0179	-0.8093	24.51	-0.01	-0.750			
0.0949	6074.08	4.0150	4.0149	-0.8082	24.51	-0.01	-0.750			
0.0973	6229.61	4.0120	4.0119	-0.8034	24.51	-0.01	-0.750			
0.0998	6386.77	4.0090	4.0088	-0.8052	24.52	-0.00	-0.750			
0.1022	6539.33	4.0060	4.0059	-0.7974	24.52	0.00	-0.750			
0.1046	6692.53	4.0030	4.0027	-0.7907	24.52	0.00	-0.750			
0.1069	6838.89	4.0000	3.9999	-0.7955	24.52	0.00	-0.750			
0.1092	6990.25	3.9970	3.9972	-0.7847	24.53	0.01	-0.750			
0.1117	7149.48	3.9940	3.9938	-0.8034	24.53	0.01	-0.750			
0.1141	7303.89	3.9910	3.9915	-0.8062	24.53	0.01	-0.750			
0.1165	7457.96	3.9880	3.9880	-0.8070	24.53	0.01	-0.750			
0.1189	7612.02	3.9850	3.9849	-0.8107	24.53	0.01	-0.750			
0.1214	7768.65	3.9820	3.9820	-0.8143	24.54	0.02	-0.750			
0.1238	7924.80	3.9790	3.9790	-0.8176	24.54	0.02	-0.750			
0.1263	8084.33	3.9760	3.9762	-0.8188	24.54	0.02	-0.750			
0.1288	8240.81	3.9730	3.9729	-0.8181	24.54	0.02	-0.750			
0.1312	8397.78	3.9700	3.9700	-0.8229	24.55	0.03	-0.750			
0.1337	8555.29	3.9670	3.9670	-0.8257	24.55	0.03	-0.750			
0.1362	8716.43	3.9640	3.9639	-0.8318	24.56	0.04	-0.750			
0.1387	8875.59	3.9610	3.9618	-0.8282	24.56	0.04	-0.750			
0.1412	9034.17	3.9580	3.9578	-0.8304	24.56	0.04	-0.750			
0.1437	9193.95	3.9550	3.9550	-0.8355	24.57	0.05	-0.750			
0.1462	9354.45	3.9520	3.9517	-0.8268	24.57	0.05	-0.750			
0.1486	9510.55	3.9490	3.9491	-0.8237	24.58	0.06	-0.750			
0.1511	9672.17	3.9460	3.9460	-0.8346	24.58	0.06	-0.750			
0.1536	9832.01	3.9430	3.9428	-0.8358	24.58	0.06	-0.750			
0.1561	9992.96	3.9400	3.9399	-0.8386	24.58	0.06	-0.750			
0.1586	10150.76	3.9370	3.9370	-0.8395	24.58	0.06	-0.750			
0.1612	10315.89	3.9340	3.9340	-0.8499	24.58	0.06	-0.750			
0.1638	10480.31	3.9310	3.9311	-0.8538	24.58	0.06	-0.750			
0.1663	10642.63	3.9280	3.9279	-0.8525	24.58	0.06	-0.750			
0.1689	10806.97	3.9250	3.9251	-0.8634	24.58	0.06	-0.750			
0.1715	10973.85	3.9220	3.9219	-0.8668	24.59	0.07	-0.750			
0.1741	11141.29	3.9190	3.9190	-0.8650	24.59	0.07	-0.750			
0.1767	11309.95	3.9160	3.9164	-0.8635	24.59	0.07	-0.750			
0.1793	11474.18	3.9130	3.9130	-0.8651	24.59	0.07	-0.750			
0.1819	11640.60	3.9100	3.9099	-0.8575	24.59	0.07	-0.750			
0.1844	11803.99	3.9070	3.9070	-0.8527	24.60	0.08	-0.750			
0.1870	11964.96	3.9040	3.9039	-0.8452	24.60	0.08	-0.750			
0.1895	12129.12	3.9010	3.9012	-0.8554	24.60	0.08	-0.750			
0.1921	12293.90	3.8980	3.8980	-0.8558	24.61	0.09	-0.750			
0.1947	12459.52	3.8950	3.8948	-0.8617	24.61	0.09	-0.750			
0.1972	12622.89	3.8920	3.8920	-0.8599	24.61	0.09	-0.750			
0.1999	12792.87	3.8890	3.8890	-0.8698	24.62	0.10	-0.750			
0.2025	12959.88	3.8860	3.8862	-0.8746	24.62	0.10	-0.750			
0.2051	13128.48	3.8830	3.8828	-0.8793	24.62	0.10	-0.750			
0.2077	13294.87	3.8800	3.8800	-0.8758	24.62	0.10	-0.750			
0.2104	13465.28	3.8770	3.8769	-0.8800	24.62	0.10	-0.750			
0.2131	13636.55	3.8740	3.8738	-0.8843	24.62	0.10	-0.750			
0.2158	13808.56	3.8710	3.8708	-0.8774	24.62	0.10	-0.750			
0.2184	13976.37	3.8680	3.8681	-0.8830	24.63	0.11	-0.750			
0.2210	14145.39	3.8650	3.8649	-0.8708	24.63	0.11	-0.750			
0.2236	14311.56	3.8620	3.8618	-0.8686	24.64	0.12	-0.750			
0.2262	14478.21	3.8590	3.8594	-0.8726	24.64	0.12	-0.750			
0.2288	14644.46	3.8560	3.8560	-0.8732	24.64	0.12	-0.750			
0.2315	14814.97	3.8530	3.8528	-0.8776	24.64	0.12	-0.750			
0.2341	14984.51	3.8500	3.8500	-0.8745	24.65	0.13	-0.750			
0.2367	15151.78	3.8470	3.8470	-0.8795	24.65	0.13	-0.750			
0.2394	15321.45	3.8440	3.8441	-0.8756	24.65	0.13	-0.750			
0.2420	15485.67	3.8410	3.8409	-0.8804	24.65	0.13	-0.750			
0.2446	15656.54	3.8380	3.8380	-0.8696	24.65	0.13	-0.750			
0.2472	15822.33	3.8350	3.8349	-0.8738	24.66	0.14	-0.750			
0.2499	15992.64	3.8320	3.8319	-0.8759	24.66	0.14	-0.750			
0.2525	16160.66	3.8290	3.8288	-0.8741	24.66	0.14	-0.750			
0.2551	16327.19	3.8260	3.8259	-0.8760	24.66	0.14	-0.750			
0.2578	16496.53	3.8230	3.8231	-0.8788	24.67	0.15	-0.750			
0.2604	16663.56	3.8200	3.8199	-0.8718	24.67	0.15	-0.750			
0.2631	16836.01	3.8170	3.8169	-0.8801	24.67	0.15	-0.750			
0.2657	17002.98	3.8140	3.8139	-0.8694	24.67	0.15	-0.750			
0.2683	17170.48	3.8110	3.8110	-0.8709	24.67	0.15	-0.750			
0.2709	17335.94	3.8080	3.8080	-0.8619	24.68	0.16	-0.750			
0.2734	17498.59	3.8050	3.8051	-0.8585	24.68	0.16	-0.750			
0.2760	17665.55	3.8020	3.8019	-0.8649	24.68	0.16	-0.750			
0.2786	17829.92	3.7990	3.7990	-0.8725	24.68	0.16	-0.750			
0.2812	17999.53	3.7960	3.7960	-0.8687	24.68	0.16	-0.750			
0.2839	18168.57	3.7930	3.7929	-0.8627	24.69	0.17	-0.750			
0.2865	18333.37	3.7900	3.7898	-0.8584	24.69	0.17	-0.750			
0.2891	18499.42	3.7870	3.7880	-0.8560	24.69	0.17	-0.750			
0.2915	18659.10	3.7840	3.7840	-0.8578	24.69	0.17	-0.750			
0.2941	18823.19	3.7810	3.7809	-0.8530	24.69	0.17	-0.750			
0.2967	18988.28	3.7780	3.7780	-0.8441	24.70	0.18	-0.750			
0.2993	19152.71	3.7750	3.7749	-0.8398	24.70	0.18	-0.750			
0.3018	19313.82	3.7720	3.7724	-0.8374	24.70	0.18	-0.750			
0.3042	19470.64	3.7690	3.7688	-0.8295	24.70	0.18	-0.750			
0.3067	19626.32	3.7660	3.7660	-0.8291	24.70	0.18	-0.750			
0.3092	19785.99	3.7630	3.7629	-0.8294	24.70	0.18	-0.750			
0.3117	19948.60	3.7600	3.7600	-0.8397	24.70	0.18	-0.750			
0.3142	20111.18	3.7570	3.7571	-0.8412	24.70	0.18	-0.750			
0.3167	20268.86	3.7540	3.7541	-0.8649	24.70	0.18	-0.750			
0.3193	20437.02	3.7510	3.7508	-0.8478	24.71	0.19	-0.750			
0.3219	20598.55	3.7480	3.7480	-0.8454	24.71	0.19	-0.750			
0.3244	20762.44	3.7450	3.7447	-0.8477	24.72	0.20	-0.750			
0.3269	20924.09	3.7420	3.7421	-0.8475	24.72	0.20	-0.750			
0.3294	21083.42	3.7390	3.7390	-0.8640	24.72	0.20	-0.750			
0.3320	21250.42	3.7360	3.7358	-0.8704	24.72	0.20	-0.750			
0.3347	21421.35	3.7330	3.7329	-0.8902	24.72	0.20	-0.750			
0.3374	21591.52	3.7300	3.7299	-0.8970	24.72	0.20	-0.750			
0.3401	21764.88	3.7270	3.7271	-0.9048	24.72	0.20	-0.750			
0.3428	21939.19	3.7240	3.7238	-0.9176	24.72	0.20	-0.750			
0.3455	22111.44	3.7210	3.7210	-0.9235	24.72	0.20	-0.750			
0.3482	22287.02	3.7180	3.7181	-0.9314	24.72	0.20	-0.750			
0.3511	22473.19	3.7150	3.7150	-0.9560	24.72	0.20	-0.750			
0.3540	22658.69	3.7120	3.7120	-0.9883	24.72	0.20	-0.750			
0.3571	22851.45	3.7090	3.7088	-0.9939	24.72	0.20	-0.750			
0.3601	23045.77	3.7060	3.7059	-1.0057	24.71	0.19	-0.750			
0.3631	23238.42	3.7030	3.7029	-1.0230	24.71	0.19	-0.750			
0.3662	23436.52	3.7000	3.6999	-1.0502	24.71	0.19	-0.750			
0.3694	23641.23	3.6970	3.6968	-1.0653	24.71	0.19	-0.750			
0.3726	23846.55	3.6940	3.6939	-1.0743	24.70	0.18	-0.750			
0.3759	24055.98	3.6910	3.6912	-1.1009	24.70	0.18	-0.750			
0.3792	24270.05	3.6880	3.6879	-1.1234	24.70	0.18	-0.750			
0.3826	24486.16	3.6850	3.6850	-1.1361	24.69	0.17	-0.750			
0.3860	24701.95	3.6820	3.6819	-1.1510	24.68	0.16	-0.750			
0.3895	24926.17	3.6790	3.6792	-1.1961	24.68	0.16	-0.750			
0.3931	25160.76	3.6760	3.6759	-1.2163	24.67	0.15	-0.750			
0.3968	25396.49	3.6730	3.6728	-1.2375	24.67	0.15	-0.750			
0.4005	25635.04	3.6700	3.6700	-1.2734	24.66	0.14	-0.750			
0.4045	25886.80	3.6670	3.6668	-1.3008	24.65	0.13	-0.750			
0.4084	26136.48	3.6640	3.6638	-1.3265	24.64	0.12	-0.750			
0.4123	26390.15	3.6610	3.6609	-1.3500	24.63	0.11	-0.750			
0.4165	26656.83	3.6580	3.6579	-1.3913	24.62	0.10	-0.750			
0.4207	26927.00	3.6550	3.6547	-1.4243	24.61	0.09	-0.750			
0.4249	27196.31	3.6520	3.6519	-1.4640	24.60	0.08	-0.750			
0.4295	27490.10	3.6490	3.6487	-1.4895	24.60	0.08	-0.750			
0.4341	27780.55	3.6460	3.6458	-1.5216	24.59	0.07	-0.750			
0.4387	28075.68	3.6430	3.6437	-1.5068	24.58	0.06	-0.750			
0.4432	28362.88	3.6400	3.6401	-1.5545	24.57	0.05	-0.750			
0.4478	28658.45	3.6370	3.6368	-1.5486	24.57	0.05	-0.750			
0.4525	28959.89	3.6340	3.6338	-1.5699	24.56	0.04	-0.750			
0.4572	29260.53	3.6310	3.6313	-1.6534	24.55	0.03	-0.750			
0.4625	29602.13	3.6280	3.6278	-1.6485	24.54	0.02	-0.750			
0.4674	29911.49	3.6250	3.6247	-1.6531	24.53	0.01	-0.750			
0.4723	30224.55	3.6220	3.6220	-1.7286	24.53	0.01	-0.750			
0.4776	30566.32	3.6190	3.6186	-1.7525	24.52	-0.00	-0.750			
0.4831	30917.32	3.6160	3.6164	-1.7721	24.51	-0.01	-0.750			
0.4883	31249.95	3.6130	3.6135	-1.8204	24.50	-0.02	-0.750			
0.4940	31619.12	3.6100	3.6104	-1.9249	24.50	-0.02	-0.750			
0.4998	31989.96	3.6070	3.6064	-1.9059	24.50	-0.02	-0.750			
0.5056	32359.38	3.6040	3.6037	-1.9338	24.49	-0.03	-0.750			
0.5116	32741.08	3.6010	3.6008	-1.9897	24.48	-0.04	-0.750			
0.5174	33113.13	3.5980	3.5983	-2.0423	24.47	-0.05	-0.750			
0.5235	33504.12	3.5950	3.5953	-2.0932	24.46	-0.06	-0.750			
0.5297	33902.05	3.5920	3.5919	-2.1623	24.46	-0.06	-0.750			
0.5365	34335.93	3.5890	3.5890	-2.1631	24.46	-0.06	-0.750			
0.5432	34761.66	3.5860	3.5859	-2.1944	24.46	-0.06	-0.750			
0.5495	35166.52	3.5830	3.5826	-2.1493	24.45	-0.07	-0.750			
0.5561	35588.55	3.5800	3.5803	-2.2090	24.45	-0.07	-0.750			
0.5625	36000.87	3.5770	3.5767	-2.2440	24.44	-0.08	-0.750			
0.5694	36438.95	3.5740	3.5746	-2.3400	24.44	-0.08	-0.750			
0.5764	36887.18	3.5710	3.5705	-2.3650	24.44	-0.08	-0.750			
0.5833	37331.39	3.5680	3.5678	-2.3032	24.44	-0.08	-0.750			
0.5904	37783.37	3.5650	3.5643	-2.4492	24.44	-0.08	-0.750			
0.5973	38227.91	3.5620	3.5620	-2.4322	24.44	-0.08	-0.750			
0.6047	38703.02	3.5590	3.5586	-2.5201	24.45	-0.07	-0.750			
0.6124	39194.53	3.5560	3.5560	-2.3906	24.46	-0.06	-0.750			
0.6196	39657.36	3.5530	3.5527	-2.4320	24.46	-0.06	-0.750			
0.6269	40118.45	3.5500	3.5502	-2.4120	24.46	-0.06	-0.750			
0.6338	40563.95	3.5470	3.5466	-2.2969	24.46	-0.06	-0.750			
0.6407	41002.48	3.5440	3.5435	-2.2948	24.46	-0.06	-0.750			
0.6479	41465.30	3.5410	3.5409	-2.2490	24.47	-0.05	-0.750			
0.6542	41869.04	3.5380	3.5386	-2.1846	24.48	-0.04	-0.750			
0.6609	42294.41	3.5350	3.5346	-2.1901	24.50	-0.02	-0.750			
0.6673	42707.88	3.5320	3.5320	-2.1537	24.51	-0.01	-0.750			
0.6736	43109.56	3.5290	3.5298	-2.0994	24.52	-0.00	-0.750			
0.6800	43522.87	3.5260	3.5258	-2.0695	24.53	0.01	-0.750			
0.6864	43930.10	3.5230	3.5231	-2.0513	24.54	0.02	-0.750			
0.6926	44326.17	3.5200	3.5204	-2.0206	24.55	0.03	-0.750			
0.6985	44704.68	3.5170	3.5167	-1.8934	24.57	0.05	-0.750			
0.7038	45042.89	3.5140	3.5137	-1.7809	24.58	0.06	-0.750			
0.7090	45374.03	3.5110	3.5107	-1.6817	24.59	0.07	-0.750			
0.7141	45700.38	3.5080	3.5083	-1.6330	24.60	0.08	-0.750			
0.7187	45998.12	3.5050	3.5055	-1.5372	24.62	0.10	-0.750			
0.7232	46281.82	3.5020	3.5018	-1.4971	24.63	0.11	-0.750			
0.7276	46564.71	3.4990	3.4988	-1.4479	24.64	0.12	-0.750			
0.7319	46841.37	3.4960	3.4962	-1.4241	24.66	0.14	-0.750			
0.7362	47114.14	3.4930	3.4928	-1.3880	24.67	0.15	-0.750			
0.7403	47379.94	3.4900	3.4899	-1.4207	24.68	0.16	-0.750			
