Ah_balance (normalized)	Ah_balance (mAh)	Voltage - fit (V)	Voltage -  interpolate (V)	dQ/dV (1/V)	Temperature (°C)	Temperature - diff (°C)	Current (C)	R_DC 0ms (mOhm)	R_DC 50ms (mOhm)	R_DC 50 ms PEC (mOhm)
0.0481	3075.36	4.1970	4.1969	0.7682	25.25	0.49	0.750			
0.0504	3222.67	4.1940	4.1940	0.7648	25.25	0.49	0.750			
0.0527	3371.87	4.1910	4.1909	0.7593	25.25	0.49	0.750			
0.0549	3513.00	4.1880	4.1881	0.7563	25.25	0.49	0.750			
0.0571	3655.70	4.1850	4.1850	0.7603	25.25	0.49	0.750			
0.0594	3802.30	4.1820	4.1821	0.7643	25.25	0.49	0.750			
0.0617	3949.30	4.1790	4.1790	0.7670	25.25	0.49	0.750			
0.0640	4097.85	4.1760	4.1762	0.7684	25.25	0.49	0.750			
0.0664	4247.51	4.1730	4.1730	0.7682	25.25	0.49	0.750			
0.0687	4394.49	4.1700	4.1700	0.7686	25.26	0.50	0.750			
0.0709	4540.27	4.1670	4.1670	0.7622	25.26	0.50	0.750			
0.0732	4685.61	4.1640	4.1634	0.7624	25.26	0.50	0.750			
0.0755	4832.74	4.1610	4.1611	0.7714	25.26	0.50	0.750			
0.0778	4981.82	4.1580	4.1580	0.7739	25.26	0.50	0.750			
0.0802	5130.89	4.1550	4.1549	0.7782	25.27	0.51	0.750			
0.0825	5282.25	4.1520	4.1520	0.7834	25.27	0.51	0.750			
0.0849	5431.10	4.1490	4.1491	0.7797	25.27	0.51	0.750			
0.0872	5582.80	4.1460	4.1460	0.7806	25.27	0.51	0.750			
0.0896	5733.02	4.1430	4.1431	0.7790	25.27	0.51	0.750			
0.0919	5880.73	4.1400	4.1400	0.7747	25.27	0.51	0.750			
0.0942	6028.84	4.1370	4.1371	0.7774	25.27	0.51	0.750			
0.0965	6176.47	4.1340	4.1340	0.7778	25.27	0.51	0.750			
0.0988	6326.15	4.1310	4.1311	0.7815	25.27	0.51	0.750			
0.1012	6477.57	4.1280	4.1281	0.7860	25.27	0.51	0.750			
0.1036	6628.61	4.1250	4.1250	0.7864	25.27	0.51	0.750			
0.1060	6781.21	4.1220	4.1220	0.7899	25.28	0.52	0.750			
0.1083	6932.03	4.1190	4.1190	0.7883	25.28	0.52	0.750			
0.1107	7084.13	4.1160	4.1155	0.7919	25.28	0.52	0.750			
0.1131	7235.99	4.1130	4.1131	0.7957	25.28	0.52	0.750			
0.1155	7390.05	4.1100	4.1101	0.7975	25.28	0.52	0.750			
0.1179	7544.70	4.1070	4.1069	0.7997	25.28	0.52	0.750			
0.1203	7698.27	4.1040	4.1041	0.7986	25.28	0.52	0.750			
0.1226	7849.59	4.1010	4.1009	0.7987	25.28	0.52	0.750			
0.1250	8002.69	4.0980	4.0980	0.8003	25.28	0.52	0.750			
0.1275	8158.35	4.0950	4.0950	0.7958	25.28	0.52	0.750			
0.1298	8309.46	4.0920	4.0920	0.7993	25.28	0.52	0.750			
0.1322	8463.58	4.0890	4.0891	0.8068	25.28	0.52	0.750			
0.1347	8618.12	4.0860	4.0861	0.8105	25.28	0.52	0.750			
0.1371	8773.37	4.0830	4.0831	0.8145	25.28	0.52	0.750			
0.1396	8935.58	4.0800	4.0799	0.8023	25.29	0.53	0.750			
0.1420	9088.60	4.0770	4.0770	0.8110	25.29	0.53	0.750			
0.1444	9243.42	4.0740	4.0741	0.8148	25.29	0.53	0.750			
0.1468	9397.01	4.0710	4.0712	0.8204	25.30	0.54	0.750			
0.1493	9553.97	4.0680	4.0680	0.8248	25.30	0.54	0.750			
0.1518	9715.64	4.0650	4.0651	0.8266	25.30	0.54	0.750			
0.1543	9875.22	4.0620	4.0621	0.8387	25.30	0.54	0.750			
0.1569	10039.87	4.0590	4.0591	0.8428	25.30	0.54	0.750			
0.1594	10200.13	4.0560	4.0560	0.8335	25.30	0.54	0.750			
0.1619	10359.81	4.0530	4.0530	0.8388	25.30	0.54	0.750			
0.1644	10524.02	4.0500	4.0501	0.8288	25.31	0.55	0.750			
0.1669	10682.18	4.0470	4.0470	0.8400	25.31	0.55	0.750			
0.1694	10843.24	4.0440	4.0441	0.8429	25.31	0.55	0.750			
0.1719	11003.29	4.0410	4.0411	0.8404	25.32	0.56	0.750			
0.1745	11165.25	4.0380	4.0379	0.8492	25.32	0.56	0.750			
0.1770	11331.11	4.0350	4.0352	0.8410	25.32	0.56	0.750			
0.1796	11492.36	4.0320	4.0320	0.8440	25.32	0.56	0.750			
0.1821	11655.11	4.0290	4.0291	0.8488	25.33	0.57	0.750			
0.1846	11814.36	4.0260	4.0261	0.8449	25.33	0.57	0.750			
0.1871	11976.91	4.0230	4.0231	0.8525	25.33	0.57	0.750			
0.1897	12141.79	4.0200	4.0200	0.8598	25.33	0.57	0.750			
0.1923	12308.16	4.0170	4.0171	0.8636	25.33	0.57	0.750			
0.1950	12477.41	4.0140	4.0140	0.8619	25.33	0.57	0.750			
0.1975	12640.80	4.0110	4.0110	0.8622	25.33	0.57	0.750			
0.2001	12803.59	4.0080	4.0081	0.8661	25.33	0.57	0.750			
0.2027	12974.36	4.0050	4.0050	0.8552	25.34	0.58	0.750			
0.2052	13135.88	4.0020	4.0022	0.8717	25.34	0.58	0.750			
0.2079	13304.05	3.9990	3.9992	0.8779	25.35	0.59	0.750			
0.2105	13474.90	3.9960	3.9956	0.8892	25.35	0.59	0.750			
0.2132	13647.30	3.9930	3.9931	0.8941	25.35	0.59	0.750			
0.2159	13815.99	3.9900	3.9902	0.8799	25.35	0.59	0.750			
0.2185	13986.47	3.9870	3.9871	0.8850	25.36	0.60	0.750			
0.2212	14157.20	3.9840	3.9841	0.8783	25.36	0.60	0.750			
0.2238	14324.46	3.9810	3.9811	0.8840	25.36	0.60	0.750			
0.2265	14498.96	3.9780	3.9780	0.8748	25.36	0.60	0.750			
0.2292	14667.48	3.9750	3.9749	0.8677	25.37	0.61	0.750			
0.2318	14838.22	3.9720	3.9720	0.8620	25.37	0.61	0.750			
0.2344	14998.92	3.9690	3.9693	0.8611	25.38	0.62	0.750			
0.2369	15163.11	3.9660	3.9663	0.8710	25.38	0.62	0.750			
0.2395	15329.30	3.9630	3.9634	0.8731	25.38	0.62	0.750			
0.2421	15492.30	3.9600	3.9607	0.8909	25.38	0.62	0.750			
0.2448	15664.83	3.9570	3.9576	0.9201	25.38	0.62	0.750			
0.2476	15845.85	3.9540	3.9544	0.9226	25.38	0.62	0.750			
0.2504	16027.86	3.9510	3.9514	0.9259	25.38	0.62	0.750			
0.2531	16201.35	3.9480	3.9485	0.9234	25.39	0.63	0.750			
0.2560	16381.54	3.9450	3.9452	0.9374	25.39	0.63	0.750			
0.2589	16571.95	3.9420	3.9423	0.9255	25.40	0.64	0.750			
0.2616	16740.04	3.9390	3.9387	0.9248	25.40	0.64	0.750			
0.2644	16919.48	3.9360	3.9364	0.9408	25.41	0.65	0.750			
0.2673	17105.79	3.9330	3.9330	0.9526	25.41	0.65	0.750			
0.2702	17290.45	3.9300	3.9301	0.9563	25.41	0.65	0.750			
0.2729	17468.72	3.9270	3.9270	0.9405	25.42	0.66	0.750			
0.2759	17659.30	3.9240	3.9240	0.9381	25.42	0.66	0.750			
0.2787	17836.38	3.9210	3.9210	0.9559	25.42	0.66	0.750			
0.2814	18012.17	3.9180	3.9181	0.9544	25.43	0.67	0.750			
0.2843	18196.75	3.9150	3.9151	0.9662	25.43	0.67	0.750			
0.2873	18384.60	3.9120	3.9119	0.9755	25.43	0.67	0.750			
0.2902	18574.03	3.9090	3.9093	0.9660	25.43	0.67	0.750			
0.2932	18762.06	3.9060	3.9062	0.9690	25.43	0.67	0.750			
0.2961	18947.39	3.9030	3.9031	0.9690	25.43	0.67	0.750			
0.2989	19128.22	3.9000	3.8997	0.9535	25.43	0.67	0.750			
0.3017	19311.04	3.8970	3.8971	0.9569	25.43	0.67	0.750			
0.3046	19495.86	3.8940	3.8941	0.9628	25.43	0.67	0.750			
0.3076	19685.65	3.8910	3.8910	0.9712	25.43	0.67	0.750			
0.3105	19870.34	3.8880	3.8879	0.9626	25.43	0.67	0.750			
0.3135	20062.87	3.8850	3.8849	0.9461	25.43	0.67	0.750			
0.3162	20239.35	3.8820	3.8821	0.9495	25.43	0.67	0.750			
0.3190	20418.56	3.8790	3.8791	0.9523	25.43	0.67	0.750			
0.3219	20600.09	3.8760	3.8762	0.9612	25.43	0.67	0.750			
0.3247	20783.68	3.8730	3.8730	0.9671	25.43	0.67	0.750			
0.3277	20970.75	3.8700	3.8702	0.9614	25.42	0.66	0.750			
0.3306	21157.69	3.8670	3.8671	0.9714	25.41	0.65	0.750			
0.3335	21345.32	3.8640	3.8642	0.9840	25.41	0.65	0.750			
0.3364	21531.35	3.8610	3.8609	0.9793	25.40	0.64	0.750			
0.3394	21719.33	3.8580	3.8581	0.9849	25.40	0.64	0.750			
0.3424	21911.22	3.8550	3.8551	0.9931	25.39	0.63	0.750			
0.3454	22105.86	3.8520	3.8521	1.0042	25.39	0.63	0.750			
0.3485	22302.52	3.8490	3.8489	1.0124	25.39	0.63	0.750			
0.3515	22494.78	3.8460	3.8459	0.9854	25.38	0.62	0.750			
0.3544	22682.85	3.8430	3.8430	0.9856	25.38	0.62	0.750			
0.3573	22868.27	3.8400	3.8402	1.0056	25.37	0.61	0.750			
0.3603	23061.51	3.8370	3.8367	1.0135	25.36	0.60	0.750			
0.3634	23259.03	3.8340	3.8340	1.0128	25.35	0.59	0.750	0.350	0.425	
0.3665	23453.22	3.8310	3.8313	1.0282	25.35	0.59	0.750			
0.3696	23654.74	3.8280	3.8282	1.0344	25.34	0.58	0.750			
0.3728	23856.49	3.8250	3.8247	1.0344	25.33	0.57	0.750			
0.3759	24055.48	3.8220	3.8223	1.0365	25.32	0.56	0.750			
0.3789	24252.61	3.8190	3.8190	1.0320	25.31	0.55	0.750			
0.3821	24452.03	3.8160	3.8160	1.0409	25.30	0.54	0.750			
0.3852	24654.05	3.8130	3.8129	1.0474	25.29	0.53	0.750			
0.3883	24853.25	3.8100	3.8100	1.0393	25.29	0.53	0.750			
0.3914	25051.80	3.8070	3.8070	1.0534	25.28	0.52	0.750			
0.3946	25253.54	3.8040	3.8040	1.0596	25.28	0.52	0.750			
0.3978	25458.09	3.8010	3.8007	1.0732	25.27	0.51	0.750			
0.4010	25664.72	3.7980	3.7982	1.0729	25.26	0.50	0.750			
0.4042	25868.78	3.7950	3.7951	1.0854	25.25	0.49	0.750			
0.4075	26078.36	3.7920	3.7921	1.1052	25.23	0.47	0.750			
0.4108	26292.21	3.7890	3.7883	1.1220	25.22	0.46	0.750			
0.4143	26512.02	3.7860	3.7861	1.1241	25.21	0.45	0.750			
0.4176	26725.99	3.7830	3.7831	1.1504	25.20	0.44	0.750			
0.4211	26948.84	3.7800	3.7801	1.1758	25.19	0.43	0.750			
0.4246	27173.87	3.7770	3.7771	1.1826	25.18	0.42	0.750			
0.4281	27401.51	3.7740	3.7743	1.2072	25.16	0.40	0.750			
0.4318	27637.61	3.7710	3.7712	1.2384	25.15	0.39	0.750			
0.4357	27885.36	3.7680	3.7675	1.2450	25.13	0.37	0.750			
0.4394	28122.51	3.7650	3.7653	1.2860	25.12	0.36	0.750			
0.4432	28366.29	3.7620	3.7622	1.3094	25.10	0.34	0.750			
0.4472	28622.22	3.7590	3.7589	1.3438	25.08	0.32	0.750			
0.4514	28886.46	3.7560	3.7561	1.3850	25.07	0.31	0.750			
0.4555	29154.73	3.7530	3.7531	1.3850	25.06	0.30	0.750			
0.4598	29427.22	3.7500	3.7501	1.3860	25.05	0.29	0.750			
0.4639	29688.15	3.7470	3.7472	1.4311	25.04	0.28	0.750			
0.4682	29965.29	3.7440	3.7431	1.4547	25.02	0.26	0.750			
0.4726	30248.86	3.7410	3.7410	1.4740	25.00	0.24	0.750			
0.4772	30539.88	3.7380	3.7384	1.5205	24.99	0.23	0.750			
0.4817	30830.98	3.7350	3.7346	1.6194	24.97	0.21	0.750			
0.4867	31147.47	3.7320	3.7323	1.6557	24.96	0.20	0.750			
0.4919	31480.13	3.7290	3.7286	1.6957	24.93	0.17	0.750			
0.4971	31816.48	3.7260	3.7262	1.6937	24.91	0.15	0.750			
0.5023	32148.26	3.7230	3.7228	1.7084	24.89	0.13	0.750			
0.5074	32474.96	3.7200	3.7198	1.8001	24.87	0.11	0.750			
0.5125	32797.11	3.7170	3.7172	1.8676	24.86	0.10	0.750			
0.5181	33156.17	3.7140	3.7144	1.9804	24.84	0.08	0.750			
0.5243	33556.83	3.7110	3.7106	2.1164	24.82	0.06	0.750			
0.5308	33969.74	3.7080	3.7088	2.2600	24.80	0.04	0.750			
0.5378	34418.57	3.7050	3.7051	2.2214	24.78	0.02	0.750			
0.5448	34866.02	3.7020	3.7021	2.3097	24.77	0.01	0.750			
0.5515	35295.98	3.6990	3.6989	2.2793	24.75	-0.01	0.750			
0.5579	35707.20	3.6960	3.6965	2.2929	24.73	-0.03	0.750			
0.5650	36159.63	3.6930	3.6926	2.3474	24.71	-0.05	0.750			
0.5720	36607.63	3.6900	3.6900	2.5976	24.70	-0.06	0.750			
0.5803	37138.29	3.6870	3.6863	2.7832	24.68	-0.08	0.750			
0.5892	37707.09	3.6840	3.6841	2.8450	24.66	-0.10	0.750			
0.5979	38263.72	3.6810	3.6808	2.8566	24.64	-0.12	0.750			
0.6057	38767.34	3.6780	3.6779	2.7591	24.63	-0.13	0.750			
0.6141	39305.21	3.6750	3.6750	2.8120	24.63	-0.13	0.750			
0.6227	39852.90	3.6720	3.6721	2.8581	24.62	-0.14	0.750			
0.6313	40400.49	3.6690	3.6690	2.8098	24.62	-0.14	0.750			
0.6397	40938.10	3.6660	3.6661	2.6945	24.62	-0.14	0.750			
0.6478	41456.02	3.6630	3.6629	2.5570	24.62	-0.14	0.750			
0.6553	41936.12	3.6600	3.6597	2.3673	24.63	-0.13	0.750			
0.6620	42366.96	3.6570	3.6571	2.1611	24.63	-0.13	0.750			
0.6681	42756.14	3.6540	3.6539	1.9420	24.64	-0.12	0.750			
0.6735	43107.01	3.6510	3.6508	1.7557	24.65	-0.11	0.750			
0.6785	43425.95	3.6480	3.6481	1.5793	24.66	-0.10	0.750			
0.6829	43708.39	3.6450	3.6451	1.4207	24.67	-0.09	0.750			
0.6870	43968.88	3.6420	3.6421	1.2822	24.68	-0.08	0.750			
0.6906	44200.46	3.6390	3.6389	1.1579	24.68	-0.08	0.750			
0.6937	44396.57	3.6360	3.6360	1.0615	24.69	-0.07	0.750			
0.6967	44587.92	3.6330	3.6330	0.9981	24.69	-0.07	0.750			
0.6995	44766.20	3.6300	3.6300	0.9519	24.69	-0.07	0.750			
0.7023	44944.39	3.6270	3.6270	0.9249	24.70	-0.06	0.750			
0.7050	45117.30	3.6240	3.6241	0.9069	24.71	-0.05	0.750			
0.7077	45292.48	3.6210	3.6211	0.8917	24.71	-0.05	0.750			
0.7105	45469.88	3.6180	3.6174	0.8447	24.72	-0.04	0.750			
0.7129	45628.18	3.6150	3.6151	0.8098	24.73	-0.03	0.750			
0.7153	45782.09	3.6120	3.6122	0.7659	24.73	-0.03	0.750			
0.7176	45926.20	3.6090	3.6094	0.7079	24.74	-0.02	0.750			
0.7197	46059.05	3.6060	3.6062	0.6434	24.75	-0.01	0.750			
0.7215	46173.42	3.6030	3.6032	0.5690	24.75	-0.01	0.750			
0.7231	46277.10	3.6000	3.6001	0.5050	24.76	-0.00	0.750			
0.7245	46368.89	3.5970	3.5970	0.4415	24.76	0.00	0.750			
0.7257	46445.23	3.5940	3.5941	0.3723	24.77	0.01	0.750			
0.7267	46509.93	3.5910	3.5909	0.3165	24.77	0.01	0.750			
0.7276	46565.48	3.5880	3.5880	0.2642	24.77	0.01	0.750			
0.7283	46611.11	3.5850	3.5850	0.2129	24.78	0.02	0.750			
0.7288	46646.33	3.5820	3.5821	0.1647	24.78	0.02	0.750			
0.7293	46673.22	3.5790	3.5792	0.1133	24.78	0.02	0.750			
