Ah_balance (normalized)	Ah_balance (mAh)	Voltage - fit (V)	Voltage -  interpolate (V)	dQ/dV (1/V)	Temperature (°C)	Temperature - diff (°C)	Current (C)	R_DC 0ms (mOhm)	R_DC 50ms (mOhm)	R_DC 50 ms PEC (mOhm)
0.0477	3055.11	4.1990	4.1990	0.7555	25.94	0.57	0.750			
0.0500	3198.81	4.1960	4.1961	0.7444	25.95	0.58	0.750			
0.0522	3341.31	4.1930	4.1930	0.7400	25.95	0.58	0.750			
0.0544	3481.99	4.1900	4.1900	0.7390	25.95	0.58	0.750			
0.0566	3623.67	4.1870	4.1869	0.7336	25.96	0.59	0.750			
0.0588	3764.07	4.1840	4.1840	0.7380	25.96	0.59	0.750			
0.0610	3904.84	4.1810	4.1810	0.7435	25.97	0.60	0.750			
0.0633	4048.09	4.1780	4.1780	0.7495	25.97	0.60	0.750			
0.0655	4192.83	4.1750	4.1750	0.7559	25.97	0.60	0.750			
0.0678	4339.10	4.1720	4.1720	0.7601	25.97	0.60	0.750			
0.0701	4485.90	4.1690	4.1690	0.7567	25.97	0.60	0.750			
0.0724	4632.53	4.1660	4.1660	0.7606	25.97	0.60	0.750			
0.0746	4776.49	4.1630	4.1631	0.7587	25.97	0.60	0.750			
0.0769	4921.89	4.1600	4.1599	0.7607	25.97	0.60	0.750			
0.0792	5068.23	4.1570	4.1570	0.7601	25.97	0.60	0.750			
0.0815	5215.04	4.1540	4.1540	0.7554	25.98	0.61	0.750			
0.0838	5360.60	4.1510	4.1511	0.7599	25.98	0.61	0.750			
0.0860	5506.02	4.1480	4.1480	0.7621	25.99	0.62	0.750			
0.0883	5650.04	4.1450	4.1449	0.7585	25.99	0.62	0.750			
0.0906	5796.01	4.1420	4.1420	0.7629	25.99	0.62	0.750			
0.0929	5942.55	4.1390	4.1390	0.7656	25.99	0.62	0.750			
0.0952	6090.15	4.1360	4.1361	0.7617	25.99	0.62	0.750			
0.0974	6235.70	4.1330	4.1330	0.7644	25.99	0.62	0.750			
0.0997	6381.71	4.1300	4.1301	0.7698	25.99	0.62	0.750			
0.1020	6528.58	4.1270	4.1269	0.7735	25.99	0.62	0.750			
0.1044	6679.10	4.1240	4.1242	0.7811	25.99	0.62	0.750			
0.1068	6832.24	4.1210	4.1211	0.7806	26.00	0.63	0.750			
0.1091	6983.39	4.1180	4.1180	0.7814	26.00	0.63	0.750			
0.1114	7131.19	4.1150	4.1151	0.7774	26.01	0.64	0.750			
0.1137	7279.24	4.1120	4.1116	0.7780	26.01	0.64	0.750			
0.1161	7428.82	4.1090	4.1090	0.7831	26.01	0.64	0.750			
0.1184	7580.11	4.1060	4.1061	0.7842	26.01	0.64	0.750			
0.1208	7731.37	4.1030	4.1030	0.7863	26.01	0.64	0.750			
0.1232	7885.31	4.1000	4.0999	0.7909	26.01	0.64	0.750			
0.1255	8034.21	4.0970	4.0970	0.7863	26.01	0.64	0.750			
0.1279	8184.70	4.0940	4.0940	0.7884	26.01	0.64	0.750			
0.1303	8338.30	4.0910	4.0910	0.7862	26.01	0.64	0.750			
0.1326	8488.31	4.0880	4.0880	0.7870	26.01	0.64	0.750			
0.1350	8639.51	4.0850	4.0850	0.7926	26.02	0.65	0.750			
0.1374	8790.45	4.0820	4.0821	0.7959	26.02	0.65	0.750			
0.1397	8943.43	4.0790	4.0792	0.7991	26.02	0.65	0.750			
0.1421	9097.08	4.0760	4.0760	0.8050	26.02	0.65	0.750			
0.1446	9254.31	4.0730	4.0730	0.7981	26.02	0.65	0.750			
0.1470	9405.95	4.0700	4.0701	0.8067	26.03	0.66	0.750			
0.1494	9559.76	4.0670	4.0671	0.8052	26.03	0.66	0.750			
0.1518	9714.21	4.0640	4.0634	0.8134	26.03	0.66	0.750			
0.1542	9870.38	4.0610	4.0612	0.8147	26.03	0.66	0.750			
0.1567	10028.84	4.0580	4.0581	0.8151	26.03	0.66	0.750			
0.1592	10187.10	4.0550	4.0551	0.8229	26.04	0.67	0.750			
0.1616	10343.67	4.0520	4.0520	0.8152	26.04	0.67	0.750			
0.1641	10500.99	4.0490	4.0488	0.8176	26.04	0.67	0.750			
0.1665	10658.49	4.0460	4.0460	0.8215	26.04	0.67	0.750			
0.1690	10816.14	4.0430	4.0431	0.8158	26.04	0.67	0.750			
0.1715	10973.77	4.0400	4.0400	0.8264	26.05	0.68	0.750			
0.1739	11131.06	4.0370	4.0370	0.8266	26.05	0.68	0.750			
0.1764	11289.08	4.0340	4.0336	0.8339	26.05	0.68	0.750			
0.1789	11450.11	4.0310	4.0312	0.8416	26.05	0.68	0.750			
0.1815	11613.43	4.0280	4.0280	0.8402	26.05	0.68	0.750			
0.1840	11777.07	4.0250	4.0250	0.8431	26.05	0.68	0.750			
0.1865	11936.16	4.0220	4.0222	0.8395	26.05	0.68	0.750			
0.1890	12097.63	4.0190	4.0185	0.8437	26.05	0.68	0.750			
0.1916	12260.97	4.0160	4.0161	0.8461	26.05	0.68	0.750			
0.1941	12423.32	4.0130	4.0130	0.8500	26.05	0.68	0.750			
0.1967	12589.00	4.0100	4.0101	0.8570	26.06	0.69	0.750			
0.1993	12753.46	4.0070	4.0070	0.8520	26.06	0.69	0.750			
0.2018	12917.88	4.0040	4.0039	0.8568	26.06	0.69	0.750			
0.2044	13082.27	4.0010	4.0010	0.8549	26.06	0.69	0.750			
0.2070	13246.85	3.9980	3.9980	0.8602	26.06	0.69	0.750			
0.2096	13412.17	3.9950	3.9950	0.8615	26.06	0.69	0.750			
0.2122	13577.63	3.9920	3.9921	0.8618	26.06	0.69	0.750			
0.2147	13743.00	3.9890	3.9891	0.8660	26.06	0.69	0.750			
0.2174	13911.04	3.9860	3.9860	0.8648	26.06	0.69	0.750			
0.2199	14076.07	3.9830	3.9829	0.8659	26.06	0.69	0.750			
0.2225	14242.43	3.9800	3.9801	0.8683	26.07	0.70	0.750			
0.2251	14409.41	3.9770	3.9771	0.8664	26.07	0.70	0.750			
0.2278	14576.56	3.9740	3.9740	0.8697	26.07	0.70	0.750			
0.2304	14743.47	3.9710	3.9711	0.8701	26.07	0.70	0.750			
0.2330	14909.29	3.9680	3.9680	0.8703	26.07	0.70	0.750			
0.2356	15076.94	3.9650	3.9650	0.8759	26.07	0.70	0.750			
0.2382	15245.61	3.9620	3.9620	0.8750	26.07	0.70	0.750			
0.2409	15414.49	3.9590	3.9590	0.8764	26.07	0.70	0.750			
0.2435	15584.64	3.9560	3.9560	0.8681	26.07	0.70	0.750			
0.2461	15748.83	3.9530	3.9530	0.8687	26.07	0.70	0.750			
0.2487	15914.26	3.9500	3.9502	0.8692	26.07	0.70	0.750			
0.2513	16081.03	3.9470	3.9467	0.8717	26.07	0.70	0.750			
0.2539	16247.69	3.9440	3.9441	0.8727	26.07	0.70	0.750			
0.2565	16417.07	3.9410	3.9410	0.8705	26.07	0.70	0.750			
0.2591	16585.32	3.9380	3.9381	0.8765	26.06	0.69	0.750			
0.2617	16751.81	3.9350	3.9351	0.8738	26.06	0.69	0.750			
0.2644	16918.86	3.9320	3.9318	0.8761	26.06	0.69	0.750			
0.2670	17089.69	3.9290	3.9290	0.8697	26.06	0.69	0.750			
0.2696	17256.75	3.9260	3.9261	0.8725	26.06	0.69	0.750			
0.2723	17425.24	3.9230	3.9231	0.8765	26.05	0.68	0.750			
0.2749	17593.90	3.9200	3.9199	0.8762	26.05	0.68	0.750			
0.2775	17758.34	3.9170	3.9171	0.8704	26.05	0.68	0.750			
0.2801	17927.23	3.9140	3.9140	0.8653	26.04	0.67	0.750			
0.2827	18093.74	3.9110	3.9110	0.8715	26.04	0.67	0.750			
0.2853	18261.19	3.9080	3.9081	0.8752	26.04	0.67	0.750			
0.2879	18428.55	3.9050	3.9050	0.8701	26.03	0.66	0.750			
0.2906	18595.68	3.9020	3.9021	0.8713	26.03	0.66	0.750			
0.2932	18763.14	3.8990	3.8990	0.8704	26.02	0.65	0.750			
0.2958	18930.66	3.8960	3.8961	0.8712	26.01	0.64	0.750			
0.2984	19097.74	3.8930	3.8930	0.8693	26.01	0.64	0.750			
0.3010	19264.66	3.8900	3.8898	0.8734	26.00	0.63	0.750			
0.3036	19432.12	3.8870	3.8871	0.8738	25.99	0.62	0.750			
0.3063	19601.31	3.8840	3.8840	0.8812	25.99	0.62	0.750			
0.3089	19771.83	3.8810	3.8810	0.8842	25.98	0.61	0.750			
0.3116	19942.83	3.8780	3.8780	0.8847	25.98	0.61	0.750			
0.3142	20111.70	3.8750	3.8750	0.8836	25.97	0.60	0.750			
0.3169	20282.99	3.8720	3.8720	0.8778	25.96	0.59	0.750			
0.3195	20450.97	3.8690	3.8690	0.8809	25.96	0.59	0.750			
0.3222	20618.24	3.8660	3.8660	0.8867	25.95	0.58	0.750			
0.3248	20788.07	3.8630	3.8631	0.8914	25.94	0.57	0.750			
0.3275	20959.75	3.8600	3.8601	0.8940	25.94	0.57	0.750			
0.3302	21133.31	3.8570	3.8570	0.8901	25.93	0.56	0.750			
0.3329	21307.48	3.8540	3.8541	0.8866	25.92	0.55	0.750			
0.3355	21474.16	3.8510	3.8511	0.9005	25.91	0.54	0.750			
0.3382	21644.79	3.8480	3.8479	0.9065	25.90	0.53	0.750			
0.3409	21819.55	3.8450	3.8451	0.9168	25.89	0.52	0.750			
0.3437	21997.43	3.8420	3.8420	0.9272	25.88	0.51	0.750	0.312	0.450	
0.3465	22178.84	3.8390	3.8392	0.9376	25.87	0.50	0.750			
0.3494	22363.57	3.8360	3.8361	0.9490	25.86	0.49	0.750			
0.3523	22544.19	3.8330	3.8330	0.9452	25.85	0.48	0.750			
0.3551	22723.41	3.8300	3.8300	0.9367	25.84	0.47	0.750			
0.3579	22902.60	3.8270	3.8270	0.9476	25.83	0.46	0.750			
0.3607	23085.09	3.8240	3.8241	0.9585	25.82	0.45	0.750			
0.3636	23269.80	3.8210	3.8207	0.9695	25.81	0.44	0.750			
0.3665	23458.44	3.8180	3.8181	0.9770	25.80	0.43	0.750			
0.3695	23645.87	3.8150	3.8150	0.9896	25.80	0.43	0.750			
0.3725	23837.97	3.8120	3.8120	1.0026	25.79	0.42	0.750			
0.3755	24029.75	3.8090	3.8089	1.0046	25.78	0.41	0.750			
0.3785	24225.29	3.8060	3.8060	1.0174	25.77	0.40	0.750			
0.3816	24420.76	3.8030	3.8031	1.0348	25.76	0.39	0.750			
0.3847	24621.18	3.8000	3.8000	1.0482	25.75	0.38	0.750			
0.3879	24825.04	3.7970	3.7969	1.0648	25.73	0.36	0.750			
0.3911	25029.37	3.7940	3.7940	1.0674	25.72	0.35	0.750			
0.3943	25234.47	3.7910	3.7911	1.0853	25.71	0.34	0.750			
0.3976	25444.24	3.7880	3.7881	1.1013	25.70	0.33	0.750			
0.4009	25655.85	3.7850	3.7848	1.1190	25.69	0.32	0.750			
0.4042	25870.23	3.7820	3.7821	1.1308	25.68	0.31	0.750			
0.4076	26089.30	3.7790	3.7791	1.1589	25.67	0.30	0.750			
0.4112	26315.03	3.7760	3.7760	1.1824	25.66	0.29	0.750			
0.4147	26542.98	3.7730	3.7731	1.1970	25.65	0.28	0.750			
0.4184	26776.76	3.7700	3.7701	1.2226	25.64	0.27	0.750			
0.4221	27014.76	3.7670	3.7670	1.2458	25.62	0.25	0.750			
0.4259	27258.82	3.7640	3.7640	1.2546	25.61	0.24	0.750			
0.4296	27496.90	3.7610	3.7611	1.2812	25.60	0.23	0.750			
0.4335	27743.72	3.7580	3.7580	1.3126	25.58	0.21	0.750			
0.4375	28000.58	3.7550	3.7549	1.3342	25.57	0.20	0.750			
0.4415	28256.38	3.7520	3.7522	1.3748	25.55	0.18	0.750			
0.4457	28523.52	3.7490	3.7491	1.4147	25.54	0.17	0.750			
0.4501	28805.76	3.7460	3.7459	1.4276	25.53	0.16	0.750			
0.4545	29087.14	3.7430	3.7430	1.4611	25.52	0.15	0.750			
0.4588	29362.10	3.7400	3.7402	1.4935	25.50	0.13	0.750			
0.4633	29649.34	3.7370	3.7372	1.5357	25.48	0.11	0.750			
0.4679	29944.76	3.7340	3.7341	1.5874	25.47	0.10	0.750			
0.4726	30249.60	3.7310	3.7311	1.6330	25.46	0.09	0.750			
0.4777	30573.24	3.7280	3.7278	1.6674	25.45	0.08	0.750			
0.4829	30907.84	3.7250	3.7248	1.7288	25.43	0.06	0.750			
0.4881	31239.67	3.7220	3.7220	1.7663	25.41	0.04	0.750			
0.4933	31572.40	3.7190	3.7187	1.8200	25.40	0.03	0.750			
0.4988	31924.27	3.7160	3.7155	1.8556	25.38	0.01	0.750			
0.5045	32288.71	3.7130	3.7132	1.9329	25.37	-0.00	0.750			
0.5105	32669.99	3.7100	3.7103	2.0273	25.36	-0.01	0.750			
0.5166	33063.21	3.7070	3.7071	2.0235	25.34	-0.03	0.750			
0.5227	33449.67	3.7040	3.7041	2.0708	25.33	-0.04	0.750			
0.5291	33859.24	3.7010	3.7007	2.1534	25.32	-0.05	0.750			
0.5356	34280.15	3.6980	3.6979	2.2044	25.31	-0.06	0.750			
0.5424	34711.78	3.6950	3.6950	2.2744	25.29	-0.08	0.750			
0.5495	35170.92	3.6920	3.6921	2.3114	25.28	-0.09	0.750			
0.5564	35611.08	3.6890	3.6890	2.3393	25.28	-0.09	0.750			
0.5635	36061.28	3.6860	3.6858	2.3823	25.27	-0.10	0.750			
0.5708	36529.04	3.6830	3.6833	2.3830	25.27	-0.10	0.750			
0.5779	36987.63	3.6800	3.6799	2.3215	25.27	-0.10	0.750			
0.5848	37426.65	3.6770	3.6770	2.2726	25.26	-0.11	0.750			
0.5916	37863.07	3.6740	3.6740	2.1625	25.25	-0.12	0.750			
0.5979	38267.46	3.6710	3.6713	2.0640	25.26	-0.11	0.750			
0.6041	38659.71	3.6680	3.6679	1.9354	25.26	-0.11	0.750			
0.6097	39021.50	3.6650	3.6651	1.8162	25.27	-0.10	0.750			
0.6149	39352.63	3.6620	3.6622	1.6805	25.27	-0.10	0.750			
0.6199	39672.13	3.6590	3.6588	1.5982	25.27	-0.10	0.750			
0.6245	39968.12	3.6560	3.6561	1.4653	25.28	-0.09	0.750			
0.6288	40241.06	3.6530	3.6532	1.3886	25.28	-0.09	0.750			
0.6327	40494.02	3.6500	3.6500	1.3004	25.28	-0.09	0.750			
0.6364	40729.31	3.6470	3.6471	1.2178	25.29	-0.08	0.750			
0.6399	40954.33	3.6440	3.6438	1.1491	25.29	-0.08	0.750			
0.6433	41170.56	3.6410	3.6411	1.1022	25.30	-0.07	0.750			
0.6465	41377.19	3.6380	3.6380	1.0576	25.30	-0.07	0.750			
0.6496	41576.78	3.6350	3.6350	1.0224	25.31	-0.06	0.750			
0.6526	41765.88	3.6320	3.6320	0.9768	25.31	-0.06	0.750			
0.6556	41956.99	3.6290	3.6288	0.9171	25.32	-0.05	0.750			
0.6582	42122.63	3.6260	3.6261	0.8816	25.33	-0.04	0.750			
0.6607	42283.36	3.6230	3.6234	0.8491	25.34	-0.03	0.750			
0.6632	42441.93	3.6200	3.6201	0.8258	25.35	-0.02	0.750			
0.6656	42595.94	3.6170	3.6175	0.7946	25.35	-0.02	0.750			
0.6679	42748.79	3.6140	3.6145	0.7613	25.36	-0.01	0.750			
0.6703	42901.64	3.6110	3.6111	0.7280	25.36	-0.01	0.750			
0.6726	43046.19	3.6080	3.6078	0.6853	25.36	-0.01	0.750			
0.6744	43159.87	3.6050	3.6051	0.6078	25.37	-0.00	0.750			
0.6761	43272.01	3.6020	3.6018	0.5621	25.37	-0.00	0.750			
0.6777	43375.31	3.5990	3.5992	0.5116	25.37	0.00	0.750			
0.6792	43469.08	3.5960	3.5960	0.4638	25.37	0.00	0.750			
0.6805	43553.26	3.5930	3.5931	0.4159	25.38	0.01	0.750			
0.6817	43630.29	3.5900	3.5899	0.3712	25.38	0.01	0.750			
0.6827	43695.46	3.5870	3.5869	0.3194	25.38	0.01	0.750			
0.6836	43751.76	3.5840	3.5841	0.2700	25.38	0.01	0.750			
0.6844	43799.06	3.5810	3.5810	0.2222	25.38	0.01	0.750			
0.6850	43838.42	3.5780	3.5781	0.1724	25.38	0.01	0.750			
0.6854	43866.79	3.5750	3.5754	0.1189	25.38	0.01	0.750			
0.6857	43884.44	3.5720	3.5723	0.0628	25.38	0.01	0.750			
