Ah_balance (normalized)	Ah_balance (mAh)	Voltage - fit (V)	Voltage -  interpolate (V)	dQ/dV (1/V)	Temperature (°C)	Temperature - diff (°C)	Current (C)	R_DC 0ms (mOhm)	R_DC 50ms (mOhm)	R_DC 50 ms PEC (mOhm)
0.0476	3045.17	4.1990	4.1990	0.7137	25.47	0.53	0.750			
0.0498	3185.40	4.1960	4.1961	0.7403	25.48	0.54	0.750			
0.0520	3329.89	4.1930	4.1931	0.7522	25.48	0.54	0.750			
0.0543	3475.03	4.1900	4.1901	0.7573	25.49	0.55	0.750			
0.0566	3622.03	4.1870	4.1871	0.7541	25.49	0.55	0.750			
0.0589	3767.47	4.1840	4.1841	0.7586	25.50	0.56	0.750			
0.0611	3911.84	4.1810	4.1810	0.7536	25.50	0.56	0.750			
0.0634	4057.36	4.1780	4.1778	0.7556	25.51	0.57	0.750			
0.0657	4202.32	4.1750	4.1751	0.7549	25.51	0.57	0.750			
0.0679	4347.17	4.1720	4.1720	0.7543	25.51	0.57	0.750			
0.0702	4492.53	4.1690	4.1690	0.7596	25.51	0.57	0.750			
0.0725	4638.04	4.1660	4.1660	0.7575	25.51	0.57	0.750			
0.0748	4785.93	4.1630	4.1630	0.7432	25.51	0.57	0.750			
0.0770	4930.71	4.1600	4.1601	0.7350	25.51	0.57	0.750			
0.0792	5069.99	4.1570	4.1571	0.7251	25.51	0.57	0.750			
0.0814	5208.50	4.1540	4.1541	0.7157	25.51	0.57	0.750			
0.0834	5340.62	4.1510	4.1509	0.7202	25.51	0.57	0.750			
0.0855	5473.66	4.1480	4.1480	0.7242	25.51	0.57	0.750			
0.0877	5614.70	4.1450	4.1452	0.7424	25.51	0.57	0.750			
0.0900	5762.62	4.1420	4.1421	0.7661	25.51	0.57	0.750			
0.0924	5911.07	4.1390	4.1390	0.7681	25.51	0.57	0.750			
0.0947	6061.44	4.1360	4.1360	0.7750	25.51	0.57	0.750			
0.0971	6213.82	4.1330	4.1330	0.7839	25.52	0.58	0.750			
0.0994	6359.56	4.1300	4.1301	0.7772	25.52	0.58	0.750			
0.1017	6508.98	4.1270	4.1270	0.7788	25.52	0.58	0.750			
0.1041	6659.40	4.1240	4.1240	0.7792	25.52	0.58	0.750			
0.1064	6809.82	4.1210	4.1210	0.7769	25.52	0.58	0.750			
0.1087	6958.83	4.1180	4.1181	0.7783	25.53	0.59	0.750			
0.1111	7107.62	4.1150	4.1151	0.7805	25.53	0.59	0.750			
0.1134	7257.13	4.1120	4.1118	0.7832	25.53	0.59	0.750			
0.1157	7406.45	4.1090	4.1091	0.7846	25.53	0.59	0.750			
0.1182	7564.00	4.1060	4.1059	0.7708	25.53	0.59	0.750			
0.1205	7711.58	4.1030	4.1031	0.7795	25.54	0.60	0.750			
0.1228	7856.95	4.1000	4.1001	0.7788	25.54	0.60	0.750			
0.1251	8005.51	4.0970	4.0972	0.7858	25.54	0.60	0.750			
0.1274	8154.19	4.0940	4.0940	0.7905	25.54	0.60	0.750			
0.1298	8308.60	4.0910	4.0912	0.7949	25.55	0.61	0.750			
0.1323	8464.66	4.0880	4.0881	0.8051	25.55	0.61	0.750			
0.1347	8622.86	4.0850	4.0850	0.8101	25.55	0.61	0.750			
0.1371	8776.19	4.0820	4.0820	0.8001	25.56	0.62	0.750			
0.1395	8929.46	4.0790	4.0791	0.8006	25.56	0.62	0.750			
0.1419	9084.47	4.0760	4.0761	0.8043	25.56	0.62	0.750			
0.1444	9238.65	4.0730	4.0730	0.8007	25.56	0.62	0.750			
0.1468	9392.29	4.0700	4.0700	0.8035	25.57	0.63	0.750			
0.1491	9544.80	4.0670	4.0671	0.8064	25.57	0.63	0.750			
0.1516	9699.61	4.0640	4.0639	0.8128	25.57	0.63	0.750			
0.1541	9860.05	4.0610	4.0610	0.8062	25.57	0.63	0.750			
0.1565	10014.57	4.0580	4.0581	0.8099	25.58	0.64	0.750			
0.1589	10170.14	4.0550	4.0551	0.8212	25.58	0.64	0.750			
0.1614	10326.46	4.0520	4.0521	0.8190	25.59	0.65	0.750			
0.1638	10484.32	4.0490	4.0478	0.8254	25.59	0.65	0.750			
0.1663	10643.69	4.0460	4.0462	0.8297	25.59	0.65	0.750			
0.1688	10804.41	4.0430	4.0431	0.8298	25.59	0.65	0.750			
0.1713	10964.42	4.0400	4.0401	0.8363	25.60	0.66	0.750			
0.1738	11123.41	4.0370	4.0371	0.8318	25.60	0.66	0.750			
0.1763	11283.83	4.0340	4.0337	0.8353	25.60	0.66	0.750			
0.1788	11445.44	4.0310	4.0310	0.8413	25.60	0.66	0.750			
0.1814	11607.50	4.0280	4.0281	0.8360	25.60	0.66	0.750			
0.1839	11768.55	4.0250	4.0250	0.8451	25.61	0.67	0.750			
0.1864	11928.88	4.0220	4.0221	0.8436	25.61	0.67	0.750			
0.1889	12091.74	4.0190	4.0187	0.8485	25.61	0.67	0.750			
0.1915	12254.36	4.0160	4.0161	0.8554	25.61	0.67	0.750			
0.1941	12421.01	4.0130	4.0131	0.8456	25.61	0.67	0.750			
0.1966	12582.22	4.0100	4.0101	0.8534	25.61	0.67	0.750			
0.1991	12743.74	4.0070	4.0072	0.8543	25.61	0.67	0.750			
0.2017	12907.26	4.0040	4.0039	0.8620	25.61	0.67	0.750			
0.2043	13074.12	4.0010	4.0012	0.8657	25.61	0.67	0.750			
0.2069	13242.40	3.9980	3.9980	0.8721	25.62	0.68	0.750			
0.2096	13413.26	3.9950	3.9951	0.8792	25.62	0.68	0.750			
0.2122	13581.04	3.9920	3.9922	0.8695	25.63	0.69	0.750			
0.2148	13748.69	3.9890	3.9890	0.8756	25.63	0.69	0.750			
0.2175	13918.75	3.9860	3.9859	0.8683	25.63	0.69	0.750			
0.2201	14085.37	3.9830	3.9831	0.8735	25.64	0.70	0.750			
0.2227	14251.80	3.9800	3.9801	0.8779	25.64	0.70	0.750			
0.2253	14421.79	3.9770	3.9769	0.8805	25.64	0.70	0.750			
0.2280	14590.36	3.9740	3.9740	0.8837	25.64	0.70	0.750			
0.2306	14760.19	3.9710	3.9710	0.8781	25.64	0.70	0.750			
0.2333	14928.43	3.9680	3.9681	0.8811	25.65	0.71	0.750			
0.2359	15099.17	3.9650	3.9651	0.8923	25.65	0.71	0.750			
0.2386	15267.94	3.9620	3.9611	0.8925	25.65	0.71	0.750			
0.2413	15440.69	3.9590	3.9591	0.8925	25.65	0.71	0.750			
0.2440	15613.57	3.9560	3.9561	0.8966	25.65	0.71	0.750			
0.2467	15787.07	3.9530	3.9531	0.8946	25.65	0.71	0.750			
0.2494	15962.25	3.9500	3.9500	0.8991	25.65	0.71	0.750			
0.2520	16129.59	3.9470	3.9471	0.8918	25.65	0.71	0.750			
0.2547	16301.86	3.9440	3.9440	0.8818	25.65	0.71	0.750			
0.2573	16469.06	3.9410	3.9410	0.8907	25.65	0.71	0.750			
0.2600	16640.51	3.9380	3.9381	0.8967	25.65	0.71	0.750			
0.2627	16813.34	3.9350	3.9349	0.8967	25.65	0.71	0.750			
0.2654	16986.39	3.9320	3.9320	0.8976	25.65	0.71	0.750			
0.2681	17158.39	3.9290	3.9292	0.8915	25.65	0.71	0.750			
0.2708	17330.22	3.9260	3.9261	0.8924	25.64	0.70	0.750			
0.2734	17500.45	3.9230	3.9231	0.8904	25.64	0.70	0.750			
0.2761	17671.08	3.9200	3.9191	0.8943	25.64	0.70	0.750			
0.2788	17843.43	3.9170	3.9171	0.8957	25.64	0.70	0.750			
0.2815	18017.98	3.9140	3.9141	0.9010	25.64	0.70	0.750			
0.2842	18191.59	3.9110	3.9110	0.9001	25.63	0.69	0.750			
0.2870	18367.19	3.9080	3.9080	0.9011	25.63	0.69	0.750			
0.2896	18537.17	3.9050	3.9050	0.8930	25.63	0.69	0.750			
0.2923	18707.81	3.9020	3.9021	0.8879	25.62	0.68	0.750			
0.2950	18878.03	3.8990	3.8990	0.8933	25.62	0.68	0.750			
0.2976	19049.45	3.8960	3.8960	0.8959	25.62	0.68	0.750			
0.3003	19221.94	3.8930	3.8929	0.8965	25.61	0.67	0.750			
0.3030	19394.05	3.8900	3.8901	0.8974	25.61	0.67	0.750			
0.3057	19567.58	3.8870	3.8870	0.8922	25.60	0.66	0.750			
0.3084	19737.97	3.8840	3.8840	0.8966	25.60	0.66	0.750			
0.3110	19907.08	3.8810	3.8811	0.8956	25.59	0.65	0.750			
0.3138	20080.89	3.8780	3.8772	0.9047	25.59	0.65	0.750			
0.3165	20256.69	3.8750	3.8751	0.9039	25.58	0.64	0.750			
0.3192	20431.24	3.8720	3.8721	0.9085	25.58	0.64	0.750			
0.3220	20607.84	3.8690	3.8690	0.9138	25.57	0.63	0.750			
0.3247	20783.69	3.8660	3.8661	0.9151	25.56	0.62	0.750			
0.3274	20954.58	3.8630	3.8631	0.9058	25.56	0.62	0.750			
0.3302	21130.60	3.8600	3.8600	0.8991	25.55	0.61	0.750			
0.3328	21301.34	3.8570	3.8571	0.9051	25.54	0.60	0.750			
0.3355	21474.62	3.8540	3.8541	0.9097	25.54	0.60	0.750			
0.3383	21648.67	3.8510	3.8507	0.9145	25.53	0.59	0.750			
0.3411	21827.91	3.8480	3.8480	0.9048	25.52	0.58	0.750			
0.3437	21994.31	3.8450	3.8452	0.9043	25.51	0.57	0.750			
0.3463	22163.81	3.8420	3.8424	0.9231	25.51	0.57	0.750			
0.3491	22341.07	3.8390	3.8391	0.9372	25.50	0.56	0.750	0.287	0.421	
0.3519	22523.39	3.8360	3.8360	0.9613	25.49	0.55	0.750			
0.3549	22712.03	3.8330	3.8334	0.9662	25.48	0.54	0.750			
0.3579	22902.69	3.8300	3.8303	0.9822	25.47	0.53	0.750			
0.3610	23102.73	3.8270	3.8270	0.9966	25.46	0.52	0.750			
0.3638	23283.04	3.8240	3.8236	0.9695	25.45	0.51	0.750			
0.3667	23469.22	3.8210	3.8211	0.9715	25.44	0.50	0.750			
0.3696	23656.91	3.8180	3.8181	0.9853	25.43	0.49	0.750			
0.3726	23848.69	3.8150	3.8150	0.9982	25.42	0.48	0.750			
0.3756	24040.73	3.8120	3.8118	1.0011	25.41	0.47	0.750			
0.3787	24239.54	3.8090	3.8090	0.9887	25.40	0.46	0.750			
0.3817	24425.77	3.8060	3.8061	1.0082	25.39	0.45	0.750			
0.3847	24618.12	3.8030	3.8032	1.0236	25.38	0.44	0.750			
0.3877	24813.09	3.8000	3.8001	1.0323	25.37	0.43	0.750			
0.3908	25013.30	3.7970	3.7973	1.0508	25.36	0.42	0.750			
0.3940	25218.18	3.7940	3.7941	1.0725	25.35	0.41	0.750			
0.3973	25426.36	3.7910	3.7911	1.1006	25.34	0.40	0.750			
0.4007	25646.32	3.7880	3.7878	1.1289	25.32	0.38	0.750			
0.4040	25857.76	3.7850	3.7851	1.1175	25.31	0.37	0.750			
0.4074	26073.69	3.7820	3.7819	1.1393	25.30	0.36	0.750			
0.4108	26292.62	3.7790	3.7792	1.1602	25.29	0.35	0.750			
0.4144	26521.79	3.7760	3.7757	1.1538	25.28	0.34	0.750			
0.4178	26739.82	3.7730	3.7731	1.1891	25.27	0.33	0.750			
0.4214	26967.29	3.7700	3.7702	1.2151	25.26	0.32	0.750			
0.4251	27208.78	3.7670	3.7670	1.2439	25.25	0.31	0.750			
0.4289	27447.17	3.7640	3.7642	1.2720	25.24	0.30	0.750			
0.4327	27694.85	3.7610	3.7611	1.3025	25.22	0.28	0.750			
0.4368	27953.10	3.7580	3.7581	1.3250	25.21	0.27	0.750			
0.4408	28213.23	3.7550	3.7550	1.3675	25.19	0.25	0.750			
0.4448	28468.75	3.7520	3.7521	1.3767	25.19	0.25	0.750			
0.4492	28748.23	3.7490	3.7489	1.3758	25.17	0.23	0.750			
0.4534	29020.08	3.7460	3.7459	1.3961	25.16	0.22	0.750			
0.4574	29274.85	3.7430	3.7433	1.4406	25.14	0.20	0.750			
0.4619	29560.75	3.7400	3.7402	1.4778	25.13	0.19	0.750			
0.4664	29852.72	3.7370	3.7370	1.5147	25.11	0.17	0.750			
0.4709	30136.11	3.7340	3.7345	1.5788	25.10	0.16	0.750			
0.4757	30444.58	3.7310	3.7311	1.6286	25.08	0.14	0.750			
0.4808	30769.68	3.7280	3.7281	1.6938	25.07	0.13	0.750			
0.4858	31091.87	3.7250	3.7253	1.7450	25.05	0.11	0.750			
0.4910	31421.45	3.7220	3.7219	1.7698	25.03	0.09	0.750			
0.4965	31776.61	3.7190	3.7185	1.8182	25.01	0.07	0.750			
0.5019	32122.90	3.7160	3.7159	1.8255	25.00	0.06	0.750			
0.5075	32478.99	3.7130	3.7133	1.9219	24.98	0.04	0.750			
0.5133	32852.59	3.7100	3.7101	1.9857	24.96	0.02	0.750			
0.5193	33236.26	3.7070	3.7068	2.1135	24.95	0.01	0.750			
0.5257	33644.34	3.7040	3.7042	2.1178	24.93	-0.01	0.750			
0.5323	34069.21	3.7010	3.7007	2.2092	24.92	-0.02	0.750			
0.5391	34504.78	3.6980	3.6979	2.2066	24.90	-0.04	0.750			
0.5458	34931.23	3.6950	3.6955	2.2974	24.89	-0.05	0.750			
0.5525	35363.13	3.6920	3.6914	2.3625	24.88	-0.06	0.750			
0.5598	35829.59	3.6890	3.6890	2.3988	24.86	-0.08	0.750			
0.5673	36306.14	3.6860	3.6856	2.4618	24.84	-0.10	0.750			
0.5748	36788.96	3.6830	3.6829	2.5090	24.83	-0.11	0.750			
0.5822	37262.63	3.6800	3.6804	2.5025	24.83	-0.11	0.750			
0.5897	37741.00	3.6770	3.6768	2.5151	24.82	-0.12	0.750			
0.5974	38231.84	3.6740	3.6741	2.5168	24.82	-0.12	0.750			
0.6049	38712.65	3.6710	3.6713	2.3414	24.82	-0.12	0.750			
0.6118	39155.07	3.6680	3.6683	2.2375	24.81	-0.13	0.750			
0.6182	39562.54	3.6650	3.6647	2.0913	24.81	-0.13	0.750			
0.6241	39941.25	3.6620	3.6619	1.9323	24.82	-0.12	0.750			
0.6299	40313.29	3.6590	3.6591	1.8832	24.82	-0.12	0.750			
0.6354	40663.65	3.6560	3.6559	1.7122	24.82	-0.12	0.750			
0.6400	40958.41	3.6530	3.6530	1.5491	24.82	-0.12	0.750			
0.6445	41246.93	3.6500	3.6502	1.4370	24.83	-0.11	0.750			
0.6485	41505.85	3.6470	3.6471	1.3362	24.84	-0.10	0.750			
0.6524	41751.30	3.6440	3.6438	1.2353	24.84	-0.10	0.750			
0.6559	41974.46	3.6410	3.6412	1.1610	24.85	-0.09	0.750			
0.6592	42191.33	3.6380	3.6381	1.1128	24.85	-0.09	0.750			
0.6625	42401.88	3.6350	3.6350	1.0665	24.86	-0.08	0.750			
0.6656	42599.02	3.6320	3.6320	1.0083	24.87	-0.07	0.750			
0.6686	42788.06	3.6290	3.6290	0.9744	24.88	-0.06	0.750			
0.6714	42971.74	3.6260	3.6261	0.9387	24.88	-0.06	0.750			
0.6742	43150.46	3.6230	3.6230	0.9064	24.89	-0.05	0.750			
0.6769	43319.35	3.6200	3.6201	0.8625	24.90	-0.04	0.750			
0.6794	43482.15	3.6170	3.6170	0.8223	24.91	-0.03	0.750			
0.6819	43639.91	3.6140	3.6140	0.7696	24.92	-0.02	0.750			
0.6841	43781.54	3.6110	3.6111	0.7156	24.93	-0.01	0.750			
0.6861	43911.36	3.6080	3.6082	0.6692	24.93	-0.01	0.750			
0.6881	44035.39	3.6050	3.6054	0.6228	24.94	-0.00	0.750			
0.6898	44149.10	3.6020	3.6023	0.5738	24.94	0.00	0.750			
0.6915	44255.63	3.5990	3.5993	0.5290	24.95	0.01	0.750			
0.6931	44355.35	3.5960	3.5961	0.4824	24.95	0.01	0.750			
0.6945	44446.83	3.5930	3.5930	0.4337	24.96	0.02	0.750			
0.6956	44520.41	3.5900	3.5899	0.3703	24.96	0.02	0.750			
0.6967	44587.00	3.5870	3.5870	0.3194	24.97	0.03	0.750			
0.6976	44643.99	3.5840	3.5839	0.2700	24.97	0.03	0.750			
0.6983	44690.01	3.5810	3.5811	0.2180	24.97	0.03	0.750			
0.6989	44727.95	3.5780	3.5782	0.1674	24.97	0.03	0.750			
0.6993	44755.63	3.5750	3.5755	0.1141	24.97	0.03	0.750			
0.6996	44772.44	3.5720	3.5732	0.0533	24.97	0.03	0.751			
