Ah_balance (normalized)	Ah_balance (mAh)	Voltage - fit (V)	Voltage -  interpolate (V)	dQ/dV (1/V)	Temperature (°C)	Temperature - diff (°C)	Current (C)	R_DC 0ms (mOhm)	R_DC 50ms (mOhm)	R_DC 50 ms PEC (mOhm)
0.0479	3065.94	4.1980	4.1980	0.8139	25.40	0.54	0.750			
0.0502	3213.40	4.1950	4.1950	0.7502	25.40	0.54	0.750			
0.0524	3354.76	4.1920	4.1921	0.7460	25.40	0.54	0.750			
0.0547	3497.95	4.1890	4.1891	0.7528	25.40	0.54	0.750			
0.0569	3642.91	4.1860	4.1860	0.7568	25.40	0.54	0.750			
0.0592	3788.60	4.1830	4.1831	0.7607	25.40	0.54	0.750			
0.0615	3938.14	4.1800	4.1800	0.7617	25.40	0.54	0.750			
0.0638	4084.68	4.1770	4.1771	0.7630	25.40	0.54	0.750			
0.0661	4230.11	4.1740	4.1741	0.7566	25.40	0.54	0.750			
0.0684	4374.89	4.1710	4.1708	0.7594	25.40	0.54	0.750			
0.0706	4518.88	4.1680	4.1681	0.7634	25.40	0.54	0.750			
0.0729	4668.27	4.1650	4.1650	0.7619	25.40	0.54	0.750			
0.0752	4815.43	4.1620	4.1620	0.7677	25.40	0.54	0.750			
0.0775	4961.87	4.1590	4.1591	0.7667	25.40	0.54	0.750			
0.0798	5109.89	4.1560	4.1561	0.7706	25.40	0.54	0.750			
0.0822	5259.00	4.1530	4.1529	0.7703	25.40	0.54	0.750			
0.0845	5406.67	4.1500	4.1501	0.7682	25.40	0.54	0.750			
0.0868	5553.12	4.1470	4.1471	0.7656	25.40	0.54	0.750			
0.0891	5701.28	4.1440	4.1440	0.7698	25.40	0.54	0.750			
0.0913	5846.32	4.1410	4.1410	0.7676	25.40	0.54	0.750			
0.0937	5994.64	4.1380	4.1373	0.7733	25.40	0.54	0.750			
0.0960	6144.32	4.1350	4.1351	0.7771	25.40	0.54	0.750			
0.0984	6295.16	4.1320	4.1320	0.7798	25.40	0.54	0.750			
0.1007	6446.82	4.1290	4.1290	0.7823	25.40	0.54	0.750			
0.1031	6597.00	4.1260	4.1260	0.7805	25.40	0.54	0.750			
0.1054	6744.26	4.1230	4.1229	0.7787	25.40	0.54	0.750			
0.1077	6893.47	4.1200	4.1201	0.7825	25.40	0.54	0.750			
0.1101	7044.92	4.1170	4.1169	0.7831	25.40	0.54	0.750			
0.1124	7195.39	4.1140	4.1140	0.7830	25.40	0.54	0.750			
0.1148	7345.70	4.1110	4.1110	0.7873	25.40	0.54	0.750			
0.1171	7496.49	4.1080	4.1081	0.7896	25.40	0.54	0.750			
0.1195	7647.91	4.1050	4.1050	0.7910	25.40	0.54	0.750			
0.1219	7799.44	4.1020	4.1020	0.7958	25.40	0.54	0.750			
0.1243	7953.63	4.0990	4.0991	0.7878	25.40	0.54	0.750			
0.1266	8104.16	4.0960	4.0960	0.7965	25.41	0.55	0.750			
0.1290	8257.14	4.0930	4.0931	0.7996	25.41	0.55	0.750			
0.1314	8411.08	4.0900	4.0895	0.8000	25.41	0.55	0.750			
0.1338	8564.80	4.0870	4.0872	0.8028	25.41	0.55	0.750			
0.1362	8719.76	4.0840	4.0840	0.8045	25.41	0.55	0.750			
0.1387	8875.29	4.0810	4.0811	0.8076	25.42	0.56	0.750			
0.1411	9029.35	4.0780	4.0780	0.8035	25.42	0.56	0.750			
0.1435	9182.78	4.0750	4.0749	0.8045	25.42	0.56	0.750			
0.1459	9338.52	4.0720	4.0721	0.8086	25.42	0.56	0.750			
0.1484	9494.87	4.0690	4.0690	0.8089	25.42	0.56	0.750			
0.1508	9650.54	4.0660	4.0660	0.8112	25.43	0.57	0.750			
0.1532	9805.39	4.0630	4.0631	0.8117	25.43	0.57	0.750			
0.1557	9961.73	4.0600	4.0599	0.8173	25.43	0.57	0.750			
0.1581	10118.98	4.0570	4.0570	0.8200	25.43	0.57	0.750			
0.1606	10278.46	4.0540	4.0540	0.8180	25.43	0.57	0.750			
0.1630	10434.30	4.0510	4.0510	0.8285	25.43	0.57	0.750			
0.1655	10594.31	4.0480	4.0480	0.8321	25.43	0.57	0.750			
0.1680	10753.74	4.0450	4.0448	0.8326	25.43	0.57	0.750			
0.1705	10913.88	4.0420	4.0421	0.8378	25.43	0.57	0.750			
0.1731	11076.02	4.0390	4.0391	0.8382	25.43	0.57	0.750			
0.1756	11237.15	4.0360	4.0360	0.8436	25.43	0.57	0.750			
0.1781	11398.96	4.0330	4.0330	0.8428	25.43	0.57	0.750			
0.1806	11560.82	4.0300	4.0300	0.8473	25.43	0.57	0.750			
0.1832	11724.94	4.0270	4.0270	0.8515	25.43	0.57	0.750			
0.1858	11889.55	4.0240	4.0240	0.8458	25.44	0.58	0.750			
0.1883	12050.91	4.0210	4.0210	0.8491	25.44	0.58	0.750			
0.1908	12213.49	4.0180	4.0182	0.8492	25.45	0.59	0.750			
0.1934	12375.33	4.0150	4.0147	0.8538	25.45	0.59	0.750			
0.1959	12539.18	4.0120	4.0121	0.8611	25.45	0.59	0.750			
0.1985	12706.15	4.0090	4.0091	0.8624	25.45	0.59	0.750			
0.2012	12873.91	4.0060	4.0060	0.8712	25.45	0.59	0.750			
0.2038	13040.30	4.0030	4.0031	0.8674	25.45	0.59	0.750			
0.2064	13207.37	4.0000	3.9996	0.8724	25.45	0.59	0.750			
0.2090	13375.79	3.9970	3.9971	0.8720	25.45	0.59	0.750			
0.2116	13542.72	3.9940	3.9940	0.8735	25.45	0.59	0.750			
0.2142	13711.42	3.9910	3.9910	0.8785	25.45	0.59	0.750			
0.2169	13881.87	3.9880	3.9880	0.8814	25.45	0.59	0.750			
0.2195	14048.90	3.9850	3.9850	0.8782	25.45	0.59	0.750			
0.2222	14218.50	3.9820	3.9820	0.8779	25.45	0.59	0.750			
0.2248	14385.94	3.9790	3.9790	0.8841	25.45	0.59	0.750			
0.2274	14555.83	3.9760	3.9760	0.8928	25.45	0.59	0.750			
0.2301	14727.75	3.9730	3.9729	0.8918	25.45	0.59	0.750			
0.2328	14899.98	3.9700	3.9701	0.8935	25.45	0.59	0.750			
0.2355	15073.36	3.9670	3.9670	0.8921	25.45	0.59	0.750			
0.2382	15243.94	3.9640	3.9641	0.8936	25.46	0.60	0.750			
0.2408	15414.34	3.9610	3.9610	0.8985	25.46	0.60	0.750			
0.2435	15585.18	3.9580	3.9578	0.8990	25.46	0.60	0.750			
0.2462	15758.69	3.9550	3.9550	0.8979	25.46	0.60	0.750			
0.2490	15933.42	3.9520	3.9521	0.9026	25.46	0.60	0.750			
0.2517	16108.73	3.9490	3.9490	0.9050	25.46	0.60	0.750			
0.2544	16282.56	3.9460	3.9460	0.9032	25.46	0.60	0.750			
0.2571	16451.60	3.9430	3.9430	0.9009	25.46	0.60	0.750			
0.2598	16625.11	3.9400	3.9400	0.9017	25.46	0.60	0.750			
0.2625	16798.92	3.9370	3.9370	0.9081	25.47	0.61	0.750			
0.2652	16974.32	3.9340	3.9340	0.9114	25.47	0.61	0.750			
0.2680	17150.24	3.9310	3.9309	0.9114	25.47	0.61	0.750			
0.2707	17325.35	3.9280	3.9281	0.9119	25.47	0.61	0.750			
0.2735	17500.85	3.9250	3.9250	0.9015	25.47	0.61	0.750			
0.2761	17671.07	3.9220	3.9220	0.9082	25.46	0.60	0.750			
0.2788	17844.96	3.9190	3.9191	0.9105	25.46	0.60	0.750			
0.2815	18018.88	3.9160	3.9156	0.9120	25.46	0.60	0.750			
0.2843	18195.10	3.9130	3.9131	0.9170	25.46	0.60	0.750			
0.2871	18372.71	3.9100	3.9101	0.9189	25.46	0.60	0.750			
0.2899	18551.86	3.9070	3.9070	0.9212	25.45	0.59	0.750			
0.2926	18725.98	3.9040	3.9040	0.9165	25.45	0.59	0.750			
0.2953	18902.40	3.9010	3.9010	0.9189	25.45	0.59	0.750			
0.2981	19080.59	3.8980	3.8979	0.9146	25.44	0.58	0.750			
0.3008	19254.17	3.8950	3.8951	0.9182	25.44	0.58	0.750			
0.3036	19430.30	3.8920	3.8921	0.9208	25.43	0.57	0.750			
0.3064	19606.65	3.8890	3.8887	0.9252	25.43	0.57	0.750			
0.3091	19785.03	3.8860	3.8860	0.9247	25.42	0.56	0.750			
0.3119	19964.60	3.8830	3.8831	0.9184	25.42	0.56	0.750			
0.3148	20144.12	3.8800	3.8799	0.9179	25.41	0.55	0.750			
0.3175	20318.42	3.8770	3.8771	0.9091	25.40	0.54	0.750			
0.3202	20490.79	3.8740	3.8741	0.9051	25.40	0.54	0.750			
0.3228	20662.00	3.8710	3.8708	0.9032	25.39	0.53	0.750			
0.3255	20834.21	3.8680	3.8680	0.9080	25.39	0.53	0.750			
0.3283	21008.49	3.8650	3.8650	0.9174	25.38	0.52	0.750			
0.3310	21185.50	3.8620	3.8617	0.9259	25.38	0.52	0.750			
0.3339	21369.88	3.8590	3.8590	0.9177	25.37	0.51	0.750			
0.3366	21543.60	3.8560	3.8561	0.9247	25.36	0.50	0.750			
0.3394	21720.55	3.8530	3.8531	0.9282	25.35	0.49	0.750			
0.3422	21898.60	3.8500	3.8500	0.9351	25.34	0.48	0.750			
0.3450	22078.18	3.8470	3.8470	0.9258	25.33	0.47	0.750			
0.3477	22253.84	3.8440	3.8442	0.9368	25.32	0.46	0.750			
0.3505	22433.49	3.8410	3.8411	0.9504	25.31	0.45	0.750			
0.3534	22618.49	3.8380	3.8379	0.9635	25.31	0.45	0.750	0.325	0.446	
0.3563	22802.46	3.8350	3.8345	0.9650	25.30	0.44	0.750			
0.3592	22990.37	3.8320	3.8323	0.9719	25.29	0.43	0.750			
0.3622	23179.19	3.8290	3.8291	0.9807	25.29	0.43	0.750			
0.3652	23371.27	3.8260	3.8261	0.9814	25.28	0.42	0.750			
0.3681	23557.64	3.8230	3.8229	0.9771	25.27	0.41	0.750			
0.3711	23749.16	3.8200	3.8200	0.9718	25.26	0.40	0.750			
0.3740	23934.28	3.8170	3.8171	0.9823	25.25	0.39	0.750			
0.3769	24121.26	3.8140	3.8141	0.9934	25.24	0.38	0.750			
0.3798	24310.32	3.8110	3.8112	1.0019	25.23	0.37	0.750			
0.3830	24511.09	3.8080	3.8080	0.9946	25.21	0.35	0.750			
0.3860	24701.63	3.8050	3.8051	1.0158	25.20	0.34	0.750			
0.3890	24896.00	3.8020	3.8021	1.0267	25.20	0.34	0.750			
0.3921	25094.24	3.7990	3.7992	1.0537	25.19	0.33	0.750			
0.3952	25294.42	3.7960	3.7959	1.0519	25.18	0.32	0.750			
0.3984	25498.26	3.7930	3.7931	1.0691	25.16	0.30	0.750			
0.4017	25706.49	3.7900	3.7902	1.0887	25.15	0.29	0.750			
0.4050	25920.59	3.7870	3.7870	1.1085	25.14	0.28	0.750			
0.4083	26132.56	3.7840	3.7840	1.1000	25.13	0.27	0.750			
0.4116	26343.69	3.7810	3.7811	1.1194	25.12	0.26	0.750			
0.4150	26558.07	3.7780	3.7781	1.1402	25.11	0.25	0.750			
0.4186	26790.27	3.7750	3.7745	1.1434	25.10	0.24	0.750			
0.4219	27003.16	3.7720	3.7721	1.1730	25.09	0.23	0.750			
0.4254	27226.71	3.7690	3.7691	1.2087	25.07	0.21	0.750			
0.4291	27461.25	3.7660	3.7662	1.2521	25.06	0.20	0.750			
0.4329	27704.14	3.7630	3.7630	1.2852	25.05	0.19	0.750			
0.4368	27956.77	3.7600	3.7602	1.3305	25.04	0.18	0.750			
0.4410	28221.54	3.7570	3.7571	1.3669	25.03	0.17	0.750			
0.4452	28491.53	3.7540	3.7540	1.3846	25.02	0.16	0.750			
0.4493	28753.88	3.7510	3.7511	1.3905	25.00	0.14	0.750			
0.4534	29019.88	3.7480	3.7482	1.4359	24.99	0.13	0.750			
0.4578	29300.88	3.7450	3.7445	1.4431	24.98	0.12	0.750			
0.4621	29576.26	3.7420	3.7423	1.4859	24.97	0.11	0.750			
0.4665	29855.81	3.7390	3.7393	1.5512	24.96	0.10	0.750			
0.4713	30161.16	3.7360	3.7364	1.6296	24.94	0.08	0.750			
0.4762	30474.86	3.7330	3.7328	1.6059	24.93	0.07	0.750			
0.4810	30786.48	3.7300	3.7300	1.6202	24.92	0.06	0.750			
0.4861	31109.55	3.7270	3.7274	1.6561	24.90	0.04	0.750			
0.4910	31422.95	3.7240	3.7243	1.7024	24.89	0.03	0.750			
0.4960	31746.25	3.7210	3.7215	1.7534	24.87	0.01	0.750			
0.5015	32098.74	3.7180	3.7176	1.8468	24.85	-0.01	0.750			
0.5069	32444.50	3.7150	3.7146	1.8791	24.84	-0.02	0.750			
0.5126	32807.04	3.7120	3.7121	1.9479	24.83	-0.03	0.750			
0.5186	33189.27	3.7090	3.7094	2.0365	24.82	-0.04	0.750			
0.5247	33582.17	3.7060	3.7055	2.1335	24.81	-0.05	0.750			
0.5310	33985.66	3.7030	3.7031	2.0976	24.80	-0.06	0.750			
0.5375	34399.73	3.7000	3.7005	2.1848	24.78	-0.08	0.750			
0.5440	34818.59	3.6970	3.6967	2.2002	24.77	-0.09	0.750			
0.5507	35245.11	3.6940	3.6945	2.3527	24.76	-0.10	0.750			
0.5583	35731.25	3.6910	3.6909	2.4217	24.75	-0.11	0.750			
0.5653	36181.36	3.6880	3.6882	2.4613	24.74	-0.12	0.750			
0.5726	36647.47	3.6850	3.6849	2.5289	24.73	-0.13	0.750			
0.5801	37126.32	3.6820	3.6820	2.4671	24.72	-0.14	0.750			
0.5877	37614.43	3.6790	3.6794	2.5875	24.72	-0.14	0.750			
0.5957	38125.65	3.6760	3.6759	2.7806	24.72	-0.14	0.750			
0.6039	38646.71	3.6730	3.6731	2.7524	24.70	-0.16	0.750			
0.6117	39151.03	3.6700	3.6703	2.5396	24.70	-0.16	0.750			
0.6192	39631.98	3.6670	3.6669	2.3792	24.71	-0.15	0.750			
0.6266	40101.14	3.6640	3.6641	2.3722	24.72	-0.14	0.750			
0.6330	40513.17	3.6610	3.6607	2.1503	24.72	-0.14	0.750			
0.6392	40906.49	3.6580	3.6579	1.9813	24.73	-0.13	0.750			
0.6444	41244.41	3.6550	3.6551	1.7561	24.73	-0.13	0.750			
0.6495	41570.35	3.6520	3.6523	1.6320	24.74	-0.12	0.750			
0.6542	41871.45	3.6490	3.6492	1.4990	24.76	-0.10	0.750			
0.6585	42146.80	3.6460	3.6462	1.3792	24.76	-0.10	0.750			
0.6627	42409.96	3.6430	3.6430	1.2878	24.77	-0.09	0.750			
0.6661	42633.59	3.6400	3.6402	1.1841	24.77	-0.09	0.750			
0.6696	42853.94	3.6370	3.6369	1.1163	24.77	-0.09	0.750			
0.6727	43053.26	3.6340	3.6340	1.0391	24.78	-0.08	0.750			
0.6757	43241.77	3.6310	3.6312	0.9994	24.79	-0.07	0.750			
0.6786	43429.55	3.6280	3.6280	0.9700	24.79	-0.07	0.750			
0.6815	43613.46	3.6250	3.6246	0.9408	24.80	-0.06	0.750			
0.6843	43795.15	3.6220	3.6220	0.8977	24.81	-0.05	0.750			
0.6869	43964.69	3.6190	3.6191	0.8650	24.81	-0.05	0.750			
0.6895	44130.99	3.6160	3.6161	0.8285	24.81	-0.05	0.750			
0.6920	44285.29	3.6130	3.6131	0.7746	24.82	-0.04	0.750			
0.6942	44429.44	3.6100	3.6096	0.7261	24.82	-0.04	0.750			
0.6963	44565.28	3.6070	3.6071	0.6702	24.83	-0.03	0.750			
0.6983	44688.97	3.6040	3.6041	0.6145	24.83	-0.03	0.750			
0.7001	44804.19	3.6010	3.6010	0.5491	24.84	-0.02	0.750			
0.7016	44902.72	3.5980	3.5980	0.4908	24.85	-0.01	0.750			
0.7030	44989.67	3.5950	3.5951	0.4286	24.85	-0.01	0.750			
0.7041	45063.69	3.5920	3.5921	0.3842	24.85	-0.01	0.750			
0.7052	45133.25	3.5890	3.5892	0.3322	24.86	-0.00	0.750			
0.7061	45192.97	3.5860	3.5860	0.2883	24.86	-0.00	0.750			
0.7069	45244.40	3.5830	3.5836	0.2443	24.86	0.00	0.750			
0.7077	45290.42	3.5800	3.5805	0.1963	24.86	0.00	0.750			
0.7082	45321.93	3.5770	3.5775	0.1429	24.87	0.01	0.750			
0.7085	45345.18	3.5740	3.5739	0.0241	24.87	0.01	0.750			
