Ah_balance (normalized)	Ah_balance (mAh)	Voltage - fit (V)	Voltage -  interpolate (V)	dQ/dV (1/V)	Temperature (°C)	Temperature - diff (°C)	Current (C)	R_DC 0ms (mOhm)	R_DC 50ms (mOhm)	R_DC 50 ms PEC (mOhm)
0.0001	8.16	4.1640	4.1637	-0.0968	24.76	0.02	-0.750			
0.0005	32.39	4.1610	4.1609	-0.1471	24.75	0.01	-0.750			
0.0010	63.03	4.1580	4.1578	-0.1876	24.75	0.01	-0.750			
0.0016	103.94	4.1550	4.1551	-0.2318	24.75	0.01	-0.750			
0.0024	153.45	4.1520	4.1520	-0.2721	24.75	0.01	-0.750			
0.0033	209.44	4.1490	4.1489	-0.3157	24.75	0.01	-0.750			
0.0043	275.04	4.1460	4.1461	-0.3547	24.75	0.01	-0.750			
0.0054	347.29	4.1430	4.1430	-0.4026	24.75	0.01	-0.750			
0.0067	431.38	4.1400	4.1399	-0.4358	24.74	0.00	-0.750			
0.0081	520.22	4.1370	4.1368	-0.4665	24.74	0.00	-0.750			
0.0096	612.71	4.1340	4.1346	-0.5003	24.74	0.00	-0.750			
0.0111	712.76	4.1310	4.1310	-0.5296	24.74	-0.00	-0.750			
0.0127	815.92	4.1280	4.1278	-0.5508	24.74	-0.00	-0.750			
0.0144	923.89	4.1250	4.1250	-0.5710	24.73	-0.01	-0.750			
0.0162	1037.90	4.1220	4.1221	-0.5986	24.73	-0.01	-0.750			
0.0181	1155.35	4.1190	4.1190	-0.6160	24.73	-0.01	-0.750			
0.0199	1275.99	4.1160	4.1161	-0.6305	24.72	-0.02	-0.750			
0.0218	1396.69	4.1130	4.1131	-0.6422	24.72	-0.02	-0.750			
0.0238	1523.23	4.1100	4.1100	-0.6569	24.72	-0.02	-0.750			
0.0258	1651.50	4.1070	4.1069	-0.6668	24.71	-0.03	-0.750			
0.0278	1780.59	4.1040	4.1040	-0.6809	24.71	-0.03	-0.750			
0.0299	1912.00	4.1010	4.1011	-0.6876	24.71	-0.03	-0.750			
0.0320	2047.03	4.0980	4.0978	-0.6916	24.70	-0.04	-0.750			
0.0341	2180.60	4.0950	4.0950	-0.6924	24.70	-0.04	-0.750			
0.0361	2311.63	4.0920	4.0920	-0.6953	24.70	-0.04	-0.750			
0.0382	2445.66	4.0890	4.0889	-0.6987	24.69	-0.05	-0.750			
0.0403	2579.22	4.0860	4.0860	-0.7158	24.69	-0.05	-0.750			
0.0425	2718.18	4.0830	4.0829	-0.7204	24.69	-0.05	-0.750			
0.0447	2861.30	4.0800	4.0799	-0.7321	24.68	-0.06	-0.750			
0.0469	3004.06	4.0770	4.0776	-0.7363	24.68	-0.06	-0.750			
0.0492	3147.28	4.0740	4.0738	-0.7348	24.68	-0.06	-0.750			
0.0513	3284.88	4.0710	4.0711	-0.7379	24.68	-0.06	-0.750			
0.0535	3423.50	4.0680	4.0680	-0.7341	24.68	-0.06	-0.750			
0.0557	3567.34	4.0650	4.0649	-0.7439	24.68	-0.06	-0.750			
0.0580	3709.49	4.0620	4.0619	-0.7461	24.68	-0.06	-0.750			
0.0602	3853.19	4.0590	4.0592	-0.7506	24.68	-0.06	-0.750			
0.0625	3997.90	4.0560	4.0559	-0.7514	24.68	-0.06	-0.750			
0.0648	4144.45	4.0530	4.0529	-0.7594	24.68	-0.06	-0.750			
0.0670	4290.07	4.0500	4.0500	-0.7539	24.68	-0.06	-0.750			
0.0693	4436.24	4.0470	4.0469	-0.7583	24.68	-0.06	-0.750			
0.0716	4581.06	4.0440	4.0439	-0.7562	24.68	-0.06	-0.750			
0.0738	4724.41	4.0410	4.0408	-0.7585	24.68	-0.06	-0.750			
0.0761	4869.99	4.0380	4.0379	-0.7612	24.68	-0.06	-0.750			
0.0784	5017.14	4.0350	4.0350	-0.7690	24.68	-0.06	-0.750			
0.0808	5168.05	4.0320	4.0319	-0.7790	24.68	-0.06	-0.750			
0.0831	5320.10	4.0290	4.0289	-0.7733	24.68	-0.06	-0.750			
0.0854	5466.69	4.0260	4.0262	-0.7694	24.68	-0.06	-0.750			
0.0877	5613.00	4.0230	4.0230	-0.7662	24.68	-0.06	-0.750			
0.0900	5757.36	4.0200	4.0199	-0.7697	24.68	-0.06	-0.750			
0.0922	5901.99	4.0170	4.0170	-0.7651	24.68	-0.06	-0.750			
0.0946	6053.76	4.0140	4.0140	-0.7804	24.68	-0.06	-0.750			
0.0970	6206.23	4.0110	4.0110	-0.7809	24.68	-0.06	-0.750			
0.0993	6357.07	4.0080	4.0080	-0.7794	24.68	-0.06	-0.750			
0.1016	6503.54	4.0050	4.0050	-0.7792	24.68	-0.06	-0.750			
0.1040	6654.11	4.0020	4.0021	-0.7783	24.68	-0.06	-0.750			
0.1063	6801.14	3.9990	3.9989	-0.7772	24.68	-0.06	-0.750			
0.1086	6951.29	3.9960	3.9959	-0.7856	24.68	-0.06	-0.750			
0.1110	7101.80	3.9930	3.9929	-0.7881	24.68	-0.06	-0.750			
0.1133	7253.72	3.9900	3.9900	-0.8041	24.68	-0.06	-0.750			
0.1158	7409.65	3.9870	3.9870	-0.8012	24.68	-0.06	-0.750			
0.1182	7563.40	3.9840	3.9840	-0.8011	24.68	-0.06	-0.750			
0.1206	7720.19	3.9810	3.9810	-0.7997	24.68	-0.06	-0.750			
0.1230	7873.41	3.9780	3.9778	-0.7961	24.68	-0.06	-0.750			
0.1254	8023.39	3.9750	3.9750	-0.7938	24.68	-0.06	-0.750			
0.1277	8174.79	3.9720	3.9719	-0.7966	24.68	-0.06	-0.750			
0.1301	8325.17	3.9690	3.9690	-0.7957	24.68	-0.06	-0.750			
0.1325	8481.78	3.9660	3.9659	-0.8089	24.68	-0.06	-0.750			
0.1350	8638.51	3.9630	3.9632	-0.8093	24.68	-0.06	-0.750			
0.1374	8794.73	3.9600	3.9600	-0.8142	24.68	-0.06	-0.750			
0.1399	8951.43	3.9570	3.9570	-0.8252	24.69	-0.05	-0.750			
0.1424	9112.07	3.9540	3.9539	-0.8241	24.69	-0.05	-0.750			
0.1448	9270.38	3.9510	3.9508	-0.8236	24.70	-0.04	-0.750			
0.1473	9428.48	3.9480	3.9486	-0.8245	24.70	-0.04	-0.750			
0.1498	9587.83	3.9450	3.9450	-0.8205	24.70	-0.04	-0.750			
0.1523	9745.32	3.9420	3.9419	-0.8378	24.70	-0.04	-0.750			
0.1548	9905.62	3.9390	3.9388	-0.8276	24.70	-0.04	-0.750			
0.1573	10068.44	3.9360	3.9358	-0.8360	24.70	-0.04	-0.750			
0.1598	10227.91	3.9330	3.9340	-0.8339	24.70	-0.04	-0.750			
0.1623	10388.39	3.9300	3.9298	-0.8317	24.70	-0.04	-0.750			
0.1648	10546.98	3.9270	3.9269	-0.8361	24.70	-0.04	-0.750			
0.1673	10704.77	3.9240	3.9239	-0.8334	24.71	-0.03	-0.750			
0.1698	10868.26	3.9210	3.9210	-0.8477	24.71	-0.03	-0.750			
0.1724	11032.26	3.9180	3.9183	-0.8415	24.71	-0.03	-0.750			
0.1749	11193.53	3.9150	3.9150	-0.8398	24.71	-0.03	-0.750			
0.1774	11354.93	3.9120	3.9119	-0.8485	24.71	-0.03	-0.750			
0.1800	11517.31	3.9090	3.9086	-0.8442	24.72	-0.02	-0.750			
0.1825	11680.60	3.9060	3.9059	-0.8495	24.72	-0.02	-0.750			
0.1851	11843.54	3.9030	3.9035	-0.8440	24.72	-0.02	-0.750			
0.1876	12006.92	3.9000	3.9000	-0.8454	24.72	-0.02	-0.750			
0.1902	12173.23	3.8970	3.8969	-0.8576	24.72	-0.02	-0.750			
0.1927	12333.73	3.8940	3.8939	-0.8487	24.72	-0.02	-0.750			
0.1953	12500.00	3.8910	3.8908	-0.8578	24.72	-0.02	-0.750			
0.1979	12664.25	3.8880	3.8878	-0.8526	24.72	-0.02	-0.750			
0.2004	12827.36	3.8850	3.8849	-0.8519	24.73	-0.01	-0.750			
0.2030	12990.68	3.8820	3.8819	-0.8484	24.73	-0.01	-0.750			
0.2054	13146.53	3.8790	3.8791	-0.8403	24.73	-0.01	-0.750			
0.2081	13316.10	3.8760	3.8760	-0.8630	24.74	-0.00	-0.750			
0.2106	13480.72	3.8730	3.8730	-0.8606	24.74	0.00	-0.750			
0.2132	13645.24	3.8700	3.8700	-0.8661	24.75	0.01	-0.750			
0.2158	13813.48	3.8670	3.8671	-0.8652	24.75	0.01	-0.750			
0.2185	13980.93	3.8640	3.8639	-0.8612	24.75	0.01	-0.750			
0.2210	14146.96	3.8610	3.8609	-0.8543	24.76	0.02	-0.750			
0.2236	14308.47	3.8580	3.8579	-0.8504	24.76	0.02	-0.750			
0.2261	14470.51	3.8550	3.8550	-0.8566	24.76	0.02	-0.750			
0.2287	14636.19	3.8520	3.8519	-0.8569	24.76	0.02	-0.750			
0.2313	14801.47	3.8490	3.8489	-0.8472	24.76	0.02	-0.750			
0.2338	14964.35	3.8460	3.8459	-0.8535	24.76	0.02	-0.750			
0.2364	15128.33	3.8430	3.8429	-0.8566	24.76	0.02	-0.750			
0.2389	15291.71	3.8400	3.8398	-0.8606	24.77	0.03	-0.750			
0.2415	15454.77	3.8370	3.8369	-0.8524	24.77	0.03	-0.750			
0.2440	15618.67	3.8340	3.8340	-0.8436	24.77	0.03	-0.750			
0.2467	15787.86	3.8310	3.8311	-0.8533	24.78	0.04	-0.750			
0.2492	15951.45	3.8280	3.8280	-0.8436	24.78	0.04	-0.750			
0.2517	16108.72	3.8250	3.8250	-0.8371	24.79	0.05	-0.750			
0.2542	16270.97	3.8220	3.8219	-0.8313	24.79	0.05	-0.750			
0.2567	16428.76	3.8190	3.8188	-0.8237	24.80	0.06	-0.750			
0.2592	16589.88	3.8160	3.8162	-0.8289	24.80	0.06	-0.750			
0.2617	16747.37	3.8130	3.8128	-0.8207	24.80	0.06	-0.750			
0.2641	16902.61	3.8100	3.8100	-0.8243	24.81	0.07	-0.750			
0.2666	17062.14	3.8070	3.8070	-0.8230	24.81	0.07	-0.750			
0.2690	17218.08	3.8040	3.8038	-0.8090	24.81	0.07	-0.750			
0.2716	17380.37	3.8010	3.8012	-0.8105	24.82	0.08	-0.750			
0.2740	17533.35	3.7980	3.7980	-0.7997	24.82	0.08	-0.750			
0.2763	17684.16	3.7950	3.7949	-0.7931	24.83	0.09	-0.750			
0.2787	17834.85	3.7920	3.7920	-0.7911	24.83	0.09	-0.750			
0.2810	17980.88	3.7890	3.7890	-0.7868	24.83	0.09	-0.750			
0.2834	18137.43	3.7860	3.7860	-0.7951	24.84	0.10	-0.750			
0.2858	18290.59	3.7830	3.7830	-0.7983	24.84	0.10	-0.750			
0.2882	18442.87	3.7800	3.7800	-0.8053	24.84	0.10	-0.750			
0.2906	18600.22	3.7770	3.7769	-0.7988	24.84	0.10	-0.750			
0.2930	18752.92	3.7740	3.7739	-0.7949	24.84	0.10	-0.750			
0.2954	18906.12	3.7710	3.7710	-0.7925	24.84	0.10	-0.750			
0.2978	19057.16	3.7680	3.7682	-0.7889	24.84	0.10	-0.750			
0.3001	19208.73	3.7650	3.7648	-0.7863	24.84	0.10	-0.750			
0.3024	19356.53	3.7620	3.7620	-0.7980	24.85	0.11	-0.750			
0.3049	19511.61	3.7590	3.7588	-0.7973	24.85	0.11	-0.750			
0.3073	19670.01	3.7560	3.7558	-0.8065	24.86	0.12	-0.750			
0.3098	19824.76	3.7530	3.7538	-0.8104	24.86	0.12	-0.750			
0.3122	19979.99	3.7500	3.7500	-0.8129	24.86	0.12	-0.750			
0.3146	20134.56	3.7470	3.7469	-0.8211	24.86	0.12	-0.750			
0.3170	20289.07	3.7440	3.7439	-0.8212	24.86	0.12	-0.750			
0.3195	20449.99	3.7410	3.7410	-0.8373	24.86	0.12	-0.750			
0.3220	20610.81	3.7380	3.7380	-0.8477	24.86	0.12	-0.750			
0.3246	20772.33	3.7350	3.7351	-0.8723	24.86	0.12	-0.750			
0.3272	20942.68	3.7320	3.7319	-0.8801	24.86	0.12	-0.750			
0.3299	21115.34	3.7290	3.7288	-0.8859	24.87	0.13	-0.750			
0.3326	21285.79	3.7260	3.7259	-0.8968	24.87	0.13	-0.750			
0.3353	21460.39	3.7230	3.7233	-0.9119	24.87	0.13	-0.750			
0.3380	21634.90	3.7200	3.7200	-0.9315	24.87	0.13	-0.750			
0.3408	21813.27	3.7170	3.7168	-0.9394	24.87	0.13	-0.750			
0.3436	21993.26	3.7140	3.7140	-0.9486	24.87	0.13	-0.750			
0.3466	22182.77	3.7110	3.7113	-0.9756	24.87	0.13	-0.750			
0.3496	22377.53	3.7080	3.7078	-0.9742	24.87	0.13	-0.750			
0.3525	22561.50	3.7050	3.7050	-0.9600	24.87	0.13	-0.750			
0.3553	22738.01	3.7020	3.7022	-0.9680	24.86	0.12	-0.750			
0.3581	22921.50	3.6990	3.6988	-0.9830	24.86	0.12	-0.750			
0.3611	23112.03	3.6960	3.6955	-1.0250	24.86	0.12	-0.750	0.416	0.536	
0.3643	23312.78	3.6930	3.6930	-1.0525	24.85	0.11	-0.750			
0.3676	23523.47	3.6900	3.6899	-1.0807	24.85	0.11	-0.750			
0.3709	23737.34	3.6870	3.6870	-1.1099	24.84	0.10	-0.750			
0.3744	23958.76	3.6840	3.6838	-1.1409	24.84	0.10	-0.750			
0.3778	24179.54	3.6810	3.6808	-1.1377	24.84	0.10	-0.750			
0.3812	24394.69	3.6780	3.6778	-1.1559	24.83	0.09	-0.750			
0.3847	24618.32	3.6750	3.6761	-1.1771	24.83	0.09	-0.750			
0.3882	24844.30	3.6720	3.6718	-1.2044	24.83	0.09	-0.750			
0.3918	25073.50	3.6690	3.6689	-1.2273	24.82	0.08	-0.750			
0.3952	25295.85	3.6660	3.6663	-1.2688	24.82	0.08	-0.750			
0.3995	25570.74	3.6630	3.6630	-1.3395	24.82	0.08	-0.750			
0.4037	25837.43	3.6600	3.6597	-1.3593	24.81	0.07	-0.750			
0.4078	26097.53	3.6570	3.6568	-1.3808	24.80	0.06	-0.750			
0.4120	26370.59	3.6540	3.6539	-1.3928	24.80	0.06	-0.750			
0.4162	26636.77	3.6510	3.6506	-1.3866	24.79	0.05	-0.750			
0.4203	26899.92	3.6480	3.6480	-1.3869	24.78	0.04	-0.750			
0.4244	27163.35	3.6450	3.6449	-1.3866	24.78	0.04	-0.750			
0.4287	27437.65	3.6420	3.6419	-1.4400	24.77	0.03	-0.750			
0.4330	27710.78	3.6390	3.6389	-1.4542	24.77	0.03	-0.750			
0.4373	27987.24	3.6360	3.6359	-1.4828	24.77	0.03	-0.750			
0.4421	28292.09	3.6330	3.6332	-1.5432	24.76	0.02	-0.750			
0.4467	28591.24	3.6300	3.6302	-1.5831	24.76	0.02	-0.750			
0.4516	28900.96	3.6270	3.6275	-1.5975	24.76	0.02	-0.750			
0.4564	29207.62	3.6240	3.6246	-1.6167	24.75	0.01	-0.750			
0.4611	29507.87	3.6210	3.6205	-1.6385	24.75	0.01	-0.750			
0.4660	29824.91	3.6180	3.6177	-1.6933	24.75	0.01	-0.750			
0.4712	30156.54	3.6150	3.6146	-1.7429	24.74	0.00	-0.750			
0.4764	30489.61	3.6120	3.6122	-1.8035	24.73	-0.01	-0.750			
0.4821	30857.02	3.6090	3.6090	-1.8489	24.72	-0.02	-0.750			
0.4879	31223.01	3.6060	3.6058	-1.9100	24.72	-0.02	-0.750			
0.4937	31598.85	3.6030	3.6030	-1.8985	24.72	-0.02	-0.750			
0.4995	31964.85	3.6000	3.5998	-1.9464	24.72	-0.02	-0.750			
0.5054	32342.74	3.5970	3.5970	-1.9656	24.71	-0.03	-0.750			
0.5111	32708.88	3.5940	3.5940	-1.9653	24.70	-0.04	-0.750			
0.5172	33100.27	3.5910	3.5913	-2.0349	24.69	-0.05	-0.750			
0.5235	33501.85	3.5880	3.5879	-2.0717	24.69	-0.05	-0.750			
0.5299	33912.05	3.5850	3.5853	-2.1342	24.69	-0.05	-0.750			
0.5360	34306.00	3.5820	3.5820	-2.1568	24.69	-0.05	-0.750			
0.5429	34745.35	3.5790	3.5784	-2.1858	24.68	-0.06	-0.750			
0.5492	35147.23	3.5760	3.5757	-2.2051	24.68	-0.06	-0.750			
0.5563	35600.03	3.5730	3.5732	-2.2289	24.68	-0.06	-0.750			
0.5628	36019.98	3.5700	3.5695	-2.2702	24.68	-0.06	-0.750			
0.5697	36460.21	3.5670	3.5670	-2.2594	24.67	-0.07	-0.750			
0.5766	36905.21	3.5640	3.5644	-2.3422	24.67	-0.07	-0.750			
0.5836	37347.45	3.5610	3.5611	-2.3015	24.67	-0.07	-0.750			
0.5905	37792.18	3.5580	3.5576	-2.3238	24.67	-0.07	-0.750			
0.5971	38215.33	3.5550	3.5554	-2.2167	24.68	-0.06	-0.750			
0.6039	38647.74	3.5520	3.5521	-2.2128	24.68	-0.06	-0.750			
0.6105	39074.72	3.5490	3.5491	-2.1784	24.68	-0.06	-0.750			
0.6169	39481.87	3.5460	3.5459	-2.1262	24.69	-0.05	-0.750			
0.6232	39884.90	3.5430	3.5431	-2.1077	24.69	-0.05	-0.750			
0.6295	40288.66	3.5400	3.5399	-2.0721	24.70	-0.04	-0.750			
0.6357	40685.85	3.5370	3.5371	-2.0332	24.70	-0.04	-0.750			
0.6418	41074.90	3.5340	3.5336	-1.9707	24.71	-0.03	-0.750			
0.6476	41446.29	3.5310	3.5314	-1.9223	24.72	-0.02	-0.750			
0.6532	41807.50	3.5280	3.5283	-1.8922	24.73	-0.01	-0.750			
0.6590	42173.00	3.5250	3.5251	-1.8574	24.74	-0.00	-0.750			
0.6645	42525.57	3.5220	3.5221	-1.7987	24.75	0.01	-0.750			
0.6700	42879.23	3.5190	3.5191	-1.7586	24.76	0.02	-0.750			
0.6753	43216.33	3.5160	3.5157	-1.7166	24.77	0.03	-0.750			
0.6802	43535.56	3.5130	3.5126	-1.6491	24.79	0.05	-0.750			
0.6850	43841.01	3.5100	3.5105	-1.5813	24.80	0.06	-0.750			
0.6897	44138.82	3.5070	3.5075	-1.5373	24.82	0.08	-0.750			
0.6942	44427.03	3.5040	3.5039	-1.5165	24.83	0.09	-0.750			
0.6987	44715.02	3.5010	3.5010	-1.4689	24.85	0.11	-0.750			
0.7032	45002.89	3.4980	3.4978	-1.4434	24.86	0.12	-0.750			
0.7075	45280.09	3.4950	3.4948	-1.4068	24.88	0.14	-0.750			
0.7117	45546.49	3.4920	3.4920	-1.3471	24.90	0.16	-0.750			
0.7156	45800.90	3.4890	3.4888	-1.2619	24.91	0.17	-0.750			
0.7192	46031.62	3.4860	3.4861	-1.1301	24.93	0.19	-0.750			
