Ah_balance (normalized)	Ah_balance (mAh)	Voltage - fit (V)	Voltage -  interpolate (V)	dQ/dV (1/V)	Temperature (°C)	Temperature - diff (°C)	Current (C)	R_DC 0ms (mOhm)	R_DC 50ms (mOhm)	R_DC 50 ms PEC (mOhm)
0.0535	3422.26	4.1960	4.1959	0.6676	25.91	0.20	0.750			
0.0555	3552.42	4.1930	4.1932	0.7045	25.91	0.20	0.750			
0.0577	3695.93	4.1900	4.1901	0.7433	25.91	0.20	0.750			
0.0600	3842.82	4.1870	4.1869	0.7649	25.91	0.20	0.750	0.318	0.470	
0.0624	3994.11	4.1840	4.1842	0.7741	25.91	0.20	0.750			
0.0648	4145.48	4.1810	4.1812	0.7823	25.91	0.20	0.750			
0.0671	4297.57	4.1780	4.1781	0.7793	25.91	0.20	0.750			
0.0695	4450.12	4.1750	4.1747	0.7785	25.91	0.20	0.750			
0.0718	4594.74	4.1720	4.1720	0.7600	25.91	0.20	0.750			
0.0741	4740.43	4.1690	4.1692	0.7620	25.91	0.20	0.750			
0.0763	4884.77	4.1660	4.1662	0.7700	25.92	0.21	0.750			
0.0786	5031.07	4.1630	4.1628	0.7722	25.92	0.21	0.750			
0.0810	5181.07	4.1600	4.1602	0.7761	25.92	0.21	0.750	0.286	0.435	
0.0833	5331.75	4.1570	4.1572	0.7834	25.92	0.21	0.750			
0.0857	5483.16	4.1540	4.1541	0.7900	25.92	0.21	0.750			
0.0881	5639.16	4.1510	4.1510	0.7829	25.92	0.21	0.750			
0.0904	5784.86	4.1480	4.1480	0.7743	25.92	0.21	0.750			
0.0927	5934.76	4.1450	4.1451	0.7542	25.92	0.21	0.750			
0.0949	6074.90	4.1420	4.1418	0.7664	25.92	0.21	0.750			
0.0972	6222.07	4.1390	4.1392	0.7786	25.92	0.21	0.750			
0.0996	6372.00	4.1360	4.1357	0.7796	25.92	0.21	0.750	0.294	0.436	
0.1019	6522.90	4.1330	4.1334	0.7900	25.93	0.22	0.750			
0.1043	6677.35	4.1300	4.1301	0.7937	25.93	0.22	0.750			
0.1068	6833.81	4.1270	4.1266	0.8000	25.93	0.22	0.750			
0.1092	6988.09	4.1240	4.1240	0.7945	25.93	0.22	0.750			
0.1116	7139.71	4.1210	4.1210	0.7773	25.93	0.22	0.750			
0.1138	7285.69	4.1180	4.1181	0.7906	25.94	0.23	0.750			
0.1162	7437.46	4.1150	4.1151	0.7988	25.94	0.23	0.750			
0.1186	7588.73	4.1120	4.1119	0.7991	25.94	0.23	0.750			
0.1210	7744.12	4.1090	4.1091	0.8062	25.94	0.23	0.750	0.304	0.461	
0.1235	7903.29	4.1060	4.1062	0.8067	25.94	0.23	0.750			
0.1259	8058.93	4.1030	4.1030	0.8080	25.95	0.24	0.750			
0.1284	8215.29	4.1000	4.1000	0.7960	25.95	0.24	0.750			
0.1307	8365.30	4.0970	4.0971	0.7881	25.95	0.24	0.750			
0.1330	8514.84	4.0940	4.0941	0.7769	25.95	0.24	0.750			
0.1353	8660.32	4.0910	4.0912	0.7822	25.95	0.24	0.750			
0.1376	8806.74	4.0880	4.0882	0.7891	25.95	0.24	0.750			
0.1400	8958.92	4.0850	4.0845	0.8019	25.95	0.24	0.750	0.325	0.458	
0.1424	9112.35	4.0820	4.0824	0.8111	25.95	0.24	0.750			
0.1449	9275.12	4.0790	4.0786	0.8214	25.95	0.24	0.750			
0.1474	9436.01	4.0760	4.0763	0.8241	25.95	0.24	0.750			
0.1499	9596.41	4.0730	4.0730	0.8168	25.95	0.24	0.750			
0.1523	9746.75	4.0700	4.0700	0.8060	25.95	0.24	0.750			
0.1546	9896.22	4.0670	4.0671	0.8019	25.95	0.24	0.750			
0.1570	10050.27	4.0640	4.0640	0.8165	25.95	0.24	0.750			
0.1595	10208.25	4.0610	4.0598	0.8326	25.95	0.24	0.750	0.302	0.460	
0.1620	10371.11	4.0580	4.0584	0.8355	25.95	0.24	0.750			
0.1646	10533.93	4.0550	4.0552	0.8452	25.96	0.25	0.750			
0.1672	10700.88	4.0520	4.0520	0.8529	25.96	0.25	0.750			
0.1698	10866.85	4.0490	4.0485	0.8480	25.96	0.25	0.750			
0.1722	11022.74	4.0460	4.0460	0.8349	25.96	0.25	0.750			
0.1746	11176.69	4.0430	4.0433	0.8218	25.96	0.25	0.750			
0.1770	11329.54	4.0400	4.0403	0.8306	25.97	0.26	0.750			
0.1795	11489.85	4.0370	4.0362	0.8527	25.97	0.26	0.750	0.315	0.452	
0.1821	11651.44	4.0340	4.0335	0.8617	25.97	0.26	0.750			
0.1847	11821.08	4.0310	4.0314	0.8699	25.97	0.26	0.750			
0.1875	11998.95	4.0280	4.0281	0.8848	25.97	0.26	0.750			
0.1903	12179.64	4.0250	4.0249	0.8882	25.97	0.26	0.750			
0.1928	12338.11	4.0220	4.0219	0.8466	25.97	0.26	0.750			
0.1951	12487.25	4.0190	4.0192	0.8446	25.97	0.26	0.750			
0.1976	12648.84	4.0160	4.0162	0.8512	25.97	0.26	0.750			
0.2002	12810.59	4.0130	4.0126	0.8616	25.97	0.26	0.750	0.314	0.458	
0.2028	12978.25	4.0100	4.0104	0.8719	25.97	0.26	0.750			
0.2054	13148.23	4.0070	4.0074	0.8828	25.97	0.26	0.750			
0.2082	13325.86	4.0040	4.0040	0.8904	25.97	0.26	0.750			
0.2108	13494.29	4.0010	4.0010	0.8638	25.97	0.26	0.750			
0.2134	13660.02	3.9980	3.9980	0.8594	25.98	0.27	0.750			
0.2160	13823.43	3.9950	3.9951	0.8615	25.98	0.27	0.750			
0.2186	13988.08	3.9920	3.9920	0.8663	25.98	0.27	0.750			
0.2212	14154.22	3.9890	3.9888	0.8721	25.98	0.27	0.750	0.304	0.449	
0.2238	14322.03	3.9860	3.9861	0.8731	25.98	0.27	0.750			
0.2264	14491.40	3.9830	3.9832	0.8784	25.97	0.26	0.750			
0.2291	14664.85	3.9800	3.9800	0.8819	25.97	0.26	0.750			
0.2318	14835.54	3.9770	3.9768	0.8494	25.97	0.26	0.750			
0.2343	14994.01	3.9740	3.9742	0.8590	25.97	0.26	0.750			
0.2368	15155.55	3.9710	3.9712	0.8653	25.97	0.26	0.750			
0.2394	15319.62	3.9680	3.9678	0.8759	25.97	0.26	0.750	0.313	0.466	
0.2420	15489.80	3.9650	3.9654	0.8817	25.97	0.26	0.750			
0.2447	15661.48	3.9620	3.9616	0.8939	25.97	0.26	0.750			
0.2476	15844.44	3.9590	3.9591	0.8899	25.97	0.26	0.750			
0.2503	16017.96	3.9560	3.9560	0.8821	25.97	0.26	0.750			
0.2529	16186.01	3.9530	3.9530	0.8492	25.97	0.26	0.750			
0.2553	16336.02	3.9500	3.9503	0.8633	25.97	0.26	0.750			
0.2578	16500.18	3.9470	3.9471	0.8725	25.97	0.26	0.750			
0.2605	16670.70	3.9440	3.9441	0.8856	25.97	0.26	0.750	0.308	0.463	
0.2632	16843.30	3.9410	3.9414	0.8986	25.97	0.26	0.750			
0.2660	17022.21	3.9380	3.9382	0.9041	25.97	0.26	0.750			
0.2687	17197.66	3.9350	3.9350	0.8993	25.97	0.26	0.750			
0.2714	17369.41	3.9320	3.9321	0.8763	25.97	0.26	0.750			
0.2740	17536.96	3.9290	3.9290	0.8653	25.96	0.25	0.750			
0.2765	17697.46	3.9260	3.9262	0.8802	25.96	0.25	0.750			
0.2792	17867.48	3.9230	3.9228	0.8924	25.95	0.24	0.750	0.298	0.433	
0.2819	18040.66	3.9200	3.9196	0.8948	25.95	0.24	0.750			
0.2846	18214.48	3.9170	3.9173	0.9002	25.95	0.24	0.750			
0.2874	18392.20	3.9140	3.9142	0.8960	25.95	0.24	0.750			
0.2901	18566.71	3.9110	3.9109	0.9022	25.94	0.23	0.750			
0.2926	18727.72	3.9080	3.9081	0.8760	25.94	0.23	0.750			
0.2952	18894.56	3.9050	3.9051	0.8836	25.94	0.23	0.750			
0.2979	19064.47	3.9020	3.9021	0.8967	25.93	0.22	0.750			
0.3006	19239.85	3.8990	3.8990	0.9047	25.93	0.22	0.750	0.281	0.436	
0.3034	19416.79	3.8960	3.8962	0.9149	25.92	0.21	0.750			
0.3061	19592.70	3.8930	3.8930	0.9102	25.91	0.20	0.750			
0.3089	19770.75	3.8900	3.8900	0.9150	25.91	0.20	0.750			
0.3117	19946.19	3.8870	3.8869	0.8743	25.90	0.19	0.750			
0.3142	20111.28	3.8840	3.8841	0.8876	25.90	0.19	0.750			
0.3168	20275.92	3.8810	3.8813	0.8990	25.89	0.18	0.750			
0.3195	20449.38	3.8780	3.8775	0.9175	25.89	0.18	0.750	0.287	0.426	
0.3224	20630.80	3.8750	3.8752	0.9078	25.88	0.17	0.750			
0.3251	20805.95	3.8720	3.8722	0.9215	25.88	0.17	0.750			
0.3279	20987.64	3.8690	3.8692	0.9359	25.87	0.16	0.750			
0.3308	21171.67	3.8660	3.8661	0.9199	25.86	0.15	0.750			
0.3334	21339.76	3.8630	3.8631	0.9173	25.86	0.15	0.750			
0.3362	21514.66	3.8600	3.8603	0.9328	25.85	0.14	0.750			
0.3390	21694.77	3.8570	3.8568	0.9444	25.84	0.13	0.750	0.278	0.419	
0.3419	21879.65	3.8540	3.8542	0.9582	25.84	0.13	0.750			
0.3447	22063.24	3.8510	3.8510	0.9575	25.83	0.12	0.750			
0.3477	22254.03	3.8480	3.8480	0.9511	25.82	0.11	0.750			
0.3506	22438.09	3.8450	3.8450	0.9493	25.81	0.10	0.750			
0.3533	22613.17	3.8420	3.8422	0.9324	25.80	0.09	0.750			
0.3560	22782.66	3.8390	3.8394	0.9486	25.79	0.08	0.750			
0.3588	22966.16	3.8360	3.8366	0.9813	25.79	0.08	0.750	0.314	0.446	
0.3618	23153.11	3.8330	3.8338	0.9885	25.78	0.07	0.750			
0.3648	23347.26	3.8300	3.8306	1.0160	25.78	0.07	0.750			
0.3680	23553.78	3.8270	3.8274	1.0455	25.77	0.06	0.750			
0.3713	23761.97	3.8240	3.8241	1.0450	25.76	0.05	0.750			
0.3742	23949.71	3.8210	3.8212	1.0241	25.75	0.04	0.750			
0.3773	24149.98	3.8180	3.8182	1.0471	25.74	0.03	0.750			
0.3806	24356.74	3.8150	3.8147	1.0612	25.73	0.02	0.750	0.295	0.445	
0.3838	24561.63	3.8120	3.8121	1.0517	25.72	0.01	0.750			
0.3870	24764.96	3.8090	3.8091	1.0647	25.71	0.00	0.750			
0.3904	24985.44	3.8060	3.8059	1.0428	25.70	-0.01	0.750			
0.3932	25167.69	3.8030	3.8031	1.0457	25.69	-0.02	0.750			
0.3963	25363.36	3.8000	3.8003	1.0752	25.69	-0.02	0.750			
0.3995	25567.26	3.7970	3.7963	1.1056	25.68	-0.03	0.750	0.332	0.462	
0.4029	25786.08	3.7940	3.7945	1.1439	25.67	-0.04	0.750			
0.4065	26014.32	3.7910	3.7908	1.1792	25.66	-0.05	0.750			
0.4100	26242.52	3.7880	3.7883	1.1829	25.65	-0.06	0.750			
0.4137	26478.89	3.7850	3.7852	1.2146	25.64	-0.07	0.750			
0.4172	26703.80	3.7820	3.7822	1.2070	25.64	-0.07	0.750			
0.4210	26941.85	3.7790	3.7793	1.2240	25.63	-0.08	0.750	0.312	0.463	
0.4246	27171.93	3.7760	3.7762	1.2237	25.62	-0.09	0.750			
0.4282	27407.58	3.7730	3.7733	1.2603	25.61	-0.10	0.750			
0.4324	27671.45	3.7700	3.7693	1.2006	25.60	-0.11	0.750			
0.4355	27870.84	3.7670	3.7676	1.2557	25.59	-0.12	0.750			
0.4392	28110.44	3.7640	3.7647	1.3302	25.58	-0.13	0.750	0.322	0.461	
0.4434	28374.51	3.7610	3.7617	1.3672	25.56	-0.15	0.750			
0.4475	28640.93	3.7580	3.7587	1.4054	25.55	-0.16	0.750			
0.4520	28930.51	3.7550	3.7555	1.4547	25.54	-0.17	0.750			
0.4568	29233.56	3.7520	3.7520	1.4743	25.53	-0.18	0.750			
0.4611	29507.25	3.7490	3.7489	1.4568	25.52	-0.19	0.750	0.315	0.464	
0.4655	29793.05	3.7460	3.7463	1.4868	25.51	-0.20	0.750			
0.4701	30084.51	3.7430	3.7429	1.5259	25.50	-0.21	0.750			
0.4748	30385.94	3.7400	3.7402	1.5702	25.49	-0.22	0.750			
0.4795	30690.74	3.7370	3.7363	1.6103	25.48	-0.23	0.750	0.309	0.462	
0.4845	31009.48	3.7340	3.7343	1.6543	25.46	-0.25	0.750			
0.4896	31333.51	3.7310	3.7315	1.7189	25.45	-0.26	0.750			
0.4948	31669.68	3.7280	3.7284	1.7684	25.43	-0.28	0.750			
0.5003	32017.91	3.7250	3.7247	1.8396	25.42	-0.29	0.750	0.288	0.451	
0.5059	32380.00	3.7220	3.7221	1.9015	25.40	-0.31	0.750			
0.5116	32743.75	3.7190	3.7193	1.9808	25.39	-0.32	0.750			
0.5175	33117.20	3.7160	3.7166	2.1099	25.37	-0.34	0.750	0.315	0.451	
0.5240	33536.52	3.7130	3.7126	2.0636	25.36	-0.35	0.750			
0.5305	33950.21	3.7100	3.7098	2.1635	25.35	-0.36	0.750			
0.5370	34366.04	3.7070	3.7064	2.2078	25.34	-0.37	0.750			
0.5438	34804.60	3.7040	3.7038	2.2542	25.32	-0.39	0.750	0.305	0.450	
0.5505	35233.38	3.7010	3.7012	2.3391	25.31	-0.40	0.750			
0.5576	35687.80	3.6980	3.6977	2.4878	25.30	-0.41	0.750	0.300	0.443	
0.5651	36166.24	3.6950	3.6950	2.4618	25.29	-0.42	0.750			
0.5724	36633.91	3.6920	3.6922	2.4621	25.28	-0.43	0.750			
0.5798	37107.84	3.6890	3.6884	2.5620	25.27	-0.44	0.750	0.293	0.437	
0.5878	37616.57	3.6860	3.6859	2.5242	25.27	-0.44	0.750			
0.5954	38106.89	3.6830	3.6829	2.4551	25.27	-0.44	0.750			
0.6029	38587.67	3.6800	3.6798	2.3208	25.27	-0.44	0.750	0.327	0.476	
0.6096	39011.85	3.6770	3.6764	2.1820	25.27	-0.44	0.750			
0.6157	39401.74	3.6740	3.6741	2.0474	25.27	-0.44	0.750			
0.6216	39779.57	3.6710	3.6714	1.9319	25.27	-0.44	0.750	0.338	0.480	
0.6272	40138.29	3.6680	3.6676	1.8275	25.27	-0.44	0.750			
0.6326	40488.04	3.6650	3.6649	1.7275	25.27	-0.44	0.750			
0.6379	40824.84	3.6620	3.6623	1.6378	25.27	-0.44	0.750			
0.6425	41120.08	3.6590	3.6591	1.4808	25.28	-0.43	0.750	0.336	0.484	
0.6468	41396.19	3.6560	3.6561	1.3872	25.28	-0.43	0.750			
0.6510	41662.04	3.6530	3.6529	1.2692	25.29	-0.42	0.750			
0.6545	41885.57	3.6500	3.6503	1.2577	25.29	-0.42	0.750			
0.6580	42110.50	3.6470	3.6472	1.2290	25.29	-0.42	0.750			
0.6616	42343.53	3.6440	3.6447	1.2342	25.29	-0.42	0.750	0.320	0.480	
0.6653	42577.38	3.6410	3.6417	1.2379	25.30	-0.41	0.750			
0.6691	42822.70	3.6380	3.6377	1.2145	25.30	-0.41	0.750			
0.6729	43066.40	3.6350	3.6353	1.2317	25.30	-0.41	0.750			
0.6766	43302.84	3.6320	3.6321	1.2374	25.31	-0.40	0.750			
0.6800	43518.69	3.6290	3.6284	1.1761	25.31	-0.40	0.750	0.319	0.486	
0.6835	43744.49	3.6260	3.6263	1.1497	25.31	-0.40	0.750			
0.6871	43971.34	3.6230	3.6231	1.1426	25.31	-0.40	0.750			
0.6905	44192.22	3.6200	3.6202	1.1470	25.32	-0.39	0.750			
0.6938	44405.18	3.6170	3.6166	1.1289	25.32	-0.39	0.750			
0.6972	44619.40	3.6140	3.6142	1.1283	25.32	-0.39	0.750			
0.7005	44834.24	3.6110	3.6104	1.1509	25.33	-0.38	0.750	0.338	0.493	
0.7040	45057.53	3.6080	3.6083	1.1796	25.33	-0.38	0.750			
0.7076	45287.63	3.6050	3.6053	1.1813	25.33	-0.38	0.750			
0.7112	45517.00	3.6020	3.6022	1.2007	25.33	-0.38	0.750			
0.7148	45746.53	3.5990	3.5993	1.2399	25.34	-0.37	0.750			
0.7185	45986.08	3.5960	3.5960	1.2478	25.34	-0.37	0.750			
0.7222	46222.45	3.5930	3.5933	1.2918	25.34	-0.37	0.750	0.335	0.490	
0.7263	46482.56	3.5900	3.5902	1.3198	25.35	-0.36	0.750			
0.7305	46750.09	3.5870	3.5869	1.3346	25.35	-0.36	0.750			
0.7345	47007.43	3.5840	3.5843	1.3968	25.35	-0.36	0.750			
0.7385	47261.04	3.5810	3.5816	1.4471	25.35	-0.36	0.750	0.285	0.477	
0.7430	47550.58	3.5780	3.5784	1.5109	25.35	-0.36	0.750			
0.7476	47848.29	3.5750	3.5756	1.5521	25.35	-0.36	0.750			
0.7525	48158.42	3.5720	3.5721	1.6091	25.35	-0.36	0.750			
0.7576	48489.58	3.5690	3.5693	1.6639	25.35	-0.36	0.750			
0.7624	48795.96	3.5660	3.5665	1.6453	25.35	-0.36	0.750	0.346	0.507	
0.7675	49120.07	3.5630	3.5633	1.6395	25.35	-0.36	0.750			
0.7723	49424.54	3.5600	3.5599	1.6605	25.35	-0.36	0.750			
0.7775	49758.01	3.5570	3.5576	1.6810	25.36	-0.35	0.750			
0.7825	50080.89	3.5540	3.5545	1.7064	25.36	-0.35	0.750	0.306	0.493	
0.7878	50417.47	3.5510	3.5509	1.7203	25.36	-0.35	0.750			
0.7932	50767.37	3.5480	3.5484	1.6791	25.37	-0.34	0.750			
0.7985	51107.18	3.5450	3.5452	1.5805	25.38	-0.33	0.750	0.288	0.485	
0.8033	51413.71	3.5420	3.5427	1.3636	25.38	-0.33	0.750			
0.8073	51669.58	3.5390	3.5391	1.1580	25.39	-0.32	0.750			
0.8106	51878.54	3.5360	3.5361	0.9610	25.41	-0.30	0.750			
0.8128	52020.25	3.5330	3.5328	0.7302	25.42	-0.29	0.750			
0.8143	52116.00	3.5300	3.5298	0.5727	25.43	-0.28	0.750			
0.8157	52204.26	3.5270	3.5268	0.4521	25.44	-0.27	0.750			
0.8168	52276.68	3.5240	3.5242	0.3947	25.45	-0.26	0.750			
0.8179	52344.65	3.5210	3.5210	0.3591	25.45	-0.26	0.750			
0.8188	52406.13	3.5180	3.5182	0.3371	25.46	-0.25	0.750			
0.8198	52467.86	3.5150	3.5151	0.3246	25.46	-0.25	0.750			
0.8208	52529.22	3.5120	3.5125	0.3145	25.47	-0.24	0.750	0.293	0.498	
0.8217	52589.58	3.5090	3.5093	0.3033	25.47	-0.24	0.750			
0.8226	52648.31	3.5060	3.5061	0.2963	25.48	-0.23	0.750			
0.8235	52702.69	3.5030	3.5031	0.2851	25.48	-0.23	0.750			
0.8243	52754.18	3.5000	3.4999	0.2706	25.49	-0.22	0.750			
0.8251	52805.41	3.4970	3.4970	0.2659	25.49	-0.22	0.750			
0.8259	52855.63	3.4940	3.4941	0.2617	25.50	-0.21	0.750			
0.8267	52905.93	3.4910	3.4911	0.2598	25.50	-0.21	0.750			
0.8275	52957.32	3.4880	3.4879	0.2542	25.51	-0.20	0.750			
0.8282	53005.50	3.4850	3.4849	0.2466	25.51	-0.20	0.750			
0.8289	53052.39	3.4820	3.4820	0.2387	25.51	-0.20	0.750			
0.8296	53097.17	3.4790	3.4792	0.2324	25.52	-0.19	0.750			
0.8303	53140.68	3.4760	3.4764	0.2271	25.52	-0.19	0.750			
0.8310	53183.53	3.4730	3.4734	0.2199	25.53	-0.18	0.750			
0.8316	53223.74	3.4700	3.4687	0.2170	25.53	-0.18	0.750			
0.8323	53264.40	3.4670	3.4681	0.2151	25.53	-0.18	0.750			
0.8329	53305.56	3.4640	3.4645	0.2159	25.54	-0.17	0.750			
0.8335	53346.78	3.4610	3.4611	0.2175	25.54	-0.17	0.750			
0.8342	53387.62	3.4580	3.4579	0.2221	25.55	-0.16	0.750			
0.8349	53431.05	3.4550	3.4538	0.2194	25.55	-0.16	0.750			
0.8355	53474.01	3.4520	3.4536	0.2166	25.55	-0.16	0.750			
0.8362	53517.31	3.4490	3.4490	0.2129	25.56	-0.15	0.750			
0.8368	53558.36	3.4460	3.4466	0.2080	25.56	-0.15	0.750			
0.8375	53597.40	3.4430	3.4425	0.2031	25.57	-0.14	0.750			
0.8380	53633.65	3.4400	3.4410	0.2025	25.57	-0.14	0.750			
0.8386	53673.18	3.4370	3.4381	0.1994	25.57	-0.14	0.750			
0.8392	53710.63	3.4340	3.4339	0.1983	25.58	-0.13	0.750			
0.8399	53751.34	3.4310	3.4317	0.1974	25.58	-0.13	0.750			
0.8405	53789.64	3.4280	3.4288	0.1927	25.59	-0.12	0.750	0.346	0.551	
0.8411	53827.50	3.4250	3.4230	0.1894	25.59	-0.12	0.750			
0.8416	53860.72	3.4220	3.4221	0.1865	25.59	-0.12	0.750			
0.8421	53894.59	3.4190	3.4178	0.1838	25.60	-0.11	0.750			
0.8427	53930.09	3.4160	3.4163	0.1860	25.60	-0.11	0.750			
0.8432	53967.17	3.4130	3.4136	0.1918	25.60	-0.11	0.750			
0.8438	54004.08	3.4100	3.4109	0.1890	25.61	-0.10	0.750			
0.8444	54042.74	3.4070	3.4074	0.1895	25.61	-0.10	0.750			
0.8450	54078.87	3.4040	3.4043	0.1835	25.61	-0.10	0.750			
0.8455	54113.88	3.4010	3.4010	0.1773	25.62	-0.09	0.750			
0.8460	54147.12	3.3980	3.3980	0.1715	25.62	-0.09	0.750			
0.8465	54178.70	3.3950	3.3950	0.1671	25.63	-0.08	0.750			
0.8470	54209.60	3.3920	3.3919	0.1621	25.63	-0.08	0.750			
0.8475	54240.49	3.3890	3.3890	0.1597	25.63	-0.08	0.750			
0.8480	54270.68	3.3860	3.3858	0.1580	25.64	-0.07	0.750			
0.8485	54300.84	3.3830	3.3831	0.1557	25.64	-0.07	0.750			
0.8489	54331.01	3.3800	3.3799	0.1537	25.65	-0.06	0.750			
0.8494	54360.25	3.3770	3.3770	0.1508	25.65	-0.06	0.750			
0.8498	54388.93	3.3740	3.3741	0.1491	25.65	-0.06	0.750			
0.8503	54417.02	3.3710	3.3711	0.1467	25.66	-0.05	0.750			
0.8507	54445.30	3.3680	3.3680	0.1446	25.66	-0.05	0.750			
0.8511	54472.82	3.3650	3.3649	0.1421	25.66	-0.05	0.750			
0.8516	54499.67	3.3620	3.3620	0.1397	25.67	-0.04	0.750			
0.8520	54526.46	3.3590	3.3591	0.1378	25.67	-0.04	0.750			
0.8524	54552.88	3.3560	3.3560	0.1356	25.67	-0.04	0.750			
0.8528	54578.58	3.3530	3.3529	0.1330	25.68	-0.03	0.750			
0.8532	54603.55	3.3500	3.3501	0.1302	25.68	-0.03	0.750			
0.8536	54628.27	3.3470	3.3471	0.1282	25.68	-0.03	0.750			
0.8540	54652.90	3.3440	3.3440	0.1265	25.69	-0.02	0.750			
0.8543	54677.07	3.3410	3.3410	0.1236	25.69	-0.02	0.750			
0.8547	54700.51	3.3380	3.3380	0.1208	25.69	-0.02	0.750			
0.8551	54723.86	3.3350	3.3351	0.1174	25.70	-0.01	0.750			
0.8554	54746.03	3.3320	3.3320	0.1136	25.70	-0.01	0.750			
0.8557	54767.11	3.3290	3.3291	0.1123	25.70	-0.01	0.750			
0.8561	54788.41	3.3260	3.3261	0.1102	25.71	-0.00	0.750			
0.8564	54808.92	3.3230	3.3232	0.1073	25.71	-0.00	0.750			
0.8567	54829.59	3.3200	3.3192	0.1054	25.71	0.00	0.750			
0.8570	54849.73	3.3170	3.3171	0.1038	25.71	0.00	0.750			
0.8573	54869.64	3.3140	3.3141	0.1014	25.72	0.01	0.750			
0.8576	54889.57	3.3110	3.3108	0.1001	25.72	0.01	0.750			
0.8579	54908.41	3.3080	3.3080	0.0967	25.72	0.01	0.750			
0.8582	54926.32	3.3050	3.3050	0.0927	25.72	0.01	0.750			
0.8585	54943.84	3.3020	3.3021	0.0898	25.73	0.02	0.750			
0.8588	54961.83	3.2990	3.2990	0.0848	25.73	0.02	0.750			
0.8590	54977.59	3.2960	3.2960	0.0793	25.73	0.02	0.750			
0.8593	54992.97	3.2930	3.2931	0.0744	25.73	0.02	0.750			
0.8595	55006.02	3.2900	3.2904	0.0697	25.73	0.02	0.750			
0.8597	55018.69	3.2870	3.2877	0.0641	25.73	0.02	0.750			
0.8599	55030.52	3.2840	3.2852	0.0591	25.74	0.03	0.750			
0.8600	55040.38	3.2810	3.2828	0.0532	25.74	0.03	0.750			
0.8602	55050.24	3.2780	3.2795	0.0496	25.74	0.03	0.750			
0.8603	55059.41	3.2750	3.2777	0.0460	25.74	0.03	0.750			
0.8604	55067.89	3.2720	3.2750	0.0424	25.74	0.03	0.750			
0.8606	55075.67	3.2690	3.2712	0.0387	25.74	0.03	0.750			
