Ah_balance (normalized)	Ah_balance (mAh)	Voltage - fit (V)	Voltage -  interpolate (V)	dQ/dV (1/V)	Temperature (°C)	Temperature - diff (°C)	Current (C)	R_DC 0ms (mOhm)	R_DC 50ms (mOhm)	R_DC 50 ms PEC (mOhm)
0.0005	29.64	4.1620	4.1618	-0.1496	25.22	0.02	-0.750			
0.0010	61.98	4.1590	4.1591	-0.1919	25.22	0.02	-0.750			
0.0016	102.77	4.1560	4.1558	-0.2368	25.22	0.02	-0.750			
0.0024	153.21	4.1530	4.1531	-0.2799	25.22	0.02	-0.750			
0.0033	211.08	4.1500	4.1500	-0.3233	25.21	0.01	-0.750			
0.0043	277.74	4.1470	4.1470	-0.3628	25.21	0.01	-0.750			
0.0055	352.57	4.1440	4.1441	-0.4014	25.21	0.01	-0.750			
0.0068	433.06	4.1410	4.1410	-0.4398	25.21	0.01	-0.750			
0.0081	521.54	4.1380	4.1379	-0.4727	25.21	0.01	-0.750			
0.0096	615.62	4.1350	4.1350	-0.5054	25.20	0.00	-0.750			
0.0112	717.44	4.1320	4.1319	-0.5324	25.20	0.00	-0.750			
0.0129	824.41	4.1290	4.1290	-0.5551	25.20	-0.00	-0.750			
0.0146	934.79	4.1260	4.1260	-0.5719	25.20	-0.00	-0.750			
0.0163	1046.01	4.1230	4.1231	-0.5905	25.19	-0.01	-0.750			
0.0181	1158.51	4.1200	4.1200	-0.6104	25.19	-0.01	-0.750			
0.0200	1278.31	4.1170	4.1169	-0.6328	25.19	-0.01	-0.750			
0.0219	1401.68	4.1140	4.1138	-0.6479	25.18	-0.02	-0.750			
0.0239	1529.61	4.1110	4.1110	-0.6641	25.18	-0.02	-0.750			
0.0260	1662.37	4.1080	4.1079	-0.6783	25.18	-0.02	-0.750			
0.0280	1793.40	4.1050	4.1050	-0.6814	25.18	-0.02	-0.750			
0.0300	1922.61	4.1020	4.1020	-0.6844	25.18	-0.02	-0.750			
0.0321	2053.94	4.0990	4.0990	-0.6897	25.17	-0.03	-0.750			
0.0342	2188.66	4.0960	4.0959	-0.6974	25.17	-0.03	-0.750			
0.0363	2323.35	4.0930	4.0930	-0.7032	25.17	-0.03	-0.750			
0.0384	2459.11	4.0900	4.0899	-0.7119	25.17	-0.03	-0.750			
0.0406	2596.17	4.0870	4.0870	-0.7177	25.16	-0.04	-0.750			
0.0427	2733.44	4.0840	4.0840	-0.7237	25.16	-0.04	-0.750			
0.0449	2872.65	4.0810	4.0810	-0.7294	25.16	-0.04	-0.750			
0.0471	3016.19	4.0780	4.0780	-0.7352	25.15	-0.05	-0.750			
0.0494	3158.42	4.0750	4.0750	-0.7351	25.15	-0.05	-0.750			
0.0516	3299.56	4.0720	4.0721	-0.7389	25.15	-0.05	-0.750			
0.0537	3437.72	4.0690	4.0691	-0.7538	25.15	-0.05	-0.750			
0.0560	3584.51	4.0660	4.0659	-0.7510	25.14	-0.06	-0.750			
0.0583	3729.74	4.0630	4.0629	-0.7553	25.14	-0.06	-0.750			
0.0606	3877.47	4.0600	4.0602	-0.7605	25.14	-0.06	-0.750			
0.0629	4023.80	4.0570	4.0567	-0.7660	25.14	-0.06	-0.750			
0.0652	4172.19	4.0540	4.0539	-0.7674	25.14	-0.06	-0.750			
0.0675	4317.81	4.0510	4.0509	-0.7726	25.14	-0.06	-0.750			
0.0698	4467.13	4.0480	4.0480	-0.7573	25.14	-0.06	-0.750			
0.0722	4618.49	4.0450	4.0449	-0.7691	25.14	-0.06	-0.750			
0.0744	4763.48	4.0420	4.0424	-0.7593	25.14	-0.06	-0.750			
0.0767	4908.17	4.0390	4.0390	-0.7570	25.14	-0.06	-0.750			
0.0789	5051.05	4.0360	4.0357	-0.7509	25.14	-0.06	-0.750			
0.0811	5193.60	4.0330	4.0331	-0.7516	25.15	-0.05	-0.750			
0.0834	5339.60	4.0300	4.0298	-0.7606	25.15	-0.05	-0.750			
0.0857	5486.52	4.0270	4.0270	-0.7648	25.15	-0.05	-0.750			
0.0880	5632.65	4.0240	4.0241	-0.7639	25.15	-0.05	-0.750			
0.0903	5779.36	4.0210	4.0210	-0.7683	25.15	-0.05	-0.750			
0.0926	5926.44	4.0180	4.0179	-0.7859	25.16	-0.04	-0.750			
0.0950	6083.09	4.0150	4.0149	-0.7842	25.16	-0.04	-0.750			
0.0974	6235.69	4.0120	4.0118	-0.7876	25.17	-0.03	-0.750			
0.0998	6389.72	4.0090	4.0096	-0.7824	25.17	-0.03	-0.750			
0.1022	6538.00	4.0060	4.0060	-0.7769	25.17	-0.03	-0.750			
0.1044	6682.09	4.0030	4.0029	-0.7750	25.17	-0.03	-0.750			
0.1067	6828.62	4.0000	3.9999	-0.7770	25.17	-0.03	-0.750			
0.1091	6980.73	3.9970	3.9969	-0.7848	25.17	-0.03	-0.750			
0.1114	7132.58	3.9940	3.9938	-0.7872	25.17	-0.03	-0.750			
0.1138	7284.78	3.9910	3.9910	-0.7865	25.17	-0.03	-0.750			
0.1162	7436.53	3.9880	3.9879	-0.7901	25.17	-0.03	-0.750			
0.1185	7583.53	3.9850	3.9851	-0.7897	25.18	-0.02	-0.750			
0.1208	7732.71	3.9820	3.9820	-0.7991	25.18	-0.02	-0.750			
0.1233	7889.37	3.9790	3.9790	-0.8186	25.18	-0.02	-0.750			
0.1258	8050.13	3.9760	3.9759	-0.8308	25.18	-0.02	-0.750			
0.1283	8213.55	3.9730	3.9730	-0.8434	25.18	-0.02	-0.750			
0.1309	8379.29	3.9700	3.9700	-0.8446	25.18	-0.02	-0.750			
0.1335	8544.75	3.9670	3.9670	-0.8376	25.19	-0.01	-0.750			
0.1360	8704.16	3.9640	3.9638	-0.8291	25.19	-0.01	-0.750			
0.1384	8859.29	3.9610	3.9609	-0.8182	25.19	-0.01	-0.750			
0.1408	9013.08	3.9580	3.9580	-0.8225	25.19	-0.01	-0.750			
0.1433	9170.55	3.9550	3.9548	-0.8195	25.19	-0.01	-0.750			
0.1458	9328.97	3.9520	3.9520	-0.8334	25.20	-0.00	-0.750			
0.1483	9491.17	3.9490	3.9489	-0.8311	25.20	-0.00	-0.750			
0.1508	9650.99	3.9460	3.9460	-0.8290	25.20	0.00	-0.750			
0.1533	9808.42	3.9430	3.9430	-0.8299	25.21	0.01	-0.750			
0.1558	9968.24	3.9400	3.9401	-0.8263	25.21	0.01	-0.750			
0.1582	10123.75	3.9370	3.9369	-0.8226	25.21	0.01	-0.750			
0.1607	10284.31	3.9340	3.9340	-0.8343	25.22	0.02	-0.750			
0.1632	10443.60	3.9310	3.9309	-0.8343	25.22	0.02	-0.750			
0.1657	10606.02	3.9280	3.9280	-0.8503	25.22	0.02	-0.750			
0.1683	10771.41	3.9250	3.9250	-0.8547	25.22	0.02	-0.750			
0.1709	10938.44	3.9220	3.9218	-0.8514	25.22	0.02	-0.750			
0.1735	11104.45	3.9190	3.9188	-0.8513	25.22	0.02	-0.750			
0.1760	11265.08	3.9160	3.9158	-0.8466	25.22	0.02	-0.750			
0.1785	11425.08	3.9130	3.9130	-0.8491	25.23	0.03	-0.750			
0.1810	11585.31	3.9100	3.9099	-0.8475	25.24	0.04	-0.750			
0.1836	11750.28	3.9070	3.9069	-0.8593	25.24	0.04	-0.750			
0.1862	11917.11	3.9040	3.9040	-0.8564	25.25	0.05	-0.750			
0.1888	12082.70	3.9010	3.9010	-0.8559	25.25	0.05	-0.750			
0.1914	12247.03	3.8980	3.8979	-0.8578	25.25	0.05	-0.750			
0.1939	12412.25	3.8950	3.8951	-0.8466	25.25	0.05	-0.750			
0.1964	12570.43	3.8920	3.8919	-0.8458	25.25	0.05	-0.750			
0.1990	12734.07	3.8890	3.8889	-0.8519	25.25	0.05	-0.750			
0.2015	12893.95	3.8860	3.8859	-0.8697	25.25	0.05	-0.750			
0.2041	13063.94	3.8830	3.8829	-0.8705	25.26	0.06	-0.750			
0.2068	13233.65	3.8800	3.8800	-0.8645	25.26	0.06	-0.750			
0.2094	13398.71	3.8770	3.8769	-0.8640	25.27	0.07	-0.750			
0.2120	13569.79	3.8740	3.8746	-0.8731	25.27	0.07	-0.750			
0.2146	13733.98	3.8710	3.8709	-0.8649	25.27	0.07	-0.750			
0.2172	13899.07	3.8680	3.8679	-0.8787	25.27	0.07	-0.750			
0.2198	14067.45	3.8650	3.8649	-0.8871	25.27	0.07	-0.750			
0.2226	14243.73	3.8620	3.8618	-0.8981	25.27	0.07	-0.750			
0.2253	14416.08	3.8590	3.8594	-0.8944	25.27	0.07	-0.750			
0.2279	14587.84	3.8560	3.8559	-0.8903	25.28	0.08	-0.750			
0.2306	14760.18	3.8530	3.8528	-0.8784	25.28	0.08	-0.750			
0.2332	14922.76	3.8500	3.8501	-0.8563	25.28	0.08	-0.750			
0.2358	15089.96	3.8470	3.8470	-0.8625	25.29	0.09	-0.750			
0.2384	15254.89	3.8440	3.8440	-0.8576	25.29	0.09	-0.750			
0.2409	15420.34	3.8410	3.8409	-0.8615	25.30	0.10	-0.750			
0.2435	15583.29	3.8380	3.8380	-0.8552	25.30	0.10	-0.750			
0.2461	15747.98	3.8350	3.8350	-0.8534	25.30	0.10	-0.750			
0.2487	15914.33	3.8320	3.8319	-0.8564	25.31	0.11	-0.750			
0.2512	16078.88	3.8290	3.8288	-0.8473	25.31	0.11	-0.750			
0.2538	16240.73	3.8260	3.8259	-0.8451	25.32	0.12	-0.750			
0.2563	16400.72	3.8230	3.8231	-0.8409	25.32	0.12	-0.750			
0.2588	16560.39	3.8200	3.8200	-0.8322	25.32	0.12	-0.750			
0.2613	16723.29	3.8170	3.8170	-0.8362	25.33	0.13	-0.750			
0.2638	16883.18	3.8140	3.8139	-0.8348	25.33	0.13	-0.750			
0.2663	17043.93	3.8110	3.8108	-0.8356	25.34	0.14	-0.750			
0.2688	17205.81	3.8080	3.8080	-0.8308	25.34	0.14	-0.750			
0.2713	17363.73	3.8050	3.8050	-0.8183	25.34	0.14	-0.750			
0.2738	17523.18	3.8020	3.8020	-0.8166	25.35	0.15	-0.750			
0.2762	17679.53	3.7990	3.7989	-0.8127	25.35	0.15	-0.750			
0.2786	17829.61	3.7960	3.7959	-0.8119	25.36	0.16	-0.750			
0.2810	17986.70	3.7930	3.7929	-0.8045	25.36	0.16	-0.750			
0.2835	18141.42	3.7900	3.7900	-0.7990	25.36	0.16	-0.750			
0.2859	18297.84	3.7870	3.7869	-0.8036	25.37	0.17	-0.750			
0.2883	18451.41	3.7840	3.7839	-0.7980	25.37	0.17	-0.750			
0.2907	18601.73	3.7810	3.7809	-0.7927	25.37	0.17	-0.750			
0.2930	18753.25	3.7780	3.7780	-0.7864	25.37	0.17	-0.750			
0.2953	18901.75	3.7750	3.7751	-0.7803	25.38	0.18	-0.750			
0.2977	19055.07	3.7720	3.7719	-0.7931	25.38	0.18	-0.750			
0.3001	19207.74	3.7690	3.7692	-0.7880	25.38	0.18	-0.750			
0.3025	19357.44	3.7660	3.7659	-0.7864	25.38	0.18	-0.750			
0.3048	19509.60	3.7630	3.7631	-0.7867	25.38	0.18	-0.750			
0.3072	19661.06	3.7600	3.7599	-0.7860	25.39	0.19	-0.750			
0.3095	19811.01	3.7570	3.7570	-0.7967	25.39	0.19	-0.750			
0.3119	19962.37	3.7540	3.7542	-0.8046	25.39	0.19	-0.750			
0.3143	20115.87	3.7510	3.7508	-0.8087	25.39	0.19	-0.750			
0.3168	20274.58	3.7480	3.7480	-0.8273	25.39	0.19	-0.750			
0.3193	20434.82	3.7450	3.7450	-0.8329	25.40	0.20	-0.750			
0.3218	20596.23	3.7420	3.7418	-0.8428	25.40	0.20	-0.750			
0.3244	20760.47	3.7390	3.7393	-0.8517	25.40	0.20	-0.750			
0.3269	20920.66	3.7360	3.7359	-0.8722	25.40	0.20	-0.750			
0.3295	21089.05	3.7330	3.7330	-0.8766	25.40	0.20	-0.750			
0.3322	21261.48	3.7300	3.7299	-0.8830	25.40	0.20	-0.750			
0.3349	21432.12	3.7270	3.7270	-0.9030	25.40	0.20	-0.750			
0.3376	21605.52	3.7240	3.7243	-0.9140	25.40	0.20	-0.750			
0.3403	21781.06	3.7210	3.7209	-0.9276	25.40	0.20	-0.750			
0.3431	21959.96	3.7180	3.7179	-0.9378	25.40	0.20	-0.750			
0.3459	22139.60	3.7150	3.7150	-0.9521	25.40	0.20	-0.750			
0.3489	22326.86	3.7120	3.7121	-0.9771	25.40	0.20	-0.750			
0.3518	22516.42	3.7090	3.7089	-1.0028	25.40	0.20	-0.750			
0.3549	22712.68	3.7060	3.7059	-1.0074	25.39	0.19	-0.750			
0.3579	22907.93	3.7030	3.7029	-1.0234	25.39	0.19	-0.750			
0.3610	23105.93	3.7000	3.7002	-1.0338	25.38	0.18	-0.750	0.372	0.491	
0.3642	23307.39	3.6970	3.6968	-1.0562	25.38	0.18	-0.750			
0.3673	23508.96	3.6940	3.6939	-1.0661	25.38	0.18	-0.750			
0.3705	23710.90	3.6910	3.6910	-1.0802	25.37	0.17	-0.750			
0.3738	23920.35	3.6880	3.6881	-1.1076	25.37	0.17	-0.750			
0.3772	24140.86	3.6850	3.6849	-1.1418	25.37	0.17	-0.750			
0.3806	24358.05	3.6820	3.6820	-1.1630	25.36	0.16	-0.750			
0.3843	24593.67	3.6790	3.6788	-1.1539	25.35	0.15	-0.750			
0.3878	24816.76	3.6760	3.6760	-1.1393	25.35	0.15	-0.750			
0.3912	25038.22	3.6730	3.6732	-1.1344	25.34	0.14	-0.750			
0.3944	25244.75	3.6700	3.6706	-1.1445	25.33	0.13	-0.750			
0.3977	25452.20	3.6670	3.6665	-1.1713	25.32	0.12	-0.750			
0.4012	25675.87	3.6640	3.6636	-1.1955	25.32	0.12	-0.750			
0.4048	25910.22	3.6610	3.6610	-1.2497	25.31	0.11	-0.750			
0.4089	26167.84	3.6580	3.6579	-1.3246	25.31	0.11	-0.750			
0.4128	26421.53	3.6550	3.6554	-1.3521	25.30	0.10	-0.750			
0.4171	26696.25	3.6520	3.6519	-1.3953	25.29	0.09	-0.750			
0.4213	26962.00	3.6490	3.6490	-1.4308	25.28	0.08	-0.750			
0.4256	27236.17	3.6460	3.6462	-1.4594	25.27	0.07	-0.750			
0.4301	27523.64	3.6430	3.6429	-1.4988	25.26	0.06	-0.750			
0.4347	27818.60	3.6400	3.6397	-1.5053	25.25	0.05	-0.750			
0.4392	28111.27	3.6370	3.6368	-1.5223	25.25	0.05	-0.750			
0.4438	28405.94	3.6340	3.6337	-1.5616	25.23	0.03	-0.750			
0.4486	28707.67	3.6310	3.6307	-1.5582	25.22	0.02	-0.750			
0.4533	29008.99	3.6280	3.6280	-1.5876	25.21	0.01	-0.750			
0.4579	29305.99	3.6250	3.6249	-1.6140	25.21	0.01	-0.750			
0.4629	29622.53	3.6220	3.6220	-1.6519	25.20	-0.00	-0.750			
0.4679	29947.84	3.6190	3.6190	-1.7314	25.19	-0.01	-0.750			
0.4731	30277.83	3.6160	3.6160	-1.7425	25.18	-0.02	-0.750			
0.4784	30619.08	3.6130	3.6132	-1.7796	25.18	-0.02	-0.750			
0.4840	30974.13	3.6100	3.6104	-1.7907	25.17	-0.03	-0.750			
0.4893	31317.99	3.6070	3.6066	-1.8103	25.16	-0.04	-0.750			
0.4949	31671.82	3.6040	3.6035	-1.8852	25.15	-0.05	-0.750			
0.5006	32039.22	3.6010	3.6008	-1.9199	25.14	-0.06	-0.750			
0.5065	32417.63	3.5980	3.5979	-1.9775	25.13	-0.07	-0.750			
0.5123	32788.71	3.5950	3.5955	-2.0319	25.12	-0.08	-0.750			
0.5187	33198.96	3.5920	3.5914	-2.0549	25.12	-0.08	-0.750			
0.5247	33583.06	3.5890	3.5890	-2.0785	25.12	-0.08	-0.750			
0.5310	33985.49	3.5860	3.5867	-2.1110	25.11	-0.09	-0.750			
0.5375	34402.71	3.5830	3.5827	-2.1668	25.10	-0.10	-0.750			
0.5441	34823.11	3.5800	3.5801	-2.1425	25.09	-0.11	-0.750			
0.5503	35221.40	3.5770	3.5773	-2.1721	25.09	-0.11	-0.750			
0.5570	35645.03	3.5740	3.5745	-2.2027	25.09	-0.11	-0.750			
0.5637	36077.50	3.5710	3.5707	-2.2062	25.09	-0.11	-0.750			
0.5706	36519.92	3.5680	3.5675	-2.2375	25.08	-0.12	-0.750			
0.5772	36942.05	3.5650	3.5653	-2.2105	25.08	-0.12	-0.750			
0.5841	37380.16	3.5620	3.5622	-2.1897	25.07	-0.13	-0.750			
0.5904	37788.45	3.5590	3.5591	-2.1798	25.07	-0.13	-0.750			
0.5968	38197.88	3.5560	3.5562	-2.2225	25.07	-0.13	-0.750			
0.6037	38637.45	3.5530	3.5529	-2.1755	25.07	-0.13	-0.750			
0.6104	39068.14	3.5500	3.5502	-2.1767	25.07	-0.13	-0.750			
0.6171	39491.76	3.5470	3.5465	-2.1665	25.07	-0.13	-0.750			
0.6235	39902.78	3.5440	3.5441	-2.1160	25.08	-0.12	-0.750			
0.6298	40309.69	3.5410	3.5411	-2.0466	25.08	-0.12	-0.750			
0.6360	40704.29	3.5380	3.5386	-2.0555	25.08	-0.12	-0.750			
0.6419	41078.57	3.5350	3.5352	-2.0069	25.09	-0.11	-0.750			
0.6480	41473.72	3.5320	3.5319	-1.9923	25.10	-0.10	-0.750			
0.6541	41861.11	3.5290	3.5290	-1.9359	25.11	-0.09	-0.750			
0.6599	42235.32	3.5260	3.5263	-1.8915	25.12	-0.08	-0.750			
0.6654	42588.79	3.5230	3.5231	-1.8131	25.13	-0.07	-0.750			
0.6707	42925.24	3.5200	3.5202	-1.7371	25.14	-0.06	-0.750			
0.6756	43241.57	3.5170	3.5171	-1.7002	25.15	-0.05	-0.750			
0.6807	43565.28	3.5140	3.5141	-1.6742	25.16	-0.04	-0.750			
0.6858	43893.66	3.5110	3.5112	-1.6308	25.18	-0.02	-0.750			
0.6909	44219.87	3.5080	3.5078	-1.6170	25.19	-0.01	-0.750			
0.6956	44515.44	3.5050	3.5048	-1.5593	25.21	0.01	-0.750			
0.7002	44811.26	3.5020	3.5024	-1.5100	25.22	0.02	-0.750			
0.7046	45092.62	3.4990	3.4988	-1.4535	25.24	0.04	-0.750			
0.7087	45357.93	3.4960	3.4958	-1.3942	25.26	0.06	-0.750			
0.7128	45620.43	3.4930	3.4935	-1.3664	25.27	0.07	-0.750			
0.7171	45891.57	3.4900	3.4899	-1.2997	25.29	0.09	-0.750			
0.7208	46132.49	3.4870	3.4870	-1.1848	25.30	0.10	-0.750			
