Ah_balance (normalized)	Ah_balance (mAh)	Voltage - fit (V)	Voltage -  interpolate (V)	dQ/dV (1/V)	Temperature (°C)	Temperature - diff (°C)	Current (C)	R_DC 0ms (mOhm)	R_DC 50ms (mOhm)	R_DC 50 ms PEC (mOhm)
0.0004	23.72	4.1600	4.1600	-0.1122	25.48	0.01	-0.750			
0.0008	52.29	4.1570	4.1568	-0.1646	25.48	0.01	-0.750			
0.0014	88.45	4.1540	4.1539	-0.2081	25.48	0.01	-0.750			
0.0021	133.49	4.1510	4.1510	-0.2495	25.48	0.01	-0.750			
0.0029	185.47	4.1480	4.1480	-0.2893	25.48	0.01	-0.750			
0.0038	246.12	4.1450	4.1450	-0.3297	25.47	0.00	-0.750			
0.0049	313.43	4.1420	4.1420	-0.3645	25.47	0.00	-0.750			
0.0061	387.30	4.1390	4.1389	-0.3981	25.47	-0.00	-0.750			
0.0073	466.83	4.1360	4.1360	-0.4331	25.47	-0.00	-0.750			
0.0086	552.16	4.1330	4.1331	-0.4678	25.46	-0.01	-0.750			
0.0101	647.68	4.1300	4.1299	-0.4936	25.46	-0.01	-0.750			
0.0117	745.63	4.1270	4.1269	-0.5268	25.46	-0.01	-0.750			
0.0133	851.53	4.1240	4.1241	-0.5469	25.45	-0.02	-0.750			
0.0150	959.27	4.1210	4.1211	-0.5675	25.45	-0.02	-0.750			
0.0167	1071.34	4.1180	4.1177	-0.5847	25.44	-0.03	-0.750			
0.0185	1184.42	4.1150	4.1152	-0.5970	25.44	-0.03	-0.750			
0.0203	1299.68	4.1120	4.1119	-0.6089	25.44	-0.03	-0.750			
0.0222	1419.03	4.1090	4.1091	-0.6251	25.44	-0.03	-0.750			
0.0241	1539.22	4.1060	4.1060	-0.6348	25.44	-0.03	-0.750			
0.0260	1665.17	4.1030	4.1030	-0.6483	25.43	-0.04	-0.750			
0.0280	1790.41	4.1000	4.1000	-0.6559	25.43	-0.04	-0.750			
0.0300	1918.05	4.0970	4.0971	-0.6629	25.43	-0.04	-0.750			
0.0320	2046.44	4.0940	4.0940	-0.6714	25.43	-0.04	-0.750			
0.0340	2175.47	4.0910	4.0909	-0.6784	25.43	-0.04	-0.750			
0.0360	2305.11	4.0880	4.0881	-0.6867	25.43	-0.04	-0.750			
0.0381	2438.08	4.0850	4.0850	-0.6956	25.42	-0.05	-0.750			
0.0402	2575.28	4.0820	4.0818	-0.7043	25.42	-0.05	-0.750			
0.0424	2710.62	4.0790	4.0789	-0.7079	25.42	-0.05	-0.750			
0.0445	2847.65	4.0760	4.0760	-0.7134	25.42	-0.05	-0.750			
0.0466	2984.35	4.0730	4.0730	-0.7128	25.42	-0.05	-0.750			
0.0488	3123.04	4.0700	4.0699	-0.7243	25.42	-0.05	-0.750			
0.0510	3263.14	4.0670	4.0669	-0.7188	25.42	-0.05	-0.750			
0.0532	3402.14	4.0640	4.0639	-0.7230	25.42	-0.05	-0.750			
0.0553	3540.41	4.0610	4.0616	-0.7260	25.42	-0.05	-0.750			
0.0575	3679.65	4.0580	4.0579	-0.7252	25.42	-0.05	-0.750			
0.0596	3816.51	4.0550	4.0549	-0.7360	25.42	-0.05	-0.750			
0.0618	3957.76	4.0520	4.0521	-0.7351	25.43	-0.04	-0.750			
0.0641	4103.23	4.0490	4.0489	-0.7498	25.43	-0.04	-0.750			
0.0664	4247.78	4.0460	4.0460	-0.7474	25.43	-0.04	-0.750			
0.0686	4391.08	4.0430	4.0431	-0.7434	25.43	-0.04	-0.750			
0.0708	4533.66	4.0400	4.0400	-0.7417	25.43	-0.04	-0.750			
0.0730	4675.05	4.0370	4.0369	-0.7456	25.43	-0.04	-0.750			
0.0753	4816.82	4.0340	4.0341	-0.7418	25.43	-0.04	-0.750			
0.0775	4962.07	4.0310	4.0309	-0.7505	25.43	-0.04	-0.750			
0.0798	5106.58	4.0280	4.0279	-0.7494	25.43	-0.04	-0.750			
0.0820	5250.31	4.0250	4.0250	-0.7563	25.43	-0.04	-0.750			
0.0842	5391.49	4.0220	4.0220	-0.7701	25.43	-0.04	-0.750			
0.0866	5542.61	4.0190	4.0189	-0.7648	25.43	-0.04	-0.750			
0.0889	5689.68	4.0160	4.0160	-0.7625	25.43	-0.04	-0.750			
0.0913	5840.09	4.0130	4.0128	-0.7688	25.43	-0.04	-0.750			
0.0936	5987.45	4.0100	4.0102	-0.7608	25.43	-0.04	-0.750			
0.0958	6133.16	4.0070	4.0069	-0.7580	25.43	-0.04	-0.750			
0.0980	6275.18	4.0040	4.0040	-0.7531	25.44	-0.03	-0.750			
0.1003	6419.86	4.0010	4.0010	-0.7652	25.44	-0.03	-0.750			
0.1026	6565.25	3.9980	3.9980	-0.7669	25.45	-0.02	-0.750			
0.1049	6713.21	3.9950	3.9949	-0.7696	25.45	-0.02	-0.750			
0.1072	6860.99	3.9920	3.9919	-0.7748	25.45	-0.02	-0.750			
0.1095	7010.63	3.9890	3.9891	-0.7836	25.45	-0.02	-0.750			
0.1119	7162.43	3.9860	3.9859	-0.7828	25.46	-0.01	-0.750			
0.1143	7313.95	3.9830	3.9829	-0.7790	25.46	-0.01	-0.750			
0.1166	7464.77	3.9800	3.9800	-0.7776	25.46	-0.01	-0.750			
0.1190	7613.32	3.9770	3.9772	-0.7764	25.46	-0.01	-0.750			
0.1212	7759.51	3.9740	3.9739	-0.7863	25.46	-0.01	-0.750			
0.1236	7910.81	3.9710	3.9710	-0.7866	25.46	-0.01	-0.750			
0.1260	8062.13	3.9680	3.9679	-0.7888	25.47	-0.00	-0.750			
0.1284	8216.73	3.9650	3.9649	-0.7888	25.47	-0.00	-0.750			
0.1308	8370.62	3.9620	3.9626	-0.7929	25.47	0.00	-0.750			
0.1331	8520.03	3.9590	3.9590	-0.7973	25.47	0.00	-0.750			
0.1355	8671.84	3.9560	3.9558	-0.7955	25.47	0.00	-0.750			
0.1379	8823.69	3.9530	3.9529	-0.7983	25.48	0.01	-0.750			
0.1403	8980.15	3.9500	3.9500	-0.7999	25.48	0.01	-0.750			
0.1427	9135.71	3.9470	3.9471	-0.8037	25.48	0.01	-0.750			
0.1452	9290.45	3.9440	3.9440	-0.8015	25.49	0.02	-0.750			
0.1475	9441.31	3.9410	3.9409	-0.8021	25.49	0.02	-0.750			
0.1499	9594.81	3.9380	3.9379	-0.8022	25.50	0.03	-0.750			
0.1523	9749.77	3.9350	3.9350	-0.8012	25.50	0.03	-0.750			
0.1548	9905.41	3.9320	3.9322	-0.8063	25.51	0.04	-0.750			
0.1572	10061.03	3.9290	3.9289	-0.8077	25.51	0.04	-0.750			
0.1596	10214.60	3.9260	3.9259	-0.8149	25.51	0.04	-0.750			
0.1621	10372.64	3.9230	3.9229	-0.8155	25.51	0.04	-0.750			
0.1645	10529.03	3.9200	3.9200	-0.8073	25.51	0.04	-0.750			
0.1670	10689.09	3.9170	3.9171	-0.8122	25.51	0.04	-0.750			
0.1694	10843.84	3.9140	3.9139	-0.8080	25.51	0.04	-0.750			
0.1718	10994.78	3.9110	3.9110	-0.8054	25.52	0.05	-0.750			
0.1742	11149.50	3.9080	3.9079	-0.8001	25.52	0.05	-0.750			
0.1766	11299.47	3.9050	3.9049	-0.7962	25.52	0.05	-0.750			
0.1790	11457.53	3.9020	3.9021	-0.8096	25.53	0.06	-0.750			
0.1815	11613.66	3.8990	3.8990	-0.8087	25.53	0.06	-0.750			
0.1839	11767.42	3.8960	3.8959	-0.8157	25.54	0.07	-0.750			
0.1863	11926.04	3.8930	3.8930	-0.8131	25.54	0.07	-0.750			
0.1888	12081.37	3.8900	3.8900	-0.8079	25.54	0.07	-0.750			
0.1912	12238.68	3.8870	3.8869	-0.8131	25.55	0.08	-0.750			
0.1937	12394.49	3.8840	3.8841	-0.8067	25.55	0.08	-0.750			
0.1960	12547.09	3.8810	3.8810	-0.8079	25.55	0.08	-0.750			
0.1985	12702.63	3.8780	3.8780	-0.8026	25.55	0.08	-0.750			
0.2009	12855.55	3.8750	3.8750	-0.7931	25.56	0.09	-0.750			
0.2033	13010.99	3.8720	3.8719	-0.7931	25.56	0.09	-0.750			
0.2057	13161.77	3.8690	3.8697	-0.7876	25.56	0.09	-0.750			
0.2080	13311.10	3.8660	3.8661	-0.7800	25.56	0.09	-0.750			
0.2103	13458.75	3.8630	3.8629	-0.7828	25.56	0.09	-0.750			
0.2126	13608.57	3.8600	3.8600	-0.7815	25.57	0.10	-0.750			
0.2150	13760.96	3.8570	3.8570	-0.7856	25.57	0.10	-0.750			
0.2174	13913.31	3.8540	3.8540	-0.7846	25.57	0.10	-0.750			
0.2197	14062.99	3.8510	3.8511	-0.7836	25.57	0.10	-0.750			
0.2221	14211.70	3.8480	3.8480	-0.7812	25.57	0.10	-0.750			
0.2244	14361.72	3.8450	3.8450	-0.7761	25.58	0.11	-0.750			
0.2267	14510.09	3.8420	3.8420	-0.7682	25.58	0.11	-0.750			
0.2290	14659.17	3.8390	3.8390	-0.7689	25.58	0.11	-0.750			
0.2313	14805.71	3.8360	3.8361	-0.7634	25.58	0.11	-0.750			
0.2335	14946.59	3.8330	3.8331	-0.7727	25.58	0.11	-0.750			
0.2359	15095.40	3.8300	3.8300	-0.7671	25.58	0.11	-0.750			
0.2382	15245.77	3.8270	3.8268	-0.7632	25.59	0.12	-0.750			
0.2405	15394.42	3.8240	3.8239	-0.7598	25.59	0.12	-0.750			
0.2428	15540.75	3.8210	3.8216	-0.7617	25.59	0.12	-0.750			
0.2451	15685.54	3.8180	3.8180	-0.7535	25.59	0.12	-0.750			
0.2473	15827.01	3.8150	3.8148	-0.7532	25.60	0.13	-0.750			
0.2495	15971.14	3.8120	3.8121	-0.7496	25.60	0.13	-0.750			
0.2518	16115.17	3.8090	3.8090	-0.7599	25.60	0.13	-0.750			
0.2541	16262.18	3.8060	3.8060	-0.7647	25.61	0.14	-0.750			
0.2564	16410.54	3.8030	3.8029	-0.7655	25.61	0.14	-0.750			
0.2587	16555.95	3.8000	3.7999	-0.7676	25.61	0.14	-0.750			
0.2610	16705.91	3.7970	3.7971	-0.7677	25.61	0.14	-0.750			
0.2633	16852.84	3.7940	3.7939	-0.7622	25.61	0.14	-0.750			
0.2656	17000.60	3.7910	3.7910	-0.7619	25.61	0.14	-0.750			
0.2679	17143.43	3.7880	3.7884	-0.7573	25.61	0.14	-0.750			
0.2701	17288.21	3.7850	3.7849	-0.7643	25.61	0.14	-0.750			
0.2724	17433.88	3.7820	3.7821	-0.7785	25.61	0.14	-0.750			
0.2748	17584.56	3.7790	3.7790	-0.7859	25.61	0.14	-0.750			
0.2772	17741.03	3.7760	3.7758	-0.7931	25.61	0.14	-0.750			
0.2796	17893.97	3.7730	3.7729	-0.7949	25.61	0.14	-0.750			
0.2820	18045.56	3.7700	3.7700	-0.8018	25.61	0.14	-0.750			
0.2844	18198.61	3.7670	3.7668	-0.8033	25.61	0.14	-0.750			
0.2867	18351.20	3.7640	3.7639	-0.8001	25.61	0.14	-0.750			
0.2891	18503.76	3.7610	3.7611	-0.8099	25.61	0.14	-0.750			
0.2916	18664.94	3.7580	3.7580	-0.8178	25.61	0.14	-0.750			
0.2941	18821.89	3.7550	3.7549	-0.8228	25.61	0.14	-0.750			
0.2965	18976.57	3.7520	3.7521	-0.8328	25.61	0.14	-0.750			
0.2990	19138.27	3.7490	3.7488	-0.8357	25.61	0.14	-0.750			
0.3016	19300.82	3.7460	3.7459	-0.8454	25.60	0.13	-0.750			
0.3041	19464.29	3.7430	3.7430	-0.8563	25.60	0.13	-0.750			
0.3067	19628.37	3.7400	3.7398	-0.8644	25.60	0.13	-0.750			
0.3093	19797.46	3.7370	3.7369	-0.8812	25.60	0.13	-0.750			
0.3120	19965.30	3.7340	3.7340	-0.8818	25.59	0.12	-0.750			
0.3146	20135.17	3.7310	3.7310	-0.8890	25.59	0.12	-0.750			
0.3174	20310.54	3.7280	3.7279	-0.9025	25.59	0.12	-0.750			
0.3200	20482.63	3.7250	3.7248	-0.9082	25.59	0.12	-0.750			
0.3228	20656.08	3.7220	3.7221	-0.9176	25.58	0.11	-0.750			
0.3255	20831.47	3.7190	3.7190	-0.9283	25.58	0.11	-0.750			
0.3283	21012.78	3.7160	3.7159	-0.9495	25.57	0.10	-0.750			
0.3312	21197.27	3.7130	3.7130	-0.9581	25.57	0.10	-0.750			
0.3341	21382.27	3.7100	3.7100	-0.9774	25.56	0.09	-0.750			
0.3371	21574.81	3.7070	3.7069	-0.9922	25.56	0.09	-0.750			
0.3401	21767.94	3.7040	3.7039	-0.9974	25.55	0.08	-0.750			
0.3431	21960.85	3.7010	3.7013	-1.0023	25.55	0.08	-0.750			
0.3462	22153.80	3.6980	3.6987	-1.0161	25.54	0.07	-0.750	0.355	0.518	
0.3492	22348.37	3.6950	3.6949	-1.0249	25.54	0.07	-0.750			
0.3523	22544.26	3.6920	3.6919	-1.0379	25.54	0.07	-0.750			
0.3553	22742.13	3.6890	3.6894	-1.0527	25.53	0.06	-0.750			
0.3586	22950.89	3.6860	3.6859	-1.0761	25.52	0.05	-0.750			
0.3618	23156.39	3.6830	3.6830	-1.0884	25.52	0.05	-0.750			
0.3651	23365.66	3.6800	3.6800	-1.0996	25.51	0.04	-0.750			
0.3684	23579.42	3.6770	3.6771	-1.1300	25.51	0.04	-0.750			
0.3719	23799.45	3.6740	3.6738	-1.1433	25.50	0.03	-0.750			
0.3753	24021.21	3.6710	3.6710	-1.1587	25.49	0.02	-0.750			
0.3788	24240.71	3.6680	3.6680	-1.2018	25.48	0.01	-0.750			
0.3825	24478.87	3.6650	3.6647	-1.2093	25.48	0.01	-0.750			
0.3861	24712.22	3.6620	3.6618	-1.2196	25.48	0.01	-0.750			
0.3898	24946.13	3.6590	3.6588	-1.2341	25.47	0.00	-0.750			
0.3935	25182.19	3.6560	3.6566	-1.2471	25.47	-0.00	-0.750			
0.3973	25429.18	3.6530	3.6528	-1.2766	25.46	-0.01	-0.750			
0.4011	25673.23	3.6500	3.6500	-1.2848	25.45	-0.02	-0.750			
0.4050	25918.71	3.6470	3.6470	-1.3292	25.44	-0.03	-0.750			
0.4090	26177.95	3.6440	3.6440	-1.3427	25.44	-0.03	-0.750			
0.4131	26437.82	3.6410	3.6408	-1.3584	25.43	-0.04	-0.750			
0.4172	26700.42	3.6380	3.6382	-1.4026	25.43	-0.04	-0.750			
0.4215	26975.95	3.6350	3.6348	-1.4186	25.42	-0.05	-0.750			
0.4258	27253.71	3.6320	3.6317	-1.4368	25.41	-0.06	-0.750			
0.4302	27533.26	3.6290	3.6297	-1.4648	25.40	-0.07	-0.750			
0.4346	27812.32	3.6260	3.6259	-1.4881	25.39	-0.08	-0.750			
0.4391	28104.01	3.6230	3.6228	-1.5355	25.39	-0.08	-0.750			
0.4437	28399.87	3.6200	3.6201	-1.5610	25.38	-0.09	-0.750			
0.4485	28701.70	3.6170	3.6173	-1.6258	25.38	-0.09	-0.750			
0.4534	29020.30	3.6140	3.6138	-1.6520	25.37	-0.10	-0.750			
0.4584	29340.48	3.6110	3.6108	-1.6779	25.37	-0.10	-0.750			
0.4636	29668.63	3.6080	3.6079	-1.7061	25.36	-0.11	-0.750			
0.4687	29996.63	3.6050	3.6051	-1.7129	25.35	-0.12	-0.750			
0.4737	30314.84	3.6020	3.6021	-1.7386	25.35	-0.12	-0.750			
0.4789	30648.61	3.5990	3.5989	-1.7796	25.35	-0.12	-0.750			
0.4843	30992.70	3.5960	3.5959	-1.7991	25.35	-0.12	-0.750			
0.4898	31346.92	3.5930	3.5929	-1.8592	25.34	-0.13	-0.750			
0.4956	31716.69	3.5900	3.5897	-1.8870	25.34	-0.13	-0.750			
0.5015	32093.73	3.5870	3.5865	-1.9222	25.33	-0.14	-0.750			
0.5071	32457.26	3.5840	3.5838	-1.9419	25.33	-0.14	-0.750			
0.5130	32834.24	3.5810	3.5806	-1.9500	25.32	-0.15	-0.750			
0.5189	33212.04	3.5780	3.5778	-1.9722	25.32	-0.15	-0.750			
0.5246	33576.65	3.5750	3.5748	-2.0364	25.32	-0.15	-0.750			
0.5309	33978.15	3.5720	3.5721	-2.0333	25.32	-0.15	-0.750			
0.5370	34370.11	3.5690	3.5689	-2.0269	25.32	-0.15	-0.750			
0.5431	34757.76	3.5660	3.5666	-2.0127	25.32	-0.15	-0.750			
0.5489	35132.13	3.5630	3.5630	-1.9968	25.31	-0.16	-0.750			
0.5550	35518.36	3.5600	3.5595	-2.0371	25.30	-0.17	-0.750			
0.5612	35916.17	3.5570	3.5572	-2.0564	25.30	-0.17	-0.750			
0.5675	36322.35	3.5540	3.5541	-2.0486	25.31	-0.16	-0.750			
0.5736	36711.84	3.5510	3.5515	-2.0365	25.31	-0.16	-0.750			
0.5796	37096.62	3.5480	3.5484	-1.9603	25.31	-0.16	-0.750			
0.5852	37452.24	3.5450	3.5454	-1.9911	25.31	-0.16	-0.750			
0.5912	37835.78	3.5420	3.5420	-2.0613	25.32	-0.15	-0.750			
0.5975	38238.04	3.5390	3.5386	-2.0783	25.32	-0.15	-0.750			
0.6041	38664.60	3.5360	3.5365	-2.0895	25.33	-0.14	-0.750			
0.6104	39067.50	3.5330	3.5330	-2.0416	25.35	-0.12	-0.750			
0.6161	39432.79	3.5300	3.5298	-1.8874	25.36	-0.11	-0.750			
0.6214	39767.45	3.5270	3.5268	-1.7831	25.38	-0.09	-0.750			
0.6267	40106.02	3.5240	3.5243	-1.7614	25.39	-0.08	-0.750			
0.6318	40436.70	3.5210	3.5209	-1.7233	25.40	-0.07	-0.750			
0.6369	40763.82	3.5180	3.5182	-1.6981	25.42	-0.05	-0.750			
0.6420	41088.98	3.5150	3.5152	-1.6648	25.44	-0.03	-0.750			
0.6471	41416.42	3.5120	3.5118	-1.6280	25.45	-0.02	-0.750			
0.6519	41723.60	3.5090	3.5088	-1.5695	25.47	-0.00	-0.750			
0.6566	42019.71	3.5060	3.5059	-1.5121	25.48	0.01	-0.750			
0.6609	42298.48	3.5030	3.5033	-1.4533	25.50	0.03	-0.750			
0.6651	42568.19	3.5000	3.4997	-1.4150	25.52	0.05	-0.750			
0.6692	42829.17	3.4970	3.4971	-1.3745	25.53	0.06	-0.750			
0.6734	43098.63	3.4940	3.4938	-1.3499	25.55	0.08	-0.750			
0.6775	43357.46	3.4910	3.4910	-1.3148	25.56	0.09	-0.750			
0.6813	43600.44	3.4880	3.4882	-1.2783	25.57	0.10	-0.750			
0.6851	43847.33	3.4850	3.4848	-1.2509	25.59	0.12	-0.750			
0.6887	44079.29	3.4820	3.4819	-1.2351	25.61	0.14	-0.750			
0.6925	44317.10	3.4790	3.4788	-1.2601	25.63	0.16	-0.750			
