Ah_balance (normalized)	Ah_balance (mAh)	Voltage - fit (V)	Voltage -  interpolate (V)	dQ/dV (1/V)	Temperature (°C)	Temperature - diff (°C)	Current (C)	R_DC 0ms (mOhm)	R_DC 50ms (mOhm)	R_DC 50 ms PEC (mOhm)
0.0489	3126.92	4.1970	4.1969	0.7922	25.31	0.42	0.750			
0.0512	3276.21	4.1940	4.1941	0.7696	25.31	0.42	0.750			
0.0534	3419.07	4.1910	4.1910	0.7581	25.31	0.42	0.750			
0.0557	3561.95	4.1880	4.1881	0.7493	25.31	0.42	0.750			
0.0579	3706.41	4.1850	4.1849	0.7512	25.31	0.42	0.750			
0.0601	3849.35	4.1820	4.1820	0.7552	25.31	0.42	0.750			
0.0624	3994.91	4.1790	4.1791	0.7576	25.31	0.42	0.750			
0.0647	4142.53	4.1760	4.1759	0.7548	25.31	0.42	0.750			
0.0670	4286.83	4.1730	4.1731	0.7594	25.32	0.43	0.750			
0.0692	4431.51	4.1700	4.1700	0.7584	25.32	0.43	0.750			
0.0715	4577.67	4.1670	4.1665	0.7619	25.32	0.43	0.750			
0.0738	4724.41	4.1640	4.1640	0.7632	25.32	0.43	0.750			
0.0761	4870.37	4.1610	4.1611	0.7627	25.32	0.43	0.750			
0.0784	5018.12	4.1580	4.1580	0.7653	25.32	0.43	0.750			
0.0807	5166.46	4.1550	4.1550	0.7718	25.32	0.43	0.750			
0.0830	5312.46	4.1520	4.1519	0.7681	25.32	0.43	0.750			
0.0853	5460.75	4.1490	4.1490	0.7705	25.32	0.43	0.750			
0.0876	5608.71	4.1460	4.1461	0.7724	25.32	0.43	0.750			
0.0900	5757.44	4.1430	4.1430	0.7718	25.32	0.43	0.750			
0.0923	5905.97	4.1400	4.1400	0.7723	25.32	0.43	0.750			
0.0946	6053.34	4.1370	4.1370	0.7731	25.32	0.43	0.750			
0.0969	6201.32	4.1340	4.1339	0.7738	25.32	0.43	0.750			
0.0992	6350.92	4.1310	4.1310	0.7773	25.32	0.43	0.750			
0.1016	6501.05	4.1280	4.1280	0.7737	25.33	0.44	0.750			
0.1039	6648.53	4.1250	4.1250	0.7797	25.33	0.44	0.750			
0.1062	6798.36	4.1220	4.1220	0.7783	25.34	0.45	0.750			
0.1086	6948.61	4.1190	4.1189	0.7804	25.34	0.45	0.750			
0.1109	7097.85	4.1160	4.1161	0.7848	25.34	0.45	0.750			
0.1133	7250.71	4.1130	4.1130	0.7831	25.34	0.45	0.750			
0.1156	7400.56	4.1100	4.1100	0.7834	25.35	0.46	0.750			
0.1180	7551.29	4.1070	4.1070	0.7866	25.35	0.46	0.750			
0.1203	7699.54	4.1040	4.1041	0.7878	25.35	0.46	0.750			
0.1227	7851.55	4.1010	4.1009	0.7945	25.35	0.46	0.750			
0.1251	8005.30	4.0980	4.0980	0.7938	25.35	0.46	0.750			
0.1275	8158.30	4.0950	4.0950	0.7957	25.35	0.46	0.750			
0.1299	8312.67	4.0920	4.0921	0.8008	25.36	0.47	0.750			
0.1323	8466.33	4.0890	4.0891	0.8029	25.36	0.47	0.750			
0.1347	8619.96	4.0860	4.0859	0.7991	25.36	0.47	0.750			
0.1371	8772.18	4.0830	4.0830	0.8043	25.36	0.47	0.750			
0.1395	8928.11	4.0800	4.0800	0.7995	25.36	0.47	0.750			
0.1419	9079.87	4.0770	4.0771	0.8084	25.36	0.47	0.750			
0.1443	9235.23	4.0740	4.0740	0.8105	25.36	0.47	0.750			
0.1467	9391.74	4.0710	4.0704	0.8122	25.36	0.47	0.750			
0.1492	9547.92	4.0680	4.0682	0.8169	25.36	0.47	0.750			
0.1517	9707.23	4.0650	4.0651	0.8178	25.36	0.47	0.750			
0.1541	9863.65	4.0620	4.0621	0.8207	25.37	0.48	0.750			
0.1566	10019.96	4.0590	4.0590	0.8174	25.37	0.48	0.750			
0.1590	10177.37	4.0560	4.0557	0.8224	25.37	0.48	0.750			
0.1615	10337.24	4.0530	4.0530	0.8282	25.37	0.48	0.750			
0.1640	10496.18	4.0500	4.0501	0.8353	25.37	0.48	0.750			
0.1665	10658.47	4.0470	4.0470	0.8382	25.38	0.49	0.750			
0.1691	10819.59	4.0440	4.0439	0.8343	25.38	0.49	0.750			
0.1716	10981.05	4.0410	4.0410	0.8350	25.38	0.49	0.750			
0.1741	11140.83	4.0380	4.0380	0.8370	25.38	0.49	0.750			
0.1766	11304.57	4.0350	4.0350	0.8197	25.38	0.49	0.750			
0.1791	11459.40	4.0320	4.0320	0.8328	25.39	0.50	0.750			
0.1815	11616.17	4.0290	4.0291	0.8358	25.39	0.50	0.750			
0.1840	11777.81	4.0260	4.0256	0.8484	25.39	0.50	0.750			
0.1866	11941.16	4.0230	4.0231	0.8563	25.39	0.50	0.750			
0.1892	12108.30	4.0200	4.0201	0.8575	25.39	0.50	0.750			
0.1918	12273.82	4.0170	4.0171	0.8625	25.40	0.51	0.750			
0.1944	12440.93	4.0140	4.0141	0.8570	25.40	0.51	0.750			
0.1970	12605.47	4.0110	4.0106	0.8611	25.40	0.51	0.750			
0.1996	12771.59	4.0080	4.0081	0.8594	25.40	0.51	0.750			
0.2021	12936.37	4.0050	4.0050	0.8626	25.40	0.51	0.750			
0.2047	13103.84	4.0020	4.0020	0.8662	25.41	0.52	0.750			
0.2073	13270.17	3.9990	3.9990	0.8709	25.41	0.52	0.750			
0.2099	13434.61	3.9960	3.9960	0.8702	25.41	0.52	0.750			
0.2126	13605.23	3.9930	3.9930	0.8638	25.42	0.53	0.750			
0.2152	13769.66	3.9900	3.9900	0.8716	25.42	0.53	0.750			
0.2178	13936.80	3.9870	3.9871	0.8806	25.42	0.53	0.750			
0.2204	14106.30	3.9840	3.9841	0.8842	25.43	0.54	0.750			
0.2231	14276.78	3.9810	3.9811	0.8873	25.43	0.54	0.750			
0.2258	14449.19	3.9780	3.9781	0.8750	25.43	0.54	0.750			
0.2284	14616.91	3.9750	3.9751	0.8858	25.43	0.54	0.750			
0.2311	14787.37	3.9720	3.9720	0.8929	25.43	0.54	0.750			
0.2337	14956.06	3.9690	3.9688	0.8898	25.43	0.54	0.750			
0.2364	15129.02	3.9660	3.9661	0.8932	25.43	0.54	0.750			
0.2391	15301.94	3.9630	3.9632	0.9005	25.43	0.54	0.750			
0.2418	15476.43	3.9600	3.9600	0.9035	25.44	0.55	0.750			
0.2446	15653.89	3.9570	3.9569	0.9092	25.44	0.55	0.750			
0.2472	15822.89	3.9540	3.9539	0.8994	25.44	0.55	0.750			
0.2500	15997.61	3.9510	3.9510	0.8947	25.44	0.55	0.750			
0.2526	16168.87	3.9480	3.9481	0.8988	25.44	0.55	0.750			
0.2553	16341.84	3.9450	3.9450	0.8990	25.45	0.56	0.750			
0.2580	16513.06	3.9420	3.9421	0.9036	25.45	0.56	0.750			
0.2607	16685.67	3.9390	3.9391	0.9050	25.45	0.56	0.750			
0.2634	16859.81	3.9360	3.9361	0.9017	25.45	0.56	0.750			
0.2661	17033.53	3.9330	3.9331	0.9074	25.45	0.56	0.750			
0.2689	17209.55	3.9300	3.9301	0.9153	25.45	0.56	0.750			
0.2716	17383.24	3.9270	3.9266	0.9119	25.45	0.56	0.750			
0.2744	17559.05	3.9240	3.9241	0.9122	25.45	0.56	0.750			
0.2771	17733.56	3.9210	3.9210	0.9128	25.45	0.56	0.750			
0.2799	17912.52	3.9180	3.9180	0.9174	25.45	0.56	0.750			
0.2826	18086.08	3.9150	3.9150	0.9091	25.45	0.56	0.750			
0.2853	18261.84	3.9120	3.9120	0.9124	25.45	0.56	0.750			
0.2881	18439.08	3.9090	3.9091	0.9017	25.44	0.55	0.750			
0.2908	18611.10	3.9060	3.9060	0.9100	25.44	0.55	0.750			
0.2935	18784.36	3.9030	3.9031	0.9157	25.44	0.55	0.750			
0.2962	18959.41	3.9000	3.8998	0.9168	25.43	0.54	0.750			
0.2990	19137.33	3.8970	3.8971	0.9154	25.43	0.54	0.750			
0.3018	19313.04	3.8940	3.8940	0.9206	25.42	0.53	0.750			
0.3045	19490.98	3.8910	3.8912	0.9257	25.42	0.53	0.750			
0.3074	19672.15	3.8880	3.8880	0.9287	25.41	0.52	0.750			
0.3101	19846.45	3.8850	3.8849	0.9260	25.41	0.52	0.750			
0.3129	20025.04	3.8820	3.8821	0.9277	25.40	0.51	0.750			
0.3157	20204.12	3.8790	3.8790	0.9309	25.40	0.51	0.750			
0.3185	20383.65	3.8760	3.8759	0.9321	25.40	0.51	0.750			
0.3213	20562.28	3.8730	3.8730	0.9296	25.39	0.50	0.750			
0.3241	20741.48	3.8700	3.8700	0.9296	25.38	0.49	0.750			
0.3269	20919.50	3.8670	3.8671	0.9230	25.38	0.49	0.750			
0.3296	21095.45	3.8640	3.8640	0.9166	25.37	0.48	0.750			
0.3324	21271.68	3.8610	3.8611	0.9161	25.36	0.47	0.750			
0.3352	21450.44	3.8580	3.8580	0.9048	25.36	0.47	0.750			
0.3379	21624.29	3.8550	3.8551	0.8861	25.35	0.46	0.750			
0.3405	21794.91	3.8520	3.8520	0.8812	25.34	0.45	0.750			
0.3430	21952.91	3.8490	3.8494	0.8946	25.33	0.44	0.750			
0.3457	22124.29	3.8460	3.8450	0.8833	25.32	0.43	0.750			
0.3484	22294.62	3.8430	3.8438	0.9325	25.32	0.43	0.750			
0.3512	22477.09	3.8400	3.8408	0.9583	25.31	0.42	0.750			
0.3542	22667.78	3.8370	3.8365	0.9892	25.30	0.41	0.750	0.329	0.454	
0.3573	22868.47	3.8340	3.8344	1.0003	25.29	0.40	0.750			
0.3604	23066.46	3.8310	3.8310	0.9988	25.28	0.39	0.750			
0.3633	23251.79	3.8280	3.8280	0.9788	25.27	0.38	0.750			
0.3662	23434.05	3.8250	3.8252	0.9668	25.26	0.37	0.750			
0.3691	23619.69	3.8220	3.8221	0.9769	25.26	0.37	0.750			
0.3720	23807.13	3.8190	3.8182	0.9858	25.25	0.36	0.750			
0.3750	23997.72	3.8160	3.8163	0.9906	25.24	0.35	0.750			
0.3780	24189.78	3.8130	3.8132	1.0049	25.23	0.34	0.750			
0.3811	24387.98	3.8100	3.8101	1.0204	25.22	0.33	0.750			
0.3841	24580.88	3.8070	3.8064	1.0137	25.21	0.32	0.750			
0.3871	24776.02	3.8040	3.8041	1.0246	25.20	0.31	0.750			
0.3902	24975.02	3.8010	3.8010	1.0445	25.19	0.30	0.750			
0.3934	25177.31	3.7980	3.7980	1.0605	25.18	0.29	0.750			
0.3966	25384.17	3.7950	3.7949	1.0737	25.17	0.28	0.750			
0.3998	25590.00	3.7920	3.7920	1.0709	25.16	0.27	0.750			
0.4030	25793.62	3.7890	3.7891	1.0956	25.15	0.26	0.750			
0.4063	26004.43	3.7860	3.7861	1.1105	25.13	0.24	0.750			
0.4097	26222.03	3.7830	3.7824	1.1203	25.12	0.23	0.750			
0.4131	26436.00	3.7800	3.7802	1.1380	25.11	0.22	0.750			
0.4165	26656.76	3.7770	3.7771	1.1605	25.10	0.21	0.750			
0.4201	26885.29	3.7740	3.7741	1.1827	25.09	0.20	0.750			
0.4236	27108.81	3.7710	3.7710	1.1862	25.08	0.19	0.750			
0.4272	27338.77	3.7680	3.7681	1.2128	25.07	0.18	0.750			
0.4309	27574.78	3.7650	3.7651	1.2477	25.05	0.16	0.750			
0.4348	27824.99	3.7620	3.7618	1.2322	25.04	0.15	0.750			
0.4384	28055.46	3.7590	3.7591	1.2852	25.03	0.14	0.750			
0.4422	28300.89	3.7560	3.7562	1.3230	25.01	0.12	0.750			
0.4463	28561.80	3.7530	3.7528	1.3495	25.00	0.11	0.750			
0.4503	28822.24	3.7500	3.7503	1.3826	24.99	0.10	0.750			
0.4545	29089.59	3.7470	3.7474	1.4306	24.98	0.09	0.750			
0.4590	29376.95	3.7440	3.7434	1.4582	24.97	0.08	0.750			
0.4635	29665.06	3.7410	3.7404	1.4751	24.96	0.07	0.750			
0.4679	29948.71	3.7380	3.7384	1.5354	24.94	0.05	0.750			
0.4727	30253.15	3.7350	3.7352	1.5918	24.93	0.04	0.750			
0.4775	30561.34	3.7320	3.7323	1.6328	24.92	0.03	0.750			
0.4824	30876.28	3.7290	3.7294	1.6568	24.90	0.01	0.750			
0.4876	31205.73	3.7260	3.7260	1.7014	24.89	-0.00	0.750			
0.4929	31546.59	3.7230	3.7229	1.7630	24.87	-0.02	0.750			
0.4982	31882.96	3.7200	3.7197	1.8082	24.86	-0.03	0.750			
0.5036	32229.29	3.7170	3.7163	1.8435	24.85	-0.04	0.750			
0.5092	32587.70	3.7140	3.7142	1.8751	24.84	-0.05	0.750			
0.5149	32950.88	3.7110	3.7114	1.9426	24.82	-0.07	0.750			
0.5208	33329.39	3.7080	3.7081	2.0002	24.80	-0.09	0.750			
0.5268	33716.43	3.7050	3.7055	2.0569	24.79	-0.10	0.750			
0.5333	34131.87	3.7020	3.7020	2.1682	24.78	-0.11	0.750			
0.5399	34553.34	3.6990	3.6989	2.2406	24.77	-0.12	0.750			
0.5464	34972.07	3.6960	3.6961	2.3024	24.76	-0.13	0.750			
0.5533	35409.59	3.6930	3.6930	2.3022	24.75	-0.14	0.750			
0.5604	35862.66	3.6900	3.6900	2.3482	24.74	-0.15	0.750			
0.5676	36329.21	3.6870	3.6869	2.3622	24.73	-0.16	0.750			
0.5749	36790.57	3.6840	3.6842	2.5647	24.73	-0.16	0.750			
0.5831	37317.10	3.6810	3.6808	2.5649	24.72	-0.17	0.750			
0.5903	37778.03	3.6780	3.6781	2.6077	24.72	-0.17	0.750			
0.5981	38280.88	3.6750	3.6746	2.6862	24.72	-0.17	0.750			
0.6063	38800.64	3.6720	3.6724	2.5854	24.72	-0.17	0.750			
0.6140	39294.92	3.6690	3.6686	2.4951	24.73	-0.16	0.750			
0.6216	39783.31	3.6660	3.6662	2.4414	24.74	-0.15	0.750			
0.6283	40213.58	3.6630	3.6630	2.2566	24.74	-0.15	0.750			
0.6348	40628.54	3.6600	3.6600	2.1122	24.74	-0.15	0.750			
0.6406	41000.42	3.6570	3.6570	1.8984	24.75	-0.14	0.750			
0.6461	41351.44	3.6540	3.6539	1.7416	24.76	-0.13	0.750			
0.6512	41675.51	3.6510	3.6513	1.6060	24.77	-0.12	0.750			
0.6560	41985.96	3.6480	3.6480	1.5001	24.79	-0.10	0.750			
0.6602	42253.47	3.6450	3.6448	1.3262	24.80	-0.09	0.750			
0.6640	42496.61	3.6420	3.6420	1.2496	24.81	-0.08	0.750			
0.6673	42709.87	3.6390	3.6392	1.1546	24.81	-0.08	0.750			
0.6707	42921.92	3.6360	3.6362	1.0929	24.82	-0.07	0.750			
0.6738	43125.45	3.6330	3.6331	1.0253	24.82	-0.07	0.750			
0.6768	43312.97	3.6300	3.6302	0.9922	24.83	-0.06	0.750			
0.6796	43497.54	3.6270	3.6272	0.9602	24.84	-0.05	0.750			
0.6826	43683.58	3.6240	3.6241	0.9375	24.85	-0.04	0.750			
0.6853	43856.54	3.6210	3.6208	0.8921	24.85	-0.04	0.750			
0.6880	44029.72	3.6180	3.6182	0.8563	24.86	-0.03	0.750			
0.6905	44194.18	3.6150	3.6151	0.8216	24.87	-0.02	0.750			
0.6930	44350.45	3.6120	3.6120	0.7734	24.88	-0.01	0.750			
0.6952	44493.52	3.6090	3.6090	0.7076	24.88	-0.01	0.750			
0.6973	44625.50	3.6060	3.6059	0.6550	24.89	0.00	0.750			
0.6991	44745.57	3.6030	3.6030	0.5937	24.90	0.01	0.750			
0.7008	44853.71	3.6000	3.6000	0.5348	24.90	0.01	0.750			
0.7024	44950.68	3.5970	3.5970	0.4796	24.91	0.02	0.750			
0.7037	45035.70	3.5940	3.5940	0.4213	24.91	0.02	0.750			
0.7049	45110.89	3.5910	3.5909	0.3708	24.92	0.03	0.750			
0.7059	45177.53	3.5880	3.5880	0.3190	24.92	0.03	0.750			
0.7068	45233.96	3.5850	3.5849	0.2685	24.92	0.03	0.750			
0.7075	45281.66	3.5820	3.5821	0.2192	24.92	0.03	0.750			
0.7081	45319.00	3.5790	3.5792	0.1666	24.93	0.04	0.750			
0.7085	45346.24	3.5760	3.5765	0.1124	24.93	0.04	0.750			
0.7088	45362.85	3.5730	3.5737	0.0416	24.93	0.04	0.750			
