Ah_balance (normalized)	Ah_balance (mAh)	Voltage - fit (V)	Voltage -  interpolate (V)	dQ/dV (1/V)	Temperature (°C)	Temperature - diff (°C)	Current (C)	R_DC 0ms (mOhm)	R_DC 50ms (mOhm)	R_DC 50 ms PEC (mOhm)
0.0496	3174.40	4.1960	4.1960	0.7576	25.55	0.57	0.750			
0.0519	3319.88	4.1930	4.1931	0.7569	25.55	0.57	0.750			
0.0541	3464.98	4.1900	4.1900	0.7550	25.55	0.57	0.750			
0.0564	3609.65	4.1870	4.1870	0.7548	25.55	0.57	0.750			
0.0587	3754.56	4.1840	4.1840	0.7586	25.55	0.57	0.750			
0.0609	3899.55	4.1810	4.1809	0.7549	25.55	0.57	0.750			
0.0632	4044.73	4.1780	4.1780	0.7557	25.55	0.57	0.750			
0.0655	4189.75	4.1750	4.1750	0.7602	25.55	0.57	0.750			
0.0678	4338.02	4.1720	4.1720	0.7548	25.54	0.56	0.750			
0.0700	4481.84	4.1690	4.1689	0.7572	25.54	0.56	0.750			
0.0723	4626.38	4.1660	4.1660	0.7570	25.54	0.56	0.750			
0.0745	4770.91	4.1630	4.1632	0.7578	25.53	0.55	0.750			
0.0768	4917.48	4.1600	4.1601	0.7611	25.53	0.55	0.750			
0.0791	5063.80	4.1570	4.1571	0.7625	25.53	0.55	0.750			
0.0814	5210.55	4.1540	4.1540	0.7597	25.53	0.55	0.750			
0.0837	5357.01	4.1510	4.1510	0.7663	25.54	0.56	0.750			
0.0860	5501.83	4.1480	4.1481	0.7622	25.54	0.56	0.750			
0.0883	5648.43	4.1450	4.1451	0.7679	25.54	0.56	0.750			
0.0906	5796.21	4.1420	4.1420	0.7707	25.54	0.56	0.750			
0.0929	5945.46	4.1390	4.1390	0.7716	25.54	0.56	0.750			
0.0952	6094.33	4.1360	4.1360	0.7757	25.54	0.56	0.750			
0.0976	6243.44	4.1330	4.1331	0.7760	25.54	0.56	0.750			
0.0999	6392.08	4.1300	4.1299	0.7753	25.54	0.56	0.750			
0.1022	6540.71	4.1270	4.1270	0.7792	25.54	0.56	0.750			
0.1046	6691.89	4.1240	4.1240	0.7737	25.54	0.56	0.750			
0.1069	6840.94	4.1210	4.1209	0.7773	25.53	0.55	0.750			
0.1092	6989.59	4.1180	4.1181	0.7778	25.53	0.55	0.750			
0.1115	7138.02	4.1150	4.1150	0.7754	25.53	0.55	0.750			
0.1138	7286.20	4.1120	4.1121	0.7787	25.53	0.55	0.750			
0.1162	7435.86	4.1090	4.1090	0.7827	25.53	0.55	0.750			
0.1185	7586.16	4.1060	4.1060	0.7764	25.53	0.55	0.750			
0.1209	7734.83	4.1030	4.1031	0.7859	25.53	0.55	0.750			
0.1232	7885.07	4.1000	4.1001	0.7885	25.53	0.55	0.750			
0.1256	8037.38	4.0970	4.0964	0.7909	25.53	0.55	0.750			
0.1280	8189.27	4.0940	4.0941	0.7958	25.53	0.55	0.750			
0.1304	8342.76	4.0910	4.0911	0.7982	25.53	0.55	0.750			
0.1328	8498.35	4.0880	4.0879	0.8062	25.53	0.55	0.750			
0.1352	8652.74	4.0850	4.0850	0.7983	25.53	0.55	0.750			
0.1376	8807.00	4.0820	4.0820	0.7998	25.53	0.55	0.750			
0.1400	8961.71	4.0790	4.0790	0.8026	25.53	0.55	0.750			
0.1424	9116.56	4.0760	4.0760	0.7997	25.53	0.55	0.750			
0.1448	9267.93	4.0730	4.0730	0.8004	25.53	0.55	0.750			
0.1472	9421.24	4.0700	4.0700	0.8035	25.53	0.55	0.750			
0.1496	9574.57	4.0670	4.0669	0.8060	25.53	0.55	0.750			
0.1520	9730.40	4.0640	4.0641	0.8137	25.53	0.55	0.750			
0.1545	9887.96	4.0610	4.0610	0.8191	25.53	0.55	0.750			
0.1570	10045.31	4.0580	4.0580	0.8077	25.53	0.55	0.750			
0.1594	10198.69	4.0550	4.0551	0.8156	25.53	0.55	0.750			
0.1618	10353.97	4.0520	4.0522	0.8185	25.53	0.55	0.750			
0.1642	10510.74	4.0490	4.0492	0.8247	25.53	0.55	0.750			
0.1667	10670.41	4.0460	4.0462	0.8307	25.54	0.56	0.750			
0.1692	10831.75	4.0430	4.0430	0.8377	25.54	0.56	0.750			
0.1718	10995.52	4.0400	4.0401	0.8415	25.54	0.56	0.750			
0.1743	11156.23	4.0370	4.0370	0.8325	25.55	0.57	0.750			
0.1768	11316.53	4.0340	4.0340	0.8346	25.55	0.57	0.750			
0.1793	11478.20	4.0310	4.0310	0.8318	25.55	0.57	0.750			
0.1818	11635.77	4.0280	4.0280	0.8375	25.55	0.57	0.750			
0.1843	11797.31	4.0250	4.0250	0.8417	25.55	0.57	0.750			
0.1868	11957.51	4.0220	4.0220	0.8465	25.55	0.57	0.750			
0.1894	12121.68	4.0190	4.0190	0.8503	25.55	0.57	0.750			
0.1920	12289.79	4.0160	4.0160	0.8421	25.55	0.57	0.750			
0.1945	12448.28	4.0130	4.0130	0.8495	25.55	0.57	0.750			
0.1970	12610.98	4.0100	4.0101	0.8553	25.55	0.57	0.750			
0.1996	12772.26	4.0070	4.0071	0.8553	25.55	0.57	0.750			
0.2022	12938.47	4.0040	4.0041	0.8647	25.55	0.57	0.750			
0.2048	13106.31	4.0010	4.0010	0.8593	25.55	0.57	0.750			
0.2074	13272.88	3.9980	3.9981	0.8655	25.56	0.58	0.750			
0.2100	13438.99	3.9950	3.9952	0.8626	25.56	0.58	0.750			
0.2126	13603.55	3.9920	3.9918	0.8661	25.56	0.58	0.750			
0.2152	13769.66	3.9890	3.9890	0.8696	25.56	0.58	0.750			
0.2178	13937.57	3.9860	3.9861	0.8702	25.56	0.58	0.750			
0.2204	14106.40	3.9830	3.9831	0.8796	25.57	0.59	0.750			
0.2231	14275.58	3.9800	3.9801	0.8778	25.57	0.59	0.750			
0.2257	14444.45	3.9770	3.9766	0.8792	25.57	0.59	0.750			
0.2283	14612.46	3.9740	3.9741	0.8778	25.57	0.59	0.750			
0.2310	14782.01	3.9710	3.9711	0.8725	25.57	0.59	0.750			
0.2336	14949.29	3.9680	3.9680	0.8810	25.57	0.59	0.750			
0.2362	15115.87	3.9650	3.9651	0.8799	25.57	0.59	0.750			
0.2388	15284.86	3.9620	3.9621	0.8826	25.57	0.59	0.750			
0.2415	15456.46	3.9590	3.9591	0.8870	25.57	0.59	0.750			
0.2442	15629.66	3.9560	3.9561	0.8968	25.57	0.59	0.750			
0.2469	15803.70	3.9530	3.9530	0.8978	25.58	0.60	0.750			
0.2496	15974.51	3.9500	3.9499	0.8893	25.58	0.60	0.750			
0.2523	16145.49	3.9470	3.9471	0.8864	25.58	0.60	0.750			
0.2549	16314.83	3.9440	3.9440	0.8806	25.58	0.60	0.750			
0.2575	16482.90	3.9410	3.9411	0.8816	25.57	0.59	0.750			
0.2601	16649.52	3.9380	3.9381	0.8821	25.57	0.59	0.750			
0.2628	16819.77	3.9350	3.9346	0.8846	25.57	0.59	0.750			
0.2655	16990.54	3.9320	3.9320	0.8886	25.57	0.59	0.750			
0.2682	17161.88	3.9290	3.9291	0.8855	25.57	0.59	0.750			
0.2709	17334.64	3.9260	3.9260	0.8887	25.57	0.59	0.750			
0.2735	17502.96	3.9230	3.9230	0.8792	25.57	0.59	0.750			
0.2761	17671.61	3.9200	3.9201	0.8788	25.57	0.59	0.750			
0.2787	17839.55	3.9170	3.9171	0.8760	25.56	0.58	0.750			
0.2814	18008.78	3.9140	3.9140	0.8818	25.56	0.58	0.750			
0.2840	18178.77	3.9110	3.9110	0.8850	25.56	0.58	0.750			
0.2867	18347.24	3.9080	3.9080	0.8812	25.55	0.57	0.750			
0.2893	18517.75	3.9050	3.9051	0.8865	25.55	0.57	0.750			
0.2921	18692.09	3.9020	3.9019	0.8732	25.55	0.57	0.750			
0.2946	18856.80	3.8990	3.8991	0.8867	25.54	0.56	0.750			
0.2973	19026.69	3.8960	3.8961	0.8880	25.54	0.56	0.750			
0.2999	19196.23	3.8930	3.8927	0.8940	25.54	0.56	0.750			
0.3026	19369.00	3.8900	3.8902	0.8959	25.53	0.55	0.750			
0.3053	19538.76	3.8870	3.8871	0.9018	25.53	0.55	0.750			
0.3080	19709.99	3.8840	3.8841	0.9219	25.52	0.54	0.750			
0.3108	19888.62	3.8810	3.8811	0.9263	25.52	0.54	0.750			
0.3136	20070.04	3.8780	3.8773	0.9437	25.51	0.53	0.750			
0.3165	20258.11	3.8750	3.8754	0.9491	25.50	0.52	0.750			
0.3194	20442.59	3.8720	3.8723	0.9454	25.49	0.51	0.750			
0.3224	20630.56	3.8690	3.8689	0.9425	25.49	0.51	0.750			
0.3252	20811.98	3.8660	3.8657	0.9298	25.48	0.50	0.750			
0.3277	20974.23	3.8630	3.8630	0.8978	25.47	0.49	0.750			
0.3304	21145.87	3.8600	3.8601	0.9017	25.47	0.49	0.750			
0.3331	21318.42	3.8570	3.8570	0.9070	25.46	0.48	0.750			
0.3358	21493.89	3.8540	3.8541	0.9115	25.46	0.48	0.750			
0.3386	21667.43	3.8510	3.8509	0.9157	25.45	0.47	0.750			
0.3413	21845.48	3.8480	3.8480	0.9158	25.44	0.46	0.750			
0.3441	22021.33	3.8450	3.8451	0.9305	25.43	0.45	0.750			
0.3469	22199.79	3.8420	3.8419	0.9403	25.41	0.43	0.750			
0.3497	22381.19	3.8390	3.8389	0.9470	25.40	0.42	0.750	0.334	0.471	
0.3526	22566.38	3.8360	3.8361	0.9473	25.39	0.41	0.750			
0.3555	22750.12	3.8330	3.8330	0.9578	25.39	0.41	0.750			
0.3583	22933.37	3.8300	3.8301	0.9589	25.38	0.40	0.750			
0.3612	23118.79	3.8270	3.8270	0.9638	25.37	0.39	0.750			
0.3641	23302.75	3.8240	3.8241	0.9622	25.37	0.39	0.750			
0.3670	23486.62	3.8210	3.8210	0.9741	25.35	0.37	0.750			
0.3699	23673.99	3.8180	3.8180	0.9859	25.34	0.36	0.750			
0.3729	23864.82	3.8150	3.8150	0.9964	25.33	0.35	0.750			
0.3759	24056.30	3.8120	3.8119	1.0046	25.32	0.34	0.750			
0.3789	24251.44	3.8090	3.8091	1.0032	25.31	0.33	0.750			
0.3819	24442.43	3.8060	3.8061	1.0180	25.30	0.32	0.750			
0.3849	24636.70	3.8030	3.8031	1.0348	25.29	0.31	0.750			
0.3881	24837.18	3.8000	3.7993	1.0419	25.28	0.30	0.750			
0.3912	25038.38	3.7970	3.7972	1.0625	25.27	0.29	0.750			
0.3945	25244.92	3.7940	3.7941	1.0855	25.26	0.28	0.750			
0.3978	25459.16	3.7910	3.7911	1.1052	25.26	0.28	0.750			
0.4011	25672.49	3.7880	3.7878	1.0970	25.25	0.27	0.750			
0.4044	25884.51	3.7850	3.7851	1.1157	25.23	0.25	0.750			
0.4078	26097.09	3.7820	3.7821	1.1348	25.22	0.24	0.750			
0.4112	26316.62	3.7790	3.7790	1.1636	25.21	0.23	0.750			
0.4147	26542.13	3.7760	3.7760	1.1741	25.20	0.22	0.750			
0.4183	26768.55	3.7730	3.7731	1.1993	25.19	0.21	0.750			
0.4219	27002.47	3.7700	3.7701	1.2295	25.18	0.20	0.750			
0.4257	27243.24	3.7670	3.7670	1.2510	25.17	0.19	0.750			
0.4294	27480.26	3.7640	3.7640	1.2787	25.15	0.17	0.750			
0.4332	27727.46	3.7610	3.7611	1.3101	25.14	0.16	0.750			
0.4372	27983.98	3.7580	3.7578	1.3316	25.12	0.14	0.750			
0.4413	28243.74	3.7550	3.7551	1.3608	25.11	0.13	0.750			
0.4454	28506.86	3.7520	3.7522	1.3860	25.10	0.12	0.750			
0.4497	28781.13	3.7490	3.7488	1.3913	25.08	0.10	0.750			
0.4538	29045.93	3.7460	3.7460	1.4127	25.07	0.09	0.750			
0.4580	29314.12	3.7430	3.7432	1.4530	25.06	0.08	0.750			
0.4624	29594.46	3.7400	3.7398	1.4895	25.04	0.06	0.750			
0.4669	29880.72	3.7370	3.7374	1.5407	25.03	0.05	0.750			
0.4717	30185.88	3.7340	3.7341	1.5795	25.01	0.03	0.750			
0.4765	30497.09	3.7310	3.7306	1.6412	25.00	0.02	0.750			
0.4815	30818.47	3.7280	3.7280	1.6949	24.98	0.00	0.750			
0.4867	31146.30	3.7250	3.7251	1.7483	24.96	-0.02	0.750			
0.4921	31491.37	3.7220	3.7222	1.7958	24.95	-0.03	0.750			
0.4973	31828.58	3.7190	3.7192	1.8335	24.95	-0.03	0.750			
0.5029	32187.82	3.7160	3.7160	1.8886	24.93	-0.05	0.750			
0.5088	32560.30	3.7130	3.7130	1.9066	24.91	-0.07	0.750			
0.5145	32929.21	3.7100	3.7100	1.9780	24.90	-0.08	0.750			
0.5206	33319.36	3.7070	3.7070	2.0469	24.88	-0.10	0.750			
0.5268	33713.72	3.7040	3.7037	2.0907	24.87	-0.11	0.750			
0.5330	34115.11	3.7010	3.7009	2.1368	24.86	-0.12	0.750			
0.5396	34537.54	3.6980	3.6979	2.2063	24.85	-0.13	0.750			
0.5463	34964.66	3.6950	3.6949	2.2607	24.84	-0.14	0.750			
0.5533	35410.81	3.6920	3.6924	2.3498	24.83	-0.15	0.750			
0.5605	35870.95	3.6890	3.6891	2.4019	24.82	-0.16	0.750			
0.5678	36336.23	3.6860	3.6861	2.4561	24.82	-0.16	0.750			
0.5755	36834.48	3.6830	3.6826	2.5020	24.81	-0.17	0.750			
0.5830	37311.81	3.6800	3.6799	2.4856	24.80	-0.18	0.750			
0.5906	37799.71	3.6770	3.6771	2.4579	24.80	-0.18	0.750			
0.5978	38258.29	3.6740	3.6741	2.4251	24.80	-0.18	0.750			
0.6050	38720.23	3.6710	3.6711	2.2619	24.80	-0.18	0.750			
0.6117	39147.35	3.6680	3.6680	2.1406	24.81	-0.17	0.750			
0.6179	39546.21	3.6650	3.6650	2.0113	24.81	-0.17	0.750			
0.6237	39916.10	3.6620	3.6620	1.8734	24.82	-0.16	0.750			
0.6292	40269.37	3.6590	3.6591	1.7906	24.83	-0.15	0.750			
0.6344	40599.55	3.6560	3.6559	1.6489	24.83	-0.15	0.750			
0.6389	40891.83	3.6530	3.6532	1.4935	24.84	-0.14	0.750			
0.6432	41166.11	3.6500	3.6501	1.3925	24.85	-0.13	0.750			
0.6472	41418.40	3.6470	3.6471	1.2924	24.86	-0.12	0.750			
0.6509	41655.21	3.6440	3.6435	1.2105	24.87	-0.11	0.750			
0.6543	41877.16	3.6410	3.6412	1.1448	24.88	-0.10	0.750			
0.6577	42090.89	3.6380	3.6380	1.0917	24.89	-0.09	0.750			
0.6609	42295.96	3.6350	3.6351	1.0478	24.90	-0.08	0.750			
0.6639	42489.53	3.6320	3.6320	0.9929	24.90	-0.08	0.750			
0.6668	42677.19	3.6290	3.6290	0.9540	24.91	-0.07	0.750			
0.6696	42855.48	3.6260	3.6260	0.9192	24.92	-0.06	0.750			
0.6723	43028.58	3.6230	3.6231	0.8851	24.93	-0.05	0.750			
0.6749	43195.17	3.6200	3.6199	0.8500	24.94	-0.04	0.750			
0.6775	43356.96	3.6170	3.6170	0.8154	24.95	-0.03	0.750			
0.6799	43510.92	3.6140	3.6140	0.7733	24.95	-0.03	0.750			
0.6822	43658.13	3.6110	3.6110	0.7244	24.96	-0.02	0.750			
0.6843	43792.72	3.6080	3.6080	0.6777	24.97	-0.01	0.750			
0.6862	43917.44	3.6050	3.6051	0.6159	24.97	-0.01	0.750			
0.6880	44029.42	3.6020	3.6015	0.5698	24.98	0.00	0.750			
0.6896	44132.60	3.5990	3.5992	0.5186	24.99	0.01	0.750			
0.6911	44227.49	3.5960	3.5962	0.4712	24.99	0.01	0.750			
0.6924	44314.32	3.5930	3.5931	0.4256	24.99	0.01	0.750			
0.6936	44390.60	3.5900	3.5902	0.3729	25.00	0.02	0.750			
0.6947	44459.01	3.5870	3.5870	0.3247	25.00	0.02	0.750			
0.6956	44517.61	3.5840	3.5840	0.2769	25.00	0.02	0.750			
0.6963	44565.84	3.5810	3.5810	0.2238	25.01	0.03	0.750			
0.6970	44605.21	3.5780	3.5781	0.1733	25.01	0.03	0.750			
0.6974	44633.68	3.5750	3.5753	0.1187	25.01	0.03	0.750			
0.6977	44651.22	3.5720	3.5731	0.0633	25.01	0.03	0.750			
