Ah_balance (normalized)	Ah_balance (mAh)	Voltage - fit (V)	Voltage -  interpolate (V)	dQ/dV (1/V)	Temperature (°C)	Temperature - diff (°C)	Current (C)	R_DC 0ms (mOhm)	R_DC 50ms (mOhm)	R_DC 50 ms PEC (mOhm)
0.0496	3176.93	4.1960	4.1960	0.7648	25.00	0.52	0.750			
0.0519	3324.74	4.1930	4.1930	0.7589	25.00	0.52	0.750			
0.0542	3466.34	4.1900	4.1900	0.7494	25.00	0.52	0.750			
0.0564	3608.31	4.1870	4.1870	0.7482	25.00	0.52	0.750			
0.0586	3750.42	4.1840	4.1841	0.7523	25.00	0.52	0.750			
0.0609	3895.08	4.1810	4.1809	0.7571	25.00	0.52	0.750			
0.0631	4040.94	4.1780	4.1780	0.7611	25.00	0.52	0.750			
0.0655	4190.33	4.1750	4.1749	0.7584	25.00	0.52	0.750			
0.0678	4336.27	4.1720	4.1721	0.7637	25.00	0.52	0.750			
0.0700	4481.41	4.1690	4.1691	0.7670	25.00	0.52	0.750			
0.0723	4628.78	4.1660	4.1656	0.7676	25.00	0.52	0.750			
0.0746	4776.71	4.1630	4.1631	0.7696	25.00	0.52	0.750			
0.0770	4924.94	4.1600	4.1601	0.7728	25.00	0.52	0.750			
0.0793	5074.46	4.1570	4.1570	0.7715	25.00	0.52	0.750			
0.0816	5224.55	4.1540	4.1539	0.7774	25.00	0.52	0.750			
0.0839	5369.80	4.1510	4.1511	0.7740	25.00	0.52	0.750			
0.0862	5518.67	4.1480	4.1480	0.7724	25.00	0.52	0.750			
0.0886	5668.67	4.1450	4.1450	0.7787	25.00	0.52	0.750			
0.0909	5817.99	4.1420	4.1420	0.7755	25.00	0.52	0.750			
0.0932	5966.80	4.1390	4.1390	0.7753	25.00	0.52	0.750			
0.0955	6115.15	4.1360	4.1360	0.7763	25.00	0.52	0.750			
0.0979	6262.87	4.1330	4.1328	0.7767	25.00	0.52	0.750			
0.1002	6411.22	4.1300	4.1301	0.7804	25.00	0.52	0.750			
0.1026	6564.84	4.1270	4.1269	0.7719	25.00	0.52	0.750			
0.1049	6712.09	4.1240	4.1241	0.7802	25.00	0.52	0.750			
0.1072	6860.81	4.1210	4.1211	0.7819	25.00	0.52	0.750			
0.1096	7011.58	4.1180	4.1180	0.7887	25.00	0.52	0.750			
0.1119	7163.45	4.1150	4.1151	0.7927	25.00	0.52	0.750			
0.1143	7315.19	4.1120	4.1121	0.7973	25.00	0.52	0.750			
0.1167	7470.41	4.1090	4.1091	0.7999	25.00	0.52	0.750			
0.1192	7628.20	4.1060	4.1059	0.8080	25.00	0.52	0.750			
0.1216	7779.55	4.1030	4.1030	0.7979	25.00	0.52	0.750			
0.1240	7933.40	4.1000	4.1000	0.8007	25.00	0.52	0.750			
0.1264	8088.05	4.0970	4.0970	0.7950	25.00	0.52	0.750			
0.1287	8239.71	4.0940	4.0940	0.7955	25.00	0.52	0.750			
0.1311	8390.45	4.0910	4.0911	0.8010	25.00	0.52	0.750			
0.1335	8545.16	4.0880	4.0880	0.8049	25.00	0.52	0.750			
0.1359	8700.14	4.0850	4.0849	0.8041	25.00	0.52	0.750			
0.1384	8855.45	4.0820	4.0821	0.8094	25.00	0.52	0.750			
0.1408	9009.93	4.0790	4.0791	0.8069	25.00	0.52	0.750			
0.1432	9165.34	4.0760	4.0760	0.8105	25.00	0.52	0.750			
0.1456	9318.16	4.0730	4.0730	0.8071	25.00	0.52	0.750			
0.1480	9473.14	4.0700	4.0695	0.8120	25.00	0.52	0.750			
0.1505	9630.98	4.0670	4.0673	0.8167	25.00	0.52	0.750			
0.1529	9787.79	4.0640	4.0640	0.8199	25.00	0.52	0.750			
0.1554	9945.86	4.0610	4.0611	0.8269	25.00	0.52	0.750			
0.1579	10102.88	4.0580	4.0580	0.8246	25.00	0.52	0.750			
0.1604	10263.34	4.0550	4.0548	0.8360	25.00	0.52	0.750			
0.1629	10427.41	4.0520	4.0520	0.8363	25.00	0.52	0.750			
0.1654	10587.16	4.0490	4.0491	0.8408	25.00	0.52	0.750			
0.1680	10750.95	4.0460	4.0461	0.8472	25.01	0.53	0.750			
0.1705	10911.86	4.0430	4.0430	0.8460	25.01	0.53	0.750			
0.1730	11073.02	4.0400	4.0398	0.8475	25.01	0.53	0.750			
0.1756	11236.41	4.0370	4.0370	0.8547	25.01	0.53	0.750			
0.1782	11402.66	4.0340	4.0340	0.8526	25.01	0.53	0.750			
0.1807	11565.32	4.0310	4.0310	0.8611	25.02	0.54	0.750			
0.1833	11729.16	4.0280	4.0281	0.8599	25.02	0.54	0.750			
0.1859	11895.99	4.0250	4.0251	0.8680	25.02	0.54	0.750			
0.1885	12062.87	4.0220	4.0221	0.8720	25.02	0.54	0.750			
0.1911	12232.28	4.0190	4.0190	0.8746	25.02	0.54	0.750			
0.1938	12402.16	4.0160	4.0160	0.8799	25.01	0.53	0.750			
0.1964	12570.08	4.0130	4.0130	0.8729	25.01	0.53	0.750			
0.1990	12737.10	4.0100	4.0100	0.8743	25.01	0.53	0.750			
0.2017	12908.10	4.0070	4.0070	0.8669	25.01	0.53	0.750			
0.2043	13072.27	4.0040	4.0040	0.8717	25.02	0.54	0.750			
0.2069	13239.04	4.0010	4.0011	0.8748	25.02	0.54	0.750			
0.2095	13407.03	3.9980	3.9979	0.8766	25.02	0.54	0.750			
0.2121	13574.41	3.9950	3.9951	0.8797	25.02	0.54	0.750			
0.2148	13746.08	3.9920	3.9920	0.8696	25.03	0.55	0.750			
0.2174	13910.93	3.9890	3.9891	0.8745	25.03	0.55	0.750			
0.2200	14077.89	3.9860	3.9862	0.8785	25.04	0.56	0.750			
0.2226	14246.85	3.9830	3.9823	0.8875	25.04	0.56	0.750			
0.2253	14418.94	3.9800	3.9801	0.8937	25.04	0.56	0.750			
0.2280	14592.49	3.9770	3.9773	0.9056	25.04	0.56	0.750			
0.2308	14770.05	3.9740	3.9740	0.9136	25.04	0.56	0.750			
0.2336	14949.19	3.9710	3.9710	0.9164	25.04	0.56	0.750			
0.2362	15117.86	3.9680	3.9680	0.9048	25.04	0.56	0.750			
0.2390	15294.55	3.9650	3.9649	0.8958	25.04	0.56	0.750			
0.2417	15466.46	3.9620	3.9621	0.9066	25.05	0.57	0.750			
0.2444	15640.08	3.9590	3.9591	0.9074	25.05	0.57	0.750			
0.2471	15813.48	3.9560	3.9558	0.9123	25.05	0.57	0.750			
0.2498	15990.04	3.9530	3.9531	0.9170	25.05	0.57	0.750			
0.2526	16165.98	3.9500	3.9500	0.9066	25.05	0.57	0.750			
0.2553	16338.55	3.9470	3.9472	0.9109	25.06	0.58	0.750			
0.2580	16511.57	3.9440	3.9442	0.9125	25.06	0.58	0.750			
0.2607	16687.24	3.9410	3.9404	0.9238	25.06	0.58	0.750			
0.2635	16866.23	3.9380	3.9382	0.9282	25.06	0.58	0.750			
0.2663	17045.14	3.9350	3.9352	0.9375	25.06	0.58	0.750			
0.2693	17232.05	3.9320	3.9320	0.9502	25.06	0.58	0.750			
0.2721	17412.03	3.9290	3.9290	0.9366	25.06	0.58	0.750			
0.2749	17594.77	3.9260	3.9259	0.9368	25.06	0.58	0.750			
0.2777	17774.90	3.9230	3.9230	0.9352	25.06	0.58	0.750			
0.2805	17953.95	3.9200	3.9201	0.9404	25.06	0.58	0.750			
0.2834	18135.01	3.9170	3.9171	0.9418	25.06	0.58	0.750			
0.2862	18313.67	3.9140	3.9140	0.9443	25.06	0.58	0.750			
0.2890	18495.99	3.9110	3.9111	0.9468	25.06	0.58	0.750			
0.2918	18673.78	3.9080	3.9081	0.9368	25.06	0.58	0.750			
0.2946	18853.35	3.9050	3.9051	0.9430	25.06	0.58	0.750			
0.2974	19034.00	3.9020	3.9016	0.9457	25.06	0.58	0.750			
0.3002	19214.97	3.8990	3.8991	0.9509	25.06	0.58	0.750			
0.3031	19399.61	3.8960	3.8962	0.9619	25.06	0.58	0.750			
0.3060	19586.48	3.8930	3.8931	0.9661	25.06	0.58	0.750			
0.3091	19780.50	3.8900	3.8898	0.9820	25.06	0.58	0.750			
0.3119	19962.65	3.8870	3.8872	0.9514	25.06	0.58	0.750			
0.3147	20143.36	3.8840	3.8839	0.9579	25.06	0.58	0.750			
0.3176	20326.51	3.8810	3.8812	0.9587	25.05	0.57	0.750			
0.3205	20508.88	3.8780	3.8780	0.9605	25.05	0.57	0.750			
0.3233	20693.98	3.8750	3.8748	0.9688	25.05	0.57	0.750			
0.3263	20882.88	3.8720	3.8720	0.9609	25.04	0.56	0.750			
0.3291	21065.14	3.8690	3.8691	0.9721	25.04	0.56	0.750			
0.3321	21252.30	3.8660	3.8661	0.9804	25.04	0.56	0.750			
0.3350	21438.25	3.8630	3.8624	0.9807	25.03	0.55	0.750			
0.3379	21628.42	3.8600	3.8601	0.9897	25.02	0.54	0.750			
0.3410	21820.93	3.8570	3.8571	0.9936	25.02	0.54	0.750			
0.3440	22013.42	3.8540	3.8540	0.9985	25.01	0.53	0.750			
0.3470	22209.72	3.8510	3.8510	1.0176	25.00	0.52	0.750			
0.3500	22401.27	3.8480	3.8480	0.9912	24.99	0.51	0.750			
0.3530	22593.41	3.8450	3.8449	0.9898	24.99	0.51	0.750			
0.3559	22779.61	3.8420	3.8422	0.9989	24.98	0.50	0.750			
0.3589	22969.78	3.8390	3.8392	1.0107	24.97	0.49	0.750			
0.3620	23167.33	3.8360	3.8361	1.0156	24.96	0.48	0.750			
0.3650	23361.63	3.8330	3.8331	1.0226	24.95	0.47	0.750	0.300	0.401	
0.3681	23559.39	3.8300	3.8302	1.0307	24.94	0.46	0.750			
0.3713	23764.38	3.8270	3.8271	1.0482	24.93	0.45	0.750			
0.3744	23962.86	3.8240	3.8241	1.0393	24.92	0.44	0.750			
0.3775	24160.36	3.8210	3.8210	1.0370	24.91	0.43	0.750			
0.3806	24359.83	3.8180	3.8180	1.0414	24.90	0.42	0.750			
0.3838	24562.24	3.8150	3.8150	1.0565	24.89	0.41	0.750			
0.3869	24762.57	3.8120	3.8120	1.0550	24.88	0.40	0.750			
0.3901	24966.50	3.8090	3.8090	1.0655	24.87	0.39	0.750			
0.3933	25171.32	3.8060	3.8059	1.0741	24.86	0.38	0.750			
0.3966	25379.80	3.8030	3.8030	1.0843	24.84	0.36	0.750			
0.3999	25591.71	3.8000	3.8000	1.0702	24.83	0.35	0.750			
0.4030	25794.86	3.7970	3.7970	1.0925	24.82	0.34	0.750			
0.4063	26003.53	3.7940	3.7941	1.1031	24.81	0.33	0.750			
0.4096	26215.80	3.7910	3.7907	1.1117	24.80	0.32	0.750			
0.4129	26428.69	3.7880	3.7881	1.1307	24.79	0.31	0.750			
0.4164	26647.60	3.7850	3.7851	1.1490	24.78	0.30	0.750			
0.4199	26871.86	3.7820	3.7820	1.1660	24.77	0.29	0.750			
0.4234	27096.78	3.7790	3.7790	1.1812	24.76	0.28	0.750			
0.4269	27323.31	3.7760	3.7761	1.1992	24.75	0.27	0.750			
0.4306	27555.48	3.7730	3.7730	1.2230	24.73	0.25	0.750			
0.4343	27797.59	3.7700	3.7697	1.2277	24.72	0.24	0.750			
0.4380	28032.41	3.7670	3.7671	1.2529	24.71	0.23	0.750			
0.4418	28272.10	3.7640	3.7642	1.2937	24.70	0.22	0.750			
0.4457	28522.45	3.7610	3.7611	1.3305	24.69	0.21	0.750			
0.4497	28782.60	3.7580	3.7581	1.3652	24.67	0.19	0.750			
0.4538	29045.36	3.7550	3.7551	1.3844	24.66	0.18	0.750			
0.4582	29322.18	3.7520	3.7521	1.4049	24.65	0.17	0.750			
0.4624	29593.66	3.7490	3.7490	1.4448	24.63	0.15	0.750			
0.4667	29870.23	3.7460	3.7459	1.4513	24.62	0.14	0.750			
0.4711	30153.60	3.7430	3.7429	1.4581	24.60	0.12	0.750			
0.4756	30435.72	3.7400	3.7403	1.4944	24.59	0.11	0.750			
0.4800	30717.56	3.7370	3.7365	1.5741	24.58	0.10	0.750			
0.4848	31025.23	3.7340	3.7338	1.6253	24.56	0.08	0.750			
0.4897	31343.62	3.7310	3.7314	1.6721	24.55	0.07	0.750			
0.4949	31672.40	3.7280	3.7285	1.7098	24.53	0.05	0.750			
0.5000	32002.24	3.7250	3.7247	1.7746	24.51	0.03	0.750			
0.5055	32353.18	3.7220	3.7218	1.8530	24.50	0.02	0.750			
0.5111	32707.89	3.7190	3.7188	1.8636	24.49	0.01	0.750			
0.5167	33068.26	3.7160	3.7161	1.9283	24.47	-0.01	0.750			
0.5226	33448.34	3.7130	3.7123	1.9663	24.46	-0.02	0.750			
0.5285	33822.45	3.7100	3.7102	2.0307	24.44	-0.04	0.750			
0.5346	34215.02	3.7070	3.7072	2.1032	24.42	-0.06	0.750			
0.5411	34629.82	3.7040	3.7036	2.2143	24.40	-0.08	0.750			
0.5476	35044.13	3.7010	3.7011	2.1931	24.38	-0.10	0.750			
0.5543	35476.87	3.6980	3.6979	2.2784	24.37	-0.11	0.750			
0.5614	35928.76	3.6950	3.6952	2.2851	24.36	-0.12	0.750			
0.5683	36371.06	3.6920	3.6921	2.3467	24.35	-0.13	0.750			
0.5752	36813.47	3.6890	3.6891	2.4604	24.34	-0.14	0.750			
0.5828	37297.06	3.6860	3.6864	2.5374	24.32	-0.16	0.750			
0.5905	37793.10	3.6830	3.6833	2.5390	24.32	-0.16	0.750			
0.5979	38266.61	3.6800	3.6795	2.5763	24.32	-0.16	0.750			
0.6060	38782.73	3.6770	3.6772	2.7636	24.31	-0.17	0.750			
0.6146	39332.69	3.6740	3.6743	2.9423	24.30	-0.18	0.750			
0.6231	39877.41	3.6710	3.6710	2.8492	24.30	-0.18	0.750			
0.6315	40417.59	3.6680	3.6680	2.7707	24.30	-0.18	0.750			
0.6400	40957.63	3.6650	3.6647	2.7025	24.31	-0.17	0.750			
0.6480	41474.78	3.6620	3.6622	2.5828	24.32	-0.16	0.750			
0.6559	41977.58	3.6590	3.6590	2.4874	24.33	-0.15	0.750			
0.6625	42399.48	3.6560	3.6561	2.2079	24.34	-0.14	0.750			
0.6685	42786.87	3.6530	3.6525	1.9818	24.35	-0.13	0.750			
0.6740	43134.25	3.6500	3.6499	1.7561	24.36	-0.12	0.750			
0.6788	43446.26	3.6470	3.6472	1.5761	24.37	-0.11	0.750			
0.6834	43737.08	3.6440	3.6443	1.4295	24.38	-0.10	0.750			
0.6876	44005.36	3.6410	3.6411	1.2715	24.38	-0.10	0.750			
0.6910	44225.90	3.6380	3.6380	1.1628	24.39	-0.09	0.750			
0.6941	44423.74	3.6350	3.6351	1.0403	24.39	-0.09	0.750			
0.6971	44612.60	3.6320	3.6318	0.9854	24.40	-0.08	0.750			
0.7000	44797.02	3.6290	3.6290	0.9394	24.41	-0.07	0.750			
0.7027	44969.69	3.6260	3.6262	0.9110	24.42	-0.06	0.750			
0.7053	45142.26	3.6230	3.6231	0.8919	24.42	-0.06	0.750			
0.7080	45312.35	3.6200	3.6200	0.8629	24.43	-0.05	0.750			
0.7106	45479.13	3.6170	3.6171	0.8314	24.44	-0.04	0.750			
0.7131	45640.44	3.6140	3.6141	0.8007	24.45	-0.03	0.750			
0.7155	45794.70	3.6110	3.6110	0.7445	24.46	-0.02	0.750			
0.7177	45934.84	3.6080	3.6080	0.6824	24.46	-0.02	0.750			
0.7197	46060.26	3.6050	3.6050	0.6053	24.47	-0.01	0.750			
0.7214	46169.24	3.6020	3.6020	0.5370	24.48	-0.00	0.750			
0.7229	46264.42	3.5990	3.5989	0.4615	24.48	0.00	0.750			
0.7241	46345.26	3.5960	3.5960	0.3951	24.48	0.00	0.750			
0.7252	46411.41	3.5930	3.5931	0.3350	24.49	0.01	0.750			
0.7261	46470.16	3.5900	3.5903	0.2799	24.49	0.01	0.750			
0.7268	46517.84	3.5870	3.5874	0.2261	24.49	0.01	0.750			
0.7274	46554.49	3.5840	3.5847	0.1767	24.50	0.02	0.750			
0.7278	46581.98	3.5810	3.5824	0.1381	24.50	0.02	0.750			
0.7282	46604.89	3.5780	3.5787	0.1116	24.50	0.02	0.750			
