Ah_balance (normalized)	Ah_balance (mAh)	Voltage - fit (V)	Voltage -  interpolate (V)	dQ/dV (1/V)	Temperature (°C)	Temperature - diff (°C)	Current (C)	R_DC 0ms (mOhm)	R_DC 50ms (mOhm)	R_DC 50 ms PEC (mOhm)
0.0463	2962.47	4.1990	4.1990	0.7358	25.67	0.49	0.750			
0.0485	3106.33	4.1960	4.1956	0.7573	25.67	0.49	0.750			
0.0508	3252.61	4.1930	4.1930	0.7636	25.67	0.49	0.750			
0.0532	3401.72	4.1900	4.1900	0.7622	25.67	0.49	0.750			
0.0554	3547.72	4.1870	4.1870	0.7650	25.67	0.49	0.750			
0.0577	3693.80	4.1840	4.1841	0.7638	25.67	0.49	0.750			
0.0600	3840.20	4.1810	4.1810	0.7659	25.67	0.49	0.750			
0.0623	3988.45	4.1780	4.1781	0.7660	25.67	0.49	0.750			
0.0646	4135.46	4.1750	4.1750	0.7685	25.67	0.49	0.750			
0.0669	4282.49	4.1720	4.1721	0.7626	25.67	0.49	0.750			
0.0692	4430.04	4.1690	4.1690	0.7650	25.67	0.49	0.750			
0.0715	4573.79	4.1660	4.1661	0.7660	25.67	0.49	0.750			
0.0738	4721.04	4.1630	4.1627	0.7702	25.67	0.49	0.750			
0.0761	4868.92	4.1600	4.1601	0.7745	25.67	0.49	0.750			
0.0784	5020.32	4.1570	4.1570	0.7720	25.67	0.49	0.750			
0.0808	5169.45	4.1540	4.1541	0.7779	25.66	0.48	0.750			
0.0831	5318.04	4.1510	4.1510	0.7732	25.66	0.48	0.750			
0.0854	5467.34	4.1480	4.1478	0.7750	25.66	0.48	0.750			
0.0877	5615.83	4.1450	4.1452	0.7744	25.66	0.48	0.750			
0.0901	5765.39	4.1420	4.1420	0.7742	25.66	0.48	0.750			
0.0924	5913.77	4.1390	4.1391	0.7760	25.66	0.48	0.750			
0.0948	6065.14	4.1360	4.1359	0.7790	25.66	0.48	0.750			
0.0971	6212.30	4.1330	4.1331	0.7747	25.66	0.48	0.750			
0.0994	6360.75	4.1300	4.1301	0.7767	25.66	0.48	0.750			
0.1017	6509.48	4.1270	4.1271	0.7784	25.66	0.48	0.750			
0.1040	6658.76	4.1240	4.1238	0.7745	25.66	0.48	0.750			
0.1064	6806.44	4.1210	4.1211	0.7777	25.66	0.48	0.750			
0.1087	6954.39	4.1180	4.1180	0.7838	25.66	0.48	0.750			
0.1110	7105.09	4.1150	4.1141	0.7943	25.66	0.48	0.750			
0.1134	7260.22	4.1120	4.1121	0.8025	25.66	0.48	0.750			
0.1159	7416.92	4.1090	4.1090	0.7929	25.66	0.48	0.750			
0.1183	7569.07	4.1060	4.1061	0.8026	25.66	0.48	0.750			
0.1207	7724.03	4.1030	4.1030	0.8089	25.66	0.48	0.750			
0.1231	7875.59	4.1000	4.0998	0.8080	25.66	0.48	0.750			
0.1255	8031.15	4.0970	4.0970	0.8123	25.66	0.48	0.750			
0.1279	8187.88	4.0940	4.0941	0.8155	25.66	0.48	0.750			
0.1304	8346.88	4.0910	4.0911	0.8207	25.65	0.47	0.750			
0.1329	8505.64	4.0880	4.0880	0.8189	25.65	0.47	0.750			
0.1354	8663.27	4.0850	4.0849	0.8199	25.65	0.47	0.750			
0.1378	8819.92	4.0820	4.0820	0.8194	25.65	0.47	0.750			
0.1403	8980.99	4.0790	4.0789	0.8081	25.65	0.47	0.750			
0.1427	9134.79	4.0760	4.0761	0.8175	25.66	0.48	0.750			
0.1452	9289.88	4.0730	4.0731	0.8217	25.66	0.48	0.750			
0.1476	9446.30	4.0700	4.0700	0.8265	25.66	0.48	0.750			
0.1501	9606.08	4.0670	4.0673	0.8325	25.66	0.48	0.750			
0.1527	9771.25	4.0640	4.0640	0.8257	25.66	0.48	0.750			
0.1551	9929.04	4.0610	4.0610	0.8313	25.66	0.48	0.750			
0.1577	10090.72	4.0580	4.0582	0.8386	25.66	0.48	0.750			
0.1601	10247.02	4.0550	4.0550	0.8297	25.66	0.48	0.750			
0.1626	10405.40	4.0520	4.0521	0.8362	25.66	0.48	0.750			
0.1651	10566.23	4.0490	4.0491	0.8349	25.66	0.48	0.750			
0.1676	10727.29	4.0460	4.0461	0.8470	25.67	0.49	0.750			
0.1702	10895.30	4.0430	4.0430	0.8565	25.67	0.49	0.750			
0.1727	11055.88	4.0400	4.0399	0.8513	25.67	0.49	0.750			
0.1753	11220.79	4.0370	4.0371	0.8576	25.67	0.49	0.750			
0.1780	11389.31	4.0340	4.0339	0.8440	25.67	0.49	0.750			
0.1804	11548.16	4.0310	4.0311	0.8559	25.67	0.49	0.750			
0.1830	11713.02	4.0280	4.0281	0.8631	25.67	0.49	0.750			
0.1856	11876.47	4.0250	4.0247	0.8652	25.67	0.49	0.750			
0.1882	12044.68	4.0220	4.0221	0.8717	25.67	0.49	0.750			
0.1908	12213.26	4.0190	4.0191	0.8665	25.67	0.49	0.750			
0.1934	12380.14	4.0160	4.0161	0.8712	25.68	0.50	0.750			
0.1961	12547.46	4.0130	4.0132	0.8699	25.68	0.50	0.750			
0.1987	12714.39	4.0100	4.0096	0.8745	25.68	0.50	0.750			
0.2013	12884.62	4.0070	4.0070	0.8749	25.68	0.50	0.750			
0.2039	13052.77	4.0040	4.0042	0.8837	25.68	0.50	0.750			
0.2067	13226.39	4.0010	4.0010	0.8922	25.69	0.51	0.750			
0.2093	13397.53	3.9980	3.9980	0.8988	25.69	0.51	0.750			
0.2120	13566.54	3.9950	3.9951	0.8938	25.69	0.51	0.750			
0.2147	13738.16	3.9920	3.9920	0.9015	25.69	0.51	0.750			
0.2174	13911.07	3.9890	3.9891	0.8912	25.70	0.52	0.750			
0.2200	14080.78	3.9860	3.9861	0.8941	25.70	0.52	0.750			
0.2227	14250.59	3.9830	3.9832	0.8987	25.70	0.52	0.750			
0.2254	14423.39	3.9800	3.9802	0.9048	25.70	0.52	0.750			
0.2281	14597.47	3.9770	3.9772	0.8965	25.70	0.52	0.750			
0.2308	14770.79	3.9740	3.9742	0.9092	25.71	0.53	0.750			
0.2336	14948.27	3.9710	3.9711	0.9194	25.71	0.53	0.750			
0.2363	15121.40	3.9680	3.9674	0.9132	25.71	0.53	0.750			
0.2390	15298.54	3.9650	3.9651	0.9145	25.71	0.53	0.750			
0.2418	15475.83	3.9620	3.9621	0.9223	25.71	0.53	0.750			
0.2446	15657.43	3.9590	3.9591	0.9306	25.71	0.53	0.750			
0.2474	15834.03	3.9560	3.9559	0.9189	25.71	0.53	0.750			
0.2502	16010.86	3.9530	3.9531	0.9228	25.71	0.53	0.750			
0.2529	16188.79	3.9500	3.9500	0.9087	25.72	0.54	0.750			
0.2556	16359.70	3.9470	3.9471	0.9167	25.72	0.54	0.750			
0.2583	16533.64	3.9440	3.9441	0.9186	25.73	0.55	0.750			
0.2611	16712.18	3.9410	3.9401	0.9317	25.73	0.55	0.750			
0.2640	16895.22	3.9380	3.9382	0.9269	25.73	0.55	0.750			
0.2668	17073.02	3.9350	3.9351	0.9371	25.73	0.55	0.750			
0.2696	17255.23	3.9320	3.9322	0.9515	25.73	0.55	0.750			
0.2724	17436.42	3.9290	3.9290	0.9382	25.73	0.55	0.750			
0.2753	17618.85	3.9260	3.9261	0.9402	25.73	0.55	0.750			
0.2781	17800.13	3.9230	3.9231	0.9445	25.73	0.55	0.750			
0.2810	17982.06	3.9200	3.9202	0.9501	25.74	0.56	0.750			
0.2839	18169.21	3.9170	3.9170	0.9572	25.74	0.56	0.750			
0.2867	18347.88	3.9140	3.9139	0.9484	25.74	0.56	0.750			
0.2896	18534.00	3.9110	3.9109	0.9290	25.74	0.56	0.750			
0.2923	18710.09	3.9080	3.9082	0.9491	25.75	0.57	0.750			
0.2952	18891.19	3.9050	3.9051	0.9554	25.75	0.57	0.750			
0.2980	19074.44	3.9020	3.9016	0.9599	25.75	0.57	0.750			
0.3010	19261.20	3.8990	3.8991	0.9582	25.75	0.57	0.750			
0.3038	19445.90	3.8960	3.8961	0.9688	25.75	0.57	0.750			
0.3068	19633.99	3.8930	3.8931	0.9721	25.75	0.57	0.750			
0.3097	19820.30	3.8900	3.8900	0.9639	25.75	0.57	0.750			
0.3126	20007.62	3.8870	3.8871	0.9684	25.75	0.57	0.750			
0.3155	20192.22	3.8840	3.8840	0.9754	25.75	0.57	0.750			
0.3184	20380.75	3.8810	3.8810	0.9837	25.75	0.57	0.750			
0.3214	20572.01	3.8780	3.8780	0.9919	25.75	0.57	0.750			
0.3244	20761.64	3.8750	3.8750	0.9895	25.75	0.57	0.750			
0.3274	20952.76	3.8720	3.8721	0.9799	25.75	0.57	0.750			
0.3303	21139.48	3.8690	3.8690	0.9779	25.75	0.57	0.750			
0.3332	21325.11	3.8660	3.8663	0.9834	25.75	0.57	0.750			
0.3361	21512.48	3.8630	3.8624	0.9820	25.75	0.57	0.750			
0.3391	21700.41	3.8600	3.8602	0.9863	25.74	0.56	0.750			
0.3420	21890.47	3.8570	3.8571	0.9984	25.74	0.56	0.750			
0.3451	22086.42	3.8540	3.8541	1.0109	25.73	0.55	0.750			
0.3481	22280.08	3.8510	3.8506	1.0062	25.72	0.54	0.750			
0.3512	22475.35	3.8480	3.8481	1.0119	25.72	0.54	0.750			
0.3542	22669.52	3.8450	3.8451	1.0186	25.71	0.53	0.750			
0.3573	22867.24	3.8420	3.8419	1.0244	25.71	0.53	0.750			
0.3603	23061.67	3.8390	3.8389	1.0270	25.70	0.52	0.750			
0.3634	23255.26	3.8360	3.8362	1.0325	25.69	0.51	0.750			
0.3664	23452.72	3.8330	3.8331	1.0380	25.69	0.51	0.750			
0.3696	23653.02	3.8300	3.8300	1.0499	25.68	0.50	0.750	0.303	0.401	
0.3727	23855.07	3.8270	3.8269	1.0578	25.67	0.49	0.750			
0.3760	24063.53	3.8240	3.8241	1.0461	25.66	0.48	0.750			
0.3792	24267.98	3.8210	3.8211	1.0615	25.65	0.47	0.750			
0.3823	24466.83	3.8180	3.8182	1.0559	25.64	0.46	0.750			
0.3856	24675.41	3.8150	3.8146	1.0720	25.63	0.45	0.750			
0.3887	24873.74	3.8120	3.8122	1.0627	25.63	0.45	0.750			
0.3919	25078.81	3.8090	3.8090	1.0717	25.62	0.44	0.750			
0.3951	25286.13	3.8060	3.8061	1.0800	25.62	0.44	0.750			
0.3984	25500.74	3.8030	3.8027	1.0937	25.61	0.43	0.750			
0.4017	25706.43	3.8000	3.8001	1.0711	25.60	0.42	0.750			
0.4048	25908.85	3.7970	3.7971	1.0903	25.59	0.41	0.750			
0.4081	26115.92	3.7940	3.7942	1.1036	25.58	0.40	0.750			
0.4114	26328.90	3.7910	3.7904	1.1271	25.57	0.39	0.750			
0.4148	26545.30	3.7880	3.7882	1.1324	25.56	0.38	0.750			
0.4182	26764.07	3.7850	3.7851	1.1555	25.55	0.37	0.750			
0.4217	26990.68	3.7820	3.7822	1.1820	25.54	0.36	0.750			
0.4253	27216.25	3.7790	3.7791	1.1811	25.52	0.34	0.750			
0.4288	27445.19	3.7760	3.7761	1.2054	25.51	0.33	0.750			
0.4325	27678.89	3.7730	3.7731	1.2341	25.50	0.32	0.750			
0.4363	27923.17	3.7700	3.7699	1.2322	25.49	0.31	0.750			
0.4400	28159.43	3.7670	3.7671	1.2624	25.48	0.30	0.750			
0.4438	28402.23	3.7640	3.7642	1.2973	25.47	0.29	0.750			
0.4478	28656.79	3.7610	3.7607	1.3104	25.46	0.28	0.750			
0.4517	28907.47	3.7580	3.7582	1.3492	25.45	0.27	0.750			
0.4558	29168.29	3.7550	3.7552	1.3876	25.44	0.26	0.750			
0.4601	29443.48	3.7520	3.7518	1.3878	25.43	0.25	0.750			
0.4643	29716.64	3.7490	3.7491	1.4506	25.42	0.24	0.750			
0.4686	29989.36	3.7460	3.7462	1.4640	25.40	0.22	0.750			
0.4732	30282.22	3.7430	3.7428	1.4685	25.38	0.20	0.750			
0.4777	30569.66	3.7400	3.7403	1.4918	25.37	0.19	0.750			
0.4821	30852.06	3.7370	3.7367	1.5496	25.36	0.18	0.750			
0.4867	31151.98	3.7340	3.7339	1.6210	25.35	0.17	0.750			
0.4917	31470.57	3.7310	3.7315	1.6910	25.34	0.16	0.750			
0.4968	31794.81	3.7280	3.7284	1.7434	25.32	0.14	0.750			
0.5022	32137.94	3.7250	3.7245	1.7981	25.31	0.13	0.750			
0.5079	32508.66	3.7220	3.7217	1.8328	25.29	0.11	0.750			
0.5135	32863.65	3.7190	3.7185	1.8623	25.27	0.09	0.750			
0.5189	33210.63	3.7160	3.7157	1.9524	25.26	0.08	0.750			
0.5248	33587.20	3.7130	3.7134	1.9895	25.25	0.07	0.750			
0.5309	33980.27	3.7100	3.7095	2.0451	25.23	0.05	0.750			
0.5372	34382.05	3.7070	3.7074	2.0823	25.21	0.03	0.750			
0.5437	34797.90	3.7040	3.7042	2.1698	25.19	0.01	0.750			
0.5501	35209.27	3.7010	3.7004	2.2599	25.18	-0.00	0.750			
0.5570	35647.43	3.6980	3.6981	2.3192	25.16	-0.02	0.750			
0.5643	36115.83	3.6950	3.6951	2.3482	25.14	-0.04	0.750			
0.5712	36556.77	3.6920	3.6916	2.3414	25.13	-0.05	0.750			
0.5785	37027.06	3.6890	3.6887	2.4659	25.11	-0.07	0.750			
0.5861	37508.57	3.6860	3.6861	2.5145	25.10	-0.08	0.750			
0.5941	38019.95	3.6830	3.6828	2.8138	25.09	-0.09	0.750			
0.6023	38546.92	3.6800	3.6805	2.7361	25.07	-0.11	0.750			
0.6108	39093.18	3.6770	3.6765	2.8865	25.06	-0.12	0.750			
0.6191	39622.03	3.6740	3.6738	2.7881	25.05	-0.13	0.750			
0.6275	40162.91	3.6710	3.6707	2.7547	25.03	-0.15	0.750			
0.6362	40718.54	3.6680	3.6677	2.8165	25.02	-0.16	0.750			
0.6446	41253.79	3.6650	3.6650	2.8305	25.03	-0.15	0.750			
0.6529	41784.94	3.6620	3.6624	2.6952	25.03	-0.15	0.750			
0.6611	42308.45	3.6590	3.6598	2.5301	25.04	-0.14	0.750			
0.6687	42797.88	3.6560	3.6558	2.3615	25.05	-0.13	0.750			
0.6749	43195.00	3.6530	3.6533	2.0583	25.05	-0.13	0.750			
0.6806	43558.92	3.6500	3.6500	1.8524	25.06	-0.12	0.750			
0.6857	43887.55	3.6470	3.6467	1.6512	25.06	-0.12	0.750			
0.6905	44190.22	3.6440	3.6444	1.4909	25.07	-0.11	0.750			
0.6949	44474.62	3.6410	3.6411	1.3644	25.07	-0.11	0.750			
0.6986	44708.68	3.6380	3.6378	1.2024	25.08	-0.10	0.750			
0.7020	44928.08	3.6350	3.6349	1.0625	25.09	-0.09	0.750			
0.7049	45112.20	3.6320	3.6320	1.0082	25.09	-0.09	0.750			
0.7077	45292.97	3.6290	3.6292	0.9437	25.09	-0.09	0.750			
0.7105	45469.36	3.6260	3.6257	0.8953	25.10	-0.08	0.750			
0.7130	45632.79	3.6230	3.6233	0.8814	25.11	-0.07	0.750			
0.7155	45795.06	3.6200	3.6205	0.8639	25.11	-0.07	0.750			
0.7182	45962.56	3.6170	3.6174	0.8621	25.12	-0.06	0.750			
0.7208	46133.48	3.6140	3.6143	0.8248	25.13	-0.05	0.750			
0.7233	46292.92	3.6110	3.6106	0.7930	25.14	-0.04	0.750			
0.7258	46448.18	3.6080	3.6084	0.7337	25.15	-0.03	0.750			
0.7281	46601.30	3.6050	3.6050	0.6843	25.16	-0.02	0.750			
0.7299	46712.02	3.6020	3.6020	0.5780	25.16	-0.02	0.750			
0.7315	46817.30	3.5990	3.5989	0.5108	25.17	-0.01	0.750			
0.7328	46898.51	3.5960	3.5959	0.4266	25.17	-0.01	0.750			
0.7339	46972.68	3.5930	3.5930	0.3655	25.17	-0.01	0.750			
0.7349	47036.52	3.5900	3.5900	0.3076	25.18	-0.00	0.750			
0.7358	47090.84	3.5870	3.5869	0.2555	25.18	-0.00	0.750			
0.7365	47134.66	3.5840	3.5841	0.2022	25.18	0.00	0.750			
0.7370	47168.82	3.5810	3.5813	0.1482	25.18	0.00	0.750			
0.7374	47192.05	3.5780	3.5787	0.0894	25.18	0.00	0.750			
