Ah_balance (normalized)	Ah_balance (mAh)	Voltage - fit (V)	Voltage -  interpolate (V)	dQ/dV (1/V)	Temperature (°C)	Temperature - diff (°C)	Current (C)	R_DC 0ms (mOhm)	R_DC 50ms (mOhm)	R_DC 50 ms PEC (mOhm)
0.0470	3011.07	4.1980	4.1981	0.7339	25.57	0.38	0.750			
0.0493	3157.30	4.1950	4.1951	0.7646	25.57	0.38	0.750			
0.0516	3304.48	4.1920	4.1921	0.7659	25.57	0.38	0.750			
0.0539	3451.38	4.1890	4.1891	0.7662	25.57	0.38	0.750			
0.0562	3599.50	4.1860	4.1860	0.7687	25.57	0.38	0.750			
0.0585	3746.84	4.1830	4.1830	0.7593	25.57	0.38	0.750			
0.0608	3892.03	4.1800	4.1799	0.7596	25.57	0.38	0.750			
0.0631	4037.55	4.1770	4.1771	0.7611	25.57	0.38	0.750			
0.0654	4185.26	4.1740	4.1739	0.7577	25.58	0.39	0.750			
0.0677	4329.64	4.1710	4.1709	0.7597	25.58	0.39	0.750			
0.0699	4473.97	4.1680	4.1681	0.7669	25.58	0.39	0.750			
0.0722	4621.99	4.1650	4.1650	0.7694	25.59	0.40	0.750			
0.0746	4771.53	4.1620	4.1620	0.7757	25.59	0.40	0.750			
0.0769	4920.43	4.1590	4.1591	0.7741	25.59	0.40	0.750			
0.0792	5070.05	4.1560	4.1561	0.7696	25.59	0.40	0.750			
0.0815	5217.73	4.1530	4.1531	0.7742	25.59	0.40	0.750			
0.0838	5363.60	4.1500	4.1501	0.7692	25.59	0.40	0.750			
0.0861	5510.86	4.1470	4.1471	0.7693	25.59	0.40	0.750			
0.0884	5659.63	4.1440	4.1441	0.7758	25.59	0.40	0.750			
0.0908	5808.69	4.1410	4.1411	0.7762	25.60	0.41	0.750			
0.0931	5960.62	4.1380	4.1380	0.7848	25.60	0.41	0.750			
0.0955	6109.40	4.1350	4.1350	0.7801	25.61	0.42	0.750			
0.0978	6260.12	4.1320	4.1319	0.7828	25.61	0.42	0.750			
0.1002	6410.94	4.1290	4.1290	0.7839	25.61	0.42	0.750			
0.1026	6563.45	4.1260	4.1260	0.7799	25.61	0.42	0.750			
0.1049	6712.16	4.1230	4.1230	0.7863	25.61	0.42	0.750			
0.1072	6863.08	4.1200	4.1200	0.7889	25.61	0.42	0.750			
0.1096	7014.47	4.1170	4.1171	0.7900	25.61	0.42	0.750			
0.1120	7166.29	4.1140	4.1142	0.7893	25.61	0.42	0.750			
0.1143	7318.35	4.1110	4.1110	0.7912	25.61	0.42	0.750			
0.1167	7471.21	4.1080	4.1080	0.7820	25.61	0.42	0.750			
0.1190	7618.61	4.1050	4.1050	0.7866	25.62	0.43	0.750			
0.1214	7766.87	4.1020	4.1022	0.7888	25.62	0.43	0.750			
0.1237	7919.92	4.0990	4.0985	0.7943	25.62	0.43	0.750			
0.1261	8072.83	4.0960	4.0961	0.8022	25.62	0.43	0.750			
0.1286	8228.62	4.0930	4.0931	0.8056	25.62	0.43	0.750			
0.1310	8385.63	4.0900	4.0900	0.8114	25.63	0.44	0.750			
0.1334	8540.14	4.0870	4.0870	0.8035	25.63	0.44	0.750			
0.1359	8694.74	4.0840	4.0839	0.8094	25.63	0.44	0.750			
0.1383	8850.33	4.0810	4.0811	0.8121	25.63	0.44	0.750			
0.1407	9007.45	4.0780	4.0780	0.8128	25.63	0.44	0.750			
0.1432	9163.18	4.0750	4.0750	0.8153	25.63	0.44	0.750			
0.1456	9319.43	4.0720	4.0721	0.8185	25.63	0.44	0.750			
0.1481	9477.29	4.0690	4.0688	0.8249	25.63	0.44	0.750			
0.1506	9636.93	4.0660	4.0660	0.8272	25.63	0.44	0.750			
0.1531	9795.90	4.0630	4.0631	0.8294	25.63	0.44	0.750			
0.1555	9953.89	4.0600	4.0600	0.8246	25.64	0.45	0.750			
0.1580	10111.29	4.0570	4.0570	0.8280	25.64	0.45	0.750			
0.1604	10267.25	4.0540	4.0537	0.8290	25.64	0.45	0.750			
0.1629	10426.64	4.0510	4.0511	0.8361	25.64	0.45	0.750			
0.1655	10588.99	4.0480	4.0481	0.8413	25.64	0.45	0.750			
0.1680	10753.56	4.0450	4.0450	0.8443	25.65	0.46	0.750			
0.1706	10920.82	4.0420	4.0420	0.8524	25.65	0.46	0.750			
0.1731	11077.99	4.0390	4.0390	0.8384	25.65	0.46	0.750			
0.1756	11237.82	4.0360	4.0360	0.8417	25.65	0.46	0.750			
0.1781	11400.15	4.0330	4.0330	0.8386	25.66	0.47	0.750			
0.1806	11559.58	4.0300	4.0300	0.8443	25.66	0.47	0.750			
0.1832	11721.62	4.0270	4.0271	0.8499	25.67	0.48	0.750			
0.1857	11886.17	4.0240	4.0237	0.8567	25.67	0.48	0.750			
0.1883	12051.44	4.0210	4.0210	0.8623	25.67	0.48	0.750			
0.1909	12218.43	4.0180	4.0180	0.8574	25.67	0.48	0.750			
0.1935	12382.19	4.0150	4.0151	0.8615	25.67	0.48	0.750			
0.1960	12546.69	4.0120	4.0121	0.8622	25.67	0.48	0.750			
0.1986	12712.33	4.0090	4.0090	0.8665	25.67	0.48	0.750			
0.2012	12878.78	4.0060	4.0061	0.8708	25.67	0.48	0.750			
0.2039	13047.11	4.0030	4.0030	0.8747	25.68	0.49	0.750			
0.2065	13217.36	4.0000	4.0001	0.8827	25.68	0.49	0.750			
0.2092	13387.21	3.9970	3.9970	0.8779	25.69	0.50	0.750			
0.2118	13555.51	3.9940	3.9939	0.8787	25.69	0.50	0.750			
0.2145	13726.68	3.9910	3.9909	0.8686	25.69	0.50	0.750			
0.2170	13890.54	3.9880	3.9882	0.8789	25.69	0.50	0.750			
0.2197	14058.60	3.9850	3.9850	0.8840	25.69	0.50	0.750			
0.2223	14227.73	3.9820	3.9821	0.8898	25.69	0.50	0.750			
0.2250	14400.10	3.9790	3.9791	0.8916	25.69	0.50	0.750			
0.2278	14576.96	3.9760	3.9760	0.8792	25.70	0.51	0.750			
0.2304	14743.86	3.9730	3.9731	0.8833	25.70	0.51	0.750			
0.2330	14910.67	3.9700	3.9700	0.8796	25.71	0.52	0.750			
0.2356	15078.93	3.9670	3.9666	0.8861	25.71	0.52	0.750			
0.2383	15249.74	3.9640	3.9641	0.8947	25.71	0.52	0.750			
0.2410	15422.27	3.9610	3.9611	0.9036	25.71	0.52	0.750			
0.2437	15599.21	3.9580	3.9580	0.9119	25.71	0.52	0.750			
0.2466	15779.98	3.9550	3.9550	0.9196	25.71	0.52	0.750			
0.2492	15951.39	3.9520	3.9520	0.9120	25.71	0.52	0.750			
0.2520	16128.16	3.9490	3.9490	0.9052	25.72	0.53	0.750			
0.2547	16301.37	3.9460	3.9460	0.9110	25.72	0.53	0.750			
0.2574	16476.07	3.9430	3.9430	0.9098	25.72	0.53	0.750			
0.2601	16649.49	3.9400	3.9399	0.9136	25.73	0.54	0.750			
0.2629	16824.86	3.9370	3.9371	0.9177	25.73	0.54	0.750			
0.2656	17001.28	3.9340	3.9340	0.9097	25.73	0.54	0.750			
0.2683	17174.16	3.9310	3.9311	0.9163	25.73	0.54	0.750			
0.2711	17350.64	3.9280	3.9282	0.9240	25.73	0.54	0.750			
0.2738	17525.70	3.9250	3.9245	0.9260	25.73	0.54	0.750			
0.2767	17706.14	3.9220	3.9221	0.9299	25.73	0.54	0.750			
0.2795	17885.75	3.9190	3.9191	0.9309	25.73	0.54	0.750			
0.2823	18068.60	3.9160	3.9160	0.9368	25.74	0.55	0.750			
0.2851	18246.69	3.9130	3.9131	0.9233	25.74	0.55	0.750			
0.2879	18423.83	3.9100	3.9099	0.9201	25.74	0.55	0.750			
0.2906	18600.03	3.9070	3.9070	0.9250	25.74	0.55	0.750			
0.2934	18776.11	3.9040	3.9040	0.9246	25.73	0.54	0.750			
0.2962	18954.44	3.9010	3.9010	0.9310	25.73	0.54	0.750			
0.2990	19133.40	3.8980	3.8981	0.9382	25.73	0.54	0.750			
0.3019	19319.88	3.8950	3.8949	0.9185	25.73	0.54	0.750			
0.3046	19492.88	3.8920	3.8920	0.9313	25.73	0.54	0.750			
0.3073	19669.57	3.8890	3.8892	0.9370	25.73	0.54	0.750			
0.3101	19848.38	3.8860	3.8863	0.9367	25.73	0.54	0.750			
0.3130	20030.10	3.8830	3.8831	0.9438	25.73	0.54	0.750			
0.3158	20211.65	3.8800	3.8801	0.9466	25.72	0.53	0.750			
0.3187	20395.24	3.8770	3.8771	0.9528	25.72	0.53	0.750			
0.3216	20581.87	3.8740	3.8740	0.9479	25.71	0.52	0.750			
0.3244	20764.14	3.8710	3.8709	0.9517	25.71	0.52	0.750			
0.3273	20946.67	3.8680	3.8680	0.9472	25.70	0.51	0.750			
0.3302	21129.75	3.8650	3.8651	0.9509	25.70	0.51	0.750			
0.3330	21312.10	3.8620	3.8620	0.9543	25.69	0.50	0.750			
0.3359	21495.09	3.8590	3.8586	0.9516	25.69	0.50	0.750			
0.3387	21676.74	3.8560	3.8560	0.9522	25.68	0.49	0.750			
0.3415	21858.31	3.8530	3.8530	0.9398	25.68	0.49	0.750			
0.3443	22036.28	3.8500	3.8502	0.9509	25.67	0.48	0.750			
0.3472	22219.99	3.8470	3.8472	0.9589	25.66	0.47	0.750			
0.3501	22403.29	3.8440	3.8441	0.9587	25.66	0.47	0.750			
0.3529	22587.33	3.8410	3.8412	0.9754	25.65	0.46	0.750			
0.3559	22776.75	3.8380	3.8381	0.9914	25.64	0.45	0.750			
0.3589	22970.52	3.8350	3.8350	0.9959	25.63	0.44	0.750			
0.3619	23161.61	3.8320	3.8322	0.9936	25.63	0.44	0.750	0.333	0.408	
0.3649	23351.98	3.8290	3.8291	0.9899	25.62	0.43	0.750			
0.3679	23542.99	3.8260	3.8260	0.9966	25.61	0.42	0.750			
0.3708	23733.24	3.8230	3.8231	1.0011	25.60	0.41	0.750			
0.3738	23923.35	3.8200	3.8196	0.9990	25.59	0.40	0.750			
0.3768	24116.05	3.8170	3.8173	1.0022	25.58	0.39	0.750			
0.3798	24308.74	3.8140	3.8141	1.0192	25.57	0.38	0.750			
0.3829	24506.10	3.8110	3.8111	1.0326	25.56	0.37	0.750			
0.3860	24705.18	3.8080	3.8081	1.0289	25.55	0.36	0.750			
0.3891	24903.85	3.8050	3.8051	1.0465	25.54	0.35	0.750			
0.3923	25107.23	3.8020	3.8021	1.0594	25.53	0.34	0.750			
0.3955	25314.39	3.7990	3.7990	1.0738	25.52	0.33	0.750			
0.3988	25520.50	3.7960	3.7958	1.0686	25.51	0.32	0.750			
0.4019	25723.45	3.7930	3.7931	1.0857	25.50	0.31	0.750			
0.4052	25932.68	3.7900	3.7900	1.1051	25.49	0.30	0.750			
0.4086	26147.75	3.7870	3.7870	1.1216	25.48	0.29	0.750			
0.4120	26365.90	3.7840	3.7839	1.1260	25.47	0.28	0.750			
0.4153	26582.05	3.7810	3.7811	1.1558	25.46	0.27	0.750			
0.4188	26805.43	3.7780	3.7781	1.1783	25.44	0.25	0.750			
0.4224	27034.17	3.7750	3.7747	1.2017	25.43	0.24	0.750			
0.4260	27265.52	3.7720	3.7721	1.2152	25.42	0.23	0.750			
0.4297	27502.34	3.7690	3.7691	1.2427	25.41	0.22	0.750			
0.4335	27746.10	3.7660	3.7660	1.2673	25.41	0.22	0.750			
0.4374	27992.93	3.7630	3.7629	1.2930	25.40	0.21	0.750			
0.4412	28238.05	3.7600	3.7600	1.3089	25.38	0.19	0.750			
0.4452	28492.39	3.7570	3.7571	1.3399	25.37	0.18	0.750			
0.4493	28754.74	3.7540	3.7541	1.3501	25.36	0.17	0.750			
0.4533	29009.90	3.7510	3.7511	1.3857	25.35	0.16	0.750			
0.4574	29274.80	3.7480	3.7481	1.4161	25.34	0.15	0.750			
0.4617	29550.34	3.7450	3.7452	1.4419	25.33	0.14	0.750			
0.4661	29828.00	3.7420	3.7422	1.4760	25.31	0.12	0.750			
0.4705	30114.89	3.7390	3.7392	1.5251	25.29	0.10	0.750			
0.4753	30418.24	3.7360	3.7355	1.5537	25.28	0.09	0.750			
0.4800	30720.69	3.7330	3.7327	1.5732	25.27	0.08	0.750			
0.4848	31026.92	3.7300	3.7300	1.6233	25.26	0.07	0.750			
0.4898	31348.82	3.7270	3.7267	1.6776	25.25	0.06	0.750			
0.4949	31676.36	3.7240	3.7240	1.7130	25.23	0.04	0.750			
0.5001	32005.31	3.7210	3.7211	1.7846	25.21	0.02	0.750			
0.5055	32354.32	3.7180	3.7184	1.8907	25.20	0.01	0.750			
0.5113	32721.76	3.7150	3.7152	1.9421	25.18	-0.01	0.750			
0.5172	33098.72	3.7120	3.7114	2.0042	25.16	-0.03	0.750			
0.5232	33486.23	3.7090	3.7090	2.0110	25.15	-0.04	0.750			
0.5294	33883.87	3.7060	3.7063	2.0809	25.14	-0.05	0.750			
0.5356	34279.64	3.7030	3.7026	2.0624	25.12	-0.07	0.750			
0.5419	34682.24	3.7000	3.7003	2.2302	25.11	-0.08	0.750			
0.5488	35121.32	3.6970	3.6969	2.2764	25.10	-0.09	0.750			
0.5557	35563.44	3.6940	3.6938	2.3753	25.09	-0.10	0.750			
0.5626	36004.64	3.6910	3.6910	2.3930	25.08	-0.11	0.750			
0.5699	36471.66	3.6880	3.6879	2.3975	25.07	-0.12	0.750			
0.5771	36933.37	3.6850	3.6848	2.4299	25.05	-0.14	0.750			
0.5847	37421.82	3.6820	3.6821	2.5898	25.04	-0.15	0.750			
0.5927	37931.12	3.6790	3.6786	2.8344	25.04	-0.15	0.750			
0.6014	38486.81	3.6760	3.6752	3.0431	25.04	-0.15	0.750			
0.6106	39081.28	3.6730	3.6731	2.9872	25.04	-0.15	0.750			
0.6199	39672.66	3.6700	3.6696	2.9204	25.04	-0.15	0.750			
0.6279	40185.15	3.6670	3.6669	2.6388	25.04	-0.15	0.750			
0.6357	40685.27	3.6640	3.6641	2.4591	25.04	-0.15	0.750			
0.6430	41151.16	3.6610	3.6612	2.2622	25.05	-0.14	0.750			
0.6493	41555.76	3.6580	3.6583	2.0429	25.06	-0.13	0.750			
0.6553	41936.09	3.6550	3.6554	1.8948	25.07	-0.12	0.750			
0.6607	42284.88	3.6520	3.6520	1.7534	25.08	-0.11	0.750			
0.6656	42598.37	3.6490	3.6492	1.5975	25.09	-0.10	0.750			
0.6702	42894.65	3.6460	3.6461	1.4791	25.09	-0.10	0.750			
0.6745	43168.75	3.6430	3.6429	1.3447	25.10	-0.09	0.750			
0.6782	43402.90	3.6400	3.6400	1.2390	25.11	-0.08	0.750			
0.6816	43619.45	3.6370	3.6371	1.1366	25.11	-0.08	0.750			
0.6848	43827.45	3.6340	3.6339	1.0769	25.12	-0.07	0.750			
0.6879	44023.13	3.6310	3.6311	1.0180	25.12	-0.07	0.750			
0.6908	44213.00	3.6280	3.6281	0.9813	25.13	-0.06	0.750			
0.6937	44397.67	3.6250	3.6251	0.9544	25.13	-0.06	0.750			
0.6965	44579.17	3.6220	3.6219	0.9196	25.14	-0.05	0.750			
0.6993	44754.50	3.6190	3.6189	0.8895	25.14	-0.05	0.750			
0.7019	44924.18	3.6160	3.6160	0.8578	25.15	-0.04	0.750			
0.7045	45088.13	3.6130	3.6130	0.8047	25.16	-0.03	0.750			
0.7069	45239.69	3.6100	3.6101	0.7517	25.17	-0.02	0.750			
0.7091	45381.97	3.6070	3.6070	0.6811	25.18	-0.01	0.750			
0.7110	45504.39	3.6040	3.6037	0.6219	25.19	0.00	0.750			
0.7128	45616.35	3.6010	3.6011	0.5614	25.20	0.01	0.750			
0.7143	45716.44	3.5980	3.5980	0.5045	25.20	0.01	0.750			
0.7157	45807.32	3.5950	3.5952	0.4505	25.21	0.02	0.750			
0.7170	45888.85	3.5920	3.5921	0.3964	25.21	0.02	0.750			
0.7181	45961.40	3.5890	3.5891	0.3454	25.22	0.03	0.750			
0.7192	46025.71	3.5860	3.5858	0.3006	25.22	0.03	0.750			
0.7199	46074.81	3.5830	3.5831	0.2382	25.23	0.04	0.750			
0.7206	46115.75	3.5800	3.5801	0.1862	25.23	0.04	0.750			
0.7210	46146.80	3.5770	3.5774	0.1325	25.23	0.04	0.750			
0.7214	46167.28	3.5740	3.5754	0.0696	25.23	0.04	0.751			
