Ah_balance (normalized)	Ah_balance (mAh)	Voltage - fit (V)	Voltage -  interpolate (V)	dQ/dV (1/V)	Temperature (°C)	Temperature - diff (°C)	Current (C)	R_DC 0ms (mOhm)	R_DC 50ms (mOhm)	R_DC 50 ms PEC (mOhm)
0.0462	2958.15	4.1990	4.1990	0.7648	25.69	0.49	0.750			
0.0485	3103.68	4.1960	4.1961	0.7573	25.69	0.49	0.750			
0.0508	3249.51	4.1930	4.1929	0.7608	25.69	0.49	0.750			
0.0531	3395.62	4.1900	4.1900	0.7636	25.69	0.49	0.750			
0.0554	3542.50	4.1870	4.1870	0.7650	25.69	0.49	0.750			
0.0577	3690.16	4.1840	4.1840	0.7613	25.69	0.49	0.750			
0.0600	3837.28	4.1810	4.1810	0.7606	25.68	0.48	0.750			
0.0622	3981.50	4.1780	4.1781	0.7633	25.68	0.48	0.750			
0.0645	4127.61	4.1750	4.1748	0.7645	25.68	0.48	0.750			
0.0668	4274.10	4.1720	4.1720	0.7686	25.68	0.48	0.750			
0.0691	4423.12	4.1690	4.1690	0.7676	25.68	0.48	0.750			
0.0714	4572.04	4.1660	4.1660	0.7716	25.69	0.49	0.750			
0.0738	4720.47	4.1630	4.1630	0.7704	25.69	0.49	0.750			
0.0761	4868.09	4.1600	4.1600	0.7715	25.69	0.49	0.750			
0.0784	5014.67	4.1570	4.1571	0.7721	25.69	0.49	0.750			
0.0807	5163.64	4.1540	4.1539	0.7726	25.69	0.49	0.750			
0.0830	5311.97	4.1510	4.1510	0.7737	25.69	0.49	0.750			
0.0853	5461.68	4.1480	4.1480	0.7827	25.69	0.49	0.750			
0.0877	5610.95	4.1450	4.1450	0.7809	25.69	0.49	0.750			
0.0900	5762.08	4.1420	4.1420	0.7854	25.69	0.49	0.750			
0.0924	5913.90	4.1390	4.1390	0.7845	25.69	0.49	0.750			
0.0948	6066.35	4.1360	4.1360	0.7755	25.69	0.49	0.750			
0.0971	6213.67	4.1330	4.1331	0.7780	25.69	0.49	0.750			
0.0994	6361.08	4.1300	4.1301	0.7781	25.69	0.49	0.750			
0.1017	6509.41	4.1270	4.1266	0.7789	25.69	0.49	0.750			
0.1040	6659.04	4.1240	4.1241	0.7802	25.69	0.49	0.750			
0.1064	6812.31	4.1210	4.1211	0.7690	25.69	0.49	0.750			
0.1088	6962.50	4.1180	4.1180	0.7782	25.68	0.48	0.750			
0.1110	7106.91	4.1150	4.1151	0.7788	25.68	0.48	0.750			
0.1134	7255.45	4.1120	4.1122	0.7849	25.68	0.48	0.750			
0.1157	7405.86	4.1090	4.1091	0.7908	25.68	0.48	0.750			
0.1181	7559.81	4.1060	4.1061	0.8016	25.68	0.48	0.750			
0.1206	7717.59	4.1030	4.1031	0.8111	25.68	0.48	0.750			
0.1231	7876.20	4.1000	4.1000	0.8111	25.68	0.48	0.750			
0.1255	8032.06	4.0970	4.0969	0.8044	25.68	0.48	0.750			
0.1279	8185.71	4.0940	4.0940	0.7975	25.68	0.48	0.750			
0.1303	8337.92	4.0910	4.0911	0.7987	25.68	0.48	0.750			
0.1326	8489.49	4.0880	4.0880	0.7984	25.68	0.48	0.750			
0.1350	8641.53	4.0850	4.0849	0.8023	25.69	0.49	0.750			
0.1374	8794.92	4.0820	4.0821	0.8118	25.69	0.49	0.750			
0.1399	8953.93	4.0790	4.0791	0.8213	25.69	0.49	0.750			
0.1424	9113.41	4.0760	4.0760	0.8245	25.69	0.49	0.750			
0.1450	9277.57	4.0730	4.0729	0.8078	25.69	0.49	0.750			
0.1473	9428.75	4.0700	4.0702	0.8222	25.69	0.49	0.750			
0.1497	9582.62	4.0670	4.0672	0.8310	25.69	0.49	0.750			
0.1522	9743.28	4.0640	4.0634	0.8461	25.69	0.49	0.750			
0.1548	9907.38	4.0610	4.0613	0.8494	25.69	0.49	0.750			
0.1574	10074.53	4.0580	4.0582	0.8600	25.69	0.49	0.750			
0.1601	10245.83	4.0550	4.0551	0.8697	25.69	0.49	0.750			
0.1628	10416.37	4.0520	4.0519	0.8701	25.69	0.49	0.750			
0.1652	10573.38	4.0490	4.0490	0.8490	25.69	0.49	0.750			
0.1678	10738.43	4.0460	4.0460	0.8388	25.69	0.49	0.750			
0.1702	10894.55	4.0430	4.0431	0.8503	25.69	0.49	0.750			
0.1728	11059.18	4.0400	4.0400	0.8529	25.69	0.49	0.750			
0.1754	11223.46	4.0370	4.0370	0.8502	25.69	0.49	0.750			
0.1779	11386.83	4.0340	4.0338	0.8501	25.69	0.49	0.750			
0.1805	11552.67	4.0310	4.0317	0.8482	25.70	0.50	0.750			
0.1830	11714.39	4.0280	4.0280	0.8524	25.70	0.50	0.750			
0.1856	11878.36	4.0250	4.0250	0.8570	25.70	0.50	0.750			
0.1881	12039.46	4.0220	4.0221	0.8546	25.71	0.51	0.750			
0.1907	12204.99	4.0190	4.0191	0.8677	25.71	0.51	0.750			
0.1933	12372.59	4.0160	4.0161	0.8721	25.71	0.51	0.750			
0.1960	12541.67	4.0130	4.0130	0.8791	25.71	0.51	0.750			
0.1986	12711.23	4.0100	4.0101	0.8829	25.71	0.51	0.750			
0.2012	12879.86	4.0070	4.0069	0.8847	25.71	0.51	0.750			
0.2039	13049.73	4.0040	4.0040	0.8892	25.71	0.51	0.750			
0.2066	13221.68	4.0010	4.0010	0.8854	25.72	0.52	0.750			
0.2092	13391.96	3.9980	3.9980	0.8880	25.72	0.52	0.750			
0.2119	13561.32	3.9950	3.9952	0.8920	25.73	0.53	0.750			
0.2146	13732.10	3.9920	3.9916	0.8943	25.73	0.53	0.750			
0.2173	13905.58	3.9890	3.9891	0.8891	25.73	0.53	0.750			
0.2199	14074.79	3.9860	3.9861	0.8971	25.73	0.53	0.750			
0.2226	14248.35	3.9830	3.9831	0.9029	25.74	0.54	0.750			
0.2253	14421.57	3.9800	3.9799	0.8986	25.74	0.54	0.750			
0.2280	14593.99	3.9770	3.9772	0.9060	25.74	0.54	0.750			
0.2308	14768.11	3.9740	3.9741	0.9084	25.74	0.54	0.750			
0.2335	14944.88	3.9710	3.9710	0.9134	25.75	0.55	0.750			
0.2363	15121.75	3.9680	3.9680	0.9180	25.75	0.55	0.750			
0.2390	15295.30	3.9650	3.9648	0.9144	25.75	0.55	0.750			
0.2418	15474.80	3.9620	3.9621	0.9164	25.75	0.55	0.750			
0.2445	15649.97	3.9590	3.9591	0.9174	25.76	0.56	0.750			
0.2473	15824.95	3.9560	3.9559	0.9180	25.76	0.56	0.750			
0.2500	16002.13	3.9530	3.9531	0.9218	25.77	0.57	0.750			
0.2528	16177.60	3.9500	3.9501	0.9255	25.77	0.57	0.750			
0.2556	16358.43	3.9470	3.9470	0.9092	25.77	0.57	0.750			
0.2583	16531.43	3.9440	3.9440	0.9219	25.78	0.58	0.750			
0.2611	16708.18	3.9410	3.9412	0.9286	25.78	0.58	0.750			
0.2638	16885.51	3.9380	3.9378	0.9290	25.78	0.58	0.750			
0.2666	17065.06	3.9350	3.9351	0.9360	25.78	0.58	0.750			
0.2695	17245.37	3.9320	3.9321	0.9434	25.78	0.58	0.750			
0.2723	17428.19	3.9290	3.9291	0.9500	25.79	0.59	0.750			
0.2752	17613.66	3.9260	3.9260	0.9465	25.79	0.59	0.750			
0.2780	17795.19	3.9230	3.9230	0.9501	25.79	0.59	0.750			
0.2809	17979.80	3.9200	3.9200	0.9421	25.79	0.59	0.750			
0.2837	18158.37	3.9170	3.9170	0.9470	25.79	0.59	0.750			
0.2865	18339.20	3.9140	3.9141	0.9489	25.79	0.59	0.750			
0.2894	18520.79	3.9110	3.9105	0.9519	25.79	0.59	0.750			
0.2923	18706.83	3.9080	3.9080	0.9463	25.79	0.59	0.750			
0.2951	18886.84	3.9050	3.9051	0.9595	25.79	0.59	0.750			
0.2980	19072.89	3.9020	3.9020	0.9663	25.79	0.59	0.750			
0.3009	19258.20	3.8990	3.8990	0.9632	25.79	0.59	0.750			
0.3038	19444.48	3.8960	3.8961	0.9666	25.79	0.59	0.750			
0.3067	19631.61	3.8930	3.8931	0.9725	25.80	0.60	0.750			
0.3097	19819.49	3.8900	3.8900	0.9758	25.80	0.60	0.750			
0.3126	20006.87	3.8870	3.8870	0.9694	25.81	0.61	0.750			
0.3155	20193.11	3.8840	3.8841	0.9750	25.81	0.61	0.750			
0.3185	20381.23	3.8810	3.8810	0.9736	25.81	0.61	0.750			
0.3213	20566.29	3.8780	3.8781	0.9760	25.80	0.60	0.750			
0.3243	20753.92	3.8750	3.8751	0.9799	25.80	0.60	0.750			
0.3272	20942.09	3.8720	3.8717	0.9797	25.80	0.60	0.750			
0.3302	21131.71	3.8690	3.8690	0.9752	25.80	0.60	0.750			
0.3331	21318.36	3.8660	3.8661	0.9783	25.80	0.60	0.750			
0.3360	21505.88	3.8630	3.8631	0.9862	25.79	0.59	0.750			
0.3390	21695.02	3.8600	3.8596	0.9845	25.79	0.59	0.750			
0.3419	21883.36	3.8570	3.8570	0.9871	25.78	0.58	0.750			
0.3449	22075.85	3.8540	3.8541	0.9972	25.78	0.58	0.750			
0.3479	22268.11	3.8510	3.8510	1.0062	25.77	0.57	0.750			
0.3510	22464.40	3.8480	3.8479	1.0155	25.76	0.56	0.750			
0.3541	22659.77	3.8450	3.8450	0.9993	25.75	0.55	0.750			
0.3571	22851.84	3.8420	3.8419	0.9984	25.75	0.55	0.750			
0.3600	23040.15	3.8390	3.8392	1.0212	25.74	0.54	0.750			
0.3630	23233.07	3.8360	3.8361	1.0320	25.73	0.53	0.750			
0.3662	23436.03	3.8330	3.8331	1.0329	25.73	0.53	0.750			
0.3693	23634.62	3.8300	3.8301	1.0507	25.72	0.52	0.750	0.311	0.405	
0.3725	23840.65	3.8270	3.8273	1.0633	25.72	0.52	0.750			
0.3758	24051.69	3.8240	3.8239	1.0761	25.71	0.51	0.750			
0.3790	24255.31	3.8210	3.8212	1.0624	25.70	0.50	0.750			
0.3821	24456.50	3.8180	3.8180	1.0577	25.69	0.49	0.750			
0.3853	24661.95	3.8150	3.8151	1.0608	25.68	0.48	0.750			
0.3885	24866.65	3.8120	3.8119	1.0680	25.67	0.47	0.750			
0.3917	25066.59	3.8090	3.8090	1.0582	25.66	0.46	0.750			
0.3949	25271.05	3.8060	3.8060	1.0700	25.65	0.45	0.750			
0.3981	25477.01	3.8030	3.8030	1.0754	25.64	0.44	0.750			
0.4014	25686.57	3.8000	3.7997	1.0830	25.63	0.43	0.750			
0.4046	25893.51	3.7970	3.7971	1.0805	25.62	0.42	0.750			
0.4078	26100.00	3.7940	3.7942	1.0924	25.61	0.41	0.750			
0.4111	26307.42	3.7910	3.7910	1.1107	25.60	0.40	0.750			
0.4144	26520.94	3.7880	3.7872	1.1313	25.59	0.39	0.750			
0.4178	26737.22	3.7850	3.7852	1.1480	25.58	0.38	0.750			
0.4213	26962.44	3.7820	3.7821	1.1725	25.57	0.37	0.750			
0.4249	27194.77	3.7790	3.7790	1.2010	25.56	0.36	0.750			
0.4286	27430.16	3.7760	3.7760	1.2142	25.54	0.34	0.750			
0.4321	27654.26	3.7730	3.7729	1.2164	25.53	0.33	0.750			
0.4357	27887.20	3.7700	3.7702	1.2473	25.52	0.32	0.750			
0.4396	28134.22	3.7670	3.7666	1.2431	25.51	0.31	0.750			
0.4433	28372.08	3.7640	3.7640	1.2933	25.50	0.30	0.750			
0.4472	28622.13	3.7610	3.7612	1.3243	25.48	0.28	0.750			
0.4512	28879.76	3.7580	3.7577	1.3544	25.47	0.27	0.750			
0.4553	29142.14	3.7550	3.7552	1.3824	25.46	0.26	0.750			
0.4595	29410.12	3.7520	3.7521	1.3952	25.45	0.25	0.750			
0.4637	29679.54	3.7490	3.7490	1.4266	25.44	0.24	0.750			
0.4682	29961.70	3.7460	3.7461	1.4347	25.43	0.23	0.750			
0.4725	30239.38	3.7430	3.7425	1.4737	25.41	0.21	0.750			
0.4770	30527.94	3.7400	3.7396	1.5220	25.40	0.20	0.750			
0.4817	30825.69	3.7370	3.7374	1.5758	25.39	0.19	0.750			
0.4865	31135.87	3.7340	3.7340	1.6291	25.38	0.18	0.750			
0.4915	31453.87	3.7310	3.7312	1.6657	25.36	0.16	0.750			
0.4965	31779.14	3.7280	3.7284	1.7153	25.34	0.14	0.750			
0.5020	32124.90	3.7250	3.7253	1.7961	25.32	0.12	0.750			
0.5073	32468.41	3.7220	3.7223	1.8379	25.31	0.11	0.750			
0.5128	32821.32	3.7190	3.7194	1.9192	25.30	0.10	0.750			
0.5186	33191.98	3.7160	3.7156	1.9004	25.29	0.09	0.750			
0.5243	33557.23	3.7130	3.7130	1.9648	25.28	0.08	0.750			
0.5303	33936.89	3.7100	3.7104	2.0771	25.26	0.06	0.750			
0.5365	34338.61	3.7070	3.7066	2.1153	25.23	0.03	0.750			
0.5431	34761.06	3.7040	3.7041	2.2673	25.21	0.01	0.750			
0.5498	35184.37	3.7010	3.7014	2.2083	25.20	-0.00	0.750			
0.5566	35619.57	3.6980	3.6984	2.2634	25.18	-0.02	0.750			
0.5635	36064.43	3.6950	3.6949	2.3874	25.17	-0.03	0.750			
0.5706	36520.03	3.6920	3.6921	2.4701	25.15	-0.05	0.750			
0.5783	37008.07	3.6890	3.6890	2.4995	25.13	-0.07	0.750			
0.5862	37516.31	3.6860	3.6863	2.5666	25.11	-0.09	0.750			
0.5940	38013.85	3.6830	3.6829	2.5806	25.10	-0.10	0.750			
0.6016	38503.02	3.6800	3.6797	2.6506	25.09	-0.11	0.750			
0.6096	39013.71	3.6770	3.6771	2.7869	25.08	-0.12	0.750			
0.6183	39571.71	3.6740	3.6743	2.8300	25.07	-0.13	0.750			
0.6268	40114.59	3.6710	3.6707	2.8105	25.06	-0.14	0.750			
0.6352	40654.16	3.6680	3.6680	2.7946	25.06	-0.14	0.750			
0.6438	41205.83	3.6650	3.6653	2.7624	25.06	-0.14	0.750			
0.6521	41736.51	3.6620	3.6622	2.6571	25.06	-0.14	0.750			
0.6601	42247.40	3.6590	3.6590	2.4438	25.07	-0.13	0.750			
0.6673	42709.22	3.6560	3.6559	2.2747	25.08	-0.12	0.750			
0.6736	43107.66	3.6530	3.6532	2.0033	25.09	-0.11	0.750			
0.6793	43475.97	3.6500	3.6501	1.8177	25.10	-0.10	0.750			
0.6846	43813.37	3.6470	3.6472	1.6719	25.11	-0.09	0.750			
0.6892	44111.00	3.6440	3.6442	1.4886	25.12	-0.08	0.750			
0.6936	44387.34	3.6410	3.6413	1.3548	25.12	-0.08	0.750			
0.6974	44632.63	3.6380	3.6382	1.2151	25.13	-0.07	0.750			
0.7008	44853.16	3.6350	3.6349	1.1218	25.13	-0.07	0.750			
0.7038	45041.36	3.6320	3.6320	1.0089	25.13	-0.07	0.750			
0.7066	45222.45	3.6290	3.6290	0.9493	25.14	-0.06	0.750			
0.7093	45396.61	3.6260	3.6261	0.9251	25.15	-0.05	0.750			
0.7121	45571.90	3.6230	3.6230	0.9088	25.15	-0.05	0.750			
0.7149	45750.48	3.6200	3.6199	0.8487	25.16	-0.04	0.750			
0.7174	45914.49	3.6170	3.6170	0.8155	25.17	-0.03	0.750			
0.7198	46066.68	3.6140	3.6143	0.7680	25.18	-0.02	0.750			
0.7220	46206.27	3.6110	3.6117	0.7465	25.18	-0.02	0.750			
0.7241	46344.92	3.6080	3.6088	0.6923	25.19	-0.01	0.750			
0.7262	46474.98	3.6050	3.6055	0.6449	25.20	-0.00	0.750			
0.7281	46597.95	3.6020	3.6027	0.5839	25.20	0.00	0.750			
0.7298	46709.43	3.5990	3.5995	0.5251	25.21	0.01	0.750			
0.7314	46810.61	3.5960	3.5959	0.4553	25.21	0.01	0.750			
0.7326	46885.62	3.5930	3.5928	0.3772	25.22	0.02	0.750			
0.7336	46948.76	3.5900	3.5900	0.3027	25.22	0.02	0.750			
0.7344	47001.97	3.5870	3.5870	0.2462	25.22	0.02	0.750			
0.7351	47044.66	3.5840	3.5841	0.1881	25.23	0.03	0.750			
0.7356	47075.83	3.5810	3.5815	0.1266	25.23	0.03	0.750			
0.7359	47095.10	3.5780	3.5789	0.0611	25.23	0.03	0.750			
0.7359	47100.36	3.5750	3.5709	-0.0038	25.23	0.03	0.750			
