Ah_balance (normalized)	Ah_balance (mAh)	Voltage - fit (V)	Voltage -  interpolate (V)	dQ/dV (1/V)	Temperature (°C)	Temperature - diff (°C)	Current (C)	R_DC 0ms (mOhm)	R_DC 50ms (mOhm)	R_DC 50 ms PEC (mOhm)
0.0494	3162.08	4.1960	4.1962	0.7860	25.95	0.53	0.750			
0.0518	3313.58	4.1930	4.1929	0.7693	25.95	0.53	0.750			
0.0540	3456.00	4.1900	4.1899	0.7535	25.96	0.54	0.750			
0.0562	3595.53	4.1870	4.1871	0.7460	25.96	0.54	0.750			
0.0584	3738.66	4.1840	4.1841	0.7497	25.96	0.54	0.750			
0.0607	3882.83	4.1810	4.1811	0.7525	25.96	0.54	0.750			
0.0629	4027.46	4.1780	4.1781	0.7557	25.96	0.54	0.750			
0.0652	4173.94	4.1750	4.1750	0.7506	25.96	0.54	0.750			
0.0675	4318.53	4.1720	4.1720	0.7566	25.97	0.55	0.750			
0.0697	4461.09	4.1690	4.1691	0.7542	25.97	0.55	0.750			
0.0720	4605.75	4.1660	4.1656	0.7552	25.97	0.55	0.750			
0.0742	4750.89	4.1630	4.1630	0.7601	25.97	0.55	0.750			
0.0765	4897.55	4.1600	4.1601	0.7642	25.97	0.55	0.750			
0.0788	5044.71	4.1570	4.1570	0.7571	25.97	0.55	0.750			
0.0811	5187.74	4.1540	4.1541	0.7551	25.97	0.55	0.750			
0.0833	5332.37	4.1510	4.1512	0.7598	25.97	0.55	0.750			
0.0856	5477.11	4.1480	4.1483	0.7640	25.97	0.55	0.750			
0.0879	5626.27	4.1450	4.1450	0.7664	25.97	0.55	0.750			
0.0902	5774.85	4.1420	4.1422	0.7712	25.97	0.55	0.750			
0.0926	5927.14	4.1390	4.1389	0.7786	25.98	0.56	0.750			
0.0949	6072.40	4.1360	4.1361	0.7665	25.98	0.56	0.750			
0.0972	6219.31	4.1330	4.1330	0.7671	25.98	0.56	0.750			
0.0995	6366.90	4.1300	4.1301	0.7709	25.98	0.56	0.750			
0.1018	6515.83	4.1270	4.1269	0.7706	25.99	0.57	0.750			
0.1041	6664.78	4.1240	4.1240	0.7734	25.99	0.57	0.750			
0.1065	6812.87	4.1210	4.1210	0.7730	26.00	0.58	0.750			
0.1088	6960.38	4.1180	4.1180	0.7795	26.00	0.58	0.750			
0.1111	7110.66	4.1150	4.1150	0.7793	26.00	0.58	0.750			
0.1135	7263.93	4.1120	4.1120	0.7703	26.00	0.58	0.750			
0.1158	7410.19	4.1090	4.1091	0.7788	26.01	0.59	0.750			
0.1181	7559.56	4.1060	4.1060	0.7830	26.01	0.59	0.750			
0.1204	7708.51	4.1030	4.1031	0.7835	26.01	0.59	0.750			
0.1228	7858.79	4.1000	4.0995	0.7874	26.01	0.59	0.750			
0.1252	8010.58	4.0970	4.0971	0.7866	26.01	0.59	0.750			
0.1276	8163.74	4.0940	4.0941	0.7944	26.01	0.59	0.750			
0.1300	8317.51	4.0910	4.0910	0.7975	26.01	0.59	0.750			
0.1323	8469.68	4.0880	4.0880	0.7930	26.01	0.59	0.750			
0.1347	8622.63	4.0850	4.0849	0.7953	26.01	0.59	0.750			
0.1371	8776.15	4.0820	4.0821	0.7975	26.01	0.59	0.750			
0.1395	8929.26	4.0790	4.0790	0.7979	26.01	0.59	0.750			
0.1419	9082.40	4.0760	4.0760	0.7998	26.01	0.59	0.750			
0.1443	9235.55	4.0730	4.0730	0.7976	26.01	0.59	0.750			
0.1467	9388.06	4.0700	4.0698	0.8027	26.01	0.59	0.750			
0.1491	9542.26	4.0670	4.0671	0.8064	26.01	0.59	0.750			
0.1516	9701.37	4.0640	4.0639	0.7933	26.01	0.59	0.750			
0.1540	9852.89	4.0610	4.0610	0.8024	26.02	0.60	0.750			
0.1563	10004.78	4.0580	4.0581	0.8123	26.02	0.60	0.750			
0.1587	10158.80	4.0550	4.0551	0.8193	26.02	0.60	0.750			
0.1612	10318.18	4.0520	4.0521	0.8249	26.02	0.60	0.750			
0.1637	10478.81	4.0490	4.0491	0.8212	26.02	0.60	0.750			
0.1662	10638.56	4.0460	4.0461	0.8296	26.03	0.61	0.750			
0.1688	10800.98	4.0430	4.0430	0.8393	26.03	0.61	0.750			
0.1712	10956.69	4.0400	4.0399	0.8292	26.03	0.61	0.750			
0.1737	11116.50	4.0370	4.0371	0.8287	26.03	0.61	0.750			
0.1762	11277.28	4.0340	4.0340	0.8252	26.03	0.61	0.750			
0.1787	11436.43	4.0310	4.0311	0.8322	26.03	0.61	0.750			
0.1812	11596.66	4.0280	4.0280	0.8385	26.03	0.61	0.750			
0.1837	11754.43	4.0250	4.0248	0.8389	26.03	0.61	0.750			
0.1862	11916.39	4.0220	4.0221	0.8395	26.03	0.61	0.750			
0.1887	12078.24	4.0190	4.0190	0.8469	26.03	0.61	0.750			
0.1912	12239.00	4.0160	4.0161	0.8441	26.03	0.61	0.750			
0.1938	12401.36	4.0130	4.0131	0.8497	26.03	0.61	0.750			
0.1963	12562.67	4.0100	4.0098	0.8511	26.03	0.61	0.750			
0.1988	12726.15	4.0070	4.0072	0.8587	26.03	0.61	0.750			
0.2015	12893.35	4.0040	4.0041	0.8569	26.03	0.61	0.750			
0.2041	13059.53	4.0010	4.0011	0.8652	26.03	0.61	0.750			
0.2067	13228.81	3.9980	3.9980	0.8769	26.03	0.61	0.750			
0.2092	13390.40	3.9950	3.9947	0.8642	26.03	0.61	0.750			
0.2118	13558.15	3.9920	3.9920	0.8679	26.03	0.61	0.750			
0.2145	13725.37	3.9890	3.9891	0.8628	26.03	0.61	0.750			
0.2171	13891.78	3.9860	3.9862	0.8650	26.03	0.61	0.750			
0.2196	14056.79	3.9830	3.9830	0.8627	26.03	0.61	0.750			
0.2222	14221.11	3.9800	3.9797	0.8679	26.03	0.61	0.750			
0.2248	14388.35	3.9770	3.9771	0.8629	26.03	0.61	0.750			
0.2274	14554.94	3.9740	3.9741	0.8682	26.03	0.61	0.750			
0.2301	14724.48	3.9710	3.9710	0.8777	26.04	0.62	0.750			
0.2327	14891.72	3.9680	3.9681	0.8730	26.04	0.62	0.750			
0.2353	15059.23	3.9650	3.9650	0.8741	26.04	0.62	0.750			
0.2379	15228.32	3.9620	3.9621	0.8711	26.04	0.62	0.750			
0.2405	15394.81	3.9590	3.9591	0.8765	26.04	0.62	0.750			
0.2432	15564.72	3.9560	3.9560	0.8831	26.04	0.62	0.750			
0.2458	15733.94	3.9530	3.9529	0.8798	26.04	0.62	0.750			
0.2485	15902.53	3.9500	3.9500	0.8830	26.04	0.62	0.750			
0.2512	16074.77	3.9470	3.9471	0.8762	26.04	0.62	0.750			
0.2538	16241.98	3.9440	3.9440	0.8748	26.03	0.61	0.750			
0.2564	16408.67	3.9410	3.9411	0.8704	26.03	0.61	0.750			
0.2590	16574.59	3.9380	3.9378	0.8726	26.03	0.61	0.750			
0.2616	16740.86	3.9350	3.9350	0.8754	26.03	0.61	0.750			
0.2643	16912.09	3.9320	3.9320	0.8668	26.03	0.61	0.750			
0.2668	17078.25	3.9290	3.9291	0.8701	26.02	0.60	0.750			
0.2694	17243.91	3.9260	3.9262	0.8709	26.02	0.60	0.750			
0.2720	17410.68	3.9230	3.9222	0.8759	26.02	0.60	0.750			
0.2747	17579.86	3.9200	3.9201	0.8726	26.02	0.60	0.750			
0.2773	17747.89	3.9170	3.9171	0.8786	26.01	0.59	0.750			
0.2800	17919.30	3.9140	3.9141	0.8838	26.01	0.59	0.750			
0.2827	18093.66	3.9110	3.9110	0.8905	26.00	0.58	0.750			
0.2853	18256.49	3.9080	3.9080	0.8750	26.00	0.58	0.750			
0.2879	18426.62	3.9050	3.9050	0.8652	26.00	0.58	0.750			
0.2905	18591.80	3.9020	3.9021	0.8697	26.00	0.58	0.750			
0.2931	18758.66	3.8990	3.8991	0.8723	25.99	0.57	0.750			
0.2957	18925.38	3.8960	3.8961	0.8691	25.99	0.57	0.750			
0.2983	19092.39	3.8930	3.8931	0.8741	25.99	0.57	0.750			
0.3010	19261.51	3.8900	3.8900	0.8690	25.98	0.56	0.750			
0.3035	19427.14	3.8870	3.8871	0.8753	25.97	0.55	0.750			
0.3062	19598.22	3.8840	3.8840	0.8822	25.97	0.55	0.750			
0.3088	19763.99	3.8810	3.8808	0.8808	25.96	0.54	0.750			
0.3115	19933.97	3.8780	3.8781	0.8900	25.96	0.54	0.750			
0.3142	20106.32	3.8750	3.8750	0.8888	25.95	0.53	0.750			
0.3168	20277.23	3.8720	3.8720	0.8921	25.94	0.52	0.750			
0.3195	20451.19	3.8690	3.8691	0.8963	25.94	0.52	0.750			
0.3222	20620.48	3.8660	3.8658	0.8881	25.93	0.51	0.750			
0.3249	20794.00	3.8630	3.8630	0.8840	25.92	0.50	0.750			
0.3275	20962.08	3.8600	3.8601	0.8852	25.91	0.49	0.750			
0.3302	21129.87	3.8570	3.8570	0.8932	25.90	0.48	0.750			
0.3329	21303.45	3.8540	3.8542	0.8968	25.89	0.47	0.750			
0.3355	21474.94	3.8510	3.8510	0.8841	25.89	0.47	0.750			
0.3382	21647.20	3.8480	3.8481	0.8850	25.88	0.46	0.750			
0.3409	21815.02	3.8450	3.8452	0.9116	25.87	0.45	0.750			
0.3436	21989.75	3.8420	3.8420	0.9282	25.87	0.45	0.750	0.312	0.456	
0.3464	22169.45	3.8390	3.8389	0.9347	25.86	0.44	0.750			
0.3493	22352.81	3.8360	3.8362	0.9409	25.85	0.43	0.750			
0.3522	22539.59	3.8330	3.8331	0.9610	25.84	0.42	0.750			
0.3551	22725.40	3.8300	3.8301	0.9657	25.83	0.41	0.750			
0.3579	22906.85	3.8270	3.8270	0.9506	25.82	0.40	0.750			
0.3608	23093.50	3.8240	3.8241	0.9513	25.82	0.40	0.750			
0.3637	23274.20	3.8210	3.8211	0.9606	25.81	0.39	0.750			
0.3666	23459.58	3.8180	3.8181	0.9712	25.80	0.38	0.750			
0.3695	23647.76	3.8150	3.8151	0.9868	25.80	0.38	0.750			
0.3724	23834.95	3.8120	3.8118	0.9941	25.79	0.37	0.750			
0.3754	24027.98	3.8090	3.8091	0.9966	25.78	0.36	0.750			
0.3784	24217.98	3.8060	3.8061	1.0158	25.77	0.35	0.750			
0.3815	24414.72	3.8030	3.8031	1.0379	25.76	0.34	0.750			
0.3846	24611.72	3.8000	3.7995	1.0580	25.75	0.33	0.750			
0.3877	24815.70	3.7970	3.7971	1.0962	25.74	0.32	0.750			
0.3911	25033.34	3.7940	3.7941	1.1233	25.73	0.31	0.750			
0.3946	25257.06	3.7910	3.7911	1.1522	25.72	0.30	0.750			
0.3982	25487.50	3.7880	3.7882	1.1596	25.71	0.29	0.750			
0.4016	25704.18	3.7850	3.7851	1.1630	25.69	0.27	0.750			
0.4052	25929.94	3.7820	3.7820	1.1695	25.68	0.26	0.750			
0.4086	26152.70	3.7790	3.7788	1.1466	25.67	0.25	0.750			
0.4121	26371.33	3.7760	3.7761	1.1736	25.66	0.24	0.750			
0.4156	26598.16	3.7730	3.7732	1.1970	25.65	0.23	0.750			
0.4192	26829.44	3.7700	3.7701	1.2221	25.64	0.22	0.750			
0.4229	27064.41	3.7670	3.7668	1.2440	25.63	0.21	0.750			
0.4267	27306.11	3.7640	3.7641	1.2726	25.61	0.19	0.750			
0.4306	27556.76	3.7610	3.7610	1.3016	25.60	0.18	0.750			
0.4345	27810.40	3.7580	3.7580	1.3189	25.59	0.17	0.750			
0.4385	28061.57	3.7550	3.7550	1.3354	25.58	0.16	0.750			
0.4425	28321.75	3.7520	3.7521	1.3669	25.56	0.14	0.750			
0.4467	28586.97	3.7490	3.7487	1.3911	25.55	0.13	0.750			
0.4508	28848.63	3.7460	3.7462	1.3870	25.54	0.12	0.750			
0.4549	29113.55	3.7430	3.7434	1.4325	25.52	0.10	0.750			
0.4593	29393.68	3.7400	3.7391	1.4692	25.51	0.09	0.750			
0.4637	29675.48	3.7370	3.7367	1.5341	25.50	0.08	0.750			
0.4684	29975.79	3.7340	3.7343	1.5572	25.48	0.06	0.750			
0.4732	30283.63	3.7310	3.7312	1.6127	25.46	0.04	0.750			
0.4782	30607.45	3.7280	3.7282	1.6997	25.44	0.02	0.750			
0.4832	30922.58	3.7250	3.7250	1.6856	25.42	0.00	0.750			
0.4884	31255.63	3.7220	3.7222	1.7510	25.41	-0.01	0.750			
0.4937	31593.79	3.7190	3.7192	1.8248	25.41	-0.01	0.750			
0.4991	31942.90	3.7160	3.7161	1.8939	25.39	-0.03	0.750			
0.5050	32322.51	3.7130	3.7130	1.8929	25.38	-0.04	0.750			
0.5108	32693.46	3.7100	3.7099	1.9636	25.37	-0.05	0.750			
0.5169	33079.35	3.7070	3.7069	2.0136	25.35	-0.07	0.750			
0.5227	33455.76	3.7040	3.7036	2.0641	25.34	-0.08	0.750			
0.5291	33859.44	3.7010	3.7007	2.1156	25.33	-0.09	0.750			
0.5355	34272.81	3.6980	3.6979	2.2367	25.32	-0.10	0.750			
0.5424	34711.28	3.6950	3.6949	2.2504	25.30	-0.12	0.750			
0.5492	35149.98	3.6920	3.6921	2.2885	25.29	-0.13	0.750			
0.5559	35579.47	3.6890	3.6891	2.3402	25.28	-0.14	0.750			
0.5631	36038.52	3.6860	3.6863	2.2646	25.28	-0.14	0.750			
0.5697	36463.70	3.6830	3.6835	2.3680	25.27	-0.15	0.750			
0.5768	36912.62	3.6800	3.6795	2.3032	25.27	-0.15	0.750			
0.5837	37358.37	3.6770	3.6772	2.3128	25.27	-0.15	0.750			
0.5909	37814.81	3.6740	3.6732	2.3431	25.26	-0.16	0.750			
0.5977	38255.89	3.6710	3.6713	2.2171	25.26	-0.16	0.750			
0.6042	38671.16	3.6680	3.6679	2.1585	25.27	-0.15	0.750			
0.6102	39051.10	3.6650	3.6645	1.9593	25.27	-0.15	0.750			
0.6157	39405.90	3.6620	3.6618	1.8215	25.28	-0.14	0.750			
0.6209	39736.28	3.6590	3.6591	1.6588	25.29	-0.13	0.750			
0.6258	40048.09	3.6560	3.6562	1.5550	25.29	-0.13	0.750			
0.6302	40331.73	3.6530	3.6531	1.4255	25.30	-0.12	0.750			
0.6343	40596.42	3.6500	3.6497	1.3236	25.30	-0.12	0.750			
0.6381	40840.14	3.6470	3.6471	1.2399	25.31	-0.11	0.750			
0.6417	41068.17	3.6440	3.6441	1.1767	25.31	-0.11	0.750			
0.6451	41286.33	3.6410	3.6414	1.1199	25.32	-0.10	0.750			
0.6484	41494.98	3.6380	3.6379	1.0588	25.32	-0.10	0.750			
0.6514	41691.94	3.6350	3.6351	1.0176	25.33	-0.09	0.750			
0.6544	41882.99	3.6320	3.6320	0.9832	25.34	-0.08	0.750			
0.6573	42067.62	3.6290	3.6291	0.9530	25.35	-0.07	0.750			
0.6601	42245.52	3.6260	3.6259	0.9165	25.35	-0.07	0.750			
0.6628	42420.35	3.6230	3.6230	0.8760	25.36	-0.06	0.750			
0.6654	42587.58	3.6200	3.6201	0.8440	25.37	-0.05	0.750			
0.6679	42746.22	3.6170	3.6171	0.8109	25.38	-0.04	0.750			
0.6703	42897.92	3.6140	3.6140	0.7697	25.38	-0.04	0.750			
0.6725	43041.94	3.6110	3.6108	0.7247	25.39	-0.03	0.750			
0.6747	43181.06	3.6080	3.6080	0.6652	25.40	-0.02	0.750			
0.6767	43306.90	3.6050	3.6051	0.6118	25.40	-0.02	0.750			
0.6784	43415.76	3.6020	3.6022	0.5675	25.41	-0.01	0.750			
0.6799	43516.21	3.5990	3.5994	0.5125	25.41	-0.01	0.750			
0.6814	43607.23	3.5960	3.5949	0.4742	25.41	-0.01	0.750			
0.6827	43693.98	3.5930	3.5937	0.4308	25.42	-0.00	0.750			
0.6840	43775.43	3.5900	3.5906	0.3934	25.42	-0.00	0.750			
0.6851	43849.25	3.5870	3.5876	0.3572	25.42	0.00	0.750			
0.6862	43919.05	3.5840	3.5841	0.3115	25.42	0.00	0.750			
0.6870	43968.53	3.5810	3.5815	0.2539	25.43	0.01	0.750			
0.6878	44017.43	3.5780	3.5780	0.2071	25.43	0.01	0.750			
0.6883	44049.06	3.5750	3.5753	0.1698	25.43	0.01	0.750			
0.6887	44078.00	3.5720	3.5720	0.1269	25.43	0.01	0.750			
