Ah_balance (normalized)	Ah_balance (mAh)	Voltage - fit (V)	Voltage -  interpolate (V)	dQ/dV (1/V)	Temperature (°C)	Temperature - diff (°C)	Current (C)	R_DC 0ms (mOhm)	R_DC 50ms (mOhm)	R_DC 50 ms PEC (mOhm)
0.0461	2949.34	4.1990	4.1990	0.8094	25.57	0.35	0.750			
0.0484	3097.39	4.1960	4.1960	0.7587	25.57	0.35	0.750			
0.0506	3241.24	4.1930	4.1931	0.7554	25.57	0.35	0.750			
0.0529	3385.43	4.1900	4.1901	0.7622	25.57	0.35	0.750			
0.0552	3532.48	4.1870	4.1871	0.7631	25.57	0.35	0.750			
0.0575	3679.73	4.1840	4.1839	0.7670	25.57	0.35	0.750			
0.0598	3828.31	4.1810	4.1811	0.7687	25.57	0.35	0.750			
0.0621	3975.91	4.1780	4.1780	0.7710	25.57	0.35	0.750			
0.0644	4122.94	4.1750	4.1750	0.7680	25.57	0.35	0.750			
0.0667	4270.86	4.1720	4.1718	0.7729	25.57	0.35	0.750			
0.0690	4418.65	4.1690	4.1691	0.7715	25.57	0.35	0.750			
0.0714	4571.14	4.1660	4.1660	0.7625	25.58	0.36	0.750			
0.0737	4717.89	4.1630	4.1630	0.7686	25.58	0.36	0.750			
0.0760	4862.56	4.1600	4.1602	0.7716	25.58	0.36	0.750			
0.0783	5009.38	4.1570	4.1570	0.7735	25.59	0.37	0.750			
0.0806	5158.58	4.1540	4.1541	0.7813	25.59	0.37	0.750			
0.0829	5308.73	4.1510	4.1511	0.7866	25.59	0.37	0.750			
0.0853	5461.73	4.1480	4.1481	0.7800	25.59	0.37	0.750			
0.0877	5613.54	4.1450	4.1451	0.7856	25.59	0.37	0.750			
0.0900	5759.13	4.1420	4.1422	0.7801	25.59	0.37	0.750			
0.0923	5909.14	4.1390	4.1386	0.7859	25.59	0.37	0.750			
0.0947	6060.58	4.1360	4.1361	0.7907	25.59	0.37	0.750			
0.0971	6213.20	4.1330	4.1331	0.7963	25.59	0.37	0.750			
0.0995	6370.51	4.1300	4.1300	0.8044	25.59	0.37	0.750			
0.1019	6523.89	4.1270	4.1270	0.7938	25.59	0.37	0.750			
0.1043	6677.06	4.1240	4.1240	0.7962	25.59	0.37	0.750			
0.1067	6829.83	4.1210	4.1210	0.7964	25.59	0.37	0.750			
0.1091	6983.88	4.1180	4.1180	0.7922	25.60	0.38	0.750			
0.1115	7133.71	4.1150	4.1150	0.7949	25.60	0.38	0.750			
0.1138	7285.11	4.1120	4.1120	0.8008	25.61	0.39	0.750			
0.1162	7439.95	4.1090	4.1087	0.8065	25.61	0.39	0.750			
0.1187	7595.59	4.1060	4.1060	0.8103	25.61	0.39	0.750			
0.1212	7757.09	4.1030	4.1030	0.7955	25.61	0.39	0.750			
0.1236	7908.25	4.1000	4.1002	0.8046	25.61	0.39	0.750			
0.1260	8062.44	4.0970	4.0970	0.8156	25.61	0.39	0.750			
0.1283	8213.61	4.0940	4.0942	0.8082	25.61	0.39	0.750			
0.1308	8369.47	4.0910	4.0913	0.8154	25.61	0.39	0.750			
0.1333	8528.03	4.0880	4.0881	0.8184	25.62	0.40	0.750			
0.1358	8688.67	4.0850	4.0851	0.8246	25.62	0.40	0.750			
0.1382	8847.84	4.0820	4.0821	0.8284	25.62	0.40	0.750			
0.1407	9004.58	4.0790	4.0790	0.8188	25.63	0.41	0.750			
0.1432	9162.45	4.0760	4.0760	0.8255	25.63	0.41	0.750			
0.1457	9324.06	4.0730	4.0730	0.8163	25.63	0.41	0.750			
0.1481	9478.75	4.0700	4.0701	0.8246	25.63	0.41	0.750			
0.1506	9638.17	4.0670	4.0670	0.8338	25.63	0.41	0.750			
0.1531	9796.47	4.0640	4.0642	0.8332	25.63	0.41	0.750			
0.1556	9956.86	4.0610	4.0612	0.8397	25.63	0.41	0.750			
0.1581	10119.40	4.0580	4.0581	0.8487	25.63	0.41	0.750			
0.1607	10282.00	4.0550	4.0551	0.8425	25.64	0.42	0.750			
0.1632	10445.38	4.0520	4.0521	0.8508	25.64	0.42	0.750			
0.1657	10604.39	4.0490	4.0492	0.8474	25.64	0.42	0.750			
0.1682	10767.92	4.0460	4.0462	0.8519	25.64	0.42	0.750			
0.1708	10932.87	4.0430	4.0430	0.8534	25.64	0.42	0.750			
0.1734	11096.41	4.0400	4.0401	0.8609	25.65	0.43	0.750			
0.1760	11266.98	4.0370	4.0371	0.8765	25.65	0.43	0.750			
0.1786	11429.70	4.0340	4.0338	0.8622	25.65	0.43	0.750			
0.1812	11595.73	4.0310	4.0310	0.8647	25.65	0.43	0.750			
0.1838	11762.76	4.0280	4.0281	0.8599	25.66	0.44	0.750			
0.1864	11928.02	4.0250	4.0250	0.8643	25.66	0.44	0.750			
0.1889	12090.08	4.0220	4.0221	0.8682	25.67	0.45	0.750			
0.1915	12254.85	4.0190	4.0185	0.8858	25.67	0.45	0.750			
0.1942	12431.74	4.0160	4.0160	0.8803	25.67	0.45	0.750			
0.1969	12601.76	4.0130	4.0130	0.8858	25.67	0.45	0.750			
0.1996	12775.18	4.0100	4.0101	0.8927	25.67	0.45	0.750			
0.2023	12948.21	4.0070	4.0072	0.8944	25.67	0.45	0.750			
0.2049	13112.38	4.0040	4.0037	0.8869	25.67	0.45	0.750			
0.2075	13281.35	4.0010	4.0010	0.8917	25.68	0.46	0.750			
0.2102	13452.60	3.9980	3.9981	0.8939	25.68	0.46	0.750			
0.2130	13630.39	3.9950	3.9950	0.9125	25.68	0.46	0.750			
0.2157	13805.55	3.9920	3.9920	0.9041	25.69	0.47	0.750			
0.2184	13980.42	3.9890	3.9890	0.9051	25.69	0.47	0.750			
0.2211	14153.37	3.9860	3.9860	0.9000	25.69	0.47	0.750			
0.2238	14324.57	3.9830	3.9831	0.9014	25.70	0.48	0.750			
0.2265	14498.37	3.9800	3.9800	0.8962	25.70	0.48	0.750			
0.2292	14668.80	3.9770	3.9766	0.9022	25.70	0.48	0.750			
0.2319	14844.64	3.9740	3.9741	0.8909	25.70	0.48	0.750			
0.2346	15013.93	3.9710	3.9710	0.9044	25.70	0.48	0.750			
0.2373	15187.89	3.9680	3.9680	0.9121	25.71	0.49	0.750			
0.2401	15364.26	3.9650	3.9652	0.9251	25.71	0.49	0.750			
0.2428	15538.83	3.9620	3.9620	0.9272	25.71	0.49	0.750			
0.2456	15720.42	3.9590	3.9592	0.9329	25.72	0.50	0.750			
0.2484	15899.60	3.9560	3.9561	0.9338	25.72	0.50	0.750			
0.2513	16082.14	3.9530	3.9530	0.9395	25.73	0.51	0.750			
0.2541	16260.85	3.9500	3.9499	0.9309	25.73	0.51	0.750			
0.2569	16441.15	3.9470	3.9470	0.9269	25.73	0.51	0.750			
0.2596	16617.23	3.9440	3.9440	0.9298	25.73	0.51	0.750			
0.2624	16796.11	3.9410	3.9411	0.9331	25.73	0.51	0.750			
0.2653	16976.33	3.9380	3.9380	0.9341	25.73	0.51	0.750			
0.2680	17154.61	3.9350	3.9350	0.9357	25.73	0.51	0.750			
0.2708	17333.11	3.9320	3.9321	0.9341	25.74	0.52	0.750			
0.2736	17510.52	3.9290	3.9292	0.9440	25.74	0.52	0.750			
0.2765	17692.94	3.9260	3.9259	0.9544	25.75	0.53	0.750			
0.2793	17875.61	3.9230	3.9224	0.9575	25.75	0.53	0.750			
0.2822	18061.59	3.9200	3.9202	0.9613	25.75	0.53	0.750			
0.2851	18247.74	3.9170	3.9171	0.9678	25.76	0.54	0.750			
0.2881	18437.23	3.9140	3.9140	0.9715	25.76	0.54	0.750			
0.2909	18620.64	3.9110	3.9109	0.9651	25.77	0.55	0.750			
0.2939	18809.26	3.9080	3.9080	0.9561	25.77	0.55	0.750			
0.2967	18991.59	3.9050	3.9050	0.9666	25.77	0.55	0.750			
0.2997	19177.67	3.9020	3.9021	0.9723	25.77	0.55	0.750			
0.3026	19365.11	3.8990	3.8992	0.9747	25.77	0.55	0.750			
0.3055	19552.35	3.8960	3.8960	0.9686	25.77	0.55	0.750			
0.3084	19737.71	3.8930	3.8931	0.9665	25.77	0.55	0.750			
0.3112	19919.19	3.8900	3.8902	0.9720	25.77	0.55	0.750			
0.3142	20106.80	3.8870	3.8870	0.9865	25.77	0.55	0.750			
0.3171	20296.11	3.8840	3.8840	0.9833	25.77	0.55	0.750			
0.3201	20486.63	3.8810	3.8811	0.9945	25.77	0.55	0.750			
0.3231	20680.33	3.8780	3.8781	1.0005	25.77	0.55	0.750			
0.3262	20877.78	3.8750	3.8751	1.0069	25.77	0.55	0.750			
0.3292	21068.05	3.8720	3.8719	0.9959	25.77	0.55	0.750			
0.3322	21261.81	3.8690	3.8689	0.9826	25.77	0.55	0.750			
0.3351	21447.09	3.8660	3.8661	0.9932	25.77	0.55	0.750			
0.3381	21638.58	3.8630	3.8631	1.0023	25.77	0.55	0.750			
0.3411	21830.98	3.8600	3.8597	1.0102	25.77	0.55	0.750			
0.3442	22027.05	3.8570	3.8571	1.0068	25.77	0.55	0.750			
0.3472	22219.47	3.8540	3.8540	1.0184	25.77	0.55	0.750			
0.3503	22416.29	3.8510	3.8511	1.0290	25.76	0.54	0.750			
0.3533	22613.65	3.8480	3.8478	1.0303	25.76	0.54	0.750			
0.3565	22814.22	3.8450	3.8450	1.0348	25.76	0.54	0.750			
0.3596	23014.54	3.8420	3.8421	1.0434	25.75	0.53	0.750			
0.3628	23216.10	3.8390	3.8391	1.0496	25.75	0.53	0.750			
0.3659	23419.92	3.8360	3.8360	1.0652	25.74	0.52	0.750			
0.3691	23619.41	3.8330	3.8329	1.0596	25.74	0.52	0.750			
0.3723	23825.60	3.8300	3.8300	1.0650	25.73	0.51	0.750			
0.3755	24030.87	3.8270	3.8270	1.0689	25.73	0.51	0.750	0.303	0.418	
0.3787	24237.40	3.8240	3.8237	1.0785	25.72	0.50	0.750			
0.3819	24441.87	3.8210	3.8214	1.0779	25.71	0.49	0.750			
0.3851	24647.93	3.8180	3.8179	1.0885	25.71	0.49	0.750			
0.3884	24854.78	3.8150	3.8151	1.1041	25.70	0.48	0.750			
0.3918	25072.09	3.8120	3.8114	1.1160	25.69	0.47	0.750			
0.3951	25288.14	3.8090	3.8092	1.1287	25.68	0.46	0.750			
0.3985	25506.49	3.8060	3.8061	1.1317	25.67	0.45	0.750			
0.4020	25725.98	3.8030	3.8030	1.1352	25.66	0.44	0.750			
0.4054	25942.52	3.8000	3.8000	1.1160	25.65	0.43	0.750			
0.4087	26156.01	3.7970	3.7970	1.1249	25.64	0.42	0.750			
0.4120	26370.57	3.7940	3.7940	1.1349	25.62	0.40	0.750			
0.4155	26590.05	3.7910	3.7910	1.1496	25.61	0.39	0.750			
0.4189	26809.80	3.7880	3.7881	1.1578	25.60	0.38	0.750			
0.4224	27033.44	3.7850	3.7850	1.1783	25.59	0.37	0.750			
0.4260	27261.86	3.7820	3.7821	1.1962	25.58	0.36	0.750			
0.4296	27494.28	3.7790	3.7790	1.2143	25.57	0.35	0.750			
0.4332	27726.98	3.7760	3.7761	1.2318	25.56	0.34	0.750			
0.4370	27965.07	3.7730	3.7730	1.2533	25.54	0.32	0.750			
0.4408	28211.02	3.7700	3.7699	1.2645	25.53	0.31	0.750			
0.4446	28451.24	3.7670	3.7670	1.2845	25.53	0.31	0.750			
0.4484	28698.96	3.7640	3.7641	1.3197	25.52	0.30	0.750			
0.4524	28955.53	3.7610	3.7610	1.3531	25.51	0.29	0.750			
0.4565	29215.44	3.7580	3.7580	1.3766	25.50	0.28	0.750			
0.4606	29480.64	3.7550	3.7552	1.4079	25.49	0.27	0.750			
0.4649	29754.63	3.7520	3.7520	1.4488	25.48	0.26	0.750			
0.4695	30045.05	3.7490	3.7491	1.4726	25.46	0.24	0.750			
0.4739	30327.54	3.7460	3.7461	1.4918	25.45	0.23	0.750			
0.4783	30612.45	3.7430	3.7430	1.5277	25.43	0.21	0.750			
0.4830	30912.35	3.7400	3.7402	1.5691	25.41	0.19	0.750			
0.4877	31212.15	3.7370	3.7368	1.6173	25.40	0.18	0.750			
0.4924	31512.72	3.7340	3.7338	1.6617	25.38	0.16	0.750			
0.4975	31838.22	3.7310	3.7308	1.7091	25.37	0.15	0.750			
0.5028	32182.22	3.7280	3.7280	1.7721	25.36	0.14	0.750			
0.5081	32517.66	3.7250	3.7251	1.8161	25.34	0.12	0.750			
0.5136	32871.81	3.7220	3.7217	1.8443	25.32	0.10	0.750			
0.5191	33224.72	3.7190	3.7190	1.8890	25.30	0.08	0.750			
0.5249	33595.55	3.7160	3.7162	1.9556	25.29	0.07	0.750			
0.5309	33979.11	3.7130	3.7124	2.0316	25.28	0.06	0.750			
0.5372	34383.10	3.7100	3.7098	2.0958	25.26	0.04	0.750			
0.5435	34785.69	3.7070	3.7072	2.1760	25.24	0.02	0.750			
0.5504	35226.44	3.7040	3.7038	2.2087	25.22	0.00	0.750			
0.5569	35643.30	3.7010	3.7012	2.2456	25.20	-0.02	0.750			
0.5638	36083.24	3.6980	3.6984	2.3665	25.19	-0.03	0.750			
0.5709	36540.74	3.6950	3.6952	2.3553	25.18	-0.04	0.750			
0.5778	36979.89	3.6920	3.6923	2.3616	25.17	-0.05	0.750			
0.5850	37438.13	3.6890	3.6891	2.5098	25.15	-0.07	0.750			
0.5927	37932.01	3.6860	3.6862	2.5581	25.13	-0.09	0.750			
0.6007	38443.98	3.6830	3.6833	2.7813	25.12	-0.10	0.750			
0.6091	38984.30	3.6800	3.6795	2.7256	25.10	-0.12	0.750			
0.6170	39489.75	3.6770	3.6765	2.7238	25.09	-0.13	0.750			
0.6255	40029.23	3.6740	3.6738	3.0286	25.08	-0.14	0.750			
0.6345	40609.94	3.6710	3.6707	3.2888	25.08	-0.14	0.750			
0.6451	41285.52	3.6680	3.6684	3.2711	25.08	-0.14	0.750			
0.6553	41942.10	3.6650	3.6650	3.1514	25.08	-0.14	0.750			
0.6641	42503.22	3.6620	3.6620	2.9154	25.08	-0.14	0.750			
0.6725	43036.87	3.6590	3.6587	2.5990	25.09	-0.13	0.750			
0.6798	43510.20	3.6560	3.6560	2.3484	25.10	-0.12	0.750			
0.6863	43920.21	3.6530	3.6528	2.0828	25.10	-0.12	0.750			
0.6921	44294.49	3.6500	3.6498	1.8821	25.10	-0.12	0.750			
0.6974	44631.51	3.6470	3.6469	1.6880	25.11	-0.11	0.750			
0.7021	44934.04	3.6440	3.6442	1.5139	25.12	-0.10	0.750			
0.7065	45213.74	3.6410	3.6412	1.3601	25.12	-0.10	0.750			
0.7103	45457.02	3.6380	3.6380	1.2087	25.13	-0.09	0.750			
0.7136	45670.30	3.6350	3.6350	1.1118	25.14	-0.08	0.750			
0.7166	45859.67	3.6320	3.6316	1.0197	25.14	-0.08	0.750			
0.7194	46042.48	3.6290	3.6290	0.9650	25.15	-0.07	0.750			
0.7222	46221.04	3.6260	3.6260	0.9374	25.16	-0.06	0.750			
0.7250	46398.31	3.6230	3.6230	0.9152	25.17	-0.05	0.750			
0.7277	46573.97	3.6200	3.6200	0.8960	25.18	-0.04	0.750			
0.7304	46743.36	3.6170	3.6170	0.8687	25.18	-0.04	0.750			
0.7330	46910.06	3.6140	3.6140	0.8288	25.19	-0.03	0.750			
0.7355	47068.93	3.6110	3.6111	0.7869	25.20	-0.02	0.750			
0.7378	47221.11	3.6080	3.6080	0.7320	25.21	-0.01	0.750			
0.7399	47355.07	3.6050	3.6050	0.6594	25.21	-0.01	0.750			
0.7418	47475.40	3.6020	3.6020	0.5911	25.22	0.00	0.750			
0.7435	47582.88	3.5990	3.5989	0.5071	25.23	0.01	0.750			
0.7449	47670.67	3.5960	3.5960	0.4415	25.23	0.01	0.750			
0.7460	47746.60	3.5930	3.5931	0.3844	25.23	0.01	0.750			
0.7471	47812.63	3.5900	3.5899	0.3242	25.24	0.02	0.750			
0.7480	47869.39	3.5870	3.5874	0.2723	25.24	0.02	0.750			
0.7487	47915.69	3.5840	3.5846	0.2221	25.24	0.02	0.750			
0.7493	47953.80	3.5810	3.5817	0.1752	25.24	0.02	0.750			
0.7497	47983.88	3.5780	3.5790	0.1235	25.25	0.03	0.750			
0.7500	48000.38	3.5750	3.5760	0.0402	25.25	0.03	0.750			
