Ah_balance (normalized)	Ah_balance (mAh)	Voltage - fit (V)	Voltage -  interpolate (V)	dQ/dV (1/V)	Temperature (°C)	Temperature - diff (°C)	Current (C)	R_DC 0ms (mOhm)	R_DC 50ms (mOhm)	R_DC 50 ms PEC (mOhm)
0.0489	3128.24	4.1960	4.1958	0.7627	25.85	0.65	0.750			
0.0512	3276.04	4.1930	4.1930	0.7676	25.85	0.65	0.750			
0.0536	3428.98	4.1900	4.1899	0.7573	25.85	0.65	0.750			
0.0558	3568.53	4.1870	4.1870	0.7489	25.85	0.65	0.750			
0.0579	3708.41	4.1840	4.1842	0.7483	25.85	0.65	0.750			
0.0602	3851.79	4.1810	4.1812	0.7531	25.85	0.65	0.750			
0.0624	3995.43	4.1780	4.1781	0.7558	25.85	0.65	0.750			
0.0647	4141.64	4.1750	4.1751	0.7598	25.85	0.65	0.750			
0.0670	4289.81	4.1720	4.1721	0.7622	25.85	0.65	0.750			
0.0693	4438.16	4.1690	4.1691	0.7617	25.86	0.66	0.750			
0.0716	4581.71	4.1660	4.1661	0.7579	25.86	0.66	0.750			
0.0739	4728.04	4.1630	4.1627	0.7587	25.86	0.66	0.750			
0.0761	4873.22	4.1600	4.1601	0.7612	25.86	0.66	0.750			
0.0784	5020.60	4.1570	4.1571	0.7599	25.86	0.66	0.750			
0.0808	5169.05	4.1540	4.1540	0.7620	25.87	0.67	0.750			
0.0830	5313.64	4.1510	4.1510	0.7645	25.87	0.67	0.750			
0.0853	5458.08	4.1480	4.1480	0.7644	25.87	0.67	0.750			
0.0876	5604.49	4.1450	4.1450	0.7644	25.87	0.67	0.750			
0.0899	5752.55	4.1420	4.1420	0.7685	25.87	0.67	0.750			
0.0922	5899.28	4.1390	4.1392	0.7619	25.87	0.67	0.750			
0.0945	6046.35	4.1360	4.1360	0.7670	25.87	0.67	0.750			
0.0967	6191.51	4.1330	4.1331	0.7703	25.87	0.67	0.750			
0.0990	6339.02	4.1300	4.1297	0.7740	25.87	0.67	0.750			
0.1014	6487.95	4.1270	4.1272	0.7783	25.87	0.67	0.750			
0.1038	6642.11	4.1240	4.1240	0.7672	25.87	0.67	0.750			
0.1061	6790.44	4.1210	4.1210	0.7767	25.88	0.68	0.750			
0.1084	6940.21	4.1180	4.1181	0.7831	25.88	0.68	0.750			
0.1107	7083.36	4.1150	4.1148	0.7748	25.88	0.68	0.750			
0.1130	7232.43	4.1120	4.1121	0.7821	25.88	0.68	0.750			
0.1154	7383.99	4.1090	4.1091	0.7862	25.88	0.68	0.750			
0.1178	7536.43	4.1060	4.1060	0.7931	25.89	0.69	0.750			
0.1202	7694.60	4.1030	4.1030	0.7988	25.89	0.69	0.750			
0.1225	7843.06	4.1000	4.1000	0.7875	25.89	0.69	0.750			
0.1249	7994.74	4.0970	4.0971	0.7908	25.89	0.69	0.750			
0.1273	8146.05	4.0940	4.0940	0.7893	25.89	0.69	0.750			
0.1297	8297.67	4.0910	4.0910	0.7773	25.89	0.69	0.750			
0.1320	8444.84	4.0880	4.0881	0.7874	25.89	0.69	0.750			
0.1343	8594.69	4.0850	4.0852	0.7914	25.89	0.69	0.750			
0.1367	8747.40	4.0820	4.0815	0.8002	25.89	0.69	0.750			
0.1391	8900.84	4.0790	4.0792	0.8075	25.89	0.69	0.750			
0.1415	9057.88	4.0760	4.0761	0.8058	25.90	0.70	0.750			
0.1440	9216.33	4.0730	4.0731	0.8150	25.90	0.70	0.750			
0.1464	9370.54	4.0700	4.0701	0.8051	25.91	0.71	0.750			
0.1488	9525.62	4.0670	4.0667	0.8107	25.91	0.71	0.750			
0.1513	9681.77	4.0640	4.0640	0.8142	25.91	0.71	0.750			
0.1537	9837.83	4.0610	4.0610	0.8164	25.91	0.71	0.750			
0.1562	9995.81	4.0580	4.0581	0.8232	25.91	0.71	0.750			
0.1587	10154.47	4.0550	4.0550	0.8220	25.91	0.71	0.750			
0.1611	10312.83	4.0520	4.0517	0.8250	25.91	0.71	0.750			
0.1636	10471.96	4.0490	4.0491	0.8278	25.91	0.71	0.750			
0.1662	10634.51	4.0460	4.0460	0.8067	25.91	0.71	0.750			
0.1685	10786.46	4.0430	4.0430	0.8222	25.91	0.71	0.750			
0.1710	10943.20	4.0400	4.0402	0.8253	25.91	0.71	0.750			
0.1734	11099.27	4.0370	4.0364	0.8271	25.91	0.71	0.750			
0.1759	11259.28	4.0340	4.0342	0.8343	25.91	0.71	0.750			
0.1785	11421.14	4.0310	4.0312	0.8323	25.91	0.71	0.750			
0.1810	11581.65	4.0280	4.0281	0.8375	25.91	0.71	0.750			
0.1835	11742.41	4.0250	4.0252	0.8356	25.91	0.71	0.750			
0.1860	11903.01	4.0220	4.0215	0.8438	25.91	0.71	0.750			
0.1885	12065.99	4.0190	4.0190	0.8507	25.91	0.71	0.750			
0.1911	12230.87	4.0160	4.0161	0.8528	25.92	0.72	0.750			
0.1937	12396.37	4.0130	4.0131	0.8628	25.92	0.72	0.750			
0.1963	12560.18	4.0100	4.0101	0.8600	25.93	0.73	0.750			
0.1988	12725.55	4.0070	4.0068	0.8691	25.93	0.73	0.750			
0.2015	12894.64	4.0040	4.0040	0.8706	25.93	0.73	0.750			
0.2041	13062.99	4.0010	4.0010	0.8607	25.93	0.73	0.750			
0.2067	13228.37	3.9980	3.9982	0.8688	25.93	0.73	0.750			
0.2093	13392.81	3.9950	3.9952	0.8675	25.93	0.73	0.750			
0.2119	13558.55	3.9920	3.9921	0.8660	25.93	0.73	0.750			
0.2145	13726.78	3.9890	3.9890	0.8669	25.93	0.73	0.750			
0.2171	13893.08	3.9860	3.9861	0.8719	25.93	0.73	0.750			
0.2197	14063.76	3.9830	3.9831	0.8800	25.93	0.73	0.750			
0.2224	14230.92	3.9800	3.9800	0.8766	25.93	0.73	0.750			
0.2250	14398.13	3.9770	3.9770	0.8817	25.93	0.73	0.750			
0.2276	14569.03	3.9740	3.9740	0.8781	25.93	0.73	0.750			
0.2303	14739.30	3.9710	3.9710	0.8813	25.93	0.73	0.750			
0.2330	14910.42	3.9680	3.9681	0.8870	25.93	0.73	0.750			
0.2356	15078.07	3.9650	3.9649	0.8827	25.93	0.73	0.750			
0.2382	15246.23	3.9620	3.9620	0.8816	25.93	0.73	0.750			
0.2409	15415.49	3.9590	3.9590	0.8776	25.93	0.73	0.750			
0.2435	15584.56	3.9560	3.9560	0.8804	25.94	0.74	0.750			
0.2461	15753.23	3.9530	3.9531	0.8835	25.94	0.74	0.750			
0.2488	15923.61	3.9500	3.9495	0.8864	25.94	0.74	0.750			
0.2515	16094.46	3.9470	3.9470	0.8816	25.94	0.74	0.750			
0.2541	16264.04	3.9440	3.9440	0.8852	25.94	0.74	0.750			
0.2568	16435.30	3.9410	3.9411	0.8901	25.93	0.73	0.750			
0.2595	16607.50	3.9380	3.9380	0.8914	25.93	0.73	0.750			
0.2621	16775.98	3.9350	3.9350	0.8868	25.93	0.73	0.750			
0.2648	16946.52	3.9320	3.9321	0.8821	25.93	0.73	0.750			
0.2674	17116.44	3.9290	3.9290	0.8867	25.93	0.73	0.750			
0.2701	17286.42	3.9260	3.9260	0.8876	25.93	0.73	0.750			
0.2727	17455.38	3.9230	3.9230	0.8862	25.93	0.73	0.750			
0.2754	17625.54	3.9200	3.9201	0.8898	25.93	0.73	0.750			
0.2781	17801.01	3.9170	3.9169	0.8709	25.92	0.72	0.750			
0.2806	17961.53	3.9140	3.9142	0.8949	25.92	0.72	0.750			
0.2833	18128.75	3.9110	3.9112	0.9066	25.91	0.71	0.750			
0.2860	18306.98	3.9080	3.9072	0.9255	25.91	0.71	0.750			
0.2889	18488.43	3.9050	3.9049	0.9366	25.91	0.71	0.750			
0.2918	18673.44	3.9020	3.9024	0.9404	25.90	0.70	0.750			
0.2947	18858.31	3.8990	3.8992	0.9387	25.90	0.70	0.750			
0.2975	19042.96	3.8960	3.8959	0.9211	25.89	0.69	0.750			
0.3003	19216.25	3.8930	3.8930	0.9031	25.89	0.69	0.750			
0.3029	19383.54	3.8900	3.8900	0.8910	25.88	0.68	0.750			
0.3055	19553.71	3.8870	3.8871	0.8909	25.87	0.67	0.750			
0.3082	19724.32	3.8840	3.8840	0.8946	25.87	0.67	0.750			
0.3109	19895.11	3.8810	3.8808	0.8932	25.86	0.66	0.750			
0.3136	20069.12	3.8780	3.8780	0.8906	25.85	0.65	0.750			
0.3163	20240.44	3.8750	3.8750	0.8912	25.85	0.65	0.750			
0.3189	20411.40	3.8720	3.8721	0.8966	25.84	0.64	0.750			
0.3216	20583.73	3.8690	3.8690	0.8964	25.83	0.63	0.750			
0.3243	20753.56	3.8660	3.8661	0.8953	25.83	0.63	0.750			
0.3270	20927.67	3.8630	3.8631	0.8903	25.82	0.62	0.750			
0.3297	21097.85	3.8600	3.8600	0.9009	25.81	0.61	0.750			
0.3324	21270.78	3.8570	3.8570	0.9079	25.80	0.60	0.750			
0.3351	21444.86	3.8540	3.8540	0.9083	25.79	0.59	0.750			
0.3378	21618.72	3.8510	3.8511	0.9171	25.78	0.58	0.750			
0.3406	21797.18	3.8480	3.8481	0.9259	25.77	0.57	0.750			
0.3434	21976.12	3.8450	3.8451	0.9331	25.76	0.56	0.750			
0.3462	22158.51	3.8420	3.8420	0.9419	25.75	0.55	0.750	0.312	0.449	
0.3490	22336.25	3.8390	3.8390	0.9405	25.74	0.54	0.750			
0.3519	22519.40	3.8360	3.8360	0.9369	25.73	0.53	0.750			
0.3547	22699.01	3.8330	3.8330	0.9461	25.72	0.52	0.750			
0.3575	22879.45	3.8300	3.8300	0.9538	25.70	0.50	0.750			
0.3604	23062.63	3.8270	3.8269	0.9613	25.69	0.49	0.750			
0.3633	23249.68	3.8240	3.8240	0.9627	25.68	0.48	0.750			
0.3662	23434.71	3.8210	3.8211	0.9750	25.67	0.47	0.750			
0.3691	23622.94	3.8180	3.8181	0.9849	25.66	0.46	0.750			
0.3721	23814.38	3.8150	3.8150	0.9969	25.65	0.45	0.750			
0.3750	24003.06	3.8120	3.8121	0.9972	25.65	0.45	0.750			
0.3781	24195.28	3.8090	3.8091	1.0097	25.64	0.44	0.750			
0.3811	24390.59	3.8060	3.8060	1.0239	25.63	0.43	0.750			
0.3842	24589.22	3.8030	3.8030	1.0383	25.62	0.42	0.750			
0.3873	24790.27	3.8000	3.8000	1.0394	25.60	0.40	0.750			
0.3905	24989.55	3.7970	3.7971	1.0599	25.59	0.39	0.750			
0.3937	25193.66	3.7940	3.7941	1.0819	25.57	0.37	0.750			
0.3969	25403.20	3.7910	3.7910	1.0998	25.56	0.36	0.750			
0.4003	25617.60	3.7880	3.7880	1.1075	25.54	0.34	0.750			
0.4036	25830.59	3.7850	3.7852	1.1252	25.53	0.33	0.750			
0.4070	26048.42	3.7820	3.7821	1.1418	25.52	0.32	0.750			
0.4105	26271.02	3.7790	3.7788	1.1611	25.51	0.31	0.750			
0.4139	26490.39	3.7760	3.7760	1.1705	25.50	0.30	0.750			
0.4175	26717.52	3.7730	3.7731	1.1953	25.49	0.29	0.750			
0.4211	26951.61	3.7700	3.7701	1.2248	25.48	0.28	0.750			
0.4248	27190.07	3.7670	3.7670	1.2325	25.47	0.27	0.750			
0.4285	27425.42	3.7640	3.7641	1.2629	25.46	0.26	0.750			
0.4323	27668.24	3.7610	3.7611	1.2928	25.45	0.25	0.750			
0.4362	27918.65	3.7580	3.7574	1.3210	25.44	0.24	0.750			
0.4402	28174.69	3.7550	3.7551	1.3512	25.42	0.22	0.750			
0.4444	28439.80	3.7520	3.7521	1.3803	25.40	0.20	0.750			
0.4486	28709.38	3.7490	3.7488	1.4205	25.38	0.18	0.750			
0.4528	28981.83	3.7460	3.7461	1.4450	25.37	0.17	0.750			
0.4573	29264.74	3.7430	3.7430	1.4786	25.36	0.16	0.750			
0.4618	29552.33	3.7400	3.7398	1.5271	25.35	0.15	0.750			
0.4664	29850.44	3.7370	3.7371	1.5483	25.33	0.13	0.750			
0.4711	30150.83	3.7340	3.7340	1.5914	25.31	0.11	0.750			
0.4759	30458.13	3.7310	3.7312	1.6371	25.29	0.09	0.750			
0.4809	30774.45	3.7280	3.7277	1.6803	25.28	0.08	0.750			
0.4860	31103.73	3.7250	3.7248	1.7335	25.27	0.07	0.750			
0.4913	31446.04	3.7220	3.7220	1.7806	25.25	0.05	0.750			
0.4968	31797.16	3.7190	3.7190	1.8273	25.23	0.03	0.750			
0.5024	32152.43	3.7160	3.7163	1.8609	25.21	0.01	0.750			
0.5080	32512.08	3.7130	3.7133	1.9321	25.19	-0.01	0.750			
0.5138	32882.54	3.7100	3.7099	1.9866	25.17	-0.03	0.750			
0.5199	33273.00	3.7070	3.7068	2.0239	25.16	-0.04	0.750			
0.5261	33669.86	3.7040	3.7042	2.0798	25.14	-0.06	0.750			
0.5324	34076.63	3.7010	3.7011	2.1580	25.13	-0.07	0.750			
0.5391	34499.81	3.6980	3.6977	2.1669	25.12	-0.08	0.750			
0.5453	34901.80	3.6950	3.6953	2.2457	25.11	-0.09	0.750			
0.5523	35344.49	3.6920	3.6917	2.2913	25.09	-0.11	0.750			
0.5594	35799.43	3.6890	3.6888	2.3919	25.08	-0.12	0.750			
0.5669	36280.24	3.6860	3.6856	2.4630	25.07	-0.13	0.750			
0.5742	36751.67	3.6830	3.6829	2.4876	25.06	-0.14	0.750			
0.5815	37214.56	3.6800	3.6799	2.4569	25.06	-0.14	0.750			
0.5890	37697.60	3.6770	3.6770	2.4250	25.06	-0.14	0.750			
0.5962	38157.34	3.6740	3.6740	2.3744	25.04	-0.16	0.750			
0.6036	38632.19	3.6710	3.6709	2.3276	25.04	-0.16	0.750			
0.6102	39055.43	3.6680	3.6681	2.1338	25.05	-0.15	0.750			
0.6163	39443.71	3.6650	3.6652	1.9690	25.05	-0.15	0.750			
0.6221	39813.35	3.6620	3.6621	1.8449	25.06	-0.14	0.750			
0.6272	40142.77	3.6590	3.6591	1.7018	25.07	-0.13	0.750			
0.6322	40461.49	3.6560	3.6560	1.6021	25.07	-0.13	0.750			
0.6369	40761.28	3.6530	3.6527	1.5052	25.08	-0.12	0.750			
0.6413	41041.68	3.6500	3.6501	1.4097	25.09	-0.11	0.750			
0.6452	41291.66	3.6470	3.6471	1.2973	25.09	-0.11	0.750			
0.6490	41536.23	3.6440	3.6440	1.2128	25.10	-0.10	0.750			
0.6524	41756.23	3.6410	3.6409	1.1297	25.11	-0.09	0.750			
0.6557	41962.00	3.6380	3.6381	1.0780	25.11	-0.09	0.750			
0.6588	42162.92	3.6350	3.6351	1.0340	25.12	-0.08	0.750			
0.6618	42355.70	3.6320	3.6317	0.9948	25.12	-0.08	0.750			
0.6648	42544.63	3.6290	3.6291	0.9563	25.13	-0.07	0.750			
0.6676	42723.90	3.6260	3.6261	0.9236	25.13	-0.07	0.750			
0.6703	42899.03	3.6230	3.6231	0.8931	25.13	-0.07	0.750			
0.6729	43067.12	3.6200	3.6198	0.8476	25.14	-0.06	0.750			
0.6755	43232.63	3.6170	3.6169	0.7844	25.15	-0.05	0.750			
0.6778	43378.73	3.6140	3.6141	0.7507	25.16	-0.04	0.750			
0.6800	43518.15	3.6110	3.6111	0.6988	25.17	-0.03	0.750			
0.6820	43647.22	3.6080	3.6082	0.6570	25.18	-0.02	0.750			
0.6839	43766.47	3.6050	3.6045	0.6057	25.19	-0.01	0.750			
0.6856	43876.92	3.6020	3.6022	0.5584	25.20	-0.00	0.750			
0.6872	43981.92	3.5990	3.5993	0.5124	25.21	0.01	0.750			
0.6887	44077.41	3.5960	3.5961	0.4640	25.21	0.01	0.750			
0.6900	44161.80	3.5930	3.5930	0.4063	25.22	0.02	0.750			
0.6912	44237.21	3.5900	3.5899	0.3595	25.22	0.02	0.750			
0.6922	44300.89	3.5870	3.5869	0.3063	25.23	0.03	0.750			
0.6930	44354.92	3.5840	3.5840	0.2545	25.23	0.03	0.750			
0.6937	44399.28	3.5810	3.5811	0.2024	25.24	0.04	0.750			
0.6943	44434.03	3.5780	3.5783	0.1491	25.24	0.04	0.750			
0.6947	44459.89	3.5750	3.5754	0.0923	25.24	0.04	0.750			
0.6948	44469.92	3.5720	3.5735	0.0372	25.24	0.04	0.750			
0.6949	44471.79	3.5690	3.5724	-0.0178	25.24	0.04	0.750			
