Ah_balance (normalized)	Ah_balance (mAh)	Voltage - fit (V)	Voltage -  interpolate (V)	dQ/dV (1/V)	Temperature (°C)	Temperature - diff (°C)	Current (C)	R_DC 0ms (mOhm)	R_DC 50ms (mOhm)	R_DC 50 ms PEC (mOhm)
0.0479	3065.18	4.1970	4.1970	0.7810	25.46	0.66	0.750			
0.0502	3213.70	4.1940	4.1940	0.7682	25.46	0.66	0.750			
0.0525	3359.34	4.1910	4.1911	0.7618	25.45	0.65	0.750			
0.0548	3504.69	4.1880	4.1880	0.7612	25.45	0.65	0.750			
0.0570	3649.72	4.1850	4.1850	0.7624	25.45	0.65	0.750			
0.0593	3795.69	4.1820	4.1820	0.7630	25.45	0.65	0.750			
0.0616	3942.86	4.1790	4.1790	0.7669	25.45	0.65	0.750			
0.0639	4091.53	4.1760	4.1761	0.7711	25.44	0.64	0.750			
0.0662	4239.47	4.1730	4.1730	0.7700	25.44	0.64	0.750			
0.0686	4388.48	4.1700	4.1700	0.7737	25.44	0.64	0.750			
0.0709	4535.85	4.1670	4.1671	0.7741	25.44	0.64	0.750			
0.0732	4687.73	4.1640	4.1639	0.7675	25.44	0.64	0.750			
0.0756	4835.30	4.1610	4.1609	0.7692	25.44	0.64	0.750			
0.0778	4981.27	4.1580	4.1581	0.7675	25.44	0.64	0.750			
0.0801	5127.70	4.1550	4.1551	0.7672	25.44	0.64	0.750			
0.0824	5274.48	4.1520	4.1521	0.7676	25.44	0.64	0.750			
0.0847	5421.39	4.1490	4.1491	0.7715	25.44	0.64	0.750			
0.0870	5570.13	4.1460	4.1459	0.7655	25.44	0.64	0.750			
0.0893	5717.16	4.1430	4.1430	0.7720	25.43	0.63	0.750			
0.0916	5864.63	4.1400	4.1401	0.7743	25.43	0.63	0.750			
0.0940	6013.48	4.1370	4.1366	0.7796	25.43	0.63	0.750			
0.0963	6164.08	4.1340	4.1341	0.7842	25.43	0.63	0.750			
0.0987	6316.19	4.1310	4.1312	0.7888	25.43	0.63	0.750			
0.1011	6470.07	4.1280	4.1279	0.7920	25.43	0.63	0.750			
0.1035	6624.29	4.1250	4.1249	0.7931	25.43	0.63	0.750			
0.1058	6771.35	4.1220	4.1220	0.7848	25.43	0.63	0.750			
0.1082	6922.43	4.1190	4.1190	0.7873	25.43	0.63	0.750			
0.1106	7075.27	4.1160	4.1160	0.7891	25.43	0.63	0.750			
0.1129	7226.51	4.1130	4.1130	0.7905	25.43	0.63	0.750			
0.1153	7378.55	4.1100	4.1100	0.7949	25.43	0.63	0.750			
0.1177	7531.49	4.1070	4.1071	0.7962	25.43	0.63	0.750			
0.1201	7683.74	4.1040	4.1041	0.8002	25.43	0.63	0.750			
0.1225	7838.09	4.1010	4.1011	0.8022	25.43	0.63	0.750			
0.1249	7991.87	4.0980	4.0980	0.7967	25.43	0.63	0.750			
0.1272	8143.20	4.0950	4.0951	0.7996	25.43	0.63	0.750			
0.1296	8296.32	4.0920	4.0922	0.8035	25.43	0.63	0.750			
0.1320	8450.84	4.0890	4.0885	0.8082	25.43	0.63	0.750			
0.1345	8606.45	4.0860	4.0861	0.8144	25.43	0.63	0.750			
0.1369	8763.61	4.0830	4.0831	0.8141	25.43	0.63	0.750			
0.1394	8923.61	4.0800	4.0800	0.8217	25.42	0.62	0.750			
0.1419	9079.15	4.0770	4.0770	0.8134	25.42	0.62	0.750			
0.1443	9235.69	4.0740	4.0738	0.8155	25.42	0.62	0.750			
0.1468	9393.09	4.0710	4.0710	0.8177	25.42	0.62	0.750			
0.1492	9550.77	4.0680	4.0680	0.8167	25.42	0.62	0.750			
0.1517	9707.66	4.0650	4.0651	0.8179	25.43	0.63	0.750			
0.1541	9863.66	4.0620	4.0620	0.8184	25.43	0.63	0.750			
0.1566	10022.31	4.0590	4.0585	0.8163	25.43	0.63	0.750			
0.1590	10178.77	4.0560	4.0561	0.8138	25.43	0.63	0.750			
0.1615	10335.74	4.0530	4.0531	0.8104	25.43	0.63	0.750			
0.1639	10489.70	4.0500	4.0501	0.8004	25.43	0.63	0.750			
0.1662	10639.47	4.0470	4.0470	0.8053	25.43	0.63	0.750			
0.1686	10788.59	4.0440	4.0442	0.8124	25.43	0.63	0.750			
0.1710	10945.44	4.0410	4.0412	0.8297	25.43	0.63	0.750			
0.1736	11109.71	4.0380	4.0371	0.8429	25.43	0.63	0.750			
0.1762	11273.78	4.0350	4.0352	0.8545	25.43	0.63	0.750			
0.1788	11444.82	4.0320	4.0320	0.8721	25.43	0.63	0.750			
0.1813	11606.04	4.0290	4.0288	0.8541	25.43	0.63	0.750			
0.1839	11769.84	4.0260	4.0261	0.8515	25.43	0.63	0.750			
0.1865	11938.03	4.0230	4.0229	0.8450	25.43	0.63	0.750			
0.1890	12095.67	4.0200	4.0201	0.8746	25.42	0.62	0.750			
0.1916	12264.66	4.0170	4.0171	0.8968	25.42	0.62	0.750			
0.1943	12436.99	4.0140	4.0131	0.9089	25.42	0.62	0.750			
0.1971	12616.70	4.0110	4.0114	0.9058	25.42	0.62	0.750			
0.1999	12795.40	4.0080	4.0082	0.9122	25.42	0.62	0.750			
0.2027	12971.40	4.0050	4.0051	0.9045	25.43	0.63	0.750			
0.2054	13147.78	4.0020	4.0019	0.9077	25.43	0.63	0.750			
0.2080	13310.61	3.9990	3.9991	0.8826	25.43	0.63	0.750			
0.2106	13480.83	3.9960	3.9960	0.8841	25.43	0.63	0.750			
0.2133	13651.71	3.9930	3.9931	0.8890	25.43	0.63	0.750			
0.2160	13825.66	3.9900	3.9899	0.8912	25.43	0.63	0.750			
0.2187	13993.74	3.9870	3.9870	0.8862	25.43	0.63	0.750			
0.2213	14163.39	3.9840	3.9840	0.8871	25.43	0.63	0.750			
0.2239	14331.77	3.9810	3.9810	0.8869	25.43	0.63	0.750			
0.2266	14502.39	3.9780	3.9781	0.8924	25.43	0.63	0.750			
0.2293	14674.01	3.9750	3.9750	0.8990	25.43	0.63	0.750			
0.2320	14846.63	3.9720	3.9717	0.9052	25.43	0.63	0.750			
0.2348	15026.65	3.9690	3.9691	0.8940	25.43	0.63	0.750			
0.2374	15195.87	3.9660	3.9661	0.8992	25.43	0.63	0.750			
0.2401	15368.92	3.9630	3.9631	0.9036	25.44	0.64	0.750			
0.2428	15539.51	3.9600	3.9602	0.9034	25.44	0.64	0.750			
0.2455	15712.82	3.9570	3.9570	0.9122	25.44	0.64	0.750			
0.2483	15889.18	3.9540	3.9541	0.9155	25.44	0.64	0.750			
0.2511	16067.90	3.9510	3.9511	0.9213	25.45	0.65	0.750			
0.2539	16247.44	3.9480	3.9480	0.9279	25.45	0.65	0.750			
0.2566	16423.91	3.9450	3.9449	0.9189	25.45	0.65	0.750			
0.2594	16602.16	3.9420	3.9419	0.9147	25.45	0.65	0.750			
0.2621	16776.42	3.9390	3.9391	0.9181	25.45	0.65	0.750			
0.2649	16952.63	3.9360	3.9361	0.9203	25.45	0.65	0.750			
0.2677	17129.80	3.9330	3.9330	0.9227	25.45	0.65	0.750			
0.2704	17306.68	3.9300	3.9301	0.9236	25.45	0.65	0.750			
0.2732	17484.20	3.9270	3.9271	0.9140	25.45	0.65	0.750			
0.2759	17659.15	3.9240	3.9241	0.9241	25.45	0.65	0.750			
0.2787	17836.87	3.9210	3.9210	0.9285	25.45	0.65	0.750			
0.2815	18013.92	3.9180	3.9176	0.9293	25.45	0.65	0.750			
0.2843	18192.38	3.9150	3.9152	0.9367	25.45	0.65	0.750			
0.2871	18374.50	3.9120	3.9120	0.9414	25.45	0.65	0.750			
0.2900	18558.86	3.9090	3.9090	0.9482	25.45	0.65	0.750			
0.2928	18739.82	3.9060	3.9060	0.9412	25.45	0.65	0.750			
0.2956	18920.13	3.9030	3.9031	0.9426	25.45	0.65	0.750			
0.2985	19103.06	3.9000	3.8999	0.9355	25.44	0.64	0.750			
0.3012	19279.35	3.8970	3.8971	0.9410	25.44	0.64	0.750			
0.3040	19458.57	3.8940	3.8941	0.9436	25.43	0.63	0.750			
0.3069	19641.07	3.8910	3.8905	0.9486	25.43	0.63	0.750			
0.3098	19827.72	3.8880	3.8880	0.9351	25.43	0.63	0.750			
0.3126	20004.06	3.8850	3.8852	0.9502	25.43	0.63	0.750			
0.3154	20187.89	3.8820	3.8821	0.9595	25.42	0.62	0.750			
0.3183	20371.21	3.8790	3.8789	0.9568	25.42	0.62	0.750			
0.3212	20556.06	3.8760	3.8762	0.9620	25.42	0.62	0.750			
0.3241	20742.80	3.8730	3.8731	0.9689	25.41	0.61	0.750			
0.3270	20930.97	3.8700	3.8701	0.9743	25.41	0.61	0.750			
0.3300	21119.70	3.8670	3.8670	0.9671	25.40	0.60	0.750			
0.3329	21304.01	3.8640	3.8640	0.9699	25.40	0.60	0.750			
0.3358	21493.11	3.8610	3.8609	0.9623	25.39	0.59	0.750			
0.3387	21675.83	3.8580	3.8581	0.9644	25.38	0.58	0.750			
0.3415	21858.79	3.8550	3.8551	0.9768	25.38	0.58	0.750			
0.3445	22046.24	3.8520	3.8517	0.9858	25.37	0.57	0.750			
0.3475	22242.23	3.8490	3.8490	0.9543	25.36	0.56	0.750			
0.3504	22425.30	3.8460	3.8462	0.9377	25.36	0.56	0.750			
0.3532	22607.06	3.8430	3.8434	0.9394	25.36	0.56	0.750			
0.3561	22787.66	3.8400	3.8402	0.9424	25.35	0.55	0.750			
0.3586	22949.71	3.8370	3.8359	0.9474	25.34	0.54	0.750			
0.3614	23130.63	3.8340	3.8346	0.9882	25.33	0.53	0.750			
0.3645	23327.47	3.8310	3.8307	1.0181	25.32	0.52	0.750	0.239	0.367	
0.3678	23537.97	3.8280	3.8283	1.0354	25.31	0.51	0.750			
0.3710	23741.51	3.8250	3.8252	1.0261	25.30	0.50	0.750			
0.3739	23932.49	3.8220	3.8223	1.0163	25.29	0.49	0.750			
0.3770	24128.35	3.8190	3.8192	1.0191	25.28	0.48	0.750			
0.3800	24317.23	3.8160	3.8162	1.0100	25.27	0.47	0.750			
0.3830	24512.71	3.8130	3.8130	1.0002	25.26	0.46	0.750			
0.3860	24702.00	3.8100	3.8104	1.0326	25.25	0.45	0.750			
0.3892	24911.35	3.8070	3.8072	1.0496	25.24	0.44	0.750			
0.3923	25110.09	3.8040	3.8044	1.0398	25.23	0.43	0.750			
0.3954	25308.07	3.8010	3.8007	1.0520	25.22	0.42	0.750			
0.3985	25503.33	3.7980	3.7986	1.0787	25.21	0.41	0.750			
0.4019	25719.14	3.7950	3.7952	1.0939	25.20	0.40	0.750			
0.4053	25937.17	3.7920	3.7924	1.0943	25.18	0.38	0.750			
0.4085	26141.96	3.7890	3.7894	1.0918	25.17	0.37	0.750			
0.4118	26356.99	3.7860	3.7864	1.1348	25.16	0.36	0.750			
0.4153	26576.54	3.7830	3.7831	1.1330	25.15	0.35	0.750			
0.4186	26789.85	3.7800	3.7801	1.1192	25.14	0.34	0.750			
0.4219	27000.43	3.7770	3.7777	1.1571	25.13	0.33	0.750			
0.4253	27218.08	3.7740	3.7748	1.2345	25.12	0.32	0.750			
0.4291	27461.32	3.7710	3.7715	1.2938	25.11	0.31	0.750			
0.4331	27717.39	3.7680	3.7675	1.3464	25.10	0.30	0.750			
0.4372	27980.22	3.7650	3.7658	1.3875	25.08	0.28	0.750			
0.4418	28274.71	3.7620	3.7622	1.4125	25.07	0.27	0.750			
0.4461	28548.98	3.7590	3.7590	1.4123	25.05	0.25	0.750			
0.4500	28802.31	3.7560	3.7561	1.3590	25.04	0.24	0.750			
0.4542	29070.92	3.7530	3.7531	1.3730	25.03	0.23	0.750			
0.4584	29334.84	3.7500	3.7501	1.4229	25.01	0.21	0.750			
0.4626	29608.60	3.7470	3.7472	1.4418	25.00	0.20	0.750			
0.4670	29885.75	3.7440	3.7442	1.4806	24.99	0.19	0.750			
0.4715	30177.49	3.7410	3.7413	1.5130	24.97	0.17	0.750			
0.4760	30462.15	3.7380	3.7375	1.5568	24.96	0.16	0.750			
0.4809	30774.55	3.7350	3.7351	1.5733	24.94	0.14	0.750			
0.4857	31086.43	3.7320	3.7311	1.6205	24.93	0.13	0.750			
0.4905	31392.64	3.7290	3.7294	1.6781	24.91	0.11	0.750			
0.4955	31714.01	3.7260	3.7265	1.7210	24.90	0.10	0.750			
0.5009	32058.95	3.7230	3.7231	1.7609	24.88	0.08	0.750			
0.5062	32399.09	3.7200	3.7197	1.7961	24.86	0.06	0.750			
0.5119	32759.54	3.7170	3.7167	1.9089	24.84	0.04	0.750			
0.5177	33129.94	3.7140	3.7136	1.9155	24.82	0.02	0.750			
0.5234	33497.38	3.7110	3.7115	1.9834	24.81	0.01	0.750			
0.5294	33881.41	3.7080	3.7085	2.0797	24.80	-0.00	0.750			
0.5359	34298.50	3.7050	3.7053	2.0830	24.78	-0.02	0.750			
0.5424	34714.62	3.7020	3.7021	2.1677	24.76	-0.04	0.750			
0.5488	35122.27	3.6990	3.6987	2.2339	24.75	-0.05	0.750			
0.5558	35568.45	3.6960	3.6960	2.3157	24.74	-0.06	0.750			
0.5627	36010.29	3.6930	3.6927	2.3754	24.72	-0.08	0.750			
0.5699	36473.77	3.6900	3.6903	2.4126	24.70	-0.10	0.750			
0.5771	36934.98	3.6870	3.6872	2.4918	24.69	-0.11	0.750			
0.5847	37422.18	3.6840	3.6835	2.5356	24.69	-0.11	0.750			
0.5925	37919.50	3.6810	3.6811	2.6371	24.67	-0.13	0.750			
0.6008	38449.87	3.6780	3.6775	2.6506	24.66	-0.14	0.750			
0.6084	38935.96	3.6750	3.6744	2.7426	24.66	-0.14	0.750			
0.6171	39497.49	3.6720	3.6726	3.0023	24.66	-0.14	0.750			
0.6262	40078.27	3.6690	3.6686	3.1385	24.66	-0.14	0.750			
0.6363	40722.46	3.6660	3.6661	3.1652	24.66	-0.14	0.750			
0.6453	41297.00	3.6630	3.6630	2.8062	24.66	-0.14	0.750			
0.6527	41773.78	3.6600	3.6601	2.3764	24.67	-0.13	0.750			
0.6593	42193.14	3.6570	3.6570	2.1229	24.68	-0.12	0.750			
0.6652	42573.33	3.6540	3.6539	1.9111	24.68	-0.12	0.750			
0.6706	42919.75	3.6510	3.6512	1.7457	24.68	-0.12	0.750			
0.6757	43243.72	3.6480	3.6481	1.6098	24.70	-0.10	0.750			
0.6802	43532.85	3.6450	3.6451	1.4559	24.72	-0.08	0.750			
0.6844	43803.26	3.6420	3.6420	1.3335	24.72	-0.08	0.750			
0.6881	44037.48	3.6390	3.6390	1.2066	24.73	-0.07	0.750			
0.6913	44245.99	3.6360	3.6361	1.1114	24.73	-0.07	0.750			
0.6945	44448.50	3.6330	3.6327	1.0491	24.73	-0.07	0.750			
0.6975	44638.09	3.6300	3.6300	0.9965	24.74	-0.06	0.750			
0.7004	44824.40	3.6270	3.6271	0.9646	24.74	-0.06	0.750			
0.7032	45007.10	3.6240	3.6240	0.9414	24.75	-0.05	0.750			
0.7060	45185.12	3.6210	3.6210	0.9106	24.76	-0.04	0.750			
0.7087	45359.58	3.6180	3.6180	0.8817	24.77	-0.03	0.750			
0.7114	45527.71	3.6150	3.6150	0.8430	24.78	-0.02	0.750			
0.7139	45690.66	3.6120	3.6120	0.7969	24.78	-0.02	0.750			
0.7163	45840.26	3.6090	3.6090	0.7414	24.79	-0.01	0.750			
0.7184	45978.34	3.6060	3.6060	0.6782	24.80	-0.00	0.750			
0.7203	46101.87	3.6030	3.6030	0.6108	24.80	0.00	0.750			
0.7221	46214.23	3.6000	3.6000	0.5348	24.81	0.01	0.750			
0.7236	46307.92	3.5970	3.5971	0.4777	24.81	0.01	0.750			
0.7249	46391.33	3.5940	3.5941	0.4238	24.82	0.02	0.750			
0.7260	46466.62	3.5910	3.5907	0.3692	24.82	0.02	0.750			
0.7270	46531.08	3.5880	3.5882	0.3160	24.83	0.03	0.750			
0.7279	46587.50	3.5850	3.5853	0.2705	24.83	0.03	0.750			
0.7287	46637.20	3.5820	3.5822	0.2234	24.83	0.03	0.750			
0.7294	46679.86	3.5790	3.5786	0.1492	24.83	0.03	0.750			
0.7297	46701.29	3.5760	3.5763	0.1084	24.83	0.03	0.750			
