Ah_balance (normalized)	Ah_balance (mAh)	Voltage - fit (V)	Voltage -  interpolate (V)	dQ/dV (1/V)	Temperature (°C)	Temperature - diff (°C)	Current (C)	R_DC 0ms (mOhm)	R_DC 50ms (mOhm)	R_DC 50 ms PEC (mOhm)
0.0002	14.65	4.1620	4.1615	-0.1066	25.10	0.02	-0.750			
0.0006	38.86	4.1590	4.1588	-0.1482	25.10	0.02	-0.750			
0.0011	72.28	4.1560	4.1558	-0.1918	25.10	0.02	-0.750			
0.0018	112.96	4.1530	4.1531	-0.2334	25.10	0.02	-0.750			
0.0025	162.26	4.1500	4.1500	-0.2732	25.09	0.01	-0.750			
0.0034	218.65	4.1470	4.1471	-0.3128	25.09	0.01	-0.750			
0.0044	283.33	4.1440	4.1440	-0.3502	25.09	0.01	-0.750			
0.0055	354.15	4.1410	4.1411	-0.3866	25.08	0.00	-0.750			
0.0068	432.76	4.1380	4.1380	-0.4218	25.08	-0.00	-0.750			
0.0081	517.67	4.1350	4.1350	-0.4546	25.08	-0.00	-0.750			
0.0095	608.44	4.1320	4.1320	-0.4840	25.07	-0.01	-0.750			
0.0110	705.62	4.1290	4.1290	-0.5123	25.07	-0.01	-0.750			
0.0126	805.89	4.1260	4.1260	-0.5385	25.06	-0.02	-0.750			
0.0143	914.73	4.1230	4.1230	-0.5545	25.06	-0.02	-0.750			
0.0160	1023.03	4.1200	4.1200	-0.5730	25.05	-0.03	-0.750			
0.0177	1134.25	4.1170	4.1170	-0.5892	25.04	-0.04	-0.750			
0.0195	1249.33	4.1140	4.1142	-0.6029	25.04	-0.04	-0.750			
0.0213	1365.64	4.1110	4.1107	-0.6180	25.04	-0.04	-0.750			
0.0232	1486.16	4.1080	4.1080	-0.6310	25.03	-0.05	-0.750			
0.0251	1608.23	4.1050	4.1051	-0.6463	25.03	-0.05	-0.750			
0.0271	1736.92	4.1020	4.1019	-0.6641	25.03	-0.05	-0.750			
0.0292	1866.07	4.0990	4.0990	-0.6674	25.02	-0.06	-0.750			
0.0312	1996.02	4.0960	4.0963	-0.6719	25.02	-0.06	-0.750			
0.0332	2125.89	4.0930	4.0929	-0.6771	25.02	-0.06	-0.750			
0.0352	2254.88	4.0900	4.0898	-0.6771	25.01	-0.07	-0.750			
0.0372	2383.32	4.0870	4.0871	-0.6827	25.01	-0.07	-0.750			
0.0393	2513.76	4.0840	4.0841	-0.6890	25.01	-0.07	-0.750			
0.0414	2649.56	4.0810	4.0810	-0.7005	25.00	-0.08	-0.750			
0.0435	2785.53	4.0780	4.0780	-0.7093	25.00	-0.08	-0.750			
0.0457	2921.88	4.0750	4.0750	-0.7192	25.00	-0.08	-0.750			
0.0478	3061.66	4.0720	4.0720	-0.7220	25.00	-0.08	-0.750			
0.0500	3202.31	4.0690	4.0689	-0.7267	25.00	-0.08	-0.750			
0.0522	3342.05	4.0660	4.0660	-0.7277	25.00	-0.08	-0.750			
0.0544	3482.88	4.0630	4.0631	-0.7287	25.00	-0.08	-0.750			
0.0566	3621.58	4.0600	4.0602	-0.7309	25.00	-0.08	-0.750			
0.0588	3761.24	4.0570	4.0570	-0.7315	25.00	-0.08	-0.750			
0.0609	3900.04	4.0540	4.0540	-0.7403	25.00	-0.08	-0.750			
0.0632	4045.72	4.0510	4.0509	-0.7431	25.00	-0.08	-0.750			
0.0655	4190.11	4.0480	4.0480	-0.7449	25.00	-0.08	-0.750			
0.0677	4332.90	4.0450	4.0449	-0.7409	25.00	-0.08	-0.750			
0.0699	4475.72	4.0420	4.0420	-0.7409	25.00	-0.08	-0.750			
0.0721	4615.77	4.0390	4.0389	-0.7399	25.00	-0.08	-0.750			
0.0743	4755.27	4.0360	4.0360	-0.7445	25.00	-0.08	-0.750			
0.0765	4897.27	4.0330	4.0330	-0.7477	25.00	-0.08	-0.750			
0.0788	5045.93	4.0300	4.0299	-0.7596	25.00	-0.08	-0.750			
0.0812	5193.80	4.0270	4.0270	-0.7609	25.00	-0.08	-0.750			
0.0834	5340.17	4.0240	4.0240	-0.7625	25.00	-0.08	-0.750			
0.0857	5486.07	4.0210	4.0210	-0.7641	25.00	-0.08	-0.750			
0.0880	5632.93	4.0180	4.0179	-0.7607	25.00	-0.08	-0.750			
0.0903	5776.77	4.0150	4.0150	-0.7603	25.00	-0.08	-0.750			
0.0926	5924.54	4.0120	4.0120	-0.7632	25.00	-0.08	-0.750			
0.0949	6071.35	4.0090	4.0090	-0.7618	25.00	-0.08	-0.750			
0.0971	6217.14	4.0060	4.0060	-0.7685	25.00	-0.08	-0.750			
0.0994	6363.60	4.0030	4.0030	-0.7706	25.00	-0.08	-0.750			
0.1018	6512.70	4.0000	4.0000	-0.7683	25.01	-0.07	-0.750			
0.1041	6661.79	3.9970	3.9970	-0.7719	25.01	-0.07	-0.750			
0.1064	6809.23	3.9940	3.9942	-0.7716	25.01	-0.07	-0.750			
0.1087	6958.99	3.9910	3.9909	-0.7713	25.01	-0.07	-0.750			
0.1110	7106.10	3.9880	3.9880	-0.7736	25.01	-0.07	-0.750			
0.1133	7253.17	3.9850	3.9850	-0.7733	25.02	-0.06	-0.750			
0.1156	7401.20	3.9820	3.9820	-0.7818	25.02	-0.06	-0.750			
0.1180	7553.30	3.9790	3.9789	-0.7889	25.02	-0.06	-0.750			
0.1204	7705.86	3.9760	3.9760	-0.7848	25.02	-0.06	-0.750			
0.1227	7854.21	3.9730	3.9731	-0.7973	25.02	-0.06	-0.750			
0.1252	8009.93	3.9700	3.9700	-0.7993	25.02	-0.06	-0.750			
0.1276	8163.60	3.9670	3.9669	-0.7989	25.02	-0.06	-0.750			
0.1300	8318.78	3.9640	3.9639	-0.7966	25.02	-0.06	-0.750			
0.1324	8470.56	3.9610	3.9611	-0.7975	25.02	-0.06	-0.750			
0.1347	8623.20	3.9580	3.9580	-0.8033	25.02	-0.06	-0.750			
0.1372	8778.65	3.9550	3.9549	-0.8019	25.02	-0.06	-0.750			
0.1395	8929.67	3.9520	3.9519	-0.7904	25.03	-0.05	-0.750			
0.1420	9084.82	3.9490	3.9489	-0.7958	25.03	-0.05	-0.750			
0.1443	9237.63	3.9460	3.9463	-0.7922	25.03	-0.05	-0.750			
0.1467	9388.72	3.9430	3.9430	-0.7922	25.03	-0.05	-0.750			
0.1490	9536.76	3.9400	3.9400	-0.7950	25.03	-0.05	-0.750			
0.1514	9690.49	3.9370	3.9368	-0.8038	25.03	-0.05	-0.750			
0.1539	9846.50	3.9340	3.9340	-0.8119	25.03	-0.05	-0.750			
0.1563	10003.69	3.9310	3.9312	-0.8151	25.03	-0.05	-0.750			
0.1588	10163.00	3.9280	3.9280	-0.8146	25.03	-0.05	-0.750			
0.1612	10319.68	3.9250	3.9250	-0.8176	25.03	-0.05	-0.750			
0.1637	10474.25	3.9220	3.9220	-0.8122	25.04	-0.04	-0.750			
0.1661	10629.79	3.9190	3.9189	-0.8110	25.04	-0.04	-0.750			
0.1685	10786.67	3.9160	3.9161	-0.8118	25.04	-0.04	-0.750			
0.1710	10942.39	3.9130	3.9130	-0.8097	25.04	-0.04	-0.750			
0.1734	11098.52	3.9100	3.9100	-0.8172	25.05	-0.03	-0.750			
0.1759	11256.22	3.9070	3.9069	-0.8157	25.05	-0.03	-0.750			
0.1783	11411.10	3.9040	3.9039	-0.8110	25.05	-0.03	-0.750			
0.1808	11569.73	3.9010	3.9012	-0.8111	25.06	-0.02	-0.750			
0.1832	11724.97	3.8980	3.8979	-0.8093	25.06	-0.02	-0.750			
0.1856	11879.15	3.8950	3.8950	-0.8104	25.06	-0.02	-0.750			
0.1880	12033.72	3.8920	3.8920	-0.8103	25.06	-0.02	-0.750			
0.1904	12186.35	3.8890	3.8890	-0.8065	25.06	-0.02	-0.750			
0.1929	12345.76	3.8860	3.8860	-0.8111	25.06	-0.02	-0.750			
0.1953	12501.50	3.8830	3.8831	-0.8086	25.06	-0.02	-0.750			
0.1977	12655.09	3.8800	3.8800	-0.8189	25.06	-0.02	-0.750			
0.2002	12813.48	3.8770	3.8768	-0.8117	25.06	-0.02	-0.750			
0.2026	12968.77	3.8740	3.8740	-0.8075	25.07	-0.01	-0.750			
0.2051	13125.91	3.8710	3.8710	-0.8028	25.07	-0.01	-0.750			
0.2075	13281.68	3.8680	3.8678	-0.7998	25.07	-0.01	-0.750			
0.2099	13432.77	3.8650	3.8650	-0.7986	25.07	-0.01	-0.750			
0.2122	13582.98	3.8620	3.8620	-0.7894	25.07	-0.01	-0.750			
0.2146	13732.05	3.8590	3.8589	-0.7830	25.08	-0.00	-0.750			
0.2170	13888.13	3.8560	3.8559	-0.7781	25.08	-0.00	-0.750			
0.2193	14037.83	3.8530	3.8533	-0.7569	25.08	0.00	-0.750			
0.2216	14181.19	3.8500	3.8500	-0.7415	25.08	0.00	-0.750			
0.2237	14318.42	3.8470	3.8472	-0.7369	25.08	0.00	-0.750			
0.2259	14455.99	3.8440	3.8437	-0.7386	25.08	0.00	-0.750			
0.2280	14594.93	3.8410	3.8409	-0.7475	25.08	0.00	-0.750			
0.2303	14740.50	3.8380	3.8380	-0.7527	25.08	0.00	-0.750			
0.2327	14890.78	3.8350	3.8351	-0.7678	25.08	-0.00	-0.750			
0.2350	15038.26	3.8320	3.8320	-0.7765	25.08	-0.00	-0.750			
0.2373	15188.33	3.8290	3.8290	-0.7680	25.08	-0.00	-0.750			
0.2396	15335.26	3.8260	3.8259	-0.7616	25.07	-0.01	-0.750			
0.2419	15480.41	3.8230	3.8230	-0.7632	25.07	-0.01	-0.750			
0.2442	15626.16	3.8200	3.8208	-0.7627	25.07	-0.01	-0.750			
0.2465	15774.50	3.8170	3.8168	-0.7617	25.07	-0.01	-0.750			
0.2488	15920.53	3.8140	3.8140	-0.7643	25.07	-0.01	-0.750			
0.2510	16066.87	3.8110	3.8110	-0.7622	25.07	-0.01	-0.750			
0.2534	16216.78	3.8080	3.8079	-0.7598	25.07	-0.01	-0.750			
0.2556	16361.41	3.8050	3.8049	-0.7534	25.07	-0.01	-0.750			
0.2579	16503.47	3.8020	3.8019	-0.7480	25.07	-0.01	-0.750			
0.2601	16644.74	3.7990	3.7989	-0.7472	25.07	-0.01	-0.750			
0.2623	16787.24	3.7960	3.7959	-0.7589	25.07	-0.01	-0.750			
0.2646	16933.73	3.7930	3.7931	-0.7543	25.08	-0.00	-0.750			
0.2669	17084.05	3.7900	3.7898	-0.7690	25.08	-0.00	-0.750			
0.2693	17233.75	3.7870	3.7873	-0.7726	25.08	0.00	-0.750			
0.2716	17380.85	3.7840	3.7840	-0.7700	25.08	0.00	-0.750			
0.2739	17528.13	3.7810	3.7809	-0.7755	25.08	0.00	-0.750			
0.2762	17676.13	3.7780	3.7781	-0.7725	25.08	0.00	-0.750			
0.2785	17825.90	3.7750	3.7749	-0.7814	25.08	0.00	-0.750			
0.2809	17976.79	3.7720	3.7718	-0.7871	25.08	0.00	-0.750			
0.2832	18127.38	3.7690	3.7689	-0.7903	25.08	-0.00	-0.750			
0.2856	18280.18	3.7660	3.7660	-0.8008	25.08	-0.00	-0.750			
0.2881	18436.65	3.7630	3.7629	-0.8006	25.07	-0.01	-0.750			
0.2905	18589.79	3.7600	3.7601	-0.8027	25.07	-0.01	-0.750			
0.2929	18746.14	3.7570	3.7570	-0.8112	25.07	-0.01	-0.750			
0.2953	18899.79	3.7540	3.7540	-0.8169	25.07	-0.01	-0.750			
0.2977	19054.15	3.7510	3.7508	-0.8288	25.07	-0.01	-0.750			
0.3002	19214.51	3.7480	3.7481	-0.8373	25.07	-0.01	-0.750			
0.3027	19375.56	3.7450	3.7450	-0.8515	25.07	-0.01	-0.750			
0.3054	19546.70	3.7420	3.7420	-0.8643	25.07	-0.01	-0.750			
0.3080	19711.48	3.7390	3.7389	-0.8683	25.07	-0.01	-0.750			
0.3106	19877.44	3.7360	3.7361	-0.8794	25.06	-0.02	-0.750			
0.3132	20047.15	3.7330	3.7328	-0.8871	25.06	-0.02	-0.750			
0.3159	20217.59	3.7300	3.7299	-0.8933	25.05	-0.03	-0.750			
0.3186	20393.12	3.7270	3.7269	-0.9022	25.05	-0.03	-0.750			
0.3213	20565.39	3.7240	3.7240	-0.9147	25.05	-0.03	-0.750			
0.3241	20743.90	3.7210	3.7210	-0.9196	25.05	-0.03	-0.750			
0.3268	20916.80	3.7180	3.7180	-0.9238	25.04	-0.04	-0.750			
0.3296	21097.01	3.7150	3.7148	-0.9402	25.04	-0.04	-0.750			
0.3325	21277.00	3.7120	3.7119	-0.9521	25.04	-0.04	-0.750			
0.3353	21456.10	3.7090	3.7090	-0.9897	25.03	-0.05	-0.750			
0.3383	21653.70	3.7060	3.7060	-0.9882	25.03	-0.05	-0.750			
0.3413	21845.14	3.7030	3.7028	-0.9960	25.02	-0.06	-0.750			
0.3443	22036.14	3.7000	3.7001	-1.0278	25.02	-0.06	-0.750			
0.3474	22235.27	3.6970	3.6966	-1.0249	25.01	-0.07	-0.750	0.382	0.532	
0.3505	22433.19	3.6940	3.6938	-1.0335	25.01	-0.07	-0.750			
0.3536	22629.44	3.6910	3.6908	-1.0428	25.00	-0.08	-0.750			
0.3567	22831.42	3.6880	3.6886	-1.0796	25.00	-0.08	-0.750			
0.3600	23040.64	3.6850	3.6849	-1.0762	24.99	-0.09	-0.750			
0.3632	23246.01	3.6820	3.6820	-1.0772	24.98	-0.10	-0.750			
0.3664	23449.88	3.6790	3.6789	-1.0796	24.98	-0.10	-0.750			
0.3697	23661.73	3.6760	3.6762	-1.1194	24.97	-0.11	-0.750			
0.3730	23874.93	3.6730	3.6729	-1.1347	24.96	-0.12	-0.750			
0.3764	24091.19	3.6700	3.6699	-1.1594	24.96	-0.12	-0.750			
0.3799	24313.79	3.6670	3.6671	-1.1929	24.95	-0.13	-0.750			
0.3836	24553.13	3.6640	3.6638	-1.2217	24.95	-0.13	-0.750			
0.3874	24792.96	3.6610	3.6610	-1.2422	24.94	-0.14	-0.750			
0.3911	25027.22	3.6580	3.6580	-1.2709	24.93	-0.15	-0.750			
0.3949	25273.84	3.6550	3.6552	-1.2700	24.93	-0.15	-0.750			
0.3988	25521.69	3.6520	3.6519	-1.2898	24.92	-0.16	-0.750			
0.4026	25768.81	3.6490	3.6488	-1.2981	24.91	-0.17	-0.750			
0.4065	26017.78	3.6460	3.6468	-1.3129	24.90	-0.18	-0.750			
0.4105	26274.96	3.6430	3.6430	-1.3416	24.89	-0.19	-0.750			
0.4144	26524.11	3.6400	3.6400	-1.3886	24.89	-0.19	-0.750			
0.4187	26798.40	3.6370	3.6369	-1.4027	24.88	-0.20	-0.750			
0.4230	27074.74	3.6340	3.6338	-1.4353	24.87	-0.21	-0.750			
0.4273	27349.61	3.6310	3.6309	-1.4618	24.87	-0.21	-0.750			
0.4317	27631.91	3.6280	3.6287	-1.4997	24.86	-0.22	-0.750			
0.4362	27919.65	3.6250	3.6249	-1.5339	24.85	-0.23	-0.750			
0.4408	28213.04	3.6220	3.6217	-1.5608	24.85	-0.23	-0.750			
0.4454	28508.59	3.6190	3.6189	-1.6032	24.84	-0.24	-0.750			
0.4505	28832.97	3.6160	3.6157	-1.6476	24.83	-0.25	-0.750			
0.4556	29158.84	3.6130	3.6124	-1.6693	24.83	-0.25	-0.750			
0.4606	29475.79	3.6100	3.6100	-1.6727	24.82	-0.26	-0.750			
0.4657	29803.72	3.6070	3.6066	-1.6751	24.81	-0.27	-0.750			
0.4707	30124.28	3.6040	3.6035	-1.7099	24.80	-0.28	-0.750			
0.4758	30454.12	3.6010	3.6004	-1.7295	24.79	-0.29	-0.750			
0.4812	30794.14	3.5980	3.5979	-1.7817	24.79	-0.29	-0.750			
0.4867	31146.46	3.5950	3.5956	-1.8656	24.79	-0.29	-0.750			
0.4924	31515.22	3.5920	3.5923	-1.9006	24.78	-0.30	-0.750			
0.4982	31887.31	3.5890	3.5890	-1.9570	24.77	-0.31	-0.750			
0.5040	32255.25	3.5860	3.5863	-1.9239	24.76	-0.32	-0.750			
0.5100	32638.32	3.5830	3.5829	-1.9436	24.76	-0.32	-0.750			
0.5158	33012.24	3.5800	3.5800	-1.9742	24.75	-0.33	-0.750			
0.5217	33390.43	3.5770	3.5767	-1.9974	24.75	-0.33	-0.750			
0.5278	33779.82	3.5740	3.5737	-1.9917	24.74	-0.34	-0.750			
0.5336	34148.27	3.5710	3.5712	-2.0047	24.74	-0.34	-0.750			
0.5399	34556.00	3.5680	3.5684	-2.0349	24.73	-0.35	-0.750			
0.5461	34950.88	3.5650	3.5645	-2.0439	24.72	-0.36	-0.750			
0.5520	35330.06	3.5620	3.5625	-2.0435	24.72	-0.36	-0.750			
0.5582	35724.52	3.5590	3.5589	-2.0483	24.72	-0.36	-0.750			
0.5645	36130.96	3.5560	3.5556	-2.0656	24.71	-0.37	-0.750			
0.5708	36529.69	3.5530	3.5532	-2.0397	24.70	-0.38	-0.750			
0.5768	36917.86	3.5500	3.5504	-2.0101	24.71	-0.37	-0.750			
0.5829	37305.95	3.5470	3.5469	-1.9950	24.71	-0.37	-0.750			
0.5885	37666.99	3.5440	3.5439	-1.9418	24.72	-0.36	-0.750			
0.5946	38054.26	3.5410	3.5411	-1.9405	24.72	-0.36	-0.750			
0.6002	38415.42	3.5380	3.5382	-1.9273	24.73	-0.35	-0.750			
0.6060	38785.09	3.5350	3.5349	-1.8858	24.73	-0.35	-0.750			
0.6117	39146.63	3.5320	3.5317	-1.8561	24.73	-0.35	-0.750			
0.6172	39498.07	3.5290	3.5286	-1.8441	24.74	-0.34	-0.750			
0.6228	39861.41	3.5260	3.5261	-1.8217	24.75	-0.33	-0.750			
0.6283	40208.73	3.5230	3.5228	-1.7584	24.75	-0.33	-0.750			
0.6336	40551.62	3.5200	3.5196	-1.7358	24.77	-0.31	-0.750			
0.6388	40880.66	3.5170	3.5168	-1.7265	24.78	-0.30	-0.750			
0.6438	41200.75	3.5140	3.5138	-1.6353	24.80	-0.28	-0.750			
0.6486	41509.72	3.5110	3.5112	-1.5777	24.81	-0.27	-0.750			
0.6533	41808.01	3.5080	3.5081	-1.5492	24.81	-0.27	-0.750			
0.6579	42106.68	3.5050	3.5048	-1.5178	24.82	-0.26	-0.750			
0.6625	42399.79	3.5020	3.5017	-1.4840	24.84	-0.24	-0.750			
0.6667	42670.84	3.4990	3.4989	-1.4426	24.85	-0.23	-0.750			
0.6711	42948.57	3.4960	3.4960	-1.4077	24.87	-0.21	-0.750			
0.6755	43229.29	3.4930	3.4928	-1.3820	24.88	-0.20	-0.750			
0.6795	43485.14	3.4900	3.4900	-1.3317	24.89	-0.19	-0.750			
0.6832	43727.68	3.4870	3.4871	-1.2947	24.89	-0.19	-0.750			
0.6872	43980.52	3.4840	3.4839	-1.2373	24.90	-0.18	-0.750			
0.6908	44212.17	3.4810	3.4811	-1.1723	24.91	-0.17	-0.750			
