Ah_balance (normalized)	Ah_balance (mAh)	Voltage - fit (V)	Voltage -  interpolate (V)	dQ/dV (1/V)	Temperature (°C)	Temperature - diff (°C)	Current (C)	R_DC 0ms (mOhm)	R_DC 50ms (mOhm)	R_DC 50 ms PEC (mOhm)
0.0491	3145.19	4.1970	4.1970	0.7586	25.43	0.48	0.750			
0.0514	3290.97	4.1940	4.1940	0.7520	25.43	0.48	0.750			
0.0536	3431.72	4.1910	4.1911	0.7474	25.43	0.48	0.750			
0.0559	3575.25	4.1880	4.1880	0.7478	25.43	0.48	0.750			
0.0581	3718.15	4.1850	4.1849	0.7499	25.43	0.48	0.750			
0.0603	3861.88	4.1820	4.1821	0.7493	25.43	0.48	0.750			
0.0626	4007.53	4.1790	4.1790	0.7542	25.43	0.48	0.750			
0.0649	4152.29	4.1760	4.1760	0.7517	25.43	0.48	0.750			
0.0671	4297.23	4.1730	4.1730	0.7529	25.43	0.48	0.750			
0.0694	4439.26	4.1700	4.1700	0.7568	25.43	0.48	0.750			
0.0717	4586.85	4.1670	4.1666	0.7568	25.43	0.48	0.750			
0.0739	4732.71	4.1640	4.1640	0.7514	25.43	0.48	0.750			
0.0762	4878.24	4.1610	4.1611	0.7463	25.43	0.48	0.750			
0.0785	5023.54	4.1580	4.1581	0.7284	25.43	0.48	0.750			
0.0806	5157.15	4.1550	4.1551	0.7387	25.43	0.48	0.750			
0.0827	5294.03	4.1520	4.1521	0.7403	25.43	0.48	0.750			
0.0849	5436.34	4.1490	4.1494	0.7503	25.43	0.48	0.750			
0.0872	5581.07	4.1460	4.1464	0.7742	25.43	0.48	0.750			
0.0895	5731.05	4.1430	4.1433	0.7989	25.43	0.48	0.750			
0.0921	5892.23	4.1400	4.1399	0.8137	25.43	0.48	0.750			
0.0945	6050.49	4.1370	4.1374	0.8117	25.43	0.48	0.750			
0.0970	6207.37	4.1340	4.1342	0.8092	25.43	0.48	0.750			
0.0995	6365.15	4.1310	4.1311	0.8057	25.43	0.48	0.750			
0.1019	6522.75	4.1280	4.1279	0.7940	25.43	0.48	0.750			
0.1042	6665.67	4.1250	4.1250	0.7720	25.44	0.49	0.750			
0.1065	6813.61	4.1220	4.1220	0.7694	25.44	0.49	0.750			
0.1088	6961.90	4.1190	4.1189	0.7760	25.44	0.49	0.750			
0.1111	7110.42	4.1160	4.1161	0.7779	25.44	0.49	0.750			
0.1135	7262.28	4.1130	4.1129	0.7677	25.44	0.49	0.750			
0.1158	7409.48	4.1100	4.1101	0.7750	25.43	0.48	0.750			
0.1181	7555.96	4.1070	4.1071	0.7777	25.43	0.48	0.750			
0.1204	7705.42	4.1040	4.1041	0.7834	25.43	0.48	0.750			
0.1228	7856.23	4.1010	4.1009	0.7891	25.43	0.48	0.750			
0.1251	8007.69	4.0980	4.0981	0.7824	25.43	0.48	0.750			
0.1275	8159.34	4.0950	4.0952	0.7894	25.43	0.48	0.750			
0.1299	8311.88	4.0920	4.0921	0.7958	25.44	0.49	0.750			
0.1322	8462.63	4.0890	4.0884	0.7931	25.44	0.49	0.750			
0.1346	8614.51	4.0860	4.0862	0.7946	25.44	0.49	0.750			
0.1370	8768.64	4.0830	4.0831	0.8057	25.44	0.49	0.750			
0.1395	8927.02	4.0800	4.0800	0.8090	25.44	0.49	0.750			
0.1419	9083.43	4.0770	4.0770	0.8147	25.45	0.50	0.750			
0.1443	9235.80	4.0740	4.0740	0.8079	25.45	0.50	0.750			
0.1467	9391.85	4.0710	4.0708	0.8066	25.45	0.50	0.750			
0.1492	9546.44	4.0680	4.0680	0.8086	25.45	0.50	0.750			
0.1516	9701.88	4.0650	4.0651	0.8061	25.45	0.50	0.750			
0.1540	9855.69	4.0620	4.0620	0.8081	25.45	0.50	0.750			
0.1564	10010.43	4.0590	4.0590	0.8088	25.45	0.50	0.750			
0.1588	10165.35	4.0560	4.0557	0.8141	25.45	0.50	0.750			
0.1613	10323.35	4.0530	4.0530	0.8181	25.45	0.50	0.750			
0.1638	10484.86	4.0500	4.0499	0.8073	25.45	0.50	0.750			
0.1662	10636.28	4.0470	4.0471	0.8164	25.45	0.50	0.750			
0.1686	10792.89	4.0440	4.0441	0.8242	25.45	0.50	0.750			
0.1711	10947.87	4.0410	4.0410	0.8270	25.45	0.50	0.750			
0.1736	11108.57	4.0380	4.0379	0.8380	25.45	0.50	0.750			
0.1761	11271.77	4.0350	4.0351	0.8395	25.45	0.50	0.750			
0.1787	11435.28	4.0320	4.0321	0.8465	25.46	0.51	0.750			
0.1813	11601.69	4.0290	4.0290	0.8576	25.46	0.51	0.750			
0.1838	11760.42	4.0260	4.0258	0.8456	25.46	0.51	0.750			
0.1863	11922.80	4.0230	4.0230	0.8470	25.46	0.51	0.750			
0.1889	12086.66	4.0200	4.0200	0.8456	25.46	0.51	0.750			
0.1914	12251.08	4.0170	4.0171	0.8515	25.45	0.50	0.750			
0.1940	12413.76	4.0140	4.0140	0.8497	25.45	0.50	0.750			
0.1965	12576.27	4.0110	4.0107	0.8520	25.45	0.50	0.750			
0.1990	12738.65	4.0080	4.0080	0.8491	25.45	0.50	0.750			
0.2017	12905.76	4.0050	4.0050	0.8421	25.46	0.51	0.750			
0.2042	13070.96	4.0020	4.0019	0.8353	25.46	0.51	0.750			
0.2066	13223.91	3.9990	3.9992	0.8417	25.47	0.52	0.750			
0.2090	13377.57	3.9960	3.9964	0.8470	25.47	0.52	0.750			
0.2116	13542.60	3.9930	3.9927	0.8620	25.47	0.52	0.750			
0.2142	13709.79	3.9900	3.9904	0.8744	25.47	0.52	0.750			
0.2169	13882.44	3.9870	3.9873	0.8945	25.46	0.51	0.750			
0.2197	14060.22	3.9840	3.9842	0.8963	25.46	0.51	0.750			
0.2225	14240.06	3.9810	3.9808	0.8945	25.46	0.51	0.750			
0.2251	14404.49	3.9780	3.9781	0.8655	25.46	0.51	0.750			
0.2276	14568.99	3.9750	3.9751	0.8686	25.46	0.51	0.750			
0.2302	14735.48	3.9720	3.9720	0.8722	25.47	0.52	0.750			
0.2328	14901.57	3.9690	3.9691	0.8752	25.47	0.52	0.750			
0.2355	15068.81	3.9660	3.9661	0.8779	25.47	0.52	0.750			
0.2381	15239.63	3.9630	3.9631	0.8827	25.47	0.52	0.750			
0.2408	15411.86	3.9600	3.9600	0.8836	25.47	0.52	0.750			
0.2435	15584.57	3.9570	3.9571	0.8666	25.47	0.52	0.750			
0.2460	15746.85	3.9540	3.9540	0.8726	25.47	0.52	0.750			
0.2486	15910.97	3.9510	3.9512	0.8771	25.47	0.52	0.750			
0.2512	16079.97	3.9480	3.9476	0.8793	25.47	0.52	0.750			
0.2539	16248.63	3.9450	3.9451	0.8867	25.47	0.52	0.750			
0.2566	16421.37	3.9420	3.9422	0.8935	25.47	0.52	0.750			
0.2593	16594.46	3.9390	3.9388	0.8976	25.47	0.52	0.750			
0.2621	16771.29	3.9360	3.9360	0.9032	25.47	0.52	0.750			
0.2647	16939.37	3.9330	3.9330	0.8797	25.46	0.51	0.750			
0.2673	17106.96	3.9300	3.9301	0.8824	25.46	0.51	0.750			
0.2699	17276.19	3.9270	3.9270	0.8792	25.45	0.50	0.750			
0.2726	17443.91	3.9240	3.9242	0.8793	25.45	0.50	0.750			
0.2752	17613.24	3.9210	3.9211	0.8799	25.45	0.50	0.750			
0.2779	17782.56	3.9180	3.9180	0.8859	25.45	0.50	0.750			
0.2805	17954.75	3.9150	3.9150	0.8886	25.44	0.49	0.750			
0.2832	18123.68	3.9120	3.9119	0.8740	25.44	0.49	0.750			
0.2858	18290.02	3.9090	3.9091	0.8767	25.44	0.49	0.750			
0.2884	18458.20	3.9060	3.9062	0.8803	25.44	0.49	0.750			
0.2910	18626.87	3.9030	3.9024	0.8836	25.43	0.48	0.750			
0.2937	18797.05	3.9000	3.9002	0.8888	25.43	0.48	0.750			
0.2964	18968.02	3.8970	3.8970	0.8920	25.43	0.48	0.750			
0.2991	19142.74	3.8940	3.8940	0.9002	25.42	0.47	0.750			
0.3019	19318.42	3.8910	3.8909	0.8941	25.42	0.47	0.750			
0.3044	19484.11	3.8880	3.8881	0.8875	25.41	0.46	0.750			
0.3071	19653.87	3.8850	3.8851	0.8858	25.41	0.46	0.750			
0.3097	19823.99	3.8820	3.8821	0.8863	25.40	0.45	0.750			
0.3124	19993.99	3.8790	3.8791	0.8869	25.39	0.44	0.750			
0.3151	20164.45	3.8760	3.8760	0.8905	25.39	0.44	0.750			
0.3178	20336.66	3.8730	3.8730	0.8929	25.38	0.43	0.750			
0.3205	20511.69	3.8700	3.8699	0.8805	25.37	0.42	0.750			
0.3231	20677.74	3.8670	3.8670	0.8807	25.37	0.42	0.750			
0.3257	20845.20	3.8640	3.8641	0.8853	25.36	0.41	0.750			
0.3283	21013.64	3.8610	3.8611	0.8966	25.35	0.40	0.750			
0.3310	21185.17	3.8580	3.8577	0.9048	25.35	0.40	0.750			
0.3338	21361.17	3.8550	3.8550	0.9118	25.34	0.39	0.750			
0.3366	21541.88	3.8520	3.8521	0.9146	25.33	0.38	0.750			
0.3393	21717.21	3.8490	3.8491	0.9251	25.32	0.37	0.750			
0.3421	21892.15	3.8460	3.8461	0.9229	25.31	0.36	0.750			
0.3448	22069.04	3.8430	3.8429	0.9281	25.31	0.36	0.750	0.339	0.470	
0.3476	22247.94	3.8400	3.8399	0.9384	25.30	0.35	0.750			
0.3505	22430.53	3.8370	3.8371	0.9413	25.29	0.34	0.750			
0.3533	22612.37	3.8340	3.8341	0.9485	25.28	0.33	0.750			
0.3562	22796.99	3.8310	3.8310	0.9572	25.28	0.33	0.750			
0.3590	22977.92	3.8280	3.8277	0.9535	25.27	0.32	0.750			
0.3619	23162.95	3.8250	3.8250	0.9552	25.26	0.31	0.750			
0.3648	23345.97	3.8220	3.8221	0.9671	25.25	0.30	0.750			
0.3677	23533.27	3.8190	3.8190	0.9778	25.24	0.29	0.750			
0.3706	23720.47	3.8160	3.8160	0.9813	25.22	0.27	0.750			
0.3736	23912.92	3.8130	3.8130	0.9829	25.22	0.27	0.750			
0.3766	24100.81	3.8100	3.8101	0.9971	25.21	0.26	0.750			
0.3796	24292.66	3.8070	3.8071	1.0134	25.20	0.25	0.750			
0.3826	24486.64	3.8040	3.8042	1.0233	25.19	0.24	0.750			
0.3858	24691.40	3.8010	3.8010	1.0051	25.19	0.24	0.750			
0.3888	24883.04	3.7980	3.7981	1.0121	25.18	0.23	0.750			
0.3918	25074.13	3.7950	3.7954	1.0205	25.17	0.22	0.750			
0.3948	25268.22	3.7920	3.7918	1.0382	25.16	0.21	0.750			
0.3979	25464.51	3.7890	3.7888	1.0386	25.16	0.21	0.750			
0.4011	25667.77	3.7860	3.7861	1.0510	25.15	0.20	0.750			
0.4042	25866.16	3.7830	3.7834	1.0972	25.14	0.19	0.750			
0.4075	26081.55	3.7800	3.7801	1.1628	25.13	0.18	0.750			
0.4110	26301.34	3.7770	3.7772	1.2068	25.11	0.16	0.750			
0.4147	26539.65	3.7740	3.7734	1.2430	25.10	0.15	0.750			
0.4186	26788.67	3.7710	3.7717	1.2902	25.09	0.14	0.750			
0.4227	27054.45	3.7680	3.7683	1.3185	25.08	0.13	0.750			
0.4267	27309.32	3.7650	3.7650	1.3238	25.07	0.12	0.750			
0.4305	27549.65	3.7620	3.7621	1.2880	25.07	0.12	0.750			
0.4344	27802.23	3.7590	3.7587	1.3154	25.06	0.11	0.750			
0.4384	28054.43	3.7560	3.7561	1.3380	25.05	0.10	0.750			
0.4424	28314.09	3.7530	3.7531	1.3729	25.03	0.08	0.750			
0.4466	28580.50	3.7500	3.7498	1.3958	25.02	0.07	0.750			
0.4509	28854.84	3.7470	3.7470	1.4022	25.01	0.06	0.750			
0.4551	29123.79	3.7440	3.7441	1.4451	24.99	0.04	0.750			
0.4595	29409.83	3.7410	3.7406	1.4684	24.98	0.03	0.750			
0.4640	29695.30	3.7380	3.7381	1.4893	24.97	0.02	0.750			
0.4684	29979.11	3.7350	3.7352	1.5715	24.96	0.01	0.750			
0.4732	30286.74	3.7320	3.7319	1.6138	24.95	-0.00	0.750			
0.4782	30602.98	3.7290	3.7287	1.6567	24.93	-0.02	0.750			
0.4834	30936.27	3.7260	3.7261	1.7124	24.92	-0.03	0.750			
0.4886	31267.61	3.7230	3.7227	1.7581	24.91	-0.04	0.750			
0.4938	31605.62	3.7200	3.7203	1.8116	24.89	-0.06	0.750			
0.4993	31956.94	3.7170	3.7171	1.8379	24.88	-0.07	0.750			
0.5051	32325.83	3.7140	3.7140	1.9126	24.87	-0.08	0.750			
0.5108	32693.04	3.7110	3.7110	1.9578	24.86	-0.09	0.750			
0.5167	33071.78	3.7080	3.7079	2.0628	24.84	-0.11	0.750			
0.5231	33480.58	3.7050	3.7049	2.1037	24.83	-0.12	0.750			
0.5295	33886.93	3.7020	3.7019	2.1249	24.82	-0.13	0.750			
0.5360	34302.87	3.6990	3.6991	2.1966	24.82	-0.13	0.750			
0.5424	34715.15	3.6960	3.6961	2.1925	24.81	-0.14	0.750			
0.5490	35137.34	3.6930	3.6931	2.2785	24.80	-0.15	0.750			
0.5561	35587.76	3.6900	3.6902	2.4410	24.80	-0.15	0.750			
0.5636	36070.11	3.6870	3.6869	2.3898	24.79	-0.16	0.750			
0.5709	36539.34	3.6840	3.6839	2.4221	24.78	-0.17	0.750			
0.5782	37005.12	3.6810	3.6814	2.4247	24.78	-0.17	0.750			
0.5856	37477.09	3.6780	3.6781	2.3641	24.78	-0.17	0.750			
0.5929	37945.43	3.6750	3.6750	2.3384	24.78	-0.17	0.750			
0.5996	38375.06	3.6720	3.6719	2.1765	24.78	-0.17	0.750			
0.6058	38771.81	3.6690	3.6690	2.0653	24.79	-0.16	0.750			
0.6117	39148.17	3.6660	3.6662	1.9187	24.80	-0.15	0.750			
0.6172	39502.78	3.6630	3.6632	1.7995	24.80	-0.15	0.750			
0.6227	39851.08	3.6600	3.6600	1.7390	24.80	-0.15	0.750			
0.6277	40175.55	3.6570	3.6569	1.6294	24.81	-0.14	0.750			
0.6324	40472.60	3.6540	3.6542	1.4945	24.83	-0.12	0.750			
0.6367	40751.31	3.6510	3.6511	1.3993	24.83	-0.12	0.750			
0.6408	41011.13	3.6480	3.6481	1.3033	24.84	-0.11	0.750			
0.6446	41255.23	3.6450	3.6450	1.2296	24.85	-0.10	0.750			
0.6481	41475.43	3.6420	3.6421	1.1451	24.85	-0.10	0.750			
0.6514	41686.45	3.6390	3.6390	1.0870	24.86	-0.09	0.750			
0.6545	41889.63	3.6360	3.6361	1.0437	24.87	-0.08	0.750			
0.6576	42084.79	3.6330	3.6330	1.0043	24.88	-0.07	0.750			
0.6605	42270.77	3.6300	3.6300	0.9564	24.88	-0.07	0.750			
0.6633	42450.93	3.6270	3.6269	0.9193	24.89	-0.06	0.750			
0.6660	42624.33	3.6240	3.6241	0.8863	24.89	-0.06	0.750			
0.6686	42793.34	3.6210	3.6210	0.8554	24.90	-0.05	0.750			
0.6711	42952.83	3.6180	3.6178	0.8142	24.90	-0.05	0.750			
0.6735	43105.99	3.6150	3.6151	0.7672	24.91	-0.04	0.750			
0.6758	43250.31	3.6120	3.6120	0.7247	24.92	-0.03	0.750			
0.6780	43389.61	3.6090	3.6090	0.6769	24.93	-0.02	0.750			
0.6799	43516.75	3.6060	3.6059	0.6136	24.93	-0.02	0.750			
0.6817	43628.46	3.6030	3.6029	0.5458	24.94	-0.01	0.750			
0.6832	43722.79	3.6000	3.6003	0.5011	24.95	-0.00	0.750			
0.6845	43809.74	3.5970	3.5975	0.4563	24.95	0.00	0.750			
0.6859	43894.48	3.5940	3.5933	0.4161	24.96	0.01	0.750			
0.6870	43968.76	3.5910	3.5917	0.3775	24.96	0.01	0.750			
0.6882	44041.97	3.5880	3.5885	0.3316	24.97	0.02	0.750			
0.6892	44105.87	3.5850	3.5852	0.2919	24.97	0.02	0.750			
0.6901	44163.92	3.5820	3.5816	0.2373	24.97	0.02	0.750			
0.6906	44195.45	3.5790	3.5792	0.1733	24.98	0.03	0.750			
0.6910	44224.66	3.5760	3.5767	0.1207	24.98	0.03	0.750			
0.6913	44242.87	3.5730	3.5743	0.0618	24.98	0.03	0.751			
