Ah_balance (normalized)	Ah_balance (mAh)	Voltage - fit (V)	Voltage -  interpolate (V)	dQ/dV (1/V)	Temperature (°C)	Temperature - diff (°C)	Current (C)	R_DC 0ms (mOhm)	R_DC 50ms (mOhm)	R_DC 50 ms PEC (mOhm)
0.0484	3097.69	4.1980	4.1979	0.7998	25.06	0.44	0.750			
0.0507	3244.74	4.1950	4.1950	0.7697	25.06	0.44	0.750			
0.0530	3393.05	4.1920	4.1921	0.7714	25.06	0.44	0.750			
0.0553	3540.83	4.1890	4.1889	0.7729	25.06	0.44	0.750			
0.0577	3689.81	4.1860	4.1861	0.7737	25.06	0.44	0.750			
0.0600	3838.83	4.1830	4.1830	0.7689	25.06	0.44	0.750			
0.0623	3986.13	4.1800	4.1800	0.7695	25.06	0.44	0.750			
0.0646	4133.05	4.1770	4.1771	0.7702	25.06	0.44	0.750			
0.0669	4281.38	4.1740	4.1740	0.7748	25.06	0.44	0.750			
0.0692	4430.79	4.1710	4.1711	0.7785	25.06	0.44	0.750			
0.0716	4580.95	4.1680	4.1681	0.7798	25.06	0.44	0.750			
0.0739	4731.62	4.1650	4.1650	0.7832	25.06	0.44	0.750			
0.0763	4882.19	4.1620	4.1620	0.7857	25.06	0.44	0.750			
0.0786	5031.26	4.1590	4.1590	0.7874	25.06	0.44	0.750			
0.0810	5182.50	4.1560	4.1557	0.7922	25.06	0.44	0.750			
0.0834	5336.41	4.1530	4.1530	0.7930	25.06	0.44	0.750			
0.0858	5489.86	4.1500	4.1501	0.7917	25.06	0.44	0.750			
0.0882	5643.58	4.1470	4.1471	0.7923	25.06	0.44	0.750			
0.0905	5794.62	4.1440	4.1439	0.7891	25.06	0.44	0.750			
0.0929	5943.38	4.1410	4.1409	0.7888	25.06	0.44	0.750			
0.0952	6093.90	4.1380	4.1380	0.7934	25.06	0.44	0.750			
0.0977	6250.27	4.1350	4.1349	0.7874	25.06	0.44	0.750			
0.1000	6400.77	4.1320	4.1321	0.7933	25.06	0.44	0.750			
0.1024	6552.93	4.1290	4.1291	0.7952	25.06	0.44	0.750			
0.1048	6704.43	4.1260	4.1261	0.7991	25.06	0.44	0.750			
0.1071	6856.80	4.1230	4.1230	0.7999	25.06	0.44	0.750			
0.1096	7011.44	4.1200	4.1200	0.8027	25.06	0.44	0.750			
0.1120	7166.04	4.1170	4.1171	0.8119	25.06	0.44	0.750			
0.1145	7324.80	4.1140	4.1140	0.8186	25.06	0.44	0.750			
0.1169	7481.32	4.1110	4.1111	0.8160	25.06	0.44	0.750			
0.1194	7639.08	4.1080	4.1079	0.8208	25.06	0.44	0.750			
0.1218	7797.92	4.1050	4.1051	0.8161	25.06	0.44	0.750			
0.1243	7955.04	4.1020	4.1020	0.8193	25.06	0.44	0.750			
0.1267	8111.37	4.0990	4.0990	0.8213	25.07	0.45	0.750			
0.1292	8268.73	4.0960	4.0960	0.8191	25.07	0.45	0.750			
0.1317	8426.17	4.0930	4.0929	0.8242	25.07	0.45	0.750			
0.1341	8584.51	4.0900	4.0901	0.8268	25.07	0.45	0.750			
0.1366	8743.28	4.0870	4.0870	0.8239	25.07	0.45	0.750			
0.1391	8901.71	4.0840	4.0840	0.8270	25.07	0.45	0.750			
0.1415	9057.27	4.0810	4.0811	0.8285	25.07	0.45	0.750			
0.1440	9216.85	4.0780	4.0776	0.8387	25.07	0.45	0.750			
0.1466	9382.37	4.0750	4.0750	0.8389	25.07	0.45	0.750			
0.1491	9542.88	4.0720	4.0720	0.8460	25.07	0.45	0.750			
0.1517	9708.20	4.0690	4.0691	0.8540	25.07	0.45	0.750			
0.1542	9870.64	4.0660	4.0662	0.8520	25.07	0.45	0.750			
0.1568	10035.62	4.0630	4.0631	0.8535	25.07	0.45	0.750			
0.1594	10199.62	4.0600	4.0600	0.8519	25.07	0.45	0.750			
0.1619	10362.66	4.0570	4.0570	0.8556	25.07	0.45	0.750			
0.1645	10527.29	4.0540	4.0541	0.8633	25.08	0.46	0.750			
0.1671	10693.53	4.0510	4.0509	0.8619	25.08	0.46	0.750			
0.1697	10859.20	4.0480	4.0481	0.8701	25.08	0.46	0.750			
0.1723	11027.49	4.0450	4.0450	0.8716	25.08	0.46	0.750			
0.1749	11194.80	4.0420	4.0420	0.8679	25.08	0.46	0.750			
0.1775	11360.27	4.0390	4.0391	0.8682	25.08	0.46	0.750			
0.1801	11524.86	4.0360	4.0362	0.8737	25.08	0.46	0.750			
0.1827	11692.23	4.0330	4.0331	0.8767	25.08	0.46	0.750			
0.1854	11862.48	4.0300	4.0300	0.8787	25.08	0.46	0.750			
0.1880	12031.71	4.0270	4.0271	0.8836	25.08	0.46	0.750			
0.1907	12206.14	4.0240	4.0241	0.8970	25.08	0.46	0.750			
0.1933	12373.47	4.0210	4.0206	0.8872	25.08	0.46	0.750			
0.1960	12545.07	4.0180	4.0180	0.8908	25.08	0.46	0.750			
0.1987	12715.24	4.0150	4.0151	0.8982	25.08	0.46	0.750			
0.2014	12891.51	4.0120	4.0120	0.9075	25.08	0.46	0.750			
0.2042	13067.26	4.0090	4.0090	0.9090	25.08	0.46	0.750			
0.2069	13239.95	4.0060	4.0060	0.9071	25.08	0.46	0.750			
0.2096	13416.44	4.0030	4.0030	0.8958	25.08	0.46	0.750			
0.2123	13586.82	4.0000	4.0000	0.9043	25.08	0.46	0.750			
0.2150	13758.61	3.9970	3.9970	0.9102	25.09	0.47	0.750			
0.2177	13931.86	3.9940	3.9940	0.9116	25.09	0.47	0.750			
0.2205	14110.54	3.9910	3.9911	0.9135	25.09	0.47	0.750			
0.2232	14287.00	3.9880	3.9880	0.9217	25.09	0.47	0.750			
0.2260	14465.00	3.9850	3.9851	0.9244	25.09	0.47	0.750			
0.2288	14645.35	3.9820	3.9820	0.9292	25.09	0.47	0.750			
0.2315	14819.19	3.9790	3.9789	0.9254	25.09	0.47	0.750			
0.2343	14998.09	3.9760	3.9760	0.9257	25.09	0.47	0.750			
0.2371	15175.78	3.9730	3.9730	0.9349	25.09	0.47	0.750			
0.2400	15356.98	3.9700	3.9701	0.9394	25.10	0.48	0.750			
0.2428	15536.85	3.9670	3.9669	0.9378	25.10	0.48	0.750			
0.2456	15719.62	3.9640	3.9640	0.9377	25.10	0.48	0.750			
0.2484	15898.95	3.9610	3.9611	0.9406	25.10	0.48	0.750			
0.2512	16078.84	3.9580	3.9580	0.9432	25.10	0.48	0.750			
0.2541	16260.74	3.9550	3.9551	0.9482	25.10	0.48	0.750			
0.2569	16441.06	3.9520	3.9519	0.9481	25.10	0.48	0.750			
0.2598	16624.95	3.9490	3.9490	0.9461	25.11	0.49	0.750			
0.2626	16807.40	3.9460	3.9461	0.9500	25.11	0.49	0.750			
0.2655	16989.62	3.9430	3.9430	0.9515	25.11	0.49	0.750			
0.2683	17170.53	3.9400	3.9398	0.9573	25.12	0.50	0.750			
0.2712	17354.05	3.9370	3.9370	0.9605	25.12	0.50	0.750			
0.2741	17540.19	3.9340	3.9340	0.9658	25.12	0.50	0.750			
0.2770	17727.80	3.9310	3.9310	0.9752	25.12	0.50	0.750			
0.2799	17916.10	3.9280	3.9281	0.9752	25.12	0.50	0.750			
0.2829	18107.47	3.9250	3.9250	0.9643	25.12	0.50	0.750			
0.2858	18290.05	3.9220	3.9220	0.9688	25.12	0.50	0.750			
0.2886	18473.55	3.9190	3.9192	0.9723	25.13	0.51	0.750			
0.2916	18659.64	3.9160	3.9161	0.9802	25.13	0.51	0.750			
0.2945	18846.51	3.9130	3.9128	0.9911	25.13	0.51	0.750			
0.2975	19039.54	3.9100	3.9101	0.9806	25.13	0.51	0.750			
0.3005	19231.85	3.9070	3.9070	0.9849	25.14	0.52	0.750			
0.3034	19419.82	3.9040	3.9042	0.9898	25.14	0.52	0.750			
0.3064	19607.02	3.9010	3.9006	0.9835	25.14	0.52	0.750			
0.3093	19793.97	3.8980	3.8980	0.9883	25.14	0.52	0.750			
0.3123	19984.76	3.8950	3.8950	0.9996	25.14	0.52	0.750			
0.3153	20176.98	3.8920	3.8921	1.0147	25.14	0.52	0.750			
0.3184	20377.90	3.8890	3.8889	1.0398	25.14	0.52	0.750			
0.3216	20579.23	3.8860	3.8859	1.0215	25.14	0.52	0.750			
0.3246	20771.83	3.8830	3.8830	1.0295	25.15	0.53	0.750			
0.3276	20968.55	3.8800	3.8802	1.0423	25.15	0.53	0.750			
0.3308	21168.68	3.8770	3.8767	1.0513	25.16	0.54	0.750			
0.3339	21372.22	3.8740	3.8741	1.0466	25.16	0.54	0.750			
0.3371	21571.31	3.8710	3.8712	1.0582	25.16	0.54	0.750			
0.3403	21776.93	3.8680	3.8681	1.0696	25.17	0.55	0.750			
0.3436	21990.03	3.8650	3.8644	1.0898	25.17	0.55	0.750			
0.3467	22190.29	3.8620	3.8621	1.0784	25.17	0.55	0.750			
0.3500	22397.62	3.8590	3.8591	1.0960	25.17	0.55	0.750			
0.3533	22613.51	3.8560	3.8560	1.1093	25.17	0.55	0.750			
0.3567	22827.02	3.8530	3.8530	1.1052	25.17	0.55	0.750			
0.3600	23041.22	3.8500	3.8501	1.0895	25.17	0.55	0.750			
0.3632	23246.46	3.8470	3.8472	1.1075	25.17	0.55	0.750			
0.3665	23458.71	3.8440	3.8441	1.1129	25.17	0.55	0.750			
0.3699	23674.38	3.8410	3.8411	1.1141	25.17	0.55	0.750			
0.3732	23884.53	3.8380	3.8382	1.1330	25.17	0.55	0.750			
0.3766	24105.57	3.8350	3.8352	1.1572	25.17	0.55	0.750			
0.3803	24336.12	3.8320	3.8319	1.1675	25.17	0.55	0.750	0.320	0.415	
0.3837	24559.41	3.8290	3.8292	1.1636	25.17	0.55	0.750			
0.3872	24783.91	3.8260	3.8261	1.1737	25.16	0.54	0.750			
0.3908	25013.60	3.8230	3.8231	1.1865	25.15	0.53	0.750			
0.3944	25239.40	3.8200	3.8199	1.1787	25.15	0.53	0.750			
0.3978	25461.91	3.8170	3.8170	1.1788	25.14	0.52	0.750			
0.4014	25686.67	3.8140	3.8142	1.1917	25.14	0.52	0.750			
0.4050	25919.48	3.8110	3.8110	1.2019	25.13	0.51	0.750			
0.4086	26149.71	3.8080	3.8081	1.2123	25.13	0.51	0.750			
0.4123	26384.07	3.8050	3.8052	1.2267	25.12	0.50	0.750			
0.4160	26622.88	3.8020	3.8021	1.2423	25.11	0.49	0.750			
0.4198	26869.34	3.7990	3.7991	1.2644	25.11	0.49	0.750			
0.4235	27101.43	3.7960	3.7960	1.2473	25.10	0.48	0.750			
0.4272	27342.86	3.7930	3.7931	1.2604	25.09	0.47	0.750			
0.4311	27587.28	3.7900	3.7897	1.2739	25.08	0.46	0.750			
0.4348	27829.41	3.7870	3.7871	1.2635	25.07	0.45	0.750			
0.4386	28070.66	3.7840	3.7841	1.2791	25.06	0.44	0.750			
0.4426	28323.20	3.7810	3.7809	1.2708	25.04	0.42	0.750			
0.4463	28562.67	3.7780	3.7782	1.2854	25.03	0.41	0.750			
0.4501	28808.35	3.7750	3.7752	1.3068	25.02	0.40	0.750			
0.4541	29064.51	3.7720	3.7723	1.3226	25.01	0.39	0.750			
0.4582	29322.97	3.7690	3.7691	1.3616	25.00	0.38	0.750			
0.4621	29576.37	3.7660	3.7662	1.3672	24.99	0.37	0.750			
0.4663	29841.54	3.7630	3.7631	1.3970	24.98	0.36	0.750			
0.4706	30115.42	3.7600	3.7600	1.4007	24.97	0.35	0.750			
0.4746	30377.32	3.7570	3.7572	1.4132	24.96	0.34	0.750			
0.4790	30656.47	3.7540	3.7542	1.4294	24.95	0.33	0.750			
0.4833	30933.67	3.7510	3.7507	1.4666	24.93	0.31	0.750			
0.4876	31209.30	3.7480	3.7483	1.5229	24.91	0.29	0.750			
0.4923	31509.76	3.7450	3.7453	1.5508	24.90	0.28	0.750			
0.4971	31816.08	3.7420	3.7422	1.6378	24.88	0.26	0.750			
0.5021	32134.05	3.7390	3.7391	1.6474	24.87	0.25	0.750			
0.5072	32462.79	3.7360	3.7359	1.7094	24.86	0.24	0.750			
0.5125	32800.83	3.7330	3.7330	1.7672	24.84	0.22	0.750			
0.5178	33141.18	3.7300	3.7299	1.8129	24.82	0.20	0.750			
0.5232	33484.56	3.7270	3.7274	1.8538	24.81	0.19	0.750			
0.5289	33848.89	3.7240	3.7245	1.8945	24.79	0.17	0.750			
0.5347	34217.93	3.7210	3.7203	1.9810	24.77	0.15	0.750			
0.5408	34610.32	3.7180	3.7179	2.0408	24.75	0.13	0.750			
0.5470	35010.95	3.7150	3.7153	2.0870	24.73	0.11	0.750			
0.5536	35428.30	3.7120	3.7122	2.1902	24.70	0.08	0.750			
0.5602	35851.57	3.7090	3.7087	2.2012	24.68	0.06	0.750			
0.5667	36271.62	3.7060	3.7056	2.2435	24.66	0.04	0.750			
0.5737	36719.95	3.7030	3.7031	2.3492	24.64	0.02	0.750			
0.5808	37170.21	3.7000	3.7001	2.3612	24.62	0.00	0.750			
0.5881	37638.59	3.6970	3.6970	2.4298	24.60	-0.02	0.750			
0.5957	38123.61	3.6940	3.6938	2.5083	24.57	-0.05	0.750			
0.6033	38612.54	3.6910	3.6915	2.5859	24.55	-0.07	0.750			
0.6109	39099.58	3.6880	3.6882	2.6841	24.52	-0.10	0.750			
0.6192	39627.13	3.6850	3.6853	2.7307	24.50	-0.12	0.750			
0.6275	40157.17	3.6820	3.6822	2.7803	24.49	-0.13	0.750			
0.6363	40720.09	3.6790	3.6790	2.8659	24.47	-0.15	0.750			
0.6449	41274.34	3.6760	3.6759	3.0318	24.46	-0.16	0.750			
0.6543	41877.31	3.6730	3.6727	2.9841	24.45	-0.17	0.750			
0.6630	42430.02	3.6700	3.6697	2.9425	24.45	-0.17	0.750			
0.6721	43013.45	3.6670	3.6667	2.9234	24.45	-0.17	0.750			
0.6809	43575.14	3.6640	3.6639	2.9883	24.45	-0.17	0.750			
0.6896	44134.49	3.6610	3.6607	2.8184	24.46	-0.16	0.750			
0.6980	44671.11	3.6580	3.6584	2.6679	24.47	-0.15	0.750			
0.7058	45169.67	3.6550	3.6547	2.4532	24.48	-0.14	0.750			
0.7125	45601.45	3.6520	3.6518	2.1763	24.50	-0.12	0.750			
0.7186	45991.27	3.6490	3.6485	1.9507	24.51	-0.11	0.750			
0.7241	46341.88	3.6460	3.6466	1.7188	24.53	-0.09	0.750			
0.7290	46658.21	3.6430	3.6434	1.5153	24.54	-0.08	0.750			
0.7333	46932.19	3.6400	3.6403	1.2966	24.56	-0.06	0.750			
0.7370	47165.41	3.6370	3.6370	1.1268	24.56	-0.06	0.750			
0.7398	47349.16	3.6340	3.6340	0.9474	24.57	-0.05	0.750			
0.7421	47496.17	3.6310	3.6311	0.8187	24.58	-0.04	0.750			
0.7443	47635.06	3.6280	3.6277	0.7253	24.58	-0.04	0.750			
0.7463	47765.92	3.6250	3.6251	0.6678	24.59	-0.03	0.750			
0.7483	47888.62	3.6220	3.6221	0.6223	24.59	-0.03	0.750			
0.7501	48005.60	3.6190	3.6190	0.5793	24.60	-0.02	0.750			
0.7518	48113.01	3.6160	3.6159	0.5215	24.61	-0.01	0.750			
0.7533	48209.96	3.6130	3.6129	0.4723	24.61	-0.01	0.750			
0.7547	48299.16	3.6100	3.6101	0.4128	24.62	-0.00	0.750			
0.7558	48374.31	3.6070	3.6067	0.3528	24.62	-0.00	0.750			
0.7568	48436.19	3.6040	3.6040	0.2837	24.62	0.00	0.750			
0.7576	48483.83	3.6010	3.6013	0.2113	24.62	0.00	0.750			
0.7581	48517.42	3.5980	3.5988	0.1394	24.63	0.01	0.750			
0.7584	48536.59	3.5950	3.5973	0.0087	24.63	0.01	0.750			
