Ah_balance (normalized)	Ah_balance (mAh)	Voltage - fit (V)	Voltage -  interpolate (V)	dQ/dV (1/V)	Temperature (°C)	Temperature - diff (°C)	Current (C)	R_DC 0ms (mOhm)	R_DC 50ms (mOhm)	R_DC 50 ms PEC (mOhm)
0.0004	23.23	4.1620	4.1617	-0.1187	25.12	0.02	-0.750			
0.0008	50.31	4.1590	4.1589	-0.1644	25.12	0.02	-0.750			
0.0014	88.16	4.1560	4.1558	-0.2089	25.12	0.02	-0.750			
0.0021	132.26	4.1530	4.1530	-0.2493	25.12	0.02	-0.750			
0.0029	183.53	4.1500	4.1501	-0.2926	25.11	0.01	-0.750			
0.0038	244.35	4.1470	4.1471	-0.3339	25.11	0.01	-0.750			
0.0049	312.77	4.1440	4.1439	-0.3712	25.11	0.01	-0.750			
0.0061	388.61	4.1410	4.1410	-0.4051	25.10	0.00	-0.750			
0.0074	470.52	4.1380	4.1382	-0.4401	25.10	0.00	-0.750			
0.0087	558.49	4.1350	4.1351	-0.4738	25.10	-0.00	-0.750			
0.0102	652.95	4.1320	4.1320	-0.5014	25.09	-0.01	-0.750			
0.0117	751.17	4.1290	4.1289	-0.5302	25.09	-0.01	-0.750			
0.0134	856.02	4.1260	4.1261	-0.5595	25.08	-0.02	-0.750			
0.0151	969.38	4.1230	4.1229	-0.5769	25.08	-0.02	-0.750			
0.0169	1084.61	4.1200	4.1199	-0.5971	25.07	-0.03	-0.750			
0.0188	1200.27	4.1170	4.1169	-0.6047	25.06	-0.04	-0.750			
0.0206	1316.39	4.1140	4.1141	-0.6180	25.06	-0.04	-0.750			
0.0224	1436.37	4.1110	4.1109	-0.6302	25.06	-0.04	-0.750			
0.0243	1556.52	4.1080	4.1079	-0.6362	25.06	-0.04	-0.750			
0.0262	1679.78	4.1050	4.1050	-0.6492	25.05	-0.05	-0.750			
0.0283	1809.51	4.1020	4.1021	-0.6676	25.05	-0.05	-0.750			
0.0303	1940.67	4.0990	4.0989	-0.6696	25.05	-0.05	-0.750			
0.0323	2068.97	4.0960	4.0964	-0.6804	25.05	-0.05	-0.750			
0.0343	2198.04	4.0930	4.0930	-0.6845	25.05	-0.05	-0.750			
0.0364	2330.84	4.0900	4.0902	-0.6952	25.05	-0.05	-0.750			
0.0385	2464.96	4.0870	4.0869	-0.7010	25.05	-0.05	-0.750			
0.0406	2601.33	4.0840	4.0841	-0.7147	25.04	-0.06	-0.750			
0.0428	2739.93	4.0810	4.0810	-0.7165	25.04	-0.06	-0.750			
0.0450	2880.37	4.0780	4.0780	-0.7252	25.04	-0.06	-0.750			
0.0471	3016.99	4.0750	4.0750	-0.7211	25.04	-0.06	-0.750			
0.0493	3156.34	4.0720	4.0721	-0.7230	25.04	-0.06	-0.750			
0.0515	3298.01	4.0690	4.0689	-0.7273	25.04	-0.06	-0.750			
0.0537	3438.37	4.0660	4.0658	-0.7265	25.04	-0.06	-0.750			
0.0559	3576.55	4.0630	4.0630	-0.7265	25.04	-0.06	-0.750			
0.0581	3717.69	4.0600	4.0600	-0.7296	25.04	-0.06	-0.750			
0.0602	3855.18	4.0570	4.0568	-0.7311	25.04	-0.06	-0.750			
0.0624	3993.36	4.0540	4.0541	-0.7347	25.05	-0.05	-0.750			
0.0646	4135.25	4.0510	4.0509	-0.7366	25.05	-0.05	-0.750			
0.0669	4281.60	4.0480	4.0479	-0.7515	25.06	-0.04	-0.750			
0.0692	4426.26	4.0450	4.0451	-0.7521	25.06	-0.04	-0.750			
0.0714	4570.49	4.0420	4.0421	-0.7526	25.06	-0.04	-0.750			
0.0737	4716.44	4.0390	4.0389	-0.7547	25.06	-0.04	-0.750			
0.0759	4860.23	4.0360	4.0361	-0.7533	25.06	-0.04	-0.750			
0.0782	5003.65	4.0330	4.0330	-0.7542	25.07	-0.03	-0.750			
0.0805	5150.10	4.0300	4.0299	-0.7622	25.07	-0.03	-0.750			
0.0827	5295.78	4.0270	4.0270	-0.7614	25.07	-0.03	-0.750			
0.0850	5442.95	4.0240	4.0239	-0.7637	25.07	-0.03	-0.750			
0.0873	5590.09	4.0210	4.0211	-0.7678	25.07	-0.03	-0.750			
0.0897	5737.78	4.0180	4.0180	-0.7711	25.07	-0.03	-0.750			
0.0920	5886.64	4.0150	4.0150	-0.7698	25.07	-0.03	-0.750			
0.0943	6034.62	4.0120	4.0118	-0.7674	25.07	-0.03	-0.750			
0.0966	6181.36	4.0090	4.0090	-0.7650	25.07	-0.03	-0.750			
0.0989	6328.15	4.0060	4.0060	-0.7658	25.07	-0.03	-0.750			
0.1012	6474.88	4.0030	4.0030	-0.7758	25.08	-0.02	-0.750			
0.1035	6624.43	4.0000	3.9999	-0.7762	25.08	-0.02	-0.750			
0.1059	6775.36	3.9970	3.9969	-0.7785	25.08	-0.02	-0.750			
0.1082	6926.16	3.9940	3.9942	-0.7808	25.08	-0.02	-0.750			
0.1106	7075.81	3.9910	3.9910	-0.7858	25.08	-0.02	-0.750			
0.1129	7226.00	3.9880	3.9879	-0.7875	25.08	-0.02	-0.750			
0.1152	7373.94	3.9850	3.9850	-0.7795	25.09	-0.01	-0.750			
0.1176	7528.08	3.9820	3.9820	-0.7900	25.09	-0.01	-0.750			
0.1200	7681.62	3.9790	3.9791	-0.7950	25.09	-0.01	-0.750			
0.1224	7834.27	3.9760	3.9760	-0.7919	25.09	-0.01	-0.750			
0.1248	7985.52	3.9730	3.9730	-0.8000	25.10	-0.00	-0.750			
0.1272	8139.91	3.9700	3.9699	-0.7995	25.10	0.00	-0.750			
0.1296	8294.60	3.9670	3.9669	-0.8011	25.11	0.01	-0.750			
0.1320	8449.45	3.9640	3.9644	-0.8005	25.11	0.01	-0.750			
0.1344	8603.29	3.9610	3.9609	-0.8004	25.11	0.01	-0.750			
0.1368	8755.62	3.9580	3.9579	-0.7970	25.11	0.01	-0.750			
0.1392	8906.03	3.9550	3.9550	-0.7938	25.11	0.01	-0.750			
0.1416	9059.59	3.9520	3.9519	-0.8017	25.11	0.01	-0.750			
0.1439	9212.58	3.9490	3.9490	-0.8059	25.11	0.01	-0.750			
0.1464	9368.59	3.9460	3.9459	-0.8111	25.11	0.01	-0.750			
0.1488	9524.23	3.9430	3.9430	-0.8169	25.11	0.01	-0.750			
0.1513	9682.08	3.9400	3.9401	-0.8184	25.12	0.02	-0.750			
0.1538	9840.29	3.9370	3.9370	-0.8177	25.12	0.02	-0.750			
0.1562	9997.10	3.9340	3.9339	-0.8220	25.12	0.02	-0.750			
0.1587	10155.36	3.9310	3.9309	-0.8179	25.12	0.02	-0.750			
0.1611	10310.25	3.9280	3.9280	-0.8255	25.12	0.02	-0.750			
0.1636	10471.07	3.9250	3.9250	-0.8219	25.12	0.02	-0.750			
0.1660	10627.18	3.9220	3.9220	-0.8229	25.13	0.03	-0.750			
0.1686	10787.40	3.9190	3.9188	-0.8252	25.13	0.03	-0.750			
0.1710	10946.00	3.9160	3.9158	-0.8247	25.13	0.03	-0.750			
0.1735	11101.43	3.9130	3.9130	-0.8320	25.13	0.03	-0.750			
0.1760	11263.70	3.9100	3.9099	-0.8308	25.13	0.03	-0.750			
0.1784	11420.74	3.9070	3.9070	-0.8248	25.14	0.04	-0.750			
0.1810	11583.27	3.9040	3.9040	-0.8314	25.14	0.04	-0.750			
0.1835	11741.46	3.9010	3.9009	-0.8270	25.14	0.04	-0.750			
0.1859	11899.86	3.8980	3.8980	-0.8337	25.14	0.04	-0.750			
0.1884	12059.49	3.8950	3.8949	-0.8301	25.14	0.04	-0.750			
0.1909	12217.44	3.8920	3.8920	-0.8278	25.14	0.04	-0.750			
0.1934	12380.41	3.8890	3.8888	-0.8331	25.14	0.04	-0.750			
0.1959	12540.33	3.8860	3.8861	-0.8311	25.14	0.04	-0.750			
0.1984	12699.33	3.8830	3.8829	-0.8378	25.15	0.05	-0.750			
0.2009	12859.84	3.8800	3.8799	-0.8355	25.15	0.05	-0.750			
0.2034	13019.63	3.8770	3.8769	-0.8278	25.15	0.05	-0.750			
0.2060	13181.26	3.8740	3.8739	-0.8293	25.16	0.06	-0.750			
0.2085	13341.40	3.8710	3.8709	-0.8253	25.16	0.06	-0.750			
0.2109	13497.24	3.8680	3.8679	-0.8295	25.16	0.06	-0.750			
0.2134	13654.98	3.8650	3.8649	-0.8185	25.16	0.06	-0.750			
0.2158	13809.54	3.8620	3.8620	-0.8098	25.17	0.07	-0.750			
0.2183	13969.86	3.8590	3.8590	-0.8232	25.17	0.07	-0.750			
0.2208	14128.57	3.8560	3.8559	-0.8204	25.17	0.07	-0.750			
0.2232	14283.88	3.8530	3.8530	-0.8220	25.17	0.07	-0.750			
0.2257	14441.88	3.8500	3.8500	-0.8157	25.17	0.07	-0.750			
0.2281	14597.96	3.8470	3.8470	-0.8089	25.18	0.08	-0.750			
0.2306	14756.44	3.8440	3.8439	-0.8135	25.18	0.08	-0.750			
0.2330	14911.46	3.8410	3.8411	-0.8051	25.18	0.08	-0.750			
0.2354	15064.33	3.8380	3.8379	-0.7940	25.18	0.08	-0.750			
0.2378	15216.50	3.8350	3.8350	-0.7945	25.19	0.09	-0.750			
0.2401	15365.67	3.8320	3.8320	-0.7859	25.19	0.09	-0.750			
0.2425	15519.55	3.8290	3.8289	-0.7928	25.20	0.10	-0.750			
0.2449	15672.71	3.8260	3.8266	-0.7846	25.20	0.10	-0.750			
0.2472	15822.22	3.8230	3.8229	-0.7756	25.20	0.10	-0.750			
0.2496	15971.29	3.8200	3.8201	-0.7742	25.20	0.10	-0.750			
0.2518	16118.04	3.8170	3.8170	-0.7724	25.20	0.10	-0.750			
0.2542	16265.81	3.8140	3.8139	-0.7693	25.20	0.10	-0.750			
0.2564	16412.33	3.8110	3.8111	-0.7689	25.20	0.10	-0.750			
0.2587	16559.63	3.8080	3.8079	-0.7712	25.20	0.10	-0.750			
0.2611	16708.86	3.8050	3.8050	-0.7744	25.21	0.11	-0.750			
0.2634	16857.26	3.8020	3.8021	-0.7738	25.21	0.11	-0.750			
0.2657	17005.66	3.7990	3.7990	-0.7700	25.21	0.11	-0.750			
0.2681	17155.21	3.7960	3.7959	-0.7679	25.22	0.12	-0.750			
0.2703	17302.33	3.7930	3.7931	-0.7659	25.22	0.12	-0.750			
0.2726	17448.72	3.7900	3.7900	-0.7567	25.22	0.12	-0.750			
0.2749	17592.33	3.7870	3.7870	-0.7633	25.22	0.12	-0.750			
0.2772	17738.73	3.7840	3.7840	-0.7653	25.22	0.12	-0.750			
0.2794	17884.35	3.7810	3.7809	-0.7702	25.22	0.12	-0.750			
0.2818	18033.44	3.7780	3.7778	-0.7766	25.22	0.12	-0.750			
0.2841	18184.08	3.7750	3.7750	-0.7797	25.22	0.12	-0.750			
0.2865	18334.02	3.7720	3.7720	-0.7820	25.23	0.13	-0.750			
0.2888	18484.86	3.7690	3.7691	-0.7864	25.23	0.13	-0.750			
0.2912	18633.73	3.7660	3.7658	-0.7849	25.23	0.13	-0.750			
0.2935	18785.45	3.7630	3.7630	-0.7947	25.24	0.14	-0.750			
0.2959	18937.58	3.7600	3.7601	-0.8030	25.24	0.14	-0.750			
0.2983	19091.26	3.7570	3.7570	-0.8180	25.24	0.14	-0.750			
0.3008	19250.90	3.7540	3.7539	-0.8264	25.24	0.14	-0.750			
0.3033	19411.06	3.7510	3.7510	-0.8320	25.24	0.14	-0.750			
0.3058	19571.86	3.7480	3.7479	-0.8389	25.24	0.14	-0.750			
0.3084	19734.48	3.7450	3.7449	-0.8477	25.24	0.14	-0.750			
0.3109	19896.86	3.7420	3.7420	-0.8589	25.24	0.14	-0.750			
0.3135	20062.08	3.7390	3.7389	-0.8634	25.24	0.14	-0.750			
0.3161	20228.68	3.7360	3.7359	-0.8675	25.23	0.13	-0.750			
0.3187	20399.09	3.7330	3.7329	-0.8800	25.23	0.13	-0.750			
0.3214	20567.97	3.7300	3.7299	-0.8901	25.23	0.13	-0.750			
0.3240	20738.17	3.7270	3.7269	-0.8945	25.23	0.13	-0.750			
0.3267	20906.81	3.7240	3.7240	-0.9043	25.22	0.12	-0.750			
0.3294	21082.97	3.7210	3.7210	-0.9264	25.22	0.12	-0.750			
0.3322	21261.13	3.7180	3.7180	-0.9406	25.22	0.12	-0.750			
0.3350	21442.75	3.7150	3.7150	-0.9594	25.22	0.12	-0.750			
0.3380	21631.30	3.7120	3.7119	-0.9725	25.21	0.11	-0.750			
0.3409	21816.25	3.7090	3.7090	-0.9965	25.21	0.11	-0.750			
0.3439	22012.54	3.7060	3.7058	-0.9992	25.20	0.10	-0.750			
0.3470	22206.61	3.7030	3.7029	-1.0132	25.20	0.10	-0.750			
0.3501	22403.22	3.7000	3.6998	-1.0205	25.19	0.09	-0.750			
0.3531	22598.16	3.6970	3.6968	-1.0302	25.19	0.09	-0.750	0.370	0.523	
0.3561	22793.49	3.6940	3.6939	-1.0388	25.18	0.08	-0.750			
0.3593	22996.87	3.6910	3.6908	-1.0627	25.18	0.08	-0.750			
0.3625	23196.85	3.6880	3.6880	-1.0766	25.18	0.08	-0.750			
0.3658	23412.28	3.6850	3.6850	-1.0999	25.17	0.07	-0.750			
0.3691	23621.99	3.6820	3.6819	-1.1186	25.17	0.07	-0.750			
0.3725	23843.06	3.6790	3.6790	-1.1472	25.16	0.06	-0.750			
0.3760	24066.10	3.6760	3.6758	-1.1603	25.16	0.06	-0.750			
0.3795	24291.14	3.6730	3.6729	-1.1706	25.15	0.05	-0.750			
0.3831	24516.36	3.6700	3.6702	-1.2004	25.14	0.04	-0.750			
0.3867	24749.88	3.6670	3.6670	-1.2199	25.13	0.03	-0.750			
0.3904	24987.28	3.6640	3.6638	-1.2404	25.13	0.03	-0.750			
0.3941	25222.78	3.6610	3.6609	-1.2644	25.12	0.02	-0.750			
0.3980	25471.93	3.6580	3.6580	-1.2954	25.11	0.01	-0.750			
0.4019	25723.09	3.6550	3.6549	-1.3141	25.11	0.01	-0.750			
0.4059	25978.38	3.6520	3.6518	-1.3390	25.10	0.00	-0.750			
0.4100	26238.96	3.6490	3.6490	-1.3590	25.09	-0.01	-0.750			
0.4141	26501.57	3.6460	3.6458	-1.3710	25.08	-0.02	-0.750			
0.4182	26764.44	3.6430	3.6431	-1.3957	25.07	-0.03	-0.750			
0.4225	27037.80	3.6400	3.6398	-1.4204	25.07	-0.03	-0.750			
0.4267	27310.72	3.6370	3.6368	-1.4518	25.06	-0.04	-0.750			
0.4311	27592.21	3.6340	3.6339	-1.4723	25.05	-0.05	-0.750			
0.4355	27874.37	3.6310	3.6308	-1.5124	25.04	-0.06	-0.750			
0.4402	28173.41	3.6280	3.6285	-1.5610	25.04	-0.06	-0.750			
0.4450	28476.97	3.6250	3.6248	-1.5789	25.03	-0.07	-0.750			
0.4497	28782.26	3.6220	3.6223	-1.5781	25.02	-0.08	-0.750			
0.4546	29093.38	3.6190	3.6191	-1.6368	25.01	-0.09	-0.750			
0.4596	29416.32	3.6160	3.6156	-1.6705	25.01	-0.09	-0.750			
0.4646	29732.84	3.6130	3.6127	-1.7069	25.00	-0.10	-0.750			
0.4697	30058.11	3.6100	3.6105	-1.7142	25.00	-0.10	-0.750			
0.4750	30400.39	3.6070	3.6073	-1.7581	24.99	-0.11	-0.750			
0.4803	30737.57	3.6040	3.6043	-1.7967	24.98	-0.12	-0.750			
0.4857	31081.82	3.6010	3.6007	-1.8146	24.98	-0.12	-0.750			
0.4912	31435.54	3.5980	3.5978	-1.8754	24.97	-0.13	-0.750			
0.4970	31806.29	3.5950	3.5947	-1.9048	24.97	-0.13	-0.750			
0.5028	32179.93	3.5920	3.5918	-1.9708	24.96	-0.14	-0.750			
0.5087	32559.33	3.5890	3.5887	-1.9715	24.96	-0.14	-0.750			
0.5146	32932.97	3.5860	3.5857	-1.9896	24.95	-0.15	-0.750			
0.5205	33311.47	3.5830	3.5829	-1.9849	24.95	-0.15	-0.750			
0.5264	33687.62	3.5800	3.5798	-2.0665	24.94	-0.16	-0.750			
0.5326	34089.03	3.5770	3.5770	-2.0516	24.94	-0.16	-0.750			
0.5389	34492.69	3.5740	3.5739	-2.0923	24.93	-0.17	-0.750			
0.5452	34892.53	3.5710	3.5714	-2.1104	24.93	-0.17	-0.750			
0.5514	35289.09	3.5680	3.5684	-2.1022	24.93	-0.17	-0.750			
0.5581	35715.31	3.5650	3.5648	-2.1447	24.93	-0.17	-0.750			
0.5646	36136.09	3.5620	3.5620	-2.1839	24.93	-0.17	-0.750			
0.5710	36544.82	3.5590	3.5593	-2.1058	24.93	-0.17	-0.750			
0.5774	36955.24	3.5560	3.5559	-2.0922	24.94	-0.16	-0.750			
0.5835	37341.19	3.5530	3.5531	-2.0536	24.94	-0.16	-0.750			
0.5896	37733.61	3.5500	3.5501	-2.0199	24.94	-0.16	-0.750			
0.5958	38128.01	3.5470	3.5469	-2.0539	24.94	-0.16	-0.750			
0.6019	38520.77	3.5440	3.5442	-2.0581	24.95	-0.15	-0.750			
0.6079	38907.11	3.5410	3.5411	-2.0053	24.96	-0.14	-0.750			
0.6141	39299.57	3.5380	3.5382	-1.9787	24.96	-0.14	-0.750			
0.6199	39671.70	3.5350	3.5355	-1.9199	24.96	-0.14	-0.750			
0.6256	40035.78	3.5320	3.5321	-1.8786	24.97	-0.13	-0.750			
0.6311	40392.84	3.5290	3.5292	-1.8372	24.98	-0.12	-0.750			
0.6366	40744.96	3.5260	3.5259	-1.8354	24.99	-0.11	-0.750			
0.6422	41101.76	3.5230	3.5228	-1.7856	25.01	-0.09	-0.750			
0.6475	41441.87	3.5200	3.5203	-1.7470	25.02	-0.08	-0.750			
0.6527	41772.18	3.5170	3.5172	-1.7110	25.03	-0.07	-0.750			
0.6577	42095.45	3.5140	3.5141	-1.6431	25.04	-0.06	-0.750			
0.6626	42405.34	3.5110	3.5114	-1.6075	25.06	-0.04	-0.750			
0.6674	42711.19	3.5080	3.5083	-1.5698	25.07	-0.03	-0.750			
0.6720	43004.97	3.5050	3.5049	-1.5169	25.09	-0.01	-0.750			
0.6765	43295.08	3.5020	3.5019	-1.4769	25.11	0.01	-0.750			
0.6808	43572.67	3.4990	3.4990	-1.4511	25.12	0.02	-0.750			
0.6852	43851.47	3.4960	3.4959	-1.4202	25.14	0.04	-0.750			
0.6894	44121.32	3.4930	3.4927	-1.3710	25.16	0.06	-0.750			
0.6934	44375.24	3.4900	3.4900	-1.3243	25.17	0.07	-0.750			
0.6973	44628.25	3.4870	3.4869	-1.2682	25.19	0.09	-0.750			
0.7009	44859.02	3.4840	3.4840	-1.0886	25.20	0.10	-0.750			
