Ah_balance (normalized)	Ah_balance (mAh)	Voltage - fit (V)	Voltage -  interpolate (V)	dQ/dV (1/V)	Temperature (°C)	Temperature - diff (°C)	Current (C)	R_DC 0ms (mOhm)	R_DC 50ms (mOhm)	R_DC 50 ms PEC (mOhm)
0.0003	21.00	4.1620	4.1619	-0.1407	25.27	0.00	-0.750			
0.0008	50.82	4.1590	4.1589	-0.1774	25.27	0.00	-0.750			
0.0014	88.37	4.1560	4.1562	-0.2193	25.27	-0.00	-0.750			
0.0021	135.22	4.1530	4.1530	-0.2604	25.27	-0.00	-0.750			
0.0030	189.43	4.1500	4.1497	-0.2997	25.26	-0.01	-0.750			
0.0039	250.22	4.1470	4.1471	-0.3445	25.26	-0.01	-0.750			
0.0050	320.94	4.1440	4.1441	-0.3820	25.26	-0.01	-0.750			
0.0062	399.29	4.1410	4.1409	-0.4216	25.25	-0.02	-0.750			
0.0076	484.32	4.1380	4.1381	-0.4550	25.25	-0.02	-0.750			
0.0090	575.68	4.1350	4.1350	-0.4898	25.24	-0.03	-0.750			
0.0105	674.95	4.1320	4.1320	-0.5143	25.23	-0.04	-0.750			
0.0121	777.14	4.1290	4.1289	-0.5413	25.23	-0.04	-0.750			
0.0138	882.76	4.1260	4.1260	-0.5606	25.22	-0.05	-0.750			
0.0155	993.41	4.1230	4.1230	-0.5847	25.22	-0.05	-0.750			
0.0173	1107.20	4.1200	4.1199	-0.5997	25.21	-0.06	-0.750			
0.0191	1222.84	4.1170	4.1169	-0.6229	25.21	-0.06	-0.750			
0.0210	1346.51	4.1140	4.1141	-0.6415	25.21	-0.06	-0.750			
0.0230	1471.86	4.1110	4.1109	-0.6535	25.21	-0.06	-0.750			
0.0250	1599.24	4.1080	4.1079	-0.6631	25.20	-0.07	-0.750			
0.0270	1728.53	4.1050	4.1052	-0.6745	25.20	-0.07	-0.750			
0.0290	1857.17	4.1020	4.1020	-0.6843	25.20	-0.07	-0.750			
0.0311	1989.99	4.0990	4.0989	-0.6950	25.19	-0.08	-0.750			
0.0332	2123.18	4.0960	4.0960	-0.6994	25.19	-0.08	-0.750			
0.0353	2260.74	4.0930	4.0929	-0.7120	25.19	-0.08	-0.750			
0.0375	2399.37	4.0900	4.0901	-0.7191	25.18	-0.09	-0.750			
0.0397	2538.32	4.0870	4.0871	-0.7211	25.18	-0.09	-0.750			
0.0418	2677.11	4.0840	4.0839	-0.7210	25.18	-0.09	-0.750			
0.0440	2815.34	4.0810	4.0809	-0.7317	25.18	-0.09	-0.750			
0.0462	2957.07	4.0780	4.0780	-0.7324	25.18	-0.09	-0.750			
0.0484	3099.29	4.0750	4.0748	-0.7290	25.18	-0.09	-0.750			
0.0506	3241.38	4.0720	4.0719	-0.7272	25.18	-0.09	-0.750			
0.0528	3379.17	4.0690	4.0689	-0.7303	25.18	-0.09	-0.750			
0.0549	3516.75	4.0660	4.0660	-0.7307	25.18	-0.09	-0.750			
0.0571	3655.40	4.0630	4.0629	-0.7396	25.18	-0.09	-0.750			
0.0594	3801.04	4.0600	4.0600	-0.7478	25.18	-0.09	-0.750			
0.0616	3945.44	4.0570	4.0570	-0.7500	25.18	-0.09	-0.750			
0.0639	4089.67	4.0540	4.0543	-0.7525	25.18	-0.09	-0.750			
0.0662	4235.12	4.0510	4.0508	-0.7542	25.18	-0.09	-0.750			
0.0684	4377.45	4.0480	4.0480	-0.7552	25.18	-0.09	-0.750			
0.0707	4522.04	4.0450	4.0450	-0.7531	25.18	-0.09	-0.750			
0.0730	4668.96	4.0420	4.0420	-0.7591	25.18	-0.09	-0.750			
0.0752	4814.55	4.0390	4.0389	-0.7648	25.18	-0.09	-0.750			
0.0775	4960.46	4.0360	4.0358	-0.7625	25.18	-0.09	-0.750			
0.0798	5104.97	4.0330	4.0330	-0.7713	25.18	-0.09	-0.750			
0.0821	5254.77	4.0300	4.0300	-0.7715	25.18	-0.09	-0.750			
0.0844	5403.25	4.0270	4.0271	-0.7733	25.19	-0.08	-0.750			
0.0868	5554.91	4.0240	4.0239	-0.7791	25.19	-0.08	-0.750			
0.0891	5705.35	4.0210	4.0214	-0.7756	25.19	-0.08	-0.750			
0.0915	5852.91	4.0180	4.0180	-0.7743	25.19	-0.08	-0.750			
0.0938	6001.11	4.0150	4.0150	-0.7797	25.19	-0.08	-0.750			
0.0961	6149.22	4.0120	4.0120	-0.7828	25.19	-0.08	-0.750			
0.0985	6302.98	4.0090	4.0089	-0.7824	25.19	-0.08	-0.750			
0.1008	6452.40	4.0060	4.0060	-0.7799	25.19	-0.08	-0.750			
0.1032	6601.79	4.0030	4.0030	-0.7797	25.19	-0.08	-0.750			
0.1055	6751.09	4.0000	3.9999	-0.7821	25.19	-0.08	-0.750			
0.1078	6899.98	3.9970	3.9969	-0.7786	25.20	-0.07	-0.750			
0.1101	7047.45	3.9940	3.9940	-0.7806	25.20	-0.07	-0.750			
0.1125	7199.41	3.9910	3.9910	-0.7904	25.20	-0.07	-0.750			
0.1149	7353.47	3.9880	3.9881	-0.7998	25.20	-0.07	-0.750			
0.1172	7503.76	3.9850	3.9849	-0.8145	25.20	-0.07	-0.750			
0.1198	7665.98	3.9820	3.9819	-0.8070	25.20	-0.07	-0.750			
0.1222	7822.33	3.9790	3.9790	-0.8049	25.20	-0.07	-0.750			
0.1246	7976.92	3.9760	3.9759	-0.8036	25.20	-0.07	-0.750			
0.1271	8131.33	3.9730	3.9727	-0.7962	25.20	-0.07	-0.750			
0.1294	8280.62	3.9700	3.9699	-0.8031	25.20	-0.07	-0.750			
0.1317	8430.97	3.9670	3.9669	-0.8034	25.20	-0.07	-0.750			
0.1341	8583.29	3.9640	3.9641	-0.8056	25.21	-0.06	-0.750			
0.1367	8747.61	3.9610	3.9610	-0.8299	25.21	-0.06	-0.750			
0.1392	8907.37	3.9580	3.9583	-0.8274	25.21	-0.06	-0.750			
0.1417	9066.94	3.9550	3.9550	-0.8282	25.21	-0.06	-0.750			
0.1442	9226.80	3.9520	3.9521	-0.8255	25.21	-0.06	-0.750			
0.1466	9383.73	3.9490	3.9487	-0.8179	25.22	-0.05	-0.750			
0.1491	9540.58	3.9460	3.9461	-0.8197	25.22	-0.05	-0.750			
0.1515	9696.46	3.9430	3.9431	-0.8195	25.22	-0.05	-0.750			
0.1539	9848.92	3.9400	3.9401	-0.8397	25.22	-0.05	-0.750			
0.1565	10015.70	3.9370	3.9368	-0.8316	25.22	-0.05	-0.750			
0.1590	10175.92	3.9340	3.9339	-0.8283	25.23	-0.04	-0.750			
0.1615	10337.22	3.9310	3.9309	-0.8290	25.23	-0.04	-0.750			
0.1640	10494.69	3.9280	3.9288	-0.8254	25.23	-0.04	-0.750			
0.1664	10652.02	3.9250	3.9249	-0.8174	25.23	-0.04	-0.750			
0.1689	10807.38	3.9220	3.9219	-0.8200	25.24	-0.03	-0.750			
0.1713	10964.49	3.9190	3.9189	-0.8316	25.24	-0.03	-0.750			
0.1738	11123.97	3.9160	3.9160	-0.8296	25.25	-0.02	-0.750			
0.1763	11282.77	3.9130	3.9133	-0.8304	25.25	-0.02	-0.750			
0.1788	11440.99	3.9100	3.9100	-0.8306	25.25	-0.02	-0.750			
0.1813	11600.67	3.9070	3.9069	-0.8368	25.25	-0.02	-0.750			
0.1838	11762.01	3.9040	3.9040	-0.8346	25.26	-0.01	-0.750			
0.1863	11923.61	3.9010	3.9009	-0.8394	25.26	-0.01	-0.750			
0.1888	12083.52	3.8980	3.8983	-0.8396	25.26	-0.01	-0.750			
0.1912	12239.45	3.8950	3.8950	-0.8593	25.26	-0.01	-0.750			
0.1939	12410.01	3.8920	3.8919	-0.8508	25.26	-0.01	-0.750			
0.1965	12574.07	3.8890	3.8888	-0.8527	25.27	-0.00	-0.750			
0.1990	12738.33	3.8860	3.8859	-0.8670	25.27	-0.00	-0.750			
0.2016	12905.45	3.8830	3.8833	-0.8715	25.27	0.00	-0.750			
0.2042	13070.53	3.8800	3.8798	-0.8805	25.27	0.00	-0.750			
0.2069	13242.11	3.8770	3.8770	-0.8732	25.27	0.00	-0.750			
0.2096	13412.43	3.8740	3.8739	-0.8822	25.28	0.01	-0.750			
0.2122	13581.75	3.8710	3.8709	-0.8705	25.28	0.01	-0.750			
0.2148	13745.56	3.8680	3.8677	-0.8560	25.28	0.01	-0.750			
0.2173	13904.69	3.8650	3.8650	-0.8557	25.29	0.02	-0.750			
0.2198	14066.76	3.8620	3.8620	-0.8525	25.29	0.02	-0.750			
0.2223	14229.34	3.8590	3.8589	-0.8527	25.29	0.02	-0.750			
0.2250	14401.09	3.8560	3.8558	-0.8576	25.30	0.03	-0.750			
0.2276	14565.76	3.8530	3.8530	-0.8546	25.30	0.03	-0.750			
0.2301	14729.28	3.8500	3.8500	-0.8626	25.30	0.03	-0.750			
0.2327	14895.97	3.8470	3.8469	-0.8506	25.30	0.03	-0.750			
0.2353	15057.39	3.8440	3.8438	-0.8330	25.30	0.03	-0.750			
0.2378	15218.82	3.8410	3.8410	-0.8383	25.30	0.03	-0.750			
0.2403	15378.34	3.8380	3.8378	-0.8397	25.30	0.03	-0.750			
0.2428	15538.99	3.8350	3.8346	-0.8443	25.31	0.04	-0.750			
0.2453	15697.63	3.8320	3.8320	-0.8366	25.31	0.04	-0.750			
0.2479	15862.43	3.8290	3.8290	-0.8474	25.31	0.04	-0.750			
0.2505	16029.46	3.8260	3.8261	-0.8477	25.32	0.05	-0.750			
0.2530	16190.17	3.8230	3.8229	-0.8401	25.32	0.05	-0.750			
0.2554	16345.86	3.8200	3.8200	-0.8296	25.33	0.06	-0.750			
0.2579	16505.05	3.8170	3.8170	-0.8278	25.33	0.06	-0.750			
0.2603	16662.36	3.8140	3.8140	-0.8213	25.33	0.06	-0.750			
0.2629	16823.63	3.8110	3.8110	-0.8238	25.34	0.07	-0.750			
0.2653	16981.34	3.8080	3.8082	-0.8129	25.34	0.07	-0.750			
0.2678	17137.59	3.8050	3.8049	-0.8160	25.34	0.07	-0.750			
0.2702	17294.12	3.8020	3.8018	-0.8047	25.35	0.08	-0.750			
0.2726	17446.85	3.7990	3.7990	-0.7951	25.35	0.08	-0.750			
0.2750	17600.27	3.7960	3.7958	-0.7884	25.35	0.08	-0.750			
0.2774	17751.27	3.7930	3.7928	-0.7874	25.35	0.08	-0.750			
0.2797	17900.88	3.7900	3.7899	-0.7800	25.36	0.09	-0.750			
0.2820	18047.68	3.7870	3.7871	-0.7807	25.36	0.09	-0.750			
0.2843	18196.97	3.7840	3.7839	-0.7652	25.36	0.09	-0.750			
0.2867	18350.24	3.7810	3.7810	-0.7777	25.37	0.10	-0.750			
0.2890	18497.08	3.7780	3.7783	-0.7769	25.37	0.10	-0.750			
0.2913	18645.34	3.7750	3.7750	-0.7785	25.37	0.10	-0.750			
0.2936	18791.64	3.7720	3.7718	-0.7931	25.37	0.10	-0.750			
0.2960	18942.74	3.7690	3.7690	-0.8056	25.37	0.10	-0.750			
0.2985	19103.55	3.7660	3.7659	-0.8123	25.37	0.10	-0.750			
0.3010	19262.31	3.7630	3.7633	-0.8173	25.37	0.10	-0.750			
0.3034	19420.42	3.7600	3.7601	-0.8176	25.37	0.10	-0.750			
0.3059	19576.94	3.7570	3.7568	-0.8252	25.37	0.10	-0.750			
0.3083	19734.31	3.7540	3.7539	-0.8181	25.38	0.11	-0.750			
0.3108	19889.95	3.7510	3.7509	-0.8167	25.38	0.11	-0.750			
0.3133	20050.90	3.7480	3.7483	-0.8229	25.38	0.11	-0.750			
0.3158	20209.73	3.7450	3.7448	-0.8293	25.38	0.11	-0.750			
0.3182	20366.34	3.7420	3.7420	-0.8363	25.38	0.11	-0.750			
0.3207	20525.81	3.7390	3.7389	-0.8472	25.38	0.11	-0.750			
0.3232	20687.19	3.7360	3.7361	-0.8530	25.38	0.11	-0.750			
0.3259	20856.97	3.7330	3.7331	-0.8748	25.38	0.11	-0.750			
0.3285	21023.64	3.7300	3.7300	-0.8925	25.38	0.11	-0.750			
0.3312	21198.24	3.7270	3.7269	-0.9038	25.38	0.11	-0.750			
0.3339	21371.71	3.7240	3.7239	-0.9121	25.38	0.11	-0.750			
0.3367	21547.25	3.7210	3.7210	-0.9223	25.38	0.11	-0.750			
0.3395	21726.59	3.7180	3.7182	-0.9384	25.38	0.11	-0.750			
0.3423	21908.33	3.7150	3.7148	-0.9644	25.38	0.11	-0.750			
0.3452	22091.77	3.7120	3.7120	-0.9801	25.37	0.10	-0.750			
0.3482	22283.78	3.7090	3.7089	-0.9887	25.37	0.10	-0.750			
0.3512	22479.49	3.7060	3.7064	-1.0082	25.37	0.10	-0.750			
0.3543	22673.19	3.7030	3.7028	-1.0212	25.37	0.10	-0.750			
0.3573	22869.21	3.7000	3.7003	-1.0334	25.36	0.09	-0.750	0.376	0.505	
0.3604	23067.76	3.6970	3.6969	-1.0438	25.36	0.09	-0.750			
0.3636	23268.58	3.6940	3.6940	-1.0625	25.35	0.08	-0.750			
0.3668	23474.54	3.6910	3.6910	-1.0877	25.35	0.08	-0.750			
0.3701	23686.39	3.6880	3.6879	-1.1107	25.34	0.07	-0.750			
0.3735	23900.82	3.6850	3.6849	-1.1251	25.34	0.07	-0.750			
0.3768	24117.95	3.6820	3.6822	-1.1551	25.34	0.07	-0.750			
0.3804	24344.39	3.6790	3.6790	-1.1739	25.33	0.06	-0.750			
0.3839	24571.66	3.6760	3.6758	-1.1983	25.33	0.06	-0.750			
0.3875	24799.62	3.6730	3.6730	-1.2291	25.32	0.05	-0.750			
0.3913	25041.38	3.6700	3.6698	-1.2428	25.32	0.05	-0.750			
0.3950	25282.19	3.6670	3.6669	-1.2527	25.31	0.04	-0.750			
0.3988	25521.11	3.6640	3.6640	-1.2767	25.30	0.03	-0.750			
0.4026	25765.74	3.6610	3.6611	-1.2946	25.30	0.03	-0.750			
0.4066	26021.52	3.6580	3.6579	-1.3216	25.29	0.02	-0.750			
0.4105	26274.57	3.6550	3.6550	-1.3343	25.29	0.02	-0.750			
0.4147	26539.30	3.6520	3.6521	-1.3821	25.28	0.01	-0.750			
0.4188	26803.76	3.6490	3.6489	-1.4041	25.28	0.01	-0.750			
0.4230	27073.61	3.6460	3.6459	-1.4395	25.27	0.00	-0.750			
0.4274	27350.90	3.6430	3.6432	-1.4590	25.27	-0.00	-0.750			
0.4318	27638.09	3.6400	3.6398	-1.4837	25.26	-0.01	-0.750			
0.4363	27925.03	3.6370	3.6370	-1.5059	25.25	-0.02	-0.750			
0.4408	28214.27	3.6340	3.6337	-1.5051	25.25	-0.02	-0.750			
0.4454	28506.64	3.6310	3.6311	-1.5783	25.23	-0.04	-0.750			
0.4501	28803.80	3.6280	3.6280	-1.5928	25.22	-0.05	-0.750			
0.4549	29116.40	3.6250	3.6249	-1.6196	25.21	-0.06	-0.750			
0.4599	29436.54	3.6220	3.6223	-1.6602	25.21	-0.06	-0.750			
0.4651	29765.36	3.6190	3.6190	-1.6964	25.20	-0.07	-0.750			
0.4702	30093.85	3.6160	3.6161	-1.7215	25.20	-0.07	-0.750			
0.4755	30429.13	3.6130	3.6132	-1.7510	25.20	-0.07	-0.750			
0.4806	30759.92	3.6100	3.6100	-1.8104	25.19	-0.08	-0.750			
0.4861	31109.99	3.6070	3.6068	-1.8150	25.18	-0.09	-0.750			
0.4919	31480.29	3.6040	3.6042	-1.8116	25.18	-0.09	-0.750			
0.4975	31841.51	3.6010	3.6011	-1.7990	25.17	-0.10	-0.750			
0.5027	32174.13	3.5980	3.5981	-1.7762	25.17	-0.10	-0.750			
0.5079	32505.32	3.5950	3.5956	-1.7853	25.16	-0.11	-0.750			
0.5131	32837.36	3.5920	3.5916	-1.8595	25.15	-0.12	-0.750			
0.5184	33174.94	3.5890	3.5893	-1.9874	25.14	-0.13	-0.750			
0.5246	33575.23	3.5860	3.5862	-1.9846	25.13	-0.14	-0.750			
0.5312	33993.73	3.5830	3.5825	-2.1218	25.13	-0.14	-0.750			
0.5374	34395.59	3.5800	3.5800	-2.1476	25.12	-0.15	-0.750			
0.5438	34801.91	3.5770	3.5771	-2.1452	25.12	-0.15	-0.750			
0.5504	35224.18	3.5740	3.5738	-2.1821	25.11	-0.16	-0.750			
0.5571	35653.16	3.5710	3.5715	-2.2318	25.11	-0.16	-0.750			
0.5637	36074.45	3.5680	3.5678	-2.1737	25.10	-0.17	-0.750			
0.5702	36495.47	3.5650	3.5650	-2.1984	25.10	-0.17	-0.750			
0.5766	36899.33	3.5620	3.5625	-2.2177	25.10	-0.17	-0.750			
0.5833	37330.43	3.5590	3.5587	-2.2226	25.10	-0.17	-0.750			
0.5902	37771.46	3.5560	3.5558	-2.2271	25.10	-0.17	-0.750			
0.5970	38208.87	3.5530	3.5524	-2.1904	25.10	-0.17	-0.750			
0.6034	38617.55	3.5500	3.5504	-2.1534	25.10	-0.17	-0.750			
0.6098	39026.86	3.5470	3.5471	-2.0897	25.11	-0.16	-0.750			
0.6161	39429.89	3.5440	3.5436	-2.0545	25.11	-0.16	-0.750			
0.6220	39806.73	3.5410	3.5410	-2.0114	25.11	-0.16	-0.750			
0.6281	40199.08	3.5380	3.5378	-1.9800	25.11	-0.16	-0.750			
0.6343	40597.89	3.5350	3.5344	-1.9907	25.12	-0.15	-0.750			
0.6402	40971.70	3.5320	3.5321	-1.9162	25.13	-0.14	-0.750			
0.6460	41341.60	3.5290	3.5294	-1.8808	25.14	-0.13	-0.750			
0.6514	41691.80	3.5260	3.5267	-1.8466	25.15	-0.12	-0.750			
0.6568	42035.62	3.5230	3.5225	-1.7937	25.16	-0.11	-0.750			
0.6622	42378.03	3.5200	3.5197	-1.7902	25.17	-0.10	-0.750			
0.6675	42721.85	3.5170	3.5168	-1.7045	25.18	-0.09	-0.750			
0.6727	43052.05	3.5140	3.5142	-1.6703	25.19	-0.08	-0.750			
0.6777	43373.16	3.5110	3.5112	-1.6179	25.21	-0.06	-0.750			
0.6825	43681.69	3.5080	3.5076	-1.5654	25.22	-0.05	-0.750			
0.6869	43964.74	3.5050	3.5048	-1.5109	25.24	-0.03	-0.750			
0.6916	44260.78	3.5020	3.5019	-1.4952	25.26	-0.01	-0.750			
0.6959	44536.47	3.4990	3.4989	-1.4409	25.27	0.00	-0.750			
0.7003	44821.75	3.4960	3.4962	-1.4333	25.29	0.02	-0.750			
0.7044	45081.53	3.4930	3.4930	-1.4077	25.30	0.03	-0.750			
0.7087	45359.29	3.4900	3.4899	-1.3745	25.31	0.04	-0.750			
0.7128	45620.93	3.4870	3.4870	-1.3596	25.33	0.06	-0.750			
