Ah_balance (normalized)	Ah_balance (mAh)	Voltage - fit (V)	Voltage -  interpolate (V)	dQ/dV (1/V)	Temperature (°C)	Temperature - diff (°C)	Current (C)	R_DC 0ms (mOhm)	R_DC 50ms (mOhm)	R_DC 50 ms PEC (mOhm)
0.0470	3007.35	4.1980	4.1982	0.8500	25.60	0.57	0.750			
0.0495	3165.39	4.1950	4.1951	0.8065	25.60	0.57	0.750			
0.0518	3317.28	4.1920	4.1920	0.7848	25.60	0.57	0.750			
0.0541	3463.60	4.1890	4.1890	0.7733	25.60	0.57	0.750			
0.0564	3608.84	4.1860	4.1860	0.7641	25.60	0.57	0.750			
0.0587	3757.76	4.1830	4.1827	0.7447	25.60	0.57	0.750			
0.0610	3901.82	4.1800	4.1800	0.7338	25.60	0.57	0.750			
0.0631	4039.84	4.1770	4.1773	0.7243	25.60	0.57	0.750			
0.0652	4174.09	4.1740	4.1738	0.7247	25.61	0.58	0.750			
0.0673	4308.92	4.1710	4.1710	0.7262	25.61	0.58	0.750			
0.0695	4449.33	4.1680	4.1680	0.7389	25.61	0.58	0.750			
0.0718	4592.35	4.1650	4.1650	0.7587	25.61	0.58	0.750			
0.0741	4744.41	4.1620	4.1621	0.7781	25.61	0.58	0.750			
0.0765	4895.21	4.1590	4.1590	0.7852	25.61	0.58	0.750			
0.0787	5038.89	4.1560	4.1561	0.7934	25.62	0.59	0.750			
0.0811	5189.89	4.1530	4.1532	0.8073	25.62	0.59	0.750			
0.0836	5348.18	4.1500	4.1494	0.8184	25.62	0.59	0.750			
0.0861	5509.09	4.1470	4.1473	0.8293	25.62	0.59	0.750			
0.0886	5673.12	4.1440	4.1443	0.8295	25.62	0.59	0.750			
0.0912	5835.90	4.1410	4.1411	0.8252	25.62	0.59	0.750			
0.0937	5998.05	4.1380	4.1379	0.8222	25.62	0.59	0.750			
0.0960	6142.72	4.1350	4.1349	0.7868	25.62	0.59	0.750			
0.0983	6294.25	4.1320	4.1321	0.7883	25.62	0.59	0.750			
0.1007	6445.18	4.1290	4.1290	0.7891	25.62	0.59	0.750			
0.1031	6597.03	4.1260	4.1260	0.7917	25.61	0.58	0.750			
0.1054	6748.61	4.1230	4.1230	0.7964	25.61	0.58	0.750			
0.1078	6901.26	4.1200	4.1200	0.7980	25.61	0.58	0.750			
0.1102	7055.42	4.1170	4.1170	0.8027	25.61	0.58	0.750			
0.1127	7214.53	4.1140	4.1139	0.7933	25.61	0.58	0.750			
0.1151	7363.69	4.1110	4.1111	0.7945	25.61	0.58	0.750			
0.1174	7514.20	4.1080	4.1081	0.7969	25.61	0.58	0.750			
0.1198	7666.50	4.1050	4.1051	0.8019	25.61	0.58	0.750			
0.1222	7818.87	4.1020	4.1019	0.8055	25.61	0.58	0.750			
0.1246	7976.40	4.0990	4.0991	0.8098	25.61	0.58	0.750			
0.1271	8134.06	4.0960	4.0961	0.8170	25.61	0.58	0.750			
0.1296	8293.37	4.0930	4.0930	0.8211	25.62	0.59	0.750			
0.1320	8449.39	4.0900	4.0900	0.8145	25.62	0.59	0.750			
0.1344	8604.30	4.0870	4.0870	0.8182	25.62	0.59	0.750			
0.1369	8764.00	4.0840	4.0840	0.8166	25.62	0.59	0.750			
0.1394	8920.74	4.0810	4.0810	0.8193	25.62	0.59	0.750			
0.1419	9078.76	4.0780	4.0780	0.8210	25.61	0.58	0.750			
0.1443	9235.23	4.0750	4.0751	0.8245	25.61	0.58	0.750			
0.1468	9393.27	4.0720	4.0718	0.8270	25.61	0.58	0.750			
0.1493	9555.02	4.0690	4.0690	0.8230	25.61	0.58	0.750			
0.1517	9711.26	4.0660	4.0660	0.8290	25.62	0.59	0.750			
0.1542	9871.84	4.0630	4.0631	0.8377	25.62	0.59	0.750			
0.1568	10032.52	4.0600	4.0600	0.8391	25.63	0.60	0.750			
0.1593	10193.59	4.0570	4.0568	0.8440	25.63	0.60	0.750			
0.1618	10358.01	4.0540	4.0540	0.8387	25.63	0.60	0.750			
0.1644	10520.21	4.0510	4.0510	0.8456	25.63	0.60	0.750			
0.1669	10682.68	4.0480	4.0480	0.8475	25.63	0.60	0.750			
0.1694	10842.31	4.0450	4.0451	0.8460	25.63	0.60	0.750			
0.1720	11005.00	4.0420	4.0420	0.8529	25.63	0.60	0.750			
0.1746	11171.65	4.0390	4.0390	0.8531	25.63	0.60	0.750			
0.1771	11335.46	4.0360	4.0360	0.8636	25.63	0.60	0.750			
0.1797	11503.36	4.0330	4.0331	0.8708	25.62	0.59	0.750			
0.1824	11670.44	4.0300	4.0301	0.8699	25.62	0.59	0.750			
0.1850	11837.52	4.0270	4.0271	0.8727	25.62	0.59	0.750			
0.1876	12007.03	4.0240	4.0240	0.8671	25.62	0.59	0.750			
0.1902	12172.94	4.0210	4.0211	0.8734	25.63	0.60	0.750			
0.1928	12340.58	4.0180	4.0180	0.8769	25.63	0.60	0.750			
0.1954	12507.51	4.0150	4.0151	0.8742	25.63	0.60	0.750			
0.1981	12676.28	4.0120	4.0121	0.8803	25.63	0.60	0.750			
0.2007	12846.14	4.0090	4.0091	0.8832	25.63	0.60	0.750			
0.2034	13016.50	4.0060	4.0060	0.8861	25.63	0.60	0.750			
0.2061	13188.51	4.0030	4.0030	0.8932	25.63	0.60	0.750			
0.2087	13356.62	4.0000	3.9999	0.8898	25.63	0.60	0.750			
0.2114	13528.63	3.9970	3.9970	0.8935	25.63	0.60	0.750			
0.2141	13701.01	3.9940	3.9940	0.8991	25.63	0.60	0.750			
0.2168	13874.69	3.9910	3.9910	0.9023	25.64	0.61	0.750			
0.2195	14048.62	3.9880	3.9881	0.9054	25.64	0.61	0.750			
0.2222	14222.69	3.9850	3.9850	0.9056	25.64	0.61	0.750			
0.2250	14398.12	3.9820	3.9820	0.8958	25.64	0.61	0.750			
0.2276	14569.00	3.9790	3.9790	0.9017	25.65	0.62	0.750			
0.2303	14741.41	3.9760	3.9761	0.9045	25.65	0.62	0.750			
0.2330	14913.87	3.9730	3.9728	0.9081	25.65	0.62	0.750			
0.2358	15088.75	3.9700	3.9702	0.9132	25.65	0.62	0.750			
0.2385	15264.57	3.9670	3.9670	0.9189	25.65	0.62	0.750			
0.2413	15442.98	3.9640	3.9640	0.9249	25.65	0.62	0.750			
0.2441	15624.25	3.9610	3.9609	0.9285	25.65	0.62	0.750			
0.2469	15799.77	3.9580	3.9580	0.9320	25.65	0.62	0.750			
0.2497	15980.16	3.9550	3.9550	0.9292	25.65	0.62	0.750			
0.2525	16158.65	3.9520	3.9519	0.9269	25.65	0.62	0.750			
0.2553	16336.00	3.9490	3.9491	0.9312	25.65	0.62	0.750			
0.2580	16514.35	3.9460	3.9460	0.9304	25.65	0.62	0.750			
0.2608	16694.00	3.9430	3.9430	0.9310	25.65	0.62	0.750			
0.2636	16872.00	3.9400	3.9400	0.9353	25.65	0.62	0.750			
0.2665	17054.27	3.9370	3.9370	0.9134	25.65	0.62	0.750			
0.2692	17231.88	3.9340	3.9340	0.9092	25.65	0.62	0.750			
0.2719	17400.93	3.9310	3.9313	0.9072	25.65	0.62	0.750			
0.2746	17574.00	3.9280	3.9278	0.8951	25.66	0.63	0.750			
0.2772	17741.29	3.9250	3.9248	0.9052	25.66	0.63	0.750			
0.2799	17914.48	3.9220	3.9221	0.9193	25.66	0.63	0.750			
0.2827	18091.87	3.9190	3.9192	0.9366	25.67	0.64	0.750			
0.2856	18280.49	3.9160	3.9160	0.9529	25.67	0.64	0.750			
0.2885	18463.20	3.9130	3.9131	0.9555	25.67	0.64	0.750			
0.2914	18647.29	3.9100	3.9100	0.9611	25.67	0.64	0.750			
0.2943	18834.63	3.9070	3.9071	0.9702	25.67	0.64	0.750			
0.2972	19018.07	3.9040	3.9039	0.9612	25.67	0.64	0.750			
0.3001	19204.32	3.9010	3.9010	0.9548	25.67	0.64	0.750			
0.3029	19384.06	3.8980	3.8981	0.9650	25.68	0.65	0.750			
0.3058	19570.08	3.8950	3.8951	0.9734	25.68	0.65	0.750			
0.3087	19757.84	3.8920	3.8913	0.9741	25.68	0.65	0.750			
0.3117	19947.16	3.8890	3.8892	0.9695	25.68	0.65	0.750			
0.3146	20133.42	3.8860	3.8862	0.9808	25.68	0.65	0.750			
0.3176	20324.71	3.8830	3.8830	0.9893	25.67	0.64	0.750			
0.3205	20511.00	3.8800	3.8799	0.9790	25.67	0.64	0.750			
0.3235	20701.40	3.8770	3.8771	0.9855	25.67	0.64	0.750			
0.3264	20892.46	3.8740	3.8740	0.9944	25.67	0.64	0.750			
0.3295	21085.05	3.8710	3.8711	0.9990	25.67	0.64	0.750			
0.3324	21276.25	3.8680	3.8680	0.9987	25.67	0.64	0.750			
0.3354	21468.71	3.8650	3.8650	1.0028	25.67	0.64	0.750			
0.3385	21661.71	3.8620	3.8621	0.9938	25.66	0.63	0.750			
0.3414	21849.68	3.8590	3.8591	1.0014	25.66	0.63	0.750			
0.3444	22043.17	3.8560	3.8561	1.0071	25.65	0.62	0.750			
0.3474	22236.16	3.8530	3.8532	1.0054	25.65	0.62	0.750			
0.3505	22429.22	3.8500	3.8502	1.0148	25.64	0.61	0.750			
0.3536	22627.87	3.8470	3.8471	1.0108	25.63	0.60	0.750			
0.3566	22822.08	3.8440	3.8441	1.0367	25.63	0.60	0.750			
0.3597	23022.11	3.8410	3.8411	1.0282	25.62	0.59	0.750			
0.3629	23224.11	3.8380	3.8381	1.0161	25.61	0.58	0.750			
0.3659	23416.39	3.8350	3.8353	1.0532	25.60	0.57	0.750			
0.3690	23619.18	3.8320	3.8323	1.0692	25.60	0.57	0.750			
0.3723	23828.81	3.8290	3.8287	1.0668	25.59	0.56	0.751	0.229	0.355	
0.3755	24033.38	3.8260	3.8263	1.0704	25.58	0.55	0.750			
0.3786	24231.04	3.8230	3.8234	1.0830	25.57	0.54	0.750			
0.3819	24443.07	3.8200	3.8204	1.1116	25.56	0.53	0.750			
0.3853	24657.40	3.8170	3.8172	1.0939	25.55	0.52	0.750			
0.3886	24871.35	3.8140	3.8142	1.1177	25.54	0.51	0.750			
0.3921	25096.83	3.8110	3.8112	1.1349	25.53	0.50	0.750			
0.3956	25321.18	3.8080	3.8078	1.1373	25.51	0.48	0.750			
0.3988	25526.12	3.8050	3.8051	1.1124	25.50	0.47	0.750			
0.4021	25737.02	3.8020	3.8022	1.1295	25.49	0.46	0.750			
0.4055	25953.76	3.7990	3.7990	1.1471	25.48	0.45	0.750			
0.4091	26181.59	3.7960	3.7955	1.1590	25.47	0.44	0.750			
0.4126	26404.79	3.7930	3.7934	1.1742	25.46	0.43	0.750			
0.4161	26633.45	3.7900	3.7902	1.1892	25.45	0.42	0.750			
0.4198	26867.16	3.7870	3.7870	1.1975	25.43	0.40	0.750			
0.4234	27094.48	3.7840	3.7841	1.1901	25.42	0.39	0.750			
0.4268	27318.36	3.7810	3.7810	1.1982	25.41	0.38	0.750			
0.4305	27550.07	3.7780	3.7781	1.2201	25.39	0.36	0.750			
0.4342	27786.03	3.7750	3.7748	1.2292	25.38	0.35	0.750			
0.4379	28023.16	3.7720	3.7721	1.2539	25.37	0.34	0.750			
0.4417	28267.86	3.7690	3.7690	1.2790	25.36	0.33	0.750			
0.4456	28520.39	3.7660	3.7659	1.2884	25.35	0.32	0.750			
0.4494	28764.29	3.7630	3.7631	1.3165	25.34	0.31	0.750			
0.4534	29019.33	3.7600	3.7601	1.3483	25.32	0.29	0.750			
0.4575	29279.84	3.7570	3.7569	1.3776	25.31	0.28	0.750			
0.4617	29550.31	3.7540	3.7541	1.4080	25.29	0.26	0.750			
0.4660	29822.08	3.7510	3.7511	1.4435	25.28	0.25	0.750			
0.4703	30102.37	3.7480	3.7480	1.4908	25.27	0.24	0.750			
0.4750	30397.83	3.7450	3.7450	1.5001	25.26	0.23	0.750			
0.4795	30688.27	3.7420	3.7419	1.5472	25.24	0.21	0.750			
0.4842	30987.75	3.7390	3.7390	1.5987	25.22	0.19	0.750			
0.4891	31301.68	3.7360	3.7359	1.6249	25.20	0.17	0.750			
0.4940	31615.54	3.7330	3.7333	1.6857	25.19	0.16	0.750			
0.4991	31941.81	3.7300	3.7300	1.7159	25.17	0.14	0.750			
0.5043	32274.28	3.7270	3.7270	1.7765	25.15	0.12	0.750			
0.5097	32624.00	3.7240	3.7238	1.8573	25.14	0.11	0.750			
0.5154	32982.97	3.7210	3.7205	1.8635	25.12	0.09	0.750			
0.5209	33339.78	3.7180	3.7182	1.8819	25.10	0.07	0.750			
0.5265	33695.06	3.7150	3.7155	1.9519	25.08	0.05	0.750			
0.5325	34078.80	3.7120	3.7122	2.0361	25.06	0.03	0.750			
0.5385	34466.27	3.7090	3.7094	2.1171	25.04	0.01	0.750			
0.5455	34909.12	3.7060	3.7061	2.3046	25.02	-0.01	0.750			
0.5526	35365.12	3.7030	3.7024	2.2915	25.01	-0.02	0.750			
0.5590	35774.88	3.7000	3.7002	2.2890	25.00	-0.03	0.750			
0.5658	36210.83	3.6970	3.6973	2.3569	24.98	-0.05	0.750			
0.5730	36674.79	3.6940	3.6942	2.4216	24.96	-0.07	0.750			
0.5805	37149.41	3.6910	3.6909	2.5215	24.95	-0.08	0.750			
0.5884	37655.27	3.6880	3.6879	2.5911	24.93	-0.10	0.750			
0.5961	38148.60	3.6850	3.6851	2.4866	24.92	-0.11	0.750			
0.6031	38597.59	3.6820	3.6823	2.5716	24.91	-0.12	0.750			
0.6109	39094.91	3.6790	3.6786	2.7127	24.90	-0.13	0.750			
0.6193	39636.84	3.6760	3.6762	2.8603	24.88	-0.15	0.750			
0.6290	40254.03	3.6730	3.6728	3.0597	24.88	-0.15	0.750			
0.6373	40789.60	3.6700	3.6699	2.8274	24.88	-0.15	0.750			
0.6458	41334.20	3.6670	3.6668	2.8765	24.88	-0.15	0.750			
0.6545	41884.85	3.6640	3.6641	2.8892	24.88	-0.15	0.750			
0.6632	42446.35	3.6610	3.6613	2.8177	24.88	-0.15	0.750			
0.6718	42996.13	3.6580	3.6583	2.6329	24.88	-0.15	0.750			
0.6787	43437.01	3.6550	3.6552	2.2268	24.90	-0.13	0.750			
0.6851	43847.17	3.6520	3.6519	2.0549	24.91	-0.12	0.750			
0.6908	44209.39	3.6490	3.6492	1.8161	24.92	-0.11	0.750			
0.6958	44533.13	3.6460	3.6460	1.6206	24.93	-0.10	0.750			
0.7004	44826.68	3.6430	3.6431	1.4373	24.94	-0.09	0.750			
0.7045	45088.88	3.6400	3.6401	1.2656	24.95	-0.08	0.750			
0.7080	45313.36	3.6370	3.6369	1.1236	24.96	-0.07	0.750			
0.7108	45494.20	3.6340	3.6343	0.9956	24.96	-0.07	0.750			
0.7136	45667.68	3.6310	3.6307	0.9305	24.97	-0.06	0.750			
0.7161	45830.92	3.6280	3.6279	0.8890	24.97	-0.06	0.750			
0.7187	45997.87	3.6250	3.6251	0.8897	24.98	-0.05	0.750			
0.7214	46172.30	3.6220	3.6205	0.8941	24.98	-0.05	0.750			
0.7241	46344.29	3.6190	3.6192	0.8916	24.99	-0.04	0.750			
0.7268	46512.82	3.6160	3.6147	0.8923	25.00	-0.03	0.750			
0.7296	46691.70	3.6130	3.6130	0.8673	25.01	-0.02	0.750			
0.7322	46860.13	3.6100	3.6104	0.8193	25.02	-0.01	0.750			
0.7347	47019.50	3.6070	3.6075	0.7506	25.03	0.00	0.750			
0.7369	47162.79	3.6040	3.6042	0.6736	25.04	0.01	0.750			
0.7389	47287.10	3.6010	3.6009	0.5758	25.05	0.02	0.750			
0.7403	47376.92	3.5980	3.5980	0.4795	25.06	0.03	0.750			
0.7415	47457.32	3.5950	3.5952	0.4126	25.06	0.03	0.750			
0.7427	47529.66	3.5920	3.5921	0.3539	25.07	0.04	0.750			
0.7436	47591.13	3.5890	3.5894	0.2992	25.07	0.04	0.750			
0.7444	47643.74	3.5860	3.5865	0.2510	25.07	0.04	0.750			
0.7451	47687.65	3.5830	3.5837	0.2037	25.08	0.05	0.750			
0.7458	47729.00	3.5800	3.5801	0.1285	25.08	0.05	0.750			
0.7460	47745.08	3.5770	3.5784	0.0659	25.08	0.05	0.750			
