Ah_balance (normalized)	Ah_balance (mAh)	Voltage - fit (V)	Voltage -  interpolate (V)	dQ/dV (1/V)	Temperature (°C)	Temperature - diff (°C)	Current (C)	R_DC 0ms (mOhm)	R_DC 50ms (mOhm)	R_DC 50 ms PEC (mOhm)
0.0475	3037.33	4.1980	4.1980	0.7614	25.51	0.61	0.750			
0.0498	3184.18	4.1950	4.1950	0.7623	25.51	0.61	0.750			
0.0519	3323.30	4.1920	4.1921	0.7381	25.51	0.61	0.750			
0.0541	3464.46	4.1890	4.1892	0.7438	25.51	0.61	0.750			
0.0564	3606.65	4.1860	4.1858	0.7500	25.51	0.61	0.750			
0.0586	3751.44	4.1830	4.1832	0.7581	25.51	0.61	0.750			
0.0609	3899.89	4.1800	4.1801	0.7577	25.51	0.61	0.750			
0.0632	4046.80	4.1770	4.1771	0.7614	25.51	0.61	0.750			
0.0656	4198.49	4.1740	4.1740	0.7748	25.51	0.61	0.750			
0.0678	4339.01	4.1710	4.1711	0.7585	25.51	0.61	0.750			
0.0701	4485.08	4.1680	4.1680	0.7613	25.51	0.61	0.750			
0.0724	4630.70	4.1650	4.1650	0.7670	25.51	0.61	0.750			
0.0747	4780.02	4.1620	4.1620	0.7657	25.51	0.61	0.750			
0.0770	4927.56	4.1590	4.1591	0.7688	25.51	0.61	0.750			
0.0793	5074.59	4.1560	4.1560	0.7665	25.51	0.61	0.750			
0.0816	5221.78	4.1530	4.1527	0.7679	25.51	0.61	0.750			
0.0839	5368.73	4.1500	4.1501	0.7689	25.51	0.61	0.750			
0.0862	5519.12	4.1470	4.1470	0.7639	25.51	0.61	0.750			
0.0885	5666.12	4.1440	4.1441	0.7638	25.50	0.60	0.750			
0.0908	5810.51	4.1410	4.1410	0.7658	25.50	0.60	0.750			
0.0931	5957.40	4.1380	4.1382	0.7731	25.50	0.60	0.750			
0.0954	6105.67	4.1350	4.1351	0.7759	25.50	0.60	0.750			
0.0977	6255.01	4.1320	4.1321	0.7835	25.50	0.60	0.750			
0.1001	6408.41	4.1290	4.1291	0.7820	25.50	0.60	0.750			
0.1025	6559.92	4.1260	4.1260	0.7828	25.51	0.61	0.750			
0.1048	6709.21	4.1230	4.1231	0.7786	25.51	0.61	0.750			
0.1072	6857.75	4.1200	4.1202	0.7797	25.51	0.61	0.750			
0.1095	7006.72	4.1170	4.1170	0.7801	25.51	0.61	0.750			
0.1118	7157.38	4.1140	4.1140	0.7805	25.51	0.61	0.750			
0.1142	7307.68	4.1110	4.1111	0.7824	25.51	0.61	0.750			
0.1165	7458.74	4.1080	4.1080	0.7832	25.51	0.61	0.750			
0.1189	7608.44	4.1050	4.1049	0.7835	25.51	0.61	0.750			
0.1212	7757.29	4.1020	4.1020	0.7847	25.51	0.61	0.750			
0.1236	7909.99	4.0990	4.0990	0.7820	25.51	0.61	0.750			
0.1259	8059.24	4.0960	4.0959	0.7903	25.51	0.61	0.750			
0.1283	8211.46	4.0930	4.0931	0.7956	25.51	0.61	0.750			
0.1307	8363.80	4.0900	4.0901	0.8006	25.51	0.61	0.750			
0.1331	8517.36	4.0870	4.0870	0.8098	25.51	0.61	0.750			
0.1356	8678.46	4.0840	4.0840	0.7963	25.51	0.61	0.750			
0.1380	8830.27	4.0810	4.0810	0.8034	25.51	0.61	0.750			
0.1404	8986.50	4.0780	4.0781	0.8076	25.51	0.61	0.750			
0.1428	9137.28	4.0750	4.0751	0.8041	25.51	0.61	0.750			
0.1452	9290.25	4.0720	4.0719	0.8069	25.51	0.61	0.750			
0.1476	9445.86	4.0690	4.0691	0.8086	25.51	0.61	0.750			
0.1500	9601.02	4.0660	4.0661	0.8181	25.51	0.61	0.750			
0.1525	9761.85	4.0630	4.0630	0.8327	25.51	0.61	0.750			
0.1550	9920.19	4.0600	4.0600	0.8257	25.51	0.61	0.750			
0.1575	10081.32	4.0570	4.0570	0.8310	25.51	0.61	0.750			
0.1600	10241.43	4.0540	4.0542	0.8331	25.51	0.61	0.750			
0.1625	10402.58	4.0510	4.0510	0.8238	25.51	0.61	0.750			
0.1650	10558.81	4.0480	4.0480	0.8229	25.52	0.62	0.750			
0.1674	10712.44	4.0450	4.0452	0.8254	25.52	0.62	0.750			
0.1699	10871.18	4.0420	4.0418	0.8332	25.52	0.62	0.750			
0.1724	11034.37	4.0390	4.0391	0.8357	25.52	0.62	0.750			
0.1749	11194.84	4.0360	4.0362	0.8403	25.52	0.62	0.750			
0.1775	11358.97	4.0330	4.0331	0.8464	25.53	0.63	0.750			
0.1801	11525.05	4.0300	4.0299	0.8532	25.53	0.63	0.750			
0.1825	11681.00	4.0270	4.0270	0.8419	25.53	0.63	0.750			
0.1851	11843.56	4.0240	4.0241	0.8420	25.53	0.63	0.750			
0.1876	12006.66	4.0210	4.0210	0.8493	25.53	0.63	0.750			
0.1902	12169.95	4.0180	4.0180	0.8543	25.53	0.63	0.750			
0.1927	12333.15	4.0150	4.0151	0.8540	25.53	0.63	0.750			
0.1953	12497.85	4.0120	4.0121	0.8594	25.53	0.63	0.750			
0.1979	12667.10	4.0090	4.0089	0.8515	25.53	0.63	0.750			
0.2004	12828.57	4.0060	4.0061	0.8575	25.53	0.63	0.750			
0.2030	12993.09	4.0030	4.0030	0.8626	25.54	0.64	0.750			
0.2056	13157.38	4.0000	4.0002	0.8649	25.54	0.64	0.750			
0.2082	13323.84	3.9970	3.9972	0.8695	25.54	0.64	0.750			
0.2108	13492.57	3.9940	3.9940	0.8704	25.54	0.64	0.750			
0.2134	13659.45	3.9910	3.9911	0.8796	25.55	0.65	0.750			
0.2161	13830.27	3.9880	3.9880	0.8828	25.55	0.65	0.750			
0.2187	13998.84	3.9850	3.9847	0.8819	25.55	0.65	0.750			
0.2214	14170.84	3.9820	3.9821	0.8798	25.55	0.65	0.750			
0.2240	14336.19	3.9790	3.9791	0.8951	25.55	0.65	0.750			
0.2267	14507.80	3.9760	3.9760	0.9168	25.56	0.66	0.750			
0.2295	14686.11	3.9730	3.9729	0.9315	25.56	0.66	0.750			
0.2323	14868.52	3.9700	3.9697	0.9300	25.56	0.66	0.750			
0.2352	15052.59	3.9670	3.9673	0.9253	25.56	0.66	0.750			
0.2380	15231.93	3.9640	3.9642	0.9267	25.56	0.66	0.750			
0.2408	15409.07	3.9610	3.9609	0.9154	25.56	0.66	0.750			
0.2433	15574.33	3.9580	3.9580	0.8923	25.56	0.66	0.750			
0.2460	15746.28	3.9550	3.9550	0.8973	25.56	0.66	0.750			
0.2488	15920.18	3.9520	3.9521	0.8997	25.56	0.66	0.750			
0.2515	16095.12	3.9490	3.9490	0.9019	25.55	0.65	0.750			
0.2542	16269.45	3.9460	3.9461	0.9082	25.55	0.65	0.750			
0.2569	16441.39	3.9430	3.9428	0.8994	25.55	0.65	0.750			
0.2596	16614.80	3.9400	3.9400	0.8959	25.55	0.65	0.750			
0.2623	16786.30	3.9370	3.9371	0.8952	25.55	0.65	0.750			
0.2650	16957.66	3.9340	3.9340	0.9006	25.54	0.64	0.750			
0.2677	17130.99	3.9310	3.9310	0.9006	25.54	0.64	0.750			
0.2704	17302.60	3.9280	3.9280	0.8993	25.54	0.64	0.750			
0.2731	17475.82	3.9250	3.9250	0.8925	25.54	0.64	0.750			
0.2758	17648.78	3.9220	3.9221	0.8995	25.53	0.63	0.750			
0.2784	17820.49	3.9190	3.9191	0.9011	25.53	0.63	0.750			
0.2811	17992.27	3.9160	3.9157	0.8992	25.53	0.63	0.750			
0.2838	18166.35	3.9130	3.9131	0.8952	25.53	0.63	0.750			
0.2865	18338.66	3.9100	3.9100	0.8990	25.53	0.63	0.750			
0.2892	18510.23	3.9070	3.9071	0.9051	25.52	0.62	0.750			
0.2920	18686.24	3.9040	3.9040	0.9086	25.52	0.62	0.750			
0.2947	18858.32	3.9010	3.9008	0.9079	25.52	0.62	0.750			
0.2974	19033.74	3.8980	3.8981	0.9072	25.51	0.61	0.750			
0.3001	19208.93	3.8950	3.8951	0.9104	25.51	0.61	0.750			
0.3029	19384.73	3.8920	3.8920	0.9103	25.50	0.60	0.750			
0.3056	19558.36	3.8890	3.8890	0.9051	25.49	0.59	0.750			
0.3083	19731.55	3.8860	3.8860	0.9044	25.49	0.59	0.750			
0.3110	19905.96	3.8830	3.8830	0.8997	25.48	0.58	0.750			
0.3137	20076.69	3.8800	3.8801	0.9009	25.48	0.58	0.750			
0.3164	20249.31	3.8770	3.8771	0.9090	25.47	0.57	0.750			
0.3191	20423.04	3.8740	3.8736	0.9125	25.47	0.57	0.750			
0.3219	20600.73	3.8710	3.8711	0.9110	25.46	0.56	0.750			
0.3246	20776.11	3.8680	3.8681	0.9145	25.45	0.55	0.750			
0.3274	20953.70	3.8650	3.8650	0.9199	25.44	0.54	0.750			
0.3302	21130.49	3.8620	3.8621	0.9254	25.44	0.54	0.750			
0.3329	21304.23	3.8590	3.8590	0.9200	25.43	0.53	0.750			
0.3356	21481.45	3.8560	3.8560	0.9230	25.41	0.51	0.750			
0.3384	21660.33	3.8530	3.8531	0.9269	25.40	0.50	0.750			
0.3412	21838.70	3.8500	3.8500	0.9328	25.39	0.49	0.750			
0.3440	22017.65	3.8470	3.8470	0.9353	25.38	0.48	0.750			
0.3469	22199.78	3.8440	3.8439	0.9291	25.37	0.47	0.750			
0.3496	22377.02	3.8410	3.8410	0.9373	25.37	0.47	0.750			
0.3525	22557.31	3.8380	3.8378	0.9449	25.36	0.46	0.750	0.317	0.456	
0.3553	22738.36	3.8350	3.8351	0.9505	25.35	0.45	0.750			
0.3582	22922.96	3.8320	3.8321	0.9551	25.35	0.45	0.750			
0.3610	23105.51	3.8290	3.8290	0.9628	25.34	0.44	0.750			
0.3639	23291.53	3.8260	3.8261	0.9725	25.33	0.43	0.750			
0.3669	23480.00	3.8230	3.8231	0.9804	25.32	0.42	0.750			
0.3698	23668.08	3.8200	3.8200	0.9857	25.31	0.41	0.750			
0.3728	23857.83	3.8170	3.8170	0.9928	25.30	0.40	0.750			
0.3757	24047.81	3.8140	3.8140	1.0022	25.29	0.39	0.750			
0.3788	24242.01	3.8110	3.8111	1.0112	25.28	0.38	0.750			
0.3818	24437.35	3.8080	3.8079	1.0198	25.27	0.37	0.750			
0.3849	24634.95	3.8050	3.8051	1.0206	25.26	0.36	0.750			
0.3880	24829.30	3.8020	3.8020	1.0371	25.25	0.35	0.750			
0.3911	25027.52	3.7990	3.7991	1.0502	25.23	0.33	0.750			
0.3942	25230.22	3.7960	3.7954	1.0648	25.22	0.32	0.750			
0.3974	25435.36	3.7930	3.7931	1.0839	25.21	0.31	0.750			
0.4007	25647.56	3.7900	3.7901	1.1038	25.20	0.30	0.750			
0.4041	25862.23	3.7870	3.7871	1.1284	25.20	0.30	0.750			
0.4075	26080.24	3.7840	3.7840	1.1290	25.19	0.29	0.750			
0.4109	26298.58	3.7810	3.7810	1.1547	25.17	0.27	0.750			
0.4144	26521.15	3.7780	3.7780	1.1787	25.16	0.26	0.750			
0.4180	26753.87	3.7750	3.7749	1.1839	25.14	0.24	0.750			
0.4216	26981.33	3.7720	3.7720	1.2061	25.13	0.23	0.750			
0.4252	27213.87	3.7690	3.7691	1.2279	25.12	0.22	0.750			
0.4289	27449.83	3.7660	3.7661	1.2499	25.11	0.21	0.750			
0.4327	27689.66	3.7630	3.7628	1.2755	25.10	0.20	0.750			
0.4365	27937.26	3.7600	3.7601	1.3113	25.08	0.18	0.750			
0.4406	28195.22	3.7570	3.7571	1.3389	25.07	0.17	0.750			
0.4446	28457.24	3.7540	3.7539	1.3772	25.06	0.16	0.750			
0.4489	28726.47	3.7510	3.7510	1.3855	25.05	0.15	0.750			
0.4531	28995.87	3.7480	3.7480	1.4132	25.03	0.13	0.750			
0.4573	29264.87	3.7450	3.7450	1.4451	25.02	0.12	0.750			
0.4616	29540.37	3.7420	3.7422	1.4807	25.00	0.10	0.750			
0.4660	29826.92	3.7390	3.7391	1.5217	24.98	0.08	0.750			
0.4707	30127.04	3.7360	3.7358	1.5689	24.97	0.07	0.750			
0.4755	30433.13	3.7330	3.7328	1.6216	24.95	0.05	0.750			
0.4805	30754.65	3.7300	3.7301	1.6741	24.94	0.04	0.750			
0.4856	31077.76	3.7270	3.7272	1.7279	24.93	0.03	0.750			
0.4907	31407.10	3.7240	3.7242	1.7495	24.91	0.01	0.750			
0.4960	31745.05	3.7210	3.7208	1.7982	24.89	-0.01	0.750			
0.5016	32099.97	3.7180	3.7180	1.8465	24.88	-0.02	0.750			
0.5073	32469.69	3.7150	3.7145	1.8708	24.86	-0.04	0.750			
0.5130	32831.65	3.7120	3.7118	1.9110	24.84	-0.06	0.750			
0.5186	33192.71	3.7090	3.7090	1.9393	24.82	-0.08	0.750			
0.5244	33562.90	3.7060	3.7059	2.0022	24.81	-0.09	0.750			
0.5305	33949.34	3.7030	3.7031	2.0768	24.80	-0.10	0.750			
0.5369	34361.65	3.7000	3.7001	2.1486	24.79	-0.11	0.750			
0.5436	34791.38	3.6970	3.6969	2.2170	24.78	-0.12	0.750			
0.5502	35215.38	3.6940	3.6944	2.2835	24.77	-0.13	0.750			
0.5572	35661.38	3.6910	3.6910	2.3525	24.76	-0.14	0.750			
0.5645	36129.97	3.6880	3.6877	2.4238	24.74	-0.16	0.750			
0.5720	36608.20	3.6850	3.6853	2.4979	24.73	-0.17	0.750			
0.5795	37087.99	3.6820	3.6823	2.5010	24.72	-0.18	0.750			
0.5869	37559.10	3.6790	3.6793	2.4895	24.72	-0.18	0.750			
0.5946	38054.29	3.6760	3.6761	2.5174	24.72	-0.18	0.750			
0.6022	38540.20	3.6730	3.6729	2.4915	24.72	-0.18	0.750			
0.6097	39018.40	3.6700	3.6702	2.3222	24.72	-0.18	0.750			
0.6163	39440.61	3.6670	3.6671	2.2034	24.74	-0.16	0.750			
0.6226	39848.52	3.6640	3.6640	2.0533	24.74	-0.16	0.750			
0.6287	40234.43	3.6610	3.6615	1.9852	24.75	-0.15	0.750			
0.6344	40602.49	3.6580	3.6577	1.8635	24.76	-0.14	0.750			
0.6400	40959.29	3.6550	3.6549	1.7463	24.77	-0.13	0.750			
0.6449	41272.36	3.6520	3.6523	1.5681	24.78	-0.12	0.750			
0.6494	41563.86	3.6490	3.6492	1.4680	24.79	-0.11	0.750			
0.6535	41825.89	3.6460	3.6461	1.3464	24.79	-0.11	0.750			
0.6574	42073.41	3.6430	3.6423	1.2374	24.80	-0.10	0.750			
0.6609	42298.86	3.6400	3.6402	1.1681	24.81	-0.09	0.750			
0.6643	42515.82	3.6370	3.6373	1.1139	24.81	-0.09	0.750			
0.6676	42725.81	3.6340	3.6341	1.0699	24.82	-0.08	0.750			
0.6706	42921.54	3.6310	3.6310	1.0054	24.82	-0.08	0.750			
0.6736	43110.61	3.6280	3.6281	0.9638	24.83	-0.07	0.750			
0.6764	43292.74	3.6250	3.6251	0.9311	24.84	-0.06	0.750			
0.6792	43470.87	3.6220	3.6220	0.8946	24.85	-0.05	0.750			
0.6818	43637.07	3.6190	3.6187	0.8476	24.86	-0.04	0.750			
0.6843	43796.19	3.6160	3.6161	0.8056	24.87	-0.03	0.750			
0.6867	43949.76	3.6130	3.6130	0.7544	24.88	-0.02	0.750			
0.6889	44092.22	3.6100	3.6100	0.7100	24.88	-0.02	0.750			
0.6910	44222.31	3.6070	3.6071	0.6535	24.89	-0.01	0.750			
0.6929	44343.25	3.6040	3.6041	0.6039	24.90	-0.00	0.750			
0.6946	44454.46	3.6010	3.6008	0.5524	24.90	0.00	0.750			
0.6962	44554.21	3.5980	3.5981	0.4988	24.91	0.01	0.750			
0.6976	44645.35	3.5950	3.5949	0.4494	24.91	0.01	0.750			
0.6989	44727.65	3.5920	3.5921	0.4017	24.91	0.01	0.750			
0.7000	44800.05	3.5890	3.5889	0.3486	24.92	0.02	0.750			
0.7010	44862.41	3.5860	3.5860	0.3000	24.92	0.02	0.750			
0.7018	44915.52	3.5830	3.5830	0.2508	24.92	0.02	0.750			
0.7025	44959.22	3.5800	3.5800	0.2011	24.93	0.03	0.750			
0.7030	44993.25	3.5770	3.5771	0.1486	24.93	0.03	0.750			
0.7034	45016.91	3.5740	3.5742	0.0906	24.93	0.03	0.750			
