Ah_balance (normalized)	Ah_balance (mAh)	Voltage - fit (V)	Voltage -  interpolate (V)	dQ/dV (1/V)	Temperature (°C)	Temperature - diff (°C)	Current (C)	R_DC 0ms (mOhm)	R_DC 50ms (mOhm)	R_DC 50 ms PEC (mOhm)
0.0483	3091.20	4.1970	4.1972	0.8306	25.55	0.53	0.750			
0.0507	3245.07	4.1940	4.1941	0.7905	25.55	0.53	0.750			
0.0530	3390.70	4.1910	4.1911	0.7690	25.55	0.53	0.750			
0.0553	3538.48	4.1880	4.1880	0.7645	25.54	0.52	0.750			
0.0575	3678.21	4.1850	4.1850	0.7511	25.54	0.52	0.750			
0.0597	3822.34	4.1820	4.1819	0.7501	25.54	0.52	0.750			
0.0620	3966.11	4.1790	4.1791	0.7526	25.54	0.52	0.750			
0.0643	4114.35	4.1760	4.1760	0.7475	25.54	0.52	0.750			
0.0665	4255.38	4.1730	4.1730	0.7546	25.54	0.52	0.750			
0.0687	4399.00	4.1700	4.1701	0.7572	25.54	0.52	0.750			
0.0710	4545.11	4.1670	4.1670	0.7617	25.54	0.52	0.750			
0.0733	4691.57	4.1640	4.1642	0.7643	25.54	0.52	0.750			
0.0756	4841.27	4.1610	4.1610	0.7671	25.54	0.52	0.750			
0.0779	4987.88	4.1580	4.1581	0.7693	25.54	0.52	0.750			
0.0802	5135.85	4.1550	4.1550	0.7649	25.55	0.53	0.750			
0.0825	5282.50	4.1520	4.1520	0.7691	25.55	0.53	0.750			
0.0848	5430.23	4.1490	4.1492	0.7718	25.55	0.53	0.750			
0.0872	5579.70	4.1460	4.1461	0.7764	25.55	0.53	0.750			
0.0895	5730.76	4.1430	4.1430	0.7754	25.55	0.53	0.750			
0.0919	5879.60	4.1400	4.1399	0.7739	25.55	0.53	0.750			
0.0942	6027.00	4.1370	4.1371	0.7704	25.55	0.53	0.750			
0.0965	6175.33	4.1340	4.1339	0.7721	25.55	0.53	0.750			
0.0988	6322.91	4.1310	4.1310	0.7706	25.55	0.53	0.750			
0.1011	6472.25	4.1280	4.1280	0.7672	25.55	0.53	0.750			
0.1034	6618.98	4.1250	4.1250	0.7717	25.55	0.53	0.750			
0.1057	6766.59	4.1220	4.1220	0.7783	25.55	0.53	0.750			
0.1080	6914.78	4.1190	4.1190	0.7802	25.55	0.53	0.750			
0.1104	7065.55	4.1160	4.1160	0.7830	25.55	0.53	0.750			
0.1128	7216.87	4.1130	4.1131	0.7877	25.55	0.53	0.750			
0.1152	7370.40	4.1100	4.1100	0.7774	25.55	0.53	0.750			
0.1175	7517.62	4.1070	4.1070	0.7868	25.55	0.53	0.750			
0.1198	7666.09	4.1040	4.1042	0.7847	25.55	0.53	0.750			
0.1221	7816.34	4.1010	4.1003	0.7893	25.55	0.53	0.750			
0.1245	7968.71	4.0980	4.0983	0.7955	25.55	0.53	0.750			
0.1269	8123.79	4.0950	4.0951	0.7981	25.55	0.53	0.750			
0.1294	8280.46	4.0920	4.0919	0.8029	25.55	0.53	0.750			
0.1318	8432.43	4.0890	4.0891	0.7907	25.55	0.53	0.750			
0.1341	8583.77	4.0860	4.0859	0.7946	25.55	0.53	0.750			
0.1365	8737.67	4.0830	4.0830	0.8001	25.55	0.53	0.750			
0.1390	8895.09	4.0800	4.0800	0.7850	25.55	0.53	0.750			
0.1413	9043.05	4.0770	4.0770	0.7971	25.55	0.53	0.750			
0.1437	9194.95	4.0740	4.0741	0.8043	25.55	0.53	0.750			
0.1461	9347.67	4.0710	4.0712	0.8097	25.55	0.53	0.750			
0.1485	9504.99	4.0680	4.0682	0.8112	25.55	0.53	0.750			
0.1510	9664.40	4.0650	4.0651	0.8075	25.55	0.53	0.750			
0.1534	9819.34	4.0620	4.0622	0.8183	25.55	0.53	0.750			
0.1559	9978.79	4.0590	4.0590	0.8302	25.55	0.53	0.750			
0.1583	10132.48	4.0560	4.0560	0.8204	25.55	0.53	0.750			
0.1608	10292.11	4.0530	4.0531	0.8275	25.55	0.53	0.750			
0.1633	10452.50	4.0500	4.0500	0.8308	25.56	0.54	0.750			
0.1659	10614.47	4.0470	4.0471	0.8341	25.56	0.54	0.750			
0.1684	10774.90	4.0440	4.0440	0.8374	25.56	0.54	0.750			
0.1708	10931.56	4.0410	4.0410	0.8314	25.57	0.55	0.750			
0.1733	11092.06	4.0380	4.0379	0.8355	25.57	0.55	0.750			
0.1759	11257.04	4.0350	4.0349	0.8208	25.57	0.55	0.750			
0.1783	11411.44	4.0320	4.0321	0.8259	25.57	0.55	0.750			
0.1807	11567.59	4.0290	4.0292	0.8372	25.57	0.55	0.750			
0.1832	11725.86	4.0260	4.0261	0.8399	25.57	0.55	0.750			
0.1858	11889.69	4.0230	4.0230	0.8463	25.57	0.55	0.750			
0.1883	12052.91	4.0200	4.0202	0.8569	25.57	0.55	0.750			
0.1909	12219.59	4.0170	4.0172	0.8538	25.57	0.55	0.750			
0.1935	12384.57	4.0140	4.0141	0.8588	25.57	0.55	0.750			
0.1960	12545.33	4.0110	4.0111	0.8505	25.57	0.55	0.750			
0.1986	12708.99	4.0080	4.0082	0.8562	25.57	0.55	0.750			
0.2012	12875.01	4.0050	4.0051	0.8596	25.57	0.55	0.750			
0.2038	13041.99	4.0020	4.0021	0.8695	25.57	0.55	0.750			
0.2065	13214.71	3.9990	3.9990	0.8834	25.57	0.55	0.750			
0.2090	13376.74	3.9960	3.9958	0.8682	25.57	0.55	0.750			
0.2116	13543.49	3.9930	3.9931	0.8716	25.57	0.55	0.750			
0.2143	13712.14	3.9900	3.9900	0.8682	25.57	0.55	0.750			
0.2169	13879.03	3.9870	3.9870	0.8733	25.57	0.55	0.750			
0.2194	14044.43	3.9840	3.9841	0.8747	25.57	0.55	0.750			
0.2221	14212.76	3.9810	3.9807	0.8810	25.57	0.55	0.750			
0.2248	14386.79	3.9780	3.9780	0.8733	25.57	0.55	0.750			
0.2274	14552.67	3.9750	3.9752	0.8789	25.57	0.55	0.750			
0.2300	14721.69	3.9720	3.9721	0.8878	25.57	0.55	0.750			
0.2327	14891.35	3.9690	3.9691	0.8831	25.57	0.55	0.750			
0.2353	15059.69	3.9660	3.9658	0.8864	25.57	0.55	0.750			
0.2380	15231.04	3.9630	3.9631	0.8916	25.57	0.55	0.750			
0.2407	15405.85	3.9600	3.9601	0.8987	25.57	0.55	0.750			
0.2435	15581.19	3.9570	3.9569	0.8991	25.57	0.55	0.750			
0.2461	15751.95	3.9540	3.9540	0.8889	25.57	0.55	0.750			
0.2488	15920.72	3.9510	3.9511	0.8880	25.57	0.55	0.750			
0.2514	16092.61	3.9480	3.9480	0.8869	25.57	0.55	0.750			
0.2541	16261.27	3.9450	3.9450	0.8858	25.57	0.55	0.750			
0.2567	16430.95	3.9420	3.9421	0.8912	25.57	0.55	0.750			
0.2594	16601.41	3.9390	3.9385	0.8948	25.57	0.55	0.750			
0.2622	16779.37	3.9360	3.9360	0.8877	25.57	0.55	0.750			
0.2648	16947.38	3.9330	3.9331	0.8902	25.57	0.55	0.750			
0.2675	17117.02	3.9300	3.9301	0.8938	25.57	0.55	0.750			
0.2702	17289.73	3.9270	3.9271	0.8987	25.57	0.55	0.750			
0.2728	17458.82	3.9240	3.9237	0.8956	25.57	0.55	0.750			
0.2755	17631.23	3.9210	3.9211	0.8983	25.57	0.55	0.750			
0.2782	17806.41	3.9180	3.9181	0.9020	25.57	0.55	0.750			
0.2810	17981.93	3.9150	3.9149	0.9024	25.57	0.55	0.750			
0.2837	18154.02	3.9120	3.9119	0.8930	25.57	0.55	0.750			
0.2863	18323.91	3.9090	3.9090	0.8903	25.57	0.55	0.750			
0.2890	18495.09	3.9060	3.9060	0.8839	25.56	0.54	0.750			
0.2916	18663.02	3.9030	3.9030	0.8839	25.55	0.53	0.750			
0.2942	18830.25	3.9000	3.9001	0.8889	25.55	0.53	0.750			
0.2969	19003.18	3.8970	3.8965	0.8983	25.54	0.52	0.750			
0.2997	19178.72	3.8940	3.8940	0.8950	25.54	0.52	0.750			
0.3024	19350.49	3.8910	3.8911	0.9008	25.54	0.52	0.750			
0.3051	19525.61	3.8880	3.8881	0.9066	25.53	0.51	0.750			
0.3078	19698.77	3.8850	3.8851	0.9004	25.53	0.51	0.750			
0.3105	19870.07	3.8820	3.8821	0.9007	25.53	0.51	0.750			
0.3132	20043.39	3.8790	3.8790	0.8985	25.52	0.50	0.750			
0.3159	20218.16	3.8760	3.8760	0.9063	25.52	0.50	0.750			
0.3186	20388.72	3.8730	3.8731	0.9236	25.52	0.50	0.750			
0.3213	20564.48	3.8700	3.8699	0.9365	25.51	0.49	0.750			
0.3242	20747.70	3.8670	3.8669	0.9494	25.50	0.48	0.750			
0.3271	20935.10	3.8640	3.8638	0.9566	25.49	0.47	0.750			
0.3301	21124.45	3.8610	3.8613	0.9615	25.48	0.46	0.750			
0.3330	21310.85	3.8580	3.8581	0.9543	25.47	0.45	0.750			
0.3358	21492.47	3.8550	3.8550	0.9405	25.47	0.45	0.750			
0.3385	21666.34	3.8520	3.8520	0.9105	25.46	0.44	0.750			
0.3412	21837.87	3.8490	3.8491	0.9188	25.45	0.43	0.750			
0.3440	22013.71	3.8460	3.8461	0.9296	25.45	0.43	0.750			
0.3467	22191.86	3.8430	3.8425	0.9383	25.44	0.42	0.750			
0.3496	22374.57	3.8400	3.8396	0.9427	25.43	0.41	0.750	0.335	0.460	
0.3524	22556.56	3.8370	3.8372	0.9551	25.42	0.40	0.750			
0.3554	22743.64	3.8340	3.8341	0.9661	25.41	0.39	0.750			
0.3583	22929.44	3.8310	3.8309	0.9614	25.39	0.37	0.750			
0.3612	23115.98	3.8280	3.8280	0.9513	25.38	0.36	0.750			
0.3640	23297.11	3.8250	3.8250	0.9536	25.37	0.35	0.750			
0.3669	23479.43	3.8220	3.8222	0.9584	25.37	0.35	0.750			
0.3697	23663.38	3.8190	3.8190	0.9701	25.36	0.34	0.750			
0.3726	23846.48	3.8160	3.8160	0.9747	25.35	0.33	0.750			
0.3756	24035.30	3.8130	3.8130	0.9858	25.33	0.31	0.750			
0.3785	24226.12	3.8100	3.8101	1.0058	25.32	0.30	0.750			
0.3816	24422.11	3.8070	3.8070	1.0225	25.31	0.29	0.750			
0.3847	24620.18	3.8040	3.8040	1.0270	25.30	0.28	0.750			
0.3878	24818.79	3.8010	3.8011	1.0397	25.29	0.27	0.750			
0.3909	25018.76	3.7980	3.7980	1.0580	25.28	0.26	0.750			
0.3941	25224.29	3.7950	3.7951	1.0734	25.28	0.26	0.750			
0.3974	25432.83	3.7920	3.7918	1.0746	25.27	0.25	0.750			
0.4006	25637.80	3.7890	3.7891	1.0946	25.26	0.24	0.750			
0.4039	25849.62	3.7860	3.7861	1.1149	25.25	0.23	0.750			
0.4073	26065.41	3.7830	3.7830	1.1365	25.24	0.22	0.750			
0.4107	26285.84	3.7800	3.7801	1.1442	25.24	0.22	0.750			
0.4141	26505.24	3.7770	3.7771	1.1685	25.22	0.20	0.750			
0.4177	26732.04	3.7740	3.7741	1.1958	25.21	0.19	0.750			
0.4213	26964.28	3.7710	3.7707	1.2226	25.20	0.18	0.750			
0.4250	27198.24	3.7680	3.7681	1.2433	25.19	0.17	0.750			
0.4288	27442.10	3.7650	3.7651	1.2700	25.18	0.16	0.750			
0.4327	27695.58	3.7620	3.7619	1.2871	25.16	0.14	0.750			
0.4366	27942.66	3.7590	3.7590	1.3174	25.15	0.13	0.750			
0.4405	28189.81	3.7560	3.7561	1.3379	25.14	0.12	0.750			
0.4446	28453.90	3.7530	3.7531	1.3532	25.13	0.11	0.750			
0.4487	28719.85	3.7500	3.7500	1.3678	25.11	0.09	0.750			
0.4528	28979.09	3.7470	3.7472	1.4211	25.10	0.08	0.750			
0.4572	29260.36	3.7440	3.7441	1.4449	25.09	0.07	0.750			
0.4615	29538.67	3.7410	3.7410	1.4868	25.07	0.05	0.750			
0.4660	29823.61	3.7380	3.7384	1.5221	25.06	0.04	0.750			
0.4706	30119.75	3.7350	3.7352	1.5771	25.04	0.02	0.750			
0.4755	30432.49	3.7320	3.7321	1.6355	25.03	0.01	0.750			
0.4805	30755.08	3.7290	3.7291	1.6677	25.01	-0.01	0.750			
0.4855	31071.16	3.7260	3.7258	1.7066	25.00	-0.02	0.750			
0.4907	31406.22	3.7230	3.7228	1.7722	24.98	-0.04	0.750			
0.4961	31748.42	3.7200	3.7199	1.8080	24.97	-0.05	0.750			
0.5015	32094.93	3.7170	3.7169	1.8774	24.96	-0.06	0.750			
0.5072	32458.98	3.7140	3.7140	1.9631	24.95	-0.07	0.750			
0.5131	32838.06	3.7110	3.7113	1.9663	24.93	-0.09	0.750			
0.5192	33229.76	3.7080	3.7082	2.0173	24.91	-0.11	0.750			
0.5252	33613.18	3.7050	3.7046	2.0836	24.90	-0.12	0.750			
0.5314	34011.47	3.7020	3.7020	2.1183	24.89	-0.13	0.750			
0.5380	34428.97	3.6990	3.6989	2.2380	24.88	-0.14	0.750			
0.5447	34862.28	3.6960	3.6958	2.3109	24.87	-0.15	0.750			
0.5517	35306.45	3.6930	3.6930	2.3730	24.86	-0.16	0.750			
0.5589	35766.99	3.6900	3.6899	2.3808	24.84	-0.18	0.750			
0.5661	36232.90	3.6870	3.6867	2.4107	24.84	-0.18	0.750			
0.5735	36701.26	3.6840	3.6840	2.4422	24.84	-0.18	0.750			
0.5808	37173.35	3.6810	3.6807	2.4721	24.83	-0.19	0.750			
0.5884	37655.26	3.6780	3.6779	2.5236	24.83	-0.19	0.750			
0.5962	38157.14	3.6750	3.6750	2.4515	24.82	-0.20	0.750			
0.6035	38626.54	3.6720	3.6724	2.3899	24.82	-0.20	0.750			
0.6106	39081.56	3.6690	3.6689	2.2809	24.82	-0.20	0.750			
0.6174	39515.86	3.6660	3.6659	2.1294	24.84	-0.18	0.750			
0.6235	39902.85	3.6630	3.6627	1.9984	24.85	-0.17	0.750			
0.6293	40272.57	3.6600	3.6598	1.8405	24.86	-0.16	0.750			
0.6346	40612.84	3.6570	3.6566	1.7151	24.86	-0.16	0.750			
0.6395	40925.51	3.6540	3.6543	1.5846	24.87	-0.15	0.750			
0.6440	41217.48	3.6510	3.6512	1.4714	24.88	-0.14	0.750			
0.6483	41492.06	3.6480	3.6481	1.3655	24.88	-0.14	0.750			
0.6522	41741.99	3.6450	3.6450	1.2657	24.89	-0.13	0.750			
0.6558	41968.50	3.6420	3.6421	1.1830	24.90	-0.12	0.750			
0.6592	42189.23	3.6390	3.6389	1.1240	24.91	-0.11	0.750			
0.6624	42396.09	3.6360	3.6359	1.0572	24.92	-0.10	0.750			
0.6655	42592.47	3.6330	3.6330	1.0112	24.92	-0.10	0.750			
0.6685	42782.61	3.6300	3.6301	0.9536	24.93	-0.09	0.750			
0.6712	42958.66	3.6270	3.6267	0.9330	24.94	-0.08	0.750			
0.6740	43133.78	3.6240	3.6240	0.9041	24.95	-0.07	0.750			
0.6767	43306.79	3.6210	3.6209	0.8512	24.95	-0.07	0.750			
0.6792	43466.92	3.6180	3.6183	0.8279	24.96	-0.06	0.750			
0.6817	43625.62	3.6150	3.6152	0.7937	24.96	-0.06	0.750			
0.6840	43774.10	3.6120	3.6117	0.7474	24.97	-0.05	0.750			
0.6862	43915.80	3.6090	3.6092	0.6990	24.98	-0.04	0.750			
0.6881	44041.19	3.6060	3.6062	0.6401	24.99	-0.03	0.750			
0.6900	44162.28	3.6030	3.6031	0.5863	24.99	-0.03	0.750			
0.6918	44274.10	3.6000	3.5998	0.5350	25.00	-0.02	0.750			
0.6932	44364.17	3.5970	3.5971	0.4702	25.01	-0.01	0.750			
0.6945	44449.38	3.5940	3.5939	0.4212	25.01	-0.01	0.750			
0.6957	44525.15	3.5910	3.5909	0.3716	25.02	-0.00	0.750			
0.6968	44592.19	3.5880	3.5879	0.3213	25.02	-0.00	0.750			
0.6976	44649.17	3.5850	3.5850	0.2722	25.02	0.00	0.750			
0.6984	44697.70	3.5820	3.5820	0.2230	25.03	0.01	0.750			
0.6990	44735.74	3.5790	3.5791	0.1704	25.03	0.01	0.750			
0.6994	44763.94	3.5760	3.5766	0.1152	25.03	0.01	0.750			
0.6997	44780.75	3.5730	3.5751	0.0637	25.03	0.01	0.751			
