Ah_balance (normalized)	Ah_balance (mAh)	Voltage - fit (V)	Voltage -  interpolate (V)	dQ/dV (1/V)	Temperature (°C)	Temperature - diff (°C)	Current (C)	R_DC 0ms (mOhm)	R_DC 50ms (mOhm)	R_DC 50 ms PEC (mOhm)
0.0004	22.42	4.1630	4.1627	-0.1366	25.08	0.00	-0.750			
0.0008	52.70	4.1600	4.1601	-0.1767	25.08	0.00	-0.750			
0.0014	90.20	4.1570	4.1569	-0.2163	25.08	-0.00	-0.750			
0.0021	134.98	4.1540	4.1541	-0.2577	25.08	-0.00	-0.750			
0.0029	188.09	4.1510	4.1510	-0.3004	25.07	-0.01	-0.750			
0.0039	249.51	4.1480	4.1480	-0.3420	25.07	-0.01	-0.750			
0.0050	320.07	4.1450	4.1449	-0.3825	25.07	-0.01	-0.750			
0.0062	398.31	4.1420	4.1419	-0.4189	25.06	-0.02	-0.750			
0.0076	483.92	4.1390	4.1391	-0.4560	25.06	-0.02	-0.750			
0.0090	575.00	4.1360	4.1361	-0.4875	25.05	-0.03	-0.750			
0.0105	673.17	4.1330	4.1329	-0.5143	25.05	-0.03	-0.750			
0.0121	774.59	4.1300	4.1300	-0.5402	25.04	-0.04	-0.750			
0.0138	880.48	4.1270	4.1270	-0.5627	25.04	-0.04	-0.750			
0.0155	990.77	4.1240	4.1241	-0.5853	25.04	-0.04	-0.750			
0.0173	1107.17	4.1210	4.1209	-0.6031	25.03	-0.05	-0.750			
0.0191	1222.57	4.1180	4.1180	-0.6243	25.03	-0.05	-0.750			
0.0210	1347.04	4.1150	4.1151	-0.6354	25.03	-0.05	-0.750			
0.0230	1470.54	4.1120	4.1119	-0.6500	25.02	-0.06	-0.750			
0.0250	1597.72	4.1090	4.1090	-0.6585	25.02	-0.06	-0.750			
0.0270	1725.23	4.1060	4.1060	-0.6681	25.02	-0.06	-0.750			
0.0290	1853.46	4.1030	4.1029	-0.6758	25.02	-0.06	-0.750			
0.0310	1983.30	4.1000	4.1000	-0.6899	25.01	-0.07	-0.750			
0.0330	2114.79	4.0970	4.0970	-0.6932	25.01	-0.07	-0.750			
0.0352	2252.65	4.0940	4.0939	-0.7018	25.01	-0.07	-0.750			
0.0373	2388.20	4.0910	4.0909	-0.7045	25.00	-0.08	-0.750			
0.0395	2524.83	4.0880	4.0880	-0.7093	25.00	-0.08	-0.750			
0.0416	2661.14	4.0850	4.0849	-0.7111	25.00	-0.08	-0.750			
0.0437	2797.04	4.0820	4.0820	-0.7184	25.00	-0.08	-0.750			
0.0458	2933.35	4.0790	4.0790	-0.7210	24.99	-0.09	-0.750			
0.0480	3074.52	4.0760	4.0760	-0.7273	24.99	-0.09	-0.750			
0.0502	3215.51	4.0730	4.0730	-0.7352	24.99	-0.09	-0.750			
0.0524	3355.96	4.0700	4.0700	-0.7380	24.99	-0.09	-0.750			
0.0547	3498.83	4.0670	4.0669	-0.7403	24.99	-0.09	-0.750			
0.0569	3641.41	4.0640	4.0640	-0.7457	24.99	-0.09	-0.750			
0.0592	3786.25	4.0610	4.0610	-0.7402	24.99	-0.09	-0.750			
0.0614	3930.19	4.0580	4.0580	-0.7429	24.99	-0.09	-0.750			
0.0636	4070.69	4.0550	4.0552	-0.7502	24.99	-0.09	-0.750			
0.0658	4213.22	4.0520	4.0520	-0.7462	24.99	-0.09	-0.750			
0.0681	4356.43	4.0490	4.0488	-0.7558	24.99	-0.09	-0.750			
0.0703	4502.21	4.0460	4.0460	-0.7609	25.00	-0.08	-0.750			
0.0727	4650.14	4.0430	4.0432	-0.7704	25.00	-0.08	-0.750			
0.0750	4800.60	4.0400	4.0399	-0.7721	25.00	-0.08	-0.750			
0.0774	4956.12	4.0370	4.0368	-0.7392	25.00	-0.08	-0.750			
0.0796	5093.90	4.0340	4.0340	-0.7123	25.00	-0.08	-0.750			
0.0816	5225.33	4.0310	4.0315	-0.7056	25.00	-0.08	-0.750			
0.0836	5353.34	4.0280	4.0277	-0.6958	25.00	-0.08	-0.750			
0.0857	5481.66	4.0250	4.0246	-0.7009	25.00	-0.08	-0.750			
0.0877	5614.80	4.0220	4.0220	-0.7188	25.00	-0.08	-0.750			
0.0900	5758.98	4.0190	4.0190	-0.7424	25.00	-0.08	-0.750			
0.0923	5908.13	4.0160	4.0161	-0.7762	25.00	-0.08	-0.750			
0.0946	6057.52	4.0130	4.0129	-0.7796	25.00	-0.08	-0.750			
0.0970	6209.31	4.0100	4.0100	-0.7832	25.00	-0.08	-0.750			
0.0994	6361.84	4.0070	4.0067	-0.7863	25.00	-0.08	-0.750			
0.1018	6512.62	4.0040	4.0043	-0.7908	25.00	-0.08	-0.750			
0.1041	6662.19	4.0010	4.0010	-0.7992	25.00	-0.08	-0.750			
0.1065	6815.24	3.9980	3.9980	-0.8128	25.00	-0.08	-0.750			
0.1089	6970.83	3.9950	3.9949	-0.8160	25.00	-0.08	-0.750			
0.1115	7133.97	3.9920	3.9917	-0.8172	25.00	-0.08	-0.750			
0.1140	7295.22	3.9890	3.9895	-0.8208	25.00	-0.08	-0.750			
0.1164	7451.45	3.9860	3.9862	-0.8152	25.00	-0.08	-0.750			
0.1189	7607.27	3.9830	3.9828	-0.8045	25.00	-0.08	-0.750			
0.1212	7756.80	3.9800	3.9800	-0.7875	25.01	-0.07	-0.750			
0.1236	7907.85	3.9770	3.9770	-0.7947	25.01	-0.07	-0.750			
0.1260	8061.43	3.9740	3.9743	-0.8003	25.01	-0.07	-0.750			
0.1284	8215.43	3.9710	3.9710	-0.8067	25.01	-0.07	-0.750			
0.1308	8369.51	3.9680	3.9679	-0.8124	25.01	-0.07	-0.750			
0.1332	8527.78	3.9650	3.9649	-0.8154	25.01	-0.07	-0.750			
0.1358	8688.60	3.9620	3.9620	-0.8170	25.01	-0.07	-0.750			
0.1382	8844.02	3.9590	3.9594	-0.8167	25.01	-0.07	-0.750			
0.1406	8999.62	3.9560	3.9559	-0.8137	25.01	-0.07	-0.750			
0.1431	9156.11	3.9530	3.9530	-0.8275	25.01	-0.07	-0.750			
0.1455	9314.79	3.9500	3.9498	-0.8169	25.02	-0.06	-0.750			
0.1481	9476.06	3.9470	3.9469	-0.8252	25.02	-0.06	-0.750			
0.1505	9632.57	3.9440	3.9445	-0.8216	25.02	-0.06	-0.750			
0.1530	9792.12	3.9410	3.9408	-0.8221	25.02	-0.06	-0.750			
0.1554	9944.80	3.9380	3.9379	-0.8171	25.02	-0.06	-0.750			
0.1578	10096.47	3.9350	3.9350	-0.8155	25.02	-0.06	-0.750			
0.1603	10258.30	3.9320	3.9320	-0.8305	25.02	-0.06	-0.750			
0.1628	10418.89	3.9290	3.9290	-0.8351	25.02	-0.06	-0.750			
0.1653	10580.90	3.9260	3.9260	-0.8315	25.02	-0.06	-0.750			
0.1678	10739.19	3.9230	3.9230	-0.8381	25.03	-0.05	-0.750			
0.1703	10901.51	3.9200	3.9200	-0.8375	25.03	-0.05	-0.750			
0.1728	11060.82	3.9170	3.9168	-0.8384	25.03	-0.05	-0.750			
0.1754	11223.36	3.9140	3.9140	-0.8355	25.04	-0.04	-0.750			
0.1779	11384.26	3.9110	3.9109	-0.8379	25.04	-0.04	-0.750			
0.1804	11544.39	3.9080	3.9079	-0.8483	25.04	-0.04	-0.750			
0.1830	11710.22	3.9050	3.9049	-0.8467	25.04	-0.04	-0.750			
0.1855	11869.97	3.9020	3.9019	-0.8379	25.04	-0.04	-0.750			
0.1881	12036.27	3.8990	3.8995	-0.8471	25.04	-0.04	-0.750			
0.1906	12197.56	3.8960	3.8959	-0.8438	25.04	-0.04	-0.750			
0.1931	12359.86	3.8930	3.8929	-0.8460	25.05	-0.03	-0.750			
0.1956	12518.40	3.8900	3.8900	-0.8455	25.05	-0.03	-0.750			
0.1982	12682.75	3.8870	3.8869	-0.8532	25.06	-0.02	-0.750			
0.2007	12846.15	3.8840	3.8841	-0.8547	25.06	-0.02	-0.750			
0.2033	13011.88	3.8810	3.8809	-0.8510	25.06	-0.02	-0.750			
0.2058	13173.92	3.8780	3.8780	-0.8542	25.06	-0.02	-0.750			
0.2084	13335.19	3.8750	3.8750	-0.8548	25.07	-0.01	-0.750			
0.2110	13500.91	3.8720	3.8719	-0.8541	25.07	-0.01	-0.750			
0.2135	13664.95	3.8690	3.8693	-0.8531	25.07	-0.01	-0.750			
0.2161	13827.83	3.8660	3.8658	-0.8659	25.07	-0.01	-0.750			
0.2187	13993.87	3.8630	3.8634	-0.8682	25.08	-0.00	-0.750			
0.2213	14162.59	3.8600	3.8597	-0.8751	25.08	0.00	-0.750			
0.2240	14333.20	3.8570	3.8570	-0.8747	25.09	0.01	-0.750			
0.2266	14503.36	3.8540	3.8542	-0.8674	25.09	0.01	-0.750			
0.2292	14670.09	3.8510	3.8511	-0.8694	25.09	0.01	-0.750			
0.2318	14837.06	3.8480	3.8479	-0.8464	25.09	0.01	-0.750			
0.2343	14995.05	3.8450	3.8450	-0.8185	25.10	0.02	-0.750			
0.2367	15151.73	3.8420	3.8420	-0.8094	25.10	0.02	-0.750			
0.2391	15303.67	3.8390	3.8391	-0.8015	25.10	0.02	-0.750			
0.2415	15455.15	3.8360	3.8359	-0.8023	25.10	0.02	-0.750			
0.2439	15607.92	3.8330	3.8329	-0.8178	25.10	0.02	-0.750			
0.2464	15767.43	3.8300	3.8300	-0.8253	25.11	0.03	-0.750			
0.2489	15931.75	3.8270	3.8268	-0.8329	25.11	0.03	-0.750			
0.2515	16094.31	3.8240	3.8243	-0.8360	25.11	0.03	-0.750			
0.2539	16249.36	3.8210	3.8210	-0.8428	25.11	0.03	-0.750			
0.2565	16413.81	3.8180	3.8178	-0.8326	25.11	0.03	-0.750			
0.2589	16569.62	3.8150	3.8148	-0.8128	25.12	0.04	-0.750			
0.2614	16732.05	3.8120	3.8119	-0.8164	25.12	0.04	-0.750			
0.2639	16889.31	3.8090	3.8093	-0.8102	25.12	0.04	-0.750			
0.2663	17040.20	3.8060	3.8059	-0.8029	25.12	0.04	-0.750			
0.2686	17188.75	3.8030	3.8029	-0.7909	25.13	0.05	-0.750			
0.2709	17337.08	3.8000	3.8000	-0.7824	25.13	0.05	-0.750			
0.2734	17496.14	3.7970	3.7970	-0.8005	25.14	0.06	-0.750			
0.2758	17651.30	3.7940	3.7942	-0.8003	25.14	0.06	-0.750			
0.2782	17804.61	3.7910	3.7910	-0.7954	25.15	0.07	-0.750			
0.2806	17956.68	3.7880	3.7880	-0.7877	25.15	0.07	-0.750			
0.2829	18107.26	3.7850	3.7849	-0.7794	25.16	0.08	-0.750			
0.2852	18254.52	3.7820	3.7820	-0.7796	25.16	0.08	-0.750			
0.2876	18403.51	3.7790	3.7790	-0.7797	25.17	0.09	-0.750			
0.2899	18554.34	3.7760	3.7758	-0.7801	25.17	0.09	-0.750			
0.2922	18701.40	3.7730	3.7731	-0.7858	25.17	0.09	-0.750			
0.2946	18854.03	3.7700	3.7700	-0.7824	25.17	0.09	-0.750			
0.2969	19004.33	3.7670	3.7670	-0.7847	25.17	0.09	-0.750			
0.2993	19155.64	3.7640	3.7639	-0.7887	25.17	0.09	-0.750			
0.3017	19305.76	3.7610	3.7608	-0.7888	25.17	0.09	-0.750			
0.3040	19457.21	3.7580	3.7580	-0.7941	25.17	0.09	-0.750			
0.3064	19610.22	3.7550	3.7550	-0.8006	25.17	0.09	-0.750			
0.3088	19762.93	3.7520	3.7521	-0.8014	25.17	0.09	-0.750			
0.3113	19920.30	3.7490	3.7488	-0.8160	25.17	0.09	-0.750			
0.3137	20075.24	3.7460	3.7462	-0.8211	25.17	0.09	-0.750			
0.3162	20234.56	3.7430	3.7429	-0.8262	25.17	0.09	-0.750			
0.3187	20396.95	3.7400	3.7399	-0.8459	25.17	0.09	-0.750			
0.3212	20559.54	3.7370	3.7369	-0.8596	25.18	0.10	-0.750			
0.3238	20725.69	3.7340	3.7339	-0.8714	25.18	0.10	-0.750			
0.3265	20894.98	3.7310	3.7313	-0.8814	25.18	0.10	-0.750			
0.3291	21064.83	3.7280	3.7278	-0.8945	25.18	0.10	-0.750			
0.3319	21238.46	3.7250	3.7250	-0.9024	25.18	0.10	-0.750			
0.3345	21410.40	3.7220	3.7220	-0.8965	25.18	0.10	-0.750			
0.3373	21586.69	3.7190	3.7189	-0.9227	25.18	0.10	-0.750			
0.3400	21761.20	3.7160	3.7160	-0.9342	25.18	0.10	-0.750			
0.3429	21942.65	3.7130	3.7128	-0.9556	25.18	0.10	-0.750			
0.3457	22124.20	3.7100	3.7100	-0.9812	25.17	0.09	-0.750			
0.3488	22320.30	3.7070	3.7070	-0.9909	25.17	0.09	-0.750			
0.3518	22514.33	3.7040	3.7040	-1.0311	25.17	0.09	-0.750			
0.3550	22717.55	3.7010	3.7009	-1.0345	25.16	0.08	-0.750			
0.3581	22915.84	3.6980	3.6980	-1.0381	25.16	0.08	-0.750	0.400	0.536	
0.3612	23114.65	3.6950	3.6947	-1.0529	25.15	0.07	-0.750			
0.3643	23318.12	3.6920	3.6921	-1.0747	25.15	0.07	-0.750			
0.3676	23523.70	3.6890	3.6888	-1.0859	25.15	0.07	-0.750			
0.3709	23737.01	3.6860	3.6859	-1.1121	25.14	0.06	-0.750			
0.3743	23953.17	3.6830	3.6831	-1.1327	25.14	0.06	-0.750			
0.3777	24172.20	3.6800	3.6797	-1.1547	25.14	0.06	-0.750			
0.3812	24395.96	3.6770	3.6768	-1.1575	25.13	0.05	-0.750			
0.3846	24617.33	3.6740	3.6741	-1.1645	25.13	0.05	-0.750			
0.3880	24834.88	3.6710	3.6713	-1.1940	25.12	0.04	-0.750			
0.3918	25074.32	3.6680	3.6678	-1.2250	25.11	0.03	-0.750			
0.3955	25314.34	3.6650	3.6649	-1.2361	25.11	0.03	-0.750			
0.3992	25549.06	3.6620	3.6619	-1.2869	25.10	0.02	-0.750			
0.4032	25802.13	3.6590	3.6590	-1.3284	25.10	0.02	-0.750			
0.4073	26066.11	3.6560	3.6557	-1.3536	25.09	0.01	-0.750			
0.4113	26325.99	3.6530	3.6529	-1.3757	25.08	0.00	-0.750			
0.4156	26595.69	3.6500	3.6499	-1.4041	25.08	-0.00	-0.750			
0.4199	26871.22	3.6470	3.6469	-1.4091	25.07	-0.01	-0.750			
0.4240	27139.15	3.6440	3.6439	-1.4291	25.06	-0.02	-0.750			
0.4282	27404.09	3.6410	3.6409	-1.4170	25.06	-0.02	-0.750			
0.4325	27683.10	3.6380	3.6379	-1.4612	25.05	-0.03	-0.750			
0.4370	27968.25	3.6350	3.6349	-1.5044	25.04	-0.04	-0.750			
0.4416	28262.28	3.6320	3.6318	-1.5246	25.03	-0.05	-0.750			
0.4464	28568.57	3.6290	3.6285	-1.5684	25.03	-0.05	-0.750			
0.4511	28868.28	3.6260	3.6267	-1.5985	25.02	-0.06	-0.750			
0.4558	29168.92	3.6230	3.6232	-1.6183	25.01	-0.07	-0.750			
0.4608	29493.14	3.6200	3.6198	-1.6260	25.00	-0.08	-0.750			
0.4655	29793.52	3.6170	3.6170	-1.6501	25.00	-0.08	-0.750			
0.4707	30124.63	3.6140	3.6140	-1.7186	25.00	-0.08	-0.750			
0.4759	30460.21	3.6110	3.6116	-1.7511	25.00	-0.08	-0.750			
0.4813	30802.97	3.6080	3.6084	-1.8118	24.99	-0.09	-0.750			
0.4868	31158.31	3.6050	3.6048	-1.8409	24.98	-0.10	-0.750			
0.4926	31529.08	3.6020	3.6023	-1.9103	24.97	-0.11	-0.750			
0.4982	31885.71	3.5990	3.5995	-1.9340	24.96	-0.12	-0.750			
0.5041	32260.59	3.5960	3.5965	-1.9427	24.95	-0.13	-0.750			
0.5101	32646.90	3.5930	3.5931	-1.9840	24.95	-0.13	-0.750			
0.5161	33032.34	3.5900	3.5897	-2.0067	24.94	-0.14	-0.750			
0.5221	33415.83	3.5870	3.5867	-2.0514	24.94	-0.14	-0.750			
0.5282	33803.14	3.5840	3.5837	-2.0687	24.94	-0.14	-0.750			
0.5344	34202.59	3.5810	3.5808	-2.1419	24.93	-0.15	-0.750			
0.5408	34612.68	3.5780	3.5784	-2.1385	24.92	-0.16	-0.750			
0.5475	35037.77	3.5750	3.5752	-2.1786	24.92	-0.16	-0.750			
0.5540	35454.46	3.5720	3.5717	-2.2386	24.92	-0.16	-0.750			
0.5607	35884.30	3.5690	3.5690	-2.1851	24.93	-0.15	-0.750			
0.5671	36291.39	3.5660	3.5661	-2.2298	24.93	-0.15	-0.750			
0.5737	36717.44	3.5630	3.5630	-2.2082	24.93	-0.15	-0.750			
0.5800	37116.88	3.5600	3.5601	-2.2131	24.93	-0.15	-0.750			
0.5871	37575.63	3.5570	3.5563	-2.3305	24.92	-0.16	-0.750			
0.5939	38007.16	3.5540	3.5544	-2.2251	24.92	-0.16	-0.750			
0.6004	38428.46	3.5510	3.5516	-2.1695	24.92	-0.16	-0.750			
0.6069	38839.03	3.5480	3.5477	-2.1592	24.92	-0.16	-0.750			
0.6129	39224.70	3.5450	3.5446	-2.0722	24.92	-0.16	-0.750			
0.6190	39618.50	3.5420	3.5417	-2.0737	24.93	-0.15	-0.750			
0.6257	40041.86	3.5390	3.5391	-2.0550	24.94	-0.14	-0.750			
0.6317	40427.38	3.5360	3.5363	-2.0049	24.95	-0.13	-0.750			
0.6376	40803.62	3.5330	3.5335	-1.9410	24.96	-0.12	-0.750			
0.6435	41182.54	3.5300	3.5300	-1.9081	24.97	-0.11	-0.750			
0.6490	41537.15	3.5270	3.5275	-1.8705	24.98	-0.10	-0.750			
0.6545	41887.44	3.5240	3.5243	-1.8256	24.99	-0.09	-0.750			
0.6600	42242.82	3.5210	3.5209	-1.7897	25.00	-0.08	-0.750			
0.6652	42573.98	3.5180	3.5176	-1.7242	25.01	-0.07	-0.750			
0.6703	42900.12	3.5150	3.5146	-1.6837	25.03	-0.05	-0.750			
0.6754	43224.56	3.5120	3.5118	-1.6360	25.04	-0.04	-0.750			
0.6800	43522.56	3.5090	3.5085	-1.5679	25.05	-0.03	-0.750			
0.6845	43810.09	3.5060	3.5063	-1.5489	25.07	-0.01	-0.750			
0.6892	44110.06	3.5030	3.5032	-1.5054	25.08	0.00	-0.750			
0.6939	44410.98	3.5000	3.4998	-1.4986	25.10	0.02	-0.750			
0.6982	44681.63	3.4970	3.4969	-1.4627	25.12	0.04	-0.750			
0.7026	44966.34	3.4940	3.4938	-1.4631	25.14	0.06	-0.750			
0.7070	45246.96	3.4910	3.4908	-1.4511	25.15	0.07	-0.750			
0.7113	45524.72	3.4880	3.4877	-1.4701	25.17	0.09	-0.750			
