Ah_balance (normalized)	Ah_balance (mAh)	Voltage - fit (V)	Voltage -  interpolate (V)	dQ/dV (1/V)	Temperature (°C)	Temperature - diff (°C)	Current (C)	R_DC 0ms (mOhm)	R_DC 50ms (mOhm)	R_DC 50 ms PEC (mOhm)
0.0489	3131.77	4.1970	4.1970	0.7381	25.48	0.49	0.750			
0.0512	3274.99	4.1940	4.1940	0.7478	25.48	0.49	0.750			
0.0534	3418.74	4.1910	4.1910	0.7533	25.48	0.49	0.750			
0.0557	3564.46	4.1880	4.1880	0.7573	25.48	0.49	0.750			
0.0580	3711.20	4.1850	4.1851	0.7613	25.48	0.49	0.750			
0.0603	3856.11	4.1820	4.1820	0.7537	25.48	0.49	0.750			
0.0625	3999.68	4.1790	4.1791	0.7545	25.48	0.49	0.750			
0.0647	4143.45	4.1760	4.1760	0.7564	25.48	0.49	0.750			
0.0670	4288.43	4.1730	4.1731	0.7609	25.48	0.49	0.750			
0.0693	4436.15	4.1700	4.1700	0.7602	25.48	0.49	0.750			
0.0716	4583.49	4.1670	4.1671	0.7643	25.48	0.49	0.750			
0.0740	4733.56	4.1640	4.1640	0.7767	25.49	0.50	0.750			
0.0762	4877.90	4.1610	4.1611	0.7673	25.49	0.50	0.750			
0.0785	5025.02	4.1580	4.1579	0.7670	25.49	0.50	0.750			
0.0808	5172.19	4.1550	4.1550	0.7716	25.49	0.50	0.750			
0.0832	5322.30	4.1520	4.1520	0.7703	25.49	0.50	0.750			
0.0855	5470.61	4.1490	4.1490	0.7736	25.48	0.49	0.750			
0.0878	5619.33	4.1460	4.1460	0.7704	25.48	0.49	0.750			
0.0901	5766.43	4.1430	4.1428	0.7711	25.48	0.49	0.750			
0.0924	5914.11	4.1400	4.1400	0.7710	25.48	0.49	0.750			
0.0947	6063.31	4.1370	4.1370	0.7708	25.48	0.49	0.750			
0.0970	6209.64	4.1340	4.1341	0.7746	25.48	0.49	0.750			
0.0994	6359.37	4.1310	4.1310	0.7824	25.48	0.49	0.750			
0.1017	6509.12	4.1280	4.1280	0.7807	25.48	0.49	0.750			
0.1041	6659.99	4.1250	4.1251	0.7825	25.48	0.49	0.750			
0.1064	6809.90	4.1220	4.1221	0.7839	25.48	0.49	0.750			
0.1088	6962.17	4.1190	4.1190	0.7791	25.48	0.49	0.750			
0.1111	7110.23	4.1160	4.1160	0.7805	25.48	0.49	0.750			
0.1134	7257.79	4.1130	4.1131	0.7801	25.48	0.49	0.750			
0.1157	7406.86	4.1100	4.1097	0.7845	25.48	0.49	0.750			
0.1181	7559.54	4.1070	4.1070	0.7901	25.48	0.49	0.750			
0.1205	7711.52	4.1040	4.1041	0.7911	25.48	0.49	0.750			
0.1229	7864.70	4.1010	4.1010	0.7957	25.48	0.49	0.750			
0.1253	8018.01	4.0980	4.0981	0.7939	25.48	0.49	0.750			
0.1277	8170.06	4.0950	4.0949	0.7966	25.48	0.49	0.750			
0.1300	8322.19	4.0920	4.0920	0.7980	25.48	0.49	0.750			
0.1325	8477.79	4.0890	4.0890	0.7935	25.48	0.49	0.750			
0.1349	8630.77	4.0860	4.0860	0.7973	25.49	0.50	0.750			
0.1372	8782.38	4.0830	4.0831	0.7979	25.49	0.50	0.750			
0.1396	8934.36	4.0800	4.0800	0.7979	25.49	0.50	0.750			
0.1420	9087.36	4.0770	4.0770	0.8025	25.49	0.50	0.750			
0.1444	9241.04	4.0740	4.0740	0.8030	25.49	0.50	0.750			
0.1468	9396.01	4.0710	4.0711	0.8103	25.50	0.51	0.750			
0.1493	9554.27	4.0680	4.0680	0.8177	25.50	0.51	0.750			
0.1517	9709.64	4.0650	4.0651	0.8171	25.50	0.51	0.750			
0.1542	9866.19	4.0620	4.0620	0.8239	25.50	0.51	0.750			
0.1567	10025.89	4.0590	4.0590	0.8254	25.50	0.51	0.750			
0.1591	10185.00	4.0560	4.0560	0.8276	25.50	0.51	0.750			
0.1616	10344.80	4.0530	4.0530	0.8314	25.50	0.51	0.750			
0.1641	10503.78	4.0500	4.0502	0.8315	25.50	0.51	0.750			
0.1666	10664.29	4.0470	4.0470	0.8335	25.50	0.51	0.750			
0.1692	10825.89	4.0440	4.0440	0.8258	25.50	0.51	0.750			
0.1716	10981.86	4.0410	4.0410	0.8306	25.50	0.51	0.750			
0.1741	11141.85	4.0380	4.0381	0.8372	25.51	0.52	0.750			
0.1766	11301.47	4.0350	4.0351	0.8410	25.51	0.52	0.750			
0.1791	11463.05	4.0320	4.0320	0.8422	25.51	0.52	0.750			
0.1817	11628.38	4.0290	4.0291	0.8331	25.51	0.52	0.750			
0.1842	11789.57	4.0260	4.0260	0.8359	25.51	0.52	0.750			
0.1867	11947.51	4.0230	4.0231	0.8423	25.51	0.52	0.750			
0.1892	12106.89	4.0200	4.0201	0.8423	25.51	0.52	0.750			
0.1917	12267.95	4.0170	4.0170	0.8473	25.51	0.52	0.750			
0.1943	12432.23	4.0140	4.0140	0.8510	25.51	0.52	0.750			
0.1968	12597.28	4.0110	4.0112	0.8651	25.51	0.52	0.750			
0.1995	12766.13	4.0080	4.0080	0.8687	25.51	0.52	0.750			
0.2021	12933.15	4.0050	4.0049	0.8681	25.51	0.52	0.750			
0.2047	13099.65	4.0020	4.0020	0.8704	25.51	0.52	0.750			
0.2073	13267.67	3.9990	3.9992	0.8692	25.51	0.52	0.750			
0.2099	13434.83	3.9960	3.9960	0.8714	25.52	0.53	0.750			
0.2125	13600.78	3.9930	3.9930	0.8718	25.52	0.53	0.750			
0.2151	13768.25	3.9900	3.9897	0.8766	25.52	0.53	0.750			
0.2178	13938.98	3.9870	3.9870	0.8799	25.52	0.53	0.750			
0.2204	14107.16	3.9840	3.9841	0.8805	25.52	0.53	0.750			
0.2231	14278.01	3.9810	3.9811	0.8848	25.52	0.53	0.750			
0.2258	14448.80	3.9780	3.9780	0.8867	25.52	0.53	0.750			
0.2284	14615.85	3.9750	3.9751	0.8833	25.52	0.53	0.750			
0.2310	14785.77	3.9720	3.9720	0.8837	25.52	0.53	0.750			
0.2337	14955.44	3.9690	3.9690	0.8886	25.52	0.53	0.750			
0.2364	15127.06	3.9660	3.9660	0.8929	25.53	0.54	0.750			
0.2390	15297.95	3.9630	3.9631	0.8946	25.53	0.54	0.750			
0.2417	15470.24	3.9600	3.9599	0.9002	25.53	0.54	0.750			
0.2444	15644.15	3.9570	3.9571	0.8978	25.53	0.54	0.750			
0.2471	15817.18	3.9540	3.9540	0.8973	25.53	0.54	0.750			
0.2498	15989.93	3.9510	3.9511	0.8990	25.53	0.54	0.750			
0.2525	16161.29	3.9480	3.9478	0.8959	25.53	0.54	0.750			
0.2552	16334.36	3.9450	3.9450	0.8922	25.53	0.54	0.750			
0.2579	16504.24	3.9420	3.9420	0.8921	25.53	0.54	0.750			
0.2605	16673.90	3.9390	3.9391	0.8994	25.53	0.54	0.750			
0.2632	16847.89	3.9360	3.9361	0.9097	25.53	0.54	0.750			
0.2660	17022.36	3.9330	3.9327	0.9110	25.53	0.54	0.750			
0.2687	17198.90	3.9300	3.9300	0.9103	25.53	0.54	0.750			
0.2715	17374.04	3.9270	3.9271	0.9133	25.53	0.54	0.750			
0.2742	17549.98	3.9240	3.9241	0.9144	25.52	0.53	0.750			
0.2770	17725.07	3.9210	3.9210	0.9095	25.52	0.53	0.750			
0.2797	17899.13	3.9180	3.9179	0.9085	25.52	0.53	0.750			
0.2824	18073.15	3.9150	3.9151	0.9038	25.52	0.53	0.750			
0.2851	18246.72	3.9120	3.9120	0.9073	25.51	0.52	0.750			
0.2878	18422.11	3.9090	3.9090	0.9088	25.51	0.52	0.750			
0.2906	18595.43	3.9060	3.9057	0.9053	25.51	0.52	0.750			
0.2932	18767.70	3.9030	3.9031	0.9077	25.50	0.51	0.750			
0.2960	18943.02	3.9000	3.9001	0.9111	25.50	0.51	0.750			
0.2987	19118.84	3.8970	3.8970	0.9159	25.49	0.50	0.750			
0.3015	19293.70	3.8940	3.8939	0.9152	25.48	0.49	0.750			
0.3042	19470.76	3.8910	3.8911	0.9185	25.48	0.49	0.750			
0.3070	19649.00	3.8880	3.8879	0.9173	25.48	0.49	0.750			
0.3098	19825.17	3.8850	3.8850	0.9135	25.47	0.48	0.750			
0.3125	19998.57	3.8820	3.8821	0.9114	25.47	0.48	0.750			
0.3152	20173.69	3.8790	3.8788	0.9115	25.47	0.48	0.750			
0.3180	20349.01	3.8760	3.8760	0.9061	25.46	0.47	0.750			
0.3207	20521.85	3.8730	3.8730	0.9093	25.46	0.47	0.750			
0.3234	20696.81	3.8700	3.8701	0.9151	25.45	0.46	0.750			
0.3262	20874.13	3.8670	3.8670	0.9137	25.44	0.45	0.750			
0.3289	21048.94	3.8640	3.8641	0.9127	25.44	0.45	0.750			
0.3317	21226.10	3.8610	3.8611	0.8984	25.43	0.44	0.750			
0.3343	21396.50	3.8580	3.8580	0.9106	25.42	0.43	0.750			
0.3370	21570.89	3.8550	3.8550	0.9149	25.41	0.42	0.750			
0.3397	21743.74	3.8520	3.8519	0.9161	25.40	0.41	0.750			
0.3426	21926.45	3.8490	3.8491	0.9017	25.39	0.40	0.750			
0.3453	22098.40	3.8460	3.8461	0.9242	25.39	0.40	0.750			
0.3480	22274.34	3.8430	3.8431	0.9341	25.38	0.39	0.750			
0.3509	22454.41	3.8400	3.8400	0.9501	25.38	0.39	0.750			
0.3537	22634.40	3.8370	3.8371	0.9499	25.37	0.38	0.750	0.302	0.430	
0.3566	22820.60	3.8340	3.8343	0.9569	25.36	0.37	0.750			
0.3595	23007.81	3.8310	3.8312	0.9686	25.35	0.36	0.750			
0.3624	23196.36	3.8280	3.8280	0.9780	25.34	0.35	0.750			
0.3653	23380.57	3.8250	3.8247	0.9667	25.33	0.34	0.750			
0.3682	23567.89	3.8220	3.8221	0.9702	25.32	0.33	0.750			
0.3712	23753.68	3.8190	3.8191	0.9839	25.31	0.32	0.750			
0.3741	23945.44	3.8160	3.8161	1.0005	25.30	0.31	0.750			
0.3771	24136.67	3.8130	3.8128	1.0045	25.28	0.29	0.750			
0.3802	24332.32	3.8100	3.8100	1.0071	25.27	0.28	0.750			
0.3832	24526.65	3.8070	3.8071	1.0173	25.27	0.28	0.750			
0.3863	24723.56	3.8040	3.8041	1.0315	25.26	0.27	0.750			
0.3894	24923.80	3.8010	3.8009	1.0429	25.25	0.26	0.750			
0.3926	25127.73	3.7980	3.7979	1.0189	25.24	0.25	0.750			
0.3956	25318.84	3.7950	3.7951	1.0439	25.23	0.24	0.750			
0.3987	25517.69	3.7920	3.7922	1.0710	25.22	0.23	0.750			
0.4019	25724.42	3.7890	3.7891	1.0971	25.20	0.21	0.750			
0.4053	25936.06	3.7860	3.7862	1.1041	25.19	0.20	0.750			
0.4086	26148.72	3.7830	3.7833	1.1312	25.19	0.20	0.750			
0.4121	26371.59	3.7800	3.7802	1.1608	25.18	0.19	0.750			
0.4157	26603.41	3.7770	3.7765	1.1646	25.17	0.18	0.750			
0.4191	26823.02	3.7740	3.7740	1.1656	25.16	0.17	0.750			
0.4226	27048.26	3.7710	3.7713	1.1922	25.14	0.15	0.750			
0.4262	27279.18	3.7680	3.7682	1.2186	25.13	0.14	0.750			
0.4299	27512.96	3.7650	3.7651	1.2148	25.11	0.12	0.750			
0.4335	27740.85	3.7620	3.7621	1.2426	25.10	0.11	0.750			
0.4373	27985.35	3.7590	3.7593	1.2816	25.09	0.10	0.750			
0.4412	28236.40	3.7560	3.7553	1.3385	25.08	0.09	0.750			
0.4453	28500.74	3.7530	3.7531	1.3511	25.06	0.07	0.750			
0.4494	28762.94	3.7500	3.7502	1.3946	25.05	0.06	0.750			
0.4538	29044.80	3.7470	3.7468	1.4265	25.04	0.05	0.750			
0.4581	29318.81	3.7440	3.7442	1.4333	25.03	0.04	0.750			
0.4625	29597.45	3.7410	3.7411	1.4802	25.02	0.03	0.750			
0.4670	29886.15	3.7380	3.7383	1.5205	25.01	0.02	0.750			
0.4715	30173.04	3.7350	3.7353	1.5825	25.00	0.01	0.750			
0.4764	30492.05	3.7320	3.7323	1.6261	24.98	-0.01	0.750			
0.4812	30795.19	3.7290	3.7289	1.7064	24.97	-0.02	0.750			
0.4866	31142.48	3.7260	3.7260	1.7230	24.95	-0.04	0.750			
0.4918	31474.07	3.7230	3.7230	1.7688	24.94	-0.05	0.750			
0.4972	31821.80	3.7200	3.7196	1.8301	24.92	-0.07	0.750			
0.5026	32166.28	3.7170	3.7172	1.8275	24.90	-0.09	0.750			
0.5081	32518.26	3.7140	3.7144	1.8870	24.89	-0.10	0.750			
0.5136	32872.34	3.7110	3.7116	1.9301	24.88	-0.11	0.750			
0.5196	33253.68	3.7080	3.7084	1.9892	24.87	-0.12	0.750			
0.5257	33644.40	3.7050	3.7055	2.0501	24.86	-0.13	0.750			
0.5322	34062.17	3.7020	3.7025	2.1846	24.84	-0.15	0.750			
0.5389	34489.36	3.6990	3.6991	2.1920	24.83	-0.16	0.750			
0.5456	34917.24	3.6960	3.6962	2.2474	24.82	-0.17	0.750			
0.5522	35339.91	3.6930	3.6930	2.2438	24.81	-0.18	0.750			
0.5590	35773.82	3.6900	3.6899	2.3150	24.81	-0.18	0.750			
0.5662	36239.46	3.6870	3.6868	2.4080	24.80	-0.19	0.750			
0.5737	36716.65	3.6840	3.6838	2.6084	24.79	-0.20	0.750			
0.5815	37218.75	3.6810	3.6813	2.5880	24.78	-0.21	0.750			
0.5894	37719.95	3.6780	3.6779	2.5589	24.78	-0.21	0.750			
0.5969	38201.58	3.6750	3.6755	2.6598	24.78	-0.21	0.750			
0.6048	38705.21	3.6720	3.6717	2.6446	24.78	-0.21	0.750			
0.6126	39203.69	3.6690	3.6691	2.4645	24.78	-0.21	0.750			
0.6199	39674.27	3.6660	3.6661	2.3200	24.79	-0.20	0.750			
0.6267	40107.69	3.6630	3.6632	2.1715	24.80	-0.19	0.750			
0.6328	40499.43	3.6600	3.6605	2.0006	24.81	-0.18	0.750			
0.6386	40869.02	3.6570	3.6572	1.8848	24.82	-0.17	0.750			
0.6436	41189.28	3.6540	3.6533	1.6872	24.82	-0.17	0.750			
0.6485	41505.67	3.6510	3.6504	1.5757	24.83	-0.16	0.750			
0.6532	41802.88	3.6480	3.6478	1.4430	24.84	-0.15	0.750			
0.6572	42060.82	3.6450	3.6454	1.3412	24.85	-0.14	0.750			
0.6611	42311.23	3.6420	3.6422	1.2441	24.87	-0.12	0.750			
0.6646	42533.57	3.6390	3.6391	1.1451	24.88	-0.11	0.750			
0.6679	42743.28	3.6360	3.6361	1.0653	24.88	-0.11	0.750			
0.6709	42940.05	3.6330	3.6332	1.0245	24.89	-0.10	0.750			
0.6740	43132.89	3.6300	3.6301	0.9929	24.89	-0.10	0.750			
0.6769	43319.53	3.6270	3.6270	0.9455	24.90	-0.09	0.750			
0.6796	43497.22	3.6240	3.6240	0.9169	24.91	-0.08	0.750			
0.6824	43672.33	3.6210	3.6211	0.8874	24.91	-0.08	0.750			
0.6850	43841.16	3.6180	3.6180	0.8555	24.92	-0.07	0.750			
0.6876	44006.65	3.6150	3.6150	0.8179	24.93	-0.06	0.750			
0.6900	44157.39	3.6120	3.6119	0.7632	24.94	-0.05	0.750			
0.6922	44301.24	3.6090	3.6090	0.7066	24.95	-0.04	0.750			
0.6943	44433.16	3.6060	3.6060	0.6489	24.96	-0.03	0.750			
0.6961	44550.77	3.6030	3.6031	0.5872	24.96	-0.03	0.750			
0.6978	44657.67	3.6000	3.5999	0.5273	24.97	-0.02	0.750			
0.6992	44751.57	3.5970	3.5970	0.4659	24.98	-0.01	0.750			
0.7005	44834.60	3.5940	3.5939	0.4161	24.98	-0.01	0.750			
0.7017	44908.03	3.5910	3.5911	0.3672	24.98	-0.01	0.750			
0.7027	44975.50	3.5880	3.5881	0.3176	24.99	-0.00	0.750			
0.7036	45031.58	3.5850	3.5852	0.2675	24.99	0.00	0.750			
0.7044	45078.69	3.5820	3.5821	0.2175	25.00	0.01	0.750			
0.7050	45117.41	3.5790	3.5793	0.1654	25.00	0.01	0.750			
0.7054	45146.72	3.5760	3.5761	0.0971	25.00	0.01	0.750			
0.7056	45158.52	3.5730	3.5736	0.0355	25.00	0.01	0.750			
