Ah_balance (normalized)	Ah_balance (mAh)	Voltage - fit (V)	Voltage -  interpolate (V)	dQ/dV (1/V)	Temperature (°C)	Temperature - diff (°C)	Current (C)	R_DC 0ms (mOhm)	R_DC 50ms (mOhm)	R_DC 50 ms PEC (mOhm)
0.0472	3021.93	4.1980	4.1979	0.7765	25.15	0.39	0.750			
0.0495	3170.20	4.1950	4.1951	0.7699	25.15	0.39	0.750			
0.0519	3319.63	4.1920	4.1920	0.7664	25.16	0.40	0.750			
0.0541	3463.90	4.1890	4.1889	0.7622	25.16	0.40	0.750			
0.0564	3608.59	4.1860	4.1861	0.7600	25.16	0.40	0.750			
0.0587	3754.44	4.1830	4.1831	0.7656	25.17	0.41	0.750			
0.0610	3901.42	4.1800	4.1800	0.7690	25.17	0.41	0.750			
0.0633	4050.78	4.1770	4.1770	0.7713	25.17	0.41	0.750			
0.0656	4199.67	4.1740	4.1741	0.7673	25.17	0.41	0.750			
0.0679	4346.09	4.1710	4.1710	0.7707	25.17	0.41	0.750			
0.0702	4493.35	4.1680	4.1681	0.7712	25.17	0.41	0.750			
0.0725	4640.57	4.1650	4.1644	0.7731	25.17	0.41	0.750			
0.0748	4789.36	4.1620	4.1621	0.7746	25.17	0.41	0.750			
0.0772	4939.89	4.1590	4.1591	0.7787	25.17	0.41	0.750			
0.0795	5090.46	4.1560	4.1560	0.7816	25.17	0.41	0.750			
0.0819	5243.32	4.1530	4.1529	0.7827	25.17	0.41	0.750			
0.0842	5389.38	4.1500	4.1500	0.7759	25.17	0.41	0.750			
0.0865	5538.97	4.1470	4.1470	0.7800	25.17	0.41	0.750			
0.0889	5688.79	4.1440	4.1441	0.7828	25.17	0.41	0.750			
0.0912	5839.76	4.1410	4.1410	0.7770	25.17	0.41	0.750			
0.0935	5986.99	4.1380	4.1380	0.7805	25.18	0.42	0.750			
0.0959	6136.24	4.1350	4.1351	0.7846	25.18	0.42	0.750			
0.0982	6287.05	4.1320	4.1321	0.7890	25.18	0.42	0.750			
0.1006	6438.48	4.1290	4.1290	0.7943	25.18	0.42	0.750			
0.1030	6594.57	4.1260	4.1260	0.7886	25.18	0.42	0.750			
0.1054	6744.84	4.1230	4.1231	0.7948	25.18	0.42	0.750			
0.1078	6896.28	4.1200	4.1202	0.7937	25.18	0.42	0.750			
0.1101	7048.46	4.1170	4.1163	0.7960	25.18	0.42	0.750			
0.1125	7201.09	4.1140	4.1142	0.7998	25.18	0.42	0.750			
0.1149	7355.98	4.1110	4.1111	0.8065	25.18	0.42	0.750			
0.1174	7513.70	4.1080	4.1080	0.8135	25.19	0.43	0.750			
0.1198	7669.32	4.1050	4.1050	0.8059	25.19	0.43	0.750			
0.1223	7824.59	4.1020	4.1020	0.8087	25.19	0.43	0.750			
0.1247	7981.37	4.0990	4.0990	0.8091	25.19	0.43	0.750			
0.1272	8137.75	4.0960	4.0960	0.8044	25.19	0.43	0.750			
0.1295	8290.86	4.0930	4.0930	0.8046	25.20	0.44	0.750			
0.1319	8444.02	4.0900	4.0900	0.8064	25.20	0.44	0.750			
0.1344	8598.67	4.0870	4.0869	0.8087	25.20	0.44	0.750			
0.1368	8753.80	4.0840	4.0840	0.8132	25.20	0.44	0.750			
0.1393	8914.33	4.0810	4.0810	0.8068	25.21	0.45	0.750			
0.1417	9068.32	4.0780	4.0780	0.8146	25.21	0.45	0.750			
0.1441	9223.75	4.0750	4.0751	0.8231	25.21	0.45	0.750			
0.1466	9380.50	4.0720	4.0721	0.8270	25.22	0.46	0.750			
0.1491	9539.43	4.0690	4.0692	0.8296	25.22	0.46	0.750			
0.1516	9700.48	4.0660	4.0661	0.8331	25.22	0.46	0.750			
0.1541	9862.41	4.0630	4.0630	0.8370	25.23	0.47	0.750			
0.1566	10023.72	4.0600	4.0600	0.8425	25.23	0.47	0.750			
0.1591	10184.39	4.0570	4.0570	0.8380	25.23	0.47	0.750			
0.1616	10345.28	4.0540	4.0541	0.8404	25.23	0.47	0.750			
0.1642	10509.44	4.0510	4.0510	0.8356	25.24	0.48	0.750			
0.1667	10669.49	4.0480	4.0481	0.8423	25.24	0.48	0.750			
0.1692	10830.64	4.0450	4.0450	0.8470	25.24	0.48	0.750			
0.1718	10992.54	4.0420	4.0420	0.8509	25.25	0.49	0.750			
0.1743	11155.14	4.0390	4.0391	0.8556	25.25	0.49	0.750			
0.1769	11322.54	4.0360	4.0360	0.8554	25.25	0.49	0.750			
0.1795	11486.26	4.0330	4.0330	0.8631	25.25	0.49	0.750			
0.1821	11653.49	4.0300	4.0301	0.8716	25.25	0.49	0.750			
0.1847	11818.72	4.0270	4.0268	0.8705	25.25	0.49	0.750			
0.1873	11987.29	4.0240	4.0240	0.8712	25.25	0.49	0.750			
0.1899	12155.04	4.0210	4.0211	0.8732	25.26	0.50	0.750			
0.1926	12323.64	4.0180	4.0181	0.8743	25.26	0.50	0.750			
0.1952	12493.54	4.0150	4.0150	0.8826	25.27	0.51	0.750			
0.1978	12658.25	4.0120	4.0120	0.8771	25.27	0.51	0.750			
0.2005	12830.31	4.0090	4.0089	0.8733	25.27	0.51	0.750			
0.2031	12997.49	4.0060	4.0060	0.8791	25.27	0.51	0.750			
0.2057	13165.32	4.0030	4.0031	0.8870	25.28	0.52	0.750			
0.2084	13335.50	4.0000	4.0001	0.8919	25.28	0.52	0.750			
0.2110	13506.78	3.9970	3.9971	0.8954	25.28	0.52	0.750			
0.2138	13682.22	3.9940	3.9940	0.8821	25.28	0.52	0.750			
0.2164	13851.15	3.9910	3.9911	0.8947	25.28	0.52	0.750			
0.2191	14023.88	3.9880	3.9881	0.8997	25.28	0.52	0.750			
0.2218	14194.54	3.9850	3.9852	0.8974	25.28	0.52	0.750			
0.2245	14366.24	3.9820	3.9822	0.9048	25.28	0.52	0.750			
0.2272	14540.66	3.9790	3.9791	0.9122	25.29	0.53	0.750			
0.2300	14719.31	3.9760	3.9760	0.9152	25.29	0.53	0.750			
0.2328	14900.01	3.9730	3.9730	0.9230	25.30	0.54	0.750			
0.2355	15072.19	3.9700	3.9700	0.9118	25.30	0.54	0.750			
0.2383	15248.88	3.9670	3.9670	0.9112	25.30	0.54	0.750			
0.2410	15422.35	3.9640	3.9640	0.9114	25.30	0.54	0.750			
0.2437	15596.17	3.9610	3.9611	0.9144	25.31	0.55	0.750			
0.2464	15772.09	3.9580	3.9579	0.9198	25.31	0.55	0.750			
0.2492	15949.52	3.9550	3.9550	0.9260	25.31	0.55	0.750			
0.2520	16126.99	3.9520	3.9520	0.9210	25.31	0.55	0.750			
0.2547	16302.65	3.9490	3.9491	0.9278	25.32	0.56	0.750			
0.2575	16481.65	3.9460	3.9461	0.9344	25.32	0.56	0.750			
0.2603	16661.19	3.9430	3.9424	0.9342	25.32	0.56	0.750			
0.2631	16839.77	3.9400	3.9401	0.9395	25.33	0.57	0.750			
0.2660	17021.91	3.9370	3.9371	0.9425	25.33	0.57	0.750			
0.2688	17206.01	3.9340	3.9340	0.9481	25.34	0.58	0.750			
0.2717	17385.80	3.9310	3.9310	0.9408	25.35	0.59	0.750			
0.2745	17569.48	3.9280	3.9279	0.9374	25.35	0.59	0.750			
0.2773	17749.46	3.9250	3.9250	0.9413	25.35	0.59	0.750			
0.2801	17929.25	3.9220	3.9221	0.9472	25.36	0.60	0.750			
0.2830	18110.43	3.9190	3.9191	0.9475	25.36	0.60	0.750			
0.2858	18292.56	3.9160	3.9158	0.9539	25.36	0.60	0.750			
0.2887	18479.88	3.9130	3.9130	0.9382	25.36	0.60	0.750			
0.2915	18657.49	3.9100	3.9101	0.9506	25.37	0.61	0.750			
0.2944	18841.03	3.9070	3.9071	0.9573	25.37	0.61	0.750			
0.2972	19022.82	3.9040	3.9037	0.9576	25.37	0.61	0.750			
0.3001	19207.83	3.9010	3.9011	0.9625	25.37	0.61	0.750			
0.3030	19393.79	3.8980	3.8981	0.9665	25.37	0.61	0.750			
0.3059	19580.04	3.8950	3.8950	0.9709	25.37	0.61	0.750			
0.3089	19768.21	3.8920	3.8921	0.9682	25.37	0.61	0.750			
0.3118	19956.88	3.8890	3.8889	0.9661	25.37	0.61	0.750			
0.3147	20141.19	3.8860	3.8860	0.9749	25.37	0.61	0.750			
0.3176	20328.00	3.8830	3.8831	0.9819	25.37	0.61	0.750			
0.3206	20517.56	3.8800	3.8801	0.9883	25.37	0.61	0.750			
0.3236	20707.78	3.8770	3.8768	0.9901	25.37	0.61	0.750			
0.3265	20898.36	3.8740	3.8741	0.9818	25.37	0.61	0.750			
0.3295	21086.35	3.8710	3.8711	0.9853	25.37	0.61	0.750			
0.3324	21274.79	3.8680	3.8681	0.9919	25.37	0.61	0.750			
0.3354	21463.42	3.8650	3.8645	0.9937	25.37	0.61	0.750			
0.3383	21653.80	3.8620	3.8621	0.9987	25.37	0.61	0.750			
0.3414	21847.76	3.8590	3.8591	1.0112	25.37	0.61	0.750			
0.3445	22045.64	3.8560	3.8560	1.0226	25.36	0.60	0.750			
0.3476	22244.87	3.8530	3.8528	1.0348	25.36	0.60	0.750			
0.3506	22438.92	3.8500	3.8500	1.0236	25.36	0.60	0.750			
0.3537	22635.94	3.8470	3.8470	1.0300	25.35	0.59	0.750			
0.3568	22833.91	3.8440	3.8441	1.0364	25.35	0.59	0.750			
0.3599	23033.69	3.8410	3.8406	1.0375	25.34	0.58	0.750			
0.3630	23232.88	3.8380	3.8380	1.0416	25.34	0.58	0.750			
0.3661	23430.40	3.8350	3.8352	1.0556	25.33	0.57	0.750			
0.3693	23633.41	3.8320	3.8320	1.0666	25.33	0.57	0.750			
0.3725	23842.23	3.8290	3.8286	1.0759	25.32	0.56	0.750	0.310	0.417	
0.3758	24048.56	3.8260	3.8262	1.0771	25.31	0.55	0.750			
0.3790	24257.85	3.8230	3.8232	1.0804	25.30	0.54	0.750			
0.3823	24469.98	3.8200	3.8200	1.0843	25.29	0.53	0.750			
0.3855	24674.73	3.8170	3.8170	1.0673	25.28	0.52	0.750			
0.3887	24879.26	3.8140	3.8140	1.0725	25.27	0.51	0.750			
0.3919	25084.62	3.8110	3.8110	1.0813	25.27	0.51	0.750			
0.3952	25292.75	3.8080	3.8081	1.0898	25.26	0.50	0.750			
0.3986	25508.89	3.8050	3.8049	1.0813	25.26	0.50	0.750			
0.4018	25712.73	3.8020	3.8021	1.0892	25.25	0.49	0.750			
0.4050	25919.55	3.7990	3.7991	1.1019	25.24	0.48	0.750			
0.4083	26130.96	3.7960	3.7962	1.1179	25.23	0.47	0.750			
0.4117	26346.08	3.7930	3.7931	1.1224	25.21	0.45	0.750			
0.4150	26562.13	3.7900	3.7902	1.1434	25.20	0.44	0.750			
0.4185	26785.39	3.7870	3.7871	1.1623	25.19	0.43	0.750			
0.4221	27015.49	3.7840	3.7838	1.1691	25.17	0.41	0.750			
0.4256	27238.05	3.7810	3.7811	1.1794	25.16	0.40	0.750			
0.4291	27465.07	3.7780	3.7781	1.2037	25.15	0.39	0.750			
0.4328	27697.50	3.7750	3.7751	1.2273	25.14	0.38	0.750			
0.4365	27937.22	3.7720	3.7721	1.2289	25.12	0.36	0.750			
0.4402	28171.28	3.7690	3.7692	1.2637	25.11	0.35	0.750			
0.4440	28416.33	3.7660	3.7661	1.2977	25.09	0.33	0.750			
0.4479	28667.77	3.7630	3.7624	1.3243	25.08	0.32	0.750			
0.4519	28922.40	3.7600	3.7602	1.3497	25.07	0.31	0.750			
0.4561	29189.26	3.7570	3.7571	1.3716	25.07	0.31	0.750			
0.4603	29457.29	3.7540	3.7538	1.4131	25.06	0.30	0.750			
0.4646	29732.68	3.7510	3.7511	1.4137	25.05	0.29	0.750			
0.4689	30006.46	3.7480	3.7480	1.4376	25.03	0.27	0.750			
0.4733	30288.86	3.7450	3.7448	1.4695	25.02	0.26	0.750			
0.4777	30573.03	3.7420	3.7422	1.4994	25.00	0.24	0.750			
0.4822	30860.24	3.7390	3.7391	1.5481	24.99	0.23	0.750			
0.4869	31161.98	3.7360	3.7361	1.6112	24.97	0.21	0.750			
0.4918	31472.19	3.7330	3.7332	1.6801	24.96	0.20	0.750			
0.4970	31806.40	3.7300	3.7300	1.7567	24.94	0.18	0.750			
0.5023	32150.05	3.7270	3.7272	1.7931	24.93	0.17	0.750			
0.5080	32509.45	3.7240	3.7243	1.8987	24.92	0.16	0.750			
0.5138	32885.76	3.7210	3.7205	1.9478	24.91	0.15	0.750			
0.5197	33258.94	3.7180	3.7175	1.9835	24.89	0.13	0.750			
0.5257	33644.02	3.7150	3.7151	2.0430	24.87	0.11	0.750			
0.5321	34054.45	3.7120	3.7115	2.0998	24.85	0.09	0.750			
0.5383	34449.78	3.7090	3.7088	2.1599	24.83	0.07	0.750			
0.5448	34866.96	3.7060	3.7062	2.2038	24.81	0.05	0.750			
0.5517	35305.63	3.7030	3.7028	2.2374	24.79	0.03	0.750			
0.5584	35735.95	3.7000	3.7001	2.2987	24.77	0.01	0.750			
0.5652	36172.88	3.6970	3.6970	2.3492	24.76	-0.00	0.750			
0.5723	36626.71	3.6940	3.6942	2.3843	24.74	-0.02	0.750			
0.5797	37100.60	3.6910	3.6908	2.4598	24.72	-0.04	0.750			
0.5872	37577.90	3.6880	3.6879	2.5595	24.71	-0.05	0.750			
0.5949	38070.94	3.6850	3.6851	2.6532	24.69	-0.07	0.750			
0.6030	38591.87	3.6820	3.6821	2.7197	24.67	-0.09	0.750			
0.6112	39118.79	3.6790	3.6792	2.7569	24.66	-0.10	0.750			
0.6196	39654.73	3.6760	3.6764	2.8301	24.66	-0.10	0.750			
0.6281	40201.13	3.6730	3.6732	2.8985	24.65	-0.11	0.750			
0.6371	40773.70	3.6700	3.6701	2.9258	24.64	-0.12	0.750			
0.6461	41349.70	3.6670	3.6671	2.8560	24.63	-0.13	0.750			
0.6547	41902.87	3.6640	3.6640	2.7843	24.63	-0.13	0.750			
0.6630	42429.87	3.6610	3.6607	2.6049	24.63	-0.13	0.750			
0.6705	42911.30	3.6580	3.6580	2.4081	24.63	-0.13	0.750			
0.6773	43346.89	3.6550	3.6551	2.1722	24.64	-0.12	0.750			
0.6835	43745.10	3.6520	3.6519	1.9671	24.66	-0.10	0.750			
0.6890	44094.06	3.6490	3.6492	1.7659	24.67	-0.09	0.750			
0.6940	44414.63	3.6460	3.6460	1.5910	24.67	-0.09	0.750			
0.6985	44702.80	3.6430	3.6428	1.4064	24.68	-0.08	0.750			
0.7024	44955.55	3.6400	3.6401	1.2680	24.69	-0.07	0.750			
0.7058	45173.83	3.6370	3.6372	1.1497	24.69	-0.07	0.750			
0.7090	45376.84	3.6340	3.6341	1.0525	24.70	-0.06	0.750			
0.7119	45561.69	3.6310	3.6312	0.9816	24.70	-0.06	0.750			
0.7147	45742.32	3.6280	3.6281	0.9434	24.71	-0.05	0.750			
0.7175	45918.78	3.6250	3.6250	0.9168	24.71	-0.05	0.750			
0.7202	46094.39	3.6220	3.6220	0.8965	24.72	-0.04	0.750			
0.7229	46264.11	3.6190	3.6189	0.8655	24.72	-0.04	0.750			
0.7255	46430.10	3.6160	3.6160	0.8327	24.73	-0.03	0.750			
0.7280	46591.84	3.6130	3.6130	0.7906	24.74	-0.02	0.750			
0.7303	46741.00	3.6100	3.6101	0.7357	24.74	-0.02	0.750			
0.7325	46879.18	3.6070	3.6071	0.6730	24.75	-0.01	0.750			
0.7344	47003.32	3.6040	3.6040	0.6047	24.76	-0.00	0.750			
0.7361	47112.55	3.6010	3.6010	0.5304	24.76	0.00	0.750			
0.7376	47207.60	3.5980	3.5980	0.4543	24.77	0.01	0.750			
0.7388	47285.23	3.5950	3.5951	0.3927	24.77	0.01	0.750			
0.7399	47352.30	3.5920	3.5922	0.3373	24.78	0.02	0.750			
0.7408	47409.29	3.5890	3.5889	0.2774	24.78	0.02	0.750			
0.7415	47456.05	3.5860	3.5868	0.2274	24.78	0.02	0.750			
0.7421	47493.77	3.5830	3.5842	0.1844	24.78	0.02	0.750			
0.7426	47525.36	3.5800	3.5814	0.1450	24.78	0.02	0.750			
0.7429	47547.93	3.5770	3.5779	-0.0754	24.78	0.02	0.750			
