Ah_balance (normalized)	Ah_balance (mAh)	Voltage - fit (V)	Voltage -  interpolate (V)	dQ/dV (1/V)	Temperature (°C)	Temperature - diff (°C)	Current (C)	R_DC 0ms (mOhm)	R_DC 50ms (mOhm)	R_DC 50 ms PEC (mOhm)
0.0487	3116.88	4.1960	4.1962	0.7955	25.51	0.55	0.750			
0.0510	3264.25	4.1930	4.1927	0.7691	25.51	0.55	0.750			
0.0533	3411.71	4.1900	4.1902	0.7669	25.51	0.55	0.750			
0.0557	3563.77	4.1870	4.1871	0.7505	25.51	0.55	0.750			
0.0579	3702.91	4.1840	4.1842	0.7511	25.50	0.54	0.750			
0.0601	3844.69	4.1810	4.1812	0.7509	25.50	0.54	0.750			
0.0623	3989.96	4.1780	4.1782	0.7594	25.50	0.54	0.750			
0.0646	4134.38	4.1750	4.1751	0.7579	25.50	0.54	0.750			
0.0669	4281.75	4.1720	4.1722	0.7637	25.50	0.54	0.750			
0.0693	4432.22	4.1690	4.1690	0.7656	25.50	0.54	0.750			
0.0716	4580.01	4.1660	4.1661	0.7686	25.51	0.55	0.750			
0.0738	4724.58	4.1630	4.1631	0.7606	25.51	0.55	0.750			
0.0761	4871.09	4.1600	4.1591	0.7640	25.51	0.55	0.750			
0.0784	5019.70	4.1570	4.1570	0.7668	25.51	0.55	0.750			
0.0807	5167.55	4.1540	4.1541	0.7654	25.51	0.55	0.750			
0.0830	5315.05	4.1510	4.1510	0.7679	25.51	0.55	0.750			
0.0854	5464.07	4.1480	4.1480	0.7720	25.51	0.55	0.750			
0.0876	5608.85	4.1450	4.1449	0.7650	25.51	0.55	0.750			
0.0899	5756.19	4.1420	4.1420	0.7689	25.51	0.55	0.750			
0.0923	5904.61	4.1390	4.1391	0.7722	25.51	0.55	0.750			
0.0946	6052.66	4.1360	4.1360	0.7661	25.51	0.55	0.750			
0.0968	6198.10	4.1330	4.1331	0.7710	25.51	0.55	0.750			
0.0991	6344.24	4.1300	4.1301	0.7739	25.51	0.55	0.750			
0.1015	6493.33	4.1270	4.1265	0.7814	25.51	0.55	0.750			
0.1038	6645.30	4.1240	4.1241	0.7850	25.51	0.55	0.750			
0.1062	6798.77	4.1210	4.1211	0.7777	25.51	0.55	0.750			
0.1086	6950.55	4.1180	4.1181	0.7870	25.52	0.56	0.750			
0.1109	7098.79	4.1150	4.1151	0.7786	25.52	0.56	0.750			
0.1132	7246.93	4.1120	4.1118	0.7809	25.52	0.56	0.750			
0.1156	7398.05	4.1090	4.1091	0.7891	25.52	0.56	0.750			
0.1180	7550.74	4.1060	4.1060	0.7909	25.52	0.56	0.750			
0.1204	7703.76	4.1030	4.1030	0.7968	25.53	0.57	0.750			
0.1228	7860.14	4.1000	4.1000	0.8027	25.53	0.57	0.750			
0.1252	8010.98	4.0970	4.0970	0.7963	25.53	0.57	0.750			
0.1276	8164.20	4.0940	4.0940	0.7986	25.53	0.57	0.750			
0.1300	8317.84	4.0910	4.0911	0.7980	25.53	0.57	0.750			
0.1323	8470.21	4.0880	4.0880	0.8019	25.53	0.57	0.750			
0.1348	8624.73	4.0850	4.0850	0.8106	25.53	0.57	0.750			
0.1372	8779.88	4.0820	4.0821	0.8119	25.53	0.57	0.750			
0.1396	8936.96	4.0790	4.0790	0.8144	25.53	0.57	0.750			
0.1422	9097.93	4.0760	4.0760	0.8056	25.54	0.58	0.750			
0.1445	9251.05	4.0730	4.0731	0.8100	25.54	0.58	0.750			
0.1470	9405.40	4.0700	4.0701	0.8103	25.54	0.58	0.750			
0.1494	9560.64	4.0670	4.0670	0.8068	25.55	0.59	0.750			
0.1518	9713.06	4.0640	4.0637	0.8033	25.55	0.59	0.750			
0.1542	9868.12	4.0610	4.0612	0.8094	25.55	0.59	0.750			
0.1566	10025.08	4.0580	4.0581	0.8173	25.55	0.59	0.750			
0.1591	10183.04	4.0550	4.0549	0.8209	25.55	0.59	0.750			
0.1615	10338.81	4.0520	4.0520	0.8185	25.55	0.59	0.750			
0.1640	10497.13	4.0490	4.0491	0.8270	25.55	0.59	0.750			
0.1665	10657.89	4.0460	4.0460	0.8349	25.55	0.59	0.750			
0.1691	10821.17	4.0430	4.0429	0.8240	25.55	0.59	0.750			
0.1715	10976.22	4.0400	4.0401	0.8276	25.55	0.59	0.750			
0.1740	11132.82	4.0370	4.0372	0.8324	25.55	0.59	0.750			
0.1765	11293.06	4.0340	4.0333	0.8394	25.55	0.59	0.750			
0.1790	11453.65	4.0310	4.0311	0.8430	25.55	0.59	0.750			
0.1815	11617.56	4.0280	4.0281	0.8410	25.55	0.59	0.750			
0.1841	11780.15	4.0250	4.0252	0.8562	25.56	0.60	0.750			
0.1867	11946.27	4.0220	4.0220	0.8392	25.56	0.60	0.750			
0.1892	12107.30	4.0190	4.0193	0.8500	25.56	0.60	0.750			
0.1917	12269.11	4.0160	4.0162	0.8536	25.56	0.60	0.750			
0.1943	12434.45	4.0130	4.0133	0.8619	25.56	0.60	0.750			
0.1969	12602.75	4.0100	4.0102	0.8686	25.57	0.61	0.750			
0.1995	12768.22	4.0070	4.0071	0.8637	25.57	0.61	0.750			
0.2021	12935.24	4.0040	4.0041	0.8703	25.57	0.61	0.750			
0.2048	13107.58	4.0010	4.0009	0.8576	25.57	0.61	0.750			
0.2074	13271.30	3.9980	3.9980	0.8620	25.57	0.61	0.750			
0.2099	13435.17	3.9950	3.9951	0.8658	25.57	0.61	0.750			
0.2125	13600.07	3.9920	3.9921	0.8715	25.57	0.61	0.750			
0.2151	13768.04	3.9890	3.9892	0.8809	25.57	0.61	0.750			
0.2178	13939.51	3.9860	3.9861	0.8785	25.58	0.62	0.750			
0.2205	14109.92	3.9830	3.9830	0.8838	25.58	0.62	0.750			
0.2231	14281.12	3.9800	3.9802	0.8868	25.59	0.63	0.750			
0.2258	14448.07	3.9770	3.9766	0.8810	25.59	0.63	0.750			
0.2284	14619.13	3.9740	3.9740	0.8830	25.59	0.63	0.750			
0.2311	14787.46	3.9710	3.9711	0.8821	25.59	0.63	0.750			
0.2337	14957.23	3.9680	3.9680	0.8885	25.59	0.63	0.750			
0.2364	15131.74	3.9650	3.9650	0.8988	25.59	0.63	0.750			
0.2391	15301.08	3.9620	3.9620	0.8935	25.59	0.63	0.750			
0.2418	15472.93	3.9590	3.9590	0.8968	25.59	0.63	0.750			
0.2444	15644.63	3.9560	3.9560	0.8903	25.59	0.63	0.750			
0.2471	15815.01	3.9530	3.9531	0.8977	25.59	0.63	0.750			
0.2498	15986.67	3.9500	3.9501	0.9054	25.59	0.63	0.750			
0.2525	16159.89	3.9470	3.9472	0.9047	25.59	0.63	0.750			
0.2553	16337.13	3.9440	3.9440	0.8892	25.59	0.63	0.750			
0.2580	16509.60	3.9410	3.9411	0.9024	25.59	0.63	0.750			
0.2607	16682.57	3.9380	3.9381	0.9076	25.59	0.63	0.750			
0.2633	16853.74	3.9350	3.9345	0.9029	25.59	0.63	0.750			
0.2661	17028.51	3.9320	3.9322	0.9061	25.59	0.63	0.750			
0.2688	17201.35	3.9290	3.9292	0.9103	25.60	0.64	0.750			
0.2716	17380.26	3.9260	3.9260	0.9122	25.60	0.64	0.750			
0.2744	17559.68	3.9230	3.9229	0.9162	25.61	0.65	0.750			
0.2770	17729.83	3.9200	3.9200	0.9084	25.61	0.65	0.750			
0.2797	17903.99	3.9170	3.9170	0.9095	25.60	0.64	0.750			
0.2824	18075.90	3.9140	3.9140	0.8995	25.60	0.64	0.750			
0.2851	18247.01	3.9110	3.9111	0.9049	25.60	0.64	0.750			
0.2878	18418.31	3.9080	3.9083	0.9093	25.59	0.63	0.750			
0.2906	18595.36	3.9050	3.9051	0.9215	25.59	0.63	0.750			
0.2934	18775.68	3.9020	3.9021	0.9050	25.59	0.63	0.750			
0.2961	18947.74	3.8990	3.8992	0.9107	25.59	0.63	0.750			
0.2989	19127.80	3.8960	3.8962	0.9240	25.59	0.63	0.750			
0.3015	19295.81	3.8930	3.8923	0.9113	25.59	0.63	0.750			
0.3042	19469.70	3.8900	3.8902	0.9144	25.59	0.63	0.750			
0.3070	19647.22	3.8870	3.8871	0.9203	25.58	0.62	0.750			
0.3098	19829.70	3.8840	3.8841	0.9322	25.58	0.62	0.750			
0.3126	20008.59	3.8810	3.8810	0.9187	25.57	0.61	0.750			
0.3154	20185.24	3.8780	3.8780	0.9160	25.57	0.61	0.750			
0.3182	20361.87	3.8750	3.8750	0.9087	25.56	0.60	0.750			
0.3208	20533.89	3.8720	3.8721	0.9076	25.55	0.59	0.750			
0.3235	20706.29	3.8690	3.8690	0.9139	25.55	0.59	0.750			
0.3263	20881.17	3.8660	3.8655	0.9197	25.54	0.58	0.750			
0.3291	21062.35	3.8630	3.8630	0.9072	25.53	0.57	0.750			
0.3318	21234.78	3.8600	3.8602	0.9189	25.53	0.57	0.750			
0.3346	21412.75	3.8570	3.8571	0.9289	25.52	0.56	0.750			
0.3374	21592.50	3.8540	3.8541	0.9434	25.51	0.55	0.750			
0.3401	21768.17	3.8510	3.8511	0.9353	25.51	0.55	0.750			
0.3429	21948.30	3.8480	3.8482	0.9362	25.50	0.54	0.750			
0.3458	22130.40	3.8450	3.8451	0.9337	25.49	0.53	0.750			
0.3486	22308.39	3.8420	3.8422	0.9452	25.49	0.53	0.750			
0.3513	22486.08	3.8390	3.8389	0.9476	25.48	0.52	0.750			
0.3542	22669.19	3.8360	3.8358	0.9503	25.47	0.51	0.750	0.285	0.407	
0.3571	22853.25	3.8330	3.8333	0.9656	25.47	0.51	0.750			
0.3601	23043.44	3.8300	3.8303	0.9806	25.46	0.50	0.750			
0.3630	23233.34	3.8270	3.8267	0.9846	25.45	0.49	0.750			
0.3661	23431.67	3.8240	3.8239	0.9852	25.44	0.48	0.750			
0.3689	23606.90	3.8210	3.8211	0.9741	25.43	0.47	0.750			
0.3718	23795.66	3.8180	3.8181	0.9873	25.42	0.46	0.750			
0.3748	23987.92	3.8150	3.8151	1.0022	25.41	0.45	0.750			
0.3778	24178.38	3.8120	3.8122	1.0009	25.39	0.43	0.750			
0.3808	24371.23	3.8090	3.8091	1.0135	25.39	0.43	0.750			
0.3839	24568.50	3.8060	3.8060	1.0304	25.38	0.42	0.750			
0.3870	24769.04	3.8030	3.8030	1.0429	25.37	0.41	0.750			
0.3902	24972.03	3.8000	3.7999	1.0254	25.35	0.39	0.750			
0.3933	25168.04	3.7970	3.7972	1.0496	25.35	0.39	0.750			
0.3964	25368.71	3.7940	3.7941	1.0662	25.34	0.38	0.750			
0.3996	25573.33	3.7910	3.7912	1.0876	25.32	0.36	0.750			
0.4028	25781.80	3.7880	3.7880	1.1056	25.31	0.35	0.750			
0.4061	25992.63	3.7850	3.7852	1.1147	25.30	0.34	0.750			
0.4095	26210.20	3.7820	3.7822	1.1412	25.29	0.33	0.750			
0.4130	26433.90	3.7790	3.7787	1.1616	25.28	0.32	0.750			
0.4165	26654.96	3.7760	3.7761	1.1750	25.27	0.31	0.750			
0.4201	26883.64	3.7730	3.7732	1.2026	25.25	0.29	0.750			
0.4237	27117.89	3.7700	3.7701	1.2343	25.24	0.28	0.750			
0.4276	27363.58	3.7670	3.7669	1.2586	25.23	0.27	0.750			
0.4312	27598.06	3.7640	3.7641	1.2682	25.22	0.26	0.750			
0.4351	27843.46	3.7610	3.7611	1.2966	25.21	0.25	0.750			
0.4390	28099.19	3.7580	3.7580	1.2991	25.20	0.24	0.750			
0.4429	28343.85	3.7550	3.7552	1.3346	25.19	0.23	0.750			
0.4469	28602.85	3.7520	3.7522	1.3761	25.17	0.21	0.750			
0.4511	28868.91	3.7490	3.7481	1.4238	25.16	0.20	0.750			
0.4554	29145.74	3.7460	3.7461	1.4385	25.15	0.19	0.750			
0.4599	29431.51	3.7430	3.7432	1.4698	25.13	0.17	0.750			
0.4645	29728.26	3.7400	3.7400	1.5000	25.12	0.16	0.750			
0.4691	30025.05	3.7370	3.7366	1.5277	25.10	0.14	0.750			
0.4734	30300.19	3.7340	3.7344	1.5665	25.08	0.12	0.750			
0.4782	30603.74	3.7310	3.7312	1.6231	25.07	0.11	0.750			
0.4832	30927.37	3.7280	3.7277	1.6496	25.05	0.09	0.750			
0.4882	31241.98	3.7250	3.7249	1.7017	25.04	0.08	0.750			
0.4934	31577.83	3.7220	3.7219	1.7834	25.02	0.06	0.750			
0.4990	31933.48	3.7190	3.7185	1.8256	25.01	0.05	0.750			
0.5046	32292.34	3.7160	3.7158	1.8578	24.99	0.03	0.750			
0.5102	32655.14	3.7130	3.7131	1.9467	24.97	0.01	0.750			
0.5162	33038.85	3.7100	3.7095	2.0193	24.95	-0.01	0.750			
0.5223	33427.60	3.7070	3.7069	2.0742	24.94	-0.02	0.750			
0.5284	33817.29	3.7040	3.7041	2.1095	24.92	-0.04	0.750			
0.5350	34242.14	3.7010	3.7008	2.1692	24.91	-0.05	0.750			
0.5415	34656.54	3.6980	3.6983	2.1816	24.90	-0.06	0.750			
0.5482	35082.90	3.6950	3.6955	2.3000	24.88	-0.08	0.750			
0.5552	35531.74	3.6920	3.6922	2.2982	24.87	-0.09	0.750			
0.5621	35973.09	3.6890	3.6891	2.3490	24.86	-0.10	0.750			
0.5695	36445.08	3.6860	3.6862	2.4434	24.85	-0.11	0.750			
0.5769	36924.53	3.6830	3.6825	2.5247	24.84	-0.12	0.750			
0.5845	37409.29	3.6800	3.6801	2.7484	24.83	-0.13	0.750			
0.5928	37942.27	3.6770	3.6772	2.7940	24.83	-0.13	0.750			
0.6016	38500.69	3.6740	3.6734	2.8048	24.84	-0.12	0.750			
0.6102	39050.80	3.6710	3.6711	2.6796	24.83	-0.13	0.750			
0.6181	39557.16	3.6680	3.6681	2.5021	24.82	-0.14	0.750			
0.6252	40015.64	3.6650	3.6650	2.2624	24.82	-0.14	0.750			
0.6316	40421.91	3.6620	3.6619	2.0596	24.83	-0.13	0.750			
0.6375	40801.33	3.6590	3.6590	1.9247	24.85	-0.11	0.750			
0.6430	41148.81	3.6560	3.6563	1.7568	24.85	-0.11	0.750			
0.6481	41477.91	3.6530	3.6531	1.6293	24.86	-0.10	0.750			
0.6527	41773.17	3.6500	3.6500	1.4932	24.86	-0.10	0.750			
0.6570	42050.14	3.6470	3.6470	1.3887	24.86	-0.10	0.750			
0.6609	42299.63	3.6440	3.6440	1.2797	24.87	-0.09	0.750			
0.6646	42532.05	3.6410	3.6411	1.1830	24.87	-0.09	0.750			
0.6679	42744.54	3.6380	3.6380	1.1146	24.88	-0.08	0.750			
0.6711	42948.52	3.6350	3.6351	1.0574	24.89	-0.07	0.750			
0.6742	43145.85	3.6320	3.6320	1.0174	24.90	-0.06	0.750			
0.6771	43337.27	3.6290	3.6289	0.9675	24.90	-0.06	0.750			
0.6800	43517.47	3.6260	3.6261	0.9385	24.91	-0.05	0.750			
0.6827	43693.85	3.6230	3.6231	0.9120	24.92	-0.04	0.750			
0.6854	43868.53	3.6200	3.6201	0.8791	24.92	-0.04	0.750			
0.6880	44032.83	3.6170	3.6172	0.8362	24.93	-0.03	0.750			
0.6905	44193.37	3.6140	3.6141	0.7950	24.93	-0.03	0.750			
0.6929	44343.84	3.6110	3.6110	0.7438	24.94	-0.02	0.750			
0.6951	44484.14	3.6080	3.6080	0.6822	24.95	-0.01	0.750			
0.6970	44609.09	3.6050	3.6050	0.6184	24.95	-0.01	0.750			
0.6987	44719.90	3.6020	3.6020	0.5607	24.95	-0.01	0.750			
0.7003	44822.18	3.5990	3.5990	0.5062	24.96	-0.00	0.750			
0.7018	44912.34	3.5960	3.5961	0.4523	24.96	0.00	0.750			
0.7030	44993.92	3.5930	3.5931	0.4025	24.96	0.00	0.750			
0.7042	45067.11	3.5900	3.5900	0.3550	24.97	0.01	0.750			
0.7052	45130.85	3.5870	3.5870	0.3052	24.97	0.01	0.750			
0.7060	45184.09	3.5840	3.5839	0.2533	24.97	0.01	0.750			
0.7067	45228.14	3.5810	3.5811	0.2043	24.97	0.01	0.750			
0.7072	45263.08	3.5780	3.5781	0.1533	24.97	0.01	0.750			
0.7076	45287.55	3.5750	3.5752	0.1039	24.98	0.02	0.750			
