Ah_balance (normalized)	Ah_balance (mAh)	Voltage - fit (V)	Voltage -  interpolate (V)	dQ/dV (1/V)	Temperature (°C)	Temperature - diff (°C)	Current (C)	R_DC 0ms (mOhm)	R_DC 50ms (mOhm)	R_DC 50 ms PEC (mOhm)
0.0490	3137.22	4.1960	4.1961	0.7147	25.32	0.65	0.750			
0.0512	3278.75	4.1930	4.1925	0.7462	25.32	0.65	0.750			
0.0535	3426.46	4.1900	4.1902	0.7615	25.32	0.65	0.750			
0.0559	3574.80	4.1870	4.1871	0.7631	25.32	0.65	0.750			
0.0582	3725.00	4.1840	4.1840	0.7689	25.33	0.66	0.750			
0.0605	3873.38	4.1810	4.1810	0.7739	25.33	0.66	0.750			
0.0628	4017.15	4.1780	4.1779	0.7621	25.33	0.66	0.750			
0.0650	4162.53	4.1750	4.1750	0.7623	25.33	0.66	0.750			
0.0673	4309.29	4.1720	4.1720	0.7633	25.33	0.66	0.750			
0.0696	4455.93	4.1690	4.1691	0.7620	25.33	0.66	0.750			
0.0719	4601.86	4.1660	4.1660	0.7669	25.34	0.67	0.750			
0.0742	4747.16	4.1630	4.1631	0.7703	25.34	0.67	0.750			
0.0765	4895.62	4.1600	4.1597	0.7780	25.34	0.67	0.750			
0.0789	5047.47	4.1570	4.1570	0.7803	25.34	0.67	0.750			
0.0813	5200.76	4.1540	4.1540	0.7656	25.34	0.67	0.750			
0.0836	5348.39	4.1510	4.1511	0.7752	25.35	0.68	0.750			
0.0858	5494.15	4.1480	4.1481	0.7724	25.35	0.68	0.750			
0.0881	5638.93	4.1450	4.1450	0.7736	25.35	0.68	0.750			
0.0905	5788.94	4.1420	4.1422	0.7783	25.35	0.68	0.750			
0.0928	5939.75	4.1390	4.1391	0.7859	25.35	0.68	0.750			
0.0952	6094.19	4.1360	4.1360	0.7917	25.35	0.68	0.750			
0.0977	6250.56	4.1330	4.1330	0.7983	25.35	0.68	0.750			
0.1000	6398.31	4.1300	4.1300	0.7860	25.35	0.68	0.750			
0.1023	6549.28	4.1270	4.1270	0.7892	25.35	0.68	0.750			
0.1047	6701.28	4.1240	4.1239	0.7845	25.36	0.69	0.750			
0.1071	6852.57	4.1210	4.1210	0.7874	25.36	0.69	0.750			
0.1094	7002.56	4.1180	4.1181	0.7896	25.36	0.69	0.750			
0.1118	7153.79	4.1150	4.1151	0.7932	25.37	0.70	0.750			
0.1142	7305.94	4.1120	4.1118	0.7970	25.37	0.70	0.750			
0.1166	7459.83	4.1090	4.1089	0.8031	25.37	0.70	0.750			
0.1190	7615.46	4.1060	4.1061	0.7991	25.37	0.70	0.750			
0.1214	7768.82	4.1030	4.1031	0.8057	25.37	0.70	0.750			
0.1238	7923.97	4.1000	4.1001	0.8038	25.37	0.70	0.750			
0.1262	8078.12	4.0970	4.0967	0.8039	25.37	0.70	0.750			
0.1286	8230.95	4.0940	4.0941	0.8051	25.37	0.70	0.750			
0.1310	8385.88	4.0910	4.0911	0.8071	25.37	0.70	0.750			
0.1335	8542.29	4.0880	4.0880	0.8114	25.37	0.70	0.750			
0.1359	8697.49	4.0850	4.0850	0.8110	25.37	0.70	0.750			
0.1383	8853.46	4.0820	4.0820	0.8127	25.37	0.70	0.750			
0.1408	9011.65	4.0790	4.0790	0.8195	25.37	0.70	0.750			
0.1433	9170.47	4.0760	4.0760	0.8123	25.37	0.70	0.750			
0.1457	9324.43	4.0730	4.0730	0.8199	25.37	0.70	0.750			
0.1482	9482.56	4.0700	4.0701	0.8256	25.37	0.70	0.750			
0.1506	9640.40	4.0670	4.0668	0.8279	25.37	0.70	0.750			
0.1531	9799.78	4.0640	4.0641	0.8295	25.37	0.70	0.750			
0.1557	9962.42	4.0610	4.0611	0.8259	25.37	0.70	0.750			
0.1581	10119.07	4.0580	4.0580	0.8334	25.38	0.71	0.750			
0.1606	10280.32	4.0550	4.0550	0.8396	25.38	0.71	0.750			
0.1631	10438.72	4.0520	4.0519	0.8375	25.38	0.71	0.750			
0.1656	10601.10	4.0490	4.0491	0.8456	25.38	0.71	0.750			
0.1682	10765.18	4.0460	4.0460	0.8496	25.39	0.72	0.750			
0.1708	10929.23	4.0430	4.0431	0.8546	25.39	0.72	0.750			
0.1734	11094.41	4.0400	4.0400	0.8507	25.40	0.73	0.750			
0.1759	11257.55	4.0370	4.0369	0.8521	25.40	0.73	0.750			
0.1785	11421.33	4.0340	4.0340	0.8547	25.40	0.73	0.750			
0.1810	11585.79	4.0310	4.0310	0.8537	25.40	0.73	0.750			
0.1836	11748.61	4.0280	4.0280	0.8590	25.40	0.73	0.750			
0.1862	11913.88	4.0250	4.0250	0.8608	25.40	0.73	0.750			
0.1887	12079.13	4.0220	4.0218	0.8667	25.40	0.73	0.750			
0.1914	12248.19	4.0190	4.0190	0.8690	25.40	0.73	0.750			
0.1940	12415.13	4.0160	4.0161	0.8703	25.40	0.73	0.750			
0.1966	12583.55	4.0130	4.0129	0.8739	25.40	0.73	0.750			
0.1992	12750.21	4.0100	4.0101	0.8748	25.40	0.73	0.750			
0.2018	12916.47	4.0070	4.0070	0.8754	25.40	0.73	0.750			
0.2045	13088.33	4.0040	4.0040	0.8736	25.40	0.73	0.750			
0.2071	13255.12	4.0010	4.0011	0.8810	25.40	0.73	0.750			
0.2098	13429.55	3.9980	3.9980	0.8772	25.40	0.73	0.750			
0.2125	13599.66	3.9950	3.9949	0.8635	25.40	0.73	0.750			
0.2151	13763.97	3.9920	3.9921	0.8497	25.40	0.73	0.750			
0.2176	13925.91	3.9890	3.9893	0.8367	25.40	0.73	0.750			
0.2200	14081.69	3.9860	3.9857	0.8424	25.40	0.73	0.750			
0.2225	14239.31	3.9830	3.9829	0.8609	25.41	0.74	0.750			
0.2250	14400.03	3.9800	3.9801	0.8674	25.41	0.74	0.750			
0.2278	14577.88	3.9770	3.9770	0.8766	25.41	0.74	0.750			
0.2305	14753.10	3.9740	3.9741	0.8989	25.41	0.74	0.750			
0.2332	14922.92	3.9710	3.9712	0.9088	25.41	0.74	0.750			
0.2359	15099.03	3.9680	3.9681	0.9134	25.41	0.74	0.750			
0.2386	15270.93	3.9650	3.9647	0.9081	25.41	0.74	0.750			
0.2414	15446.92	3.9620	3.9621	0.9116	25.41	0.74	0.750			
0.2441	15624.65	3.9590	3.9592	0.9255	25.41	0.74	0.750			
0.2470	15805.13	3.9560	3.9560	0.9309	25.41	0.74	0.750			
0.2497	15982.92	3.9530	3.9530	0.9228	25.41	0.74	0.750			
0.2525	16159.75	3.9500	3.9500	0.9231	25.41	0.74	0.750			
0.2553	16338.91	3.9470	3.9471	0.9243	25.41	0.74	0.750			
0.2581	16515.28	3.9440	3.9440	0.9246	25.42	0.75	0.750			
0.2608	16693.78	3.9410	3.9411	0.9284	25.42	0.75	0.750			
0.2636	16869.90	3.9380	3.9376	0.9265	25.42	0.75	0.750			
0.2665	17053.52	3.9350	3.9349	0.9178	25.42	0.75	0.750			
0.2692	17226.40	3.9320	3.9320	0.9136	25.42	0.75	0.750			
0.2718	17398.22	3.9290	3.9292	0.9217	25.41	0.74	0.750			
0.2746	17574.67	3.9260	3.9262	0.9311	25.41	0.74	0.750			
0.2774	17750.57	3.9230	3.9230	0.9339	25.41	0.74	0.750			
0.2802	17931.92	3.9200	3.9203	0.9425	25.41	0.74	0.750			
0.2831	18115.70	3.9170	3.9171	0.9538	25.42	0.75	0.750			
0.2860	18303.00	3.9140	3.9140	0.9632	25.42	0.75	0.750			
0.2889	18489.41	3.9110	3.9108	0.9589	25.42	0.75	0.750			
0.2917	18671.07	3.9080	3.9080	0.9428	25.42	0.75	0.750			
0.2946	18852.84	3.9050	3.9051	0.9551	25.41	0.74	0.750			
0.2974	19036.78	3.9020	3.9020	0.9568	25.41	0.74	0.750			
0.3003	19219.08	3.8990	3.8989	0.9589	25.40	0.73	0.750			
0.3032	19406.95	3.8960	3.8960	0.9470	25.40	0.73	0.750			
0.3061	19589.82	3.8930	3.8930	0.9485	25.40	0.73	0.750			
0.3089	19771.13	3.8900	3.8901	0.9511	25.40	0.73	0.750			
0.3117	19950.12	3.8870	3.8872	0.9541	25.40	0.73	0.750			
0.3146	20134.36	3.8840	3.8838	0.9657	25.40	0.73	0.750			
0.3175	20319.21	3.8810	3.8814	0.9741	25.39	0.72	0.750			
0.3204	20508.60	3.8780	3.8781	0.9819	25.39	0.72	0.750			
0.3234	20700.60	3.8750	3.8751	0.9926	25.38	0.71	0.750			
0.3265	20894.66	3.8720	3.8719	0.9839	25.38	0.71	0.750			
0.3294	21083.59	3.8690	3.8690	0.9784	25.38	0.71	0.750			
0.3324	21271.42	3.8660	3.8661	0.9754	25.38	0.71	0.750			
0.3353	21457.47	3.8630	3.8631	0.9798	25.37	0.70	0.750			
0.3382	21642.96	3.8600	3.8596	0.9793	25.37	0.70	0.750			
0.3412	21834.60	3.8570	3.8571	0.9702	25.36	0.69	0.750			
0.3440	22018.75	3.8540	3.8540	0.9891	25.35	0.68	0.750			
0.3470	22210.30	3.8510	3.8511	1.0023	25.34	0.67	0.750			
0.3501	22404.77	3.8480	3.8482	1.0127	25.33	0.66	0.750			
0.3532	22601.92	3.8450	3.8451	1.0121	25.33	0.66	0.750			
0.3563	22802.08	3.8420	3.8420	0.9962	25.32	0.65	0.750			
0.3592	22987.56	3.8390	3.8392	1.0161	25.31	0.64	0.750			
0.3622	23178.62	3.8360	3.8362	1.0202	25.30	0.63	0.750			
0.3653	23378.70	3.8330	3.8328	1.0239	25.30	0.63	0.750	0.321	0.388	
0.3684	23575.24	3.8300	3.8304	1.0424	25.29	0.62	0.750			
0.3716	23779.40	3.8270	3.8274	1.0553	25.28	0.61	0.750			
0.3748	23990.28	3.8240	3.8242	1.0707	25.26	0.59	0.750			
0.3781	24200.50	3.8210	3.8210	1.0468	25.25	0.58	0.750			
0.3811	24388.79	3.8180	3.8182	1.0228	25.24	0.57	0.750			
0.3841	24582.57	3.8150	3.8153	1.0391	25.24	0.57	0.750			
0.3872	24782.41	3.8120	3.8122	1.0598	25.23	0.56	0.750			
0.3904	24984.99	3.8090	3.8089	1.0550	25.21	0.54	0.750			
0.3936	25189.89	3.8060	3.8062	1.0752	25.20	0.53	0.750			
0.3969	25403.51	3.8030	3.8032	1.0959	25.19	0.52	0.750			
0.4003	25621.61	3.8000	3.7999	1.1075	25.17	0.50	0.750			
0.4035	25825.57	3.7970	3.7970	1.0847	25.16	0.49	0.750			
0.4067	26031.53	3.7940	3.7941	1.1019	25.15	0.48	0.750			
0.4101	26245.59	3.7910	3.7911	1.1247	25.14	0.47	0.750			
0.4135	26465.62	3.7880	3.7876	1.1453	25.12	0.45	0.750			
0.4169	26684.79	3.7850	3.7851	1.1404	25.11	0.44	0.750			
0.4204	26903.27	3.7820	3.7822	1.1667	25.10	0.43	0.750			
0.4239	27129.50	3.7790	3.7791	1.1918	25.10	0.43	0.750			
0.4275	27360.42	3.7760	3.7760	1.2143	25.08	0.41	0.750			
0.4311	27590.07	3.7730	3.7731	1.2259	25.07	0.40	0.750			
0.4349	27830.50	3.7700	3.7701	1.2530	25.05	0.38	0.750			
0.4388	28080.48	3.7670	3.7669	1.2723	25.03	0.36	0.750			
0.4425	28322.87	3.7640	3.7640	1.2908	25.02	0.35	0.750			
0.4464	28569.42	3.7610	3.7611	1.3209	25.00	0.33	0.750			
0.4504	28823.91	3.7580	3.7578	1.3515	24.98	0.31	0.750			
0.4544	29082.13	3.7550	3.7551	1.3661	24.97	0.30	0.750			
0.4585	29344.23	3.7520	3.7522	1.4058	24.96	0.29	0.750			
0.4629	29625.90	3.7490	3.7491	1.4132	24.94	0.27	0.750			
0.4672	29903.81	3.7460	3.7462	1.4462	24.92	0.25	0.750			
0.4715	30176.29	3.7430	3.7433	1.4857	24.90	0.23	0.750			
0.4761	30469.37	3.7400	3.7399	1.5212	24.88	0.21	0.750			
0.4809	30775.88	3.7370	3.7370	1.5789	24.87	0.20	0.750			
0.4855	31071.35	3.7340	3.7342	1.5799	24.85	0.18	0.750			
0.4904	31384.10	3.7310	3.7314	1.6517	24.84	0.17	0.750			
0.4954	31704.97	3.7280	3.7286	1.7154	24.82	0.15	0.750			
0.5006	32037.85	3.7250	3.7249	1.7679	24.80	0.13	0.750			
0.5060	32381.03	3.7220	3.7213	1.8195	24.79	0.12	0.750			
0.5117	32749.20	3.7190	3.7187	1.8849	24.77	0.10	0.750			
0.5175	33121.67	3.7160	3.7157	1.9246	24.75	0.08	0.750			
0.5235	33501.60	3.7130	3.7133	1.9986	24.73	0.06	0.750			
0.5294	33884.48	3.7100	3.7097	2.0604	24.71	0.04	0.750			
0.5356	34280.27	3.7070	3.7071	2.0788	24.70	0.03	0.750			
0.5419	34683.56	3.7040	3.7041	2.1199	24.68	0.01	0.750			
0.5487	35114.19	3.7010	3.7006	2.1993	24.67	-0.00	0.750			
0.5552	35535.09	3.6980	3.6984	2.2489	24.65	-0.02	0.750			
0.5622	35978.79	3.6950	3.6953	2.3160	24.63	-0.04	0.750			
0.5692	36429.15	3.6920	3.6924	2.4223	24.61	-0.06	0.750			
0.5765	36896.08	3.6890	3.6885	2.4899	24.60	-0.07	0.750			
0.5840	37374.21	3.6860	3.6864	2.5036	24.59	-0.08	0.750			
0.5913	37840.87	3.6830	3.6826	2.6403	24.58	-0.09	0.750			
0.5996	38377.11	3.6800	3.6803	2.6468	24.56	-0.11	0.750			
0.6076	38885.44	3.6770	3.6771	2.8102	24.55	-0.12	0.750			
0.6159	39418.86	3.6740	3.6744	2.7249	24.54	-0.13	0.750			
0.6238	39924.87	3.6710	3.6706	2.9346	24.53	-0.14	0.750			
0.6332	40524.32	3.6680	3.6676	2.9414	24.52	-0.15	0.750			
0.6415	41055.22	3.6650	3.6645	2.9006	24.52	-0.15	0.750			
0.6499	41591.57	3.6620	3.6623	2.6864	24.54	-0.13	0.750			
0.6574	42074.45	3.6590	3.6595	2.4211	24.54	-0.13	0.750			
0.6647	42541.69	3.6560	3.6567	2.3355	24.54	-0.13	0.750			
0.6710	42943.53	3.6530	3.6526	2.0135	24.55	-0.12	0.750			
0.6768	43312.92	3.6500	3.6500	1.8464	24.56	-0.11	0.750			
0.6818	43634.21	3.6470	3.6474	1.6375	24.57	-0.10	0.750			
0.6866	43942.91	3.6440	3.6442	1.4998	24.58	-0.09	0.750			
0.6906	44197.34	3.6410	3.6412	1.3156	24.58	-0.09	0.750			
0.6944	44441.00	3.6380	3.6381	1.2089	24.59	-0.08	0.750			
0.6976	44646.88	3.6350	3.6351	1.0784	24.59	-0.08	0.750			
0.7007	44842.04	3.6320	3.6319	1.0158	24.60	-0.07	0.750			
0.7034	45020.30	3.6290	3.6291	0.9418	24.61	-0.06	0.750			
0.7062	45196.45	3.6260	3.6259	0.9054	24.62	-0.05	0.750			
0.7088	45364.44	3.6230	3.6231	0.8822	24.62	-0.05	0.750			
0.7115	45535.35	3.6200	3.6201	0.8514	24.63	-0.04	0.750			
0.7140	45695.70	3.6170	3.6165	0.8310	24.64	-0.03	0.750			
0.7165	45854.78	3.6140	3.6141	0.8041	24.65	-0.02	0.750			
0.7189	46010.74	3.6110	3.6112	0.7396	24.65	-0.02	0.750			
0.7211	46153.47	3.6080	3.6082	0.6839	24.66	-0.01	0.750			
0.7231	46278.82	3.6050	3.6053	0.6118	24.66	-0.01	0.750			
0.7248	46388.68	3.6020	3.6024	0.5460	24.67	-0.00	0.750			
0.7263	46486.21	3.5990	3.5980	0.4880	24.67	-0.00	0.750			
0.7277	46570.66	3.5960	3.5964	0.4189	24.67	0.00	0.750			
0.7289	46646.76	3.5930	3.5934	0.3614	24.68	0.01	0.750			
0.7299	46713.85	3.5900	3.5902	0.3119	24.68	0.01	0.750			
0.7307	46767.58	3.5870	3.5871	0.2481	24.68	0.01	0.750			
0.7314	46807.85	3.5840	3.5844	0.1859	24.68	0.01	0.750			
0.7318	46836.69	3.5810	3.5819	0.1272	24.68	0.01	0.750			
0.7321	46855.72	3.5780	3.5792	0.0826	24.68	0.01	0.750			
