Ah_balance (normalized)	Ah_balance (mAh)	Voltage - fit (V)	Voltage -  interpolate (V)	dQ/dV (1/V)	Temperature (°C)	Temperature - diff (°C)	Current (C)	R_DC 0ms (mOhm)	R_DC 50ms (mOhm)	R_DC 50 ms PEC (mOhm)
0.0484	3097.01	4.1970	4.1968	0.8936	25.55	0.55	0.750			
0.0510	3262.21	4.1940	4.1943	0.8390	25.55	0.55	0.750			
0.0534	3418.92	4.1910	4.1911	0.8012	25.55	0.55	0.750			
0.0557	3566.62	4.1880	4.1879	0.7765	25.55	0.55	0.750			
0.0580	3710.26	4.1850	4.1850	0.7688	25.55	0.55	0.750			
0.0602	3850.09	4.1820	4.1821	0.7582	25.55	0.55	0.750			
0.0624	3996.18	4.1790	4.1790	0.7559	25.55	0.55	0.750			
0.0647	4142.60	4.1760	4.1760	0.7615	25.55	0.55	0.750			
0.0670	4290.07	4.1730	4.1731	0.7602	25.55	0.55	0.750			
0.0693	4436.91	4.1700	4.1700	0.7606	25.56	0.56	0.750			
0.0716	4581.74	4.1670	4.1670	0.7575	25.56	0.56	0.750			
0.0739	4726.91	4.1640	4.1638	0.7576	25.56	0.56	0.750			
0.0761	4871.03	4.1610	4.1610	0.7564	25.56	0.56	0.750			
0.0784	5018.57	4.1580	4.1580	0.7618	25.56	0.56	0.750			
0.0807	5163.78	4.1550	4.1550	0.7638	25.57	0.57	0.750			
0.0830	5311.83	4.1520	4.1520	0.7659	25.57	0.57	0.750			
0.0853	5457.86	4.1490	4.1490	0.7664	25.57	0.57	0.750			
0.0876	5605.81	4.1460	4.1460	0.7666	25.57	0.57	0.750			
0.0899	5752.76	4.1430	4.1430	0.7689	25.57	0.57	0.750			
0.0922	5900.49	4.1400	4.1400	0.7678	25.57	0.57	0.750			
0.0945	6047.85	4.1370	4.1370	0.7701	25.57	0.57	0.750			
0.0968	6195.15	4.1340	4.1340	0.7700	25.57	0.57	0.750			
0.0991	6343.74	4.1310	4.1307	0.7735	25.57	0.57	0.750			
0.1014	6492.03	4.1280	4.1280	0.7756	25.57	0.57	0.750			
0.1038	6642.51	4.1250	4.1250	0.7756	25.57	0.57	0.750			
0.1061	6791.12	4.1220	4.1220	0.7778	25.58	0.58	0.750			
0.1085	6941.10	4.1190	4.1191	0.7813	25.58	0.58	0.750			
0.1108	7089.61	4.1160	4.1159	0.7798	25.58	0.58	0.750			
0.1131	7239.56	4.1130	4.1130	0.7835	25.58	0.58	0.750			
0.1155	7390.46	4.1100	4.1101	0.7870	25.58	0.58	0.750			
0.1178	7541.96	4.1070	4.1069	0.7907	25.58	0.58	0.750			
0.1203	7696.49	4.1040	4.1040	0.7924	25.59	0.59	0.750			
0.1226	7847.90	4.1010	4.1011	0.7882	25.59	0.59	0.750			
0.1250	7999.00	4.0980	4.0980	0.7879	25.59	0.59	0.750			
0.1273	8150.02	4.0950	4.0950	0.7899	25.59	0.59	0.750			
0.1297	8300.29	4.0920	4.0920	0.7825	25.59	0.59	0.750			
0.1320	8448.03	4.0890	4.0890	0.7893	25.59	0.59	0.750			
0.1344	8599.02	4.0860	4.0861	0.7970	25.59	0.59	0.750			
0.1368	8754.31	4.0830	4.0826	0.8016	25.59	0.59	0.750			
0.1392	8910.04	4.0800	4.0800	0.8050	25.59	0.59	0.750			
0.1416	9065.43	4.0770	4.0772	0.8037	25.59	0.59	0.750			
0.1441	9219.74	4.0740	4.0741	0.8090	25.60	0.60	0.750			
0.1465	9374.87	4.0710	4.0710	0.8042	25.60	0.60	0.750			
0.1489	9528.99	4.0680	4.0678	0.8052	25.60	0.60	0.750			
0.1513	9682.36	4.0650	4.0651	0.8092	25.60	0.60	0.750			
0.1537	9839.59	4.0620	4.0621	0.8122	25.60	0.60	0.750			
0.1562	9995.56	4.0590	4.0590	0.8203	25.61	0.61	0.750			
0.1586	10152.29	4.0560	4.0560	0.8177	25.61	0.61	0.750			
0.1611	10309.76	4.0530	4.0529	0.8249	25.61	0.61	0.750			
0.1636	10470.55	4.0500	4.0500	0.8284	25.61	0.61	0.750			
0.1661	10630.76	4.0470	4.0471	0.8229	25.61	0.61	0.750			
0.1686	10787.44	4.0440	4.0440	0.8299	25.61	0.61	0.750			
0.1710	10946.30	4.0410	4.0409	0.8279	25.61	0.61	0.750			
0.1735	11105.09	4.0380	4.0379	0.8333	25.61	0.61	0.750			
0.1760	11266.04	4.0350	4.0351	0.8371	25.61	0.61	0.750			
0.1786	11428.19	4.0320	4.0320	0.8416	25.61	0.61	0.750			
0.1811	11589.29	4.0290	4.0291	0.8378	25.62	0.62	0.750			
0.1836	11749.69	4.0260	4.0261	0.8410	25.62	0.62	0.750			
0.1861	11908.44	4.0230	4.0228	0.8403	25.62	0.62	0.750			
0.1886	12071.11	4.0200	4.0201	0.8491	25.62	0.62	0.750			
0.1912	12234.52	4.0170	4.0171	0.8509	25.62	0.62	0.750			
0.1937	12399.64	4.0140	4.0140	0.8567	25.63	0.63	0.750			
0.1964	12569.01	4.0110	4.0109	0.8677	25.63	0.63	0.750			
0.1989	12730.30	4.0080	4.0080	0.8566	25.63	0.63	0.750			
0.2015	12896.15	4.0050	4.0049	0.8593	25.63	0.63	0.750			
0.2041	13060.95	4.0020	4.0020	0.8640	25.63	0.63	0.750			
0.2067	13226.83	3.9990	3.9989	0.8671	25.63	0.63	0.750			
0.2093	13394.12	3.9960	3.9961	0.8699	25.63	0.63	0.750			
0.2119	13560.62	3.9930	3.9929	0.8745	25.63	0.63	0.750			
0.2145	13730.65	3.9900	3.9900	0.8715	25.63	0.63	0.750			
0.2172	13897.98	3.9870	3.9870	0.8750	25.64	0.64	0.750			
0.2198	14065.30	3.9840	3.9840	0.8780	25.64	0.64	0.750			
0.2224	14234.34	3.9810	3.9811	0.8784	25.65	0.65	0.750			
0.2251	14403.55	3.9780	3.9780	0.8812	25.65	0.65	0.750			
0.2277	14573.45	3.9750	3.9751	0.8818	25.65	0.65	0.750			
0.2303	14742.33	3.9720	3.9720	0.8836	25.65	0.65	0.750			
0.2330	14913.76	3.9690	3.9690	0.8878	25.65	0.65	0.750			
0.2357	15082.68	3.9660	3.9660	0.8855	25.65	0.65	0.750			
0.2383	15253.66	3.9630	3.9631	0.8884	25.65	0.65	0.750			
0.2410	15425.12	3.9600	3.9600	0.8882	25.65	0.65	0.750			
0.2437	15594.41	3.9570	3.9570	0.8932	25.65	0.65	0.750			
0.2464	15767.07	3.9540	3.9540	0.8929	25.65	0.65	0.750			
0.2490	15938.04	3.9510	3.9507	0.8917	25.65	0.65	0.750			
0.2517	16111.43	3.9480	3.9480	0.8902	25.65	0.65	0.750			
0.2544	16281.56	3.9450	3.9451	0.8910	25.65	0.65	0.750			
0.2571	16452.69	3.9420	3.9419	0.8938	25.65	0.65	0.750			
0.2598	16624.29	3.9390	3.9391	0.8930	25.65	0.65	0.750			
0.2624	16792.92	3.9360	3.9359	0.8917	25.65	0.65	0.750			
0.2651	16966.42	3.9330	3.9330	0.8958	25.65	0.65	0.750			
0.2678	17138.75	3.9300	3.9300	0.8985	25.65	0.65	0.750			
0.2705	17311.43	3.9270	3.9271	0.9004	25.65	0.65	0.750			
0.2732	17484.55	3.9240	3.9240	0.8975	25.65	0.65	0.750			
0.2759	17657.73	3.9210	3.9210	0.8982	25.65	0.65	0.750			
0.2786	17830.43	3.9180	3.9180	0.8941	25.65	0.65	0.750			
0.2813	18000.76	3.9150	3.9150	0.8941	25.65	0.65	0.750			
0.2839	18172.22	3.9120	3.9120	0.8984	25.65	0.65	0.750			
0.2866	18344.14	3.9090	3.9087	0.8978	25.65	0.65	0.750			
0.2893	18517.90	3.9060	3.9060	0.8964	25.65	0.65	0.750			
0.2920	18689.88	3.9030	3.9031	0.9012	25.64	0.64	0.750			
0.2947	18863.93	3.9000	3.9000	0.9034	25.64	0.64	0.750			
0.2975	19037.58	3.8970	3.8970	0.9046	25.63	0.63	0.750			
0.3001	19209.21	3.8940	3.8941	0.9012	25.63	0.63	0.750			
0.3029	19382.84	3.8910	3.8910	0.9006	25.62	0.62	0.750			
0.3056	19556.85	3.8880	3.8880	0.9024	25.62	0.62	0.750			
0.3083	19729.93	3.8850	3.8850	0.9012	25.62	0.62	0.750			
0.3110	19901.79	3.8820	3.8819	0.8991	25.61	0.61	0.750			
0.3137	20075.14	3.8790	3.8790	0.9006	25.60	0.60	0.750			
0.3164	20247.76	3.8760	3.8760	0.8980	25.59	0.59	0.750			
0.3191	20419.37	3.8730	3.8730	0.9007	25.59	0.59	0.750			
0.3218	20592.70	3.8700	3.8700	0.9047	25.58	0.58	0.750			
0.3245	20766.47	3.8670	3.8670	0.9040	25.57	0.57	0.750			
0.3272	20942.56	3.8640	3.8640	0.8963	25.56	0.56	0.750			
0.3299	21112.71	3.8610	3.8611	0.9035	25.55	0.55	0.750			
0.3326	21285.48	3.8580	3.8581	0.9110	25.54	0.54	0.750			
0.3353	21459.26	3.8550	3.8550	0.9120	25.53	0.53	0.750			
0.3381	21639.11	3.8520	3.8521	0.9096	25.53	0.53	0.750			
0.3408	21814.23	3.8490	3.8490	0.9181	25.52	0.52	0.750			
0.3436	21989.89	3.8460	3.8461	0.9335	25.51	0.51	0.750			
0.3464	22170.05	3.8430	3.8431	0.9471	25.50	0.50	0.750			
0.3492	22351.09	3.8400	3.8397	0.9449	25.49	0.49	0.750	0.321	0.445	
0.3521	22536.41	3.8370	3.8371	0.9424	25.48	0.48	0.750			
0.3550	22718.95	3.8340	3.8341	0.9533	25.48	0.48	0.750			
0.3578	22901.56	3.8310	3.8311	0.9610	25.47	0.47	0.750			
0.3607	23084.04	3.8280	3.8278	0.9579	25.46	0.46	0.750			
0.3636	23269.32	3.8250	3.8251	0.9602	25.45	0.45	0.750			
0.3665	23453.59	3.8220	3.8221	0.9736	25.44	0.44	0.750			
0.3694	23643.57	3.8190	3.8191	0.9903	25.43	0.43	0.750			
0.3725	23837.88	3.8160	3.8160	1.0008	25.42	0.42	0.750			
0.3755	24028.83	3.8130	3.8130	1.0018	25.41	0.41	0.750			
0.3784	24220.66	3.8100	3.8101	1.0116	25.40	0.40	0.750			
0.3815	24416.12	3.8070	3.8070	1.0209	25.39	0.39	0.750			
0.3846	24613.82	3.8040	3.8040	1.0318	25.38	0.38	0.750			
0.3877	24813.25	3.8010	3.8011	1.0300	25.37	0.37	0.750			
0.3908	25009.42	3.7980	3.7981	1.0488	25.35	0.35	0.750			
0.3939	25211.40	3.7950	3.7950	1.0700	25.34	0.34	0.750			
0.3972	25418.66	3.7920	3.7921	1.0850	25.33	0.33	0.750			
0.4005	25629.08	3.7890	3.7889	1.0898	25.32	0.32	0.750			
0.4037	25839.79	3.7860	3.7862	1.1141	25.31	0.31	0.750			
0.4071	26055.83	3.7830	3.7830	1.1328	25.29	0.29	0.750			
0.4105	26275.12	3.7800	3.7799	1.1550	25.28	0.28	0.750			
0.4140	26496.09	3.7770	3.7771	1.1758	25.27	0.27	0.750			
0.4175	26722.66	3.7740	3.7740	1.1998	25.26	0.26	0.750			
0.4212	26958.36	3.7710	3.7710	1.2289	25.25	0.25	0.750			
0.4250	27199.69	3.7680	3.7680	1.2333	25.24	0.24	0.750			
0.4287	27434.61	3.7650	3.7651	1.2613	25.23	0.23	0.750			
0.4325	27678.19	3.7620	3.7622	1.2876	25.21	0.21	0.750			
0.4364	27927.74	3.7590	3.7585	1.3022	25.20	0.20	0.750			
0.4402	28174.75	3.7560	3.7562	1.3253	25.19	0.19	0.750			
0.4442	28431.07	3.7530	3.7532	1.3717	25.17	0.17	0.750			
0.4484	28697.80	3.7500	3.7498	1.4174	25.15	0.15	0.750			
0.4527	28975.39	3.7470	3.7466	1.4395	25.14	0.14	0.750			
0.4572	29258.01	3.7440	3.7443	1.4804	25.12	0.12	0.750			
0.4617	29550.44	3.7410	3.7408	1.5252	25.11	0.11	0.750			
0.4663	29844.46	3.7380	3.7381	1.5525	25.09	0.09	0.750			
0.4711	30147.34	3.7350	3.7352	1.5869	25.08	0.08	0.750			
0.4757	30446.24	3.7320	3.7317	1.6238	25.06	0.06	0.750			
0.4806	30760.40	3.7290	3.7289	1.6668	25.05	0.05	0.750			
0.4858	31092.49	3.7260	3.7258	1.7168	25.03	0.03	0.750			
0.4910	31422.31	3.7230	3.7230	1.7649	25.02	0.02	0.750			
0.4963	31765.53	3.7200	3.7199	1.8131	25.01	0.01	0.750			
0.5018	32116.19	3.7170	3.7172	1.8784	24.99	-0.01	0.750			
0.5076	32487.35	3.7140	3.7140	1.9334	24.97	-0.03	0.750			
0.5135	32865.50	3.7110	3.7110	1.9871	24.96	-0.04	0.750			
0.5195	33247.65	3.7080	3.7081	2.0381	24.94	-0.06	0.750			
0.5258	33652.43	3.7050	3.7049	2.0942	24.93	-0.07	0.750			
0.5321	34055.58	3.7020	3.7019	2.1458	24.91	-0.09	0.750			
0.5387	34477.21	3.6990	3.6990	2.1944	24.89	-0.11	0.750			
0.5454	34908.76	3.6960	3.6961	2.2252	24.87	-0.13	0.750			
0.5522	35342.30	3.6930	3.6930	2.1615	24.86	-0.14	0.750			
0.5584	35739.90	3.6900	3.6902	2.1576	24.85	-0.15	0.750			
0.5649	36155.93	3.6870	3.6866	2.1761	24.84	-0.16	0.750			
0.5713	36564.66	3.6840	3.6835	2.3085	24.84	-0.16	0.750			
0.5789	37049.83	3.6810	3.6812	2.5571	24.84	-0.16	0.750			
0.5866	37539.26	3.6780	3.6781	2.5058	24.84	-0.16	0.750			
0.5943	38037.18	3.6750	3.6748	2.5092	24.84	-0.16	0.750			
0.6017	38511.47	3.6720	3.6719	2.4764	24.84	-0.16	0.750			
0.6089	38971.21	3.6690	3.6688	2.3204	24.84	-0.16	0.750			
0.6162	39439.04	3.6660	3.6662	2.2559	24.84	-0.16	0.750			
0.6224	39831.99	3.6630	3.6632	2.0482	24.85	-0.15	0.750			
0.6281	40197.22	3.6600	3.6596	1.8744	24.86	-0.14	0.750			
0.6333	40532.61	3.6570	3.6567	1.7137	24.87	-0.13	0.750			
0.6384	40856.59	3.6540	3.6544	1.6166	24.88	-0.12	0.750			
0.6430	41152.07	3.6510	3.6513	1.4916	24.89	-0.11	0.750			
0.6474	41430.91	3.6480	3.6481	1.3868	24.90	-0.10	0.750			
0.6514	41689.86	3.6450	3.6450	1.2540	24.91	-0.09	0.750			
0.6549	41914.57	3.6420	3.6421	1.1655	24.91	-0.09	0.750			
0.6582	42126.21	3.6390	3.6391	1.1096	24.92	-0.08	0.750			
0.6614	42330.63	3.6360	3.6354	1.0580	24.93	-0.07	0.750			
0.6645	42530.20	3.6330	3.6331	0.9923	24.94	-0.06	0.750			
0.6674	42714.30	3.6300	3.6302	0.9666	24.94	-0.06	0.750			
0.6703	42896.09	3.6270	3.6272	0.9441	24.95	-0.05	0.750			
0.6731	43076.92	3.6240	3.6241	0.9183	24.96	-0.04	0.750			
0.6757	43244.92	3.6210	3.6212	0.8720	24.97	-0.03	0.750			
0.6783	43411.21	3.6180	3.6182	0.8392	24.97	-0.03	0.750			
0.6809	43574.44	3.6150	3.6151	0.7961	24.98	-0.02	0.750			
0.6832	43725.19	3.6120	3.6121	0.7507	24.99	-0.01	0.750			
0.6853	43862.17	3.6090	3.6091	0.6872	25.00	-0.00	0.750			
0.6873	43989.03	3.6060	3.6047	0.6346	25.00	0.00	0.750			
0.6892	44107.31	3.6030	3.6031	0.5776	25.01	0.01	0.750			
0.6908	44213.97	3.6000	3.6001	0.5167	25.01	0.01	0.750			
0.6923	44308.56	3.5970	3.5971	0.4656	25.02	0.02	0.750			
0.6936	44388.89	3.5940	3.5943	0.4044	25.02	0.02	0.750			
0.6947	44458.82	3.5910	3.5913	0.3645	25.03	0.03	0.750			
0.6957	44526.79	3.5880	3.5881	0.3165	25.03	0.03	0.750			
0.6966	44583.49	3.5850	3.5855	0.2744	25.03	0.03	0.750			
0.6974	44633.29	3.5820	3.5827	0.2334	25.03	0.03	0.750			
0.6982	44682.25	3.5790	3.5791	0.1826	25.04	0.04	0.750			
0.6986	44707.44	3.5760	3.5767	0.1211	25.04	0.04	0.750			
0.6989	44726.57	3.5730	3.5738	0.0194	25.04	0.04	0.750			
