Ah_balance (normalized)	Ah_balance (mAh)	Voltage - fit (V)	Voltage -  interpolate (V)	dQ/dV (1/V)	Temperature (°C)	Temperature - diff (°C)	Current (C)	R_DC 0ms (mOhm)	R_DC 50ms (mOhm)	R_DC 50 ms PEC (mOhm)
0.0459	2936.67	4.1990	4.1991	0.7763	25.88	0.63	0.750			
0.0482	3086.36	4.1960	4.1961	0.7794	25.88	0.63	0.750			
0.0506	3237.82	4.1930	4.1931	0.7728	25.88	0.63	0.750			
0.0529	3382.49	4.1900	4.1900	0.7610	25.88	0.63	0.750			
0.0551	3525.55	4.1870	4.1871	0.7545	25.88	0.63	0.750			
0.0573	3669.93	4.1840	4.1840	0.7563	25.88	0.63	0.750			
0.0596	3815.77	4.1810	4.1810	0.7600	25.88	0.63	0.750			
0.0619	3962.79	4.1780	4.1781	0.7636	25.88	0.63	0.750			
0.0642	4110.64	4.1750	4.1751	0.7670	25.88	0.63	0.750			
0.0665	4258.63	4.1720	4.1720	0.7697	25.89	0.64	0.750			
0.0688	4404.34	4.1690	4.1690	0.7670	25.89	0.64	0.750			
0.0711	4552.35	4.1660	4.1659	0.7669	25.89	0.64	0.750			
0.0734	4700.54	4.1630	4.1630	0.7697	25.89	0.64	0.750			
0.0758	4850.22	4.1600	4.1600	0.7611	25.89	0.64	0.750			
0.0781	4996.29	4.1570	4.1570	0.7603	25.89	0.64	0.750			
0.0803	5139.00	4.1540	4.1541	0.7616	25.89	0.64	0.750			
0.0826	5285.17	4.1510	4.1510	0.7655	25.89	0.64	0.750			
0.0849	5431.81	4.1480	4.1481	0.7677	25.89	0.64	0.750			
0.0872	5581.01	4.1450	4.1452	0.7745	25.89	0.64	0.750			
0.0896	5731.61	4.1420	4.1420	0.7744	25.89	0.64	0.750			
0.0919	5880.90	4.1390	4.1390	0.7786	25.89	0.64	0.750			
0.0942	6027.62	4.1360	4.1360	0.7744	25.89	0.64	0.750			
0.0965	6175.93	4.1330	4.1326	0.7769	25.89	0.64	0.750			
0.0988	6326.37	4.1300	4.1301	0.7807	25.89	0.64	0.750			
0.1012	6477.94	4.1270	4.1269	0.7762	25.89	0.64	0.750			
0.1036	6627.51	4.1240	4.1241	0.7831	25.90	0.65	0.750			
0.1059	6777.94	4.1210	4.1210	0.7856	25.90	0.65	0.750			
0.1082	6926.31	4.1180	4.1179	0.7850	25.90	0.65	0.750			
0.1106	7078.01	4.1150	4.1151	0.7918	25.90	0.65	0.750			
0.1130	7233.14	4.1120	4.1119	0.7875	25.90	0.65	0.750			
0.1154	7384.51	4.1090	4.1091	0.7866	25.90	0.65	0.750			
0.1177	7534.79	4.1060	4.1060	0.7900	25.90	0.65	0.750			
0.1201	7685.87	4.1030	4.1031	0.7923	25.90	0.65	0.750			
0.1225	7837.32	4.1000	4.1001	0.7941	25.90	0.65	0.750			
0.1249	7990.75	4.0970	4.0972	0.7961	25.90	0.65	0.750			
0.1273	8145.93	4.0940	4.0940	0.7909	25.90	0.65	0.750			
0.1296	8296.37	4.0910	4.0911	0.7999	25.90	0.65	0.750			
0.1320	8446.81	4.0880	4.0881	0.8038	25.90	0.65	0.750			
0.1344	8601.57	4.0850	4.0846	0.8073	25.90	0.65	0.750			
0.1368	8758.09	4.0820	4.0821	0.8142	25.90	0.65	0.750			
0.1393	8916.24	4.0790	4.0792	0.8150	25.90	0.65	0.750			
0.1418	9076.48	4.0760	4.0760	0.8242	25.91	0.66	0.750			
0.1443	9232.06	4.0730	4.0730	0.8139	25.91	0.66	0.750			
0.1467	9388.16	4.0700	4.0698	0.8170	25.91	0.66	0.750			
0.1491	9544.69	4.0670	4.0671	0.8154	25.91	0.66	0.750			
0.1517	9707.99	4.0640	4.0638	0.7924	25.91	0.66	0.750			
0.1540	9855.65	4.0610	4.0611	0.8101	25.91	0.66	0.750			
0.1564	10009.21	4.0580	4.0582	0.8160	25.91	0.66	0.750			
0.1588	10162.49	4.0550	4.0543	0.8209	25.91	0.66	0.750			
0.1613	10322.44	4.0520	4.0522	0.8340	25.91	0.66	0.750			
0.1638	10484.87	4.0490	4.0492	0.8320	25.92	0.67	0.750			
0.1664	10646.54	4.0460	4.0462	0.8415	25.92	0.67	0.750			
0.1689	10809.21	4.0430	4.0431	0.8347	25.93	0.68	0.750			
0.1714	10969.61	4.0400	4.0393	0.8404	25.93	0.68	0.750			
0.1739	11131.23	4.0370	4.0371	0.8408	25.93	0.68	0.750			
0.1765	11293.49	4.0340	4.0341	0.8476	25.93	0.68	0.750			
0.1791	11461.26	4.0310	4.0310	0.8548	25.93	0.68	0.750			
0.1817	11627.70	4.0280	4.0280	0.8573	25.93	0.68	0.750			
0.1841	11785.59	4.0250	4.0249	0.8472	25.93	0.68	0.750			
0.1867	11948.63	4.0220	4.0219	0.8519	25.93	0.68	0.750			
0.1892	12111.73	4.0190	4.0190	0.8450	25.93	0.68	0.750			
0.1918	12272.38	4.0160	4.0161	0.8499	25.93	0.68	0.750			
0.1943	12433.80	4.0130	4.0131	0.8593	25.93	0.68	0.750			
0.1969	12600.52	4.0100	4.0094	0.8677	25.93	0.68	0.750			
0.1995	12769.88	4.0070	4.0071	0.8637	25.93	0.68	0.750			
0.2021	12936.11	4.0040	4.0042	0.8690	25.93	0.68	0.750			
0.2048	13106.09	4.0010	4.0012	0.8784	25.94	0.69	0.750			
0.2074	13272.14	3.9980	3.9981	0.8677	25.94	0.69	0.750			
0.2100	13438.81	3.9950	3.9950	0.8712	25.94	0.69	0.750			
0.2126	13607.30	3.9920	3.9921	0.8707	25.94	0.69	0.750			
0.2153	13776.46	3.9890	3.9891	0.8812	25.95	0.70	0.750			
0.2179	13945.95	3.9860	3.9860	0.8874	25.95	0.70	0.750			
0.2205	14115.14	3.9830	3.9829	0.8851	25.95	0.70	0.750			
0.2232	14286.25	3.9800	3.9800	0.8865	25.95	0.70	0.750			
0.2259	14459.87	3.9770	3.9770	0.8769	25.95	0.70	0.750			
0.2285	14625.04	3.9740	3.9741	0.8839	25.95	0.70	0.750			
0.2311	14792.95	3.9710	3.9711	0.8943	25.95	0.70	0.750			
0.2338	14962.30	3.9680	3.9673	0.8966	25.95	0.70	0.750			
0.2365	15138.29	3.9650	3.9650	0.8940	25.95	0.70	0.750			
0.2393	15312.27	3.9620	3.9622	0.9012	25.96	0.71	0.750			
0.2420	15486.26	3.9590	3.9592	0.9069	25.96	0.71	0.750			
0.2448	15664.63	3.9560	3.9561	0.9199	25.97	0.72	0.750			
0.2474	15831.75	3.9530	3.9531	0.8986	25.97	0.72	0.750			
0.2501	16006.15	3.9500	3.9500	0.8984	25.97	0.72	0.750			
0.2528	16178.87	3.9470	3.9471	0.9061	25.97	0.72	0.750			
0.2555	16354.85	3.9440	3.9441	0.9124	25.97	0.72	0.750			
0.2583	16530.07	3.9410	3.9409	0.9071	25.97	0.72	0.750			
0.2609	16700.08	3.9380	3.9380	0.9229	25.97	0.72	0.750			
0.2637	16879.62	3.9350	3.9351	0.9462	25.97	0.72	0.750			
0.2666	17064.21	3.9320	3.9319	0.9618	25.97	0.72	0.750			
0.2696	17255.53	3.9290	3.9295	0.9696	25.97	0.72	0.750			
0.2726	17443.66	3.9260	3.9261	0.9658	25.97	0.72	0.750			
0.2755	17634.60	3.9230	3.9230	0.9558	25.96	0.71	0.750			
0.2783	17811.55	3.9200	3.9201	0.9415	25.96	0.71	0.750			
0.2810	17986.90	3.9170	3.9170	0.9260	25.95	0.70	0.750			
0.2838	18162.10	3.9140	3.9137	0.9199	25.95	0.70	0.750			
0.2865	18339.00	3.9110	3.9111	0.9192	25.95	0.70	0.750			
0.2893	18515.45	3.9080	3.9082	0.9220	25.95	0.70	0.750			
0.2921	18695.28	3.9050	3.9050	0.9306	25.95	0.70	0.750			
0.2949	18872.43	3.9020	3.9020	0.9269	25.95	0.70	0.750			
0.2977	19050.92	3.8990	3.8990	0.9291	25.95	0.70	0.750			
0.3005	19232.11	3.8960	3.8960	0.9234	25.94	0.69	0.750			
0.3032	19406.43	3.8930	3.8931	0.9280	25.94	0.69	0.750			
0.3060	19584.10	3.8900	3.8902	0.9313	25.93	0.68	0.750			
0.3088	19762.97	3.8870	3.8865	0.9305	25.93	0.68	0.750			
0.3116	19943.70	3.8840	3.8841	0.9233	25.93	0.68	0.750			
0.3144	20119.83	3.8810	3.8811	0.9317	25.92	0.67	0.750			
0.3172	20301.27	3.8780	3.8781	0.9397	25.92	0.67	0.750			
0.3200	20479.84	3.8750	3.8750	0.9334	25.91	0.66	0.750			
0.3228	20658.30	3.8720	3.8721	0.9373	25.91	0.66	0.750			
0.3256	20840.43	3.8690	3.8691	0.9360	25.90	0.65	0.750			
0.3284	21020.57	3.8660	3.8661	0.9431	25.89	0.64	0.750			
0.3313	21203.15	3.8630	3.8630	0.9469	25.88	0.63	0.750			
0.3341	21383.10	3.8600	3.8597	0.9396	25.87	0.62	0.750			
0.3370	21566.19	3.8570	3.8571	0.9329	25.86	0.61	0.750			
0.3397	21742.94	3.8540	3.8541	0.9391	25.85	0.60	0.750			
0.3426	21923.59	3.8510	3.8511	0.9434	25.84	0.59	0.750			
0.3454	22103.62	3.8480	3.8479	0.9429	25.83	0.58	0.750			
0.3482	22286.09	3.8450	3.8450	0.9486	25.82	0.57	0.750			
0.3511	22469.04	3.8420	3.8421	0.9613	25.82	0.57	0.750			
0.3540	22657.02	3.8390	3.8390	0.9673	25.81	0.56	0.750			
0.3569	22844.34	3.8360	3.8359	0.9692	25.80	0.55	0.750	0.332	0.443	
0.3599	23030.42	3.8330	3.8331	0.9714	25.79	0.54	0.750			
0.3628	23216.79	3.8300	3.8300	0.9751	25.78	0.53	0.750			
0.3657	23403.89	3.8270	3.8270	0.9780	25.77	0.52	0.750			
0.3686	23590.69	3.8240	3.8241	0.9861	25.76	0.51	0.750			
0.3716	23781.05	3.8210	3.8210	0.9951	25.75	0.50	0.750			
0.3746	23974.11	3.8180	3.8180	1.0027	25.74	0.49	0.750			
0.3776	24167.02	3.8150	3.8150	1.0079	25.73	0.48	0.750			
0.3807	24361.76	3.8120	3.8120	1.0172	25.71	0.46	0.750			
0.3837	24557.95	3.8090	3.8089	1.0260	25.70	0.45	0.750			
0.3868	24755.43	3.8060	3.8060	1.0296	25.69	0.44	0.750			
0.3899	24951.05	3.8030	3.8031	1.0417	25.68	0.43	0.750			
0.3930	25151.41	3.8000	3.8000	1.0561	25.66	0.41	0.750			
0.3962	25357.61	3.7970	3.7968	1.0677	25.65	0.40	0.750			
0.3994	25562.84	3.7940	3.7940	1.0820	25.64	0.39	0.750			
0.4027	25771.52	3.7910	3.7911	1.0971	25.63	0.38	0.750			
0.4060	25984.25	3.7880	3.7880	1.1161	25.62	0.37	0.750			
0.4094	26201.29	3.7850	3.7849	1.1222	25.61	0.36	0.750			
0.4127	26415.84	3.7820	3.7820	1.1427	25.60	0.35	0.750			
0.4162	26635.55	3.7790	3.7791	1.1654	25.59	0.34	0.750			
0.4198	26864.63	3.7760	3.7760	1.1823	25.58	0.33	0.750			
0.4233	27091.81	3.7730	3.7730	1.2023	25.56	0.31	0.750			
0.4269	27324.06	3.7700	3.7701	1.2322	25.54	0.29	0.750			
0.4307	27562.43	3.7670	3.7671	1.2586	25.53	0.28	0.750			
0.4345	27809.23	3.7640	3.7638	1.2862	25.51	0.26	0.750			
0.4384	28054.98	3.7610	3.7611	1.3064	25.50	0.25	0.750			
0.4423	28307.96	3.7580	3.7581	1.3373	25.48	0.23	0.750			
0.4464	28569.12	3.7550	3.7549	1.3591	25.47	0.22	0.750			
0.4504	28828.17	3.7520	3.7521	1.3865	25.45	0.20	0.750			
0.4547	29098.06	3.7490	3.7491	1.4195	25.44	0.19	0.750			
0.4590	29373.48	3.7460	3.7456	1.4504	25.42	0.17	0.750			
0.4633	29653.22	3.7430	3.7432	1.4780	25.41	0.16	0.750			
0.4678	29939.77	3.7400	3.7402	1.5196	25.39	0.14	0.750			
0.4725	30238.57	3.7370	3.7366	1.5548	25.38	0.13	0.750			
0.4772	30540.31	3.7340	3.7338	1.6083	25.36	0.11	0.750			
0.4820	30848.28	3.7310	3.7312	1.6454	25.35	0.10	0.750			
0.4871	31175.69	3.7280	3.7281	1.7083	25.33	0.08	0.750			
0.4923	31507.84	3.7250	3.7250	1.7393	25.31	0.06	0.750			
0.4976	31848.51	3.7220	3.7222	1.8020	25.30	0.05	0.750			
0.5031	32195.32	3.7190	3.7193	1.8495	25.28	0.03	0.750			
0.5087	32555.83	3.7160	3.7159	1.8942	25.27	0.02	0.750			
0.5143	32915.61	3.7130	3.7132	1.9404	25.25	-0.00	0.750			
0.5202	33295.29	3.7100	3.7101	1.9987	25.22	-0.03	0.750			
0.5264	33687.89	3.7070	3.7069	2.0618	25.21	-0.04	0.750			
0.5326	34089.09	3.7040	3.7041	2.1103	25.19	-0.06	0.750			
0.5390	34499.09	3.7010	3.7011	2.1956	25.18	-0.07	0.750			
0.5459	34935.42	3.6980	3.6980	2.2176	25.17	-0.08	0.750			
0.5526	35366.05	3.6950	3.6949	2.3049	25.16	-0.09	0.750			
0.5595	35810.05	3.6920	3.6923	2.3820	25.14	-0.11	0.750			
0.5667	36271.39	3.6890	3.6890	2.4471	25.13	-0.12	0.750			
0.5742	36750.69	3.6860	3.6860	2.5024	25.12	-0.13	0.750			
0.5821	37251.84	3.6830	3.6828	2.5874	25.10	-0.15	0.750			
0.5897	37740.63	3.6800	3.6799	2.6169	25.09	-0.16	0.750			
0.5976	38244.63	3.6770	3.6771	2.6746	25.08	-0.17	0.750			
0.6056	38758.95	3.6740	3.6742	2.6713	25.08	-0.17	0.750			
0.6137	39279.12	3.6710	3.6711	2.6190	25.08	-0.17	0.750			
0.6219	39803.86	3.6680	3.6679	2.4949	25.08	-0.17	0.750			
0.6291	40260.54	3.6650	3.6647	2.2752	25.08	-0.17	0.750			
0.6355	40670.82	3.6620	3.6623	2.0823	25.08	-0.17	0.750			
0.6411	41029.32	3.6590	3.6589	1.8607	25.09	-0.16	0.750			
0.6465	41375.45	3.6560	3.6553	1.7887	25.10	-0.15	0.750			
0.6517	41706.31	3.6530	3.6534	1.6875	25.11	-0.14	0.750			
0.6568	42032.15	3.6500	3.6505	1.5918	25.12	-0.13	0.750			
0.6615	42334.05	3.6470	3.6473	1.4838	25.12	-0.13	0.750			
0.6659	42615.12	3.6440	3.6441	1.3740	25.13	-0.12	0.750			
0.6698	42867.12	3.6410	3.6409	1.2601	25.14	-0.11	0.750			
0.6733	43090.35	3.6380	3.6379	1.1412	25.14	-0.11	0.750			
0.6764	43287.94	3.6350	3.6350	1.0543	25.15	-0.10	0.750			
0.6793	43478.27	3.6320	3.6321	1.0077	25.16	-0.09	0.750			
0.6823	43664.46	3.6290	3.6291	0.9727	25.17	-0.08	0.750			
0.6851	43844.95	3.6260	3.6261	0.9423	25.17	-0.08	0.750			
0.6879	44023.85	3.6230	3.6231	0.9218	25.18	-0.07	0.750			
0.6906	44199.93	3.6200	3.6201	0.8885	25.19	-0.06	0.750			
0.6933	44369.67	3.6170	3.6171	0.8576	25.19	-0.06	0.750			
0.6958	44534.01	3.6140	3.6142	0.8032	25.20	-0.05	0.750			
0.6982	44684.86	3.6110	3.6112	0.7580	25.21	-0.04	0.750			
0.7004	44826.41	3.6080	3.6082	0.7066	25.22	-0.03	0.750			
0.7025	44958.48	3.6050	3.6052	0.6507	25.22	-0.03	0.750			
0.7045	45084.85	3.6020	3.6021	0.5950	25.23	-0.02	0.750			
0.7060	45185.77	3.5990	3.5991	0.5051	25.24	-0.01	0.750			
0.7074	45274.69	3.5960	3.5963	0.4542	25.24	-0.01	0.750			
0.7087	45354.75	3.5930	3.5932	0.4022	25.25	-0.00	0.750			
0.7098	45426.91	3.5900	3.5902	0.3418	25.25	0.00	0.750			
0.7107	45487.30	3.5870	3.5875	0.2909	25.26	0.01	0.750			
0.7115	45538.90	3.5840	3.5846	0.2444	25.26	0.01	0.750			
0.7122	45583.87	3.5810	3.5816	0.1982	25.26	0.01	0.750			
0.7130	45631.99	3.5780	3.5773	0.1347	25.27	0.02	0.750			
0.7131	45640.67	3.5750	3.5762	0.0751	25.27	0.02	0.750			
0.7133	45649.92	3.5720	3.5747	0.0138	25.27	0.02	0.750			
