Ah_balance (normalized)	Ah_balance (mAh)	Voltage - fit (V)	Voltage -  interpolate (V)	dQ/dV (1/V)	Temperature (°C)	Temperature - diff (°C)	Current (C)	R_DC 0ms (mOhm)	R_DC 50ms (mOhm)	R_DC 50 ms PEC (mOhm)
0.0492	3151.57	4.1970	4.1970	0.7200	26.01	0.45	0.750			
0.0514	3291.79	4.1940	4.1939	0.7365	26.01	0.45	0.750			
0.0537	3435.43	4.1910	4.1910	0.7454	26.01	0.45	0.750			
0.0560	3582.01	4.1880	4.1880	0.7399	26.01	0.45	0.750			
0.0582	3723.95	4.1850	4.1850	0.7460	26.00	0.44	0.750			
0.0604	3865.08	4.1820	4.1821	0.7474	26.00	0.44	0.750			
0.0626	4007.18	4.1790	4.1791	0.7496	26.00	0.44	0.750			
0.0649	4152.36	4.1760	4.1761	0.7554	26.00	0.44	0.750			
0.0672	4297.68	4.1730	4.1731	0.7608	26.00	0.44	0.750			
0.0695	4446.28	4.1700	4.1700	0.7594	26.00	0.44	0.750			
0.0718	4594.88	4.1670	4.1669	0.7613	26.01	0.45	0.750			
0.0740	4737.07	4.1640	4.1641	0.7565	26.01	0.45	0.750			
0.0763	4882.10	4.1610	4.1607	0.7594	26.01	0.45	0.750			
0.0786	5028.06	4.1580	4.1580	0.7606	26.01	0.45	0.750			
0.0809	5175.62	4.1550	4.1551	0.7581	26.01	0.45	0.750			
0.0832	5323.71	4.1520	4.1519	0.7555	26.02	0.46	0.750			
0.0854	5467.77	4.1490	4.1490	0.7621	26.02	0.46	0.750			
0.0877	5611.94	4.1460	4.1460	0.7586	26.02	0.46	0.750			
0.0899	5756.60	4.1430	4.1432	0.7632	26.02	0.46	0.750			
0.0922	5903.66	4.1400	4.1402	0.7665	26.02	0.46	0.750			
0.0945	6050.99	4.1370	4.1371	0.7661	26.02	0.46	0.750			
0.0969	6199.01	4.1340	4.1342	0.7729	26.01	0.45	0.750			
0.0992	6347.86	4.1310	4.1310	0.7772	26.01	0.45	0.750			
0.1015	6494.81	4.1280	4.1277	0.7755	26.01	0.45	0.750			
0.1038	6645.19	4.1250	4.1252	0.7791	26.01	0.45	0.750			
0.1062	6795.48	4.1220	4.1220	0.7753	26.01	0.45	0.750			
0.1085	6947.18	4.1190	4.1190	0.7811	26.02	0.46	0.750			
0.1108	7094.01	4.1160	4.1161	0.7758	26.02	0.46	0.750			
0.1132	7242.75	4.1130	4.1127	0.7809	26.02	0.46	0.750			
0.1155	7394.04	4.1100	4.1100	0.7820	26.02	0.46	0.750			
0.1179	7544.38	4.1070	4.1070	0.7838	26.02	0.46	0.750			
0.1202	7695.64	4.1040	4.1041	0.7878	26.03	0.47	0.750			
0.1226	7848.99	4.1010	4.1009	0.7931	26.03	0.47	0.750			
0.1250	7998.63	4.0980	4.0979	0.7876	26.03	0.47	0.750			
0.1274	8150.56	4.0950	4.0951	0.7884	26.03	0.47	0.750			
0.1297	8301.93	4.0920	4.0920	0.7917	26.03	0.47	0.750			
0.1321	8453.60	4.0890	4.0890	0.7867	26.03	0.47	0.750			
0.1344	8602.57	4.0860	4.0860	0.7857	26.03	0.47	0.750			
0.1368	8752.10	4.0830	4.0831	0.7905	26.03	0.47	0.750			
0.1391	8904.24	4.0800	4.0796	0.7976	26.03	0.47	0.750			
0.1415	9059.10	4.0770	4.0771	0.8056	26.03	0.47	0.750			
0.1440	9214.14	4.0740	4.0741	0.8166	26.03	0.47	0.750			
0.1465	9373.71	4.0710	4.0710	0.8262	26.04	0.48	0.750			
0.1490	9533.41	4.0680	4.0681	0.8219	26.04	0.48	0.750			
0.1515	9693.84	4.0650	4.0648	0.8247	26.04	0.48	0.750			
0.1539	9852.45	4.0620	4.0621	0.8216	26.04	0.48	0.750			
0.1564	10010.46	4.0590	4.0590	0.8180	26.04	0.48	0.750			
0.1588	10164.75	4.0560	4.0560	0.8171	26.04	0.48	0.750			
0.1613	10320.98	4.0530	4.0530	0.8155	26.04	0.48	0.750			
0.1637	10477.59	4.0500	4.0499	0.8173	26.04	0.48	0.750			
0.1662	10634.69	4.0470	4.0470	0.8232	26.04	0.48	0.750			
0.1687	10795.01	4.0440	4.0440	0.8229	26.04	0.48	0.750			
0.1711	10951.89	4.0410	4.0409	0.8224	26.05	0.49	0.750			
0.1736	11109.27	4.0380	4.0381	0.8237	26.05	0.49	0.750			
0.1760	11266.56	4.0350	4.0347	0.8283	26.05	0.49	0.750			
0.1785	11426.13	4.0320	4.0320	0.8332	26.05	0.49	0.750			
0.1810	11586.77	4.0290	4.0290	0.8352	26.05	0.49	0.750			
0.1835	11747.08	4.0260	4.0261	0.8401	26.05	0.49	0.750			
0.1861	11908.83	4.0230	4.0230	0.8424	26.05	0.49	0.750			
0.1886	12072.19	4.0200	4.0197	0.8464	26.05	0.49	0.750			
0.1912	12235.31	4.0170	4.0170	0.8458	26.05	0.49	0.750			
0.1937	12397.65	4.0140	4.0141	0.8493	26.05	0.49	0.750			
0.1963	12562.25	4.0110	4.0110	0.8537	26.05	0.49	0.750			
0.1988	12725.35	4.0080	4.0080	0.8522	26.05	0.49	0.750			
0.2014	12888.87	4.0050	4.0049	0.8546	26.05	0.49	0.750			
0.2040	13054.75	4.0020	4.0020	0.8513	26.05	0.49	0.750			
0.2065	13218.33	3.9990	3.9990	0.8558	26.06	0.50	0.750			
0.2091	13382.19	3.9960	3.9960	0.8542	26.06	0.50	0.750			
0.2116	13545.54	3.9930	3.9930	0.8517	26.07	0.51	0.750			
0.2142	13708.76	3.9900	3.9900	0.8534	26.07	0.51	0.750			
0.2168	13873.66	3.9870	3.9870	0.8537	26.07	0.51	0.750			
0.2193	14037.37	3.9840	3.9839	0.8587	26.07	0.51	0.750			
0.2219	14202.45	3.9810	3.9810	0.8673	26.07	0.51	0.750			
0.2245	14368.21	3.9780	3.9781	0.8692	26.07	0.51	0.750			
0.2272	14537.82	3.9750	3.9750	0.8721	26.07	0.51	0.750			
0.2298	14706.56	3.9720	3.9720	0.8698	26.07	0.51	0.750			
0.2324	14873.29	3.9690	3.9691	0.8704	26.07	0.51	0.750			
0.2350	15040.39	3.9660	3.9660	0.8690	26.07	0.51	0.750			
0.2376	15205.78	3.9630	3.9629	0.8655	26.07	0.51	0.750			
0.2402	15371.95	3.9600	3.9600	0.8648	26.07	0.51	0.750			
0.2428	15538.66	3.9570	3.9570	0.8630	26.07	0.51	0.750			
0.2454	15703.51	3.9540	3.9540	0.8673	26.06	0.50	0.750			
0.2479	15868.75	3.9510	3.9511	0.8691	26.06	0.50	0.750			
0.2506	16037.43	3.9480	3.9478	0.8683	26.06	0.50	0.750			
0.2532	16204.56	3.9450	3.9450	0.8682	26.06	0.50	0.750			
0.2558	16371.51	3.9420	3.9421	0.8654	26.06	0.50	0.750			
0.2584	16538.74	3.9390	3.9390	0.8663	26.05	0.49	0.750			
0.2610	16702.91	3.9360	3.9360	0.8626	26.05	0.49	0.750			
0.2636	16867.98	3.9330	3.9327	0.8634	26.05	0.49	0.750			
0.2662	17034.60	3.9300	3.9300	0.8640	26.05	0.49	0.750			
0.2688	17203.59	3.9270	3.9270	0.8599	26.05	0.49	0.750			
0.2714	17369.56	3.9240	3.9240	0.8549	26.05	0.49	0.750			
0.2739	17532.67	3.9210	3.9211	0.8487	26.05	0.49	0.750			
0.2764	17692.34	3.9180	3.9179	0.8425	26.05	0.49	0.750			
0.2789	17851.85	3.9150	3.9150	0.8430	26.05	0.49	0.750			
0.2814	18012.23	3.9120	3.9120	0.8365	26.04	0.48	0.750			
0.2839	18170.75	3.9090	3.9091	0.8469	26.04	0.48	0.750			
0.2865	18335.31	3.9060	3.9061	0.8621	26.03	0.47	0.750			
0.2891	18501.46	3.9030	3.9026	0.8670	26.03	0.47	0.750			
0.2917	18670.79	3.9000	3.9001	0.8666	26.02	0.46	0.750			
0.2943	18838.39	3.8970	3.8971	0.8729	26.02	0.46	0.750			
0.2970	19009.19	3.8940	3.8941	0.8760	26.01	0.45	0.750			
0.2996	19174.40	3.8910	3.8911	0.8681	26.00	0.44	0.750			
0.3022	19340.54	3.8880	3.8881	0.8698	26.00	0.44	0.750			
0.3048	19509.40	3.8850	3.8850	0.8705	25.99	0.43	0.750			
0.3075	19678.20	3.8820	3.8820	0.8747	25.98	0.42	0.750			
0.3101	19845.72	3.8790	3.8791	0.8740	25.98	0.42	0.750			
0.3127	20012.93	3.8760	3.8760	0.8704	25.97	0.41	0.750			
0.3153	20179.90	3.8730	3.8730	0.8748	25.97	0.41	0.750			
0.3180	20349.75	3.8700	3.8699	0.8593	25.96	0.40	0.750			
0.3205	20512.43	3.8670	3.8671	0.8678	25.96	0.40	0.750			
0.3231	20677.23	3.8640	3.8641	0.8795	25.95	0.39	0.750			
0.3257	20845.01	3.8610	3.8608	0.8841	25.95	0.39	0.750			
0.3284	21016.11	3.8580	3.8581	0.8947	25.94	0.38	0.750			
0.3311	21189.58	3.8550	3.8551	0.8889	25.93	0.37	0.750			
0.3337	21358.85	3.8520	3.8522	0.8985	25.93	0.37	0.750			
0.3365	21534.55	3.8490	3.8491	0.9206	25.92	0.36	0.750			
0.3391	21704.53	3.8460	3.8457	0.9102	25.91	0.35	0.750			
0.3419	21881.70	3.8430	3.8432	0.9177	25.90	0.34	0.750	0.339	0.471	
0.3447	22061.01	3.8400	3.8402	0.9342	25.90	0.34	0.750			
0.3476	22244.39	3.8370	3.8370	0.9423	25.89	0.33	0.750			
0.3504	22425.53	3.8340	3.8339	0.9414	25.88	0.32	0.750			
0.3533	22608.54	3.8310	3.8309	0.9282	25.87	0.31	0.750			
0.3560	22784.23	3.8280	3.8281	0.9403	25.86	0.30	0.750			
0.3588	22963.60	3.8250	3.8250	0.9526	25.86	0.30	0.750			
0.3617	23147.31	3.8220	3.8222	0.9658	25.85	0.29	0.750			
0.3646	23331.88	3.8190	3.8189	0.9741	25.84	0.28	0.750			
0.3675	23521.16	3.8160	3.8162	0.9833	25.83	0.27	0.750			
0.3705	23711.72	3.8130	3.8130	0.9966	25.82	0.26	0.750			
0.3735	23905.47	3.8100	3.8101	1.0097	25.82	0.26	0.750			
0.3765	24099.07	3.8070	3.8072	1.0096	25.81	0.25	0.750			
0.3796	24293.51	3.8040	3.8040	1.0222	25.80	0.24	0.750			
0.3827	24491.87	3.8010	3.8010	1.0385	25.79	0.23	0.750			
0.3858	24693.37	3.7980	3.7980	1.0539	25.78	0.22	0.750			
0.3890	24895.82	3.7950	3.7950	1.0639	25.77	0.21	0.750			
0.3922	25102.04	3.7920	3.7920	1.0689	25.76	0.20	0.750			
0.3954	25306.79	3.7890	3.7891	1.0853	25.75	0.19	0.750			
0.3987	25516.27	3.7860	3.7861	1.1025	25.74	0.18	0.750			
0.4021	25731.32	3.7830	3.7831	1.1101	25.73	0.17	0.750			
0.4053	25942.21	3.7800	3.7801	1.1335	25.72	0.16	0.750			
0.4088	26160.81	3.7770	3.7771	1.1617	25.71	0.15	0.750			
0.4123	26388.98	3.7740	3.7741	1.1861	25.69	0.13	0.750			
0.4159	26617.71	3.7710	3.7711	1.2066	25.68	0.12	0.750			
0.4196	26852.58	3.7680	3.7681	1.2314	25.67	0.11	0.750			
0.4233	27092.60	3.7650	3.7651	1.2576	25.66	0.10	0.750			
0.4272	27341.32	3.7620	3.7620	1.2680	25.65	0.09	0.750			
0.4309	27576.40	3.7590	3.7591	1.2889	25.64	0.08	0.750			
0.4347	27821.92	3.7560	3.7562	1.3214	25.64	0.08	0.750			
0.4387	28079.32	3.7530	3.7522	1.3484	25.63	0.07	0.750			
0.4428	28338.62	3.7500	3.7502	1.3885	25.62	0.06	0.750			
0.4471	28612.82	3.7470	3.7472	1.4239	25.60	0.04	0.750			
0.4516	28899.92	3.7440	3.7436	1.4498	25.59	0.03	0.750			
0.4558	29172.64	3.7410	3.7412	1.4755	25.58	0.02	0.750			
0.4603	29459.92	3.7380	3.7382	1.5117	25.57	0.01	0.750			
0.4649	29755.07	3.7350	3.7351	1.5426	25.56	-0.00	0.750			
0.4696	30057.18	3.7320	3.7319	1.5817	25.55	-0.01	0.750			
0.4742	30350.08	3.7290	3.7292	1.6091	25.53	-0.03	0.750			
0.4792	30666.22	3.7260	3.7257	1.6558	25.52	-0.04	0.750			
0.4842	30987.25	3.7230	3.7228	1.7532	25.51	-0.05	0.750			
0.4895	31327.81	3.7200	3.7196	1.8118	25.50	-0.06	0.750			
0.4953	31697.58	3.7170	3.7167	1.8684	25.48	-0.08	0.750			
0.5009	32058.48	3.7140	3.7141	1.9073	25.47	-0.09	0.750			
0.5066	32422.23	3.7110	3.7113	1.9485	25.46	-0.10	0.750			
0.5124	32791.82	3.7080	3.7082	2.0126	25.45	-0.11	0.750			
0.5185	33186.93	3.7050	3.7054	2.0413	25.44	-0.12	0.750			
0.5249	33596.49	3.7020	3.7020	2.1528	25.42	-0.14	0.750			
0.5314	34011.53	3.6990	3.6988	2.1959	25.41	-0.15	0.750			
0.5379	34427.89	3.6960	3.6961	2.2597	25.40	-0.16	0.750			
0.5448	34867.47	3.6930	3.6929	2.2650	25.39	-0.17	0.750			
0.5517	35310.28	3.6900	3.6899	2.3229	25.38	-0.18	0.750			
0.5589	35767.66	3.6870	3.6870	2.2656	25.38	-0.18	0.750			
0.5658	36208.05	3.6840	3.6839	2.2800	25.38	-0.18	0.750			
0.5729	36664.31	3.6810	3.6809	2.2394	25.37	-0.19	0.750			
0.5798	37104.56	3.6780	3.6783	2.2695	25.37	-0.19	0.750			
0.5866	37545.35	3.6750	3.6754	2.1824	25.38	-0.18	0.750			
0.5928	37936.85	3.6720	3.6723	2.0509	25.38	-0.18	0.750			
0.5987	38313.89	3.6690	3.6697	1.9306	25.38	-0.18	0.750			
0.6046	38693.72	3.6660	3.6661	1.8773	25.39	-0.17	0.750			
0.6100	39037.26	3.6630	3.6631	1.6913	25.40	-0.16	0.750			
0.6150	39358.61	3.6600	3.6601	1.6020	25.41	-0.15	0.750			
0.6196	39655.26	3.6570	3.6571	1.4978	25.42	-0.14	0.750			
0.6237	39919.08	3.6540	3.6541	1.3891	25.43	-0.13	0.750			
0.6278	40176.53	3.6510	3.6510	1.2806	25.43	-0.13	0.750			
0.6314	40409.55	3.6480	3.6482	1.2188	25.44	-0.12	0.750			
0.6349	40636.76	3.6450	3.6452	1.1658	25.45	-0.11	0.750			
0.6384	40857.42	3.6420	3.6413	1.1180	25.46	-0.10	0.750			
0.6416	41062.69	3.6390	3.6392	1.0557	25.46	-0.10	0.750			
0.6447	41260.09	3.6360	3.6361	1.0127	25.47	-0.09	0.750			
0.6477	41452.74	3.6330	3.6331	0.9789	25.47	-0.09	0.750			
0.6507	41642.68	3.6300	3.6298	0.9470	25.48	-0.08	0.750			
0.6533	41810.93	3.6270	3.6271	0.8987	25.49	-0.07	0.750			
0.6560	41983.89	3.6240	3.6240	0.8536	25.50	-0.06	0.750			
0.6585	42142.76	3.6210	3.6210	0.8316	25.50	-0.06	0.750			
0.6609	42299.14	3.6180	3.6180	0.8009	25.51	-0.05	0.750			
0.6633	42449.81	3.6150	3.6146	0.7668	25.52	-0.04	0.750			
0.6655	42594.09	3.6120	3.6122	0.7286	25.53	-0.03	0.750			
0.6677	42733.70	3.6090	3.6091	0.6887	25.53	-0.03	0.750			
0.6697	42863.31	3.6060	3.6061	0.6406	25.54	-0.02	0.750			
0.6717	42985.90	3.6030	3.6030	0.5741	25.55	-0.01	0.750			
0.6733	43088.69	3.6000	3.6001	0.5265	25.55	-0.01	0.750			
0.6747	43183.21	3.5970	3.5971	0.4770	25.56	-0.00	0.750			
0.6761	43269.34	3.5940	3.5933	0.4314	25.56	-0.00	0.750			
0.6773	43347.70	3.5910	3.5912	0.3851	25.56	0.00	0.750			
0.6784	43417.01	3.5880	3.5882	0.3421	25.57	0.01	0.750			
0.6794	43481.98	3.5850	3.5851	0.2980	25.57	0.01	0.750			
0.6803	43537.42	3.5820	3.5817	0.2507	25.57	0.01	0.750			
0.6809	43576.48	3.5790	3.5790	0.1899	25.58	0.02	0.750			
0.6814	43607.86	3.5760	3.5764	0.1371	25.58	0.02	0.750			
0.6817	43629.09	3.5730	3.5740	0.0845	25.58	0.02	0.750			
0.6819	43640.30	3.5700	3.5713	0.0210	25.58	0.02	0.750			
