Ah_balance (normalized)	Ah_balance (mAh)	Voltage - fit (V)	Voltage -  interpolate (V)	dQ/dV (1/V)	Temperature (°C)	Temperature - diff (°C)	Current (C)	R_DC 0ms (mOhm)	R_DC 50ms (mOhm)	R_DC 50 ms PEC (mOhm)
0.0484	3095.13	4.1970	4.1970	0.7501	25.41	0.43	0.750			
0.0506	3238.97	4.1940	4.1940	0.7485	25.41	0.43	0.750			
0.0528	3381.86	4.1910	4.1912	0.7482	25.41	0.43	0.750			
0.0551	3525.21	4.1880	4.1880	0.7520	25.41	0.43	0.750			
0.0574	3673.05	4.1850	4.1849	0.7459	25.41	0.43	0.750			
0.0596	3814.23	4.1820	4.1820	0.7446	25.41	0.43	0.750			
0.0618	3957.52	4.1790	4.1791	0.7543	25.42	0.44	0.750			
0.0641	4099.56	4.1760	4.1761	0.7575	25.42	0.44	0.750			
0.0664	4247.00	4.1730	4.1722	0.7580	25.42	0.44	0.750			
0.0686	4392.41	4.1700	4.1701	0.7623	25.42	0.44	0.750			
0.0710	4541.76	4.1670	4.1670	0.7569	25.42	0.44	0.750			
0.0732	4687.94	4.1640	4.1640	0.7606	25.42	0.44	0.750			
0.0755	4831.63	4.1610	4.1610	0.7568	25.42	0.44	0.750			
0.0778	4976.53	4.1580	4.1581	0.7601	25.42	0.44	0.750			
0.0800	5121.98	4.1550	4.1551	0.7612	25.42	0.44	0.750			
0.0823	5270.17	4.1520	4.1521	0.7685	25.42	0.44	0.750			
0.0847	5418.37	4.1490	4.1490	0.7668	25.42	0.44	0.750			
0.0870	5566.75	4.1460	4.1460	0.7715	25.43	0.45	0.750			
0.0893	5712.70	4.1430	4.1430	0.7684	25.43	0.45	0.750			
0.0916	5860.83	4.1400	4.1397	0.7732	25.43	0.45	0.750			
0.0939	6009.97	4.1370	4.1370	0.7758	25.43	0.45	0.750			
0.0963	6161.78	4.1340	4.1340	0.7686	25.43	0.45	0.750			
0.0986	6308.83	4.1310	4.1310	0.7732	25.43	0.45	0.750			
0.1009	6455.77	4.1280	4.1281	0.7697	25.43	0.45	0.750			
0.1032	6605.11	4.1250	4.1251	0.7631	25.43	0.45	0.750			
0.1054	6748.67	4.1220	4.1221	0.7756	25.43	0.45	0.750			
0.1078	6901.58	4.1190	4.1191	0.7714	25.43	0.45	0.750			
0.1101	7049.43	4.1160	4.1161	0.7805	25.43	0.45	0.750			
0.1125	7201.54	4.1130	4.1132	0.7926	25.44	0.46	0.750			
0.1148	7350.37	4.1100	4.1102	0.7867	25.44	0.46	0.750			
0.1172	7502.44	4.1070	4.1067	0.7927	25.44	0.46	0.750			
0.1196	7655.90	4.1040	4.1041	0.7970	25.44	0.46	0.750			
0.1220	7807.32	4.1010	4.1011	0.7927	25.44	0.46	0.750			
0.1244	7962.39	4.0980	4.0980	0.7972	25.45	0.47	0.750			
0.1268	8114.08	4.0950	4.0950	0.7932	25.45	0.47	0.750			
0.1292	8266.82	4.0920	4.0918	0.7920	25.45	0.47	0.750			
0.1315	8418.83	4.0890	4.0890	0.7971	25.45	0.47	0.750			
0.1340	8573.28	4.0860	4.0860	0.7894	25.46	0.48	0.750			
0.1363	8723.48	4.0830	4.0830	0.8018	25.46	0.48	0.750			
0.1387	8878.71	4.0800	4.0800	0.8044	25.47	0.49	0.750			
0.1411	9032.87	4.0770	4.0765	0.8039	25.47	0.49	0.750			
0.1435	9186.63	4.0740	4.0742	0.8083	25.47	0.49	0.750			
0.1461	9348.36	4.0710	4.0710	0.7974	25.47	0.49	0.750			
0.1484	9498.05	4.0680	4.0680	0.8009	25.47	0.49	0.750			
0.1508	9650.45	4.0650	4.0651	0.8120	25.47	0.49	0.750			
0.1532	9802.18	4.0620	4.0623	0.8122	25.47	0.49	0.750			
0.1556	9960.91	4.0590	4.0591	0.8230	25.47	0.49	0.750			
0.1581	10121.12	4.0560	4.0560	0.8268	25.47	0.49	0.750			
0.1606	10280.97	4.0530	4.0531	0.8323	25.48	0.50	0.750			
0.1633	10450.05	4.0500	4.0499	0.8262	25.48	0.50	0.750			
0.1656	10600.43	4.0470	4.0470	0.8195	25.48	0.50	0.750			
0.1681	10756.08	4.0440	4.0442	0.8287	25.48	0.50	0.750			
0.1706	10916.09	4.0410	4.0410	0.8247	25.48	0.50	0.750			
0.1730	11073.48	4.0380	4.0382	0.8359	25.48	0.50	0.750			
0.1756	11235.77	4.0350	4.0352	0.8428	25.48	0.50	0.750			
0.1781	11399.10	4.0320	4.0321	0.8523	25.48	0.50	0.750			
0.1807	11565.61	4.0290	4.0291	0.8576	25.48	0.50	0.750			
0.1832	11725.97	4.0260	4.0260	0.8502	25.49	0.51	0.750			
0.1857	11886.63	4.0230	4.0231	0.8396	25.50	0.52	0.750			
0.1883	12049.38	4.0200	4.0201	0.8464	25.50	0.52	0.750			
0.1907	12207.21	4.0170	4.0172	0.8495	25.51	0.53	0.750			
0.1933	12370.74	4.0140	4.0142	0.8589	25.51	0.53	0.750			
0.1959	12536.73	4.0110	4.0112	0.8587	25.51	0.53	0.750			
0.1985	12704.38	4.0080	4.0081	0.8690	25.52	0.54	0.750			
0.2012	12876.11	4.0050	4.0051	0.8786	25.52	0.54	0.750			
0.2038	13040.12	4.0020	4.0018	0.8687	25.52	0.54	0.750			
0.2064	13208.42	3.9990	3.9990	0.8729	25.52	0.54	0.750			
0.2090	13376.81	3.9960	3.9960	0.8613	25.52	0.54	0.750			
0.2116	13542.11	3.9930	3.9931	0.8648	25.53	0.55	0.750			
0.2141	13704.44	3.9900	3.9902	0.8669	25.53	0.55	0.750			
0.2167	13870.51	3.9870	3.9862	0.8741	25.53	0.55	0.750			
0.2194	14040.27	3.9840	3.9840	0.8709	25.53	0.55	0.750			
0.2220	14207.60	3.9810	3.9811	0.8811	25.53	0.55	0.750			
0.2247	14381.89	3.9780	3.9781	0.8932	25.54	0.56	0.750			
0.2275	14556.92	3.9750	3.9750	0.9049	25.54	0.56	0.750			
0.2300	14722.31	3.9720	3.9721	0.8868	25.54	0.56	0.750			
0.2327	14893.12	3.9690	3.9691	0.8858	25.54	0.56	0.750			
0.2354	15063.16	3.9660	3.9660	0.8935	25.55	0.57	0.750			
0.2381	15236.72	3.9630	3.9630	0.8963	25.55	0.57	0.750			
0.2407	15407.10	3.9600	3.9599	0.8909	25.55	0.57	0.750			
0.2434	15579.20	3.9570	3.9570	0.8973	25.55	0.57	0.750			
0.2461	15752.47	3.9540	3.9541	0.8904	25.55	0.57	0.750			
0.2488	15922.07	3.9510	3.9510	0.8958	25.55	0.57	0.750			
0.2515	16093.71	3.9480	3.9481	0.8947	25.55	0.57	0.750			
0.2541	16265.39	3.9450	3.9442	0.8967	25.55	0.57	0.750			
0.2569	16442.38	3.9420	3.9420	0.8912	25.55	0.57	0.750			
0.2595	16610.22	3.9390	3.9392	0.8961	25.55	0.57	0.750			
0.2622	16781.34	3.9360	3.9360	0.9032	25.55	0.57	0.750			
0.2649	16956.26	3.9330	3.9330	0.9117	25.55	0.57	0.750			
0.2676	17126.68	3.9300	3.9299	0.9048	25.55	0.57	0.750			
0.2704	17303.95	3.9270	3.9271	0.9073	25.55	0.57	0.750			
0.2731	17480.41	3.9240	3.9241	0.9128	25.56	0.58	0.750			
0.2759	17656.57	3.9210	3.9211	0.9135	25.56	0.58	0.750			
0.2786	17832.17	3.9180	3.9178	0.8942	25.56	0.58	0.750			
0.2813	18001.85	3.9150	3.9150	0.8974	25.56	0.58	0.750			
0.2840	18173.52	3.9120	3.9121	0.8940	25.56	0.58	0.750			
0.2866	18343.58	3.9090	3.9092	0.9008	25.55	0.57	0.750			
0.2893	18515.24	3.9060	3.9064	0.9068	25.55	0.57	0.750			
0.2920	18689.33	3.9030	3.9026	0.9163	25.55	0.57	0.750			
0.2948	18868.88	3.9000	3.9002	0.9050	25.55	0.57	0.750			
0.2976	19044.40	3.8970	3.8972	0.9160	25.55	0.57	0.750			
0.3003	19220.31	3.8940	3.8941	0.9178	25.54	0.56	0.750			
0.3032	19401.82	3.8910	3.8911	0.9264	25.54	0.56	0.750			
0.3058	19571.47	3.8880	3.8881	0.9093	25.54	0.56	0.750			
0.3085	19746.93	3.8850	3.8851	0.9132	25.54	0.56	0.750			
0.3113	19924.98	3.8820	3.8821	0.9173	25.53	0.55	0.750			
0.3141	20102.81	3.8790	3.8790	0.9233	25.53	0.55	0.750			
0.3168	20275.27	3.8760	3.8759	0.9119	25.53	0.55	0.750			
0.3196	20452.56	3.8730	3.8729	0.9019	25.53	0.55	0.750			
0.3222	20623.89	3.8700	3.8700	0.9093	25.52	0.54	0.750			
0.3250	20798.02	3.8670	3.8672	0.9118	25.52	0.54	0.750			
0.3278	20976.90	3.8640	3.8639	0.9017	25.51	0.53	0.750			
0.3305	21152.69	3.8610	3.8611	0.8912	25.51	0.53	0.750			
0.3331	21319.40	3.8580	3.8582	0.8935	25.50	0.52	0.750			
0.3357	21485.35	3.8550	3.8554	0.9088	25.49	0.51	0.750			
0.3384	21660.54	3.8520	3.8522	0.9260	25.48	0.50	0.750			
0.3413	21840.87	3.8490	3.8489	0.9173	25.47	0.49	0.750			
0.3441	22019.27	3.8460	3.8463	0.9391	25.47	0.49	0.750			
0.3469	22203.56	3.8430	3.8432	0.9591	25.46	0.48	0.750			
0.3499	22391.90	3.8400	3.8401	1.0013	25.46	0.48	0.750			
0.3528	22579.00	3.8370	3.8371	0.9983	25.45	0.47	0.750	0.278	0.403	
0.3559	22777.28	3.8340	3.8340	1.0136	25.44	0.46	0.750			
0.3590	22978.76	3.8310	3.8316	1.0255	25.43	0.45	0.750			
0.3622	23179.85	3.8280	3.8282	1.0247	25.42	0.44	0.750			
0.3653	23376.99	3.8250	3.8250	1.0095	25.40	0.42	0.750			
0.3682	23567.10	3.8220	3.8219	0.9925	25.40	0.42	0.750			
0.3711	23752.10	3.8190	3.8191	0.9880	25.39	0.41	0.750			
0.3741	23942.24	3.8160	3.8160	0.9961	25.38	0.40	0.750			
0.3771	24136.38	3.8130	3.8130	1.0058	25.37	0.39	0.750			
0.3801	24327.40	3.8100	3.8101	1.0081	25.37	0.39	0.750			
0.3832	24521.87	3.8070	3.8071	1.0175	25.36	0.38	0.750			
0.3862	24717.51	3.8040	3.8040	1.0300	25.35	0.37	0.750			
0.3893	24916.95	3.8010	3.8010	1.0440	25.34	0.36	0.750			
0.3925	25119.27	3.7980	3.7980	1.0466	25.33	0.35	0.750			
0.3956	25319.88	3.7950	3.7950	1.0687	25.31	0.33	0.750			
0.3988	25525.98	3.7920	3.7921	1.0880	25.30	0.32	0.750			
0.4021	25736.73	3.7890	3.7891	1.1066	25.29	0.31	0.750			
0.4055	25951.07	3.7860	3.7861	1.1208	25.28	0.30	0.750			
0.4089	26167.62	3.7830	3.7831	1.1365	25.27	0.29	0.750			
0.4123	26387.55	3.7800	3.7801	1.1589	25.26	0.28	0.750			
0.4158	26612.81	3.7770	3.7768	1.1771	25.25	0.27	0.750			
0.4193	26837.50	3.7740	3.7741	1.1931	25.24	0.26	0.750			
0.4229	27068.79	3.7710	3.7710	1.2230	25.22	0.24	0.750			
0.4267	27307.17	3.7680	3.7680	1.2514	25.21	0.23	0.750			
0.4305	27552.20	3.7650	3.7650	1.2613	25.20	0.22	0.750			
0.4342	27790.96	3.7620	3.7621	1.2905	25.19	0.21	0.750			
0.4381	28038.78	3.7590	3.7592	1.3252	25.18	0.20	0.750			
0.4421	28296.16	3.7560	3.7556	1.3485	25.17	0.19	0.750			
0.4462	28555.92	3.7530	3.7531	1.3799	25.15	0.17	0.750			
0.4504	28826.03	3.7500	3.7502	1.4093	25.13	0.15	0.750			
0.4547	29102.74	3.7470	3.7470	1.4515	25.12	0.14	0.750			
0.4591	29381.73	3.7440	3.7441	1.4633	25.11	0.13	0.750			
0.4636	29668.28	3.7410	3.7411	1.4884	25.10	0.12	0.750			
0.4681	29955.36	3.7380	3.7381	1.5300	25.08	0.10	0.750			
0.4727	30255.64	3.7350	3.7348	1.5788	25.06	0.08	0.750			
0.4774	30555.86	3.7320	3.7320	1.6110	25.05	0.07	0.750			
0.4824	30873.87	3.7290	3.7292	1.6569	25.03	0.05	0.750			
0.4874	31193.92	3.7260	3.7261	1.7192	25.03	0.05	0.750			
0.4927	31532.46	3.7230	3.7232	1.7705	25.02	0.04	0.750			
0.4981	31876.24	3.7200	3.7202	1.8194	25.00	0.02	0.750			
0.5036	32231.24	3.7170	3.7170	1.8684	24.98	0.00	0.750			
0.5092	32591.26	3.7140	3.7140	1.9403	24.96	-0.02	0.750			
0.5152	32972.16	3.7110	3.7109	1.9874	24.94	-0.04	0.750			
0.5213	33361.12	3.7080	3.7079	2.0247	24.93	-0.05	0.750			
0.5273	33747.43	3.7050	3.7051	2.0913	24.91	-0.07	0.750			
0.5336	34153.41	3.7020	3.7020	2.1576	24.90	-0.08	0.750			
0.5402	34571.98	3.6990	3.6991	2.1947	24.88	-0.10	0.750			
0.5469	35002.74	3.6960	3.6958	2.2550	24.87	-0.11	0.750			
0.5537	35437.39	3.6930	3.6928	2.3399	24.85	-0.13	0.750			
0.5608	35888.52	3.6900	3.6901	2.4054	24.84	-0.14	0.750			
0.5680	36349.09	3.6870	3.6871	2.4582	24.84	-0.14	0.750			
0.5758	36851.54	3.6840	3.6837	2.5339	24.83	-0.15	0.750			
0.5833	37334.17	3.6810	3.6809	2.6027	24.81	-0.17	0.750			
0.5912	37835.50	3.6780	3.6778	2.6014	24.80	-0.18	0.750			
0.5991	38342.66	3.6750	3.6752	2.5298	24.80	-0.18	0.750			
0.6065	38817.56	3.6720	3.6722	2.4699	24.80	-0.18	0.750			
0.6139	39288.08	3.6690	3.6690	2.3162	24.80	-0.18	0.750			
0.6206	39715.71	3.6660	3.6664	2.2215	24.81	-0.17	0.750			
0.6269	40121.55	3.6630	3.6634	2.0553	24.82	-0.16	0.750			
0.6330	40509.32	3.6600	3.6605	1.9274	24.82	-0.16	0.750			
0.6386	40872.78	3.6570	3.6574	1.7936	24.83	-0.15	0.750			
0.6440	41213.56	3.6540	3.6539	1.6761	24.83	-0.15	0.750			
0.6488	41520.78	3.6510	3.6512	1.5444	24.84	-0.14	0.750			
0.6532	41802.45	3.6480	3.6479	1.4180	24.85	-0.13	0.750			
0.6571	42055.69	3.6450	3.6450	1.2998	24.86	-0.12	0.750			
0.6607	42283.07	3.6420	3.6421	1.1893	24.86	-0.12	0.750			
0.6641	42500.34	3.6390	3.6392	1.1260	24.87	-0.11	0.750			
0.6673	42708.70	3.6360	3.6358	1.0747	24.87	-0.11	0.750			
0.6704	42906.14	3.6330	3.6332	1.0171	24.88	-0.10	0.750			
0.6733	43094.32	3.6300	3.6301	0.9828	24.89	-0.09	0.750			
0.6763	43281.61	3.6270	3.6271	0.9550	24.89	-0.09	0.750			
0.6791	43459.68	3.6240	3.6236	0.9119	24.90	-0.08	0.750			
0.6818	43633.34	3.6210	3.6210	0.8836	24.91	-0.07	0.750			
0.6844	43801.89	3.6180	3.6181	0.8417	24.92	-0.06	0.750			
0.6869	43963.31	3.6150	3.6149	0.7977	24.93	-0.05	0.750			
0.6893	44113.04	3.6120	3.6121	0.7430	24.93	-0.05	0.750			
0.6914	44250.32	3.6090	3.6090	0.6885	24.94	-0.04	0.750			
0.6934	44376.96	3.6060	3.6059	0.6336	24.95	-0.03	0.750			
0.6952	44493.61	3.6030	3.6030	0.5762	24.95	-0.03	0.750			
0.6969	44598.76	3.6000	3.6000	0.5208	24.96	-0.02	0.750			
0.6983	44694.36	3.5970	3.5970	0.4644	24.96	-0.02	0.750			
0.6997	44777.84	3.5940	3.5940	0.4049	24.97	-0.01	0.750			
0.7008	44848.23	3.5910	3.5910	0.3548	24.97	-0.01	0.750			
0.7017	44910.29	3.5880	3.5882	0.3052	24.97	-0.01	0.750			
0.7026	44963.21	3.5850	3.5849	0.2562	24.98	-0.00	0.750			
0.7032	45007.70	3.5820	3.5826	0.2114	24.98	-0.00	0.750			
0.7038	45042.84	3.5790	3.5800	0.1688	24.98	-0.00	0.750			
0.7042	45071.41	3.5760	3.5774	0.1297	24.98	0.00	0.750			
0.7045	45091.11	3.5730	3.5741	0.0453	24.98	0.00	0.750			
