Ah_balance (normalized)	Ah_balance (mAh)	Voltage - fit (V)	Voltage -  interpolate (V)	dQ/dV (1/V)	Temperature (°C)	Temperature - diff (°C)	Current (C)	R_DC 0ms (mOhm)	R_DC 50ms (mOhm)	R_DC 50 ms PEC (mOhm)
0.0481	3079.78	4.1980	4.1980	0.7518	25.61	0.69	0.750			
0.0504	3224.47	4.1950	4.1948	0.7551	25.61	0.69	0.750			
0.0526	3369.38	4.1920	4.1921	0.7561	25.61	0.69	0.750			
0.0550	3517.42	4.1890	4.1889	0.7503	25.61	0.69	0.750			
0.0572	3659.18	4.1860	4.1861	0.7503	25.61	0.69	0.750			
0.0594	3801.71	4.1830	4.1831	0.7505	25.61	0.69	0.750			
0.0617	3945.64	4.1800	4.1801	0.7532	25.61	0.69	0.750			
0.0639	4090.47	4.1770	4.1771	0.7543	25.61	0.69	0.750			
0.0662	4235.62	4.1740	4.1741	0.7558	25.61	0.69	0.750			
0.0685	4381.78	4.1710	4.1711	0.7576	25.61	0.69	0.750			
0.0708	4528.36	4.1680	4.1680	0.7604	25.61	0.69	0.750			
0.0730	4672.08	4.1650	4.1651	0.7599	25.61	0.69	0.750			
0.0753	4818.76	4.1620	4.1617	0.7663	25.61	0.69	0.750			
0.0776	4967.51	4.1590	4.1590	0.7674	25.61	0.69	0.750			
0.0799	5116.19	4.1560	4.1561	0.7675	25.61	0.69	0.750			
0.0823	5264.26	4.1530	4.1530	0.7705	25.61	0.69	0.750			
0.0846	5411.93	4.1500	4.1500	0.7683	25.61	0.69	0.750			
0.0868	5556.75	4.1470	4.1469	0.7659	25.61	0.69	0.750			
0.0891	5703.23	4.1440	4.1440	0.7665	25.61	0.69	0.750			
0.0914	5851.16	4.1410	4.1410	0.7707	25.61	0.69	0.750			
0.0938	6000.48	4.1380	4.1380	0.7747	25.61	0.69	0.750			
0.0961	6150.51	4.1350	4.1350	0.7751	25.61	0.69	0.750			
0.0984	6298.52	4.1320	4.1320	0.7743	25.61	0.69	0.750			
0.1007	6447.21	4.1290	4.1290	0.7753	25.61	0.69	0.750			
0.1031	6595.55	4.1260	4.1260	0.7772	25.61	0.69	0.750			
0.1054	6746.56	4.1230	4.1229	0.7726	25.61	0.69	0.750			
0.1077	6892.57	4.1200	4.1200	0.7790	25.61	0.69	0.750			
0.1100	7042.79	4.1170	4.1171	0.7835	25.61	0.69	0.750			
0.1124	7194.09	4.1140	4.1139	0.7873	25.61	0.69	0.750			
0.1148	7345.49	4.1110	4.1110	0.7883	25.61	0.69	0.750			
0.1172	7498.09	4.1080	4.1081	0.7875	25.61	0.69	0.750			
0.1195	7649.46	4.1050	4.1050	0.7891	25.62	0.70	0.750			
0.1219	7802.73	4.1020	4.1020	0.7923	25.62	0.70	0.750			
0.1242	7950.15	4.0990	4.0991	0.7889	25.62	0.70	0.750			
0.1266	8103.32	4.0960	4.0960	0.7931	25.62	0.70	0.750			
0.1290	8257.47	4.0930	4.0930	0.7924	25.62	0.70	0.750			
0.1314	8409.51	4.0900	4.0900	0.7936	25.62	0.70	0.750			
0.1338	8561.98	4.0870	4.0872	0.7976	25.62	0.70	0.750			
0.1361	8713.47	4.0840	4.0840	0.7990	25.62	0.70	0.750			
0.1385	8866.72	4.0810	4.0809	0.8012	25.62	0.70	0.750			
0.1410	9021.01	4.0780	4.0780	0.8059	25.62	0.70	0.750			
0.1434	9178.93	4.0750	4.0750	0.8033	25.62	0.70	0.750			
0.1458	9331.30	4.0720	4.0721	0.8092	25.63	0.71	0.750			
0.1482	9485.31	4.0690	4.0691	0.8108	25.63	0.71	0.750			
0.1506	9641.42	4.0660	4.0656	0.8138	25.63	0.71	0.750			
0.1531	9797.00	4.0630	4.0631	0.8148	25.63	0.71	0.750			
0.1555	9954.46	4.0600	4.0601	0.8199	25.63	0.71	0.750			
0.1580	10114.10	4.0570	4.0570	0.8263	25.62	0.70	0.750			
0.1605	10272.04	4.0540	4.0540	0.8245	25.62	0.70	0.750			
0.1630	10429.41	4.0510	4.0509	0.8290	25.62	0.70	0.750			
0.1655	10589.99	4.0480	4.0480	0.8331	25.62	0.70	0.750			
0.1680	10751.73	4.0450	4.0450	0.8296	25.62	0.70	0.750			
0.1705	10911.11	4.0420	4.0420	0.8319	25.63	0.71	0.750			
0.1730	11069.02	4.0390	4.0392	0.8310	25.63	0.71	0.750			
0.1754	11228.45	4.0360	4.0357	0.8348	25.63	0.71	0.750			
0.1779	11387.98	4.0330	4.0330	0.8366	25.63	0.71	0.750			
0.1805	11548.85	4.0300	4.0300	0.8386	25.63	0.71	0.750			
0.1830	11711.22	4.0270	4.0270	0.8479	25.63	0.71	0.750			
0.1855	11873.78	4.0240	4.0241	0.8480	25.63	0.71	0.750			
0.1881	12037.02	4.0210	4.0204	0.8539	25.63	0.71	0.750			
0.1907	12201.61	4.0180	4.0181	0.8567	25.63	0.71	0.750			
0.1933	12368.20	4.0150	4.0150	0.8576	25.63	0.71	0.750			
0.1958	12534.34	4.0120	4.0120	0.8601	25.63	0.71	0.750			
0.1984	12699.13	4.0090	4.0091	0.8610	25.63	0.71	0.750			
0.2010	12861.99	4.0060	4.0060	0.8576	25.63	0.71	0.750			
0.2036	13028.26	4.0030	4.0029	0.8540	25.63	0.71	0.750			
0.2061	13190.66	4.0000	4.0000	0.8562	25.63	0.71	0.750			
0.2087	13354.65	3.9970	3.9971	0.8615	25.63	0.71	0.750			
0.2113	13520.85	3.9940	3.9940	0.8680	25.63	0.71	0.750			
0.2139	13687.29	3.9910	3.9911	0.8683	25.63	0.71	0.750			
0.2165	13855.34	3.9880	3.9880	0.8681	25.63	0.71	0.750			
0.2191	14021.99	3.9850	3.9850	0.8747	25.63	0.71	0.750			
0.2217	14190.89	3.9820	3.9820	0.8781	25.62	0.70	0.750			
0.2244	14358.56	3.9790	3.9790	0.8778	25.62	0.70	0.750			
0.2270	14526.95	3.9760	3.9760	0.8825	25.62	0.70	0.750			
0.2297	14698.33	3.9730	3.9731	0.8831	25.62	0.70	0.750			
0.2323	14868.98	3.9700	3.9700	0.8860	25.62	0.70	0.750			
0.2350	15039.11	3.9670	3.9670	0.8930	25.62	0.70	0.750			
0.2376	15208.97	3.9640	3.9640	0.8916	25.62	0.70	0.750			
0.2403	15382.38	3.9610	3.9609	0.8893	25.62	0.70	0.750			
0.2430	15552.36	3.9580	3.9580	0.8905	25.62	0.70	0.750			
0.2457	15723.42	3.9550	3.9551	0.8905	25.61	0.69	0.750			
0.2484	15894.58	3.9520	3.9520	0.8931	25.61	0.69	0.750			
0.2510	16065.97	3.9490	3.9489	0.8861	25.61	0.69	0.750			
0.2537	16238.83	3.9460	3.9460	0.8682	25.61	0.69	0.750			
0.2563	16402.93	3.9430	3.9431	0.8741	25.61	0.69	0.750			
0.2589	16568.76	3.9400	3.9402	0.8781	25.61	0.69	0.750			
0.2615	16734.42	3.9370	3.9371	0.8841	25.61	0.69	0.750			
0.2641	16902.91	3.9340	3.9338	0.8939	25.61	0.69	0.750			
0.2668	17077.95	3.9310	3.9311	0.8975	25.60	0.68	0.750			
0.2696	17255.91	3.9280	3.9281	0.9103	25.60	0.68	0.750			
0.2724	17432.68	3.9250	3.9250	0.9116	25.60	0.68	0.750			
0.2751	17605.92	3.9220	3.9219	0.8973	25.59	0.67	0.750			
0.2778	17778.63	3.9190	3.9190	0.8917	25.59	0.67	0.750			
0.2804	17948.24	3.9160	3.9161	0.8912	25.58	0.66	0.750			
0.2831	18118.37	3.9130	3.9130	0.8920	25.58	0.66	0.750			
0.2858	18290.31	3.9100	3.9100	0.8978	25.57	0.65	0.750			
0.2884	18459.85	3.9070	3.9071	0.9009	25.57	0.65	0.750			
0.2912	18635.80	3.9040	3.9040	0.8976	25.57	0.65	0.750			
0.2939	18811.21	3.9010	3.9010	0.9016	25.56	0.64	0.750			
0.2966	18983.34	3.8980	3.8981	0.9012	25.56	0.64	0.750			
0.2993	19154.31	3.8950	3.8953	0.9011	25.55	0.63	0.750			
0.3020	19327.80	3.8920	3.8919	0.9044	25.55	0.63	0.750			
0.3047	19500.56	3.8890	3.8889	0.8999	25.54	0.62	0.750			
0.3074	19673.46	3.8860	3.8861	0.9042	25.53	0.61	0.750			
0.3102	19851.45	3.8830	3.8830	0.9140	25.53	0.61	0.750			
0.3129	20025.09	3.8800	3.8798	0.9035	25.52	0.60	0.750			
0.3156	20200.46	3.8770	3.8770	0.8893	25.51	0.59	0.750			
0.3183	20368.81	3.8740	3.8741	0.8912	25.50	0.58	0.750			
0.3209	20538.16	3.8710	3.8711	0.8950	25.49	0.57	0.750			
0.3236	20709.50	3.8680	3.8680	0.9033	25.49	0.57	0.750			
0.3263	20880.91	3.8650	3.8651	0.9048	25.48	0.56	0.750			
0.3290	21056.71	3.8620	3.8621	0.9104	25.47	0.55	0.750			
0.3317	21230.72	3.8590	3.8592	0.9102	25.47	0.55	0.750			
0.3345	21405.45	3.8560	3.8561	0.9139	25.46	0.54	0.750			
0.3372	21578.85	3.8530	3.8531	0.9089	25.45	0.53	0.750			
0.3399	21754.78	3.8500	3.8502	0.9078	25.44	0.52	0.750			
0.3426	21928.73	3.8470	3.8473	0.9215	25.44	0.52	0.750			
0.3454	22108.02	3.8440	3.8441	0.9378	25.43	0.51	0.750			
0.3483	22294.21	3.8410	3.8409	0.9472	25.42	0.50	0.750			
0.3511	22470.39	3.8380	3.8383	0.9354	25.41	0.49	0.750	0.323	0.444	
0.3540	22657.33	3.8350	3.8350	0.9322	25.40	0.48	0.750			
0.3568	22834.29	3.8320	3.8321	0.9424	25.39	0.47	0.750			
0.3596	23013.96	3.8290	3.8291	0.9527	25.37	0.45	0.750			
0.3624	23192.31	3.8260	3.8258	0.9551	25.36	0.44	0.750			
0.3653	23379.29	3.8230	3.8231	0.9621	25.35	0.43	0.750			
0.3682	23564.61	3.8200	3.8201	0.9859	25.34	0.42	0.750			
0.3712	23756.18	3.8170	3.8171	1.0005	25.33	0.41	0.750			
0.3743	23954.17	3.8140	3.8141	1.0142	25.32	0.40	0.750			
0.3773	24146.17	3.8110	3.8110	1.0118	25.31	0.39	0.750			
0.3803	24341.93	3.8080	3.8082	1.0213	25.30	0.38	0.750			
0.3834	24538.33	3.8050	3.8050	1.0320	25.29	0.37	0.750			
0.3865	24738.67	3.8020	3.8019	1.0496	25.28	0.36	0.750			
0.3897	24938.20	3.7990	3.7990	1.0435	25.26	0.34	0.750			
0.3928	25139.12	3.7960	3.7960	1.0659	25.25	0.33	0.750			
0.3960	25344.17	3.7930	3.7931	1.0881	25.24	0.32	0.750			
0.3993	25555.41	3.7900	3.7900	1.1063	25.22	0.30	0.750			
0.4027	25769.92	3.7870	3.7871	1.1118	25.21	0.29	0.750			
0.4060	25983.86	3.7840	3.7841	1.1275	25.20	0.28	0.750			
0.4094	26201.20	3.7810	3.7812	1.1513	25.19	0.27	0.750			
0.4129	26425.00	3.7780	3.7773	1.1722	25.18	0.26	0.750			
0.4164	26649.02	3.7750	3.7752	1.1843	25.17	0.25	0.750			
0.4200	26878.55	3.7720	3.7722	1.2040	25.15	0.23	0.750			
0.4237	27117.00	3.7690	3.7690	1.2290	25.14	0.22	0.750			
0.4275	27357.31	3.7660	3.7659	1.2521	25.12	0.20	0.750			
0.4311	27588.20	3.7630	3.7631	1.2670	25.11	0.19	0.750			
0.4349	27832.69	3.7600	3.7600	1.2977	25.09	0.17	0.750			
0.4389	28087.03	3.7570	3.7571	1.3111	25.08	0.16	0.750			
0.4428	28337.03	3.7540	3.7541	1.3479	25.07	0.15	0.750			
0.4469	28599.74	3.7510	3.7512	1.3822	25.06	0.14	0.750			
0.4511	28872.78	3.7480	3.7476	1.4015	25.05	0.13	0.750			
0.4555	29148.93	3.7450	3.7452	1.4167	25.03	0.11	0.750			
0.4597	29419.56	3.7420	3.7423	1.4572	25.02	0.10	0.750			
0.4641	29703.11	3.7390	3.7392	1.5110	25.01	0.09	0.750			
0.4687	29999.02	3.7360	3.7362	1.5563	24.99	0.07	0.750			
0.4733	30292.46	3.7330	3.7333	1.5628	24.97	0.05	0.750			
0.4781	30595.32	3.7300	3.7298	1.6327	24.95	0.03	0.750			
0.4831	30920.66	3.7270	3.7266	1.6842	24.94	0.02	0.750			
0.4882	31246.05	3.7240	3.7234	1.7235	24.93	0.01	0.750			
0.4933	31570.15	3.7210	3.7208	1.7745	24.91	-0.01	0.750			
0.4988	31921.42	3.7180	3.7179	1.8805	24.89	-0.03	0.750			
0.5045	32286.91	3.7150	3.7154	1.9057	24.87	-0.05	0.750			
0.5103	32658.64	3.7120	3.7124	1.9516	24.86	-0.06	0.750			
0.5162	33039.29	3.7090	3.7085	2.0033	24.85	-0.07	0.750			
0.5221	33414.79	3.7060	3.7060	2.0164	24.83	-0.09	0.750			
0.5282	33801.68	3.7030	3.7035	2.0539	24.82	-0.10	0.750			
0.5345	34210.76	3.7000	3.6996	2.0991	24.81	-0.11	0.750			
0.5410	34621.91	3.6970	3.6971	2.2448	24.80	-0.12	0.750			
0.5478	35059.63	3.6940	3.6945	2.3986	24.78	-0.14	0.750			
0.5550	35518.20	3.6910	3.6916	2.3832	24.77	-0.15	0.750			
0.5622	35983.95	3.6880	3.6878	2.3592	24.76	-0.16	0.750			
0.5693	36437.87	3.6850	3.6851	2.4781	24.75	-0.17	0.750			
0.5768	36914.01	3.6820	3.6816	2.6163	24.74	-0.18	0.750			
0.5848	37427.66	3.6790	3.6794	2.5184	24.74	-0.18	0.750			
0.5925	37919.98	3.6760	3.6761	2.5434	24.74	-0.18	0.750			
0.5998	38384.14	3.6730	3.6729	2.4536	24.73	-0.19	0.750			
0.6073	38864.29	3.6700	3.6706	2.5261	24.72	-0.20	0.750			
0.6146	39335.52	3.6670	3.6668	2.2829	24.72	-0.20	0.750			
0.6214	39767.42	3.6640	3.6640	2.0884	24.73	-0.19	0.750			
0.6272	40139.59	3.6610	3.6614	1.9500	24.74	-0.18	0.750			
0.6326	40483.32	3.6580	3.6582	1.7672	24.75	-0.17	0.750			
0.6378	40817.72	3.6550	3.6546	1.6766	24.76	-0.16	0.750			
0.6426	41123.25	3.6520	3.6524	1.5584	24.77	-0.15	0.750			
0.6472	41418.70	3.6490	3.6493	1.4448	24.77	-0.15	0.750			
0.6515	41693.53	3.6460	3.6460	1.3406	24.78	-0.14	0.750			
0.6553	41941.03	3.6430	3.6430	1.2449	24.79	-0.13	0.750			
0.6587	42156.76	3.6400	3.6400	1.1419	24.79	-0.13	0.750			
0.6620	42365.89	3.6370	3.6369	1.0870	24.80	-0.12	0.750			
0.6651	42568.10	3.6340	3.6340	1.0345	24.81	-0.11	0.750			
0.6681	42759.38	3.6310	3.6310	0.9762	24.82	-0.10	0.750			
0.6709	42938.95	3.6280	3.6281	0.9416	24.83	-0.09	0.750			
0.6736	43113.42	3.6250	3.6252	0.9147	24.83	-0.09	0.750			
0.6763	43285.15	3.6220	3.6216	0.8852	24.84	-0.08	0.750			
0.6790	43453.60	3.6190	3.6192	0.8486	24.85	-0.07	0.750			
0.6815	43614.73	3.6160	3.6163	0.8152	24.86	-0.06	0.750			
0.6840	43776.42	3.6130	3.6130	0.7798	24.87	-0.05	0.750			
0.6862	43919.57	3.6100	3.6102	0.7116	24.87	-0.05	0.750			
0.6883	44051.37	3.6070	3.6070	0.6563	24.88	-0.04	0.750			
0.6902	44172.79	3.6040	3.6041	0.6032	24.89	-0.03	0.750			
0.6919	44284.77	3.6010	3.6010	0.5518	24.89	-0.03	0.750			
0.6935	44386.15	3.5980	3.5979	0.4957	24.90	-0.02	0.750			
0.6949	44472.38	3.5950	3.5950	0.4388	24.90	-0.02	0.750			
0.6961	44552.19	3.5920	3.5920	0.3906	24.91	-0.01	0.750			
0.6972	44622.37	3.5890	3.5889	0.3409	24.91	-0.01	0.750			
0.6982	44683.21	3.5860	3.5859	0.2920	24.91	-0.01	0.750			
0.6990	44734.53	3.5830	3.5831	0.2428	24.92	-0.00	0.750			
0.6996	44776.40	3.5800	3.5800	0.1935	24.92	-0.00	0.750			
0.7002	44810.32	3.5770	3.5772	0.1380	24.92	-0.00	0.750			
0.7005	44831.42	3.5740	3.5739	0.0890	24.92	-0.00	0.750			
