Ah_balance (normalized)	Ah_balance (mAh)	Voltage - fit (V)	Voltage -  interpolate (V)	dQ/dV (1/V)	Temperature (°C)	Temperature - diff (°C)	Current (C)	R_DC 0ms (mOhm)	R_DC 50ms (mOhm)	R_DC 50 ms PEC (mOhm)
0.0467	2991.56	4.1990	4.1990	0.8105	25.53	0.51	0.750			
0.0490	3138.02	4.1960	4.1961	0.7382	25.53	0.51	0.750			
0.0513	3280.93	4.1930	4.1932	0.7478	25.53	0.51	0.750			
0.0535	3426.55	4.1900	4.1897	0.7535	25.53	0.51	0.750			
0.0558	3571.04	4.1870	4.1871	0.7545	25.53	0.51	0.750			
0.0581	3715.80	4.1840	4.1842	0.7570	25.53	0.51	0.750			
0.0604	3864.69	4.1810	4.1810	0.7555	25.53	0.51	0.750			
0.0626	4005.02	4.1780	4.1780	0.7509	25.53	0.51	0.750			
0.0648	4145.73	4.1750	4.1752	0.7627	25.53	0.51	0.750			
0.0671	4294.92	4.1720	4.1722	0.7620	25.53	0.51	0.750			
0.0694	4443.36	4.1690	4.1690	0.7649	25.53	0.51	0.750			
0.0718	4593.74	4.1660	4.1661	0.7657	25.53	0.51	0.750			
0.0741	4741.24	4.1630	4.1632	0.7643	25.53	0.51	0.750			
0.0763	4884.49	4.1600	4.1601	0.7554	25.53	0.51	0.750			
0.0786	5028.31	4.1570	4.1566	0.7581	25.53	0.51	0.750			
0.0808	5171.48	4.1540	4.1540	0.7556	25.53	0.51	0.750			
0.0832	5322.48	4.1510	4.1510	0.7682	25.53	0.51	0.750			
0.0855	5470.99	4.1480	4.1480	0.7724	25.54	0.52	0.750			
0.0878	5619.27	4.1450	4.1450	0.7717	25.54	0.52	0.750			
0.0901	5765.49	4.1420	4.1420	0.7679	25.54	0.52	0.750			
0.0924	5912.62	4.1390	4.1390	0.7704	25.54	0.52	0.750			
0.0947	6059.64	4.1360	4.1361	0.7727	25.54	0.52	0.750			
0.0970	6209.27	4.1330	4.1329	0.7706	25.54	0.52	0.750			
0.0993	6357.74	4.1300	4.1300	0.7732	25.55	0.53	0.750			
0.1016	6505.12	4.1270	4.1271	0.7744	25.55	0.53	0.750			
0.1040	6653.98	4.1240	4.1233	0.7780	25.55	0.53	0.750			
0.1063	6803.54	4.1210	4.1211	0.7813	25.55	0.53	0.750			
0.1087	6956.26	4.1180	4.1181	0.7745	25.55	0.53	0.750			
0.1110	7103.80	4.1150	4.1150	0.7842	25.56	0.54	0.750			
0.1134	7255.26	4.1120	4.1121	0.7918	25.56	0.54	0.750			
0.1157	7405.07	4.1090	4.1089	0.7883	25.56	0.54	0.750			
0.1181	7556.78	4.1060	4.1061	0.7906	25.56	0.54	0.750			
0.1205	7710.25	4.1030	4.1031	0.7916	25.56	0.54	0.750			
0.1229	7862.87	4.1000	4.1001	0.7929	25.57	0.55	0.750			
0.1253	8017.02	4.0970	4.0969	0.8007	25.57	0.55	0.750			
0.1276	8166.11	4.0940	4.0941	0.7930	25.57	0.55	0.750			
0.1300	8319.98	4.0910	4.0910	0.7982	25.57	0.55	0.750			
0.1324	8475.03	4.0880	4.0880	0.8033	25.57	0.55	0.750			
0.1348	8628.11	4.0850	4.0851	0.7957	25.57	0.55	0.750			
0.1372	8779.80	4.0820	4.0822	0.7993	25.57	0.55	0.750			
0.1396	8931.72	4.0790	4.0791	0.8011	25.57	0.55	0.750			
0.1420	9085.49	4.0760	4.0757	0.8044	25.57	0.55	0.750			
0.1444	9240.70	4.0730	4.0732	0.8074	25.57	0.55	0.750			
0.1468	9395.69	4.0700	4.0701	0.8158	25.57	0.55	0.750			
0.1493	9557.04	4.0670	4.0670	0.8220	25.57	0.55	0.750			
0.1518	9713.76	4.0640	4.0640	0.8138	25.57	0.55	0.750			
0.1542	9869.09	4.0610	4.0609	0.8199	25.57	0.55	0.750			
0.1567	10027.48	4.0580	4.0581	0.8250	25.57	0.55	0.750			
0.1592	10187.06	4.0550	4.0549	0.8252	25.58	0.56	0.750			
0.1616	10344.61	4.0520	4.0520	0.8284	25.58	0.56	0.750			
0.1641	10503.28	4.0490	4.0491	0.8289	25.59	0.57	0.750			
0.1666	10664.53	4.0460	4.0461	0.8309	25.59	0.57	0.750			
0.1691	10824.63	4.0430	4.0430	0.8332	25.59	0.57	0.750			
0.1716	10983.43	4.0400	4.0401	0.8237	25.59	0.57	0.750			
0.1741	11140.20	4.0370	4.0371	0.8274	25.59	0.57	0.750			
0.1765	11296.03	4.0340	4.0341	0.8309	25.59	0.57	0.750			
0.1790	11455.91	4.0310	4.0301	0.8409	25.59	0.57	0.750			
0.1816	11620.39	4.0280	4.0283	0.8460	25.59	0.57	0.750			
0.1841	11784.76	4.0250	4.0251	0.8543	25.60	0.58	0.750			
0.1868	11952.75	4.0220	4.0220	0.8610	25.60	0.58	0.750			
0.1894	12121.65	4.0190	4.0189	0.8687	25.61	0.59	0.750			
0.1919	12279.79	4.0160	4.0159	0.8566	25.61	0.59	0.750			
0.1945	12445.52	4.0130	4.0130	0.8546	25.61	0.59	0.750			
0.1970	12609.35	4.0100	4.0101	0.8618	25.61	0.59	0.750			
0.1996	12775.24	4.0070	4.0070	0.8683	25.62	0.60	0.750			
0.2022	12943.36	4.0040	4.0040	0.8710	25.62	0.60	0.750			
0.2048	13109.68	4.0010	4.0010	0.8717	25.62	0.60	0.750			
0.2075	13277.70	3.9980	3.9981	0.8723	25.62	0.60	0.750			
0.2101	13446.46	3.9950	3.9951	0.8584	25.62	0.60	0.750			
0.2126	13607.77	3.9920	3.9921	0.8674	25.63	0.61	0.750			
0.2152	13771.65	3.9890	3.9892	0.8686	25.63	0.61	0.750			
0.2178	13937.20	3.9860	3.9862	0.8775	25.63	0.61	0.750			
0.2204	14108.21	3.9830	3.9831	0.8814	25.63	0.61	0.750			
0.2231	14280.08	3.9800	3.9801	0.8936	25.63	0.61	0.750			
0.2259	14455.06	3.9770	3.9771	0.8967	25.63	0.61	0.750			
0.2285	14626.05	3.9740	3.9736	0.8887	25.63	0.61	0.750			
0.2312	14797.69	3.9710	3.9711	0.8868	25.63	0.61	0.750			
0.2339	14968.15	3.9680	3.9680	0.8891	25.64	0.62	0.750			
0.2365	15138.36	3.9650	3.9650	0.8885	25.64	0.62	0.750			
0.2392	15310.55	3.9620	3.9620	0.8959	25.65	0.63	0.750			
0.2419	15478.90	3.9590	3.9590	0.8933	25.65	0.63	0.750			
0.2446	15657.12	3.9560	3.9559	0.8808	25.65	0.63	0.750			
0.2472	15822.63	3.9530	3.9530	0.8908	25.65	0.63	0.750			
0.2499	15991.82	3.9500	3.9502	0.9002	25.65	0.63	0.750			
0.2526	16164.99	3.9470	3.9472	0.9039	25.65	0.63	0.750			
0.2553	16339.04	3.9440	3.9439	0.9081	25.65	0.63	0.750			
0.2580	16515.10	3.9410	3.9412	0.9044	25.65	0.63	0.750			
0.2608	16691.13	3.9380	3.9381	0.9071	25.65	0.63	0.750			
0.2635	16866.28	3.9350	3.9351	0.9122	25.65	0.63	0.750			
0.2662	17037.80	3.9320	3.9318	0.9002	25.65	0.63	0.750			
0.2689	17211.06	3.9290	3.9289	0.8998	25.65	0.63	0.750			
0.2717	17385.75	3.9260	3.9260	0.9052	25.65	0.63	0.750			
0.2744	17561.12	3.9230	3.9231	0.9091	25.65	0.63	0.750			
0.2771	17736.42	3.9200	3.9201	0.9098	25.65	0.63	0.750			
0.2798	17909.08	3.9170	3.9170	0.9113	25.65	0.63	0.750			
0.2826	18085.27	3.9140	3.9140	0.9013	25.65	0.63	0.750			
0.2853	18256.47	3.9110	3.9110	0.9093	25.65	0.63	0.750			
0.2880	18431.48	3.9080	3.9081	0.9131	25.65	0.63	0.750			
0.2907	18607.66	3.9050	3.9048	0.9144	25.65	0.63	0.750			
0.2935	18786.20	3.9020	3.9020	0.9057	25.65	0.63	0.750			
0.2962	18959.63	3.8990	3.8991	0.9059	25.64	0.62	0.750			
0.2989	19132.75	3.8960	3.8961	0.9063	25.64	0.62	0.750			
0.3017	19308.89	3.8930	3.8930	0.9130	25.63	0.61	0.750			
0.3043	19477.85	3.8900	3.8897	0.9063	25.63	0.61	0.750			
0.3071	19654.81	3.8870	3.8871	0.9099	25.62	0.60	0.750			
0.3099	19831.22	3.8840	3.8840	0.9197	25.62	0.60	0.750			
0.3127	20010.03	3.8810	3.8810	0.9224	25.62	0.60	0.750			
0.3154	20186.20	3.8780	3.8780	0.9175	25.61	0.59	0.750			
0.3182	20362.74	3.8750	3.8751	0.9210	25.61	0.59	0.750			
0.3209	20539.66	3.8720	3.8720	0.9126	25.60	0.58	0.750			
0.3237	20713.76	3.8690	3.8690	0.9155	25.60	0.58	0.750			
0.3264	20887.39	3.8660	3.8661	0.9166	25.59	0.57	0.750			
0.3291	21064.67	3.8630	3.8632	0.9229	25.59	0.57	0.750			
0.3320	21246.38	3.8600	3.8599	0.9170	25.58	0.56	0.750			
0.3347	21420.89	3.8570	3.8571	0.9232	25.58	0.56	0.750			
0.3375	21599.12	3.8540	3.8542	0.9289	25.57	0.55	0.750			
0.3403	21776.06	3.8510	3.8510	0.9282	25.56	0.54	0.750			
0.3431	21956.57	3.8480	3.8481	0.9229	25.55	0.53	0.750			
0.3458	22131.02	3.8450	3.8450	0.9289	25.54	0.52	0.750			
0.3486	22309.74	3.8420	3.8421	0.9490	25.53	0.51	0.750			
0.3515	22496.36	3.8390	3.8389	0.9628	25.52	0.50	0.750			
0.3544	22679.83	3.8360	3.8354	0.9611	25.51	0.49	0.750	0.313	0.441	
0.3574	22871.40	3.8330	3.8331	0.9441	25.50	0.48	0.750			
0.3602	23050.20	3.8300	3.8302	0.9648	25.49	0.47	0.750			
0.3631	23236.29	3.8270	3.8271	0.9713	25.48	0.46	0.750			
0.3659	23418.44	3.8240	3.8236	0.9668	25.47	0.45	0.750			
0.3688	23604.70	3.8210	3.8212	0.9778	25.46	0.44	0.750			
0.3718	23792.93	3.8180	3.8183	0.9837	25.46	0.44	0.750			
0.3747	23983.42	3.8150	3.8151	0.9954	25.45	0.43	0.750			
0.3777	24175.71	3.8120	3.8121	0.9954	25.44	0.42	0.750			
0.3808	24369.29	3.8090	3.8091	1.0052	25.43	0.41	0.750			
0.3838	24562.98	3.8060	3.8061	1.0248	25.42	0.40	0.750			
0.3869	24761.72	3.8030	3.8031	1.0421	25.41	0.39	0.750			
0.3901	24966.98	3.8000	3.7999	1.0667	25.40	0.38	0.750			
0.3933	25172.48	3.7970	3.7970	1.0438	25.39	0.37	0.750			
0.3964	25372.10	3.7940	3.7941	1.0677	25.38	0.36	0.750			
0.3996	25574.89	3.7910	3.7912	1.0915	25.37	0.35	0.750			
0.4029	25786.82	3.7880	3.7880	1.1129	25.36	0.34	0.750			
0.4063	26000.85	3.7850	3.7851	1.1166	25.35	0.33	0.750			
0.4096	26215.49	3.7820	3.7822	1.1440	25.34	0.32	0.750			
0.4131	26439.33	3.7790	3.7792	1.1684	25.33	0.31	0.750			
0.4167	26671.96	3.7760	3.7758	1.1858	25.32	0.30	0.750			
0.4202	26892.54	3.7730	3.7731	1.1986	25.31	0.29	0.750			
0.4238	27125.28	3.7700	3.7702	1.2251	25.30	0.28	0.750			
0.4277	27373.66	3.7670	3.7668	1.2307	25.28	0.26	0.750			
0.4314	27606.67	3.7640	3.7641	1.2514	25.27	0.25	0.750			
0.4350	27842.77	3.7610	3.7612	1.2811	25.27	0.25	0.750			
0.4390	28093.39	3.7580	3.7582	1.3146	25.26	0.24	0.750			
0.4429	28346.89	3.7550	3.7551	1.3300	25.24	0.22	0.750			
0.4469	28602.64	3.7520	3.7522	1.3734	25.23	0.21	0.750			
0.4512	28877.89	3.7490	3.7492	1.4002	25.21	0.19	0.750			
0.4556	29157.18	3.7460	3.7453	1.4170	25.20	0.18	0.750			
0.4599	29431.09	3.7430	3.7433	1.4344	25.19	0.17	0.750			
0.4641	29699.26	3.7400	3.7403	1.5065	25.18	0.16	0.750			
0.4687	29998.55	3.7370	3.7371	1.5238	25.16	0.14	0.750			
0.4732	30284.44	3.7340	3.7343	1.5605	25.14	0.12	0.750			
0.4780	30591.10	3.7310	3.7315	1.6274	25.12	0.10	0.750			
0.4830	30913.33	3.7280	3.7285	1.7048	25.11	0.09	0.750			
0.4882	31247.91	3.7250	3.7253	1.7616	25.09	0.07	0.750			
0.4936	31591.41	3.7220	3.7218	1.7848	25.07	0.05	0.750			
0.4992	31946.44	3.7190	3.7189	1.8359	25.06	0.04	0.750			
0.5046	32295.83	3.7160	3.7159	1.8363	25.04	0.02	0.750			
0.5101	32647.17	3.7130	3.7134	1.9117	25.02	-0.00	0.750			
0.5158	33009.98	3.7100	3.7100	1.9808	25.00	-0.02	0.750			
0.5218	33398.18	3.7070	3.7069	2.0370	24.99	-0.03	0.750			
0.5282	33804.07	3.7040	3.7041	2.1086	24.98	-0.04	0.750			
0.5346	34214.35	3.7010	3.7007	2.1591	24.97	-0.05	0.750			
0.5411	34630.43	3.6980	3.6980	2.1772	24.96	-0.06	0.750			
0.5479	35063.29	3.6950	3.6948	2.2494	24.94	-0.08	0.750			
0.5547	35502.07	3.6920	3.6922	2.3192	24.93	-0.09	0.750			
0.5617	35946.52	3.6890	3.6892	2.3920	24.91	-0.11	0.750			
0.5687	36397.71	3.6860	3.6860	2.5267	24.90	-0.12	0.750			
0.5763	36886.14	3.6830	3.6831	2.5026	24.89	-0.13	0.750			
0.5841	37383.97	3.6800	3.6806	2.5893	24.89	-0.13	0.750			
0.5921	37896.07	3.6770	3.6765	2.6665	24.88	-0.14	0.750			
0.6004	38424.88	3.6740	3.6738	2.7314	24.87	-0.15	0.750			
0.6085	38941.15	3.6710	3.6711	2.6619	24.87	-0.15	0.750			
0.6160	39424.47	3.6680	3.6680	2.4368	24.87	-0.15	0.750			
0.6230	39874.05	3.6650	3.6647	2.2469	24.88	-0.14	0.750			
0.6297	40303.58	3.6620	3.6616	2.0938	24.88	-0.14	0.750			
0.6356	40675.51	3.6590	3.6585	1.9311	24.89	-0.13	0.750			
0.6411	41030.48	3.6560	3.6561	1.8106	24.89	-0.13	0.750			
0.6464	41368.90	3.6530	3.6524	1.6886	24.89	-0.13	0.750			
0.6511	41670.78	3.6500	3.6503	1.5390	24.90	-0.12	0.750			
0.6556	41957.95	3.6470	3.6472	1.4092	24.90	-0.12	0.750			
0.6597	42218.59	3.6440	3.6441	1.3168	24.91	-0.11	0.750			
0.6633	42453.95	3.6410	3.6411	1.2057	24.92	-0.10	0.750			
0.6668	42677.65	3.6380	3.6380	1.1379	24.92	-0.10	0.750			
0.6700	42881.27	3.6350	3.6351	1.0702	24.93	-0.09	0.750			
0.6731	43081.46	3.6320	3.6320	1.0329	24.93	-0.09	0.750			
0.6762	43275.46	3.6290	3.6291	0.9948	24.94	-0.08	0.750			
0.6791	43462.20	3.6260	3.6258	0.9565	24.94	-0.08	0.750			
0.6820	43645.55	3.6230	3.6231	0.9158	24.95	-0.07	0.750			
0.6847	43821.72	3.6200	3.6199	0.8677	24.96	-0.06	0.750			
0.6872	43981.89	3.6170	3.6171	0.8274	24.97	-0.05	0.750			
0.6896	44133.98	3.6140	3.6143	0.7756	24.97	-0.05	0.750			
0.6918	44276.07	3.6110	3.6117	0.7371	24.98	-0.04	0.750			
0.6940	44414.26	3.6080	3.6087	0.7011	24.99	-0.03	0.750			
0.6960	44546.50	3.6050	3.6055	0.6510	25.00	-0.02	0.750			
0.6980	44673.35	3.6020	3.6024	0.5973	25.00	-0.02	0.750			
0.6998	44786.63	3.5990	3.5990	0.5423	25.01	-0.01	0.750			
0.7012	44877.56	3.5960	3.5963	0.4655	25.01	-0.01	0.750			
0.7025	44961.93	3.5930	3.5931	0.4214	25.02	-0.00	0.750			
0.7037	45035.90	3.5900	3.5901	0.3695	25.02	-0.00	0.750			
0.7048	45104.27	3.5870	3.5874	0.3185	25.02	0.00	0.750			
0.7057	45161.92	3.5840	3.5841	0.2743	25.03	0.01	0.750			
0.7065	45216.48	3.5810	3.5809	0.2324	25.03	0.01	0.750			
0.7071	45254.36	3.5780	3.5779	0.1681	25.03	0.01	0.750			
0.7075	45279.93	3.5750	3.5754	0.1091	25.03	0.01	0.750			
0.7077	45295.17	3.5720	3.5737	0.0449	25.03	0.01	0.750			
