Ah_balance (normalized)	Ah_balance (mAh)	Voltage - fit (V)	Voltage -  interpolate (V)	dQ/dV (1/V)	Temperature (°C)	Temperature - diff (°C)	Current (C)	R_DC 0ms (mOhm)	R_DC 50ms (mOhm)	R_DC 50 ms PEC (mOhm)
0.0486	3111.67	4.1960	4.1960	0.7618	25.32	0.54	0.750			
0.0509	3257.49	4.1930	4.1928	0.7642	25.32	0.54	0.750			
0.0532	3406.15	4.1900	4.1901	0.7687	25.32	0.54	0.750			
0.0555	3554.74	4.1870	4.1870	0.7672	25.32	0.54	0.750			
0.0579	3702.73	4.1840	4.1840	0.7688	25.32	0.54	0.750			
0.0602	3850.28	4.1810	4.1810	0.7674	25.32	0.54	0.750			
0.0624	3995.97	4.1780	4.1781	0.7655	25.32	0.54	0.750			
0.0647	4141.88	4.1750	4.1751	0.7687	25.32	0.54	0.750			
0.0670	4288.28	4.1720	4.1720	0.7718	25.32	0.54	0.750			
0.0694	4438.57	4.1690	4.1690	0.7752	25.32	0.54	0.750			
0.0717	4587.09	4.1660	4.1660	0.7811	25.32	0.54	0.750			
0.0740	4737.82	4.1630	4.1631	0.7844	25.32	0.54	0.750			
0.0764	4889.76	4.1600	4.1598	0.7865	25.32	0.54	0.750			
0.0788	5041.39	4.1570	4.1570	0.7835	25.32	0.54	0.750			
0.0811	5193.23	4.1540	4.1540	0.7725	25.32	0.54	0.750			
0.0834	5339.97	4.1510	4.1511	0.7802	25.32	0.54	0.750			
0.0858	5489.65	4.1480	4.1480	0.7827	25.32	0.54	0.750			
0.0881	5637.12	4.1450	4.1448	0.7797	25.32	0.54	0.750			
0.0904	5787.47	4.1420	4.1422	0.7864	25.32	0.54	0.750			
0.0928	5940.02	4.1390	4.1391	0.7915	25.32	0.54	0.750			
0.0952	6092.94	4.1360	4.1360	0.7972	25.33	0.55	0.750			
0.0976	6247.84	4.1330	4.1330	0.8014	25.33	0.55	0.750			
0.1000	6399.41	4.1300	4.1300	0.7982	25.33	0.55	0.750			
0.1024	6554.26	4.1270	4.1270	0.8018	25.33	0.55	0.750			
0.1048	6709.43	4.1240	4.1240	0.8007	25.33	0.55	0.750			
0.1072	6860.91	4.1210	4.1211	0.8064	25.33	0.55	0.750			
0.1096	7015.44	4.1180	4.1180	0.8122	25.34	0.56	0.750			
0.1121	7171.94	4.1150	4.1149	0.8132	25.34	0.56	0.750			
0.1145	7328.92	4.1120	4.1120	0.8167	25.34	0.56	0.750			
0.1170	7487.74	4.1090	4.1091	0.8131	25.34	0.56	0.750			
0.1195	7644.86	4.1060	4.1060	0.8165	25.34	0.56	0.750			
0.1219	7800.95	4.1030	4.1030	0.8150	25.35	0.57	0.750			
0.1243	7954.99	4.1000	4.1000	0.8102	25.35	0.57	0.750			
0.1267	8110.29	4.0970	4.0969	0.8142	25.35	0.57	0.750			
0.1292	8268.35	4.0940	4.0940	0.8152	25.35	0.57	0.750			
0.1316	8424.54	4.0910	4.0910	0.8198	25.35	0.57	0.750			
0.1341	8582.71	4.0880	4.0880	0.8228	25.35	0.57	0.750			
0.1366	8739.21	4.0850	4.0850	0.8234	25.35	0.57	0.750			
0.1390	8897.99	4.0820	4.0819	0.8273	25.35	0.57	0.750			
0.1415	9058.50	4.0790	4.0790	0.8289	25.35	0.57	0.750			
0.1440	9216.78	4.0760	4.0760	0.8355	25.36	0.58	0.750			
0.1465	9378.62	4.0730	4.0731	0.8409	25.36	0.58	0.750			
0.1491	9540.16	4.0700	4.0700	0.8397	25.37	0.59	0.750			
0.1516	9701.90	4.0670	4.0669	0.8450	25.37	0.59	0.750			
0.1542	9866.00	4.0640	4.0641	0.8414	25.37	0.59	0.750			
0.1567	10027.31	4.0610	4.0609	0.8459	25.37	0.59	0.750			
0.1592	10188.44	4.0580	4.0580	0.8490	25.37	0.59	0.750			
0.1617	10350.16	4.0550	4.0551	0.8488	25.37	0.59	0.750			
0.1643	10514.36	4.0520	4.0521	0.8552	25.37	0.59	0.750			
0.1669	10679.81	4.0490	4.0490	0.8577	25.37	0.59	0.750			
0.1694	10844.28	4.0460	4.0461	0.8607	25.37	0.59	0.750			
0.1720	11010.58	4.0430	4.0430	0.8657	25.38	0.60	0.750			
0.1746	11177.16	4.0400	4.0400	0.8625	25.38	0.60	0.750			
0.1772	11342.57	4.0370	4.0370	0.8660	25.38	0.60	0.750			
0.1798	11509.90	4.0340	4.0340	0.8660	25.38	0.60	0.750			
0.1824	11675.50	4.0310	4.0310	0.8697	25.38	0.60	0.750			
0.1850	11842.62	4.0280	4.0281	0.8741	25.38	0.60	0.750			
0.1876	12009.00	4.0250	4.0249	0.8785	25.38	0.60	0.750			
0.1903	12178.70	4.0220	4.0220	0.8846	25.38	0.60	0.750			
0.1930	12350.80	4.0190	4.0190	0.8874	25.38	0.60	0.750			
0.1956	12520.64	4.0160	4.0160	0.8879	25.39	0.61	0.750			
0.1983	12692.81	4.0130	4.0131	0.8956	25.39	0.61	0.750			
0.2010	12863.72	4.0100	4.0099	0.8953	25.39	0.61	0.750			
0.2037	13035.59	4.0070	4.0070	0.8960	25.39	0.61	0.750			
0.2064	13207.75	4.0040	4.0040	0.8983	25.39	0.61	0.750			
0.2091	13381.58	4.0010	4.0010	0.9028	25.40	0.62	0.750			
0.2118	13555.27	3.9980	3.9980	0.9055	25.40	0.62	0.750			
0.2145	13727.92	3.9950	3.9950	0.9075	25.40	0.62	0.750			
0.2173	13904.65	3.9920	3.9920	0.8963	25.40	0.62	0.750			
0.2199	14075.39	3.9890	3.9890	0.9073	25.40	0.62	0.750			
0.2226	14249.24	3.9860	3.9861	0.9140	25.41	0.63	0.750			
0.2254	14424.09	3.9830	3.9829	0.9197	25.41	0.63	0.750			
0.2282	14604.10	3.9800	3.9801	0.9169	25.41	0.63	0.750			
0.2309	14780.12	3.9770	3.9771	0.9230	25.42	0.64	0.750			
0.2337	14957.76	3.9740	3.9740	0.9289	25.42	0.64	0.750			
0.2365	15139.04	3.9710	3.9711	0.9367	25.43	0.65	0.750			
0.2393	15314.15	3.9680	3.9678	0.9292	25.43	0.65	0.750			
0.2421	15493.39	3.9650	3.9650	0.9321	25.43	0.65	0.750			
0.2449	15672.89	3.9620	3.9620	0.9372	25.43	0.65	0.750			
0.2477	15855.51	3.9590	3.9590	0.9405	25.43	0.65	0.750			
0.2506	16035.74	3.9560	3.9559	0.9353	25.43	0.65	0.750			
0.2534	16217.20	3.9530	3.9530	0.9334	25.43	0.65	0.750			
0.2562	16395.31	3.9500	3.9501	0.9398	25.43	0.65	0.750			
0.2590	16574.53	3.9470	3.9470	0.9421	25.44	0.66	0.750			
0.2618	16755.23	3.9440	3.9441	0.9516	25.44	0.66	0.750			
0.2647	16937.94	3.9410	3.9410	0.9535	25.44	0.66	0.750			
0.2675	17122.53	3.9380	3.9380	0.9534	25.44	0.66	0.750			
0.2704	17306.97	3.9350	3.9351	0.9588	25.45	0.67	0.750			
0.2733	17490.58	3.9320	3.9321	0.9632	25.45	0.67	0.750			
0.2762	17674.68	3.9290	3.9286	0.9624	25.45	0.67	0.750			
0.2791	17860.42	3.9260	3.9260	0.9644	25.45	0.67	0.750			
0.2820	18045.76	3.9230	3.9231	0.9678	25.45	0.67	0.750			
0.2849	18234.57	3.9200	3.9200	0.9746	25.46	0.68	0.750			
0.2878	18420.06	3.9170	3.9170	0.9706	25.46	0.68	0.750			
0.2907	18607.90	3.9140	3.9140	0.9696	25.46	0.68	0.750			
0.2936	18793.44	3.9110	3.9110	0.9733	25.46	0.68	0.750			
0.2966	18980.39	3.9080	3.9081	0.9813	25.47	0.69	0.750			
0.2995	19168.69	3.9050	3.9050	0.9881	25.47	0.69	0.750			
0.3025	19360.57	3.9020	3.9020	0.9896	25.47	0.69	0.750			
0.3055	19551.55	3.8990	3.8990	0.9946	25.47	0.69	0.750			
0.3085	19742.56	3.8960	3.8960	0.9987	25.47	0.69	0.750			
0.3115	19936.46	3.8930	3.8931	1.0046	25.47	0.69	0.750			
0.3145	20127.80	3.8900	3.8900	1.0049	25.47	0.69	0.750			
0.3175	20319.78	3.8870	3.8870	1.0101	25.47	0.69	0.750			
0.3205	20514.62	3.8840	3.8840	1.0147	25.47	0.69	0.750			
0.3236	20711.09	3.8810	3.8811	1.0229	25.47	0.69	0.750			
0.3267	20909.77	3.8780	3.8780	1.0251	25.47	0.69	0.750			
0.3298	21106.21	3.8750	3.8750	1.0284	25.47	0.69	0.750			
0.3329	21303.49	3.8720	3.8720	1.0330	25.47	0.69	0.750			
0.3360	21502.02	3.8690	3.8690	1.0371	25.47	0.69	0.750			
0.3391	21702.05	3.8660	3.8660	1.0389	25.47	0.69	0.750			
0.3422	21902.48	3.8630	3.8630	1.0348	25.47	0.69	0.750			
0.3453	22098.93	3.8600	3.8601	1.0419	25.46	0.68	0.750			
0.3484	22298.57	3.8570	3.8571	1.0515	25.46	0.68	0.750			
0.3516	22503.09	3.8540	3.8536	1.0557	25.46	0.68	0.750			
0.3548	22704.40	3.8510	3.8511	1.0635	25.46	0.68	0.750			
0.3580	22910.42	3.8480	3.8481	1.0734	25.45	0.67	0.750			
0.3613	23121.11	3.8450	3.8451	1.0830	25.45	0.67	0.750			
0.3645	23328.17	3.8420	3.8419	1.0786	25.45	0.67	0.750			
0.3677	23535.11	3.8390	3.8390	1.0890	25.45	0.67	0.750			
0.3710	23743.90	3.8360	3.8360	1.0974	25.44	0.66	0.750			
0.3743	23956.84	3.8330	3.8327	1.1045	25.44	0.66	0.750	0.327	0.432	
0.3777	24169.91	3.8300	3.8301	1.1030	25.44	0.66	0.750			
0.3810	24383.16	3.8270	3.8270	1.1160	25.43	0.65	0.750			
0.3843	24598.02	3.8240	3.8240	1.1215	25.43	0.65	0.750			
0.3877	24815.14	3.8210	3.8209	1.1274	25.42	0.64	0.750			
0.3911	25028.33	3.8180	3.8181	1.1326	25.41	0.63	0.750			
0.3945	25246.93	3.8150	3.8150	1.1433	25.40	0.62	0.750			
0.3979	25468.59	3.8120	3.8120	1.1526	25.39	0.61	0.750			
0.4015	25692.93	3.8090	3.8089	1.1489	25.38	0.60	0.750			
0.4049	25913.68	3.8060	3.8062	1.1580	25.37	0.59	0.750			
0.4084	26136.49	3.8030	3.8031	1.1687	25.36	0.58	0.750			
0.4119	26360.87	3.8000	3.8000	1.1770	25.35	0.57	0.750			
0.4154	26584.55	3.7970	3.7970	1.1884	25.34	0.56	0.750			
0.4190	26813.54	3.7940	3.7941	1.2065	25.33	0.55	0.750			
0.4226	27048.20	3.7910	3.7910	1.2256	25.32	0.54	0.750			
0.4264	27290.04	3.7880	3.7879	1.2396	25.31	0.53	0.750			
0.4301	27527.61	3.7850	3.7851	1.2429	25.30	0.52	0.750			
0.4339	27766.77	3.7820	3.7820	1.2524	25.29	0.51	0.750			
0.4377	28010.81	3.7790	3.7789	1.2516	25.27	0.49	0.750			
0.4413	28246.17	3.7760	3.7760	1.2567	25.26	0.48	0.750			
0.4451	28488.14	3.7730	3.7730	1.2732	25.24	0.46	0.750			
0.4490	28733.90	3.7700	3.7701	1.2900	25.23	0.45	0.750			
0.4529	28982.61	3.7670	3.7670	1.3166	25.21	0.43	0.750			
0.4568	29235.59	3.7640	3.7641	1.3416	25.20	0.42	0.750			
0.4609	29497.62	3.7610	3.7610	1.3673	25.19	0.41	0.750			
0.4650	29762.18	3.7580	3.7581	1.4064	25.18	0.40	0.750			
0.4693	30034.96	3.7550	3.7550	1.4353	25.16	0.38	0.750			
0.4737	30316.66	3.7520	3.7520	1.4624	25.15	0.37	0.750			
0.4781	30600.38	3.7490	3.7491	1.4963	25.13	0.35	0.750			
0.4827	30889.62	3.7460	3.7461	1.5310	25.12	0.34	0.750			
0.4873	31184.84	3.7430	3.7429	1.5733	25.10	0.32	0.750			
0.4920	31487.41	3.7400	3.7401	1.6171	25.09	0.31	0.750			
0.4970	31805.91	3.7370	3.7370	1.6661	25.07	0.29	0.750			
0.5021	32131.92	3.7340	3.7339	1.7173	25.05	0.27	0.750			
0.5073	32470.12	3.7310	3.7311	1.7682	25.03	0.25	0.750			
0.5127	32811.01	3.7280	3.7281	1.8175	25.01	0.23	0.750			
0.5182	33162.18	3.7250	3.7249	1.8646	24.99	0.21	0.750			
0.5238	33522.07	3.7220	3.7220	1.9172	24.97	0.19	0.750			
0.5296	33896.46	3.7190	3.7189	1.9749	24.95	0.17	0.750			
0.5357	34283.21	3.7160	3.7160	2.0479	24.94	0.16	0.750			
0.5419	34680.60	3.7130	3.7131	2.1011	24.92	0.14	0.750			
0.5483	35090.57	3.7100	3.7099	2.1578	24.89	0.11	0.750			
0.5549	35511.01	3.7070	3.7070	2.2363	24.87	0.09	0.750			
0.5616	35943.02	3.7040	3.7041	2.3153	24.85	0.07	0.750			
0.5687	36397.01	3.7010	3.7011	2.3659	24.82	0.04	0.750			
0.5760	36864.02	3.6980	3.6980	2.4160	24.80	0.02	0.750			
0.5833	37328.92	3.6950	3.6949	2.4664	24.78	0.00	0.750			
0.5907	37802.24	3.6920	3.6920	2.5450	24.76	-0.02	0.750			
0.5983	38293.91	3.6890	3.6891	2.6261	24.74	-0.04	0.750			
0.6064	38806.58	3.6860	3.6860	2.7124	24.72	-0.06	0.750			
0.6148	39344.79	3.6830	3.6829	2.7361	24.70	-0.08	0.750			
0.6230	39873.54	3.6800	3.6800	2.7970	24.69	-0.09	0.750			
0.6315	40415.76	3.6770	3.6768	2.8552	24.67	-0.11	0.750			
0.6402	40970.07	3.6740	3.6740	2.9197	24.66	-0.12	0.750			
0.6491	41543.32	3.6710	3.6709	2.9727	24.65	-0.13	0.750			
0.6580	42113.21	3.6680	3.6679	2.9517	24.65	-0.13	0.750			
0.6669	42681.21	3.6650	3.6649	2.8926	24.65	-0.13	0.750			
0.6755	43235.14	3.6620	3.6620	2.7641	24.65	-0.13	0.750			
0.6835	43744.93	3.6590	3.6591	2.5410	24.66	-0.12	0.750			
0.6908	44211.22	3.6560	3.6563	2.3038	24.67	-0.11	0.750			
0.6974	44635.98	3.6530	3.6529	2.1070	24.68	-0.10	0.750			
0.7034	45014.88	3.6500	3.6499	1.8942	24.70	-0.08	0.750			
0.7088	45363.90	3.6470	3.6467	1.7081	24.71	-0.07	0.750			
0.7138	45680.70	3.6440	3.6437	1.5164	24.72	-0.06	0.750			
0.7179	45943.36	3.6410	3.6412	1.3272	24.73	-0.05	0.750			
0.7215	46173.91	3.6380	3.6381	1.1592	24.73	-0.05	0.750			
0.7245	46369.30	3.6350	3.6351	1.0231	24.74	-0.04	0.750			
0.7273	46545.61	3.6320	3.6319	0.9140	24.74	-0.04	0.750			
0.7298	46709.07	3.6290	3.6291	0.8532	24.75	-0.03	0.750			
0.7323	46864.45	3.6260	3.6260	0.8088	24.76	-0.02	0.750			
0.7346	47016.06	3.6230	3.6229	0.7724	24.77	-0.01	0.750			
0.7369	47159.66	3.6200	3.6200	0.7282	24.77	-0.01	0.750			
0.7390	47298.01	3.6170	3.6170	0.6934	24.78	0.00	0.750			
0.7411	47430.26	3.6140	3.6141	0.6469	24.79	0.01	0.750			
0.7430	47553.14	3.6110	3.6110	0.5945	24.79	0.01	0.750			
0.7447	47663.21	3.6080	3.6080	0.5312	24.80	0.02	0.750			
0.7462	47759.52	3.6050	3.6049	0.4643	24.80	0.02	0.750			
0.7475	47842.21	3.6020	3.6021	0.3959	24.81	0.03	0.750			
0.7486	47911.33	3.5990	3.5989	0.3257	24.81	0.03	0.750			
0.7495	47966.94	3.5960	3.5961	0.2563	24.81	0.03	0.750			
0.7502	48009.70	3.5930	3.5931	0.1865	24.82	0.04	0.750			
0.7506	48038.99	3.5900	3.5901	0.1135	24.82	0.04	0.750			
