Ah_balance (normalized)	Ah_balance (mAh)	Voltage - fit (V)	Voltage -  interpolate (V)	dQ/dV (1/V)	Temperature (°C)	Temperature - diff (°C)	Current (C)	R_DC 0ms (mOhm)	R_DC 50ms (mOhm)	R_DC 50 ms PEC (mOhm)
0.0472	3018.92	4.1990	4.1990	0.7348	25.15	0.44	0.750			
0.0494	3162.61	4.1960	4.1958	0.7574	25.15	0.44	0.750			
0.0517	3309.84	4.1930	4.1930	0.7664	25.15	0.44	0.750			
0.0540	3459.16	4.1900	4.1900	0.7663	25.15	0.44	0.750			
0.0563	3605.89	4.1870	4.1871	0.7655	25.14	0.43	0.750			
0.0586	3753.57	4.1840	4.1840	0.7644	25.14	0.43	0.750			
0.0609	3899.77	4.1810	4.1811	0.7635	25.14	0.43	0.750			
0.0632	4045.62	4.1780	4.1780	0.7637	25.14	0.43	0.750			
0.0655	4191.93	4.1750	4.1750	0.7657	25.14	0.43	0.750			
0.0678	4339.01	4.1720	4.1721	0.7693	25.14	0.43	0.750			
0.0701	4488.80	4.1690	4.1689	0.7757	25.14	0.43	0.750			
0.0725	4637.04	4.1660	4.1660	0.7731	25.14	0.43	0.750			
0.0748	4785.98	4.1630	4.1630	0.7741	25.14	0.43	0.750			
0.0771	4934.26	4.1600	4.1600	0.7759	25.14	0.43	0.750			
0.0795	5085.75	4.1570	4.1570	0.7668	25.14	0.43	0.750			
0.0817	5231.09	4.1540	4.1540	0.7708	25.14	0.43	0.750			
0.0840	5378.41	4.1510	4.1510	0.7731	25.14	0.43	0.750			
0.0863	5525.99	4.1480	4.1480	0.7751	25.14	0.43	0.750			
0.0887	5675.35	4.1450	4.1451	0.7783	25.14	0.43	0.750			
0.0911	5829.43	4.1420	4.1419	0.7723	25.14	0.43	0.750			
0.0934	5975.63	4.1390	4.1391	0.7772	25.14	0.43	0.750			
0.0957	6123.61	4.1360	4.1361	0.7778	25.14	0.43	0.750			
0.0980	6272.89	4.1330	4.1332	0.7866	25.14	0.43	0.750			
0.1004	6423.77	4.1300	4.1298	0.7915	25.14	0.43	0.750			
0.1028	6578.10	4.1270	4.1271	0.7962	25.14	0.43	0.750			
0.1052	6733.93	4.1240	4.1241	0.8024	25.14	0.43	0.750			
0.1076	6889.04	4.1210	4.1210	0.8037	25.14	0.43	0.750			
0.1100	7042.40	4.1180	4.1180	0.7971	25.14	0.43	0.750			
0.1124	7194.46	4.1150	4.1150	0.7969	25.14	0.43	0.750			
0.1148	7347.92	4.1120	4.1120	0.7984	25.14	0.43	0.750			
0.1172	7501.33	4.1090	4.1091	0.8019	25.14	0.43	0.750			
0.1196	7655.42	4.1060	4.1060	0.8063	25.14	0.43	0.750			
0.1221	7811.55	4.1030	4.1030	0.8099	25.14	0.43	0.750			
0.1245	7967.43	4.1000	4.0998	0.8104	25.14	0.43	0.750			
0.1269	8123.33	4.0970	4.0971	0.8124	25.14	0.43	0.750			
0.1294	8284.33	4.0940	4.0940	0.7923	25.14	0.43	0.750			
0.1317	8431.62	4.0910	4.0910	0.8049	25.15	0.44	0.750			
0.1341	8583.86	4.0880	4.0881	0.8079	25.15	0.44	0.750			
0.1365	8737.29	4.0850	4.0850	0.8074	25.15	0.44	0.750			
0.1390	8893.17	4.0820	4.0821	0.8149	25.15	0.44	0.750			
0.1414	9051.63	4.0790	4.0793	0.8227	25.15	0.44	0.750			
0.1439	9211.54	4.0760	4.0761	0.8284	25.14	0.43	0.750			
0.1465	9372.85	4.0730	4.0730	0.8245	25.14	0.43	0.750			
0.1489	9530.54	4.0700	4.0699	0.8279	25.14	0.43	0.750			
0.1514	9689.86	4.0670	4.0670	0.8337	25.14	0.43	0.750			
0.1540	9853.12	4.0640	4.0640	0.8307	25.14	0.43	0.750			
0.1564	10012.07	4.0610	4.0610	0.8372	25.15	0.44	0.750			
0.1589	10171.50	4.0580	4.0580	0.8365	25.15	0.44	0.750			
0.1615	10332.98	4.0550	4.0549	0.8415	25.15	0.44	0.750			
0.1640	10494.60	4.0520	4.0521	0.8412	25.15	0.44	0.750			
0.1666	10659.22	4.0490	4.0489	0.8303	25.15	0.44	0.750			
0.1690	10817.11	4.0460	4.0461	0.8427	25.15	0.44	0.750			
0.1715	10979.02	4.0430	4.0431	0.8494	25.15	0.44	0.750			
0.1741	11140.01	4.0400	4.0396	0.8495	25.15	0.44	0.750			
0.1766	11304.27	4.0370	4.0371	0.8559	25.15	0.44	0.750			
0.1792	11468.54	4.0340	4.0341	0.8584	25.16	0.45	0.750			
0.1818	11634.96	4.0310	4.0310	0.8637	25.16	0.45	0.750			
0.1844	11800.89	4.0280	4.0280	0.8606	25.17	0.46	0.750			
0.1870	11967.00	4.0250	4.0248	0.8664	25.17	0.46	0.750			
0.1896	12136.58	4.0220	4.0221	0.8618	25.17	0.46	0.750			
0.1922	12301.70	4.0190	4.0190	0.8664	25.17	0.46	0.750			
0.1948	12468.31	4.0160	4.0161	0.8694	25.17	0.46	0.750			
0.1974	12633.13	4.0130	4.0130	0.8721	25.17	0.46	0.750			
0.2000	12800.26	4.0100	4.0099	0.8778	25.17	0.46	0.750			
0.2027	12971.03	4.0070	4.0070	0.8746	25.17	0.46	0.750			
0.2053	13139.80	4.0040	4.0041	0.8842	25.17	0.46	0.750			
0.2080	13310.94	4.0010	4.0011	0.8885	25.17	0.46	0.750			
0.2106	13479.99	3.9980	3.9980	0.8872	25.17	0.46	0.750			
0.2133	13649.88	3.9950	3.9951	0.8916	25.17	0.46	0.750			
0.2160	13821.66	3.9920	3.9921	0.8944	25.17	0.46	0.750			
0.2187	13995.60	3.9890	3.9890	0.9008	25.18	0.47	0.750			
0.2214	14170.35	3.9860	3.9860	0.9033	25.18	0.47	0.750			
0.2241	14343.92	3.9830	3.9828	0.8951	25.18	0.47	0.750			
0.2268	14516.95	3.9800	3.9801	0.8914	25.18	0.47	0.750			
0.2295	14686.06	3.9770	3.9770	0.8860	25.18	0.47	0.750			
0.2321	14854.99	3.9740	3.9742	0.8842	25.18	0.47	0.750			
0.2347	15023.09	3.9710	3.9709	0.8913	25.18	0.47	0.750			
0.2374	15192.46	3.9680	3.9679	0.8961	25.18	0.47	0.750			
0.2402	15369.64	3.9650	3.9650	0.8881	25.18	0.47	0.750			
0.2428	15538.32	3.9620	3.9621	0.9054	25.18	0.47	0.750			
0.2455	15715.02	3.9590	3.9591	0.9149	25.19	0.48	0.750			
0.2483	15890.66	3.9560	3.9562	0.9250	25.19	0.48	0.750			
0.2510	16067.03	3.9530	3.9531	0.9264	25.19	0.48	0.750			
0.2538	16245.90	3.9500	3.9501	0.9224	25.19	0.48	0.750			
0.2566	16424.63	3.9470	3.9471	0.9295	25.20	0.49	0.750			
0.2594	16604.27	3.9440	3.9441	0.9319	25.20	0.49	0.750			
0.2622	16781.02	3.9410	3.9407	0.9204	25.20	0.49	0.750			
0.2650	16960.91	3.9380	3.9380	0.9150	25.20	0.49	0.750			
0.2677	17133.40	3.9350	3.9351	0.9255	25.20	0.49	0.750			
0.2705	17312.54	3.9320	3.9321	0.9348	25.20	0.49	0.750			
0.2733	17491.64	3.9290	3.9289	0.9337	25.20	0.49	0.750			
0.2761	17671.56	3.9260	3.9260	0.9389	25.20	0.49	0.750			
0.2790	17853.03	3.9230	3.9231	0.9362	25.20	0.49	0.750			
0.2818	18033.77	3.9200	3.9201	0.9387	25.21	0.50	0.750			
0.2846	18212.58	3.9170	3.9170	0.9477	25.21	0.50	0.750			
0.2874	18391.16	3.9140	3.9135	0.9424	25.21	0.50	0.750			
0.2902	18574.30	3.9110	3.9111	0.9459	25.21	0.50	0.750			
0.2931	18757.41	3.9080	3.9081	0.9510	25.21	0.50	0.750			
0.2960	18943.50	3.9050	3.9051	0.9583	25.22	0.51	0.750			
0.2988	19125.01	3.9020	3.9020	0.9507	25.22	0.51	0.750			
0.3018	19312.06	3.8990	3.8988	0.9476	25.22	0.51	0.750			
0.3045	19490.82	3.8960	3.8960	0.9488	25.22	0.51	0.750			
0.3074	19673.95	3.8930	3.8930	0.9531	25.22	0.51	0.750			
0.3103	19856.41	3.8900	3.8901	0.9564	25.22	0.51	0.750			
0.3131	20039.65	3.8870	3.8871	0.9557	25.22	0.51	0.750			
0.3160	20226.68	3.8840	3.8839	0.9379	25.22	0.51	0.750			
0.3188	20402.44	3.8810	3.8811	0.9501	25.22	0.51	0.750			
0.3216	20585.46	3.8780	3.8781	0.9607	25.22	0.51	0.750			
0.3245	20767.96	3.8750	3.8740	0.9599	25.22	0.51	0.750			
0.3274	20954.69	3.8720	3.8723	0.9707	25.22	0.51	0.750			
0.3303	21141.65	3.8690	3.8692	0.9789	25.21	0.50	0.750			
0.3333	21332.68	3.8660	3.8660	0.9880	25.21	0.50	0.750			
0.3364	21529.05	3.8630	3.8629	1.0027	25.20	0.49	0.750			
0.3393	21718.40	3.8600	3.8599	0.9754	25.20	0.49	0.750			
0.3422	21903.86	3.8570	3.8570	0.9895	25.20	0.49	0.750			
0.3452	22091.66	3.8540	3.8541	1.0045	25.19	0.48	0.750			
0.3482	22284.55	3.8510	3.8512	1.0198	25.19	0.48	0.750			
0.3514	22487.98	3.8480	3.8481	1.0071	25.19	0.48	0.750			
0.3544	22679.15	3.8450	3.8451	1.0121	25.18	0.47	0.750			
0.3573	22869.08	3.8420	3.8423	1.0325	25.18	0.47	0.750			
0.3605	23069.27	3.8390	3.8393	1.0394	25.17	0.46	0.750			
0.3635	23263.93	3.8360	3.8362	1.0463	25.17	0.46	0.750			
0.3667	23467.50	3.8330	3.8333	1.0657	25.16	0.45	0.750			
0.3699	23675.96	3.8300	3.8303	1.0885	25.15	0.44	0.750	0.267	0.367	
0.3733	23893.19	3.8270	3.8272	1.0987	25.14	0.43	0.750			
0.3767	24105.64	3.8240	3.8241	1.0779	25.13	0.42	0.750			
0.3799	24314.22	3.8210	3.8210	1.0831	25.13	0.42	0.750			
0.3831	24521.34	3.8180	3.8180	1.0607	25.12	0.41	0.750			
0.3863	24723.75	3.8150	3.8148	1.0722	25.11	0.40	0.750			
0.3896	24931.20	3.8120	3.8121	1.0651	25.10	0.39	0.750			
0.3927	25132.16	3.8090	3.8091	1.0777	25.10	0.39	0.750			
0.3959	25339.65	3.8060	3.8063	1.0922	25.09	0.38	0.750			
0.3993	25552.37	3.8030	3.8025	1.1028	25.08	0.37	0.750			
0.4026	25763.27	3.8000	3.8001	1.1144	25.07	0.36	0.750			
0.4060	25981.03	3.7970	3.7971	1.1320	25.06	0.35	0.750			
0.4094	26199.22	3.7940	3.7941	1.1441	25.05	0.34	0.750			
0.4129	26425.50	3.7910	3.7908	1.1217	25.04	0.33	0.750			
0.4162	26637.47	3.7880	3.7881	1.1407	25.03	0.32	0.750			
0.4196	26853.88	3.7850	3.7851	1.1603	25.03	0.32	0.750			
0.4231	27076.24	3.7820	3.7822	1.1890	25.02	0.31	0.750			
0.4267	27306.65	3.7790	3.7791	1.1862	25.01	0.30	0.750			
0.4302	27533.42	3.7760	3.7762	1.2219	25.00	0.29	0.750			
0.4339	27769.93	3.7730	3.7732	1.2569	24.99	0.28	0.750			
0.4378	28018.05	3.7700	3.7694	1.2816	24.98	0.27	0.750			
0.4416	28262.45	3.7670	3.7671	1.2991	24.97	0.26	0.750			
0.4456	28517.91	3.7640	3.7642	1.3250	24.96	0.25	0.750			
0.4498	28785.82	3.7610	3.7609	1.3157	24.95	0.24	0.750			
0.4536	29030.00	3.7580	3.7581	1.3541	24.94	0.23	0.750			
0.4577	29291.87	3.7550	3.7551	1.3919	24.93	0.22	0.750			
0.4619	29560.30	3.7520	3.7511	1.4121	24.92	0.21	0.750			
0.4662	29838.53	3.7490	3.7492	1.4330	24.91	0.20	0.750			
0.4705	30113.17	3.7460	3.7463	1.4805	24.89	0.18	0.750			
0.4752	30411.24	3.7430	3.7427	1.4918	24.88	0.17	0.750			
0.4798	30704.30	3.7400	3.7399	1.4942	24.87	0.16	0.750			
0.4842	30988.82	3.7370	3.7374	1.5628	24.86	0.15	0.750			
0.4891	31299.99	3.7340	3.7343	1.6032	24.85	0.14	0.750			
0.4939	31609.69	3.7310	3.7314	1.6463	24.83	0.12	0.750			
0.4990	31933.99	3.7280	3.7279	1.7129	24.82	0.11	0.750			
0.5042	32266.39	3.7250	3.7248	1.7771	24.81	0.10	0.750			
0.5097	32620.23	3.7220	3.7223	1.8560	24.80	0.09	0.750			
0.5152	32972.66	3.7190	3.7194	1.8766	24.79	0.08	0.750			
0.5211	33351.94	3.7160	3.7155	1.9476	24.77	0.06	0.750			
0.5268	33717.85	3.7130	3.7131	2.0117	24.75	0.04	0.750			
0.5330	34111.92	3.7100	3.7102	2.0758	24.74	0.03	0.750			
0.5393	34516.44	3.7070	3.7071	2.0989	24.72	0.01	0.750			
0.5456	34915.45	3.7040	3.7034	2.1914	24.71	-0.00	0.750			
0.5523	35349.91	3.7010	3.7011	2.2221	24.69	-0.02	0.750			
0.5594	35800.33	3.6980	3.6977	2.2931	24.67	-0.04	0.750			
0.5665	36257.28	3.6950	3.6955	2.3687	24.65	-0.06	0.750			
0.5732	36687.47	3.6920	3.6922	2.3967	24.64	-0.07	0.750			
0.5808	37169.70	3.6890	3.6895	2.5070	24.63	-0.08	0.750			
0.5879	37624.10	3.6860	3.6859	2.5348	24.62	-0.09	0.750			
0.5956	38116.08	3.6830	3.6831	2.6345	24.61	-0.10	0.750			
0.6038	38643.51	3.6800	3.6805	2.6498	24.61	-0.10	0.750			
0.6118	39157.72	3.6770	3.6768	2.8755	24.60	-0.11	0.750			
0.6205	39710.33	3.6740	3.6740	2.9340	24.59	-0.12	0.750			
0.6288	40243.16	3.6710	3.6703	2.9843	24.58	-0.13	0.750			
0.6377	40811.58	3.6680	3.6681	2.9939	24.58	-0.13	0.750			
0.6464	41369.67	3.6650	3.6656	2.9675	24.58	-0.13	0.750			
0.6551	41926.03	3.6620	3.6625	2.8238	24.58	-0.13	0.750			
0.6633	42452.89	3.6590	3.6593	2.6403	24.58	-0.13	0.750			
0.6708	42931.04	3.6560	3.6557	2.4127	24.59	-0.12	0.750			
0.6772	43339.17	3.6530	3.6531	2.1330	24.60	-0.11	0.750			
0.6832	43725.84	3.6500	3.6494	1.8963	24.61	-0.10	0.750			
0.6881	44039.88	3.6470	3.6467	1.6629	24.61	-0.10	0.750			
0.6929	44344.23	3.6440	3.6445	1.5081	24.61	-0.10	0.750			
0.6973	44624.08	3.6410	3.6414	1.3709	24.62	-0.09	0.750			
0.7012	44875.24	3.6380	3.6383	1.2301	24.62	-0.09	0.750			
0.7045	45090.74	3.6350	3.6352	1.1109	24.63	-0.08	0.750			
0.7077	45291.63	3.6320	3.6320	1.0317	24.63	-0.08	0.750			
0.7107	45483.91	3.6290	3.6289	0.9823	24.64	-0.07	0.750			
0.7134	45656.13	3.6260	3.6261	0.9178	24.64	-0.07	0.750			
0.7161	45832.93	3.6230	3.6229	0.8803	24.65	-0.06	0.750			
0.7187	45995.82	3.6200	3.6201	0.8519	24.66	-0.05	0.750			
0.7212	46157.26	3.6170	3.6170	0.8233	24.67	-0.04	0.750			
0.7236	46311.68	3.6140	3.6142	0.7806	24.68	-0.03	0.750			
0.7259	46460.34	3.6110	3.6112	0.7402	24.68	-0.03	0.750			
0.7281	46600.35	3.6080	3.6082	0.6823	24.69	-0.02	0.750			
0.7302	46730.56	3.6050	3.6051	0.6250	24.69	-0.02	0.750			
0.7320	46846.41	3.6020	3.6020	0.5563	24.70	-0.01	0.750			
0.7335	46944.44	3.5990	3.5990	0.4828	24.70	-0.01	0.750			
0.7348	47029.13	3.5960	3.5960	0.4164	24.70	-0.01	0.750			
0.7360	47100.82	3.5930	3.5930	0.3595	24.71	-0.00	0.750			
0.7369	47162.85	3.5900	3.5892	0.3015	24.71	-0.00	0.750			
0.7377	47215.39	3.5870	3.5872	0.2501	24.71	0.00	0.750			
0.7384	47257.45	3.5840	3.5845	0.2014	24.71	0.00	0.750			
0.7389	47291.74	3.5810	3.5817	0.1544	24.71	0.00	0.750			
0.7393	47316.72	3.5780	3.5784	0.0955	24.72	0.01	0.750			
