Ah_balance (normalized)	Ah_balance (mAh)	Voltage - fit (V)	Voltage -  interpolate (V)	dQ/dV (1/V)	Temperature (°C)	Temperature - diff (°C)	Current (C)	R_DC 0ms (mOhm)	R_DC 50ms (mOhm)	R_DC 50 ms PEC (mOhm)
0.0493	3156.88	4.1970	4.1971	0.7284	26.02	0.40	0.750			
0.0515	3298.63	4.1940	4.1942	0.7417	26.02	0.40	0.750			
0.0538	3442.90	4.1910	4.1910	0.7488	26.02	0.40	0.750			
0.0561	3587.37	4.1880	4.1880	0.7523	26.02	0.40	0.750			
0.0583	3732.60	4.1850	4.1851	0.7504	26.02	0.40	0.750			
0.0606	3877.22	4.1820	4.1821	0.7550	26.03	0.41	0.750			
0.0628	4021.77	4.1790	4.1790	0.7520	26.03	0.41	0.750			
0.0651	4165.44	4.1760	4.1759	0.7523	26.03	0.41	0.750			
0.0673	4309.84	4.1730	4.1730	0.7557	26.03	0.41	0.750			
0.0696	4456.89	4.1700	4.1701	0.7531	26.03	0.41	0.750			
0.0719	4602.08	4.1670	4.1669	0.7582	26.03	0.41	0.750			
0.0742	4747.36	4.1640	4.1641	0.7571	26.03	0.41	0.750			
0.0764	4891.79	4.1610	4.1611	0.7600	26.03	0.41	0.750			
0.0787	5038.06	4.1580	4.1581	0.7662	26.03	0.41	0.750			
0.0810	5185.94	4.1550	4.1550	0.7685	26.03	0.41	0.750			
0.0833	5334.39	4.1520	4.1519	0.7656	26.03	0.41	0.750			
0.0857	5482.44	4.1490	4.1492	0.7636	26.03	0.41	0.750			
0.0879	5627.92	4.1460	4.1460	0.7627	26.03	0.41	0.750			
0.0902	5773.66	4.1430	4.1427	0.7643	26.03	0.41	0.750			
0.0925	5918.31	4.1400	4.1401	0.7604	26.03	0.41	0.750			
0.0948	6064.37	4.1370	4.1370	0.7654	26.04	0.42	0.750			
0.0971	6214.35	4.1340	4.1341	0.7725	26.04	0.42	0.750			
0.0994	6363.57	4.1310	4.1310	0.7762	26.04	0.42	0.750			
0.1018	6512.45	4.1280	4.1280	0.7742	26.05	0.43	0.750			
0.1041	6660.49	4.1250	4.1251	0.7748	26.05	0.43	0.750			
0.1064	6808.83	4.1220	4.1220	0.7757	26.05	0.43	0.750			
0.1087	6958.00	4.1190	4.1190	0.7776	26.05	0.43	0.750			
0.1110	7106.87	4.1160	4.1161	0.7779	26.06	0.44	0.750			
0.1134	7256.53	4.1130	4.1130	0.7815	26.06	0.44	0.750			
0.1157	7406.89	4.1100	4.1098	0.7823	26.06	0.44	0.750			
0.1181	7557.57	4.1070	4.1071	0.7847	26.06	0.44	0.750			
0.1205	7710.21	4.1040	4.1040	0.7707	26.06	0.44	0.750			
0.1228	7857.24	4.1010	4.1010	0.7798	26.07	0.45	0.750			
0.1251	8005.89	4.0980	4.0981	0.7854	26.07	0.45	0.750			
0.1274	8154.67	4.0950	4.0948	0.7879	26.07	0.45	0.750			
0.1298	8307.35	4.0920	4.0921	0.7889	26.07	0.45	0.750			
0.1322	8461.10	4.0890	4.0891	0.7917	26.07	0.45	0.750			
0.1346	8613.19	4.0860	4.0861	0.7963	26.08	0.46	0.750			
0.1370	8769.44	4.0830	4.0830	0.8026	26.08	0.46	0.750			
0.1394	8918.60	4.0800	4.0799	0.7961	26.08	0.46	0.750			
0.1418	9072.23	4.0770	4.0770	0.8016	26.08	0.46	0.750			
0.1442	9227.90	4.0740	4.0740	0.8038	26.08	0.46	0.750			
0.1466	9383.58	4.0710	4.0711	0.8053	26.08	0.46	0.750			
0.1490	9538.23	4.0680	4.0680	0.8104	26.09	0.47	0.750			
0.1514	9692.36	4.0650	4.0651	0.8116	26.09	0.47	0.750			
0.1539	9848.26	4.0620	4.0620	0.8121	26.09	0.47	0.750			
0.1563	10004.59	4.0590	4.0590	0.8157	26.09	0.47	0.750			
0.1588	10162.30	4.0560	4.0561	0.8070	26.09	0.47	0.750			
0.1612	10315.36	4.0530	4.0530	0.8105	26.10	0.48	0.750			
0.1636	10469.31	4.0500	4.0502	0.8176	26.10	0.48	0.750			
0.1660	10625.40	4.0470	4.0468	0.8263	26.10	0.48	0.750			
0.1685	10784.96	4.0440	4.0441	0.8303	26.10	0.48	0.750			
0.1710	10946.79	4.0410	4.0411	0.8389	26.10	0.48	0.750			
0.1736	11112.66	4.0380	4.0380	0.8437	26.11	0.49	0.750			
0.1762	11277.82	4.0350	4.0349	0.8459	26.11	0.49	0.750			
0.1787	11433.76	4.0320	4.0320	0.8302	26.11	0.49	0.750			
0.1812	11593.91	4.0290	4.0291	0.8267	26.12	0.50	0.750			
0.1836	11750.75	4.0260	4.0260	0.8294	26.12	0.50	0.750			
0.1861	11909.48	4.0230	4.0230	0.8358	26.12	0.50	0.750			
0.1886	12069.25	4.0200	4.0201	0.8395	26.13	0.51	0.750			
0.1911	12231.49	4.0170	4.0169	0.8479	26.13	0.51	0.750			
0.1937	12398.60	4.0140	4.0140	0.8386	26.13	0.51	0.750			
0.1962	12559.71	4.0110	4.0111	0.8466	26.13	0.51	0.750			
0.1988	12721.05	4.0080	4.0081	0.8487	26.13	0.51	0.750			
0.2013	12882.33	4.0050	4.0051	0.8490	26.13	0.51	0.750			
0.2038	13044.02	4.0020	4.0022	0.8523	26.13	0.51	0.750			
0.2064	13209.89	3.9990	3.9991	0.8558	26.14	0.52	0.750			
0.2090	13376.20	3.9960	3.9960	0.8625	26.14	0.52	0.750			
0.2116	13543.92	3.9930	3.9930	0.8673	26.14	0.52	0.750			
0.2142	13708.66	3.9900	3.9901	0.8615	26.15	0.53	0.750			
0.2168	13875.89	3.9870	3.9870	0.8598	26.15	0.53	0.750			
0.2194	14042.41	3.9840	3.9841	0.8499	26.15	0.53	0.750			
0.2219	14203.87	3.9810	3.9810	0.8524	26.15	0.53	0.750			
0.2245	14366.72	3.9780	3.9780	0.8562	26.15	0.53	0.750			
0.2270	14528.27	3.9750	3.9749	0.8553	26.15	0.53	0.750			
0.2296	14692.72	3.9720	3.9721	0.8612	26.15	0.53	0.750			
0.2322	14861.09	3.9690	3.9690	0.8606	26.15	0.53	0.750			
0.2348	15027.17	3.9660	3.9661	0.8695	26.15	0.53	0.750			
0.2374	15195.82	3.9630	3.9631	0.8735	26.15	0.53	0.750			
0.2400	15361.23	3.9600	3.9596	0.8662	26.15	0.53	0.750			
0.2426	15527.94	3.9570	3.9570	0.8700	26.15	0.53	0.750			
0.2452	15694.93	3.9540	3.9541	0.8683	26.15	0.53	0.750			
0.2478	15861.54	3.9510	3.9510	0.8720	26.15	0.53	0.750			
0.2505	16031.77	3.9480	3.9479	0.8746	26.15	0.53	0.750			
0.2531	16196.74	3.9450	3.9451	0.8662	26.15	0.53	0.750			
0.2557	16366.15	3.9420	3.9419	0.8622	26.15	0.53	0.750			
0.2583	16531.17	3.9390	3.9390	0.8630	26.15	0.53	0.750			
0.2608	16694.07	3.9360	3.9360	0.8629	26.15	0.53	0.750			
0.2634	16858.91	3.9330	3.9331	0.8683	26.15	0.53	0.750			
0.2660	17024.74	3.9300	3.9298	0.8660	26.15	0.53	0.750			
0.2687	17194.44	3.9270	3.9270	0.8632	26.14	0.52	0.750			
0.2713	17360.54	3.9240	3.9241	0.8662	26.14	0.52	0.750			
0.2738	17526.39	3.9210	3.9211	0.8684	26.14	0.52	0.750			
0.2765	17693.14	3.9180	3.9180	0.8633	26.13	0.51	0.750			
0.2790	17856.75	3.9150	3.9151	0.8627	26.13	0.51	0.750			
0.2816	18023.03	3.9120	3.9121	0.8695	26.12	0.50	0.750			
0.2843	18192.37	3.9090	3.9090	0.8724	26.11	0.49	0.750			
0.2869	18360.52	3.9060	3.9061	0.8715	26.11	0.49	0.750			
0.2895	18526.45	3.9030	3.9030	0.8665	26.10	0.48	0.750			
0.2921	18693.24	3.9000	3.8999	0.8677	26.10	0.48	0.750			
0.2947	18860.88	3.8970	3.8970	0.8624	26.09	0.47	0.750			
0.2972	19023.64	3.8940	3.8941	0.8638	26.09	0.47	0.750			
0.2998	19189.55	3.8910	3.8910	0.8660	26.09	0.47	0.750			
0.3024	19354.90	3.8880	3.8878	0.8691	26.08	0.46	0.750			
0.3050	19521.85	3.8850	3.8850	0.8705	26.08	0.46	0.750			
0.3077	19689.90	3.8820	3.8821	0.8675	26.07	0.45	0.750			
0.3103	19857.95	3.8790	3.8790	0.8719	26.06	0.44	0.750			
0.3129	20023.89	3.8760	3.8762	0.8723	26.06	0.44	0.750			
0.3155	20191.01	3.8730	3.8722	0.8764	26.05	0.43	0.750			
0.3181	20359.78	3.8700	3.8700	0.8826	26.04	0.42	0.750			
0.3208	20530.52	3.8670	3.8671	0.8853	26.03	0.41	0.750			
0.3235	20703.11	3.8640	3.8640	0.8922	26.02	0.40	0.750			
0.3262	20875.00	3.8610	3.8610	0.8939	26.02	0.40	0.750			
0.3288	21043.83	3.8580	3.8581	0.8918	26.01	0.39	0.750			
0.3315	21217.01	3.8550	3.8549	0.8826	26.00	0.38	0.750			
0.3341	21381.80	3.8520	3.8521	0.8953	26.00	0.38	0.750			
0.3368	21552.95	3.8490	3.8492	0.9077	26.00	0.38	0.750			
0.3395	21727.92	3.8460	3.8459	0.9211	25.99	0.37	0.750			
0.3423	21907.06	3.8430	3.8428	0.9276	25.98	0.36	0.750	0.316	0.459	
0.3451	22086.96	3.8400	3.8403	0.9228	25.98	0.36	0.750			
0.3479	22265.05	3.8370	3.8372	0.9287	25.97	0.35	0.750			
0.3507	22444.95	3.8340	3.8341	0.9405	25.96	0.34	0.750			
0.3534	22618.98	3.8310	3.8306	0.9331	25.95	0.33	0.750			
0.3562	22798.84	3.8280	3.8282	0.9424	25.94	0.32	0.750			
0.3591	22981.74	3.8250	3.8251	0.9561	25.93	0.31	0.750			
0.3621	23171.94	3.8220	3.8220	0.9734	25.92	0.30	0.750			
0.3649	23356.27	3.8190	3.8189	0.9749	25.91	0.29	0.750			
0.3679	23547.11	3.8160	3.8160	0.9768	25.90	0.28	0.750			
0.3708	23733.05	3.8130	3.8130	0.9934	25.90	0.28	0.750			
0.3738	23924.02	3.8100	3.8101	1.0090	25.89	0.27	0.750			
0.3769	24119.94	3.8070	3.8070	1.0201	25.88	0.26	0.750			
0.3800	24320.24	3.8040	3.8040	1.0149	25.88	0.26	0.750			
0.3831	24515.37	3.8010	3.8012	1.0321	25.87	0.25	0.750			
0.3861	24711.60	3.7980	3.7982	1.0513	25.86	0.24	0.750			
0.3893	24914.45	3.7950	3.7951	1.0656	25.85	0.23	0.750			
0.3925	25120.72	3.7920	3.7921	1.0826	25.84	0.22	0.750			
0.3958	25331.52	3.7890	3.7891	1.0990	25.83	0.21	0.750			
0.3992	25547.06	3.7860	3.7861	1.1189	25.82	0.20	0.750			
0.4027	25770.00	3.7830	3.7830	1.1342	25.81	0.19	0.750			
0.4060	25980.86	3.7800	3.7800	1.1378	25.80	0.18	0.750			
0.4094	26198.68	3.7770	3.7770	1.1591	25.79	0.17	0.750			
0.4128	26422.14	3.7740	3.7741	1.1812	25.78	0.16	0.750			
0.4164	26652.43	3.7710	3.7711	1.2008	25.77	0.15	0.750			
0.4201	26884.50	3.7680	3.7681	1.2285	25.76	0.14	0.750			
0.4238	27121.97	3.7650	3.7651	1.2554	25.74	0.12	0.750			
0.4276	27365.94	3.7620	3.7617	1.2833	25.73	0.11	0.750			
0.4315	27613.45	3.7590	3.7591	1.3042	25.72	0.10	0.750			
0.4354	27867.44	3.7560	3.7560	1.3359	25.71	0.09	0.750			
0.4395	28127.72	3.7530	3.7531	1.3660	25.70	0.08	0.750			
0.4436	28390.06	3.7500	3.7500	1.3855	25.69	0.07	0.750			
0.4478	28659.82	3.7470	3.7469	1.4037	25.68	0.06	0.750			
0.4520	28930.86	3.7440	3.7438	1.4298	25.67	0.05	0.750			
0.4563	29204.15	3.7410	3.7413	1.4639	25.66	0.04	0.750			
0.4607	29485.18	3.7380	3.7374	1.5056	25.65	0.03	0.750			
0.4653	29778.04	3.7350	3.7346	1.5389	25.63	0.01	0.750			
0.4699	30074.70	3.7320	3.7317	1.5876	25.62	-0.00	0.750			
0.4748	30386.72	3.7290	3.7287	1.6314	25.61	-0.01	0.750			
0.4797	30703.34	3.7260	3.7254	1.6768	25.60	-0.02	0.750			
0.4848	31027.86	3.7230	3.7226	1.7540	25.58	-0.04	0.750			
0.4902	31375.15	3.7200	3.7200	1.7883	25.57	-0.05	0.750			
0.4958	31731.15	3.7170	3.7172	1.8373	25.55	-0.07	0.750			
0.5015	32094.33	3.7140	3.7141	1.9126	25.53	-0.09	0.750			
0.5072	32461.18	3.7110	3.7107	1.9660	25.52	-0.10	0.750			
0.5131	32840.97	3.7080	3.7077	1.9795	25.51	-0.11	0.750			
0.5192	33230.91	3.7050	3.7054	2.0755	25.50	-0.12	0.750			
0.5255	33631.86	3.7020	3.7024	2.1852	25.49	-0.13	0.750			
0.5323	34064.45	3.6990	3.6993	2.1821	25.48	-0.14	0.750			
0.5387	34476.01	3.6960	3.6962	2.2541	25.47	-0.15	0.750			
0.5456	34915.50	3.6930	3.6928	2.2997	25.46	-0.16	0.750			
0.5525	35357.36	3.6900	3.6902	2.3450	25.45	-0.17	0.750			
0.5597	35820.54	3.6870	3.6867	2.3786	25.45	-0.17	0.750			
0.5668	36277.02	3.6840	3.6836	2.3606	25.45	-0.17	0.750			
0.5736	36712.02	3.6810	3.6809	2.2830	25.45	-0.17	0.750			
0.5805	37154.56	3.6780	3.6782	2.2443	25.45	-0.17	0.750			
0.5872	37581.22	3.6750	3.6747	2.1407	25.45	-0.17	0.750			
0.5937	37999.72	3.6720	3.6722	2.1416	25.46	-0.16	0.750			
0.5999	38393.67	3.6690	3.6694	1.9789	25.47	-0.15	0.750			
0.6055	38753.80	3.6660	3.6656	1.8490	25.47	-0.15	0.750			
0.6108	39093.68	3.6630	3.6627	1.7256	25.48	-0.14	0.750			
0.6158	39408.27	3.6600	3.6597	1.6049	25.48	-0.14	0.750			
0.6204	39705.92	3.6570	3.6571	1.5052	25.49	-0.13	0.750			
0.6247	39982.76	3.6540	3.6540	1.4008	25.50	-0.12	0.750			
0.6288	40245.31	3.6510	3.6510	1.2980	25.51	-0.11	0.750			
0.6325	40482.06	3.6480	3.6481	1.2204	25.52	-0.10	0.750			
0.6360	40705.48	3.6450	3.6451	1.1650	25.52	-0.10	0.750			
0.6394	40923.21	3.6420	3.6418	1.1138	25.53	-0.09	0.750			
0.6427	41130.37	3.6390	3.6391	1.0627	25.53	-0.09	0.750			
0.6458	41329.09	3.6360	3.6361	1.0074	25.54	-0.08	0.750			
0.6487	41514.60	3.6330	3.6332	0.9779	25.54	-0.08	0.750			
0.6516	41699.32	3.6300	3.6301	0.9482	25.55	-0.07	0.750			
0.6543	41873.82	3.6270	3.6271	0.9084	25.55	-0.07	0.750			
0.6570	42046.07	3.6240	3.6242	0.8791	25.56	-0.06	0.750			
0.6596	42216.50	3.6210	3.6211	0.8536	25.57	-0.05	0.750			
0.6622	42379.98	3.6180	3.6180	0.8196	25.58	-0.04	0.750			
0.6646	42531.65	3.6150	3.6150	0.7697	25.59	-0.03	0.750			
0.6668	42676.95	3.6120	3.6120	0.7263	25.59	-0.03	0.750			
0.6690	42813.75	3.6090	3.6091	0.6855	25.60	-0.02	0.750			
0.6710	42944.45	3.6060	3.6059	0.6322	25.60	-0.02	0.750			
0.6729	43063.32	3.6030	3.6028	0.5791	25.61	-0.01	0.750			
0.6745	43165.72	3.6000	3.6001	0.5242	25.61	-0.01	0.750			
0.6759	43259.20	3.5970	3.5973	0.4757	25.62	-0.00	0.750			
0.6772	43343.95	3.5940	3.5925	0.4312	25.62	-0.00	0.750			
0.6785	43422.83	3.5910	3.5911	0.3917	25.62	0.00	0.750			
0.6796	43493.28	3.5880	3.5883	0.3480	25.62	0.00	0.750			
0.6806	43560.20	3.5850	3.5851	0.3014	25.63	0.01	0.750			
0.6815	43617.54	3.5820	3.5819	0.2565	25.63	0.01	0.750			
0.6822	43661.14	3.5790	3.5790	0.1973	25.63	0.01	0.750			
0.6827	43692.22	3.5760	3.5762	0.1395	25.63	0.01	0.750			
0.6830	43713.99	3.5730	3.5737	0.0813	25.63	0.01	0.750			
0.6832	43723.98	3.5700	3.5717	0.0188	25.63	0.01	0.750			
