Ah_balance (normalized)	Ah_balance (mAh)	Voltage - fit (V)	Voltage -  interpolate (V)	dQ/dV (1/V)	Temperature (°C)	Temperature - diff (°C)	Current (C)	R_DC 0ms (mOhm)	R_DC 50ms (mOhm)	R_DC 50 ms PEC (mOhm)
0.0483	3088.42	4.1980	4.1980	0.6947	25.60	0.46	0.750			
0.0504	3224.86	4.1950	4.1951	0.7221	25.60	0.46	0.750			
0.0526	3366.03	4.1920	4.1918	0.7388	25.60	0.46	0.750			
0.0548	3509.48	4.1890	4.1891	0.7512	25.60	0.46	0.750			
0.0572	3658.69	4.1860	4.1861	0.7523	25.60	0.46	0.750			
0.0594	3802.88	4.1830	4.1830	0.7540	25.60	0.46	0.750			
0.0617	3948.43	4.1800	4.1801	0.7516	25.61	0.47	0.750			
0.0640	4093.40	4.1770	4.1772	0.7533	25.61	0.47	0.750			
0.0662	4237.41	4.1740	4.1737	0.7514	25.61	0.47	0.750			
0.0685	4380.87	4.1710	4.1710	0.7525	25.61	0.47	0.750			
0.0707	4526.31	4.1680	4.1680	0.7484	25.61	0.47	0.750			
0.0730	4669.56	4.1650	4.1651	0.7558	25.61	0.47	0.750			
0.0752	4813.40	4.1620	4.1621	0.7582	25.61	0.47	0.750			
0.0775	4959.45	4.1590	4.1591	0.7633	25.61	0.47	0.750			
0.0798	5108.47	4.1560	4.1561	0.7681	25.61	0.47	0.750			
0.0822	5258.22	4.1530	4.1530	0.7691	25.61	0.47	0.750			
0.0845	5406.35	4.1500	4.1501	0.7662	25.61	0.47	0.750			
0.0868	5554.88	4.1470	4.1470	0.7707	25.62	0.48	0.750			
0.0890	5698.90	4.1440	4.1440	0.7630	25.62	0.48	0.750			
0.0913	5843.99	4.1410	4.1410	0.7592	25.62	0.48	0.750			
0.0936	5990.05	4.1380	4.1381	0.7629	25.62	0.48	0.750			
0.0959	6137.40	4.1350	4.1350	0.7676	25.62	0.48	0.750			
0.0982	6284.42	4.1320	4.1319	0.7700	25.63	0.49	0.750			
0.1005	6432.55	4.1290	4.1290	0.7733	25.63	0.49	0.750			
0.1028	6581.40	4.1260	4.1259	0.7730	25.63	0.49	0.750			
0.1052	6731.13	4.1230	4.1231	0.7761	25.63	0.49	0.750			
0.1075	6882.68	4.1200	4.1200	0.7728	25.63	0.49	0.750			
0.1098	7028.59	4.1170	4.1170	0.7749	25.64	0.50	0.750			
0.1121	7176.03	4.1140	4.1141	0.7724	25.64	0.50	0.750			
0.1144	7324.46	4.1110	4.1110	0.7799	25.64	0.50	0.750			
0.1168	7474.58	4.1080	4.1082	0.7831	25.64	0.50	0.750			
0.1192	7627.04	4.1050	4.1050	0.7871	25.64	0.50	0.750			
0.1215	7779.17	4.1020	4.1020	0.7918	25.64	0.50	0.750			
0.1239	7932.21	4.0990	4.0990	0.7928	25.65	0.51	0.750			
0.1263	8082.72	4.0960	4.0961	0.7899	25.65	0.51	0.750			
0.1287	8235.15	4.0930	4.0929	0.7930	25.65	0.51	0.750			
0.1310	8386.95	4.0900	4.0900	0.7932	25.65	0.51	0.750			
0.1334	8540.60	4.0870	4.0870	0.7915	25.65	0.51	0.750			
0.1358	8691.80	4.0840	4.0840	0.7900	25.65	0.51	0.750			
0.1382	8842.30	4.0810	4.0811	0.7932	25.65	0.51	0.750			
0.1405	8994.99	4.0780	4.0778	0.7973	25.65	0.51	0.750			
0.1429	9147.73	4.0750	4.0750	0.7985	25.65	0.51	0.750			
0.1454	9303.15	4.0720	4.0720	0.7955	25.66	0.52	0.750			
0.1478	9456.17	4.0690	4.0691	0.8063	25.66	0.52	0.750			
0.1502	9611.71	4.0660	4.0660	0.8134	25.67	0.53	0.750			
0.1526	9766.61	4.0630	4.0628	0.8147	25.67	0.53	0.750			
0.1551	9923.83	4.0600	4.0601	0.8150	25.67	0.53	0.750			
0.1575	10082.00	4.0570	4.0571	0.8156	25.67	0.53	0.750			
0.1600	10238.92	4.0540	4.0540	0.8163	25.68	0.54	0.750			
0.1624	10395.93	4.0510	4.0510	0.8224	25.68	0.54	0.750			
0.1649	10550.48	4.0480	4.0480	0.8179	25.68	0.54	0.750			
0.1673	10708.21	4.0450	4.0450	0.8245	25.68	0.54	0.750			
0.1698	10869.35	4.0420	4.0420	0.8231	25.68	0.54	0.750			
0.1723	11027.78	4.0390	4.0390	0.8303	25.69	0.55	0.750			
0.1748	11188.26	4.0360	4.0361	0.8349	25.69	0.55	0.750			
0.1773	11347.34	4.0330	4.0330	0.8334	25.69	0.55	0.750			
0.1798	11506.87	4.0300	4.0302	0.8368	25.69	0.55	0.750			
0.1824	11671.27	4.0270	4.0270	0.8298	25.69	0.55	0.750			
0.1848	11828.71	4.0240	4.0240	0.8389	25.70	0.56	0.750			
0.1874	11990.75	4.0210	4.0210	0.8467	25.70	0.56	0.750			
0.1899	12151.58	4.0180	4.0180	0.8480	25.70	0.56	0.750			
0.1924	12314.85	4.0150	4.0152	0.8542	25.70	0.56	0.750			
0.1950	12481.15	4.0120	4.0120	0.8536	25.70	0.56	0.750			
0.1976	12645.19	4.0090	4.0091	0.8576	25.71	0.57	0.750			
0.2002	12810.67	4.0060	4.0060	0.8513	25.71	0.57	0.750			
0.2027	12974.22	4.0030	4.0029	0.8549	25.71	0.57	0.750			
0.2053	13137.71	4.0000	4.0001	0.8576	25.71	0.57	0.750			
0.2079	13303.32	3.9970	3.9970	0.8578	25.71	0.57	0.750			
0.2104	13467.11	3.9940	3.9940	0.8684	25.72	0.58	0.750			
0.2130	13635.14	3.9910	3.9911	0.8703	25.72	0.58	0.750			
0.2157	13803.00	3.9880	3.9876	0.8747	25.72	0.58	0.750			
0.2183	13973.23	3.9850	3.9851	0.8803	25.72	0.58	0.750			
0.2210	14142.59	3.9820	3.9821	0.8754	25.72	0.58	0.750			
0.2236	14310.32	3.9790	3.9791	0.8767	25.73	0.59	0.750			
0.2262	14476.22	3.9760	3.9761	0.8717	25.73	0.59	0.750			
0.2288	14644.37	3.9730	3.9730	0.8750	25.73	0.59	0.750			
0.2315	14814.64	3.9700	3.9700	0.8740	25.73	0.59	0.750			
0.2341	14981.58	3.9670	3.9670	0.8757	25.73	0.59	0.750			
0.2367	15151.17	3.9640	3.9641	0.8811	25.74	0.60	0.750			
0.2394	15318.94	3.9610	3.9610	0.8753	25.74	0.60	0.750			
0.2420	15487.49	3.9580	3.9581	0.8802	25.74	0.60	0.750			
0.2447	15658.05	3.9550	3.9550	0.8717	25.74	0.60	0.750			
0.2473	15824.58	3.9520	3.9520	0.8791	25.75	0.61	0.750			
0.2499	15994.51	3.9490	3.9491	0.8821	25.75	0.61	0.750			
0.2525	16162.03	3.9460	3.9459	0.8819	25.75	0.61	0.750			
0.2552	16331.61	3.9430	3.9430	0.8845	25.75	0.61	0.750			
0.2579	16502.55	3.9400	3.9401	0.8825	25.75	0.61	0.750			
0.2605	16671.74	3.9370	3.9371	0.8850	25.75	0.61	0.750			
0.2632	16842.30	3.9340	3.9341	0.8840	25.75	0.61	0.750			
0.2658	17012.28	3.9310	3.9303	0.8874	25.75	0.61	0.750			
0.2685	17183.83	3.9280	3.9280	0.8847	25.75	0.61	0.750			
0.2711	17353.37	3.9250	3.9251	0.8853	25.75	0.61	0.750			
0.2738	17525.28	3.9220	3.9220	0.8864	25.75	0.61	0.750			
0.2765	17695.86	3.9190	3.9189	0.8818	25.75	0.61	0.750			
0.2791	17861.21	3.9160	3.9161	0.8793	25.75	0.61	0.750			
0.2817	18031.46	3.9130	3.9130	0.8720	25.74	0.60	0.750			
0.2844	18198.79	3.9100	3.9100	0.8757	25.74	0.60	0.750			
0.2870	18366.65	3.9070	3.9070	0.8812	25.74	0.60	0.750			
0.2896	18534.64	3.9040	3.9041	0.8854	25.73	0.59	0.750			
0.2923	18705.93	3.9010	3.9011	0.8890	25.73	0.59	0.750			
0.2950	18877.84	3.8980	3.8981	0.8863	25.72	0.58	0.750			
0.2976	19047.36	3.8950	3.8951	0.8850	25.72	0.58	0.750			
0.3003	19219.19	3.8920	3.8921	0.8903	25.71	0.57	0.750			
0.3029	19387.79	3.8890	3.8885	0.8844	25.71	0.57	0.750			
0.3056	19556.92	3.8860	3.8861	0.8834	25.71	0.57	0.750			
0.3082	19726.14	3.8830	3.8831	0.8851	25.70	0.56	0.750			
0.3109	19897.49	3.8800	3.8800	0.8884	25.70	0.56	0.750			
0.3136	20070.08	3.8770	3.8770	0.8943	25.69	0.55	0.750			
0.3162	20239.91	3.8740	3.8740	0.8893	25.69	0.55	0.750			
0.3189	20412.17	3.8710	3.8710	0.8834	25.68	0.54	0.750			
0.3216	20581.28	3.8680	3.8680	0.8905	25.68	0.54	0.750			
0.3242	20751.77	3.8650	3.8651	0.8921	25.68	0.54	0.750			
0.3269	20922.40	3.8620	3.8619	0.8944	25.67	0.53	0.750			
0.3296	21094.96	3.8590	3.8591	0.8985	25.67	0.53	0.750			
0.3323	21270.27	3.8560	3.8559	0.8870	25.66	0.52	0.750			
0.3350	21439.71	3.8530	3.8531	0.8999	25.65	0.51	0.750			
0.3377	21609.71	3.8500	3.8502	0.9013	25.64	0.50	0.750			
0.3404	21783.56	3.8470	3.8466	0.9179	25.63	0.49	0.750			
0.3432	21962.75	3.8440	3.8441	0.9254	25.62	0.48	0.750			
0.3460	22141.18	3.8410	3.8413	0.9358	25.61	0.47	0.750	0.332	0.453	
0.3488	22323.71	3.8380	3.8382	0.9430	25.60	0.46	0.750			
0.3517	22507.10	3.8350	3.8351	0.9439	25.60	0.46	0.750			
0.3545	22688.93	3.8320	3.8320	0.9485	25.59	0.45	0.750			
0.3573	22869.68	3.8290	3.8290	0.9461	25.58	0.44	0.750			
0.3602	23051.82	3.8260	3.8261	0.9567	25.57	0.43	0.750			
0.3631	23237.49	3.8230	3.8231	0.9708	25.57	0.43	0.750			
0.3660	23423.69	3.8200	3.8196	0.9743	25.56	0.42	0.750			
0.3689	23612.27	3.8170	3.8171	0.9824	25.55	0.41	0.750			
0.3719	23800.10	3.8140	3.8141	0.9941	25.54	0.40	0.750			
0.3749	23993.53	3.8110	3.8110	1.0052	25.53	0.39	0.750			
0.3779	24184.88	3.8080	3.8076	1.0077	25.52	0.38	0.750			
0.3809	24380.02	3.8050	3.8051	1.0174	25.51	0.37	0.750			
0.3840	24575.16	3.8020	3.8020	1.0352	25.50	0.36	0.750			
0.3871	24777.33	3.7990	3.7991	1.0541	25.49	0.35	0.750			
0.3903	24981.37	3.7960	3.7958	1.0676	25.48	0.34	0.750			
0.3935	25186.06	3.7930	3.7931	1.0696	25.47	0.33	0.750			
0.3968	25393.17	3.7900	3.7901	1.0896	25.46	0.32	0.750			
0.4000	25602.79	3.7870	3.7871	1.1043	25.45	0.31	0.750			
0.4034	25817.81	3.7840	3.7836	1.1170	25.44	0.30	0.750			
0.4067	26026.93	3.7810	3.7811	1.1350	25.43	0.29	0.750			
0.4101	26248.40	3.7780	3.7781	1.1614	25.42	0.28	0.750			
0.4137	26476.43	3.7750	3.7750	1.1871	25.41	0.27	0.750			
0.4173	26704.59	3.7720	3.7721	1.2070	25.40	0.26	0.750			
0.4209	26939.82	3.7690	3.7692	1.2342	25.39	0.25	0.750			
0.4247	27180.69	3.7660	3.7660	1.2599	25.38	0.24	0.750			
0.4285	27426.26	3.7630	3.7628	1.2733	25.37	0.23	0.750			
0.4323	27668.15	3.7600	3.7601	1.2971	25.36	0.22	0.750			
0.4362	27918.16	3.7570	3.7571	1.3291	25.35	0.21	0.750			
0.4403	28176.09	3.7540	3.7537	1.3468	25.34	0.20	0.750			
0.4443	28434.05	3.7510	3.7511	1.3781	25.33	0.19	0.750			
0.4485	28704.70	3.7480	3.7481	1.4126	25.31	0.17	0.750			
0.4528	28979.34	3.7450	3.7446	1.4588	25.29	0.15	0.750			
0.4573	29268.80	3.7420	3.7421	1.4644	25.28	0.14	0.750			
0.4617	29549.25	3.7390	3.7391	1.5076	25.27	0.13	0.750			
0.4663	29842.73	3.7360	3.7360	1.5456	25.26	0.12	0.750			
0.4710	30145.24	3.7330	3.7330	1.5815	25.24	0.10	0.750			
0.4757	30443.92	3.7300	3.7303	1.5998	25.23	0.09	0.750			
0.4805	30751.11	3.7270	3.7266	1.6682	25.21	0.07	0.750			
0.4855	31072.57	3.7240	3.7235	1.7239	25.20	0.06	0.750			
0.4909	31416.20	3.7210	3.7208	1.7937	25.19	0.05	0.750			
0.4963	31760.02	3.7180	3.7179	1.8555	25.18	0.04	0.750			
0.5020	32126.13	3.7150	3.7150	1.9065	25.16	0.02	0.750			
0.5077	32493.62	3.7120	3.7125	1.9342	25.15	0.01	0.750			
0.5136	32868.48	3.7090	3.7093	2.0236	25.14	0.00	0.750			
0.5196	33257.21	3.7060	3.7062	2.0348	25.13	-0.01	0.750			
0.5257	33647.44	3.7030	3.7034	2.1143	25.12	-0.02	0.750			
0.5324	34070.64	3.7000	3.6996	2.2105	25.11	-0.03	0.750			
0.5390	34498.78	3.6970	3.6969	2.2091	25.10	-0.04	0.750			
0.5459	34939.18	3.6940	3.6940	2.3090	25.08	-0.06	0.750			
0.5527	35371.31	3.6910	3.6909	2.2919	25.06	-0.08	0.750			
0.5596	35815.90	3.6880	3.6885	2.3875	25.05	-0.09	0.750			
0.5669	36281.50	3.6850	3.6845	2.4534	25.04	-0.10	0.750			
0.5744	36764.54	3.6820	3.6820	2.4279	25.03	-0.11	0.750			
0.5821	37251.49	3.6790	3.6794	2.4988	25.03	-0.11	0.750			
0.5891	37705.04	3.6760	3.6762	2.3382	25.02	-0.12	0.750			
0.5962	38155.52	3.6730	3.6736	2.2906	25.02	-0.12	0.750			
0.6030	38593.97	3.6700	3.6697	2.1815	25.02	-0.12	0.750			
0.6093	38997.09	3.6670	3.6665	2.0899	25.02	-0.12	0.750			
0.6155	39394.20	3.6640	3.6642	1.9769	25.02	-0.12	0.750			
0.6213	39761.01	3.6610	3.6608	1.8543	25.03	-0.11	0.750			
0.6265	40092.83	3.6580	3.6581	1.6793	25.04	-0.10	0.750			
0.6313	40401.59	3.6550	3.6548	1.5564	25.04	-0.10	0.750			
0.6359	40696.14	3.6520	3.6524	1.4680	25.05	-0.09	0.750			
0.6401	40965.69	3.6490	3.6488	1.3497	25.05	-0.09	0.750			
0.6441	41220.63	3.6460	3.6460	1.2743	25.05	-0.09	0.750			
0.6476	41444.99	3.6430	3.6432	1.1741	25.05	-0.09	0.750			
0.6510	41666.00	3.6400	3.6400	1.1243	25.05	-0.09	0.750			
0.6543	41873.83	3.6370	3.6370	1.0593	25.05	-0.09	0.750			
0.6574	42070.99	3.6340	3.6340	1.0128	25.06	-0.08	0.750			
0.6603	42258.84	3.6310	3.6311	0.9714	25.07	-0.07	0.750			
0.6632	42441.91	3.6280	3.6280	0.9411	25.07	-0.07	0.750			
0.6659	42618.52	3.6250	3.6248	0.9046	25.08	-0.06	0.750			
0.6686	42791.61	3.6220	3.6219	0.8503	25.08	-0.06	0.750			
0.6711	42950.05	3.6190	3.6191	0.8143	25.09	-0.05	0.750			
0.6735	43102.92	3.6160	3.6162	0.7823	25.09	-0.05	0.750			
0.6757	43247.20	3.6130	3.6130	0.7416	25.10	-0.04	0.750			
0.6779	43386.73	3.6100	3.6103	0.6955	25.10	-0.04	0.750			
0.6800	43517.22	3.6070	3.6073	0.6501	25.11	-0.03	0.750			
0.6819	43642.81	3.6040	3.6041	0.6068	25.11	-0.03	0.750			
0.6837	43759.15	3.6010	3.6009	0.5565	25.12	-0.02	0.750			
0.6852	43852.13	3.5980	3.5980	0.4870	25.12	-0.02	0.750			
0.6866	43940.99	3.5950	3.5950	0.4379	25.13	-0.01	0.750			
0.6878	44019.56	3.5920	3.5919	0.3875	25.13	-0.01	0.750			
0.6889	44090.14	3.5890	3.5890	0.3412	25.13	-0.01	0.750			
0.6899	44151.49	3.5860	3.5860	0.2941	25.14	-0.00	0.750			
0.6907	44203.10	3.5830	3.5829	0.2446	25.14	-0.00	0.750			
0.6913	44244.97	3.5800	3.5800	0.1956	25.14	0.00	0.750			
0.6918	44277.74	3.5770	3.5774	0.1488	25.14	0.00	0.750			
0.6922	44301.89	3.5740	3.5744	0.0991	25.14	0.00	0.750			
