Ah_balance (normalized)	Ah_balance (mAh)	Voltage - fit (V)	Voltage -  interpolate (V)	dQ/dV (1/V)	Temperature (°C)	Temperature - diff (°C)	Current (C)	R_DC 0ms (mOhm)	R_DC 50ms (mOhm)	R_DC 50 ms PEC (mOhm)
0.0475	3039.46	4.1990	4.1990	0.7380	25.94	0.56	0.750			
0.0497	3181.64	4.1960	4.1960	0.7421	25.94	0.56	0.750			
0.0520	3324.91	4.1930	4.1930	0.7440	25.94	0.56	0.750			
0.0542	3468.34	4.1900	4.1900	0.7415	25.94	0.56	0.750			
0.0564	3609.80	4.1870	4.1870	0.7446	25.95	0.57	0.750			
0.0586	3752.63	4.1840	4.1840	0.7455	25.95	0.57	0.750			
0.0609	3894.41	4.1810	4.1810	0.7493	25.95	0.57	0.750			
0.0631	4038.73	4.1780	4.1780	0.7544	25.95	0.57	0.750			
0.0654	4185.38	4.1750	4.1750	0.7567	25.95	0.57	0.750			
0.0677	4332.24	4.1720	4.1719	0.7569	25.95	0.57	0.750			
0.0699	4474.74	4.1690	4.1692	0.7503	25.95	0.57	0.750			
0.0721	4616.69	4.1660	4.1662	0.7507	25.95	0.57	0.750			
0.0744	4759.60	4.1630	4.1626	0.7592	25.95	0.57	0.750			
0.0767	4906.10	4.1600	4.1602	0.7616	25.95	0.57	0.750			
0.0790	5054.53	4.1570	4.1571	0.7609	25.95	0.57	0.750			
0.0813	5202.24	4.1540	4.1542	0.7640	25.96	0.58	0.750			
0.0836	5353.18	4.1510	4.1510	0.7730	25.96	0.58	0.750			
0.0859	5494.62	4.1480	4.1480	0.7581	25.96	0.58	0.750			
0.0881	5639.13	4.1450	4.1451	0.7596	25.96	0.58	0.750			
0.0904	5784.34	4.1420	4.1420	0.7648	25.96	0.58	0.750			
0.0927	5934.89	4.1390	4.1390	0.7696	25.96	0.58	0.750			
0.0950	6082.80	4.1360	4.1360	0.7689	25.97	0.59	0.750			
0.0973	6229.86	4.1330	4.1331	0.7668	25.97	0.59	0.750			
0.0996	6377.01	4.1300	4.1298	0.7687	25.97	0.59	0.750			
0.1019	6523.97	4.1270	4.1270	0.7705	25.97	0.59	0.750			
0.1043	6673.38	4.1240	4.1239	0.7643	25.97	0.59	0.750			
0.1065	6818.99	4.1210	4.1210	0.7685	25.97	0.59	0.750			
0.1088	6965.62	4.1180	4.1181	0.7730	25.97	0.59	0.750			
0.1112	7115.30	4.1150	4.1152	0.7779	25.97	0.59	0.750			
0.1135	7265.47	4.1120	4.1120	0.7823	25.97	0.59	0.750			
0.1159	7416.02	4.1090	4.1091	0.7853	25.97	0.59	0.750			
0.1183	7569.57	4.1060	4.1060	0.7727	25.97	0.59	0.750			
0.1206	7716.31	4.1030	4.1031	0.7826	25.97	0.59	0.750			
0.1228	7862.18	4.1000	4.1001	0.7769	25.97	0.59	0.750			
0.1252	8011.72	4.0970	4.0963	0.7831	25.97	0.59	0.750			
0.1275	8161.68	4.0940	4.0942	0.7951	25.97	0.59	0.750			
0.1299	8315.85	4.0910	4.0911	0.7975	25.98	0.60	0.750			
0.1324	8475.16	4.0880	4.0880	0.8054	25.98	0.60	0.750			
0.1348	8628.49	4.0850	4.0850	0.7942	25.99	0.61	0.750			
0.1372	8780.92	4.0820	4.0817	0.7949	25.99	0.61	0.750			
0.1396	8934.17	4.0790	4.0792	0.7964	25.99	0.61	0.750			
0.1420	9087.48	4.0760	4.0759	0.7878	25.99	0.61	0.750			
0.1443	9235.69	4.0730	4.0731	0.7947	26.00	0.62	0.750			
0.1467	9388.16	4.0700	4.0700	0.8006	26.00	0.62	0.750			
0.1491	9543.61	4.0670	4.0670	0.8124	26.00	0.62	0.750			
0.1516	9700.48	4.0640	4.0641	0.8145	26.00	0.62	0.750			
0.1541	9862.47	4.0610	4.0610	0.8088	26.00	0.62	0.750			
0.1565	10016.47	4.0580	4.0581	0.8165	26.01	0.63	0.750			
0.1590	10173.17	4.0550	4.0550	0.8203	26.01	0.63	0.750			
0.1614	10326.90	4.0520	4.0521	0.8137	26.01	0.63	0.750			
0.1638	10483.20	4.0490	4.0492	0.8208	26.01	0.63	0.750			
0.1663	10643.31	4.0460	4.0461	0.8189	26.01	0.63	0.750			
0.1688	10801.27	4.0430	4.0430	0.8290	26.01	0.63	0.750			
0.1713	10963.54	4.0400	4.0400	0.8347	26.01	0.63	0.750			
0.1738	11120.27	4.0370	4.0370	0.8260	26.01	0.63	0.750			
0.1762	11279.29	4.0340	4.0342	0.8317	26.01	0.63	0.750			
0.1788	11441.59	4.0310	4.0310	0.8255	26.01	0.63	0.750			
0.1812	11597.46	4.0280	4.0280	0.8334	26.01	0.63	0.750			
0.1837	11758.52	4.0250	4.0251	0.8411	26.01	0.63	0.750			
0.1862	11918.93	4.0220	4.0220	0.8401	26.01	0.63	0.750			
0.1888	12080.74	4.0190	4.0191	0.8477	26.01	0.63	0.750			
0.1914	12248.29	4.0160	4.0161	0.8396	26.01	0.63	0.750			
0.1939	12407.25	4.0130	4.0130	0.8450	26.01	0.63	0.750			
0.1964	12569.21	4.0100	4.0101	0.8555	26.01	0.63	0.750			
0.1989	12730.31	4.0070	4.0071	0.8502	26.01	0.63	0.750			
0.2015	12895.68	4.0040	4.0041	0.8566	26.01	0.63	0.750			
0.2041	13062.04	4.0010	4.0010	0.8591	26.01	0.63	0.750			
0.2067	13227.03	3.9980	3.9981	0.8600	26.02	0.64	0.750			
0.2093	13393.39	3.9950	3.9951	0.8591	26.02	0.64	0.750			
0.2118	13558.35	3.9920	3.9918	0.8628	26.02	0.64	0.750			
0.2144	13722.42	3.9890	3.9891	0.8611	26.02	0.64	0.750			
0.2171	13893.82	3.9860	3.9859	0.8531	26.02	0.64	0.750			
0.2196	14056.20	3.9830	3.9831	0.8612	26.03	0.65	0.750			
0.2222	14217.68	3.9800	3.9801	0.8592	26.03	0.65	0.750			
0.2247	14382.91	3.9770	3.9760	0.8674	26.03	0.65	0.750			
0.2274	14550.75	3.9740	3.9741	0.8672	26.03	0.65	0.750			
0.2300	14717.99	3.9710	3.9711	0.8723	26.03	0.65	0.750			
0.2326	14887.29	3.9680	3.9681	0.8777	26.03	0.65	0.750			
0.2354	15062.74	3.9650	3.9650	0.8891	26.03	0.65	0.750			
0.2379	15224.84	3.9620	3.9619	0.8718	26.03	0.65	0.750			
0.2405	15393.87	3.9590	3.9590	0.8702	26.03	0.65	0.750			
0.2431	15559.93	3.9560	3.9561	0.8742	26.03	0.65	0.750			
0.2458	15728.60	3.9530	3.9530	0.8776	26.03	0.65	0.750			
0.2484	15896.94	3.9500	3.9500	0.8751	26.03	0.65	0.750			
0.2510	16064.59	3.9470	3.9471	0.8757	26.03	0.65	0.750			
0.2536	16233.38	3.9440	3.9441	0.8785	26.02	0.64	0.750			
0.2562	16399.46	3.9410	3.9410	0.8680	26.02	0.64	0.750			
0.2588	16564.85	3.9380	3.9381	0.8681	26.02	0.64	0.750			
0.2614	16729.48	3.9350	3.9352	0.8694	26.01	0.63	0.750			
0.2640	16895.78	3.9320	3.9322	0.8758	26.01	0.63	0.750			
0.2666	17065.33	3.9290	3.9292	0.8734	26.00	0.62	0.750			
0.2693	17234.44	3.9260	3.9260	0.8782	26.00	0.62	0.750			
0.2720	17406.94	3.9230	3.9231	0.8833	25.99	0.61	0.750			
0.2746	17571.92	3.9200	3.9197	0.8711	25.99	0.61	0.750			
0.2772	17740.12	3.9170	3.9171	0.8733	25.99	0.61	0.750			
0.2798	17907.23	3.9140	3.9141	0.8670	25.99	0.61	0.750			
0.2824	18073.19	3.9110	3.9110	0.8681	25.99	0.61	0.750			
0.2850	18238.98	3.9080	3.9081	0.8691	25.99	0.61	0.750			
0.2876	18405.28	3.9050	3.9048	0.8721	25.99	0.61	0.750			
0.2903	18576.03	3.9020	3.9020	0.8653	25.98	0.60	0.750			
0.2928	18742.25	3.8990	3.8991	0.8692	25.98	0.60	0.750			
0.2955	18909.21	3.8960	3.8961	0.8754	25.97	0.59	0.750			
0.2981	19075.66	3.8930	3.8931	0.8721	25.96	0.58	0.750			
0.3007	19242.67	3.8900	3.8901	0.8743	25.96	0.58	0.750			
0.3033	19411.72	3.8870	3.8871	0.8732	25.95	0.57	0.750			
0.3060	19581.29	3.8840	3.8841	0.8785	25.95	0.57	0.750			
0.3086	19750.84	3.8810	3.8811	0.8822	25.95	0.57	0.750			
0.3112	19919.25	3.8780	3.8779	0.8811	25.94	0.56	0.750			
0.3139	20088.73	3.8750	3.8750	0.8839	25.94	0.56	0.750			
0.3165	20258.95	3.8720	3.8720	0.8841	25.93	0.55	0.750			
0.3192	20429.22	3.8690	3.8692	0.8877	25.92	0.54	0.750			
0.3219	20602.49	3.8660	3.8659	0.8889	25.92	0.54	0.750			
0.3245	20771.09	3.8630	3.8627	0.8764	25.91	0.53	0.750			
0.3271	20936.43	3.8600	3.8601	0.8782	25.90	0.52	0.750			
0.3298	21104.06	3.8570	3.8571	0.8747	25.89	0.51	0.750			
0.3324	21276.63	3.8540	3.8541	0.8744	25.89	0.51	0.750			
0.3350	21439.65	3.8510	3.8512	0.8825	25.88	0.50	0.750			
0.3376	21609.42	3.8480	3.8476	0.9005	25.87	0.49	0.750			
0.3404	21785.18	3.8450	3.8454	0.9150	25.86	0.48	0.750			
0.3432	21962.60	3.8420	3.8425	0.9361	25.85	0.47	0.750	0.320	0.467	
0.3460	22141.61	3.8390	3.8393	0.9469	25.84	0.46	0.750			
0.3488	22325.83	3.8360	3.8362	0.9501	25.83	0.45	0.750			
0.3518	22515.40	3.8330	3.8331	0.9525	25.83	0.45	0.750			
0.3547	22697.88	3.8300	3.8301	0.9518	25.82	0.44	0.750			
0.3576	22884.02	3.8270	3.8271	0.9588	25.82	0.44	0.750			
0.3604	23065.05	3.8240	3.8240	0.9602	25.81	0.43	0.750			
0.3632	23247.04	3.8210	3.8210	0.9628	25.81	0.43	0.750			
0.3661	23432.19	3.8180	3.8181	0.9613	25.79	0.41	0.750			
0.3690	23617.34	3.8150	3.8150	0.9755	25.78	0.40	0.750			
0.3719	23804.03	3.8120	3.8121	0.9937	25.77	0.39	0.750			
0.3749	23993.75	3.8090	3.8085	1.0042	25.76	0.38	0.750			
0.3780	24188.98	3.8060	3.8061	1.0133	25.75	0.37	0.750			
0.3810	24385.12	3.8030	3.8032	1.0326	25.74	0.36	0.750			
0.3842	24587.05	3.8000	3.8000	1.0516	25.73	0.35	0.750			
0.3874	24794.40	3.7970	3.7965	1.0645	25.72	0.34	0.750			
0.3905	24992.11	3.7940	3.7941	1.0659	25.71	0.33	0.750			
0.3937	25197.28	3.7910	3.7911	1.0853	25.70	0.32	0.750			
0.3970	25411.19	3.7880	3.7881	1.1027	25.69	0.31	0.750			
0.4003	25620.98	3.7850	3.7848	1.1126	25.68	0.30	0.750			
0.4037	25836.31	3.7820	3.7821	1.1163	25.67	0.29	0.750			
0.4070	26048.65	3.7790	3.7792	1.1449	25.66	0.28	0.750			
0.4105	26269.44	3.7760	3.7762	1.1789	25.65	0.27	0.750			
0.4140	26497.10	3.7730	3.7732	1.1922	25.63	0.25	0.750			
0.4177	26730.38	3.7700	3.7702	1.2187	25.62	0.24	0.750			
0.4214	26970.09	3.7670	3.7671	1.2528	25.60	0.22	0.750			
0.4252	27214.46	3.7640	3.7640	1.2639	25.59	0.21	0.750			
0.4290	27453.83	3.7610	3.7611	1.2798	25.58	0.20	0.750			
0.4328	27701.37	3.7580	3.7580	1.3131	25.56	0.18	0.750			
0.4368	27955.73	3.7550	3.7547	1.3391	25.55	0.17	0.750			
0.4409	28214.94	3.7520	3.7521	1.3738	25.54	0.16	0.750			
0.4451	28484.07	3.7490	3.7491	1.3830	25.52	0.14	0.750			
0.4493	28756.95	3.7460	3.7456	1.4050	25.51	0.13	0.750			
0.4536	29028.39	3.7430	3.7432	1.4213	25.50	0.12	0.750			
0.4578	29296.75	3.7400	3.7395	1.4755	25.49	0.11	0.750			
0.4623	29588.87	3.7370	3.7370	1.5114	25.48	0.10	0.750			
0.4670	29889.66	3.7340	3.7342	1.5441	25.46	0.08	0.750			
0.4718	30197.91	3.7310	3.7313	1.6029	25.44	0.06	0.750			
0.4767	30505.64	3.7280	3.7284	1.6382	25.43	0.05	0.750			
0.4817	30827.25	3.7250	3.7252	1.7240	25.41	0.03	0.750			
0.4869	31162.21	3.7220	3.7217	1.7808	25.40	0.02	0.750			
0.4923	31506.28	3.7190	3.7195	1.8199	25.39	0.01	0.750			
0.4979	31864.82	3.7160	3.7164	1.9225	25.37	-0.01	0.750			
0.5037	32239.45	3.7130	3.7124	1.9543	25.36	-0.02	0.750			
0.5095	32605.68	3.7100	3.7098	1.9452	25.34	-0.04	0.750			
0.5154	32987.14	3.7070	3.7068	2.0546	25.32	-0.06	0.750			
0.5218	33394.44	3.7040	3.7045	2.1504	25.31	-0.07	0.750			
0.5284	33814.83	3.7010	3.7014	2.2030	25.29	-0.09	0.750			
0.5353	34261.86	3.6980	3.6980	2.2570	25.28	-0.10	0.750			
0.5419	34678.54	3.6950	3.6951	2.2658	25.28	-0.10	0.750			
0.5486	35112.37	3.6920	3.6921	2.2924	25.27	-0.11	0.750			
0.5555	35553.18	3.6890	3.6891	2.3033	25.27	-0.11	0.750			
0.5624	35996.45	3.6860	3.6858	2.3771	25.26	-0.12	0.750			
0.5695	36448.54	3.6830	3.6830	2.3468	25.25	-0.13	0.750			
0.5769	36918.44	3.6800	3.6801	2.3388	25.25	-0.13	0.750			
0.5836	37348.70	3.6770	3.6770	2.2936	25.25	-0.13	0.750			
0.5904	37786.71	3.6740	3.6739	2.1933	25.25	-0.13	0.750			
0.5968	38196.92	3.6710	3.6712	2.1149	25.26	-0.12	0.750			
0.6029	38584.13	3.6680	3.6677	1.9490	25.26	-0.12	0.750			
0.6085	38947.15	3.6650	3.6647	1.8485	25.27	-0.11	0.750			
0.6139	39291.24	3.6620	3.6623	1.7386	25.27	-0.11	0.750			
0.6190	39615.93	3.6590	3.6593	1.6275	25.28	-0.10	0.750			
0.6237	39916.58	3.6560	3.6560	1.4926	25.29	-0.09	0.750			
0.6280	40192.00	3.6530	3.6532	1.3971	25.29	-0.09	0.750			
0.6321	40452.81	3.6500	3.6500	1.3089	25.30	-0.08	0.750			
0.6357	40684.49	3.6470	3.6472	1.2226	25.30	-0.08	0.750			
0.6393	40914.82	3.6440	3.6440	1.1559	25.30	-0.08	0.750			
0.6426	41128.92	3.6410	3.6411	1.1045	25.31	-0.07	0.750			
0.6458	41333.58	3.6380	3.6382	1.0617	25.31	-0.07	0.750			
0.6490	41535.35	3.6350	3.6348	1.0274	25.32	-0.06	0.750			
0.6519	41723.43	3.6320	3.6320	0.9706	25.33	-0.05	0.750			
0.6548	41905.41	3.6290	3.6290	0.9356	25.34	-0.04	0.750			
0.6575	42082.61	3.6260	3.6261	0.9036	25.35	-0.03	0.750			
0.6603	42256.81	3.6230	3.6230	0.8721	25.36	-0.02	0.750			
0.6628	42417.44	3.6200	3.6200	0.8296	25.37	-0.01	0.750			
0.6652	42572.64	3.6170	3.6170	0.7902	25.37	-0.01	0.750			
0.6676	42725.46	3.6140	3.6139	0.7427	25.37	-0.01	0.750			
0.6698	42866.79	3.6110	3.6109	0.6955	25.38	-0.00	0.750			
0.6718	42997.47	3.6080	3.6081	0.6346	25.38	-0.00	0.750			
0.6736	43108.38	3.6050	3.6053	0.5908	25.38	-0.00	0.750			
0.6752	43213.73	3.6020	3.6020	0.5457	25.38	0.00	0.750			
0.6768	43313.59	3.5990	3.5977	0.5067	25.38	0.00	0.750			
0.6782	43406.02	3.5960	3.5967	0.4672	25.38	0.00	0.750			
0.6796	43494.87	3.5930	3.5934	0.4258	25.38	0.00	0.750			
0.6809	43575.63	3.5900	3.5903	0.3798	25.38	0.00	0.750			
0.6820	43649.25	3.5870	3.5868	0.3345	25.39	0.01	0.750			
0.6829	43703.88	3.5840	3.5839	0.2656	25.39	0.01	0.750			
0.6836	43750.39	3.5810	3.5811	0.2146	25.39	0.01	0.750			
0.6842	43786.32	3.5780	3.5781	0.1626	25.39	0.01	0.750			
0.6846	43813.36	3.5750	3.5753	0.1079	25.39	0.01	0.750			
0.6848	43828.84	3.5720	3.5730	0.0512	25.39	0.01	0.750			
