Ah_balance (normalized)	Ah_balance (mAh)	Voltage - fit (V)	Voltage -  interpolate (V)	dQ/dV (1/V)	Temperature (°C)	Temperature - diff (°C)	Current (C)	R_DC 0ms (mOhm)	R_DC 50ms (mOhm)	R_DC 50 ms PEC (mOhm)
0.0481	3075.87	4.1980	4.1980	0.7510	25.85	0.64	0.750			
0.0504	3222.58	4.1950	4.1950	0.7703	25.85	0.64	0.750			
0.0526	3369.46	4.1920	4.1919	0.7697	25.85	0.64	0.750			
0.0550	3517.13	4.1890	4.1890	0.7744	25.85	0.64	0.750			
0.0573	3666.51	4.1860	4.1860	0.7782	25.85	0.64	0.750			
0.0596	3817.19	4.1830	4.1831	0.7814	25.85	0.64	0.750			
0.0620	3968.72	4.1800	4.1800	0.7776	25.85	0.64	0.750			
0.0643	4117.09	4.1770	4.1771	0.7786	25.85	0.64	0.750			
0.0667	4266.53	4.1740	4.1740	0.7840	25.85	0.64	0.750			
0.0690	4416.09	4.1710	4.1710	0.7817	25.85	0.64	0.750			
0.0714	4566.40	4.1680	4.1680	0.7812	25.85	0.64	0.750			
0.0737	4717.06	4.1650	4.1651	0.7836	25.85	0.64	0.750			
0.0761	4868.84	4.1620	4.1620	0.7840	25.85	0.64	0.750			
0.0784	5018.73	4.1590	4.1590	0.7864	25.86	0.65	0.750			
0.0807	5166.68	4.1560	4.1560	0.7860	25.86	0.65	0.750			
0.0831	5318.02	4.1530	4.1526	0.7931	25.86	0.65	0.750			
0.0855	5472.76	4.1500	4.1500	0.7965	25.86	0.65	0.750			
0.0879	5628.11	4.1470	4.1470	0.7905	25.86	0.65	0.750			
0.0903	5780.86	4.1440	4.1441	0.7971	25.85	0.64	0.750			
0.0927	5932.52	4.1410	4.1410	0.7995	25.85	0.64	0.750			
0.0950	6082.36	4.1380	4.1379	0.7968	25.85	0.64	0.750			
0.0974	6236.71	4.1350	4.1351	0.7984	25.85	0.64	0.750			
0.0999	6391.98	4.1320	4.1320	0.7977	25.85	0.64	0.750			
0.1023	6544.99	4.1290	4.1291	0.8049	25.86	0.65	0.750			
0.1047	6701.87	4.1260	4.1260	0.8066	25.86	0.65	0.750			
0.1071	6853.24	4.1230	4.1229	0.8066	25.86	0.65	0.750			
0.1095	7008.53	4.1200	4.1200	0.8080	25.86	0.65	0.750			
0.1120	7166.49	4.1170	4.1170	0.8034	25.86	0.65	0.750			
0.1144	7319.81	4.1140	4.1140	0.8097	25.86	0.65	0.750			
0.1168	7475.29	4.1110	4.1111	0.8148	25.85	0.64	0.750			
0.1192	7629.77	4.1080	4.1081	0.8148	25.85	0.64	0.750			
0.1217	7786.93	4.1050	4.1050	0.8212	25.85	0.64	0.750			
0.1241	7944.78	4.1020	4.1021	0.8220	25.85	0.64	0.750			
0.1266	8104.86	4.0990	4.0991	0.8314	25.85	0.64	0.750			
0.1292	8265.94	4.0960	4.0960	0.8316	25.85	0.64	0.750			
0.1316	8424.53	4.0930	4.0929	0.8292	25.85	0.64	0.750			
0.1341	8583.29	4.0900	4.0901	0.8323	25.85	0.64	0.750			
0.1366	8744.77	4.0870	4.0870	0.8331	25.85	0.64	0.750			
0.1391	8904.61	4.0840	4.0840	0.8374	25.85	0.64	0.750			
0.1416	9065.42	4.0810	4.0810	0.8408	25.85	0.64	0.750			
0.1442	9226.53	4.0780	4.0781	0.8411	25.85	0.64	0.750			
0.1467	9388.86	4.0750	4.0749	0.8469	25.85	0.64	0.750			
0.1493	9553.14	4.0720	4.0720	0.8399	25.85	0.64	0.750			
0.1518	9714.60	4.0690	4.0690	0.8409	25.85	0.64	0.750			
0.1543	9874.95	4.0660	4.0660	0.8475	25.86	0.65	0.750			
0.1568	10036.77	4.0630	4.0631	0.8499	25.86	0.65	0.750			
0.1594	10199.24	4.0600	4.0600	0.8536	25.86	0.65	0.750			
0.1619	10364.36	4.0570	4.0571	0.8600	25.86	0.65	0.750			
0.1645	10530.63	4.0540	4.0541	0.8654	25.86	0.65	0.750			
0.1672	10699.38	4.0510	4.0509	0.8707	25.85	0.64	0.750			
0.1698	10865.85	4.0480	4.0480	0.8710	25.85	0.64	0.750			
0.1724	11033.60	4.0450	4.0450	0.8707	25.85	0.64	0.750			
0.1750	11202.28	4.0420	4.0420	0.8702	25.85	0.64	0.750			
0.1776	11368.46	4.0390	4.0391	0.8749	25.86	0.65	0.750			
0.1802	11535.79	4.0360	4.0360	0.8768	25.86	0.65	0.750			
0.1829	11703.41	4.0330	4.0329	0.8795	25.86	0.65	0.750			
0.1855	11872.67	4.0300	4.0301	0.8835	25.86	0.65	0.750			
0.1882	12042.18	4.0270	4.0270	0.8829	25.86	0.65	0.750			
0.1908	12212.59	4.0240	4.0239	0.8931	25.87	0.66	0.750			
0.1935	12384.80	4.0210	4.0211	0.8936	25.87	0.66	0.750			
0.1962	12554.74	4.0180	4.0181	0.8990	25.87	0.66	0.750			
0.1989	12731.05	4.0150	4.0150	0.8976	25.87	0.66	0.750			
0.2016	12902.90	4.0120	4.0121	0.9053	25.87	0.66	0.750			
0.2043	13077.62	4.0090	4.0090	0.9092	25.87	0.66	0.750			
0.2071	13251.42	4.0060	4.0062	0.9039	25.87	0.66	0.750			
0.2098	13424.82	4.0030	4.0030	0.9077	25.87	0.66	0.750			
0.2125	13600.69	4.0000	4.0001	0.9094	25.87	0.66	0.750			
0.2152	13773.65	3.9970	3.9970	0.9095	25.87	0.66	0.750			
0.2180	13950.06	3.9940	3.9940	0.9180	25.87	0.66	0.750			
0.2207	14123.33	3.9910	3.9908	0.9129	25.87	0.66	0.750			
0.2235	14303.99	3.9880	3.9879	0.9103	25.87	0.66	0.750			
0.2262	14476.41	3.9850	3.9850	0.9195	25.87	0.66	0.750			
0.2289	14651.70	3.9820	3.9821	0.9246	25.87	0.66	0.750			
0.2317	14830.39	3.9790	3.9792	0.9339	25.87	0.66	0.750			
0.2345	15008.45	3.9760	3.9759	0.9381	25.87	0.66	0.750			
0.2374	15191.48	3.9730	3.9731	0.9313	25.87	0.66	0.750			
0.2402	15370.00	3.9700	3.9702	0.9421	25.87	0.66	0.750			
0.2430	15550.76	3.9670	3.9671	0.9481	25.87	0.66	0.750			
0.2458	15732.71	3.9640	3.9634	0.9407	25.87	0.66	0.750			
0.2487	15913.80	3.9610	3.9611	0.9432	25.87	0.66	0.750			
0.2515	16095.76	3.9580	3.9581	0.9476	25.87	0.66	0.750			
0.2544	16280.40	3.9550	3.9550	0.9557	25.88	0.67	0.750			
0.2572	16463.34	3.9520	3.9519	0.9489	25.88	0.67	0.750			
0.2601	16648.02	3.9490	3.9490	0.9394	25.88	0.67	0.750			
0.2629	16826.65	3.9460	3.9461	0.9477	25.88	0.67	0.750			
0.2658	17008.91	3.9430	3.9431	0.9548	25.88	0.67	0.750			
0.2686	17191.95	3.9400	3.9401	0.9584	25.88	0.67	0.750			
0.2715	17375.05	3.9370	3.9368	0.9639	25.88	0.67	0.750			
0.2744	17560.82	3.9340	3.9342	0.9660	25.88	0.67	0.750			
0.2773	17748.28	3.9310	3.9311	0.9771	25.87	0.66	0.750			
0.2803	17937.55	3.9280	3.9280	0.9828	25.87	0.66	0.750			
0.2832	18125.65	3.9250	3.9247	0.9785	25.87	0.66	0.750			
0.2862	18315.69	3.9220	3.9220	0.9757	25.87	0.66	0.750			
0.2891	18503.27	3.9190	3.9191	0.9857	25.87	0.66	0.750			
0.2921	18692.41	3.9160	3.9161	0.9917	25.87	0.66	0.750			
0.2950	18882.70	3.9130	3.9128	0.9910	25.87	0.66	0.750			
0.2980	19074.81	3.9100	3.9101	0.9921	25.87	0.66	0.750			
0.3010	19265.12	3.9070	3.9070	0.9990	25.87	0.66	0.750			
0.3040	19457.62	3.9040	3.9041	1.0043	25.87	0.66	0.750			
0.3070	19649.30	3.9010	3.9010	1.0055	25.87	0.66	0.750			
0.3101	19844.53	3.8980	3.8979	1.0131	25.87	0.66	0.750			
0.3131	20039.25	3.8950	3.8951	1.0193	25.87	0.66	0.750			
0.3162	20237.09	3.8920	3.8920	1.0289	25.87	0.66	0.750			
0.3193	20437.87	3.8890	3.8890	1.0387	25.87	0.66	0.750			
0.3225	20636.83	3.8860	3.8860	1.0349	25.87	0.66	0.750			
0.3255	20834.58	3.8830	3.8830	1.0402	25.87	0.66	0.750			
0.3286	21033.41	3.8800	3.8801	1.0476	25.87	0.66	0.750			
0.3318	21235.49	3.8770	3.8769	1.0540	25.87	0.66	0.750			
0.3350	21440.34	3.8740	3.8739	1.0445	25.87	0.66	0.750			
0.3381	21639.66	3.8710	3.8711	1.0568	25.86	0.65	0.750			
0.3413	21841.85	3.8680	3.8681	1.0665	25.86	0.65	0.750			
0.3445	22048.10	3.8650	3.8650	1.0775	25.85	0.64	0.750			
0.3477	22254.73	3.8620	3.8621	1.0816	25.85	0.64	0.750			
0.3510	22461.68	3.8590	3.8591	1.0905	25.85	0.64	0.750			
0.3543	22673.00	3.8560	3.8561	1.1107	25.84	0.63	0.750			
0.3577	22891.21	3.8530	3.8528	1.1232	25.84	0.63	0.750			
0.3610	23104.94	3.8500	3.8500	1.1120	25.84	0.63	0.750			
0.3643	23318.18	3.8470	3.8471	1.1216	25.83	0.62	0.750			
0.3677	23533.56	3.8440	3.8442	1.1337	25.82	0.61	0.750			
0.3711	23752.58	3.8410	3.8406	1.1407	25.82	0.61	0.750			
0.3745	23965.81	3.8380	3.8381	1.1448	25.82	0.61	0.750			
0.3779	24185.81	3.8350	3.8351	1.1609	25.81	0.60	0.750			
0.3814	24412.56	3.8320	3.8320	1.1824	25.81	0.60	0.750			
0.3850	24639.14	3.8290	3.8292	1.1948	25.81	0.60	0.750	0.333	0.426	
0.3886	24871.41	3.8260	3.8262	1.2149	25.80	0.59	0.750			
0.3923	25109.46	3.8230	3.8230	1.2236	25.80	0.59	0.750			
0.3961	25352.00	3.8200	3.8199	1.2290	25.79	0.58	0.750			
0.3997	25581.94	3.8170	3.8171	1.2188	25.78	0.57	0.750			
0.4034	25818.83	3.8140	3.8139	1.2252	25.78	0.57	0.750			
0.4071	26053.14	3.8110	3.8109	1.2262	25.77	0.56	0.750			
0.4107	26287.41	3.8080	3.8080	1.2286	25.76	0.55	0.750			
0.4144	26521.50	3.8050	3.8050	1.2417	25.76	0.55	0.750			
0.4182	26762.18	3.8020	3.8021	1.2524	25.75	0.54	0.750			
0.4220	27004.90	3.7990	3.7990	1.2506	25.74	0.53	0.750			
0.4257	27242.47	3.7960	3.7961	1.2583	25.73	0.52	0.750			
0.4294	27483.04	3.7930	3.7932	1.2729	25.72	0.51	0.750			
0.4333	27728.54	3.7900	3.7896	1.2788	25.71	0.50	0.750			
0.4371	27974.12	3.7870	3.7870	1.2902	25.70	0.49	0.750			
0.4410	28222.44	3.7840	3.7841	1.3026	25.69	0.48	0.750			
0.4450	28480.39	3.7810	3.7809	1.3106	25.67	0.46	0.750			
0.4489	28729.25	3.7780	3.7780	1.3164	25.66	0.45	0.750			
0.4528	28981.94	3.7750	3.7750	1.3341	25.65	0.44	0.750			
0.4569	29238.90	3.7720	3.7720	1.3409	25.63	0.42	0.750			
0.4609	29497.30	3.7690	3.7690	1.3718	25.62	0.41	0.750			
0.4650	29759.63	3.7660	3.7661	1.3941	25.61	0.40	0.750			
0.4693	30032.09	3.7630	3.7629	1.4143	25.59	0.38	0.750			
0.4735	30306.90	3.7600	3.7600	1.4446	25.58	0.37	0.750			
0.4779	30583.23	3.7570	3.7571	1.4611	25.57	0.36	0.750			
0.4823	30869.11	3.7540	3.7539	1.4902	25.55	0.34	0.750			
0.4868	31157.21	3.7510	3.7508	1.5209	25.54	0.33	0.750			
0.4914	31451.14	3.7480	3.7482	1.5542	25.53	0.32	0.750			
0.4961	31751.90	3.7450	3.7450	1.6075	25.52	0.31	0.750			
0.5011	32067.21	3.7420	3.7420	1.6508	25.50	0.29	0.750			
0.5060	32384.90	3.7390	3.7389	1.6991	25.48	0.27	0.750			
0.5112	32718.75	3.7360	3.7362	1.7467	25.46	0.25	0.750			
0.5167	33067.91	3.7330	3.7331	1.7922	25.45	0.24	0.750			
0.5220	33407.61	3.7300	3.7299	1.8303	25.44	0.23	0.750			
0.5276	33764.09	3.7270	3.7268	1.8574	25.42	0.21	0.750			
0.5331	34118.29	3.7240	3.7239	1.9297	25.40	0.19	0.750			
0.5390	34494.12	3.7210	3.7211	1.9874	25.39	0.18	0.750			
0.5450	34878.57	3.7180	3.7180	2.0598	25.37	0.16	0.750			
0.5513	35284.85	3.7150	3.7152	2.1200	25.35	0.14	0.750			
0.5578	35699.92	3.7120	3.7122	2.2023	25.32	0.11	0.750			
0.5647	36139.80	3.7090	3.7090	2.2299	25.30	0.09	0.750			
0.5713	36565.27	3.7060	3.7057	2.2989	25.29	0.08	0.750			
0.5784	37014.78	3.7030	3.7030	2.3633	25.27	0.06	0.750			
0.5855	37469.05	3.7000	3.7000	2.4189	25.24	0.03	0.750			
0.5929	37947.88	3.6970	3.6971	2.4665	25.23	0.02	0.750			
0.6005	38434.52	3.6940	3.6939	2.5911	25.21	-0.00	0.750			
0.6083	38934.33	3.6910	3.6908	2.6153	25.19	-0.02	0.750			
0.6164	39451.88	3.6880	3.6882	2.7297	25.18	-0.03	0.750			
0.6246	39977.11	3.6850	3.6851	2.8502	25.16	-0.05	0.750			
0.6332	40527.97	3.6820	3.6821	2.8976	25.13	-0.08	0.750			
0.6422	41100.62	3.6790	3.6792	2.9351	25.11	-0.10	0.750			
0.6511	41668.31	3.6760	3.6762	2.9683	25.10	-0.11	0.750			
0.6600	42239.76	3.6730	3.6730	3.0298	25.09	-0.12	0.750			
0.6692	42831.16	3.6700	3.6700	3.0447	25.08	-0.13	0.750			
0.6785	43423.88	3.6670	3.6671	3.0309	25.08	-0.13	0.750			
0.6877	44009.82	3.6640	3.6640	2.9654	25.08	-0.13	0.750			
0.6964	44568.14	3.6610	3.6611	2.8494	25.08	-0.13	0.750			
0.7050	45117.88	3.6580	3.6579	2.6968	25.09	-0.12	0.750			
0.7128	45616.11	3.6550	3.6550	2.4917	25.11	-0.10	0.750			
0.7199	46071.25	3.6520	3.6518	2.2621	25.12	-0.09	0.750			
0.7263	46482.72	3.6490	3.6489	2.0089	25.13	-0.08	0.750			
0.7319	46844.61	3.6460	3.6459	1.7608	25.14	-0.07	0.750			
0.7368	47152.44	3.6430	3.6432	1.5161	25.15	-0.06	0.750			
0.7410	47426.49	3.6400	3.6400	1.3059	25.16	-0.05	0.750			
0.7444	47642.82	3.6370	3.6370	1.1148	25.18	-0.03	0.750			
0.7473	47830.10	3.6340	3.6339	0.9549	25.18	-0.03	0.750			
0.7498	47984.25	3.6310	3.6310	0.8355	25.19	-0.02	0.750			
0.7521	48131.55	3.6280	3.6279	0.7449	25.20	-0.01	0.750			
0.7541	48261.04	3.6250	3.6250	0.6928	25.20	-0.01	0.750			
0.7561	48388.02	3.6220	3.6221	0.6464	25.20	-0.01	0.750			
0.7579	48507.53	3.6190	3.6187	0.6029	25.21	-0.00	0.750			
0.7597	48619.91	3.6160	3.6161	0.5601	25.21	0.00	0.750			
0.7613	48725.93	3.6130	3.6131	0.5086	25.22	0.01	0.750			
0.7629	48822.45	3.6100	3.6100	0.4498	25.22	0.01	0.750			
0.7642	48905.73	3.6070	3.6070	0.3866	25.22	0.01	0.750			
0.7652	48973.95	3.6040	3.6040	0.3177	25.23	0.02	0.750			
0.7661	49030.08	3.6010	3.6011	0.2451	25.23	0.02	0.750			
0.7667	49069.74	3.5980	3.5981	0.1668	25.23	0.02	0.750			
0.7671	49094.23	3.5950	3.5956	0.0887	25.23	0.02	0.750			
