Ah_balance (normalized)	Ah_balance (mAh)	Voltage - fit (V)	Voltage -  interpolate (V)	dQ/dV (1/V)	Temperature (°C)	Temperature - diff (°C)	Current (C)	R_DC 0ms (mOhm)	R_DC 50ms (mOhm)	R_DC 50 ms PEC (mOhm)
0.0483	3088.23	4.1980	4.1980	0.6812	25.69	0.48	0.750			
0.0504	3223.46	4.1950	4.1952	0.7191	25.69	0.48	0.750			
0.0526	3365.78	4.1920	4.1921	0.7396	25.69	0.48	0.750			
0.0548	3509.06	4.1890	4.1891	0.7507	25.69	0.48	0.750			
0.0571	3654.75	4.1860	4.1861	0.7527	25.69	0.48	0.750			
0.0594	3801.50	4.1830	4.1830	0.7592	25.69	0.48	0.750			
0.0617	3946.92	4.1800	4.1800	0.7543	25.69	0.48	0.750			
0.0640	4092.81	4.1770	4.1767	0.7569	25.69	0.48	0.750			
0.0662	4239.07	4.1740	4.1741	0.7563	25.69	0.48	0.750			
0.0685	4387.01	4.1710	4.1709	0.7405	25.69	0.48	0.750			
0.0707	4527.40	4.1680	4.1680	0.7487	25.69	0.48	0.750			
0.0729	4668.24	4.1650	4.1652	0.7467	25.69	0.48	0.750			
0.0752	4811.43	4.1620	4.1621	0.7525	25.69	0.48	0.750			
0.0774	4956.60	4.1590	4.1592	0.7595	25.69	0.48	0.750			
0.0798	5104.09	4.1560	4.1561	0.7644	25.69	0.48	0.750			
0.0821	5254.67	4.1530	4.1530	0.7674	25.69	0.48	0.750			
0.0844	5400.15	4.1500	4.1500	0.7683	25.69	0.48	0.750			
0.0866	5545.32	4.1470	4.1472	0.7680	25.69	0.48	0.750			
0.0890	5693.35	4.1440	4.1436	0.7753	25.69	0.48	0.750			
0.0913	5843.59	4.1410	4.1411	0.7773	25.69	0.48	0.750			
0.0937	5994.47	4.1380	4.1380	0.7769	25.69	0.48	0.750			
0.0960	6146.19	4.1350	4.1350	0.7855	25.70	0.49	0.750			
0.0984	6297.23	4.1320	4.1321	0.7821	25.70	0.49	0.750			
0.1007	6443.40	4.1290	4.1289	0.7731	25.70	0.49	0.750			
0.1030	6592.23	4.1260	4.1261	0.7731	25.70	0.49	0.750			
0.1053	6740.04	4.1230	4.1231	0.7733	25.70	0.49	0.750			
0.1076	6888.21	4.1200	4.1200	0.7658	25.71	0.50	0.750			
0.1099	7032.07	4.1170	4.1172	0.7669	25.71	0.50	0.750			
0.1122	7179.49	4.1140	4.1141	0.7740	25.71	0.50	0.750			
0.1145	7328.68	4.1110	4.1111	0.7807	25.71	0.50	0.750			
0.1169	7480.51	4.1080	4.1081	0.7871	25.71	0.50	0.750			
0.1193	7633.71	4.1050	4.1051	0.7753	25.71	0.50	0.750			
0.1216	7783.32	4.1020	4.1021	0.7846	25.71	0.50	0.750			
0.1239	7931.13	4.0990	4.0992	0.7749	25.71	0.50	0.750			
0.1262	8079.86	4.0960	4.0953	0.7830	25.71	0.50	0.750			
0.1286	8229.09	4.0930	4.0932	0.7905	25.71	0.50	0.750			
0.1310	8382.77	4.0900	4.0901	0.7989	25.71	0.50	0.750			
0.1335	8542.25	4.0870	4.0870	0.8091	25.71	0.50	0.750			
0.1359	8696.60	4.0840	4.0839	0.7996	25.71	0.50	0.750			
0.1383	8850.18	4.0810	4.0810	0.7980	25.71	0.50	0.750			
0.1407	9002.86	4.0780	4.0780	0.8035	25.71	0.50	0.750			
0.1431	9158.86	4.0750	4.0749	0.7960	25.72	0.51	0.750			
0.1455	9310.60	4.0720	4.0720	0.7984	25.72	0.51	0.750			
0.1479	9464.10	4.0690	4.0690	0.8040	25.72	0.51	0.750			
0.1503	9618.57	4.0660	4.0662	0.8048	25.73	0.52	0.750			
0.1527	9773.54	4.0630	4.0631	0.8046	25.73	0.52	0.750			
0.1552	9932.10	4.0600	4.0599	0.7935	25.73	0.52	0.750			
0.1575	10081.03	4.0570	4.0571	0.7976	25.73	0.52	0.750			
0.1599	10233.08	4.0540	4.0541	0.8111	25.73	0.52	0.750			
0.1624	10390.80	4.0510	4.0510	0.8024	25.73	0.52	0.750			
0.1647	10543.04	4.0480	4.0480	0.8124	25.73	0.52	0.750			
0.1672	10701.06	4.0450	4.0452	0.8228	25.73	0.52	0.750			
0.1697	10861.85	4.0420	4.0422	0.8329	25.73	0.52	0.750			
0.1722	11022.02	4.0390	4.0392	0.8423	25.74	0.53	0.750			
0.1747	11182.56	4.0360	4.0361	0.8348	25.74	0.53	0.750			
0.1773	11344.98	4.0330	4.0330	0.8372	25.74	0.53	0.750			
0.1799	11512.88	4.0300	4.0299	0.8262	25.74	0.53	0.750			
0.1823	11668.00	4.0270	4.0273	0.8277	25.74	0.53	0.750			
0.1848	11826.84	4.0240	4.0241	0.8328	25.75	0.54	0.750			
0.1872	11983.94	4.0210	4.0211	0.8396	25.75	0.54	0.750			
0.1898	12145.54	4.0180	4.0176	0.8454	25.75	0.54	0.750			
0.1924	12314.49	4.0150	4.0150	0.8381	25.75	0.54	0.750			
0.1949	12473.85	4.0120	4.0122	0.8457	25.75	0.54	0.750			
0.1975	12636.80	4.0090	4.0092	0.8541	25.75	0.54	0.750			
0.2000	12797.81	4.0060	4.0060	0.8512	25.75	0.54	0.750			
0.2025	12961.17	4.0030	4.0032	0.8567	25.75	0.54	0.750			
0.2051	13128.31	4.0000	4.0001	0.8528	25.75	0.54	0.750			
0.2078	13296.08	3.9970	3.9971	0.8644	25.75	0.54	0.750			
0.2104	13462.48	3.9940	3.9941	0.8693	25.75	0.54	0.750			
0.2129	13626.43	3.9910	3.9911	0.8627	25.75	0.54	0.750			
0.2155	13792.57	3.9880	3.9880	0.8674	25.75	0.54	0.750			
0.2181	13959.19	3.9850	3.9851	0.8688	25.75	0.54	0.750			
0.2207	14124.65	3.9820	3.9821	0.8630	25.75	0.54	0.750			
0.2233	14291.99	3.9790	3.9791	0.8697	25.75	0.54	0.750			
0.2259	14454.71	3.9760	3.9759	0.8672	25.75	0.54	0.750			
0.2285	14621.54	3.9730	3.9732	0.8718	25.75	0.54	0.750			
0.2311	14791.00	3.9700	3.9701	0.8697	25.75	0.54	0.750			
0.2337	14959.07	3.9670	3.9671	0.8755	25.76	0.55	0.750			
0.2364	15132.07	3.9640	3.9640	0.8928	25.76	0.55	0.750			
0.2390	15295.92	3.9610	3.9605	0.8752	25.76	0.55	0.750			
0.2417	15466.57	3.9580	3.9580	0.8722	25.76	0.55	0.750			
0.2443	15633.70	3.9550	3.9552	0.8733	25.76	0.55	0.750			
0.2469	15803.31	3.9520	3.9520	0.8793	25.75	0.54	0.750			
0.2496	15972.28	3.9490	3.9490	0.8791	25.75	0.54	0.750			
0.2521	16137.36	3.9460	3.9459	0.8691	25.75	0.54	0.750			
0.2547	16303.73	3.9430	3.9430	0.8719	25.74	0.53	0.750			
0.2574	16473.39	3.9400	3.9401	0.8600	25.74	0.53	0.750			
0.2599	16634.35	3.9370	3.9371	0.8667	25.74	0.53	0.750			
0.2625	16798.91	3.9340	3.9342	0.8692	25.73	0.52	0.750			
0.2651	16965.75	3.9310	3.9313	0.8687	25.73	0.52	0.750			
0.2677	17134.74	3.9280	3.9281	0.8721	25.73	0.52	0.750			
0.2704	17305.32	3.9250	3.9252	0.8802	25.73	0.52	0.750			
0.2731	17475.91	3.9220	3.9221	0.8802	25.73	0.52	0.750			
0.2757	17642.66	3.9190	3.9188	0.8669	25.73	0.52	0.750			
0.2783	17809.68	3.9160	3.9161	0.8694	25.73	0.52	0.750			
0.2809	17976.55	3.9130	3.9130	0.8685	25.72	0.51	0.750			
0.2835	18142.84	3.9100	3.9100	0.8745	25.72	0.51	0.750			
0.2861	18311.82	3.9070	3.9070	0.8764	25.71	0.50	0.750			
0.2887	18478.73	3.9040	3.9039	0.8744	25.71	0.50	0.750			
0.2914	18647.83	3.9010	3.9010	0.8758	25.71	0.50	0.750			
0.2940	18816.84	3.8980	3.8981	0.8642	25.70	0.49	0.750			
0.2966	18980.15	3.8950	3.8951	0.8676	25.70	0.49	0.750			
0.2991	19143.92	3.8920	3.8922	0.8700	25.69	0.48	0.750			
0.3017	19310.85	3.8890	3.8886	0.8755	25.69	0.48	0.750			
0.3044	19481.38	3.8860	3.8861	0.8749	25.69	0.48	0.750			
0.3070	19650.05	3.8830	3.8831	0.8800	25.68	0.47	0.750			
0.3097	19822.80	3.8800	3.8801	0.8880	25.68	0.47	0.750			
0.3124	19996.42	3.8770	3.8770	0.8902	25.67	0.46	0.750			
0.3150	20158.07	3.8740	3.8741	0.8771	25.67	0.46	0.750			
0.3176	20329.57	3.8710	3.8710	0.8757	25.66	0.45	0.750			
0.3203	20497.69	3.8680	3.8681	0.8816	25.65	0.44	0.750			
0.3229	20666.59	3.8650	3.8651	0.8880	25.64	0.43	0.750			
0.3256	20835.90	3.8620	3.8619	0.8907	25.63	0.42	0.750			
0.3283	21008.04	3.8590	3.8590	0.8932	25.63	0.42	0.750			
0.3310	21181.46	3.8560	3.8560	0.8864	25.62	0.41	0.750			
0.3337	21355.30	3.8530	3.8530	0.8754	25.62	0.41	0.750			
0.3362	21519.55	3.8500	3.8501	0.8928	25.61	0.40	0.750			
0.3388	21685.68	3.8470	3.8458	0.9013	25.61	0.40	0.750			
0.3416	21862.05	3.8440	3.8441	0.9023	25.60	0.39	0.750			
0.3443	22034.69	3.8410	3.8413	0.9223	25.59	0.38	0.750	0.274	0.418	
0.3471	22215.98	3.8380	3.8383	0.9403	25.58	0.37	0.750			
0.3501	22404.30	3.8350	3.8351	0.9396	25.57	0.36	0.750			
0.3529	22585.50	3.8320	3.8321	0.9438	25.57	0.36	0.750			
0.3556	22760.63	3.8290	3.8292	0.9422	25.56	0.35	0.750			
0.3585	22942.06	3.8260	3.8262	0.9575	25.55	0.34	0.750			
0.3614	23128.64	3.8230	3.8232	0.9749	25.55	0.34	0.750			
0.3643	23314.90	3.8200	3.8199	0.9778	25.54	0.33	0.750			
0.3673	23509.85	3.8170	3.8170	0.9722	25.53	0.32	0.750			
0.3703	23696.32	3.8140	3.8141	0.9909	25.52	0.31	0.750			
0.3732	23885.64	3.8110	3.8111	0.9958	25.51	0.30	0.750			
0.3762	24074.56	3.8080	3.8073	1.0011	25.50	0.29	0.750			
0.3792	24270.29	3.8050	3.8052	1.0071	25.49	0.28	0.750			
0.3822	24461.70	3.8020	3.8022	1.0270	25.49	0.28	0.750			
0.3853	24661.94	3.7990	3.7991	1.0454	25.48	0.27	0.750			
0.3887	24874.09	3.7960	3.7953	1.0545	25.47	0.26	0.750			
0.3916	25064.54	3.7930	3.7932	1.0578	25.46	0.25	0.750			
0.3948	25269.00	3.7900	3.7902	1.0847	25.45	0.24	0.750			
0.3982	25484.31	3.7870	3.7871	1.0891	25.44	0.23	0.750			
0.4015	25696.78	3.7840	3.7839	1.0971	25.43	0.22	0.750			
0.4047	25899.83	3.7810	3.7814	1.1147	25.42	0.21	0.750			
0.4081	26115.37	3.7780	3.7784	1.1601	25.41	0.20	0.750			
0.4116	26342.34	3.7750	3.7755	1.1984	25.41	0.20	0.750			
0.4152	26573.57	3.7720	3.7724	1.2021	25.40	0.19	0.750			
0.4189	26808.12	3.7690	3.7695	1.2402	25.39	0.18	0.750			
0.4227	27055.19	3.7660	3.7661	1.2746	25.38	0.17	0.750			
0.4266	27301.92	3.7630	3.7624	1.2792	25.37	0.16	0.750			
0.4303	27540.58	3.7600	3.7602	1.2990	25.35	0.14	0.750			
0.4342	27790.77	3.7570	3.7571	1.3296	25.34	0.13	0.750			
0.4383	28052.37	3.7540	3.7537	1.3665	25.32	0.11	0.750			
0.4423	28309.80	3.7510	3.7511	1.3644	25.31	0.10	0.750			
0.4466	28583.06	3.7480	3.7482	1.3550	25.30	0.09	0.750			
0.4507	28844.68	3.7450	3.7452	1.4090	25.29	0.08	0.750			
0.4550	29121.81	3.7420	3.7422	1.4169	25.28	0.07	0.750			
0.4593	29392.23	3.7390	3.7380	1.4632	25.27	0.06	0.750			
0.4637	29679.92	3.7360	3.7355	1.5077	25.26	0.05	0.750			
0.4685	29985.30	3.7330	3.7334	1.5603	25.25	0.04	0.750			
0.4730	30272.99	3.7300	3.7304	1.6261	25.23	0.02	0.750			
0.4781	30599.23	3.7270	3.7269	1.6263	25.22	0.01	0.750			
0.4830	30911.87	3.7240	3.7243	1.6865	25.21	-0.00	0.750			
0.4881	31238.62	3.7210	3.7213	1.7470	25.20	-0.01	0.750			
0.4934	31579.32	3.7180	3.7182	1.8687	25.19	-0.02	0.750			
0.4991	31942.38	3.7150	3.7157	2.0408	25.18	-0.03	0.750			
0.5055	32353.53	3.7120	3.7118	2.1787	25.17	-0.04	0.750			
0.5124	32795.68	3.7090	3.7094	2.2227	25.15	-0.06	0.750			
0.5193	33236.57	3.7060	3.7059	2.2112	25.14	-0.07	0.750			
0.5258	33648.75	3.7030	3.7028	2.2177	25.12	-0.09	0.750			
0.5318	34036.81	3.7000	3.7001	2.1894	25.11	-0.10	0.750			
0.5386	34473.21	3.6970	3.6969	2.2308	25.10	-0.11	0.750			
0.5455	34910.00	3.6940	3.6937	2.3115	25.09	-0.12	0.750			
0.5524	35350.49	3.6910	3.6914	2.3385	25.08	-0.13	0.750			
0.5594	35800.38	3.6880	3.6881	2.3440	25.07	-0.14	0.750			
0.5666	36263.61	3.6850	3.6850	2.3362	25.06	-0.15	0.750			
0.5734	36699.37	3.6820	3.6822	2.2546	25.06	-0.15	0.750			
0.5801	37128.19	3.6790	3.6787	2.2465	25.06	-0.15	0.750			
0.5870	37567.72	3.6760	3.6759	2.1853	25.06	-0.15	0.750			
0.5937	37996.55	3.6730	3.6735	2.2049	25.06	-0.15	0.750			
0.6000	38397.97	3.6700	3.6701	2.0291	25.06	-0.15	0.750			
0.6059	38779.44	3.6670	3.6675	1.9356	25.07	-0.14	0.750			
0.6116	39143.71	3.6640	3.6644	1.8066	25.08	-0.13	0.750			
0.6171	39494.25	3.6610	3.6608	1.7403	25.09	-0.12	0.750			
0.6220	39807.74	3.6580	3.6582	1.5887	25.09	-0.12	0.750			
0.6266	40099.42	3.6550	3.6549	1.4742	25.10	-0.11	0.750			
0.6308	40370.15	3.6520	3.6520	1.3860	25.11	-0.10	0.750			
0.6345	40611.06	3.6490	3.6490	1.2702	25.11	-0.10	0.750			
0.6383	40848.25	3.6460	3.6456	1.2065	25.12	-0.09	0.750			
0.6418	41073.62	3.6430	3.6431	1.1418	25.13	-0.08	0.750			
0.6451	41283.27	3.6400	3.6401	1.0838	25.13	-0.08	0.750			
0.6482	41486.15	3.6370	3.6371	1.0389	25.14	-0.07	0.750			
0.6513	41681.18	3.6340	3.6335	0.9982	25.15	-0.06	0.750			
0.6541	41864.26	3.6310	3.6311	0.9499	25.16	-0.05	0.750			
0.6569	42044.20	3.6280	3.6281	0.9229	25.16	-0.05	0.750			
0.6597	42219.95	3.6250	3.6249	0.8906	25.17	-0.04	0.750			
0.6623	42388.92	3.6220	3.6220	0.8547	25.18	-0.03	0.750			
0.6648	42546.77	3.6190	3.6191	0.8139	25.18	-0.03	0.750			
0.6672	42700.26	3.6160	3.6161	0.7762	25.19	-0.02	0.750			
0.6695	42848.77	3.6130	3.6129	0.7251	25.19	-0.02	0.750			
0.6716	42983.13	3.6100	3.6100	0.6856	25.20	-0.01	0.750			
0.6736	43109.87	3.6070	3.6071	0.6369	25.20	-0.01	0.750			
0.6754	43228.07	3.6040	3.6041	0.5925	25.21	-0.00	0.750			
0.6771	43336.84	3.6010	3.6010	0.5472	25.21	0.00	0.750			
0.6788	43440.12	3.5980	3.5980	0.4885	25.22	0.01	0.750			
0.6802	43529.62	3.5950	3.5951	0.4443	25.22	0.01	0.750			
0.6814	43610.02	3.5920	3.5921	0.3987	25.22	0.01	0.750			
0.6825	43677.95	3.5890	3.5894	0.3469	25.22	0.01	0.750			
0.6835	43741.44	3.5860	3.5863	0.2985	25.23	0.02	0.750			
0.6843	43793.66	3.5830	3.5833	0.2509	25.23	0.02	0.750			
0.6850	43838.26	3.5800	3.5804	0.2067	25.23	0.02	0.750			
0.6856	43879.37	3.5770	3.5771	0.1576	25.23	0.02	0.750			
0.6860	43902.72	3.5740	3.5746	0.0954	25.23	0.02	0.750			
0.6862	43915.76	3.5710	3.5721	0.0380	25.23	0.02	0.750			
