Ah_balance (normalized)	Ah_balance (mAh)	Voltage - fit (V)	Voltage -  interpolate (V)	dQ/dV (1/V)	Temperature (°C)	Temperature - diff (°C)	Current (C)	R_DC 0ms (mOhm)	R_DC 50ms (mOhm)	R_DC 50 ms PEC (mOhm)
0.0485	3105.52	4.1970	4.1970	0.7423	25.48	0.64	0.750			
0.0507	3246.23	4.1940	4.1941	0.7396	25.48	0.64	0.750			
0.0530	3389.96	4.1910	4.1910	0.7485	25.48	0.64	0.750			
0.0552	3535.26	4.1880	4.1880	0.7517	25.48	0.64	0.750			
0.0575	3679.66	4.1850	4.1851	0.7536	25.48	0.64	0.750			
0.0598	3825.60	4.1820	4.1821	0.7559	25.48	0.64	0.750			
0.0621	3971.77	4.1790	4.1790	0.7569	25.49	0.65	0.750			
0.0643	4115.05	4.1760	4.1760	0.7552	25.49	0.65	0.750			
0.0666	4259.81	4.1730	4.1730	0.7586	25.49	0.65	0.750			
0.0688	4406.00	4.1700	4.1700	0.7625	25.49	0.65	0.750			
0.0712	4555.60	4.1670	4.1669	0.7535	25.49	0.65	0.750			
0.0734	4699.57	4.1640	4.1640	0.7589	25.50	0.66	0.750			
0.0757	4844.35	4.1610	4.1611	0.7598	25.50	0.66	0.750			
0.0780	4990.62	4.1580	4.1581	0.7590	25.50	0.66	0.750			
0.0802	5135.10	4.1550	4.1550	0.7578	25.50	0.66	0.750			
0.0825	5280.97	4.1520	4.1522	0.7613	25.50	0.66	0.750			
0.0848	5427.95	4.1490	4.1490	0.7590	25.50	0.66	0.750			
0.0871	5574.19	4.1460	4.1460	0.7609	25.51	0.67	0.750			
0.0893	5717.86	4.1430	4.1431	0.7622	25.51	0.67	0.750			
0.0916	5864.17	4.1400	4.1392	0.7698	25.51	0.67	0.750			
0.0940	6013.90	4.1370	4.1371	0.7760	25.51	0.67	0.750			
0.0963	6164.51	4.1340	4.1341	0.7768	25.51	0.67	0.750			
0.0987	6314.14	4.1310	4.1310	0.7825	25.51	0.67	0.750			
0.1011	6467.66	4.1280	4.1280	0.7862	25.51	0.67	0.750			
0.1034	6615.89	4.1250	4.1249	0.7806	25.51	0.67	0.750			
0.1057	6765.68	4.1220	4.1220	0.7774	25.51	0.67	0.750			
0.1081	6915.53	4.1190	4.1191	0.7758	25.51	0.67	0.750			
0.1104	7063.46	4.1160	4.1160	0.7692	25.51	0.67	0.750			
0.1126	7207.84	4.1130	4.1131	0.7708	25.52	0.68	0.750			
0.1149	7355.30	4.1100	4.1101	0.7784	25.52	0.68	0.750			
0.1173	7504.83	4.1070	4.1070	0.7871	25.52	0.68	0.750			
0.1197	7657.84	4.1040	4.1042	0.7918	25.52	0.68	0.750			
0.1221	7815.01	4.1010	4.1010	0.7756	25.52	0.68	0.750			
0.1245	7965.27	4.0980	4.0981	0.7930	25.53	0.69	0.750			
0.1269	8118.53	4.0950	4.0950	0.7929	25.53	0.69	0.750			
0.1291	8263.52	4.0920	4.0912	0.7883	25.53	0.69	0.750			
0.1315	8416.24	4.0890	4.0892	0.7977	25.53	0.69	0.750			
0.1339	8569.41	4.0860	4.0862	0.8026	25.53	0.69	0.750			
0.1363	8725.96	4.0830	4.0831	0.8101	25.53	0.69	0.750			
0.1388	8882.52	4.0800	4.0800	0.8019	25.53	0.69	0.750			
0.1412	9039.38	4.0770	4.0768	0.8079	25.53	0.69	0.750			
0.1437	9194.81	4.0740	4.0742	0.8080	25.53	0.69	0.750			
0.1461	9350.39	4.0710	4.0710	0.7988	25.53	0.69	0.750			
0.1485	9501.76	4.0680	4.0680	0.8084	25.53	0.69	0.750			
0.1509	9656.90	4.0650	4.0650	0.8134	25.53	0.69	0.750			
0.1533	9811.86	4.0620	4.0621	0.8149	25.53	0.69	0.750			
0.1558	9971.28	4.0590	4.0591	0.8191	25.53	0.69	0.750			
0.1583	10128.52	4.0560	4.0562	0.8262	25.54	0.70	0.750			
0.1608	10288.15	4.0530	4.0530	0.8161	25.54	0.70	0.750			
0.1632	10441.87	4.0500	4.0501	0.8253	25.54	0.70	0.750			
0.1656	10597.17	4.0470	4.0472	0.8231	25.55	0.71	0.750			
0.1681	10756.24	4.0440	4.0443	0.8287	25.55	0.71	0.750			
0.1706	10917.39	4.0410	4.0411	0.8319	25.55	0.71	0.750			
0.1731	11080.27	4.0380	4.0382	0.8424	25.55	0.71	0.750			
0.1757	11242.39	4.0350	4.0350	0.8419	25.55	0.71	0.750			
0.1782	11402.69	4.0320	4.0319	0.8340	25.55	0.71	0.750			
0.1807	11562.59	4.0290	4.0292	0.8383	25.55	0.71	0.750			
0.1832	11727.54	4.0260	4.0259	0.8310	25.55	0.71	0.750			
0.1857	11884.64	4.0230	4.0231	0.8386	25.55	0.71	0.750			
0.1882	12044.40	4.0200	4.0200	0.8464	25.55	0.71	0.750			
0.1907	12206.50	4.0170	4.0172	0.8489	25.55	0.71	0.750			
0.1933	12371.17	4.0140	4.0141	0.8540	25.55	0.71	0.750			
0.1959	12538.16	4.0110	4.0111	0.8505	25.55	0.71	0.750			
0.1984	12700.29	4.0080	4.0081	0.8588	25.56	0.72	0.750			
0.2011	12867.95	4.0050	4.0050	0.8654	25.56	0.72	0.750			
0.2036	13028.03	4.0020	4.0019	0.8615	25.56	0.72	0.750			
0.2062	13194.37	3.9990	3.9992	0.8709	25.56	0.72	0.750			
0.2088	13364.62	3.9960	3.9960	0.8766	25.56	0.72	0.750			
0.2115	13534.38	3.9930	3.9930	0.8793	25.57	0.73	0.750			
0.2141	13705.10	3.9900	3.9900	0.8872	25.57	0.73	0.750			
0.2168	13872.56	3.9870	3.9869	0.8782	25.57	0.73	0.750			
0.2195	14045.23	3.9840	3.9839	0.8705	25.57	0.73	0.750			
0.2220	14209.83	3.9810	3.9810	0.8705	25.57	0.73	0.750			
0.2246	14375.69	3.9780	3.9781	0.8733	25.57	0.73	0.750			
0.2272	14542.27	3.9750	3.9751	0.8754	25.57	0.73	0.750			
0.2298	14709.34	3.9720	3.9719	0.8805	25.57	0.73	0.750			
0.2325	14880.81	3.9690	3.9691	0.8751	25.57	0.73	0.750			
0.2352	15050.12	3.9660	3.9661	0.8889	25.57	0.73	0.750			
0.2378	15222.40	3.9630	3.9630	0.8915	25.57	0.73	0.750			
0.2405	15392.92	3.9600	3.9600	0.8859	25.57	0.73	0.750			
0.2432	15562.68	3.9570	3.9572	0.8873	25.57	0.73	0.750			
0.2458	15733.29	3.9540	3.9541	0.8894	25.57	0.73	0.750			
0.2485	15904.01	3.9510	3.9511	0.8918	25.58	0.74	0.750			
0.2512	16077.49	3.9480	3.9479	0.8967	25.58	0.74	0.750			
0.2538	16246.34	3.9450	3.9448	0.8890	25.58	0.74	0.750			
0.2565	16418.92	3.9420	3.9421	0.8960	25.58	0.74	0.750			
0.2592	16590.18	3.9390	3.9391	0.8913	25.58	0.74	0.750			
0.2619	16761.23	3.9360	3.9360	0.8930	25.58	0.74	0.750			
0.2646	16931.29	3.9330	3.9331	0.8912	25.58	0.74	0.750			
0.2672	17103.22	3.9300	3.9297	0.8912	25.58	0.74	0.750			
0.2699	17274.13	3.9270	3.9271	0.9123	25.58	0.74	0.750			
0.2726	17449.03	3.9240	3.9240	0.9420	25.58	0.74	0.750			
0.2755	17634.75	3.9210	3.9204	0.9504	25.57	0.73	0.750			
0.2784	17819.21	3.9180	3.9183	0.9497	25.57	0.73	0.750			
0.2814	18006.40	3.9150	3.9153	0.9458	25.57	0.73	0.750			
0.2843	18193.22	3.9120	3.9120	0.9398	25.56	0.72	0.750			
0.2870	18369.92	3.9090	3.9090	0.9248	25.56	0.72	0.750			
0.2897	18543.58	3.9060	3.9059	0.9120	25.55	0.71	0.750			
0.2924	18713.14	3.9030	3.9030	0.9030	25.55	0.71	0.750			
0.2951	18888.89	3.9000	3.9000	0.9006	25.54	0.70	0.750			
0.2978	19061.15	3.8970	3.8970	0.9016	25.54	0.70	0.750			
0.3005	19233.78	3.8940	3.8940	0.9029	25.54	0.70	0.750			
0.3032	19406.41	3.8910	3.8910	0.9022	25.53	0.69	0.750			
0.3059	19579.56	3.8880	3.8880	0.9026	25.53	0.69	0.750			
0.3086	19753.03	3.8850	3.8850	0.9007	25.52	0.68	0.750			
0.3113	19925.58	3.8820	3.8820	0.9023	25.52	0.68	0.750			
0.3141	20100.10	3.8790	3.8790	0.9063	25.51	0.67	0.750			
0.3167	20271.82	3.8760	3.8758	0.9080	25.51	0.67	0.750			
0.3195	20446.19	3.8730	3.8731	0.9100	25.50	0.66	0.750			
0.3222	20622.70	3.8700	3.8700	0.9117	25.50	0.66	0.750			
0.3250	20799.17	3.8670	3.8670	0.9151	25.49	0.65	0.750			
0.3277	20974.14	3.8640	3.8641	0.9128	25.48	0.64	0.750			
0.3305	21150.02	3.8610	3.8610	0.9151	25.48	0.64	0.750			
0.3332	21325.29	3.8580	3.8580	0.9128	25.47	0.63	0.750			
0.3359	21499.00	3.8550	3.8551	0.9167	25.46	0.62	0.750			
0.3387	21675.28	3.8520	3.8520	0.9251	25.46	0.62	0.750			
0.3415	21855.26	3.8490	3.8486	0.9222	25.45	0.61	0.750			
0.3443	22032.55	3.8460	3.8460	0.9258	25.44	0.60	0.750			
0.3470	22209.14	3.8430	3.8431	0.9381	25.43	0.59	0.750			
0.3498	22390.04	3.8400	3.8400	0.9503	25.42	0.58	0.750	0.302	0.426	
0.3527	22574.08	3.8370	3.8371	0.9605	25.41	0.57	0.750			
0.3556	22759.11	3.8340	3.8341	0.9590	25.40	0.56	0.750			
0.3585	22944.81	3.8310	3.8311	0.9661	25.39	0.55	0.750			
0.3615	23134.47	3.8280	3.8281	0.9734	25.38	0.54	0.750			
0.3644	23319.05	3.8250	3.8250	0.9748	25.37	0.53	0.750			
0.3673	23504.24	3.8220	3.8219	0.9739	25.36	0.52	0.750			
0.3702	23691.27	3.8190	3.8190	0.9788	25.35	0.51	0.750			
0.3731	23878.98	3.8160	3.8161	0.9920	25.34	0.50	0.750			
0.3761	24071.00	3.8130	3.8130	1.0059	25.33	0.49	0.750			
0.3791	24264.02	3.8100	3.8096	1.0188	25.32	0.48	0.750			
0.3822	24461.20	3.8070	3.8070	1.0273	25.31	0.47	0.750			
0.3853	24659.96	3.8040	3.8041	1.0380	25.30	0.46	0.750			
0.3885	24862.58	3.8010	3.8010	1.0512	25.29	0.45	0.750			
0.3916	25064.83	3.7980	3.7979	1.0611	25.28	0.44	0.750			
0.3948	25266.64	3.7950	3.7950	1.0667	25.27	0.43	0.750			
0.3980	25472.36	3.7920	3.7920	1.0826	25.26	0.42	0.750			
0.4013	25681.11	3.7890	3.7890	1.0986	25.25	0.41	0.750			
0.4046	25896.24	3.7860	3.7860	1.1077	25.24	0.40	0.750			
0.4080	26108.97	3.7830	3.7830	1.1281	25.22	0.38	0.750			
0.4113	26325.38	3.7800	3.7801	1.1504	25.21	0.37	0.750			
0.4148	26547.94	3.7770	3.7770	1.1735	25.20	0.36	0.750			
0.4184	26775.52	3.7740	3.7740	1.1847	25.18	0.34	0.750			
0.4219	27002.12	3.7710	3.7711	1.2090	25.17	0.33	0.750			
0.4256	27236.28	3.7680	3.7682	1.2392	25.15	0.31	0.750			
0.4294	27479.13	3.7650	3.7646	1.2683	25.14	0.30	0.750			
0.4332	27721.76	3.7620	3.7621	1.2919	25.13	0.29	0.750			
0.4371	27973.05	3.7590	3.7590	1.3272	25.11	0.27	0.750			
0.4411	28233.37	3.7560	3.7559	1.3581	25.10	0.26	0.750			
0.4452	28495.55	3.7530	3.7530	1.3697	25.09	0.25	0.750			
0.4494	28759.48	3.7500	3.7501	1.4063	25.08	0.24	0.750			
0.4536	29031.84	3.7470	3.7470	1.4245	25.06	0.22	0.750			
0.4579	29306.69	3.7440	3.7438	1.4481	25.05	0.21	0.750			
0.4623	29584.12	3.7410	3.7413	1.5056	25.03	0.19	0.750			
0.4668	29874.87	3.7380	3.7376	1.5466	25.01	0.17	0.750			
0.4715	30177.94	3.7350	3.7351	1.5943	24.99	0.15	0.750			
0.4765	30493.90	3.7320	3.7322	1.6279	24.97	0.13	0.750			
0.4814	30810.88	3.7290	3.7289	1.6640	24.95	0.11	0.750			
0.4864	31132.78	3.7260	3.7258	1.7161	24.94	0.10	0.750			
0.4916	31462.04	3.7230	3.7228	1.7717	24.92	0.08	0.750			
0.4970	31807.71	3.7200	3.7200	1.8094	24.90	0.06	0.750			
0.5025	32160.21	3.7170	3.7170	1.8616	24.89	0.05	0.750			
0.5082	32522.50	3.7140	3.7140	1.9184	24.87	0.03	0.750			
0.5140	32898.62	3.7110	3.7108	1.9675	24.85	0.01	0.750			
0.5200	33279.24	3.7080	3.7079	2.0426	24.83	-0.01	0.750			
0.5263	33681.13	3.7050	3.7050	2.1126	24.82	-0.02	0.750			
0.5328	34101.16	3.7020	3.7018	2.1540	24.81	-0.03	0.750			
0.5393	34518.08	3.6990	3.6991	2.2254	24.80	-0.04	0.750			
0.5460	34945.32	3.6960	3.6960	2.2786	24.78	-0.06	0.750			
0.5528	35382.08	3.6930	3.6930	2.3167	24.76	-0.08	0.750			
0.5600	35842.43	3.6900	3.6899	2.3723	24.75	-0.09	0.750			
0.5673	36304.68	3.6870	3.6868	2.4415	24.74	-0.10	0.750			
0.5745	36767.23	3.6840	3.6842	2.5136	24.73	-0.11	0.750			
0.5822	37263.55	3.6810	3.6811	2.5478	24.72	-0.12	0.750			
0.5900	37760.34	3.6780	3.6781	2.5537	24.72	-0.12	0.750			
0.5979	38264.94	3.6750	3.6745	2.5403	24.72	-0.12	0.750			
0.6054	38745.92	3.6720	3.6719	2.4242	24.71	-0.13	0.750			
0.6125	39202.42	3.6690	3.6690	2.2813	24.71	-0.13	0.750			
0.6192	39629.72	3.6660	3.6659	2.1529	24.71	-0.13	0.750			
0.6254	40028.48	3.6630	3.6628	1.9910	24.72	-0.12	0.750			
0.6311	40393.35	3.6600	3.6598	1.8612	24.72	-0.12	0.750			
0.6365	40736.60	3.6570	3.6568	1.7324	24.73	-0.11	0.750			
0.6415	41053.14	3.6540	3.6536	1.5885	24.74	-0.10	0.750			
0.6460	41345.60	3.6510	3.6512	1.4739	24.75	-0.09	0.750			
0.6503	41616.76	3.6480	3.6482	1.3692	24.75	-0.09	0.750			
0.6542	41868.81	3.6450	3.6446	1.2724	24.76	-0.08	0.750			
0.6578	42102.03	3.6420	3.6421	1.1835	24.76	-0.08	0.750			
0.6613	42320.37	3.6390	3.6391	1.1199	24.77	-0.07	0.750			
0.6645	42528.33	3.6360	3.6359	1.0677	24.77	-0.07	0.750			
0.6676	42725.18	3.6330	3.6330	1.0154	24.77	-0.07	0.750			
0.6706	42917.53	3.6300	3.6300	0.9617	24.78	-0.06	0.750			
0.6734	43096.64	3.6270	3.6270	0.9344	24.79	-0.05	0.750			
0.6761	43272.32	3.6240	3.6240	0.9048	24.79	-0.05	0.750			
0.6788	43441.48	3.6210	3.6207	0.8707	24.80	-0.04	0.750			
0.6814	43606.72	3.6180	3.6181	0.8343	24.81	-0.03	0.750			
0.6838	43765.26	3.6150	3.6151	0.7926	24.81	-0.03	0.750			
0.6862	43916.44	3.6120	3.6120	0.7349	24.82	-0.02	0.750			
0.6884	44054.99	3.6090	3.6091	0.6923	24.83	-0.01	0.750			
0.6903	44177.72	3.6060	3.6061	0.6320	24.84	-0.00	0.750			
0.6921	44294.22	3.6030	3.6025	0.5801	24.84	0.00	0.750			
0.6937	44399.99	3.6000	3.6002	0.5293	24.85	0.01	0.750			
0.6953	44498.92	3.5970	3.5971	0.4702	24.85	0.01	0.750			
0.6967	44586.32	3.5940	3.5940	0.4239	24.86	0.02	0.750			
0.6978	44658.66	3.5910	3.5911	0.3663	24.86	0.02	0.750			
0.6988	44723.94	3.5880	3.5882	0.3163	24.86	0.02	0.750			
0.6997	44779.63	3.5850	3.5856	0.2692	24.87	0.03	0.750			
0.7004	44826.76	3.5820	3.5824	0.2245	24.87	0.03	0.750			
0.7010	44865.77	3.5790	3.5796	0.1805	24.87	0.03	0.750			
0.7016	44900.08	3.5760	3.5764	0.1222	24.87	0.03	0.750			
0.7018	44918.10	3.5730	3.5742	0.0240	24.87	0.03	0.751			
