Ah_balance (normalized)	Ah_balance (mAh)	Voltage - fit (V)	Voltage -  interpolate (V)	dQ/dV (1/V)	Temperature (°C)	Temperature - diff (°C)	Current (C)	R_DC 0ms (mOhm)	R_DC 50ms (mOhm)	R_DC 50 ms PEC (mOhm)
0.0472	3021.97	4.1990	4.1990	0.7304	25.53	0.47	0.750			
0.0494	3163.64	4.1960	4.1959	0.7427	25.53	0.47	0.750			
0.0517	3308.62	4.1930	4.1930	0.7517	25.53	0.47	0.750			
0.0540	3455.67	4.1900	4.1899	0.7479	25.53	0.47	0.750			
0.0562	3597.82	4.1870	4.1870	0.7520	25.54	0.48	0.750			
0.0585	3740.86	4.1840	4.1841	0.7511	25.54	0.48	0.750			
0.0607	3885.42	4.1810	4.1810	0.7531	25.54	0.48	0.750			
0.0630	4030.41	4.1780	4.1779	0.7501	25.54	0.48	0.750			
0.0652	4174.09	4.1750	4.1751	0.7540	25.54	0.48	0.750			
0.0675	4322.11	4.1720	4.1720	0.7483	25.54	0.48	0.750			
0.0697	4463.82	4.1690	4.1690	0.7506	25.54	0.48	0.750			
0.0720	4605.40	4.1660	4.1661	0.7492	25.54	0.48	0.750			
0.0742	4749.05	4.1630	4.1629	0.7542	25.54	0.48	0.750			
0.0765	4894.87	4.1600	4.1600	0.7599	25.54	0.48	0.750			
0.0788	5043.18	4.1570	4.1571	0.7658	25.54	0.48	0.750			
0.0811	5190.08	4.1540	4.1540	0.7663	25.55	0.49	0.750			
0.0835	5341.42	4.1510	4.1510	0.7726	25.55	0.49	0.750			
0.0857	5485.61	4.1480	4.1480	0.7640	25.55	0.49	0.750			
0.0880	5632.17	4.1450	4.1450	0.7663	25.55	0.49	0.750			
0.0903	5779.41	4.1420	4.1420	0.7690	25.55	0.49	0.750			
0.0926	5927.88	4.1390	4.1389	0.7666	25.55	0.49	0.750			
0.0949	6074.44	4.1360	4.1361	0.7697	25.55	0.49	0.750			
0.0972	6221.64	4.1330	4.1331	0.7743	25.55	0.49	0.750			
0.0995	6370.12	4.1300	4.1297	0.7821	25.55	0.49	0.750			
0.1019	6521.12	4.1270	4.1270	0.7832	25.55	0.49	0.750			
0.1043	6676.46	4.1240	4.1240	0.7688	25.56	0.50	0.750			
0.1066	6823.84	4.1210	4.1211	0.7776	25.56	0.50	0.750			
0.1089	6969.70	4.1180	4.1182	0.7755	25.56	0.50	0.750			
0.1112	7119.23	4.1150	4.1151	0.7802	25.57	0.51	0.750			
0.1135	7267.01	4.1120	4.1122	0.7805	25.57	0.51	0.750			
0.1159	7417.84	4.1090	4.1091	0.7864	25.57	0.51	0.750			
0.1183	7572.05	4.1060	4.1061	0.7960	25.57	0.51	0.750			
0.1207	7727.02	4.1030	4.1029	0.7972	25.57	0.51	0.750			
0.1231	7878.89	4.1000	4.1001	0.7917	25.57	0.51	0.750			
0.1255	8030.87	4.0970	4.0970	0.7934	25.57	0.51	0.750			
0.1279	8183.52	4.0940	4.0941	0.7968	25.57	0.51	0.750			
0.1303	8336.28	4.0910	4.0909	0.7944	25.57	0.51	0.750			
0.1326	8487.60	4.0880	4.0881	0.7970	25.57	0.51	0.750			
0.1350	8641.25	4.0850	4.0850	0.7971	25.57	0.51	0.750			
0.1374	8794.62	4.0820	4.0820	0.7982	25.57	0.51	0.750			
0.1398	8947.75	4.0790	4.0791	0.8033	25.57	0.51	0.750			
0.1423	9104.84	4.0760	4.0760	0.7888	25.58	0.52	0.750			
0.1446	9254.51	4.0730	4.0730	0.8035	25.58	0.52	0.750			
0.1470	9407.42	4.0700	4.0701	0.8048	25.59	0.53	0.750			
0.1494	9563.48	4.0670	4.0665	0.8105	25.59	0.53	0.750			
0.1519	9720.45	4.0640	4.0641	0.8173	25.59	0.53	0.750			
0.1544	9878.54	4.0610	4.0611	0.8205	25.59	0.53	0.750			
0.1568	10036.56	4.0580	4.0581	0.8237	25.59	0.53	0.750			
0.1593	10195.23	4.0550	4.0550	0.8203	25.59	0.53	0.750			
0.1618	10353.36	4.0520	4.0520	0.8274	25.59	0.53	0.750			
0.1643	10513.44	4.0490	4.0490	0.8289	25.59	0.53	0.750			
0.1668	10676.22	4.0460	4.0459	0.8145	25.59	0.53	0.750			
0.1692	10831.16	4.0430	4.0431	0.8246	25.60	0.54	0.750			
0.1717	10987.62	4.0400	4.0402	0.8315	25.60	0.54	0.750			
0.1742	11146.61	4.0370	4.0367	0.8333	25.60	0.54	0.750			
0.1767	11307.26	4.0340	4.0342	0.8367	25.60	0.54	0.750			
0.1792	11467.85	4.0310	4.0311	0.8423	25.60	0.54	0.750			
0.1817	11628.39	4.0280	4.0282	0.8408	25.61	0.55	0.750			
0.1843	11792.17	4.0250	4.0250	0.8496	25.61	0.55	0.750			
0.1867	11950.47	4.0220	4.0217	0.8432	25.61	0.55	0.750			
0.1893	12113.34	4.0190	4.0191	0.8532	25.61	0.55	0.750			
0.1919	12279.61	4.0160	4.0162	0.8589	25.61	0.55	0.750			
0.1945	12446.38	4.0130	4.0130	0.8647	25.62	0.56	0.750			
0.1972	12617.84	4.0100	4.0099	0.8733	25.62	0.56	0.750			
0.1997	12778.08	4.0070	4.0069	0.8647	25.62	0.56	0.750			
0.2023	12945.10	4.0040	4.0041	0.8669	25.62	0.56	0.750			
0.2049	13111.48	4.0010	4.0010	0.8633	25.62	0.56	0.750			
0.2074	13276.22	3.9980	3.9980	0.8639	25.63	0.57	0.750			
0.2100	13440.25	3.9950	3.9952	0.8671	25.63	0.57	0.750			
0.2126	13606.88	3.9920	3.9916	0.8702	25.63	0.57	0.750			
0.2153	13777.45	3.9890	3.9891	0.8662	25.63	0.57	0.750			
0.2179	13942.56	3.9860	3.9860	0.8735	25.63	0.57	0.750			
0.2205	14112.78	3.9830	3.9832	0.8824	25.63	0.57	0.750			
0.2231	14279.61	3.9800	3.9800	0.8774	25.63	0.57	0.750			
0.2258	14449.95	3.9770	3.9772	0.8828	25.63	0.57	0.750			
0.2284	14619.94	3.9740	3.9740	0.8860	25.64	0.58	0.750			
0.2311	14792.40	3.9710	3.9711	0.8919	25.64	0.58	0.750			
0.2338	14963.26	3.9680	3.9680	0.8956	25.64	0.58	0.750			
0.2365	15133.15	3.9650	3.9649	0.8882	25.65	0.59	0.750			
0.2391	15304.74	3.9620	3.9620	0.8927	25.65	0.59	0.750			
0.2418	15476.20	3.9590	3.9590	0.8866	25.65	0.59	0.750			
0.2445	15647.09	3.9560	3.9560	0.8908	25.65	0.59	0.750			
0.2471	15815.30	3.9530	3.9531	0.8927	25.65	0.59	0.750			
0.2498	15987.55	3.9500	3.9494	0.9004	25.65	0.59	0.750			
0.2525	16162.89	3.9470	3.9471	0.8916	25.65	0.59	0.750			
0.2552	16334.19	3.9440	3.9441	0.8994	25.65	0.59	0.750			
0.2579	16508.72	3.9410	3.9411	0.9033	25.65	0.59	0.750			
0.2606	16680.80	3.9380	3.9381	0.8951	25.65	0.59	0.750			
0.2633	16852.24	3.9350	3.9350	0.8953	25.65	0.59	0.750			
0.2660	17023.64	3.9320	3.9322	0.8967	25.65	0.59	0.750			
0.2687	17197.25	3.9290	3.9291	0.9051	25.65	0.59	0.750			
0.2715	17373.70	3.9260	3.9259	0.9067	25.65	0.59	0.750			
0.2742	17546.44	3.9230	3.9229	0.8989	25.65	0.59	0.750			
0.2769	17721.79	3.9200	3.9200	0.8929	25.65	0.59	0.750			
0.2795	17890.84	3.9170	3.9170	0.8941	25.65	0.59	0.750			
0.2822	18061.54	3.9140	3.9141	0.8954	25.65	0.59	0.750			
0.2849	18232.23	3.9110	3.9110	0.8992	25.65	0.59	0.750			
0.2876	18403.71	3.9080	3.9079	0.9016	25.65	0.59	0.750			
0.2904	18583.56	3.9050	3.9050	0.8906	25.64	0.58	0.750			
0.2930	18753.28	3.9020	3.9021	0.8986	25.64	0.58	0.750			
0.2957	18924.56	3.8990	3.8991	0.9016	25.64	0.58	0.750			
0.2984	19094.73	3.8960	3.8962	0.9010	25.63	0.57	0.750			
0.3010	19266.53	3.8930	3.8930	0.9072	25.63	0.57	0.750			
0.3038	19441.96	3.8900	3.8902	0.9133	25.63	0.57	0.750			
0.3066	19620.82	3.8870	3.8870	0.9191	25.62	0.56	0.750			
0.3094	19800.63	3.8840	3.8840	0.9184	25.62	0.56	0.750			
0.3121	19974.86	3.8810	3.8809	0.9069	25.62	0.56	0.750			
0.3148	20149.47	3.8780	3.8781	0.9034	25.61	0.55	0.750			
0.3175	20321.47	3.8750	3.8750	0.9095	25.61	0.55	0.750			
0.3202	20495.52	3.8720	3.8720	0.9087	25.60	0.54	0.750			
0.3230	20670.22	3.8690	3.8690	0.9130	25.59	0.53	0.750			
0.3257	20846.13	3.8660	3.8661	0.9190	25.59	0.53	0.750			
0.3285	21025.15	3.8630	3.8630	0.9065	25.58	0.52	0.750			
0.3312	21196.89	3.8600	3.8600	0.9202	25.57	0.51	0.750			
0.3340	21374.48	3.8570	3.8571	0.9233	25.56	0.50	0.750			
0.3367	21550.59	3.8540	3.8537	0.9209	25.55	0.49	0.750			
0.3395	21728.77	3.8510	3.8511	0.9308	25.55	0.49	0.750			
0.3423	21908.60	3.8480	3.8482	0.9276	25.54	0.48	0.750			
0.3451	22088.86	3.8450	3.8449	0.9155	25.54	0.48	0.750			
0.3478	22258.32	3.8420	3.8422	0.9197	25.53	0.47	0.750			
0.3506	22435.27	3.8390	3.8391	0.9356	25.53	0.47	0.750			
0.3534	22615.60	3.8360	3.8363	0.9409	25.52	0.46	0.750	0.297	0.412	
0.3562	22796.52	3.8330	3.8333	0.9585	25.50	0.44	0.750			
0.3591	22981.59	3.8300	3.8303	0.9776	25.49	0.43	0.750			
0.3621	23176.74	3.8270	3.8264	0.9928	25.48	0.42	0.750			
0.3651	23367.86	3.8240	3.8241	0.9741	25.47	0.41	0.750			
0.3681	23555.51	3.8210	3.8211	0.9854	25.47	0.41	0.750			
0.3711	23747.21	3.8180	3.8181	0.9998	25.46	0.40	0.750			
0.3740	23937.49	3.8150	3.8147	0.9943	25.45	0.39	0.750			
0.3770	24129.57	3.8120	3.8121	1.0034	25.44	0.38	0.750			
0.3800	24322.78	3.8090	3.8090	1.0115	25.43	0.37	0.750			
0.3831	24519.24	3.8060	3.8061	1.0240	25.42	0.36	0.750			
0.3862	24719.31	3.8030	3.8029	1.0413	25.41	0.35	0.750			
0.3894	24919.28	3.8000	3.8000	1.0365	25.40	0.34	0.750			
0.3924	25116.22	3.7970	3.7970	1.0540	25.39	0.33	0.750			
0.3956	25318.18	3.7940	3.7942	1.0745	25.38	0.32	0.750			
0.3989	25526.51	3.7910	3.7907	1.0929	25.37	0.31	0.750			
0.4022	25738.49	3.7880	3.7881	1.0967	25.36	0.30	0.750			
0.4054	25948.58	3.7850	3.7851	1.1153	25.35	0.29	0.750			
0.4088	26163.02	3.7820	3.7822	1.1401	25.33	0.27	0.750			
0.4123	26386.88	3.7790	3.7781	1.1622	25.32	0.26	0.750			
0.4158	26608.02	3.7760	3.7763	1.1783	25.31	0.25	0.750			
0.4193	26837.02	3.7730	3.7732	1.2065	25.30	0.24	0.750			
0.4230	27074.98	3.7700	3.7700	1.2404	25.29	0.23	0.750			
0.4269	27319.80	3.7670	3.7669	1.2549	25.27	0.21	0.750			
0.4305	27550.23	3.7640	3.7641	1.2627	25.27	0.21	0.750			
0.4343	27794.51	3.7610	3.7611	1.2921	25.26	0.20	0.750			
0.4382	28047.24	3.7580	3.7582	1.2987	25.25	0.19	0.750			
0.4421	28293.47	3.7550	3.7552	1.3380	25.23	0.17	0.750			
0.4461	28550.44	3.7520	3.7522	1.3745	25.22	0.16	0.750			
0.4504	28828.47	3.7490	3.7489	1.3880	25.21	0.15	0.750			
0.4547	29098.38	3.7460	3.7461	1.3942	25.19	0.13	0.750			
0.4589	29367.45	3.7430	3.7433	1.4403	25.18	0.12	0.750			
0.4634	29656.79	3.7400	3.7402	1.4705	25.17	0.11	0.750			
0.4678	29940.16	3.7370	3.7368	1.4837	25.15	0.09	0.750			
0.4722	30223.45	3.7340	3.7343	1.5468	25.13	0.07	0.750			
0.4770	30529.10	3.7310	3.7315	1.5948	25.12	0.06	0.750			
0.4819	30838.97	3.7280	3.7283	1.6735	25.11	0.05	0.750			
0.4869	31162.59	3.7250	3.7246	1.7278	25.10	0.04	0.750			
0.4922	31499.21	3.7220	3.7217	1.7807	25.08	0.02	0.750			
0.4977	31851.04	3.7190	3.7189	1.8546	25.07	0.01	0.750			
0.5034	32217.00	3.7160	3.7160	1.8835	25.05	-0.01	0.750			
0.5090	32577.72	3.7130	3.7132	1.9175	25.03	-0.03	0.750			
0.5147	32943.07	3.7100	3.7103	1.9595	25.02	-0.04	0.750			
0.5206	33320.20	3.7070	3.7066	2.0088	25.01	-0.05	0.750			
0.5266	33701.91	3.7040	3.7044	2.0471	24.99	-0.07	0.750			
0.5329	34107.36	3.7010	3.7012	2.1992	24.97	-0.09	0.750			
0.5396	34534.46	3.6980	3.6978	2.3290	24.96	-0.10	0.750			
0.5464	34969.65	3.6950	3.6954	2.3465	24.95	-0.11	0.750			
0.5535	35424.88	3.6920	3.6917	2.3519	24.93	-0.13	0.750			
0.5604	35867.25	3.6890	3.6896	2.4271	24.92	-0.14	0.750			
0.5676	36328.35	3.6860	3.6858	2.5437	24.92	-0.14	0.750			
0.5750	36800.27	3.6830	3.6833	2.5710	24.91	-0.15	0.750			
0.5829	37305.27	3.6800	3.6800	2.6628	24.90	-0.16	0.750			
0.5905	37791.66	3.6770	3.6767	2.7168	24.89	-0.17	0.750			
0.5985	38304.98	3.6740	3.6740	2.4873	24.88	-0.18	0.750			
0.6060	38783.69	3.6710	3.6712	2.6022	24.88	-0.18	0.750			
0.6135	39266.00	3.6680	3.6676	2.4916	24.88	-0.18	0.750			
0.6205	39711.71	3.6650	3.6650	2.2335	24.89	-0.17	0.750			
0.6269	40121.09	3.6620	3.6622	2.0527	24.90	-0.16	0.750			
0.6330	40513.02	3.6590	3.6586	1.9701	24.91	-0.15	0.750			
0.6386	40868.19	3.6560	3.6561	1.8395	24.92	-0.14	0.750			
0.6435	41186.76	3.6530	3.6533	1.6990	24.93	-0.13	0.750			
0.6483	41490.49	3.6500	3.6502	1.5741	24.94	-0.12	0.750			
0.6529	41787.24	3.6470	3.6459	1.4585	24.95	-0.11	0.750			
0.6572	42061.61	3.6440	3.6446	1.3609	24.95	-0.11	0.750			
0.6612	42315.48	3.6410	3.6410	1.2618	24.96	-0.10	0.750			
0.6648	42550.39	3.6380	3.6380	1.1754	24.96	-0.10	0.750			
0.6683	42771.75	3.6350	3.6348	1.1127	24.97	-0.09	0.750			
0.6711	42949.54	3.6320	3.6321	1.0191	24.97	-0.09	0.750			
0.6741	43142.83	3.6290	3.6286	0.9891	24.98	-0.08	0.750			
0.6770	43325.20	3.6260	3.6260	0.9412	24.99	-0.07	0.750			
0.6797	43503.21	3.6230	3.6230	0.9087	25.00	-0.06	0.750			
0.6824	43675.90	3.6200	3.6201	0.8740	25.00	-0.06	0.750			
0.6851	43843.49	3.6170	3.6170	0.8382	25.01	-0.05	0.750			
0.6875	43999.00	3.6140	3.6139	0.7868	25.02	-0.04	0.750			
0.6898	44146.06	3.6110	3.6110	0.7383	25.03	-0.03	0.750			
0.6919	44284.35	3.6080	3.6081	0.6883	25.04	-0.02	0.750			
0.6940	44414.01	3.6050	3.6049	0.6294	25.04	-0.02	0.750			
0.6958	44529.17	3.6020	3.6020	0.5721	25.05	-0.01	0.750			
0.6974	44631.80	3.5990	3.5990	0.5203	25.05	-0.01	0.750			
0.6988	44724.98	3.5960	3.5962	0.4681	25.06	-0.00	0.750			
0.7002	44809.76	3.5930	3.5933	0.4212	25.06	0.00	0.750			
0.7013	44885.49	3.5900	3.5901	0.3734	25.07	0.01	0.750			
0.7024	44954.48	3.5870	3.5870	0.3235	25.07	0.01	0.750			
0.7033	45012.47	3.5840	3.5840	0.2749	25.07	0.01	0.750			
0.7041	45061.73	3.5810	3.5810	0.2222	25.07	0.01	0.750			
0.7047	45099.57	3.5780	3.5782	0.1687	25.08	0.02	0.750			
0.7051	45127.83	3.5750	3.5753	0.1107	25.08	0.02	0.750			
0.7054	45143.50	3.5720	3.5726	0.0503	25.08	0.02	0.750			
