Ah_balance (normalized)	Ah_balance (mAh)	Voltage - fit (V)	Voltage -  interpolate (V)	dQ/dV (1/V)	Temperature (°C)	Temperature - diff (°C)	Current (C)	R_DC 0ms (mOhm)	R_DC 50ms (mOhm)	R_DC 50 ms PEC (mOhm)
0.0005	29.41	4.1600	4.1598	-0.1365	25.26	0.00	-0.750			
0.0009	59.97	4.1570	4.1572	-0.1794	25.26	-0.00	-0.750			
0.0015	98.85	4.1540	4.1540	-0.2196	25.26	-0.00	-0.750			
0.0023	144.07	4.1510	4.1510	-0.2617	25.26	-0.00	-0.750			
0.0031	199.16	4.1480	4.1481	-0.3002	25.25	-0.01	-0.750			
0.0041	260.75	4.1450	4.1449	-0.3405	25.25	-0.01	-0.750			
0.0052	330.76	4.1420	4.1420	-0.3774	25.25	-0.01	-0.750			
0.0064	406.90	4.1390	4.1392	-0.4131	25.24	-0.02	-0.750			
0.0077	490.49	4.1360	4.1358	-0.4464	25.24	-0.02	-0.750			
0.0091	581.22	4.1330	4.1330	-0.4788	25.23	-0.03	-0.750			
0.0106	677.88	4.1300	4.1298	-0.4993	25.23	-0.03	-0.750			
0.0121	775.66	4.1270	4.1270	-0.5265	25.22	-0.04	-0.750			
0.0137	879.13	4.1240	4.1243	-0.5521	25.22	-0.04	-0.750			
0.0154	988.25	4.1210	4.1209	-0.5710	25.21	-0.05	-0.750			
0.0172	1099.11	4.1180	4.1179	-0.5892	25.21	-0.05	-0.750			
0.0189	1212.49	4.1150	4.1150	-0.6051	25.20	-0.06	-0.750			
0.0208	1333.54	4.1120	4.1122	-0.6260	25.20	-0.06	-0.750			
0.0228	1457.85	4.1090	4.1087	-0.6414	25.19	-0.07	-0.750			
0.0247	1579.87	4.1060	4.1060	-0.6426	25.18	-0.08	-0.750			
0.0266	1702.84	4.1030	4.1031	-0.6550	25.18	-0.08	-0.750			
0.0286	1830.65	4.1000	4.1001	-0.6678	25.18	-0.08	-0.750			
0.0306	1959.82	4.0970	4.0969	-0.6868	25.18	-0.08	-0.750			
0.0327	2094.49	4.0940	4.0939	-0.6843	25.17	-0.09	-0.750			
0.0348	2227.26	4.0910	4.0910	-0.6891	25.17	-0.09	-0.750			
0.0369	2360.97	4.0880	4.0880	-0.6953	25.17	-0.09	-0.750			
0.0390	2494.74	4.0850	4.0850	-0.6953	25.17	-0.09	-0.750			
0.0410	2626.26	4.0820	4.0818	-0.6928	25.17	-0.09	-0.750			
0.0431	2759.33	4.0790	4.0790	-0.6989	25.16	-0.10	-0.750			
0.0452	2893.34	4.0760	4.0760	-0.6967	25.16	-0.10	-0.750			
0.0473	3030.40	4.0730	4.0730	-0.7073	25.16	-0.10	-0.750			
0.0495	3165.07	4.0700	4.0699	-0.7104	25.15	-0.11	-0.750			
0.0516	3301.25	4.0670	4.0672	-0.7170	25.15	-0.11	-0.750			
0.0537	3438.08	4.0640	4.0638	-0.7289	25.15	-0.11	-0.750			
0.0559	3579.43	4.0610	4.0610	-0.7413	25.15	-0.11	-0.750			
0.0582	3724.21	4.0580	4.0579	-0.7501	25.14	-0.12	-0.750			
0.0605	3872.51	4.0550	4.0550	-0.7518	25.14	-0.12	-0.750			
0.0628	4018.41	4.0520	4.0520	-0.7534	25.14	-0.12	-0.750			
0.0650	4162.66	4.0490	4.0490	-0.7508	25.14	-0.12	-0.750			
0.0672	4302.00	4.0460	4.0460	-0.7585	25.14	-0.12	-0.750			
0.0695	4449.47	4.0430	4.0429	-0.7498	25.14	-0.12	-0.750			
0.0718	4593.70	4.0400	4.0400	-0.7508	25.14	-0.12	-0.750			
0.0741	4740.54	4.0370	4.0368	-0.7525	25.14	-0.12	-0.750			
0.0763	4885.04	4.0340	4.0341	-0.7499	25.14	-0.12	-0.750			
0.0785	5026.60	4.0310	4.0309	-0.7487	25.14	-0.12	-0.750			
0.0808	5170.20	4.0280	4.0279	-0.7521	25.14	-0.12	-0.750			
0.0830	5314.32	4.0250	4.0250	-0.7622	25.14	-0.12	-0.750			
0.0853	5461.78	4.0220	4.0220	-0.7628	25.14	-0.12	-0.750			
0.0876	5608.00	4.0190	4.0191	-0.7621	25.14	-0.12	-0.750			
0.0899	5755.49	4.0160	4.0159	-0.7616	25.14	-0.12	-0.750			
0.0922	5899.80	4.0130	4.0130	-0.7619	25.14	-0.12	-0.750			
0.0945	6045.21	4.0100	4.0100	-0.7613	25.14	-0.12	-0.750			
0.0967	6191.00	4.0070	4.0070	-0.7646	25.14	-0.12	-0.750			
0.0991	6340.09	4.0040	4.0038	-0.7674	25.14	-0.12	-0.750			
0.1014	6487.60	4.0010	4.0011	-0.7726	25.14	-0.12	-0.750			
0.1037	6636.69	3.9980	3.9981	-0.7736	25.14	-0.12	-0.750			
0.1060	6785.47	3.9950	3.9949	-0.7890	25.14	-0.12	-0.750			
0.1084	6940.24	3.9920	3.9919	-0.7829	25.15	-0.11	-0.750			
0.1108	7092.05	3.9890	3.9888	-0.7837	25.15	-0.11	-0.750			
0.1131	7241.20	3.9860	3.9866	-0.7842	25.15	-0.11	-0.750			
0.1155	7393.39	3.9830	3.9830	-0.7836	25.15	-0.11	-0.750			
0.1178	7541.77	3.9800	3.9798	-0.7836	25.15	-0.11	-0.750			
0.1202	7689.87	3.9770	3.9770	-0.7812	25.16	-0.10	-0.750			
0.1225	7842.21	3.9740	3.9740	-0.7909	25.16	-0.10	-0.750			
0.1249	7994.38	3.9710	3.9710	-0.7957	25.16	-0.10	-0.750			
0.1273	8148.39	3.9680	3.9679	-0.7896	25.16	-0.10	-0.750			
0.1297	8298.00	3.9650	3.9650	-0.7926	25.16	-0.10	-0.750			
0.1320	8449.81	3.9620	3.9620	-0.7950	25.16	-0.10	-0.750			
0.1344	8601.71	3.9590	3.9589	-0.7970	25.17	-0.09	-0.750			
0.1368	8757.15	3.9560	3.9559	-0.7998	25.17	-0.09	-0.750			
0.1392	8911.06	3.9530	3.9530	-0.7991	25.17	-0.09	-0.750			
0.1416	9061.90	3.9500	3.9501	-0.8115	25.17	-0.09	-0.750			
0.1441	9221.95	3.9470	3.9470	-0.8145	25.17	-0.09	-0.750			
0.1465	9377.25	3.9440	3.9439	-0.8074	25.17	-0.09	-0.750			
0.1490	9533.71	3.9410	3.9407	-0.8085	25.17	-0.09	-0.750			
0.1514	9689.23	3.9380	3.9381	-0.8077	25.17	-0.09	-0.750			
0.1538	9842.66	3.9350	3.9350	-0.8114	25.17	-0.09	-0.750			
0.1562	9997.32	3.9320	3.9319	-0.8078	25.17	-0.09	-0.750			
0.1586	10148.30	3.9290	3.9291	-0.7963	25.18	-0.08	-0.750			
0.1611	10309.13	3.9260	3.9259	-0.8110	25.18	-0.08	-0.750			
0.1635	10465.13	3.9230	3.9233	-0.8156	25.18	-0.08	-0.750			
0.1660	10621.20	3.9200	3.9200	-0.8151	25.18	-0.08	-0.750			
0.1684	10776.29	3.9170	3.9169	-0.8187	25.18	-0.08	-0.750			
0.1709	10934.45	3.9140	3.9140	-0.8169	25.19	-0.07	-0.750			
0.1733	11092.64	3.9110	3.9110	-0.8202	25.19	-0.07	-0.750			
0.1758	11249.95	3.9080	3.9082	-0.8209	25.19	-0.07	-0.750			
0.1783	11408.67	3.9050	3.9050	-0.8207	25.19	-0.07	-0.750			
0.1807	11565.98	3.9020	3.9019	-0.8244	25.19	-0.07	-0.750			
0.1832	11725.70	3.8990	3.8990	-0.8210	25.18	-0.08	-0.750			
0.1857	11884.19	3.8960	3.8958	-0.8214	25.18	-0.08	-0.750			
0.1881	12041.59	3.8930	3.8936	-0.8230	25.18	-0.08	-0.750			
0.1906	12198.21	3.8900	3.8899	-0.8189	25.18	-0.08	-0.750			
0.1930	12353.86	3.8870	3.8869	-0.8219	25.19	-0.07	-0.750			
0.1955	12512.94	3.8840	3.8840	-0.8237	25.19	-0.07	-0.750			
0.1980	12674.43	3.8810	3.8809	-0.8278	25.20	-0.06	-0.750			
0.2005	12831.85	3.8780	3.8783	-0.8173	25.20	-0.06	-0.750			
0.2029	12987.82	3.8750	3.8749	-0.8115	25.20	-0.06	-0.750			
0.2053	13141.43	3.8720	3.8719	-0.8106	25.21	-0.05	-0.750			
0.2077	13295.18	3.8690	3.8690	-0.8075	25.21	-0.05	-0.750			
0.2102	13450.44	3.8660	3.8659	-0.8054	25.21	-0.05	-0.750			
0.2126	13608.03	3.8630	3.8631	-0.8104	25.22	-0.04	-0.750			
0.2151	13764.51	3.8600	3.8599	-0.8060	25.22	-0.04	-0.750			
0.2175	13918.77	3.8570	3.8570	-0.8114	25.22	-0.04	-0.750			
0.2199	14075.15	3.8540	3.8539	-0.8066	25.22	-0.04	-0.750			
0.2223	14228.49	3.8510	3.8509	-0.7986	25.22	-0.04	-0.750			
0.2248	14384.22	3.8480	3.8480	-0.7956	25.22	-0.04	-0.750			
0.2271	14535.47	3.8450	3.8449	-0.7903	25.22	-0.04	-0.750			
0.2295	14685.42	3.8420	3.8419	-0.7845	25.23	-0.03	-0.750			
0.2318	14836.11	3.8390	3.8391	-0.7740	25.23	-0.03	-0.750			
0.2341	14979.49	3.8360	3.8360	-0.7668	25.23	-0.03	-0.750			
0.2364	15131.12	3.8330	3.8332	-0.7747	25.24	-0.02	-0.750			
0.2387	15278.83	3.8300	3.8301	-0.7751	25.24	-0.02	-0.750			
0.2411	15428.15	3.8270	3.8269	-0.7740	25.24	-0.02	-0.750			
0.2434	15576.57	3.8240	3.8240	-0.7715	25.24	-0.02	-0.750			
0.2457	15724.71	3.8210	3.8210	-0.7706	25.25	-0.01	-0.750			
0.2480	15874.51	3.8180	3.8180	-0.7700	25.25	-0.01	-0.750			
0.2503	16019.70	3.8150	3.8150	-0.7639	25.25	-0.01	-0.750			
0.2526	16165.25	3.8120	3.8120	-0.7624	25.25	-0.01	-0.750			
0.2548	16309.84	3.8090	3.8090	-0.7692	25.25	-0.01	-0.750			
0.2572	16459.13	3.8060	3.8059	-0.7651	25.25	-0.01	-0.750			
0.2595	16606.45	3.8030	3.8030	-0.7590	25.25	-0.01	-0.750			
0.2618	16753.49	3.8000	3.7999	-0.7563	25.25	-0.01	-0.750			
0.2640	16897.73	3.7970	3.7969	-0.7530	25.25	-0.01	-0.750			
0.2662	17039.39	3.7940	3.7940	-0.7538	25.25	-0.01	-0.750			
0.2685	17183.55	3.7910	3.7910	-0.7619	25.25	-0.01	-0.750			
0.2708	17329.08	3.7880	3.7879	-0.7630	25.25	-0.01	-0.750			
0.2731	17479.63	3.7850	3.7850	-0.7718	25.25	-0.01	-0.750			
0.2755	17629.27	3.7820	3.7822	-0.7766	25.25	-0.01	-0.750			
0.2778	17777.61	3.7790	3.7789	-0.7768	25.25	-0.01	-0.750			
0.2801	17925.38	3.7760	3.7759	-0.7805	25.26	-0.00	-0.750			
0.2824	18075.13	3.7730	3.7730	-0.7824	25.26	0.00	-0.750			
0.2848	18224.24	3.7700	3.7699	-0.7875	25.26	0.00	-0.750			
0.2872	18380.09	3.7670	3.7671	-0.7912	25.27	0.01	-0.750			
0.2895	18530.38	3.7640	3.7640	-0.7973	25.27	0.01	-0.750			
0.2919	18680.70	3.7610	3.7611	-0.8143	25.27	0.01	-0.750			
0.2944	18840.40	3.7580	3.7578	-0.8192	25.27	0.01	-0.750			
0.2968	18997.41	3.7550	3.7549	-0.8252	25.27	0.01	-0.750			
0.2994	19158.77	3.7520	3.7519	-0.8325	25.27	0.01	-0.750			
0.3019	19320.92	3.7490	3.7488	-0.8362	25.27	0.01	-0.750			
0.3044	19481.82	3.7460	3.7459	-0.8499	25.26	0.00	-0.750			
0.3069	19641.44	3.7430	3.7430	-0.8472	25.26	0.00	-0.750			
0.3094	19803.71	3.7400	3.7399	-0.8516	25.26	-0.00	-0.750			
0.3121	19972.60	3.7370	3.7370	-0.8724	25.25	-0.01	-0.750			
0.3147	20140.98	3.7340	3.7339	-0.8768	25.25	-0.01	-0.750			
0.3173	20309.80	3.7310	3.7309	-0.8869	25.25	-0.01	-0.750			
0.3200	20479.94	3.7280	3.7281	-0.8958	25.24	-0.02	-0.750			
0.3227	20650.36	3.7250	3.7250	-0.8987	25.24	-0.02	-0.750			
0.3254	20827.30	3.7220	3.7219	-0.9161	25.24	-0.02	-0.750			
0.3282	21002.36	3.7190	3.7191	-0.9415	25.24	-0.02	-0.750			
0.3310	21184.79	3.7160	3.7159	-0.9572	25.23	-0.03	-0.750			
0.3340	21376.97	3.7130	3.7128	-0.9572	25.23	-0.03	-0.750			
0.3369	21559.58	3.7100	3.7097	-0.9650	25.22	-0.04	-0.750			
0.3398	21744.49	3.7070	3.7071	-0.9874	25.22	-0.04	-0.750			
0.3427	21935.24	3.7040	3.7038	-0.9995	25.22	-0.04	-0.750			
0.3457	22124.13	3.7010	3.7007	-1.0058	25.21	-0.05	-0.750			
0.3487	22315.61	3.6980	3.6983	-1.0122	25.21	-0.05	-0.750	0.400	0.541	
0.3519	22519.56	3.6950	3.6951	-1.0553	25.21	-0.05	-0.750			
0.3551	22727.98	3.6920	3.6919	-1.0754	25.20	-0.06	-0.750			
0.3583	22932.98	3.6890	3.6889	-1.0731	25.19	-0.07	-0.750			
0.3615	23138.00	3.6860	3.6860	-1.0908	25.18	-0.08	-0.750			
0.3649	23351.00	3.6830	3.6832	-1.1298	25.18	-0.08	-0.750			
0.3683	23573.67	3.6800	3.6797	-1.1408	25.18	-0.08	-0.750			
0.3718	23794.01	3.6770	3.6767	-1.1507	25.17	-0.09	-0.750			
0.3752	24013.62	3.6740	3.6744	-1.1678	25.17	-0.09	-0.750			
0.3788	24243.05	3.6710	3.6710	-1.1803	25.16	-0.10	-0.750			
0.3824	24473.58	3.6680	3.6678	-1.1939	25.15	-0.11	-0.750			
0.3859	24697.51	3.6650	3.6649	-1.2107	25.15	-0.11	-0.750			
0.3895	24929.99	3.6620	3.6621	-1.2342	25.14	-0.12	-0.750			
0.3933	25171.61	3.6590	3.6588	-1.2532	25.13	-0.13	-0.750			
0.3971	25413.54	3.6560	3.6560	-1.2677	25.13	-0.13	-0.750			
0.4009	25658.24	3.6530	3.6532	-1.2899	25.12	-0.14	-0.750			
0.4049	25914.34	3.6500	3.6499	-1.3141	25.12	-0.14	-0.750			
0.4089	26167.88	3.6470	3.6468	-1.3231	25.12	-0.14	-0.750			
0.4128	26420.85	3.6440	3.6445	-1.3448	25.12	-0.14	-0.750			
0.4169	26682.58	3.6410	3.6409	-1.3622	25.11	-0.15	-0.750			
0.4210	26944.68	3.6380	3.6379	-1.4033	25.11	-0.15	-0.750			
0.4252	27210.49	3.6350	3.6352	-1.4522	25.10	-0.16	-0.750			
0.4297	27500.16	3.6320	3.6317	-1.5165	25.10	-0.16	-0.750			
0.4344	27798.72	3.6290	3.6292	-1.5646	25.09	-0.17	-0.750			
0.4393	28116.15	3.6260	3.6260	-1.5951	25.09	-0.17	-0.750			
0.4441	28422.01	3.6230	3.6231	-1.6178	25.09	-0.17	-0.750			
0.4491	28745.03	3.6200	3.6201	-1.6186	25.08	-0.18	-0.750			
0.4540	29055.13	3.6170	3.6169	-1.6318	25.07	-0.19	-0.750			
0.4588	29363.44	3.6140	3.6137	-1.6493	25.07	-0.19	-0.750			
0.4637	29674.21	3.6110	3.6113	-1.6726	25.06	-0.20	-0.750			
0.4687	29995.20	3.6080	3.6083	-1.7097	25.05	-0.21	-0.750			
0.4740	30333.05	3.6050	3.6052	-1.7588	25.04	-0.22	-0.750			
0.4792	30670.95	3.6020	3.6018	-1.8204	25.04	-0.22	-0.750			
0.4850	31037.88	3.5990	3.5987	-1.8362	25.04	-0.22	-0.750			
0.4906	31395.30	3.5960	3.5955	-1.8532	25.04	-0.22	-0.750			
0.4962	31757.20	3.5930	3.5934	-1.8862	25.03	-0.23	-0.750			
0.5017	32111.25	3.5900	3.5902	-1.8982	25.02	-0.24	-0.750			
0.5073	32467.82	3.5870	3.5870	-1.9414	25.02	-0.24	-0.750			
0.5132	32842.00	3.5840	3.5841	-1.9965	25.02	-0.24	-0.750			
0.5192	33229.83	3.5810	3.5813	-2.0377	25.02	-0.24	-0.750			
0.5255	33633.11	3.5780	3.5782	-2.1277	25.01	-0.25	-0.750			
0.5321	34055.82	3.5750	3.5752	-2.1435	25.01	-0.25	-0.750			
0.5387	34473.71	3.5720	3.5721	-2.1357	25.01	-0.25	-0.750			
0.5451	34886.32	3.5690	3.5692	-2.1421	25.01	-0.25	-0.750			
0.5516	35300.14	3.5660	3.5660	-2.1027	25.01	-0.25	-0.750			
0.5578	35701.03	3.5630	3.5628	-2.0930	25.01	-0.25	-0.750			
0.5641	36100.98	3.5600	3.5601	-2.0561	25.01	-0.25	-0.750			
0.5702	36494.42	3.5570	3.5571	-2.0621	25.01	-0.25	-0.750			
0.5765	36898.66	3.5540	3.5540	-2.0628	25.01	-0.25	-0.750			
0.5826	37287.88	3.5510	3.5510	-2.0473	25.02	-0.24	-0.750			
0.5887	37678.44	3.5480	3.5482	-1.9995	25.02	-0.24	-0.750			
0.5947	38062.64	3.5450	3.5448	-2.0005	25.03	-0.23	-0.750			
0.6006	38437.86	3.5420	3.5420	-1.9557	25.04	-0.22	-0.750			
0.6064	38807.10	3.5390	3.5392	-1.9365	25.05	-0.21	-0.750			
0.6123	39189.40	3.5360	3.5363	-1.9244	25.06	-0.20	-0.750			
0.6181	39555.67	3.5330	3.5331	-1.9127	25.06	-0.20	-0.750			
0.6236	39908.97	3.5300	3.5301	-1.8381	25.07	-0.19	-0.750			
0.6292	40266.06	3.5270	3.5266	-1.8078	25.08	-0.18	-0.750			
0.6345	40609.67	3.5240	3.5238	-1.7821	25.09	-0.17	-0.750			
0.6398	40944.41	3.5210	3.5210	-1.7281	25.10	-0.16	-0.750			
0.6449	41274.20	3.5180	3.5181	-1.7150	25.12	-0.14	-0.750			
0.6500	41600.90	3.5150	3.5151	-1.6558	25.14	-0.12	-0.750			
0.6549	41915.06	3.5120	3.5120	-1.6044	25.15	-0.11	-0.750			
0.6597	42219.45	3.5090	3.5092	-1.5958	25.17	-0.09	-0.750			
0.6645	42525.50	3.5060	3.5061	-1.5467	25.18	-0.08	-0.750			
0.6690	42819.05	3.5030	3.5029	-1.4992	25.20	-0.06	-0.750			
0.6735	43100.92	3.5000	3.5000	-1.4626	25.21	-0.05	-0.750			
0.6778	43379.15	3.4970	3.4968	-1.4231	25.23	-0.03	-0.750			
0.6819	43644.13	3.4940	3.4939	-1.3657	25.24	-0.02	-0.750			
0.6859	43898.31	3.4910	3.4908	-1.3149	25.26	0.00	-0.750			
0.6897	44141.24	3.4880	3.4879	-1.2811	25.28	0.02	-0.750			
0.6936	44389.89	3.4850	3.4850	-1.2229	25.29	0.03	-0.750			
0.6972	44618.80	3.4820	3.4820	-1.1591	25.31	0.05	-0.750			
