Ah_balance (normalized)	Ah_balance (mAh)	Voltage - fit (V)	Voltage -  interpolate (V)	dQ/dV (1/V)	Temperature (°C)	Temperature - diff (°C)	Current (C)	R_DC 0ms (mOhm)	R_DC 50ms (mOhm)	R_DC 50 ms PEC (mOhm)
0.0483	3090.53	4.1970	4.1970	0.6793	26.15	0.60	0.750			
0.0504	3228.20	4.1940	4.1940	0.7276	26.15	0.60	0.750			
0.0527	3371.54	4.1910	4.1905	0.7458	26.15	0.60	0.750			
0.0550	3517.65	4.1880	4.1881	0.7524	26.15	0.60	0.750			
0.0573	3665.88	4.1850	4.1851	0.7496	26.15	0.60	0.750			
0.0596	3812.07	4.1820	4.1820	0.7544	26.15	0.60	0.750			
0.0618	3953.56	4.1790	4.1791	0.7474	26.15	0.60	0.750			
0.0640	4095.40	4.1760	4.1760	0.7499	26.15	0.60	0.750			
0.0663	4240.02	4.1730	4.1731	0.7562	26.15	0.60	0.750			
0.0685	4386.89	4.1700	4.1700	0.7589	26.15	0.60	0.750			
0.0708	4533.79	4.1670	4.1670	0.7539	26.15	0.60	0.750			
0.0731	4678.92	4.1640	4.1641	0.7618	26.16	0.61	0.750			
0.0754	4822.63	4.1610	4.1611	0.7588	26.16	0.61	0.750			
0.0776	4967.96	4.1580	4.1575	0.7647	26.16	0.61	0.750			
0.0799	5114.91	4.1550	4.1550	0.7639	26.16	0.61	0.750			
0.0822	5262.79	4.1520	4.1521	0.7682	26.16	0.61	0.750			
0.0846	5411.92	4.1490	4.1491	0.7650	26.15	0.60	0.750			
0.0868	5554.43	4.1460	4.1462	0.7567	26.15	0.60	0.750			
0.0891	5699.53	4.1430	4.1431	0.7619	26.15	0.60	0.750			
0.0913	5844.31	4.1400	4.1402	0.7675	26.15	0.60	0.750			
0.0937	5993.86	4.1370	4.1372	0.7688	26.16	0.61	0.750			
0.0960	6145.67	4.1340	4.1340	0.7790	26.16	0.61	0.750			
0.0984	6298.55	4.1310	4.1310	0.7819	26.16	0.61	0.750			
0.1007	6443.73	4.1280	4.1281	0.7741	26.17	0.62	0.750			
0.1030	6592.86	4.1250	4.1250	0.7751	26.17	0.62	0.750			
0.1053	6742.34	4.1220	4.1220	0.7768	26.17	0.62	0.750			
0.1077	6893.17	4.1190	4.1190	0.7661	26.17	0.62	0.750			
0.1100	7038.21	4.1160	4.1161	0.7741	26.17	0.62	0.750			
0.1123	7187.00	4.1130	4.1130	0.7774	26.17	0.62	0.750			
0.1146	7334.07	4.1100	4.1098	0.7771	26.17	0.62	0.750			
0.1169	7483.11	4.1070	4.1071	0.7832	26.17	0.62	0.750			
0.1193	7637.57	4.1040	4.1041	0.7793	26.18	0.63	0.750			
0.1217	7785.70	4.1010	4.1011	0.7849	26.18	0.63	0.750			
0.1240	7936.30	4.0980	4.0981	0.7858	26.18	0.63	0.750			
0.1264	8087.13	4.0950	4.0950	0.7854	26.19	0.64	0.750			
0.1287	8237.69	4.0920	4.0921	0.7910	26.19	0.64	0.750			
0.1311	8393.04	4.0890	4.0891	0.7884	26.19	0.64	0.750			
0.1335	8545.86	4.0860	4.0860	0.7913	26.19	0.64	0.750			
0.1359	8697.72	4.0830	4.0830	0.7990	26.19	0.64	0.750			
0.1383	8848.38	4.0800	4.0802	0.7939	26.19	0.64	0.750			
0.1406	8999.94	4.0770	4.0767	0.7984	26.19	0.64	0.750			
0.1430	9154.52	4.0740	4.0741	0.8084	26.19	0.64	0.750			
0.1455	9310.98	4.0710	4.0710	0.8048	26.19	0.64	0.750			
0.1479	9466.70	4.0680	4.0680	0.8099	26.20	0.65	0.750			
0.1503	9621.59	4.0650	4.0651	0.8090	26.20	0.65	0.750			
0.1528	9776.90	4.0620	4.0619	0.8119	26.20	0.65	0.750			
0.1552	9933.22	4.0590	4.0590	0.8177	26.20	0.65	0.750			
0.1577	10093.76	4.0560	4.0559	0.7977	26.20	0.65	0.750			
0.1601	10244.83	4.0530	4.0532	0.8123	26.20	0.65	0.750			
0.1625	10399.90	4.0500	4.0500	0.8146	26.20	0.65	0.750			
0.1649	10555.69	4.0470	4.0463	0.8202	26.20	0.65	0.750			
0.1674	10712.24	4.0440	4.0441	0.8245	26.20	0.65	0.750			
0.1699	10873.22	4.0410	4.0411	0.8256	26.20	0.65	0.750			
0.1724	11033.74	4.0380	4.0381	0.8353	26.21	0.66	0.750			
0.1749	11194.77	4.0350	4.0351	0.8321	26.21	0.66	0.750			
0.1774	11355.10	4.0320	4.0316	0.8376	26.21	0.66	0.750			
0.1799	11516.26	4.0290	4.0290	0.8408	26.21	0.66	0.750			
0.1825	11678.95	4.0260	4.0261	0.8390	26.21	0.66	0.750			
0.1850	11841.28	4.0230	4.0231	0.8450	26.22	0.67	0.750			
0.1875	12002.08	4.0200	4.0201	0.8410	26.22	0.67	0.750			
0.1901	12163.59	4.0170	4.0168	0.8481	26.22	0.67	0.750			
0.1926	12325.82	4.0140	4.0140	0.8529	26.22	0.67	0.750			
0.1952	12490.75	4.0110	4.0111	0.8485	26.22	0.67	0.750			
0.1977	12655.35	4.0080	4.0081	0.8534	26.23	0.68	0.750			
0.2003	12817.61	4.0050	4.0051	0.8543	26.23	0.68	0.750			
0.2028	12981.32	4.0020	4.0015	0.8599	26.23	0.68	0.750			
0.2054	13148.41	3.9990	3.9991	0.8547	26.23	0.68	0.750			
0.2080	13311.96	3.9960	3.9960	0.8609	26.23	0.68	0.750			
0.2106	13478.40	3.9930	3.9931	0.8721	26.23	0.68	0.750			
0.2132	13644.79	3.9900	3.9901	0.8676	26.23	0.68	0.750			
0.2158	13813.55	3.9870	3.9871	0.8755	26.23	0.68	0.750			
0.2185	13983.48	3.9840	3.9840	0.8716	26.23	0.68	0.750			
0.2211	14152.02	3.9810	3.9811	0.8726	26.23	0.68	0.750			
0.2238	14320.13	3.9780	3.9781	0.8736	26.23	0.68	0.750			
0.2263	14485.92	3.9750	3.9751	0.8681	26.23	0.68	0.750			
0.2289	14651.72	3.9720	3.9720	0.8687	26.23	0.68	0.750			
0.2315	14817.96	3.9690	3.9690	0.8711	26.23	0.68	0.750			
0.2341	14983.52	3.9660	3.9661	0.8664	26.23	0.68	0.750			
0.2367	15150.01	3.9630	3.9631	0.8771	26.23	0.68	0.750			
0.2393	15316.85	3.9600	3.9601	0.8793	26.23	0.68	0.750			
0.2420	15485.80	3.9570	3.9572	0.8906	26.23	0.68	0.750			
0.2447	15659.82	3.9540	3.9541	0.8841	26.23	0.68	0.750			
0.2474	15831.98	3.9510	3.9511	0.8847	26.23	0.68	0.750			
0.2501	16004.51	3.9480	3.9481	0.8947	26.23	0.68	0.750			
0.2526	16169.24	3.9450	3.9446	0.8759	26.23	0.68	0.750			
0.2553	16338.11	3.9420	3.9420	0.8684	26.23	0.68	0.750			
0.2579	16504.29	3.9390	3.9391	0.8716	26.23	0.68	0.750			
0.2605	16671.43	3.9360	3.9361	0.8755	26.22	0.67	0.750			
0.2631	16840.72	3.9330	3.9331	0.8769	26.22	0.67	0.750			
0.2658	17008.90	3.9300	3.9299	0.8784	26.22	0.67	0.750			
0.2684	17177.97	3.9270	3.9270	0.8757	26.22	0.67	0.750			
0.2710	17346.99	3.9240	3.9241	0.8675	26.22	0.67	0.750			
0.2736	17510.84	3.9210	3.9211	0.8743	26.21	0.66	0.750			
0.2762	17677.02	3.9180	3.9181	0.8765	26.21	0.66	0.750			
0.2788	17844.18	3.9150	3.9151	0.8781	26.21	0.66	0.750			
0.2815	18015.38	3.9120	3.9121	0.8770	26.20	0.65	0.750			
0.2842	18186.64	3.9090	3.9091	0.8856	26.20	0.65	0.750			
0.2868	18358.29	3.9060	3.9061	0.8877	26.20	0.65	0.750			
0.2894	18524.36	3.9030	3.9028	0.8811	26.19	0.64	0.750			
0.2921	18695.79	3.9000	3.8999	0.8836	26.19	0.64	0.750			
0.2948	18865.27	3.8970	3.8970	0.8875	26.18	0.63	0.750			
0.2975	19037.41	3.8940	3.8940	0.8919	26.17	0.62	0.750			
0.3002	19210.58	3.8910	3.8911	0.8993	26.17	0.62	0.750			
0.3028	19381.82	3.8880	3.8879	0.8938	26.16	0.61	0.750			
0.3056	19556.37	3.8850	3.8850	0.8843	26.15	0.60	0.750			
0.3082	19723.30	3.8820	3.8820	0.8778	26.14	0.59	0.750			
0.3108	19891.13	3.8790	3.8792	0.8858	26.13	0.58	0.750			
0.3135	20061.15	3.8760	3.8760	0.8835	26.13	0.58	0.750			
0.3161	20229.62	3.8730	3.8730	0.8856	26.12	0.57	0.750			
0.3188	20400.28	3.8700	3.8702	0.8846	26.11	0.56	0.750			
0.3214	20571.64	3.8670	3.8670	0.8924	26.10	0.55	0.750			
0.3241	20743.11	3.8640	3.8640	0.9013	26.10	0.55	0.750			
0.3268	20914.55	3.8610	3.8609	0.8970	26.09	0.54	0.750			
0.3295	21088.66	3.8580	3.8580	0.8956	26.08	0.53	0.750			
0.3322	21262.89	3.8550	3.8550	0.9029	26.08	0.53	0.750			
0.3349	21435.45	3.8520	3.8522	0.9060	26.07	0.52	0.750			
0.3376	21609.53	3.8490	3.8490	0.9145	26.06	0.51	0.750			
0.3404	21782.68	3.8460	3.8458	0.9187	26.05	0.50	0.750			
0.3432	21962.39	3.8430	3.8430	0.9123	26.04	0.49	0.750			
0.3459	22138.01	3.8400	3.8400	0.9290	26.03	0.48	0.750	0.301	0.442	
0.3487	22317.09	3.8370	3.8371	0.9357	26.02	0.47	0.750			
0.3515	22496.89	3.8340	3.8341	0.9389	26.01	0.46	0.750			
0.3544	22680.07	3.8310	3.8311	0.9380	26.00	0.45	0.750			
0.3572	22857.99	3.8280	3.8281	0.9458	26.00	0.45	0.750			
0.3600	23040.14	3.8250	3.8251	0.9595	25.99	0.44	0.750			
0.3629	23227.79	3.8220	3.8221	0.9757	25.98	0.43	0.750			
0.3658	23411.96	3.8190	3.8189	0.9771	25.97	0.42	0.750			
0.3688	23602.37	3.8160	3.8161	0.9779	25.96	0.41	0.750			
0.3717	23790.81	3.8130	3.8132	0.9877	25.94	0.39	0.750			
0.3747	23979.69	3.8100	3.8101	1.0031	25.93	0.38	0.750			
0.3777	24171.60	3.8070	3.8067	1.0117	25.92	0.37	0.750			
0.3807	24366.88	3.8040	3.8040	1.0102	25.91	0.36	0.750			
0.3838	24561.17	3.8010	3.8012	1.0303	25.91	0.36	0.750			
0.3869	24761.15	3.7980	3.7982	1.0531	25.90	0.35	0.750			
0.3901	24967.00	3.7950	3.7944	1.0608	25.89	0.34	0.750			
0.3933	25170.13	3.7920	3.7921	1.0766	25.88	0.33	0.750			
0.3965	25378.59	3.7890	3.7890	1.0955	25.86	0.31	0.750			
0.3999	25592.85	3.7860	3.7862	1.1229	25.85	0.30	0.750			
0.4033	25811.17	3.7830	3.7829	1.1243	25.84	0.29	0.750			
0.4067	26027.36	3.7800	3.7800	1.1438	25.83	0.28	0.750			
0.4101	26247.60	3.7770	3.7771	1.1626	25.82	0.27	0.750			
0.4136	26472.76	3.7740	3.7740	1.1923	25.81	0.26	0.750			
0.4173	26705.42	3.7710	3.7710	1.1889	25.80	0.25	0.750			
0.4208	26932.03	3.7680	3.7681	1.2184	25.79	0.24	0.750			
0.4245	27166.50	3.7650	3.7652	1.2455	25.78	0.23	0.750			
0.4283	27414.39	3.7620	3.7614	1.2502	25.77	0.22	0.750			
0.4320	27644.95	3.7590	3.7593	1.3277	25.76	0.21	0.750			
0.4360	27906.54	3.7560	3.7561	1.3888	25.74	0.19	0.750			
0.4403	28181.02	3.7530	3.7524	1.4338	25.73	0.18	0.750			
0.4448	28464.96	3.7500	3.7506	1.4665	25.71	0.16	0.750			
0.4493	28756.50	3.7470	3.7474	1.4931	25.70	0.15	0.750			
0.4540	29054.30	3.7440	3.7437	1.5291	25.69	0.14	0.750			
0.4585	29346.61	3.7410	3.7411	1.5341	25.67	0.12	0.750			
0.4630	29630.24	3.7380	3.7380	1.5394	25.66	0.11	0.750			
0.4677	29933.89	3.7350	3.7349	1.5683	25.64	0.09	0.750			
0.4724	30235.10	3.7320	3.7322	1.6115	25.63	0.08	0.750			
0.4773	30547.71	3.7290	3.7290	1.6552	25.61	0.06	0.750			
0.4823	30864.75	3.7260	3.7262	1.7150	25.59	0.04	0.750			
0.4875	31202.43	3.7230	3.7233	1.7924	25.58	0.03	0.750			
0.4930	31550.20	3.7200	3.7200	1.8113	25.56	0.01	0.750			
0.4984	31900.25	3.7170	3.7171	1.8668	25.55	-0.00	0.750			
0.5042	32266.02	3.7140	3.7142	1.9254	25.53	-0.02	0.750			
0.5100	32641.23	3.7110	3.7111	1.9790	25.52	-0.03	0.750			
0.5160	33021.00	3.7080	3.7082	2.0336	25.50	-0.05	0.750			
0.5223	33426.57	3.7050	3.7048	2.1075	25.48	-0.07	0.750			
0.5285	33822.44	3.7020	3.7021	2.1490	25.47	-0.08	0.750			
0.5350	34243.00	3.6990	3.6991	2.1833	25.46	-0.09	0.750			
0.5417	34670.98	3.6960	3.6960	2.2610	25.45	-0.10	0.750			
0.5486	35108.90	3.6930	3.6928	2.3101	25.44	-0.11	0.750			
0.5556	35559.73	3.6900	3.6901	2.3566	25.42	-0.13	0.750			
0.5628	36019.03	3.6870	3.6872	2.3873	25.41	-0.14	0.750			
0.5701	36489.24	3.6840	3.6840	2.4004	25.40	-0.15	0.750			
0.5774	36952.57	3.6810	3.6807	2.3859	25.40	-0.15	0.750			
0.5845	37408.69	3.6780	3.6781	2.3446	25.39	-0.16	0.750			
0.5916	37863.99	3.6750	3.6750	2.2714	25.38	-0.17	0.750			
0.5984	38298.04	3.6720	3.6720	2.1492	25.39	-0.16	0.750			
0.6047	38702.10	3.6690	3.6692	2.0492	25.40	-0.15	0.750			
0.6106	39080.84	3.6660	3.6661	1.9146	25.39	-0.16	0.750			
0.6162	39434.20	3.6630	3.6627	1.7900	25.39	-0.16	0.750			
0.6214	39768.16	3.6600	3.6597	1.6812	25.41	-0.14	0.750			
0.6262	40079.50	3.6570	3.6570	1.5617	25.42	-0.13	0.750			
0.6307	40367.27	3.6540	3.6541	1.4608	25.42	-0.13	0.750			
0.6350	40637.75	3.6510	3.6511	1.3654	25.43	-0.12	0.750			
0.6389	40888.49	3.6480	3.6479	1.2740	25.43	-0.12	0.750			
0.6426	41126.27	3.6450	3.6450	1.2026	25.43	-0.12	0.750			
0.6460	41344.21	3.6420	3.6421	1.1374	25.44	-0.11	0.750			
0.6493	41556.44	3.6390	3.6391	1.0884	25.44	-0.11	0.750			
0.6526	41765.95	3.6360	3.6356	1.0319	25.45	-0.10	0.750			
0.6555	41955.02	3.6330	3.6330	0.9787	25.45	-0.10	0.750			
0.6584	42135.94	3.6300	3.6301	0.9549	25.46	-0.09	0.750			
0.6612	42314.79	3.6270	3.6272	0.9248	25.46	-0.09	0.750			
0.6639	42489.68	3.6240	3.6242	0.8844	25.47	-0.08	0.750			
0.6665	42657.96	3.6210	3.6212	0.8538	25.48	-0.07	0.750			
0.6691	42822.06	3.6180	3.6181	0.8157	25.49	-0.06	0.750			
0.6715	42976.84	3.6150	3.6151	0.7787	25.50	-0.05	0.750			
0.6738	43121.88	3.6120	3.6119	0.7234	25.51	-0.04	0.750			
0.6759	43256.53	3.6090	3.6091	0.6808	25.51	-0.04	0.750			
0.6779	43382.52	3.6060	3.6059	0.6396	25.52	-0.03	0.750			
0.6797	43502.59	3.6030	3.6030	0.5962	25.53	-0.02	0.750			
0.6815	43614.39	3.6000	3.6000	0.5515	25.53	-0.02	0.750			
0.6831	43715.97	3.5970	3.5970	0.5051	25.53	-0.02	0.750			
0.6845	43808.33	3.5940	3.5941	0.4546	25.54	-0.01	0.750			
0.6858	43891.77	3.5910	3.5909	0.4078	25.54	-0.01	0.750			
0.6870	43965.45	3.5880	3.5880	0.3575	25.54	-0.01	0.750			
0.6880	44028.83	3.5850	3.5851	0.3065	25.55	-0.00	0.750			
0.6888	44083.47	3.5820	3.5820	0.2587	25.55	-0.00	0.750			
0.6895	44129.10	3.5790	3.5791	0.2091	25.55	-0.00	0.750			
0.6901	44163.65	3.5760	3.5757	0.1590	25.55	0.00	0.750			
0.6905	44189.55	3.5730	3.5737	0.1102	25.55	0.00	0.750			
0.6907	44206.09	3.5700	3.5709	0.0706	25.55	0.00	0.750			
