Ah_balance (normalized)	Ah_balance (mAh)	Voltage - fit (V)	Voltage -  interpolate (V)	dQ/dV (1/V)	Temperature (°C)	Temperature - diff (°C)	Current (C)	R_DC 0ms (mOhm)	R_DC 50ms (mOhm)	R_DC 50 ms PEC (mOhm)
0.0474	3033.44	4.1980	4.1980	0.7479	25.42	0.29	0.750			
0.0496	3175.56	4.1950	4.1950	0.7424	25.41	0.28	0.750			
0.0519	3319.62	4.1920	4.1921	0.7530	25.41	0.28	0.750			
0.0541	3465.27	4.1890	4.1889	0.7603	25.41	0.28	0.750			
0.0564	3612.34	4.1860	4.1860	0.7643	25.41	0.28	0.750			
0.0587	3759.70	4.1830	4.1831	0.7668	25.41	0.28	0.750			
0.0611	3908.27	4.1800	4.1800	0.7696	25.40	0.27	0.750			
0.0634	4056.44	4.1770	4.1769	0.7721	25.40	0.27	0.750			
0.0657	4203.29	4.1740	4.1740	0.7679	25.40	0.27	0.750			
0.0680	4350.90	4.1710	4.1709	0.7701	25.40	0.27	0.750			
0.0703	4500.30	4.1680	4.1680	0.7674	25.40	0.27	0.750			
0.0726	4647.12	4.1650	4.1650	0.7684	25.40	0.27	0.750			
0.0749	4793.95	4.1620	4.1620	0.7720	25.41	0.28	0.750			
0.0772	4942.06	4.1590	4.1590	0.7741	25.41	0.28	0.750			
0.0795	5088.85	4.1560	4.1560	0.7788	25.41	0.28	0.750			
0.0819	5239.96	4.1530	4.1531	0.7866	25.41	0.28	0.750			
0.0843	5392.56	4.1500	4.1500	0.7865	25.41	0.28	0.750			
0.0866	5544.45	4.1470	4.1470	0.7903	25.41	0.28	0.750			
0.0890	5695.84	4.1440	4.1441	0.7882	25.41	0.28	0.750			
0.0914	5847.03	4.1410	4.1407	0.7905	25.41	0.28	0.750			
0.0937	5998.50	4.1380	4.1381	0.7924	25.41	0.28	0.750			
0.0961	6150.01	4.1350	4.1351	0.7960	25.41	0.28	0.750			
0.0985	6304.97	4.1320	4.1320	0.8004	25.41	0.28	0.750			
0.1009	6458.20	4.1290	4.1290	0.7987	25.41	0.28	0.750			
0.1033	6612.28	4.1260	4.1260	0.8043	25.41	0.28	0.750			
0.1057	6767.31	4.1230	4.1230	0.8064	25.41	0.28	0.750			
0.1082	6922.57	4.1200	4.1199	0.8048	25.41	0.28	0.750			
0.1106	7076.75	4.1170	4.1171	0.8045	25.42	0.29	0.750			
0.1130	7230.98	4.1140	4.1140	0.8054	25.42	0.29	0.750			
0.1154	7386.30	4.1110	4.1110	0.8093	25.42	0.29	0.750			
0.1178	7541.35	4.1080	4.1080	0.8083	25.42	0.29	0.750			
0.1203	7698.34	4.1050	4.1050	0.8027	25.42	0.29	0.750			
0.1227	7851.09	4.1020	4.1020	0.8093	25.42	0.29	0.750			
0.1251	8006.59	4.0990	4.0990	0.8126	25.43	0.30	0.750			
0.1275	8161.85	4.0960	4.0962	0.8143	25.43	0.30	0.750			
0.1300	8317.72	4.0930	4.0930	0.8168	25.43	0.30	0.750			
0.1324	8475.76	4.0900	4.0901	0.8149	25.43	0.30	0.750			
0.1349	8633.04	4.0870	4.0870	0.8270	25.43	0.30	0.750			
0.1374	8793.34	4.0840	4.0840	0.8283	25.44	0.31	0.750			
0.1399	8953.00	4.0810	4.0808	0.8220	25.44	0.31	0.750			
0.1424	9111.78	4.0780	4.0782	0.8251	25.44	0.31	0.750			
0.1449	9271.54	4.0750	4.0749	0.8204	25.44	0.31	0.750			
0.1473	9426.45	4.0720	4.0719	0.8247	25.44	0.31	0.750			
0.1498	9584.40	4.0690	4.0690	0.8267	25.45	0.32	0.750			
0.1522	9739.27	4.0660	4.0661	0.8242	25.45	0.32	0.750			
0.1547	9901.70	4.0630	4.0629	0.8405	25.45	0.32	0.750			
0.1573	10065.32	4.0600	4.0601	0.8413	25.45	0.32	0.750			
0.1598	10226.56	4.0570	4.0570	0.8474	25.45	0.32	0.750			
0.1623	10390.17	4.0540	4.0540	0.8540	25.46	0.33	0.750			
0.1649	10553.82	4.0510	4.0511	0.8550	25.46	0.33	0.750			
0.1675	10719.87	4.0480	4.0480	0.8580	25.46	0.33	0.750			
0.1701	10885.07	4.0450	4.0450	0.8569	25.46	0.33	0.750			
0.1726	11048.70	4.0420	4.0421	0.8585	25.46	0.33	0.750			
0.1752	11214.15	4.0390	4.0390	0.8634	25.47	0.34	0.750			
0.1778	11379.13	4.0360	4.0360	0.8612	25.47	0.34	0.750			
0.1804	11545.02	4.0330	4.0330	0.8666	25.47	0.34	0.750			
0.1830	11711.68	4.0300	4.0300	0.8700	25.47	0.34	0.750			
0.1856	11879.86	4.0270	4.0270	0.8744	25.47	0.34	0.750			
0.1882	12047.91	4.0240	4.0240	0.8754	25.47	0.34	0.750			
0.1909	12214.94	4.0210	4.0208	0.8822	25.47	0.34	0.750			
0.1935	12384.38	4.0180	4.0181	0.8869	25.47	0.34	0.750			
0.1962	12556.40	4.0150	4.0150	0.8863	25.47	0.34	0.750			
0.1989	12727.36	4.0120	4.0119	0.8890	25.48	0.35	0.750			
0.2015	12898.72	4.0090	4.0091	0.8911	25.48	0.35	0.750			
0.2042	13068.64	4.0060	4.0058	0.8931	25.48	0.35	0.750			
0.2069	13239.79	4.0030	4.0031	0.8961	25.48	0.35	0.750			
0.2095	13411.01	4.0000	4.0000	0.8968	25.49	0.36	0.750			
0.2123	13585.80	3.9970	3.9970	0.9051	25.49	0.36	0.750			
0.2150	13760.19	3.9940	3.9940	0.9024	25.50	0.37	0.750			
0.2177	13934.12	3.9910	3.9910	0.9057	25.50	0.37	0.750			
0.2204	14108.44	3.9880	3.9880	0.9033	25.50	0.37	0.750			
0.2231	14280.47	3.9850	3.9850	0.9058	25.51	0.38	0.750			
0.2258	14453.24	3.9820	3.9820	0.9088	25.51	0.38	0.750			
0.2286	14627.62	3.9790	3.9789	0.9170	25.51	0.38	0.750			
0.2314	14807.14	3.9760	3.9760	0.9176	25.51	0.38	0.750			
0.2341	14983.90	3.9730	3.9730	0.9224	25.52	0.39	0.750			
0.2369	15161.32	3.9700	3.9700	0.9275	25.52	0.39	0.750			
0.2397	15340.25	3.9670	3.9671	0.9311	25.53	0.40	0.750			
0.2424	15516.57	3.9640	3.9640	0.9298	25.53	0.40	0.750			
0.2452	15695.25	3.9610	3.9610	0.9367	25.53	0.40	0.750			
0.2481	15876.32	3.9580	3.9580	0.9370	25.54	0.41	0.750			
0.2509	16057.75	3.9550	3.9550	0.9414	25.54	0.41	0.750			
0.2537	16238.86	3.9520	3.9520	0.9400	25.54	0.41	0.750			
0.2566	16421.02	3.9490	3.9490	0.9335	25.55	0.42	0.750			
0.2594	16598.50	3.9460	3.9460	0.9405	25.55	0.42	0.750			
0.2622	16777.89	3.9430	3.9430	0.9413	25.56	0.43	0.750			
0.2650	16957.80	3.9400	3.9401	0.9428	25.57	0.44	0.750			
0.2678	17141.04	3.9370	3.9369	0.9504	25.57	0.44	0.750			
0.2707	17323.84	3.9340	3.9341	0.9428	25.57	0.44	0.750			
0.2735	17503.25	3.9310	3.9311	0.9488	25.57	0.44	0.750			
0.2763	17685.97	3.9280	3.9281	0.9559	25.57	0.44	0.750			
0.2792	17867.18	3.9250	3.9245	0.9552	25.57	0.44	0.750			
0.2820	18050.77	3.9220	3.9222	0.9660	25.57	0.44	0.750			
0.2850	18239.38	3.9190	3.9191	0.9691	25.58	0.45	0.750			
0.2880	18429.98	3.9160	3.9159	0.9779	25.58	0.45	0.750			
0.2909	18619.39	3.9130	3.9130	0.9840	25.59	0.46	0.750			
0.2938	18802.54	3.9100	3.9100	0.9674	25.59	0.46	0.750			
0.2967	18988.88	3.9070	3.9069	0.9736	25.60	0.47	0.750			
0.2996	19174.51	3.9040	3.9041	0.9788	25.60	0.47	0.750			
0.3025	19361.99	3.9010	3.9010	0.9868	25.61	0.48	0.750			
0.3056	19555.50	3.8980	3.8980	0.9887	25.61	0.48	0.750			
0.3085	19745.05	3.8950	3.8950	0.9899	25.61	0.48	0.750			
0.3115	19935.56	3.8920	3.8921	0.9946	25.62	0.49	0.750			
0.3145	20127.56	3.8890	3.8891	1.0025	25.62	0.49	0.750			
0.3175	20318.62	3.8860	3.8859	1.0023	25.62	0.49	0.750			
0.3205	20510.58	3.8830	3.8831	1.0089	25.62	0.49	0.750			
0.3235	20706.04	3.8800	3.8800	1.0135	25.62	0.49	0.750			
0.3266	20902.64	3.8770	3.8770	1.0202	25.62	0.49	0.750			
0.3297	21100.93	3.8740	3.8741	1.0178	25.62	0.49	0.750			
0.3327	21295.27	3.8710	3.8710	1.0212	25.62	0.49	0.750			
0.3358	21490.13	3.8680	3.8680	1.0238	25.63	0.50	0.750			
0.3389	21687.57	3.8650	3.8651	1.0302	25.63	0.50	0.750			
0.3419	21884.79	3.8620	3.8619	1.0356	25.63	0.50	0.750			
0.3451	22085.46	3.8590	3.8590	1.0256	25.63	0.50	0.750			
0.3481	22280.03	3.8560	3.8561	1.0349	25.62	0.49	0.750			
0.3512	22478.42	3.8530	3.8531	1.0436	25.62	0.49	0.750			
0.3544	22679.31	3.8500	3.8494	1.0467	25.62	0.49	0.750			
0.3575	22880.48	3.8470	3.8471	1.0551	25.62	0.49	0.750			
0.3607	23085.08	3.8440	3.8441	1.0657	25.61	0.48	0.750			
0.3639	23292.33	3.8410	3.8411	1.0799	25.61	0.48	0.750			
0.3672	23500.44	3.8380	3.8380	1.0577	25.61	0.48	0.750			
0.3703	23700.14	3.8350	3.8351	1.0719	25.60	0.47	0.750			
0.3735	23904.15	3.8320	3.8321	1.0857	25.60	0.47	0.750			
0.3768	24114.37	3.8290	3.8292	1.1011	25.59	0.46	0.750	0.285	0.391	
0.3802	24330.00	3.8260	3.8260	1.0985	25.59	0.46	0.750			
0.3835	24543.08	3.8230	3.8232	1.1167	25.58	0.45	0.750			
0.3869	24760.16	3.8200	3.8201	1.1263	25.58	0.45	0.750			
0.3903	24982.03	3.8170	3.8169	1.1370	25.57	0.44	0.750			
0.3936	25192.41	3.8140	3.8141	1.1234	25.56	0.43	0.750			
0.3970	25407.52	3.8110	3.8112	1.1351	25.56	0.43	0.750			
0.4004	25627.58	3.8080	3.8080	1.1472	25.55	0.42	0.750			
0.4040	25853.63	3.8050	3.8048	1.1496	25.54	0.41	0.750			
0.4073	26070.08	3.8020	3.8021	1.1477	25.53	0.40	0.750			
0.4108	26290.68	3.7990	3.7991	1.1568	25.52	0.39	0.750			
0.4143	26513.76	3.7960	3.7960	1.1669	25.52	0.39	0.750			
0.4178	26737.72	3.7930	3.7931	1.1679	25.51	0.38	0.750			
0.4213	26961.27	3.7900	3.7901	1.1784	25.49	0.36	0.750			
0.4248	27188.73	3.7870	3.7870	1.1933	25.48	0.35	0.750			
0.4284	27420.50	3.7840	3.7836	1.2063	25.47	0.34	0.750			
0.4321	27651.60	3.7810	3.7811	1.2177	25.46	0.33	0.750			
0.4357	27886.11	3.7780	3.7780	1.2357	25.45	0.32	0.750			
0.4395	28127.94	3.7750	3.7750	1.2507	25.44	0.31	0.750			
0.4433	28370.14	3.7720	3.7720	1.2696	25.43	0.30	0.750			
0.4470	28610.91	3.7690	3.7690	1.2926	25.42	0.29	0.750			
0.4510	28861.00	3.7660	3.7661	1.3211	25.41	0.28	0.750			
0.4550	29117.61	3.7630	3.7628	1.3344	25.40	0.27	0.750			
0.4589	29371.73	3.7600	3.7601	1.3675	25.39	0.26	0.750			
0.4631	29636.12	3.7570	3.7572	1.3995	25.38	0.25	0.750			
0.4674	29914.55	3.7540	3.7541	1.4131	25.37	0.24	0.750			
0.4716	30183.58	3.7510	3.7512	1.4594	25.35	0.22	0.750			
0.4761	30468.63	3.7480	3.7481	1.4863	25.33	0.20	0.750			
0.4806	30761.19	3.7450	3.7451	1.5185	25.32	0.19	0.750			
0.4851	31045.95	3.7420	3.7421	1.5544	25.31	0.18	0.750			
0.4899	31351.57	3.7390	3.7391	1.5911	25.29	0.16	0.750			
0.4947	31663.24	3.7360	3.7360	1.6468	25.28	0.15	0.750			
0.4997	31982.20	3.7330	3.7329	1.7105	25.27	0.14	0.750			
0.5049	32312.58	3.7300	3.7303	1.7415	25.26	0.13	0.750			
0.5103	32660.73	3.7270	3.7272	1.8292	25.24	0.11	0.750			
0.5159	33015.35	3.7240	3.7240	1.8844	25.22	0.09	0.750			
0.5217	33387.26	3.7210	3.7209	1.9333	25.21	0.08	0.750			
0.5274	33753.55	3.7180	3.7181	1.9712	25.20	0.07	0.750			
0.5336	34148.68	3.7150	3.7150	2.0068	25.19	0.06	0.750			
0.5395	34528.28	3.7120	3.7118	2.0832	25.17	0.04	0.750			
0.5458	34930.21	3.7090	3.7087	2.1704	25.15	0.02	0.750			
0.5525	35361.41	3.7060	3.7059	2.2327	25.12	-0.01	0.750			
0.5594	35801.66	3.7030	3.7029	2.2739	25.11	-0.02	0.750			
0.5663	36241.30	3.7000	3.6998	2.3244	25.10	-0.03	0.750			
0.5733	36691.12	3.6970	3.6970	2.3792	25.08	-0.05	0.750			
0.5806	37156.26	3.6940	3.6940	2.4294	25.06	-0.07	0.750			
0.5880	37633.81	3.6910	3.6908	2.5643	25.05	-0.08	0.750			
0.5958	38128.10	3.6880	3.6879	2.6901	25.03	-0.10	0.750			
0.6037	38639.71	3.6850	3.6851	2.6680	25.02	-0.11	0.750			
0.6118	39152.93	3.6820	3.6816	2.7795	25.01	-0.12	0.750			
0.6201	39688.06	3.6790	3.6793	2.8376	25.00	-0.13	0.750			
0.6293	40274.05	3.6760	3.6762	3.0364	25.00	-0.13	0.750			
0.6377	40810.90	3.6730	3.6731	2.8967	24.99	-0.14	0.750			
0.6465	41374.75	3.6700	3.6701	2.9494	24.98	-0.15	0.750			
0.6557	41962.06	3.6670	3.6671	2.9863	24.98	-0.15	0.750			
0.6649	42552.06	3.6640	3.6639	2.9291	24.98	-0.15	0.750			
0.6734	43099.24	3.6610	3.6607	2.8055	24.99	-0.14	0.750			
0.6817	43626.96	3.6580	3.6579	2.5704	25.00	-0.13	0.750			
0.6889	44091.58	3.6550	3.6554	2.3100	25.02	-0.11	0.750			
0.6954	44504.63	3.6520	3.6517	2.0840	25.03	-0.10	0.750			
0.7014	44892.36	3.6490	3.6488	1.9065	25.04	-0.09	0.750			
0.7069	45238.67	3.6460	3.6456	1.7084	25.04	-0.09	0.750			
0.7117	45548.49	3.6430	3.6433	1.5374	25.05	-0.08	0.750			
0.7158	45808.70	3.6400	3.6400	1.3290	25.06	-0.07	0.750			
0.7196	46053.77	3.6370	3.6370	1.1685	25.07	-0.06	0.750			
0.7227	46249.73	3.6340	3.6341	1.0273	25.08	-0.05	0.750			
0.7254	46423.72	3.6310	3.6312	0.9482	25.09	-0.04	0.750			
0.7280	46595.14	3.6280	3.6281	0.8983	25.10	-0.03	0.750			
0.7306	46758.24	3.6250	3.6251	0.8388	25.10	-0.03	0.750			
0.7330	46914.95	3.6220	3.6222	0.8203	25.11	-0.02	0.750			
0.7355	47071.39	3.6190	3.6192	0.8026	25.12	-0.01	0.750			
0.7379	47226.66	3.6160	3.6160	0.7784	25.12	-0.01	0.750			
0.7402	47374.50	3.6130	3.6131	0.7286	25.13	-0.00	0.750			
0.7424	47513.50	3.6100	3.6101	0.6852	25.13	0.00	0.750			
0.7445	47646.24	3.6070	3.6071	0.6299	25.14	0.01	0.750			
0.7463	47766.13	3.6040	3.6039	0.5651	25.14	0.01	0.750			
0.7478	47862.40	3.6010	3.6011	0.4841	25.15	0.02	0.750			
0.7492	47946.26	3.5980	3.5980	0.4110	25.15	0.02	0.750			
0.7503	48017.76	3.5950	3.5950	0.3396	25.15	0.02	0.750			
0.7512	48076.38	3.5920	3.5918	0.2727	25.15	0.02	0.750			
0.7519	48121.63	3.5890	3.5892	0.2063	25.16	0.03	0.750			
0.7524	48156.12	3.5860	3.5865	0.1410	25.16	0.03	0.750			
0.7528	48177.55	3.5830	3.5843	0.0714	25.16	0.03	0.750			
0.7529	48184.99	3.5800	3.5803	-0.0186	25.16	0.03	0.750			
