Ah_balance (normalized)	Ah_balance (mAh)	Voltage - fit (V)	Voltage -  interpolate (V)	dQ/dV (1/V)	Temperature (°C)	Temperature - diff (°C)	Current (C)	R_DC 0ms (mOhm)	R_DC 50ms (mOhm)	R_DC 50 ms PEC (mOhm)
0.0471	3012.11	4.1990	4.1989	0.7399	25.98	0.55	0.750			
0.0493	3153.81	4.1960	4.1960	0.7371	25.99	0.56	0.750			
0.0515	3293.77	4.1930	4.1931	0.7381	25.99	0.56	0.750			
0.0537	3436.47	4.1900	4.1895	0.7473	25.99	0.56	0.750			
0.0560	3581.05	4.1870	4.1871	0.7489	25.99	0.56	0.750			
0.0582	3726.27	4.1840	4.1840	0.7530	25.99	0.56	0.750			
0.0605	3872.66	4.1810	4.1811	0.7577	26.00	0.57	0.750			
0.0628	4020.13	4.1780	4.1779	0.7657	26.00	0.57	0.750			
0.0651	4163.65	4.1750	4.1750	0.7577	26.00	0.57	0.750			
0.0673	4308.87	4.1720	4.1720	0.7535	26.00	0.57	0.750			
0.0696	4453.52	4.1690	4.1690	0.7556	26.00	0.57	0.750			
0.0719	4601.77	4.1660	4.1659	0.7431	26.00	0.57	0.750			
0.0741	4740.30	4.1630	4.1630	0.7528	26.01	0.58	0.750			
0.0763	4883.83	4.1600	4.1602	0.7538	26.01	0.58	0.750			
0.0786	5028.24	4.1570	4.1566	0.7601	26.01	0.58	0.750			
0.0809	5175.51	4.1540	4.1541	0.7656	26.01	0.58	0.750			
0.0832	5326.42	4.1510	4.1511	0.7614	26.01	0.58	0.750			
0.0855	5471.35	4.1480	4.1481	0.7658	26.01	0.58	0.750			
0.0878	5617.67	4.1450	4.1451	0.7630	26.01	0.58	0.750			
0.0901	5765.37	4.1420	4.1421	0.7678	26.01	0.58	0.750			
0.0924	5913.03	4.1390	4.1390	0.7712	26.01	0.58	0.750			
0.0947	6062.60	4.1360	4.1361	0.7717	26.01	0.58	0.750			
0.0971	6211.63	4.1330	4.1331	0.7741	26.01	0.58	0.750			
0.0994	6364.27	4.1300	4.1299	0.7783	26.01	0.58	0.750			
0.1017	6509.04	4.1270	4.1270	0.7705	26.01	0.58	0.750			
0.1040	6655.95	4.1240	4.1240	0.7694	26.01	0.58	0.750			
0.1063	6804.93	4.1210	4.1210	0.7714	26.01	0.58	0.750			
0.1087	6956.20	4.1180	4.1179	0.7636	26.01	0.58	0.750			
0.1109	7098.80	4.1150	4.1151	0.7727	26.02	0.59	0.750			
0.1132	7246.56	4.1120	4.1121	0.7753	26.02	0.59	0.750			
0.1156	7395.47	4.1090	4.1089	0.7806	26.02	0.59	0.750			
0.1179	7545.73	4.1060	4.1061	0.7853	26.02	0.59	0.750			
0.1204	7703.37	4.1030	4.1032	0.7785	26.02	0.59	0.750			
0.1227	7851.24	4.1000	4.1000	0.7801	26.02	0.59	0.750			
0.1250	7999.50	4.0970	4.0971	0.7727	26.02	0.59	0.750			
0.1273	8145.66	4.0940	4.0942	0.7778	26.02	0.59	0.750			
0.1296	8293.36	4.0910	4.0906	0.7832	26.02	0.59	0.750			
0.1320	8445.64	4.0880	4.0881	0.7868	26.02	0.59	0.750			
0.1344	8599.44	4.0850	4.0851	0.7976	26.02	0.59	0.750			
0.1368	8755.00	4.0820	4.0821	0.8071	26.03	0.60	0.750			
0.1392	8909.61	4.0790	4.0790	0.8003	26.03	0.60	0.750			
0.1416	9063.77	4.0760	4.0759	0.8034	26.03	0.60	0.750			
0.1440	9218.56	4.0730	4.0730	0.8064	26.03	0.60	0.750			
0.1465	9373.73	4.0700	4.0701	0.8038	26.03	0.60	0.750			
0.1489	9527.63	4.0670	4.0670	0.8068	26.04	0.61	0.750			
0.1513	9682.35	4.0640	4.0641	0.8042	26.04	0.61	0.750			
0.1537	9835.50	4.0610	4.0606	0.8082	26.04	0.61	0.750			
0.1561	9990.96	4.0580	4.0581	0.8148	26.04	0.61	0.750			
0.1586	10150.11	4.0550	4.0550	0.7996	26.04	0.61	0.750			
0.1610	10303.56	4.0520	4.0520	0.8187	26.04	0.61	0.750			
0.1634	10459.82	4.0490	4.0492	0.8169	26.04	0.61	0.750			
0.1659	10617.89	4.0460	4.0461	0.8261	26.04	0.61	0.750			
0.1684	10778.59	4.0430	4.0432	0.8303	26.04	0.61	0.750			
0.1709	10938.01	4.0400	4.0401	0.8293	26.04	0.61	0.750			
0.1734	11098.62	4.0370	4.0371	0.8353	26.05	0.62	0.750			
0.1759	11257.34	4.0340	4.0341	0.8292	26.05	0.62	0.750			
0.1784	11418.07	4.0310	4.0308	0.8358	26.05	0.62	0.750			
0.1809	11579.33	4.0280	4.0281	0.8418	26.05	0.62	0.750			
0.1835	11743.77	4.0250	4.0250	0.8309	26.05	0.62	0.750			
0.1860	11904.79	4.0220	4.0221	0.8415	26.05	0.62	0.750			
0.1885	12062.96	4.0190	4.0191	0.8398	26.05	0.62	0.750			
0.1910	12224.54	4.0160	4.0157	0.8465	26.05	0.62	0.750			
0.1935	12386.86	4.0130	4.0131	0.8468	26.05	0.62	0.750			
0.1961	12551.82	4.0100	4.0101	0.8454	26.06	0.63	0.750			
0.1987	12715.60	4.0070	4.0070	0.8541	26.06	0.63	0.750			
0.2013	12880.24	4.0040	4.0041	0.8611	26.07	0.64	0.750			
0.2037	13039.78	4.0010	4.0001	0.8583	26.07	0.64	0.750			
0.2064	13206.86	3.9980	3.9981	0.8601	26.07	0.64	0.750			
0.2090	13373.60	3.9950	3.9951	0.8659	26.07	0.64	0.750			
0.2116	13541.81	3.9920	3.9920	0.8696	26.07	0.64	0.750			
0.2143	13712.52	3.9890	3.9890	0.8747	26.07	0.64	0.750			
0.2168	13876.03	3.9860	3.9859	0.8634	26.07	0.64	0.750			
0.2194	14044.26	3.9830	3.9830	0.8556	26.07	0.64	0.750			
0.2220	14205.93	3.9800	3.9801	0.8588	26.07	0.64	0.750			
0.2245	14371.16	3.9770	3.9770	0.8656	26.07	0.64	0.750			
0.2271	14536.58	3.9740	3.9741	0.8682	26.07	0.64	0.750			
0.2297	14702.47	3.9710	3.9710	0.8740	26.07	0.64	0.750			
0.2324	14873.24	3.9680	3.9680	0.8686	26.07	0.64	0.750			
0.2350	15040.79	3.9650	3.9650	0.8778	26.07	0.64	0.750			
0.2377	15210.11	3.9620	3.9621	0.8798	26.07	0.64	0.750			
0.2403	15376.85	3.9590	3.9591	0.8779	26.07	0.64	0.750			
0.2429	15545.69	3.9560	3.9561	0.8829	26.07	0.64	0.750			
0.2456	15717.32	3.9530	3.9531	0.8811	26.07	0.64	0.750			
0.2482	15887.40	3.9500	3.9500	0.8822	26.06	0.63	0.750			
0.2509	16059.70	3.9470	3.9470	0.8848	26.06	0.63	0.750			
0.2535	16225.14	3.9440	3.9440	0.8756	26.06	0.63	0.750			
0.2561	16392.99	3.9410	3.9409	0.8752	26.06	0.63	0.750			
0.2588	16560.10	3.9380	3.9381	0.8642	26.06	0.63	0.750			
0.2613	16724.21	3.9350	3.9351	0.8667	26.07	0.64	0.750			
0.2639	16889.10	3.9320	3.9322	0.8748	26.07	0.64	0.750			
0.2665	17057.67	3.9290	3.9283	0.8764	26.07	0.64	0.750			
0.2692	17225.66	3.9260	3.9261	0.8811	26.07	0.64	0.750			
0.2717	17391.70	3.9230	3.9232	0.8910	26.06	0.63	0.750			
0.2744	17564.16	3.9200	3.9203	0.9120	26.06	0.63	0.750			
0.2772	17741.49	3.9170	3.9169	0.9116	26.05	0.62	0.750			
0.2800	17918.56	3.9140	3.9137	0.9219	26.05	0.62	0.750			
0.2828	18099.93	3.9110	3.9115	0.9189	26.04	0.61	0.750			
0.2856	18278.81	3.9080	3.9082	0.9162	26.04	0.61	0.750			
0.2884	18459.50	3.9050	3.9049	0.9080	26.03	0.60	0.750			
0.2910	18625.33	3.9020	3.9019	0.8768	26.03	0.60	0.750			
0.2937	18794.20	3.8990	3.8990	0.8766	26.02	0.59	0.750			
0.2963	18961.76	3.8960	3.8961	0.8724	26.02	0.59	0.750			
0.2989	19127.89	3.8930	3.8931	0.8721	26.01	0.58	0.750			
0.3015	19294.62	3.8900	3.8900	0.8733	26.01	0.58	0.750			
0.3041	19461.91	3.8870	3.8867	0.8748	26.00	0.57	0.750			
0.3067	19631.56	3.8840	3.8841	0.8769	25.99	0.56	0.750			
0.3094	19799.99	3.8810	3.8810	0.8835	25.99	0.56	0.750			
0.3121	19972.08	3.8780	3.8780	0.8891	25.98	0.55	0.750			
0.3147	20141.46	3.8750	3.8751	0.8833	25.97	0.54	0.750			
0.3174	20312.90	3.8720	3.8721	0.8863	25.97	0.54	0.750			
0.3201	20484.31	3.8690	3.8691	0.8829	25.96	0.53	0.750			
0.3227	20652.97	3.8660	3.8660	0.8877	25.95	0.52	0.750			
0.3253	20822.31	3.8630	3.8631	0.8901	25.94	0.51	0.750			
0.3280	20991.57	3.8600	3.8598	0.8908	25.93	0.50	0.750			
0.3307	21163.77	3.8570	3.8571	0.8986	25.92	0.49	0.750			
0.3334	21339.26	3.8540	3.8540	0.8949	25.91	0.48	0.750			
0.3361	21510.10	3.8510	3.8510	0.8915	25.90	0.47	0.750			
0.3387	21679.56	3.8480	3.8482	0.8985	25.89	0.46	0.750			
0.3414	21849.58	3.8450	3.8445	0.9036	25.88	0.45	0.750			
0.3441	22024.43	3.8420	3.8417	0.9025	25.87	0.44	0.750	0.323	0.457	
0.3468	22197.79	3.8390	3.8391	0.9180	25.87	0.44	0.750			
0.3496	22376.70	3.8360	3.8362	0.9336	25.86	0.43	0.750			
0.3525	22559.14	3.8330	3.8331	0.9478	25.85	0.42	0.750			
0.3553	22741.26	3.8300	3.8300	0.9422	25.84	0.41	0.750			
0.3582	22922.29	3.8270	3.8271	0.9502	25.83	0.40	0.750			
0.3611	23107.84	3.8240	3.8240	0.9613	25.82	0.39	0.750			
0.3640	23294.39	3.8210	3.8211	0.9744	25.80	0.37	0.750			
0.3668	23478.14	3.8180	3.8179	0.9745	25.79	0.36	0.750			
0.3698	23667.02	3.8150	3.8150	0.9773	25.78	0.35	0.750			
0.3727	23853.24	3.8120	3.8120	0.9903	25.77	0.34	0.750			
0.3757	24045.24	3.8090	3.8091	1.0059	25.76	0.33	0.750			
0.3787	24239.58	3.8060	3.8056	1.0175	25.75	0.32	0.750			
0.3819	24441.12	3.8030	3.8030	1.0063	25.74	0.31	0.750			
0.3849	24630.75	3.8000	3.8001	1.0354	25.73	0.30	0.750			
0.3880	24829.28	3.7970	3.7971	1.0562	25.72	0.29	0.750			
0.3912	25033.74	3.7940	3.7933	1.0713	25.71	0.28	0.750			
0.3944	25241.72	3.7910	3.7911	1.0983	25.70	0.27	0.750			
0.3978	25456.72	3.7880	3.7881	1.1222	25.69	0.26	0.750			
0.4012	25677.04	3.7850	3.7852	1.1409	25.68	0.25	0.750			
0.4047	25902.43	3.7820	3.7819	1.1329	25.67	0.24	0.750			
0.4081	26120.39	3.7790	3.7790	1.1566	25.66	0.23	0.750			
0.4116	26341.13	3.7760	3.7761	1.1723	25.65	0.22	0.750			
0.4152	26571.30	3.7730	3.7728	1.1778	25.63	0.20	0.750			
0.4187	26795.74	3.7700	3.7702	1.2027	25.62	0.19	0.750			
0.4223	27027.66	3.7670	3.7671	1.2291	25.61	0.18	0.750			
0.4260	27266.22	3.7640	3.7641	1.2551	25.60	0.17	0.750			
0.4298	27508.55	3.7610	3.7607	1.2756	25.59	0.16	0.750			
0.4337	27758.30	3.7580	3.7582	1.3127	25.57	0.14	0.750			
0.4377	28014.36	3.7550	3.7551	1.3434	25.56	0.13	0.750			
0.4418	28277.71	3.7520	3.7519	1.3672	25.55	0.12	0.750			
0.4460	28546.46	3.7490	3.7490	1.3670	25.54	0.11	0.750			
0.4501	28807.88	3.7460	3.7461	1.3971	25.52	0.09	0.750			
0.4543	29078.34	3.7430	3.7430	1.4073	25.51	0.08	0.750			
0.4585	29346.22	3.7400	3.7402	1.4441	25.50	0.07	0.750			
0.4629	29626.13	3.7370	3.7367	1.4873	25.48	0.05	0.750			
0.4674	29915.69	3.7340	3.7337	1.5435	25.47	0.04	0.750			
0.4721	30215.54	3.7310	3.7311	1.6112	25.45	0.02	0.750			
0.4771	30532.78	3.7280	3.7280	1.6894	25.44	0.01	0.750			
0.4822	30863.97	3.7250	3.7249	1.7446	25.42	-0.01	0.750			
0.4875	31202.61	3.7220	3.7221	1.8249	25.40	-0.03	0.750			
0.4931	31558.73	3.7190	3.7188	1.8601	25.38	-0.05	0.750			
0.4988	31922.30	3.7160	3.7155	1.9024	25.36	-0.07	0.750			
0.5046	32291.72	3.7130	3.7128	1.9017	25.35	-0.08	0.750			
0.5104	32662.54	3.7100	3.7103	1.9800	25.33	-0.10	0.750			
0.5164	33048.02	3.7070	3.7073	2.0207	25.32	-0.11	0.750			
0.5225	33442.08	3.7040	3.7036	2.0978	25.31	-0.12	0.750			
0.5287	33839.45	3.7010	3.7008	2.0868	25.29	-0.14	0.750			
0.5353	34259.82	3.6980	3.6980	2.1386	25.28	-0.15	0.750			
0.5418	34675.56	3.6950	3.6947	2.1754	25.27	-0.16	0.750			
0.5486	35111.75	3.6920	3.6924	2.2738	25.26	-0.17	0.750			
0.5554	35544.91	3.6890	3.6888	2.3432	25.26	-0.17	0.750			
0.5625	36002.72	3.6860	3.6862	2.3760	25.25	-0.18	0.750			
0.5700	36482.28	3.6830	3.6830	2.3683	25.25	-0.18	0.750			
0.5769	36923.10	3.6800	3.6805	2.3707	25.24	-0.19	0.750			
0.5839	37372.36	3.6770	3.6765	2.3201	25.24	-0.19	0.750			
0.5909	37815.32	3.6740	3.6742	2.2505	25.25	-0.18	0.750			
0.5976	38243.45	3.6710	3.6706	2.1590	25.25	-0.18	0.750			
0.6040	38655.46	3.6680	3.6679	1.9883	25.26	-0.17	0.750			
0.6097	39018.99	3.6650	3.6654	1.8801	25.26	-0.17	0.750			
0.6151	39368.05	3.6620	3.6625	1.7708	25.27	-0.16	0.750			
0.6202	39690.52	3.6590	3.6583	1.6495	25.28	-0.15	0.750			
0.6250	40001.82	3.6560	3.6563	1.5445	25.28	-0.15	0.750			
0.6297	40301.70	3.6530	3.6531	1.4256	25.29	-0.14	0.750			
0.6337	40554.14	3.6500	3.6501	1.3308	25.30	-0.13	0.750			
0.6374	40793.68	3.6470	3.6471	1.2326	25.31	-0.12	0.750			
0.6411	41028.16	3.6440	3.6433	1.1637	25.32	-0.11	0.750			
0.6444	41242.95	3.6410	3.6412	1.1089	25.33	-0.10	0.750			
0.6476	41448.36	3.6380	3.6382	1.0694	25.34	-0.09	0.750			
0.6508	41650.07	3.6350	3.6352	1.0319	25.34	-0.09	0.750			
0.6538	41841.60	3.6320	3.6309	0.9820	25.35	-0.08	0.750			
0.6567	42027.08	3.6290	3.6292	0.9491	25.36	-0.07	0.750			
0.6595	42208.49	3.6260	3.6261	0.9218	25.36	-0.07	0.750			
0.6623	42385.16	3.6230	3.6230	0.8923	25.37	-0.06	0.750			
0.6649	42555.67	3.6200	3.6200	0.8387	25.38	-0.05	0.750			
0.6674	42711.57	3.6170	3.6170	0.8016	25.38	-0.05	0.750			
0.6698	42867.87	3.6140	3.6140	0.7379	25.39	-0.04	0.750			
0.6718	42998.12	3.6110	3.6112	0.6922	25.40	-0.03	0.750			
0.6738	43121.49	3.6080	3.6087	0.6550	25.41	-0.02	0.750			
0.6757	43241.88	3.6050	3.6052	0.6251	25.42	-0.01	0.750			
0.6775	43356.95	3.6020	3.6029	0.5890	25.42	-0.01	0.750			
0.6792	43470.05	3.5990	3.5997	0.5480	25.43	0.00	0.750			
0.6809	43577.49	3.5960	3.5964	0.5087	25.44	0.01	0.750			
0.6825	43679.28	3.5930	3.5929	0.4586	25.44	0.01	0.750			
0.6837	43754.81	3.5900	3.5898	0.3872	25.45	0.02	0.750			
0.6847	43821.37	3.5870	3.5870	0.3253	25.45	0.02	0.750			
0.6856	43879.09	3.5840	3.5839	0.2753	25.46	0.03	0.750			
0.6864	43927.96	3.5810	3.5810	0.2266	25.46	0.03	0.750			
0.6870	43966.86	3.5780	3.5782	0.1749	25.46	0.03	0.750			
0.6874	43996.53	3.5750	3.5756	0.1224	25.46	0.03	0.750			
0.6878	44016.15	3.5720	3.5731	0.0639	25.47	0.04	0.750			
0.6879	44023.10	3.5690	3.5717	-0.0006	25.47	0.04	0.750			
