Ah_balance (normalized)	Ah_balance (mAh)	Voltage - fit (V)	Voltage -  interpolate (V)	dQ/dV (1/V)	Temperature (°C)	Temperature - diff (°C)	Current (C)	R_DC 0ms (mOhm)	R_DC 50ms (mOhm)	R_DC 50 ms PEC (mOhm)
0.0116	743.11	4.1990	4.1987	13.0163	24.89	1.15	0.069			
0.0564	3610.79	4.1960	4.1970	2.0108	25.00	1.26	0.676			
0.0616	3940.67	4.1930	4.1945	1.1452	24.99	1.25	0.750			
0.0647	4139.59	4.1900	4.1905	1.0107	24.98	1.24	0.750			
0.0674	4312.42	4.1870	4.1869	0.9190	24.98	1.24	0.750			
0.0695	4450.66	4.1840	4.1840	0.7724	24.97	1.23	0.750			
0.0719	4600.10	4.1810	4.1811	0.7703	24.96	1.22	0.750			
0.0742	4748.32	4.1780	4.1781	0.7778	24.95	1.21	0.750			
0.0765	4895.17	4.1750	4.1750	0.7757	24.95	1.21	0.750			
0.0788	5044.47	4.1720	4.1721	0.7795	24.94	1.20	0.750			
0.0812	5194.06	4.1690	4.1691	0.7808	24.94	1.20	0.750			
0.0835	5346.15	4.1660	4.1661	0.7789	24.93	1.19	0.750			
0.0859	5497.60	4.1630	4.1630	0.7831	24.93	1.19	0.750			
0.0882	5645.41	4.1600	4.1601	0.7775	24.92	1.18	0.750			
0.0905	5794.38	4.1570	4.1567	0.7789	24.92	1.18	0.750			
0.0929	5943.53	4.1540	4.1540	0.7799	24.92	1.18	0.750			
0.0953	6096.20	4.1510	4.1510	0.7738	24.91	1.17	0.750			
0.0976	6244.69	4.1480	4.1481	0.7840	24.90	1.16	0.750			
0.0999	6394.95	4.1450	4.1451	0.7866	24.90	1.16	0.750			
0.1023	6544.21	4.1420	4.1420	0.7828	24.89	1.15	0.750			
0.1046	6694.52	4.1390	4.1391	0.7886	24.89	1.15	0.750			
0.1070	6846.09	4.1360	4.1361	0.7914	24.88	1.14	0.750			
0.1093	6997.94	4.1330	4.1330	0.7868	24.88	1.14	0.750			
0.1117	7148.67	4.1300	4.1300	0.7837	24.88	1.14	0.750			
0.1140	7298.77	4.1270	4.1272	0.7922	24.87	1.13	0.750			
0.1164	7451.58	4.1240	4.1236	0.7980	24.87	1.13	0.750			
0.1188	7606.31	4.1210	4.1211	0.8071	24.86	1.12	0.750			
0.1213	7762.28	4.1180	4.1181	0.8057	24.86	1.12	0.750			
0.1238	7920.85	4.1150	4.1150	0.8115	24.85	1.11	0.750			
0.1262	8074.25	4.1120	4.1120	0.8007	24.85	1.11	0.750			
0.1286	8229.07	4.1090	4.1089	0.7993	24.84	1.10	0.750			
0.1310	8381.62	4.1060	4.1061	0.7965	24.84	1.10	0.750			
0.1334	8534.94	4.1030	4.1030	0.7966	24.83	1.09	0.750			
0.1357	8686.35	4.1000	4.1001	0.7965	24.83	1.09	0.750			
0.1381	8838.51	4.0970	4.0970	0.7941	24.82	1.08	0.750			
0.1405	8991.24	4.0940	4.0937	0.7978	24.82	1.08	0.750			
0.1429	9144.12	4.0910	4.0912	0.8050	24.82	1.08	0.750			
0.1453	9300.27	4.0880	4.0880	0.8132	24.81	1.07	0.750			
0.1478	9457.39	4.0850	4.0850	0.8026	24.80	1.06	0.750			
0.1502	9609.89	4.0820	4.0821	0.8146	24.80	1.06	0.750			
0.1525	9761.67	4.0790	4.0793	0.8155	24.79	1.05	0.750			
0.1550	9920.23	4.0760	4.0762	0.8252	24.79	1.05	0.750			
0.1575	10079.75	4.0730	4.0731	0.8276	24.78	1.04	0.750			
0.1600	10239.59	4.0700	4.0701	0.8377	24.77	1.03	0.750			
0.1626	10404.52	4.0670	4.0671	0.8421	24.77	1.03	0.750			
0.1651	10565.05	4.0640	4.0639	0.8376	24.76	1.02	0.750			
0.1676	10726.32	4.0610	4.0611	0.8398	24.76	1.02	0.750			
0.1702	10890.89	4.0580	4.0580	0.8269	24.75	1.01	0.750			
0.1726	11046.96	4.0550	4.0550	0.8396	24.75	1.01	0.750			
0.1751	11207.98	4.0520	4.0520	0.8445	24.75	1.01	0.750			
0.1776	11368.77	4.0490	4.0489	0.8450	24.74	1.00	0.750			
0.1802	11531.24	4.0460	4.0462	0.8581	24.73	0.99	0.750			
0.1828	11697.77	4.0430	4.0431	0.8579	24.73	0.99	0.750			
0.1854	11864.89	4.0400	4.0400	0.8632	24.72	0.98	0.750			
0.1880	12031.24	4.0370	4.0370	0.8558	24.71	0.97	0.750			
0.1906	12196.03	4.0340	4.0337	0.8595	24.70	0.96	0.750			
0.1932	12361.94	4.0310	4.0311	0.8618	24.70	0.96	0.750			
0.1957	12526.83	4.0280	4.0280	0.8669	24.69	0.95	0.750			
0.1983	12692.12	4.0250	4.0250	0.8690	24.69	0.95	0.750			
0.2010	12861.94	4.0220	4.0220	0.8799	24.68	0.94	0.750			
0.2036	13030.03	4.0190	4.0189	0.8804	24.68	0.94	0.750			
0.2063	13203.50	4.0160	4.0160	0.8683	24.67	0.93	0.750			
0.2089	13369.81	4.0130	4.0130	0.8683	24.66	0.92	0.750			
0.2115	13534.47	4.0100	4.0101	0.8646	24.65	0.91	0.750			
0.2140	13697.55	4.0070	4.0071	0.8684	24.65	0.91	0.750			
0.2166	13862.06	4.0040	4.0040	0.8769	24.64	0.90	0.750			
0.2193	14033.69	4.0010	4.0010	0.8740	24.63	0.89	0.750			
0.2219	14202.98	3.9980	3.9981	0.8866	24.63	0.89	0.750			
0.2246	14375.65	3.9950	3.9951	0.8950	24.62	0.88	0.750			
0.2273	14547.11	3.9920	3.9921	0.8905	24.61	0.87	0.750			
0.2300	14718.22	3.9890	3.9891	0.8923	24.61	0.87	0.750			
0.2326	14889.33	3.9860	3.9861	0.8905	24.60	0.86	0.750			
0.2353	15060.62	3.9830	3.9831	0.8926	24.59	0.85	0.750			
0.2380	15235.18	3.9800	3.9800	0.9002	24.59	0.85	0.750			
0.2407	15404.29	3.9770	3.9768	0.8902	24.58	0.84	0.750			
0.2434	15578.31	3.9740	3.9740	0.8828	24.57	0.83	0.750			
0.2460	15746.66	3.9710	3.9710	0.8872	24.56	0.82	0.750			
0.2487	15916.57	3.9680	3.9681	0.8887	24.55	0.81	0.750			
0.2513	16085.80	3.9650	3.9651	0.8916	24.55	0.81	0.750			
0.2540	16257.25	3.9620	3.9620	0.8954	24.54	0.80	0.750			
0.2568	16434.59	3.9590	3.9590	0.8815	24.53	0.79	0.750			
0.2594	16601.95	3.9560	3.9561	0.8942	24.53	0.79	0.750			
0.2621	16772.35	3.9530	3.9531	0.9030	24.53	0.79	0.750			
0.2647	16943.95	3.9500	3.9502	0.9052	24.52	0.78	0.750			
0.2675	17117.86	3.9470	3.9471	0.9135	24.51	0.77	0.750			
0.2702	17295.52	3.9440	3.9442	0.9111	24.50	0.76	0.750			
0.2730	17472.84	3.9410	3.9411	0.9233	24.49	0.75	0.750			
0.2758	17653.24	3.9380	3.9381	0.9210	24.48	0.74	0.750			
0.2786	17827.80	3.9350	3.9348	0.9082	24.47	0.73	0.750			
0.2813	18001.78	3.9320	3.9320	0.9095	24.46	0.72	0.750			
0.2840	18176.70	3.9290	3.9291	0.8953	24.45	0.71	0.750			
0.2866	18345.07	3.9260	3.9260	0.9048	24.44	0.70	0.750			
0.2893	18517.78	3.9230	3.9232	0.9051	24.43	0.69	0.750			
0.2920	18690.35	3.9200	3.9202	0.9048	24.43	0.69	0.750			
0.2949	18870.45	3.9170	3.9172	0.8946	24.41	0.67	0.750			
0.2975	19041.67	3.9140	3.9142	0.9104	24.40	0.66	0.750			
0.3003	19216.59	3.9110	3.9112	0.9159	24.39	0.65	0.750			
0.3030	19389.78	3.9080	3.9075	0.9084	24.38	0.64	0.750			
0.3057	19565.30	3.9050	3.9052	0.9160	24.37	0.63	0.750			
0.3085	19743.66	3.9020	3.9021	0.9268	24.36	0.62	0.750			
0.3113	19924.53	3.8990	3.8991	0.9259	24.34	0.60	0.750			
0.3141	20104.35	3.8960	3.8960	0.9169	24.33	0.59	0.750			
0.3169	20280.47	3.8930	3.8930	0.9200	24.32	0.58	0.750			
0.3197	20459.47	3.8900	3.8899	0.9077	24.30	0.56	0.750			
0.3224	20631.33	3.8870	3.8870	0.9123	24.29	0.55	0.750			
0.3251	20806.05	3.8840	3.8842	0.9186	24.28	0.54	0.750			
0.3278	20980.45	3.8810	3.8807	0.9234	24.26	0.52	0.750			
0.3307	21163.48	3.8780	3.8780	0.9168	24.25	0.51	0.750			
0.3334	21337.27	3.8750	3.8751	0.9234	24.24	0.50	0.750			
0.3362	21515.06	3.8720	3.8721	0.9285	24.22	0.48	0.750			
0.3390	21695.84	3.8690	3.8692	0.9399	24.21	0.47	0.750			
0.3418	21872.70	3.8660	3.8659	0.9346	24.20	0.46	0.750			
0.3446	22051.89	3.8630	3.8632	0.9387	24.18	0.44	0.750			
0.3474	22232.93	3.8600	3.8601	0.9445	24.17	0.43	0.750			
0.3503	22417.55	3.8570	3.8570	0.9538	24.15	0.41	0.750			
0.3531	22600.44	3.8540	3.8539	0.9477	24.14	0.40	0.750			
0.3561	22788.82	3.8510	3.8510	0.9362	24.13	0.39	0.750			
0.3588	22964.99	3.8480	3.8481	0.9405	24.11	0.37	0.750			
0.3616	23143.14	3.8450	3.8451	0.9470	24.10	0.36	0.750			
0.3644	23323.64	3.8420	3.8422	0.9533	24.09	0.35	0.750			
0.3673	23508.64	3.8390	3.8391	0.9475	24.07	0.33	0.750			
0.3701	23689.44	3.8360	3.8361	0.9562	24.05	0.31	0.750			
0.3731	23875.59	3.8330	3.8331	0.9688	24.03	0.29	0.750			
0.3760	24063.35	3.8300	3.8301	0.9771	24.02	0.28	0.750			
0.3789	24249.29	3.8270	3.8268	0.9725	24.00	0.26	0.750			
0.3818	24437.86	3.8240	3.8241	0.9735	23.98	0.24	0.750			
0.3847	24623.78	3.8210	3.8212	0.9843	23.97	0.23	0.750			
0.3877	24815.05	3.8180	3.8180	0.9956	23.95	0.21	0.750			
0.3907	25006.66	3.8150	3.8147	0.9881	23.94	0.20	0.750			
0.3938	25201.08	3.8120	3.8120	0.9730	23.93	0.19	0.750			
0.3967	25385.77	3.8090	3.8092	0.9836	23.91	0.17	0.750			
0.3996	25574.61	3.8060	3.8060	0.9918	23.90	0.16	0.750			
0.4026	25763.25	3.8030	3.8028	0.9903	23.88	0.14	0.750			
0.4055	25952.96	3.8000	3.8002	0.9939	23.87	0.13	0.750			
0.4085	26143.88	3.7970	3.7972	0.9894	23.86	0.12	0.750			
0.4115	26334.63	3.7940	3.7941	1.0035	23.84	0.10	0.750			
0.4145	26529.92	3.7910	3.7911	1.0097	23.83	0.09	0.750			
0.4175	26721.09	3.7880	3.7882	0.9901	23.81	0.07	0.750			
0.4205	26912.01	3.7850	3.7852	0.9870	23.81	0.07	0.750			
0.4235	27106.12	3.7820	3.7821	0.9783	23.80	0.06	0.750			
0.4265	27296.67	3.7790	3.7789	0.9504	23.79	0.05	0.750			
0.4293	27475.45	3.7760	3.7760	0.9015	23.78	0.04	0.750			
0.4321	27651.77	3.7730	3.7731	0.8433	23.77	0.03	0.750			
0.4346	27813.73	3.7700	3.7701	0.7892	23.76	0.02	0.750			
0.4369	27959.26	3.7670	3.7671	0.7250	23.75	0.01	0.750			
0.4389	28090.00	3.7640	3.7641	0.6517	23.75	0.01	0.750			
0.4407	28205.47	3.7610	3.7602	0.5879	23.74	0.00	0.750			
0.4424	28310.57	3.7580	3.7581	0.5281	23.74	-0.00	0.750			
0.4438	28404.81	3.7550	3.7552	0.4788	23.73	-0.01	0.750			
0.4452	28492.05	3.7520	3.7520	0.4357	23.73	-0.01	0.750			
0.4464	28570.40	3.7490	3.7490	0.3922	23.72	-0.02	0.750			
0.4475	28640.82	3.7460	3.7460	0.3577	23.72	-0.02	0.750			
0.4485	28705.90	3.7430	3.7430	0.3269	23.72	-0.02	0.750			
0.4495	28765.49	3.7400	3.7400	0.2959	23.71	-0.03	0.750			
0.4503	28819.69	3.7370	3.7369	0.2667	23.71	-0.03	0.750			
0.4511	28867.99	3.7340	3.7341	0.2338	23.71	-0.03	0.750			
0.4517	28910.79	3.7310	3.7310	0.2031	23.71	-0.03	0.750			
0.4523	28947.18	3.7280	3.7281	0.1694	23.70	-0.04	0.750			
0.4528	28976.93	3.7250	3.7251	0.1318	23.70	-0.04	0.750			
0.4531	28998.68	3.7220	3.7224	0.0980	23.70	-0.04	0.750			
