Ah_balance (normalized)	Ah_balance (mAh)	Voltage - fit (V)	Voltage -  interpolate (V)	dQ/dV (1/V)	Temperature (°C)	Temperature - diff (°C)	Current (C)	R_DC 0ms (mOhm)	R_DC 50ms (mOhm)	R_DC 50 ms PEC (mOhm)
0.0468	2997.90	4.1980	4.1977	0.7785	25.61	0.49	0.750			
0.0492	3147.43	4.1950	4.1951	0.7762	25.61	0.49	0.750			
0.0515	3298.41	4.1920	4.1920	0.7687	25.61	0.49	0.750			
0.0538	3441.68	4.1890	4.1890	0.7613	25.61	0.49	0.750			
0.0560	3585.79	4.1860	4.1861	0.7572	25.61	0.49	0.750			
0.0583	3730.80	4.1830	4.1830	0.7594	25.61	0.49	0.750			
0.0606	3876.16	4.1800	4.1801	0.7614	25.61	0.49	0.750			
0.0629	4023.41	4.1770	4.1771	0.7708	25.61	0.49	0.750			
0.0652	4172.54	4.1740	4.1740	0.7704	25.61	0.49	0.750			
0.0675	4321.83	4.1710	4.1709	0.7709	25.61	0.49	0.750			
0.0698	4467.82	4.1680	4.1681	0.7647	25.61	0.49	0.750			
0.0721	4615.50	4.1650	4.1648	0.7687	25.61	0.49	0.750			
0.0744	4762.94	4.1620	4.1622	0.7714	25.61	0.49	0.750			
0.0768	4913.87	4.1590	4.1589	0.7590	25.61	0.49	0.750			
0.0790	5058.33	4.1560	4.1560	0.7640	25.61	0.49	0.750			
0.0813	5204.66	4.1530	4.1531	0.7647	25.61	0.49	0.750			
0.0836	5350.16	4.1500	4.1501	0.7673	25.61	0.49	0.750			
0.0859	5497.87	4.1470	4.1472	0.7719	25.61	0.49	0.750			
0.0882	5646.15	4.1440	4.1441	0.7765	25.62	0.50	0.750			
0.0906	5796.51	4.1410	4.1410	0.7699	25.62	0.50	0.750			
0.0929	5944.99	4.1380	4.1381	0.7763	25.62	0.50	0.750			
0.0952	6091.92	4.1350	4.1351	0.7738	25.63	0.51	0.750			
0.0975	6241.19	4.1320	4.1315	0.7812	25.63	0.51	0.750			
0.0999	6390.49	4.1290	4.1292	0.7851	25.63	0.51	0.750			
0.1022	6543.21	4.1260	4.1260	0.7863	25.63	0.51	0.750			
0.1047	6697.73	4.1230	4.1230	0.7909	25.63	0.51	0.750			
0.1070	6847.96	4.1200	4.1201	0.7816	25.63	0.51	0.750			
0.1094	6998.67	4.1170	4.1170	0.7835	25.63	0.51	0.750			
0.1117	7148.04	4.1140	4.1140	0.7864	25.63	0.51	0.750			
0.1140	7298.39	4.1110	4.1110	0.7915	25.63	0.51	0.750			
0.1164	7448.65	4.1080	4.1080	0.7874	25.63	0.51	0.750			
0.1188	7600.53	4.1050	4.1050	0.7931	25.63	0.51	0.750			
0.1211	7752.36	4.1020	4.1022	0.7991	25.63	0.51	0.750			
0.1235	7906.64	4.0990	4.0991	0.8041	25.63	0.51	0.750			
0.1261	8068.18	4.0960	4.0960	0.7950	25.63	0.51	0.750			
0.1284	8218.24	4.0930	4.0930	0.7959	25.64	0.52	0.750			
0.1308	8372.91	4.0900	4.0901	0.8058	25.64	0.52	0.750			
0.1331	8519.75	4.0870	4.0872	0.8021	25.64	0.52	0.750			
0.1355	8672.97	4.0840	4.0839	0.8061	25.64	0.52	0.750			
0.1380	8829.03	4.0810	4.0811	0.8102	25.64	0.52	0.750			
0.1404	8986.91	4.0780	4.0781	0.8243	25.64	0.52	0.750			
0.1430	9148.83	4.0750	4.0750	0.8305	25.65	0.53	0.750			
0.1454	9307.37	4.0720	4.0719	0.8228	25.65	0.53	0.750			
0.1479	9466.29	4.0690	4.0690	0.8230	25.65	0.53	0.750			
0.1504	9624.68	4.0660	4.0661	0.8240	25.66	0.54	0.750			
0.1529	9785.22	4.0630	4.0630	0.8130	25.66	0.54	0.750			
0.1553	9937.60	4.0600	4.0601	0.8174	25.66	0.54	0.750			
0.1577	10090.83	4.0570	4.0571	0.8184	25.67	0.55	0.750			
0.1601	10248.17	4.0540	4.0534	0.8301	25.67	0.55	0.750			
0.1626	10408.09	4.0510	4.0512	0.8372	25.67	0.55	0.750			
0.1652	10571.39	4.0480	4.0480	0.8306	25.67	0.55	0.750			
0.1677	10733.34	4.0450	4.0451	0.8400	25.68	0.56	0.750			
0.1702	10890.59	4.0420	4.0423	0.8396	25.68	0.56	0.750			
0.1727	11052.79	4.0390	4.0389	0.8508	25.68	0.56	0.750			
0.1753	11218.52	4.0360	4.0361	0.8482	25.68	0.56	0.750			
0.1779	11382.56	4.0330	4.0332	0.8533	25.68	0.56	0.750			
0.1805	11551.50	4.0300	4.0301	0.8618	25.69	0.57	0.750			
0.1831	11718.99	4.0270	4.0269	0.8666	25.69	0.57	0.750			
0.1856	11875.81	4.0240	4.0240	0.8556	25.69	0.57	0.750			
0.1882	12045.02	4.0210	4.0210	0.8400	25.70	0.58	0.750			
0.1907	12206.09	4.0180	4.0180	0.8520	25.70	0.58	0.750			
0.1933	12368.08	4.0150	4.0151	0.8632	25.70	0.58	0.750			
0.1958	12532.60	4.0120	4.0122	0.8668	25.71	0.59	0.750			
0.1984	12699.48	4.0090	4.0091	0.8703	25.71	0.59	0.750			
0.2011	12869.88	4.0060	4.0061	0.8666	25.71	0.59	0.750			
0.2037	13036.40	4.0030	4.0031	0.8777	25.72	0.60	0.750			
0.2064	13208.06	4.0000	4.0001	0.8849	25.72	0.60	0.750			
0.2090	13374.18	3.9970	3.9971	0.8771	25.72	0.60	0.750			
0.2116	13543.95	3.9940	3.9942	0.8807	25.72	0.60	0.750			
0.2143	13715.69	3.9910	3.9911	0.8876	25.73	0.61	0.750			
0.2170	13887.40	3.9880	3.9880	0.8935	25.73	0.61	0.750			
0.2197	14062.23	3.9850	3.9851	0.8980	25.74	0.62	0.750			
0.2223	14230.27	3.9820	3.9819	0.8889	25.74	0.62	0.750			
0.2251	14404.06	3.9790	3.9789	0.8826	25.74	0.62	0.750			
0.2277	14573.94	3.9760	3.9760	0.8716	25.74	0.62	0.750			
0.2303	14736.92	3.9730	3.9731	0.8837	25.75	0.63	0.750			
0.2329	14904.89	3.9700	3.9702	0.8925	25.75	0.63	0.750			
0.2355	15074.68	3.9670	3.9671	0.8992	25.75	0.63	0.750			
0.2384	15254.41	3.9640	3.9641	0.8943	25.75	0.63	0.750			
0.2410	15426.27	3.9610	3.9612	0.9077	25.76	0.64	0.750			
0.2438	15601.73	3.9580	3.9582	0.9206	25.76	0.64	0.750			
0.2466	15782.36	3.9550	3.9548	0.9246	25.76	0.64	0.750			
0.2493	15953.73	3.9520	3.9521	0.9160	25.76	0.64	0.750			
0.2520	16130.60	3.9490	3.9491	0.9204	25.76	0.64	0.750			
0.2548	16309.62	3.9460	3.9461	0.9272	25.77	0.65	0.750			
0.2577	16493.13	3.9430	3.9430	0.9378	25.77	0.65	0.750			
0.2604	16668.40	3.9400	3.9399	0.9214	25.77	0.65	0.750			
0.2632	16844.94	3.9370	3.9370	0.9229	25.77	0.65	0.750			
0.2659	17019.85	3.9340	3.9341	0.9177	25.78	0.66	0.750			
0.2687	17194.15	3.9310	3.9311	0.9201	25.78	0.66	0.750			
0.2714	17370.94	3.9280	3.9277	0.9227	25.78	0.66	0.750			
0.2742	17547.45	3.9250	3.9252	0.9268	25.78	0.66	0.750			
0.2770	17725.97	3.9220	3.9221	0.9172	25.78	0.66	0.750			
0.2797	17902.50	3.9190	3.9192	0.9251	25.79	0.67	0.750			
0.2825	18080.24	3.9160	3.9161	0.9405	25.79	0.67	0.750			
0.2852	18255.15	3.9130	3.9125	0.9343	25.79	0.67	0.750			
0.2881	18436.11	3.9100	3.9102	0.9378	25.79	0.67	0.750			
0.2909	18618.43	3.9070	3.9071	0.9484	25.79	0.67	0.750			
0.2939	18806.64	3.9040	3.9041	0.9555	25.79	0.67	0.750			
0.2968	18995.53	3.9010	3.9008	0.9623	25.79	0.67	0.750			
0.2995	19168.69	3.8980	3.8980	0.9428	25.79	0.67	0.750			
0.3023	19349.97	3.8950	3.8950	0.9315	25.79	0.67	0.750			
0.3051	19525.38	3.8920	3.8921	0.9381	25.78	0.66	0.750			
0.3079	19705.61	3.8890	3.8891	0.9444	25.78	0.66	0.750			
0.3108	19889.92	3.8860	3.8861	0.9338	25.78	0.66	0.750			
0.3136	20068.83	3.8830	3.8831	0.9406	25.78	0.66	0.750			
0.3164	20248.45	3.8800	3.8802	0.9530	25.77	0.65	0.750			
0.3193	20433.46	3.8770	3.8771	0.9623	25.77	0.65	0.750			
0.3221	20617.26	3.8740	3.8726	0.9571	25.77	0.65	0.750			
0.3251	20803.57	3.8710	3.8711	0.9559	25.77	0.65	0.750			
0.3279	20988.49	3.8680	3.8681	0.9655	25.76	0.64	0.750			
0.3309	21175.53	3.8650	3.8651	0.9714	25.76	0.64	0.750			
0.3338	21360.23	3.8620	3.8619	0.9620	25.75	0.63	0.750			
0.3367	21551.03	3.8590	3.8590	0.9453	25.74	0.62	0.750			
0.3395	21729.75	3.8560	3.8561	0.9546	25.73	0.61	0.750			
0.3424	21911.28	3.8530	3.8531	0.9607	25.73	0.61	0.750			
0.3452	22094.52	3.8500	3.8501	0.9718	25.72	0.60	0.750			
0.3481	22277.72	3.8470	3.8467	0.9734	25.71	0.59	0.750			
0.3511	22471.32	3.8440	3.8441	0.9598	25.70	0.58	0.750			
0.3540	22653.17	3.8410	3.8412	0.9807	25.70	0.58	0.750			
0.3569	22842.13	3.8380	3.8383	0.9952	25.69	0.57	0.750			
0.3599	23031.08	3.8350	3.8342	0.9935	25.69	0.57	0.750			
0.3628	23222.02	3.8320	3.8320	1.0079	25.68	0.56	0.750	0.266	0.393	
0.3659	23419.97	3.8290	3.8292	1.0198	25.67	0.55	0.750			
0.3691	23624.81	3.8260	3.8261	1.0331	25.66	0.54	0.750			
0.3723	23829.85	3.8230	3.8229	1.0408	25.65	0.53	0.750			
0.3753	24021.69	3.8200	3.8200	0.9856	25.64	0.52	0.750			
0.3782	24206.55	3.8170	3.8170	1.0006	25.64	0.52	0.750			
0.3812	24395.32	3.8140	3.8141	1.0126	25.63	0.51	0.750			
0.3842	24589.28	3.8110	3.8107	1.0254	25.62	0.50	0.750			
0.3874	24792.60	3.8080	3.8081	1.0105	25.61	0.49	0.750			
0.3904	24985.92	3.8050	3.8051	1.0416	25.60	0.48	0.750			
0.3935	25186.26	3.8020	3.8023	1.0602	25.59	0.47	0.750			
0.3968	25393.05	3.7990	3.7985	1.0610	25.58	0.46	0.750			
0.4000	25598.20	3.7960	3.7962	1.0803	25.57	0.45	0.750			
0.4032	25805.83	3.7930	3.7932	1.0954	25.56	0.44	0.750			
0.4066	26021.09	3.7900	3.7902	1.1181	25.54	0.42	0.750			
0.4101	26248.18	3.7870	3.7867	1.0979	25.53	0.41	0.750			
0.4133	26454.38	3.7840	3.7840	1.1213	25.52	0.40	0.750			
0.4167	26665.94	3.7810	3.7812	1.1451	25.50	0.38	0.750			
0.4201	26888.24	3.7780	3.7781	1.1739	25.49	0.37	0.750			
0.4237	27118.31	3.7750	3.7751	1.1737	25.48	0.36	0.750			
0.4272	27341.97	3.7720	3.7723	1.2104	25.47	0.35	0.750			
0.4309	27576.76	3.7690	3.7693	1.2468	25.46	0.34	0.750			
0.4347	27821.46	3.7660	3.7650	1.2830	25.45	0.33	0.750			
0.4385	28066.46	3.7630	3.7633	1.2944	25.44	0.32	0.750			
0.4425	28320.83	3.7600	3.7601	1.3296	25.42	0.30	0.750			
0.4468	28595.93	3.7570	3.7569	1.3367	25.41	0.29	0.750			
0.4506	28841.17	3.7540	3.7541	1.3595	25.40	0.28	0.750			
0.4547	29102.62	3.7510	3.7511	1.3949	25.39	0.27	0.750			
0.4591	29379.94	3.7480	3.7475	1.3934	25.37	0.25	0.750			
0.4633	29650.15	3.7450	3.7452	1.4227	25.36	0.24	0.750			
0.4675	29920.62	3.7420	3.7423	1.4826	25.34	0.22	0.750			
0.4721	30215.56	3.7390	3.7381	1.5135	25.32	0.20	0.750			
0.4768	30513.40	3.7360	3.7363	1.5384	25.31	0.19	0.750			
0.4816	30819.41	3.7330	3.7333	1.5938	25.29	0.17	0.750			
0.4865	31136.60	3.7300	3.7304	1.6551	25.27	0.15	0.750			
0.4916	31462.95	3.7270	3.7271	1.6981	25.26	0.14	0.750			
0.4966	31780.20	3.7240	3.7239	1.7497	25.24	0.12	0.750			
0.5018	32114.31	3.7210	3.7211	1.7835	25.23	0.11	0.750			
0.5074	32470.68	3.7180	3.7184	1.8682	25.21	0.09	0.750			
0.5131	32836.86	3.7150	3.7153	1.8989	25.19	0.07	0.750			
0.5189	33208.24	3.7120	3.7113	2.0060	25.17	0.05	0.750			
0.5250	33602.45	3.7090	3.7084	2.0576	25.15	0.03	0.750			
0.5313	34000.54	3.7060	3.7062	2.0877	25.13	0.01	0.750			
0.5377	34410.39	3.7030	3.7034	2.1827	25.11	-0.01	0.750			
0.5444	34842.86	3.7000	3.6992	2.2538	25.10	-0.02	0.750			
0.5511	35273.57	3.6970	3.6969	2.3144	25.08	-0.04	0.750			
0.5586	35748.61	3.6940	3.6940	2.3754	25.06	-0.06	0.750			
0.5656	36196.22	3.6910	3.6911	2.4586	25.05	-0.07	0.750			
0.5729	36664.37	3.6880	3.6877	2.4496	25.03	-0.09	0.750			
0.5804	37148.37	3.6850	3.6851	2.5128	25.02	-0.10	0.750			
0.5879	37627.79	3.6820	3.6816	2.5212	25.01	-0.11	0.750			
0.5958	38130.09	3.6790	3.6790	2.6012	25.00	-0.12	0.750			
0.6039	38647.33	3.6760	3.6755	2.7112	24.99	-0.13	0.750			
0.6119	39162.22	3.6730	3.6733	2.8426	24.98	-0.14	0.750			
0.6205	39711.28	3.6700	3.6701	2.9322	24.98	-0.14	0.750			
0.6294	40281.02	3.6670	3.6666	3.0556	24.98	-0.14	0.750			
0.6389	40887.47	3.6640	3.6642	2.8360	24.98	-0.14	0.750			
0.6475	41443.11	3.6610	3.6612	2.6036	24.98	-0.14	0.750			
0.6543	41877.37	3.6580	3.6579	2.2541	24.99	-0.13	0.750			
0.6602	42249.61	3.6550	3.6548	1.9492	25.00	-0.12	0.750			
0.6656	42598.51	3.6520	3.6517	1.7750	25.00	-0.12	0.750			
0.6708	42928.90	3.6490	3.6490	1.6255	25.01	-0.11	0.750			
0.6753	43222.15	3.6460	3.6462	1.4857	25.01	-0.11	0.750			
0.6796	43494.68	3.6430	3.6431	1.3535	25.02	-0.10	0.750			
0.6834	43736.21	3.6400	3.6401	1.2327	25.02	-0.10	0.750			
0.6869	43964.36	3.6370	3.6370	1.1266	25.02	-0.10	0.750			
0.6900	44162.99	3.6340	3.6341	1.0587	25.03	-0.09	0.750			
0.6930	44351.96	3.6310	3.6311	1.0169	25.03	-0.09	0.750			
0.6959	44538.87	3.6280	3.6281	0.9769	25.04	-0.08	0.750			
0.6988	44725.18	3.6250	3.6251	0.9505	25.05	-0.07	0.750			
0.7017	44907.22	3.6220	3.6221	0.9346	25.05	-0.07	0.750			
0.7045	45086.68	3.6190	3.6192	0.9127	25.06	-0.06	0.750			
0.7073	45267.05	3.6160	3.6159	0.8662	25.07	-0.05	0.750			
0.7098	45429.42	3.6130	3.6129	0.8160	25.08	-0.04	0.750			
0.7122	45581.91	3.6100	3.6102	0.7633	25.09	-0.03	0.750			
0.7145	45725.92	3.6070	3.6072	0.7076	25.10	-0.02	0.750			
0.7165	45857.00	3.6040	3.6043	0.6397	25.10	-0.02	0.750			
0.7183	45971.96	3.6010	3.6011	0.5726	25.11	-0.01	0.750			
0.7199	46073.80	3.5980	3.5982	0.5116	25.11	-0.01	0.750			
0.7214	46166.72	3.5950	3.5950	0.4559	25.12	-0.00	0.750			
0.7226	46246.68	3.5920	3.5920	0.3953	25.12	0.00	0.750			
0.7237	46318.47	3.5890	3.5890	0.3451	25.13	0.01	0.750			
0.7247	46380.22	3.5860	3.5860	0.2962	25.13	0.01	0.750			
0.7255	46432.76	3.5830	3.5830	0.2458	25.13	0.01	0.750			
0.7262	46474.83	3.5800	3.5801	0.1923	25.13	0.01	0.750			
0.7267	46507.22	3.5770	3.5772	0.1390	25.13	0.01	0.750			
0.7270	46528.83	3.5740	3.5746	0.0817	25.14	0.02	0.750			
