Ah_balance (normalized)	Ah_balance (mAh)	Voltage - fit (V)	Voltage -  interpolate (V)	dQ/dV (1/V)	Temperature (°C)	Temperature - diff (°C)	Current (C)	R_DC 0ms (mOhm)	R_DC 50ms (mOhm)	R_DC 50 ms PEC (mOhm)
0.0487	3118.70	4.1970	4.1970	0.6997	25.47	0.48	0.750			
0.0509	3255.32	4.1940	4.1942	0.7216	25.47	0.48	0.750			
0.0531	3396.66	4.1910	4.1905	0.7387	25.47	0.48	0.750			
0.0553	3540.77	4.1880	4.1882	0.7481	25.47	0.48	0.750			
0.0576	3686.55	4.1850	4.1851	0.7477	25.47	0.48	0.750			
0.0599	3832.71	4.1820	4.1820	0.7589	25.47	0.48	0.750			
0.0621	3977.08	4.1790	4.1790	0.7531	25.47	0.48	0.750			
0.0644	4122.31	4.1760	4.1760	0.7592	25.47	0.48	0.750			
0.0667	4268.26	4.1730	4.1731	0.7598	25.47	0.48	0.750			
0.0690	4416.49	4.1700	4.1700	0.7606	25.47	0.48	0.750			
0.0713	4562.64	4.1670	4.1671	0.7604	25.47	0.48	0.750			
0.0736	4710.19	4.1640	4.1640	0.7623	25.48	0.49	0.750			
0.0758	4852.76	4.1610	4.1610	0.7568	25.48	0.49	0.750			
0.0781	4997.28	4.1580	4.1580	0.7615	25.48	0.49	0.750			
0.0804	5143.52	4.1550	4.1550	0.7664	25.48	0.49	0.750			
0.0827	5292.67	4.1520	4.1520	0.7704	25.48	0.49	0.750			
0.0850	5439.17	4.1490	4.1491	0.7585	25.48	0.49	0.750			
0.0872	5583.27	4.1460	4.1462	0.7579	25.48	0.49	0.750			
0.0895	5727.08	4.1430	4.1432	0.7666	25.48	0.49	0.750			
0.0918	5872.47	4.1400	4.1402	0.7697	25.48	0.49	0.750			
0.0941	6022.60	4.1370	4.1371	0.7703	25.49	0.50	0.750			
0.0965	6173.58	4.1340	4.1341	0.7769	25.49	0.50	0.750			
0.0989	6326.94	4.1310	4.1311	0.7879	25.50	0.51	0.750			
0.1012	6474.92	4.1280	4.1281	0.7746	25.51	0.52	0.750			
0.1035	6622.26	4.1250	4.1250	0.7774	25.51	0.52	0.750			
0.1058	6771.19	4.1220	4.1221	0.7780	25.51	0.52	0.750			
0.1082	6921.71	4.1190	4.1190	0.7763	25.51	0.52	0.750			
0.1105	7071.13	4.1160	4.1160	0.7778	25.51	0.52	0.750			
0.1128	7219.84	4.1130	4.1132	0.7756	25.51	0.52	0.750			
0.1151	7367.18	4.1100	4.1097	0.7782	25.51	0.52	0.750			
0.1175	7517.83	4.1070	4.1071	0.7820	25.51	0.52	0.750			
0.1198	7668.71	4.1040	4.1040	0.7777	25.51	0.52	0.750			
0.1222	7817.67	4.1010	4.1010	0.7906	25.52	0.53	0.750			
0.1245	7970.03	4.0980	4.0980	0.7898	25.52	0.53	0.750			
0.1269	8122.25	4.0950	4.0951	0.7915	25.52	0.53	0.750			
0.1293	8274.76	4.0920	4.0922	0.7939	25.52	0.53	0.750			
0.1317	8429.79	4.0890	4.0891	0.7864	25.52	0.53	0.750			
0.1341	8579.77	4.0860	4.0859	0.7923	25.53	0.54	0.750			
0.1364	8731.19	4.0830	4.0831	0.7946	25.53	0.54	0.750			
0.1388	8880.09	4.0800	4.0801	0.7964	25.53	0.54	0.750			
0.1412	9034.68	4.0770	4.0770	0.8076	25.53	0.54	0.750			
0.1436	9191.10	4.0740	4.0740	0.8090	25.54	0.55	0.750			
0.1461	9348.00	4.0710	4.0711	0.8137	25.54	0.55	0.750			
0.1485	9505.47	4.0680	4.0680	0.8166	25.54	0.55	0.750			
0.1510	9661.06	4.0650	4.0650	0.8109	25.55	0.56	0.750			
0.1534	9817.06	4.0620	4.0620	0.8124	25.55	0.56	0.750			
0.1558	9972.81	4.0590	4.0590	0.8130	25.55	0.56	0.750			
0.1583	10130.18	4.0560	4.0560	0.8057	25.55	0.56	0.750			
0.1607	10282.14	4.0530	4.0531	0.8152	25.55	0.56	0.750			
0.1631	10436.44	4.0500	4.0501	0.8215	25.55	0.56	0.750			
0.1656	10595.30	4.0470	4.0464	0.8286	25.55	0.56	0.750			
0.1681	10755.45	4.0440	4.0440	0.8347	25.55	0.56	0.750			
0.1706	10917.25	4.0410	4.0412	0.8333	25.56	0.57	0.750			
0.1731	11080.75	4.0380	4.0381	0.8395	25.56	0.57	0.750			
0.1756	11238.33	4.0350	4.0350	0.8330	25.57	0.58	0.750			
0.1781	11399.93	4.0320	4.0318	0.8395	25.57	0.58	0.750			
0.1806	11560.97	4.0290	4.0290	0.8401	25.57	0.58	0.750			
0.1832	11723.09	4.0260	4.0261	0.8479	25.57	0.58	0.750			
0.1858	11889.06	4.0230	4.0230	0.8523	25.58	0.59	0.750			
0.1883	12050.60	4.0200	4.0200	0.8478	25.58	0.59	0.750			
0.1909	12214.51	4.0170	4.0170	0.8524	25.58	0.59	0.750			
0.1934	12378.30	4.0140	4.0141	0.8534	25.58	0.59	0.750			
0.1960	12543.55	4.0110	4.0110	0.8458	25.58	0.59	0.750			
0.1985	12701.97	4.0080	4.0082	0.8522	25.59	0.60	0.750			
0.2010	12863.15	4.0050	4.0052	0.8570	25.59	0.60	0.750			
0.2036	13029.16	4.0020	4.0020	0.8643	25.59	0.60	0.750			
0.2062	13197.38	3.9990	3.9991	0.8652	25.60	0.61	0.750			
0.2088	13366.04	3.9960	3.9961	0.8748	25.60	0.61	0.750			
0.2115	13536.30	3.9930	3.9931	0.8787	25.60	0.61	0.750			
0.2141	13702.64	3.9900	3.9901	0.8676	25.61	0.62	0.750			
0.2167	13868.84	3.9870	3.9870	0.8710	25.61	0.62	0.750			
0.2193	14036.61	3.9840	3.9841	0.8715	25.61	0.62	0.750			
0.2220	14204.91	3.9810	3.9811	0.8788	25.62	0.63	0.750			
0.2246	14375.91	3.9780	3.9780	0.8859	25.62	0.63	0.750			
0.2273	14544.26	3.9750	3.9749	0.8807	25.62	0.63	0.750			
0.2299	14713.23	3.9720	3.9721	0.8827	25.62	0.63	0.750			
0.2326	14883.68	3.9690	3.9690	0.8758	25.62	0.63	0.750			
0.2352	15050.32	3.9660	3.9661	0.8786	25.62	0.63	0.750			
0.2378	15216.54	3.9630	3.9631	0.8836	25.62	0.63	0.750			
0.2404	15386.36	3.9600	3.9594	0.8931	25.62	0.63	0.750			
0.2431	15560.38	3.9570	3.9571	0.8931	25.62	0.63	0.750			
0.2458	15733.60	3.9540	3.9541	0.8973	25.62	0.63	0.750			
0.2486	15909.29	3.9510	3.9511	0.9016	25.63	0.64	0.750			
0.2513	16084.93	3.9480	3.9480	0.9058	25.63	0.64	0.750			
0.2539	16250.64	3.9450	3.9451	0.8905	25.63	0.64	0.750			
0.2566	16421.55	3.9420	3.9420	0.8924	25.63	0.64	0.750			
0.2593	16592.88	3.9390	3.9390	0.8971	25.63	0.64	0.750			
0.2620	16768.15	3.9360	3.9360	0.9031	25.63	0.64	0.750			
0.2647	16940.43	3.9330	3.9330	0.8973	25.63	0.64	0.750			
0.2674	17113.45	3.9300	3.9301	0.8965	25.63	0.64	0.750			
0.2701	17284.99	3.9270	3.9270	0.8886	25.63	0.64	0.750			
0.2727	17452.64	3.9240	3.9241	0.8867	25.63	0.64	0.750			
0.2753	17621.32	3.9210	3.9211	0.8889	25.63	0.64	0.750			
0.2780	17791.56	3.9180	3.9175	0.8926	25.63	0.64	0.750			
0.2807	17965.65	3.9150	3.9152	0.8932	25.63	0.64	0.750			
0.2834	18137.32	3.9120	3.9121	0.8978	25.63	0.64	0.750			
0.2861	18312.25	3.9090	3.9091	0.9038	25.62	0.63	0.750			
0.2889	18488.24	3.9060	3.9061	0.9092	25.62	0.63	0.750			
0.2915	18657.20	3.9030	3.9031	0.8945	25.62	0.63	0.750			
0.2942	18829.86	3.9000	3.9001	0.8912	25.61	0.62	0.750			
0.2969	18999.24	3.8970	3.8971	0.8958	25.61	0.62	0.750			
0.2996	19171.79	3.8940	3.8940	0.8957	25.61	0.62	0.750			
0.3022	19343.40	3.8910	3.8908	0.8924	25.60	0.61	0.750			
0.3049	19514.38	3.8880	3.8881	0.8920	25.60	0.61	0.750			
0.3076	19687.17	3.8850	3.8851	0.8818	25.59	0.60	0.750			
0.3103	19856.41	3.8820	3.8821	0.8855	25.59	0.60	0.750			
0.3128	20021.47	3.8790	3.8791	0.8871	25.58	0.59	0.750			
0.3155	20191.55	3.8760	3.8755	0.8948	25.58	0.59	0.750			
0.3183	20369.05	3.8730	3.8731	0.8909	25.57	0.58	0.750			
0.3209	20538.60	3.8700	3.8702	0.9021	25.57	0.58	0.750			
0.3237	20715.85	3.8670	3.8671	0.9128	25.56	0.57	0.750			
0.3265	20894.10	3.8640	3.8641	0.9228	25.55	0.56	0.750			
0.3291	21062.38	3.8610	3.8609	0.9133	25.55	0.56	0.750			
0.3319	21239.85	3.8580	3.8582	0.9131	25.54	0.55	0.750			
0.3347	21417.76	3.8550	3.8551	0.9202	25.54	0.55	0.750			
0.3374	21595.76	3.8520	3.8520	0.9227	25.53	0.54	0.750			
0.3402	21772.35	3.8490	3.8487	0.9089	25.53	0.54	0.750			
0.3430	21950.36	3.8460	3.8459	0.9057	25.52	0.53	0.750			
0.3456	22119.67	3.8430	3.8431	0.9232	25.51	0.52	0.750			
0.3484	22295.14	3.8400	3.8401	0.9362	25.50	0.51	0.750	0.317	0.440	
0.3512	22477.55	3.8370	3.8373	0.9548	25.49	0.50	0.750			
0.3541	22661.45	3.8340	3.8341	0.9647	25.49	0.50	0.750			
0.3570	22849.45	3.8310	3.8312	0.9620	25.48	0.49	0.750			
0.3600	23038.10	3.8280	3.8281	0.9725	25.47	0.48	0.750			
0.3629	23222.68	3.8250	3.8251	0.9707	25.47	0.48	0.750			
0.3657	23406.25	3.8220	3.8218	0.9675	25.46	0.47	0.750			
0.3686	23592.27	3.8190	3.8192	0.9754	25.45	0.46	0.750			
0.3716	23780.14	3.8160	3.8160	0.9905	25.44	0.45	0.750			
0.3746	23974.00	3.8130	3.8130	1.0058	25.43	0.44	0.750			
0.3776	24167.36	3.8100	3.8098	1.0077	25.42	0.43	0.750			
0.3807	24362.81	3.8070	3.8071	1.0154	25.41	0.42	0.750			
0.3837	24558.42	3.8040	3.8041	1.0294	25.40	0.41	0.750			
0.3868	24755.28	3.8010	3.8011	1.0423	25.39	0.40	0.750			
0.3899	24955.48	3.7980	3.7973	1.0519	25.38	0.39	0.750			
0.3931	25158.76	3.7950	3.7952	1.0571	25.37	0.38	0.750			
0.3963	25362.54	3.7920	3.7921	1.0743	25.36	0.37	0.750			
0.3995	25569.24	3.7890	3.7892	1.0986	25.35	0.36	0.750			
0.4029	25785.31	3.7860	3.7854	1.1133	25.34	0.35	0.750			
0.4062	25995.79	3.7830	3.7831	1.1261	25.33	0.34	0.750			
0.4096	26214.84	3.7800	3.7802	1.1516	25.32	0.33	0.750			
0.4131	26440.16	3.7770	3.7770	1.1787	25.31	0.32	0.750			
0.4167	26670.51	3.7740	3.7740	1.1667	25.30	0.31	0.750			
0.4202	26891.02	3.7710	3.7711	1.1980	25.29	0.30	0.750			
0.4238	27120.93	3.7680	3.7681	1.2311	25.28	0.29	0.750			
0.4276	27367.55	3.7650	3.7641	1.2375	25.27	0.28	0.750			
0.4313	27603.81	3.7620	3.7622	1.2766	25.26	0.27	0.750			
0.4352	27851.78	3.7590	3.7593	1.3093	25.24	0.25	0.750			
0.4392	28107.77	3.7560	3.7559	1.3373	25.22	0.23	0.750			
0.4433	28370.26	3.7530	3.7531	1.3838	25.21	0.22	0.750			
0.4473	28628.22	3.7500	3.7502	1.3960	25.20	0.21	0.750			
0.4516	28905.43	3.7470	3.7469	1.4151	25.18	0.19	0.750			
0.4561	29187.68	3.7440	3.7440	1.4212	25.17	0.18	0.750			
0.4602	29452.07	3.7410	3.7413	1.4721	25.16	0.17	0.750			
0.4648	29744.74	3.7380	3.7375	1.4840	25.14	0.15	0.750			
0.4692	30031.90	3.7350	3.7349	1.5104	25.13	0.14	0.750			
0.4737	30317.70	3.7320	3.7318	1.6000	25.12	0.13	0.750			
0.4788	30642.99	3.7290	3.7292	1.6377	25.11	0.12	0.750			
0.4839	30967.11	3.7260	3.7256	1.7114	25.09	0.10	0.750			
0.4890	31293.60	3.7230	3.7233	1.7526	25.07	0.08	0.750			
0.4942	31626.53	3.7200	3.7196	1.7789	25.06	0.07	0.750			
0.4995	31970.70	3.7170	3.7170	1.8476	25.05	0.06	0.750			
0.5051	32324.27	3.7140	3.7140	1.8890	25.03	0.04	0.750			
0.5109	32698.29	3.7110	3.7109	1.9570	25.02	0.03	0.750			
0.5170	33090.74	3.7080	3.7083	1.9831	25.01	0.02	0.750			
0.5232	33485.69	3.7050	3.7052	2.0306	24.99	0.00	0.750			
0.5291	33861.66	3.7020	3.7021	2.1124	24.98	-0.01	0.750			
0.5357	34284.87	3.6990	3.6987	2.1592	24.96	-0.03	0.750			
0.5423	34709.01	3.6960	3.6957	2.3426	24.94	-0.05	0.750			
0.5493	35158.36	3.6930	3.6933	2.2975	24.93	-0.06	0.750			
0.5564	35606.58	3.6900	3.6899	2.3567	24.91	-0.08	0.750			
0.5635	36065.68	3.6870	3.6868	2.3780	24.90	-0.09	0.750			
0.5708	36534.02	3.6840	3.6841	2.4829	24.90	-0.09	0.750			
0.5789	37048.56	3.6810	3.6810	2.5622	24.89	-0.10	0.750			
0.5865	37537.88	3.6780	3.6779	2.5633	24.88	-0.11	0.750			
0.5939	38011.20	3.6750	3.6746	2.4192	24.87	-0.12	0.750			
0.6016	38499.41	3.6720	3.6720	2.4916	24.86	-0.13	0.750			
0.6085	38946.02	3.6690	3.6694	2.3171	24.86	-0.13	0.750			
0.6150	39360.60	3.6660	3.6654	2.0992	24.87	-0.12	0.750			
0.6212	39755.23	3.6630	3.6635	1.9813	24.87	-0.12	0.750			
0.6271	40131.75	3.6600	3.6601	1.8881	24.88	-0.11	0.750			
0.6326	40488.73	3.6570	3.6573	1.7944	24.88	-0.11	0.750			
0.6377	40812.87	3.6540	3.6543	1.6211	24.89	-0.10	0.750			
0.6422	41102.42	3.6510	3.6513	1.4942	24.89	-0.10	0.750			
0.6468	41393.26	3.6480	3.6480	1.4163	24.90	-0.09	0.750			
0.6507	41642.91	3.6450	3.6450	1.3076	24.90	-0.09	0.750			
0.6543	41877.12	3.6420	3.6421	1.1866	24.90	-0.09	0.750			
0.6578	42096.75	3.6390	3.6392	1.1363	24.91	-0.08	0.750			
0.6610	42306.58	3.6360	3.6362	1.0863	24.91	-0.08	0.750			
0.6642	42510.10	3.6330	3.6329	1.0413	24.92	-0.07	0.750			
0.6672	42702.06	3.6300	3.6301	0.9860	24.93	-0.06	0.750			
0.6701	42886.94	3.6270	3.6271	0.9506	24.94	-0.05	0.750			
0.6729	43067.41	3.6240	3.6241	0.9176	24.94	-0.05	0.750			
0.6757	43244.01	3.6210	3.6210	0.8869	24.95	-0.04	0.750			
0.6782	43404.90	3.6180	3.6179	0.8391	24.96	-0.03	0.750			
0.6808	43569.50	3.6150	3.6149	0.7831	24.97	-0.02	0.750			
0.6831	43718.96	3.6120	3.6119	0.7310	24.97	-0.02	0.750			
0.6852	43852.47	3.6090	3.6092	0.6862	24.98	-0.01	0.750			
0.6871	43977.03	3.6060	3.6064	0.6371	24.98	-0.01	0.750			
0.6889	44091.11	3.6030	3.6027	0.5853	24.99	-0.00	0.750			
0.6906	44198.24	3.6000	3.5999	0.5400	24.99	0.00	0.750			
0.6921	44297.19	3.5970	3.5973	0.4912	24.99	0.00	0.750			
0.6936	44391.17	3.5940	3.5941	0.4508	25.00	0.01	0.750			
0.6950	44478.40	3.5910	3.5908	0.4046	25.00	0.01	0.750			
0.6960	44545.37	3.5880	3.5880	0.3383	25.00	0.01	0.750			
0.6970	44605.84	3.5850	3.5850	0.2888	25.01	0.02	0.750			
0.6978	44656.50	3.5820	3.5820	0.2376	25.01	0.02	0.750			
0.6984	44697.31	3.5790	3.5790	0.1860	25.01	0.02	0.750			
0.6989	44727.85	3.5760	3.5763	0.1346	25.01	0.02	0.750			
0.6992	44748.83	3.5730	3.5738	0.0773	25.01	0.02	0.750			
