Ah_balance (normalized)	Ah_balance (mAh)	Voltage - fit (V)	Voltage -  interpolate (V)	dQ/dV (1/V)	Temperature (°C)	Temperature - diff (°C)	Current (C)	R_DC 0ms (mOhm)	R_DC 50ms (mOhm)	R_DC 50 ms PEC (mOhm)
0.0475	3040.78	4.1980	4.1981	0.7344	25.51	0.57	0.750			
0.0497	3182.64	4.1950	4.1949	0.7435	25.51	0.57	0.750			
0.0520	3327.47	4.1920	4.1921	0.7523	25.51	0.57	0.750			
0.0543	3473.07	4.1890	4.1889	0.7538	25.51	0.57	0.750			
0.0565	3617.41	4.1860	4.1860	0.7507	25.51	0.57	0.750			
0.0588	3761.13	4.1830	4.1832	0.7502	25.51	0.57	0.750			
0.0610	3904.73	4.1800	4.1800	0.7538	25.51	0.57	0.750			
0.0633	4049.33	4.1770	4.1767	0.7563	25.51	0.57	0.750			
0.0655	4195.01	4.1740	4.1741	0.7610	25.51	0.57	0.750			
0.0679	4345.82	4.1710	4.1710	0.7576	25.51	0.57	0.750			
0.0701	4489.12	4.1680	4.1680	0.7644	25.51	0.57	0.750			
0.0724	4633.55	4.1650	4.1651	0.7627	25.51	0.57	0.750			
0.0747	4780.65	4.1620	4.1620	0.7657	25.51	0.57	0.750			
0.0770	4927.72	4.1590	4.1591	0.7697	25.51	0.57	0.750			
0.0793	5076.86	4.1560	4.1562	0.7700	25.51	0.57	0.750			
0.0817	5226.88	4.1530	4.1530	0.7720	25.51	0.57	0.750			
0.0840	5376.57	4.1500	4.1500	0.7755	25.51	0.57	0.750			
0.0863	5521.48	4.1470	4.1470	0.7643	25.51	0.57	0.750			
0.0886	5667.94	4.1440	4.1440	0.7668	25.51	0.57	0.750			
0.0909	5815.82	4.1410	4.1410	0.7683	25.51	0.57	0.750			
0.0932	5965.19	4.1380	4.1379	0.7588	25.51	0.57	0.750			
0.0954	6108.65	4.1350	4.1351	0.7723	25.51	0.57	0.750			
0.0978	6256.51	4.1320	4.1321	0.7751	25.51	0.57	0.750			
0.1001	6405.87	4.1290	4.1286	0.7789	25.51	0.57	0.750			
0.1024	6556.30	4.1260	4.1262	0.7860	25.51	0.57	0.750			
0.1049	6713.47	4.1230	4.1230	0.7731	25.51	0.57	0.750			
0.1072	6859.53	4.1200	4.1201	0.7821	25.51	0.57	0.750			
0.1095	7008.12	4.1170	4.1171	0.7771	25.51	0.57	0.750			
0.1118	7156.69	4.1140	4.1142	0.7835	25.51	0.57	0.750			
0.1142	7307.44	4.1110	4.1109	0.7904	25.51	0.57	0.750			
0.1166	7460.33	4.1080	4.1082	0.7940	25.52	0.58	0.750			
0.1190	7615.22	4.1050	4.1051	0.7982	25.52	0.58	0.750			
0.1214	7771.23	4.1020	4.1020	0.8004	25.52	0.58	0.750			
0.1238	7922.26	4.0990	4.0991	0.7898	25.53	0.59	0.750			
0.1262	8074.97	4.0960	4.0960	0.7940	25.53	0.59	0.750			
0.1285	8227.02	4.0930	4.0930	0.7957	25.53	0.59	0.750			
0.1309	8379.15	4.0900	4.0900	0.7920	25.53	0.59	0.750			
0.1333	8530.80	4.0870	4.0871	0.7943	25.52	0.58	0.750			
0.1357	8682.87	4.0840	4.0841	0.8035	25.52	0.58	0.750			
0.1381	8837.37	4.0810	4.0805	0.8091	25.52	0.58	0.750			
0.1405	8993.80	4.0780	4.0781	0.8094	25.52	0.58	0.750			
0.1430	9150.40	4.0750	4.0751	0.8139	25.52	0.58	0.750			
0.1454	9304.89	4.0720	4.0721	0.8063	25.53	0.59	0.750			
0.1478	9459.45	4.0690	4.0691	0.8131	25.53	0.59	0.750			
0.1502	9610.12	4.0660	4.0655	0.8096	25.53	0.59	0.750			
0.1526	9764.64	4.0630	4.0632	0.8203	25.53	0.59	0.750			
0.1551	9925.21	4.0600	4.0602	0.8269	25.53	0.59	0.750			
0.1576	10087.44	4.0570	4.0571	0.8348	25.54	0.60	0.750			
0.1602	10254.84	4.0540	4.0539	0.8498	25.54	0.60	0.750			
0.1626	10409.59	4.0510	4.0509	0.8290	25.54	0.60	0.750			
0.1651	10568.55	4.0480	4.0480	0.8308	25.54	0.60	0.750			
0.1677	10730.78	4.0450	4.0450	0.8202	25.54	0.60	0.750			
0.1701	10885.60	4.0420	4.0420	0.8278	25.55	0.61	0.750			
0.1726	11044.32	4.0390	4.0391	0.8315	25.55	0.61	0.750			
0.1751	11203.51	4.0360	4.0357	0.8371	25.55	0.61	0.750			
0.1776	11365.19	4.0330	4.0331	0.8410	25.55	0.61	0.750			
0.1802	11530.28	4.0300	4.0300	0.8350	25.55	0.61	0.750			
0.1827	11690.40	4.0270	4.0271	0.8454	25.55	0.61	0.750			
0.1852	11852.63	4.0240	4.0240	0.8542	25.55	0.61	0.750			
0.1877	12012.92	4.0210	4.0204	0.8513	25.55	0.61	0.750			
0.1903	12178.68	4.0180	4.0181	0.8551	25.55	0.61	0.750			
0.1929	12343.51	4.0150	4.0151	0.8596	25.55	0.61	0.750			
0.1955	12510.80	4.0120	4.0121	0.8629	25.55	0.61	0.750			
0.1981	12678.61	4.0090	4.0090	0.8698	25.55	0.61	0.750			
0.2006	12840.77	4.0060	4.0060	0.8638	25.55	0.61	0.750			
0.2033	13010.00	4.0030	4.0030	0.8555	25.55	0.61	0.750			
0.2058	13174.02	4.0000	4.0000	0.8627	25.55	0.61	0.750			
0.2084	13339.10	3.9970	3.9970	0.8655	25.55	0.61	0.750			
0.2110	13504.04	3.9940	3.9941	0.8724	25.55	0.61	0.750			
0.2136	13672.16	3.9910	3.9909	0.8764	25.55	0.61	0.750			
0.2163	13842.48	3.9880	3.9880	0.8712	25.55	0.61	0.750			
0.2189	14009.42	3.9850	3.9852	0.8780	25.55	0.61	0.750			
0.2216	14179.77	3.9820	3.9820	0.8850	25.56	0.62	0.750			
0.2242	14347.72	3.9790	3.9791	0.8814	25.56	0.62	0.750			
0.2268	14516.78	3.9760	3.9761	0.8857	25.56	0.62	0.750			
0.2295	14687.87	3.9730	3.9731	0.8871	25.56	0.62	0.750			
0.2322	14861.60	3.9700	3.9700	0.8945	25.56	0.62	0.750			
0.2349	15035.63	3.9670	3.9670	0.9009	25.56	0.62	0.750			
0.2376	15204.71	3.9640	3.9639	0.8931	25.56	0.62	0.750			
0.2403	15379.15	3.9610	3.9609	0.8876	25.56	0.62	0.750			
0.2429	15548.21	3.9580	3.9580	0.8900	25.56	0.62	0.750			
0.2456	15718.51	3.9550	3.9550	0.8914	25.55	0.61	0.750			
0.2483	15889.14	3.9520	3.9521	0.8968	25.55	0.61	0.750			
0.2510	16060.95	3.9490	3.9488	0.8975	25.55	0.61	0.750			
0.2537	16238.37	3.9460	3.9460	0.8817	25.55	0.61	0.750			
0.2563	16404.87	3.9430	3.9431	0.8903	25.55	0.61	0.750			
0.2590	16575.30	3.9400	3.9401	0.8954	25.56	0.62	0.750			
0.2617	16745.70	3.9370	3.9372	0.8979	25.56	0.62	0.750			
0.2643	16916.77	3.9340	3.9340	0.9063	25.56	0.62	0.750			
0.2671	17092.37	3.9310	3.9312	0.9105	25.56	0.62	0.750			
0.2699	17271.19	3.9280	3.9280	0.9205	25.55	0.61	0.750			
0.2727	17451.42	3.9250	3.9250	0.9190	25.55	0.61	0.750			
0.2754	17625.44	3.9220	3.9219	0.9070	25.55	0.61	0.750			
0.2782	17802.29	3.9190	3.9190	0.9017	25.55	0.61	0.750			
0.2808	17973.77	3.9160	3.9159	0.9028	25.55	0.61	0.750			
0.2835	18144.96	3.9130	3.9130	0.9035	25.55	0.61	0.750			
0.2862	18318.99	3.9100	3.9101	0.9077	25.55	0.61	0.750			
0.2889	18492.72	3.9070	3.9071	0.9105	25.55	0.61	0.750			
0.2918	18672.45	3.9040	3.9040	0.8914	25.55	0.61	0.750			
0.2944	18842.24	3.9010	3.9011	0.9011	25.54	0.60	0.750			
0.2971	19013.45	3.8980	3.8982	0.9110	25.54	0.60	0.750			
0.2998	19185.86	3.8950	3.8951	0.9146	25.54	0.60	0.750			
0.3026	19363.34	3.8920	3.8922	0.9184	25.54	0.60	0.750			
0.3053	19540.56	3.8890	3.8891	0.9269	25.54	0.60	0.750			
0.3082	19721.87	3.8860	3.8861	0.9291	25.53	0.59	0.750			
0.3111	19907.55	3.8830	3.8829	0.9334	25.53	0.59	0.750			
0.3137	20079.48	3.8800	3.8800	0.9193	25.53	0.59	0.750			
0.3165	20257.63	3.8770	3.8770	0.9056	25.52	0.58	0.750			
0.3192	20429.43	3.8740	3.8740	0.9095	25.51	0.57	0.750			
0.3219	20603.89	3.8710	3.8711	0.9118	25.51	0.57	0.750			
0.3246	20777.29	3.8680	3.8679	0.9112	25.50	0.56	0.750			
0.3274	20952.65	3.8650	3.8651	0.9172	25.50	0.56	0.750			
0.3302	21130.63	3.8620	3.8620	0.9042	25.49	0.55	0.750			
0.3328	21300.67	3.8590	3.8591	0.9162	25.48	0.54	0.750			
0.3356	21476.82	3.8560	3.8562	0.9180	25.48	0.54	0.750			
0.3383	21653.70	3.8530	3.8523	0.9271	25.47	0.53	0.750			
0.3411	21832.95	3.8500	3.8502	0.9320	25.46	0.52	0.750			
0.3440	22014.72	3.8470	3.8471	0.9339	25.45	0.51	0.750			
0.3468	22193.29	3.8440	3.8441	0.9364	25.44	0.50	0.750			
0.3495	22367.87	3.8410	3.8411	0.9337	25.43	0.49	0.750			
0.3523	22550.16	3.8380	3.8382	0.9379	25.42	0.48	0.750	0.338	0.435	
0.3552	22729.93	3.8350	3.8354	0.9580	25.41	0.47	0.750			
0.3581	22915.58	3.8320	3.8323	0.9728	25.41	0.47	0.750			
0.3611	23107.60	3.8290	3.8292	0.9880	25.40	0.46	0.750			
0.3641	23302.91	3.8260	3.8258	0.9978	25.39	0.45	0.750			
0.3670	23487.63	3.8230	3.8232	0.9760	25.38	0.44	0.750			
0.3699	23675.80	3.8200	3.8201	0.9873	25.37	0.43	0.750			
0.3729	23866.86	3.8170	3.8171	0.9982	25.37	0.43	0.750			
0.3759	24057.83	3.8140	3.8141	0.9986	25.36	0.42	0.750			
0.3789	24250.57	3.8110	3.8111	1.0101	25.35	0.41	0.750			
0.3820	24445.50	3.8080	3.8080	1.0210	25.33	0.39	0.750			
0.3851	24644.72	3.8050	3.8051	1.0372	25.32	0.38	0.750			
0.3882	24842.00	3.8020	3.8019	1.0398	25.31	0.37	0.750			
0.3913	25044.45	3.7990	3.7990	1.0444	25.30	0.36	0.750			
0.3944	25243.98	3.7960	3.7960	1.0574	25.29	0.35	0.750			
0.3976	25447.21	3.7930	3.7931	1.0751	25.28	0.34	0.750			
0.4009	25654.99	3.7900	3.7900	1.0980	25.27	0.33	0.750			
0.4042	25866.99	3.7870	3.7870	1.0933	25.26	0.32	0.750			
0.4074	26074.58	3.7840	3.7841	1.1221	25.25	0.31	0.750			
0.4108	26291.84	3.7810	3.7812	1.1475	25.24	0.30	0.750			
0.4143	26514.32	3.7780	3.7782	1.1649	25.23	0.29	0.750			
0.4178	26740.09	3.7750	3.7753	1.1893	25.21	0.27	0.750			
0.4214	26971.13	3.7720	3.7721	1.2181	25.20	0.26	0.750			
0.4252	27212.57	3.7690	3.7688	1.2371	25.19	0.25	0.750			
0.4289	27448.46	3.7660	3.7660	1.2468	25.18	0.24	0.750			
0.4327	27689.97	3.7630	3.7631	1.2718	25.17	0.23	0.750			
0.4365	27937.30	3.7600	3.7601	1.3081	25.15	0.21	0.750			
0.4405	28190.73	3.7570	3.7570	1.3143	25.14	0.20	0.750			
0.4444	28440.17	3.7540	3.7541	1.3508	25.13	0.19	0.750			
0.4485	28702.70	3.7510	3.7512	1.3816	25.12	0.18	0.750			
0.4528	28978.53	3.7480	3.7481	1.3984	25.11	0.17	0.750			
0.4569	29243.42	3.7450	3.7452	1.4448	25.10	0.16	0.750			
0.4613	29525.25	3.7420	3.7421	1.4761	25.09	0.15	0.750			
0.4659	29817.50	3.7390	3.7390	1.4830	25.07	0.13	0.750			
0.4703	30099.47	3.7360	3.7363	1.5129	25.06	0.12	0.750			
0.4749	30393.70	3.7330	3.7328	1.5603	25.04	0.10	0.750			
0.4797	30700.18	3.7300	3.7296	1.6159	25.03	0.09	0.750			
0.4846	31012.99	3.7270	3.7270	1.6838	25.01	0.07	0.750			
0.4898	31348.35	3.7240	3.7242	1.7303	25.00	0.06	0.750			
0.4951	31688.54	3.7210	3.7213	1.8328	24.98	0.04	0.750			
0.5007	32042.32	3.7180	3.7183	1.8491	24.97	0.03	0.750			
0.5062	32398.47	3.7150	3.7154	1.8941	24.96	0.02	0.750			
0.5119	32762.85	3.7120	3.7120	1.9355	24.94	0.00	0.750			
0.5177	33134.08	3.7090	3.7091	1.9684	24.93	-0.01	0.750			
0.5237	33516.43	3.7060	3.7064	2.0352	24.92	-0.02	0.750			
0.5300	33921.10	3.7030	3.7028	2.1438	24.91	-0.03	0.750			
0.5365	34335.72	3.7000	3.6999	2.1328	24.88	-0.06	0.750			
0.5432	34762.47	3.6970	3.6973	2.2915	24.87	-0.07	0.750			
0.5498	35186.32	3.6940	3.6939	2.2707	24.86	-0.08	0.750			
0.5567	35630.92	3.6910	3.6912	2.3808	24.85	-0.09	0.750			
0.5640	36096.95	3.6880	3.6877	2.4468	24.84	-0.10	0.750			
0.5716	36579.86	3.6850	3.6849	2.4574	24.83	-0.11	0.750			
0.5789	37051.97	3.6820	3.6821	2.6012	24.82	-0.12	0.750			
0.5866	37543.06	3.6790	3.6792	2.5769	24.81	-0.13	0.750			
0.5943	38037.33	3.6760	3.6763	2.6396	24.80	-0.14	0.750			
0.6023	38547.74	3.6730	3.6730	2.6381	24.80	-0.14	0.750			
0.6100	39037.95	3.6700	3.6692	2.6749	24.80	-0.14	0.750			
0.6178	39538.90	3.6670	3.6674	2.5433	24.81	-0.13	0.750			
0.6255	40030.30	3.6640	3.6636	2.5426	24.82	-0.12	0.750			
0.6326	40484.33	3.6610	3.6613	2.3000	24.83	-0.11	0.750			
0.6388	40884.95	3.6580	3.6577	2.0126	24.84	-0.10	0.750			
0.6444	41244.43	3.6550	3.6549	1.8282	24.85	-0.09	0.750			
0.6496	41575.86	3.6520	3.6518	1.6242	24.85	-0.09	0.750			
0.6538	41844.52	3.6490	3.6491	1.4526	24.86	-0.08	0.750			
0.6579	42105.93	3.6460	3.6460	1.3210	24.86	-0.08	0.750			
0.6616	42345.59	3.6430	3.6429	1.2320	24.87	-0.07	0.750			
0.6652	42574.60	3.6400	3.6400	1.1481	24.87	-0.07	0.750			
0.6685	42780.85	3.6370	3.6370	1.0901	24.88	-0.06	0.750			
0.6716	42983.55	3.6340	3.6341	1.0450	24.88	-0.06	0.750			
0.6747	43177.91	3.6310	3.6308	1.0039	24.89	-0.05	0.750			
0.6776	43365.71	3.6280	3.6280	0.9653	24.90	-0.04	0.750			
0.6804	43546.97	3.6250	3.6251	0.9336	24.90	-0.04	0.750			
0.6832	43723.35	3.6220	3.6220	0.9040	24.91	-0.03	0.750			
0.6859	43898.84	3.6190	3.6189	0.8698	24.92	-0.02	0.750			
0.6884	44060.29	3.6160	3.6160	0.8188	24.92	-0.02	0.750			
0.6909	44216.38	3.6130	3.6130	0.7713	24.92	-0.02	0.750			
0.6931	44361.24	3.6100	3.6100	0.7194	24.93	-0.01	0.750			
0.6952	44494.62	3.6070	3.6070	0.6583	24.93	-0.01	0.750			
0.6971	44613.74	3.6040	3.6040	0.5966	24.93	-0.01	0.750			
0.6988	44721.24	3.6010	3.6010	0.5389	24.94	-0.00	0.750			
0.7003	44819.61	3.5980	3.5976	0.4865	24.94	-0.00	0.750			
0.7017	44906.95	3.5950	3.5950	0.4347	24.94	0.00	0.750			
0.7029	44985.16	3.5920	3.5920	0.3840	24.94	0.00	0.750			
0.7040	45054.60	3.5890	3.5890	0.3338	24.95	0.01	0.750			
0.7049	45114.91	3.5860	3.5858	0.2859	24.95	0.01	0.750			
0.7057	45164.07	3.5830	3.5831	0.2334	24.95	0.01	0.750			
0.7063	45204.52	3.5800	3.5801	0.1819	24.95	0.01	0.750			
0.7068	45234.94	3.5770	3.5773	0.1270	24.95	0.01	0.750			
0.7071	45253.92	3.5740	3.5748	0.0662	24.95	0.01	0.750			
