Ah_balance (normalized)	Ah_balance (mAh)	Voltage - fit (V)	Voltage -  interpolate (V)	dQ/dV (1/V)	Temperature (°C)	Temperature - diff (°C)	Current (C)	R_DC 0ms (mOhm)	R_DC 50ms (mOhm)	R_DC 50 ms PEC (mOhm)
0.0467	2989.01	4.1980	4.1980	0.7531	25.55	0.57	0.750			
0.0490	3134.70	4.1950	4.1950	0.7629	25.55	0.57	0.750			
0.0513	3282.16	4.1920	4.1919	0.7690	25.55	0.57	0.750			
0.0536	3430.97	4.1890	4.1891	0.7717	25.55	0.57	0.750			
0.0559	3580.73	4.1860	4.1860	0.7671	25.55	0.57	0.750			
0.0583	3728.13	4.1830	4.1830	0.7675	25.55	0.57	0.750			
0.0605	3874.14	4.1800	4.1802	0.7653	25.55	0.57	0.750			
0.0628	4021.17	4.1770	4.1770	0.7701	25.55	0.57	0.750			
0.0651	4168.98	4.1740	4.1741	0.7729	25.55	0.57	0.750			
0.0675	4317.92	4.1710	4.1711	0.7781	25.55	0.57	0.750			
0.0698	4468.71	4.1680	4.1680	0.7823	25.55	0.57	0.750			
0.0722	4620.01	4.1650	4.1650	0.7832	25.55	0.57	0.750			
0.0745	4769.63	4.1620	4.1620	0.7800	25.55	0.57	0.750			
0.0769	4919.22	4.1590	4.1589	0.7823	25.55	0.57	0.750			
0.0792	5069.35	4.1560	4.1560	0.7835	25.55	0.57	0.750			
0.0816	5222.11	4.1530	4.1529	0.7743	25.55	0.57	0.750			
0.0838	5365.93	4.1500	4.1501	0.7955	25.55	0.57	0.750			
0.0862	5518.02	4.1470	4.1471	0.8188	25.55	0.57	0.750			
0.0887	5676.72	4.1440	4.1437	0.8328	25.55	0.57	0.750			
0.0913	5841.45	4.1410	4.1411	0.8370	25.55	0.57	0.750			
0.0939	6009.21	4.1380	4.1383	0.8330	25.55	0.57	0.750			
0.0964	6170.74	4.1350	4.1351	0.8286	25.55	0.57	0.750			
0.0989	6330.16	4.1320	4.1320	0.8234	25.55	0.57	0.750			
0.1012	6476.84	4.1290	4.1289	0.7963	25.55	0.57	0.750			
0.1036	6630.66	4.1260	4.1261	0.8002	25.55	0.57	0.750			
0.1060	6785.54	4.1230	4.1230	0.8022	25.55	0.57	0.750			
0.1084	6939.73	4.1200	4.1201	0.8068	25.55	0.57	0.750			
0.1109	7097.10	4.1170	4.1170	0.8140	25.55	0.57	0.750			
0.1133	7251.20	4.1140	4.1139	0.8092	25.55	0.57	0.750			
0.1157	7406.96	4.1110	4.1111	0.8118	25.55	0.57	0.750			
0.1182	7564.00	4.1080	4.1080	0.8079	25.55	0.57	0.750			
0.1206	7718.46	4.1050	4.1051	0.8124	25.55	0.57	0.750			
0.1230	7874.96	4.1020	4.1020	0.8150	25.55	0.57	0.750			
0.1255	8030.28	4.0990	4.0990	0.8165	25.55	0.57	0.750			
0.1279	8187.22	4.0960	4.0960	0.8214	25.55	0.57	0.750			
0.1304	8346.52	4.0930	4.0930	0.8188	25.55	0.57	0.750			
0.1329	8504.65	4.0900	4.0901	0.8232	25.55	0.57	0.750			
0.1354	8662.46	4.0870	4.0870	0.8275	25.55	0.57	0.750			
0.1378	8820.44	4.0840	4.0841	0.8269	25.55	0.57	0.750			
0.1403	8979.25	4.0810	4.0810	0.8324	25.55	0.57	0.750			
0.1428	9140.11	4.0780	4.0780	0.8339	25.55	0.57	0.750			
0.1453	9300.98	4.0750	4.0751	0.8400	25.55	0.57	0.750			
0.1479	9463.85	4.0720	4.0721	0.8434	25.55	0.57	0.750			
0.1504	9625.87	4.0690	4.0690	0.8437	25.55	0.57	0.750			
0.1529	9787.96	4.0660	4.0660	0.8448	25.55	0.57	0.750			
0.1555	9951.91	4.0630	4.0630	0.8402	25.55	0.57	0.750			
0.1580	10111.38	4.0600	4.0600	0.8436	25.55	0.57	0.750			
0.1605	10273.63	4.0570	4.0571	0.8518	25.55	0.57	0.750			
0.1631	10436.22	4.0540	4.0540	0.8525	25.55	0.57	0.750			
0.1656	10600.81	4.0510	4.0511	0.8600	25.55	0.57	0.750			
0.1682	10767.42	4.0480	4.0481	0.8621	25.55	0.57	0.750			
0.1708	10933.83	4.0450	4.0450	0.8679	25.55	0.57	0.750			
0.1735	11102.98	4.0420	4.0420	0.8723	25.55	0.57	0.750			
0.1761	11268.15	4.0390	4.0389	0.8696	25.55	0.57	0.750			
0.1787	11435.28	4.0360	4.0361	0.8735	25.55	0.57	0.750			
0.1813	11604.24	4.0330	4.0330	0.8774	25.55	0.57	0.750			
0.1840	11772.97	4.0300	4.0301	0.8776	25.55	0.57	0.750			
0.1866	11942.75	4.0270	4.0270	0.8812	25.55	0.57	0.750			
0.1892	12109.78	4.0240	4.0241	0.8837	25.55	0.57	0.750			
0.1919	12280.95	4.0210	4.0210	0.8835	25.55	0.57	0.750			
0.1945	12450.38	4.0180	4.0180	0.8856	25.55	0.57	0.750			
0.1972	12620.42	4.0150	4.0150	0.8903	25.55	0.57	0.750			
0.1999	12791.91	4.0120	4.0121	0.8937	25.55	0.57	0.750			
0.2026	12964.38	4.0090	4.0089	0.8973	25.55	0.57	0.750			
0.2053	13137.03	4.0060	4.0060	0.8956	25.55	0.57	0.750			
0.2079	13307.34	4.0030	4.0031	0.8989	25.55	0.57	0.750			
0.2106	13481.16	4.0000	4.0000	0.9063	25.55	0.57	0.750			
0.2134	13655.12	3.9970	3.9970	0.9082	25.55	0.57	0.750			
0.2161	13830.48	3.9940	3.9940	0.9098	25.55	0.57	0.750			
0.2188	14005.73	3.9910	3.9910	0.9165	25.55	0.57	0.750			
0.2216	14182.53	3.9880	3.9881	0.9195	25.55	0.57	0.750			
0.2244	14360.25	3.9850	3.9850	0.9229	25.55	0.57	0.750			
0.2271	14536.07	3.9820	3.9819	0.9225	25.55	0.57	0.750			
0.2299	14715.35	3.9790	3.9790	0.9196	25.55	0.57	0.750			
0.2327	14890.90	3.9760	3.9760	0.9259	25.55	0.57	0.750			
0.2354	15068.20	3.9730	3.9730	0.9307	25.55	0.57	0.750			
0.2382	15246.06	3.9700	3.9700	0.9322	25.55	0.57	0.750			
0.2411	15428.04	3.9670	3.9670	0.9320	25.55	0.57	0.750			
0.2439	15607.36	3.9640	3.9641	0.9365	25.55	0.57	0.750			
0.2467	15787.67	3.9610	3.9611	0.9373	25.56	0.58	0.750			
0.2495	15968.64	3.9580	3.9580	0.9429	25.56	0.58	0.750			
0.2523	16147.07	3.9550	3.9549	0.9376	25.56	0.58	0.750			
0.2551	16327.33	3.9520	3.9520	0.9411	25.56	0.58	0.750			
0.2579	16508.32	3.9490	3.9490	0.9465	25.56	0.58	0.750			
0.2608	16691.40	3.9460	3.9460	0.9502	25.56	0.58	0.750			
0.2636	16873.53	3.9430	3.9430	0.9497	25.56	0.58	0.750			
0.2665	17058.54	3.9400	3.9400	0.9495	25.56	0.58	0.750			
0.2694	17239.32	3.9370	3.9370	0.9541	25.56	0.58	0.750			
0.2722	17423.11	3.9340	3.9340	0.9580	25.57	0.59	0.750			
0.2751	17606.49	3.9310	3.9311	0.9647	25.57	0.59	0.750			
0.2780	17791.72	3.9280	3.9281	0.9692	25.57	0.59	0.750			
0.2809	17978.92	3.9250	3.9250	0.9649	25.57	0.59	0.750			
0.2838	18164.46	3.9220	3.9221	0.9679	25.57	0.59	0.750			
0.2867	18350.29	3.9190	3.9191	0.9710	25.57	0.59	0.750			
0.2896	18535.26	3.9160	3.9157	0.9719	25.57	0.59	0.750			
0.2925	18721.90	3.9130	3.9131	0.9779	25.57	0.59	0.750			
0.2955	18909.80	3.9100	3.9101	0.9850	25.57	0.59	0.750			
0.2985	19101.60	3.9070	3.9070	0.9951	25.58	0.60	0.750			
0.3015	19293.43	3.9040	3.9039	0.9967	25.58	0.60	0.750			
0.3045	19485.61	3.9010	3.9010	1.0010	25.58	0.60	0.750			
0.3075	19677.96	3.8980	3.8980	1.0055	25.58	0.60	0.750			
0.3105	19871.60	3.8950	3.8950	1.0090	25.59	0.61	0.750			
0.3135	20065.33	3.8920	3.8920	1.0080	25.59	0.61	0.750			
0.3166	20259.69	3.8890	3.8889	1.0130	25.59	0.61	0.750			
0.3196	20454.23	3.8860	3.8861	1.0167	25.59	0.61	0.750			
0.3227	20650.32	3.8830	3.8830	1.0214	25.59	0.61	0.750			
0.3257	20846.36	3.8800	3.8800	1.0277	25.59	0.61	0.750			
0.3288	21044.34	3.8770	3.8770	1.0303	25.59	0.61	0.750			
0.3319	21242.00	3.8740	3.8740	1.0367	25.59	0.61	0.750			
0.3350	21441.93	3.8710	3.8710	1.0431	25.59	0.61	0.750			
0.3382	21642.25	3.8680	3.8680	1.0495	25.59	0.61	0.750			
0.3413	21845.15	3.8650	3.8650	1.0516	25.59	0.61	0.750			
0.3445	22047.47	3.8620	3.8620	1.0595	25.59	0.61	0.750			
0.3477	22250.81	3.8590	3.8590	1.0646	25.59	0.61	0.750			
0.3509	22456.37	3.8560	3.8560	1.0725	25.59	0.61	0.750			
0.3541	22662.80	3.8530	3.8531	1.0691	25.59	0.61	0.750			
0.3573	22867.51	3.8500	3.8500	1.0744	25.59	0.61	0.750			
0.3605	23073.44	3.8470	3.8471	1.0809	25.58	0.60	0.750			
0.3638	23281.53	3.8440	3.8438	1.0904	25.58	0.60	0.750			
0.3670	23489.87	3.8410	3.8410	1.0992	25.58	0.60	0.750			
0.3704	23702.43	3.8380	3.8380	1.1097	25.58	0.60	0.750			
0.3737	23918.06	3.8350	3.8350	1.1214	25.57	0.59	0.750			
0.3771	24135.69	3.8320	3.8319	1.1214	25.57	0.59	0.750	0.312	0.424	
0.3805	24351.69	3.8290	3.8291	1.1306	25.56	0.58	0.750			
0.3839	24568.38	3.8260	3.8260	1.1360	25.55	0.57	0.750			
0.3873	24786.68	3.8230	3.8230	1.1431	25.54	0.56	0.750			
0.3907	25006.89	3.8200	3.8200	1.1455	25.54	0.56	0.750			
0.3942	25227.33	3.8170	3.8171	1.1533	25.53	0.55	0.750			
0.3976	25449.27	3.8140	3.8140	1.1593	25.52	0.54	0.750			
0.4011	25673.31	3.8110	3.8109	1.1675	25.51	0.53	0.750			
0.4046	25895.98	3.8080	3.8080	1.1706	25.50	0.52	0.750			
0.4081	26121.28	3.8050	3.8050	1.1819	25.49	0.51	0.750			
0.4118	26354.36	3.8020	3.8020	1.1692	25.48	0.50	0.750			
0.4153	26579.68	3.7990	3.7990	1.1520	25.47	0.49	0.750			
0.4187	26797.44	3.7960	3.7962	1.1558	25.46	0.48	0.750			
0.4221	27015.09	3.7930	3.7928	1.1554	25.45	0.47	0.750			
0.4256	27235.64	3.7900	3.7898	1.1604	25.43	0.45	0.750			
0.4290	27454.36	3.7870	3.7870	1.1771	25.42	0.44	0.750			
0.4325	27682.11	3.7840	3.7841	1.1982	25.41	0.43	0.750			
0.4362	27918.99	3.7810	3.7810	1.2317	25.40	0.42	0.750			
0.4399	28156.21	3.7780	3.7779	1.2529	25.39	0.41	0.750			
0.4437	28396.75	3.7750	3.7750	1.2694	25.38	0.40	0.750			
0.4476	28643.85	3.7720	3.7720	1.2937	25.38	0.40	0.750			
0.4515	28896.32	3.7690	3.7690	1.3117	25.37	0.39	0.750			
0.4554	29146.69	3.7660	3.7661	1.3319	25.36	0.38	0.750			
0.4595	29404.88	3.7630	3.7630	1.3630	25.34	0.36	0.750			
0.4635	29666.39	3.7600	3.7598	1.3814	25.32	0.34	0.750			
0.4677	29932.67	3.7570	3.7571	1.4115	25.31	0.33	0.750			
0.4720	30208.10	3.7540	3.7541	1.4440	25.30	0.32	0.750			
0.4764	30491.99	3.7510	3.7505	1.4676	25.28	0.30	0.750			
0.4808	30769.52	3.7480	3.7482	1.4930	25.27	0.29	0.750			
0.4853	31058.72	3.7450	3.7452	1.5323	25.26	0.28	0.750			
0.4899	31354.53	3.7420	3.7416	1.5732	25.25	0.27	0.750			
0.4948	31664.51	3.7390	3.7389	1.6259	25.23	0.25	0.750			
0.4998	31985.37	3.7360	3.7362	1.6588	25.21	0.23	0.750			
0.5049	32311.06	3.7330	3.7330	1.7025	25.20	0.22	0.750			
0.5099	32635.71	3.7300	3.7301	1.7556	25.19	0.21	0.750			
0.5153	32980.66	3.7270	3.7270	1.8050	25.18	0.20	0.750			
0.5207	33327.95	3.7240	3.7241	1.8741	25.16	0.18	0.750			
0.5265	33693.44	3.7210	3.7212	1.9245	25.14	0.16	0.750			
0.5323	34070.13	3.7180	3.7180	2.0274	25.13	0.15	0.750			
0.5385	34465.73	3.7150	3.7149	2.0528	25.11	0.13	0.750			
0.5448	34865.49	3.7120	3.7119	2.1016	25.09	0.11	0.750			
0.5512	35278.09	3.7090	3.7088	2.1774	25.07	0.09	0.750			
0.5578	35701.17	3.7060	3.7062	2.2605	25.06	0.08	0.750			
0.5647	36139.37	3.7030	3.7032	2.3206	25.04	0.06	0.750			
0.5719	36603.24	3.7000	3.6999	2.3688	25.02	0.04	0.750			
0.5790	37057.57	3.6970	3.6969	2.4435	25.00	0.02	0.750			
0.5863	37520.64	3.6940	3.6939	2.5269	24.98	0.00	0.750			
0.5940	38017.75	3.6910	3.6912	2.5906	24.97	-0.01	0.750			
0.6018	38517.26	3.6880	3.6883	2.6794	24.94	-0.04	0.750			
0.6101	39046.56	3.6850	3.6849	2.7268	24.93	-0.05	0.750			
0.6185	39586.07	3.6820	3.6820	2.7784	24.91	-0.07	0.750			
0.6271	40136.98	3.6790	3.6788	2.8736	24.90	-0.08	0.750			
0.6358	40693.95	3.6760	3.6755	2.9066	24.89	-0.09	0.750			
0.6448	41268.62	3.6730	3.6727	2.9499	24.87	-0.11	0.750			
0.6535	41824.52	3.6700	3.6701	2.9517	24.86	-0.12	0.750			
0.6624	42391.18	3.6670	3.6673	2.9505	24.86	-0.12	0.750			
0.6712	42956.71	3.6640	3.6639	2.8638	24.86	-0.12	0.750			
0.6797	43503.39	3.6610	3.6615	2.7578	24.86	-0.12	0.750			
0.6884	44055.25	3.6580	3.6579	2.6500	24.86	-0.12	0.750			
0.6958	44528.84	3.6550	3.6548	2.3994	24.87	-0.11	0.750			
0.7028	44979.79	3.6520	3.6518	2.2088	24.88	-0.10	0.750			
0.7091	45379.44	3.6490	3.6488	1.9732	24.89	-0.09	0.750			
0.7145	45726.35	3.6460	3.6463	1.7306	24.90	-0.08	0.750			
0.7194	46042.30	3.6430	3.6433	1.5298	24.91	-0.07	0.750			
0.7237	46314.14	3.6400	3.6402	1.3348	24.92	-0.06	0.750			
0.7273	46546.72	3.6370	3.6368	1.1550	24.93	-0.05	0.750			
0.7305	46754.43	3.6340	3.6340	1.0248	24.94	-0.04	0.750			
0.7331	46920.61	3.6310	3.6310	0.9024	24.95	-0.03	0.750			
0.7356	47079.66	3.6280	3.6281	0.8318	24.95	-0.03	0.750			
0.7379	47227.55	3.6250	3.6251	0.7805	24.96	-0.02	0.750			
0.7402	47370.47	3.6220	3.6219	0.7433	24.96	-0.02	0.750			
0.7424	47511.37	3.6190	3.6191	0.7136	24.96	-0.02	0.750			
0.7446	47651.98	3.6160	3.6160	0.6739	24.97	-0.01	0.750			
0.7465	47779.13	3.6130	3.6130	0.6306	24.97	-0.01	0.750			
0.7484	47894.86	3.6100	3.6102	0.5704	24.97	-0.01	0.750			
0.7500	48001.63	3.6070	3.6072	0.5161	24.98	-0.00	0.750			
0.7515	48096.07	3.6040	3.6043	0.4514	24.98	-0.00	0.750			
0.7528	48177.12	3.6010	3.6011	0.3822	24.98	0.00	0.750			
0.7538	48243.86	3.5980	3.5982	0.3142	24.98	0.00	0.750			
0.7547	48299.21	3.5950	3.5949	0.2442	24.98	0.00	0.750			
0.7553	48338.64	3.5920	3.5920	0.1657	24.99	0.01	0.750			
0.7557	48363.67	3.5890	3.5890	0.0963	24.99	0.01	0.750			
