Ah_balance (normalized)	Ah_balance (mAh)	Voltage - fit (V)	Voltage -  interpolate (V)	dQ/dV (1/V)	Temperature (°C)	Temperature - diff (°C)	Current (C)	R_DC 0ms (mOhm)	R_DC 50ms (mOhm)	R_DC 50 ms PEC (mOhm)
0.0489	3131.16	4.1970	4.1970	0.7755	25.63	0.59	0.750			
0.0512	3278.64	4.1940	4.1940	0.7733	25.63	0.59	0.750			
0.0536	3428.36	4.1910	4.1910	0.7763	25.63	0.59	0.750			
0.0559	3577.66	4.1880	4.1881	0.7771	25.63	0.59	0.750			
0.0582	3727.25	4.1850	4.1851	0.7787	25.63	0.59	0.750			
0.0606	3877.03	4.1820	4.1820	0.7768	25.63	0.59	0.750			
0.0629	4026.25	4.1790	4.1790	0.7742	25.63	0.59	0.750			
0.0652	4173.20	4.1760	4.1760	0.7764	25.63	0.59	0.750			
0.0675	4321.66	4.1730	4.1731	0.7774	25.63	0.59	0.750			
0.0699	4471.28	4.1700	4.1696	0.7824	25.63	0.59	0.750			
0.0722	4622.03	4.1670	4.1670	0.7833	25.63	0.59	0.750			
0.0746	4774.34	4.1640	4.1640	0.7800	25.63	0.59	0.750			
0.0769	4924.68	4.1610	4.1610	0.7877	25.63	0.59	0.750			
0.0793	5075.56	4.1580	4.1580	0.7881	25.63	0.59	0.750			
0.0816	5224.81	4.1550	4.1550	0.7853	25.63	0.59	0.750			
0.0840	5376.54	4.1520	4.1521	0.7901	25.63	0.59	0.750			
0.0864	5528.74	4.1490	4.1491	0.7949	25.63	0.59	0.750			
0.0888	5683.16	4.1460	4.1460	0.7965	25.63	0.59	0.750			
0.0912	5836.86	4.1430	4.1429	0.8013	25.63	0.59	0.750			
0.0936	5988.75	4.1400	4.1402	0.7966	25.63	0.59	0.750			
0.0960	6141.32	4.1370	4.1370	0.8029	25.63	0.59	0.750			
0.0984	6296.04	4.1340	4.1340	0.8062	25.63	0.59	0.750			
0.1008	6451.61	4.1310	4.1310	0.7990	25.63	0.59	0.750			
0.1032	6603.98	4.1280	4.1280	0.8009	25.63	0.59	0.750			
0.1056	6758.97	4.1250	4.1252	0.8044	25.63	0.59	0.750			
0.1080	6912.46	4.1220	4.1220	0.8061	25.63	0.59	0.750			
0.1104	7067.19	4.1190	4.1190	0.8087	25.63	0.59	0.750			
0.1129	7223.19	4.1160	4.1160	0.7992	25.63	0.59	0.750			
0.1153	7376.46	4.1130	4.1131	0.8085	25.63	0.59	0.750			
0.1177	7530.35	4.1100	4.1101	0.8113	25.63	0.59	0.750			
0.1201	7686.01	4.1070	4.1064	0.8154	25.63	0.59	0.750			
0.1225	7842.71	4.1040	4.1041	0.8192	25.63	0.59	0.750			
0.1250	8000.98	4.1010	4.1011	0.8246	25.63	0.59	0.750			
0.1275	8162.80	4.0980	4.0980	0.8317	25.64	0.60	0.750			
0.1300	8322.07	4.0950	4.0950	0.8252	25.64	0.60	0.750			
0.1325	8480.14	4.0920	4.0920	0.8267	25.64	0.60	0.750			
0.1350	8638.80	4.0890	4.0890	0.8277	25.64	0.60	0.750			
0.1375	8798.33	4.0860	4.0861	0.8269	25.64	0.60	0.750			
0.1399	8956.38	4.0830	4.0830	0.8315	25.64	0.60	0.750			
0.1424	9115.28	4.0800	4.0801	0.8337	25.64	0.60	0.750			
0.1449	9276.00	4.0770	4.0767	0.8403	25.64	0.60	0.750			
0.1475	9437.14	4.0740	4.0741	0.8502	25.64	0.60	0.750			
0.1501	9605.46	4.0710	4.0709	0.8331	25.64	0.60	0.750			
0.1526	9765.78	4.0680	4.0680	0.8347	25.64	0.60	0.750			
0.1550	9921.30	4.0650	4.0654	0.8280	25.64	0.60	0.750			
0.1575	10079.64	4.0620	4.0614	0.8303	25.64	0.60	0.750			
0.1600	10237.06	4.0590	4.0590	0.8327	25.64	0.60	0.750			
0.1624	10396.19	4.0560	4.0561	0.8447	25.64	0.60	0.750			
0.1650	10560.11	4.0530	4.0531	0.8574	25.64	0.60	0.750			
0.1677	10734.87	4.0500	4.0499	0.8787	25.64	0.60	0.750			
0.1703	10899.43	4.0470	4.0469	0.8721	25.64	0.60	0.750			
0.1729	11068.08	4.0440	4.0440	0.8754	25.64	0.60	0.750			
0.1756	11236.96	4.0410	4.0410	0.8718	25.64	0.60	0.750			
0.1782	11402.07	4.0380	4.0381	0.8730	25.65	0.61	0.750			
0.1808	11568.38	4.0350	4.0350	0.8741	25.65	0.61	0.750			
0.1834	11736.38	4.0320	4.0321	0.8813	25.65	0.61	0.750			
0.1861	11907.61	4.0290	4.0291	0.8786	25.65	0.61	0.750			
0.1887	12076.37	4.0260	4.0260	0.8877	25.65	0.61	0.750			
0.1914	12249.12	4.0230	4.0231	0.8971	25.65	0.61	0.750			
0.1941	12419.66	4.0200	4.0199	0.8928	25.65	0.61	0.750			
0.1968	12592.96	4.0170	4.0171	0.8999	25.65	0.61	0.750			
0.1995	12767.07	4.0140	4.0140	0.9006	25.65	0.61	0.750			
0.2022	12940.12	4.0110	4.0111	0.9038	25.65	0.61	0.750			
0.2050	13117.23	4.0080	4.0080	0.9086	25.65	0.61	0.750			
0.2076	13288.54	4.0050	4.0050	0.9054	25.65	0.61	0.750			
0.2104	13463.94	4.0020	4.0019	0.9003	25.65	0.61	0.750			
0.2131	13635.43	3.9990	3.9990	0.9030	25.65	0.61	0.750			
0.2157	13807.41	3.9960	3.9960	0.9112	25.65	0.61	0.750			
0.2185	13983.67	3.9930	3.9931	0.9184	25.65	0.61	0.750			
0.2213	14160.43	3.9900	3.9900	0.9215	25.65	0.61	0.750			
0.2241	14342.00	3.9870	3.9870	0.9070	25.65	0.61	0.750			
0.2268	14514.08	3.9840	3.9841	0.9189	25.65	0.61	0.750			
0.2295	14691.15	3.9810	3.9812	0.9222	25.65	0.61	0.750			
0.2323	14865.36	3.9780	3.9776	0.9238	25.65	0.61	0.750			
0.2351	15043.44	3.9750	3.9751	0.9285	25.65	0.61	0.750			
0.2379	15223.01	3.9720	3.9721	0.9364	25.65	0.61	0.750			
0.2407	15404.79	3.9690	3.9691	0.9416	25.66	0.62	0.750			
0.2436	15588.71	3.9660	3.9661	0.9395	25.66	0.62	0.750			
0.2464	15769.95	3.9630	3.9630	0.9440	25.66	0.62	0.750			
0.2493	15952.46	3.9600	3.9599	0.9369	25.66	0.62	0.750			
0.2520	16128.53	3.9570	3.9571	0.9405	25.67	0.63	0.750			
0.2548	16307.78	3.9540	3.9541	0.9515	25.67	0.63	0.750			
0.2577	16490.76	3.9510	3.9504	0.9551	25.67	0.63	0.750			
0.2606	16678.08	3.9480	3.9480	0.9526	25.67	0.63	0.750			
0.2635	16860.89	3.9450	3.9452	0.9570	25.67	0.63	0.750			
0.2664	17047.18	3.9420	3.9421	0.9666	25.67	0.63	0.750			
0.2692	17231.05	3.9390	3.9389	0.9577	25.67	0.63	0.750			
0.2721	17416.72	3.9360	3.9360	0.9600	25.67	0.63	0.750			
0.2750	17598.56	3.9330	3.9332	0.9677	25.67	0.63	0.750			
0.2779	17787.09	3.9300	3.9300	0.9792	25.67	0.63	0.750			
0.2809	17977.12	3.9270	3.9270	0.9776	25.67	0.63	0.750			
0.2838	18165.38	3.9240	3.9241	0.9844	25.67	0.63	0.750			
0.2868	18353.20	3.9210	3.9211	0.9797	25.68	0.64	0.750			
0.2897	18540.08	3.9180	3.9181	0.9927	25.68	0.64	0.750			
0.2927	18729.89	3.9150	3.9151	1.0089	25.69	0.65	0.750			
0.2957	18923.36	3.9120	3.9120	1.0152	25.69	0.65	0.750			
0.2988	19121.57	3.9090	3.9092	1.0195	25.69	0.65	0.750			
0.3019	19320.01	3.9060	3.9062	1.0275	25.69	0.65	0.750			
0.3050	19522.09	3.9030	3.9030	1.0299	25.69	0.65	0.750			
0.3081	19721.58	3.9000	3.8999	1.0319	25.69	0.65	0.750			
0.3111	19911.30	3.8970	3.8971	1.0164	25.69	0.65	0.750			
0.3142	20106.64	3.8940	3.8940	1.0228	25.69	0.65	0.750			
0.3173	20304.84	3.8910	3.8910	1.0327	25.69	0.65	0.750			
0.3203	20501.61	3.8880	3.8879	1.0315	25.69	0.65	0.750			
0.3235	20701.58	3.8850	3.8850	1.0267	25.69	0.65	0.750			
0.3265	20898.42	3.8820	3.8821	1.0374	25.69	0.65	0.750			
0.3296	21095.99	3.8790	3.8791	1.0442	25.69	0.65	0.750			
0.3328	21300.07	3.8760	3.8759	1.0461	25.69	0.65	0.750			
0.3359	21499.26	3.8730	3.8730	1.0516	25.69	0.65	0.750			
0.3391	21701.42	3.8700	3.8701	1.0655	25.69	0.65	0.750			
0.3423	21909.12	3.8670	3.8671	1.0800	25.69	0.65	0.750			
0.3456	22119.70	3.8640	3.8637	1.0838	25.69	0.65	0.750			
0.3488	22326.23	3.8610	3.8611	1.0863	25.69	0.65	0.750			
0.3521	22535.12	3.8580	3.8581	1.0950	25.68	0.64	0.750			
0.3554	22747.73	3.8550	3.8551	1.1038	25.68	0.64	0.750			
0.3588	22960.45	3.8520	3.8520	1.0994	25.68	0.64	0.750			
0.3621	23172.18	3.8490	3.8490	1.1034	25.68	0.64	0.750			
0.3654	23384.21	3.8460	3.8461	1.1123	25.67	0.63	0.750			
0.3688	23602.80	3.8430	3.8429	1.1069	25.67	0.63	0.750			
0.3721	23811.23	3.8400	3.8401	1.1237	25.67	0.63	0.750			
0.3754	24023.69	3.8370	3.8370	1.1400	25.67	0.63	0.750			
0.3788	24245.13	3.8340	3.8342	1.1634	25.67	0.63	0.750			
0.3824	24472.61	3.8310	3.8309	1.1805	25.67	0.63	0.750	0.307	0.400	
0.3859	24700.52	3.8280	3.8282	1.1925	25.66	0.62	0.750			
0.3896	24933.85	3.8250	3.8252	1.2030	25.65	0.61	0.750			
0.3933	25168.96	3.8220	3.8220	1.2080	25.64	0.60	0.750			
0.3969	25399.47	3.8190	3.8190	1.1891	25.64	0.60	0.750			
0.4004	25627.08	3.8160	3.8161	1.1948	25.63	0.59	0.750			
0.4040	25855.50	3.8130	3.8131	1.2033	25.62	0.58	0.750			
0.4076	26087.67	3.8100	3.8095	1.2120	25.61	0.57	0.750			
0.4112	26317.10	3.8070	3.8071	1.2233	25.60	0.56	0.750			
0.4149	26554.33	3.8040	3.8038	1.2401	25.60	0.56	0.750			
0.4187	26797.52	3.8010	3.8011	1.2528	25.59	0.55	0.750			
0.4225	27040.34	3.7980	3.7979	1.2651	25.58	0.54	0.750			
0.4263	27282.96	3.7950	3.7951	1.2722	25.57	0.53	0.750			
0.4302	27529.73	3.7920	3.7920	1.2778	25.56	0.52	0.750			
0.4340	27774.59	3.7890	3.7890	1.2713	25.55	0.51	0.750			
0.4377	28015.09	3.7860	3.7860	1.2818	25.53	0.49	0.750			
0.4416	28261.50	3.7830	3.7831	1.2875	25.52	0.48	0.750			
0.4454	28508.34	3.7800	3.7797	1.2971	25.51	0.47	0.750			
0.4493	28754.49	3.7770	3.7772	1.3182	25.50	0.46	0.750			
0.4533	29010.31	3.7740	3.7740	1.3433	25.48	0.44	0.750			
0.4574	29272.55	3.7710	3.7708	1.3624	25.47	0.43	0.750			
0.4615	29534.71	3.7680	3.7681	1.3741	25.46	0.42	0.750			
0.4656	29800.98	3.7650	3.7651	1.3946	25.44	0.40	0.750			
0.4699	30075.52	3.7620	3.7618	1.4073	25.43	0.39	0.750			
0.4741	30339.25	3.7590	3.7591	1.4167	25.41	0.37	0.750			
0.4784	30616.86	3.7560	3.7561	1.4298	25.40	0.36	0.750			
0.4826	30888.49	3.7530	3.7525	1.4723	25.38	0.34	0.750			
0.4870	31169.25	3.7500	3.7499	1.5115	25.37	0.33	0.750			
0.4917	31467.07	3.7470	3.7473	1.5511	25.35	0.31	0.750			
0.4964	31770.70	3.7440	3.7439	1.6121	25.34	0.30	0.750			
0.5013	32082.73	3.7410	3.7408	1.6641	25.32	0.28	0.750			
0.5064	32410.88	3.7380	3.7382	1.7089	25.30	0.26	0.750			
0.5117	32747.46	3.7350	3.7353	1.7750	25.29	0.25	0.750			
0.5171	33091.48	3.7320	3.7322	1.7982	25.27	0.23	0.750			
0.5226	33444.28	3.7290	3.7290	1.8567	25.25	0.21	0.750			
0.5283	33809.73	3.7260	3.7261	1.9244	25.23	0.19	0.750			
0.5341	34184.20	3.7230	3.7230	1.9485	25.21	0.17	0.750			
0.5401	34565.59	3.7200	3.7201	2.0038	25.19	0.15	0.750			
0.5462	34957.84	3.7170	3.7168	2.0406	25.17	0.13	0.750			
0.5525	35357.78	3.7140	3.7138	2.0882	25.14	0.10	0.750			
0.5587	35756.30	3.7110	3.7109	2.1503	25.12	0.08	0.750			
0.5653	36176.78	3.7080	3.7078	2.2218	25.10	0.06	0.750			
0.5720	36608.28	3.7050	3.7049	2.3109	25.08	0.04	0.750			
0.5791	37065.02	3.7020	3.7021	2.4119	25.06	0.02	0.750			
0.5867	37551.39	3.6990	3.6992	2.3446	25.04	-0.00	0.750			
0.5938	38002.53	3.6960	3.6961	2.4052	25.01	-0.03	0.750			
0.6008	38452.00	3.6930	3.6928	2.4663	25.00	-0.04	0.750			
0.6082	38922.75	3.6900	3.6904	2.6289	24.98	-0.06	0.750			
0.6163	39442.54	3.6870	3.6868	2.7803	24.97	-0.07	0.750			
0.6254	40023.71	3.6840	3.6840	2.9280	24.95	-0.09	0.750			
0.6340	40575.68	3.6810	3.6809	2.9120	24.94	-0.10	0.750			
0.6429	41147.61	3.6780	3.6778	3.0005	24.92	-0.12	0.750			
0.6521	41736.68	3.6750	3.6748	3.0797	24.91	-0.13	0.750			
0.6614	42332.28	3.6720	3.6719	3.0470	24.90	-0.14	0.750			
0.6705	42914.12	3.6690	3.6692	2.9635	24.90	-0.14	0.750			
0.6791	43461.79	3.6660	3.6663	2.9007	24.90	-0.14	0.750			
0.6878	44017.49	3.6630	3.6630	2.8720	24.90	-0.14	0.750			
0.6964	44569.94	3.6600	3.6602	2.7635	24.91	-0.13	0.750			
0.7050	45118.08	3.6570	3.6572	2.6092	24.93	-0.11	0.750			
0.7125	45603.10	3.6540	3.6540	2.3593	24.94	-0.10	0.750			
0.7193	46036.22	3.6510	3.6509	2.1507	24.96	-0.08	0.750			
0.7254	46423.91	3.6480	3.6478	1.9036	24.97	-0.07	0.750			
0.7308	46768.93	3.6450	3.6447	1.6694	24.98	-0.06	0.750			
0.7355	47069.98	3.6420	3.6423	1.4280	24.99	-0.05	0.750			
0.7394	47319.75	3.6390	3.6392	1.2305	25.00	-0.04	0.750			
0.7427	47531.16	3.6360	3.6362	1.0455	25.01	-0.03	0.750			
0.7453	47702.31	3.6330	3.6323	0.8973	25.02	-0.02	0.750			
0.7477	47852.32	3.6300	3.6301	0.7878	25.02	-0.02	0.750			
0.7499	47991.44	3.6270	3.6271	0.7226	25.03	-0.01	0.750			
0.7520	48125.27	3.6240	3.6239	0.6683	25.03	-0.01	0.750			
0.7538	48244.86	3.6210	3.6210	0.6126	25.03	-0.01	0.750			
0.7556	48358.41	3.6180	3.6179	0.5730	25.04	-0.00	0.750			
0.7573	48466.28	3.6150	3.6148	0.5273	25.04	-0.00	0.750			
0.7589	48566.64	3.6120	3.6120	0.4713	25.04	0.00	0.750			
0.7602	48655.62	3.6090	3.6089	0.4083	25.04	0.00	0.750			
0.7614	48729.01	3.6060	3.6061	0.3406	25.05	0.01	0.750			
0.7624	48790.73	3.6030	3.6031	0.2691	25.05	0.01	0.750			
0.7630	48832.92	3.6000	3.6002	0.1860	25.05	0.01	0.750			
0.7634	48859.84	3.5970	3.5969	0.1084	25.05	0.01	0.750			
0.7636	48873.23	3.5940	3.5968	0.0381	25.05	0.01	0.750			
