Ah_balance (normalized)	Ah_balance (mAh)	Voltage - fit (V)	Voltage -  interpolate (V)	dQ/dV (1/V)	Temperature (°C)	Temperature - diff (°C)	Current (C)	R_DC 0ms (mOhm)	R_DC 50ms (mOhm)	R_DC 50 ms PEC (mOhm)
0.0486	3110.50	4.1980	4.1980	0.7333	25.37	0.67	0.750			
0.0508	3251.72	4.1950	4.1949	0.7393	25.37	0.67	0.750			
0.0531	3395.57	4.1920	4.1920	0.7473	25.38	0.68	0.750			
0.0553	3540.15	4.1890	4.1890	0.7504	25.38	0.68	0.750			
0.0576	3685.33	4.1860	4.1860	0.7502	25.38	0.68	0.750			
0.0598	3829.60	4.1830	4.1830	0.7509	25.38	0.68	0.750			
0.0621	3973.37	4.1800	4.1801	0.7485	25.38	0.68	0.750			
0.0643	4116.76	4.1770	4.1769	0.7458	25.38	0.68	0.750			
0.0665	4257.55	4.1740	4.1740	0.7488	25.39	0.69	0.750			
0.0688	4401.01	4.1710	4.1711	0.7528	25.39	0.69	0.750			
0.0710	4546.05	4.1680	4.1678	0.7576	25.39	0.69	0.750			
0.0733	4693.60	4.1650	4.1650	0.7635	25.39	0.69	0.750			
0.0756	4841.60	4.1620	4.1620	0.7597	25.39	0.69	0.750			
0.0779	4988.29	4.1590	4.1591	0.7650	25.38	0.68	0.750			
0.0802	5133.22	4.1560	4.1560	0.7625	25.38	0.68	0.750			
0.0825	5280.28	4.1530	4.1530	0.7649	25.38	0.68	0.750			
0.0848	5426.88	4.1500	4.1501	0.7667	25.38	0.68	0.750			
0.0871	5574.33	4.1470	4.1470	0.7689	25.38	0.68	0.750			
0.0894	5724.13	4.1440	4.1441	0.7685	25.38	0.68	0.750			
0.0917	5871.65	4.1410	4.1409	0.7697	25.38	0.68	0.750			
0.0940	6018.04	4.1380	4.1380	0.7644	25.38	0.68	0.750			
0.0963	6163.40	4.1350	4.1349	0.7655	25.38	0.68	0.750			
0.0986	6311.34	4.1320	4.1320	0.7693	25.38	0.68	0.750			
0.1010	6461.31	4.1290	4.1289	0.7651	25.38	0.68	0.750			
0.1032	6607.87	4.1260	4.1260	0.7697	25.39	0.69	0.750			
0.1056	6756.01	4.1230	4.1231	0.7715	25.39	0.69	0.750			
0.1079	6902.93	4.1200	4.1199	0.7722	25.39	0.69	0.750			
0.1102	7052.20	4.1170	4.1171	0.7752	25.39	0.69	0.750			
0.1125	7199.34	4.1140	4.1141	0.7766	25.39	0.69	0.750			
0.1148	7348.39	4.1110	4.1110	0.7717	25.39	0.69	0.750			
0.1171	7496.82	4.1080	4.1081	0.7770	25.40	0.70	0.750			
0.1194	7642.91	4.1050	4.1052	0.7804	25.40	0.70	0.750			
0.1218	7793.28	4.1020	4.1015	0.7894	25.40	0.70	0.750			
0.1242	7946.34	4.0990	4.0992	0.7919	25.40	0.70	0.750			
0.1266	8100.64	4.0960	4.0961	0.7979	25.40	0.70	0.750			
0.1290	8257.67	4.0930	4.0931	0.8036	25.40	0.70	0.750			
0.1314	8410.57	4.0900	4.0900	0.7931	25.40	0.70	0.750			
0.1338	8563.13	4.0870	4.0870	0.7943	25.40	0.70	0.750			
0.1362	8714.98	4.0840	4.0840	0.7939	25.40	0.70	0.750			
0.1386	8867.51	4.0810	4.0810	0.7912	25.40	0.70	0.750			
0.1409	9019.19	4.0780	4.0780	0.7935	25.40	0.70	0.750			
0.1433	9170.18	4.0750	4.0751	0.7971	25.40	0.70	0.750			
0.1457	9323.20	4.0720	4.0719	0.8009	25.40	0.70	0.750			
0.1481	9477.97	4.0690	4.0690	0.8064	25.40	0.70	0.750			
0.1506	9635.51	4.0660	4.0660	0.8053	25.40	0.70	0.750			
0.1530	9790.90	4.0630	4.0630	0.8122	25.40	0.70	0.750			
0.1554	9947.12	4.0600	4.0601	0.8166	25.40	0.70	0.750			
0.1578	10101.95	4.0570	4.0569	0.8142	25.40	0.70	0.750			
0.1603	10258.30	4.0540	4.0541	0.8181	25.40	0.70	0.750			
0.1628	10416.98	4.0510	4.0510	0.8167	25.40	0.70	0.750			
0.1652	10573.18	4.0480	4.0480	0.8206	25.40	0.70	0.750			
0.1677	10732.91	4.0450	4.0451	0.8260	25.40	0.70	0.750			
0.1701	10889.21	4.0420	4.0420	0.8254	25.40	0.70	0.750			
0.1726	11047.67	4.0390	4.0390	0.8295	25.40	0.70	0.750			
0.1751	11208.14	4.0360	4.0360	0.8311	25.40	0.70	0.750			
0.1776	11367.35	4.0330	4.0330	0.8375	25.41	0.71	0.750			
0.1802	11529.94	4.0300	4.0300	0.8457	25.41	0.71	0.750			
0.1827	11691.62	4.0270	4.0270	0.8439	25.41	0.71	0.750			
0.1852	11854.97	4.0240	4.0240	0.8471	25.41	0.71	0.750			
0.1878	12017.97	4.0210	4.0210	0.8483	25.41	0.71	0.750			
0.1903	12179.08	4.0180	4.0181	0.8439	25.41	0.71	0.750			
0.1928	12339.96	4.0150	4.0151	0.8490	25.41	0.71	0.750			
0.1953	12501.19	4.0120	4.0119	0.8483	25.41	0.71	0.750			
0.1979	12665.24	4.0090	4.0091	0.8544	25.41	0.71	0.750			
0.2005	12830.83	4.0060	4.0061	0.8599	25.41	0.71	0.750			
0.2031	12997.37	4.0030	4.0031	0.8611	25.42	0.72	0.750			
0.2057	13166.30	4.0000	4.0000	0.8720	25.42	0.72	0.750			
0.2083	13328.87	3.9970	3.9969	0.8619	25.42	0.72	0.750			
0.2108	13493.61	3.9940	3.9940	0.8645	25.42	0.72	0.750			
0.2135	13661.16	3.9910	3.9910	0.8659	25.42	0.72	0.750			
0.2161	13827.37	3.9880	3.9880	0.8722	25.42	0.72	0.750			
0.2187	13995.31	3.9850	3.9850	0.8720	25.42	0.72	0.750			
0.2213	14163.29	3.9820	3.9817	0.8746	25.42	0.72	0.750			
0.2239	14330.97	3.9790	3.9790	0.8725	25.42	0.72	0.750			
0.2266	14499.66	3.9760	3.9760	0.8751	25.42	0.72	0.750			
0.2292	14667.88	3.9730	3.9730	0.8785	25.41	0.71	0.750			
0.2318	14837.06	3.9700	3.9700	0.8814	25.41	0.71	0.750			
0.2344	15004.34	3.9670	3.9670	0.8783	25.41	0.71	0.750			
0.2371	15175.10	3.9640	3.9640	0.8792	25.41	0.71	0.750			
0.2397	15343.30	3.9610	3.9610	0.8834	25.41	0.71	0.750			
0.2424	15513.26	3.9580	3.9580	0.8856	25.41	0.71	0.750			
0.2451	15683.84	3.9550	3.9549	0.8838	25.41	0.71	0.750			
0.2477	15852.63	3.9520	3.9520	0.8849	25.41	0.71	0.750			
0.2504	16023.01	3.9490	3.9491	0.8830	25.41	0.71	0.750			
0.2530	16193.36	3.9460	3.9459	0.8821	25.41	0.71	0.750			
0.2557	16363.39	3.9430	3.9430	0.8815	25.41	0.71	0.750			
0.2583	16530.17	3.9400	3.9399	0.8793	25.41	0.71	0.750			
0.2609	16699.62	3.9370	3.9371	0.8818	25.41	0.71	0.750			
0.2636	16869.47	3.9340	3.9340	0.8792	25.40	0.70	0.750			
0.2662	17036.51	3.9310	3.9311	0.8808	25.40	0.70	0.750			
0.2689	17206.75	3.9280	3.9280	0.8862	25.39	0.69	0.750			
0.2715	17375.65	3.9250	3.9250	0.8852	25.39	0.69	0.750			
0.2742	17547.10	3.9220	3.9220	0.8853	25.39	0.69	0.750			
0.2768	17717.46	3.9190	3.9190	0.8840	25.39	0.69	0.750			
0.2795	17888.35	3.9160	3.9160	0.8877	25.38	0.68	0.750			
0.2822	18057.81	3.9130	3.9131	0.8828	25.38	0.68	0.750			
0.2848	18227.59	3.9100	3.9100	0.8812	25.38	0.68	0.750			
0.2875	18399.06	3.9070	3.9070	0.8718	25.37	0.67	0.750			
0.2901	18563.30	3.9040	3.9040	0.8786	25.37	0.67	0.750			
0.2927	18731.81	3.9010	3.9011	0.8808	25.37	0.67	0.750			
0.2953	18899.29	3.8980	3.8979	0.8831	25.36	0.66	0.750			
0.2979	19068.77	3.8950	3.8951	0.8871	25.35	0.65	0.750			
0.3006	19241.37	3.8920	3.8922	0.8856	25.35	0.65	0.750			
0.3033	19412.43	3.8890	3.8890	0.8874	25.34	0.64	0.750			
0.3060	19582.67	3.8860	3.8862	0.8838	25.33	0.63	0.750			
0.3086	19752.37	3.8830	3.8824	0.8877	25.32	0.62	0.750			
0.3113	19922.90	3.8800	3.8800	0.8892	25.32	0.62	0.750			
0.3140	20093.42	3.8770	3.8770	0.8923	25.31	0.61	0.750			
0.3167	20267.03	3.8740	3.8741	0.8975	25.31	0.61	0.750			
0.3194	20440.77	3.8710	3.8710	0.8998	25.30	0.60	0.750			
0.3221	20611.44	3.8680	3.8680	0.8950	25.30	0.60	0.750			
0.3248	20784.35	3.8650	3.8649	0.8872	25.29	0.59	0.750			
0.3274	20952.58	3.8620	3.8621	0.8942	25.29	0.59	0.750			
0.3301	21123.82	3.8590	3.8590	0.8992	25.28	0.58	0.750			
0.3327	21295.79	3.8560	3.8559	0.9042	25.27	0.57	0.750			
0.3355	21473.24	3.8530	3.8531	0.9006	25.26	0.56	0.750			
0.3382	21645.34	3.8500	3.8500	0.9081	25.25	0.55	0.750			
0.3409	21819.40	3.8470	3.8471	0.9213	25.24	0.54	0.750			
0.3437	21997.38	3.8440	3.8439	0.9304	25.23	0.53	0.750	0.331	0.470	
0.3465	22174.82	3.8410	3.8406	0.9327	25.22	0.52	0.750			
0.3493	22356.27	3.8380	3.8381	0.9391	25.21	0.51	0.750			
0.3522	22538.48	3.8350	3.8351	0.9430	25.20	0.50	0.750			
0.3550	22720.28	3.8320	3.8320	0.9472	25.19	0.49	0.750			
0.3578	22899.48	3.8290	3.8290	0.9468	25.18	0.48	0.750			
0.3607	23084.51	3.8260	3.8259	0.9482	25.17	0.47	0.750			
0.3635	23265.65	3.8230	3.8230	0.9636	25.16	0.46	0.750			
0.3664	23452.14	3.8200	3.8201	0.9744	25.16	0.46	0.750			
0.3694	23640.31	3.8170	3.8171	0.9896	25.15	0.45	0.750			
0.3724	23834.97	3.8140	3.8140	0.9870	25.14	0.44	0.750			
0.3754	24024.04	3.8110	3.8111	0.9942	25.12	0.42	0.750			
0.3783	24214.09	3.8080	3.8080	1.0078	25.11	0.41	0.750			
0.3814	24408.66	3.8050	3.8052	1.0260	25.10	0.40	0.750			
0.3844	24604.16	3.8020	3.8017	1.0302	25.09	0.39	0.750			
0.3876	24805.78	3.7990	3.7991	1.0487	25.07	0.37	0.750			
0.3908	25013.51	3.7960	3.7960	1.0546	25.06	0.36	0.750			
0.3941	25221.24	3.7930	3.7930	1.0522	25.05	0.35	0.750			
0.3972	25422.29	3.7900	3.7901	1.0415	25.04	0.34	0.750			
0.4003	25619.77	3.7870	3.7872	1.0432	25.03	0.33	0.750			
0.4033	25812.38	3.7840	3.7838	1.0620	25.02	0.32	0.750			
0.4065	26014.97	3.7810	3.7810	1.0981	25.01	0.31	0.750			
0.4099	26230.69	3.7780	3.7780	1.1011	25.00	0.30	0.750			
0.4132	26443.14	3.7750	3.7751	1.1579	24.99	0.29	0.750			
0.4168	26674.66	3.7720	3.7722	1.2003	24.97	0.27	0.750			
0.4204	26907.32	3.7690	3.7692	1.2296	24.96	0.26	0.750			
0.4242	27146.35	3.7660	3.7662	1.2541	24.95	0.25	0.750			
0.4280	27390.08	3.7630	3.7631	1.2829	24.94	0.24	0.750			
0.4320	27645.62	3.7600	3.7600	1.2964	24.93	0.23	0.750			
0.4359	27896.76	3.7570	3.7570	1.3369	24.91	0.21	0.750			
0.4398	28146.94	3.7540	3.7541	1.3490	24.90	0.20	0.750			
0.4440	28417.27	3.7510	3.7510	1.3538	24.88	0.18	0.750			
0.4481	28676.83	3.7480	3.7480	1.3649	24.87	0.17	0.750			
0.4521	28932.30	3.7450	3.7454	1.3976	24.86	0.16	0.750			
0.4561	29192.30	3.7420	3.7425	1.4583	24.85	0.15	0.750			
0.4606	29479.50	3.7390	3.7382	1.5028	24.83	0.13	0.750			
0.4652	29771.78	3.7360	3.7355	1.5092	24.82	0.12	0.750			
0.4699	30073.05	3.7330	3.7334	1.5692	24.80	0.10	0.750			
0.4748	30388.31	3.7300	3.7294	1.6439	24.79	0.09	0.750			
0.4796	30695.74	3.7270	3.7265	1.6422	24.77	0.07	0.750			
0.4846	31017.35	3.7240	3.7240	1.6567	24.76	0.06	0.750			
0.4898	31347.11	3.7210	3.7212	1.7702	24.74	0.04	0.750			
0.4953	31700.57	3.7180	3.7185	1.8255	24.72	0.02	0.750			
0.5007	32043.58	3.7150	3.7153	1.8761	24.71	0.01	0.750			
0.5064	32409.48	3.7120	3.7117	1.9897	24.69	-0.01	0.750			
0.5124	32796.16	3.7090	3.7085	1.9769	24.67	-0.03	0.750			
0.5186	33190.48	3.7060	3.7063	2.0548	24.65	-0.05	0.750			
0.5247	33582.47	3.7030	3.7026	2.1419	24.63	-0.07	0.750			
0.5310	33983.22	3.7000	3.7002	2.1609	24.62	-0.08	0.750			
0.5375	34402.69	3.6970	3.6974	2.3002	24.61	-0.09	0.750			
0.5442	34831.33	3.6940	3.6938	2.3440	24.60	-0.10	0.750			
0.5516	35299.62	3.6910	3.6913	2.4744	24.59	-0.11	0.750			
0.5594	35802.84	3.6880	3.6878	2.4983	24.58	-0.12	0.750			
0.5669	36279.02	3.6850	3.6850	2.4626	24.57	-0.13	0.750			
0.5742	36747.01	3.6820	3.6818	2.4328	24.56	-0.14	0.750			
0.5814	37211.24	3.6790	3.6788	2.3835	24.56	-0.14	0.750			
0.5890	37695.80	3.6760	3.6759	2.4261	24.56	-0.14	0.750			
0.5960	38146.33	3.6730	3.6729	2.2317	24.55	-0.15	0.750			
0.6026	38564.63	3.6700	3.6704	2.1244	24.56	-0.14	0.750			
0.6088	38962.97	3.6670	3.6662	2.0055	24.56	-0.14	0.750			
0.6145	39325.32	3.6640	3.6639	1.8850	24.56	-0.14	0.750			
0.6200	39680.95	3.6610	3.6611	1.7831	24.57	-0.13	0.750			
0.6251	40004.74	3.6580	3.6582	1.6518	24.57	-0.13	0.750			
0.6299	40315.18	3.6550	3.6553	1.5382	24.58	-0.12	0.750			
0.6345	40605.78	3.6520	3.6518	1.4311	24.58	-0.12	0.750			
0.6386	40869.63	3.6490	3.6493	1.3309	24.59	-0.11	0.750			
0.6424	41111.91	3.6460	3.6461	1.2388	24.59	-0.11	0.750			
0.6460	41342.94	3.6430	3.6421	1.1722	24.60	-0.10	0.750			
0.6493	41556.97	3.6400	3.6402	1.0946	24.60	-0.10	0.750			
0.6525	41759.66	3.6370	3.6371	1.0443	24.61	-0.09	0.750			
0.6555	41954.44	3.6340	3.6341	1.0071	24.61	-0.09	0.750			
0.6585	42145.83	3.6310	3.6306	0.9699	24.62	-0.08	0.750			
0.6613	42321.88	3.6280	3.6281	0.9220	24.63	-0.07	0.750			
0.6640	42496.23	3.6250	3.6251	0.8865	24.64	-0.06	0.750			
0.6667	42665.79	3.6220	3.6221	0.8540	24.65	-0.05	0.750			
0.6692	42825.89	3.6190	3.6190	0.8115	24.65	-0.05	0.750			
0.6716	42979.29	3.6160	3.6157	0.7665	24.66	-0.04	0.750			
0.6738	43122.31	3.6130	3.6132	0.7197	24.67	-0.03	0.750			
0.6759	43257.55	3.6100	3.6100	0.6738	24.68	-0.02	0.750			
0.6779	43385.51	3.6070	3.6070	0.6195	24.68	-0.02	0.750			
0.6796	43496.37	3.6040	3.6039	0.5581	24.69	-0.01	0.750			
0.6813	43600.02	3.6010	3.6010	0.5077	24.69	-0.01	0.750			
0.6827	43691.48	3.5980	3.5982	0.4569	24.70	-0.00	0.750			
0.6840	43773.34	3.5950	3.5951	0.4122	24.70	0.00	0.750			
0.6851	43847.09	3.5920	3.5921	0.3638	24.70	0.00	0.750			
0.6862	43914.61	3.5890	3.5892	0.3142	24.71	0.01	0.750			
0.6870	43970.87	3.5860	3.5861	0.2676	24.71	0.01	0.750			
0.6878	44019.39	3.5830	3.5832	0.2186	24.71	0.01	0.750			
0.6884	44057.81	3.5800	3.5801	0.1655	24.72	0.02	0.750			
0.6888	44084.85	3.5770	3.5776	0.1038	24.72	0.02	0.750			
0.6890	44099.16	3.5740	3.5750	0.0434	24.72	0.02	0.750			
