Ah_balance (normalized)	Ah_balance (mAh)	Voltage - fit (V)	Voltage -  interpolate (V)	dQ/dV (1/V)	Temperature (°C)	Temperature - diff (°C)	Current (C)	R_DC 0ms (mOhm)	R_DC 50ms (mOhm)	R_DC 50 ms PEC (mOhm)
0.0490	3136.91	4.1970	4.1968	0.7525	25.56	0.49	0.750			
0.0513	3280.39	4.1940	4.1940	0.7493	25.56	0.49	0.750			
0.0535	3426.56	4.1910	4.1910	0.7515	25.56	0.49	0.750			
0.0558	3570.21	4.1880	4.1880	0.7505	25.55	0.48	0.750			
0.0580	3713.55	4.1850	4.1850	0.7500	25.55	0.48	0.750			
0.0603	3857.67	4.1820	4.1821	0.7510	25.55	0.48	0.750			
0.0625	4002.07	4.1790	4.1791	0.7536	25.55	0.48	0.750			
0.0648	4146.33	4.1760	4.1760	0.7590	25.55	0.48	0.750			
0.0671	4293.05	4.1730	4.1730	0.7552	25.55	0.48	0.750			
0.0694	4439.25	4.1700	4.1700	0.7599	25.55	0.48	0.750			
0.0716	4583.71	4.1670	4.1671	0.7594	25.55	0.48	0.750			
0.0739	4729.39	4.1640	4.1635	0.7621	25.55	0.48	0.750			
0.0762	4875.89	4.1610	4.1611	0.7663	25.55	0.48	0.750			
0.0785	5023.47	4.1580	4.1580	0.7658	25.55	0.48	0.750			
0.0808	5170.83	4.1550	4.1550	0.7672	25.56	0.49	0.750			
0.0832	5321.66	4.1520	4.1520	0.7730	25.56	0.49	0.750			
0.0854	5467.60	4.1490	4.1491	0.7657	25.56	0.49	0.750			
0.0877	5613.65	4.1460	4.1460	0.7677	25.56	0.49	0.750			
0.0900	5761.25	4.1430	4.1431	0.7656	25.56	0.49	0.750			
0.0923	5907.62	4.1400	4.1400	0.7663	25.56	0.49	0.750			
0.0946	6055.36	4.1370	4.1370	0.7691	25.57	0.50	0.750			
0.0969	6201.79	4.1340	4.1341	0.7722	25.57	0.50	0.750			
0.0992	6350.48	4.1310	4.1308	0.7749	25.57	0.50	0.750			
0.1016	6500.14	4.1280	4.1280	0.7798	25.57	0.50	0.750			
0.1039	6651.14	4.1250	4.1251	0.7742	25.57	0.50	0.750			
0.1063	6801.35	4.1220	4.1220	0.7796	25.57	0.50	0.750			
0.1086	6949.09	4.1190	4.1191	0.7779	25.57	0.50	0.750			
0.1109	7098.13	4.1160	4.1160	0.7810	25.57	0.50	0.750			
0.1132	7247.89	4.1130	4.1131	0.7809	25.57	0.50	0.750			
0.1156	7399.65	4.1100	4.1100	0.7834	25.57	0.50	0.750			
0.1180	7550.02	4.1070	4.1070	0.7846	25.57	0.50	0.750			
0.1204	7702.66	4.1040	4.1040	0.7908	25.57	0.50	0.750			
0.1227	7851.64	4.1010	4.1010	0.7889	25.57	0.50	0.750			
0.1251	8003.39	4.0980	4.0980	0.7902	25.57	0.50	0.750			
0.1275	8157.26	4.0950	4.0949	0.7883	25.57	0.50	0.750			
0.1298	8308.77	4.0920	4.0921	0.7901	25.57	0.50	0.750			
0.1322	8460.40	4.0890	4.0891	0.7940	25.58	0.51	0.750			
0.1346	8611.37	4.0860	4.0860	0.7949	25.58	0.51	0.750			
0.1369	8762.86	4.0830	4.0829	0.7984	25.58	0.51	0.750			
0.1393	8917.44	4.0800	4.0801	0.8032	25.58	0.51	0.750			
0.1418	9075.15	4.0770	4.0769	0.8019	25.58	0.51	0.750			
0.1442	9227.90	4.0740	4.0741	0.8058	25.59	0.52	0.750			
0.1466	9380.50	4.0710	4.0711	0.8067	25.59	0.52	0.750			
0.1490	9535.55	4.0680	4.0676	0.8102	25.59	0.52	0.750			
0.1514	9690.70	4.0650	4.0651	0.8142	25.59	0.52	0.750			
0.1539	9848.31	4.0620	4.0621	0.8192	25.59	0.52	0.750			
0.1564	10009.68	4.0590	4.0590	0.8266	25.59	0.52	0.750			
0.1589	10168.02	4.0560	4.0560	0.8225	25.59	0.52	0.750			
0.1613	10325.26	4.0530	4.0531	0.8245	25.59	0.52	0.750			
0.1638	10483.39	4.0500	4.0500	0.8250	25.59	0.52	0.750			
0.1663	10642.75	4.0470	4.0470	0.8249	25.59	0.52	0.750			
0.1687	10799.41	4.0440	4.0440	0.8277	25.60	0.53	0.750			
0.1712	10959.16	4.0410	4.0411	0.8318	25.60	0.53	0.750			
0.1737	11118.83	4.0380	4.0378	0.8331	25.60	0.53	0.750			
0.1762	11279.05	4.0350	4.0350	0.8353	25.60	0.53	0.750			
0.1788	11440.16	4.0320	4.0321	0.8340	25.60	0.53	0.750			
0.1813	11601.20	4.0290	4.0290	0.8377	25.60	0.53	0.750			
0.1838	11760.43	4.0260	4.0260	0.8371	25.60	0.53	0.750			
0.1863	11921.37	4.0230	4.0228	0.8415	25.60	0.53	0.750			
0.1888	12082.93	4.0200	4.0200	0.8480	25.60	0.53	0.750			
0.1914	12246.85	4.0170	4.0170	0.8542	25.60	0.53	0.750			
0.1939	12412.18	4.0140	4.0140	0.8617	25.61	0.54	0.750			
0.1965	12579.11	4.0110	4.0110	0.8594	25.61	0.54	0.750			
0.1992	12745.96	4.0080	4.0080	0.8610	25.61	0.54	0.750			
0.2017	12911.21	4.0050	4.0049	0.8592	25.61	0.54	0.750			
0.2043	13075.04	4.0020	4.0021	0.8608	25.61	0.54	0.750			
0.2069	13239.42	3.9990	3.9989	0.8631	25.61	0.54	0.750			
0.2094	13404.43	3.9960	3.9960	0.8669	25.61	0.54	0.750			
0.2121	13571.87	3.9930	3.9930	0.8702	25.61	0.54	0.750			
0.2147	13741.16	3.9900	3.9901	0.8739	25.61	0.54	0.750			
0.2173	13910.05	3.9870	3.9869	0.8789	25.61	0.54	0.750			
0.2200	14078.55	3.9840	3.9840	0.8792	25.62	0.55	0.750			
0.2226	14246.05	3.9810	3.9811	0.8771	25.62	0.55	0.750			
0.2252	14415.59	3.9780	3.9781	0.8792	25.62	0.55	0.750			
0.2279	14584.98	3.9750	3.9750	0.8816	25.62	0.55	0.750			
0.2305	14754.66	3.9720	3.9720	0.8849	25.63	0.56	0.750			
0.2332	14924.48	3.9690	3.9691	0.8872	25.63	0.56	0.750			
0.2358	15094.04	3.9660	3.9659	0.8864	25.63	0.56	0.750			
0.2385	15265.27	3.9630	3.9630	0.8881	25.63	0.56	0.750			
0.2412	15436.02	3.9600	3.9600	0.8882	25.63	0.56	0.750			
0.2439	15606.76	3.9570	3.9570	0.8910	25.63	0.56	0.750			
0.2465	15777.31	3.9540	3.9540	0.8898	25.63	0.56	0.750			
0.2492	15947.39	3.9510	3.9509	0.8901	25.63	0.56	0.750			
0.2519	16123.22	3.9480	3.9479	0.8785	25.63	0.56	0.750			
0.2545	16288.93	3.9450	3.9451	0.8846	25.63	0.56	0.750			
0.2571	16457.59	3.9420	3.9421	0.8860	25.62	0.55	0.750			
0.2598	16626.11	3.9390	3.9392	0.8867	25.62	0.55	0.750			
0.2624	16795.70	3.9360	3.9357	0.8902	25.62	0.55	0.750			
0.2651	16968.19	3.9330	3.9332	0.8978	25.62	0.55	0.750			
0.2679	17142.81	3.9300	3.9301	0.9043	25.61	0.54	0.750			
0.2706	17319.65	3.9270	3.9269	0.9076	25.61	0.54	0.750			
0.2733	17492.04	3.9240	3.9240	0.8975	25.61	0.54	0.750			
0.2760	17665.93	3.9210	3.9210	0.8997	25.61	0.54	0.750			
0.2787	17838.84	3.9180	3.9180	0.8934	25.61	0.54	0.750			
0.2814	18009.38	3.9150	3.9150	0.8891	25.60	0.53	0.750			
0.2840	18178.18	3.9120	3.9121	0.8903	25.60	0.53	0.750			
0.2867	18349.33	3.9090	3.9088	0.8928	25.60	0.53	0.750			
0.2894	18521.33	3.9060	3.9060	0.8920	25.60	0.53	0.750			
0.2921	18691.98	3.9030	3.9031	0.8966	25.60	0.53	0.750			
0.2948	18865.91	3.9000	3.9000	0.9006	25.59	0.52	0.750			
0.2975	19039.38	3.8970	3.8970	0.9045	25.59	0.52	0.750			
0.3002	19212.42	3.8940	3.8941	0.9006	25.59	0.52	0.750			
0.3029	19384.74	3.8910	3.8911	0.8981	25.58	0.51	0.750			
0.3056	19557.07	3.8880	3.8880	0.9012	25.58	0.51	0.750			
0.3083	19730.26	3.8850	3.8851	0.9014	25.58	0.51	0.750			
0.3110	19901.90	3.8820	3.8819	0.9026	25.57	0.50	0.750			
0.3137	20077.35	3.8790	3.8791	0.9037	25.56	0.49	0.750			
0.3164	20250.09	3.8760	3.8760	0.9063	25.55	0.48	0.750			
0.3192	20426.47	3.8730	3.8730	0.9091	25.55	0.48	0.750			
0.3219	20600.72	3.8700	3.8700	0.9061	25.54	0.47	0.750			
0.3246	20772.47	3.8670	3.8670	0.9021	25.53	0.46	0.750			
0.3273	20947.88	3.8640	3.8640	0.8948	25.52	0.45	0.750			
0.3300	21116.93	3.8610	3.8610	0.8968	25.52	0.45	0.750			
0.3326	21287.54	3.8580	3.8581	0.9073	25.52	0.45	0.750			
0.3353	21460.68	3.8550	3.8551	0.9106	25.51	0.44	0.750			
0.3382	21641.63	3.8520	3.8520	0.9090	25.50	0.43	0.750			
0.3409	21816.22	3.8490	3.8490	0.9176	25.50	0.43	0.750			
0.3436	21991.12	3.8460	3.8462	0.9327	25.49	0.42	0.750			
0.3464	22172.66	3.8430	3.8430	0.9439	25.48	0.41	0.750			
0.3493	22352.39	3.8400	3.8397	0.9417	25.47	0.40	0.750	0.321	0.447	
0.3521	22534.51	3.8370	3.8371	0.9434	25.46	0.39	0.750			
0.3550	22717.82	3.8340	3.8341	0.9552	25.45	0.38	0.750			
0.3578	22901.95	3.8310	3.8310	0.9636	25.44	0.37	0.750			
0.3607	23084.52	3.8280	3.8279	0.9566	25.43	0.36	0.750			
0.3636	23270.34	3.8250	3.8250	0.9594	25.42	0.35	0.750			
0.3665	23454.87	3.8220	3.8220	0.9754	25.41	0.34	0.750			
0.3694	23643.64	3.8190	3.8191	0.9858	25.40	0.33	0.750			
0.3724	23834.66	3.8160	3.8160	0.9948	25.40	0.33	0.750			
0.3754	24023.90	3.8130	3.8131	1.0020	25.39	0.32	0.750			
0.3784	24218.14	3.8100	3.8100	1.0112	25.38	0.31	0.750			
0.3815	24414.83	3.8070	3.8070	1.0211	25.37	0.30	0.750			
0.3845	24610.71	3.8040	3.8040	1.0326	25.36	0.29	0.750			
0.3876	24808.30	3.8010	3.8010	1.0350	25.35	0.28	0.750			
0.3907	25007.94	3.7980	3.7980	1.0531	25.34	0.27	0.750			
0.3939	25211.78	3.7950	3.7950	1.0660	25.33	0.26	0.750			
0.3971	25415.92	3.7920	3.7921	1.0805	25.32	0.25	0.750			
0.4004	25628.01	3.7890	3.7889	1.0911	25.31	0.24	0.750			
0.4037	25837.14	3.7860	3.7861	1.1140	25.30	0.23	0.750			
0.4070	26050.92	3.7830	3.7830	1.1339	25.29	0.22	0.750			
0.4105	26271.18	3.7800	3.7799	1.1587	25.27	0.20	0.750			
0.4140	26495.05	3.7770	3.7770	1.1802	25.27	0.20	0.750			
0.4176	26725.01	3.7740	3.7740	1.2049	25.26	0.19	0.750			
0.4212	26958.42	3.7710	3.7711	1.2285	25.25	0.18	0.750			
0.4250	27198.91	3.7680	3.7680	1.2354	25.25	0.18	0.750			
0.4287	27435.10	3.7650	3.7650	1.2599	25.23	0.16	0.750			
0.4325	27682.23	3.7620	3.7620	1.2608	25.22	0.15	0.750			
0.4363	27925.77	3.7590	3.7587	1.2629	25.20	0.13	0.750			
0.4400	28161.06	3.7560	3.7563	1.2595	25.19	0.12	0.750			
0.4437	28396.59	3.7530	3.7535	1.2868	25.18	0.11	0.750			
0.4475	28637.89	3.7500	3.7501	1.3240	25.17	0.10	0.750			
0.4515	28898.31	3.7470	3.7471	1.3431	25.16	0.09	0.750			
0.4556	29158.42	3.7440	3.7443	1.4234	25.15	0.08	0.750			
0.4603	29456.60	3.7410	3.7411	1.4764	25.13	0.06	0.750			
0.4649	29751.79	3.7380	3.7373	1.5165	25.12	0.05	0.750			
0.4694	30040.89	3.7350	3.7352	1.5158	25.11	0.04	0.750			
0.4740	30333.61	3.7320	3.7319	1.5641	25.10	0.03	0.750			
0.4787	30639.38	3.7290	3.7287	1.6156	25.09	0.02	0.750			
0.4837	30953.77	3.7260	3.7259	1.6887	25.08	0.01	0.750			
0.4887	31279.72	3.7230	3.7232	1.7132	25.07	0.00	0.750			
0.4940	31617.95	3.7200	3.7205	1.8283	25.06	-0.01	0.750			
0.4996	31974.08	3.7170	3.7173	1.8742	25.04	-0.03	0.750			
0.5053	32338.59	3.7140	3.7137	1.9110	25.03	-0.04	0.750			
0.5112	32716.41	3.7110	3.7108	1.9415	25.02	-0.05	0.750			
0.5169	33080.26	3.7080	3.7085	1.9744	25.01	-0.06	0.750			
0.5229	33467.58	3.7050	3.7052	2.0553	24.99	-0.08	0.750			
0.5291	33864.71	3.7020	3.7014	2.1266	24.98	-0.09	0.750			
0.5356	34276.73	3.6990	3.6991	2.2182	24.96	-0.11	0.750			
0.5423	34704.20	3.6960	3.6959	2.2990	24.96	-0.11	0.750			
0.5493	35157.72	3.6930	3.6930	2.2723	24.96	-0.11	0.750			
0.5565	35615.11	3.6900	3.6897	2.3620	24.95	-0.12	0.750			
0.5636	36072.25	3.6870	3.6874	2.4803	24.94	-0.13	0.750			
0.5708	36530.61	3.6840	3.6834	2.3979	24.93	-0.14	0.750			
0.5783	37009.74	3.6810	3.6817	2.5437	24.93	-0.14	0.750			
0.5857	37487.54	3.6780	3.6781	2.5322	24.93	-0.14	0.750			
0.5939	38007.20	3.6750	3.6744	2.5579	24.93	-0.14	0.750			
0.6010	38465.09	3.6720	3.6722	2.3748	24.93	-0.14	0.750			
0.6080	38914.46	3.6690	3.6688	2.2625	24.94	-0.13	0.750			
0.6150	39358.56	3.6660	3.6661	2.1614	24.94	-0.13	0.750			
0.6213	39763.63	3.6630	3.6635	2.0894	24.95	-0.12	0.750			
0.6270	40125.97	3.6600	3.6602	1.8800	24.95	-0.12	0.750			
0.6323	40467.41	3.6570	3.6563	1.7427	24.96	-0.11	0.750			
0.6373	40784.17	3.6540	3.6539	1.5931	24.96	-0.11	0.750			
0.6420	41087.34	3.6510	3.6513	1.5160	24.97	-0.10	0.750			
0.6464	41368.98	3.6480	3.6481	1.4049	24.98	-0.09	0.750			
0.6505	41631.13	3.6450	3.6450	1.2908	24.98	-0.09	0.750			
0.6541	41864.92	3.6420	3.6420	1.1952	24.99	-0.08	0.750			
0.6576	42086.15	3.6390	3.6390	1.1270	24.99	-0.08	0.750			
0.6608	42293.40	3.6360	3.6357	1.0704	25.00	-0.07	0.750			
0.6639	42492.03	3.6330	3.6331	1.0228	25.01	-0.06	0.750			
0.6669	42678.68	3.6300	3.6300	0.9684	25.02	-0.05	0.750			
0.6697	42858.92	3.6270	3.6271	0.9386	25.03	-0.04	0.750			
0.6724	43035.59	3.6240	3.6241	0.9091	25.03	-0.04	0.750			
0.6751	43204.82	3.6210	3.6206	0.8738	25.04	-0.03	0.750			
0.6777	43372.71	3.6180	3.6183	0.8397	25.05	-0.02	0.750			
0.6802	43532.04	3.6150	3.6151	0.8022	25.05	-0.02	0.750			
0.6827	43690.80	3.6120	3.6120	0.7502	25.06	-0.01	0.750			
0.6848	43828.61	3.6090	3.6090	0.6650	25.07	-0.00	0.750			
0.6867	43946.02	3.6060	3.6063	0.6210	25.07	0.00	0.750			
0.6884	44058.12	3.6030	3.6035	0.5753	25.07	0.00	0.750			
0.6900	44161.65	3.6000	3.6003	0.5243	25.08	0.01	0.750			
0.6915	44258.32	3.5970	3.5977	0.4830	25.08	0.01	0.750			
0.6930	44349.72	3.5940	3.5943	0.4402	25.09	0.02	0.750			
0.6943	44435.76	3.5910	3.5910	0.4006	25.09	0.02	0.750			
0.6954	44506.16	3.5880	3.5879	0.3414	25.09	0.02	0.750			
0.6963	44562.82	3.5850	3.5850	0.2757	25.09	0.02	0.750			
0.6971	44611.75	3.5820	3.5820	0.2264	25.10	0.03	0.750			
0.6977	44651.27	3.5790	3.5791	0.1746	25.10	0.03	0.750			
0.6981	44679.61	3.5760	3.5763	0.1206	25.10	0.03	0.750			
0.6984	44697.73	3.5730	3.5734	0.0558	25.10	0.03	0.750			
