Ah_balance (normalized)	Ah_balance (mAh)	Voltage - fit (V)	Voltage -  interpolate (V)	dQ/dV (1/V)	Temperature (°C)	Temperature - diff (°C)	Current (C)	R_DC 0ms (mOhm)	R_DC 50ms (mOhm)	R_DC 50 ms PEC (mOhm)
0.0474	3036.75	4.1990	4.1990	0.7243	25.57	0.67	0.750			
0.0497	3177.68	4.1960	4.1960	0.7401	25.57	0.67	0.750			
0.0519	3321.62	4.1930	4.1930	0.7489	25.57	0.67	0.750			
0.0542	3466.25	4.1900	4.1900	0.7521	25.57	0.67	0.750			
0.0565	3614.71	4.1870	4.1870	0.7428	25.57	0.67	0.750			
0.0587	3754.22	4.1840	4.1841	0.7495	25.57	0.67	0.750			
0.0609	3896.81	4.1810	4.1811	0.7501	25.57	0.67	0.750			
0.0631	4039.99	4.1780	4.1779	0.7543	25.57	0.67	0.750			
0.0654	4185.29	4.1750	4.1751	0.7596	25.57	0.67	0.750			
0.0677	4335.09	4.1720	4.1720	0.7574	25.57	0.67	0.750			
0.0700	4480.36	4.1690	4.1690	0.7623	25.56	0.66	0.750			
0.0723	4627.05	4.1660	4.1661	0.7599	25.56	0.66	0.750			
0.0746	4772.83	4.1630	4.1631	0.7613	25.56	0.66	0.750			
0.0769	4918.95	4.1600	4.1601	0.7646	25.56	0.66	0.750			
0.0792	5067.04	4.1570	4.1571	0.7628	25.56	0.66	0.750			
0.0815	5216.22	4.1540	4.1540	0.7586	25.56	0.66	0.750			
0.0838	5361.54	4.1510	4.1510	0.7552	25.55	0.65	0.750			
0.0860	5503.75	4.1480	4.1482	0.7487	25.55	0.65	0.750			
0.0882	5645.26	4.1450	4.1448	0.7542	25.55	0.65	0.750			
0.0904	5788.63	4.1420	4.1420	0.7586	25.55	0.65	0.750			
0.0928	5938.71	4.1390	4.1389	0.7559	25.55	0.65	0.750			
0.0951	6086.11	4.1360	4.1360	0.7705	25.55	0.65	0.750			
0.0974	6232.70	4.1330	4.1332	0.7766	25.55	0.65	0.750			
0.0997	6380.98	4.1300	4.1301	0.7777	25.55	0.65	0.750			
0.1020	6530.61	4.1270	4.1270	0.7754	25.55	0.65	0.750			
0.1044	6679.70	4.1240	4.1241	0.7784	25.55	0.65	0.750			
0.1067	6830.64	4.1210	4.1211	0.7770	25.55	0.65	0.750			
0.1091	6980.46	4.1180	4.1180	0.7781	25.55	0.65	0.750			
0.1114	7126.87	4.1150	4.1150	0.7757	25.55	0.65	0.750			
0.1137	7275.56	4.1120	4.1111	0.7802	25.55	0.65	0.750			
0.1160	7426.98	4.1090	4.1091	0.7845	25.55	0.65	0.750			
0.1184	7579.54	4.1060	4.1061	0.7878	25.55	0.65	0.750			
0.1208	7731.20	4.1030	4.1030	0.7957	25.55	0.65	0.750			
0.1232	7885.05	4.1000	4.1000	0.8020	25.55	0.65	0.750			
0.1256	8037.25	4.0970	4.0968	0.7943	25.55	0.65	0.750			
0.1280	8189.90	4.0940	4.0940	0.7954	25.55	0.65	0.750			
0.1304	8345.32	4.0910	4.0911	0.7938	25.55	0.65	0.750			
0.1328	8498.80	4.0880	4.0879	0.7897	25.55	0.65	0.750			
0.1351	8649.18	4.0850	4.0849	0.7895	25.55	0.65	0.750			
0.1375	8797.54	4.0820	4.0821	0.7920	25.55	0.65	0.750			
0.1398	8947.60	4.0790	4.0793	0.7985	25.55	0.65	0.750			
0.1423	9106.03	4.0760	4.0762	0.7986	25.55	0.65	0.750			
0.1447	9258.63	4.0730	4.0731	0.8056	25.55	0.65	0.750			
0.1471	9414.93	4.0700	4.0701	0.8160	25.55	0.65	0.750			
0.1495	9570.94	4.0670	4.0672	0.8161	25.55	0.65	0.750			
0.1520	9727.46	4.0640	4.0639	0.8174	25.55	0.65	0.750			
0.1545	9886.50	4.0610	4.0610	0.8176	25.55	0.65	0.750			
0.1569	10043.55	4.0580	4.0581	0.8218	25.55	0.65	0.750			
0.1594	10203.21	4.0550	4.0550	0.8236	25.55	0.65	0.750			
0.1619	10360.07	4.0520	4.0521	0.8195	25.55	0.65	0.750			
0.1643	10517.33	4.0490	4.0489	0.8209	25.55	0.65	0.750			
0.1668	10675.65	4.0460	4.0459	0.8227	25.55	0.65	0.750			
0.1693	10834.94	4.0430	4.0430	0.8102	25.55	0.65	0.750			
0.1717	10988.10	4.0400	4.0401	0.8210	25.55	0.65	0.750			
0.1741	11144.00	4.0370	4.0371	0.8232	25.55	0.65	0.750			
0.1766	11303.29	4.0340	4.0335	0.8272	25.55	0.65	0.750			
0.1791	11461.30	4.0310	4.0312	0.8306	25.55	0.65	0.750			
0.1816	11622.07	4.0280	4.0281	0.8278	25.55	0.65	0.750			
0.1841	11783.38	4.0250	4.0249	0.8359	25.55	0.65	0.750			
0.1866	11941.08	4.0220	4.0221	0.8313	25.55	0.65	0.750			
0.1891	12099.41	4.0190	4.0188	0.8408	25.55	0.65	0.750			
0.1916	12263.50	4.0160	4.0161	0.8473	25.55	0.65	0.750			
0.1942	12428.09	4.0130	4.0130	0.8566	25.55	0.65	0.750			
0.1968	12594.89	4.0100	4.0100	0.8646	25.55	0.65	0.750			
0.1994	12763.92	4.0070	4.0070	0.8706	25.55	0.65	0.750			
0.2020	12926.62	4.0040	4.0040	0.8652	25.55	0.65	0.750			
0.2046	13093.03	4.0010	4.0010	0.8711	25.55	0.65	0.750			
0.2072	13257.94	3.9980	3.9980	0.8632	25.55	0.65	0.750			
0.2097	13423.39	3.9950	3.9951	0.8714	25.55	0.65	0.750			
0.2123	13589.79	3.9920	3.9921	0.8770	25.55	0.65	0.750			
0.2150	13759.40	3.9890	3.9892	0.8791	25.55	0.65	0.750			
0.2177	13930.63	3.9860	3.9861	0.8774	25.55	0.65	0.750			
0.2203	14099.63	3.9830	3.9831	0.8848	25.55	0.65	0.750			
0.2230	14270.59	3.9800	3.9801	0.8892	25.55	0.65	0.750			
0.2256	14438.54	3.9770	3.9767	0.8800	25.55	0.65	0.750			
0.2283	14609.34	3.9740	3.9741	0.8874	25.55	0.65	0.750			
0.2309	14780.29	3.9710	3.9711	0.8853	25.55	0.65	0.750			
0.2336	14951.29	3.9680	3.9680	0.8893	25.55	0.65	0.750			
0.2363	15123.17	3.9650	3.9650	0.8944	25.55	0.65	0.750			
0.2389	15291.83	3.9620	3.9618	0.8898	25.55	0.65	0.750			
0.2416	15463.87	3.9590	3.9590	0.8916	25.55	0.65	0.750			
0.2443	15635.49	3.9560	3.9561	0.8821	25.55	0.65	0.750			
0.2469	15802.38	3.9530	3.9531	0.8961	25.55	0.65	0.750			
0.2496	15974.96	3.9500	3.9501	0.8931	25.55	0.65	0.750			
0.2523	16147.37	3.9470	3.9471	0.8897	25.55	0.65	0.750			
0.2550	16319.25	3.9440	3.9444	0.8850	25.55	0.65	0.750			
0.2577	16491.15	3.9410	3.9410	0.8907	25.55	0.65	0.750			
0.2604	16662.86	3.9380	3.9379	0.8916	25.55	0.65	0.750			
0.2629	16828.74	3.9350	3.9348	0.8781	25.55	0.65	0.750			
0.2656	16996.13	3.9320	3.9322	0.8855	25.55	0.65	0.750			
0.2683	17172.43	3.9290	3.9290	0.8959	25.55	0.65	0.750			
0.2710	17343.91	3.9260	3.9261	0.9005	25.55	0.65	0.750			
0.2737	17517.87	3.9230	3.9230	0.9041	25.55	0.65	0.750			
0.2764	17689.92	3.9200	3.9198	0.9024	25.55	0.65	0.750			
0.2791	17863.94	3.9170	3.9170	0.9021	25.55	0.65	0.750			
0.2818	18038.01	3.9140	3.9141	0.8892	25.54	0.64	0.750			
0.2845	18206.03	3.9110	3.9111	0.8967	25.54	0.64	0.750			
0.2871	18376.22	3.9080	3.9082	0.8966	25.53	0.63	0.750			
0.2898	18547.91	3.9050	3.9051	0.8958	25.53	0.63	0.750			
0.2925	18721.85	3.9020	3.9021	0.8983	25.52	0.62	0.750			
0.2953	18896.81	3.8990	3.8992	0.9035	25.52	0.62	0.750			
0.2980	19072.16	3.8960	3.8960	0.9042	25.52	0.62	0.750			
0.3007	19242.81	3.8930	3.8927	0.8950	25.51	0.61	0.750			
0.3034	19415.59	3.8900	3.8901	0.8928	25.51	0.61	0.750			
0.3060	19586.68	3.8870	3.8870	0.8988	25.50	0.60	0.750			
0.3087	19759.66	3.8840	3.8840	0.9058	25.50	0.60	0.750			
0.3115	19935.39	3.8810	3.8810	0.9105	25.49	0.59	0.750			
0.3142	20109.27	3.8780	3.8779	0.9107	25.49	0.59	0.750			
0.3170	20285.22	3.8750	3.8750	0.9114	25.48	0.58	0.750			
0.3197	20460.92	3.8720	3.8720	0.8924	25.48	0.58	0.750			
0.3223	20627.67	3.8690	3.8691	0.9013	25.48	0.58	0.750			
0.3250	20798.10	3.8660	3.8663	0.9028	25.47	0.57	0.750			
0.3277	20970.73	3.8630	3.8631	0.9064	25.47	0.57	0.750			
0.3305	21148.85	3.8600	3.8601	0.8992	25.46	0.56	0.750			
0.3331	21321.28	3.8570	3.8572	0.9137	25.45	0.55	0.750			
0.3359	21498.14	3.8540	3.8542	0.9222	25.44	0.54	0.750			
0.3387	21673.93	3.8510	3.8500	0.9167	25.43	0.53	0.750			
0.3414	21849.76	3.8480	3.8482	0.9173	25.42	0.52	0.750			
0.3441	22024.93	3.8450	3.8452	0.9351	25.42	0.52	0.750			
0.3470	22206.80	3.8420	3.8422	0.9503	25.41	0.51	0.750			
0.3500	22397.09	3.8390	3.8386	0.9693	25.40	0.50	0.750	0.329	0.457	
0.3528	22576.73	3.8360	3.8362	0.9587	25.40	0.50	0.750			
0.3557	22765.50	3.8330	3.8331	0.9469	25.39	0.49	0.750			
0.3585	22945.53	3.8300	3.8301	0.9602	25.38	0.48	0.750			
0.3613	23125.40	3.8270	3.8271	0.9541	25.38	0.48	0.750			
0.3642	23308.28	3.8240	3.8234	0.9651	25.37	0.47	0.750			
0.3671	23495.81	3.8210	3.8212	0.9676	25.36	0.46	0.750			
0.3700	23682.13	3.8180	3.8181	0.9813	25.34	0.44	0.750			
0.3730	23873.52	3.8150	3.8151	1.0020	25.33	0.43	0.750			
0.3760	24065.10	3.8120	3.8112	1.0005	25.32	0.42	0.750			
0.3790	24258.57	3.8090	3.8090	1.0043	25.31	0.41	0.750			
0.3821	24454.20	3.8060	3.8061	1.0193	25.31	0.41	0.750			
0.3852	24650.88	3.8030	3.8032	1.0342	25.30	0.40	0.750			
0.3883	24852.84	3.8000	3.7998	1.0514	25.29	0.39	0.750			
0.3915	25056.90	3.7970	3.7969	1.0220	25.28	0.38	0.750			
0.3945	25247.64	3.7940	3.7941	1.0567	25.28	0.38	0.750			
0.3977	25451.33	3.7910	3.7912	1.0804	25.27	0.37	0.750			
0.4009	25659.89	3.7880	3.7873	1.1008	25.26	0.36	0.750			
0.4043	25873.10	3.7850	3.7853	1.1100	25.25	0.35	0.750			
0.4076	26084.81	3.7820	3.7822	1.1373	25.23	0.33	0.750			
0.4111	26308.96	3.7790	3.7792	1.1643	25.22	0.32	0.750			
0.4146	26535.22	3.7760	3.7762	1.1628	25.21	0.31	0.750			
0.4181	26760.14	3.7730	3.7731	1.1925	25.20	0.30	0.750			
0.4218	26993.74	3.7700	3.7703	1.2255	25.18	0.28	0.750			
0.4256	27240.64	3.7670	3.7667	1.2263	25.17	0.27	0.750			
0.4293	27473.05	3.7640	3.7641	1.2477	25.16	0.26	0.750			
0.4330	27710.71	3.7610	3.7612	1.2838	25.15	0.25	0.750			
0.4369	27959.00	3.7580	3.7582	1.3227	25.14	0.24	0.750			
0.4408	28212.73	3.7550	3.7551	1.3379	25.13	0.23	0.750			
0.4450	28481.91	3.7520	3.7521	1.3388	25.12	0.22	0.750			
0.4490	28738.28	3.7490	3.7493	1.3984	25.11	0.21	0.750			
0.4534	29018.57	3.7460	3.7462	1.4048	25.09	0.19	0.750			
0.4575	29279.52	3.7430	3.7433	1.4455	25.08	0.18	0.750			
0.4620	29565.93	3.7400	3.7403	1.4668	25.07	0.17	0.750			
0.4665	29852.97	3.7370	3.7374	1.5223	25.05	0.15	0.750			
0.4711	30147.92	3.7340	3.7343	1.5640	25.04	0.14	0.750			
0.4759	30458.31	3.7310	3.7305	1.6213	25.03	0.13	0.750			
0.4807	30766.28	3.7280	3.7283	1.6693	25.02	0.12	0.750			
0.4859	31096.43	3.7250	3.7253	1.7207	25.01	0.11	0.750			
0.4911	31429.75	3.7220	3.7217	1.7521	24.99	0.09	0.750			
0.4965	31775.52	3.7190	3.7189	1.8299	24.98	0.08	0.750			
0.5021	32131.52	3.7160	3.7162	1.8361	24.96	0.06	0.750			
0.5076	32485.53	3.7130	3.7135	1.9055	24.95	0.05	0.750			
0.5133	32852.70	3.7100	3.7096	1.9695	24.94	0.04	0.750			
0.5193	33233.51	3.7070	3.7071	2.0189	24.92	0.02	0.750			
0.5255	33633.60	3.7040	3.7041	2.1643	24.90	0.00	0.750			
0.5321	34055.76	3.7010	3.7011	2.1441	24.89	-0.01	0.750			
0.5385	34464.34	3.6980	3.6981	2.2262	24.87	-0.03	0.750			
0.5451	34884.09	3.6950	3.6954	2.3080	24.85	-0.05	0.750			
0.5519	35318.74	3.6920	3.6922	2.3234	24.84	-0.06	0.750			
0.5593	35792.09	3.6890	3.6888	2.4731	24.83	-0.07	0.750			
0.5662	36235.74	3.6860	3.6860	2.5467	24.82	-0.08	0.750			
0.5746	36772.69	3.6830	3.6828	2.5639	24.80	-0.10	0.750			
0.5822	37258.59	3.6800	3.6806	2.5509	24.80	-0.10	0.750			
0.5896	37734.53	3.6770	3.6766	2.5173	24.79	-0.11	0.750			
0.5971	38216.81	3.6740	3.6742	2.5443	24.78	-0.12	0.750			
0.6053	38742.36	3.6710	3.6711	2.4744	24.78	-0.12	0.750			
0.6123	39186.84	3.6680	3.6681	2.2574	24.78	-0.12	0.750			
0.6189	39606.79	3.6650	3.6653	2.1250	24.78	-0.12	0.750			
0.6248	39990.05	3.6620	3.6623	1.9822	24.79	-0.11	0.750			
0.6305	40351.74	3.6590	3.6588	1.8320	24.79	-0.11	0.750			
0.6359	40699.25	3.6560	3.6554	1.7212	24.80	-0.10	0.750			
0.6411	41028.93	3.6530	3.6533	1.6052	24.80	-0.10	0.750			
0.6456	41317.94	3.6500	3.6502	1.4627	24.81	-0.09	0.750			
0.6498	41587.58	3.6470	3.6470	1.3526	24.82	-0.08	0.750			
0.6537	41837.88	3.6440	3.6439	1.2129	24.82	-0.08	0.750			
0.6570	42050.24	3.6410	3.6411	1.1539	24.83	-0.07	0.750			
0.6604	42263.98	3.6380	3.6382	1.0975	24.83	-0.07	0.750			
0.6636	42467.41	3.6350	3.6342	1.0528	24.84	-0.06	0.750			
0.6666	42663.60	3.6320	3.6322	0.9989	24.84	-0.06	0.750			
0.6695	42848.86	3.6290	3.6292	0.9637	24.85	-0.05	0.750			
0.6724	43032.02	3.6260	3.6260	0.9350	24.85	-0.05	0.750			
0.6751	43208.80	3.6230	3.6232	0.8890	24.86	-0.04	0.750			
0.6778	43377.80	3.6200	3.6201	0.8582	24.87	-0.03	0.750			
0.6804	43545.06	3.6170	3.6170	0.8209	24.87	-0.03	0.750			
0.6828	43698.97	3.6140	3.6141	0.7765	24.88	-0.02	0.750			
0.6852	43851.16	3.6110	3.6109	0.7180	24.89	-0.01	0.750			
0.6872	43977.60	3.6080	3.6081	0.6597	24.90	-0.00	0.750			
0.6890	44096.91	3.6050	3.6051	0.6064	24.90	0.00	0.750			
0.6907	44207.38	3.6020	3.6019	0.5546	24.91	0.01	0.750			
0.6923	44308.91	3.5990	3.5992	0.5044	24.91	0.01	0.750			
0.6938	44401.54	3.5960	3.5962	0.4554	24.92	0.02	0.750			
0.6951	44484.62	3.5930	3.5931	0.4046	24.92	0.02	0.750			
0.6963	44560.30	3.5900	3.5899	0.3630	24.92	0.02	0.750			
0.6972	44622.46	3.5870	3.5871	0.2984	24.93	0.03	0.750			
0.6980	44675.01	3.5840	3.5839	0.2479	24.93	0.03	0.750			
0.6987	44718.76	3.5810	3.5812	0.1976	24.93	0.03	0.750			
0.6992	44751.88	3.5780	3.5784	0.1442	24.93	0.03	0.750			
0.6996	44776.34	3.5750	3.5758	0.0851	24.94	0.04	0.750			
0.6998	44786.96	3.5720	3.5734	0.0201	24.94	0.04	0.750			
