Ah_balance (normalized)	Ah_balance (mAh)	Voltage - fit (V)	Voltage -  interpolate (V)	dQ/dV (1/V)	Temperature (°C)	Temperature - diff (°C)	Current (C)	R_DC 0ms (mOhm)	R_DC 50ms (mOhm)	R_DC 50 ms PEC (mOhm)
0.0003	21.23	4.1640	4.1639	-0.1692	24.40	0.00	-0.250			
0.0010	64.05	4.1610	4.1609	-0.2704	24.40	0.00	-0.250			
0.0020	127.94	4.1580	4.1579	-0.3639	24.40	0.00	-0.250			
0.0033	208.99	4.1550	4.1550	-0.4401	24.40	0.00	-0.250			
0.0047	301.98	4.1520	4.1520	-0.5063	24.40	0.00	-0.250			
0.0065	413.05	4.1490	4.1490	-0.5557	24.40	0.00	-0.250			
0.0082	526.15	4.1460	4.1460	-0.5966	24.40	0.00	-0.250			
0.0101	647.60	4.1430	4.1431	-0.6244	24.40	0.00	-0.250			
0.0120	768.84	4.1400	4.1397	-0.6496	24.40	0.00	-0.250			
0.0141	899.54	4.1370	4.1369	-0.6562	24.40	0.00	-0.250			
0.0161	1028.13	4.1340	4.1343	-0.6658	24.40	0.00	-0.250			
0.0181	1157.68	4.1310	4.1313	-0.6770	24.40	0.00	-0.250			
0.0201	1285.41	4.1280	4.1281	-0.6845	24.40	0.00	-0.250	0.458	0.645	
0.0222	1418.65	4.1250	4.1252	-0.6926	24.41	0.01	-0.250			
0.0243	1553.48	4.1220	4.1223	-0.7102	24.41	0.01	-0.250			
0.0264	1689.53	4.1190	4.1191	-0.7215	24.42	0.02	-0.250			
0.0286	1833.57	4.1160	4.1161	-0.7287	24.42	0.02	-0.250			
0.0309	1975.77	4.1130	4.1130	-0.7314	24.42	0.02	-0.250			
0.0331	2116.60	4.1100	4.1100	-0.7338	24.43	0.03	-0.250			
0.0352	2255.12	4.1070	4.1070	-0.7392	24.43	0.03	-0.250			
0.0375	2399.56	4.1040	4.1041	-0.7464	24.44	0.04	-0.250			
0.0397	2542.82	4.1010	4.1010	-0.7433	24.44	0.04	-0.250	0.323	0.563	
0.0420	2686.64	4.0980	4.0979	-0.7474	24.44	0.04	-0.250			
0.0442	2831.09	4.0950	4.0953	-0.7562	24.44	0.04	-0.250			
0.0465	2973.87	4.0920	4.0921	-0.7612	24.45	0.05	-0.250			
0.0488	3121.77	4.0890	4.0890	-0.7638	24.45	0.05	-0.250			
0.0511	3269.40	4.0860	4.0859	-0.7147	24.45	0.05	-0.250			
0.0531	3399.29	4.0830	4.0829	-0.7354	24.45	0.05	-0.250			
0.0552	3535.06	4.0800	4.0809	-0.7547	24.46	0.06	-0.250			
0.0576	3683.41	4.0770	4.0773	-0.7740	24.46	0.06	-0.250			
0.0599	3833.43	4.0740	4.0748	-0.7963	24.46	0.06	-0.250	0.370	0.576	
0.0624	3994.16	4.0710	4.0717	-0.8150	24.46	0.06	-0.250			
0.0651	4165.43	4.0680	4.0682	-0.8358	24.46	0.06	-0.250			
0.0675	4318.31	4.0650	4.0649	-0.7923	24.46	0.06	-0.250			
0.0699	4471.78	4.0620	4.0623	-0.7991	24.47	0.07	-0.250			
0.0723	4629.48	4.0590	4.0592	-0.7947	24.48	0.08	-0.250			
0.0747	4781.61	4.0560	4.0561	-0.8018	24.48	0.08	-0.250			
0.0771	4936.45	4.0530	4.0530	-0.7909	24.48	0.08	-0.250			
0.0795	5089.73	4.0500	4.0499	-0.7999	24.48	0.08	-0.250	0.340	0.516	
0.0819	5239.85	4.0470	4.0467	-0.8019	24.48	0.08	-0.250			
0.0843	5393.35	4.0440	4.0438	-0.8012	24.48	0.08	-0.250			
0.0867	5548.86	4.0410	4.0410	-0.8066	24.48	0.08	-0.250			
0.0892	5706.13	4.0380	4.0381	-0.8067	24.48	0.08	-0.250			
0.0916	5862.81	4.0350	4.0350	-0.8092	24.49	0.09	-0.250			
0.0940	6019.00	4.0320	4.0320	-0.8139	24.49	0.09	-0.250			
0.0964	6172.32	4.0290	4.0292	-0.8070	24.50	0.10	-0.250			
0.0989	6328.94	4.0260	4.0259	-0.8119	24.50	0.10	-0.250	0.401	0.602	
0.1013	6485.08	4.0230	4.0228	-0.8160	24.50	0.10	-0.250			
0.1038	6640.83	4.0200	4.0200	-0.8240	24.50	0.10	-0.250			
0.1063	6800.05	4.0170	4.0172	-0.8308	24.50	0.10	-0.250			
0.1088	6962.59	4.0140	4.0139	-0.8300	24.50	0.10	-0.250			
0.1113	7121.10	4.0110	4.0110	-0.8234	24.50	0.10	-0.250			
0.1137	7279.95	4.0080	4.0080	-0.8264	24.50	0.10	-0.250			
0.1163	7441.09	4.0050	4.0050	-0.8278	24.50	0.10	-0.250			
0.1187	7595.73	4.0020	4.0019	-0.8263	24.50	0.10	-0.250			
0.1212	7755.18	3.9990	3.9991	-0.8173	24.50	0.10	-0.250	0.387	0.547	
0.1236	7912.34	3.9960	3.9962	-0.8242	24.50	0.10	-0.250			
0.1261	8072.50	3.9930	3.9930	-0.8360	24.50	0.10	-0.250			
0.1286	8229.79	3.9900	3.9896	-0.8366	24.50	0.10	-0.250			
0.1311	8391.41	3.9870	3.9871	-0.8421	24.50	0.10	-0.250			
0.1337	8555.17	3.9840	3.9841	-0.8482	24.50	0.10	-0.250			
0.1363	8722.84	3.9810	3.9810	-0.8524	24.50	0.10	-0.250			
0.1389	8888.15	3.9780	3.9780	-0.8471	24.50	0.10	-0.250	0.388	0.526	
0.1414	9051.90	3.9750	3.9751	-0.8432	24.50	0.10	-0.250			
0.1439	9209.52	3.9720	3.9722	-0.8424	24.50	0.10	-0.250			
0.1464	9369.67	3.9690	3.9686	-0.8444	24.50	0.10	-0.250			
0.1489	9532.49	3.9660	3.9658	-0.8479	24.50	0.10	-0.250			
0.1515	9694.78	3.9630	3.9630	-0.8464	24.50	0.10	-0.250			
0.1540	9857.47	3.9600	3.9603	-0.8863	24.51	0.11	-0.250			
0.1569	10040.84	3.9570	3.9568	-0.8813	24.51	0.11	-0.250			
0.1596	10213.23	3.9540	3.9537	-0.8717	24.51	0.11	-0.250	0.359	0.526	
0.1622	10381.19	3.9510	3.9506	-0.8428	24.52	0.12	-0.250			
0.1648	10545.04	3.9480	3.9476	-0.8383	24.52	0.12	-0.250			
0.1671	10697.52	3.9450	3.9445	-0.8332	24.52	0.12	-0.250			
0.1694	10844.19	3.9420	3.9419	-0.8246	24.52	0.12	-0.250			
0.1720	11007.32	3.9390	3.9392	-0.8609	24.52	0.12	-0.250			
0.1746	11174.08	3.9360	3.9361	-0.8582	24.52	0.12	-0.250			
0.1772	11340.50	3.9330	3.9332	-0.8555	24.52	0.12	-0.250			
0.1798	11508.99	3.9300	3.9300	-0.8411	24.52	0.12	-0.250	0.417	0.585	
0.1823	11668.45	3.9270	3.9268	-0.8402	24.52	0.12	-0.250			
0.1848	11824.53	3.9240	3.9242	-0.8335	24.52	0.12	-0.250			
0.1873	11985.49	3.9210	3.9208	-0.8296	24.53	0.13	-0.250			
0.1898	12145.57	3.9180	3.9181	-0.8360	24.54	0.14	-0.250			
0.1923	12306.33	3.9150	3.9148	-0.8316	24.54	0.14	-0.250			
0.1948	12466.61	3.9120	3.9117	-0.8396	24.54	0.14	-0.250			
0.1973	12627.61	3.9090	3.9092	-0.8299	24.54	0.14	-0.250			
0.1998	12786.10	3.9060	3.9063	-0.8273	24.54	0.14	-0.250	0.400	0.583	
0.2023	12945.40	3.9030	3.9030	-0.8293	24.54	0.14	-0.250			
0.2048	13105.55	3.9000	3.8997	-0.8146	24.56	0.16	-0.250			
0.2073	13264.62	3.8970	3.8970	-0.8091	24.56	0.16	-0.250			
0.2097	13418.30	3.8940	3.8942	-0.8065	24.55	0.15	-0.250			
0.2121	13572.61	3.8910	3.8907	-0.8029	24.55	0.15	-0.250			
0.2145	13726.40	3.8880	3.8881	-0.7976	24.55	0.15	-0.250			
0.2169	13878.79	3.8850	3.8850	-0.7977	24.55	0.15	-0.250			
0.2193	14035.21	3.8820	3.8821	-0.7941	24.55	0.15	-0.250	0.392	0.576	
0.2217	14186.71	3.8790	3.8788	-0.7905	24.56	0.16	-0.250			
0.2240	14338.91	3.8760	3.8760	-0.7861	24.56	0.16	-0.250			
0.2264	14487.96	3.8730	3.8732	-0.7776	24.56	0.16	-0.250			
0.2287	14638.87	3.8700	3.8701	-0.7702	24.56	0.16	-0.250			
0.2310	14786.73	3.8670	3.8671	-0.7655	24.56	0.16	-0.250			
0.2332	14925.48	3.8640	3.8643	-0.7967	24.56	0.16	-0.250			
0.2359	15095.55	3.8610	3.8603	-0.7882	24.56	0.16	-0.250			
0.2382	15247.16	3.8580	3.8577	-0.7757	24.56	0.16	-0.250			
0.2406	15397.62	3.8550	3.8544	-0.7554	24.56	0.16	-0.250	0.391	0.547	
0.2429	15546.86	3.8520	3.8513	-0.7520	24.57	0.17	-0.250			
0.2450	15682.17	3.8490	3.8482	-0.7252	24.57	0.17	-0.250			
0.2470	15810.41	3.8460	3.8461	-0.7168	24.56	0.16	-0.250			
0.2492	15949.84	3.8430	3.8432	-0.7474	24.56	0.16	-0.250			
0.2515	16093.84	3.8400	3.8399	-0.7498	24.56	0.16	-0.250			
0.2537	16237.94	3.8370	3.8370	-0.7541	24.56	0.16	-0.250			
0.2560	16381.95	3.8340	3.8341	-0.7502	24.56	0.16	-0.250			
0.2582	16523.80	3.8310	3.8311	-0.7531	24.57	0.17	-0.250			
0.2605	16672.06	3.8280	3.8279	-0.7554	24.57	0.17	-0.250	0.402	0.562	
0.2627	16815.73	3.8250	3.8249	-0.7568	24.56	0.16	-0.250			
0.2650	16962.77	3.8220	3.8221	-0.7547	24.56	0.16	-0.250			
0.2673	17108.45	3.8190	3.8191	-0.7603	24.57	0.17	-0.250			
0.2696	17253.89	3.8160	3.8158	-0.7576	24.57	0.17	-0.250			
0.2719	17398.96	3.8130	3.8131	-0.7644	24.56	0.16	-0.250			
0.2741	17545.01	3.8100	3.8100	-0.7701	24.56	0.16	-0.250			
0.2765	17693.33	3.8070	3.8070	-0.7805	24.56	0.16	-0.250			
0.2788	17846.29	3.8040	3.8039	-0.7680	24.56	0.16	-0.250			
0.2811	17993.16	3.8010	3.8012	-0.7752	24.56	0.16	-0.250	0.386	0.528	
0.2834	18139.81	3.7980	3.7981	-0.7834	24.55	0.15	-0.250			
0.2859	18294.56	3.7950	3.7945	-0.7934	24.55	0.15	-0.250			
0.2882	18444.26	3.7920	3.7917	-0.7996	24.54	0.14	-0.250			
0.2907	18602.12	3.7890	3.7893	-0.8147	24.54	0.14	-0.250			
0.2932	18762.39	3.7860	3.7862	-0.8191	24.54	0.14	-0.250			
0.2956	18920.09	3.7830	3.7829	-0.8216	24.54	0.14	-0.250			
0.2980	19075.00	3.7800	3.7802	-0.8313	24.54	0.14	-0.250			
0.3006	19236.99	3.7770	3.7768	-0.8419	24.54	0.14	-0.250	0.336	0.513	
0.3031	19401.28	3.7740	3.7742	-0.8447	24.53	0.13	-0.250			
0.3057	19562.58	3.7710	3.7712	-0.8630	24.52	0.12	-0.250			
0.3083	19732.14	3.7680	3.7678	-0.8799	24.52	0.12	-0.250			
0.3110	19902.92	3.7650	3.7646	-0.8874	24.52	0.12	-0.250			
0.3137	20075.58	3.7620	3.7622	-0.8863	24.51	0.11	-0.250			
0.3163	20246.22	3.7590	3.7591	-0.8969	24.50	0.10	-0.250			
0.3190	20416.46	3.7560	3.7561	-0.9090	24.50	0.10	-0.250	0.399	0.608	
0.3217	20590.49	3.7530	3.7530	-0.9096	24.50	0.10	-0.250			
0.3245	20765.24	3.7500	3.7500	-0.9310	24.50	0.10	-0.250			
0.3273	20946.36	3.7470	3.7470	-0.9599	24.50	0.10	-0.250			
0.3302	21134.64	3.7440	3.7439	-0.9783	24.50	0.10	-0.250			
0.3332	21325.45	3.7410	3.7407	-0.9914	24.49	0.09	-0.250			
0.3362	21514.92	3.7380	3.7382	-1.0023	24.48	0.08	-0.250			
0.3392	21709.19	3.7350	3.7349	-1.0137	24.48	0.08	-0.250	0.442	0.597	
0.3423	21906.95	3.7320	3.7319	-1.0262	24.48	0.08	-0.250			
0.3454	22103.33	3.7290	3.7290	-1.0339	24.47	0.07	-0.250			
0.3485	22305.76	3.7260	3.7260	-1.0463	24.46	0.06	-0.250			
0.3517	22510.24	3.7230	3.7230	-1.0572	24.45	0.05	-0.250			
0.3549	22711.21	3.7200	3.7199	-1.0677	24.44	0.04	-0.250			
0.3581	22916.54	3.7170	3.7170	-1.0844	24.44	0.04	-0.250			
0.3613	23126.15	3.7140	3.7141	-1.1034	24.44	0.04	-0.250	0.405	0.580	
0.3647	23339.12	3.7110	3.7111	-1.1319	24.43	0.03	-0.250			
0.3681	23559.56	3.7080	3.7080	-1.1512	24.42	0.02	-0.250			
0.3716	23784.36	3.7050	3.7050	-1.1773	24.42	0.02	-0.250			
0.3752	24015.87	3.7020	3.7022	-1.1961	24.42	0.02	-0.250			
0.3788	24244.62	3.6990	3.6990	-1.2121	24.41	0.01	-0.250	0.424	0.608	
0.3825	24478.42	3.6960	3.6961	-1.2422	24.40	0.00	-0.250			
0.3862	24717.90	3.6930	3.6928	-1.2647	24.40	0.00	-0.250			
0.3901	24965.10	3.6900	3.6900	-1.2831	24.40	0.00	-0.250			
0.3940	25215.28	3.6870	3.6871	-1.3059	24.39	-0.01	-0.250			
0.3980	25469.81	3.6840	3.6840	-1.3396	24.38	-0.02	-0.250			
0.4020	25727.30	3.6810	3.6809	-1.3718	24.38	-0.02	-0.250	0.415	0.560	
0.4061	25992.40	3.6780	3.6781	-1.4009	24.38	-0.02	-0.250			
0.4104	26263.57	3.6750	3.6752	-1.4302	24.38	-0.02	-0.250			
0.4147	26542.05	3.6720	3.6721	-1.4723	24.36	-0.04	-0.250			
0.4192	26828.80	3.6690	3.6690	-1.5033	24.36	-0.04	-0.250	0.393	0.577	
0.4238	27120.01	3.6660	3.6658	-1.5305	24.36	-0.04	-0.250			
0.4284	27416.05	3.6630	3.6632	-1.5698	24.34	-0.06	-0.250			
0.4332	27722.83	3.6600	3.6600	-1.6176	24.34	-0.06	-0.250			
0.4381	28038.29	3.6570	3.6568	-1.6576	24.33	-0.07	-0.250	0.400	0.595	
0.4431	28359.00	3.6540	3.6539	-1.7078	24.32	-0.08	-0.250			
0.4483	28693.09	3.6510	3.6511	-1.7538	24.32	-0.08	-0.250			
0.4537	29039.75	3.6480	3.6481	-1.7862	24.31	-0.09	-0.250			
0.4591	29384.50	3.6450	3.6449	-1.8098	24.30	-0.10	-0.250	0.398	0.557	
0.4646	29732.75	3.6420	3.6419	-1.8411	24.30	-0.10	-0.250			
0.4701	30085.85	3.6390	3.6389	-1.8932	24.30	-0.10	-0.250			
0.4757	30444.84	3.6360	3.6361	-1.9487	24.28	-0.12	-0.250			
0.4817	30828.86	3.6330	3.6329	-2.0173	24.28	-0.12	-0.250	0.389	0.533	
0.4879	31223.74	3.6300	3.6304	-2.0964	24.27	-0.13	-0.250			
0.4944	31638.51	3.6270	3.6273	-2.1539	24.27	-0.13	-0.250			
0.5010	32063.50	3.6240	3.6242	-2.1991	24.27	-0.13	-0.250	0.424	0.601	
0.5076	32488.21	3.6210	3.6209	-2.2205	24.26	-0.14	-0.250			
0.5144	32918.48	3.6180	3.6177	-2.2231	24.26	-0.14	-0.250			
0.5211	33347.74	3.6150	3.6151	-2.2456	24.25	-0.15	-0.250	0.446	0.625	
0.5278	33778.63	3.6120	3.6122	-2.2446	24.26	-0.14	-0.250			
0.5346	34212.38	3.6090	3.6091	-2.2534	24.26	-0.14	-0.250			
0.5413	34645.62	3.6060	3.6063	-2.2477	24.26	-0.14	-0.250	0.405	0.550	
0.5481	35078.51	3.6030	3.6030	-2.2510	24.26	-0.14	-0.250			
0.5549	35515.61	3.6000	3.5998	-2.2294	24.26	-0.14	-0.250			
0.5616	35940.27	3.5970	3.5971	-2.2048	24.28	-0.12	-0.250	0.474	0.693	
0.5682	36362.49	3.5940	3.5941	-2.1737	24.30	-0.10	-0.250			
0.5747	36779.58	3.5910	3.5909	-2.1175	24.32	-0.08	-0.250			
0.5809	37178.52	3.5880	3.5880	-2.0796	24.32	-0.08	-0.250	0.479	0.675	
0.5871	37573.77	3.5850	3.5852	-2.0395	24.34	-0.06	-0.250			
0.5932	37967.34	3.5820	3.5818	-2.0050	24.35	-0.05	-0.250			
0.5991	38341.50	3.5790	3.5787	-1.9595	24.37	-0.03	-0.250	0.389	0.604	
0.6049	38714.10	3.5760	3.5759	-1.9391	24.38	-0.02	-0.250			
0.6107	39086.77	3.5730	3.5725	-1.9202	24.41	0.01	-0.250			
0.6164	39449.35	3.5700	3.5701	-1.8782	24.42	0.02	-0.250			
0.6220	39808.56	3.5670	3.5671	-1.8434	24.44	0.04	-0.250	0.429	0.636	
0.6276	40165.78	3.5640	3.5641	-1.8171	24.46	0.06	-0.250			
0.6330	40508.96	3.5610	3.5607	-1.7719	24.48	0.08	-0.250			
0.6382	40847.90	3.5580	3.5580	-1.7030	24.50	0.10	-0.250	0.418	0.614	
0.6432	41163.70	3.5550	3.5550	-1.6492	24.52	0.12	-0.250			
0.6481	41475.39	3.5520	3.5522	-1.6147	24.53	0.13	-0.250			
0.6528	41781.84	3.5490	3.5491	-1.5684	24.54	0.14	-0.250			
0.6575	42078.33	3.5460	3.5458	-1.5210	24.56	0.16	-0.250			
0.6620	42370.20	3.5430	3.5432	-1.4712	24.57	0.17	-0.250	0.426	0.648	
0.6664	42651.83	3.5400	3.5403	-1.4297	24.58	0.18	-0.250			
0.6706	42919.77	3.5370	3.5369	-1.3815	24.59	0.19	-0.250			
0.6746	43175.49	3.5340	3.5339	-1.3151	24.61	0.21	-0.250			
0.6785	43422.90	3.5310	3.5309	-1.2803	24.63	0.23	-0.250			
0.6823	43666.20	3.5280	3.5284	-1.2388	24.63	0.23	-0.250	0.397	0.620	
0.6860	43901.22	3.5250	3.5249	-1.2124	24.64	0.24	-0.250			
0.6895	44130.81	3.5220	3.5218	-1.1764	24.66	0.26	-0.250			
0.6930	44355.03	3.5190	3.5191	-1.1291	24.68	0.28	-0.250			
0.6965	44573.14	3.5160	3.5161	-1.1085	24.68	0.28	-0.250			
0.6996	44775.85	3.5130	3.5132	-1.0602	24.69	0.29	-0.250	0.411	0.609	
0.7027	44975.85	3.5100	3.5096	-1.0252	24.70	0.30	-0.250			
0.7058	45170.32	3.5070	3.5070	-1.0100	24.71	0.31	-0.250			
0.7087	45359.58	3.5040	3.5036	-0.9968	24.73	0.33	-0.250			
0.7117	45548.57	3.5010	3.5007	-1.0170	24.74	0.34	-0.250			
0.7147	45739.91	3.4980	3.4981	-1.0360	24.75	0.35	-0.250			
0.7178	45936.58	3.4950	3.4953	-1.0896	24.76	0.36	-0.250			
0.7211	46148.00	3.4920	3.4920	-1.1772	24.76	0.36	-0.250	0.342	0.644	
0.7249	46394.66	3.4890	3.4887	-1.2287	24.77	0.37	-0.250			
0.7289	46652.47	3.4860	3.4852	-1.2148	24.78	0.38	-0.250			
0.7328	46896.38	3.4830	3.4827	-1.2259	24.78	0.38	-0.250			
0.7362	47117.87	3.4800	3.4798	-1.3616	24.79	0.39	-0.250			
0.7403	47378.46	3.4770	3.4773	-1.5138	24.80	0.40	-0.250	0.383	0.653	
0.7451	47687.99	3.4740	3.4741	-1.5716	24.79	0.39	-0.250			
0.7505	48029.58	3.4710	3.4707	-1.6085	24.80	0.40	-0.250			
0.7553	48338.07	3.4680	3.4686	-1.6346	24.80	0.40	-0.250			
0.7605	48671.90	3.4650	3.4648	-1.6936	24.80	0.40	-0.250	0.367	0.627	
0.7651	48967.11	3.4620	3.4622	-1.5253	24.81	0.41	-0.250			
0.7696	49257.08	3.4590	3.4594	-1.5702	24.82	0.42	-0.250			
0.7744	49560.29	3.4560	3.4564	-1.5221	24.82	0.42	-0.250			
0.7793	49876.44	3.4530	3.4533	-1.3978	24.84	0.44	-0.250	0.394	0.625	
0.7829	50108.28	3.4500	3.4507	-1.2272	24.84	0.44	-0.250			
0.7863	50325.24	3.4470	3.4476	-1.1402	24.84	0.44	-0.250			
0.7897	50542.60	3.4440	3.4450	-1.0870	24.84	0.44	-0.250			
0.7927	50735.38	3.4410	3.4422	-0.9572	24.84	0.44	-0.250			
0.7956	50915.42	3.4380	3.4385	-0.8976	24.85	0.45	-0.250			
0.7984	51094.41	3.4350	3.4350	-0.8620	24.85	0.45	-0.250			
0.8014	51287.14	3.4320	3.4314	-0.8533	24.85	0.45	-0.250	0.429	0.686	
0.8031	51395.90	3.4290	3.4292	-0.7121	24.85	0.45	-0.250			
0.8052	51531.59	3.4260	3.4262	-0.6632	24.85	0.45	-0.250			
0.8070	51647.57	3.4230	3.4233	-0.6065	24.85	0.45	-0.250			
0.8087	51759.60	3.4200	3.4201	-0.5687	24.86	0.46	-0.250			
0.8104	51866.29	3.4170	3.4166	-0.5308	24.86	0.46	-0.250			
0.8119	51961.85	3.4140	3.4142	-0.4967	24.86	0.46	-0.250			
0.8133	52050.74	3.4110	3.4114	-0.4700	24.86	0.46	-0.250			
0.8146	52136.17	3.4080	3.4078	-0.4455	24.86	0.46	-0.250			
0.8159	52220.46	3.4050	3.4051	-0.4355	24.86	0.46	-0.250			
0.8172	52302.15	3.4020	3.4019	-0.4212	24.86	0.46	-0.250			
0.8185	52382.55	3.3990	3.3989	-0.4003	24.86	0.46	-0.250			
0.8197	52459.70	3.3960	3.3957	-0.3818	24.86	0.46	-0.250			
0.8208	52530.61	3.3930	3.3936	-0.3610	24.87	0.47	-0.250	0.405	0.658	
0.8218	52596.65	3.3900	3.3906	-0.3441	24.87	0.47	-0.250			
0.8228	52659.94	3.3870	3.3869	-0.3302	24.87	0.47	-0.250			
0.8237	52719.06	3.3840	3.3840	-0.3104	24.87	0.47	-0.250			
0.8247	52779.05	3.3810	3.3810	-0.3090	24.88	0.48	-0.250			
0.8256	52841.13	3.3780	3.3780	-0.3059	24.88	0.48	-0.250			
0.8265	52898.54	3.3750	3.3751	-0.2970	24.88	0.48	-0.250			
0.8274	52954.96	3.3720	3.3719	-0.2883	24.88	0.48	-0.250			
0.8283	53009.45	3.3690	3.3689	-0.2793	24.89	0.49	-0.250			
0.8291	53061.72	3.3660	3.3659	-0.2694	24.89	0.49	-0.250			
0.8299	53113.13	3.3630	3.3630	-0.2610	24.89	0.49	-0.250			
0.8307	53162.07	3.3600	3.3601	-0.2543	24.89	0.49	-0.250			
0.8314	53209.23	3.3570	3.3569	-0.2512	24.89	0.49	-0.250			
0.8321	53256.16	3.3540	3.3540	-0.2432	24.89	0.49	-0.250			
0.8329	53302.89	3.3510	3.3509	-0.2395	24.90	0.50	-0.250			
0.8336	53349.56	3.3480	3.3479	-0.2373	24.90	0.50	-0.250			
0.8343	53394.61	3.3450	3.3455	-0.2320	24.90	0.50	-0.250			
0.8350	53438.91	3.3420	3.3418	-0.2284	24.90	0.50	-0.250			
0.8357	53482.03	3.3390	3.3390	-0.2261	24.91	0.51	-0.250			
0.8363	53524.70	3.3360	3.3359	-0.2194	24.91	0.51	-0.250			
0.8370	53565.77	3.3330	3.3330	-0.2154	24.91	0.51	-0.250			
0.8376	53608.06	3.3300	3.3300	-0.2126	24.92	0.52	-0.250			
0.8382	53647.54	3.3270	3.3271	-0.2118	24.92	0.52	-0.250			
0.8389	53688.66	3.3240	3.3237	-0.2077	24.92	0.52	-0.250			
0.8395	53728.06	3.3210	3.3208	-0.2040	24.92	0.52	-0.250			
0.8401	53766.48	3.3180	3.3178	-0.2001	24.93	0.53	-0.250			
0.8407	53804.18	3.3150	3.3153	-0.1976	24.93	0.53	-0.250	0.391	0.640	
0.8413	53843.31	3.3120	3.3118	-0.1959	24.93	0.53	-0.250			
0.8419	53880.27	3.3090	3.3089	-0.1911	24.94	0.54	-0.250			
0.8424	53916.27	3.3060	3.3058	-0.1861	24.94	0.54	-0.250			
0.8430	53950.40	3.3030	3.3031	-0.1827	24.94	0.54	-0.250			
0.8435	53986.24	3.3000	3.2999	-0.1820	24.94	0.54	-0.250			
0.8441	54020.21	3.2970	3.2969	-0.1784	24.94	0.54	-0.250			
0.8446	54053.85	3.2940	3.2940	-0.1759	24.94	0.54	-0.250			
0.8451	54087.47	3.2910	3.2912	-0.1763	24.95	0.55	-0.250			
0.8457	54121.97	3.2880	3.2879	-0.1739	24.95	0.55	-0.250			
0.8462	54155.15	3.2850	3.2850	-0.1727	24.95	0.55	-0.250			
0.8467	54188.09	3.2820	3.2819	-0.1707	24.95	0.55	-0.250			
0.8472	54220.56	3.2790	3.2789	-0.1686	24.95	0.55	-0.250			
0.8477	54252.97	3.2760	3.2759	-0.1663	24.95	0.55	-0.250			
0.8482	54284.49	3.2730	3.2731	-0.1641	24.95	0.55	-0.250			
0.8487	54315.34	3.2700	3.2701	-0.1617	24.95	0.55	-0.250			
0.8492	54346.31	3.2670	3.2670	-0.1608	24.96	0.56	-0.250			
0.8496	54377.59	3.2640	3.2639	-0.1597	24.96	0.56	-0.250			
0.8501	54407.89	3.2610	3.2609	-0.1566	24.96	0.56	-0.250			
0.8506	54438.04	3.2580	3.2579	-0.1549	24.96	0.56	-0.250			
0.8511	54467.55	3.2550	3.2554	-0.1524	24.96	0.56	-0.250			
0.8515	54496.62	3.2520	3.2521	-0.1514	24.96	0.56	-0.250			
0.8520	54525.28	3.2490	3.2490	-0.1490	24.96	0.56	-0.250			
0.8524	54553.70	3.2460	3.2459	-0.1474	24.97	0.57	-0.250			
0.8528	54581.52	3.2430	3.2430	-0.1457	24.97	0.57	-0.250			
0.8533	54609.40	3.2400	3.2401	-0.1448	24.97	0.57	-0.250			
0.8537	54637.39	3.2370	3.2370	-0.1436	24.97	0.57	-0.250			
0.8541	54664.86	3.2340	3.2339	-0.1420	24.97	0.57	-0.250			
0.8546	54691.89	3.2310	3.2310	-0.1403	24.98	0.58	-0.250			
0.8550	54718.41	3.2280	3.2280	-0.1387	24.98	0.58	-0.250			
0.8554	54745.22	3.2250	3.2251	-0.1374	24.98	0.58	-0.250			
0.8558	54771.46	3.2220	3.2219	-0.1356	24.98	0.58	-0.250			
0.8562	54797.38	3.2190	3.2190	-0.1334	24.98	0.58	-0.250			
0.8566	54822.44	3.2160	3.2162	-0.1320	24.98	0.58	-0.250			
0.8570	54847.69	3.2130	3.2130	-0.1308	24.98	0.58	-0.250			
0.8574	54872.38	3.2100	3.2100	-0.1306	24.99	0.59	-0.250			
0.8578	54896.96	3.2070	3.2069	-0.1296	24.99	0.59	-0.250			
0.8582	54922.29	3.2040	3.2039	-0.1277	24.99	0.59	-0.250			
0.8585	54947.12	3.2010	3.2010	-0.1273	24.99	0.59	-0.250			
0.8589	54971.05	3.1980	3.1978	-0.1267	24.99	0.59	-0.250			
0.8593	54995.57	3.1950	3.1954	-0.1261	24.99	0.59	-0.250			
0.8597	55020.14	3.1920	3.1917	-0.1245	24.99	0.59	-0.250			
0.8601	55043.93	3.1890	3.1887	-0.1226	24.99	0.59	-0.250			
0.8604	55067.25	3.1860	3.1858	-0.1205	25.00	0.60	-0.250			
0.8608	55090.16	3.1830	3.1835	-0.1183	25.00	0.60	-0.250	0.427	0.718	
0.8611	55112.54	3.1800	3.1798	-0.1169	25.00	0.60	-0.250			
0.8615	55135.40	3.1770	3.1768	-0.1159	25.01	0.61	-0.250			
0.8618	55156.00	3.1740	3.1740	-0.1127	25.01	0.61	-0.250			
0.8621	55177.45	3.1710	3.1710	-0.1122	25.01	0.61	-0.250			
0.8625	55199.40	3.1680	3.1680	-0.1117	25.01	0.61	-0.250			
0.8628	55221.24	3.1650	3.1650	-0.1121	25.01	0.61	-0.250			
0.8632	55242.74	3.1620	3.1619	-0.1109	25.02	0.62	-0.250			
0.8635	55264.10	3.1590	3.1593	-0.1101	25.02	0.62	-0.250			
0.8638	55285.14	3.1560	3.1559	-0.1085	25.02	0.62	-0.250			
0.8642	55305.98	3.1530	3.1529	-0.1072	25.02	0.62	-0.250			
0.8645	55326.05	3.1500	3.1500	-0.1065	25.02	0.62	-0.250			
0.8648	55346.07	3.1470	3.1472	-0.1052	25.03	0.63	-0.250			
0.8651	55366.31	3.1440	3.1440	-0.1045	25.03	0.63	-0.250			
0.8654	55386.27	3.1410	3.1410	-0.1038	25.03	0.63	-0.250			
0.8657	55406.34	3.1380	3.1379	-0.1027	25.03	0.63	-0.250			
0.8660	55426.08	3.1350	3.1351	-0.1020	25.03	0.63	-0.250			
0.8663	55445.52	3.1320	3.1320	-0.1010	25.03	0.63	-0.250			
0.8666	55465.10	3.1290	3.1291	-0.1003	25.03	0.63	-0.250			
0.8669	55484.11	3.1260	3.1259	-0.0992	25.04	0.64	-0.250			
0.8672	55502.76	3.1230	3.1230	-0.0976	25.04	0.64	-0.250			
0.8675	55521.44	3.1200	3.1200	-0.0968	25.04	0.64	-0.250			
0.8678	55539.95	3.1170	3.1172	-0.0960	25.04	0.64	-0.250			
0.8681	55558.29	3.1140	3.1139	-0.0952	25.04	0.64	-0.250			
0.8684	55576.57	3.1110	3.1110	-0.0946	25.04	0.64	-0.250			
0.8687	55594.77	3.1080	3.1079	-0.0934	25.04	0.64	-0.250			
0.8689	55612.59	3.1050	3.1049	-0.0923	25.05	0.65	-0.250			
0.8692	55630.20	3.1020	3.1022	-0.0911	25.05	0.65	-0.250			
0.8695	55647.62	3.0990	3.0991	-0.0905	25.05	0.65	-0.250			
0.8698	55664.89	3.0960	3.0960	-0.0894	25.05	0.65	-0.250			
0.8700	55681.83	3.0930	3.0929	-0.0886	25.05	0.65	-0.250			
0.8703	55698.78	3.0900	3.0900	-0.0880	25.05	0.65	-0.250			
0.8706	55715.40	3.0870	3.0869	-0.0873	25.05	0.65	-0.250			
0.8708	55732.13	3.0840	3.0842	-0.0870	25.05	0.65	-0.250			
0.8711	55749.02	3.0810	3.0810	-0.0866	25.06	0.66	-0.250			
0.8713	55765.59	3.0780	3.0779	-0.0859	25.06	0.66	-0.250			
0.8716	55782.30	3.0750	3.0749	-0.0850	25.06	0.66	-0.250			
0.8719	55798.50	3.0720	3.0719	-0.0838	25.06	0.66	-0.250			
0.8721	55814.70	3.0690	3.0689	-0.0829	25.06	0.66	-0.250			
0.8723	55830.17	3.0660	3.0660	-0.0819	25.06	0.66	-0.250			
0.8726	55845.80	3.0630	3.0631	-0.0809	25.06	0.66	-0.250			
0.8728	55861.02	3.0600	3.0599	-0.0797	25.06	0.66	-0.250			
0.8731	55876.14	3.0570	3.0570	-0.0794	25.07	0.67	-0.250			
0.8733	55891.03	3.0540	3.0539	-0.0785	25.07	0.67	-0.250			
0.8735	55906.09	3.0510	3.0510	-0.0784	25.07	0.67	-0.250			
0.8738	55921.21	3.0480	3.0482	-0.0778	25.07	0.67	-0.250			
0.8740	55936.31	3.0450	3.0449	-0.0777	25.07	0.67	-0.250			
0.8742	55951.24	3.0420	3.0420	-0.0770	25.07	0.67	-0.250			
0.8745	55965.96	3.0390	3.0390	-0.0763	25.07	0.67	-0.250			
0.8747	55980.64	3.0360	3.0361	-0.0757	25.07	0.67	-0.250			
0.8749	55995.11	3.0330	3.0329	-0.0749	25.07	0.67	-0.250			
0.8751	56009.44	3.0300	3.0300	-0.0742	25.08	0.68	-0.250			
0.8754	56023.61	3.0270	3.0271	-0.0734	25.08	0.68	-0.250			
0.8756	56037.59	3.0240	3.0240	-0.0727	25.08	0.68	-0.250			
0.8758	56051.44	3.0210	3.0210	-0.0720	25.08	0.68	-0.250			
0.8760	56065.17	3.0180	3.0180	-0.0714	25.08	0.68	-0.250			
0.8762	56078.81	3.0150	3.0150	-0.0708	25.08	0.68	-0.250			
0.8764	56092.30	3.0120	3.0121	-0.0702	25.08	0.68	-0.250			
0.8767	56105.72	3.0090	3.0089	-0.0697	25.08	0.68	-0.250			
0.8769	56119.03	3.0060	3.0060	-0.0692	25.08	0.68	-0.250			
0.8771	56132.27	3.0030	3.0030	-0.0687	25.08	0.68	-0.250			
