Ah_balance (normalized)	Ah_balance (mAh)	Voltage - fit (V)	Voltage -  interpolate (V)	dQ/dV (1/V)	Temperature (°C)	Temperature - diff (°C)	Current (C)	R_DC 0ms (mOhm)	R_DC 50ms (mOhm)	R_DC 50 ms PEC (mOhm)
0.0004	23.96	4.1630	4.1632	-0.1358	24.54	-0.00	-0.750			
0.0009	56.23	4.1600	4.1600	-0.1887	24.54	-0.00	-0.750			
0.0015	97.57	4.1570	4.1569	-0.2330	24.54	-0.00	-0.750			
0.0023	146.56	4.1540	4.1541	-0.2762	24.53	-0.01	-0.750			
0.0032	204.10	4.1510	4.1511	-0.3139	24.53	-0.01	-0.750			
0.0042	269.03	4.1480	4.1479	-0.3553	24.53	-0.01	-0.750			
0.0053	340.98	4.1450	4.1451	-0.3955	24.52	-0.02	-0.750			
0.0066	420.23	4.1420	4.1419	-0.4362	24.52	-0.02	-0.750			
0.0080	509.75	4.1390	4.1389	-0.4802	24.52	-0.02	-0.750			
0.0095	608.17	4.1360	4.1360	-0.5107	24.51	-0.03	-0.750			
0.0111	711.20	4.1330	4.1328	-0.5409	24.51	-0.03	-0.750			
0.0128	818.68	4.1300	4.1307	-0.5660	24.50	-0.04	-0.750			
0.0145	929.24	4.1270	4.1269	-0.5856	24.50	-0.04	-0.750			
0.0163	1042.72	4.1240	4.1235	-0.6029	24.49	-0.05	-0.750			
0.0181	1158.34	4.1210	4.1210	-0.6210	24.49	-0.05	-0.750			
0.0201	1283.30	4.1180	4.1180	-0.6464	24.49	-0.05	-0.750			
0.0220	1408.60	4.1150	4.1149	-0.6600	24.49	-0.05	-0.750			
0.0240	1538.47	4.1120	4.1120	-0.6704	24.48	-0.06	-0.750			
0.0261	1667.74	4.1090	4.1091	-0.6830	24.48	-0.06	-0.750			
0.0281	1800.88	4.1060	4.1060	-0.6939	24.48	-0.06	-0.750			
0.0302	1933.85	4.1030	4.1030	-0.7107	24.47	-0.07	-0.750			
0.0324	2071.94	4.1000	4.0998	-0.7100	24.47	-0.07	-0.750			
0.0345	2209.91	4.0970	4.0970	-0.7157	24.47	-0.07	-0.750			
0.0367	2349.07	4.0940	4.0940	-0.7183	24.46	-0.08	-0.750			
0.0389	2487.60	4.0910	4.0908	-0.7177	24.46	-0.08	-0.750			
0.0410	2622.06	4.0880	4.0880	-0.7219	24.46	-0.08	-0.750			
0.0431	2761.51	4.0850	4.0850	-0.7398	24.46	-0.08	-0.750			
0.0454	2906.00	4.0820	4.0818	-0.7389	24.46	-0.08	-0.750			
0.0477	3054.46	4.0790	4.0789	-0.7408	24.46	-0.08	-0.750			
0.0500	3197.51	4.0760	4.0765	-0.7340	24.46	-0.08	-0.750			
0.0521	3337.42	4.0730	4.0729	-0.7274	24.46	-0.08	-0.750			
0.0542	3471.91	4.0700	4.0701	-0.7259	24.46	-0.08	-0.750			
0.0564	3606.59	4.0670	4.0667	-0.7282	24.46	-0.08	-0.750			
0.0585	3746.29	4.0640	4.0640	-0.7366	24.46	-0.08	-0.750			
0.0608	3888.60	4.0610	4.0610	-0.7494	24.46	-0.08	-0.750			
0.0631	4037.70	4.0580	4.0582	-0.7630	24.46	-0.08	-0.750			
0.0654	4184.22	4.0550	4.0547	-0.7667	24.46	-0.08	-0.750			
0.0677	4329.80	4.0520	4.0521	-0.7748	24.46	-0.08	-0.750			
0.0700	4481.32	4.0490	4.0490	-0.7757	24.46	-0.08	-0.750			
0.0724	4631.97	4.0460	4.0458	-0.7789	24.46	-0.08	-0.750			
0.0747	4782.97	4.0430	4.0430	-0.7783	24.46	-0.08	-0.750			
0.0770	4929.55	4.0400	4.0399	-0.7786	24.46	-0.08	-0.750			
0.0793	5078.37	4.0370	4.0370	-0.7906	24.46	-0.08	-0.750			
0.0817	5229.28	4.0340	4.0339	-0.7881	24.47	-0.07	-0.750			
0.0841	5384.88	4.0310	4.0308	-0.7954	24.47	-0.07	-0.750			
0.0865	5538.89	4.0280	4.0279	-0.7926	24.47	-0.07	-0.750			
0.0889	5690.82	4.0250	4.0250	-0.7930	24.47	-0.07	-0.750			
0.0913	5841.59	4.0220	4.0219	-0.7876	24.47	-0.07	-0.750			
0.0936	5990.72	4.0190	4.0189	-0.7881	24.47	-0.07	-0.750			
0.0959	6139.12	4.0160	4.0160	-0.7853	24.48	-0.06	-0.750			
0.0984	6295.10	4.0130	4.0130	-0.7940	24.48	-0.06	-0.750			
0.1007	6447.61	4.0100	4.0101	-0.7925	24.48	-0.06	-0.750			
0.1031	6600.55	4.0070	4.0071	-0.7911	24.48	-0.06	-0.750			
0.1055	6751.61	4.0040	4.0039	-0.8063	24.48	-0.06	-0.750			
0.1079	6906.97	4.0010	4.0010	-0.8051	24.48	-0.06	-0.750			
0.1104	7062.56	3.9980	3.9978	-0.8083	24.48	-0.06	-0.750			
0.1128	7218.50	3.9950	3.9959	-0.8031	24.48	-0.06	-0.750			
0.1152	7374.64	3.9920	3.9918	-0.8039	24.48	-0.06	-0.750			
0.1176	7526.82	3.9890	3.9891	-0.8144	24.49	-0.05	-0.750			
0.1200	7681.52	3.9860	3.9857	-0.8089	24.49	-0.05	-0.750			
0.1225	7840.39	3.9830	3.9829	-0.8219	24.50	-0.04	-0.750			
0.1250	7999.79	3.9800	3.9800	-0.8169	24.50	-0.04	-0.750			
0.1275	8157.57	3.9770	3.9769	-0.8148	24.50	-0.04	-0.750			
0.1299	8313.35	3.9740	3.9740	-0.8198	24.50	-0.04	-0.750			
0.1323	8465.85	3.9710	3.9710	-0.8135	24.50	-0.04	-0.750			
0.1347	8623.71	3.9680	3.9678	-0.8204	24.50	-0.04	-0.750			
0.1372	8781.06	3.9650	3.9648	-0.8199	24.50	-0.04	-0.750			
0.1397	8937.70	3.9620	3.9621	-0.8239	24.50	-0.04	-0.750			
0.1421	9097.55	3.9590	3.9589	-0.8360	24.51	-0.03	-0.750			
0.1447	9258.95	3.9560	3.9559	-0.8369	24.51	-0.03	-0.750			
0.1472	9420.46	3.9530	3.9529	-0.8343	24.52	-0.02	-0.750			
0.1497	9583.76	3.9500	3.9502	-0.8369	24.52	-0.02	-0.750			
0.1523	9744.71	3.9470	3.9469	-0.8325	24.52	-0.02	-0.750			
0.1548	9904.07	3.9440	3.9441	-0.8460	24.52	-0.02	-0.750			
0.1573	10066.31	3.9410	3.9408	-0.8437	24.52	-0.02	-0.750			
0.1598	10227.69	3.9380	3.9378	-0.8400	24.52	-0.02	-0.750			
0.1624	10393.07	3.9350	3.9356	-0.8483	24.52	-0.02	-0.750			
0.1649	10556.26	3.9320	3.9319	-0.8437	24.52	-0.02	-0.750			
0.1675	10718.01	3.9290	3.9289	-0.8488	24.53	-0.01	-0.750			
0.1700	10876.90	3.9260	3.9260	-0.8602	24.53	-0.01	-0.750			
0.1726	11047.03	3.9230	3.9228	-0.8630	24.54	-0.00	-0.750			
0.1752	11212.94	3.9200	3.9202	-0.8564	24.54	-0.00	-0.750			
0.1778	11379.09	3.9170	3.9171	-0.8559	24.54	0.00	-0.750			
0.1803	11541.93	3.9140	3.9144	-0.8573	24.54	0.00	-0.750			
0.1829	11705.29	3.9110	3.9107	-0.8562	24.54	0.00	-0.750			
0.1854	11867.75	3.9080	3.9080	-0.8547	24.54	0.00	-0.750			
0.1880	12030.96	3.9050	3.9055	-0.8528	24.54	0.00	-0.750			
0.1906	12199.57	3.9020	3.9019	-0.8897	24.54	0.00	-0.750			
0.1933	12371.19	3.8990	3.8989	-0.8815	24.54	0.00	-0.750			
0.1959	12540.08	3.8960	3.8959	-0.8759	24.55	0.01	-0.750			
0.1986	12711.11	3.8930	3.8928	-0.8770	24.55	0.01	-0.750			
0.2012	12878.93	3.8900	3.8897	-0.8660	24.55	0.01	-0.750			
0.2038	13042.42	3.8870	3.8870	-0.8724	24.55	0.01	-0.750			
0.2064	13207.52	3.8840	3.8839	-0.8724	24.55	0.01	-0.750			
0.2090	13375.60	3.8810	3.8809	-0.8773	24.56	0.02	-0.750			
0.2116	13543.93	3.8780	3.8780	-0.8762	24.56	0.02	-0.750			
0.2143	13713.61	3.8750	3.8750	-0.8760	24.56	0.02	-0.750			
0.2169	13881.02	3.8720	3.8719	-0.8858	24.57	0.03	-0.750			
0.2196	14051.43	3.8690	3.8690	-0.8820	24.57	0.03	-0.750			
0.2222	14219.11	3.8660	3.8659	-0.8748	24.58	0.04	-0.750			
0.2248	14389.54	3.8630	3.8629	-0.8795	24.58	0.04	-0.750			
0.2274	14555.19	3.8600	3.8601	-0.9073	24.58	0.04	-0.750			
0.2302	14731.74	3.8570	3.8568	-0.8877	24.58	0.04	-0.750			
0.2328	14902.32	3.8540	3.8538	-0.8842	24.58	0.04	-0.750			
0.2355	15072.51	3.8510	3.8508	-0.8858	24.58	0.04	-0.750			
0.2382	15242.85	3.8480	3.8482	-0.8852	24.58	0.04	-0.750			
0.2408	15412.78	3.8450	3.8448	-0.8847	24.58	0.04	-0.750			
0.2434	15580.76	3.8420	3.8420	-0.8745	24.59	0.05	-0.750			
0.2461	15748.16	3.8390	3.8390	-0.8864	24.59	0.05	-0.750			
0.2487	15915.87	3.8360	3.8361	-0.8812	24.60	0.06	-0.750			
0.2513	16082.78	3.8330	3.8330	-0.8778	24.60	0.06	-0.750			
0.2539	16250.36	3.8300	3.8299	-0.8850	24.60	0.06	-0.750			
0.2566	16420.19	3.8270	3.8269	-0.8863	24.60	0.06	-0.750			
0.2593	16593.41	3.8240	3.8240	-0.8860	24.60	0.06	-0.750			
0.2620	16765.04	3.8210	3.8209	-0.8863	24.60	0.06	-0.750			
0.2646	16936.16	3.8180	3.8180	-0.8773	24.60	0.06	-0.750			
0.2672	17103.69	3.8150	3.8148	-0.8831	24.61	0.07	-0.750			
0.2699	17270.50	3.8120	3.8120	-0.8762	24.61	0.07	-0.750			
0.2725	17439.69	3.8090	3.8088	-0.8717	24.62	0.08	-0.750			
0.2752	17610.06	3.8060	3.8072	-0.8762	24.62	0.08	-0.750			
0.2778	17777.02	3.8030	3.8029	-0.8760	24.62	0.08	-0.750			
0.2804	17944.46	3.8000	3.8000	-0.8683	24.62	0.08	-0.750			
0.2830	18109.39	3.7970	3.7968	-0.8683	24.62	0.08	-0.750			
0.2855	18271.65	3.7940	3.7940	-0.8573	24.62	0.08	-0.750			
0.2882	18441.87	3.7910	3.7912	-0.8650	24.62	0.08	-0.750			
0.2908	18608.62	3.7880	3.7879	-0.8614	24.62	0.08	-0.750			
0.2934	18775.94	3.7850	3.7850	-0.8623	24.62	0.08	-0.750			
0.2960	18941.54	3.7820	3.7819	-0.8581	24.63	0.09	-0.750			
0.2985	19106.88	3.7790	3.7789	-0.8557	24.63	0.09	-0.750			
0.3011	19269.87	3.7760	3.7760	-0.8455	24.63	0.09	-0.750			
0.3036	19431.88	3.7730	3.7729	-0.8564	24.63	0.09	-0.750			
0.3062	19597.23	3.7700	3.7699	-0.8484	24.63	0.09	-0.750			
0.3088	19760.32	3.7670	3.7668	-0.8346	24.64	0.10	-0.750			
0.3113	19923.28	3.7640	3.7637	-0.8374	24.64	0.10	-0.750			
0.3138	20081.91	3.7610	3.7608	-0.8328	24.64	0.10	-0.750			
0.3162	20239.38	3.7580	3.7579	-0.8312	24.65	0.11	-0.750			
0.3187	20395.31	3.7550	3.7549	-0.8245	24.65	0.11	-0.750			
0.3212	20555.62	3.7520	3.7520	-0.8429	24.65	0.11	-0.750			
0.3237	20717.99	3.7490	3.7489	-0.8448	24.66	0.12	-0.750			
0.3262	20879.35	3.7460	3.7462	-0.8467	24.66	0.12	-0.750			
0.3288	21041.51	3.7430	3.7429	-0.8543	24.66	0.12	-0.750			
0.3313	21206.35	3.7400	3.7399	-0.8615	24.66	0.12	-0.750			
0.3339	21372.35	3.7370	3.7369	-0.8655	24.66	0.12	-0.750			
0.3366	21541.11	3.7340	3.7339	-0.8722	24.66	0.12	-0.750			
0.3391	21703.99	3.7310	3.7309	-0.8985	24.66	0.12	-0.750			
0.3419	21879.30	3.7280	3.7279	-0.9146	24.66	0.12	-0.750			
0.3446	22056.34	3.7250	3.7249	-0.9205	24.66	0.12	-0.750			
0.3474	22235.95	3.7220	3.7217	-0.9182	24.66	0.12	-0.750			
0.3503	22420.41	3.7190	3.7200	-0.9305	24.66	0.12	-0.750			
0.3531	22598.10	3.7160	3.7160	-0.9340	24.66	0.12	-0.750			
0.3558	22771.22	3.7130	3.7129	-0.9479	24.66	0.12	-0.750			
0.3585	22946.65	3.7100	3.7100	-0.9339	24.66	0.12	-0.750			
0.3615	23136.85	3.7070	3.7069	-0.9813	24.66	0.12	-0.750			
0.3645	23327.40	3.7040	3.7043	-1.0073	24.66	0.12	-0.750			
0.3676	23528.95	3.7010	3.7016	-1.0303	24.65	0.11	-0.750	0.416	0.530	
0.3707	23726.70	3.6980	3.6979	-1.0403	24.65	0.11	-0.750			
0.3737	23913.69	3.6950	3.6951	-1.1002	24.64	0.10	-0.750			
0.3770	24126.81	3.6920	3.6920	-1.1420	24.64	0.10	-0.750			
0.3805	24354.74	3.6890	3.6887	-1.1924	24.64	0.10	-0.750			
0.3843	24593.72	3.6860	3.6854	-1.2213	24.64	0.10	-0.750			
0.3881	24835.46	3.6830	3.6840	-1.2521	24.64	0.10	-0.750			
0.3921	25092.76	3.6800	3.6800	-1.2772	24.64	0.10	-0.750			
0.3959	25335.27	3.6770	3.6769	-1.2702	24.63	0.09	-0.750			
0.3996	25573.20	3.6740	3.6741	-1.2784	24.63	0.09	-0.750			
0.4033	25809.64	3.6710	3.6709	-1.2619	24.62	0.08	-0.750			
0.4071	26052.33	3.6680	3.6680	-1.2860	24.61	0.07	-0.750			
0.4109	26298.35	3.6650	3.6650	-1.3146	24.60	0.06	-0.750			
0.4148	26548.34	3.6620	3.6620	-1.3564	24.60	0.06	-0.750			
0.4191	26820.83	3.6590	3.6589	-1.3892	24.59	0.05	-0.750			
0.4233	27091.10	3.6560	3.6559	-1.4201	24.58	0.04	-0.750			
0.4277	27370.18	3.6530	3.6528	-1.4421	24.58	0.04	-0.750			
0.4321	27652.29	3.6500	3.6500	-1.4755	24.57	0.03	-0.750			
0.4365	27937.88	3.6470	3.6470	-1.4916	24.57	0.03	-0.750			
0.4410	28222.13	3.6440	3.6438	-1.5196	24.56	0.02	-0.750			
0.4456	28519.57	3.6410	3.6412	-1.5370	24.55	0.01	-0.750			
0.4503	28820.68	3.6380	3.6381	-1.5917	24.54	-0.00	-0.750			
0.4551	29126.22	3.6350	3.6353	-1.6159	24.53	-0.01	-0.750			
0.4601	29447.82	3.6320	3.6317	-1.6408	24.52	-0.02	-0.750			
0.4651	29764.05	3.6290	3.6287	-1.6540	24.52	-0.02	-0.750			
0.4701	30085.89	3.6260	3.6258	-1.6954	24.51	-0.03	-0.750			
0.4752	30414.69	3.6230	3.6232	-1.7221	24.50	-0.04	-0.750			
0.4803	30736.03	3.6200	3.6203	-1.7556	24.49	-0.05	-0.750			
0.4856	31077.79	3.6170	3.6171	-1.7966	24.48	-0.06	-0.750			
0.4911	31428.07	3.6140	3.6137	-1.8359	24.48	-0.06	-0.750			
0.4969	31799.14	3.6110	3.6108	-1.8811	24.47	-0.07	-0.750			
0.5025	32162.73	3.6080	3.6076	-1.9149	24.47	-0.07	-0.750			
0.5083	32530.71	3.6050	3.6047	-1.9450	24.46	-0.08	-0.750			
0.5141	32899.60	3.6020	3.6020	-1.9963	24.46	-0.08	-0.750			
0.5201	33285.37	3.5990	3.5988	-2.0333	24.45	-0.09	-0.750			
0.5263	33684.00	3.5960	3.5961	-2.0346	24.45	-0.09	-0.750			
0.5326	34084.34	3.5930	3.5931	-2.0960	24.44	-0.10	-0.750			
0.5389	34491.98	3.5900	3.5900	-2.1320	24.44	-0.10	-0.750			
0.5453	34901.30	3.5870	3.5868	-2.1291	24.43	-0.11	-0.750			
0.5518	35315.12	3.5840	3.5841	-2.1912	24.43	-0.11	-0.750			
0.5584	35735.26	3.5810	3.5811	-2.2493	24.42	-0.12	-0.750			
0.5651	36164.17	3.5780	3.5778	-2.3014	24.42	-0.12	-0.750			
0.5721	36612.93	3.5750	3.5752	-2.3046	24.42	-0.12	-0.750			
0.5792	37070.06	3.5720	3.5720	-2.3108	24.42	-0.12	-0.750			
0.5864	37527.97	3.5690	3.5687	-2.2914	24.42	-0.12	-0.750			
0.5930	37950.57	3.5660	3.5664	-2.2825	24.42	-0.12	-0.750			
0.5999	38396.52	3.5630	3.5632	-2.2775	24.42	-0.12	-0.750			
0.6068	38834.91	3.5600	3.5599	-2.3234	24.42	-0.12	-0.750			
0.6138	39282.15	3.5570	3.5572	-2.2875	24.42	-0.12	-0.750			
0.6207	39724.33	3.5540	3.5537	-2.3146	24.42	-0.12	-0.750			
0.6276	40163.78	3.5510	3.5512	-2.2745	24.42	-0.12	-0.750			
0.6346	40617.01	3.5480	3.5480	-2.2696	24.42	-0.12	-0.750			
0.6413	41045.27	3.5450	3.5451	-2.2406	24.43	-0.11	-0.750			
0.6480	41471.36	3.5420	3.5423	-2.1793	24.44	-0.10	-0.750			
0.6544	41882.09	3.5390	3.5387	-2.1112	24.44	-0.10	-0.750			
0.6607	42287.48	3.5360	3.5358	-2.0801	24.44	-0.10	-0.750			
0.6668	42673.96	3.5330	3.5329	-2.0074	24.45	-0.09	-0.750			
0.6729	43067.97	3.5300	3.5300	-2.0166	24.46	-0.08	-0.750			
0.6788	43443.03	3.5270	3.5268	-1.9479	24.47	-0.07	-0.750			
0.6848	43824.09	3.5240	3.5237	-1.8987	24.48	-0.06	-0.750			
0.6903	44178.81	3.5210	3.5207	-1.8393	24.48	-0.06	-0.750			
0.6957	44523.73	3.5180	3.5177	-1.7636	24.49	-0.05	-0.750			
0.7009	44855.28	3.5150	3.5151	-1.7188	24.50	-0.04	-0.750			
0.7060	45180.84	3.5120	3.5115	-1.6561	24.52	-0.02	-0.750			
0.7108	45491.17	3.5090	3.5086	-1.6113	24.53	-0.01	-0.750			
0.7156	45798.37	3.5060	3.5059	-1.5538	24.55	0.01	-0.750			
0.7204	46102.87	3.5030	3.5027	-1.5223	24.56	0.02	-0.750			
0.7247	46378.66	3.5000	3.5005	-1.4635	24.58	0.04	-0.750			
0.7290	46657.12	3.4970	3.4969	-1.4266	24.59	0.05	-0.750			
0.7332	46925.10	3.4940	3.4939	-1.4221	24.61	0.07	-0.750			
0.7374	47193.77	3.4910	3.4912	-1.3598	24.62	0.08	-0.750			
