Ah_balance (normalized)	Ah_balance (mAh)	Voltage - fit (V)	Voltage -  interpolate (V)	dQ/dV (1/V)	Temperature (°C)	Temperature - diff (°C)	Current (C)	R_DC 0ms (mOhm)	R_DC 50ms (mOhm)	R_DC 50 ms PEC (mOhm)
0.0480	3073.74	4.1980	4.1981	0.6865	25.43	0.51	0.750			
0.0502	3211.19	4.1950	4.1952	0.7267	25.43	0.51	0.750			
0.0524	3353.37	4.1920	4.1915	0.7459	25.43	0.51	0.750			
0.0547	3499.89	4.1890	4.1892	0.7537	25.43	0.51	0.750			
0.0570	3646.85	4.1860	4.1861	0.7489	25.43	0.51	0.750			
0.0593	3793.25	4.1830	4.1830	0.7625	25.43	0.51	0.750			
0.0616	3942.36	4.1800	4.1800	0.7646	25.43	0.51	0.750			
0.0638	4082.70	4.1770	4.1769	0.7511	25.43	0.51	0.750			
0.0661	4227.30	4.1740	4.1741	0.7538	25.43	0.51	0.750			
0.0683	4373.49	4.1710	4.1712	0.7521	25.43	0.51	0.750			
0.0706	4518.53	4.1680	4.1680	0.7545	25.43	0.51	0.750			
0.0728	4661.81	4.1650	4.1650	0.7515	25.43	0.51	0.750			
0.0751	4806.37	4.1620	4.1621	0.7571	25.43	0.51	0.750			
0.0774	4952.21	4.1590	4.1588	0.7644	25.43	0.51	0.750			
0.0797	5100.11	4.1560	4.1560	0.7655	25.43	0.51	0.750			
0.0820	5250.73	4.1530	4.1530	0.7591	25.43	0.51	0.750			
0.0843	5394.23	4.1500	4.1500	0.7637	25.43	0.51	0.750			
0.0866	5539.55	4.1470	4.1471	0.7608	25.43	0.51	0.750			
0.0888	5685.55	4.1440	4.1440	0.7622	25.43	0.51	0.750			
0.0911	5830.83	4.1410	4.1412	0.7658	25.43	0.51	0.750			
0.0934	5979.08	4.1380	4.1381	0.7677	25.43	0.51	0.750			
0.0957	6127.72	4.1350	4.1350	0.7794	25.43	0.51	0.750			
0.0981	6278.96	4.1320	4.1319	0.7865	25.42	0.50	0.750			
0.1004	6427.17	4.1290	4.1290	0.7848	25.42	0.50	0.750			
0.1028	6580.66	4.1260	4.1260	0.7892	25.42	0.50	0.750			
0.1052	6733.73	4.1230	4.1231	0.7867	25.42	0.50	0.750			
0.1076	6884.97	4.1200	4.1200	0.7826	25.42	0.50	0.750			
0.1099	7034.70	4.1170	4.1170	0.7799	25.43	0.51	0.750			
0.1122	7180.88	4.1140	4.1141	0.7757	25.43	0.51	0.750			
0.1145	7330.13	4.1110	4.1107	0.7801	25.43	0.51	0.750			
0.1169	7480.22	4.1080	4.1080	0.7809	25.43	0.51	0.750			
0.1193	7632.09	4.1050	4.1050	0.7812	25.43	0.51	0.750			
0.1216	7782.44	4.1020	4.1021	0.7898	25.43	0.51	0.750			
0.1240	7933.94	4.0990	4.0990	0.7915	25.43	0.51	0.750			
0.1263	8085.23	4.0960	4.0958	0.7890	25.43	0.51	0.750			
0.1287	8236.86	4.0930	4.0931	0.7899	25.43	0.51	0.750			
0.1311	8390.87	4.0900	4.0901	0.7867	25.43	0.51	0.750			
0.1334	8539.83	4.0870	4.0870	0.7959	25.42	0.50	0.750			
0.1358	8692.92	4.0840	4.0840	0.7999	25.42	0.50	0.750			
0.1382	8845.24	4.0810	4.0810	0.8008	25.42	0.50	0.750			
0.1406	8999.76	4.0780	4.0780	0.8078	25.42	0.50	0.750			
0.1431	9156.95	4.0750	4.0751	0.8076	25.42	0.50	0.750			
0.1455	9313.42	4.0720	4.0720	0.8083	25.42	0.50	0.750			
0.1479	9468.14	4.0690	4.0690	0.8095	25.42	0.50	0.750			
0.1503	9620.35	4.0660	4.0659	0.8062	25.42	0.50	0.750			
0.1528	9776.75	4.0630	4.0631	0.8094	25.42	0.50	0.750			
0.1552	9931.86	4.0600	4.0600	0.8144	25.42	0.50	0.750			
0.1577	10090.22	4.0570	4.0570	0.8055	25.42	0.50	0.750			
0.1600	10243.02	4.0540	4.0540	0.8154	25.42	0.50	0.750			
0.1625	10397.99	4.0510	4.0511	0.8178	25.42	0.50	0.750			
0.1649	10555.35	4.0480	4.0474	0.8224	25.42	0.50	0.750			
0.1674	10713.37	4.0450	4.0451	0.8273	25.42	0.50	0.750			
0.1699	10874.06	4.0420	4.0421	0.8287	25.42	0.50	0.750			
0.1724	11034.30	4.0390	4.0391	0.8346	25.43	0.51	0.750			
0.1749	11194.01	4.0360	4.0360	0.8246	25.43	0.51	0.750			
0.1774	11352.28	4.0330	4.0327	0.8305	25.43	0.51	0.750			
0.1799	11513.50	4.0300	4.0300	0.8329	25.43	0.51	0.750			
0.1824	11672.64	4.0270	4.0270	0.8388	25.43	0.51	0.750			
0.1849	11835.05	4.0240	4.0239	0.8452	25.43	0.51	0.750			
0.1874	11996.57	4.0210	4.0211	0.8413	25.43	0.51	0.750			
0.1900	12159.94	4.0180	4.0178	0.8467	25.43	0.51	0.750			
0.1926	12323.43	4.0150	4.0151	0.8542	25.43	0.51	0.750			
0.1951	12487.09	4.0120	4.0120	0.8453	25.43	0.51	0.750			
0.1976	12647.71	4.0090	4.0091	0.8516	25.43	0.51	0.750			
0.2002	12810.25	4.0060	4.0061	0.8554	25.43	0.51	0.750			
0.2027	12974.56	4.0030	4.0030	0.8614	25.43	0.51	0.750			
0.2054	13143.43	4.0000	4.0001	0.8581	25.43	0.51	0.750			
0.2079	13307.82	3.9970	3.9971	0.8617	25.43	0.51	0.750			
0.2105	13474.69	3.9940	3.9941	0.8689	25.43	0.51	0.750			
0.2131	13640.73	3.9910	3.9910	0.8650	25.43	0.51	0.750			
0.2157	13806.93	3.9880	3.9881	0.8674	25.43	0.51	0.750			
0.2184	13975.27	3.9850	3.9851	0.8645	25.43	0.51	0.750			
0.2210	14142.43	3.9820	3.9820	0.8704	25.43	0.51	0.750			
0.2236	14309.96	3.9790	3.9790	0.8744	25.43	0.51	0.750			
0.2262	14475.71	3.9760	3.9760	0.8756	25.43	0.51	0.750			
0.2288	14644.25	3.9730	3.9730	0.8750	25.43	0.51	0.750			
0.2315	14813.82	3.9700	3.9701	0.8783	25.43	0.51	0.750			
0.2341	14980.70	3.9670	3.9671	0.8710	25.43	0.51	0.750			
0.2367	15148.26	3.9640	3.9641	0.8754	25.43	0.51	0.750			
0.2393	15313.00	3.9610	3.9606	0.8733	25.43	0.51	0.750			
0.2419	15480.77	3.9580	3.9581	0.8800	25.43	0.51	0.750			
0.2445	15649.64	3.9550	3.9551	0.8805	25.43	0.51	0.750			
0.2472	15821.75	3.9520	3.9521	0.8859	25.43	0.51	0.750			
0.2500	15996.86	3.9490	3.9490	0.8946	25.43	0.51	0.750			
0.2525	16162.86	3.9460	3.9460	0.8848	25.43	0.51	0.750			
0.2552	16334.25	3.9430	3.9431	0.8792	25.43	0.51	0.750			
0.2579	16502.68	3.9400	3.9400	0.8832	25.43	0.51	0.750			
0.2605	16672.36	3.9370	3.9371	0.8867	25.43	0.51	0.750			
0.2632	16841.67	3.9340	3.9341	0.8836	25.43	0.51	0.750			
0.2658	17013.26	3.9310	3.9311	0.8838	25.43	0.51	0.750			
0.2685	17182.86	3.9280	3.9281	0.8838	25.43	0.51	0.750			
0.2711	17349.97	3.9250	3.9251	0.8731	25.42	0.50	0.750			
0.2737	17517.36	3.9220	3.9221	0.8757	25.42	0.50	0.750			
0.2763	17681.90	3.9190	3.9189	0.8735	25.42	0.50	0.750			
0.2789	17849.88	3.9160	3.9162	0.8792	25.42	0.50	0.750			
0.2816	18020.54	3.9130	3.9131	0.8816	25.41	0.49	0.750			
0.2842	18191.91	3.9100	3.9101	0.8865	25.41	0.49	0.750			
0.2870	18366.80	3.9070	3.9070	0.8981	25.40	0.48	0.750			
0.2896	18531.90	3.9040	3.9036	0.8833	25.40	0.48	0.750			
0.2922	18703.17	3.9010	3.9010	0.8792	25.40	0.48	0.750			
0.2949	18871.71	3.8980	3.8980	0.8821	25.39	0.47	0.750			
0.2975	19042.17	3.8950	3.8951	0.8864	25.39	0.47	0.750			
0.3002	19212.86	3.8920	3.8920	0.8886	25.38	0.46	0.750			
0.3028	19381.76	3.8890	3.8890	0.8884	25.38	0.46	0.750			
0.3056	19557.85	3.8860	3.8859	0.8659	25.38	0.46	0.750			
0.3081	19720.54	3.8830	3.8831	0.8732	25.38	0.46	0.750			
0.3107	19886.99	3.8800	3.8801	0.8767	25.37	0.45	0.750			
0.3133	20048.06	3.8770	3.8772	0.8961	25.37	0.45	0.750			
0.3159	20218.54	3.8740	3.8740	0.9160	25.37	0.45	0.750			
0.3187	20399.77	3.8710	3.8711	0.9275	25.36	0.44	0.750			
0.3217	20585.71	3.8680	3.8686	0.9417	25.36	0.44	0.750			
0.3246	20772.36	3.8650	3.8652	0.9486	25.35	0.43	0.750			
0.3274	20952.61	3.8620	3.8621	0.9319	25.35	0.43	0.750			
0.3302	21135.96	3.8590	3.8590	0.9174	25.34	0.42	0.750			
0.3329	21302.52	3.8560	3.8560	0.9048	25.33	0.41	0.750			
0.3356	21479.68	3.8530	3.8530	0.9045	25.32	0.40	0.750			
0.3383	21649.42	3.8500	3.8502	0.9117	25.31	0.39	0.750			
0.3410	21824.58	3.8470	3.8471	0.9209	25.30	0.38	0.750			
0.3438	22002.11	3.8440	3.8441	0.9194	25.29	0.37	0.750	0.321	0.456	
0.3466	22179.47	3.8410	3.8412	0.9312	25.29	0.37	0.750			
0.3494	22359.42	3.8380	3.8382	0.9337	25.28	0.36	0.750			
0.3522	22540.39	3.8350	3.8344	0.9430	25.28	0.36	0.750			
0.3550	22723.18	3.8320	3.8321	0.9579	25.27	0.35	0.750			
0.3579	22904.77	3.8290	3.8291	0.9587	25.26	0.34	0.750			
0.3608	23093.68	3.8260	3.8260	0.9728	25.25	0.33	0.750			
0.3638	23280.21	3.8230	3.8230	0.9692	25.24	0.32	0.750			
0.3667	23469.26	3.8200	3.8199	0.9741	25.23	0.31	0.750			
0.3696	23656.68	3.8170	3.8171	0.9833	25.22	0.30	0.750			
0.3726	23844.80	3.8140	3.8140	0.9916	25.21	0.29	0.750			
0.3755	24034.58	3.8110	3.8110	1.0004	25.20	0.28	0.750			
0.3786	24231.22	3.8080	3.8080	0.9997	25.19	0.27	0.750			
0.3816	24421.16	3.8050	3.8051	1.0180	25.18	0.26	0.750			
0.3846	24616.19	3.8020	3.8021	1.0345	25.17	0.25	0.750			
0.3877	24815.97	3.7990	3.7991	1.0519	25.16	0.24	0.750			
0.3909	25018.83	3.7960	3.7959	1.0607	25.16	0.24	0.750			
0.3941	25223.55	3.7930	3.7931	1.0822	25.15	0.23	0.750			
0.3974	25435.51	3.7900	3.7901	1.1000	25.13	0.21	0.750			
0.4008	25649.52	3.7870	3.7870	1.1183	25.12	0.20	0.750			
0.4041	25862.31	3.7840	3.7841	1.1267	25.11	0.19	0.750			
0.4075	26080.12	3.7810	3.7810	1.1469	25.10	0.18	0.750			
0.4110	26303.07	3.7780	3.7780	1.1691	25.09	0.17	0.750			
0.4146	26532.31	3.7750	3.7748	1.1832	25.08	0.16	0.750			
0.4181	26758.00	3.7720	3.7721	1.2031	25.07	0.15	0.750			
0.4217	26989.92	3.7690	3.7690	1.2321	25.06	0.14	0.750			
0.4254	27228.30	3.7660	3.7660	1.2520	25.05	0.13	0.750			
0.4292	27471.13	3.7630	3.7630	1.2821	25.03	0.11	0.750			
0.4331	27718.64	3.7600	3.7600	1.3105	25.03	0.11	0.750			
0.4371	27976.18	3.7570	3.7571	1.3319	25.02	0.10	0.750			
0.4412	28236.12	3.7540	3.7540	1.3631	25.00	0.08	0.750			
0.4452	28495.58	3.7510	3.7511	1.3849	24.99	0.07	0.750			
0.4495	28766.23	3.7480	3.7481	1.4053	24.98	0.06	0.750			
0.4537	29035.80	3.7450	3.7450	1.4450	24.97	0.05	0.750			
0.4580	29313.97	3.7420	3.7421	1.4827	24.96	0.04	0.750			
0.4625	29600.68	3.7390	3.7390	1.5182	24.95	0.03	0.750			
0.4672	29899.57	3.7360	3.7359	1.5484	24.93	0.01	0.750			
0.4718	30197.37	3.7330	3.7333	1.6021	24.92	-0.00	0.750			
0.4767	30509.20	3.7300	3.7299	1.6565	24.90	-0.02	0.750			
0.4818	30836.25	3.7270	3.7270	1.6868	24.89	-0.03	0.750			
0.4870	31165.72	3.7240	3.7243	1.7329	24.88	-0.04	0.750			
0.4922	31501.56	3.7210	3.7211	1.8014	24.88	-0.04	0.750			
0.4977	31851.89	3.7180	3.7179	1.8413	24.87	-0.05	0.750			
0.5032	32207.99	3.7150	3.7150	1.8854	24.86	-0.06	0.750			
0.5091	32579.80	3.7120	3.7117	1.9649	24.84	-0.08	0.750			
0.5151	32966.56	3.7090	3.7088	2.0204	24.82	-0.10	0.750			
0.5212	33354.59	3.7060	3.7058	2.0599	24.81	-0.11	0.750			
0.5275	33758.84	3.7030	3.7030	2.1297	24.81	-0.11	0.750			
0.5339	34170.35	3.7000	3.7001	2.1736	24.80	-0.12	0.750			
0.5406	34601.31	3.6970	3.6970	2.2199	24.79	-0.13	0.750			
0.5473	35028.60	3.6940	3.6939	2.2771	24.78	-0.14	0.750			
0.5542	35468.58	3.6910	3.6912	2.3390	24.77	-0.15	0.750			
0.5614	35926.40	3.6880	3.6881	2.3615	24.76	-0.16	0.750			
0.5686	36393.49	3.6850	3.6850	2.3912	24.76	-0.16	0.750			
0.5760	36863.76	3.6820	3.6820	2.4456	24.76	-0.16	0.750			
0.5831	37321.25	3.6790	3.6793	2.4098	24.76	-0.16	0.750			
0.5903	37778.67	3.6760	3.6758	2.3876	24.75	-0.17	0.750			
0.5976	38245.55	3.6730	3.6728	2.2705	24.76	-0.16	0.750			
0.6044	38681.67	3.6700	3.6700	2.1662	24.76	-0.16	0.750			
0.6104	39064.56	3.6670	3.6670	1.9905	24.77	-0.15	0.750			
0.6162	39438.01	3.6640	3.6639	1.8794	24.77	-0.15	0.750			
0.6217	39788.37	3.6610	3.6607	1.7586	24.78	-0.14	0.750			
0.6268	40112.07	3.6580	3.6580	1.6210	24.78	-0.14	0.750			
0.6315	40413.50	3.6550	3.6552	1.5172	24.79	-0.13	0.750			
0.6358	40690.19	3.6520	3.6521	1.4014	24.79	-0.13	0.750			
0.6398	40948.93	3.6490	3.6486	1.2927	24.80	-0.12	0.750			
0.6435	41183.12	3.6460	3.6461	1.2122	24.81	-0.11	0.750			
0.6470	41408.79	3.6430	3.6431	1.1432	24.81	-0.11	0.750			
0.6503	41621.19	3.6400	3.6401	1.0855	24.82	-0.10	0.750			
0.6535	41821.25	3.6370	3.6369	1.0244	24.82	-0.10	0.750			
0.6564	42011.08	3.6340	3.6341	0.9778	24.83	-0.09	0.750			
0.6592	42190.04	3.6310	3.6311	0.9404	24.83	-0.09	0.750			
0.6620	42368.91	3.6280	3.6280	0.9151	24.84	-0.08	0.750			
0.6647	42539.76	3.6250	3.6250	0.8815	24.84	-0.08	0.750			
0.6673	42709.39	3.6220	3.6220	0.8547	24.85	-0.07	0.750			
0.6699	42872.09	3.6190	3.6190	0.8114	24.86	-0.06	0.750			
0.6723	43027.82	3.6160	3.6160	0.7733	24.86	-0.06	0.750			
0.6745	43170.21	3.6130	3.6132	0.7250	24.87	-0.05	0.750			
0.6766	43305.19	3.6100	3.6098	0.6790	24.88	-0.04	0.750			
0.6786	43431.28	3.6070	3.6070	0.6279	24.88	-0.04	0.750			
0.6804	43547.18	3.6040	3.6041	0.5788	24.89	-0.03	0.750			
0.6822	43659.85	3.6010	3.6009	0.5243	24.90	-0.02	0.750			
0.6836	43751.10	3.5980	3.5980	0.4679	24.90	-0.02	0.750			
0.6849	43832.56	3.5950	3.5951	0.4159	24.90	-0.02	0.750			
0.6860	43906.36	3.5920	3.5923	0.3672	24.91	-0.01	0.750			
0.6871	43972.25	3.5890	3.5867	0.3188	24.91	-0.01	0.750			
0.6880	44028.96	3.5860	3.5863	0.2751	24.91	-0.01	0.750			
0.6887	44077.42	3.5830	3.5834	0.2327	24.92	-0.00	0.750			
0.6894	44119.97	3.5800	3.5805	0.1897	24.92	-0.00	0.750			
0.6899	44153.19	3.5770	3.5774	0.1267	24.92	0.00	0.750			
0.6902	44172.50	3.5740	3.5746	0.0702	24.92	0.00	0.750			
