Ah_balance (normalized)	Ah_balance (mAh)	Voltage - fit (V)	Voltage -  interpolate (V)	dQ/dV (1/V)	Temperature (°C)	Temperature - diff (°C)	Current (C)	R_DC 0ms (mOhm)	R_DC 50ms (mOhm)	R_DC 50 ms PEC (mOhm)
0.0002	12.17	4.1660	4.1659	-0.0999	24.92	0.02	-0.750			
0.0006	36.96	4.1630	4.1630	-0.1539	24.91	0.01	-0.750			
0.0011	71.82	4.1600	4.1598	-0.2022	24.91	0.01	-0.750			
0.0018	115.99	4.1570	4.1570	-0.2462	24.91	0.01	-0.750			
0.0026	167.59	4.1540	4.1540	-0.2877	24.91	0.01	-0.750			
0.0035	226.89	4.1510	4.1511	-0.3289	24.91	0.01	-0.750			
0.0046	294.95	4.1480	4.1481	-0.3703	24.90	0.00	-0.750			
0.0058	369.71	4.1450	4.1450	-0.4092	24.90	0.00	-0.750			
0.0071	451.70	4.1420	4.1413	-0.4495	24.90	-0.00	-0.750			
0.0085	543.87	4.1390	4.1390	-0.4840	24.90	-0.00	-0.750			
0.0100	640.68	4.1360	4.1360	-0.5172	24.89	-0.01	-0.750			
0.0116	744.68	4.1330	4.1330	-0.5460	24.89	-0.01	-0.750			
0.0133	853.38	4.1300	4.1301	-0.5744	24.88	-0.02	-0.750			
0.0151	967.67	4.1270	4.1269	-0.5978	24.88	-0.02	-0.750			
0.0170	1085.59	4.1240	4.1240	-0.6100	24.88	-0.02	-0.750			
0.0189	1207.07	4.1210	4.1210	-0.6109	24.87	-0.03	-0.750			
0.0207	1324.77	4.1180	4.1180	-0.6156	24.87	-0.03	-0.750			
0.0225	1440.60	4.1150	4.1150	-0.6219	24.86	-0.04	-0.750			
0.0243	1556.72	4.1120	4.1121	-0.6422	24.86	-0.04	-0.750			
0.0263	1680.44	4.1090	4.1088	-0.6568	24.85	-0.05	-0.750			
0.0283	1808.06	4.1060	4.1060	-0.6838	24.85	-0.05	-0.750			
0.0304	1944.34	4.1030	4.1030	-0.7059	24.84	-0.06	-0.750			
0.0326	2087.13	4.1000	4.1000	-0.7321	24.84	-0.06	-0.750			
0.0348	2228.45	4.0970	4.0969	-0.7333	24.84	-0.06	-0.750			
0.0370	2369.87	4.0940	4.0940	-0.7369	24.84	-0.06	-0.750			
0.0393	2512.15	4.0910	4.0911	-0.7367	24.84	-0.06	-0.750			
0.0415	2656.04	4.0880	4.0879	-0.7392	24.84	-0.06	-0.750			
0.0437	2796.38	4.0850	4.0851	-0.7337	24.84	-0.06	-0.750			
0.0459	2937.33	4.0820	4.0819	-0.7336	24.84	-0.06	-0.750			
0.0481	3076.18	4.0790	4.0790	-0.7360	24.84	-0.06	-0.750			
0.0503	3218.25	4.0760	4.0760	-0.7456	24.84	-0.06	-0.750			
0.0525	3361.05	4.0730	4.0728	-0.7457	24.84	-0.06	-0.750			
0.0548	3507.07	4.0700	4.0700	-0.7525	24.84	-0.06	-0.750			
0.0571	3652.60	4.0670	4.0672	-0.7490	24.84	-0.06	-0.750			
0.0593	3796.93	4.0640	4.0639	-0.7502	24.84	-0.06	-0.750			
0.0616	3939.40	4.0610	4.0610	-0.7584	24.84	-0.06	-0.750			
0.0638	4081.89	4.0580	4.0579	-0.7579	24.84	-0.06	-0.750			
0.0661	4230.61	4.0550	4.0549	-0.7671	24.84	-0.06	-0.750			
0.0684	4378.64	4.0520	4.0519	-0.7705	24.84	-0.06	-0.750			
0.0707	4527.82	4.0490	4.0490	-0.7761	24.84	-0.06	-0.750			
0.0731	4678.09	4.0460	4.0459	-0.7793	24.84	-0.06	-0.750			
0.0754	4826.65	4.0430	4.0430	-0.7723	24.84	-0.06	-0.750			
0.0777	4972.87	4.0400	4.0401	-0.7698	24.84	-0.06	-0.750			
0.0801	5123.37	4.0370	4.0370	-0.7747	24.84	-0.06	-0.750			
0.0824	5272.19	4.0340	4.0340	-0.7722	24.84	-0.06	-0.750			
0.0847	5417.69	4.0310	4.0310	-0.7761	24.84	-0.06	-0.750			
0.0870	5566.77	4.0280	4.0281	-0.7796	24.85	-0.05	-0.750			
0.0894	5721.70	4.0250	4.0248	-0.7742	24.85	-0.05	-0.750			
0.0918	5872.09	4.0220	4.0219	-0.7662	24.86	-0.04	-0.750			
0.0940	6012.94	4.0190	4.0192	-0.7741	24.86	-0.04	-0.750			
0.0963	6160.93	4.0160	4.0162	-0.7818	24.86	-0.04	-0.750			
0.0986	6310.55	4.0130	4.0125	-0.7884	24.86	-0.04	-0.750			
0.1010	6462.49	4.0100	4.0100	-0.7944	24.86	-0.04	-0.750			
0.1034	6620.05	4.0070	4.0071	-0.8009	24.86	-0.04	-0.750			
0.1059	6776.34	4.0040	4.0040	-0.8063	24.86	-0.04	-0.750			
0.1083	6931.89	4.0010	4.0010	-0.8057	24.86	-0.04	-0.750			
0.1106	7080.89	3.9980	3.9979	-0.8010	24.86	-0.04	-0.750			
0.1131	7235.99	3.9950	3.9949	-0.7979	24.86	-0.04	-0.750			
0.1154	7388.77	3.9920	3.9921	-0.8026	24.86	-0.04	-0.750			
0.1179	7545.97	3.9890	3.9890	-0.8060	24.86	-0.04	-0.750			
0.1203	7701.11	3.9860	3.9857	-0.8043	24.86	-0.04	-0.750			
0.1227	7851.37	3.9830	3.9831	-0.8073	24.87	-0.03	-0.750			
0.1251	8008.17	3.9800	3.9800	-0.8077	24.87	-0.03	-0.750			
0.1275	8162.76	3.9770	3.9769	-0.8118	24.87	-0.03	-0.750			
0.1301	8324.21	3.9740	3.9737	-0.8023	24.88	-0.02	-0.750			
0.1324	8474.36	3.9710	3.9712	-0.8026	24.88	-0.02	-0.750			
0.1348	8626.05	3.9680	3.9681	-0.8197	24.88	-0.02	-0.750			
0.1372	8783.72	3.9650	3.9647	-0.8211	24.88	-0.02	-0.750			
0.1397	8940.56	3.9620	3.9617	-0.8200	24.88	-0.02	-0.750			
0.1423	9104.06	3.9590	3.9591	-0.8321	24.88	-0.02	-0.750			
0.1448	9267.04	3.9560	3.9563	-0.8361	24.88	-0.02	-0.750			
0.1473	9428.87	3.9530	3.9529	-0.8458	24.89	-0.01	-0.750			
0.1498	9585.60	3.9500	3.9500	-0.8266	24.89	-0.01	-0.750			
0.1522	9742.29	3.9470	3.9469	-0.8275	24.89	-0.01	-0.750			
0.1548	9905.26	3.9440	3.9440	-0.8398	24.90	-0.00	-0.750			
0.1573	10068.46	3.9410	3.9411	-0.8424	24.90	0.00	-0.750			
0.1598	10229.44	3.9380	3.9379	-0.8422	24.90	0.00	-0.750			
0.1624	10393.91	3.9350	3.9350	-0.8475	24.90	0.00	-0.750			
0.1649	10556.06	3.9320	3.9320	-0.8422	24.90	0.00	-0.750			
0.1675	10720.35	3.9290	3.9289	-0.8447	24.90	0.00	-0.750			
0.1701	10883.97	3.9260	3.9259	-0.8265	24.90	0.00	-0.750			
0.1725	11037.77	3.9230	3.9230	-0.8369	24.91	0.01	-0.750			
0.1750	11197.95	3.9200	3.9201	-0.8378	24.91	0.01	-0.750			
0.1774	11354.76	3.9170	3.9168	-0.8344	24.92	0.02	-0.750			
0.1800	11519.99	3.9140	3.9139	-0.8508	24.93	0.03	-0.750			
0.1826	11684.10	3.9110	3.9111	-0.8557	24.93	0.03	-0.750			
0.1851	11849.27	3.9080	3.9079	-0.8654	24.93	0.03	-0.750			
0.1878	12020.11	3.9050	3.9049	-0.8729	24.93	0.03	-0.750			
0.1904	12182.86	3.9020	3.9019	-0.8644	24.94	0.04	-0.750			
0.1930	12352.63	3.8990	3.8989	-0.8727	24.94	0.04	-0.750			
0.1956	12521.15	3.8960	3.8959	-0.8687	24.94	0.04	-0.750			
0.1982	12687.14	3.8930	3.8930	-0.8676	24.94	0.04	-0.750			
0.2008	12853.40	3.8900	3.8901	-0.8635	24.94	0.04	-0.750			
0.2034	13019.45	3.8870	3.8869	-0.8654	24.94	0.04	-0.750			
0.2060	13184.52	3.8840	3.8840	-0.8602	24.94	0.04	-0.750			
0.2086	13349.36	3.8810	3.8809	-0.8560	24.94	0.04	-0.750			
0.2112	13515.10	3.8780	3.8780	-0.8602	24.95	0.05	-0.750			
0.2137	13678.92	3.8750	3.8749	-0.8602	24.95	0.05	-0.750			
0.2163	13842.73	3.8720	3.8720	-0.8537	24.96	0.06	-0.750			
0.2189	14007.74	3.8690	3.8693	-0.8643	24.96	0.06	-0.750			
0.2215	14174.05	3.8660	3.8659	-0.8655	24.96	0.06	-0.750			
0.2241	14340.94	3.8630	3.8630	-0.8706	24.97	0.07	-0.750			
0.2267	14508.19	3.8600	3.8600	-0.8724	24.97	0.07	-0.750			
0.2294	14679.30	3.8570	3.8570	-0.8813	24.98	0.08	-0.750			
0.2320	14846.89	3.8540	3.8542	-0.8735	24.98	0.08	-0.750			
0.2346	15014.04	3.8510	3.8509	-0.8770	24.98	0.08	-0.750			
0.2372	15179.90	3.8480	3.8481	-0.8720	24.99	0.09	-0.750			
0.2398	15348.89	3.8450	3.8449	-0.8699	24.99	0.09	-0.750			
0.2425	15517.45	3.8420	3.8419	-0.8746	25.00	0.10	-0.750			
0.2451	15684.77	3.8390	3.8391	-0.8673	25.00	0.10	-0.750			
0.2477	15849.74	3.8360	3.8361	-0.8722	25.00	0.10	-0.750			
0.2503	16017.40	3.8330	3.8330	-0.8715	25.00	0.10	-0.750			
0.2529	16183.12	3.8300	3.8300	-0.8666	25.01	0.11	-0.750			
0.2555	16351.96	3.8270	3.8270	-0.8657	25.01	0.11	-0.750			
0.2581	16518.95	3.8240	3.8239	-0.8667	25.01	0.11	-0.750			
0.2607	16682.94	3.8210	3.8210	-0.8687	25.01	0.11	-0.750			
0.2633	16850.21	3.8180	3.8180	-0.8689	25.02	0.12	-0.750			
0.2659	17016.19	3.8150	3.8149	-0.8603	25.02	0.12	-0.750			
0.2685	17182.70	3.8120	3.8119	-0.8628	25.02	0.12	-0.750			
0.2711	17349.51	3.8090	3.8090	-0.8580	25.02	0.12	-0.750			
0.2737	17513.68	3.8060	3.8058	-0.8604	25.03	0.13	-0.750			
0.2762	17678.55	3.8030	3.8030	-0.8490	25.03	0.13	-0.750			
0.2788	17840.63	3.8000	3.7999	-0.8421	25.04	0.14	-0.750			
0.2814	18006.54	3.7970	3.7973	-0.8359	25.04	0.14	-0.750			
0.2839	18169.57	3.7940	3.7938	-0.8074	25.04	0.14	-0.750			
0.2863	18322.62	3.7910	3.7910	-0.7779	25.05	0.15	-0.750			
0.2885	18464.33	3.7880	3.7883	-0.7618	25.05	0.15	-0.750			
0.2907	18602.63	3.7850	3.7851	-0.7512	25.05	0.15	-0.750			
0.2928	18742.19	3.7820	3.7817	-0.7571	25.06	0.16	-0.750			
0.2950	18882.70	3.7790	3.7790	-0.7658	25.06	0.16	-0.750			
0.2974	19033.35	3.7760	3.7761	-0.7921	25.07	0.17	-0.750			
0.3000	19201.03	3.7730	3.7730	-0.8221	25.07	0.17	-0.750			
0.3025	19359.49	3.7700	3.7700	-0.8227	25.07	0.17	-0.750			
0.3050	19517.38	3.7670	3.7669	-0.8207	25.08	0.18	-0.750			
0.3074	19674.15	3.7640	3.7636	-0.8167	25.08	0.18	-0.750			
0.3098	19826.11	3.7610	3.7610	-0.8274	25.08	0.18	-0.750			
0.3123	19988.02	3.7580	3.7580	-0.8214	25.08	0.18	-0.750			
0.3148	20146.16	3.7550	3.7549	-0.8161	25.09	0.19	-0.750			
0.3173	20307.93	3.7520	3.7517	-0.8202	25.09	0.19	-0.750			
0.3197	20462.04	3.7490	3.7490	-0.8116	25.09	0.19	-0.750			
0.3221	20614.13	3.7460	3.7459	-0.8256	25.09	0.19	-0.750			
0.3245	20769.16	3.7430	3.7428	-0.8284	25.09	0.19	-0.750			
0.3270	20925.77	3.7400	3.7400	-0.8331	25.10	0.20	-0.750			
0.3296	21096.46	3.7370	3.7371	-0.8613	25.10	0.20	-0.750			
0.3323	21265.69	3.7340	3.7341	-0.8677	25.10	0.20	-0.750			
0.3349	21432.07	3.7310	3.7310	-0.8784	25.10	0.20	-0.750			
0.3375	21599.65	3.7280	3.7280	-0.8777	25.10	0.20	-0.750			
0.3401	21765.66	3.7250	3.7250	-0.8887	25.11	0.21	-0.750			
0.3428	21938.94	3.7220	3.7219	-0.9059	25.11	0.21	-0.750			
0.3455	22112.71	3.7190	3.7189	-0.9218	25.11	0.21	-0.750			
0.3484	22296.24	3.7160	3.7159	-0.9520	25.11	0.21	-0.750			
0.3513	22482.72	3.7130	3.7130	-0.9626	25.10	0.20	-0.750			
0.3542	22668.84	3.7100	3.7098	-0.9758	25.10	0.20	-0.750			
0.3572	22857.74	3.7070	3.7074	-0.9997	25.10	0.20	-0.750			
0.3601	23048.62	3.7040	3.7038	-1.0095	25.10	0.20	-0.750			
0.3632	23243.47	3.7010	3.7016	-1.0273	25.09	0.19	-0.750	0.369	0.505	
0.3662	23436.92	3.6980	3.6980	-1.0329	25.09	0.19	-0.750			
0.3694	23644.40	3.6950	3.6954	-1.0750	25.09	0.19	-0.750			
0.3727	23853.60	3.6920	3.6920	-1.0961	25.09	0.19	-0.750			
0.3760	24064.39	3.6890	3.6890	-1.1129	25.08	0.18	-0.750			
0.3793	24273.29	3.6860	3.6859	-1.1502	25.08	0.18	-0.750			
0.3828	24500.72	3.6830	3.6831	-1.1667	25.08	0.18	-0.750			
0.3864	24729.41	3.6800	3.6799	-1.1821	25.07	0.17	-0.750			
0.3900	24959.65	3.6770	3.6766	-1.2029	25.07	0.17	-0.750			
0.3936	25189.00	3.6740	3.6744	-1.2115	25.06	0.16	-0.750			
0.3972	25423.99	3.6710	3.6709	-1.2431	25.05	0.15	-0.750			
0.4010	25663.85	3.6680	3.6680	-1.2625	25.05	0.15	-0.750			
0.4048	25904.70	3.6650	3.6649	-1.3004	25.04	0.14	-0.750			
0.4087	26157.52	3.6620	3.6621	-1.3487	25.04	0.14	-0.750			
0.4128	26421.59	3.6590	3.6590	-1.3624	25.03	0.13	-0.750			
0.4170	26686.81	3.6560	3.6559	-1.4068	25.02	0.12	-0.750			
0.4213	26964.15	3.6530	3.6526	-1.4368	25.02	0.12	-0.750			
0.4257	27247.70	3.6500	3.6496	-1.4480	25.01	0.11	-0.750			
0.4302	27533.08	3.6470	3.6472	-1.4824	25.00	0.10	-0.750			
0.4347	27818.44	3.6440	3.6442	-1.4770	25.00	0.10	-0.750			
0.4391	28100.71	3.6410	3.6406	-1.4976	24.99	0.09	-0.750			
0.4437	28396.88	3.6380	3.6384	-1.5428	24.98	0.08	-0.750			
0.4482	28687.68	3.6350	3.6347	-1.5381	24.98	0.08	-0.750			
0.4530	28992.23	3.6320	3.6325	-1.5889	24.97	0.07	-0.750			
0.4579	29308.50	3.6290	3.6290	-1.6218	24.97	0.07	-0.750			
0.4628	29619.99	3.6260	3.6258	-1.6709	24.96	0.06	-0.750			
0.4678	29941.11	3.6230	3.6231	-1.6976	24.94	0.04	-0.750			
0.4730	30269.47	3.6200	3.6199	-1.7140	24.94	0.04	-0.750			
0.4784	30614.95	3.6170	3.6171	-1.7734	24.94	0.04	-0.750			
0.4838	30960.91	3.6140	3.6137	-1.7737	24.94	0.04	-0.750			
0.4890	31292.83	3.6110	3.6111	-1.8167	24.93	0.03	-0.750			
0.4944	31641.77	3.6080	3.6083	-1.8230	24.93	0.03	-0.750			
0.4997	31981.84	3.6050	3.6044	-1.9003	24.92	0.02	-0.750			
0.5055	32353.49	3.6020	3.6020	-1.9242	24.90	0.00	-0.750			
0.5114	32732.44	3.5990	3.5996	-2.0445	24.90	0.00	-0.750			
0.5180	33153.83	3.5960	3.5960	-2.1238	24.90	0.00	-0.750			
0.5245	33567.55	3.5930	3.5924	-2.1866	24.90	-0.00	-0.750			
0.5308	33968.74	3.5900	3.5905	-2.1274	24.89	-0.01	-0.750			
0.5372	34378.62	3.5870	3.5866	-2.1162	24.89	-0.01	-0.750			
0.5435	34786.18	3.5840	3.5841	-2.1268	24.88	-0.02	-0.750			
0.5497	35183.69	3.5810	3.5812	-2.1272	24.88	-0.02	-0.750			
0.5564	35610.09	3.5780	3.5780	-2.1635	24.88	-0.02	-0.750			
0.5628	36021.10	3.5750	3.5753	-2.2761	24.88	-0.02	-0.750			
0.5696	36457.53	3.5720	3.5718	-2.2466	24.88	-0.02	-0.750			
0.5766	36901.01	3.5690	3.5687	-2.3188	24.88	-0.02	-0.750			
0.5837	37353.79	3.5660	3.5655	-2.2852	24.88	-0.02	-0.750			
0.5909	37816.48	3.5630	3.5628	-2.3523	24.88	-0.02	-0.750			
0.5975	38237.99	3.5600	3.5602	-2.2832	24.88	-0.02	-0.750			
0.6044	38681.24	3.5570	3.5572	-2.2657	24.88	-0.02	-0.750			
0.6114	39129.44	3.5540	3.5540	-2.2766	24.88	-0.02	-0.750			
0.6181	39561.36	3.5510	3.5511	-2.2742	24.89	-0.01	-0.750			
0.6247	39982.80	3.5480	3.5481	-2.1961	24.89	-0.01	-0.750			
0.6312	40399.20	3.5450	3.5449	-2.1712	24.89	-0.01	-0.750			
0.6377	40813.28	3.5420	3.5427	-2.1389	24.89	-0.01	-0.750			
0.6442	41226.07	3.5390	3.5392	-2.0789	24.90	0.00	-0.750			
0.6505	41631.08	3.5360	3.5352	-2.0424	24.91	0.01	-0.750			
0.6565	42017.87	3.5330	3.5337	-2.0126	24.92	0.02	-0.750			
0.6626	42408.82	3.5300	3.5301	-1.9773	24.93	0.03	-0.750			
0.6686	42792.71	3.5270	3.5268	-1.9640	24.94	0.04	-0.750			
0.6742	43145.63	3.5240	3.5240	-1.8932	24.95	0.05	-0.750			
0.6796	43494.57	3.5210	3.5211	-1.7746	24.97	0.07	-0.750			
0.6849	43836.42	3.5180	3.5178	-1.7107	24.98	0.08	-0.750			
0.6901	44165.66	3.5150	3.5147	-1.6724	24.99	0.09	-0.750			
0.6949	44472.59	3.5120	3.5121	-1.6052	25.00	0.10	-0.750			
0.6996	44771.97	3.5090	3.5092	-1.5789	25.02	0.12	-0.750			
0.7043	45072.31	3.5060	3.5058	-1.5458	25.03	0.13	-0.750			
0.7090	45378.75	3.5030	3.5028	-1.5385	25.05	0.15	-0.750			
0.7135	45664.02	3.5000	3.5001	-1.4597	25.07	0.17	-0.750			
0.7179	45948.03	3.4970	3.4971	-1.4004	25.09	0.19	-0.750			
0.7220	46210.41	3.4940	3.4939	-1.2943	25.11	0.21	-0.750			
0.7257	46445.11	3.4910	3.4910	-1.1194	25.13	0.23	-0.750			
