Ah_balance (normalized)	Ah_balance (mAh)	Voltage - fit (V)	Voltage -  interpolate (V)	dQ/dV (1/V)	Temperature (°C)	Temperature - diff (°C)	Current (C)	R_DC 0ms (mOhm)	R_DC 50ms (mOhm)	R_DC 50 ms PEC (mOhm)
0.0476	3043.67	4.1970	4.1970	0.7557	26.06	0.66	0.750			
0.0498	3188.87	4.1940	4.1940	0.7587	26.05	0.65	0.750			
0.0521	3335.58	4.1910	4.1910	0.7644	26.05	0.65	0.750			
0.0544	3482.90	4.1880	4.1880	0.7671	26.05	0.65	0.750			
0.0567	3631.16	4.1850	4.1850	0.7678	26.05	0.65	0.750			
0.0591	3779.26	4.1820	4.1821	0.7663	26.05	0.65	0.750			
0.0614	3926.55	4.1790	4.1790	0.7678	26.04	0.64	0.750			
0.0636	4073.40	4.1760	4.1761	0.7690	26.04	0.64	0.750			
0.0659	4219.61	4.1730	4.1729	0.7699	26.04	0.64	0.750			
0.0682	4367.70	4.1700	4.1700	0.7715	26.04	0.64	0.750			
0.0706	4516.76	4.1670	4.1670	0.7726	26.04	0.64	0.750			
0.0729	4665.16	4.1640	4.1641	0.7756	26.04	0.64	0.750			
0.0752	4814.58	4.1610	4.1610	0.7809	26.05	0.65	0.750			
0.0776	4964.42	4.1580	4.1580	0.7803	26.05	0.65	0.750			
0.0799	5114.57	4.1550	4.1550	0.7792	26.05	0.65	0.750			
0.0823	5264.52	4.1520	4.1521	0.7819	26.05	0.65	0.750			
0.0846	5415.41	4.1490	4.1490	0.7810	26.05	0.65	0.750			
0.0869	5564.35	4.1460	4.1460	0.7822	26.05	0.65	0.750			
0.0893	5713.00	4.1430	4.1430	0.7817	26.05	0.65	0.750			
0.0916	5862.85	4.1400	4.1397	0.7862	26.05	0.65	0.750			
0.0940	6015.24	4.1370	4.1371	0.7915	26.05	0.65	0.750			
0.0964	6167.93	4.1340	4.1340	0.7928	26.05	0.65	0.750			
0.0988	6321.15	4.1310	4.1310	0.7952	26.05	0.65	0.750			
0.1011	6473.10	4.1280	4.1281	0.7923	26.05	0.65	0.750			
0.1035	6626.03	4.1250	4.1249	0.7964	26.05	0.65	0.750			
0.1059	6779.10	4.1220	4.1220	0.7963	26.05	0.65	0.750			
0.1083	6934.08	4.1190	4.1189	0.7890	26.05	0.65	0.750			
0.1107	7083.80	4.1160	4.1161	0.7958	26.05	0.65	0.750			
0.1131	7235.88	4.1130	4.1131	0.7984	26.05	0.65	0.750			
0.1154	7388.48	4.1100	4.1101	0.8013	26.05	0.65	0.750			
0.1179	7542.97	4.1070	4.1070	0.8055	26.05	0.65	0.750			
0.1203	7700.86	4.1040	4.1040	0.8036	26.05	0.65	0.750			
0.1227	7854.67	4.1010	4.1011	0.8103	26.05	0.65	0.750			
0.1252	8012.20	4.0980	4.0980	0.8144	26.06	0.66	0.750			
0.1276	8164.60	4.0950	4.0951	0.8122	26.06	0.66	0.750			
0.1300	8320.70	4.0920	4.0920	0.8177	26.06	0.66	0.750			
0.1325	8479.34	4.0890	4.0890	0.8182	26.06	0.66	0.750			
0.1350	8637.73	4.0860	4.0861	0.8241	26.06	0.66	0.750			
0.1375	8796.91	4.0830	4.0830	0.8251	26.07	0.67	0.750			
0.1399	8954.30	4.0800	4.0800	0.8219	26.07	0.67	0.750			
0.1424	9112.38	4.0770	4.0770	0.8257	26.07	0.67	0.750			
0.1449	9272.54	4.0740	4.0740	0.8200	26.07	0.67	0.750			
0.1473	9429.30	4.0710	4.0710	0.8263	26.07	0.67	0.750			
0.1498	9587.60	4.0680	4.0681	0.8324	26.07	0.67	0.750			
0.1523	9746.99	4.0650	4.0651	0.8333	26.07	0.67	0.750			
0.1548	9907.83	4.0620	4.0619	0.8380	26.07	0.67	0.750			
0.1574	10071.40	4.0590	4.0591	0.8322	26.07	0.67	0.750			
0.1599	10230.87	4.0560	4.0560	0.8378	26.07	0.67	0.750			
0.1624	10391.14	4.0530	4.0531	0.8444	26.08	0.68	0.750			
0.1649	10551.87	4.0500	4.0500	0.8435	26.08	0.68	0.750			
0.1674	10713.83	4.0470	4.0471	0.8485	26.08	0.68	0.750			
0.1700	10879.15	4.0440	4.0441	0.8542	26.08	0.68	0.750			
0.1726	11044.57	4.0410	4.0410	0.8607	26.08	0.68	0.750			
0.1752	11210.98	4.0380	4.0380	0.8638	26.09	0.69	0.750			
0.1777	11375.27	4.0350	4.0350	0.8636	26.09	0.69	0.750			
0.1803	11541.73	4.0320	4.0320	0.8643	26.09	0.69	0.750			
0.1830	11710.13	4.0290	4.0289	0.8597	26.09	0.69	0.750			
0.1855	11873.42	4.0260	4.0261	0.8688	26.09	0.69	0.750			
0.1881	12040.73	4.0230	4.0230	0.8747	26.09	0.69	0.750			
0.1908	12208.48	4.0200	4.0199	0.8761	26.09	0.69	0.750			
0.1934	12377.26	4.0170	4.0171	0.8812	26.09	0.69	0.750			
0.1960	12546.61	4.0140	4.0141	0.8814	26.10	0.70	0.750			
0.1987	12717.74	4.0110	4.0110	0.8866	26.10	0.70	0.750			
0.2014	12887.44	4.0080	4.0080	0.8833	26.11	0.71	0.750			
0.2040	13056.97	4.0050	4.0046	0.8877	26.11	0.71	0.750			
0.2067	13229.01	4.0020	4.0020	0.8910	26.11	0.71	0.750			
0.2094	13400.24	3.9990	3.9991	0.8971	26.11	0.71	0.750			
0.2121	13573.86	3.9960	3.9960	0.9003	26.11	0.71	0.750			
0.2148	13747.71	3.9930	3.9930	0.9026	26.11	0.71	0.750			
0.2175	13919.90	3.9900	3.9900	0.9003	26.11	0.71	0.750			
0.2202	14094.31	3.9870	3.9870	0.8921	26.11	0.71	0.750			
0.2229	14263.73	3.9840	3.9841	0.9005	26.11	0.71	0.750			
0.2256	14436.34	3.9810	3.9810	0.9056	26.11	0.71	0.750			
0.2283	14608.86	3.9780	3.9779	0.9096	26.11	0.71	0.750			
0.2310	14786.98	3.9750	3.9750	0.9104	26.11	0.71	0.750			
0.2338	14962.82	3.9720	3.9721	0.9161	26.11	0.71	0.750			
0.2366	15139.53	3.9690	3.9690	0.9211	26.11	0.71	0.750			
0.2393	15318.09	3.9660	3.9660	0.9243	26.11	0.71	0.750			
0.2421	15492.00	3.9630	3.9628	0.9175	26.11	0.71	0.750			
0.2448	15669.28	3.9600	3.9600	0.9199	26.11	0.71	0.750			
0.2476	15845.94	3.9570	3.9571	0.9253	26.11	0.71	0.750			
0.2504	16025.09	3.9540	3.9540	0.9308	26.11	0.71	0.750			
0.2532	16203.32	3.9510	3.9509	0.9291	26.11	0.71	0.750			
0.2560	16383.24	3.9480	3.9480	0.9283	26.11	0.71	0.750			
0.2588	16561.49	3.9450	3.9450	0.9333	26.11	0.71	0.750			
0.2616	16740.72	3.9420	3.9420	0.9390	26.12	0.72	0.750			
0.2644	16921.07	3.9390	3.9390	0.9422	26.12	0.72	0.750			
0.2672	17101.64	3.9360	3.9359	0.9447	26.12	0.72	0.750			
0.2701	17286.90	3.9330	3.9330	0.9318	26.12	0.72	0.750			
0.2729	17464.74	3.9300	3.9301	0.9428	26.12	0.72	0.750			
0.2757	17645.11	3.9270	3.9271	0.9441	26.13	0.73	0.750			
0.2785	17824.43	3.9240	3.9238	0.9436	26.13	0.73	0.750			
0.2813	18006.37	3.9210	3.9211	0.9482	26.13	0.73	0.750			
0.2842	18188.38	3.9180	3.9181	0.9567	26.13	0.73	0.750			
0.2871	18373.82	3.9150	3.9151	0.9646	26.13	0.73	0.750			
0.2900	18561.44	3.9120	3.9120	0.9632	26.13	0.73	0.750			
0.2930	18749.36	3.9090	3.9090	0.9649	26.13	0.73	0.750			
0.2958	18934.30	3.9060	3.9060	0.9685	26.13	0.73	0.750			
0.2987	19119.85	3.9030	3.9031	0.9703	26.13	0.73	0.750			
0.3017	19306.40	3.9000	3.9000	0.9729	26.13	0.73	0.750			
0.3046	19491.84	3.8970	3.8969	0.9733	26.13	0.73	0.750			
0.3075	19679.76	3.8940	3.8941	0.9725	26.13	0.73	0.750			
0.3104	19867.12	3.8910	3.8910	0.9784	26.13	0.73	0.750			
0.3134	20055.42	3.8880	3.8880	0.9799	26.13	0.73	0.750			
0.3163	20243.09	3.8850	3.8848	0.9833	26.13	0.73	0.750			
0.3193	20432.19	3.8820	3.8820	0.9841	26.13	0.73	0.750			
0.3222	20621.81	3.8790	3.8790	0.9893	26.12	0.72	0.750			
0.3252	20812.34	3.8760	3.8761	0.9957	26.12	0.72	0.750			
0.3282	21003.75	3.8730	3.8730	0.9965	26.11	0.71	0.750			
0.3312	21197.61	3.8700	3.8700	0.9915	26.11	0.71	0.750			
0.3342	21387.96	3.8670	3.8670	0.9968	26.11	0.71	0.750			
0.3372	21577.74	3.8640	3.8641	1.0021	26.11	0.71	0.750			
0.3402	21770.15	3.8610	3.8611	1.0065	26.11	0.71	0.750			
0.3432	21965.32	3.8580	3.8580	1.0080	26.11	0.71	0.750			
0.3462	22158.02	3.8550	3.8551	1.0151	26.10	0.70	0.750			
0.3493	22354.92	3.8520	3.8521	1.0235	26.09	0.69	0.750			
0.3524	22553.64	3.8490	3.8490	1.0349	26.08	0.68	0.750			
0.3555	22750.43	3.8460	3.8461	1.0318	26.08	0.68	0.750			
0.3586	22949.41	3.8430	3.8430	1.0375	26.07	0.67	0.750			
0.3617	23150.17	3.8400	3.8400	1.0390	26.06	0.66	0.750			
0.3648	23349.72	3.8370	3.8371	1.0527	26.05	0.65	0.750			
0.3680	23550.25	3.8340	3.8340	1.0533	26.05	0.65	0.750			
0.3711	23752.48	3.8310	3.8309	1.0700	26.04	0.64	0.750			
0.3744	23959.69	3.8280	3.8276	1.0801	26.03	0.63	0.750	0.322	0.425	
0.3777	24170.91	3.8250	3.8249	1.0885	26.01	0.61	0.750			
0.3810	24384.05	3.8220	3.8221	1.0785	26.01	0.61	0.750			
0.3842	24590.68	3.8190	3.8191	1.0850	26.00	0.60	0.750			
0.3874	24794.80	3.8160	3.8161	1.0845	25.99	0.59	0.750			
0.3907	25002.81	3.8130	3.8129	1.0918	25.98	0.58	0.750			
0.3939	25211.08	3.8100	3.8101	1.0930	25.97	0.57	0.750			
0.3972	25423.48	3.8070	3.8070	1.1036	25.96	0.56	0.750			
0.4006	25636.69	3.8040	3.8041	1.1126	25.95	0.55	0.750			
0.4040	25855.48	3.8010	3.8008	1.1180	25.94	0.54	0.750			
0.4073	26066.09	3.7980	3.7980	1.1176	25.93	0.53	0.750			
0.4106	26280.25	3.7950	3.7951	1.1283	25.91	0.51	0.750			
0.4140	26496.53	3.7920	3.7921	1.1402	25.90	0.50	0.750			
0.4174	26716.67	3.7890	3.7889	1.1482	25.89	0.49	0.750			
0.4209	26938.45	3.7860	3.7861	1.1670	25.88	0.48	0.750			
0.4244	27163.47	3.7830	3.7830	1.1813	25.87	0.47	0.750			
0.4280	27392.34	3.7800	3.7799	1.2006	25.86	0.46	0.750			
0.4316	27624.05	3.7770	3.7771	1.2178	25.85	0.45	0.750			
0.4353	27858.74	3.7740	3.7740	1.2366	25.84	0.44	0.750			
0.4391	28100.82	3.7710	3.7709	1.2545	25.82	0.42	0.750			
0.4428	28341.30	3.7680	3.7680	1.2832	25.81	0.41	0.750			
0.4467	28587.97	3.7650	3.7651	1.3068	25.79	0.39	0.750			
0.4506	28840.92	3.7620	3.7621	1.3388	25.78	0.38	0.750			
0.4547	29100.81	3.7590	3.7588	1.3599	25.77	0.37	0.750			
0.4588	29362.68	3.7560	3.7562	1.3919	25.75	0.35	0.750			
0.4630	29633.50	3.7530	3.7531	1.4231	25.73	0.33	0.750			
0.4673	29909.14	3.7500	3.7501	1.4510	25.72	0.32	0.750			
0.4717	30187.56	3.7470	3.7471	1.4796	25.71	0.31	0.750			
0.4761	30472.31	3.7440	3.7441	1.5281	25.70	0.30	0.750			
0.4808	30773.82	3.7410	3.7408	1.5679	25.68	0.28	0.750			
0.4856	31081.26	3.7380	3.7377	1.6009	25.67	0.27	0.750			
0.4906	31396.83	3.7350	3.7350	1.6379	25.65	0.25	0.750			
0.4956	31719.68	3.7320	3.7321	1.6889	25.63	0.23	0.750			
0.5006	32039.16	3.7290	3.7291	1.7372	25.61	0.21	0.750			
0.5058	32372.06	3.7260	3.7263	1.7851	25.59	0.19	0.750			
0.5113	32721.62	3.7230	3.7234	1.8378	25.57	0.17	0.750			
0.5170	33087.35	3.7200	3.7199	1.9145	25.55	0.15	0.750			
0.5229	33463.84	3.7170	3.7168	1.9804	25.53	0.13	0.750			
0.5288	33844.08	3.7140	3.7138	2.0367	25.51	0.11	0.750			
0.5352	34251.99	3.7110	3.7107	2.0827	25.49	0.09	0.750			
0.5415	34656.72	3.7080	3.7077	2.1317	25.47	0.07	0.750			
0.5479	35065.85	3.7050	3.7053	2.2017	25.45	0.05	0.750			
0.5546	35493.29	3.7020	3.7018	2.2658	25.43	0.03	0.750			
0.5615	35937.02	3.6990	3.6989	2.3078	25.41	0.01	0.750			
0.5686	36389.99	3.6960	3.6959	2.3868	25.40	-0.00	0.750			
0.5757	36841.82	3.6930	3.6930	2.4251	25.38	-0.02	0.750			
0.5830	37314.22	3.6900	3.6902	2.5105	25.36	-0.04	0.750			
0.5907	37803.51	3.6870	3.6871	2.5788	25.35	-0.05	0.750			
0.5986	38312.72	3.6840	3.6840	2.6494	25.33	-0.07	0.750			
0.6068	38833.57	3.6810	3.6809	2.7392	25.32	-0.08	0.750			
0.6150	39362.28	3.6780	3.6779	2.8068	25.30	-0.10	0.750			
0.6236	39909.72	3.6750	3.6748	2.9335	25.29	-0.11	0.750			
0.6325	40483.16	3.6720	3.6720	2.9178	25.28	-0.12	0.750			
0.6415	41053.09	3.6690	3.6691	2.9845	25.27	-0.13	0.750			
0.6503	41620.44	3.6660	3.6658	2.8972	25.27	-0.13	0.750			
0.6591	42181.24	3.6630	3.6631	2.8405	25.27	-0.13	0.750			
0.6676	42723.99	3.6600	3.6600	2.6499	25.28	-0.12	0.750			
0.6752	43210.15	3.6570	3.6572	2.3908	25.29	-0.11	0.750			
0.6820	43645.36	3.6540	3.6540	2.1853	25.29	-0.11	0.750			
0.6881	44037.59	3.6510	3.6511	1.9665	25.30	-0.10	0.750			
0.6937	44396.82	3.6480	3.6480	1.7754	25.30	-0.10	0.750			
0.6986	44711.07	3.6450	3.6452	1.5875	25.31	-0.09	0.750			
0.7031	45000.86	3.6420	3.6419	1.4272	25.32	-0.08	0.750			
0.7071	45253.48	3.6390	3.6391	1.2757	25.33	-0.07	0.750			
0.7106	45479.00	3.6360	3.6360	1.1459	25.34	-0.06	0.750			
0.7137	45674.35	3.6330	3.6331	1.0480	25.34	-0.06	0.750			
0.7166	45865.48	3.6300	3.6296	0.9881	25.35	-0.05	0.750			
0.7194	46044.09	3.6270	3.6269	0.9351	25.35	-0.05	0.750			
0.7222	46217.68	3.6240	3.6241	0.9140	25.36	-0.04	0.750			
0.7248	46389.09	3.6210	3.6210	0.8998	25.36	-0.04	0.750			
0.7275	46561.66	3.6180	3.6181	0.8848	25.37	-0.03	0.750			
0.7302	46731.05	3.6150	3.6151	0.8499	25.37	-0.03	0.750			
0.7327	46894.76	3.6120	3.6121	0.8148	25.38	-0.02	0.750			
0.7352	47054.13	3.6090	3.6091	0.7648	25.38	-0.02	0.750			
0.7375	47200.89	3.6060	3.6060	0.6889	25.39	-0.01	0.750			
0.7395	47326.10	3.6030	3.6030	0.6185	25.39	-0.01	0.750			
0.7412	47435.51	3.6000	3.6000	0.5447	25.40	-0.00	0.750			
0.7426	47529.55	3.5970	3.5973	0.4781	25.40	0.00	0.750			
0.7440	47614.88	3.5940	3.5944	0.4190	25.41	0.01	0.750			
0.7451	47689.18	3.5910	3.5911	0.3595	25.41	0.01	0.750			
0.7461	47753.23	3.5880	3.5880	0.3061	25.41	0.01	0.750			
0.7470	47807.71	3.5850	3.5851	0.2521	25.41	0.01	0.750			
0.7477	47849.81	3.5820	3.5822	0.1928	25.41	0.01	0.750			
0.7482	47882.91	3.5790	3.5793	0.1341	25.42	0.02	0.750			
0.7485	47902.95	3.5760	3.5764	0.0709	25.42	0.02	0.750			
