Ah_balance (normalized)	Ah_balance (mAh)	Voltage - fit (V)	Voltage -  interpolate (V)	dQ/dV (1/V)	Temperature (°C)	Temperature - diff (°C)	Current (C)	R_DC 0ms (mOhm)	R_DC 50ms (mOhm)	R_DC 50 ms PEC (mOhm)
0.0475	3039.19	4.1970	4.1970	0.7600	25.48	0.40	0.750			
0.0498	3185.82	4.1940	4.1940	0.7652	25.49	0.41	0.750			
0.0521	3334.11	4.1910	4.1910	0.7670	25.49	0.41	0.750			
0.0544	3481.39	4.1880	4.1880	0.7664	25.49	0.41	0.750			
0.0567	3628.23	4.1850	4.1851	0.7673	25.50	0.42	0.750			
0.0590	3775.82	4.1820	4.1820	0.7668	25.50	0.42	0.750			
0.0613	3921.91	4.1790	4.1790	0.7664	25.51	0.43	0.750			
0.0636	4071.15	4.1760	4.1758	0.7652	25.51	0.43	0.750			
0.0659	4217.44	4.1730	4.1731	0.7647	25.51	0.43	0.750			
0.0682	4365.08	4.1700	4.1700	0.7616	25.51	0.43	0.750			
0.0705	4510.64	4.1670	4.1671	0.7640	25.51	0.43	0.750			
0.0728	4656.59	4.1640	4.1639	0.7664	25.51	0.43	0.750			
0.0751	4803.27	4.1610	4.1610	0.7678	25.51	0.43	0.750			
0.0774	4950.45	4.1580	4.1581	0.7722	25.51	0.43	0.750			
0.0797	5101.36	4.1550	4.1551	0.7822	25.51	0.43	0.750			
0.0820	5250.65	4.1520	4.1519	0.7796	25.51	0.43	0.750			
0.0844	5400.14	4.1490	4.1490	0.7825	25.52	0.44	0.750			
0.0867	5550.22	4.1460	4.1461	0.7853	25.52	0.44	0.750			
0.0891	5701.71	4.1430	4.1426	0.7861	25.52	0.44	0.750			
0.0915	5853.31	4.1400	4.1401	0.7903	25.52	0.44	0.750			
0.0939	6007.77	4.1370	4.1370	0.7764	25.52	0.44	0.750			
0.0962	6155.72	4.1340	4.1340	0.7869	25.52	0.44	0.750			
0.0985	6306.21	4.1310	4.1310	0.7931	25.52	0.44	0.750			
0.1009	6455.87	4.1280	4.1279	0.7941	25.52	0.44	0.750			
0.1033	6609.31	4.1250	4.1252	0.7992	25.52	0.44	0.750			
0.1057	6765.48	4.1220	4.1221	0.8022	25.52	0.44	0.750			
0.1081	6919.63	4.1190	4.1191	0.8037	25.53	0.45	0.750			
0.1106	7077.25	4.1160	4.1160	0.8107	25.53	0.45	0.750			
0.1129	7227.74	4.1130	4.1130	0.8088	25.53	0.45	0.750			
0.1154	7384.45	4.1100	4.1099	0.8124	25.53	0.45	0.750			
0.1179	7542.68	4.1070	4.1070	0.8095	25.53	0.45	0.750			
0.1203	7698.01	4.1040	4.1042	0.8120	25.53	0.45	0.750			
0.1227	7855.01	4.1010	4.1010	0.8160	25.53	0.45	0.750			
0.1252	8010.00	4.0980	4.0980	0.8130	25.53	0.45	0.750			
0.1276	8164.33	4.0950	4.0951	0.8099	25.53	0.45	0.750			
0.1300	8323.04	4.0920	4.0920	0.8012	25.53	0.45	0.750			
0.1325	8477.55	4.0890	4.0890	0.8102	25.53	0.45	0.750			
0.1349	8631.49	4.0860	4.0861	0.8148	25.54	0.46	0.750			
0.1373	8785.93	4.0830	4.0831	0.8172	25.54	0.46	0.750			
0.1397	8942.08	4.0800	4.0800	0.8253	25.54	0.46	0.750			
0.1422	9103.40	4.0770	4.0771	0.8297	25.54	0.46	0.750			
0.1448	9265.56	4.0740	4.0740	0.8352	25.54	0.46	0.750			
0.1473	9426.90	4.0710	4.0710	0.8375	25.55	0.47	0.750			
0.1498	9586.26	4.0680	4.0680	0.8344	25.55	0.47	0.750			
0.1523	9745.82	4.0650	4.0650	0.8351	25.55	0.47	0.750			
0.1549	9910.48	4.0620	4.0619	0.8260	25.55	0.47	0.750			
0.1573	10067.27	4.0590	4.0590	0.8319	25.55	0.47	0.750			
0.1598	10226.19	4.0560	4.0562	0.8400	25.56	0.48	0.750			
0.1623	10386.35	4.0530	4.0531	0.8456	25.56	0.48	0.750			
0.1648	10547.52	4.0500	4.0501	0.8516	25.56	0.48	0.750			
0.1674	10713.77	4.0470	4.0471	0.8519	25.56	0.48	0.750			
0.1700	10879.34	4.0440	4.0441	0.8629	25.56	0.48	0.750			
0.1726	11046.49	4.0410	4.0411	0.8682	25.57	0.49	0.750			
0.1752	11212.16	4.0380	4.0379	0.8632	25.57	0.49	0.750			
0.1778	11378.01	4.0350	4.0351	0.8672	25.57	0.49	0.750			
0.1804	11545.22	4.0320	4.0320	0.8677	25.57	0.49	0.750			
0.1830	11711.87	4.0290	4.0291	0.8737	25.58	0.50	0.750			
0.1856	11880.93	4.0260	4.0260	0.8794	25.58	0.50	0.750			
0.1883	12048.90	4.0230	4.0229	0.8756	25.58	0.50	0.750			
0.1909	12217.28	4.0200	4.0200	0.8798	25.58	0.50	0.750			
0.1935	12387.09	4.0170	4.0171	0.8794	25.58	0.50	0.750			
0.1962	12555.79	4.0140	4.0140	0.8820	25.59	0.51	0.750			
0.1988	12723.81	4.0110	4.0110	0.8853	25.59	0.51	0.750			
0.2015	12894.40	4.0080	4.0075	0.8878	25.59	0.51	0.750			
0.2042	13067.89	4.0050	4.0050	0.8835	25.59	0.51	0.750			
0.2068	13236.46	4.0020	4.0020	0.8899	25.59	0.51	0.750			
0.2095	13406.81	3.9990	3.9992	0.8941	25.59	0.51	0.750			
0.2122	13578.92	3.9960	3.9960	0.9027	25.59	0.51	0.750			
0.2148	13750.18	3.9930	3.9929	0.9016	25.59	0.51	0.750			
0.2176	13924.60	3.9900	3.9901	0.9060	25.60	0.52	0.750			
0.2203	14101.04	3.9870	3.9871	0.9156	25.60	0.52	0.750			
0.2231	14277.47	3.9840	3.9840	0.9177	25.60	0.52	0.750			
0.2258	14453.16	3.9810	3.9809	0.9121	25.61	0.53	0.750			
0.2286	14629.37	3.9780	3.9780	0.9088	25.61	0.53	0.750			
0.2313	14802.89	3.9750	3.9750	0.9104	25.61	0.53	0.750			
0.2340	14976.90	3.9720	3.9722	0.9177	25.62	0.54	0.750			
0.2368	15152.45	3.9690	3.9690	0.9233	25.62	0.54	0.750			
0.2395	15329.05	3.9660	3.9661	0.9269	25.62	0.54	0.750			
0.2424	15512.44	3.9630	3.9629	0.9177	25.62	0.54	0.750			
0.2451	15688.36	3.9600	3.9601	0.9284	25.62	0.54	0.750			
0.2479	15864.98	3.9570	3.9570	0.9334	25.63	0.55	0.750			
0.2507	16043.14	3.9540	3.9541	0.9315	25.63	0.55	0.750			
0.2535	16223.82	3.9510	3.9511	0.9299	25.63	0.55	0.750			
0.2563	16401.67	3.9480	3.9481	0.9354	25.63	0.55	0.750			
0.2591	16582.64	3.9450	3.9451	0.9426	25.63	0.55	0.750			
0.2620	16766.39	3.9420	3.9420	0.9539	25.63	0.55	0.750			
0.2648	16945.27	3.9390	3.9389	0.9455	25.63	0.55	0.750			
0.2676	17128.66	3.9360	3.9360	0.9392	25.63	0.55	0.750			
0.2704	17307.64	3.9330	3.9331	0.9498	25.64	0.56	0.750			
0.2733	17490.84	3.9300	3.9301	0.9518	25.64	0.56	0.750			
0.2761	17672.81	3.9270	3.9266	0.9503	25.64	0.56	0.750			
0.2790	17857.88	3.9240	3.9241	0.9449	25.64	0.56	0.750			
0.2819	18038.88	3.9210	3.9212	0.9501	25.64	0.56	0.750			
0.2847	18221.96	3.9180	3.9180	0.9609	25.63	0.55	0.750			
0.2876	18403.88	3.9150	3.9151	0.9610	25.63	0.55	0.750			
0.2905	18589.36	3.9120	3.9121	0.9653	25.63	0.55	0.750			
0.2934	18778.51	3.9090	3.9090	0.9762	25.64	0.56	0.750			
0.2963	18966.39	3.9060	3.9061	0.9836	25.64	0.56	0.750			
0.2993	19158.27	3.9030	3.9030	0.9913	25.65	0.57	0.750			
0.3023	19346.79	3.9000	3.8999	0.9873	25.65	0.57	0.750			
0.3052	19535.39	3.8970	3.8970	0.9821	25.65	0.57	0.750			
0.3082	19722.54	3.8940	3.8941	0.9844	25.65	0.57	0.750			
0.3111	19912.43	3.8910	3.8911	0.9917	25.65	0.57	0.750			
0.3141	20101.94	3.8880	3.8876	0.9997	25.65	0.57	0.750			
0.3171	20293.51	3.8850	3.8851	0.9956	25.66	0.58	0.750			
0.3201	20486.19	3.8820	3.8820	1.0034	25.66	0.58	0.750			
0.3231	20681.27	3.8790	3.8790	1.0123	25.66	0.58	0.750			
0.3262	20874.62	3.8760	3.8756	1.0100	25.67	0.59	0.750			
0.3292	21069.30	3.8730	3.8730	1.0130	25.67	0.59	0.750			
0.3323	21264.63	3.8700	3.8700	1.0170	25.66	0.58	0.750			
0.3353	21460.12	3.8670	3.8671	1.0204	25.66	0.58	0.750			
0.3384	21658.67	3.8640	3.8640	1.0271	25.65	0.57	0.750			
0.3415	21856.78	3.8610	3.8610	1.0131	25.65	0.57	0.750			
0.3445	22048.81	3.8580	3.8580	1.0241	25.65	0.57	0.750			
0.3476	22243.67	3.8550	3.8551	1.0304	25.65	0.57	0.750			
0.3507	22441.91	3.8520	3.8518	1.0395	25.65	0.57	0.750			
0.3538	22643.37	3.8490	3.8491	1.0381	25.65	0.57	0.750			
0.3569	22840.00	3.8460	3.8461	1.0746	25.65	0.57	0.750			
0.3602	23052.36	3.8430	3.8430	1.0898	25.64	0.56	0.750			
0.3635	23265.28	3.8400	3.8393	1.1021	25.64	0.56	0.750			
0.3669	23479.56	3.8370	3.8373	1.1200	25.64	0.56	0.750			
0.3703	23700.56	3.8340	3.8342	1.1262	25.63	0.55	0.750			
0.3737	23918.72	3.8310	3.8311	1.1249	25.62	0.54	0.750	0.350	0.428	
0.3771	24137.51	3.8280	3.8279	1.1122	25.62	0.54	0.750			
0.3803	24342.38	3.8250	3.8251	1.0989	25.61	0.53	0.750			
0.3836	24553.50	3.8220	3.8221	1.1027	25.60	0.52	0.750			
0.3869	24763.02	3.8190	3.8190	1.1024	25.59	0.51	0.750			
0.3903	24976.41	3.8160	3.8159	1.0946	25.59	0.51	0.750			
0.3935	25186.82	3.8130	3.8131	1.1066	25.58	0.50	0.750			
0.3969	25399.46	3.8100	3.8101	1.1149	25.58	0.50	0.750			
0.4002	25615.64	3.8070	3.8070	1.1216	25.57	0.49	0.750			
0.4036	25829.13	3.8040	3.8041	1.1248	25.56	0.48	0.750			
0.4070	26045.26	3.8010	3.8010	1.1322	25.55	0.47	0.750			
0.4104	26264.17	3.7980	3.7980	1.1438	25.54	0.46	0.750			
0.4139	26487.75	3.7950	3.7948	1.1538	25.53	0.45	0.750			
0.4173	26706.72	3.7920	3.7921	1.1565	25.52	0.44	0.750			
0.4208	26929.43	3.7890	3.7890	1.1701	25.51	0.43	0.750			
0.4243	27155.70	3.7860	3.7861	1.1823	25.50	0.42	0.750			
0.4278	27381.76	3.7830	3.7830	1.1845	25.49	0.41	0.750			
0.4314	27608.94	3.7800	3.7801	1.2071	25.47	0.39	0.750			
0.4350	27841.37	3.7770	3.7771	1.2276	25.46	0.38	0.750			
0.4387	28079.81	3.7740	3.7737	1.2478	25.45	0.37	0.750			
0.4425	28319.72	3.7710	3.7711	1.2690	25.44	0.36	0.750			
0.4463	28566.16	3.7680	3.7681	1.2929	25.43	0.35	0.750			
0.4503	28821.21	3.7650	3.7649	1.3125	25.42	0.34	0.750			
0.4542	29069.95	3.7620	3.7620	1.3375	25.41	0.33	0.750			
0.4583	29329.67	3.7590	3.7590	1.3709	25.39	0.31	0.750			
0.4624	29595.49	3.7560	3.7559	1.4023	25.38	0.30	0.750			
0.4668	29872.56	3.7530	3.7530	1.4260	25.36	0.28	0.750			
0.4711	30148.01	3.7500	3.7501	1.4583	25.35	0.27	0.750			
0.4755	30429.18	3.7470	3.7469	1.4922	25.33	0.25	0.750			
0.4799	30713.11	3.7440	3.7442	1.5242	25.32	0.24	0.750			
0.4845	31008.14	3.7410	3.7409	1.5766	25.30	0.22	0.750			
0.4893	31314.60	3.7380	3.7378	1.6247	25.28	0.20	0.750			
0.4942	31631.87	3.7350	3.7350	1.6706	25.27	0.19	0.750			
0.4994	31964.28	3.7320	3.7322	1.7237	25.25	0.17	0.750			
0.5047	32302.09	3.7290	3.7288	1.7690	25.24	0.16	0.750			
0.5101	32646.09	3.7260	3.7259	1.8092	25.22	0.14	0.750			
0.5156	33000.46	3.7230	3.7230	1.8666	25.20	0.12	0.750			
0.5213	33362.75	3.7200	3.7201	1.9346	25.18	0.10	0.750			
0.5271	33737.17	3.7170	3.7172	1.9807	25.17	0.09	0.750			
0.5332	34123.81	3.7140	3.7141	2.0394	25.15	0.07	0.750			
0.5394	34518.96	3.7110	3.7110	2.1118	25.13	0.05	0.750			
0.5459	34935.08	3.7080	3.7080	2.1338	25.11	0.03	0.750			
0.5524	35351.81	3.7050	3.7050	2.1452	25.10	0.02	0.750			
0.5589	35771.26	3.7020	3.7021	2.2083	25.08	-0.00	0.750			
0.5655	36193.25	3.6990	3.6989	2.2794	25.06	-0.02	0.750			
0.5723	36627.45	3.6960	3.6962	2.3356	25.04	-0.04	0.750			
0.5796	37092.45	3.6930	3.6930	2.4425	25.02	-0.06	0.750			
0.5870	37570.11	3.6900	3.6898	2.5175	25.01	-0.07	0.750			
0.5946	38056.96	3.6870	3.6870	2.6230	25.00	-0.08	0.750			
0.6026	38565.45	3.6840	3.6840	2.6885	24.98	-0.10	0.750			
0.6108	39088.04	3.6810	3.6811	2.7582	24.97	-0.11	0.750			
0.6191	39624.56	3.6780	3.6780	2.8400	24.96	-0.12	0.750			
0.6278	40180.33	3.6750	3.6750	2.8410	24.96	-0.12	0.750			
0.6366	40739.75	3.6720	3.6720	2.8238	24.94	-0.14	0.750			
0.6449	41273.09	3.6690	3.6688	2.8237	24.94	-0.14	0.750			
0.6534	41817.00	3.6660	3.6658	2.8529	24.94	-0.14	0.750			
0.6621	42372.02	3.6630	3.6630	2.8650	24.94	-0.14	0.750			
0.6708	42933.42	3.6600	3.6598	2.7276	24.95	-0.13	0.750			
0.6786	43433.50	3.6570	3.6571	2.4937	24.96	-0.12	0.750			
0.6857	43885.85	3.6540	3.6544	2.2410	24.97	-0.11	0.750			
0.6920	44290.96	3.6510	3.6511	2.0264	24.97	-0.11	0.750			
0.6978	44657.88	3.6480	3.6479	1.8099	24.98	-0.10	0.750			
0.7028	44980.64	3.6450	3.6450	1.6032	24.98	-0.10	0.750			
0.7075	45278.39	3.6420	3.6422	1.4279	25.00	-0.08	0.750			
0.7113	45525.33	3.6390	3.6391	1.2547	25.01	-0.07	0.750			
0.7148	45744.74	3.6360	3.6359	1.1035	25.02	-0.06	0.750			
0.7177	45932.29	3.6330	3.6330	0.9985	25.03	-0.05	0.750			
0.7204	46104.94	3.6300	3.6299	0.9079	25.03	-0.05	0.750			
0.7229	46267.41	3.6270	3.6270	0.8766	25.03	-0.05	0.750			
0.7254	46428.57	3.6240	3.6241	0.8508	25.04	-0.04	0.750			
0.7279	46587.82	3.6210	3.6212	0.8290	25.04	-0.04	0.750			
0.7304	46746.75	3.6180	3.6182	0.8126	25.05	-0.03	0.750			
0.7329	46905.14	3.6150	3.6151	0.7762	25.06	-0.02	0.750			
0.7352	47055.75	3.6120	3.6120	0.7283	25.07	-0.01	0.750			
0.7374	47193.21	3.6090	3.6091	0.6680	25.08	-0.00	0.750			
0.7393	47316.59	3.6060	3.6061	0.6031	25.08	0.00	0.750			
0.7410	47427.06	3.6030	3.6030	0.5358	25.09	0.01	0.750			
0.7426	47523.33	3.6000	3.6000	0.4660	25.09	0.01	0.750			
0.7438	47605.14	3.5970	3.5971	0.3978	25.10	0.02	0.750			
0.7449	47674.35	3.5940	3.5940	0.3268	25.10	0.02	0.750			
0.7458	47730.94	3.5910	3.5909	0.2615	25.10	0.02	0.750			
0.7465	47774.37	3.5880	3.5880	0.1962	25.10	0.02	0.750			
0.7470	47805.34	3.5850	3.5852	0.1343	25.11	0.03	0.750			
0.7473	47825.19	3.5820	3.5829	0.0741	25.11	0.03	0.750			
