Ah_balance (normalized)	Ah_balance (mAh)	Voltage - fit (V)	Voltage -  interpolate (V)	dQ/dV (1/V)	Temperature (°C)	Temperature - diff (°C)	Current (C)	R_DC 0ms (mOhm)	R_DC 50ms (mOhm)	R_DC 50 ms PEC (mOhm)
0.0474	3034.29	4.1980	4.1980	0.7074	25.43	0.55	0.750			
0.0496	3172.78	4.1950	4.1951	0.7313	25.43	0.55	0.750			
0.0518	3315.83	4.1920	4.1919	0.7472	25.43	0.55	0.750			
0.0541	3461.47	4.1890	4.1890	0.7546	25.43	0.55	0.750			
0.0564	3609.20	4.1860	4.1861	0.7544	25.43	0.55	0.750			
0.0586	3753.53	4.1830	4.1831	0.7588	25.43	0.55	0.750			
0.0609	3900.20	4.1800	4.1801	0.7598	25.43	0.55	0.750			
0.0632	4045.00	4.1770	4.1771	0.7607	25.43	0.55	0.750			
0.0655	4190.37	4.1740	4.1737	0.7635	25.43	0.55	0.750			
0.0678	4337.94	4.1710	4.1712	0.7658	25.43	0.55	0.750			
0.0701	4489.49	4.1680	4.1680	0.7641	25.43	0.55	0.750			
0.0724	4634.13	4.1650	4.1650	0.7657	25.43	0.55	0.750			
0.0747	4780.18	4.1620	4.1621	0.7636	25.43	0.55	0.750			
0.0770	4925.69	4.1590	4.1591	0.7651	25.43	0.55	0.750			
0.0793	5072.14	4.1560	4.1561	0.7716	25.43	0.55	0.750			
0.0816	5222.13	4.1530	4.1530	0.7718	25.43	0.55	0.750			
0.0839	5371.60	4.1500	4.1500	0.7763	25.43	0.55	0.750			
0.0863	5523.21	4.1470	4.1470	0.7831	25.43	0.55	0.750			
0.0886	5670.12	4.1440	4.1440	0.7762	25.43	0.55	0.750			
0.0909	5819.36	4.1410	4.1410	0.7778	25.43	0.55	0.750			
0.0933	5968.80	4.1380	4.1380	0.7803	25.43	0.55	0.750			
0.0956	6117.77	4.1350	4.1350	0.7782	25.43	0.55	0.750			
0.0979	6268.61	4.1320	4.1320	0.7812	25.43	0.55	0.750			
0.1003	6418.07	4.1290	4.1291	0.7809	25.43	0.55	0.750			
0.1026	6568.31	4.1260	4.1257	0.7815	25.43	0.55	0.750			
0.1050	6718.32	4.1230	4.1231	0.7847	25.43	0.55	0.750			
0.1074	6872.87	4.1200	4.1199	0.7700	25.43	0.55	0.750			
0.1097	7018.61	4.1170	4.1170	0.7796	25.44	0.56	0.750			
0.1120	7166.04	4.1140	4.1141	0.7804	25.44	0.56	0.750			
0.1143	7315.30	4.1110	4.1112	0.7869	25.44	0.56	0.750			
0.1167	7467.49	4.1080	4.1082	0.7905	25.44	0.56	0.750			
0.1191	7621.10	4.1050	4.1051	0.7960	25.44	0.56	0.750			
0.1215	7775.25	4.1020	4.1021	0.7990	25.43	0.55	0.750			
0.1240	7933.81	4.0990	4.0990	0.8086	25.43	0.55	0.750			
0.1263	8083.02	4.0960	4.0960	0.7950	25.43	0.55	0.750			
0.1287	8236.11	4.0930	4.0930	0.8007	25.43	0.55	0.750			
0.1311	8390.85	4.0900	4.0900	0.8012	25.43	0.55	0.750			
0.1335	8545.63	4.0870	4.0870	0.8035	25.43	0.55	0.750			
0.1359	8700.07	4.0840	4.0840	0.8070	25.43	0.55	0.750			
0.1384	8854.56	4.0810	4.0811	0.8066	25.43	0.55	0.750			
0.1408	9008.69	4.0780	4.0782	0.8098	25.43	0.55	0.750			
0.1432	9164.37	4.0750	4.0750	0.8145	25.43	0.55	0.750			
0.1456	9320.24	4.0720	4.0720	0.8063	25.43	0.55	0.750			
0.1480	9474.21	4.0690	4.0691	0.8117	25.44	0.56	0.750			
0.1505	9629.15	4.0660	4.0662	0.8183	25.44	0.56	0.750			
0.1529	9786.18	4.0630	4.0623	0.8268	25.44	0.56	0.750			
0.1554	9945.64	4.0600	4.0602	0.8333	25.44	0.56	0.750			
0.1579	10107.09	4.0570	4.0571	0.8319	25.44	0.56	0.750			
0.1605	10270.58	4.0540	4.0541	0.8401	25.44	0.56	0.750			
0.1630	10429.80	4.0510	4.0511	0.8313	25.44	0.56	0.750			
0.1655	10589.15	4.0480	4.0478	0.8369	25.44	0.56	0.750			
0.1680	10752.18	4.0450	4.0450	0.8351	25.44	0.56	0.750			
0.1705	10912.06	4.0420	4.0420	0.8395	25.44	0.56	0.750			
0.1731	11075.56	4.0390	4.0390	0.8455	25.44	0.56	0.750			
0.1756	11236.63	4.0360	4.0361	0.8427	25.44	0.56	0.750			
0.1781	11398.48	4.0330	4.0328	0.8477	25.44	0.56	0.750			
0.1806	11561.60	4.0300	4.0300	0.8504	25.44	0.56	0.750			
0.1832	11725.68	4.0270	4.0270	0.8418	25.44	0.56	0.750			
0.1857	11885.27	4.0240	4.0241	0.8501	25.44	0.56	0.750			
0.1882	12046.39	4.0210	4.0212	0.8528	25.44	0.56	0.750			
0.1908	12211.45	4.0180	4.0181	0.8622	25.44	0.56	0.750			
0.1934	12378.64	4.0150	4.0151	0.8616	25.44	0.56	0.750			
0.1960	12544.99	4.0120	4.0121	0.8710	25.44	0.56	0.750			
0.1987	12717.17	4.0090	4.0091	0.8758	25.44	0.56	0.750			
0.2013	12884.01	4.0060	4.0060	0.8632	25.44	0.56	0.750			
0.2039	13048.88	4.0030	4.0031	0.8706	25.44	0.56	0.750			
0.2065	13215.88	4.0000	4.0000	0.8699	25.44	0.56	0.750			
0.2091	13382.95	3.9970	3.9970	0.8782	25.45	0.57	0.750			
0.2118	13552.62	3.9940	3.9941	0.8911	25.45	0.57	0.750			
0.2144	13723.67	3.9910	3.9909	0.8953	25.45	0.57	0.750			
0.2172	13898.12	3.9880	3.9879	0.9005	25.45	0.57	0.750			
0.2199	14072.94	3.9850	3.9850	0.8952	25.45	0.57	0.750			
0.2226	14244.16	3.9820	3.9821	0.8922	25.44	0.56	0.750			
0.2253	14416.67	3.9790	3.9791	0.8951	25.44	0.56	0.750			
0.2279	14586.07	3.9760	3.9759	0.8903	25.44	0.56	0.750			
0.2305	14754.90	3.9730	3.9731	0.8846	25.44	0.56	0.750			
0.2332	14924.54	3.9700	3.9699	0.8935	25.44	0.56	0.750			
0.2359	15097.91	3.9670	3.9670	0.9019	25.44	0.56	0.750			
0.2386	15271.29	3.9640	3.9640	0.8980	25.44	0.56	0.750			
0.2413	15443.95	3.9610	3.9610	0.9058	25.44	0.56	0.750			
0.2441	15620.22	3.9580	3.9581	0.9033	25.44	0.56	0.750			
0.2468	15794.10	3.9550	3.9550	0.9054	25.45	0.57	0.750			
0.2495	15968.32	3.9520	3.9519	0.9050	25.45	0.57	0.750			
0.2522	16140.01	3.9490	3.9488	0.9016	25.45	0.57	0.750			
0.2549	16312.62	3.9460	3.9460	0.9047	25.45	0.57	0.750			
0.2576	16485.88	3.9430	3.9431	0.9001	25.45	0.57	0.750			
0.2603	16658.18	3.9400	3.9401	0.9050	25.45	0.57	0.750			
0.2630	16831.59	3.9370	3.9371	0.9144	25.45	0.57	0.750			
0.2657	17004.93	3.9340	3.9337	0.9166	25.45	0.57	0.750			
0.2685	17183.75	3.9310	3.9310	0.9196	25.45	0.57	0.750			
0.2713	17361.57	3.9280	3.9281	0.9263	25.45	0.57	0.750			
0.2741	17542.61	3.9250	3.9251	0.9318	25.45	0.57	0.750			
0.2769	17720.40	3.9220	3.9219	0.9226	25.45	0.57	0.750			
0.2797	17899.33	3.9190	3.9191	0.9236	25.45	0.57	0.750			
0.2824	18075.00	3.9160	3.9160	0.9245	25.44	0.56	0.750			
0.2852	18253.09	3.9130	3.9130	0.9270	25.44	0.56	0.750			
0.2880	18432.65	3.9100	3.9100	0.9305	25.43	0.55	0.750			
0.2908	18609.28	3.9070	3.9071	0.9285	25.43	0.55	0.750			
0.2936	18792.24	3.9040	3.9040	0.9093	25.43	0.55	0.750			
0.2963	18964.51	3.9010	3.9011	0.9159	25.43	0.55	0.750			
0.2990	19136.72	3.8980	3.8981	0.9237	25.43	0.55	0.750			
0.3018	19312.83	3.8950	3.8953	0.9263	25.43	0.55	0.750			
0.3046	19493.85	3.8920	3.8921	0.9296	25.43	0.55	0.750			
0.3074	19672.98	3.8890	3.8892	0.9376	25.42	0.54	0.750			
0.3102	19855.27	3.8860	3.8861	0.9446	25.41	0.53	0.750			
0.3131	20039.64	3.8830	3.8830	0.9575	25.40	0.52	0.750			
0.3159	20217.63	3.8800	3.8799	0.9463	25.40	0.52	0.750			
0.3188	20400.38	3.8770	3.8771	0.9416	25.39	0.51	0.750			
0.3216	20582.91	3.8740	3.8740	0.9475	25.39	0.51	0.750			
0.3245	20764.92	3.8710	3.8712	0.9499	25.39	0.51	0.750			
0.3273	20946.90	3.8680	3.8677	0.9466	25.38	0.50	0.750			
0.3302	21132.43	3.8650	3.8651	0.9341	25.37	0.49	0.750			
0.3329	21308.32	3.8620	3.8620	0.9384	25.37	0.49	0.750			
0.3357	21487.03	3.8590	3.8592	0.9490	25.36	0.48	0.750			
0.3386	21670.95	3.8560	3.8561	0.9582	25.35	0.47	0.750			
0.3415	21853.77	3.8530	3.8532	0.9525	25.35	0.47	0.750			
0.3443	22037.22	3.8500	3.8501	0.9612	25.34	0.46	0.750			
0.3473	22224.63	3.8470	3.8471	0.9671	25.33	0.45	0.750			
0.3502	22410.79	3.8440	3.8441	0.9626	25.32	0.44	0.750			
0.3530	22590.13	3.8410	3.8409	0.9593	25.31	0.43	0.750			
0.3558	22773.61	3.8380	3.8382	0.9685	25.30	0.42	0.750			
0.3588	22960.47	3.8350	3.8344	0.9794	25.30	0.42	0.750	0.307	0.405	
0.3617	23150.82	3.8320	3.8323	0.9932	25.29	0.41	0.750			
0.3647	23343.91	3.8290	3.8290	0.9997	25.28	0.40	0.750			
0.3678	23541.43	3.8260	3.8260	0.9982	25.27	0.39	0.750			
0.3709	23735.17	3.8230	3.8230	1.0059	25.26	0.38	0.750			
0.3738	23922.69	3.8200	3.8201	1.0033	25.25	0.37	0.750			
0.3768	24115.81	3.8170	3.8168	1.0077	25.24	0.36	0.750			
0.3799	24311.27	3.8140	3.8141	1.0122	25.23	0.35	0.750			
0.3829	24505.67	3.8110	3.8110	1.0190	25.22	0.34	0.750			
0.3860	24701.83	3.8080	3.8081	1.0284	25.21	0.33	0.750			
0.3891	24902.11	3.8050	3.8049	1.0428	25.20	0.32	0.750			
0.3922	25100.26	3.8020	3.8020	1.0358	25.19	0.31	0.750			
0.3953	25298.72	3.7990	3.7990	1.0548	25.18	0.30	0.750			
0.3985	25503.09	3.7960	3.7961	1.0709	25.17	0.29	0.750			
0.4017	25711.05	3.7930	3.7928	1.0889	25.16	0.28	0.750			
0.4050	25920.57	3.7900	3.7901	1.0933	25.15	0.27	0.750			
0.4083	26128.84	3.7870	3.7871	1.1117	25.14	0.26	0.750			
0.4116	26343.95	3.7840	3.7840	1.1344	25.13	0.25	0.750			
0.4151	26565.43	3.7810	3.7802	1.1559	25.12	0.24	0.750			
0.4185	26786.24	3.7780	3.7781	1.1718	25.11	0.23	0.750			
0.4221	27014.54	3.7750	3.7751	1.1986	25.10	0.22	0.750			
0.4258	27251.11	3.7720	3.7719	1.2228	25.09	0.21	0.750			
0.4296	27491.33	3.7690	3.7689	1.2526	25.08	0.20	0.750			
0.4332	27723.22	3.7660	3.7660	1.2631	25.07	0.19	0.750			
0.4370	27969.69	3.7630	3.7631	1.2927	25.06	0.18	0.750			
0.4410	28221.42	3.7600	3.7601	1.3073	25.05	0.17	0.750			
0.4449	28470.77	3.7570	3.7571	1.3339	25.04	0.16	0.750			
0.4489	28728.35	3.7540	3.7541	1.3635	25.03	0.15	0.750			
0.4530	28992.16	3.7510	3.7506	1.4005	25.02	0.14	0.750			
0.4573	29268.77	3.7480	3.7481	1.4078	25.00	0.12	0.750			
0.4616	29540.61	3.7450	3.7451	1.4523	24.99	0.11	0.750			
0.4660	29824.64	3.7420	3.7421	1.4968	24.98	0.10	0.750			
0.4706	30116.00	3.7390	3.7389	1.5368	24.96	0.08	0.750			
0.4751	30404.70	3.7360	3.7363	1.5558	24.95	0.07	0.750			
0.4798	30707.09	3.7330	3.7328	1.6026	24.94	0.06	0.750			
0.4847	31018.11	3.7300	3.7298	1.6433	24.93	0.05	0.750			
0.4897	31340.06	3.7270	3.7268	1.7035	24.92	0.04	0.750			
0.4948	31667.42	3.7240	3.7237	1.7335	24.91	0.03	0.750			
0.5002	32012.13	3.7210	3.7207	1.7671	24.89	0.01	0.750			
0.5056	32358.83	3.7180	3.7179	1.8345	24.87	-0.01	0.750			
0.5111	32708.96	3.7150	3.7151	1.9113	24.85	-0.03	0.750			
0.5169	33079.34	3.7120	3.7122	1.9286	24.84	-0.04	0.750			
0.5226	33447.53	3.7090	3.7088	1.9724	24.83	-0.05	0.750			
0.5284	33817.94	3.7060	3.7057	2.0402	24.82	-0.06	0.750			
0.5348	34225.92	3.7030	3.7035	2.1252	24.81	-0.07	0.750			
0.5412	34637.56	3.7000	3.7001	2.1895	24.80	-0.08	0.750			
0.5478	35059.43	3.6970	3.6967	2.2939	24.79	-0.09	0.750			
0.5548	35507.99	3.6940	3.6934	2.3418	24.77	-0.11	0.750			
0.5617	35950.57	3.6910	3.6912	2.3524	24.76	-0.12	0.750			
0.5689	36410.31	3.6880	3.6881	2.3519	24.75	-0.13	0.750			
0.5760	36866.15	3.6850	3.6847	2.5799	24.74	-0.14	0.750			
0.5838	37363.35	3.6820	3.6813	2.6493	24.73	-0.15	0.750			
0.5919	37878.65	3.6790	3.6787	2.6524	24.72	-0.16	0.750			
0.6001	38405.39	3.6760	3.6764	2.7064	24.72	-0.16	0.750			
0.6080	38912.65	3.6730	3.6730	2.8251	24.72	-0.16	0.750			
0.6161	39430.85	3.6700	3.6695	2.7598	24.72	-0.16	0.750			
0.6240	39938.18	3.6670	3.6670	2.7123	24.72	-0.16	0.750			
0.6321	40455.97	3.6640	3.6646	2.6894	24.73	-0.15	0.750			
0.6402	40970.10	3.6610	3.6601	2.4727	24.74	-0.14	0.750			
0.6473	41424.09	3.6580	3.6587	2.2569	24.75	-0.13	0.750			
0.6538	41841.98	3.6550	3.6552	2.0418	24.76	-0.12	0.750			
0.6594	42202.94	3.6520	3.6516	1.8503	24.77	-0.11	0.750			
0.6644	42522.65	3.6490	3.6488	1.5997	24.77	-0.11	0.750			
0.6687	42796.66	3.6460	3.6461	1.4248	24.78	-0.10	0.750			
0.6726	43048.94	3.6430	3.6431	1.2979	24.79	-0.09	0.750			
0.6763	43281.23	3.6400	3.6400	1.1911	24.80	-0.08	0.750			
0.6797	43500.50	3.6370	3.6371	1.1142	24.80	-0.08	0.750			
0.6828	43699.78	3.6340	3.6340	1.0479	24.80	-0.08	0.750			
0.6859	43894.41	3.6310	3.6310	1.0077	24.81	-0.07	0.750			
0.6888	44084.97	3.6280	3.6279	0.9831	24.81	-0.07	0.750			
0.6916	44264.52	3.6250	3.6250	0.9380	24.81	-0.07	0.750			
0.6944	44443.86	3.6220	3.6219	0.9079	24.82	-0.06	0.750			
0.6971	44617.02	3.6190	3.6190	0.8757	24.83	-0.05	0.750			
0.6998	44784.51	3.6160	3.6161	0.8401	24.83	-0.05	0.750			
0.7022	44943.21	3.6130	3.6128	0.7884	24.84	-0.04	0.750			
0.7046	45091.51	3.6100	3.6101	0.7355	24.85	-0.03	0.750			
0.7067	45228.68	3.6070	3.6071	0.6766	24.85	-0.03	0.750			
0.7087	45354.44	3.6040	3.6040	0.6172	24.86	-0.02	0.750			
0.7104	45466.85	3.6010	3.6009	0.5395	24.86	-0.02	0.750			
0.7119	45562.61	3.5980	3.5980	0.4800	24.87	-0.01	0.750			
0.7132	45645.95	3.5950	3.5952	0.4220	24.87	-0.01	0.750			
0.7144	45720.48	3.5920	3.5920	0.3716	24.88	-0.00	0.750			
0.7154	45786.81	3.5890	3.5892	0.3172	24.88	0.00	0.750			
0.7163	45843.04	3.5860	3.5863	0.2697	24.88	0.00	0.750			
0.7170	45890.37	3.5830	3.5834	0.2227	24.89	0.01	0.750			
0.7178	45937.32	3.5800	3.5798	0.1670	24.89	0.01	0.750			
0.7181	45959.37	3.5770	3.5775	0.1085	24.89	0.01	0.750			
0.7184	45974.82	3.5740	3.5754	0.0419	24.89	0.01	0.750			
