Ah_balance (normalized)	Ah_balance (mAh)	Voltage - fit (V)	Voltage -  interpolate (V)	dQ/dV (1/V)	Temperature (°C)	Temperature - diff (°C)	Current (C)	R_DC 0ms (mOhm)	R_DC 50ms (mOhm)	R_DC 50 ms PEC (mOhm)
0.0467	2989.38	4.1980	4.1980	0.7416	25.63	0.55	0.750			
0.0490	3135.34	4.1950	4.1950	0.7625	25.63	0.55	0.750			
0.0513	3282.42	4.1920	4.1918	0.7687	25.63	0.55	0.750			
0.0536	3431.23	4.1890	4.1890	0.7708	25.63	0.55	0.750			
0.0559	3580.62	4.1860	4.1860	0.7706	25.63	0.55	0.750			
0.0583	3728.70	4.1830	4.1830	0.7729	25.63	0.55	0.750			
0.0606	3877.13	4.1800	4.1800	0.7722	25.63	0.55	0.750			
0.0629	4023.90	4.1770	4.1770	0.7717	25.63	0.55	0.750			
0.0652	4172.63	4.1740	4.1741	0.7729	25.63	0.55	0.750			
0.0675	4321.11	4.1710	4.1710	0.7736	25.63	0.55	0.750			
0.0698	4469.71	4.1680	4.1680	0.7791	25.63	0.55	0.750			
0.0722	4620.08	4.1650	4.1650	0.7791	25.64	0.56	0.750			
0.0745	4768.68	4.1620	4.1620	0.7793	25.64	0.56	0.750			
0.0769	4919.29	4.1590	4.1591	0.7841	25.64	0.56	0.750			
0.0792	5070.34	4.1560	4.1560	0.7847	25.64	0.56	0.750			
0.0816	5221.88	4.1530	4.1529	0.7836	25.64	0.56	0.750			
0.0839	5371.74	4.1500	4.1501	0.7821	25.64	0.56	0.750			
0.0863	5520.31	4.1470	4.1470	0.7839	25.64	0.56	0.750			
0.0886	5672.03	4.1440	4.1437	0.7879	25.64	0.56	0.750			
0.0910	5822.30	4.1410	4.1410	0.7869	25.64	0.56	0.750			
0.0934	5975.58	4.1380	4.1381	0.7802	25.64	0.56	0.750			
0.0957	6125.94	4.1350	4.1350	0.7889	25.65	0.57	0.750			
0.0981	6275.92	4.1320	4.1321	0.7966	25.65	0.57	0.750			
0.1004	6427.06	4.1290	4.1290	0.7982	25.65	0.57	0.750			
0.1028	6581.47	4.1260	4.1260	0.8007	25.65	0.57	0.750			
0.1053	6737.55	4.1230	4.1231	0.8063	25.65	0.57	0.750			
0.1077	6893.42	4.1200	4.1201	0.8097	25.66	0.58	0.750			
0.1102	7052.51	4.1170	4.1169	0.8116	25.66	0.58	0.750			
0.1126	7203.84	4.1140	4.1140	0.8042	25.66	0.58	0.750			
0.1150	7357.70	4.1110	4.1110	0.8064	25.66	0.58	0.750			
0.1174	7515.24	4.1080	4.1080	0.8046	25.66	0.58	0.750			
0.1198	7668.76	4.1050	4.1050	0.8074	25.66	0.58	0.750			
0.1222	7823.35	4.1020	4.1021	0.8090	25.67	0.59	0.750			
0.1247	7978.10	4.0990	4.0992	0.8111	25.67	0.59	0.750			
0.1271	8134.32	4.0960	4.0958	0.8144	25.67	0.59	0.750			
0.1295	8290.47	4.0930	4.0930	0.8150	25.67	0.59	0.750			
0.1320	8446.99	4.0900	4.0901	0.8107	25.67	0.59	0.750			
0.1344	8601.02	4.0870	4.0871	0.8206	25.67	0.59	0.750			
0.1368	8756.87	4.0840	4.0841	0.8312	25.67	0.59	0.750			
0.1393	8916.54	4.0810	4.0809	0.8409	25.67	0.59	0.750			
0.1419	9082.14	4.0780	4.0781	0.8460	25.67	0.59	0.750			
0.1445	9246.93	4.0750	4.0752	0.8555	25.67	0.59	0.750			
0.1471	9416.42	4.0720	4.0720	0.8598	25.68	0.60	0.750			
0.1497	9580.77	4.0690	4.0690	0.8479	25.68	0.60	0.750			
0.1522	9741.09	4.0660	4.0660	0.8430	25.68	0.60	0.750			
0.1547	9903.66	4.0630	4.0631	0.8371	25.68	0.60	0.750			
0.1572	10063.38	4.0600	4.0601	0.8427	25.68	0.60	0.750			
0.1598	10224.33	4.0570	4.0570	0.8464	25.69	0.61	0.750			
0.1623	10385.47	4.0540	4.0539	0.8464	25.69	0.61	0.750			
0.1648	10549.91	4.0510	4.0510	0.8526	25.69	0.61	0.750			
0.1674	10715.31	4.0480	4.0481	0.8538	25.69	0.61	0.750			
0.1700	10879.84	4.0450	4.0451	0.8587	25.69	0.61	0.750			
0.1726	11045.94	4.0420	4.0420	0.8622	25.70	0.62	0.750			
0.1751	11208.82	4.0390	4.0390	0.8601	25.70	0.62	0.750			
0.1777	11375.20	4.0360	4.0360	0.8681	25.70	0.62	0.750			
0.1803	11542.37	4.0330	4.0330	0.8721	25.70	0.62	0.750			
0.1830	11711.09	4.0300	4.0300	0.8761	25.71	0.63	0.750			
0.1856	11881.10	4.0270	4.0270	0.8795	25.71	0.63	0.750			
0.1883	12048.09	4.0240	4.0239	0.8790	25.71	0.63	0.750			
0.1909	12217.43	4.0210	4.0211	0.8814	25.71	0.63	0.750			
0.1935	12386.46	4.0180	4.0180	0.8843	25.71	0.63	0.750			
0.1962	12557.01	4.0150	4.0149	0.8870	25.72	0.64	0.750			
0.1989	12728.17	4.0120	4.0121	0.8912	25.72	0.64	0.750			
0.2016	12899.41	4.0090	4.0089	0.8939	25.72	0.64	0.750			
0.2043	13074.21	4.0060	4.0059	0.8854	25.72	0.64	0.750			
0.2069	13240.52	4.0030	4.0031	0.8880	25.72	0.64	0.750			
0.2095	13410.32	4.0000	4.0001	0.8938	25.72	0.64	0.750			
0.2122	13582.71	3.9970	3.9971	0.9012	25.72	0.64	0.750			
0.2149	13755.07	3.9940	3.9939	0.9036	25.72	0.64	0.750			
0.2176	13929.17	3.9910	3.9911	0.9075	25.73	0.65	0.750			
0.2204	14106.01	3.9880	3.9881	0.9137	25.74	0.66	0.750			
0.2232	14283.10	3.9850	3.9850	0.9171	25.74	0.66	0.750			
0.2259	14457.88	3.9820	3.9820	0.9122	25.75	0.67	0.750			
0.2287	14634.34	3.9790	3.9790	0.9093	25.75	0.67	0.750			
0.2314	14807.46	3.9760	3.9760	0.9154	25.75	0.67	0.750			
0.2341	14983.47	3.9730	3.9730	0.9193	25.75	0.67	0.750			
0.2369	15159.95	3.9700	3.9700	0.9238	25.75	0.67	0.750			
0.2397	15337.88	3.9670	3.9669	0.9275	25.75	0.67	0.750			
0.2425	15517.28	3.9640	3.9641	0.9239	25.75	0.67	0.750			
0.2452	15694.53	3.9610	3.9611	0.9307	25.76	0.68	0.750			
0.2480	15873.42	3.9580	3.9580	0.9351	25.76	0.68	0.750			
0.2508	16051.62	3.9550	3.9548	0.9335	25.76	0.68	0.750			
0.2536	16231.12	3.9520	3.9520	0.9386	25.76	0.68	0.750			
0.2564	16412.37	3.9490	3.9491	0.9410	25.76	0.68	0.750			
0.2593	16596.26	3.9460	3.9460	0.9477	25.77	0.69	0.750			
0.2621	16777.34	3.9430	3.9430	0.9449	25.77	0.69	0.750			
0.2650	16958.39	3.9400	3.9400	0.9464	25.77	0.69	0.750			
0.2678	17139.62	3.9370	3.9370	0.9459	25.77	0.69	0.750			
0.2706	17321.14	3.9340	3.9340	0.9510	25.78	0.70	0.750			
0.2735	17500.81	3.9310	3.9311	0.9628	25.78	0.70	0.750			
0.2764	17686.55	3.9280	3.9278	0.9793	25.78	0.70	0.750			
0.2793	17875.70	3.9250	3.9250	0.9840	25.78	0.70	0.750			
0.2823	18067.18	3.9220	3.9219	0.9913	25.78	0.70	0.750			
0.2853	18261.53	3.9190	3.9193	0.9974	25.79	0.71	0.750			
0.2883	18454.13	3.9160	3.9159	0.9952	25.79	0.71	0.750			
0.2913	18645.73	3.9130	3.9130	0.9924	25.79	0.71	0.750			
0.2943	18834.52	3.9100	3.9100	0.9885	25.79	0.71	0.750			
0.2972	19021.85	3.9070	3.9071	0.9877	25.79	0.71	0.750			
0.3002	19211.89	3.9040	3.9040	0.9884	25.79	0.71	0.750			
0.3032	19402.88	3.9010	3.9010	0.9869	25.79	0.71	0.750			
0.3061	19591.89	3.8980	3.8980	0.9924	25.79	0.71	0.750			
0.3091	19781.83	3.8950	3.8950	0.9977	25.79	0.71	0.750			
0.3121	19974.59	3.8920	3.8920	0.9997	25.79	0.71	0.750			
0.3151	20167.78	3.8890	3.8891	1.0000	25.79	0.71	0.750			
0.3181	20359.80	3.8860	3.8860	1.0023	25.79	0.71	0.750			
0.3211	20551.91	3.8830	3.8831	1.0104	25.79	0.71	0.750			
0.3242	20746.25	3.8800	3.8800	1.0159	25.79	0.71	0.750			
0.3272	20940.98	3.8770	3.8770	1.0172	25.79	0.71	0.750			
0.3303	21136.81	3.8740	3.8741	1.0229	25.79	0.71	0.750			
0.3334	21335.00	3.8710	3.8710	1.0315	25.78	0.70	0.750			
0.3365	21533.58	3.8680	3.8680	1.0329	25.78	0.70	0.750			
0.3396	21732.94	3.8650	3.8650	1.0327	25.78	0.70	0.750			
0.3427	21930.69	3.8620	3.8620	1.0337	25.78	0.70	0.750			
0.3458	22129.68	3.8590	3.8590	1.0403	25.77	0.69	0.750			
0.3489	22329.51	3.8560	3.8561	1.0461	25.77	0.69	0.750			
0.3520	22530.60	3.8530	3.8529	1.0468	25.77	0.69	0.750			
0.3552	22731.48	3.8500	3.8500	1.0541	25.76	0.68	0.750			
0.3584	22934.60	3.8470	3.8470	1.0617	25.76	0.68	0.750			
0.3615	23138.80	3.8440	3.8440	1.0677	25.75	0.67	0.750			
0.3648	23345.33	3.8410	3.8410	1.0736	25.75	0.67	0.750			
0.3680	23551.21	3.8380	3.8380	1.0785	25.74	0.66	0.750			
0.3712	23757.21	3.8350	3.8350	1.0909	25.74	0.66	0.750			
0.3745	23968.10	3.8320	3.8320	1.1045	25.73	0.65	0.750			
0.3778	24180.91	3.8290	3.8291	1.1084	25.73	0.65	0.750	0.310	0.419	
0.3812	24395.88	3.8260	3.8261	1.1202	25.71	0.63	0.750			
0.3846	24612.90	3.8230	3.8231	1.1278	25.70	0.62	0.750			
0.3880	24833.09	3.8200	3.8199	1.1302	25.69	0.61	0.750			
0.3914	25047.65	3.8170	3.8170	1.1299	25.68	0.60	0.750			
0.3948	25264.25	3.8140	3.8141	1.1341	25.67	0.59	0.750			
0.3982	25482.32	3.8110	3.8110	1.1434	25.66	0.58	0.750			
0.4016	25702.29	3.8080	3.8079	1.1473	25.65	0.57	0.750			
0.4051	25923.77	3.8050	3.8050	1.1534	25.64	0.56	0.750			
0.4085	26146.86	3.8020	3.8020	1.1629	25.63	0.55	0.750			
0.4120	26370.74	3.7990	3.7990	1.1711	25.62	0.54	0.750			
0.4155	26595.07	3.7960	3.7960	1.1721	25.60	0.52	0.750			
0.4191	26821.33	3.7930	3.7930	1.1803	25.59	0.51	0.750			
0.4226	27046.92	3.7900	3.7900	1.1927	25.58	0.50	0.750			
0.4262	27277.67	3.7870	3.7868	1.2038	25.57	0.49	0.750			
0.4298	27509.17	3.7840	3.7840	1.2151	25.56	0.48	0.750			
0.4335	27742.89	3.7810	3.7810	1.2285	25.55	0.47	0.750			
0.4372	27982.44	3.7780	3.7780	1.2362	25.54	0.46	0.750			
0.4409	28220.05	3.7750	3.7749	1.2536	25.52	0.44	0.750			
0.4447	28459.29	3.7720	3.7721	1.2708	25.50	0.42	0.750			
0.4485	28704.38	3.7690	3.7690	1.2922	25.48	0.40	0.750			
0.4524	28953.65	3.7660	3.7659	1.3202	25.47	0.39	0.750			
0.4564	29209.38	3.7630	3.7631	1.3466	25.45	0.37	0.750			
0.4605	29470.63	3.7600	3.7601	1.3780	25.44	0.36	0.750			
0.4647	29741.16	3.7570	3.7570	1.4076	25.43	0.35	0.750			
0.4689	30012.04	3.7540	3.7540	1.4425	25.41	0.33	0.750			
0.4733	30291.56	3.7510	3.7510	1.4699	25.39	0.31	0.750			
0.4778	30577.75	3.7480	3.7481	1.5053	25.38	0.30	0.750			
0.4823	30869.13	3.7450	3.7451	1.5480	25.36	0.28	0.750			
0.4870	31170.25	3.7420	3.7420	1.5846	25.35	0.27	0.750			
0.4918	31478.39	3.7390	3.7390	1.6248	25.33	0.25	0.750			
0.4968	31793.14	3.7360	3.7360	1.6827	25.31	0.23	0.750			
0.5019	32119.02	3.7330	3.7331	1.7150	25.30	0.22	0.750			
0.5071	32454.37	3.7300	3.7301	1.7663	25.28	0.20	0.750			
0.5124	32794.63	3.7270	3.7268	1.8177	25.26	0.18	0.750			
0.5179	33146.39	3.7240	3.7242	1.8589	25.24	0.16	0.750			
0.5236	33512.70	3.7210	3.7209	1.8998	25.22	0.14	0.750			
0.5294	33882.10	3.7180	3.7182	1.9592	25.20	0.12	0.750			
0.5352	34254.74	3.7150	3.7153	2.0145	25.18	0.10	0.750			
0.5415	34653.05	3.7120	3.7118	2.0797	25.16	0.08	0.750			
0.5477	35053.86	3.7090	3.7090	2.1657	25.14	0.06	0.750			
0.5543	35475.77	3.7060	3.7062	2.2383	25.12	0.04	0.750			
0.5614	35927.15	3.7030	3.7028	2.3239	25.11	0.03	0.750			
0.5684	36376.86	3.7000	3.6999	2.3824	25.09	0.01	0.750			
0.5756	36840.65	3.6970	3.6970	2.4064	25.06	-0.02	0.750			
0.5828	37298.92	3.6940	3.6942	2.4398	25.04	-0.04	0.750			
0.5900	37760.40	3.6910	3.6910	2.5823	25.02	-0.06	0.750			
0.5979	38265.41	3.6880	3.6879	2.5637	25.00	-0.08	0.750			
0.6057	38763.54	3.6850	3.6851	2.6435	24.98	-0.10	0.750			
0.6137	39274.54	3.6820	3.6818	2.6964	24.97	-0.11	0.750			
0.6216	39781.90	3.6790	3.6791	2.7486	24.95	-0.13	0.750			
0.6304	40345.81	3.6760	3.6761	2.9251	24.94	-0.14	0.750			
0.6391	40903.00	3.6730	3.6734	2.9633	24.94	-0.14	0.750			
0.6481	41479.57	3.6700	3.6703	3.0004	24.93	-0.15	0.750			
0.6572	42061.18	3.6670	3.6672	2.9539	24.93	-0.15	0.750			
0.6662	42635.08	3.6640	3.6641	2.8899	24.93	-0.15	0.750			
0.6750	43199.90	3.6610	3.6610	2.7632	24.93	-0.15	0.750			
0.6833	43733.80	3.6580	3.6578	2.6207	24.94	-0.14	0.750			
0.6909	44218.57	3.6550	3.6550	2.4035	24.94	-0.14	0.750			
0.6977	44649.98	3.6520	3.6521	2.1757	24.95	-0.13	0.750			
0.7038	45040.29	3.6490	3.6490	1.9159	24.96	-0.12	0.750			
0.7093	45394.05	3.6460	3.6459	1.7243	24.97	-0.11	0.750			
0.7141	45699.73	3.6430	3.6430	1.5036	24.98	-0.10	0.750			
0.7183	45970.38	3.6400	3.6400	1.3240	24.99	-0.09	0.750			
0.7218	46197.71	3.6370	3.6370	1.1729	24.99	-0.09	0.750			
0.7250	46398.06	3.6340	3.6340	1.0397	25.00	-0.08	0.750			
0.7278	46576.90	3.6310	3.6310	0.9523	25.00	-0.08	0.750			
0.7305	46750.49	3.6280	3.6281	0.8848	25.01	-0.07	0.750			
0.7330	46912.28	3.6250	3.6250	0.8518	25.02	-0.06	0.750			
0.7355	47070.91	3.6220	3.6220	0.8309	25.03	-0.05	0.750			
0.7379	47225.32	3.6190	3.6189	0.8033	25.04	-0.04	0.750			
0.7403	47379.58	3.6160	3.6161	0.7741	25.04	-0.04	0.750			
0.7427	47532.64	3.6130	3.6130	0.7369	25.05	-0.03	0.750			
0.7449	47673.07	3.6100	3.6101	0.6833	25.06	-0.02	0.750			
0.7469	47804.48	3.6070	3.6071	0.6276	25.07	-0.01	0.750			
0.7487	47916.06	3.6040	3.6041	0.5502	25.07	-0.01	0.750			
0.7502	48013.60	3.6010	3.6011	0.4795	25.08	-0.00	0.750			
0.7515	48097.39	3.5980	3.5980	0.4087	25.08	0.00	0.750			
0.7526	48169.14	3.5950	3.5951	0.3426	25.08	0.00	0.750			
0.7536	48229.34	3.5920	3.5920	0.2792	25.09	0.01	0.750			
0.7543	48276.22	3.5890	3.5890	0.2126	25.09	0.01	0.750			
0.7549	48311.13	3.5860	3.5863	0.1491	25.09	0.01	0.750			
0.7552	48333.91	3.5830	3.5839	0.0829	25.09	0.01	0.750			
