Ah_balance (normalized)	Ah_balance (mAh)	Voltage - fit (V)	Voltage -  interpolate (V)	dQ/dV (1/V)	Temperature (°C)	Temperature - diff (°C)	Current (C)	R_DC 0ms (mOhm)	R_DC 50ms (mOhm)	R_DC 50 ms PEC (mOhm)
0.0483	3092.90	4.1970	4.1971	0.7475	25.79	0.67	0.750			
0.0507	3244.68	4.1940	4.1938	0.7714	25.79	0.67	0.750			
0.0528	3382.24	4.1910	4.1910	0.7416	25.79	0.67	0.750			
0.0550	3519.88	4.1880	4.1881	0.7440	25.79	0.67	0.750			
0.0572	3662.19	4.1850	4.1852	0.7473	25.79	0.67	0.750			
0.0595	3804.92	4.1820	4.1822	0.7498	25.79	0.67	0.750			
0.0617	3950.49	4.1790	4.1791	0.7570	25.79	0.67	0.750			
0.0640	4098.07	4.1760	4.1762	0.7571	25.79	0.67	0.750			
0.0663	4246.25	4.1730	4.1730	0.7602	25.79	0.67	0.750			
0.0686	4389.53	4.1700	4.1701	0.7548	25.79	0.67	0.750			
0.0709	4534.66	4.1670	4.1664	0.7576	25.79	0.67	0.750			
0.0731	4680.33	4.1640	4.1640	0.7606	25.79	0.67	0.750			
0.0754	4827.37	4.1610	4.1611	0.7594	25.79	0.67	0.750			
0.0777	4974.26	4.1580	4.1580	0.7672	25.80	0.68	0.750			
0.0800	5122.77	4.1550	4.1550	0.7668	25.80	0.68	0.750			
0.0823	5268.16	4.1520	4.1520	0.7618	25.80	0.68	0.750			
0.0846	5413.77	4.1490	4.1491	0.7620	25.80	0.68	0.750			
0.0869	5563.11	4.1460	4.1460	0.7570	25.80	0.68	0.750			
0.0892	5706.04	4.1430	4.1430	0.7623	25.80	0.68	0.750			
0.0914	5852.17	4.1400	4.1400	0.7646	25.81	0.69	0.750			
0.0937	5996.96	4.1370	4.1371	0.7668	25.81	0.69	0.750			
0.0960	6145.06	4.1340	4.1333	0.7783	25.81	0.69	0.750			
0.0984	6296.14	4.1310	4.1311	0.7821	25.81	0.69	0.750			
0.1008	6448.92	4.1280	4.1280	0.7783	25.81	0.69	0.750			
0.1031	6599.22	4.1250	4.1250	0.7797	25.81	0.69	0.750			
0.1054	6747.44	4.1220	4.1221	0.7766	25.81	0.69	0.750			
0.1078	6896.90	4.1190	4.1187	0.7783	25.81	0.69	0.750			
0.1101	7044.75	4.1160	4.1160	0.7805	25.81	0.69	0.750			
0.1124	7194.97	4.1130	4.1131	0.7773	25.82	0.70	0.750			
0.1148	7345.61	4.1100	4.1100	0.7827	25.82	0.70	0.750			
0.1172	7498.87	4.1070	4.1069	0.7866	25.82	0.70	0.750			
0.1195	7646.99	4.1040	4.1042	0.7840	25.83	0.71	0.750			
0.1218	7794.37	4.1010	4.1010	0.8015	25.83	0.71	0.750			
0.1242	7951.44	4.0980	4.0979	0.8082	25.84	0.72	0.750			
0.1267	8107.64	4.0950	4.0949	0.8210	25.84	0.72	0.750			
0.1292	8269.58	4.0920	4.0920	0.8346	25.84	0.72	0.750			
0.1317	8431.15	4.0890	4.0892	0.8293	25.85	0.73	0.750			
0.1343	8593.23	4.0860	4.0859	0.8288	25.85	0.73	0.750			
0.1368	8752.18	4.0830	4.0830	0.8164	25.85	0.73	0.750			
0.1391	8903.46	4.0800	4.0801	0.8023	25.85	0.73	0.750			
0.1415	9058.72	4.0770	4.0770	0.8055	25.85	0.73	0.750			
0.1439	9210.89	4.0740	4.0741	0.8007	25.85	0.73	0.750			
0.1463	9364.38	4.0710	4.0709	0.8047	25.85	0.73	0.750			
0.1488	9520.99	4.0680	4.0680	0.8056	25.85	0.73	0.750			
0.1512	9675.75	4.0650	4.0650	0.8101	25.85	0.73	0.750			
0.1536	9831.62	4.0620	4.0620	0.8166	25.86	0.74	0.750			
0.1561	9988.90	4.0590	4.0590	0.8179	25.86	0.74	0.750			
0.1585	10146.04	4.0560	4.0558	0.8202	25.86	0.74	0.750			
0.1610	10304.31	4.0530	4.0531	0.8235	25.86	0.74	0.750			
0.1635	10463.73	4.0500	4.0500	0.8204	25.86	0.74	0.750			
0.1659	10620.48	4.0470	4.0471	0.8254	25.87	0.75	0.750			
0.1684	10776.85	4.0440	4.0440	0.8274	25.87	0.75	0.750			
0.1709	10936.69	4.0410	4.0407	0.8303	25.87	0.75	0.750			
0.1734	11096.86	4.0380	4.0381	0.8345	25.87	0.75	0.750			
0.1759	11257.58	4.0350	4.0351	0.8315	25.87	0.75	0.750			
0.1784	11418.85	4.0320	4.0320	0.8353	25.86	0.74	0.750			
0.1809	11577.05	4.0290	4.0291	0.8348	25.86	0.74	0.750			
0.1834	11737.21	4.0260	4.0257	0.8391	25.86	0.74	0.750			
0.1859	11898.78	4.0230	4.0231	0.8402	25.86	0.74	0.750			
0.1885	12061.47	4.0200	4.0201	0.8484	25.86	0.74	0.750			
0.1910	12226.60	4.0170	4.0170	0.8534	25.87	0.75	0.750			
0.1936	12390.30	4.0140	4.0140	0.8533	25.87	0.75	0.750			
0.1961	12553.25	4.0110	4.0109	0.8573	25.87	0.75	0.750			
0.1988	12720.66	4.0080	4.0080	0.8512	25.87	0.75	0.750			
0.2013	12884.28	4.0050	4.0050	0.8567	25.87	0.75	0.750			
0.2039	13047.38	4.0020	4.0021	0.8619	25.87	0.75	0.750			
0.2064	13212.47	3.9990	3.9991	0.8647	25.87	0.75	0.750			
0.2090	13378.66	3.9960	3.9961	0.8699	25.87	0.75	0.750			
0.2117	13546.88	3.9930	3.9931	0.8704	25.88	0.76	0.750			
0.2143	13714.99	3.9900	3.9900	0.8737	25.88	0.76	0.750			
0.2169	13884.39	3.9870	3.9870	0.8792	25.88	0.76	0.750			
0.2196	14053.02	3.9840	3.9840	0.8738	25.89	0.77	0.750			
0.2222	14220.55	3.9810	3.9810	0.8738	25.89	0.77	0.750			
0.2248	14388.73	3.9780	3.9780	0.8740	25.89	0.77	0.750			
0.2274	14556.15	3.9750	3.9751	0.8757	25.89	0.77	0.750			
0.2301	14725.42	3.9720	3.9719	0.8791	25.89	0.77	0.750			
0.2327	14892.53	3.9690	3.9689	0.8785	25.89	0.77	0.750			
0.2353	15060.53	3.9660	3.9660	0.8811	25.89	0.77	0.750			
0.2380	15231.33	3.9630	3.9630	0.8817	25.89	0.77	0.750			
0.2406	15401.33	3.9600	3.9601	0.8836	25.89	0.77	0.750			
0.2433	15570.57	3.9570	3.9570	0.8863	25.89	0.77	0.750			
0.2459	15740.72	3.9540	3.9538	0.8866	25.89	0.77	0.750			
0.2486	15911.61	3.9510	3.9510	0.8838	25.89	0.77	0.750			
0.2513	16080.64	3.9480	3.9480	0.8861	25.89	0.77	0.750			
0.2539	16250.69	3.9450	3.9451	0.8907	25.89	0.77	0.750			
0.2566	16421.52	3.9420	3.9420	0.8901	25.89	0.77	0.750			
0.2593	16593.40	3.9390	3.9391	0.8900	25.89	0.77	0.750			
0.2619	16764.75	3.9360	3.9360	0.8882	25.88	0.76	0.750			
0.2646	16936.07	3.9330	3.9331	0.8912	25.88	0.76	0.750			
0.2673	17107.31	3.9300	3.9299	0.8902	25.88	0.76	0.750			
0.2699	17276.71	3.9270	3.9270	0.8860	25.87	0.75	0.750			
0.2726	17446.55	3.9240	3.9241	0.8889	25.87	0.75	0.750			
0.2753	17617.55	3.9210	3.9210	0.8865	25.86	0.74	0.750			
0.2779	17788.03	3.9180	3.9180	0.8865	25.86	0.74	0.750			
0.2806	17957.61	3.9150	3.9151	0.8868	25.85	0.73	0.750			
0.2832	18126.55	3.9120	3.9115	0.8880	25.85	0.73	0.750			
0.2859	18298.57	3.9090	3.9091	0.8857	25.85	0.73	0.750			
0.2886	18468.46	3.9060	3.9060	0.8869	25.84	0.72	0.750			
0.2912	18638.62	3.9030	3.9030	0.8880	25.84	0.72	0.750			
0.2939	18810.73	3.9000	3.8999	0.8892	25.83	0.71	0.750			
0.2965	18979.16	3.8970	3.8971	0.8885	25.83	0.71	0.750			
0.2992	19150.48	3.8940	3.8940	0.8857	25.82	0.70	0.750			
0.3019	19319.96	3.8910	3.8910	0.8885	25.82	0.70	0.750			
0.3046	19491.77	3.8880	3.8880	0.8914	25.81	0.69	0.750			
0.3072	19661.34	3.8850	3.8850	0.8900	25.80	0.68	0.750			
0.3099	19832.02	3.8820	3.8821	0.8956	25.80	0.68	0.750			
0.3126	20004.71	3.8790	3.8790	0.8972	25.79	0.67	0.750			
0.3153	20176.22	3.8760	3.8760	0.9035	25.78	0.66	0.750			
0.3180	20352.13	3.8730	3.8730	0.9069	25.78	0.66	0.750			
0.3207	20525.64	3.8700	3.8696	0.9045	25.77	0.65	0.750			
0.3235	20702.99	3.8670	3.8670	0.9000	25.76	0.64	0.750			
0.3261	20873.48	3.8640	3.8640	0.9016	25.75	0.63	0.750			
0.3288	21044.68	3.8610	3.8611	0.9007	25.74	0.62	0.750			
0.3315	21218.20	3.8580	3.8581	0.9030	25.73	0.61	0.750			
0.3342	21389.69	3.8550	3.8549	0.9005	25.72	0.60	0.750			
0.3369	21563.42	3.8520	3.8521	0.9094	25.71	0.59	0.750			
0.3396	21737.17	3.8490	3.8491	0.9204	25.70	0.58	0.750			
0.3424	21915.34	3.8460	3.8460	0.9320	25.69	0.57	0.750			
0.3452	22094.55	3.8430	3.8428	0.9351	25.68	0.56	0.750			
0.3481	22280.18	3.8400	3.8400	0.9358	25.67	0.55	0.750	0.328	0.456	
0.3509	22459.93	3.8370	3.8371	0.9438	25.66	0.54	0.750			
0.3538	22641.84	3.8340	3.8340	0.9480	25.65	0.53	0.750			
0.3566	22820.33	3.8310	3.8311	0.9479	25.64	0.52	0.750			
0.3594	23001.84	3.8280	3.8281	0.9553	25.63	0.51	0.750			
0.3623	23186.65	3.8250	3.8250	0.9594	25.62	0.50	0.750			
0.3652	23372.90	3.8220	3.8220	0.9715	25.61	0.49	0.750			
0.3681	23560.11	3.8190	3.8191	0.9813	25.60	0.48	0.750			
0.3711	23747.99	3.8160	3.8159	0.9867	25.59	0.47	0.750			
0.3740	23938.64	3.8130	3.8130	0.9969	25.58	0.46	0.750			
0.3771	24131.37	3.8100	3.8100	1.0090	25.57	0.45	0.750			
0.3801	24327.21	3.8070	3.8070	1.0231	25.56	0.44	0.750			
0.3832	24523.64	3.8040	3.8039	1.0307	25.55	0.43	0.750			
0.3863	24723.98	3.8010	3.8010	1.0371	25.54	0.42	0.750			
0.3894	24922.85	3.7980	3.7980	1.0530	25.52	0.40	0.750			
0.3926	25124.77	3.7950	3.7951	1.0694	25.51	0.39	0.750			
0.3958	25334.37	3.7920	3.7917	1.0791	25.49	0.37	0.750			
0.3991	25541.19	3.7890	3.7890	1.0997	25.48	0.36	0.750			
0.4024	25753.33	3.7860	3.7860	1.1203	25.47	0.35	0.750			
0.4058	25970.89	3.7830	3.7831	1.1430	25.46	0.34	0.750			
0.4092	26191.84	3.7800	3.7801	1.1586	25.44	0.32	0.750			
0.4127	26415.74	3.7770	3.7771	1.1785	25.42	0.30	0.750			
0.4163	26644.17	3.7740	3.7740	1.1991	25.40	0.28	0.750			
0.4200	26879.76	3.7710	3.7709	1.2135	25.38	0.26	0.750			
0.4236	27111.97	3.7680	3.7681	1.2340	25.37	0.25	0.750			
0.4273	27350.32	3.7650	3.7650	1.2618	25.36	0.24	0.750			
0.4312	27595.82	3.7620	3.7620	1.2841	25.36	0.24	0.750			
0.4351	27844.51	3.7590	3.7590	1.3136	25.34	0.22	0.750			
0.4390	28097.07	3.7560	3.7561	1.3457	25.33	0.21	0.750			
0.4431	28360.21	3.7530	3.7531	1.3749	25.31	0.19	0.750			
0.4473	28630.18	3.7500	3.7500	1.4066	25.30	0.18	0.750			
0.4517	28905.61	3.7470	3.7470	1.3873	25.29	0.17	0.750			
0.4559	29174.68	3.7440	3.7441	1.4197	25.28	0.16	0.750			
0.4601	29446.59	3.7410	3.7412	1.4468	25.26	0.14	0.750			
0.4643	29717.18	3.7380	3.7377	1.4830	25.25	0.13	0.750			
0.4689	30007.71	3.7350	3.7352	1.5134	25.23	0.11	0.750			
0.4734	30298.28	3.7320	3.7320	1.5887	25.21	0.09	0.750			
0.4783	30611.16	3.7290	3.7289	1.6535	25.20	0.08	0.750			
0.4835	30943.07	3.7260	3.7259	1.7368	25.18	0.06	0.750			
0.4888	31284.12	3.7230	3.7230	1.7663	25.16	0.04	0.750			
0.4941	31624.34	3.7200	3.7201	1.7792	25.15	0.03	0.750			
0.4996	31974.66	3.7170	3.7173	1.8707	25.13	0.01	0.750			
0.5052	32333.93	3.7140	3.7142	1.8913	25.12	-0.00	0.750			
0.5111	32708.42	3.7110	3.7110	1.9514	25.10	-0.02	0.750			
0.5170	33085.25	3.7080	3.7082	2.0057	25.09	-0.03	0.750			
0.5231	33478.68	3.7050	3.7050	2.0858	25.07	-0.05	0.750			
0.5294	33879.97	3.7020	3.7019	2.1256	25.05	-0.07	0.750			
0.5359	34297.17	3.6990	3.6990	2.1832	25.04	-0.08	0.750			
0.5427	34731.55	3.6960	3.6960	2.2821	25.02	-0.10	0.750			
0.5497	35179.72	3.6930	3.6932	2.2575	25.01	-0.11	0.750			
0.5564	35609.37	3.6900	3.6901	2.2768	25.00	-0.12	0.750			
0.5631	36041.13	3.6870	3.6870	2.3298	25.00	-0.12	0.750			
0.5702	36490.74	3.6840	3.6841	2.4079	24.99	-0.13	0.750			
0.5777	36970.07	3.6810	3.6806	2.4542	24.98	-0.14	0.750			
0.5849	37430.66	3.6780	3.6784	2.4797	24.98	-0.14	0.750			
0.5923	37910.25	3.6750	3.6747	2.3716	24.98	-0.14	0.750			
0.5996	38376.67	3.6720	3.6726	2.3860	24.98	-0.14	0.750			
0.6065	38818.35	3.6690	3.6691	2.1842	24.97	-0.15	0.750			
0.6130	39230.70	3.6660	3.6665	2.0581	24.97	-0.15	0.750			
0.6190	39617.34	3.6630	3.6633	1.9320	24.98	-0.14	0.750			
0.6244	39960.64	3.6600	3.6601	1.7507	24.99	-0.13	0.750			
0.6295	40288.62	3.6570	3.6570	1.6370	24.99	-0.13	0.750			
0.6343	40592.40	3.6540	3.6540	1.5225	25.00	-0.12	0.750			
0.6387	40873.93	3.6510	3.6513	1.4256	25.01	-0.11	0.750			
0.6425	41122.32	3.6480	3.6480	1.3010	25.01	-0.11	0.750			
0.6463	41363.46	3.6450	3.6450	1.2167	25.02	-0.10	0.750			
0.6498	41586.44	3.6420	3.6420	1.1505	25.03	-0.09	0.750			
0.6531	41798.54	3.6390	3.6391	1.0971	25.03	-0.09	0.750			
0.6563	42002.50	3.6360	3.6361	1.0530	25.04	-0.08	0.750			
0.6594	42199.00	3.6330	3.6331	1.0087	25.04	-0.08	0.750			
0.6624	42390.78	3.6300	3.6299	0.9532	25.05	-0.07	0.750			
0.6651	42569.04	3.6270	3.6271	0.9349	25.06	-0.06	0.750			
0.6679	42745.85	3.6240	3.6240	0.9052	25.07	-0.05	0.750			
0.6706	42916.41	3.6210	3.6204	0.8645	25.08	-0.04	0.750			
0.6731	43079.79	3.6180	3.6183	0.8287	25.09	-0.03	0.750			
0.6756	43237.53	3.6150	3.6151	0.7865	25.10	-0.02	0.750			
0.6779	43386.80	3.6120	3.6120	0.7439	25.10	-0.02	0.750			
0.6801	43525.23	3.6090	3.6090	0.6827	25.11	-0.01	0.750			
0.6821	43652.55	3.6060	3.6061	0.6347	25.12	-0.00	0.750			
0.6839	43770.73	3.6030	3.6030	0.5852	25.12	0.00	0.750			
0.6856	43878.27	3.6000	3.5999	0.5344	25.13	0.01	0.750			
0.6871	43975.18	3.5970	3.5970	0.4837	25.13	0.01	0.750			
0.6885	44063.00	3.5940	3.5940	0.4348	25.14	0.02	0.750			
0.6897	44141.61	3.5910	3.5909	0.3848	25.14	0.02	0.750			
0.6908	44211.75	3.5880	3.5879	0.3373	25.14	0.02	0.750			
0.6917	44271.79	3.5850	3.5851	0.2881	25.15	0.03	0.750			
0.6925	44322.29	3.5820	3.5821	0.2382	25.15	0.03	0.750			
0.6932	44364.17	3.5790	3.5790	0.1875	25.15	0.03	0.750			
0.6937	44395.42	3.5760	3.5761	0.1344	25.15	0.03	0.750			
0.6940	44416.07	3.5730	3.5734	0.0852	25.15	0.03	0.750			
