Ah_balance (normalized)	Ah_balance (mAh)	Voltage - fit (V)	Voltage -  interpolate (V)	dQ/dV (1/V)	Temperature (°C)	Temperature - diff (°C)	Current (C)	R_DC 0ms (mOhm)	R_DC 50ms (mOhm)	R_DC 50 ms PEC (mOhm)
0.0442	2830.96	4.1950	4.1979	1.6242	25.59	0.77	0.671			
0.0486	3112.74	4.1920	4.1953	1.4024	25.59	0.77	0.751			
0.0522	3339.30	4.1890	4.1911	1.2186	25.59	0.77	0.750			
0.0532	3401.61	4.1980	4.1897	149.9126	25.59	0.77	0.750			
0.0560	3585.62	4.1860	4.1860	0.7663	25.59	0.77	0.750			
0.0583	3731.06	4.1830	4.1831	0.7647	25.59	0.77	0.750			
0.0606	3875.59	4.1800	4.1799	0.7648	25.59	0.77	0.750			
0.0629	4023.27	4.1770	4.1770	0.7661	25.59	0.77	0.750			
0.0652	4171.27	4.1740	4.1740	0.7649	25.58	0.76	0.750			
0.0675	4318.51	4.1710	4.1711	0.7648	25.58	0.76	0.750			
0.0698	4465.27	4.1680	4.1681	0.7598	25.58	0.76	0.750			
0.0720	4609.58	4.1650	4.1651	0.7636	25.57	0.75	0.750			
0.0743	4753.81	4.1620	4.1621	0.7648	25.57	0.75	0.750			
0.0766	4901.41	4.1590	4.1587	0.7739	25.57	0.75	0.750			
0.0789	5052.28	4.1560	4.1561	0.7797	25.57	0.75	0.750			
0.0813	5203.15	4.1530	4.1530	0.7844	25.58	0.76	0.750			
0.0837	5357.02	4.1500	4.1501	0.7874	25.58	0.76	0.750			
0.0861	5509.31	4.1470	4.1469	0.7858	25.58	0.76	0.750			
0.0884	5656.55	4.1440	4.1440	0.7776	25.58	0.76	0.750			
0.0907	5806.54	4.1410	4.1410	0.7757	25.58	0.76	0.750			
0.0930	5953.91	4.1380	4.1380	0.7755	25.57	0.75	0.750			
0.0954	6102.66	4.1350	4.1350	0.7765	25.57	0.75	0.750			
0.0977	6250.67	4.1320	4.1320	0.7785	25.57	0.75	0.750			
0.1000	6400.66	4.1290	4.1290	0.7838	25.57	0.75	0.750			
0.1024	6554.01	4.1260	4.1259	0.7832	25.57	0.75	0.750			
0.1047	6703.64	4.1230	4.1230	0.7882	25.57	0.75	0.750			
0.1071	6856.57	4.1200	4.1200	0.7882	25.57	0.75	0.750			
0.1095	7008.41	4.1170	4.1170	0.7784	25.57	0.75	0.750			
0.1118	7155.35	4.1140	4.1139	0.7867	25.57	0.75	0.750			
0.1142	7305.68	4.1110	4.1112	0.7903	25.57	0.75	0.750			
0.1165	7458.27	4.1080	4.1078	0.7917	25.57	0.75	0.750			
0.1189	7611.13	4.1050	4.1051	0.7978	25.57	0.75	0.750			
0.1213	7764.14	4.1020	4.1021	0.7954	25.57	0.75	0.750			
0.1237	7919.41	4.0990	4.0989	0.8017	25.57	0.75	0.750			
0.1262	8074.90	4.0960	4.0960	0.8052	25.57	0.75	0.750			
0.1285	8226.78	4.0930	4.0930	0.7941	25.57	0.75	0.750			
0.1309	8380.43	4.0900	4.0900	0.8027	25.57	0.75	0.750			
0.1334	8534.91	4.0870	4.0871	0.8072	25.57	0.75	0.750			
0.1358	8688.56	4.0840	4.0839	0.8097	25.57	0.75	0.750			
0.1382	8845.38	4.0810	4.0810	0.8125	25.57	0.75	0.750			
0.1407	9003.41	4.0780	4.0780	0.8079	25.57	0.75	0.750			
0.1431	9158.13	4.0750	4.0750	0.8134	25.57	0.75	0.750			
0.1455	9314.71	4.0720	4.0721	0.8219	25.57	0.75	0.750			
0.1480	9470.87	4.0690	4.0689	0.8197	25.57	0.75	0.750			
0.1505	9628.86	4.0660	4.0661	0.8228	25.57	0.75	0.750			
0.1529	9788.25	4.0630	4.0631	0.8228	25.57	0.75	0.750			
0.1554	9947.00	4.0600	4.0601	0.8284	25.57	0.75	0.750			
0.1579	10107.30	4.0570	4.0569	0.8318	25.57	0.75	0.750			
0.1604	10264.93	4.0540	4.0540	0.8296	25.57	0.75	0.750			
0.1629	10424.06	4.0510	4.0511	0.8309	25.57	0.75	0.750			
0.1654	10585.86	4.0480	4.0480	0.8328	25.57	0.75	0.750			
0.1679	10744.39	4.0450	4.0450	0.8411	25.57	0.75	0.750			
0.1704	10907.48	4.0420	4.0420	0.8428	25.57	0.75	0.750			
0.1730	11070.51	4.0390	4.0389	0.8356	25.57	0.75	0.750			
0.1755	11231.50	4.0360	4.0361	0.8308	25.57	0.75	0.750			
0.1780	11391.86	4.0330	4.0331	0.8232	25.57	0.75	0.750			
0.1804	11545.69	4.0300	4.0301	0.8277	25.57	0.75	0.750			
0.1828	11701.27	4.0270	4.0269	0.8331	25.57	0.75	0.750			
0.1853	11859.65	4.0240	4.0240	0.8324	25.57	0.75	0.750			
0.1879	12023.02	4.0210	4.0210	0.8462	25.57	0.75	0.750			
0.1905	12190.21	4.0180	4.0181	0.8614	25.57	0.75	0.750			
0.1930	12352.98	4.0150	4.0151	0.8735	25.57	0.75	0.750			
0.1957	12521.77	4.0120	4.0119	0.8879	25.57	0.75	0.750			
0.1983	12692.30	4.0090	4.0089	0.8884	25.57	0.75	0.750			
0.2010	12864.19	4.0060	4.0058	0.8964	25.57	0.75	0.750			
0.2038	13040.69	4.0030	4.0032	0.8957	25.57	0.75	0.750			
0.2065	13215.11	4.0000	4.0000	0.8935	25.57	0.75	0.750			
0.2091	13383.42	3.9970	3.9970	0.8873	25.57	0.75	0.750			
0.2118	13552.12	3.9940	3.9938	0.8813	25.57	0.75	0.750			
0.2144	13718.92	3.9910	3.9910	0.8734	25.57	0.75	0.750			
0.2170	13886.53	3.9880	3.9881	0.8801	25.57	0.75	0.750			
0.2196	14055.92	3.9850	3.9850	0.8859	25.58	0.76	0.750			
0.2223	14225.51	3.9820	3.9820	0.8850	25.58	0.76	0.750			
0.2250	14397.01	3.9790	3.9791	0.8920	25.58	0.76	0.750			
0.2276	14568.72	3.9760	3.9761	0.8933	25.58	0.76	0.750			
0.2303	14742.30	3.9730	3.9730	0.8977	25.57	0.75	0.750			
0.2330	14915.14	3.9700	3.9700	0.8991	25.57	0.75	0.750			
0.2357	15085.89	3.9670	3.9669	0.8940	25.57	0.75	0.750			
0.2384	15257.98	3.9640	3.9641	0.8982	25.57	0.75	0.750			
0.2411	15431.40	3.9610	3.9610	0.8975	25.57	0.75	0.750			
0.2438	15602.90	3.9580	3.9580	0.8992	25.57	0.75	0.750			
0.2465	15775.96	3.9550	3.9550	0.9009	25.57	0.75	0.750			
0.2492	15948.40	3.9520	3.9519	0.9015	25.57	0.75	0.750			
0.2519	16124.66	3.9490	3.9490	0.8944	25.57	0.75	0.750			
0.2546	16294.64	3.9460	3.9460	0.9011	25.57	0.75	0.750			
0.2573	16466.48	3.9430	3.9431	0.9054	25.57	0.75	0.750			
0.2600	16640.20	3.9400	3.9402	0.9160	25.57	0.75	0.750			
0.2627	16815.38	3.9370	3.9369	0.9168	25.57	0.75	0.750			
0.2655	16993.50	3.9340	3.9341	0.9168	25.57	0.75	0.750			
0.2683	17171.24	3.9310	3.9311	0.9195	25.57	0.75	0.750			
0.2711	17348.64	3.9280	3.9281	0.9195	25.57	0.75	0.750			
0.2738	17523.57	3.9250	3.9249	0.9139	25.57	0.75	0.750			
0.2765	17698.78	3.9220	3.9220	0.9106	25.57	0.75	0.750			
0.2793	17872.74	3.9190	3.9190	0.9157	25.57	0.75	0.750			
0.2820	18050.19	3.9160	3.9160	0.9224	25.56	0.74	0.750			
0.2848	18226.59	3.9130	3.9130	0.9232	25.56	0.74	0.750			
0.2876	18405.02	3.9100	3.9100	0.9252	25.56	0.74	0.750			
0.2904	18584.50	3.9070	3.9070	0.9206	25.56	0.74	0.750			
0.2931	18759.27	3.9040	3.9041	0.9256	25.55	0.73	0.750			
0.2959	18936.48	3.9010	3.9011	0.9291	25.55	0.73	0.750			
0.2987	19113.99	3.8980	3.8977	0.9294	25.55	0.73	0.750			
0.3015	19293.29	3.8950	3.8951	0.9338	25.55	0.73	0.750			
0.3043	19473.97	3.8920	3.8920	0.9334	25.54	0.72	0.750			
0.3071	19656.34	3.8890	3.8890	0.9388	25.54	0.72	0.750			
0.3099	19834.40	3.8860	3.8860	0.9333	25.53	0.71	0.750			
0.3127	20012.35	3.8830	3.8830	0.9330	25.53	0.71	0.750			
0.3155	20192.07	3.8800	3.8800	0.9318	25.52	0.70	0.750			
0.3183	20370.75	3.8770	3.8770	0.9351	25.51	0.69	0.750			
0.3211	20550.46	3.8740	3.8741	0.9404	25.50	0.68	0.750			
0.3239	20731.33	3.8710	3.8709	0.9460	25.49	0.67	0.750			
0.3268	20914.82	3.8680	3.8680	0.9383	25.49	0.67	0.750			
0.3296	21094.14	3.8650	3.8650	0.9464	25.48	0.66	0.750			
0.3324	21276.31	3.8620	3.8621	0.9525	25.48	0.66	0.750			
0.3353	21458.88	3.8590	3.8591	0.9558	25.47	0.65	0.750			
0.3382	21644.17	3.8560	3.8561	0.9549	25.46	0.64	0.750			
0.3410	21825.01	3.8530	3.8531	0.9650	25.46	0.64	0.750			
0.3439	22011.80	3.8500	3.8500	0.9753	25.45	0.63	0.750			
0.3469	22202.77	3.8470	3.8470	0.9827	25.44	0.62	0.750			
0.3498	22389.46	3.8440	3.8439	0.9792	25.43	0.61	0.750			
0.3528	22578.66	3.8410	3.8412	0.9766	25.42	0.60	0.750			
0.3557	22766.18	3.8380	3.8380	0.9797	25.41	0.59	0.750			
0.3586	22953.35	3.8350	3.8351	0.9879	25.40	0.58	0.750			
0.3616	23140.03	3.8320	3.8316	0.9922	25.39	0.57	0.750			
0.3646	23332.00	3.8290	3.8290	0.9982	25.39	0.57	0.750			
0.3676	23525.32	3.8260	3.8261	1.0089	25.38	0.56	0.750			
0.3706	23721.54	3.8230	3.8230	1.0229	25.38	0.56	0.750			
0.3737	23917.65	3.8200	3.8197	1.0248	25.37	0.55	0.750			
0.3768	24115.42	3.8170	3.8170	1.0333	25.36	0.54	0.750			
0.3799	24316.31	3.8140	3.8140	1.0330	25.35	0.53	0.750			
0.3831	24517.11	3.8110	3.8110	1.0335	25.33	0.51	0.750			
0.3862	24716.32	3.8080	3.8078	1.0374	25.32	0.50	0.750			
0.3892	24910.19	3.8050	3.8052	1.0387	25.31	0.49	0.750			
0.3923	25106.07	3.8020	3.8020	1.0578	25.30	0.48	0.750			
0.3954	25308.30	3.7990	3.7990	1.0780	25.29	0.47	0.750			
0.3987	25518.02	3.7960	3.7957	1.1065	25.28	0.46	0.750			
0.4021	25736.78	3.7930	3.7931	1.1195	25.27	0.45	0.750			
0.4055	25950.77	3.7900	3.7901	1.1419	25.26	0.44	0.750			
0.4089	26171.06	3.7870	3.7872	1.1621	25.26	0.44	0.750			
0.4124	26394.01	3.7840	3.7841	1.1681	25.25	0.43	0.750			
0.4160	26621.53	3.7810	3.7812	1.1901	25.24	0.42	0.750			
0.4196	26854.50	3.7780	3.7781	1.2053	25.23	0.41	0.750			
0.4233	27092.01	3.7750	3.7749	1.2241	25.22	0.40	0.750			
0.4269	27323.28	3.7720	3.7721	1.2296	25.21	0.39	0.750			
0.4306	27561.21	3.7690	3.7690	1.2526	25.19	0.37	0.750			
0.4345	27808.75	3.7660	3.7659	1.2635	25.18	0.36	0.750			
0.4383	28050.93	3.7630	3.7631	1.2982	25.16	0.34	0.750			
0.4422	28298.76	3.7600	3.7601	1.3342	25.15	0.33	0.750			
0.4462	28558.72	3.7570	3.7571	1.3674	25.14	0.32	0.750			
0.4503	28822.38	3.7540	3.7542	1.4019	25.13	0.31	0.750			
0.4546	29095.87	3.7510	3.7511	1.4374	25.12	0.30	0.750			
0.4591	29379.27	3.7480	3.7481	1.4764	25.11	0.29	0.750			
0.4635	29665.04	3.7450	3.7450	1.4811	25.09	0.27	0.750			
0.4679	29944.47	3.7420	3.7422	1.5023	25.08	0.26	0.750			
0.4725	30237.62	3.7390	3.7390	1.5303	25.06	0.24	0.750			
0.4771	30531.40	3.7360	3.7357	1.5808	25.05	0.23	0.750			
0.4818	30837.89	3.7330	3.7327	1.6375	25.03	0.21	0.750			
0.4869	31159.97	3.7300	3.7298	1.7037	25.02	0.20	0.750			
0.4922	31503.02	3.7270	3.7270	1.7761	25.00	0.18	0.750			
0.4975	31841.31	3.7240	3.7240	1.7961	24.98	0.16	0.750			
0.5030	32191.22	3.7210	3.7209	1.8437	24.97	0.15	0.750			
0.5086	32549.15	3.7180	3.7180	1.9149	24.95	0.13	0.750			
0.5145	32925.08	3.7150	3.7145	1.9847	24.94	0.12	0.750			
0.5205	33309.37	3.7120	3.7118	2.0840	24.93	0.11	0.750			
0.5269	33718.53	3.7090	3.7091	2.1569	24.91	0.09	0.750			
0.5337	34156.34	3.7060	3.7056	2.2197	24.89	0.07	0.750			
0.5403	34578.71	3.7030	3.7031	2.2357	24.87	0.05	0.750			
0.5469	35002.23	3.7000	3.7002	2.2383	24.85	0.03	0.750			
0.5537	35438.17	3.6970	3.6967	2.3366	24.83	0.01	0.750			
0.5606	35881.19	3.6940	3.6937	2.3766	24.82	0.00	0.750			
0.5680	36352.39	3.6910	3.6911	2.5094	24.80	-0.02	0.750			
0.5757	36847.07	3.6880	3.6879	2.5307	24.78	-0.04	0.750			
0.5833	37330.53	3.6850	3.6853	2.5289	24.77	-0.05	0.750			
0.5910	37826.69	3.6820	3.6820	2.5882	24.75	-0.07	0.750			
0.5989	38330.27	3.6790	3.6786	2.6622	24.74	-0.08	0.750			
0.6071	38857.20	3.6760	3.6759	2.7165	24.73	-0.09	0.750			
0.6154	39387.73	3.6730	3.6730	2.7180	24.72	-0.10	0.750			
0.6237	39918.61	3.6700	3.6700	2.6699	24.72	-0.10	0.750			
0.6315	40415.02	3.6670	3.6672	2.4807	24.72	-0.10	0.750			
0.6386	40870.50	3.6640	3.6643	2.2908	24.72	-0.10	0.750			
0.6453	41301.92	3.6610	3.6609	2.1291	24.72	-0.10	0.750			
0.6514	41692.76	3.6580	3.6581	1.9661	24.72	-0.10	0.750			
0.6571	42056.19	3.6550	3.6552	1.8753	24.72	-0.10	0.750			
0.6624	42396.07	3.6520	3.6516	1.6651	24.72	-0.10	0.750			
0.6667	42667.34	3.6490	3.6492	1.4524	24.73	-0.09	0.750			
0.6707	42926.07	3.6460	3.6462	1.3403	24.73	-0.09	0.750			
0.6746	43175.04	3.6430	3.6427	1.2602	24.74	-0.08	0.750			
0.6781	43400.24	3.6400	3.6400	1.1673	24.75	-0.07	0.750			
0.6815	43617.43	3.6370	3.6371	1.1078	24.75	-0.07	0.750			
0.6848	43826.55	3.6340	3.6341	1.0574	24.76	-0.06	0.750			
0.6879	44023.22	3.6310	3.6310	0.9988	24.76	-0.06	0.750			
0.6908	44211.07	3.6280	3.6280	0.9501	24.77	-0.05	0.750			
0.6935	44385.11	3.6250	3.6250	0.9010	24.77	-0.05	0.750			
0.6962	44554.51	3.6220	3.6220	0.8578	24.78	-0.04	0.750			
0.6987	44715.85	3.6190	3.6187	0.8143	24.78	-0.04	0.750			
0.7011	44869.92	3.6160	3.6159	0.7667	24.79	-0.03	0.750			
0.7033	45012.71	3.6130	3.6131	0.7142	24.79	-0.03	0.750			
0.7054	45148.28	3.6100	3.6099	0.6537	24.80	-0.02	0.750			
0.7073	45267.21	3.6070	3.6070	0.5983	24.81	-0.01	0.750			
0.7090	45373.09	3.6040	3.6041	0.5357	24.81	-0.01	0.750			
0.7105	45469.59	3.6010	3.6011	0.4863	24.82	-0.00	0.750			
0.7118	45556.69	3.5980	3.5978	0.4356	24.82	0.00	0.750			
0.7131	45635.90	3.5950	3.5951	0.3888	24.83	0.01	0.750			
0.7142	45707.44	3.5920	3.5920	0.3405	24.83	0.01	0.750			
0.7152	45769.94	3.5890	3.5891	0.2927	24.83	0.01	0.750			
0.7159	45820.73	3.5860	3.5861	0.2370	24.83	0.01	0.750			
0.7166	45862.16	3.5830	3.5830	0.1806	24.84	0.02	0.750			
0.7171	45891.26	3.5800	3.5801	0.1212	24.84	0.02	0.750			
