Ah_balance (normalized)	Ah_balance (mAh)	Voltage - fit (V)	Voltage -  interpolate (V)	dQ/dV (1/V)	Temperature (°C)	Temperature - diff (°C)	Current (C)	R_DC 0ms (mOhm)	R_DC 50ms (mOhm)	R_DC 50 ms PEC (mOhm)
0.0482	3082.48	4.1980	4.1980	0.7353	25.70	0.53	0.750			
0.0504	3224.39	4.1950	4.1949	0.7413	25.71	0.54	0.750			
0.0526	3367.89	4.1920	4.1921	0.7454	25.71	0.54	0.750			
0.0549	3511.42	4.1890	4.1890	0.7455	25.71	0.54	0.750			
0.0571	3654.80	4.1860	4.1860	0.7484	25.71	0.54	0.750			
0.0594	3799.81	4.1830	4.1830	0.7421	25.71	0.54	0.750			
0.0616	3940.40	4.1800	4.1800	0.7433	25.72	0.55	0.750			
0.0638	4083.04	4.1770	4.1770	0.7465	25.72	0.55	0.750			
0.0660	4224.99	4.1740	4.1741	0.7514	25.72	0.55	0.750			
0.0683	4370.11	4.1710	4.1711	0.7552	25.72	0.55	0.750			
0.0706	4516.60	4.1680	4.1680	0.7595	25.72	0.55	0.750			
0.0729	4663.02	4.1650	4.1650	0.7563	25.72	0.55	0.750			
0.0752	4810.04	4.1620	4.1620	0.7610	25.73	0.56	0.750			
0.0774	4953.33	4.1590	4.1591	0.7591	25.73	0.56	0.750			
0.0797	5098.90	4.1560	4.1556	0.7621	25.73	0.56	0.750			
0.0819	5244.27	4.1530	4.1531	0.7615	25.73	0.56	0.750			
0.0843	5392.93	4.1500	4.1500	0.7643	25.73	0.56	0.750			
0.0866	5541.20	4.1470	4.1471	0.7673	25.74	0.57	0.750			
0.0889	5688.00	4.1440	4.1440	0.7729	25.74	0.57	0.750			
0.0912	5833.89	4.1410	4.1410	0.7704	25.74	0.57	0.750			
0.0935	5982.62	4.1380	4.1379	0.7726	25.74	0.57	0.750			
0.0958	6131.31	4.1350	4.1351	0.7741	25.74	0.57	0.750			
0.0981	6280.56	4.1320	4.1320	0.7649	25.74	0.57	0.750			
0.1004	6427.05	4.1290	4.1291	0.7659	25.75	0.58	0.750			
0.1027	6570.24	4.1260	4.1261	0.7646	25.75	0.58	0.750			
0.1049	6716.72	4.1230	4.1227	0.7683	25.75	0.58	0.750			
0.1073	6864.32	4.1200	4.1201	0.7752	25.75	0.58	0.750			
0.1097	7018.13	4.1170	4.1170	0.7595	25.75	0.58	0.750			
0.1120	7165.57	4.1140	4.1141	0.7726	25.75	0.58	0.750			
0.1142	7310.96	4.1110	4.1111	0.7734	25.75	0.58	0.750			
0.1165	7457.21	4.1080	4.1083	0.7773	25.75	0.58	0.750			
0.1189	7608.33	4.1050	4.1052	0.7826	25.75	0.58	0.750			
0.1213	7760.03	4.1020	4.1021	0.7888	25.75	0.58	0.750			
0.1236	7913.52	4.0990	4.0991	0.7914	25.76	0.59	0.750			
0.1261	8072.17	4.0960	4.0960	0.8018	25.76	0.59	0.750			
0.1284	8218.62	4.0930	4.0929	0.7869	25.76	0.59	0.750			
0.1308	8370.00	4.0900	4.0900	0.7902	25.76	0.59	0.750			
0.1332	8523.05	4.0870	4.0870	0.7884	25.76	0.59	0.750			
0.1355	8674.45	4.0840	4.0840	0.7922	25.76	0.59	0.750			
0.1379	8825.95	4.0810	4.0810	0.7977	25.77	0.60	0.750			
0.1403	8979.10	4.0780	4.0781	0.8013	25.77	0.60	0.750			
0.1427	9133.38	4.0750	4.0750	0.8022	25.77	0.60	0.750			
0.1451	9288.07	4.0720	4.0720	0.8064	25.77	0.60	0.750			
0.1476	9443.53	4.0690	4.0691	0.8005	25.77	0.60	0.750			
0.1499	9596.23	4.0660	4.0661	0.8019	25.77	0.60	0.750			
0.1523	9747.23	4.0630	4.0631	0.8046	25.77	0.60	0.750			
0.1547	9902.21	4.0600	4.0592	0.8111	25.77	0.60	0.750			
0.1572	10059.34	4.0570	4.0572	0.8149	25.77	0.60	0.750			
0.1596	10217.46	4.0540	4.0541	0.8218	25.77	0.60	0.750			
0.1622	10379.42	4.0510	4.0511	0.8292	25.77	0.60	0.750			
0.1646	10536.83	4.0480	4.0480	0.8174	25.77	0.60	0.750			
0.1671	10694.47	4.0450	4.0449	0.8222	25.77	0.60	0.750			
0.1696	10851.73	4.0420	4.0421	0.8242	25.77	0.60	0.750			
0.1721	11012.17	4.0390	4.0390	0.8220	25.78	0.61	0.750			
0.1745	11168.22	4.0360	4.0361	0.8254	25.78	0.61	0.750			
0.1770	11326.06	4.0330	4.0331	0.8273	25.79	0.62	0.750			
0.1794	11484.75	4.0300	4.0297	0.8328	25.79	0.62	0.750			
0.1819	11644.73	4.0270	4.0271	0.8384	25.79	0.62	0.750			
0.1845	11806.67	4.0240	4.0241	0.8337	25.79	0.62	0.750			
0.1870	11967.39	4.0210	4.0211	0.8413	25.79	0.62	0.750			
0.1895	12127.68	4.0180	4.0181	0.8422	25.79	0.62	0.750			
0.1920	12289.40	4.0150	4.0141	0.8487	25.79	0.62	0.750			
0.1946	12454.12	4.0120	4.0123	0.8507	25.79	0.62	0.750			
0.1972	12618.11	4.0090	4.0091	0.8586	25.79	0.62	0.750			
0.1998	12787.32	4.0060	4.0060	0.8674	25.80	0.63	0.750			
0.2024	12956.62	4.0030	4.0030	0.8748	25.80	0.63	0.750			
0.2050	13118.91	4.0000	4.0000	0.8621	25.80	0.63	0.750			
0.2076	13286.84	3.9970	3.9970	0.8554	25.80	0.63	0.750			
0.2101	13449.57	3.9940	3.9941	0.8560	25.80	0.63	0.750			
0.2127	13612.50	3.9910	3.9910	0.8579	25.79	0.62	0.750			
0.2152	13775.14	3.9880	3.9881	0.8603	25.79	0.62	0.750			
0.2178	13940.57	3.9850	3.9849	0.8653	25.79	0.62	0.750			
0.2205	14110.17	3.9820	3.9820	0.8591	25.79	0.62	0.750			
0.2231	14276.07	3.9790	3.9791	0.8691	25.79	0.62	0.750			
0.2257	14443.37	3.9760	3.9761	0.8725	25.79	0.62	0.750			
0.2283	14609.58	3.9730	3.9731	0.8726	25.79	0.62	0.750			
0.2309	14776.05	3.9700	3.9701	0.8728	25.79	0.62	0.750			
0.2335	14945.09	3.9670	3.9671	0.8735	25.79	0.62	0.750			
0.2362	15114.46	3.9640	3.9641	0.8802	25.79	0.62	0.750			
0.2388	15284.93	3.9610	3.9610	0.8813	25.79	0.62	0.750			
0.2414	15452.35	3.9580	3.9579	0.8745	25.79	0.62	0.750			
0.2441	15619.55	3.9550	3.9551	0.8759	25.79	0.62	0.750			
0.2467	15788.78	3.9520	3.9520	0.8686	25.79	0.62	0.750			
0.2493	15955.59	3.9490	3.9490	0.8726	25.78	0.61	0.750			
0.2519	16122.10	3.9460	3.9461	0.8695	25.78	0.61	0.750			
0.2545	16288.24	3.9430	3.9425	0.8727	25.78	0.61	0.750			
0.2571	16455.12	3.9400	3.9401	0.8803	25.78	0.61	0.750			
0.2598	16624.57	3.9370	3.9370	0.8802	25.78	0.61	0.750			
0.2624	16794.55	3.9340	3.9340	0.8870	25.77	0.60	0.750			
0.2651	16964.87	3.9310	3.9311	0.8844	25.77	0.60	0.750			
0.2678	17136.69	3.9280	3.9281	0.8874	25.77	0.60	0.750			
0.2704	17308.74	3.9250	3.9251	0.8856	25.76	0.59	0.750			
0.2731	17478.86	3.9220	3.9220	0.8791	25.76	0.59	0.750			
0.2757	17647.77	3.9190	3.9190	0.8754	25.76	0.59	0.750			
0.2783	17813.13	3.9160	3.9161	0.8661	25.75	0.58	0.750			
0.2809	17979.08	3.9130	3.9129	0.8684	25.75	0.58	0.750			
0.2835	18146.52	3.9100	3.9100	0.8617	25.74	0.57	0.750			
0.2861	18311.11	3.9070	3.9070	0.8670	25.73	0.56	0.750			
0.2887	18477.99	3.9040	3.9040	0.8724	25.73	0.56	0.750			
0.2913	18645.05	3.9010	3.9009	0.8779	25.72	0.55	0.750			
0.2940	18814.59	3.8980	3.8981	0.8800	25.72	0.55	0.750			
0.2966	18984.90	3.8950	3.8950	0.8732	25.71	0.54	0.750			
0.2993	19152.77	3.8920	3.8921	0.8710	25.70	0.53	0.750			
0.3019	19319.64	3.8890	3.8892	0.8763	25.70	0.53	0.750			
0.3045	19485.56	3.8860	3.8850	0.8734	25.69	0.52	0.750			
0.3071	19652.81	3.8830	3.8831	0.8751	25.69	0.52	0.750			
0.3097	19819.67	3.8800	3.8801	0.8778	25.68	0.51	0.750			
0.3124	19990.41	3.8770	3.8771	0.8843	25.68	0.51	0.750			
0.3151	20164.49	3.8740	3.8740	0.8920	25.67	0.50	0.750			
0.3177	20332.68	3.8710	3.8710	0.8881	25.67	0.50	0.750			
0.3204	20506.10	3.8680	3.8679	0.8718	25.66	0.49	0.750			
0.3230	20672.61	3.8650	3.8651	0.8792	25.65	0.48	0.750			
0.3256	20839.27	3.8620	3.8621	0.8839	25.64	0.47	0.750			
0.3282	21007.54	3.8590	3.8591	0.8903	25.63	0.46	0.750			
0.3309	21178.58	3.8560	3.8562	0.8935	25.63	0.46	0.750			
0.3336	21352.00	3.8530	3.8531	0.8896	25.62	0.45	0.750			
0.3363	21522.70	3.8500	3.8500	0.9102	25.61	0.44	0.750			
0.3391	21699.78	3.8470	3.8471	0.9230	25.60	0.43	0.750			
0.3418	21876.12	3.8440	3.8432	0.9235	25.59	0.42	0.750	0.312	0.467	
0.3446	22055.57	3.8410	3.8411	0.9312	25.58	0.41	0.750			
0.3475	22237.08	3.8380	3.8381	0.9392	25.57	0.40	0.750			
0.3503	22420.78	3.8350	3.8351	0.9429	25.56	0.39	0.750			
0.3531	22600.00	3.8320	3.8320	0.9377	25.55	0.38	0.750			
0.3559	22779.43	3.8290	3.8290	0.9446	25.55	0.38	0.750			
0.3588	22961.92	3.8260	3.8260	0.9380	25.54	0.37	0.750			
0.3615	23138.68	3.8230	3.8230	0.9543	25.53	0.36	0.750			
0.3644	23322.11	3.8200	3.8202	0.9710	25.52	0.35	0.750			
0.3673	23510.03	3.8170	3.8165	0.9826	25.51	0.34	0.750			
0.3703	23701.91	3.8140	3.8140	0.9871	25.50	0.33	0.750			
0.3733	23891.69	3.8110	3.8112	0.9989	25.49	0.32	0.750			
0.3763	24085.69	3.8080	3.8081	1.0162	25.48	0.31	0.750			
0.3794	24278.88	3.8050	3.8042	1.0220	25.47	0.30	0.750			
0.3824	24476.64	3.8020	3.8021	1.0354	25.46	0.29	0.750			
0.3856	24676.55	3.7990	3.7990	1.0512	25.45	0.28	0.750			
0.3888	24882.15	3.7960	3.7961	1.0664	25.43	0.26	0.750			
0.3921	25092.37	3.7930	3.7929	1.0836	25.42	0.25	0.750			
0.3953	25296.91	3.7900	3.7900	1.0767	25.41	0.24	0.750			
0.3985	25501.56	3.7870	3.7871	1.0997	25.39	0.22	0.750			
0.4017	25710.96	3.7840	3.7841	1.1202	25.38	0.21	0.750			
0.4052	25932.82	3.7810	3.7806	1.1301	25.37	0.20	0.750			
0.4086	26148.59	3.7780	3.7782	1.1586	25.36	0.19	0.750			
0.4121	26373.06	3.7750	3.7752	1.1851	25.35	0.18	0.750			
0.4157	26605.29	3.7720	3.7721	1.2080	25.33	0.16	0.750			
0.4193	26836.85	3.7690	3.7691	1.2186	25.32	0.15	0.750			
0.4230	27073.36	3.7660	3.7662	1.2483	25.32	0.15	0.750			
0.4268	27316.84	3.7630	3.7630	1.2755	25.31	0.14	0.750			
0.4308	27568.90	3.7600	3.7599	1.3024	25.30	0.13	0.750			
0.4346	27813.04	3.7570	3.7570	1.3178	25.28	0.11	0.750			
0.4386	28067.99	3.7540	3.7541	1.3499	25.27	0.10	0.750			
0.4427	28330.23	3.7510	3.7511	1.3614	25.26	0.09	0.750			
0.4468	28598.29	3.7480	3.7480	1.3647	25.24	0.07	0.750			
0.4508	28854.28	3.7450	3.7452	1.4245	25.23	0.06	0.750			
0.4553	29137.03	3.7420	3.7414	1.4450	25.22	0.05	0.750			
0.4594	29403.92	3.7390	3.7395	1.5295	25.21	0.04	0.750			
0.4641	29704.76	3.7360	3.7364	1.6116	25.20	0.03	0.750			
0.4692	30030.77	3.7330	3.7332	1.6831	25.19	0.02	0.750			
0.4745	30370.83	3.7300	3.7301	1.7719	25.18	0.01	0.750			
0.4800	30717.01	3.7270	3.7271	1.7734	25.16	-0.01	0.750			
0.4853	31061.92	3.7240	3.7241	1.7853	25.14	-0.03	0.750			
0.4907	31402.66	3.7210	3.7211	1.8010	25.12	-0.05	0.750			
0.4960	31745.95	3.7180	3.7178	1.8439	25.11	-0.06	0.750			
0.5016	32104.13	3.7150	3.7147	1.8772	25.10	-0.07	0.750			
0.5074	32473.91	3.7120	3.7122	1.9936	25.09	-0.08	0.750			
0.5134	32855.55	3.7090	3.7092	2.0197	25.07	-0.10	0.750			
0.5196	33254.42	3.7060	3.7060	2.0589	25.05	-0.12	0.750			
0.5258	33652.08	3.7030	3.7031	2.0785	25.04	-0.13	0.750			
0.5321	34051.39	3.7000	3.7004	1.9955	25.03	-0.14	0.750			
0.5379	34423.80	3.6970	3.6977	2.0474	25.02	-0.15	0.750			
0.5441	34822.03	3.6940	3.6943	2.0730	25.02	-0.15	0.750			
0.5507	35242.80	3.6910	3.6913	2.1636	25.01	-0.16	0.750			
0.5571	35656.32	3.6880	3.6876	2.3298	25.00	-0.17	0.750			
0.5643	36115.28	3.6850	3.6852	2.2723	25.00	-0.17	0.750			
0.5712	36555.84	3.6820	3.6826	2.3420	24.99	-0.18	0.750			
0.5784	37019.73	3.6790	3.6790	2.3693	24.98	-0.19	0.750			
0.5856	37479.87	3.6760	3.6755	2.2863	24.98	-0.19	0.750			
0.5927	37930.30	3.6730	3.6733	2.2213	24.99	-0.18	0.750			
0.5988	38321.37	3.6700	3.6701	2.0484	25.00	-0.17	0.750			
0.6046	38694.89	3.6670	3.6664	1.9478	25.00	-0.17	0.750			
0.6104	39067.98	3.6640	3.6638	1.8654	25.01	-0.16	0.750			
0.6159	39419.85	3.6610	3.6612	1.7575	25.02	-0.15	0.750			
0.6208	39734.21	3.6580	3.6582	1.6042	25.03	-0.14	0.750			
0.6254	40027.11	3.6550	3.6551	1.4662	25.03	-0.14	0.750			
0.6297	40298.60	3.6520	3.6515	1.3438	25.04	-0.13	0.750			
0.6335	40544.24	3.6490	3.6492	1.2673	25.05	-0.12	0.750			
0.6372	40779.92	3.6460	3.6462	1.2062	25.05	-0.12	0.750			
0.6407	41004.43	3.6430	3.6431	1.1496	25.06	-0.11	0.750			
0.6440	41214.66	3.6400	3.6401	1.0801	25.06	-0.11	0.750			
0.6471	41417.52	3.6370	3.6371	1.0369	25.07	-0.10	0.750			
0.6502	41613.47	3.6340	3.6341	1.0021	25.08	-0.09	0.750			
0.6532	41805.22	3.6310	3.6309	0.9711	25.09	-0.08	0.750			
0.6560	41982.07	3.6280	3.6280	0.9200	25.09	-0.08	0.750			
0.6587	42156.49	3.6250	3.6250	0.8787	25.10	-0.07	0.750			
0.6613	42321.90	3.6220	3.6220	0.8483	25.11	-0.06	0.750			
0.6638	42482.25	3.6190	3.6191	0.8128	25.11	-0.06	0.750			
0.6662	42635.18	3.6160	3.6159	0.7735	25.12	-0.05	0.750			
0.6684	42779.85	3.6130	3.6132	0.7295	25.13	-0.04	0.750			
0.6706	42917.21	3.6100	3.6100	0.6847	25.13	-0.04	0.750			
0.6726	43045.58	3.6070	3.6071	0.6367	25.14	-0.03	0.750			
0.6745	43166.64	3.6040	3.6039	0.5833	25.15	-0.02	0.750			
0.6761	43268.54	3.6010	3.6011	0.5281	25.16	-0.01	0.750			
0.6776	43364.53	3.5980	3.5981	0.4793	25.16	-0.01	0.750			
0.6789	43450.98	3.5950	3.5950	0.4338	25.17	-0.00	0.750			
0.6802	43529.70	3.5920	3.5921	0.3871	25.17	0.00	0.750			
0.6813	43601.43	3.5890	3.5891	0.3371	25.18	0.01	0.750			
0.6822	43663.74	3.5860	3.5861	0.2941	25.18	0.01	0.750			
0.6831	43717.19	3.5830	3.5830	0.2441	25.18	0.01	0.750			
0.6837	43757.57	3.5800	3.5801	0.1864	25.19	0.02	0.750			
0.6842	43789.98	3.5770	3.5773	0.1315	25.19	0.02	0.750			
0.6845	43808.84	3.5740	3.5751	0.0766	25.19	0.02	0.750			
0.6847	43818.33	3.5710	3.5731	0.0222	25.19	0.02	0.750			
