Ah_balance (normalized)	Ah_balance (mAh)	Voltage - fit (V)	Voltage -  interpolate (V)	dQ/dV (1/V)	Temperature (°C)	Temperature - diff (°C)	Current (C)	R_DC 0ms (mOhm)	R_DC 50ms (mOhm)	R_DC 50 ms PEC (mOhm)
0.0462	2956.17	4.1990	4.1990	0.6877	25.79	0.67	0.750			
0.0483	3092.38	4.1960	4.1962	0.7247	25.79	0.67	0.750			
0.0506	3235.95	4.1930	4.1932	0.7465	25.79	0.67	0.750			
0.0528	3380.50	4.1900	4.1901	0.7579	25.79	0.67	0.750			
0.0551	3529.11	4.1870	4.1870	0.7581	25.79	0.67	0.750			
0.0574	3674.95	4.1840	4.1840	0.7632	25.79	0.67	0.750			
0.0597	3821.59	4.1810	4.1810	0.7606	25.79	0.67	0.750			
0.0620	3966.72	4.1780	4.1777	0.7633	25.79	0.67	0.750			
0.0643	4113.75	4.1750	4.1750	0.7653	25.79	0.67	0.750			
0.0666	4261.30	4.1720	4.1721	0.7675	25.79	0.67	0.750			
0.0689	4409.47	4.1690	4.1690	0.7585	25.80	0.68	0.750			
0.0711	4552.33	4.1660	4.1661	0.7617	25.80	0.68	0.750			
0.0734	4697.63	4.1630	4.1631	0.7666	25.80	0.68	0.750			
0.0757	4844.72	4.1600	4.1602	0.7685	25.80	0.68	0.750			
0.0780	4992.39	4.1570	4.1571	0.7730	25.80	0.68	0.750			
0.0804	5143.92	4.1540	4.1541	0.7734	25.80	0.68	0.750			
0.0827	5292.63	4.1510	4.1509	0.7761	25.80	0.68	0.750			
0.0850	5439.42	4.1480	4.1481	0.7699	25.80	0.68	0.750			
0.0873	5587.85	4.1450	4.1450	0.7753	25.80	0.68	0.750			
0.0896	5736.47	4.1420	4.1420	0.7810	25.80	0.68	0.750			
0.0920	5889.26	4.1390	4.1390	0.7780	25.80	0.68	0.750			
0.0943	6037.56	4.1360	4.1361	0.7855	25.81	0.69	0.750			
0.0967	6189.19	4.1330	4.1330	0.7836	25.81	0.69	0.750			
0.0991	6339.37	4.1300	4.1299	0.7817	25.81	0.69	0.750			
0.1014	6488.55	4.1270	4.1270	0.7813	25.81	0.69	0.750			
0.1037	6638.54	4.1240	4.1243	0.7830	25.81	0.69	0.750			
0.1061	6790.07	4.1210	4.1209	0.7732	25.81	0.69	0.750			
0.1083	6934.14	4.1180	4.1182	0.7761	25.81	0.69	0.750			
0.1107	7083.10	4.1150	4.1152	0.7801	25.81	0.69	0.750			
0.1130	7234.06	4.1120	4.1122	0.7878	25.81	0.69	0.750			
0.1154	7384.37	4.1090	4.1093	0.8028	25.81	0.69	0.750			
0.1178	7538.82	4.1060	4.1061	0.8231	25.81	0.69	0.750			
0.1203	7701.77	4.1030	4.1029	0.8408	25.81	0.69	0.750			
0.1229	7865.70	4.1000	4.0997	0.8321	25.81	0.69	0.750			
0.1254	8027.97	4.0970	4.0972	0.8345	25.81	0.69	0.750			
0.1280	8194.04	4.0940	4.0940	0.8349	25.81	0.69	0.750			
0.1305	8352.84	4.0910	4.0910	0.8186	25.81	0.69	0.750			
0.1329	8503.42	4.0880	4.0880	0.8052	25.81	0.69	0.750			
0.1353	8656.78	4.0850	4.0850	0.8035	25.81	0.69	0.750			
0.1377	8810.70	4.0820	4.0819	0.8073	25.81	0.69	0.750			
0.1401	8966.70	4.0790	4.0791	0.8095	25.81	0.69	0.750			
0.1425	9122.66	4.0760	4.0760	0.8069	25.81	0.69	0.750			
0.1450	9277.26	4.0730	4.0730	0.8114	25.81	0.69	0.750			
0.1474	9432.54	4.0700	4.0701	0.8126	25.81	0.69	0.750			
0.1498	9588.23	4.0670	4.0667	0.8130	25.81	0.69	0.750			
0.1523	9745.05	4.0640	4.0641	0.8183	25.81	0.69	0.750			
0.1547	9902.14	4.0610	4.0610	0.8171	25.82	0.70	0.750			
0.1572	10059.51	4.0580	4.0580	0.8244	25.82	0.70	0.750			
0.1596	10215.83	4.0550	4.0551	0.8244	25.83	0.71	0.750			
0.1621	10375.52	4.0520	4.0517	0.8321	25.83	0.71	0.750			
0.1647	10537.85	4.0490	4.0490	0.8355	25.83	0.71	0.750			
0.1672	10699.14	4.0460	4.0461	0.8394	25.83	0.71	0.750			
0.1697	10861.51	4.0430	4.0430	0.8426	25.83	0.71	0.750			
0.1722	11022.73	4.0400	4.0400	0.8417	25.83	0.71	0.750			
0.1747	11183.33	4.0370	4.0369	0.8411	25.83	0.71	0.750			
0.1773	11347.26	4.0340	4.0340	0.8392	25.83	0.71	0.750			
0.1798	11507.89	4.0310	4.0310	0.8462	25.83	0.71	0.750			
0.1824	11670.50	4.0280	4.0281	0.8483	25.83	0.71	0.750			
0.1849	11832.78	4.0250	4.0251	0.8521	25.83	0.71	0.750			
0.1874	11996.19	4.0220	4.0219	0.8560	25.83	0.71	0.750			
0.1900	12162.07	4.0190	4.0191	0.8575	25.83	0.71	0.750			
0.1926	12327.73	4.0160	4.0160	0.8621	25.83	0.71	0.750			
0.1952	12494.19	4.0130	4.0131	0.8640	25.83	0.71	0.750			
0.1978	12659.22	4.0100	4.0100	0.8611	25.83	0.71	0.750			
0.2004	12824.61	4.0070	4.0070	0.8671	25.83	0.71	0.750			
0.2030	12991.79	4.0040	4.0040	0.8652	25.83	0.71	0.750			
0.2056	13157.10	4.0010	4.0010	0.8728	25.83	0.71	0.750			
0.2082	13325.77	3.9980	3.9980	0.8774	25.84	0.72	0.750			
0.2108	13494.02	3.9950	3.9950	0.8823	25.84	0.72	0.750			
0.2135	13664.31	3.9920	3.9921	0.8858	25.84	0.72	0.750			
0.2162	13835.62	3.9890	3.9890	0.8841	25.84	0.72	0.750			
0.2188	14005.12	3.9860	3.9860	0.8848	25.85	0.73	0.750			
0.2215	14174.38	3.9830	3.9830	0.8842	25.85	0.73	0.750			
0.2241	14343.39	3.9800	3.9797	0.8888	25.85	0.73	0.750			
0.2268	14516.75	3.9770	3.9770	0.8870	25.85	0.73	0.750			
0.2295	14686.20	3.9740	3.9740	0.8902	25.85	0.73	0.750			
0.2322	14857.79	3.9710	3.9711	0.8958	25.85	0.73	0.750			
0.2349	15031.16	3.9680	3.9680	0.9010	25.85	0.73	0.750			
0.2375	15202.11	3.9650	3.9648	0.9020	25.85	0.73	0.750			
0.2403	15376.38	3.9620	3.9620	0.9043	25.85	0.73	0.750			
0.2430	15550.59	3.9590	3.9590	0.9078	25.85	0.73	0.750			
0.2457	15726.86	3.9560	3.9561	0.9124	25.85	0.73	0.750			
0.2485	15902.06	3.9530	3.9529	0.9068	25.85	0.73	0.750			
0.2512	16076.05	3.9500	3.9500	0.9090	25.85	0.73	0.750			
0.2539	16250.38	3.9470	3.9470	0.9008	25.85	0.73	0.750			
0.2566	16421.26	3.9440	3.9440	0.9023	25.85	0.73	0.750			
0.2593	16594.26	3.9410	3.9410	0.9062	25.85	0.73	0.750			
0.2620	16767.12	3.9380	3.9376	0.9112	25.85	0.73	0.750			
0.2647	16943.95	3.9350	3.9350	0.9119	25.85	0.73	0.750			
0.2675	17119.61	3.9320	3.9320	0.9195	25.85	0.73	0.750			
0.2703	17298.00	3.9290	3.9291	0.9231	25.85	0.73	0.750			
0.2731	17475.39	3.9260	3.9261	0.9206	25.85	0.73	0.750			
0.2758	17652.68	3.9230	3.9230	0.9217	25.85	0.73	0.750			
0.2786	17828.99	3.9200	3.9201	0.9206	25.85	0.73	0.750			
0.2813	18005.43	3.9170	3.9170	0.9234	25.85	0.73	0.750			
0.2841	18185.02	3.9140	3.9140	0.9286	25.85	0.73	0.750			
0.2869	18361.38	3.9110	3.9109	0.9253	25.85	0.73	0.750			
0.2897	18543.92	3.9080	3.9080	0.9175	25.85	0.73	0.750			
0.2924	18716.59	3.9050	3.9050	0.9222	25.85	0.73	0.750			
0.2952	18892.68	3.9020	3.9021	0.9260	25.84	0.72	0.750			
0.2980	19070.12	3.8990	3.8992	0.9293	25.84	0.72	0.750			
0.3007	19247.19	3.8960	3.8959	0.9315	25.84	0.72	0.750			
0.3036	19427.58	3.8930	3.8932	0.9295	25.83	0.71	0.750			
0.3064	19606.64	3.8900	3.8901	0.9357	25.83	0.71	0.750			
0.3092	19788.01	3.8870	3.8871	0.9370	25.82	0.70	0.750			
0.3120	19965.96	3.8840	3.8837	0.9331	25.82	0.70	0.750			
0.3148	20144.93	3.8810	3.8811	0.9377	25.82	0.70	0.750			
0.3176	20326.40	3.8780	3.8780	0.9410	25.82	0.70	0.750			
0.3204	20508.57	3.8750	3.8750	0.9456	25.81	0.69	0.750			
0.3233	20689.72	3.8720	3.8720	0.9407	25.81	0.69	0.750			
0.3261	20871.03	3.8690	3.8690	0.9439	25.81	0.69	0.750			
0.3290	21056.10	3.8660	3.8660	0.9271	25.80	0.68	0.750			
0.3317	21228.01	3.8630	3.8631	0.9343	25.79	0.67	0.750			
0.3344	21404.17	3.8600	3.8602	0.9413	25.78	0.66	0.750			
0.3373	21586.20	3.8570	3.8562	0.9482	25.77	0.65	0.750			
0.3402	21770.45	3.8540	3.8542	0.9438	25.76	0.64	0.750			
0.3430	21952.23	3.8510	3.8512	0.9553	25.75	0.63	0.750			
0.3459	22140.13	3.8480	3.8481	0.9638	25.74	0.62	0.750			
0.3488	22321.47	3.8450	3.8449	0.9529	25.73	0.61	0.750			
0.3516	22504.28	3.8420	3.8421	0.9582	25.72	0.60	0.750			
0.3545	22688.24	3.8390	3.8391	0.9676	25.71	0.59	0.750			
0.3575	22877.08	3.8360	3.8355	0.9773	25.70	0.58	0.750	0.338	0.437	
0.3604	23067.79	3.8330	3.8332	0.9884	25.70	0.58	0.750			
0.3634	23258.34	3.8300	3.8300	0.9764	25.69	0.57	0.750			
0.3663	23446.30	3.8270	3.8270	0.9823	25.68	0.56	0.750			
0.3693	23634.90	3.8240	3.8241	0.9844	25.67	0.55	0.750			
0.3722	23821.81	3.8210	3.8211	0.9923	25.66	0.54	0.750			
0.3752	24011.44	3.8180	3.8180	0.9958	25.65	0.53	0.750			
0.3782	24203.74	3.8150	3.8150	0.9988	25.64	0.52	0.750			
0.3812	24394.53	3.8120	3.8122	1.0110	25.63	0.51	0.750			
0.3842	24590.83	3.8090	3.8090	1.0277	25.62	0.50	0.750			
0.3873	24788.52	3.8060	3.8057	1.0307	25.61	0.49	0.750			
0.3904	24987.21	3.8030	3.8031	1.0444	25.59	0.47	0.750			
0.3936	25188.76	3.8000	3.8001	1.0613	25.58	0.46	0.750			
0.3968	25396.57	3.7970	3.7970	1.0800	25.56	0.44	0.750			
0.4001	25607.06	3.7940	3.7939	1.0779	25.55	0.43	0.750			
0.4033	25813.76	3.7910	3.7910	1.0950	25.54	0.42	0.750			
0.4066	26023.95	3.7880	3.7881	1.1119	25.53	0.41	0.750			
0.4100	26239.17	3.7850	3.7851	1.1313	25.52	0.40	0.750			
0.4134	26456.89	3.7820	3.7821	1.1437	25.51	0.39	0.750			
0.4168	26676.94	3.7790	3.7791	1.1671	25.49	0.37	0.750			
0.4204	26902.93	3.7760	3.7760	1.1931	25.48	0.36	0.750			
0.4240	27136.94	3.7730	3.7728	1.2120	25.47	0.35	0.750			
0.4277	27369.84	3.7700	3.7700	1.2344	25.46	0.34	0.750			
0.4314	27609.26	3.7670	3.7671	1.2597	25.44	0.32	0.750			
0.4353	27859.02	3.7640	3.7639	1.2753	25.43	0.31	0.750			
0.4391	28102.82	3.7610	3.7609	1.3075	25.41	0.29	0.750			
0.4430	28351.11	3.7580	3.7581	1.3352	25.40	0.28	0.750			
0.4471	28614.33	3.7550	3.7551	1.3579	25.39	0.27	0.750			
0.4512	28878.91	3.7520	3.7521	1.3961	25.37	0.25	0.750			
0.4554	29146.66	3.7490	3.7492	1.4284	25.36	0.24	0.750			
0.4598	29426.67	3.7460	3.7461	1.4531	25.35	0.23	0.750			
0.4642	29707.49	3.7430	3.7430	1.4859	25.33	0.21	0.750			
0.4687	29994.06	3.7400	3.7401	1.5090	25.31	0.19	0.750			
0.4733	30290.40	3.7370	3.7369	1.5474	25.29	0.17	0.750			
0.4780	30592.40	3.7340	3.7341	1.6028	25.28	0.16	0.750			
0.4828	30899.16	3.7310	3.7311	1.6416	25.26	0.14	0.750			
0.4878	31220.99	3.7280	3.7281	1.6999	25.25	0.13	0.750			
0.4931	31560.98	3.7250	3.7251	1.7159	25.23	0.11	0.750			
0.4983	31889.98	3.7220	3.7220	1.7465	25.21	0.09	0.750			
0.5036	32227.32	3.7190	3.7195	1.7777	25.19	0.07	0.750			
0.5088	32564.22	3.7160	3.7154	1.8381	25.18	0.06	0.750			
0.5142	32908.40	3.7130	3.7127	1.8786	25.16	0.04	0.750			
0.5199	33271.61	3.7100	3.7095	1.9394	25.14	0.02	0.750			
0.5259	33660.58	3.7070	3.7073	2.0652	25.13	0.01	0.750			
0.5322	34063.54	3.7040	3.7042	2.1460	25.11	-0.01	0.750			
0.5389	34489.27	3.7010	3.7013	2.1859	25.09	-0.03	0.750			
0.5457	34924.86	3.6980	3.6979	2.2509	25.07	-0.05	0.750			
0.5525	35361.37	3.6950	3.6946	2.2857	25.04	-0.08	0.750			
0.5593	35794.73	3.6920	3.6923	2.3337	25.03	-0.09	0.750			
0.5663	36245.30	3.6890	3.6888	2.3534	25.01	-0.11	0.750			
0.5735	36706.28	3.6860	3.6857	2.4355	25.00	-0.12	0.750			
0.5809	37177.28	3.6830	3.6828	2.5575	24.99	-0.13	0.750			
0.5888	37683.25	3.6800	3.6799	2.6280	24.98	-0.14	0.750			
0.5965	38176.65	3.6770	3.6773	2.6500	24.96	-0.16	0.750			
0.6047	38698.14	3.6740	3.6743	2.6881	24.96	-0.16	0.750			
0.6130	39229.30	3.6710	3.6709	2.6839	24.96	-0.16	0.750			
0.6212	39759.18	3.6680	3.6677	2.5776	24.95	-0.17	0.750			
0.6290	40257.26	3.6650	3.6653	2.5278	24.95	-0.17	0.750			
0.6362	40718.45	3.6620	3.6619	2.3072	24.96	-0.16	0.750			
0.6426	41128.55	3.6590	3.6594	2.0914	24.97	-0.15	0.750			
0.6486	41511.99	3.6560	3.6559	1.9380	24.98	-0.14	0.750			
0.6541	41864.62	3.6530	3.6528	1.7707	24.99	-0.13	0.750			
0.6592	42187.08	3.6500	3.6502	1.6035	25.00	-0.12	0.750			
0.6639	42489.49	3.6470	3.6471	1.4701	25.00	-0.12	0.750			
0.6681	42757.86	3.6440	3.6441	1.3449	25.01	-0.11	0.750			
0.6718	42995.65	3.6410	3.6411	1.2329	25.02	-0.10	0.750			
0.6753	43219.18	3.6380	3.6377	1.1525	25.02	-0.10	0.750			
0.6786	43428.11	3.6350	3.6351	1.0733	25.03	-0.09	0.750			
0.6817	43626.81	3.6320	3.6321	1.0274	25.03	-0.09	0.750			
0.6847	43820.64	3.6290	3.6291	0.9889	25.04	-0.08	0.750			
0.6875	44002.14	3.6260	3.6261	0.9486	25.04	-0.08	0.750			
0.6903	44179.97	3.6230	3.6231	0.9193	25.05	-0.07	0.750			
0.6931	44356.74	3.6200	3.6199	0.8937	25.06	-0.06	0.750			
0.6958	44528.70	3.6170	3.6170	0.8655	25.07	-0.05	0.750			
0.6984	44697.73	3.6140	3.6140	0.8146	25.08	-0.04	0.750			
0.7008	44850.59	3.6110	3.6111	0.7626	25.08	-0.04	0.750			
0.7030	44993.45	3.6080	3.6080	0.7084	25.09	-0.03	0.750			
0.7050	45122.52	3.6050	3.6051	0.6436	25.10	-0.02	0.750			
0.7069	45240.47	3.6020	3.6004	0.5796	25.10	-0.02	0.750			
0.7085	45343.78	3.5990	3.5992	0.5171	25.11	-0.01	0.750			
0.7099	45436.29	3.5960	3.5961	0.4613	25.11	-0.01	0.750			
0.7112	45519.67	3.5930	3.5931	0.4107	25.12	-0.00	0.750			
0.7124	45592.03	3.5900	3.5901	0.3545	25.12	0.00	0.750			
0.7134	45655.70	3.5870	3.5870	0.3045	25.12	0.00	0.750			
0.7142	45710.69	3.5840	3.5841	0.2586	25.13	0.01	0.750			
0.7149	45756.49	3.5810	3.5811	0.2084	25.13	0.01	0.750			
0.7155	45791.72	3.5780	3.5780	0.1527	25.13	0.01	0.750			
0.7159	45815.77	3.5750	3.5751	0.0931	25.13	0.01	0.750			
