Ah_balance (normalized)	Ah_balance (mAh)	Voltage - fit (V)	Voltage -  interpolate (V)	dQ/dV (1/V)	Temperature (°C)	Temperature - diff (°C)	Current (C)	R_DC 0ms (mOhm)	R_DC 50ms (mOhm)	R_DC 50 ms PEC (mOhm)
0.0479	3063.94	4.1970	4.1963	0.7914	25.08	0.70	0.750			
0.0502	3215.25	4.1940	4.1942	0.7848	25.08	0.70	0.750			
0.0526	3368.03	4.1910	4.1910	0.7777	25.08	0.70	0.750			
0.0549	3513.65	4.1880	4.1881	0.7683	25.08	0.70	0.750			
0.0572	3659.01	4.1850	4.1850	0.7578	25.08	0.70	0.750			
0.0594	3804.37	4.1820	4.1822	0.7573	25.08	0.70	0.750			
0.0617	3948.80	4.1790	4.1791	0.7604	25.08	0.70	0.750			
0.0640	4095.50	4.1760	4.1760	0.7617	25.08	0.70	0.750			
0.0663	4241.96	4.1730	4.1730	0.7658	25.08	0.70	0.750			
0.0686	4392.16	4.1700	4.1699	0.7751	25.07	0.69	0.750			
0.0709	4538.35	4.1670	4.1671	0.7704	25.07	0.69	0.750			
0.0732	4686.70	4.1640	4.1640	0.7732	25.07	0.69	0.750			
0.0756	4836.31	4.1610	4.1610	0.7734	25.07	0.69	0.750			
0.0779	4986.87	4.1580	4.1579	0.7602	25.07	0.69	0.750			
0.0802	5130.54	4.1550	4.1551	0.7696	25.06	0.68	0.750			
0.0824	5276.64	4.1520	4.1521	0.7732	25.06	0.68	0.750			
0.0848	5424.90	4.1490	4.1488	0.7777	25.06	0.68	0.750			
0.0871	5574.41	4.1460	4.1462	0.7907	25.06	0.68	0.750			
0.0895	5727.81	4.1430	4.1431	0.7975	25.06	0.68	0.750			
0.0919	5883.84	4.1400	4.1400	0.8036	25.06	0.68	0.750			
0.0944	6042.37	4.1370	4.1371	0.8088	25.06	0.68	0.750			
0.0968	6195.04	4.1340	4.1340	0.7987	25.06	0.68	0.750			
0.0992	6348.75	4.1310	4.1310	0.7980	25.06	0.68	0.750			
0.1016	6501.35	4.1280	4.1280	0.7935	25.05	0.67	0.750			
0.1039	6651.73	4.1250	4.1250	0.7882	25.05	0.67	0.750			
0.1063	6804.34	4.1220	4.1220	0.7907	25.05	0.67	0.750			
0.1087	6954.69	4.1190	4.1190	0.7897	25.04	0.66	0.750			
0.1110	7105.81	4.1160	4.1160	0.7913	25.04	0.66	0.750			
0.1134	7258.16	4.1130	4.1130	0.7956	25.04	0.66	0.750			
0.1158	7410.45	4.1100	4.1100	0.7931	25.04	0.66	0.750			
0.1182	7563.06	4.1070	4.1070	0.7974	25.04	0.66	0.750			
0.1206	7716.61	4.1040	4.1040	0.7984	25.04	0.66	0.750			
0.1230	7869.82	4.1010	4.1009	0.8000	25.04	0.66	0.750			
0.1254	8022.86	4.0980	4.0981	0.8028	25.04	0.66	0.750			
0.1278	8179.99	4.0950	4.0950	0.7928	25.04	0.66	0.750			
0.1302	8329.79	4.0920	4.0920	0.8048	25.03	0.65	0.750			
0.1325	8483.02	4.0890	4.0891	0.8034	25.03	0.65	0.750			
0.1350	8638.59	4.0860	4.0858	0.8125	25.03	0.65	0.750			
0.1374	8795.36	4.0830	4.0831	0.8195	25.03	0.65	0.750			
0.1399	8954.69	4.0800	4.0802	0.8219	25.03	0.65	0.750			
0.1424	9113.77	4.0770	4.0770	0.8253	25.03	0.65	0.750			
0.1449	9274.26	4.0740	4.0741	0.8192	25.03	0.65	0.750			
0.1474	9430.49	4.0710	4.0709	0.8197	25.03	0.65	0.750			
0.1498	9588.12	4.0680	4.0680	0.8206	25.03	0.65	0.750			
0.1523	9748.73	4.0650	4.0649	0.8045	25.03	0.65	0.750			
0.1547	9900.60	4.0620	4.0620	0.8117	25.02	0.64	0.750			
0.1571	10054.64	4.0590	4.0591	0.8211	25.02	0.64	0.750			
0.1595	10211.15	4.0560	4.0560	0.8256	25.02	0.64	0.750			
0.1620	10371.17	4.0530	4.0532	0.8346	25.02	0.64	0.750			
0.1646	10533.39	4.0500	4.0502	0.8318	25.02	0.64	0.750			
0.1671	10693.91	4.0470	4.0471	0.8478	25.02	0.64	0.750			
0.1697	10860.18	4.0440	4.0440	0.8572	25.02	0.64	0.750			
0.1722	11021.52	4.0410	4.0408	0.8502	25.02	0.64	0.750			
0.1748	11185.40	4.0380	4.0381	0.8557	25.02	0.64	0.750			
0.1774	11351.93	4.0350	4.0351	0.8568	25.02	0.64	0.750			
0.1799	11516.40	4.0320	4.0320	0.8602	25.02	0.64	0.750			
0.1825	11681.06	4.0290	4.0290	0.8569	25.02	0.64	0.750			
0.1851	11846.28	4.0260	4.0258	0.8606	25.02	0.64	0.750			
0.1877	12012.33	4.0230	4.0231	0.8631	25.02	0.64	0.750			
0.1903	12178.68	4.0200	4.0200	0.8600	25.02	0.64	0.750			
0.1929	12343.84	4.0170	4.0170	0.8636	25.02	0.64	0.750			
0.1954	12507.48	4.0140	4.0141	0.8627	25.02	0.64	0.750			
0.1980	12673.42	4.0110	4.0106	0.8695	25.02	0.64	0.750			
0.2006	12841.40	4.0080	4.0081	0.8726	25.02	0.64	0.750			
0.2033	13010.34	4.0050	4.0050	0.8787	25.02	0.64	0.750			
0.2060	13181.44	4.0020	4.0020	0.8887	25.02	0.64	0.750			
0.2086	13352.81	3.9990	3.9990	0.8934	25.02	0.64	0.750			
0.2113	13522.90	3.9960	3.9960	0.8882	25.02	0.64	0.750			
0.2140	13695.15	3.9930	3.9931	0.8850	25.02	0.64	0.750			
0.2166	13864.04	3.9900	3.9901	0.8885	25.02	0.64	0.750			
0.2193	14033.94	3.9870	3.9870	0.8913	25.03	0.65	0.750			
0.2220	14205.04	3.9840	3.9839	0.8906	25.03	0.65	0.750			
0.2246	14375.11	3.9810	3.9810	0.8934	25.03	0.65	0.750			
0.2273	14548.94	3.9780	3.9780	0.8824	25.03	0.65	0.750			
0.2299	14716.43	3.9750	3.9751	0.8915	25.02	0.64	0.750			
0.2326	14885.54	3.9720	3.9721	0.8919	25.02	0.64	0.750			
0.2353	15057.40	3.9690	3.9683	0.9006	25.02	0.64	0.750			
0.2380	15231.13	3.9660	3.9661	0.9011	25.02	0.64	0.750			
0.2407	15405.88	3.9630	3.9631	0.9144	25.02	0.64	0.750			
0.2435	15586.08	3.9600	3.9601	0.9258	25.02	0.64	0.750			
0.2463	15763.18	3.9570	3.9570	0.9159	25.02	0.64	0.750			
0.2490	15938.76	3.9540	3.9540	0.9209	25.02	0.64	0.750			
0.2518	16116.75	3.9510	3.9510	0.9176	25.02	0.64	0.750			
0.2546	16292.82	3.9480	3.9480	0.9186	25.03	0.65	0.750			
0.2573	16468.74	3.9450	3.9451	0.9240	25.03	0.65	0.750			
0.2601	16644.18	3.9420	3.9418	0.9223	25.03	0.65	0.750			
0.2629	16822.71	3.9390	3.9390	0.9285	25.03	0.65	0.750			
0.2656	16999.85	3.9360	3.9360	0.9251	25.03	0.65	0.750			
0.2684	17177.23	3.9330	3.9332	0.9294	25.02	0.64	0.750			
0.2712	17356.18	3.9300	3.9301	0.9297	25.02	0.64	0.750			
0.2740	17535.08	3.9270	3.9271	0.9326	25.02	0.64	0.750			
0.2768	17716.01	3.9240	3.9242	0.9225	25.02	0.64	0.750			
0.2795	17890.94	3.9210	3.9211	0.9266	25.02	0.64	0.750			
0.2823	18070.32	3.9180	3.9181	0.9342	25.02	0.64	0.750			
0.2851	18245.96	3.9150	3.9146	0.9348	25.02	0.64	0.750			
0.2879	18426.21	3.9120	3.9121	0.9398	25.02	0.64	0.750			
0.2908	18608.67	3.9090	3.9091	0.9477	25.02	0.64	0.750			
0.2937	18795.08	3.9060	3.9060	0.9590	25.03	0.65	0.750			
0.2965	18978.50	3.9030	3.9031	0.9530	25.03	0.65	0.750			
0.2994	19162.25	3.9000	3.9000	0.9547	25.03	0.65	0.750			
0.3023	19348.35	3.8970	3.8970	0.9353	25.03	0.65	0.750			
0.3050	19522.22	3.8940	3.8941	0.9435	25.02	0.64	0.750			
0.3078	19701.52	3.8910	3.8912	0.9544	25.02	0.64	0.750			
0.3107	19884.41	3.8880	3.8872	0.9571	25.02	0.64	0.750			
0.3136	20070.90	3.8850	3.8851	0.9492	25.01	0.63	0.750			
0.3164	20251.96	3.8820	3.8823	0.9682	25.01	0.63	0.750			
0.3194	20441.84	3.8790	3.8790	0.9853	25.01	0.63	0.750			
0.3224	20630.89	3.8760	3.8756	0.9732	25.00	0.62	0.750			
0.3253	20819.15	3.8730	3.8731	0.9736	25.00	0.62	0.750			
0.3282	21007.07	3.8700	3.8702	0.9830	24.99	0.61	0.750			
0.3312	21198.88	3.8670	3.8671	0.9906	24.99	0.61	0.750			
0.3342	21388.51	3.8640	3.8639	0.9833	24.98	0.60	0.750			
0.3371	21577.54	3.8610	3.8611	0.9842	24.98	0.60	0.750			
0.3401	21767.32	3.8580	3.8581	0.9759	24.97	0.59	0.750			
0.3430	21951.95	3.8550	3.8551	0.9858	24.96	0.58	0.750			
0.3459	22140.67	3.8520	3.8522	0.9911	24.95	0.57	0.750			
0.3489	22330.14	3.8490	3.8491	0.9893	24.95	0.57	0.750			
0.3519	22520.67	3.8460	3.8461	1.0002	24.94	0.56	0.750			
0.3549	22714.32	3.8430	3.8432	1.0113	24.93	0.55	0.750			
0.3580	22910.80	3.8400	3.8401	1.0271	24.93	0.55	0.750			
0.3610	23103.15	3.8370	3.8371	0.9505	24.92	0.54	0.750			
0.3636	23267.52	3.8340	3.8344	0.9836	24.91	0.53	0.750	0.351	0.434	
0.3664	23447.66	3.8310	3.8321	1.0099	24.90	0.52	0.750			
0.3695	23649.56	3.8280	3.8290	1.0444	24.89	0.51	0.750			
0.3727	23855.54	3.8250	3.8256	1.0768	24.88	0.50	0.750			
0.3762	24074.61	3.8220	3.8226	1.0852	24.87	0.49	0.750			
0.3798	24304.82	3.8190	3.8191	1.1181	24.86	0.48	0.750			
0.3828	24501.92	3.8160	3.8161	1.0435	24.85	0.47	0.750			
0.3860	24704.01	3.8130	3.8130	1.0333	24.84	0.46	0.750			
0.3891	24900.78	3.8100	3.8101	1.0450	24.83	0.45	0.750			
0.3922	25102.27	3.8070	3.8072	1.0564	24.82	0.44	0.750			
0.3954	25308.22	3.8040	3.8041	1.0699	24.81	0.43	0.750			
0.3986	25513.57	3.8010	3.8007	1.0632	24.80	0.42	0.750			
0.4018	25716.36	3.7980	3.7982	1.0820	24.79	0.41	0.750			
0.4051	25924.86	3.7950	3.7951	1.1007	24.78	0.40	0.750			
0.4084	26140.46	3.7920	3.7919	1.1198	24.77	0.39	0.750			
0.4118	26355.21	3.7890	3.7890	1.1271	24.76	0.38	0.750			
0.4151	26568.60	3.7860	3.7861	1.1319	24.74	0.36	0.750			
0.4185	26785.84	3.7830	3.7831	1.1542	24.73	0.35	0.750			
0.4221	27011.59	3.7800	3.7800	1.1683	24.72	0.34	0.750			
0.4255	27233.10	3.7770	3.7772	1.1844	24.71	0.33	0.750			
0.4291	27463.09	3.7740	3.7742	1.2146	24.70	0.32	0.750			
0.4328	27700.90	3.7710	3.7711	1.2459	24.69	0.31	0.750			
0.4367	27949.53	3.7680	3.7680	1.2769	24.68	0.30	0.750			
0.4404	28182.79	3.7650	3.7651	1.2817	24.66	0.28	0.750			
0.4443	28432.39	3.7620	3.7621	1.3185	24.65	0.27	0.750			
0.4483	28689.91	3.7590	3.7587	1.3409	24.64	0.26	0.750			
0.4523	28947.44	3.7560	3.7561	1.3655	24.63	0.25	0.750			
0.4565	29217.31	3.7530	3.7531	1.3826	24.61	0.23	0.750			
0.4607	29483.46	3.7500	3.7494	1.4254	24.60	0.22	0.750			
0.4651	29764.49	3.7470	3.7472	1.4221	24.59	0.21	0.750			
0.4693	30035.31	3.7440	3.7442	1.4766	24.58	0.20	0.750			
0.4737	30316.98	3.7410	3.7409	1.5391	24.57	0.19	0.750			
0.4783	30614.02	3.7380	3.7381	1.6009	24.56	0.18	0.750			
0.4832	30927.47	3.7350	3.7352	1.6794	24.55	0.17	0.750			
0.4885	31265.72	3.7320	3.7319	1.7596	24.53	0.15	0.750			
0.4940	31614.08	3.7290	3.7294	1.8017	24.51	0.13	0.750			
0.4996	31974.33	3.7260	3.7256	1.8172	24.49	0.11	0.750			
0.5050	32322.20	3.7230	3.7228	1.8785	24.48	0.10	0.750			
0.5104	32663.38	3.7200	3.7200	1.8796	24.46	0.08	0.750			
0.5162	33033.70	3.7170	3.7167	1.9518	24.44	0.06	0.750			
0.5221	33413.68	3.7140	3.7141	2.0144	24.42	0.04	0.750			
0.5283	33814.04	3.7110	3.7110	2.0604	24.41	0.03	0.750			
0.5346	34214.49	3.7080	3.7076	2.1141	24.39	0.01	0.750			
0.5408	34609.73	3.7050	3.7052	2.1336	24.38	-0.00	0.750			
0.5473	35026.51	3.7020	3.7019	2.1916	24.36	-0.02	0.750			
0.5539	35451.27	3.6990	3.6989	2.2602	24.35	-0.03	0.750			
0.5607	35885.67	3.6960	3.6962	2.3063	24.33	-0.05	0.750			
0.5679	36343.94	3.6930	3.6930	2.3752	24.32	-0.06	0.750			
0.5752	36812.05	3.6900	3.6899	2.4761	24.30	-0.08	0.750			
0.5828	37300.28	3.6870	3.6872	2.5387	24.29	-0.09	0.750			
0.5906	37796.86	3.6840	3.6839	2.5791	24.28	-0.10	0.750			
0.5982	38285.64	3.6810	3.6813	2.6451	24.27	-0.11	0.750			
0.6061	38793.24	3.6780	3.6782	2.7146	24.26	-0.12	0.750			
0.6145	39327.98	3.6750	3.6751	2.7871	24.25	-0.13	0.750			
0.6232	39883.32	3.6720	3.6719	2.7998	24.24	-0.14	0.750			
0.6317	40430.23	3.6690	3.6690	2.7853	24.24	-0.14	0.750			
0.6402	40974.09	3.6660	3.6658	2.7345	24.24	-0.14	0.750			
0.6484	41495.11	3.6630	3.6629	2.6138	24.24	-0.14	0.750			
0.6560	41981.57	3.6600	3.6600	2.4348	24.25	-0.13	0.750			
0.6627	42413.58	3.6570	3.6572	2.1489	24.26	-0.12	0.750			
0.6688	42805.76	3.6540	3.6540	1.9483	24.27	-0.11	0.750			
0.6743	43153.18	3.6510	3.6512	1.7488	24.28	-0.10	0.750			
0.6792	43471.57	3.6480	3.6479	1.5814	24.29	-0.09	0.750			
0.6837	43759.17	3.6450	3.6451	1.4327	24.30	-0.08	0.750			
0.6878	44016.95	3.6420	3.6422	1.2920	24.30	-0.08	0.750			
0.6914	44249.13	3.6390	3.6391	1.1748	24.30	-0.08	0.750			
0.6946	44453.27	3.6360	3.6361	1.0686	24.31	-0.07	0.750			
0.6976	44648.02	3.6330	3.6326	1.0025	24.31	-0.07	0.750			
0.7004	44824.65	3.6300	3.6300	0.9422	24.32	-0.06	0.750			
0.7031	45000.59	3.6270	3.6270	0.9149	24.33	-0.05	0.750			
0.7058	45173.41	3.6240	3.6240	0.8926	24.34	-0.04	0.750			
0.7085	45343.85	3.6210	3.6210	0.8708	24.34	-0.04	0.750			
0.7111	45509.32	3.6180	3.6180	0.8360	24.35	-0.03	0.750			
0.7136	45670.22	3.6150	3.6150	0.7971	24.36	-0.02	0.750			
0.7161	45830.74	3.6120	3.6119	0.7296	24.36	-0.02	0.750			
0.7182	45964.02	3.6090	3.6091	0.6578	24.37	-0.01	0.750			
0.7200	46079.98	3.6060	3.6063	0.5898	24.37	-0.01	0.750			
0.7216	46183.79	3.6030	3.6034	0.5222	24.38	-0.00	0.750			
0.7230	46272.74	3.6000	3.6000	0.4565	24.38	0.00	0.750			
0.7243	46353.91	3.5970	3.5976	0.4041	24.38	0.00	0.750			
0.7255	46429.29	3.5940	3.5944	0.3528	24.39	0.01	0.750			
0.7265	46494.16	3.5910	3.5911	0.3058	24.39	0.01	0.750			
0.7273	46547.54	3.5880	3.5881	0.2400	24.39	0.01	0.750			
0.7280	46589.75	3.5850	3.5854	0.1896	24.39	0.01	0.750			
0.7285	46622.81	3.5820	3.5824	0.1287	24.39	0.01	0.750			
0.7288	46642.21	3.5790	3.5804	0.0569	24.39	0.01	0.750			
