Ah_balance (normalized)	Ah_balance (mAh)	Voltage - fit (V)	Voltage -  interpolate (V)	dQ/dV (1/V)	Temperature (°C)	Temperature - diff (°C)	Current (C)	R_DC 0ms (mOhm)	R_DC 50ms (mOhm)	R_DC 50 ms PEC (mOhm)
0.0484	3098.54	4.1970	4.1970	0.7346	25.67	0.72	0.750			
0.0506	3239.83	4.1940	4.1940	0.7398	25.67	0.72	0.750			
0.0529	3383.03	4.1910	4.1911	0.7466	25.67	0.72	0.750			
0.0551	3526.96	4.1880	4.1880	0.7519	25.67	0.72	0.750			
0.0574	3672.35	4.1850	4.1850	0.7528	25.67	0.72	0.750			
0.0597	3817.66	4.1820	4.1820	0.7565	25.67	0.72	0.750			
0.0619	3960.92	4.1790	4.1791	0.7536	25.67	0.72	0.750			
0.0641	4104.16	4.1760	4.1761	0.7555	25.67	0.72	0.750			
0.0664	4249.66	4.1730	4.1727	0.7571	25.67	0.72	0.750			
0.0687	4395.67	4.1700	4.1702	0.7605	25.67	0.72	0.750			
0.0710	4543.34	4.1670	4.1671	0.7604	25.67	0.72	0.750			
0.0733	4690.04	4.1640	4.1641	0.7646	25.67	0.72	0.750			
0.0756	4839.48	4.1610	4.1609	0.7731	25.67	0.72	0.750			
0.0778	4981.80	4.1580	4.1580	0.7622	25.67	0.72	0.750			
0.0802	5129.69	4.1550	4.1550	0.7658	25.67	0.72	0.750			
0.0825	5277.93	4.1520	4.1521	0.7692	25.67	0.72	0.750			
0.0847	5423.78	4.1490	4.1490	0.7780	25.67	0.72	0.750			
0.0871	5572.14	4.1460	4.1461	0.7954	25.67	0.72	0.750			
0.0894	5724.57	4.1430	4.1429	0.8036	25.67	0.72	0.750			
0.0919	5883.87	4.1400	4.1393	0.8099	25.67	0.72	0.750			
0.0944	6043.70	4.1370	4.1374	0.8163	25.67	0.72	0.750			
0.0969	6202.95	4.1340	4.1341	0.8073	25.67	0.72	0.750			
0.0994	6359.90	4.1310	4.1310	0.8008	25.67	0.72	0.750			
0.1016	6504.41	4.1280	4.1281	0.7733	25.67	0.72	0.750			
0.1040	6653.10	4.1250	4.1248	0.7781	25.67	0.72	0.750			
0.1063	6803.61	4.1220	4.1221	0.7803	25.67	0.72	0.750			
0.1087	6954.11	4.1190	4.1190	0.7836	25.67	0.72	0.750			
0.1110	7106.34	4.1160	4.1160	0.7857	25.68	0.73	0.750			
0.1134	7258.12	4.1130	4.1130	0.7849	25.68	0.73	0.750			
0.1157	7405.66	4.1100	4.1100	0.7824	25.68	0.73	0.750			
0.1181	7556.14	4.1070	4.1070	0.7842	25.68	0.73	0.750			
0.1204	7707.54	4.1040	4.1040	0.7831	25.68	0.73	0.750			
0.1228	7857.90	4.1010	4.1010	0.7851	25.68	0.73	0.750			
0.1251	8008.60	4.0980	4.0980	0.7892	25.68	0.73	0.750			
0.1275	8160.06	4.0950	4.0951	0.7952	25.68	0.73	0.750			
0.1299	8313.06	4.0920	4.0920	0.7946	25.68	0.73	0.750			
0.1323	8465.20	4.0890	4.0890	0.7974	25.68	0.73	0.750			
0.1347	8620.38	4.0860	4.0860	0.7947	25.68	0.73	0.750			
0.1371	8771.30	4.0830	4.0831	0.7989	25.68	0.73	0.750			
0.1394	8924.13	4.0800	4.0800	0.8001	25.68	0.73	0.750			
0.1418	9077.69	4.0770	4.0766	0.8043	25.68	0.73	0.750			
0.1442	9231.88	4.0740	4.0741	0.8083	25.68	0.73	0.750			
0.1467	9389.77	4.0710	4.0711	0.8124	25.68	0.73	0.750			
0.1492	9546.52	4.0680	4.0680	0.8171	25.67	0.72	0.750			
0.1516	9702.73	4.0650	4.0650	0.8133	25.67	0.72	0.750			
0.1541	9859.44	4.0620	4.0619	0.8165	25.67	0.72	0.750			
0.1565	10016.05	4.0590	4.0590	0.8206	25.67	0.72	0.750			
0.1590	10175.44	4.0560	4.0561	0.8157	25.67	0.72	0.750			
0.1614	10331.89	4.0530	4.0530	0.8226	25.67	0.72	0.750			
0.1639	10489.36	4.0500	4.0501	0.8273	25.67	0.72	0.750			
0.1664	10648.21	4.0470	4.0469	0.8313	25.67	0.72	0.750			
0.1689	10807.94	4.0440	4.0440	0.8312	25.67	0.72	0.750			
0.1714	10970.78	4.0410	4.0410	0.8251	25.67	0.72	0.750			
0.1739	11127.80	4.0380	4.0381	0.8323	25.67	0.72	0.750			
0.1764	11289.68	4.0350	4.0350	0.8348	25.67	0.72	0.750			
0.1788	11445.63	4.0320	4.0318	0.8335	25.67	0.72	0.750			
0.1813	11606.19	4.0290	4.0291	0.8409	25.67	0.72	0.750			
0.1839	11768.62	4.0260	4.0261	0.8455	25.67	0.72	0.750			
0.1864	11932.77	4.0230	4.0230	0.8509	25.67	0.72	0.750			
0.1890	12097.46	4.0200	4.0201	0.8491	25.67	0.72	0.750			
0.1916	12260.58	4.0170	4.0170	0.8538	25.67	0.72	0.750			
0.1942	12425.87	4.0140	4.0140	0.8577	25.67	0.72	0.750			
0.1967	12589.72	4.0110	4.0110	0.8551	25.67	0.72	0.750			
0.1993	12753.98	4.0080	4.0081	0.8570	25.66	0.71	0.750			
0.2018	12918.06	4.0050	4.0051	0.8613	25.66	0.71	0.750			
0.2044	13083.11	4.0020	4.0018	0.8658	25.66	0.71	0.750			
0.2070	13251.12	3.9990	3.9990	0.8656	25.66	0.71	0.750			
0.2096	13416.86	3.9960	3.9960	0.8681	25.66	0.71	0.750			
0.2123	13585.19	3.9930	3.9930	0.8738	25.66	0.71	0.750			
0.2149	13752.06	3.9900	3.9901	0.8744	25.66	0.71	0.750			
0.2175	13919.98	3.9870	3.9870	0.8780	25.66	0.71	0.750			
0.2201	14089.14	3.9840	3.9840	0.8781	25.66	0.71	0.750			
0.2228	14257.86	3.9810	3.9810	0.8808	25.66	0.71	0.750			
0.2254	14428.45	3.9780	3.9780	0.8843	25.65	0.70	0.750			
0.2281	14598.66	3.9750	3.9751	0.8843	25.65	0.70	0.750			
0.2308	14768.33	3.9720	3.9720	0.8868	25.65	0.70	0.750			
0.2334	14939.24	3.9690	3.9690	0.8819	25.65	0.70	0.750			
0.2361	15108.06	3.9660	3.9660	0.8849	25.66	0.71	0.750			
0.2387	15277.77	3.9630	3.9630	0.8891	25.66	0.71	0.750			
0.2414	15448.12	3.9600	3.9598	0.8874	25.66	0.71	0.750			
0.2441	15620.04	3.9570	3.9569	0.8860	25.66	0.71	0.750			
0.2467	15788.91	3.9540	3.9541	0.8873	25.66	0.71	0.750			
0.2494	15960.09	3.9510	3.9511	0.8908	25.65	0.70	0.750			
0.2521	16132.28	3.9480	3.9480	0.8941	25.65	0.70	0.750			
0.2547	16301.58	3.9450	3.9448	0.8897	25.65	0.70	0.750			
0.2574	16473.47	3.9420	3.9421	0.8924	25.65	0.70	0.750			
0.2601	16646.22	3.9390	3.9390	0.8949	25.64	0.69	0.750			
0.2628	16817.62	3.9360	3.9360	0.8951	25.64	0.69	0.750			
0.2654	16987.62	3.9330	3.9330	0.8943	25.63	0.68	0.750			
0.2681	17160.67	3.9300	3.9300	0.8968	25.63	0.68	0.750			
0.2708	17333.88	3.9270	3.9270	0.8951	25.63	0.68	0.750			
0.2735	17506.16	3.9240	3.9240	0.8937	25.62	0.67	0.750			
0.2762	17677.57	3.9210	3.9211	0.8990	25.62	0.67	0.750			
0.2789	17850.24	3.9180	3.9178	0.8979	25.62	0.67	0.750			
0.2816	18023.51	3.9150	3.9149	0.8904	25.62	0.67	0.750			
0.2843	18192.87	3.9120	3.9120	0.8921	25.62	0.67	0.750			
0.2869	18364.38	3.9090	3.9091	0.8987	25.61	0.66	0.750			
0.2896	18536.54	3.9060	3.9060	0.9023	25.61	0.66	0.750			
0.2923	18710.33	3.9030	3.9027	0.8978	25.61	0.66	0.750			
0.2950	18881.98	3.9000	3.9000	0.8955	25.60	0.65	0.750			
0.2977	19055.59	3.8970	3.8971	0.9003	25.60	0.65	0.750			
0.3005	19228.88	3.8940	3.8940	0.8992	25.59	0.64	0.750			
0.3031	19398.83	3.8910	3.8909	0.8945	25.58	0.63	0.750			
0.3058	19571.22	3.8880	3.8880	0.8980	25.58	0.63	0.750			
0.3085	19743.76	3.8850	3.8850	0.8942	25.57	0.62	0.750			
0.3112	19916.44	3.8820	3.8820	0.8982	25.56	0.61	0.750			
0.3139	20087.49	3.8790	3.8791	0.9018	25.56	0.61	0.750			
0.3166	20261.18	3.8760	3.8756	0.9023	25.55	0.60	0.750			
0.3193	20437.05	3.8730	3.8730	0.8976	25.54	0.59	0.750			
0.3220	20609.70	3.8700	3.8700	0.8894	25.53	0.58	0.750			
0.3247	20779.77	3.8670	3.8672	0.8934	25.53	0.58	0.750			
0.3274	20950.47	3.8640	3.8641	0.8948	25.52	0.57	0.750			
0.3300	21117.28	3.8610	3.8608	0.8939	25.51	0.56	0.750			
0.3326	21289.06	3.8580	3.8580	0.8995	25.50	0.55	0.750			
0.3354	21463.77	3.8550	3.8551	0.9108	25.49	0.54	0.750			
0.3381	21641.57	3.8520	3.8520	0.9161	25.48	0.53	0.750			
0.3409	21818.76	3.8490	3.8490	0.9251	25.47	0.52	0.750			
0.3437	21996.13	3.8460	3.8460	0.9269	25.46	0.51	0.750			
0.3465	22173.54	3.8430	3.8430	0.9335	25.46	0.51	0.750			
0.3493	22353.69	3.8400	3.8401	0.9425	25.45	0.50	0.750	0.309	0.442	
0.3521	22536.61	3.8370	3.8371	0.9483	25.44	0.49	0.750			
0.3550	22719.02	3.8340	3.8339	0.9531	25.43	0.48	0.750			
0.3579	22902.92	3.8310	3.8310	0.9528	25.42	0.47	0.750			
0.3607	23083.84	3.8280	3.8280	0.9555	25.40	0.45	0.750			
0.3636	23268.03	3.8250	3.8251	0.9647	25.39	0.44	0.750			
0.3665	23453.90	3.8220	3.8218	0.9710	25.38	0.43	0.750			
0.3694	23643.74	3.8190	3.8191	0.9709	25.37	0.42	0.750			
0.3723	23829.90	3.8160	3.8160	0.9774	25.37	0.42	0.750			
0.3753	24017.55	3.8130	3.8131	0.9815	25.36	0.41	0.750			
0.3782	24203.14	3.8100	3.8101	0.9842	25.35	0.40	0.750			
0.3811	24393.56	3.8070	3.8070	0.9929	25.34	0.39	0.750			
0.3841	24583.67	3.8040	3.8040	1.0079	25.33	0.38	0.750			
0.3872	24778.29	3.8010	3.8010	1.0291	25.32	0.37	0.750			
0.3903	24978.51	3.7980	3.7981	1.0528	25.31	0.36	0.750			
0.3935	25186.01	3.7950	3.7950	1.0540	25.29	0.34	0.750			
0.3967	25389.19	3.7920	3.7920	1.0843	25.28	0.33	0.750			
0.4000	25599.28	3.7890	3.7891	1.1020	25.27	0.32	0.750			
0.4033	25813.42	3.7860	3.7861	1.1235	25.26	0.31	0.750			
0.4067	26028.74	3.7830	3.7831	1.1375	25.25	0.30	0.750			
0.4101	26247.82	3.7800	3.7801	1.1545	25.24	0.29	0.750			
0.4136	26472.08	3.7770	3.7770	1.1759	25.23	0.28	0.750			
0.4173	26704.06	3.7740	3.7740	1.1752	25.22	0.27	0.750			
0.4208	26928.38	3.7710	3.7711	1.2068	25.20	0.25	0.750			
0.4244	27162.01	3.7680	3.7681	1.2332	25.19	0.24	0.750			
0.4281	27400.72	3.7650	3.7649	1.2577	25.18	0.23	0.750			
0.4319	27642.98	3.7620	3.7621	1.2642	25.16	0.21	0.750			
0.4357	27883.82	3.7590	3.7592	1.2981	25.14	0.19	0.750			
0.4396	28135.51	3.7560	3.7562	1.3311	25.13	0.18	0.750			
0.4436	28392.16	3.7530	3.7532	1.3646	25.11	0.16	0.750			
0.4478	28659.22	3.7500	3.7501	1.3996	25.10	0.15	0.750			
0.4522	28938.46	3.7470	3.7471	1.4351	25.09	0.14	0.750			
0.4566	29224.57	3.7440	3.7440	1.4452	25.07	0.12	0.750			
0.4609	29498.01	3.7410	3.7411	1.4659	25.06	0.11	0.750			
0.4655	29791.11	3.7380	3.7378	1.4460	25.04	0.09	0.750			
0.4698	30069.48	3.7350	3.7351	1.4495	25.03	0.08	0.750			
0.4739	30332.10	3.7320	3.7321	1.5060	25.02	0.07	0.750			
0.4784	30619.86	3.7290	3.7295	1.5940	25.00	0.05	0.750			
0.4833	30932.90	3.7260	3.7265	1.6577	24.99	0.04	0.750			
0.4884	31256.95	3.7230	3.7228	1.7664	24.97	0.02	0.750			
0.4939	31609.46	3.7200	3.7199	1.7963	24.96	0.01	0.750			
0.4996	31977.05	3.7170	3.7166	1.8804	24.94	-0.01	0.750			
0.5053	32337.58	3.7140	3.7144	1.9400	24.93	-0.02	0.750			
0.5112	32719.55	3.7110	3.7106	1.9889	24.90	-0.05	0.750			
0.5173	33105.63	3.7080	3.7077	2.0262	24.88	-0.07	0.750			
0.5234	33494.68	3.7050	3.7051	2.0901	24.87	-0.08	0.750			
0.5296	33894.87	3.7020	3.7022	2.1341	24.86	-0.09	0.750			
0.5359	34299.83	3.6990	3.6986	2.2022	24.84	-0.11	0.750			
0.5427	34730.10	3.6960	3.6959	2.1847	24.82	-0.13	0.750			
0.5495	35168.17	3.6930	3.6926	2.2900	24.81	-0.14	0.750			
0.5564	35611.33	3.6900	3.6905	2.4131	24.80	-0.15	0.750			
0.5634	36057.05	3.6870	3.6867	2.3343	24.80	-0.15	0.750			
0.5707	36525.87	3.6840	3.6844	2.4381	24.79	-0.16	0.750			
0.5781	36996.59	3.6810	3.6813	2.5257	24.78	-0.17	0.750			
0.5862	37519.91	3.6780	3.6776	2.6369	24.78	-0.17	0.750			
0.5937	37999.98	3.6750	3.6752	2.4914	24.78	-0.17	0.750			
0.6009	38459.65	3.6720	3.6716	2.3720	24.78	-0.17	0.750			
0.6081	38916.89	3.6690	3.6690	2.2773	24.78	-0.17	0.750			
0.6151	39364.85	3.6660	3.6664	2.2005	24.79	-0.16	0.750			
0.6211	39748.69	3.6630	3.6625	1.9688	24.79	-0.16	0.750			
0.6267	40108.37	3.6600	3.6600	1.8892	24.80	-0.15	0.750			
0.6321	40456.80	3.6570	3.6562	1.7578	24.80	-0.15	0.750			
0.6370	40765.14	3.6540	3.6535	1.6133	24.81	-0.14	0.750			
0.6417	41068.36	3.6510	3.6511	1.4942	24.82	-0.13	0.750			
0.6462	41357.00	3.6480	3.6481	1.4072	24.83	-0.12	0.750			
0.6502	41611.03	3.6450	3.6451	1.2810	24.83	-0.12	0.750			
0.6538	41841.81	3.6420	3.6419	1.1809	24.84	-0.11	0.750			
0.6572	42061.96	3.6390	3.6390	1.1010	24.85	-0.10	0.750			
0.6604	42263.40	3.6360	3.6361	1.0547	24.85	-0.10	0.750			
0.6634	42456.35	3.6330	3.6331	1.0107	24.86	-0.09	0.750			
0.6664	42646.80	3.6300	3.6298	0.9721	24.87	-0.08	0.750			
0.6693	42832.22	3.6270	3.6271	0.9352	24.88	-0.07	0.750			
0.6721	43012.61	3.6240	3.6240	0.8987	24.88	-0.07	0.750			
0.6747	43180.98	3.6210	3.6211	0.8625	24.89	-0.06	0.750			
0.6773	43344.61	3.6180	3.6181	0.8335	24.89	-0.06	0.750			
0.6796	43496.37	3.6150	3.6149	0.7816	24.90	-0.05	0.750			
0.6819	43643.44	3.6120	3.6122	0.7392	24.91	-0.04	0.750			
0.6841	43783.12	3.6090	3.6091	0.6936	24.92	-0.03	0.750			
0.6862	43915.51	3.6060	3.6061	0.6336	24.93	-0.02	0.750			
0.6880	44033.49	3.6030	3.6030	0.5750	24.93	-0.02	0.750			
0.6896	44136.12	3.6000	3.6002	0.5110	24.94	-0.01	0.750			
0.6911	44227.50	3.5970	3.5971	0.4595	24.95	-0.00	0.750			
0.6923	44310.00	3.5940	3.5938	0.4051	24.95	0.00	0.750			
0.6935	44381.76	3.5910	3.5913	0.3559	24.96	0.01	0.750			
0.6945	44445.55	3.5880	3.5885	0.3129	24.96	0.01	0.750			
0.6953	44501.77	3.5850	3.5854	0.2688	24.96	0.01	0.750			
0.6961	44548.20	3.5820	3.5831	0.2208	24.97	0.02	0.750			
0.6966	44583.20	3.5790	3.5802	0.1775	24.97	0.02	0.750			
0.6971	44613.23	3.5760	3.5777	0.1496	24.97	0.02	0.750			
0.6975	44639.19	3.5730	3.5742	0.1022	24.97	0.02	0.750			
