Ah_balance (normalized)	Ah_balance (mAh)	Voltage - fit (V)	Voltage -  interpolate (V)	dQ/dV (1/V)	Temperature (°C)	Temperature - diff (°C)	Current (C)	R_DC 0ms (mOhm)	R_DC 50ms (mOhm)	R_DC 50 ms PEC (mOhm)
0.0497	3179.04	4.1960	4.1960	0.7419	25.56	0.66	0.750			
0.0519	3322.55	4.1930	4.1929	0.7497	25.56	0.66	0.750			
0.0542	3467.34	4.1900	4.1900	0.7544	25.56	0.66	0.750			
0.0565	3613.92	4.1870	4.1870	0.7517	25.56	0.66	0.750			
0.0587	3757.84	4.1840	4.1840	0.7545	25.55	0.65	0.750			
0.0610	3902.09	4.1810	4.1811	0.7565	25.55	0.65	0.750			
0.0632	4047.34	4.1780	4.1780	0.7618	25.55	0.65	0.750			
0.0656	4195.21	4.1750	4.1749	0.7605	25.55	0.65	0.750			
0.0678	4341.36	4.1720	4.1721	0.7609	25.55	0.65	0.750			
0.0702	4490.65	4.1690	4.1689	0.7576	25.55	0.65	0.750			
0.0725	4638.10	4.1660	4.1659	0.7434	25.55	0.65	0.750			
0.0747	4778.73	4.1630	4.1629	0.7242	25.55	0.65	0.750			
0.0768	4912.78	4.1600	4.1602	0.7231	25.55	0.65	0.750			
0.0789	5048.10	4.1570	4.1570	0.7218	25.55	0.65	0.750			
0.0810	5186.52	4.1540	4.1538	0.7308	25.55	0.65	0.750			
0.0832	5325.95	4.1510	4.1510	0.7288	25.55	0.65	0.750			
0.0854	5467.21	4.1480	4.1482	0.7445	25.56	0.66	0.750			
0.0877	5613.24	4.1450	4.1451	0.7609	25.56	0.66	0.750			
0.0900	5760.54	4.1420	4.1408	0.7675	25.56	0.66	0.750			
0.0923	5908.24	4.1390	4.1391	0.7690	25.56	0.66	0.750			
0.0947	6057.86	4.1360	4.1361	0.7709	25.56	0.66	0.750			
0.0970	6207.08	4.1330	4.1331	0.7773	25.56	0.66	0.750			
0.0994	6359.16	4.1300	4.1299	0.7845	25.56	0.66	0.750			
0.1017	6505.70	4.1270	4.1268	0.7776	25.56	0.66	0.750			
0.1040	6654.94	4.1240	4.1241	0.7824	25.56	0.66	0.750			
0.1064	6807.53	4.1210	4.1210	0.7796	25.56	0.66	0.750			
0.1087	6957.07	4.1180	4.1180	0.7809	25.56	0.66	0.750			
0.1110	7106.07	4.1150	4.1151	0.7855	25.57	0.67	0.750			
0.1134	7254.90	4.1120	4.1119	0.7853	25.57	0.67	0.750			
0.1157	7406.35	4.1090	4.1090	0.7861	25.57	0.67	0.750			
0.1181	7558.79	4.1060	4.1061	0.7904	25.57	0.67	0.750			
0.1205	7712.02	4.1030	4.1030	0.7848	25.57	0.67	0.750			
0.1229	7862.84	4.1000	4.1000	0.7883	25.58	0.68	0.750			
0.1252	8010.78	4.0970	4.0971	0.7876	25.58	0.68	0.750			
0.1275	8161.67	4.0940	4.0932	0.7917	25.58	0.68	0.750			
0.1299	8315.24	4.0910	4.0911	0.7929	25.58	0.68	0.750			
0.1324	8471.95	4.0880	4.0881	0.7824	25.58	0.68	0.750			
0.1347	8620.93	4.0850	4.0851	0.7968	25.59	0.69	0.750			
0.1371	8773.76	4.0820	4.0820	0.8000	25.59	0.69	0.750			
0.1394	8921.32	4.0790	4.0788	0.7986	25.59	0.69	0.750			
0.1418	9076.36	4.0760	4.0762	0.8068	25.59	0.69	0.750			
0.1443	9233.57	4.0730	4.0731	0.8140	25.59	0.69	0.750			
0.1468	9392.59	4.0700	4.0701	0.8179	25.59	0.69	0.750			
0.1492	9550.70	4.0670	4.0670	0.8116	25.59	0.69	0.750			
0.1517	9706.52	4.0640	4.0640	0.8146	25.59	0.69	0.750			
0.1541	9863.82	4.0610	4.0610	0.8148	25.59	0.69	0.750			
0.1566	10023.32	4.0580	4.0579	0.8009	25.59	0.69	0.750			
0.1590	10174.52	4.0550	4.0551	0.8094	25.59	0.69	0.750			
0.1614	10328.13	4.0520	4.0521	0.8163	25.59	0.69	0.750			
0.1638	10484.17	4.0490	4.0491	0.8219	25.59	0.69	0.750			
0.1663	10641.11	4.0460	4.0461	0.8285	25.59	0.69	0.750			
0.1688	10801.75	4.0430	4.0431	0.8356	25.60	0.70	0.750			
0.1713	10965.09	4.0400	4.0401	0.8337	25.60	0.70	0.750			
0.1738	11125.39	4.0370	4.0371	0.8385	25.60	0.70	0.750			
0.1763	11283.05	4.0340	4.0342	0.8369	25.61	0.71	0.750			
0.1788	11444.68	4.0310	4.0311	0.8419	25.61	0.71	0.750			
0.1814	11607.00	4.0280	4.0281	0.8461	25.61	0.71	0.750			
0.1839	11771.41	4.0250	4.0251	0.8510	25.62	0.72	0.750			
0.1865	11936.69	4.0220	4.0219	0.8527	25.62	0.72	0.750			
0.1891	12099.50	4.0190	4.0190	0.8491	25.62	0.72	0.750			
0.1916	12262.52	4.0160	4.0160	0.8528	25.62	0.72	0.750			
0.1942	12425.70	4.0130	4.0130	0.8552	25.62	0.72	0.750			
0.1967	12587.84	4.0100	4.0100	0.8503	25.63	0.73	0.750			
0.1992	12749.67	4.0070	4.0072	0.8548	25.63	0.73	0.750			
0.2018	12913.03	4.0040	4.0040	0.8592	25.63	0.73	0.750			
0.2044	13078.85	4.0010	4.0012	0.8667	25.63	0.73	0.750			
0.2070	13246.52	3.9980	3.9982	0.8658	25.63	0.73	0.750			
0.2096	13414.32	3.9950	3.9950	0.8707	25.63	0.73	0.750			
0.2123	13587.00	3.9920	3.9920	0.8905	25.63	0.73	0.750			
0.2148	13749.81	3.9890	3.9885	0.8727	25.63	0.73	0.750			
0.2175	13919.99	3.9860	3.9860	0.8718	25.63	0.73	0.750			
0.2201	14087.04	3.9830	3.9831	0.8761	25.64	0.74	0.750			
0.2228	14256.00	3.9800	3.9800	0.8807	25.64	0.74	0.750			
0.2254	14425.25	3.9770	3.9770	0.8846	25.65	0.75	0.750			
0.2280	14592.41	3.9740	3.9739	0.8818	25.65	0.75	0.750			
0.2306	14761.57	3.9710	3.9710	0.8843	25.65	0.75	0.750			
0.2333	14933.33	3.9680	3.9680	0.8756	25.65	0.75	0.750			
0.2359	15098.70	3.9650	3.9652	0.8845	25.65	0.75	0.750			
0.2386	15267.28	3.9620	3.9622	0.8857	25.65	0.75	0.750			
0.2412	15437.08	3.9590	3.9592	0.8918	25.65	0.75	0.750			
0.2439	15610.26	3.9560	3.9561	0.8919	25.65	0.75	0.750			
0.2466	15782.69	3.9530	3.9531	0.8994	25.65	0.75	0.750			
0.2493	15957.48	3.9500	3.9501	0.9031	25.65	0.75	0.750			
0.2520	16128.69	3.9470	3.9467	0.8990	25.65	0.75	0.750			
0.2547	16303.36	3.9440	3.9440	0.8962	25.65	0.75	0.750			
0.2574	16476.39	3.9410	3.9410	0.9007	25.65	0.75	0.750			
0.2601	16649.35	3.9380	3.9380	0.9005	25.65	0.75	0.750			
0.2629	16823.99	3.9350	3.9351	0.9057	25.65	0.75	0.750			
0.2655	16994.58	3.9320	3.9321	0.9008	25.65	0.75	0.750			
0.2683	17169.61	3.9290	3.9289	0.8951	25.65	0.75	0.750			
0.2709	17339.00	3.9260	3.9261	0.8970	25.65	0.75	0.750			
0.2736	17512.07	3.9230	3.9231	0.9044	25.65	0.75	0.750			
0.2764	17686.55	3.9200	3.9201	0.9045	25.65	0.75	0.750			
0.2791	17860.61	3.9170	3.9170	0.9047	25.65	0.75	0.750			
0.2818	18034.95	3.9140	3.9141	0.8915	25.65	0.75	0.750			
0.2845	18205.41	3.9110	3.9111	0.8899	25.65	0.75	0.750			
0.2871	18376.54	3.9080	3.9081	0.8992	25.65	0.75	0.750			
0.2898	18544.90	3.9050	3.9045	0.8945	25.65	0.75	0.750			
0.2924	18715.89	3.9020	3.9021	0.8935	25.64	0.74	0.750			
0.2951	18889.45	3.8990	3.8992	0.9013	25.64	0.74	0.750			
0.2979	19065.41	3.8960	3.8960	0.9099	25.63	0.73	0.750			
0.3007	19241.96	3.8930	3.8929	0.9165	25.62	0.72	0.750			
0.3033	19413.64	3.8900	3.8901	0.9080	25.62	0.72	0.750			
0.3061	19589.27	3.8870	3.8869	0.9015	25.62	0.72	0.750			
0.3088	19763.33	3.8840	3.8841	0.9049	25.61	0.71	0.750			
0.3115	19937.11	3.8810	3.8811	0.9070	25.61	0.71	0.750			
0.3142	20110.69	3.8780	3.8778	0.9054	25.61	0.71	0.750			
0.3169	20284.12	3.8750	3.8751	0.9034	25.60	0.70	0.750			
0.3196	20454.67	3.8720	3.8721	0.8993	25.60	0.70	0.750			
0.3223	20628.49	3.8690	3.8691	0.9073	25.59	0.69	0.750			
0.3251	20803.89	3.8660	3.8660	0.9138	25.58	0.68	0.750			
0.3278	20977.62	3.8630	3.8626	0.9114	25.57	0.67	0.750			
0.3305	21154.21	3.8600	3.8601	0.9092	25.56	0.66	0.750			
0.3333	21328.36	3.8570	3.8571	0.9219	25.55	0.65	0.750			
0.3361	21507.37	3.8540	3.8540	0.9274	25.54	0.64	0.750			
0.3388	21683.64	3.8510	3.8509	0.9184	25.53	0.63	0.750			
0.3416	21861.75	3.8480	3.8481	0.9310	25.52	0.62	0.750			
0.3444	22039.60	3.8450	3.8452	0.9118	25.51	0.61	0.750			
0.3470	22209.20	3.8420	3.8421	0.9276	25.50	0.60	0.750			
0.3498	22384.10	3.8390	3.8393	0.9352	25.49	0.59	0.750	0.315	0.456	
0.3526	22566.22	3.8360	3.8355	0.9517	25.48	0.58	0.750			
0.3555	22752.02	3.8330	3.8333	0.9726	25.47	0.57	0.750			
0.3585	22941.61	3.8300	3.8302	0.9731	25.47	0.57	0.750			
0.3615	23138.43	3.8270	3.8270	0.9955	25.46	0.56	0.750			
0.3643	23316.93	3.8240	3.8237	0.9677	25.45	0.55	0.750			
0.3673	23504.31	3.8210	3.8211	0.9789	25.44	0.54	0.750			
0.3702	23692.31	3.8180	3.8181	0.9873	25.43	0.53	0.750			
0.3732	23883.97	3.8150	3.8150	0.9982	25.42	0.52	0.750			
0.3763	24081.55	3.8120	3.8119	1.0140	25.40	0.50	0.750			
0.3793	24272.43	3.8090	3.8090	1.0017	25.40	0.50	0.750			
0.3822	24463.51	3.8060	3.8060	1.0155	25.39	0.49	0.750			
0.3853	24659.05	3.8030	3.8031	1.0321	25.38	0.48	0.750			
0.3884	24857.87	3.8000	3.8000	1.0464	25.37	0.47	0.750			
0.3916	25062.59	3.7970	3.7970	1.0457	25.36	0.46	0.750			
0.3947	25263.71	3.7940	3.7941	1.0673	25.35	0.45	0.750			
0.3980	25469.33	3.7910	3.7911	1.0889	25.34	0.44	0.750			
0.4013	25681.35	3.7880	3.7879	1.1085	25.32	0.42	0.750			
0.4046	25892.47	3.7850	3.7851	1.1157	25.31	0.41	0.750			
0.4079	26108.71	3.7820	3.7821	1.1299	25.30	0.40	0.750			
0.4114	26327.95	3.7790	3.7791	1.1530	25.28	0.38	0.750			
0.4149	26556.78	3.7760	3.7758	1.1661	25.27	0.37	0.750			
0.4184	26774.45	3.7730	3.7730	1.1839	25.26	0.36	0.750			
0.4219	27002.07	3.7700	3.7700	1.2133	25.24	0.34	0.750			
0.4257	27243.28	3.7670	3.7671	1.2242	25.23	0.33	0.750			
0.4293	27477.20	3.7640	3.7641	1.2542	25.21	0.31	0.750			
0.4331	27719.49	3.7610	3.7612	1.2883	25.20	0.30	0.750			
0.4370	27970.67	3.7580	3.7582	1.3120	25.19	0.29	0.750			
0.4410	28225.74	3.7550	3.7548	1.3480	25.18	0.28	0.750			
0.4452	28489.91	3.7520	3.7521	1.3542	25.16	0.26	0.750			
0.4492	28747.63	3.7490	3.7493	1.4123	25.15	0.25	0.750			
0.4535	29024.32	3.7460	3.7459	1.4424	25.14	0.24	0.750			
0.4578	29300.03	3.7430	3.7432	1.4662	25.12	0.22	0.750			
0.4623	29586.62	3.7400	3.7401	1.4914	25.10	0.20	0.750			
0.4668	29876.85	3.7370	3.7370	1.5484	25.08	0.18	0.750			
0.4715	30176.14	3.7340	3.7340	1.5914	25.06	0.16	0.750			
0.4764	30490.74	3.7310	3.7310	1.6245	25.04	0.14	0.750			
0.4814	30809.62	3.7280	3.7276	1.6992	25.03	0.13	0.750			
0.4864	31129.90	3.7250	3.7248	1.7133	25.01	0.11	0.750			
0.4917	31465.91	3.7220	3.7219	1.7536	24.99	0.09	0.750			
0.4969	31802.98	3.7190	3.7187	1.8456	24.98	0.08	0.750			
0.5026	32168.00	3.7160	3.7156	1.8579	24.96	0.06	0.750			
0.5084	32537.62	3.7130	3.7130	1.9380	24.94	0.04	0.750			
0.5144	32922.00	3.7100	3.7097	1.9818	24.92	0.02	0.750			
0.5204	33302.66	3.7070	3.7070	2.0390	24.90	0.00	0.750			
0.5264	33687.63	3.7040	3.7040	2.0755	24.88	-0.02	0.750			
0.5327	34091.30	3.7010	3.7015	2.1932	24.86	-0.04	0.750			
0.5392	34507.21	3.6980	3.6980	2.2346	24.84	-0.06	0.750			
0.5461	34953.03	3.6950	3.6949	2.3196	24.83	-0.07	0.750			
0.5533	35409.40	3.6920	3.6923	2.4015	24.82	-0.08	0.750			
0.5604	35867.64	3.6890	3.6890	2.3627	24.81	-0.09	0.750			
0.5677	36331.52	3.6860	3.6861	2.4512	24.80	-0.10	0.750			
0.5750	36798.96	3.6830	3.6834	2.4644	24.78	-0.12	0.750			
0.5826	37284.41	3.6800	3.6801	2.5117	24.77	-0.13	0.750			
0.5902	37775.74	3.6770	3.6768	2.5494	24.76	-0.14	0.750			
0.5979	38263.99	3.6740	3.6738	2.5224	24.76	-0.14	0.750			
0.6053	38740.02	3.6710	3.6710	2.4110	24.76	-0.14	0.750			
0.6124	39196.48	3.6680	3.6685	2.2959	24.76	-0.14	0.750			
0.6189	39612.72	3.6650	3.6652	2.1573	24.76	-0.14	0.750			
0.6252	40015.00	3.6620	3.6625	1.9973	24.76	-0.14	0.750			
0.6312	40394.59	3.6590	3.6589	1.8648	24.77	-0.13	0.750			
0.6366	40744.99	3.6560	3.6561	1.6965	24.77	-0.13	0.750			
0.6416	41060.61	3.6530	3.6530	1.5769	24.78	-0.12	0.750			
0.6460	41343.38	3.6500	3.6500	1.4561	24.79	-0.11	0.750			
0.6499	41591.84	3.6470	3.6472	1.3270	24.80	-0.10	0.750			
0.6538	41842.89	3.6440	3.6437	1.2338	24.80	-0.10	0.750			
0.6573	42068.44	3.6410	3.6412	1.1665	24.81	-0.09	0.750			
0.6607	42283.44	3.6380	3.6382	1.1146	24.81	-0.09	0.750			
0.6640	42493.73	3.6350	3.6350	1.0666	24.82	-0.08	0.750			
0.6670	42688.78	3.6320	3.6321	1.0059	24.83	-0.07	0.750			
0.6699	42875.31	3.6290	3.6292	0.9711	24.84	-0.06	0.750			
0.6728	43061.35	3.6260	3.6261	0.9423	24.85	-0.05	0.750			
0.6757	43244.53	3.6230	3.6230	0.9157	24.85	-0.05	0.750			
0.6783	43412.78	3.6200	3.6200	0.8673	24.86	-0.04	0.750			
0.6809	43576.64	3.6170	3.6170	0.8243	24.87	-0.03	0.750			
0.6833	43733.63	3.6140	3.6140	0.7819	24.88	-0.02	0.750			
0.6856	43877.26	3.6110	3.6111	0.7237	24.89	-0.01	0.750			
0.6876	44009.29	3.6080	3.6082	0.6733	24.89	-0.01	0.750			
0.6896	44134.47	3.6050	3.6046	0.6243	24.90	-0.00	0.750			
0.6914	44248.60	3.6020	3.6021	0.5730	24.90	0.00	0.750			
0.6931	44355.49	3.5990	3.5992	0.5138	24.91	0.01	0.750			
0.6945	44449.85	3.5960	3.5962	0.4655	24.91	0.01	0.750			
0.6959	44538.12	3.5930	3.5929	0.4223	24.92	0.02	0.750			
0.6970	44607.29	3.5900	3.5898	0.3624	24.92	0.02	0.750			
0.6980	44671.87	3.5870	3.5871	0.3109	24.93	0.03	0.750			
0.6989	44727.50	3.5840	3.5843	0.2661	24.93	0.03	0.750			
0.6996	44776.30	3.5810	3.5812	0.2213	24.93	0.03	0.750			
0.7003	44819.20	3.5780	3.5777	0.1651	24.93	0.03	0.750			
0.7007	44843.22	3.5750	3.5754	0.1085	24.93	0.03	0.750			
0.7009	44858.57	3.5720	3.5723	0.0562	24.94	0.04	0.750			
