Ah_balance (normalized)	Ah_balance (mAh)	Voltage - fit (V)	Voltage -  interpolate (V)	dQ/dV (1/V)	Temperature (°C)	Temperature - diff (°C)	Current (C)	R_DC 0ms (mOhm)	R_DC 50ms (mOhm)	R_DC 50 ms PEC (mOhm)
0.0474	3031.17	4.1980	4.1980	0.7309	25.85	0.57	0.750			
0.0496	3174.46	4.1950	4.1948	0.7574	25.85	0.57	0.750			
0.0519	3321.47	4.1920	4.1921	0.7646	25.85	0.57	0.750			
0.0542	3470.49	4.1890	4.1889	0.7621	25.85	0.57	0.750			
0.0565	3616.11	4.1860	4.1861	0.7624	25.85	0.57	0.750			
0.0588	3761.40	4.1830	4.1830	0.7589	25.85	0.57	0.750			
0.0611	3907.48	4.1800	4.1800	0.7612	25.85	0.57	0.750			
0.0633	4052.60	4.1770	4.1771	0.7621	25.85	0.57	0.750			
0.0656	4199.65	4.1740	4.1741	0.7647	25.85	0.57	0.750			
0.0679	4348.14	4.1710	4.1710	0.7666	25.85	0.57	0.750			
0.0702	4495.76	4.1680	4.1681	0.7672	25.85	0.57	0.750			
0.0725	4641.90	4.1650	4.1650	0.7645	25.85	0.57	0.750			
0.0748	4788.79	4.1620	4.1620	0.7684	25.85	0.57	0.750			
0.0771	4936.47	4.1590	4.1590	0.7687	25.85	0.57	0.750			
0.0795	5085.00	4.1560	4.1560	0.7662	25.85	0.57	0.750			
0.0818	5233.49	4.1530	4.1530	0.7665	25.85	0.57	0.750			
0.0841	5379.73	4.1500	4.1501	0.7692	25.85	0.57	0.750			
0.0863	5526.29	4.1470	4.1470	0.7707	25.85	0.57	0.750			
0.0887	5674.09	4.1440	4.1440	0.7743	25.85	0.57	0.750			
0.0910	5822.68	4.1410	4.1410	0.7760	25.85	0.57	0.750			
0.0933	5973.21	4.1380	4.1380	0.7738	25.85	0.57	0.750			
0.0957	6121.71	4.1350	4.1351	0.7829	25.85	0.57	0.750			
0.0980	6271.10	4.1320	4.1321	0.7825	25.85	0.57	0.750			
0.1003	6421.32	4.1290	4.1286	0.7831	25.85	0.57	0.750			
0.1027	6572.24	4.1260	4.1261	0.7828	25.85	0.57	0.750			
0.1050	6722.99	4.1230	4.1231	0.7860	25.84	0.56	0.750			
0.1074	6875.95	4.1200	4.1200	0.7908	25.84	0.56	0.750			
0.1098	7026.07	4.1170	4.1169	0.7840	25.83	0.55	0.750			
0.1121	7176.44	4.1140	4.1139	0.7890	25.83	0.55	0.750			
0.1145	7328.64	4.1110	4.1111	0.7934	25.83	0.55	0.750			
0.1169	7482.83	4.1080	4.1080	0.7911	25.83	0.55	0.750			
0.1193	7635.77	4.1050	4.1049	0.7965	25.83	0.55	0.750			
0.1217	7787.28	4.1020	4.1021	0.7966	25.83	0.55	0.750			
0.1241	7939.65	4.0990	4.0989	0.7980	25.83	0.55	0.750			
0.1265	8093.21	4.0960	4.0961	0.8008	25.83	0.55	0.750			
0.1289	8250.54	4.0930	4.0929	0.7914	25.83	0.55	0.750			
0.1313	8400.83	4.0900	4.0901	0.7954	25.83	0.55	0.750			
0.1336	8553.00	4.0870	4.0871	0.8031	25.83	0.55	0.750			
0.1360	8705.60	4.0840	4.0841	0.7998	25.83	0.55	0.750			
0.1384	8858.32	4.0810	4.0810	0.8046	25.83	0.55	0.750			
0.1408	9014.31	4.0780	4.0782	0.8102	25.83	0.55	0.750			
0.1433	9171.15	4.0750	4.0750	0.8188	25.83	0.55	0.750			
0.1458	9330.29	4.0720	4.0720	0.8255	25.83	0.55	0.750			
0.1483	9488.32	4.0690	4.0690	0.8220	25.83	0.55	0.750			
0.1507	9646.12	4.0660	4.0660	0.8257	25.83	0.55	0.750			
0.1533	9808.94	4.0630	4.0630	0.8243	25.83	0.55	0.750			
0.1557	9966.09	4.0600	4.0600	0.8241	25.83	0.55	0.750			
0.1582	10123.44	4.0570	4.0571	0.8269	25.84	0.56	0.750			
0.1606	10281.04	4.0540	4.0541	0.8286	25.84	0.56	0.750			
0.1631	10439.92	4.0510	4.0509	0.8304	25.84	0.56	0.750			
0.1657	10601.84	4.0480	4.0480	0.8281	25.84	0.56	0.750			
0.1681	10760.71	4.0450	4.0450	0.8337	25.84	0.56	0.750			
0.1706	10920.88	4.0420	4.0421	0.8393	25.83	0.55	0.750			
0.1731	11081.32	4.0390	4.0390	0.8395	25.83	0.55	0.750			
0.1757	11242.31	4.0360	4.0361	0.8408	25.83	0.55	0.750			
0.1782	11404.72	4.0330	4.0330	0.8483	25.83	0.55	0.750			
0.1808	11569.25	4.0300	4.0301	0.8523	25.83	0.55	0.750			
0.1833	11733.31	4.0270	4.0270	0.8564	25.84	0.56	0.750			
0.1859	11897.66	4.0240	4.0240	0.8550	25.84	0.56	0.750			
0.1885	12061.99	4.0210	4.0209	0.8583	25.84	0.56	0.750			
0.1911	12228.50	4.0180	4.0180	0.8558	25.84	0.56	0.750			
0.1936	12392.60	4.0150	4.0150	0.8596	25.84	0.56	0.750			
0.1962	12556.33	4.0120	4.0120	0.8644	25.85	0.57	0.750			
0.1988	12722.18	4.0090	4.0091	0.8686	25.85	0.57	0.750			
0.2014	12889.54	4.0060	4.0060	0.8701	25.85	0.57	0.750			
0.2041	13059.70	4.0030	4.0030	0.8667	25.85	0.57	0.750			
0.2066	13224.90	4.0000	4.0001	0.8727	25.85	0.57	0.750			
0.2092	13390.77	3.9970	3.9971	0.8758	25.85	0.57	0.750			
0.2119	13559.95	3.9940	3.9938	0.8803	25.85	0.57	0.750			
0.2145	13729.75	3.9910	3.9910	0.8827	25.85	0.57	0.750			
0.2172	13900.80	3.9880	3.9881	0.8866	25.85	0.57	0.750			
0.2199	14072.70	3.9850	3.9852	0.8907	25.85	0.57	0.750			
0.2226	14246.78	3.9820	3.9819	0.8922	25.85	0.57	0.750			
0.2252	14413.24	3.9790	3.9790	0.8897	25.85	0.57	0.750			
0.2279	14585.46	3.9760	3.9760	0.8880	25.85	0.57	0.750			
0.2306	14756.96	3.9730	3.9729	0.8932	25.85	0.57	0.750			
0.2332	14927.57	3.9700	3.9700	0.8954	25.85	0.57	0.750			
0.2360	15103.59	3.9670	3.9670	0.8744	25.85	0.57	0.750			
0.2386	15269.26	3.9640	3.9640	0.8594	25.85	0.57	0.750			
0.2412	15434.87	3.9610	3.9612	0.8482	25.85	0.57	0.750			
0.2436	15588.85	3.9580	3.9578	0.8556	25.85	0.57	0.750			
0.2461	15750.51	3.9550	3.9549	0.8671	25.85	0.57	0.750			
0.2487	15917.50	3.9520	3.9522	0.8811	25.85	0.57	0.750			
0.2514	16088.61	3.9490	3.9491	0.8991	25.85	0.57	0.750			
0.2542	16268.91	3.9460	3.9462	0.9129	25.85	0.57	0.750			
0.2570	16445.64	3.9430	3.9430	0.9167	25.85	0.57	0.750			
0.2597	16623.22	3.9400	3.9400	0.9150	25.85	0.57	0.750			
0.2624	16795.63	3.9370	3.9368	0.9103	25.85	0.57	0.750			
0.2652	16971.43	3.9340	3.9341	0.9159	25.85	0.57	0.750			
0.2679	17147.51	3.9310	3.9310	0.9063	25.85	0.57	0.750			
0.2706	17319.62	3.9280	3.9280	0.9129	25.85	0.57	0.750			
0.2734	17494.91	3.9250	3.9251	0.9177	25.85	0.57	0.750			
0.2761	17670.36	3.9220	3.9222	0.9188	25.85	0.57	0.750			
0.2789	17851.55	3.9190	3.9191	0.9004	25.85	0.57	0.750			
0.2816	18021.68	3.9160	3.9161	0.9131	25.85	0.57	0.750			
0.2843	18197.79	3.9130	3.9132	0.9208	25.85	0.57	0.750			
0.2871	18371.55	3.9100	3.9096	0.9193	25.85	0.57	0.750			
0.2898	18549.86	3.9070	3.9072	0.9241	25.85	0.57	0.750			
0.2926	18728.66	3.9040	3.9041	0.9330	25.85	0.57	0.750			
0.2955	18910.65	3.9010	3.9011	0.9405	25.84	0.56	0.750			
0.2984	19094.60	3.8980	3.8981	0.9298	25.84	0.56	0.750			
0.3012	19273.72	3.8950	3.8949	0.9298	25.84	0.56	0.750			
0.3039	19451.41	3.8920	3.8921	0.9244	25.84	0.56	0.750			
0.3067	19627.37	3.8890	3.8890	0.9264	25.83	0.55	0.750			
0.3095	19805.42	3.8860	3.8860	0.9341	25.83	0.55	0.750			
0.3122	19983.64	3.8830	3.8825	0.9323	25.83	0.55	0.750			
0.3151	20169.20	3.8800	3.8800	0.9225	25.82	0.54	0.750			
0.3179	20343.95	3.8770	3.8771	0.9287	25.82	0.54	0.750			
0.3206	20520.27	3.8740	3.8742	0.9359	25.81	0.53	0.750			
0.3234	20700.21	3.8710	3.8711	0.9395	25.80	0.52	0.750			
0.3262	20878.29	3.8680	3.8681	0.9347	25.80	0.52	0.750			
0.3290	21058.49	3.8650	3.8652	0.9428	25.79	0.51	0.750			
0.3319	21243.51	3.8620	3.8621	0.9504	25.78	0.50	0.750			
0.3348	21427.62	3.8590	3.8590	0.9520	25.78	0.50	0.750			
0.3376	21608.45	3.8560	3.8559	0.9428	25.77	0.49	0.750			
0.3405	21791.59	3.8530	3.8530	0.9334	25.77	0.49	0.750			
0.3433	21968.81	3.8500	3.8500	0.9435	25.76	0.48	0.750			
0.3461	22149.75	3.8470	3.8471	0.9465	25.76	0.48	0.750			
0.3489	22329.55	3.8440	3.8439	0.9507	25.75	0.47	0.750			
0.3518	22516.60	3.8410	3.8411	0.9514	25.74	0.46	0.750			
0.3547	22699.47	3.8380	3.8381	0.9612	25.73	0.45	0.750			
0.3576	22883.91	3.8350	3.8347	0.9737	25.73	0.45	0.750	0.318	0.429	
0.3605	23073.08	3.8320	3.8323	0.9880	25.72	0.44	0.750			
0.3635	23262.20	3.8290	3.8291	0.9794	25.71	0.43	0.750			
0.3665	23453.16	3.8260	3.8260	0.9851	25.70	0.42	0.750			
0.3694	23641.06	3.8230	3.8231	0.9808	25.69	0.41	0.750			
0.3724	23831.07	3.8200	3.8201	0.9847	25.68	0.40	0.750			
0.3753	24018.86	3.8170	3.8169	0.9823	25.67	0.39	0.750			
0.3782	24206.91	3.8140	3.8140	0.9789	25.66	0.38	0.750			
0.3811	24392.04	3.8110	3.8110	0.9902	25.65	0.37	0.750			
0.3841	24583.03	3.8080	3.8081	1.0157	25.64	0.36	0.750			
0.3872	24780.18	3.8050	3.8045	1.0296	25.63	0.35	0.750			
0.3903	24979.63	3.8020	3.8021	1.0462	25.62	0.34	0.750			
0.3934	25178.25	3.7990	3.7991	1.0470	25.61	0.33	0.750			
0.3965	25378.79	3.7960	3.7962	1.0656	25.60	0.32	0.750			
0.3997	25582.31	3.7930	3.7923	1.0776	25.59	0.31	0.750			
0.4030	25792.91	3.7900	3.7901	1.1031	25.58	0.30	0.750			
0.4063	26006.16	3.7870	3.7872	1.1240	25.57	0.29	0.750			
0.4098	26229.56	3.7840	3.7841	1.1452	25.56	0.28	0.750			
0.4135	26464.32	3.7810	3.7808	1.1551	25.55	0.27	0.750			
0.4168	26673.56	3.7780	3.7781	1.1536	25.54	0.26	0.750			
0.4202	26893.13	3.7750	3.7751	1.1772	25.53	0.25	0.750			
0.4237	27119.45	3.7720	3.7719	1.2056	25.52	0.24	0.750			
0.4274	27351.80	3.7690	3.7691	1.2139	25.51	0.23	0.750			
0.4310	27583.96	3.7660	3.7662	1.2456	25.50	0.22	0.750			
0.4348	27826.00	3.7630	3.7632	1.2845	25.48	0.20	0.750			
0.4387	28078.79	3.7600	3.7599	1.3222	25.47	0.19	0.750			
0.4427	28331.26	3.7570	3.7572	1.3426	25.45	0.17	0.750			
0.4468	28597.21	3.7540	3.7541	1.3663	25.44	0.16	0.750			
0.4510	28865.55	3.7510	3.7511	1.4072	25.43	0.15	0.750			
0.4555	29151.01	3.7480	3.7478	1.4144	25.41	0.13	0.750			
0.4595	29408.67	3.7450	3.7451	1.4273	25.40	0.12	0.750			
0.4638	29681.49	3.7420	3.7422	1.4581	25.39	0.11	0.750			
0.4682	29967.66	3.7390	3.7392	1.4803	25.38	0.10	0.750			
0.4728	30256.51	3.7360	3.7362	1.5320	25.37	0.09	0.750			
0.4775	30557.25	3.7330	3.7326	1.5790	25.35	0.07	0.750			
0.4822	30858.07	3.7300	3.7305	1.6522	25.34	0.06	0.750			
0.4873	31187.58	3.7270	3.7272	1.7024	25.32	0.04	0.750			
0.4924	31512.09	3.7240	3.7241	1.7467	25.31	0.03	0.750			
0.4977	31851.56	3.7210	3.7213	1.7609	25.30	0.02	0.750			
0.5032	32202.50	3.7180	3.7175	1.8486	25.28	-0.00	0.750			
0.5087	32559.90	3.7150	3.7148	1.8970	25.26	-0.02	0.750			
0.5146	32932.58	3.7120	3.7125	1.9609	25.24	-0.04	0.750			
0.5204	33306.19	3.7090	3.7092	2.0343	25.23	-0.05	0.750			
0.5265	33697.47	3.7060	3.7060	2.1109	25.22	-0.06	0.750			
0.5330	34110.25	3.7030	3.7025	2.0997	25.21	-0.07	0.750			
0.5391	34503.75	3.7000	3.7008	2.1229	25.20	-0.08	0.750			
0.5458	34930.20	3.6970	3.6969	2.1998	25.18	-0.10	0.750			
0.5524	35353.85	3.6940	3.6946	2.3303	25.16	-0.12	0.750			
0.5599	35832.78	3.6910	3.6905	2.4087	25.15	-0.13	0.750			
0.5667	36270.64	3.6880	3.6884	2.4981	25.13	-0.15	0.750			
0.5743	36754.19	3.6850	3.6850	2.4454	25.12	-0.16	0.750			
0.5818	37233.13	3.6820	3.6819	2.6905	25.11	-0.17	0.750			
0.5897	37742.59	3.6790	3.6792	2.7387	25.11	-0.17	0.750			
0.5978	38259.01	3.6760	3.6760	2.6002	25.10	-0.18	0.750			
0.6058	38772.71	3.6730	3.6727	2.8101	25.10	-0.18	0.750			
0.6141	39303.21	3.6700	3.6694	2.6192	25.10	-0.18	0.750			
0.6222	39818.88	3.6670	3.6672	2.7303	25.10	-0.18	0.750			
0.6297	40301.27	3.6640	3.6637	2.4438	25.11	-0.17	0.750			
0.6366	40743.78	3.6610	3.6610	2.2003	25.12	-0.16	0.750			
0.6429	41142.67	3.6580	3.6585	2.0873	25.12	-0.16	0.750			
0.6485	41505.18	3.6550	3.6554	1.8459	25.13	-0.15	0.750			
0.6540	41856.40	3.6520	3.6524	1.7490	25.14	-0.14	0.750			
0.6591	42182.99	3.6490	3.6494	1.6180	25.14	-0.14	0.750			
0.6637	42477.07	3.6460	3.6463	1.4686	25.15	-0.13	0.750			
0.6680	42754.70	3.6430	3.6431	1.3585	25.16	-0.12	0.750			
0.6718	42996.77	3.6400	3.6400	1.2472	25.17	-0.11	0.750			
0.6752	43214.74	3.6370	3.6369	1.1413	25.18	-0.10	0.750			
0.6785	43421.90	3.6340	3.6339	1.0420	25.19	-0.09	0.750			
0.6814	43608.34	3.6310	3.6311	1.0051	25.19	-0.09	0.750			
0.6843	43795.44	3.6280	3.6281	0.9748	25.19	-0.09	0.750			
0.6872	43977.68	3.6250	3.6245	0.9468	25.20	-0.08	0.750			
0.6899	44156.74	3.6220	3.6221	0.9233	25.21	-0.07	0.750			
0.6928	44337.59	3.6190	3.6190	0.8832	25.22	-0.06	0.750			
0.6955	44509.41	3.6160	3.6160	0.8427	25.23	-0.05	0.750			
0.6979	44665.43	3.6130	3.6132	0.7730	25.23	-0.05	0.750			
0.7001	44805.21	3.6100	3.6096	0.7352	25.24	-0.04	0.750			
0.7022	44938.12	3.6070	3.6078	0.6842	25.25	-0.03	0.750			
0.7042	45067.37	3.6040	3.6025	0.6338	25.25	-0.03	0.750			
0.7060	45186.43	3.6010	3.6016	0.5851	25.26	-0.02	0.750			
0.7078	45298.65	3.5980	3.5983	0.5317	25.27	-0.01	0.750			
0.7094	45398.50	3.5950	3.5950	0.4732	25.27	-0.01	0.750			
0.7106	45481.54	3.5920	3.5917	0.4057	25.27	-0.01	0.750			
0.7116	45544.34	3.5890	3.5890	0.3322	25.28	-0.00	0.750			
0.7125	45602.75	3.5860	3.5862	0.2807	25.28	0.00	0.750			
0.7133	45651.33	3.5830	3.5832	0.2310	25.28	0.00	0.750			
0.7139	45690.98	3.5800	3.5801	0.1828	25.28	0.00	0.750			
0.7144	45721.06	3.5770	3.5778	0.1374	25.29	0.01	0.750			
0.7147	45743.30	3.5740	3.5748	0.1144	25.29	0.01	0.750			
