Ah_balance (normalized)	Ah_balance (mAh)	Voltage - fit (V)	Voltage -  interpolate (V)	dQ/dV (1/V)	Temperature (°C)	Temperature - diff (°C)	Current (C)	R_DC 0ms (mOhm)	R_DC 50ms (mOhm)	R_DC 50 ms PEC (mOhm)
0.0002	11.82	4.1640	4.1636	-0.1163	24.60	0.02	-0.750			
0.0006	38.29	4.1610	4.1610	-0.1603	24.60	0.02	-0.750			
0.0012	74.06	4.1580	4.1578	-0.2046	24.60	0.02	-0.750			
0.0018	116.75	4.1550	4.1551	-0.2483	24.59	0.01	-0.750			
0.0026	169.35	4.1520	4.1520	-0.2954	24.59	0.01	-0.750			
0.0036	231.70	4.1490	4.1489	-0.3373	24.59	0.01	-0.750			
0.0047	301.20	4.1460	4.1458	-0.3761	24.58	0.00	-0.750			
0.0059	377.56	4.1430	4.1439	-0.4141	24.58	0.00	-0.750			
0.0072	461.76	4.1400	4.1399	-0.4499	24.58	-0.00	-0.750			
0.0086	551.78	4.1370	4.1369	-0.4810	24.57	-0.01	-0.750			
0.0101	646.59	4.1340	4.1341	-0.5096	24.57	-0.01	-0.750			
0.0117	745.64	4.1310	4.1311	-0.5372	24.56	-0.02	-0.750			
0.0133	854.12	4.1280	4.1280	-0.5720	24.56	-0.02	-0.750			
0.0151	967.27	4.1250	4.1250	-0.5958	24.55	-0.03	-0.750			
0.0170	1084.88	4.1220	4.1219	-0.6145	24.54	-0.04	-0.750			
0.0189	1206.59	4.1190	4.1191	-0.6360	24.54	-0.04	-0.750			
0.0208	1331.31	4.1160	4.1161	-0.6511	24.54	-0.04	-0.750			
0.0228	1457.49	4.1130	4.1130	-0.6656	24.53	-0.05	-0.750			
0.0248	1587.85	4.1100	4.1100	-0.6699	24.53	-0.05	-0.750			
0.0268	1715.79	4.1070	4.1071	-0.6793	24.53	-0.05	-0.750			
0.0289	1847.43	4.1040	4.1040	-0.6909	24.52	-0.06	-0.750			
0.0310	1981.95	4.1010	4.1015	-0.7000	24.52	-0.06	-0.750			
0.0331	2115.88	4.0980	4.0979	-0.7056	24.52	-0.06	-0.750			
0.0352	2250.15	4.0950	4.0952	-0.7226	24.52	-0.06	-0.750			
0.0374	2392.76	4.0920	4.0920	-0.7290	24.52	-0.06	-0.750			
0.0396	2537.20	4.0890	4.0888	-0.7347	24.52	-0.06	-0.750			
0.0418	2677.66	4.0860	4.0859	-0.7234	24.52	-0.06	-0.750			
0.0440	2816.24	4.0830	4.0829	-0.7244	24.52	-0.06	-0.750			
0.0461	2953.58	4.0800	4.0799	-0.7311	24.52	-0.06	-0.750			
0.0483	3090.85	4.0770	4.0768	-0.7319	24.51	-0.07	-0.750			
0.0505	3231.80	4.0740	4.0739	-0.7363	24.51	-0.07	-0.750			
0.0527	3373.09	4.0710	4.0712	-0.7441	24.51	-0.07	-0.750			
0.0550	3523.15	4.0680	4.0679	-0.7513	24.50	-0.08	-0.750			
0.0573	3667.40	4.0650	4.0652	-0.7542	24.50	-0.08	-0.750			
0.0595	3807.85	4.0620	4.0620	-0.7582	24.50	-0.08	-0.750			
0.0618	3954.43	4.0590	4.0588	-0.7605	24.50	-0.08	-0.750			
0.0641	4101.55	4.0560	4.0560	-0.7625	24.50	-0.08	-0.750			
0.0664	4249.47	4.0530	4.0530	-0.7630	24.50	-0.08	-0.750			
0.0687	4398.23	4.0500	4.0505	-0.7684	24.50	-0.08	-0.750			
0.0710	4546.47	4.0470	4.0468	-0.7684	24.50	-0.08	-0.750			
0.0733	4691.72	4.0440	4.0440	-0.7711	24.50	-0.08	-0.750			
0.0756	4840.97	4.0410	4.0411	-0.7740	24.51	-0.07	-0.750			
0.0780	4993.15	4.0380	4.0378	-0.7780	24.51	-0.07	-0.750			
0.0803	5141.60	4.0350	4.0349	-0.7755	24.51	-0.07	-0.750			
0.0827	5290.40	4.0320	4.0318	-0.7750	24.51	-0.07	-0.750			
0.0849	5435.62	4.0290	4.0290	-0.7797	24.51	-0.07	-0.750			
0.0873	5585.09	4.0260	4.0259	-0.7786	24.52	-0.06	-0.750			
0.0896	5733.96	4.0230	4.0230	-0.7756	24.52	-0.06	-0.750			
0.0920	5888.36	4.0200	4.0200	-0.7835	24.52	-0.06	-0.750			
0.0944	6039.53	4.0170	4.0170	-0.7840	24.52	-0.06	-0.750			
0.0966	6185.07	4.0140	4.0141	-0.7968	24.52	-0.06	-0.750			
0.0991	6341.49	4.0110	4.0108	-0.7866	24.52	-0.06	-0.750			
0.1014	6491.07	4.0080	4.0079	-0.7861	24.52	-0.06	-0.750			
0.1038	6644.68	4.0050	4.0048	-0.7949	24.52	-0.06	-0.750			
0.1062	6798.22	4.0020	4.0025	-0.7997	24.52	-0.06	-0.750			
0.1086	6951.58	3.9990	3.9987	-0.7955	24.52	-0.06	-0.750			
0.1110	7102.93	3.9960	3.9960	-0.7963	24.53	-0.05	-0.750			
0.1133	7253.13	3.9930	3.9930	-0.7859	24.53	-0.05	-0.750			
0.1158	7412.31	3.9900	3.9899	-0.8055	24.54	-0.04	-0.750			
0.1182	7563.96	3.9870	3.9870	-0.8005	24.54	-0.04	-0.750			
0.1206	7717.46	3.9840	3.9839	-0.8013	24.54	-0.04	-0.750			
0.1230	7871.55	3.9810	3.9810	-0.8091	24.54	-0.04	-0.750			
0.1254	8026.45	3.9780	3.9781	-0.8092	24.54	-0.04	-0.750			
0.1279	8185.33	3.9750	3.9749	-0.8249	24.54	-0.04	-0.750			
0.1303	8342.24	3.9720	3.9719	-0.8202	24.54	-0.04	-0.750			
0.1328	8500.13	3.9690	3.9690	-0.8165	24.54	-0.04	-0.750			
0.1353	8656.60	3.9660	3.9660	-0.8288	24.54	-0.04	-0.750			
0.1378	8818.60	3.9630	3.9629	-0.8261	24.55	-0.03	-0.750			
0.1402	8974.12	3.9600	3.9599	-0.8381	24.55	-0.03	-0.750			
0.1427	9135.90	3.9570	3.9571	-0.8518	24.55	-0.03	-0.750			
0.1453	9300.14	3.9540	3.9537	-0.8530	24.55	-0.03	-0.750			
0.1479	9468.08	3.9510	3.9510	-0.8714	24.55	-0.03	-0.750			
0.1506	9639.98	3.9480	3.9480	-0.8622	24.56	-0.02	-0.750			
0.1532	9803.12	3.9450	3.9449	-0.8512	24.56	-0.02	-0.750			
0.1558	9972.58	3.9420	3.9427	-0.8556	24.56	-0.02	-0.750			
0.1583	10131.57	3.9390	3.9388	-0.8390	24.56	-0.02	-0.750			
0.1608	10289.12	3.9360	3.9359	-0.8397	24.57	-0.01	-0.750			
0.1633	10449.95	3.9330	3.9329	-0.8426	24.57	-0.01	-0.750			
0.1658	10613.95	3.9300	3.9300	-0.8542	24.58	-0.00	-0.750			
0.1684	10778.35	3.9270	3.9273	-0.8552	24.58	-0.00	-0.750			
0.1710	10942.68	3.9240	3.9239	-0.8538	24.58	0.00	-0.750			
0.1736	11107.67	3.9210	3.9210	-0.8609	24.58	0.00	-0.750			
0.1761	11272.91	3.9180	3.9180	-0.8574	24.58	0.00	-0.750			
0.1787	11438.98	3.9150	3.9149	-0.8617	24.58	0.00	-0.750			
0.1813	11603.56	3.9120	3.9123	-0.8567	24.58	0.00	-0.750			
0.1838	11763.39	3.9090	3.9090	-0.8741	24.58	0.00	-0.750			
0.1865	11934.29	3.9060	3.9059	-0.8593	24.59	0.01	-0.750			
0.1890	12098.38	3.9030	3.9029	-0.8580	24.59	0.01	-0.750			
0.1916	12265.00	3.9000	3.8998	-0.8632	24.60	0.02	-0.750			
0.1942	12429.97	3.8970	3.8968	-0.8611	24.60	0.02	-0.750			
0.1968	12593.54	3.8940	3.8939	-0.8664	24.60	0.02	-0.750			
0.1994	12760.87	3.8910	3.8909	-0.8641	24.60	0.02	-0.750			
0.2020	12927.06	3.8880	3.8880	-0.8773	24.61	0.03	-0.750			
0.2046	13095.08	3.8850	3.8850	-0.8757	24.61	0.03	-0.750			
0.2072	13261.60	3.8820	3.8820	-0.8737	24.61	0.03	-0.750			
0.2098	13430.30	3.8790	3.8789	-0.8771	24.61	0.03	-0.750			
0.2125	13598.12	3.8760	3.8760	-0.8739	24.62	0.04	-0.750			
0.2151	13765.96	3.8730	3.8730	-0.8717	24.62	0.04	-0.750			
0.2177	13935.55	3.8700	3.8700	-0.8741	24.62	0.04	-0.750			
0.2203	14097.06	3.8670	3.8670	-0.8844	24.62	0.04	-0.750			
0.2230	14269.96	3.8640	3.8639	-0.8793	24.63	0.05	-0.750			
0.2256	14439.86	3.8610	3.8609	-0.8724	24.63	0.05	-0.750			
0.2282	14607.70	3.8580	3.8579	-0.8698	24.64	0.06	-0.750			
0.2309	14776.03	3.8550	3.8557	-0.8745	24.64	0.06	-0.750			
0.2335	14942.68	3.8520	3.8519	-0.8733	24.64	0.06	-0.750			
0.2361	15110.12	3.8490	3.8489	-0.8689	24.64	0.06	-0.750			
0.2387	15274.27	3.8460	3.8460	-0.8719	24.64	0.06	-0.750			
0.2413	15445.49	3.8430	3.8430	-0.8826	24.64	0.06	-0.750			
0.2440	15613.98	3.8400	3.8400	-0.8810	24.64	0.06	-0.750			
0.2466	15781.81	3.8370	3.8369	-0.8854	24.64	0.06	-0.750			
0.2492	15951.77	3.8340	3.8341	-0.8918	24.65	0.07	-0.750			
0.2519	16123.95	3.8310	3.8310	-0.8894	24.65	0.07	-0.750			
0.2547	16299.60	3.8280	3.8278	-0.9021	24.66	0.08	-0.750			
0.2574	16470.66	3.8250	3.8254	-0.8905	24.66	0.08	-0.750			
0.2600	16642.85	3.8220	3.8218	-0.8962	24.67	0.09	-0.750			
0.2627	16815.02	3.8190	3.8190	-0.8860	24.67	0.09	-0.750			
0.2654	16983.92	3.8160	3.8159	-0.8727	24.68	0.10	-0.750			
0.2680	17150.74	3.8130	3.8128	-0.8656	24.68	0.10	-0.750			
0.2706	17318.74	3.8100	3.8099	-0.8629	24.68	0.10	-0.750			
0.2731	17480.62	3.8070	3.8071	-0.8598	24.69	0.11	-0.750			
0.2757	17645.48	3.8040	3.8038	-0.8539	24.69	0.11	-0.750			
0.2783	17810.51	3.8010	3.8010	-0.8574	24.70	0.12	-0.750			
0.2809	17976.63	3.7980	3.7983	-0.8488	24.70	0.12	-0.750			
0.2834	18139.07	3.7950	3.7950	-0.8456	24.70	0.12	-0.750			
0.2859	18300.22	3.7920	3.7919	-0.8451	24.71	0.13	-0.750			
0.2884	18460.04	3.7890	3.7890	-0.8401	24.71	0.13	-0.750			
0.2910	18621.34	3.7860	3.7857	-0.8417	24.72	0.14	-0.750			
0.2935	18783.29	3.7830	3.7836	-0.8359	24.72	0.14	-0.750			
0.2960	18944.00	3.7800	3.7799	-0.8342	24.72	0.14	-0.750			
0.2985	19106.61	3.7770	3.7770	-0.8280	24.73	0.15	-0.750			
0.3010	19264.16	3.7740	3.7739	-0.8069	24.73	0.15	-0.750			
0.3035	19421.74	3.7710	3.7709	-0.8048	24.74	0.16	-0.750			
0.3058	19572.40	3.7680	3.7690	-0.7899	24.74	0.16	-0.750			
0.3081	19719.80	3.7650	3.7648	-0.7847	24.74	0.16	-0.750			
0.3104	19868.27	3.7620	3.7619	-0.7944	24.74	0.16	-0.750			
0.3128	20016.74	3.7590	3.7589	-0.7985	24.75	0.17	-0.750			
0.3152	20172.07	3.7560	3.7560	-0.8209	24.75	0.17	-0.750			
0.3177	20335.19	3.7530	3.7529	-0.8471	24.75	0.17	-0.750			
0.3203	20498.40	3.7500	3.7498	-0.8644	24.75	0.17	-0.750			
0.3229	20668.48	3.7470	3.7470	-0.8767	24.75	0.17	-0.750			
0.3256	20839.92	3.7440	3.7439	-0.8732	24.76	0.18	-0.750			
0.3283	21008.26	3.7410	3.7410	-0.8694	24.76	0.18	-0.750			
0.3309	21177.67	3.7380	3.7386	-0.8720	24.76	0.18	-0.750			
0.3334	21338.01	3.7350	3.7351	-0.8940	24.76	0.18	-0.750			
0.3361	21512.09	3.7320	3.7318	-0.8794	24.77	0.19	-0.750			
0.3388	21681.13	3.7290	3.7288	-0.8839	24.77	0.19	-0.750			
0.3414	21852.79	3.7260	3.7259	-0.8979	24.78	0.20	-0.750			
0.3442	22026.06	3.7230	3.7228	-0.9059	24.78	0.20	-0.750			
0.3469	22198.93	3.7200	3.7198	-0.9191	24.78	0.20	-0.750			
0.3496	22374.13	3.7170	3.7170	-0.9302	24.78	0.20	-0.750			
0.3524	22552.21	3.7140	3.7140	-0.9628	24.77	0.19	-0.750			
0.3552	22735.33	3.7110	3.7110	-1.0025	24.77	0.19	-0.750			
0.3583	22933.88	3.7080	3.7080	-1.0081	24.77	0.19	-0.750			
0.3614	23132.05	3.7050	3.7049	-1.0203	24.77	0.19	-0.750			
0.3646	23331.37	3.7020	3.7018	-1.0324	24.77	0.19	-0.750			
0.3677	23529.78	3.6990	3.6989	-1.0409	24.77	0.19	-0.750	0.363	0.483	
0.3708	23729.54	3.6960	3.6958	-1.0648	24.77	0.19	-0.750			
0.3740	23933.37	3.6930	3.6928	-1.0742	24.77	0.19	-0.750			
0.3771	24136.83	3.6900	3.6900	-1.0904	24.76	0.18	-0.750			
0.3805	24353.71	3.6870	3.6870	-1.1419	24.76	0.18	-0.750			
0.3840	24576.90	3.6840	3.6839	-1.1530	24.75	0.17	-0.750			
0.3875	24799.52	3.6810	3.6808	-1.1690	24.74	0.16	-0.750			
0.3909	25017.54	3.6780	3.6779	-1.2017	24.74	0.16	-0.750			
0.3946	25255.58	3.6750	3.6752	-1.2335	24.73	0.15	-0.750			
0.3984	25496.33	3.6720	3.6718	-1.2523	24.72	0.14	-0.750			
0.4022	25738.51	3.6690	3.6688	-1.2715	24.72	0.14	-0.750			
0.4060	25983.09	3.6660	3.6667	-1.3114	24.71	0.13	-0.750			
0.4101	26248.76	3.6630	3.6629	-1.3778	24.70	0.12	-0.750			
0.4144	26519.49	3.6600	3.6596	-1.4083	24.69	0.11	-0.750			
0.4187	26794.08	3.6570	3.6575	-1.4250	24.68	0.10	-0.750			
0.4231	27075.40	3.6540	3.6544	-1.4493	24.67	0.09	-0.750			
0.4273	27350.13	3.6510	3.6509	-1.4747	24.67	0.09	-0.750			
0.4317	27630.04	3.6480	3.6480	-1.4613	24.66	0.08	-0.750			
0.4360	27906.34	3.6450	3.6450	-1.4790	24.65	0.07	-0.750			
0.4407	28204.67	3.6420	3.6418	-1.5423	24.64	0.06	-0.750			
0.4454	28505.84	3.6390	3.6388	-1.5715	24.64	0.06	-0.750			
0.4502	28813.38	3.6360	3.6362	-1.6144	24.63	0.05	-0.750			
0.4552	29130.78	3.6330	3.6332	-1.6039	24.62	0.04	-0.750			
0.4600	29439.09	3.6300	3.6302	-1.6525	24.61	0.03	-0.750			
0.4649	29754.73	3.6270	3.6271	-1.6663	24.61	0.03	-0.750			
0.4698	30069.62	3.6240	3.6238	-1.6828	24.60	0.02	-0.750			
0.4750	30402.04	3.6210	3.6212	-1.7277	24.59	0.01	-0.750			
0.4804	30742.85	3.6180	3.6182	-1.7683	24.59	0.01	-0.750			
0.4859	31095.84	3.6150	3.6151	-1.8373	24.58	0.00	-0.750			
0.4912	31438.99	3.6120	3.6123	-1.8308	24.57	-0.01	-0.750			
0.4970	31805.01	3.6090	3.6089	-1.8594	24.56	-0.02	-0.750			
0.5026	32163.72	3.6060	3.6059	-1.9145	24.55	-0.03	-0.750			
0.5083	32530.58	3.6030	3.6028	-1.9426	24.54	-0.04	-0.750			
0.5143	32914.78	3.6000	3.5995	-2.0073	24.53	-0.05	-0.750			
0.5204	33304.54	3.5970	3.5966	-2.0553	24.53	-0.05	-0.750			
0.5266	33702.00	3.5940	3.5935	-2.0801	24.52	-0.06	-0.750			
0.5330	34114.11	3.5910	3.5905	-2.1147	24.52	-0.06	-0.750			
0.5393	34514.19	3.5880	3.5878	-2.1680	24.51	-0.07	-0.750			
0.5458	34929.65	3.5850	3.5848	-2.1898	24.50	-0.08	-0.750			
0.5524	35354.19	3.5820	3.5816	-2.1994	24.49	-0.09	-0.750			
0.5592	35786.78	3.5790	3.5794	-2.2255	24.49	-0.09	-0.750			
0.5659	36217.96	3.5760	3.5758	-2.2335	24.48	-0.10	-0.750			
0.5727	36651.13	3.5730	3.5730	-2.2797	24.48	-0.10	-0.750			
0.5794	37081.34	3.5700	3.5696	-2.2790	24.48	-0.10	-0.750			
0.5864	37529.08	3.5670	3.5666	-2.3320	24.48	-0.10	-0.750			
0.5931	37955.26	3.5640	3.5637	-2.3134	24.48	-0.10	-0.750			
0.6003	38418.67	3.5610	3.5611	-2.3005	24.47	-0.11	-0.750			
0.6074	38873.98	3.5580	3.5578	-2.3202	24.47	-0.11	-0.750			
0.6144	39319.47	3.5550	3.5554	-2.2800	24.47	-0.11	-0.750			
0.6213	39763.74	3.5520	3.5519	-2.1651	24.47	-0.11	-0.750			
0.6274	40155.89	3.5490	3.5488	-2.0790	24.48	-0.10	-0.750			
0.6333	40531.48	3.5460	3.5462	-1.9840	24.48	-0.10	-0.750			
0.6391	40902.30	3.5430	3.5417	-1.9603	24.48	-0.10	-0.750			
0.6447	41258.89	3.5400	3.5393	-2.0401	24.48	-0.10	-0.750			
0.6509	41656.48	3.5370	3.5371	-2.0340	24.48	-0.10	-0.750			
0.6575	42080.61	3.5340	3.5336	-2.0583	24.48	-0.10	-0.750			
0.6637	42478.99	3.5310	3.5309	-2.0608	24.49	-0.09	-0.750			
0.6699	42875.98	3.5280	3.5272	-2.0279	24.49	-0.09	-0.750			
0.6760	43260.96	3.5250	3.5245	-1.9167	24.51	-0.07	-0.750			
0.6817	43627.57	3.5220	3.5215	-1.8906	24.52	-0.06	-0.750			
0.6871	43976.22	3.5190	3.5186	-1.8435	24.53	-0.05	-0.750			
0.6924	44315.73	3.5160	3.5157	-1.7360	24.54	-0.04	-0.750			
0.6976	44643.58	3.5130	3.5131	-1.7048	24.55	-0.03	-0.750			
0.7027	44969.90	3.5100	3.5099	-1.6464	24.57	-0.01	-0.750			
0.7076	45285.58	3.5070	3.5067	-1.5805	24.59	0.01	-0.750			
0.7124	45595.69	3.5040	3.5038	-1.5481	24.60	0.02	-0.750			
0.7169	45884.30	3.5010	3.5012	-1.4969	24.62	0.04	-0.750			
0.7214	46166.81	3.4980	3.4975	-1.4457	24.63	0.05	-0.750			
0.7258	46448.19	3.4950	3.4953	-1.3435	24.64	0.06	-0.750			
0.7297	46700.23	3.4920	3.4919	-1.3581	24.66	0.08	-0.750			
