Ah_balance (normalized)	Ah_balance (mAh)	Voltage - fit (V)	Voltage -  interpolate (V)	dQ/dV (1/V)	Temperature (°C)	Temperature - diff (°C)	Current (C)	R_DC 0ms (mOhm)	R_DC 50ms (mOhm)	R_DC 50 ms PEC (mOhm)
0.0474	3032.25	4.1980	4.1980	0.7528	25.20	0.50	0.750			
0.0496	3174.81	4.1950	4.1951	0.7506	25.20	0.50	0.750			
0.0519	3320.48	4.1920	4.1921	0.7645	25.20	0.50	0.750			
0.0542	3470.34	4.1890	4.1889	0.7693	25.20	0.50	0.750			
0.0565	3618.69	4.1860	4.1861	0.7740	25.20	0.50	0.750			
0.0589	3769.52	4.1830	4.1831	0.7682	25.20	0.50	0.750			
0.0612	3917.31	4.1800	4.1800	0.7700	25.20	0.50	0.750			
0.0635	4063.08	4.1770	4.1770	0.7633	25.20	0.50	0.750			
0.0658	4208.62	4.1740	4.1737	0.7625	25.20	0.50	0.750			
0.0680	4354.13	4.1710	4.1711	0.7659	25.20	0.50	0.750			
0.0704	4503.61	4.1680	4.1680	0.7655	25.20	0.50	0.750			
0.0727	4650.49	4.1650	4.1650	0.7709	25.20	0.50	0.750			
0.0750	4798.45	4.1620	4.1620	0.7726	25.20	0.50	0.750			
0.0773	4947.38	4.1590	4.1591	0.7746	25.20	0.50	0.750			
0.0796	5097.29	4.1560	4.1562	0.7757	25.20	0.50	0.750			
0.0820	5246.12	4.1530	4.1530	0.7757	25.20	0.50	0.750			
0.0843	5394.19	4.1500	4.1501	0.7781	25.20	0.50	0.750			
0.0866	5545.30	4.1470	4.1470	0.7823	25.21	0.51	0.750			
0.0889	5692.77	4.1440	4.1439	0.7795	25.21	0.51	0.750			
0.0913	5843.26	4.1410	4.1411	0.7821	25.21	0.51	0.750			
0.0937	5995.22	4.1380	4.1380	0.7830	25.21	0.51	0.750			
0.0960	6146.86	4.1350	4.1350	0.7843	25.21	0.51	0.750			
0.0984	6296.81	4.1320	4.1320	0.7821	25.20	0.50	0.750			
0.1007	6445.33	4.1290	4.1291	0.7782	25.20	0.50	0.750			
0.1030	6594.46	4.1260	4.1258	0.7821	25.20	0.50	0.750			
0.1054	6744.04	4.1230	4.1231	0.7819	25.20	0.50	0.750			
0.1077	6895.89	4.1200	4.1200	0.7811	25.20	0.50	0.750			
0.1101	7045.31	4.1170	4.1170	0.7906	25.20	0.50	0.750			
0.1125	7197.26	4.1140	4.1140	0.7918	25.20	0.50	0.750			
0.1148	7348.65	4.1110	4.1110	0.7954	25.20	0.50	0.750			
0.1172	7502.02	4.1080	4.1081	0.8011	25.20	0.50	0.750			
0.1197	7659.63	4.1050	4.1050	0.7945	25.21	0.51	0.750			
0.1221	7811.49	4.1020	4.1020	0.7986	25.21	0.51	0.750			
0.1244	7964.16	4.0990	4.0991	0.8022	25.21	0.51	0.750			
0.1268	8116.14	4.0960	4.0962	0.7990	25.22	0.52	0.750			
0.1292	8270.41	4.0930	4.0928	0.8028	25.22	0.52	0.750			
0.1316	8424.45	4.0900	4.0901	0.8051	25.22	0.52	0.750			
0.1341	8579.45	4.0870	4.0871	0.8101	25.22	0.52	0.750			
0.1365	8736.36	4.0840	4.0839	0.8161	25.22	0.52	0.750			
0.1389	8892.61	4.0810	4.0811	0.8138	25.22	0.52	0.750			
0.1414	9048.53	4.0780	4.0781	0.8165	25.22	0.52	0.750			
0.1439	9206.86	4.0750	4.0750	0.8227	25.22	0.52	0.750			
0.1464	9366.86	4.0720	4.0720	0.8146	25.22	0.52	0.750			
0.1488	9520.60	4.0690	4.0690	0.8195	25.22	0.52	0.750			
0.1512	9677.90	4.0660	4.0661	0.8211	25.22	0.52	0.750			
0.1537	9835.45	4.0630	4.0624	0.8263	25.22	0.52	0.750			
0.1561	9993.41	4.0600	4.0602	0.8336	25.22	0.52	0.750			
0.1587	10154.84	4.0570	4.0570	0.8298	25.22	0.52	0.750			
0.1612	10315.92	4.0540	4.0541	0.8373	25.23	0.53	0.750			
0.1637	10473.84	4.0510	4.0511	0.8330	25.23	0.53	0.750			
0.1662	10635.13	4.0480	4.0477	0.8403	25.23	0.53	0.750			
0.1687	10798.72	4.0450	4.0450	0.8444	25.23	0.53	0.750			
0.1713	10960.93	4.0420	4.0420	0.8487	25.24	0.54	0.750			
0.1738	11125.81	4.0390	4.0391	0.8545	25.24	0.54	0.750			
0.1764	11289.86	4.0360	4.0361	0.8521	25.25	0.55	0.750			
0.1790	11454.34	4.0330	4.0330	0.8555	25.25	0.55	0.750			
0.1815	11618.85	4.0300	4.0300	0.8613	25.25	0.55	0.750			
0.1841	11784.65	4.0270	4.0270	0.8558	25.25	0.55	0.750			
0.1867	11946.65	4.0240	4.0240	0.8608	25.25	0.55	0.750			
0.1892	12111.42	4.0210	4.0212	0.8646	25.25	0.55	0.750			
0.1918	12278.23	4.0180	4.0181	0.8662	25.25	0.55	0.750			
0.1945	12445.61	4.0150	4.0150	0.8679	25.25	0.55	0.750			
0.1971	12613.62	4.0120	4.0121	0.8718	25.25	0.55	0.750			
0.1997	12780.84	4.0090	4.0090	0.8774	25.26	0.56	0.750			
0.2023	12949.23	4.0060	4.0059	0.8735	25.26	0.56	0.750			
0.2050	13116.86	4.0030	4.0030	0.8785	25.26	0.56	0.750			
0.2076	13286.46	4.0000	4.0000	0.8789	25.26	0.56	0.750			
0.2103	13456.21	3.9970	3.9971	0.8841	25.27	0.57	0.750			
0.2129	13626.68	3.9940	3.9940	0.8891	25.27	0.57	0.750			
0.2156	13796.55	3.9910	3.9909	0.8903	25.27	0.57	0.750			
0.2182	13966.60	3.9880	3.9881	0.8890	25.27	0.57	0.750			
0.2209	14138.47	3.9850	3.9850	0.8898	25.27	0.57	0.750			
0.2236	14308.74	3.9820	3.9820	0.8943	25.28	0.58	0.750			
0.2263	14480.52	3.9790	3.9791	0.8948	25.28	0.58	0.750			
0.2289	14652.13	3.9760	3.9761	0.9001	25.28	0.58	0.750			
0.2317	14826.52	3.9730	3.9731	0.8985	25.28	0.58	0.750			
0.2344	14999.67	3.9700	3.9700	0.9034	25.28	0.58	0.750			
0.2371	15175.14	3.9670	3.9670	0.9074	25.29	0.59	0.750			
0.2398	15347.17	3.9640	3.9640	0.9007	25.29	0.59	0.750			
0.2425	15520.67	3.9610	3.9610	0.9042	25.29	0.59	0.750			
0.2453	15696.70	3.9580	3.9580	0.8943	25.30	0.60	0.750			
0.2478	15861.32	3.9550	3.9551	0.9181	25.30	0.60	0.750			
0.2506	16037.78	3.9520	3.9521	0.9371	25.31	0.61	0.750			
0.2534	16219.44	3.9490	3.9484	0.9465	25.31	0.61	0.750			
0.2564	16407.59	3.9460	3.9462	0.9480	25.31	0.61	0.750			
0.2592	16591.95	3.9430	3.9432	0.9569	25.31	0.61	0.750			
0.2622	16780.90	3.9400	3.9401	0.9625	25.32	0.62	0.750			
0.2650	16963.03	3.9370	3.9368	0.9489	25.32	0.62	0.750			
0.2678	17140.10	3.9340	3.9341	0.9344	25.32	0.62	0.750			
0.2706	17321.36	3.9310	3.9311	0.9372	25.32	0.62	0.750			
0.2735	17501.58	3.9280	3.9280	0.9406	25.33	0.63	0.750			
0.2763	17685.26	3.9250	3.9250	0.9428	25.33	0.63	0.750			
0.2791	17862.33	3.9220	3.9219	0.9333	25.33	0.63	0.750			
0.2819	18040.99	3.9190	3.9190	0.9333	25.33	0.63	0.750			
0.2847	18219.43	3.9160	3.9161	0.9356	25.34	0.64	0.750			
0.2875	18400.06	3.9130	3.9130	0.9415	25.34	0.64	0.750			
0.2903	18581.40	3.9100	3.9100	0.9456	25.34	0.64	0.750			
0.2932	18763.76	3.9070	3.9070	0.9421	25.34	0.64	0.750			
0.2960	18944.90	3.9040	3.9041	0.9517	25.34	0.64	0.750			
0.2989	19128.98	3.9010	3.9010	0.9528	25.34	0.64	0.750			
0.3017	19311.85	3.8980	3.8980	0.9526	25.34	0.64	0.750			
0.3046	19495.14	3.8950	3.8951	0.9546	25.34	0.64	0.750			
0.3075	19678.02	3.8920	3.8921	0.9567	25.34	0.64	0.750			
0.3103	19861.50	3.8890	3.8890	0.9612	25.33	0.63	0.750			
0.3133	20048.05	3.8860	3.8861	0.9651	25.33	0.63	0.750			
0.3161	20231.09	3.8830	3.8829	0.9640	25.33	0.63	0.750			
0.3190	20418.25	3.8800	3.8800	0.9666	25.33	0.63	0.750			
0.3219	20603.68	3.8770	3.8770	0.9659	25.33	0.63	0.750			
0.3248	20788.11	3.8740	3.8740	0.9714	25.32	0.62	0.750			
0.3277	20975.64	3.8710	3.8709	0.9750	25.32	0.62	0.750			
0.3307	21166.93	3.8680	3.8679	0.9637	25.32	0.62	0.750			
0.3336	21350.51	3.8650	3.8651	0.9719	25.31	0.61	0.750			
0.3365	21534.78	3.8620	3.8621	0.9787	25.31	0.61	0.750			
0.3394	21723.89	3.8590	3.8590	0.9871	25.30	0.60	0.750			
0.3424	21915.00	3.8560	3.8561	0.9818	25.30	0.60	0.750			
0.3453	22102.26	3.8530	3.8532	0.9880	25.29	0.59	0.750			
0.3484	22294.83	3.8500	3.8501	0.9967	25.28	0.58	0.750			
0.3514	22487.59	3.8470	3.8471	1.0028	25.27	0.57	0.750			
0.3544	22678.49	3.8440	3.8440	0.9934	25.27	0.57	0.750			
0.3573	22867.67	3.8410	3.8411	1.0086	25.26	0.56	0.750			
0.3604	23062.54	3.8380	3.8381	1.0205	25.26	0.56	0.750			
0.3635	23261.05	3.8350	3.8348	1.0296	25.25	0.55	0.750	0.338	0.435	
0.3666	23459.75	3.8320	3.8321	1.0331	25.25	0.55	0.750			
0.3697	23660.87	3.8290	3.8291	1.0275	25.24	0.54	0.750			
0.3728	23857.35	3.8260	3.8261	1.0309	25.23	0.53	0.750			
0.3759	24056.11	3.8230	3.8231	1.0334	25.23	0.53	0.750			
0.3789	24251.89	3.8200	3.8200	1.0250	25.22	0.52	0.750			
0.3820	24448.83	3.8170	3.8170	1.0307	25.21	0.51	0.750			
0.3851	24646.64	3.8140	3.8141	1.0377	25.20	0.50	0.750			
0.3882	24847.81	3.8110	3.8110	1.0459	25.19	0.49	0.750			
0.3914	25049.84	3.8080	3.8079	1.0465	25.18	0.48	0.750			
0.3945	25249.63	3.8050	3.8051	1.0534	25.17	0.47	0.750			
0.3977	25451.26	3.8020	3.8020	1.0653	25.16	0.46	0.750			
0.4009	25657.20	3.7990	3.7990	1.0810	25.15	0.45	0.750			
0.4042	25868.23	3.7960	3.7959	1.0800	25.14	0.44	0.750			
0.4074	26074.45	3.7930	3.7930	1.0971	25.13	0.43	0.750			
0.4107	26285.06	3.7900	3.7901	1.1167	25.12	0.42	0.750			
0.4141	26500.49	3.7870	3.7871	1.1374	25.11	0.41	0.750			
0.4175	26720.28	3.7840	3.7840	1.1452	25.09	0.39	0.750			
0.4209	26940.71	3.7810	3.7811	1.1650	25.08	0.38	0.750			
0.4245	27166.85	3.7780	3.7782	1.1914	25.07	0.37	0.750			
0.4281	27399.82	3.7750	3.7744	1.2115	25.06	0.36	0.750			
0.4318	27632.37	3.7720	3.7720	1.2288	25.05	0.35	0.750			
0.4355	27870.66	3.7690	3.7690	1.2553	25.03	0.33	0.750			
0.4394	28120.96	3.7660	3.7659	1.2688	25.02	0.32	0.750			
0.4432	28364.82	3.7630	3.7630	1.3012	25.00	0.30	0.750			
0.4470	28608.97	3.7600	3.7601	1.3280	24.99	0.29	0.750			
0.4511	28870.70	3.7570	3.7571	1.3460	24.98	0.28	0.750			
0.4552	29130.31	3.7540	3.7541	1.3876	24.97	0.27	0.750			
0.4593	29397.72	3.7510	3.7511	1.4172	24.96	0.26	0.750			
0.4637	29675.57	3.7480	3.7482	1.4460	24.95	0.25	0.750			
0.4681	29958.79	3.7450	3.7451	1.4796	24.93	0.23	0.750			
0.4726	30245.73	3.7420	3.7418	1.5080	24.92	0.22	0.750			
0.4771	30534.23	3.7390	3.7392	1.5512	24.90	0.20	0.750			
0.4818	30836.05	3.7360	3.7361	1.6051	24.89	0.19	0.750			
0.4866	31141.70	3.7330	3.7330	1.6582	24.87	0.17	0.750			
0.4917	31470.33	3.7300	3.7298	1.6915	24.86	0.16	0.750			
0.4969	31802.06	3.7270	3.7267	1.7502	24.84	0.14	0.750			
0.5023	32145.05	3.7240	3.7241	1.8119	24.82	0.12	0.750			
0.5077	32491.76	3.7210	3.7208	1.8531	24.81	0.11	0.750			
0.5133	32850.77	3.7180	3.7178	1.8787	24.79	0.09	0.750			
0.5190	33217.25	3.7150	3.7151	1.9458	24.77	0.07	0.750			
0.5251	33605.63	3.7120	3.7122	2.0181	24.75	0.05	0.750			
0.5312	34000.00	3.7090	3.7088	2.0770	24.73	0.03	0.750			
0.5374	34395.54	3.7060	3.7059	2.1192	24.72	0.02	0.750			
0.5439	34809.08	3.7030	3.7028	2.1886	24.70	0.00	0.750			
0.5507	35243.51	3.7000	3.6998	2.2156	24.68	-0.02	0.750			
0.5574	35676.00	3.6970	3.6970	2.2900	24.66	-0.04	0.750			
0.5643	36114.83	3.6940	3.6940	2.3777	24.64	-0.06	0.750			
0.5714	36571.53	3.6910	3.6912	2.4421	24.63	-0.07	0.750			
0.5790	37057.75	3.6880	3.6879	2.5021	24.62	-0.08	0.750			
0.5868	37552.63	3.6850	3.6849	2.5658	24.61	-0.09	0.750			
0.5945	38048.18	3.6820	3.6819	2.6541	24.59	-0.11	0.750			
0.6026	38565.81	3.6790	3.6787	2.6869	24.58	-0.12	0.750			
0.6108	39090.98	3.6760	3.6761	2.7733	24.57	-0.13	0.750			
0.6190	39618.79	3.6730	3.6732	2.7989	24.56	-0.14	0.750			
0.6275	40161.62	3.6700	3.6703	2.7965	24.56	-0.14	0.750			
0.6360	40706.32	3.6670	3.6671	2.7528	24.56	-0.14	0.750			
0.6443	41236.80	3.6640	3.6640	2.6406	24.56	-0.14	0.750			
0.6525	41758.47	3.6610	3.6608	2.4902	24.56	-0.14	0.750			
0.6597	42221.18	3.6580	3.6580	2.2317	24.56	-0.14	0.750			
0.6654	42585.42	3.6550	3.6553	1.9307	24.56	-0.14	0.750			
0.6708	42931.85	3.6520	3.6524	1.7573	24.57	-0.13	0.750			
0.6756	43237.23	3.6490	3.6485	1.5696	24.58	-0.12	0.750			
0.6800	43519.83	3.6460	3.6463	1.4485	24.59	-0.11	0.750			
0.6842	43789.13	3.6430	3.6433	1.3460	24.59	-0.11	0.750			
0.6883	44048.25	3.6400	3.6402	1.2628	24.60	-0.10	0.750			
0.6918	44273.08	3.6370	3.6370	1.1338	24.60	-0.10	0.750			
0.6949	44472.95	3.6340	3.6340	1.0435	24.61	-0.09	0.750			
0.6978	44660.04	3.6310	3.6312	0.9801	24.61	-0.09	0.750			
0.7006	44841.50	3.6280	3.6280	0.9481	24.62	-0.08	0.750			
0.7034	45018.08	3.6250	3.6249	0.9115	24.62	-0.08	0.750			
0.7062	45194.13	3.6220	3.6219	0.8756	24.63	-0.07	0.750			
0.7087	45359.79	3.6190	3.6190	0.8410	24.64	-0.06	0.750			
0.7113	45520.98	3.6160	3.6161	0.8152	24.65	-0.05	0.750			
0.7137	45674.44	3.6130	3.6131	0.7765	24.65	-0.05	0.750			
0.7159	45819.99	3.6100	3.6089	0.7275	24.66	-0.04	0.750			
0.7181	45957.12	3.6070	3.6074	0.6678	24.67	-0.03	0.750			
0.7200	46082.92	3.6040	3.6042	0.6087	24.67	-0.03	0.750			
0.7218	46195.34	3.6010	3.6011	0.5407	24.68	-0.02	0.750			
0.7233	46292.20	3.5980	3.5980	0.4669	24.68	-0.02	0.750			
0.7246	46373.45	3.5950	3.5949	0.3902	24.69	-0.01	0.750			
0.7256	46440.37	3.5920	3.5920	0.3319	24.69	-0.01	0.750			
0.7265	46497.11	3.5890	3.5891	0.2723	24.69	-0.01	0.750			
0.7272	46543.13	3.5860	3.5861	0.2178	24.70	-0.00	0.750			
0.7278	46579.18	3.5830	3.5835	0.1666	24.70	-0.00	0.750			
0.7282	46605.81	3.5800	3.5813	0.1195	24.70	-0.00	0.750			
0.7285	46624.34	3.5770	3.5784	0.0798	24.70	0.00	0.750			
