Ah_balance (normalized)	Ah_balance (mAh)	Voltage - fit (V)	Voltage -  interpolate (V)	dQ/dV (1/V)	Temperature (°C)	Temperature - diff (°C)	Current (C)	R_DC 0ms (mOhm)	R_DC 50ms (mOhm)	R_DC 50 ms PEC (mOhm)
0.0488	3124.66	4.1970	4.1970	0.7390	25.89	0.63	0.750			
0.0511	3268.48	4.1940	4.1940	0.7498	25.89	0.63	0.750			
0.0533	3412.37	4.1910	4.1908	0.7512	25.89	0.63	0.750			
0.0556	3556.62	4.1880	4.1881	0.7534	25.89	0.63	0.750			
0.0578	3702.18	4.1850	4.1850	0.7547	25.89	0.63	0.750			
0.0601	3846.95	4.1820	4.1820	0.7562	25.89	0.63	0.750			
0.0624	3992.56	4.1790	4.1790	0.7569	25.89	0.63	0.750			
0.0646	4136.77	4.1760	4.1761	0.7587	25.89	0.63	0.750			
0.0669	4283.38	4.1730	4.1730	0.7619	25.89	0.63	0.750			
0.0692	4429.62	4.1700	4.1700	0.7609	25.89	0.63	0.750			
0.0715	4578.63	4.1670	4.1670	0.7487	25.89	0.63	0.750			
0.0738	4720.17	4.1640	4.1641	0.7578	25.89	0.63	0.750			
0.0760	4864.84	4.1610	4.1611	0.7605	25.89	0.63	0.750			
0.0783	5010.37	4.1580	4.1576	0.7619	25.89	0.63	0.750			
0.0806	5156.57	4.1550	4.1551	0.7649	25.89	0.63	0.750			
0.0829	5305.98	4.1520	4.1521	0.7619	25.89	0.63	0.750			
0.0852	5452.74	4.1490	4.1490	0.7639	25.89	0.63	0.750			
0.0875	5599.19	4.1460	4.1461	0.7598	25.89	0.63	0.750			
0.0898	5745.05	4.1430	4.1430	0.7636	25.89	0.63	0.750			
0.0920	5890.76	4.1400	4.1401	0.7684	25.89	0.63	0.750			
0.0944	6039.46	4.1370	4.1371	0.7739	25.89	0.63	0.750			
0.0967	6189.40	4.1340	4.1340	0.7750	25.89	0.63	0.750			
0.0990	6338.86	4.1310	4.1311	0.7794	25.89	0.63	0.750			
0.1014	6487.56	4.1280	4.1281	0.7772	25.89	0.63	0.750			
0.1037	6637.16	4.1250	4.1248	0.7806	25.89	0.63	0.750			
0.1061	6787.86	4.1220	4.1220	0.7785	25.89	0.63	0.750			
0.1084	6938.31	4.1190	4.1190	0.7722	25.89	0.63	0.750			
0.1107	7086.43	4.1160	4.1161	0.7786	25.89	0.63	0.750			
0.1130	7234.51	4.1130	4.1131	0.7794	25.89	0.63	0.750			
0.1154	7382.51	4.1100	4.1099	0.7814	25.89	0.63	0.750			
0.1177	7534.02	4.1070	4.1071	0.7864	25.89	0.63	0.750			
0.1201	7687.80	4.1040	4.1040	0.7858	25.89	0.63	0.750			
0.1225	7839.20	4.1010	4.1010	0.7908	25.89	0.63	0.750			
0.1249	7992.24	4.0980	4.0980	0.7922	25.89	0.63	0.750			
0.1272	8140.74	4.0950	4.0951	0.7892	25.89	0.63	0.750			
0.1296	8291.83	4.0920	4.0919	0.7915	25.89	0.63	0.750			
0.1320	8445.48	4.0890	4.0890	0.7916	25.89	0.63	0.750			
0.1343	8598.16	4.0860	4.0860	0.7954	25.89	0.63	0.750			
0.1367	8750.32	4.0830	4.0831	0.7999	25.89	0.63	0.750			
0.1391	8904.01	4.0800	4.0800	0.7989	25.89	0.63	0.750			
0.1415	9058.31	4.0770	4.0769	0.8014	25.89	0.63	0.750			
0.1439	9211.56	4.0740	4.0741	0.8066	25.89	0.63	0.750			
0.1464	9366.98	4.0710	4.0710	0.8064	25.89	0.63	0.750			
0.1488	9522.29	4.0680	4.0680	0.8091	25.89	0.63	0.750			
0.1512	9676.68	4.0650	4.0650	0.8093	25.89	0.63	0.750			
0.1536	9831.96	4.0620	4.0616	0.8122	25.89	0.63	0.750			
0.1561	9988.71	4.0590	4.0591	0.8186	25.89	0.63	0.750			
0.1585	10146.75	4.0560	4.0560	0.8156	25.89	0.63	0.750			
0.1610	10302.43	4.0530	4.0530	0.8228	25.90	0.64	0.750			
0.1634	10460.12	4.0500	4.0501	0.8233	25.90	0.64	0.750			
0.1659	10620.31	4.0470	4.0467	0.8323	25.90	0.64	0.750			
0.1684	10780.79	4.0440	4.0442	0.8341	25.90	0.64	0.750			
0.1710	10942.45	4.0410	4.0410	0.8318	25.90	0.64	0.750			
0.1735	11103.65	4.0380	4.0380	0.8319	25.91	0.65	0.750			
0.1759	11260.74	4.0350	4.0351	0.8305	25.91	0.65	0.750			
0.1784	11419.27	4.0320	4.0319	0.8342	25.91	0.65	0.750			
0.1809	11580.79	4.0290	4.0290	0.8355	25.91	0.65	0.750			
0.1835	11741.37	4.0260	4.0261	0.8393	25.91	0.65	0.750			
0.1859	11900.72	4.0230	4.0231	0.8369	25.91	0.65	0.750			
0.1884	12060.75	4.0200	4.0200	0.8434	25.91	0.65	0.750			
0.1909	12220.56	4.0170	4.0164	0.8494	25.91	0.65	0.750			
0.1935	12383.65	4.0140	4.0142	0.8591	25.91	0.65	0.750			
0.1961	12551.44	4.0110	4.0111	0.8611	25.91	0.65	0.750			
0.1987	12719.85	4.0080	4.0081	0.8649	25.91	0.65	0.750			
0.2014	12890.49	4.0050	4.0050	0.8744	25.91	0.65	0.750			
0.2039	13050.40	4.0020	4.0018	0.8600	25.91	0.65	0.750			
0.2065	13215.65	3.9990	3.9990	0.8593	25.91	0.65	0.750			
0.2091	13380.41	3.9960	3.9960	0.8622	25.91	0.65	0.750			
0.2117	13546.96	3.9930	3.9931	0.8671	25.91	0.65	0.750			
0.2143	13714.50	3.9900	3.9900	0.8744	25.91	0.65	0.750			
0.2169	13881.61	3.9870	3.9870	0.8749	25.91	0.65	0.750			
0.2196	14051.78	3.9840	3.9840	0.8695	25.91	0.65	0.750			
0.2222	14218.65	3.9810	3.9810	0.8712	25.91	0.65	0.750			
0.2248	14384.76	3.9780	3.9781	0.8791	25.91	0.65	0.750			
0.2274	14552.41	3.9750	3.9751	0.8809	25.91	0.65	0.750			
0.2300	14722.35	3.9720	3.9720	0.8815	25.91	0.65	0.750			
0.2327	14892.89	3.9690	3.9691	0.8771	25.91	0.65	0.750			
0.2353	15061.49	3.9660	3.9661	0.8859	25.92	0.66	0.750			
0.2380	15232.90	3.9630	3.9630	0.8923	25.92	0.66	0.750			
0.2407	15402.51	3.9600	3.9596	0.8873	25.92	0.66	0.750			
0.2433	15573.56	3.9570	3.9570	0.8831	25.92	0.66	0.750			
0.2460	15744.50	3.9540	3.9541	0.8861	25.92	0.66	0.750			
0.2487	15915.22	3.9510	3.9510	0.8870	25.91	0.65	0.750			
0.2513	16085.51	3.9480	3.9480	0.8896	25.91	0.65	0.750			
0.2539	16252.61	3.9450	3.9449	0.8826	25.91	0.65	0.750			
0.2566	16422.98	3.9420	3.9420	0.8864	25.91	0.65	0.750			
0.2593	16593.92	3.9390	3.9390	0.8815	25.91	0.65	0.750			
0.2619	16761.10	3.9360	3.9361	0.8865	25.91	0.65	0.750			
0.2646	16931.21	3.9330	3.9331	0.8899	25.91	0.65	0.750			
0.2672	17102.24	3.9300	3.9301	0.8879	25.91	0.65	0.750			
0.2699	17274.31	3.9270	3.9271	0.8841	25.90	0.64	0.750			
0.2726	17444.89	3.9240	3.9241	0.8877	25.90	0.64	0.750			
0.2753	17616.05	3.9210	3.9210	0.8880	25.90	0.64	0.750			
0.2779	17783.86	3.9180	3.9178	0.8804	25.89	0.63	0.750			
0.2805	17953.03	3.9150	3.9150	0.8834	25.89	0.63	0.750			
0.2832	18122.47	3.9120	3.9121	0.8881	25.88	0.62	0.750			
0.2859	18295.52	3.9090	3.9089	0.8919	25.88	0.62	0.750			
0.2886	18468.81	3.9060	3.9060	0.8952	25.87	0.61	0.750			
0.2912	18638.56	3.9030	3.9030	0.8893	25.87	0.61	0.750			
0.2939	18811.04	3.9000	3.9000	0.8842	25.87	0.61	0.750			
0.2966	18979.81	3.8970	3.8970	0.8809	25.86	0.60	0.750			
0.2992	19147.46	3.8940	3.8941	0.8832	25.86	0.60	0.750			
0.3018	19316.36	3.8910	3.8910	0.8845	25.85	0.59	0.750			
0.3045	19486.30	3.8880	3.8880	0.8902	25.85	0.59	0.750			
0.3072	19658.10	3.8850	3.8851	0.8886	25.84	0.58	0.750			
0.3098	19828.95	3.8820	3.8820	0.8950	25.84	0.58	0.750			
0.3125	20002.35	3.8790	3.8790	0.8984	25.84	0.58	0.750			
0.3152	20174.39	3.8760	3.8759	0.8948	25.83	0.57	0.750			
0.3179	20345.89	3.8730	3.8731	0.8966	25.82	0.56	0.750			
0.3206	20518.66	3.8700	3.8700	0.8954	25.82	0.56	0.750			
0.3233	20690.54	3.8670	3.8669	0.8945	25.81	0.55	0.750			
0.3260	20862.91	3.8640	3.8640	0.8986	25.80	0.54	0.750			
0.3286	21032.73	3.8610	3.8608	0.9009	25.79	0.53	0.750			
0.3314	21209.84	3.8580	3.8579	0.8965	25.78	0.52	0.750			
0.3341	21380.47	3.8550	3.8550	0.9048	25.77	0.51	0.750			
0.3368	21554.25	3.8520	3.8520	0.9073	25.76	0.50	0.750			
0.3395	21728.29	3.8490	3.8492	0.9176	25.76	0.50	0.750			
0.3423	21905.04	3.8460	3.8461	0.9194	25.75	0.49	0.750			
0.3450	22082.42	3.8430	3.8430	0.9151	25.74	0.48	0.750			
0.3478	22256.98	3.8400	3.8401	0.9183	25.73	0.47	0.750	0.308	0.437	
0.3505	22434.41	3.8370	3.8372	0.9261	25.72	0.46	0.750			
0.3533	22609.92	3.8340	3.8338	0.9279	25.71	0.45	0.750			
0.3561	22790.39	3.8310	3.8309	0.9354	25.70	0.44	0.750			
0.3589	22968.12	3.8280	3.8281	0.9476	25.69	0.43	0.750			
0.3618	23155.15	3.8250	3.8250	0.9664	25.68	0.42	0.750			
0.3647	23340.48	3.8220	3.8220	0.9721	25.67	0.41	0.750			
0.3676	23529.32	3.8190	3.8190	0.9811	25.67	0.41	0.750			
0.3706	23717.26	3.8160	3.8161	0.9752	25.66	0.40	0.750			
0.3735	23903.48	3.8130	3.8130	0.9826	25.65	0.39	0.750			
0.3764	24091.49	3.8100	3.8103	0.9970	25.64	0.38	0.750			
0.3794	24281.35	3.8070	3.8068	1.0101	25.63	0.37	0.750			
0.3824	24476.34	3.8040	3.8042	1.0112	25.62	0.36	0.750			
0.3855	24670.01	3.8010	3.8012	1.0323	25.61	0.35	0.750			
0.3886	24871.11	3.7980	3.7981	1.0583	25.60	0.34	0.750			
0.3918	25073.75	3.7950	3.7946	1.0669	25.59	0.33	0.750			
0.3950	25280.67	3.7920	3.7921	1.0925	25.57	0.31	0.750			
0.3983	25493.42	3.7890	3.7892	1.1186	25.56	0.30	0.750			
0.4018	25716.77	3.7860	3.7859	1.1353	25.55	0.29	0.750			
0.4053	25938.10	3.7830	3.7830	1.1192	25.53	0.27	0.750			
0.4086	26150.50	3.7800	3.7801	1.1435	25.52	0.26	0.750			
0.4120	26370.71	3.7770	3.7771	1.1636	25.51	0.25	0.750			
0.4156	26597.54	3.7740	3.7736	1.1732	25.49	0.23	0.750			
0.4191	26821.66	3.7710	3.7711	1.1999	25.48	0.22	0.750			
0.4227	27052.74	3.7680	3.7681	1.2286	25.47	0.21	0.750			
0.4265	27294.64	3.7650	3.7652	1.2537	25.47	0.21	0.750			
0.4303	27536.41	3.7620	3.7619	1.2765	25.45	0.19	0.750			
0.4341	27784.37	3.7590	3.7591	1.3057	25.43	0.17	0.750			
0.4382	28042.59	3.7560	3.7560	1.3253	25.41	0.15	0.750			
0.4422	28299.98	3.7530	3.7529	1.3478	25.40	0.14	0.750			
0.4463	28565.40	3.7500	3.7501	1.3463	25.39	0.13	0.750			
0.4504	28824.61	3.7470	3.7470	1.3713	25.38	0.12	0.750			
0.4544	29083.06	3.7440	3.7441	1.4228	25.37	0.11	0.750			
0.4587	29355.67	3.7410	3.7412	1.4500	25.35	0.09	0.750			
0.4632	29642.34	3.7380	3.7379	1.4914	25.33	0.07	0.750			
0.4677	29933.82	3.7350	3.7354	1.5481	25.32	0.06	0.750			
0.4725	30237.77	3.7320	3.7314	1.6028	25.30	0.04	0.750			
0.4774	30553.00	3.7290	3.7292	1.6818	25.28	0.02	0.750			
0.4824	30873.82	3.7260	3.7260	1.7226	25.27	0.01	0.750			
0.4878	31219.81	3.7230	3.7231	1.7854	25.26	-0.00	0.750			
0.4931	31555.91	3.7200	3.7201	1.8217	25.24	-0.02	0.750			
0.4988	31922.41	3.7170	3.7168	1.8814	25.23	-0.03	0.750			
0.5044	32282.05	3.7140	3.7142	1.9099	25.21	-0.05	0.750			
0.5101	32644.23	3.7110	3.7114	1.9835	25.19	-0.07	0.750			
0.5162	33037.62	3.7080	3.7080	1.9953	25.18	-0.08	0.750			
0.5222	33419.39	3.7050	3.7052	2.0310	25.17	-0.09	0.750			
0.5284	33819.19	3.7020	3.7016	2.0522	25.15	-0.11	0.750			
0.5347	34222.17	3.6990	3.6987	2.1519	25.14	-0.12	0.750			
0.5410	34627.17	3.6960	3.6958	2.2340	25.12	-0.14	0.750			
0.5480	35072.66	3.6930	3.6935	2.3745	25.11	-0.15	0.750			
0.5551	35524.17	3.6900	3.6897	2.3654	25.11	-0.15	0.750			
0.5626	36007.95	3.6870	3.6871	2.4038	25.10	-0.16	0.750			
0.5698	36466.17	3.6840	3.6838	2.3859	25.09	-0.17	0.750			
0.5768	36914.25	3.6810	3.6807	2.4683	25.08	-0.18	0.750			
0.5846	37413.10	3.6780	3.6776	2.5079	25.08	-0.18	0.750			
0.5918	37878.24	3.6750	3.6749	2.4011	25.08	-0.18	0.750			
0.5990	38338.81	3.6720	3.6721	2.3006	25.08	-0.18	0.750			
0.6061	38790.50	3.6690	3.6689	2.1991	25.08	-0.18	0.750			
0.6124	39190.73	3.6660	3.6663	2.0509	25.09	-0.17	0.750			
0.6185	39586.94	3.6630	3.6635	1.9574	25.09	-0.17	0.750			
0.6244	39961.39	3.6600	3.6599	1.8196	25.10	-0.16	0.750			
0.6294	40282.53	3.6570	3.6573	1.6534	25.10	-0.16	0.750			
0.6343	40593.07	3.6540	3.6541	1.5530	25.12	-0.14	0.750			
0.6388	40882.51	3.6510	3.6510	1.4526	25.13	-0.13	0.750			
0.6428	41140.47	3.6480	3.6481	1.3317	25.14	-0.12	0.750			
0.6465	41376.77	3.6450	3.6452	1.2386	25.14	-0.12	0.750			
0.6501	41604.29	3.6420	3.6421	1.1735	25.15	-0.11	0.750			
0.6535	41823.93	3.6390	3.6384	1.1205	25.15	-0.11	0.750			
0.6567	42029.73	3.6360	3.6361	1.0529	25.16	-0.10	0.750			
0.6598	42226.64	3.6330	3.6331	1.0113	25.16	-0.10	0.750			
0.6628	42417.48	3.6300	3.6301	0.9786	25.17	-0.09	0.750			
0.6657	42605.40	3.6270	3.6267	0.9466	25.18	-0.08	0.750			
0.6684	42777.74	3.6240	3.6239	0.8927	25.19	-0.07	0.750			
0.6710	42946.07	3.6210	3.6210	0.8624	25.20	-0.06	0.750			
0.6736	43109.50	3.6180	3.6181	0.8284	25.20	-0.06	0.750			
0.6760	43266.82	3.6150	3.6150	0.7911	25.21	-0.05	0.750			
0.6784	43419.29	3.6120	3.6118	0.7279	25.22	-0.04	0.750			
0.6805	43551.42	3.6090	3.6092	0.6837	25.23	-0.03	0.750			
0.6825	43677.50	3.6060	3.6061	0.6377	25.23	-0.03	0.750			
0.6843	43794.41	3.6030	3.6032	0.5892	25.24	-0.02	0.750			
0.6860	43904.03	3.6000	3.6003	0.5396	25.24	-0.02	0.750			
0.6875	44000.31	3.5970	3.5972	0.4886	25.25	-0.01	0.750			
0.6889	44090.48	3.5940	3.5942	0.4412	25.25	-0.01	0.750			
0.6902	44172.11	3.5910	3.5911	0.3938	25.26	-0.00	0.750			
0.6913	44243.18	3.5880	3.5880	0.3362	25.26	0.00	0.750			
0.6922	44303.14	3.5850	3.5850	0.2879	25.26	0.00	0.750			
0.6930	44354.04	3.5820	3.5821	0.2396	25.27	0.01	0.750			
0.6937	44396.04	3.5790	3.5790	0.1896	25.27	0.01	0.750			
0.6942	44427.06	3.5760	3.5764	0.1388	25.27	0.01	0.750			
0.6945	44448.90	3.5730	3.5734	0.0804	25.27	0.01	0.750			
