Ah_balance (normalized)	Ah_balance (mAh)	Voltage - fit (V)	Voltage -  interpolate (V)	dQ/dV (1/V)	Temperature (°C)	Temperature - diff (°C)	Current (C)	R_DC 0ms (mOhm)	R_DC 50ms (mOhm)	R_DC 50 ms PEC (mOhm)
0.0161	1028.31	4.1980	4.1979	0.7555	24.08	-0.18	0.250			
0.0184	1175.68	4.1950	4.1953	0.7764	24.08	-0.18	0.250			
0.0207	1327.37	4.1920	4.1919	0.7888	24.08	-0.18	0.250			
0.0231	1478.85	4.1890	4.1889	0.7946	24.08	-0.18	0.250			
0.0255	1632.60	4.1860	4.1862	0.8009	24.08	-0.18	0.250			
0.0279	1788.71	4.1830	4.1831	0.8042	24.08	-0.18	0.250			
0.0304	1943.32	4.1800	4.1798	0.8000	24.08	-0.18	0.250			
0.0328	2096.46	4.1770	4.1768	0.8034	24.08	-0.18	0.250	0.311	0.434	
0.0352	2252.15	4.1740	4.1740	0.8089	24.08	-0.18	0.250			
0.0376	2408.03	4.1710	4.1711	0.8117	24.08	-0.18	0.250			
0.0400	2562.02	4.1680	4.1681	0.8048	24.08	-0.18	0.250			
0.0425	2718.03	4.1650	4.1648	0.8065	24.08	-0.18	0.250			
0.0449	2873.64	4.1620	4.1620	0.8082	24.08	-0.18	0.250			
0.0473	3026.85	4.1590	4.1591	0.8128	24.08	-0.18	0.250			
0.0497	3182.96	4.1560	4.1561	0.8170	24.08	-0.18	0.250			
0.0522	3340.81	4.1530	4.1527	0.8152	24.08	-0.18	0.250	0.286	0.454	
0.0547	3499.20	4.1500	4.1500	0.8195	24.07	-0.19	0.250			
0.0573	3664.12	4.1470	4.1470	0.8119	24.06	-0.20	0.250			
0.0597	3820.44	4.1440	4.1440	0.7940	24.06	-0.20	0.250			
0.0620	3968.76	4.1410	4.1410	0.7745	24.06	-0.20	0.250			
0.0642	4110.84	4.1380	4.1384	0.7705	24.06	-0.20	0.250			
0.0665	4254.66	4.1350	4.1351	0.7807	24.06	-0.20	0.250			
0.0688	4403.85	4.1320	4.1317	0.7929	24.06	-0.20	0.250			
0.0712	4553.72	4.1290	4.1291	0.8124	24.06	-0.20	0.250			
0.0738	4720.38	4.1260	4.1256	0.8133	24.06	-0.20	0.250	0.228	0.388	
0.0762	4878.56	4.1230	4.1232	0.8279	24.06	-0.20	0.250			
0.0787	5033.91	4.1200	4.1202	0.8262	24.05	-0.21	0.250			
0.0812	5194.90	4.1170	4.1166	0.8193	24.05	-0.21	0.250			
0.0836	5348.63	4.1140	4.1139	0.8278	24.04	-0.22	0.250			
0.0861	5512.17	4.1110	4.1106	0.8484	24.04	-0.22	0.250			
0.0887	5679.48	4.1080	4.1080	0.8569	24.04	-0.22	0.250			
0.0913	5845.08	4.1050	4.1051	0.8573	24.04	-0.22	0.250	0.243	0.391	
0.0939	6010.06	4.1020	4.1023	0.8542	24.04	-0.22	0.250			
0.0965	6178.21	4.0990	4.0991	0.8430	24.03	-0.23	0.250			
0.0991	6343.87	4.0960	4.0958	0.8444	24.02	-0.24	0.250			
0.1015	6497.82	4.0930	4.0929	0.8274	24.02	-0.24	0.250			
0.1040	6658.78	4.0900	4.0898	0.8313	24.02	-0.24	0.250			
0.1065	6815.41	4.0870	4.0871	0.8385	24.02	-0.24	0.250			
0.1090	6977.93	4.0840	4.0842	0.8436	24.01	-0.25	0.250			
0.1116	7142.64	4.0810	4.0808	0.8460	24.01	-0.25	0.250			
0.1142	7307.39	4.0780	4.0779	0.8485	24.01	-0.25	0.250			
0.1167	7470.49	4.0750	4.0749	0.8616	24.00	-0.26	0.250			
0.1193	7637.09	4.0720	4.0721	0.8542	24.00	-0.26	0.250			
0.1219	7802.93	4.0690	4.0691	0.8540	24.00	-0.26	0.250			
0.1245	7964.92	4.0660	4.0663	0.8582	24.00	-0.26	0.250			
0.1271	8131.63	4.0630	4.0629	0.8588	24.00	-0.26	0.250			
0.1297	8299.37	4.0600	4.0597	0.8664	24.00	-0.26	0.250			
0.1323	8465.09	4.0570	4.0570	0.8698	23.99	-0.27	0.250	0.199	0.377	
0.1349	8631.58	4.0540	4.0541	0.8739	23.98	-0.28	0.250			
0.1375	8801.03	4.0510	4.0513	0.8725	23.98	-0.28	0.250			
0.1402	8971.86	4.0480	4.0483	0.8657	23.98	-0.28	0.250			
0.1428	9136.17	4.0450	4.0450	0.8599	23.98	-0.28	0.250			
0.1454	9302.58	4.0420	4.0417	0.8670	23.98	-0.28	0.250			
0.1479	9467.52	4.0390	4.0389	0.8743	23.98	-0.28	0.250			
0.1505	9635.04	4.0360	4.0359	0.8845	23.98	-0.28	0.250			
0.1532	9805.58	4.0330	4.0331	0.8902	23.98	-0.28	0.250	0.266	0.389	
0.1559	9977.35	4.0300	4.0303	0.8939	23.98	-0.28	0.250			
0.1586	10152.88	4.0270	4.0271	0.8888	23.98	-0.28	0.250			
0.1613	10326.37	4.0240	4.0238	0.8904	23.98	-0.28	0.250			
0.1640	10494.20	4.0210	4.0209	0.8846	23.98	-0.28	0.250			
0.1667	10667.24	4.0180	4.0178	0.8911	23.97	-0.29	0.250			
0.1693	10837.01	4.0150	4.0151	0.8986	23.97	-0.29	0.250			
0.1720	11009.52	4.0120	4.0123	0.9029	23.98	-0.28	0.250			
0.1747	11183.77	4.0090	4.0093	0.9030	23.98	-0.28	0.250			
0.1775	11357.80	4.0060	4.0061	0.8998	23.98	-0.28	0.250			
0.1802	11533.15	4.0030	4.0030	0.9022	23.98	-0.28	0.250			
0.1829	11707.64	4.0000	3.9996	0.8885	23.98	-0.28	0.250			
0.1856	11876.51	3.9970	3.9968	0.8774	23.98	-0.28	0.250			
0.1881	12040.42	3.9940	3.9941	0.8819	23.98	-0.28	0.250			
0.1907	12206.53	3.9910	3.9905	0.8928	23.99	-0.27	0.250			
0.1934	12380.19	3.9880	3.9879	0.9020	24.00	-0.26	0.250	0.292	0.381	
0.1962	12554.76	3.9850	3.9854	0.9274	24.00	-0.26	0.250			
0.1991	12742.33	3.9820	3.9820	0.9283	24.01	-0.25	0.250			
0.2019	12922.35	3.9790	3.9783	0.9408	24.02	-0.24	0.250			
0.2047	13103.35	3.9760	3.9755	0.9293	24.02	-0.24	0.250			
0.2075	13279.00	3.9730	3.9732	0.9410	24.03	-0.23	0.250			
0.2104	13465.47	3.9700	3.9700	0.9323	24.03	-0.23	0.250			
0.2132	13642.14	3.9670	3.9669	0.9379	24.04	-0.22	0.250	0.274	0.378	
0.2161	13829.48	3.9640	3.9641	0.9456	24.04	-0.22	0.250			
0.2188	14002.05	3.9610	3.9606	0.9479	24.04	-0.22	0.250			
0.2217	14190.67	3.9580	3.9579	0.9344	24.05	-0.21	0.250			
0.2246	14373.74	3.9550	3.9553	0.9191	24.06	-0.20	0.250			
0.2274	14550.89	3.9520	3.9527	0.9531	24.06	-0.20	0.250			
0.2302	14735.11	3.9490	3.9490	0.9556	24.06	-0.20	0.250			
0.2330	14915.04	3.9460	3.9457	0.9694	24.07	-0.19	0.250	0.242	0.395	
0.2359	15097.27	3.9430	3.9429	0.9655	24.07	-0.19	0.250			
0.2389	15288.30	3.9400	3.9399	1.0042	24.07	-0.19	0.250			
0.2419	15483.03	3.9370	3.9374	0.9962	24.08	-0.18	0.250			
0.2448	15667.35	3.9340	3.9339	0.9728	24.09	-0.17	0.250			
0.2478	15859.46	3.9310	3.9315	0.9749	24.09	-0.17	0.250			
0.2508	16050.63	3.9280	3.9279	0.9775	24.10	-0.16	0.250			
0.2537	16235.41	3.9250	3.9254	0.9904	24.10	-0.16	0.250	0.251	0.362	
0.2567	16427.16	3.9220	3.9224	0.9862	24.11	-0.15	0.250			
0.2597	16620.38	3.9190	3.9190	0.9963	24.12	-0.14	0.250			
0.2626	16808.08	3.9160	3.9162	0.9723	24.12	-0.14	0.250			
0.2655	16994.25	3.9130	3.9126	0.9782	24.13	-0.13	0.250			
0.2685	17184.11	3.9100	3.9096	0.9880	24.13	-0.13	0.250			
0.2715	17373.53	3.9070	3.9076	0.9914	24.14	-0.12	0.250	0.231	0.240	
0.2744	17561.94	3.9040	3.9045	1.0130	24.15	-0.11	0.250			
0.2775	17758.43	3.9010	3.9010	1.0169	24.16	-0.10	0.250			
0.2805	17952.31	3.8980	3.8980	1.0247	24.16	-0.10	0.250			
0.2836	18153.47	3.8950	3.8951	1.0198	24.16	-0.10	0.250			
0.2866	18343.45	3.8920	3.8920	1.0179	24.17	-0.09	0.250			
0.2898	18548.64	3.8890	3.8893	1.0361	24.19	-0.07	0.250			
0.2928	18737.74	3.8860	3.8868	1.0606	24.20	-0.06	0.250	0.062	0.279	
0.2959	18939.58	3.8830	3.8831	1.0914	24.22	-0.04	0.250			
0.2994	19159.26	3.8800	3.8801	1.1097	24.23	-0.03	0.250			
0.3029	19386.88	3.8770	3.8777	1.1291	24.23	-0.03	0.250			
0.3062	19599.87	3.8740	3.8744	1.1026	24.23	-0.03	0.250			
0.3096	19813.08	3.8710	3.8710	1.0796	24.24	-0.02	0.250			
0.3128	20016.91	3.8680	3.8678	1.0454	24.24	-0.02	0.250	0.294	0.401	
0.3158	20213.93	3.8650	3.8651	1.0314	24.24	-0.02	0.250			
0.3190	20414.75	3.8620	3.8621	1.0270	24.25	-0.01	0.250			
0.3221	20612.04	3.8590	3.8592	1.0015	24.26	0.00	0.250			
0.3250	20802.10	3.8560	3.8562	0.9911	24.26	0.00	0.250			
0.3280	20989.53	3.8530	3.8533	0.9790	24.27	0.01	0.250			
0.3309	21177.24	3.8500	3.8498	0.9554	24.27	0.01	0.250			
0.3338	21360.15	3.8470	3.8473	0.9323	24.27	0.01	0.250	0.265	0.429	
0.3365	21537.71	3.8440	3.8441	0.9033	24.28	0.02	0.250			
0.3392	21710.43	3.8410	3.8406	0.8764	24.28	0.02	0.250			
0.3418	21873.89	3.8380	3.8379	0.8385	24.28	0.02	0.250			
0.3442	22031.46	3.8350	3.8351	0.8053	24.28	0.02	0.250			
0.3466	22181.38	3.8320	3.8322	0.7793	24.28	0.02	0.250			
0.3488	22325.52	3.8290	3.8291	0.7641	24.29	0.03	0.250			
0.3511	22469.49	3.8260	3.8257	0.7492	24.30	0.04	0.250			
0.3533	22612.65	3.8230	3.8229	0.7506	24.30	0.04	0.250	0.237	0.444	
0.3556	22756.98	3.8200	3.8199	0.7538	24.30	0.04	0.250			
0.3578	22900.52	3.8170	3.8166	0.7670	24.30	0.04	0.250			
0.3602	23052.18	3.8140	3.8142	0.7745	24.30	0.04	0.250			
0.3625	23200.56	3.8110	3.8111	0.7825	24.30	0.04	0.250			
0.3648	23348.97	3.8080	3.8081	0.8047	24.30	0.04	0.250			
0.3673	23505.45	3.8050	3.8047	0.8285	24.30	0.04	0.250			
0.3699	23670.44	3.8020	3.8020	0.8605	24.30	0.04	0.250			
0.3725	23837.37	3.7990	3.7991	0.8840	24.30	0.04	0.250	0.310	0.413	
0.3752	24010.91	3.7960	3.7961	0.9094	24.29	0.03	0.250			
0.3779	24188.40	3.7930	3.7933	0.9312	24.29	0.03	0.250			
0.3808	24369.03	3.7900	3.7902	0.9472	24.29	0.03	0.250			
0.3836	24551.92	3.7870	3.7872	0.9702	24.28	0.02	0.250			
0.3866	24740.77	3.7840	3.7842	0.9913	24.28	0.02	0.250			
0.3896	24933.32	3.7810	3.7810	1.0145	24.28	0.02	0.250			
0.3927	25132.05	3.7780	3.7772	1.0310	24.28	0.02	0.250	0.306	0.431	
0.3958	25328.34	3.7750	3.7748	1.0539	24.28	0.02	0.250			
0.3990	25534.41	3.7720	3.7719	1.0712	24.28	0.02	0.250			
0.4022	25737.93	3.7690	3.7695	1.1020	24.28	0.02	0.250			
0.4055	25951.06	3.7660	3.7659	1.1076	24.28	0.02	0.250			
0.4089	26167.33	3.7630	3.7634	1.1403	24.27	0.01	0.250			
0.4123	26388.35	3.7600	3.7602	1.1866	24.27	0.01	0.250	0.344	0.432	
0.4160	26625.58	3.7570	3.7571	1.2373	24.26	0.00	0.250			
0.4198	26866.10	3.7540	3.7537	1.2601	24.26	0.00	0.250			
0.4236	27109.16	3.7510	3.7504	1.2852	24.26	0.00	0.250			
0.4276	27363.47	3.7480	3.7475	1.3124	24.26	0.00	0.250			
0.4315	27617.07	3.7450	3.7450	1.3268	24.26	0.00	0.250	0.296	0.396	
0.4355	27871.32	3.7420	3.7419	1.3564	24.26	0.00	0.250			
0.4396	28134.03	3.7390	3.7389	1.4068	24.26	0.00	0.250			
0.4439	28410.31	3.7360	3.7362	1.4394	24.26	0.00	0.250			
0.4482	28686.90	3.7330	3.7326	1.4832	24.26	0.00	0.250			
0.4528	28981.00	3.7300	3.7303	1.5197	24.26	0.00	0.250	0.143	0.311	
0.4574	29276.69	3.7270	3.7266	1.5556	24.25	-0.01	0.250			
0.4621	29571.57	3.7240	3.7247	1.5986	24.24	-0.02	0.250			
0.4670	29887.83	3.7210	3.7205	1.6472	24.24	-0.02	0.250			
0.4721	30216.21	3.7180	3.7185	1.7089	24.24	-0.02	0.250	0.217	0.325	
0.4773	30545.40	3.7150	3.7153	1.7445	24.23	-0.03	0.250			
0.4826	30885.52	3.7120	3.7115	1.8183	24.22	-0.04	0.250			
0.4880	31233.23	3.7090	3.7090	1.8864	24.21	-0.05	0.250			
0.4937	31596.53	3.7060	3.7063	1.9441	24.20	-0.06	0.250	0.123	0.310	
0.4997	31979.54	3.7030	3.7035	2.0479	24.18	-0.08	0.250			
0.5060	32382.61	3.7000	3.7004	2.1232	24.17	-0.09	0.250			
0.5126	32804.99	3.6970	3.6974	2.1971	24.14	-0.12	0.250	0.332	0.381	
0.5192	33230.79	3.6940	3.6941	2.2529	24.13	-0.13	0.250			
0.5262	33673.91	3.6910	3.6907	2.3304	24.12	-0.14	0.250			
0.5332	34126.21	3.6880	3.6880	2.3924	24.08	-0.18	0.250	0.258	0.413	
0.5403	34580.78	3.6850	3.6854	2.4700	24.06	-0.20	0.250			
0.5479	35064.52	3.6820	3.6819	2.5680	24.05	-0.21	0.250			
0.5558	35569.85	3.6790	3.6795	2.6481	24.03	-0.23	0.250	0.278	0.434	
0.5638	36084.03	3.6760	3.6760	2.7319	24.02	-0.24	0.250			
0.5722	36621.79	3.6730	3.6728	2.8058	24.00	-0.26	0.250	0.320	0.461	
0.5806	37160.57	3.6700	3.6703	2.9051	23.98	-0.28	0.250			
0.5894	37721.15	3.6670	3.6667	3.0433	23.95	-0.31	0.250	0.287	0.457	
0.5987	38315.87	3.6640	3.6639	3.1613	23.93	-0.33	0.250			
0.6086	38949.26	3.6610	3.6613	3.2705	23.92	-0.34	0.250	0.225	0.409	
0.6184	39574.40	3.6580	3.6583	3.3322	23.90	-0.36	0.250			
0.6285	40221.80	3.6550	3.6551	3.4305	23.88	-0.38	0.250	0.201	0.321	
0.6387	40878.60	3.6520	3.6517	3.6468	23.86	-0.40	0.250			
0.6504	41625.16	3.6490	3.6488	3.7738	23.86	-0.40	0.250	0.214	0.369	
0.6622	42379.23	3.6460	3.6464	3.6849	23.86	-0.40	0.250			
0.6723	43025.68	3.6430	3.6431	3.1848	23.86	-0.40	0.250	0.183	0.429	
0.6808	43571.27	3.6400	3.6402	2.7620	23.86	-0.40	0.250			
0.6883	44052.60	3.6370	3.6369	2.4514	23.87	-0.39	0.250			
0.6953	44500.66	3.6340	3.6338	2.2183	23.88	-0.38	0.250	0.312	0.462	
0.7016	44905.41	3.6310	3.6309	1.9813	23.90	-0.36	0.250			
0.7073	45269.34	3.6280	3.6280	1.7589	23.91	-0.35	0.250			
0.7122	45580.58	3.6250	3.6251	1.5574	23.92	-0.34	0.250	0.351	0.510	
0.7163	45844.66	3.6220	3.6219	1.3825	23.92	-0.34	0.250			
0.7200	46081.01	3.6190	3.6189	1.2817	23.92	-0.34	0.250			
0.7235	46305.56	3.6160	3.6159	1.2289	23.92	-0.34	0.250			
0.7271	46535.60	3.6130	3.6130	1.2226	23.92	-0.34	0.250			
0.7308	46768.68	3.6100	3.6100	1.2433	23.93	-0.33	0.250			
0.7345	47010.99	3.6070	3.6070	1.2771	23.94	-0.32	0.250	0.319	0.487	
0.7385	47261.24	3.6040	3.6035	1.3073	23.95	-0.31	0.250			
0.7425	47518.36	3.6010	3.6009	1.3085	23.95	-0.31	0.250			
0.7465	47776.21	3.5980	3.5982	1.2824	23.96	-0.30	0.250			
0.7504	48025.45	3.5950	3.5951	1.2393	23.96	-0.30	0.250			
0.7540	48259.19	3.5920	3.5920	1.1847	23.96	-0.30	0.250	0.355	0.503	
0.7574	48474.35	3.5890	3.5889	1.1315	23.97	-0.29	0.250			
0.7607	48681.61	3.5860	3.5857	1.0960	23.97	-0.29	0.250			
0.7639	48887.85	3.5830	3.5829	1.0908	23.98	-0.28	0.250			
0.7671	49096.26	3.5800	3.5797	1.0949	23.98	-0.28	0.250			
0.7704	49308.00	3.5770	3.5769	1.0995	23.98	-0.28	0.250			
0.7738	49522.90	3.5740	3.5739	1.0866	23.98	-0.28	0.250	0.324	0.470	
0.7771	49736.68	3.5710	3.5711	1.0584	23.98	-0.28	0.250			
0.7803	49940.97	3.5680	3.5680	1.0249	23.98	-0.28	0.250			
0.7833	50131.14	3.5650	3.5653	1.0139	23.98	-0.28	0.250			
0.7861	50313.32	3.5620	3.5616	1.0118	23.98	-0.28	0.250			
0.7891	50499.96	3.5590	3.5588	1.0382	23.98	-0.28	0.250			
0.7922	50699.26	3.5560	3.5555	1.0697	23.98	-0.28	0.250	0.212	0.405	
0.7956	50916.49	3.5530	3.5530	1.1222	23.98	-0.28	0.250			
0.7990	51134.49	3.5500	3.5502	1.1465	23.99	-0.27	0.250			
0.8024	51352.50	3.5470	3.5467	1.1894	23.99	-0.27	0.250			
0.8059	51578.87	3.5440	3.5443	1.2523	24.00	-0.26	0.250			
0.8098	51824.40	3.5410	3.5412	1.3328	24.00	-0.26	0.250			
0.8138	52084.52	3.5380	3.5379	1.4372	24.00	-0.26	0.250	0.247	0.408	
0.8183	52370.90	3.5350	3.5354	1.5638	24.01	-0.25	0.250			
0.8231	52677.24	3.5320	3.5315	1.6949	24.02	-0.24	0.250			
0.8284	53016.67	3.5290	3.5290	1.8083	24.02	-0.24	0.250			
0.8341	53380.74	3.5260	3.5263	1.9263	24.03	-0.23	0.250	0.339	0.452	
0.8400	53762.52	3.5230	3.5236	2.0523	24.02	-0.24	0.250			
0.8464	54168.80	3.5200	3.5205	2.1553	24.02	-0.24	0.250			
0.8531	54599.51	3.5170	3.5169	2.2177	24.01	-0.25	0.250	0.287	0.434	
0.8599	55034.96	3.5140	3.5141	2.2529	24.00	-0.26	0.250			
0.8670	55489.29	3.5110	3.5105	2.2078	24.00	-0.26	0.250			
0.8739	55930.31	3.5080	3.5081	2.0285	23.98	-0.28	0.250	0.256	0.466	
0.8800	56318.87	3.5050	3.5050	1.7658	23.98	-0.28	0.250			
0.8851	56644.79	3.5020	3.5022	1.4358	23.98	-0.28	0.250			
0.8889	56892.62	3.4990	3.4985	1.1032	23.98	-0.28	0.250			
0.8913	57044.22	3.4960	3.4959	0.8349	23.98	-0.28	0.250			
0.8929	57146.19	3.4930	3.4913	0.6133	23.98	-0.28	0.250	0.373	0.511	
0.8942	57225.84	3.4900	3.4901	0.4739	23.99	-0.27	0.250			
0.8954	57302.99	3.4870	3.4871	0.4124	23.99	-0.27	0.250			
0.8965	57374.37	3.4840	3.4840	0.3706	23.99	-0.27	0.250			
0.8975	57439.68	3.4810	3.4810	0.3467	24.00	-0.26	0.250			
0.8985	57501.10	3.4780	3.4780	0.3255	24.00	-0.26	0.250			
0.8994	57562.09	3.4750	3.4751	0.3144	24.01	-0.25	0.250			
0.9003	57621.14	3.4720	3.4715	0.3048	24.01	-0.25	0.250			
0.9012	57679.07	3.4690	3.4691	0.2948	24.01	-0.25	0.250			
0.9021	57734.44	3.4660	3.4661	0.2878	24.01	-0.25	0.250			
0.9030	57788.84	3.4630	3.4630	0.2820	24.02	-0.24	0.250			
0.9038	57842.26	3.4600	3.4600	0.2759	24.02	-0.24	0.250			
0.9046	57893.26	3.4570	3.4570	0.2691	24.02	-0.24	0.250			
0.9054	57944.89	3.4540	3.4541	0.2648	24.02	-0.24	0.250			
0.9062	57995.49	3.4510	3.4510	0.2595	24.03	-0.23	0.250			
0.9070	58044.89	3.4480	3.4480	0.2547	24.03	-0.23	0.250			
0.9077	58093.05	3.4450	3.4450	0.2489	24.04	-0.22	0.250			
0.9084	58140.41	3.4420	3.4419	0.2452	24.04	-0.22	0.250			
0.9092	58186.90	3.4390	3.4390	0.2415	24.04	-0.22	0.250			
0.9099	58232.71	3.4360	3.4360	0.2380	24.05	-0.21	0.250			
0.9106	58278.37	3.4330	3.4330	0.2346	24.05	-0.21	0.250			
0.9113	58322.89	3.4300	3.4300	0.2320	24.05	-0.21	0.250			
0.9120	58366.97	3.4270	3.4271	0.2289	24.06	-0.20	0.250			
0.9127	58410.84	3.4240	3.4237	0.2258	24.06	-0.20	0.250			
0.9133	58453.99	3.4210	3.4212	0.2229	24.06	-0.20	0.250	0.352	0.554	
0.9140	58496.54	3.4180	3.4180	0.2197	24.07	-0.19	0.250			
0.9147	58539.01	3.4150	3.4150	0.2151	24.07	-0.19	0.250			
0.9153	58579.29	3.4120	3.4120	0.2122	24.07	-0.19	0.250			
0.9159	58619.26	3.4090	3.4091	0.2103	24.07	-0.19	0.250			
0.9165	58658.78	3.4060	3.4061	0.2075	24.08	-0.18	0.250			
0.9172	58698.34	3.4030	3.4028	0.2051	24.08	-0.18	0.250			
0.9178	58737.95	3.4000	3.4001	0.2030	24.08	-0.18	0.250			
0.9184	58776.84	3.3970	3.3971	0.2005	24.08	-0.18	0.250			
0.9190	58815.52	3.3940	3.3941	0.1984	24.08	-0.18	0.250			
0.9196	58854.09	3.3910	3.3910	0.1959	24.09	-0.17	0.250			
0.9202	58890.45	3.3880	3.3880	0.1915	24.09	-0.17	0.250			
0.9207	58926.55	3.3850	3.3851	0.1889	24.09	-0.17	0.250			
0.9213	58962.75	3.3820	3.3820	0.1870	24.09	-0.17	0.250			
0.9219	58998.56	3.3790	3.3790	0.1853	24.09	-0.17	0.250			
0.9224	59034.01	3.3760	3.3760	0.1832	24.09	-0.17	0.250			
0.9230	59069.07	3.3730	3.3730	0.1807	24.09	-0.17	0.250			
0.9235	59103.70	3.3700	3.3700	0.1785	24.10	-0.16	0.250			
0.9240	59137.53	3.3670	3.3670	0.1769	24.10	-0.16	0.250			
0.9246	59171.22	3.3640	3.3640	0.1750	24.10	-0.16	0.250			
0.9251	59204.60	3.3610	3.3611	0.1724	24.10	-0.16	0.250			
0.9256	59237.63	3.3580	3.3581	0.1708	24.10	-0.16	0.250			
0.9261	59270.21	3.3550	3.3550	0.1687	24.10	-0.16	0.250			
0.9266	59302.46	3.3520	3.3520	0.1667	24.11	-0.15	0.250			
0.9271	59334.48	3.3490	3.3489	0.1645	24.11	-0.15	0.250			
0.9276	59365.59	3.3460	3.3460	0.1613	24.11	-0.15	0.250			
0.9281	59396.17	3.3430	3.3431	0.1603	24.11	-0.15	0.250			
0.9285	59426.77	3.3400	3.3400	0.1587	24.12	-0.14	0.250			
0.9290	59457.17	3.3370	3.3371	0.1573	24.12	-0.14	0.250			
0.9295	59487.23	3.3340	3.3332	0.1559	24.12	-0.14	0.250			
0.9300	59516.98	3.3310	3.3311	0.1540	24.12	-0.14	0.250			
0.9304	59546.49	3.3280	3.3280	0.1524	24.12	-0.14	0.250			
0.9309	59575.49	3.3250	3.3250	0.1509	24.13	-0.13	0.250			
0.9313	59604.49	3.3220	3.3220	0.1496	24.13	-0.13	0.250			
0.9318	59632.89	3.3190	3.3190	0.1435	24.13	-0.13	0.250			
0.9322	59659.14	3.3160	3.3162	0.1432	24.13	-0.13	0.250			
0.9326	59686.03	3.3130	3.3133	0.1416	24.13	-0.13	0.250			
0.9330	59713.27	3.3100	3.3099	0.1421	24.14	-0.12	0.250	0.309	0.561	
0.9334	59740.35	3.3070	3.3074	0.1412	24.14	-0.12	0.250			
0.9339	59767.81	3.3040	3.3042	0.1403	24.14	-0.12	0.250			
0.9343	59794.72	3.3010	3.3011	0.1400	24.14	-0.12	0.250			
0.9347	59823.22	3.2980	3.2980	0.1418	24.15	-0.11	0.250			
0.9352	59849.64	3.2950	3.2949	0.1379	24.15	-0.11	0.250			
0.9355	59874.50	3.2920	3.2920	0.1330	24.15	-0.11	0.250			
0.9359	59899.87	3.2890	3.2890	0.1312	24.16	-0.10	0.250			
0.9363	59924.93	3.2860	3.2860	0.1292	24.16	-0.10	0.250			
0.9367	59949.39	3.2830	3.2830	0.1278	24.16	-0.10	0.250			
0.9371	59973.76	3.2800	3.2800	0.1263	24.16	-0.10	0.250			
0.9375	59997.78	3.2770	3.2771	0.1256	24.17	-0.09	0.250			
0.9378	60021.61	3.2740	3.2737	0.1245	24.17	-0.09	0.250			
0.9382	60045.53	3.2710	3.2710	0.1231	24.17	-0.09	0.250			
0.9386	60069.13	3.2680	3.2679	0.1221	24.17	-0.09	0.250			
0.9389	60092.57	3.2650	3.2651	0.1204	24.18	-0.08	0.250			
0.9393	60115.90	3.2620	3.2621	0.1190	24.18	-0.08	0.250			
0.9397	60138.27	3.2590	3.2591	0.1177	24.18	-0.08	0.250			
0.9400	60160.75	3.2560	3.2560	0.1164	24.18	-0.08	0.250			
0.9404	60182.97	3.2530	3.2529	0.1142	24.18	-0.08	0.250			
0.9407	60204.76	3.2500	3.2500	0.1127	24.18	-0.08	0.250			
0.9410	60226.11	3.2470	3.2471	0.1121	24.19	-0.07	0.250			
0.9414	60247.54	3.2440	3.2442	0.1111	24.19	-0.07	0.250			
0.9417	60268.68	3.2410	3.2411	0.1102	24.19	-0.07	0.250			
0.9420	60289.77	3.2380	3.2374	0.1095	24.19	-0.07	0.250			
0.9424	60310.67	3.2350	3.2350	0.1079	24.19	-0.07	0.250			
0.9427	60331.31	3.2320	3.2321	0.1071	24.19	-0.07	0.250			
0.9430	60351.84	3.2290	3.2290	0.1060	24.20	-0.06	0.250			
0.9433	60372.58	3.2260	3.2260	0.1053	24.20	-0.06	0.250			
0.9436	60392.48	3.2230	3.2230	0.1034	24.20	-0.06	0.250			
0.9439	60412.20	3.2200	3.2199	0.1020	24.20	-0.06	0.250			
0.9442	60431.70	3.2170	3.2171	0.1006	24.21	-0.05	0.250			
0.9445	60450.87	3.2140	3.2140	0.0991	24.21	-0.05	0.250			
0.9448	60469.70	3.2110	3.2110	0.0982	24.21	-0.05	0.250			
0.9451	60488.43	3.2080	3.2080	0.0970	24.21	-0.05	0.250			
0.9454	60506.63	3.2050	3.2050	0.0958	24.21	-0.05	0.250			
0.9457	60524.98	3.2020	3.2020	0.0954	24.22	-0.04	0.250			
0.9460	60543.32	3.1990	3.1990	0.0944	24.22	-0.04	0.250			
0.9463	60561.38	3.1960	3.1960	0.0937	24.22	-0.04	0.250			
0.9466	60579.55	3.1930	3.1931	0.0928	24.22	-0.04	0.250			
0.9468	60597.24	3.1900	3.1900	0.0914	24.23	-0.03	0.250			
0.9471	60614.68	3.1870	3.1870	0.0902	24.23	-0.03	0.250			
0.9474	60631.86	3.1840	3.1840	0.0888	24.23	-0.03	0.250			
0.9476	60648.66	3.1810	3.1810	0.0873	24.23	-0.03	0.250			
0.9479	60665.32	3.1780	3.1780	0.0862	24.24	-0.02	0.250			
0.9482	60681.73	3.1750	3.1750	0.0849	24.24	-0.02	0.250			
0.9484	60697.92	3.1720	3.1721	0.0838	24.24	-0.02	0.250			
0.9487	60713.92	3.1690	3.1689	0.0826	24.24	-0.02	0.250			
0.9489	60729.64	3.1660	3.1660	0.0815	24.25	-0.01	0.250			
0.9491	60745.18	3.1630	3.1630	0.0803	24.25	-0.01	0.250			
0.9494	60760.48	3.1600	3.1600	0.0792	24.25	-0.01	0.250			
0.9496	60775.56	3.1570	3.1570	0.0781	24.25	-0.01	0.250			
0.9499	60790.42	3.1540	3.1541	0.0770	24.26	-0.00	0.250			
0.9501	60805.23	3.1510	3.1511	0.0757	24.26	-0.00	0.250			
0.9503	60819.73	3.1480	3.1477	0.0746	24.26	-0.00	0.250			
0.9505	60833.92	3.1450	3.1450	0.0732	24.26	0.00	0.250			
0.9507	60847.86	3.1420	3.1421	0.0717	24.26	0.00	0.250			
0.9510	60861.59	3.1390	3.1390	0.0704	24.27	0.01	0.250			
0.9512	60875.06	3.1360	3.1360	0.0687	24.27	0.01	0.250			
0.9514	60888.08	3.1330	3.1330	0.0669	24.27	0.01	0.250			
0.9516	60900.80	3.1300	3.1301	0.0652	24.27	0.01	0.250			
0.9518	60914.09	3.1270	3.1268	0.0619	24.27	0.01	0.250			
0.9520	60926.00	3.1240	3.1238	0.0606	24.28	0.02	0.250			
0.9521	60937.29	3.1210	3.1210	0.0570	24.28	0.02	0.250			
0.9523	60947.90	3.1180	3.1182	0.0534	24.28	0.02	0.250			
0.9525	60958.46	3.1150	3.1151	0.0507	24.28	0.02	0.250			
0.9526	60967.78	3.1120	3.1125	0.0465	24.28	0.02	0.250			
0.9528	60976.30	3.1090	3.1098	0.0423	24.28	0.02	0.250			
0.9529	60984.02	3.1060	3.1073	0.0381	24.28	0.02	0.250			
0.9530	60990.93	3.1030	3.1042	0.0339	24.29	0.03	0.250			
0.9531	60997.04	3.1000	3.1019	0.0297	24.29	0.03	0.250			
