Ah_balance (normalized)	Ah_balance (mAh)	Voltage - fit (V)	Voltage -  interpolate (V)	dQ/dV (1/V)	Temperature (°C)	Temperature - diff (°C)	Current (C)	R_DC 0ms (mOhm)	R_DC 50ms (mOhm)	R_DC 50 ms PEC (mOhm)
0.0482	3083.12	4.1970	4.1970	0.7520	25.34	0.42	0.750			
0.0504	3226.71	4.1940	4.1941	0.7489	25.35	0.43	0.750			
0.0527	3370.08	4.1910	4.1910	0.7516	25.35	0.43	0.750			
0.0549	3514.99	4.1880	4.1879	0.7541	25.35	0.43	0.750			
0.0572	3659.23	4.1850	4.1850	0.7539	25.35	0.43	0.750			
0.0595	3805.10	4.1820	4.1821	0.7572	25.35	0.43	0.750			
0.0617	3950.96	4.1790	4.1790	0.7501	25.35	0.43	0.750			
0.0640	4093.52	4.1760	4.1760	0.7498	25.36	0.44	0.750			
0.0662	4234.85	4.1730	4.1732	0.7544	25.36	0.44	0.750			
0.0684	4379.32	4.1700	4.1698	0.7624	25.36	0.44	0.750			
0.0707	4526.83	4.1670	4.1671	0.7675	25.36	0.44	0.750			
0.0731	4676.52	4.1640	4.1641	0.7668	25.36	0.44	0.750			
0.0754	4826.74	4.1610	4.1610	0.7730	25.36	0.44	0.750			
0.0778	4976.76	4.1580	4.1580	0.7774	25.36	0.44	0.750			
0.0800	5120.92	4.1550	4.1547	0.7665	25.36	0.44	0.750			
0.0823	5267.43	4.1520	4.1520	0.7661	25.36	0.44	0.750			
0.0846	5414.43	4.1490	4.1491	0.7666	25.36	0.44	0.750			
0.0869	5562.18	4.1460	4.1460	0.7696	25.37	0.45	0.750			
0.0892	5711.26	4.1430	4.1429	0.7735	25.37	0.45	0.750			
0.0915	5857.61	4.1400	4.1401	0.7707	25.37	0.45	0.750			
0.0938	6006.26	4.1370	4.1370	0.7720	25.37	0.45	0.750			
0.0962	6155.73	4.1340	4.1340	0.7740	25.37	0.45	0.750			
0.0985	6304.33	4.1310	4.1310	0.7687	25.37	0.45	0.750			
0.1008	6450.38	4.1280	4.1281	0.7691	25.38	0.46	0.750			
0.1031	6595.77	4.1250	4.1251	0.7712	25.38	0.46	0.750			
0.1054	6744.47	4.1220	4.1214	0.7775	25.38	0.46	0.750			
0.1077	6894.24	4.1190	4.1191	0.7816	25.38	0.46	0.750			
0.1101	7047.20	4.1160	4.1160	0.7821	25.38	0.46	0.750			
0.1125	7202.82	4.1130	4.1130	0.7805	25.38	0.46	0.750			
0.1149	7354.27	4.1100	4.1100	0.7746	25.38	0.46	0.750			
0.1171	7492.95	4.1070	4.1071	0.7723	25.38	0.46	0.750			
0.1194	7642.24	4.1040	4.1041	0.7694	25.38	0.46	0.750			
0.1217	7788.95	4.1010	4.1013	0.7743	25.39	0.47	0.750			
0.1241	7940.02	4.0980	4.0984	0.7710	25.39	0.47	0.750			
0.1264	8092.08	4.0950	4.0953	0.7745	25.39	0.47	0.750			
0.1286	8232.53	4.0920	4.0926	0.7930	25.40	0.48	0.750			
0.1309	8380.65	4.0890	4.0892	0.7986	25.40	0.48	0.750			
0.1333	8532.91	4.0860	4.0867	0.8288	25.41	0.49	0.750			
0.1359	8700.07	4.0830	4.0832	0.8569	25.41	0.49	0.750			
0.1386	8869.17	4.0800	4.0806	0.8718	25.42	0.50	0.750			
0.1414	9049.50	4.0770	4.0776	0.8871	25.43	0.51	0.750			
0.1441	9223.67	4.0740	4.0740	0.8777	25.43	0.51	0.750			
0.1467	9391.82	4.0710	4.0708	0.8394	25.43	0.51	0.750			
0.1490	9538.45	4.0680	4.0681	0.8086	25.43	0.51	0.750			
0.1515	9695.16	4.0650	4.0651	0.8163	25.43	0.51	0.750			
0.1539	9847.05	4.0620	4.0621	0.8218	25.43	0.51	0.750			
0.1563	10004.99	4.0590	4.0587	0.8274	25.43	0.51	0.750			
0.1589	10168.91	4.0560	4.0561	0.8224	25.44	0.52	0.750			
0.1614	10328.65	4.0530	4.0531	0.8353	25.44	0.52	0.750			
0.1639	10490.07	4.0500	4.0502	0.8418	25.44	0.52	0.750			
0.1664	10648.98	4.0470	4.0471	0.8295	25.45	0.53	0.750			
0.1689	10807.97	4.0440	4.0441	0.8343	25.45	0.53	0.750			
0.1714	10968.23	4.0410	4.0412	0.8334	25.45	0.53	0.750			
0.1739	11131.42	4.0380	4.0381	0.8440	25.45	0.53	0.750			
0.1765	11293.72	4.0350	4.0350	0.8502	25.45	0.53	0.750			
0.1790	11456.70	4.0320	4.0321	0.8428	25.45	0.53	0.750			
0.1816	11619.70	4.0290	4.0291	0.8460	25.45	0.53	0.750			
0.1841	11784.52	4.0260	4.0260	0.8443	25.46	0.54	0.750			
0.1866	11944.88	4.0230	4.0231	0.8439	25.46	0.54	0.750			
0.1891	12105.32	4.0200	4.0200	0.8515	25.46	0.54	0.750			
0.1917	12267.83	4.0170	4.0171	0.8532	25.47	0.55	0.750			
0.1943	12432.14	4.0140	4.0140	0.8570	25.47	0.55	0.750			
0.1969	12600.80	4.0110	4.0110	0.8613	25.47	0.55	0.750			
0.1995	12764.94	4.0080	4.0081	0.8655	25.47	0.55	0.750			
0.2021	12932.48	4.0050	4.0051	0.8692	25.47	0.55	0.750			
0.2046	13096.96	4.0020	4.0019	0.8676	25.47	0.55	0.750			
0.2072	13263.83	3.9990	3.9990	0.8706	25.47	0.55	0.750			
0.2099	13432.29	3.9960	3.9961	0.8694	25.47	0.55	0.750			
0.2125	13598.29	3.9930	3.9931	0.8749	25.48	0.56	0.750			
0.2151	13767.49	3.9900	3.9901	0.8749	25.48	0.56	0.750			
0.2177	13934.68	3.9870	3.9865	0.8799	25.48	0.56	0.750			
0.2204	14105.10	3.9840	3.9840	0.8808	25.48	0.56	0.750			
0.2230	14274.12	3.9810	3.9811	0.8845	25.48	0.56	0.750			
0.2257	14446.04	3.9780	3.9780	0.8929	25.48	0.56	0.750			
0.2284	14619.13	3.9750	3.9750	0.8920	25.48	0.56	0.750			
0.2310	14786.77	3.9720	3.9720	0.8867	25.48	0.56	0.750			
0.2337	14958.52	3.9690	3.9690	0.8901	25.49	0.57	0.750			
0.2364	15127.56	3.9660	3.9661	0.8922	25.49	0.57	0.750			
0.2391	15299.80	3.9630	3.9629	0.8999	25.49	0.57	0.750			
0.2418	15473.67	3.9600	3.9600	0.8978	25.50	0.58	0.750			
0.2445	15647.15	3.9570	3.9570	0.8985	25.50	0.58	0.750			
0.2472	15820.85	3.9540	3.9541	0.8973	25.50	0.58	0.750			
0.2499	15991.01	3.9510	3.9511	0.8955	25.51	0.59	0.750			
0.2525	16160.32	3.9480	3.9481	0.8985	25.51	0.59	0.750			
0.2552	16331.92	3.9450	3.9446	0.9032	25.51	0.59	0.750			
0.2579	16505.03	3.9420	3.9422	0.9104	25.51	0.59	0.750			
0.2607	16683.56	3.9390	3.9390	0.9065	25.51	0.59	0.750			
0.2634	16858.62	3.9360	3.9361	0.9142	25.51	0.59	0.750			
0.2662	17034.65	3.9330	3.9331	0.9165	25.51	0.59	0.750			
0.2688	17205.59	3.9300	3.9303	0.9110	25.51	0.59	0.750			
0.2716	17383.50	3.9270	3.9270	0.9003	25.52	0.60	0.750			
0.2744	17560.36	3.9240	3.9240	0.9034	25.52	0.60	0.750			
0.2771	17732.94	3.9210	3.9211	0.9016	25.52	0.60	0.750			
0.2797	17901.87	3.9180	3.9180	0.9048	25.53	0.61	0.750			
0.2824	18075.49	3.9150	3.9152	0.9119	25.53	0.61	0.750			
0.2852	18250.80	3.9120	3.9118	0.9050	25.52	0.60	0.750			
0.2879	18423.98	3.9090	3.9092	0.9152	25.52	0.60	0.750			
0.2906	18601.40	3.9060	3.9062	0.9159	25.51	0.59	0.750			
0.2934	18779.87	3.9030	3.9033	0.9240	25.51	0.59	0.750			
0.2962	18959.13	3.9000	3.9000	0.9095	25.51	0.59	0.750			
0.2989	19132.07	3.8970	3.8972	0.9154	25.51	0.59	0.750			
0.3018	19312.25	3.8940	3.8940	0.9252	25.50	0.58	0.750			
0.3045	19488.20	3.8910	3.8910	0.9161	25.50	0.58	0.750			
0.3073	19664.26	3.8880	3.8882	0.9151	25.50	0.58	0.750			
0.3100	19840.44	3.8850	3.8850	0.9174	25.49	0.57	0.750			
0.3127	20015.78	3.8820	3.8820	0.9238	25.49	0.57	0.750			
0.3155	20195.00	3.8790	3.8790	0.9302	25.48	0.56	0.750			
0.3183	20370.92	3.8760	3.8759	0.9292	25.48	0.56	0.750			
0.3211	20552.70	3.8730	3.8730	0.9220	25.47	0.55	0.750			
0.3239	20730.00	3.8700	3.8701	0.9282	25.47	0.55	0.750			
0.3267	20907.20	3.8670	3.8670	0.9316	25.46	0.54	0.750			
0.3295	21085.41	3.8640	3.8641	0.9293	25.45	0.53	0.750			
0.3322	21263.76	3.8610	3.8610	0.9248	25.45	0.53	0.750			
0.3350	21441.60	3.8580	3.8581	0.9275	25.44	0.52	0.750			
0.3378	21619.05	3.8550	3.8551	0.9348	25.44	0.52	0.750			
0.3406	21801.02	3.8520	3.8519	0.9439	25.43	0.51	0.750			
0.3435	21981.98	3.8490	3.8490	0.9326	25.43	0.51	0.750			
0.3462	22159.66	3.8460	3.8460	0.9393	25.42	0.50	0.750			
0.3491	22340.10	3.8430	3.8431	0.9522	25.41	0.49	0.750			
0.3519	22524.43	3.8400	3.8401	0.9595	25.39	0.47	0.750			
0.3548	22707.94	3.8370	3.8368	0.9631	25.38	0.46	0.750	0.332	0.440	
0.3578	22896.27	3.8340	3.8341	0.9545	25.37	0.45	0.750			
0.3606	23079.74	3.8310	3.8312	0.9673	25.37	0.45	0.750			
0.3635	23264.95	3.8280	3.8280	0.9767	25.36	0.44	0.750			
0.3664	23451.38	3.8250	3.8251	0.9788	25.35	0.43	0.750			
0.3694	23639.83	3.8220	3.8221	0.9780	25.34	0.42	0.750			
0.3723	23828.64	3.8190	3.8191	0.9944	25.33	0.41	0.750			
0.3753	24021.79	3.8160	3.8161	1.0061	25.32	0.40	0.750			
0.3784	24217.94	3.8130	3.8131	1.0138	25.31	0.39	0.750			
0.3814	24411.77	3.8100	3.8101	1.0132	25.30	0.38	0.750			
0.3845	24607.17	3.8070	3.8071	1.0239	25.29	0.37	0.750			
0.3876	24804.46	3.8040	3.8040	1.0353	25.28	0.36	0.750			
0.3907	25004.99	3.8010	3.8010	1.0463	25.28	0.36	0.750			
0.3939	25207.76	3.7980	3.7980	1.0433	25.27	0.35	0.750			
0.3970	25407.24	3.7950	3.7951	1.0644	25.26	0.34	0.750			
0.4002	25611.40	3.7920	3.7920	1.0840	25.25	0.33	0.750			
0.4034	25820.69	3.7890	3.7891	1.1022	25.24	0.32	0.750			
0.4068	26036.34	3.7860	3.7859	1.1084	25.22	0.30	0.750			
0.4101	26248.75	3.7830	3.7831	1.1321	25.21	0.29	0.750			
0.4136	26468.13	3.7800	3.7801	1.1572	25.20	0.28	0.750			
0.4171	26692.83	3.7770	3.7768	1.1792	25.18	0.26	0.750			
0.4206	26918.87	3.7740	3.7741	1.1959	25.17	0.25	0.750			
0.4242	27150.00	3.7710	3.7711	1.2218	25.17	0.25	0.750			
0.4280	27389.07	3.7680	3.7680	1.2517	25.16	0.24	0.750			
0.4318	27637.81	3.7650	3.7649	1.2843	25.15	0.23	0.750			
0.4356	27878.28	3.7620	3.7620	1.2938	25.13	0.21	0.750			
0.4395	28129.14	3.7590	3.7590	1.3207	25.12	0.20	0.750			
0.4435	28384.87	3.7560	3.7561	1.3356	25.11	0.19	0.750			
0.4476	28645.78	3.7530	3.7531	1.3466	25.10	0.18	0.750			
0.4516	28900.71	3.7500	3.7501	1.3915	25.08	0.16	0.750			
0.4558	29174.26	3.7470	3.7464	1.3995	25.07	0.15	0.750			
0.4601	29445.31	3.7440	3.7442	1.4303	25.06	0.14	0.750			
0.4644	29722.13	3.7410	3.7412	1.4877	25.05	0.13	0.750			
0.4690	30014.30	3.7380	3.7379	1.5358	25.04	0.12	0.750			
0.4735	30305.06	3.7350	3.7353	1.5916	25.02	0.10	0.750			
0.4785	30623.77	3.7320	3.7323	1.6411	25.01	0.09	0.750			
0.4834	30936.91	3.7290	3.7290	1.6991	24.99	0.07	0.750			
0.4887	31278.67	3.7260	3.7259	1.7410	24.97	0.05	0.750			
0.4940	31617.58	3.7230	3.7233	1.7782	24.96	0.04	0.750			
0.4994	31958.58	3.7200	3.7202	1.8356	24.94	0.02	0.750			
0.5049	32316.06	3.7170	3.7170	1.8731	24.93	0.01	0.750			
0.5105	32673.42	3.7140	3.7141	1.9383	24.92	-0.00	0.750			
0.5164	33049.38	3.7110	3.7112	1.9864	24.90	-0.02	0.750			
0.5226	33448.26	3.7080	3.7078	2.0293	24.89	-0.03	0.750			
0.5288	33841.37	3.7050	3.7050	2.0492	24.87	-0.05	0.750			
0.5349	34235.53	3.7020	3.7022	2.1492	24.85	-0.07	0.750			
0.5415	34658.94	3.6990	3.6988	2.1886	24.84	-0.08	0.750			
0.5482	35083.03	3.6960	3.6957	2.2594	24.83	-0.09	0.750			
0.5553	35541.19	3.6930	3.6929	2.2134	24.82	-0.10	0.750			
0.5621	35972.61	3.6900	3.6904	2.1779	24.80	-0.12	0.750			
0.5682	36363.62	3.6870	3.6872	2.2527	24.78	-0.14	0.750			
0.5748	36789.78	3.6840	3.6840	2.2518	24.78	-0.14	0.750			
0.5814	37208.92	3.6810	3.6810	2.4554	24.78	-0.14	0.750			
0.5891	37699.48	3.6780	3.6775	2.6648	24.77	-0.15	0.750			
0.5973	38226.62	3.6750	3.6755	2.6093	24.77	-0.15	0.750			
0.6059	38780.55	3.6720	3.6716	2.7281	24.76	-0.16	0.750			
0.6137	39277.77	3.6690	3.6694	2.5787	24.77	-0.15	0.750			
0.6212	39759.18	3.6660	3.6656	2.4973	24.77	-0.15	0.750			
0.6283	40214.09	3.6630	3.6636	2.3239	24.77	-0.15	0.750			
0.6347	40621.62	3.6600	3.6594	2.0839	24.78	-0.14	0.750			
0.6407	41004.74	3.6570	3.6574	1.9748	24.79	-0.13	0.750			
0.6461	41352.04	3.6540	3.6533	1.7616	24.80	-0.12	0.750			
0.6513	41685.40	3.6510	3.6513	1.6431	24.81	-0.11	0.750			
0.6562	41998.98	3.6480	3.6482	1.5020	24.81	-0.11	0.750			
0.6605	42272.27	3.6450	3.6451	1.3898	24.81	-0.11	0.750			
0.6643	42515.92	3.6420	3.6421	1.2429	24.82	-0.10	0.750			
0.6678	42741.54	3.6390	3.6383	1.1672	24.82	-0.10	0.750			
0.6712	42954.07	3.6360	3.6362	1.0766	24.83	-0.09	0.750			
0.6742	43149.66	3.6330	3.6331	1.0216	24.83	-0.09	0.750			
0.6772	43339.83	3.6300	3.6301	0.9911	24.84	-0.08	0.750			
0.6800	43521.70	3.6270	3.6269	0.9438	24.85	-0.07	0.750			
0.6828	43700.77	3.6240	3.6243	0.9193	24.86	-0.06	0.750			
0.6856	43876.76	3.6210	3.6212	0.8990	24.86	-0.06	0.750			
0.6883	44050.46	3.6180	3.6180	0.8648	24.87	-0.05	0.750			
0.6910	44224.89	3.6150	3.6148	0.8253	24.88	-0.04	0.750			
0.6933	44371.92	3.6120	3.6122	0.7576	24.88	-0.04	0.750			
0.6955	44513.78	3.6090	3.6091	0.7055	24.89	-0.03	0.750			
0.6976	44645.79	3.6060	3.6061	0.6410	24.89	-0.03	0.750			
0.6994	44761.55	3.6030	3.6031	0.5859	24.90	-0.02	0.750			
0.7011	44868.74	3.6000	3.6002	0.5172	24.91	-0.01	0.750			
0.7025	44961.73	3.5970	3.5971	0.4633	24.91	-0.01	0.750			
0.7038	45045.39	3.5940	3.5944	0.4068	24.91	-0.01	0.750			
0.7049	45115.60	3.5910	3.5913	0.3517	24.92	-0.00	0.750			
0.7059	45177.14	3.5880	3.5887	0.3043	24.92	0.00	0.750			
0.7067	45231.31	3.5850	3.5840	0.2606	24.92	0.00	0.750			
0.7074	45275.61	3.5820	3.5834	0.2168	24.93	0.01	0.750			
0.7081	45316.54	3.5790	3.5801	0.1745	24.93	0.01	0.750			
0.7084	45340.60	3.5760	3.5779	0.1418	24.93	0.01	0.750			
0.7088	45365.99	3.5730	3.5745	0.0549	24.93	0.01	0.751			
