Ah_balance (normalized)	Ah_balance (mAh)	Voltage - fit (V)	Voltage -  interpolate (V)	dQ/dV (1/V)	Temperature (°C)	Temperature - diff (°C)	Current (C)	R_DC 0ms (mOhm)	R_DC 50ms (mOhm)	R_DC 50 ms PEC (mOhm)
0.0486	3108.51	4.1970	4.1971	0.7510	25.51	0.41	0.750			
0.0508	3253.04	4.1940	4.1940	0.7523	25.51	0.41	0.750			
0.0531	3397.21	4.1910	4.1909	0.7531	25.51	0.41	0.750			
0.0553	3541.97	4.1880	4.1880	0.7557	25.51	0.41	0.750			
0.0577	3690.24	4.1850	4.1849	0.7454	25.51	0.41	0.750			
0.0599	3831.50	4.1820	4.1820	0.7508	25.51	0.41	0.750			
0.0621	3973.89	4.1790	4.1792	0.7542	25.51	0.41	0.750			
0.0643	4116.62	4.1760	4.1761	0.7638	25.51	0.41	0.750			
0.0667	4266.36	4.1730	4.1731	0.7629	25.51	0.41	0.750			
0.0690	4413.65	4.1700	4.1701	0.7639	25.51	0.41	0.750			
0.0713	4561.05	4.1670	4.1671	0.7606	25.51	0.41	0.750			
0.0736	4709.34	4.1640	4.1641	0.7683	25.52	0.42	0.750			
0.0758	4851.52	4.1610	4.1610	0.7574	25.52	0.42	0.750			
0.0781	4996.97	4.1580	4.1580	0.7593	25.52	0.42	0.750			
0.0803	5140.91	4.1550	4.1552	0.7603	25.52	0.42	0.750			
0.0827	5291.82	4.1520	4.1520	0.7645	25.52	0.42	0.750			
0.0850	5438.65	4.1490	4.1490	0.7704	25.53	0.43	0.750			
0.0873	5584.01	4.1460	4.1460	0.7641	25.53	0.43	0.750			
0.0896	5731.95	4.1430	4.1430	0.7696	25.53	0.43	0.750			
0.0919	5881.18	4.1400	4.1400	0.7727	25.53	0.43	0.750			
0.0943	6032.24	4.1370	4.1371	0.7700	25.53	0.43	0.750			
0.0965	6178.55	4.1340	4.1340	0.7727	25.53	0.43	0.750			
0.0988	6326.33	4.1310	4.1311	0.7750	25.53	0.43	0.750			
0.1012	6474.76	4.1280	4.1280	0.7802	25.53	0.43	0.750			
0.1035	6624.98	4.1250	4.1251	0.7813	25.53	0.43	0.750			
0.1059	6775.68	4.1220	4.1221	0.7876	25.53	0.43	0.750			
0.1083	6928.90	4.1190	4.1190	0.7884	25.53	0.43	0.750			
0.1106	7079.68	4.1160	4.1160	0.7906	25.54	0.44	0.750			
0.1130	7229.31	4.1130	4.1130	0.7848	25.54	0.44	0.750			
0.1153	7381.25	4.1100	4.1100	0.7888	25.54	0.44	0.750			
0.1177	7533.26	4.1070	4.1071	0.7902	25.54	0.44	0.750			
0.1201	7686.39	4.1040	4.1040	0.7899	25.54	0.44	0.750			
0.1225	7837.67	4.1010	4.1010	0.7909	25.55	0.45	0.750			
0.1248	7987.75	4.0980	4.0981	0.7901	25.55	0.45	0.750			
0.1272	8139.75	4.0950	4.0948	0.7930	25.55	0.45	0.750			
0.1296	8292.66	4.0920	4.0921	0.7977	25.55	0.45	0.750			
0.1320	8448.56	4.0890	4.0890	0.7934	25.55	0.45	0.750			
0.1344	8600.08	4.0860	4.0860	0.7994	25.56	0.46	0.750			
0.1368	8752.11	4.0830	4.0831	0.7970	25.56	0.46	0.750			
0.1392	8905.66	4.0800	4.0801	0.8034	25.56	0.46	0.750			
0.1416	9059.54	4.0770	4.0770	0.8049	25.56	0.46	0.750			
0.1440	9218.88	4.0740	4.0741	0.7984	25.56	0.46	0.750			
0.1464	9371.24	4.0710	4.0710	0.8061	25.56	0.46	0.750			
0.1489	9527.20	4.0680	4.0681	0.8145	25.57	0.47	0.750			
0.1512	9679.27	4.0650	4.0652	0.8155	25.57	0.47	0.750			
0.1537	9835.56	4.0620	4.0620	0.8207	25.57	0.47	0.750			
0.1562	9995.52	4.0590	4.0591	0.8204	25.57	0.47	0.750			
0.1587	10154.93	4.0560	4.0560	0.8273	25.57	0.47	0.750			
0.1612	10314.67	4.0530	4.0531	0.8295	25.58	0.48	0.750			
0.1636	10472.57	4.0500	4.0501	0.8228	25.58	0.48	0.750			
0.1661	10629.19	4.0470	4.0469	0.8267	25.58	0.48	0.750			
0.1686	10792.72	4.0440	4.0440	0.8174	25.58	0.48	0.750			
0.1711	10948.59	4.0410	4.0410	0.8286	25.58	0.48	0.750			
0.1735	11107.14	4.0380	4.0381	0.8341	25.59	0.49	0.750			
0.1760	11266.71	4.0350	4.0352	0.8393	25.59	0.49	0.750			
0.1786	11427.26	4.0320	4.0320	0.8447	25.59	0.49	0.750			
0.1811	11593.20	4.0290	4.0291	0.8409	25.59	0.49	0.750			
0.1837	11754.24	4.0260	4.0261	0.8475	25.59	0.49	0.750			
0.1862	11917.57	4.0230	4.0231	0.8568	25.59	0.49	0.750			
0.1888	12080.15	4.0200	4.0200	0.8524	25.59	0.49	0.750			
0.1913	12245.19	4.0170	4.0171	0.8560	25.59	0.49	0.750			
0.1939	12411.32	4.0140	4.0141	0.8553	25.60	0.50	0.750			
0.1965	12577.11	4.0110	4.0111	0.8618	25.60	0.50	0.750			
0.1991	12742.91	4.0080	4.0080	0.8665	25.60	0.50	0.750			
0.2017	12906.90	4.0050	4.0049	0.8643	25.61	0.51	0.750			
0.2043	13073.57	4.0020	4.0020	0.8689	25.61	0.51	0.750			
0.2070	13245.76	3.9990	3.9989	0.8554	25.61	0.51	0.750			
0.2095	13407.55	3.9960	3.9961	0.8651	25.61	0.51	0.750			
0.2121	13573.11	3.9930	3.9932	0.8700	25.61	0.51	0.750			
0.2146	13737.49	3.9900	3.9898	0.8704	25.61	0.51	0.750			
0.2173	13904.78	3.9870	3.9871	0.8772	25.61	0.51	0.750			
0.2199	14074.41	3.9840	3.9841	0.8692	25.61	0.51	0.750			
0.2225	14240.15	3.9810	3.9812	0.8824	25.61	0.51	0.750			
0.2252	14410.36	3.9780	3.9782	0.8836	25.61	0.51	0.750			
0.2278	14582.00	3.9750	3.9742	0.8879	25.61	0.51	0.750			
0.2305	14753.53	3.9720	3.9721	0.8914	25.61	0.51	0.750			
0.2332	14926.55	3.9690	3.9692	0.8984	25.62	0.52	0.750			
0.2360	15103.21	3.9660	3.9660	0.9056	25.62	0.52	0.750			
0.2387	15275.33	3.9630	3.9629	0.8917	25.63	0.53	0.750			
0.2413	15446.09	3.9600	3.9600	0.8920	25.63	0.53	0.750			
0.2440	15617.44	3.9570	3.9571	0.8920	25.63	0.53	0.750			
0.2467	15786.28	3.9540	3.9540	0.8847	25.63	0.53	0.750			
0.2493	15957.98	3.9510	3.9511	0.8734	25.63	0.53	0.750			
0.2519	16119.48	3.9480	3.9482	0.8845	25.63	0.53	0.750			
0.2545	16289.84	3.9450	3.9452	0.8965	25.63	0.53	0.750			
0.2572	16462.71	3.9420	3.9423	0.8995	25.63	0.53	0.750			
0.2600	16638.62	3.9390	3.9394	0.9087	25.63	0.53	0.750			
0.2628	16820.74	3.9360	3.9361	0.9276	25.63	0.53	0.750			
0.2655	16991.22	3.9330	3.9331	0.9096	25.63	0.53	0.750			
0.2683	17168.91	3.9300	3.9301	0.9051	25.63	0.53	0.750			
0.2710	17340.84	3.9270	3.9270	0.9007	25.63	0.53	0.750			
0.2737	17516.15	3.9240	3.9241	0.9092	25.63	0.53	0.750			
0.2764	17688.98	3.9210	3.9211	0.9034	25.63	0.53	0.750			
0.2791	17863.05	3.9180	3.9181	0.9053	25.63	0.53	0.750			
0.2819	18040.06	3.9150	3.9149	0.8925	25.63	0.53	0.750			
0.2845	18208.16	3.9120	3.9122	0.8972	25.62	0.52	0.750			
0.2872	18379.69	3.9090	3.9091	0.9065	25.62	0.52	0.750			
0.2899	18552.34	3.9060	3.9055	0.9068	25.62	0.52	0.750			
0.2927	18730.96	3.9030	3.9031	0.8943	25.62	0.52	0.750			
0.2953	18902.04	3.9000	3.9001	0.9027	25.61	0.51	0.750			
0.2981	19075.49	3.8970	3.8972	0.9068	25.61	0.51	0.750			
0.3008	19251.78	3.8940	3.8941	0.9215	25.60	0.50	0.750			
0.3035	19421.21	3.8910	3.8907	0.9079	25.60	0.50	0.750			
0.3062	19596.44	3.8880	3.8881	0.9128	25.59	0.49	0.750			
0.3090	19775.12	3.8850	3.8851	0.9236	25.59	0.49	0.750			
0.3118	19954.98	3.8820	3.8821	0.9314	25.59	0.49	0.750			
0.3146	20133.40	3.8790	3.8789	0.9206	25.58	0.48	0.750			
0.3174	20314.21	3.8760	3.8760	0.9099	25.57	0.47	0.750			
0.3201	20486.61	3.8730	3.8730	0.9124	25.57	0.47	0.750			
0.3228	20661.05	3.8700	3.8701	0.9154	25.56	0.46	0.750			
0.3255	20834.01	3.8670	3.8671	0.9142	25.56	0.46	0.750			
0.3283	21010.60	3.8640	3.8638	0.9172	25.55	0.45	0.750			
0.3311	21193.00	3.8610	3.8610	0.8974	25.54	0.44	0.750			
0.3338	21363.15	3.8580	3.8580	0.9094	25.54	0.44	0.750			
0.3365	21535.95	3.8550	3.8552	0.9222	25.53	0.43	0.750			
0.3392	21710.59	3.8520	3.8522	0.9239	25.52	0.42	0.750			
0.3420	21889.62	3.8490	3.8493	0.9254	25.51	0.41	0.750			
0.3448	22068.84	3.8460	3.8462	0.9372	25.51	0.41	0.750			
0.3477	22250.46	3.8430	3.8432	0.9568	25.50	0.40	0.750			
0.3506	22436.25	3.8400	3.8401	0.9697	25.49	0.39	0.750			
0.3535	22621.18	3.8370	3.8367	0.9675	25.48	0.38	0.750	0.308	0.435	
0.3564	22812.14	3.8340	3.8340	0.9489	25.47	0.37	0.750			
0.3593	22994.18	3.8310	3.8312	0.9748	25.46	0.36	0.750			
0.3622	23182.06	3.8280	3.8282	0.9851	25.46	0.36	0.750			
0.3652	23369.89	3.8250	3.8240	0.9821	25.45	0.35	0.750			
0.3681	23560.85	3.8220	3.8221	0.9815	25.44	0.34	0.750			
0.3711	23748.49	3.8190	3.8193	0.9997	25.44	0.34	0.750			
0.3741	23943.21	3.8160	3.8162	1.0143	25.43	0.33	0.750			
0.3772	24141.07	3.8130	3.8125	1.0098	25.42	0.32	0.750			
0.3802	24335.98	3.8100	3.8101	1.0208	25.41	0.31	0.750			
0.3833	24533.12	3.8070	3.8071	1.0341	25.40	0.30	0.750			
0.3865	24733.66	3.8040	3.8040	1.0493	25.39	0.29	0.750			
0.3897	24937.84	3.8010	3.8009	1.0671	25.38	0.28	0.750			
0.3928	25140.32	3.7980	3.7980	1.0582	25.37	0.27	0.750			
0.3960	25342.20	3.7950	3.7951	1.0779	25.37	0.27	0.750			
0.3992	25550.79	3.7920	3.7921	1.0970	25.36	0.26	0.750			
0.4025	25762.04	3.7890	3.7883	1.1113	25.35	0.25	0.750			
0.4059	25976.36	3.7860	3.7862	1.1140	25.34	0.24	0.750			
0.4092	26187.97	3.7830	3.7832	1.1394	25.32	0.22	0.750			
0.4126	26409.27	3.7800	3.7801	1.1651	25.31	0.21	0.750			
0.4162	26633.76	3.7770	3.7772	1.1714	25.30	0.20	0.750			
0.4197	26863.30	3.7740	3.7741	1.2044	25.29	0.19	0.750			
0.4234	27098.22	3.7710	3.7712	1.2304	25.28	0.18	0.750			
0.4272	27343.90	3.7680	3.7678	1.2481	25.27	0.17	0.750			
0.4309	27579.47	3.7650	3.7651	1.2646	25.26	0.16	0.750			
0.4348	27825.28	3.7620	3.7621	1.2936	25.24	0.14	0.750			
0.4387	28076.12	3.7590	3.7590	1.3236	25.23	0.13	0.750			
0.4426	28329.48	3.7560	3.7561	1.3310	25.21	0.11	0.750			
0.4466	28585.44	3.7530	3.7532	1.3619	25.20	0.10	0.750			
0.4508	28848.37	3.7500	3.7502	1.3989	25.19	0.09	0.750			
0.4550	29122.61	3.7470	3.7471	1.4252	25.17	0.07	0.750			
0.4593	29395.01	3.7440	3.7441	1.4370	25.16	0.06	0.750			
0.4638	29680.10	3.7410	3.7411	1.4696	25.14	0.04	0.750			
0.4683	29970.61	3.7380	3.7373	1.5067	25.13	0.03	0.750			
0.4727	30252.88	3.7350	3.7342	1.5418	25.12	0.02	0.750			
0.4774	30553.07	3.7320	3.7318	1.5946	25.11	0.01	0.750			
0.4823	30868.39	3.7290	3.7290	1.6593	25.10	-0.00	0.750			
0.4875	31199.35	3.7260	3.7263	1.7038	25.08	-0.02	0.750			
0.4927	31530.77	3.7230	3.7235	1.7526	25.06	-0.04	0.750			
0.4982	31886.70	3.7200	3.7201	1.8188	25.05	-0.05	0.750			
0.5037	32236.27	3.7170	3.7171	1.8730	25.04	-0.06	0.750			
0.5091	32582.13	3.7140	3.7142	1.9275	25.03	-0.07	0.750			
0.5150	32959.10	3.7110	3.7107	1.9774	25.02	-0.08	0.750			
0.5211	33350.61	3.7080	3.7080	2.0337	25.00	-0.10	0.750			
0.5274	33754.00	3.7050	3.7048	2.1028	24.98	-0.12	0.750			
0.5339	34167.57	3.7020	3.7023	2.1654	24.97	-0.13	0.750			
0.5405	34589.35	3.6990	3.6989	2.1935	24.95	-0.15	0.750			
0.5470	35005.04	3.6960	3.6960	2.2705	24.94	-0.16	0.750			
0.5535	35426.71	3.6930	3.6936	2.3112	24.94	-0.16	0.750			
0.5605	35873.75	3.6900	3.6895	2.3603	24.93	-0.17	0.750			
0.5677	36331.47	3.6870	3.6871	2.5639	24.92	-0.18	0.750			
0.5753	36821.24	3.6840	3.6838	2.4536	24.90	-0.20	0.750			
0.5828	37299.01	3.6810	3.6817	2.4986	24.90	-0.20	0.750			
0.5908	37808.64	3.6780	3.6775	2.6850	24.89	-0.21	0.750			
0.5988	38322.53	3.6750	3.6751	2.6201	24.89	-0.21	0.750			
0.6062	38798.03	3.6720	3.6721	2.4582	24.89	-0.21	0.750			
0.6135	39264.33	3.6690	3.6690	2.4629	24.90	-0.20	0.750			
0.6208	39734.14	3.6660	3.6666	2.2800	24.90	-0.20	0.750			
0.6276	40163.75	3.6630	3.6626	2.0913	24.91	-0.19	0.750			
0.6335	40546.21	3.6600	3.6606	1.9434	24.92	-0.18	0.750			
0.6392	40910.60	3.6570	3.6571	1.8269	24.94	-0.16	0.750			
0.6445	41245.20	3.6540	3.6534	1.6875	24.95	-0.15	0.750			
0.6496	41575.01	3.6510	3.6511	1.5986	24.96	-0.14	0.750			
0.6540	41856.70	3.6480	3.6482	1.4332	24.96	-0.14	0.750			
0.6581	42121.54	3.6450	3.6451	1.3291	24.97	-0.13	0.750			
0.6619	42358.44	3.6420	3.6422	1.2252	24.97	-0.13	0.750			
0.6654	42587.13	3.6390	3.6383	1.1597	24.98	-0.12	0.750			
0.6687	42798.28	3.6360	3.6362	1.0890	24.99	-0.11	0.750			
0.6719	43000.32	3.6330	3.6332	1.0416	25.00	-0.10	0.750			
0.6749	43196.25	3.6300	3.6301	1.0106	25.01	-0.09	0.750			
0.6780	43390.79	3.6270	3.6269	0.9832	25.02	-0.08	0.750			
0.6807	43567.45	3.6240	3.6240	0.9218	25.03	-0.07	0.750			
0.6835	43742.26	3.6210	3.6211	0.8895	25.04	-0.06	0.750			
0.6862	43916.15	3.6180	3.6181	0.8476	25.05	-0.05	0.750			
0.6887	44074.94	3.6150	3.6148	0.7999	25.06	-0.04	0.750			
0.6910	44223.30	3.6120	3.6121	0.7322	25.06	-0.04	0.750			
0.6931	44355.24	3.6090	3.6092	0.6703	25.07	-0.03	0.750			
0.6949	44473.02	3.6060	3.6067	0.6309	25.08	-0.02	0.750			
0.6967	44588.54	3.6030	3.6039	0.5988	25.08	-0.02	0.750			
0.6984	44695.96	3.6000	3.5993	0.5535	25.09	-0.01	0.750			
0.7000	44801.58	3.5970	3.5980	0.5258	25.09	-0.01	0.750			
0.7016	44900.06	3.5940	3.5943	0.4909	25.10	-0.00	0.750			
0.7032	45002.80	3.5910	3.5911	0.4556	25.10	0.00	0.750			
0.7044	45082.03	3.5880	3.5879	0.3787	25.11	0.01	0.750			
0.7055	45149.55	3.5850	3.5854	0.3231	25.11	0.01	0.750			
0.7064	45210.37	3.5820	3.5820	0.2680	25.11	0.01	0.750			
0.7071	45255.99	3.5790	3.5788	0.1999	25.11	0.01	0.750			
0.7076	45288.25	3.5760	3.5760	0.1325	25.12	0.02	0.750			
0.7079	45307.09	3.5730	3.5741	0.0801	25.12	0.02	0.751			
