Ah_balance (normalized)	Ah_balance (mAh)	Voltage - fit (V)	Voltage -  interpolate (V)	dQ/dV (1/V)	Temperature (°C)	Temperature - diff (°C)	Current (C)	R_DC 0ms (mOhm)	R_DC 50ms (mOhm)	R_DC 50 ms PEC (mOhm)
0.0481	3080.01	4.1980	4.1980	0.7007	25.37	0.35	0.750			
0.0503	3217.25	4.1950	4.1952	0.7237	25.37	0.35	0.750			
0.0525	3358.01	4.1920	4.1917	0.7404	25.37	0.35	0.750			
0.0547	3502.91	4.1890	4.1890	0.7502	25.37	0.35	0.750			
0.0570	3649.00	4.1860	4.1861	0.7498	25.37	0.35	0.750			
0.0593	3795.25	4.1830	4.1830	0.7549	25.38	0.36	0.750			
0.0616	3940.99	4.1800	4.1800	0.7518	25.38	0.36	0.750			
0.0638	4085.80	4.1770	4.1769	0.7512	25.38	0.36	0.750			
0.0661	4229.13	4.1740	4.1741	0.7505	25.38	0.36	0.750			
0.0683	4374.01	4.1710	4.1710	0.7457	25.38	0.36	0.750			
0.0706	4516.95	4.1680	4.1680	0.7477	25.38	0.36	0.750			
0.0728	4658.40	4.1650	4.1650	0.7499	25.38	0.36	0.750			
0.0751	4803.65	4.1620	4.1621	0.7601	25.38	0.36	0.750			
0.0773	4950.30	4.1590	4.1587	0.7638	25.38	0.36	0.750			
0.0797	5098.21	4.1560	4.1560	0.7696	25.38	0.36	0.750			
0.0820	5251.17	4.1530	4.1530	0.7594	25.39	0.37	0.750			
0.0843	5394.60	4.1500	4.1501	0.7621	25.39	0.37	0.750			
0.0865	5538.57	4.1470	4.1471	0.7569	25.40	0.38	0.750			
0.0888	5682.20	4.1440	4.1440	0.7627	25.40	0.38	0.750			
0.0911	5827.64	4.1410	4.1412	0.7636	25.40	0.38	0.750			
0.0934	5976.60	4.1380	4.1381	0.7651	25.40	0.38	0.750			
0.0957	6125.21	4.1350	4.1351	0.7759	25.40	0.38	0.750			
0.0981	6278.44	4.1320	4.1320	0.7832	25.41	0.39	0.750			
0.1004	6422.98	4.1290	4.1290	0.7773	25.41	0.39	0.750			
0.1027	6573.32	4.1260	4.1260	0.7751	25.41	0.39	0.750			
0.1050	6721.82	4.1230	4.1231	0.7779	25.41	0.39	0.750			
0.1074	6874.19	4.1200	4.1200	0.7762	25.42	0.40	0.750			
0.1097	7021.89	4.1170	4.1169	0.7742	25.42	0.40	0.750			
0.1120	7167.83	4.1140	4.1141	0.7720	25.43	0.41	0.750			
0.1143	7316.86	4.1110	4.1108	0.7784	25.43	0.41	0.750			
0.1166	7465.44	4.1080	4.1080	0.7768	25.43	0.41	0.750			
0.1191	7619.36	4.1050	4.1049	0.7752	25.43	0.41	0.750			
0.1213	7766.02	4.1020	4.1021	0.7798	25.43	0.41	0.750			
0.1237	7915.07	4.0990	4.0991	0.7816	25.43	0.41	0.750			
0.1260	8064.74	4.0960	4.0960	0.7880	25.43	0.41	0.750			
0.1284	8215.46	4.0930	4.0932	0.7895	25.43	0.41	0.750			
0.1308	8370.48	4.0900	4.0901	0.7889	25.44	0.42	0.750			
0.1332	8523.09	4.0870	4.0871	0.7998	25.44	0.42	0.750			
0.1356	8678.52	4.0840	4.0840	0.8032	25.44	0.42	0.750			
0.1380	8829.02	4.0810	4.0810	0.7973	25.45	0.43	0.750			
0.1403	8981.96	4.0780	4.0779	0.8001	25.45	0.43	0.750			
0.1428	9137.38	4.0750	4.0751	0.7995	25.45	0.43	0.750			
0.1452	9292.75	4.0720	4.0720	0.8031	25.45	0.43	0.750			
0.1476	9445.96	4.0690	4.0690	0.8070	25.46	0.44	0.750			
0.1500	9598.39	4.0660	4.0661	0.8072	25.46	0.44	0.750			
0.1524	9754.33	4.0630	4.0631	0.8126	25.46	0.44	0.750			
0.1549	9911.16	4.0600	4.0600	0.8152	25.46	0.44	0.750			
0.1574	10072.30	4.0570	4.0570	0.8071	25.46	0.44	0.750			
0.1598	10224.06	4.0540	4.0541	0.8125	25.47	0.45	0.750			
0.1622	10377.63	4.0510	4.0512	0.8132	25.47	0.45	0.750			
0.1646	10532.37	4.0480	4.0471	0.8196	25.47	0.45	0.750			
0.1670	10689.03	4.0450	4.0452	0.8255	25.47	0.45	0.750			
0.1696	10851.50	4.0420	4.0421	0.8259	25.47	0.45	0.750			
0.1721	11013.89	4.0390	4.0391	0.8383	25.48	0.46	0.750			
0.1746	11172.28	4.0360	4.0362	0.8281	25.48	0.46	0.750			
0.1771	11331.89	4.0330	4.0325	0.8327	25.48	0.46	0.750			
0.1795	11490.79	4.0300	4.0301	0.8399	25.48	0.46	0.750			
0.1821	11653.63	4.0270	4.0271	0.8374	25.48	0.46	0.750			
0.1846	11816.61	4.0240	4.0241	0.8444	25.49	0.47	0.750			
0.1871	11977.07	4.0210	4.0211	0.8421	25.49	0.47	0.750			
0.1897	12139.67	4.0180	4.0177	0.8453	25.49	0.47	0.750			
0.1922	12301.97	4.0150	4.0150	0.8469	25.49	0.47	0.750			
0.1948	12465.18	4.0120	4.0120	0.8418	25.50	0.48	0.750			
0.1973	12625.79	4.0090	4.0091	0.8462	25.50	0.48	0.750			
0.1998	12787.44	4.0060	4.0061	0.8491	25.51	0.49	0.750			
0.2024	12951.10	4.0030	4.0025	0.8566	25.51	0.49	0.750			
0.2049	13116.49	4.0000	4.0003	0.8574	25.51	0.49	0.750			
0.2075	13282.24	3.9970	3.9971	0.8727	25.51	0.49	0.750			
0.2102	13454.10	3.9940	3.9940	0.8804	25.51	0.49	0.750			
0.2129	13626.85	3.9910	3.9910	0.8886	25.51	0.49	0.750			
0.2155	13791.77	3.9880	3.9881	0.8737	25.51	0.49	0.750			
0.2182	13961.81	3.9850	3.9850	0.8646	25.51	0.49	0.750			
0.2207	14127.60	3.9820	3.9820	0.8671	25.51	0.49	0.750			
0.2233	14291.29	3.9790	3.9791	0.8716	25.51	0.49	0.750			
0.2259	14456.33	3.9760	3.9760	0.8693	25.51	0.49	0.750			
0.2285	14624.95	3.9730	3.9731	0.8774	25.51	0.49	0.750			
0.2312	14796.36	3.9700	3.9701	0.8727	25.51	0.49	0.750			
0.2338	14964.43	3.9670	3.9671	0.8786	25.52	0.50	0.750			
0.2365	15133.28	3.9640	3.9641	0.8844	25.52	0.50	0.750			
0.2391	15299.93	3.9610	3.9607	0.8797	25.52	0.50	0.750			
0.2417	15469.98	3.9580	3.9580	0.8798	25.52	0.50	0.750			
0.2444	15639.91	3.9550	3.9550	0.8864	25.52	0.50	0.750			
0.2471	15811.39	3.9520	3.9521	0.8872	25.52	0.50	0.750			
0.2498	15985.54	3.9490	3.9491	0.8917	25.52	0.50	0.750			
0.2524	16152.48	3.9460	3.9458	0.8830	25.52	0.50	0.750			
0.2550	16322.59	3.9430	3.9430	0.8788	25.52	0.50	0.750			
0.2577	16490.09	3.9400	3.9400	0.8785	25.52	0.50	0.750			
0.2603	16658.62	3.9370	3.9370	0.8788	25.51	0.49	0.750			
0.2630	16829.10	3.9340	3.9340	0.8817	25.51	0.49	0.750			
0.2655	16995.13	3.9310	3.9311	0.8919	25.51	0.49	0.750			
0.2683	17168.33	3.9280	3.9280	0.8902	25.51	0.49	0.750			
0.2709	17339.81	3.9250	3.9249	0.8950	25.51	0.49	0.750			
0.2736	17512.94	3.9220	3.9222	0.8997	25.51	0.49	0.750			
0.2764	17686.97	3.9190	3.9188	0.8991	25.51	0.49	0.750			
0.2791	17860.73	3.9160	3.9161	0.8947	25.51	0.49	0.750			
0.2817	18031.75	3.9130	3.9130	0.8859	25.50	0.48	0.750			
0.2844	18199.42	3.9100	3.9101	0.8783	25.49	0.47	0.750			
0.2870	18369.33	3.9070	3.9070	0.8855	25.49	0.47	0.750			
0.2896	18535.59	3.9040	3.9037	0.8821	25.48	0.46	0.750			
0.2923	18706.75	3.9010	3.9010	0.8767	25.48	0.46	0.750			
0.2949	18875.07	3.8980	3.8980	0.8794	25.48	0.46	0.750			
0.2976	19045.16	3.8950	3.8951	0.8864	25.47	0.45	0.750			
0.3002	19214.41	3.8920	3.8922	0.8923	25.47	0.45	0.750			
0.3029	19385.14	3.8890	3.8890	0.8900	25.47	0.45	0.750			
0.3056	19557.15	3.8860	3.8860	0.8829	25.46	0.44	0.750			
0.3082	19725.85	3.8830	3.8830	0.8889	25.46	0.44	0.750			
0.3109	19898.14	3.8800	3.8801	0.8904	25.45	0.43	0.750			
0.3136	20068.64	3.8770	3.8771	0.8893	25.44	0.42	0.750			
0.3162	20238.80	3.8740	3.8741	0.8905	25.43	0.41	0.750			
0.3189	20409.31	3.8710	3.8710	0.8897	25.43	0.41	0.750			
0.3216	20583.36	3.8680	3.8681	0.8948	25.42	0.40	0.750			
0.3243	20756.37	3.8650	3.8650	0.8980	25.41	0.39	0.750			
0.3270	20925.16	3.8620	3.8618	0.8914	25.40	0.38	0.750			
0.3297	21099.31	3.8590	3.8590	0.8884	25.40	0.38	0.750			
0.3323	21267.64	3.8560	3.8560	0.8904	25.39	0.37	0.750			
0.3350	21438.08	3.8530	3.8531	0.8946	25.39	0.37	0.750			
0.3376	21608.80	3.8500	3.8501	0.9061	25.38	0.36	0.750			
0.3403	21782.30	3.8470	3.8470	0.9202	25.38	0.36	0.750			
0.3432	21963.68	3.8440	3.8440	0.9119	25.37	0.35	0.750			
0.3459	22138.28	3.8410	3.8407	0.9335	25.36	0.34	0.750	0.320	0.461	
0.3487	22319.50	3.8380	3.8383	0.9441	25.36	0.34	0.750			
0.3516	22501.25	3.8350	3.8346	0.9514	25.35	0.33	0.750			
0.3545	22686.32	3.8320	3.8321	0.9514	25.34	0.32	0.750			
0.3573	22867.39	3.8290	3.8291	0.9551	25.33	0.31	0.750			
0.3602	23052.61	3.8260	3.8261	0.9653	25.32	0.30	0.750			
0.3631	23240.33	3.8230	3.8231	0.9627	25.31	0.29	0.750			
0.3660	23425.89	3.8200	3.8200	0.9657	25.31	0.29	0.750			
0.3689	23611.68	3.8170	3.8171	0.9788	25.30	0.28	0.750			
0.3719	23800.25	3.8140	3.8141	0.9873	25.29	0.27	0.750			
0.3749	23992.82	3.8110	3.8110	1.0018	25.28	0.26	0.750			
0.3778	24182.25	3.8080	3.8080	1.0124	25.27	0.25	0.750			
0.3809	24380.56	3.8050	3.8051	1.0003	25.26	0.24	0.750			
0.3839	24570.37	3.8020	3.8021	1.0253	25.25	0.23	0.750			
0.3870	24767.33	3.7990	3.7991	1.0433	25.24	0.22	0.750			
0.3902	24969.84	3.7960	3.7952	1.0502	25.23	0.21	0.750			
0.3933	25171.64	3.7930	3.7933	1.0733	25.22	0.20	0.750			
0.3965	25378.91	3.7900	3.7902	1.0948	25.21	0.19	0.750			
0.3999	25593.44	3.7870	3.7871	1.1208	25.20	0.18	0.750			
0.4033	25811.07	3.7840	3.7840	1.1155	25.19	0.17	0.750			
0.4067	26025.72	3.7810	3.7810	1.1407	25.18	0.16	0.750			
0.4101	26248.36	3.7780	3.7782	1.1676	25.17	0.15	0.750			
0.4137	26477.85	3.7750	3.7748	1.1805	25.16	0.14	0.750			
0.4172	26703.47	3.7720	3.7720	1.1986	25.15	0.13	0.750			
0.4209	26935.22	3.7690	3.7691	1.2247	25.13	0.11	0.750			
0.4246	27172.03	3.7660	3.7661	1.2498	25.12	0.10	0.750			
0.4283	27412.44	3.7630	3.7632	1.2630	25.11	0.09	0.750			
0.4321	27656.62	3.7600	3.7601	1.2936	25.10	0.08	0.750			
0.4361	27910.06	3.7570	3.7571	1.3203	25.09	0.07	0.750			
0.4401	28167.61	3.7540	3.7537	1.3383	25.08	0.06	0.750			
0.4442	28427.67	3.7510	3.7511	1.3522	25.07	0.05	0.750			
0.4482	28685.81	3.7480	3.7483	1.3901	25.05	0.03	0.750			
0.4524	28952.61	3.7450	3.7445	1.4262	25.04	0.02	0.750			
0.4567	29230.39	3.7420	3.7424	1.4335	25.02	0.00	0.750			
0.4610	29503.33	3.7390	3.7388	1.5048	25.01	-0.01	0.750			
0.4658	29808.50	3.7360	3.7359	1.5312	25.00	-0.02	0.750			
0.4704	30102.96	3.7330	3.7330	1.5692	24.99	-0.03	0.750			
0.4753	30417.94	3.7300	3.7303	1.6209	24.97	-0.05	0.750			
0.4803	30736.63	3.7270	3.7266	1.6534	24.96	-0.06	0.750			
0.4854	31066.20	3.7240	3.7239	1.7272	24.95	-0.07	0.750			
0.4904	31387.63	3.7210	3.7212	1.7396	24.94	-0.08	0.750			
0.4959	31738.74	3.7180	3.7184	1.7995	24.93	-0.09	0.750			
0.5012	32078.36	3.7150	3.7151	1.8507	24.92	-0.10	0.750			
0.5067	32430.25	3.7120	3.7115	1.8834	24.90	-0.12	0.750			
0.5125	32801.12	3.7090	3.7086	1.9665	24.89	-0.13	0.750			
0.5184	33178.78	3.7060	3.7053	2.0715	24.88	-0.14	0.750			
0.5247	33579.79	3.7030	3.7031	2.1446	24.87	-0.15	0.750			
0.5310	33984.80	3.7000	3.6995	2.1536	24.86	-0.16	0.750			
0.5379	34425.62	3.6970	3.6974	2.2372	24.84	-0.18	0.750			
0.5446	34852.58	3.6940	3.6936	2.2916	24.84	-0.18	0.750			
0.5517	35309.55	3.6910	3.6911	2.4933	24.84	-0.18	0.750			
0.5592	35790.25	3.6880	3.6883	2.3553	24.84	-0.18	0.750			
0.5659	36220.48	3.6850	3.6854	2.3436	24.84	-0.18	0.750			
0.5733	36691.03	3.6820	3.6818	2.4627	24.83	-0.19	0.750			
0.5802	37134.63	3.6790	3.6796	2.5222	24.83	-0.19	0.750			
0.5879	37626.35	3.6760	3.6763	2.5846	24.84	-0.18	0.750			
0.5962	38157.11	3.6730	3.6721	2.4482	24.84	-0.18	0.750			
0.6037	38636.12	3.6700	3.6704	2.3428	24.84	-0.18	0.750			
0.6104	39068.68	3.6670	3.6672	2.1987	24.85	-0.17	0.750			
0.6165	39456.33	3.6640	3.6637	1.9794	24.86	-0.16	0.750			
0.6218	39795.49	3.6610	3.6608	1.7603	24.87	-0.15	0.750			
0.6270	40125.00	3.6580	3.6579	1.6450	24.87	-0.15	0.750			
0.6317	40425.76	3.6550	3.6551	1.5293	24.87	-0.15	0.750			
0.6361	40709.55	3.6520	3.6520	1.4139	24.88	-0.14	0.750			
0.6401	40969.43	3.6490	3.6489	1.3140	24.88	-0.14	0.750			
0.6439	41209.23	3.6460	3.6461	1.2151	24.89	-0.13	0.750			
0.6473	41429.42	3.6430	3.6431	1.1534	24.91	-0.11	0.750			
0.6507	41643.47	3.6400	3.6401	1.0995	24.92	-0.10	0.750			
0.6538	41845.61	3.6370	3.6372	1.0408	24.92	-0.10	0.750			
0.6569	42041.61	3.6340	3.6341	1.0104	24.93	-0.09	0.750			
0.6599	42233.68	3.6310	3.6311	0.9767	24.93	-0.09	0.750			
0.6628	42419.39	3.6280	3.6280	0.9437	24.94	-0.08	0.750			
0.6655	42594.14	3.6250	3.6250	0.8995	24.94	-0.08	0.750			
0.6682	42766.07	3.6220	3.6220	0.8617	24.95	-0.07	0.750			
0.6708	42929.88	3.6190	3.6190	0.8253	24.96	-0.06	0.750			
0.6732	43084.96	3.6160	3.6160	0.7840	24.97	-0.05	0.750			
0.6755	43234.72	3.6130	3.6130	0.7212	24.98	-0.04	0.750			
0.6776	43367.98	3.6100	3.6099	0.6819	24.98	-0.04	0.750			
0.6796	43492.27	3.6070	3.6072	0.6326	24.99	-0.03	0.750			
0.6814	43608.19	3.6040	3.6043	0.5836	24.99	-0.03	0.750			
0.6831	43716.20	3.6010	3.6012	0.5369	25.00	-0.02	0.750			
0.6846	43815.81	3.5980	3.5982	0.4847	25.00	-0.02	0.750			
0.6860	43904.33	3.5950	3.5951	0.4374	25.01	-0.01	0.750			
0.6873	43984.65	3.5920	3.5920	0.3921	25.01	-0.01	0.750			
0.6884	44054.70	3.5890	3.5891	0.3348	25.02	-0.00	0.750			
0.6893	44114.25	3.5860	3.5859	0.2874	25.02	-0.00	0.750			
0.6901	44165.21	3.5830	3.5831	0.2410	25.02	0.00	0.750			
0.6907	44207.29	3.5800	3.5803	0.1935	25.02	0.00	0.750			
0.6912	44239.77	3.5770	3.5774	0.1454	25.03	0.01	0.750			
0.6916	44263.97	3.5740	3.5742	0.0628	25.03	0.01	0.750			
