Ah_balance (normalized)	Ah_balance (mAh)	Voltage - fit (V)	Voltage -  interpolate (V)	dQ/dV (1/V)	Temperature (°C)	Temperature - diff (°C)	Current (C)	R_DC 0ms (mOhm)	R_DC 50ms (mOhm)	R_DC 50 ms PEC (mOhm)
0.0477	3050.54	4.1970	4.1970	0.7449	25.39	0.47	0.750			
0.0499	3196.52	4.1940	4.1940	0.7595	25.39	0.47	0.750			
0.0522	3342.93	4.1910	4.1911	0.7655	25.39	0.47	0.750			
0.0545	3490.89	4.1880	4.1881	0.7691	25.39	0.47	0.750			
0.0569	3639.64	4.1850	4.1850	0.7742	25.39	0.47	0.750			
0.0592	3788.46	4.1820	4.1820	0.7753	25.38	0.46	0.750			
0.0615	3936.88	4.1790	4.1790	0.7739	25.38	0.46	0.750			
0.0638	4086.03	4.1760	4.1761	0.7771	25.38	0.46	0.750			
0.0662	4236.71	4.1730	4.1731	0.7792	25.38	0.46	0.750			
0.0685	4386.04	4.1700	4.1699	0.7779	25.38	0.46	0.750			
0.0709	4535.64	4.1670	4.1670	0.7791	25.39	0.47	0.750			
0.0732	4683.75	4.1640	4.1641	0.7742	25.39	0.47	0.750			
0.0755	4832.06	4.1610	4.1610	0.7805	25.39	0.47	0.750			
0.0779	4982.47	4.1580	4.1580	0.7827	25.39	0.47	0.750			
0.0802	5134.29	4.1550	4.1550	0.7800	25.39	0.47	0.750			
0.0826	5284.23	4.1520	4.1519	0.7850	25.39	0.47	0.750			
0.0849	5435.31	4.1490	4.1491	0.7843	25.39	0.47	0.750			
0.0873	5585.14	4.1460	4.1461	0.7884	25.39	0.47	0.750			
0.0896	5736.42	4.1430	4.1430	0.7910	25.39	0.47	0.750			
0.0920	5887.72	4.1400	4.1400	0.7934	25.40	0.48	0.750			
0.0944	6040.96	4.1370	4.1370	0.7883	25.40	0.48	0.750			
0.0967	6191.27	4.1340	4.1341	0.7944	25.40	0.48	0.750			
0.0991	6342.55	4.1310	4.1311	0.7976	25.41	0.49	0.750			
0.1015	6497.24	4.1280	4.1276	0.8011	25.41	0.49	0.750			
0.1039	6650.81	4.1250	4.1251	0.8024	25.41	0.49	0.750			
0.1063	6805.91	4.1220	4.1221	0.8015	25.41	0.49	0.750			
0.1088	6961.43	4.1190	4.1190	0.8094	25.41	0.49	0.750			
0.1112	7116.06	4.1160	4.1160	0.8031	25.41	0.49	0.750			
0.1136	7270.40	4.1130	4.1128	0.8061	25.41	0.49	0.750			
0.1160	7424.86	4.1100	4.1101	0.8092	25.41	0.49	0.750			
0.1185	7581.55	4.1070	4.1070	0.8104	25.42	0.50	0.750			
0.1209	7738.11	4.1040	4.1040	0.8128	25.42	0.50	0.750			
0.1233	7892.90	4.1010	4.1010	0.8124	25.43	0.51	0.750			
0.1258	8048.34	4.0980	4.0979	0.8163	25.43	0.51	0.750			
0.1282	8206.23	4.0950	4.0951	0.8218	25.43	0.51	0.750			
0.1307	8366.11	4.0920	4.0920	0.8121	25.43	0.51	0.750			
0.1332	8521.82	4.0890	4.0891	0.8220	25.43	0.51	0.750			
0.1356	8679.81	4.0860	4.0860	0.8266	25.43	0.51	0.750			
0.1381	8837.34	4.0830	4.0828	0.8273	25.43	0.51	0.750			
0.1406	8996.34	4.0800	4.0801	0.8311	25.43	0.51	0.750			
0.1431	9156.09	4.0770	4.0770	0.8342	25.44	0.52	0.750			
0.1456	9317.23	4.0740	4.0740	0.8396	25.44	0.52	0.750			
0.1481	9479.28	4.0710	4.0710	0.8372	25.45	0.53	0.750			
0.1506	9640.44	4.0680	4.0680	0.8413	25.45	0.53	0.750			
0.1532	9802.97	4.0650	4.0650	0.8433	25.45	0.53	0.750			
0.1557	9965.52	4.0620	4.0621	0.8443	25.45	0.53	0.750			
0.1582	10126.94	4.0590	4.0590	0.8490	25.45	0.53	0.750			
0.1608	10290.10	4.0560	4.0561	0.8518	25.45	0.53	0.750			
0.1633	10453.21	4.0530	4.0528	0.8585	25.45	0.53	0.750			
0.1659	10618.78	4.0500	4.0501	0.8642	25.45	0.53	0.750			
0.1685	10785.63	4.0470	4.0470	0.8615	25.46	0.54	0.750			
0.1711	10952.63	4.0440	4.0440	0.8649	25.46	0.54	0.750			
0.1737	11116.54	4.0410	4.0412	0.8622	25.47	0.55	0.750			
0.1763	11282.36	4.0380	4.0376	0.8660	25.47	0.55	0.750			
0.1789	11450.26	4.0350	4.0351	0.8664	25.47	0.55	0.750			
0.1815	11615.28	4.0320	4.0321	0.8733	25.47	0.55	0.750			
0.1841	11785.36	4.0290	4.0290	0.8811	25.48	0.56	0.750			
0.1868	11956.24	4.0260	4.0260	0.8843	25.48	0.56	0.750			
0.1894	12124.11	4.0230	4.0231	0.8825	25.48	0.56	0.750			
0.1921	12295.29	4.0200	4.0201	0.8742	25.49	0.57	0.750			
0.1947	12462.03	4.0170	4.0170	0.8841	25.49	0.57	0.750			
0.1973	12627.66	4.0140	4.0141	0.9003	25.49	0.57	0.750			
0.1999	12796.16	4.0110	4.0111	0.9158	25.50	0.58	0.750			
0.2028	12978.31	4.0080	4.0080	0.9276	25.50	0.58	0.750			
0.2056	13160.86	4.0050	4.0048	0.9452	25.50	0.58	0.750			
0.2086	13347.25	4.0020	4.0023	0.9472	25.51	0.59	0.750			
0.2115	13535.56	3.9990	3.9990	0.9473	25.51	0.59	0.750			
0.2143	13712.89	3.9960	3.9959	0.9309	25.51	0.59	0.750			
0.2170	13890.69	3.9930	3.9930	0.9171	25.52	0.60	0.750			
0.2197	14060.26	3.9900	3.9900	0.9117	25.52	0.60	0.750			
0.2225	14236.86	3.9870	3.9870	0.9160	25.52	0.60	0.750			
0.2252	14411.27	3.9840	3.9839	0.9133	25.53	0.61	0.750			
0.2280	14588.83	3.9810	3.9810	0.9111	25.53	0.61	0.750			
0.2307	14763.78	3.9780	3.9780	0.9144	25.53	0.61	0.750			
0.2334	14937.76	3.9750	3.9751	0.9226	25.53	0.61	0.750			
0.2362	15115.14	3.9720	3.9721	0.9298	25.53	0.61	0.750			
0.2390	15292.93	3.9690	3.9688	0.9319	25.53	0.61	0.750			
0.2418	15475.11	3.9660	3.9659	0.9315	25.53	0.61	0.750			
0.2446	15654.90	3.9630	3.9631	0.9402	25.53	0.61	0.750			
0.2474	15835.86	3.9600	3.9600	0.9446	25.54	0.62	0.750			
0.2503	16016.52	3.9570	3.9569	0.9418	25.54	0.62	0.750			
0.2531	16198.82	3.9540	3.9541	0.9384	25.54	0.62	0.750			
0.2559	16378.22	3.9510	3.9510	0.9429	25.54	0.62	0.750			
0.2587	16559.26	3.9480	3.9481	0.9492	25.55	0.63	0.750			
0.2616	16742.78	3.9450	3.9450	0.9569	25.55	0.63	0.750			
0.2644	16924.65	3.9420	3.9420	0.9565	25.55	0.63	0.750			
0.2673	17109.58	3.9390	3.9390	0.9543	25.55	0.63	0.750			
0.2702	17293.01	3.9360	3.9361	0.9613	25.56	0.64	0.750			
0.2731	17478.48	3.9330	3.9331	0.9640	25.56	0.64	0.750			
0.2760	17662.70	3.9300	3.9297	0.9630	25.56	0.64	0.750			
0.2789	17849.17	3.9270	3.9270	0.9555	25.56	0.64	0.750			
0.2818	18032.99	3.9240	3.9241	0.9665	25.56	0.64	0.750			
0.2847	18219.82	3.9210	3.9210	0.9731	25.57	0.65	0.750			
0.2876	18405.89	3.9180	3.9179	0.9728	25.57	0.65	0.750			
0.2905	18593.65	3.9150	3.9152	0.9751	25.57	0.65	0.750			
0.2935	18781.95	3.9120	3.9120	0.9821	25.58	0.66	0.750			
0.2964	18970.51	3.9090	3.9091	0.9876	25.58	0.66	0.750			
0.2994	19159.17	3.9060	3.9060	0.9858	25.59	0.67	0.750			
0.3024	19351.94	3.9030	3.9030	0.9953	25.59	0.67	0.750			
0.3054	19543.00	3.9000	3.9000	0.9998	25.59	0.67	0.750			
0.3084	19735.86	3.8970	3.8971	1.0044	25.59	0.67	0.750			
0.3114	19930.41	3.8940	3.8940	1.0094	25.59	0.67	0.750			
0.3144	20124.58	3.8910	3.8910	1.0105	25.59	0.67	0.750			
0.3175	20317.89	3.8880	3.8880	1.0146	25.59	0.67	0.750			
0.3205	20512.53	3.8850	3.8850	1.0173	25.59	0.67	0.750			
0.3236	20708.50	3.8820	3.8820	1.0217	25.59	0.67	0.750			
0.3266	20905.51	3.8790	3.8790	1.0226	25.59	0.67	0.750			
0.3297	21101.09	3.8760	3.8760	1.0323	25.59	0.67	0.750			
0.3328	21299.17	3.8730	3.8730	1.0409	25.59	0.67	0.750			
0.3359	21500.15	3.8700	3.8700	1.0483	25.59	0.67	0.750			
0.3391	21702.75	3.8670	3.8669	1.0504	25.59	0.67	0.750			
0.3423	21906.28	3.8640	3.8641	1.0562	25.59	0.67	0.750			
0.3455	22109.39	3.8610	3.8610	1.0627	25.60	0.68	0.750			
0.3487	22313.94	3.8580	3.8579	1.0651	25.60	0.68	0.750			
0.3519	22518.92	3.8550	3.8551	1.0576	25.60	0.68	0.750			
0.3550	22721.10	3.8520	3.8520	1.0695	25.60	0.68	0.750			
0.3582	22927.64	3.8490	3.8491	1.0775	25.59	0.67	0.750			
0.3615	23134.62	3.8460	3.8461	1.0877	25.59	0.67	0.750			
0.3648	23344.14	3.8430	3.8429	1.0899	25.59	0.67	0.750			
0.3680	23553.01	3.8400	3.8401	1.0996	25.59	0.67	0.750			
0.3713	23765.51	3.8370	3.8370	1.1117	25.58	0.66	0.750			
0.3747	23980.80	3.8340	3.8340	1.1185	25.58	0.66	0.750			
0.3781	24196.79	3.8310	3.8310	1.1141	25.58	0.66	0.750	0.343	0.422	
0.3814	24412.23	3.8280	3.8281	1.1205	25.57	0.65	0.750			
0.3848	24627.04	3.8250	3.8250	1.1223	25.57	0.65	0.750			
0.3882	24844.34	3.8220	3.8219	1.1248	25.56	0.64	0.750			
0.3915	25056.00	3.8190	3.8190	1.1255	25.55	0.63	0.750			
0.3949	25271.45	3.8160	3.8161	1.1408	25.54	0.62	0.750			
0.3983	25492.80	3.8130	3.8130	1.1557	25.54	0.62	0.750			
0.4018	25717.14	3.8100	3.8100	1.1665	25.53	0.61	0.750			
0.4053	25942.27	3.8070	3.8071	1.1743	25.52	0.60	0.750			
0.4089	26170.11	3.8040	3.8041	1.1845	25.50	0.58	0.750			
0.4125	26400.96	3.8010	3.8009	1.1833	25.49	0.57	0.750			
0.4160	26626.02	3.7980	3.7980	1.1846	25.48	0.56	0.750			
0.4196	26852.11	3.7950	3.7951	1.1931	25.48	0.56	0.750			
0.4231	27081.56	3.7920	3.7921	1.2059	25.47	0.55	0.750			
0.4268	27314.90	3.7890	3.7890	1.2093	25.46	0.54	0.750			
0.4304	27547.50	3.7860	3.7861	1.2209	25.44	0.52	0.750			
0.4341	27782.62	3.7830	3.7831	1.2338	25.42	0.50	0.750			
0.4379	28022.90	3.7800	3.7797	1.2410	25.40	0.48	0.750			
0.4415	28259.14	3.7770	3.7770	1.2546	25.39	0.47	0.750			
0.4453	28498.53	3.7740	3.7741	1.2753	25.38	0.46	0.750			
0.4493	28752.78	3.7710	3.7709	1.2761	25.37	0.45	0.750			
0.4531	28997.68	3.7680	3.7680	1.3102	25.36	0.44	0.750			
0.4570	29246.95	3.7650	3.7651	1.3254	25.35	0.43	0.750			
0.4610	29502.19	3.7620	3.7622	1.3582	25.33	0.41	0.750			
0.4651	29766.61	3.7590	3.7588	1.3728	25.32	0.40	0.750			
0.4692	30027.04	3.7560	3.7562	1.4050	25.30	0.38	0.750			
0.4734	30298.85	3.7530	3.7532	1.4400	25.29	0.37	0.750			
0.4779	30583.40	3.7500	3.7502	1.4642	25.27	0.35	0.750			
0.4822	30860.36	3.7470	3.7473	1.5015	25.26	0.34	0.750			
0.4868	31153.33	3.7440	3.7441	1.5486	25.24	0.32	0.750			
0.4914	31452.49	3.7410	3.7410	1.6083	25.22	0.30	0.750			
0.4963	31762.13	3.7380	3.7380	1.6567	25.21	0.29	0.750			
0.5014	32087.94	3.7350	3.7348	1.7152	25.19	0.27	0.750			
0.5067	32431.76	3.7320	3.7320	1.7777	25.17	0.25	0.750			
0.5121	32776.22	3.7290	3.7290	1.8217	25.15	0.23	0.750			
0.5175	33122.34	3.7260	3.7256	1.8760	25.13	0.21	0.750			
0.5232	33487.48	3.7230	3.7226	1.9006	25.11	0.19	0.750			
0.5290	33856.59	3.7200	3.7202	1.9509	25.09	0.17	0.750			
0.5351	34245.56	3.7170	3.7172	2.0128	25.07	0.15	0.750			
0.5413	34640.33	3.7140	3.7140	2.0457	25.05	0.13	0.750			
0.5473	35024.36	3.7110	3.7111	2.0922	25.03	0.11	0.750			
0.5537	35434.00	3.7080	3.7081	2.1701	25.00	0.08	0.750			
0.5603	35858.21	3.7050	3.7045	2.2202	24.98	0.06	0.750			
0.5671	36292.48	3.7020	3.7021	2.3026	24.96	0.04	0.750			
0.5742	36749.32	3.6990	3.6990	2.4074	24.93	0.01	0.750			
0.5815	37216.06	3.6960	3.6962	2.4335	24.91	-0.01	0.750			
0.5891	37700.83	3.6930	3.6929	2.4857	24.90	-0.02	0.750			
0.5966	38185.20	3.6900	3.6898	2.5789	24.88	-0.04	0.750			
0.6045	38688.71	3.6870	3.6869	2.7037	24.86	-0.06	0.750			
0.6127	39215.12	3.6840	3.6840	2.7942	24.84	-0.08	0.750			
0.6212	39757.73	3.6810	3.6811	2.8709	24.83	-0.09	0.750			
0.6298	40304.74	3.6780	3.6782	2.9122	24.81	-0.11	0.750			
0.6387	40873.95	3.6750	3.6751	2.9391	24.80	-0.12	0.750			
0.6476	41445.14	3.6720	3.6722	2.9846	24.79	-0.13	0.750			
0.6566	42025.10	3.6690	3.6691	2.9822	24.79	-0.13	0.750			
0.6657	42602.77	3.6660	3.6662	2.9438	24.78	-0.14	0.750			
0.6745	43169.08	3.6630	3.6630	2.8639	24.78	-0.14	0.750			
0.6831	43721.27	3.6600	3.6598	2.7048	24.78	-0.14	0.750			
0.6912	44237.46	3.6570	3.6568	2.5420	24.78	-0.14	0.750			
0.6985	44702.45	3.6540	3.6537	2.3089	24.80	-0.12	0.750			
0.7049	45111.23	3.6510	3.6506	2.0701	24.81	-0.11	0.750			
0.7108	45493.84	3.6480	3.6477	1.8573	24.82	-0.10	0.750			
0.7160	45826.13	3.6450	3.6446	1.6448	24.84	-0.08	0.750			
0.7207	46123.82	3.6420	3.6423	1.4460	24.85	-0.07	0.750			
0.7247	46380.35	3.6390	3.6391	1.2686	24.86	-0.06	0.750			
0.7282	46602.64	3.6360	3.6361	1.1062	24.87	-0.05	0.750			
0.7311	46792.08	3.6330	3.6330	0.9572	24.87	-0.05	0.750			
0.7337	46957.27	3.6300	3.6301	0.8787	24.88	-0.04	0.750			
0.7361	47112.94	3.6270	3.6271	0.8066	24.88	-0.04	0.750			
0.7384	47259.77	3.6240	3.6234	0.7708	24.89	-0.03	0.750			
0.7407	47403.01	3.6210	3.6211	0.7379	24.90	-0.02	0.750			
0.7429	47544.21	3.6180	3.6180	0.7055	24.90	-0.02	0.750			
0.7450	47681.81	3.6150	3.6150	0.6736	24.91	-0.01	0.750			
0.7470	47809.00	3.6120	3.6120	0.6150	24.91	-0.01	0.750			
0.7488	47926.39	3.6090	3.6089	0.5443	24.91	-0.01	0.750			
0.7504	48025.75	3.6060	3.6061	0.4870	24.92	-0.00	0.750			
0.7517	48111.21	3.6030	3.6033	0.4168	24.92	0.00	0.750			
0.7529	48184.21	3.6000	3.5994	0.3472	24.92	0.00	0.750			
0.7538	48243.22	3.5970	3.5973	0.2785	24.93	0.01	0.750			
0.7545	48287.82	3.5940	3.5946	0.2152	24.93	0.01	0.750			
0.7551	48325.20	3.5910	3.5919	0.1542	24.93	0.01	0.750			
0.7555	48352.26	3.5880	3.5846	-0.0062	24.93	0.01	0.750			
