Ah_balance (normalized)	Ah_balance (mAh)	Voltage - fit (V)	Voltage -  interpolate (V)	dQ/dV (1/V)	Temperature (°C)	Temperature - diff (°C)	Current (C)	R_DC 0ms (mOhm)	R_DC 50ms (mOhm)	R_DC 50 ms PEC (mOhm)
0.0499	3196.04	4.1960	4.1960	0.7609	25.93	0.66	0.750			
0.0521	3337.39	4.1930	4.1930	0.7429	25.93	0.66	0.750			
0.0544	3479.09	4.1900	4.1900	0.7428	25.93	0.66	0.750			
0.0566	3621.65	4.1870	4.1870	0.7471	25.93	0.66	0.750			
0.0588	3763.93	4.1840	4.1840	0.7497	25.93	0.66	0.750			
0.0611	3908.66	4.1810	4.1810	0.7541	25.93	0.66	0.750			
0.0634	4056.06	4.1780	4.1781	0.7524	25.93	0.66	0.750			
0.0656	4200.40	4.1750	4.1750	0.7556	25.93	0.66	0.750			
0.0679	4344.43	4.1720	4.1720	0.7551	25.93	0.66	0.750			
0.0701	4488.90	4.1690	4.1687	0.7559	25.93	0.66	0.750			
0.0724	4633.76	4.1660	4.1660	0.7587	25.93	0.66	0.750			
0.0747	4780.53	4.1630	4.1630	0.7599	25.93	0.66	0.750			
0.0770	4927.30	4.1600	4.1600	0.7610	25.93	0.66	0.750			
0.0793	5075.38	4.1570	4.1570	0.7639	25.93	0.66	0.750			
0.0816	5219.48	4.1540	4.1541	0.7599	25.93	0.66	0.750			
0.0838	5365.66	4.1510	4.1510	0.7625	25.93	0.66	0.750			
0.0861	5511.28	4.1480	4.1480	0.7650	25.93	0.66	0.750			
0.0884	5658.52	4.1450	4.1450	0.7644	25.93	0.66	0.750			
0.0907	5805.07	4.1420	4.1421	0.7675	25.94	0.67	0.750			
0.0930	5953.76	4.1390	4.1390	0.7687	25.94	0.67	0.750			
0.0953	6101.22	4.1360	4.1357	0.7696	25.94	0.67	0.750			
0.0976	6248.43	4.1330	4.1331	0.7696	25.94	0.67	0.750			
0.1000	6397.23	4.1300	4.1300	0.7682	25.94	0.67	0.750			
0.1023	6544.57	4.1270	4.1270	0.7708	25.95	0.68	0.750			
0.1046	6693.40	4.1240	4.1240	0.7744	25.95	0.68	0.750			
0.1069	6840.49	4.1210	4.1210	0.7744	25.95	0.68	0.750			
0.1092	6990.34	4.1180	4.1180	0.7773	25.95	0.68	0.750			
0.1116	7139.32	4.1150	4.1150	0.7805	25.95	0.68	0.750			
0.1139	7289.92	4.1120	4.1120	0.7839	25.95	0.68	0.750			
0.1163	7441.82	4.1090	4.1089	0.7879	25.95	0.68	0.750			
0.1186	7591.98	4.1060	4.1061	0.7866	25.95	0.68	0.750			
0.1210	7743.07	4.1030	4.1030	0.7876	25.95	0.68	0.750			
0.1233	7894.31	4.1000	4.1000	0.7902	25.95	0.68	0.750			
0.1257	8046.55	4.0970	4.0970	0.7888	25.95	0.68	0.750			
0.1281	8196.91	4.0940	4.0940	0.7892	25.95	0.68	0.750			
0.1305	8349.26	4.0910	4.0910	0.7910	25.95	0.68	0.750			
0.1328	8501.07	4.0880	4.0877	0.7931	25.95	0.68	0.750			
0.1352	8652.52	4.0850	4.0850	0.7949	25.95	0.68	0.750			
0.1376	8807.16	4.0820	4.0819	0.7898	25.95	0.68	0.750			
0.1400	8958.38	4.0790	4.0790	0.7956	25.96	0.69	0.750			
0.1424	9110.83	4.0760	4.0760	0.8032	25.96	0.69	0.750			
0.1447	9263.54	4.0730	4.0730	0.8077	25.96	0.69	0.750			
0.1472	9420.64	4.0700	4.0701	0.8099	25.96	0.69	0.750			
0.1496	9577.17	4.0670	4.0670	0.8109	25.96	0.69	0.750			
0.1521	9733.79	4.0640	4.0641	0.8155	25.97	0.70	0.750			
0.1546	9892.48	4.0610	4.0610	0.8168	25.97	0.70	0.750			
0.1570	10046.87	4.0580	4.0579	0.8135	25.97	0.70	0.750			
0.1594	10201.78	4.0550	4.0551	0.8153	25.97	0.70	0.750			
0.1619	10359.21	4.0520	4.0520	0.8121	25.97	0.70	0.750			
0.1643	10515.04	4.0490	4.0489	0.8195	25.97	0.70	0.750			
0.1668	10672.35	4.0460	4.0461	0.8230	25.97	0.70	0.750			
0.1692	10830.51	4.0430	4.0430	0.8273	25.97	0.70	0.750			
0.1717	10990.38	4.0400	4.0400	0.8305	25.97	0.70	0.750			
0.1742	11149.33	4.0370	4.0371	0.8325	25.97	0.70	0.750			
0.1767	11309.44	4.0340	4.0341	0.8267	25.97	0.70	0.750			
0.1792	11467.87	4.0310	4.0310	0.8371	25.97	0.70	0.750			
0.1817	11626.43	4.0280	4.0282	0.8386	25.97	0.70	0.750			
0.1842	11787.91	4.0250	4.0251	0.8419	25.97	0.70	0.750			
0.1867	11950.39	4.0220	4.0222	0.8488	25.97	0.70	0.750			
0.1893	12116.22	4.0190	4.0191	0.8545	25.98	0.71	0.750			
0.1919	12281.68	4.0160	4.0160	0.8559	25.98	0.71	0.750			
0.1945	12445.08	4.0130	4.0130	0.8490	25.98	0.71	0.750			
0.1970	12607.76	4.0100	4.0100	0.8538	25.98	0.71	0.750			
0.1996	12773.10	4.0070	4.0070	0.8515	25.98	0.71	0.750			
0.2021	12936.17	4.0040	4.0040	0.8565	25.98	0.71	0.750			
0.2047	13099.96	4.0010	4.0010	0.8569	25.98	0.71	0.750			
0.2073	13265.43	3.9980	3.9980	0.8624	25.98	0.71	0.750			
0.2099	13431.16	3.9950	3.9950	0.8657	25.98	0.71	0.750			
0.2125	13598.06	3.9920	3.9920	0.8637	25.98	0.71	0.750			
0.2150	13762.79	3.9890	3.9890	0.8646	25.99	0.72	0.750			
0.2176	13928.58	3.9860	3.9861	0.8675	25.99	0.72	0.750			
0.2202	14095.76	3.9830	3.9827	0.8703	25.99	0.72	0.750			
0.2229	14264.17	3.9800	3.9800	0.8720	25.99	0.72	0.750			
0.2255	14431.50	3.9770	3.9771	0.8742	25.99	0.72	0.750			
0.2281	14600.79	3.9740	3.9740	0.8784	25.98	0.71	0.750			
0.2308	14769.03	3.9710	3.9710	0.8729	25.98	0.71	0.750			
0.2334	14936.80	3.9680	3.9680	0.8750	25.98	0.71	0.750			
0.2360	15105.15	3.9650	3.9650	0.8750	25.98	0.71	0.750			
0.2387	15273.66	3.9620	3.9620	0.8790	25.98	0.71	0.750			
0.2413	15442.57	3.9590	3.9590	0.8784	25.98	0.71	0.750			
0.2439	15611.68	3.9560	3.9560	0.8770	25.98	0.71	0.750			
0.2466	15780.68	3.9530	3.9530	0.8761	25.98	0.71	0.750			
0.2492	15949.46	3.9500	3.9500	0.8740	25.98	0.71	0.750			
0.2518	16115.26	3.9470	3.9470	0.8751	25.98	0.71	0.750			
0.2544	16283.59	3.9440	3.9440	0.8783	25.98	0.71	0.750			
0.2570	16450.96	3.9410	3.9409	0.8773	25.98	0.71	0.750			
0.2597	16620.65	3.9380	3.9380	0.8787	25.98	0.71	0.750			
0.2623	16790.35	3.9350	3.9351	0.8782	25.97	0.70	0.750			
0.2650	16958.53	3.9320	3.9320	0.8801	25.97	0.70	0.750			
0.2676	17128.29	3.9290	3.9290	0.8800	25.96	0.69	0.750			
0.2702	17295.66	3.9260	3.9258	0.8796	25.96	0.69	0.750			
0.2729	17465.77	3.9230	3.9230	0.8772	25.96	0.69	0.750			
0.2755	17634.48	3.9200	3.9200	0.8771	25.96	0.69	0.750			
0.2782	17803.41	3.9170	3.9170	0.8791	25.95	0.68	0.750			
0.2808	17971.64	3.9140	3.9140	0.8782	25.95	0.68	0.750			
0.2834	18138.24	3.9110	3.9110	0.8758	25.95	0.68	0.750			
0.2861	18308.01	3.9080	3.9080	0.8739	25.95	0.68	0.750			
0.2887	18475.25	3.9050	3.9050	0.8727	25.94	0.67	0.750			
0.2913	18643.43	3.9020	3.9020	0.8765	25.94	0.67	0.750			
0.2939	18812.22	3.8990	3.8990	0.8764	25.93	0.66	0.750			
0.2965	18978.14	3.8960	3.8960	0.8765	25.93	0.66	0.750			
0.2992	19147.50	3.8930	3.8931	0.8753	25.92	0.65	0.750			
0.3018	19315.75	3.8900	3.8900	0.8788	25.91	0.64	0.750			
0.3045	19484.93	3.8870	3.8870	0.8825	25.90	0.63	0.750			
0.3071	19653.93	3.8840	3.8840	0.8826	25.89	0.62	0.750			
0.3098	19824.54	3.8810	3.8810	0.8781	25.89	0.62	0.750			
0.3124	19993.61	3.8780	3.8780	0.8733	25.88	0.61	0.750			
0.3150	20158.86	3.8750	3.8751	0.8740	25.88	0.61	0.750			
0.3176	20324.70	3.8720	3.8722	0.8748	25.87	0.60	0.750			
0.3202	20493.03	3.8690	3.8686	0.8802	25.87	0.60	0.750			
0.3228	20660.52	3.8660	3.8661	0.8856	25.86	0.59	0.750			
0.3255	20833.14	3.8630	3.8632	0.8799	25.85	0.58	0.750			
0.3282	21004.16	3.8600	3.8600	0.8950	25.85	0.58	0.750			
0.3308	21172.89	3.8570	3.8572	0.8928	25.84	0.57	0.750			
0.3335	21343.09	3.8540	3.8536	0.8946	25.83	0.56	0.750			
0.3363	21522.00	3.8510	3.8510	0.8836	25.82	0.55	0.750			
0.3389	21689.78	3.8480	3.8482	0.9076	25.81	0.54	0.750			
0.3416	21864.20	3.8450	3.8451	0.9254	25.80	0.53	0.750			
0.3444	22041.26	3.8420	3.8419	0.9297	25.79	0.52	0.750	0.303	0.447	
0.3472	22222.85	3.8390	3.8392	0.9368	25.78	0.51	0.750			
0.3501	22404.45	3.8360	3.8362	0.9493	25.78	0.51	0.750			
0.3530	22590.12	3.8330	3.8331	0.9583	25.77	0.50	0.750			
0.3559	22779.44	3.8300	3.8299	0.9677	25.76	0.49	0.750			
0.3587	22957.84	3.8270	3.8270	0.9521	25.75	0.48	0.750			
0.3616	23145.36	3.8240	3.8239	0.9437	25.74	0.47	0.750			
0.3644	23322.09	3.8210	3.8212	0.9633	25.73	0.46	0.750			
0.3673	23507.14	3.8180	3.8181	0.9756	25.72	0.45	0.750			
0.3702	23693.68	3.8150	3.8144	0.9850	25.71	0.44	0.750			
0.3732	23884.66	3.8120	3.8122	0.9974	25.70	0.43	0.750			
0.3762	24077.93	3.8090	3.8092	1.0134	25.69	0.42	0.750			
0.3793	24276.96	3.8060	3.8061	1.0283	25.68	0.41	0.750			
0.3825	24479.63	3.8030	3.8027	1.0500	25.67	0.40	0.750			
0.3855	24673.59	3.8000	3.8000	1.0373	25.66	0.39	0.750			
0.3887	24876.24	3.7970	3.7970	1.0567	25.65	0.38	0.750			
0.3919	25080.15	3.7940	3.7940	1.0697	25.64	0.37	0.750			
0.3951	25286.71	3.7910	3.7907	1.0830	25.63	0.36	0.750			
0.3984	25494.68	3.7880	3.7880	1.0828	25.62	0.35	0.750			
0.4016	25701.48	3.7850	3.7851	1.0963	25.61	0.34	0.750			
0.4048	25909.72	3.7820	3.7821	1.1177	25.60	0.33	0.750			
0.4083	26129.10	3.7790	3.7786	1.1396	25.59	0.32	0.750			
0.4117	26345.99	3.7760	3.7761	1.1634	25.58	0.31	0.750			
0.4152	26574.03	3.7730	3.7731	1.1887	25.56	0.29	0.750			
0.4189	26810.51	3.7700	3.7700	1.2104	25.55	0.28	0.750			
0.4226	27047.40	3.7670	3.7670	1.2372	25.53	0.26	0.750			
0.4262	27277.86	3.7640	3.7642	1.2508	25.52	0.25	0.750			
0.4300	27519.25	3.7610	3.7610	1.2788	25.50	0.23	0.750			
0.4338	27764.88	3.7580	3.7580	1.2932	25.49	0.22	0.750			
0.4377	28012.85	3.7550	3.7551	1.3307	25.47	0.20	0.750			
0.4419	28279.36	3.7520	3.7521	1.3607	25.46	0.19	0.750			
0.4459	28538.93	3.7490	3.7484	1.4038	25.45	0.18	0.750			
0.4503	28816.84	3.7460	3.7462	1.4122	25.43	0.16	0.750			
0.4545	29089.70	3.7430	3.7432	1.4605	25.42	0.15	0.750			
0.4590	29374.09	3.7400	3.7398	1.5122	25.41	0.14	0.750			
0.4635	29665.15	3.7370	3.7371	1.5251	25.39	0.12	0.750			
0.4682	29966.01	3.7340	3.7343	1.5665	25.38	0.11	0.750			
0.4729	30268.24	3.7310	3.7309	1.6288	25.36	0.09	0.750			
0.4779	30583.03	3.7280	3.7275	1.6570	25.34	0.07	0.750			
0.4830	30909.15	3.7250	3.7245	1.7267	25.32	0.05	0.750			
0.4881	31237.37	3.7220	3.7219	1.7453	25.30	0.03	0.750			
0.4935	31582.41	3.7190	3.7188	1.8236	25.29	0.02	0.750			
0.4990	31933.31	3.7160	3.7162	1.8543	25.27	0.00	0.750			
0.5045	32287.46	3.7130	3.7130	1.9357	25.26	-0.01	0.750			
0.5104	32664.91	3.7100	3.7093	1.9610	25.24	-0.03	0.750			
0.5163	33040.10	3.7070	3.7067	2.0163	25.22	-0.05	0.750			
0.5225	33437.37	3.7040	3.7044	2.1332	25.21	-0.06	0.750			
0.5285	33822.39	3.7010	3.7013	2.0942	25.19	-0.08	0.750			
0.5351	34243.74	3.6980	3.6974	2.2945	25.18	-0.09	0.750			
0.5419	34681.46	3.6950	3.6951	2.3717	25.17	-0.10	0.750			
0.5493	35152.46	3.6920	3.6923	2.3375	25.16	-0.11	0.750			
0.5564	35607.93	3.6890	3.6891	2.4048	25.14	-0.13	0.750			
0.5633	36053.63	3.6860	3.6860	2.3942	25.14	-0.13	0.750			
0.5708	36528.55	3.6830	3.6826	2.4266	25.13	-0.14	0.750			
0.5782	37006.38	3.6800	3.6799	2.4387	25.12	-0.15	0.750			
0.5853	37461.45	3.6770	3.6764	2.3816	25.12	-0.15	0.750			
0.5924	37911.49	3.6740	3.6742	2.2710	25.12	-0.15	0.750			
0.5990	38338.91	3.6710	3.6712	2.2043	25.12	-0.15	0.750			
0.6054	38745.11	3.6680	3.6686	2.0178	25.12	-0.15	0.750			
0.6113	39121.56	3.6650	3.6650	1.9157	25.13	-0.14	0.750			
0.6169	39483.93	3.6620	3.6622	1.7781	25.13	-0.14	0.750			
0.6221	39815.93	3.6590	3.6587	1.6577	25.14	-0.13	0.750			
0.6271	40134.53	3.6560	3.6563	1.5755	25.15	-0.12	0.750			
0.6315	40419.15	3.6530	3.6532	1.4505	25.15	-0.12	0.750			
0.6357	40685.21	3.6500	3.6501	1.3526	25.15	-0.12	0.750			
0.6396	40932.27	3.6470	3.6471	1.2554	25.16	-0.11	0.750			
0.6433	41169.32	3.6440	3.6441	1.1964	25.17	-0.10	0.750			
0.6468	41396.60	3.6410	3.6410	1.1365	25.17	-0.10	0.750			
0.6500	41601.41	3.6380	3.6381	1.0744	25.18	-0.09	0.750			
0.6531	41798.84	3.6350	3.6351	1.0283	25.19	-0.08	0.750			
0.6561	41992.90	3.6320	3.6321	0.9911	25.20	-0.07	0.750			
0.6590	42177.01	3.6290	3.6291	0.9497	25.20	-0.07	0.750			
0.6619	42360.10	3.6260	3.6261	0.9040	25.21	-0.06	0.750			
0.6645	42528.89	3.6230	3.6230	0.8813	25.22	-0.05	0.750			
0.6671	42694.57	3.6200	3.6201	0.8498	25.22	-0.05	0.750			
0.6696	42853.03	3.6170	3.6171	0.8090	25.23	-0.04	0.750			
0.6720	43009.50	3.6140	3.6141	0.7605	25.24	-0.03	0.750			
0.6743	43152.55	3.6110	3.6113	0.7257	25.24	-0.03	0.750			
0.6764	43288.60	3.6080	3.6082	0.6803	25.25	-0.02	0.750			
0.6784	43418.85	3.6050	3.6048	0.6388	25.26	-0.01	0.750			
0.6802	43529.84	3.6020	3.6022	0.5769	25.26	-0.01	0.750			
0.6818	43638.18	3.5990	3.5992	0.5340	25.27	-0.00	0.750			
0.6834	43738.33	3.5960	3.5962	0.4892	25.27	0.00	0.750			
0.6848	43830.08	3.5930	3.5930	0.4423	25.28	0.01	0.750			
0.6860	43905.59	3.5900	3.5900	0.3851	25.28	0.01	0.750			
0.6871	43975.49	3.5870	3.5870	0.3381	25.28	0.01	0.750			
0.6880	44035.19	3.5840	3.5840	0.2884	25.29	0.02	0.750			
0.6888	44086.26	3.5810	3.5809	0.2423	25.29	0.02	0.750			
0.6895	44129.60	3.5780	3.5781	0.1948	25.29	0.02	0.750			
0.6900	44161.95	3.5750	3.5753	0.1459	25.29	0.02	0.750			
0.6904	44185.30	3.5720	3.5722	0.0942	25.29	0.02	0.750			
