Ah_balance (normalized)	Ah_balance (mAh)	Voltage - fit (V)	Voltage -  interpolate (V)	dQ/dV (1/V)	Temperature (°C)	Temperature - diff (°C)	Current (C)	R_DC 0ms (mOhm)	R_DC 50ms (mOhm)	R_DC 50 ms PEC (mOhm)
0.0478	3056.49	4.1970	4.1970	0.7662	25.08	0.56	0.750			
0.0500	3203.07	4.1940	4.1940	0.7644	25.08	0.56	0.750			
0.0523	3349.78	4.1910	4.1910	0.7654	25.08	0.56	0.750			
0.0546	3497.22	4.1880	4.1880	0.7638	25.08	0.56	0.750			
0.0570	3647.25	4.1850	4.1849	0.7536	25.08	0.56	0.750			
0.0592	3788.59	4.1820	4.1821	0.7547	25.08	0.56	0.750			
0.0614	3932.48	4.1790	4.1791	0.7585	25.08	0.56	0.750			
0.0637	4076.97	4.1760	4.1759	0.7611	25.08	0.56	0.750			
0.0660	4222.79	4.1730	4.1731	0.7670	25.08	0.56	0.750			
0.0683	4370.27	4.1700	4.1701	0.7727	25.08	0.56	0.750			
0.0706	4520.88	4.1670	4.1670	0.7702	25.08	0.56	0.750			
0.0730	4670.17	4.1640	4.1641	0.7791	25.09	0.57	0.750			
0.0753	4816.98	4.1610	4.1611	0.7740	25.09	0.57	0.750			
0.0776	4965.84	4.1580	4.1581	0.7777	25.09	0.57	0.750			
0.0799	5115.30	4.1550	4.1551	0.7774	25.09	0.57	0.750			
0.0823	5264.94	4.1520	4.1521	0.7771	25.09	0.57	0.750			
0.0846	5416.36	4.1490	4.1490	0.7823	25.08	0.56	0.750			
0.0869	5564.39	4.1460	4.1461	0.7750	25.08	0.56	0.750			
0.0893	5713.05	4.1430	4.1429	0.7796	25.08	0.56	0.750			
0.0916	5863.70	4.1400	4.1400	0.7812	25.08	0.56	0.750			
0.0940	6016.36	4.1370	4.1369	0.7700	25.09	0.57	0.750			
0.0963	6162.98	4.1340	4.1340	0.7825	25.09	0.57	0.750			
0.0986	6312.00	4.1310	4.1310	0.7860	25.09	0.57	0.750			
0.1010	6461.69	4.1280	4.1281	0.7893	25.10	0.58	0.750			
0.1034	6614.46	4.1250	4.1252	0.7967	25.10	0.58	0.750			
0.1058	6773.97	4.1220	4.1219	0.7884	25.10	0.58	0.750			
0.1082	6923.17	4.1190	4.1191	0.7967	25.09	0.57	0.750			
0.1105	7074.58	4.1160	4.1161	0.7891	25.09	0.57	0.750			
0.1129	7226.00	4.1130	4.1132	0.7959	25.09	0.57	0.750			
0.1153	7377.47	4.1100	4.1098	0.8003	25.09	0.57	0.750			
0.1177	7533.26	4.1070	4.1073	0.8022	25.09	0.57	0.750			
0.1202	7690.17	4.1040	4.1040	0.8094	25.09	0.57	0.750			
0.1226	7847.22	4.1010	4.1010	0.8147	25.10	0.58	0.750			
0.1250	8001.88	4.0980	4.0979	0.8036	25.10	0.58	0.750			
0.1274	8156.30	4.0950	4.0950	0.8109	25.10	0.58	0.750			
0.1299	8312.30	4.0920	4.0921	0.8143	25.10	0.58	0.750			
0.1323	8469.36	4.0890	4.0890	0.8111	25.10	0.58	0.750			
0.1348	8625.12	4.0860	4.0860	0.8164	25.10	0.58	0.750			
0.1372	8780.90	4.0830	4.0831	0.8166	25.10	0.58	0.750			
0.1396	8937.39	4.0800	4.0800	0.8192	25.10	0.58	0.750			
0.1421	9095.62	4.0770	4.0770	0.8237	25.10	0.58	0.750			
0.1446	9254.17	4.0740	4.0741	0.8142	25.10	0.58	0.750			
0.1470	9409.63	4.0710	4.0711	0.8196	25.10	0.58	0.750			
0.1495	9564.91	4.0680	4.0682	0.8220	25.10	0.58	0.750			
0.1519	9722.44	4.0650	4.0640	0.8294	25.10	0.58	0.750			
0.1544	9882.40	4.0620	4.0622	0.8329	25.10	0.58	0.750			
0.1569	10043.38	4.0590	4.0591	0.8432	25.11	0.59	0.750			
0.1595	10210.01	4.0560	4.0560	0.8539	25.11	0.59	0.750			
0.1622	10378.58	4.0530	4.0529	0.8587	25.12	0.60	0.750			
0.1646	10536.57	4.0500	4.0499	0.8454	25.12	0.60	0.750			
0.1672	10699.35	4.0470	4.0470	0.8484	25.12	0.60	0.750			
0.1697	10862.46	4.0440	4.0440	0.8402	25.12	0.60	0.750			
0.1722	11021.28	4.0410	4.0411	0.8473	25.12	0.60	0.750			
0.1747	11182.00	4.0380	4.0381	0.8518	25.12	0.60	0.750			
0.1773	11346.16	4.0350	4.0346	0.8593	25.12	0.60	0.750			
0.1799	11511.77	4.0320	4.0321	0.8693	25.12	0.60	0.750			
0.1825	11680.22	4.0290	4.0291	0.8630	25.12	0.60	0.750			
0.1851	11847.81	4.0260	4.0260	0.8713	25.12	0.60	0.750			
0.1877	12012.99	4.0230	4.0232	0.8692	25.12	0.60	0.750			
0.1903	12181.19	4.0200	4.0201	0.8715	25.12	0.60	0.750			
0.1930	12348.87	4.0170	4.0171	0.8728	25.13	0.61	0.750			
0.1956	12517.93	4.0140	4.0141	0.8783	25.13	0.61	0.750			
0.1983	12688.15	4.0110	4.0110	0.8834	25.13	0.61	0.750			
0.2009	12856.86	4.0080	4.0079	0.8790	25.14	0.62	0.750			
0.2035	13025.78	4.0050	4.0051	0.8815	25.14	0.62	0.750			
0.2062	13195.95	4.0020	4.0019	0.8755	25.14	0.62	0.750			
0.2088	13363.26	3.9990	3.9991	0.8852	25.14	0.62	0.750			
0.2114	13531.65	3.9960	3.9961	0.8864	25.14	0.62	0.750			
0.2141	13703.18	3.9930	3.9926	0.8919	25.14	0.62	0.750			
0.2168	13875.04	3.9900	3.9902	0.9002	25.14	0.62	0.750			
0.2195	14048.57	3.9870	3.9871	0.8921	25.14	0.62	0.750			
0.2222	14219.66	3.9840	3.9842	0.8989	25.14	0.62	0.750			
0.2248	14388.96	3.9810	3.9811	0.8976	25.14	0.62	0.750			
0.2275	14561.56	3.9780	3.9775	0.9066	25.14	0.62	0.750			
0.2303	14736.90	3.9750	3.9752	0.9130	25.14	0.62	0.750			
0.2330	14914.53	3.9720	3.9721	0.9156	25.14	0.62	0.750			
0.2359	15095.46	3.9690	3.9692	0.9224	25.14	0.62	0.750			
0.2386	15271.43	3.9660	3.9659	0.9115	25.14	0.62	0.750			
0.2413	15444.74	3.9630	3.9630	0.9158	25.14	0.62	0.750			
0.2441	15621.17	3.9600	3.9600	0.9103	25.14	0.62	0.750			
0.2468	15794.04	3.9570	3.9571	0.9152	25.15	0.63	0.750			
0.2495	15970.23	3.9540	3.9541	0.9222	25.15	0.63	0.750			
0.2523	16147.44	3.9510	3.9508	0.9254	25.15	0.63	0.750			
0.2552	16331.27	3.9480	3.9480	0.9053	25.15	0.63	0.750			
0.2579	16502.79	3.9450	3.9451	0.9126	25.15	0.63	0.750			
0.2605	16674.70	3.9420	3.9422	0.9245	25.15	0.63	0.750			
0.2633	16850.55	3.9390	3.9392	0.9325	25.15	0.63	0.750			
0.2661	17030.58	3.9360	3.9361	0.9326	25.15	0.63	0.750			
0.2689	17211.82	3.9330	3.9331	0.9430	25.16	0.64	0.750			
0.2718	17398.03	3.9300	3.9302	0.9547	25.16	0.64	0.750			
0.2748	17584.43	3.9270	3.9271	0.9557	25.17	0.65	0.750			
0.2776	17764.51	3.9240	3.9239	0.9425	25.17	0.65	0.750			
0.2804	17945.61	3.9210	3.9211	0.9409	25.17	0.65	0.750			
0.2832	18124.23	3.9180	3.9180	0.9436	25.17	0.65	0.750			
0.2860	18306.67	3.9150	3.9151	0.9571	25.17	0.65	0.750			
0.2889	18490.76	3.9120	3.9117	0.9595	25.17	0.65	0.750			
0.2919	18683.84	3.9090	3.9089	0.9480	25.17	0.65	0.750			
0.2947	18862.90	3.9060	3.9060	0.9525	25.17	0.65	0.750			
0.2975	19042.01	3.9030	3.9032	0.9571	25.17	0.65	0.750			
0.3004	19225.78	3.9000	3.9001	0.9653	25.17	0.65	0.750			
0.3033	19410.08	3.8970	3.8972	0.9557	25.17	0.65	0.750			
0.3061	19592.94	3.8940	3.8942	0.9628	25.17	0.65	0.750			
0.3091	19780.99	3.8910	3.8911	0.9745	25.18	0.66	0.750			
0.3120	19970.77	3.8880	3.8880	0.9780	25.18	0.66	0.750			
0.3150	20156.82	3.8850	3.8849	0.9706	25.18	0.66	0.750			
0.3179	20344.20	3.8820	3.8821	0.9692	25.18	0.66	0.750			
0.3208	20529.53	3.8790	3.8790	0.9770	25.17	0.65	0.750			
0.3236	20712.37	3.8760	3.8763	1.0087	25.17	0.65	0.750			
0.3266	20904.09	3.8730	3.8724	1.0271	25.17	0.65	0.750			
0.3298	21107.47	3.8700	3.8699	1.0350	25.17	0.65	0.750			
0.3330	21310.95	3.8670	3.8676	1.0528	25.17	0.65	0.750			
0.3362	21517.82	3.8640	3.8644	1.0536	25.16	0.64	0.750			
0.3395	21727.71	3.8610	3.8605	1.0521	25.16	0.64	0.750			
0.3426	21925.43	3.8580	3.8580	1.0338	25.15	0.63	0.750			
0.3455	22113.27	3.8550	3.8552	1.0117	25.15	0.63	0.750			
0.3486	22311.80	3.8520	3.8520	1.0207	25.15	0.63	0.750			
0.3517	22510.23	3.8490	3.8488	1.0278	25.14	0.62	0.750			
0.3547	22701.95	3.8460	3.8460	1.0145	25.13	0.61	0.750			
0.3578	22896.86	3.8430	3.8431	1.0193	25.12	0.60	0.750			
0.3608	23092.58	3.8400	3.8400	1.0382	25.11	0.59	0.750			
0.3640	23292.85	3.8370	3.8368	1.0497	25.10	0.58	0.750			
0.3671	23494.98	3.8340	3.8340	1.0480	25.09	0.57	0.750			
0.3703	23697.66	3.8310	3.8310	1.0612	25.08	0.56	0.750	0.319	0.428	
0.3735	23903.91	3.8280	3.8280	1.0717	25.07	0.55	0.750			
0.3767	24111.86	3.8250	3.8246	1.0774	25.06	0.54	0.750			
0.3799	24314.74	3.8220	3.8221	1.0718	25.06	0.54	0.750			
0.3832	24521.93	3.8190	3.8191	1.0771	25.05	0.53	0.750			
0.3865	24733.34	3.8160	3.8160	1.0844	25.04	0.52	0.750			
0.3897	24942.89	3.8130	3.8129	1.0716	25.04	0.52	0.750			
0.3929	25147.03	3.8100	3.8101	1.0717	25.03	0.51	0.750			
0.3961	25350.39	3.8070	3.8070	1.0777	25.01	0.49	0.750			
0.3993	25556.83	3.8040	3.8040	1.0851	25.00	0.48	0.750			
0.4026	25768.69	3.8010	3.8008	1.0783	24.99	0.47	0.750			
0.4058	25973.16	3.7980	3.7981	1.0968	24.98	0.46	0.750			
0.4091	26184.81	3.7950	3.7951	1.1164	24.97	0.45	0.750			
0.4125	26400.96	3.7920	3.7920	1.1343	24.96	0.44	0.750			
0.4159	26618.44	3.7890	3.7891	1.1416	24.95	0.43	0.750			
0.4194	26839.46	3.7860	3.7861	1.1624	24.93	0.41	0.750			
0.4229	27065.45	3.7830	3.7831	1.1845	24.92	0.40	0.750			
0.4265	27297.35	3.7800	3.7799	1.1976	24.91	0.39	0.750			
0.4301	27524.16	3.7770	3.7770	1.2103	24.90	0.38	0.750			
0.4337	27759.15	3.7740	3.7741	1.2380	24.88	0.36	0.750			
0.4376	28005.66	3.7710	3.7709	1.2476	24.87	0.35	0.750			
0.4413	28244.23	3.7680	3.7680	1.2706	24.85	0.33	0.750			
0.4451	28487.56	3.7650	3.7652	1.2937	24.84	0.32	0.750			
0.4490	28736.68	3.7620	3.7622	1.3273	24.83	0.31	0.750			
0.4531	28998.16	3.7590	3.7590	1.3514	24.82	0.30	0.750			
0.4571	29255.01	3.7560	3.7561	1.3831	24.80	0.28	0.750			
0.4613	29524.27	3.7530	3.7531	1.4188	24.79	0.27	0.750			
0.4656	29801.24	3.7500	3.7501	1.4555	24.78	0.26	0.750			
0.4700	30082.57	3.7470	3.7469	1.4719	24.76	0.24	0.750			
0.4745	30366.52	3.7440	3.7441	1.5066	24.75	0.23	0.750			
0.4790	30657.20	3.7410	3.7409	1.5447	24.73	0.21	0.750			
0.4837	30955.43	3.7380	3.7377	1.5933	24.72	0.20	0.750			
0.4885	31266.44	3.7350	3.7350	1.6289	24.71	0.19	0.750			
0.4935	31583.94	3.7320	3.7315	1.6935	24.69	0.17	0.750			
0.4986	31911.34	3.7290	3.7287	1.7503	24.67	0.15	0.750			
0.5040	32254.11	3.7260	3.7261	1.7901	24.65	0.13	0.750			
0.5095	32607.59	3.7230	3.7227	1.8379	24.64	0.12	0.750			
0.5150	32961.91	3.7200	3.7200	1.9000	24.62	0.10	0.750			
0.5209	33335.77	3.7170	3.7167	1.9396	24.60	0.08	0.750			
0.5269	33723.09	3.7140	3.7137	2.0082	24.59	0.07	0.750			
0.5328	34101.16	3.7110	3.7113	2.0713	24.58	0.06	0.750			
0.5392	34510.19	3.7080	3.7081	2.1334	24.56	0.04	0.750			
0.5457	34922.93	3.7050	3.7046	2.1733	24.54	0.02	0.750			
0.5522	35337.66	3.7020	3.7023	2.2299	24.52	-0.00	0.750			
0.5589	35772.35	3.6990	3.6992	2.3141	24.51	-0.01	0.750			
0.5661	36230.69	3.6960	3.6959	2.3250	24.50	-0.02	0.750			
0.5733	36688.44	3.6930	3.6930	2.4213	24.49	-0.03	0.750			
0.5805	37154.99	3.6900	3.6897	2.4863	24.47	-0.05	0.750			
0.5879	37627.21	3.6870	3.6873	2.5469	24.46	-0.06	0.750			
0.5957	38124.72	3.6840	3.6842	2.6703	24.45	-0.07	0.750			
0.6039	38647.15	3.6810	3.6810	2.7125	24.44	-0.08	0.750			
0.6124	39194.00	3.6780	3.6781	2.8057	24.42	-0.10	0.750			
0.6210	39742.15	3.6750	3.6747	2.8633	24.42	-0.10	0.750			
0.6296	40291.75	3.6720	3.6719	2.8680	24.42	-0.10	0.750			
0.6385	40862.86	3.6690	3.6689	2.8683	24.41	-0.11	0.750			
0.6468	41395.52	3.6660	3.6660	2.8613	24.41	-0.11	0.750			
0.6554	41944.42	3.6630	3.6627	2.6836	24.41	-0.11	0.750			
0.6634	42456.83	3.6600	3.6600	2.5118	24.42	-0.10	0.750			
0.6704	42908.15	3.6570	3.6573	2.2664	24.42	-0.10	0.750			
0.6768	43314.66	3.6540	3.6540	2.0447	24.42	-0.10	0.750			
0.6827	43694.36	3.6510	3.6507	1.8575	24.43	-0.09	0.750			
0.6880	44029.95	3.6480	3.6480	1.6382	24.44	-0.08	0.750			
0.6925	44320.62	3.6450	3.6452	1.4320	24.45	-0.07	0.750			
0.6963	44564.91	3.6420	3.6425	1.2374	24.45	-0.07	0.750			
0.6995	44768.72	3.6390	3.6390	1.1074	24.46	-0.06	0.750			
0.7026	44965.23	3.6360	3.6359	1.0331	24.46	-0.06	0.750			
0.7054	45146.64	3.6330	3.6332	0.9542	24.47	-0.05	0.750			
0.7083	45329.71	3.6300	3.6303	0.9334	24.47	-0.05	0.750			
0.7111	45511.67	3.6270	3.6272	0.9242	24.47	-0.05	0.750			
0.7139	45690.49	3.6240	3.6241	0.8972	24.48	-0.04	0.750			
0.7165	45854.37	3.6210	3.6212	0.8604	24.49	-0.03	0.750			
0.7189	46012.11	3.6180	3.6177	0.8330	24.49	-0.03	0.750			
0.7214	46171.95	3.6150	3.6155	0.8122	24.50	-0.02	0.750			
0.7239	46330.76	3.6120	3.6114	0.7651	24.51	-0.01	0.750			
0.7262	46477.23	3.6090	3.6095	0.7243	24.52	-0.00	0.750			
0.7284	46614.55	3.6060	3.6065	0.6656	24.52	0.00	0.750			
0.7304	46743.11	3.6030	3.6034	0.6051	24.53	0.01	0.750			
0.7321	46853.12	3.6000	3.6002	0.5238	24.54	0.02	0.750			
0.7335	46941.98	3.5970	3.5971	0.4524	24.54	0.02	0.750			
0.7347	47019.12	3.5940	3.5940	0.3844	24.55	0.03	0.750			
0.7357	47086.00	3.5910	3.5910	0.3202	24.55	0.03	0.750			
0.7365	47138.42	3.5880	3.5882	0.2520	24.55	0.03	0.750			
0.7372	47181.70	3.5850	3.5853	0.1966	24.55	0.03	0.750			
0.7377	47214.49	3.5820	3.5826	0.1399	24.55	0.03	0.750			
0.7382	47242.30	3.5790	3.5792	0.0588	24.56	0.04	0.750			
0.7382	47245.54	3.5760	3.5782	0.0141	24.56	0.04	0.750			
