Ah_balance (normalized)	Ah_balance (mAh)	Voltage - fit (V)	Voltage -  interpolate (V)	dQ/dV (1/V)	Temperature (°C)	Temperature - diff (°C)	Current (C)	R_DC 0ms (mOhm)	R_DC 50ms (mOhm)	R_DC 50 ms PEC (mOhm)
0.0485	3105.16	4.1970	4.1970	0.7576	24.88	0.46	0.750			
0.0508	3248.84	4.1940	4.1941	0.7524	24.88	0.46	0.750			
0.0530	3392.97	4.1910	4.1911	0.7571	24.88	0.46	0.750			
0.0553	3539.42	4.1880	4.1879	0.7536	24.88	0.46	0.750			
0.0576	3683.72	4.1850	4.1850	0.7576	24.88	0.46	0.750			
0.0598	3826.74	4.1820	4.1822	0.7676	24.88	0.46	0.750			
0.0621	3975.66	4.1790	4.1786	0.7741	24.88	0.46	0.750			
0.0645	4125.61	4.1760	4.1760	0.7782	24.88	0.46	0.750			
0.0668	4276.82	4.1730	4.1732	0.7741	24.88	0.46	0.750			
0.0692	4427.85	4.1700	4.1701	0.7772	24.88	0.46	0.750			
0.0715	4578.70	4.1670	4.1669	0.7817	24.88	0.46	0.750			
0.0738	4722.26	4.1640	4.1639	0.7698	24.88	0.46	0.750			
0.0761	4869.43	4.1610	4.1611	0.7686	24.88	0.46	0.750			
0.0784	5018.78	4.1580	4.1580	0.7752	24.88	0.46	0.750			
0.0807	5167.82	4.1550	4.1550	0.7763	24.88	0.46	0.750			
0.0831	5318.48	4.1520	4.1520	0.7822	24.88	0.46	0.750			
0.0854	5467.07	4.1490	4.1489	0.7775	24.88	0.46	0.750			
0.0878	5616.26	4.1460	4.1461	0.7778	24.88	0.46	0.750			
0.0901	5765.71	4.1430	4.1430	0.7772	24.88	0.46	0.750			
0.0924	5915.20	4.1400	4.1401	0.7764	24.88	0.46	0.750			
0.0947	6063.96	4.1370	4.1370	0.7780	24.88	0.46	0.750			
0.0971	6212.16	4.1340	4.1340	0.7781	24.88	0.46	0.750			
0.0994	6361.39	4.1310	4.1307	0.7806	24.88	0.46	0.750			
0.1017	6510.86	4.1280	4.1280	0.7879	24.88	0.46	0.750			
0.1042	6666.80	4.1250	4.1249	0.7695	24.88	0.46	0.750			
0.1065	6813.82	4.1220	4.1221	0.7809	24.89	0.47	0.750			
0.1088	6960.67	4.1190	4.1192	0.7837	24.89	0.47	0.750			
0.1111	7110.76	4.1160	4.1161	0.7878	24.89	0.47	0.750			
0.1135	7263.38	4.1130	4.1132	0.7926	24.89	0.47	0.750			
0.1159	7415.07	4.1100	4.1102	0.7984	24.89	0.47	0.750			
0.1183	7570.02	4.1070	4.1071	0.8062	24.89	0.47	0.750			
0.1208	7728.61	4.1040	4.1039	0.8143	24.89	0.47	0.750			
0.1232	7883.62	4.1010	4.1010	0.8029	24.89	0.47	0.750			
0.1256	8039.58	4.0980	4.0980	0.8044	24.89	0.47	0.750			
0.1281	8196.28	4.0950	4.0951	0.8043	24.89	0.47	0.750			
0.1305	8349.78	4.0920	4.0920	0.8018	24.89	0.47	0.750			
0.1328	8500.63	4.0890	4.0890	0.8011	24.90	0.48	0.750			
0.1352	8653.74	4.0860	4.0861	0.8051	24.90	0.48	0.750			
0.1376	8808.34	4.0830	4.0830	0.8108	24.90	0.48	0.750			
0.1401	8966.05	4.0800	4.0800	0.8172	24.90	0.48	0.750			
0.1426	9124.44	4.0770	4.0770	0.8092	24.90	0.48	0.750			
0.1450	9277.40	4.0740	4.0742	0.8109	24.91	0.49	0.750			
0.1474	9431.33	4.0710	4.0711	0.8152	24.91	0.49	0.750			
0.1498	9588.10	4.0680	4.0676	0.8212	24.91	0.49	0.750			
0.1523	9745.83	4.0650	4.0651	0.8241	24.91	0.49	0.750			
0.1548	9905.81	4.0620	4.0622	0.8305	24.91	0.49	0.750			
0.1574	10070.71	4.0590	4.0590	0.8408	24.92	0.50	0.750			
0.1599	10230.67	4.0560	4.0560	0.8354	24.92	0.50	0.750			
0.1624	10391.13	4.0530	4.0530	0.8342	24.92	0.50	0.750			
0.1649	10553.48	4.0500	4.0499	0.8306	24.92	0.50	0.750			
0.1674	10712.28	4.0470	4.0471	0.8370	24.92	0.50	0.750			
0.1699	10871.55	4.0440	4.0441	0.8415	24.93	0.51	0.750			
0.1724	11033.14	4.0410	4.0410	0.8471	24.93	0.51	0.750			
0.1749	11195.78	4.0380	4.0378	0.8509	24.93	0.51	0.750			
0.1775	11362.58	4.0350	4.0350	0.8477	24.93	0.51	0.750			
0.1801	11528.70	4.0320	4.0321	0.8551	24.93	0.51	0.750			
0.1827	11691.48	4.0290	4.0290	0.8555	24.94	0.52	0.750			
0.1852	11852.56	4.0260	4.0261	0.8529	24.94	0.52	0.750			
0.1877	12014.99	4.0230	4.0230	0.8546	24.94	0.52	0.750			
0.1903	12180.37	4.0200	4.0200	0.8603	24.95	0.53	0.750			
0.1929	12347.14	4.0170	4.0171	0.8696	24.95	0.53	0.750			
0.1956	12516.09	4.0140	4.0140	0.8757	24.95	0.53	0.750			
0.1982	12684.39	4.0110	4.0110	0.8753	24.96	0.54	0.750			
0.2008	12852.99	4.0080	4.0080	0.8782	24.96	0.54	0.750			
0.2035	13023.72	4.0050	4.0050	0.8673	24.97	0.55	0.750			
0.2061	13188.86	4.0020	4.0020	0.8753	24.97	0.55	0.750			
0.2087	13355.37	3.9990	3.9991	0.8800	24.97	0.55	0.750			
0.2113	13522.89	3.9960	3.9958	0.8812	24.98	0.56	0.750			
0.2140	13693.08	3.9930	3.9931	0.8881	24.98	0.56	0.750			
0.2167	13866.07	3.9900	3.9900	0.8774	24.99	0.57	0.750			
0.2193	14032.56	3.9870	3.9871	0.8881	24.99	0.57	0.750			
0.2219	14204.02	3.9840	3.9842	0.8846	25.00	0.58	0.750			
0.2246	14374.05	3.9810	3.9800	0.8836	25.00	0.58	0.750			
0.2272	14542.68	3.9780	3.9783	0.8860	25.00	0.58	0.750			
0.2299	14714.84	3.9750	3.9752	0.8913	25.00	0.58	0.750			
0.2326	14889.15	3.9720	3.9719	0.8995	25.00	0.58	0.750			
0.2353	15057.97	3.9690	3.9690	0.8837	25.00	0.58	0.750			
0.2379	15228.50	3.9660	3.9661	0.8930	25.00	0.58	0.750			
0.2407	15406.39	3.9630	3.9630	0.8923	25.01	0.59	0.750			
0.2434	15579.74	3.9600	3.9599	0.8864	25.01	0.59	0.750			
0.2459	15739.96	3.9570	3.9572	0.9224	25.01	0.59	0.750			
0.2488	15920.37	3.9540	3.9539	0.9496	25.02	0.60	0.750			
0.2517	16108.51	3.9510	3.9509	0.9578	25.02	0.60	0.750			
0.2546	16297.01	3.9480	3.9484	0.9732	25.02	0.60	0.750			
0.2576	16488.91	3.9450	3.9454	0.9725	25.02	0.60	0.750			
0.2607	16681.68	3.9420	3.9421	0.9659	25.02	0.60	0.750			
0.2635	16864.92	3.9390	3.9390	0.9580	25.02	0.60	0.750			
0.2662	17038.17	3.9360	3.9361	0.9310	25.03	0.61	0.750			
0.2690	17218.56	3.9330	3.9330	0.9323	25.03	0.61	0.750			
0.2719	17401.15	3.9300	3.9300	0.9394	25.04	0.62	0.750			
0.2747	17577.66	3.9270	3.9270	0.9326	25.04	0.62	0.750			
0.2775	17759.33	3.9240	3.9239	0.9273	25.04	0.62	0.750			
0.2802	17935.59	3.9210	3.9210	0.9333	25.04	0.62	0.750			
0.2830	18113.67	3.9180	3.9181	0.9365	25.05	0.63	0.750			
0.2859	18294.49	3.9150	3.9149	0.9437	25.05	0.63	0.750			
0.2887	18479.66	3.9120	3.9120	0.9349	25.05	0.63	0.750			
0.2915	18656.88	3.9090	3.9091	0.9396	25.05	0.63	0.750			
0.2943	18836.83	3.9060	3.9061	0.9460	25.06	0.64	0.750			
0.2972	19019.71	3.9030	3.9031	0.9557	25.06	0.64	0.750			
0.3000	19199.55	3.9000	3.8999	0.9575	25.06	0.64	0.750			
0.3029	19385.73	3.8970	3.8971	0.9608	25.06	0.64	0.750			
0.3058	19573.50	3.8940	3.8940	0.9668	25.06	0.64	0.750			
0.3088	19761.88	3.8910	3.8910	0.9677	25.06	0.64	0.750			
0.3117	19945.70	3.8880	3.8879	0.9580	25.06	0.64	0.750			
0.3146	20131.32	3.8850	3.8850	0.9490	25.06	0.64	0.750			
0.3174	20311.55	3.8820	3.8820	0.9533	25.05	0.63	0.750			
0.3202	20492.16	3.8790	3.8791	0.9571	25.05	0.63	0.750			
0.3231	20676.33	3.8760	3.8760	0.9645	25.04	0.62	0.750			
0.3260	20865.63	3.8730	3.8731	0.9612	25.04	0.62	0.750			
0.3289	21050.15	3.8700	3.8701	0.9704	25.04	0.62	0.750			
0.3318	21235.50	3.8670	3.8671	0.9794	25.04	0.62	0.750			
0.3348	21426.31	3.8640	3.8641	0.9860	25.04	0.62	0.750			
0.3377	21614.09	3.8610	3.8611	0.9827	25.04	0.62	0.750			
0.3407	21802.64	3.8580	3.8581	0.9895	25.03	0.61	0.750			
0.3437	21994.18	3.8550	3.8551	0.9961	25.02	0.60	0.750			
0.3467	22187.22	3.8520	3.8520	1.0022	25.01	0.59	0.750			
0.3497	22378.84	3.8490	3.8489	1.0005	25.00	0.58	0.750			
0.3527	22571.25	3.8460	3.8460	1.0032	24.99	0.57	0.750			
0.3557	22764.44	3.8430	3.8430	1.0153	24.99	0.57	0.750			
0.3587	22959.74	3.8400	3.8400	1.0217	24.99	0.57	0.750			
0.3618	23156.65	3.8370	3.8367	1.0270	24.98	0.56	0.750			
0.3649	23356.29	3.8340	3.8340	1.0269	24.97	0.55	0.750	0.323	0.438	
0.3680	23553.48	3.8310	3.8311	1.0284	24.96	0.54	0.750			
0.3711	23751.71	3.8280	3.8281	1.0320	24.95	0.53	0.750			
0.3742	23950.27	3.8250	3.8243	1.0317	24.94	0.52	0.750			
0.3773	24145.12	3.8220	3.8221	1.0282	24.94	0.52	0.750			
0.3804	24342.43	3.8190	3.8191	1.0399	24.93	0.51	0.750			
0.3835	24544.95	3.8160	3.8160	1.0460	24.93	0.51	0.750			
0.3867	24747.52	3.8130	3.8128	1.0522	24.92	0.50	0.750			
0.3898	24947.58	3.8100	3.8100	1.0467	24.91	0.49	0.750			
0.3929	25147.08	3.8070	3.8071	1.0567	24.90	0.48	0.750			
0.3961	25350.19	3.8040	3.8040	1.0660	24.88	0.46	0.750			
0.3993	25558.05	3.8010	3.8006	1.0658	24.87	0.45	0.750			
0.4025	25760.29	3.7980	3.7981	1.0754	24.86	0.44	0.750			
0.4057	25967.87	3.7950	3.7951	1.0962	24.84	0.42	0.750			
0.4091	26179.94	3.7920	3.7921	1.1119	24.83	0.41	0.750			
0.4124	26394.36	3.7890	3.7888	1.1188	24.82	0.40	0.750			
0.4158	26610.42	3.7860	3.7861	1.1419	24.81	0.39	0.750			
0.4193	26832.32	3.7830	3.7831	1.1652	24.80	0.38	0.750			
0.4228	27060.93	3.7800	3.7799	1.1812	24.78	0.36	0.750			
0.4264	27287.57	3.7770	3.7771	1.1932	24.77	0.35	0.750			
0.4299	27516.26	3.7740	3.7740	1.2147	24.76	0.34	0.750			
0.4336	27752.47	3.7710	3.7710	1.2416	24.75	0.33	0.750			
0.4374	27992.47	3.7680	3.7681	1.2515	24.74	0.32	0.750			
0.4411	28232.76	3.7650	3.7650	1.2823	24.73	0.31	0.750			
0.4450	28481.95	3.7620	3.7622	1.3141	24.71	0.29	0.750			
0.4490	28738.02	3.7590	3.7586	1.3463	24.70	0.28	0.750			
0.4531	28997.54	3.7560	3.7561	1.3768	24.69	0.27	0.750			
0.4573	29266.10	3.7530	3.7531	1.4115	24.67	0.25	0.750			
0.4617	29547.44	3.7500	3.7499	1.4169	24.66	0.24	0.750			
0.4659	29816.52	3.7470	3.7472	1.4412	24.65	0.23	0.750			
0.4703	30098.44	3.7440	3.7441	1.4717	24.63	0.21	0.750			
0.4746	30377.11	3.7410	3.7407	1.5169	24.62	0.20	0.750			
0.4792	30667.36	3.7380	3.7383	1.5716	24.60	0.18	0.750			
0.4840	30977.47	3.7350	3.7352	1.6145	24.59	0.17	0.750			
0.4890	31297.30	3.7320	3.7320	1.6775	24.58	0.16	0.750			
0.4942	31626.11	3.7290	3.7291	1.7333	24.57	0.15	0.750			
0.4994	31960.50	3.7260	3.7261	1.7826	24.56	0.14	0.750			
0.5049	32310.84	3.7230	3.7228	1.8082	24.54	0.12	0.750			
0.5103	32659.34	3.7200	3.7202	1.8603	24.52	0.10	0.750			
0.5160	33026.19	3.7170	3.7172	1.9188	24.49	0.07	0.750			
0.5218	33394.73	3.7140	3.7144	1.9849	24.47	0.05	0.750			
0.5278	33780.10	3.7110	3.7103	2.0476	24.45	0.03	0.750			
0.5341	34184.75	3.7080	3.7079	2.0904	24.44	0.02	0.750			
0.5405	34593.33	3.7050	3.7049	2.1448	24.42	0.00	0.750			
0.5472	35021.01	3.7020	3.7022	2.2242	24.41	-0.01	0.750			
0.5538	35445.66	3.6990	3.6988	2.2652	24.39	-0.03	0.750			
0.5609	35898.93	3.6960	3.6958	2.3072	24.36	-0.06	0.750			
0.5677	36335.53	3.6930	3.6931	2.4048	24.35	-0.07	0.750			
0.5752	36809.90	3.6900	3.6896	2.4140	24.34	-0.08	0.750			
0.5824	37275.63	3.6870	3.6869	2.4667	24.33	-0.09	0.750			
0.5899	37751.67	3.6840	3.6834	2.6024	24.32	-0.10	0.750			
0.5979	38263.46	3.6810	3.6809	2.7047	24.30	-0.12	0.750			
0.6063	38805.43	3.6780	3.6780	2.7877	24.29	-0.13	0.750			
0.6148	39349.43	3.6750	3.6747	2.7637	24.28	-0.14	0.750			
0.6232	39887.84	3.6720	3.6721	2.6000	24.26	-0.16	0.750			
0.6305	40353.62	3.6690	3.6692	2.5678	24.26	-0.16	0.750			
0.6379	40828.07	3.6660	3.6658	2.4979	24.26	-0.16	0.750			
0.6458	41329.49	3.6630	3.6625	2.4987	24.26	-0.16	0.750			
0.6535	41825.87	3.6600	3.6599	2.5269	24.27	-0.15	0.750			
0.6605	42274.80	3.6570	3.6572	2.1744	24.28	-0.14	0.750			
0.6662	42637.16	3.6540	3.6538	2.0105	24.29	-0.13	0.750			
0.6720	43006.48	3.6510	3.6512	1.8618	24.30	-0.12	0.750			
0.6772	43337.87	3.6480	3.6480	1.6711	24.30	-0.12	0.750			
0.6819	43640.60	3.6450	3.6456	1.5116	24.31	-0.11	0.750			
0.6864	43927.07	3.6420	3.6421	1.3660	24.32	-0.10	0.750			
0.6905	44191.16	3.6390	3.6388	1.2024	24.33	-0.09	0.750			
0.6934	44377.65	3.6360	3.6361	1.0670	24.33	-0.09	0.750			
0.6963	44565.86	3.6330	3.6331	0.9913	24.34	-0.08	0.750			
0.6991	44743.00	3.6300	3.6294	0.9429	24.34	-0.08	0.750			
0.7019	44918.57	3.6270	3.6272	0.9174	24.35	-0.07	0.750			
0.7045	45090.85	3.6240	3.6241	0.8846	24.36	-0.06	0.750			
0.7072	45261.86	3.6210	3.6210	0.8565	24.37	-0.05	0.750			
0.7098	45425.18	3.6180	3.6181	0.8219	24.37	-0.05	0.750			
0.7122	45581.21	3.6150	3.6152	0.7812	24.38	-0.04	0.750			
0.7146	45732.52	3.6120	3.6123	0.7399	24.39	-0.03	0.750			
0.7167	45870.64	3.6090	3.6093	0.6888	24.40	-0.02	0.750			
0.7188	46000.76	3.6060	3.6065	0.6339	24.40	-0.02	0.750			
0.7206	46118.36	3.6030	3.6034	0.5677	24.41	-0.01	0.750			
0.7222	46222.90	3.6000	3.6002	0.5035	24.41	-0.01	0.750			
0.7236	46308.04	3.5970	3.5972	0.4182	24.42	-0.00	0.750			
0.7248	46384.34	3.5940	3.5940	0.3592	24.42	0.00	0.750			
0.7257	46444.05	3.5910	3.5912	0.2948	24.42	0.00	0.750			
0.7265	46493.20	3.5880	3.5883	0.2331	24.43	0.01	0.750			
0.7271	46531.53	3.5850	3.5857	0.1812	24.43	0.01	0.750			
0.7275	46560.48	3.5820	3.5826	0.1379	24.43	0.01	0.750			
0.7279	46583.02	3.5790	3.5810	0.1010	24.43	0.01	0.750			
