Ah_balance (normalized)	Ah_balance (mAh)	Voltage - fit (V)	Voltage -  interpolate (V)	dQ/dV (1/V)	Temperature (°C)	Temperature - diff (°C)	Current (C)	R_DC 0ms (mOhm)	R_DC 50ms (mOhm)	R_DC 50 ms PEC (mOhm)
0.0002	11.23	4.1650	4.1649	-0.1016	24.91	0.02	-0.750			
0.0006	35.45	4.1620	4.1619	-0.1490	24.91	0.02	-0.750			
0.0011	69.38	4.1590	4.1589	-0.1952	24.90	0.01	-0.750			
0.0017	110.29	4.1560	4.1561	-0.2411	24.90	0.01	-0.750			
0.0025	161.27	4.1530	4.1530	-0.2864	24.90	0.01	-0.750			
0.0034	220.75	4.1500	4.1500	-0.3285	24.90	0.01	-0.750			
0.0045	288.69	4.1470	4.1470	-0.3713	24.90	0.01	-0.750			
0.0057	365.65	4.1440	4.1440	-0.4123	24.90	0.01	-0.750			
0.0070	449.64	4.1410	4.1409	-0.4474	24.90	0.01	-0.750			
0.0084	540.52	4.1380	4.1380	-0.4796	24.89	0.00	-0.750			
0.0099	635.06	4.1350	4.1352	-0.5067	24.89	0.00	-0.750			
0.0115	736.10	4.1320	4.1319	-0.5346	24.89	-0.00	-0.750			
0.0131	841.11	4.1290	4.1290	-0.5591	24.89	-0.00	-0.750			
0.0149	950.52	4.1260	4.1260	-0.5780	24.88	-0.01	-0.750			
0.0166	1063.48	4.1230	4.1230	-0.6073	24.88	-0.01	-0.750			
0.0185	1186.33	4.1200	4.1200	-0.6277	24.88	-0.01	-0.750			
0.0205	1309.36	4.1170	4.1169	-0.6422	24.87	-0.02	-0.750			
0.0224	1435.43	4.1140	4.1141	-0.6556	24.87	-0.02	-0.750			
0.0244	1563.23	4.1110	4.1109	-0.6605	24.87	-0.02	-0.750			
0.0264	1690.77	4.1080	4.1079	-0.6645	24.87	-0.02	-0.750			
0.0284	1817.98	4.1050	4.1050	-0.6817	24.87	-0.02	-0.750			
0.0305	1949.67	4.1020	4.1019	-0.6936	24.86	-0.03	-0.750			
0.0326	2084.92	4.0990	4.0988	-0.6988	24.86	-0.03	-0.750			
0.0347	2219.91	4.0960	4.0960	-0.7062	24.86	-0.03	-0.750			
0.0368	2357.15	4.0930	4.0929	-0.7115	24.86	-0.03	-0.750			
0.0390	2495.02	4.0900	4.0899	-0.7146	24.86	-0.03	-0.750			
0.0411	2630.40	4.0870	4.0870	-0.7230	24.86	-0.03	-0.750			
0.0433	2771.55	4.0840	4.0839	-0.7312	24.86	-0.03	-0.750			
0.0455	2912.80	4.0810	4.0809	-0.7341	24.86	-0.03	-0.750			
0.0477	3055.57	4.0780	4.0784	-0.7328	24.86	-0.03	-0.750			
0.0499	3195.14	4.0750	4.0750	-0.7356	24.86	-0.03	-0.750			
0.0521	3334.20	4.0720	4.0720	-0.7546	24.86	-0.03	-0.750			
0.0544	3479.40	4.0690	4.0690	-0.7557	24.86	-0.03	-0.750			
0.0567	3628.46	4.0660	4.0657	-0.7649	24.86	-0.03	-0.750			
0.0590	3776.53	4.0630	4.0630	-0.7627	24.86	-0.03	-0.750			
0.0613	3925.36	4.0600	4.0601	-0.7622	24.86	-0.03	-0.750			
0.0636	4071.27	4.0570	4.0569	-0.7620	24.87	-0.02	-0.750			
0.0658	4212.25	4.0540	4.0540	-0.7599	24.87	-0.02	-0.750			
0.0681	4357.58	4.0510	4.0510	-0.7597	24.87	-0.02	-0.750			
0.0704	4508.25	4.0480	4.0480	-0.7706	24.88	-0.01	-0.750			
0.0728	4658.56	4.0450	4.0454	-0.7724	24.88	-0.01	-0.750			
0.0751	4806.73	4.0420	4.0419	-0.7699	24.88	-0.01	-0.750			
0.0774	4954.36	4.0390	4.0390	-0.7690	24.88	-0.01	-0.750			
0.0797	5099.72	4.0360	4.0360	-0.7693	24.88	-0.01	-0.750			
0.0820	5247.66	4.0330	4.0329	-0.7709	24.88	-0.01	-0.750			
0.0843	5396.21	4.0300	4.0299	-0.7706	24.88	-0.01	-0.750			
0.0866	5544.26	4.0270	4.0271	-0.7747	24.88	-0.01	-0.750			
0.0889	5692.50	4.0240	4.0240	-0.7760	24.89	-0.00	-0.750			
0.0913	5840.86	4.0210	4.0210	-0.7776	24.89	-0.00	-0.750			
0.0936	5990.23	4.0180	4.0180	-0.7767	24.89	0.00	-0.750			
0.0960	6141.02	4.0150	4.0149	-0.7779	24.90	0.01	-0.750			
0.0983	6291.34	4.0120	4.0122	-0.7835	24.90	0.01	-0.750			
0.1006	6440.93	4.0090	4.0091	-0.7880	24.90	0.01	-0.750			
0.1030	6591.86	4.0060	4.0060	-0.7931	24.91	0.02	-0.750			
0.1054	6746.47	4.0030	4.0027	-0.7949	24.91	0.02	-0.750			
0.1078	6899.69	4.0000	4.0000	-0.7960	24.92	0.03	-0.750			
0.1102	7052.85	3.9970	3.9971	-0.8011	24.92	0.03	-0.750			
0.1126	7206.51	3.9940	3.9940	-0.7992	24.92	0.03	-0.750			
0.1150	7361.29	3.9910	3.9909	-0.8047	24.93	0.04	-0.750			
0.1174	7513.50	3.9880	3.9880	-0.7984	24.93	0.04	-0.750			
0.1198	7669.08	3.9850	3.9850	-0.7998	24.94	0.05	-0.750			
0.1222	7822.40	3.9820	3.9822	-0.7978	24.94	0.05	-0.750			
0.1246	7973.70	3.9790	3.9789	-0.7995	24.94	0.05	-0.750			
0.1270	8126.24	3.9760	3.9759	-0.8053	24.95	0.06	-0.750			
0.1294	8281.38	3.9730	3.9729	-0.8057	24.95	0.06	-0.750			
0.1318	8436.36	3.9700	3.9700	-0.8069	24.95	0.06	-0.750			
0.1343	8596.18	3.9670	3.9671	-0.8151	24.96	0.07	-0.750			
0.1367	8751.92	3.9640	3.9639	-0.8142	24.96	0.07	-0.750			
0.1392	8907.39	3.9610	3.9609	-0.8170	24.96	0.07	-0.750			
0.1416	9063.78	3.9580	3.9580	-0.8175	24.96	0.07	-0.750			
0.1441	9220.53	3.9550	3.9549	-0.8135	24.96	0.07	-0.750			
0.1466	9381.35	3.9520	3.9520	-0.8227	24.96	0.07	-0.750			
0.1490	9537.78	3.9490	3.9488	-0.8222	24.96	0.07	-0.750			
0.1515	9694.15	3.9460	3.9460	-0.8276	24.97	0.08	-0.750			
0.1540	9854.22	3.9430	3.9429	-0.8255	24.97	0.08	-0.750			
0.1564	10009.78	3.9400	3.9400	-0.8229	24.97	0.08	-0.750			
0.1590	10173.17	3.9370	3.9370	-0.8357	24.98	0.09	-0.750			
0.1615	10333.50	3.9340	3.9341	-0.8409	24.98	0.09	-0.750			
0.1640	10496.65	3.9310	3.9308	-0.8471	24.99	0.10	-0.750			
0.1665	10658.91	3.9280	3.9280	-0.8452	25.00	0.11	-0.750			
0.1691	10822.36	3.9250	3.9249	-0.8453	25.00	0.11	-0.750			
0.1717	10985.95	3.9220	3.9220	-0.8473	25.01	0.12	-0.750			
0.1742	11148.47	3.9190	3.9187	-0.8464	25.01	0.12	-0.750			
0.1767	11309.67	3.9160	3.9159	-0.8508	25.01	0.12	-0.750			
0.1792	11471.68	3.9130	3.9130	-0.8482	25.02	0.13	-0.750			
0.1818	11638.09	3.9100	3.9100	-0.8586	25.02	0.13	-0.750			
0.1844	11804.62	3.9070	3.9070	-0.8532	25.02	0.13	-0.750			
0.1870	11966.59	3.9040	3.9039	-0.8552	25.02	0.13	-0.750			
0.1895	12129.26	3.9010	3.9009	-0.8552	25.02	0.13	-0.750			
0.1921	12292.17	3.8980	3.8980	-0.8584	25.03	0.14	-0.750			
0.1947	12457.67	3.8950	3.8950	-0.8504	25.03	0.14	-0.750			
0.1973	12626.12	3.8920	3.8921	-0.8600	25.03	0.14	-0.750			
0.1998	12789.76	3.8890	3.8889	-0.8634	25.03	0.14	-0.750			
0.2024	12955.39	3.8860	3.8860	-0.8686	25.04	0.15	-0.750			
0.2050	13122.12	3.8830	3.8828	-0.8627	25.04	0.15	-0.750			
0.2076	13287.44	3.8800	3.8800	-0.8628	25.05	0.16	-0.750			
0.2102	13455.68	3.8770	3.8774	-0.8660	25.05	0.16	-0.750			
0.2129	13625.13	3.8740	3.8739	-0.8539	25.05	0.16	-0.750			
0.2155	13790.73	3.8710	3.8709	-0.8250	25.06	0.17	-0.750			
0.2179	13943.84	3.8680	3.8681	-0.8019	25.06	0.17	-0.750			
0.2202	14093.11	3.8650	3.8655	-0.7949	25.07	0.18	-0.750			
0.2225	14240.56	3.8620	3.8614	-0.7961	25.07	0.18	-0.750			
0.2248	14386.54	3.8590	3.8587	-0.7954	25.07	0.18	-0.750			
0.2272	14540.21	3.8560	3.8560	-0.8217	25.07	0.18	-0.750			
0.2298	14706.20	3.8530	3.8531	-0.8484	25.08	0.19	-0.750			
0.2324	14875.01	3.8500	3.8498	-0.8682	25.08	0.19	-0.750			
0.2350	15042.91	3.8470	3.8473	-0.8681	25.08	0.19	-0.750			
0.2376	15203.88	3.8440	3.8440	-0.8795	25.08	0.19	-0.750			
0.2403	15379.02	3.8410	3.8410	-0.8700	25.08	0.19	-0.750			
0.2429	15545.87	3.8380	3.8379	-0.8627	25.09	0.20	-0.750			
0.2455	15711.38	3.8350	3.8349	-0.8673	25.09	0.20	-0.750			
0.2481	15877.58	3.8320	3.8325	-0.8588	25.09	0.20	-0.750			
0.2506	16039.69	3.8290	3.8287	-0.8555	25.09	0.20	-0.750			
0.2532	16206.09	3.8260	3.8259	-0.8601	25.10	0.21	-0.750			
0.2558	16369.87	3.8230	3.8230	-0.8535	25.10	0.21	-0.750			
0.2584	16538.93	3.8200	3.8199	-0.8600	25.11	0.22	-0.750			
0.2610	16703.66	3.8170	3.8170	-0.8498	25.11	0.22	-0.750			
0.2635	16862.77	3.8140	3.8139	-0.8489	25.11	0.22	-0.750			
0.2660	17025.01	3.8110	3.8109	-0.8415	25.11	0.22	-0.750			
0.2685	17182.28	3.8080	3.8080	-0.8293	25.12	0.23	-0.750			
0.2711	17347.25	3.8050	3.8049	-0.8399	25.12	0.23	-0.750			
0.2736	17508.07	3.8020	3.8021	-0.8344	25.12	0.23	-0.750			
0.2760	17664.72	3.7990	3.7990	-0.8421	25.12	0.23	-0.750			
0.2786	17828.30	3.7960	3.7958	-0.8329	25.12	0.23	-0.750			
0.2810	17987.08	3.7930	3.7930	-0.8224	25.13	0.24	-0.750			
0.2836	18148.94	3.7900	3.7898	-0.8240	25.13	0.24	-0.750			
0.2861	18307.57	3.7870	3.7870	-0.8171	25.13	0.24	-0.750			
0.2884	18460.42	3.7840	3.7839	-0.8151	25.14	0.25	-0.750			
0.2908	18612.89	3.7810	3.7810	-0.8051	25.14	0.25	-0.750			
0.2932	18765.76	3.7780	3.7780	-0.7902	25.15	0.26	-0.750			
0.2957	18923.87	3.7750	3.7749	-0.8011	25.15	0.26	-0.750			
0.2981	19077.61	3.7720	3.7725	-0.7970	25.16	0.27	-0.750			
0.3004	19228.33	3.7690	3.7691	-0.7932	25.16	0.27	-0.750			
0.3028	19378.50	3.7660	3.7659	-0.7902	25.16	0.27	-0.750			
0.3051	19528.09	3.7630	3.7630	-0.7959	25.17	0.28	-0.750			
0.3075	19681.55	3.7600	3.7600	-0.8039	25.17	0.28	-0.750			
0.3100	19839.36	3.7570	3.7570	-0.8118	25.17	0.28	-0.750			
0.3124	19993.94	3.7540	3.7540	-0.8097	25.17	0.28	-0.750			
0.3149	20150.62	3.7510	3.7510	-0.8230	25.17	0.28	-0.750			
0.3174	20310.57	3.7480	3.7479	-0.8267	25.18	0.29	-0.750			
0.3198	20468.75	3.7450	3.7448	-0.8267	25.18	0.29	-0.750			
0.3223	20627.30	3.7420	3.7423	-0.8325	25.18	0.29	-0.750			
0.3248	20788.40	3.7390	3.7389	-0.8396	25.18	0.29	-0.750			
0.3273	20949.90	3.7360	3.7359	-0.8542	25.18	0.29	-0.750			
0.3299	21113.99	3.7330	3.7329	-0.8602	25.18	0.29	-0.750			
0.3325	21280.49	3.7300	3.7299	-0.8774	25.18	0.29	-0.750			
0.3352	21449.62	3.7270	3.7273	-0.8847	25.18	0.29	-0.750			
0.3378	21618.95	3.7240	3.7240	-0.9029	25.18	0.29	-0.750			
0.3405	21793.74	3.7210	3.7209	-0.9123	25.18	0.29	-0.750			
0.3433	21970.72	3.7180	3.7179	-0.9212	25.18	0.29	-0.750			
0.3461	22148.30	3.7150	3.7149	-0.9387	25.18	0.29	-0.750			
0.3488	22325.26	3.7120	3.7121	-0.9738	25.18	0.29	-0.750			
0.3517	22511.97	3.7090	3.7090	-0.9911	25.18	0.29	-0.750			
0.3548	22709.42	3.7060	3.7057	-1.0060	25.17	0.28	-0.750			
0.3579	22904.51	3.7030	3.7029	-1.0190	25.17	0.28	-0.750			
0.3610	23102.63	3.7000	3.7002	-1.0564	25.17	0.28	-0.750			
0.3642	23311.86	3.6970	3.6966	-1.0611	25.16	0.27	-0.750	0.384	0.505	
0.3674	23515.32	3.6940	3.6938	-1.0590	25.15	0.26	-0.750			
0.3705	23713.74	3.6910	3.6909	-1.0804	25.15	0.26	-0.750			
0.3738	23921.74	3.6880	3.6878	-1.0990	25.14	0.25	-0.750			
0.3771	24135.00	3.6850	3.6848	-1.1227	25.14	0.25	-0.750			
0.3804	24346.17	3.6820	3.6819	-1.1424	25.13	0.24	-0.750			
0.3838	24560.90	3.6790	3.6793	-1.1714	25.13	0.24	-0.750			
0.3875	24801.99	3.6760	3.6759	-1.2122	25.13	0.24	-0.750			
0.3912	25039.50	3.6730	3.6729	-1.2302	25.12	0.23	-0.750			
0.3949	25271.59	3.6700	3.6699	-1.2638	25.11	0.22	-0.750			
0.3987	25517.48	3.6670	3.6672	-1.2773	25.11	0.22	-0.750			
0.4026	25767.10	3.6640	3.6638	-1.2937	25.10	0.21	-0.750			
0.4065	26015.15	3.6610	3.6608	-1.3098	25.09	0.20	-0.750			
0.4104	26268.14	3.6580	3.6586	-1.3316	25.08	0.19	-0.750			
0.4146	26533.04	3.6550	3.6550	-1.3839	25.07	0.18	-0.750			
0.4187	26794.76	3.6520	3.6519	-1.4378	25.07	0.18	-0.750			
0.4231	27080.40	3.6490	3.6491	-1.4361	25.06	0.17	-0.750			
0.4276	27365.57	3.6460	3.6466	-1.4511	25.05	0.16	-0.750			
0.4319	27642.33	3.6430	3.6432	-1.4919	25.04	0.15	-0.750			
0.4364	27930.15	3.6400	3.6400	-1.5102	25.03	0.14	-0.750			
0.4410	28224.60	3.6370	3.6366	-1.5307	25.02	0.13	-0.750			
0.4457	28523.59	3.6340	3.6344	-1.5520	25.00	0.11	-0.750			
0.4504	28823.48	3.6310	3.6309	-1.5943	25.00	0.11	-0.750			
0.4551	29125.83	3.6280	3.6279	-1.6241	24.99	0.10	-0.750			
0.4599	29436.17	3.6250	3.6249	-1.6516	24.98	0.09	-0.750			
0.4649	29752.34	3.6220	3.6219	-1.6785	24.97	0.08	-0.750			
0.4700	30080.63	3.6190	3.6190	-1.6856	24.96	0.07	-0.750			
0.4753	30419.32	3.6160	3.6157	-1.7255	24.96	0.07	-0.750			
0.4806	30760.29	3.6130	3.6127	-1.7570	24.95	0.06	-0.750			
0.4858	31092.94	3.6100	3.6101	-1.8045	24.94	0.05	-0.750			
0.4913	31440.37	3.6070	3.6070	-1.8502	24.93	0.04	-0.750			
0.4970	31810.04	3.6040	3.6039	-1.8976	24.92	0.03	-0.750			
0.5029	32183.83	3.6010	3.6011	-1.9631	24.92	0.03	-0.750			
0.5089	32567.82	3.5980	3.5985	-1.9599	24.91	0.02	-0.750			
0.5148	32944.15	3.5950	3.5954	-1.9927	24.90	0.01	-0.750			
0.5210	33340.98	3.5920	3.5921	-2.0460	24.89	0.00	-0.750			
0.5269	33718.73	3.5890	3.5891	-2.0917	24.89	-0.00	-0.750			
0.5335	34143.77	3.5860	3.5864	-2.1550	24.88	-0.01	-0.750			
0.5400	34561.28	3.5830	3.5827	-2.1653	24.87	-0.02	-0.750			
0.5467	34989.96	3.5800	3.5806	-2.1346	24.86	-0.03	-0.750			
0.5530	35391.15	3.5770	3.5773	-2.1382	24.86	-0.03	-0.750			
0.5595	35806.15	3.5740	3.5733	-2.1853	24.85	-0.04	-0.750			
0.5658	36210.61	3.5710	3.5717	-2.2514	24.85	-0.04	-0.750			
0.5726	36647.90	3.5680	3.5679	-2.2828	24.84	-0.05	-0.750			
0.5799	37115.42	3.5650	3.5652	-2.2894	24.84	-0.05	-0.750			
0.5864	37530.44	3.5620	3.5619	-2.2874	24.84	-0.05	-0.750			
0.5933	37973.67	3.5590	3.5591	-2.2450	24.84	-0.05	-0.750			
0.6000	38399.74	3.5560	3.5555	-2.2256	24.84	-0.05	-0.750			
0.6069	38839.92	3.5530	3.5531	-2.2243	24.84	-0.05	-0.750			
0.6135	39261.50	3.5500	3.5494	-2.2485	24.85	-0.04	-0.750			
0.6201	39685.76	3.5470	3.5475	-2.1905	24.86	-0.03	-0.750			
0.6265	40096.57	3.5440	3.5439	-2.1302	24.86	-0.03	-0.750			
0.6332	40523.77	3.5410	3.5411	-2.1473	24.86	-0.03	-0.750			
0.6393	40912.86	3.5380	3.5382	-2.0609	24.86	-0.03	-0.750			
0.6456	41320.86	3.5350	3.5351	-2.0695	24.87	-0.02	-0.750			
0.6516	41702.35	3.5320	3.5322	-1.9801	24.88	-0.01	-0.750			
0.6578	42097.94	3.5290	3.5286	-1.9501	24.89	-0.00	-0.750			
0.6634	42459.36	3.5260	3.5259	-1.8998	24.89	0.00	-0.750			
0.6689	42809.45	3.5230	3.5230	-1.7922	24.90	0.01	-0.750			
0.6742	43150.46	3.5200	3.5197	-1.7602	24.90	0.01	-0.750			
0.6795	43484.98	3.5170	3.5168	-1.7415	24.92	0.03	-0.750			
0.6848	43824.59	3.5140	3.5138	-1.6865	24.94	0.05	-0.750			
0.6900	44160.94	3.5110	3.5111	-1.6466	24.95	0.06	-0.750			
0.6948	44468.63	3.5080	3.5082	-1.5940	24.96	0.07	-0.750			
0.6995	44766.34	3.5050	3.5047	-1.5062	24.97	0.08	-0.750			
0.7041	45061.38	3.5020	3.5015	-1.5012	24.98	0.09	-0.750			
0.7083	45332.52	3.4990	3.4987	-1.4407	24.99	0.10	-0.750			
0.7127	45611.58	3.4960	3.4956	-1.4205	25.01	0.12	-0.750			
0.7168	45875.69	3.4930	3.4939	-1.3886	25.03	0.14	-0.750			
0.7210	46145.20	3.4900	3.4899	-1.3347	25.05	0.16	-0.750			
0.7249	46394.74	3.4870	3.4871	-1.2238	25.07	0.18	-0.750			
