Ah_balance (normalized)	Ah_balance (mAh)	Voltage - fit (V)	Voltage -  interpolate (V)	dQ/dV (1/V)	Temperature (°C)	Temperature - diff (°C)	Current (C)	R_DC 0ms (mOhm)	R_DC 50ms (mOhm)	R_DC 50 ms PEC (mOhm)
0.0489	3132.65	4.1960	4.1960	0.7595	24.89	0.43	0.750			
0.0512	3278.69	4.1930	4.1929	0.7593	24.89	0.43	0.750			
0.0535	3423.34	4.1900	4.1901	0.7605	24.89	0.43	0.750			
0.0558	3571.61	4.1870	4.1870	0.7538	24.89	0.43	0.750			
0.0581	3715.53	4.1840	4.1840	0.7581	24.90	0.44	0.750			
0.0603	3860.31	4.1810	4.1811	0.7587	24.90	0.44	0.750			
0.0626	4005.50	4.1780	4.1782	0.7621	24.90	0.44	0.750			
0.0649	4152.40	4.1750	4.1751	0.7642	24.90	0.44	0.750			
0.0672	4299.12	4.1720	4.1720	0.7674	24.90	0.44	0.750			
0.0695	4447.96	4.1690	4.1690	0.7564	24.90	0.44	0.750			
0.0718	4592.71	4.1660	4.1661	0.7678	24.91	0.45	0.750			
0.0740	4736.38	4.1630	4.1632	0.7647	24.91	0.45	0.750			
0.0763	4883.80	4.1600	4.1591	0.7722	24.91	0.45	0.750			
0.0786	5031.51	4.1570	4.1572	0.7797	24.91	0.45	0.750			
0.0810	5184.67	4.1540	4.1541	0.7857	24.91	0.45	0.750			
0.0834	5339.76	4.1510	4.1510	0.7931	24.92	0.46	0.750			
0.0858	5490.76	4.1480	4.1480	0.7811	24.92	0.46	0.750			
0.0881	5640.48	4.1450	4.1450	0.7852	24.92	0.46	0.750			
0.0905	5792.21	4.1420	4.1420	0.7856	24.92	0.46	0.750			
0.0929	5944.51	4.1390	4.1389	0.7775	24.92	0.46	0.750			
0.0952	6091.93	4.1360	4.1361	0.7793	24.93	0.47	0.750			
0.0975	6241.22	4.1330	4.1331	0.7848	24.93	0.47	0.750			
0.0999	6391.99	4.1300	4.1300	0.7863	24.93	0.47	0.750			
0.1022	6542.50	4.1270	4.1270	0.7866	24.93	0.47	0.750			
0.1046	6693.58	4.1240	4.1241	0.7893	24.93	0.47	0.750			
0.1070	6848.80	4.1210	4.1210	0.7809	24.93	0.47	0.750			
0.1093	6995.82	4.1180	4.1181	0.7886	24.94	0.48	0.750			
0.1116	7143.04	4.1150	4.1152	0.7891	24.94	0.48	0.750			
0.1140	7296.18	4.1120	4.1112	0.7972	24.94	0.48	0.750			
0.1164	7450.60	4.1090	4.1092	0.8046	24.94	0.48	0.750			
0.1189	7607.64	4.1060	4.1061	0.8030	24.94	0.48	0.750			
0.1214	7766.58	4.1030	4.1031	0.8072	24.95	0.49	0.750			
0.1237	7917.55	4.1000	4.1000	0.7960	24.95	0.49	0.750			
0.1261	8070.40	4.0970	4.0969	0.8016	24.95	0.49	0.750			
0.1285	8223.54	4.0940	4.0940	0.8021	24.95	0.49	0.750			
0.1309	8380.27	4.0910	4.0911	0.7961	24.95	0.49	0.750			
0.1333	8533.72	4.0880	4.0881	0.8092	24.96	0.50	0.750			
0.1358	8689.73	4.0850	4.0850	0.8154	24.96	0.50	0.750			
0.1382	8845.30	4.0820	4.0817	0.8149	24.96	0.50	0.750			
0.1406	9000.97	4.0790	4.0792	0.8213	24.96	0.50	0.750			
0.1432	9163.45	4.0760	4.0761	0.8120	24.96	0.50	0.750			
0.1456	9317.07	4.0730	4.0730	0.8172	24.96	0.50	0.750			
0.1480	9473.19	4.0700	4.0701	0.8254	24.96	0.50	0.750			
0.1504	9627.12	4.0670	4.0673	0.8247	24.96	0.50	0.750			
0.1529	9786.62	4.0640	4.0643	0.8368	24.96	0.50	0.750			
0.1555	9949.66	4.0610	4.0611	0.8438	24.96	0.50	0.750			
0.1580	10113.59	4.0580	4.0582	0.8506	24.97	0.51	0.750			
0.1607	10285.31	4.0550	4.0550	0.8598	24.97	0.51	0.750			
0.1632	10443.87	4.0520	4.0519	0.8416	24.97	0.51	0.750			
0.1657	10604.52	4.0490	4.0491	0.8440	24.97	0.51	0.750			
0.1683	10770.56	4.0460	4.0459	0.8318	24.97	0.51	0.750			
0.1707	10927.02	4.0430	4.0430	0.8448	24.98	0.52	0.750			
0.1733	11089.81	4.0400	4.0402	0.8494	24.98	0.52	0.750			
0.1758	11252.29	4.0370	4.0366	0.8530	24.98	0.52	0.750			
0.1784	11417.02	4.0340	4.0341	0.8569	24.98	0.52	0.750			
0.1810	11582.00	4.0310	4.0312	0.8564	24.99	0.53	0.750			
0.1835	11745.91	4.0280	4.0281	0.8627	24.99	0.53	0.750			
0.1861	11912.51	4.0250	4.0250	0.8586	25.00	0.54	0.750			
0.1887	12077.54	4.0220	4.0213	0.8681	25.00	0.54	0.750			
0.1913	12245.58	4.0190	4.0191	0.8744	25.00	0.54	0.750			
0.1940	12414.95	4.0160	4.0160	0.8786	25.00	0.54	0.750			
0.1967	12586.08	4.0130	4.0130	0.8852	25.01	0.55	0.750			
0.1993	12756.95	4.0100	4.0099	0.8836	25.01	0.55	0.750			
0.2019	12923.97	4.0070	4.0071	0.8805	25.01	0.55	0.750			
0.2046	13095.71	4.0040	4.0039	0.8723	25.01	0.55	0.750			
0.2072	13261.37	4.0010	4.0011	0.8772	25.01	0.55	0.750			
0.2098	13428.73	3.9980	3.9980	0.8852	25.02	0.56	0.750			
0.2125	13598.43	3.9950	3.9951	0.8910	25.02	0.56	0.750			
0.2152	13770.16	3.9920	3.9922	0.8933	25.02	0.56	0.750			
0.2180	13949.00	3.9890	3.9889	0.8772	25.03	0.57	0.750			
0.2205	14113.28	3.9860	3.9861	0.8889	25.03	0.57	0.750			
0.2232	14282.90	3.9830	3.9831	0.9026	25.04	0.58	0.750			
0.2258	14453.26	3.9800	3.9796	0.9021	25.04	0.58	0.750			
0.2286	14628.19	3.9770	3.9772	0.9058	25.04	0.58	0.750			
0.2313	14803.98	3.9740	3.9742	0.9163	25.04	0.58	0.750			
0.2341	14982.60	3.9710	3.9711	0.9245	25.04	0.58	0.750			
0.2370	15166.38	3.9680	3.9680	0.9314	25.04	0.58	0.750			
0.2396	15337.02	3.9650	3.9649	0.9119	25.04	0.58	0.750			
0.2424	15513.77	3.9620	3.9621	0.9102	25.04	0.58	0.750			
0.2451	15689.08	3.9590	3.9590	0.9161	25.05	0.59	0.750			
0.2479	15863.95	3.9560	3.9560	0.9190	25.05	0.59	0.750			
0.2506	16039.10	3.9530	3.9528	0.9223	25.05	0.59	0.750			
0.2534	16217.21	3.9500	3.9501	0.9272	25.05	0.59	0.750			
0.2562	16396.95	3.9470	3.9470	0.9169	25.05	0.59	0.750			
0.2589	16571.28	3.9440	3.9442	0.9200	25.06	0.60	0.750			
0.2616	16744.55	3.9410	3.9412	0.9226	25.06	0.60	0.750			
0.2644	16921.55	3.9380	3.9377	0.9348	25.06	0.60	0.750			
0.2672	17101.59	3.9350	3.9353	0.9395	25.06	0.60	0.750			
0.2701	17284.59	3.9320	3.9321	0.9489	25.07	0.61	0.750			
0.2730	17474.08	3.9290	3.9290	0.9603	25.07	0.61	0.750			
0.2760	17663.86	3.9260	3.9259	0.9621	25.07	0.61	0.750			
0.2788	17841.29	3.9230	3.9229	0.9387	25.07	0.61	0.750			
0.2815	18019.12	3.9200	3.9200	0.9436	25.07	0.61	0.750			
0.2844	18198.75	3.9170	3.9171	0.9441	25.07	0.61	0.750			
0.2872	18380.04	3.9140	3.9142	0.9518	25.07	0.61	0.750			
0.2901	18563.62	3.9110	3.9109	0.9545	25.07	0.61	0.750			
0.2929	18746.85	3.9080	3.9081	0.9433	25.07	0.61	0.750			
0.2957	18927.28	3.9050	3.9052	0.9485	25.07	0.61	0.750			
0.2986	19107.56	3.9020	3.9022	0.9595	25.07	0.61	0.750			
0.3014	19290.44	3.8990	3.8984	0.9628	25.07	0.61	0.750			
0.3043	19476.20	3.8960	3.8962	0.9684	25.07	0.61	0.750			
0.3073	19664.66	3.8930	3.8931	0.9763	25.07	0.61	0.750			
0.3103	19859.23	3.8900	3.8901	0.9887	25.08	0.62	0.750			
0.3133	20051.27	3.8870	3.8868	0.9962	25.08	0.62	0.750			
0.3162	20238.73	3.8840	3.8840	0.9663	25.08	0.62	0.750			
0.3191	20420.75	3.8810	3.8810	0.9699	25.07	0.61	0.750			
0.3220	20605.65	3.8780	3.8781	0.9739	25.07	0.61	0.750			
0.3249	20791.46	3.8750	3.8752	0.9780	25.06	0.60	0.750			
0.3278	20980.07	3.8720	3.8721	0.9866	25.06	0.60	0.750			
0.3308	21171.89	3.8690	3.8691	0.9792	25.06	0.60	0.750			
0.3337	21356.35	3.8660	3.8662	0.9913	25.05	0.59	0.750			
0.3367	21549.89	3.8630	3.8631	1.0059	25.05	0.59	0.750			
0.3397	21740.20	3.8600	3.8602	0.9977	25.05	0.59	0.750			
0.3427	21933.19	3.8570	3.8571	1.0098	25.04	0.58	0.750			
0.3458	22129.06	3.8540	3.8542	1.0193	25.03	0.57	0.750			
0.3489	22329.67	3.8510	3.8511	1.0279	25.03	0.57	0.750			
0.3520	22525.38	3.8480	3.8480	1.0219	25.02	0.56	0.750			
0.3550	22722.36	3.8450	3.8450	1.0123	25.01	0.55	0.750			
0.3581	22918.77	3.8420	3.8420	1.0131	25.00	0.54	0.750			
0.3611	23108.73	3.8390	3.8392	1.0383	24.99	0.53	0.750			
0.3643	23312.18	3.8360	3.8355	1.0418	24.98	0.52	0.750			
0.3674	23510.66	3.8330	3.8331	1.0609	24.97	0.51	0.750	0.316	0.419	
0.3706	23716.95	3.8300	3.8305	1.0750	24.97	0.51	0.750			
0.3739	23928.81	3.8270	3.8272	1.0871	24.96	0.50	0.750			
0.3772	24139.34	3.8240	3.8238	1.0793	24.96	0.50	0.750			
0.3804	24348.74	3.8210	3.8213	1.0819	24.95	0.49	0.750			
0.3836	24551.94	3.8180	3.8181	1.0768	24.94	0.48	0.750			
0.3869	24760.10	3.8150	3.8151	1.0816	24.93	0.47	0.750			
0.3901	24967.93	3.8120	3.8119	1.0672	24.92	0.46	0.750			
0.3933	25172.42	3.8090	3.8090	1.0751	24.91	0.45	0.750			
0.3965	25377.88	3.8060	3.8061	1.0803	24.89	0.43	0.750			
0.3998	25586.31	3.8030	3.8031	1.0907	24.88	0.42	0.750			
0.4030	25794.48	3.8000	3.8000	1.0977	24.87	0.41	0.750			
0.4063	26000.06	3.7970	3.7971	1.0909	24.86	0.40	0.750			
0.4095	26209.96	3.7940	3.7942	1.1106	24.85	0.39	0.750			
0.4129	26425.47	3.7910	3.7909	1.1328	24.84	0.38	0.750			
0.4163	26642.56	3.7880	3.7882	1.1451	24.83	0.37	0.750			
0.4197	26863.14	3.7850	3.7851	1.1685	24.82	0.36	0.750			
0.4233	27092.40	3.7820	3.7821	1.1914	24.81	0.35	0.750			
0.4271	27334.44	3.7790	3.7789	1.2058	24.80	0.34	0.750			
0.4305	27554.19	3.7760	3.7760	1.2093	24.79	0.33	0.750			
0.4342	27788.13	3.7730	3.7731	1.2277	24.77	0.31	0.750			
0.4379	28024.41	3.7700	3.7698	1.2540	24.76	0.30	0.750			
0.4416	28264.94	3.7670	3.7671	1.2580	24.75	0.29	0.750			
0.4454	28503.27	3.7640	3.7642	1.2892	24.74	0.28	0.750			
0.4493	28754.01	3.7610	3.7612	1.3270	24.73	0.27	0.750			
0.4534	29018.11	3.7580	3.7582	1.3308	24.71	0.25	0.750			
0.4574	29271.15	3.7550	3.7552	1.4199	24.71	0.25	0.750			
0.4617	29547.33	3.7520	3.7521	1.4895	24.69	0.23	0.750			
0.4664	29850.66	3.7490	3.7487	1.5219	24.68	0.22	0.750			
0.4711	30149.83	3.7460	3.7465	1.5514	24.66	0.20	0.750			
0.4759	30456.48	3.7430	3.7430	1.5877	24.64	0.18	0.750			
0.4808	30771.14	3.7400	3.7402	1.6181	24.63	0.17	0.750			
0.4856	31078.04	3.7370	3.7371	1.6512	24.62	0.16	0.750			
0.4904	31385.21	3.7340	3.7342	1.6631	24.60	0.14	0.750			
0.4954	31708.05	3.7310	3.7313	1.7132	24.59	0.13	0.750			
0.5008	32052.85	3.7280	3.7280	1.7796	24.57	0.11	0.750			
0.5062	32396.25	3.7250	3.7250	1.8186	24.56	0.10	0.750			
0.5118	32753.88	3.7220	3.7220	1.8819	24.54	0.08	0.750			
0.5176	33124.08	3.7190	3.7191	1.9110	24.53	0.07	0.750			
0.5232	33483.79	3.7160	3.7163	1.9673	24.51	0.05	0.750			
0.5292	33866.74	3.7130	3.7132	2.0182	24.49	0.03	0.750			
0.5353	34262.00	3.7100	3.7098	2.0495	24.48	0.02	0.750			
0.5415	34657.80	3.7070	3.7073	2.1115	24.46	0.00	0.750			
0.5480	35072.52	3.7040	3.7043	2.1553	24.45	-0.01	0.750			
0.5546	35493.57	3.7010	3.7007	2.2119	24.43	-0.03	0.750			
0.5612	35914.69	3.6980	3.6984	2.2828	24.42	-0.04	0.750			
0.5682	36365.63	3.6950	3.6952	2.3678	24.40	-0.06	0.750			
0.5754	36824.08	3.6920	3.6920	2.4404	24.38	-0.08	0.750			
0.5829	37306.38	3.6890	3.6888	2.5210	24.37	-0.09	0.750			
0.5905	37789.65	3.6860	3.6859	2.6317	24.36	-0.10	0.750			
0.5986	38310.23	3.6830	3.6829	2.6697	24.35	-0.11	0.750			
0.6067	38829.64	3.6800	3.6801	2.7540	24.35	-0.11	0.750			
0.6150	39360.23	3.6770	3.6770	2.7702	24.34	-0.12	0.750			
0.6235	39903.72	3.6740	3.6742	2.7946	24.32	-0.14	0.750			
0.6320	40449.50	3.6710	3.6709	2.8455	24.32	-0.14	0.750			
0.6407	41005.48	3.6680	3.6679	2.8135	24.32	-0.14	0.750			
0.6492	41550.61	3.6650	3.6649	2.8174	24.33	-0.13	0.750			
0.6579	42104.69	3.6620	3.6617	2.7324	24.34	-0.12	0.750			
0.6657	42602.56	3.6590	3.6590	2.4382	24.34	-0.12	0.750			
0.6725	43041.13	3.6560	3.6563	2.1884	24.35	-0.11	0.750			
0.6787	43434.06	3.6530	3.6530	1.9715	24.36	-0.10	0.750			
0.6841	43784.77	3.6500	3.6499	1.7643	24.37	-0.09	0.750			
0.6891	44103.30	3.6470	3.6471	1.5926	24.38	-0.08	0.750			
0.6937	44395.47	3.6440	3.6442	1.4402	24.39	-0.07	0.750			
0.6977	44654.68	3.6410	3.6410	1.2935	24.39	-0.07	0.750			
0.7014	44886.78	3.6380	3.6379	1.1599	24.40	-0.06	0.750			
0.7044	45079.00	3.6350	3.6351	1.0419	24.41	-0.05	0.750			
0.7073	45265.08	3.6320	3.6320	0.9608	24.41	-0.05	0.750			
0.7099	45432.78	3.6290	3.6291	0.9243	24.41	-0.05	0.750			
0.7126	45605.83	3.6260	3.6261	0.9040	24.42	-0.04	0.750			
0.7152	45774.63	3.6230	3.6231	0.8816	24.42	-0.04	0.750			
0.7179	45944.18	3.6200	3.6202	0.8643	24.43	-0.03	0.750			
0.7205	46115.00	3.6170	3.6170	0.8367	24.44	-0.02	0.750			
0.7231	46280.83	3.6140	3.6140	0.8000	24.45	-0.01	0.750			
0.7254	46427.05	3.6110	3.6109	0.7281	24.46	-0.00	0.750			
0.7275	46562.79	3.6080	3.6081	0.6623	24.46	0.00	0.750			
0.7295	46685.71	3.6050	3.6050	0.5944	24.47	0.01	0.750			
0.7311	46793.46	3.6020	3.6020	0.5167	24.48	0.02	0.750			
0.7325	46882.74	3.5990	3.5991	0.4512	24.48	0.02	0.750			
0.7338	46960.12	3.5960	3.5960	0.3866	24.48	0.02	0.750			
0.7348	47027.21	3.5930	3.5931	0.3253	24.49	0.03	0.750			
0.7357	47083.81	3.5900	3.5903	0.2711	24.49	0.03	0.750			
0.7364	47130.64	3.5870	3.5874	0.2200	24.49	0.03	0.750			
0.7370	47167.77	3.5840	3.5843	0.1699	24.49	0.03	0.750			
0.7374	47195.60	3.5810	3.5814	0.1189	24.50	0.04	0.750			
