Ah_balance (normalized)	Ah_balance (mAh)	Voltage - fit (V)	Voltage -  interpolate (V)	dQ/dV (1/V)	Temperature (°C)	Temperature - diff (°C)	Current (C)	R_DC 0ms (mOhm)	R_DC 50ms (mOhm)	R_DC 50 ms PEC (mOhm)
0.0002	14.96	4.1590	4.1590	-0.1136	25.50	0.02	-0.750			
0.0006	40.74	4.1560	4.1562	-0.1574	25.50	0.02	-0.750			
0.0012	76.39	4.1530	4.1529	-0.2003	25.50	0.02	-0.750			
0.0019	119.62	4.1500	4.1501	-0.2378	25.50	0.02	-0.750			
0.0026	169.04	4.1470	4.1470	-0.2742	25.50	0.02	-0.750			
0.0035	226.25	4.1440	4.1440	-0.3098	25.49	0.01	-0.750			
0.0045	287.90	4.1410	4.1411	-0.3490	25.49	0.01	-0.750			
0.0056	358.14	4.1380	4.1380	-0.3803	25.49	0.01	-0.750			
0.0068	434.08	4.1350	4.1350	-0.4164	25.49	0.01	-0.750			
0.0081	518.26	4.1320	4.1318	-0.4512	25.48	0.00	-0.750			
0.0095	609.35	4.1290	4.1298	-0.4832	25.48	0.00	-0.750			
0.0110	705.62	4.1260	4.1260	-0.5100	25.48	-0.00	-0.750			
0.0126	807.63	4.1230	4.1231	-0.5389	25.47	-0.01	-0.750			
0.0143	913.56	4.1200	4.1199	-0.5605	25.47	-0.01	-0.750			
0.0160	1025.40	4.1170	4.1170	-0.5817	25.46	-0.02	-0.750			
0.0178	1138.84	4.1140	4.1140	-0.5928	25.46	-0.02	-0.750			
0.0196	1255.10	4.1110	4.1110	-0.6094	25.46	-0.02	-0.750			
0.0215	1374.20	4.1080	4.1080	-0.6164	25.45	-0.03	-0.750			
0.0233	1492.38	4.1050	4.1049	-0.6290	25.45	-0.03	-0.750			
0.0252	1613.23	4.1020	4.1020	-0.6368	25.45	-0.03	-0.750			
0.0271	1736.41	4.0990	4.0990	-0.6543	25.45	-0.03	-0.750			
0.0292	1866.09	4.0960	4.0959	-0.6621	25.44	-0.04	-0.750			
0.0312	1994.70	4.0930	4.0929	-0.6768	25.44	-0.04	-0.750			
0.0332	2125.73	4.0900	4.0896	-0.6814	25.44	-0.04	-0.750			
0.0353	2259.58	4.0870	4.0868	-0.6871	25.44	-0.04	-0.750			
0.0373	2389.92	4.0840	4.0838	-0.6855	25.44	-0.04	-0.750			
0.0394	2520.88	4.0810	4.0809	-0.6866	25.44	-0.04	-0.750			
0.0415	2657.35	4.0780	4.0779	-0.7061	25.43	-0.05	-0.750			
0.0436	2792.60	4.0750	4.0748	-0.7022	25.43	-0.05	-0.750			
0.0457	2923.86	4.0720	4.0719	-0.7015	25.43	-0.05	-0.750			
0.0478	3061.04	4.0690	4.0689	-0.7092	25.43	-0.05	-0.750			
0.0500	3198.16	4.0660	4.0658	-0.7080	25.43	-0.05	-0.750			
0.0521	3333.60	4.0630	4.0628	-0.7051	25.43	-0.05	-0.750			
0.0541	3465.36	4.0600	4.0598	-0.7023	25.43	-0.05	-0.750			
0.0563	3605.06	4.0570	4.0568	-0.7133	25.43	-0.05	-0.750			
0.0584	3736.92	4.0540	4.0540	-0.7232	25.43	-0.05	-0.750			
0.0605	3874.61	4.0510	4.0510	-0.7254	25.43	-0.05	-0.750			
0.0627	4015.39	4.0480	4.0481	-0.7499	25.43	-0.05	-0.750			
0.0651	4167.09	4.0450	4.0448	-0.7594	25.43	-0.05	-0.750			
0.0674	4316.70	4.0420	4.0418	-0.7547	25.43	-0.05	-0.750			
0.0697	4462.02	4.0390	4.0385	-0.7500	25.43	-0.05	-0.750			
0.0720	4606.29	4.0360	4.0366	-0.7417	25.43	-0.05	-0.750			
0.0741	4744.08	4.0330	4.0327	-0.7317	25.43	-0.05	-0.750			
0.0762	4879.07	4.0300	4.0299	-0.7388	25.43	-0.05	-0.750			
0.0784	5018.94	4.0270	4.0269	-0.7453	25.44	-0.04	-0.750			
0.0808	5169.71	4.0240	4.0238	-0.7571	25.44	-0.04	-0.750			
0.0831	5316.16	4.0210	4.0207	-0.7565	25.44	-0.04	-0.750			
0.0853	5461.01	4.0180	4.0179	-0.7549	25.44	-0.04	-0.750			
0.0877	5609.81	4.0150	4.0148	-0.7562	25.44	-0.04	-0.750			
0.0899	5751.90	4.0120	4.0116	-0.7529	25.44	-0.04	-0.750			
0.0920	5890.61	4.0090	4.0089	-0.7485	25.44	-0.04	-0.750			
0.0944	6039.39	4.0060	4.0059	-0.7530	25.44	-0.04	-0.750			
0.0967	6187.84	4.0030	4.0026	-0.7601	25.44	-0.04	-0.750			
0.0989	6331.61	4.0000	3.9997	-0.7647	25.44	-0.04	-0.750			
0.1013	6480.68	3.9970	3.9968	-0.7748	25.44	-0.04	-0.750			
0.1036	6631.28	3.9940	3.9936	-0.7737	25.45	-0.03	-0.750			
0.1060	6781.75	3.9910	3.9905	-0.7677	25.45	-0.03	-0.750			
0.1082	6924.52	3.9880	3.9878	-0.7520	25.45	-0.03	-0.750			
0.1105	7070.76	3.9850	3.9849	-0.7573	25.45	-0.03	-0.750			
0.1128	7218.59	3.9820	3.9819	-0.7630	25.45	-0.03	-0.750			
0.1150	7358.86	3.9790	3.9789	-0.7678	25.45	-0.03	-0.750			
0.1173	7505.97	3.9760	3.9760	-0.7756	25.46	-0.02	-0.750			
0.1197	7661.00	3.9730	3.9728	-0.8032	25.46	-0.02	-0.750			
0.1222	7819.18	3.9700	3.9706	-0.8102	25.46	-0.02	-0.750			
0.1247	7979.53	3.9670	3.9666	-0.8056	25.46	-0.02	-0.750			
0.1271	8133.56	3.9640	3.9634	-0.8036	25.46	-0.02	-0.750			
0.1295	8284.81	3.9610	3.9605	-0.7972	25.47	-0.01	-0.750			
0.1319	8443.71	3.9580	3.9571	-0.7874	25.47	-0.01	-0.750			
0.1342	8587.60	3.9550	3.9546	-0.7692	25.47	-0.01	-0.750			
0.1365	8733.98	3.9520	3.9516	-0.7657	25.47	-0.01	-0.750			
0.1388	8881.63	3.9490	3.9486	-0.7873	25.47	-0.01	-0.750			
0.1412	9036.42	3.9460	3.9458	-0.7879	25.48	-0.00	-0.750			
0.1436	9187.26	3.9430	3.9427	-0.7960	25.48	-0.00	-0.750			
0.1459	9339.84	3.9400	3.9396	-0.8041	25.48	-0.00	-0.750			
0.1484	9499.08	3.9370	3.9363	-0.8103	25.48	0.00	-0.750			
0.1508	9652.67	3.9340	3.9336	-0.8034	25.49	0.01	-0.750			
0.1532	9803.18	3.9310	3.9305	-0.7932	25.49	0.01	-0.750			
0.1555	9953.30	3.9280	3.9277	-0.7798	25.49	0.01	-0.750			
0.1579	10105.77	3.9250	3.9248	-0.7920	25.50	0.02	-0.750			
0.1603	10257.74	3.9220	3.9218	-0.7934	25.50	0.02	-0.750			
0.1626	10408.77	3.9190	3.9187	-0.7827	25.50	0.02	-0.750			
0.1650	10558.85	3.9160	3.9158	-0.7948	25.50	0.02	-0.750			
0.1673	10709.77	3.9130	3.9130	-0.8069	25.51	0.03	-0.750			
0.1698	10868.50	3.9100	3.9096	-0.8161	25.51	0.03	-0.750			
0.1723	11030.29	3.9070	3.9067	-0.8081	25.51	0.03	-0.750			
0.1747	11181.51	3.9040	3.9036	-0.7958	25.51	0.03	-0.750			
0.1771	11335.44	3.9010	3.9005	-0.8029	25.52	0.04	-0.750			
0.1796	11491.86	3.8980	3.8975	-0.7968	25.52	0.04	-0.750			
0.1819	11639.74	3.8950	3.8945	-0.7720	25.53	0.05	-0.750			
0.1842	11785.93	3.8920	3.8927	-0.7781	25.53	0.05	-0.750			
0.1866	11939.29	3.8890	3.8903	-0.7775	25.53	0.05	-0.750			
0.1889	12089.68	3.8860	3.8857	-0.7905	25.53	0.05	-0.750			
0.1912	12237.01	3.8830	3.8828	-0.7715	25.54	0.06	-0.750			
0.1936	12389.97	3.8800	3.8796	-0.7763	25.54	0.06	-0.750			
0.1959	12537.12	3.8770	3.8767	-0.7719	25.54	0.06	-0.750			
0.1983	12688.21	3.8740	3.8738	-0.7723	25.54	0.06	-0.750			
0.2004	12828.49	3.8710	3.8709	-0.7709	25.54	0.06	-0.750			
0.2029	12982.93	3.8680	3.8679	-0.7769	25.54	0.06	-0.750			
0.2052	13130.36	3.8650	3.8649	-0.7798	25.55	0.07	-0.750			
0.2077	13289.70	3.8620	3.8615	-0.7846	25.55	0.07	-0.750			
0.2100	13438.59	3.8590	3.8585	-0.7731	25.55	0.07	-0.750			
0.2123	13584.30	3.8560	3.8555	-0.7585	25.55	0.07	-0.750			
0.2145	13727.64	3.8530	3.8526	-0.7525	25.56	0.08	-0.750			
0.2167	13869.22	3.8500	3.8494	-0.7456	25.56	0.08	-0.750			
0.2190	14013.09	3.8470	3.8468	-0.7438	25.57	0.09	-0.750			
0.2212	14153.64	3.8440	3.8445	-0.7457	25.57	0.09	-0.750			
0.2234	14299.45	3.8410	3.8408	-0.7461	25.57	0.09	-0.750			
0.2256	14438.64	3.8380	3.8381	-0.7643	25.58	0.10	-0.750			
0.2280	14589.17	3.8350	3.8348	-0.7662	25.58	0.10	-0.750			
0.2303	14736.01	3.8320	3.8319	-0.7597	25.58	0.10	-0.750			
0.2327	14891.19	3.8290	3.8284	-0.7603	25.59	0.11	-0.750			
0.2350	15037.44	3.8260	3.8260	-0.7545	25.59	0.11	-0.750			
0.2372	15179.65	3.8230	3.8223	-0.7356	25.59	0.11	-0.750			
0.2393	15317.08	3.8200	3.8196	-0.7360	25.59	0.11	-0.750			
0.2415	15453.42	3.8170	3.8182	-0.7308	25.59	0.11	-0.750			
0.2437	15599.89	3.8140	3.8137	-0.7468	25.59	0.11	-0.750			
0.2460	15744.43	3.8110	3.8106	-0.7552	25.59	0.11	-0.750			
0.2483	15890.97	3.8080	3.8076	-0.7530	25.59	0.11	-0.750			
0.2505	16034.20	3.8050	3.8048	-0.7467	25.59	0.11	-0.750			
0.2528	16180.28	3.8020	3.8018	-0.7572	25.59	0.11	-0.750			
0.2550	16322.36	3.7990	3.7989	-0.7657	25.60	0.12	-0.750			
0.2573	16468.74	3.7960	3.7958	-0.7648	25.60	0.12	-0.750			
0.2597	16619.98	3.7930	3.7935	-0.7796	25.60	0.12	-0.750			
0.2620	16769.69	3.7900	3.7897	-0.7694	25.60	0.12	-0.750			
0.2644	16920.12	3.7870	3.7868	-0.7934	25.60	0.12	-0.750			
0.2667	17070.80	3.7840	3.7835	-0.7948	25.61	0.13	-0.750			
0.2692	17226.45	3.7810	3.7805	-0.7832	25.61	0.13	-0.750			
0.2715	17378.75	3.7780	3.7777	-0.7940	25.61	0.13	-0.750			
0.2740	17533.85	3.7750	3.7744	-0.8024	25.61	0.13	-0.750			
0.2764	17687.06	3.7720	3.7714	-0.7989	25.61	0.13	-0.750			
0.2788	17840.85	3.7690	3.7683	-0.7988	25.61	0.13	-0.750			
0.2811	17991.82	3.7660	3.7668	-0.7889	25.61	0.13	-0.750			
0.2835	18141.04	3.7630	3.7626	-0.7970	25.61	0.13	-0.750			
0.2858	18292.98	3.7600	3.7597	-0.8124	25.61	0.13	-0.750			
0.2882	18445.64	3.7570	3.7567	-0.8251	25.61	0.13	-0.750			
0.2908	18610.52	3.7540	3.7536	-0.8338	25.61	0.13	-0.750			
0.2934	18777.53	3.7510	3.7504	-0.8347	25.61	0.13	-0.750			
0.2959	18939.77	3.7480	3.7474	-0.8278	25.61	0.13	-0.750			
0.2984	19097.31	3.7450	3.7442	-0.8450	25.61	0.13	-0.750			
0.3009	19256.62	3.7420	3.7418	-0.8489	25.60	0.12	-0.750			
0.3033	19412.45	3.7390	3.7388	-0.8562	25.60	0.12	-0.750			
0.3059	19579.01	3.7360	3.7358	-0.8816	25.60	0.12	-0.750			
0.3088	19762.80	3.7330	3.7331	-0.8996	25.59	0.11	-0.750			
0.3115	19935.84	3.7300	3.7294	-0.9026	25.59	0.11	-0.750			
0.3142	20110.74	3.7270	3.7265	-0.9022	25.59	0.11	-0.750			
0.3168	20277.43	3.7240	3.7235	-0.8902	25.59	0.11	-0.750			
0.3195	20449.83	3.7210	3.7205	-0.8968	25.59	0.11	-0.750			
0.3222	20620.11	3.7180	3.7177	-0.9192	25.59	0.11	-0.750			
0.3250	20799.07	3.7150	3.7146	-0.9346	25.59	0.11	-0.750			
0.3278	20982.35	3.7120	3.7116	-0.9609	25.58	0.10	-0.750			
0.3308	21169.59	3.7090	3.7085	-0.9883	25.58	0.10	-0.750			
0.3338	21362.99	3.7060	3.7058	-0.9775	25.57	0.09	-0.750			
0.3367	21551.99	3.7030	3.7024	-0.9921	25.57	0.09	-0.750			
0.3398	21746.57	3.7000	3.6994	-1.0144	25.56	0.08	-0.750			
0.3428	21938.12	3.6970	3.6979	-1.0000	25.56	0.08	-0.750	0.373	0.529	
0.3458	22133.75	3.6940	3.6937	-1.0257	25.55	0.07	-0.750			
0.3488	22325.82	3.6910	3.6905	-1.0355	25.55	0.07	-0.750			
0.3520	22524.93	3.6880	3.6876	-1.0563	25.54	0.06	-0.750			
0.3552	22735.80	3.6850	3.6844	-1.0630	25.54	0.06	-0.750			
0.3584	22940.09	3.6820	3.6813	-1.0740	25.53	0.05	-0.750			
0.3618	23153.72	3.6790	3.6783	-1.0917	25.53	0.05	-0.750			
0.3651	23366.84	3.6760	3.6754	-1.1137	25.53	0.05	-0.750			
0.3684	23578.41	3.6730	3.6724	-1.1024	25.53	0.05	-0.750			
0.3717	23786.67	3.6700	3.6709	-1.1355	25.53	0.05	-0.750			
0.3752	24010.28	3.6670	3.6665	-1.1376	25.52	0.04	-0.750			
0.3785	24222.41	3.6640	3.6637	-1.1799	25.51	0.03	-0.750			
0.3820	24449.37	3.6610	3.6624	-1.2006	25.51	0.03	-0.750			
0.3857	24687.27	3.6580	3.6579	-1.2235	25.50	0.02	-0.750			
0.3896	24932.39	3.6550	3.6543	-1.2299	25.49	0.01	-0.750			
0.3933	25170.39	3.6520	3.6515	-1.2724	25.48	-0.00	-0.750			
0.3971	25414.75	3.6490	3.6485	-1.3010	25.47	-0.01	-0.750			
0.4012	25678.58	3.6460	3.6453	-1.2978	25.47	-0.01	-0.750			
0.4049	25914.31	3.6430	3.6424	-1.3182	25.46	-0.02	-0.750			
0.4089	26172.71	3.6400	3.6402	-1.3537	25.46	-0.02	-0.750			
0.4130	26433.92	3.6370	3.6364	-1.3669	25.45	-0.03	-0.750			
0.4172	26700.72	3.6340	3.6331	-1.3988	25.45	-0.03	-0.750			
0.4214	26966.41	3.6310	3.6304	-1.3872	25.44	-0.04	-0.750			
0.4256	27238.94	3.6280	3.6273	-1.4230	25.44	-0.04	-0.750			
0.4301	27526.42	3.6250	3.6242	-1.4343	25.43	-0.05	-0.750			
0.4343	27794.48	3.6220	3.6214	-1.4677	25.43	-0.05	-0.750			
0.4387	28074.39	3.6190	3.6185	-1.5100	25.42	-0.06	-0.750			
0.4433	28369.27	3.6160	3.6156	-1.5661	25.41	-0.07	-0.750			
0.4480	28670.31	3.6130	3.6126	-1.6621	25.40	-0.08	-0.750			
0.4530	28993.27	3.6100	3.6092	-1.7064	25.40	-0.08	-0.750			
0.4584	29338.15	3.6070	3.6061	-1.7684	25.40	-0.08	-0.750			
0.4638	29682.39	3.6040	3.6042	-1.7880	25.39	-0.09	-0.750			
0.4696	30052.01	3.6010	3.6010	-1.8485	25.38	-0.10	-0.750			
0.4750	30400.37	3.5980	3.5976	-1.8382	25.38	-0.10	-0.750			
0.4805	30752.46	3.5950	3.5945	-1.8245	25.37	-0.11	-0.750			
0.4859	31097.03	3.5920	3.5916	-1.8072	25.37	-0.11	-0.750			
0.4915	31452.86	3.5890	3.5886	-1.8478	25.37	-0.11	-0.750			
0.4969	31801.85	3.5860	3.5863	-1.8374	25.37	-0.11	-0.750			
0.5024	32152.33	3.5830	3.5831	-1.8566	25.36	-0.12	-0.750			
0.5080	32509.99	3.5800	3.5802	-1.9033	25.35	-0.13	-0.750			
0.5137	32879.56	3.5770	3.5769	-1.9070	25.35	-0.13	-0.750			
0.5197	33258.45	3.5740	3.5740	-1.9556	25.36	-0.12	-0.750			
0.5257	33644.25	3.5710	3.5709	-1.9607	25.36	-0.12	-0.750			
0.5317	34026.78	3.5680	3.5678	-1.9883	25.35	-0.13	-0.750			
0.5376	34406.55	3.5650	3.5646	-2.0010	25.35	-0.13	-0.750			
0.5437	34796.88	3.5620	3.5617	-1.9916	25.35	-0.13	-0.750			
0.5496	35176.55	3.5590	3.5593	-1.9786	25.35	-0.13	-0.750			
0.5557	35562.22	3.5560	3.5562	-1.9844	25.35	-0.13	-0.750			
0.5616	35940.64	3.5530	3.5526	-1.9561	25.35	-0.13	-0.750			
0.5674	36311.39	3.5500	3.5496	-1.9493	25.36	-0.12	-0.750			
0.5733	36690.16	3.5470	3.5470	-1.8800	25.36	-0.12	-0.750			
0.5788	37043.16	3.5440	3.5442	-1.8692	25.37	-0.11	-0.750			
0.5842	37388.51	3.5410	3.5418	-1.8044	25.37	-0.11	-0.750			
0.5895	37725.34	3.5380	3.5384	-1.7835	25.37	-0.11	-0.750			
0.5948	38068.01	3.5350	3.5353	-1.8064	25.38	-0.10	-0.750			
0.6002	38415.98	3.5320	3.5323	-1.8109	25.39	-0.09	-0.750			
0.6060	38781.98	3.5290	3.5295	-1.7866	25.40	-0.08	-0.750			
0.6112	39114.17	3.5260	3.5253	-1.7405	25.41	-0.07	-0.750			
0.6164	39448.53	3.5230	3.5226	-1.7522	25.43	-0.05	-0.750			
0.6215	39775.28	3.5200	3.5198	-1.7548	25.44	-0.04	-0.750			
0.6268	40112.22	3.5170	3.5175	-1.6826	25.46	-0.02	-0.750			
0.6318	40438.00	3.5140	3.5139	-1.6551	25.47	-0.01	-0.750			
0.6370	40768.34	3.5110	3.5111	-1.5935	25.49	0.01	-0.750			
0.6418	41074.67	3.5080	3.5085	-1.5776	25.50	0.02	-0.750			
0.6465	41376.60	3.5050	3.5056	-1.5157	25.52	0.04	-0.750			
0.6508	41651.40	3.5020	3.5012	-1.4302	25.53	0.05	-0.750			
0.6550	41917.78	3.4990	3.4985	-1.3809	25.55	0.07	-0.750			
0.6591	42181.05	3.4960	3.4957	-1.3618	25.56	0.08	-0.750			
0.6631	42437.24	3.4930	3.4928	-1.3222	25.57	0.09	-0.750			
0.6669	42682.63	3.4900	3.4898	-1.2583	25.59	0.11	-0.750			
0.6707	42923.70	3.4870	3.4874	-1.2497	25.60	0.12	-0.750			
0.6746	43175.62	3.4840	3.4838	-1.2421	25.62	0.14	-0.750			
0.6783	43411.46	3.4810	3.4809	-1.1932	25.64	0.16	-0.750			
0.6818	43637.92	3.4780	3.4776	-1.1791	25.65	0.17	-0.750			
