Ah_balance (normalized)	Ah_balance (mAh)	Voltage - fit (V)	Voltage -  interpolate (V)	dQ/dV (1/V)	Temperature (°C)	Temperature - diff (°C)	Current (C)	R_DC 0ms (mOhm)	R_DC 50ms (mOhm)	R_DC 50 ms PEC (mOhm)
0.0479	3064.56	4.1990	4.1991	0.7394	25.87	0.48	0.750			
0.0501	3208.06	4.1960	4.1961	0.7523	25.87	0.48	0.750			
0.0524	3352.44	4.1930	4.1930	0.7533	25.87	0.48	0.750			
0.0547	3498.38	4.1900	4.1900	0.7535	25.87	0.48	0.750			
0.0569	3643.88	4.1870	4.1870	0.7540	25.87	0.48	0.750			
0.0592	3786.45	4.1840	4.1840	0.7507	25.87	0.48	0.750			
0.0614	3930.16	4.1810	4.1811	0.7535	25.87	0.48	0.750			
0.0637	4075.06	4.1780	4.1779	0.7549	25.87	0.48	0.750			
0.0660	4222.72	4.1750	4.1749	0.7508	25.87	0.48	0.750			
0.0682	4365.88	4.1720	4.1720	0.7520	25.88	0.49	0.750			
0.0705	4509.97	4.1690	4.1691	0.7552	25.88	0.49	0.750			
0.0727	4654.37	4.1660	4.1661	0.7551	25.88	0.49	0.750			
0.0750	4799.22	4.1630	4.1631	0.7542	25.88	0.49	0.750			
0.0772	4943.13	4.1600	4.1601	0.7534	25.88	0.49	0.750			
0.0795	5088.76	4.1570	4.1571	0.7588	25.88	0.49	0.750			
0.0818	5236.04	4.1540	4.1540	0.7663	25.88	0.49	0.750			
0.0841	5381.13	4.1510	4.1510	0.7644	25.88	0.49	0.750			
0.0864	5528.81	4.1480	4.1477	0.7675	25.88	0.49	0.750			
0.0887	5677.12	4.1450	4.1451	0.7686	25.88	0.49	0.750			
0.0910	5825.53	4.1420	4.1420	0.7700	25.88	0.49	0.750			
0.0933	5973.32	4.1390	4.1391	0.7735	25.87	0.48	0.750			
0.0956	6121.38	4.1360	4.1359	0.7744	25.87	0.48	0.750			
0.0980	6269.77	4.1330	4.1329	0.7719	25.87	0.48	0.750			
0.1003	6418.88	4.1300	4.1301	0.7743	25.87	0.48	0.750			
0.1026	6569.18	4.1270	4.1270	0.7727	25.87	0.48	0.750			
0.1049	6716.72	4.1240	4.1240	0.7717	25.87	0.48	0.750			
0.1072	6862.77	4.1210	4.1210	0.7742	25.88	0.49	0.750			
0.1095	7011.01	4.1180	4.1180	0.7754	25.88	0.49	0.750			
0.1119	7160.71	4.1150	4.1150	0.7770	25.88	0.49	0.750			
0.1142	7311.13	4.1120	4.1121	0.7793	25.88	0.49	0.750			
0.1166	7461.08	4.1090	4.1091	0.7779	25.88	0.49	0.750			
0.1189	7610.50	4.1060	4.1060	0.7790	25.89	0.50	0.750			
0.1212	7757.63	4.1030	4.1031	0.7791	25.89	0.50	0.750			
0.1235	7906.89	4.1000	4.0998	0.7844	25.89	0.50	0.750			
0.1259	8058.73	4.0970	4.0971	0.7917	25.89	0.50	0.750			
0.1283	8212.55	4.0940	4.0940	0.7937	25.89	0.50	0.750			
0.1307	8365.91	4.0910	4.0910	0.8003	25.89	0.50	0.750			
0.1331	8520.42	4.0880	4.0880	0.8011	25.89	0.50	0.750			
0.1355	8673.09	4.0850	4.0850	0.7988	25.89	0.50	0.750			
0.1379	8826.61	4.0820	4.0820	0.7987	25.89	0.50	0.750			
0.1403	8980.84	4.0790	4.0790	0.7957	25.89	0.50	0.750			
0.1427	9132.97	4.0760	4.0760	0.7968	25.90	0.51	0.750			
0.1451	9285.69	4.0730	4.0730	0.8005	25.90	0.51	0.750			
0.1475	9437.54	4.0700	4.0700	0.8015	25.90	0.51	0.750			
0.1499	9592.56	4.0670	4.0670	0.8076	25.90	0.51	0.750			
0.1524	9750.89	4.0640	4.0639	0.8040	25.90	0.51	0.750			
0.1547	9903.85	4.0610	4.0611	0.8090	25.90	0.51	0.750			
0.1572	10060.31	4.0580	4.0580	0.8135	25.91	0.52	0.750			
0.1596	10215.06	4.0550	4.0550	0.8129	25.91	0.52	0.750			
0.1620	10369.73	4.0520	4.0519	0.8157	25.91	0.52	0.750			
0.1645	10527.89	4.0490	4.0491	0.8178	25.91	0.52	0.750			
0.1670	10686.28	4.0460	4.0460	0.8243	25.91	0.52	0.750			
0.1695	10845.29	4.0430	4.0430	0.8300	25.91	0.52	0.750			
0.1719	11004.06	4.0400	4.0400	0.8251	25.91	0.52	0.750			
0.1744	11163.31	4.0370	4.0370	0.8295	25.91	0.52	0.750			
0.1769	11323.98	4.0340	4.0340	0.8287	25.91	0.52	0.750			
0.1794	11482.17	4.0310	4.0310	0.8326	25.91	0.52	0.750			
0.1819	11642.49	4.0280	4.0280	0.8387	25.92	0.53	0.750			
0.1844	11803.22	4.0250	4.0250	0.8404	25.92	0.53	0.750			
0.1869	11964.79	4.0220	4.0219	0.8432	25.92	0.53	0.750			
0.1896	12131.23	4.0190	4.0190	0.8387	25.92	0.53	0.750			
0.1921	12291.34	4.0160	4.0161	0.8440	25.92	0.53	0.750			
0.1946	12453.77	4.0130	4.0130	0.8413	25.93	0.54	0.750			
0.1971	12613.70	4.0100	4.0101	0.8370	25.93	0.54	0.750			
0.1996	12773.42	4.0070	4.0072	0.8362	25.93	0.54	0.750			
0.2021	12933.89	4.0040	4.0041	0.8403	25.93	0.54	0.750			
0.2046	13094.98	4.0010	4.0010	0.8448	25.93	0.54	0.750			
0.2072	13258.32	3.9980	3.9980	0.8507	25.93	0.54	0.750			
0.2097	13421.66	3.9950	3.9950	0.8528	25.93	0.54	0.750			
0.2123	13587.53	3.9920	3.9920	0.8630	25.93	0.54	0.750			
0.2149	13756.32	3.9890	3.9890	0.8572	25.93	0.54	0.750			
0.2175	13920.29	3.9860	3.9859	0.8643	25.93	0.54	0.750			
0.2201	14084.95	3.9830	3.9831	0.8670	25.93	0.54	0.750			
0.2227	14251.26	3.9800	3.9801	0.8694	25.93	0.54	0.750			
0.2253	14418.52	3.9770	3.9772	0.8721	25.93	0.54	0.750			
0.2279	14587.42	3.9740	3.9740	0.8688	25.93	0.54	0.750			
0.2305	14753.31	3.9710	3.9711	0.8739	25.93	0.54	0.750			
0.2332	14923.72	3.9680	3.9680	0.8779	25.93	0.54	0.750			
0.2358	15090.58	3.9650	3.9648	0.8701	25.93	0.54	0.750			
0.2384	15257.63	3.9620	3.9620	0.8716	25.93	0.54	0.750			
0.2410	15425.23	3.9590	3.9591	0.8705	25.93	0.54	0.750			
0.2436	15592.23	3.9560	3.9560	0.8711	25.93	0.54	0.750			
0.2463	15760.34	3.9530	3.9529	0.8731	25.93	0.54	0.750			
0.2488	15925.71	3.9500	3.9501	0.8659	25.93	0.54	0.750			
0.2515	16095.20	3.9470	3.9469	0.8634	25.93	0.54	0.750			
0.2541	16259.98	3.9440	3.9441	0.8651	25.93	0.54	0.750			
0.2566	16423.76	3.9410	3.9410	0.8641	25.93	0.54	0.750			
0.2592	16588.49	3.9380	3.9381	0.8705	25.93	0.54	0.750			
0.2618	16754.77	3.9350	3.9348	0.8716	25.93	0.54	0.750			
0.2645	16926.22	3.9320	3.9320	0.8679	25.93	0.54	0.750			
0.2671	17094.97	3.9290	3.9291	0.8719	25.92	0.53	0.750			
0.2697	17261.55	3.9260	3.9261	0.8729	25.92	0.53	0.750			
0.2723	17428.56	3.9230	3.9231	0.8657	25.91	0.52	0.750			
0.2749	17592.13	3.9200	3.9201	0.8674	25.91	0.52	0.750			
0.2775	17759.49	3.9170	3.9171	0.8675	25.91	0.52	0.750			
0.2801	17927.55	3.9140	3.9140	0.8751	25.91	0.52	0.750			
0.2828	18097.77	3.9110	3.9111	0.8773	25.91	0.52	0.750			
0.2854	18266.10	3.9080	3.9080	0.8707	25.91	0.52	0.750			
0.2880	18432.58	3.9050	3.9051	0.8754	25.91	0.52	0.750			
0.2907	18603.86	3.9020	3.9020	0.8615	25.90	0.51	0.750			
0.2932	18765.95	3.8990	3.8990	0.8654	25.90	0.51	0.750			
0.2958	18931.94	3.8960	3.8962	0.8696	25.89	0.50	0.750			
0.2984	19098.65	3.8930	3.8927	0.8676	25.89	0.50	0.750			
0.3010	19265.11	3.8900	3.8901	0.8691	25.88	0.49	0.750			
0.3036	19432.75	3.8870	3.8870	0.8661	25.88	0.49	0.750			
0.3062	19597.27	3.8840	3.8841	0.8703	25.87	0.48	0.750			
0.3088	19764.84	3.8810	3.8810	0.8736	25.87	0.48	0.750			
0.3115	19933.24	3.8780	3.8776	0.8775	25.86	0.47	0.750			
0.3141	20104.45	3.8750	3.8750	0.8770	25.85	0.46	0.750			
0.3168	20273.97	3.8720	3.8722	0.8827	25.85	0.46	0.750			
0.3195	20446.03	3.8690	3.8690	0.8829	25.84	0.45	0.750			
0.3221	20615.09	3.8660	3.8660	0.8837	25.83	0.44	0.750			
0.3247	20780.01	3.8630	3.8631	0.8799	25.83	0.44	0.750			
0.3273	20949.56	3.8600	3.8600	0.8839	25.82	0.43	0.750			
0.3300	21119.97	3.8570	3.8570	0.8807	25.82	0.43	0.750			
0.3326	21285.92	3.8540	3.8541	0.8943	25.81	0.42	0.750			
0.3353	21456.07	3.8510	3.8512	0.9028	25.80	0.41	0.750			
0.3380	21631.35	3.8480	3.8481	0.9213	25.80	0.41	0.750			
0.3408	21809.49	3.8450	3.8450	0.9230	25.79	0.40	0.750			
0.3436	21988.95	3.8420	3.8421	0.9363	25.78	0.39	0.750	0.320	0.474	
0.3464	22172.08	3.8390	3.8391	0.9456	25.78	0.39	0.750			
0.3493	22352.48	3.8360	3.8357	0.9405	25.77	0.38	0.750			
0.3521	22533.47	3.8330	3.8332	0.9426	25.76	0.37	0.750			
0.3549	22716.02	3.8300	3.8301	0.9505	25.75	0.36	0.750			
0.3578	22900.35	3.8270	3.8270	0.9584	25.74	0.35	0.750			
0.3607	23083.58	3.8240	3.8240	0.9571	25.73	0.34	0.750			
0.3636	23269.46	3.8210	3.8210	0.9568	25.72	0.33	0.750			
0.3664	23452.29	3.8180	3.8180	0.9697	25.71	0.32	0.750			
0.3694	23639.18	3.8150	3.8151	0.9845	25.70	0.31	0.750			
0.3723	23828.74	3.8120	3.8120	0.9945	25.69	0.30	0.750			
0.3754	24024.93	3.8090	3.8090	0.9894	25.69	0.30	0.750			
0.3783	24212.61	3.8060	3.8062	1.0076	25.68	0.29	0.750			
0.3814	24406.84	3.8030	3.8031	1.0218	25.67	0.28	0.750			
0.3844	24602.95	3.8000	3.8001	1.0445	25.66	0.27	0.750			
0.3875	24802.58	3.7970	3.7968	1.0513	25.65	0.26	0.750			
0.3907	25006.19	3.7940	3.7942	1.0740	25.64	0.25	0.750			
0.3940	25218.54	3.7910	3.7911	1.0962	25.63	0.24	0.750			
0.3974	25432.76	3.7880	3.7880	1.1140	25.61	0.22	0.750			
0.4007	25647.24	3.7850	3.7850	1.1065	25.60	0.21	0.750			
0.4040	25858.99	3.7820	3.7821	1.1293	25.59	0.20	0.750			
0.4074	26074.84	3.7790	3.7791	1.1511	25.58	0.19	0.750			
0.4110	26301.23	3.7760	3.7756	1.1671	25.57	0.18	0.750			
0.4144	26523.51	3.7730	3.7731	1.1919	25.56	0.17	0.750			
0.4181	26756.18	3.7700	3.7701	1.2205	25.55	0.16	0.750			
0.4218	26994.05	3.7670	3.7672	1.2501	25.54	0.15	0.750			
0.4255	27235.02	3.7640	3.7640	1.2691	25.53	0.14	0.750			
0.4294	27481.13	3.7610	3.7611	1.2998	25.52	0.13	0.750			
0.4334	27738.71	3.7580	3.7580	1.3138	25.51	0.12	0.750			
0.4374	27992.80	3.7550	3.7550	1.3445	25.50	0.11	0.750			
0.4414	28250.97	3.7520	3.7521	1.3662	25.49	0.10	0.750			
0.4457	28522.30	3.7490	3.7490	1.3797	25.48	0.09	0.750			
0.4498	28784.14	3.7460	3.7458	1.4245	25.47	0.08	0.750			
0.4540	29058.95	3.7430	3.7430	1.4480	25.45	0.06	0.750			
0.4584	29335.43	3.7400	3.7402	1.4966	25.44	0.05	0.750			
0.4629	29628.71	3.7370	3.7373	1.5392	25.42	0.03	0.750			
0.4676	29927.02	3.7340	3.7334	1.5565	25.40	0.01	0.750			
0.4724	30232.92	3.7310	3.7312	1.6039	25.39	-0.00	0.750			
0.4772	30542.84	3.7280	3.7277	1.6753	25.38	-0.01	0.750			
0.4823	30865.04	3.7250	3.7248	1.6913	25.37	-0.02	0.750			
0.4875	31197.76	3.7220	3.7222	1.7061	25.37	-0.02	0.750			
0.4927	31530.46	3.7190	3.7195	1.8013	25.34	-0.05	0.750			
0.4981	31879.54	3.7160	3.7160	1.8591	25.32	-0.07	0.750			
0.5036	32230.45	3.7130	3.7137	1.9303	25.31	-0.08	0.750			
0.5096	32616.78	3.7100	3.7104	2.0265	25.30	-0.09	0.750			
0.5160	33021.84	3.7070	3.7074	2.0428	25.29	-0.10	0.750			
0.5220	33409.24	3.7040	3.7042	2.1508	25.28	-0.11	0.750			
0.5285	33823.43	3.7010	3.7011	2.1312	25.28	-0.11	0.750			
0.5347	34221.32	3.6980	3.6985	2.1846	25.27	-0.12	0.750			
0.5413	34646.30	3.6950	3.6946	2.2519	25.26	-0.13	0.750			
0.5483	35089.97	3.6920	3.6922	2.3251	25.25	-0.14	0.750			
0.5556	35557.71	3.6890	3.6887	2.4048	25.24	-0.15	0.750			
0.5625	36001.85	3.6860	3.6858	2.2941	25.24	-0.15	0.750			
0.5694	36443.83	3.6830	3.6828	2.3057	25.23	-0.16	0.750			
0.5765	36897.85	3.6800	3.6802	2.3260	25.23	-0.16	0.750			
0.5834	37339.54	3.6770	3.6765	2.2123	25.23	-0.16	0.750			
0.5903	37777.82	3.6740	3.6743	2.2591	25.24	-0.15	0.750			
0.5967	38188.23	3.6710	3.6713	2.1121	25.25	-0.14	0.750			
0.6029	38588.16	3.6680	3.6685	1.9406	25.26	-0.13	0.750			
0.6085	38945.64	3.6650	3.6655	1.8205	25.27	-0.12	0.750			
0.6139	39292.73	3.6620	3.6616	1.7395	25.27	-0.12	0.750			
0.6189	39609.14	3.6590	3.6582	1.6140	25.27	-0.12	0.750			
0.6236	39908.37	3.6560	3.6561	1.5102	25.27	-0.12	0.750			
0.6279	40185.35	3.6530	3.6532	1.4151	25.27	-0.12	0.750			
0.6320	40449.38	3.6500	3.6501	1.3253	25.28	-0.11	0.750			
0.6358	40692.56	3.6470	3.6465	1.2217	25.28	-0.11	0.750			
0.6394	40921.91	3.6440	3.6441	1.1507	25.29	-0.10	0.750			
0.6427	41129.86	3.6410	3.6411	1.0971	25.30	-0.09	0.750			
0.6459	41335.74	3.6380	3.6381	1.0562	25.31	-0.08	0.750			
0.6490	41533.20	3.6350	3.6343	1.0150	25.32	-0.07	0.750			
0.6519	41720.41	3.6320	3.6322	0.9696	25.33	-0.06	0.750			
0.6548	41904.13	3.6290	3.6291	0.9401	25.34	-0.05	0.750			
0.6576	42085.94	3.6260	3.6260	0.9112	25.35	-0.04	0.750			
0.6602	42255.02	3.6230	3.6229	0.8613	25.36	-0.03	0.750			
0.6628	42417.32	3.6200	3.6201	0.8273	25.36	-0.03	0.750			
0.6652	42573.99	3.6170	3.6170	0.7908	25.37	-0.02	0.750			
0.6676	42725.63	3.6140	3.6140	0.7365	25.38	-0.01	0.750			
0.6698	42865.62	3.6110	3.6109	0.6769	25.38	-0.01	0.750			
0.6716	42983.13	3.6080	3.6084	0.6400	25.38	-0.01	0.750			
0.6734	43098.66	3.6050	3.6051	0.5994	25.39	-0.00	0.750			
0.6752	43210.11	3.6020	3.6021	0.5578	25.39	0.00	0.750			
0.6768	43312.58	3.5990	3.5998	0.5168	25.40	0.01	0.750			
0.6783	43411.54	3.5960	3.5964	0.4748	25.40	0.01	0.750			
0.6798	43505.96	3.5930	3.5930	0.4413	25.40	0.01	0.750			
0.6810	43586.16	3.5900	3.5898	0.3828	25.41	0.02	0.750			
0.6820	43649.12	3.5870	3.5870	0.3146	25.41	0.02	0.750			
0.6829	43705.65	3.5840	3.5841	0.2670	25.41	0.02	0.750			
0.6836	43753.56	3.5810	3.5810	0.2177	25.41	0.02	0.750			
0.6842	43790.02	3.5780	3.5780	0.1632	25.41	0.02	0.750			
0.6846	43815.25	3.5750	3.5758	0.1092	25.42	0.03	0.750			
0.6849	43832.43	3.5720	3.5734	0.0533	25.42	0.03	0.750			
0.6850	43837.25	3.5690	3.5721	-0.0031	25.42	0.03	0.750			
