Ah_balance (normalized)	Ah_balance (mAh)	Voltage - fit (V)	Voltage -  interpolate (V)	dQ/dV (1/V)	Temperature (°C)	Temperature - diff (°C)	Current (C)	R_DC 0ms (mOhm)	R_DC 50ms (mOhm)	R_DC 50 ms PEC (mOhm)
0.0457	2922.91	4.1990	4.1990	0.7701	25.51	0.67	0.750			
0.0480	3070.73	4.1960	4.1960	0.7694	25.51	0.67	0.750			
0.0503	3217.54	4.1930	4.1931	0.7650	25.51	0.67	0.750			
0.0526	3363.87	4.1900	4.1900	0.7660	25.52	0.68	0.750			
0.0548	3510.29	4.1870	4.1871	0.7705	25.52	0.68	0.750			
0.0572	3658.31	4.1840	4.1834	0.7726	25.52	0.68	0.750			
0.0595	3807.90	4.1810	4.1811	0.7738	25.52	0.68	0.750			
0.0618	3958.18	4.1780	4.1780	0.7710	25.52	0.68	0.750			
0.0642	4105.95	4.1750	4.1751	0.7759	25.53	0.69	0.750			
0.0665	4255.41	4.1720	4.1720	0.7742	25.53	0.69	0.750			
0.0688	4400.96	4.1690	4.1689	0.7722	25.53	0.69	0.750			
0.0711	4548.89	4.1660	4.1661	0.7750	25.53	0.69	0.750			
0.0734	4699.83	4.1630	4.1630	0.7742	25.53	0.69	0.750			
0.0758	4848.44	4.1600	4.1599	0.7757	25.53	0.69	0.750			
0.0781	4996.14	4.1570	4.1571	0.7777	25.52	0.68	0.750			
0.0804	5146.32	4.1540	4.1541	0.7807	25.52	0.68	0.750			
0.0828	5297.21	4.1510	4.1512	0.7840	25.52	0.68	0.750			
0.0851	5447.01	4.1480	4.1481	0.7871	25.52	0.68	0.750			
0.0875	5599.77	4.1450	4.1451	0.7824	25.52	0.68	0.750			
0.0898	5748.84	4.1420	4.1420	0.7885	25.51	0.67	0.750			
0.0922	5898.42	4.1390	4.1391	0.7876	25.51	0.67	0.750			
0.0945	6050.26	4.1360	4.1356	0.7909	25.51	0.67	0.750			
0.0969	6203.05	4.1330	4.1331	0.7977	25.51	0.67	0.750			
0.0993	6357.26	4.1300	4.1300	0.7975	25.51	0.67	0.750			
0.1017	6511.59	4.1270	4.1271	0.8026	25.51	0.67	0.750			
0.1042	6665.88	4.1240	4.1240	0.7993	25.51	0.67	0.750			
0.1065	6818.63	4.1210	4.1209	0.7994	25.51	0.67	0.750			
0.1089	6972.40	4.1180	4.1180	0.8022	25.51	0.67	0.750			
0.1114	7130.60	4.1150	4.1150	0.7934	25.51	0.67	0.750			
0.1138	7280.94	4.1120	4.1121	0.7988	25.51	0.67	0.750			
0.1161	7432.96	4.1090	4.1091	0.8050	25.51	0.67	0.750			
0.1185	7586.27	4.1060	4.1062	0.8080	25.51	0.67	0.750			
0.1210	7740.89	4.1030	4.1030	0.8139	25.51	0.67	0.750			
0.1234	7899.75	4.1000	4.1001	0.8092	25.51	0.67	0.750			
0.1259	8056.50	4.0970	4.0971	0.8185	25.51	0.67	0.750			
0.1284	8214.76	4.0940	4.0941	0.8242	25.51	0.67	0.750			
0.1308	8371.65	4.0910	4.0910	0.8186	25.51	0.67	0.750			
0.1333	8530.33	4.0880	4.0882	0.8203	25.51	0.67	0.750			
0.1358	8688.96	4.0850	4.0851	0.8214	25.51	0.67	0.750			
0.1382	8846.15	4.0820	4.0820	0.8263	25.51	0.67	0.750			
0.1407	9005.86	4.0790	4.0790	0.8278	25.51	0.67	0.750			
0.1432	9163.32	4.0760	4.0759	0.8284	25.51	0.67	0.750			
0.1457	9322.24	4.0730	4.0730	0.8315	25.51	0.67	0.750			
0.1482	9486.72	4.0700	4.0700	0.8284	25.51	0.67	0.750			
0.1507	9644.70	4.0670	4.0671	0.8332	25.51	0.67	0.750			
0.1532	9802.70	4.0640	4.0641	0.8388	25.50	0.66	0.750			
0.1557	9962.93	4.0610	4.0611	0.8427	25.50	0.66	0.750			
0.1582	10125.22	4.0580	4.0581	0.8471	25.50	0.66	0.750			
0.1608	10290.07	4.0550	4.0551	0.8414	25.49	0.65	0.750			
0.1633	10452.00	4.0520	4.0521	0.8523	25.49	0.65	0.750			
0.1659	10616.30	4.0490	4.0491	0.8568	25.49	0.65	0.750			
0.1684	10778.96	4.0460	4.0461	0.8553	25.48	0.64	0.750			
0.1710	10943.56	4.0430	4.0431	0.8612	25.48	0.64	0.750			
0.1736	11111.40	4.0400	4.0401	0.8622	25.49	0.65	0.750			
0.1762	11277.49	4.0370	4.0371	0.8684	25.50	0.66	0.750			
0.1788	11445.02	4.0340	4.0340	0.8662	25.50	0.66	0.750			
0.1814	11610.55	4.0310	4.0309	0.8718	25.51	0.67	0.750			
0.1840	11778.43	4.0280	4.0280	0.8750	25.51	0.67	0.750			
0.1867	11947.17	4.0250	4.0251	0.8711	25.50	0.66	0.750			
0.1893	12114.18	4.0220	4.0221	0.8756	25.50	0.66	0.750			
0.1919	12281.46	4.0190	4.0192	0.8819	25.49	0.65	0.750			
0.1945	12450.55	4.0160	4.0153	0.8913	25.49	0.65	0.750			
0.1973	12626.50	4.0130	4.0131	0.8839	25.49	0.65	0.750			
0.1999	12795.14	4.0100	4.0101	0.8882	25.50	0.66	0.750			
0.2026	12968.11	4.0070	4.0071	0.8976	25.50	0.66	0.750			
0.2053	13140.80	4.0040	4.0041	0.9052	25.51	0.67	0.750			
0.2079	13308.42	4.0010	4.0007	0.8943	25.51	0.67	0.750			
0.2106	13480.26	3.9980	3.9980	0.8989	25.51	0.67	0.750			
0.2133	13654.05	3.9950	3.9951	0.9080	25.51	0.67	0.750			
0.2161	13832.70	3.9920	3.9920	0.9174	25.51	0.67	0.750			
0.2189	14008.85	3.9890	3.9889	0.9102	25.51	0.67	0.750			
0.2217	14186.45	3.9860	3.9860	0.9048	25.51	0.67	0.750			
0.2244	14359.16	3.9830	3.9831	0.9052	25.51	0.67	0.750			
0.2271	14531.55	3.9800	3.9800	0.9109	25.51	0.67	0.750			
0.2298	14705.67	3.9770	3.9770	0.9126	25.51	0.67	0.750			
0.2325	14878.98	3.9740	3.9737	0.9164	25.51	0.67	0.750			
0.2353	15057.95	3.9710	3.9711	0.9155	25.51	0.67	0.750			
0.2380	15235.14	3.9680	3.9680	0.9274	25.51	0.67	0.750			
0.2408	15413.81	3.9650	3.9651	0.9319	25.51	0.67	0.750			
0.2436	15591.98	3.9620	3.9620	0.9280	25.51	0.67	0.750			
0.2464	15772.70	3.9590	3.9590	0.9239	25.51	0.67	0.750			
0.2492	15950.41	3.9560	3.9561	0.9281	25.51	0.67	0.750			
0.2520	16127.24	3.9530	3.9531	0.9355	25.52	0.68	0.750			
0.2548	16309.39	3.9500	3.9500	0.9419	25.52	0.68	0.750			
0.2576	16486.14	3.9470	3.9468	0.9385	25.52	0.68	0.750			
0.2605	16671.50	3.9440	3.9441	0.9289	25.52	0.68	0.750			
0.2633	16849.33	3.9410	3.9411	0.9438	25.52	0.68	0.750			
0.2661	17030.47	3.9380	3.9380	0.9485	25.53	0.69	0.750			
0.2689	17210.40	3.9350	3.9349	0.9480	25.53	0.69	0.750			
0.2718	17394.36	3.9320	3.9321	0.9482	25.53	0.69	0.750			
0.2747	17578.30	3.9290	3.9291	0.9571	25.53	0.69	0.750			
0.2775	17763.09	3.9260	3.9261	0.9589	25.53	0.69	0.750			
0.2804	17947.36	3.9230	3.9230	0.9542	25.53	0.69	0.750			
0.2833	18131.85	3.9200	3.9200	0.9592	25.53	0.69	0.750			
0.2862	18314.25	3.9170	3.9170	0.9638	25.53	0.69	0.750			
0.2891	18500.32	3.9140	3.9140	0.9715	25.53	0.69	0.750			
0.2920	18690.14	3.9110	3.9110	0.9788	25.53	0.69	0.750			
0.2950	18878.40	3.9080	3.9079	0.9807	25.53	0.69	0.750			
0.2980	19069.60	3.9050	3.9051	0.9729	25.53	0.69	0.750			
0.3008	19253.03	3.9020	3.9020	0.9770	25.53	0.69	0.750			
0.3038	19440.24	3.8990	3.8991	0.9820	25.53	0.69	0.750			
0.3067	19628.27	3.8960	3.8957	0.9829	25.53	0.69	0.750			
0.3097	19818.75	3.8930	3.8931	0.9862	25.53	0.69	0.750			
0.3126	20008.08	3.8900	3.8901	0.9960	25.53	0.69	0.750			
0.3156	20200.88	3.8870	3.8871	1.0066	25.53	0.69	0.750			
0.3187	20394.49	3.8840	3.8838	1.0045	25.53	0.69	0.750			
0.3217	20587.79	3.8810	3.8811	1.0087	25.53	0.69	0.750			
0.3247	20783.36	3.8780	3.8780	1.0175	25.53	0.69	0.750			
0.3278	20980.26	3.8750	3.8751	1.0224	25.53	0.69	0.750			
0.3309	21178.53	3.8720	3.8719	1.0251	25.53	0.69	0.750			
0.3340	21376.63	3.8690	3.8690	1.0080	25.53	0.69	0.750			
0.3370	21569.27	3.8660	3.8661	1.0137	25.53	0.69	0.750			
0.3400	21762.13	3.8630	3.8631	1.0220	25.52	0.68	0.750			
0.3431	21957.53	3.8600	3.8602	1.0294	25.52	0.68	0.750			
0.3462	22156.46	3.8570	3.8571	1.0261	25.52	0.68	0.750			
0.3493	22353.46	3.8540	3.8542	1.0371	25.51	0.67	0.750			
0.3524	22554.87	3.8510	3.8511	1.0460	25.50	0.66	0.750			
0.3556	22756.84	3.8480	3.8481	1.0537	25.49	0.65	0.750			
0.3587	22959.47	3.8450	3.8452	1.0459	25.49	0.65	0.750			
0.3619	23159.69	3.8420	3.8420	1.0523	25.48	0.64	0.750			
0.3650	23359.35	3.8390	3.8391	1.0599	25.48	0.64	0.750			
0.3681	23559.94	3.8360	3.8362	1.0893	25.47	0.63	0.750			
0.3714	23767.79	3.8330	3.8330	1.1127	25.47	0.63	0.750			
0.3748	23986.66	3.8300	3.8301	1.1355	25.46	0.62	0.750	0.312	0.402	
0.3783	24209.99	3.8270	3.8275	1.1543	25.46	0.62	0.750			
0.3819	24443.81	3.8240	3.8240	1.1601	25.45	0.61	0.750			
0.3854	24666.36	3.8210	3.8210	1.1502	25.44	0.60	0.750			
0.3889	24890.85	3.8180	3.8179	1.1429	25.42	0.58	0.750			
0.3921	25094.95	3.8150	3.8150	1.1240	25.41	0.57	0.750			
0.3955	25312.46	3.8120	3.8119	1.1185	25.40	0.56	0.750			
0.3989	25526.76	3.8090	3.8090	1.1278	25.39	0.55	0.750			
0.4023	25744.77	3.8060	3.8061	1.1348	25.38	0.54	0.750			
0.4057	25963.42	3.8030	3.8030	1.1404	25.37	0.53	0.750			
0.4091	26181.21	3.8000	3.8001	1.1446	25.36	0.52	0.750			
0.4125	26401.28	3.7970	3.7970	1.1527	25.35	0.51	0.750			
0.4160	26623.43	3.7940	3.7940	1.1624	25.34	0.50	0.750			
0.4195	26850.06	3.7910	3.7910	1.1732	25.33	0.49	0.750			
0.4230	27074.44	3.7880	3.7880	1.1805	25.32	0.48	0.750			
0.4266	27302.04	3.7850	3.7850	1.1933	25.31	0.47	0.750			
0.4302	27531.41	3.7820	3.7820	1.2058	25.30	0.46	0.750			
0.4338	27762.72	3.7790	3.7790	1.2234	25.28	0.44	0.750			
0.4375	27999.31	3.7760	3.7760	1.2402	25.27	0.43	0.750			
0.4412	28239.38	3.7730	3.7730	1.2591	25.26	0.42	0.750			
0.4451	28484.15	3.7700	3.7700	1.2737	25.25	0.41	0.750			
0.4489	28726.43	3.7670	3.7671	1.2997	25.24	0.40	0.750			
0.4528	28976.08	3.7640	3.7640	1.3282	25.23	0.39	0.750			
0.4568	29234.07	3.7610	3.7607	1.3562	25.22	0.38	0.750			
0.4609	29497.20	3.7580	3.7581	1.3826	25.21	0.37	0.750			
0.4651	29766.73	3.7550	3.7551	1.4230	25.19	0.35	0.750			
0.4694	30043.80	3.7520	3.7519	1.4590	25.18	0.34	0.750			
0.4738	30324.20	3.7490	3.7490	1.4891	25.17	0.33	0.750			
0.4784	30616.50	3.7460	3.7461	1.5138	25.15	0.31	0.750			
0.4830	30912.90	3.7430	3.7429	1.5500	25.14	0.30	0.750			
0.4877	31210.91	3.7400	3.7401	1.5953	25.12	0.28	0.750			
0.4926	31523.37	3.7370	3.7371	1.6354	25.11	0.27	0.750			
0.4975	31839.52	3.7340	3.7341	1.6794	25.09	0.25	0.750			
0.5026	32163.95	3.7310	3.7310	1.7305	25.07	0.23	0.750			
0.5079	32502.46	3.7280	3.7282	1.7917	25.06	0.22	0.750			
0.5133	32852.06	3.7250	3.7252	1.8511	25.04	0.20	0.750			
0.5190	33214.22	3.7220	3.7219	1.9163	25.02	0.18	0.750			
0.5248	33587.54	3.7190	3.7190	1.9555	25.00	0.16	0.750			
0.5308	33971.30	3.7160	3.7160	2.0049	24.98	0.14	0.750			
0.5369	34361.40	3.7130	3.7131	2.0671	24.96	0.12	0.750			
0.5432	34763.35	3.7100	3.7099	2.1088	24.94	0.10	0.750			
0.5496	35172.16	3.7070	3.7070	2.1837	24.92	0.08	0.750			
0.5561	35591.91	3.7040	3.7041	2.2530	24.90	0.06	0.750			
0.5631	36037.13	3.7010	3.7011	2.3265	24.88	0.04	0.750			
0.5703	36498.64	3.6980	3.6980	2.3980	24.86	0.02	0.750			
0.5775	36961.37	3.6950	3.6951	2.4822	24.84	0.00	0.750			
0.5850	37441.34	3.6920	3.6922	2.5522	24.82	-0.02	0.750			
0.5928	37936.96	3.6890	3.6890	2.6071	24.80	-0.04	0.750			
0.6007	38445.56	3.6860	3.6860	2.6534	24.79	-0.05	0.750			
0.6087	38959.51	3.6830	3.6830	2.7224	24.78	-0.06	0.750			
0.6169	39482.63	3.6800	3.6797	2.8446	24.76	-0.08	0.750			
0.6257	40045.24	3.6770	3.6769	2.9299	24.76	-0.08	0.750			
0.6348	40629.18	3.6740	3.6740	2.9715	24.75	-0.09	0.750			
0.6436	41191.74	3.6710	3.6710	2.9766	24.73	-0.11	0.750			
0.6525	41757.49	3.6680	3.6679	2.9003	24.72	-0.12	0.750			
0.6612	42318.11	3.6650	3.6651	2.8586	24.72	-0.12	0.750			
0.6699	42871.71	3.6620	3.6620	2.7293	24.72	-0.12	0.750			
0.6779	43386.75	3.6590	3.6590	2.5470	24.73	-0.11	0.750			
0.6853	43862.38	3.6560	3.6558	2.3470	24.74	-0.10	0.750			
0.6918	44275.05	3.6530	3.6532	2.0918	24.75	-0.09	0.750			
0.6978	44660.00	3.6500	3.6498	1.8729	24.75	-0.09	0.750			
0.7031	44998.62	3.6470	3.6468	1.6585	24.76	-0.08	0.750			
0.7078	45298.93	3.6440	3.6441	1.4433	24.76	-0.08	0.750			
0.7117	45551.77	3.6410	3.6413	1.2788	24.77	-0.07	0.750			
0.7150	45762.04	3.6380	3.6379	1.1038	24.77	-0.07	0.750			
0.7180	45951.37	3.6350	3.6350	1.0149	24.78	-0.06	0.750			
0.7206	46120.61	3.6320	3.6321	0.9244	24.78	-0.06	0.750			
0.7234	46296.23	3.6290	3.6291	0.8804	24.79	-0.05	0.750			
0.7260	46462.26	3.6260	3.6261	0.8606	24.79	-0.05	0.750			
0.7285	46625.44	3.6230	3.6231	0.8402	24.79	-0.05	0.750			
0.7310	46781.62	3.6200	3.6201	0.8059	24.80	-0.04	0.750			
0.7334	46936.93	3.6170	3.6172	0.7792	24.80	-0.04	0.750			
0.7357	47085.90	3.6140	3.6141	0.7451	24.81	-0.03	0.750			
0.7380	47232.81	3.6110	3.6110	0.6953	24.82	-0.02	0.750			
0.7401	47364.21	3.6080	3.6081	0.6354	24.83	-0.01	0.750			
0.7419	47481.15	3.6050	3.6050	0.5648	24.83	-0.01	0.750			
0.7435	47582.14	3.6020	3.6020	0.4933	24.84	-0.00	0.750			
0.7448	47667.97	3.5990	3.5989	0.4208	24.84	0.00	0.750			
0.7460	47741.66	3.5960	3.5961	0.3530	24.84	0.00	0.750			
0.7469	47802.96	3.5930	3.5929	0.2885	24.85	0.01	0.750			
0.7477	47852.59	3.5900	3.5900	0.2253	24.85	0.01	0.750			
0.7483	47888.68	3.5870	3.5871	0.1647	24.85	0.01	0.750			
0.7487	47914.72	3.5840	3.5844	0.1107	24.85	0.01	0.750			
