Ah_balance (normalized)	Ah_balance (mAh)	Voltage - fit (V)	Voltage -  interpolate (V)	dQ/dV (1/V)	Temperature (°C)	Temperature - diff (°C)	Current (C)	R_DC 0ms (mOhm)	R_DC 50ms (mOhm)	R_DC 50 ms PEC (mOhm)
0.0473	3025.48	4.1980	4.1981	0.8251	25.40	0.35	0.750			
0.0496	3176.70	4.1950	4.1950	0.7664	25.40	0.35	0.750			
0.0519	3323.44	4.1920	4.1922	0.7642	25.41	0.36	0.750			
0.0542	3469.42	4.1890	4.1890	0.7637	25.41	0.36	0.750			
0.0565	3616.18	4.1860	4.1859	0.7641	25.41	0.36	0.750			
0.0588	3761.78	4.1830	4.1831	0.7651	25.41	0.36	0.750			
0.0611	3910.50	4.1800	4.1799	0.7647	25.41	0.36	0.750			
0.0634	4056.84	4.1770	4.1771	0.7707	25.42	0.37	0.750			
0.0657	4203.85	4.1740	4.1741	0.7702	25.42	0.37	0.750			
0.0680	4352.63	4.1710	4.1708	0.7773	25.42	0.37	0.750			
0.0704	4502.43	4.1680	4.1681	0.7815	25.42	0.37	0.750			
0.0727	4654.47	4.1650	4.1650	0.7796	25.42	0.37	0.750			
0.0751	4803.27	4.1620	4.1620	0.7838	25.41	0.36	0.750			
0.0774	4954.95	4.1590	4.1590	0.7906	25.41	0.36	0.750			
0.0798	5105.57	4.1560	4.1561	0.7863	25.41	0.36	0.750			
0.0821	5257.08	4.1530	4.1529	0.7880	25.41	0.36	0.750			
0.0845	5408.76	4.1500	4.1500	0.7887	25.42	0.37	0.750			
0.0869	5560.64	4.1470	4.1471	0.7919	25.42	0.37	0.750			
0.0893	5713.28	4.1440	4.1439	0.7928	25.42	0.37	0.750			
0.0916	5864.09	4.1410	4.1411	0.7913	25.43	0.38	0.750			
0.0940	6015.65	4.1380	4.1380	0.7945	25.43	0.38	0.750			
0.0964	6169.95	4.1350	4.1350	0.7998	25.43	0.38	0.750			
0.0988	6324.72	4.1320	4.1319	0.7923	25.43	0.38	0.750			
0.1012	6475.52	4.1290	4.1291	0.7917	25.43	0.38	0.750			
0.1035	6625.52	4.1260	4.1262	0.7966	25.43	0.38	0.750			
0.1059	6778.89	4.1230	4.1225	0.8026	25.43	0.38	0.750			
0.1083	6932.63	4.1200	4.1201	0.8073	25.43	0.38	0.750			
0.1108	7091.02	4.1170	4.1169	0.8047	25.43	0.38	0.750			
0.1133	7249.16	4.1140	4.1141	0.8137	25.43	0.38	0.750			
0.1157	7405.20	4.1110	4.1112	0.8194	25.43	0.38	0.750			
0.1181	7558.62	4.1080	4.1078	0.8152	25.43	0.38	0.750			
0.1206	7715.39	4.1050	4.1050	0.8176	25.43	0.38	0.750			
0.1230	7873.23	4.1020	4.1020	0.8122	25.43	0.38	0.750			
0.1254	8028.68	4.0990	4.0991	0.8131	25.43	0.38	0.750			
0.1279	8187.84	4.0960	4.0961	0.8214	25.43	0.38	0.750			
0.1304	8342.41	4.0930	4.0929	0.8182	25.43	0.38	0.750			
0.1328	8498.55	4.0900	4.0900	0.8196	25.43	0.38	0.750			
0.1353	8657.84	4.0870	4.0871	0.8153	25.43	0.38	0.750			
0.1377	8814.23	4.0840	4.0840	0.8246	25.43	0.38	0.750			
0.1402	8975.45	4.0810	4.0810	0.8316	25.43	0.38	0.750			
0.1427	9132.27	4.0780	4.0779	0.8307	25.43	0.38	0.750			
0.1452	9291.47	4.0750	4.0751	0.8371	25.43	0.38	0.750			
0.1477	9454.07	4.0720	4.0720	0.8373	25.44	0.39	0.750			
0.1502	9615.57	4.0690	4.0690	0.8473	25.44	0.39	0.750			
0.1528	9780.64	4.0660	4.0660	0.8542	25.44	0.39	0.750			
0.1554	9942.79	4.0630	4.0629	0.8555	25.45	0.40	0.750			
0.1579	10108.52	4.0600	4.0601	0.8595	25.45	0.40	0.750			
0.1605	10273.97	4.0570	4.0570	0.8591	25.45	0.40	0.750			
0.1631	10439.53	4.0540	4.0541	0.8604	25.45	0.40	0.750			
0.1657	10604.54	4.0510	4.0511	0.8590	25.45	0.40	0.750			
0.1683	10769.37	4.0480	4.0479	0.8609	25.45	0.40	0.750			
0.1709	10934.47	4.0450	4.0450	0.8640	25.45	0.40	0.750			
0.1735	11100.91	4.0420	4.0420	0.8601	25.45	0.40	0.750			
0.1761	11267.80	4.0390	4.0390	0.8618	25.45	0.40	0.750			
0.1786	11432.48	4.0360	4.0361	0.8603	25.45	0.40	0.750			
0.1812	11597.46	4.0330	4.0327	0.8647	25.45	0.40	0.750			
0.1838	11761.58	4.0300	4.0300	0.8714	25.45	0.40	0.750			
0.1864	11929.44	4.0270	4.0271	0.8824	25.46	0.41	0.750			
0.1891	12100.23	4.0240	4.0239	0.8892	25.46	0.41	0.750			
0.1918	12273.54	4.0210	4.0210	0.8989	25.47	0.42	0.750			
0.1945	12447.04	4.0180	4.0180	0.8988	25.47	0.42	0.750			
0.1972	12620.14	4.0150	4.0150	0.8977	25.47	0.42	0.750			
0.1999	12792.75	4.0120	4.0120	0.8972	25.47	0.42	0.750			
0.2026	12964.11	4.0090	4.0090	0.8988	25.47	0.42	0.750			
0.2053	13136.33	4.0060	4.0059	0.9000	25.47	0.42	0.750			
0.2080	13309.63	4.0030	4.0030	0.9030	25.47	0.42	0.750			
0.2107	13482.77	4.0000	4.0000	0.8997	25.47	0.42	0.750			
0.2134	13655.27	3.9970	3.9971	0.9073	25.48	0.43	0.750			
0.2161	13828.79	3.9940	3.9940	0.9120	25.48	0.43	0.750			
0.2188	14004.44	3.9910	3.9906	0.9145	25.48	0.43	0.750			
0.2216	14181.07	3.9880	3.9881	0.9134	25.48	0.43	0.750			
0.2243	14356.70	3.9850	3.9851	0.9200	25.48	0.43	0.750			
0.2271	14535.75	3.9820	3.9820	0.9232	25.49	0.44	0.750			
0.2299	14710.53	3.9790	3.9790	0.9186	25.49	0.44	0.750			
0.2326	14887.91	3.9760	3.9760	0.9237	25.49	0.44	0.750			
0.2354	15065.43	3.9730	3.9731	0.9238	25.49	0.44	0.750			
0.2382	15242.82	3.9700	3.9700	0.9348	25.50	0.45	0.750			
0.2410	15424.18	3.9670	3.9670	0.9407	25.50	0.45	0.750			
0.2438	15604.55	3.9640	3.9638	0.9390	25.50	0.45	0.750			
0.2467	15787.16	3.9610	3.9611	0.9376	25.50	0.45	0.750			
0.2495	15966.30	3.9580	3.9581	0.9410	25.50	0.45	0.750			
0.2523	16147.90	3.9550	3.9550	0.9437	25.51	0.46	0.750			
0.2551	16327.07	3.9520	3.9519	0.9385	25.51	0.46	0.750			
0.2579	16507.76	3.9490	3.9490	0.9368	25.51	0.46	0.750			
0.2608	16689.13	3.9460	3.9461	0.9445	25.51	0.46	0.750			
0.2636	16869.99	3.9430	3.9430	0.9511	25.52	0.47	0.750			
0.2665	17053.60	3.9400	3.9400	0.9557	25.52	0.47	0.750			
0.2693	17235.54	3.9370	3.9370	0.9540	25.52	0.47	0.750			
0.2722	17420.19	3.9340	3.9340	0.9553	25.52	0.47	0.750			
0.2751	17604.01	3.9310	3.9311	0.9613	25.53	0.48	0.750			
0.2780	17788.89	3.9280	3.9280	0.9651	25.53	0.48	0.750			
0.2808	17973.64	3.9250	3.9248	0.9668	25.53	0.48	0.750			
0.2838	18161.38	3.9220	3.9220	0.9604	25.53	0.48	0.750			
0.2867	18345.62	3.9190	3.9191	0.9724	25.53	0.48	0.750			
0.2896	18533.56	3.9160	3.9161	0.9784	25.53	0.48	0.750			
0.2925	18720.36	3.9130	3.9129	0.9766	25.53	0.48	0.750			
0.2955	18909.16	3.9100	3.9101	0.9820	25.53	0.48	0.750			
0.2984	19097.44	3.9070	3.9071	0.9878	25.53	0.48	0.750			
0.3014	19287.65	3.9040	3.9041	0.9938	25.54	0.49	0.750			
0.3044	19479.55	3.9010	3.9010	0.9977	25.54	0.49	0.750			
0.3074	19672.28	3.8980	3.8980	1.0023	25.54	0.49	0.750			
0.3104	19865.99	3.8950	3.8949	1.0123	25.54	0.49	0.750			
0.3135	20061.09	3.8920	3.8921	1.0206	25.54	0.49	0.750			
0.3165	20259.04	3.8890	3.8890	1.0279	25.54	0.49	0.750			
0.3197	20459.39	3.8860	3.8860	1.0200	25.54	0.49	0.750			
0.3227	20654.90	3.8830	3.8830	1.0206	25.54	0.49	0.750			
0.3258	20848.51	3.8800	3.8801	1.0272	25.55	0.50	0.750			
0.3288	21046.03	3.8770	3.8770	1.0347	25.55	0.50	0.750			
0.3319	21242.81	3.8740	3.8738	1.0381	25.55	0.50	0.750			
0.3350	21442.94	3.8710	3.8711	1.0480	25.55	0.50	0.750			
0.3382	21647.38	3.8680	3.8681	1.0578	25.56	0.51	0.750			
0.3415	21852.96	3.8650	3.8650	1.0655	25.56	0.51	0.750			
0.3447	22059.51	3.8620	3.8620	1.0547	25.56	0.51	0.750			
0.3478	22259.72	3.8590	3.8590	1.0645	25.56	0.51	0.750			
0.3510	22463.79	3.8560	3.8561	1.0699	25.55	0.50	0.750			
0.3542	22669.36	3.8530	3.8531	1.0773	25.55	0.50	0.750			
0.3575	22877.72	3.8500	3.8499	1.0776	25.55	0.50	0.750			
0.3607	23084.91	3.8470	3.8471	1.0861	25.55	0.50	0.750			
0.3640	23294.09	3.8440	3.8440	1.0936	25.55	0.50	0.750			
0.3673	23506.46	3.8410	3.8410	1.0958	25.55	0.50	0.750			
0.3705	23714.87	3.8380	3.8380	1.0959	25.55	0.50	0.750			
0.3738	23925.18	3.8350	3.8351	1.1078	25.55	0.50	0.750			
0.3772	24138.29	3.8320	3.8320	1.1201	25.54	0.49	0.750			
0.3805	24354.32	3.8290	3.8289	1.1264	25.54	0.49	0.750	0.390	0.420	
0.3840	24573.25	3.8260	3.8261	1.1396	25.54	0.49	0.750			
0.3874	24793.58	3.8230	3.8230	1.1502	25.53	0.48	0.750			
0.3909	25016.61	3.8200	3.8200	1.1616	25.53	0.48	0.750			
0.3944	25242.20	3.8170	3.8169	1.1456	25.53	0.48	0.750			
0.3978	25460.90	3.8140	3.8140	1.1625	25.52	0.47	0.750			
0.4013	25683.85	3.8110	3.8111	1.1687	25.51	0.46	0.750			
0.4048	25909.41	3.8080	3.8079	1.1777	25.50	0.45	0.750			
0.4084	26135.40	3.8050	3.8051	1.1869	25.49	0.44	0.750			
0.4119	26363.50	3.8020	3.8021	1.1970	25.49	0.44	0.750			
0.4155	26594.76	3.7990	3.7991	1.2104	25.48	0.43	0.750			
0.4192	26831.77	3.7960	3.7960	1.2077	25.47	0.42	0.750			
0.4229	27064.35	3.7930	3.7931	1.2184	25.46	0.41	0.750			
0.4266	27299.25	3.7900	3.7900	1.2273	25.45	0.40	0.750			
0.4303	27538.80	3.7870	3.7869	1.2197	25.44	0.39	0.750			
0.4339	27770.15	3.7840	3.7841	1.2297	25.43	0.38	0.750			
0.4376	28004.62	3.7810	3.7811	1.2431	25.42	0.37	0.750			
0.4413	28245.34	3.7780	3.7781	1.2583	25.41	0.36	0.750			
0.4451	28486.72	3.7750	3.7749	1.2777	25.40	0.35	0.750			
0.4490	28733.94	3.7720	3.7721	1.2991	25.39	0.34	0.750			
0.4529	28988.37	3.7690	3.7692	1.3212	25.38	0.33	0.750			
0.4569	29244.16	3.7660	3.7659	1.3511	25.37	0.32	0.750			
0.4610	29503.02	3.7630	3.7631	1.3690	25.35	0.30	0.750			
0.4652	29770.26	3.7600	3.7600	1.3888	25.33	0.28	0.750			
0.4694	30038.53	3.7570	3.7570	1.4107	25.32	0.27	0.750			
0.4736	30309.54	3.7540	3.7542	1.4382	25.31	0.26	0.750			
0.4779	30585.28	3.7510	3.7512	1.4775	25.30	0.25	0.750			
0.4824	30874.05	3.7480	3.7475	1.5045	25.29	0.24	0.750			
0.4870	31165.42	3.7450	3.7448	1.5380	25.28	0.23	0.750			
0.4917	31468.99	3.7420	3.7422	1.5643	25.26	0.21	0.750			
0.4965	31775.32	3.7390	3.7391	1.6035	25.25	0.20	0.750			
0.5013	32083.86	3.7360	3.7359	1.6412	25.24	0.19	0.750			
0.5064	32408.04	3.7330	3.7328	1.6948	25.22	0.17	0.750			
0.5114	32730.86	3.7300	3.7301	1.7648	25.20	0.15	0.750			
0.5168	33073.23	3.7270	3.7273	1.8346	25.19	0.14	0.750			
0.5224	33434.39	3.7240	3.7244	1.8835	25.17	0.12	0.750			
0.5282	33805.02	3.7210	3.7214	1.9524	25.16	0.11	0.750			
0.5340	34177.39	3.7180	3.7183	1.9997	25.15	0.10	0.750			
0.5402	34571.83	3.7150	3.7150	2.0521	25.12	0.07	0.750			
0.5463	34965.80	3.7120	3.7121	2.1063	25.10	0.05	0.750			
0.5528	35379.95	3.7090	3.7093	2.1909	25.09	0.04	0.750			
0.5595	35810.01	3.7060	3.7062	2.2682	25.07	0.02	0.750			
0.5665	36255.47	3.7030	3.7029	2.3416	25.05	-0.00	0.750			
0.5739	36726.43	3.7000	3.7000	2.3885	25.03	-0.02	0.750			
0.5809	37175.73	3.6970	3.6971	2.4218	25.02	-0.03	0.750			
0.5881	37638.31	3.6940	3.6938	2.4780	25.01	-0.04	0.750			
0.5957	38124.96	3.6910	3.6909	2.5602	24.99	-0.06	0.750			
0.6036	38627.65	3.6880	3.6879	2.6250	24.98	-0.07	0.750			
0.6117	39150.52	3.6850	3.6846	2.7517	24.96	-0.09	0.750			
0.6199	39672.79	3.6820	3.6819	2.8168	24.94	-0.11	0.750			
0.6283	40213.90	3.6790	3.6792	2.8768	24.92	-0.13	0.750			
0.6372	40779.25	3.6760	3.6765	2.9344	24.91	-0.14	0.750			
0.6459	41338.91	3.6730	3.6732	2.9679	24.90	-0.15	0.750			
0.6548	41910.30	3.6700	3.6702	2.9955	24.90	-0.15	0.750			
0.6642	42509.77	3.6670	3.6671	3.0072	24.90	-0.15	0.750			
0.6733	43091.88	3.6640	3.6642	2.9453	24.90	-0.15	0.750			
0.6820	43650.30	3.6610	3.6611	2.8165	24.90	-0.15	0.750			
0.6905	44191.29	3.6580	3.6579	2.6430	24.90	-0.15	0.750			
0.6984	44698.67	3.6550	3.6555	2.4954	24.91	-0.14	0.750			
0.7054	45142.56	3.6520	3.6519	2.2523	24.93	-0.12	0.750			
0.7116	45539.20	3.6490	3.6496	1.9961	24.94	-0.11	0.750			
0.7173	45906.43	3.6460	3.6461	1.8063	24.96	-0.09	0.750			
0.7224	46234.51	3.6430	3.6428	1.6044	24.97	-0.08	0.750			
0.7270	46531.10	3.6400	3.6407	1.4132	24.97	-0.08	0.750			
0.7311	46790.07	3.6370	3.6370	1.2448	24.98	-0.07	0.750			
0.7344	47001.88	3.6340	3.6338	1.0833	24.99	-0.06	0.750			
0.7370	47166.45	3.6310	3.6310	0.8945	24.99	-0.06	0.750			
0.7395	47324.96	3.6280	3.6280	0.8356	25.00	-0.05	0.750			
0.7418	47475.65	3.6250	3.6250	0.7845	25.01	-0.04	0.750			
0.7441	47620.01	3.6220	3.6220	0.7507	25.01	-0.04	0.750			
0.7463	47761.43	3.6190	3.6190	0.7196	25.02	-0.03	0.750			
0.7484	47899.48	3.6160	3.6160	0.6838	25.03	-0.02	0.750			
0.7505	48031.04	3.6130	3.6130	0.6394	25.03	-0.02	0.750			
0.7524	48153.16	3.6100	3.6100	0.5850	25.04	-0.01	0.750			
0.7541	48260.18	3.6070	3.6070	0.5205	25.04	-0.01	0.750			
0.7555	48354.56	3.6040	3.6040	0.4528	25.05	-0.00	0.750			
0.7568	48434.11	3.6010	3.6010	0.3809	25.05	0.00	0.750			
0.7578	48500.30	3.5980	3.5980	0.3109	25.06	0.01	0.750			
0.7586	48552.88	3.5950	3.5951	0.2419	25.06	0.01	0.750			
0.7593	48594.64	3.5920	3.5919	0.1676	25.06	0.01	0.750			
0.7597	48619.35	3.5890	3.5891	0.0926	25.06	0.01	0.750			
