Ah_balance (normalized)	Ah_balance (mAh)	Voltage - fit (V)	Voltage -  interpolate (V)	dQ/dV (1/V)	Temperature (°C)	Temperature - diff (°C)	Current (C)	R_DC 0ms (mOhm)	R_DC 50ms (mOhm)	R_DC 50 ms PEC (mOhm)
0.0472	3023.68	4.1990	4.1990	0.7549	25.27	0.67	0.750			
0.0495	3168.36	4.1960	4.1961	0.7537	25.27	0.67	0.750			
0.0518	3313.14	4.1930	4.1931	0.7566	25.27	0.67	0.750			
0.0540	3458.80	4.1900	4.1900	0.7592	25.27	0.67	0.750			
0.0563	3604.87	4.1870	4.1870	0.7557	25.27	0.67	0.750			
0.0586	3750.55	4.1840	4.1841	0.7578	25.27	0.67	0.750			
0.0609	3895.20	4.1810	4.1810	0.7597	25.27	0.67	0.750			
0.0632	4042.07	4.1780	4.1779	0.7600	25.27	0.67	0.750			
0.0654	4187.40	4.1750	4.1750	0.7587	25.27	0.67	0.750			
0.0677	4334.59	4.1720	4.1720	0.7515	25.27	0.67	0.750			
0.0700	4479.27	4.1690	4.1690	0.7579	25.26	0.66	0.750			
0.0722	4622.78	4.1660	4.1660	0.7647	25.26	0.66	0.750			
0.0745	4769.35	4.1630	4.1630	0.7682	25.26	0.66	0.750			
0.0768	4917.08	4.1600	4.1601	0.7677	25.26	0.66	0.750			
0.0792	5066.36	4.1570	4.1571	0.7730	25.26	0.66	0.750			
0.0815	5216.35	4.1540	4.1541	0.7737	25.26	0.66	0.750			
0.0838	5365.23	4.1510	4.1510	0.7740	25.26	0.66	0.750			
0.0861	5512.35	4.1480	4.1480	0.7687	25.26	0.66	0.750			
0.0884	5659.41	4.1450	4.1446	0.7698	25.26	0.66	0.750			
0.0907	5807.68	4.1420	4.1421	0.7747	25.26	0.66	0.750			
0.0931	5957.38	4.1390	4.1391	0.7754	25.26	0.66	0.750			
0.0954	6106.89	4.1360	4.1359	0.7783	25.25	0.65	0.750			
0.0978	6256.43	4.1330	4.1330	0.7812	25.25	0.65	0.750			
0.1001	6406.08	4.1300	4.1299	0.7764	25.25	0.65	0.750			
0.1024	6555.33	4.1270	4.1271	0.7779	25.25	0.65	0.750			
0.1048	6704.75	4.1240	4.1240	0.7781	25.25	0.65	0.750			
0.1071	6853.69	4.1210	4.1210	0.7784	25.25	0.65	0.750			
0.1094	7003.11	4.1180	4.1179	0.7825	25.26	0.66	0.750			
0.1118	7152.84	4.1150	4.1150	0.7832	25.26	0.66	0.750			
0.1141	7303.41	4.1120	4.1121	0.7877	25.26	0.66	0.750			
0.1165	7456.56	4.1090	4.1090	0.7920	25.26	0.66	0.750			
0.1189	7609.22	4.1060	4.1060	0.7833	25.26	0.66	0.750			
0.1212	7757.89	4.1030	4.1031	0.7891	25.25	0.65	0.750			
0.1236	7908.21	4.1000	4.1001	0.7928	25.25	0.65	0.750			
0.1260	8060.96	4.0970	4.0965	0.7949	25.25	0.65	0.750			
0.1283	8213.78	4.0940	4.0941	0.8001	25.25	0.65	0.750			
0.1308	8368.09	4.0910	4.0911	0.8008	25.25	0.65	0.750			
0.1332	8524.75	4.0880	4.0880	0.8090	25.25	0.65	0.750			
0.1356	8678.29	4.0850	4.0850	0.8068	25.25	0.65	0.750			
0.1380	8833.38	4.0820	4.0819	0.8105	25.25	0.65	0.750			
0.1405	8990.37	4.0790	4.0790	0.8113	25.25	0.65	0.750			
0.1429	9148.35	4.0760	4.0760	0.8086	25.25	0.65	0.750			
0.1454	9303.34	4.0730	4.0731	0.8134	25.26	0.66	0.750			
0.1478	9459.60	4.0700	4.0700	0.8158	25.26	0.66	0.750			
0.1502	9613.86	4.0670	4.0669	0.8147	25.26	0.66	0.750			
0.1527	9770.61	4.0640	4.0641	0.8194	25.26	0.66	0.750			
0.1552	9932.64	4.0610	4.0610	0.8104	25.26	0.66	0.750			
0.1576	10086.46	4.0580	4.0580	0.8199	25.27	0.67	0.750			
0.1601	10243.54	4.0550	4.0551	0.8246	25.27	0.67	0.750			
0.1625	10399.29	4.0520	4.0521	0.8273	25.27	0.67	0.750			
0.1650	10558.80	4.0490	4.0492	0.8326	25.27	0.67	0.750			
0.1675	10719.65	4.0460	4.0460	0.8356	25.27	0.67	0.750			
0.1700	10881.62	4.0430	4.0431	0.8421	25.27	0.67	0.750			
0.1726	11045.64	4.0400	4.0400	0.8390	25.27	0.67	0.750			
0.1751	11206.86	4.0370	4.0370	0.8438	25.27	0.67	0.750			
0.1777	11369.78	4.0340	4.0340	0.8458	25.27	0.67	0.750			
0.1802	11534.30	4.0310	4.0310	0.8405	25.27	0.67	0.750			
0.1827	11694.43	4.0280	4.0280	0.8483	25.27	0.67	0.750			
0.1853	11856.97	4.0250	4.0251	0.8473	25.27	0.67	0.750			
0.1878	12019.48	4.0220	4.0218	0.8503	25.27	0.67	0.750			
0.1904	12182.73	4.0190	4.0191	0.8563	25.27	0.67	0.750			
0.1929	12348.48	4.0160	4.0161	0.8554	25.27	0.67	0.750			
0.1955	12513.25	4.0130	4.0130	0.8594	25.27	0.67	0.750			
0.1981	12679.03	4.0100	4.0100	0.8611	25.27	0.67	0.750			
0.2007	12843.69	4.0070	4.0067	0.8645	25.27	0.67	0.750			
0.2033	13011.19	4.0040	4.0040	0.8691	25.27	0.67	0.750			
0.2059	13178.36	4.0010	4.0010	0.8701	25.27	0.67	0.750			
0.2085	13346.51	3.9980	3.9980	0.8736	25.27	0.67	0.750			
0.2112	13515.68	3.9950	3.9950	0.8780	25.27	0.67	0.750			
0.2138	13682.61	3.9920	3.9920	0.8760	25.27	0.67	0.750			
0.2164	13851.73	3.9890	3.9890	0.8741	25.27	0.67	0.750			
0.2191	14019.45	3.9860	3.9860	0.8774	25.27	0.67	0.750			
0.2217	14187.33	3.9830	3.9831	0.8827	25.28	0.68	0.750			
0.2243	14357.29	3.9800	3.9800	0.8846	25.28	0.68	0.750			
0.2270	14527.07	3.9770	3.9770	0.8891	25.28	0.68	0.750			
0.2297	14698.56	3.9740	3.9740	0.8890	25.28	0.68	0.750			
0.2323	14869.15	3.9710	3.9711	0.8953	25.28	0.68	0.750			
0.2351	15043.63	3.9680	3.9681	0.8963	25.28	0.68	0.750			
0.2377	15214.83	3.9650	3.9647	0.8960	25.28	0.68	0.750			
0.2404	15386.62	3.9620	3.9621	0.8975	25.28	0.68	0.750			
0.2431	15559.27	3.9590	3.9590	0.8988	25.28	0.68	0.750			
0.2458	15731.53	3.9560	3.9559	0.8983	25.28	0.68	0.750			
0.2485	15906.08	3.9530	3.9531	0.9019	25.28	0.68	0.750			
0.2512	16077.13	3.9500	3.9500	0.8976	25.28	0.68	0.750			
0.2539	16251.22	3.9470	3.9470	0.8990	25.28	0.68	0.750			
0.2566	16421.93	3.9440	3.9440	0.9000	25.28	0.68	0.750			
0.2593	16594.57	3.9410	3.9410	0.9043	25.27	0.67	0.750			
0.2620	16768.68	3.9380	3.9380	0.9090	25.27	0.67	0.750			
0.2647	16943.62	3.9350	3.9351	0.9133	25.27	0.67	0.750			
0.2675	17121.32	3.9320	3.9320	0.9077	25.27	0.67	0.750			
0.2702	17294.71	3.9290	3.9290	0.9106	25.28	0.68	0.750			
0.2730	17469.04	3.9260	3.9262	0.9110	25.28	0.68	0.750			
0.2757	17642.64	3.9230	3.9226	0.9103	25.28	0.68	0.750			
0.2784	17818.13	3.9200	3.9201	0.9102	25.28	0.68	0.750			
0.2811	17993.19	3.9170	3.9170	0.9141	25.28	0.68	0.750			
0.2839	18170.08	3.9140	3.9140	0.9197	25.27	0.67	0.750			
0.2867	18346.03	3.9110	3.9110	0.9139	25.27	0.67	0.750			
0.2894	18521.54	3.9080	3.9080	0.9174	25.27	0.67	0.750			
0.2922	18699.02	3.9050	3.9050	0.9157	25.26	0.66	0.750			
0.2949	18874.43	3.9020	3.9020	0.9177	25.26	0.66	0.750			
0.2977	19050.23	3.8990	3.8991	0.9244	25.26	0.66	0.750			
0.3004	19226.78	3.8960	3.8958	0.9278	25.25	0.65	0.750			
0.3033	19408.26	3.8930	3.8930	0.9232	25.25	0.65	0.750			
0.3060	19585.02	3.8900	3.8900	0.9287	25.24	0.64	0.750			
0.3088	19764.30	3.8870	3.8871	0.9322	25.24	0.64	0.750			
0.3116	19944.21	3.8840	3.8840	0.9326	25.23	0.63	0.750			
0.3144	20120.21	3.8810	3.8810	0.9298	25.23	0.63	0.750			
0.3172	20298.57	3.8780	3.8781	0.9319	25.22	0.62	0.750			
0.3200	20477.75	3.8750	3.8750	0.9374	25.22	0.62	0.750			
0.3228	20660.25	3.8720	3.8720	0.9368	25.21	0.61	0.750			
0.3256	20839.14	3.8690	3.8690	0.9309	25.21	0.61	0.750			
0.3285	21021.47	3.8660	3.8660	0.9237	25.20	0.60	0.750			
0.3312	21195.98	3.8630	3.8630	0.9311	25.19	0.59	0.750			
0.3339	21372.12	3.8600	3.8600	0.9309	25.18	0.58	0.750			
0.3367	21551.30	3.8570	3.8570	0.9346	25.18	0.58	0.750			
0.3395	21730.75	3.8540	3.8540	0.9374	25.17	0.57	0.750			
0.3424	21912.47	3.8510	3.8511	0.9391	25.16	0.56	0.750			
0.3452	22094.72	3.8480	3.8480	0.9403	25.15	0.55	0.750			
0.3480	22272.54	3.8450	3.8451	0.9539	25.15	0.55	0.750			
0.3508	22453.07	3.8420	3.8417	0.9553	25.14	0.54	0.750			
0.3537	22638.12	3.8390	3.8390	0.9680	25.13	0.53	0.750	0.346	0.441	
0.3567	22826.76	3.8360	3.8361	0.9785	25.12	0.52	0.750			
0.3597	23017.90	3.8330	3.8331	0.9897	25.10	0.50	0.750			
0.3626	23209.23	3.8300	3.8300	0.9867	25.09	0.49	0.750			
0.3657	23403.56	3.8270	3.8269	0.9833	25.08	0.48	0.750			
0.3685	23586.73	3.8240	3.8241	0.9841	25.07	0.47	0.750			
0.3715	23775.50	3.8210	3.8211	0.9897	25.06	0.46	0.750			
0.3745	23967.70	3.8180	3.8179	0.9732	25.05	0.45	0.750			
0.3774	24153.99	3.8150	3.8150	0.9685	25.05	0.45	0.750			
0.3803	24339.91	3.8120	3.8123	0.9515	25.04	0.44	0.750			
0.3831	24515.40	3.8090	3.8088	0.9748	25.03	0.43	0.750			
0.3859	24699.55	3.8060	3.8061	0.9920	25.02	0.42	0.750			
0.3889	24889.13	3.8030	3.8024	1.0142	25.01	0.41	0.750			
0.3920	25088.44	3.8000	3.8003	1.0459	25.00	0.40	0.750			
0.3953	25298.00	3.7970	3.7971	1.0797	24.98	0.38	0.750			
0.3986	25509.30	3.7940	3.7941	1.1082	24.97	0.37	0.750			
0.4019	25724.45	3.7910	3.7909	1.0989	24.96	0.36	0.750			
0.4052	25934.02	3.7880	3.7881	1.1209	24.95	0.35	0.750			
0.4086	26153.02	3.7850	3.7851	1.1409	24.94	0.34	0.750			
0.4121	26373.21	3.7820	3.7821	1.1584	24.92	0.32	0.750			
0.4156	26598.05	3.7790	3.7791	1.1692	24.91	0.31	0.750			
0.4191	26821.59	3.7760	3.7760	1.1873	24.90	0.30	0.750			
0.4227	27050.14	3.7730	3.7731	1.2076	24.89	0.29	0.750			
0.4264	27286.48	3.7700	3.7701	1.2372	24.88	0.28	0.750			
0.4300	27521.78	3.7670	3.7671	1.2511	24.87	0.27	0.750			
0.4339	27766.62	3.7640	3.7640	1.2784	24.85	0.25	0.750			
0.4378	28019.04	3.7610	3.7609	1.2887	24.84	0.24	0.750			
0.4416	28262.36	3.7580	3.7581	1.3185	24.83	0.23	0.750			
0.4456	28518.12	3.7550	3.7550	1.3569	24.82	0.22	0.750			
0.4498	28787.39	3.7520	3.7517	1.3644	24.80	0.20	0.750			
0.4539	29052.05	3.7490	3.7491	1.3784	24.79	0.19	0.750			
0.4580	29309.83	3.7460	3.7463	1.4285	24.78	0.18	0.750			
0.4623	29590.38	3.7430	3.7429	1.4534	24.76	0.16	0.750			
0.4668	29874.31	3.7400	3.7399	1.4973	24.75	0.15	0.750			
0.4712	30158.52	3.7370	3.7369	1.5510	24.73	0.13	0.750			
0.4760	30465.47	3.7340	3.7342	1.6158	24.72	0.12	0.750			
0.4811	30792.15	3.7310	3.7311	1.6732	24.70	0.10	0.750			
0.4861	31107.34	3.7280	3.7283	1.7162	24.69	0.09	0.750			
0.4912	31434.52	3.7250	3.7246	1.7305	24.67	0.07	0.750			
0.4965	31777.47	3.7220	3.7216	1.7824	24.65	0.05	0.750			
0.5018	32116.35	3.7190	3.7190	1.8189	24.64	0.04	0.750			
0.5075	32481.40	3.7160	3.7164	1.9115	24.62	0.02	0.750			
0.5134	32856.93	3.7130	3.7132	1.9523	24.60	-0.00	0.750			
0.5192	33231.84	3.7100	3.7098	2.0566	24.58	-0.02	0.750			
0.5253	33618.95	3.7070	3.7070	2.0299	24.56	-0.04	0.750			
0.5315	34018.69	3.7040	3.7040	2.0655	24.55	-0.05	0.750			
0.5378	34421.57	3.7010	3.7007	2.1253	24.53	-0.07	0.750			
0.5444	34840.49	3.6980	3.6982	2.2256	24.52	-0.08	0.750			
0.5512	35274.23	3.6950	3.6947	2.2795	24.50	-0.10	0.750			
0.5584	35736.23	3.6920	3.6918	2.3566	24.49	-0.11	0.750			
0.5653	36180.83	3.6890	3.6888	2.4008	24.48	-0.12	0.750			
0.5723	36627.26	3.6860	3.6863	2.4311	24.47	-0.13	0.750			
0.5798	37106.09	3.6830	3.6829	2.5107	24.47	-0.13	0.750			
0.5875	37598.32	3.6800	3.6802	2.6176	24.46	-0.14	0.750			
0.5956	38119.11	3.6770	3.6767	2.6765	24.46	-0.14	0.750			
0.6038	38640.26	3.6740	3.6739	2.6453	24.46	-0.14	0.750			
0.6116	39141.34	3.6710	3.6715	2.5909	24.46	-0.14	0.750			
0.6191	39624.16	3.6680	3.6681	2.4688	24.46	-0.14	0.750			
0.6264	40091.99	3.6650	3.6649	2.3553	24.46	-0.14	0.750			
0.6336	40550.94	3.6620	3.6619	2.2266	24.46	-0.14	0.750			
0.6396	40935.99	3.6590	3.6594	2.0010	24.46	-0.14	0.750			
0.6451	41289.33	3.6560	3.6566	1.8243	24.48	-0.12	0.750			
0.6503	41622.00	3.6530	3.6526	1.6808	24.49	-0.11	0.750			
0.6551	41926.49	3.6500	3.6506	1.5479	24.49	-0.11	0.750			
0.6598	42225.63	3.6470	3.6472	1.4562	24.50	-0.10	0.750			
0.6641	42501.98	3.6440	3.6440	1.3447	24.50	-0.10	0.750			
0.6678	42738.79	3.6410	3.6410	1.2369	24.51	-0.09	0.750			
0.6711	42948.77	3.6380	3.6380	1.1235	24.52	-0.08	0.750			
0.6743	43156.35	3.6350	3.6350	1.0689	24.54	-0.06	0.750			
0.6774	43352.20	3.6320	3.6320	1.0196	24.54	-0.06	0.750			
0.6804	43543.39	3.6290	3.6289	0.9733	24.55	-0.05	0.750			
0.6832	43725.61	3.6260	3.6261	0.9374	24.55	-0.05	0.750			
0.6860	43902.30	3.6230	3.6231	0.9073	24.56	-0.04	0.750			
0.6886	44070.54	3.6200	3.6198	0.8685	24.56	-0.04	0.750			
0.6912	44235.53	3.6170	3.6172	0.8293	24.57	-0.03	0.750			
0.6937	44394.32	3.6140	3.6140	0.7916	24.58	-0.02	0.750			
0.6960	44545.80	3.6110	3.6110	0.7424	24.58	-0.02	0.750			
0.6982	44685.87	3.6080	3.6080	0.6846	24.59	-0.01	0.750			
0.7001	44808.63	3.6050	3.6050	0.6160	24.60	-0.00	0.750			
0.7019	44920.05	3.6020	3.6019	0.5558	24.60	0.00	0.750			
0.7034	45019.32	3.5990	3.5990	0.4946	24.61	0.01	0.750			
0.7048	45107.62	3.5960	3.5959	0.4397	24.61	0.01	0.750			
0.7060	45185.78	3.5930	3.5930	0.3860	24.62	0.02	0.750			
0.7071	45255.16	3.5900	3.5900	0.3331	24.62	0.02	0.750			
0.7080	45314.74	3.5870	3.5869	0.2838	24.62	0.02	0.750			
0.7088	45364.84	3.5840	3.5841	0.2329	24.63	0.03	0.750			
0.7094	45404.25	3.5810	3.5811	0.1800	24.63	0.03	0.750			
0.7099	45434.80	3.5780	3.5783	0.1249	24.63	0.03	0.750			
0.7102	45453.54	3.5750	3.5763	0.0640	24.63	0.03	0.750			
