Ah_balance (normalized)	Ah_balance (mAh)	Voltage - fit (V)	Voltage -  interpolate (V)	dQ/dV (1/V)	Temperature (°C)	Temperature - diff (°C)	Current (C)	R_DC 0ms (mOhm)	R_DC 50ms (mOhm)	R_DC 50 ms PEC (mOhm)
0.0478	3061.31	4.1980	4.1980	0.7711	25.83	0.52	0.750			
0.0501	3207.87	4.1950	4.1950	0.7588	25.84	0.53	0.750			
0.0524	3353.49	4.1920	4.1920	0.7483	25.84	0.53	0.750			
0.0546	3493.10	4.1890	4.1891	0.7431	25.84	0.53	0.750			
0.0568	3634.61	4.1860	4.1861	0.7442	25.85	0.54	0.750			
0.0590	3777.55	4.1830	4.1824	0.7453	25.85	0.54	0.750			
0.0612	3919.90	4.1800	4.1801	0.7488	25.85	0.54	0.750			
0.0635	4066.08	4.1770	4.1771	0.7513	25.86	0.55	0.750			
0.0658	4212.52	4.1740	4.1740	0.7580	25.86	0.55	0.750			
0.0681	4359.68	4.1710	4.1710	0.7658	25.86	0.55	0.750			
0.0703	4501.03	4.1680	4.1680	0.7583	25.87	0.56	0.750			
0.0726	4648.52	4.1650	4.1650	0.7638	25.87	0.56	0.750			
0.0749	4796.77	4.1620	4.1620	0.7661	25.88	0.57	0.750			
0.0773	4944.13	4.1590	4.1590	0.7577	25.88	0.57	0.750			
0.0795	5089.80	4.1560	4.1561	0.7623	25.88	0.57	0.750			
0.0818	5233.76	4.1530	4.1531	0.7597	25.89	0.58	0.750			
0.0840	5379.15	4.1500	4.1497	0.7630	25.89	0.58	0.750			
0.0863	5525.21	4.1470	4.1471	0.7645	25.89	0.58	0.750			
0.0887	5674.42	4.1440	4.1440	0.7591	25.89	0.58	0.750			
0.0910	5821.11	4.1410	4.1410	0.7698	25.89	0.58	0.750			
0.0933	5968.27	4.1380	4.1381	0.7660	25.89	0.58	0.750			
0.0955	6114.62	4.1350	4.1350	0.7702	25.89	0.58	0.750			
0.0979	6262.66	4.1320	4.1322	0.7721	25.89	0.58	0.750			
0.1002	6412.10	4.1290	4.1290	0.7727	25.90	0.59	0.750			
0.1025	6562.32	4.1260	4.1260	0.7758	25.90	0.59	0.750			
0.1049	6711.28	4.1230	4.1230	0.7811	25.90	0.59	0.750			
0.1072	6858.07	4.1200	4.1200	0.7740	25.91	0.60	0.750			
0.1095	7008.42	4.1170	4.1169	0.7791	25.91	0.60	0.750			
0.1118	7158.21	4.1140	4.1140	0.7777	25.91	0.60	0.750			
0.1142	7309.63	4.1110	4.1111	0.7749	25.91	0.60	0.750			
0.1165	7456.82	4.1080	4.1080	0.7764	25.92	0.61	0.750			
0.1188	7604.45	4.1050	4.1051	0.7777	25.92	0.61	0.750			
0.1211	7753.06	4.1020	4.1017	0.7813	25.92	0.61	0.750			
0.1235	7903.36	4.0990	4.0991	0.7867	25.92	0.61	0.750			
0.1259	8059.01	4.0960	4.0960	0.7745	25.92	0.61	0.750			
0.1282	8207.97	4.0930	4.0930	0.7864	25.93	0.62	0.750			
0.1306	8355.36	4.0900	4.0901	0.7848	25.93	0.62	0.750			
0.1329	8506.14	4.0870	4.0872	0.7918	25.93	0.62	0.750			
0.1353	8658.14	4.0840	4.0841	0.7952	25.93	0.62	0.750			
0.1377	8812.81	4.0810	4.0811	0.7993	25.94	0.63	0.750			
0.1401	8969.07	4.0780	4.0781	0.8058	25.94	0.63	0.750			
0.1426	9125.78	4.0750	4.0751	0.8077	25.94	0.63	0.750			
0.1450	9277.57	4.0720	4.0720	0.8017	25.95	0.64	0.750			
0.1474	9432.43	4.0690	4.0690	0.8065	25.95	0.64	0.750			
0.1498	9588.67	4.0660	4.0659	0.8057	25.95	0.64	0.750			
0.1522	9743.12	4.0630	4.0630	0.8096	25.95	0.64	0.750			
0.1547	9899.98	4.0600	4.0601	0.8170	25.96	0.65	0.750			
0.1571	10055.71	4.0570	4.0570	0.8186	25.96	0.65	0.750			
0.1596	10213.71	4.0540	4.0540	0.8176	25.96	0.65	0.750			
0.1620	10370.87	4.0510	4.0510	0.8177	25.96	0.65	0.750			
0.1645	10527.78	4.0480	4.0481	0.8168	25.96	0.65	0.750			
0.1669	10682.72	4.0450	4.0450	0.8224	25.97	0.66	0.750			
0.1693	10838.39	4.0420	4.0421	0.8270	25.97	0.66	0.750			
0.1719	10998.61	4.0390	4.0387	0.8334	25.97	0.66	0.750			
0.1744	11160.84	4.0360	4.0362	0.8389	25.97	0.66	0.750			
0.1770	11324.97	4.0330	4.0331	0.8418	25.98	0.67	0.750			
0.1795	11489.28	4.0300	4.0300	0.8452	25.98	0.67	0.750			
0.1820	11647.82	4.0270	4.0271	0.8370	25.99	0.68	0.750			
0.1845	11808.45	4.0240	4.0239	0.8404	25.99	0.68	0.750			
0.1871	11973.39	4.0210	4.0209	0.8357	25.99	0.68	0.750			
0.1896	12133.48	4.0180	4.0181	0.8429	25.99	0.68	0.750			
0.1921	12293.66	4.0150	4.0151	0.8450	25.99	0.68	0.750			
0.1946	12456.92	4.0120	4.0121	0.8513	25.99	0.68	0.750			
0.1972	12618.54	4.0090	4.0088	0.8507	25.99	0.68	0.750			
0.1997	12782.82	4.0060	4.0061	0.8542	26.00	0.69	0.750			
0.2023	12949.26	4.0030	4.0031	0.8483	26.00	0.69	0.750			
0.2048	13109.35	4.0000	4.0002	0.8585	26.00	0.69	0.750			
0.2074	13272.18	3.9970	3.9971	0.8605	26.01	0.70	0.750			
0.2100	13437.71	3.9940	3.9942	0.8637	26.01	0.70	0.750			
0.2126	13606.20	3.9910	3.9912	0.8674	26.01	0.70	0.750			
0.2152	13775.79	3.9880	3.9881	0.8760	26.01	0.70	0.750			
0.2179	13946.28	3.9850	3.9850	0.8777	26.01	0.70	0.750			
0.2205	14111.47	3.9820	3.9819	0.8668	26.01	0.70	0.750			
0.2231	14277.71	3.9790	3.9790	0.8709	26.01	0.70	0.750			
0.2257	14446.48	3.9760	3.9761	0.8664	26.01	0.70	0.750			
0.2283	14612.45	3.9730	3.9731	0.8731	26.01	0.70	0.750			
0.2310	14781.57	3.9700	3.9700	0.8781	26.01	0.70	0.750			
0.2336	14948.86	3.9670	3.9667	0.8767	26.01	0.70	0.750			
0.2362	15116.95	3.9640	3.9641	0.8784	26.01	0.70	0.750			
0.2388	15286.14	3.9610	3.9610	0.8739	26.01	0.70	0.750			
0.2415	15455.45	3.9580	3.9581	0.8763	26.01	0.70	0.750			
0.2441	15621.90	3.9550	3.9550	0.8742	26.01	0.70	0.750			
0.2467	15788.95	3.9520	3.9519	0.8758	26.01	0.70	0.750			
0.2493	15958.34	3.9490	3.9491	0.8762	26.01	0.70	0.750			
0.2520	16126.97	3.9460	3.9460	0.8778	26.01	0.70	0.750			
0.2547	16297.79	3.9430	3.9430	0.8829	26.02	0.71	0.750			
0.2573	16468.65	3.9400	3.9401	0.8826	26.02	0.71	0.750			
0.2599	16633.63	3.9370	3.9370	0.8841	26.02	0.71	0.750			
0.2626	16805.52	3.9340	3.9340	0.8761	26.02	0.71	0.750			
0.2652	16973.65	3.9310	3.9310	0.8772	26.01	0.70	0.750			
0.2678	17141.35	3.9280	3.9281	0.8807	26.01	0.70	0.750			
0.2705	17311.44	3.9250	3.9251	0.8776	26.01	0.70	0.750			
0.2731	17479.14	3.9220	3.9220	0.8772	26.01	0.70	0.750			
0.2757	17647.11	3.9190	3.9191	0.8718	26.01	0.70	0.750			
0.2783	17813.50	3.9160	3.9161	0.8709	26.00	0.69	0.750			
0.2810	17982.88	3.9130	3.9130	0.8782	26.00	0.69	0.750			
0.2836	18147.63	3.9100	3.9095	0.8716	26.00	0.69	0.750			
0.2862	18315.82	3.9070	3.9071	0.8734	26.00	0.69	0.750			
0.2888	18485.64	3.9040	3.9040	0.8783	26.00	0.69	0.750			
0.2915	18654.37	3.9010	3.9010	0.8770	25.99	0.68	0.750			
0.2941	18823.98	3.8980	3.8981	0.8837	25.99	0.68	0.750			
0.2967	18991.42	3.8950	3.8950	0.8796	25.99	0.68	0.750			
0.2994	19162.32	3.8920	3.8919	0.8704	25.99	0.68	0.750			
0.3020	19327.30	3.8890	3.8890	0.8777	25.98	0.67	0.750			
0.3046	19496.25	3.8860	3.8861	0.8797	25.98	0.67	0.750			
0.3073	19665.50	3.8830	3.8830	0.8831	25.97	0.66	0.750			
0.3099	19835.04	3.8800	3.8801	0.8843	25.97	0.66	0.750			
0.3126	20006.41	3.8770	3.8770	0.8774	25.96	0.65	0.750			
0.3152	20174.76	3.8740	3.8740	0.8864	25.95	0.64	0.750			
0.3179	20345.48	3.8710	3.8710	0.8884	25.94	0.63	0.750			
0.3205	20513.04	3.8680	3.8682	0.8851	25.93	0.62	0.750			
0.3232	20684.34	3.8650	3.8651	0.8963	25.93	0.62	0.750			
0.3259	20856.81	3.8620	3.8621	0.8957	25.92	0.61	0.750			
0.3286	21030.43	3.8590	3.8590	0.9029	25.92	0.61	0.750			
0.3314	21206.44	3.8560	3.8560	0.9132	25.91	0.60	0.750			
0.3340	21378.25	3.8530	3.8529	0.9077	25.91	0.60	0.750			
0.3368	21553.93	3.8500	3.8501	0.9108	25.90	0.59	0.750			
0.3394	21724.64	3.8470	3.8470	0.9056	25.89	0.58	0.750			
0.3421	21894.87	3.8440	3.8442	0.9154	25.88	0.57	0.750			
0.3448	22070.26	3.8410	3.8412	0.9220	25.87	0.56	0.750	0.281	0.422	
0.3476	22249.16	3.8380	3.8384	0.9376	25.87	0.56	0.750			
0.3505	22433.32	3.8350	3.8353	0.9366	25.86	0.55	0.750			
0.3534	22614.65	3.8320	3.8322	0.9487	25.86	0.55	0.750			
0.3562	22799.32	3.8290	3.8291	0.9669	25.85	0.54	0.750			
0.3590	22978.39	3.8260	3.8253	0.9533	25.85	0.54	0.750			
0.3619	23163.22	3.8230	3.8232	0.9627	25.84	0.53	0.750			
0.3649	23351.14	3.8200	3.8202	0.9785	25.83	0.52	0.750			
0.3679	23544.26	3.8170	3.8171	0.9947	25.82	0.51	0.750			
0.3709	23738.49	3.8140	3.8138	1.0095	25.81	0.50	0.750			
0.3739	23926.68	3.8110	3.8110	0.9903	25.80	0.49	0.750			
0.3768	24116.14	3.8080	3.8081	1.0052	25.79	0.48	0.750			
0.3799	24311.24	3.8050	3.8051	1.0201	25.78	0.47	0.750			
0.3829	24507.17	3.8020	3.8019	1.0302	25.77	0.46	0.750			
0.3860	24706.11	3.7990	3.7991	1.0461	25.76	0.45	0.750			
0.3891	24905.53	3.7960	3.7961	1.0398	25.75	0.44	0.750			
0.3922	25103.54	3.7930	3.7931	1.0644	25.74	0.43	0.750			
0.3955	25309.00	3.7900	3.7902	1.0925	25.73	0.42	0.750			
0.3987	25518.14	3.7870	3.7872	1.1002	25.72	0.41	0.750			
0.4021	25732.15	3.7840	3.7842	1.1286	25.71	0.40	0.750			
0.4055	25953.70	3.7810	3.7811	1.1540	25.70	0.39	0.750			
0.4091	26181.65	3.7780	3.7778	1.1676	25.69	0.38	0.750			
0.4125	26402.86	3.7750	3.7750	1.1777	25.68	0.37	0.750			
0.4161	26631.44	3.7720	3.7721	1.2071	25.67	0.36	0.750			
0.4198	26865.96	3.7690	3.7690	1.2283	25.66	0.35	0.750			
0.4235	27105.27	3.7660	3.7660	1.2269	25.64	0.33	0.750			
0.4272	27338.59	3.7630	3.7632	1.2563	25.63	0.32	0.750			
0.4309	27580.13	3.7600	3.7602	1.2927	25.62	0.31	0.750			
0.4349	27832.27	3.7570	3.7565	1.3092	25.61	0.30	0.750			
0.4389	28088.21	3.7540	3.7541	1.3138	25.59	0.28	0.750			
0.4428	28336.74	3.7510	3.7513	1.4037	25.58	0.27	0.750			
0.4471	28613.78	3.7480	3.7476	1.4834	25.57	0.26	0.750			
0.4516	28903.61	3.7450	3.7450	1.5255	25.55	0.24	0.750			
0.4564	29212.45	3.7420	3.7426	1.5421	25.54	0.23	0.750			
0.4613	29521.26	3.7390	3.7393	1.5885	25.52	0.21	0.750			
0.4661	29829.90	3.7360	3.7361	1.6121	25.50	0.19	0.750			
0.4709	30138.70	3.7330	3.7326	1.6365	25.48	0.17	0.750			
0.4757	30443.40	3.7300	3.7302	1.6407	25.47	0.16	0.750			
0.4807	30762.84	3.7270	3.7273	1.6972	25.45	0.14	0.750			
0.4859	31097.22	3.7240	3.7240	1.7579	25.43	0.12	0.750			
0.4913	31443.03	3.7210	3.7208	1.7913	25.42	0.11	0.750			
0.4966	31784.59	3.7180	3.7179	1.8537	25.40	0.09	0.750			
0.5023	32144.57	3.7150	3.7149	1.9139	25.39	0.08	0.750			
0.5082	32522.31	3.7120	3.7117	1.9677	25.37	0.06	0.750			
0.5142	32906.02	3.7090	3.7091	2.0210	25.35	0.04	0.750			
0.5203	33301.33	3.7060	3.7061	2.0645	25.32	0.01	0.750			
0.5266	33701.43	3.7030	3.7029	2.1193	25.30	-0.01	0.750			
0.5328	34102.33	3.7000	3.7000	2.1666	25.28	-0.03	0.750			
0.5395	34526.99	3.6970	3.6969	2.2209	25.28	-0.03	0.750			
0.5463	34965.86	3.6940	3.6938	2.3137	25.27	-0.04	0.750			
0.5534	35418.04	3.6910	3.6909	2.3893	25.26	-0.05	0.750			
0.5606	35877.31	3.6880	3.6880	2.3972	25.25	-0.06	0.750			
0.5680	36349.76	3.6850	3.6851	2.3977	25.23	-0.08	0.750			
0.5754	36823.51	3.6820	3.6819	2.4085	25.21	-0.10	0.750			
0.5825	37282.24	3.6790	3.6788	2.3632	25.20	-0.11	0.750			
0.5897	37740.72	3.6760	3.6762	2.3161	25.20	-0.11	0.750			
0.5966	38182.46	3.6730	3.6734	2.2322	25.20	-0.11	0.750			
0.6032	38603.04	3.6700	3.6702	2.1293	25.20	-0.11	0.750			
0.6092	38990.05	3.6670	3.6669	1.9761	25.20	-0.11	0.750			
0.6150	39362.72	3.6640	3.6640	1.8814	25.20	-0.11	0.750			
0.6205	39713.87	3.6610	3.6608	1.7715	25.21	-0.10	0.750			
0.6256	40039.06	3.6580	3.6580	1.6375	25.21	-0.10	0.750			
0.6302	40335.58	3.6550	3.6551	1.5066	25.22	-0.09	0.750			
0.6346	40613.84	3.6520	3.6521	1.4064	25.22	-0.09	0.750			
0.6387	40876.41	3.6490	3.6489	1.3269	25.23	-0.08	0.750			
0.6423	41109.58	3.6460	3.6460	1.2269	25.23	-0.08	0.750			
0.6459	41337.51	3.6430	3.6429	1.1706	25.24	-0.07	0.750			
0.6494	41558.47	3.6400	3.6400	1.0955	25.24	-0.07	0.750			
0.6525	41761.48	3.6370	3.6370	1.0505	25.24	-0.07	0.750			
0.6555	41954.03	3.6340	3.6342	1.0119	25.25	-0.06	0.750			
0.6585	42142.04	3.6310	3.6307	0.9743	25.25	-0.06	0.750			
0.6613	42325.68	3.6280	3.6280	0.9409	25.26	-0.05	0.750			
0.6641	42503.65	3.6250	3.6251	0.9103	25.26	-0.05	0.750			
0.6668	42677.18	3.6220	3.6221	0.8777	25.27	-0.04	0.750			
0.6695	42849.04	3.6190	3.6190	0.8487	25.28	-0.03	0.750			
0.6719	43004.16	3.6160	3.6160	0.7949	25.28	-0.03	0.750			
0.6743	43152.54	3.6130	3.6130	0.7497	25.29	-0.02	0.750			
0.6764	43292.32	3.6100	3.6100	0.7046	25.29	-0.02	0.750			
0.6785	43423.73	3.6070	3.6070	0.6574	25.30	-0.01	0.750			
0.6804	43545.11	3.6040	3.6040	0.6098	25.30	-0.01	0.750			
0.6822	43657.79	3.6010	3.6010	0.5637	25.31	-0.00	0.750			
0.6838	43761.16	3.5980	3.5978	0.5149	25.31	-0.00	0.750			
0.6853	43856.10	3.5950	3.5951	0.4682	25.31	0.00	0.750			
0.6866	43941.29	3.5920	3.5920	0.4196	25.32	0.01	0.750			
0.6878	44017.45	3.5890	3.5890	0.3716	25.32	0.01	0.750			
0.6888	44083.57	3.5860	3.5860	0.3198	25.32	0.01	0.750			
0.6897	44140.73	3.5830	3.5829	0.2730	25.32	0.01	0.750			
0.6904	44188.33	3.5800	3.5801	0.2245	25.33	0.02	0.750			
0.6910	44227.19	3.5770	3.5770	0.1764	25.33	0.02	0.750			
0.6915	44256.70	3.5740	3.5745	0.1263	25.33	0.02	0.750			
0.6918	44276.06	3.5710	3.5716	0.0742	25.33	0.02	0.750			
