Ah_balance (normalized)	Ah_balance (mAh)	Voltage - fit (V)	Voltage -  interpolate (V)	dQ/dV (1/V)	Temperature (°C)	Temperature - diff (°C)	Current (C)	R_DC 0ms (mOhm)	R_DC 50ms (mOhm)	R_DC 50 ms PEC (mOhm)
0.0501	3206.79	4.1960	4.1961	0.7450	25.54	0.42	0.750			
0.0523	3349.15	4.1930	4.1931	0.7448	25.54	0.42	0.750			
0.0546	3493.05	4.1900	4.1900	0.7482	25.54	0.42	0.750			
0.0568	3636.64	4.1870	4.1870	0.7521	25.54	0.42	0.750			
0.0591	3781.13	4.1840	4.1841	0.7519	25.54	0.42	0.750			
0.0614	3926.54	4.1810	4.1810	0.7532	25.54	0.42	0.750			
0.0636	4072.79	4.1780	4.1780	0.7517	25.54	0.42	0.750			
0.0659	4216.38	4.1750	4.1751	0.7544	25.54	0.42	0.750			
0.0681	4360.50	4.1720	4.1719	0.7541	25.54	0.42	0.750			
0.0704	4505.68	4.1690	4.1689	0.7561	25.54	0.42	0.750			
0.0727	4650.96	4.1660	4.1660	0.7538	25.54	0.42	0.750			
0.0749	4796.40	4.1630	4.1631	0.7574	25.55	0.43	0.750			
0.0772	4941.99	4.1600	4.1600	0.7599	25.55	0.43	0.750			
0.0795	5087.31	4.1570	4.1570	0.7622	25.55	0.43	0.750			
0.0818	5233.53	4.1540	4.1540	0.7621	25.55	0.43	0.750			
0.0841	5380.44	4.1510	4.1510	0.7656	25.55	0.43	0.750			
0.0864	5528.23	4.1480	4.1480	0.7633	25.55	0.43	0.750			
0.0887	5674.92	4.1450	4.1449	0.7660	25.56	0.44	0.750			
0.0909	5820.74	4.1420	4.1421	0.7667	25.56	0.44	0.750			
0.0932	5967.75	4.1390	4.1388	0.7686	25.56	0.44	0.750			
0.0956	6115.53	4.1360	4.1360	0.7694	25.56	0.44	0.750			
0.0979	6265.02	4.1330	4.1330	0.7685	25.56	0.44	0.750			
0.1002	6411.57	4.1300	4.1301	0.7739	25.57	0.45	0.750			
0.1025	6561.13	4.1270	4.1270	0.7762	25.57	0.45	0.750			
0.1048	6708.91	4.1240	4.1238	0.7744	25.57	0.45	0.750			
0.1072	6858.25	4.1210	4.1210	0.7770	25.57	0.45	0.750			
0.1095	7008.38	4.1180	4.1181	0.7764	25.57	0.45	0.750			
0.1118	7157.70	4.1150	4.1150	0.7768	25.57	0.45	0.750			
0.1142	7307.42	4.1120	4.1120	0.7815	25.57	0.45	0.750			
0.1165	7455.53	4.1090	4.1090	0.7816	25.57	0.45	0.750			
0.1188	7605.58	4.1060	4.1060	0.7858	25.57	0.45	0.750			
0.1212	7756.83	4.1030	4.1031	0.7901	25.57	0.45	0.750			
0.1236	7909.23	4.1000	4.1000	0.7907	25.57	0.45	0.750			
0.1260	8061.91	4.0970	4.0970	0.7916	25.58	0.46	0.750			
0.1283	8213.35	4.0940	4.0941	0.7931	25.58	0.46	0.750			
0.1307	8365.39	4.0910	4.0911	0.7947	25.58	0.46	0.750			
0.1331	8518.47	4.0880	4.0880	0.7957	25.58	0.46	0.750			
0.1355	8672.39	4.0850	4.0849	0.7907	25.58	0.46	0.750			
0.1379	8823.52	4.0820	4.0821	0.7953	25.59	0.47	0.750			
0.1402	8974.56	4.0790	4.0791	0.7960	25.59	0.47	0.750			
0.1426	9128.73	4.0760	4.0757	0.8016	25.59	0.47	0.750			
0.1450	9281.79	4.0730	4.0731	0.8024	25.59	0.47	0.750			
0.1475	9437.98	4.0700	4.0701	0.8051	25.60	0.48	0.750			
0.1499	9595.00	4.0670	4.0670	0.8130	25.60	0.48	0.750			
0.1524	9751.60	4.0640	4.0640	0.8146	25.60	0.48	0.750			
0.1548	9904.17	4.0610	4.0609	0.8072	25.61	0.49	0.750			
0.1572	10059.84	4.0580	4.0580	0.8135	25.61	0.49	0.750			
0.1597	10220.28	4.0550	4.0550	0.8063	25.61	0.49	0.750			
0.1621	10372.42	4.0520	4.0520	0.8133	25.61	0.49	0.750			
0.1645	10528.91	4.0490	4.0491	0.8186	25.61	0.49	0.750			
0.1669	10683.85	4.0460	4.0461	0.8206	25.61	0.49	0.750			
0.1694	10841.87	4.0430	4.0431	0.8316	25.61	0.49	0.750			
0.1719	11003.25	4.0400	4.0401	0.8348	25.62	0.50	0.750			
0.1744	11163.80	4.0370	4.0371	0.8292	25.62	0.50	0.750			
0.1770	11324.90	4.0340	4.0341	0.8406	25.62	0.50	0.750			
0.1794	11481.99	4.0310	4.0311	0.8340	25.63	0.51	0.750			
0.1819	11641.82	4.0280	4.0282	0.8421	25.63	0.51	0.750			
0.1844	11804.63	4.0250	4.0250	0.8452	25.63	0.51	0.750			
0.1870	11968.35	4.0220	4.0221	0.8502	25.63	0.51	0.750			
0.1896	12134.65	4.0190	4.0190	0.8546	25.63	0.51	0.750			
0.1921	12297.23	4.0160	4.0160	0.8497	25.63	0.51	0.750			
0.1947	12461.30	4.0130	4.0130	0.8521	25.63	0.51	0.750			
0.1973	12624.36	4.0100	4.0100	0.8541	25.64	0.52	0.750			
0.1998	12785.80	4.0070	4.0071	0.8517	25.64	0.52	0.750			
0.2023	12949.69	4.0040	4.0040	0.8587	25.64	0.52	0.750			
0.2049	13114.09	4.0010	4.0008	0.8626	25.65	0.53	0.750			
0.2075	13280.19	3.9980	3.9981	0.8692	25.65	0.53	0.750			
0.2101	13448.87	3.9950	3.9951	0.8700	25.65	0.53	0.750			
0.2128	13617.59	3.9920	3.9921	0.8722	25.65	0.53	0.750			
0.2154	13787.47	3.9890	3.9890	0.8808	25.65	0.53	0.750			
0.2180	13951.73	3.9860	3.9858	0.8718	25.65	0.53	0.750			
0.2206	14120.52	3.9830	3.9829	0.8701	25.65	0.53	0.750			
0.2232	14287.39	3.9800	3.9800	0.8701	25.66	0.54	0.750			
0.2259	14455.13	3.9770	3.9771	0.8722	25.66	0.54	0.750			
0.2285	14622.52	3.9740	3.9741	0.8786	25.67	0.55	0.750			
0.2311	14790.58	3.9710	3.9710	0.8769	25.67	0.55	0.750			
0.2337	14959.64	3.9680	3.9680	0.8725	25.67	0.55	0.750			
0.2364	15127.08	3.9650	3.9651	0.8763	25.67	0.55	0.750			
0.2390	15295.77	3.9620	3.9620	0.8785	25.67	0.55	0.750			
0.2416	15464.49	3.9590	3.9590	0.8804	25.67	0.55	0.750			
0.2443	15632.45	3.9560	3.9561	0.8803	25.67	0.55	0.750			
0.2469	15801.54	3.9530	3.9530	0.8813	25.67	0.55	0.750			
0.2496	15973.14	3.9500	3.9500	0.8859	25.67	0.55	0.750			
0.2522	16143.84	3.9470	3.9470	0.8856	25.67	0.55	0.750			
0.2549	16312.93	3.9440	3.9438	0.8829	25.67	0.55	0.750			
0.2575	16482.69	3.9410	3.9411	0.8831	25.67	0.55	0.750			
0.2602	16652.06	3.9380	3.9380	0.8826	25.67	0.55	0.750			
0.2628	16821.73	3.9350	3.9350	0.8846	25.67	0.55	0.750			
0.2655	16991.93	3.9320	3.9321	0.8851	25.67	0.55	0.750			
0.2682	17161.73	3.9290	3.9289	0.8844	25.67	0.55	0.750			
0.2708	17332.71	3.9260	3.9260	0.8785	25.67	0.55	0.750			
0.2734	17500.12	3.9230	3.9230	0.8778	25.66	0.54	0.750			
0.2760	17667.09	3.9200	3.9201	0.8843	25.66	0.54	0.750			
0.2787	17838.05	3.9170	3.9170	0.8851	25.65	0.53	0.750			
0.2814	18008.23	3.9140	3.9140	0.8850	25.65	0.53	0.750			
0.2840	18179.04	3.9110	3.9111	0.8869	25.65	0.53	0.750			
0.2867	18350.21	3.9080	3.9080	0.8888	25.65	0.53	0.750			
0.2894	18521.47	3.9050	3.9050	0.8868	25.64	0.52	0.750			
0.2920	18689.81	3.9020	3.9020	0.8808	25.64	0.52	0.750			
0.2947	18858.16	3.8990	3.8991	0.8830	25.64	0.52	0.750			
0.2973	19029.26	3.8960	3.8960	0.8855	25.64	0.52	0.750			
0.3000	19198.33	3.8930	3.8930	0.8869	25.63	0.51	0.750			
0.3026	19368.77	3.8900	3.8900	0.8871	25.63	0.51	0.750			
0.3053	19539.31	3.8870	3.8869	0.8881	25.63	0.51	0.750			
0.3080	19712.29	3.8840	3.8840	0.8864	25.62	0.50	0.750			
0.3106	19881.32	3.8810	3.8811	0.8869	25.62	0.50	0.750			
0.3133	20049.64	3.8780	3.8780	0.8910	25.61	0.49	0.750			
0.3160	20221.63	3.8750	3.8750	0.8947	25.60	0.48	0.750			
0.3186	20392.79	3.8720	3.8720	0.8933	25.60	0.48	0.750			
0.3214	20566.65	3.8690	3.8690	0.8918	25.59	0.47	0.750			
0.3240	20738.42	3.8660	3.8661	0.8965	25.59	0.47	0.750			
0.3267	20910.42	3.8630	3.8630	0.8977	25.58	0.46	0.750			
0.3294	21080.15	3.8600	3.8600	0.8955	25.57	0.45	0.750			
0.3321	21252.18	3.8570	3.8570	0.9009	25.57	0.45	0.750			
0.3348	21426.77	3.8540	3.8540	0.9018	25.56	0.44	0.750			
0.3375	21602.78	3.8510	3.8509	0.8931	25.55	0.43	0.750			
0.3402	21772.95	3.8480	3.8481	0.9132	25.54	0.42	0.750			
0.3429	21945.28	3.8450	3.8449	0.9232	25.53	0.41	0.750			
0.3457	22124.51	3.8420	3.8421	0.9272	25.53	0.41	0.750	0.313	0.424	
0.3485	22303.77	3.8390	3.8393	0.9413	25.52	0.40	0.750			
0.3514	22487.56	3.8360	3.8361	0.9517	25.52	0.40	0.750			
0.3543	22672.48	3.8330	3.8331	0.9605	25.51	0.39	0.750			
0.3572	22859.31	3.8300	3.8300	0.9624	25.50	0.38	0.750			
0.3600	23040.23	3.8270	3.8271	0.9597	25.50	0.38	0.750			
0.3629	23224.50	3.8240	3.8240	0.9680	25.49	0.37	0.750			
0.3658	23412.20	3.8210	3.8210	0.9797	25.48	0.36	0.750			
0.3687	23599.58	3.8180	3.8181	0.9811	25.47	0.35	0.750			
0.3717	23788.22	3.8150	3.8150	0.9918	25.46	0.34	0.750			
0.3747	23979.69	3.8120	3.8121	0.9999	25.45	0.33	0.750			
0.3777	24173.38	3.8090	3.8090	1.0126	25.44	0.32	0.750			
0.3808	24368.58	3.8060	3.8059	1.0237	25.43	0.31	0.750			
0.3839	24567.37	3.8030	3.8030	1.0191	25.42	0.30	0.750			
0.3869	24759.42	3.8000	3.8001	1.0364	25.40	0.28	0.750			
0.3900	24958.96	3.7970	3.7971	1.0555	25.39	0.27	0.750			
0.3932	25162.81	3.7940	3.7933	1.0692	25.38	0.26	0.750			
0.3964	25369.61	3.7910	3.7911	1.0895	25.37	0.25	0.750			
0.3997	25581.08	3.7880	3.7881	1.1087	25.36	0.24	0.750			
0.4031	25799.31	3.7850	3.7851	1.1346	25.36	0.24	0.750			
0.4065	26017.39	3.7820	3.7820	1.1356	25.35	0.23	0.750			
0.4100	26237.71	3.7790	3.7790	1.1557	25.34	0.22	0.750			
0.4134	26460.19	3.7760	3.7760	1.1788	25.33	0.21	0.750			
0.4171	26695.13	3.7730	3.7729	1.1790	25.32	0.20	0.750			
0.4206	26918.41	3.7700	3.7700	1.2066	25.31	0.19	0.750			
0.4242	27148.57	3.7670	3.7671	1.2355	25.30	0.18	0.750			
0.4280	27390.34	3.7640	3.7642	1.2585	25.29	0.17	0.750			
0.4318	27632.85	3.7610	3.7607	1.2911	25.28	0.16	0.750			
0.4357	27884.23	3.7580	3.7582	1.3267	25.27	0.15	0.750			
0.4397	28143.51	3.7550	3.7552	1.3616	25.26	0.14	0.750			
0.4439	28410.86	3.7520	3.7520	1.4036	25.25	0.13	0.750			
0.4482	28684.36	3.7490	3.7490	1.3985	25.23	0.11	0.750			
0.4525	28958.12	3.7460	3.7460	1.4282	25.22	0.10	0.750			
0.4568	29232.39	3.7430	3.7431	1.4758	25.21	0.09	0.750			
0.4612	29516.55	3.7400	3.7401	1.5139	25.19	0.07	0.750			
0.4659	29815.79	3.7370	3.7372	1.5382	25.18	0.06	0.750			
0.4705	30111.69	3.7340	3.7340	1.5854	25.16	0.04	0.750			
0.4753	30419.43	3.7310	3.7313	1.6320	25.15	0.03	0.750			
0.4804	30742.43	3.7280	3.7279	1.6812	25.14	0.02	0.750			
0.4853	31059.83	3.7250	3.7248	1.7066	25.12	0.00	0.750			
0.4905	31394.68	3.7220	3.7220	1.7897	25.11	-0.01	0.750			
0.4960	31744.30	3.7190	3.7190	1.8203	25.09	-0.03	0.750			
0.5016	32099.35	3.7160	3.7161	1.8941	25.08	-0.04	0.750			
0.5073	32465.90	3.7130	3.7132	1.9221	25.07	-0.05	0.750			
0.5131	32840.53	3.7100	3.7101	1.9728	25.05	-0.07	0.750			
0.5191	33222.76	3.7070	3.7068	2.0333	25.04	-0.08	0.750			
0.5253	33616.47	3.7040	3.7038	2.0992	25.03	-0.09	0.750			
0.5317	34029.47	3.7010	3.7010	2.1855	25.02	-0.10	0.750			
0.5384	34457.54	3.6980	3.6980	2.2233	25.01	-0.11	0.750			
0.5453	34896.79	3.6950	3.6951	2.2731	25.00	-0.12	0.750			
0.5520	35330.39	3.6920	3.6918	2.2851	24.99	-0.13	0.750			
0.5589	35770.44	3.6890	3.6891	2.3425	24.97	-0.15	0.750			
0.5660	36226.64	3.6860	3.6861	2.3930	24.96	-0.16	0.750			
0.5734	36699.45	3.6830	3.6829	2.4426	24.96	-0.16	0.750			
0.5810	37186.52	3.6800	3.6798	2.4620	24.96	-0.16	0.750			
0.5886	37667.41	3.6770	3.6770	2.4221	24.96	-0.16	0.750			
0.5956	38118.23	3.6740	3.6742	2.3185	24.96	-0.16	0.750			
0.6025	38562.06	3.6710	3.6709	2.1950	24.96	-0.16	0.750			
0.6089	38970.18	3.6680	3.6682	2.0838	24.97	-0.15	0.750			
0.6150	39358.59	3.6650	3.6654	1.9637	24.98	-0.14	0.750			
0.6207	39727.56	3.6620	3.6619	1.8418	24.98	-0.14	0.750			
0.6261	40072.22	3.6590	3.6589	1.7121	24.98	-0.14	0.750			
0.6310	40382.55	3.6560	3.6560	1.5782	24.98	-0.14	0.750			
0.6356	40678.49	3.6530	3.6531	1.4817	24.99	-0.13	0.750			
0.6397	40943.50	3.6500	3.6500	1.3640	24.99	-0.13	0.750			
0.6437	41195.65	3.6470	3.6468	1.2555	25.00	-0.12	0.750			
0.6473	41424.81	3.6440	3.6441	1.1872	25.01	-0.11	0.750			
0.6507	41644.02	3.6410	3.6412	1.1326	25.01	-0.11	0.750			
0.6540	41854.28	3.6380	3.6381	1.0801	25.02	-0.10	0.750			
0.6571	42054.68	3.6350	3.6351	1.0237	25.03	-0.09	0.750			
0.6601	42245.29	3.6320	3.6321	0.9853	25.03	-0.09	0.750			
0.6630	42430.81	3.6290	3.6291	0.9585	25.04	-0.08	0.750			
0.6658	42612.90	3.6260	3.6260	0.9286	25.05	-0.07	0.750			
0.6685	42786.44	3.6230	3.6228	0.8835	25.06	-0.06	0.750			
0.6712	42954.52	3.6200	3.6200	0.8522	25.07	-0.05	0.750			
0.6737	43117.06	3.6170	3.6171	0.8136	25.07	-0.05	0.750			
0.6761	43271.29	3.6140	3.6139	0.7698	25.08	-0.04	0.750			
0.6783	43414.35	3.6110	3.6110	0.7194	25.08	-0.04	0.750			
0.6805	43549.33	3.6080	3.6078	0.6567	25.09	-0.03	0.750			
0.6823	43670.26	3.6050	3.6051	0.5996	25.09	-0.03	0.750			
0.6840	43777.73	3.6020	3.6022	0.5556	25.10	-0.02	0.750			
0.6856	43876.07	3.5990	3.5993	0.5069	25.10	-0.02	0.750			
0.6870	43967.92	3.5960	3.5965	0.4576	25.11	-0.01	0.750			
0.6883	44052.79	3.5930	3.5933	0.4173	25.11	-0.01	0.750			
0.6896	44131.85	3.5900	3.5902	0.3746	25.11	-0.01	0.750			
0.6907	44202.88	3.5870	3.5869	0.3326	25.11	-0.01	0.750			
0.6915	44258.66	3.5840	3.5839	0.2652	25.12	-0.00	0.750			
0.6923	44305.05	3.5810	3.5811	0.2149	25.12	-0.00	0.750			
0.6928	44341.89	3.5780	3.5782	0.1634	25.12	-0.00	0.750			
0.6933	44368.79	3.5750	3.5756	0.1085	25.12	0.00	0.750			
0.6935	44384.39	3.5720	3.5740	0.0492	25.12	0.00	0.750			
