Ah_balance (normalized)	Ah_balance (mAh)	Voltage - fit (V)	Voltage -  interpolate (V)	dQ/dV (1/V)	Temperature (°C)	Temperature - diff (°C)	Current (C)	R_DC 0ms (mOhm)	R_DC 50ms (mOhm)	R_DC 50 ms PEC (mOhm)
0.0463	2963.18	4.1990	4.1990	0.7545	25.29	0.59	0.750			
0.0486	3111.20	4.1960	4.1960	0.7727	25.29	0.59	0.750			
0.0509	3255.34	4.1930	4.1930	0.7595	25.30	0.60	0.750			
0.0531	3400.59	4.1900	4.1900	0.7597	25.30	0.60	0.750			
0.0554	3546.21	4.1870	4.1871	0.7589	25.30	0.60	0.750			
0.0577	3691.49	4.1840	4.1841	0.7647	25.30	0.60	0.750			
0.0600	3838.73	4.1810	4.1810	0.7681	25.30	0.60	0.750			
0.0623	3986.71	4.1780	4.1780	0.7638	25.30	0.60	0.750			
0.0646	4134.20	4.1750	4.1751	0.7702	25.31	0.61	0.750			
0.0669	4280.42	4.1720	4.1721	0.7675	25.31	0.61	0.750			
0.0692	4428.24	4.1690	4.1690	0.7703	25.31	0.61	0.750			
0.0715	4575.86	4.1660	4.1661	0.7719	25.31	0.61	0.750			
0.0738	4723.74	4.1630	4.1631	0.7726	25.31	0.61	0.750			
0.0762	4874.23	4.1600	4.1600	0.7777	25.31	0.61	0.750			
0.0785	5023.03	4.1570	4.1570	0.7734	25.31	0.61	0.750			
0.0808	5171.40	4.1540	4.1539	0.7754	25.31	0.61	0.750			
0.0831	5320.96	4.1510	4.1510	0.7758	25.31	0.61	0.750			
0.0855	5471.64	4.1480	4.1480	0.7694	25.31	0.61	0.750			
0.0878	5618.41	4.1450	4.1450	0.7736	25.31	0.61	0.750			
0.0901	5765.53	4.1420	4.1421	0.7787	25.31	0.61	0.750			
0.0924	5914.85	4.1390	4.1390	0.7826	25.31	0.61	0.750			
0.0948	6065.54	4.1360	4.1362	0.7854	25.31	0.61	0.750			
0.0971	6216.81	4.1330	4.1330	0.7887	25.31	0.61	0.750			
0.0995	6370.51	4.1300	4.1301	0.7843	25.31	0.61	0.750			
0.1019	6519.42	4.1270	4.1271	0.7874	25.31	0.61	0.750			
0.1042	6668.49	4.1240	4.1241	0.7878	25.31	0.61	0.750			
0.1066	6819.24	4.1210	4.1204	0.7933	25.31	0.61	0.750			
0.1089	6971.57	4.1180	4.1181	0.8000	25.31	0.61	0.750			
0.1114	7127.40	4.1150	4.1151	0.8009	25.31	0.61	0.750			
0.1138	7284.20	4.1120	4.1120	0.8074	25.32	0.62	0.750			
0.1162	7437.22	4.1090	4.1091	0.7996	25.32	0.62	0.750			
0.1186	7591.88	4.1060	4.1058	0.8041	25.32	0.62	0.750			
0.1210	7746.03	4.1030	4.1030	0.8014	25.32	0.62	0.750			
0.1235	7901.03	4.1000	4.0999	0.7982	25.32	0.62	0.750			
0.1258	8053.81	4.0970	4.0971	0.8027	25.32	0.62	0.750			
0.1283	8208.53	4.0940	4.0939	0.8054	25.32	0.62	0.750			
0.1306	8360.67	4.0910	4.0909	0.8059	25.32	0.62	0.750			
0.1331	8515.41	4.0880	4.0881	0.8138	25.32	0.62	0.750			
0.1356	8676.86	4.0850	4.0849	0.8026	25.33	0.63	0.750			
0.1380	8830.05	4.0820	4.0820	0.8082	25.33	0.63	0.750			
0.1404	8983.79	4.0790	4.0792	0.8156	25.33	0.63	0.750			
0.1428	9138.14	4.0760	4.0762	0.8199	25.34	0.64	0.750			
0.1452	9295.33	4.0730	4.0731	0.8258	25.34	0.64	0.750			
0.1477	9455.37	4.0700	4.0701	0.8304	25.34	0.64	0.750			
0.1503	9616.25	4.0670	4.0670	0.8365	25.34	0.64	0.750			
0.1528	9780.38	4.0640	4.0641	0.8423	25.34	0.64	0.750			
0.1553	9936.97	4.0610	4.0611	0.8579	25.34	0.64	0.750			
0.1579	10103.29	4.0580	4.0579	0.8752	25.34	0.64	0.750			
0.1605	10274.33	4.0550	4.0548	0.8801	25.34	0.64	0.750			
0.1633	10448.22	4.0520	4.0522	0.8840	25.35	0.65	0.750			
0.1660	10623.45	4.0490	4.0491	0.8889	25.35	0.65	0.750			
0.1686	10793.22	4.0460	4.0458	0.8768	25.35	0.65	0.750			
0.1712	10958.88	4.0430	4.0430	0.8641	25.35	0.65	0.750			
0.1737	11119.07	4.0400	4.0400	0.8474	25.35	0.65	0.750			
0.1763	11282.12	4.0370	4.0370	0.8526	25.36	0.66	0.750			
0.1788	11444.14	4.0340	4.0340	0.8537	25.36	0.66	0.750			
0.1814	11608.74	4.0310	4.0304	0.8612	25.36	0.66	0.750			
0.1840	11774.59	4.0280	4.0280	0.8662	25.36	0.66	0.750			
0.1866	11942.93	4.0250	4.0250	0.8711	25.36	0.66	0.750			
0.1893	12112.25	4.0220	4.0220	0.8742	25.36	0.66	0.750			
0.1919	12281.30	4.0190	4.0190	0.8771	25.36	0.66	0.750			
0.1945	12446.34	4.0160	4.0160	0.8769	25.36	0.66	0.750			
0.1971	12615.77	4.0130	4.0130	0.8786	25.36	0.66	0.750			
0.1998	12784.15	4.0100	4.0099	0.8816	25.36	0.66	0.750			
0.2024	12953.93	4.0070	4.0070	0.8846	25.37	0.67	0.750			
0.2051	13125.35	4.0040	4.0041	0.8875	25.37	0.67	0.750			
0.2077	13294.72	4.0010	4.0010	0.8909	25.37	0.67	0.750			
0.2104	13466.27	3.9980	3.9980	0.8868	25.37	0.67	0.750			
0.2131	13635.83	3.9950	3.9950	0.8901	25.37	0.67	0.750			
0.2157	13807.28	3.9920	3.9920	0.8962	25.37	0.67	0.750			
0.2184	13978.64	3.9890	3.9889	0.8994	25.37	0.67	0.750			
0.2211	14152.92	3.9860	3.9860	0.9020	25.37	0.67	0.750			
0.2239	14326.66	3.9830	3.9831	0.9046	25.37	0.67	0.750			
0.2266	14500.51	3.9800	3.9800	0.9074	25.38	0.68	0.750			
0.2293	14677.22	3.9770	3.9770	0.9102	25.38	0.68	0.750			
0.2320	14848.81	3.9740	3.9740	0.9056	25.38	0.68	0.750			
0.2348	15024.19	3.9710	3.9711	0.8999	25.38	0.68	0.750			
0.2374	15195.81	3.9680	3.9680	0.9060	25.38	0.68	0.750			
0.2402	15369.75	3.9650	3.9649	0.9107	25.38	0.68	0.750			
0.2429	15543.63	3.9620	3.9621	0.9137	25.38	0.68	0.750			
0.2456	15721.47	3.9590	3.9591	0.9135	25.38	0.68	0.750			
0.2484	15898.82	3.9560	3.9560	0.9208	25.38	0.68	0.750			
0.2512	16075.38	3.9530	3.9530	0.9269	25.39	0.69	0.750			
0.2540	16254.69	3.9500	3.9501	0.9301	25.39	0.69	0.750			
0.2567	16430.30	3.9470	3.9468	0.9315	25.39	0.69	0.750			
0.2595	16610.78	3.9440	3.9440	0.9342	25.39	0.69	0.750			
0.2624	16791.49	3.9410	3.9410	0.9355	25.39	0.69	0.750			
0.2652	16972.30	3.9380	3.9381	0.9375	25.40	0.70	0.750			
0.2680	17151.99	3.9350	3.9350	0.9336	25.40	0.70	0.750			
0.2708	17331.49	3.9320	3.9320	0.9331	25.40	0.70	0.750			
0.2736	17510.01	3.9290	3.9290	0.9356	25.40	0.70	0.750			
0.2764	17688.19	3.9260	3.9260	0.9380	25.40	0.70	0.750			
0.2792	17869.27	3.9230	3.9231	0.9467	25.40	0.70	0.750			
0.2821	18052.20	3.9200	3.9199	0.9489	25.40	0.70	0.750			
0.2849	18234.55	3.9170	3.9170	0.9452	25.40	0.70	0.750			
0.2877	18415.35	3.9140	3.9141	0.9518	25.40	0.70	0.750			
0.2906	18597.83	3.9110	3.9111	0.9572	25.40	0.70	0.750			
0.2935	18782.16	3.9080	3.9077	0.9603	25.40	0.70	0.750			
0.2964	18967.47	3.9050	3.9050	0.9590	25.40	0.70	0.750			
0.2993	19152.28	3.9020	3.9021	0.9613	25.40	0.70	0.750			
0.3022	19339.61	3.8990	3.8991	0.9704	25.40	0.70	0.750			
0.3051	19523.91	3.8960	3.8960	0.9621	25.40	0.70	0.750			
0.3080	19709.90	3.8930	3.8930	0.9615	25.40	0.70	0.750			
0.3108	19893.64	3.8900	3.8901	0.9644	25.40	0.70	0.750			
0.3137	20078.83	3.8870	3.8871	0.9702	25.40	0.70	0.750			
0.3167	20266.51	3.8840	3.8840	0.9777	25.40	0.70	0.750			
0.3196	20453.33	3.8810	3.8810	0.9784	25.40	0.70	0.750			
0.3225	20641.41	3.8780	3.8780	0.9743	25.39	0.69	0.750			
0.3254	20828.59	3.8750	3.8751	0.9814	25.39	0.69	0.750			
0.3284	21017.05	3.8720	3.8721	0.9874	25.38	0.68	0.750			
0.3313	21206.36	3.8690	3.8685	0.9881	25.38	0.68	0.750			
0.3343	21396.32	3.8660	3.8661	0.9905	25.38	0.68	0.750			
0.3373	21587.30	3.8630	3.8631	0.9983	25.38	0.68	0.750			
0.3403	21782.21	3.8600	3.8600	1.0050	25.37	0.67	0.750			
0.3433	21974.03	3.8570	3.8569	1.0015	25.37	0.67	0.750			
0.3463	22165.88	3.8540	3.8540	1.0061	25.37	0.67	0.750			
0.3494	22360.10	3.8510	3.8511	1.0140	25.36	0.66	0.750			
0.3524	22556.45	3.8480	3.8479	1.0197	25.36	0.66	0.750			
0.3555	22752.25	3.8450	3.8449	1.0239	25.35	0.65	0.750			
0.3586	22947.73	3.8420	3.8421	1.0307	25.34	0.64	0.750			
0.3617	23147.46	3.8390	3.8390	1.0386	25.33	0.63	0.750			
0.3648	23347.93	3.8360	3.8359	1.0469	25.32	0.62	0.750			
0.3680	23549.74	3.8330	3.8327	1.0512	25.31	0.61	0.750	0.346	0.442	
0.3711	23752.91	3.8300	3.8300	1.0562	25.30	0.60	0.750			
0.3743	23956.83	3.8270	3.8270	1.0585	25.30	0.60	0.750			
0.3775	24159.49	3.8240	3.8240	1.0597	25.29	0.59	0.750			
0.3807	24362.53	3.8210	3.8210	1.0611	25.28	0.58	0.750			
0.3839	24566.60	3.8180	3.8180	1.0624	25.27	0.57	0.750			
0.3870	24769.85	3.8150	3.8150	1.0627	25.27	0.57	0.750			
0.3902	24974.23	3.8120	3.8120	1.0681	25.26	0.56	0.750			
0.3934	25179.44	3.8090	3.8089	1.0705	25.25	0.55	0.750			
0.3967	25386.59	3.8060	3.8060	1.0649	25.24	0.54	0.750			
0.3998	25587.20	3.8030	3.8030	1.0776	25.23	0.53	0.750			
0.4030	25792.48	3.8000	3.8002	1.0917	25.21	0.51	0.750			
0.4063	26005.81	3.7970	3.7964	1.0996	25.20	0.50	0.750			
0.4096	26216.43	3.7940	3.7941	1.1165	25.19	0.49	0.750			
0.4130	26432.14	3.7910	3.7912	1.1378	25.18	0.48	0.750			
0.4165	26654.58	3.7880	3.7880	1.1605	25.17	0.47	0.750			
0.4200	26878.46	3.7850	3.7850	1.1629	25.16	0.46	0.750			
0.4235	27102.91	3.7820	3.7821	1.1802	25.15	0.45	0.750			
0.4271	27331.74	3.7790	3.7791	1.1995	25.13	0.43	0.750			
0.4307	27567.29	3.7760	3.7759	1.2095	25.12	0.42	0.750			
0.4343	27796.10	3.7730	3.7730	1.2255	25.11	0.41	0.750			
0.4380	28031.73	3.7700	3.7701	1.2488	25.10	0.40	0.750			
0.4418	28274.48	3.7670	3.7671	1.2732	25.09	0.39	0.750			
0.4456	28520.99	3.7640	3.7640	1.3059	25.07	0.37	0.750			
0.4496	28773.09	3.7610	3.7611	1.3357	25.05	0.35	0.750			
0.4537	29035.17	3.7580	3.7580	1.3643	25.03	0.33	0.750			
0.4579	29304.12	3.7550	3.7550	1.3932	25.02	0.32	0.750			
0.4620	29568.00	3.7520	3.7521	1.4243	25.01	0.31	0.750			
0.4663	29846.04	3.7490	3.7490	1.4497	25.00	0.30	0.750			
0.4707	30125.74	3.7460	3.7460	1.4936	24.98	0.28	0.750			
0.4752	30415.08	3.7430	3.7430	1.5261	24.97	0.27	0.750			
0.4798	30710.25	3.7400	3.7400	1.5770	24.95	0.25	0.750			
0.4847	31021.20	3.7370	3.7371	1.6226	24.94	0.24	0.750			
0.4896	31335.66	3.7340	3.7341	1.6690	24.92	0.22	0.750			
0.4946	31656.79	3.7310	3.7309	1.7106	24.90	0.20	0.750			
0.5000	31996.91	3.7280	3.7278	1.7570	24.89	0.19	0.750			
0.5052	32334.84	3.7250	3.7250	1.8049	24.87	0.17	0.750			
0.5107	32686.41	3.7220	3.7220	1.8466	24.85	0.15	0.750			
0.5164	33048.09	3.7190	3.7191	1.8820	24.83	0.13	0.750			
0.5222	33422.98	3.7160	3.7160	1.8673	24.81	0.11	0.750			
0.5278	33778.04	3.7130	3.7130	1.8892	24.79	0.09	0.750			
0.5334	34137.17	3.7100	3.7105	1.9007	24.77	0.07	0.750			
0.5391	34503.42	3.7070	3.7066	1.9742	24.76	0.06	0.750			
0.5449	34875.47	3.7040	3.7034	2.1051	24.74	0.04	0.750			
0.5513	35283.25	3.7010	3.7009	2.2335	24.73	0.03	0.750			
0.5585	35746.94	3.6980	3.6980	2.2813	24.71	0.01	0.750			
0.5655	36194.61	3.6950	3.6950	2.3127	24.69	-0.01	0.750			
0.5725	36642.56	3.6920	3.6923	2.4153	24.67	-0.03	0.750			
0.5800	37117.26	3.6890	3.6891	2.4744	24.66	-0.04	0.750			
0.5875	37600.81	3.6860	3.6864	2.5799	24.65	-0.05	0.750			
0.5956	38117.72	3.6830	3.6828	2.6053	24.64	-0.06	0.750			
0.6032	38607.39	3.6800	3.6799	2.7845	24.62	-0.08	0.750			
0.6118	39156.72	3.6770	3.6768	2.7614	24.61	-0.09	0.750			
0.6200	39681.81	3.6740	3.6735	2.7953	24.60	-0.10	0.750			
0.6287	40234.08	3.6710	3.6715	2.8767	24.58	-0.12	0.750			
0.6374	40792.36	3.6680	3.6680	3.0242	24.58	-0.12	0.750			
0.6463	41364.18	3.6650	3.6652	2.9735	24.57	-0.13	0.750			
0.6550	41920.89	3.6620	3.6620	2.7098	24.58	-0.12	0.750			
0.6626	42403.70	3.6590	3.6591	2.4355	24.58	-0.12	0.750			
0.6696	42852.67	3.6560	3.6556	2.2526	24.58	-0.12	0.750			
0.6759	43254.92	3.6530	3.6526	2.0193	24.59	-0.11	0.750			
0.6816	43622.36	3.6500	3.6500	1.8337	24.60	-0.10	0.750			
0.6868	43953.92	3.6470	3.6469	1.6474	24.60	-0.10	0.750			
0.6915	44257.97	3.6440	3.6442	1.4733	24.61	-0.09	0.750			
0.6957	44524.66	3.6410	3.6410	1.3011	24.61	-0.09	0.750			
0.6993	44754.78	3.6380	3.6382	1.1766	24.62	-0.08	0.750			
0.7024	44955.72	3.6350	3.6351	1.0690	24.62	-0.08	0.750			
0.7054	45146.21	3.6320	3.6318	0.9940	24.63	-0.07	0.750			
0.7082	45325.69	3.6290	3.6290	0.9467	24.63	-0.07	0.750			
0.7109	45500.37	3.6260	3.6260	0.9196	24.64	-0.06	0.750			
0.7137	45675.43	3.6230	3.6230	0.8995	24.65	-0.05	0.750			
0.7164	45849.99	3.6200	3.6200	0.8789	24.65	-0.05	0.750			
0.7190	46015.77	3.6170	3.6169	0.8469	24.66	-0.04	0.750			
0.7215	46179.03	3.6140	3.6140	0.8027	24.67	-0.03	0.750			
0.7239	46332.56	3.6110	3.6110	0.7553	24.68	-0.02	0.750			
0.7262	46473.83	3.6080	3.6080	0.6866	24.68	-0.02	0.750			
0.7281	46600.74	3.6050	3.6050	0.6170	24.69	-0.01	0.750			
0.7299	46711.93	3.6020	3.6020	0.5457	24.70	-0.00	0.750			
0.7314	46808.00	3.5990	3.5988	0.4743	24.70	0.00	0.750			
0.7327	46889.62	3.5960	3.5960	0.4083	24.70	0.00	0.750			
0.7338	46961.40	3.5930	3.5929	0.3499	24.71	0.01	0.750			
0.7347	47021.88	3.5900	3.5899	0.2904	24.71	0.01	0.750			
0.7355	47073.23	3.5870	3.5870	0.2367	24.71	0.01	0.750			
0.7361	47113.29	3.5840	3.5843	0.1811	24.72	0.02	0.750			
0.7366	47143.51	3.5810	3.5815	0.1213	24.72	0.02	0.750			
0.7369	47160.96	3.5780	3.5790	0.0591	24.72	0.02	0.750			
