Ah_balance (normalized)	Ah_balance (mAh)	Voltage - fit (V)	Voltage -  interpolate (V)	dQ/dV (1/V)	Temperature (°C)	Temperature - diff (°C)	Current (C)	R_DC 0ms (mOhm)	R_DC 50ms (mOhm)	R_DC 50 ms PEC (mOhm)
0.0476	3043.28	4.1990	4.1990	0.7487	25.57	0.47	0.750			
0.0498	3185.56	4.1960	4.1960	0.7419	25.57	0.47	0.750			
0.0520	3329.19	4.1930	4.1930	0.7480	25.57	0.47	0.750			
0.0543	3473.29	4.1900	4.1899	0.7513	25.57	0.47	0.750			
0.0565	3617.87	4.1870	4.1870	0.7536	25.57	0.47	0.750			
0.0588	3763.19	4.1840	4.1841	0.7552	25.57	0.47	0.750			
0.0611	3908.66	4.1810	4.1810	0.7546	25.57	0.47	0.750			
0.0633	4054.02	4.1780	4.1780	0.7578	25.57	0.47	0.750			
0.0656	4198.52	4.1750	4.1750	0.7559	25.57	0.47	0.750			
0.0679	4344.20	4.1720	4.1720	0.7606	25.57	0.47	0.750			
0.0702	4490.92	4.1690	4.1690	0.7617	25.57	0.47	0.750			
0.0725	4637.59	4.1660	4.1660	0.7621	25.57	0.47	0.750			
0.0748	4784.01	4.1630	4.1631	0.7652	25.58	0.48	0.750			
0.0770	4930.57	4.1600	4.1600	0.7663	25.58	0.48	0.750			
0.0793	5077.01	4.1570	4.1569	0.7682	25.58	0.48	0.750			
0.0816	5225.20	4.1540	4.1540	0.7675	25.58	0.48	0.750			
0.0839	5372.78	4.1510	4.1509	0.7645	25.58	0.48	0.750			
0.0863	5520.77	4.1480	4.1481	0.7730	25.58	0.48	0.750			
0.0886	5670.17	4.1450	4.1450	0.7705	25.58	0.48	0.750			
0.0909	5817.98	4.1420	4.1419	0.7669	25.58	0.48	0.750			
0.0932	5965.29	4.1390	4.1391	0.7654	25.58	0.48	0.750			
0.0955	6112.56	4.1360	4.1361	0.7604	25.58	0.48	0.750			
0.0978	6257.72	4.1330	4.1329	0.7611	25.58	0.48	0.750			
0.1000	6399.40	4.1300	4.1301	0.7589	25.59	0.49	0.750			
0.1023	6547.30	4.1270	4.1271	0.7698	25.59	0.49	0.750			
0.1046	6696.67	4.1240	4.1237	0.7770	25.59	0.49	0.750			
0.1070	6846.12	4.1210	4.1210	0.7827	25.59	0.49	0.750			
0.1093	6997.97	4.1180	4.1181	0.7860	25.59	0.49	0.750			
0.1117	7149.90	4.1150	4.1150	0.7891	25.59	0.49	0.750			
0.1141	7300.82	4.1120	4.1120	0.7875	25.59	0.49	0.750			
0.1165	7452.92	4.1090	4.1090	0.7881	25.59	0.49	0.750			
0.1188	7604.66	4.1060	4.1060	0.7899	25.59	0.49	0.750			
0.1212	7756.74	4.1030	4.1030	0.7864	25.59	0.49	0.750			
0.1235	7907.11	4.1000	4.1001	0.7871	25.59	0.49	0.750			
0.1259	8058.55	4.0970	4.0971	0.7877	25.59	0.49	0.750			
0.1283	8208.93	4.0940	4.0939	0.7878	25.59	0.49	0.750			
0.1306	8359.50	4.0910	4.0911	0.7931	25.59	0.49	0.750			
0.1330	8514.07	4.0880	4.0880	0.7925	25.59	0.49	0.750			
0.1354	8664.16	4.0850	4.0850	0.7993	25.59	0.49	0.750			
0.1378	8819.43	4.0820	4.0820	0.8053	25.60	0.50	0.750			
0.1402	8973.37	4.0790	4.0791	0.8096	25.60	0.50	0.750			
0.1427	9130.49	4.0760	4.0759	0.8118	25.60	0.50	0.750			
0.1451	9287.18	4.0730	4.0731	0.8103	25.60	0.50	0.750			
0.1475	9442.72	4.0700	4.0701	0.8115	25.60	0.50	0.750			
0.1500	9599.54	4.0670	4.0670	0.8137	25.61	0.51	0.750			
0.1524	9754.18	4.0640	4.0640	0.8122	25.61	0.51	0.750			
0.1549	9910.45	4.0610	4.0610	0.8150	25.61	0.51	0.750			
0.1573	10068.48	4.0580	4.0580	0.8109	25.61	0.51	0.750			
0.1598	10225.51	4.0550	4.0550	0.8177	25.61	0.51	0.750			
0.1622	10380.90	4.0520	4.0520	0.8213	25.61	0.51	0.750			
0.1646	10536.81	4.0490	4.0490	0.8271	25.61	0.51	0.750			
0.1671	10696.32	4.0460	4.0458	0.8298	25.61	0.51	0.750			
0.1696	10856.39	4.0430	4.0430	0.8353	25.61	0.51	0.750			
0.1722	11018.93	4.0400	4.0401	0.8378	25.61	0.51	0.750			
0.1747	11180.31	4.0370	4.0371	0.8387	25.62	0.52	0.750			
0.1772	11339.06	4.0340	4.0340	0.8382	25.62	0.52	0.750			
0.1797	11500.68	4.0310	4.0309	0.8431	25.62	0.52	0.750			
0.1822	11661.43	4.0280	4.0281	0.8459	25.62	0.52	0.750			
0.1848	11825.89	4.0250	4.0250	0.8534	25.62	0.52	0.750			
0.1874	11992.05	4.0220	4.0220	0.8591	25.63	0.53	0.750			
0.1899	12156.71	4.0190	4.0190	0.8539	25.63	0.53	0.750			
0.1925	12322.12	4.0160	4.0160	0.8610	25.63	0.53	0.750			
0.1951	12488.68	4.0130	4.0130	0.8555	25.63	0.53	0.750			
0.1977	12652.56	4.0100	4.0100	0.8585	25.63	0.53	0.750			
0.2002	12815.93	4.0070	4.0070	0.8617	25.63	0.53	0.750			
0.2028	12981.18	4.0040	4.0041	0.8637	25.63	0.53	0.750			
0.2054	13147.18	4.0010	4.0011	0.8656	25.63	0.53	0.750			
0.2081	13315.73	3.9980	3.9980	0.8646	25.63	0.53	0.750			
0.2106	13480.33	3.9950	3.9951	0.8681	25.63	0.53	0.750			
0.2133	13648.92	3.9920	3.9920	0.8742	25.63	0.53	0.750			
0.2159	13814.79	3.9890	3.9889	0.8734	25.63	0.53	0.750			
0.2185	13982.24	3.9860	3.9861	0.8794	25.63	0.53	0.750			
0.2211	14151.68	3.9830	3.9830	0.8863	25.63	0.53	0.750			
0.2238	14323.48	3.9800	3.9800	0.8898	25.64	0.54	0.750			
0.2265	14497.40	3.9770	3.9769	0.8919	25.64	0.54	0.750			
0.2292	14665.99	3.9740	3.9740	0.8877	25.64	0.54	0.750			
0.2318	14838.02	3.9710	3.9711	0.8876	25.64	0.54	0.750			
0.2345	15008.47	3.9680	3.9680	0.8846	25.64	0.54	0.750			
0.2371	15176.70	3.9650	3.9650	0.8854	25.65	0.55	0.750			
0.2398	15345.96	3.9620	3.9621	0.8902	25.65	0.55	0.750			
0.2425	15517.82	3.9590	3.9590	0.8925	25.65	0.55	0.750			
0.2452	15692.25	3.9560	3.9559	0.8818	25.65	0.55	0.750			
0.2478	15858.64	3.9530	3.9531	0.8888	25.65	0.55	0.750			
0.2505	16029.51	3.9500	3.9501	0.8936	25.64	0.54	0.750			
0.2531	16200.60	3.9470	3.9470	0.8987	25.64	0.54	0.750			
0.2558	16372.63	3.9440	3.9441	0.9032	25.64	0.54	0.750			
0.2585	16547.13	3.9410	3.9411	0.9029	25.64	0.54	0.750			
0.2613	16723.45	3.9380	3.9380	0.9074	25.63	0.53	0.750			
0.2641	16900.95	3.9350	3.9350	0.9137	25.63	0.53	0.750			
0.2667	17071.57	3.9320	3.9319	0.9011	25.63	0.53	0.750			
0.2695	17246.33	3.9290	3.9290	0.8980	25.63	0.53	0.750			
0.2722	17417.73	3.9260	3.9260	0.8963	25.63	0.53	0.750			
0.2748	17588.14	3.9230	3.9231	0.9000	25.62	0.52	0.750			
0.2775	17761.48	3.9200	3.9200	0.9031	25.62	0.52	0.750			
0.2802	17933.86	3.9170	3.9170	0.9057	25.62	0.52	0.750			
0.2829	18108.63	3.9140	3.9140	0.9033	25.62	0.52	0.750			
0.2857	18282.80	3.9110	3.9111	0.9100	25.61	0.51	0.750			
0.2884	18459.54	3.9080	3.9080	0.9055	25.61	0.51	0.750			
0.2912	18633.99	3.9050	3.9048	0.8967	25.61	0.51	0.750			
0.2938	18804.91	3.9020	3.9021	0.8932	25.61	0.51	0.750			
0.2965	18974.78	3.8990	3.8990	0.8883	25.60	0.50	0.750			
0.2991	19143.77	3.8960	3.8960	0.8887	25.60	0.50	0.750			
0.3018	19313.66	3.8930	3.8930	0.8912	25.59	0.49	0.750			
0.3044	19482.86	3.8900	3.8898	0.8922	25.59	0.49	0.750			
0.3072	19660.03	3.8870	3.8870	0.8911	25.58	0.48	0.750			
0.3098	19829.72	3.8840	3.8840	0.8972	25.57	0.47	0.750			
0.3125	20000.81	3.8810	3.8811	0.9017	25.56	0.46	0.750			
0.3152	20175.03	3.8780	3.8781	0.9082	25.55	0.45	0.750			
0.3179	20347.35	3.8750	3.8752	0.9138	25.55	0.45	0.750			
0.3207	20527.82	3.8720	3.8720	0.8971	25.54	0.44	0.750			
0.3234	20699.39	3.8690	3.8691	0.9097	25.54	0.44	0.750			
0.3261	20873.55	3.8660	3.8662	0.9184	25.54	0.44	0.750			
0.3289	21048.73	3.8630	3.8628	0.9175	25.53	0.43	0.750			
0.3317	21226.19	3.8600	3.8601	0.9179	25.52	0.42	0.750			
0.3344	21402.30	3.8570	3.8573	0.9241	25.51	0.41	0.750			
0.3372	21580.67	3.8540	3.8540	0.9332	25.50	0.40	0.750			
0.3401	21766.18	3.8510	3.8509	0.9494	25.49	0.39	0.750			
0.3428	21941.50	3.8480	3.8480	0.9294	25.48	0.38	0.750			
0.3456	22118.84	3.8450	3.8452	0.9231	25.47	0.37	0.750			
0.3484	22295.31	3.8420	3.8422	0.9331	25.46	0.36	0.750			
0.3511	22473.40	3.8390	3.8389	0.9461	25.46	0.36	0.750	0.327	0.446	
0.3540	22652.91	3.8360	3.8357	0.9509	25.45	0.35	0.750			
0.3568	22837.18	3.8330	3.8332	0.9614	25.44	0.34	0.750			
0.3598	23024.28	3.8300	3.8301	0.9613	25.43	0.33	0.750			
0.3627	23213.98	3.8270	3.8271	0.9830	25.42	0.32	0.750			
0.3655	23395.12	3.8240	3.8242	0.9737	25.40	0.30	0.750			
0.3684	23580.25	3.8210	3.8211	0.9784	25.40	0.30	0.750			
0.3714	23770.31	3.8180	3.8181	0.9886	25.39	0.29	0.750			
0.3744	23964.23	3.8150	3.8151	0.9985	25.38	0.28	0.750			
0.3775	24160.70	3.8120	3.8120	1.0133	25.37	0.27	0.750			
0.3805	24353.09	3.8090	3.8089	0.9951	25.36	0.26	0.750			
0.3834	24540.78	3.8060	3.8060	1.0050	25.35	0.25	0.750			
0.3865	24734.82	3.8030	3.8030	1.0190	25.34	0.24	0.750			
0.3896	24931.54	3.8000	3.8001	1.0304	25.32	0.22	0.750			
0.3927	25129.86	3.7970	3.7969	1.0455	25.31	0.21	0.750			
0.3958	25331.94	3.7940	3.7941	1.0425	25.30	0.20	0.750			
0.3988	25525.93	3.7910	3.7911	1.0659	25.29	0.19	0.750			
0.4021	25732.40	3.7880	3.7882	1.0989	25.29	0.19	0.750			
0.4054	25944.60	3.7850	3.7850	1.1127	25.28	0.18	0.750			
0.4088	26161.27	3.7820	3.7822	1.1471	25.27	0.17	0.750			
0.4123	26386.75	3.7790	3.7792	1.1780	25.25	0.15	0.750			
0.4160	26623.45	3.7760	3.7758	1.1916	25.24	0.14	0.750			
0.4195	26850.00	3.7730	3.7731	1.2006	25.23	0.13	0.750			
0.4231	27081.05	3.7700	3.7701	1.2254	25.21	0.11	0.750			
0.4268	27317.89	3.7670	3.7670	1.2553	25.20	0.10	0.750			
0.4307	27562.69	3.7640	3.7641	1.2587	25.19	0.09	0.750			
0.4344	27802.73	3.7610	3.7612	1.2896	25.18	0.08	0.750			
0.4383	28052.57	3.7580	3.7582	1.3265	25.17	0.07	0.750			
0.4424	28311.29	3.7550	3.7544	1.3614	25.16	0.06	0.750			
0.4465	28573.15	3.7520	3.7522	1.3869	25.15	0.05	0.750			
0.4507	28843.08	3.7490	3.7492	1.4305	25.13	0.03	0.750			
0.4551	29127.65	3.7460	3.7460	1.4505	25.12	0.02	0.750			
0.4597	29421.62	3.7430	3.7428	1.4612	25.11	0.01	0.750			
0.4639	29691.64	3.7400	3.7400	1.4520	25.10	0.00	0.750			
0.4683	29973.48	3.7370	3.7374	1.4775	25.09	-0.01	0.750			
0.4728	30257.77	3.7340	3.7342	1.5231	25.08	-0.02	0.750			
0.4774	30552.02	3.7310	3.7313	1.5712	25.07	-0.03	0.750			
0.4821	30856.23	3.7280	3.7285	1.6445	25.05	-0.05	0.750			
0.4871	31177.38	3.7250	3.7254	1.6990	25.03	-0.07	0.750			
0.4925	31518.27	3.7220	3.7221	1.7912	25.02	-0.08	0.750			
0.4980	31869.70	3.7190	3.7187	1.8226	25.01	-0.09	0.750			
0.5035	32224.14	3.7160	3.7160	1.8264	25.00	-0.10	0.750			
0.5091	32582.92	3.7130	3.7130	1.9052	24.99	-0.11	0.750			
0.5148	32944.75	3.7100	3.7104	1.9620	24.98	-0.12	0.750			
0.5207	33322.10	3.7070	3.7074	1.9918	24.97	-0.13	0.750			
0.5267	33710.79	3.7040	3.7035	2.1174	24.96	-0.14	0.750			
0.5331	34116.62	3.7010	3.7013	2.1650	24.94	-0.16	0.750			
0.5397	34540.35	3.6980	3.6983	2.1982	24.93	-0.17	0.750			
0.5466	34983.77	3.6950	3.6955	2.3008	24.93	-0.17	0.750			
0.5537	35435.88	3.6920	3.6917	2.2979	24.92	-0.18	0.750			
0.5608	35893.35	3.6890	3.6894	2.4465	24.91	-0.19	0.750			
0.5680	36349.04	3.6860	3.6855	2.3933	24.90	-0.20	0.750			
0.5752	36811.32	3.6830	3.6833	2.5585	24.89	-0.21	0.750			
0.5829	37302.94	3.6800	3.6801	2.6400	24.89	-0.21	0.750			
0.5907	37807.17	3.6770	3.6770	2.4870	24.88	-0.22	0.750			
0.5984	38300.36	3.6740	3.6741	2.4989	24.88	-0.22	0.750			
0.6058	38773.33	3.6710	3.6707	2.4728	24.88	-0.22	0.750			
0.6136	39268.19	3.6680	3.6685	2.4675	24.89	-0.21	0.750			
0.6204	39708.76	3.6650	3.6646	2.2848	24.91	-0.19	0.750			
0.6268	40113.22	3.6620	3.6622	2.1030	24.92	-0.18	0.750			
0.6327	40490.64	3.6590	3.6589	1.9244	24.93	-0.17	0.750			
0.6384	40855.17	3.6560	3.6563	1.7983	24.93	-0.17	0.750			
0.6434	41177.72	3.6530	3.6529	1.6480	24.94	-0.16	0.750			
0.6485	41501.72	3.6500	3.6502	1.5503	24.95	-0.15	0.750			
0.6526	41766.45	3.6470	3.6472	1.3987	24.96	-0.14	0.750			
0.6567	42026.27	3.6440	3.6441	1.2693	24.97	-0.13	0.750			
0.6601	42247.93	3.6410	3.6411	1.1713	24.97	-0.13	0.750			
0.6635	42461.97	3.6380	3.6382	1.1177	24.98	-0.12	0.750			
0.6668	42674.80	3.6350	3.6337	1.0631	24.99	-0.11	0.750			
0.6698	42867.51	3.6320	3.6323	1.0142	25.00	-0.10	0.750			
0.6728	43057.43	3.6290	3.6293	0.9816	25.00	-0.10	0.750			
0.6757	43243.35	3.6260	3.6262	0.9516	25.01	-0.09	0.750			
0.6786	43431.07	3.6230	3.6230	0.9376	25.02	-0.08	0.750			
0.6812	43599.42	3.6200	3.6201	0.8653	25.03	-0.07	0.750			
0.6838	43765.71	3.6170	3.6170	0.8251	25.03	-0.07	0.750			
0.6863	43920.78	3.6140	3.6142	0.7891	25.04	-0.06	0.750			
0.6886	44067.36	3.6110	3.6112	0.7385	25.05	-0.05	0.750			
0.6907	44204.29	3.6080	3.6082	0.6901	25.06	-0.04	0.750			
0.6927	44333.20	3.6050	3.6051	0.6379	25.06	-0.04	0.750			
0.6945	44451.06	3.6020	3.6022	0.5857	25.07	-0.03	0.750			
0.6963	44563.57	3.5990	3.5991	0.5409	25.07	-0.03	0.750			
0.6978	44659.55	3.5960	3.5960	0.4748	25.08	-0.02	0.750			
0.6991	44743.11	3.5930	3.5930	0.4163	25.08	-0.02	0.750			
0.7003	44818.15	3.5900	3.5900	0.3664	25.09	-0.01	0.750			
0.7013	44883.34	3.5870	3.5871	0.3154	25.09	-0.01	0.750			
0.7022	44939.17	3.5840	3.5843	0.2657	25.09	-0.01	0.750			
0.7029	44985.29	3.5810	3.5813	0.2157	25.10	-0.00	0.750			
0.7035	45021.79	3.5780	3.5773	0.1662	25.10	-0.00	0.750			
0.7039	45049.07	3.5750	3.5758	0.1167	25.10	-0.00	0.750			
0.7042	45066.20	3.5720	3.5738	0.0684	25.10	-0.00	0.750			
