Ah_balance (normalized)	Ah_balance (mAh)	Voltage - fit (V)	Voltage -  interpolate (V)	dQ/dV (1/V)	Temperature (°C)	Temperature - diff (°C)	Current (C)	R_DC 0ms (mOhm)	R_DC 50ms (mOhm)	R_DC 50 ms PEC (mOhm)
0.0004	24.60	4.1640	4.1640	-0.1353	24.73	0.01	-0.750			
0.0009	56.23	4.1610	4.1609	-0.1855	24.73	0.01	-0.750			
0.0015	94.94	4.1580	4.1580	-0.2327	24.73	0.01	-0.750			
0.0023	145.68	4.1550	4.1553	-0.2792	24.73	0.01	-0.750			
0.0032	203.99	4.1520	4.1519	-0.3229	24.72	0.00	-0.750			
0.0043	272.14	4.1490	4.1488	-0.3630	24.72	0.00	-0.750			
0.0054	345.58	4.1460	4.1461	-0.4040	24.72	-0.00	-0.750			
0.0067	427.49	4.1430	4.1430	-0.4388	24.72	-0.00	-0.750			
0.0081	515.20	4.1400	4.1400	-0.4755	24.71	-0.01	-0.750			
0.0095	608.90	4.1370	4.1370	-0.5069	24.71	-0.01	-0.750			
0.0111	712.42	4.1340	4.1339	-0.5434	24.70	-0.02	-0.750			
0.0128	821.13	4.1310	4.1309	-0.5678	24.70	-0.02	-0.750			
0.0146	932.93	4.1280	4.1280	-0.5899	24.70	-0.02	-0.750			
0.0164	1048.68	4.1250	4.1250	-0.6104	24.69	-0.03	-0.750			
0.0183	1168.40	4.1220	4.1219	-0.6312	24.69	-0.03	-0.750			
0.0202	1290.72	4.1190	4.1188	-0.6454	24.69	-0.03	-0.750			
0.0221	1415.71	4.1160	4.1162	-0.6657	24.69	-0.03	-0.750			
0.0242	1547.03	4.1130	4.1130	-0.6765	24.68	-0.04	-0.750			
0.0263	1682.23	4.1100	4.1100	-0.6916	24.68	-0.04	-0.750			
0.0284	1814.99	4.1070	4.1069	-0.6963	24.68	-0.04	-0.750			
0.0304	1948.36	4.1040	4.1041	-0.7000	24.68	-0.04	-0.750			
0.0326	2083.30	4.1010	4.1009	-0.6987	24.68	-0.04	-0.750			
0.0346	2214.98	4.0980	4.0980	-0.7115	24.68	-0.04	-0.750			
0.0367	2351.13	4.0950	4.0951	-0.7154	24.67	-0.05	-0.750			
0.0390	2493.35	4.0920	4.0916	-0.7279	24.67	-0.05	-0.750			
0.0412	2634.01	4.0890	4.0890	-0.7363	24.67	-0.05	-0.750			
0.0434	2775.94	4.0860	4.0860	-0.7448	24.67	-0.05	-0.750			
0.0456	2921.18	4.0830	4.0829	-0.7519	24.67	-0.05	-0.750			
0.0479	3067.41	4.0800	4.0799	-0.7622	24.67	-0.05	-0.750			
0.0502	3212.07	4.0770	4.0770	-0.7486	24.66	-0.06	-0.750			
0.0525	3361.17	4.0740	4.0739	-0.7596	24.66	-0.06	-0.750			
0.0548	3505.81	4.0710	4.0716	-0.7592	24.66	-0.06	-0.750			
0.0570	3648.42	4.0680	4.0678	-0.7561	24.66	-0.06	-0.750			
0.0593	3792.95	4.0650	4.0649	-0.7607	24.67	-0.05	-0.750			
0.0616	3939.33	4.0620	4.0620	-0.7620	24.67	-0.05	-0.750			
0.0639	4090.43	4.0590	4.0590	-0.7703	24.67	-0.05	-0.750			
0.0662	4238.53	4.0560	4.0559	-0.7685	24.68	-0.04	-0.750			
0.0685	4384.85	4.0530	4.0529	-0.7646	24.68	-0.04	-0.750			
0.0708	4529.50	4.0500	4.0499	-0.7707	24.68	-0.04	-0.750			
0.0730	4674.81	4.0470	4.0469	-0.7720	24.68	-0.04	-0.750			
0.0754	4824.34	4.0440	4.0440	-0.7674	24.69	-0.03	-0.750			
0.0777	4974.87	4.0410	4.0410	-0.7831	24.69	-0.03	-0.750			
0.0801	5125.14	4.0380	4.0384	-0.7878	24.69	-0.03	-0.750			
0.0825	5277.06	4.0350	4.0347	-0.7916	24.69	-0.03	-0.750			
0.0848	5429.77	4.0320	4.0320	-0.7916	24.70	-0.02	-0.750			
0.0872	5581.56	4.0290	4.0290	-0.7945	24.70	-0.02	-0.750			
0.0896	5736.13	4.0260	4.0260	-0.7992	24.71	-0.01	-0.750			
0.0921	5896.29	4.0230	4.0230	-0.7634	24.71	-0.01	-0.750			
0.0944	6041.21	4.0200	4.0199	-0.7317	24.71	-0.01	-0.750			
0.0965	6178.45	4.0170	4.0174	-0.7099	24.72	-0.00	-0.750			
0.0985	6305.88	4.0140	4.0140	-0.7153	24.72	0.00	-0.750			
0.1006	6437.33	4.0110	4.0106	-0.7184	24.72	0.00	-0.750			
0.1027	6571.51	4.0080	4.0078	-0.7365	24.73	0.01	-0.750			
0.1049	6716.71	4.0050	4.0054	-0.7655	24.73	0.01	-0.750			
0.1074	6875.06	4.0020	4.0019	-0.7982	24.73	0.01	-0.750			
0.1099	7034.32	3.9990	3.9989	-0.8116	24.73	0.01	-0.750			
0.1124	7191.00	3.9960	3.9960	-0.8016	24.72	0.00	-0.750			
0.1148	7344.94	3.9930	3.9930	-0.8047	24.72	0.00	-0.750			
0.1172	7499.08	3.9900	3.9908	-0.8074	24.72	0.00	-0.750			
0.1195	7650.90	3.9870	3.9868	-0.7985	24.72	0.00	-0.750			
0.1219	7804.33	3.9840	3.9839	-0.8064	24.73	0.01	-0.750			
0.1244	7959.17	3.9810	3.9810	-0.8061	24.73	0.01	-0.750			
0.1269	8120.09	3.9780	3.9779	-0.8235	24.74	0.02	-0.750			
0.1293	8276.71	3.9750	3.9749	-0.8189	24.74	0.02	-0.750			
0.1317	8431.47	3.9720	3.9718	-0.8175	24.74	0.02	-0.750			
0.1342	8588.18	3.9690	3.9689	-0.8283	24.75	0.03	-0.750			
0.1367	8746.59	3.9660	3.9660	-0.8312	24.75	0.03	-0.750			
0.1392	8906.34	3.9630	3.9629	-0.8373	24.76	0.04	-0.750			
0.1418	9074.41	3.9600	3.9599	-0.8504	24.76	0.04	-0.750			
0.1443	9233.81	3.9570	3.9570	-0.8643	24.76	0.04	-0.750			
0.1469	9403.66	3.9540	3.9539	-0.8553	24.76	0.04	-0.750			
0.1495	9569.21	3.9510	3.9505	-0.8466	24.77	0.05	-0.750			
0.1520	9730.37	3.9480	3.9477	-0.8410	24.77	0.05	-0.750			
0.1545	9890.98	3.9450	3.9457	-0.8400	24.77	0.05	-0.750			
0.1570	10049.94	3.9420	3.9419	-0.8357	24.77	0.05	-0.750			
0.1595	10209.31	3.9390	3.9390	-0.8480	24.77	0.05	-0.750			
0.1621	10375.24	3.9360	3.9359	-0.8539	24.78	0.06	-0.750			
0.1647	10542.97	3.9330	3.9329	-0.8654	24.78	0.06	-0.750			
0.1673	10709.47	3.9300	3.9309	-0.8609	24.78	0.06	-0.750			
0.1699	10872.82	3.9270	3.9270	-0.8649	24.78	0.06	-0.750			
0.1725	11039.10	3.9240	3.9240	-0.8646	24.79	0.07	-0.750			
0.1750	11201.84	3.9210	3.9209	-0.8601	24.79	0.07	-0.750			
0.1776	11365.80	3.9180	3.9179	-0.8598	24.80	0.08	-0.750			
0.1803	11537.31	3.9150	3.9152	-0.8710	24.80	0.08	-0.750			
0.1829	11702.51	3.9120	3.9120	-0.8764	24.80	0.08	-0.750			
0.1855	11874.14	3.9090	3.9089	-0.8724	24.81	0.09	-0.750			
0.1881	12039.98	3.9060	3.9061	-0.8700	24.81	0.09	-0.750			
0.1907	12207.50	3.9030	3.9029	-0.8687	24.82	0.10	-0.750			
0.1933	12373.66	3.9000	3.9000	-0.8669	24.82	0.10	-0.750			
0.1959	12537.89	3.8970	3.8970	-0.8821	24.83	0.11	-0.750			
0.1986	12710.00	3.8940	3.8938	-0.8750	24.83	0.11	-0.750			
0.2012	12878.24	3.8910	3.8909	-0.8765	24.83	0.11	-0.750			
0.2039	13049.36	3.8880	3.8880	-0.8834	24.84	0.12	-0.750			
0.2066	13219.63	3.8850	3.8849	-0.8798	24.84	0.12	-0.750			
0.2092	13389.07	3.8820	3.8818	-0.8813	24.85	0.13	-0.750			
0.2118	13554.14	3.8790	3.8790	-0.8715	24.85	0.13	-0.750			
0.2144	13723.49	3.8760	3.8760	-0.8785	24.86	0.14	-0.750			
0.2171	13892.72	3.8730	3.8732	-0.8778	24.86	0.14	-0.750			
0.2196	14056.72	3.8700	3.8700	-0.8853	24.86	0.14	-0.750			
0.2223	14229.28	3.8670	3.8670	-0.8871	24.86	0.14	-0.750			
0.2250	14400.25	3.8640	3.8639	-0.8928	24.87	0.15	-0.750			
0.2277	14574.46	3.8610	3.8610	-0.8978	24.87	0.15	-0.750			
0.2304	14747.00	3.8580	3.8583	-0.8966	24.87	0.15	-0.750			
0.2331	14919.53	3.8550	3.8549	-0.9057	24.87	0.15	-0.750			
0.2359	15095.61	3.8520	3.8518	-0.8975	24.87	0.15	-0.750			
0.2386	15267.66	3.8490	3.8489	-0.8876	24.88	0.16	-0.750			
0.2412	15439.80	3.8460	3.8457	-0.8860	24.88	0.16	-0.750			
0.2439	15608.57	3.8430	3.8428	-0.8804	24.88	0.16	-0.750			
0.2465	15776.29	3.8400	3.8400	-0.8824	24.89	0.17	-0.750			
0.2491	15939.42	3.8370	3.8369	-0.8750	24.90	0.18	-0.750			
0.2517	16111.64	3.8340	3.8339	-0.8928	24.90	0.18	-0.750			
0.2544	16282.96	3.8310	3.8312	-0.8932	24.91	0.19	-0.750			
0.2571	16452.04	3.8280	3.8279	-0.8974	24.91	0.19	-0.750			
0.2598	16627.81	3.8250	3.8249	-0.8915	24.92	0.20	-0.750			
0.2625	16798.26	3.8220	3.8220	-0.8899	24.92	0.20	-0.750			
0.2651	16968.92	3.8190	3.8188	-0.8950	24.93	0.21	-0.750			
0.2678	17139.87	3.8160	3.8163	-0.8938	24.93	0.21	-0.750			
0.2705	17311.12	3.8130	3.8128	-0.8973	24.93	0.21	-0.750			
0.2732	17484.88	3.8100	3.8099	-0.8920	24.93	0.21	-0.750			
0.2759	17656.39	3.8070	3.8070	-0.8797	24.94	0.22	-0.750			
0.2786	17827.59	3.8040	3.8040	-0.8840	24.94	0.22	-0.750			
0.2811	17993.54	3.8010	3.8009	-0.8800	24.94	0.22	-0.750			
0.2838	18161.04	3.7980	3.7979	-0.8832	24.95	0.23	-0.750			
0.2864	18328.96	3.7950	3.7949	-0.8765	24.96	0.24	-0.750			
0.2890	18497.61	3.7920	3.7920	-0.8796	24.97	0.25	-0.750			
0.2918	18673.06	3.7890	3.7891	-0.8887	24.98	0.26	-0.750			
0.2944	18842.36	3.7860	3.7859	-0.8832	24.98	0.26	-0.750			
0.2970	19010.96	3.7830	3.7830	-0.8706	24.99	0.27	-0.750			
0.2997	19177.80	3.7800	3.7801	-0.8621	24.99	0.27	-0.750			
0.3022	19341.56	3.7770	3.7769	-0.8523	25.00	0.28	-0.750			
0.3048	19505.99	3.7740	3.7745	-0.8522	25.00	0.28	-0.750			
0.3072	19662.26	3.7710	3.7711	-0.8642	25.00	0.28	-0.750			
0.3099	19831.77	3.7680	3.7679	-0.8523	25.01	0.29	-0.750			
0.3125	19997.23	3.7650	3.7648	-0.8459	25.01	0.29	-0.750			
0.3150	20159.61	3.7620	3.7619	-0.8493	25.02	0.30	-0.750			
0.3175	20322.40	3.7590	3.7596	-0.8415	25.02	0.30	-0.750			
0.3200	20481.83	3.7560	3.7558	-0.8459	25.02	0.30	-0.750			
0.3225	20642.23	3.7530	3.7529	-0.8436	25.03	0.31	-0.750			
0.3250	20801.70	3.7500	3.7501	-0.8547	25.03	0.31	-0.750			
0.3276	20967.37	3.7470	3.7470	-0.8561	25.04	0.32	-0.750			
0.3302	21133.65	3.7440	3.7441	-0.8582	25.04	0.32	-0.750			
0.3327	21295.16	3.7410	3.7409	-0.8635	25.04	0.32	-0.750			
0.3353	21462.17	3.7380	3.7380	-0.8652	25.04	0.32	-0.750			
0.3379	21626.09	3.7350	3.7350	-0.8695	25.05	0.33	-0.750			
0.3406	21795.81	3.7320	3.7319	-0.8784	25.05	0.33	-0.750			
0.3432	21964.16	3.7290	3.7290	-0.8889	25.05	0.33	-0.750			
0.3459	22139.53	3.7260	3.7259	-0.8933	25.06	0.34	-0.750			
0.3486	22311.62	3.7230	3.7229	-0.8902	25.06	0.34	-0.750			
0.3513	22481.02	3.7200	3.7200	-0.8884	25.06	0.34	-0.750			
0.3539	22652.43	3.7170	3.7167	-0.9025	25.07	0.35	-0.750			
0.3566	22821.61	3.7140	3.7138	-0.9184	25.07	0.35	-0.750			
0.3593	22997.77	3.7110	3.7109	-0.9457	25.07	0.35	-0.750			
0.3622	23180.38	3.7080	3.7080	-0.9877	25.06	0.34	-0.750			
0.3654	23383.74	3.7050	3.7049	-1.0203	25.06	0.34	-0.750			
0.3685	23581.79	3.7020	3.7019	-1.0437	25.06	0.34	-0.750			
0.3717	23786.66	3.6990	3.6989	-1.0518	25.06	0.34	-0.750	0.387	0.493	
0.3748	23988.72	3.6960	3.6958	-1.0565	25.06	0.34	-0.750			
0.3779	24187.75	3.6930	3.6929	-1.0619	25.06	0.34	-0.750			
0.3810	24386.95	3.6900	3.6902	-1.0922	25.06	0.34	-0.750			
0.3846	24614.10	3.6870	3.6867	-1.1314	25.06	0.34	-0.750			
0.3880	24832.78	3.6840	3.6837	-1.1453	25.05	0.33	-0.750			
0.3914	25051.39	3.6810	3.6817	-1.1646	25.05	0.33	-0.750			
0.3950	25282.11	3.6780	3.6777	-1.1940	25.05	0.33	-0.750			
0.3986	25510.72	3.6750	3.6749	-1.2055	25.04	0.32	-0.750			
0.4021	25733.35	3.6720	3.6720	-1.2544	25.03	0.31	-0.750			
0.4060	25983.11	3.6690	3.6690	-1.2889	25.03	0.31	-0.750			
0.4099	26236.69	3.6660	3.6657	-1.3081	25.02	0.30	-0.750			
0.4139	26488.23	3.6630	3.6629	-1.3531	25.02	0.30	-0.750			
0.4180	26753.79	3.6600	3.6602	-1.3760	25.01	0.29	-0.750			
0.4223	27024.29	3.6570	3.6567	-1.3989	25.00	0.28	-0.750			
0.4265	27295.47	3.6540	3.6535	-1.4398	24.99	0.27	-0.750			
0.4309	27576.41	3.6510	3.6507	-1.4349	24.98	0.26	-0.750			
0.4353	27861.39	3.6480	3.6477	-1.4996	24.98	0.26	-0.750			
0.4399	28151.37	3.6450	3.6455	-1.5259	24.97	0.25	-0.750			
0.4444	28439.08	3.6420	3.6415	-1.5376	24.96	0.24	-0.750			
0.4492	28749.23	3.6390	3.6393	-1.6141	24.95	0.23	-0.750			
0.4541	29062.24	3.6360	3.6365	-1.6094	24.94	0.22	-0.750			
0.4592	29386.99	3.6330	3.6334	-1.6562	24.94	0.22	-0.750			
0.4643	29713.40	3.6300	3.6294	-1.6596	24.93	0.21	-0.750			
0.4693	30032.52	3.6270	3.6268	-1.6731	24.93	0.21	-0.750			
0.4743	30357.90	3.6240	3.6243	-1.7177	24.91	0.19	-0.750			
0.4795	30688.53	3.6210	3.6215	-1.7479	24.90	0.18	-0.750			
0.4845	31011.16	3.6180	3.6184	-1.7978	24.90	0.18	-0.750			
0.4901	31366.21	3.6150	3.6152	-1.8110	24.89	0.17	-0.750			
0.4958	31731.42	3.6120	3.6121	-1.8869	24.88	0.16	-0.750			
0.5015	32093.79	3.6090	3.6094	-1.9275	24.87	0.15	-0.750			
0.5073	32467.81	3.6060	3.6063	-1.9138	24.86	0.14	-0.750			
0.5132	32845.94	3.6030	3.6023	-1.9575	24.85	0.13	-0.750			
0.5190	33216.00	3.6000	3.6003	-2.0031	24.85	0.13	-0.750			
0.5253	33620.23	3.5970	3.5974	-2.0759	24.84	0.12	-0.750			
0.5318	34032.17	3.5940	3.5935	-2.1221	24.84	0.12	-0.750			
0.5380	34434.07	3.5910	3.5907	-2.1624	24.83	0.11	-0.750			
0.5446	34851.56	3.5880	3.5877	-2.1894	24.82	0.10	-0.750			
0.5513	35280.60	3.5850	3.5849	-2.2050	24.82	0.10	-0.750			
0.5579	35707.34	3.5820	3.5823	-2.2051	24.81	0.09	-0.750			
0.5647	36143.03	3.5790	3.5787	-2.2398	24.80	0.08	-0.750			
0.5715	36576.61	3.5760	3.5762	-2.2609	24.79	0.07	-0.750			
0.5783	37013.75	3.5730	3.5735	-2.3118	24.78	0.06	-0.750			
0.5856	37476.94	3.5700	3.5697	-2.3447	24.78	0.06	-0.750			
0.5923	37910.15	3.5670	3.5669	-2.2886	24.78	0.06	-0.750			
0.5994	38364.61	3.5640	3.5640	-2.3719	24.78	0.06	-0.750			
0.6065	38818.08	3.5610	3.5605	-2.3077	24.78	0.06	-0.750			
0.6135	39263.45	3.5580	3.5577	-2.3250	24.78	0.06	-0.750			
0.6204	39707.94	3.5550	3.5550	-2.2594	24.78	0.06	-0.750			
0.6272	40141.85	3.5520	3.5521	-2.2742	24.78	0.06	-0.750			
0.6339	40567.15	3.5490	3.5489	-2.2753	24.78	0.06	-0.750			
0.6408	41013.41	3.5460	3.5458	-2.2918	24.78	0.06	-0.750			
0.6476	41449.60	3.5430	3.5437	-2.2206	24.78	0.06	-0.750			
0.6545	41887.83	3.5400	3.5395	-2.2155	24.78	0.06	-0.750			
0.6610	42304.53	3.5370	3.5367	-2.1306	24.78	0.06	-0.750			
0.6674	42714.28	3.5340	3.5339	-2.0678	24.78	0.06	-0.750			
0.6735	43104.66	3.5310	3.5306	-2.0780	24.79	0.07	-0.750			
0.6799	43515.94	3.5280	3.5282	-1.9945	24.80	0.08	-0.750			
0.6860	43901.64	3.5250	3.5247	-1.9323	24.82	0.10	-0.750			
0.6916	44262.07	3.5220	3.5227	-1.8545	24.83	0.11	-0.750			
0.6969	44601.33	3.5190	3.5194	-1.7710	24.84	0.12	-0.750			
0.7024	44953.44	3.5160	3.5158	-1.7509	24.85	0.13	-0.750			
0.7072	45262.59	3.5130	3.5126	-1.6501	24.86	0.14	-0.750			
0.7123	45584.68	3.5100	3.5096	-1.6594	24.87	0.15	-0.750			
0.7172	45901.37	3.5070	3.5076	-1.5830	24.88	0.16	-0.750			
0.7221	46212.79	3.5040	3.5035	-1.5335	24.90	0.18	-0.750			
0.7265	46495.23	3.5010	3.5009	-1.4616	24.92	0.20	-0.750			
0.7307	46765.88	3.4980	3.4979	-1.4040	24.94	0.22	-0.750			
0.7351	47043.35	3.4950	3.4947	-1.2797	24.97	0.25	-0.750			
0.7388	47286.32	3.4920	3.4921	-1.3396	24.98	0.26	-0.750			
