Ah_balance (normalized)	Ah_balance (mAh)	Voltage - fit (V)	Voltage -  interpolate (V)	dQ/dV (1/V)	Temperature (°C)	Temperature - diff (°C)	Current (C)	R_DC 0ms (mOhm)	R_DC 50ms (mOhm)	R_DC 50 ms PEC (mOhm)
0.0487	3117.11	4.1970	4.1971	0.7500	25.06	0.37	0.750			
0.0510	3261.88	4.1940	4.1939	0.7570	25.06	0.37	0.750			
0.0533	3408.20	4.1910	4.1911	0.7629	25.06	0.37	0.750			
0.0556	3555.62	4.1880	4.1880	0.7654	25.06	0.37	0.750			
0.0579	3702.64	4.1850	4.1850	0.7693	25.06	0.37	0.750			
0.0602	3851.79	4.1820	4.1820	0.7715	25.06	0.37	0.750			
0.0625	3998.69	4.1790	4.1790	0.7727	25.06	0.37	0.750			
0.0648	4148.12	4.1760	4.1760	0.7745	25.06	0.37	0.750			
0.0671	4296.49	4.1730	4.1730	0.7762	25.06	0.37	0.750			
0.0695	4446.57	4.1700	4.1700	0.7730	25.06	0.37	0.750			
0.0718	4594.59	4.1670	4.1670	0.7734	25.06	0.37	0.750			
0.0741	4742.01	4.1640	4.1641	0.7745	25.06	0.37	0.750			
0.0764	4890.85	4.1610	4.1609	0.7787	25.06	0.37	0.750			
0.0787	5039.65	4.1580	4.1580	0.7796	25.06	0.37	0.750			
0.0811	5190.36	4.1550	4.1550	0.7850	25.06	0.37	0.750			
0.0835	5341.98	4.1520	4.1520	0.7865	25.06	0.37	0.750			
0.0859	5494.51	4.1490	4.1490	0.7892	25.06	0.37	0.750			
0.0882	5644.70	4.1460	4.1460	0.7869	25.06	0.37	0.750			
0.0906	5795.64	4.1430	4.1429	0.7891	25.06	0.37	0.750			
0.0929	5947.50	4.1400	4.1400	0.7873	25.06	0.37	0.750			
0.0953	6098.40	4.1370	4.1369	0.7905	25.06	0.37	0.750			
0.0977	6249.94	4.1340	4.1341	0.7933	25.06	0.37	0.750			
0.1000	6402.97	4.1310	4.1310	0.7965	25.06	0.37	0.750			
0.1024	6555.91	4.1280	4.1279	0.7983	25.06	0.37	0.750			
0.1048	6710.21	4.1250	4.1250	0.7995	25.06	0.37	0.750			
0.1072	6863.31	4.1220	4.1220	0.8015	25.06	0.37	0.750			
0.1097	7017.65	4.1190	4.1190	0.8056	25.07	0.38	0.750			
0.1121	7171.96	4.1160	4.1160	0.8063	25.07	0.38	0.750			
0.1145	7327.24	4.1130	4.1129	0.8072	25.07	0.38	0.750			
0.1169	7482.76	4.1100	4.1100	0.8090	25.07	0.38	0.750			
0.1193	7638.39	4.1070	4.1070	0.8099	25.07	0.38	0.750			
0.1218	7793.22	4.1040	4.1041	0.8134	25.07	0.38	0.750			
0.1242	7949.39	4.1010	4.1010	0.8131	25.07	0.38	0.750			
0.1267	8105.90	4.0980	4.0978	0.8165	25.07	0.38	0.750			
0.1291	8263.06	4.0950	4.0951	0.8192	25.07	0.38	0.750			
0.1316	8420.69	4.0920	4.0920	0.8213	25.07	0.38	0.750			
0.1341	8579.31	4.0890	4.0891	0.8244	25.08	0.39	0.750			
0.1366	8739.67	4.0860	4.0859	0.8029	25.08	0.39	0.750			
0.1390	8892.95	4.0830	4.0828	0.7973	25.08	0.39	0.750			
0.1413	9042.80	4.0800	4.0803	0.8013	25.08	0.39	0.750			
0.1437	9196.39	4.0770	4.0766	0.7921	25.08	0.39	0.750			
0.1460	9345.21	4.0740	4.0739	0.8041	25.08	0.39	0.750			
0.1484	9500.28	4.0710	4.0711	0.8152	25.08	0.39	0.750			
0.1509	9658.89	4.0680	4.0680	0.8273	25.08	0.39	0.750			
0.1535	9822.25	4.0650	4.0651	0.8425	25.08	0.39	0.750			
0.1560	9982.93	4.0620	4.0621	0.8422	25.09	0.40	0.750			
0.1585	10145.28	4.0590	4.0590	0.8484	25.09	0.40	0.750			
0.1611	10308.93	4.0560	4.0560	0.8487	25.10	0.41	0.750			
0.1636	10472.40	4.0530	4.0530	0.8543	25.10	0.41	0.750			
0.1662	10637.59	4.0500	4.0500	0.8604	25.10	0.41	0.750			
0.1688	10802.48	4.0470	4.0470	0.8656	25.10	0.41	0.750			
0.1714	10969.30	4.0440	4.0439	0.8705	25.10	0.41	0.750			
0.1740	11137.87	4.0410	4.0410	0.8746	25.10	0.41	0.750			
0.1767	11306.12	4.0380	4.0379	0.8774	25.10	0.41	0.750			
0.1793	11476.57	4.0350	4.0350	0.8769	25.10	0.41	0.750			
0.1820	11644.90	4.0320	4.0320	0.8768	25.10	0.41	0.750			
0.1846	11812.34	4.0290	4.0290	0.8762	25.11	0.42	0.750			
0.1872	11979.14	4.0260	4.0260	0.8748	25.11	0.42	0.750			
0.1898	12147.35	4.0230	4.0231	0.8794	25.11	0.42	0.750			
0.1924	12316.71	4.0200	4.0200	0.8815	25.11	0.42	0.750			
0.1951	12485.90	4.0170	4.0170	0.8864	25.11	0.42	0.750			
0.1978	12657.54	4.0140	4.0141	0.8897	25.12	0.43	0.750			
0.2004	12828.43	4.0110	4.0109	0.8896	25.12	0.43	0.750			
0.2031	12999.95	4.0080	4.0080	0.8917	25.12	0.43	0.750			
0.2058	13170.68	4.0050	4.0051	0.8933	25.12	0.43	0.750			
0.2085	13341.56	4.0020	4.0020	0.8985	25.13	0.44	0.750			
0.2112	13514.81	3.9990	3.9990	0.9039	25.13	0.44	0.750			
0.2139	13688.13	3.9960	3.9959	0.9086	25.13	0.44	0.750			
0.2167	13866.22	3.9930	3.9930	0.9072	25.13	0.44	0.750			
0.2194	14039.29	3.9900	3.9900	0.9118	25.14	0.45	0.750			
0.2221	14214.63	3.9870	3.9871	0.9146	25.14	0.45	0.750			
0.2248	14390.06	3.9840	3.9841	0.9163	25.15	0.46	0.750			
0.2276	14565.62	3.9810	3.9809	0.9149	25.15	0.46	0.750			
0.2303	14741.68	3.9780	3.9781	0.9193	25.16	0.47	0.750			
0.2331	14917.64	3.9750	3.9751	0.9263	25.16	0.47	0.750			
0.2359	15097.95	3.9720	3.9719	0.9272	25.16	0.47	0.750			
0.2387	15274.53	3.9690	3.9690	0.9274	25.17	0.48	0.750			
0.2415	15456.73	3.9660	3.9660	0.9221	25.17	0.48	0.750			
0.2442	15631.83	3.9630	3.9630	0.9282	25.17	0.48	0.750			
0.2470	15810.19	3.9600	3.9600	0.9316	25.18	0.49	0.750			
0.2498	15987.85	3.9570	3.9571	0.9337	25.18	0.49	0.750			
0.2526	16165.90	3.9540	3.9539	0.9372	25.18	0.49	0.750			
0.2555	16348.84	3.9510	3.9510	0.9368	25.18	0.49	0.750			
0.2583	16528.07	3.9480	3.9481	0.9411	25.18	0.49	0.750			
0.2611	16709.36	3.9450	3.9451	0.9521	25.18	0.49	0.750			
0.2639	16891.08	3.9420	3.9416	0.9469	25.18	0.49	0.750			
0.2668	17074.53	3.9390	3.9391	0.9531	25.18	0.49	0.750			
0.2697	17258.02	3.9360	3.9361	0.9611	25.19	0.50	0.750			
0.2726	17444.83	3.9330	3.9330	0.9657	25.19	0.50	0.750			
0.2755	17629.81	3.9300	3.9300	0.9627	25.20	0.51	0.750			
0.2784	17817.77	3.9270	3.9270	0.9558	25.20	0.51	0.750			
0.2813	18000.06	3.9240	3.9240	0.9574	25.20	0.51	0.750			
0.2841	18184.35	3.9210	3.9211	0.9638	25.21	0.52	0.750			
0.2870	18367.77	3.9180	3.9181	0.9675	25.21	0.52	0.750			
0.2899	18552.82	3.9150	3.9149	0.9695	25.21	0.52	0.750			
0.2928	18740.17	3.9120	3.9120	0.9733	25.21	0.52	0.750			
0.2957	18927.21	3.9090	3.9092	0.9806	25.22	0.53	0.750			
0.2987	19117.46	3.9060	3.9060	0.9882	25.22	0.53	0.750			
0.3017	19306.25	3.9030	3.9027	0.9901	25.22	0.53	0.750			
0.3046	19496.25	3.9000	3.9001	0.9938	25.22	0.53	0.750			
0.3076	19688.38	3.8970	3.8971	1.0032	25.22	0.53	0.750			
0.3107	19884.19	3.8940	3.8940	1.0132	25.23	0.54	0.750			
0.3137	20078.80	3.8910	3.8910	1.0089	25.23	0.54	0.750			
0.3168	20274.92	3.8880	3.8880	1.0094	25.23	0.54	0.750			
0.3198	20467.28	3.8850	3.8851	1.0173	25.24	0.55	0.750			
0.3229	20662.77	3.8820	3.8820	1.0181	25.24	0.55	0.750			
0.3259	20858.68	3.8790	3.8788	1.0229	25.25	0.56	0.750			
0.3290	21056.42	3.8760	3.8760	1.0160	25.25	0.56	0.750			
0.3320	21249.68	3.8730	3.8731	1.0258	25.25	0.56	0.750			
0.3351	21448.94	3.8700	3.8700	1.0361	25.24	0.55	0.750			
0.3382	21647.56	3.8670	3.8669	1.0402	25.24	0.55	0.750			
0.3414	21846.46	3.8640	3.8641	1.0416	25.24	0.55	0.750			
0.3445	22047.96	3.8610	3.8611	1.0501	25.24	0.55	0.750			
0.3477	22250.34	3.8580	3.8580	1.0545	25.24	0.55	0.750			
0.3509	22455.70	3.8550	3.8550	1.0622	25.24	0.55	0.750			
0.3540	22656.21	3.8520	3.8520	1.0592	25.24	0.55	0.750			
0.3572	22859.86	3.8490	3.8490	1.0688	25.23	0.54	0.750			
0.3604	23066.42	3.8460	3.8460	1.0748	25.23	0.54	0.750			
0.3637	23274.93	3.8430	3.8428	1.0782	25.22	0.53	0.750			
0.3669	23480.09	3.8400	3.8400	1.0873	25.22	0.53	0.750			
0.3701	23689.36	3.8370	3.8371	1.0963	25.21	0.52	0.750			
0.3734	23900.20	3.8340	3.8340	1.1054	25.21	0.52	0.750			
0.3768	24114.00	3.8310	3.8308	1.1144	25.20	0.51	0.750	0.326	0.431	
0.3801	24327.92	3.8280	3.8281	1.1234	25.19	0.50	0.750			
0.3835	24546.53	3.8250	3.8250	1.1332	25.19	0.50	0.750			
0.3870	24767.81	3.8220	3.8220	1.1381	25.18	0.49	0.750			
0.3904	24984.07	3.8190	3.8190	1.1269	25.18	0.49	0.750			
0.3938	25200.63	3.8160	3.8161	1.1388	25.17	0.48	0.750			
0.3972	25419.22	3.8130	3.8130	1.1432	25.15	0.46	0.750			
0.4006	25641.15	3.8100	3.8099	1.1427	25.14	0.45	0.750			
0.4040	25858.52	3.8070	3.8071	1.1513	25.13	0.44	0.750			
0.4075	26080.56	3.8040	3.8041	1.1636	25.13	0.44	0.750			
0.4110	26304.90	3.8010	3.8010	1.1729	25.12	0.43	0.750			
0.4145	26530.73	3.7980	3.7979	1.1767	25.11	0.42	0.750			
0.4181	26757.25	3.7950	3.7951	1.1856	25.10	0.41	0.750			
0.4217	26987.18	3.7920	3.7920	1.2000	25.09	0.40	0.750			
0.4253	27219.59	3.7890	3.7890	1.2052	25.08	0.39	0.750			
0.4289	27449.98	3.7860	3.7860	1.2084	25.07	0.38	0.750			
0.4325	27682.23	3.7830	3.7830	1.2226	25.06	0.37	0.750			
0.4362	27918.09	3.7800	3.7799	1.2378	25.05	0.36	0.750			
0.4400	28156.85	3.7770	3.7771	1.2395	25.04	0.35	0.750			
0.4436	28393.53	3.7740	3.7740	1.2648	25.03	0.34	0.750			
0.4474	28635.74	3.7710	3.7711	1.2866	25.01	0.32	0.750			
0.4513	28885.80	3.7680	3.7676	1.3146	25.00	0.31	0.750			
0.4553	29140.06	3.7650	3.7650	1.3350	24.99	0.30	0.750			
0.4594	29399.13	3.7620	3.7621	1.3647	24.98	0.29	0.750			
0.4635	29666.58	3.7590	3.7590	1.3907	24.96	0.27	0.750			
0.4677	29931.98	3.7560	3.7561	1.4096	24.95	0.26	0.750			
0.4719	30202.54	3.7530	3.7530	1.4505	24.94	0.25	0.750			
0.4763	30484.84	3.7500	3.7498	1.4696	24.92	0.23	0.750			
0.4808	30771.66	3.7470	3.7468	1.5014	24.91	0.22	0.750			
0.4853	31060.86	3.7440	3.7442	1.5494	24.89	0.20	0.750			
0.4900	31361.77	3.7410	3.7411	1.5910	24.88	0.19	0.750			
0.4949	31670.69	3.7380	3.7381	1.6291	24.86	0.17	0.750			
0.4998	31987.67	3.7350	3.7349	1.6768	24.85	0.16	0.750			
0.5049	32314.93	3.7320	3.7321	1.7477	24.83	0.14	0.750			
0.5103	32660.10	3.7290	3.7290	1.7905	24.81	0.12	0.750			
0.5157	33005.86	3.7260	3.7260	1.8557	24.79	0.10	0.750			
0.5214	33367.23	3.7230	3.7229	1.8904	24.77	0.08	0.750			
0.5272	33740.85	3.7200	3.7198	1.9489	24.76	0.07	0.750			
0.5331	34117.45	3.7170	3.7172	2.0141	24.74	0.05	0.750			
0.5392	34509.54	3.7140	3.7140	2.0832	24.72	0.03	0.750			
0.5456	34916.91	3.7110	3.7107	2.1318	24.70	0.01	0.750			
0.5520	35326.56	3.7080	3.7081	2.1827	24.68	-0.01	0.750			
0.5586	35752.58	3.7050	3.7051	2.2492	24.66	-0.03	0.750			
0.5656	36197.90	3.7020	3.7020	2.3169	24.65	-0.04	0.750			
0.5726	36644.45	3.6990	3.6989	2.3861	24.63	-0.06	0.750			
0.5799	37112.32	3.6960	3.6961	2.4653	24.61	-0.08	0.750			
0.5873	37588.41	3.6930	3.6930	2.5236	24.60	-0.09	0.750			
0.5949	38075.48	3.6900	3.6901	2.5859	24.59	-0.10	0.750			
0.6030	38588.99	3.6870	3.6869	2.6379	24.57	-0.12	0.750			
0.6110	39103.28	3.6840	3.6839	2.6909	24.55	-0.14	0.750			
0.6192	39630.31	3.6810	3.6808	2.8049	24.55	-0.14	0.750			
0.6277	40172.98	3.6780	3.6779	2.9048	24.54	-0.15	0.750			
0.6366	40742.09	3.6750	3.6750	2.9429	24.53	-0.16	0.750			
0.6455	41311.85	3.6720	3.6720	2.9768	24.53	-0.16	0.750			
0.6544	41881.06	3.6690	3.6690	2.9666	24.53	-0.16	0.750			
0.6633	42452.24	3.6660	3.6660	2.9203	24.53	-0.16	0.750			
0.6720	43006.13	3.6630	3.6632	2.8019	24.54	-0.15	0.750			
0.6802	43531.31	3.6600	3.6601	2.6462	24.55	-0.14	0.750			
0.6881	44038.74	3.6570	3.6571	2.4390	24.56	-0.13	0.750			
0.6953	44498.98	3.6540	3.6539	2.2495	24.57	-0.12	0.750			
0.7015	44894.23	3.6510	3.6509	1.9963	24.58	-0.11	0.750			
0.7071	45255.60	3.6480	3.6479	1.7803	24.59	-0.10	0.750			
0.7121	45571.77	3.6450	3.6452	1.5663	24.61	-0.08	0.750			
0.7164	45846.91	3.6420	3.6422	1.3712	24.62	-0.07	0.750			
0.7201	46089.46	3.6390	3.6391	1.2046	24.62	-0.07	0.750			
0.7233	46294.28	3.6360	3.6361	1.0622	24.63	-0.06	0.750			
0.7263	46482.61	3.6330	3.6328	0.9587	24.64	-0.05	0.750			
0.7288	46643.35	3.6300	3.6299	0.8656	24.65	-0.04	0.750			
0.7313	46802.41	3.6270	3.6270	0.8074	24.66	-0.03	0.750			
0.7336	46949.57	3.6240	3.6240	0.7690	24.67	-0.02	0.750			
0.7358	47093.83	3.6210	3.6210	0.7382	24.68	-0.01	0.750			
0.7380	47231.56	3.6180	3.6180	0.7022	24.69	-0.00	0.750			
0.7401	47365.87	3.6150	3.6151	0.6605	24.69	0.00	0.750			
0.7421	47491.47	3.6120	3.6121	0.6144	24.70	0.01	0.750			
0.7439	47606.96	3.6090	3.6091	0.5551	24.71	0.02	0.750			
0.7455	47710.94	3.6060	3.6060	0.4914	24.72	0.03	0.750			
0.7468	47797.09	3.6030	3.6030	0.4145	24.72	0.03	0.750			
0.7480	47869.94	3.6000	3.6000	0.3424	24.73	0.04	0.750			
0.7489	47928.60	3.5970	3.5970	0.2692	24.73	0.04	0.750			
0.7496	47973.82	3.5940	3.5940	0.1960	24.73	0.04	0.750			
0.7501	48004.89	3.5910	3.5916	0.1199	24.73	0.04	0.750			
0.7503	48020.48	3.5880	3.5897	0.0468	24.73	0.04	0.750			
