Ah_balance (normalized)	Ah_balance (mAh)	Voltage - fit (V)	Voltage -  interpolate (V)	dQ/dV (1/V)	Temperature (°C)	Temperature - diff (°C)	Current (C)	R_DC 0ms (mOhm)	R_DC 50ms (mOhm)	R_DC 50 ms PEC (mOhm)
0.0458	2933.07	4.1990	4.1990	0.7792	25.34	0.42	0.750			
0.0482	3083.52	4.1960	4.1960	0.7813	25.34	0.42	0.750			
0.0505	3229.49	4.1930	4.1930	0.7684	25.35	0.43	0.750			
0.0527	3375.95	4.1900	4.1901	0.7704	25.35	0.43	0.750			
0.0551	3524.10	4.1870	4.1869	0.7717	25.35	0.43	0.750			
0.0574	3673.07	4.1840	4.1841	0.7730	25.35	0.43	0.750			
0.0597	3821.11	4.1810	4.1811	0.7722	25.35	0.43	0.750			
0.0620	3970.20	4.1780	4.1780	0.7706	25.35	0.43	0.750			
0.0643	4118.25	4.1750	4.1751	0.7722	25.36	0.44	0.750			
0.0666	4264.84	4.1720	4.1720	0.7710	25.36	0.44	0.750			
0.0689	4412.65	4.1690	4.1688	0.7706	25.36	0.44	0.750			
0.0713	4560.20	4.1660	4.1661	0.7768	25.36	0.44	0.750			
0.0736	4710.81	4.1630	4.1630	0.7745	25.36	0.44	0.750			
0.0759	4860.61	4.1600	4.1600	0.7803	25.35	0.43	0.750			
0.0783	5011.05	4.1570	4.1570	0.7831	25.35	0.43	0.750			
0.0806	5159.64	4.1540	4.1539	0.7810	25.35	0.43	0.750			
0.0830	5310.36	4.1510	4.1511	0.7844	25.35	0.43	0.750			
0.0854	5462.44	4.1480	4.1480	0.7838	25.35	0.43	0.750			
0.0877	5611.60	4.1450	4.1450	0.7853	25.35	0.43	0.750			
0.0901	5763.69	4.1420	4.1420	0.7899	25.35	0.43	0.750			
0.0924	5913.42	4.1390	4.1390	0.7887	25.35	0.43	0.750			
0.0948	6065.05	4.1360	4.1360	0.7911	25.35	0.43	0.750			
0.0972	6219.41	4.1330	4.1330	0.7895	25.35	0.43	0.750			
0.0995	6370.47	4.1300	4.1300	0.7883	25.35	0.43	0.750			
0.1019	6521.66	4.1270	4.1271	0.7922	25.35	0.43	0.750			
0.1042	6671.91	4.1240	4.1241	0.7906	25.35	0.43	0.750			
0.1066	6823.36	4.1210	4.1210	0.7956	25.35	0.43	0.750			
0.1090	6976.60	4.1180	4.1180	0.8012	25.35	0.43	0.750			
0.1115	7132.95	4.1150	4.1150	0.7978	25.35	0.43	0.750			
0.1138	7285.21	4.1120	4.1121	0.8036	25.35	0.43	0.750			
0.1162	7438.49	4.1090	4.1091	0.8040	25.35	0.43	0.750			
0.1186	7592.97	4.1060	4.1055	0.8059	25.35	0.43	0.750			
0.1210	7746.75	4.1030	4.1031	0.8101	25.35	0.43	0.750			
0.1235	7902.98	4.1000	4.1001	0.8124	25.35	0.43	0.750			
0.1260	8062.72	4.0970	4.0969	0.8173	25.36	0.44	0.750			
0.1284	8218.22	4.0940	4.0940	0.8157	25.36	0.44	0.750			
0.1309	8374.76	4.0910	4.0910	0.8216	25.36	0.44	0.750			
0.1333	8533.23	4.0880	4.0880	0.8233	25.36	0.44	0.750			
0.1358	8694.33	4.0850	4.0850	0.8136	25.36	0.44	0.750			
0.1383	8848.36	4.0820	4.0821	0.8202	25.37	0.45	0.750			
0.1407	9005.45	4.0790	4.0791	0.8294	25.37	0.45	0.750			
0.1432	9164.42	4.0760	4.0757	0.8319	25.37	0.45	0.750			
0.1457	9323.87	4.0730	4.0731	0.8313	25.37	0.45	0.750			
0.1482	9486.25	4.0700	4.0701	0.8234	25.37	0.45	0.750			
0.1507	9643.36	4.0670	4.0671	0.8378	25.38	0.46	0.750			
0.1532	9806.09	4.0640	4.0640	0.8444	25.38	0.46	0.750			
0.1557	9963.52	4.0610	4.0607	0.8421	25.38	0.46	0.750			
0.1582	10127.12	4.0580	4.0581	0.8500	25.38	0.46	0.750			
0.1608	10293.00	4.0550	4.0552	0.8546	25.38	0.46	0.750			
0.1634	10458.75	4.0520	4.0521	0.8569	25.38	0.46	0.750			
0.1660	10623.37	4.0490	4.0490	0.8534	25.38	0.46	0.750			
0.1685	10786.84	4.0460	4.0458	0.8541	25.38	0.46	0.750			
0.1711	10947.94	4.0430	4.0431	0.8790	25.38	0.46	0.750			
0.1737	11117.80	4.0400	4.0400	0.8975	25.39	0.47	0.750			
0.1765	11295.46	4.0370	4.0368	0.9087	25.39	0.47	0.750			
0.1793	11473.23	4.0340	4.0342	0.9130	25.40	0.48	0.750			
0.1821	11651.74	4.0310	4.0312	0.9103	25.40	0.48	0.750			
0.1848	11827.48	4.0280	4.0280	0.8991	25.40	0.48	0.750			
0.1875	11997.73	4.0250	4.0250	0.8921	25.40	0.48	0.750			
0.1900	12163.09	4.0220	4.0220	0.8804	25.40	0.48	0.750			
0.1927	12333.06	4.0190	4.0190	0.8828	25.40	0.48	0.750			
0.1954	12502.80	4.0160	4.0160	0.8855	25.40	0.48	0.750			
0.1980	12673.43	4.0130	4.0130	0.8866	25.40	0.48	0.750			
0.2007	12843.89	4.0100	4.0101	0.8892	25.40	0.48	0.750			
0.2034	13014.93	4.0070	4.0070	0.8921	25.40	0.48	0.750			
0.2060	13185.05	4.0040	4.0039	0.8941	25.40	0.48	0.750			
0.2087	13358.67	4.0010	4.0010	0.8917	25.40	0.48	0.750			
0.2114	13528.79	3.9980	3.9981	0.8967	25.40	0.48	0.750			
0.2141	13701.26	3.9950	3.9950	0.9014	25.41	0.49	0.750			
0.2168	13874.90	3.9920	3.9920	0.9056	25.41	0.49	0.750			
0.2195	14047.91	3.9890	3.9889	0.9084	25.41	0.49	0.750			
0.2222	14223.25	3.9860	3.9860	0.9107	25.41	0.49	0.750			
0.2250	14399.27	3.9830	3.9830	0.9138	25.42	0.50	0.750			
0.2278	14576.19	3.9800	3.9800	0.9176	25.42	0.50	0.750			
0.2305	14750.86	3.9770	3.9770	0.9160	25.42	0.50	0.750			
0.2333	14928.47	3.9740	3.9740	0.9157	25.42	0.50	0.750			
0.2360	15104.01	3.9710	3.9711	0.9182	25.42	0.50	0.750			
0.2388	15280.07	3.9680	3.9680	0.9203	25.43	0.51	0.750			
0.2415	15457.27	3.9650	3.9650	0.9246	25.43	0.51	0.750			
0.2443	15634.29	3.9620	3.9619	0.9250	25.43	0.51	0.750			
0.2471	15811.79	3.9590	3.9590	0.9252	25.43	0.51	0.750			
0.2498	15989.93	3.9560	3.9561	0.9284	25.43	0.51	0.750			
0.2526	16168.51	3.9530	3.9530	0.9350	25.44	0.52	0.750			
0.2554	16347.52	3.9500	3.9499	0.9377	25.44	0.52	0.750			
0.2583	16529.00	3.9470	3.9470	0.9403	25.44	0.52	0.750			
0.2611	16710.18	3.9440	3.9440	0.9463	25.44	0.52	0.750			
0.2640	16894.27	3.9410	3.9410	0.9511	25.45	0.53	0.750			
0.2668	17076.49	3.9380	3.9381	0.9551	25.45	0.53	0.750			
0.2697	17258.71	3.9350	3.9350	0.9576	25.45	0.53	0.750			
0.2725	17442.87	3.9320	3.9320	0.9547	25.45	0.53	0.750			
0.2754	17626.69	3.9290	3.9290	0.9541	25.46	0.54	0.750			
0.2783	17809.72	3.9260	3.9261	0.9547	25.46	0.54	0.750			
0.2811	17992.66	3.9230	3.9228	0.9578	25.46	0.54	0.750			
0.2840	18179.01	3.9200	3.9200	0.9509	25.46	0.54	0.750			
0.2869	18359.36	3.9170	3.9170	0.9567	25.46	0.54	0.750			
0.2897	18542.46	3.9140	3.9141	0.9640	25.47	0.55	0.750			
0.2926	18727.81	3.9110	3.9110	0.9704	25.47	0.55	0.750			
0.2956	18917.70	3.9080	3.9080	0.9679	25.47	0.55	0.750			
0.2985	19103.55	3.9050	3.9051	0.9745	25.47	0.55	0.750			
0.3014	19290.15	3.9020	3.9021	0.9825	25.47	0.55	0.750			
0.3044	19481.51	3.8990	3.8990	0.9906	25.47	0.55	0.750			
0.3073	19669.50	3.8960	3.8961	0.9869	25.47	0.55	0.750			
0.3103	19859.68	3.8930	3.8931	0.9934	25.47	0.55	0.750			
0.3133	20052.44	3.8900	3.8900	0.9988	25.47	0.55	0.750			
0.3163	20245.47	3.8870	3.8870	1.0044	25.47	0.55	0.750			
0.3194	20438.84	3.8840	3.8840	1.0017	25.47	0.55	0.750			
0.3223	20630.25	3.8810	3.8810	1.0042	25.47	0.55	0.750			
0.3254	20822.82	3.8780	3.8780	1.0125	25.47	0.55	0.750			
0.3284	21018.33	3.8750	3.8751	1.0159	25.47	0.55	0.750			
0.3315	21213.48	3.8720	3.8719	1.0209	25.47	0.55	0.750			
0.3345	21410.77	3.8690	3.8690	1.0203	25.47	0.55	0.750			
0.3376	21606.78	3.8660	3.8661	1.0236	25.47	0.55	0.750			
0.3407	21803.89	3.8630	3.8630	1.0292	25.47	0.55	0.750			
0.3438	22001.23	3.8600	3.8598	1.0308	25.47	0.55	0.750			
0.3468	22198.06	3.8570	3.8570	1.0335	25.46	0.54	0.750			
0.3500	22398.58	3.8540	3.8540	1.0397	25.46	0.54	0.750			
0.3531	22600.82	3.8510	3.8510	1.0398	25.45	0.53	0.750			
0.3563	22802.01	3.8480	3.8479	1.0396	25.45	0.53	0.750			
0.3594	23000.03	3.8450	3.8450	1.0335	25.44	0.52	0.750			
0.3624	23196.71	3.8420	3.8422	1.0392	25.44	0.52	0.750			
0.3655	23394.08	3.8390	3.8389	1.0499	25.44	0.52	0.750			
0.3687	23599.18	3.8360	3.8357	1.0521	25.43	0.51	0.750			
0.3719	23800.82	3.8330	3.8331	1.0665	25.42	0.50	0.750			
0.3751	24006.31	3.8300	3.8302	1.0808	25.41	0.49	0.750	0.315	0.412	
0.3784	24216.75	3.8270	3.8271	1.0957	25.41	0.49	0.750			
0.3817	24428.40	3.8240	3.8237	1.0969	25.40	0.48	0.750			
0.3850	24639.26	3.8210	3.8210	1.1063	25.39	0.47	0.750			
0.3883	24853.08	3.8180	3.8181	1.1193	25.38	0.46	0.750			
0.3917	25070.54	3.8150	3.8150	1.1260	25.37	0.45	0.750			
0.3951	25288.90	3.8120	3.8119	1.1081	25.37	0.45	0.750			
0.3984	25499.47	3.8090	3.8091	1.1199	25.36	0.44	0.750			
0.4018	25714.48	3.8060	3.8061	1.1276	25.35	0.43	0.750			
0.4052	25932.10	3.8030	3.8029	1.1375	25.34	0.42	0.750			
0.4086	26149.30	3.8000	3.8001	1.1360	25.33	0.41	0.750			
0.4120	26366.80	3.7970	3.7971	1.1451	25.32	0.40	0.750			
0.4155	26588.98	3.7940	3.7941	1.1585	25.31	0.39	0.750			
0.4190	26814.37	3.7910	3.7908	1.1547	25.30	0.38	0.750			
0.4224	27035.39	3.7880	3.7881	1.1723	25.29	0.37	0.750			
0.4260	27263.08	3.7850	3.7850	1.1851	25.28	0.36	0.750			
0.4296	27492.25	3.7820	3.7820	1.1999	25.27	0.35	0.750			
0.4332	27722.52	3.7790	3.7792	1.2056	25.25	0.33	0.750			
0.4368	27953.53	3.7760	3.7760	1.2229	25.24	0.32	0.750			
0.4405	28190.47	3.7730	3.7731	1.2398	25.23	0.31	0.750			
0.4442	28431.63	3.7700	3.7700	1.2484	25.22	0.30	0.750			
0.4479	28667.99	3.7670	3.7672	1.2750	25.21	0.29	0.750			
0.4518	28913.94	3.7640	3.7642	1.3082	25.19	0.27	0.750			
0.4557	29166.43	3.7610	3.7606	1.3337	25.18	0.26	0.750			
0.4597	29421.69	3.7580	3.7581	1.3663	25.17	0.25	0.750			
0.4639	29689.39	3.7550	3.7551	1.4147	25.16	0.24	0.750			
0.4684	29977.13	3.7520	3.7517	1.4273	25.14	0.22	0.750			
0.4727	30249.83	3.7490	3.7491	1.4452	25.13	0.21	0.750			
0.4770	30529.29	3.7460	3.7462	1.4804	25.11	0.19	0.750			
0.4815	30814.30	3.7430	3.7429	1.5200	25.10	0.18	0.750			
0.4860	31102.88	3.7400	3.7403	1.5698	25.08	0.16	0.750			
0.4908	31414.26	3.7370	3.7372	1.6071	25.07	0.15	0.750			
0.4958	31731.73	3.7340	3.7339	1.6763	25.05	0.13	0.750			
0.5010	32065.86	3.7310	3.7308	1.7316	25.04	0.12	0.750			
0.5061	32392.81	3.7280	3.7281	1.8125	25.02	0.10	0.750			
0.5116	32743.20	3.7250	3.7252	1.8844	25.00	0.08	0.750			
0.5174	33112.45	3.7220	3.7220	1.8882	24.98	0.06	0.750			
0.5232	33484.60	3.7190	3.7191	1.9194	24.97	0.05	0.750			
0.5291	33860.03	3.7160	3.7161	1.9723	24.96	0.04	0.750			
0.5350	34241.41	3.7130	3.7128	2.0269	24.94	0.02	0.750			
0.5411	34631.89	3.7100	3.7097	2.0585	24.93	0.01	0.750			
0.5476	35047.35	3.7070	3.7073	2.1332	24.91	-0.01	0.750			
0.5542	35465.87	3.7040	3.7040	2.2211	24.89	-0.03	0.750			
0.5610	35902.17	3.7010	3.7008	2.2394	24.88	-0.04	0.750			
0.5675	36322.85	3.6980	3.6978	2.3402	24.86	-0.06	0.750			
0.5749	36791.62	3.6950	3.6946	2.4475	24.85	-0.07	0.750			
0.5822	37261.56	3.6920	3.6923	2.5026	24.83	-0.09	0.750			
0.5900	37759.19	3.6890	3.6894	2.5221	24.81	-0.11	0.750			
0.5978	38260.68	3.6860	3.6859	2.6036	24.80	-0.12	0.750			
0.6057	38763.44	3.6830	3.6829	2.7133	24.79	-0.13	0.750			
0.6143	39314.02	3.6800	3.6799	2.8000	24.77	-0.15	0.750			
0.6228	39857.32	3.6770	3.6769	2.8622	24.76	-0.16	0.750			
0.6314	40406.52	3.6740	3.6738	2.8832	24.75	-0.17	0.750			
0.6404	40983.09	3.6710	3.6709	2.9639	24.74	-0.18	0.750			
0.6495	41569.27	3.6680	3.6677	2.9832	24.74	-0.18	0.750			
0.6583	42131.56	3.6650	3.6651	2.9311	24.74	-0.18	0.750			
0.6670	42686.54	3.6620	3.6621	2.7651	24.75	-0.17	0.750			
0.6751	43208.33	3.6590	3.6587	2.5812	24.76	-0.16	0.750			
0.6828	43698.87	3.6560	3.6559	2.3819	24.77	-0.15	0.750			
0.6896	44132.24	3.6530	3.6530	2.1160	24.78	-0.14	0.750			
0.6955	44514.62	3.6500	3.6505	1.9162	24.79	-0.13	0.750			
0.7010	44866.67	3.6470	3.6471	1.7403	24.80	-0.12	0.750			
0.7059	45176.71	3.6440	3.6435	1.5348	24.80	-0.12	0.750			
0.7102	45454.32	3.6410	3.6414	1.3571	24.81	-0.11	0.750			
0.7142	45705.95	3.6380	3.6382	1.2264	24.83	-0.09	0.750			
0.7173	45908.97	3.6350	3.6352	1.0783	24.84	-0.08	0.750			
0.7203	46098.89	3.6320	3.6321	0.9649	24.85	-0.07	0.750			
0.7230	46273.67	3.6290	3.6290	0.9093	24.85	-0.07	0.750			
0.7256	46439.74	3.6260	3.6261	0.8696	24.86	-0.06	0.750			
0.7282	46604.87	3.6230	3.6229	0.8472	24.87	-0.05	0.750			
0.7306	46759.65	3.6200	3.6199	0.8119	24.88	-0.04	0.750			
0.7331	46916.39	3.6170	3.6170	0.7712	24.89	-0.03	0.750			
0.7353	47062.05	3.6140	3.6140	0.7388	24.89	-0.03	0.750			
0.7376	47205.69	3.6110	3.6112	0.6904	24.90	-0.02	0.750			
0.7396	47334.21	3.6080	3.6074	0.6351	24.91	-0.01	0.750			
0.7414	47450.78	3.6050	3.6053	0.5706	24.91	-0.01	0.750			
0.7430	47554.73	3.6020	3.6023	0.5044	24.92	-0.00	0.750			
0.7445	47645.80	3.5990	3.5991	0.4370	24.92	0.00	0.750			
0.7457	47725.28	3.5960	3.5960	0.3743	24.93	0.01	0.750			
0.7467	47786.07	3.5930	3.5930	0.2975	24.93	0.01	0.750			
0.7475	47838.78	3.5900	3.5898	0.2321	24.93	0.01	0.750			
0.7481	47875.50	3.5870	3.5871	0.1683	24.93	0.01	0.750			
0.7485	47901.67	3.5840	3.5843	0.1089	24.94	0.02	0.750			
