Ah_balance (normalized)	Ah_balance (mAh)	Voltage - fit (V)	Voltage -  interpolate (V)	dQ/dV (1/V)	Temperature (°C)	Temperature - diff (°C)	Current (C)	R_DC 0ms (mOhm)	R_DC 50ms (mOhm)	R_DC 50 ms PEC (mOhm)
0.0476	3047.11	4.1970	4.1970	0.7581	25.48	0.41	0.750			
0.0499	3192.92	4.1940	4.1941	0.7609	25.48	0.41	0.750			
0.0522	3339.51	4.1910	4.1910	0.7641	25.48	0.41	0.750			
0.0545	3486.63	4.1880	4.1880	0.7657	25.48	0.41	0.750			
0.0568	3633.57	4.1850	4.1850	0.7687	25.48	0.41	0.750			
0.0591	3783.65	4.1820	4.1820	0.7662	25.48	0.41	0.750			
0.0614	3928.72	4.1790	4.1790	0.7685	25.48	0.41	0.750			
0.0637	4075.74	4.1760	4.1761	0.7695	25.48	0.41	0.750			
0.0660	4223.13	4.1730	4.1728	0.7716	25.48	0.41	0.750			
0.0683	4371.50	4.1700	4.1700	0.7740	25.48	0.41	0.750			
0.0707	4521.66	4.1670	4.1671	0.7739	25.48	0.41	0.750			
0.0730	4669.40	4.1640	4.1640	0.7782	25.48	0.41	0.750			
0.0753	4820.97	4.1610	4.1610	0.7842	25.48	0.41	0.750			
0.0776	4969.58	4.1580	4.1580	0.7813	25.48	0.41	0.750			
0.0800	5120.02	4.1550	4.1550	0.7841	25.48	0.41	0.750			
0.0824	5271.22	4.1520	4.1521	0.7848	25.48	0.41	0.750			
0.0847	5421.60	4.1490	4.1490	0.7854	25.48	0.41	0.750			
0.0871	5572.60	4.1460	4.1460	0.7853	25.48	0.41	0.750			
0.0894	5722.21	4.1430	4.1430	0.7854	25.48	0.41	0.750			
0.0918	5873.08	4.1400	4.1398	0.7889	25.48	0.41	0.750			
0.0941	6025.41	4.1370	4.1371	0.7907	25.48	0.41	0.750			
0.0966	6182.79	4.1340	4.1339	0.7779	25.48	0.41	0.750			
0.0989	6329.25	4.1310	4.1310	0.7832	25.48	0.41	0.750			
0.1012	6476.32	4.1280	4.1281	0.7841	25.48	0.41	0.750			
0.1035	6625.88	4.1250	4.1248	0.7908	25.48	0.41	0.750			
0.1059	6778.50	4.1220	4.1222	0.7939	25.48	0.41	0.750			
0.1083	6933.09	4.1190	4.1191	0.7950	25.48	0.41	0.750			
0.1107	7087.34	4.1160	4.1161	0.8018	25.48	0.41	0.750			
0.1132	7244.62	4.1130	4.1131	0.8130	25.48	0.41	0.750			
0.1155	7394.95	4.1100	4.1099	0.8062	25.48	0.41	0.750			
0.1180	7550.96	4.1070	4.1071	0.8097	25.48	0.41	0.750			
0.1204	7707.61	4.1040	4.1040	0.8111	25.48	0.41	0.750			
0.1229	7863.67	4.1010	4.1011	0.8189	25.48	0.41	0.750			
0.1254	8022.72	4.0980	4.0981	0.8249	25.48	0.41	0.750			
0.1278	8180.27	4.0950	4.0949	0.8238	25.48	0.41	0.750			
0.1303	8338.56	4.0920	4.0919	0.8219	25.48	0.41	0.750			
0.1328	8498.23	4.0890	4.0891	0.8178	25.48	0.41	0.750			
0.1352	8654.57	4.0860	4.0861	0.8232	25.48	0.41	0.750			
0.1377	8812.59	4.0830	4.0830	0.8259	25.48	0.41	0.750			
0.1401	8968.31	4.0800	4.0801	0.8230	25.48	0.41	0.750			
0.1426	9127.60	4.0770	4.0770	0.8329	25.48	0.41	0.750			
0.1452	9290.46	4.0740	4.0741	0.8287	25.48	0.41	0.750			
0.1477	9450.51	4.0710	4.0711	0.8393	25.48	0.41	0.750			
0.1502	9611.61	4.0680	4.0680	0.8418	25.49	0.42	0.750			
0.1527	9772.36	4.0650	4.0651	0.8422	25.49	0.42	0.750			
0.1552	9934.28	4.0620	4.0621	0.8439	25.49	0.42	0.750			
0.1578	10097.68	4.0590	4.0591	0.8424	25.49	0.42	0.750			
0.1603	10259.91	4.0560	4.0560	0.8458	25.50	0.43	0.750			
0.1629	10422.66	4.0530	4.0530	0.8512	25.50	0.43	0.750			
0.1654	10583.56	4.0500	4.0500	0.8492	25.50	0.43	0.750			
0.1679	10748.72	4.0470	4.0470	0.8566	25.50	0.43	0.750			
0.1706	10916.22	4.0440	4.0440	0.8508	25.50	0.43	0.750			
0.1731	11078.92	4.0410	4.0410	0.8599	25.51	0.44	0.750			
0.1757	11244.94	4.0380	4.0381	0.8635	25.51	0.44	0.750			
0.1783	11408.51	4.0350	4.0349	0.8624	25.51	0.44	0.750			
0.1808	11573.80	4.0320	4.0321	0.8686	25.51	0.44	0.750			
0.1835	11741.41	4.0290	4.0291	0.8698	25.51	0.44	0.750			
0.1861	11909.81	4.0260	4.0260	0.8754	25.52	0.45	0.750			
0.1887	12078.88	4.0230	4.0231	0.8756	25.52	0.45	0.750			
0.1914	12247.75	4.0200	4.0198	0.8792	25.52	0.45	0.750			
0.1940	12418.14	4.0170	4.0170	0.8803	25.52	0.45	0.750			
0.1967	12587.36	4.0140	4.0140	0.8798	25.52	0.45	0.750			
0.1993	12754.88	4.0110	4.0111	0.8841	25.53	0.46	0.750			
0.2020	12925.71	4.0080	4.0080	0.8888	25.53	0.46	0.750			
0.2046	13095.18	4.0050	4.0050	0.8889	25.53	0.46	0.750			
0.2073	13267.78	4.0020	4.0020	0.8845	25.53	0.46	0.750			
0.2100	13437.59	3.9990	3.9991	0.8931	25.53	0.46	0.750			
0.2126	13609.01	3.9960	3.9961	0.8982	25.53	0.46	0.750			
0.2153	13780.23	3.9930	3.9930	0.9032	25.53	0.46	0.750			
0.2180	13953.96	3.9900	3.9900	0.9057	25.53	0.46	0.750			
0.2208	14129.21	3.9870	3.9871	0.9076	25.53	0.46	0.750			
0.2235	14303.74	3.9840	3.9841	0.9137	25.54	0.47	0.750			
0.2263	14481.37	3.9810	3.9811	0.9220	25.54	0.47	0.750			
0.2290	14656.24	3.9780	3.9778	0.9179	25.54	0.47	0.750			
0.2318	14833.22	3.9750	3.9750	0.9170	25.54	0.47	0.750			
0.2345	15009.49	3.9720	3.9721	0.9201	25.54	0.47	0.750			
0.2373	15188.07	3.9690	3.9690	0.9251	25.55	0.48	0.750			
0.2401	15364.40	3.9660	3.9660	0.9215	25.55	0.48	0.750			
0.2428	15541.07	3.9630	3.9629	0.9232	25.55	0.48	0.750			
0.2456	15718.55	3.9600	3.9600	0.9180	25.55	0.48	0.750			
0.2483	15893.66	3.9570	3.9571	0.9275	25.56	0.49	0.750			
0.2511	16072.24	3.9540	3.9540	0.9345	25.56	0.49	0.750			
0.2539	16251.59	3.9510	3.9506	0.9358	25.56	0.49	0.750			
0.2568	16433.85	3.9480	3.9481	0.9316	25.56	0.49	0.750			
0.2596	16612.49	3.9450	3.9451	0.9391	25.56	0.49	0.750			
0.2624	16793.64	3.9420	3.9420	0.9458	25.57	0.50	0.750			
0.2652	16973.99	3.9390	3.9390	0.9411	25.57	0.50	0.750			
0.2680	17154.79	3.9360	3.9361	0.9423	25.57	0.50	0.750			
0.2709	17337.34	3.9330	3.9330	0.9485	25.58	0.51	0.750			
0.2738	17520.64	3.9300	3.9301	0.9545	25.58	0.51	0.750			
0.2767	17705.77	3.9270	3.9270	0.9603	25.59	0.52	0.750			
0.2795	17888.02	3.9240	3.9239	0.9571	25.59	0.52	0.750			
0.2824	18072.79	3.9210	3.9210	0.9543	25.59	0.52	0.750			
0.2852	18255.20	3.9180	3.9181	0.9584	25.59	0.52	0.750			
0.2881	18438.74	3.9150	3.9150	0.9623	25.59	0.52	0.750			
0.2910	18623.49	3.9120	3.9119	0.9661	25.59	0.52	0.750			
0.2939	18811.07	3.9090	3.9090	0.9597	25.59	0.52	0.750			
0.2968	18994.79	3.9060	3.9061	0.9710	25.59	0.52	0.750			
0.2997	19182.28	3.9030	3.9031	0.9802	25.59	0.52	0.750			
0.3027	19370.27	3.9000	3.9000	0.9866	25.59	0.52	0.750			
0.3057	19561.81	3.8970	3.8971	0.9837	25.59	0.52	0.750			
0.3086	19751.21	3.8940	3.8941	0.9876	25.59	0.52	0.750			
0.3116	19941.29	3.8910	3.8911	0.9917	25.59	0.52	0.750			
0.3146	20132.64	3.8880	3.8880	0.9977	25.59	0.52	0.750			
0.3175	20323.18	3.8850	3.8850	0.9903	25.59	0.52	0.750			
0.3205	20512.51	3.8820	3.8820	0.9961	25.59	0.52	0.750			
0.3235	20704.86	3.8790	3.8790	0.9982	25.59	0.52	0.750			
0.3265	20898.84	3.8760	3.8761	1.0028	25.59	0.52	0.750			
0.3295	21091.10	3.8730	3.8729	1.0023	25.59	0.52	0.750			
0.3325	21282.41	3.8700	3.8700	1.0033	25.59	0.52	0.750			
0.3355	21474.05	3.8670	3.8671	1.0052	25.59	0.52	0.750			
0.3386	21667.34	3.8640	3.8640	1.0156	25.59	0.52	0.750			
0.3416	21862.00	3.8610	3.8607	1.0202	25.59	0.52	0.750			
0.3447	22060.03	3.8580	3.8581	1.0265	25.59	0.52	0.750			
0.3478	22257.28	3.8550	3.8550	1.0310	25.59	0.52	0.750			
0.3509	22457.42	3.8520	3.8521	1.0373	25.59	0.52	0.750			
0.3540	22657.42	3.8490	3.8486	1.0410	25.59	0.52	0.750			
0.3571	22856.14	3.8460	3.8460	1.0411	25.59	0.52	0.750			
0.3602	23055.00	3.8430	3.8430	1.0469	25.58	0.51	0.750			
0.3634	23255.91	3.8400	3.8400	1.0554	25.58	0.51	0.750			
0.3666	23460.57	3.8370	3.8366	1.0645	25.57	0.50	0.750			
0.3697	23663.81	3.8340	3.8341	1.0732	25.56	0.49	0.750			
0.3730	23871.35	3.8310	3.8313	1.0842	25.55	0.48	0.750	0.303	0.418	
0.3763	24082.07	3.8280	3.8281	1.0941	25.55	0.48	0.750			
0.3796	24295.59	3.8250	3.8248	1.0899	25.54	0.47	0.750			
0.3829	24502.84	3.8220	3.8221	1.0946	25.53	0.46	0.750			
0.3861	24711.34	3.8190	3.8191	1.0941	25.52	0.45	0.750			
0.3894	24921.73	3.8160	3.8160	1.1046	25.52	0.45	0.750			
0.3928	25136.44	3.8130	3.8129	1.0985	25.51	0.44	0.750			
0.3960	25346.63	3.8100	3.8101	1.1126	25.50	0.43	0.750			
0.3994	25562.21	3.8070	3.8071	1.1226	25.49	0.42	0.750			
0.4028	25779.61	3.8040	3.8040	1.1304	25.48	0.41	0.750			
0.4062	25995.13	3.8010	3.8011	1.1286	25.47	0.40	0.750			
0.4096	26212.20	3.7980	3.7981	1.1374	25.47	0.40	0.750			
0.4130	26431.66	3.7950	3.7950	1.1451	25.46	0.39	0.750			
0.4165	26655.33	3.7920	3.7917	1.1511	25.45	0.38	0.750			
0.4199	26871.81	3.7890	3.7891	1.1577	25.44	0.37	0.750			
0.4234	27094.88	3.7860	3.7861	1.1763	25.43	0.36	0.750			
0.4269	27322.64	3.7830	3.7830	1.1924	25.42	0.35	0.750			
0.4305	27552.44	3.7800	3.7800	1.1930	25.41	0.34	0.750			
0.4341	27781.30	3.7770	3.7771	1.2176	25.39	0.32	0.750			
0.4378	28016.62	3.7740	3.7741	1.2430	25.38	0.31	0.750			
0.4415	28257.73	3.7710	3.7705	1.2630	25.37	0.30	0.750			
0.4453	28498.35	3.7680	3.7681	1.2840	25.36	0.29	0.750			
0.4492	28748.95	3.7650	3.7651	1.3157	25.35	0.28	0.750			
0.4532	29006.87	3.7620	3.7619	1.3505	25.33	0.26	0.750			
0.4573	29267.34	3.7590	3.7591	1.3701	25.32	0.25	0.750			
0.4615	29533.57	3.7560	3.7561	1.4012	25.31	0.24	0.750			
0.4658	29811.28	3.7530	3.7529	1.4101	25.30	0.23	0.750			
0.4700	30081.24	3.7500	3.7501	1.4342	25.29	0.22	0.750			
0.4743	30356.16	3.7470	3.7471	1.4786	25.28	0.21	0.750			
0.4788	30645.45	3.7440	3.7436	1.5076	25.27	0.20	0.750			
0.4833	30932.97	3.7410	3.7413	1.5601	25.25	0.18	0.750			
0.4881	31240.48	3.7380	3.7382	1.6090	25.23	0.16	0.750			
0.4931	31560.06	3.7350	3.7350	1.6635	25.21	0.14	0.750			
0.4982	31886.22	3.7320	3.7322	1.7063	25.20	0.13	0.750			
0.5034	32215.67	3.7290	3.7292	1.7656	25.18	0.11	0.750			
0.5087	32559.08	3.7260	3.7261	1.7909	25.17	0.10	0.750			
0.5143	32913.00	3.7230	3.7231	1.8560	25.16	0.09	0.750			
0.5198	33268.06	3.7200	3.7198	1.9025	25.14	0.07	0.750			
0.5255	33633.16	3.7170	3.7168	1.9682	25.11	0.04	0.750			
0.5315	34017.19	3.7140	3.7140	2.0285	25.10	0.03	0.750			
0.5379	34424.64	3.7110	3.7109	2.0785	25.09	0.02	0.750			
0.5442	34827.11	3.7080	3.7081	2.1485	25.07	0.00	0.750			
0.5506	35238.96	3.7050	3.7052	2.2012	25.05	-0.02	0.750			
0.5573	35664.15	3.7020	3.7019	2.2477	25.03	-0.04	0.750			
0.5641	36101.84	3.6990	3.6991	2.3071	25.02	-0.05	0.750			
0.5711	36552.34	3.6960	3.6960	2.3919	25.00	-0.07	0.750			
0.5784	37015.94	3.6930	3.6932	2.4687	24.98	-0.09	0.750			
0.5860	37503.64	3.6900	3.6900	2.5234	24.97	-0.10	0.750			
0.5937	37994.05	3.6870	3.6870	2.6139	24.96	-0.11	0.750			
0.6018	38514.93	3.6840	3.6838	2.7019	24.94	-0.13	0.750			
0.6100	39036.90	3.6810	3.6810	2.7543	24.93	-0.14	0.750			
0.6184	39576.53	3.6780	3.6779	2.8525	24.92	-0.15	0.750			
0.6269	40119.32	3.6750	3.6750	2.9046	24.92	-0.15	0.750			
0.6356	40681.06	3.6720	3.6721	2.9654	24.91	-0.16	0.750			
0.6446	41255.99	3.6690	3.6691	2.9554	24.90	-0.17	0.750			
0.6535	41824.62	3.6660	3.6663	2.9167	24.90	-0.17	0.750			
0.6623	42389.44	3.6630	3.6631	2.8033	24.90	-0.17	0.750			
0.6706	42916.69	3.6600	3.6599	2.6322	24.91	-0.16	0.750			
0.6783	43410.08	3.6570	3.6571	2.4222	24.92	-0.15	0.750			
0.6854	43862.45	3.6540	3.6544	2.2141	24.93	-0.14	0.750			
0.6914	44252.70	3.6510	3.6510	1.9660	24.94	-0.13	0.750			
0.6971	44611.42	3.6480	3.6479	1.7741	24.96	-0.11	0.750			
0.7020	44930.93	3.6450	3.6452	1.5774	24.97	-0.10	0.750			
0.7065	45216.28	3.6420	3.6421	1.4078	24.98	-0.09	0.750			
0.7103	45459.89	3.6390	3.6392	1.2474	24.99	-0.08	0.750			
0.7137	45676.82	3.6360	3.6361	1.1099	25.00	-0.07	0.750			
0.7168	45872.46	3.6330	3.6330	1.0381	25.00	-0.07	0.750			
0.7196	46052.42	3.6300	3.6300	0.9544	25.01	-0.06	0.750			
0.7223	46228.35	3.6270	3.6268	0.9171	25.01	-0.06	0.750			
0.7250	46400.72	3.6240	3.6241	0.8874	25.02	-0.05	0.750			
0.7276	46569.21	3.6210	3.6210	0.8604	25.03	-0.04	0.750			
0.7302	46734.74	3.6180	3.6180	0.8308	25.03	-0.04	0.750			
0.7327	46893.26	3.6150	3.6149	0.7873	25.04	-0.03	0.750			
0.7350	47042.71	3.6120	3.6120	0.7216	25.05	-0.02	0.750			
0.7372	47180.73	3.6090	3.6091	0.6683	25.06	-0.01	0.750			
0.7391	47301.91	3.6060	3.6061	0.5963	25.06	-0.01	0.750			
0.7408	47408.89	3.6030	3.6032	0.5240	25.07	-0.00	0.750			
0.7422	47500.11	3.6000	3.6001	0.4511	25.07	0.00	0.750			
0.7434	47579.51	3.5970	3.5971	0.3833	25.08	0.01	0.750			
0.7445	47647.20	3.5940	3.5940	0.3205	25.08	0.01	0.750			
0.7454	47702.91	3.5910	3.5910	0.2570	25.08	0.01	0.750			
0.7460	47745.62	3.5880	3.5881	0.1907	25.08	0.01	0.750			
0.7465	47777.58	3.5850	3.5856	0.1271	25.09	0.02	0.750			
0.7468	47796.08	3.5820	3.5833	0.0600	25.09	0.02	0.750			
0.7469	47800.98	3.5790	3.5823	-0.0025	25.09	0.02	0.750			
