Ah_balance (normalized)	Ah_balance (mAh)	Voltage - fit (V)	Voltage -  interpolate (V)	dQ/dV (1/V)	Temperature (°C)	Temperature - diff (°C)	Current (C)	R_DC 0ms (mOhm)	R_DC 50ms (mOhm)	R_DC 50 ms PEC (mOhm)
0.0474	3035.87	4.1980	4.1980	0.7398	25.49	0.58	0.750			
0.0496	3174.96	4.1950	4.1950	0.7270	25.48	0.57	0.750			
0.0518	3317.34	4.1920	4.1921	0.7451	25.48	0.57	0.750			
0.0541	3462.47	4.1890	4.1889	0.7553	25.48	0.57	0.750			
0.0564	3608.99	4.1860	4.1861	0.7610	25.48	0.57	0.750			
0.0587	3756.73	4.1830	4.1831	0.7608	25.48	0.57	0.750			
0.0610	3905.45	4.1800	4.1800	0.7608	25.47	0.56	0.750			
0.0633	4049.57	4.1770	4.1771	0.7527	25.47	0.56	0.750			
0.0655	4193.52	4.1740	4.1740	0.7542	25.47	0.56	0.750			
0.0678	4337.84	4.1710	4.1710	0.7600	25.47	0.56	0.750			
0.0701	4483.87	4.1680	4.1680	0.7636	25.47	0.56	0.750			
0.0723	4630.16	4.1650	4.1650	0.7565	25.47	0.56	0.750			
0.0746	4776.04	4.1620	4.1621	0.7646	25.47	0.56	0.750			
0.0769	4921.50	4.1590	4.1592	0.7686	25.47	0.56	0.750			
0.0792	5069.90	4.1560	4.1558	0.7717	25.47	0.56	0.750			
0.0815	5218.60	4.1530	4.1532	0.7714	25.47	0.56	0.750			
0.0839	5368.59	4.1500	4.1501	0.7644	25.47	0.56	0.750			
0.0862	5517.84	4.1470	4.1470	0.7726	25.47	0.56	0.750			
0.0885	5663.63	4.1440	4.1441	0.7655	25.47	0.56	0.750			
0.0907	5807.56	4.1410	4.1407	0.7684	25.47	0.56	0.750			
0.0931	5957.01	4.1380	4.1381	0.7715	25.47	0.56	0.750			
0.0954	6107.47	4.1350	4.1350	0.7755	25.47	0.56	0.750			
0.0978	6256.64	4.1320	4.1320	0.7795	25.47	0.56	0.750			
0.1001	6408.59	4.1290	4.1290	0.7854	25.47	0.56	0.750			
0.1024	6553.50	4.1260	4.1260	0.7911	25.47	0.56	0.750			
0.1048	6705.80	4.1230	4.1230	0.8071	25.47	0.56	0.750			
0.1072	6863.27	4.1200	4.1199	0.8094	25.47	0.56	0.750			
0.1097	7022.86	4.1170	4.1168	0.8170	25.47	0.56	0.750			
0.1122	7183.26	4.1140	4.1142	0.8191	25.47	0.56	0.750			
0.1147	7339.45	4.1110	4.1110	0.8113	25.47	0.56	0.750			
0.1171	7494.64	4.1080	4.1081	0.8072	25.47	0.56	0.750			
0.1195	7649.14	4.1050	4.1050	0.7952	25.47	0.56	0.750			
0.1219	7798.47	4.1020	4.1020	0.7908	25.47	0.56	0.750			
0.1242	7950.43	4.0990	4.0990	0.7955	25.47	0.56	0.750			
0.1266	8102.29	4.0960	4.0961	0.7935	25.47	0.56	0.750			
0.1290	8254.58	4.0930	4.0928	0.7973	25.47	0.56	0.750			
0.1314	8407.48	4.0900	4.0901	0.8017	25.47	0.56	0.750			
0.1338	8561.67	4.0870	4.0870	0.8021	25.47	0.56	0.750			
0.1362	8717.33	4.0840	4.0840	0.8093	25.48	0.57	0.750			
0.1386	8872.12	4.0810	4.0810	0.8070	25.48	0.57	0.750			
0.1411	9027.75	4.0780	4.0779	0.8103	25.48	0.57	0.750			
0.1435	9184.42	4.0750	4.0750	0.8141	25.48	0.57	0.750			
0.1459	9340.44	4.0720	4.0720	0.8104	25.48	0.57	0.750			
0.1484	9496.30	4.0690	4.0690	0.8098	25.48	0.57	0.750			
0.1508	9650.33	4.0660	4.0661	0.8127	25.48	0.57	0.750			
0.1532	9806.48	4.0630	4.0628	0.8145	25.48	0.57	0.750			
0.1557	9963.34	4.0600	4.0601	0.8186	25.48	0.57	0.750			
0.1582	10123.54	4.0570	4.0570	0.8095	25.48	0.57	0.750			
0.1606	10277.98	4.0540	4.0541	0.8203	25.48	0.57	0.750			
0.1631	10435.41	4.0510	4.0511	0.8260	25.48	0.57	0.750			
0.1655	10591.44	4.0480	4.0479	0.8287	25.48	0.57	0.750			
0.1680	10750.52	4.0450	4.0451	0.8347	25.48	0.57	0.750			
0.1705	10913.49	4.0420	4.0420	0.8381	25.48	0.57	0.750			
0.1731	11076.02	4.0390	4.0390	0.8390	25.48	0.57	0.750			
0.1756	11238.36	4.0360	4.0361	0.8367	25.48	0.57	0.750			
0.1781	11399.61	4.0330	4.0330	0.8334	25.48	0.57	0.750			
0.1806	11558.40	4.0300	4.0300	0.8323	25.48	0.57	0.750			
0.1831	11718.03	4.0270	4.0270	0.8322	25.48	0.57	0.750			
0.1856	11876.53	4.0240	4.0241	0.8371	25.49	0.58	0.750			
0.1881	12037.40	4.0210	4.0209	0.8436	25.49	0.58	0.750			
0.1906	12199.59	4.0180	4.0179	0.8508	25.49	0.58	0.750			
0.1932	12364.02	4.0150	4.0151	0.8554	25.49	0.58	0.750			
0.1958	12530.86	4.0120	4.0120	0.8609	25.49	0.58	0.750			
0.1984	12696.41	4.0090	4.0091	0.8633	25.50	0.59	0.750			
0.2010	12861.67	4.0060	4.0060	0.8645	25.50	0.59	0.750			
0.2036	13027.99	4.0030	4.0026	0.8687	25.50	0.59	0.750			
0.2062	13195.66	4.0000	4.0000	0.8681	25.50	0.59	0.750			
0.2088	13362.13	3.9970	3.9971	0.8731	25.50	0.59	0.750			
0.2114	13532.42	3.9940	3.9940	0.8769	25.51	0.60	0.750			
0.2141	13701.76	3.9910	3.9910	0.8806	25.51	0.60	0.750			
0.2167	13867.54	3.9880	3.9880	0.8761	25.51	0.60	0.750			
0.2193	14037.64	3.9850	3.9850	0.8710	25.51	0.60	0.750			
0.2219	14204.03	3.9820	3.9820	0.8795	25.51	0.60	0.750			
0.2246	14373.17	3.9790	3.9790	0.8843	25.51	0.60	0.750			
0.2272	14542.82	3.9760	3.9761	0.8860	25.51	0.60	0.750			
0.2299	14713.80	3.9730	3.9731	0.8916	25.51	0.60	0.750			
0.2326	14887.56	3.9700	3.9701	0.8786	25.51	0.60	0.750			
0.2352	15054.86	3.9670	3.9670	0.8909	25.51	0.60	0.750			
0.2379	15226.65	3.9640	3.9641	0.8944	25.51	0.60	0.750			
0.2406	15395.53	3.9610	3.9609	0.8944	25.51	0.60	0.750			
0.2433	15570.49	3.9580	3.9582	0.8974	25.51	0.60	0.750			
0.2460	15744.04	3.9550	3.9551	0.9027	25.51	0.60	0.750			
0.2487	15918.50	3.9520	3.9520	0.9039	25.51	0.60	0.750			
0.2515	16094.90	3.9490	3.9490	0.9100	25.51	0.60	0.750			
0.2541	16264.65	3.9460	3.9460	0.8999	25.51	0.60	0.750			
0.2569	16438.56	3.9430	3.9430	0.9050	25.51	0.60	0.750			
0.2595	16609.25	3.9400	3.9401	0.8972	25.51	0.60	0.750			
0.2622	16781.72	3.9370	3.9371	0.9044	25.51	0.60	0.750			
0.2649	16954.86	3.9340	3.9341	0.9069	25.51	0.60	0.750			
0.2677	17129.87	3.9310	3.9311	0.9088	25.51	0.60	0.750			
0.2704	17305.27	3.9280	3.9282	0.9003	25.50	0.59	0.750			
0.2731	17478.38	3.9250	3.9251	0.9069	25.50	0.59	0.750			
0.2758	17653.55	3.9220	3.9221	0.9143	25.49	0.58	0.750			
0.2785	17825.37	3.9190	3.9184	0.9060	25.49	0.58	0.750			
0.2812	17998.66	3.9160	3.9162	0.9098	25.49	0.58	0.750			
0.2840	18175.14	3.9130	3.9131	0.9177	25.49	0.58	0.750			
0.2868	18356.11	3.9100	3.9100	0.9274	25.48	0.57	0.750			
0.2896	18531.68	3.9070	3.9070	0.9155	25.48	0.57	0.750			
0.2923	18709.16	3.9040	3.9040	0.9160	25.48	0.57	0.750			
0.2951	18884.86	3.9010	3.9010	0.9119	25.48	0.57	0.750			
0.2978	19060.01	3.8980	3.8980	0.9139	25.47	0.56	0.750			
0.3005	19234.35	3.8950	3.8950	0.9128	25.47	0.56	0.750			
0.3033	19408.75	3.8920	3.8916	0.9157	25.47	0.56	0.750			
0.3060	19587.12	3.8890	3.8890	0.9081	25.47	0.56	0.750			
0.3088	19761.20	3.8860	3.8861	0.9130	25.46	0.55	0.750			
0.3115	19936.47	3.8830	3.8830	0.9165	25.46	0.55	0.750			
0.3143	20112.43	3.8800	3.8801	0.9211	25.45	0.54	0.750			
0.3170	20287.43	3.8770	3.8768	0.9164	25.45	0.54	0.750			
0.3198	20464.02	3.8740	3.8740	0.9176	25.44	0.53	0.750			
0.3225	20640.08	3.8710	3.8711	0.9219	25.43	0.52	0.750			
0.3253	20819.03	3.8680	3.8681	0.9285	25.43	0.52	0.750			
0.3281	20996.71	3.8650	3.8649	0.9249	25.42	0.51	0.750			
0.3309	21177.72	3.8620	3.8620	0.9191	25.41	0.50	0.750			
0.3336	21352.31	3.8590	3.8591	0.9253	25.40	0.49	0.750			
0.3364	21530.51	3.8560	3.8560	0.9316	25.40	0.49	0.750			
0.3392	21709.65	3.8530	3.8530	0.9290	25.39	0.48	0.750			
0.3420	21885.94	3.8500	3.8499	0.9265	25.38	0.47	0.750			
0.3448	22066.03	3.8470	3.8471	0.9203	25.37	0.46	0.750			
0.3475	22240.33	3.8440	3.8441	0.9399	25.36	0.45	0.750			
0.3503	22422.17	3.8410	3.8410	0.9494	25.36	0.45	0.750			
0.3532	22604.13	3.8380	3.8378	0.9499	25.35	0.44	0.750	0.311	0.440	
0.3561	22788.22	3.8350	3.8352	0.9623	25.34	0.43	0.750			
0.3590	22975.66	3.8320	3.8321	0.9738	25.33	0.42	0.750			
0.3620	23165.66	3.8290	3.8290	0.9778	25.32	0.41	0.750			
0.3649	23351.99	3.8260	3.8260	0.9704	25.31	0.40	0.750			
0.3678	23540.62	3.8230	3.8230	0.9679	25.30	0.39	0.750			
0.3707	23727.65	3.8200	3.8200	0.9809	25.29	0.38	0.750			
0.3737	23914.68	3.8170	3.8170	0.9880	25.28	0.37	0.750			
0.3766	24103.58	3.8140	3.8141	0.9943	25.27	0.36	0.750			
0.3797	24297.91	3.8110	3.8110	0.9928	25.27	0.36	0.750			
0.3826	24489.09	3.8080	3.8081	1.0034	25.25	0.34	0.750			
0.3856	24680.92	3.8050	3.8051	1.0195	25.24	0.33	0.750			
0.3887	24878.06	3.8020	3.8021	1.0323	25.23	0.32	0.750			
0.3918	25076.03	3.7990	3.7987	1.0379	25.22	0.31	0.750			
0.3950	25276.84	3.7960	3.7962	1.0565	25.21	0.30	0.750			
0.3982	25482.50	3.7930	3.7930	1.0753	25.20	0.29	0.750			
0.4014	25690.58	3.7900	3.7900	1.0981	25.19	0.28	0.750			
0.4048	25905.06	3.7870	3.7870	1.0925	25.18	0.27	0.750			
0.4080	26114.38	3.7840	3.7840	1.1178	25.17	0.26	0.750			
0.4114	26329.95	3.7810	3.7811	1.1434	25.16	0.25	0.750			
0.4148	26550.05	3.7780	3.7781	1.1736	25.15	0.24	0.750			
0.4184	26776.61	3.7750	3.7751	1.1866	25.14	0.23	0.750			
0.4220	27007.26	3.7720	3.7720	1.2112	25.13	0.22	0.750			
0.4257	27242.44	3.7690	3.7692	1.2347	25.12	0.21	0.750			
0.4294	27483.59	3.7660	3.7660	1.2461	25.11	0.20	0.750			
0.4332	27722.68	3.7630	3.7630	1.2764	25.10	0.19	0.750			
0.4370	27970.02	3.7600	3.7601	1.3047	25.08	0.17	0.750			
0.4410	28222.84	3.7570	3.7567	1.3214	25.07	0.16	0.750			
0.4450	28477.82	3.7540	3.7541	1.3515	25.06	0.15	0.750			
0.4491	28740.71	3.7510	3.7512	1.3872	25.04	0.13	0.750			
0.4533	29010.12	3.7480	3.7477	1.4115	25.03	0.12	0.750			
0.4576	29286.79	3.7450	3.7451	1.4154	25.02	0.11	0.750			
0.4618	29556.11	3.7420	3.7421	1.4697	25.01	0.10	0.750			
0.4664	29848.35	3.7390	3.7385	1.4951	25.00	0.09	0.750			
0.4708	30133.48	3.7360	3.7362	1.5380	24.99	0.08	0.750			
0.4756	30436.40	3.7330	3.7333	1.5617	24.97	0.06	0.750			
0.4804	30748.24	3.7300	3.7296	1.5986	24.96	0.05	0.750			
0.4851	31046.82	3.7270	3.7271	1.6511	24.94	0.03	0.750			
0.4902	31373.42	3.7240	3.7240	1.6853	24.93	0.02	0.750			
0.4952	31690.51	3.7210	3.7207	1.7572	24.91	0.00	0.750			
0.5006	32038.53	3.7180	3.7179	1.8426	24.89	-0.02	0.750			
0.5062	32394.04	3.7150	3.7152	1.9039	24.88	-0.03	0.750			
0.5121	32775.31	3.7120	3.7119	1.9581	24.87	-0.04	0.750			
0.5181	33155.54	3.7090	3.7085	2.0403	24.85	-0.06	0.750			
0.5242	33551.48	3.7060	3.7060	2.1344	24.83	-0.08	0.750			
0.5306	33958.20	3.7030	3.7026	2.1419	24.82	-0.09	0.750			
0.5371	34373.10	3.7000	3.6998	2.1944	24.81	-0.10	0.750			
0.5437	34797.05	3.6970	3.6970	2.3213	24.80	-0.11	0.750			
0.5507	35246.27	3.6940	3.6936	2.1853	24.78	-0.13	0.750			
0.5574	35676.36	3.6910	3.6915	2.3043	24.77	-0.14	0.750			
0.5643	36112.86	3.6880	3.6881	2.2426	24.75	-0.16	0.750			
0.5706	36521.49	3.6850	3.6856	2.4108	24.75	-0.16	0.750			
0.5784	37017.63	3.6820	3.6816	2.6612	24.74	-0.17	0.750			
0.5861	37511.66	3.6790	3.6795	2.7237	24.74	-0.17	0.750			
0.5941	38019.36	3.6760	3.6758	2.7723	24.74	-0.17	0.750			
0.6024	38553.27	3.6730	3.6731	2.6791	24.72	-0.19	0.750			
0.6102	39050.65	3.6700	3.6698	2.5742	24.73	-0.18	0.750			
0.6178	39538.00	3.6670	3.6672	2.4443	24.73	-0.18	0.750			
0.6246	39976.12	3.6640	3.6641	2.2304	24.74	-0.17	0.750			
0.6311	40387.72	3.6610	3.6615	2.1092	24.74	-0.17	0.750			
0.6368	40756.41	3.6580	3.6571	1.9245	24.75	-0.16	0.750			
0.6420	41089.40	3.6550	3.6550	1.7474	24.76	-0.15	0.750			
0.6472	41419.71	3.6520	3.6527	1.6291	24.77	-0.14	0.750			
0.6522	41739.92	3.6490	3.6494	1.5464	24.78	-0.13	0.750			
0.6564	42012.62	3.6460	3.6464	1.4059	24.79	-0.12	0.750			
0.6607	42285.07	3.6430	3.6430	1.2930	24.80	-0.11	0.750			
0.6642	42511.92	3.6400	3.6401	1.1927	24.81	-0.10	0.750			
0.6676	42727.06	3.6370	3.6370	1.1110	24.81	-0.10	0.750			
0.6707	42921.77	3.6340	3.6342	1.0298	24.82	-0.09	0.750			
0.6736	43110.30	3.6310	3.6312	0.9964	24.82	-0.09	0.750			
0.6765	43296.29	3.6280	3.6282	0.9704	24.83	-0.08	0.750			
0.6794	43484.13	3.6250	3.6251	0.9263	24.83	-0.08	0.750			
0.6822	43662.58	3.6220	3.6221	0.8828	24.84	-0.07	0.750			
0.6848	43829.35	3.6190	3.6192	0.8388	24.84	-0.07	0.750			
0.6873	43990.34	3.6160	3.6163	0.7992	24.85	-0.06	0.750			
0.6896	44136.99	3.6130	3.6135	0.7349	24.86	-0.05	0.750			
0.6917	44266.58	3.6100	3.6100	0.7018	24.86	-0.05	0.750			
0.6937	44394.80	3.6070	3.6081	0.6647	24.87	-0.04	0.750			
0.6957	44523.84	3.6040	3.6036	0.6229	24.88	-0.03	0.750			
0.6976	44645.16	3.6010	3.6016	0.5794	24.89	-0.02	0.750			
0.6992	44751.31	3.5980	3.5985	0.5152	24.89	-0.02	0.750			
0.7008	44849.43	3.5950	3.5950	0.4572	24.90	-0.01	0.750			
0.7020	44929.27	3.5920	3.5918	0.3937	24.90	-0.01	0.750			
0.7030	44992.26	3.5890	3.5891	0.3249	24.91	-0.00	0.750			
0.7039	45049.68	3.5860	3.5860	0.2764	24.91	0.00	0.750			
0.7047	45098.12	3.5830	3.5815	0.2287	24.91	0.00	0.750			
0.7053	45136.80	3.5800	3.5807	0.1816	24.92	0.01	0.750			
0.7057	45167.11	3.5770	3.5778	0.1364	24.92	0.01	0.750			
0.7061	45189.24	3.5740	3.5748	0.0789	24.92	0.01	0.750			
