Ah_balance (normalized)	Ah_balance (mAh)	Voltage - fit (V)	Voltage -  interpolate (V)	dQ/dV (1/V)	Temperature (°C)	Temperature - diff (°C)	Current (C)	R_DC 0ms (mOhm)	R_DC 50ms (mOhm)	R_DC 50 ms PEC (mOhm)
0.0493	3157.74	4.1960	4.1962	0.7553	25.19	0.45	0.750			
0.0516	3299.89	4.1930	4.1931	0.7444	25.19	0.45	0.750			
0.0538	3442.49	4.1900	4.1900	0.7490	25.20	0.46	0.750			
0.0560	3587.10	4.1870	4.1870	0.7529	25.20	0.46	0.750			
0.0583	3731.47	4.1840	4.1840	0.7560	25.20	0.46	0.750			
0.0606	3879.66	4.1810	4.1810	0.7534	25.21	0.47	0.750			
0.0629	4025.58	4.1780	4.1780	0.7559	25.21	0.47	0.750			
0.0651	4168.44	4.1750	4.1751	0.7587	25.21	0.47	0.750			
0.0674	4313.43	4.1720	4.1721	0.7602	25.22	0.48	0.750			
0.0697	4458.74	4.1690	4.1687	0.7626	25.22	0.48	0.750			
0.0720	4607.79	4.1660	4.1661	0.7606	25.22	0.48	0.750			
0.0743	4757.62	4.1630	4.1630	0.7512	25.22	0.48	0.750			
0.0765	4898.79	4.1600	4.1601	0.7530	25.22	0.48	0.750			
0.0788	5040.28	4.1570	4.1571	0.7485	25.22	0.48	0.750			
0.0810	5182.62	4.1540	4.1541	0.7533	25.22	0.48	0.750			
0.0832	5326.42	4.1510	4.1512	0.7578	25.22	0.48	0.750			
0.0855	5474.83	4.1480	4.1481	0.7580	25.23	0.49	0.750			
0.0879	5623.98	4.1450	4.1450	0.7756	25.23	0.49	0.750			
0.0902	5774.65	4.1420	4.1420	0.7813	25.23	0.49	0.750			
0.0925	5920.38	4.1390	4.1390	0.7731	25.24	0.50	0.750			
0.0948	6069.38	4.1360	4.1362	0.7764	25.24	0.50	0.750			
0.0972	6219.64	4.1330	4.1330	0.7786	25.24	0.50	0.750			
0.0996	6371.36	4.1300	4.1300	0.7726	25.24	0.50	0.750			
0.1018	6517.27	4.1270	4.1271	0.7745	25.25	0.51	0.750			
0.1041	6663.86	4.1240	4.1242	0.7742	25.25	0.51	0.750			
0.1064	6812.70	4.1210	4.1205	0.7809	25.25	0.51	0.750			
0.1088	6961.70	4.1180	4.1181	0.7848	25.25	0.51	0.750			
0.1113	7120.11	4.1150	4.1150	0.7705	25.25	0.51	0.750			
0.1136	7267.71	4.1120	4.1121	0.7822	25.26	0.52	0.750			
0.1158	7413.94	4.1090	4.1092	0.7749	25.26	0.52	0.750			
0.1181	7561.45	4.1060	4.1062	0.7887	25.26	0.52	0.750			
0.1205	7711.86	4.1030	4.1030	0.7936	25.26	0.52	0.750			
0.1229	7866.96	4.1000	4.1002	0.7926	25.26	0.52	0.750			
0.1253	8021.35	4.0970	4.0973	0.8049	25.26	0.52	0.750			
0.1278	8179.82	4.0940	4.0940	0.8092	25.27	0.53	0.750			
0.1302	8332.76	4.0910	4.0909	0.7985	25.27	0.53	0.750			
0.1326	8484.90	4.0880	4.0880	0.8011	25.27	0.53	0.750			
0.1350	8639.55	4.0850	4.0852	0.8002	25.27	0.53	0.750			
0.1374	8795.19	4.0820	4.0820	0.8110	25.27	0.53	0.750			
0.1399	8951.87	4.0790	4.0790	0.8132	25.27	0.53	0.750			
0.1423	9107.03	4.0760	4.0760	0.8089	25.27	0.53	0.750			
0.1447	9262.90	4.0730	4.0730	0.8133	25.27	0.53	0.750			
0.1472	9422.49	4.0700	4.0700	0.8013	25.27	0.53	0.750			
0.1496	9573.53	4.0670	4.0670	0.8068	25.27	0.53	0.750			
0.1520	9727.68	4.0640	4.0640	0.8090	25.28	0.54	0.750			
0.1544	9880.12	4.0610	4.0611	0.8154	25.28	0.54	0.750			
0.1568	10036.89	4.0580	4.0568	0.8242	25.28	0.54	0.750			
0.1594	10198.75	4.0550	4.0552	0.8256	25.28	0.54	0.750			
0.1619	10358.57	4.0520	4.0521	0.8316	25.29	0.55	0.750			
0.1644	10519.93	4.0490	4.0491	0.8385	25.29	0.55	0.750			
0.1669	10679.70	4.0460	4.0460	0.8351	25.30	0.56	0.750			
0.1694	10841.28	4.0430	4.0428	0.8379	25.30	0.56	0.750			
0.1719	11003.88	4.0400	4.0400	0.8332	25.30	0.56	0.750			
0.1745	11165.38	4.0370	4.0371	0.8386	25.30	0.56	0.750			
0.1770	11325.85	4.0340	4.0341	0.8409	25.30	0.56	0.750			
0.1795	11485.82	4.0310	4.0310	0.8387	25.30	0.56	0.750			
0.1819	11643.49	4.0280	4.0278	0.8386	25.30	0.56	0.750			
0.1845	11805.63	4.0250	4.0250	0.8448	25.30	0.56	0.750			
0.1871	11971.69	4.0220	4.0220	0.8450	25.31	0.57	0.750			
0.1896	12131.51	4.0190	4.0190	0.8533	25.31	0.57	0.750			
0.1921	12294.81	4.0160	4.0163	0.8554	25.32	0.58	0.750			
0.1947	12460.23	4.0130	4.0131	0.8620	25.32	0.58	0.750			
0.1973	12626.48	4.0100	4.0101	0.8652	25.32	0.58	0.750			
0.1999	12793.98	4.0070	4.0071	0.8702	25.32	0.58	0.750			
0.2026	12964.82	4.0040	4.0040	0.8775	25.32	0.58	0.750			
0.2052	13131.12	4.0010	4.0010	0.8667	25.32	0.58	0.750			
0.2078	13296.53	3.9980	3.9980	0.8660	25.32	0.58	0.750			
0.2104	13465.04	3.9950	3.9950	0.8643	25.33	0.59	0.750			
0.2130	13628.96	3.9920	3.9920	0.8742	25.33	0.59	0.750			
0.2156	13797.21	3.9890	3.9890	0.8799	25.33	0.59	0.750			
0.2182	13966.44	3.9860	3.9859	0.8846	25.34	0.60	0.750			
0.2209	14137.59	3.9830	3.9831	0.8889	25.34	0.60	0.750			
0.2236	14311.06	3.9800	3.9801	0.8835	25.34	0.60	0.750			
0.2262	14479.88	3.9770	3.9770	0.8824	25.35	0.61	0.750			
0.2289	14648.21	3.9740	3.9741	0.8875	25.35	0.61	0.750			
0.2315	14814.52	3.9710	3.9705	0.8873	25.35	0.61	0.750			
0.2342	14987.48	3.9680	3.9681	0.8886	25.35	0.61	0.750			
0.2369	15158.99	3.9650	3.9651	0.8944	25.35	0.61	0.750			
0.2396	15331.88	3.9620	3.9621	0.9002	25.35	0.61	0.750			
0.2423	15508.97	3.9590	3.9590	0.9088	25.35	0.61	0.750			
0.2450	15679.18	3.9560	3.9559	0.8994	25.35	0.61	0.750			
0.2477	15854.22	3.9530	3.9529	0.8889	25.35	0.61	0.750			
0.2504	16023.06	3.9500	3.9501	0.8978	25.35	0.61	0.750			
0.2531	16196.26	3.9470	3.9471	0.9032	25.35	0.61	0.750			
0.2557	16367.81	3.9440	3.9438	0.9052	25.35	0.61	0.750			
0.2585	16542.34	3.9410	3.9411	0.9076	25.35	0.61	0.750			
0.2613	16722.17	3.9380	3.9380	0.8823	25.35	0.61	0.750			
0.2639	16888.29	3.9350	3.9352	0.9054	25.35	0.61	0.750			
0.2666	17060.86	3.9320	3.9321	0.9019	25.35	0.61	0.750			
0.2693	17235.63	3.9290	3.9279	0.9076	25.35	0.61	0.750			
0.2720	17410.53	3.9260	3.9263	0.9103	25.35	0.61	0.750			
0.2748	17585.99	3.9230	3.9231	0.9166	25.35	0.61	0.750			
0.2776	17767.32	3.9200	3.9200	0.9126	25.35	0.61	0.750			
0.2803	17940.54	3.9170	3.9170	0.9027	25.35	0.61	0.750			
0.2830	18113.94	3.9140	3.9141	0.9142	25.35	0.61	0.750			
0.2858	18292.55	3.9110	3.9111	0.9112	25.34	0.60	0.750			
0.2885	18466.98	3.9080	3.9083	0.9160	25.34	0.60	0.750			
0.2913	18642.62	3.9050	3.9051	0.9196	25.33	0.59	0.750			
0.2940	18818.53	3.9020	3.9016	0.9222	25.33	0.59	0.750			
0.2969	19001.04	3.8990	3.8990	0.9061	25.33	0.59	0.750			
0.2996	19172.22	3.8960	3.8961	0.9076	25.33	0.59	0.750			
0.3023	19346.60	3.8930	3.8931	0.9166	25.32	0.58	0.750			
0.3050	19521.21	3.8900	3.8902	0.9229	25.32	0.58	0.750			
0.3078	19697.23	3.8870	3.8868	0.9265	25.32	0.58	0.750			
0.3106	19877.70	3.8840	3.8841	0.9294	25.31	0.57	0.750			
0.3134	20058.49	3.8810	3.8811	0.9387	25.31	0.57	0.750			
0.3163	20242.50	3.8780	3.8781	0.9434	25.30	0.56	0.750			
0.3191	20421.04	3.8750	3.8747	0.9333	25.30	0.56	0.750			
0.3219	20601.38	3.8720	3.8720	0.9284	25.29	0.55	0.750			
0.3247	20779.22	3.8690	3.8691	0.9339	25.29	0.55	0.750			
0.3275	20960.47	3.8660	3.8660	0.9392	25.28	0.54	0.750			
0.3303	21139.19	3.8630	3.8631	0.9356	25.27	0.53	0.750			
0.3331	21320.20	3.8600	3.8601	0.9264	25.27	0.53	0.750			
0.3359	21496.61	3.8570	3.8571	0.9217	25.26	0.52	0.750			
0.3386	21670.31	3.8540	3.8542	0.9212	25.26	0.52	0.750			
0.3413	21844.22	3.8510	3.8512	0.9339	25.25	0.51	0.750			
0.3441	22022.21	3.8480	3.8472	0.9417	25.25	0.51	0.750			
0.3470	22205.21	3.8450	3.8452	0.9594	25.24	0.50	0.750			
0.3498	22389.26	3.8420	3.8422	0.9530	25.23	0.49	0.750			
0.3527	22570.49	3.8390	3.8393	0.9681	25.22	0.48	0.750			
0.3556	22760.83	3.8360	3.8358	0.9942	25.20	0.46	0.750	0.320	0.432	
0.3586	22947.50	3.8330	3.8334	0.9800	25.20	0.46	0.750			
0.3615	23136.61	3.8300	3.8303	0.9923	25.19	0.45	0.750			
0.3646	23334.44	3.8270	3.8273	1.0096	25.18	0.44	0.750			
0.3677	23534.60	3.8240	3.8239	1.0197	25.17	0.43	0.750			
0.3706	23720.50	3.8210	3.8210	0.9880	25.17	0.43	0.750			
0.3736	23910.13	3.8180	3.8181	0.9816	25.16	0.42	0.750			
0.3765	24097.71	3.8150	3.8151	0.9985	25.15	0.41	0.750			
0.3795	24291.07	3.8120	3.8122	1.0153	25.14	0.40	0.750			
0.3826	24485.55	3.8090	3.8092	1.0184	25.13	0.39	0.750			
0.3857	24681.67	3.8060	3.8062	1.0340	25.12	0.38	0.750			
0.3888	24882.80	3.8030	3.8031	1.0512	25.11	0.37	0.750			
0.3920	25088.09	3.8000	3.8000	1.0715	25.10	0.36	0.750			
0.3952	25293.23	3.7970	3.7971	1.0642	25.09	0.35	0.750			
0.3985	25500.97	3.7940	3.7940	1.0809	25.07	0.33	0.750			
0.4017	25708.58	3.7910	3.7910	1.0992	25.06	0.32	0.750			
0.4050	25921.47	3.7880	3.7882	1.1189	25.05	0.31	0.750			
0.4085	26142.63	3.7850	3.7849	1.1082	25.04	0.30	0.750			
0.4117	26350.96	3.7820	3.7820	1.1313	25.03	0.29	0.750			
0.4151	26566.20	3.7790	3.7792	1.1595	25.02	0.28	0.750			
0.4187	26794.37	3.7760	3.7757	1.1772	25.01	0.27	0.750			
0.4222	27019.60	3.7730	3.7731	1.2027	25.00	0.26	0.750			
0.4258	27250.54	3.7700	3.7703	1.2264	24.99	0.25	0.750			
0.4296	27494.39	3.7670	3.7671	1.2485	24.98	0.24	0.750			
0.4335	27744.06	3.7640	3.7639	1.2950	24.96	0.22	0.750			
0.4372	27980.63	3.7610	3.7611	1.2909	24.95	0.21	0.750			
0.4411	28232.41	3.7580	3.7580	1.3253	24.94	0.20	0.750			
0.4452	28494.33	3.7550	3.7551	1.3364	24.93	0.19	0.750			
0.4491	28744.94	3.7520	3.7522	1.3726	24.92	0.18	0.750			
0.4533	29012.95	3.7490	3.7492	1.4025	24.91	0.17	0.750			
0.4577	29292.44	3.7460	3.7461	1.4153	24.90	0.16	0.750			
0.4619	29560.81	3.7430	3.7434	1.4623	24.88	0.14	0.750			
0.4662	29837.08	3.7400	3.7404	1.5565	24.87	0.13	0.750			
0.4710	30146.74	3.7370	3.7372	1.6272	24.85	0.11	0.750			
0.4760	30466.01	3.7340	3.7341	1.6655	24.84	0.10	0.750			
0.4812	30796.86	3.7310	3.7313	1.7317	24.82	0.08	0.750			
0.4867	31148.94	3.7280	3.7283	1.7809	24.80	0.06	0.750			
0.4922	31502.30	3.7250	3.7251	1.8083	24.79	0.05	0.750			
0.4973	31830.10	3.7220	3.7221	1.7951	24.77	0.03	0.750			
0.5027	32173.02	3.7190	3.7191	1.8411	24.76	0.02	0.750			
0.5083	32532.69	3.7160	3.7161	1.9020	24.74	0.00	0.750			
0.5143	32914.44	3.7130	3.7129	1.9466	24.73	-0.01	0.750			
0.5202	33290.92	3.7100	3.7098	2.0138	24.71	-0.03	0.750			
0.5263	33680.49	3.7070	3.7068	2.0598	24.69	-0.05	0.750			
0.5326	34085.72	3.7040	3.7037	2.1163	24.68	-0.06	0.750			
0.5390	34494.69	3.7010	3.7010	2.2013	24.66	-0.08	0.750			
0.5457	34924.27	3.6980	3.6982	2.2695	24.65	-0.09	0.750			
0.5528	35379.87	3.6950	3.6949	2.3078	24.63	-0.11	0.750			
0.5599	35834.99	3.6920	3.6921	2.3543	24.61	-0.13	0.750			
0.5668	36277.76	3.6890	3.6893	2.4262	24.60	-0.14	0.750			
0.5742	36750.91	3.6860	3.6861	2.4401	24.60	-0.14	0.750			
0.5817	37229.34	3.6830	3.6833	2.5335	24.60	-0.14	0.750			
0.5894	37723.14	3.6800	3.6798	2.5952	24.59	-0.15	0.750			
0.5973	38230.37	3.6770	3.6770	2.6204	24.58	-0.16	0.750			
0.6051	38729.48	3.6740	3.6739	2.6691	24.57	-0.17	0.750			
0.6133	39253.98	3.6710	3.6715	2.6384	24.58	-0.16	0.750			
0.6214	39768.18	3.6680	3.6681	2.5338	24.58	-0.16	0.750			
0.6289	40248.45	3.6650	3.6651	2.3190	24.58	-0.16	0.750			
0.6354	40666.99	3.6620	3.6623	2.1186	24.59	-0.15	0.750			
0.6414	41050.13	3.6590	3.6594	1.9517	24.60	-0.14	0.750			
0.6470	41406.60	3.6560	3.6558	1.7998	24.60	-0.14	0.750			
0.6522	41740.83	3.6530	3.6529	1.6776	24.61	-0.13	0.750			
0.6571	42051.21	3.6500	3.6500	1.5479	24.62	-0.12	0.750			
0.6616	42344.77	3.6470	3.6471	1.4368	24.63	-0.11	0.750			
0.6655	42593.31	3.6440	3.6440	1.2986	24.63	-0.11	0.750			
0.6692	42828.90	3.6410	3.6408	1.1996	24.64	-0.10	0.750			
0.6726	43046.60	3.6380	3.6380	1.1131	24.65	-0.09	0.750			
0.6758	43249.93	3.6350	3.6350	1.0608	24.65	-0.09	0.750			
0.6788	43443.98	3.6320	3.6321	1.0140	24.66	-0.08	0.750			
0.6818	43632.71	3.6290	3.6286	0.9771	24.66	-0.08	0.750			
0.6847	43817.74	3.6260	3.6260	0.9480	24.67	-0.07	0.750			
0.6875	43998.40	3.6230	3.6230	0.9167	24.68	-0.06	0.750			
0.6902	44173.70	3.6200	3.6200	0.8832	24.69	-0.05	0.750			
0.6928	44342.08	3.6170	3.6170	0.8370	24.70	-0.04	0.750			
0.6953	44500.35	3.6140	3.6140	0.7900	24.70	-0.04	0.750			
0.6976	44649.04	3.6110	3.6110	0.7365	24.71	-0.03	0.750			
0.6998	44785.68	3.6080	3.6080	0.6777	24.72	-0.02	0.750			
0.7017	44909.86	3.6050	3.6050	0.6184	24.72	-0.02	0.750			
0.7035	45021.34	3.6020	3.6020	0.5599	24.73	-0.01	0.750			
0.7050	45122.22	3.5990	3.5990	0.5038	24.73	-0.01	0.750			
0.7065	45213.10	3.5960	3.5956	0.4504	24.74	-0.00	0.750			
0.7077	45294.55	3.5930	3.5930	0.3999	24.74	0.00	0.750			
0.7089	45366.81	3.5900	3.5901	0.3504	24.75	0.01	0.750			
0.7098	45430.03	3.5870	3.5869	0.3024	24.75	0.01	0.750			
0.7107	45483.55	3.5840	3.5839	0.2512	24.75	0.01	0.750			
0.7113	45524.84	3.5810	3.5812	0.2004	24.76	0.02	0.750			
0.7119	45559.20	3.5780	3.5781	0.1520	24.76	0.02	0.750			
0.7122	45583.64	3.5750	3.5758	0.0973	24.76	0.02	0.750			
