Ah_balance (normalized)	Ah_balance (mAh)	Voltage - fit (V)	Voltage -  interpolate (V)	dQ/dV (1/V)	Temperature (°C)	Temperature - diff (°C)	Current (C)	R_DC 0ms (mOhm)	R_DC 50ms (mOhm)	R_DC 50 ms PEC (mOhm)
0.0467	2986.08	4.1980	4.1980	0.7819	25.27	0.34	0.750			
0.0490	3132.96	4.1950	4.1951	0.7598	25.27	0.34	0.750			
0.0512	3275.70	4.1920	4.1920	0.7559	25.28	0.35	0.750			
0.0534	3420.65	4.1890	4.1891	0.7605	25.28	0.35	0.750			
0.0557	3565.98	4.1860	4.1860	0.7636	25.28	0.35	0.750			
0.0580	3711.82	4.1830	4.1831	0.7668	25.28	0.35	0.750			
0.0604	3863.30	4.1800	4.1800	0.7688	25.28	0.35	0.750			
0.0627	4011.63	4.1770	4.1770	0.7751	25.29	0.36	0.750			
0.0650	4159.21	4.1740	4.1741	0.7690	25.29	0.36	0.750			
0.0673	4307.17	4.1710	4.1708	0.7696	25.29	0.36	0.750			
0.0696	4454.06	4.1680	4.1681	0.7726	25.29	0.36	0.750			
0.0720	4604.80	4.1650	4.1650	0.7686	25.29	0.36	0.750			
0.0742	4750.45	4.1620	4.1619	0.7732	25.30	0.37	0.750			
0.0766	4899.85	4.1590	4.1591	0.7796	25.30	0.37	0.750			
0.0789	5047.74	4.1560	4.1560	0.7800	25.30	0.37	0.750			
0.0812	5199.45	4.1530	4.1530	0.7834	25.30	0.37	0.750			
0.0836	5350.38	4.1500	4.1500	0.7860	25.30	0.37	0.750			
0.0860	5501.57	4.1470	4.1471	0.7802	25.30	0.37	0.750			
0.0883	5651.23	4.1440	4.1441	0.7864	25.30	0.37	0.750			
0.0906	5800.05	4.1410	4.1410	0.7815	25.30	0.37	0.750			
0.0930	5951.17	4.1380	4.1381	0.7863	25.30	0.37	0.750			
0.0953	6101.33	4.1350	4.1352	0.7889	25.30	0.37	0.750			
0.0977	6254.95	4.1320	4.1320	0.7876	25.31	0.38	0.750			
0.1001	6407.37	4.1290	4.1290	0.7941	25.31	0.38	0.750			
0.1025	6557.29	4.1260	4.1260	0.7891	25.32	0.39	0.750			
0.1048	6709.53	4.1230	4.1228	0.7945	25.32	0.39	0.750			
0.1072	6863.77	4.1200	4.1200	0.7982	25.32	0.39	0.750			
0.1097	7018.61	4.1170	4.1171	0.7943	25.32	0.39	0.750			
0.1121	7171.38	4.1140	4.1140	0.8008	25.33	0.40	0.750			
0.1145	7325.66	4.1110	4.1110	0.8029	25.33	0.40	0.750			
0.1168	7475.81	4.1080	4.1080	0.8015	25.33	0.40	0.750			
0.1192	7630.80	4.1050	4.1051	0.8094	25.33	0.40	0.750			
0.1217	7790.25	4.1020	4.1020	0.8031	25.34	0.41	0.750			
0.1241	7943.81	4.0990	4.0991	0.8099	25.34	0.41	0.750			
0.1265	8099.17	4.0960	4.0961	0.8092	25.34	0.41	0.750			
0.1290	8255.04	4.0930	4.0932	0.8103	25.35	0.42	0.750			
0.1314	8409.53	4.0900	4.0899	0.8109	25.35	0.42	0.750			
0.1339	8566.80	4.0870	4.0871	0.8081	25.35	0.42	0.750			
0.1363	8722.20	4.0840	4.0840	0.8178	25.35	0.42	0.750			
0.1388	8881.01	4.0810	4.0810	0.8246	25.36	0.43	0.750			
0.1412	9035.88	4.0780	4.0781	0.8219	25.36	0.43	0.750			
0.1437	9194.13	4.0750	4.0750	0.8296	25.36	0.43	0.750			
0.1462	9356.47	4.0720	4.0721	0.8265	25.36	0.43	0.750			
0.1487	9514.47	4.0690	4.0690	0.8353	25.36	0.43	0.750			
0.1512	9675.59	4.0660	4.0661	0.8400	25.37	0.44	0.750			
0.1537	9837.01	4.0630	4.0630	0.8393	25.37	0.44	0.750			
0.1562	9998.05	4.0600	4.0599	0.8426	25.37	0.44	0.750			
0.1588	10165.94	4.0570	4.0570	0.8276	25.37	0.44	0.750			
0.1613	10323.67	4.0540	4.0540	0.8359	25.37	0.44	0.750			
0.1638	10481.59	4.0510	4.0511	0.8430	25.38	0.45	0.750			
0.1662	10639.32	4.0480	4.0482	0.8427	25.38	0.45	0.750			
0.1688	10800.98	4.0450	4.0451	0.8538	25.38	0.45	0.750			
0.1714	10967.25	4.0420	4.0421	0.8612	25.38	0.45	0.750			
0.1740	11134.49	4.0390	4.0391	0.8598	25.38	0.45	0.750			
0.1766	11300.52	4.0360	4.0362	0.8663	25.38	0.45	0.750			
0.1791	11464.67	4.0330	4.0331	0.8602	25.38	0.45	0.750			
0.1817	11630.27	4.0300	4.0301	0.8678	25.38	0.45	0.750			
0.1843	11797.75	4.0270	4.0270	0.8666	25.39	0.46	0.750			
0.1870	11966.21	4.0240	4.0241	0.8740	25.39	0.46	0.750			
0.1897	12138.37	4.0210	4.0210	0.8795	25.40	0.47	0.750			
0.1922	12303.39	4.0180	4.0178	0.8741	25.40	0.47	0.750			
0.1948	12469.64	4.0150	4.0151	0.8753	25.40	0.47	0.750			
0.1975	12638.83	4.0120	4.0120	0.8742	25.41	0.48	0.750			
0.2001	12807.30	4.0090	4.0090	0.8816	25.41	0.48	0.750			
0.2027	12975.84	4.0060	4.0061	0.8875	25.42	0.49	0.750			
0.2054	13147.71	4.0030	4.0025	0.8951	25.42	0.49	0.750			
0.2082	13324.98	4.0000	4.0000	0.8905	25.42	0.49	0.750			
0.2108	13494.19	3.9970	3.9972	0.8921	25.42	0.49	0.750			
0.2135	13665.82	3.9940	3.9941	0.8983	25.43	0.50	0.750			
0.2162	13838.29	3.9910	3.9911	0.9075	25.43	0.50	0.750			
0.2189	14007.78	3.9880	3.9879	0.9045	25.43	0.50	0.750			
0.2216	14182.57	3.9850	3.9850	0.9055	25.44	0.51	0.750			
0.2244	14359.68	3.9820	3.9822	0.9173	25.44	0.51	0.750			
0.2272	14537.85	3.9790	3.9790	0.9209	25.45	0.52	0.750			
0.2299	14714.48	3.9760	3.9758	0.9156	25.45	0.52	0.750			
0.2326	14888.12	3.9730	3.9731	0.9188	25.45	0.52	0.750			
0.2354	15064.26	3.9700	3.9701	0.9160	25.46	0.53	0.750			
0.2381	15241.55	3.9670	3.9669	0.9211	25.46	0.53	0.750			
0.2409	15418.53	3.9640	3.9641	0.9222	25.47	0.54	0.750			
0.2437	15595.04	3.9610	3.9612	0.9265	25.47	0.54	0.750			
0.2465	15774.86	3.9580	3.9581	0.9246	25.47	0.54	0.750			
0.2493	15952.44	3.9550	3.9550	0.9278	25.48	0.55	0.750			
0.2520	16129.31	3.9520	3.9520	0.9321	25.48	0.55	0.750			
0.2548	16307.59	3.9490	3.9488	0.9310	25.48	0.55	0.750			
0.2576	16489.40	3.9460	3.9461	0.9300	25.48	0.55	0.750			
0.2604	16666.06	3.9430	3.9431	0.9357	25.48	0.55	0.750			
0.2632	16846.15	3.9400	3.9401	0.9447	25.48	0.55	0.750			
0.2661	17030.05	3.9370	3.9370	0.9514	25.48	0.55	0.750			
0.2689	17210.00	3.9340	3.9339	0.9490	25.48	0.55	0.750			
0.2718	17395.05	3.9310	3.9311	0.9381	25.49	0.56	0.750			
0.2746	17574.20	3.9280	3.9281	0.9497	25.50	0.57	0.750			
0.2775	17756.84	3.9250	3.9251	0.9521	25.50	0.57	0.750			
0.2803	17937.60	3.9220	3.9213	0.9536	25.51	0.58	0.750			
0.2831	18120.51	3.9190	3.9192	0.9528	25.51	0.58	0.750			
0.2860	18305.61	3.9160	3.9161	0.9641	25.51	0.58	0.750			
0.2890	18494.16	3.9130	3.9130	0.9709	25.51	0.58	0.750			
0.2919	18678.44	3.9100	3.9099	0.9665	25.51	0.58	0.750			
0.2948	18865.53	3.9070	3.9071	0.9631	25.51	0.58	0.750			
0.2977	19051.55	3.9040	3.9039	0.9716	25.51	0.58	0.750			
0.3006	19238.12	3.9010	3.9011	0.9730	25.52	0.59	0.750			
0.3035	19424.99	3.8980	3.8981	0.9812	25.52	0.59	0.750			
0.3065	19614.08	3.8950	3.8950	0.9803	25.52	0.59	0.750			
0.3094	19802.26	3.8920	3.8920	0.9679	25.52	0.59	0.750			
0.3123	19984.48	3.8890	3.8891	0.9692	25.51	0.58	0.750			
0.3151	20169.52	3.8860	3.8864	0.9847	25.51	0.58	0.750			
0.3181	20357.12	3.8830	3.8824	0.9886	25.51	0.58	0.750			
0.3211	20548.72	3.8800	3.8802	0.9898	25.51	0.58	0.750			
0.3241	20739.64	3.8770	3.8772	0.9991	25.52	0.59	0.750			
0.3271	20937.20	3.8740	3.8742	1.0148	25.52	0.59	0.750			
0.3302	21134.93	3.8710	3.8704	1.0224	25.52	0.59	0.750			
0.3332	21325.63	3.8680	3.8680	0.9916	25.52	0.59	0.750			
0.3362	21513.91	3.8650	3.8651	1.0039	25.52	0.59	0.750			
0.3392	21708.33	3.8620	3.8621	1.0132	25.52	0.59	0.750			
0.3422	21901.87	3.8590	3.8587	1.0081	25.52	0.59	0.750			
0.3453	22096.20	3.8560	3.8561	1.0213	25.52	0.59	0.750			
0.3483	22289.35	3.8530	3.8531	1.0121	25.52	0.59	0.750			
0.3513	22483.07	3.8500	3.8502	1.0282	25.51	0.58	0.750			
0.3544	22681.44	3.8470	3.8471	1.0254	25.51	0.58	0.750			
0.3575	22879.78	3.8440	3.8442	1.0327	25.50	0.57	0.750			
0.3606	23079.80	3.8410	3.8412	1.0464	25.50	0.57	0.750			
0.3638	23282.81	3.8380	3.8381	1.0613	25.49	0.56	0.750			
0.3671	23493.01	3.8350	3.8346	1.0850	25.48	0.55	0.750			
0.3702	23693.12	3.8320	3.8318	1.0683	25.48	0.55	0.750	0.348	0.424	
0.3734	23899.60	3.8290	3.8291	1.0803	25.47	0.54	0.750			
0.3767	24111.84	3.8260	3.8260	1.0909	25.47	0.54	0.750			
0.3801	24324.43	3.8230	3.8227	1.0965	25.46	0.53	0.750			
0.3833	24532.91	3.8200	3.8201	1.0793	25.46	0.53	0.750			
0.3865	24739.07	3.8170	3.8171	1.0865	25.45	0.52	0.750			
0.3898	24946.52	3.8140	3.8140	1.0951	25.44	0.51	0.750			
0.3931	25155.61	3.8110	3.8108	1.0979	25.44	0.51	0.750			
0.3964	25366.69	3.8080	3.8081	1.0876	25.43	0.50	0.750			
0.3997	25581.62	3.8050	3.8051	1.0699	25.43	0.50	0.750			
0.4028	25776.92	3.8020	3.8023	1.1282	25.42	0.49	0.750			
0.4062	25996.48	3.7990	3.7986	1.1686	25.42	0.49	0.750			
0.4097	26218.81	3.7960	3.7958	1.1848	25.40	0.47	0.750			
0.4134	26454.40	3.7930	3.7937	1.2149	25.39	0.46	0.750			
0.4172	26703.83	3.7900	3.7901	1.2273	25.37	0.44	0.750			
0.4210	26942.96	3.7870	3.7871	1.2153	25.36	0.43	0.750			
0.4247	27178.44	3.7840	3.7839	1.2130	25.35	0.42	0.750			
0.4280	27394.62	3.7810	3.7811	1.1911	25.35	0.42	0.750			
0.4316	27624.44	3.7780	3.7781	1.2063	25.34	0.41	0.750			
0.4353	27856.05	3.7750	3.7750	1.2264	25.32	0.39	0.750			
0.4390	28094.12	3.7720	3.7720	1.2502	25.31	0.38	0.750			
0.4427	28335.95	3.7690	3.7690	1.2719	25.30	0.37	0.750			
0.4466	28580.62	3.7660	3.7660	1.2996	25.29	0.36	0.750			
0.4505	28833.16	3.7630	3.7630	1.3310	25.28	0.35	0.750			
0.4545	29089.91	3.7600	3.7599	1.3528	25.26	0.33	0.750			
0.4586	29351.27	3.7570	3.7571	1.3860	25.25	0.32	0.750			
0.4628	29620.35	3.7540	3.7541	1.4226	25.24	0.31	0.750			
0.4671	29897.28	3.7510	3.7507	1.4532	25.22	0.29	0.750			
0.4716	30182.45	3.7480	3.7481	1.4639	25.21	0.28	0.750			
0.4760	30464.28	3.7450	3.7451	1.5049	25.19	0.26	0.750			
0.4806	30756.22	3.7420	3.7419	1.5432	25.18	0.25	0.750			
0.4851	31049.51	3.7390	3.7390	1.5825	25.16	0.23	0.750			
0.4900	31360.55	3.7360	3.7362	1.6182	25.15	0.22	0.750			
0.4949	31676.12	3.7330	3.7329	1.6780	25.13	0.20	0.750			
0.5001	32004.07	3.7300	3.7299	1.7209	25.12	0.19	0.750			
0.5054	32347.47	3.7270	3.7268	1.7825	25.10	0.17	0.750			
0.5107	32687.88	3.7240	3.7242	1.8459	25.08	0.15	0.750			
0.5163	33043.82	3.7210	3.7210	1.8834	25.06	0.13	0.750			
0.5220	33409.77	3.7180	3.7182	1.9600	25.05	0.12	0.750			
0.5281	33800.53	3.7150	3.7151	1.9966	25.03	0.10	0.750			
0.5342	34189.03	3.7120	3.7118	2.0541	25.01	0.08	0.750			
0.5404	34582.42	3.7090	3.7092	2.1071	25.00	0.07	0.750			
0.5468	34998.23	3.7060	3.7058	2.1543	24.98	0.05	0.750			
0.5535	35421.40	3.7030	3.7030	2.2427	24.96	0.03	0.750			
0.5603	35860.81	3.7000	3.7002	2.3116	24.95	0.02	0.750			
0.5673	36305.36	3.6970	3.6969	2.3817	24.93	0.00	0.750			
0.5745	36769.28	3.6940	3.6940	2.4238	24.91	-0.02	0.750			
0.5820	37249.57	3.6910	3.6910	2.5353	24.90	-0.03	0.750			
0.5897	37739.68	3.6880	3.6877	2.5307	24.88	-0.05	0.750			
0.5974	38234.63	3.6850	3.6851	2.6085	24.87	-0.06	0.750			
0.6052	38730.90	3.6820	3.6820	2.7031	24.86	-0.07	0.750			
0.6132	39247.75	3.6790	3.6791	2.7784	24.85	-0.08	0.750			
0.6219	39802.04	3.6760	3.6761	2.8434	24.83	-0.10	0.750			
0.6307	40367.41	3.6730	3.6730	2.9079	24.82	-0.11	0.750			
0.6396	40935.84	3.6700	3.6699	2.9127	24.81	-0.12	0.750			
0.6484	41499.91	3.6670	3.6669	2.8962	24.81	-0.12	0.750			
0.6572	42061.36	3.6640	3.6639	2.7900	24.82	-0.11	0.750			
0.6656	42601.47	3.6610	3.6609	2.6733	24.82	-0.11	0.750			
0.6735	43100.95	3.6580	3.6579	2.4521	24.83	-0.10	0.750			
0.6802	43532.59	3.6550	3.6551	2.1953	24.84	-0.09	0.750			
0.6863	43925.09	3.6520	3.6520	1.9530	24.84	-0.09	0.750			
0.6919	44281.20	3.6490	3.6488	1.7723	24.84	-0.09	0.750			
0.6969	44603.64	3.6460	3.6462	1.5935	24.85	-0.08	0.750			
0.7014	44889.87	3.6430	3.6433	1.4198	24.85	-0.08	0.750			
0.7055	45149.78	3.6400	3.6398	1.2675	24.86	-0.07	0.750			
0.7089	45372.02	3.6370	3.6370	1.1278	24.87	-0.06	0.750			
0.7119	45564.16	3.6340	3.6339	1.0085	24.88	-0.05	0.750			
0.7146	45737.44	3.6310	3.6310	0.9429	24.88	-0.05	0.750			
0.7173	45908.49	3.6280	3.6277	0.8948	24.89	-0.04	0.750			
0.7199	46075.73	3.6250	3.6250	0.8654	24.90	-0.03	0.750			
0.7225	46241.95	3.6220	3.6221	0.8359	24.91	-0.02	0.750			
0.7250	46400.70	3.6190	3.6190	0.8134	24.91	-0.02	0.750			
0.7274	46555.41	3.6160	3.6160	0.7784	24.92	-0.01	0.750			
0.7297	46703.50	3.6130	3.6127	0.7327	24.93	-0.00	0.750			
0.7320	46845.12	3.6100	3.6100	0.6607	24.94	0.01	0.750			
0.7339	46968.93	3.6070	3.6071	0.6060	24.94	0.01	0.750			
0.7356	47078.16	3.6040	3.6043	0.5380	24.95	0.02	0.750			
0.7371	47173.98	3.6010	3.6011	0.4700	24.95	0.02	0.750			
0.7383	47253.74	3.5980	3.5977	0.3974	24.96	0.03	0.750			
0.7394	47322.47	3.5950	3.5953	0.3333	24.96	0.03	0.750			
0.7403	47379.95	3.5920	3.5922	0.2757	24.96	0.03	0.750			
0.7411	47429.05	3.5890	3.5892	0.2196	24.96	0.03	0.750			
0.7416	47464.55	3.5860	3.5864	0.1560	24.97	0.04	0.750			
0.7420	47489.19	3.5830	3.5831	0.0878	24.97	0.04	0.750			
