Ah_balance (normalized)	Ah_balance (mAh)	Voltage - fit (V)	Voltage -  interpolate (V)	dQ/dV (1/V)	Temperature (°C)	Temperature - diff (°C)	Current (C)	R_DC 0ms (mOhm)	R_DC 50ms (mOhm)	R_DC 50 ms PEC (mOhm)
0.0483	3088.98	4.1960	4.1960	0.7895	25.10	0.32	0.750			
0.0506	3238.77	4.1930	4.1931	0.7787	25.10	0.32	0.750			
0.0529	3387.93	4.1900	4.1901	0.7700	25.10	0.32	0.750			
0.0552	3533.88	4.1870	4.1870	0.7660	25.10	0.32	0.750			
0.0575	3678.59	4.1840	4.1841	0.7615	25.10	0.32	0.750			
0.0598	3824.42	4.1810	4.1806	0.7641	25.10	0.32	0.750			
0.0621	3972.02	4.1780	4.1781	0.7685	25.10	0.32	0.750			
0.0644	4120.49	4.1750	4.1750	0.7718	25.10	0.32	0.750			
0.0667	4269.44	4.1720	4.1720	0.7748	25.11	0.33	0.750			
0.0691	4420.53	4.1690	4.1690	0.7789	25.11	0.33	0.750			
0.0714	4567.60	4.1660	4.1660	0.7743	25.11	0.33	0.750			
0.0737	4716.66	4.1630	4.1630	0.7758	25.11	0.33	0.750			
0.0760	4865.39	4.1600	4.1599	0.7767	25.11	0.33	0.750			
0.0783	5014.37	4.1570	4.1570	0.7739	25.11	0.33	0.750			
0.0807	5162.42	4.1540	4.1540	0.7770	25.12	0.34	0.750			
0.0830	5311.62	4.1510	4.1510	0.7789	25.12	0.34	0.750			
0.0853	5461.45	4.1480	4.1478	0.7822	25.12	0.34	0.750			
0.0877	5611.56	4.1450	4.1451	0.7869	25.12	0.34	0.750			
0.0901	5765.94	4.1420	4.1420	0.7743	25.12	0.34	0.750			
0.0924	5914.82	4.1390	4.1390	0.7816	25.12	0.34	0.750			
0.0947	6063.77	4.1360	4.1362	0.7893	25.12	0.34	0.750			
0.0971	6212.55	4.1330	4.1328	0.7892	25.12	0.34	0.750			
0.0995	6365.17	4.1300	4.1301	0.7961	25.12	0.34	0.750			
0.1019	6518.47	4.1270	4.1271	0.8008	25.12	0.34	0.750			
0.1043	6673.67	4.1240	4.1240	0.8053	25.13	0.35	0.750			
0.1068	6833.78	4.1210	4.1210	0.8126	25.13	0.35	0.750			
0.1092	6985.97	4.1180	4.1180	0.8023	25.13	0.35	0.750			
0.1116	7139.25	4.1150	4.1150	0.8030	25.13	0.35	0.750			
0.1140	7295.10	4.1120	4.1120	0.7995	25.14	0.36	0.750			
0.1164	7447.51	4.1090	4.1089	0.7980	25.14	0.36	0.750			
0.1187	7599.71	4.1060	4.1061	0.8036	25.14	0.36	0.750			
0.1211	7753.57	4.1030	4.1031	0.8081	25.15	0.37	0.750			
0.1236	7909.45	4.1000	4.1001	0.8128	25.15	0.37	0.750			
0.1260	8066.95	4.0970	4.0971	0.8166	25.15	0.37	0.750			
0.1285	8223.28	4.0940	4.0941	0.8083	25.15	0.37	0.750			
0.1309	8378.04	4.0910	4.0911	0.8120	25.16	0.38	0.750			
0.1333	8531.12	4.0880	4.0881	0.8174	25.16	0.38	0.750			
0.1357	8687.98	4.0850	4.0848	0.8235	25.16	0.38	0.750			
0.1382	8847.96	4.0820	4.0821	0.8249	25.16	0.38	0.750			
0.1408	9008.01	4.0790	4.0792	0.8310	25.16	0.38	0.750			
0.1433	9171.79	4.0760	4.0760	0.8391	25.17	0.39	0.750			
0.1458	9330.54	4.0730	4.0731	0.8306	25.17	0.39	0.750			
0.1483	9490.15	4.0700	4.0699	0.8326	25.17	0.39	0.750			
0.1508	9652.90	4.0670	4.0669	0.8251	25.17	0.39	0.750			
0.1533	9810.81	4.0640	4.0640	0.8329	25.17	0.39	0.750			
0.1558	9970.14	4.0610	4.0611	0.8347	25.18	0.40	0.750			
0.1583	10129.13	4.0580	4.0581	0.8384	25.18	0.40	0.750			
0.1608	10289.44	4.0550	4.0548	0.8437	25.18	0.40	0.750			
0.1633	10453.06	4.0520	4.0521	0.8505	25.18	0.40	0.750			
0.1659	10618.23	4.0490	4.0490	0.8471	25.18	0.40	0.750			
0.1684	10778.55	4.0460	4.0461	0.8586	25.18	0.40	0.750			
0.1710	10942.30	4.0430	4.0432	0.8609	25.18	0.40	0.750			
0.1736	11109.10	4.0400	4.0401	0.8644	25.18	0.40	0.750			
0.1762	11276.60	4.0370	4.0371	0.8653	25.19	0.41	0.750			
0.1788	11444.99	4.0340	4.0342	0.8736	25.19	0.41	0.750			
0.1815	11615.10	4.0310	4.0310	0.8753	25.19	0.41	0.750			
0.1841	11780.60	4.0280	4.0279	0.8675	25.20	0.42	0.750			
0.1867	11946.80	4.0250	4.0251	0.8720	25.20	0.42	0.750			
0.1893	12115.91	4.0220	4.0220	0.8699	25.20	0.42	0.750			
0.1919	12281.94	4.0190	4.0190	0.8816	25.21	0.43	0.750			
0.1945	12450.16	4.0160	4.0161	0.8841	25.21	0.43	0.750			
0.1972	12621.77	4.0130	4.0127	0.8916	25.21	0.43	0.750			
0.1999	12794.42	4.0100	4.0101	0.8967	25.21	0.43	0.750			
0.2026	12968.64	4.0070	4.0071	0.8811	25.21	0.43	0.750			
0.2053	13136.19	4.0040	4.0041	0.8904	25.22	0.44	0.750			
0.2079	13303.82	4.0010	4.0012	0.8865	25.22	0.44	0.750			
0.2105	13473.31	3.9980	3.9973	0.8976	25.22	0.44	0.750			
0.2132	13647.37	3.9950	3.9952	0.9054	25.22	0.44	0.750			
0.2160	13824.59	3.9920	3.9921	0.9098	25.22	0.44	0.750			
0.2188	14004.77	3.9890	3.9891	0.9208	25.22	0.44	0.750			
0.2215	14178.81	3.9860	3.9860	0.9077	25.22	0.44	0.750			
0.2243	14352.88	3.9830	3.9830	0.9123	25.22	0.44	0.750			
0.2270	14527.68	3.9800	3.9800	0.9030	25.23	0.45	0.750			
0.2297	14699.48	3.9770	3.9771	0.9064	25.23	0.45	0.750			
0.2324	14872.70	3.9740	3.9742	0.9197	25.24	0.46	0.750			
0.2352	15049.75	3.9710	3.9703	0.9255	25.24	0.46	0.750			
0.2380	15234.21	3.9680	3.9680	0.9075	25.24	0.46	0.750			
0.2407	15406.06	3.9650	3.9651	0.9134	25.24	0.46	0.750			
0.2434	15579.95	3.9620	3.9623	0.9257	25.25	0.47	0.750			
0.2462	15759.86	3.9590	3.9591	0.9346	25.25	0.47	0.750			
0.2490	15933.45	3.9560	3.9561	0.9242	25.25	0.47	0.750			
0.2517	16111.38	3.9530	3.9533	0.9327	25.26	0.48	0.750			
0.2546	16295.22	3.9500	3.9501	0.9471	25.26	0.48	0.750			
0.2575	16481.32	3.9470	3.9470	0.9517	25.27	0.49	0.750			
0.2603	16659.84	3.9440	3.9440	0.9380	25.27	0.49	0.750			
0.2632	16845.58	3.9410	3.9409	0.9229	25.27	0.49	0.750			
0.2660	17021.17	3.9380	3.9381	0.9374	25.27	0.49	0.750			
0.2687	17198.73	3.9350	3.9351	0.9461	25.28	0.50	0.750			
0.2715	17378.66	3.9320	3.9322	0.9535	25.28	0.50	0.750			
0.2745	17568.09	3.9290	3.9292	0.9485	25.28	0.50	0.750			
0.2774	17751.06	3.9260	3.9261	0.9590	25.29	0.51	0.750			
0.2802	17934.39	3.9230	3.9231	0.9678	25.29	0.51	0.750			
0.2832	18124.80	3.9200	3.9202	0.9763	25.30	0.52	0.750			
0.2860	18305.82	3.9170	3.9170	0.9642	25.30	0.52	0.750			
0.2889	18491.03	3.9140	3.9141	0.9647	25.30	0.52	0.750			
0.2918	18676.29	3.9110	3.9110	0.9707	25.31	0.53	0.750			
0.2948	18865.81	3.9080	3.9080	0.9796	25.31	0.53	0.750			
0.2977	19053.34	3.9050	3.9048	0.9782	25.31	0.53	0.750			
0.3007	19245.75	3.9020	3.9020	0.9586	25.31	0.53	0.750			
0.3036	19429.35	3.8990	3.8991	0.9738	25.31	0.53	0.750			
0.3065	19614.11	3.8960	3.8962	0.9806	25.32	0.54	0.750			
0.3094	19799.70	3.8930	3.8930	0.9860	25.32	0.54	0.750			
0.3124	19991.33	3.8900	3.8902	0.9931	25.32	0.54	0.750			
0.3153	20178.26	3.8870	3.8872	1.0301	25.33	0.55	0.750			
0.3185	20381.70	3.8840	3.8840	1.0573	25.33	0.55	0.750			
0.3218	20595.42	3.8810	3.8808	1.0833	25.34	0.56	0.750			
0.3251	20803.52	3.8780	3.8784	1.0716	25.34	0.56	0.750			
0.3283	21013.04	3.8750	3.8752	1.0707	25.34	0.56	0.750			
0.3316	21222.11	3.8720	3.8721	1.0604	25.33	0.55	0.750			
0.3347	21422.84	3.8690	3.8687	1.0402	25.33	0.55	0.750			
0.3377	21613.94	3.8660	3.8661	1.0172	25.33	0.55	0.750			
0.3407	21807.48	3.8630	3.8630	1.0225	25.33	0.55	0.750			
0.3438	22003.42	3.8600	3.8600	1.0297	25.32	0.54	0.750			
0.3469	22201.56	3.8570	3.8568	1.0345	25.32	0.54	0.750			
0.3500	22402.77	3.8540	3.8540	1.0282	25.32	0.54	0.750			
0.3531	22598.99	3.8510	3.8511	1.0410	25.32	0.54	0.750			
0.3562	22797.59	3.8480	3.8480	1.0502	25.31	0.53	0.750			
0.3594	23000.72	3.8450	3.8448	1.0577	25.31	0.53	0.750			
0.3626	23205.27	3.8420	3.8420	1.0507	25.30	0.52	0.750			
0.3657	23404.83	3.8390	3.8392	1.0660	25.30	0.52	0.750			
0.3689	23611.15	3.8360	3.8361	1.0795	25.29	0.51	0.750			
0.3722	23822.80	3.8330	3.8328	1.0882	25.28	0.50	0.750			
0.3754	24026.98	3.8300	3.8302	1.0889	25.28	0.50	0.750	0.348	0.401	
0.3787	24238.19	3.8270	3.8272	1.1018	25.28	0.50	0.750			
0.3821	24454.56	3.8240	3.8241	1.1174	25.27	0.49	0.750			
0.3855	24673.91	3.8210	3.8207	1.1126	25.27	0.49	0.750			
0.3888	24882.24	3.8180	3.8181	1.1113	25.26	0.48	0.750			
0.3921	25094.82	3.8150	3.8151	1.1226	25.25	0.47	0.750			
0.3955	25312.24	3.8120	3.8121	1.1291	25.24	0.46	0.750			
0.3989	25529.46	3.8090	3.8091	1.1287	25.24	0.46	0.750			
0.4023	25747.46	3.8060	3.8061	1.1342	25.22	0.44	0.750			
0.4057	25966.91	3.8030	3.8031	1.1408	25.21	0.43	0.750			
0.4092	26188.34	3.8000	3.7999	1.1434	25.20	0.42	0.750			
0.4126	26405.15	3.7970	3.7970	1.1413	25.19	0.41	0.750			
0.4160	26622.96	3.7940	3.7940	1.1561	25.19	0.41	0.750			
0.4195	26846.87	3.7910	3.7911	1.1716	25.18	0.40	0.750			
0.4230	27073.33	3.7880	3.7879	1.1821	25.17	0.39	0.750			
0.4266	27301.15	3.7850	3.7850	1.1974	25.15	0.37	0.750			
0.4302	27532.55	3.7820	3.7820	1.2117	25.14	0.36	0.750			
0.4339	27767.57	3.7790	3.7789	1.2241	25.12	0.34	0.750			
0.4375	28002.23	3.7760	3.7760	1.2451	25.11	0.33	0.750			
0.4413	28241.26	3.7730	3.7730	1.2607	25.10	0.32	0.750			
0.4451	28488.44	3.7700	3.7700	1.2805	25.09	0.31	0.750			
0.4490	28735.10	3.7670	3.7670	1.3073	25.08	0.30	0.750			
0.4529	28985.98	3.7640	3.7641	1.3360	25.06	0.28	0.750			
0.4570	29247.25	3.7610	3.7610	1.3574	25.05	0.27	0.750			
0.4611	29508.78	3.7580	3.7579	1.3919	25.04	0.26	0.750			
0.4653	29778.08	3.7550	3.7551	1.4078	25.03	0.25	0.750			
0.4696	30053.26	3.7520	3.7521	1.4388	25.02	0.24	0.750			
0.4739	30330.48	3.7490	3.7491	1.4749	25.00	0.22	0.750			
0.4783	30613.53	3.7460	3.7458	1.5150	24.99	0.21	0.750			
0.4829	30907.80	3.7430	3.7430	1.5452	24.97	0.19	0.750			
0.4877	31210.78	3.7400	3.7401	1.6034	24.95	0.17	0.750			
0.4926	31524.64	3.7370	3.7370	1.6565	24.94	0.16	0.750			
0.4976	31849.17	3.7340	3.7339	1.6842	24.93	0.15	0.750			
0.5028	32177.16	3.7310	3.7314	1.6912	24.91	0.13	0.750			
0.5078	32496.33	3.7280	3.7283	1.7471	24.90	0.12	0.750			
0.5130	32829.85	3.7250	3.7250	1.8003	24.88	0.10	0.750			
0.5185	33180.92	3.7220	3.7219	1.8622	24.87	0.09	0.750			
0.5242	33546.58	3.7190	3.7190	1.9244	24.85	0.07	0.750			
0.5302	33935.19	3.7160	3.7159	1.9904	24.84	0.06	0.750			
0.5362	34315.26	3.7130	3.7129	2.0375	24.82	0.04	0.750			
0.5424	34711.32	3.7100	3.7098	2.1022	24.80	0.02	0.750			
0.5488	35121.67	3.7070	3.7068	2.1716	24.78	-0.00	0.750			
0.5554	35548.76	3.7040	3.7039	2.2155	24.76	-0.02	0.750			
0.5622	35981.90	3.7010	3.7010	2.2872	24.74	-0.04	0.750			
0.5693	36433.07	3.6980	3.6983	2.3035	24.73	-0.05	0.750			
0.5762	36878.57	3.6950	3.6952	2.3652	24.71	-0.07	0.750			
0.5833	37333.04	3.6920	3.6923	2.4560	24.70	-0.08	0.750			
0.5909	37817.27	3.6890	3.6893	2.4900	24.69	-0.09	0.750			
0.5985	38301.18	3.6860	3.6859	2.5262	24.68	-0.10	0.750			
0.6060	38780.99	3.6830	3.6831	2.6594	24.67	-0.11	0.750			
0.6141	39301.29	3.6800	3.6805	2.8085	24.65	-0.13	0.750			
0.6229	39864.75	3.6770	3.6766	2.8783	24.64	-0.14	0.750			
0.6318	40437.10	3.6740	3.6736	2.9467	24.63	-0.15	0.750			
0.6405	40990.39	3.6710	3.6708	2.9551	24.63	-0.15	0.750			
0.6495	41568.98	3.6680	3.6677	3.0085	24.62	-0.16	0.750			
0.6586	42152.87	3.6650	3.6649	2.8842	24.62	-0.16	0.750			
0.6673	42710.18	3.6620	3.6618	2.8482	24.62	-0.16	0.750			
0.6755	43231.41	3.6590	3.6586	2.5841	24.62	-0.16	0.750			
0.6829	43705.38	3.6560	3.6565	2.3973	24.64	-0.14	0.750			
0.6895	44130.27	3.6530	3.6532	2.1140	24.65	-0.13	0.750			
0.6957	44522.11	3.6500	3.6505	1.9587	24.66	-0.12	0.750			
0.7014	44887.60	3.6470	3.6469	1.7973	24.67	-0.11	0.750			
0.7065	45213.79	3.6440	3.6440	1.6010	24.67	-0.11	0.750			
0.7108	45490.00	3.6410	3.6414	1.3869	24.68	-0.10	0.750			
0.7149	45755.49	3.6380	3.6379	1.2467	24.69	-0.09	0.750			
0.7180	45951.89	3.6350	3.6350	1.0839	24.70	-0.08	0.750			
0.7209	46134.85	3.6320	3.6320	0.9695	24.71	-0.07	0.750			
0.7235	46302.84	3.6290	3.6290	0.8993	24.71	-0.07	0.750			
0.7261	46468.18	3.6260	3.6260	0.8630	24.72	-0.06	0.750			
0.7286	46629.86	3.6230	3.6231	0.8242	24.72	-0.06	0.750			
0.7310	46785.12	3.6200	3.6200	0.8010	24.73	-0.05	0.750			
0.7334	46935.39	3.6170	3.6171	0.7669	24.74	-0.04	0.750			
0.7357	47082.74	3.6140	3.6141	0.7321	24.74	-0.04	0.750			
0.7378	47222.28	3.6110	3.6111	0.6928	24.75	-0.03	0.750			
0.7399	47354.99	3.6080	3.6081	0.6358	24.76	-0.02	0.750			
0.7418	47475.65	3.6050	3.6050	0.5752	24.76	-0.02	0.750			
0.7434	47579.33	3.6020	3.6020	0.4976	24.77	-0.01	0.750			
0.7448	47666.49	3.5990	3.5990	0.4269	24.77	-0.01	0.750			
0.7460	47741.15	3.5960	3.5960	0.3548	24.77	-0.01	0.750			
0.7469	47801.85	3.5930	3.5929	0.2851	24.78	-0.00	0.750			
0.7476	47848.61	3.5900	3.5899	0.2190	24.78	0.00	0.750			
0.7482	47885.02	3.5870	3.5872	0.1559	24.78	0.00	0.750			
0.7486	47908.58	3.5840	3.5851	0.1027	24.78	0.00	0.751			
