Ah_balance (normalized)	Ah_balance (mAh)	Voltage - fit (V)	Voltage -  interpolate (V)	dQ/dV (1/V)	Temperature (°C)	Temperature - diff (°C)	Current (C)	R_DC 0ms (mOhm)	R_DC 50ms (mOhm)	R_DC 50 ms PEC (mOhm)
0.0481	3081.40	4.1970	4.1971	0.7908	25.73	0.51	0.750			
0.0505	3232.87	4.1940	4.1940	0.7774	25.73	0.51	0.750			
0.0528	3377.56	4.1910	4.1911	0.7637	25.73	0.51	0.750			
0.0550	3522.37	4.1880	4.1880	0.7612	25.73	0.51	0.750			
0.0573	3666.73	4.1850	4.1850	0.7573	25.73	0.51	0.750			
0.0596	3811.53	4.1820	4.1820	0.7595	25.73	0.51	0.750			
0.0618	3958.20	4.1790	4.1791	0.7646	25.73	0.51	0.750			
0.0641	4104.82	4.1760	4.1760	0.7622	25.73	0.51	0.750			
0.0664	4251.60	4.1730	4.1731	0.7676	25.73	0.51	0.750			
0.0687	4397.81	4.1700	4.1701	0.7652	25.73	0.51	0.750			
0.0710	4545.51	4.1670	4.1665	0.7688	25.73	0.51	0.750			
0.0733	4692.68	4.1640	4.1642	0.7754	25.73	0.51	0.750			
0.0757	4842.76	4.1610	4.1611	0.7751	25.72	0.50	0.750			
0.0780	4993.92	4.1580	4.1579	0.7793	25.72	0.50	0.750			
0.0804	5142.75	4.1550	4.1550	0.7732	25.72	0.50	0.750			
0.0827	5291.25	4.1520	4.1521	0.7752	25.71	0.49	0.750			
0.0850	5441.08	4.1490	4.1490	0.7756	25.71	0.49	0.750			
0.0873	5589.86	4.1460	4.1460	0.7756	25.71	0.49	0.750			
0.0896	5737.53	4.1430	4.1431	0.7766	25.71	0.49	0.750			
0.0920	5888.33	4.1400	4.1399	0.7845	25.72	0.50	0.750			
0.0943	6037.91	4.1370	4.1371	0.7839	25.72	0.50	0.750			
0.0967	6189.04	4.1340	4.1340	0.7854	25.72	0.50	0.750			
0.0991	6340.38	4.1310	4.1311	0.7846	25.72	0.50	0.750			
0.1014	6492.13	4.1280	4.1280	0.7831	25.72	0.50	0.750			
0.1038	6641.01	4.1250	4.1250	0.7825	25.71	0.49	0.750			
0.1061	6789.70	4.1220	4.1221	0.7843	25.71	0.49	0.750			
0.1084	6940.72	4.1190	4.1185	0.7858	25.71	0.49	0.750			
0.1108	7092.04	4.1160	4.1161	0.7886	25.71	0.49	0.750			
0.1132	7245.23	4.1130	4.1130	0.7861	25.71	0.49	0.750			
0.1156	7396.86	4.1100	4.1100	0.7947	25.71	0.49	0.750			
0.1180	7549.10	4.1070	4.1070	0.7975	25.71	0.49	0.750			
0.1203	7700.44	4.1040	4.1039	0.7961	25.71	0.49	0.750			
0.1227	7854.58	4.1010	4.1011	0.7979	25.71	0.49	0.750			
0.1251	8009.15	4.0980	4.0980	0.8018	25.71	0.49	0.750			
0.1275	8163.03	4.0950	4.0950	0.8018	25.71	0.49	0.750			
0.1300	8317.76	4.0920	4.0920	0.8055	25.71	0.49	0.750			
0.1324	8470.56	4.0890	4.0889	0.8034	25.71	0.49	0.750			
0.1348	8625.34	4.0860	4.0860	0.8070	25.71	0.49	0.750			
0.1372	8783.47	4.0830	4.0829	0.8019	25.71	0.49	0.750			
0.1396	8935.40	4.0800	4.0801	0.8075	25.71	0.49	0.750			
0.1420	9090.23	4.0770	4.0770	0.8102	25.72	0.50	0.750			
0.1445	9245.19	4.0740	4.0741	0.8164	25.72	0.50	0.750			
0.1469	9400.97	4.0710	4.0711	0.8215	25.72	0.50	0.750			
0.1494	9561.13	4.0680	4.0681	0.8241	25.72	0.50	0.750			
0.1519	9721.11	4.0650	4.0650	0.8303	25.72	0.50	0.750			
0.1544	9882.34	4.0620	4.0620	0.8311	25.71	0.49	0.750			
0.1569	10040.56	4.0590	4.0591	0.8269	25.71	0.49	0.750			
0.1594	10200.01	4.0560	4.0560	0.8308	25.71	0.49	0.750			
0.1619	10359.79	4.0530	4.0530	0.8305	25.71	0.49	0.750			
0.1644	10518.82	4.0500	4.0500	0.8324	25.71	0.49	0.750			
0.1669	10679.14	4.0470	4.0470	0.8364	25.71	0.49	0.750			
0.1694	10839.61	4.0440	4.0441	0.8385	25.71	0.49	0.750			
0.1719	11001.14	4.0410	4.0409	0.8437	25.71	0.49	0.750			
0.1745	11165.87	4.0380	4.0380	0.8344	25.72	0.50	0.750			
0.1770	11325.30	4.0350	4.0350	0.8405	25.72	0.50	0.750			
0.1795	11485.96	4.0320	4.0321	0.8457	25.72	0.50	0.750			
0.1820	11648.20	4.0290	4.0291	0.8490	25.73	0.51	0.750			
0.1845	11810.32	4.0260	4.0261	0.8527	25.73	0.51	0.750			
0.1871	11975.47	4.0230	4.0231	0.8552	25.73	0.51	0.750			
0.1897	12140.02	4.0200	4.0201	0.8644	25.73	0.51	0.750			
0.1923	12308.69	4.0170	4.0170	0.8691	25.73	0.51	0.750			
0.1949	12475.03	4.0140	4.0140	0.8673	25.73	0.51	0.750			
0.1975	12642.42	4.0110	4.0111	0.8711	25.73	0.51	0.750			
0.2002	12809.81	4.0080	4.0081	0.8736	25.73	0.51	0.750			
0.2028	12977.95	4.0050	4.0050	0.8757	25.73	0.51	0.750			
0.2054	13146.83	4.0020	4.0020	0.8807	25.73	0.51	0.750			
0.2080	13314.40	3.9990	3.9989	0.8767	25.73	0.51	0.750			
0.2107	13484.53	3.9960	3.9961	0.8802	25.73	0.51	0.750			
0.2133	13652.52	3.9930	3.9930	0.8793	25.73	0.51	0.750			
0.2160	13821.29	3.9900	3.9900	0.8818	25.73	0.51	0.750			
0.2186	13990.45	3.9870	3.9870	0.8841	25.73	0.51	0.750			
0.2212	14159.08	3.9840	3.9841	0.8858	25.73	0.51	0.750			
0.2239	14330.43	3.9810	3.9810	0.8871	25.73	0.51	0.750			
0.2266	14501.89	3.9780	3.9780	0.8931	25.74	0.52	0.750			
0.2293	14673.70	3.9750	3.9750	0.8976	25.74	0.52	0.750			
0.2319	14844.41	3.9720	3.9721	0.8987	25.75	0.53	0.750			
0.2347	15018.77	3.9690	3.9690	0.9024	25.75	0.53	0.750			
0.2374	15192.60	3.9660	3.9660	0.9030	25.75	0.53	0.750			
0.2401	15366.17	3.9630	3.9629	0.9058	25.75	0.53	0.750			
0.2428	15541.15	3.9600	3.9601	0.9075	25.75	0.53	0.750			
0.2455	15713.71	3.9570	3.9570	0.9058	25.75	0.53	0.750			
0.2483	15890.36	3.9540	3.9540	0.9001	25.75	0.53	0.750			
0.2510	16062.03	3.9510	3.9510	0.9025	25.75	0.53	0.750			
0.2537	16233.94	3.9480	3.9481	0.9103	25.75	0.53	0.750			
0.2564	16408.53	3.9450	3.9451	0.9126	25.75	0.53	0.750			
0.2591	16583.08	3.9420	3.9418	0.9158	25.75	0.53	0.750			
0.2619	16761.47	3.9390	3.9391	0.9151	25.75	0.53	0.750			
0.2646	16936.80	3.9360	3.9361	0.9227	25.75	0.53	0.750			
0.2674	17115.08	3.9330	3.9330	0.9290	25.75	0.53	0.750			
0.2702	17292.12	3.9300	3.9299	0.9256	25.75	0.53	0.750			
0.2730	17471.65	3.9270	3.9270	0.9260	25.75	0.53	0.750			
0.2758	17650.88	3.9240	3.9240	0.9281	25.75	0.53	0.750			
0.2786	17829.05	3.9210	3.9211	0.9273	25.76	0.54	0.750			
0.2814	18008.02	3.9180	3.9180	0.9309	25.76	0.54	0.750			
0.2841	18183.13	3.9150	3.9150	0.9274	25.76	0.54	0.750			
0.2869	18364.77	3.9120	3.9119	0.9155	25.76	0.54	0.750			
0.2897	18539.74	3.9090	3.9090	0.9238	25.76	0.54	0.750			
0.2924	18715.48	3.9060	3.9061	0.9332	25.75	0.53	0.750			
0.2952	18894.58	3.9030	3.9030	0.9354	25.75	0.53	0.750			
0.2981	19075.46	3.9000	3.9001	0.9351	25.75	0.53	0.750			
0.3009	19254.59	3.8970	3.8971	0.9395	25.75	0.53	0.750			
0.3037	19436.59	3.8940	3.8941	0.9474	25.75	0.53	0.750			
0.3066	19622.80	3.8910	3.8909	0.9526	25.75	0.53	0.750			
0.3094	19802.28	3.8880	3.8880	0.9424	25.75	0.53	0.750			
0.3122	19981.85	3.8850	3.8851	0.9447	25.74	0.52	0.750			
0.3151	20164.31	3.8820	3.8821	0.9492	25.74	0.52	0.750			
0.3179	20346.57	3.8790	3.8789	0.9505	25.73	0.51	0.750			
0.3208	20528.10	3.8760	3.8758	0.9511	25.73	0.51	0.750			
0.3236	20712.63	3.8730	3.8730	0.9461	25.73	0.51	0.750			
0.3265	20894.17	3.8700	3.8701	0.9527	25.72	0.50	0.750			
0.3293	21077.67	3.8670	3.8671	0.9573	25.72	0.50	0.750			
0.3322	21259.00	3.8640	3.8640	0.9550	25.71	0.49	0.750			
0.3351	21447.47	3.8610	3.8610	0.9536	25.71	0.49	0.750			
0.3379	21628.78	3.8580	3.8581	0.9598	25.70	0.48	0.750			
0.3408	21812.77	3.8550	3.8551	0.9652	25.70	0.48	0.750			
0.3438	22000.42	3.8520	3.8521	0.9725	25.69	0.47	0.750			
0.3466	22184.71	3.8490	3.8489	0.9679	25.69	0.47	0.750			
0.3496	22371.35	3.8460	3.8461	0.9670	25.68	0.46	0.750			
0.3525	22562.33	3.8430	3.8430	0.9542	25.67	0.45	0.750			
0.3553	22742.32	3.8400	3.8401	0.9710	25.66	0.44	0.750			
0.3582	22925.43	3.8370	3.8369	0.9740	25.65	0.43	0.750			
0.3612	23114.57	3.8340	3.8340	0.9739	25.65	0.43	0.750	0.310	0.417	
0.3641	23302.35	3.8310	3.8313	0.9909	25.64	0.42	0.750			
0.3671	23495.50	3.8280	3.8282	1.0031	25.64	0.42	0.750			
0.3701	23689.49	3.8250	3.8249	1.0101	25.63	0.41	0.750			
0.3732	23887.36	3.8220	3.8220	1.0158	25.62	0.40	0.750			
0.3762	24076.47	3.8190	3.8191	1.0109	25.61	0.39	0.750			
0.3793	24272.94	3.8160	3.8160	1.0232	25.60	0.38	0.750			
0.3824	24471.10	3.8130	3.8130	1.0226	25.59	0.37	0.750			
0.3855	24668.96	3.8100	3.8100	1.0263	25.59	0.37	0.750			
0.3885	24866.81	3.8070	3.8071	1.0363	25.58	0.36	0.750			
0.3916	25064.48	3.8040	3.8040	1.0479	25.57	0.35	0.750			
0.3948	25266.62	3.8010	3.8010	1.0603	25.56	0.34	0.750			
0.3980	25470.36	3.7980	3.7980	1.0662	25.55	0.33	0.750			
0.4012	25675.41	3.7950	3.7950	1.0811	25.54	0.32	0.750			
0.4044	25884.80	3.7920	3.7921	1.0992	25.53	0.31	0.750			
0.4078	26096.82	3.7890	3.7888	1.1190	25.52	0.30	0.750			
0.4111	26311.80	3.7860	3.7861	1.1282	25.51	0.29	0.750			
0.4145	26528.98	3.7830	3.7830	1.1463	25.50	0.28	0.750			
0.4180	26750.88	3.7800	3.7801	1.1707	25.49	0.27	0.750			
0.4215	26977.87	3.7770	3.7770	1.1786	25.48	0.26	0.750			
0.4251	27205.61	3.7740	3.7741	1.2092	25.47	0.25	0.750			
0.4287	27439.93	3.7710	3.7710	1.2341	25.46	0.24	0.750			
0.4325	27682.18	3.7680	3.7679	1.2520	25.44	0.22	0.750			
0.4363	27922.70	3.7650	3.7651	1.2744	25.43	0.21	0.750			
0.4402	28170.86	3.7620	3.7621	1.3015	25.42	0.20	0.750			
0.4442	28428.06	3.7590	3.7589	1.3129	25.41	0.19	0.750			
0.4482	28682.57	3.7560	3.7560	1.3322	25.39	0.17	0.750			
0.4520	28929.86	3.7530	3.7532	1.3719	25.39	0.17	0.750			
0.4562	29195.94	3.7500	3.7501	1.4165	25.38	0.16	0.750			
0.4606	29477.85	3.7470	3.7469	1.4503	25.36	0.14	0.750			
0.4649	29756.04	3.7440	3.7442	1.4921	25.35	0.13	0.750			
0.4695	30049.25	3.7410	3.7411	1.5294	25.34	0.12	0.750			
0.4742	30346.99	3.7380	3.7382	1.5818	25.33	0.11	0.750			
0.4789	30647.60	3.7350	3.7348	1.6195	25.31	0.09	0.750			
0.4837	30955.34	3.7320	3.7318	1.6530	25.30	0.08	0.750			
0.4888	31280.40	3.7290	3.7291	1.7012	25.29	0.07	0.750			
0.4940	31614.90	3.7260	3.7261	1.7545	25.27	0.05	0.750			
0.4993	31955.04	3.7230	3.7229	1.8057	25.26	0.04	0.750			
0.5048	32307.71	3.7200	3.7199	1.8343	25.24	0.02	0.750			
0.5104	32665.67	3.7170	3.7169	1.9064	25.23	0.01	0.750			
0.5163	33040.10	3.7140	3.7140	1.9438	25.21	-0.01	0.750			
0.5221	33412.73	3.7110	3.7112	1.9953	25.20	-0.02	0.750			
0.5283	33809.03	3.7080	3.7081	2.0502	25.18	-0.04	0.750			
0.5345	34207.29	3.7050	3.7050	2.0989	25.17	-0.05	0.750			
0.5409	34617.99	3.7020	3.7019	2.1525	25.15	-0.07	0.750			
0.5473	35029.68	3.6990	3.6989	2.2383	25.14	-0.08	0.750			
0.5541	35460.36	3.6960	3.6960	2.2958	25.13	-0.09	0.750			
0.5612	35915.91	3.6930	3.6930	2.3737	25.12	-0.10	0.750			
0.5685	36381.76	3.6900	3.6898	2.4060	25.10	-0.12	0.750			
0.5759	36857.13	3.6870	3.6870	2.5049	25.09	-0.13	0.750			
0.5833	37333.40	3.6840	3.6841	2.5792	25.08	-0.14	0.750			
0.5912	37839.72	3.6810	3.6811	2.6239	25.07	-0.15	0.750			
0.5993	38355.12	3.6780	3.6781	2.6662	25.06	-0.16	0.750			
0.6073	38870.03	3.6750	3.6749	2.7098	25.06	-0.16	0.750			
0.6157	39402.42	3.6720	3.6718	2.7444	25.06	-0.16	0.750			
0.6241	39943.68	3.6690	3.6689	2.7295	25.06	-0.16	0.750			
0.6323	40470.13	3.6660	3.6659	2.6382	25.06	-0.16	0.750			
0.6399	40951.80	3.6630	3.6632	2.4388	25.06	-0.16	0.750			
0.6470	41409.32	3.6600	3.6599	2.2505	25.06	-0.16	0.750			
0.6535	41825.45	3.6570	3.6568	2.0748	25.07	-0.15	0.750			
0.6593	42193.97	3.6540	3.6542	1.8863	25.08	-0.14	0.750			
0.6647	42538.07	3.6510	3.6510	1.7079	25.09	-0.13	0.750			
0.6695	42846.93	3.6480	3.6479	1.5479	25.10	-0.12	0.750			
0.6739	43131.97	3.6450	3.6451	1.4129	25.10	-0.12	0.750			
0.6779	43386.36	3.6420	3.6421	1.3035	25.11	-0.11	0.750			
0.6815	43618.95	3.6390	3.6390	1.1896	25.12	-0.10	0.750			
0.6849	43835.79	3.6360	3.6360	1.1095	25.12	-0.10	0.750			
0.6880	44033.84	3.6330	3.6330	1.0397	25.13	-0.09	0.750			
0.6910	44224.72	3.6300	3.6301	1.0047	25.13	-0.09	0.750			
0.6940	44414.04	3.6270	3.6270	0.9771	25.14	-0.08	0.750			
0.6968	44596.72	3.6240	3.6240	0.9475	25.14	-0.08	0.750			
0.6997	44778.91	3.6210	3.6210	0.9092	25.15	-0.07	0.750			
0.7024	44953.36	3.6180	3.6180	0.8877	25.16	-0.06	0.750			
0.7050	45122.57	3.6150	3.6151	0.8508	25.17	-0.05	0.750			
0.7076	45283.78	3.6120	3.6122	0.8034	25.18	-0.04	0.750			
0.7099	45434.56	3.6090	3.6091	0.7389	25.18	-0.04	0.750			
0.7121	45573.15	3.6060	3.6061	0.6708	25.19	-0.03	0.750			
0.7140	45693.41	3.6030	3.6034	0.6121	25.20	-0.02	0.750			
0.7157	45805.41	3.6000	3.6003	0.5553	25.20	-0.02	0.750			
0.7172	45900.36	3.5970	3.5975	0.4856	25.21	-0.01	0.750			
0.7186	45988.27	3.5940	3.5943	0.4343	25.21	-0.01	0.750			
0.7198	46068.04	3.5910	3.5913	0.3882	25.22	-0.00	0.750			
0.7209	46140.65	3.5880	3.5875	0.3407	25.22	-0.00	0.750			
0.7218	46198.10	3.5850	3.5849	0.2733	25.22	0.00	0.750			
0.7226	46245.73	3.5820	3.5821	0.2220	25.23	0.01	0.750			
0.7232	46283.77	3.5790	3.5795	0.1705	25.23	0.01	0.750			
0.7236	46313.36	3.5760	3.5764	0.1107	25.23	0.01	0.750			
0.7239	46329.02	3.5730	3.5740	0.0355	25.23	0.01	0.750			
