Ah_balance (normalized)	Ah_balance (mAh)	Voltage - fit (V)	Voltage -  interpolate (V)	dQ/dV (1/V)	Temperature (°C)	Temperature - diff (°C)	Current (C)	R_DC 0ms (mOhm)	R_DC 50ms (mOhm)	R_DC 50 ms PEC (mOhm)
0.0487	3113.84	4.1980	4.1980	0.7415	25.97	0.45	0.750			
0.0509	3256.97	4.1950	4.1949	0.7466	25.97	0.45	0.750			
0.0531	3400.17	4.1920	4.1921	0.7485	25.97	0.45	0.750			
0.0554	3543.74	4.1890	4.1891	0.7529	25.97	0.45	0.750			
0.0577	3689.71	4.1860	4.1859	0.7499	25.97	0.45	0.750			
0.0599	3833.78	4.1830	4.1830	0.7536	25.97	0.45	0.750			
0.0621	3976.97	4.1800	4.1801	0.7507	25.97	0.45	0.750			
0.0644	4122.05	4.1770	4.1768	0.7537	25.97	0.45	0.750			
0.0667	4267.00	4.1740	4.1741	0.7552	25.97	0.45	0.750			
0.0690	4412.82	4.1710	4.1710	0.7512	25.97	0.45	0.750			
0.0712	4557.39	4.1680	4.1680	0.7519	25.97	0.45	0.750			
0.0735	4700.96	4.1650	4.1651	0.7537	25.97	0.45	0.750			
0.0757	4845.04	4.1620	4.1621	0.7567	25.97	0.45	0.750			
0.0780	4990.74	4.1590	4.1590	0.7609	25.97	0.45	0.750			
0.0803	5137.44	4.1560	4.1560	0.7626	25.97	0.45	0.750			
0.0826	5284.48	4.1530	4.1530	0.7642	25.97	0.45	0.750			
0.0849	5431.48	4.1500	4.1500	0.7687	25.98	0.46	0.750			
0.0872	5579.03	4.1470	4.1470	0.7680	25.98	0.46	0.750			
0.0895	5726.86	4.1440	4.1439	0.7666	25.98	0.46	0.750			
0.0918	5874.16	4.1410	4.1410	0.7675	25.98	0.46	0.750			
0.0941	6023.25	4.1380	4.1381	0.7592	25.98	0.46	0.750			
0.0964	6170.51	4.1350	4.1350	0.7438	25.98	0.46	0.750			
0.0985	6305.50	4.1320	4.1322	0.7405	25.98	0.46	0.750			
0.1007	6445.43	4.1290	4.1292	0.7468	25.98	0.46	0.750			
0.1029	6587.33	4.1260	4.1261	0.7512	25.98	0.46	0.750			
0.1052	6733.11	4.1230	4.1231	0.7637	25.98	0.46	0.750			
0.1076	6883.38	4.1200	4.1201	0.7723	25.98	0.46	0.750			
0.1099	7035.85	4.1170	4.1170	0.7838	25.99	0.47	0.750			
0.1123	7184.47	4.1140	4.1141	0.7799	25.99	0.47	0.750			
0.1146	7334.88	4.1110	4.1104	0.7816	25.99	0.47	0.750			
0.1170	7485.50	4.1080	4.1081	0.7837	25.99	0.47	0.750			
0.1193	7638.20	4.1050	4.1051	0.7834	25.99	0.47	0.750			
0.1217	7788.97	4.1020	4.1020	0.7895	25.99	0.47	0.750			
0.1241	7940.81	4.0990	4.0990	0.7893	25.99	0.47	0.750			
0.1264	8089.21	4.0960	4.0958	0.7850	25.99	0.47	0.750			
0.1288	8240.32	4.0930	4.0931	0.7893	25.99	0.47	0.750			
0.1312	8397.15	4.0900	4.0900	0.7844	26.00	0.48	0.750			
0.1335	8544.66	4.0870	4.0870	0.7869	26.00	0.48	0.750			
0.1359	8695.13	4.0840	4.0840	0.7915	26.00	0.48	0.750			
0.1382	8844.64	4.0810	4.0812	0.7954	26.01	0.49	0.750			
0.1406	8997.44	4.0780	4.0778	0.8014	26.01	0.49	0.750			
0.1430	9154.92	4.0750	4.0751	0.8004	26.01	0.49	0.750			
0.1455	9309.45	4.0720	4.0721	0.8078	26.01	0.49	0.750			
0.1479	9466.69	4.0690	4.0691	0.8087	26.01	0.49	0.750			
0.1503	9619.85	4.0660	4.0661	0.8076	26.01	0.49	0.750			
0.1527	9774.32	4.0630	4.0628	0.8070	26.01	0.49	0.750			
0.1552	9930.02	4.0600	4.0601	0.8090	26.01	0.49	0.750			
0.1576	10085.73	4.0570	4.0570	0.8157	26.02	0.50	0.750			
0.1601	10243.81	4.0540	4.0541	0.8183	26.02	0.50	0.750			
0.1625	10400.59	4.0510	4.0509	0.8196	26.03	0.51	0.750			
0.1650	10558.95	4.0480	4.0481	0.8258	26.03	0.51	0.750			
0.1675	10717.33	4.0450	4.0450	0.8260	26.03	0.51	0.750			
0.1699	10876.74	4.0420	4.0419	0.8220	26.03	0.51	0.750			
0.1724	11032.42	4.0390	4.0392	0.8222	26.03	0.51	0.750			
0.1748	11187.17	4.0360	4.0362	0.8257	26.03	0.51	0.750			
0.1773	11347.34	4.0330	4.0321	0.8294	26.03	0.51	0.750			
0.1798	11505.03	4.0300	4.0303	0.8336	26.03	0.51	0.750			
0.1823	11666.99	4.0270	4.0272	0.8353	26.04	0.52	0.750			
0.1849	11830.98	4.0240	4.0240	0.8488	26.04	0.52	0.750			
0.1874	11992.57	4.0210	4.0210	0.8376	26.05	0.53	0.750			
0.1899	12153.10	4.0180	4.0178	0.8436	26.05	0.53	0.750			
0.1925	12318.72	4.0150	4.0151	0.8435	26.05	0.53	0.750			
0.1950	12481.59	4.0120	4.0121	0.8492	26.05	0.53	0.750			
0.1976	12644.00	4.0090	4.0090	0.8528	26.05	0.53	0.750			
0.2001	12807.20	4.0060	4.0060	0.8497	26.05	0.53	0.750			
0.2026	12969.38	4.0030	4.0029	0.8518	26.05	0.53	0.750			
0.2052	13134.47	4.0000	4.0000	0.8588	26.05	0.53	0.750			
0.2078	13301.24	3.9970	3.9971	0.8501	26.05	0.53	0.750			
0.2103	13462.25	3.9940	3.9941	0.8572	26.05	0.53	0.750			
0.2129	13624.66	3.9910	3.9912	0.8573	26.05	0.53	0.750			
0.2154	13788.68	3.9880	3.9882	0.8589	26.05	0.53	0.750			
0.2181	13957.62	3.9850	3.9851	0.8588	26.06	0.54	0.750			
0.2207	14123.27	3.9820	3.9821	0.8692	26.06	0.54	0.750			
0.2233	14291.38	3.9790	3.9791	0.8763	26.06	0.54	0.750			
0.2259	14459.11	3.9760	3.9760	0.8695	26.07	0.55	0.750			
0.2285	14626.09	3.9730	3.9731	0.8688	26.07	0.55	0.750			
0.2312	14795.52	3.9700	3.9701	0.8634	26.07	0.55	0.750			
0.2338	14960.82	3.9670	3.9671	0.8669	26.07	0.55	0.750			
0.2364	15128.16	3.9640	3.9640	0.8708	26.07	0.55	0.750			
0.2389	15291.24	3.9610	3.9608	0.8637	26.07	0.55	0.750			
0.2415	15458.02	3.9580	3.9581	0.8685	26.07	0.55	0.750			
0.2442	15626.24	3.9550	3.9551	0.8726	26.07	0.55	0.750			
0.2467	15790.98	3.9520	3.9521	0.8604	26.06	0.54	0.750			
0.2493	15956.32	3.9490	3.9492	0.8658	26.06	0.54	0.750			
0.2519	16119.40	3.9460	3.9454	0.8614	26.06	0.54	0.750			
0.2545	16285.25	3.9430	3.9431	0.8672	26.06	0.54	0.750			
0.2571	16452.52	3.9400	3.9402	0.8620	26.06	0.54	0.750			
0.2597	16618.37	3.9370	3.9372	0.8658	26.05	0.53	0.750			
0.2623	16789.06	3.9340	3.9340	0.8816	26.05	0.53	0.750			
0.2649	16951.36	3.9310	3.9308	0.8689	26.05	0.53	0.750			
0.2675	17118.70	3.9280	3.9280	0.8662	26.05	0.53	0.750			
0.2701	17286.54	3.9250	3.9250	0.8699	26.04	0.52	0.750			
0.2728	17456.90	3.9220	3.9221	0.8710	26.04	0.52	0.750			
0.2754	17625.61	3.9190	3.9191	0.8734	26.03	0.51	0.750			
0.2779	17788.56	3.9160	3.9159	0.8629	26.03	0.51	0.750			
0.2806	17956.53	3.9130	3.9130	0.8489	26.03	0.51	0.750			
0.2831	18116.91	3.9100	3.9101	0.8528	26.03	0.51	0.750			
0.2856	18278.75	3.9070	3.9071	0.8611	26.02	0.50	0.750			
0.2882	18444.09	3.9040	3.9041	0.8667	26.02	0.50	0.750			
0.2908	18610.62	3.9010	3.9011	0.8694	26.02	0.50	0.750			
0.2934	18779.24	3.8980	3.8981	0.8687	26.01	0.49	0.750			
0.2961	18948.50	3.8950	3.8951	0.8751	26.01	0.49	0.750			
0.2987	19118.14	3.8920	3.8920	0.8762	26.01	0.49	0.750			
0.3013	19283.02	3.8890	3.8888	0.8682	26.00	0.48	0.750			
0.3039	19450.01	3.8860	3.8860	0.8719	26.00	0.48	0.750			
0.3065	19617.67	3.8830	3.8831	0.8718	25.99	0.47	0.750			
0.3092	19785.84	3.8800	3.8800	0.8772	25.98	0.46	0.750			
0.3118	19956.46	3.8770	3.8770	0.8816	25.98	0.46	0.750			
0.3144	20123.45	3.8740	3.8738	0.8807	25.97	0.45	0.750			
0.3171	20292.64	3.8710	3.8711	0.8829	25.96	0.44	0.750			
0.3197	20462.88	3.8680	3.8680	0.8730	25.96	0.44	0.750			
0.3223	20627.88	3.8650	3.8651	0.8781	25.95	0.43	0.750			
0.3249	20794.31	3.8620	3.8622	0.8793	25.95	0.43	0.750			
0.3276	20963.90	3.8590	3.8590	0.8885	25.94	0.42	0.750			
0.3303	21136.89	3.8560	3.8561	0.8896	25.93	0.41	0.750			
0.3329	21307.97	3.8530	3.8531	0.8992	25.92	0.40	0.750			
0.3357	21482.10	3.8500	3.8501	0.9176	25.91	0.39	0.750			
0.3384	21657.68	3.8470	3.8471	0.9132	25.90	0.38	0.750			
0.3412	21837.75	3.8440	3.8439	0.9175	25.90	0.38	0.750	0.332	0.466	
0.3440	22014.57	3.8410	3.8411	0.9242	25.89	0.37	0.750			
0.3468	22192.73	3.8380	3.8382	0.9330	25.88	0.36	0.750			
0.3496	22375.45	3.8350	3.8350	0.9398	25.88	0.36	0.750			
0.3524	22551.17	3.8320	3.8318	0.9353	25.87	0.35	0.750			
0.3552	22734.03	3.8290	3.8291	0.9233	25.86	0.34	0.750			
0.3580	22911.59	3.8260	3.8260	0.9444	25.85	0.33	0.750			
0.3608	23091.96	3.8230	3.8231	0.9587	25.84	0.32	0.750			
0.3637	23274.70	3.8200	3.8200	0.9649	25.83	0.31	0.750			
0.3666	23462.83	3.8170	3.8172	0.9736	25.82	0.30	0.750			
0.3696	23652.43	3.8140	3.8141	0.9920	25.81	0.29	0.750			
0.3726	23844.45	3.8110	3.8111	1.0043	25.80	0.28	0.750			
0.3756	24041.46	3.8080	3.8081	1.0209	25.79	0.27	0.750			
0.3787	24235.54	3.8050	3.8051	1.0108	25.79	0.27	0.750			
0.3817	24429.17	3.8020	3.8020	1.0326	25.78	0.26	0.750			
0.3848	24628.45	3.7990	3.7990	1.0477	25.77	0.25	0.750			
0.3880	24832.23	3.7960	3.7960	1.0672	25.76	0.24	0.750			
0.3913	25041.22	3.7930	3.7930	1.0510	25.76	0.24	0.750			
0.3944	25242.76	3.7900	3.7901	1.0784	25.75	0.23	0.750			
0.3976	25448.45	3.7870	3.7871	1.1027	25.74	0.22	0.750			
0.4009	25659.18	3.7840	3.7842	1.1172	25.73	0.21	0.750			
0.4043	25876.81	3.7810	3.7812	1.1386	25.72	0.20	0.750			
0.4078	26099.20	3.7780	3.7782	1.1633	25.71	0.19	0.750			
0.4113	26326.16	3.7750	3.7751	1.1897	25.70	0.18	0.750			
0.4151	26563.22	3.7720	3.7719	1.2129	25.69	0.17	0.750			
0.4186	26787.74	3.7690	3.7691	1.2185	25.68	0.16	0.750			
0.4223	27024.50	3.7660	3.7661	1.2486	25.67	0.15	0.750			
0.4262	27276.07	3.7630	3.7628	1.2480	25.65	0.13	0.750			
0.4299	27511.38	3.7600	3.7601	1.2775	25.64	0.12	0.750			
0.4337	27756.83	3.7570	3.7572	1.3158	25.63	0.11	0.750			
0.4377	28015.24	3.7540	3.7542	1.3295	25.62	0.10	0.750			
0.4417	28265.80	3.7510	3.7512	1.3608	25.61	0.09	0.750			
0.4457	28527.60	3.7480	3.7484	1.4046	25.60	0.08	0.750			
0.4500	28801.20	3.7450	3.7452	1.4457	25.58	0.06	0.750			
0.4545	29089.48	3.7420	3.7418	1.4731	25.57	0.05	0.750			
0.4589	29367.73	3.7390	3.7393	1.5199	25.56	0.04	0.750			
0.4638	29680.40	3.7360	3.7358	1.5080	25.55	0.03	0.750			
0.4683	29972.97	3.7330	3.7330	1.5833	25.54	0.02	0.750			
0.4729	30265.34	3.7300	3.7306	1.5951	25.52	0.00	0.750			
0.4777	30573.52	3.7270	3.7262	1.6736	25.51	-0.01	0.750			
0.4828	30901.31	3.7240	3.7240	1.7270	25.49	-0.03	0.750			
0.4881	31240.98	3.7210	3.7212	1.7748	25.47	-0.05	0.750			
0.4940	31617.70	3.7180	3.7177	1.8388	25.46	-0.06	0.750			
0.4993	31952.98	3.7150	3.7148	1.8508	25.45	-0.07	0.750			
0.5048	32309.86	3.7120	3.7116	1.9052	25.44	-0.08	0.750			
0.5107	32683.03	3.7090	3.7088	1.9566	25.43	-0.09	0.750			
0.5167	33071.63	3.7060	3.7063	1.9867	25.41	-0.11	0.750			
0.5227	33453.93	3.7030	3.7033	2.0802	25.39	-0.13	0.750			
0.5290	33857.93	3.7000	3.6995	2.1065	25.38	-0.14	0.750			
0.5356	34275.65	3.6970	3.6970	2.2354	25.37	-0.15	0.750			
0.5425	34719.65	3.6940	3.6939	2.2921	25.37	-0.15	0.750			
0.5495	35167.02	3.6910	3.6915	2.3530	25.36	-0.16	0.750			
0.5564	35610.89	3.6880	3.6874	2.3068	25.36	-0.16	0.750			
0.5634	36055.11	3.6850	3.6849	2.2968	25.35	-0.17	0.750			
0.5704	36504.14	3.6820	3.6823	2.3176	25.35	-0.17	0.750			
0.5774	36952.99	3.6790	3.6793	2.2503	25.35	-0.17	0.750			
0.5842	37387.17	3.6760	3.6758	2.2236	25.36	-0.16	0.750			
0.5906	37801.16	3.6730	3.6726	2.0883	25.36	-0.16	0.750			
0.5970	38205.66	3.6700	3.6696	1.9985	25.37	-0.15	0.750			
0.6028	38578.33	3.6670	3.6674	1.8958	25.37	-0.15	0.750			
0.6083	38930.35	3.6640	3.6641	1.7645	25.37	-0.15	0.750			
0.6133	39252.40	3.6610	3.6612	1.6430	25.37	-0.15	0.750			
0.6180	39553.08	3.6580	3.6583	1.5146	25.38	-0.14	0.750			
0.6225	39842.74	3.6550	3.6552	1.4388	25.38	-0.14	0.750			
0.6266	40100.62	3.6520	3.6515	1.3205	25.39	-0.13	0.750			
0.6304	40348.71	3.6490	3.6491	1.2604	25.40	-0.12	0.750			
0.6340	40578.33	3.6460	3.6462	1.1917	25.41	-0.11	0.750			
0.6375	40803.13	3.6430	3.6431	1.1388	25.42	-0.10	0.750			
0.6410	41023.40	3.6400	3.6400	1.1016	25.42	-0.10	0.750			
0.6440	41217.99	3.6370	3.6371	1.0259	25.43	-0.09	0.750			
0.6470	41407.89	3.6340	3.6340	0.9868	25.44	-0.08	0.750			
0.6499	41594.33	3.6310	3.6310	0.9543	25.44	-0.08	0.750			
0.6527	41772.99	3.6280	3.6280	0.9162	25.45	-0.07	0.750			
0.6554	41944.74	3.6250	3.6251	0.8860	25.46	-0.06	0.750			
0.6580	42114.03	3.6220	3.6220	0.8466	25.46	-0.06	0.750			
0.6605	42272.73	3.6190	3.6190	0.8138	25.47	-0.05	0.750			
0.6629	42425.22	3.6160	3.6161	0.7767	25.48	-0.04	0.750			
0.6652	42571.38	3.6130	3.6130	0.7336	25.48	-0.04	0.750			
0.6673	42709.22	3.6100	3.6102	0.6931	25.49	-0.03	0.750			
0.6694	42839.95	3.6070	3.6070	0.6462	25.50	-0.02	0.750			
0.6713	42961.21	3.6040	3.6040	0.5994	25.50	-0.02	0.750			
0.6730	43070.42	3.6010	3.6010	0.5390	25.51	-0.01	0.750			
0.6745	43168.22	3.5980	3.5981	0.4903	25.51	-0.01	0.750			
0.6759	43258.28	3.5950	3.5950	0.4402	25.52	-0.00	0.750			
0.6772	43338.28	3.5920	3.5915	0.3917	25.52	0.00	0.750			
0.6782	43406.95	3.5890	3.5891	0.3459	25.52	0.00	0.750			
0.6792	43470.03	3.5860	3.5862	0.2995	25.53	0.01	0.750			
0.6801	43523.38	3.5830	3.5833	0.2540	25.53	0.01	0.750			
0.6808	43569.10	3.5800	3.5805	0.2086	25.53	0.01	0.750			
0.6813	43602.20	3.5770	3.5777	0.1603	25.53	0.01	0.750			
0.6817	43629.87	3.5740	3.5750	0.1126	25.53	0.01	0.750			
0.6820	43647.68	3.5710	3.5722	0.0206	25.54	0.02	0.751			
