Ah_balance (normalized)	Ah_balance (mAh)	Voltage - fit (V)	Voltage -  interpolate (V)	dQ/dV (1/V)	Temperature (°C)	Temperature - diff (°C)	Current (C)	R_DC 0ms (mOhm)	R_DC 50ms (mOhm)	R_DC 50 ms PEC (mOhm)
0.0476	3049.39	4.1980	4.1980	0.7482	25.69	0.45	0.750			
0.0499	3194.04	4.1950	4.1950	0.7567	25.69	0.45	0.750			
0.0521	3337.27	4.1920	4.1920	0.7504	25.69	0.45	0.750			
0.0544	3481.00	4.1890	4.1890	0.7532	25.69	0.45	0.750			
0.0567	3625.70	4.1860	4.1861	0.7563	25.69	0.45	0.750			
0.0589	3771.70	4.1830	4.1830	0.7571	25.69	0.45	0.750			
0.0612	3917.46	4.1800	4.1800	0.7604	25.69	0.45	0.750			
0.0635	4063.83	4.1770	4.1770	0.7591	25.69	0.45	0.750			
0.0658	4209.75	4.1740	4.1740	0.7601	25.69	0.45	0.750			
0.0680	4354.88	4.1710	4.1710	0.7606	25.69	0.45	0.750			
0.0703	4500.96	4.1680	4.1678	0.7638	25.69	0.45	0.750			
0.0726	4647.66	4.1650	4.1650	0.7659	25.69	0.45	0.750			
0.0749	4796.42	4.1620	4.1620	0.7645	25.69	0.45	0.750			
0.0772	4943.20	4.1590	4.1590	0.7662	25.69	0.45	0.750			
0.0795	5090.39	4.1560	4.1560	0.7707	25.69	0.45	0.750			
0.0818	5237.89	4.1530	4.1530	0.7693	25.69	0.45	0.750			
0.0842	5385.74	4.1500	4.1500	0.7691	25.69	0.45	0.750			
0.0865	5533.44	4.1470	4.1471	0.7699	25.69	0.45	0.750			
0.0888	5681.61	4.1440	4.1440	0.7687	25.69	0.45	0.750			
0.0911	5829.38	4.1410	4.1410	0.7737	25.69	0.45	0.750			
0.0934	5976.21	4.1380	4.1380	0.7723	25.69	0.45	0.750			
0.0957	6124.14	4.1350	4.1351	0.7785	25.69	0.45	0.750			
0.0980	6274.55	4.1320	4.1321	0.7856	25.69	0.45	0.750			
0.1004	6427.33	4.1290	4.1289	0.7832	25.69	0.45	0.750			
0.1028	6579.31	4.1260	4.1260	0.7855	25.69	0.45	0.750			
0.1051	6729.02	4.1230	4.1231	0.7831	25.69	0.45	0.750			
0.1075	6879.08	4.1200	4.1199	0.7829	25.69	0.45	0.750			
0.1098	7029.24	4.1170	4.1169	0.7841	25.69	0.45	0.750			
0.1122	7179.47	4.1140	4.1140	0.7838	25.69	0.45	0.750			
0.1145	7330.54	4.1110	4.1110	0.7884	25.70	0.46	0.750			
0.1169	7483.23	4.1080	4.1080	0.7930	25.70	0.46	0.750			
0.1193	7633.98	4.1050	4.1050	0.7954	25.70	0.46	0.750			
0.1217	7787.36	4.1020	4.1021	0.7993	25.70	0.46	0.750			
0.1242	7945.79	4.0990	4.0989	0.7930	25.70	0.46	0.750			
0.1265	8094.99	4.0960	4.0961	0.7968	25.70	0.46	0.750			
0.1289	8247.34	4.0930	4.0931	0.8006	25.71	0.47	0.750			
0.1313	8400.31	4.0900	4.0901	0.8034	25.71	0.47	0.750			
0.1337	8553.98	4.0870	4.0867	0.8054	25.71	0.47	0.750			
0.1361	8711.13	4.0840	4.0841	0.8022	25.71	0.47	0.750			
0.1385	8866.59	4.0810	4.0811	0.8114	25.71	0.47	0.750			
0.1410	9023.47	4.0780	4.0780	0.8138	25.71	0.47	0.750			
0.1434	9176.46	4.0750	4.0751	0.8112	25.71	0.47	0.750			
0.1458	9331.34	4.0720	4.0718	0.8173	25.71	0.47	0.750			
0.1483	9491.76	4.0690	4.0690	0.8170	25.71	0.47	0.750			
0.1508	9650.54	4.0660	4.0660	0.8228	25.71	0.47	0.750			
0.1533	9809.23	4.0630	4.0632	0.8253	25.72	0.48	0.750			
0.1557	9967.02	4.0600	4.0600	0.8194	25.72	0.48	0.750			
0.1582	10123.11	4.0570	4.0569	0.8252	25.72	0.48	0.750			
0.1606	10281.33	4.0540	4.0540	0.8273	25.72	0.48	0.750			
0.1631	10439.71	4.0510	4.0510	0.8285	25.72	0.48	0.750			
0.1656	10600.73	4.0480	4.0480	0.8358	25.72	0.48	0.750			
0.1681	10760.53	4.0450	4.0451	0.8364	25.72	0.48	0.750			
0.1707	10921.81	4.0420	4.0418	0.8408	25.72	0.48	0.750			
0.1732	11085.30	4.0390	4.0391	0.8405	25.72	0.48	0.750			
0.1757	11245.57	4.0360	4.0360	0.8402	25.72	0.48	0.750			
0.1783	11408.40	4.0330	4.0330	0.8456	25.73	0.49	0.750			
0.1808	11568.71	4.0300	4.0301	0.8444	25.73	0.49	0.750			
0.1833	11730.98	4.0270	4.0269	0.8503	25.73	0.49	0.750			
0.1859	11896.05	4.0240	4.0240	0.8495	25.73	0.49	0.750			
0.1884	12059.32	4.0210	4.0210	0.8567	25.74	0.50	0.750			
0.1910	12224.43	4.0180	4.0181	0.8623	25.74	0.50	0.750			
0.1936	12390.26	4.0150	4.0150	0.8648	25.75	0.51	0.750			
0.1962	12556.36	4.0120	4.0120	0.8661	25.75	0.51	0.750			
0.1988	12724.13	4.0090	4.0090	0.8655	25.75	0.51	0.750			
0.2014	12890.46	4.0060	4.0060	0.8708	25.75	0.51	0.750			
0.2040	13057.89	4.0030	4.0031	0.8755	25.75	0.51	0.750			
0.2066	13224.54	4.0000	4.0000	0.8736	25.75	0.51	0.750			
0.2093	13393.56	3.9970	3.9970	0.8781	25.75	0.51	0.750			
0.2119	13563.17	3.9940	3.9940	0.8787	25.75	0.51	0.750			
0.2146	13731.97	3.9910	3.9911	0.8832	25.75	0.51	0.750			
0.2172	13903.22	3.9880	3.9880	0.8882	25.75	0.51	0.750			
0.2199	14072.12	3.9850	3.9848	0.8851	25.75	0.51	0.750			
0.2225	14241.01	3.9820	3.9820	0.8875	25.75	0.51	0.750			
0.2252	14412.79	3.9790	3.9791	0.8880	25.76	0.52	0.750			
0.2279	14584.47	3.9760	3.9760	0.8919	25.76	0.52	0.750			
0.2306	14755.56	3.9730	3.9730	0.8923	25.77	0.53	0.750			
0.2332	14925.37	3.9700	3.9700	0.8929	25.77	0.53	0.750			
0.2359	15097.28	3.9670	3.9670	0.8924	25.77	0.53	0.750			
0.2386	15268.74	3.9640	3.9640	0.8979	25.77	0.53	0.750			
0.2413	15441.90	3.9610	3.9610	0.8997	25.78	0.54	0.750			
0.2440	15614.22	3.9580	3.9580	0.9037	25.78	0.54	0.750			
0.2467	15788.46	3.9550	3.9551	0.9093	25.78	0.54	0.750			
0.2494	15963.91	3.9520	3.9520	0.9063	25.78	0.54	0.750			
0.2521	16137.38	3.9490	3.9491	0.9100	25.79	0.55	0.750			
0.2549	16313.13	3.9460	3.9461	0.9165	25.79	0.55	0.750			
0.2576	16488.31	3.9430	3.9428	0.9147	25.79	0.55	0.750			
0.2604	16665.48	3.9400	3.9400	0.9157	25.79	0.55	0.750			
0.2631	16839.77	3.9370	3.9371	0.9178	25.79	0.55	0.750			
0.2659	17017.64	3.9340	3.9340	0.9235	25.79	0.55	0.750			
0.2687	17197.01	3.9310	3.9310	0.9229	25.79	0.55	0.750			
0.2714	17371.59	3.9280	3.9280	0.9176	25.79	0.55	0.750			
0.2742	17549.80	3.9250	3.9251	0.9062	25.79	0.55	0.750			
0.2769	17723.04	3.9220	3.9220	0.9166	25.79	0.55	0.750			
0.2797	17897.89	3.9190	3.9190	0.9177	25.79	0.55	0.750			
0.2824	18072.62	3.9160	3.9158	0.9168	25.79	0.55	0.750			
0.2852	18250.04	3.9130	3.9131	0.9178	25.79	0.55	0.750			
0.2879	18426.64	3.9100	3.9100	0.9247	25.79	0.55	0.750			
0.2907	18605.33	3.9070	3.9070	0.9292	25.78	0.54	0.750			
0.2935	18784.65	3.9040	3.9040	0.9345	25.78	0.54	0.750			
0.2963	18960.73	3.9010	3.9010	0.9304	25.78	0.54	0.750			
0.2991	19142.09	3.8980	3.8980	0.9320	25.78	0.54	0.750			
0.3019	19321.98	3.8950	3.8950	0.9336	25.78	0.54	0.750			
0.3047	19500.36	3.8920	3.8920	0.9355	25.78	0.54	0.750			
0.3075	19679.07	3.8890	3.8889	0.9334	25.78	0.54	0.750			
0.3103	19862.38	3.8860	3.8859	0.9216	25.78	0.54	0.750			
0.3131	20035.49	3.8830	3.8830	0.9252	25.77	0.53	0.750			
0.3158	20211.60	3.8800	3.8802	0.9319	25.77	0.53	0.750			
0.3186	20391.08	3.8770	3.8771	0.9398	25.76	0.52	0.750			
0.3214	20570.12	3.8740	3.8739	0.9456	25.76	0.52	0.750			
0.3243	20753.43	3.8710	3.8712	0.9461	25.75	0.51	0.750			
0.3272	20938.56	3.8680	3.8681	0.9509	25.74	0.50	0.750			
0.3300	21122.40	3.8650	3.8650	0.9540	25.74	0.50	0.750			
0.3329	21303.09	3.8620	3.8618	0.9478	25.73	0.49	0.750			
0.3357	21484.83	3.8590	3.8590	0.9436	25.72	0.48	0.750			
0.3385	21665.72	3.8560	3.8560	0.9493	25.72	0.48	0.750			
0.3414	21848.36	3.8530	3.8531	0.9523	25.71	0.47	0.750			
0.3442	22031.94	3.8500	3.8500	0.9547	25.70	0.46	0.750			
0.3471	22215.97	3.8470	3.8469	0.9576	25.70	0.46	0.750			
0.3500	22398.23	3.8440	3.8441	0.9587	25.69	0.45	0.750			
0.3529	22582.62	3.8410	3.8410	0.9696	25.68	0.44	0.750			
0.3558	22771.20	3.8380	3.8380	0.9771	25.68	0.44	0.750			
0.3587	22958.51	3.8350	3.8349	0.9762	25.67	0.43	0.750	0.311	0.424	
0.3617	23147.16	3.8320	3.8320	0.9733	25.65	0.41	0.750			
0.3646	23336.76	3.8290	3.8290	0.9545	25.64	0.40	0.750			
0.3675	23520.39	3.8260	3.8261	0.9426	25.63	0.39	0.750			
0.3702	23694.51	3.8230	3.8229	0.9388	25.62	0.38	0.750			
0.3730	23872.64	3.8200	3.8199	0.9307	25.61	0.37	0.750			
0.3758	24049.18	3.8170	3.8169	0.9511	25.61	0.37	0.750			
0.3786	24229.22	3.8140	3.8141	0.9736	25.60	0.36	0.750			
0.3815	24418.48	3.8110	3.8111	0.9981	25.59	0.35	0.750			
0.3848	24625.35	3.8080	3.8080	1.0005	25.58	0.34	0.750			
0.3877	24815.60	3.8050	3.8051	1.0188	25.57	0.33	0.750			
0.3908	25008.95	3.8020	3.8023	1.0347	25.56	0.32	0.750			
0.3939	25207.92	3.7990	3.7992	1.0611	25.55	0.31	0.750			
0.3971	25411.60	3.7960	3.7960	1.0628	25.54	0.30	0.750			
0.4003	25616.72	3.7930	3.7932	1.0897	25.53	0.29	0.750			
0.4036	25831.54	3.7900	3.7902	1.1154	25.52	0.28	0.750			
0.4071	26052.09	3.7870	3.7868	1.1323	25.51	0.27	0.750			
0.4104	26266.38	3.7840	3.7841	1.1243	25.50	0.26	0.750			
0.4138	26480.94	3.7810	3.7812	1.1431	25.50	0.26	0.750			
0.4172	26701.32	3.7780	3.7781	1.1712	25.49	0.25	0.750			
0.4209	26936.77	3.7750	3.7746	1.1693	25.48	0.24	0.750			
0.4243	27156.12	3.7720	3.7721	1.1976	25.47	0.23	0.750			
0.4279	27386.28	3.7690	3.7692	1.2330	25.46	0.22	0.750			
0.4317	27629.88	3.7660	3.7662	1.2579	25.45	0.21	0.750			
0.4355	27870.28	3.7630	3.7632	1.2853	25.44	0.20	0.750			
0.4394	28120.43	3.7600	3.7602	1.3172	25.42	0.18	0.750			
0.4435	28381.80	3.7570	3.7571	1.3429	25.41	0.17	0.750			
0.4476	28649.50	3.7540	3.7541	1.3880	25.39	0.15	0.750			
0.4517	28907.03	3.7510	3.7511	1.3947	25.38	0.14	0.750			
0.4560	29184.66	3.7480	3.7479	1.3971	25.37	0.13	0.750			
0.4603	29459.23	3.7450	3.7450	1.4366	25.36	0.12	0.750			
0.4645	29729.56	3.7420	3.7422	1.4704	25.35	0.11	0.750			
0.4691	30019.62	3.7390	3.7390	1.5019	25.34	0.10	0.750			
0.4736	30310.55	3.7360	3.7363	1.5560	25.33	0.09	0.750			
0.4782	30604.30	3.7330	3.7328	1.6054	25.32	0.08	0.750			
0.4832	30923.44	3.7300	3.7300	1.6468	25.30	0.06	0.750			
0.4881	31240.05	3.7270	3.7268	1.6874	25.29	0.05	0.750			
0.4935	31582.48	3.7240	3.7239	1.7000	25.27	0.03	0.750			
0.4985	31904.57	3.7210	3.7203	1.7552	25.26	0.02	0.750			
0.5040	32253.82	3.7180	3.7177	1.8089	25.24	-0.00	0.750			
0.5093	32596.88	3.7150	3.7152	1.8786	25.22	-0.02	0.750			
0.5151	32963.71	3.7120	3.7114	1.9440	25.21	-0.03	0.750			
0.5210	33345.93	3.7090	3.7090	2.0800	25.20	-0.04	0.750			
0.5273	33747.18	3.7060	3.7065	2.1013	25.18	-0.06	0.750			
0.5337	34155.54	3.7030	3.7033	2.0966	25.17	-0.07	0.750			
0.5399	34550.73	3.7000	3.6999	2.1147	25.15	-0.09	0.750			
0.5464	34968.04	3.6970	3.6969	2.1902	25.14	-0.10	0.750			
0.5531	35400.53	3.6940	3.6944	2.3370	25.13	-0.11	0.750			
0.5600	35840.01	3.6910	3.6906	2.4847	25.12	-0.12	0.750			
0.5674	36312.36	3.6880	3.6882	2.5681	25.10	-0.14	0.750			
0.5752	36812.17	3.6850	3.6852	2.4724	25.10	-0.14	0.750			
0.5827	37292.79	3.6820	3.6814	2.5191	25.09	-0.15	0.750			
0.5902	37775.70	3.6790	3.6796	2.5842	25.08	-0.16	0.750			
0.5982	38285.35	3.6760	3.6755	2.8098	25.08	-0.16	0.750			
0.6065	38813.13	3.6730	3.6729	2.7722	25.08	-0.16	0.750			
0.6147	39340.16	3.6700	3.6702	2.7353	25.07	-0.17	0.750			
0.6226	39847.34	3.6670	3.6672	2.6617	25.07	-0.17	0.750			
0.6301	40324.16	3.6640	3.6633	2.5769	25.08	-0.16	0.750			
0.6375	40797.84	3.6610	3.6615	2.3573	25.09	-0.15	0.750			
0.6441	41221.93	3.6580	3.6581	2.1564	25.10	-0.14	0.750			
0.6500	41600.78	3.6550	3.6548	1.9803	25.11	-0.13	0.750			
0.6556	41960.68	3.6520	3.6519	1.8168	25.12	-0.12	0.750			
0.6607	42281.61	3.6490	3.6493	1.6336	25.12	-0.12	0.750			
0.6651	42565.25	3.6460	3.6463	1.4810	25.13	-0.11	0.750			
0.6694	42841.28	3.6430	3.6430	1.3655	25.14	-0.10	0.750			
0.6733	43092.97	3.6400	3.6401	1.2534	25.15	-0.09	0.750			
0.6768	43315.94	3.6370	3.6371	1.1437	25.16	-0.08	0.750			
0.6801	43523.65	3.6340	3.6341	1.0827	25.16	-0.08	0.750			
0.6832	43725.23	3.6310	3.6308	1.0347	25.17	-0.07	0.750			
0.6862	43914.90	3.6280	3.6279	0.9668	25.18	-0.06	0.750			
0.6890	44094.14	3.6250	3.6250	0.9478	25.18	-0.06	0.750			
0.6918	44272.57	3.6220	3.6221	0.9206	25.19	-0.05	0.750			
0.6945	44446.99	3.6190	3.6191	0.8857	25.20	-0.04	0.750			
0.6971	44616.84	3.6160	3.6161	0.8565	25.21	-0.03	0.750			
0.6997	44781.78	3.6130	3.6132	0.8078	25.21	-0.03	0.750			
0.7021	44937.46	3.6100	3.6100	0.7624	25.22	-0.02	0.750			
0.7044	45079.52	3.6070	3.6070	0.6945	25.23	-0.01	0.750			
0.7064	45207.17	3.6040	3.6040	0.6316	25.24	-0.00	0.750			
0.7081	45321.54	3.6010	3.6011	0.5683	25.24	0.00	0.750			
0.7098	45424.88	3.5980	3.5980	0.5022	25.25	0.01	0.750			
0.7112	45514.98	3.5950	3.5950	0.4419	25.25	0.01	0.750			
0.7124	45592.76	3.5920	3.5920	0.3886	25.25	0.01	0.750			
0.7134	45659.43	3.5890	3.5892	0.3318	25.26	0.02	0.750			
0.7143	45717.65	3.5860	3.5863	0.2816	25.26	0.02	0.750			
0.7151	45766.54	3.5830	3.5832	0.2347	25.26	0.02	0.750			
0.7157	45806.97	3.5800	3.5807	0.1911	25.27	0.03	0.750			
0.7162	45839.77	3.5770	3.5779	0.1481	25.27	0.03	0.750			
0.7166	45863.75	3.5740	3.5751	0.1002	25.27	0.03	0.750			
