Ah_balance (normalized)	Ah_balance (mAh)	Voltage - fit (V)	Voltage -  interpolate (V)	dQ/dV (1/V)	Temperature (°C)	Temperature - diff (°C)	Current (C)	R_DC 0ms (mOhm)	R_DC 50ms (mOhm)	R_DC 50 ms PEC (mOhm)
0.0467	2987.01	4.1980	4.1980	0.7346	25.45	0.61	0.750			
0.0489	3129.84	4.1950	4.1952	0.7502	25.45	0.61	0.750			
0.0512	3275.04	4.1920	4.1919	0.7587	25.45	0.61	0.750			
0.0535	3421.62	4.1890	4.1891	0.7646	25.45	0.61	0.750			
0.0558	3569.13	4.1860	4.1861	0.7715	25.45	0.61	0.750			
0.0581	3717.94	4.1830	4.1830	0.7598	25.45	0.61	0.750			
0.0604	3863.25	4.1800	4.1801	0.7644	25.45	0.61	0.750			
0.0626	4007.97	4.1770	4.1772	0.7633	25.45	0.61	0.750			
0.0649	4154.38	4.1740	4.1740	0.7667	25.45	0.61	0.750			
0.0672	4301.28	4.1710	4.1712	0.7712	25.45	0.61	0.750			
0.0695	4450.88	4.1680	4.1681	0.7711	25.45	0.61	0.750			
0.0719	4601.44	4.1650	4.1651	0.7770	25.45	0.61	0.750			
0.0742	4749.80	4.1620	4.1620	0.7704	25.45	0.61	0.750			
0.0765	4898.77	4.1590	4.1587	0.7758	25.45	0.61	0.750			
0.0789	5048.04	4.1560	4.1560	0.7760	25.45	0.61	0.750			
0.0812	5198.17	4.1530	4.1530	0.7738	25.45	0.61	0.750			
0.0835	5346.95	4.1500	4.1500	0.7762	25.45	0.61	0.750			
0.0859	5497.30	4.1470	4.1470	0.7808	25.45	0.61	0.750			
0.0882	5644.47	4.1440	4.1439	0.7776	25.45	0.61	0.750			
0.0905	5793.27	4.1410	4.1410	0.7826	25.45	0.61	0.750			
0.0929	5944.25	4.1380	4.1381	0.7861	25.45	0.61	0.750			
0.0953	6096.18	4.1350	4.1350	0.7859	25.45	0.61	0.750			
0.0976	6247.61	4.1320	4.1321	0.7915	25.46	0.62	0.750			
0.1000	6398.45	4.1290	4.1291	0.7914	25.46	0.62	0.750			
0.1024	6551.05	4.1260	4.1261	0.7935	25.46	0.62	0.750			
0.1047	6703.70	4.1230	4.1231	0.7951	25.46	0.62	0.750			
0.1071	6856.60	4.1200	4.1201	0.7932	25.46	0.62	0.750			
0.1095	7010.45	4.1170	4.1170	0.7969	25.47	0.63	0.750			
0.1119	7161.38	4.1140	4.1141	0.7934	25.47	0.63	0.750			
0.1143	7314.14	4.1110	4.1106	0.7957	25.47	0.63	0.750			
0.1167	7466.37	4.1080	4.1081	0.7997	25.47	0.63	0.750			
0.1191	7622.86	4.1050	4.1049	0.7927	25.47	0.63	0.750			
0.1215	7773.18	4.1020	4.1021	0.8020	25.47	0.63	0.750			
0.1239	7927.97	4.0990	4.0990	0.8048	25.47	0.63	0.750			
0.1263	8080.99	4.0960	4.0959	0.8064	25.47	0.63	0.750			
0.1287	8236.89	4.0930	4.0930	0.8098	25.47	0.63	0.750			
0.1312	8397.05	4.0900	4.0901	0.7958	25.47	0.63	0.750			
0.1336	8548.17	4.0870	4.0871	0.8026	25.47	0.63	0.750			
0.1359	8699.31	4.0840	4.0842	0.8070	25.47	0.63	0.750			
0.1383	8853.86	4.0810	4.0811	0.8159	25.47	0.63	0.750			
0.1408	9012.08	4.0780	4.0781	0.8215	25.47	0.63	0.750			
0.1433	9172.45	4.0750	4.0751	0.8223	25.47	0.63	0.750			
0.1458	9333.64	4.0720	4.0721	0.8382	25.48	0.64	0.750			
0.1484	9499.41	4.0690	4.0690	0.8385	25.48	0.64	0.750			
0.1508	9653.84	4.0660	4.0659	0.8282	25.48	0.64	0.750			
0.1533	9811.27	4.0630	4.0631	0.8327	25.48	0.64	0.750			
0.1559	9974.78	4.0600	4.0602	0.8292	25.48	0.64	0.750			
0.1583	10133.18	4.0570	4.0573	0.8393	25.48	0.64	0.750			
0.1609	10295.10	4.0540	4.0542	0.8477	25.48	0.64	0.750			
0.1634	10454.67	4.0510	4.0512	0.8483	25.48	0.64	0.750			
0.1659	10620.76	4.0480	4.0482	0.8561	25.48	0.64	0.750			
0.1685	10786.28	4.0450	4.0451	0.8547	25.48	0.64	0.750			
0.1711	10949.48	4.0420	4.0421	0.8508	25.48	0.64	0.750			
0.1737	11113.86	4.0390	4.0391	0.8576	25.48	0.64	0.750			
0.1762	11274.04	4.0360	4.0362	0.8523	25.48	0.64	0.750			
0.1787	11437.65	4.0330	4.0332	0.8589	25.48	0.64	0.750			
0.1813	11603.70	4.0300	4.0301	0.8594	25.48	0.64	0.750			
0.1839	11770.81	4.0270	4.0271	0.8722	25.48	0.64	0.750			
0.1866	11943.91	4.0240	4.0240	0.8895	25.48	0.64	0.750			
0.1892	12106.24	4.0210	4.0205	0.8705	25.48	0.64	0.750			
0.1918	12277.85	4.0180	4.0180	0.8711	25.48	0.64	0.750			
0.1944	12443.79	4.0150	4.0151	0.8781	25.48	0.64	0.750			
0.1971	12612.03	4.0120	4.0121	0.8810	25.49	0.65	0.750			
0.1997	12783.24	4.0090	4.0090	0.8860	25.49	0.65	0.750			
0.2023	12949.88	4.0060	4.0058	0.8819	25.49	0.65	0.750			
0.2051	13123.36	4.0030	4.0031	0.8796	25.50	0.66	0.750			
0.2077	13290.59	4.0000	4.0000	0.8865	25.50	0.66	0.750			
0.2103	13460.87	3.9970	3.9971	0.8931	25.50	0.66	0.750			
0.2130	13630.52	3.9940	3.9941	0.8931	25.51	0.67	0.750			
0.2157	13803.83	3.9910	3.9912	0.9007	25.51	0.67	0.750			
0.2184	13977.91	3.9880	3.9881	0.9057	25.51	0.67	0.750			
0.2211	14152.86	3.9850	3.9851	0.9095	25.51	0.67	0.750			
0.2239	14328.56	3.9820	3.9821	0.9144	25.51	0.67	0.750			
0.2266	14502.61	3.9790	3.9786	0.9074	25.51	0.67	0.750			
0.2294	14678.81	3.9760	3.9761	0.9064	25.51	0.67	0.750			
0.2321	14853.18	3.9730	3.9730	0.9066	25.51	0.67	0.750			
0.2348	15027.61	3.9700	3.9701	0.9125	25.51	0.67	0.750			
0.2375	15202.01	3.9670	3.9670	0.9140	25.51	0.67	0.750			
0.2402	15375.55	3.9640	3.9641	0.9174	25.51	0.67	0.750			
0.2430	15553.86	3.9610	3.9610	0.9111	25.52	0.68	0.750			
0.2458	15728.29	3.9580	3.9580	0.9217	25.52	0.68	0.750			
0.2485	15905.64	3.9550	3.9551	0.9248	25.52	0.68	0.750			
0.2513	16083.29	3.9520	3.9518	0.9263	25.53	0.69	0.750			
0.2541	16264.22	3.9490	3.9490	0.9184	25.53	0.69	0.750			
0.2569	16440.03	3.9460	3.9461	0.9229	25.53	0.69	0.750			
0.2596	16616.41	3.9430	3.9430	0.9278	25.53	0.69	0.750			
0.2624	16796.22	3.9400	3.9401	0.9365	25.53	0.69	0.750			
0.2652	16971.20	3.9370	3.9368	0.9319	25.53	0.69	0.750			
0.2680	17151.68	3.9340	3.9340	0.9401	25.53	0.69	0.750			
0.2708	17333.36	3.9310	3.9311	0.9476	25.53	0.69	0.750			
0.2737	17517.72	3.9280	3.9280	0.9532	25.53	0.69	0.750			
0.2766	17702.15	3.9250	3.9248	0.9463	25.53	0.69	0.750			
0.2795	17890.71	3.9220	3.9220	0.9301	25.53	0.69	0.750			
0.2823	18065.32	3.9190	3.9190	0.9339	25.53	0.69	0.750			
0.2850	18239.34	3.9160	3.9162	0.9394	25.54	0.70	0.750			
0.2878	18419.46	3.9130	3.9131	0.9473	25.54	0.70	0.750			
0.2907	18602.11	3.9100	3.9102	0.9473	25.54	0.70	0.750			
0.2935	18784.67	3.9070	3.9072	0.9591	25.54	0.70	0.750			
0.2964	18972.70	3.9040	3.9041	0.9752	25.54	0.70	0.750			
0.2994	19162.08	3.9010	3.9011	0.9801	25.54	0.70	0.750			
0.3023	19348.79	3.8980	3.8978	0.9692	25.54	0.70	0.750			
0.3052	19535.72	3.8950	3.8951	0.9672	25.54	0.70	0.750			
0.3082	19722.56	3.8920	3.8921	0.9720	25.53	0.69	0.750			
0.3111	19907.70	3.8890	3.8891	0.9816	25.53	0.69	0.750			
0.3140	20096.07	3.8860	3.8857	0.9818	25.53	0.69	0.750			
0.3170	20290.66	3.8830	3.8830	0.9641	25.53	0.69	0.750			
0.3199	20473.23	3.8800	3.8801	0.9757	25.53	0.69	0.750			
0.3228	20660.76	3.8770	3.8772	0.9851	25.53	0.69	0.750			
0.3258	20850.21	3.8740	3.8741	0.9879	25.53	0.69	0.750			
0.3287	21035.78	3.8710	3.8713	0.9889	25.53	0.69	0.750			
0.3316	21224.84	3.8680	3.8681	0.9849	25.52	0.68	0.750			
0.3346	21415.59	3.8650	3.8652	1.0002	25.52	0.68	0.750			
0.3377	21610.00	3.8620	3.8621	1.0085	25.51	0.67	0.750			
0.3407	21803.72	3.8590	3.8592	0.9972	25.51	0.67	0.750			
0.3437	21996.28	3.8560	3.8561	1.0104	25.50	0.66	0.750			
0.3467	22191.89	3.8530	3.8531	1.0187	25.49	0.65	0.750			
0.3498	22388.04	3.8500	3.8501	1.0286	25.49	0.65	0.750			
0.3529	22584.16	3.8470	3.8470	1.0273	25.48	0.64	0.750			
0.3560	22781.66	3.8440	3.8440	1.0200	25.47	0.63	0.750			
0.3590	22978.06	3.8410	3.8411	1.0255	25.46	0.62	0.750			
0.3621	23173.10	3.8380	3.8382	1.0446	25.46	0.62	0.750			
0.3652	23374.29	3.8350	3.8345	1.0489	25.45	0.61	0.750			
0.3684	23577.28	3.8320	3.8321	1.0617	25.44	0.60	0.750			
0.3716	23783.24	3.8290	3.8292	1.0730	25.43	0.59	0.750	0.266	0.402	
0.3750	23996.90	3.8260	3.8261	1.0857	25.42	0.58	0.750			
0.3782	24204.85	3.8230	3.8230	1.0628	25.42	0.58	0.750			
0.3814	24409.58	3.8200	3.8201	1.0669	25.41	0.57	0.750			
0.3846	24611.54	3.8170	3.8171	1.0677	25.40	0.56	0.750			
0.3878	24816.92	3.8140	3.8140	1.0760	25.39	0.55	0.750			
0.3910	25025.47	3.8110	3.8110	1.0646	25.38	0.54	0.750			
0.3942	25227.36	3.8080	3.8080	1.0760	25.37	0.53	0.750			
0.3975	25440.45	3.8050	3.8051	1.0562	25.36	0.52	0.750			
0.4006	25639.33	3.8020	3.8021	1.1185	25.35	0.51	0.750			
0.4039	25852.57	3.7990	3.7991	1.1492	25.34	0.50	0.750			
0.4075	26078.21	3.7960	3.7948	1.1842	25.33	0.49	0.750			
0.4112	26315.05	3.7930	3.7936	1.1986	25.31	0.47	0.750			
0.4150	26557.07	3.7900	3.7900	1.2120	25.30	0.46	0.750			
0.4185	26785.59	3.7870	3.7871	1.2051	25.29	0.45	0.750			
0.4220	27009.26	3.7840	3.7841	1.1737	25.28	0.44	0.750			
0.4256	27238.79	3.7810	3.7809	1.1904	25.26	0.42	0.750			
0.4292	27467.34	3.7780	3.7781	1.2017	25.25	0.41	0.750			
0.4328	27700.10	3.7750	3.7751	1.2266	25.24	0.40	0.750			
0.4365	27937.85	3.7720	3.7721	1.2504	25.22	0.38	0.750			
0.4403	28180.26	3.7690	3.7690	1.2573	25.21	0.37	0.750			
0.4441	28420.54	3.7660	3.7661	1.2911	25.20	0.36	0.750			
0.4480	28669.86	3.7630	3.7631	1.3207	25.19	0.35	0.750			
0.4520	28926.04	3.7600	3.7596	1.3496	25.18	0.34	0.750			
0.4560	29187.09	3.7570	3.7571	1.3808	25.16	0.32	0.750			
0.4603	29457.92	3.7540	3.7541	1.4074	25.15	0.31	0.750			
0.4646	29732.14	3.7510	3.7508	1.4435	25.13	0.29	0.750			
0.4689	30008.09	3.7480	3.7482	1.4714	25.12	0.28	0.750			
0.4733	30293.56	3.7450	3.7451	1.5090	25.10	0.26	0.750			
0.4779	30587.21	3.7420	3.7418	1.5504	25.09	0.25	0.750			
0.4826	30886.25	3.7390	3.7390	1.5862	25.07	0.23	0.750			
0.4875	31197.49	3.7360	3.7362	1.6288	25.05	0.21	0.750			
0.4924	31515.29	3.7330	3.7327	1.6859	25.03	0.19	0.750			
0.4975	31839.53	3.7300	3.7301	1.7273	25.02	0.18	0.750			
0.5028	32181.51	3.7270	3.7271	1.7709	25.01	0.17	0.750			
0.5083	32528.15	3.7240	3.7243	1.8325	24.98	0.14	0.750			
0.5139	32886.82	3.7210	3.7209	1.8682	24.96	0.12	0.750			
0.5195	33249.81	3.7180	3.7179	1.9319	24.94	0.10	0.750			
0.5254	33627.46	3.7150	3.7152	1.9622	24.92	0.08	0.750			
0.5314	34011.76	3.7120	3.7120	2.0293	24.90	0.06	0.750			
0.5375	34397.26	3.7090	3.7091	2.0946	24.88	0.04	0.750			
0.5438	34804.35	3.7060	3.7058	2.1355	24.87	0.03	0.750			
0.5506	35237.87	3.7030	3.7029	2.2054	24.84	0.00	0.750			
0.5571	35652.45	3.7000	3.7003	2.2832	24.83	-0.01	0.750			
0.5641	36105.28	3.6970	3.6972	2.3015	24.81	-0.03	0.750			
0.5711	36550.85	3.6940	3.6937	2.3662	24.79	-0.05	0.750			
0.5782	37003.39	3.6910	3.6912	2.5027	24.78	-0.06	0.750			
0.5858	37491.65	3.6880	3.6882	2.5550	24.76	-0.08	0.750			
0.5938	38006.38	3.6850	3.6853	2.6905	24.74	-0.10	0.750			
0.6020	38527.09	3.6820	3.6822	2.7111	24.73	-0.11	0.750			
0.6101	39045.95	3.6790	3.6790	2.7143	24.72	-0.12	0.750			
0.6187	39594.04	3.6760	3.6759	2.7828	24.71	-0.13	0.750			
0.6271	40136.62	3.6730	3.6730	2.7983	24.70	-0.14	0.750			
0.6356	40677.52	3.6700	3.6697	2.8311	24.70	-0.14	0.750			
0.6440	41215.20	3.6670	3.6669	2.8367	24.70	-0.14	0.750			
0.6523	41746.43	3.6640	3.6641	2.7622	24.70	-0.14	0.750			
0.6609	42294.75	3.6610	3.6612	2.6187	24.70	-0.14	0.750			
0.6685	42784.31	3.6580	3.6579	2.3919	24.71	-0.13	0.750			
0.6753	43222.32	3.6550	3.6549	2.1861	24.72	-0.12	0.750			
0.6814	43612.01	3.6520	3.6523	1.9660	24.73	-0.11	0.750			
0.6871	43974.31	3.6490	3.6491	1.7673	24.74	-0.10	0.750			
0.6920	44288.17	3.6460	3.6464	1.5842	24.74	-0.10	0.750			
0.6966	44580.61	3.6430	3.6431	1.4341	24.75	-0.09	0.750			
0.7006	44836.98	3.6400	3.6398	1.2822	24.75	-0.09	0.750			
0.7040	45058.94	3.6370	3.6370	1.1391	24.76	-0.08	0.750			
0.7071	45255.98	3.6340	3.6341	1.0362	24.76	-0.08	0.750			
0.7100	45439.32	3.6310	3.6311	0.9784	24.77	-0.07	0.750			
0.7128	45618.21	3.6280	3.6281	0.9333	24.78	-0.06	0.750			
0.7154	45787.14	3.6250	3.6251	0.8976	24.78	-0.06	0.750			
0.7181	45957.93	3.6220	3.6221	0.8781	24.79	-0.05	0.750			
0.7207	46127.37	3.6190	3.6190	0.8598	24.79	-0.05	0.750			
0.7233	46294.00	3.6160	3.6160	0.8301	24.79	-0.05	0.750			
0.7259	46455.11	3.6130	3.6129	0.7740	24.80	-0.04	0.750			
0.7281	46599.61	3.6100	3.6101	0.7260	24.80	-0.04	0.750			
0.7302	46735.73	3.6070	3.6072	0.6705	24.81	-0.03	0.750			
0.7322	46858.30	3.6040	3.6040	0.6062	24.82	-0.02	0.750			
0.7339	46970.75	3.6010	3.6010	0.5342	24.82	-0.02	0.750			
0.7354	47064.94	3.5980	3.5982	0.4693	24.83	-0.01	0.750			
0.7367	47149.30	3.5950	3.5951	0.4104	24.83	-0.01	0.750			
0.7378	47220.61	3.5920	3.5918	0.3527	24.84	-0.00	0.750			
0.7387	47278.31	3.5890	3.5893	0.2843	24.84	-0.00	0.750			
0.7395	47326.93	3.5860	3.5858	0.2324	24.84	0.00	0.750			
0.7401	47367.33	3.5830	3.5838	0.1834	24.84	0.00	0.750			
0.7406	47400.65	3.5800	3.5807	0.1223	24.84	0.00	0.750			
0.7409	47417.86	3.5770	3.5785	0.0869	24.84	0.00	0.751			
