Ah_balance (normalized)	Ah_balance (mAh)	Voltage - fit (V)	Voltage -  interpolate (V)	dQ/dV (1/V)	Temperature (°C)	Temperature - diff (°C)	Current (C)	R_DC 0ms (mOhm)	R_DC 50ms (mOhm)	R_DC 50 ms PEC (mOhm)
0.0002	14.30	4.1630	4.1630	-0.1143	25.10	0.02	-0.750			
0.0006	40.81	4.1600	4.1601	-0.1623	25.10	0.02	-0.750			
0.0012	78.36	4.1570	4.1571	-0.2100	25.10	0.02	-0.750			
0.0019	122.40	4.1540	4.1535	-0.2535	25.10	0.02	-0.750			
0.0027	175.24	4.1510	4.1511	-0.2977	25.10	0.02	-0.750			
0.0037	236.99	4.1480	4.1481	-0.3402	25.09	0.01	-0.750			
0.0048	306.85	4.1450	4.1449	-0.3868	25.09	0.01	-0.750			
0.0060	387.20	4.1420	4.1420	-0.4244	25.09	0.01	-0.750			
0.0074	474.10	4.1390	4.1389	-0.4566	25.08	0.00	-0.750			
0.0088	566.13	4.1360	4.1362	-0.4842	25.08	0.00	-0.750			
0.0103	662.07	4.1330	4.1329	-0.5118	25.08	-0.00	-0.750			
0.0119	761.80	4.1300	4.1298	-0.5369	25.07	-0.01	-0.750			
0.0135	866.54	4.1270	4.1270	-0.5606	25.07	-0.01	-0.750			
0.0152	973.08	4.1240	4.1241	-0.5886	25.07	-0.01	-0.750			
0.0171	1094.07	4.1210	4.1209	-0.6160	25.06	-0.02	-0.750			
0.0190	1215.95	4.1180	4.1179	-0.6297	25.06	-0.02	-0.750			
0.0209	1340.38	4.1150	4.1152	-0.6434	25.05	-0.03	-0.750			
0.0229	1464.65	4.1120	4.1117	-0.6508	25.05	-0.03	-0.750			
0.0249	1590.46	4.1090	4.1090	-0.6601	25.05	-0.03	-0.750			
0.0268	1717.01	4.1060	4.1060	-0.6717	25.04	-0.04	-0.750			
0.0288	1845.52	4.1030	4.1030	-0.6712	25.04	-0.04	-0.750			
0.0309	1977.35	4.1000	4.0999	-0.6861	25.04	-0.04	-0.750			
0.0330	2110.31	4.0970	4.0970	-0.6920	25.03	-0.05	-0.750			
0.0351	2243.38	4.0940	4.0940	-0.7009	25.03	-0.05	-0.750			
0.0372	2378.82	4.0910	4.0910	-0.7056	25.03	-0.05	-0.750			
0.0393	2514.15	4.0880	4.0880	-0.7182	25.03	-0.05	-0.750			
0.0415	2653.67	4.0850	4.0849	-0.7274	25.02	-0.06	-0.750			
0.0437	2798.35	4.0820	4.0819	-0.7324	25.02	-0.06	-0.750			
0.0459	2939.09	4.0790	4.0789	-0.7317	25.02	-0.06	-0.750			
0.0481	3079.25	4.0760	4.0759	-0.7358	25.02	-0.06	-0.750			
0.0503	3218.88	4.0730	4.0729	-0.7329	25.02	-0.06	-0.750			
0.0525	3360.59	4.0700	4.0699	-0.7475	25.02	-0.06	-0.750			
0.0548	3505.81	4.0670	4.0670	-0.7330	25.02	-0.06	-0.750			
0.0571	3651.72	4.0640	4.0638	-0.7407	25.02	-0.06	-0.750			
0.0593	3793.31	4.0610	4.0619	-0.7448	25.02	-0.06	-0.750			
0.0615	3933.82	4.0580	4.0577	-0.7410	25.02	-0.06	-0.750			
0.0636	4073.00	4.0550	4.0548	-0.7437	25.02	-0.06	-0.750			
0.0659	4215.19	4.0520	4.0522	-0.7406	25.02	-0.06	-0.750			
0.0682	4363.23	4.0490	4.0490	-0.7602	25.02	-0.06	-0.750			
0.0705	4509.98	4.0460	4.0459	-0.7591	25.02	-0.06	-0.750			
0.0727	4653.88	4.0430	4.0430	-0.7542	25.02	-0.06	-0.750			
0.0750	4797.38	4.0400	4.0400	-0.7564	25.02	-0.06	-0.750			
0.0772	4942.85	4.0370	4.0370	-0.7645	25.02	-0.06	-0.750			
0.0795	5090.21	4.0340	4.0339	-0.7657	25.03	-0.05	-0.750			
0.0819	5240.55	4.0310	4.0309	-0.7688	25.03	-0.05	-0.750			
0.0842	5387.58	4.0280	4.0279	-0.7714	25.03	-0.05	-0.750			
0.0865	5536.16	4.0250	4.0248	-0.7757	25.03	-0.05	-0.750			
0.0888	5684.59	4.0220	4.0221	-0.7839	25.03	-0.05	-0.750			
0.0912	5837.08	4.0190	4.0189	-0.7835	25.04	-0.04	-0.750			
0.0936	5991.65	4.0160	4.0158	-0.7824	25.04	-0.04	-0.750			
0.0959	6140.55	4.0130	4.0128	-0.7799	25.04	-0.04	-0.750			
0.0983	6289.02	4.0100	4.0099	-0.7799	25.04	-0.04	-0.750			
0.1006	6435.50	4.0070	4.0067	-0.7744	25.04	-0.04	-0.750			
0.1028	6582.24	4.0040	4.0040	-0.7760	25.04	-0.04	-0.750			
0.1053	6736.11	4.0010	4.0009	-0.7904	25.04	-0.04	-0.750			
0.1076	6888.79	3.9980	3.9980	-0.7920	25.04	-0.04	-0.750			
0.1100	7040.65	3.9950	3.9951	-0.7903	25.04	-0.04	-0.750			
0.1123	7188.83	3.9920	3.9920	-0.7860	25.04	-0.04	-0.750			
0.1147	7340.83	3.9890	3.9889	-0.8058	25.04	-0.04	-0.750			
0.1171	7497.07	3.9860	3.9859	-0.7965	25.05	-0.03	-0.750			
0.1196	7654.07	3.9830	3.9829	-0.8060	25.05	-0.03	-0.750			
0.1220	7810.24	3.9800	3.9806	-0.8096	25.05	-0.03	-0.750			
0.1245	7965.25	3.9770	3.9768	-0.8015	25.05	-0.03	-0.750			
0.1268	8116.79	3.9740	3.9739	-0.8024	25.05	-0.03	-0.750			
0.1292	8268.10	3.9710	3.9711	-0.7956	25.06	-0.02	-0.750			
0.1316	8423.31	3.9680	3.9679	-0.8079	25.06	-0.02	-0.750			
0.1340	8578.81	3.9650	3.9648	-0.8096	25.06	-0.02	-0.750			
0.1364	8732.58	3.9620	3.9619	-0.8092	25.06	-0.02	-0.750			
0.1389	8888.29	3.9590	3.9590	-0.8193	25.06	-0.02	-0.750			
0.1414	9047.36	3.9560	3.9560	-0.8205	25.07	-0.01	-0.750			
0.1439	9207.15	3.9530	3.9529	-0.8287	25.07	-0.01	-0.750			
0.1464	9366.65	3.9500	3.9502	-0.8235	25.07	-0.01	-0.750			
0.1488	9524.25	3.9470	3.9469	-0.8188	25.07	-0.01	-0.750			
0.1513	9680.59	3.9440	3.9440	-0.8277	25.07	-0.01	-0.750			
0.1537	9839.50	3.9410	3.9410	-0.8192	25.07	-0.01	-0.750			
0.1562	9995.89	3.9380	3.9379	-0.8182	25.07	-0.01	-0.750			
0.1587	10156.03	3.9350	3.9352	-0.8266	25.07	-0.01	-0.750			
0.1611	10313.25	3.9320	3.9319	-0.8247	25.07	-0.01	-0.750			
0.1636	10471.52	3.9290	3.9289	-0.8346	25.07	-0.01	-0.750			
0.1661	10632.22	3.9260	3.9260	-0.8344	25.08	-0.00	-0.750			
0.1686	10790.84	3.9230	3.9229	-0.8314	25.08	-0.00	-0.750			
0.1712	10958.48	3.9200	3.9205	-0.8443	25.08	-0.00	-0.750			
0.1737	11118.14	3.9170	3.9169	-0.8400	25.08	0.00	-0.750			
0.1762	11277.94	3.9140	3.9139	-0.8439	25.08	0.00	-0.750			
0.1788	11440.98	3.9110	3.9109	-0.8438	25.09	0.01	-0.750			
0.1812	11599.78	3.9080	3.9079	-0.8373	25.09	0.01	-0.750			
0.1838	11765.59	3.9050	3.9053	-0.8458	25.09	0.01	-0.750			
0.1864	11929.38	3.9020	3.9019	-0.8447	25.09	0.01	-0.750			
0.1889	12091.04	3.8990	3.8988	-0.8507	25.09	0.01	-0.750			
0.1914	12252.79	3.8960	3.8960	-0.8473	25.10	0.02	-0.750			
0.1940	12416.27	3.8930	3.8930	-0.8485	25.10	0.02	-0.750			
0.1966	12583.98	3.8900	3.8904	-0.8527	25.10	0.02	-0.750			
0.1992	12746.44	3.8870	3.8870	-0.8519	25.10	0.02	-0.750			
0.2017	12911.16	3.8840	3.8839	-0.8623	25.10	0.02	-0.750			
0.2043	13077.23	3.8810	3.8809	-0.8586	25.10	0.02	-0.750			
0.2069	13244.48	3.8780	3.8777	-0.8640	25.10	0.02	-0.750			
0.2095	13408.27	3.8750	3.8758	-0.8587	25.10	0.02	-0.750			
0.2121	13573.78	3.8720	3.8719	-0.8591	25.10	0.02	-0.750			
0.2147	13738.14	3.8690	3.8688	-0.8550	25.11	0.03	-0.750			
0.2171	13896.34	3.8660	3.8661	-0.8383	25.11	0.03	-0.750			
0.2198	14064.74	3.8630	3.8631	-0.8600	25.12	0.04	-0.750			
0.2223	14230.35	3.8600	3.8601	-0.8603	25.12	0.04	-0.750			
0.2249	14391.03	3.8570	3.8570	-0.8766	25.12	0.04	-0.750			
0.2275	14560.62	3.8540	3.8539	-0.8630	25.12	0.04	-0.750			
0.2301	14726.29	3.8510	3.8509	-0.8661	25.12	0.04	-0.750			
0.2328	14897.11	3.8480	3.8478	-0.8668	25.12	0.04	-0.750			
0.2353	15062.36	3.8450	3.8448	-0.8532	25.12	0.04	-0.750			
0.2379	15224.53	3.8420	3.8420	-0.8611	25.13	0.05	-0.750			
0.2405	15391.99	3.8390	3.8389	-0.8503	25.13	0.05	-0.750			
0.2430	15554.36	3.8360	3.8357	-0.8542	25.13	0.05	-0.750			
0.2456	15717.63	3.8330	3.8329	-0.8425	25.14	0.06	-0.750			
0.2481	15876.50	3.8300	3.8298	-0.8382	25.14	0.06	-0.750			
0.2506	16037.47	3.8270	3.8269	-0.8362	25.14	0.06	-0.750			
0.2530	16194.32	3.8240	3.8240	-0.8288	25.14	0.06	-0.750			
0.2554	16348.24	3.8210	3.8212	-0.8240	25.14	0.06	-0.750			
0.2581	16515.53	3.8180	3.8180	-0.8429	25.14	0.06	-0.750			
0.2606	16675.90	3.8150	3.8149	-0.8341	25.14	0.06	-0.750			
0.2631	16837.14	3.8120	3.8120	-0.8378	25.14	0.06	-0.750			
0.2656	16998.69	3.8090	3.8089	-0.8297	25.14	0.06	-0.750			
0.2681	17161.47	3.8060	3.8060	-0.8230	25.15	0.07	-0.750			
0.2706	17318.37	3.8030	3.8027	-0.8124	25.15	0.07	-0.750			
0.2730	17470.83	3.8000	3.7999	-0.8057	25.15	0.07	-0.750			
0.2753	17622.14	3.7970	3.7970	-0.8086	25.15	0.07	-0.750			
0.2777	17775.23	3.7940	3.7937	-0.8014	25.15	0.07	-0.750			
0.2802	17930.99	3.7910	3.7910	-0.8119	25.16	0.08	-0.750			
0.2826	18087.94	3.7880	3.7879	-0.8076	25.16	0.08	-0.750			
0.2850	18243.06	3.7850	3.7848	-0.8005	25.16	0.08	-0.750			
0.2874	18394.98	3.7820	3.7820	-0.7948	25.16	0.08	-0.750			
0.2898	18545.12	3.7790	3.7791	-0.7918	25.16	0.08	-0.750			
0.2921	18695.06	3.7760	3.7760	-0.7889	25.17	0.09	-0.750			
0.2945	18850.58	3.7730	3.7728	-0.7971	25.17	0.09	-0.750			
0.2969	19003.23	3.7700	3.7701	-0.7918	25.17	0.09	-0.750			
0.2993	19156.24	3.7670	3.7670	-0.7885	25.17	0.09	-0.750			
0.3017	19308.70	3.7640	3.7640	-0.7999	25.17	0.09	-0.750			
0.3041	19461.97	3.7610	3.7609	-0.7986	25.18	0.10	-0.750			
0.3065	19614.38	3.7580	3.7578	-0.7961	25.18	0.10	-0.750			
0.3089	19767.02	3.7550	3.7554	-0.8000	25.18	0.10	-0.750			
0.3113	19921.94	3.7520	3.7519	-0.8042	25.18	0.10	-0.750			
0.3137	20076.43	3.7490	3.7490	-0.8273	25.18	0.10	-0.750			
0.3162	20236.67	3.7460	3.7458	-0.8247	25.18	0.10	-0.750			
0.3187	20398.86	3.7430	3.7428	-0.8421	25.18	0.10	-0.750			
0.3212	20559.38	3.7400	3.7407	-0.8479	25.18	0.10	-0.750			
0.3238	20723.53	3.7370	3.7367	-0.8544	25.18	0.10	-0.750			
0.3263	20886.08	3.7340	3.7339	-0.8645	25.18	0.10	-0.750			
0.3289	21048.65	3.7310	3.7310	-0.8661	25.18	0.10	-0.750			
0.3316	21221.32	3.7280	3.7280	-0.8932	25.18	0.10	-0.750			
0.3343	21392.87	3.7250	3.7253	-0.9065	25.18	0.10	-0.750			
0.3370	21566.12	3.7220	3.7219	-0.9240	25.18	0.10	-0.750			
0.3398	21746.85	3.7190	3.7190	-0.9353	25.18	0.10	-0.750			
0.3426	21928.41	3.7160	3.7159	-0.9463	25.17	0.09	-0.750			
0.3455	22112.27	3.7130	3.7130	-0.9657	25.17	0.09	-0.750			
0.3484	22299.14	3.7100	3.7099	-0.9875	25.17	0.09	-0.750			
0.3514	22490.24	3.7070	3.7068	-0.9983	25.16	0.08	-0.750			
0.3543	22678.32	3.7040	3.7039	-1.0144	25.15	0.07	-0.750			
0.3574	22872.58	3.7010	3.7009	-1.0360	25.14	0.06	-0.750			
0.3606	23078.93	3.6980	3.6985	-1.0791	25.14	0.06	-0.750	0.418	0.530	
0.3639	23289.11	3.6950	3.6947	-1.0966	25.13	0.05	-0.750			
0.3672	23499.61	3.6920	3.6922	-1.1149	25.13	0.05	-0.750			
0.3706	23721.12	3.6890	3.6890	-1.1491	25.12	0.04	-0.750			
0.3742	23947.11	3.6860	3.6859	-1.1647	25.11	0.03	-0.750			
0.3777	24169.94	3.6830	3.6829	-1.1664	25.10	0.02	-0.750			
0.3811	24391.70	3.6800	3.6800	-1.1743	25.09	0.01	-0.750			
0.3846	24615.95	3.6770	3.6774	-1.2040	25.08	-0.00	-0.750			
0.3883	24853.59	3.6740	3.6738	-1.2242	25.07	-0.01	-0.750			
0.3920	25089.02	3.6710	3.6708	-1.2309	25.07	-0.01	-0.750			
0.3957	25325.36	3.6680	3.6679	-1.2570	25.06	-0.02	-0.750			
0.3996	25573.15	3.6650	3.6649	-1.2799	25.06	-0.02	-0.750			
0.4034	25817.72	3.6620	3.6619	-1.2813	25.05	-0.03	-0.750			
0.4071	26056.26	3.6590	3.6590	-1.3132	25.04	-0.04	-0.750			
0.4112	26314.17	3.6560	3.6560	-1.3472	25.04	-0.04	-0.750			
0.4153	26577.16	3.6530	3.6529	-1.3725	25.03	-0.05	-0.750			
0.4194	26842.95	3.6500	3.6498	-1.4069	25.02	-0.06	-0.750			
0.4237	27119.40	3.6470	3.6469	-1.4336	25.01	-0.07	-0.750			
0.4281	27396.69	3.6440	3.6438	-1.4488	25.00	-0.08	-0.750			
0.4325	27678.19	3.6410	3.6406	-1.4691	24.99	-0.09	-0.750			
0.4368	27955.39	3.6380	3.6379	-1.4861	24.98	-0.10	-0.750			
0.4413	28245.45	3.6350	3.6349	-1.5456	24.97	-0.11	-0.750			
0.4460	28541.68	3.6320	3.6320	-1.5749	24.96	-0.12	-0.750			
0.4507	28846.61	3.6290	3.6291	-1.5884	24.96	-0.12	-0.750			
0.4558	29168.19	3.6260	3.6259	-1.6635	24.95	-0.13	-0.750			
0.4608	29493.29	3.6230	3.6227	-1.6849	24.95	-0.13	-0.750			
0.4659	29818.95	3.6200	3.6199	-1.7159	24.93	-0.15	-0.750			
0.4711	30152.48	3.6170	3.6174	-1.7306	24.92	-0.16	-0.750			
0.4765	30495.94	3.6140	3.6140	-1.7553	24.91	-0.17	-0.750			
0.4819	30838.58	3.6110	3.6110	-1.7696	24.90	-0.18	-0.750			
0.4871	31171.21	3.6080	3.6083	-1.8137	24.90	-0.18	-0.750			
0.4926	31524.34	3.6050	3.6052	-1.8414	24.90	-0.18	-0.750			
0.4981	31879.24	3.6020	3.6019	-1.8546	24.90	-0.18	-0.750			
0.5037	32233.96	3.5990	3.5992	-1.8890	24.90	-0.18	-0.750			
0.5095	32609.64	3.5960	3.5965	-1.9254	24.90	-0.18	-0.750			
0.5152	32974.01	3.5930	3.5930	-2.0281	24.89	-0.19	-0.750			
0.5213	33364.69	3.5900	3.5899	-2.0932	24.88	-0.20	-0.750			
0.5277	33773.47	3.5870	3.5865	-2.1960	24.88	-0.20	-0.750			
0.5344	34202.23	3.5840	3.5844	-2.2168	24.88	-0.20	-0.750			
0.5413	34641.60	3.5810	3.5811	-2.2244	24.88	-0.20	-0.750			
0.5478	35060.89	3.5780	3.5781	-2.2539	24.88	-0.20	-0.750			
0.5547	35499.19	3.5750	3.5747	-2.2295	24.87	-0.21	-0.750			
0.5614	35926.97	3.5720	3.5720	-2.2158	24.87	-0.21	-0.750			
0.5681	36358.71	3.5690	3.5686	-2.2247	24.88	-0.20	-0.750			
0.5745	36770.46	3.5660	3.5657	-2.2541	24.88	-0.20	-0.750			
0.5813	37201.68	3.5630	3.5626	-2.2169	24.88	-0.20	-0.750			
0.5880	37633.57	3.5600	3.5598	-2.2448	24.88	-0.20	-0.750			
0.5947	38061.44	3.5570	3.5570	-2.2228	24.88	-0.20	-0.750			
0.6014	38491.10	3.5540	3.5543	-2.2039	24.88	-0.20	-0.750			
0.6080	38909.05	3.5510	3.5511	-2.1818	24.88	-0.20	-0.750			
0.6147	39340.07	3.5480	3.5481	-2.1825	24.89	-0.19	-0.750			
0.6211	39748.19	3.5450	3.5450	-2.1875	24.90	-0.18	-0.750			
0.6279	40184.81	3.5420	3.5424	-2.1595	24.90	-0.18	-0.750			
0.6344	40602.83	3.5390	3.5390	-2.1334	24.91	-0.17	-0.750			
0.6408	41011.87	3.5360	3.5364	-2.0993	24.92	-0.16	-0.750			
0.6470	41406.01	3.5330	3.5332	-1.9759	24.93	-0.15	-0.750			
0.6528	41779.26	3.5300	3.5301	-1.9352	24.94	-0.14	-0.750			
0.6584	42139.42	3.5270	3.5274	-1.8771	24.96	-0.12	-0.750			
0.6641	42502.94	3.5240	3.5242	-1.8481	24.98	-0.10	-0.750			
0.6696	42855.52	3.5210	3.5213	-1.7987	24.99	-0.09	-0.750			
0.6749	43195.79	3.5180	3.5177	-1.7414	25.01	-0.07	-0.750			
0.6802	43530.68	3.5150	3.5147	-1.7197	25.03	-0.05	-0.750			
0.6852	43852.01	3.5120	3.5120	-1.6686	25.04	-0.04	-0.750			
0.6901	44167.69	3.5090	3.5091	-1.5995	25.06	-0.02	-0.750			
0.6948	44464.96	3.5060	3.5062	-1.5422	25.07	-0.01	-0.750			
0.6993	44757.53	3.5030	3.5028	-1.4924	25.09	0.01	-0.750			
0.7038	45042.68	3.5000	3.4998	-1.4613	25.11	0.03	-0.750			
0.7080	45310.95	3.4970	3.4970	-1.4297	25.12	0.04	-0.750			
0.7121	45575.04	3.4940	3.4940	-1.4173	25.14	0.06	-0.750			
0.7163	45845.34	3.4910	3.4910	-1.4316	25.16	0.08	-0.750			
0.7206	46120.65	3.4880	3.4879	-1.4011	25.18	0.10	-0.750			
