Ah_balance (normalized)	Ah_balance (mAh)	Voltage - fit (V)	Voltage -  interpolate (V)	dQ/dV (1/V)	Temperature (°C)	Temperature - diff (°C)	Current (C)	R_DC 0ms (mOhm)	R_DC 50ms (mOhm)	R_DC 50 ms PEC (mOhm)
0.0473	3026.53	4.1980	4.1980	0.9010	25.56	0.64	0.750			
0.0498	3187.22	4.1950	4.1952	0.8077	25.56	0.64	0.750			
0.0522	3337.82	4.1920	4.1920	0.7817	25.56	0.64	0.750			
0.0544	3481.86	4.1890	4.1889	0.7612	25.57	0.65	0.750			
0.0566	3622.51	4.1860	4.1861	0.7492	25.57	0.65	0.750			
0.0588	3765.99	4.1830	4.1827	0.7519	25.57	0.65	0.750			
0.0611	3911.55	4.1800	4.1802	0.7569	25.57	0.65	0.750			
0.0634	4058.33	4.1770	4.1771	0.7575	25.57	0.65	0.750			
0.0657	4204.22	4.1740	4.1741	0.7600	25.57	0.65	0.750			
0.0680	4354.76	4.1710	4.1709	0.7678	25.57	0.65	0.750			
0.0703	4496.42	4.1680	4.1681	0.7557	25.57	0.65	0.750			
0.0725	4641.12	4.1650	4.1650	0.7605	25.57	0.65	0.750			
0.0748	4787.22	4.1620	4.1620	0.7628	25.57	0.65	0.750			
0.0772	4938.38	4.1590	4.1588	0.7472	25.57	0.65	0.750			
0.0793	5077.93	4.1560	4.1561	0.7589	25.58	0.66	0.750			
0.0816	5222.71	4.1530	4.1531	0.7622	25.58	0.66	0.750			
0.0839	5369.04	4.1500	4.1498	0.7667	25.58	0.66	0.750			
0.0862	5516.99	4.1470	4.1472	0.7732	25.58	0.66	0.750			
0.0886	5667.73	4.1440	4.1441	0.7665	25.58	0.66	0.750			
0.0909	5815.49	4.1410	4.1410	0.7728	25.58	0.66	0.750			
0.0932	5962.42	4.1380	4.1382	0.7706	25.58	0.66	0.750			
0.0955	6111.20	4.1350	4.1351	0.7733	25.58	0.66	0.750			
0.0978	6261.02	4.1320	4.1320	0.7771	25.58	0.66	0.750			
0.1002	6411.43	4.1290	4.1291	0.7785	25.58	0.66	0.750			
0.1025	6562.16	4.1260	4.1262	0.7784	25.58	0.66	0.750			
0.1049	6712.17	4.1230	4.1230	0.7797	25.59	0.67	0.750			
0.1072	6858.84	4.1200	4.1200	0.7747	25.59	0.67	0.750			
0.1095	7005.22	4.1170	4.1168	0.7715	25.59	0.67	0.750			
0.1118	7155.99	4.1140	4.1141	0.7818	25.59	0.67	0.750			
0.1142	7307.32	4.1110	4.1110	0.7857	25.59	0.67	0.750			
0.1165	7456.99	4.1080	4.1081	0.7798	25.59	0.67	0.750			
0.1188	7604.56	4.1050	4.1051	0.7786	25.59	0.67	0.750			
0.1211	7753.00	4.1020	4.1021	0.7836	25.59	0.67	0.750			
0.1235	7904.38	4.0990	4.0992	0.7913	25.59	0.67	0.750			
0.1260	8061.36	4.0960	4.0961	0.7843	25.59	0.67	0.750			
0.1283	8210.55	4.0930	4.0931	0.7887	25.59	0.67	0.750			
0.1307	8366.81	4.0900	4.0900	0.8008	25.59	0.67	0.750			
0.1330	8512.22	4.0870	4.0872	0.7899	25.59	0.67	0.750			
0.1354	8663.48	4.0840	4.0839	0.7962	25.59	0.67	0.750			
0.1378	8817.93	4.0810	4.0811	0.8001	25.60	0.68	0.750			
0.1402	8973.54	4.0780	4.0781	0.8093	25.60	0.68	0.750			
0.1427	9131.87	4.0750	4.0750	0.8130	25.60	0.68	0.750			
0.1451	9287.13	4.0720	4.0721	0.8068	25.61	0.69	0.750			
0.1475	9442.34	4.0690	4.0690	0.8098	25.61	0.69	0.750			
0.1500	9598.63	4.0660	4.0661	0.8096	25.62	0.70	0.750			
0.1524	9754.37	4.0630	4.0629	0.8000	25.62	0.70	0.750			
0.1548	9904.33	4.0600	4.0602	0.8093	25.62	0.70	0.750			
0.1572	10058.41	4.0570	4.0571	0.8129	25.63	0.71	0.750			
0.1596	10215.42	4.0540	4.0534	0.8206	25.63	0.71	0.750			
0.1621	10373.48	4.0510	4.0512	0.8284	25.63	0.71	0.750			
0.1646	10534.51	4.0480	4.0482	0.8219	25.63	0.71	0.750			
0.1671	10695.62	4.0450	4.0450	0.8312	25.63	0.71	0.750			
0.1695	10850.89	4.0420	4.0422	0.8238	25.63	0.71	0.750			
0.1720	11009.29	4.0390	4.0384	0.8301	25.63	0.71	0.750			
0.1745	11171.02	4.0360	4.0361	0.8331	25.63	0.71	0.750			
0.1771	11331.43	4.0330	4.0331	0.8398	25.64	0.72	0.750			
0.1796	11495.76	4.0300	4.0301	0.8483	25.64	0.72	0.750			
0.1821	11657.49	4.0270	4.0271	0.8453	25.65	0.73	0.750			
0.1847	11819.79	4.0240	4.0238	0.8494	25.65	0.73	0.750			
0.1873	11984.14	4.0210	4.0210	0.8530	25.65	0.73	0.750			
0.1898	12148.35	4.0180	4.0180	0.8478	25.65	0.73	0.750			
0.1923	12309.39	4.0150	4.0151	0.8513	25.65	0.73	0.750			
0.1949	12471.35	4.0120	4.0121	0.8540	25.65	0.73	0.750			
0.1974	12635.78	4.0090	4.0087	0.8603	25.65	0.73	0.750			
0.2000	12803.17	4.0060	4.0061	0.8563	25.66	0.74	0.750			
0.2026	12968.43	4.0030	4.0032	0.8638	25.66	0.74	0.750			
0.2053	13137.74	4.0000	4.0000	0.8742	25.66	0.74	0.750			
0.2079	13302.74	3.9970	3.9971	0.8648	25.67	0.75	0.750			
0.2105	13469.07	3.9940	3.9940	0.8699	25.67	0.75	0.750			
0.2131	13638.46	3.9910	3.9911	0.8687	25.67	0.75	0.750			
0.2157	13806.43	3.9880	3.9880	0.8761	25.67	0.75	0.750			
0.2184	13975.81	3.9850	3.9851	0.8755	25.67	0.75	0.750			
0.2210	14141.92	3.9820	3.9819	0.8733	25.67	0.75	0.750			
0.2236	14310.02	3.9790	3.9791	0.8757	25.67	0.75	0.750			
0.2263	14480.01	3.9760	3.9760	0.8683	25.67	0.75	0.750			
0.2288	14643.85	3.9730	3.9731	0.8769	25.67	0.75	0.750			
0.2314	14811.85	3.9700	3.9702	0.8799	25.67	0.75	0.750			
0.2341	14981.00	3.9670	3.9665	0.8893	25.67	0.75	0.750			
0.2368	15153.99	3.9640	3.9641	0.8969	25.67	0.75	0.750			
0.2395	15327.38	3.9610	3.9611	0.8835	25.67	0.75	0.750			
0.2422	15498.44	3.9580	3.9581	0.8955	25.67	0.75	0.750			
0.2448	15666.86	3.9550	3.9552	0.8902	25.67	0.75	0.750			
0.2475	15838.70	3.9520	3.9515	0.8913	25.67	0.75	0.750			
0.2502	16010.26	3.9490	3.9491	0.8926	25.67	0.75	0.750			
0.2529	16182.44	3.9460	3.9462	0.8970	25.67	0.75	0.750			
0.2556	16358.93	3.9430	3.9430	0.9053	25.67	0.75	0.750			
0.2583	16529.69	3.9400	3.9399	0.8897	25.67	0.75	0.750			
0.2610	16701.07	3.9370	3.9371	0.8959	25.67	0.75	0.750			
0.2637	16876.34	3.9340	3.9339	0.8807	25.67	0.75	0.750			
0.2663	17043.77	3.9310	3.9311	0.8896	25.67	0.75	0.750			
0.2689	17212.57	3.9280	3.9281	0.8947	25.67	0.75	0.750			
0.2716	17384.04	3.9250	3.9242	0.8967	25.67	0.75	0.750			
0.2744	17559.64	3.9220	3.9222	0.8866	25.67	0.75	0.750			
0.2770	17728.97	3.9190	3.9191	0.8951	25.67	0.75	0.750			
0.2797	17900.44	3.9160	3.9162	0.8994	25.67	0.75	0.750			
0.2825	18077.38	3.9130	3.9131	0.9153	25.67	0.75	0.750			
0.2851	18245.15	3.9100	3.9097	0.9020	25.67	0.75	0.750			
0.2878	18419.66	3.9070	3.9071	0.9063	25.66	0.74	0.750			
0.2906	18597.72	3.9040	3.9041	0.9079	25.66	0.74	0.750			
0.2933	18773.63	3.9010	3.9010	0.9052	25.66	0.74	0.750			
0.2960	18944.63	3.8980	3.8980	0.8979	25.65	0.73	0.750			
0.2987	19116.08	3.8950	3.8949	0.8968	25.65	0.73	0.750			
0.3014	19287.70	3.8920	3.8920	0.8911	25.64	0.72	0.750			
0.3040	19457.71	3.8890	3.8892	0.8936	25.64	0.72	0.750			
0.3067	19629.63	3.8860	3.8861	0.9025	25.63	0.71	0.750			
0.3094	19803.69	3.8830	3.8826	0.9059	25.63	0.71	0.750			
0.3122	19979.81	3.8800	3.8801	0.8936	25.62	0.70	0.750			
0.3148	20148.94	3.8770	3.8772	0.9029	25.61	0.69	0.750			
0.3176	20325.43	3.8740	3.8741	0.9094	25.60	0.68	0.750			
0.3203	20498.74	3.8710	3.8711	0.9024	25.59	0.67	0.750			
0.3230	20669.74	3.8680	3.8678	0.9078	25.59	0.67	0.750			
0.3257	20845.54	3.8650	3.8652	0.9107	25.58	0.66	0.750			
0.3285	21023.62	3.8620	3.8619	0.9219	25.58	0.66	0.750			
0.3313	21204.29	3.8590	3.8589	0.9221	25.57	0.65	0.750			
0.3340	21376.08	3.8560	3.8559	0.9106	25.57	0.65	0.750			
0.3368	21554.04	3.8530	3.8530	0.9090	25.56	0.64	0.750			
0.3395	21729.93	3.8500	3.8499	0.8945	25.55	0.63	0.750			
0.3421	21894.53	3.8470	3.8470	0.9017	25.54	0.62	0.750			
0.3448	22064.91	3.8440	3.8443	0.9246	25.54	0.62	0.750			
0.3475	22241.46	3.8410	3.8412	0.9364	25.53	0.61	0.750			
0.3504	22426.25	3.8380	3.8380	0.9456	25.52	0.60	0.750	0.349	0.442	
0.3533	22609.93	3.8350	3.8353	0.9598	25.51	0.59	0.750			
0.3562	22798.39	3.8320	3.8323	0.9721	25.50	0.58	0.750			
0.3592	22989.53	3.8290	3.8283	0.9774	25.49	0.57	0.750			
0.3620	23170.72	3.8260	3.8261	0.9585	25.48	0.56	0.750			
0.3649	23354.33	3.8230	3.8231	0.9700	25.47	0.55	0.750			
0.3679	23543.86	3.8200	3.8201	0.9840	25.46	0.54	0.750			
0.3708	23731.09	3.8170	3.8169	0.9815	25.45	0.53	0.750			
0.3738	23921.52	3.8140	3.8140	0.9914	25.44	0.52	0.750			
0.3767	24111.86	3.8110	3.8110	0.9888	25.43	0.51	0.750			
0.3797	24299.33	3.8080	3.8082	1.0078	25.42	0.50	0.750			
0.3827	24493.40	3.8050	3.8051	1.0226	25.41	0.49	0.750			
0.3859	24695.04	3.8020	3.8021	1.0094	25.40	0.48	0.750			
0.3889	24888.10	3.7990	3.7992	1.0344	25.39	0.47	0.750			
0.3920	25085.13	3.7960	3.7963	1.0620	25.38	0.46	0.750			
0.3952	25292.52	3.7930	3.7931	1.0868	25.37	0.45	0.750			
0.3984	25499.32	3.7900	3.7901	1.0868	25.36	0.44	0.750			
0.4018	25712.06	3.7870	3.7872	1.1134	25.35	0.43	0.750			
0.4052	25930.73	3.7840	3.7842	1.1448	25.34	0.42	0.750			
0.4087	26155.86	3.7810	3.7808	1.1647	25.32	0.40	0.750			
0.4121	26377.41	3.7780	3.7781	1.1509	25.31	0.39	0.750			
0.4156	26596.08	3.7750	3.7751	1.1775	25.30	0.38	0.750			
0.4191	26823.47	3.7720	3.7722	1.2042	25.29	0.37	0.750			
0.4228	27058.48	3.7690	3.7691	1.2079	25.28	0.36	0.750			
0.4264	27288.31	3.7660	3.7662	1.2426	25.27	0.35	0.750			
0.4301	27528.00	3.7630	3.7633	1.2799	25.26	0.34	0.750			
0.4341	27781.13	3.7600	3.7593	1.3139	25.25	0.33	0.750			
0.4380	28033.06	3.7570	3.7571	1.3324	25.23	0.31	0.750			
0.4421	28294.38	3.7540	3.7542	1.3676	25.22	0.30	0.750			
0.4465	28576.67	3.7510	3.7507	1.3669	25.20	0.28	0.750			
0.4506	28840.80	3.7480	3.7480	1.3470	25.18	0.26	0.750			
0.4546	29092.68	3.7450	3.7453	1.3959	25.17	0.25	0.750			
0.4587	29354.16	3.7420	3.7418	1.4298	25.15	0.23	0.750			
0.4630	29634.21	3.7390	3.7385	1.4732	25.14	0.22	0.750			
0.4674	29910.93	3.7360	3.7354	1.5385	25.13	0.21	0.750			
0.4721	30217.49	3.7330	3.7327	1.5931	25.12	0.20	0.750			
0.4772	30541.49	3.7300	3.7296	1.6552	25.10	0.18	0.750			
0.4822	30859.11	3.7270	3.7268	1.7158	25.08	0.16	0.750			
0.4873	31188.67	3.7240	3.7233	1.7013	25.06	0.14	0.750			
0.4925	31522.15	3.7210	3.7205	1.7372	25.05	0.13	0.750			
0.4978	31860.62	3.7180	3.7182	1.7936	25.04	0.12	0.750			
0.5033	32214.21	3.7150	3.7153	1.8798	25.01	0.09	0.750			
0.5091	32583.92	3.7120	3.7115	1.9596	24.99	0.07	0.750			
0.5152	32969.97	3.7090	3.7088	2.0432	24.97	0.05	0.750			
0.5214	33372.02	3.7060	3.7062	2.0551	24.95	0.03	0.750			
0.5275	33761.24	3.7030	3.7036	2.1766	24.94	0.02	0.750			
0.5341	34182.37	3.7000	3.6996	2.1160	24.92	0.00	0.750			
0.5406	34596.28	3.6970	3.6971	2.2039	24.90	-0.02	0.750			
0.5472	35023.44	3.6940	3.6935	2.1896	24.88	-0.04	0.750			
0.5540	35453.20	3.6910	3.6916	2.3351	24.87	-0.05	0.750			
0.5612	35917.58	3.6880	3.6876	2.5403	24.86	-0.06	0.750			
0.5689	36408.80	3.6850	3.6855	2.5255	24.84	-0.08	0.750			
0.5769	36919.05	3.6820	3.6818	2.5800	24.83	-0.09	0.750			
0.5847	37419.98	3.6790	3.6795	2.6464	24.81	-0.11	0.750			
0.5926	37925.14	3.6760	3.6758	2.6191	24.80	-0.12	0.750			
0.6004	38423.50	3.6730	3.6733	2.4895	24.80	-0.12	0.750			
0.6076	38886.57	3.6700	3.6702	2.3362	24.80	-0.12	0.750			
0.6141	39301.77	3.6670	3.6671	2.1505	24.80	-0.12	0.750			
0.6203	39701.70	3.6640	3.6647	2.0761	24.80	-0.12	0.750			
0.6266	40102.25	3.6610	3.6613	2.0082	24.80	-0.12	0.750			
0.6324	40474.86	3.6580	3.6582	1.8985	24.81	-0.11	0.750			
0.6379	40825.25	3.6550	3.6552	1.7486	24.81	-0.11	0.750			
0.6431	41158.44	3.6520	3.6516	1.6236	24.82	-0.10	0.750			
0.6477	41452.12	3.6490	3.6494	1.4676	24.82	-0.10	0.750			
0.6520	41725.06	3.6460	3.6461	1.3573	24.83	-0.09	0.750			
0.6558	41969.67	3.6430	3.6430	1.2536	24.83	-0.09	0.750			
0.6592	42186.35	3.6400	3.6395	1.1413	24.84	-0.08	0.750			
0.6625	42396.90	3.6370	3.6370	1.0726	24.85	-0.07	0.750			
0.6655	42594.43	3.6340	3.6340	1.0262	24.85	-0.07	0.750			
0.6685	42785.82	3.6310	3.6310	0.9882	24.85	-0.07	0.750			
0.6714	42972.29	3.6280	3.6279	0.9593	24.86	-0.06	0.750			
0.6742	43150.13	3.6250	3.6250	0.9231	24.86	-0.06	0.750			
0.6770	43326.40	3.6220	3.6220	0.8837	24.87	-0.05	0.750			
0.6796	43495.20	3.6190	3.6191	0.8471	24.87	-0.05	0.750			
0.6821	43655.02	3.6160	3.6161	0.8010	24.88	-0.04	0.750			
0.6844	43804.36	3.6130	3.6128	0.7512	24.88	-0.04	0.750			
0.6866	43944.22	3.6100	3.6101	0.6971	24.89	-0.03	0.750			
0.6886	44073.20	3.6070	3.6071	0.6434	24.89	-0.03	0.750			
0.6905	44192.46	3.6040	3.6040	0.5923	24.90	-0.02	0.750			
0.6922	44300.95	3.6010	3.6010	0.5311	24.91	-0.01	0.750			
0.6937	44396.60	3.5980	3.5980	0.4814	24.91	-0.01	0.750			
0.6950	44483.02	3.5950	3.5950	0.4326	24.91	-0.01	0.750			
0.6963	44561.05	3.5920	3.5921	0.3853	24.92	-0.00	0.750			
0.6974	44632.64	3.5890	3.5889	0.3352	24.92	0.00	0.750			
0.6983	44692.75	3.5860	3.5859	0.2865	24.93	0.01	0.750			
0.6991	44743.34	3.5830	3.5832	0.2353	24.93	0.01	0.750			
0.6998	44787.61	3.5800	3.5800	0.1849	24.93	0.01	0.750			
0.7003	44816.31	3.5770	3.5773	0.1243	24.93	0.01	0.750			
0.7006	44836.57	3.5740	3.5746	0.0585	24.93	0.01	0.750			
0.7006	44841.21	3.5710	3.5736	-0.0002	24.93	0.01	0.750			
