Ah_balance (normalized)	Ah_balance (mAh)	Voltage - fit (V)	Voltage -  interpolate (V)	dQ/dV (1/V)	Temperature (°C)	Temperature - diff (°C)	Current (C)	R_DC 0ms (mOhm)	R_DC 50ms (mOhm)	R_DC 50 ms PEC (mOhm)
0.0483	3091.30	4.1980	4.1979	0.7560	25.98	0.47	0.750			
0.0506	3238.08	4.1950	4.1951	0.7643	25.98	0.47	0.750			
0.0529	3386.74	4.1920	4.1920	0.7599	25.98	0.47	0.750			
0.0552	3530.17	4.1890	4.1890	0.7509	25.98	0.47	0.750			
0.0574	3672.29	4.1860	4.1861	0.7458	25.98	0.47	0.750			
0.0596	3814.80	4.1830	4.1831	0.7455	25.98	0.47	0.750			
0.0618	3957.09	4.1800	4.1799	0.7481	25.98	0.47	0.750			
0.0641	4099.89	4.1770	4.1770	0.7534	25.98	0.47	0.750			
0.0663	4245.96	4.1740	4.1740	0.7579	25.98	0.47	0.750			
0.0686	4392.30	4.1710	4.1710	0.7603	25.99	0.48	0.750			
0.0709	4539.08	4.1680	4.1680	0.7602	25.99	0.48	0.750			
0.0732	4685.84	4.1650	4.1650	0.7601	25.99	0.48	0.750			
0.0755	4831.76	4.1620	4.1619	0.7589	25.99	0.48	0.750			
0.0778	4978.14	4.1590	4.1591	0.7530	25.99	0.48	0.750			
0.0800	5121.39	4.1560	4.1560	0.7540	25.99	0.48	0.750			
0.0823	5266.53	4.1530	4.1530	0.7573	25.99	0.48	0.750			
0.0845	5410.87	4.1500	4.1500	0.7595	25.99	0.48	0.750			
0.0868	5555.66	4.1470	4.1470	0.7639	25.99	0.48	0.750			
0.0891	5703.39	4.1440	4.1440	0.7676	25.99	0.48	0.750			
0.0915	5854.81	4.1410	4.1409	0.7591	25.99	0.48	0.750			
0.0937	5999.62	4.1380	4.1381	0.7634	25.99	0.48	0.750			
0.0960	6143.89	4.1350	4.1352	0.7675	25.99	0.48	0.750			
0.0983	6291.01	4.1320	4.1317	0.7701	25.99	0.48	0.750			
0.1006	6438.92	4.1290	4.1291	0.7751	25.99	0.48	0.750			
0.1029	6587.46	4.1260	4.1261	0.7798	26.00	0.49	0.750			
0.1053	6739.85	4.1230	4.1231	0.7819	26.00	0.49	0.750			
0.1077	6894.35	4.1200	4.1199	0.7886	26.00	0.49	0.750			
0.1100	7041.44	4.1170	4.1171	0.7819	26.01	0.50	0.750			
0.1124	7191.55	4.1140	4.1139	0.7821	26.01	0.50	0.750			
0.1148	7344.79	4.1110	4.1109	0.7786	26.01	0.50	0.750			
0.1171	7492.11	4.1080	4.1080	0.7791	26.01	0.50	0.750			
0.1194	7641.28	4.1050	4.1051	0.7788	26.01	0.50	0.750			
0.1217	7790.20	4.1020	4.1021	0.7834	26.01	0.50	0.750			
0.1241	7939.52	4.0990	4.0989	0.7835	26.01	0.50	0.750			
0.1264	8090.78	4.0960	4.0961	0.7878	26.01	0.50	0.750			
0.1289	8247.78	4.0930	4.0929	0.7762	26.01	0.50	0.750			
0.1311	8392.84	4.0900	4.0901	0.7860	26.01	0.50	0.750			
0.1335	8541.79	4.0870	4.0872	0.7856	26.01	0.50	0.750			
0.1358	8691.62	4.0840	4.0837	0.7940	26.01	0.50	0.750			
0.1382	8844.80	4.0810	4.0811	0.7993	26.01	0.50	0.750			
0.1406	8999.65	4.0780	4.0781	0.8052	26.01	0.50	0.750			
0.1431	9156.52	4.0750	4.0751	0.8079	26.01	0.50	0.750			
0.1455	9314.01	4.0720	4.0721	0.8030	26.01	0.50	0.750			
0.1479	9468.07	4.0690	4.0689	0.8055	26.01	0.50	0.750			
0.1503	9622.32	4.0660	4.0660	0.8050	26.01	0.50	0.750			
0.1528	9777.24	4.0630	4.0630	0.8046	26.01	0.50	0.750			
0.1552	9932.30	4.0600	4.0601	0.8078	26.02	0.51	0.750			
0.1576	10088.71	4.0570	4.0570	0.8108	26.02	0.51	0.750			
0.1601	10243.37	4.0540	4.0540	0.8144	26.02	0.51	0.750			
0.1625	10399.74	4.0510	4.0510	0.8176	26.02	0.51	0.750			
0.1650	10556.89	4.0480	4.0480	0.8219	26.02	0.51	0.750			
0.1674	10716.05	4.0450	4.0450	0.8134	26.02	0.51	0.750			
0.1698	10870.34	4.0420	4.0421	0.8207	26.03	0.52	0.750			
0.1723	11026.25	4.0390	4.0392	0.8267	26.03	0.52	0.750			
0.1748	11185.19	4.0360	4.0361	0.8299	26.03	0.52	0.750			
0.1773	11344.71	4.0330	4.0331	0.8379	26.03	0.52	0.750			
0.1798	11508.79	4.0300	4.0301	0.8430	26.03	0.52	0.750			
0.1824	11672.86	4.0270	4.0271	0.8464	26.04	0.53	0.750			
0.1849	11835.38	4.0240	4.0240	0.8406	26.04	0.53	0.750			
0.1874	11996.21	4.0210	4.0209	0.8430	26.04	0.53	0.750			
0.1900	12158.80	4.0180	4.0180	0.8388	26.04	0.53	0.750			
0.1925	12320.22	4.0150	4.0150	0.8420	26.03	0.52	0.750			
0.1950	12480.78	4.0120	4.0121	0.8457	26.03	0.52	0.750			
0.1976	12643.50	4.0090	4.0090	0.8488	26.03	0.52	0.750			
0.2001	12806.69	4.0060	4.0060	0.8504	26.03	0.52	0.750			
0.2027	12972.86	4.0030	4.0029	0.8454	26.04	0.53	0.750			
0.2052	13132.91	4.0000	4.0001	0.8539	26.04	0.53	0.750			
0.2078	13298.38	3.9970	3.9971	0.8620	26.04	0.53	0.750			
0.2104	13462.57	3.9940	3.9940	0.8629	26.05	0.54	0.750			
0.2129	13628.61	3.9910	3.9911	0.8660	26.05	0.54	0.750			
0.2156	13796.97	3.9880	3.9881	0.8679	26.05	0.54	0.750			
0.2182	13964.20	3.9850	3.9851	0.8695	26.05	0.54	0.750			
0.2208	14134.40	3.9820	3.9820	0.8695	26.05	0.54	0.750			
0.2234	14296.14	3.9790	3.9790	0.8603	26.05	0.54	0.750			
0.2260	14461.55	3.9760	3.9760	0.8601	26.05	0.54	0.750			
0.2285	14625.87	3.9730	3.9731	0.8564	26.05	0.54	0.750			
0.2311	14789.43	3.9700	3.9701	0.8599	26.05	0.54	0.750			
0.2337	14954.12	3.9670	3.9671	0.8629	26.05	0.54	0.750			
0.2363	15120.22	3.9640	3.9635	0.8646	26.05	0.54	0.750			
0.2389	15288.78	3.9610	3.9611	0.8647	26.05	0.54	0.750			
0.2415	15454.27	3.9580	3.9581	0.8637	26.04	0.53	0.750			
0.2441	15621.15	3.9550	3.9551	0.8721	26.04	0.53	0.750			
0.2467	15786.73	3.9520	3.9520	0.8641	26.03	0.52	0.750			
0.2493	15952.87	3.9490	3.9490	0.8657	26.03	0.52	0.750			
0.2519	16120.82	3.9460	3.9460	0.8667	26.03	0.52	0.750			
0.2545	16288.91	3.9430	3.9431	0.8707	26.03	0.52	0.750			
0.2571	16455.53	3.9400	3.9400	0.8711	26.03	0.52	0.750			
0.2597	16622.66	3.9370	3.9370	0.8657	26.03	0.52	0.750			
0.2623	16788.35	3.9340	3.9341	0.8628	26.03	0.52	0.750			
0.2650	16957.17	3.9310	3.9310	0.8552	26.02	0.51	0.750			
0.2675	17118.88	3.9280	3.9281	0.8561	26.02	0.51	0.750			
0.2700	17282.06	3.9250	3.9251	0.8582	26.02	0.51	0.750			
0.2726	17445.06	3.9220	3.9220	0.8601	26.01	0.50	0.750			
0.2752	17609.79	3.9190	3.9191	0.8634	26.01	0.50	0.750			
0.2778	17778.24	3.9160	3.9160	0.8634	26.00	0.49	0.750			
0.2804	17944.08	3.9130	3.9130	0.8687	26.00	0.49	0.750			
0.2830	18112.97	3.9100	3.9100	0.8758	26.00	0.49	0.750			
0.2856	18278.28	3.9070	3.9068	0.8684	25.99	0.48	0.750			
0.2882	18445.56	3.9040	3.9041	0.8729	25.99	0.48	0.750			
0.2908	18613.32	3.9010	3.9010	0.8719	25.98	0.47	0.750			
0.2935	18781.98	3.8980	3.8981	0.8744	25.98	0.47	0.750			
0.2961	18951.64	3.8950	3.8950	0.8771	25.97	0.46	0.750			
0.2987	19117.80	3.8920	3.8920	0.8712	25.97	0.46	0.750			
0.3014	19286.92	3.8890	3.8890	0.8643	25.97	0.46	0.750			
0.3039	19450.88	3.8860	3.8860	0.8655	25.96	0.45	0.750			
0.3065	19615.50	3.8830	3.8830	0.8656	25.96	0.45	0.750			
0.3091	19781.22	3.8800	3.8801	0.8681	25.95	0.44	0.750			
0.3117	19947.23	3.8770	3.8768	0.8708	25.95	0.44	0.750			
0.3143	20116.76	3.8740	3.8741	0.8698	25.94	0.43	0.750			
0.3169	20284.21	3.8710	3.8710	0.8763	25.93	0.42	0.750			
0.3196	20453.23	3.8680	3.8681	0.8806	25.92	0.41	0.750			
0.3222	20621.00	3.8650	3.8651	0.8834	25.91	0.40	0.750			
0.3249	20790.85	3.8620	3.8621	0.8885	25.91	0.40	0.750			
0.3275	20963.03	3.8590	3.8590	0.8916	25.90	0.39	0.750			
0.3302	21135.59	3.8560	3.8561	0.8951	25.89	0.38	0.750			
0.3329	21306.79	3.8530	3.8530	0.9032	25.88	0.37	0.750			
0.3356	21479.36	3.8500	3.8500	0.9059	25.87	0.36	0.750			
0.3384	21654.80	3.8470	3.8469	0.9073	25.87	0.36	0.750			
0.3411	21828.57	3.8440	3.8440	0.9148	25.86	0.35	0.750	0.302	0.443	
0.3438	22006.03	3.8410	3.8411	0.9272	25.86	0.35	0.750			
0.3466	22185.18	3.8380	3.8380	0.9359	25.85	0.34	0.750			
0.3495	22365.81	3.8350	3.8350	0.9378	25.85	0.34	0.750			
0.3523	22544.55	3.8320	3.8321	0.9443	25.84	0.33	0.750			
0.3551	22724.51	3.8290	3.8291	0.9413	25.83	0.32	0.750			
0.3579	22904.78	3.8260	3.8260	0.9521	25.82	0.31	0.750			
0.3607	23086.08	3.8230	3.8226	0.9583	25.81	0.30	0.750			
0.3636	23271.14	3.8200	3.8202	0.9708	25.80	0.29	0.750			
0.3666	23460.47	3.8170	3.8171	0.9807	25.79	0.28	0.750			
0.3696	23652.21	3.8140	3.8141	0.9906	25.78	0.27	0.750			
0.3726	23845.32	3.8110	3.8110	1.0132	25.77	0.26	0.750			
0.3755	24034.87	3.8080	3.8080	0.9993	25.76	0.25	0.750			
0.3785	24225.81	3.8050	3.8050	1.0145	25.75	0.24	0.750			
0.3816	24421.53	3.8020	3.8020	1.0326	25.74	0.23	0.750			
0.3847	24621.73	3.7990	3.7991	1.0465	25.73	0.22	0.750			
0.3879	24823.65	3.7960	3.7961	1.0660	25.72	0.21	0.750			
0.3910	25026.20	3.7930	3.7931	1.0703	25.71	0.20	0.750			
0.3943	25232.05	3.7900	3.7901	1.0857	25.70	0.19	0.750			
0.3975	25442.96	3.7870	3.7870	1.1080	25.69	0.18	0.750			
0.4009	25655.24	3.7840	3.7842	1.1216	25.68	0.17	0.750			
0.4043	25872.51	3.7810	3.7812	1.1469	25.67	0.16	0.750			
0.4078	26096.83	3.7780	3.7780	1.1719	25.66	0.15	0.750			
0.4114	26331.09	3.7750	3.7749	1.1974	25.65	0.14	0.750			
0.4149	26552.29	3.7720	3.7720	1.2018	25.64	0.13	0.750			
0.4185	26784.97	3.7690	3.7690	1.2294	25.63	0.12	0.750			
0.4223	27028.53	3.7660	3.7660	1.2336	25.61	0.10	0.750			
0.4260	27263.87	3.7630	3.7631	1.2644	25.60	0.09	0.750			
0.4298	27505.84	3.7600	3.7602	1.2934	25.59	0.08	0.750			
0.4337	27758.27	3.7570	3.7571	1.3221	25.58	0.07	0.750			
0.4377	28012.34	3.7540	3.7541	1.3515	25.57	0.06	0.750			
0.4418	28276.50	3.7510	3.7512	1.3876	25.55	0.04	0.750			
0.4461	28552.42	3.7480	3.7480	1.4084	25.54	0.03	0.750			
0.4504	28825.50	3.7450	3.7451	1.4494	25.53	0.02	0.750			
0.4547	29102.35	3.7420	3.7421	1.4560	25.52	0.01	0.750			
0.4592	29389.59	3.7390	3.7390	1.4666	25.50	-0.01	0.750			
0.4636	29673.15	3.7360	3.7362	1.5015	25.49	-0.02	0.750			
0.4680	29953.40	3.7330	3.7329	1.5591	25.48	-0.03	0.750			
0.4727	30255.63	3.7300	3.7300	1.6248	25.47	-0.04	0.750			
0.4777	30574.21	3.7270	3.7273	1.6913	25.46	-0.05	0.750			
0.4829	30903.09	3.7240	3.7244	1.7589	25.45	-0.06	0.750			
0.4883	31253.65	3.7210	3.7209	1.8201	25.44	-0.07	0.750			
0.4939	31606.85	3.7180	3.7179	1.9062	25.43	-0.08	0.750			
0.4996	31973.52	3.7150	3.7152	1.9351	25.42	-0.09	0.750			
0.5057	32363.24	3.7120	3.7120	1.9854	25.40	-0.11	0.750			
0.5117	32751.20	3.7090	3.7091	2.0371	25.39	-0.12	0.750			
0.5178	33140.25	3.7060	3.7064	2.0903	25.38	-0.13	0.750			
0.5241	33545.40	3.7030	3.7027	2.1078	25.37	-0.14	0.750			
0.5307	33965.63	3.7000	3.6998	2.1688	25.36	-0.15	0.750			
0.5370	34368.29	3.6970	3.6972	2.2116	25.35	-0.16	0.750			
0.5437	34797.47	3.6940	3.6941	2.2627	25.35	-0.16	0.750			
0.5505	35233.67	3.6910	3.6910	2.3060	25.35	-0.16	0.750			
0.5579	35703.65	3.6880	3.6877	2.3618	25.35	-0.16	0.750			
0.5650	36157.62	3.6850	3.6849	2.3620	25.35	-0.16	0.750			
0.5719	36601.54	3.6820	3.6822	2.3037	25.35	-0.16	0.750			
0.5789	37050.25	3.6790	3.6791	2.2523	25.35	-0.16	0.750			
0.5856	37481.02	3.6760	3.6758	2.1880	25.34	-0.17	0.750			
0.5921	37896.87	3.6730	3.6733	2.0928	25.34	-0.17	0.750			
0.5982	38287.94	3.6700	3.6701	1.9577	25.35	-0.16	0.750			
0.6040	38658.94	3.6670	3.6670	1.8288	25.36	-0.15	0.750			
0.6094	38999.51	3.6640	3.6640	1.6810	25.37	-0.14	0.750			
0.6142	39307.28	3.6610	3.6612	1.5718	25.37	-0.14	0.750			
0.6185	39584.36	3.6580	3.6582	1.4485	25.38	-0.13	0.750			
0.6227	39853.73	3.6550	3.6545	1.3695	25.38	-0.13	0.750			
0.6266	40101.88	3.6520	3.6520	1.2889	25.38	-0.13	0.750			
0.6303	40338.60	3.6490	3.6491	1.2215	25.39	-0.12	0.750			
0.6339	40570.06	3.6460	3.6460	1.1710	25.40	-0.11	0.750			
0.6374	40796.51	3.6430	3.6429	1.1155	25.40	-0.11	0.750			
0.6406	40995.71	3.6400	3.6400	1.0517	25.41	-0.10	0.750			
0.6436	41190.89	3.6370	3.6372	1.0121	25.42	-0.09	0.750			
0.6465	41378.92	3.6340	3.6341	0.9757	25.43	-0.08	0.750			
0.6494	41562.25	3.6310	3.6308	0.9448	25.44	-0.07	0.750			
0.6522	41743.28	3.6280	3.6280	0.9042	25.45	-0.06	0.750			
0.6549	41914.24	3.6250	3.6251	0.8827	25.45	-0.06	0.750			
0.6575	42081.92	3.6220	3.6221	0.8533	25.46	-0.05	0.750			
0.6600	42241.70	3.6190	3.6192	0.8135	25.47	-0.04	0.750			
0.6624	42395.13	3.6160	3.6162	0.7790	25.47	-0.04	0.750			
0.6647	42543.54	3.6130	3.6131	0.7405	25.48	-0.03	0.750			
0.6670	42685.14	3.6100	3.6099	0.6967	25.49	-0.02	0.750			
0.6690	42816.37	3.6070	3.6071	0.6484	25.50	-0.01	0.750			
0.6708	42933.04	3.6040	3.6040	0.5902	25.50	-0.01	0.750			
0.6725	43040.66	3.6010	3.6010	0.5413	25.51	-0.00	0.750			
0.6740	43138.65	3.5980	3.5979	0.4908	25.51	0.00	0.750			
0.6754	43227.63	3.5950	3.5950	0.4435	25.52	0.01	0.750			
0.6767	43308.96	3.5920	3.5920	0.3969	25.52	0.01	0.750			
0.6778	43380.29	3.5890	3.5891	0.3490	25.52	0.01	0.750			
0.6788	43442.96	3.5860	3.5861	0.3013	25.53	0.02	0.750			
0.6796	43495.87	3.5830	3.5835	0.2532	25.53	0.02	0.750			
0.6803	43539.60	3.5800	3.5804	0.2064	25.53	0.02	0.750			
0.6809	43574.49	3.5770	3.5777	0.1613	25.53	0.02	0.750			
0.6813	43601.75	3.5740	3.5749	0.1140	25.53	0.02	0.750			
0.6815	43618.30	3.5710	3.5720	-0.0082	25.54	0.03	0.750			
