Ah_balance (normalized)	Ah_balance (mAh)	Voltage - fit (V)	Voltage -  interpolate (V)	dQ/dV (1/V)	Temperature (°C)	Temperature - diff (°C)	Current (C)	R_DC 0ms (mOhm)	R_DC 50ms (mOhm)	R_DC 50 ms PEC (mOhm)
0.0474	3034.13	4.1980	4.1980	0.6846	26.03	0.61	0.750			
0.0495	3170.29	4.1950	4.1942	0.7304	26.03	0.61	0.750			
0.0518	3314.81	4.1920	4.1921	0.7522	26.03	0.61	0.750			
0.0541	3462.49	4.1890	4.1890	0.7561	26.03	0.61	0.750			
0.0564	3609.39	4.1860	4.1860	0.7605	26.03	0.61	0.750			
0.0587	3757.81	4.1830	4.1829	0.7669	26.03	0.61	0.750			
0.0609	3898.71	4.1800	4.1801	0.7561	26.03	0.61	0.750			
0.0632	4044.70	4.1770	4.1771	0.7580	26.03	0.61	0.750			
0.0655	4189.85	4.1740	4.1740	0.7598	26.03	0.61	0.750			
0.0678	4336.94	4.1710	4.1710	0.7563	26.03	0.61	0.750			
0.0700	4481.64	4.1680	4.1680	0.7634	26.04	0.62	0.750			
0.0723	4627.20	4.1650	4.1650	0.7635	26.04	0.62	0.750			
0.0746	4773.76	4.1620	4.1617	0.7685	26.04	0.62	0.750			
0.0769	4921.48	4.1590	4.1591	0.7700	26.04	0.62	0.750			
0.0793	5072.95	4.1560	4.1560	0.7621	26.04	0.62	0.750			
0.0815	5218.78	4.1530	4.1531	0.7662	26.05	0.63	0.750			
0.0838	5364.43	4.1500	4.1501	0.7606	26.05	0.63	0.750			
0.0861	5508.70	4.1470	4.1471	0.7643	26.05	0.63	0.750			
0.0884	5655.45	4.1440	4.1441	0.7663	26.05	0.63	0.750			
0.0907	5803.76	4.1410	4.1411	0.7679	26.05	0.63	0.750			
0.0930	5953.68	4.1380	4.1381	0.7752	26.05	0.63	0.750			
0.0954	6103.76	4.1350	4.1350	0.7764	26.05	0.63	0.750			
0.0977	6251.38	4.1320	4.1321	0.7721	26.05	0.63	0.750			
0.1000	6398.79	4.1290	4.1291	0.7736	26.05	0.63	0.750			
0.1023	6546.52	4.1260	4.1260	0.7756	26.05	0.63	0.750			
0.1047	6698.14	4.1230	4.1230	0.7744	26.05	0.63	0.750			
0.1070	6845.01	4.1200	4.1201	0.7758	26.05	0.63	0.750			
0.1093	6994.21	4.1170	4.1171	0.7782	26.05	0.63	0.750			
0.1116	7144.40	4.1140	4.1138	0.7803	26.05	0.63	0.750			
0.1140	7293.43	4.1110	4.1110	0.7819	26.05	0.63	0.750			
0.1164	7449.25	4.1080	4.1080	0.7700	26.05	0.63	0.750			
0.1187	7595.00	4.1050	4.1051	0.7801	26.06	0.64	0.750			
0.1210	7743.23	4.1020	4.1020	0.7793	26.06	0.64	0.750			
0.1233	7891.45	4.0990	4.0992	0.7875	26.06	0.64	0.750			
0.1257	8041.81	4.0960	4.0959	0.7922	26.06	0.64	0.750			
0.1281	8196.25	4.0930	4.0932	0.7968	26.06	0.64	0.750			
0.1305	8351.45	4.0900	4.0901	0.8042	26.06	0.64	0.750			
0.1330	8508.99	4.0870	4.0870	0.8045	26.07	0.65	0.750			
0.1353	8661.08	4.0840	4.0840	0.7940	26.07	0.65	0.750			
0.1377	8813.62	4.0810	4.0811	0.8001	26.07	0.65	0.750			
0.1401	8966.45	4.0780	4.0779	0.8063	26.07	0.65	0.750			
0.1425	9122.41	4.0750	4.0750	0.8056	26.07	0.65	0.750			
0.1450	9277.56	4.0720	4.0720	0.8081	26.08	0.66	0.750			
0.1474	9433.63	4.0690	4.0691	0.8095	26.08	0.66	0.750			
0.1498	9589.30	4.0660	4.0660	0.8135	26.08	0.66	0.750			
0.1523	9744.42	4.0630	4.0630	0.8142	26.08	0.66	0.750			
0.1547	9904.00	4.0600	4.0599	0.7937	26.08	0.66	0.750			
0.1571	10053.65	4.0570	4.0570	0.8118	26.09	0.67	0.750			
0.1595	10209.15	4.0540	4.0542	0.8151	26.09	0.67	0.750			
0.1620	10366.08	4.0510	4.0502	0.8228	26.09	0.67	0.750			
0.1645	10524.96	4.0480	4.0482	0.8289	26.09	0.67	0.750			
0.1670	10685.52	4.0450	4.0451	0.8289	26.09	0.67	0.750			
0.1695	10845.24	4.0420	4.0421	0.8341	26.09	0.67	0.750			
0.1720	11006.07	4.0390	4.0391	0.8292	26.09	0.67	0.750			
0.1745	11166.08	4.0360	4.0358	0.8343	26.09	0.67	0.750			
0.1770	11327.85	4.0330	4.0330	0.8391	26.09	0.67	0.750			
0.1795	11489.21	4.0300	4.0301	0.8367	26.10	0.68	0.750			
0.1820	11650.08	4.0270	4.0271	0.8432	26.10	0.68	0.750			
0.1845	11811.08	4.0240	4.0241	0.8419	26.11	0.69	0.750			
0.1871	11972.70	4.0210	4.0206	0.8478	26.11	0.69	0.750			
0.1896	12135.79	4.0180	4.0181	0.8508	26.11	0.69	0.750			
0.1922	12300.82	4.0150	4.0151	0.8427	26.11	0.69	0.750			
0.1947	12462.77	4.0120	4.0121	0.8477	26.11	0.69	0.750			
0.1972	12621.93	4.0090	4.0092	0.8459	26.11	0.69	0.750			
0.1998	12784.77	4.0060	4.0053	0.8556	26.11	0.69	0.750			
0.2023	12950.31	4.0030	4.0032	0.8578	26.11	0.69	0.750			
0.2049	13115.86	4.0000	4.0001	0.8653	26.11	0.69	0.750			
0.2076	13287.13	3.9970	3.9970	0.8747	26.11	0.69	0.750			
0.2103	13458.55	3.9940	3.9940	0.8811	26.11	0.69	0.750			
0.2128	13619.71	3.9910	3.9911	0.8679	26.11	0.69	0.750			
0.2154	13788.12	3.9880	3.9880	0.8657	26.12	0.70	0.750			
0.2180	13952.93	3.9850	3.9850	0.8712	26.12	0.70	0.750			
0.2206	14121.50	3.9820	3.9820	0.8734	26.12	0.70	0.750			
0.2233	14288.33	3.9790	3.9790	0.8770	26.13	0.71	0.750			
0.2259	14457.85	3.9760	3.9761	0.8791	26.13	0.71	0.750			
0.2286	14629.06	3.9730	3.9730	0.8714	26.13	0.71	0.750			
0.2312	14795.54	3.9700	3.9700	0.8730	26.13	0.71	0.750			
0.2338	14962.75	3.9670	3.9671	0.8754	26.13	0.71	0.750			
0.2364	15127.95	3.9640	3.9640	0.8752	26.13	0.71	0.750			
0.2390	15296.72	3.9610	3.9610	0.8808	26.13	0.71	0.750			
0.2416	15465.35	3.9580	3.9581	0.8780	26.13	0.71	0.750			
0.2443	15636.53	3.9550	3.9551	0.8846	26.13	0.71	0.750			
0.2470	15809.04	3.9520	3.9520	0.8947	26.13	0.71	0.750			
0.2497	15978.16	3.9490	3.9488	0.8867	26.13	0.71	0.750			
0.2523	16150.31	3.9460	3.9460	0.8756	26.13	0.71	0.750			
0.2550	16316.89	3.9430	3.9431	0.8781	26.13	0.71	0.750			
0.2576	16485.47	3.9400	3.9401	0.8794	26.13	0.71	0.750			
0.2602	16653.87	3.9370	3.9370	0.8811	26.13	0.71	0.750			
0.2628	16820.37	3.9340	3.9340	0.8821	26.13	0.71	0.750			
0.2655	16992.09	3.9310	3.9311	0.8731	26.13	0.71	0.750			
0.2681	17160.63	3.9280	3.9280	0.8828	26.13	0.71	0.750			
0.2708	17330.86	3.9250	3.9251	0.8840	26.12	0.70	0.750			
0.2734	17498.60	3.9220	3.9221	0.8795	26.12	0.70	0.750			
0.2761	17667.38	3.9190	3.9191	0.8815	26.12	0.70	0.750			
0.2787	17837.27	3.9160	3.9160	0.8805	26.12	0.70	0.750			
0.2813	18005.56	3.9130	3.9130	0.8841	26.11	0.69	0.750			
0.2840	18178.12	3.9100	3.9100	0.8944	26.11	0.69	0.750			
0.2867	18346.61	3.9070	3.9068	0.8834	26.11	0.69	0.750			
0.2894	18519.34	3.9040	3.9040	0.8834	26.11	0.69	0.750			
0.2920	18688.01	3.9010	3.9010	0.8852	26.10	0.68	0.750			
0.2947	18857.76	3.8980	3.8981	0.8873	26.10	0.68	0.750			
0.2973	19028.36	3.8950	3.8950	0.8895	26.09	0.67	0.750			
0.3000	19197.10	3.8920	3.8919	0.8867	26.09	0.67	0.750			
0.3027	19373.51	3.8890	3.8890	0.8712	26.08	0.66	0.750			
0.3053	19538.35	3.8860	3.8861	0.8806	26.08	0.66	0.750			
0.3079	19704.05	3.8830	3.8831	0.8837	26.08	0.66	0.750			
0.3105	19871.98	3.8800	3.8801	0.8861	26.07	0.65	0.750			
0.3131	20040.43	3.8770	3.8768	0.8937	26.07	0.65	0.750			
0.3159	20214.49	3.8740	3.8742	0.9018	26.06	0.64	0.750			
0.3186	20392.10	3.8710	3.8711	0.9137	26.05	0.63	0.750			
0.3214	20572.17	3.8680	3.8680	0.9147	26.05	0.63	0.750			
0.3241	20745.04	3.8650	3.8650	0.9003	26.04	0.62	0.750			
0.3268	20918.29	3.8620	3.8620	0.8995	26.04	0.62	0.750			
0.3295	21090.18	3.8590	3.8590	0.9068	26.03	0.61	0.750			
0.3322	21263.33	3.8560	3.8559	0.9060	26.03	0.61	0.750			
0.3350	21437.55	3.8530	3.8531	0.9157	26.02	0.60	0.750			
0.3377	21614.36	3.8500	3.8500	0.9200	26.02	0.60	0.750			
0.3404	21784.77	3.8470	3.8472	0.9450	26.01	0.59	0.750			
0.3432	21962.52	3.8440	3.8442	0.9711	26.00	0.58	0.750			
0.3462	22155.86	3.8410	3.8409	0.9952	25.99	0.57	0.750	0.283	0.421	
0.3492	22351.77	3.8380	3.8380	1.0117	25.98	0.56	0.750			
0.3524	22554.48	3.8350	3.8354	1.0187	25.97	0.55	0.750			
0.3555	22752.97	3.8320	3.8322	1.0136	25.97	0.55	0.750			
0.3587	22954.46	3.8290	3.8290	1.0048	25.96	0.54	0.750			
0.3614	23131.67	3.8260	3.8259	0.9764	25.95	0.53	0.750			
0.3644	23321.06	3.8230	3.8230	0.9797	25.94	0.52	0.750			
0.3673	23510.17	3.8200	3.8200	0.9897	25.93	0.51	0.750			
0.3703	23701.65	3.8170	3.8170	1.0012	25.92	0.50	0.750			
0.3734	23894.76	3.8140	3.8141	1.0052	25.91	0.49	0.750			
0.3764	24090.61	3.8110	3.8109	1.0004	25.90	0.48	0.750			
0.3794	24281.21	3.8080	3.8081	1.0154	25.89	0.47	0.750			
0.3824	24474.56	3.8050	3.8051	1.0297	25.88	0.46	0.750			
0.3855	24672.75	3.8020	3.8021	1.0452	25.87	0.45	0.750			
0.3887	24875.49	3.7990	3.7991	1.0609	25.85	0.43	0.750			
0.3919	25080.62	3.7960	3.7961	1.0758	25.84	0.42	0.750			
0.3952	25290.89	3.7930	3.7931	1.0938	25.83	0.41	0.750			
0.3985	25504.92	3.7900	3.7900	1.1135	25.81	0.39	0.750			
0.4018	25715.06	3.7870	3.7870	1.1169	25.80	0.38	0.750			
0.4052	25930.79	3.7840	3.7840	1.1346	25.79	0.37	0.750			
0.4086	26149.70	3.7810	3.7810	1.1561	25.78	0.36	0.750			
0.4121	26375.41	3.7780	3.7778	1.1727	25.77	0.35	0.750			
0.4156	26600.36	3.7750	3.7750	1.1956	25.76	0.34	0.750			
0.4192	26831.55	3.7720	3.7720	1.2208	25.75	0.33	0.750			
0.4230	27070.98	3.7690	3.7690	1.2351	25.73	0.31	0.750			
0.4267	27308.67	3.7660	3.7661	1.2610	25.72	0.30	0.750			
0.4305	27553.12	3.7630	3.7631	1.2870	25.71	0.29	0.750			
0.4344	27803.93	3.7600	3.7601	1.3065	25.70	0.28	0.750			
0.4384	28056.70	3.7570	3.7570	1.3370	25.69	0.27	0.750			
0.4424	28313.01	3.7540	3.7541	1.3589	25.67	0.25	0.750			
0.4465	28574.87	3.7510	3.7511	1.3950	25.66	0.24	0.750			
0.4507	28845.95	3.7480	3.7480	1.4132	25.65	0.23	0.750			
0.4549	29116.37	3.7450	3.7451	1.4356	25.63	0.21	0.750			
0.4593	29393.73	3.7420	3.7422	1.4770	25.62	0.20	0.750			
0.4638	29683.65	3.7390	3.7393	1.5151	25.60	0.18	0.750			
0.4684	29975.56	3.7360	3.7355	1.5638	25.59	0.17	0.750			
0.4731	30279.96	3.7330	3.7333	1.6134	25.57	0.15	0.750			
0.4781	30598.76	3.7300	3.7302	1.6906	25.56	0.14	0.750			
0.4831	30917.69	3.7270	3.7271	1.7212	25.54	0.12	0.750			
0.4883	31249.41	3.7240	3.7237	1.7325	25.52	0.10	0.750			
0.4936	31590.98	3.7210	3.7210	1.7852	25.50	0.08	0.750			
0.4990	31936.31	3.7180	3.7177	1.8239	25.48	0.06	0.750			
0.5046	32292.54	3.7150	3.7150	1.9018	25.47	0.05	0.750			
0.5102	32655.31	3.7120	3.7120	1.9822	25.45	0.03	0.750			
0.5163	33044.84	3.7090	3.7091	2.0507	25.44	0.02	0.750			
0.5227	33454.24	3.7060	3.7061	2.0979	25.42	0.00	0.750			
0.5291	33864.29	3.7030	3.7030	2.1293	25.41	-0.01	0.750			
0.5356	34279.42	3.7000	3.6999	2.1860	25.38	-0.04	0.750			
0.5421	34692.90	3.6970	3.6971	2.2331	25.37	-0.05	0.750			
0.5490	35133.96	3.6940	3.6941	2.2831	25.36	-0.06	0.750			
0.5560	35583.11	3.6910	3.6906	2.3276	25.34	-0.08	0.750			
0.5630	36030.23	3.6880	3.6882	2.3681	25.33	-0.09	0.750			
0.5700	36479.66	3.6850	3.6851	2.3851	25.32	-0.10	0.750			
0.5774	36950.47	3.6820	3.6820	2.3980	25.32	-0.10	0.750			
0.5846	37413.30	3.6790	3.6790	2.4297	25.30	-0.12	0.750			
0.5920	37887.25	3.6760	3.6761	2.4233	25.30	-0.12	0.750			
0.5992	38348.13	3.6730	3.6729	2.3134	25.30	-0.12	0.750			
0.6061	38789.08	3.6700	3.6697	2.1893	25.30	-0.12	0.750			
0.6125	39200.08	3.6670	3.6671	2.0560	25.30	-0.12	0.750			
0.6183	39570.06	3.6640	3.6642	1.8953	25.30	-0.12	0.750			
0.6237	39915.52	3.6610	3.6610	1.7588	25.30	-0.12	0.750			
0.6288	40243.83	3.6580	3.6582	1.6623	25.30	-0.12	0.750			
0.6336	40548.08	3.6550	3.6551	1.5395	25.31	-0.11	0.750			
0.6380	40830.28	3.6520	3.6521	1.4368	25.31	-0.11	0.750			
0.6421	41093.71	3.6490	3.6489	1.3333	25.32	-0.10	0.750			
0.6458	41331.55	3.6460	3.6461	1.2448	25.32	-0.10	0.750			
0.6494	41563.72	3.6430	3.6422	1.1739	25.33	-0.09	0.750			
0.6528	41778.79	3.6400	3.6402	1.1103	25.34	-0.08	0.750			
0.6560	41984.68	3.6370	3.6370	1.0613	25.34	-0.08	0.750			
0.6591	42181.39	3.6340	3.6340	1.0179	25.35	-0.07	0.750			
0.6621	42373.44	3.6310	3.6307	0.9809	25.35	-0.07	0.750			
0.6650	42558.33	3.6280	3.6281	0.9378	25.36	-0.06	0.750			
0.6677	42732.81	3.6250	3.6250	0.9018	25.36	-0.06	0.750			
0.6704	42904.25	3.6220	3.6221	0.8695	25.37	-0.05	0.750			
0.6729	43067.14	3.6190	3.6190	0.8287	25.38	-0.04	0.750			
0.6753	43221.41	3.6160	3.6159	0.7853	25.38	-0.04	0.750			
0.6777	43369.80	3.6130	3.6131	0.7436	25.39	-0.03	0.750			
0.6799	43510.91	3.6100	3.6101	0.6955	25.40	-0.02	0.750			
0.6819	43640.04	3.6070	3.6069	0.6499	25.40	-0.02	0.750			
0.6837	43758.12	3.6040	3.6040	0.6018	25.41	-0.01	0.750			
0.6855	43870.37	3.6010	3.6010	0.5500	25.42	-0.00	0.750			
0.6871	43972.86	3.5980	3.5971	0.4924	25.42	0.00	0.750			
0.6885	44061.26	3.5950	3.5953	0.4557	25.42	0.00	0.750			
0.6897	44143.35	3.5920	3.5924	0.4128	25.43	0.01	0.750			
0.6909	44218.59	3.5890	3.5868	0.3704	25.43	0.01	0.750			
0.6920	44285.65	3.5860	3.5863	0.3170	25.44	0.02	0.750			
0.6929	44342.90	3.5830	3.5835	0.2751	25.44	0.02	0.750			
0.6936	44393.46	3.5800	3.5802	0.2317	25.44	0.02	0.750			
0.6944	44441.97	3.5770	3.5767	0.1711	25.44	0.02	0.750			
0.6948	44464.15	3.5740	3.5747	0.1211	25.44	0.02	0.750			
0.6950	44482.37	3.5710	3.5713	0.0578	25.45	0.03	0.750			
