Ah_balance (normalized)	Ah_balance (mAh)	Voltage - fit (V)	Voltage -  interpolate (V)	dQ/dV (1/V)	Temperature (°C)	Temperature - diff (°C)	Current (C)	R_DC 0ms (mOhm)	R_DC 50ms (mOhm)	R_DC 50 ms PEC (mOhm)
0.0493	3156.30	4.1960	4.1961	0.7400	25.94	0.47	0.750			
0.0516	3302.21	4.1930	4.1928	0.7437	25.94	0.47	0.750			
0.0538	3440.55	4.1900	4.1900	0.7439	25.95	0.48	0.750			
0.0560	3583.59	4.1870	4.1871	0.7502	25.95	0.48	0.750			
0.0582	3726.86	4.1840	4.1838	0.7570	25.95	0.48	0.750			
0.0605	3874.80	4.1810	4.1811	0.7599	25.95	0.48	0.750			
0.0628	4020.90	4.1780	4.1781	0.7615	25.95	0.48	0.750			
0.0651	4168.77	4.1750	4.1750	0.7475	25.96	0.49	0.750			
0.0674	4310.60	4.1720	4.1722	0.7538	25.96	0.49	0.750			
0.0695	4450.26	4.1690	4.1691	0.7503	25.96	0.49	0.750			
0.0718	4595.13	4.1660	4.1661	0.7545	25.96	0.49	0.750			
0.0741	4739.30	4.1630	4.1632	0.7570	25.96	0.49	0.750			
0.0764	4887.24	4.1600	4.1601	0.7611	25.96	0.49	0.750			
0.0787	5038.03	4.1570	4.1571	0.7658	25.97	0.50	0.750			
0.0810	5182.57	4.1540	4.1540	0.7587	25.97	0.50	0.750			
0.0833	5328.39	4.1510	4.1508	0.7592	25.97	0.50	0.750			
0.0855	5473.89	4.1480	4.1481	0.7604	25.97	0.50	0.750			
0.0879	5623.67	4.1450	4.1449	0.7572	25.97	0.50	0.750			
0.0901	5769.01	4.1420	4.1421	0.7616	25.97	0.50	0.750			
0.0924	5913.01	4.1390	4.1390	0.7588	25.97	0.50	0.750			
0.0947	6058.77	4.1360	4.1361	0.7661	25.97	0.50	0.750			
0.0969	6204.57	4.1330	4.1329	0.7664	25.97	0.50	0.750			
0.0993	6353.76	4.1300	4.1301	0.7719	25.97	0.50	0.750			
0.1016	6503.41	4.1270	4.1271	0.7715	25.97	0.50	0.750			
0.1039	6651.74	4.1240	4.1241	0.7748	25.97	0.50	0.750			
0.1062	6799.89	4.1210	4.1210	0.7726	25.97	0.50	0.750			
0.1086	6948.39	4.1180	4.1172	0.7711	25.97	0.50	0.750			
0.1109	7096.07	4.1150	4.1152	0.7779	25.97	0.50	0.750			
0.1132	7246.92	4.1120	4.1121	0.7821	25.97	0.50	0.750			
0.1156	7397.76	4.1090	4.1089	0.7847	25.98	0.51	0.750			
0.1180	7550.68	4.1060	4.1060	0.7869	25.98	0.51	0.750			
0.1203	7698.49	4.1030	4.1030	0.7830	25.98	0.51	0.750			
0.1226	7849.52	4.1000	4.1000	0.7861	25.98	0.51	0.750			
0.1251	8003.39	4.0970	4.0970	0.7836	25.98	0.51	0.750			
0.1274	8150.45	4.0940	4.0940	0.7853	25.98	0.51	0.750			
0.1297	8301.90	4.0910	4.0911	0.7918	25.99	0.52	0.750			
0.1321	8454.23	4.0880	4.0881	0.7940	25.99	0.52	0.750			
0.1345	8607.56	4.0850	4.0850	0.7968	25.99	0.52	0.750			
0.1369	8760.75	4.0820	4.0821	0.7985	25.99	0.52	0.750			
0.1393	8914.87	4.0790	4.0790	0.7903	25.99	0.52	0.750			
0.1416	9064.25	4.0760	4.0761	0.7926	25.99	0.52	0.750			
0.1439	9212.52	4.0730	4.0731	0.7939	25.99	0.52	0.750			
0.1464	9366.70	4.0700	4.0692	0.8037	25.99	0.52	0.750			
0.1488	9522.58	4.0670	4.0671	0.8114	25.99	0.52	0.750			
0.1513	9681.03	4.0640	4.0642	0.8157	25.99	0.52	0.750			
0.1538	9841.56	4.0610	4.0610	0.8259	26.00	0.53	0.750			
0.1562	9998.93	4.0580	4.0580	0.8135	26.00	0.53	0.750			
0.1587	10153.75	4.0550	4.0551	0.8135	26.00	0.53	0.750			
0.1611	10310.44	4.0520	4.0519	0.8172	26.00	0.53	0.750			
0.1636	10470.47	4.0490	4.0491	0.8192	26.00	0.53	0.750			
0.1660	10626.91	4.0460	4.0460	0.8180	26.01	0.54	0.750			
0.1685	10783.74	4.0430	4.0431	0.8244	26.01	0.54	0.750			
0.1709	10940.26	4.0400	4.0396	0.8244	26.01	0.54	0.750			
0.1734	11098.65	4.0370	4.0370	0.8283	26.01	0.54	0.750			
0.1760	11261.37	4.0340	4.0339	0.8177	26.01	0.54	0.750			
0.1784	11415.60	4.0310	4.0311	0.8317	26.01	0.54	0.750			
0.1809	11575.25	4.0280	4.0281	0.8409	26.01	0.54	0.750			
0.1834	11735.71	4.0250	4.0245	0.8426	26.01	0.54	0.750			
0.1859	11898.36	4.0220	4.0222	0.8493	26.01	0.54	0.750			
0.1885	12062.42	4.0190	4.0193	0.8592	26.02	0.55	0.750			
0.1911	12231.26	4.0160	4.0160	0.8598	26.02	0.55	0.750			
0.1938	12402.64	4.0130	4.0129	0.8670	26.03	0.56	0.750			
0.1963	12560.70	4.0100	4.0100	0.8458	26.03	0.56	0.750			
0.1988	12723.23	4.0070	4.0070	0.8516	26.03	0.56	0.750			
0.2014	12887.60	4.0040	4.0040	0.8442	26.04	0.57	0.750			
0.2038	13045.90	4.0010	4.0010	0.8506	26.04	0.57	0.750			
0.2064	13209.07	3.9980	3.9981	0.8545	26.05	0.58	0.750			
0.2090	13374.83	3.9950	3.9946	0.8635	26.05	0.58	0.750			
0.2116	13541.03	3.9920	3.9922	0.8691	26.05	0.58	0.750			
0.2142	13708.71	3.9890	3.9891	0.8612	26.05	0.58	0.750			
0.2167	13868.99	3.9860	3.9862	0.8769	26.05	0.58	0.750			
0.2193	14035.45	3.9830	3.9832	0.8912	26.05	0.58	0.750			
0.2220	14208.87	3.9800	3.9796	0.9117	26.05	0.58	0.750			
0.2248	14388.74	3.9770	3.9770	0.9201	26.05	0.58	0.750			
0.2277	14570.04	3.9740	3.9744	0.9183	26.06	0.59	0.750			
0.2306	14755.42	3.9710	3.9711	0.9199	26.06	0.59	0.750			
0.2333	14928.48	3.9680	3.9679	0.8955	26.06	0.59	0.750			
0.2358	15093.46	3.9650	3.9649	0.8760	26.06	0.59	0.750			
0.2385	15261.97	3.9620	3.9620	0.8727	26.06	0.59	0.750			
0.2411	15428.68	3.9590	3.9590	0.8757	26.06	0.59	0.750			
0.2437	15596.63	3.9560	3.9561	0.8765	26.06	0.59	0.750			
0.2463	15765.64	3.9530	3.9528	0.8804	26.06	0.59	0.750			
0.2490	15934.87	3.9500	3.9500	0.8772	26.06	0.59	0.750			
0.2516	16103.92	3.9470	3.9470	0.8791	26.06	0.59	0.750			
0.2543	16273.64	3.9440	3.9441	0.8812	26.05	0.58	0.750			
0.2569	16442.51	3.9410	3.9410	0.8752	26.05	0.58	0.750			
0.2595	16610.43	3.9380	3.9381	0.8727	26.05	0.58	0.750			
0.2622	16778.04	3.9350	3.9351	0.8751	26.05	0.58	0.750			
0.2648	16945.02	3.9320	3.9320	0.8747	26.05	0.58	0.750			
0.2674	17113.14	3.9290	3.9289	0.8778	26.05	0.58	0.750			
0.2700	17281.94	3.9260	3.9260	0.8743	26.05	0.58	0.750			
0.2727	17450.05	3.9230	3.9230	0.8746	26.05	0.58	0.750			
0.2753	17619.48	3.9200	3.9200	0.8736	26.04	0.57	0.750			
0.2779	17786.34	3.9170	3.9170	0.8722	26.04	0.57	0.750			
0.2805	17952.85	3.9140	3.9140	0.8664	26.04	0.57	0.750			
0.2831	18119.44	3.9110	3.9109	0.8635	26.03	0.56	0.750			
0.2857	18283.71	3.9080	3.9081	0.8610	26.03	0.56	0.750			
0.2883	18449.93	3.9050	3.9050	0.8556	26.02	0.55	0.750			
0.2908	18610.96	3.9020	3.9020	0.8591	26.02	0.55	0.750			
0.2934	18775.99	3.8990	3.8990	0.8649	26.01	0.54	0.750			
0.2959	18940.23	3.8960	3.8954	0.8676	26.01	0.54	0.750			
0.2986	19109.78	3.8930	3.8930	0.8724	26.01	0.54	0.750			
0.3012	19279.37	3.8900	3.8901	0.8776	26.00	0.53	0.750			
0.3039	19449.00	3.8870	3.8870	0.8780	26.00	0.53	0.750			
0.3065	19618.69	3.8840	3.8840	0.8853	25.99	0.52	0.750			
0.3091	19784.05	3.8810	3.8810	0.8747	25.99	0.52	0.750			
0.3118	19956.03	3.8780	3.8779	0.8703	25.98	0.51	0.750			
0.3144	20122.20	3.8750	3.8751	0.8767	25.97	0.50	0.750			
0.3170	20289.78	3.8720	3.8721	0.8816	25.96	0.49	0.750			
0.3197	20458.62	3.8690	3.8690	0.8858	25.95	0.48	0.750			
0.3223	20629.01	3.8660	3.8661	0.8864	25.95	0.48	0.750			
0.3250	20799.07	3.8630	3.8631	0.8905	25.94	0.47	0.750			
0.3276	20968.89	3.8600	3.8601	0.8893	25.93	0.46	0.750			
0.3303	21139.73	3.8570	3.8571	0.8923	25.92	0.45	0.750			
0.3330	21311.34	3.8540	3.8538	0.8858	25.91	0.44	0.750			
0.3356	21479.76	3.8510	3.8512	0.8995	25.90	0.43	0.750			
0.3383	21652.77	3.8480	3.8482	0.9137	25.90	0.43	0.750			
0.3411	21831.82	3.8450	3.8450	0.9284	25.89	0.42	0.750			
0.3440	22016.35	3.8420	3.8420	0.9462	25.88	0.41	0.750	0.292	0.428	
0.3468	22192.76	3.8390	3.8392	0.9331	25.87	0.40	0.750			
0.3496	22374.68	3.8360	3.8360	0.9415	25.86	0.39	0.750			
0.3524	22555.78	3.8330	3.8330	0.9424	25.86	0.39	0.750			
0.3552	22735.90	3.8300	3.8300	0.9534	25.86	0.39	0.750			
0.3581	22915.38	3.8270	3.8269	0.9515	25.85	0.38	0.750			
0.3609	23100.11	3.8240	3.8240	0.9637	25.84	0.37	0.750			
0.3638	23284.96	3.8210	3.8211	0.9621	25.83	0.36	0.750			
0.3667	23469.68	3.8180	3.8181	0.9725	25.82	0.35	0.750			
0.3696	23656.23	3.8150	3.8151	0.9827	25.81	0.34	0.750			
0.3726	23844.50	3.8120	3.8121	0.9876	25.80	0.33	0.750			
0.3755	24033.84	3.8090	3.8091	1.0001	25.79	0.32	0.750			
0.3786	24230.53	3.8060	3.8061	1.0161	25.78	0.31	0.750			
0.3817	24429.82	3.8030	3.8030	1.0295	25.77	0.30	0.750			
0.3848	24625.21	3.8000	3.7999	1.0269	25.76	0.29	0.750			
0.3879	24822.59	3.7970	3.7971	1.0425	25.75	0.28	0.750			
0.3910	25023.91	3.7940	3.7939	1.0516	25.74	0.27	0.750			
0.3942	25226.65	3.7910	3.7911	1.0677	25.73	0.26	0.750			
0.3974	25430.95	3.7880	3.7881	1.0812	25.72	0.25	0.750			
0.4006	25636.90	3.7850	3.7851	1.0885	25.71	0.24	0.750			
0.4038	25845.18	3.7820	3.7821	1.1103	25.70	0.23	0.750			
0.4072	26059.49	3.7790	3.7792	1.1416	25.69	0.22	0.750			
0.4106	26279.84	3.7760	3.7762	1.1677	25.68	0.21	0.750			
0.4142	26509.90	3.7730	3.7731	1.1991	25.67	0.20	0.750			
0.4179	26743.73	3.7700	3.7701	1.2320	25.66	0.19	0.750			
0.4217	26988.41	3.7670	3.7670	1.2625	25.65	0.18	0.750			
0.4254	27226.93	3.7640	3.7640	1.2717	25.64	0.17	0.750			
0.4293	27473.19	3.7610	3.7610	1.2986	25.62	0.15	0.750			
0.4332	27724.01	3.7580	3.7576	1.3303	25.61	0.14	0.750			
0.4372	27977.74	3.7550	3.7552	1.3469	25.60	0.13	0.750			
0.4412	28238.00	3.7520	3.7521	1.3822	25.59	0.12	0.750			
0.4454	28504.48	3.7490	3.7487	1.4136	25.57	0.10	0.750			
0.4497	28782.66	3.7460	3.7462	1.4342	25.56	0.09	0.750			
0.4541	29060.11	3.7430	3.7432	1.4617	25.54	0.07	0.750			
0.4586	29351.70	3.7400	3.7399	1.4739	25.53	0.06	0.750			
0.4632	29647.26	3.7370	3.7363	1.5036	25.51	0.04	0.750			
0.4675	29921.78	3.7340	3.7343	1.5149	25.49	0.02	0.750			
0.4721	30216.92	3.7310	3.7311	1.5628	25.48	0.01	0.750			
0.4768	30515.51	3.7280	3.7282	1.6396	25.47	0.00	0.750			
0.4818	30837.97	3.7250	3.7255	1.6787	25.46	-0.01	0.750			
0.4870	31166.37	3.7220	3.7223	1.7788	25.45	-0.02	0.750			
0.4927	31530.14	3.7190	3.7187	1.8417	25.44	-0.03	0.750			
0.4983	31890.95	3.7160	3.7156	1.8830	25.42	-0.05	0.750			
0.5040	32253.74	3.7130	3.7130	1.9473	25.41	-0.06	0.750			
0.5099	32632.49	3.7100	3.7097	1.9964	25.40	-0.07	0.750			
0.5160	33021.05	3.7070	3.7066	2.0151	25.39	-0.08	0.750			
0.5220	33407.06	3.7040	3.7039	2.0666	25.38	-0.09	0.750			
0.5282	33804.09	3.7010	3.7013	2.1285	25.37	-0.10	0.750			
0.5346	34215.55	3.6980	3.6978	2.2103	25.36	-0.11	0.750			
0.5412	34636.19	3.6950	3.6949	2.2793	25.34	-0.13	0.750			
0.5483	35092.01	3.6920	3.6917	2.3766	25.33	-0.14	0.750			
0.5552	35535.27	3.6890	3.6892	2.3530	25.32	-0.15	0.750			
0.5622	35981.43	3.6860	3.6862	2.3748	25.31	-0.16	0.750			
0.5694	36438.77	3.6830	3.6828	2.3787	25.30	-0.17	0.750			
0.5768	36917.86	3.6800	3.6798	2.4389	25.30	-0.17	0.750			
0.5845	37409.04	3.6770	3.6766	2.4021	25.31	-0.16	0.750			
0.5912	37838.98	3.6740	3.6738	2.2378	25.31	-0.16	0.750			
0.5980	38268.90	3.6710	3.6714	2.1390	25.31	-0.16	0.750			
0.6041	38665.42	3.6680	3.6681	1.9890	25.32	-0.15	0.750			
0.6097	39022.36	3.6650	3.6648	1.8544	25.32	-0.15	0.750			
0.6153	39381.64	3.6620	3.6616	1.7883	25.34	-0.13	0.750			
0.6205	39712.94	3.6590	3.6589	1.6327	25.35	-0.12	0.750			
0.6252	40011.41	3.6560	3.6563	1.5317	25.36	-0.11	0.750			
0.6294	40283.17	3.6530	3.6532	1.4226	25.36	-0.11	0.750			
0.6336	40548.31	3.6500	3.6491	1.3308	25.37	-0.10	0.750			
0.6375	40798.11	3.6470	3.6471	1.2658	25.37	-0.10	0.750			
0.6411	41027.79	3.6440	3.6442	1.1942	25.38	-0.09	0.750			
0.6446	41253.91	3.6410	3.6411	1.1418	25.38	-0.09	0.750			
0.6481	41477.00	3.6380	3.6379	1.0942	25.38	-0.09	0.750			
0.6510	41665.36	3.6350	3.6351	1.0183	25.39	-0.08	0.750			
0.6540	41855.73	3.6320	3.6321	0.9780	25.39	-0.08	0.750			
0.6568	42038.35	3.6290	3.6291	0.9482	25.40	-0.07	0.750			
0.6596	42214.50	3.6260	3.6258	0.9138	25.40	-0.07	0.750			
0.6624	42391.93	3.6230	3.6230	0.8710	25.41	-0.06	0.750			
0.6650	42562.82	3.6200	3.6199	0.8233	25.43	-0.04	0.750			
0.6674	42714.75	3.6170	3.6171	0.7800	25.43	-0.04	0.750			
0.6696	42851.86	3.6140	3.6145	0.7438	25.44	-0.03	0.750			
0.6717	42987.67	3.6110	3.6117	0.7069	25.45	-0.02	0.750			
0.6738	43121.66	3.6080	3.6077	0.6721	25.45	-0.02	0.750			
0.6758	43249.24	3.6050	3.6058	0.6406	25.46	-0.01	0.750			
0.6778	43376.37	3.6020	3.6024	0.6030	25.46	-0.01	0.750			
0.6796	43496.13	3.5990	3.5990	0.5614	25.46	-0.01	0.750			
0.6812	43596.97	3.5960	3.5959	0.4929	25.47	-0.00	0.750			
0.6825	43678.37	3.5930	3.5930	0.4267	25.47	-0.00	0.750			
0.6837	43755.15	3.5900	3.5900	0.3795	25.47	0.00	0.750			
0.6847	43823.82	3.5870	3.5869	0.3296	25.47	0.00	0.750			
0.6857	43882.98	3.5840	3.5839	0.2834	25.47	0.00	0.750			
0.6865	43933.35	3.5810	3.5811	0.2360	25.47	0.00	0.750			
0.6871	43974.53	3.5780	3.5781	0.1859	25.48	0.01	0.750			
0.6876	44006.09	3.5750	3.5753	0.1318	25.48	0.01	0.750			
0.6879	44026.56	3.5720	3.5724	0.0661	25.48	0.01	0.750			
