Ah_balance (normalized)	Ah_balance (mAh)	Voltage - fit (V)	Voltage -  interpolate (V)	dQ/dV (1/V)	Temperature (°C)	Temperature - diff (°C)	Current (C)	R_DC 0ms (mOhm)	R_DC 50ms (mOhm)	R_DC 50 ms PEC (mOhm)
0.0493	3155.58	4.1960	4.1961	0.7239	25.71	0.51	0.750			
0.0515	3297.49	4.1930	4.1931	0.7414	25.71	0.51	0.750			
0.0538	3441.97	4.1900	4.1901	0.7497	25.71	0.51	0.750			
0.0560	3586.95	4.1870	4.1870	0.7532	25.71	0.51	0.750			
0.0583	3733.27	4.1840	4.1841	0.7483	25.71	0.51	0.750			
0.0606	3876.59	4.1810	4.1811	0.7509	25.71	0.51	0.750			
0.0628	4017.66	4.1780	4.1781	0.7508	25.71	0.51	0.750			
0.0650	4161.98	4.1750	4.1745	0.7562	25.71	0.51	0.750			
0.0673	4307.48	4.1720	4.1720	0.7623	25.71	0.51	0.750			
0.0696	4456.18	4.1690	4.1691	0.7619	25.71	0.51	0.750			
0.0720	4606.21	4.1660	4.1661	0.7686	25.71	0.51	0.750			
0.0743	4755.46	4.1630	4.1629	0.7739	25.71	0.51	0.750			
0.0765	4897.29	4.1600	4.1600	0.7614	25.71	0.51	0.750			
0.0788	5043.90	4.1570	4.1571	0.7635	25.71	0.51	0.750			
0.0811	5191.16	4.1540	4.1541	0.7672	25.71	0.51	0.750			
0.0834	5339.14	4.1510	4.1510	0.7669	25.71	0.51	0.750			
0.0857	5486.76	4.1480	4.1480	0.7680	25.71	0.51	0.750			
0.0880	5632.97	4.1450	4.1450	0.7676	25.71	0.51	0.750			
0.0903	5780.09	4.1420	4.1418	0.7724	25.71	0.51	0.750			
0.0926	5928.63	4.1390	4.1391	0.7746	25.71	0.51	0.750			
0.0950	6079.62	4.1360	4.1360	0.7705	25.71	0.51	0.750			
0.0973	6227.74	4.1330	4.1330	0.7776	25.71	0.51	0.750			
0.0996	6376.60	4.1300	4.1301	0.7755	25.71	0.51	0.750			
0.1020	6526.36	4.1270	4.1270	0.7762	25.71	0.51	0.750			
0.1043	6675.08	4.1240	4.1241	0.7758	25.71	0.51	0.750			
0.1066	6823.85	4.1210	4.1211	0.7753	25.71	0.51	0.750			
0.1090	6973.27	4.1180	4.1180	0.7797	25.71	0.51	0.750			
0.1113	7124.39	4.1150	4.1149	0.7856	25.72	0.52	0.750			
0.1136	7271.89	4.1120	4.1121	0.7833	25.72	0.52	0.750			
0.1160	7424.17	4.1090	4.1091	0.7867	25.72	0.52	0.750			
0.1184	7575.96	4.1060	4.1060	0.7881	25.72	0.52	0.750			
0.1207	7727.68	4.1030	4.1030	0.7864	25.72	0.52	0.750			
0.1231	7878.85	4.1000	4.1000	0.7830	25.73	0.53	0.750			
0.1254	8028.12	4.0970	4.0970	0.7815	25.73	0.53	0.750			
0.1278	8177.01	4.0940	4.0937	0.7862	25.73	0.53	0.750			
0.1301	8327.78	4.0910	4.0911	0.7864	25.73	0.53	0.750			
0.1325	8482.84	4.0880	4.0879	0.7748	25.73	0.53	0.750			
0.1348	8629.12	4.0850	4.0851	0.7900	25.73	0.53	0.750			
0.1372	8780.53	4.0820	4.0822	0.7997	25.73	0.53	0.750			
0.1396	8933.11	4.0790	4.0788	0.8078	25.73	0.53	0.750			
0.1420	9089.29	4.0760	4.0762	0.8139	25.73	0.53	0.750			
0.1445	9248.44	4.0730	4.0731	0.8120	25.73	0.53	0.750			
0.1470	9407.06	4.0700	4.0700	0.8178	25.74	0.54	0.750			
0.1495	9566.13	4.0670	4.0671	0.8256	25.74	0.54	0.750			
0.1519	9718.69	4.0640	4.0640	0.8105	25.74	0.54	0.750			
0.1543	9875.42	4.0610	4.0610	0.8181	25.74	0.54	0.750			
0.1568	10032.69	4.0580	4.0580	0.8172	25.74	0.54	0.750			
0.1592	10190.36	4.0550	4.0551	0.8210	25.74	0.54	0.750			
0.1617	10351.95	4.0520	4.0520	0.8242	25.74	0.54	0.750			
0.1642	10507.00	4.0490	4.0490	0.8196	25.74	0.54	0.750			
0.1666	10663.10	4.0460	4.0460	0.8236	25.74	0.54	0.750			
0.1691	10821.11	4.0430	4.0431	0.8287	25.74	0.54	0.750			
0.1716	10979.44	4.0400	4.0400	0.8177	25.75	0.55	0.750			
0.1740	11135.24	4.0370	4.0371	0.8305	25.75	0.55	0.750			
0.1765	11294.18	4.0340	4.0342	0.8367	25.75	0.55	0.750			
0.1790	11455.81	4.0310	4.0313	0.8419	25.75	0.55	0.750			
0.1815	11618.41	4.0280	4.0282	0.8429	25.75	0.55	0.750			
0.1841	11782.01	4.0250	4.0251	0.8485	25.75	0.55	0.750			
0.1867	11946.99	4.0220	4.0220	0.8552	25.75	0.55	0.750			
0.1892	12108.60	4.0190	4.0190	0.8469	25.75	0.55	0.750			
0.1917	12271.94	4.0160	4.0160	0.8525	25.75	0.55	0.750			
0.1943	12437.17	4.0130	4.0130	0.8547	25.75	0.55	0.750			
0.1969	12602.11	4.0100	4.0100	0.8575	25.76	0.56	0.750			
0.1995	12767.12	4.0070	4.0071	0.8597	25.76	0.56	0.750			
0.2021	12932.38	4.0040	4.0039	0.8613	25.76	0.56	0.750			
0.2046	13096.81	4.0010	4.0010	0.8609	25.76	0.56	0.750			
0.2073	13265.10	3.9980	3.9980	0.8549	25.76	0.56	0.750			
0.2098	13426.77	3.9950	3.9951	0.8611	25.77	0.57	0.750			
0.2124	13590.64	3.9920	3.9920	0.8639	25.77	0.57	0.750			
0.2150	13757.08	3.9890	3.9885	0.8688	25.77	0.57	0.750			
0.2176	13925.11	3.9860	3.9861	0.8698	25.77	0.57	0.750			
0.2202	14093.66	3.9830	3.9831	0.8762	25.77	0.57	0.750			
0.2229	14262.89	3.9800	3.9801	0.8806	25.77	0.57	0.750			
0.2256	14435.75	3.9770	3.9769	0.8901	25.77	0.57	0.750			
0.2281	14600.15	3.9740	3.9740	0.8788	25.77	0.57	0.750			
0.2308	14770.43	3.9710	3.9710	0.8816	25.77	0.57	0.750			
0.2335	14941.56	3.9680	3.9680	0.8856	25.77	0.57	0.750			
0.2361	15111.15	3.9650	3.9650	0.8875	25.77	0.57	0.750			
0.2388	15281.14	3.9620	3.9620	0.8857	25.77	0.57	0.750			
0.2414	15451.28	3.9590	3.9590	0.8860	25.77	0.57	0.750			
0.2441	15622.94	3.9560	3.9560	0.8790	25.77	0.57	0.750			
0.2467	15790.17	3.9530	3.9531	0.8823	25.77	0.57	0.750			
0.2493	15958.39	3.9500	3.9501	0.8892	25.77	0.57	0.750			
0.2520	16129.49	3.9470	3.9468	0.8904	25.77	0.57	0.750			
0.2547	16300.26	3.9440	3.9441	0.8933	25.77	0.57	0.750			
0.2574	16473.31	3.9410	3.9411	0.8921	25.77	0.57	0.750			
0.2601	16645.12	3.9380	3.9381	0.8939	25.77	0.57	0.750			
0.2628	16818.49	3.9350	3.9350	0.8972	25.77	0.57	0.750			
0.2654	16987.01	3.9320	3.9317	0.8900	25.77	0.57	0.750			
0.2681	17159.29	3.9290	3.9290	0.8791	25.77	0.57	0.750			
0.2707	17327.83	3.9260	3.9260	0.8859	25.77	0.57	0.750			
0.2734	17497.95	3.9230	3.9231	0.8890	25.77	0.57	0.750			
0.2761	17668.73	3.9200	3.9201	0.8937	25.77	0.57	0.750			
0.2787	17839.21	3.9170	3.9171	0.8900	25.77	0.57	0.750			
0.2814	18012.42	3.9140	3.9141	0.8827	25.76	0.56	0.750			
0.2841	18180.49	3.9110	3.9110	0.8901	25.76	0.56	0.750			
0.2868	18352.12	3.9080	3.9081	0.8930	25.76	0.56	0.750			
0.2894	18521.54	3.9050	3.9049	0.8885	25.75	0.55	0.750			
0.2921	18692.63	3.9020	3.9021	0.8922	25.75	0.55	0.750			
0.2948	18865.07	3.8990	3.8991	0.8891	25.74	0.54	0.750			
0.2975	19037.57	3.8960	3.8960	0.8919	25.74	0.54	0.750			
0.3002	19210.45	3.8930	3.8930	0.8980	25.73	0.53	0.750			
0.3028	19378.78	3.8900	3.8898	0.8892	25.73	0.53	0.750			
0.3055	19551.87	3.8870	3.8869	0.8865	25.73	0.53	0.750			
0.3082	19721.60	3.8840	3.8841	0.8906	25.72	0.52	0.750			
0.3108	19892.35	3.8810	3.8810	0.8950	25.72	0.52	0.750			
0.3135	20064.57	3.8780	3.8781	0.8986	25.71	0.51	0.750			
0.3162	20235.71	3.8750	3.8751	0.8974	25.71	0.51	0.750			
0.3189	20409.29	3.8720	3.8721	0.8910	25.70	0.50	0.750			
0.3216	20581.74	3.8690	3.8690	0.8968	25.70	0.50	0.750			
0.3243	20753.70	3.8660	3.8660	0.8966	25.70	0.50	0.750			
0.3269	20923.84	3.8630	3.8630	0.8959	25.69	0.49	0.750			
0.3296	21095.28	3.8600	3.8601	0.9013	25.69	0.49	0.750			
0.3323	21268.96	3.8570	3.8570	0.8969	25.68	0.48	0.750			
0.3350	21440.76	3.8540	3.8540	0.9071	25.67	0.47	0.750			
0.3378	21616.87	3.8510	3.8511	0.9169	25.67	0.47	0.750			
0.3406	21795.33	3.8480	3.8475	0.8904	25.66	0.46	0.750			
0.3432	21966.78	3.8450	3.8451	0.9115	25.65	0.45	0.750			
0.3459	22139.27	3.8420	3.8422	0.9330	25.65	0.45	0.750			
0.3487	22318.82	3.8390	3.8390	0.9486	25.64	0.44	0.750	0.305	0.438	
0.3516	22501.82	3.8360	3.8363	0.9558	25.63	0.43	0.750			
0.3546	22694.63	3.8330	3.8331	0.9503	25.62	0.42	0.750			
0.3575	22880.04	3.8300	3.8301	0.9706	25.61	0.41	0.750			
0.3604	23064.24	3.8270	3.8271	0.9702	25.61	0.41	0.750			
0.3633	23248.81	3.8240	3.8241	0.9677	25.60	0.40	0.750			
0.3661	23431.32	3.8210	3.8209	0.9721	25.59	0.39	0.750			
0.3691	23619.52	3.8180	3.8183	0.9816	25.58	0.38	0.750			
0.3720	23810.65	3.8150	3.8151	0.9985	25.57	0.37	0.750			
0.3751	24005.24	3.8120	3.8120	1.0149	25.56	0.36	0.750			
0.3781	24201.04	3.8090	3.8091	1.0087	25.55	0.35	0.750			
0.3812	24395.88	3.8060	3.8060	1.0214	25.54	0.34	0.750			
0.3842	24590.28	3.8030	3.8031	1.0418	25.54	0.34	0.750			
0.3873	24785.91	3.8000	3.8002	1.0750	25.53	0.33	0.750			
0.3906	24995.92	3.7970	3.7968	1.0933	25.53	0.33	0.750			
0.3939	25209.91	3.7940	3.7926	1.1267	25.52	0.32	0.750			
0.3974	25434.54	3.7910	3.7914	1.1456	25.50	0.30	0.750			
0.4009	25660.16	3.7880	3.7882	1.1608	25.49	0.29	0.750			
0.4045	25886.09	3.7850	3.7850	1.1615	25.48	0.28	0.750			
0.4078	26100.91	3.7820	3.7820	1.1415	25.47	0.27	0.750			
0.4113	26320.99	3.7790	3.7790	1.1629	25.46	0.26	0.750			
0.4148	26547.65	3.7760	3.7759	1.1829	25.45	0.25	0.750			
0.4183	26773.49	3.7730	3.7730	1.1973	25.44	0.24	0.750			
0.4220	27006.47	3.7700	3.7700	1.2262	25.43	0.23	0.750			
0.4257	27247.97	3.7670	3.7670	1.2414	25.42	0.22	0.750			
0.4295	27486.00	3.7640	3.7640	1.2689	25.41	0.21	0.750			
0.4333	27730.61	3.7610	3.7610	1.2980	25.40	0.20	0.750			
0.4372	27983.28	3.7580	3.7582	1.3263	25.38	0.18	0.750			
0.4413	28240.15	3.7550	3.7549	1.3600	25.37	0.17	0.750			
0.4454	28503.11	3.7520	3.7521	1.3913	25.36	0.16	0.750			
0.4496	28775.10	3.7490	3.7490	1.4166	25.35	0.15	0.750			
0.4539	29049.68	3.7460	3.7460	1.4499	25.34	0.14	0.750			
0.4583	29329.16	3.7430	3.7431	1.4710	25.32	0.12	0.750			
0.4628	29616.30	3.7400	3.7401	1.4950	25.31	0.11	0.750			
0.4673	29907.44	3.7370	3.7369	1.5316	25.29	0.09	0.750			
0.4719	30200.22	3.7340	3.7338	1.5800	25.28	0.08	0.750			
0.4767	30511.16	3.7310	3.7309	1.6259	25.27	0.07	0.750			
0.4817	30830.70	3.7280	3.7282	1.6869	25.25	0.05	0.750			
0.4869	31159.43	3.7250	3.7252	1.7275	25.23	0.03	0.750			
0.4921	31496.63	3.7220	3.7220	1.7763	25.22	0.02	0.750			
0.4975	31842.17	3.7190	3.7192	1.8336	25.20	0.00	0.750			
0.5031	32196.73	3.7160	3.7163	1.8971	25.19	-0.01	0.750			
0.5088	32562.68	3.7130	3.7130	1.9374	25.18	-0.02	0.750			
0.5147	32942.81	3.7100	3.7100	1.9987	25.17	-0.03	0.750			
0.5209	33334.87	3.7070	3.7072	2.0819	25.16	-0.04	0.750			
0.5273	33745.00	3.7040	3.7040	2.1297	25.14	-0.06	0.750			
0.5338	34161.63	3.7010	3.7007	2.1680	25.13	-0.07	0.750			
0.5403	34581.22	3.6980	3.6983	2.2131	25.11	-0.09	0.750			
0.5470	35009.99	3.6950	3.6952	2.2681	25.10	-0.10	0.750			
0.5540	35454.81	3.6920	3.6918	2.3506	25.10	-0.10	0.750			
0.5612	35916.74	3.6890	3.6889	2.4063	25.09	-0.11	0.750			
0.5684	36379.97	3.6860	3.6861	2.4515	25.08	-0.12	0.750			
0.5760	36861.86	3.6830	3.6831	2.4920	25.07	-0.13	0.750			
0.5835	37343.94	3.6800	3.6799	2.4857	25.07	-0.13	0.750			
0.5910	37825.88	3.6770	3.6771	2.4473	25.07	-0.13	0.750			
0.5985	38302.43	3.6740	3.6740	2.4180	25.06	-0.14	0.750			
0.6055	38749.13	3.6710	3.6710	2.2896	25.06	-0.14	0.750			
0.6123	39184.49	3.6680	3.6681	2.1476	25.07	-0.13	0.750			
0.6185	39586.06	3.6650	3.6649	2.0343	25.07	-0.13	0.750			
0.6244	39961.39	3.6620	3.6623	1.9027	25.08	-0.12	0.750			
0.6298	40309.68	3.6590	3.6590	1.7649	25.08	-0.12	0.750			
0.6350	40639.23	3.6560	3.6559	1.6419	25.09	-0.11	0.750			
0.6397	40942.85	3.6530	3.6530	1.5243	25.09	-0.11	0.750			
0.6441	41220.71	3.6500	3.6501	1.4118	25.10	-0.10	0.750			
0.6481	41476.96	3.6470	3.6470	1.3101	25.10	-0.10	0.750			
0.6518	41716.19	3.6440	3.6439	1.2189	25.11	-0.09	0.750			
0.6553	41939.51	3.6410	3.6410	1.1431	25.11	-0.09	0.750			
0.6586	42152.41	3.6380	3.6380	1.0901	25.12	-0.08	0.750			
0.6618	42353.54	3.6350	3.6351	1.0436	25.12	-0.08	0.750			
0.6648	42548.00	3.6320	3.6317	1.0045	25.13	-0.07	0.750			
0.6677	42735.39	3.6290	3.6291	0.9645	25.14	-0.06	0.750			
0.6706	42917.51	3.6260	3.6260	0.9358	25.14	-0.06	0.750			
0.6734	43096.72	3.6230	3.6230	0.9113	25.15	-0.05	0.750			
0.6761	43270.26	3.6200	3.6200	0.8740	25.16	-0.04	0.750			
0.6786	43433.37	3.6170	3.6170	0.8287	25.16	-0.04	0.750			
0.6811	43589.13	3.6140	3.6141	0.7871	25.17	-0.03	0.750			
0.6835	43741.96	3.6110	3.6109	0.7101	25.18	-0.02	0.750			
0.6854	43867.55	3.6080	3.6080	0.6702	25.18	-0.02	0.750			
0.6873	43987.49	3.6050	3.6054	0.6205	25.19	-0.01	0.750			
0.6891	44100.98	3.6020	3.6001	0.5800	25.20	-0.00	0.750			
0.6907	44207.57	3.5990	3.5993	0.5382	25.20	0.00	0.750			
0.6923	44308.18	3.5960	3.5964	0.4936	25.21	0.01	0.750			
0.6938	44403.88	3.5930	3.5931	0.4520	25.21	0.01	0.750			
0.6952	44490.51	3.5900	3.5898	0.4040	25.22	0.02	0.750			
0.6962	44555.54	3.5870	3.5870	0.3358	25.22	0.02	0.750			
0.6971	44616.08	3.5840	3.5840	0.2890	25.22	0.02	0.750			
0.6979	44666.53	3.5810	3.5809	0.2397	25.22	0.02	0.750			
0.6986	44708.43	3.5780	3.5781	0.1908	25.23	0.03	0.750			
0.6991	44739.91	3.5750	3.5754	0.1426	25.23	0.03	0.750			
0.6994	44762.60	3.5720	3.5723	0.0923	25.23	0.03	0.750			
