Ah_balance (normalized)	Ah_balance (mAh)	Voltage - fit (V)	Voltage -  interpolate (V)	dQ/dV (1/V)	Temperature (°C)	Temperature - diff (°C)	Current (C)	R_DC 0ms (mOhm)	R_DC 50ms (mOhm)	R_DC 50 ms PEC (mOhm)
0.0004	23.93	4.1620	4.1617	-0.1426	24.70	0.02	-0.750			
0.0009	54.40	4.1590	4.1590	-0.1798	24.69	0.01	-0.750			
0.0014	92.69	4.1560	4.1561	-0.2203	24.69	0.01	-0.750			
0.0022	139.35	4.1530	4.1530	-0.2591	24.69	0.01	-0.750			
0.0030	192.60	4.1500	4.1500	-0.2993	24.69	0.01	-0.750			
0.0040	254.57	4.1470	4.1470	-0.3367	24.69	0.01	-0.750			
0.0050	322.44	4.1440	4.1440	-0.3764	24.69	0.01	-0.750			
0.0062	399.61	4.1410	4.1410	-0.4126	24.69	0.01	-0.750			
0.0076	483.32	4.1380	4.1380	-0.4434	24.68	0.00	-0.750			
0.0089	572.02	4.1350	4.1348	-0.4780	24.68	0.00	-0.750			
0.0104	667.63	4.1320	4.1323	-0.5069	24.68	-0.00	-0.750			
0.0120	767.85	4.1290	4.1289	-0.5326	24.68	-0.00	-0.750			
0.0136	873.08	4.1260	4.1260	-0.5583	24.67	-0.01	-0.750			
0.0153	980.35	4.1230	4.1231	-0.5843	24.67	-0.01	-0.750			
0.0172	1099.20	4.1200	4.1200	-0.6031	24.67	-0.01	-0.750			
0.0191	1219.67	4.1170	4.1168	-0.6190	24.67	-0.01	-0.750			
0.0209	1339.20	4.1140	4.1139	-0.6235	24.66	-0.02	-0.750			
0.0228	1461.01	4.1110	4.1115	-0.6396	24.66	-0.02	-0.750			
0.0247	1583.85	4.1080	4.1079	-0.6468	24.66	-0.02	-0.750			
0.0267	1707.89	4.1050	4.1048	-0.6489	24.66	-0.02	-0.750			
0.0286	1829.20	4.1020	4.1022	-0.6575	24.66	-0.02	-0.750			
0.0307	1961.70	4.0990	4.0991	-0.6819	24.65	-0.03	-0.750			
0.0327	2094.27	4.0960	4.0957	-0.6880	24.65	-0.03	-0.750			
0.0348	2227.88	4.0930	4.0931	-0.6952	24.65	-0.03	-0.750			
0.0369	2361.90	4.0900	4.0901	-0.6973	24.65	-0.03	-0.750			
0.0390	2498.66	4.0870	4.0869	-0.7049	24.65	-0.03	-0.750			
0.0412	2635.30	4.0840	4.0839	-0.7157	24.65	-0.03	-0.750			
0.0433	2770.49	4.0810	4.0810	-0.7159	24.64	-0.04	-0.750			
0.0455	2910.69	4.0780	4.0778	-0.7223	24.64	-0.04	-0.750			
0.0477	3050.25	4.0750	4.0755	-0.7271	24.64	-0.04	-0.750			
0.0498	3190.11	4.0720	4.0720	-0.7312	24.64	-0.04	-0.750			
0.0520	3329.01	4.0690	4.0690	-0.7423	24.64	-0.04	-0.750			
0.0543	3472.94	4.0660	4.0660	-0.7354	24.64	-0.04	-0.750			
0.0565	3616.24	4.0630	4.0629	-0.7431	24.64	-0.04	-0.750			
0.0587	3758.21	4.0600	4.0600	-0.7416	24.64	-0.04	-0.750			
0.0610	3902.20	4.0570	4.0567	-0.7410	24.64	-0.04	-0.750			
0.0632	4042.47	4.0540	4.0539	-0.7425	24.64	-0.04	-0.750			
0.0654	4182.90	4.0510	4.0510	-0.7456	24.64	-0.04	-0.750			
0.0676	4325.38	4.0480	4.0480	-0.7490	24.64	-0.04	-0.750			
0.0699	4474.77	4.0450	4.0450	-0.7607	24.64	-0.04	-0.750			
0.0722	4621.25	4.0420	4.0420	-0.7551	24.64	-0.04	-0.750			
0.0745	4765.93	4.0390	4.0391	-0.7586	24.64	-0.04	-0.750			
0.0767	4910.52	4.0360	4.0360	-0.7652	24.64	-0.04	-0.750			
0.0790	5057.45	4.0330	4.0330	-0.7594	24.64	-0.04	-0.750			
0.0813	5203.72	4.0300	4.0299	-0.7566	24.64	-0.04	-0.750			
0.0836	5349.77	4.0270	4.0271	-0.7592	24.64	-0.04	-0.750			
0.0859	5495.08	4.0240	4.0241	-0.7611	24.64	-0.04	-0.750			
0.0881	5637.79	4.0210	4.0210	-0.7787	24.64	-0.04	-0.750			
0.0904	5787.30	4.0180	4.0179	-0.7762	24.65	-0.03	-0.750			
0.0927	5935.78	4.0150	4.0150	-0.7846	24.65	-0.03	-0.750			
0.0952	6091.17	4.0120	4.0120	-0.7980	24.66	-0.02	-0.750			
0.0976	6247.87	4.0090	4.0096	-0.8004	24.66	-0.02	-0.750			
0.1000	6401.63	4.0060	4.0060	-0.7972	24.66	-0.02	-0.750			
0.1024	6553.71	4.0030	4.0031	-0.7949	24.66	-0.02	-0.750			
0.1048	6704.85	4.0000	4.0001	-0.7923	24.66	-0.02	-0.750			
0.1072	6858.89	3.9970	3.9969	-0.7888	24.66	-0.02	-0.750			
0.1095	7007.88	3.9940	3.9939	-0.7830	24.66	-0.02	-0.750			
0.1119	7158.84	3.9910	3.9911	-0.7817	24.66	-0.02	-0.750			
0.1142	7307.17	3.9880	3.9881	-0.7851	24.67	-0.01	-0.750			
0.1165	7456.63	3.9850	3.9849	-0.7821	24.67	-0.01	-0.750			
0.1188	7605.97	3.9820	3.9820	-0.7877	24.67	-0.01	-0.750			
0.1212	7758.72	3.9790	3.9789	-0.7878	24.68	-0.00	-0.750			
0.1236	7911.74	3.9760	3.9757	-0.7900	24.68	0.00	-0.750			
0.1260	8061.60	3.9730	3.9732	-0.7994	24.68	0.00	-0.750			
0.1284	8217.33	3.9700	3.9700	-0.8016	24.68	0.00	-0.750			
0.1308	8370.16	3.9670	3.9668	-0.8030	24.68	0.00	-0.750			
0.1332	8526.61	3.9640	3.9640	-0.8116	24.68	0.00	-0.750			
0.1357	8682.58	3.9610	3.9613	-0.8084	24.68	0.00	-0.750			
0.1381	8838.06	3.9580	3.9579	-0.8138	24.68	0.00	-0.750			
0.1405	8994.60	3.9550	3.9550	-0.8117	24.68	0.00	-0.750			
0.1429	9148.05	3.9520	3.9521	-0.8088	24.68	0.00	-0.750			
0.1454	9305.92	3.9490	3.9488	-0.8133	24.68	0.00	-0.750			
0.1478	9460.12	3.9460	3.9462	-0.8131	24.68	0.00	-0.750			
0.1503	9616.90	3.9430	3.9429	-0.8160	24.68	0.00	-0.750			
0.1527	9775.59	3.9400	3.9400	-0.8292	24.69	0.01	-0.750			
0.1552	9935.53	3.9370	3.9369	-0.8229	24.69	0.01	-0.750			
0.1577	10093.95	3.9340	3.9339	-0.8284	24.70	0.02	-0.750			
0.1602	10252.63	3.9310	3.9314	-0.8291	24.70	0.02	-0.750			
0.1627	10412.21	3.9280	3.9278	-0.8278	24.70	0.02	-0.750			
0.1652	10570.85	3.9250	3.9249	-0.8299	24.71	0.03	-0.750			
0.1677	10730.75	3.9220	3.9219	-0.8258	24.71	0.03	-0.750			
0.1702	10891.58	3.9190	3.9190	-0.8282	24.72	0.04	-0.750			
0.1726	11049.17	3.9160	3.9165	-0.8316	24.72	0.04	-0.750			
0.1751	11205.76	3.9130	3.9130	-0.8277	24.72	0.04	-0.750			
0.1776	11365.13	3.9100	3.9099	-0.8348	24.72	0.04	-0.750			
0.1801	11525.07	3.9070	3.9070	-0.8355	24.72	0.04	-0.750			
0.1826	11689.21	3.9040	3.9040	-0.8471	24.72	0.04	-0.750			
0.1852	11851.23	3.9010	3.9012	-0.8449	24.72	0.04	-0.750			
0.1877	12014.55	3.8980	3.8979	-0.8437	24.72	0.04	-0.750			
0.1902	12174.55	3.8950	3.8950	-0.8440	24.73	0.05	-0.750			
0.1928	12336.04	3.8920	3.8920	-0.8431	24.73	0.05	-0.750			
0.1953	12499.43	3.8890	3.8890	-0.8462	24.74	0.06	-0.750			
0.1978	12662.13	3.8860	3.8861	-0.8435	24.74	0.06	-0.750			
0.2004	12824.75	3.8830	3.8829	-0.8400	24.74	0.06	-0.750			
0.2029	12985.21	3.8800	3.8800	-0.8483	24.74	0.06	-0.750			
0.2055	13149.10	3.8770	3.8770	-0.8431	24.75	0.07	-0.750			
0.2080	13312.00	3.8740	3.8738	-0.8386	24.75	0.07	-0.750			
0.2105	13472.16	3.8710	3.8714	-0.8398	24.75	0.07	-0.750			
0.2130	13632.85	3.8680	3.8680	-0.8384	24.75	0.07	-0.750			
0.2155	13794.34	3.8650	3.8648	-0.8416	24.75	0.07	-0.750			
0.2181	13955.85	3.8620	3.8620	-0.8359	24.76	0.08	-0.750			
0.2206	14117.00	3.8590	3.8590	-0.8422	24.76	0.08	-0.750			
0.2231	14279.78	3.8560	3.8562	-0.8413	24.76	0.08	-0.750			
0.2257	14441.98	3.8530	3.8529	-0.8384	24.76	0.08	-0.750			
0.2281	14601.44	3.8500	3.8500	-0.8359	24.77	0.09	-0.750			
0.2306	14760.37	3.8470	3.8469	-0.8274	24.77	0.09	-0.750			
0.2332	14923.18	3.8440	3.8440	-0.8303	24.78	0.10	-0.750			
0.2356	15081.22	3.8410	3.8411	-0.8274	24.78	0.10	-0.750			
0.2381	15237.74	3.8380	3.8380	-0.8189	24.78	0.10	-0.750			
0.2406	15399.10	3.8350	3.8349	-0.8114	24.78	0.10	-0.750			
0.2431	15557.64	3.8320	3.8318	-0.7852	24.79	0.11	-0.750			
0.2455	15709.82	3.8290	3.8291	-0.7640	24.79	0.11	-0.750			
0.2477	15850.48	3.8260	3.8267	-0.7518	24.79	0.11	-0.750			
0.2498	15988.93	3.8230	3.8222	-0.7407	24.79	0.11	-0.750			
0.2519	16123.02	3.8200	3.8197	-0.7528	24.79	0.11	-0.750			
0.2541	16263.81	3.8170	3.8170	-0.7571	24.80	0.12	-0.750			
0.2564	16412.17	3.8140	3.8141	-0.7787	24.80	0.12	-0.750			
0.2589	16570.94	3.8110	3.8109	-0.7951	24.80	0.12	-0.750			
0.2614	16728.45	3.8080	3.8080	-0.7975	24.80	0.12	-0.750			
0.2637	16879.74	3.8050	3.8050	-0.7960	24.81	0.13	-0.750			
0.2661	17032.23	3.8020	3.8020	-0.7886	24.81	0.13	-0.750			
0.2685	17182.32	3.7990	3.7990	-0.7778	24.81	0.13	-0.750			
0.2708	17333.42	3.7960	3.7959	-0.7803	24.82	0.14	-0.750			
0.2732	17483.04	3.7930	3.7932	-0.7698	24.82	0.14	-0.750			
0.2754	17625.12	3.7900	3.7901	-0.7869	24.82	0.14	-0.750			
0.2778	17777.66	3.7870	3.7870	-0.7798	24.82	0.14	-0.750			
0.2801	17927.03	3.7840	3.7839	-0.7759	24.82	0.14	-0.750			
0.2825	18078.62	3.7810	3.7808	-0.7818	24.82	0.14	-0.750			
0.2848	18229.29	3.7780	3.7786	-0.7830	24.82	0.14	-0.750			
0.2872	18378.64	3.7750	3.7749	-0.7785	24.82	0.14	-0.750			
0.2895	18528.21	3.7720	3.7720	-0.7780	24.83	0.15	-0.750			
0.2918	18673.18	3.7690	3.7689	-0.7753	24.83	0.15	-0.750			
0.2942	18825.93	3.7660	3.7661	-0.7849	24.83	0.15	-0.750			
0.2965	18974.49	3.7630	3.7629	-0.7851	24.84	0.16	-0.750			
0.2988	19124.87	3.7600	3.7600	-0.7914	24.84	0.16	-0.750			
0.3012	19275.85	3.7570	3.7570	-0.8075	24.84	0.16	-0.750			
0.3036	19433.57	3.7540	3.7539	-0.8086	24.84	0.16	-0.750			
0.3061	19589.04	3.7510	3.7510	-0.8136	24.84	0.16	-0.750			
0.3085	19746.90	3.7480	3.7479	-0.8188	24.84	0.16	-0.750			
0.3110	19905.16	3.7450	3.7450	-0.8284	24.84	0.16	-0.750			
0.3135	20062.54	3.7420	3.7419	-0.8487	24.84	0.16	-0.750			
0.3160	20226.63	3.7390	3.7387	-0.8534	24.84	0.16	-0.750			
0.3186	20393.35	3.7360	3.7359	-0.8529	24.84	0.16	-0.750			
0.3213	20561.92	3.7330	3.7329	-0.8709	24.84	0.16	-0.750			
0.3239	20728.16	3.7300	3.7299	-0.8819	24.84	0.16	-0.750			
0.3265	20897.88	3.7270	3.7267	-0.8986	24.84	0.16	-0.750			
0.3291	21064.12	3.7240	3.7239	-0.9065	24.84	0.16	-0.750			
0.3319	21244.02	3.7210	3.7210	-0.9309	24.84	0.16	-0.750			
0.3348	21428.33	3.7180	3.7182	-0.9449	24.84	0.16	-0.750			
0.3377	21612.26	3.7150	3.7149	-0.9565	24.84	0.16	-0.750			
0.3405	21795.02	3.7120	3.7120	-0.9604	24.83	0.15	-0.750			
0.3434	21979.19	3.7090	3.7089	-0.9640	24.83	0.15	-0.750			
0.3463	22162.46	3.7060	3.7059	-0.9864	24.82	0.14	-0.750			
0.3493	22352.91	3.7030	3.7027	-1.0107	24.82	0.14	-0.750			
0.3524	22550.46	3.7000	3.6998	-1.0293	24.81	0.13	-0.750			
0.3555	22753.81	3.6970	3.6974	-1.0319	24.81	0.13	-0.750	0.391	0.539	
0.3586	22951.06	3.6940	3.6941	-1.0328	24.80	0.12	-0.750			
0.3618	23155.16	3.6910	3.6909	-1.0573	24.80	0.12	-0.750			
0.3650	23358.60	3.6880	3.6880	-1.0630	24.80	0.12	-0.750			
0.3681	23556.10	3.6850	3.6847	-1.0708	24.80	0.12	-0.750			
0.3712	23757.93	3.6820	3.6819	-1.0942	24.80	0.12	-0.750			
0.3747	23980.75	3.6790	3.6790	-1.1409	24.79	0.11	-0.750			
0.3782	24206.70	3.6760	3.6758	-1.1625	24.79	0.11	-0.750			
0.3818	24433.37	3.6730	3.6729	-1.1810	24.78	0.10	-0.750			
0.3854	24663.46	3.6700	3.6705	-1.2244	24.77	0.09	-0.750			
0.3891	24902.76	3.6670	3.6669	-1.2339	24.76	0.08	-0.750			
0.3928	25139.47	3.6640	3.6638	-1.2396	24.76	0.08	-0.750			
0.3964	25371.53	3.6610	3.6609	-1.2493	24.75	0.07	-0.750			
0.4003	25622.37	3.6580	3.6578	-1.2934	24.74	0.06	-0.750			
0.4042	25866.83	3.6550	3.6548	-1.3123	24.73	0.05	-0.750			
0.4081	26116.74	3.6520	3.6518	-1.3457	24.72	0.04	-0.750			
0.4123	26386.34	3.6490	3.6488	-1.3899	24.72	0.04	-0.750			
0.4165	26658.79	3.6460	3.6459	-1.4043	24.71	0.03	-0.750			
0.4208	26931.19	3.6430	3.6429	-1.4352	24.70	0.02	-0.750			
0.4252	27214.86	3.6400	3.6397	-1.4644	24.70	0.02	-0.750			
0.4296	27494.98	3.6370	3.6367	-1.4798	24.69	0.01	-0.750			
0.4340	27778.01	3.6340	3.6343	-1.4868	24.68	0.00	-0.750			
0.4385	28063.99	3.6310	3.6312	-1.4896	24.67	-0.01	-0.750			
0.4431	28358.05	3.6280	3.6284	-1.5411	24.67	-0.01	-0.750			
0.4476	28648.94	3.6250	3.6250	-1.5641	24.66	-0.02	-0.750			
0.4522	28942.66	3.6220	3.6220	-1.6105	24.65	-0.03	-0.750			
0.4570	29250.69	3.6190	3.6188	-1.6507	24.64	-0.04	-0.750			
0.4623	29589.83	3.6160	3.6156	-1.7014	24.63	-0.05	-0.750			
0.4675	29922.10	3.6130	3.6127	-1.7248	24.62	-0.06	-0.750			
0.4727	30251.78	3.6100	3.6105	-1.7634	24.61	-0.07	-0.750			
0.4779	30585.98	3.6070	3.6066	-1.7857	24.60	-0.08	-0.750			
0.4834	30938.06	3.6040	3.6036	-1.7909	24.59	-0.09	-0.750			
0.4887	31279.16	3.6010	3.6008	-1.8484	24.59	-0.09	-0.750			
0.4945	31647.73	3.5980	3.5982	-1.9045	24.58	-0.10	-0.750			
0.5001	32009.16	3.5950	3.5947	-1.9381	24.58	-0.10	-0.750			
0.5061	32390.12	3.5920	3.5921	-1.9600	24.57	-0.11	-0.750			
0.5121	32773.02	3.5890	3.5889	-1.9888	24.56	-0.12	-0.750			
0.5182	33161.87	3.5860	3.5863	-2.0168	24.55	-0.13	-0.750			
0.5240	33534.13	3.5830	3.5832	-2.0202	24.54	-0.14	-0.750			
0.5304	33948.50	3.5800	3.5803	-2.1124	24.54	-0.14	-0.750			
0.5369	34361.09	3.5770	3.5766	-2.1154	24.54	-0.14	-0.750			
0.5435	34782.94	3.5740	3.5735	-2.1156	24.53	-0.15	-0.750			
0.5499	35192.06	3.5710	3.5705	-2.0937	24.52	-0.16	-0.750			
0.5563	35602.79	3.5680	3.5675	-2.1338	24.52	-0.16	-0.750			
0.5625	36000.68	3.5650	3.5645	-2.1355	24.52	-0.16	-0.750			
0.5692	36426.28	3.5620	3.5616	-2.1564	24.52	-0.16	-0.750			
0.5757	36845.80	3.5590	3.5588	-2.1510	24.51	-0.17	-0.750			
0.5823	37268.27	3.5560	3.5562	-2.1382	24.50	-0.18	-0.750			
0.5886	37670.91	3.5530	3.5529	-2.1118	24.50	-0.18	-0.750			
0.5948	38068.05	3.5500	3.5504	-2.0814	24.50	-0.18	-0.750			
0.6010	38465.91	3.5470	3.5467	-2.0870	24.51	-0.17	-0.750			
0.6075	38877.35	3.5440	3.5439	-2.1254	24.52	-0.16	-0.750			
0.6139	39290.12	3.5410	3.5408	-2.0862	24.52	-0.16	-0.750			
0.6202	39690.88	3.5380	3.5383	-2.0395	24.52	-0.16	-0.750			
0.6262	40075.20	3.5350	3.5353	-1.9784	24.52	-0.16	-0.750			
0.6321	40455.77	3.5320	3.5321	-1.9410	24.53	-0.15	-0.750			
0.6377	40811.36	3.5290	3.5286	-1.8669	24.53	-0.15	-0.750			
0.6434	41174.65	3.5260	3.5258	-1.8527	24.54	-0.14	-0.750			
0.6489	41530.33	3.5230	3.5228	-1.8217	24.54	-0.14	-0.750			
0.6543	41874.39	3.5200	3.5194	-1.7539	24.56	-0.12	-0.750			
0.6594	42200.73	3.5170	3.5166	-1.6829	24.57	-0.11	-0.750			
0.6645	42526.93	3.5140	3.5146	-1.6648	24.58	-0.10	-0.750			
0.6694	42840.67	3.5110	3.5114	-1.6264	24.59	-0.09	-0.750			
0.6742	43148.92	3.5080	3.5078	-1.5731	24.61	-0.07	-0.750			
0.6790	43453.42	3.5050	3.5052	-1.5698	24.62	-0.06	-0.750			
0.6837	43757.98	3.5020	3.5017	-1.5564	24.64	-0.04	-0.750			
0.6885	44065.05	3.4990	3.4984	-1.5065	24.65	-0.03	-0.750			
0.6929	44345.89	3.4960	3.4963	-1.4369	24.67	-0.01	-0.750			
0.6971	44612.99	3.4930	3.4932	-1.3726	24.68	-0.00	-0.750			
0.7012	44876.10	3.4900	3.4896	-1.3019	24.69	0.01	-0.750			
0.7047	45102.31	3.4870	3.4870	-1.3009	24.70	0.02	-0.750			
0.7086	45352.47	3.4840	3.4840	-1.2862	24.72	0.04	-0.750			
