Ah_balance (normalized)	Ah_balance (mAh)	Voltage - fit (V)	Voltage -  interpolate (V)	dQ/dV (1/V)	Temperature (°C)	Temperature - diff (°C)	Current (C)	R_DC 0ms (mOhm)	R_DC 50ms (mOhm)	R_DC 50 ms PEC (mOhm)
0.0586	3747.33	4.1950	4.1969	1.2040	25.12	1.06	0.751			
0.0617	3946.38	4.1920	4.1925	1.0416	25.11	1.05	0.750			
0.0645	4126.82	4.1890	4.1891	0.9488	25.11	1.05	0.750			
0.0668	4275.82	4.1860	4.1860	0.7715	25.10	1.04	0.750			
0.0692	4425.72	4.1830	4.1830	0.7834	25.10	1.04	0.750			
0.0715	4577.72	4.1800	4.1801	0.7820	25.10	1.04	0.750			
0.0739	4727.73	4.1770	4.1769	0.7832	25.09	1.03	0.750			
0.0762	4878.44	4.1740	4.1741	0.7818	25.09	1.03	0.750			
0.0786	5027.97	4.1710	4.1710	0.7757	25.08	1.02	0.750			
0.0809	5176.77	4.1680	4.1680	0.7771	25.08	1.02	0.750			
0.0832	5326.12	4.1650	4.1649	0.7772	25.07	1.01	0.750			
0.0855	5472.39	4.1620	4.1621	0.7762	25.06	1.00	0.750			
0.0879	5622.86	4.1590	4.1591	0.7821	25.06	1.00	0.750			
0.0902	5771.69	4.1560	4.1560	0.7847	25.06	1.00	0.750			
0.0926	5924.89	4.1530	4.1530	0.7837	25.06	1.00	0.750			
0.0949	6074.97	4.1500	4.1501	0.7875	25.05	0.99	0.750			
0.0973	6225.96	4.1470	4.1471	0.7916	25.05	0.99	0.750			
0.0997	6379.13	4.1440	4.1436	0.7948	25.05	0.99	0.750			
0.1020	6530.63	4.1410	4.1411	0.7954	25.05	0.99	0.750			
0.1045	6685.54	4.1380	4.1382	0.7953	25.04	0.98	0.750			
0.1069	6839.14	4.1350	4.1350	0.7991	25.04	0.98	0.750			
0.1093	6992.73	4.1320	4.1320	0.8049	25.03	0.97	0.750			
0.1116	7143.73	4.1290	4.1290	0.7993	25.03	0.97	0.750			
0.1126	7206.11	4.1980	4.1276	427.5106	25.03	0.97	0.750			
0.1140	7298.22	4.1260	4.1260	0.8008	25.03	0.97	0.750			
0.1165	7454.39	4.1230	4.1230	0.8017	25.02	0.96	0.750			
0.1189	7607.92	4.1200	4.1201	0.8022	25.02	0.96	0.750			
0.1213	7763.09	4.1170	4.1170	0.8046	25.02	0.96	0.750			
0.1237	7915.43	4.1140	4.1139	0.8017	25.01	0.95	0.750			
0.1261	8069.24	4.1110	4.1110	0.8026	25.01	0.95	0.750			
0.1285	8226.91	4.1080	4.1079	0.7970	25.01	0.95	0.750			
0.1309	8375.66	4.1050	4.1051	0.8080	25.01	0.95	0.750			
0.1333	8529.22	4.1020	4.1021	0.8205	25.00	0.94	0.750			
0.1357	8686.89	4.0990	4.0990	0.8314	25.00	0.94	0.750			
0.1383	8849.40	4.0960	4.0960	0.8353	25.00	0.94	0.750			
0.1408	9012.25	4.0930	4.0933	0.8404	24.99	0.93	0.750			
0.1434	9178.88	4.0900	4.0901	0.8450	24.99	0.93	0.750			
0.1460	9342.21	4.0870	4.0870	0.8375	24.99	0.93	0.750			
0.1484	9496.29	4.0840	4.0840	0.8221	24.98	0.92	0.750			
0.1509	9654.88	4.0810	4.0810	0.8281	24.98	0.92	0.750			
0.1534	9816.03	4.0780	4.0779	0.8235	24.97	0.91	0.750			
0.1558	9974.03	4.0750	4.0750	0.8276	24.97	0.91	0.750			
0.1583	10132.48	4.0720	4.0721	0.8298	24.97	0.91	0.750			
0.1608	10290.86	4.0690	4.0691	0.8346	24.96	0.90	0.750			
0.1633	10450.71	4.0660	4.0660	0.8377	24.96	0.90	0.750			
0.1658	10612.93	4.0630	4.0630	0.8346	24.95	0.89	0.750			
0.1684	10775.62	4.0600	4.0600	0.8315	24.95	0.89	0.750			
0.1709	10934.69	4.0570	4.0571	0.8399	24.95	0.89	0.750			
0.1733	11093.98	4.0540	4.0541	0.8418	24.94	0.88	0.750			
0.1758	11254.32	4.0510	4.0510	0.8484	24.94	0.88	0.750			
0.1784	11418.12	4.0480	4.0481	0.8566	24.93	0.87	0.750			
0.1810	11585.07	4.0450	4.0450	0.8631	24.93	0.87	0.750			
0.1836	11753.59	4.0420	4.0420	0.8673	24.93	0.87	0.750			
0.1863	11923.18	4.0390	4.0390	0.8687	24.92	0.86	0.750			
0.1889	12086.60	4.0360	4.0360	0.8624	24.92	0.86	0.750			
0.1914	12251.68	4.0330	4.0330	0.8615	24.91	0.85	0.750			
0.1940	12416.98	4.0300	4.0300	0.8625	24.91	0.85	0.750			
0.1966	12581.36	4.0270	4.0269	0.8678	24.91	0.85	0.750			
0.1992	12748.99	4.0240	4.0240	0.8684	24.90	0.84	0.750			
0.2018	12916.34	4.0210	4.0210	0.8740	24.90	0.84	0.750			
0.2044	13084.26	4.0180	4.0180	0.8728	24.89	0.83	0.750			
0.2071	13251.59	4.0150	4.0150	0.8751	24.89	0.83	0.750			
0.2097	13419.29	4.0120	4.0120	0.8717	24.88	0.82	0.750			
0.2123	13585.92	4.0090	4.0084	0.8775	24.88	0.82	0.750			
0.2149	13753.44	4.0060	4.0062	0.8799	24.88	0.82	0.750			
0.2176	13924.16	4.0030	4.0026	0.8914	24.87	0.81	0.750			
0.2203	14096.07	4.0000	4.0001	0.8981	24.87	0.81	0.750			
0.2230	14271.29	3.9970	3.9970	0.9050	24.86	0.80	0.750			
0.2257	14445.77	3.9940	3.9940	0.9077	24.86	0.80	0.750			
0.2285	14623.24	3.9910	3.9910	0.9035	24.86	0.80	0.750			
0.2311	14792.71	3.9880	3.9880	0.9016	24.85	0.79	0.750			
0.2338	14965.87	3.9850	3.9850	0.9023	24.85	0.79	0.750			
0.2365	15138.10	3.9820	3.9819	0.9023	24.85	0.79	0.750			
0.2392	15311.26	3.9790	3.9791	0.9048	24.85	0.79	0.750			
0.2420	15486.75	3.9760	3.9760	0.8991	24.84	0.78	0.750			
0.2447	15657.92	3.9730	3.9731	0.9035	24.83	0.77	0.750			
0.2474	15834.36	3.9700	3.9700	0.8967	24.83	0.77	0.750			
0.2500	16001.79	3.9670	3.9666	0.9040	24.82	0.76	0.750			
0.2527	16174.65	3.9640	3.9642	0.9106	24.82	0.76	0.750			
0.2555	16350.86	3.9610	3.9609	0.9141	24.81	0.75	0.750			
0.2583	16528.83	3.9580	3.9580	0.9230	24.81	0.75	0.750			
0.2610	16706.60	3.9550	3.9551	0.9182	24.80	0.74	0.750			
0.2638	16884.55	3.9520	3.9520	0.9202	24.80	0.74	0.750			
0.2666	17064.01	3.9490	3.9490	0.9242	24.79	0.73	0.750			
0.2693	17235.92	3.9460	3.9461	0.9164	24.78	0.72	0.750			
0.2721	17412.13	3.9430	3.9430	0.9196	24.78	0.72	0.750			
0.2748	17589.62	3.9400	3.9394	0.9222	24.77	0.71	0.750			
0.2777	17770.31	3.9370	3.9370	0.9112	24.76	0.70	0.750			
0.2804	17943.17	3.9340	3.9340	0.9160	24.76	0.70	0.750			
0.2831	18118.79	3.9310	3.9311	0.9186	24.75	0.69	0.750			
0.2859	18295.99	3.9280	3.9281	0.9161	24.74	0.68	0.750			
0.2886	18468.47	3.9250	3.9250	0.9180	24.74	0.68	0.750			
0.2913	18645.48	3.9220	3.9222	0.9237	24.73	0.67	0.750			
0.2941	18823.68	3.9190	3.9192	0.9317	24.72	0.66	0.750			
0.2969	19004.50	3.9160	3.9159	0.9368	24.71	0.65	0.750			
0.2997	19183.97	3.9130	3.9130	0.9329	24.70	0.64	0.750			
0.3026	19365.65	3.9100	3.9100	0.9301	24.69	0.63	0.750			
0.3054	19544.24	3.9070	3.9070	0.9344	24.68	0.62	0.750			
0.3082	19722.46	3.9040	3.9040	0.9347	24.67	0.61	0.750			
0.3110	19901.47	3.9010	3.9011	0.9377	24.66	0.60	0.750			
0.3138	20081.66	3.8980	3.8981	0.9401	24.65	0.59	0.750			
0.3166	20263.81	3.8950	3.8950	0.9391	24.64	0.58	0.750			
0.3194	20443.70	3.8920	3.8921	0.9444	24.63	0.57	0.750			
0.3223	20626.02	3.8890	3.8890	0.9516	24.61	0.55	0.750			
0.3251	20808.01	3.8860	3.8857	0.9440	24.60	0.54	0.750			
0.3280	20990.43	3.8830	3.8830	0.9383	24.59	0.53	0.750			
0.3308	21169.79	3.8800	3.8801	0.9520	24.58	0.52	0.750			
0.3336	21353.54	3.8770	3.8771	0.9601	24.57	0.51	0.750			
0.3365	21537.32	3.8740	3.8737	0.9569	24.56	0.50	0.750			
0.3394	21722.75	3.8710	3.8711	0.9590	24.55	0.49	0.750			
0.3423	21907.69	3.8680	3.8680	0.9642	24.54	0.48	0.750			
0.3452	22094.52	3.8650	3.8651	0.9700	24.52	0.46	0.750			
0.3481	22280.42	3.8620	3.8620	0.9613	24.51	0.45	0.750			
0.3510	22464.85	3.8590	3.8590	0.9658	24.49	0.43	0.750			
0.3539	22650.64	3.8560	3.8561	0.9645	24.48	0.42	0.750			
0.3568	22835.94	3.8530	3.8530	0.9700	24.47	0.41	0.750			
0.3597	23022.47	3.8500	3.8500	0.9747	24.45	0.39	0.750			
0.3626	23208.72	3.8470	3.8468	0.9773	24.44	0.38	0.750			
0.3656	23398.16	3.8440	3.8441	0.9712	24.42	0.36	0.750			
0.3685	23584.07	3.8410	3.8410	0.9816	24.41	0.35	0.750			
0.3714	23772.74	3.8380	3.8381	0.9870	24.40	0.34	0.750			
0.3744	23961.81	3.8350	3.8350	0.9876	24.38	0.32	0.750			
0.3774	24151.87	3.8320	3.8320	0.9935	24.37	0.31	0.750			
0.3803	24341.90	3.8290	3.8291	0.9947	24.35	0.29	0.750			
0.3833	24533.86	3.8260	3.8261	1.0017	24.34	0.28	0.750			
0.3864	24727.45	3.8230	3.8229	1.0111	24.32	0.26	0.750			
0.3894	24919.46	3.8200	3.8201	1.0066	24.31	0.25	0.750			
0.3924	25114.09	3.8170	3.8171	1.0167	24.30	0.24	0.750			
0.3955	25311.33	3.8140	3.8140	1.0225	24.28	0.22	0.750			
0.3986	25510.91	3.8110	3.8109	1.0325	24.27	0.21	0.750			
0.4016	25704.36	3.8080	3.8081	1.0233	24.25	0.19	0.750			
0.4047	25901.89	3.8050	3.8050	1.0292	24.24	0.18	0.750			
0.4078	26099.53	3.8020	3.8019	1.0327	24.22	0.16	0.750			
0.4109	26299.44	3.7990	3.7991	1.0375	24.21	0.15	0.750			
0.4141	26499.81	3.7960	3.7959	1.0274	24.19	0.13	0.750			
0.4172	26697.83	3.7930	3.7930	1.0357	24.18	0.12	0.750			
0.4203	26896.17	3.7900	3.7900	1.0371	24.16	0.10	0.750			
0.4234	27094.99	3.7870	3.7870	1.0355	24.15	0.09	0.750			
0.4265	27297.38	3.7840	3.7840	1.0172	24.13	0.07	0.750			
0.4296	27494.57	3.7810	3.7811	1.0041	24.12	0.06	0.750			
0.4326	27687.89	3.7780	3.7780	0.9758	24.11	0.05	0.750			
0.4355	27874.08	3.7750	3.7752	0.9503	24.10	0.04	0.750			
0.4383	28051.19	3.7720	3.7719	0.9040	24.09	0.03	0.750			
0.4410	28223.06	3.7690	3.7688	0.8537	24.08	0.02	0.750			
0.4435	28385.22	3.7660	3.7659	0.8017	24.08	0.02	0.750			
0.4459	28536.54	3.7630	3.7633	0.7388	24.07	0.01	0.750			
0.4480	28673.50	3.7600	3.7600	0.6674	24.06	0.00	0.750			
0.4500	28797.15	3.7570	3.7570	0.6000	24.06	-0.00	0.750			
0.4516	28901.13	3.7540	3.7540	0.5351	24.06	-0.00	0.750			
0.4531	28995.36	3.7510	3.7509	0.4781	24.05	-0.01	0.750			
0.4544	29080.41	3.7480	3.7480	0.4325	24.05	-0.01	0.750			
0.4556	29158.06	3.7450	3.7450	0.3915	24.05	-0.01	0.750			
0.4567	29228.79	3.7420	3.7420	0.3561	24.04	-0.02	0.750			
0.4577	29293.01	3.7390	3.7390	0.3249	24.04	-0.02	0.750			
0.4586	29351.35	3.7360	3.7360	0.2968	24.04	-0.02	0.750			
0.4595	29405.92	3.7330	3.7329	0.2656	24.04	-0.02	0.750			
0.4602	29454.91	3.7300	3.7299	0.2373	24.04	-0.02	0.750			
0.4609	29497.79	3.7270	3.7273	0.2063	24.03	-0.03	0.750			
0.4615	29535.32	3.7240	3.7241	0.1697	24.03	-0.03	0.750			
0.4619	29563.97	3.7210	3.7211	0.1187	24.03	-0.03	0.750			
