Ah_balance (normalized)	Ah_balance (mAh)	Voltage - fit (V)	Voltage -  interpolate (V)	dQ/dV (1/V)	Temperature (°C)	Temperature - diff (°C)	Current (C)	R_DC 0ms (mOhm)	R_DC 50ms (mOhm)	R_DC 50 ms PEC (mOhm)
0.0471	3013.57	4.1980	4.1980	0.7521	25.66	0.55	0.750			
0.0493	3157.69	4.1950	4.1950	0.7517	25.66	0.55	0.750			
0.0516	3303.24	4.1920	4.1920	0.7578	25.67	0.56	0.750			
0.0539	3449.41	4.1890	4.1889	0.7594	25.67	0.56	0.750			
0.0562	3595.30	4.1860	4.1860	0.7596	25.67	0.56	0.750			
0.0585	3742.13	4.1830	4.1830	0.7588	25.67	0.56	0.750			
0.0608	3889.94	4.1800	4.1799	0.7524	25.67	0.56	0.750			
0.0630	4031.84	4.1770	4.1771	0.7572	25.68	0.57	0.750			
0.0652	4175.39	4.1740	4.1741	0.7623	25.68	0.57	0.750			
0.0675	4322.14	4.1710	4.1708	0.7656	25.68	0.57	0.750			
0.0699	4470.40	4.1680	4.1681	0.7677	25.68	0.57	0.750			
0.0722	4618.54	4.1650	4.1652	0.7734	25.68	0.57	0.750			
0.0745	4768.23	4.1620	4.1620	0.7692	25.68	0.57	0.750			
0.0768	4915.33	4.1590	4.1590	0.7742	25.69	0.58	0.750			
0.0791	5060.65	4.1560	4.1561	0.7701	25.69	0.58	0.750			
0.0814	5209.74	4.1530	4.1531	0.7729	25.69	0.58	0.750			
0.0838	5360.09	4.1500	4.1501	0.7766	25.69	0.58	0.750			
0.0861	5509.45	4.1470	4.1471	0.7766	25.69	0.58	0.750			
0.0884	5659.59	4.1440	4.1440	0.7788	25.69	0.58	0.750			
0.0907	5807.71	4.1410	4.1410	0.7751	25.69	0.58	0.750			
0.0931	5956.93	4.1380	4.1379	0.7773	25.69	0.58	0.750			
0.0954	6106.89	4.1350	4.1350	0.7795	25.69	0.58	0.750			
0.0978	6259.07	4.1320	4.1320	0.7722	25.70	0.59	0.750			
0.1001	6406.78	4.1290	4.1290	0.7762	25.70	0.59	0.750			
0.1024	6554.08	4.1260	4.1261	0.7778	25.70	0.59	0.750			
0.1047	6701.47	4.1230	4.1231	0.7801	25.71	0.60	0.750			
0.1071	6851.91	4.1200	4.1201	0.7858	25.71	0.60	0.750			
0.1094	7004.33	4.1170	4.1171	0.7924	25.71	0.60	0.750			
0.1118	7157.40	4.1140	4.1140	0.7855	25.71	0.60	0.750			
0.1142	7309.25	4.1110	4.1111	0.7907	25.71	0.60	0.750			
0.1165	7456.87	4.1080	4.1082	0.7855	25.71	0.60	0.750			
0.1189	7607.42	4.1050	4.1043	0.7934	25.71	0.60	0.750			
0.1212	7759.66	4.1020	4.1022	0.7960	25.71	0.60	0.750			
0.1237	7914.72	4.0990	4.0991	0.8037	25.71	0.60	0.750			
0.1262	8074.08	4.0960	4.0959	0.8107	25.72	0.61	0.750			
0.1285	8227.13	4.0930	4.0931	0.7980	25.72	0.61	0.750			
0.1310	8381.49	4.0900	4.0901	0.8056	25.72	0.61	0.750			
0.1334	8536.47	4.0870	4.0869	0.8072	25.72	0.61	0.750			
0.1358	8690.95	4.0840	4.0840	0.8030	25.72	0.61	0.750			
0.1382	8845.64	4.0810	4.0811	0.8060	25.72	0.61	0.750			
0.1406	9000.62	4.0780	4.0779	0.8111	25.72	0.61	0.750			
0.1431	9156.25	4.0750	4.0746	0.8141	25.72	0.61	0.750			
0.1455	9312.32	4.0720	4.0720	0.8145	25.72	0.61	0.750			
0.1480	9472.27	4.0690	4.0689	0.8007	25.73	0.62	0.750			
0.1504	9622.76	4.0660	4.0661	0.8147	25.73	0.62	0.750			
0.1528	9778.70	4.0630	4.0631	0.8205	25.74	0.63	0.750			
0.1552	9934.86	4.0600	4.0599	0.8230	25.74	0.63	0.750			
0.1577	10093.65	4.0570	4.0571	0.8296	25.74	0.63	0.750			
0.1602	10254.37	4.0540	4.0543	0.8350	25.74	0.63	0.750			
0.1628	10417.26	4.0510	4.0511	0.8415	25.75	0.64	0.750			
0.1653	10580.63	4.0480	4.0480	0.8369	25.75	0.64	0.750			
0.1678	10740.42	4.0450	4.0449	0.8373	25.75	0.64	0.750			
0.1703	10902.24	4.0420	4.0420	0.8389	25.75	0.64	0.750			
0.1729	11065.28	4.0390	4.0390	0.8286	25.75	0.64	0.750			
0.1754	11222.86	4.0360	4.0361	0.8412	25.75	0.64	0.750			
0.1779	11383.57	4.0330	4.0331	0.8402	25.75	0.64	0.750			
0.1804	11545.62	4.0300	4.0297	0.8441	25.75	0.64	0.750			
0.1829	11707.67	4.0270	4.0272	0.8505	25.75	0.64	0.750			
0.1855	11871.65	4.0240	4.0241	0.8532	25.76	0.65	0.750			
0.1881	12036.59	4.0210	4.0210	0.8586	25.76	0.65	0.750			
0.1906	12200.17	4.0180	4.0181	0.8564	25.77	0.66	0.750			
0.1932	12366.05	4.0150	4.0143	0.8646	25.77	0.66	0.750			
0.1959	12534.69	4.0120	4.0122	0.8684	25.77	0.66	0.750			
0.1985	12703.41	4.0090	4.0090	0.8705	25.77	0.66	0.750			
0.2011	12869.09	4.0060	4.0061	0.8741	25.78	0.67	0.750			
0.2037	13039.38	4.0030	4.0030	0.8775	25.78	0.67	0.750			
0.2063	13204.38	4.0000	3.9999	0.8760	25.78	0.67	0.750			
0.2090	13373.97	3.9970	3.9969	0.8735	25.78	0.67	0.750			
0.2116	13541.66	3.9940	3.9942	0.8818	25.78	0.67	0.750			
0.2142	13711.22	3.9910	3.9910	0.8857	25.79	0.68	0.750			
0.2169	13882.12	3.9880	3.9881	0.8886	25.79	0.68	0.750			
0.2196	14053.06	3.9850	3.9851	0.8859	25.79	0.68	0.750			
0.2223	14226.07	3.9820	3.9820	0.8804	25.79	0.68	0.750			
0.2249	14392.47	3.9790	3.9791	0.8830	25.79	0.68	0.750			
0.2275	14561.12	3.9760	3.9761	0.8892	25.79	0.68	0.750			
0.2301	14729.55	3.9730	3.9729	0.8884	25.79	0.68	0.750			
0.2328	14902.25	3.9700	3.9701	0.8930	25.79	0.68	0.750			
0.2355	15074.00	3.9670	3.9671	0.9019	25.80	0.69	0.750			
0.2383	15249.51	3.9640	3.9640	0.9077	25.80	0.69	0.750			
0.2410	15426.50	3.9610	3.9610	0.9126	25.81	0.70	0.750			
0.2437	15598.21	3.9580	3.9579	0.9078	25.81	0.70	0.750			
0.2465	15773.88	3.9550	3.9550	0.9035	25.81	0.70	0.750			
0.2492	15947.98	3.9520	3.9520	0.9080	25.81	0.70	0.750			
0.2519	16121.86	3.9490	3.9490	0.9090	25.81	0.70	0.750			
0.2546	16295.20	3.9460	3.9461	0.9093	25.81	0.70	0.750			
0.2574	16470.92	3.9430	3.9431	0.9112	25.81	0.70	0.750			
0.2602	16650.52	3.9400	3.9399	0.8903	25.82	0.71	0.750			
0.2628	16816.47	3.9370	3.9371	0.9085	25.82	0.71	0.750			
0.2655	16991.44	3.9340	3.9341	0.9126	25.83	0.72	0.750			
0.2682	17165.34	3.9310	3.9303	0.9153	25.83	0.72	0.750			
0.2710	17341.91	3.9280	3.9283	0.9217	25.83	0.72	0.750			
0.2737	17519.97	3.9250	3.9252	0.9253	25.83	0.72	0.750			
0.2766	17700.23	3.9220	3.9220	0.9326	25.83	0.72	0.750			
0.2794	17879.88	3.9190	3.9190	0.9197	25.83	0.72	0.750			
0.2821	18056.57	3.9160	3.9161	0.9255	25.83	0.72	0.750			
0.2850	18236.98	3.9130	3.9130	0.9251	25.83	0.72	0.750			
0.2877	18411.63	3.9100	3.9101	0.9263	25.83	0.72	0.750			
0.2904	18584.14	3.9070	3.9071	0.9473	25.83	0.72	0.750			
0.2933	18768.17	3.9040	3.9034	0.9665	25.83	0.72	0.750			
0.2962	18956.54	3.9010	3.9009	0.9738	25.83	0.72	0.750			
0.2992	19148.78	3.8980	3.8981	0.9823	25.83	0.72	0.750			
0.3023	19344.16	3.8950	3.8952	0.9891	25.83	0.72	0.750			
0.3052	19532.92	3.8920	3.8919	0.9724	25.83	0.72	0.750			
0.3081	19717.80	3.8890	3.8891	0.9582	25.83	0.72	0.750			
0.3109	19897.41	3.8860	3.8860	0.9476	25.82	0.71	0.750			
0.3137	20079.95	3.8830	3.8830	0.9493	25.82	0.71	0.750			
0.3166	20263.17	3.8800	3.8801	0.9443	25.81	0.70	0.750			
0.3194	20443.65	3.8770	3.8770	0.9439	25.81	0.70	0.750			
0.3223	20625.83	3.8740	3.8740	0.9438	25.80	0.69	0.750			
0.3251	20805.51	3.8710	3.8710	0.9490	25.80	0.69	0.750			
0.3279	20987.21	3.8680	3.8680	0.9511	25.79	0.68	0.750			
0.3308	21170.54	3.8650	3.8647	0.9509	25.79	0.68	0.750			
0.3337	21355.59	3.8620	3.8621	0.9475	25.79	0.68	0.750			
0.3365	21536.85	3.8590	3.8591	0.9556	25.78	0.67	0.750			
0.3394	21720.42	3.8560	3.8560	0.9579	25.78	0.67	0.750			
0.3422	21902.00	3.8530	3.8529	0.9560	25.77	0.66	0.750			
0.3451	22088.12	3.8500	3.8501	0.9571	25.76	0.65	0.750			
0.3480	22272.52	3.8470	3.8470	0.9660	25.76	0.65	0.750			
0.3509	22460.65	3.8440	3.8440	0.9621	25.75	0.64	0.750			
0.3538	22643.89	3.8410	3.8410	0.9771	25.74	0.63	0.750			
0.3567	22829.21	3.8380	3.8381	0.9781	25.73	0.62	0.750			
0.3597	23018.37	3.8350	3.8351	0.9830	25.72	0.61	0.750	0.310	0.415	
0.3626	23206.68	3.8320	3.8322	0.9905	25.71	0.60	0.750			
0.3656	23399.50	3.8290	3.8291	0.9989	25.70	0.59	0.750			
0.3686	23591.91	3.8260	3.8258	1.0037	25.69	0.58	0.750			
0.3717	23786.55	3.8230	3.8231	1.0084	25.68	0.57	0.750			
0.3746	23976.82	3.8200	3.8201	1.0076	25.67	0.56	0.750			
0.3777	24172.88	3.8170	3.8170	1.0200	25.67	0.56	0.750			
0.3807	24367.73	3.8140	3.8136	1.0219	25.66	0.55	0.750			
0.3838	24564.47	3.8110	3.8110	1.0287	25.65	0.54	0.750			
0.3869	24762.88	3.8080	3.8081	1.0383	25.64	0.53	0.750			
0.3901	24963.76	3.8050	3.8050	1.0498	25.62	0.51	0.750			
0.3932	25167.09	3.8020	3.8019	1.0608	25.61	0.50	0.750			
0.3964	25369.09	3.7990	3.7990	1.0713	25.60	0.49	0.750			
0.3996	25576.02	3.7960	3.7960	1.0859	25.59	0.48	0.750			
0.4029	25786.71	3.7930	3.7930	1.1014	25.58	0.47	0.750			
0.4062	25998.87	3.7900	3.7899	1.1177	25.57	0.46	0.750			
0.4096	26214.58	3.7870	3.7871	1.1225	25.56	0.45	0.750			
0.4129	26427.88	3.7840	3.7840	1.1434	25.55	0.44	0.750			
0.4164	26648.91	3.7810	3.7811	1.1650	25.54	0.43	0.750			
0.4199	26874.33	3.7780	3.7782	1.1758	25.52	0.41	0.750			
0.4235	27101.70	3.7750	3.7752	1.2015	25.51	0.40	0.750			
0.4271	27335.75	3.7720	3.7721	1.2265	25.50	0.39	0.750			
0.4308	27574.05	3.7690	3.7688	1.2474	25.48	0.37	0.750			
0.4345	27810.24	3.7660	3.7661	1.2693	25.47	0.36	0.750			
0.4384	28057.30	3.7630	3.7631	1.3042	25.46	0.35	0.750			
0.4424	28315.14	3.7600	3.7598	1.3297	25.44	0.33	0.750			
0.4465	28573.05	3.7570	3.7571	1.3596	25.43	0.32	0.750			
0.4506	28836.87	3.7540	3.7540	1.3887	25.41	0.30	0.750			
0.4549	29111.14	3.7510	3.7508	1.4041	25.39	0.28	0.750			
0.4591	29379.58	3.7480	3.7480	1.4207	25.38	0.27	0.750			
0.4633	29651.37	3.7450	3.7451	1.4570	25.37	0.26	0.750			
0.4677	29933.07	3.7420	3.7420	1.4974	25.35	0.24	0.750			
0.4722	30220.27	3.7390	3.7392	1.5312	25.33	0.22	0.750			
0.4769	30520.08	3.7360	3.7361	1.5761	25.32	0.21	0.750			
0.4817	30827.78	3.7330	3.7328	1.6221	25.30	0.19	0.750			
0.4867	31146.49	3.7300	3.7299	1.6821	25.29	0.18	0.750			
0.4918	31472.74	3.7270	3.7272	1.7379	25.27	0.16	0.750			
0.4970	31808.01	3.7240	3.7244	1.7930	25.26	0.15	0.750			
0.5025	32162.22	3.7210	3.7212	1.8300	25.23	0.12	0.750			
0.5081	32520.89	3.7180	3.7181	1.8763	25.21	0.10	0.750			
0.5139	32887.81	3.7150	3.7150	1.9101	25.19	0.08	0.750			
0.5197	33260.35	3.7120	3.7121	1.9823	25.18	0.07	0.750			
0.5257	33642.92	3.7090	3.7090	2.0274	25.16	0.05	0.750			
0.5318	34037.85	3.7060	3.7062	2.0862	25.14	0.03	0.750			
0.5382	34443.94	3.7030	3.7031	2.1707	25.12	0.01	0.750			
0.5448	34865.45	3.7000	3.7002	2.2254	25.11	-0.00	0.750			
0.5516	35302.29	3.6970	3.6971	2.2871	25.08	-0.03	0.750			
0.5585	35745.97	3.6940	3.6939	2.3507	25.07	-0.04	0.750			
0.5656	36196.20	3.6910	3.6914	2.3993	25.05	-0.06	0.750			
0.5728	36662.37	3.6880	3.6881	2.4845	25.04	-0.07	0.750			
0.5804	37145.12	3.6850	3.6850	2.5485	25.02	-0.09	0.750			
0.5882	37644.44	3.6820	3.6819	2.6085	25.01	-0.10	0.750			
0.5961	38151.22	3.6790	3.6788	2.7006	25.00	-0.11	0.750			
0.6044	38680.93	3.6760	3.6759	2.7857	24.98	-0.13	0.750			
0.6129	39222.62	3.6730	3.6729	2.7632	24.98	-0.13	0.750			
0.6212	39758.33	3.6700	3.6701	2.7331	24.98	-0.13	0.750			
0.6293	40275.41	3.6670	3.6671	2.6391	24.98	-0.13	0.750			
0.6371	40773.41	3.6640	3.6642	2.4696	24.98	-0.13	0.750			
0.6444	41243.31	3.6610	3.6610	2.2929	24.98	-0.13	0.750			
0.6509	41656.26	3.6580	3.6580	2.0711	24.98	-0.13	0.750			
0.6565	42017.85	3.6550	3.6552	1.8614	24.98	-0.13	0.750			
0.6619	42359.52	3.6520	3.6519	1.7098	24.98	-0.13	0.750			
0.6667	42669.16	3.6490	3.6490	1.5407	24.99	-0.12	0.750			
0.6711	42951.28	3.6460	3.6461	1.3915	24.99	-0.12	0.750			
0.6750	43198.66	3.6430	3.6433	1.2755	25.00	-0.11	0.750			
0.6785	43421.32	3.6400	3.6401	1.1609	25.01	-0.10	0.750			
0.6817	43628.45	3.6370	3.6370	1.0946	25.01	-0.10	0.750			
0.6847	43821.85	3.6340	3.6340	1.0280	25.02	-0.09	0.750			
0.6877	44015.12	3.6310	3.6311	0.9992	25.02	-0.09	0.750			
0.6908	44210.21	3.6280	3.6281	0.9820	25.03	-0.08	0.750			
0.6936	44392.78	3.6250	3.6250	0.9481	25.03	-0.08	0.750			
0.6965	44573.44	3.6220	3.6219	0.9162	25.04	-0.07	0.750			
0.6992	44745.87	3.6190	3.6190	0.8830	25.04	-0.07	0.750			
0.7018	44914.44	3.6160	3.6160	0.8447	25.05	-0.06	0.750			
0.7043	45075.27	3.6130	3.6131	0.8019	25.06	-0.05	0.750			
0.7067	45227.63	3.6100	3.6100	0.7506	25.06	-0.05	0.750			
0.7089	45366.69	3.6070	3.6070	0.6920	25.07	-0.04	0.750			
0.7108	45493.21	3.6040	3.6040	0.6288	25.08	-0.03	0.750			
0.7126	45609.39	3.6010	3.6009	0.5707	25.09	-0.02	0.750			
0.7143	45713.34	3.5980	3.5980	0.5047	25.09	-0.02	0.750			
0.7157	45803.43	3.5950	3.5949	0.4479	25.10	-0.01	0.750			
0.7169	45882.45	3.5920	3.5921	0.3919	25.10	-0.01	0.750			
0.7180	45951.74	3.5890	3.5890	0.3394	25.11	-0.00	0.750			
0.7189	46010.78	3.5860	3.5860	0.2862	25.11	0.00	0.750			
0.7197	46060.89	3.5830	3.5831	0.2368	25.12	0.01	0.750			
0.7203	46101.46	3.5800	3.5802	0.1883	25.12	0.01	0.750			
0.7209	46135.62	3.5770	3.5773	0.1288	25.12	0.01	0.750			
0.7212	46154.50	3.5740	3.5749	0.0749	25.12	0.01	0.750			
