Ah_balance (normalized)	Ah_balance (mAh)	Voltage - fit (V)	Voltage -  interpolate (V)	dQ/dV (1/V)	Temperature (°C)	Temperature - diff (°C)	Current (C)	R_DC 0ms (mOhm)	R_DC 50ms (mOhm)	R_DC 50 ms PEC (mOhm)
0.0471	3011.24	4.1990	4.1990	0.7334	25.71	0.43	0.750			
0.0493	3155.59	4.1960	4.1960	0.7554	25.71	0.43	0.750			
0.0516	3299.85	4.1930	4.1930	0.7539	25.71	0.43	0.750			
0.0538	3443.98	4.1900	4.1901	0.7542	25.71	0.43	0.750			
0.0561	3589.72	4.1870	4.1869	0.7599	25.71	0.43	0.750			
0.0584	3734.51	4.1840	4.1840	0.7581	25.71	0.43	0.750			
0.0606	3880.12	4.1810	4.1811	0.7606	25.71	0.43	0.750			
0.0629	4027.37	4.1780	4.1781	0.7630	25.71	0.43	0.750			
0.0652	4175.07	4.1750	4.1750	0.7632	25.71	0.43	0.750			
0.0675	4321.13	4.1720	4.1720	0.7630	25.72	0.44	0.750			
0.0698	4465.39	4.1690	4.1691	0.7610	25.72	0.44	0.750			
0.0721	4612.69	4.1660	4.1660	0.7646	25.72	0.44	0.750			
0.0744	4760.89	4.1630	4.1630	0.7664	25.72	0.44	0.750			
0.0767	4909.69	4.1600	4.1600	0.7615	25.72	0.44	0.750			
0.0790	5055.18	4.1570	4.1571	0.7668	25.72	0.44	0.750			
0.0813	5201.33	4.1540	4.1540	0.7673	25.71	0.43	0.750			
0.0836	5348.31	4.1510	4.1510	0.7672	25.71	0.43	0.750			
0.0859	5495.07	4.1480	4.1479	0.7643	25.71	0.43	0.750			
0.0882	5642.50	4.1450	4.1451	0.7683	25.71	0.43	0.750			
0.0905	5791.40	4.1420	4.1420	0.7665	25.71	0.43	0.750			
0.0928	5938.07	4.1390	4.1390	0.7643	25.71	0.43	0.750			
0.0950	6081.89	4.1360	4.1361	0.7675	25.71	0.43	0.750			
0.0973	6229.28	4.1330	4.1327	0.7703	25.71	0.43	0.750			
0.0997	6378.63	4.1300	4.1300	0.7755	25.71	0.43	0.750			
0.1020	6529.22	4.1270	4.1270	0.7792	25.71	0.43	0.750			
0.1044	6678.95	4.1240	4.1242	0.7801	25.72	0.44	0.750			
0.1067	6831.62	4.1210	4.1210	0.7842	25.72	0.44	0.750			
0.1091	6979.76	4.1180	4.1180	0.7789	25.72	0.44	0.750			
0.1114	7127.89	4.1150	4.1150	0.7778	25.72	0.44	0.750			
0.1137	7279.98	4.1120	4.1120	0.7767	25.72	0.44	0.750			
0.1160	7426.93	4.1090	4.1090	0.7773	25.72	0.44	0.750			
0.1184	7575.64	4.1060	4.1060	0.7802	25.73	0.45	0.750			
0.1207	7725.17	4.1030	4.1030	0.7817	25.73	0.45	0.750			
0.1231	7875.36	4.1000	4.0999	0.7853	25.73	0.45	0.750			
0.1254	8026.86	4.0970	4.0971	0.7888	25.73	0.45	0.750			
0.1279	8183.38	4.0940	4.0939	0.7768	25.74	0.46	0.750			
0.1302	8330.89	4.0910	4.0910	0.7840	25.74	0.46	0.750			
0.1325	8478.37	4.0880	4.0882	0.7886	25.75	0.47	0.750			
0.1348	8628.37	4.0850	4.0847	0.7972	25.75	0.47	0.750			
0.1372	8783.48	4.0820	4.0821	0.8037	25.75	0.47	0.750			
0.1397	8939.91	4.0790	4.0792	0.8053	25.75	0.47	0.750			
0.1421	9096.30	4.0760	4.0760	0.8108	25.76	0.48	0.750			
0.1446	9255.50	4.0730	4.0731	0.8217	25.76	0.48	0.750			
0.1470	9408.50	4.0700	4.0699	0.8108	25.76	0.48	0.750			
0.1494	9564.49	4.0670	4.0671	0.8092	25.76	0.48	0.750			
0.1519	9721.75	4.0640	4.0640	0.8050	25.76	0.48	0.750			
0.1543	9875.72	4.0610	4.0612	0.8113	25.77	0.49	0.750			
0.1567	10031.22	4.0580	4.0580	0.8186	25.77	0.49	0.750			
0.1592	10186.78	4.0550	4.0549	0.8196	25.77	0.49	0.750			
0.1616	10344.46	4.0520	4.0520	0.8235	25.77	0.49	0.750			
0.1642	10507.62	4.0490	4.0490	0.8227	25.77	0.49	0.750			
0.1666	10665.29	4.0460	4.0461	0.8280	25.78	0.50	0.750			
0.1691	10824.26	4.0430	4.0431	0.8337	25.78	0.50	0.750			
0.1716	10980.94	4.0400	4.0401	0.8288	25.78	0.50	0.750			
0.1741	11141.01	4.0370	4.0371	0.8318	25.78	0.50	0.750			
0.1766	11302.19	4.0340	4.0340	0.8340	25.78	0.50	0.750			
0.1791	11462.71	4.0310	4.0311	0.8401	25.78	0.50	0.750			
0.1817	11626.82	4.0280	4.0280	0.8467	25.78	0.50	0.750			
0.1842	11785.94	4.0250	4.0250	0.8418	25.78	0.50	0.750			
0.1867	11948.73	4.0220	4.0221	0.8466	25.78	0.50	0.750			
0.1893	12112.89	4.0190	4.0189	0.8458	25.79	0.51	0.750			
0.1918	12275.48	4.0160	4.0160	0.8503	25.79	0.51	0.750			
0.1944	12438.92	4.0130	4.0132	0.8545	25.79	0.51	0.750			
0.1969	12601.71	4.0100	4.0099	0.8563	25.80	0.52	0.750			
0.1995	12766.72	4.0070	4.0070	0.8601	25.80	0.52	0.750			
0.2021	12932.72	4.0040	4.0041	0.8550	25.80	0.52	0.750			
0.2046	13096.26	4.0010	4.0010	0.8660	25.81	0.53	0.750			
0.2073	13265.56	3.9980	3.9980	0.8706	25.81	0.53	0.750			
0.2099	13431.48	3.9950	3.9946	0.8679	25.81	0.53	0.750			
0.2125	13598.88	3.9920	3.9922	0.8688	25.81	0.53	0.750			
0.2151	13765.42	3.9890	3.9891	0.8741	25.81	0.53	0.750			
0.2177	13934.41	3.9860	3.9859	0.8762	25.82	0.54	0.750			
0.2204	14103.40	3.9830	3.9829	0.8801	25.82	0.54	0.750			
0.2230	14269.83	3.9800	3.9800	0.8786	25.82	0.54	0.750			
0.2256	14440.75	3.9770	3.9770	0.8782	25.82	0.54	0.750			
0.2283	14609.83	3.9740	3.9740	0.8822	25.82	0.54	0.750			
0.2309	14778.62	3.9710	3.9710	0.8829	25.82	0.54	0.750			
0.2336	14947.48	3.9680	3.9680	0.8851	25.82	0.54	0.750			
0.2362	15117.80	3.9650	3.9650	0.8864	25.82	0.54	0.750			
0.2389	15289.20	3.9620	3.9620	0.8788	25.82	0.54	0.750			
0.2415	15457.31	3.9590	3.9590	0.8856	25.82	0.54	0.750			
0.2442	15627.19	3.9560	3.9561	0.8890	25.82	0.54	0.750			
0.2468	15796.27	3.9530	3.9529	0.8902	25.82	0.54	0.750			
0.2495	15968.11	3.9500	3.9500	0.8947	25.82	0.54	0.750			
0.2522	16141.42	3.9470	3.9471	0.8931	25.82	0.54	0.750			
0.2549	16314.32	3.9440	3.9440	0.8953	25.83	0.55	0.750			
0.2576	16488.54	3.9410	3.9410	0.9017	25.83	0.55	0.750			
0.2603	16658.53	3.9380	3.9379	0.8915	25.83	0.55	0.750			
0.2630	16830.88	3.9350	3.9349	0.8853	25.83	0.55	0.750			
0.2656	17000.14	3.9320	3.9321	0.8846	25.83	0.55	0.750			
0.2683	17169.35	3.9290	3.9291	0.8879	25.82	0.54	0.750			
0.2709	17339.49	3.9260	3.9260	0.8888	25.82	0.54	0.750			
0.2736	17508.72	3.9230	3.9231	0.8881	25.82	0.54	0.750			
0.2763	17680.30	3.9200	3.9201	0.8839	25.82	0.54	0.750			
0.2789	17850.93	3.9170	3.9170	0.8930	25.82	0.54	0.750			
0.2816	18022.67	3.9140	3.9140	0.8947	25.81	0.53	0.750			
0.2843	18193.97	3.9110	3.9111	0.8936	25.81	0.53	0.750			
0.2870	18365.02	3.9080	3.9081	0.8946	25.81	0.53	0.750			
0.2897	18538.38	3.9050	3.9051	0.8942	25.81	0.53	0.750			
0.2923	18710.20	3.9020	3.9020	0.8960	25.81	0.53	0.750			
0.2951	18883.83	3.8990	3.8990	0.9014	25.81	0.53	0.750			
0.2977	19054.36	3.8960	3.8957	0.8935	25.81	0.53	0.750			
0.3005	19229.64	3.8930	3.8929	0.8859	25.81	0.53	0.750			
0.3031	19397.50	3.8900	3.8901	0.8888	25.80	0.52	0.750			
0.3057	19566.16	3.8870	3.8871	0.8927	25.80	0.52	0.750			
0.3084	19738.11	3.8840	3.8840	0.8948	25.79	0.51	0.750			
0.3111	19908.32	3.8810	3.8811	0.8949	25.79	0.51	0.750			
0.3138	20082.31	3.8780	3.8781	0.8921	25.78	0.50	0.750			
0.3165	20255.35	3.8750	3.8751	0.9001	25.78	0.50	0.750			
0.3192	20427.65	3.8720	3.8721	0.9036	25.77	0.49	0.750			
0.3219	20599.23	3.8690	3.8691	0.8974	25.76	0.48	0.750			
0.3246	20773.53	3.8660	3.8660	0.8999	25.76	0.48	0.750			
0.3273	20947.02	3.8630	3.8630	0.9065	25.75	0.47	0.750			
0.3300	21120.52	3.8600	3.8601	0.9110	25.74	0.46	0.750			
0.3328	21298.00	3.8570	3.8570	0.9211	25.74	0.46	0.750			
0.3355	21472.51	3.8540	3.8538	0.9170	25.73	0.45	0.750			
0.3383	21651.68	3.8510	3.8509	0.9112	25.72	0.44	0.750			
0.3411	21828.76	3.8480	3.8481	0.9105	25.72	0.44	0.750			
0.3437	21998.07	3.8450	3.8452	0.9255	25.71	0.43	0.750			
0.3465	22174.70	3.8420	3.8421	0.9331	25.70	0.42	0.750			
0.3493	22355.55	3.8390	3.8388	0.9453	25.70	0.42	0.750	0.315	0.451	
0.3522	22537.83	3.8360	3.8362	0.9424	25.69	0.41	0.750			
0.3550	22720.12	3.8330	3.8332	0.9557	25.68	0.40	0.750			
0.3579	22906.99	3.8300	3.8302	0.9734	25.68	0.40	0.750			
0.3608	23091.58	3.8270	3.8265	0.9724	25.67	0.39	0.750			
0.3637	23275.41	3.8240	3.8242	0.9667	25.66	0.38	0.750			
0.3666	23464.11	3.8210	3.8212	0.9827	25.65	0.37	0.750			
0.3696	23655.51	3.8180	3.8181	1.0006	25.64	0.36	0.750			
0.3726	23846.67	3.8150	3.8146	0.9947	25.63	0.35	0.750			
0.3756	24039.03	3.8120	3.8121	0.9999	25.62	0.34	0.750			
0.3786	24231.00	3.8090	3.8091	1.0133	25.61	0.33	0.750			
0.3817	24428.57	3.8060	3.8062	1.0283	25.60	0.32	0.750			
0.3848	24625.41	3.8030	3.8027	1.0339	25.59	0.31	0.750			
0.3879	24827.87	3.8000	3.8000	1.0267	25.58	0.30	0.750			
0.3910	25021.64	3.7970	3.7971	1.0520	25.57	0.29	0.750			
0.3941	25224.91	3.7940	3.7941	1.0775	25.56	0.28	0.750			
0.3974	25434.94	3.7910	3.7905	1.0811	25.55	0.27	0.750			
0.4007	25643.82	3.7880	3.7881	1.1051	25.55	0.27	0.750			
0.4041	25859.51	3.7850	3.7852	1.1314	25.54	0.26	0.750			
0.4075	26079.71	3.7820	3.7821	1.1499	25.53	0.25	0.750			
0.4110	26305.91	3.7790	3.7789	1.1472	25.53	0.25	0.750			
0.4144	26524.15	3.7760	3.7761	1.1757	25.51	0.23	0.750			
0.4180	26749.76	3.7730	3.7731	1.1973	25.50	0.22	0.750			
0.4217	26988.10	3.7700	3.7698	1.2087	25.48	0.20	0.750			
0.4253	27218.41	3.7670	3.7671	1.2358	25.47	0.19	0.750			
0.4290	27457.20	3.7640	3.7642	1.2659	25.46	0.18	0.750			
0.4329	27705.23	3.7610	3.7611	1.2924	25.46	0.18	0.750			
0.4368	27954.37	3.7580	3.7580	1.3202	25.44	0.16	0.750			
0.4409	28216.52	3.7550	3.7550	1.3209	25.43	0.15	0.750			
0.4449	28472.07	3.7520	3.7521	1.3661	25.41	0.13	0.750			
0.4491	28740.66	3.7490	3.7490	1.3877	25.40	0.12	0.750			
0.4532	29007.74	3.7460	3.7462	1.4060	25.39	0.11	0.750			
0.4575	29283.18	3.7430	3.7432	1.4384	25.38	0.10	0.750			
0.4619	29563.55	3.7400	3.7401	1.4776	25.37	0.09	0.750			
0.4664	29851.02	3.7370	3.7374	1.5230	25.36	0.08	0.750			
0.4711	30150.41	3.7340	3.7344	1.5961	25.35	0.07	0.750			
0.4758	30453.22	3.7310	3.7311	1.6292	25.34	0.06	0.750			
0.4808	30772.28	3.7280	3.7282	1.7075	25.32	0.04	0.750			
0.4861	31107.75	3.7250	3.7250	1.7309	25.30	0.02	0.750			
0.4913	31444.20	3.7220	3.7218	1.7446	25.29	0.01	0.750			
0.4966	31779.46	3.7190	3.7192	1.8026	25.27	-0.01	0.750			
0.5021	32133.86	3.7160	3.7161	1.8382	25.26	-0.02	0.750			
0.5076	32488.25	3.7130	3.7133	1.9142	25.25	-0.03	0.750			
0.5135	32866.57	3.7100	3.7099	2.0110	25.24	-0.04	0.750			
0.5196	33257.34	3.7070	3.7066	2.0210	25.22	-0.06	0.750			
0.5259	33655.20	3.7040	3.7042	2.1223	25.20	-0.08	0.750			
0.5323	34069.29	3.7010	3.7015	2.2214	25.19	-0.09	0.750			
0.5390	34498.79	3.6980	3.6982	2.1882	25.18	-0.10	0.750			
0.5457	34922.03	3.6950	3.6954	2.2648	25.17	-0.11	0.750			
0.5524	35351.91	3.6920	3.6919	2.2996	25.16	-0.12	0.750			
0.5594	35801.23	3.6890	3.6890	2.4059	25.14	-0.14	0.750			
0.5669	36280.57	3.6860	3.6856	2.5164	25.13	-0.15	0.750			
0.5745	36769.20	3.6830	3.6826	2.5366	25.13	-0.15	0.750			
0.5820	37250.12	3.6800	3.6801	2.5324	25.12	-0.16	0.750			
0.5895	37726.94	3.6770	3.6767	2.4634	25.12	-0.16	0.750			
0.5970	38205.04	3.6740	3.6740	2.4272	25.12	-0.16	0.750			
0.6043	38678.16	3.6710	3.6706	2.3834	25.12	-0.16	0.750			
0.6109	39098.57	3.6680	3.6683	2.1741	25.12	-0.16	0.750			
0.6173	39507.11	3.6650	3.6649	2.0406	25.13	-0.15	0.750			
0.6234	39898.02	3.6620	3.6615	1.9403	25.13	-0.15	0.750			
0.6291	40259.22	3.6590	3.6587	1.8306	25.14	-0.14	0.750			
0.6342	40590.89	3.6560	3.6562	1.6856	25.14	-0.14	0.750			
0.6392	40907.84	3.6530	3.6531	1.5713	25.15	-0.13	0.750			
0.6437	41197.89	3.6500	3.6503	1.4463	25.16	-0.12	0.750			
0.6479	41466.31	3.6470	3.6468	1.3459	25.17	-0.11	0.750			
0.6518	41717.73	3.6440	3.6440	1.2465	25.18	-0.10	0.750			
0.6552	41934.76	3.6410	3.6411	1.1638	25.18	-0.10	0.750			
0.6586	42149.76	3.6380	3.6381	1.1132	25.19	-0.09	0.750			
0.6618	42357.87	3.6350	3.6352	1.0566	25.19	-0.09	0.750			
0.6649	42556.01	3.6320	3.6321	1.0218	25.20	-0.08	0.750			
0.6680	42749.29	3.6290	3.6291	0.9883	25.20	-0.08	0.750			
0.6709	42938.06	3.6260	3.6260	0.9523	25.21	-0.07	0.750			
0.6737	43115.16	3.6230	3.6230	0.9058	25.21	-0.07	0.750			
0.6764	43287.63	3.6200	3.6200	0.8631	25.22	-0.06	0.750			
0.6789	43449.66	3.6170	3.6170	0.8292	25.23	-0.05	0.750			
0.6813	43605.94	3.6140	3.6140	0.7904	25.24	-0.04	0.750			
0.6836	43752.97	3.6110	3.6111	0.7460	25.24	-0.04	0.750			
0.6859	43897.20	3.6080	3.6079	0.6891	25.25	-0.03	0.750			
0.6878	44022.33	3.6050	3.6051	0.6449	25.26	-0.02	0.750			
0.6897	44139.99	3.6020	3.6023	0.5969	25.26	-0.02	0.750			
0.6914	44249.98	3.5990	3.5994	0.5525	25.26	-0.02	0.750			
0.6930	44350.97	3.5960	3.5963	0.4988	25.27	-0.01	0.750			
0.6944	44442.17	3.5930	3.5933	0.4534	25.27	-0.01	0.750			
0.6957	44525.96	3.5900	3.5902	0.4085	25.28	-0.00	0.750			
0.6969	44604.00	3.5870	3.5870	0.3692	25.28	-0.00	0.750			
0.6979	44666.63	3.5840	3.5841	0.3031	25.28	0.00	0.750			
0.6988	44720.58	3.5810	3.5810	0.2554	25.28	0.00	0.750			
0.6995	44765.00	3.5780	3.5783	0.2060	25.28	0.00	0.750			
0.7000	44800.85	3.5750	3.5753	0.1552	25.29	0.01	0.750			
0.7004	44827.34	3.5720	3.5726	0.0945	25.29	0.01	0.750			
0.7006	44839.76	3.5690	3.5704	0.0387	25.29	0.01	0.750			
