Ah_balance (normalized)	Ah_balance (mAh)	Voltage - fit (V)	Voltage -  interpolate (V)	dQ/dV (1/V)	Temperature (°C)	Temperature - diff (°C)	Current (C)	R_DC 0ms (mOhm)	R_DC 50ms (mOhm)	R_DC 50 ms PEC (mOhm)
0.0003	20.72	4.1610	4.1607	-0.1285	24.98	0.02	-0.750			
0.0008	49.68	4.1580	4.1579	-0.1724	24.98	0.02	-0.750			
0.0014	86.97	4.1550	4.1550	-0.2153	24.98	0.02	-0.750			
0.0021	132.98	4.1520	4.1520	-0.2559	24.98	0.02	-0.750			
0.0029	186.08	4.1490	4.1491	-0.2964	24.98	0.02	-0.750			
0.0039	248.11	4.1460	4.1460	-0.3342	24.97	0.01	-0.750			
0.0049	315.75	4.1430	4.1430	-0.3720	24.97	0.01	-0.750			
0.0061	391.43	4.1400	4.1400	-0.4074	24.97	0.01	-0.750			
0.0074	472.80	4.1370	4.1371	-0.4412	24.97	0.01	-0.750			
0.0088	562.26	4.1340	4.1339	-0.4700	24.96	0.00	-0.750			
0.0103	656.45	4.1310	4.1310	-0.4951	24.96	-0.00	-0.750			
0.0118	754.90	4.1280	4.1280	-0.5195	24.95	-0.01	-0.750			
0.0134	857.21	4.1250	4.1250	-0.5406	24.95	-0.01	-0.750			
0.0150	959.62	4.1220	4.1221	-0.5705	24.95	-0.01	-0.750			
0.0168	1073.90	4.1190	4.1190	-0.5928	24.94	-0.02	-0.750			
0.0186	1189.83	4.1160	4.1159	-0.6174	24.94	-0.02	-0.750			
0.0205	1312.49	4.1130	4.1128	-0.6396	24.93	-0.03	-0.750			
0.0225	1440.30	4.1100	4.1102	-0.6570	24.93	-0.03	-0.750			
0.0245	1567.71	4.1070	4.1069	-0.6649	24.93	-0.03	-0.750			
0.0265	1696.86	4.1040	4.1040	-0.6715	24.93	-0.03	-0.750			
0.0285	1825.21	4.1010	4.1011	-0.6723	24.92	-0.04	-0.750			
0.0306	1958.83	4.0980	4.0978	-0.6877	24.92	-0.04	-0.750			
0.0327	2091.55	4.0950	4.0950	-0.6832	24.92	-0.04	-0.750			
0.0347	2223.13	4.0920	4.0927	-0.6846	24.92	-0.04	-0.750			
0.0368	2354.89	4.0890	4.0889	-0.6917	24.92	-0.04	-0.750			
0.0388	2486.17	4.0860	4.0859	-0.6923	24.91	-0.05	-0.750			
0.0409	2616.10	4.0830	4.0830	-0.6971	24.91	-0.05	-0.750			
0.0430	2750.99	4.0800	4.0801	-0.7064	24.91	-0.05	-0.750			
0.0452	2890.95	4.0770	4.0769	-0.7185	24.90	-0.06	-0.750			
0.0474	3031.92	4.0740	4.0741	-0.7237	24.90	-0.06	-0.750			
0.0496	3171.33	4.0710	4.0711	-0.7252	24.90	-0.06	-0.750			
0.0517	3310.05	4.0680	4.0680	-0.7346	24.90	-0.06	-0.750			
0.0539	3451.85	4.0650	4.0649	-0.7378	24.90	-0.06	-0.750			
0.0562	3595.42	4.0620	4.0618	-0.7413	24.90	-0.06	-0.750			
0.0584	3738.04	4.0590	4.0589	-0.7401	24.90	-0.06	-0.750			
0.0606	3881.41	4.0560	4.0558	-0.7436	24.90	-0.06	-0.750			
0.0629	4023.95	4.0530	4.0530	-0.7440	24.90	-0.06	-0.750			
0.0651	4164.92	4.0500	4.0499	-0.7505	24.90	-0.06	-0.750			
0.0674	4310.84	4.0470	4.0469	-0.7410	24.90	-0.06	-0.750			
0.0696	4457.37	4.0440	4.0439	-0.7495	24.90	-0.06	-0.750			
0.0719	4600.20	4.0410	4.0417	-0.7473	24.90	-0.06	-0.750			
0.0741	4744.77	4.0380	4.0379	-0.7433	24.90	-0.06	-0.750			
0.0763	4883.11	4.0350	4.0349	-0.7484	24.90	-0.06	-0.750			
0.0785	5024.78	4.0320	4.0319	-0.7514	24.90	-0.06	-0.750			
0.0808	5171.07	4.0290	4.0290	-0.7654	24.90	-0.06	-0.750			
0.0831	5320.08	4.0260	4.0259	-0.7641	24.90	-0.06	-0.750			
0.0854	5468.14	4.0230	4.0230	-0.7621	24.90	-0.06	-0.750			
0.0877	5613.19	4.0200	4.0201	-0.7701	24.90	-0.06	-0.750			
0.0900	5761.31	4.0170	4.0169	-0.7678	24.90	-0.06	-0.750			
0.0923	5906.65	4.0140	4.0139	-0.7623	24.91	-0.05	-0.750			
0.0946	6055.67	4.0110	4.0109	-0.7653	24.91	-0.05	-0.750			
0.0969	6202.37	4.0080	4.0082	-0.7683	24.91	-0.05	-0.750			
0.0992	6350.39	4.0050	4.0050	-0.7722	24.91	-0.05	-0.750			
0.1015	6497.26	4.0020	4.0019	-0.7799	24.91	-0.05	-0.750			
0.1038	6646.32	3.9990	3.9990	-0.7835	24.92	-0.04	-0.750			
0.1063	6800.25	3.9960	3.9959	-0.7890	24.92	-0.04	-0.750			
0.1086	6952.36	3.9930	3.9929	-0.7858	24.92	-0.04	-0.750			
0.1110	7104.96	3.9900	3.9899	-0.7887	24.92	-0.04	-0.750			
0.1134	7254.58	3.9870	3.9870	-0.7839	24.92	-0.04	-0.750			
0.1157	7403.30	3.9840	3.9839	-0.7814	24.92	-0.04	-0.750			
0.1180	7553.06	3.9810	3.9810	-0.7795	24.92	-0.04	-0.750			
0.1204	7704.48	3.9780	3.9780	-0.7879	24.92	-0.04	-0.750			
0.1228	7856.23	3.9750	3.9751	-0.7919	24.92	-0.04	-0.750			
0.1251	8008.84	3.9720	3.9720	-0.7944	24.92	-0.04	-0.750			
0.1275	8161.32	3.9690	3.9689	-0.8020	24.92	-0.04	-0.750			
0.1300	8316.86	3.9660	3.9660	-0.8016	24.93	-0.03	-0.750			
0.1324	8473.03	3.9630	3.9629	-0.8030	24.93	-0.03	-0.750			
0.1348	8628.14	3.9600	3.9603	-0.8048	24.93	-0.03	-0.750			
0.1372	8780.94	3.9570	3.9570	-0.7971	24.93	-0.03	-0.750			
0.1396	8936.64	3.9540	3.9539	-0.8097	24.93	-0.03	-0.750			
0.1421	9092.80	3.9510	3.9509	-0.8067	24.94	-0.02	-0.750			
0.1445	9249.98	3.9480	3.9478	-0.8120	24.94	-0.02	-0.750			
0.1470	9404.80	3.9450	3.9461	-0.8096	24.94	-0.02	-0.750			
0.1494	9560.52	3.9420	3.9418	-0.8068	24.94	-0.02	-0.750			
0.1518	9712.72	3.9390	3.9389	-0.8045	24.94	-0.02	-0.750			
0.1541	9860.02	3.9360	3.9361	-0.7891	24.94	-0.02	-0.750			
0.1566	10020.83	3.9330	3.9331	-0.8161	24.94	-0.02	-0.750			
0.1590	10176.74	3.9300	3.9299	-0.8178	24.94	-0.02	-0.750			
0.1615	10333.61	3.9270	3.9270	-0.8190	24.94	-0.02	-0.750			
0.1639	10491.81	3.9240	3.9239	-0.8268	24.94	-0.02	-0.750			
0.1665	10654.69	3.9210	3.9210	-0.8259	24.94	-0.02	-0.750			
0.1690	10813.12	3.9180	3.9180	-0.8212	24.94	-0.02	-0.750			
0.1714	10971.55	3.9150	3.9151	-0.8242	24.94	-0.02	-0.750			
0.1739	11127.64	3.9120	3.9118	-0.8255	24.94	-0.02	-0.750			
0.1763	11284.50	3.9090	3.9089	-0.8373	24.94	-0.02	-0.750			
0.1789	11449.92	3.9060	3.9059	-0.8334	24.94	-0.02	-0.750			
0.1814	11609.91	3.9030	3.9030	-0.8303	24.94	-0.02	-0.750			
0.1840	11776.23	3.9000	3.9005	-0.8389	24.94	-0.02	-0.750			
0.1865	11934.33	3.8970	3.8968	-0.8313	24.94	-0.02	-0.750			
0.1889	12089.15	3.8940	3.8939	-0.8278	24.95	-0.01	-0.750			
0.1914	12247.15	3.8910	3.8910	-0.8261	24.95	-0.01	-0.750			
0.1939	12408.60	3.8880	3.8878	-0.8373	24.95	-0.01	-0.750			
0.1964	12568.10	3.8850	3.8852	-0.8424	24.96	-0.00	-0.750			
0.1989	12730.03	3.8820	3.8819	-0.8380	24.96	0.00	-0.750			
0.2014	12891.22	3.8790	3.8788	-0.8415	24.96	0.00	-0.750			
0.2040	13058.80	3.8760	3.8759	-0.8266	24.97	0.01	-0.750			
0.2065	13217.75	3.8730	3.8729	-0.8071	24.97	0.01	-0.750			
0.2090	13376.03	3.8700	3.8702	-0.7976	24.97	0.01	-0.750			
0.2113	13522.17	3.8670	3.8666	-0.7900	24.97	0.01	-0.750			
0.2135	13661.60	3.8640	3.8637	-0.7859	24.97	0.01	-0.750			
0.2158	13814.13	3.8610	3.8608	-0.7962	24.97	0.01	-0.750			
0.2182	13965.13	3.8580	3.8580	-0.8026	24.97	0.01	-0.750			
0.2208	14128.57	3.8550	3.8550	-0.8179	24.97	0.01	-0.750			
0.2233	14293.52	3.8520	3.8519	-0.8213	24.97	0.01	-0.750			
0.2257	14447.03	3.8490	3.8490	-0.8255	24.97	0.01	-0.750			
0.2282	14602.44	3.8460	3.8460	-0.8323	24.97	0.01	-0.750			
0.2306	14758.99	3.8430	3.8429	-0.8298	24.98	0.02	-0.750			
0.2332	14924.86	3.8400	3.8399	-0.8368	24.98	0.02	-0.750			
0.2358	15090.07	3.8370	3.8371	-0.8358	24.98	0.02	-0.750			
0.2383	15248.51	3.8340	3.8341	-0.8357	24.99	0.03	-0.750			
0.2408	15411.97	3.8310	3.8309	-0.8184	24.99	0.03	-0.750			
0.2432	15562.73	3.8280	3.8279	-0.7937	24.99	0.03	-0.750			
0.2455	15714.56	3.8250	3.8248	-0.7899	25.00	0.04	-0.750			
0.2479	15865.96	3.8220	3.8220	-0.7847	25.00	0.04	-0.750			
0.2502	16012.96	3.8190	3.8188	-0.7885	25.00	0.04	-0.750			
0.2526	16164.37	3.8160	3.8159	-0.7814	25.00	0.04	-0.750			
0.2549	16311.33	3.8130	3.8131	-0.7704	25.00	0.04	-0.750			
0.2573	16466.35	3.8100	3.8099	-0.7768	25.00	0.04	-0.750			
0.2596	16615.68	3.8070	3.8079	-0.7709	25.00	0.04	-0.750			
0.2619	16762.21	3.8040	3.8039	-0.7651	25.00	0.04	-0.750			
0.2642	16905.99	3.8010	3.8010	-0.7654	25.00	0.04	-0.750			
0.2664	17051.79	3.7980	3.7979	-0.7644	25.00	0.04	-0.750			
0.2688	17201.21	3.7950	3.7950	-0.7677	25.00	0.04	-0.750			
0.2711	17349.37	3.7920	3.7919	-0.7679	25.00	0.04	-0.750			
0.2734	17496.31	3.7890	3.7890	-0.7668	25.00	0.04	-0.750			
0.2756	17640.67	3.7860	3.7861	-0.7722	25.00	0.04	-0.750			
0.2780	17790.80	3.7830	3.7828	-0.7695	25.00	0.04	-0.750			
0.2803	17937.29	3.7800	3.7800	-0.7688	25.00	0.04	-0.750			
0.2826	18087.57	3.7770	3.7770	-0.7761	25.00	0.04	-0.750			
0.2850	18237.72	3.7740	3.7743	-0.7740	25.00	0.04	-0.750			
0.2873	18388.24	3.7710	3.7709	-0.7683	25.00	0.04	-0.750			
0.2895	18530.38	3.7680	3.7680	-0.7734	25.00	0.04	-0.750			
0.2918	18675.96	3.7650	3.7652	-0.7790	25.01	0.05	-0.750			
0.2942	18830.08	3.7620	3.7619	-0.7922	25.01	0.05	-0.750			
0.2966	18981.60	3.7590	3.7593	-0.8023	25.01	0.05	-0.750			
0.2990	19137.30	3.7560	3.7560	-0.8165	25.01	0.05	-0.750			
0.3015	19297.63	3.7530	3.7530	-0.8345	25.01	0.05	-0.750			
0.3041	19459.87	3.7500	3.7500	-0.8384	25.00	0.04	-0.750			
0.3066	19619.58	3.7470	3.7469	-0.8336	25.00	0.04	-0.750			
0.3091	19781.91	3.7440	3.7442	-0.8451	25.00	0.04	-0.750			
0.3116	19943.22	3.7410	3.7410	-0.8660	25.00	0.04	-0.750			
0.3142	20110.25	3.7380	3.7379	-0.8686	24.99	0.03	-0.750			
0.3169	20278.62	3.7350	3.7349	-0.8778	24.99	0.03	-0.750			
0.3195	20448.17	3.7320	3.7320	-0.8884	24.98	0.02	-0.750			
0.3222	20623.87	3.7290	3.7296	-0.9009	24.98	0.02	-0.750			
0.3249	20796.20	3.7260	3.7259	-0.9162	24.98	0.02	-0.750			
0.3277	20975.57	3.7230	3.7229	-0.9068	24.98	0.02	-0.750			
0.3304	21145.80	3.7200	3.7200	-0.9226	24.98	0.02	-0.750			
0.3332	21325.02	3.7170	3.7170	-0.9393	24.98	0.02	-0.750			
0.3360	21504.03	3.7140	3.7137	-0.9655	24.98	0.02	-0.750			
0.3389	21691.92	3.7110	3.7110	-0.9712	24.97	0.01	-0.750			
0.3418	21878.12	3.7080	3.7080	-0.9959	24.97	0.01	-0.750			
0.3449	22072.40	3.7050	3.7048	-1.0007	24.96	0.00	-0.750			
0.3480	22271.51	3.7020	3.7021	-1.0403	24.96	-0.00	-0.750			
0.3511	22469.86	3.6990	3.6988	-1.0287	24.95	-0.01	-0.750	0.361	0.507	
0.3542	22671.00	3.6960	3.6959	-1.0344	24.94	-0.02	-0.750			
0.3573	22864.88	3.6930	3.6928	-1.0378	24.94	-0.02	-0.750			
0.3605	23069.35	3.6900	3.6901	-1.0849	24.93	-0.03	-0.750			
0.3637	23276.01	3.6870	3.6867	-1.0947	24.92	-0.04	-0.750			
0.3670	23485.25	3.6840	3.6839	-1.1435	24.92	-0.04	-0.750			
0.3704	23703.13	3.6810	3.6812	-1.1794	24.91	-0.05	-0.750			
0.3742	23946.58	3.6780	3.6776	-1.2403	24.91	-0.05	-0.750			
0.3780	24194.66	3.6750	3.6745	-1.2637	24.90	-0.06	-0.750			
0.3819	24439.08	3.6720	3.6722	-1.2702	24.89	-0.07	-0.750			
0.3857	24682.79	3.6690	3.6693	-1.2670	24.89	-0.07	-0.750			
0.3897	24940.41	3.6660	3.6658	-1.2766	24.89	-0.07	-0.750			
0.3932	25165.81	3.6630	3.6629	-1.2387	24.88	-0.08	-0.750			
0.3970	25407.68	3.6600	3.6606	-1.2662	24.88	-0.08	-0.750			
0.4009	25659.92	3.6570	3.6570	-1.2815	24.87	-0.09	-0.750			
0.4048	25905.31	3.6540	3.6538	-1.3151	24.87	-0.09	-0.750			
0.4087	26159.26	3.6510	3.6510	-1.3316	24.86	-0.10	-0.750			
0.4127	26415.54	3.6480	3.6479	-1.3693	24.85	-0.11	-0.750			
0.4169	26683.29	3.6450	3.6447	-1.3856	24.85	-0.11	-0.750			
0.4211	26951.34	3.6420	3.6420	-1.4121	24.84	-0.12	-0.750			
0.4255	27229.77	3.6390	3.6389	-1.4464	24.83	-0.13	-0.750			
0.4297	27502.87	3.6360	3.6360	-1.4990	24.83	-0.13	-0.750			
0.4343	27792.22	3.6330	3.6334	-1.5008	24.82	-0.14	-0.750			
0.4390	28094.61	3.6300	3.6299	-1.5193	24.82	-0.14	-0.750			
0.4435	28386.00	3.6270	3.6270	-1.5433	24.81	-0.15	-0.750			
0.4482	28684.05	3.6240	3.6236	-1.5858	24.81	-0.15	-0.750			
0.4529	28987.60	3.6210	3.6211	-1.6253	24.80	-0.16	-0.750			
0.4578	29301.19	3.6180	3.6178	-1.6503	24.79	-0.17	-0.750			
0.4628	29619.72	3.6150	3.6149	-1.6780	24.78	-0.18	-0.750			
0.4680	29954.41	3.6120	3.6118	-1.7256	24.78	-0.18	-0.750			
0.4733	30293.41	3.6090	3.6089	-1.7662	24.77	-0.19	-0.750			
0.4786	30629.92	3.6060	3.6060	-1.7719	24.76	-0.20	-0.750			
0.4839	30969.74	3.6030	3.6033	-1.7958	24.76	-0.20	-0.750			
0.4893	31315.56	3.6000	3.6001	-1.8403	24.76	-0.20	-0.750			
0.4949	31673.83	3.5970	3.5970	-1.8691	24.76	-0.20	-0.750			
0.5005	32034.07	3.5940	3.5938	-1.9429	24.76	-0.20	-0.750			
0.5066	32419.67	3.5910	3.5908	-1.9725	24.75	-0.21	-0.750			
0.5126	32807.17	3.5880	3.5876	-2.0014	24.75	-0.21	-0.750			
0.5187	33194.25	3.5850	3.5854	-2.0360	24.76	-0.20	-0.750			
0.5248	33584.09	3.5820	3.5817	-2.0326	24.76	-0.20	-0.750			
0.5309	33978.07	3.5790	3.5787	-2.0264	24.75	-0.21	-0.750			
0.5366	34345.58	3.5760	3.5762	-2.0550	24.74	-0.22	-0.750			
0.5431	34759.50	3.5730	3.5733	-2.0887	24.74	-0.22	-0.750			
0.5494	35158.41	3.5700	3.5697	-2.1412	24.74	-0.22	-0.750			
0.5558	35572.38	3.5670	3.5675	-2.1430	24.75	-0.21	-0.750			
0.5623	35986.76	3.5640	3.5637	-2.1318	24.75	-0.21	-0.750			
0.5689	36410.96	3.5610	3.5610	-2.1256	24.75	-0.21	-0.750			
0.5750	36800.91	3.5580	3.5584	-2.1294	24.75	-0.21	-0.750			
0.5817	37227.09	3.5550	3.5551	-2.1257	24.76	-0.20	-0.750			
0.5881	37635.47	3.5520	3.5516	-2.0793	24.77	-0.19	-0.750			
0.5943	38037.77	3.5490	3.5491	-2.0863	24.78	-0.18	-0.750			
0.6004	38423.74	3.5460	3.5459	-2.0529	24.79	-0.17	-0.750			
0.6067	38826.78	3.5430	3.5427	-2.0259	24.80	-0.16	-0.750			
0.6126	39203.29	3.5400	3.5397	-1.9777	24.80	-0.16	-0.750			
0.6187	39594.57	3.5370	3.5374	-1.9810	24.81	-0.15	-0.750			
0.6246	39973.75	3.5340	3.5337	-1.9595	24.82	-0.14	-0.750			
0.6304	40347.49	3.5310	3.5306	-1.9083	24.83	-0.13	-0.750			
0.6360	40704.05	3.5280	3.5278	-1.8397	24.84	-0.12	-0.750			
0.6416	41060.00	3.5250	3.5248	-1.8338	24.86	-0.10	-0.750			
0.6468	41395.44	3.5220	3.5222	-1.7765	24.88	-0.08	-0.750			
0.6521	41734.42	3.5190	3.5191	-1.7329	24.90	-0.06	-0.750			
0.6573	42068.42	3.5160	3.5161	-1.7033	24.91	-0.05	-0.750			
0.6624	42395.31	3.5130	3.5128	-1.6634	24.93	-0.03	-0.750			
0.6674	42714.09	3.5100	3.5097	-1.6279	24.95	-0.01	-0.750			
0.6722	43023.36	3.5070	3.5073	-1.5646	24.96	0.00	-0.750			
0.6768	43317.57	3.5040	3.5037	-1.5153	24.98	0.02	-0.750			
0.6813	43601.77	3.5010	3.5011	-1.4735	25.00	0.04	-0.750			
0.6856	43878.75	3.4980	3.4981	-1.4225	25.02	0.06	-0.750			
0.6899	44155.56	3.4950	3.4948	-1.3931	25.04	0.08	-0.750			
0.6940	44413.45	3.4920	3.4919	-1.3342	25.05	0.09	-0.750			
0.6979	44667.91	3.4890	3.4892	-1.2958	25.06	0.10	-0.750			
0.7019	44918.54	3.4860	3.4861	-1.2273	25.08	0.12	-0.750			
0.7054	45146.42	3.4830	3.4830	-1.1481	25.09	0.13	-0.750			
