Ah_balance (normalized)	Ah_balance (mAh)	Voltage - fit (V)	Voltage -  interpolate (V)	dQ/dV (1/V)	Temperature (°C)	Temperature - diff (°C)	Current (C)	R_DC 0ms (mOhm)	R_DC 50ms (mOhm)	R_DC 50 ms PEC (mOhm)
0.0477	3053.76	4.1980	4.1979	0.7564	25.35	0.53	0.750			
0.0499	3196.37	4.1950	4.1951	0.7455	25.35	0.53	0.750			
0.0522	3339.17	4.1920	4.1921	0.7482	25.35	0.53	0.750			
0.0544	3483.55	4.1890	4.1889	0.7508	25.35	0.53	0.750			
0.0567	3627.69	4.1860	4.1860	0.7549	25.35	0.53	0.750			
0.0589	3772.58	4.1830	4.1830	0.7542	25.35	0.53	0.750			
0.0612	3917.58	4.1800	4.1800	0.7589	25.35	0.53	0.750			
0.0635	4064.38	4.1770	4.1770	0.7603	25.35	0.53	0.750			
0.0658	4210.19	4.1740	4.1738	0.7602	25.35	0.53	0.750			
0.0681	4356.59	4.1710	4.1711	0.7606	25.35	0.53	0.750			
0.0704	4504.75	4.1680	4.1680	0.7566	25.35	0.53	0.750			
0.0726	4648.98	4.1650	4.1650	0.7576	25.35	0.53	0.750			
0.0749	4792.61	4.1620	4.1621	0.7570	25.35	0.53	0.750			
0.0772	4938.02	4.1590	4.1591	0.7629	25.35	0.53	0.750			
0.0795	5086.15	4.1560	4.1561	0.7647	25.35	0.53	0.750			
0.0818	5232.82	4.1530	4.1531	0.7700	25.35	0.53	0.750			
0.0841	5382.03	4.1500	4.1500	0.7707	25.35	0.53	0.750			
0.0864	5529.78	4.1470	4.1470	0.7746	25.36	0.54	0.750			
0.0887	5677.29	4.1440	4.1440	0.7699	25.36	0.54	0.750			
0.0910	5825.74	4.1410	4.1408	0.7739	25.36	0.54	0.750			
0.0934	5975.85	4.1380	4.1380	0.7739	25.36	0.54	0.750			
0.0957	6126.69	4.1350	4.1350	0.7672	25.36	0.54	0.750			
0.0980	6272.09	4.1320	4.1320	0.7728	25.37	0.55	0.750			
0.1003	6420.98	4.1290	4.1290	0.7773	25.37	0.55	0.750			
0.1026	6568.40	4.1260	4.1259	0.7747	25.37	0.55	0.750			
0.1050	6717.97	4.1230	4.1232	0.7817	25.37	0.55	0.750			
0.1073	6868.69	4.1200	4.1200	0.7830	25.37	0.55	0.750			
0.1097	7020.85	4.1170	4.1170	0.7727	25.37	0.55	0.750			
0.1120	7167.78	4.1140	4.1141	0.7769	25.37	0.55	0.750			
0.1143	7312.89	4.1110	4.1113	0.7792	25.37	0.55	0.750			
0.1166	7463.52	4.1080	4.1074	0.7869	25.37	0.55	0.750			
0.1190	7614.56	4.1050	4.1050	0.7939	25.37	0.55	0.750			
0.1214	7768.53	4.1020	4.1021	0.7939	25.37	0.55	0.750			
0.1238	7924.88	4.0990	4.0991	0.8056	25.38	0.56	0.750			
0.1262	8076.64	4.0960	4.0960	0.7944	25.38	0.56	0.750			
0.1286	8231.71	4.0930	4.0928	0.8007	25.38	0.56	0.750			
0.1310	8384.10	4.0900	4.0900	0.8014	25.38	0.56	0.750			
0.1334	8539.24	4.0870	4.0871	0.8026	25.38	0.56	0.750			
0.1359	8694.52	4.0840	4.0840	0.8054	25.38	0.56	0.750			
0.1383	8848.87	4.0810	4.0810	0.8053	25.38	0.56	0.750			
0.1407	9002.70	4.0780	4.0777	0.8063	25.38	0.56	0.750			
0.1431	9158.06	4.0750	4.0751	0.8075	25.38	0.56	0.750			
0.1456	9317.67	4.0720	4.0719	0.7944	25.38	0.56	0.750			
0.1479	9468.11	4.0690	4.0691	0.8013	25.39	0.57	0.750			
0.1503	9619.50	4.0660	4.0661	0.8120	25.39	0.57	0.750			
0.1527	9773.13	4.0630	4.0631	0.8155	25.39	0.57	0.750			
0.1552	9931.76	4.0600	4.0601	0.8206	25.39	0.57	0.750			
0.1577	10092.18	4.0570	4.0571	0.8218	25.39	0.57	0.750			
0.1602	10251.34	4.0540	4.0541	0.8340	25.40	0.58	0.750			
0.1627	10415.48	4.0510	4.0510	0.8407	25.40	0.58	0.750			
0.1652	10571.91	4.0480	4.0478	0.8294	25.40	0.58	0.750			
0.1677	10730.36	4.0450	4.0452	0.8349	25.40	0.58	0.750			
0.1702	10892.94	4.0420	4.0420	0.8342	25.41	0.59	0.750			
0.1727	11053.32	4.0390	4.0390	0.8392	25.41	0.59	0.750			
0.1752	11214.96	4.0360	4.0360	0.8426	25.41	0.59	0.750			
0.1777	11375.29	4.0330	4.0330	0.8412	25.42	0.60	0.750			
0.1803	11537.78	4.0300	4.0300	0.8448	25.42	0.60	0.750			
0.1828	11700.16	4.0270	4.0270	0.8459	25.42	0.60	0.750			
0.1853	11859.24	4.0240	4.0242	0.8399	25.43	0.61	0.750			
0.1878	12019.79	4.0210	4.0211	0.8492	25.43	0.61	0.750			
0.1903	12180.60	4.0180	4.0182	0.8499	25.43	0.61	0.750			
0.1929	12345.11	4.0150	4.0152	0.8604	25.43	0.61	0.750			
0.1955	12512.37	4.0120	4.0121	0.8643	25.43	0.61	0.750			
0.1981	12679.59	4.0090	4.0091	0.8734	25.43	0.61	0.750			
0.2008	12853.31	4.0060	4.0060	0.8875	25.43	0.61	0.750			
0.2034	13015.50	4.0030	4.0025	0.8661	25.43	0.61	0.750			
0.2060	13184.69	4.0000	4.0000	0.8652	25.43	0.61	0.750			
0.2086	13350.22	3.9970	3.9971	0.8712	25.44	0.62	0.750			
0.2112	13517.64	3.9940	3.9940	0.8751	25.44	0.62	0.750			
0.2138	13686.36	3.9910	3.9910	0.8784	25.45	0.63	0.750			
0.2164	13852.55	3.9880	3.9878	0.8739	25.45	0.63	0.750			
0.2191	14024.40	3.9850	3.9850	0.8725	25.45	0.63	0.750			
0.2218	14192.22	3.9820	3.9820	0.8737	25.45	0.63	0.750			
0.2243	14358.18	3.9790	3.9791	0.8790	25.45	0.63	0.750			
0.2270	14524.86	3.9760	3.9761	0.8790	25.45	0.63	0.750			
0.2296	14694.66	3.9730	3.9731	0.8841	25.45	0.63	0.750			
0.2323	14866.38	3.9700	3.9701	0.8874	25.46	0.64	0.750			
0.2350	15038.20	3.9670	3.9670	0.8948	25.46	0.64	0.750			
0.2377	15210.72	3.9640	3.9641	0.8992	25.46	0.64	0.750			
0.2404	15383.01	3.9610	3.9607	0.8956	25.47	0.65	0.750			
0.2430	15554.24	3.9580	3.9580	0.9007	25.47	0.65	0.750			
0.2458	15728.26	3.9550	3.9551	0.8934	25.47	0.65	0.750			
0.2484	15898.76	3.9520	3.9521	0.8973	25.47	0.65	0.750			
0.2511	16072.21	3.9490	3.9491	0.9023	25.47	0.65	0.750			
0.2538	16244.10	3.9460	3.9457	0.9027	25.47	0.65	0.750			
0.2566	16422.03	3.9430	3.9429	0.8868	25.47	0.65	0.750			
0.2592	16589.31	3.9400	3.9402	0.8963	25.47	0.65	0.750			
0.2619	16761.25	3.9370	3.9371	0.9015	25.47	0.65	0.750			
0.2646	16934.19	3.9340	3.9342	0.9034	25.47	0.65	0.750			
0.2673	17105.65	3.9310	3.9309	0.9040	25.47	0.65	0.750			
0.2700	17281.46	3.9280	3.9282	0.9087	25.47	0.65	0.750			
0.2728	17458.77	3.9250	3.9251	0.9159	25.47	0.65	0.750			
0.2756	17636.84	3.9220	3.9220	0.9215	25.47	0.65	0.750			
0.2783	17810.99	3.9190	3.9189	0.9106	25.47	0.65	0.750			
0.2811	17988.30	3.9160	3.9160	0.9091	25.47	0.65	0.750			
0.2838	18162.80	3.9130	3.9130	0.9096	25.47	0.65	0.750			
0.2865	18337.64	3.9100	3.9101	0.9146	25.47	0.65	0.750			
0.2893	18512.83	3.9070	3.9070	0.9177	25.47	0.65	0.750			
0.2920	18688.19	3.9040	3.9040	0.9176	25.47	0.65	0.750			
0.2948	18866.11	3.9010	3.9011	0.9096	25.46	0.64	0.750			
0.2975	19040.91	3.8980	3.8980	0.9156	25.46	0.64	0.750			
0.3003	19216.00	3.8950	3.8951	0.9212	25.46	0.64	0.750			
0.3030	19392.51	3.8920	3.8917	0.9156	25.45	0.63	0.750			
0.3058	19569.18	3.8890	3.8890	0.9098	25.45	0.63	0.750			
0.3085	19743.61	3.8860	3.8861	0.9138	25.44	0.62	0.750			
0.3112	19919.21	3.8830	3.8832	0.9209	25.44	0.62	0.750			
0.3140	20098.14	3.8800	3.8800	0.9270	25.43	0.61	0.750			
0.3168	20273.72	3.8770	3.8769	0.9219	25.43	0.61	0.750			
0.3196	20452.30	3.8740	3.8740	0.9187	25.42	0.60	0.750			
0.3223	20630.09	3.8710	3.8711	0.9276	25.42	0.60	0.750			
0.3251	20807.97	3.8680	3.8681	0.9253	25.42	0.60	0.750			
0.3279	20983.04	3.8650	3.8648	0.9234	25.41	0.59	0.750			
0.3306	21161.21	3.8620	3.8620	0.9251	25.41	0.59	0.750			
0.3334	21337.11	3.8590	3.8591	0.9158	25.40	0.58	0.750			
0.3361	21511.17	3.8560	3.8562	0.9222	25.39	0.57	0.750			
0.3389	21688.68	3.8530	3.8532	0.9318	25.39	0.57	0.750			
0.3417	21865.87	3.8500	3.8494	0.9371	25.38	0.56	0.750			
0.3445	22048.30	3.8470	3.8472	0.9326	25.37	0.55	0.750			
0.3473	22225.92	3.8440	3.8442	0.9447	25.37	0.55	0.750			
0.3502	22411.85	3.8410	3.8411	0.9608	25.36	0.54	0.750			
0.3531	22597.15	3.8380	3.8377	0.9444	25.35	0.53	0.750			
0.3559	22779.54	3.8350	3.8348	0.9481	25.34	0.52	0.750	0.297	0.424	
0.3588	22960.77	3.8320	3.8322	0.9650	25.33	0.51	0.750			
0.3617	23148.36	3.8290	3.8292	0.9780	25.32	0.50	0.750			
0.3647	23339.67	3.8260	3.8262	0.9926	25.31	0.49	0.750			
0.3676	23524.97	3.8230	3.8232	0.9876	25.31	0.49	0.750			
0.3706	23717.39	3.8200	3.8201	0.9892	25.30	0.48	0.750			
0.3736	23908.87	3.8170	3.8171	0.9993	25.29	0.47	0.750			
0.3766	24102.22	3.8140	3.8141	1.0022	25.28	0.46	0.750			
0.3796	24294.88	3.8110	3.8110	0.9951	25.28	0.46	0.750			
0.3826	24485.72	3.8080	3.8081	1.0077	25.27	0.45	0.750			
0.3857	24682.24	3.8050	3.8050	0.9974	25.26	0.44	0.750			
0.3885	24865.46	3.8020	3.8023	1.0449	25.26	0.44	0.750			
0.3916	25060.11	3.7990	3.7995	1.0723	25.25	0.43	0.750			
0.3949	25271.66	3.7960	3.7961	1.1207	25.23	0.41	0.750			
0.3984	25497.16	3.7930	3.7931	1.1467	25.22	0.40	0.750			
0.4020	25725.52	3.7900	3.7904	1.1752	25.21	0.39	0.750			
0.4057	25963.35	3.7870	3.7871	1.1783	25.19	0.37	0.750			
0.4093	26194.02	3.7840	3.7839	1.1761	25.18	0.36	0.750			
0.4125	26398.76	3.7810	3.7811	1.1514	25.17	0.35	0.750			
0.4160	26622.94	3.7780	3.7774	1.1768	25.16	0.34	0.750			
0.4195	26849.56	3.7750	3.7751	1.1997	25.15	0.33	0.750			
0.4232	27084.25	3.7720	3.7721	1.2238	25.14	0.32	0.750			
0.4270	27327.18	3.7690	3.7689	1.2434	25.12	0.30	0.750			
0.4307	27567.76	3.7660	3.7661	1.2747	25.11	0.29	0.750			
0.4345	27805.37	3.7630	3.7630	1.2845	25.10	0.28	0.750			
0.4383	28052.96	3.7600	3.7600	1.3177	25.08	0.26	0.750			
0.4423	28309.77	3.7570	3.7569	1.3309	25.07	0.25	0.750			
0.4465	28575.67	3.7540	3.7540	1.3324	25.05	0.23	0.750			
0.4505	28833.09	3.7510	3.7511	1.3741	25.04	0.22	0.750			
0.4546	29091.72	3.7480	3.7484	1.4140	25.03	0.21	0.750			
0.4587	29359.18	3.7450	3.7453	1.4544	25.01	0.19	0.750			
0.4633	29649.72	3.7420	3.7421	1.4766	25.00	0.18	0.750			
0.4678	29936.29	3.7390	3.7389	1.5418	24.99	0.17	0.750			
0.4725	30239.94	3.7360	3.7361	1.5897	24.97	0.15	0.750			
0.4774	30554.10	3.7330	3.7331	1.6371	24.96	0.14	0.750			
0.4824	30874.68	3.7300	3.7301	1.6873	24.95	0.13	0.750			
0.4874	31194.38	3.7270	3.7272	1.7262	24.93	0.11	0.750			
0.4927	31534.60	3.7240	3.7241	1.7826	24.91	0.09	0.750			
0.4983	31893.17	3.7210	3.7212	1.8383	24.90	0.08	0.750			
0.5038	32244.79	3.7180	3.7180	1.8635	24.88	0.06	0.750			
0.5095	32609.91	3.7150	3.7147	1.9249	24.86	0.04	0.750			
0.5152	32975.43	3.7120	3.7120	1.9665	24.84	0.02	0.750			
0.5213	33365.59	3.7090	3.7089	2.0352	24.83	0.01	0.750			
0.5275	33762.47	3.7060	3.7059	2.0852	24.82	0.00	0.750			
0.5338	34160.20	3.7030	3.7031	2.1495	24.80	-0.02	0.750			
0.5404	34583.16	3.7000	3.6999	2.2043	24.78	-0.04	0.750			
0.5472	35018.01	3.6970	3.6967	2.2632	24.77	-0.05	0.750			
0.5540	35453.48	3.6940	3.6942	2.3356	24.76	-0.06	0.750			
0.5611	35907.43	3.6910	3.6910	2.4046	24.74	-0.08	0.750			
0.5683	36371.22	3.6880	3.6880	2.4669	24.73	-0.09	0.750			
0.5760	36860.83	3.6850	3.6849	2.5382	24.71	-0.11	0.750			
0.5838	37365.73	3.6820	3.6818	2.5977	24.71	-0.11	0.750			
0.5914	37851.83	3.6790	3.6790	2.6210	24.70	-0.12	0.750			
0.5994	38360.27	3.6760	3.6761	2.6067	24.69	-0.13	0.750			
0.6072	38862.66	3.6730	3.6732	2.5639	24.69	-0.13	0.750			
0.6151	39366.30	3.6700	3.6700	2.5084	24.68	-0.14	0.750			
0.6227	39851.12	3.6670	3.6668	2.3953	24.69	-0.13	0.750			
0.6295	40286.48	3.6640	3.6640	2.2217	24.69	-0.13	0.750			
0.6360	40701.68	3.6610	3.6608	2.0540	24.70	-0.12	0.750			
0.6419	41078.59	3.6580	3.6577	1.8936	24.70	-0.12	0.750			
0.6472	41419.60	3.6550	3.6552	1.7312	24.71	-0.11	0.750			
0.6521	41736.45	3.6520	3.6520	1.5890	24.72	-0.10	0.750			
0.6567	42028.97	3.6490	3.6490	1.4643	24.73	-0.09	0.750			
0.6608	42294.16	3.6460	3.6460	1.3393	24.73	-0.09	0.750			
0.6646	42535.64	3.6430	3.6430	1.2438	24.74	-0.08	0.750			
0.6683	42768.28	3.6400	3.6399	1.1497	24.74	-0.08	0.750			
0.6714	42971.89	3.6370	3.6370	1.0816	24.75	-0.07	0.750			
0.6745	43169.04	3.6340	3.6341	1.0384	24.75	-0.07	0.750			
0.6775	43359.93	3.6310	3.6309	0.9973	24.76	-0.06	0.750			
0.6804	43547.82	3.6280	3.6281	0.9610	24.76	-0.06	0.750			
0.6833	43729.55	3.6250	3.6250	0.9329	24.77	-0.05	0.750			
0.6861	43907.54	3.6220	3.6222	0.9043	24.77	-0.05	0.750			
0.6888	44083.63	3.6190	3.6190	0.8772	24.78	-0.04	0.750			
0.6913	44245.76	3.6160	3.6158	0.8267	24.78	-0.04	0.750			
0.6938	44401.88	3.6130	3.6130	0.7757	24.79	-0.03	0.750			
0.6961	44547.91	3.6100	3.6101	0.7246	24.80	-0.02	0.750			
0.6982	44683.16	3.6070	3.6070	0.6644	24.80	-0.02	0.750			
0.7001	44805.14	3.6040	3.6040	0.6014	24.81	-0.01	0.750			
0.7018	44912.56	3.6010	3.6010	0.5439	24.81	-0.01	0.750			
0.7033	45010.35	3.5980	3.5978	0.4871	24.82	-0.00	0.750			
0.7047	45098.12	3.5950	3.5950	0.4356	24.82	0.00	0.750			
0.7059	45176.87	3.5920	3.5922	0.3871	24.83	0.01	0.750			
0.7070	45246.62	3.5890	3.5889	0.3392	24.83	0.01	0.750			
0.7079	45307.78	3.5860	3.5859	0.2905	24.83	0.01	0.750			
0.7087	45357.70	3.5830	3.5830	0.2397	24.84	0.02	0.750			
0.7093	45398.39	3.5800	3.5803	0.1919	24.84	0.02	0.750			
0.7099	45431.94	3.5770	3.5770	0.1382	24.84	0.02	0.750			
0.7102	45453.31	3.5740	3.5741	0.0834	24.84	0.02	0.750			
