Ah_balance (normalized)	Ah_balance (mAh)	Voltage - fit (V)	Voltage -  interpolate (V)	dQ/dV (1/V)	Temperature (°C)	Temperature - diff (°C)	Current (C)	R_DC 0ms (mOhm)	R_DC 50ms (mOhm)	R_DC 50 ms PEC (mOhm)
0.0004	25.52	4.1630	4.1631	-0.1474	25.12	0.00	-0.750			
0.0009	57.24	4.1600	4.1600	-0.1870	25.12	0.00	-0.750			
0.0015	97.16	4.1570	4.1570	-0.2284	25.12	0.00	-0.750			
0.0023	145.30	4.1540	4.1541	-0.2686	25.12	-0.00	-0.750			
0.0031	200.42	4.1510	4.1510	-0.3124	25.12	-0.00	-0.750			
0.0041	264.08	4.1480	4.1480	-0.3552	25.11	-0.01	-0.750			
0.0053	338.03	4.1450	4.1449	-0.3904	25.11	-0.01	-0.750			
0.0065	416.52	4.1420	4.1421	-0.4324	25.10	-0.02	-0.750			
0.0078	501.88	4.1390	4.1391	-0.4762	25.10	-0.02	-0.750			
0.0094	598.98	4.1360	4.1360	-0.5111	25.10	-0.02	-0.750			
0.0110	702.08	4.1330	4.1328	-0.5449	25.09	-0.03	-0.750			
0.0127	810.49	4.1300	4.1300	-0.5705	25.09	-0.03	-0.750			
0.0145	925.03	4.1270	4.1276	-0.5957	25.08	-0.04	-0.750			
0.0163	1042.90	4.1240	4.1240	-0.6162	25.08	-0.04	-0.750			
0.0182	1162.75	4.1210	4.1209	-0.6235	25.07	-0.05	-0.750			
0.0201	1284.04	4.1180	4.1180	-0.6379	25.07	-0.05	-0.750			
0.0220	1408.57	4.1150	4.1151	-0.6530	25.07	-0.05	-0.750			
0.0240	1535.74	4.1120	4.1119	-0.6611	25.06	-0.06	-0.750			
0.0260	1663.14	4.1090	4.1089	-0.6707	25.06	-0.06	-0.750			
0.0280	1791.74	4.1060	4.1059	-0.6801	25.06	-0.06	-0.750			
0.0300	1922.93	4.1030	4.1030	-0.6897	25.05	-0.07	-0.750			
0.0321	2056.61	4.1000	4.1000	-0.7035	25.05	-0.07	-0.750			
0.0342	2191.29	4.0970	4.0971	-0.7115	25.05	-0.07	-0.750			
0.0364	2332.26	4.0940	4.0940	-0.7180	25.04	-0.08	-0.750			
0.0386	2471.63	4.0910	4.0909	-0.7235	25.04	-0.08	-0.750			
0.0408	2610.27	4.0880	4.0881	-0.7233	25.04	-0.08	-0.750			
0.0430	2749.56	4.0850	4.0849	-0.7241	25.04	-0.08	-0.750			
0.0451	2888.91	4.0820	4.0820	-0.7371	25.04	-0.08	-0.750			
0.0474	3031.86	4.0790	4.0789	-0.7378	25.04	-0.08	-0.750			
0.0496	3175.08	4.0760	4.0759	-0.7452	25.04	-0.08	-0.750			
0.0519	3319.56	4.0730	4.0737	-0.7478	25.04	-0.08	-0.750			
0.0541	3462.80	4.0700	4.0699	-0.7456	25.04	-0.08	-0.750			
0.0563	3603.86	4.0670	4.0670	-0.7546	25.04	-0.08	-0.750			
0.0585	3747.05	4.0640	4.0640	-0.7492	25.04	-0.08	-0.750			
0.0609	3894.86	4.0610	4.0609	-0.7617	25.04	-0.08	-0.750			
0.0631	4040.45	4.0580	4.0580	-0.7642	25.04	-0.08	-0.750			
0.0654	4188.07	4.0550	4.0548	-0.7638	25.04	-0.08	-0.750			
0.0677	4335.88	4.0520	4.0519	-0.7634	25.04	-0.08	-0.750			
0.0700	4481.34	4.0490	4.0490	-0.7652	25.04	-0.08	-0.750			
0.0723	4627.97	4.0460	4.0460	-0.7598	25.04	-0.08	-0.750			
0.0746	4775.88	4.0430	4.0430	-0.7683	25.04	-0.08	-0.750			
0.0769	4921.47	4.0400	4.0401	-0.7684	25.04	-0.08	-0.750			
0.0792	5069.23	4.0370	4.0371	-0.7714	25.04	-0.08	-0.750			
0.0816	5219.34	4.0340	4.0338	-0.7882	25.04	-0.08	-0.750			
0.0840	5373.00	4.0310	4.0309	-0.7858	25.04	-0.08	-0.750			
0.0863	5525.81	4.0280	4.0279	-0.7855	25.04	-0.08	-0.750			
0.0887	5676.60	4.0250	4.0255	-0.7845	25.04	-0.08	-0.750			
0.0910	5826.36	4.0220	4.0218	-0.7790	25.04	-0.08	-0.750			
0.0933	5973.18	4.0190	4.0190	-0.7856	25.04	-0.08	-0.750			
0.0957	6122.09	4.0160	4.0159	-0.7790	25.04	-0.08	-0.750			
0.0981	6277.78	4.0130	4.0130	-0.7894	25.04	-0.08	-0.750			
0.1004	6427.76	4.0100	4.0099	-0.7871	25.04	-0.08	-0.750			
0.1028	6578.78	4.0070	4.0070	-0.7877	25.04	-0.08	-0.750			
0.1051	6727.97	4.0040	4.0039	-0.7893	25.04	-0.08	-0.750			
0.1074	6876.26	4.0010	4.0009	-0.7875	25.04	-0.08	-0.750			
0.1098	7026.18	3.9980	3.9981	-0.7898	25.04	-0.08	-0.750			
0.1122	7182.57	3.9950	3.9950	-0.8044	25.04	-0.08	-0.750			
0.1147	7339.87	3.9920	3.9921	-0.8073	25.04	-0.08	-0.750			
0.1171	7493.85	3.9890	3.9889	-0.8041	25.04	-0.08	-0.750			
0.1195	7649.23	3.9860	3.9861	-0.8145	25.05	-0.07	-0.750			
0.1220	7806.71	3.9830	3.9828	-0.8156	25.05	-0.07	-0.750			
0.1244	7964.54	3.9800	3.9798	-0.8183	25.06	-0.06	-0.750			
0.1269	8121.85	3.9770	3.9776	-0.8148	25.06	-0.06	-0.750			
0.1294	8279.21	3.9740	3.9739	-0.8092	25.06	-0.06	-0.750			
0.1318	8433.89	3.9710	3.9710	-0.8113	25.06	-0.06	-0.750			
0.1341	8585.10	3.9680	3.9680	-0.8057	25.06	-0.06	-0.750			
0.1366	8743.89	3.9650	3.9649	-0.8146	25.06	-0.06	-0.750			
0.1390	8896.97	3.9620	3.9619	-0.8157	25.06	-0.06	-0.750			
0.1415	9053.16	3.9590	3.9589	-0.8208	25.06	-0.06	-0.750			
0.1439	9212.37	3.9560	3.9560	-0.8272	25.06	-0.06	-0.750			
0.1464	9372.06	3.9530	3.9529	-0.8319	25.06	-0.06	-0.750			
0.1490	9533.85	3.9500	3.9501	-0.8368	25.06	-0.06	-0.750			
0.1515	9694.50	3.9470	3.9471	-0.8335	25.06	-0.06	-0.750			
0.1540	9855.21	3.9440	3.9439	-0.8368	25.06	-0.06	-0.750			
0.1565	10016.25	3.9410	3.9410	-0.8394	25.07	-0.05	-0.750			
0.1590	10176.72	3.9380	3.9379	-0.8376	25.07	-0.05	-0.750			
0.1615	10337.78	3.9350	3.9350	-0.8365	25.08	-0.04	-0.750			
0.1640	10498.27	3.9320	3.9325	-0.8399	25.08	-0.04	-0.750			
0.1665	10659.16	3.9290	3.9288	-0.8433	25.08	-0.04	-0.750			
0.1691	10820.71	3.9260	3.9261	-0.8529	25.08	-0.04	-0.750			
0.1716	10985.22	3.9230	3.9229	-0.8529	25.08	-0.04	-0.750			
0.1743	11155.45	3.9200	3.9199	-0.8646	25.08	-0.04	-0.750			
0.1769	11319.72	3.9170	3.9175	-0.8579	25.08	-0.04	-0.750			
0.1794	11484.70	3.9140	3.9139	-0.8533	25.08	-0.04	-0.750			
0.1820	11647.72	3.9110	3.9109	-0.8452	25.09	-0.03	-0.750			
0.1844	11804.32	3.9080	3.9081	-0.8403	25.09	-0.03	-0.750			
0.1870	11967.55	3.9050	3.9050	-0.8518	25.10	-0.02	-0.750			
0.1895	12129.85	3.9020	3.9021	-0.8565	25.10	-0.02	-0.750			
0.1921	12292.59	3.8990	3.8989	-0.8702	25.10	-0.02	-0.750			
0.1947	12462.47	3.8960	3.8960	-0.8708	25.10	-0.02	-0.750			
0.1974	12632.68	3.8930	3.8930	-0.8748	25.11	-0.01	-0.750			
0.2001	12805.54	3.8900	3.8899	-0.8778	25.11	-0.01	-0.750			
0.2027	12970.97	3.8870	3.8871	-0.8711	25.11	-0.01	-0.750			
0.2053	13138.07	3.8840	3.8839	-0.8704	25.11	-0.01	-0.750			
0.2079	13304.38	3.8810	3.8810	-0.8660	25.11	-0.01	-0.750			
0.2104	13468.26	3.8780	3.8779	-0.8625	25.12	-0.00	-0.750			
0.2131	13636.30	3.8750	3.8751	-0.8698	25.12	-0.00	-0.750			
0.2157	13803.35	3.8720	3.8716	-0.8698	25.12	0.00	-0.750			
0.2183	13969.49	3.8690	3.8689	-0.8739	25.12	0.00	-0.750			
0.2209	14135.26	3.8660	3.8661	-0.8712	25.13	0.01	-0.750			
0.2235	14303.83	3.8630	3.8630	-0.8712	25.13	0.01	-0.750			
0.2262	14476.29	3.8600	3.8600	-0.8744	25.13	0.01	-0.750			
0.2288	14641.15	3.8570	3.8570	-0.8793	25.13	0.01	-0.750			
0.2314	14809.13	3.8540	3.8539	-0.8779	25.13	0.01	-0.750			
0.2341	14979.30	3.8510	3.8510	-0.8712	25.13	0.01	-0.750			
0.2366	15145.19	3.8480	3.8479	-0.8670	25.13	0.01	-0.750			
0.2393	15314.84	3.8450	3.8459	-0.8684	25.13	0.01	-0.750			
0.2419	15480.02	3.8420	3.8419	-0.8697	25.13	0.01	-0.750			
0.2445	15648.95	3.8390	3.8389	-0.8750	25.13	0.01	-0.750			
0.2471	15815.99	3.8360	3.8359	-0.8714	25.14	0.02	-0.750			
0.2498	15985.17	3.8330	3.8329	-0.8770	25.14	0.02	-0.750			
0.2524	16154.81	3.8300	3.8301	-0.8727	25.14	0.02	-0.750			
0.2550	16321.77	3.8270	3.8268	-0.8673	25.15	0.03	-0.750			
0.2576	16486.62	3.8240	3.8240	-0.8641	25.15	0.03	-0.750			
0.2601	16645.92	3.8210	3.8211	-0.8561	25.16	0.04	-0.750			
0.2628	16817.48	3.8180	3.8179	-0.8655	25.17	0.05	-0.750			
0.2654	16982.83	3.8150	3.8151	-0.8565	25.17	0.05	-0.750			
0.2679	17145.67	3.8120	3.8119	-0.8615	25.17	0.05	-0.750			
0.2705	17312.88	3.8090	3.8089	-0.8620	25.17	0.05	-0.750			
0.2731	17479.11	3.8060	3.8059	-0.8508	25.17	0.05	-0.750			
0.2756	17641.32	3.8030	3.8029	-0.8453	25.17	0.05	-0.750			
0.2782	17803.22	3.8000	3.8000	-0.8461	25.17	0.05	-0.750			
0.2807	17967.16	3.7970	3.7969	-0.8540	25.17	0.05	-0.750			
0.2833	18129.67	3.7940	3.7938	-0.8459	25.18	0.06	-0.750			
0.2858	18291.12	3.7910	3.7910	-0.8357	25.18	0.06	-0.750			
0.2884	18456.48	3.7880	3.7881	-0.8361	25.18	0.06	-0.750			
0.2909	18616.30	3.7850	3.7849	-0.8322	25.18	0.06	-0.750			
0.2933	18773.07	3.7820	3.7819	-0.8215	25.19	0.07	-0.750			
0.2958	18928.84	3.7790	3.7790	-0.8119	25.19	0.07	-0.750			
0.2981	19081.55	3.7760	3.7761	-0.8078	25.19	0.07	-0.750			
0.3006	19240.79	3.7730	3.7730	-0.8126	25.20	0.08	-0.750			
0.3031	19396.11	3.7700	3.7700	-0.8110	25.20	0.08	-0.750			
0.3055	19550.89	3.7670	3.7669	-0.8184	25.20	0.08	-0.750			
0.3079	19707.88	3.7640	3.7640	-0.8184	25.20	0.08	-0.750			
0.3104	19867.63	3.7610	3.7609	-0.8186	25.20	0.08	-0.750			
0.3129	20026.64	3.7580	3.7578	-0.8163	25.20	0.08	-0.750			
0.3154	20183.37	3.7550	3.7548	-0.8121	25.20	0.08	-0.750			
0.3178	20336.74	3.7520	3.7520	-0.8194	25.21	0.09	-0.750			
0.3202	20491.79	3.7490	3.7490	-0.8159	25.21	0.09	-0.750			
0.3226	20645.91	3.7460	3.7459	-0.8144	25.21	0.09	-0.750			
0.3251	20808.42	3.7430	3.7428	-0.8311	25.22	0.10	-0.750			
0.3277	20969.66	3.7400	3.7402	-0.8344	25.22	0.10	-0.750			
0.3301	21128.96	3.7370	3.7369	-0.8471	25.22	0.10	-0.750			
0.3327	21290.88	3.7340	3.7340	-0.8567	25.22	0.10	-0.750			
0.3352	21453.66	3.7310	3.7310	-0.8614	25.22	0.10	-0.750			
0.3379	21623.75	3.7280	3.7280	-0.8855	25.22	0.10	-0.750			
0.3406	21797.45	3.7250	3.7250	-0.8952	25.22	0.10	-0.750			
0.3433	21970.35	3.7220	3.7220	-0.9242	25.22	0.10	-0.750			
0.3461	22152.50	3.7190	3.7189	-0.9348	25.21	0.09	-0.750			
0.3489	22331.65	3.7160	3.7158	-0.9446	25.21	0.09	-0.750			
0.3518	22514.58	3.7130	3.7138	-0.9577	25.21	0.09	-0.750			
0.3547	22699.96	3.7100	3.7099	-0.9854	25.21	0.09	-0.750			
0.3577	22891.81	3.7070	3.7069	-0.9917	25.21	0.09	-0.750			
0.3607	23082.11	3.7040	3.7039	-1.0063	25.20	0.08	-0.750			
0.3637	23278.43	3.7010	3.7014	-1.0269	25.20	0.08	-0.750	0.378	0.496	
0.3668	23476.85	3.6980	3.6978	-1.0419	25.20	0.08	-0.750			
0.3700	23677.46	3.6950	3.6949	-1.0476	25.19	0.07	-0.750			
0.3731	23876.35	3.6920	3.6920	-1.0758	25.19	0.07	-0.750			
0.3762	24077.69	3.6890	3.6891	-1.1341	25.18	0.06	-0.750			
0.3798	24305.22	3.6860	3.6858	-1.1442	25.18	0.06	-0.750			
0.3831	24517.87	3.6830	3.6831	-1.2129	25.17	0.05	-0.750			
0.3869	24760.54	3.6800	3.6798	-1.2681	25.17	0.05	-0.750			
0.3909	25015.24	3.6770	3.6764	-1.3025	25.17	0.05	-0.750			
0.3950	25279.88	3.6740	3.6742	-1.3317	25.16	0.04	-0.750			
0.3990	25536.51	3.6710	3.6711	-1.3312	25.15	0.03	-0.750			
0.4031	25800.95	3.6680	3.6680	-1.3409	25.14	0.02	-0.750			
0.4071	26053.33	3.6650	3.6648	-1.3324	25.13	0.01	-0.750			
0.4107	26287.88	3.6620	3.6619	-1.3139	25.13	0.01	-0.750			
0.4147	26542.78	3.6590	3.6592	-1.3481	25.12	-0.00	-0.750			
0.4189	26812.27	3.6560	3.6560	-1.3886	25.11	-0.01	-0.750			
0.4232	27082.70	3.6530	3.6529	-1.4201	25.11	-0.01	-0.750			
0.4275	27361.27	3.6500	3.6502	-1.4505	25.10	-0.02	-0.750			
0.4320	27645.70	3.6470	3.6469	-1.4876	25.09	-0.03	-0.750			
0.4365	27934.05	3.6440	3.6439	-1.5062	25.08	-0.04	-0.750			
0.4410	28225.81	3.6410	3.6409	-1.5181	25.08	-0.04	-0.750			
0.4456	28517.56	3.6380	3.6381	-1.5734	25.07	-0.05	-0.750			
0.4504	28822.81	3.6350	3.6348	-1.5817	25.06	-0.06	-0.750			
0.4551	29125.80	3.6320	3.6318	-1.5905	25.05	-0.07	-0.750			
0.4600	29440.54	3.6290	3.6291	-1.6378	25.04	-0.08	-0.750			
0.4649	29754.45	3.6260	3.6262	-1.6558	25.03	-0.09	-0.750			
0.4699	30075.52	3.6230	3.6230	-1.7113	25.02	-0.10	-0.750			
0.4752	30409.87	3.6200	3.6201	-1.7324	25.01	-0.11	-0.750			
0.4803	30738.73	3.6170	3.6169	-1.7791	25.00	-0.12	-0.750			
0.4859	31095.17	3.6140	3.6138	-1.8054	25.00	-0.12	-0.750			
0.4913	31442.21	3.6110	3.6109	-1.8397	24.99	-0.13	-0.750			
0.4969	31803.11	3.6080	3.6080	-1.8936	24.98	-0.14	-0.750			
0.5025	32162.61	3.6050	3.6051	-1.9160	24.97	-0.15	-0.750			
0.5083	32534.11	3.6020	3.6022	-1.9695	24.96	-0.16	-0.750			
0.5144	32922.07	3.5990	3.5992	-1.9860	24.96	-0.16	-0.750			
0.5204	33307.32	3.5960	3.5960	-2.0629	24.95	-0.17	-0.750			
0.5265	33698.56	3.5930	3.5929	-2.0631	24.94	-0.18	-0.750			
0.5328	34101.40	3.5900	3.5896	-2.1280	24.94	-0.18	-0.750			
0.5393	34514.73	3.5870	3.5872	-2.1645	24.93	-0.19	-0.750			
0.5460	34941.24	3.5840	3.5840	-2.1977	24.92	-0.20	-0.750			
0.5526	35365.10	3.5810	3.5811	-2.2070	24.92	-0.20	-0.750			
0.5591	35781.50	3.5780	3.5781	-2.2268	24.91	-0.21	-0.750			
0.5658	36209.59	3.5750	3.5748	-2.2794	24.90	-0.22	-0.750			
0.5727	36655.71	3.5720	3.5719	-2.3068	24.90	-0.22	-0.750			
0.5799	37111.14	3.5690	3.5691	-2.3238	24.90	-0.22	-0.750			
0.5869	37558.68	3.5660	3.5660	-2.3259	24.90	-0.22	-0.750			
0.5938	38000.62	3.5630	3.5629	-2.3051	24.90	-0.22	-0.750			
0.6006	38438.81	3.5600	3.5599	-2.2592	24.90	-0.22	-0.750			
0.6073	38868.37	3.5570	3.5572	-2.2608	24.90	-0.22	-0.750			
0.6140	39298.27	3.5540	3.5542	-2.2684	24.90	-0.22	-0.750			
0.6209	39735.82	3.5510	3.5510	-2.2192	24.90	-0.22	-0.750			
0.6275	40158.45	3.5480	3.5482	-2.2254	24.90	-0.22	-0.750			
0.6342	40591.07	3.5450	3.5450	-2.1784	24.91	-0.21	-0.750			
0.6405	40995.06	3.5420	3.5421	-2.1264	24.91	-0.21	-0.750			
0.6469	41399.91	3.5390	3.5390	-2.1179	24.92	-0.20	-0.750			
0.6532	41802.90	3.5360	3.5359	-2.0502	24.93	-0.19	-0.750			
0.6593	42195.31	3.5330	3.5333	-2.0035	24.94	-0.18	-0.750			
0.6653	42578.71	3.5300	3.5301	-1.9423	24.94	-0.18	-0.750			
0.6711	42952.48	3.5270	3.5272	-1.8990	24.96	-0.16	-0.750			
0.6767	43306.50	3.5240	3.5240	-1.8273	24.97	-0.15	-0.750			
0.6822	43657.78	3.5210	3.5206	-1.8030	24.98	-0.14	-0.750			
0.6874	43995.37	3.5180	3.5178	-1.7265	25.00	-0.12	-0.750			
0.6924	44315.55	3.5150	3.5149	-1.6731	25.01	-0.11	-0.750			
0.6973	44629.24	3.5120	3.5119	-1.6256	25.03	-0.09	-0.750			
0.7022	44938.99	3.5090	3.5092	-1.5895	25.04	-0.08	-0.750			
0.7070	45246.01	3.5060	3.5061	-1.5410	25.06	-0.06	-0.750			
0.7116	45541.06	3.5030	3.5029	-1.4571	25.08	-0.04	-0.750			
0.7159	45819.85	3.5000	3.4999	-1.3608	25.10	-0.02	-0.750			
0.7199	46073.97	3.4970	3.4974	-1.2512	25.11	-0.01	-0.750			
0.7235	46301.31	3.4940	3.4931	-1.1396	25.12	-0.00	-0.750			
0.7268	46512.06	3.4910	3.4920	-1.1184	25.13	0.01	-0.750			
