Ah_balance (normalized)	Ah_balance (mAh)	Voltage - fit (V)	Voltage -  interpolate (V)	dQ/dV (1/V)	Temperature (°C)	Temperature - diff (°C)	Current (C)	R_DC 0ms (mOhm)	R_DC 50ms (mOhm)	R_DC 50 ms PEC (mOhm)
0.0470	3005.95	4.1980	4.1980	0.7875	25.37	0.70	0.750			
0.0494	3159.00	4.1950	4.1949	0.7921	25.37	0.70	0.750			
0.0517	3307.45	4.1920	4.1921	0.7790	25.37	0.70	0.750			
0.0540	3456.45	4.1890	4.1891	0.7741	25.37	0.70	0.750			
0.0563	3604.70	4.1860	4.1859	0.7711	25.37	0.70	0.750			
0.0586	3751.84	4.1830	4.1830	0.7667	25.37	0.70	0.750			
0.0609	3897.87	4.1800	4.1800	0.7612	25.37	0.70	0.750			
0.0632	4043.39	4.1770	4.1770	0.7634	25.37	0.70	0.750			
0.0655	4190.15	4.1740	4.1740	0.7633	25.37	0.70	0.750			
0.0678	4336.47	4.1710	4.1710	0.7660	25.37	0.70	0.750			
0.0701	4484.63	4.1680	4.1681	0.7695	25.37	0.70	0.750			
0.0724	4633.00	4.1650	4.1651	0.7710	25.37	0.70	0.750			
0.0747	4781.46	4.1620	4.1620	0.7737	25.37	0.70	0.750			
0.0770	4930.31	4.1590	4.1591	0.7748	25.37	0.70	0.750			
0.0793	5078.02	4.1560	4.1560	0.7725	25.37	0.70	0.750			
0.0817	5226.89	4.1530	4.1530	0.7750	25.37	0.70	0.750			
0.0840	5375.80	4.1500	4.1500	0.7746	25.37	0.70	0.750			
0.0863	5525.27	4.1470	4.1470	0.7729	25.37	0.70	0.750			
0.0887	5673.89	4.1440	4.1441	0.7748	25.37	0.70	0.750			
0.0910	5821.35	4.1410	4.1410	0.7778	25.37	0.70	0.750			
0.0933	5971.07	4.1380	4.1380	0.7789	25.37	0.70	0.750			
0.0956	6120.84	4.1350	4.1351	0.7839	25.37	0.70	0.750			
0.0980	6271.20	4.1320	4.1320	0.7891	25.37	0.70	0.750			
0.1004	6424.75	4.1290	4.1290	0.7810	25.37	0.70	0.750			
0.1027	6573.56	4.1260	4.1261	0.7822	25.38	0.71	0.750			
0.1050	6722.45	4.1230	4.1231	0.7837	25.38	0.71	0.750			
0.1074	6872.76	4.1200	4.1196	0.7870	25.38	0.71	0.750			
0.1097	7023.24	4.1170	4.1171	0.7913	25.38	0.71	0.750			
0.1121	7175.12	4.1140	4.1141	0.7933	25.38	0.71	0.750			
0.1145	7330.10	4.1110	4.1110	0.8004	25.38	0.71	0.750			
0.1169	7484.28	4.1080	4.1080	0.7957	25.38	0.71	0.750			
0.1193	7637.74	4.1050	4.1050	0.8010	25.38	0.71	0.750			
0.1217	7788.36	4.1020	4.1021	0.8181	25.38	0.71	0.750			
0.1242	7946.76	4.0990	4.0989	0.8342	25.38	0.71	0.750			
0.1267	8109.13	4.0960	4.0959	0.8433	25.38	0.71	0.750			
0.1293	8274.93	4.0930	4.0930	0.8508	25.38	0.71	0.750			
0.1319	8441.38	4.0900	4.0900	0.8471	25.38	0.71	0.750			
0.1345	8608.23	4.0870	4.0870	0.8452	25.38	0.71	0.750			
0.1370	8768.37	4.0840	4.0840	0.8296	25.38	0.71	0.750			
0.1394	8919.81	4.0810	4.0810	0.8170	25.38	0.71	0.750			
0.1418	9075.61	4.0780	4.0781	0.8205	25.38	0.71	0.750			
0.1443	9234.70	4.0750	4.0747	0.8200	25.38	0.71	0.750			
0.1468	9392.63	4.0720	4.0721	0.8258	25.38	0.71	0.750			
0.1493	9552.42	4.0690	4.0691	0.8237	25.38	0.71	0.750			
0.1517	9711.02	4.0660	4.0660	0.8284	25.39	0.72	0.750			
0.1542	9867.76	4.0630	4.0630	0.8245	25.39	0.72	0.750			
0.1567	10026.90	4.0600	4.0598	0.8309	25.39	0.72	0.750			
0.1592	10186.16	4.0570	4.0571	0.8375	25.39	0.72	0.750			
0.1617	10349.72	4.0540	4.0540	0.8425	25.39	0.72	0.750			
0.1642	10511.25	4.0510	4.0511	0.8475	25.40	0.73	0.750			
0.1668	10675.46	4.0480	4.0480	0.8458	25.40	0.73	0.750			
0.1693	10838.17	4.0450	4.0449	0.8467	25.40	0.73	0.750			
0.1719	11001.36	4.0420	4.0421	0.8461	25.40	0.73	0.750			
0.1744	11163.32	4.0390	4.0391	0.8430	25.40	0.73	0.750			
0.1769	11324.02	4.0360	4.0360	0.8453	25.40	0.73	0.750			
0.1795	11485.26	4.0330	4.0331	0.8470	25.40	0.73	0.750			
0.1820	11647.85	4.0300	4.0294	0.8520	25.40	0.73	0.750			
0.1846	11813.39	4.0270	4.0271	0.8604	25.40	0.73	0.750			
0.1872	11979.05	4.0240	4.0241	0.8639	25.40	0.73	0.750			
0.1898	12147.38	4.0210	4.0210	0.8713	25.40	0.73	0.750			
0.1924	12315.34	4.0180	4.0180	0.8731	25.40	0.73	0.750			
0.1950	12480.66	4.0150	4.0150	0.8711	25.40	0.73	0.750			
0.1977	12649.70	4.0120	4.0120	0.8691	25.40	0.73	0.750			
0.2002	12815.17	4.0090	4.0090	0.8753	25.40	0.73	0.750			
0.2029	12982.93	4.0060	4.0060	0.8786	25.41	0.74	0.750			
0.2055	13151.71	4.0030	4.0030	0.8823	25.41	0.74	0.750			
0.2081	13321.59	4.0000	4.0000	0.8841	25.41	0.74	0.750			
0.2108	13493.14	3.9970	3.9971	0.8814	25.41	0.74	0.750			
0.2135	13662.40	3.9940	3.9940	0.8880	25.42	0.75	0.750			
0.2161	13833.11	3.9910	3.9910	0.8937	25.42	0.75	0.750			
0.2188	14003.05	3.9880	3.9879	0.8930	25.42	0.75	0.750			
0.2215	14175.50	3.9850	3.9850	0.8945	25.42	0.75	0.750			
0.2242	14349.29	3.9820	3.9821	0.8987	25.42	0.75	0.750			
0.2269	14522.85	3.9790	3.9790	0.8994	25.43	0.76	0.750			
0.2296	14697.45	3.9760	3.9760	0.9005	25.43	0.76	0.750			
0.2323	14866.49	3.9730	3.9730	0.8983	25.43	0.76	0.750			
0.2350	15039.44	3.9700	3.9700	0.8993	25.43	0.76	0.750			
0.2377	15212.87	3.9670	3.9669	0.9029	25.43	0.76	0.750			
0.2404	15386.93	3.9640	3.9640	0.9065	25.43	0.76	0.750			
0.2431	15561.11	3.9610	3.9610	0.9103	25.43	0.76	0.750			
0.2459	15735.64	3.9580	3.9581	0.9144	25.43	0.76	0.750			
0.2486	15912.76	3.9550	3.9549	0.9088	25.43	0.76	0.750			
0.2513	16085.03	3.9520	3.9521	0.9126	25.43	0.76	0.750			
0.2541	16260.95	3.9490	3.9491	0.9190	25.43	0.76	0.750			
0.2568	16437.01	3.9460	3.9456	0.9229	25.43	0.76	0.750			
0.2596	16614.88	3.9430	3.9431	0.9268	25.43	0.76	0.750			
0.2624	16793.58	3.9400	3.9400	0.9300	25.43	0.76	0.750			
0.2652	16974.19	3.9370	3.9370	0.9367	25.43	0.76	0.750			
0.2680	17153.18	3.9340	3.9340	0.9348	25.43	0.76	0.750			
0.2708	17333.15	3.9310	3.9310	0.9408	25.43	0.76	0.750			
0.2737	17515.36	3.9280	3.9280	0.9362	25.43	0.76	0.750			
0.2765	17694.51	3.9250	3.9250	0.9380	25.44	0.77	0.750			
0.2793	17875.11	3.9220	3.9221	0.9409	25.44	0.77	0.750			
0.2821	18055.33	3.9190	3.9188	0.9412	25.44	0.77	0.750			
0.2849	18236.29	3.9160	3.9160	0.9344	25.44	0.77	0.750			
0.2877	18414.82	3.9130	3.9131	0.9394	25.44	0.77	0.750			
0.2905	18594.73	3.9100	3.9100	0.9482	25.43	0.76	0.750			
0.2934	18777.15	3.9070	3.9070	0.9526	25.43	0.76	0.750			
0.2963	18961.75	3.9040	3.9040	0.9526	25.43	0.76	0.750			
0.2992	19145.94	3.9010	3.9011	0.9563	25.43	0.76	0.750			
0.3020	19330.72	3.8980	3.8980	0.9589	25.43	0.76	0.750			
0.3049	19516.33	3.8950	3.8950	0.9614	25.43	0.76	0.750			
0.3078	19698.00	3.8920	3.8920	0.9564	25.43	0.76	0.750			
0.3106	19881.23	3.8890	3.8890	0.9530	25.43	0.76	0.750			
0.3135	20063.86	3.8860	3.8861	0.9588	25.42	0.75	0.750			
0.3164	20248.24	3.8830	3.8830	0.9658	25.42	0.75	0.750			
0.3193	20434.19	3.8800	3.8798	0.9691	25.42	0.75	0.750			
0.3222	20621.21	3.8770	3.8771	0.9709	25.41	0.74	0.750			
0.3251	20808.15	3.8740	3.8740	0.9786	25.41	0.74	0.750			
0.3281	20999.99	3.8710	3.8710	0.9728	25.40	0.73	0.750			
0.3310	21185.41	3.8680	3.8679	0.9677	25.39	0.72	0.750			
0.3339	21371.09	3.8650	3.8651	0.9653	25.39	0.72	0.750			
0.3368	21554.43	3.8620	3.8619	0.9689	25.38	0.71	0.750			
0.3397	21740.24	3.8590	3.8590	0.9751	25.38	0.71	0.750			
0.3426	21927.46	3.8560	3.8561	0.9816	25.37	0.70	0.750			
0.3456	22117.84	3.8530	3.8530	0.9863	25.37	0.70	0.750			
0.3486	22308.83	3.8500	3.8501	0.9994	25.35	0.68	0.750			
0.3516	22500.82	3.8470	3.8470	1.0018	25.34	0.67	0.750			
0.3546	22695.62	3.8440	3.8440	1.0027	25.33	0.66	0.750			
0.3576	22886.15	3.8410	3.8411	1.0138	25.32	0.65	0.750			
0.3607	23082.84	3.8380	3.8381	1.0150	25.31	0.64	0.750			
0.3637	23277.66	3.8350	3.8349	1.0231	25.30	0.63	0.750			
0.3668	23474.71	3.8320	3.8322	1.0297	25.29	0.62	0.750	0.330	0.434	
0.3699	23673.23	3.8290	3.8291	1.0270	25.28	0.61	0.750			
0.3730	23871.72	3.8260	3.8260	1.0374	25.27	0.60	0.750			
0.3761	24072.26	3.8230	3.8231	1.0466	25.26	0.59	0.750			
0.3793	24273.66	3.8200	3.8200	1.0421	25.26	0.59	0.750			
0.3824	24474.83	3.8170	3.8170	1.0412	25.25	0.58	0.750			
0.3855	24673.81	3.8140	3.8141	1.0394	25.23	0.56	0.750			
0.3886	24872.55	3.8110	3.8110	1.0429	25.22	0.55	0.750			
0.3918	25072.35	3.8080	3.8080	1.0487	25.20	0.53	0.750			
0.3949	25276.69	3.8050	3.8050	1.0395	25.19	0.52	0.750			
0.3980	25473.29	3.8020	3.8021	1.0549	25.18	0.51	0.750			
0.4012	25677.67	3.7990	3.7990	1.0714	25.16	0.49	0.750			
0.4044	25883.25	3.7960	3.7961	1.0860	25.15	0.48	0.750			
0.4077	26091.55	3.7930	3.7928	1.0933	25.14	0.47	0.750			
0.4110	26304.04	3.7900	3.7902	1.1138	25.13	0.46	0.750			
0.4144	26520.05	3.7870	3.7871	1.1342	25.12	0.45	0.750			
0.4178	26741.62	3.7840	3.7840	1.1529	25.11	0.44	0.750			
0.4213	26962.79	3.7810	3.7810	1.1481	25.09	0.42	0.750			
0.4248	27184.93	3.7780	3.7781	1.1665	25.08	0.41	0.750			
0.4282	27407.89	3.7750	3.7752	1.1904	25.06	0.39	0.750			
0.4319	27643.25	3.7720	3.7715	1.1899	25.05	0.38	0.750			
0.4354	27867.61	3.7690	3.7690	1.2272	25.04	0.37	0.750			
0.4391	28103.01	3.7660	3.7661	1.2716	25.02	0.35	0.750			
0.4430	28352.51	3.7630	3.7631	1.3099	25.01	0.34	0.750			
0.4470	28607.05	3.7600	3.7602	1.3480	24.99	0.32	0.750			
0.4511	28871.81	3.7570	3.7572	1.3868	24.98	0.31	0.750			
0.4554	29146.74	3.7540	3.7540	1.4037	24.97	0.30	0.750			
0.4597	29423.17	3.7510	3.7510	1.4394	24.95	0.28	0.750			
0.4639	29690.16	3.7480	3.7481	1.4513	24.93	0.26	0.750			
0.4683	29974.17	3.7450	3.7449	1.4783	24.91	0.24	0.750			
0.4728	30258.90	3.7420	3.7417	1.5221	24.90	0.23	0.750			
0.4774	30551.42	3.7390	3.7393	1.5483	24.88	0.21	0.750			
0.4821	30852.72	3.7360	3.7358	1.6280	24.87	0.20	0.750			
0.4872	31179.22	3.7330	3.7327	1.6430	24.85	0.18	0.750			
0.4922	31503.01	3.7300	3.7295	1.6614	24.83	0.16	0.750			
0.4971	31815.86	3.7270	3.7279	1.7191	24.81	0.14	0.750			
0.5024	32155.34	3.7240	3.7236	1.7454	24.79	0.12	0.750			
0.5076	32485.16	3.7210	3.7207	1.8217	24.78	0.11	0.750			
0.5130	32833.40	3.7180	3.7182	1.8718	24.76	0.09	0.750			
0.5191	33221.19	3.7150	3.7146	1.9507	24.74	0.07	0.750			
0.5248	33588.74	3.7120	3.7120	2.0069	24.72	0.05	0.750			
0.5310	33985.48	3.7090	3.7092	2.0688	24.70	0.03	0.750			
0.5372	34382.86	3.7060	3.7060	2.1391	24.68	0.01	0.750			
0.5437	34793.93	3.7030	3.7031	2.1669	24.66	-0.01	0.750			
0.5505	35228.92	3.7000	3.7002	2.2379	24.65	-0.02	0.750			
0.5572	35662.84	3.6970	3.6970	2.2605	24.64	-0.03	0.750			
0.5641	36101.86	3.6940	3.6943	2.3493	24.62	-0.05	0.750			
0.5712	36555.24	3.6910	3.6909	2.4008	24.60	-0.07	0.750			
0.5789	37047.08	3.6880	3.6882	2.5205	24.58	-0.09	0.750			
0.5867	37546.76	3.6850	3.6850	2.5659	24.57	-0.10	0.750			
0.5946	38054.27	3.6820	3.6817	2.6106	24.56	-0.11	0.750			
0.6021	38532.09	3.6790	3.6792	2.6326	24.55	-0.12	0.750			
0.6103	39061.69	3.6760	3.6764	2.6776	24.54	-0.13	0.750			
0.6184	39577.90	3.6730	3.6732	2.8076	24.54	-0.13	0.750			
0.6274	40151.00	3.6700	3.6698	2.9560	24.53	-0.14	0.750			
0.6358	40688.69	3.6670	3.6668	2.7239	24.53	-0.14	0.750			
0.6439	41209.15	3.6640	3.6643	2.6518	24.54	-0.13	0.750			
0.6523	41746.82	3.6610	3.6608	2.5903	24.54	-0.13	0.750			
0.6595	42206.81	3.6580	3.6575	2.3806	24.54	-0.13	0.750			
0.6658	42608.01	3.6550	3.6551	2.0361	24.55	-0.12	0.750			
0.6716	42979.89	3.6520	3.6518	1.8668	24.56	-0.11	0.750			
0.6770	43330.52	3.6490	3.6488	1.7210	24.57	-0.10	0.750			
0.6820	43646.53	3.6460	3.6461	1.5496	24.58	-0.09	0.750			
0.6865	43935.60	3.6430	3.6433	1.4066	24.59	-0.08	0.750			
0.6905	44190.82	3.6400	3.6401	1.2634	24.59	-0.08	0.750			
0.6940	44415.21	3.6370	3.6366	1.1351	24.60	-0.07	0.750			
0.6971	44612.01	3.6340	3.6341	1.0319	24.60	-0.07	0.750			
0.7000	44800.91	3.6310	3.6310	0.9627	24.61	-0.06	0.750			
0.7027	44972.03	3.6280	3.6281	0.9299	24.61	-0.06	0.750			
0.7054	45145.53	3.6250	3.6252	0.9136	24.62	-0.05	0.750			
0.7081	45316.52	3.6220	3.6221	0.8925	24.62	-0.05	0.750			
0.7108	45488.68	3.6190	3.6191	0.8766	24.64	-0.03	0.750			
0.7135	45662.14	3.6160	3.6161	0.8516	24.65	-0.02	0.750			
0.7161	45828.96	3.6130	3.6130	0.8051	24.66	-0.01	0.750			
0.7185	45981.10	3.6100	3.6101	0.7388	24.67	-0.00	0.750			
0.7206	46118.37	3.6070	3.6070	0.6704	24.67	0.00	0.750			
0.7225	46240.19	3.6040	3.6040	0.5991	24.68	0.01	0.750			
0.7242	46348.07	3.6010	3.6011	0.5301	24.69	0.02	0.750			
0.7257	46441.99	3.5980	3.5979	0.4630	24.69	0.02	0.750			
0.7269	46522.23	3.5950	3.5950	0.3981	24.70	0.03	0.750			
0.7280	46592.21	3.5920	3.5919	0.3397	24.70	0.03	0.750			
0.7289	46651.58	3.5890	3.5889	0.2832	24.71	0.04	0.750			
0.7297	46700.80	3.5860	3.5861	0.2284	24.71	0.04	0.750			
0.7303	46739.44	3.5830	3.5831	0.1730	24.71	0.04	0.750			
0.7308	46768.21	3.5800	3.5805	0.1136	24.72	0.05	0.750			
0.7310	46784.26	3.5770	3.5777	0.0549	24.72	0.05	0.750			
