Ah_balance (normalized)	Ah_balance (mAh)	Voltage - fit (V)	Voltage -  interpolate (V)	dQ/dV (1/V)	Temperature (°C)	Temperature - diff (°C)	Current (C)	R_DC 0ms (mOhm)	R_DC 50ms (mOhm)	R_DC 50 ms PEC (mOhm)
0.0479	3067.21	4.1980	4.1981	0.7401	26.25	0.57	0.750			
0.0502	3210.35	4.1950	4.1949	0.7466	26.25	0.57	0.750			
0.0524	3354.41	4.1920	4.1920	0.7490	26.25	0.57	0.750			
0.0547	3499.22	4.1890	4.1890	0.7482	26.25	0.57	0.750			
0.0569	3642.17	4.1860	4.1860	0.7481	26.25	0.57	0.750			
0.0591	3785.56	4.1830	4.1831	0.7501	26.25	0.57	0.750			
0.0614	3930.01	4.1800	4.1800	0.7536	26.25	0.57	0.750			
0.0637	4074.58	4.1770	4.1770	0.7554	26.25	0.57	0.750			
0.0659	4220.37	4.1740	4.1740	0.7572	26.25	0.57	0.750			
0.0682	4366.74	4.1710	4.1711	0.7587	26.25	0.57	0.750			
0.0705	4511.97	4.1680	4.1680	0.7614	26.25	0.57	0.750			
0.0728	4658.11	4.1650	4.1649	0.7604	26.25	0.57	0.750			
0.0751	4803.33	4.1620	4.1620	0.7644	26.25	0.57	0.750			
0.0774	4950.93	4.1590	4.1590	0.7670	26.25	0.57	0.750			
0.0797	5100.59	4.1560	4.1560	0.7657	26.25	0.57	0.750			
0.0820	5248.03	4.1530	4.1530	0.7632	26.25	0.57	0.750			
0.0843	5394.21	4.1500	4.1501	0.7634	26.25	0.57	0.750			
0.0865	5538.95	4.1470	4.1470	0.7641	26.25	0.57	0.750			
0.0888	5685.13	4.1440	4.1440	0.7635	26.25	0.57	0.750			
0.0911	5830.91	4.1410	4.1410	0.7658	26.25	0.57	0.750			
0.0934	5979.12	4.1380	4.1380	0.7690	26.25	0.57	0.750			
0.0957	6127.24	4.1350	4.1351	0.7723	26.26	0.58	0.750			
0.0981	6275.79	4.1320	4.1320	0.7748	26.26	0.58	0.750			
0.1004	6424.50	4.1290	4.1289	0.7755	26.26	0.58	0.750			
0.1027	6573.52	4.1260	4.1260	0.7733	26.26	0.58	0.750			
0.1051	6723.54	4.1230	4.1230	0.7748	26.26	0.58	0.750			
0.1074	6871.91	4.1200	4.1201	0.7760	26.26	0.58	0.750			
0.1097	7021.18	4.1170	4.1170	0.7772	26.26	0.58	0.750			
0.1120	7168.49	4.1140	4.1139	0.7768	26.26	0.58	0.750			
0.1143	7317.78	4.1110	4.1110	0.7804	26.26	0.58	0.750			
0.1167	7468.91	4.1080	4.1080	0.7835	26.26	0.58	0.750			
0.1191	7619.62	4.1050	4.1050	0.7878	26.26	0.58	0.750			
0.1214	7771.85	4.1020	4.1020	0.7889	26.27	0.59	0.750			
0.1238	7923.08	4.0990	4.0991	0.7875	26.27	0.59	0.750			
0.1262	8073.81	4.0960	4.0960	0.7898	26.27	0.59	0.750			
0.1285	8225.42	4.0930	4.0930	0.7910	26.27	0.59	0.750			
0.1309	8378.25	4.0900	4.0900	0.7841	26.27	0.59	0.750			
0.1332	8526.04	4.0870	4.0870	0.7896	26.27	0.59	0.750			
0.1356	8677.03	4.0840	4.0842	0.7919	26.27	0.59	0.750			
0.1380	8829.80	4.0810	4.0806	0.8007	26.27	0.59	0.750			
0.1404	8983.82	4.0780	4.0781	0.8062	26.27	0.59	0.750			
0.1428	9140.62	4.0750	4.0751	0.8063	26.28	0.60	0.750			
0.1453	9298.44	4.0720	4.0720	0.8155	26.28	0.60	0.750			
0.1477	9454.00	4.0690	4.0691	0.8097	26.29	0.61	0.750			
0.1501	9609.29	4.0660	4.0659	0.8103	26.29	0.61	0.750			
0.1526	9764.65	4.0630	4.0631	0.8150	26.29	0.61	0.750			
0.1550	9922.72	4.0600	4.0600	0.8096	26.29	0.61	0.750			
0.1575	10077.55	4.0570	4.0570	0.8180	26.29	0.61	0.750			
0.1599	10234.97	4.0540	4.0540	0.8248	26.29	0.61	0.750			
0.1624	10392.24	4.0510	4.0510	0.8266	26.29	0.61	0.750			
0.1649	10552.12	4.0480	4.0480	0.8276	26.29	0.61	0.750			
0.1674	10714.00	4.0450	4.0451	0.8226	26.29	0.61	0.750			
0.1699	10870.59	4.0420	4.0420	0.8279	26.30	0.62	0.750			
0.1724	11030.91	4.0390	4.0390	0.8332	26.30	0.62	0.750			
0.1748	11187.36	4.0360	4.0359	0.8271	26.30	0.62	0.750			
0.1773	11346.85	4.0330	4.0331	0.8314	26.30	0.62	0.750			
0.1798	11507.71	4.0300	4.0301	0.8370	26.30	0.62	0.750			
0.1823	11669.67	4.0270	4.0270	0.8439	26.31	0.63	0.750			
0.1849	11831.73	4.0240	4.0240	0.8408	26.31	0.63	0.750			
0.1874	11993.87	4.0210	4.0210	0.8443	26.31	0.63	0.750			
0.1899	12156.75	4.0180	4.0181	0.8528	26.31	0.63	0.750			
0.1925	12322.27	4.0150	4.0150	0.8528	26.31	0.63	0.750			
0.1951	12485.25	4.0120	4.0120	0.8562	26.31	0.63	0.750			
0.1976	12648.79	4.0090	4.0090	0.8586	26.31	0.63	0.750			
0.2002	12815.20	4.0060	4.0059	0.8599	26.31	0.63	0.750			
0.2028	12981.08	4.0030	4.0030	0.8629	26.31	0.63	0.750			
0.2054	13146.89	4.0000	4.0001	0.8616	26.31	0.63	0.750			
0.2080	13311.46	3.9970	3.9970	0.8634	26.31	0.63	0.750			
0.2106	13477.72	3.9940	3.9940	0.8631	26.31	0.63	0.750			
0.2132	13643.43	3.9910	3.9907	0.8644	26.31	0.63	0.750			
0.2158	13809.72	3.9880	3.9880	0.8665	26.31	0.63	0.750			
0.2184	13976.73	3.9850	3.9850	0.8715	26.31	0.63	0.750			
0.2210	14144.14	3.9820	3.9820	0.8734	26.31	0.63	0.750			
0.2236	14312.52	3.9790	3.9790	0.8761	26.31	0.63	0.750			
0.2262	14479.90	3.9760	3.9760	0.8740	26.31	0.63	0.750			
0.2289	14649.42	3.9730	3.9730	0.8734	26.31	0.63	0.750			
0.2315	14816.57	3.9700	3.9701	0.8768	26.31	0.63	0.750			
0.2341	14984.07	3.9670	3.9670	0.8809	26.31	0.63	0.750			
0.2368	15152.85	3.9640	3.9640	0.8830	26.31	0.63	0.750			
0.2394	15323.94	3.9610	3.9610	0.8853	26.31	0.63	0.750			
0.2421	15494.70	3.9580	3.9580	0.8807	26.31	0.63	0.750			
0.2448	15665.42	3.9550	3.9550	0.8843	26.31	0.63	0.750			
0.2474	15834.09	3.9520	3.9520	0.8842	26.31	0.63	0.750			
0.2500	16001.79	3.9490	3.9489	0.8812	26.31	0.63	0.750			
0.2527	16171.08	3.9460	3.9461	0.8845	26.31	0.63	0.750			
0.2553	16341.50	3.9430	3.9430	0.8839	26.30	0.62	0.750			
0.2580	16512.23	3.9400	3.9400	0.8828	26.30	0.62	0.750			
0.2607	16683.25	3.9370	3.9370	0.8828	26.29	0.61	0.750			
0.2634	16854.59	3.9340	3.9339	0.8600	26.29	0.61	0.750			
0.2659	17017.22	3.9310	3.9310	0.8429	26.29	0.61	0.750			
0.2683	17174.27	3.9280	3.9282	0.8337	26.28	0.60	0.750			
0.2708	17329.16	3.9250	3.9247	0.8304	26.28	0.60	0.750			
0.2732	17484.77	3.9220	3.9220	0.8348	26.27	0.59	0.750			
0.2757	17645.26	3.9190	3.9187	0.8516	26.27	0.59	0.750			
0.2783	17813.14	3.9160	3.9161	0.8607	26.27	0.59	0.750			
0.2810	17984.08	3.9130	3.9131	0.8767	26.26	0.58	0.750			
0.2836	18152.74	3.9100	3.9100	0.8823	26.26	0.58	0.750			
0.2863	18321.71	3.9070	3.9071	0.8806	26.25	0.57	0.750			
0.2889	18489.97	3.9040	3.9041	0.8820	26.25	0.57	0.750			
0.2916	18660.52	3.9010	3.9010	0.8838	26.24	0.56	0.750			
0.2942	18830.84	3.8980	3.8981	0.8867	26.24	0.56	0.750			
0.2969	19002.85	3.8950	3.8951	0.8910	26.24	0.56	0.750			
0.2996	19173.41	3.8920	3.8919	0.8879	26.23	0.55	0.750			
0.3023	19344.21	3.8890	3.8890	0.8859	26.23	0.55	0.750			
0.3049	19515.36	3.8860	3.8860	0.8778	26.22	0.54	0.750			
0.3075	19682.09	3.8830	3.8831	0.8763	26.21	0.53	0.750			
0.3102	19849.63	3.8800	3.8801	0.8793	26.21	0.53	0.750			
0.3128	20017.15	3.8770	3.8768	0.8806	26.20	0.52	0.750			
0.3154	20184.93	3.8740	3.8740	0.8845	26.19	0.51	0.750			
0.3181	20356.21	3.8710	3.8710	0.8843	26.19	0.51	0.750			
0.3207	20527.96	3.8680	3.8681	0.8961	26.18	0.50	0.750			
0.3234	20699.60	3.8650	3.8650	0.8963	26.18	0.50	0.750			
0.3261	20872.19	3.8620	3.8621	0.9021	26.17	0.49	0.750			
0.3288	21045.85	3.8590	3.8591	0.9009	26.16	0.48	0.750			
0.3316	21219.27	3.8560	3.8560	0.9073	26.15	0.47	0.750			
0.3343	21395.73	3.8530	3.8530	0.9104	26.14	0.46	0.750			
0.3370	21570.25	3.8500	3.8500	0.9055	26.13	0.45	0.750			
0.3397	21741.76	3.8470	3.8470	0.9186	26.13	0.45	0.750			
0.3425	21919.78	3.8440	3.8440	0.9210	26.12	0.44	0.750			
0.3453	22096.36	3.8410	3.8409	0.9329	26.11	0.43	0.750	0.341	0.461	
0.3481	22276.93	3.8380	3.8382	0.9470	26.10	0.42	0.750			
0.3509	22459.02	3.8350	3.8347	0.9494	26.09	0.41	0.750			
0.3539	22646.62	3.8320	3.8319	0.9445	26.09	0.41	0.750			
0.3567	22825.98	3.8290	3.8292	0.9556	26.08	0.40	0.750			
0.3595	23008.03	3.8260	3.8261	0.9630	26.08	0.40	0.750			
0.3624	23193.27	3.8230	3.8229	0.9664	26.07	0.39	0.750			
0.3653	23380.34	3.8200	3.8200	0.9734	26.06	0.38	0.750			
0.3682	23567.45	3.8170	3.8171	0.9839	26.05	0.37	0.750			
0.3712	23759.44	3.8140	3.8141	0.9951	26.04	0.36	0.750			
0.3742	23951.34	3.8110	3.8110	0.9976	26.03	0.35	0.750			
0.3773	24144.51	3.8080	3.8080	1.0069	26.02	0.34	0.750			
0.3803	24337.40	3.8050	3.8050	1.0183	26.01	0.33	0.750			
0.3833	24534.17	3.8020	3.8020	1.0362	26.00	0.32	0.750			
0.3865	24735.82	3.7990	3.7991	1.0492	25.99	0.31	0.750			
0.3897	24937.65	3.7960	3.7960	1.0620	25.98	0.30	0.750			
0.3928	25142.10	3.7930	3.7930	1.0609	25.97	0.29	0.750			
0.3960	25342.85	3.7900	3.7901	1.0842	25.96	0.28	0.750			
0.3992	25551.49	3.7870	3.7872	1.1112	25.95	0.27	0.750			
0.4026	25766.95	3.7840	3.7841	1.1254	25.94	0.26	0.750			
0.4060	25985.42	3.7810	3.7812	1.1501	25.93	0.25	0.750			
0.4096	26212.12	3.7780	3.7781	1.1753	25.92	0.24	0.750			
0.4132	26443.10	3.7750	3.7749	1.1820	25.91	0.23	0.750			
0.4167	26668.41	3.7720	3.7720	1.1979	25.90	0.22	0.750			
0.4203	26897.44	3.7690	3.7691	1.2234	25.89	0.21	0.750			
0.4241	27139.98	3.7660	3.7659	1.2285	25.88	0.20	0.750			
0.4277	27375.97	3.7630	3.7631	1.2604	25.86	0.18	0.750			
0.4315	27617.02	3.7600	3.7601	1.2883	25.85	0.17	0.750			
0.4354	27866.27	3.7570	3.7572	1.3242	25.83	0.15	0.750			
0.4394	28123.20	3.7540	3.7541	1.3512	25.82	0.14	0.750			
0.4435	28386.45	3.7510	3.7511	1.3906	25.81	0.13	0.750			
0.4478	28661.99	3.7480	3.7480	1.4169	25.80	0.12	0.750			
0.4522	28939.00	3.7450	3.7450	1.4626	25.79	0.11	0.750			
0.4566	29221.98	3.7420	3.7420	1.4712	25.77	0.09	0.750			
0.4610	29505.01	3.7390	3.7391	1.4983	25.76	0.08	0.750			
0.4655	29791.63	3.7360	3.7362	1.5228	25.74	0.06	0.750			
0.4701	30083.49	3.7330	3.7327	1.5554	25.73	0.05	0.750			
0.4747	30381.77	3.7300	3.7301	1.6050	25.71	0.03	0.750			
0.4796	30693.25	3.7270	3.7267	1.6657	25.70	0.02	0.750			
0.4847	31021.60	3.7240	3.7238	1.7140	25.69	0.01	0.750			
0.4900	31361.34	3.7210	3.7207	1.7549	25.68	-0.00	0.750			
0.4954	31704.43	3.7180	3.7177	1.8291	25.66	-0.02	0.750			
0.5009	32060.37	3.7150	3.7154	1.8782	25.65	-0.03	0.750			
0.5068	32433.56	3.7120	3.7120	1.9255	25.63	-0.05	0.750			
0.5126	32803.50	3.7090	3.7088	1.9527	25.61	-0.07	0.750			
0.5186	33193.07	3.7060	3.7061	2.0695	25.60	-0.08	0.750			
0.5249	33593.39	3.7030	3.7032	2.1446	25.59	-0.09	0.750			
0.5315	34014.12	3.7000	3.6998	2.2238	25.58	-0.10	0.750			
0.5381	34440.76	3.6970	3.6970	2.1830	25.57	-0.11	0.750			
0.5449	34876.22	3.6940	3.6938	2.2580	25.55	-0.13	0.750			
0.5518	35312.20	3.6910	3.6911	2.3014	25.53	-0.15	0.750			
0.5586	35749.79	3.6880	3.6881	2.4131	25.53	-0.15	0.750			
0.5659	36215.46	3.6850	3.6853	2.4356	25.53	-0.15	0.750			
0.5736	36711.95	3.6820	3.6822	2.4656	25.51	-0.17	0.750			
0.5811	37188.57	3.6790	3.6787	2.3465	25.51	-0.17	0.750			
0.5881	37635.63	3.6760	3.6756	2.3179	25.51	-0.17	0.750			
0.5948	38066.30	3.6730	3.6732	2.2530	25.51	-0.17	0.750			
0.6014	38488.06	3.6700	3.6702	2.1452	25.51	-0.17	0.750			
0.6077	38890.46	3.6670	3.6667	2.0397	25.52	-0.16	0.750			
0.6137	39276.44	3.6640	3.6645	1.9258	25.52	-0.16	0.750			
0.6195	39648.81	3.6610	3.6610	1.8309	25.53	-0.15	0.750			
0.6247	39979.99	3.6580	3.6580	1.6765	25.53	-0.15	0.750			
0.6296	40294.17	3.6550	3.6552	1.5631	25.54	-0.14	0.750			
0.6341	40585.10	3.6520	3.6521	1.4501	25.54	-0.14	0.750			
0.6384	40856.83	3.6490	3.6489	1.3344	25.55	-0.13	0.750			
0.6423	41104.05	3.6460	3.6459	1.2685	25.56	-0.12	0.750			
0.6457	41325.81	3.6430	3.6431	1.1777	25.56	-0.12	0.750			
0.6491	41543.98	3.6400	3.6401	1.1277	25.57	-0.11	0.750			
0.6524	41753.55	3.6370	3.6370	1.0795	25.58	-0.10	0.750			
0.6556	41955.62	3.6340	3.6341	1.0174	25.59	-0.09	0.750			
0.6585	42141.63	3.6310	3.6311	0.9866	25.59	-0.09	0.750			
0.6614	42329.25	3.6280	3.6283	0.9606	25.60	-0.08	0.750			
0.6642	42508.28	3.6250	3.6251	0.9219	25.61	-0.07	0.750			
0.6669	42682.25	3.6220	3.6222	0.8912	25.62	-0.06	0.750			
0.6696	42853.21	3.6190	3.6192	0.8575	25.62	-0.06	0.750			
0.6722	43019.53	3.6160	3.6160	0.8268	25.62	-0.06	0.750			
0.6746	43173.91	3.6130	3.6130	0.7711	25.63	-0.05	0.750			
0.6769	43322.83	3.6100	3.6098	0.7095	25.63	-0.05	0.750			
0.6789	43452.57	3.6070	3.6070	0.6693	25.64	-0.04	0.750			
0.6809	43574.51	3.6040	3.6042	0.6244	25.65	-0.03	0.750			
0.6827	43690.14	3.6010	3.6012	0.5767	25.66	-0.02	0.750			
0.6843	43794.94	3.5980	3.5983	0.5321	25.66	-0.02	0.750			
0.6858	43891.63	3.5950	3.5953	0.4872	25.67	-0.01	0.750			
0.6872	43983.56	3.5920	3.5923	0.4457	25.68	-0.00	0.750			
0.6885	44066.38	3.5890	3.5888	0.4007	25.68	0.00	0.750			
0.6897	44139.37	3.5860	3.5861	0.3441	25.69	0.01	0.750			
0.6906	44200.57	3.5830	3.5830	0.2961	25.69	0.01	0.750			
0.6915	44254.19	3.5800	3.5800	0.2501	25.69	0.01	0.750			
0.6921	44296.99	3.5770	3.5770	0.1986	25.70	0.02	0.750			
0.6927	44330.69	3.5740	3.5744	0.1495	25.70	0.02	0.750			
0.6930	44354.73	3.5710	3.5713	0.0949	25.70	0.02	0.750			
