Ah_balance (normalized)	Ah_balance (mAh)	Voltage - fit (V)	Voltage -  interpolate (V)	dQ/dV (1/V)	Temperature (°C)	Temperature - diff (°C)	Current (C)	R_DC 0ms (mOhm)	R_DC 50ms (mOhm)	R_DC 50 ms PEC (mOhm)
0.0492	3149.17	4.1960	4.1960	0.7677	25.90	0.46	0.750			
0.0514	3289.73	4.1930	4.1929	0.7430	25.90	0.46	0.750			
0.0536	3430.81	4.1900	4.1900	0.7450	25.90	0.46	0.750			
0.0558	3574.21	4.1870	4.1871	0.7500	25.91	0.47	0.750			
0.0581	3717.39	4.1840	4.1841	0.7507	25.91	0.47	0.750			
0.0604	3863.28	4.1810	4.1811	0.7581	25.92	0.48	0.750			
0.0627	4010.15	4.1780	4.1780	0.7567	25.92	0.48	0.750			
0.0649	4156.03	4.1750	4.1750	0.7583	25.92	0.48	0.750			
0.0672	4300.32	4.1720	4.1721	0.7552	25.93	0.49	0.750			
0.0695	4444.92	4.1690	4.1688	0.7619	25.93	0.49	0.750			
0.0717	4591.60	4.1660	4.1661	0.7637	25.93	0.49	0.750			
0.0740	4738.92	4.1630	4.1630	0.7677	25.93	0.49	0.750			
0.0764	4887.03	4.1600	4.1600	0.7609	25.93	0.49	0.750			
0.0786	5031.25	4.1570	4.1572	0.7628	25.93	0.49	0.750			
0.0809	5177.38	4.1540	4.1541	0.7668	25.93	0.49	0.750			
0.0832	5324.41	4.1510	4.1512	0.7658	25.93	0.49	0.750			
0.0855	5471.43	4.1480	4.1481	0.7678	25.93	0.49	0.750			
0.0878	5620.83	4.1450	4.1451	0.7689	25.93	0.49	0.750			
0.0901	5768.41	4.1420	4.1420	0.7710	25.93	0.49	0.750			
0.0924	5914.61	4.1390	4.1391	0.7667	25.93	0.49	0.750			
0.0947	6061.83	4.1360	4.1355	0.7716	25.93	0.49	0.750			
0.0971	6212.17	4.1330	4.1331	0.7686	25.93	0.49	0.750			
0.0994	6362.61	4.1300	4.1300	0.7600	25.93	0.49	0.750			
0.1017	6508.64	4.1270	4.1271	0.7613	25.93	0.49	0.750			
0.1039	6651.95	4.1240	4.1241	0.7663	25.93	0.49	0.750			
0.1062	6794.52	4.1210	4.1209	0.7654	25.93	0.49	0.750			
0.1085	6942.72	4.1180	4.1180	0.7706	25.93	0.49	0.750			
0.1108	7090.31	4.1150	4.1151	0.7807	25.94	0.50	0.750			
0.1132	7243.61	4.1120	4.1121	0.7827	25.94	0.50	0.750			
0.1155	7395.12	4.1090	4.1090	0.7939	25.94	0.50	0.750			
0.1179	7545.51	4.1060	4.1061	0.7911	25.95	0.51	0.750			
0.1203	7697.92	4.1030	4.1030	0.7936	25.95	0.51	0.750			
0.1227	7851.02	4.1000	4.1001	0.7985	25.95	0.51	0.750			
0.1251	8005.99	4.0970	4.0971	0.7951	25.95	0.51	0.750			
0.1275	8157.22	4.0940	4.0940	0.8029	25.95	0.51	0.750			
0.1298	8310.02	4.0910	4.0911	0.8008	25.95	0.51	0.750			
0.1323	8464.98	4.0880	4.0875	0.8028	25.95	0.51	0.750			
0.1347	8620.94	4.0850	4.0851	0.8086	25.95	0.51	0.750			
0.1371	8776.47	4.0820	4.0821	0.8101	25.95	0.51	0.750			
0.1396	8933.45	4.0790	4.0790	0.8137	25.95	0.51	0.750			
0.1420	9087.35	4.0760	4.0760	0.8078	25.95	0.51	0.750			
0.1444	9243.05	4.0730	4.0729	0.8125	25.95	0.51	0.750			
0.1469	9401.18	4.0700	4.0700	0.8154	25.95	0.51	0.750			
0.1494	9562.13	4.0670	4.0670	0.7973	25.95	0.51	0.750			
0.1518	9713.16	4.0640	4.0641	0.8041	25.96	0.52	0.750			
0.1541	9863.82	4.0610	4.0611	0.8113	25.96	0.52	0.750			
0.1565	10016.76	4.0580	4.0579	0.8151	25.96	0.52	0.750			
0.1590	10174.15	4.0550	4.0551	0.8246	25.96	0.52	0.750			
0.1615	10337.28	4.0520	4.0520	0.8213	25.96	0.52	0.750			
0.1639	10492.59	4.0490	4.0493	0.8414	25.97	0.53	0.750			
0.1666	10660.41	4.0460	4.0461	0.8505	25.97	0.53	0.750			
0.1691	10820.66	4.0430	4.0427	0.8326	25.97	0.53	0.750			
0.1716	10980.88	4.0400	4.0400	0.8339	25.97	0.53	0.750			
0.1741	11140.68	4.0370	4.0376	0.8353	25.97	0.53	0.750			
0.1766	11301.54	4.0340	4.0339	0.8356	25.98	0.54	0.750			
0.1791	11461.48	4.0310	4.0309	0.8292	25.98	0.54	0.750			
0.1815	11619.14	4.0280	4.0280	0.8339	25.98	0.54	0.750			
0.1841	11782.23	4.0250	4.0250	0.8463	25.98	0.54	0.750			
0.1867	11945.75	4.0220	4.0220	0.8516	25.98	0.54	0.750			
0.1891	12104.70	4.0190	4.0191	0.8408	25.99	0.55	0.750			
0.1916	12265.27	4.0160	4.0162	0.8472	25.99	0.55	0.750			
0.1942	12427.67	4.0130	4.0126	0.8534	25.99	0.55	0.750			
0.1967	12591.61	4.0100	4.0101	0.8632	25.99	0.55	0.750			
0.1994	12758.68	4.0070	4.0072	0.8636	25.99	0.55	0.750			
0.2020	12926.12	4.0040	4.0041	0.8745	25.99	0.55	0.750			
0.2047	13100.34	4.0010	4.0009	0.8886	25.99	0.55	0.750			
0.2072	13263.87	3.9980	3.9977	0.8715	25.99	0.55	0.750			
0.2099	13432.87	3.9950	3.9950	0.8677	25.99	0.55	0.750			
0.2125	13598.55	3.9920	3.9920	0.8702	26.00	0.56	0.750			
0.2151	13764.98	3.9890	3.9891	0.8736	26.00	0.56	0.750			
0.2177	13934.02	3.9860	3.9860	0.8771	26.01	0.57	0.750			
0.2203	14100.17	3.9830	3.9830	0.8722	26.01	0.57	0.750			
0.2230	14271.08	3.9800	3.9800	0.8682	26.01	0.57	0.750			
0.2256	14437.25	3.9770	3.9771	0.8801	26.01	0.57	0.750			
0.2282	14605.53	3.9740	3.9740	0.8888	26.02	0.58	0.750			
0.2309	14775.03	3.9710	3.9710	0.8884	26.02	0.58	0.750			
0.2335	14947.17	3.9680	3.9682	0.8925	26.02	0.58	0.750			
0.2363	15120.65	3.9650	3.9651	0.8951	26.02	0.58	0.750			
0.2390	15293.18	3.9620	3.9621	0.8963	26.03	0.59	0.750			
0.2416	15465.25	3.9590	3.9590	0.8993	26.03	0.59	0.750			
0.2443	15633.99	3.9560	3.9555	0.8936	26.03	0.59	0.750			
0.2470	15808.22	3.9530	3.9531	0.8922	26.03	0.59	0.750			
0.2497	15980.50	3.9500	3.9500	0.8983	26.03	0.59	0.750			
0.2524	16152.55	3.9470	3.9471	0.9013	26.03	0.59	0.750			
0.2551	16326.38	3.9440	3.9440	0.9057	26.03	0.59	0.750			
0.2578	16498.75	3.9410	3.9410	0.9040	26.03	0.59	0.750			
0.2605	16674.50	3.9380	3.9380	0.8973	26.03	0.59	0.750			
0.2632	16846.37	3.9350	3.9351	0.9020	26.03	0.59	0.750			
0.2659	17020.56	3.9320	3.9321	0.9011	26.03	0.59	0.750			
0.2686	17191.42	3.9290	3.9290	0.9016	26.03	0.59	0.750			
0.2713	17365.10	3.9260	3.9260	0.9027	26.03	0.59	0.750			
0.2740	17538.79	3.9230	3.9230	0.8919	26.03	0.59	0.750			
0.2767	17707.45	3.9200	3.9202	0.9005	26.02	0.58	0.750			
0.2794	17883.10	3.9170	3.9171	0.9102	26.02	0.58	0.750			
0.2821	18055.44	3.9140	3.9133	0.9046	26.02	0.58	0.750			
0.2849	18230.54	3.9110	3.9111	0.9059	26.02	0.58	0.750			
0.2876	18403.89	3.9080	3.9082	0.9082	26.02	0.58	0.750			
0.2904	18583.47	3.9050	3.9050	0.9170	26.01	0.57	0.750			
0.2931	18756.58	3.9020	3.9020	0.9026	26.01	0.57	0.750			
0.2958	18928.55	3.8990	3.8990	0.9062	26.01	0.57	0.750			
0.2985	19103.94	3.8960	3.8960	0.9059	26.00	0.56	0.750			
0.3012	19277.83	3.8930	3.8930	0.9095	26.00	0.56	0.750			
0.3040	19453.64	3.8900	3.8900	0.9104	26.00	0.56	0.750			
0.3067	19627.86	3.8870	3.8866	0.9088	25.99	0.55	0.750			
0.3094	19803.74	3.8840	3.8841	0.9057	25.99	0.55	0.750			
0.3121	19976.40	3.8810	3.8810	0.9087	25.98	0.54	0.750			
0.3149	20150.54	3.8780	3.8780	0.9098	25.98	0.54	0.750			
0.3176	20327.41	3.8750	3.8750	0.9136	25.97	0.53	0.750			
0.3203	20500.12	3.8720	3.8721	0.9083	25.97	0.53	0.750			
0.3231	20676.06	3.8690	3.8690	0.9069	25.96	0.52	0.750			
0.3258	20849.23	3.8660	3.8661	0.9125	25.96	0.52	0.750			
0.3285	21024.96	3.8630	3.8630	0.9149	25.96	0.52	0.750			
0.3312	21198.78	3.8600	3.8598	0.9134	25.95	0.51	0.750			
0.3340	21375.59	3.8570	3.8571	0.9217	25.94	0.50	0.750			
0.3368	21553.98	3.8540	3.8540	0.9145	25.94	0.50	0.750			
0.3395	21727.95	3.8510	3.8510	0.9231	25.93	0.49	0.750			
0.3423	21905.08	3.8480	3.8481	0.9274	25.92	0.48	0.750			
0.3450	22080.45	3.8450	3.8445	0.9297	25.91	0.47	0.750			
0.3478	22261.36	3.8420	3.8422	0.9297	25.90	0.46	0.750			
0.3506	22439.09	3.8390	3.8391	0.9536	25.89	0.45	0.750			
0.3535	22624.15	3.8360	3.8356	0.9693	25.88	0.44	0.750	0.320	0.433	
0.3564	22810.75	3.8330	3.8330	0.9703	25.87	0.43	0.750			
0.3594	23000.59	3.8300	3.8302	0.9777	25.87	0.43	0.750			
0.3624	23193.36	3.8270	3.8271	0.9868	25.86	0.42	0.750			
0.3654	23383.10	3.8240	3.8239	0.9921	25.86	0.42	0.750			
0.3683	23568.89	3.8210	3.8211	0.9861	25.85	0.41	0.750			
0.3713	23763.32	3.8180	3.8179	0.9773	25.84	0.40	0.750			
0.3742	23950.23	3.8150	3.8150	0.9901	25.83	0.39	0.750			
0.3772	24137.90	3.8120	3.8122	1.0065	25.82	0.38	0.750			
0.3802	24332.31	3.8090	3.8091	1.0197	25.81	0.37	0.750			
0.3833	24532.59	3.8060	3.8060	1.0123	25.80	0.36	0.750			
0.3863	24724.61	3.8030	3.8032	1.0299	25.79	0.35	0.750			
0.3894	24923.45	3.8000	3.8003	1.0488	25.78	0.34	0.750			
0.3926	25127.91	3.7970	3.7971	1.0685	25.77	0.33	0.750			
0.3958	25331.32	3.7940	3.7939	1.0664	25.76	0.32	0.750			
0.3990	25536.77	3.7910	3.7912	1.0917	25.75	0.31	0.750			
0.4024	25750.61	3.7880	3.7880	1.1181	25.74	0.30	0.750			
0.4058	25969.24	3.7850	3.7850	1.1386	25.72	0.28	0.750			
0.4092	26188.83	3.7820	3.7821	1.1289	25.71	0.27	0.750			
0.4126	26404.67	3.7790	3.7791	1.1526	25.70	0.26	0.750			
0.4160	26626.10	3.7760	3.7762	1.1818	25.69	0.25	0.750			
0.4197	26858.21	3.7730	3.7720	1.1880	25.68	0.24	0.750			
0.4232	27083.58	3.7700	3.7702	1.2159	25.67	0.23	0.750			
0.4269	27320.32	3.7670	3.7672	1.2487	25.65	0.21	0.750			
0.4308	27568.65	3.7640	3.7640	1.2794	25.64	0.20	0.750			
0.4347	27818.84	3.7610	3.7611	1.3183	25.63	0.19	0.750			
0.4385	28061.56	3.7580	3.7581	1.3302	25.62	0.18	0.750			
0.4427	28330.38	3.7550	3.7549	1.3370	25.61	0.17	0.750			
0.4468	28593.12	3.7520	3.7520	1.3625	25.60	0.16	0.750			
0.4506	28841.32	3.7490	3.7493	1.3969	25.58	0.14	0.750			
0.4549	29115.71	3.7460	3.7462	1.4194	25.56	0.12	0.750			
0.4592	29387.64	3.7430	3.7426	1.4794	25.54	0.10	0.750			
0.4637	29675.98	3.7400	3.7403	1.4957	25.53	0.09	0.750			
0.4684	29974.94	3.7370	3.7370	1.5329	25.52	0.08	0.750			
0.4731	30278.41	3.7340	3.7343	1.5771	25.51	0.07	0.750			
0.4778	30581.60	3.7310	3.7307	1.5802	25.49	0.05	0.750			
0.4826	30887.79	3.7280	3.7282	1.6325	25.48	0.04	0.750			
0.4876	31205.09	3.7250	3.7254	1.7090	25.47	0.03	0.750			
0.4928	31536.18	3.7220	3.7224	1.7708	25.45	0.01	0.750			
0.4981	31875.79	3.7190	3.7191	1.8030	25.44	0.00	0.750			
0.5036	32229.77	3.7160	3.7162	1.8493	25.44	-0.00	0.750			
0.5094	32603.79	3.7130	3.7129	1.9273	25.42	-0.02	0.750			
0.5154	32983.27	3.7100	3.7099	1.9445	25.41	-0.03	0.750			
0.5214	33369.42	3.7070	3.7066	1.9984	25.40	-0.04	0.750			
0.5276	33763.88	3.7040	3.7038	2.0733	25.38	-0.06	0.750			
0.5338	34165.30	3.7010	3.7006	2.1221	25.37	-0.07	0.750			
0.5404	34584.24	3.6980	3.6981	2.1827	25.36	-0.08	0.750			
0.5470	35011.04	3.6950	3.6953	2.2771	25.34	-0.10	0.750			
0.5541	35459.84	3.6920	3.6920	2.3138	25.33	-0.11	0.750			
0.5612	35915.93	3.6890	3.6886	2.3697	25.32	-0.12	0.750			
0.5686	36392.66	3.6860	3.6859	2.4694	25.31	-0.13	0.750			
0.5759	36859.45	3.6830	3.6832	2.5291	25.30	-0.14	0.750			
0.5836	37349.11	3.6800	3.6802	2.5990	25.30	-0.14	0.750			
0.5916	37862.02	3.6770	3.6771	2.5863	25.30	-0.14	0.750			
0.5995	38371.08	3.6740	3.6742	2.4879	25.30	-0.14	0.750			
0.6070	38847.58	3.6710	3.6707	2.5126	25.30	-0.14	0.750			
0.6144	39323.45	3.6680	3.6683	2.3928	25.29	-0.15	0.750			
0.6216	39779.65	3.6650	3.6652	2.3057	25.29	-0.15	0.750			
0.6281	40199.44	3.6620	3.6620	2.1078	25.30	-0.14	0.750			
0.6339	40571.71	3.6590	3.6588	1.9323	25.30	-0.14	0.750			
0.6393	40918.29	3.6560	3.6557	1.7680	25.31	-0.13	0.750			
0.6445	41245.00	3.6530	3.6526	1.6266	25.32	-0.12	0.750			
0.6492	41551.18	3.6500	3.6502	1.5241	25.33	-0.11	0.750			
0.6535	41827.05	3.6470	3.6473	1.4083	25.34	-0.10	0.750			
0.6577	42090.00	3.6440	3.6437	1.3071	25.35	-0.09	0.750			
0.6615	42333.32	3.6410	3.6410	1.2315	25.36	-0.08	0.750			
0.6649	42552.36	3.6380	3.6380	1.1416	25.36	-0.08	0.750			
0.6683	42769.29	3.6350	3.6350	1.0773	25.37	-0.07	0.750			
0.6713	42966.20	3.6320	3.6320	1.0198	25.37	-0.07	0.750			
0.6742	43150.49	3.6290	3.6292	0.9625	25.38	-0.06	0.750			
0.6769	43322.35	3.6260	3.6264	0.9405	25.39	-0.05	0.750			
0.6797	43498.88	3.6230	3.6233	0.9181	25.39	-0.05	0.750			
0.6824	43674.25	3.6200	3.6200	0.8906	25.40	-0.04	0.750			
0.6851	43846.37	3.6170	3.6174	0.8719	25.41	-0.03	0.750			
0.6878	44018.04	3.6140	3.6143	0.8288	25.42	-0.02	0.750			
0.6904	44185.96	3.6110	3.6110	0.7923	25.43	-0.01	0.750			
0.6925	44319.24	3.6080	3.6080	0.7010	25.43	-0.01	0.750			
0.6945	44449.56	3.6050	3.6044	0.6517	25.44	-0.00	0.750			
0.6964	44568.86	3.6020	3.6022	0.5998	25.45	0.01	0.750			
0.6981	44678.77	3.5990	3.5991	0.5445	25.45	0.01	0.750			
0.6997	44780.58	3.5960	3.5960	0.4960	25.46	0.02	0.750			
0.7011	44868.97	3.5930	3.5930	0.4377	25.46	0.02	0.750			
0.7023	44948.71	3.5900	3.5899	0.3911	25.46	0.02	0.750			
0.7034	45019.45	3.5870	3.5869	0.3411	25.47	0.03	0.750			
0.7044	45079.98	3.5840	3.5840	0.2913	25.47	0.03	0.750			
0.7052	45131.69	3.5810	3.5810	0.2430	25.47	0.03	0.750			
0.7059	45174.76	3.5780	3.5781	0.1925	25.48	0.04	0.750			
0.7064	45207.11	3.5750	3.5754	0.1377	25.48	0.04	0.750			
0.7067	45228.25	3.5720	3.5727	0.0823	25.48	0.04	0.750			
