Ah_balance (normalized)	Ah_balance (mAh)	Voltage - fit (V)	Voltage -  interpolate (V)	dQ/dV (1/V)	Temperature (°C)	Temperature - diff (°C)	Current (C)	R_DC 0ms (mOhm)	R_DC 50ms (mOhm)	R_DC 50 ms PEC (mOhm)
0.0485	3104.87	4.1980	4.1979	0.7321	25.82	0.58	0.750			
0.0507	3246.29	4.1950	4.1950	0.7372	25.82	0.58	0.750			
0.0529	3387.11	4.1920	4.1921	0.7450	25.82	0.58	0.750			
0.0552	3532.46	4.1890	4.1890	0.7494	25.82	0.58	0.750			
0.0575	3676.94	4.1860	4.1860	0.7566	25.82	0.58	0.750			
0.0597	3823.64	4.1830	4.1831	0.7568	25.82	0.58	0.750			
0.0620	3968.79	4.1800	4.1800	0.7555	25.82	0.58	0.750			
0.0643	4114.09	4.1770	4.1770	0.7599	25.82	0.58	0.750			
0.0665	4258.44	4.1740	4.1740	0.7552	25.82	0.58	0.750			
0.0688	4404.14	4.1710	4.1710	0.7564	25.82	0.58	0.750			
0.0711	4550.68	4.1680	4.1680	0.7591	25.82	0.58	0.750			
0.0734	4697.93	4.1650	4.1651	0.7533	25.82	0.58	0.750			
0.0757	4842.79	4.1620	4.1620	0.7570	25.82	0.58	0.750			
0.0779	4987.05	4.1590	4.1590	0.7564	25.81	0.57	0.750			
0.0802	5131.04	4.1560	4.1561	0.7585	25.81	0.57	0.750			
0.0825	5276.93	4.1530	4.1529	0.7622	25.81	0.57	0.750			
0.0848	5424.40	4.1500	4.1500	0.7639	25.81	0.57	0.750			
0.0871	5572.76	4.1470	4.1471	0.7640	25.81	0.57	0.750			
0.0893	5718.22	4.1440	4.1440	0.7691	25.81	0.57	0.750			
0.0916	5865.18	4.1410	4.1410	0.7665	25.81	0.57	0.750			
0.0940	6013.02	4.1380	4.1378	0.7666	25.81	0.57	0.750			
0.0963	6160.10	4.1350	4.1350	0.7706	25.81	0.57	0.750			
0.0986	6310.00	4.1320	4.1321	0.7700	25.81	0.57	0.750			
0.1010	6460.85	4.1290	4.1289	0.7592	25.81	0.57	0.750			
0.1033	6608.34	4.1260	4.1260	0.7483	25.81	0.57	0.750			
0.1054	6747.50	4.1230	4.1231	0.7375	25.81	0.57	0.750			
0.1076	6886.43	4.1200	4.1201	0.7342	25.81	0.57	0.750			
0.1098	7024.14	4.1170	4.1167	0.7383	25.81	0.57	0.750			
0.1119	7161.33	4.1140	4.1139	0.7428	25.81	0.57	0.750			
0.1141	7304.23	4.1110	4.1111	0.7483	25.81	0.57	0.750			
0.1164	7449.82	4.1080	4.1081	0.7654	25.81	0.57	0.750			
0.1187	7599.78	4.1050	4.1052	0.7793	25.81	0.57	0.750			
0.1211	7750.91	4.1020	4.1021	0.7849	25.81	0.57	0.750			
0.1235	7906.42	4.0990	4.0990	0.7796	25.81	0.57	0.750			
0.1258	8054.16	4.0960	4.0962	0.7867	25.82	0.58	0.750			
0.1282	8207.90	4.0930	4.0930	0.7988	25.82	0.58	0.750			
0.1305	8355.12	4.0900	4.0901	0.7894	25.82	0.58	0.750			
0.1329	8506.24	4.0870	4.0867	0.7921	25.82	0.58	0.750			
0.1353	8660.05	4.0840	4.0842	0.7945	25.82	0.58	0.750			
0.1378	8816.14	4.0810	4.0811	0.8035	25.82	0.58	0.750			
0.1402	8970.55	4.0780	4.0780	0.8079	25.83	0.59	0.750			
0.1426	9123.70	4.0750	4.0750	0.8020	25.83	0.59	0.750			
0.1449	9276.75	4.0720	4.0721	0.8094	25.83	0.59	0.750			
0.1474	9434.56	4.0690	4.0690	0.8115	25.83	0.59	0.750			
0.1500	9597.64	4.0660	4.0659	0.7930	25.83	0.59	0.750			
0.1522	9743.35	4.0630	4.0632	0.8059	25.82	0.58	0.750			
0.1546	9894.60	4.0600	4.0603	0.8073	25.82	0.58	0.750			
0.1570	10048.19	4.0570	4.0562	0.8175	25.82	0.58	0.750			
0.1595	10206.48	4.0540	4.0541	0.8297	25.82	0.58	0.750			
0.1620	10369.01	4.0510	4.0512	0.8238	25.82	0.58	0.750			
0.1645	10529.55	4.0480	4.0481	0.8337	25.83	0.59	0.750			
0.1671	10691.94	4.0450	4.0453	0.8290	25.83	0.59	0.750			
0.1695	10850.22	4.0420	4.0413	0.8310	25.83	0.59	0.750			
0.1720	11008.77	4.0390	4.0391	0.8298	25.83	0.59	0.750			
0.1745	11169.32	4.0360	4.0361	0.8283	25.83	0.59	0.750			
0.1770	11329.91	4.0330	4.0330	0.8380	25.83	0.59	0.750			
0.1795	11489.75	4.0300	4.0301	0.8295	25.83	0.59	0.750			
0.1820	11647.71	4.0270	4.0269	0.8400	25.83	0.59	0.750			
0.1845	11809.11	4.0240	4.0240	0.8438	25.83	0.59	0.750			
0.1871	11974.66	4.0210	4.0210	0.8352	25.83	0.59	0.750			
0.1896	12135.54	4.0180	4.0180	0.8446	25.83	0.59	0.750			
0.1921	12296.07	4.0150	4.0153	0.8468	25.83	0.59	0.750			
0.1947	12457.68	4.0120	4.0112	0.8528	25.83	0.59	0.750			
0.1972	12621.09	4.0090	4.0091	0.8575	25.83	0.59	0.750			
0.1998	12785.87	4.0060	4.0061	0.8566	25.84	0.60	0.750			
0.2024	12954.07	4.0030	4.0031	0.8724	25.84	0.60	0.750			
0.2050	13120.30	4.0000	4.0001	0.8635	25.85	0.61	0.750			
0.2076	13287.84	3.9970	3.9970	0.8678	25.85	0.61	0.750			
0.2102	13455.50	3.9940	3.9941	0.8660	25.85	0.61	0.750			
0.2128	13622.00	3.9910	3.9911	0.8709	25.85	0.61	0.750			
0.2155	13791.18	3.9880	3.9880	0.8747	25.84	0.60	0.750			
0.2181	13957.85	3.9850	3.9850	0.8672	25.84	0.60	0.750			
0.2207	14124.70	3.9820	3.9821	0.8654	25.84	0.60	0.750			
0.2234	14295.11	3.9790	3.9790	0.8553	25.84	0.60	0.750			
0.2259	14456.42	3.9760	3.9760	0.8554	25.84	0.60	0.750			
0.2284	14617.52	3.9730	3.9731	0.8605	25.84	0.60	0.750			
0.2309	14780.44	3.9700	3.9701	0.8621	25.84	0.60	0.750			
0.2335	14947.19	3.9670	3.9671	0.8663	25.84	0.60	0.750			
0.2362	15116.41	3.9640	3.9641	0.8677	25.84	0.60	0.750			
0.2388	15283.61	3.9610	3.9611	0.8755	25.83	0.59	0.750			
0.2415	15455.05	3.9580	3.9579	0.8825	25.83	0.59	0.750			
0.2441	15619.92	3.9550	3.9547	0.8720	25.83	0.59	0.750			
0.2467	15788.38	3.9520	3.9521	0.8749	25.83	0.59	0.750			
0.2493	15957.52	3.9490	3.9491	0.8791	25.83	0.59	0.750			
0.2520	16127.52	3.9460	3.9460	0.8816	25.83	0.59	0.750			
0.2547	16297.99	3.9430	3.9430	0.8839	25.83	0.59	0.750			
0.2573	16465.63	3.9400	3.9400	0.8781	25.83	0.59	0.750			
0.2600	16637.76	3.9370	3.9369	0.8656	25.83	0.59	0.750			
0.2625	16801.66	3.9340	3.9341	0.8658	25.83	0.59	0.750			
0.2651	16965.45	3.9310	3.9310	0.8652	25.82	0.58	0.750			
0.2677	17129.74	3.9280	3.9281	0.8677	25.82	0.58	0.750			
0.2703	17296.03	3.9250	3.9248	0.8670	25.82	0.58	0.750			
0.2729	17465.38	3.9220	3.9221	0.8620	25.82	0.58	0.750			
0.2755	17633.33	3.9190	3.9191	0.8689	25.82	0.58	0.750			
0.2781	17801.21	3.9160	3.9160	0.8723	25.81	0.57	0.750			
0.2807	17965.72	3.9130	3.9130	0.8647	25.81	0.57	0.750			
0.2833	18129.55	3.9100	3.9101	0.8713	25.81	0.57	0.750			
0.2859	18299.40	3.9070	3.9071	0.8706	25.80	0.56	0.750			
0.2886	18468.85	3.9040	3.9039	0.8791	25.80	0.56	0.750			
0.2912	18638.27	3.9010	3.9012	0.8791	25.80	0.56	0.750			
0.2938	18805.95	3.8980	3.8979	0.8734	25.79	0.55	0.750			
0.2965	18973.19	3.8950	3.8950	0.8775	25.78	0.54	0.750			
0.2991	19141.24	3.8920	3.8921	0.8702	25.78	0.54	0.750			
0.3017	19306.88	3.8890	3.8890	0.8715	25.77	0.53	0.750			
0.3043	19474.83	3.8860	3.8861	0.8738	25.76	0.52	0.750			
0.3069	19643.12	3.8830	3.8825	0.8784	25.75	0.51	0.750			
0.3096	19812.28	3.8800	3.8801	0.8821	25.74	0.50	0.750			
0.3122	19982.43	3.8770	3.8770	0.8792	25.74	0.50	0.750			
0.3149	20150.87	3.8740	3.8741	0.8843	25.73	0.49	0.750			
0.3175	20320.52	3.8710	3.8711	0.8800	25.72	0.48	0.750			
0.3201	20489.24	3.8680	3.8681	0.8848	25.72	0.48	0.750			
0.3228	20660.79	3.8650	3.8651	0.8848	25.71	0.47	0.750			
0.3255	20829.78	3.8620	3.8621	0.8918	25.71	0.47	0.750			
0.3282	21003.10	3.8590	3.8589	0.8986	25.70	0.46	0.750			
0.3309	21174.62	3.8560	3.8561	0.8950	25.69	0.45	0.750			
0.3336	21352.33	3.8530	3.8529	0.8736	25.69	0.45	0.750			
0.3362	21517.33	3.8500	3.8502	0.8940	25.68	0.44	0.750			
0.3388	21686.23	3.8470	3.8471	0.9056	25.67	0.43	0.750			
0.3416	21859.52	3.8440	3.8439	0.9185	25.66	0.42	0.750	0.296	0.445	
0.3443	22035.48	3.8410	3.8407	0.9312	25.65	0.41	0.750			
0.3472	22221.74	3.8380	3.8382	0.9291	25.64	0.40	0.750			
0.3500	22401.92	3.8350	3.8351	0.9407	25.63	0.39	0.750			
0.3529	22582.52	3.8320	3.8321	0.9364	25.62	0.38	0.750			
0.3557	22764.26	3.8290	3.8292	0.9472	25.61	0.37	0.750			
0.3585	22943.78	3.8260	3.8261	0.9467	25.61	0.37	0.750			
0.3614	23126.79	3.8230	3.8231	0.9597	25.60	0.36	0.750			
0.3643	23312.58	3.8200	3.8201	0.9698	25.59	0.35	0.750			
0.3672	23501.44	3.8170	3.8170	0.9820	25.58	0.34	0.750			
0.3701	23689.45	3.8140	3.8140	0.9821	25.57	0.33	0.750			
0.3731	23878.77	3.8110	3.8111	0.9847	25.56	0.32	0.750			
0.3760	24066.68	3.8080	3.8081	0.9983	25.55	0.31	0.750			
0.3790	24258.39	3.8050	3.8051	1.0166	25.54	0.30	0.750			
0.3821	24457.52	3.8020	3.8012	1.0151	25.53	0.29	0.750			
0.3852	24654.57	3.7990	3.7992	1.0198	25.52	0.28	0.750			
0.3882	24846.60	3.7960	3.7963	1.0419	25.51	0.27	0.750			
0.3914	25048.20	3.7930	3.7933	1.0656	25.50	0.26	0.750			
0.3946	25257.50	3.7900	3.7892	1.0894	25.49	0.25	0.750			
0.3978	25458.68	3.7870	3.7873	1.1013	25.48	0.24	0.750			
0.4012	25675.87	3.7840	3.7842	1.1328	25.47	0.23	0.750			
0.4047	25901.54	3.7810	3.7811	1.1538	25.47	0.23	0.750			
0.4083	26130.88	3.7780	3.7779	1.1312	25.46	0.22	0.750			
0.4116	26344.23	3.7750	3.7753	1.1669	25.45	0.21	0.750			
0.4151	26567.83	3.7720	3.7721	1.1915	25.44	0.20	0.750			
0.4188	26805.21	3.7690	3.7686	1.1938	25.43	0.19	0.750			
0.4224	27031.40	3.7660	3.7662	1.2246	25.42	0.18	0.750			
0.4261	27267.82	3.7630	3.7633	1.2667	25.40	0.16	0.750			
0.4299	27516.76	3.7600	3.7602	1.2959	25.39	0.15	0.750			
0.4339	27766.77	3.7570	3.7571	1.3191	25.38	0.14	0.750			
0.4379	28022.76	3.7540	3.7542	1.3614	25.37	0.13	0.750			
0.4420	28290.50	3.7510	3.7512	1.4021	25.36	0.12	0.750			
0.4465	28575.18	3.7480	3.7480	1.3961	25.34	0.10	0.750			
0.4505	28833.64	3.7450	3.7451	1.4227	25.33	0.09	0.750			
0.4549	29115.70	3.7420	3.7421	1.4271	25.32	0.08	0.750			
0.4592	29391.60	3.7390	3.7393	1.4496	25.30	0.06	0.750			
0.4634	29659.11	3.7360	3.7358	1.4990	25.29	0.05	0.750			
0.4680	29952.30	3.7330	3.7336	1.5447	25.28	0.04	0.750			
0.4728	30261.20	3.7300	3.7297	1.6071	25.27	0.03	0.750			
0.4777	30572.56	3.7270	3.7270	1.7017	25.25	0.01	0.750			
0.4829	30906.05	3.7240	3.7243	1.7284	25.24	-0.00	0.750			
0.4883	31250.49	3.7210	3.7214	1.7572	25.22	-0.02	0.750			
0.4934	31579.82	3.7180	3.7183	1.8131	25.20	-0.04	0.750			
0.4987	31918.97	3.7150	3.7149	1.8383	25.19	-0.05	0.750			
0.5044	32281.77	3.7120	3.7124	1.8904	25.18	-0.06	0.750			
0.5103	32657.69	3.7090	3.7095	2.0125	25.17	-0.07	0.750			
0.5164	33048.42	3.7060	3.7055	2.1184	25.16	-0.08	0.750			
0.5228	33458.79	3.7030	3.7026	2.2044	25.14	-0.10	0.750			
0.5293	33874.40	3.7000	3.7004	2.1705	25.13	-0.11	0.750			
0.5359	34297.43	3.6970	3.6965	2.2281	25.11	-0.13	0.750			
0.5426	34726.27	3.6940	3.6946	2.2390	25.10	-0.14	0.750			
0.5492	35146.63	3.6910	3.6905	2.4080	25.09	-0.15	0.750			
0.5565	35618.65	3.6880	3.6882	2.4114	25.08	-0.16	0.750			
0.5635	36062.09	3.6850	3.6846	2.4499	25.08	-0.16	0.750			
0.5711	36552.98	3.6820	3.6824	2.3349	25.08	-0.16	0.750			
0.5778	36981.19	3.6790	3.6787	2.3028	25.08	-0.16	0.750			
0.5847	37417.93	3.6760	3.6764	2.2466	25.08	-0.16	0.750			
0.5916	37861.61	3.6730	3.6723	2.1637	25.08	-0.16	0.750			
0.5980	38273.09	3.6700	3.6698	2.1716	25.08	-0.16	0.750			
0.6041	38662.21	3.6670	3.6668	2.0037	25.09	-0.15	0.750			
0.6094	39001.36	3.6640	3.6642	1.7834	25.09	-0.15	0.750			
0.6149	39352.44	3.6610	3.6615	1.7312	25.10	-0.14	0.750			
0.6198	39669.12	3.6580	3.6574	1.6153	25.10	-0.14	0.750			
0.6247	39978.52	3.6550	3.6554	1.5170	25.11	-0.13	0.750			
0.6290	40257.20	3.6520	3.6522	1.4180	25.12	-0.12	0.750			
0.6332	40521.93	3.6490	3.6488	1.3149	25.12	-0.12	0.750			
0.6370	40766.01	3.6460	3.6459	1.2445	25.13	-0.11	0.750			
0.6403	40979.54	3.6430	3.6431	1.1503	25.14	-0.10	0.750			
0.6437	41195.80	3.6400	3.6401	1.0983	25.15	-0.09	0.750			
0.6469	41402.50	3.6370	3.6370	1.0263	25.15	-0.09	0.750			
0.6499	41591.09	3.6340	3.6341	0.9908	25.16	-0.08	0.750			
0.6528	41780.73	3.6310	3.6310	0.9287	25.16	-0.08	0.750			
0.6555	41950.95	3.6280	3.6282	0.8974	25.17	-0.07	0.750			
0.6580	42110.98	3.6250	3.6255	0.8505	25.17	-0.07	0.750			
0.6605	42269.98	3.6220	3.6224	0.8305	25.18	-0.06	0.750			
0.6629	42425.06	3.6190	3.6198	0.8155	25.18	-0.06	0.750			
0.6654	42586.63	3.6160	3.6166	0.7952	25.19	-0.05	0.750			
0.6678	42740.44	3.6130	3.6136	0.7646	25.20	-0.04	0.750			
0.6702	42894.42	3.6100	3.6102	0.7296	25.20	-0.04	0.750			
0.6723	43025.82	3.6070	3.6070	0.6518	25.21	-0.03	0.750			
0.6742	43146.36	3.6040	3.6040	0.6006	25.21	-0.03	0.750			
0.6758	43254.28	3.6010	3.6009	0.5332	25.22	-0.02	0.750			
0.6773	43346.35	3.5980	3.5982	0.4748	25.22	-0.02	0.750			
0.6786	43432.53	3.5950	3.5953	0.4248	25.23	-0.01	0.750			
0.6798	43508.78	3.5920	3.5922	0.3752	25.23	-0.01	0.750			
0.6809	43575.55	3.5890	3.5894	0.3309	25.24	-0.00	0.750			
0.6818	43634.75	3.5860	3.5865	0.2870	25.24	-0.00	0.750			
0.6826	43684.70	3.5830	3.5834	0.2414	25.24	0.00	0.750			
0.6832	43727.42	3.5800	3.5789	0.2012	25.24	0.00	0.750			
0.6838	43761.04	3.5770	3.5781	0.1620	25.25	0.01	0.750			
0.6842	43788.78	3.5740	3.5751	0.1141	25.25	0.01	0.750			
