Ah_balance (normalized)	Ah_balance (mAh)	Voltage - fit (V)	Voltage -  interpolate (V)	dQ/dV (1/V)	Temperature (°C)	Temperature - diff (°C)	Current (C)	R_DC 0ms (mOhm)	R_DC 50ms (mOhm)	R_DC 50 ms PEC (mOhm)
0.0484	3100.42	4.1960	4.1961	0.7655	25.79	0.44	0.750			
0.0508	3248.30	4.1930	4.1931	0.7690	25.79	0.44	0.750			
0.0531	3398.11	4.1900	4.1900	0.7633	25.79	0.44	0.750			
0.0553	3542.27	4.1870	4.1870	0.7618	25.79	0.44	0.750			
0.0576	3687.46	4.1840	4.1840	0.7569	25.79	0.44	0.750			
0.0599	3832.28	4.1810	4.1806	0.7588	25.79	0.44	0.750			
0.0622	3977.94	4.1780	4.1781	0.7598	25.79	0.44	0.750			
0.0645	4125.70	4.1750	4.1750	0.7577	25.79	0.44	0.750			
0.0667	4270.67	4.1720	4.1720	0.7618	25.79	0.44	0.750			
0.0690	4417.63	4.1690	4.1690	0.7690	25.79	0.44	0.750			
0.0713	4563.49	4.1660	4.1660	0.7668	25.79	0.44	0.750			
0.0736	4711.64	4.1630	4.1631	0.7703	25.79	0.44	0.750			
0.0759	4860.06	4.1600	4.1601	0.7708	25.79	0.44	0.750			
0.0783	5009.61	4.1570	4.1571	0.7693	25.79	0.44	0.750			
0.0806	5156.82	4.1540	4.1540	0.7693	25.80	0.45	0.750			
0.0829	5303.11	4.1510	4.1511	0.7672	25.80	0.45	0.750			
0.0852	5450.22	4.1480	4.1473	0.7684	25.80	0.45	0.750			
0.0875	5598.01	4.1450	4.1451	0.7706	25.80	0.45	0.750			
0.0898	5746.68	4.1420	4.1421	0.7707	25.80	0.45	0.750			
0.0921	5894.74	4.1390	4.1390	0.7803	25.80	0.45	0.750			
0.0945	6045.66	4.1360	4.1359	0.7822	25.80	0.45	0.750			
0.0968	6193.73	4.1330	4.1329	0.7816	25.80	0.45	0.750			
0.0991	6345.43	4.1300	4.1301	0.7832	25.80	0.45	0.750			
0.1016	6499.23	4.1270	4.1270	0.7820	25.80	0.45	0.750			
0.1039	6648.32	4.1240	4.1241	0.7821	25.80	0.45	0.750			
0.1062	6796.65	4.1210	4.1210	0.7827	25.81	0.46	0.750			
0.1085	6945.21	4.1180	4.1180	0.7815	25.81	0.46	0.750			
0.1109	7095.69	4.1150	4.1150	0.7839	25.81	0.46	0.750			
0.1132	7245.95	4.1120	4.1120	0.7864	25.81	0.46	0.750			
0.1156	7399.72	4.1090	4.1091	0.7867	25.81	0.46	0.750			
0.1180	7549.81	4.1060	4.1060	0.7875	25.81	0.46	0.750			
0.1203	7698.73	4.1030	4.1030	0.7903	25.81	0.46	0.750			
0.1227	7850.68	4.1000	4.0991	0.7996	25.81	0.46	0.750			
0.1251	8005.06	4.0970	4.0971	0.8022	25.81	0.46	0.750			
0.1275	8162.55	4.0940	4.0940	0.7965	25.81	0.46	0.750			
0.1299	8316.75	4.0910	4.0911	0.8031	25.82	0.47	0.750			
0.1324	8470.57	4.0880	4.0880	0.8073	25.82	0.47	0.750			
0.1347	8621.93	4.0850	4.0848	0.8036	25.82	0.47	0.750			
0.1371	8776.75	4.0820	4.0820	0.8030	25.82	0.47	0.750			
0.1395	8931.02	4.0790	4.0791	0.8040	25.82	0.47	0.750			
0.1420	9086.61	4.0760	4.0761	0.8118	25.83	0.48	0.750			
0.1445	9244.88	4.0730	4.0730	0.8190	25.83	0.48	0.750			
0.1468	9398.38	4.0700	4.0699	0.8143	25.83	0.48	0.750			
0.1493	9555.61	4.0670	4.0671	0.8206	25.83	0.48	0.750			
0.1519	9720.25	4.0640	4.0639	0.8070	25.83	0.48	0.750			
0.1543	9873.04	4.0610	4.0610	0.8126	25.83	0.48	0.750			
0.1566	10025.54	4.0580	4.0581	0.8183	25.83	0.48	0.750			
0.1591	10180.60	4.0550	4.0551	0.8244	25.83	0.48	0.750			
0.1615	10338.42	4.0520	4.0522	0.8293	25.83	0.48	0.750			
0.1641	10501.81	4.0490	4.0491	0.8276	25.84	0.49	0.750			
0.1666	10663.52	4.0460	4.0461	0.8353	25.84	0.49	0.750			
0.1691	10825.20	4.0430	4.0431	0.8417	25.84	0.49	0.750			
0.1716	10983.79	4.0400	4.0402	0.8354	25.85	0.50	0.750			
0.1741	11144.27	4.0370	4.0370	0.8392	25.85	0.50	0.750			
0.1767	11305.79	4.0340	4.0341	0.8410	25.85	0.50	0.750			
0.1792	11468.91	4.0310	4.0311	0.8516	25.85	0.50	0.750			
0.1818	11637.11	4.0280	4.0280	0.8598	25.85	0.50	0.750			
0.1844	11799.06	4.0250	4.0249	0.8524	25.85	0.50	0.750			
0.1869	11962.90	4.0220	4.0221	0.8560	25.85	0.50	0.750			
0.1895	12131.07	4.0190	4.0190	0.8420	25.85	0.50	0.750			
0.1920	12289.74	4.0160	4.0160	0.8538	25.86	0.51	0.750			
0.1946	12452.37	4.0130	4.0132	0.8606	25.86	0.51	0.750			
0.1971	12616.97	4.0100	4.0097	0.8625	25.86	0.51	0.750			
0.1997	12783.60	4.0070	4.0071	0.8702	25.86	0.51	0.750			
0.2024	12952.63	4.0040	4.0041	0.8681	25.86	0.51	0.750			
0.2050	13119.77	4.0010	4.0011	0.8723	25.87	0.52	0.750			
0.2076	13288.93	3.9980	3.9980	0.8704	25.87	0.52	0.750			
0.2102	13454.91	3.9950	3.9946	0.8777	25.87	0.52	0.750			
0.2129	13625.11	3.9920	3.9920	0.8750	25.87	0.52	0.750			
0.2155	13793.85	3.9890	3.9891	0.8835	25.87	0.52	0.750			
0.2182	13965.69	3.9860	3.9860	0.8878	25.87	0.52	0.750			
0.2209	14137.61	3.9830	3.9830	0.8877	25.87	0.52	0.750			
0.2235	14305.23	3.9800	3.9800	0.8818	25.87	0.52	0.750			
0.2262	14475.14	3.9770	3.9771	0.8767	25.88	0.53	0.750			
0.2288	14641.10	3.9740	3.9741	0.8849	25.88	0.53	0.750			
0.2315	14812.96	3.9710	3.9710	0.8913	25.88	0.53	0.750			
0.2341	14982.00	3.9680	3.9680	0.8953	25.89	0.54	0.750			
0.2368	15156.60	3.9650	3.9651	0.9046	25.89	0.54	0.750			
0.2396	15333.59	3.9620	3.9621	0.9031	25.89	0.54	0.750			
0.2423	15506.23	3.9590	3.9592	0.9066	25.89	0.54	0.750			
0.2450	15681.80	3.9560	3.9560	0.9071	25.89	0.54	0.750			
0.2477	15852.58	3.9530	3.9526	0.9009	25.89	0.54	0.750			
0.2504	16025.89	3.9500	3.9501	0.9013	25.89	0.54	0.750			
0.2531	16197.62	3.9470	3.9471	0.9035	25.90	0.55	0.750			
0.2558	16374.36	3.9440	3.9440	0.9117	25.90	0.55	0.750			
0.2586	16548.22	3.9410	3.9410	0.9049	25.91	0.56	0.750			
0.2613	16722.12	3.9380	3.9381	0.9096	25.91	0.56	0.750			
0.2641	16900.79	3.9350	3.9350	0.9052	25.91	0.56	0.750			
0.2668	17072.55	3.9320	3.9320	0.9101	25.91	0.56	0.750			
0.2695	17245.30	3.9290	3.9291	0.9185	25.91	0.56	0.750			
0.2722	17422.17	3.9260	3.9256	0.9213	25.91	0.56	0.750			
0.2750	17602.80	3.9230	3.9231	0.9132	25.91	0.56	0.750			
0.2778	17777.24	3.9200	3.9201	0.9214	25.91	0.56	0.750			
0.2805	17953.38	3.9170	3.9172	0.9252	25.91	0.56	0.750			
0.2833	18133.42	3.9140	3.9140	0.9327	25.91	0.56	0.750			
0.2861	18309.47	3.9110	3.9107	0.9260	25.91	0.56	0.750			
0.2889	18488.52	3.9080	3.9081	0.9185	25.91	0.56	0.750			
0.2917	18666.98	3.9050	3.9051	0.9245	25.90	0.55	0.750			
0.2944	18843.57	3.9020	3.9021	0.9265	25.90	0.55	0.750			
0.2972	19018.32	3.8990	3.8987	0.9218	25.90	0.55	0.750			
0.2999	19194.31	3.8960	3.8960	0.9237	25.90	0.55	0.750			
0.3027	19371.97	3.8930	3.8931	0.9174	25.90	0.55	0.750			
0.3054	19548.10	3.8900	3.8901	0.9255	25.89	0.54	0.750			
0.3082	19727.91	3.8870	3.8871	0.9381	25.89	0.54	0.750			
0.3110	19904.96	3.8840	3.8836	0.9342	25.89	0.54	0.750			
0.3138	20083.31	3.8810	3.8812	0.9305	25.88	0.53	0.750			
0.3166	20264.22	3.8780	3.8781	0.9361	25.88	0.53	0.750			
0.3195	20447.93	3.8750	3.8751	0.9440	25.88	0.53	0.750			
0.3223	20626.72	3.8720	3.8718	0.9319	25.87	0.52	0.750			
0.3251	20806.57	3.8690	3.8690	0.9317	25.87	0.52	0.750			
0.3279	20985.47	3.8660	3.8660	0.9375	25.86	0.51	0.750			
0.3307	21167.46	3.8630	3.8631	0.9396	25.86	0.51	0.750			
0.3335	21346.31	3.8600	3.8600	0.9354	25.85	0.50	0.750			
0.3364	21527.15	3.8570	3.8570	0.9395	25.85	0.50	0.750			
0.3392	21711.56	3.8540	3.8539	0.9234	25.84	0.49	0.750			
0.3419	21883.80	3.8510	3.8511	0.9295	25.83	0.48	0.750			
0.3447	22061.53	3.8480	3.8482	0.9387	25.83	0.48	0.750			
0.3476	22244.57	3.8450	3.8440	0.9203	25.82	0.47	0.750			
0.3503	22421.94	3.8420	3.8421	0.9300	25.81	0.46	0.750			
0.3531	22596.75	3.8390	3.8393	0.9498	25.81	0.46	0.750			
0.3559	22780.15	3.8360	3.8362	0.9720	25.80	0.45	0.750			
0.3590	22974.08	3.8330	3.8333	0.9941	25.79	0.44	0.750	0.278	0.398	
0.3619	23161.45	3.8300	3.8302	0.9797	25.78	0.43	0.750			
0.3649	23352.73	3.8270	3.8272	0.9931	25.77	0.42	0.750			
0.3679	23547.74	3.8240	3.8241	0.9953	25.77	0.42	0.750			
0.3709	23739.18	3.8210	3.8210	0.9955	25.76	0.41	0.750			
0.3738	23925.71	3.8180	3.8180	0.9898	25.75	0.40	0.750			
0.3768	24115.99	3.8150	3.8150	0.9886	25.74	0.39	0.750			
0.3798	24304.29	3.8120	3.8122	1.0035	25.73	0.38	0.750			
0.3828	24497.06	3.8090	3.8091	1.0166	25.72	0.37	0.750			
0.3859	24695.77	3.8060	3.8061	1.0120	25.71	0.36	0.750			
0.3889	24889.91	3.8030	3.8033	1.0332	25.70	0.35	0.750			
0.3920	25088.22	3.8000	3.8002	1.0488	25.69	0.34	0.750			
0.3952	25292.29	3.7970	3.7971	1.0727	25.69	0.34	0.750			
0.3984	25497.20	3.7940	3.7937	1.0709	25.68	0.33	0.750			
0.4017	25707.24	3.7910	3.7912	1.0959	25.66	0.31	0.750			
0.4050	25921.70	3.7880	3.7880	1.1181	25.65	0.30	0.750			
0.4084	26139.66	3.7850	3.7851	1.1389	25.64	0.29	0.750			
0.4120	26365.38	3.7820	3.7819	1.1177	25.62	0.27	0.750			
0.4152	26574.08	3.7790	3.7791	1.1440	25.61	0.26	0.750			
0.4186	26790.43	3.7760	3.7762	1.1736	25.60	0.25	0.750			
0.4222	27019.98	3.7730	3.7729	1.1904	25.59	0.24	0.750			
0.4258	27248.47	3.7700	3.7702	1.2215	25.58	0.23	0.750			
0.4295	27485.97	3.7670	3.7673	1.2542	25.57	0.22	0.750			
0.4333	27733.24	3.7640	3.7642	1.2807	25.56	0.21	0.750			
0.4373	27989.64	3.7610	3.7610	1.3265	25.55	0.20	0.750			
0.4411	28232.56	3.7580	3.7581	1.3221	25.55	0.20	0.750			
0.4452	28491.63	3.7550	3.7551	1.3537	25.54	0.19	0.750			
0.4493	28758.38	3.7520	3.7520	1.3683	25.52	0.17	0.750			
0.4533	29012.91	3.7490	3.7492	1.3988	25.51	0.16	0.750			
0.4576	29284.36	3.7460	3.7462	1.4303	25.49	0.14	0.750			
0.4619	29561.65	3.7430	3.7432	1.4603	25.48	0.13	0.750			
0.4663	29842.47	3.7400	3.7403	1.4883	25.48	0.13	0.750			
0.4709	30137.06	3.7370	3.7370	1.5094	25.47	0.12	0.750			
0.4753	30420.40	3.7340	3.7337	1.5955	25.46	0.11	0.750			
0.4802	30733.82	3.7310	3.7306	1.6753	25.45	0.10	0.750			
0.4850	31039.33	3.7280	3.7281	1.7404	25.43	0.08	0.750			
0.4904	31383.48	3.7250	3.7245	1.8529	25.42	0.07	0.750			
0.4962	31755.73	3.7220	3.7226	1.9040	25.40	0.05	0.750			
0.5021	32132.77	3.7190	3.7196	1.9554	25.39	0.04	0.750			
0.5081	32519.78	3.7160	3.7163	1.9762	25.37	0.02	0.750			
0.5140	32898.90	3.7130	3.7130	2.0287	25.35	0.00	0.750			
0.5198	33269.65	3.7100	3.7100	2.0036	25.33	-0.02	0.750			
0.5260	33664.25	3.7070	3.7066	2.0659	25.31	-0.04	0.750			
0.5324	34070.82	3.7040	3.7042	2.1201	25.30	-0.05	0.750			
0.5388	34483.00	3.7010	3.7009	2.1555	25.29	-0.06	0.750			
0.5454	34903.09	3.6980	3.6980	2.2647	25.28	-0.07	0.750			
0.5521	35332.44	3.6950	3.6949	2.3261	25.26	-0.09	0.750			
0.5592	35788.87	3.6920	3.6921	2.3689	25.25	-0.10	0.750			
0.5665	36254.03	3.6890	3.6887	2.4245	25.23	-0.12	0.750			
0.5740	36736.88	3.6860	3.6858	2.4788	25.22	-0.13	0.750			
0.5814	37211.27	3.6830	3.6828	2.5284	25.21	-0.14	0.750			
0.5890	37699.18	3.6800	3.6803	2.6053	25.21	-0.14	0.750			
0.5971	38213.44	3.6770	3.6772	2.6722	25.20	-0.15	0.750			
0.6051	38729.53	3.6740	3.6741	2.6646	25.19	-0.16	0.750			
0.6134	39255.98	3.6710	3.6711	2.6399	25.19	-0.16	0.750			
0.6213	39762.19	3.6680	3.6679	2.5603	25.20	-0.15	0.750			
0.6290	40258.94	3.6650	3.6647	2.4125	25.21	-0.14	0.750			
0.6360	40704.87	3.6620	3.6619	2.2513	25.21	-0.14	0.750			
0.6424	41114.14	3.6590	3.6587	2.0519	25.22	-0.13	0.750			
0.6482	41485.21	3.6560	3.6558	1.8889	25.22	-0.13	0.750			
0.6535	41827.07	3.6530	3.6530	1.7281	25.23	-0.12	0.750			
0.6584	42140.44	3.6500	3.6500	1.5773	25.25	-0.10	0.750			
0.6630	42430.23	3.6470	3.6472	1.4522	25.25	-0.10	0.750			
0.6671	42697.03	3.6440	3.6441	1.3372	25.26	-0.09	0.750			
0.6709	42939.62	3.6410	3.6410	1.2293	25.27	-0.08	0.750			
0.6745	43167.49	3.6380	3.6380	1.1467	25.27	-0.08	0.750			
0.6776	43368.05	3.6350	3.6351	1.0703	25.27	-0.08	0.750			
0.6807	43565.22	3.6320	3.6321	1.0242	25.28	-0.07	0.750			
0.6838	43761.06	3.6290	3.6290	0.9684	25.28	-0.07	0.750			
0.6865	43937.34	3.6260	3.6261	0.9460	25.28	-0.07	0.750			
0.6893	44115.31	3.6230	3.6232	0.9211	25.29	-0.06	0.750			
0.6920	44289.32	3.6200	3.6202	0.8993	25.30	-0.05	0.750			
0.6947	44463.62	3.6170	3.6171	0.8664	25.31	-0.04	0.750			
0.6973	44628.32	3.6140	3.6137	0.8251	25.32	-0.03	0.750			
0.6998	44789.20	3.6110	3.6111	0.7806	25.33	-0.02	0.750			
0.7021	44933.49	3.6080	3.6081	0.7143	25.33	-0.02	0.750			
0.7042	45067.16	3.6050	3.6050	0.6428	25.34	-0.01	0.750			
0.7060	45184.78	3.6020	3.6020	0.5768	25.34	-0.01	0.750			
0.7076	45284.43	3.5990	3.5990	0.5110	25.34	-0.01	0.750			
0.7090	45376.30	3.5960	3.5959	0.4556	25.35	-0.00	0.750			
0.7103	45457.05	3.5930	3.5929	0.4012	25.35	0.00	0.750			
0.7114	45529.56	3.5900	3.5900	0.3522	25.35	0.00	0.750			
0.7124	45592.82	3.5870	3.5870	0.3042	25.36	0.01	0.750			
0.7132	45647.08	3.5840	3.5840	0.2549	25.36	0.01	0.750			
0.7139	45690.83	3.5810	3.5809	0.2037	25.36	0.01	0.750			
0.7145	45725.00	3.5780	3.5782	0.1542	25.36	0.01	0.750			
0.7148	45749.96	3.5750	3.5752	0.1081	25.36	0.01	0.750			
