Ah_balance (normalized)	Ah_balance (mAh)	Voltage - fit (V)	Voltage -  interpolate (V)	dQ/dV (1/V)	Temperature (°C)	Temperature - diff (°C)	Current (C)	R_DC 0ms (mOhm)	R_DC 50ms (mOhm)	R_DC 50 ms PEC (mOhm)
0.0494	3164.53	4.1960	4.1960	0.7692	25.40	0.51	0.750			
0.0517	3310.91	4.1930	4.1929	0.7664	25.40	0.51	0.750			
0.0540	3458.60	4.1900	4.1900	0.7705	25.40	0.51	0.750			
0.0564	3608.42	4.1870	4.1869	0.7685	25.40	0.51	0.750			
0.0587	3755.01	4.1840	4.1841	0.7740	25.40	0.51	0.750			
0.0610	3904.04	4.1810	4.1810	0.7770	25.40	0.51	0.750			
0.0633	4053.17	4.1780	4.1780	0.7774	25.40	0.51	0.750			
0.0657	4203.04	4.1750	4.1749	0.7797	25.40	0.51	0.750			
0.0680	4352.61	4.1720	4.1720	0.7774	25.40	0.51	0.750			
0.0704	4502.48	4.1690	4.1690	0.7803	25.40	0.51	0.750			
0.0727	4652.21	4.1660	4.1660	0.7841	25.40	0.51	0.750			
0.0750	4800.97	4.1630	4.1630	0.7822	25.40	0.51	0.750			
0.0774	4952.90	4.1600	4.1599	0.7872	25.40	0.51	0.750			
0.0798	5104.32	4.1570	4.1570	0.7924	25.40	0.51	0.750			
0.0822	5257.98	4.1540	4.1540	0.7917	25.40	0.51	0.750			
0.0845	5410.42	4.1510	4.1510	0.7916	25.40	0.51	0.750			
0.0869	5561.55	4.1480	4.1480	0.7888	25.40	0.51	0.750			
0.0893	5712.26	4.1450	4.1450	0.7894	25.40	0.51	0.750			
0.0916	5863.64	4.1420	4.1420	0.7905	25.40	0.51	0.750			
0.0940	6016.42	4.1390	4.1390	0.7880	25.40	0.51	0.750			
0.0963	6166.30	4.1360	4.1360	0.7918	25.39	0.50	0.750			
0.0987	6319.68	4.1330	4.1330	0.7976	25.39	0.50	0.750			
0.1011	6472.31	4.1300	4.1300	0.7986	25.39	0.50	0.750			
0.1035	6625.95	4.1270	4.1270	0.8024	25.39	0.50	0.750			
0.1060	6780.87	4.1240	4.1240	0.8011	25.39	0.50	0.750			
0.1084	6935.34	4.1210	4.1210	0.8042	25.39	0.50	0.750			
0.1108	7091.09	4.1180	4.1180	0.8062	25.39	0.50	0.750			
0.1132	7243.75	4.1150	4.1150	0.8069	25.39	0.50	0.750			
0.1156	7398.95	4.1120	4.1120	0.8103	25.39	0.50	0.750			
0.1181	7555.86	4.1090	4.1089	0.8095	25.39	0.50	0.750			
0.1205	7711.24	4.1060	4.1061	0.8118	25.39	0.50	0.750			
0.1229	7867.35	4.1030	4.1030	0.8151	25.38	0.49	0.750			
0.1254	8023.21	4.1000	4.1000	0.8164	25.38	0.49	0.750			
0.1278	8179.90	4.0970	4.0969	0.8187	25.38	0.49	0.750			
0.1303	8338.33	4.0940	4.0940	0.8165	25.38	0.49	0.750			
0.1327	8495.67	4.0910	4.0910	0.8245	25.39	0.50	0.750			
0.1352	8654.62	4.0880	4.0880	0.8284	25.39	0.50	0.750			
0.1377	8813.35	4.0850	4.0851	0.8306	25.40	0.51	0.750			
0.1402	8972.86	4.0820	4.0819	0.8323	25.40	0.51	0.750			
0.1427	9133.43	4.0790	4.0791	0.8365	25.40	0.51	0.750			
0.1452	9294.64	4.0760	4.0760	0.8411	25.40	0.51	0.750			
0.1478	9457.18	4.0730	4.0730	0.8434	25.40	0.51	0.750			
0.1503	9618.82	4.0700	4.0700	0.8413	25.40	0.51	0.750			
0.1528	9781.02	4.0670	4.0670	0.8447	25.40	0.51	0.750			
0.1554	9943.87	4.0640	4.0640	0.8446	25.40	0.51	0.750			
0.1579	10105.89	4.0610	4.0610	0.8487	25.40	0.51	0.750			
0.1604	10268.48	4.0580	4.0580	0.8507	25.40	0.51	0.750			
0.1630	10431.60	4.0550	4.0551	0.8553	25.40	0.51	0.750			
0.1656	10596.87	4.0520	4.0520	0.8590	25.40	0.51	0.750			
0.1682	10762.44	4.0490	4.0490	0.8608	25.40	0.51	0.750			
0.1707	10927.30	4.0460	4.0460	0.8653	25.40	0.51	0.750			
0.1733	11094.01	4.0430	4.0430	0.8691	25.40	0.51	0.750			
0.1760	11261.22	4.0400	4.0400	0.8703	25.40	0.51	0.750			
0.1786	11428.46	4.0370	4.0370	0.8761	25.40	0.51	0.750			
0.1812	11597.17	4.0340	4.0341	0.8772	25.40	0.51	0.750			
0.1839	11767.07	4.0310	4.0310	0.8796	25.40	0.51	0.750			
0.1865	11936.13	4.0280	4.0279	0.8838	25.40	0.51	0.750			
0.1891	12105.47	4.0250	4.0249	0.8825	25.40	0.51	0.750			
0.1918	12274.30	4.0220	4.0221	0.8866	25.40	0.51	0.750			
0.1945	12444.97	4.0190	4.0190	0.8867	25.40	0.51	0.750			
0.1971	12615.31	4.0160	4.0160	0.8878	25.40	0.51	0.750			
0.1998	12786.68	4.0130	4.0130	0.8926	25.40	0.51	0.750			
0.2025	12957.28	4.0100	4.0101	0.8945	25.40	0.51	0.750			
0.2051	13129.56	4.0070	4.0070	0.8938	25.40	0.51	0.750			
0.2078	13301.79	4.0040	4.0040	0.9016	25.40	0.51	0.750			
0.2105	13474.39	4.0010	4.0010	0.9046	25.41	0.52	0.750			
0.2133	13649.17	3.9980	3.9980	0.9091	25.41	0.52	0.750			
0.2160	13824.51	3.9950	3.9950	0.9120	25.41	0.52	0.750			
0.2188	14000.17	3.9920	3.9920	0.9134	25.41	0.52	0.750			
0.2215	14175.58	3.9890	3.9890	0.9180	25.42	0.53	0.750			
0.2243	14352.61	3.9860	3.9860	0.9207	25.42	0.53	0.750			
0.2270	14528.43	3.9830	3.9829	0.9181	25.42	0.53	0.750			
0.2298	14705.69	3.9800	3.9801	0.9214	25.42	0.53	0.750			
0.2325	14882.07	3.9770	3.9770	0.9265	25.42	0.53	0.750			
0.2353	15060.63	3.9740	3.9740	0.9304	25.43	0.54	0.750			
0.2381	15239.13	3.9710	3.9710	0.9289	25.43	0.54	0.750			
0.2409	15417.55	3.9680	3.9680	0.9308	25.43	0.54	0.750			
0.2437	15597.99	3.9650	3.9651	0.9336	25.43	0.54	0.750			
0.2465	15776.28	3.9620	3.9619	0.9381	25.44	0.55	0.750			
0.2493	15955.31	3.9590	3.9590	0.9403	25.44	0.55	0.750			
0.2521	16136.63	3.9560	3.9558	0.9409	25.44	0.55	0.750			
0.2550	16318.68	3.9530	3.9530	0.9443	25.44	0.55	0.750			
0.2578	16500.94	3.9500	3.9501	0.9491	25.44	0.55	0.750			
0.2607	16682.81	3.9470	3.9470	0.9548	25.45	0.56	0.750			
0.2635	16865.31	3.9440	3.9439	0.9548	25.45	0.56	0.750			
0.2664	17050.64	3.9410	3.9410	0.9553	25.45	0.56	0.750			
0.2693	17234.23	3.9380	3.9380	0.9613	25.45	0.56	0.750			
0.2722	17419.84	3.9350	3.9350	0.9645	25.45	0.56	0.750			
0.2751	17604.23	3.9320	3.9321	0.9680	25.45	0.56	0.750			
0.2780	17790.24	3.9290	3.9289	0.9698	25.45	0.56	0.750			
0.2809	17976.25	3.9260	3.9261	0.9620	25.46	0.57	0.750			
0.2838	18160.38	3.9230	3.9230	0.9662	25.46	0.57	0.750			
0.2866	18345.28	3.9200	3.9202	0.9725	25.46	0.57	0.750			
0.2896	18531.75	3.9170	3.9166	0.9744	25.47	0.58	0.750			
0.2925	18718.57	3.9140	3.9141	0.9811	25.47	0.58	0.750			
0.2954	18908.34	3.9110	3.9111	0.9879	25.47	0.58	0.750			
0.2985	19101.22	3.9080	3.9080	0.9990	25.47	0.58	0.750			
0.3015	19292.89	3.9050	3.9050	0.9986	25.47	0.58	0.750			
0.3045	19485.97	3.9020	3.9020	0.9967	25.47	0.58	0.750			
0.3075	19677.21	3.8990	3.8990	1.0017	25.47	0.58	0.750			
0.3105	19868.99	3.8960	3.8960	1.0078	25.48	0.59	0.750			
0.3135	20062.39	3.8930	3.8930	1.0092	25.48	0.59	0.750			
0.3165	20257.48	3.8900	3.8900	1.0123	25.48	0.59	0.750			
0.3196	20451.97	3.8870	3.8870	1.0170	25.48	0.59	0.750			
0.3226	20647.87	3.8840	3.8841	1.0231	25.48	0.59	0.750			
0.3257	20845.26	3.8810	3.8810	1.0279	25.48	0.59	0.750			
0.3288	21044.46	3.8780	3.8780	1.0290	25.48	0.59	0.750			
0.3319	21239.59	3.8750	3.8750	1.0366	25.48	0.59	0.750			
0.3350	21440.45	3.8720	3.8721	1.0477	25.49	0.60	0.750			
0.3382	21642.78	3.8690	3.8690	1.0556	25.49	0.60	0.750			
0.3413	21846.28	3.8660	3.8660	1.0550	25.49	0.60	0.750			
0.3445	22049.66	3.8630	3.8631	1.0624	25.49	0.60	0.750			
0.3477	22254.37	3.8600	3.8600	1.0681	25.48	0.59	0.750			
0.3509	22460.44	3.8570	3.8570	1.0772	25.48	0.59	0.750			
0.3542	22665.92	3.8540	3.8540	1.0759	25.48	0.59	0.750			
0.3574	22872.88	3.8510	3.8510	1.0848	25.48	0.59	0.750			
0.3607	23082.19	3.8480	3.8480	1.0911	25.48	0.59	0.750			
0.3640	23293.75	3.8450	3.8450	1.0986	25.48	0.59	0.750			
0.3673	23504.41	3.8420	3.8420	1.0961	25.48	0.59	0.750			
0.3705	23712.94	3.8390	3.8390	1.1041	25.48	0.59	0.750			
0.3738	23923.16	3.8360	3.8361	1.1160	25.47	0.58	0.750			
0.3772	24140.59	3.8330	3.8328	1.1285	25.47	0.58	0.750			
0.3806	24357.45	3.8300	3.8300	1.1393	25.46	0.57	0.750	0.339	0.428	
0.3841	24579.70	3.8270	3.8271	1.1480	25.46	0.57	0.750			
0.3875	24803.09	3.8240	3.8241	1.1586	25.45	0.56	0.750			
0.3910	25026.77	3.8210	3.8210	1.1587	25.45	0.56	0.750			
0.3945	25247.00	3.8180	3.8180	1.1665	25.44	0.55	0.750			
0.3980	25471.64	3.8150	3.8150	1.1578	25.44	0.55	0.750			
0.4015	25697.07	3.8120	3.8118	1.1466	25.43	0.54	0.750			
0.4050	25916.94	3.8090	3.8091	1.1439	25.42	0.53	0.750			
0.4083	26133.97	3.8060	3.8063	1.1424	25.41	0.52	0.750			
0.4117	26345.96	3.8030	3.8029	1.1547	25.40	0.51	0.750			
0.4151	26567.34	3.8000	3.7999	1.1574	25.39	0.50	0.750			
0.4186	26791.86	3.7970	3.7970	1.1815	25.38	0.49	0.750			
0.4223	27027.74	3.7940	3.7941	1.2178	25.38	0.49	0.750			
0.4260	27266.55	3.7910	3.7910	1.2209	25.37	0.48	0.750			
0.4297	27499.81	3.7880	3.7880	1.2317	25.36	0.47	0.750			
0.4334	27735.46	3.7850	3.7851	1.2376	25.35	0.46	0.750			
0.4371	27972.49	3.7820	3.7821	1.2532	25.33	0.44	0.750			
0.4409	28214.63	3.7790	3.7788	1.2668	25.32	0.43	0.750			
0.4447	28459.65	3.7760	3.7760	1.2839	25.31	0.42	0.750			
0.4485	28706.53	3.7730	3.7731	1.3046	25.30	0.41	0.750			
0.4525	28960.70	3.7700	3.7700	1.3167	25.29	0.40	0.750			
0.4565	29213.06	3.7670	3.7670	1.3344	25.28	0.39	0.750			
0.4605	29469.83	3.7640	3.7641	1.3632	25.27	0.38	0.750			
0.4646	29732.17	3.7610	3.7607	1.3775	25.26	0.37	0.750			
0.4687	29997.10	3.7580	3.7581	1.4121	25.25	0.36	0.750			
0.4730	30270.31	3.7550	3.7551	1.4449	25.23	0.34	0.750			
0.4773	30549.90	3.7520	3.7517	1.4733	25.22	0.33	0.750			
0.4818	30834.18	3.7490	3.7493	1.5009	25.21	0.32	0.750			
0.4864	31127.16	3.7460	3.7459	1.5383	25.19	0.30	0.750			
0.4911	31428.81	3.7430	3.7426	1.5819	25.18	0.29	0.750			
0.4959	31737.93	3.7400	3.7397	1.6253	25.16	0.27	0.750			
0.5008	32054.40	3.7370	3.7371	1.6669	25.14	0.25	0.750			
0.5060	32381.83	3.7340	3.7342	1.7182	25.13	0.24	0.750			
0.5111	32712.23	3.7310	3.7311	1.7806	25.11	0.22	0.750			
0.5166	33060.19	3.7280	3.7282	1.8198	25.09	0.20	0.750			
0.5221	33417.30	3.7250	3.7252	1.8846	25.08	0.19	0.750			
0.5279	33786.72	3.7220	3.7218	1.9264	25.06	0.17	0.750			
0.5337	34159.84	3.7190	3.7186	1.9990	25.04	0.15	0.750			
0.5397	34542.43	3.7160	3.7161	2.0476	25.02	0.13	0.750			
0.5460	34944.74	3.7130	3.7127	2.1148	25.00	0.11	0.750			
0.5526	35363.90	3.7100	3.7101	2.1755	24.98	0.09	0.750			
0.5591	35782.09	3.7070	3.7072	2.2664	24.96	0.07	0.750			
0.5659	36216.84	3.7040	3.7042	2.3159	24.95	0.06	0.750			
0.5732	36682.88	3.7010	3.7011	2.3937	24.93	0.04	0.750			
0.5804	37148.60	3.6980	3.6979	2.4509	24.91	0.02	0.750			
0.5878	37620.49	3.6950	3.6951	2.5004	24.89	-0.00	0.750			
0.5953	38100.17	3.6920	3.6922	2.5723	24.87	-0.02	0.750			
0.6031	38601.16	3.6890	3.6891	2.6384	24.85	-0.04	0.750			
0.6112	39118.89	3.6860	3.6862	2.7166	24.83	-0.06	0.750			
0.6197	39660.73	3.6830	3.6829	2.7744	24.81	-0.08	0.750			
0.6283	40209.80	3.6800	3.6797	2.8429	24.80	-0.09	0.750			
0.6369	40758.79	3.6770	3.6768	2.9222	24.78	-0.11	0.750			
0.6459	41340.67	3.6740	3.6736	3.0083	24.77	-0.12	0.750			
0.6551	41928.07	3.6710	3.6708	3.0349	24.76	-0.13	0.750			
0.6643	42514.34	3.6680	3.6677	3.0171	24.76	-0.13	0.750			
0.6733	43093.74	3.6650	3.6648	2.9310	24.76	-0.13	0.750			
0.6820	43645.78	3.6620	3.6619	2.8798	24.76	-0.13	0.750			
0.6904	44186.62	3.6590	3.6594	2.7522	24.76	-0.13	0.750			
0.6986	44708.32	3.6560	3.6562	2.5552	24.77	-0.12	0.750			
0.7059	45175.04	3.6530	3.6531	2.2966	24.79	-0.10	0.750			
0.7125	45599.80	3.6500	3.6498	2.1003	24.80	-0.09	0.750			
0.7183	45969.93	3.6470	3.6470	1.8387	24.81	-0.08	0.750			
0.7235	46303.90	3.6440	3.6439	1.6251	24.81	-0.08	0.750			
0.7280	46590.73	3.6410	3.6411	1.4002	24.82	-0.07	0.750			
0.7318	46835.97	3.6380	3.6381	1.2164	24.83	-0.06	0.750			
0.7351	47046.15	3.6350	3.6351	1.0535	24.84	-0.05	0.750			
0.7378	47220.46	3.6320	3.6321	0.9363	24.85	-0.04	0.750			
0.7403	47379.89	3.6290	3.6288	0.8388	24.85	-0.04	0.750			
0.7427	47532.66	3.6260	3.6261	0.7911	24.86	-0.03	0.750			
0.7450	47678.08	3.6230	3.6231	0.7514	24.87	-0.02	0.750			
0.7472	47820.98	3.6200	3.6199	0.7244	24.87	-0.02	0.750			
0.7493	47956.92	3.6170	3.6170	0.6802	24.88	-0.01	0.750			
0.7514	48087.35	3.6140	3.6139	0.6436	24.89	-0.00	0.750			
0.7533	48209.04	3.6110	3.6110	0.5897	24.89	0.00	0.750			
0.7550	48320.85	3.6080	3.6081	0.5357	24.90	0.01	0.750			
0.7565	48419.15	3.6050	3.6049	0.4682	24.90	0.01	0.750			
0.7579	48503.09	3.6020	3.6019	0.3987	24.91	0.02	0.750			
0.7589	48571.08	3.5990	3.5990	0.3237	24.91	0.02	0.750			
0.7598	48626.45	3.5960	3.5960	0.2547	24.91	0.02	0.750			
0.7605	48668.88	3.5930	3.5929	0.1847	24.92	0.03	0.750			
0.7609	48697.67	3.5900	3.5899	0.1149	24.92	0.03	0.750			
