Ah_balance (normalized)	Ah_balance (mAh)	Voltage - fit (V)	Voltage -  interpolate (V)	dQ/dV (1/V)	Temperature (°C)	Temperature - diff (°C)	Current (C)	R_DC 0ms (mOhm)	R_DC 50ms (mOhm)	R_DC 50 ms PEC (mOhm)
0.0002	15.60	4.1620	4.1615	-0.1149	24.90	0.00	-0.750			
0.0006	41.33	4.1590	4.1587	-0.1535	24.90	0.00	-0.750			
0.0012	74.66	4.1560	4.1559	-0.1923	24.90	0.00	-0.750			
0.0018	115.77	4.1530	4.1532	-0.2292	24.90	-0.00	-0.750			
0.0025	162.93	4.1500	4.1500	-0.2677	24.90	-0.00	-0.750			
0.0034	218.06	4.1470	4.1471	-0.3077	24.90	-0.00	-0.750			
0.0044	280.97	4.1440	4.1439	-0.3458	24.89	-0.01	-0.750			
0.0055	350.55	4.1410	4.1410	-0.3853	24.89	-0.01	-0.750			
0.0067	429.04	4.1380	4.1381	-0.4229	24.89	-0.01	-0.750			
0.0080	514.67	4.1350	4.1349	-0.4563	24.88	-0.02	-0.750			
0.0095	606.45	4.1320	4.1321	-0.4868	24.88	-0.02	-0.750			
0.0110	704.20	4.1290	4.1290	-0.5110	24.88	-0.02	-0.750			
0.0126	805.08	4.1260	4.1258	-0.5341	24.87	-0.03	-0.750			
0.0142	911.32	4.1230	4.1234	-0.5557	24.87	-0.03	-0.750			
0.0159	1019.32	4.1200	4.1201	-0.5742	24.87	-0.03	-0.750			
0.0177	1132.40	4.1170	4.1169	-0.5930	24.87	-0.03	-0.750			
0.0195	1248.05	4.1140	4.1141	-0.6094	24.87	-0.03	-0.750			
0.0214	1367.01	4.1110	4.1109	-0.6210	24.86	-0.04	-0.750			
0.0232	1487.48	4.1080	4.1080	-0.6329	24.86	-0.04	-0.750			
0.0252	1610.74	4.1050	4.1050	-0.6417	24.86	-0.04	-0.750			
0.0271	1734.22	4.1020	4.1021	-0.6538	24.86	-0.04	-0.750			
0.0291	1861.40	4.0990	4.0989	-0.6610	24.86	-0.04	-0.750			
0.0311	1988.79	4.0960	4.0960	-0.6710	24.85	-0.05	-0.750			
0.0331	2118.94	4.0930	4.0931	-0.6794	24.85	-0.05	-0.750			
0.0352	2251.36	4.0900	4.0900	-0.6880	24.85	-0.05	-0.750			
0.0372	2383.83	4.0870	4.0869	-0.6918	24.84	-0.06	-0.750			
0.0393	2516.78	4.0840	4.0843	-0.7001	24.84	-0.06	-0.750			
0.0414	2651.85	4.0810	4.0810	-0.7018	24.84	-0.06	-0.750			
0.0436	2787.37	4.0780	4.0780	-0.7130	24.84	-0.06	-0.750			
0.0457	2925.01	4.0750	4.0750	-0.7146	24.85	-0.05	-0.750			
0.0479	3063.32	4.0720	4.0720	-0.7172	24.85	-0.05	-0.750			
0.0500	3201.34	4.0690	4.0689	-0.7179	24.85	-0.05	-0.750			
0.0522	3339.34	4.0660	4.0661	-0.7201	24.85	-0.05	-0.750			
0.0543	3476.49	4.0630	4.0630	-0.7234	24.85	-0.05	-0.750			
0.0565	3615.80	4.0600	4.0599	-0.7323	24.85	-0.05	-0.750			
0.0587	3756.31	4.0570	4.0569	-0.7274	24.84	-0.06	-0.750			
0.0609	3898.24	4.0540	4.0540	-0.7378	24.84	-0.06	-0.750			
0.0631	4039.77	4.0510	4.0512	-0.7429	24.84	-0.06	-0.750			
0.0654	4183.25	4.0480	4.0479	-0.7469	24.84	-0.06	-0.750			
0.0676	4326.68	4.0450	4.0449	-0.7469	24.85	-0.05	-0.750			
0.0698	4469.12	4.0420	4.0420	-0.7473	24.85	-0.05	-0.750			
0.0721	4614.25	4.0390	4.0391	-0.7496	24.85	-0.05	-0.750			
0.0744	4759.38	4.0360	4.0358	-0.7502	24.86	-0.04	-0.750			
0.0766	4901.37	4.0330	4.0331	-0.7495	24.86	-0.04	-0.750			
0.0788	5045.44	4.0300	4.0300	-0.7494	24.86	-0.04	-0.750			
0.0811	5188.34	4.0270	4.0270	-0.7560	24.86	-0.04	-0.750			
0.0834	5334.86	4.0240	4.0240	-0.7585	24.87	-0.03	-0.750			
0.0856	5480.50	4.0210	4.0209	-0.7593	24.87	-0.03	-0.750			
0.0879	5626.84	4.0180	4.0180	-0.7622	24.87	-0.03	-0.750			
0.0902	5773.03	4.0150	4.0150	-0.7626	24.87	-0.03	-0.750			
0.0925	5919.97	4.0120	4.0120	-0.7610	24.87	-0.03	-0.750			
0.0948	6065.96	4.0090	4.0089	-0.7680	24.87	-0.03	-0.750			
0.0971	6213.02	4.0060	4.0060	-0.7639	24.88	-0.02	-0.750			
0.0994	6360.56	4.0030	4.0030	-0.7698	24.88	-0.02	-0.750			
0.1017	6509.16	4.0000	4.0001	-0.7709	24.88	-0.02	-0.750			
0.1040	6656.76	3.9970	3.9971	-0.7715	24.88	-0.02	-0.750			
0.1063	6803.66	3.9940	3.9939	-0.7779	24.89	-0.01	-0.750			
0.1087	6953.65	3.9910	3.9910	-0.7820	24.89	-0.01	-0.750			
0.1110	7105.17	3.9880	3.9879	-0.7798	24.89	-0.01	-0.750			
0.1134	7256.54	3.9850	3.9849	-0.7841	24.90	-0.00	-0.750			
0.1157	7407.29	3.9820	3.9820	-0.7824	24.90	0.00	-0.750			
0.1181	7557.07	3.9790	3.9790	-0.7859	24.91	0.01	-0.750			
0.1204	7708.04	3.9760	3.9759	-0.7855	24.91	0.01	-0.750			
0.1228	7856.60	3.9730	3.9731	-0.7829	24.91	0.01	-0.750			
0.1251	8007.92	3.9700	3.9699	-0.7895	24.92	0.02	-0.750			
0.1275	8160.00	3.9670	3.9672	-0.7939	24.92	0.02	-0.750			
0.1299	8311.83	3.9640	3.9639	-0.7947	24.93	0.03	-0.750			
0.1323	8464.98	3.9610	3.9609	-0.7975	24.93	0.03	-0.750			
0.1347	8619.07	3.9580	3.9581	-0.7968	24.93	0.03	-0.750			
0.1371	8773.06	3.9550	3.9550	-0.8026	24.94	0.04	-0.750			
0.1395	8927.91	3.9520	3.9522	-0.8049	24.94	0.04	-0.750			
0.1419	9081.95	3.9490	3.9491	-0.8069	24.94	0.04	-0.750			
0.1443	9236.45	3.9460	3.9459	-0.8090	24.95	0.05	-0.750			
0.1468	9393.79	3.9430	3.9429	-0.8056	24.95	0.05	-0.750			
0.1492	9549.38	3.9400	3.9400	-0.8029	24.96	0.06	-0.750			
0.1516	9702.00	3.9370	3.9372	-0.8030	24.96	0.06	-0.750			
0.1540	9854.54	3.9340	3.9339	-0.8032	24.96	0.06	-0.750			
0.1564	10008.62	3.9310	3.9310	-0.8095	24.96	0.06	-0.750			
0.1588	10162.67	3.9280	3.9280	-0.8105	24.96	0.06	-0.750			
0.1613	10322.51	3.9250	3.9249	-0.8146	24.96	0.06	-0.750			
0.1637	10479.25	3.9220	3.9221	-0.8168	24.96	0.06	-0.750			
0.1662	10636.38	3.9190	3.9190	-0.8145	24.96	0.06	-0.750			
0.1686	10790.97	3.9160	3.9159	-0.8119	24.97	0.07	-0.750			
0.1710	10946.11	3.9130	3.9130	-0.8132	24.97	0.07	-0.750			
0.1735	11101.80	3.9100	3.9101	-0.8110	24.97	0.07	-0.750			
0.1759	11259.83	3.9070	3.9070	-0.8146	24.98	0.08	-0.750			
0.1784	11415.68	3.9040	3.9039	-0.8168	24.98	0.08	-0.750			
0.1808	11571.13	3.9010	3.9011	-0.8179	24.99	0.09	-0.750			
0.1833	11729.86	3.8980	3.8979	-0.8202	24.99	0.09	-0.750			
0.1858	11888.09	3.8950	3.8949	-0.8144	24.99	0.09	-0.750			
0.1882	12046.08	3.8920	3.8921	-0.8145	25.00	0.10	-0.750			
0.1907	12202.96	3.8890	3.8889	-0.8124	25.00	0.10	-0.750			
0.1931	12356.81	3.8860	3.8860	-0.8122	25.01	0.11	-0.750			
0.1955	12511.12	3.8830	3.8829	-0.8110	25.01	0.11	-0.750			
0.1979	12665.04	3.8800	3.8801	-0.8101	25.01	0.11	-0.750			
0.2004	12825.14	3.8770	3.8769	-0.8171	25.02	0.12	-0.750			
0.2029	12982.74	3.8740	3.8740	-0.8159	25.02	0.12	-0.750			
0.2053	13137.91	3.8710	3.8710	-0.8186	25.03	0.13	-0.750			
0.2078	13296.69	3.8680	3.8680	-0.8110	25.03	0.13	-0.750			
0.2102	13451.84	3.8650	3.8649	-0.8014	25.03	0.13	-0.750			
0.2126	13607.22	3.8620	3.8619	-0.7951	25.04	0.14	-0.750			
0.2150	13759.31	3.8590	3.8590	-0.7877	25.04	0.14	-0.750			
0.2173	13907.08	3.8560	3.8560	-0.7868	25.05	0.15	-0.750			
0.2196	14056.00	3.8530	3.8530	-0.7846	25.05	0.15	-0.750			
0.2220	14206.90	3.8500	3.8499	-0.7719	25.05	0.15	-0.750			
0.2243	14357.47	3.8470	3.8470	-0.7780	25.06	0.16	-0.750			
0.2267	14506.58	3.8440	3.8444	-0.7782	25.06	0.16	-0.750			
0.2290	14655.25	3.8410	3.8408	-0.7786	25.06	0.16	-0.750			
0.2313	14803.16	3.8380	3.8379	-0.7781	25.07	0.17	-0.750			
0.2336	14952.43	3.8350	3.8351	-0.7781	25.07	0.17	-0.750			
0.2360	15105.34	3.8320	3.8319	-0.7779	25.08	0.18	-0.750			
0.2384	15256.76	3.8290	3.8289	-0.7767	25.08	0.18	-0.750			
0.2407	15402.45	3.8260	3.8260	-0.7674	25.08	0.18	-0.750			
0.2430	15549.02	3.8230	3.8230	-0.7620	25.09	0.19	-0.750			
0.2452	15693.39	3.8200	3.8199	-0.7577	25.09	0.19	-0.750			
0.2475	15838.89	3.8170	3.8170	-0.7574	25.10	0.20	-0.750			
0.2498	15986.11	3.8140	3.8140	-0.7585	25.11	0.21	-0.750			
0.2521	16131.58	3.8110	3.8111	-0.7607	25.11	0.21	-0.750			
0.2543	16277.16	3.8080	3.8081	-0.7591	25.11	0.21	-0.750			
0.2566	16423.55	3.8050	3.8049	-0.7591	25.11	0.21	-0.750			
0.2589	16568.81	3.8020	3.8020	-0.7609	25.12	0.22	-0.750			
0.2612	16715.24	3.7990	3.7990	-0.7619	25.12	0.22	-0.750			
0.2635	16861.58	3.7960	3.7960	-0.7610	25.12	0.22	-0.750			
0.2657	17007.72	3.7930	3.7929	-0.7639	25.12	0.22	-0.750			
0.2680	17153.78	3.7900	3.7900	-0.7618	25.13	0.23	-0.750			
0.2703	17301.68	3.7870	3.7870	-0.7683	25.13	0.23	-0.750			
0.2727	17449.68	3.7840	3.7839	-0.7695	25.13	0.23	-0.750			
0.2750	17597.50	3.7810	3.7810	-0.7742	25.14	0.24	-0.750			
0.2773	17747.16	3.7780	3.7781	-0.7777	25.14	0.24	-0.750			
0.2796	17895.91	3.7750	3.7749	-0.7835	25.14	0.24	-0.750			
0.2820	18047.20	3.7720	3.7720	-0.7820	25.14	0.24	-0.750			
0.2843	18197.12	3.7690	3.7691	-0.7745	25.15	0.25	-0.750			
0.2867	18349.10	3.7660	3.7660	-0.7827	25.15	0.25	-0.750			
0.2890	18497.40	3.7630	3.7632	-0.7826	25.15	0.25	-0.750			
0.2913	18645.07	3.7600	3.7599	-0.7908	25.15	0.25	-0.750			
0.2937	18795.85	3.7570	3.7570	-0.8079	25.16	0.26	-0.750			
0.2962	18954.41	3.7540	3.7539	-0.8162	25.16	0.26	-0.750			
0.2987	19117.18	3.7510	3.7509	-0.8325	25.17	0.27	-0.750			
0.3012	19278.04	3.7480	3.7483	-0.8366	25.17	0.27	-0.750			
0.3037	19437.10	3.7450	3.7449	-0.8445	25.17	0.27	-0.750			
0.3062	19599.49	3.7420	3.7420	-0.8534	25.17	0.27	-0.750			
0.3088	19763.92	3.7390	3.7389	-0.8586	25.16	0.26	-0.750			
0.3114	19931.78	3.7360	3.7359	-0.8690	25.16	0.26	-0.750			
0.3140	20097.14	3.7330	3.7335	-0.8851	25.16	0.26	-0.750			
0.3167	20266.48	3.7300	3.7299	-0.8971	25.16	0.26	-0.750			
0.3194	20439.49	3.7270	3.7269	-0.9054	25.16	0.26	-0.750			
0.3221	20613.77	3.7240	3.7240	-0.9178	25.16	0.26	-0.750			
0.3249	20794.54	3.7210	3.7211	-0.9373	25.16	0.26	-0.750			
0.3277	20974.87	3.7180	3.7181	-0.9419	25.16	0.26	-0.750			
0.3306	21157.01	3.7150	3.7149	-0.9646	25.15	0.25	-0.750			
0.3335	21343.29	3.7120	3.7118	-0.9606	25.15	0.25	-0.750			
0.3364	21528.69	3.7090	3.7089	-0.9731	25.14	0.24	-0.750			
0.3393	21715.82	3.7060	3.7065	-0.9866	25.14	0.24	-0.750			
0.3423	21905.97	3.7030	3.7030	-0.9995	25.14	0.24	-0.750			
0.3453	22099.34	3.7000	3.6998	-1.0068	25.14	0.24	-0.750			
0.3483	22289.70	3.6970	3.6970	-1.0136	25.14	0.24	-0.750	0.383	0.533	
0.3514	22487.49	3.6940	3.6942	-1.0387	25.14	0.24	-0.750			
0.3545	22689.29	3.6910	3.6910	-1.0583	25.14	0.24	-0.750			
0.3577	22892.89	3.6880	3.6879	-1.0733	25.14	0.24	-0.750			
0.3610	23101.04	3.6850	3.6850	-1.0883	25.13	0.23	-0.750			
0.3642	23308.23	3.6820	3.6821	-1.1199	25.13	0.23	-0.750			
0.3677	23532.02	3.6790	3.6789	-1.1363	25.13	0.23	-0.750			
0.3711	23751.53	3.6760	3.6759	-1.1491	25.12	0.22	-0.750			
0.3746	23973.08	3.6730	3.6729	-1.1626	25.12	0.22	-0.750			
0.3781	24197.47	3.6700	3.6701	-1.1864	25.12	0.22	-0.750			
0.3817	24427.55	3.6670	3.6668	-1.2005	25.11	0.21	-0.750			
0.3853	24659.12	3.6640	3.6639	-1.2112	25.11	0.21	-0.750			
0.3889	24889.17	3.6610	3.6613	-1.2225	25.10	0.20	-0.750			
0.3927	25132.16	3.6580	3.6579	-1.2544	25.10	0.20	-0.750			
0.3965	25373.91	3.6550	3.6550	-1.2664	25.09	0.19	-0.750			
0.4002	25615.73	3.6520	3.6519	-1.3017	25.09	0.19	-0.750			
0.4042	25870.66	3.6490	3.6490	-1.3264	25.09	0.19	-0.750			
0.4083	26130.94	3.6460	3.6458	-1.3356	25.08	0.18	-0.750			
0.4123	26387.89	3.6430	3.6430	-1.3582	25.08	0.18	-0.750			
0.4164	26646.60	3.6400	3.6401	-1.3831	25.08	0.18	-0.750			
0.4205	26914.78	3.6370	3.6368	-1.4063	25.07	0.17	-0.750			
0.4248	27185.67	3.6340	3.6339	-1.4549	25.06	0.16	-0.750			
0.4292	27466.55	3.6310	3.6311	-1.4741	25.06	0.16	-0.750			
0.4339	27767.96	3.6280	3.6278	-1.5302	25.05	0.15	-0.750			
0.4385	28064.83	3.6250	3.6253	-1.5656	25.04	0.14	-0.750			
0.4433	28368.11	3.6220	3.6217	-1.5652	25.03	0.13	-0.750			
0.4480	28672.21	3.6190	3.6193	-1.5957	25.03	0.13	-0.750			
0.4528	28981.06	3.6160	3.6160	-1.6151	25.02	0.12	-0.750			
0.4576	29288.80	3.6130	3.6130	-1.6557	25.02	0.12	-0.750			
0.4627	29614.70	3.6100	3.6102	-1.6667	25.02	0.12	-0.750			
0.4677	29935.24	3.6070	3.6069	-1.6930	25.01	0.11	-0.750			
0.4729	30267.16	3.6040	3.6039	-1.7747	25.01	0.11	-0.750			
0.4783	30612.49	3.6010	3.6007	-1.7883	25.00	0.10	-0.750			
0.4837	30959.00	3.5980	3.5980	-1.8157	25.00	0.10	-0.750			
0.4893	31313.62	3.5950	3.5953	-1.8500	25.00	0.10	-0.750			
0.4948	31666.30	3.5920	3.5920	-1.8796	24.99	0.09	-0.750			
0.5003	32020.41	3.5890	3.5888	-1.9000	24.98	0.08	-0.750			
0.5062	32399.91	3.5860	3.5859	-1.9159	24.98	0.08	-0.750			
0.5120	32770.88	3.5830	3.5831	-1.9595	24.98	0.08	-0.750			
0.5180	33152.82	3.5800	3.5799	-1.9624	24.98	0.08	-0.750			
0.5240	33535.48	3.5770	3.5768	-2.0123	24.98	0.08	-0.750			
0.5300	33919.38	3.5740	3.5738	-2.0305	24.98	0.08	-0.750			
0.5361	34311.23	3.5710	3.5708	-2.0473	24.98	0.08	-0.750			
0.5423	34708.63	3.5680	3.5682	-2.0689	24.98	0.08	-0.750			
0.5486	35108.95	3.5650	3.5652	-2.0546	24.98	0.08	-0.750			
0.5548	35504.92	3.5620	3.5623	-2.0534	24.99	0.09	-0.750			
0.5609	35899.99	3.5590	3.5592	-2.0395	24.99	0.09	-0.750			
0.5671	36293.18	3.5560	3.5557	-2.0193	25.00	0.10	-0.750			
0.5731	36677.20	3.5530	3.5528	-2.0253	25.00	0.10	-0.750			
0.5792	37069.20	3.5500	3.5496	-2.0004	25.00	0.10	-0.750			
0.5853	37460.45	3.5470	3.5468	-1.9799	25.01	0.11	-0.750			
0.5913	37840.87	3.5440	3.5443	-1.9525	25.01	0.11	-0.750			
0.5971	38214.16	3.5410	3.5412	-1.9478	25.02	0.12	-0.750			
0.6029	38584.40	3.5380	3.5380	-1.9143	25.02	0.12	-0.750			
0.6085	38943.79	3.5350	3.5349	-1.8855	25.03	0.13	-0.750			
0.6142	39311.09	3.5320	3.5322	-1.8649	25.03	0.13	-0.750			
0.6196	39655.76	3.5290	3.5292	-1.8234	25.04	0.14	-0.750			
0.6252	40015.19	3.5260	3.5260	-1.7870	25.06	0.16	-0.750			
0.6305	40354.70	3.5230	3.5228	-1.7685	25.07	0.17	-0.750			
0.6359	40695.16	3.5200	3.5199	-1.7316	25.08	0.18	-0.750			
0.6409	41019.89	3.5170	3.5169	-1.6837	25.09	0.19	-0.750			
0.6460	41342.38	3.5140	3.5139	-1.6344	25.11	0.21	-0.750			
0.6508	41651.90	3.5110	3.5112	-1.5876	25.12	0.22	-0.750			
0.6555	41949.03	3.5080	3.5082	-1.5628	25.14	0.24	-0.750			
0.6602	42250.97	3.5050	3.5047	-1.5478	25.15	0.25	-0.750			
0.6647	42542.65	3.5020	3.5019	-1.4764	25.17	0.27	-0.750			
0.6691	42825.50	3.4990	3.4994	-1.4252	25.18	0.28	-0.750			
0.6734	43096.75	3.4960	3.4959	-1.3882	25.19	0.29	-0.750			
0.6776	43363.90	3.4930	3.4932	-1.3498	25.20	0.30	-0.750			
0.6814	43610.78	3.4900	3.4897	-1.2959	25.22	0.32	-0.750			
0.6852	43852.42	3.4870	3.4869	-1.2706	25.23	0.33	-0.750			
0.6888	44085.38	3.4840	3.4842	-1.2987	25.25	0.35	-0.750			
0.6927	44335.48	3.4810	3.4809	-1.2460	25.26	0.36	-0.750			
