Ah_balance (normalized)	Ah_balance (mAh)	Voltage - fit (V)	Voltage -  interpolate (V)	dQ/dV (1/V)	Temperature (°C)	Temperature - diff (°C)	Current (C)	R_DC 0ms (mOhm)	R_DC 50ms (mOhm)	R_DC 50 ms PEC (mOhm)
0.0491	3139.46	4.1960	4.1961	0.7536	25.79	0.49	0.750			
0.0513	3283.45	4.1930	4.1930	0.7519	25.79	0.49	0.750			
0.0536	3428.08	4.1900	4.1900	0.7542	25.79	0.49	0.750			
0.0559	3575.24	4.1870	4.1870	0.7497	25.79	0.49	0.750			
0.0581	3717.80	4.1840	4.1840	0.7515	25.79	0.49	0.750			
0.0603	3861.99	4.1810	4.1811	0.7525	25.79	0.49	0.750			
0.0626	4006.41	4.1780	4.1781	0.7515	25.79	0.49	0.750			
0.0648	4149.69	4.1750	4.1748	0.7539	25.79	0.49	0.750			
0.0671	4294.61	4.1720	4.1721	0.7569	25.79	0.49	0.750			
0.0694	4442.68	4.1690	4.1690	0.7541	25.79	0.49	0.750			
0.0717	4586.79	4.1660	4.1660	0.7603	25.80	0.50	0.750			
0.0739	4732.33	4.1630	4.1632	0.7568	25.80	0.50	0.750			
0.0762	4877.65	4.1600	4.1598	0.7627	25.80	0.50	0.750			
0.0785	5025.00	4.1570	4.1571	0.7656	25.80	0.50	0.750			
0.0808	5172.07	4.1540	4.1540	0.7623	25.80	0.50	0.750			
0.0831	5319.00	4.1510	4.1511	0.7667	25.80	0.50	0.750			
0.0854	5468.31	4.1480	4.1480	0.7733	25.81	0.51	0.750			
0.0877	5613.89	4.1450	4.1450	0.7687	25.81	0.51	0.750			
0.0900	5762.26	4.1420	4.1420	0.7721	25.81	0.51	0.750			
0.0923	5909.97	4.1390	4.1390	0.7733	25.81	0.51	0.750			
0.0947	6061.87	4.1360	4.1360	0.7680	25.81	0.51	0.750			
0.0970	6207.37	4.1330	4.1331	0.7704	25.81	0.51	0.750			
0.0993	6353.18	4.1300	4.1301	0.7702	25.81	0.51	0.750			
0.1016	6501.60	4.1270	4.1266	0.7731	25.81	0.51	0.750			
0.1039	6649.42	4.1240	4.1241	0.7769	25.81	0.51	0.750			
0.1063	6804.51	4.1210	4.1210	0.7643	25.81	0.51	0.750			
0.1086	6950.48	4.1180	4.1181	0.7747	25.82	0.52	0.750			
0.1109	7096.67	4.1150	4.1151	0.7707	25.82	0.52	0.750			
0.1132	7243.16	4.1120	4.1122	0.7782	25.82	0.52	0.750			
0.1155	7391.07	4.1090	4.1089	0.7865	25.82	0.52	0.750			
0.1179	7544.90	4.1060	4.1062	0.7923	25.82	0.52	0.750			
0.1203	7700.11	4.1030	4.1031	0.8008	25.82	0.52	0.750			
0.1228	7857.79	4.1000	4.1000	0.8026	25.83	0.53	0.750			
0.1252	8010.05	4.0970	4.0970	0.7883	25.83	0.53	0.750			
0.1275	8160.50	4.0940	4.0941	0.7936	25.83	0.53	0.750			
0.1299	8312.41	4.0910	4.0910	0.7960	25.83	0.53	0.750			
0.1323	8465.04	4.0880	4.0880	0.7908	25.83	0.53	0.750			
0.1346	8617.07	4.0850	4.0850	0.7966	25.83	0.53	0.750			
0.1370	8769.69	4.0820	4.0821	0.7996	25.83	0.53	0.750			
0.1394	8924.17	4.0790	4.0784	0.8033	25.83	0.53	0.750			
0.1419	9079.14	4.0760	4.0760	0.8036	25.83	0.53	0.750			
0.1443	9235.10	4.0730	4.0729	0.7872	25.84	0.54	0.750			
0.1466	9384.26	4.0700	4.0701	0.8034	25.84	0.54	0.750			
0.1491	9539.27	4.0670	4.0671	0.8091	25.85	0.55	0.750			
0.1514	9692.23	4.0640	4.0636	0.8057	25.85	0.55	0.750			
0.1539	9847.68	4.0610	4.0611	0.8135	25.85	0.55	0.750			
0.1563	10004.55	4.0580	4.0582	0.8190	25.85	0.55	0.750			
0.1588	10163.48	4.0550	4.0550	0.8251	25.85	0.55	0.750			
0.1613	10322.78	4.0520	4.0519	0.8208	25.85	0.55	0.750			
0.1637	10477.84	4.0490	4.0490	0.8500	25.85	0.55	0.750			
0.1663	10642.73	4.0460	4.0460	0.8687	25.85	0.55	0.750			
0.1690	10815.77	4.0430	4.0427	0.8719	25.86	0.56	0.750			
0.1717	10986.83	4.0400	4.0403	0.8803	25.86	0.56	0.750			
0.1743	11158.25	4.0370	4.0371	0.8770	25.87	0.57	0.750			
0.1770	11326.06	4.0340	4.0338	0.8676	25.87	0.57	0.750			
0.1796	11491.63	4.0310	4.0309	0.8544	25.87	0.57	0.750			
0.1820	11649.48	4.0280	4.0281	0.8427	25.87	0.57	0.750			
0.1846	11812.85	4.0250	4.0250	0.8471	25.87	0.57	0.750			
0.1871	11974.37	4.0220	4.0221	0.8451	25.87	0.57	0.750			
0.1896	12136.04	4.0190	4.0189	0.8476	25.87	0.57	0.750			
0.1922	12300.65	4.0160	4.0160	0.8513	25.87	0.57	0.750			
0.1948	12464.01	4.0130	4.0130	0.8581	25.87	0.57	0.750			
0.1973	12629.48	4.0100	4.0100	0.8657	25.87	0.57	0.750			
0.2000	12797.00	4.0070	4.0070	0.8659	25.87	0.57	0.750			
0.2026	12963.88	4.0040	4.0041	0.8686	25.87	0.57	0.750			
0.2052	13132.68	4.0010	4.0010	0.8635	25.87	0.57	0.750			
0.2078	13298.29	3.9980	3.9981	0.8649	25.87	0.57	0.750			
0.2104	13463.30	3.9950	3.9950	0.8662	25.87	0.57	0.750			
0.2129	13627.98	3.9920	3.9921	0.8652	25.87	0.57	0.750			
0.2155	13794.25	3.9890	3.9891	0.8687	25.87	0.57	0.750			
0.2182	13963.74	3.9860	3.9860	0.8720	25.87	0.57	0.750			
0.2208	14130.18	3.9830	3.9830	0.8775	25.87	0.57	0.750			
0.2234	14300.52	3.9800	3.9801	0.8827	25.87	0.57	0.750			
0.2261	14468.67	3.9770	3.9768	0.8801	25.87	0.57	0.750			
0.2287	14638.27	3.9740	3.9741	0.8812	25.87	0.57	0.750			
0.2314	14807.83	3.9710	3.9711	0.8800	25.87	0.57	0.750			
0.2340	14976.67	3.9680	3.9680	0.8815	25.87	0.57	0.750			
0.2367	15146.06	3.9650	3.9650	0.8882	25.87	0.57	0.750			
0.2393	15314.98	3.9620	3.9618	0.8865	25.87	0.57	0.750			
0.2420	15487.39	3.9590	3.9590	0.8892	25.87	0.57	0.750			
0.2447	15658.27	3.9560	3.9561	0.8932	25.87	0.57	0.750			
0.2474	15831.66	3.9530	3.9530	0.8937	25.87	0.57	0.750			
0.2500	16002.99	3.9500	3.9501	0.8938	25.87	0.57	0.750			
0.2527	16172.70	3.9470	3.9470	0.8905	25.87	0.57	0.750			
0.2554	16344.16	3.9440	3.9440	0.8850	25.87	0.57	0.750			
0.2580	16513.79	3.9410	3.9410	0.8905	25.87	0.57	0.750			
0.2607	16684.08	3.9380	3.9380	0.8922	25.87	0.57	0.750			
0.2634	16855.65	3.9350	3.9350	0.8925	25.87	0.57	0.750			
0.2661	17028.30	3.9320	3.9321	0.8963	25.87	0.57	0.750			
0.2688	17200.23	3.9290	3.9290	0.8922	25.87	0.57	0.750			
0.2714	17372.67	3.9260	3.9260	0.8919	25.87	0.57	0.750			
0.2741	17543.68	3.9230	3.9231	0.8945	25.87	0.57	0.750			
0.2768	17712.77	3.9200	3.9199	0.8899	25.87	0.57	0.750			
0.2795	17885.29	3.9170	3.9170	0.8862	25.87	0.57	0.750			
0.2821	18054.94	3.9140	3.9140	0.8876	25.86	0.56	0.750			
0.2848	18225.05	3.9110	3.9111	0.8903	25.86	0.56	0.750			
0.2874	18396.46	3.9080	3.9080	0.8938	25.85	0.55	0.750			
0.2901	18567.55	3.9050	3.9051	0.8945	25.85	0.55	0.750			
0.2928	18739.84	3.9020	3.9020	0.8919	25.84	0.54	0.750			
0.2955	18911.68	3.8990	3.8990	0.8940	25.84	0.54	0.750			
0.2982	19084.37	3.8960	3.8960	0.8928	25.83	0.53	0.750			
0.3008	19253.42	3.8930	3.8930	0.8906	25.82	0.52	0.750			
0.3035	19424.43	3.8900	3.8900	0.8914	25.82	0.52	0.750			
0.3062	19595.47	3.8870	3.8870	0.8877	25.81	0.51	0.750			
0.3088	19765.86	3.8840	3.8840	0.8900	25.80	0.50	0.750			
0.3115	19937.10	3.8810	3.8811	0.8980	25.80	0.50	0.750			
0.3142	20109.04	3.8780	3.8778	0.8992	25.79	0.49	0.750			
0.3169	20283.22	3.8750	3.8750	0.8995	25.79	0.49	0.750			
0.3196	20455.16	3.8720	3.8721	0.9018	25.78	0.48	0.750			
0.3223	20629.67	3.8690	3.8690	0.9068	25.78	0.48	0.750			
0.3251	20804.26	3.8660	3.8660	0.9108	25.77	0.47	0.750			
0.3278	20977.06	3.8630	3.8629	0.9111	25.77	0.47	0.750			
0.3305	21152.62	3.8600	3.8601	0.9085	25.76	0.46	0.750			
0.3332	21327.83	3.8570	3.8571	0.9147	25.75	0.45	0.750			
0.3360	21503.01	3.8540	3.8540	0.9209	25.74	0.44	0.750			
0.3388	21680.24	3.8510	3.8509	0.9225	25.73	0.43	0.750			
0.3415	21856.35	3.8480	3.8480	0.9231	25.72	0.42	0.750			
0.3443	22032.63	3.8450	3.8451	0.9331	25.72	0.42	0.750			
0.3471	22213.60	3.8420	3.8421	0.9418	25.71	0.41	0.750			
0.3500	22397.03	3.8390	3.8391	0.9503	25.70	0.40	0.750	0.321	0.452	
0.3528	22578.09	3.8360	3.8361	0.9535	25.70	0.40	0.750			
0.3557	22762.09	3.8330	3.8331	0.9564	25.69	0.39	0.750			
0.3585	22946.98	3.8300	3.8300	0.9666	25.68	0.38	0.750			
0.3614	23130.57	3.8270	3.8270	0.9644	25.68	0.38	0.750			
0.3643	23316.88	3.8240	3.8238	0.9725	25.67	0.37	0.750			
0.3673	23504.93	3.8210	3.8211	0.9808	25.66	0.36	0.750			
0.3702	23693.52	3.8180	3.8180	0.9887	25.65	0.35	0.750			
0.3732	23884.26	3.8150	3.8150	0.9996	25.63	0.33	0.750			
0.3762	24077.20	3.8120	3.8118	1.0052	25.62	0.32	0.750			
0.3792	24270.08	3.8090	3.8090	1.0123	25.61	0.31	0.750			
0.3823	24466.22	3.8060	3.8060	1.0252	25.61	0.31	0.750			
0.3854	24663.02	3.8030	3.8031	1.0390	25.60	0.30	0.750			
0.3885	24863.70	3.8000	3.7999	1.0509	25.59	0.29	0.750			
0.3917	25065.64	3.7970	3.7970	1.0569	25.58	0.28	0.750			
0.3948	25267.77	3.7940	3.7940	1.0774	25.57	0.27	0.750			
0.3981	25476.92	3.7910	3.7911	1.0975	25.56	0.26	0.750			
0.4014	25690.97	3.7880	3.7877	1.1099	25.54	0.24	0.750			
0.4048	25904.67	3.7850	3.7851	1.1265	25.53	0.23	0.750			
0.4081	26121.42	3.7820	3.7821	1.1502	25.52	0.22	0.750			
0.4116	26344.76	3.7790	3.7790	1.1751	25.51	0.21	0.750			
0.4152	26571.33	3.7760	3.7760	1.1843	25.50	0.20	0.750			
0.4188	26800.88	3.7730	3.7731	1.2059	25.49	0.19	0.750			
0.4224	27036.68	3.7700	3.7701	1.2309	25.48	0.18	0.750			
0.4262	27277.01	3.7670	3.7669	1.2443	25.47	0.17	0.750			
0.4299	27513.69	3.7640	3.7640	1.2670	25.46	0.16	0.750			
0.4337	27757.86	3.7610	3.7611	1.2918	25.45	0.15	0.750			
0.4377	28010.48	3.7580	3.7579	1.3120	25.44	0.14	0.750			
0.4416	28264.26	3.7550	3.7550	1.3495	25.42	0.12	0.750			
0.4457	28524.67	3.7520	3.7521	1.3789	25.40	0.10	0.750			
0.4499	28794.03	3.7490	3.7490	1.4056	25.39	0.09	0.750			
0.4542	29070.12	3.7460	3.7460	1.4384	25.37	0.07	0.750			
0.4585	29344.03	3.7430	3.7431	1.4694	25.36	0.06	0.750			
0.4629	29628.66	3.7400	3.7401	1.5181	25.35	0.05	0.750			
0.4676	29923.46	3.7370	3.7371	1.5507	25.34	0.04	0.750			
0.4723	30227.89	3.7340	3.7339	1.5956	25.32	0.02	0.750			
0.4771	30537.25	3.7310	3.7310	1.6535	25.30	-0.00	0.750			
0.4822	30863.67	3.7280	3.7280	1.6981	25.29	-0.01	0.750			
0.4874	31191.29	3.7250	3.7251	1.7303	25.28	-0.02	0.750			
0.4926	31526.44	3.7220	3.7221	1.7795	25.27	-0.03	0.750			
0.4980	31871.42	3.7190	3.7190	1.8244	25.26	-0.04	0.750			
0.5035	32224.78	3.7160	3.7160	1.8814	25.25	-0.05	0.750			
0.5094	32598.41	3.7130	3.7130	1.9264	25.23	-0.07	0.750			
0.5151	32967.03	3.7100	3.7100	2.0000	25.22	-0.08	0.750			
0.5213	33360.24	3.7070	3.7069	2.0479	25.21	-0.09	0.750			
0.5274	33755.88	3.7040	3.7038	2.0973	25.20	-0.10	0.750			
0.5339	34166.65	3.7010	3.7011	2.1637	25.19	-0.11	0.750			
0.5404	34587.21	3.6980	3.6980	2.2227	25.18	-0.12	0.750			
0.5471	35015.40	3.6950	3.6952	2.2834	25.17	-0.13	0.750			
0.5543	35473.59	3.6920	3.6918	2.3531	25.16	-0.14	0.750			
0.5614	35927.81	3.6890	3.6890	2.4156	25.14	-0.16	0.750			
0.5686	36391.62	3.6860	3.6861	2.4586	25.14	-0.16	0.750			
0.5761	36868.30	3.6830	3.6832	2.4651	25.13	-0.17	0.750			
0.5836	37349.49	3.6800	3.6798	2.4707	25.12	-0.18	0.750			
0.5911	37828.33	3.6770	3.6768	2.4775	25.12	-0.18	0.750			
0.5986	38307.33	3.6740	3.6740	2.4077	25.13	-0.17	0.750			
0.6055	38754.43	3.6710	3.6713	2.3159	25.13	-0.17	0.750			
0.6125	39201.87	3.6680	3.6679	2.1450	25.13	-0.17	0.750			
0.6185	39583.97	3.6650	3.6651	1.9507	25.13	-0.17	0.750			
0.6241	39945.05	3.6620	3.6618	1.7793	25.14	-0.16	0.750			
0.6291	40263.05	3.6590	3.6587	1.6733	25.15	-0.15	0.750			
0.6337	40558.41	3.6560	3.6562	1.5775	25.16	-0.14	0.750			
0.6383	40852.24	3.6530	3.6532	1.4937	25.17	-0.13	0.750			
0.6429	41145.15	3.6500	3.6502	1.4407	25.18	-0.12	0.750			
0.6472	41419.11	3.6470	3.6472	1.3581	25.19	-0.11	0.750			
0.6511	41671.42	3.6440	3.6440	1.2718	25.20	-0.10	0.750			
0.6547	41898.24	3.6410	3.6410	1.1664	25.20	-0.10	0.750			
0.6581	42116.00	3.6380	3.6380	1.1092	25.21	-0.09	0.750			
0.6612	42319.14	3.6350	3.6350	1.0593	25.22	-0.08	0.750			
0.6643	42517.45	3.6320	3.6317	1.0184	25.22	-0.08	0.750			
0.6674	42711.34	3.6290	3.6289	0.9643	25.23	-0.07	0.750			
0.6702	42891.36	3.6260	3.6261	0.9326	25.24	-0.06	0.750			
0.6729	43064.96	3.6230	3.6230	0.9026	25.25	-0.05	0.750			
0.6756	43235.60	3.6200	3.6202	0.8696	25.26	-0.04	0.750			
0.6781	43398.43	3.6170	3.6172	0.8261	25.27	-0.03	0.750			
0.6805	43553.46	3.6140	3.6141	0.7862	25.28	-0.02	0.750			
0.6829	43704.41	3.6110	3.6111	0.7428	25.28	-0.02	0.750			
0.6851	43844.67	3.6080	3.6079	0.6951	25.29	-0.01	0.750			
0.6871	43972.50	3.6050	3.6050	0.6380	25.29	-0.01	0.750			
0.6889	44088.68	3.6020	3.6020	0.5875	25.30	-0.00	0.750			
0.6906	44197.58	3.5990	3.5990	0.5393	25.30	0.00	0.750			
0.6921	44296.59	3.5960	3.5960	0.4921	25.31	0.01	0.750			
0.6936	44387.71	3.5930	3.5929	0.4341	25.31	0.01	0.750			
0.6948	44464.44	3.5900	3.5900	0.3894	25.31	0.01	0.750			
0.6958	44533.23	3.5870	3.5871	0.3381	25.32	0.02	0.750			
0.6968	44593.34	3.5840	3.5820	0.2906	25.32	0.02	0.750			
0.6975	44643.17	3.5810	3.5812	0.2432	25.32	0.02	0.750			
0.6982	44685.69	3.5780	3.5784	0.2011	25.32	0.02	0.750			
0.6987	44719.80	3.5750	3.5756	0.1622	25.32	0.02	0.750			
0.6992	44745.61	3.5720	3.5723	0.0508	25.32	0.02	0.750			
