Ah_balance (normalized)	Ah_balance (mAh)	Voltage - fit (V)	Voltage -  interpolate (V)	dQ/dV (1/V)	Temperature (°C)	Temperature - diff (°C)	Current (C)	R_DC 0ms (mOhm)	R_DC 50ms (mOhm)	R_DC 50 ms PEC (mOhm)
0.0004	22.63	4.1620	4.1617	-0.1303	25.09	0.01	-0.750			
0.0008	50.93	4.1590	4.1590	-0.1709	25.09	0.01	-0.750			
0.0014	89.21	4.1560	4.1560	-0.2146	25.09	0.01	-0.750			
0.0021	135.08	4.1530	4.1530	-0.2531	25.08	0.00	-0.750			
0.0029	187.49	4.1500	4.1500	-0.2919	25.08	0.00	-0.750			
0.0039	247.75	4.1470	4.1471	-0.3315	25.08	0.00	-0.750			
0.0049	314.51	4.1440	4.1440	-0.3705	25.08	-0.00	-0.750			
0.0061	390.17	4.1410	4.1410	-0.4063	25.08	-0.00	-0.750			
0.0074	472.21	4.1380	4.1379	-0.4376	25.07	-0.01	-0.750			
0.0087	559.46	4.1350	4.1351	-0.4704	25.07	-0.01	-0.750			
0.0102	653.75	4.1320	4.1321	-0.5041	25.07	-0.01	-0.750			
0.0118	754.78	4.1290	4.1289	-0.5285	25.06	-0.02	-0.750			
0.0134	859.62	4.1260	4.1259	-0.5528	25.06	-0.02	-0.750			
0.0151	969.35	4.1230	4.1229	-0.5699	25.05	-0.03	-0.750			
0.0169	1082.44	4.1200	4.1205	-0.5910	25.05	-0.03	-0.750			
0.0187	1197.25	4.1170	4.1168	-0.6036	25.04	-0.04	-0.750			
0.0205	1312.24	4.1140	4.1141	-0.6178	25.04	-0.04	-0.750			
0.0224	1432.55	4.1110	4.1109	-0.6327	25.04	-0.04	-0.750			
0.0243	1555.57	4.1080	4.1080	-0.6478	25.03	-0.05	-0.750			
0.0263	1683.54	4.1050	4.1049	-0.6605	25.03	-0.05	-0.750			
0.0283	1812.75	4.1020	4.1020	-0.6699	25.02	-0.06	-0.750			
0.0304	1942.93	4.0990	4.0989	-0.6753	25.02	-0.06	-0.750			
0.0324	2072.94	4.0960	4.0960	-0.6809	25.02	-0.06	-0.750			
0.0344	2202.65	4.0930	4.0930	-0.6829	25.02	-0.06	-0.750			
0.0365	2335.14	4.0900	4.0899	-0.6908	25.01	-0.07	-0.750			
0.0386	2468.72	4.0870	4.0870	-0.6974	25.01	-0.07	-0.750			
0.0407	2603.29	4.0840	4.0840	-0.7032	25.01	-0.07	-0.750			
0.0428	2740.37	4.0810	4.0808	-0.7087	25.01	-0.07	-0.750			
0.0449	2876.56	4.0780	4.0780	-0.7114	25.01	-0.07	-0.750			
0.0471	3011.66	4.0750	4.0751	-0.7176	25.01	-0.07	-0.750			
0.0492	3150.45	4.0720	4.0720	-0.7233	25.02	-0.06	-0.750			
0.0515	3293.03	4.0690	4.0688	-0.7261	25.02	-0.06	-0.750			
0.0536	3432.75	4.0660	4.0662	-0.7252	25.02	-0.06	-0.750			
0.0558	3571.56	4.0630	4.0630	-0.7315	25.02	-0.06	-0.750			
0.0580	3711.28	4.0600	4.0601	-0.7374	25.02	-0.06	-0.750			
0.0602	3852.50	4.0570	4.0568	-0.7397	25.02	-0.06	-0.750			
0.0624	3995.33	4.0540	4.0540	-0.7387	25.01	-0.07	-0.750			
0.0647	4140.07	4.0510	4.0510	-0.7457	25.01	-0.07	-0.750			
0.0669	4283.88	4.0480	4.0482	-0.7478	25.01	-0.07	-0.750			
0.0692	4427.87	4.0450	4.0447	-0.7487	25.01	-0.07	-0.750			
0.0714	4569.42	4.0420	4.0420	-0.7547	25.01	-0.07	-0.750			
0.0736	4713.52	4.0390	4.0391	-0.7575	25.01	-0.07	-0.750			
0.0760	4864.57	4.0360	4.0358	-0.7641	25.01	-0.07	-0.750			
0.0783	5011.02	4.0330	4.0329	-0.7616	25.01	-0.07	-0.750			
0.0806	5156.06	4.0300	4.0300	-0.7616	25.01	-0.07	-0.750			
0.0828	5301.49	4.0270	4.0269	-0.7628	25.01	-0.07	-0.750			
0.0851	5447.86	4.0240	4.0239	-0.7647	25.01	-0.07	-0.750			
0.0874	5594.89	4.0210	4.0210	-0.7652	25.02	-0.06	-0.750			
0.0898	5745.12	4.0180	4.0179	-0.7696	25.02	-0.06	-0.750			
0.0921	5892.58	4.0150	4.0151	-0.7727	25.02	-0.06	-0.750			
0.0944	6040.68	4.0120	4.0120	-0.7677	25.02	-0.06	-0.750			
0.0967	6186.96	4.0090	4.0089	-0.7713	25.02	-0.06	-0.750			
0.0990	6333.22	4.0060	4.0060	-0.7706	25.02	-0.06	-0.750			
0.1013	6484.01	4.0030	4.0030	-0.7794	25.02	-0.06	-0.750			
0.1037	6633.73	4.0000	4.0000	-0.7793	25.02	-0.06	-0.750			
0.1060	6784.08	3.9970	3.9970	-0.7798	25.02	-0.06	-0.750			
0.1083	6932.52	3.9940	3.9939	-0.7835	25.02	-0.06	-0.750			
0.1107	7084.27	3.9910	3.9911	-0.7850	25.02	-0.06	-0.750			
0.1130	7233.69	3.9880	3.9879	-0.7841	25.02	-0.06	-0.750			
0.1154	7385.82	3.9850	3.9849	-0.7876	25.02	-0.06	-0.750			
0.1178	7538.76	3.9820	3.9820	-0.7803	25.02	-0.06	-0.750			
0.1201	7686.83	3.9790	3.9790	-0.7889	25.02	-0.06	-0.750			
0.1225	7838.12	3.9760	3.9761	-0.7903	25.02	-0.06	-0.750			
0.1248	7987.70	3.9730	3.9728	-0.7905	25.03	-0.05	-0.750			
0.1272	8142.13	3.9700	3.9700	-0.7955	25.03	-0.05	-0.750			
0.1296	8295.55	3.9670	3.9673	-0.7930	25.03	-0.05	-0.750			
0.1320	8446.79	3.9640	3.9640	-0.8000	25.03	-0.05	-0.750			
0.1344	8601.28	3.9610	3.9610	-0.8031	25.03	-0.05	-0.750			
0.1368	8752.72	3.9580	3.9580	-0.7948	25.04	-0.04	-0.750			
0.1392	8906.40	3.9550	3.9548	-0.8017	25.04	-0.04	-0.750			
0.1416	9061.93	3.9520	3.9523	-0.8020	25.04	-0.04	-0.750			
0.1440	9216.50	3.9490	3.9489	-0.8045	25.04	-0.04	-0.750			
0.1464	9370.26	3.9460	3.9460	-0.8144	25.04	-0.04	-0.750			
0.1488	9525.63	3.9430	3.9430	-0.8174	25.05	-0.03	-0.750			
0.1513	9683.62	3.9400	3.9398	-0.8218	25.05	-0.03	-0.750			
0.1538	9843.71	3.9370	3.9372	-0.8219	25.05	-0.03	-0.750			
0.1563	10001.37	3.9340	3.9340	-0.8217	25.05	-0.03	-0.750			
0.1587	10159.85	3.9310	3.9310	-0.8311	25.05	-0.03	-0.750			
0.1612	10319.97	3.9280	3.9279	-0.8220	25.06	-0.02	-0.750			
0.1637	10476.80	3.9250	3.9248	-0.8172	25.06	-0.02	-0.750			
0.1662	10635.31	3.9220	3.9224	-0.8160	25.06	-0.02	-0.750			
0.1686	10791.22	3.9190	3.9189	-0.8154	25.06	-0.02	-0.750			
0.1710	10946.71	3.9160	3.9159	-0.8205	25.06	-0.02	-0.750			
0.1735	11102.26	3.9130	3.9127	-0.8210	25.06	-0.02	-0.750			
0.1759	11260.07	3.9100	3.9101	-0.8295	25.06	-0.02	-0.750			
0.1785	11421.05	3.9070	3.9072	-0.8317	25.06	-0.02	-0.750			
0.1810	11581.92	3.9040	3.9039	-0.8340	25.06	-0.02	-0.750			
0.1835	11742.77	3.9010	3.9009	-0.8418	25.06	-0.02	-0.750			
0.1860	11901.87	3.8980	3.8980	-0.8346	25.06	-0.02	-0.750			
0.1885	12063.32	3.8950	3.8948	-0.8286	25.06	-0.02	-0.750			
0.1910	12224.99	3.8920	3.8923	-0.8293	25.06	-0.02	-0.750			
0.1935	12383.40	3.8890	3.8889	-0.8261	25.06	-0.02	-0.750			
0.1960	12540.92	3.8860	3.8859	-0.8313	25.07	-0.01	-0.750			
0.1984	12699.03	3.8830	3.8829	-0.8312	25.07	-0.01	-0.750			
0.2009	12856.76	3.8800	3.8800	-0.8220	25.07	-0.01	-0.750			
0.2034	13020.72	3.8770	3.8772	-0.8276	25.08	-0.00	-0.750			
0.2059	13178.50	3.8740	3.8740	-0.8278	25.08	0.00	-0.750			
0.2084	13335.89	3.8710	3.8709	-0.8305	25.08	0.00	-0.750			
0.2109	13495.34	3.8680	3.8679	-0.8279	25.09	0.01	-0.750			
0.2133	13652.69	3.8650	3.8649	-0.8187	25.09	0.01	-0.750			
0.2158	13813.97	3.8620	3.8622	-0.8235	25.09	0.01	-0.750			
0.2183	13972.67	3.8590	3.8590	-0.8235	25.09	0.01	-0.750			
0.2208	14130.93	3.8560	3.8558	-0.8223	25.09	0.01	-0.750			
0.2232	14287.30	3.8530	3.8529	-0.8145	25.09	0.01	-0.750			
0.2257	14441.92	3.8500	3.8500	-0.8060	25.09	0.01	-0.750			
0.2281	14601.04	3.8470	3.8471	-0.8073	25.09	0.01	-0.750			
0.2305	14754.98	3.8440	3.8438	-0.7998	25.09	0.01	-0.750			
0.2329	14904.40	3.8410	3.8409	-0.7952	25.09	0.01	-0.750			
0.2352	15055.62	3.8380	3.8380	-0.7913	25.09	0.01	-0.750			
0.2376	15205.96	3.8350	3.8350	-0.7864	25.10	0.02	-0.750			
0.2400	15361.55	3.8320	3.8319	-0.7891	25.10	0.02	-0.750			
0.2424	15512.85	3.8290	3.8291	-0.7856	25.10	0.02	-0.750			
0.2447	15661.15	3.8260	3.8261	-0.7881	25.10	0.02	-0.750			
0.2471	15811.88	3.8230	3.8230	-0.7866	25.10	0.02	-0.750			
0.2494	15961.68	3.8200	3.8200	-0.7804	25.10	0.02	-0.750			
0.2518	16113.76	3.8170	3.8169	-0.7841	25.10	0.02	-0.750			
0.2542	16266.81	3.8140	3.8146	-0.7771	25.10	0.02	-0.750			
0.2565	16414.27	3.8110	3.8109	-0.7727	25.10	0.02	-0.750			
0.2588	16561.78	3.8080	3.8081	-0.7737	25.11	0.03	-0.750			
0.2611	16709.51	3.8050	3.8049	-0.7707	25.11	0.03	-0.750			
0.2634	16858.09	3.8020	3.8019	-0.7685	25.12	0.04	-0.750			
0.2657	17005.46	3.7990	3.7989	-0.7670	25.12	0.04	-0.750			
0.2680	17152.64	3.7960	3.7959	-0.7653	25.12	0.04	-0.750			
0.2703	17299.84	3.7930	3.7929	-0.7634	25.12	0.04	-0.750			
0.2726	17445.38	3.7900	3.7899	-0.7618	25.12	0.04	-0.750			
0.2749	17590.92	3.7870	3.7870	-0.7605	25.12	0.04	-0.750			
0.2772	17739.66	3.7840	3.7839	-0.7695	25.12	0.04	-0.750			
0.2795	17888.28	3.7810	3.7813	-0.7689	25.12	0.04	-0.750			
0.2818	18034.01	3.7780	3.7778	-0.7693	25.12	0.04	-0.750			
0.2841	18181.99	3.7750	3.7749	-0.7708	25.12	0.04	-0.750			
0.2863	18326.28	3.7720	3.7723	-0.7662	25.12	0.04	-0.750			
0.2887	18479.13	3.7690	3.7689	-0.7838	25.12	0.04	-0.750			
0.2911	18628.71	3.7660	3.7660	-0.7868	25.12	0.04	-0.750			
0.2934	18779.38	3.7630	3.7629	-0.7962	25.12	0.04	-0.750			
0.2958	18933.66	3.7600	3.7600	-0.8119	25.12	0.04	-0.750			
0.2983	19091.78	3.7570	3.7569	-0.8168	25.12	0.04	-0.750			
0.3008	19249.70	3.7540	3.7540	-0.8194	25.12	0.04	-0.750			
0.3033	19409.69	3.7510	3.7512	-0.8270	25.12	0.04	-0.750			
0.3058	19568.53	3.7480	3.7479	-0.8298	25.12	0.04	-0.750			
0.3082	19726.27	3.7450	3.7449	-0.8444	25.12	0.04	-0.750			
0.3108	19890.72	3.7420	3.7419	-0.8450	25.12	0.04	-0.750			
0.3133	20052.31	3.7390	3.7390	-0.8509	25.12	0.04	-0.750			
0.3160	20220.83	3.7360	3.7362	-0.8649	25.12	0.04	-0.750			
0.3185	20386.24	3.7330	3.7328	-0.8738	25.12	0.04	-0.750			
0.3211	20552.81	3.7300	3.7300	-0.8863	25.11	0.03	-0.750			
0.3238	20725.03	3.7270	3.7269	-0.8935	25.11	0.03	-0.750			
0.3266	20899.77	3.7240	3.7240	-0.9138	25.10	0.02	-0.750			
0.3293	21076.97	3.7210	3.7213	-0.9274	25.10	0.02	-0.750			
0.3321	21253.64	3.7180	3.7180	-0.9457	25.10	0.02	-0.750			
0.3349	21436.74	3.7150	3.7148	-0.9552	25.09	0.01	-0.750			
0.3378	21620.71	3.7120	3.7119	-0.9634	25.09	0.01	-0.750			
0.3407	21806.35	3.7090	3.7093	-0.9968	25.08	0.00	-0.750			
0.3438	22000.22	3.7060	3.7059	-1.0077	25.08	-0.00	-0.750			
0.3468	22196.64	3.7030	3.7027	-1.0150	25.07	-0.01	-0.750			
0.3499	22393.66	3.7000	3.6998	-1.0153	25.07	-0.01	-0.750			
0.3529	22586.72	3.6970	3.6970	-1.0177	25.06	-0.02	-0.750	0.380	0.523	
0.3561	22787.89	3.6940	3.6939	-1.0484	25.06	-0.02	-0.750			
0.3592	22987.83	3.6910	3.6908	-1.0589	25.05	-0.03	-0.750			
0.3623	23186.64	3.6880	3.6879	-1.0801	25.05	-0.03	-0.750			
0.3655	23392.30	3.6850	3.6851	-1.0967	25.04	-0.04	-0.750			
0.3690	23615.35	3.6820	3.6820	-1.1393	25.03	-0.05	-0.750			
0.3725	23839.12	3.6790	3.6789	-1.1457	25.03	-0.05	-0.750			
0.3759	24060.09	3.6760	3.6759	-1.1550	25.02	-0.06	-0.750			
0.3794	24281.64	3.6730	3.6734	-1.1775	25.01	-0.07	-0.750			
0.3830	24510.22	3.6700	3.6697	-1.1948	25.00	-0.08	-0.750			
0.3866	24740.26	3.6670	3.6669	-1.2091	24.99	-0.09	-0.750			
0.3901	24969.20	3.6640	3.6640	-1.2278	24.98	-0.10	-0.750			
0.3940	25216.10	3.6610	3.6608	-1.2662	24.97	-0.11	-0.750			
0.3978	25459.70	3.6580	3.6579	-1.2851	24.96	-0.12	-0.750			
0.4016	25700.36	3.6550	3.6550	-1.3092	24.96	-0.12	-0.750			
0.4055	25954.40	3.6520	3.6521	-1.3208	24.95	-0.13	-0.750			
0.4097	26220.00	3.6490	3.6489	-1.3484	24.94	-0.14	-0.750			
0.4137	26477.86	3.6460	3.6458	-1.3843	24.93	-0.15	-0.750			
0.4179	26747.65	3.6430	3.6430	-1.3935	24.92	-0.16	-0.750			
0.4222	27018.23	3.6400	3.6398	-1.4310	24.91	-0.17	-0.750			
0.4265	27294.24	3.6370	3.6371	-1.4538	24.90	-0.18	-0.750			
0.4309	27576.27	3.6340	3.6340	-1.4670	24.90	-0.18	-0.750			
0.4353	27862.01	3.6310	3.6309	-1.5167	24.88	-0.20	-0.750			
0.4400	28157.27	3.6280	3.6279	-1.5417	24.87	-0.21	-0.750			
0.4446	28457.47	3.6250	3.6248	-1.5730	24.87	-0.21	-0.750			
0.4494	28763.55	3.6220	3.6216	-1.6127	24.86	-0.22	-0.750			
0.4542	29070.24	3.6190	3.6194	-1.6116	24.86	-0.22	-0.750			
0.4591	29384.23	3.6160	3.6167	-1.6408	24.85	-0.23	-0.750			
0.4642	29705.68	3.6130	3.6131	-1.6629	24.84	-0.24	-0.750			
0.4690	30016.49	3.6100	3.6097	-1.6738	24.83	-0.25	-0.750			
0.4742	30350.67	3.6070	3.6066	-1.7387	24.82	-0.26	-0.750			
0.4795	30690.54	3.6040	3.6040	-1.7921	24.81	-0.27	-0.750			
0.4850	31040.85	3.6010	3.6012	-1.8374	24.81	-0.27	-0.750			
0.4904	31387.37	3.5980	3.5982	-1.8650	24.80	-0.28	-0.750			
0.4962	31753.85	3.5950	3.5950	-1.9083	24.79	-0.29	-0.750			
0.5019	32123.71	3.5920	3.5920	-1.9333	24.78	-0.30	-0.750			
0.5078	32498.34	3.5890	3.5889	-2.0068	24.78	-0.30	-0.750			
0.5140	32895.71	3.5860	3.5859	-2.0325	24.78	-0.30	-0.750			
0.5201	33283.69	3.5830	3.5826	-2.0730	24.77	-0.31	-0.750			
0.5264	33689.95	3.5800	3.5802	-2.0839	24.76	-0.32	-0.750			
0.5328	34097.03	3.5770	3.5768	-2.0663	24.76	-0.32	-0.750			
0.5389	34488.31	3.5740	3.5741	-2.0876	24.76	-0.32	-0.750			
0.5449	34876.53	3.5710	3.5711	-2.1099	24.76	-0.32	-0.750			
0.5516	35299.93	3.5680	3.5676	-2.1118	24.75	-0.33	-0.750			
0.5578	35697.66	3.5650	3.5652	-2.1475	24.75	-0.33	-0.750			
0.5645	36126.47	3.5620	3.5621	-2.1135	24.76	-0.32	-0.750			
0.5710	36542.38	3.5590	3.5587	-2.0916	24.76	-0.32	-0.750			
0.5771	36932.83	3.5560	3.5560	-2.0588	24.76	-0.32	-0.750			
0.5832	37323.27	3.5530	3.5529	-2.0568	24.76	-0.32	-0.750			
0.5894	37722.91	3.5500	3.5499	-2.0569	24.76	-0.32	-0.750			
0.5955	38111.01	3.5470	3.5469	-2.0337	24.76	-0.32	-0.750			
0.6017	38508.65	3.5440	3.5443	-2.0199	24.76	-0.32	-0.750			
0.6078	38896.13	3.5410	3.5409	-2.0175	24.77	-0.31	-0.750			
0.6138	39286.14	3.5380	3.5378	-1.9654	24.78	-0.30	-0.750			
0.6196	39656.02	3.5350	3.5349	-1.9060	24.79	-0.29	-0.750			
0.6254	40027.32	3.5320	3.5323	-1.8994	24.79	-0.29	-0.750			
0.6311	40388.24	3.5290	3.5288	-1.8615	24.81	-0.27	-0.750			
0.6365	40736.90	3.5260	3.5259	-1.8216	24.82	-0.26	-0.750			
0.6419	41081.67	3.5230	3.5232	-1.7843	24.84	-0.24	-0.750			
0.6473	41427.69	3.5200	3.5202	-1.7709	24.85	-0.23	-0.750			
0.6525	41757.03	3.5170	3.5171	-1.7059	24.87	-0.21	-0.750			
0.6576	42087.43	3.5140	3.5138	-1.6675	24.88	-0.20	-0.750			
0.6625	42400.35	3.5110	3.5108	-1.6402	24.90	-0.18	-0.750			
0.6673	42709.65	3.5080	3.5080	-1.5825	24.91	-0.17	-0.750			
0.6720	43005.11	3.5050	3.5049	-1.5332	24.93	-0.15	-0.750			
0.6765	43296.94	3.5020	3.5019	-1.5053	24.94	-0.14	-0.750			
0.6810	43582.13	3.4990	3.4989	-1.4504	24.96	-0.12	-0.750			
0.6854	43863.01	3.4960	3.4959	-1.4159	24.98	-0.10	-0.750			
0.6895	44130.04	3.4930	3.4929	-1.3573	25.00	-0.08	-0.750			
0.6936	44387.60	3.4900	3.4899	-1.3012	25.02	-0.06	-0.750			
0.6974	44630.77	3.4870	3.4869	-1.2203	25.04	-0.04	-0.750			
0.7009	44856.55	3.4840	3.4840	-1.1294	25.06	-0.02	-0.750			
