Ah_balance (normalized)	Ah_balance (mAh)	Voltage - fit (V)	Voltage -  interpolate (V)	dQ/dV (1/V)	Temperature (°C)	Temperature - diff (°C)	Current (C)	R_DC 0ms (mOhm)	R_DC 50ms (mOhm)	R_DC 50 ms PEC (mOhm)
0.0485	3103.03	4.1960	4.1960	0.7421	25.55	0.41	0.750			
0.0508	3248.76	4.1930	4.1930	0.7589	25.55	0.41	0.750			
0.0531	3396.06	4.1900	4.1901	0.7638	25.55	0.41	0.750			
0.0554	3543.25	4.1870	4.1872	0.7641	25.55	0.41	0.750			
0.0577	3690.71	4.1840	4.1840	0.7686	25.55	0.41	0.750			
0.0600	3838.63	4.1810	4.1810	0.7708	25.56	0.42	0.750			
0.0622	3983.75	4.1780	4.1779	0.7675	25.56	0.42	0.750			
0.0646	4133.51	4.1750	4.1750	0.7744	25.56	0.42	0.750			
0.0669	4283.31	4.1720	4.1720	0.7744	25.56	0.42	0.750			
0.0693	4433.86	4.1690	4.1690	0.7750	25.56	0.42	0.750			
0.0716	4581.37	4.1660	4.1660	0.7789	25.57	0.43	0.750			
0.0739	4730.06	4.1630	4.1631	0.7788	25.57	0.43	0.750			
0.0762	4879.55	4.1600	4.1598	0.7783	25.57	0.43	0.750			
0.0786	5029.24	4.1570	4.1572	0.7800	25.57	0.43	0.750			
0.0810	5180.92	4.1540	4.1540	0.7799	25.57	0.43	0.750			
0.0833	5330.18	4.1510	4.1510	0.7795	25.57	0.43	0.750			
0.0856	5480.03	4.1480	4.1480	0.7810	25.57	0.43	0.750			
0.0879	5627.96	4.1450	4.1451	0.7812	25.57	0.43	0.750			
0.0903	5779.70	4.1420	4.1420	0.7829	25.57	0.43	0.750			
0.0927	5930.17	4.1390	4.1391	0.7858	25.57	0.43	0.750			
0.0950	6081.02	4.1360	4.1360	0.7856	25.57	0.43	0.750			
0.0974	6232.10	4.1330	4.1330	0.7866	25.57	0.43	0.750			
0.0997	6382.48	4.1300	4.1300	0.7881	25.57	0.43	0.750			
0.1021	6533.84	4.1270	4.1271	0.7901	25.57	0.43	0.750			
0.1045	6685.89	4.1240	4.1240	0.7929	25.57	0.43	0.750			
0.1069	6839.29	4.1210	4.1210	0.7916	25.57	0.43	0.750			
0.1092	6990.62	4.1180	4.1180	0.7950	25.58	0.44	0.750			
0.1116	7143.02	4.1150	4.1151	0.7996	25.58	0.44	0.750			
0.1140	7296.81	4.1120	4.1118	0.8061	25.58	0.44	0.750			
0.1164	7451.85	4.1090	4.1091	0.8075	25.58	0.44	0.750			
0.1189	7610.56	4.1060	4.1060	0.8039	25.58	0.44	0.750			
0.1213	7764.83	4.1030	4.1030	0.8104	25.59	0.45	0.750			
0.1238	7920.05	4.1000	4.1001	0.8135	25.59	0.45	0.750			
0.1261	8073.11	4.0970	4.0969	0.8096	25.59	0.45	0.750			
0.1286	8229.21	4.0940	4.0940	0.8131	25.59	0.45	0.750			
0.1310	8386.17	4.0910	4.0911	0.8135	25.59	0.45	0.750			
0.1335	8543.90	4.0880	4.0880	0.8175	25.60	0.46	0.750			
0.1360	8702.67	4.0850	4.0850	0.8254	25.60	0.46	0.750			
0.1384	8858.05	4.0820	4.0820	0.8185	25.60	0.46	0.750			
0.1409	9015.87	4.0790	4.0791	0.8239	25.60	0.46	0.750			
0.1434	9175.82	4.0760	4.0760	0.8209	25.60	0.46	0.750			
0.1458	9332.58	4.0730	4.0730	0.8277	25.61	0.47	0.750			
0.1483	9492.33	4.0700	4.0700	0.8329	25.61	0.47	0.750			
0.1508	9652.04	4.0670	4.0670	0.8338	25.61	0.47	0.750			
0.1533	9811.60	4.0640	4.0641	0.8351	25.61	0.47	0.750			
0.1559	9975.71	4.0610	4.0610	0.8326	25.61	0.47	0.750			
0.1583	10134.17	4.0580	4.0580	0.8369	25.61	0.47	0.750			
0.1609	10295.01	4.0550	4.0550	0.8427	25.61	0.47	0.750			
0.1633	10453.81	4.0520	4.0521	0.8444	25.61	0.47	0.750			
0.1659	10617.51	4.0490	4.0491	0.8478	25.61	0.47	0.750			
0.1685	10782.47	4.0460	4.0460	0.8504	25.62	0.48	0.750			
0.1710	10946.53	4.0430	4.0431	0.8537	25.62	0.48	0.750			
0.1736	11111.80	4.0400	4.0400	0.8592	25.62	0.48	0.750			
0.1761	11273.30	4.0370	4.0369	0.8566	25.63	0.49	0.750			
0.1787	11438.96	4.0340	4.0340	0.8602	25.63	0.49	0.750			
0.1813	11604.76	4.0310	4.0309	0.8552	25.63	0.49	0.750			
0.1839	11768.75	4.0280	4.0281	0.8640	25.63	0.49	0.750			
0.1865	11934.15	4.0250	4.0252	0.8651	25.63	0.49	0.750			
0.1891	12100.94	4.0220	4.0217	0.8723	25.63	0.49	0.750			
0.1917	12268.04	4.0190	4.0191	0.8762	25.63	0.49	0.750			
0.1944	12438.47	4.0160	4.0160	0.8737	25.64	0.50	0.750			
0.1970	12607.81	4.0130	4.0131	0.8831	25.64	0.50	0.750			
0.1996	12775.08	4.0100	4.0101	0.8772	25.65	0.51	0.750			
0.2022	12942.94	4.0070	4.0071	0.8838	25.65	0.51	0.750			
0.2049	13113.47	4.0040	4.0041	0.8895	25.65	0.51	0.750			
0.2076	13285.22	4.0010	4.0010	0.8943	25.65	0.51	0.750			
0.2103	13460.67	3.9980	3.9980	0.9013	25.65	0.51	0.750			
0.2130	13633.83	3.9950	3.9951	0.8970	25.65	0.51	0.750			
0.2157	13805.84	3.9920	3.9920	0.8976	25.65	0.51	0.750			
0.2184	13977.62	3.9890	3.9890	0.8958	25.66	0.52	0.750			
0.2211	14149.08	3.9860	3.9860	0.8970	25.66	0.52	0.750			
0.2238	14320.33	3.9830	3.9830	0.9009	25.66	0.52	0.750			
0.2265	14493.63	3.9800	3.9799	0.9029	25.67	0.53	0.750			
0.2292	14669.48	3.9770	3.9771	0.9032	25.67	0.53	0.750			
0.2319	14841.19	3.9740	3.9740	0.9084	25.67	0.53	0.750			
0.2346	15015.49	3.9710	3.9711	0.9139	25.68	0.54	0.750			
0.2374	15191.58	3.9680	3.9680	0.9221	25.68	0.54	0.750			
0.2401	15368.42	3.9650	3.9649	0.9228	25.68	0.54	0.750			
0.2429	15546.32	3.9620	3.9621	0.9264	25.68	0.54	0.750			
0.2457	15726.13	3.9590	3.9590	0.9319	25.68	0.54	0.750			
0.2485	15905.52	3.9560	3.9561	0.9328	25.69	0.55	0.750			
0.2513	16083.77	3.9530	3.9529	0.9291	25.69	0.55	0.750			
0.2541	16263.11	3.9500	3.9501	0.9259	25.69	0.55	0.750			
0.2569	16440.00	3.9470	3.9470	0.9282	25.70	0.56	0.750			
0.2597	16618.79	3.9440	3.9440	0.9347	25.70	0.56	0.750			
0.2625	16797.87	3.9410	3.9410	0.9343	25.71	0.57	0.750			
0.2653	16976.34	3.9380	3.9381	0.9372	25.71	0.57	0.750			
0.2681	17160.57	3.9350	3.9350	0.9197	25.71	0.57	0.750			
0.2708	17334.19	3.9320	3.9321	0.9357	25.71	0.57	0.750			
0.2736	17512.50	3.9290	3.9291	0.9458	25.71	0.57	0.750			
0.2765	17693.10	3.9260	3.9257	0.9474	25.71	0.57	0.750			
0.2793	17876.90	3.9230	3.9232	0.9547	25.71	0.57	0.750			
0.2822	18062.61	3.9200	3.9201	0.9609	25.72	0.58	0.750			
0.2851	18248.72	3.9170	3.9171	0.9652	25.72	0.58	0.750			
0.2881	18435.96	3.9140	3.9140	0.9566	25.73	0.59	0.750			
0.2909	18618.82	3.9110	3.9110	0.9576	25.73	0.59	0.750			
0.2938	18802.54	3.9080	3.9080	0.9503	25.73	0.59	0.750			
0.2966	18984.68	3.9050	3.9050	0.9592	25.73	0.59	0.750			
0.2995	19168.04	3.9020	3.9021	0.9671	25.73	0.59	0.750			
0.3024	19353.78	3.8990	3.8986	0.9728	25.73	0.59	0.750			
0.3053	19540.06	3.8960	3.8961	0.9818	25.73	0.59	0.750			
0.3082	19727.53	3.8930	3.8931	0.9766	25.74	0.60	0.750			
0.3112	19916.62	3.8900	3.8901	0.9833	25.74	0.60	0.750			
0.3141	20103.63	3.8870	3.8865	0.9791	25.74	0.60	0.750			
0.3171	20293.64	3.8840	3.8841	0.9810	25.74	0.60	0.750			
0.3200	20481.42	3.8810	3.8811	0.9859	25.74	0.60	0.750			
0.3230	20672.63	3.8780	3.8780	0.9916	25.75	0.61	0.750			
0.3261	20867.59	3.8750	3.8749	1.0048	25.75	0.61	0.750			
0.3290	21055.47	3.8720	3.8720	0.9824	25.75	0.61	0.750			
0.3319	21244.15	3.8690	3.8691	0.9909	25.74	0.60	0.750			
0.3349	21434.15	3.8660	3.8660	0.9974	25.74	0.60	0.750			
0.3379	21624.12	3.8630	3.8630	1.0071	25.73	0.59	0.750			
0.3409	21819.01	3.8600	3.8601	1.0144	25.73	0.59	0.750			
0.3440	22015.34	3.8570	3.8570	1.0293	25.73	0.59	0.750			
0.3471	22215.84	3.8540	3.8540	1.0380	25.73	0.59	0.750			
0.3503	22418.35	3.8510	3.8510	1.0480	25.73	0.59	0.750			
0.3534	22619.07	3.8480	3.8481	1.0432	25.73	0.59	0.750			
0.3566	22819.47	3.8450	3.8450	1.0480	25.72	0.58	0.750			
0.3597	23020.49	3.8420	3.8420	1.0452	25.72	0.58	0.750			
0.3628	23221.99	3.8390	3.8390	1.0509	25.71	0.57	0.750			
0.3660	23421.68	3.8360	3.8361	1.0513	25.71	0.57	0.750			
0.3691	23624.00	3.8330	3.8331	1.0644	25.70	0.56	0.750			
0.3723	23828.63	3.8300	3.8295	1.0712	25.68	0.54	0.750	0.326	0.421	
0.3756	24036.93	3.8270	3.8270	1.0773	25.67	0.53	0.750			
0.3789	24246.64	3.8240	3.8240	1.0689	25.66	0.52	0.750			
0.3821	24451.29	3.8210	3.8211	1.0810	25.65	0.51	0.750			
0.3853	24658.64	3.8180	3.8180	1.0865	25.64	0.50	0.750			
0.3885	24864.96	3.8150	3.8148	1.0904	25.63	0.49	0.750			
0.3918	25075.40	3.8120	3.8121	1.0874	25.63	0.49	0.750			
0.3951	25284.80	3.8090	3.8092	1.0983	25.62	0.48	0.750			
0.3984	25496.84	3.8060	3.8060	1.1052	25.62	0.48	0.750			
0.4018	25713.98	3.8030	3.8028	1.1065	25.61	0.47	0.750			
0.4050	25919.64	3.8000	3.8000	1.1052	25.60	0.46	0.750			
0.4083	26132.18	3.7970	3.7972	1.1224	25.58	0.44	0.750			
0.4117	26349.49	3.7940	3.7941	1.1369	25.57	0.43	0.750			
0.4152	26572.18	3.7910	3.7908	1.1399	25.56	0.42	0.750			
0.4186	26790.55	3.7880	3.7881	1.1564	25.55	0.41	0.750			
0.4221	27013.44	3.7850	3.7851	1.1740	25.54	0.40	0.750			
0.4257	27241.87	3.7820	3.7819	1.1904	25.52	0.38	0.750			
0.4292	27469.86	3.7790	3.7790	1.2004	25.51	0.37	0.750			
0.4328	27701.01	3.7760	3.7760	1.2222	25.50	0.36	0.750			
0.4365	27938.53	3.7730	3.7732	1.2488	25.49	0.35	0.750			
0.4403	28180.61	3.7700	3.7699	1.2591	25.48	0.34	0.750			
0.4441	28423.51	3.7670	3.7671	1.2900	25.47	0.33	0.750			
0.4480	28670.18	3.7640	3.7641	1.3215	25.45	0.31	0.750			
0.4521	28932.20	3.7610	3.7606	1.3283	25.44	0.30	0.750			
0.4560	29186.65	3.7580	3.7581	1.3622	25.42	0.28	0.750			
0.4601	29449.37	3.7550	3.7552	1.4004	25.41	0.27	0.750			
0.4644	29719.67	3.7520	3.7515	1.4465	25.39	0.25	0.750			
0.4687	29999.92	3.7490	3.7488	1.4769	25.38	0.24	0.750			
0.4733	30291.74	3.7460	3.7462	1.5146	25.36	0.22	0.750			
0.4780	30591.05	3.7430	3.7428	1.5634	25.35	0.21	0.750			
0.4828	30897.22	3.7400	3.7401	1.5954	25.33	0.19	0.750			
0.4875	31200.68	3.7370	3.7369	1.6305	25.32	0.18	0.750			
0.4925	31517.82	3.7340	3.7342	1.6876	25.30	0.16	0.750			
0.4976	31845.06	3.7310	3.7310	1.7318	25.28	0.14	0.750			
0.5029	32186.61	3.7280	3.7280	1.7773	25.27	0.13	0.750			
0.5083	32534.07	3.7250	3.7247	1.8174	25.24	0.10	0.750			
0.5139	32888.10	3.7220	3.7221	1.8741	25.22	0.08	0.750			
0.5195	33249.71	3.7190	3.7190	1.9112	25.21	0.07	0.750			
0.5254	33626.52	3.7160	3.7159	1.9008	25.19	0.05	0.750			
0.5311	33990.67	3.7130	3.7131	1.9468	25.18	0.04	0.750			
0.5370	34365.62	3.7100	3.7102	2.0244	25.17	0.03	0.750			
0.5431	34755.63	3.7070	3.7068	2.0964	25.15	0.01	0.750			
0.5494	35160.82	3.7040	3.7038	2.2153	25.13	-0.01	0.750			
0.5562	35595.53	3.7010	3.7012	2.3186	25.11	-0.03	0.750			
0.5634	36055.14	3.6980	3.6980	2.3464	25.09	-0.05	0.750			
0.5706	36518.55	3.6950	3.6946	2.4019	25.08	-0.06	0.750			
0.5779	36987.89	3.6920	3.6919	2.4502	25.06	-0.08	0.750			
0.5852	37452.44	3.6890	3.6889	2.4718	25.03	-0.11	0.750			
0.5927	37932.91	3.6860	3.6860	2.5352	25.02	-0.12	0.750			
0.6007	38446.73	3.6830	3.6830	2.6534	25.02	-0.12	0.750			
0.6087	38954.43	3.6800	3.6802	2.7238	25.00	-0.14	0.750			
0.6169	39484.39	3.6770	3.6775	2.8265	24.99	-0.15	0.750			
0.6254	40028.47	3.6740	3.6741	2.9102	24.98	-0.16	0.750			
0.6345	40609.35	3.6710	3.6710	2.8969	24.98	-0.16	0.750			
0.6435	41182.08	3.6680	3.6682	2.9255	24.98	-0.16	0.750			
0.6525	41756.82	3.6650	3.6647	2.8770	24.97	-0.17	0.750			
0.6611	42308.66	3.6620	3.6621	2.7167	24.98	-0.16	0.750			
0.6692	42825.67	3.6590	3.6590	2.5816	24.99	-0.15	0.750			
0.6764	43288.39	3.6560	3.6559	2.2986	25.00	-0.14	0.750			
0.6828	43698.13	3.6530	3.6535	2.0754	25.01	-0.13	0.750			
0.6887	44076.98	3.6500	3.6498	1.8807	25.02	-0.12	0.750			
0.6941	44421.80	3.6470	3.6469	1.7017	25.03	-0.11	0.750			
0.6990	44735.40	3.6440	3.6441	1.5335	25.04	-0.10	0.750			
0.7034	45017.46	3.6410	3.6412	1.3785	25.04	-0.10	0.750			
0.7072	45259.65	3.6380	3.6379	1.2413	25.06	-0.08	0.750			
0.7103	45460.69	3.6350	3.6351	1.0869	25.07	-0.07	0.750			
0.7133	45649.06	3.6320	3.6321	1.0027	25.08	-0.06	0.750			
0.7161	45832.51	3.6290	3.6291	0.9556	25.08	-0.06	0.750			
0.7189	46009.06	3.6260	3.6260	0.9117	25.09	-0.05	0.750			
0.7216	46179.96	3.6230	3.6231	0.8983	25.09	-0.05	0.750			
0.7243	46353.32	3.6200	3.6200	0.8899	25.10	-0.04	0.750			
0.7269	46519.18	3.6170	3.6164	0.8503	25.10	-0.04	0.750			
0.7294	46683.68	3.6140	3.6141	0.8244	25.11	-0.03	0.750			
0.7319	46844.49	3.6110	3.6111	0.7754	25.12	-0.02	0.750			
0.7343	46994.96	3.6080	3.6079	0.7238	25.12	-0.02	0.750			
0.7364	47127.22	3.6050	3.6051	0.6469	25.13	-0.01	0.750			
0.7382	47243.89	3.6020	3.6021	0.5742	25.14	-0.00	0.750			
0.7398	47346.00	3.5990	3.5991	0.5066	25.14	0.00	0.750			
0.7412	47436.84	3.5960	3.5959	0.4396	25.15	0.01	0.750			
0.7424	47514.03	3.5930	3.5930	0.3722	25.15	0.01	0.750			
0.7434	47578.55	3.5900	3.5900	0.3158	25.15	0.01	0.750			
0.7443	47632.63	3.5870	3.5873	0.2554	25.16	0.02	0.750			
0.7449	47675.79	3.5840	3.5844	0.1994	25.16	0.02	0.750			
0.7454	47707.37	3.5810	3.5796	0.1518	25.16	0.02	0.750			
0.7458	47732.46	3.5780	3.5776	0.1260	25.16	0.02	0.750			
