Ah_balance (normalized)	Ah_balance (mAh)	Voltage - fit (V)	Voltage -  interpolate (V)	dQ/dV (1/V)	Temperature (°C)	Temperature - diff (°C)	Current (C)	R_DC 0ms (mOhm)	R_DC 50ms (mOhm)	R_DC 50 ms PEC (mOhm)
0.0516	3302.87	4.1960	4.1962	0.7259	25.58	0.36	0.750			
0.0538	3443.29	4.1930	4.1930	0.7307	25.58	0.36	0.750			
0.0560	3581.71	4.1900	4.1899	0.7348	25.58	0.36	0.750			
0.0581	3719.68	4.1870	4.1871	0.7465	25.58	0.36	0.750			
0.0604	3866.08	4.1840	4.1841	0.7630	25.58	0.36	0.750			
0.0628	4017.99	4.1810	4.1811	0.7761	25.58	0.36	0.750			
0.0651	4167.60	4.1780	4.1781	0.7799	25.58	0.36	0.750			
0.0675	4319.18	4.1750	4.1751	0.7827	25.58	0.36	0.750			
0.0698	4468.77	4.1720	4.1720	0.7861	25.58	0.36	0.750			
0.0722	4618.47	4.1690	4.1690	0.7821	25.58	0.36	0.750			
0.0745	4768.48	4.1660	4.1657	0.7842	25.58	0.36	0.750			
0.0769	4920.95	4.1630	4.1630	0.7912	25.58	0.36	0.750			
0.0793	5073.38	4.1600	4.1601	0.7902	25.58	0.36	0.750			
0.0816	5225.19	4.1570	4.1570	0.7920	25.58	0.36	0.750			
0.0840	5376.46	4.1540	4.1540	0.7929	25.58	0.36	0.750			
0.0864	5528.77	4.1510	4.1509	0.7941	25.58	0.36	0.750			
0.0888	5681.89	4.1480	4.1480	0.7964	25.58	0.36	0.750			
0.0912	5836.43	4.1450	4.1450	0.7914	25.58	0.36	0.750			
0.0936	5987.87	4.1420	4.1421	0.7964	25.59	0.37	0.750			
0.0959	6140.52	4.1390	4.1390	0.7992	25.59	0.37	0.750			
0.0983	6291.69	4.1360	4.1361	0.8006	25.59	0.37	0.750			
0.1007	6446.08	4.1330	4.1330	0.8059	25.59	0.37	0.750			
0.1032	6605.16	4.1300	4.1300	0.8038	25.59	0.37	0.750			
0.1056	6757.89	4.1270	4.1271	0.8091	25.59	0.37	0.750			
0.1081	6915.46	4.1240	4.1240	0.8124	25.59	0.37	0.750			
0.1104	7067.74	4.1210	4.1211	0.8131	25.59	0.37	0.750			
0.1129	7223.28	4.1180	4.1179	0.8150	25.59	0.37	0.750			
0.1153	7381.34	4.1150	4.1151	0.8160	25.59	0.37	0.750			
0.1178	7539.32	4.1120	4.1121	0.8235	25.59	0.37	0.750			
0.1203	7698.33	4.1090	4.1091	0.8278	25.60	0.38	0.750			
0.1228	7856.24	4.1060	4.1060	0.8253	25.60	0.38	0.750			
0.1252	8015.57	4.1030	4.1029	0.8293	25.60	0.38	0.750			
0.1278	8177.71	4.1000	4.1000	0.8185	25.60	0.38	0.750			
0.1302	8334.73	4.0970	4.0970	0.8233	25.60	0.38	0.750			
0.1327	8491.19	4.0940	4.0942	0.8238	25.61	0.39	0.750			
0.1351	8647.13	4.0910	4.0911	0.8267	25.61	0.39	0.750			
0.1376	8804.91	4.0880	4.0878	0.8288	25.61	0.39	0.750			
0.1401	8966.85	4.0850	4.0851	0.8312	25.61	0.39	0.750			
0.1426	9127.58	4.0820	4.0821	0.8397	25.61	0.39	0.750			
0.1452	9290.62	4.0790	4.0791	0.8443	25.61	0.39	0.750			
0.1477	9451.47	4.0760	4.0761	0.8431	25.61	0.39	0.750			
0.1502	9612.23	4.0730	4.0730	0.8474	25.61	0.39	0.750			
0.1528	9777.00	4.0700	4.0700	0.8469	25.61	0.39	0.750			
0.1553	9940.92	4.0670	4.0670	0.8537	25.61	0.39	0.750			
0.1579	10104.55	4.0640	4.0641	0.8578	25.62	0.40	0.750			
0.1605	10269.46	4.0610	4.0610	0.8570	25.62	0.40	0.750			
0.1630	10434.38	4.0580	4.0581	0.8621	25.62	0.40	0.750			
0.1656	10601.06	4.0550	4.0550	0.8602	25.62	0.40	0.750			
0.1682	10766.00	4.0520	4.0521	0.8653	25.62	0.40	0.750			
0.1708	10932.77	4.0490	4.0491	0.8714	25.63	0.41	0.750			
0.1734	11099.53	4.0460	4.0460	0.8751	25.63	0.41	0.750			
0.1761	11267.83	4.0430	4.0430	0.8786	25.63	0.41	0.750			
0.1787	11438.19	4.0400	4.0400	0.8812	25.63	0.41	0.750			
0.1814	11607.34	4.0370	4.0371	0.8833	25.63	0.41	0.750			
0.1841	11779.20	4.0340	4.0340	0.8887	25.63	0.41	0.750			
0.1867	11947.99	4.0310	4.0308	0.8830	25.63	0.41	0.750			
0.1893	12116.92	4.0280	4.0280	0.8841	25.63	0.41	0.750			
0.1920	12286.78	4.0250	4.0250	0.8881	25.64	0.42	0.750			
0.1947	12458.33	4.0220	4.0220	0.8944	25.64	0.42	0.750			
0.1974	12630.47	4.0190	4.0190	0.8994	25.65	0.43	0.750			
0.2000	12803.17	4.0160	4.0160	0.9035	25.65	0.43	0.750			
0.2028	12979.02	4.0130	4.0130	0.9023	25.65	0.43	0.750			
0.2055	13152.17	4.0100	4.0099	0.9086	25.65	0.43	0.750			
0.2082	13325.53	4.0070	4.0071	0.9124	25.65	0.43	0.750			
0.2110	13501.36	4.0040	4.0039	0.9135	25.65	0.43	0.750			
0.2137	13676.46	4.0010	4.0011	0.9173	25.65	0.43	0.750			
0.2165	13854.27	3.9980	3.9980	0.9096	25.66	0.44	0.750			
0.2192	14027.54	3.9950	3.9950	0.9131	25.66	0.44	0.750			
0.2219	14204.07	3.9920	3.9921	0.9184	25.67	0.45	0.750			
0.2247	14377.92	3.9890	3.9886	0.9203	25.67	0.45	0.750			
0.2274	14554.83	3.9860	3.9860	0.9226	25.67	0.45	0.750			
0.2302	14733.24	3.9830	3.9830	0.9304	25.67	0.45	0.750			
0.2330	14913.37	3.9800	3.9801	0.9396	25.67	0.45	0.750			
0.2359	15094.90	3.9770	3.9769	0.9386	25.67	0.45	0.750			
0.2387	15278.26	3.9740	3.9739	0.9322	25.67	0.45	0.750			
0.2415	15454.93	3.9710	3.9711	0.9375	25.68	0.46	0.750			
0.2443	15634.12	3.9680	3.9681	0.9412	25.68	0.46	0.750			
0.2471	15816.82	3.9650	3.9650	0.9454	25.69	0.47	0.750			
0.2499	15995.77	3.9620	3.9617	0.9435	25.69	0.47	0.750			
0.2528	16178.20	3.9590	3.9592	0.9465	25.69	0.47	0.750			
0.2557	16362.26	3.9560	3.9561	0.9566	25.69	0.47	0.750			
0.2585	16546.82	3.9530	3.9529	0.9604	25.69	0.47	0.750			
0.2614	16729.43	3.9500	3.9499	0.9556	25.69	0.47	0.750			
0.2643	16914.65	3.9470	3.9470	0.9573	25.69	0.47	0.750			
0.2672	17098.58	3.9440	3.9440	0.9622	25.69	0.47	0.750			
0.2700	17282.82	3.9410	3.9410	0.9667	25.70	0.48	0.750			
0.2729	17468.10	3.9380	3.9381	0.9685	25.70	0.48	0.750			
0.2759	17656.94	3.9350	3.9350	0.9680	25.70	0.48	0.750			
0.2788	17842.92	3.9320	3.9320	0.9736	25.70	0.48	0.750			
0.2817	18030.30	3.9290	3.9291	0.9781	25.71	0.49	0.750			
0.2847	18219.43	3.9260	3.9260	0.9806	25.71	0.49	0.750			
0.2876	18404.87	3.9230	3.9229	0.9803	25.71	0.49	0.750			
0.2905	18593.10	3.9200	3.9201	0.9829	25.72	0.50	0.750			
0.2935	18781.58	3.9170	3.9170	0.9897	25.72	0.50	0.750			
0.2965	18973.21	3.9140	3.9140	0.9977	25.73	0.51	0.750			
0.2994	19164.43	3.9110	3.9108	1.0041	25.73	0.51	0.750			
0.3025	19358.72	3.9080	3.9081	1.0077	25.73	0.51	0.750			
0.3055	19553.36	3.9050	3.9050	1.0157	25.73	0.51	0.750			
0.3086	19748.18	3.9020	3.9020	1.0220	25.73	0.51	0.750			
0.3116	19945.35	3.8990	3.8988	1.0252	25.73	0.51	0.750			
0.3147	20142.90	3.8960	3.8960	1.0280	25.73	0.51	0.750			
0.3178	20341.12	3.8930	3.8931	1.0311	25.74	0.52	0.750			
0.3209	20538.90	3.8900	3.8901	1.0364	25.74	0.52	0.750			
0.3240	20738.50	3.8870	3.8867	1.0373	25.75	0.53	0.750			
0.3271	20937.42	3.8840	3.8841	1.0378	25.75	0.53	0.750			
0.3302	21135.62	3.8810	3.8811	1.0479	25.75	0.53	0.750			
0.3334	21338.17	3.8780	3.8781	1.0601	25.76	0.54	0.750			
0.3366	21543.89	3.8750	3.8748	1.0698	25.76	0.54	0.750			
0.3398	21749.37	3.8720	3.8720	1.0758	25.76	0.54	0.750			
0.3431	21955.82	3.8690	3.8691	1.0853	25.76	0.54	0.750			
0.3464	22168.28	3.8660	3.8660	1.0931	25.77	0.55	0.750			
0.3497	22380.10	3.8630	3.8629	1.0853	25.77	0.55	0.750			
0.3529	22585.91	3.8600	3.8600	1.0925	25.77	0.55	0.750			
0.3562	22794.85	3.8570	3.8572	1.0993	25.78	0.56	0.750			
0.3595	23006.07	3.8540	3.8540	1.1105	25.78	0.56	0.750			
0.3628	23221.99	3.8510	3.8509	1.1131	25.78	0.56	0.750			
0.3662	23434.62	3.8480	3.8481	1.1277	25.78	0.56	0.750			
0.3696	23656.57	3.8450	3.8450	1.1380	25.79	0.57	0.750			
0.3730	23873.17	3.8420	3.8420	1.1528	25.79	0.57	0.750			
0.3765	24093.54	3.8390	3.8391	1.1622	25.79	0.57	0.750			
0.3800	24318.69	3.8360	3.8361	1.1775	25.79	0.57	0.750			
0.3836	24547.57	3.8330	3.8331	1.1893	25.79	0.57	0.750	0.316	0.412	
0.3872	24781.23	3.8300	3.8300	1.1970	25.79	0.57	0.750			
0.3908	25009.08	3.8270	3.8271	1.2006	25.79	0.57	0.750			
0.3944	25241.91	3.8240	3.8240	1.2057	25.79	0.57	0.750			
0.3980	25471.15	3.8210	3.8210	1.2022	25.79	0.57	0.750			
0.4016	25701.66	3.8180	3.8181	1.2136	25.79	0.57	0.750			
0.4053	25936.20	3.8150	3.8151	1.2231	25.78	0.56	0.750			
0.4089	26171.83	3.8120	3.8120	1.2338	25.77	0.55	0.750			
0.4127	26411.35	3.8090	3.8090	1.2462	25.77	0.55	0.750			
0.4164	26649.26	3.8060	3.8060	1.2519	25.76	0.54	0.750			
0.4202	26890.31	3.8030	3.8030	1.2717	25.76	0.54	0.750			
0.4241	27139.59	3.8000	3.7998	1.2662	25.75	0.53	0.750			
0.4278	27380.70	3.7970	3.7970	1.2826	25.74	0.52	0.750			
0.4317	27627.75	3.7940	3.7941	1.3025	25.74	0.52	0.750			
0.4357	27882.29	3.7910	3.7910	1.3033	25.73	0.51	0.750			
0.4396	28131.97	3.7880	3.7881	1.3210	25.72	0.50	0.750			
0.4435	28385.10	3.7850	3.7851	1.3362	25.71	0.49	0.750			
0.4476	28645.24	3.7820	3.7820	1.3425	25.70	0.48	0.750			
0.4517	28908.46	3.7790	3.7791	1.3648	25.68	0.46	0.750			
0.4557	29165.75	3.7760	3.7761	1.3648	25.67	0.45	0.750			
0.4599	29432.84	3.7730	3.7730	1.3621	25.66	0.44	0.750			
0.4640	29695.84	3.7700	3.7700	1.3920	25.65	0.43	0.750			
0.4681	29956.32	3.7670	3.7671	1.4052	25.64	0.42	0.750			
0.4724	30230.96	3.7640	3.7641	1.4170	25.63	0.41	0.750			
0.4767	30511.98	3.7610	3.7611	1.4453	25.61	0.39	0.750			
0.4810	30784.90	3.7580	3.7582	1.4735	25.60	0.38	0.750			
0.4855	31073.31	3.7550	3.7550	1.4932	25.59	0.37	0.750			
0.4901	31363.79	3.7520	3.7521	1.5260	25.58	0.36	0.750			
0.4946	31657.04	3.7490	3.7488	1.5477	25.57	0.35	0.750			
0.4993	31958.15	3.7460	3.7461	1.5913	25.55	0.33	0.750			
0.5041	32261.08	3.7430	3.7433	1.6474	25.54	0.32	0.750			
0.5092	32588.84	3.7400	3.7402	1.6878	25.53	0.31	0.750			
0.5143	32914.11	3.7370	3.7369	1.7384	25.51	0.29	0.750			
0.5197	33260.69	3.7340	3.7338	1.7956	25.50	0.28	0.750			
0.5252	33614.75	3.7310	3.7312	1.8527	25.48	0.26	0.750			
0.5310	33981.91	3.7280	3.7283	1.8962	25.46	0.24	0.750			
0.5366	34340.86	3.7250	3.7251	1.9490	25.45	0.23	0.750			
0.5424	34715.14	3.7220	3.7224	2.0022	25.43	0.21	0.750			
0.5485	35107.07	3.7190	3.7189	2.0577	25.40	0.18	0.750			
0.5548	35510.34	3.7160	3.7162	2.1456	25.39	0.17	0.750			
0.5614	35929.76	3.7130	3.7131	2.1727	25.37	0.15	0.750			
0.5683	36371.03	3.7100	3.7097	2.2624	25.35	0.13	0.750			
0.5749	36792.92	3.7070	3.7075	2.2892	25.34	0.12	0.750			
0.5819	37240.20	3.7040	3.7041	2.3695	25.32	0.10	0.750			
0.5892	37706.23	3.7010	3.7008	2.4531	25.29	0.07	0.750			
0.5968	38194.69	3.6980	3.6978	2.5514	25.28	0.06	0.750			
0.6047	38698.22	3.6950	3.6949	2.6000	25.25	0.03	0.750			
0.6123	39186.34	3.6920	3.6921	2.6304	25.23	0.01	0.750			
0.6200	39682.93	3.6890	3.6892	2.6741	25.21	-0.01	0.750			
0.6283	40212.90	3.6860	3.6861	2.7472	25.19	-0.03	0.750			
0.6368	40753.13	3.6830	3.6830	2.8350	25.17	-0.05	0.750			
0.6454	41306.36	3.6800	3.6799	2.9278	25.14	-0.08	0.750			
0.6546	41893.14	3.6770	3.6768	2.9696	25.12	-0.10	0.750			
0.6636	42469.47	3.6740	3.6741	3.0123	25.11	-0.11	0.750			
0.6728	43057.64	3.6710	3.6708	2.9747	25.10	-0.12	0.750			
0.6816	43621.49	3.6680	3.6679	2.9173	25.10	-0.12	0.750			
0.6905	44193.20	3.6650	3.6646	2.8919	25.10	-0.12	0.750			
0.6990	44733.41	3.6620	3.6618	2.7655	25.10	-0.12	0.750			
0.7070	45245.18	3.6590	3.6591	2.6132	25.10	-0.12	0.750			
0.7146	45731.98	3.6560	3.6562	2.4040	25.11	-0.11	0.750			
0.7217	46191.84	3.6530	3.6529	2.2256	25.12	-0.10	0.750			
0.7282	46607.75	3.6500	3.6503	2.0337	25.14	-0.08	0.750			
0.7340	46974.05	3.6470	3.6471	1.7819	25.15	-0.07	0.750			
0.7390	47295.38	3.6440	3.6441	1.5144	25.16	-0.06	0.750			
0.7430	47554.62	3.6410	3.6411	1.2903	25.17	-0.05	0.750			
0.7464	47767.45	3.6380	3.6382	1.0983	25.18	-0.04	0.750			
0.7492	47948.43	3.6350	3.6348	0.9294	25.18	-0.04	0.750			
0.7515	48094.84	3.6320	3.6322	0.7941	25.19	-0.03	0.750			
0.7537	48233.88	3.6290	3.6290	0.7120	25.19	-0.03	0.750			
0.7556	48359.51	3.6260	3.6261	0.6458	25.20	-0.02	0.750			
0.7575	48481.60	3.6230	3.6229	0.6005	25.21	-0.01	0.750			
0.7592	48585.63	3.6200	3.6200	0.5387	25.21	-0.01	0.750			
0.7607	48685.92	3.6170	3.6170	0.4899	25.22	-0.00	0.750			
0.7621	48776.64	3.6140	3.6139	0.4392	25.22	0.00	0.750			
0.7634	48858.06	3.6110	3.6110	0.3768	25.22	0.00	0.750			
0.7645	48925.53	3.6080	3.6081	0.3138	25.23	0.01	0.750			
0.7653	48980.39	3.6050	3.6050	0.2453	25.23	0.01	0.750			
0.7660	49021.32	3.6020	3.6023	0.1700	25.23	0.01	0.750			
0.7664	49046.78	3.5990	3.5999	0.0917	25.23	0.01	0.750			
