Ah_balance (normalized)	Ah_balance (mAh)	Voltage - fit (V)	Voltage -  interpolate (V)	dQ/dV (1/V)	Temperature (°C)	Temperature - diff (°C)	Current (C)	R_DC 0ms (mOhm)	R_DC 50ms (mOhm)	R_DC 50 ms PEC (mOhm)
0.0487	3115.52	4.1970	4.1971	0.7440	25.75	0.59	0.750			
0.0509	3258.95	4.1940	4.1936	0.7485	25.75	0.59	0.750			
0.0532	3403.25	4.1910	4.1911	0.7521	25.75	0.59	0.750			
0.0554	3548.55	4.1880	4.1880	0.7521	25.75	0.59	0.750			
0.0577	3693.27	4.1850	4.1850	0.7552	25.75	0.59	0.750			
0.0600	3838.64	4.1820	4.1820	0.7598	25.75	0.59	0.750			
0.0622	3983.99	4.1790	4.1790	0.7585	25.75	0.59	0.750			
0.0645	4129.25	4.1760	4.1760	0.7597	25.75	0.59	0.750			
0.0668	4275.73	4.1730	4.1730	0.7597	25.76	0.60	0.750			
0.0691	4421.20	4.1700	4.1701	0.7565	25.76	0.60	0.750			
0.0713	4566.12	4.1670	4.1671	0.7593	25.76	0.60	0.750			
0.0736	4710.30	4.1640	4.1641	0.7619	25.77	0.61	0.750			
0.0759	4856.57	4.1610	4.1606	0.7651	25.77	0.61	0.750			
0.0782	5004.44	4.1580	4.1581	0.7690	25.77	0.61	0.750			
0.0805	5153.51	4.1550	4.1551	0.7661	25.77	0.61	0.750			
0.0829	5302.94	4.1520	4.1520	0.7716	25.77	0.61	0.750			
0.0851	5449.15	4.1490	4.1490	0.7643	25.77	0.61	0.750			
0.0874	5595.43	4.1460	4.1460	0.7627	25.77	0.61	0.750			
0.0897	5741.13	4.1430	4.1430	0.7670	25.77	0.61	0.750			
0.0920	5888.66	4.1400	4.1401	0.7701	25.77	0.61	0.750			
0.0943	6037.18	4.1370	4.1369	0.7742	25.77	0.61	0.750			
0.0967	6188.21	4.1340	4.1340	0.7794	25.77	0.61	0.750			
0.0990	6336.28	4.1310	4.1311	0.7769	25.77	0.61	0.750			
0.1013	6486.36	4.1280	4.1280	0.7789	25.77	0.61	0.750			
0.1037	6636.32	4.1250	4.1250	0.7795	25.77	0.61	0.750			
0.1060	6784.63	4.1220	4.1220	0.7738	25.77	0.61	0.750			
0.1083	6933.20	4.1190	4.1190	0.7758	25.77	0.61	0.750			
0.1106	7081.26	4.1160	4.1160	0.7799	25.77	0.61	0.750			
0.1130	7231.48	4.1130	4.1127	0.7835	25.77	0.61	0.750			
0.1153	7382.09	4.1100	4.1100	0.7852	25.77	0.61	0.750			
0.1177	7535.60	4.1070	4.1070	0.7816	25.78	0.62	0.750			
0.1201	7685.51	4.1040	4.1041	0.7876	25.78	0.62	0.750			
0.1225	7837.18	4.1010	4.1010	0.7886	25.78	0.62	0.750			
0.1248	7985.86	4.0980	4.0980	0.7881	25.79	0.63	0.750			
0.1271	8136.75	4.0950	4.0950	0.7920	25.79	0.63	0.750			
0.1295	8290.05	4.0920	4.0921	0.7951	25.79	0.63	0.750			
0.1319	8443.31	4.0890	4.0890	0.8002	25.79	0.63	0.750			
0.1344	8600.14	4.0860	4.0860	0.8049	25.79	0.63	0.750			
0.1368	8752.11	4.0830	4.0830	0.8002	25.79	0.63	0.750			
0.1392	8905.67	4.0800	4.0800	0.8059	25.79	0.63	0.750			
0.1416	9060.49	4.0770	4.0770	0.8090	25.79	0.63	0.750			
0.1440	9215.06	4.0740	4.0740	0.8055	25.79	0.63	0.750			
0.1464	9369.46	4.0710	4.0711	0.8095	25.79	0.63	0.750			
0.1488	9523.76	4.0680	4.0681	0.8135	25.79	0.63	0.750			
0.1513	9681.20	4.0650	4.0646	0.8180	25.79	0.63	0.750			
0.1537	9838.66	4.0620	4.0622	0.8192	25.79	0.63	0.750			
0.1562	9996.04	4.0590	4.0591	0.8182	25.80	0.64	0.750			
0.1587	10155.04	4.0560	4.0561	0.8248	25.80	0.64	0.750			
0.1611	10311.00	4.0530	4.0530	0.8234	25.81	0.65	0.750			
0.1636	10470.18	4.0500	4.0498	0.8260	25.81	0.65	0.750			
0.1661	10630.00	4.0470	4.0470	0.8276	25.81	0.65	0.750			
0.1686	10789.03	4.0440	4.0441	0.8325	25.81	0.65	0.750			
0.1711	10951.39	4.0410	4.0411	0.8371	25.81	0.65	0.750			
0.1736	11110.76	4.0380	4.0379	0.8335	25.81	0.65	0.750			
0.1761	11270.83	4.0350	4.0350	0.8349	25.81	0.65	0.750			
0.1786	11433.02	4.0320	4.0321	0.8317	25.81	0.65	0.750			
0.1811	11592.95	4.0290	4.0290	0.8419	25.81	0.65	0.750			
0.1837	11753.70	4.0260	4.0260	0.8422	25.81	0.65	0.750			
0.1861	11913.39	4.0230	4.0230	0.8469	25.81	0.65	0.750			
0.1887	12076.77	4.0200	4.0198	0.8527	25.81	0.65	0.750			
0.1913	12241.55	4.0170	4.0171	0.8586	25.81	0.65	0.750			
0.1939	12408.47	4.0140	4.0140	0.8563	25.81	0.65	0.750			
0.1964	12571.76	4.0110	4.0112	0.8612	25.82	0.66	0.750			
0.1990	12735.72	4.0080	4.0081	0.8578	25.82	0.66	0.750			
0.2016	12900.48	4.0050	4.0052	0.8628	25.82	0.66	0.750			
0.2042	13066.81	4.0020	4.0021	0.8638	25.82	0.66	0.750			
0.2068	13234.35	3.9990	3.9991	0.8718	25.82	0.66	0.750			
0.2094	13403.21	3.9960	3.9960	0.8736	25.83	0.67	0.750			
0.2120	13569.40	3.9930	3.9931	0.8674	25.83	0.67	0.750			
0.2146	13736.04	3.9900	3.9900	0.8735	25.83	0.67	0.750			
0.2173	13905.67	3.9870	3.9870	0.8745	25.83	0.67	0.750			
0.2199	14073.32	3.9840	3.9840	0.8753	25.84	0.68	0.750			
0.2225	14241.97	3.9810	3.9810	0.8796	25.84	0.68	0.750			
0.2252	14409.76	3.9780	3.9779	0.8803	25.84	0.68	0.750			
0.2278	14579.49	3.9750	3.9750	0.8834	25.84	0.68	0.750			
0.2305	14748.85	3.9720	3.9720	0.8839	25.84	0.68	0.750			
0.2331	14918.13	3.9690	3.9691	0.8884	25.83	0.67	0.750			
0.2358	15089.87	3.9660	3.9660	0.8961	25.83	0.67	0.750			
0.2385	15261.78	3.9630	3.9629	0.8964	25.83	0.67	0.750			
0.2412	15435.11	3.9600	3.9601	0.8928	25.83	0.67	0.750			
0.2439	15606.62	3.9570	3.9571	0.8937	25.83	0.67	0.750			
0.2466	15779.41	3.9540	3.9540	0.8959	25.84	0.68	0.750			
0.2492	15951.18	3.9510	3.9510	0.8953	25.84	0.68	0.750			
0.2519	16120.22	3.9480	3.9480	0.8942	25.84	0.68	0.750			
0.2546	16291.89	3.9450	3.9450	0.8953	25.84	0.68	0.750			
0.2573	16464.91	3.9420	3.9420	0.8998	25.83	0.67	0.750			
0.2600	16638.09	3.9390	3.9391	0.9032	25.83	0.67	0.750			
0.2627	16811.30	3.9360	3.9358	0.9042	25.83	0.67	0.750			
0.2654	16986.45	3.9330	3.9331	0.9018	25.83	0.67	0.750			
0.2681	17159.73	3.9300	3.9300	0.8999	25.83	0.67	0.750			
0.2708	17332.15	3.9270	3.9270	0.8991	25.83	0.67	0.750			
0.2735	17505.40	3.9240	3.9240	0.8996	25.83	0.67	0.750			
0.2762	17675.70	3.9210	3.9211	0.8978	25.83	0.67	0.750			
0.2789	17848.84	3.9180	3.9180	0.8947	25.83	0.67	0.750			
0.2816	18020.68	3.9150	3.9150	0.8986	25.83	0.67	0.750			
0.2843	18193.82	3.9120	3.9121	0.9034	25.82	0.66	0.750			
0.2870	18367.35	3.9090	3.9090	0.9036	25.82	0.66	0.750			
0.2897	18540.58	3.9060	3.9061	0.9046	25.82	0.66	0.750			
0.2924	18714.17	3.9030	3.9029	0.9006	25.81	0.65	0.750			
0.2951	18887.03	3.9000	3.9000	0.9001	25.80	0.64	0.750			
0.2978	19061.16	3.8970	3.8970	0.9050	25.80	0.64	0.750			
0.3005	19232.57	3.8940	3.8936	0.9025	25.79	0.63	0.750			
0.3032	19407.86	3.8910	3.8910	0.8994	25.79	0.63	0.750			
0.3059	19580.28	3.8880	3.8881	0.9033	25.78	0.62	0.750			
0.3087	19754.09	3.8850	3.8850	0.9050	25.78	0.62	0.750			
0.3114	19928.47	3.8820	3.8820	0.9095	25.77	0.61	0.750			
0.3141	20101.34	3.8790	3.8789	0.9080	25.77	0.61	0.750			
0.3168	20275.51	3.8760	3.8760	0.9089	25.76	0.60	0.750			
0.3196	20451.50	3.8730	3.8731	0.9091	25.75	0.59	0.750			
0.3223	20627.11	3.8700	3.8699	0.9102	25.74	0.58	0.750			
0.3250	20801.39	3.8670	3.8670	0.9066	25.73	0.57	0.750			
0.3277	20974.54	3.8640	3.8640	0.9090	25.73	0.57	0.750			
0.3304	21148.44	3.8610	3.8610	0.9059	25.72	0.56	0.750			
0.3332	21322.25	3.8580	3.8580	0.9108	25.71	0.55	0.750			
0.3359	21497.21	3.8550	3.8550	0.9175	25.71	0.55	0.750			
0.3387	21674.30	3.8520	3.8520	0.9232	25.70	0.54	0.750			
0.3415	21855.69	3.8490	3.8490	0.9139	25.69	0.53	0.750			
0.3442	22029.48	3.8460	3.8460	0.9017	25.69	0.53	0.750			
0.3468	22194.37	3.8430	3.8434	0.9201	25.68	0.52	0.750			
0.3495	22367.62	3.8400	3.8403	0.9347	25.67	0.51	0.750			
0.3524	22551.15	3.8370	3.8375	0.9501	25.66	0.50	0.750	0.328	0.456	
0.3553	22736.04	3.8340	3.8344	0.9665	25.65	0.49	0.750			
0.3582	22927.86	3.8310	3.8312	0.9846	25.64	0.48	0.750			
0.3614	23130.06	3.8280	3.8281	1.0015	25.63	0.47	0.750			
0.3642	23311.52	3.8250	3.8250	0.9707	25.62	0.46	0.750			
0.3672	23499.02	3.8220	3.8220	0.9745	25.60	0.44	0.750			
0.3701	23685.16	3.8190	3.8190	0.9828	25.59	0.43	0.750			
0.3731	23875.47	3.8160	3.8161	0.9924	25.58	0.42	0.750			
0.3760	24066.83	3.8130	3.8128	1.0005	25.57	0.41	0.750			
0.3791	24260.55	3.8100	3.8101	1.0048	25.56	0.40	0.750			
0.3821	24452.50	3.8070	3.8071	1.0168	25.55	0.39	0.750			
0.3851	24648.55	3.8040	3.8040	1.0310	25.54	0.38	0.750			
0.3883	24848.88	3.8010	3.8008	1.0441	25.53	0.37	0.750			
0.3914	25047.41	3.7980	3.7980	1.0538	25.52	0.36	0.750			
0.3946	25251.88	3.7950	3.7951	1.0712	25.51	0.35	0.750			
0.3978	25459.17	3.7920	3.7920	1.0910	25.50	0.34	0.750			
0.4012	25675.48	3.7890	3.7889	1.0918	25.49	0.33	0.750			
0.4044	25882.98	3.7860	3.7860	1.1064	25.48	0.32	0.750			
0.4077	26093.46	3.7830	3.7831	1.1285	25.47	0.31	0.750			
0.4111	26311.68	3.7800	3.7801	1.1524	25.46	0.30	0.750			
0.4146	26534.56	3.7770	3.7771	1.1636	25.44	0.28	0.750			
0.4181	26758.15	3.7740	3.7741	1.1941	25.43	0.27	0.750			
0.4217	26989.33	3.7710	3.7711	1.2218	25.42	0.26	0.750			
0.4254	27228.22	3.7680	3.7677	1.2587	25.40	0.24	0.750			
0.4292	27470.88	3.7650	3.7651	1.2801	25.39	0.23	0.750			
0.4331	27721.07	3.7620	3.7621	1.3106	25.38	0.22	0.750			
0.4372	27983.18	3.7590	3.7589	1.3307	25.36	0.20	0.750			
0.4412	28236.76	3.7560	3.7561	1.3528	25.35	0.19	0.750			
0.4453	28497.38	3.7530	3.7531	1.3818	25.33	0.17	0.750			
0.4495	28765.96	3.7500	3.7499	1.4041	25.32	0.16	0.750			
0.4538	29040.03	3.7470	3.7470	1.4233	25.30	0.14	0.750			
0.4580	29313.01	3.7440	3.7441	1.4631	25.29	0.13	0.750			
0.4624	29594.88	3.7410	3.7409	1.5010	25.27	0.11	0.750			
0.4669	29884.67	3.7380	3.7382	1.5366	25.26	0.10	0.750			
0.4716	30184.13	3.7350	3.7349	1.5818	25.24	0.08	0.750			
0.4765	30492.87	3.7320	3.7318	1.6232	25.22	0.06	0.750			
0.4814	30807.72	3.7290	3.7291	1.6745	25.20	0.04	0.750			
0.4865	31133.91	3.7260	3.7261	1.7363	25.19	0.03	0.750			
0.4918	31473.60	3.7230	3.7228	1.7580	25.17	0.01	0.750			
0.4971	31811.67	3.7200	3.7201	1.8137	25.16	-0.00	0.750			
0.5026	32164.42	3.7170	3.7172	1.8719	25.15	-0.01	0.750			
0.5084	32535.54	3.7140	3.7138	1.9226	25.13	-0.03	0.750			
0.5141	32904.59	3.7110	3.7108	1.9758	25.12	-0.04	0.750			
0.5201	33288.66	3.7080	3.7079	2.0351	25.10	-0.06	0.750			
0.5265	33694.50	3.7050	3.7048	2.1046	25.08	-0.08	0.750			
0.5327	34095.14	3.7020	3.7021	2.1596	25.07	-0.09	0.750			
0.5393	34518.39	3.6990	3.6990	2.2126	25.06	-0.10	0.750			
0.5461	34951.89	3.6960	3.6959	2.2779	25.04	-0.12	0.750			
0.5530	35392.00	3.6930	3.6930	2.3346	25.03	-0.13	0.750			
0.5601	35845.45	3.6900	3.6901	2.3945	25.02	-0.14	0.750			
0.5674	36312.22	3.6870	3.6871	2.4490	25.01	-0.15	0.750			
0.5749	36791.53	3.6840	3.6839	2.5068	25.00	-0.16	0.750			
0.5825	37281.46	3.6810	3.6809	2.5569	24.99	-0.17	0.750			
0.5904	37783.47	3.6780	3.6780	2.5599	24.98	-0.18	0.750			
0.5979	38264.84	3.6750	3.6752	2.5251	24.98	-0.18	0.750			
0.6054	38747.16	3.6720	3.6720	2.4365	24.98	-0.18	0.750			
0.6127	39215.23	3.6690	3.6689	2.3342	24.98	-0.18	0.750			
0.6197	39658.43	3.6660	3.6658	2.2022	24.98	-0.18	0.750			
0.6260	40061.98	3.6630	3.6631	2.0372	24.98	-0.18	0.750			
0.6318	40435.47	3.6600	3.6600	1.8704	24.99	-0.17	0.750			
0.6371	40773.51	3.6570	3.6570	1.7191	25.00	-0.16	0.750			
0.6421	41091.93	3.6540	3.6541	1.5917	25.01	-0.15	0.750			
0.6466	41383.37	3.6510	3.6511	1.4821	25.01	-0.15	0.750			
0.6508	41653.04	3.6480	3.6476	1.3638	25.02	-0.14	0.750			
0.6547	41903.18	3.6450	3.6451	1.2688	25.03	-0.13	0.750			
0.6583	42132.92	3.6420	3.6421	1.1870	25.03	-0.13	0.750			
0.6618	42353.16	3.6390	3.6390	1.1254	25.04	-0.12	0.750			
0.6650	42561.83	3.6360	3.6360	1.0591	25.04	-0.12	0.750			
0.6681	42755.99	3.6330	3.6330	1.0147	25.05	-0.11	0.750			
0.6710	42944.65	3.6300	3.6300	0.9786	25.05	-0.11	0.750			
0.6739	43129.03	3.6270	3.6270	0.9506	25.06	-0.10	0.750			
0.6767	43307.48	3.6240	3.6240	0.9180	25.06	-0.10	0.750			
0.6794	43483.60	3.6210	3.6210	0.8781	25.07	-0.09	0.750			
0.6821	43652.75	3.6180	3.6180	0.8389	25.08	-0.08	0.750			
0.6845	43810.42	3.6150	3.6151	0.7996	25.09	-0.07	0.750			
0.6869	43958.90	3.6120	3.6121	0.7486	25.10	-0.06	0.750			
0.6890	44097.47	3.6090	3.6091	0.7009	25.10	-0.06	0.750			
0.6911	44228.13	3.6060	3.6064	0.6486	25.11	-0.05	0.750			
0.6929	44348.33	3.6030	3.6031	0.5988	25.12	-0.04	0.750			
0.6947	44459.55	3.6000	3.6000	0.5454	25.13	-0.03	0.750			
0.6962	44558.93	3.5970	3.5971	0.4897	25.14	-0.02	0.750			
0.6976	44646.79	3.5940	3.5939	0.4332	25.14	-0.02	0.750			
0.6988	44725.23	3.5910	3.5911	0.3850	25.15	-0.01	0.750			
0.6999	44793.95	3.5880	3.5880	0.3333	25.16	-0.00	0.750			
0.7008	44853.39	3.5850	3.5848	0.2847	25.16	0.00	0.750			
0.7016	44903.19	3.5820	3.5821	0.2351	25.16	0.00	0.750			
0.7023	44944.11	3.5790	3.5792	0.1863	25.17	0.01	0.750			
0.7027	44975.83	3.5760	3.5765	0.1335	25.17	0.01	0.750			
0.7031	44996.54	3.5730	3.5736	0.0657	25.17	0.01	0.750			
