Ah_balance (normalized)	Ah_balance (mAh)	Voltage - fit (V)	Voltage -  interpolate (V)	dQ/dV (1/V)	Temperature (°C)	Temperature - diff (°C)	Current (C)	R_DC 0ms (mOhm)	R_DC 50ms (mOhm)	R_DC 50 ms PEC (mOhm)
0.0496	3171.48	4.1960	4.1960	0.7425	25.75	0.54	0.750			
0.0518	3314.79	4.1930	4.1930	0.7476	25.75	0.54	0.750			
0.0541	3459.31	4.1900	4.1900	0.7490	25.75	0.54	0.750			
0.0563	3605.56	4.1870	4.1869	0.7331	25.75	0.54	0.750			
0.0585	3744.62	4.1840	4.1841	0.7422	25.75	0.54	0.750			
0.0607	3884.72	4.1810	4.1811	0.7418	25.75	0.54	0.750			
0.0629	4026.33	4.1780	4.1775	0.7478	25.75	0.54	0.750			
0.0651	4168.85	4.1750	4.1752	0.7546	25.75	0.54	0.750			
0.0675	4317.04	4.1720	4.1720	0.7565	25.75	0.54	0.750			
0.0698	4465.93	4.1690	4.1690	0.7710	25.75	0.54	0.750			
0.0721	4614.19	4.1660	4.1661	0.7637	25.75	0.54	0.750			
0.0744	4760.97	4.1630	4.1630	0.7654	25.75	0.54	0.750			
0.0767	4908.64	4.1600	4.1602	0.7653	25.75	0.54	0.750			
0.0790	5055.01	4.1570	4.1570	0.7645	25.75	0.54	0.750			
0.0813	5201.70	4.1540	4.1540	0.7626	25.75	0.54	0.750			
0.0836	5349.04	4.1510	4.1510	0.7627	25.75	0.54	0.750			
0.0858	5492.60	4.1480	4.1480	0.7587	25.75	0.54	0.750			
0.0881	5640.82	4.1450	4.1451	0.7631	25.75	0.54	0.750			
0.0904	5786.82	4.1420	4.1420	0.7644	25.75	0.54	0.750			
0.0928	5936.13	4.1390	4.1389	0.7609	25.75	0.54	0.750			
0.0950	6080.37	4.1360	4.1361	0.7660	25.76	0.55	0.750			
0.0973	6227.59	4.1330	4.1331	0.7667	25.76	0.55	0.750			
0.0996	6374.15	4.1300	4.1299	0.7693	25.76	0.55	0.750			
0.1019	6521.76	4.1270	4.1271	0.7718	25.76	0.55	0.750			
0.1042	6671.02	4.1240	4.1240	0.7739	25.76	0.55	0.750			
0.1066	6819.35	4.1210	4.1210	0.7674	25.76	0.55	0.750			
0.1089	6967.30	4.1180	4.1181	0.7754	25.76	0.55	0.750			
0.1111	7112.95	4.1150	4.1151	0.7742	25.76	0.55	0.750			
0.1135	7262.91	4.1120	4.1120	0.7833	25.76	0.55	0.750			
0.1158	7412.87	4.1090	4.1091	0.7861	25.76	0.55	0.750			
0.1182	7566.75	4.1060	4.1060	0.7872	25.76	0.55	0.750			
0.1207	7722.25	4.1030	4.1030	0.7917	25.77	0.56	0.750			
0.1230	7872.00	4.1000	4.1000	0.7823	25.77	0.56	0.750			
0.1253	8020.66	4.0970	4.0969	0.7836	25.77	0.56	0.750			
0.1277	8169.66	4.0940	4.0940	0.7825	25.77	0.56	0.750			
0.1300	8321.45	4.0910	4.0910	0.7789	25.78	0.57	0.750			
0.1323	8470.23	4.0880	4.0880	0.7874	25.78	0.57	0.750			
0.1347	8622.53	4.0850	4.0851	0.7921	25.78	0.57	0.750			
0.1371	8774.73	4.0820	4.0820	0.7921	25.79	0.58	0.750			
0.1395	8926.38	4.0790	4.0791	0.7955	25.79	0.58	0.750			
0.1419	9083.63	4.0760	4.0761	0.7838	25.79	0.58	0.750			
0.1443	9232.95	4.0730	4.0730	0.7885	25.79	0.58	0.750			
0.1466	9383.22	4.0700	4.0700	0.7937	25.79	0.58	0.750			
0.1489	9531.45	4.0670	4.0672	0.7951	25.79	0.58	0.750			
0.1513	9684.12	4.0640	4.0638	0.8034	25.79	0.58	0.750			
0.1538	9840.49	4.0610	4.0611	0.8118	25.79	0.58	0.750			
0.1562	9998.77	4.0580	4.0581	0.8199	25.79	0.58	0.750			
0.1587	10159.97	4.0550	4.0550	0.8282	25.80	0.59	0.750			
0.1612	10318.43	4.0520	4.0521	0.8204	25.80	0.59	0.750			
0.1637	10475.58	4.0490	4.0489	0.8198	25.80	0.59	0.750			
0.1661	10632.99	4.0460	4.0460	0.8258	25.80	0.59	0.750			
0.1686	10788.35	4.0430	4.0431	0.8386	25.80	0.59	0.750			
0.1711	10949.66	4.0400	4.0400	0.8550	25.81	0.60	0.750			
0.1737	11116.59	4.0370	4.0369	0.8679	25.81	0.60	0.750			
0.1764	11287.97	4.0340	4.0340	0.8744	25.81	0.60	0.750			
0.1791	11460.05	4.0310	4.0312	0.8701	25.81	0.60	0.750			
0.1817	11628.29	4.0280	4.0281	0.8654	25.81	0.60	0.750			
0.1843	11792.66	4.0250	4.0250	0.8596	25.81	0.60	0.750			
0.1867	11951.96	4.0220	4.0221	0.8424	25.81	0.60	0.750			
0.1893	12113.69	4.0190	4.0191	0.8477	25.81	0.60	0.750			
0.1919	12278.41	4.0160	4.0160	0.8510	25.81	0.60	0.750			
0.1944	12443.00	4.0130	4.0130	0.8563	25.82	0.61	0.750			
0.1970	12607.81	4.0100	4.0100	0.8586	25.82	0.61	0.750			
0.1996	12773.27	4.0070	4.0070	0.8559	25.82	0.61	0.750			
0.2021	12937.24	4.0040	4.0041	0.8563	25.82	0.61	0.750			
0.2047	13102.76	4.0010	4.0010	0.8523	25.82	0.61	0.750			
0.2073	13264.96	3.9980	3.9980	0.8568	25.83	0.62	0.750			
0.2098	13429.57	3.9950	3.9950	0.8599	25.83	0.62	0.750			
0.2124	13593.93	3.9920	3.9919	0.8655	25.83	0.62	0.750			
0.2150	13760.24	3.9890	3.9890	0.8702	25.83	0.62	0.750			
0.2176	13928.84	3.9860	3.9860	0.8705	25.83	0.62	0.750			
0.2202	14095.71	3.9830	3.9830	0.8728	25.83	0.62	0.750			
0.2229	14264.40	3.9800	3.9801	0.8716	25.83	0.62	0.750			
0.2255	14432.12	3.9770	3.9766	0.8734	25.83	0.62	0.750			
0.2281	14600.42	3.9740	3.9740	0.8729	25.83	0.62	0.750			
0.2307	14767.41	3.9710	3.9711	0.8727	25.83	0.62	0.750			
0.2334	14935.13	3.9680	3.9679	0.8764	25.82	0.61	0.750			
0.2360	15104.40	3.9650	3.9650	0.8784	25.82	0.61	0.750			
0.2386	15271.27	3.9620	3.9620	0.8724	25.82	0.61	0.750			
0.2413	15442.31	3.9590	3.9589	0.8581	25.82	0.61	0.750			
0.2439	15611.20	3.9560	3.9560	0.8274	25.82	0.61	0.750			
0.2463	15760.63	3.9530	3.9533	0.8252	25.81	0.60	0.750			
0.2486	15912.89	3.9500	3.9505	0.8203	25.81	0.60	0.750			
0.2511	16067.85	3.9470	3.9463	0.8324	25.81	0.60	0.750			
0.2535	16224.77	3.9440	3.9442	0.8423	25.81	0.60	0.750			
0.2561	16390.04	3.9410	3.9412	0.8522	25.81	0.60	0.750			
0.2588	16563.44	3.9380	3.9382	0.8819	25.81	0.60	0.750			
0.2614	16730.40	3.9350	3.9351	0.8744	25.81	0.60	0.750			
0.2640	16898.42	3.9320	3.9321	0.8745	25.81	0.60	0.750			
0.2667	17067.35	3.9290	3.9291	0.8791	25.80	0.59	0.750			
0.2693	17237.74	3.9260	3.9261	0.8810	25.80	0.59	0.750			
0.2720	17410.45	3.9230	3.9230	0.8847	25.80	0.59	0.750			
0.2747	17577.78	3.9200	3.9199	0.8724	25.79	0.58	0.750			
0.2773	17745.11	3.9170	3.9171	0.8692	25.79	0.58	0.750			
0.2799	17914.67	3.9140	3.9139	0.8515	25.78	0.57	0.750			
0.2824	18074.69	3.9110	3.9111	0.8617	25.78	0.57	0.750			
0.2850	18237.77	3.9080	3.9081	0.8640	25.78	0.57	0.750			
0.2876	18404.21	3.9050	3.9048	0.8677	25.77	0.56	0.750			
0.2902	18570.83	3.9020	3.9022	0.8719	25.77	0.56	0.750			
0.2928	18740.11	3.8990	3.8991	0.8704	25.76	0.55	0.750			
0.2954	18908.29	3.8960	3.8961	0.8730	25.76	0.55	0.750			
0.2980	19074.35	3.8930	3.8930	0.8676	25.75	0.54	0.750			
0.3006	19241.51	3.8900	3.8890	0.8742	25.75	0.54	0.750			
0.3033	19410.62	3.8870	3.8871	0.8726	25.74	0.53	0.750			
0.3059	19579.34	3.8840	3.8841	0.8793	25.74	0.53	0.750			
0.3086	19750.48	3.8810	3.8811	0.8848	25.73	0.52	0.750			
0.3113	19921.13	3.8780	3.8780	0.8873	25.72	0.51	0.750			
0.3139	20087.83	3.8750	3.8750	0.8829	25.72	0.51	0.750			
0.3166	20261.97	3.8720	3.8719	0.8653	25.71	0.50	0.750			
0.3192	20426.80	3.8690	3.8690	0.8743	25.71	0.50	0.750			
0.3218	20595.25	3.8660	3.8661	0.8713	25.70	0.49	0.750			
0.3244	20759.68	3.8630	3.8632	0.8719	25.69	0.48	0.750			
0.3270	20928.71	3.8600	3.8602	0.8726	25.69	0.48	0.750			
0.3296	21094.97	3.8570	3.8572	0.8844	25.68	0.47	0.750			
0.3323	21266.49	3.8540	3.8543	0.8920	25.67	0.46	0.750			
0.3350	21438.94	3.8510	3.8512	0.9139	25.66	0.45	0.750			
0.3377	21614.99	3.8480	3.8482	0.9166	25.65	0.44	0.750			
0.3405	21794.81	3.8450	3.8451	0.9309	25.64	0.43	0.750			
0.3433	21974.24	3.8420	3.8421	0.9322	25.63	0.42	0.750	0.317	0.457	
0.3462	22154.93	3.8390	3.8391	0.9423	25.62	0.41	0.750			
0.3490	22336.76	3.8360	3.8360	0.9404	25.62	0.41	0.750			
0.3519	22519.86	3.8330	3.8330	0.9482	25.61	0.40	0.750			
0.3548	22707.74	3.8300	3.8299	0.9225	25.60	0.39	0.750			
0.3575	22878.63	3.8270	3.8271	0.9417	25.59	0.38	0.750			
0.3603	23057.13	3.8240	3.8242	0.9494	25.59	0.38	0.750			
0.3631	23239.07	3.8210	3.8200	0.9607	25.58	0.37	0.750			
0.3660	23425.47	3.8180	3.8181	0.9612	25.57	0.36	0.750			
0.3689	23611.03	3.8150	3.8152	0.9795	25.56	0.35	0.750			
0.3719	23800.84	3.8120	3.8121	0.9969	25.54	0.33	0.750			
0.3749	23994.71	3.8090	3.8090	1.0007	25.53	0.32	0.750			
0.3780	24191.25	3.8060	3.8060	1.0014	25.52	0.31	0.750			
0.3810	24386.91	3.8030	3.8031	1.0134	25.51	0.30	0.750			
0.3841	24581.09	3.8000	3.8001	1.0289	25.50	0.29	0.750			
0.3872	24783.26	3.7970	3.7970	1.0461	25.48	0.27	0.750			
0.3903	24980.06	3.7940	3.7943	1.0404	25.47	0.26	0.750			
0.3934	25174.68	3.7910	3.7915	1.0650	25.47	0.26	0.750			
0.3965	25378.92	3.7880	3.7884	1.1019	25.46	0.25	0.750			
0.4000	25597.22	3.7850	3.7851	1.1368	25.45	0.24	0.750			
0.4034	25817.87	3.7820	3.7822	1.1290	25.44	0.23	0.750			
0.4068	26035.57	3.7790	3.7794	1.1546	25.43	0.22	0.750			
0.4103	26261.40	3.7760	3.7763	1.1843	25.42	0.21	0.750			
0.4140	26494.60	3.7730	3.7731	1.1987	25.41	0.20	0.750			
0.4175	26721.10	3.7700	3.7701	1.1930	25.40	0.19	0.750			
0.4211	26951.90	3.7670	3.7672	1.2276	25.38	0.17	0.750			
0.4250	27198.84	3.7640	3.7639	1.2557	25.37	0.16	0.750			
0.4287	27435.62	3.7610	3.7611	1.2621	25.36	0.15	0.750			
0.4325	27677.76	3.7580	3.7584	1.3032	25.35	0.14	0.750			
0.4364	27928.76	3.7550	3.7552	1.3488	25.34	0.13	0.750			
0.4406	28196.93	3.7520	3.7523	1.3548	25.33	0.12	0.750			
0.4447	28459.34	3.7490	3.7493	1.3971	25.32	0.11	0.750			
0.4490	28736.50	3.7460	3.7463	1.4159	25.31	0.10	0.750			
0.4533	29008.47	3.7430	3.7432	1.4785	25.29	0.08	0.750			
0.4577	29290.71	3.7400	3.7403	1.5152	25.28	0.07	0.750			
0.4624	29592.37	3.7370	3.7371	1.5048	25.27	0.06	0.750			
0.4671	29892.18	3.7340	3.7339	1.5455	25.26	0.05	0.750			
0.4717	30185.83	3.7310	3.7314	1.5671	25.24	0.03	0.750			
0.4764	30487.66	3.7280	3.7277	1.6083	25.23	0.02	0.750			
0.4813	30802.83	3.7250	3.7253	1.6846	25.22	0.01	0.750			
0.4862	31118.56	3.7220	3.7226	1.7525	25.20	-0.01	0.750			
0.4918	31475.12	3.7190	3.7194	1.7779	25.19	-0.02	0.750			
0.4973	31829.21	3.7160	3.7155	1.8610	25.18	-0.03	0.750			
0.5027	32175.91	3.7130	3.7137	1.9316	25.16	-0.05	0.750			
0.5085	32544.41	3.7100	3.7095	2.0021	25.15	-0.06	0.750			
0.5144	32922.55	3.7070	3.7067	2.0525	25.14	-0.07	0.750			
0.5206	33321.25	3.7040	3.7049	2.0642	25.12	-0.09	0.750			
0.5271	33733.61	3.7010	3.7010	2.2517	25.11	-0.10	0.750			
0.5339	34168.88	3.6980	3.6982	2.2886	25.10	-0.11	0.750			
0.5405	34591.95	3.6950	3.6945	2.3349	25.10	-0.11	0.750			
0.5475	35041.26	3.6920	3.6923	2.3454	25.08	-0.13	0.750			
0.5542	35466.43	3.6890	3.6882	2.4368	25.07	-0.14	0.750			
0.5614	35926.73	3.6860	3.6864	2.3580	25.06	-0.15	0.750			
0.5681	36360.45	3.6830	3.6825	2.5027	25.06	-0.15	0.750			
0.5758	36851.42	3.6800	3.6803	2.4528	25.06	-0.15	0.750			
0.5830	37309.90	3.6770	3.6768	2.3629	25.05	-0.16	0.750			
0.5898	37747.63	3.6740	3.6745	2.1718	25.04	-0.17	0.750			
0.5956	38117.72	3.6710	3.6716	2.0532	25.05	-0.16	0.750			
0.6015	38496.08	3.6680	3.6676	1.9822	25.06	-0.15	0.750			
0.6075	38881.79	3.6650	3.6653	1.9165	25.07	-0.14	0.750			
0.6131	39240.02	3.6620	3.6627	1.7994	25.08	-0.13	0.750			
0.6184	39578.96	3.6590	3.6597	1.6672	25.09	-0.12	0.750			
0.6233	39890.32	3.6560	3.6559	1.5354	25.10	-0.11	0.750			
0.6276	40165.89	3.6530	3.6534	1.4306	25.10	-0.11	0.750			
0.6315	40414.50	3.6500	3.6505	1.3119	25.10	-0.11	0.750			
0.6355	40668.89	3.6470	3.6473	1.2649	25.11	-0.10	0.750			
0.6391	40904.19	3.6440	3.6437	1.1900	25.11	-0.10	0.750			
0.6425	41123.08	3.6410	3.6414	1.1227	25.12	-0.09	0.750			
0.6459	41336.55	3.6380	3.6382	1.0766	25.13	-0.08	0.750			
0.6491	41541.47	3.6350	3.6349	1.0242	25.14	-0.07	0.750			
0.6521	41731.77	3.6320	3.6320	0.9504	25.14	-0.07	0.750			
0.6549	41911.00	3.6290	3.6290	0.9040	25.15	-0.06	0.750			
0.6574	42074.96	3.6260	3.6262	0.8871	25.16	-0.05	0.750			
0.6600	42240.82	3.6230	3.6232	0.8588	25.16	-0.05	0.750			
0.6625	42402.30	3.6200	3.6201	0.8345	25.17	-0.04	0.750			
0.6651	42564.39	3.6170	3.6173	0.7913	25.18	-0.03	0.750			
0.6675	42719.65	3.6140	3.6141	0.7553	25.18	-0.03	0.750			
0.6698	42865.39	3.6110	3.6110	0.6990	25.19	-0.02	0.750			
0.6717	42989.35	3.6080	3.6082	0.6343	25.20	-0.01	0.750			
0.6735	43105.63	3.6050	3.6054	0.5867	25.20	-0.01	0.750			
0.6752	43210.93	3.6020	3.6027	0.5503	25.21	-0.00	0.750			
0.6767	43310.83	3.5990	3.5996	0.5088	25.21	0.00	0.750			
0.6783	43410.24	3.5960	3.5964	0.4645	25.22	0.01	0.750			
0.6797	43499.26	3.5930	3.5933	0.4219	25.22	0.01	0.750			
0.6808	43573.87	3.5900	3.5904	0.3678	25.23	0.02	0.750			
0.6819	43642.27	3.5870	3.5872	0.3273	25.23	0.02	0.750			
0.6828	43699.30	3.5840	3.5823	0.2709	25.23	0.02	0.750			
0.6835	43741.87	3.5810	3.5814	0.2129	25.24	0.03	0.750			
0.6840	43777.21	3.5780	3.5788	0.1704	25.24	0.03	0.750			
0.6845	43805.51	3.5750	3.5763	0.1326	25.24	0.03	0.750			
0.6848	43826.48	3.5720	3.5728	0.0733	25.24	0.03	0.750			
