Ah_balance (normalized)	Ah_balance (mAh)	Voltage - fit (V)	Voltage -  interpolate (V)	dQ/dV (1/V)	Temperature (°C)	Temperature - diff (°C)	Current (C)	R_DC 0ms (mOhm)	R_DC 50ms (mOhm)	R_DC 50 ms PEC (mOhm)
0.0496	3175.81	4.1960	4.1960	0.7222	26.03	0.53	0.750			
0.0519	3318.62	4.1930	4.1931	0.7449	26.03	0.53	0.750			
0.0541	3463.37	4.1900	4.1898	0.7522	26.03	0.53	0.750			
0.0564	3608.69	4.1870	4.1871	0.7556	26.03	0.53	0.750			
0.0587	3756.39	4.1840	4.1841	0.7504	26.03	0.53	0.750			
0.0609	3899.65	4.1810	4.1810	0.7582	26.03	0.53	0.750			
0.0632	4044.83	4.1780	4.1780	0.7560	26.03	0.53	0.750			
0.0654	4187.86	4.1750	4.1750	0.7557	26.03	0.53	0.750			
0.0677	4334.61	4.1720	4.1722	0.7594	26.03	0.53	0.750			
0.0700	4481.76	4.1690	4.1691	0.7621	26.04	0.54	0.750			
0.0723	4628.34	4.1660	4.1660	0.7635	26.04	0.54	0.750			
0.0746	4777.14	4.1630	4.1630	0.7658	26.04	0.54	0.750			
0.0769	4920.60	4.1600	4.1600	0.7554	26.05	0.55	0.750			
0.0792	5065.62	4.1570	4.1570	0.7605	26.05	0.55	0.750			
0.0814	5211.50	4.1540	4.1540	0.7614	26.05	0.55	0.750			
0.0837	5358.54	4.1510	4.1510	0.7600	26.05	0.55	0.750			
0.0860	5503.45	4.1480	4.1480	0.7605	26.05	0.55	0.750			
0.0883	5648.78	4.1450	4.1452	0.7645	26.05	0.55	0.750			
0.0906	5796.61	4.1420	4.1418	0.7690	26.05	0.55	0.750			
0.0929	5944.58	4.1390	4.1391	0.7711	26.05	0.55	0.750			
0.0953	6096.38	4.1360	4.1359	0.7589	26.05	0.55	0.750			
0.0975	6240.41	4.1330	4.1331	0.7671	26.05	0.55	0.750			
0.0998	6384.19	4.1300	4.1301	0.7681	26.05	0.55	0.750			
0.1021	6531.96	4.1270	4.1271	0.7757	26.05	0.55	0.750			
0.1044	6680.15	4.1240	4.1237	0.7803	26.05	0.55	0.750			
0.1068	6832.97	4.1210	4.1212	0.7861	26.05	0.55	0.750			
0.1092	6987.56	4.1180	4.1181	0.7938	26.05	0.55	0.750			
0.1116	7141.93	4.1150	4.1150	0.7961	26.06	0.56	0.750			
0.1139	7292.58	4.1120	4.1120	0.7846	26.06	0.56	0.750			
0.1163	7442.05	4.1090	4.1089	0.7830	26.06	0.56	0.750			
0.1187	7594.03	4.1060	4.1060	0.7839	26.06	0.56	0.750			
0.1210	7745.26	4.1030	4.1030	0.7812	26.06	0.56	0.750			
0.1233	7894.38	4.1000	4.1000	0.7862	26.07	0.57	0.750			
0.1257	8044.90	4.0970	4.0970	0.7866	26.07	0.57	0.750			
0.1281	8196.12	4.0940	4.0937	0.7871	26.07	0.57	0.750			
0.1304	8347.23	4.0910	4.0911	0.7907	26.07	0.57	0.750			
0.1329	8503.51	4.0880	4.0879	0.7806	26.07	0.57	0.750			
0.1352	8652.45	4.0850	4.0851	0.7888	26.07	0.57	0.750			
0.1375	8799.81	4.0820	4.0821	0.7947	26.07	0.57	0.750			
0.1399	8951.13	4.0790	4.0792	0.8000	26.07	0.57	0.750			
0.1423	9106.01	4.0760	4.0761	0.8044	26.07	0.57	0.750			
0.1447	9261.70	4.0730	4.0731	0.8107	26.07	0.57	0.750			
0.1472	9419.81	4.0700	4.0702	0.8161	26.07	0.57	0.750			
0.1497	9579.07	4.0670	4.0669	0.8191	26.08	0.58	0.750			
0.1521	9734.67	4.0640	4.0640	0.8112	26.08	0.58	0.750			
0.1545	9890.41	4.0610	4.0610	0.8124	26.08	0.58	0.750			
0.1570	10049.06	4.0580	4.0580	0.8108	26.08	0.58	0.750			
0.1594	10203.52	4.0550	4.0550	0.8154	26.08	0.58	0.750			
0.1619	10358.77	4.0520	4.0520	0.8166	26.08	0.58	0.750			
0.1643	10515.24	4.0490	4.0490	0.8209	26.08	0.58	0.750			
0.1668	10672.94	4.0460	4.0459	0.8247	26.08	0.58	0.750			
0.1693	10835.61	4.0430	4.0429	0.8175	26.08	0.58	0.750			
0.1717	10991.84	4.0400	4.0401	0.8247	26.08	0.58	0.750			
0.1742	11149.25	4.0370	4.0371	0.8291	26.09	0.59	0.750			
0.1767	11306.66	4.0340	4.0341	0.8280	26.09	0.59	0.750			
0.1792	11466.04	4.0310	4.0310	0.8334	26.09	0.59	0.750			
0.1817	11627.38	4.0280	4.0282	0.8365	26.09	0.59	0.750			
0.1842	11789.88	4.0250	4.0251	0.8457	26.09	0.59	0.750			
0.1868	11954.07	4.0220	4.0220	0.8502	26.09	0.59	0.750			
0.1893	12115.77	4.0190	4.0190	0.8463	26.09	0.59	0.750			
0.1919	12278.58	4.0160	4.0160	0.8484	26.09	0.59	0.750			
0.1944	12444.44	4.0130	4.0130	0.8440	26.09	0.59	0.750			
0.1970	12605.79	4.0100	4.0100	0.8507	26.09	0.59	0.750			
0.1995	12768.76	4.0070	4.0071	0.8536	26.10	0.60	0.750			
0.2021	12931.79	4.0040	4.0040	0.8539	26.10	0.60	0.750			
0.2046	13095.75	4.0010	4.0010	0.8577	26.10	0.60	0.750			
0.2072	13263.05	3.9980	3.9980	0.8551	26.10	0.60	0.750			
0.2098	13427.84	3.9950	3.9950	0.8611	26.10	0.60	0.750			
0.2124	13592.75	3.9920	3.9920	0.8636	26.10	0.60	0.750			
0.2149	13756.05	3.9890	3.9892	0.8638	26.10	0.60	0.750			
0.2176	13923.24	3.9860	3.9861	0.8675	26.10	0.60	0.750			
0.2202	14090.84	3.9830	3.9830	0.8702	26.10	0.60	0.750			
0.2228	14258.89	3.9800	3.9800	0.8706	26.10	0.60	0.750			
0.2255	14429.97	3.9770	3.9771	0.8761	26.10	0.60	0.750			
0.2280	14593.97	3.9740	3.9739	0.8644	26.10	0.60	0.750			
0.2306	14758.38	3.9710	3.9710	0.8644	26.10	0.60	0.750			
0.2332	14924.82	3.9680	3.9680	0.8592	26.10	0.60	0.750			
0.2358	15088.33	3.9650	3.9650	0.8653	26.09	0.59	0.750			
0.2383	15252.91	3.9620	3.9621	0.8686	26.09	0.59	0.750			
0.2410	15421.90	3.9590	3.9586	0.8715	26.09	0.59	0.750			
0.2436	15591.23	3.9560	3.9560	0.8705	26.09	0.59	0.750			
0.2462	15758.18	3.9530	3.9531	0.8637	26.09	0.59	0.750			
0.2488	15922.17	3.9500	3.9501	0.8658	26.09	0.59	0.750			
0.2514	16087.31	3.9470	3.9470	0.8599	26.09	0.59	0.750			
0.2539	16252.35	3.9440	3.9440	0.8624	26.09	0.59	0.750			
0.2565	16417.24	3.9410	3.9411	0.8646	26.09	0.59	0.750			
0.2592	16585.61	3.9380	3.9381	0.8684	26.08	0.58	0.750			
0.2618	16755.68	3.9350	3.9350	0.8734	26.08	0.58	0.750			
0.2644	16921.42	3.9320	3.9320	0.8628	26.07	0.57	0.750			
0.2670	17086.86	3.9290	3.9290	0.8652	26.07	0.57	0.750			
0.2696	17255.13	3.9260	3.9259	0.8586	26.07	0.57	0.750			
0.2722	17417.99	3.9230	3.9230	0.8601	26.07	0.57	0.750			
0.2747	17582.00	3.9200	3.9201	0.8629	26.07	0.57	0.750			
0.2773	17747.97	3.9170	3.9170	0.8661	26.07	0.57	0.750			
0.2799	17914.48	3.9140	3.9141	0.8662	26.07	0.57	0.750			
0.2826	18083.22	3.9110	3.9110	0.8607	26.06	0.56	0.750			
0.2851	18246.35	3.9080	3.9081	0.8626	26.06	0.56	0.750			
0.2877	18413.75	3.9050	3.9051	0.8698	26.06	0.56	0.750			
0.2903	18578.30	3.9020	3.9019	0.8659	26.05	0.55	0.750			
0.2929	18744.16	3.8990	3.8990	0.8701	26.05	0.55	0.750			
0.2955	18912.27	3.8960	3.8961	0.8723	26.04	0.54	0.750			
0.2981	19081.30	3.8930	3.8930	0.8755	26.04	0.54	0.750			
0.3008	19253.32	3.8900	3.8899	0.8753	26.03	0.53	0.750			
0.3034	19417.38	3.8870	3.8870	0.8703	26.03	0.53	0.750			
0.3060	19583.22	3.8840	3.8841	0.8707	26.02	0.52	0.750			
0.3086	19750.40	3.8810	3.8809	0.8686	26.02	0.52	0.750			
0.3112	19915.11	3.8780	3.8781	0.8712	26.01	0.51	0.750			
0.3138	20082.55	3.8750	3.8751	0.8771	26.01	0.51	0.750			
0.3164	20251.42	3.8720	3.8718	0.8845	26.00	0.50	0.750			
0.3192	20426.77	3.8690	3.8690	0.8755	25.99	0.49	0.750			
0.3217	20591.64	3.8660	3.8661	0.8818	25.99	0.49	0.750			
0.3244	20761.91	3.8630	3.8631	0.8881	25.98	0.48	0.750			
0.3270	20930.36	3.8600	3.8602	0.8921	25.97	0.47	0.750			
0.3297	21100.93	3.8570	3.8569	0.9007	25.97	0.47	0.750			
0.3324	21275.00	3.8540	3.8542	0.9114	25.96	0.46	0.750			
0.3352	21452.06	3.8510	3.8511	0.9106	25.95	0.45	0.750			
0.3379	21627.77	3.8480	3.8481	0.9240	25.94	0.44	0.750			
0.3407	21803.30	3.8450	3.8450	0.9244	25.93	0.43	0.750			
0.3435	21984.16	3.8420	3.8423	0.9225	25.93	0.43	0.750	0.287	0.425	
0.3463	22160.92	3.8390	3.8392	0.9288	25.92	0.42	0.750			
0.3491	22340.58	3.8360	3.8361	0.9416	25.92	0.42	0.750			
0.3519	22523.46	3.8330	3.8331	0.9495	25.91	0.41	0.750			
0.3547	22702.42	3.8300	3.8299	0.9453	25.91	0.41	0.750			
0.3576	22886.44	3.8270	3.8270	0.9423	25.90	0.40	0.750			
0.3604	23067.91	3.8240	3.8242	0.9510	25.89	0.39	0.750			
0.3633	23250.01	3.8210	3.8211	0.9678	25.88	0.38	0.750			
0.3662	23434.65	3.8180	3.8173	0.9754	25.87	0.37	0.750			
0.3691	23621.25	3.8150	3.8152	0.9835	25.86	0.36	0.750			
0.3721	23813.93	3.8120	3.8121	1.0028	25.85	0.35	0.750			
0.3752	24011.54	3.8090	3.8091	1.0209	25.84	0.34	0.750			
0.3783	24213.47	3.8060	3.8059	1.0385	25.83	0.33	0.750			
0.3813	24405.74	3.8030	3.8030	1.0326	25.82	0.32	0.750			
0.3844	24603.89	3.8000	3.8000	1.0440	25.81	0.31	0.750			
0.3876	24805.00	3.7970	3.7971	1.0593	25.80	0.30	0.750			
0.3908	25009.96	3.7940	3.7935	1.0749	25.79	0.29	0.750			
0.3940	25219.18	3.7910	3.7910	1.0771	25.78	0.28	0.750			
0.3972	25423.79	3.7880	3.7881	1.0917	25.77	0.27	0.750			
0.4005	25632.15	3.7850	3.7851	1.1151	25.76	0.26	0.750			
0.4039	25848.23	3.7820	3.7816	1.1414	25.75	0.25	0.750			
0.4073	26069.05	3.7790	3.7791	1.1564	25.74	0.24	0.750			
0.4109	26294.55	3.7760	3.7761	1.1793	25.73	0.23	0.750			
0.4145	26529.27	3.7730	3.7730	1.2009	25.71	0.21	0.750			
0.4182	26763.74	3.7700	3.7700	1.2271	25.70	0.20	0.750			
0.4217	26990.06	3.7670	3.7669	1.2312	25.69	0.19	0.750			
0.4254	27228.38	3.7640	3.7640	1.2563	25.68	0.18	0.750			
0.4292	27470.76	3.7610	3.7610	1.2702	25.67	0.17	0.750			
0.4330	27714.61	3.7580	3.7581	1.3037	25.66	0.16	0.750			
0.4370	27966.97	3.7550	3.7552	1.3331	25.65	0.15	0.750			
0.4410	28225.47	3.7520	3.7513	1.3688	25.64	0.14	0.750			
0.4453	28496.69	3.7490	3.7491	1.3763	25.63	0.13	0.750			
0.4494	28763.53	3.7460	3.7461	1.4168	25.61	0.11	0.750			
0.4537	29035.48	3.7430	3.7431	1.4720	25.60	0.10	0.750			
0.4582	29324.63	3.7400	3.7401	1.4753	25.59	0.09	0.750			
0.4628	29618.37	3.7370	3.7369	1.4935	25.57	0.07	0.750			
0.4674	29910.46	3.7340	3.7341	1.5267	25.56	0.06	0.750			
0.4720	30209.02	3.7310	3.7313	1.5674	25.55	0.05	0.750			
0.4767	30509.91	3.7280	3.7283	1.6486	25.53	0.03	0.750			
0.4816	30820.57	3.7250	3.7254	1.6773	25.52	0.02	0.750			
0.4866	31144.26	3.7220	3.7226	1.7562	25.51	0.01	0.750			
0.4921	31496.53	3.7190	3.7189	1.8310	25.50	-0.00	0.750			
0.4978	31857.25	3.7160	3.7154	1.8971	25.48	-0.02	0.750			
0.5035	32226.58	3.7130	3.7128	1.8771	25.46	-0.04	0.750			
0.5095	32606.67	3.7100	3.7101	1.9406	25.45	-0.05	0.750			
0.5152	32974.06	3.7070	3.7069	2.0344	25.43	-0.07	0.750			
0.5213	33363.94	3.7040	3.7035	2.0936	25.42	-0.08	0.750			
0.5276	33768.50	3.7010	3.7012	2.2126	25.40	-0.10	0.750			
0.5344	34204.60	3.6980	3.6978	2.2311	25.39	-0.11	0.750			
0.5412	34638.00	3.6950	3.6950	2.2034	25.38	-0.12	0.750			
0.5480	35071.81	3.6920	3.6918	2.2800	25.37	-0.13	0.750			
0.5548	35510.23	3.6890	3.6893	2.3939	25.37	-0.13	0.750			
0.5619	35962.07	3.6860	3.6861	2.4514	25.36	-0.14	0.750			
0.5690	36418.87	3.6830	3.6833	2.3989	25.36	-0.14	0.750			
0.5766	36899.98	3.6800	3.6802	2.3876	25.35	-0.15	0.750			
0.5835	37343.97	3.6770	3.6771	2.3390	25.35	-0.15	0.750			
0.5897	37742.58	3.6740	3.6744	2.1679	25.35	-0.15	0.750			
0.5962	38159.30	3.6710	3.6708	2.0464	25.35	-0.15	0.750			
0.6021	38533.11	3.6680	3.6681	1.9374	25.36	-0.14	0.750			
0.6076	38887.40	3.6650	3.6647	1.8025	25.36	-0.14	0.750			
0.6131	39239.55	3.6620	3.6621	1.7296	25.37	-0.13	0.750			
0.6178	39538.03	3.6590	3.6589	1.5589	25.37	-0.13	0.750			
0.6223	39827.97	3.6560	3.6564	1.4694	25.38	-0.12	0.750			
0.6266	40102.83	3.6530	3.6532	1.3815	25.39	-0.11	0.750			
0.6306	40355.44	3.6500	3.6502	1.2916	25.39	-0.11	0.750			
0.6343	40592.14	3.6470	3.6471	1.2161	25.39	-0.11	0.750			
0.6379	40824.59	3.6440	3.6441	1.1701	25.40	-0.10	0.750			
0.6414	41050.41	3.6410	3.6409	1.1276	25.40	-0.10	0.750			
0.6446	41254.27	3.6380	3.6380	1.0484	25.41	-0.09	0.750			
0.6476	41447.86	3.6350	3.6350	1.0022	25.42	-0.08	0.750			
0.6505	41634.59	3.6320	3.6321	0.9643	25.42	-0.08	0.750			
0.6534	41814.91	3.6290	3.6287	0.9268	25.43	-0.07	0.750			
0.6561	41990.52	3.6260	3.6260	0.8971	25.44	-0.06	0.750			
0.6587	42159.47	3.6230	3.6230	0.8562	25.45	-0.05	0.750			
0.6613	42321.06	3.6200	3.6201	0.8291	25.45	-0.05	0.750			
0.6637	42474.79	3.6170	3.6172	0.7958	25.46	-0.04	0.750			
0.6660	42625.52	3.6140	3.6131	0.7693	25.47	-0.03	0.750			
0.6683	42771.81	3.6110	3.6110	0.7305	25.48	-0.02	0.750			
0.6705	42911.63	3.6080	3.6080	0.6914	25.48	-0.02	0.750			
0.6725	43042.56	3.6050	3.6052	0.6389	25.49	-0.01	0.750			
0.6745	43165.01	3.6020	3.6021	0.5885	25.49	-0.01	0.750			
0.6761	43268.76	3.5990	3.5989	0.5247	25.49	-0.01	0.750			
0.6775	43363.02	3.5960	3.5959	0.4725	25.50	-0.00	0.750			
0.6788	43446.12	3.5930	3.5930	0.4210	25.50	0.00	0.750			
0.6800	43521.02	3.5900	3.5900	0.3704	25.50	0.00	0.750			
0.6811	43587.93	3.5870	3.5870	0.3233	25.51	0.01	0.750			
0.6820	43645.43	3.5840	3.5841	0.2767	25.51	0.01	0.750			
0.6827	43693.95	3.5810	3.5813	0.2306	25.51	0.01	0.750			
0.6833	43733.46	3.5780	3.5785	0.1854	25.51	0.01	0.750			
0.6838	43764.77	3.5750	3.5755	0.1413	25.51	0.01	0.750			
0.6842	43787.65	3.5720	3.5726	0.0976	25.51	0.01	0.750			
