Ah_balance (normalized)	Ah_balance (mAh)	Voltage - fit (V)	Voltage -  interpolate (V)	dQ/dV (1/V)	Temperature (°C)	Temperature - diff (°C)	Current (C)	R_DC 0ms (mOhm)	R_DC 50ms (mOhm)	R_DC 50 ms PEC (mOhm)
0.0489	3130.23	4.1960	4.1961	0.7469	25.65	0.45	0.750			
0.0512	3273.86	4.1930	4.1930	0.7516	25.65	0.45	0.750			
0.0534	3419.05	4.1900	4.1898	0.7562	25.65	0.45	0.750			
0.0557	3564.97	4.1870	4.1870	0.7576	25.65	0.45	0.750			
0.0580	3711.30	4.1840	4.1840	0.7598	25.65	0.45	0.750			
0.0602	3855.23	4.1810	4.1810	0.7528	25.64	0.44	0.750			
0.0625	3998.16	4.1780	4.1781	0.7511	25.64	0.44	0.750			
0.0647	4141.87	4.1750	4.1751	0.7553	25.64	0.44	0.750			
0.0670	4286.76	4.1720	4.1721	0.7589	25.64	0.44	0.750			
0.0693	4434.97	4.1690	4.1690	0.7629	25.64	0.44	0.750			
0.0716	4582.90	4.1660	4.1661	0.7660	25.64	0.44	0.750			
0.0740	4733.67	4.1630	4.1629	0.7776	25.65	0.45	0.750			
0.0762	4878.40	4.1600	4.1601	0.7667	25.65	0.45	0.750			
0.0785	5025.88	4.1570	4.1570	0.7657	25.65	0.45	0.750			
0.0808	5172.31	4.1540	4.1541	0.7696	25.65	0.45	0.750			
0.0832	5322.85	4.1510	4.1510	0.7639	25.65	0.45	0.750			
0.0854	5468.13	4.1480	4.1479	0.7684	25.65	0.45	0.750			
0.0878	5616.21	4.1450	4.1451	0.7722	25.65	0.45	0.750			
0.0900	5762.51	4.1420	4.1418	0.7709	25.65	0.45	0.750			
0.0924	5911.78	4.1390	4.1390	0.7768	25.65	0.45	0.750			
0.0947	6063.72	4.1360	4.1360	0.7711	25.66	0.46	0.750			
0.0970	6210.52	4.1330	4.1331	0.7697	25.66	0.46	0.750			
0.0993	6357.88	4.1300	4.1300	0.7720	25.66	0.46	0.750			
0.1017	6506.47	4.1270	4.1271	0.7764	25.67	0.47	0.750			
0.1040	6653.71	4.1240	4.1241	0.7785	25.67	0.47	0.750			
0.1063	6803.79	4.1210	4.1211	0.7865	25.67	0.47	0.750			
0.1087	6958.04	4.1180	4.1180	0.7836	25.67	0.47	0.750			
0.1111	7108.42	4.1150	4.1150	0.7897	25.67	0.47	0.750			
0.1134	7257.93	4.1120	4.1122	0.7876	25.67	0.47	0.750			
0.1158	7409.57	4.1090	4.1086	0.7902	25.67	0.47	0.750			
0.1182	7561.99	4.1060	4.1060	0.7950	25.67	0.47	0.750			
0.1206	7715.92	4.1030	4.1031	0.7935	25.68	0.48	0.750			
0.1230	7869.57	4.1000	4.1001	0.7982	25.68	0.48	0.750			
0.1253	8022.08	4.0970	4.0970	0.7959	25.69	0.49	0.750			
0.1277	8174.52	4.0940	4.0938	0.7983	25.69	0.49	0.750			
0.1301	8327.18	4.0910	4.0910	0.7999	25.69	0.49	0.750			
0.1326	8486.14	4.0880	4.0880	0.7862	25.69	0.49	0.750			
0.1349	8635.10	4.0850	4.0850	0.7944	25.69	0.49	0.750			
0.1373	8786.58	4.0820	4.0821	0.7991	25.69	0.49	0.750			
0.1396	8936.18	4.0790	4.0792	0.8033	25.69	0.49	0.750			
0.1421	9091.25	4.0760	4.0761	0.8128	25.69	0.49	0.750			
0.1446	9253.24	4.0730	4.0730	0.8091	25.69	0.49	0.750			
0.1470	9409.51	4.0700	4.0701	0.8162	25.69	0.49	0.750			
0.1495	9567.11	4.0670	4.0671	0.8211	25.69	0.49	0.750			
0.1519	9722.17	4.0640	4.0642	0.8149	25.69	0.49	0.750			
0.1543	9877.73	4.0610	4.0611	0.8177	25.69	0.49	0.750			
0.1568	10035.29	4.0580	4.0581	0.8218	25.70	0.50	0.750			
0.1593	10195.56	4.0550	4.0550	0.8270	25.70	0.50	0.750			
0.1618	10355.51	4.0520	4.0520	0.8316	25.70	0.50	0.750			
0.1643	10514.96	4.0490	4.0490	0.8276	25.71	0.51	0.750			
0.1668	10673.63	4.0460	4.0460	0.8304	25.71	0.51	0.750			
0.1693	10838.08	4.0430	4.0429	0.8196	25.71	0.51	0.750			
0.1718	10992.65	4.0400	4.0400	0.8255	25.71	0.51	0.750			
0.1742	11148.72	4.0370	4.0371	0.8333	25.71	0.51	0.750			
0.1767	11308.36	4.0340	4.0341	0.8395	25.71	0.51	0.750			
0.1792	11469.23	4.0310	4.0312	0.8439	25.71	0.51	0.750			
0.1818	11633.26	4.0280	4.0281	0.8541	25.72	0.52	0.750			
0.1843	11798.13	4.0250	4.0252	0.8535	25.72	0.52	0.750			
0.1869	11963.48	4.0220	4.0221	0.8594	25.72	0.52	0.750			
0.1895	12127.04	4.0190	4.0191	0.8543	25.73	0.53	0.750			
0.1921	12291.39	4.0160	4.0161	0.8587	25.73	0.53	0.750			
0.1946	12456.43	4.0130	4.0130	0.8638	25.73	0.53	0.750			
0.1973	12624.05	4.0100	4.0101	0.8658	25.73	0.53	0.750			
0.1999	12793.27	4.0070	4.0069	0.8776	25.73	0.53	0.750			
0.2025	12957.66	4.0040	4.0039	0.8680	25.73	0.53	0.750			
0.2051	13124.27	4.0010	4.0010	0.8722	25.73	0.53	0.750			
0.2077	13293.02	3.9980	3.9980	0.8698	25.74	0.54	0.750			
0.2103	13459.98	3.9950	3.9951	0.8728	25.74	0.54	0.750			
0.2129	13626.26	3.9920	3.9920	0.8729	25.75	0.55	0.750			
0.2156	13795.64	3.9890	3.9883	0.8802	25.75	0.55	0.750			
0.2182	13964.01	3.9860	3.9860	0.8770	25.75	0.55	0.750			
0.2208	14133.20	3.9830	3.9830	0.8823	25.75	0.55	0.750			
0.2235	14303.87	3.9800	3.9800	0.8892	25.76	0.56	0.750			
0.2262	14475.96	3.9770	3.9770	0.8973	25.76	0.56	0.750			
0.2289	14646.64	3.9740	3.9740	0.8934	25.76	0.56	0.750			
0.2316	14820.38	3.9710	3.9711	0.8894	25.76	0.56	0.750			
0.2342	14990.59	3.9680	3.9680	0.8945	25.76	0.56	0.750			
0.2369	15161.90	3.9650	3.9651	0.8972	25.77	0.57	0.750			
0.2396	15333.62	3.9620	3.9619	0.8961	25.77	0.57	0.750			
0.2423	15505.30	3.9590	3.9590	0.8979	25.77	0.57	0.750			
0.2450	15677.62	3.9560	3.9561	0.8952	25.77	0.57	0.750			
0.2477	15850.76	3.9530	3.9531	0.9011	25.77	0.57	0.750			
0.2504	16023.84	3.9500	3.9500	0.9027	25.77	0.57	0.750			
0.2531	16197.54	3.9470	3.9462	0.9077	25.77	0.57	0.750			
0.2558	16372.76	3.9440	3.9441	0.9059	25.77	0.57	0.750			
0.2586	16547.38	3.9410	3.9410	0.9113	25.78	0.58	0.750			
0.2613	16723.90	3.9380	3.9381	0.9180	25.78	0.58	0.750			
0.2641	16900.99	3.9350	3.9351	0.9203	25.79	0.59	0.750			
0.2668	17075.40	3.9320	3.9320	0.9159	25.79	0.59	0.750			
0.2696	17251.49	3.9290	3.9290	0.9136	25.79	0.59	0.750			
0.2723	17426.84	3.9260	3.9261	0.9167	25.79	0.59	0.750			
0.2751	17604.18	3.9230	3.9230	0.9223	25.79	0.59	0.750			
0.2778	17779.19	3.9200	3.9197	0.9170	25.79	0.59	0.750			
0.2806	17958.35	3.9170	3.9170	0.9077	25.79	0.59	0.750			
0.2833	18130.37	3.9140	3.9141	0.9136	25.79	0.59	0.750			
0.2860	18305.27	3.9110	3.9111	0.9185	25.79	0.59	0.750			
0.2888	18481.50	3.9080	3.9081	0.9225	25.79	0.59	0.750			
0.2915	18657.01	3.9050	3.9048	0.9205	25.79	0.59	0.750			
0.2943	18835.03	3.9020	3.9021	0.9206	25.79	0.59	0.750			
0.2971	19012.17	3.8990	3.8991	0.9288	25.79	0.59	0.750			
0.2999	19191.54	3.8960	3.8961	0.9338	25.79	0.59	0.750			
0.3026	19369.27	3.8930	3.8927	0.9279	25.79	0.59	0.750			
0.3054	19548.73	3.8900	3.8901	0.9300	25.79	0.59	0.750			
0.3083	19728.86	3.8870	3.8871	0.9332	25.78	0.58	0.750			
0.3111	19910.25	3.8840	3.8840	0.9386	25.78	0.58	0.750			
0.3139	20088.25	3.8810	3.8811	0.9272	25.77	0.57	0.750			
0.3167	20266.78	3.8780	3.8780	0.9278	25.77	0.57	0.750			
0.3195	20444.96	3.8750	3.8751	0.9250	25.76	0.56	0.750			
0.3222	20621.94	3.8720	3.8720	0.9269	25.75	0.55	0.750			
0.3250	20798.44	3.8690	3.8690	0.9282	25.75	0.55	0.750			
0.3278	20977.05	3.8660	3.8654	0.9291	25.74	0.54	0.750			
0.3306	21158.23	3.8630	3.8631	0.9204	25.74	0.54	0.750			
0.3334	21335.18	3.8600	3.8601	0.9293	25.73	0.53	0.750			
0.3361	21513.33	3.8570	3.8570	0.9317	25.73	0.53	0.750			
0.3389	21691.42	3.8540	3.8541	0.9403	25.72	0.52	0.750			
0.3417	21868.38	3.8510	3.8510	0.9440	25.72	0.52	0.750			
0.3446	22051.62	3.8480	3.8481	0.9444	25.71	0.51	0.750			
0.3475	22237.96	3.8450	3.8450	0.9435	25.70	0.50	0.750			
0.3503	22416.70	3.8420	3.8421	0.9578	25.70	0.50	0.750			
0.3531	22599.71	3.8390	3.8387	0.9617	25.69	0.49	0.750			
0.3561	22788.83	3.8360	3.8357	0.9508	25.68	0.48	0.750	0.277	0.392	
0.3589	22969.18	3.8330	3.8332	0.9672	25.67	0.47	0.750			
0.3618	23155.82	3.8300	3.8303	0.9781	25.66	0.46	0.750			
0.3648	23345.30	3.8270	3.8269	0.9817	25.65	0.45	0.750			
0.3678	23538.18	3.8240	3.8241	0.9845	25.64	0.44	0.750			
0.3707	23722.57	3.8210	3.8211	0.9842	25.64	0.44	0.750			
0.3736	23913.59	3.8180	3.8181	0.9948	25.63	0.43	0.750			
0.3767	24106.22	3.8150	3.8150	0.9927	25.62	0.42	0.750			
0.3797	24298.83	3.8120	3.8120	0.9960	25.62	0.42	0.750			
0.3827	24490.37	3.8090	3.8090	1.0147	25.61	0.41	0.750			
0.3857	24687.25	3.8060	3.8060	1.0287	25.60	0.40	0.750			
0.3889	24887.55	3.8030	3.8031	1.0451	25.59	0.39	0.750			
0.3921	25092.24	3.8000	3.8001	1.0319	25.58	0.38	0.750			
0.3952	25290.03	3.7970	3.7970	1.0535	25.57	0.37	0.750			
0.3983	25489.23	3.7940	3.7941	1.0747	25.56	0.36	0.750			
0.4015	25697.13	3.7910	3.7912	1.0940	25.55	0.35	0.750			
0.4048	25908.50	3.7880	3.7882	1.0989	25.54	0.34	0.750			
0.4081	26120.74	3.7850	3.7852	1.1236	25.53	0.33	0.750			
0.4115	26338.75	3.7820	3.7822	1.1463	25.52	0.32	0.750			
0.4151	26564.22	3.7790	3.7787	1.1618	25.51	0.31	0.750			
0.4185	26786.40	3.7760	3.7760	1.1733	25.50	0.30	0.750			
0.4221	27011.49	3.7730	3.7731	1.2031	25.48	0.28	0.750			
0.4257	27247.82	3.7700	3.7701	1.2356	25.47	0.27	0.750			
0.4295	27486.12	3.7670	3.7670	1.2415	25.46	0.26	0.750			
0.4332	27724.16	3.7640	3.7642	1.2703	25.44	0.24	0.750			
0.4370	27968.34	3.7610	3.7612	1.3065	25.43	0.23	0.750			
0.4410	28223.48	3.7580	3.7574	1.3301	25.42	0.22	0.750			
0.4450	28479.63	3.7550	3.7552	1.3568	25.41	0.21	0.750			
0.4491	28744.09	3.7520	3.7522	1.3894	25.39	0.19	0.750			
0.4534	29018.92	3.7490	3.7488	1.4325	25.38	0.18	0.750			
0.4577	29294.34	3.7460	3.7460	1.4293	25.37	0.17	0.750			
0.4621	29576.13	3.7430	3.7431	1.4504	25.36	0.16	0.750			
0.4665	29853.58	3.7400	3.7402	1.4767	25.35	0.15	0.750			
0.4708	30132.40	3.7370	3.7365	1.5236	25.33	0.13	0.750			
0.4754	30427.08	3.7340	3.7344	1.5574	25.31	0.11	0.750			
0.4802	30733.66	3.7310	3.7306	1.6117	25.29	0.09	0.750			
0.4851	31046.64	3.7280	3.7278	1.7137	25.28	0.08	0.750			
0.4904	31382.68	3.7250	3.7251	1.7414	25.27	0.07	0.750			
0.4959	31738.15	3.7220	3.7220	1.8111	25.25	0.05	0.750			
0.5013	32085.06	3.7190	3.7193	1.8224	25.24	0.04	0.750			
0.5068	32432.07	3.7160	3.7159	1.8343	25.22	0.02	0.750			
0.5123	32788.10	3.7130	3.7133	1.9151	25.21	0.01	0.750			
0.5182	33162.30	3.7100	3.7100	1.9528	25.19	-0.01	0.750			
0.5243	33552.41	3.7070	3.7073	2.0137	25.18	-0.02	0.750			
0.5304	33947.04	3.7040	3.7041	2.1036	25.16	-0.04	0.750			
0.5369	34358.47	3.7010	3.7010	2.1663	25.14	-0.06	0.750			
0.5435	34785.41	3.6980	3.6980	2.2210	25.12	-0.08	0.750			
0.5503	35217.67	3.6950	3.6955	2.2525	25.11	-0.09	0.750			
0.5572	35660.90	3.6920	3.6914	2.2744	25.09	-0.11	0.750			
0.5640	36097.32	3.6890	3.6888	2.3158	25.08	-0.12	0.750			
0.5713	36566.00	3.6860	3.6857	2.4571	25.07	-0.13	0.750			
0.5788	37040.87	3.6830	3.6828	2.5745	25.06	-0.14	0.750			
0.5867	37549.04	3.6800	3.6803	2.6303	25.05	-0.15	0.750			
0.5949	38075.17	3.6770	3.6772	2.6545	25.05	-0.15	0.750			
0.6029	38582.95	3.6740	3.6741	2.7211	25.04	-0.16	0.750			
0.6112	39118.92	3.6710	3.6707	2.6219	25.04	-0.16	0.750			
0.6190	39613.48	3.6680	3.6684	2.5491	25.04	-0.16	0.750			
0.6264	40088.86	3.6650	3.6652	2.3959	25.04	-0.16	0.750			
0.6335	40544.72	3.6620	3.6620	2.2136	25.05	-0.15	0.750			
0.6400	40961.80	3.6590	3.6590	2.0872	25.06	-0.14	0.750			
0.6460	41342.57	3.6560	3.6559	1.9174	25.07	-0.13	0.750			
0.6514	41686.83	3.6530	3.6531	1.7005	25.08	-0.12	0.750			
0.6562	41994.75	3.6500	3.6495	1.5764	25.08	-0.12	0.750			
0.6608	42288.35	3.6470	3.6473	1.4636	25.09	-0.11	0.750			
0.6650	42558.72	3.6440	3.6436	1.3508	25.10	-0.10	0.750			
0.6687	42798.67	3.6410	3.6412	1.2333	25.11	-0.09	0.750			
0.6721	43016.72	3.6380	3.6383	1.1426	25.11	-0.09	0.750			
0.6755	43229.63	3.6350	3.6352	1.0930	25.12	-0.08	0.750			
0.6786	43430.83	3.6320	3.6323	1.0343	25.12	-0.08	0.750			
0.6816	43620.43	3.6290	3.6293	1.0157	25.13	-0.07	0.750			
0.6846	43812.53	3.6260	3.6260	1.0074	25.15	-0.05	0.750			
0.6877	44012.08	3.6230	3.6231	0.9843	25.16	-0.04	0.750			
0.6906	44200.80	3.6200	3.6202	0.9458	25.17	-0.03	0.750			
0.6935	44383.86	3.6170	3.6173	0.8989	25.18	-0.02	0.750			
0.6963	44561.25	3.6140	3.6139	0.8462	25.18	-0.02	0.750			
0.6987	44717.94	3.6110	3.6109	0.7721	25.19	-0.01	0.750			
0.7008	44849.93	3.6080	3.6081	0.6888	25.19	-0.01	0.750			
0.7028	44976.52	3.6050	3.6045	0.6307	25.20	-0.00	0.750			
0.7046	45091.69	3.6020	3.6021	0.5713	25.20	0.00	0.750			
0.7062	45193.96	3.5990	3.5990	0.5108	25.21	0.01	0.750			
0.7076	45286.96	3.5960	3.5960	0.4587	25.21	0.01	0.750			
0.7089	45370.33	3.5930	3.5929	0.4086	25.21	0.01	0.750			
0.7100	45441.36	3.5900	3.5900	0.3519	25.22	0.02	0.750			
0.7110	45504.24	3.5870	3.5870	0.3025	25.22	0.02	0.750			
0.7118	45557.11	3.5840	3.5840	0.2527	25.22	0.02	0.750			
0.7125	45601.98	3.5810	3.5810	0.2034	25.22	0.02	0.750			
0.7131	45636.13	3.5780	3.5780	0.1529	25.22	0.02	0.750			
0.7135	45660.80	3.5750	3.5750	0.1085	25.22	0.02	0.750			
