Ah_balance (normalized)	Ah_balance (mAh)	Voltage - fit (V)	Voltage -  interpolate (V)	dQ/dV (1/V)	Temperature (°C)	Temperature - diff (°C)	Current (C)	R_DC 0ms (mOhm)	R_DC 50ms (mOhm)	R_DC 50 ms PEC (mOhm)
0.0466	2982.05	4.1980	4.1979	0.7297	25.37	0.53	0.750			
0.0488	3124.78	4.1950	4.1952	0.7523	25.37	0.53	0.750			
0.0511	3269.73	4.1920	4.1921	0.7585	25.37	0.53	0.750			
0.0534	3416.15	4.1890	4.1891	0.7645	25.37	0.53	0.750			
0.0557	3563.47	4.1860	4.1861	0.7617	25.37	0.53	0.750			
0.0580	3710.83	4.1830	4.1830	0.7678	25.37	0.53	0.750			
0.0603	3857.62	4.1800	4.1801	0.7679	25.37	0.53	0.750			
0.0626	4005.24	4.1770	4.1768	0.7695	25.37	0.53	0.750			
0.0649	4153.93	4.1740	4.1740	0.7715	25.37	0.53	0.750			
0.0672	4303.87	4.1710	4.1710	0.7647	25.37	0.53	0.750			
0.0695	4449.92	4.1680	4.1680	0.7717	25.37	0.53	0.750			
0.0718	4597.26	4.1650	4.1651	0.7703	25.37	0.53	0.750			
0.0741	4744.77	4.1620	4.1621	0.7744	25.37	0.53	0.750			
0.0765	4893.01	4.1590	4.1592	0.7779	25.37	0.53	0.750			
0.0788	5045.23	4.1560	4.1560	0.7794	25.37	0.53	0.750			
0.0812	5195.92	4.1530	4.1530	0.7829	25.37	0.53	0.750			
0.0835	5345.88	4.1500	4.1501	0.7837	25.37	0.53	0.750			
0.0858	5493.58	4.1470	4.1471	0.7818	25.37	0.53	0.750			
0.0882	5645.49	4.1440	4.1441	0.7838	25.37	0.53	0.750			
0.0906	5795.29	4.1410	4.1410	0.7894	25.37	0.53	0.750			
0.0930	5949.06	4.1380	4.1380	0.7878	25.37	0.53	0.750			
0.0953	6101.14	4.1350	4.1350	0.7891	25.38	0.54	0.750			
0.0977	6252.13	4.1320	4.1320	0.7872	25.38	0.54	0.750			
0.1000	6402.48	4.1290	4.1288	0.7871	25.38	0.54	0.750			
0.1024	6551.62	4.1260	4.1260	0.7854	25.38	0.54	0.750			
0.1048	6705.47	4.1230	4.1230	0.7838	25.38	0.54	0.750			
0.1071	6852.70	4.1200	4.1200	0.7897	25.38	0.54	0.750			
0.1095	7006.40	4.1170	4.1171	0.8010	25.38	0.54	0.750			
0.1119	7159.67	4.1140	4.1140	0.8028	25.38	0.54	0.750			
0.1143	7313.81	4.1110	4.1110	0.8092	25.38	0.54	0.750			
0.1168	7473.69	4.1080	4.1081	0.8018	25.38	0.54	0.750			
0.1192	7628.64	4.1050	4.1050	0.8044	25.39	0.55	0.750			
0.1216	7783.85	4.1020	4.1020	0.8052	25.39	0.55	0.750			
0.1240	7933.29	4.0990	4.0992	0.8030	25.39	0.55	0.750			
0.1263	8085.33	4.0960	4.0959	0.8091	25.39	0.55	0.750			
0.1288	8243.02	4.0930	4.0930	0.8105	25.40	0.56	0.750			
0.1312	8399.37	4.0900	4.0900	0.8176	25.40	0.56	0.750			
0.1337	8559.31	4.0870	4.0871	0.8235	25.40	0.56	0.750			
0.1362	8718.33	4.0840	4.0841	0.8226	25.41	0.57	0.750			
0.1387	8875.48	4.0810	4.0809	0.8232	25.41	0.57	0.750			
0.1412	9037.27	4.0780	4.0779	0.8129	25.41	0.57	0.750			
0.1436	9190.03	4.0750	4.0750	0.8186	25.41	0.57	0.750			
0.1460	9346.85	4.0720	4.0720	0.8255	25.40	0.56	0.750			
0.1485	9503.51	4.0690	4.0692	0.8288	25.40	0.56	0.750			
0.1510	9663.74	4.0660	4.0656	0.8359	25.40	0.56	0.750			
0.1536	9827.78	4.0630	4.0631	0.8343	25.41	0.57	0.750			
0.1561	9989.47	4.0600	4.0601	0.8422	25.41	0.57	0.750			
0.1586	10152.12	4.0570	4.0572	0.8480	25.41	0.57	0.750			
0.1611	10312.80	4.0540	4.0541	0.8401	25.42	0.58	0.750			
0.1637	10474.11	4.0510	4.0510	0.8445	25.42	0.58	0.750			
0.1662	10636.94	4.0480	4.0481	0.8514	25.42	0.58	0.750			
0.1688	10801.44	4.0450	4.0450	0.8597	25.42	0.58	0.750			
0.1714	10967.98	4.0420	4.0420	0.8652	25.43	0.59	0.750			
0.1740	11134.07	4.0390	4.0389	0.8637	25.43	0.59	0.750			
0.1766	11300.66	4.0360	4.0360	0.8699	25.43	0.59	0.750			
0.1793	11473.98	4.0330	4.0329	0.8545	25.43	0.59	0.750			
0.1818	11634.52	4.0300	4.0300	0.8574	25.44	0.60	0.750			
0.1843	11796.11	4.0270	4.0271	0.8641	25.44	0.60	0.750			
0.1869	11960.60	4.0240	4.0242	0.8664	25.44	0.60	0.750			
0.1895	12127.81	4.0210	4.0211	0.8759	25.44	0.60	0.750			
0.1922	12297.68	4.0180	4.0182	0.8763	25.44	0.60	0.750			
0.1948	12467.55	4.0150	4.0151	0.8849	25.45	0.61	0.750			
0.1975	12641.15	4.0120	4.0121	0.8868	25.45	0.61	0.750			
0.2001	12808.08	4.0090	4.0083	0.8785	25.45	0.61	0.750			
0.2028	12978.60	4.0060	4.0061	0.8805	25.45	0.61	0.750			
0.2054	13148.49	4.0030	4.0030	0.8836	25.46	0.62	0.750			
0.2081	13317.53	4.0000	4.0000	0.8865	25.46	0.62	0.750			
0.2107	13485.10	3.9970	3.9971	0.9198	25.47	0.63	0.750			
0.2134	13659.24	3.9940	3.9939	0.9322	25.47	0.63	0.750			
0.2163	13844.46	3.9910	3.9907	0.9431	25.47	0.63	0.750			
0.2192	14029.74	3.9880	3.9881	0.9547	25.47	0.63	0.750			
0.2222	14217.62	3.9850	3.9852	0.9564	25.47	0.63	0.750			
0.2251	14405.15	3.9820	3.9815	0.9495	25.47	0.63	0.750			
0.2279	14587.12	3.9790	3.9789	0.9263	25.47	0.63	0.750			
0.2306	14755.28	3.9760	3.9761	0.9113	25.47	0.63	0.750			
0.2333	14931.19	3.9730	3.9731	0.9178	25.48	0.64	0.750			
0.2360	15106.83	3.9700	3.9701	0.9251	25.48	0.64	0.750			
0.2388	15281.60	3.9670	3.9668	0.9251	25.48	0.64	0.750			
0.2416	15460.95	3.9640	3.9641	0.9253	25.48	0.64	0.750			
0.2444	15641.51	3.9610	3.9610	0.9333	25.49	0.65	0.750			
0.2472	15821.57	3.9580	3.9581	0.9345	25.49	0.65	0.750			
0.2500	15999.92	3.9550	3.9548	0.9291	25.49	0.65	0.750			
0.2528	16180.09	3.9520	3.9520	0.9239	25.49	0.65	0.750			
0.2555	16354.88	3.9490	3.9490	0.9301	25.49	0.65	0.750			
0.2583	16533.54	3.9460	3.9461	0.9361	25.49	0.65	0.750			
0.2612	16714.76	3.9430	3.9431	0.9429	25.49	0.65	0.750			
0.2640	16893.70	3.9400	3.9399	0.9460	25.49	0.65	0.750			
0.2668	17076.75	3.9370	3.9371	0.9419	25.49	0.65	0.750			
0.2697	17257.98	3.9340	3.9341	0.9459	25.50	0.66	0.750			
0.2725	17439.24	3.9310	3.9311	0.9518	25.50	0.66	0.750			
0.2753	17620.99	3.9280	3.9275	0.9488	25.50	0.66	0.750			
0.2782	17803.00	3.9250	3.9251	0.9556	25.50	0.66	0.750			
0.2810	17986.77	3.9220	3.9221	0.9655	25.50	0.66	0.750			
0.2840	18176.07	3.9190	3.9190	0.9689	25.50	0.66	0.750			
0.2869	18362.31	3.9160	3.9159	0.9663	25.50	0.66	0.750			
0.2899	18551.13	3.9130	3.9130	0.9614	25.50	0.66	0.750			
0.2927	18733.49	3.9100	3.9100	0.9634	25.50	0.66	0.750			
0.2956	18918.01	3.9070	3.9070	0.9654	25.51	0.67	0.750			
0.2985	19101.98	3.9040	3.9040	0.9678	25.51	0.67	0.750			
0.3014	19286.60	3.9010	3.9011	0.9738	25.51	0.67	0.750			
0.3043	19475.61	3.8980	3.8981	0.9745	25.51	0.67	0.750			
0.3072	19662.33	3.8950	3.8951	0.9809	25.52	0.68	0.750			
0.3102	19851.21	3.8920	3.8921	0.9921	25.52	0.68	0.750			
0.3131	20041.26	3.8890	3.8888	0.9917	25.52	0.68	0.750			
0.3161	20233.25	3.8860	3.8860	0.9933	25.52	0.68	0.750			
0.3191	20424.24	3.8830	3.8831	1.0006	25.51	0.67	0.750			
0.3222	20618.19	3.8800	3.8801	1.0062	25.51	0.67	0.750			
0.3252	20811.49	3.8770	3.8768	1.0030	25.51	0.67	0.750			
0.3282	21006.07	3.8740	3.8740	0.9926	25.51	0.67	0.750			
0.3312	21195.78	3.8710	3.8711	1.0037	25.50	0.66	0.750			
0.3342	21389.41	3.8680	3.8680	1.0114	25.50	0.66	0.750			
0.3372	21583.10	3.8650	3.8647	1.0092	25.49	0.65	0.750			
0.3403	21776.83	3.8620	3.8621	1.0095	25.49	0.65	0.750			
0.3433	21970.65	3.8590	3.8591	1.0183	25.49	0.65	0.750			
0.3464	22167.36	3.8560	3.8560	1.0252	25.48	0.64	0.750			
0.3494	22364.25	3.8530	3.8529	1.0233	25.48	0.64	0.750			
0.3525	22562.77	3.8500	3.8500	1.0262	25.48	0.64	0.750			
0.3556	22760.11	3.8470	3.8471	1.0351	25.48	0.64	0.750			
0.3588	22961.41	3.8440	3.8440	1.0407	25.47	0.63	0.750			
0.3619	23160.39	3.8410	3.8409	1.0504	25.47	0.63	0.750			
0.3650	23360.47	3.8380	3.8380	1.0580	25.46	0.62	0.750			
0.3682	23563.78	3.8350	3.8351	1.0718	25.45	0.61	0.750			
0.3714	23771.23	3.8320	3.8322	1.0837	25.44	0.60	0.750	0.341	0.428	
0.3747	23982.09	3.8290	3.8289	1.0963	25.43	0.59	0.750			
0.3780	24193.65	3.8260	3.8261	1.0895	25.42	0.58	0.750			
0.3813	24402.87	3.8230	3.8230	1.0983	25.42	0.58	0.750			
0.3846	24614.47	3.8200	3.8201	1.0969	25.41	0.57	0.750			
0.3880	24828.83	3.8170	3.8166	1.0905	25.40	0.56	0.750			
0.3912	25035.06	3.8140	3.8141	1.0903	25.39	0.55	0.750			
0.3944	25243.40	3.8110	3.8112	1.0958	25.38	0.54	0.750			
0.3977	25452.90	3.8080	3.8081	1.1041	25.38	0.54	0.750			
0.4010	25666.26	3.8050	3.8048	1.0956	25.37	0.53	0.750			
0.4043	25875.53	3.8020	3.8020	1.1075	25.35	0.51	0.750			
0.4076	26089.45	3.7990	3.7991	1.1255	25.34	0.50	0.750			
0.4111	26307.90	3.7960	3.7961	1.1375	25.33	0.49	0.750			
0.4145	26525.49	3.7930	3.7930	1.1399	25.31	0.47	0.750			
0.4179	26744.95	3.7900	3.7901	1.1506	25.30	0.46	0.750			
0.4214	26967.55	3.7870	3.7871	1.1698	25.29	0.45	0.750			
0.4249	27196.71	3.7840	3.7838	1.1864	25.28	0.44	0.750			
0.4285	27421.24	3.7810	3.7811	1.1961	25.27	0.43	0.750			
0.4321	27652.79	3.7780	3.7780	1.2171	25.26	0.42	0.750			
0.4358	27891.24	3.7750	3.7750	1.2349	25.25	0.41	0.750			
0.4395	28127.50	3.7720	3.7720	1.2517	25.24	0.40	0.750			
0.4433	28370.16	3.7690	3.7691	1.2739	25.23	0.39	0.750			
0.4471	28616.91	3.7660	3.7660	1.2925	25.21	0.37	0.750			
0.4510	28866.27	3.7630	3.7629	1.3230	25.20	0.36	0.750			
0.4550	29120.69	3.7600	3.7601	1.3486	25.18	0.34	0.750			
0.4591	29383.85	3.7570	3.7570	1.3783	25.16	0.32	0.750			
0.4634	29656.65	3.7540	3.7539	1.4006	25.15	0.31	0.750			
0.4676	29923.72	3.7510	3.7511	1.4391	25.14	0.30	0.750			
0.4720	30205.10	3.7480	3.7481	1.4691	25.13	0.29	0.750			
0.4764	30488.28	3.7450	3.7451	1.5021	25.12	0.28	0.750			
0.4809	30776.08	3.7420	3.7419	1.5452	25.10	0.26	0.750			
0.4856	31078.69	3.7390	3.7391	1.5792	25.09	0.25	0.750			
0.4904	31386.40	3.7360	3.7360	1.6274	25.07	0.23	0.750			
0.4954	31703.02	3.7330	3.7329	1.6758	25.06	0.22	0.750			
0.5005	32029.32	3.7300	3.7298	1.7295	25.04	0.20	0.750			
0.5058	32368.39	3.7270	3.7270	1.8083	25.02	0.18	0.750			
0.5112	32719.98	3.7240	3.7239	1.8393	25.01	0.17	0.750			
0.5170	33085.85	3.7210	3.7212	1.8819	24.99	0.15	0.750			
0.5228	33457.09	3.7180	3.7182	1.9405	24.97	0.13	0.750			
0.5286	33831.34	3.7150	3.7148	1.9863	24.95	0.11	0.750			
0.5345	34204.97	3.7120	3.7117	2.0365	24.93	0.09	0.750			
0.5406	34599.56	3.7090	3.7092	2.1103	24.91	0.07	0.750			
0.5472	35019.09	3.7060	3.7060	2.2037	24.89	0.05	0.750			
0.5541	35463.11	3.7030	3.7029	2.2696	24.87	0.03	0.750			
0.5608	35893.85	3.7000	3.7001	2.3164	24.85	0.01	0.750			
0.5679	36344.82	3.6970	3.6971	2.3781	24.83	-0.01	0.750			
0.5751	36808.10	3.6940	3.6939	2.4363	24.82	-0.02	0.750			
0.5825	37279.12	3.6910	3.6910	2.4907	24.80	-0.04	0.750			
0.5901	37766.83	3.6880	3.6880	2.5877	24.78	-0.06	0.750			
0.5978	38257.89	3.6850	3.6850	2.6184	24.76	-0.08	0.750			
0.6057	38764.67	3.6820	3.6819	2.7458	24.75	-0.09	0.750			
0.6145	39327.09	3.6790	3.6788	2.6826	24.74	-0.10	0.750			
0.6223	39828.27	3.6760	3.6762	2.6496	24.72	-0.12	0.750			
0.6299	40314.52	3.6730	3.6730	2.5499	24.71	-0.13	0.750			
0.6373	40788.97	3.6700	3.6696	2.6346	24.70	-0.14	0.750			
0.6454	41307.85	3.6670	3.6677	2.8710	24.70	-0.14	0.750			
0.6549	41913.11	3.6640	3.6642	3.0245	24.70	-0.14	0.750			
0.6638	42480.35	3.6610	3.6615	2.7891	24.70	-0.14	0.750			
0.6715	42973.88	3.6580	3.6574	2.5076	24.71	-0.13	0.750			
0.6785	43422.93	3.6550	3.6548	2.2405	24.72	-0.12	0.750			
0.6849	43834.08	3.6520	3.6524	2.0757	24.73	-0.11	0.750			
0.6909	44219.67	3.6490	3.6486	1.9074	24.73	-0.11	0.750			
0.6962	44556.91	3.6460	3.6459	1.6818	24.74	-0.10	0.750			
0.7009	44859.57	3.6430	3.6434	1.4615	24.75	-0.09	0.750			
0.7052	45134.47	3.6400	3.6401	1.3143	24.76	-0.08	0.750			
0.7086	45347.22	3.6370	3.6371	1.1451	24.77	-0.07	0.750			
0.7116	45544.66	3.6340	3.6341	1.0261	24.78	-0.06	0.750			
0.7144	45720.82	3.6310	3.6311	0.9408	24.78	-0.06	0.750			
0.7172	45897.93	3.6280	3.6281	0.8787	24.79	-0.05	0.750			
0.7197	46059.05	3.6250	3.6250	0.8568	24.79	-0.05	0.750			
0.7222	46221.06	3.6220	3.6221	0.8411	24.80	-0.04	0.750			
0.7246	46375.32	3.6190	3.6188	0.8076	24.80	-0.04	0.750			
0.7270	46530.92	3.6160	3.6162	0.7752	24.81	-0.03	0.750			
0.7294	46681.78	3.6130	3.6132	0.7441	24.81	-0.03	0.750			
0.7317	46825.76	3.6100	3.6101	0.6855	24.82	-0.02	0.750			
0.7337	46959.39	3.6070	3.6070	0.6269	24.83	-0.01	0.750			
0.7354	47066.97	3.6040	3.6040	0.5421	24.83	-0.01	0.750			
0.7369	47164.30	3.6010	3.6010	0.4733	24.84	-0.00	0.750			
0.7382	47246.41	3.5980	3.5981	0.4043	24.84	0.00	0.750			
0.7393	47317.07	3.5950	3.5950	0.3379	24.84	0.00	0.750			
0.7402	47374.91	3.5920	3.5920	0.2736	24.85	0.01	0.750			
0.7410	47422.25	3.5890	3.5890	0.2124	24.85	0.01	0.750			
0.7415	47456.25	3.5860	3.5864	0.1519	24.85	0.01	0.750			
0.7419	47479.72	3.5830	3.5833	0.0939	24.85	0.01	0.750			
