Ah_balance (normalized)	Ah_balance (mAh)	Voltage - fit (V)	Voltage -  interpolate (V)	dQ/dV (1/V)	Temperature (°C)	Temperature - diff (°C)	Current (C)	R_DC 0ms (mOhm)	R_DC 50ms (mOhm)	R_DC 50 ms PEC (mOhm)
0.0498	3186.35	4.1960	4.1959	0.7566	25.54	0.60	0.750			
0.0521	3332.78	4.1930	4.1930	0.7581	25.54	0.60	0.750			
0.0544	3478.84	4.1900	4.1900	0.7519	25.54	0.60	0.750			
0.0566	3620.85	4.1870	4.1870	0.7523	25.54	0.60	0.750			
0.0588	3763.87	4.1840	4.1841	0.7518	25.54	0.60	0.750			
0.0611	3908.60	4.1810	4.1809	0.7533	25.54	0.60	0.750			
0.0633	4053.01	4.1780	4.1779	0.7565	25.54	0.60	0.750			
0.0656	4199.42	4.1750	4.1751	0.7597	25.54	0.60	0.750			
0.0679	4348.04	4.1720	4.1719	0.7619	25.54	0.60	0.750			
0.0702	4493.29	4.1690	4.1690	0.7618	25.55	0.61	0.750			
0.0725	4637.47	4.1660	4.1661	0.7589	25.55	0.61	0.750			
0.0747	4783.58	4.1630	4.1629	0.7637	25.55	0.61	0.750			
0.0770	4931.13	4.1600	4.1600	0.7684	25.55	0.61	0.750			
0.0794	5079.36	4.1570	4.1570	0.7658	25.55	0.61	0.750			
0.0817	5226.96	4.1540	4.1540	0.7665	25.55	0.61	0.750			
0.0840	5375.40	4.1510	4.1510	0.7684	25.55	0.61	0.750			
0.0863	5520.96	4.1480	4.1480	0.7666	25.55	0.61	0.750			
0.0886	5667.30	4.1450	4.1451	0.7670	25.55	0.61	0.750			
0.0908	5814.19	4.1420	4.1420	0.7715	25.55	0.61	0.750			
0.0932	5962.97	4.1390	4.1390	0.7733	25.55	0.61	0.750			
0.0955	6112.76	4.1360	4.1361	0.7769	25.55	0.61	0.750			
0.0979	6262.42	4.1330	4.1329	0.7787	25.55	0.61	0.750			
0.1002	6411.95	4.1300	4.1297	0.7799	25.55	0.61	0.750			
0.1025	6561.08	4.1270	4.1271	0.7776	25.55	0.61	0.750			
0.1049	6711.68	4.1240	4.1240	0.7760	25.55	0.61	0.750			
0.1072	6860.44	4.1210	4.1210	0.7802	25.55	0.61	0.750			
0.1095	7010.66	4.1180	4.1180	0.7817	25.55	0.61	0.750			
0.1119	7159.32	4.1150	4.1150	0.7830	25.55	0.61	0.750			
0.1142	7309.92	4.1120	4.1120	0.7839	25.55	0.61	0.750			
0.1166	7461.42	4.1090	4.1090	0.7861	25.55	0.61	0.750			
0.1190	7613.03	4.1060	4.1061	0.7886	25.55	0.61	0.750			
0.1213	7764.62	4.1030	4.1030	0.7916	25.55	0.61	0.750			
0.1237	7915.27	4.1000	4.1000	0.7889	25.55	0.61	0.750			
0.1261	8067.26	4.0970	4.0970	0.7921	25.55	0.61	0.750			
0.1284	8218.90	4.0940	4.0940	0.7952	25.55	0.61	0.750			
0.1308	8373.14	4.0910	4.0910	0.7952	25.55	0.61	0.750			
0.1332	8524.52	4.0880	4.0881	0.7979	25.55	0.61	0.750			
0.1356	8677.67	4.0850	4.0850	0.8001	25.55	0.61	0.750			
0.1380	8831.57	4.0820	4.0818	0.8040	25.55	0.61	0.750			
0.1404	8986.17	4.0790	4.0790	0.8076	25.55	0.61	0.750			
0.1428	9141.79	4.0760	4.0761	0.8056	25.55	0.61	0.750			
0.1453	9297.66	4.0730	4.0730	0.8082	25.55	0.61	0.750			
0.1477	9453.31	4.0700	4.0700	0.8062	25.55	0.61	0.750			
0.1501	9609.04	4.0670	4.0668	0.8011	25.55	0.61	0.750			
0.1525	9761.27	4.0640	4.0641	0.8025	25.55	0.61	0.750			
0.1549	9915.77	4.0610	4.0611	0.7974	25.55	0.61	0.750			
0.1573	10067.26	4.0580	4.0579	0.8046	25.55	0.61	0.750			
0.1597	10222.08	4.0550	4.0550	0.8116	25.55	0.61	0.750			
0.1621	10375.64	4.0520	4.0520	0.8171	25.55	0.61	0.750			
0.1646	10533.85	4.0490	4.0491	0.8277	25.55	0.61	0.750			
0.1672	10701.43	4.0460	4.0459	0.8209	25.55	0.61	0.750			
0.1696	10856.31	4.0430	4.0430	0.8231	25.55	0.61	0.750			
0.1721	11013.56	4.0400	4.0401	0.8322	25.55	0.61	0.750			
0.1745	11170.76	4.0370	4.0372	0.8333	25.55	0.61	0.750			
0.1770	11330.65	4.0340	4.0342	0.8356	25.55	0.61	0.750			
0.1796	11493.70	4.0310	4.0310	0.8288	25.55	0.61	0.750			
0.1821	11653.34	4.0280	4.0281	0.8417	25.55	0.61	0.750			
0.1846	11817.05	4.0250	4.0251	0.8453	25.55	0.61	0.750			
0.1871	11977.22	4.0220	4.0219	0.8432	25.55	0.61	0.750			
0.1897	12139.24	4.0190	4.0191	0.8472	25.55	0.61	0.750			
0.1922	12302.89	4.0160	4.0160	0.8487	25.55	0.61	0.750			
0.1948	12466.84	4.0130	4.0130	0.8576	25.56	0.62	0.750			
0.1974	12633.95	4.0100	4.0101	0.8499	25.56	0.62	0.750			
0.1999	12796.07	4.0070	4.0069	0.8525	25.56	0.62	0.750			
0.2025	12960.57	4.0040	4.0041	0.8602	25.56	0.62	0.750			
0.2051	13126.08	4.0010	4.0009	0.8552	25.56	0.62	0.750			
0.2077	13290.33	3.9980	3.9980	0.8621	25.56	0.62	0.750			
0.2102	13455.91	3.9950	3.9951	0.8687	25.56	0.62	0.750			
0.2128	13621.45	3.9920	3.9914	0.8696	25.56	0.62	0.750			
0.2155	13791.55	3.9890	3.9890	0.8732	25.56	0.62	0.750			
0.2181	13958.76	3.9860	3.9861	0.8731	25.56	0.62	0.750			
0.2207	14126.66	3.9830	3.9830	0.8764	25.56	0.62	0.750			
0.2234	14298.04	3.9800	3.9800	0.8822	25.56	0.62	0.750			
0.2260	14462.56	3.9770	3.9770	0.8741	25.56	0.62	0.750			
0.2286	14632.24	3.9740	3.9740	0.8730	25.56	0.62	0.750			
0.2313	14800.32	3.9710	3.9711	0.8790	25.56	0.62	0.750			
0.2339	14969.92	3.9680	3.9680	0.8802	25.55	0.61	0.750			
0.2365	15138.80	3.9650	3.9651	0.8791	25.55	0.61	0.750			
0.2392	15307.46	3.9620	3.9620	0.8795	25.55	0.61	0.750			
0.2418	15475.87	3.9590	3.9591	0.8810	25.55	0.61	0.750			
0.2444	15642.26	3.9560	3.9560	0.8733	25.55	0.61	0.750			
0.2470	15808.57	3.9530	3.9531	0.8782	25.55	0.61	0.750			
0.2496	15976.36	3.9500	3.9502	0.8725	25.55	0.61	0.750			
0.2523	16145.07	3.9470	3.9472	0.8768	25.55	0.61	0.750			
0.2549	16314.60	3.9440	3.9442	0.8796	25.55	0.61	0.750			
0.2576	16483.56	3.9410	3.9411	0.8852	25.54	0.60	0.750			
0.2603	16656.30	3.9380	3.9379	0.8976	25.54	0.60	0.750			
0.2629	16823.40	3.9350	3.9346	0.8923	25.54	0.60	0.750			
0.2656	16998.82	3.9320	3.9320	0.8935	25.54	0.60	0.750			
0.2683	17172.19	3.9290	3.9291	0.9001	25.53	0.59	0.750			
0.2710	17346.86	3.9260	3.9260	0.9026	25.53	0.59	0.750			
0.2737	17519.00	3.9230	3.9230	0.9013	25.52	0.58	0.750			
0.2764	17689.86	3.9200	3.9200	0.8943	25.52	0.58	0.750			
0.2791	17862.71	3.9170	3.9170	0.8842	25.52	0.58	0.750			
0.2817	18030.90	3.9140	3.9140	0.8918	25.52	0.58	0.750			
0.2844	18202.34	3.9110	3.9111	0.8996	25.51	0.57	0.750			
0.2871	18374.70	3.9080	3.9080	0.9008	25.51	0.57	0.750			
0.2898	18547.12	3.9050	3.9051	0.9060	25.51	0.57	0.750			
0.2925	18723.09	3.9020	3.9021	0.9054	25.50	0.56	0.750			
0.2953	18898.79	3.8990	3.8991	0.9116	25.49	0.55	0.750			
0.2981	19075.40	3.8960	3.8960	0.9136	25.49	0.55	0.750			
0.3007	19247.07	3.8930	3.8931	0.9046	25.48	0.54	0.750			
0.3035	19422.38	3.8900	3.8899	0.8985	25.47	0.53	0.750			
0.3062	19594.45	3.8870	3.8871	0.9031	25.47	0.53	0.750			
0.3089	19768.07	3.8840	3.8841	0.9057	25.46	0.52	0.750			
0.3116	19941.09	3.8810	3.8810	0.9071	25.45	0.51	0.750			
0.3143	20115.91	3.8780	3.8780	0.9057	25.45	0.51	0.750			
0.3170	20289.95	3.8750	3.8751	0.9058	25.44	0.50	0.750			
0.3197	20460.02	3.8720	3.8721	0.8997	25.43	0.49	0.750			
0.3224	20633.11	3.8690	3.8691	0.9046	25.42	0.48	0.750			
0.3251	20803.98	3.8660	3.8657	0.9039	25.41	0.47	0.750			
0.3278	20978.55	3.8630	3.8631	0.9114	25.40	0.46	0.750			
0.3305	21154.09	3.8600	3.8603	0.9030	25.40	0.46	0.750			
0.3332	21327.92	3.8570	3.8572	0.9136	25.39	0.45	0.750			
0.3360	21504.95	3.8540	3.8541	0.9323	25.38	0.44	0.750			
0.3387	21678.49	3.8510	3.8506	0.9239	25.38	0.44	0.750			
0.3415	21855.80	3.8480	3.8481	0.9280	25.37	0.43	0.750			
0.3443	22034.24	3.8450	3.8452	0.9453	25.37	0.43	0.750			
0.3472	22220.67	3.8420	3.8422	0.9627	25.36	0.42	0.750			
0.3501	22405.28	3.8390	3.8382	0.9608	25.35	0.41	0.750	0.308	0.433	
0.3530	22590.49	3.8360	3.8362	0.9648	25.34	0.40	0.750			
0.3559	22777.33	3.8330	3.8332	0.9591	25.33	0.39	0.750			
0.3588	22962.70	3.8300	3.8301	0.9733	25.32	0.38	0.750			
0.3617	23146.16	3.8270	3.8271	0.9714	25.31	0.37	0.750			
0.3646	23332.26	3.8240	3.8242	0.9755	25.30	0.36	0.750			
0.3675	23521.21	3.8210	3.8211	0.9931	25.29	0.35	0.750			
0.3706	23715.40	3.8180	3.8181	1.0097	25.28	0.34	0.750			
0.3736	23912.71	3.8150	3.8151	1.0201	25.27	0.33	0.750			
0.3767	24109.60	3.8120	3.8120	1.0090	25.27	0.33	0.750			
0.3797	24303.33	3.8090	3.8090	1.0247	25.25	0.31	0.750			
0.3828	24498.46	3.8060	3.8061	1.0402	25.24	0.30	0.750			
0.3859	24700.26	3.8030	3.8030	1.0539	25.23	0.29	0.750			
0.3892	24910.82	3.8000	3.8000	1.0430	25.22	0.28	0.750			
0.3923	25108.03	3.7970	3.7972	1.0615	25.21	0.27	0.750			
0.3955	25310.15	3.7940	3.7942	1.0827	25.20	0.26	0.750			
0.3987	25519.48	3.7910	3.7911	1.1008	25.19	0.25	0.750			
0.4020	25730.41	3.7880	3.7881	1.0972	25.18	0.24	0.750			
0.4054	25942.41	3.7850	3.7852	1.1249	25.16	0.22	0.750			
0.4088	26162.16	3.7820	3.7822	1.1594	25.15	0.21	0.750			
0.4124	26392.30	3.7790	3.7787	1.1691	25.14	0.20	0.750			
0.4158	26613.36	3.7760	3.7761	1.1779	25.13	0.19	0.750			
0.4194	26841.63	3.7730	3.7731	1.2058	25.12	0.18	0.750			
0.4231	27075.93	3.7700	3.7701	1.2330	25.11	0.17	0.750			
0.4269	27319.66	3.7670	3.7671	1.2255	25.10	0.16	0.750			
0.4305	27550.13	3.7640	3.7642	1.2621	25.08	0.14	0.750			
0.4342	27791.54	3.7610	3.7612	1.2928	25.07	0.13	0.750			
0.4382	28046.03	3.7580	3.7570	1.3196	25.06	0.12	0.750			
0.4421	28297.56	3.7550	3.7553	1.3453	25.05	0.11	0.750			
0.4463	28563.87	3.7520	3.7522	1.3762	25.04	0.10	0.750			
0.4506	28835.25	3.7490	3.7486	1.4258	25.03	0.09	0.750			
0.4550	29119.07	3.7460	3.7459	1.3923	25.02	0.08	0.750			
0.4590	29378.95	3.7430	3.7432	1.4634	25.01	0.07	0.750			
0.4636	29673.06	3.7400	3.7400	1.4647	25.00	0.06	0.750			
0.4681	29956.56	3.7370	3.7359	1.4865	24.98	0.04	0.750			
0.4724	30234.66	3.7340	3.7345	1.5577	24.97	0.03	0.750			
0.4772	30540.85	3.7310	3.7315	1.6120	24.95	0.01	0.750			
0.4821	30854.76	3.7280	3.7281	1.6753	24.94	-0.00	0.750			
0.4873	31184.42	3.7250	3.7251	1.7159	24.92	-0.02	0.750			
0.4926	31528.23	3.7220	3.7216	1.7656	24.91	-0.03	0.750			
0.4982	31887.92	3.7190	3.7190	1.7857	24.90	-0.04	0.750			
0.5034	32220.44	3.7160	3.7155	1.8659	24.88	-0.06	0.750			
0.5092	32588.20	3.7130	3.7129	1.8854	24.87	-0.07	0.750			
0.5147	32942.57	3.7100	3.7095	1.9407	24.86	-0.08	0.750			
0.5206	33321.41	3.7070	3.7073	2.0411	24.85	-0.09	0.750			
0.5270	33726.93	3.7040	3.7033	2.1369	24.84	-0.10	0.750			
0.5338	34165.99	3.7010	3.7010	2.2640	24.83	-0.11	0.750			
0.5403	34577.55	3.6980	3.6978	2.2311	24.82	-0.12	0.750			
0.5468	34997.74	3.6950	3.6949	2.2814	24.81	-0.13	0.750			
0.5539	35446.74	3.6920	3.6920	2.2203	24.79	-0.15	0.750			
0.5608	35892.54	3.6890	3.6894	2.4496	24.78	-0.16	0.750			
0.5682	36363.05	3.6860	3.6865	2.4515	24.78	-0.16	0.750			
0.5753	36818.59	3.6830	3.6832	2.4337	24.77	-0.17	0.750			
0.5827	37292.42	3.6800	3.6800	2.6094	24.76	-0.18	0.750			
0.5903	37781.67	3.6770	3.6772	2.4990	24.76	-0.18	0.750			
0.5979	38265.18	3.6740	3.6745	2.5192	24.76	-0.18	0.750			
0.6057	38763.73	3.6710	3.6709	2.3613	24.77	-0.17	0.750			
0.6126	39203.84	3.6680	3.6680	2.2145	24.78	-0.16	0.750			
0.6188	39603.90	3.6650	3.6654	2.1027	24.78	-0.16	0.750			
0.6247	39981.89	3.6620	3.6622	1.9150	24.79	-0.15	0.750			
0.6302	40334.66	3.6590	3.6594	1.7905	24.80	-0.14	0.750			
0.6356	40681.36	3.6560	3.6565	1.7117	24.81	-0.13	0.750			
0.6406	41000.38	3.6530	3.6526	1.5999	24.82	-0.12	0.750			
0.6454	41307.80	3.6500	3.6501	1.5070	24.83	-0.11	0.750			
0.6496	41573.46	3.6470	3.6469	1.3698	24.84	-0.10	0.750			
0.6535	41822.27	3.6440	3.6440	1.2474	24.84	-0.10	0.750			
0.6568	42037.28	3.6410	3.6411	1.1529	24.85	-0.09	0.750			
0.6601	42247.61	3.6380	3.6381	1.0978	24.86	-0.08	0.750			
0.6633	42453.54	3.6350	3.6340	1.0512	24.86	-0.08	0.750			
0.6664	42649.00	3.6320	3.6323	1.0078	24.87	-0.07	0.750			
0.6693	42837.66	3.6290	3.6293	0.9638	24.88	-0.06	0.750			
0.6722	43020.98	3.6260	3.6261	0.9363	24.89	-0.05	0.750			
0.6749	43194.90	3.6230	3.6228	0.8751	24.90	-0.04	0.750			
0.6775	43360.87	3.6200	3.6201	0.8444	24.91	-0.03	0.750			
0.6800	43522.45	3.6170	3.6172	0.8053	24.91	-0.03	0.750			
0.6824	43676.19	3.6140	3.6141	0.7671	24.92	-0.02	0.750			
0.6847	43823.95	3.6110	3.6108	0.7290	24.93	-0.01	0.750			
0.6868	43952.16	3.6080	3.6081	0.6623	24.94	-0.00	0.750			
0.6887	44074.53	3.6050	3.6051	0.6112	24.94	0.00	0.750			
0.6904	44188.46	3.6020	3.6020	0.5650	24.95	0.01	0.750			
0.6921	44292.34	3.5990	3.5991	0.5136	24.95	0.01	0.750			
0.6935	44386.23	3.5960	3.5960	0.4622	24.96	0.02	0.750			
0.6948	44469.24	3.5930	3.5929	0.4104	24.96	0.02	0.750			
0.6960	44543.19	3.5900	3.5900	0.3632	24.97	0.03	0.750			
0.6970	44607.84	3.5870	3.5871	0.3146	24.97	0.03	0.750			
0.6979	44663.66	3.5840	3.5839	0.2677	24.97	0.03	0.750			
0.6986	44709.95	3.5810	3.5811	0.2212	24.97	0.03	0.750			
0.6992	44748.53	3.5780	3.5780	0.1752	24.98	0.04	0.750			
0.6997	44777.83	3.5750	3.5748	0.1264	24.98	0.04	0.750			
