Ah_balance (normalized)	Ah_balance (mAh)	Voltage - fit (V)	Voltage -  interpolate (V)	dQ/dV (1/V)	Temperature (°C)	Temperature - diff (°C)	Current (C)	R_DC 0ms (mOhm)	R_DC 50ms (mOhm)	R_DC 50 ms PEC (mOhm)
0.0474	3035.42	4.1980	4.1980	0.7057	26.26	0.48	0.750			
0.0496	3174.64	4.1950	4.1952	0.7326	26.27	0.49	0.750			
0.0518	3317.29	4.1920	4.1914	0.7455	26.27	0.49	0.750			
0.0541	3461.79	4.1890	4.1891	0.7541	26.27	0.49	0.750			
0.0564	3608.62	4.1860	4.1861	0.7515	26.28	0.50	0.750			
0.0587	3755.35	4.1830	4.1830	0.7601	26.28	0.50	0.750			
0.0609	3900.46	4.1800	4.1800	0.7523	26.28	0.50	0.750			
0.0632	4044.17	4.1770	4.1771	0.7522	26.29	0.51	0.750			
0.0655	4189.19	4.1740	4.1741	0.7549	26.29	0.51	0.750			
0.0677	4334.62	4.1710	4.1710	0.7558	26.29	0.51	0.750			
0.0700	4479.33	4.1680	4.1680	0.7600	26.29	0.51	0.750			
0.0723	4627.02	4.1650	4.1650	0.7669	26.29	0.51	0.750			
0.0746	4772.92	4.1620	4.1620	0.7618	26.29	0.51	0.750			
0.0769	4920.22	4.1590	4.1589	0.7662	26.29	0.51	0.750			
0.0792	5067.53	4.1560	4.1560	0.7688	26.29	0.51	0.750			
0.0816	5219.92	4.1530	4.1529	0.7571	26.29	0.51	0.750			
0.0838	5362.57	4.1500	4.1500	0.7563	26.29	0.51	0.750			
0.0860	5504.18	4.1470	4.1472	0.7606	26.29	0.51	0.750			
0.0883	5650.12	4.1440	4.1442	0.7636	26.29	0.51	0.750			
0.0906	5797.66	4.1410	4.1411	0.7663	26.29	0.51	0.750			
0.0929	5943.55	4.1380	4.1382	0.7714	26.30	0.52	0.750			
0.0952	6093.71	4.1350	4.1351	0.7703	26.30	0.52	0.750			
0.0976	6245.16	4.1320	4.1319	0.7824	26.30	0.52	0.750			
0.0999	6390.60	4.1290	4.1291	0.7729	26.31	0.53	0.750			
0.1022	6539.97	4.1260	4.1261	0.7760	26.31	0.53	0.750			
0.1045	6691.00	4.1230	4.1230	0.7802	26.31	0.53	0.750			
0.1069	6840.93	4.1200	4.1201	0.7809	26.31	0.53	0.750			
0.1092	6990.92	4.1170	4.1171	0.7820	26.31	0.53	0.750			
0.1116	7140.56	4.1140	4.1140	0.7808	26.31	0.53	0.750			
0.1139	7290.36	4.1110	4.1108	0.7825	26.31	0.53	0.750			
0.1163	7441.18	4.1080	4.1081	0.7854	26.31	0.53	0.750			
0.1187	7593.74	4.1050	4.1050	0.7817	26.31	0.53	0.750			
0.1210	7744.03	4.1020	4.1020	0.7858	26.31	0.53	0.750			
0.1234	7894.43	4.0990	4.0990	0.7843	26.31	0.53	0.750			
0.1257	8043.38	4.0960	4.0960	0.7852	26.31	0.53	0.750			
0.1280	8194.07	4.0930	4.0930	0.7884	26.31	0.53	0.750			
0.1305	8349.34	4.0900	4.0900	0.7841	26.32	0.54	0.750			
0.1328	8498.15	4.0870	4.0871	0.7887	26.32	0.54	0.750			
0.1352	8650.25	4.0840	4.0840	0.7961	26.32	0.54	0.750			
0.1375	8800.86	4.0810	4.0811	0.7987	26.33	0.55	0.750			
0.1399	8954.80	4.0780	4.0779	0.8019	26.33	0.55	0.750			
0.1423	9109.33	4.0750	4.0751	0.8034	26.33	0.55	0.750			
0.1448	9265.31	4.0720	4.0722	0.8108	26.33	0.55	0.750			
0.1472	9422.50	4.0690	4.0690	0.8132	26.33	0.55	0.750			
0.1497	9578.12	4.0660	4.0659	0.8058	26.33	0.55	0.750			
0.1521	9731.97	4.0630	4.0630	0.8094	26.33	0.55	0.750			
0.1545	9887.60	4.0600	4.0600	0.8150	26.33	0.55	0.750			
0.1570	10047.14	4.0570	4.0569	0.8103	26.33	0.55	0.750			
0.1594	10199.59	4.0540	4.0541	0.8169	26.34	0.56	0.750			
0.1618	10354.94	4.0510	4.0511	0.8190	26.34	0.56	0.750			
0.1643	10513.26	4.0480	4.0474	0.8256	26.34	0.56	0.750			
0.1668	10672.52	4.0450	4.0451	0.8300	26.34	0.56	0.750			
0.1693	10832.03	4.0420	4.0422	0.8229	26.34	0.56	0.750			
0.1717	10991.96	4.0390	4.0390	0.8305	26.34	0.56	0.750			
0.1742	11149.28	4.0360	4.0362	0.8275	26.34	0.56	0.750			
0.1767	11308.08	4.0330	4.0323	0.8344	26.34	0.56	0.750			
0.1792	11470.94	4.0300	4.0301	0.8372	26.34	0.56	0.750			
0.1818	11632.31	4.0270	4.0272	0.8431	26.34	0.56	0.750			
0.1843	11797.33	4.0240	4.0239	0.8498	26.35	0.57	0.750			
0.1869	11958.56	4.0210	4.0210	0.8415	26.35	0.57	0.750			
0.1894	12119.73	4.0180	4.0179	0.8449	26.35	0.57	0.750			
0.1919	12284.68	4.0150	4.0150	0.8411	26.35	0.57	0.750			
0.1945	12446.23	4.0120	4.0120	0.8483	26.35	0.57	0.750			
0.1970	12608.49	4.0090	4.0091	0.8559	26.35	0.57	0.750			
0.1996	12771.52	4.0060	4.0061	0.8599	26.35	0.57	0.750			
0.2022	12938.20	4.0030	4.0027	0.8627	26.35	0.57	0.750			
0.2048	13104.68	4.0000	4.0000	0.8658	26.35	0.57	0.750			
0.2074	13271.81	3.9970	3.9972	0.8627	26.35	0.57	0.750			
0.2100	13437.35	3.9940	3.9940	0.8709	26.35	0.57	0.750			
0.2125	13603.19	3.9910	3.9910	0.8684	26.35	0.57	0.750			
0.2152	13770.14	3.9880	3.9881	0.8684	26.35	0.57	0.750			
0.2178	13937.09	3.9850	3.9852	0.8735	26.36	0.58	0.750			
0.2204	14106.57	3.9820	3.9821	0.8777	26.36	0.58	0.750			
0.2231	14277.36	3.9790	3.9789	0.8804	26.36	0.58	0.750			
0.2257	14443.72	3.9760	3.9760	0.8726	26.37	0.59	0.750			
0.2283	14611.93	3.9730	3.9730	0.8764	26.37	0.59	0.750			
0.2310	14782.89	3.9700	3.9700	0.8710	26.37	0.59	0.750			
0.2336	14947.69	3.9670	3.9671	0.8771	26.37	0.59	0.750			
0.2362	15114.07	3.9640	3.9641	0.8770	26.37	0.59	0.750			
0.2388	15283.73	3.9610	3.9607	0.8799	26.37	0.59	0.750			
0.2415	15453.06	3.9580	3.9580	0.8796	26.37	0.59	0.750			
0.2441	15622.35	3.9550	3.9552	0.8745	26.37	0.59	0.750			
0.2467	15790.81	3.9520	3.9521	0.8820	26.37	0.59	0.750			
0.2494	15958.91	3.9490	3.9490	0.8751	26.37	0.59	0.750			
0.2520	16126.50	3.9460	3.9461	0.8766	26.37	0.59	0.750			
0.2546	16295.81	3.9430	3.9431	0.8782	26.37	0.59	0.750			
0.2573	16465.01	3.9400	3.9401	0.8861	26.37	0.59	0.750			
0.2600	16637.70	3.9370	3.9370	0.8911	26.36	0.58	0.750			
0.2626	16806.73	3.9340	3.9340	0.8843	26.36	0.58	0.750			
0.2653	16977.19	3.9310	3.9311	0.8831	26.36	0.58	0.750			
0.2680	17150.78	3.9280	3.9279	0.8738	26.36	0.58	0.750			
0.2705	17315.20	3.9250	3.9251	0.8746	26.35	0.57	0.750			
0.2732	17481.61	3.9220	3.9220	0.8735	26.35	0.57	0.750			
0.2757	17647.97	3.9190	3.9190	0.8724	26.35	0.57	0.750			
0.2784	17815.65	3.9160	3.9161	0.8762	26.35	0.57	0.750			
0.2810	17983.15	3.9130	3.9131	0.8762	26.34	0.56	0.750			
0.2836	18153.47	3.9100	3.9101	0.8807	26.34	0.56	0.750			
0.2863	18323.60	3.9070	3.9070	0.8782	26.33	0.55	0.750			
0.2889	18492.02	3.9040	3.9035	0.8792	26.33	0.55	0.750			
0.2916	18661.74	3.9010	3.9011	0.8795	26.33	0.55	0.750			
0.2942	18830.95	3.8980	3.8980	0.8808	26.32	0.54	0.750			
0.2969	19000.35	3.8950	3.8950	0.8854	26.32	0.54	0.750			
0.2996	19171.38	3.8920	3.8920	0.8869	26.31	0.53	0.750			
0.3022	19340.26	3.8890	3.8889	0.8845	26.31	0.53	0.750			
0.3049	19512.24	3.8860	3.8860	0.8736	26.30	0.52	0.750			
0.3075	19679.10	3.8830	3.8831	0.8794	26.30	0.52	0.750			
0.3101	19845.52	3.8800	3.8800	0.8851	26.30	0.52	0.750			
0.3127	20015.91	3.8770	3.8770	0.8895	26.29	0.51	0.750			
0.3154	20185.12	3.8740	3.8741	0.8883	26.29	0.51	0.750			
0.3181	20359.88	3.8710	3.8710	0.8756	26.28	0.50	0.750			
0.3208	20529.09	3.8680	3.8682	0.8861	26.27	0.49	0.750			
0.3234	20697.87	3.8650	3.8651	0.8949	26.26	0.48	0.750			
0.3260	20867.15	3.8620	3.8618	0.8922	26.25	0.47	0.750			
0.3287	21039.51	3.8590	3.8591	0.8981	26.25	0.47	0.750			
0.3314	21212.67	3.8560	3.8562	0.9071	26.24	0.46	0.750			
0.3342	21389.38	3.8530	3.8530	0.9135	26.24	0.46	0.750			
0.3371	21573.60	3.8500	3.8499	0.9109	26.23	0.45	0.750			
0.3397	21739.06	3.8470	3.8471	0.9092	26.23	0.45	0.750			
0.3424	21914.75	3.8440	3.8441	0.9079	26.22	0.44	0.750			
0.3451	22087.89	3.8410	3.8412	0.9257	26.21	0.43	0.750			
0.3479	22265.87	3.8380	3.8379	0.9405	26.20	0.42	0.750	0.306	0.446	
0.3507	22447.80	3.8350	3.8351	0.9512	26.19	0.41	0.750			
0.3537	22633.79	3.8320	3.8321	0.9615	26.18	0.40	0.750			
0.3566	22821.09	3.8290	3.8291	0.9565	26.17	0.39	0.750			
0.3594	23001.95	3.8260	3.8261	0.9598	26.16	0.38	0.750			
0.3623	23188.64	3.8230	3.8231	0.9710	26.15	0.37	0.750			
0.3652	23372.22	3.8200	3.8201	0.9686	26.14	0.36	0.750			
0.3681	23558.19	3.8170	3.8172	0.9825	26.13	0.35	0.750			
0.3711	23751.24	3.8140	3.8141	0.9978	26.12	0.34	0.750			
0.3741	23944.64	3.8110	3.8110	1.0116	26.11	0.33	0.750			
0.3772	24138.85	3.8080	3.8080	1.0103	26.10	0.32	0.750			
0.3802	24333.91	3.8050	3.8050	1.0169	26.09	0.31	0.750			
0.3833	24530.01	3.8020	3.8021	1.0322	26.08	0.30	0.750			
0.3864	24728.56	3.7990	3.7991	1.0442	26.07	0.29	0.750			
0.3896	24933.67	3.7960	3.7961	1.0413	26.06	0.28	0.750			
0.3927	25132.82	3.7930	3.7931	1.0646	26.05	0.27	0.750			
0.3959	25335.33	3.7900	3.7901	1.0856	26.03	0.25	0.750			
0.3992	25546.82	3.7870	3.7871	1.1117	26.02	0.24	0.750			
0.4025	25761.49	3.7840	3.7840	1.1220	26.01	0.23	0.750			
0.4059	25979.23	3.7810	3.7811	1.1457	26.00	0.22	0.750			
0.4094	26202.18	3.7780	3.7782	1.1740	25.99	0.21	0.750			
0.4130	26432.10	3.7750	3.7749	1.1942	25.97	0.19	0.750			
0.4166	26659.63	3.7720	3.7720	1.1923	25.96	0.18	0.750			
0.4201	26888.22	3.7690	3.7691	1.2191	25.96	0.18	0.750			
0.4238	27125.27	3.7660	3.7662	1.2473	25.95	0.17	0.750			
0.4276	27367.22	3.7630	3.7630	1.2553	25.94	0.16	0.750			
0.4314	27607.36	3.7600	3.7602	1.2815	25.93	0.15	0.750			
0.4352	27854.43	3.7570	3.7572	1.3118	25.92	0.14	0.750			
0.4392	28110.26	3.7540	3.7532	1.3558	25.91	0.13	0.750			
0.4433	28372.76	3.7510	3.7512	1.3563	25.90	0.12	0.750			
0.4475	28637.74	3.7480	3.7481	1.3964	25.88	0.10	0.750			
0.4518	28916.78	3.7450	3.7451	1.4313	25.87	0.09	0.750			
0.4562	29196.50	3.7420	3.7411	1.4323	25.86	0.08	0.750			
0.4605	29473.17	3.7390	3.7394	1.4714	25.84	0.06	0.750			
0.4650	29758.18	3.7360	3.7361	1.5174	25.83	0.05	0.750			
0.4696	30054.70	3.7330	3.7333	1.5687	25.82	0.04	0.750			
0.4744	30360.57	3.7300	3.7303	1.6045	25.81	0.03	0.750			
0.4793	30674.12	3.7270	3.7272	1.6875	25.80	0.02	0.750			
0.4845	31006.51	3.7240	3.7242	1.7881	25.79	0.01	0.750			
0.4900	31357.36	3.7210	3.7213	1.8717	25.78	-0.00	0.750			
0.4958	31732.89	3.7180	3.7181	1.9483	25.76	-0.02	0.750			
0.5020	32130.10	3.7150	3.7152	2.0390	25.75	-0.03	0.750			
0.5082	32524.90	3.7120	3.7117	2.0331	25.73	-0.05	0.750			
0.5143	32916.26	3.7090	3.7088	2.0356	25.72	-0.06	0.750			
0.5203	33296.60	3.7060	3.7062	2.0773	25.71	-0.07	0.750			
0.5266	33704.79	3.7030	3.7031	2.1417	25.69	-0.09	0.750			
0.5331	34119.39	3.7000	3.6997	2.1730	25.68	-0.10	0.750			
0.5397	34540.32	3.6970	3.6972	2.2409	25.67	-0.11	0.750			
0.5465	34977.08	3.6940	3.6942	2.2796	25.66	-0.12	0.750			
0.5534	35416.48	3.6910	3.6910	2.3465	25.65	-0.13	0.750			
0.5608	35889.19	3.6880	3.6876	2.4122	25.64	-0.14	0.750			
0.5681	36359.68	3.6850	3.6850	2.4462	25.63	-0.15	0.750			
0.5754	36824.03	3.6820	3.6822	2.4121	25.63	-0.15	0.750			
0.5827	37289.86	3.6790	3.6791	2.3692	25.63	-0.15	0.750			
0.5898	37748.58	3.6760	3.6758	2.3285	25.62	-0.16	0.750			
0.5968	38193.02	3.6730	3.6730	2.2655	25.62	-0.16	0.750			
0.6036	38630.74	3.6700	3.6701	2.1530	25.62	-0.16	0.750			
0.6098	39028.59	3.6670	3.6671	2.0061	25.63	-0.15	0.750			
0.6156	39400.79	3.6640	3.6639	1.8892	25.63	-0.15	0.750			
0.6210	39743.83	3.6610	3.6608	1.7423	25.64	-0.14	0.750			
0.6260	40067.15	3.6580	3.6577	1.6235	25.64	-0.14	0.750			
0.6307	40362.24	3.6550	3.6552	1.5119	25.65	-0.13	0.750			
0.6350	40639.63	3.6520	3.6521	1.4155	25.65	-0.13	0.750			
0.6391	40902.56	3.6490	3.6486	1.3173	25.66	-0.12	0.750			
0.6429	41143.85	3.6460	3.6461	1.2330	25.67	-0.11	0.750			
0.6465	41374.94	3.6430	3.6431	1.1789	25.67	-0.11	0.750			
0.6499	41594.67	3.6400	3.6401	1.1232	25.68	-0.10	0.750			
0.6532	41805.17	3.6370	3.6370	1.0601	25.68	-0.10	0.750			
0.6563	42000.14	3.6340	3.6341	1.0152	25.69	-0.09	0.750			
0.6592	42189.66	3.6310	3.6310	0.9848	25.70	-0.08	0.750			
0.6621	42375.75	3.6280	3.6281	0.9567	25.71	-0.07	0.750			
0.6649	42554.02	3.6250	3.6251	0.9204	25.71	-0.07	0.750			
0.6676	42728.47	3.6220	3.6221	0.8924	25.72	-0.06	0.750			
0.6703	42902.21	3.6190	3.6190	0.8593	25.72	-0.06	0.750			
0.6729	43064.78	3.6160	3.6160	0.8233	25.72	-0.06	0.750			
0.6753	43219.48	3.6130	3.6130	0.7773	25.73	-0.05	0.750			
0.6776	43364.47	3.6100	3.6101	0.7332	25.73	-0.05	0.750			
0.6797	43501.71	3.6070	3.6074	0.6858	25.74	-0.04	0.750			
0.6817	43628.99	3.6040	3.6041	0.6377	25.75	-0.03	0.750			
0.6836	43747.39	3.6010	3.6010	0.5884	25.76	-0.02	0.750			
0.6852	43855.09	3.5980	3.5980	0.5409	25.76	-0.02	0.750			
0.6868	43953.80	3.5950	3.5950	0.4889	25.77	-0.01	0.750			
0.6882	44043.45	3.5920	3.5920	0.4446	25.78	-0.00	0.750			
0.6894	44123.81	3.5890	3.5891	0.3977	25.78	0.00	0.750			
0.6906	44196.65	3.5860	3.5860	0.3524	25.79	0.01	0.750			
0.6916	44260.03	3.5830	3.5829	0.3062	25.79	0.01	0.750			
0.6924	44314.57	3.5800	3.5801	0.2596	25.79	0.01	0.750			
0.6931	44359.65	3.5770	3.5771	0.2116	25.80	0.02	0.750			
0.6937	44396.98	3.5740	3.5740	0.1611	25.80	0.02	0.750			
0.6941	44422.99	3.5710	3.5709	0.1045	25.80	0.02	0.750			
