Ah_balance (normalized)	Ah_balance (mAh)	Voltage - fit (V)	Voltage -  interpolate (V)	dQ/dV (1/V)	Temperature (°C)	Temperature - diff (°C)	Current (C)	R_DC 0ms (mOhm)	R_DC 50ms (mOhm)	R_DC 50 ms PEC (mOhm)
0.0474	3034.32	4.1980	4.1980	0.7552	25.53	0.39	0.750			
0.0497	3180.94	4.1950	4.1950	0.7646	25.53	0.39	0.750			
0.0520	3327.43	4.1920	4.1921	0.7637	25.53	0.39	0.750			
0.0543	3473.94	4.1890	4.1890	0.7630	25.53	0.39	0.750			
0.0566	3620.89	4.1860	4.1860	0.7631	25.53	0.39	0.750			
0.0588	3766.34	4.1830	4.1830	0.7604	25.53	0.39	0.750			
0.0611	3911.76	4.1800	4.1799	0.7630	25.53	0.39	0.750			
0.0634	4058.81	4.1770	4.1770	0.7684	25.53	0.39	0.750			
0.0658	4209.70	4.1740	4.1739	0.7612	25.53	0.39	0.750			
0.0681	4357.41	4.1710	4.1710	0.7552	25.53	0.39	0.750			
0.0703	4500.22	4.1680	4.1681	0.7468	25.53	0.39	0.750			
0.0725	4642.41	4.1650	4.1652	0.7458	25.53	0.39	0.750			
0.0747	4781.88	4.1620	4.1617	0.7441	25.53	0.39	0.750			
0.0769	4923.69	4.1590	4.1590	0.7488	25.53	0.39	0.750			
0.0792	5066.53	4.1560	4.1560	0.7551	25.53	0.39	0.750			
0.0815	5213.98	4.1530	4.1531	0.7722	25.53	0.39	0.750			
0.0838	5365.06	4.1500	4.1500	0.7816	25.53	0.39	0.750			
0.0862	5516.60	4.1470	4.1469	0.7841	25.53	0.39	0.750			
0.0886	5667.39	4.1440	4.1441	0.7876	25.53	0.39	0.750			
0.0909	5819.98	4.1410	4.1410	0.7903	25.54	0.40	0.750			
0.0933	5972.04	4.1380	4.1380	0.7830	25.54	0.40	0.750			
0.0956	6120.54	4.1350	4.1351	0.7807	25.54	0.40	0.750			
0.0979	6267.01	4.1320	4.1322	0.7819	25.55	0.41	0.750			
0.1003	6417.69	4.1290	4.1291	0.7874	25.55	0.41	0.750			
0.1027	6571.92	4.1260	4.1260	0.7879	25.55	0.41	0.750			
0.1050	6722.39	4.1230	4.1231	0.7918	25.55	0.41	0.750			
0.1075	6877.49	4.1200	4.1201	0.8006	25.54	0.40	0.750			
0.1098	7029.50	4.1170	4.1171	0.7988	25.54	0.40	0.750			
0.1122	7182.58	4.1140	4.1137	0.7998	25.54	0.40	0.750			
0.1146	7336.30	4.1110	4.1110	0.8034	25.54	0.40	0.750			
0.1171	7492.29	4.1080	4.1081	0.8039	25.54	0.40	0.750			
0.1195	7646.75	4.1050	4.1050	0.8051	25.55	0.41	0.750			
0.1219	7801.76	4.1020	4.1020	0.8015	25.55	0.41	0.750			
0.1243	7955.29	4.0990	4.0988	0.8065	25.55	0.41	0.750			
0.1267	8109.09	4.0960	4.0960	0.8076	25.55	0.41	0.750			
0.1292	8268.42	4.0930	4.0930	0.7922	25.55	0.41	0.750			
0.1316	8419.36	4.0900	4.0900	0.8061	25.55	0.41	0.750			
0.1340	8573.57	4.0870	4.0871	0.8173	25.55	0.41	0.750			
0.1364	8728.77	4.0840	4.0836	0.8223	25.55	0.41	0.750			
0.1389	8887.61	4.0810	4.0812	0.8300	25.55	0.41	0.750			
0.1414	9050.21	4.0780	4.0782	0.8208	25.55	0.41	0.750			
0.1439	9208.94	4.0750	4.0751	0.8313	25.56	0.42	0.750			
0.1464	9370.81	4.0720	4.0720	0.8394	25.56	0.42	0.750			
0.1489	9527.37	4.0690	4.0687	0.8291	25.56	0.42	0.750			
0.1513	9686.16	4.0660	4.0661	0.8348	25.56	0.42	0.750			
0.1539	9848.09	4.0630	4.0631	0.8354	25.56	0.42	0.750			
0.1564	10009.45	4.0600	4.0601	0.8393	25.57	0.43	0.750			
0.1589	10171.10	4.0570	4.0570	0.8370	25.57	0.43	0.750			
0.1614	10332.25	4.0540	4.0538	0.8391	25.57	0.43	0.750			
0.1639	10492.38	4.0510	4.0511	0.8430	25.57	0.43	0.750			
0.1666	10659.79	4.0480	4.0479	0.8280	25.57	0.43	0.750			
0.1690	10816.08	4.0450	4.0450	0.8443	25.57	0.43	0.750			
0.1715	10977.60	4.0420	4.0422	0.8461	25.57	0.43	0.750			
0.1741	11140.63	4.0390	4.0383	0.8538	25.57	0.43	0.750			
0.1766	11305.51	4.0360	4.0362	0.8596	25.57	0.43	0.750			
0.1792	11471.51	4.0330	4.0331	0.8614	25.58	0.44	0.750			
0.1818	11637.17	4.0300	4.0301	0.8658	25.58	0.44	0.750			
0.1844	11804.21	4.0270	4.0270	0.8600	25.59	0.45	0.750			
0.1870	11970.90	4.0240	4.0241	0.8652	25.59	0.45	0.750			
0.1897	12138.49	4.0210	4.0211	0.8697	25.59	0.45	0.750			
0.1923	12304.21	4.0180	4.0181	0.8796	25.60	0.46	0.750			
0.1949	12475.56	4.0150	4.0150	0.8874	25.60	0.46	0.750			
0.1976	12646.17	4.0120	4.0119	0.8808	25.61	0.47	0.750			
0.2003	12816.60	4.0090	4.0090	0.8832	25.61	0.47	0.750			
0.2029	12982.56	4.0060	4.0062	0.9034	25.61	0.47	0.750			
0.2056	13157.14	4.0030	4.0028	0.9191	25.61	0.47	0.750			
0.2084	13337.25	4.0000	3.9998	0.9235	25.61	0.47	0.750			
0.2112	13515.56	3.9970	3.9971	0.9277	25.61	0.47	0.750			
0.2141	13700.72	3.9940	3.9942	0.9320	25.61	0.47	0.750			
0.2169	13880.46	3.9910	3.9910	0.9296	25.62	0.48	0.750			
0.2196	14056.95	3.9880	3.9879	0.9181	25.62	0.48	0.750			
0.2223	14228.24	3.9850	3.9850	0.9044	25.63	0.49	0.750			
0.2250	14401.55	3.9820	3.9821	0.9055	25.63	0.49	0.750			
0.2278	14576.74	3.9790	3.9790	0.9001	25.63	0.49	0.750			
0.2304	14747.98	3.9760	3.9760	0.9048	25.63	0.49	0.750			
0.2331	14921.22	3.9730	3.9730	0.9119	25.64	0.50	0.750			
0.2359	15095.31	3.9700	3.9699	0.9131	25.64	0.50	0.750			
0.2387	15276.74	3.9670	3.9670	0.9052	25.64	0.50	0.750			
0.2416	15459.69	3.9640	3.9640	0.8694	25.64	0.50	0.750			
0.2440	15615.89	3.9610	3.9612	0.8976	25.65	0.51	0.750			
0.2466	15783.72	3.9580	3.9584	0.9070	25.65	0.51	0.750			
0.2493	15954.49	3.9550	3.9535	0.9125	25.65	0.51	0.750			
0.2521	16133.51	3.9520	3.9524	0.9188	25.65	0.51	0.750			
0.2549	16314.25	3.9490	3.9494	0.9407	25.66	0.52	0.750			
0.2578	16501.03	3.9460	3.9462	0.9522	25.66	0.52	0.750			
0.2607	16684.43	3.9430	3.9429	0.9327	25.67	0.53	0.750			
0.2635	16865.86	3.9400	3.9401	0.9310	25.67	0.53	0.750			
0.2663	17045.26	3.9370	3.9370	0.9383	25.67	0.53	0.750			
0.2692	17226.38	3.9340	3.9341	0.9461	25.68	0.54	0.750			
0.2721	17412.25	3.9310	3.9311	0.9546	25.68	0.54	0.750			
0.2749	17591.87	3.9280	3.9278	0.9510	25.68	0.54	0.750			
0.2778	17778.93	3.9250	3.9249	0.9368	25.68	0.54	0.750			
0.2806	17955.68	3.9220	3.9221	0.9370	25.69	0.55	0.750			
0.2833	18134.25	3.9190	3.9193	0.9458	25.69	0.55	0.750			
0.2861	18313.19	3.9160	3.9158	0.9500	25.69	0.55	0.750			
0.2890	18496.27	3.9130	3.9124	0.9565	25.69	0.55	0.750			
0.2919	18678.67	3.9100	3.9103	0.9690	25.69	0.55	0.750			
0.2948	18868.33	3.9070	3.9072	0.9796	25.69	0.55	0.750			
0.2979	19064.01	3.9040	3.9039	0.9890	25.69	0.55	0.750			
0.3009	19259.63	3.9010	3.9009	0.9807	25.69	0.55	0.750			
0.3038	19440.60	3.8980	3.8980	0.9719	25.69	0.55	0.750			
0.3067	19627.64	3.8950	3.8951	0.9710	25.69	0.55	0.750			
0.3096	19813.53	3.8920	3.8921	0.9735	25.69	0.55	0.750			
0.3125	19997.62	3.8890	3.8889	0.9684	25.69	0.55	0.750			
0.3154	20183.72	3.8860	3.8861	0.9730	25.69	0.55	0.750			
0.3184	20374.71	3.8830	3.8830	0.9625	25.70	0.56	0.750			
0.3212	20556.63	3.8800	3.8801	0.9801	25.70	0.56	0.750			
0.3241	20742.29	3.8770	3.8767	0.9825	25.70	0.56	0.750			
0.3271	20931.99	3.8740	3.8740	0.9937	25.70	0.56	0.750			
0.3301	21124.19	3.8710	3.8710	1.0034	25.70	0.56	0.750			
0.3331	21320.52	3.8680	3.8681	1.0123	25.69	0.55	0.750			
0.3362	21517.34	3.8650	3.8651	1.0190	25.69	0.55	0.750			
0.3394	21719.33	3.8620	3.8620	1.0193	25.69	0.55	0.750			
0.3423	21905.98	3.8590	3.8590	1.0049	25.68	0.54	0.750			
0.3453	22098.87	3.8560	3.8561	1.0106	25.68	0.54	0.750			
0.3483	22292.19	3.8530	3.8530	1.0165	25.67	0.53	0.750			
0.3514	22490.74	3.8500	3.8500	1.0028	25.67	0.53	0.750			
0.3544	22682.42	3.8470	3.8470	1.0178	25.67	0.53	0.750			
0.3575	22880.78	3.8440	3.8441	1.0094	25.66	0.52	0.750			
0.3605	23074.61	3.8410	3.8412	1.0095	25.66	0.52	0.750			
0.3634	23260.05	3.8380	3.8384	1.0350	25.66	0.52	0.750			
0.3665	23456.64	3.8350	3.8353	1.0532	25.65	0.51	0.750			
0.3698	23665.72	3.8320	3.8319	1.0724	25.64	0.50	0.750			
0.3731	23878.34	3.8290	3.8288	1.0991	25.63	0.49	0.750	0.343	0.422	
0.3764	24092.02	3.8260	3.8263	1.0959	25.63	0.49	0.750			
0.3798	24309.11	3.8230	3.8230	1.0986	25.62	0.48	0.750			
0.3830	24513.59	3.8200	3.8200	1.0825	25.62	0.48	0.750			
0.3862	24719.52	3.8170	3.8168	1.0837	25.61	0.47	0.750			
0.3895	24929.39	3.8140	3.8140	1.0833	25.60	0.46	0.750			
0.3928	25137.49	3.8110	3.8111	1.0923	25.59	0.45	0.750			
0.3961	25350.40	3.8080	3.8080	1.0884	25.58	0.44	0.750			
0.3994	25560.12	3.8050	3.8047	1.0926	25.57	0.43	0.750			
0.4026	25764.06	3.8020	3.8021	1.0964	25.56	0.42	0.750			
0.4058	25973.59	3.7990	3.7991	1.1099	25.55	0.41	0.750			
0.4092	26188.60	3.7960	3.7960	1.1256	25.55	0.41	0.750			
0.4126	26407.32	3.7930	3.7930	1.1304	25.54	0.40	0.750			
0.4160	26624.83	3.7900	3.7901	1.1536	25.53	0.39	0.750			
0.4196	26852.20	3.7870	3.7870	1.1748	25.52	0.38	0.750			
0.4231	27080.46	3.7840	3.7838	1.1703	25.51	0.37	0.750			
0.4266	27303.95	3.7810	3.7811	1.1823	25.50	0.36	0.750			
0.4302	27530.57	3.7780	3.7782	1.2044	25.49	0.35	0.750			
0.4338	27763.53	3.7750	3.7751	1.2232	25.48	0.34	0.750			
0.4374	27996.69	3.7720	3.7717	1.2352	25.47	0.33	0.750			
0.4412	28236.45	3.7690	3.7691	1.2708	25.46	0.32	0.750			
0.4451	28484.48	3.7660	3.7660	1.3037	25.44	0.30	0.750			
0.4490	28738.53	3.7630	3.7628	1.3329	25.43	0.29	0.750			
0.4531	28995.32	3.7600	3.7601	1.3553	25.41	0.27	0.750			
0.4572	29259.98	3.7570	3.7570	1.3913	25.40	0.26	0.750			
0.4615	29534.75	3.7540	3.7539	1.4045	25.38	0.24	0.750			
0.4657	29807.28	3.7510	3.7510	1.4165	25.37	0.23	0.750			
0.4700	30076.94	3.7480	3.7481	1.4602	25.36	0.22	0.750			
0.4743	30355.08	3.7450	3.7448	1.5111	25.35	0.21	0.750			
0.4789	30647.01	3.7420	3.7423	1.5583	25.34	0.20	0.750			
0.4836	30953.29	3.7390	3.7392	1.6002	25.32	0.18	0.750			
0.4886	31271.80	3.7360	3.7360	1.6356	25.31	0.17	0.750			
0.4937	31595.93	3.7330	3.7330	1.6601	25.29	0.15	0.750			
0.4989	31932.72	3.7300	3.7295	1.6560	25.28	0.14	0.750			
0.5038	32243.20	3.7270	3.7270	1.6520	25.27	0.13	0.750			
0.5087	32555.08	3.7240	3.7244	1.6576	25.26	0.12	0.750			
0.5134	32855.14	3.7210	3.7208	1.7705	25.24	0.10	0.750			
0.5187	33194.64	3.7180	3.7183	1.9052	25.23	0.09	0.750			
0.5244	33564.23	3.7150	3.7152	2.0811	25.21	0.07	0.750			
0.5312	33999.43	3.7120	3.7114	2.2301	25.19	0.05	0.750			
0.5382	34444.39	3.7090	3.7094	2.2797	25.18	0.04	0.750			
0.5452	34890.51	3.7060	3.7061	2.3035	25.15	0.01	0.750			
0.5519	35321.43	3.7030	3.7028	2.2786	25.13	-0.01	0.750			
0.5584	35738.74	3.7000	3.6998	2.2788	25.12	-0.02	0.750			
0.5654	36183.66	3.6970	3.6970	2.3591	25.10	-0.04	0.750			
0.5726	36648.24	3.6940	3.6938	2.3942	25.08	-0.06	0.750			
0.5798	37109.82	3.6910	3.6913	2.4336	25.07	-0.07	0.750			
0.5872	37581.80	3.6880	3.6879	2.5330	25.06	-0.08	0.750			
0.5950	38077.13	3.6850	3.6850	2.6271	25.05	-0.09	0.750			
0.6031	38598.46	3.6820	3.6822	2.7533	25.03	-0.11	0.750			
0.6115	39132.93	3.6790	3.6792	2.7972	25.02	-0.12	0.750			
0.6198	39666.22	3.6760	3.6761	2.8271	25.02	-0.12	0.750			
0.6286	40229.06	3.6730	3.6729	2.8247	25.02	-0.12	0.750			
0.6371	40771.22	3.6700	3.6699	2.9148	25.01	-0.13	0.750			
0.6460	41345.37	3.6670	3.6669	2.9271	25.00	-0.14	0.750			
0.6548	41906.91	3.6640	3.6641	2.8386	25.01	-0.13	0.750			
0.6636	42467.57	3.6610	3.6609	2.7434	25.02	-0.12	0.750			
0.6713	42963.73	3.6580	3.6578	2.4819	25.02	-0.12	0.750			
0.6784	43416.05	3.6550	3.6548	2.2420	25.03	-0.11	0.750			
0.6846	43814.11	3.6520	3.6519	1.9968	25.04	-0.10	0.750			
0.6902	44173.13	3.6490	3.6491	1.7935	25.05	-0.09	0.750			
0.6952	44490.15	3.6460	3.6458	1.6048	25.05	-0.09	0.750			
0.6997	44781.03	3.6430	3.6427	1.4265	25.06	-0.08	0.750			
0.7037	45035.19	3.6400	3.6403	1.2887	25.07	-0.07	0.750			
0.7073	45267.33	3.6370	3.6371	1.1728	25.07	-0.07	0.750			
0.7105	45473.99	3.6340	3.6339	1.0669	25.08	-0.06	0.750			
0.7135	45664.35	3.6310	3.6310	0.9805	25.08	-0.06	0.750			
0.7163	45843.55	3.6280	3.6280	0.9180	25.09	-0.05	0.750			
0.7189	46009.16	3.6250	3.6252	0.8853	25.10	-0.04	0.750			
0.7214	46171.59	3.6220	3.6219	0.8540	25.10	-0.04	0.750			
0.7239	46332.52	3.6190	3.6186	0.8404	25.11	-0.03	0.750			
0.7264	46492.61	3.6160	3.6160	0.8242	25.12	-0.02	0.750			
0.7290	46655.55	3.6130	3.6131	0.7956	25.12	-0.02	0.750			
0.7315	46814.69	3.6100	3.6100	0.7605	25.13	-0.01	0.750			
0.7337	46958.39	3.6070	3.6072	0.6973	25.13	-0.01	0.750			
0.7358	47088.44	3.6040	3.6040	0.6268	25.14	-0.00	0.750			
0.7375	47200.12	3.6010	3.6010	0.5555	25.14	0.00	0.750			
0.7390	47298.36	3.5980	3.5981	0.4882	25.15	0.01	0.750			
0.7404	47384.73	3.5950	3.5952	0.4248	25.15	0.01	0.750			
0.7416	47460.08	3.5920	3.5921	0.3670	25.15	0.01	0.750			
0.7426	47523.20	3.5890	3.5890	0.3031	25.15	0.01	0.750			
0.7434	47575.08	3.5860	3.5861	0.2463	25.16	0.02	0.750			
0.7440	47617.55	3.5830	3.5831	0.1917	25.16	0.02	0.750			
0.7445	47648.22	3.5800	3.5805	0.1354	25.16	0.02	0.750			
0.7448	47669.51	3.5770	3.5778	0.0718	25.16	0.02	0.750			
