Ah_balance (normalized)	Ah_balance (mAh)	Voltage - fit (V)	Voltage -  interpolate (V)	dQ/dV (1/V)	Temperature (°C)	Temperature - diff (°C)	Current (C)	R_DC 0ms (mOhm)	R_DC 50ms (mOhm)	R_DC 50 ms PEC (mOhm)
0.0005	30.51	4.1580	4.1579	-0.1429	25.33	0.01	-0.750			
0.0010	61.85	4.1550	4.1549	-0.1833	25.33	0.01	-0.750			
0.0016	101.22	4.1520	4.1519	-0.2229	25.33	0.01	-0.750			
0.0023	147.61	4.1490	4.1492	-0.2627	25.33	0.01	-0.750			
0.0032	202.12	4.1460	4.1460	-0.3006	25.33	0.01	-0.750			
0.0041	264.62	4.1430	4.1430	-0.3409	25.33	0.01	-0.750			
0.0052	334.18	4.1400	4.1400	-0.3765	25.32	0.00	-0.750			
0.0064	410.84	4.1370	4.1370	-0.4065	25.32	0.00	-0.750			
0.0077	493.00	4.1340	4.1343	-0.4372	25.32	0.00	-0.750			
0.0091	579.57	4.1310	4.1309	-0.4691	25.32	-0.00	-0.750			
0.0105	672.11	4.1280	4.1279	-0.4966	25.32	-0.00	-0.750			
0.0120	769.72	4.1250	4.1249	-0.5213	25.31	-0.01	-0.750			
0.0136	872.37	4.1220	4.1221	-0.5447	25.31	-0.01	-0.750			
0.0154	984.97	4.1190	4.1190	-0.5717	25.31	-0.01	-0.750			
0.0172	1097.61	4.1160	4.1158	-0.5895	25.31	-0.01	-0.750			
0.0189	1212.70	4.1130	4.1130	-0.6044	25.30	-0.02	-0.750			
0.0208	1330.02	4.1100	4.1103	-0.6140	25.30	-0.02	-0.750			
0.0226	1449.24	4.1070	4.1068	-0.6271	25.30	-0.02	-0.750			
0.0245	1570.65	4.1040	4.1040	-0.6360	25.29	-0.03	-0.750			
0.0264	1691.36	4.1010	4.1011	-0.6400	25.29	-0.03	-0.750			
0.0284	1819.70	4.0980	4.0979	-0.6589	25.29	-0.03	-0.750			
0.0304	1946.18	4.0950	4.0951	-0.6643	25.28	-0.04	-0.750			
0.0324	2074.72	4.0920	4.0917	-0.6730	25.28	-0.04	-0.750			
0.0345	2206.43	4.0890	4.0888	-0.6788	25.28	-0.04	-0.750			
0.0365	2335.22	4.0860	4.0859	-0.6864	25.28	-0.04	-0.750			
0.0386	2467.79	4.0830	4.0831	-0.6933	25.28	-0.04	-0.750			
0.0407	2602.01	4.0800	4.0800	-0.6989	25.28	-0.04	-0.750			
0.0428	2737.73	4.0770	4.0769	-0.7070	25.28	-0.04	-0.750			
0.0449	2873.57	4.0740	4.0741	-0.7133	25.28	-0.04	-0.750			
0.0471	3012.28	4.0710	4.0709	-0.7146	25.28	-0.04	-0.750			
0.0492	3151.35	4.0680	4.0680	-0.7189	25.28	-0.04	-0.750			
0.0514	3289.47	4.0650	4.0650	-0.7165	25.28	-0.04	-0.750			
0.0536	3428.34	4.0620	4.0620	-0.7088	25.28	-0.04	-0.750			
0.0557	3564.23	4.0590	4.0589	-0.7092	25.28	-0.04	-0.750			
0.0578	3697.05	4.0560	4.0565	-0.7124	25.28	-0.04	-0.750			
0.0599	3832.04	4.0530	4.0527	-0.7135	25.28	-0.04	-0.750			
0.0620	3967.01	4.0500	4.0499	-0.7399	25.28	-0.04	-0.750			
0.0643	4112.83	4.0470	4.0469	-0.7382	25.29	-0.03	-0.750			
0.0666	4262.57	4.0440	4.0439	-0.7542	25.29	-0.03	-0.750			
0.0689	4407.60	4.0410	4.0408	-0.7473	25.29	-0.03	-0.750			
0.0711	4550.16	4.0380	4.0378	-0.7365	25.29	-0.03	-0.750			
0.0733	4689.67	4.0350	4.0348	-0.7338	25.29	-0.03	-0.750			
0.0754	4825.73	4.0320	4.0320	-0.7316	25.29	-0.03	-0.750			
0.0775	4961.53	4.0290	4.0291	-0.7283	25.29	-0.03	-0.750			
0.0798	5110.09	4.0260	4.0260	-0.7502	25.29	-0.03	-0.750			
0.0821	5254.00	4.0230	4.0230	-0.7529	25.29	-0.03	-0.750			
0.0844	5400.07	4.0200	4.0199	-0.7532	25.29	-0.03	-0.750			
0.0866	5544.07	4.0170	4.0170	-0.7625	25.29	-0.03	-0.750			
0.0889	5691.15	4.0140	4.0140	-0.7615	25.29	-0.03	-0.750			
0.0912	5836.04	4.0110	4.0110	-0.7649	25.30	-0.02	-0.750			
0.0935	5983.77	4.0080	4.0079	-0.7719	25.30	-0.02	-0.750			
0.0958	6133.35	4.0050	4.0053	-0.7778	25.30	-0.02	-0.750			
0.0982	6281.99	4.0020	4.0019	-0.7854	25.30	-0.02	-0.750			
0.1006	6435.44	3.9990	3.9990	-0.7887	25.30	-0.02	-0.750			
0.1029	6586.88	3.9960	3.9961	-0.7786	25.31	-0.01	-0.750			
0.1053	6739.29	3.9930	3.9928	-0.7784	25.31	-0.01	-0.750			
0.1076	6886.92	3.9900	3.9901	-0.7731	25.31	-0.01	-0.750			
0.1099	7034.45	3.9870	3.9869	-0.7710	25.31	-0.01	-0.750			
0.1122	7179.64	3.9840	3.9839	-0.7764	25.31	-0.01	-0.750			
0.1145	7330.69	3.9810	3.9811	-0.7731	25.32	-0.00	-0.750			
0.1169	7480.05	3.9780	3.9779	-0.7780	25.32	-0.00	-0.750			
0.1192	7630.34	3.9750	3.9750	-0.7732	25.32	-0.00	-0.750			
0.1215	7778.62	3.9720	3.9720	-0.7702	25.32	0.00	-0.750			
0.1238	7921.11	3.9690	3.9690	-0.7843	25.32	0.00	-0.750			
0.1261	8073.51	3.9660	3.9659	-0.7813	25.32	0.00	-0.750			
0.1285	8224.60	3.9630	3.9628	-0.7826	25.33	0.01	-0.750			
0.1309	8378.12	3.9600	3.9599	-0.7907	25.33	0.01	-0.750			
0.1333	8531.90	3.9570	3.9574	-0.7895	25.33	0.01	-0.750			
0.1356	8680.88	3.9540	3.9539	-0.7977	25.33	0.01	-0.750			
0.1380	8833.01	3.9510	3.9509	-0.7899	25.34	0.02	-0.750			
0.1403	8981.09	3.9480	3.9481	-0.7830	25.34	0.02	-0.750			
0.1428	9138.35	3.9450	3.9448	-0.7978	25.35	0.03	-0.750			
0.1452	9293.15	3.9420	3.9424	-0.7972	25.35	0.03	-0.750			
0.1476	9445.31	3.9390	3.9388	-0.7907	25.35	0.03	-0.750			
0.1499	9595.23	3.9360	3.9360	-0.7922	25.36	0.04	-0.750			
0.1523	9744.65	3.9330	3.9330	-0.7910	25.36	0.04	-0.750			
0.1546	9897.14	3.9300	3.9300	-0.7985	25.36	0.04	-0.750			
0.1571	10051.95	3.9270	3.9269	-0.8029	25.37	0.05	-0.750			
0.1595	10207.15	3.9240	3.9239	-0.7998	25.37	0.05	-0.750			
0.1619	10359.99	3.9210	3.9211	-0.8118	25.37	0.05	-0.750			
0.1643	10515.94	3.9180	3.9180	-0.8167	25.38	0.06	-0.750			
0.1668	10672.11	3.9150	3.9148	-0.8181	25.38	0.06	-0.750			
0.1692	10830.73	3.9120	3.9119	-0.8252	25.38	0.06	-0.750			
0.1717	10991.71	3.9090	3.9089	-0.8260	25.38	0.06	-0.750			
0.1743	11153.58	3.9060	3.9059	-0.8391	25.38	0.06	-0.750			
0.1768	11316.77	3.9030	3.9030	-0.8326	25.39	0.07	-0.750			
0.1793	11472.79	3.9000	3.8999	-0.8182	25.39	0.07	-0.750			
0.1818	11634.67	3.8970	3.8969	-0.8179	25.39	0.07	-0.750			
0.1842	11789.79	3.8940	3.8937	-0.8101	25.39	0.07	-0.750			
0.1866	11941.50	3.8910	3.8910	-0.8030	25.39	0.07	-0.750			
0.1890	12094.55	3.8880	3.8880	-0.7965	25.39	0.07	-0.750			
0.1913	12242.37	3.8850	3.8850	-0.7884	25.40	0.08	-0.750			
0.1938	12400.91	3.8820	3.8820	-0.7994	25.40	0.08	-0.750			
0.1962	12554.55	3.8790	3.8791	-0.7926	25.40	0.08	-0.750			
0.1986	12708.97	3.8760	3.8759	-0.7886	25.41	0.09	-0.750			
0.2009	12858.96	3.8730	3.8730	-0.7934	25.41	0.09	-0.750			
0.2033	13011.32	3.8700	3.8701	-0.7846	25.41	0.09	-0.750			
0.2057	13162.48	3.8670	3.8667	-0.7850	25.42	0.10	-0.750			
0.2080	13311.39	3.8640	3.8647	-0.7828	25.42	0.10	-0.750			
0.2103	13461.87	3.8610	3.8608	-0.7821	25.42	0.10	-0.750			
0.2127	13613.52	3.8580	3.8579	-0.7874	25.42	0.10	-0.750			
0.2151	13766.39	3.8550	3.8550	-0.7782	25.43	0.11	-0.750			
0.2175	13917.71	3.8520	3.8519	-0.7815	25.43	0.11	-0.750			
0.2198	14065.83	3.8490	3.8486	-0.7765	25.43	0.11	-0.750			
0.2221	14212.36	3.8460	3.8458	-0.7665	25.43	0.11	-0.750			
0.2243	14357.44	3.8430	3.8429	-0.7641	25.44	0.12	-0.750			
0.2266	14500.69	3.8400	3.8401	-0.7646	25.44	0.12	-0.750			
0.2289	14651.82	3.8370	3.8371	-0.7721	25.44	0.12	-0.750			
0.2313	14801.03	3.8340	3.8338	-0.7666	25.45	0.13	-0.750			
0.2335	14946.24	3.8310	3.8312	-0.7636	25.45	0.13	-0.750			
0.2358	15092.86	3.8280	3.8281	-0.7623	25.45	0.13	-0.750			
0.2381	15238.98	3.8250	3.8249	-0.7646	25.45	0.13	-0.750			
0.2404	15385.81	3.8220	3.8219	-0.7615	25.46	0.14	-0.750			
0.2427	15530.75	3.8190	3.8190	-0.7621	25.46	0.14	-0.750			
0.2450	15678.51	3.8160	3.8158	-0.7606	25.46	0.14	-0.750			
0.2473	15826.02	3.8130	3.8129	-0.7569	25.46	0.14	-0.750			
0.2495	15969.91	3.8100	3.8101	-0.7485	25.46	0.14	-0.750			
0.2518	16115.26	3.8070	3.8070	-0.7543	25.47	0.15	-0.750			
0.2541	16261.32	3.8040	3.8037	-0.7518	25.47	0.15	-0.750			
0.2563	16403.56	3.8010	3.8009	-0.7540	25.47	0.15	-0.750			
0.2585	16546.82	3.7980	3.7979	-0.7586	25.47	0.15	-0.750			
0.2608	16693.75	3.7950	3.7948	-0.7620	25.47	0.15	-0.750			
0.2631	16839.42	3.7920	3.7920	-0.7685	25.47	0.15	-0.750			
0.2654	16983.40	3.7890	3.7891	-0.7634	25.48	0.16	-0.750			
0.2678	17137.60	3.7860	3.7859	-0.7815	25.48	0.16	-0.750			
0.2701	17287.92	3.7830	3.7831	-0.7822	25.48	0.16	-0.750			
0.2725	17436.85	3.7800	3.7799	-0.7806	25.48	0.16	-0.750			
0.2747	17582.84	3.7770	3.7771	-0.7963	25.48	0.16	-0.750			
0.2771	17737.18	3.7740	3.7740	-0.8174	25.48	0.16	-0.750			
0.2796	17896.05	3.7710	3.7709	-0.8239	25.48	0.16	-0.750			
0.2822	18059.72	3.7680	3.7679	-0.8376	25.48	0.16	-0.750			
0.2847	18221.91	3.7650	3.7652	-0.8396	25.48	0.16	-0.750			
0.2873	18388.06	3.7620	3.7620	-0.8507	25.48	0.16	-0.750			
0.2899	18553.22	3.7590	3.7588	-0.8424	25.48	0.16	-0.750			
0.2924	18711.63	3.7560	3.7559	-0.8275	25.48	0.16	-0.750			
0.2948	18870.39	3.7530	3.7532	-0.8276	25.48	0.16	-0.750			
0.2973	19029.41	3.7500	3.7499	-0.8287	25.48	0.16	-0.750			
0.2998	19185.65	3.7470	3.7468	-0.8303	25.48	0.16	-0.750			
0.3022	19342.96	3.7440	3.7440	-0.8341	25.48	0.16	-0.750			
0.3048	19504.55	3.7410	3.7410	-0.8568	25.48	0.16	-0.750			
0.3073	19669.25	3.7380	3.7380	-0.8654	25.48	0.16	-0.750			
0.3099	19836.67	3.7350	3.7350	-0.8836	25.48	0.16	-0.750			
0.3126	20006.42	3.7320	3.7321	-0.8933	25.48	0.16	-0.750			
0.3153	20180.74	3.7290	3.7290	-0.9025	25.47	0.15	-0.750			
0.3181	20355.60	3.7260	3.7258	-0.9083	25.47	0.15	-0.750			
0.3208	20532.70	3.7230	3.7233	-0.9126	25.47	0.15	-0.750			
0.3235	20705.63	3.7200	3.7200	-0.9289	25.47	0.15	-0.750			
0.3263	20886.20	3.7170	3.7170	-0.9392	25.47	0.15	-0.750			
0.3292	21067.61	3.7140	3.7138	-0.9444	25.46	0.14	-0.750			
0.3320	21249.64	3.7110	3.7112	-0.9573	25.46	0.14	-0.750			
0.3349	21434.56	3.7080	3.7080	-0.9799	25.46	0.14	-0.750			
0.3381	21638.27	3.7050	3.7046	-0.9598	25.46	0.14	-0.750			
0.3410	21823.55	3.7020	3.7018	-0.9245	25.45	0.13	-0.750			
0.3436	21993.18	3.6990	3.6998	-0.9076	25.45	0.13	-0.750	0.369	0.533	
0.3464	22166.69	3.6960	3.6964	-0.9066	25.45	0.13	-0.750			
0.3490	22334.00	3.6930	3.6923	-0.9303	25.44	0.12	-0.750			
0.3515	22499.04	3.6900	3.6899	-0.9518	25.44	0.12	-0.750			
0.3545	22686.95	3.6870	3.6869	-1.0068	25.44	0.12	-0.750			
0.3577	22890.36	3.6840	3.6846	-1.0707	25.43	0.11	-0.750			
0.3611	23109.80	3.6810	3.6810	-1.1053	25.42	0.10	-0.750			
0.3645	23325.67	3.6780	3.6778	-1.1116	25.41	0.09	-0.750			
0.3678	23539.67	3.6750	3.6748	-1.1218	25.41	0.09	-0.750			
0.3712	23758.83	3.6720	3.6718	-1.1532	25.40	0.08	-0.750			
0.3747	23979.64	3.6690	3.6689	-1.1577	25.39	0.07	-0.750			
0.3781	24201.36	3.6660	3.6658	-1.1735	25.39	0.07	-0.750			
0.3815	24419.15	3.6630	3.6632	-1.1915	25.38	0.06	-0.750			
0.3854	24664.48	3.6600	3.6599	-1.2174	25.37	0.05	-0.750			
0.3891	24899.56	3.6570	3.6569	-1.2311	25.37	0.05	-0.750			
0.3927	25130.13	3.6540	3.6541	-1.2760	25.36	0.04	-0.750			
0.3965	25375.72	3.6510	3.6507	-1.2785	25.35	0.03	-0.750			
0.4004	25628.62	3.6480	3.6478	-1.3034	25.34	0.02	-0.750			
0.4044	25881.01	3.6450	3.6450	-1.3088	25.34	0.02	-0.750			
0.4083	26133.05	3.6420	3.6420	-1.3305	25.33	0.01	-0.750			
0.4124	26395.44	3.6390	3.6389	-1.3634	25.32	0.00	-0.750			
0.4163	26644.37	3.6360	3.6360	-1.4014	25.32	-0.00	-0.750			
0.4206	26919.64	3.6330	3.6332	-1.4097	25.31	-0.01	-0.750			
0.4250	27198.01	3.6300	3.6298	-1.4691	25.30	-0.02	-0.750			
0.4295	27485.75	3.6270	3.6268	-1.4976	25.29	-0.03	-0.750			
0.4341	27779.64	3.6240	3.6240	-1.5378	25.28	-0.04	-0.750			
0.4387	28079.44	3.6210	3.6210	-1.5764	25.28	-0.04	-0.750			
0.4436	28388.89	3.6180	3.6175	-1.5655	25.27	-0.05	-0.750			
0.4483	28694.19	3.6150	3.6156	-1.6126	25.27	-0.05	-0.750			
0.4532	29004.10	3.6120	3.6114	-1.6405	25.26	-0.06	-0.750			
0.4580	29309.93	3.6090	3.6089	-1.6585	25.25	-0.07	-0.750			
0.4630	29629.48	3.6060	3.6069	-1.7215	25.25	-0.07	-0.750			
0.4683	29972.94	3.6030	3.6023	-1.7313	25.24	-0.08	-0.750			
0.4734	30297.86	3.6000	3.5999	-1.7165	25.24	-0.08	-0.750			
0.4786	30631.59	3.5970	3.5973	-1.7550	25.23	-0.09	-0.750			
0.4839	30966.86	3.5940	3.5936	-1.7649	25.22	-0.10	-0.750			
0.4892	31308.37	3.5910	3.5907	-1.8583	25.21	-0.11	-0.750			
0.4949	31672.18	3.5880	3.5877	-1.8971	25.21	-0.11	-0.750			
0.5007	32045.63	3.5850	3.5845	-1.9736	25.21	-0.11	-0.750			
0.5069	32440.11	3.5820	3.5828	-1.9588	25.20	-0.12	-0.750			
0.5126	32803.87	3.5790	3.5793	-1.9420	25.20	-0.12	-0.750			
0.5183	33173.71	3.5760	3.5758	-1.9502	25.20	-0.12	-0.750			
0.5240	33538.49	3.5730	3.5737	-1.9189	25.20	-0.12	-0.750			
0.5301	33929.03	3.5700	3.5700	-1.9684	25.20	-0.12	-0.750			
0.5359	34299.69	3.5670	3.5665	-1.9364	25.20	-0.12	-0.750			
0.5420	34687.80	3.5640	3.5637	-2.0483	25.19	-0.13	-0.750			
0.5481	35081.33	3.5610	3.5606	-2.0191	25.19	-0.13	-0.750			
0.5544	35478.94	3.5580	3.5575	-2.0007	25.20	-0.12	-0.750			
0.5602	35851.76	3.5550	3.5552	-1.9917	25.20	-0.12	-0.750			
0.5664	36249.16	3.5520	3.5522	-1.9842	25.20	-0.12	-0.750			
0.5721	36613.63	3.5490	3.5486	-1.9834	25.20	-0.12	-0.750			
0.5780	36993.47	3.5460	3.5456	-1.9986	25.21	-0.11	-0.750			
0.5841	37382.81	3.5430	3.5427	-1.9842	25.21	-0.11	-0.750			
0.5900	37758.83	3.5400	3.5395	-1.9088	25.22	-0.10	-0.750			
0.5956	38116.02	3.5370	3.5377	-1.8881	25.22	-0.10	-0.750			
0.6013	38481.33	3.5340	3.5335	-1.9000	25.23	-0.09	-0.750			
0.6067	38830.72	3.5310	3.5307	-1.8205	25.25	-0.07	-0.750			
0.6122	39181.58	3.5280	3.5281	-1.7800	25.26	-0.06	-0.750			
0.6178	39536.03	3.5250	3.5256	-1.8275	25.27	-0.05	-0.750			
0.6231	39878.51	3.5220	3.5216	-1.7817	25.28	-0.04	-0.750			
0.6285	40221.73	3.5190	3.5184	-1.7348	25.29	-0.03	-0.750			
0.6336	40549.98	3.5160	3.5154	-1.7027	25.30	-0.02	-0.750			
0.6389	40888.87	3.5130	3.5128	-1.6459	25.32	-0.00	-0.750			
0.6435	41186.04	3.5100	3.5101	-1.5702	25.33	0.01	-0.750			
0.6480	41472.98	3.5070	3.5067	-1.4953	25.35	0.03	-0.750			
0.6525	41760.08	3.5040	3.5036	-1.4611	25.36	0.04	-0.750			
0.6569	42040.85	3.5010	3.5017	-1.4388	25.38	0.06	-0.750			
0.6612	42316.93	3.4980	3.4977	-1.4036	25.39	0.07	-0.750			
0.6654	42583.31	3.4950	3.4950	-1.3648	25.40	0.08	-0.750			
0.6696	42852.85	3.4920	3.4930	-1.3478	25.42	0.10	-0.750			
0.6737	43116.09	3.4890	3.4887	-1.3170	25.43	0.11	-0.750			
0.6775	43360.56	3.4860	3.4858	-1.2524	25.44	0.12	-0.750			
0.6811	43589.88	3.4830	3.4830	-1.2455	25.45	0.13	-0.750			
0.6849	43836.23	3.4800	3.4798	-1.3510	25.47	0.15	-0.750			
