Ah_balance (normalized)	Ah_balance (mAh)	Voltage - fit (V)	Voltage -  interpolate (V)	dQ/dV (1/V)	Temperature (°C)	Temperature - diff (°C)	Current (C)	R_DC 0ms (mOhm)	R_DC 50ms (mOhm)	R_DC 50 ms PEC (mOhm)
0.0489	3130.55	4.1960	4.1960	0.6976	25.38	0.54	0.750			
0.0511	3268.84	4.1930	4.1931	0.7286	25.38	0.54	0.750			
0.0533	3412.30	4.1900	4.1896	0.7467	25.38	0.54	0.750			
0.0556	3557.87	4.1870	4.1872	0.7573	25.38	0.54	0.750			
0.0579	3706.63	4.1840	4.1841	0.7588	25.38	0.54	0.750			
0.0602	3853.64	4.1810	4.1810	0.7645	25.39	0.55	0.750			
0.0626	4004.31	4.1780	4.1780	0.7721	25.39	0.55	0.750			
0.0648	4145.93	4.1750	4.1751	0.7612	25.39	0.55	0.750			
0.0671	4293.12	4.1720	4.1721	0.7630	25.39	0.55	0.750			
0.0694	4440.08	4.1690	4.1690	0.7621	25.39	0.55	0.750			
0.0717	4587.24	4.1660	4.1660	0.7599	25.39	0.55	0.750			
0.0739	4731.69	4.1630	4.1630	0.7634	25.38	0.54	0.750			
0.0762	4876.73	4.1600	4.1600	0.7634	25.38	0.54	0.750			
0.0785	5024.21	4.1570	4.1567	0.7696	25.38	0.54	0.750			
0.0808	5171.62	4.1540	4.1541	0.7714	25.38	0.54	0.750			
0.0831	5321.55	4.1510	4.1511	0.7738	25.38	0.54	0.750			
0.0855	5470.08	4.1480	4.1481	0.7675	25.39	0.55	0.750			
0.0877	5614.75	4.1450	4.1451	0.7623	25.39	0.55	0.750			
0.0900	5759.77	4.1420	4.1421	0.7667	25.39	0.55	0.750			
0.0923	5905.52	4.1390	4.1392	0.7722	25.39	0.55	0.750			
0.0946	6056.19	4.1360	4.1361	0.7730	25.39	0.55	0.750			
0.0970	6207.07	4.1330	4.1331	0.7814	25.39	0.55	0.750			
0.0994	6360.79	4.1300	4.1300	0.7877	25.40	0.56	0.750			
0.1017	6508.27	4.1270	4.1271	0.7789	25.40	0.56	0.750			
0.1040	6658.14	4.1240	4.1240	0.7777	25.40	0.56	0.750			
0.1064	6806.72	4.1210	4.1210	0.7789	25.40	0.56	0.750			
0.1087	6956.39	4.1180	4.1180	0.7775	25.40	0.56	0.750			
0.1110	7106.49	4.1150	4.1150	0.7833	25.40	0.56	0.750			
0.1134	7255.32	4.1120	4.1120	0.7852	25.40	0.56	0.750			
0.1157	7407.16	4.1090	4.1088	0.7889	25.40	0.56	0.750			
0.1181	7559.15	4.1060	4.1060	0.7896	25.40	0.56	0.750			
0.1205	7713.49	4.1030	4.1030	0.7901	25.40	0.56	0.750			
0.1229	7864.46	4.1000	4.1000	0.7936	25.40	0.56	0.750			
0.1253	8016.07	4.0970	4.0970	0.7925	25.40	0.56	0.750			
0.1276	8168.33	4.0940	4.0942	0.7963	25.40	0.56	0.750			
0.1300	8320.38	4.0910	4.0911	0.7989	25.40	0.56	0.750			
0.1325	8477.51	4.0880	4.0880	0.7934	25.40	0.56	0.750			
0.1348	8629.34	4.0850	4.0850	0.8007	25.40	0.56	0.750			
0.1372	8783.59	4.0820	4.0821	0.8087	25.41	0.57	0.750			
0.1396	8936.07	4.0790	4.0791	0.8055	25.41	0.57	0.750			
0.1420	9091.14	4.0760	4.0759	0.8081	25.41	0.57	0.750			
0.1445	9247.68	4.0730	4.0731	0.8104	25.41	0.57	0.750			
0.1469	9404.54	4.0700	4.0700	0.8135	25.41	0.57	0.750			
0.1494	9561.70	4.0670	4.0670	0.8178	25.41	0.57	0.750			
0.1518	9716.01	4.0640	4.0641	0.8175	25.41	0.57	0.750			
0.1543	9873.18	4.0610	4.0610	0.8220	25.41	0.57	0.750			
0.1568	10032.77	4.0580	4.0580	0.8287	25.42	0.58	0.750			
0.1593	10193.67	4.0550	4.0550	0.8184	25.42	0.58	0.750			
0.1617	10348.18	4.0520	4.0522	0.8183	25.42	0.58	0.750			
0.1641	10503.86	4.0490	4.0492	0.8227	25.43	0.59	0.750			
0.1666	10660.98	4.0460	4.0454	0.8273	25.43	0.59	0.750			
0.1691	10820.93	4.0430	4.0431	0.8234	25.43	0.59	0.750			
0.1716	10980.54	4.0400	4.0402	0.8338	25.43	0.59	0.750			
0.1741	11145.22	4.0370	4.0370	0.8450	25.43	0.59	0.750			
0.1766	11305.17	4.0340	4.0341	0.8398	25.43	0.59	0.750			
0.1792	11466.57	4.0310	4.0309	0.8450	25.43	0.59	0.750			
0.1817	11631.40	4.0280	4.0280	0.8437	25.43	0.59	0.750			
0.1843	11793.81	4.0250	4.0251	0.8506	25.43	0.59	0.750			
0.1868	11957.89	4.0220	4.0221	0.8545	25.43	0.59	0.750			
0.1894	12121.57	4.0190	4.0190	0.8550	25.43	0.59	0.750			
0.1920	12285.39	4.0160	4.0159	0.8580	25.43	0.59	0.750			
0.1945	12450.49	4.0130	4.0131	0.8635	25.44	0.60	0.750			
0.1971	12616.31	4.0100	4.0101	0.8585	25.44	0.60	0.750			
0.1997	12780.15	4.0070	4.0071	0.8638	25.44	0.60	0.750			
0.2023	12944.13	4.0040	4.0042	0.8657	25.45	0.61	0.750			
0.2048	13110.32	4.0010	4.0012	0.8691	25.45	0.61	0.750			
0.2075	13278.31	3.9980	3.9982	0.8726	25.45	0.61	0.750			
0.2101	13448.50	3.9950	3.9951	0.8807	25.45	0.61	0.750			
0.2129	13622.60	3.9920	3.9920	0.8882	25.45	0.61	0.750			
0.2154	13788.67	3.9890	3.9888	0.8767	25.45	0.61	0.750			
0.2181	13956.41	3.9860	3.9861	0.8785	25.45	0.61	0.750			
0.2207	14125.77	3.9830	3.9830	0.8801	25.45	0.61	0.750			
0.2234	14294.64	3.9800	3.9800	0.8838	25.46	0.62	0.750			
0.2260	14464.43	3.9770	3.9770	0.8887	25.46	0.62	0.750			
0.2287	14634.42	3.9740	3.9738	0.8890	25.46	0.62	0.750			
0.2314	14811.41	3.9710	3.9709	0.8775	25.46	0.62	0.750			
0.2340	14976.55	3.9680	3.9681	0.8826	25.46	0.62	0.750			
0.2366	15144.34	3.9650	3.9652	0.8869	25.47	0.63	0.750			
0.2393	15312.36	3.9620	3.9621	0.8894	25.47	0.63	0.750			
0.2419	15483.14	3.9590	3.9586	0.8940	25.47	0.63	0.750			
0.2446	15657.50	3.9560	3.9561	0.8982	25.47	0.63	0.750			
0.2474	15833.11	3.9530	3.9531	0.9107	25.47	0.63	0.750			
0.2502	16010.41	3.9500	3.9500	0.9153	25.47	0.63	0.750			
0.2529	16183.79	3.9470	3.9469	0.9021	25.47	0.63	0.750			
0.2556	16358.69	3.9440	3.9439	0.8991	25.47	0.63	0.750			
0.2583	16530.75	3.9410	3.9411	0.9025	25.47	0.63	0.750			
0.2610	16703.87	3.9380	3.9381	0.9088	25.48	0.64	0.750			
0.2637	16878.32	3.9350	3.9350	0.9136	25.48	0.64	0.750			
0.2664	17052.62	3.9320	3.9319	0.9134	25.48	0.64	0.750			
0.2692	17231.86	3.9290	3.9290	0.9063	25.48	0.64	0.750			
0.2720	17406.03	3.9260	3.9261	0.9107	25.48	0.64	0.750			
0.2747	17580.19	3.9230	3.9231	0.9092	25.48	0.64	0.750			
0.2774	17752.69	3.9200	3.9201	0.9064	25.48	0.64	0.750			
0.2801	17924.49	3.9170	3.9170	0.9055	25.48	0.64	0.750			
0.2828	18099.11	3.9140	3.9141	0.9063	25.48	0.64	0.750			
0.2855	18274.17	3.9110	3.9110	0.9132	25.48	0.64	0.750			
0.2883	18453.04	3.9080	3.9080	0.9241	25.48	0.64	0.750			
0.2910	18627.02	3.9050	3.9044	0.9171	25.48	0.64	0.750			
0.2938	18805.79	3.9020	3.9020	0.9079	25.48	0.64	0.750			
0.2965	18978.71	3.8990	3.8991	0.9143	25.48	0.64	0.750			
0.2993	19153.83	3.8960	3.8961	0.9185	25.47	0.63	0.750			
0.3020	19330.39	3.8930	3.8929	0.9225	25.47	0.63	0.750			
0.3048	19505.57	3.8900	3.8902	0.9191	25.47	0.63	0.750			
0.3075	19683.11	3.8870	3.8871	0.9133	25.46	0.62	0.750			
0.3103	19859.11	3.8840	3.8841	0.9191	25.46	0.62	0.750			
0.3131	20039.37	3.8810	3.8810	0.9139	25.45	0.61	0.750			
0.3158	20210.45	3.8780	3.8775	0.9131	25.45	0.61	0.750			
0.3186	20389.21	3.8750	3.8751	0.9089	25.45	0.61	0.750			
0.3213	20566.24	3.8720	3.8722	0.8995	25.44	0.60	0.750			
0.3240	20737.76	3.8690	3.8693	0.8952	25.44	0.60	0.750			
0.3267	20909.32	3.8660	3.8664	0.8953	25.43	0.59	0.750			
0.3293	21074.92	3.8630	3.8635	0.8937	25.43	0.59	0.750			
0.3320	21247.96	3.8600	3.8605	0.9042	25.42	0.58	0.750			
0.3346	21413.46	3.8570	3.8578	0.9420	25.42	0.58	0.750			
0.3375	21600.47	3.8540	3.8547	0.9915	25.41	0.57	0.750			
0.3407	21803.38	3.8510	3.8510	1.0164	25.40	0.56	0.750			
0.3438	22005.17	3.8480	3.8484	1.0063	25.39	0.55	0.750			
0.3469	22199.18	3.8450	3.8454	1.0014	25.39	0.55	0.750			
0.3498	22389.70	3.8420	3.8423	0.9936	25.38	0.54	0.750			
0.3528	22581.79	3.8390	3.8389	0.9881	25.37	0.53	0.750			
0.3557	22762.76	3.8360	3.8362	0.9549	25.36	0.52	0.750	0.337	0.453	
0.3585	22946.31	3.8330	3.8332	0.9653	25.35	0.51	0.750			
0.3615	23134.66	3.8300	3.8302	0.9749	25.34	0.50	0.750			
0.3645	23326.78	3.8270	3.8271	0.9786	25.34	0.50	0.750			
0.3674	23512.14	3.8240	3.8241	0.9766	25.32	0.48	0.750			
0.3703	23699.37	3.8210	3.8211	0.9853	25.31	0.47	0.750			
0.3733	23890.67	3.8180	3.8180	0.9954	25.30	0.46	0.750			
0.3763	24084.20	3.8150	3.8151	1.0077	25.29	0.45	0.750			
0.3793	24277.33	3.8120	3.8120	1.0092	25.28	0.44	0.750			
0.3824	24471.76	3.8090	3.8090	1.0051	25.27	0.43	0.750			
0.3853	24662.17	3.8060	3.8061	1.0205	25.26	0.42	0.750			
0.3884	24856.92	3.8030	3.8031	1.0373	25.26	0.42	0.750			
0.3916	25059.65	3.8000	3.7996	1.0422	25.25	0.41	0.750			
0.3947	25260.13	3.7970	3.7971	1.0639	25.24	0.40	0.750			
0.3979	25465.82	3.7940	3.7942	1.0831	25.22	0.38	0.750			
0.4012	25678.79	3.7910	3.7911	1.1068	25.21	0.37	0.750			
0.4046	25892.15	3.7880	3.7880	1.1065	25.20	0.36	0.750			
0.4079	26104.86	3.7850	3.7850	1.1270	25.19	0.35	0.750			
0.4113	26322.72	3.7820	3.7821	1.1464	25.18	0.34	0.750			
0.4148	26545.87	3.7790	3.7789	1.1701	25.17	0.33	0.750			
0.4183	26770.52	3.7760	3.7761	1.1754	25.16	0.32	0.750			
0.4218	26997.22	3.7730	3.7730	1.2010	25.15	0.31	0.750			
0.4255	27229.23	3.7700	3.7701	1.2276	25.13	0.29	0.750			
0.4292	27469.45	3.7670	3.7670	1.2444	25.12	0.28	0.750			
0.4329	27705.84	3.7640	3.7641	1.2704	25.11	0.27	0.750			
0.4368	27952.37	3.7610	3.7611	1.3035	25.09	0.25	0.750			
0.4407	28206.07	3.7580	3.7576	1.3273	25.08	0.24	0.750			
0.4447	28461.79	3.7550	3.7551	1.3604	25.07	0.23	0.750			
0.4488	28726.08	3.7520	3.7521	1.3964	25.06	0.22	0.750			
0.4532	29003.12	3.7490	3.7487	1.4129	25.04	0.20	0.750			
0.4574	29271.57	3.7460	3.7462	1.4371	25.03	0.19	0.750			
0.4617	29546.90	3.7430	3.7432	1.4891	25.01	0.17	0.750			
0.4662	29837.71	3.7400	3.7394	1.5147	25.00	0.16	0.750			
0.4708	30129.96	3.7370	3.7369	1.5502	24.98	0.14	0.750			
0.4755	30430.42	3.7340	3.7343	1.6132	24.97	0.13	0.750			
0.4805	30751.14	3.7310	3.7311	1.6687	24.95	0.11	0.750			
0.4855	31072.52	3.7280	3.7281	1.7289	24.94	0.10	0.750			
0.4908	31408.70	3.7250	3.7252	1.7635	24.92	0.08	0.750			
0.4962	31757.85	3.7220	3.7221	1.8025	24.90	0.06	0.750			
0.5017	32109.67	3.7190	3.7191	1.8603	24.89	0.05	0.750			
0.5074	32472.46	3.7160	3.7157	1.8808	24.87	0.03	0.750			
0.5130	32831.27	3.7130	3.7128	1.9226	24.85	0.01	0.750			
0.5188	33202.37	3.7100	3.7103	2.0027	24.83	-0.01	0.750			
0.5250	33598.84	3.7070	3.7069	2.0602	24.82	-0.02	0.750			
0.5313	34000.38	3.7040	3.7040	2.1171	24.80	-0.04	0.750			
0.5377	34411.97	3.7010	3.7012	2.2015	24.79	-0.05	0.750			
0.5444	34842.87	3.6980	3.6982	2.2496	24.77	-0.07	0.750			
0.5513	35280.11	3.6950	3.6949	2.3077	24.75	-0.09	0.750			
0.5585	35741.15	3.6920	3.6920	2.3870	24.73	-0.11	0.750			
0.5655	36191.18	3.6890	3.6891	2.4271	24.72	-0.12	0.750			
0.5729	36663.39	3.6860	3.6860	2.4556	24.71	-0.13	0.750			
0.5803	37140.58	3.6830	3.6830	2.5456	24.70	-0.14	0.750			
0.5881	37641.56	3.6800	3.6797	2.6070	24.70	-0.14	0.750			
0.5961	38150.59	3.6770	3.6770	2.6377	24.69	-0.15	0.750			
0.6040	38656.71	3.6740	3.6741	2.6349	24.68	-0.16	0.750			
0.6121	39172.77	3.6710	3.6711	2.5385	24.68	-0.16	0.750			
0.6197	39659.09	3.6680	3.6678	2.4278	24.69	-0.15	0.750			
0.6268	40117.13	3.6650	3.6648	2.2625	24.70	-0.14	0.750			
0.6332	40526.70	3.6620	3.6620	2.0675	24.70	-0.14	0.750			
0.6391	40904.78	3.6590	3.6588	1.8939	24.70	-0.14	0.750			
0.6444	41239.70	3.6560	3.6560	1.7258	24.71	-0.13	0.750			
0.6494	41558.57	3.6530	3.6533	1.6115	24.71	-0.13	0.750			
0.6540	41855.35	3.6500	3.6495	1.4898	24.72	-0.12	0.750			
0.6584	42135.21	3.6470	3.6472	1.3868	24.73	-0.11	0.750			
0.6624	42391.47	3.6440	3.6441	1.2916	24.73	-0.11	0.750			
0.6660	42627.01	3.6410	3.6407	1.2018	24.74	-0.10	0.750			
0.6694	42841.59	3.6380	3.6380	1.1082	24.75	-0.09	0.750			
0.6726	43045.97	3.6350	3.6350	1.0544	24.76	-0.08	0.750			
0.6756	43239.60	3.6320	3.6320	1.0133	24.76	-0.08	0.750			
0.6786	43430.36	3.6290	3.6286	0.9778	24.77	-0.07	0.750			
0.6814	43612.61	3.6260	3.6260	0.9432	24.78	-0.06	0.750			
0.6842	43791.75	3.6230	3.6230	0.9045	24.78	-0.06	0.750			
0.6869	43963.10	3.6200	3.6201	0.8727	24.79	-0.05	0.750			
0.6895	44128.67	3.6170	3.6170	0.8348	24.80	-0.04	0.750			
0.6919	44283.99	3.6140	3.6141	0.7866	24.80	-0.04	0.750			
0.6942	44431.58	3.6110	3.6111	0.7377	24.81	-0.03	0.750			
0.6964	44572.14	3.6080	3.6080	0.6847	24.82	-0.02	0.750			
0.6984	44700.53	3.6050	3.6050	0.6180	24.82	-0.02	0.750			
0.7002	44812.22	3.6020	3.6021	0.5540	24.83	-0.01	0.750			
0.7017	44911.15	3.5990	3.5990	0.4950	24.83	-0.01	0.750			
0.7031	44998.30	3.5960	3.5960	0.4400	24.84	-0.00	0.750			
0.7043	45076.51	3.5930	3.5931	0.3905	24.84	0.00	0.750			
0.7054	45148.17	3.5900	3.5901	0.3396	24.85	0.01	0.750			
0.7064	45209.04	3.5870	3.5875	0.2910	24.85	0.01	0.750			
0.7072	45263.16	3.5840	3.5841	0.2454	24.85	0.01	0.750			
0.7079	45304.10	3.5810	3.5813	0.1891	24.85	0.01	0.750			
0.7084	45336.34	3.5780	3.5785	0.1338	24.86	0.02	0.750			
0.7088	45361.45	3.5750	3.5753	0.0630	24.86	0.02	0.750			
0.7088	45365.65	3.5720	3.5737	0.0093	24.86	0.02	0.750			
