Ah_balance (normalized)	Ah_balance (mAh)	Voltage - fit (V)	Voltage -  interpolate (V)	dQ/dV (1/V)	Temperature (°C)	Temperature - diff (°C)	Current (C)	R_DC 0ms (mOhm)	R_DC 50ms (mOhm)	R_DC 50 ms PEC (mOhm)
0.0004	25.28	4.1630	4.1632	-0.1403	24.74	0.01	-0.750			
0.0009	58.58	4.1600	4.1599	-0.1919	24.74	0.01	-0.750			
0.0016	101.02	4.1570	4.1569	-0.2358	24.74	0.01	-0.750			
0.0023	149.68	4.1540	4.1542	-0.2814	24.74	0.01	-0.750			
0.0033	208.10	4.1510	4.1509	-0.3257	24.73	0.00	-0.750			
0.0043	275.87	4.1480	4.1482	-0.3659	24.73	-0.00	-0.750			
0.0055	350.49	4.1450	4.1450	-0.4044	24.73	-0.00	-0.750			
0.0068	432.11	4.1420	4.1422	-0.4446	24.72	-0.01	-0.750			
0.0082	521.74	4.1390	4.1389	-0.4829	24.72	-0.01	-0.750			
0.0097	617.95	4.1360	4.1360	-0.5189	24.71	-0.02	-0.750			
0.0113	720.69	4.1330	4.1330	-0.5497	24.71	-0.02	-0.750			
0.0130	831.18	4.1300	4.1300	-0.5797	24.70	-0.03	-0.750			
0.0148	946.25	4.1270	4.1269	-0.6076	24.70	-0.03	-0.750			
0.0167	1066.91	4.1240	4.1244	-0.6265	24.69	-0.04	-0.750			
0.0186	1189.03	4.1210	4.1210	-0.6404	24.69	-0.04	-0.750			
0.0205	1314.54	4.1180	4.1180	-0.6567	24.68	-0.05	-0.750			
0.0225	1441.92	4.1150	4.1150	-0.6748	24.68	-0.05	-0.750			
0.0246	1573.86	4.1120	4.1119	-0.6847	24.67	-0.06	-0.750			
0.0267	1707.15	4.1090	4.1089	-0.6896	24.67	-0.06	-0.750			
0.0288	1841.30	4.1060	4.1064	-0.6950	24.66	-0.07	-0.750			
0.0309	1975.82	4.1030	4.1030	-0.7000	24.66	-0.07	-0.750			
0.0329	2107.89	4.1000	4.0999	-0.7101	24.66	-0.07	-0.750			
0.0351	2243.60	4.0970	4.0970	-0.7170	24.66	-0.07	-0.750			
0.0372	2379.79	4.0940	4.0939	-0.7213	24.66	-0.07	-0.750			
0.0394	2523.12	4.0910	4.0910	-0.7385	24.66	-0.07	-0.750			
0.0417	2667.73	4.0880	4.0881	-0.7511	24.66	-0.07	-0.750			
0.0440	2813.90	4.0850	4.0849	-0.7484	24.66	-0.07	-0.750			
0.0462	2956.32	4.0820	4.0821	-0.7563	24.66	-0.07	-0.750			
0.0485	3101.40	4.0790	4.0791	-0.7549	24.66	-0.07	-0.750			
0.0508	3248.36	4.0760	4.0758	-0.7573	24.66	-0.07	-0.750			
0.0530	3393.38	4.0730	4.0729	-0.7579	24.66	-0.07	-0.750			
0.0553	3537.62	4.0700	4.0699	-0.7605	24.66	-0.07	-0.750			
0.0575	3680.07	4.0670	4.0671	-0.7742	24.66	-0.07	-0.750			
0.0599	3833.23	4.0640	4.0639	-0.7755	24.66	-0.07	-0.750			
0.0622	3981.70	4.0610	4.0610	-0.7715	24.66	-0.07	-0.750			
0.0646	4133.51	4.0580	4.0576	-0.7763	24.66	-0.07	-0.750			
0.0669	4283.17	4.0550	4.0557	-0.7760	24.66	-0.07	-0.750			
0.0692	4431.44	4.0520	4.0518	-0.7741	24.66	-0.07	-0.750			
0.0715	4578.80	4.0490	4.0489	-0.7768	24.66	-0.07	-0.750			
0.0738	4723.97	4.0460	4.0460	-0.7727	24.67	-0.06	-0.750			
0.0762	4877.13	4.0430	4.0429	-0.7865	24.67	-0.06	-0.750			
0.0786	5030.07	4.0400	4.0400	-0.7927	24.67	-0.06	-0.750			
0.0810	5182.32	4.0370	4.0368	-0.7903	24.67	-0.06	-0.750			
0.0833	5333.03	4.0340	4.0341	-0.7956	24.67	-0.06	-0.750			
0.0857	5484.73	4.0310	4.0310	-0.7926	24.68	-0.05	-0.750			
0.0881	5636.98	4.0280	4.0280	-0.7895	24.68	-0.05	-0.750			
0.0905	5791.78	4.0250	4.0249	-0.7941	24.68	-0.05	-0.750			
0.0929	5942.66	4.0220	4.0220	-0.7987	24.68	-0.05	-0.750			
0.0952	6094.88	4.0190	4.0190	-0.8074	24.69	-0.04	-0.750			
0.0977	6252.30	4.0160	4.0161	-0.8067	24.69	-0.04	-0.750			
0.1001	6407.71	4.0130	4.0129	-0.8004	24.69	-0.04	-0.750			
0.1025	6562.85	4.0100	4.0100	-0.8052	24.70	-0.03	-0.750			
0.1049	6716.72	4.0070	4.0069	-0.8084	24.70	-0.03	-0.750			
0.1074	6870.56	4.0040	4.0039	-0.8032	24.70	-0.03	-0.750			
0.1097	7023.07	4.0010	4.0010	-0.8054	24.70	-0.03	-0.750			
0.1122	7178.46	3.9980	3.9980	-0.8064	24.70	-0.03	-0.750			
0.1146	7337.39	3.9950	3.9951	-0.8117	24.70	-0.03	-0.750			
0.1171	7492.44	3.9920	3.9922	-0.8169	24.70	-0.03	-0.750			
0.1195	7647.05	3.9890	3.9889	-0.8136	24.70	-0.03	-0.750			
0.1219	7803.73	3.9860	3.9860	-0.8269	24.71	-0.02	-0.750			
0.1245	7965.85	3.9830	3.9828	-0.8271	24.71	-0.02	-0.750			
0.1270	8126.98	3.9800	3.9800	-0.8305	24.72	-0.01	-0.750			
0.1295	8285.86	3.9770	3.9774	-0.8330	24.72	-0.01	-0.750			
0.1320	8445.60	3.9740	3.9740	-0.8344	24.72	-0.01	-0.750			
0.1345	8606.12	3.9710	3.9708	-0.8438	24.72	-0.01	-0.750			
0.1370	8768.16	3.9680	3.9678	-0.8425	24.73	-0.00	-0.750			
0.1396	8933.79	3.9650	3.9649	-0.8457	24.73	-0.00	-0.750			
0.1421	9095.66	3.9620	3.9624	-0.8462	24.73	0.00	-0.750			
0.1447	9258.04	3.9590	3.9589	-0.8478	24.73	0.00	-0.750			
0.1472	9419.00	3.9560	3.9559	-0.8433	24.73	0.00	-0.750			
0.1496	9576.02	3.9530	3.9529	-0.8309	24.74	0.01	-0.750			
0.1522	9742.40	3.9500	3.9501	-0.8507	24.74	0.01	-0.750			
0.1548	9909.33	3.9470	3.9470	-0.8375	24.74	0.01	-0.750			
0.1573	10069.23	3.9440	3.9440	-0.8214	24.74	0.01	-0.750			
0.1597	10222.38	3.9410	3.9411	-0.8214	24.75	0.02	-0.750			
0.1622	10379.82	3.9380	3.9377	-0.8201	24.75	0.02	-0.750			
0.1646	10535.89	3.9350	3.9348	-0.8250	24.76	0.03	-0.750			
0.1671	10694.26	3.9320	3.9324	-0.8321	24.76	0.03	-0.750			
0.1696	10852.22	3.9290	3.9290	-0.8600	24.76	0.03	-0.750			
0.1723	11026.70	3.9260	3.9258	-0.8654	24.77	0.04	-0.750			
0.1749	11191.06	3.9230	3.9230	-0.8568	24.77	0.04	-0.750			
0.1775	11359.91	3.9200	3.9198	-0.8684	24.78	0.05	-0.750			
0.1801	11528.23	3.9170	3.9168	-0.8592	24.78	0.05	-0.750			
0.1827	11689.93	3.9140	3.9139	-0.8589	24.79	0.06	-0.750			
0.1852	11852.57	3.9110	3.9110	-0.8596	24.79	0.06	-0.750			
0.1877	12015.51	3.9080	3.9080	-0.8736	24.79	0.06	-0.750			
0.1904	12185.34	3.9050	3.9048	-0.8782	24.80	0.07	-0.750			
0.1930	12353.39	3.9020	3.9020	-0.8807	24.80	0.07	-0.750			
0.1957	12523.79	3.8990	3.8990	-0.8843	24.80	0.07	-0.750			
0.1984	12697.02	3.8960	3.8960	-0.8886	24.80	0.07	-0.750			
0.2010	12863.58	3.8930	3.8930	-0.8808	24.80	0.07	-0.750			
0.2037	13036.09	3.8900	3.8898	-0.8849	24.80	0.07	-0.750			
0.2063	13201.94	3.8870	3.8870	-0.8907	24.80	0.07	-0.750			
0.2090	13375.08	3.8840	3.8840	-0.8885	24.81	0.08	-0.750			
0.2117	13546.23	3.8810	3.8810	-0.8851	24.81	0.08	-0.750			
0.2143	13716.22	3.8780	3.8777	-0.8852	24.82	0.09	-0.750			
0.2170	13887.09	3.8750	3.8756	-0.8883	24.82	0.09	-0.750			
0.2196	14055.98	3.8720	3.8719	-0.8974	24.82	0.09	-0.750			
0.2224	14231.43	3.8690	3.8689	-0.8888	24.82	0.09	-0.750			
0.2250	14397.98	3.8660	3.8660	-0.8775	24.83	0.10	-0.750			
0.2277	14570.67	3.8630	3.8630	-0.8890	24.83	0.10	-0.750			
0.2303	14741.20	3.8600	3.8597	-0.8876	24.83	0.10	-0.750			
0.2330	14909.95	3.8570	3.8569	-0.8911	24.83	0.10	-0.750			
0.2356	15079.71	3.8540	3.8540	-0.8873	24.84	0.11	-0.750			
0.2383	15249.43	3.8510	3.8510	-0.8893	24.84	0.11	-0.750			
0.2410	15426.23	3.8480	3.8480	-0.9006	24.84	0.11	-0.750			
0.2437	15595.14	3.8450	3.8449	-0.9036	24.84	0.11	-0.750			
0.2464	15771.03	3.8420	3.8419	-0.8975	24.84	0.11	-0.750			
0.2491	15942.29	3.8390	3.8390	-0.8964	24.84	0.11	-0.750			
0.2518	16114.18	3.8360	3.8359	-0.8953	24.84	0.11	-0.750			
0.2545	16289.74	3.8330	3.8336	-0.8990	24.84	0.11	-0.750			
0.2572	16460.07	3.8300	3.8298	-0.8975	24.84	0.11	-0.750			
0.2599	16631.81	3.8270	3.8270	-0.8959	24.85	0.12	-0.750			
0.2626	16803.80	3.8240	3.8239	-0.8931	24.85	0.12	-0.750			
0.2653	16976.38	3.8210	3.8208	-0.8979	24.86	0.13	-0.750			
0.2679	17147.61	3.8180	3.8181	-0.8919	24.86	0.13	-0.750			
0.2706	17318.66	3.8150	3.8150	-0.8971	24.86	0.13	-0.750			
0.2733	17493.26	3.8120	3.8120	-0.8909	24.86	0.13	-0.750			
0.2760	17661.78	3.8090	3.8090	-0.8823	24.86	0.13	-0.750			
0.2786	17833.31	3.8060	3.8060	-0.8879	24.86	0.13	-0.750			
0.2813	18001.32	3.8030	3.8029	-0.8968	24.86	0.13	-0.750			
0.2840	18175.66	3.8000	3.8000	-0.8874	24.87	0.14	-0.750			
0.2867	18346.07	3.7970	3.7969	-0.8841	24.87	0.14	-0.750			
0.2893	18515.21	3.7940	3.7940	-0.8780	24.88	0.15	-0.750			
0.2920	18687.50	3.7910	3.7915	-0.8813	24.88	0.15	-0.750			
0.2946	18852.46	3.7880	3.7879	-0.8791	24.88	0.15	-0.750			
0.2972	19019.90	3.7850	3.7849	-0.8720	24.89	0.16	-0.750			
0.2998	19184.94	3.7820	3.7820	-0.8699	24.89	0.16	-0.750			
0.3025	19356.87	3.7790	3.7789	-0.8779	24.90	0.17	-0.750			
0.3051	19525.35	3.7760	3.7760	-0.8718	24.90	0.17	-0.750			
0.3077	19692.66	3.7730	3.7730	-0.8758	24.90	0.17	-0.750			
0.3103	19860.30	3.7700	3.7699	-0.8709	24.90	0.17	-0.750			
0.3129	20026.91	3.7670	3.7670	-0.8645	24.90	0.17	-0.750			
0.3156	20195.25	3.7640	3.7638	-0.8651	24.90	0.17	-0.750			
0.3181	20360.83	3.7610	3.7609	-0.8589	24.90	0.17	-0.750			
0.3207	20525.59	3.7580	3.7579	-0.8662	24.91	0.18	-0.750			
0.3233	20689.43	3.7550	3.7550	-0.8615	24.91	0.18	-0.750			
0.3259	20856.22	3.7520	3.7519	-0.8709	24.91	0.18	-0.750			
0.3285	21023.18	3.7490	3.7493	-0.8664	24.92	0.19	-0.750			
0.3311	21189.06	3.7460	3.7459	-0.8667	24.92	0.19	-0.750			
0.3337	21354.78	3.7430	3.7430	-0.8727	24.92	0.19	-0.750			
0.3363	21520.60	3.7400	3.7399	-0.8775	24.92	0.19	-0.750			
0.3389	21686.88	3.7370	3.7370	-0.8727	24.92	0.19	-0.750			
0.3416	21861.36	3.7340	3.7341	-0.8918	24.92	0.19	-0.750			
0.3442	22030.26	3.7310	3.7311	-0.9094	24.92	0.19	-0.750			
0.3470	22207.40	3.7280	3.7280	-0.9187	24.92	0.19	-0.750			
0.3498	22385.21	3.7250	3.7248	-0.9197	24.93	0.20	-0.750			
0.3525	22561.83	3.7220	3.7219	-0.9283	24.93	0.20	-0.750			
0.3552	22735.72	3.7190	3.7191	-0.9685	24.93	0.20	-0.750			
0.3582	22925.37	3.7160	3.7160	-0.9744	24.93	0.20	-0.750			
0.3612	23116.84	3.7130	3.7128	-0.9788	24.92	0.19	-0.750			
0.3641	23305.55	3.7100	3.7098	-0.9822	24.92	0.19	-0.750			
0.3672	23498.35	3.7070	3.7072	-0.9969	24.92	0.19	-0.750			
0.3702	23691.14	3.7040	3.7041	-1.0144	24.91	0.18	-0.750	0.425	0.527	
0.3730	23873.80	3.7010	3.7010	-1.0555	24.91	0.18	-0.750			
0.3761	24072.27	3.6980	3.6978	-1.1129	24.90	0.17	-0.750			
0.3796	24294.12	3.6950	3.6950	-1.1681	24.90	0.17	-0.750			
0.3833	24529.22	3.6920	3.6915	-1.2115	24.90	0.17	-0.750			
0.3872	24779.20	3.6890	3.6894	-1.2253	24.90	0.17	-0.750			
0.3909	25019.15	3.6860	3.6861	-1.2160	24.90	0.17	-0.750			
0.3946	25257.26	3.6830	3.6827	-1.2244	24.89	0.16	-0.750			
0.3980	25474.18	3.6800	3.6798	-1.1875	24.88	0.15	-0.750			
0.4016	25704.58	3.6770	3.6769	-1.2164	24.88	0.15	-0.750			
0.4053	25938.79	3.6740	3.6737	-1.2426	24.87	0.14	-0.750			
0.4091	26185.15	3.6710	3.6709	-1.2715	24.87	0.14	-0.750			
0.4130	26430.91	3.6680	3.6679	-1.2949	24.86	0.13	-0.750			
0.4168	26676.67	3.6650	3.6654	-1.3213	24.86	0.13	-0.750			
0.4210	26944.89	3.6620	3.6618	-1.3650	24.85	0.12	-0.750			
0.4251	27203.26	3.6590	3.6589	-1.3986	24.85	0.12	-0.750			
0.4294	27481.23	3.6560	3.6564	-1.4268	24.84	0.11	-0.750			
0.4338	27763.37	3.6530	3.6527	-1.4575	24.83	0.10	-0.750			
0.4381	28040.94	3.6500	3.6500	-1.5020	24.83	0.10	-0.750			
0.4426	28326.41	3.6470	3.6472	-1.5369	24.82	0.09	-0.750			
0.4473	28629.44	3.6440	3.6437	-1.5774	24.81	0.08	-0.750			
0.4521	28937.08	3.6410	3.6412	-1.5931	24.79	0.06	-0.750			
0.4569	29243.56	3.6380	3.6377	-1.6196	24.79	0.06	-0.750			
0.4620	29565.47	3.6350	3.6347	-1.6825	24.78	0.05	-0.750			
0.4670	29888.27	3.6320	3.6319	-1.6954	24.77	0.04	-0.750			
0.4721	30215.41	3.6290	3.6291	-1.7121	24.76	0.03	-0.750			
0.4773	30546.67	3.6260	3.6261	-1.7211	24.74	0.01	-0.750			
0.4824	30875.72	3.6230	3.6229	-1.7644	24.73	0.00	-0.750			
0.4879	31222.60	3.6200	3.6196	-1.7809	24.73	-0.00	-0.750			
0.4932	31562.60	3.6170	3.6171	-1.7995	24.72	-0.01	-0.750			
0.4986	31910.24	3.6140	3.6139	-1.8542	24.71	-0.02	-0.750			
0.5043	32277.10	3.6110	3.6113	-1.9118	24.70	-0.03	-0.750			
0.5101	32644.36	3.6080	3.6082	-1.9558	24.70	-0.03	-0.750			
0.5161	33028.30	3.6050	3.6052	-2.0055	24.70	-0.03	-0.750			
0.5223	33425.63	3.6020	3.6023	-2.0263	24.69	-0.04	-0.750			
0.5284	33820.70	3.5990	3.5990	-2.0933	24.68	-0.05	-0.750			
0.5348	34228.43	3.5960	3.5963	-2.1101	24.67	-0.06	-0.750			
0.5412	34639.36	3.5930	3.5928	-2.1441	24.66	-0.07	-0.750			
0.5477	35054.14	3.5900	3.5901	-2.1722	24.66	-0.07	-0.750			
0.5541	35462.07	3.5870	3.5873	-2.2084	24.66	-0.07	-0.750			
0.5609	35899.65	3.5840	3.5840	-2.2611	24.65	-0.08	-0.750			
0.5677	36334.75	3.5810	3.5811	-2.2753	24.64	-0.09	-0.750			
0.5746	36773.41	3.5780	3.5779	-2.2786	24.64	-0.09	-0.750			
0.5816	37220.99	3.5750	3.5746	-2.3168	24.64	-0.09	-0.750			
0.5885	37663.22	3.5720	3.5716	-2.3246	24.64	-0.09	-0.750			
0.5954	38105.04	3.5690	3.5690	-2.3671	24.63	-0.10	-0.750			
0.6026	38565.60	3.5660	3.5658	-2.3830	24.62	-0.11	-0.750			
0.6099	39035.20	3.5630	3.5633	-2.3555	24.62	-0.11	-0.750			
0.6170	39490.66	3.5600	3.5601	-2.3402	24.63	-0.10	-0.750			
0.6240	39938.82	3.5570	3.5570	-2.3342	24.63	-0.10	-0.750			
0.6311	40388.52	3.5540	3.5538	-2.2933	24.63	-0.10	-0.750			
0.6379	40825.87	3.5510	3.5515	-2.2892	24.64	-0.09	-0.750			
0.6447	41262.58	3.5480	3.5482	-2.2409	24.64	-0.09	-0.750			
0.6515	41695.23	3.5450	3.5448	-2.2411	24.64	-0.09	-0.750			
0.6582	42123.42	3.5420	3.5418	-2.1678	24.65	-0.08	-0.750			
0.6647	42542.91	3.5390	3.5388	-2.1417	24.66	-0.07	-0.750			
0.6711	42949.69	3.5360	3.5359	-2.1008	24.67	-0.06	-0.750			
0.6774	43352.32	3.5330	3.5329	-2.0520	24.68	-0.05	-0.750			
0.6834	43739.01	3.5300	3.5301	-2.0228	24.69	-0.04	-0.750			
0.6895	44129.69	3.5270	3.5272	-1.9844	24.70	-0.03	-0.750			
0.6954	44503.49	3.5240	3.5238	-1.9114	24.71	-0.02	-0.750			
0.7011	44870.20	3.5210	3.5208	-1.8428	24.73	0.00	-0.750			
0.7067	45227.50	3.5180	3.5176	-1.7915	24.75	0.02	-0.750			
0.7118	45557.55	3.5150	3.5147	-1.7354	24.76	0.03	-0.750			
0.7169	45884.71	3.5120	3.5121	-1.6576	24.78	0.05	-0.750			
0.7218	46196.10	3.5090	3.5093	-1.5929	24.79	0.06	-0.750			
0.7266	46499.23	3.5060	3.5059	-1.5619	24.80	0.07	-0.750			
0.7313	46800.36	3.5030	3.5027	-1.5036	24.82	0.09	-0.750			
0.7357	47085.34	3.5000	3.4997	-1.4631	24.84	0.11	-0.750			
0.7400	47357.36	3.4970	3.4969	-1.4114	24.85	0.12	-0.750	0.383	0.537	
0.7441	47622.27	3.4940	3.4937	-1.3702	24.87	0.14	-0.750			
0.7482	47887.08	3.4910	3.4908	-1.3456	24.89	0.16	-0.750			
0.7520	48125.86	3.4880	3.4882	-1.2999	24.91	0.18	-0.750			
0.7561	48387.54	3.4850	3.4851	-1.3058	24.93	0.20	-0.750			
0.7600	48638.74	3.4820	3.4819	-1.2654	24.94	0.21	-0.750			
0.7637	48875.17	3.4790	3.4789	-1.2143	24.95	0.22	-0.750			
0.7672	49101.55	3.4760	3.4763	-1.1766	24.96	0.23	-0.750			
0.7707	49324.93	3.4730	3.4729	-1.1302	24.98	0.25	-0.750			
0.7740	49537.96	3.4700	3.4699	-1.0895	25.00	0.27	-0.750			
0.7772	49739.71	3.4670	3.4667	-1.0583	25.01	0.28	-0.750			
0.7803	49937.28	3.4640	3.4642	-1.0419	25.02	0.29	-0.750			
0.7833	50133.36	3.4610	3.4608	-1.0455	25.03	0.30	-0.750			
0.7864	50327.50	3.4580	3.4579	-1.0535	25.04	0.31	-0.750			
0.7896	50532.44	3.4550	3.4549	-1.0493	25.05	0.32	-0.750			
0.7928	50741.66	3.4520	3.4520	-1.0702	25.06	0.33	-0.750			
0.7961	50948.79	3.4490	3.4490	-1.0822	25.07	0.34	-0.750			
0.7993	51152.67	3.4460	3.4464	-1.1069	25.08	0.35	-0.750			
0.8024	51353.49	3.4430	3.4427	-1.1803	25.09	0.36	-0.750			
0.8061	51590.10	3.4400	3.4396	-1.2597	25.10	0.37	-0.750			
0.8101	51845.69	3.4370	3.4367	-1.2986	25.11	0.38	-0.750			
0.8142	52109.24	3.4340	3.4338	-1.3477	25.12	0.39	-0.750			
0.8186	52389.38	3.4310	3.4308	-1.3746	25.13	0.40	-0.750			
0.8227	52655.33	3.4280	3.4279	-1.3518	25.14	0.41	-0.750			
0.8266	52904.14	3.4250	3.4249	-1.3138	25.15	0.42	-0.750			
0.8306	53156.82	3.4220	3.4220	-1.3006	25.15	0.42	-0.750			
0.8344	53401.27	3.4190	3.4189	-1.2528	25.16	0.43	-0.750			
0.8381	53638.38	3.4160	3.4159	-1.2186	25.17	0.44	-0.750			
0.8416	53864.43	3.4130	3.4139	-1.1791	25.18	0.45	-0.750			
0.8452	54093.47	3.4100	3.4099	-1.1435	25.19	0.46	-0.750			
0.8486	54309.69	3.4070	3.4069	-1.0943	25.20	0.47	-0.750			
0.8518	54514.81	3.4040	3.4037	-1.0493	25.20	0.47	-0.750			
0.8549	54712.42	3.4010	3.4009	-1.0062	25.21	0.48	-0.750			
0.8578	54900.52	3.3980	3.3979	-0.9596	25.22	0.49	-0.750			
0.8606	55077.85	3.3950	3.3949	-0.9092	25.23	0.50	-0.750			
0.8632	55245.03	3.3920	3.3921	-0.8623	25.23	0.50	-0.750			
0.8658	55409.47	3.3890	3.3890	-0.8404	25.24	0.51	-0.750			
0.8682	55566.26	3.3860	3.3860	-0.8076	25.25	0.52	-0.750			
0.8706	55716.19	3.3830	3.3829	-0.7791	25.25	0.52	-0.750			
0.8729	55863.40	3.3800	3.3799	-0.7470	25.26	0.53	-0.750			
0.8751	56005.85	3.3770	3.3771	-0.7105	25.27	0.54	-0.750			
0.8772	56140.86	3.3740	3.3738	-0.6719	25.27	0.54	-0.750			
0.8792	56266.59	3.3710	3.3719	-0.6372	25.28	0.55	-0.750			
0.8810	56384.08	3.3680	3.3679	-0.5974	25.29	0.56	-0.750			
0.8827	56493.46	3.3650	3.3649	-0.5589	25.29	0.56	-0.750			
0.8843	56597.17	3.3620	3.3621	-0.5241	25.30	0.57	-0.750			
0.8859	56694.59	3.3590	3.3590	-0.4985	25.31	0.58	-0.750			
0.8873	56786.10	3.3560	3.3559	-0.4727	25.31	0.58	-0.750			
0.8886	56873.46	3.3530	3.3529	-0.4454	25.32	0.59	-0.750			
0.8899	56955.53	3.3500	3.3501	-0.4190	25.32	0.59	-0.750			
0.8912	57034.61	3.3470	3.3469	-0.3987	25.33	0.60	-0.750			
0.8923	57109.42	3.3440	3.3439	-0.3774	25.33	0.60	-0.750			
0.8934	57178.50	3.3410	3.3409	-0.3568	25.34	0.61	-0.750			
0.8944	57244.03	3.3380	3.3380	-0.3358	25.35	0.62	-0.750			
0.8954	57305.15	3.3350	3.3351	-0.3168	25.35	0.62	-0.750			
0.8963	57366.07	3.3320	3.3320	-0.3065	25.36	0.63	-0.750			
0.8972	57422.90	3.3290	3.3291	-0.2937	25.36	0.63	-0.750			
0.8981	57477.43	3.3260	3.3259	-0.2838	25.37	0.64	-0.750			
0.8989	57530.91	3.3230	3.3231	-0.2738	25.37	0.64	-0.750			
0.8997	57582.63	3.3200	3.3199	-0.2653	25.38	0.65	-0.750			
0.9005	57633.30	3.3170	3.3171	-0.2579	25.38	0.65	-0.750			
0.9013	57681.44	3.3140	3.3141	-0.2499	25.38	0.65	-0.750			
0.9020	57728.59	3.3110	3.3109	-0.2409	25.39	0.66	-0.750			
0.9027	57773.72	3.3080	3.3079	-0.2330	25.39	0.66	-0.750			
0.9034	57817.42	3.3050	3.3050	-0.2253	25.40	0.67	-0.750			
0.9041	57860.07	3.3020	3.3022	-0.2191	25.40	0.67	-0.750			
0.9047	57901.86	3.2990	3.2989	-0.2124	25.40	0.67	-0.750			
0.9053	57941.50	3.2960	3.2959	-0.2065	25.41	0.68	-0.750			
0.9059	57980.17	3.2930	3.2930	-0.2001	25.41	0.68	-0.750			
0.9065	58017.36	3.2900	3.2902	-0.1949	25.42	0.69	-0.750			
0.9071	58054.58	3.2870	3.2868	-0.1916	25.42	0.69	-0.750			
0.9077	58090.50	3.2840	3.2841	-0.1871	25.43	0.70	-0.750			
0.9082	58126.14	3.2810	3.2811	-0.1841	25.43	0.70	-0.750			
0.9088	58161.00	3.2780	3.2780	-0.1813	25.44	0.71	-0.750			
0.9093	58195.85	3.2750	3.2750	-0.1790	25.44	0.71	-0.750			
0.9098	58229.63	3.2720	3.2720	-0.1753	25.45	0.72	-0.750			
0.9104	58263.06	3.2690	3.2690	-0.1729	25.45	0.72	-0.750			
0.9109	58296.10	3.2660	3.2660	-0.1706	25.45	0.72	-0.750			
0.9114	58328.80	3.2630	3.2630	-0.1675	25.46	0.73	-0.750			
0.9119	58360.66	3.2600	3.2598	-0.1645	25.46	0.73	-0.750			
0.9124	58391.94	3.2570	3.2572	-0.1613	25.47	0.74	-0.750			
0.9129	58422.44	3.2540	3.2541	-0.1586	25.47	0.74	-0.750			
0.9133	58452.67	3.2510	3.2509	-0.1558	25.47	0.74	-0.750			
0.9138	58482.24	3.2480	3.2479	-0.1529	25.48	0.75	-0.750			
0.9142	58511.30	3.2450	3.2451	-0.1506	25.48	0.75	-0.750			
0.9147	58539.41	3.2420	3.2421	-0.1496	25.48	0.75	-0.750			
0.9151	58568.61	3.2390	3.2390	-0.1476	25.49	0.76	-0.750			
0.9156	58596.74	3.2360	3.2358	-0.1454	25.49	0.76	-0.750			
0.9160	58624.39	3.2330	3.2330	-0.1437	25.49	0.76	-0.750			
0.9164	58651.75	3.2300	3.2302	-0.1419	25.50	0.77	-0.750			
0.9169	58679.06	3.2270	3.2270	-0.1405	25.50	0.77	-0.750			
0.9173	58705.60	3.2240	3.2238	-0.1391	25.51	0.78	-0.750			
0.9177	58731.95	3.2210	3.2209	-0.1373	25.51	0.78	-0.750			
0.9181	58757.78	3.2180	3.2182	-0.1345	25.51	0.78	-0.750			
0.9185	58783.89	3.2150	3.2148	-0.1328	25.52	0.79	-0.750			
0.9189	58810.03	3.2120	3.2120	-0.1323	25.52	0.79	-0.750			
0.9193	58835.09	3.2090	3.2090	-0.1295	25.52	0.79	-0.750			
0.9197	58859.54	3.2060	3.2061	-0.1283	25.53	0.80	-0.750			
0.9201	58883.94	3.2030	3.2029	-0.1265	25.53	0.80	-0.750			
0.9204	58907.72	3.2000	3.2000	-0.1244	25.53	0.80	-0.750			
0.9208	58931.53	3.1970	3.1969	-0.1236	25.54	0.81	-0.750			
0.9212	58955.45	3.1940	3.1941	-0.1220	25.54	0.81	-0.750			
0.9215	58978.38	3.1910	3.1909	-0.1214	25.54	0.81	-0.750			
0.9219	59001.59	3.1880	3.1881	-0.1205	25.55	0.82	-0.750			
0.9223	59024.86	3.1850	3.1850	-0.1188	25.55	0.82	-0.750			
0.9226	59047.40	3.1820	3.1819	-0.1171	25.55	0.82	-0.750			
0.9230	59069.70	3.1790	3.1792	-0.1162	25.56	0.83	-0.750			
0.9233	59092.01	3.1760	3.1762	-0.1153	25.56	0.83	-0.750			
0.9237	59114.20	3.1730	3.1731	-0.1136	25.56	0.83	-0.750			
0.9240	59136.18	3.1700	3.1697	-0.1123	25.57	0.84	-0.750			
0.9243	59157.22	3.1670	3.1669	-0.1115	25.57	0.84	-0.750			
0.9247	59177.97	3.1640	3.1641	-0.1097	25.57	0.84	-0.750			
0.9250	59199.08	3.1610	3.1609	-0.1088	25.57	0.84	-0.750			
0.9253	59220.14	3.1580	3.1580	-0.1083	25.58	0.85	-0.750			
0.9256	59240.81	3.1550	3.1549	-0.1074	25.58	0.85	-0.750			
0.9260	59261.08	3.1520	3.1520	-0.1062	25.58	0.85	-0.750			
0.9263	59281.48	3.1490	3.1494	-0.1054	25.59	0.86	-0.750			
0.9266	59301.98	3.1460	3.1458	-0.1050	25.59	0.86	-0.750			
0.9269	59322.07	3.1430	3.1429	-0.1035	25.59	0.86	-0.750			
0.9272	59341.70	3.1400	3.1401	-0.1021	25.59	0.86	-0.750			
0.9275	59361.03	3.1370	3.1369	-0.1015	25.60	0.87	-0.750			
0.9278	59380.43	3.1340	3.1340	-0.1007	25.60	0.87	-0.750			
0.9281	59400.10	3.1310	3.1308	-0.0984	25.60	0.87	-0.750			
0.9284	59419.05	3.1280	3.1279	-0.0968	25.60	0.87	-0.750			
0.9287	59437.05	3.1250	3.1249	-0.0960	25.61	0.88	-0.750			
0.9290	59455.25	3.1220	3.1219	-0.0946	25.61	0.88	-0.750			
0.9293	59473.27	3.1190	3.1189	-0.0936	25.61	0.88	-0.750			
0.9295	59491.07	3.1160	3.1155	-0.0925	25.61	0.88	-0.750			
0.9298	59508.67	3.1130	3.1129	-0.0919	25.62	0.89	-0.750			
0.9301	59525.76	3.1100	3.1103	-0.0906	25.62	0.89	-0.750			
0.9304	59543.44	3.1070	3.1071	-0.0899	25.62	0.89	-0.750			
0.9306	59561.32	3.1040	3.1037	-0.0903	25.62	0.89	-0.750			
0.9309	59578.21	3.1010	3.1011	-0.0898	25.62	0.89	-0.750			
0.9312	59594.93	3.0980	3.0981	-0.0883	25.63	0.90	-0.750			
0.9314	59611.95	3.0950	3.0950	-0.0879	25.63	0.90	-0.750			
0.9317	59628.85	3.0920	3.0919	-0.0877	25.63	0.90	-0.750			
0.9320	59645.76	3.0890	3.0888	-0.0870	25.63	0.90	-0.750			
0.9322	59662.40	3.0860	3.0860	-0.0863	25.63	0.90	-0.750			
0.9325	59678.91	3.0830	3.0832	-0.0857	25.64	0.91	-0.750			
0.9327	59695.65	3.0800	3.0800	-0.0851	25.64	0.91	-0.750			
0.9330	59711.86	3.0770	3.0769	-0.0837	25.64	0.91	-0.750			
0.9332	59727.68	3.0740	3.0740	-0.0823	25.64	0.91	-0.750			
0.9335	59743.30	3.0710	3.0711	-0.0816	25.64	0.91	-0.750			
0.9337	59758.82	3.0680	3.0681	-0.0807	25.65	0.92	-0.750			
0.9340	59774.11	3.0650	3.0647	-0.0803	25.65	0.92	-0.750			
0.9342	59789.30	3.0620	3.0620	-0.0795	25.65	0.92	-0.750			
0.9344	59804.77	3.0590	3.0587	-0.0790	25.65	0.92	-0.750			
0.9347	59819.89	3.0560	3.0560	-0.0785	25.65	0.92	-0.750			
0.9349	59835.09	3.0530	3.0532	-0.0781	25.66	0.93	-0.750			
0.9352	59849.99	3.0500	3.0501	-0.0774	25.66	0.93	-0.750			
0.9354	59864.78	3.0470	3.0470	-0.0767	25.66	0.93	-0.750			
0.9356	59879.51	3.0440	3.0439	-0.0759	25.66	0.93	-0.750			
0.9358	59894.00	3.0410	3.0412	-0.0751	25.66	0.93	-0.750			
0.9361	59908.24	3.0380	3.0378	-0.0742	25.67	0.94	-0.750			
0.9363	59922.24	3.0350	3.0351	-0.0739	25.67	0.94	-0.750			
0.9365	59936.39	3.0320	3.0319	-0.0735	25.67	0.94	-0.750			
0.9367	59950.36	3.0290	3.0291	-0.0731	25.67	0.94	-0.750			
0.9369	59964.77	3.0260	3.0258	-0.0717	25.67	0.94	-0.750			
0.9372	59978.66	3.0230	3.0229	-0.0711	25.67	0.94	-0.750			
0.9374	59992.20	3.0200	3.0200	-0.0698	25.68	0.95	-0.750			
0.9376	60005.36	3.0170	3.0172	-0.0690	25.68	0.95	-0.750			
0.9378	60018.75	3.0140	3.0143	-0.0682	25.68	0.95	-0.750			
0.9380	60031.70	3.0110	3.0109	-0.0668	25.68	0.95	-0.750			
0.9382	60044.39	3.0080	3.0078	-0.0654	25.68	0.95	-0.751			
0.9384	60056.34	3.0050	3.0048	-0.0671	25.68	0.95	-0.751			
0.9386	60069.30	3.0020	3.0020	-0.0680	25.69	0.96	-0.751			
