Ah_balance (normalized)	Ah_balance (mAh)	Voltage - fit (V)	Voltage -  interpolate (V)	dQ/dV (1/V)	Temperature (°C)	Temperature - diff (°C)	Current (C)	R_DC 0ms (mOhm)	R_DC 50ms (mOhm)	R_DC 50 ms PEC (mOhm)
0.0475	3041.36	4.1980	4.1980	0.7891	25.35	0.51	0.750			
0.0498	3188.09	4.1950	4.1950	0.7533	25.35	0.51	0.750			
0.0520	3330.66	4.1920	4.1921	0.7511	25.35	0.51	0.750			
0.0543	3475.36	4.1890	4.1890	0.7573	25.34	0.50	0.750			
0.0566	3620.94	4.1860	4.1861	0.7577	25.34	0.50	0.750			
0.0589	3767.89	4.1830	4.1830	0.7618	25.34	0.50	0.750			
0.0612	3916.28	4.1800	4.1801	0.7607	25.33	0.49	0.750			
0.0635	4061.78	4.1770	4.1770	0.7628	25.33	0.49	0.750			
0.0657	4206.68	4.1740	4.1741	0.7608	25.32	0.48	0.750			
0.0680	4352.62	4.1710	4.1709	0.7636	25.32	0.48	0.750			
0.0703	4499.15	4.1680	4.1681	0.7657	25.32	0.48	0.750			
0.0727	4649.72	4.1650	4.1649	0.7603	25.32	0.48	0.750			
0.0749	4795.61	4.1620	4.1620	0.7653	25.32	0.48	0.750			
0.0772	4940.63	4.1590	4.1591	0.7643	25.32	0.48	0.750			
0.0795	5086.25	4.1560	4.1561	0.7662	25.32	0.48	0.750			
0.0818	5234.05	4.1530	4.1531	0.7656	25.32	0.48	0.750			
0.0841	5381.29	4.1500	4.1501	0.7698	25.32	0.48	0.750			
0.0864	5529.31	4.1470	4.1471	0.7715	25.32	0.48	0.750			
0.0887	5678.13	4.1440	4.1440	0.7750	25.32	0.48	0.750			
0.0910	5825.85	4.1410	4.1410	0.7732	25.32	0.48	0.750			
0.0934	5975.02	4.1380	4.1373	0.7770	25.32	0.48	0.750			
0.0957	6124.96	4.1350	4.1352	0.7810	25.32	0.48	0.750			
0.0981	6277.00	4.1320	4.1321	0.7822	25.32	0.48	0.750			
0.1004	6426.59	4.1290	4.1290	0.7835	25.32	0.48	0.750			
0.1028	6577.67	4.1260	4.1260	0.7848	25.32	0.48	0.750			
0.1051	6725.59	4.1230	4.1230	0.7851	25.32	0.48	0.750			
0.1075	6876.88	4.1200	4.1200	0.7877	25.32	0.48	0.750			
0.1099	7031.24	4.1170	4.1170	0.7842	25.33	0.49	0.750			
0.1122	7181.06	4.1140	4.1141	0.7838	25.33	0.49	0.750			
0.1146	7331.33	4.1110	4.1111	0.7882	25.33	0.49	0.750			
0.1169	7481.39	4.1080	4.1081	0.7877	25.34	0.50	0.750			
0.1192	7631.63	4.1050	4.1051	0.7887	25.34	0.50	0.750			
0.1216	7783.23	4.1020	4.1020	0.7911	25.34	0.50	0.750			
0.1240	7937.23	4.0990	4.0990	0.7893	25.34	0.50	0.750			
0.1264	8087.38	4.0960	4.0961	0.7955	25.34	0.50	0.750			
0.1287	8238.19	4.0930	4.0931	0.7977	25.34	0.50	0.750			
0.1311	8392.32	4.0900	4.0895	0.8028	25.34	0.50	0.750			
0.1335	8546.59	4.0870	4.0870	0.8075	25.34	0.50	0.750			
0.1359	8699.60	4.0840	4.0842	0.8179	25.34	0.50	0.750			
0.1384	8857.15	4.0810	4.0811	0.8370	25.35	0.51	0.750			
0.1409	9018.83	4.0780	4.0780	0.8402	25.35	0.51	0.750			
0.1435	9183.93	4.0750	4.0745	0.8522	25.35	0.51	0.750			
0.1461	9352.78	4.0720	4.0724	0.8511	25.35	0.51	0.750			
0.1487	9518.69	4.0690	4.0692	0.8498	25.35	0.51	0.750			
0.1513	9683.85	4.0660	4.0660	0.8491	25.35	0.51	0.750			
0.1538	9842.74	4.0630	4.0630	0.8301	25.35	0.51	0.750			
0.1562	9996.99	4.0600	4.0598	0.8232	25.35	0.51	0.750			
0.1587	10155.58	4.0570	4.0570	0.8292	25.35	0.51	0.750			
0.1612	10316.10	4.0540	4.0541	0.8288	25.35	0.51	0.750			
0.1637	10474.83	4.0510	4.0510	0.8315	25.35	0.51	0.750			
0.1661	10632.79	4.0480	4.0481	0.8339	25.35	0.51	0.750			
0.1686	10793.15	4.0450	4.0447	0.8412	25.35	0.51	0.750			
0.1712	10956.94	4.0420	4.0420	0.8424	25.35	0.51	0.750			
0.1737	11119.27	4.0390	4.0391	0.8441	25.36	0.52	0.750			
0.1763	11282.86	4.0360	4.0361	0.8465	25.36	0.52	0.750			
0.1788	11444.24	4.0330	4.0330	0.8438	25.37	0.53	0.750			
0.1813	11605.76	4.0300	4.0299	0.8479	25.37	0.53	0.750			
0.1839	11770.32	4.0270	4.0270	0.8449	25.37	0.53	0.750			
0.1864	11932.14	4.0240	4.0241	0.8509	25.37	0.53	0.750			
0.1890	12096.77	4.0210	4.0210	0.8552	25.37	0.53	0.750			
0.1916	12260.48	4.0180	4.0181	0.8582	25.37	0.53	0.750			
0.1941	12425.17	4.0150	4.0150	0.8598	25.37	0.53	0.750			
0.1967	12591.24	4.0120	4.0121	0.8573	25.37	0.53	0.750			
0.1993	12755.45	4.0090	4.0090	0.8630	25.37	0.53	0.750			
0.2019	12922.59	4.0060	4.0060	0.8681	25.38	0.54	0.750			
0.2045	13088.62	4.0030	4.0030	0.8694	25.38	0.54	0.750			
0.2071	13255.99	4.0000	4.0001	0.8736	25.38	0.54	0.750			
0.2097	13423.83	3.9970	3.9970	0.8792	25.38	0.54	0.750			
0.2124	13594.99	3.9940	3.9940	0.8822	25.37	0.53	0.750			
0.2151	13765.48	3.9910	3.9909	0.8839	25.37	0.53	0.750			
0.2177	13933.77	3.9880	3.9880	0.8790	25.37	0.53	0.750			
0.2204	14103.09	3.9850	3.9850	0.8800	25.37	0.53	0.750			
0.2230	14270.89	3.9820	3.9820	0.8793	25.38	0.54	0.750			
0.2256	14439.05	3.9790	3.9790	0.8828	25.38	0.54	0.750			
0.2283	14608.34	3.9760	3.9760	0.8861	25.39	0.55	0.750			
0.2309	14779.97	3.9730	3.9727	0.8934	25.39	0.55	0.750			
0.2337	14954.31	3.9700	3.9700	0.8880	25.39	0.55	0.750			
0.2363	15123.92	3.9670	3.9671	0.8938	25.39	0.55	0.750			
0.2390	15295.41	3.9640	3.9640	0.8969	25.40	0.56	0.750			
0.2417	15467.68	3.9610	3.9610	0.8998	25.40	0.56	0.750			
0.2444	15638.61	3.9580	3.9579	0.8998	25.40	0.56	0.750			
0.2471	15812.15	3.9550	3.9550	0.9037	25.40	0.56	0.750			
0.2498	15987.25	3.9520	3.9521	0.9090	25.41	0.57	0.750			
0.2525	16163.06	3.9490	3.9490	0.9129	25.41	0.57	0.750			
0.2553	16336.48	3.9460	3.9459	0.9105	25.41	0.57	0.750			
0.2580	16514.10	3.9430	3.9430	0.9081	25.41	0.57	0.750			
0.2608	16688.15	3.9400	3.9400	0.9089	25.41	0.57	0.750			
0.2635	16862.18	3.9370	3.9371	0.9124	25.42	0.58	0.750			
0.2662	17037.25	3.9340	3.9340	0.9144	25.42	0.58	0.750			
0.2689	17211.58	3.9310	3.9311	0.9182	25.42	0.58	0.750			
0.2718	17392.23	3.9280	3.9280	0.9067	25.42	0.58	0.750			
0.2744	17564.52	3.9250	3.9251	0.9179	25.42	0.58	0.750			
0.2772	17741.02	3.9220	3.9221	0.9280	25.43	0.59	0.750			
0.2800	17918.53	3.9190	3.9191	0.9264	25.43	0.59	0.750			
0.2828	18097.04	3.9160	3.9162	0.9303	25.43	0.59	0.750			
0.2856	18276.64	3.9130	3.9131	0.9351	25.43	0.59	0.750			
0.2884	18457.86	3.9100	3.9100	0.9350	25.43	0.59	0.750			
0.2913	18641.74	3.9070	3.9070	0.9406	25.43	0.59	0.750			
0.2940	18816.47	3.9040	3.9040	0.9297	25.43	0.59	0.750			
0.2968	18998.17	3.9010	3.9009	0.9168	25.43	0.59	0.750			
0.2996	19173.40	3.8980	3.8980	0.9251	25.43	0.59	0.750			
0.3023	19348.15	3.8950	3.8951	0.9314	25.42	0.58	0.750			
0.3051	19526.85	3.8920	3.8919	0.9339	25.42	0.58	0.750			
0.3080	19708.97	3.8890	3.8891	0.9313	25.42	0.58	0.750			
0.3107	19886.96	3.8860	3.8861	0.9371	25.41	0.57	0.750			
0.3136	20067.78	3.8830	3.8832	0.9438	25.41	0.57	0.750			
0.3164	20251.99	3.8800	3.8800	0.9525	25.40	0.56	0.750			
0.3192	20430.59	3.8770	3.8769	0.9448	25.40	0.56	0.750			
0.3221	20612.61	3.8740	3.8741	0.9467	25.39	0.55	0.750			
0.3249	20796.79	3.8710	3.8710	0.9515	25.39	0.55	0.750			
0.3278	20979.57	3.8680	3.8681	0.9526	25.38	0.54	0.750			
0.3306	21161.03	3.8650	3.8649	0.9501	25.38	0.54	0.750			
0.3335	21346.09	3.8620	3.8619	0.9421	25.37	0.53	0.750			
0.3363	21525.18	3.8590	3.8591	0.9503	25.37	0.53	0.750			
0.3392	21706.85	3.8560	3.8561	0.9552	25.36	0.52	0.750			
0.3420	21890.60	3.8530	3.8531	0.9559	25.35	0.51	0.750			
0.3450	22077.77	3.8500	3.8501	0.9538	25.35	0.51	0.750			
0.3478	22259.36	3.8470	3.8471	0.9560	25.34	0.50	0.750			
0.3507	22442.59	3.8440	3.8442	0.9619	25.33	0.49	0.750			
0.3536	22627.82	3.8410	3.8411	0.9754	25.33	0.49	0.750			
0.3564	22811.69	3.8380	3.8378	0.9742	25.32	0.48	0.750			
0.3594	23001.14	3.8350	3.8348	0.9834	25.31	0.47	0.750	0.353	0.434	
0.3624	23192.59	3.8320	3.8321	0.9937	25.30	0.46	0.750			
0.3654	23384.24	3.8290	3.8291	0.9990	25.29	0.45	0.750			
0.3684	23576.10	3.8260	3.8258	0.9990	25.28	0.44	0.750			
0.3714	23767.90	3.8230	3.8230	0.9972	25.27	0.43	0.750			
0.3744	23959.19	3.8200	3.8199	1.0035	25.27	0.43	0.750			
0.3774	24152.70	3.8170	3.8171	1.0108	25.26	0.42	0.750			
0.3804	24346.03	3.8140	3.8138	1.0143	25.25	0.41	0.750			
0.3835	24543.15	3.8110	3.8110	1.0197	25.24	0.40	0.750			
0.3865	24738.25	3.8080	3.8081	1.0279	25.23	0.39	0.750			
0.3896	24934.59	3.8050	3.8051	1.0429	25.22	0.38	0.750			
0.3927	25134.48	3.8020	3.8018	1.0534	25.21	0.37	0.750			
0.3959	25339.54	3.7990	3.7991	1.0662	25.20	0.36	0.750			
0.3992	25546.53	3.7960	3.7961	1.0826	25.19	0.35	0.750			
0.4025	25757.57	3.7930	3.7930	1.0992	25.18	0.34	0.750			
0.4058	25973.45	3.7900	3.7898	1.1057	25.17	0.33	0.750			
0.4091	26181.42	3.7870	3.7870	1.1163	25.16	0.32	0.750			
0.4124	26395.44	3.7840	3.7841	1.1366	25.15	0.31	0.750			
0.4159	26614.86	3.7810	3.7811	1.1575	25.15	0.31	0.750			
0.4194	26839.52	3.7780	3.7781	1.1698	25.14	0.30	0.750			
0.4229	27065.49	3.7750	3.7751	1.1921	25.13	0.29	0.750			
0.4265	27295.12	3.7720	3.7721	1.2213	25.11	0.27	0.750			
0.4302	27532.85	3.7690	3.7688	1.2473	25.10	0.26	0.750			
0.4339	27772.67	3.7660	3.7661	1.2710	25.09	0.25	0.750			
0.4378	28021.37	3.7630	3.7630	1.2995	25.08	0.24	0.750			
0.4419	28281.90	3.7600	3.7599	1.3165	25.07	0.23	0.750			
0.4459	28534.76	3.7570	3.7571	1.3469	25.06	0.22	0.750			
0.4498	28788.32	3.7540	3.7541	1.3750	25.04	0.20	0.750			
0.4540	29057.29	3.7510	3.7510	1.3888	25.03	0.19	0.750			
0.4583	29328.50	3.7480	3.7481	1.4236	25.02	0.18	0.750			
0.4625	29601.65	3.7450	3.7452	1.4649	25.01	0.17	0.750			
0.4670	29885.67	3.7420	3.7420	1.5078	25.00	0.16	0.750			
0.4716	30180.26	3.7390	3.7392	1.5516	24.99	0.15	0.750			
0.4762	30476.32	3.7360	3.7359	1.5764	24.97	0.13	0.750			
0.4810	30782.95	3.7330	3.7330	1.6238	24.96	0.12	0.750			
0.4859	31096.47	3.7300	3.7301	1.6769	24.94	0.10	0.750			
0.4911	31428.85	3.7270	3.7271	1.7124	24.93	0.09	0.750			
0.4962	31757.13	3.7240	3.7239	1.7787	24.91	0.07	0.750			
0.5016	32103.96	3.7210	3.7210	1.8259	24.89	0.05	0.750			
0.5073	32465.42	3.7180	3.7181	1.8819	24.88	0.04	0.750			
0.5130	32831.07	3.7150	3.7153	1.9616	24.86	0.02	0.750			
0.5189	33210.14	3.7120	3.7122	1.9986	24.85	0.01	0.750			
0.5251	33608.06	3.7090	3.7088	2.0474	24.83	-0.01	0.750			
0.5311	33991.28	3.7060	3.7061	2.0817	24.82	-0.02	0.750			
0.5374	34396.75	3.7030	3.7033	2.1487	24.81	-0.03	0.750			
0.5441	34820.26	3.7000	3.7000	2.2134	24.80	-0.04	0.750			
0.5511	35268.74	3.6970	3.6968	2.1778	24.78	-0.06	0.750			
0.5576	35683.69	3.6940	3.6942	2.1198	24.76	-0.08	0.750			
0.5637	36079.08	3.6910	3.6913	2.2141	24.74	-0.10	0.750			
0.5703	36497.82	3.6880	3.6876	2.2301	24.73	-0.11	0.750			
0.5770	36926.85	3.6850	3.6853	2.4058	24.72	-0.12	0.750			
0.5848	37429.18	3.6820	3.6817	2.6277	24.71	-0.13	0.750			
0.5926	37926.76	3.6790	3.6791	2.7262	24.70	-0.14	0.750			
0.6007	38443.53	3.6760	3.6758	2.7529	24.70	-0.14	0.750			
0.6090	38975.23	3.6730	3.6729	2.6172	24.70	-0.14	0.750			
0.6170	39487.46	3.6700	3.6700	2.5856	24.70	-0.14	0.750			
0.6247	39979.63	3.6670	3.6674	2.6206	24.70	-0.14	0.750			
0.6326	40489.34	3.6640	3.6633	2.5630	24.70	-0.14	0.750			
0.6400	40962.77	3.6610	3.6613	2.4130	24.71	-0.13	0.750			
0.6466	41379.83	3.6580	3.6581	2.0708	24.72	-0.12	0.750			
0.6526	41768.89	3.6550	3.6552	1.9882	24.72	-0.12	0.750			
0.6581	42118.77	3.6520	3.6515	1.7761	24.73	-0.11	0.750			
0.6632	42447.80	3.6490	3.6486	1.6372	24.74	-0.10	0.750			
0.6678	42740.42	3.6460	3.6461	1.4554	24.75	-0.09	0.750			
0.6721	43014.47	3.6430	3.6431	1.3544	24.76	-0.08	0.750			
0.6758	43250.58	3.6400	3.6401	1.2158	24.76	-0.08	0.750			
0.6791	43464.57	3.6370	3.6371	1.1191	24.77	-0.07	0.750			
0.6823	43666.37	3.6340	3.6339	1.0541	24.77	-0.07	0.750			
0.6853	43861.82	3.6310	3.6311	0.9970	24.78	-0.06	0.750			
0.6882	44045.76	3.6280	3.6281	0.9610	24.79	-0.05	0.750			
0.6911	44227.83	3.6250	3.6252	0.9403	24.79	-0.05	0.750			
0.6938	44402.01	3.6220	3.6216	0.9095	24.80	-0.04	0.750			
0.6965	44575.84	3.6190	3.6192	0.8796	24.81	-0.03	0.750			
0.6991	44744.93	3.6160	3.6161	0.8486	24.82	-0.02	0.750			
0.7017	44911.33	3.6130	3.6130	0.8077	24.83	-0.01	0.750			
0.7042	45068.28	3.6100	3.6099	0.7581	24.83	-0.01	0.750			
0.7063	45203.03	3.6070	3.6069	0.6831	24.84	0.00	0.750			
0.7082	45327.89	3.6040	3.6040	0.6160	24.85	0.01	0.750			
0.7100	45437.93	3.6010	3.6011	0.5485	24.85	0.01	0.750			
0.7115	45537.56	3.5980	3.5979	0.4891	24.86	0.02	0.750			
0.7129	45624.79	3.5950	3.5949	0.4276	24.86	0.02	0.750			
0.7141	45699.57	3.5920	3.5919	0.3699	24.87	0.03	0.750			
0.7151	45763.93	3.5890	3.5891	0.3174	24.87	0.03	0.750			
0.7159	45820.29	3.5860	3.5861	0.2678	24.87	0.03	0.750			
0.7167	45865.94	3.5830	3.5827	0.2169	24.87	0.03	0.750			
0.7172	45902.69	3.5800	3.5809	0.1691	24.88	0.04	0.750			
0.7176	45929.16	3.5770	3.5783	0.1286	24.88	0.04	0.750			
0.7180	45950.03	3.5740	3.5748	0.0875	24.88	0.04	0.750			
