Ah_balance (normalized)	Ah_balance (mAh)	Voltage - fit (V)	Voltage -  interpolate (V)	dQ/dV (1/V)	Temperature (°C)	Temperature - diff (°C)	Current (C)	R_DC 0ms (mOhm)	R_DC 50ms (mOhm)	R_DC 50 ms PEC (mOhm)
0.0461	2950.33	4.1990	4.1990	0.7443	25.77	0.51	0.750			
0.0484	3095.35	4.1960	4.1960	0.7619	25.77	0.51	0.750			
0.0507	3243.11	4.1930	4.1930	0.7668	25.77	0.51	0.750			
0.0530	3390.12	4.1900	4.1900	0.7680	25.77	0.51	0.750			
0.0553	3537.87	4.1870	4.1871	0.7684	25.77	0.51	0.750			
0.0576	3685.60	4.1840	4.1840	0.7719	25.77	0.51	0.750			
0.0599	3833.65	4.1810	4.1810	0.7700	25.77	0.51	0.750			
0.0622	3981.48	4.1780	4.1779	0.7720	25.77	0.51	0.750			
0.0645	4130.33	4.1750	4.1750	0.7748	25.77	0.51	0.750			
0.0669	4279.53	4.1720	4.1720	0.7753	25.77	0.51	0.750			
0.0692	4428.01	4.1690	4.1690	0.7767	25.77	0.51	0.750			
0.0715	4577.43	4.1660	4.1660	0.7792	25.77	0.51	0.750			
0.0738	4726.23	4.1630	4.1630	0.7793	25.77	0.51	0.750			
0.0762	4877.21	4.1600	4.1600	0.7809	25.77	0.51	0.750			
0.0786	5027.62	4.1570	4.1570	0.7808	25.77	0.51	0.750			
0.0809	5177.30	4.1540	4.1540	0.7825	25.77	0.51	0.750			
0.0832	5327.22	4.1510	4.1511	0.7858	25.77	0.51	0.750			
0.0856	5478.00	4.1480	4.1480	0.7866	25.77	0.51	0.750			
0.0880	5629.82	4.1450	4.1449	0.7877	25.77	0.51	0.750			
0.0903	5781.25	4.1420	4.1421	0.7908	25.77	0.51	0.750			
0.0927	5933.44	4.1390	4.1390	0.7928	25.77	0.51	0.750			
0.0951	6084.93	4.1360	4.1360	0.7936	25.77	0.51	0.750			
0.0974	6236.67	4.1330	4.1330	0.7961	25.77	0.51	0.750			
0.0998	6390.09	4.1300	4.1299	0.7997	25.77	0.51	0.750			
0.1023	6545.63	4.1270	4.1270	0.8008	25.77	0.51	0.750			
0.1047	6700.25	4.1240	4.1240	0.7970	25.77	0.51	0.750			
0.1071	6852.55	4.1210	4.1210	0.7999	25.77	0.51	0.750			
0.1095	7005.95	4.1180	4.1180	0.8031	25.77	0.51	0.750			
0.1119	7158.61	4.1150	4.1149	0.8033	25.77	0.51	0.750			
0.1143	7313.19	4.1120	4.1121	0.8054	25.77	0.51	0.750			
0.1167	7469.49	4.1090	4.1090	0.8087	25.77	0.51	0.750			
0.1191	7625.46	4.1060	4.1060	0.8122	25.77	0.51	0.750			
0.1216	7781.94	4.1030	4.1030	0.8132	25.77	0.51	0.750			
0.1240	7936.59	4.1000	4.1000	0.8143	25.77	0.51	0.750			
0.1265	8093.03	4.0970	4.0971	0.8178	25.77	0.51	0.750			
0.1289	8252.60	4.0940	4.0939	0.8140	25.77	0.51	0.750			
0.1314	8407.86	4.0910	4.0910	0.8184	25.77	0.51	0.750			
0.1338	8564.61	4.0880	4.0881	0.8214	25.77	0.51	0.750			
0.1363	8721.56	4.0850	4.0851	0.8245	25.77	0.51	0.750			
0.1388	8880.42	4.0820	4.0820	0.8279	25.77	0.51	0.750			
0.1413	9040.37	4.0790	4.0790	0.8277	25.77	0.51	0.750			
0.1437	9199.99	4.0760	4.0760	0.8340	25.77	0.51	0.750			
0.1463	9360.66	4.0730	4.0731	0.8403	25.77	0.51	0.750			
0.1488	9521.30	4.0700	4.0700	0.8395	25.77	0.51	0.750			
0.1513	9683.62	4.0670	4.0670	0.8443	25.77	0.51	0.750			
0.1538	9846.09	4.0640	4.0640	0.8461	25.77	0.51	0.750			
0.1564	10009.34	4.0610	4.0610	0.8501	25.77	0.51	0.750			
0.1590	10174.18	4.0580	4.0580	0.8541	25.77	0.51	0.750			
0.1615	10336.71	4.0550	4.0550	0.8532	25.77	0.51	0.750			
0.1641	10500.81	4.0520	4.0520	0.8551	25.77	0.51	0.750			
0.1667	10665.79	4.0490	4.0490	0.8579	25.77	0.51	0.750			
0.1692	10830.37	4.0460	4.0460	0.8602	25.77	0.51	0.750			
0.1718	10996.13	4.0430	4.0430	0.8632	25.77	0.51	0.750			
0.1744	11161.49	4.0400	4.0400	0.8643	25.77	0.51	0.750			
0.1770	11327.45	4.0370	4.0370	0.8660	25.77	0.51	0.750			
0.1796	11494.00	4.0340	4.0340	0.8684	25.77	0.51	0.750			
0.1822	11661.50	4.0310	4.0310	0.8724	25.77	0.51	0.750			
0.1848	11828.42	4.0280	4.0280	0.8775	25.77	0.51	0.750			
0.1875	11996.96	4.0250	4.0249	0.8826	25.77	0.51	0.750			
0.1901	12167.64	4.0220	4.0220	0.8835	25.77	0.51	0.750			
0.1928	12338.06	4.0190	4.0190	0.8853	25.77	0.51	0.750			
0.1955	12508.91	4.0160	4.0161	0.8862	25.78	0.52	0.750			
0.1981	12678.64	4.0130	4.0130	0.8870	25.78	0.52	0.750			
0.2007	12847.59	4.0100	4.0100	0.8909	25.78	0.52	0.750			
0.2034	13019.07	4.0070	4.0070	0.8906	25.78	0.52	0.750			
0.2061	13189.59	4.0040	4.0040	0.8975	25.78	0.52	0.750			
0.2088	13363.20	4.0010	4.0011	0.9043	25.79	0.53	0.750			
0.2115	13538.10	3.9980	3.9980	0.9080	25.79	0.53	0.750			
0.2143	13712.67	3.9950	3.9950	0.9116	25.79	0.53	0.750			
0.2170	13887.87	3.9920	3.9920	0.9115	25.79	0.53	0.750			
0.2197	14063.15	3.9890	3.9890	0.9132	25.80	0.54	0.750			
0.2225	14240.18	3.9860	3.9859	0.9162	25.80	0.54	0.750			
0.2252	14414.50	3.9830	3.9831	0.9150	25.80	0.54	0.750			
0.2280	14591.75	3.9800	3.9800	0.9122	25.80	0.54	0.750			
0.2307	14765.99	3.9770	3.9770	0.9170	25.80	0.54	0.750			
0.2335	14941.07	3.9740	3.9741	0.9209	25.80	0.54	0.750			
0.2362	15118.09	3.9710	3.9710	0.9252	25.80	0.54	0.750			
0.2390	15295.93	3.9680	3.9680	0.9284	25.80	0.54	0.750			
0.2418	15475.11	3.9650	3.9651	0.9291	25.80	0.54	0.750			
0.2446	15653.33	3.9620	3.9620	0.9327	25.80	0.54	0.750			
0.2474	15833.80	3.9590	3.9590	0.9396	25.80	0.54	0.750			
0.2502	16012.87	3.9560	3.9558	0.9372	25.80	0.54	0.750			
0.2530	16193.46	3.9530	3.9530	0.9366	25.80	0.54	0.750			
0.2558	16373.69	3.9500	3.9501	0.9432	25.80	0.54	0.750			
0.2587	16554.73	3.9470	3.9470	0.9513	25.81	0.55	0.750			
0.2615	16736.99	3.9440	3.9440	0.9535	25.81	0.55	0.750			
0.2644	16922.10	3.9410	3.9410	0.9542	25.81	0.55	0.750			
0.2673	17105.84	3.9380	3.9380	0.9574	25.81	0.55	0.750			
0.2702	17290.81	3.9350	3.9351	0.9617	25.81	0.55	0.750			
0.2731	17476.38	3.9320	3.9320	0.9631	25.81	0.55	0.750			
0.2759	17659.61	3.9290	3.9290	0.9595	25.81	0.55	0.750			
0.2788	17843.62	3.9260	3.9260	0.9587	25.81	0.55	0.750			
0.2817	18030.15	3.9230	3.9230	0.9508	25.81	0.55	0.750			
0.2846	18211.99	3.9200	3.9200	0.9475	25.81	0.55	0.750			
0.2874	18391.71	3.9170	3.9170	0.9467	25.81	0.55	0.750			
0.2902	18571.49	3.9140	3.9138	0.9456	25.81	0.55	0.750			
0.2930	18751.12	3.9110	3.9110	0.9591	25.81	0.55	0.750			
0.2959	18934.98	3.9080	3.9080	0.9696	25.81	0.55	0.750			
0.2988	19124.93	3.9050	3.9050	0.9805	25.81	0.55	0.750			
0.3018	19317.33	3.9020	3.9020	0.9914	25.81	0.55	0.750			
0.3048	19507.40	3.8990	3.8991	0.9940	25.81	0.55	0.750			
0.3078	19699.42	3.8960	3.8960	0.9983	25.82	0.56	0.750			
0.3108	19890.80	3.8930	3.8929	0.9990	25.82	0.56	0.750			
0.3138	20082.04	3.8900	3.8900	1.0000	25.82	0.56	0.750			
0.3168	20274.56	3.8870	3.8870	1.0076	25.82	0.56	0.750			
0.3198	20468.68	3.8840	3.8840	1.0130	25.83	0.57	0.750			
0.3229	20664.12	3.8810	3.8810	1.0195	25.83	0.57	0.750			
0.3260	20861.12	3.8780	3.8780	1.0171	25.83	0.57	0.750			
0.3290	21056.33	3.8750	3.8750	1.0216	25.83	0.57	0.750			
0.3321	21251.84	3.8720	3.8721	1.0276	25.82	0.56	0.750			
0.3352	21449.63	3.8690	3.8690	1.0338	25.82	0.56	0.750			
0.3383	21648.67	3.8660	3.8659	1.0351	25.82	0.56	0.750			
0.3414	21847.65	3.8630	3.8631	1.0421	25.82	0.56	0.750			
0.3445	22047.86	3.8600	3.8601	1.0486	25.82	0.56	0.750			
0.3477	22250.31	3.8570	3.8570	1.0591	25.82	0.56	0.750			
0.3509	22456.29	3.8540	3.8539	1.0507	25.82	0.56	0.750			
0.3540	22656.97	3.8510	3.8510	1.0567	25.82	0.56	0.750			
0.3572	22859.63	3.8480	3.8481	1.0644	25.81	0.55	0.750			
0.3604	23065.05	3.8450	3.8450	1.0699	25.81	0.55	0.750			
0.3636	23270.05	3.8420	3.8419	1.0704	25.81	0.55	0.750			
0.3668	23475.25	3.8390	3.8390	1.0836	25.80	0.54	0.750			
0.3701	23684.07	3.8360	3.8361	1.0948	25.80	0.54	0.750			
0.3734	23897.94	3.8330	3.8329	1.1078	25.79	0.53	0.750	0.340	0.420	
0.3767	24111.46	3.8300	3.8300	1.1024	25.79	0.53	0.750			
0.3801	24323.69	3.8270	3.8271	1.1101	25.78	0.52	0.750			
0.3834	24537.56	3.8240	3.8240	1.1168	25.78	0.52	0.750			
0.3868	24752.32	3.8210	3.8209	1.1195	25.77	0.51	0.750			
0.3901	24963.74	3.8180	3.8181	1.1171	25.76	0.50	0.750			
0.3934	25178.34	3.8150	3.8150	1.1271	25.75	0.49	0.750			
0.3968	25397.75	3.8120	3.8121	1.1387	25.74	0.48	0.750			
0.4003	25619.92	3.8090	3.8087	1.1408	25.73	0.47	0.750			
0.4037	25836.85	3.8060	3.8062	1.1460	25.72	0.46	0.750			
0.4072	26058.45	3.8030	3.8030	1.1530	25.72	0.46	0.750			
0.4106	26280.99	3.8000	3.8001	1.1591	25.71	0.45	0.750			
0.4141	26502.32	3.7970	3.7971	1.1564	25.71	0.45	0.750			
0.4176	26724.29	3.7940	3.7940	1.1661	25.69	0.43	0.750			
0.4211	26948.64	3.7910	3.7910	1.1795	25.68	0.42	0.750			
0.4247	27177.89	3.7880	3.7879	1.1888	25.67	0.41	0.750			
0.4282	27404.17	3.7850	3.7850	1.1977	25.66	0.40	0.750			
0.4318	27635.89	3.7820	3.7821	1.2164	25.65	0.39	0.750			
0.4355	27872.16	3.7790	3.7790	1.2300	25.64	0.38	0.750			
0.4392	28108.15	3.7760	3.7761	1.2457	25.63	0.37	0.750			
0.4429	28348.17	3.7730	3.7730	1.2682	25.61	0.35	0.750			
0.4468	28593.54	3.7700	3.7701	1.2856	25.60	0.34	0.750			
0.4507	28842.95	3.7670	3.7669	1.3134	25.59	0.33	0.750			
0.4546	29095.49	3.7640	3.7640	1.3337	25.58	0.32	0.750			
0.4586	29352.24	3.7610	3.7611	1.3655	25.56	0.30	0.750			
0.4628	29618.53	3.7580	3.7579	1.3899	25.55	0.29	0.750			
0.4670	29886.08	3.7550	3.7550	1.4198	25.54	0.28	0.750			
0.4713	30161.70	3.7520	3.7520	1.4495	25.52	0.26	0.750			
0.4757	30443.69	3.7490	3.7492	1.4763	25.51	0.25	0.750			
0.4801	30726.89	3.7460	3.7461	1.5071	25.49	0.23	0.750			
0.4846	31015.45	3.7430	3.7432	1.5524	25.48	0.22	0.750			
0.4894	31319.78	3.7400	3.7398	1.5890	25.46	0.20	0.750			
0.4942	31627.91	3.7370	3.7368	1.6391	25.45	0.19	0.750			
0.4992	31947.77	3.7340	3.7341	1.6902	25.43	0.17	0.750			
0.5044	32281.87	3.7310	3.7311	1.7454	25.42	0.16	0.750			
0.5096	32616.40	3.7280	3.7282	1.7902	25.40	0.14	0.750			
0.5151	32964.22	3.7250	3.7249	1.8350	25.38	0.12	0.750			
0.5207	33321.85	3.7220	3.7220	1.9009	25.37	0.11	0.750			
0.5265	33696.81	3.7190	3.7190	1.9694	25.36	0.10	0.750			
0.5325	34081.06	3.7160	3.7159	2.0249	25.34	0.08	0.750			
0.5386	34473.11	3.7130	3.7131	2.1047	25.32	0.06	0.750			
0.5451	34883.82	3.7100	3.7100	2.1606	25.30	0.04	0.750			
0.5517	35308.54	3.7070	3.7070	2.2044	25.29	0.03	0.750			
0.5584	35738.31	3.7040	3.7040	2.2753	25.27	0.01	0.750			
0.5653	36176.43	3.7010	3.7010	2.3424	25.25	-0.01	0.750			
0.5723	36629.11	3.6980	3.6981	2.3863	25.23	-0.03	0.750			
0.5796	37096.44	3.6950	3.6950	2.4807	25.21	-0.05	0.750			
0.5872	37582.18	3.6920	3.6918	2.5335	25.19	-0.07	0.750			
0.5948	38069.48	3.6890	3.6891	2.6090	25.18	-0.08	0.750			
0.6028	38576.77	3.6860	3.6859	2.6951	25.17	-0.09	0.750			
0.6110	39104.52	3.6830	3.6830	2.7677	25.15	-0.11	0.750			
0.6195	39649.63	3.6800	3.6800	2.8322	25.13	-0.13	0.750			
0.6280	40192.99	3.6770	3.6771	2.8680	25.12	-0.14	0.750			
0.6367	40749.44	3.6740	3.6740	2.9262	25.12	-0.14	0.750			
0.6456	41316.22	3.6710	3.6710	2.9762	25.11	-0.15	0.750			
0.6548	41904.85	3.6680	3.6680	2.9929	25.10	-0.16	0.750			
0.6638	42483.13	3.6650	3.6650	2.9182	25.10	-0.16	0.750			
0.6724	43032.67	3.6620	3.6619	2.7823	25.11	-0.15	0.750			
0.6805	43554.92	3.6590	3.6589	2.5821	25.12	-0.14	0.750			
0.6880	44029.44	3.6560	3.6561	2.3638	25.13	-0.13	0.750			
0.6947	44461.93	3.6530	3.6530	2.1506	25.14	-0.12	0.750			
0.7008	44852.53	3.6500	3.6498	1.9377	25.14	-0.12	0.750			
0.7063	45203.71	3.6470	3.6469	1.7299	25.15	-0.11	0.750			
0.7112	45517.20	3.6440	3.6441	1.5314	25.17	-0.09	0.750			
0.7155	45789.32	3.6410	3.6411	1.3540	25.17	-0.09	0.750			
0.7191	46023.04	3.6380	3.6380	1.1751	25.18	-0.08	0.750			
0.7223	46228.46	3.6350	3.6349	1.0550	25.18	-0.08	0.750			
0.7251	46407.96	3.6320	3.6318	0.9509	25.18	-0.08	0.750			
0.7277	46572.58	3.6290	3.6291	0.8810	25.19	-0.07	0.750			
0.7303	46736.99	3.6260	3.6259	0.8198	25.20	-0.06	0.750			
0.7326	46885.90	3.6230	3.6230	0.7873	25.20	-0.06	0.750			
0.7349	47032.29	3.6200	3.6202	0.7555	25.21	-0.05	0.750			
0.7371	47175.31	3.6170	3.6168	0.7200	25.22	-0.04	0.750			
0.7392	47311.45	3.6140	3.6141	0.6808	25.23	-0.03	0.750			
0.7413	47440.61	3.6110	3.6111	0.6277	25.23	-0.03	0.750			
0.7431	47559.35	3.6080	3.6081	0.5715	25.24	-0.02	0.750			
0.7448	47667.07	3.6050	3.6050	0.5020	25.24	-0.02	0.750			
0.7462	47756.23	3.6020	3.6020	0.4316	25.25	-0.01	0.750			
0.7474	47831.94	3.5990	3.5990	0.3603	25.25	-0.01	0.750			
0.7484	47894.59	3.5960	3.5959	0.2915	25.25	-0.01	0.750			
0.7491	47943.13	3.5930	3.5931	0.2233	25.26	-0.00	0.750			
0.7497	47979.74	3.5900	3.5902	0.1563	25.26	-0.00	0.750			
0.7501	48003.22	3.5870	3.5875	0.0841	25.26	-0.00	0.750			
