Ah_balance (normalized)	Ah_balance (mAh)	Voltage - fit (V)	Voltage -  interpolate (V)	dQ/dV (1/V)	Temperature (°C)	Temperature - diff (°C)	Current (C)	R_DC 0ms (mOhm)	R_DC 50ms (mOhm)	R_DC 50 ms PEC (mOhm)
0.0460	2943.36	4.1990	4.1991	0.8487	25.65	0.51	0.750			
0.0484	3100.70	4.1960	4.1961	0.7977	25.65	0.51	0.750			
0.0508	3253.64	4.1930	4.1930	0.7803	25.65	0.51	0.750			
0.0531	3398.42	4.1900	4.1900	0.7661	25.65	0.51	0.750			
0.0553	3541.55	4.1870	4.1870	0.7584	25.65	0.51	0.750			
0.0576	3686.94	4.1840	4.1840	0.7591	25.65	0.51	0.750			
0.0599	3833.71	4.1810	4.1810	0.7626	25.65	0.51	0.750			
0.0622	3980.43	4.1780	4.1781	0.7634	25.65	0.51	0.750			
0.0645	4127.49	4.1750	4.1750	0.7520	25.65	0.51	0.750			
0.0667	4269.86	4.1720	4.1721	0.7587	25.65	0.51	0.750			
0.0689	4411.90	4.1690	4.1692	0.7576	25.65	0.51	0.750			
0.0712	4557.90	4.1660	4.1661	0.7634	25.65	0.51	0.750			
0.0735	4704.75	4.1630	4.1632	0.7718	25.65	0.51	0.750			
0.0759	4855.12	4.1600	4.1601	0.7718	25.65	0.51	0.750			
0.0782	5007.51	4.1570	4.1570	0.7796	25.65	0.51	0.750			
0.0806	5155.71	4.1540	4.1540	0.7710	25.65	0.51	0.750			
0.0829	5303.48	4.1510	4.1507	0.7736	25.65	0.51	0.750			
0.0852	5452.54	4.1480	4.1480	0.7728	25.65	0.51	0.750			
0.0875	5601.90	4.1450	4.1450	0.7731	25.65	0.51	0.750			
0.0898	5750.28	4.1420	4.1420	0.7755	25.65	0.51	0.750			
0.0922	5899.86	4.1390	4.1390	0.7841	25.65	0.51	0.750			
0.0945	6048.24	4.1360	4.1359	0.7821	25.65	0.51	0.750			
0.0969	6199.74	4.1330	4.1330	0.7846	25.65	0.51	0.750			
0.0992	6351.19	4.1300	4.1301	0.7854	25.65	0.51	0.750			
0.1016	6503.34	4.1270	4.1270	0.7814	25.65	0.51	0.750			
0.1039	6651.86	4.1240	4.1240	0.7840	25.65	0.51	0.750			
0.1063	6800.77	4.1210	4.1210	0.7818	25.65	0.51	0.750			
0.1086	6949.99	4.1180	4.1182	0.7867	25.65	0.51	0.750			
0.1110	7101.89	4.1150	4.1150	0.7911	25.65	0.51	0.750			
0.1134	7255.14	4.1120	4.1120	0.7889	25.66	0.52	0.750			
0.1158	7408.50	4.1090	4.1090	0.7923	25.66	0.52	0.750			
0.1181	7558.50	4.1060	4.1061	0.7966	25.67	0.53	0.750			
0.1205	7711.25	4.1030	4.1028	0.7994	25.67	0.53	0.750			
0.1229	7865.86	4.1000	4.1000	0.8003	25.67	0.53	0.750			
0.1253	8020.36	4.0970	4.0971	0.7976	25.67	0.53	0.750			
0.1277	8175.07	4.0940	4.0941	0.8045	25.67	0.53	0.750			
0.1302	8330.04	4.0910	4.0910	0.8038	25.67	0.53	0.750			
0.1325	8481.61	4.0880	4.0878	0.8003	25.67	0.53	0.750			
0.1349	8634.38	4.0850	4.0850	0.8005	25.67	0.53	0.750			
0.1374	8793.89	4.0820	4.0820	0.7909	25.67	0.53	0.750			
0.1397	8942.17	4.0790	4.0791	0.8006	25.67	0.53	0.750			
0.1421	9095.71	4.0760	4.0761	0.8049	25.67	0.53	0.750			
0.1445	9248.49	4.0730	4.0732	0.8111	25.67	0.53	0.750			
0.1469	9404.05	4.0700	4.0700	0.8177	25.67	0.53	0.750			
0.1495	9565.09	4.0670	4.0671	0.8132	25.67	0.53	0.750			
0.1519	9722.85	4.0640	4.0642	0.8250	25.67	0.53	0.750			
0.1544	9881.60	4.0610	4.0610	0.8317	25.68	0.54	0.750			
0.1569	10038.87	4.0580	4.0581	0.8275	25.68	0.54	0.750			
0.1594	10198.95	4.0550	4.0551	0.8332	25.68	0.54	0.750			
0.1619	10360.28	4.0520	4.0521	0.8323	25.68	0.54	0.750			
0.1644	10522.45	4.0490	4.0490	0.8395	25.68	0.54	0.750			
0.1669	10684.47	4.0460	4.0461	0.8412	25.69	0.55	0.750			
0.1694	10843.75	4.0430	4.0430	0.8382	25.69	0.55	0.750			
0.1720	11005.06	4.0400	4.0400	0.8425	25.69	0.55	0.750			
0.1745	11167.28	4.0370	4.0370	0.8464	25.69	0.55	0.750			
0.1770	11330.27	4.0340	4.0340	0.8382	25.69	0.55	0.750			
0.1795	11490.35	4.0310	4.0311	0.8470	25.69	0.55	0.750			
0.1820	11650.59	4.0280	4.0282	0.8513	25.69	0.55	0.750			
0.1846	11814.33	4.0250	4.0252	0.8550	25.69	0.55	0.750			
0.1872	11980.77	4.0220	4.0221	0.8521	25.69	0.55	0.750			
0.1898	12145.32	4.0190	4.0191	0.8686	25.69	0.55	0.750			
0.1924	12314.42	4.0160	4.0161	0.8739	25.69	0.55	0.750			
0.1950	12481.34	4.0130	4.0127	0.8681	25.69	0.55	0.750			
0.1976	12648.63	4.0100	4.0101	0.8750	25.69	0.55	0.750			
0.2003	12817.97	4.0070	4.0071	0.8693	25.69	0.55	0.750			
0.2029	12985.00	4.0040	4.0041	0.8739	25.70	0.56	0.750			
0.2055	13152.23	4.0010	4.0010	0.8673	25.70	0.56	0.750			
0.2081	13318.88	3.9980	3.9976	0.8698	25.70	0.56	0.750			
0.2107	13485.76	3.9950	3.9950	0.8769	25.70	0.56	0.750			
0.2134	13654.42	3.9920	3.9921	0.8735	25.70	0.56	0.750			
0.2160	13821.67	3.9890	3.9890	0.8814	25.71	0.57	0.750			
0.2186	13990.88	3.9860	3.9861	0.8828	25.71	0.57	0.750			
0.2213	14161.83	3.9830	3.9831	0.8866	25.71	0.57	0.750			
0.2240	14333.82	3.9800	3.9800	0.8885	25.72	0.58	0.750			
0.2266	14503.88	3.9770	3.9771	0.8949	25.72	0.58	0.750			
0.2293	14677.22	3.9740	3.9740	0.8978	25.72	0.58	0.750			
0.2320	14847.91	3.9710	3.9709	0.8970	25.73	0.59	0.750			
0.2347	15021.09	3.9680	3.9680	0.9027	25.73	0.59	0.750			
0.2374	15195.94	3.9650	3.9651	0.9015	25.73	0.59	0.750			
0.2401	15368.70	3.9620	3.9620	0.9059	25.73	0.59	0.750			
0.2429	15543.49	3.9590	3.9591	0.9084	25.73	0.59	0.750			
0.2456	15716.58	3.9560	3.9557	0.9052	25.73	0.59	0.750			
0.2484	15895.61	3.9530	3.9529	0.8932	25.73	0.59	0.750			
0.2510	16062.18	3.9500	3.9501	0.8971	25.73	0.59	0.750			
0.2536	16232.69	3.9470	3.9471	0.9058	25.73	0.59	0.750			
0.2563	16405.56	3.9440	3.9441	0.9090	25.73	0.59	0.750			
0.2590	16579.05	3.9410	3.9407	0.9155	25.73	0.59	0.750			
0.2619	16758.47	3.9380	3.9382	0.9233	25.74	0.60	0.750			
0.2647	16939.98	3.9350	3.9351	0.9332	25.74	0.60	0.750			
0.2675	17121.92	3.9320	3.9320	0.9342	25.74	0.60	0.750			
0.2703	17298.46	3.9290	3.9287	0.9182	25.75	0.61	0.750			
0.2730	17474.97	3.9260	3.9260	0.9129	25.75	0.61	0.750			
0.2758	17650.17	3.9230	3.9230	0.9156	25.75	0.61	0.750			
0.2785	17824.90	3.9200	3.9201	0.9192	25.75	0.61	0.750			
0.2813	18001.46	3.9170	3.9170	0.9276	25.75	0.61	0.750			
0.2840	18179.14	3.9140	3.9140	0.9288	25.75	0.61	0.750			
0.2869	18361.29	3.9110	3.9111	0.9158	25.74	0.60	0.750			
0.2896	18536.80	3.9080	3.9081	0.9286	25.74	0.60	0.750			
0.2924	18714.63	3.9050	3.9050	0.9324	25.74	0.60	0.750			
0.2952	18892.06	3.9020	3.9017	0.9288	25.73	0.59	0.750			
0.2980	19073.45	3.8990	3.8992	0.9205	25.73	0.59	0.750			
0.3008	19248.92	3.8960	3.8961	0.9257	25.73	0.59	0.750			
0.3036	19427.20	3.8930	3.8931	0.9343	25.73	0.59	0.750			
0.3064	19608.44	3.8900	3.8901	0.9431	25.73	0.59	0.750			
0.3091	19784.38	3.8870	3.8868	0.9401	25.73	0.59	0.750			
0.3120	19966.41	3.8840	3.8841	0.9437	25.72	0.58	0.750			
0.3148	20150.30	3.8810	3.8811	0.9496	25.72	0.58	0.750			
0.3177	20333.96	3.8780	3.8780	0.9528	25.71	0.57	0.750			
0.3206	20515.98	3.8750	3.8745	0.9486	25.71	0.57	0.750			
0.3235	20703.38	3.8720	3.8720	0.9314	25.71	0.57	0.750			
0.3262	20879.07	3.8690	3.8691	0.9375	25.70	0.56	0.750			
0.3290	21056.96	3.8660	3.8661	0.9407	25.70	0.56	0.750			
0.3318	21237.55	3.8630	3.8631	0.9508	25.69	0.55	0.750			
0.3347	21417.83	3.8600	3.8601	0.9536	25.69	0.55	0.750			
0.3375	21601.35	3.8570	3.8571	0.9469	25.68	0.54	0.750			
0.3404	21785.35	3.8540	3.8541	0.9538	25.68	0.54	0.750			
0.3433	21970.22	3.8510	3.8511	0.9614	25.67	0.53	0.750			
0.3461	22151.87	3.8480	3.8477	0.9567	25.67	0.53	0.750			
0.3491	22342.38	3.8450	3.8450	0.9387	25.66	0.52	0.750			
0.3519	22518.52	3.8420	3.8421	0.9562	25.65	0.51	0.750			
0.3547	22701.45	3.8390	3.8391	0.9723	25.64	0.50	0.750			
0.3576	22886.56	3.8360	3.8361	0.9790	25.63	0.49	0.750			
0.3606	23075.97	3.8330	3.8333	0.9931	25.62	0.48	0.750	0.273	0.374	
0.3636	23267.62	3.8300	3.8302	0.9896	25.61	0.47	0.750			
0.3666	23459.63	3.8270	3.8273	1.0057	25.60	0.46	0.750			
0.3696	23656.42	3.8240	3.8242	1.0172	25.59	0.45	0.750			
0.3726	23848.54	3.8210	3.8211	0.9943	25.58	0.44	0.750			
0.3756	24040.75	3.8180	3.8181	1.0035	25.57	0.43	0.750			
0.3787	24235.03	3.8150	3.8152	1.0198	25.56	0.42	0.750			
0.3818	24437.43	3.8120	3.8120	1.0435	25.55	0.41	0.750			
0.3849	24631.43	3.8090	3.8089	1.0254	25.54	0.40	0.750			
0.3879	24828.22	3.8060	3.8060	1.0378	25.53	0.39	0.750			
0.3911	25030.25	3.8030	3.8030	1.0526	25.52	0.38	0.750			
0.3943	25236.28	3.8000	3.7999	1.0653	25.51	0.37	0.750			
0.3976	25444.84	3.7970	3.7970	1.0443	25.51	0.37	0.750			
0.4007	25641.73	3.7940	3.7941	1.0613	25.50	0.36	0.750			
0.4038	25843.07	3.7910	3.7911	1.0912	25.49	0.35	0.750			
0.4070	26050.52	3.7880	3.7882	1.1064	25.48	0.34	0.750			
0.4104	26267.57	3.7850	3.7852	1.1264	25.47	0.33	0.750			
0.4138	26486.21	3.7820	3.7823	1.1522	25.47	0.33	0.750			
0.4174	26712.05	3.7790	3.7791	1.1799	25.46	0.32	0.750			
0.4210	26945.66	3.7760	3.7757	1.1830	25.45	0.31	0.750			
0.4245	27168.06	3.7730	3.7731	1.1928	25.44	0.30	0.750			
0.4280	27390.68	3.7700	3.7702	1.2575	25.43	0.29	0.750			
0.4318	27638.07	3.7670	3.7670	1.3002	25.41	0.27	0.750			
0.4358	27893.52	3.7640	3.7631	1.3436	25.40	0.26	0.750			
0.4400	28160.91	3.7610	3.7615	1.3872	25.39	0.25	0.750			
0.4443	28436.85	3.7580	3.7581	1.4089	25.37	0.23	0.750			
0.4487	28717.07	3.7550	3.7550	1.4281	25.36	0.22	0.750			
0.4528	28980.44	3.7520	3.7522	1.4039	25.35	0.21	0.750			
0.4571	29254.88	3.7490	3.7489	1.4308	25.33	0.19	0.750			
0.4615	29535.75	3.7460	3.7460	1.4418	25.32	0.18	0.750			
0.4658	29812.41	3.7430	3.7431	1.4770	25.31	0.17	0.750			
0.4703	30096.98	3.7400	3.7398	1.5152	25.30	0.16	0.750			
0.4748	30384.73	3.7370	3.7372	1.5591	25.29	0.15	0.750			
0.4796	30696.95	3.7340	3.7340	1.5804	25.27	0.13	0.750			
0.4845	31006.87	3.7310	3.7307	1.6279	25.26	0.12	0.750			
0.4894	31318.78	3.7280	3.7281	1.6954	25.24	0.10	0.750			
0.4946	31652.30	3.7250	3.7251	1.7546	25.22	0.08	0.750			
0.4999	31991.09	3.7220	3.7223	1.8095	25.21	0.07	0.750			
0.5053	32341.93	3.7190	3.7194	1.8475	25.19	0.05	0.750			
0.5111	32708.91	3.7160	3.7157	1.9085	25.17	0.03	0.750			
0.5169	33083.69	3.7130	3.7131	1.9520	25.16	0.02	0.750			
0.5229	33462.79	3.7100	3.7099	1.9906	25.14	0.00	0.750			
0.5291	33859.97	3.7070	3.7069	2.0638	25.13	-0.01	0.750			
0.5352	34249.87	3.7040	3.7041	2.1278	25.11	-0.03	0.750			
0.5418	34672.17	3.7010	3.7010	2.1922	25.09	-0.05	0.750			
0.5484	35097.10	3.6980	3.6978	2.2553	25.08	-0.06	0.750			
0.5552	35531.94	3.6950	3.6954	2.3124	25.06	-0.08	0.750			
0.5622	35978.79	3.6920	3.6921	2.3671	25.05	-0.09	0.750			
0.5694	36441.47	3.6890	3.6890	2.4196	25.04	-0.10	0.750			
0.5769	36922.31	3.6860	3.6858	2.4911	25.03	-0.11	0.750			
0.5843	37395.26	3.6830	3.6830	2.5470	25.02	-0.12	0.750			
0.5919	37882.81	3.6800	3.6802	2.6440	25.02	-0.12	0.750			
0.6000	38400.10	3.6770	3.6770	2.7287	25.02	-0.12	0.750			
0.6085	38941.09	3.6740	3.6741	2.7777	25.01	-0.13	0.750			
0.6170	39489.08	3.6710	3.6710	2.7542	25.02	-0.12	0.750			
0.6252	40014.83	3.6680	3.6679	2.6443	25.02	-0.12	0.750			
0.6330	40514.75	3.6650	3.6647	2.5225	25.02	-0.12	0.750			
0.6404	40982.65	3.6620	3.6619	2.3308	25.03	-0.11	0.750			
0.6471	41412.00	3.6590	3.6592	2.1324	25.03	-0.11	0.750			
0.6532	41806.71	3.6560	3.6561	1.9550	25.04	-0.10	0.750			
0.6587	42154.31	3.6530	3.6530	1.7556	25.04	-0.10	0.750			
0.6636	42468.08	3.6500	3.6502	1.6098	25.05	-0.09	0.750			
0.6682	42762.21	3.6470	3.6471	1.4799	25.06	-0.08	0.750			
0.6723	43026.82	3.6440	3.6440	1.3456	25.06	-0.08	0.750			
0.6761	43268.09	3.6410	3.6412	1.2491	25.07	-0.07	0.750			
0.6796	43494.24	3.6380	3.6381	1.1613	25.08	-0.06	0.750			
0.6829	43708.18	3.6350	3.6346	1.0979	25.09	-0.05	0.750			
0.6860	43906.19	3.6320	3.6322	1.0234	25.10	-0.04	0.750			
0.6890	44096.34	3.6290	3.6290	0.9840	25.10	-0.04	0.750			
0.6919	44282.31	3.6260	3.6259	0.9534	25.11	-0.03	0.750			
0.6947	44459.15	3.6230	3.6230	0.9165	25.12	-0.02	0.750			
0.6974	44633.15	3.6200	3.6200	0.8894	25.12	-0.02	0.750			
0.7001	44807.21	3.6170	3.6169	0.8474	25.13	-0.01	0.750			
0.7026	44966.44	3.6140	3.6141	0.8097	25.13	-0.01	0.750			
0.7050	45120.52	3.6110	3.6111	0.7637	25.13	-0.01	0.750			
0.7073	45266.58	3.6080	3.6080	0.6909	25.14	-0.00	0.750			
0.7093	45394.94	3.6050	3.6051	0.6148	25.14	0.00	0.750			
0.7110	45501.31	3.6020	3.6024	0.5688	25.14	0.00	0.750			
0.7125	45602.25	3.5990	3.5995	0.5127	25.15	0.01	0.750			
0.7140	45695.30	3.5960	3.5958	0.4620	25.15	0.01	0.750			
0.7153	45776.85	3.5930	3.5934	0.4045	25.15	0.01	0.750			
0.7165	45852.85	3.5900	3.5904	0.3556	25.15	0.01	0.750			
0.7175	45918.97	3.5870	3.5872	0.3098	25.15	0.01	0.750			
0.7184	45975.92	3.5840	3.5838	0.2448	25.16	0.02	0.750			
0.7190	46016.81	3.5810	3.5811	0.1922	25.16	0.02	0.750			
0.7195	46049.71	3.5780	3.5783	0.1380	25.16	0.02	0.750			
0.7199	46070.94	3.5750	3.5754	0.0830	25.16	0.02	0.750			
