Ah_balance (normalized)	Ah_balance (mAh)	Voltage - fit (V)	Voltage -  interpolate (V)	dQ/dV (1/V)	Temperature (°C)	Temperature - diff (°C)	Current (C)	R_DC 0ms (mOhm)	R_DC 50ms (mOhm)	R_DC 50 ms PEC (mOhm)
0.0471	3016.12	4.1980	4.1980	0.7567	25.51	0.57	0.750			
0.0494	3163.55	4.1950	4.1950	0.7572	25.51	0.57	0.750			
0.0516	3302.16	4.1920	4.1921	0.7469	25.51	0.57	0.750			
0.0538	3446.01	4.1890	4.1891	0.7532	25.51	0.57	0.750			
0.0561	3591.35	4.1860	4.1854	0.7570	25.51	0.57	0.750			
0.0584	3735.38	4.1830	4.1831	0.7642	25.51	0.57	0.750			
0.0607	3886.30	4.1800	4.1801	0.7568	25.51	0.57	0.750			
0.0630	4032.65	4.1770	4.1771	0.7662	25.51	0.57	0.750			
0.0653	4178.38	4.1740	4.1740	0.7617	25.51	0.57	0.750			
0.0676	4323.20	4.1710	4.1710	0.7661	25.51	0.57	0.750			
0.0699	4470.41	4.1680	4.1681	0.7708	25.51	0.57	0.750			
0.0722	4619.72	4.1650	4.1651	0.7738	25.52	0.58	0.750			
0.0745	4769.66	4.1620	4.1620	0.7775	25.52	0.58	0.750			
0.0769	4923.37	4.1590	4.1590	0.7846	25.52	0.58	0.750			
0.0792	5070.70	4.1560	4.1560	0.7741	25.53	0.59	0.750			
0.0816	5220.28	4.1530	4.1530	0.7721	25.53	0.59	0.750			
0.0839	5367.43	4.1500	4.1500	0.7705	25.53	0.59	0.750			
0.0862	5517.18	4.1470	4.1470	0.7600	25.53	0.59	0.750			
0.0884	5659.78	4.1440	4.1440	0.7670	25.53	0.59	0.750			
0.0907	5806.54	4.1410	4.1409	0.7680	25.53	0.59	0.750			
0.0930	5952.69	4.1380	4.1379	0.7754	25.53	0.59	0.750			
0.0954	6103.04	4.1350	4.1351	0.7827	25.53	0.59	0.750			
0.0978	6260.31	4.1320	4.1319	0.7750	25.53	0.59	0.750			
0.1001	6406.69	4.1290	4.1291	0.7791	25.54	0.60	0.750			
0.1024	6555.02	4.1260	4.1261	0.7759	25.54	0.60	0.750			
0.1047	6702.83	4.1230	4.1232	0.7825	25.54	0.60	0.750			
0.1071	6852.85	4.1200	4.1198	0.7849	25.54	0.60	0.750			
0.1094	7003.50	4.1170	4.1172	0.7858	25.54	0.60	0.750			
0.1118	7157.90	4.1140	4.1141	0.7969	25.54	0.60	0.750			
0.1143	7312.05	4.1110	4.1110	0.8035	25.55	0.61	0.750			
0.1166	7465.23	4.1080	4.1079	0.7954	25.55	0.61	0.750			
0.1190	7618.48	4.1050	4.1051	0.7965	25.55	0.61	0.750			
0.1214	7771.68	4.1020	4.1020	0.7991	25.55	0.61	0.750			
0.1239	7927.35	4.0990	4.0992	0.7987	25.55	0.61	0.750			
0.1262	8079.24	4.0960	4.0960	0.7989	25.55	0.61	0.750			
0.1286	8231.46	4.0930	4.0931	0.7975	25.55	0.61	0.750			
0.1310	8384.12	4.0900	4.0893	0.8007	25.55	0.61	0.750			
0.1334	8538.17	4.0870	4.0871	0.8068	25.55	0.61	0.750			
0.1359	8697.31	4.0840	4.0840	0.7932	25.55	0.61	0.750			
0.1382	8847.10	4.0810	4.0810	0.8065	25.56	0.62	0.750			
0.1407	9002.25	4.0780	4.0781	0.8116	25.56	0.62	0.750			
0.1430	9155.00	4.0750	4.0749	0.8139	25.56	0.62	0.750			
0.1455	9312.76	4.0720	4.0722	0.8241	25.56	0.62	0.750			
0.1480	9473.16	4.0690	4.0691	0.8260	25.56	0.62	0.750			
0.1505	9633.55	4.0660	4.0661	0.8313	25.57	0.63	0.750			
0.1530	9794.50	4.0630	4.0630	0.8264	25.57	0.63	0.750			
0.1555	9953.89	4.0600	4.0600	0.8276	25.57	0.63	0.750			
0.1580	10112.46	4.0570	4.0570	0.8282	25.57	0.63	0.750			
0.1605	10273.34	4.0540	4.0540	0.8157	25.58	0.64	0.750			
0.1630	10428.88	4.0510	4.0511	0.8272	25.58	0.64	0.750			
0.1654	10587.36	4.0480	4.0480	0.8344	25.58	0.64	0.750			
0.1679	10746.27	4.0450	4.0449	0.8374	25.59	0.65	0.750			
0.1704	10908.40	4.0420	4.0422	0.8444	25.59	0.65	0.750			
0.1730	11074.52	4.0390	4.0391	0.8425	25.59	0.65	0.750			
0.1756	11236.16	4.0360	4.0360	0.8477	25.59	0.65	0.750			
0.1781	11399.75	4.0330	4.0331	0.8570	25.59	0.65	0.750			
0.1806	11560.08	4.0300	4.0296	0.8498	25.59	0.65	0.750			
0.1832	11724.29	4.0270	4.0271	0.8559	25.59	0.65	0.750			
0.1858	11889.53	4.0240	4.0240	0.8596	25.60	0.66	0.750			
0.1884	12055.57	4.0210	4.0211	0.8650	25.60	0.66	0.750			
0.1910	12225.24	4.0180	4.0180	0.8740	25.61	0.67	0.750			
0.1936	12390.61	4.0150	4.0150	0.8676	25.61	0.67	0.750			
0.1962	12559.87	4.0120	4.0120	0.8585	25.61	0.67	0.750			
0.1988	12723.38	4.0090	4.0091	0.8637	25.61	0.67	0.750			
0.2014	12887.32	4.0060	4.0061	0.8650	25.62	0.68	0.750			
0.2040	13053.30	4.0030	4.0030	0.8686	25.62	0.68	0.750			
0.2065	13218.55	4.0000	3.9998	0.8698	25.62	0.68	0.750			
0.2092	13388.11	3.9970	3.9971	0.8695	25.62	0.68	0.750			
0.2118	13555.30	3.9940	3.9941	0.8822	25.62	0.68	0.750			
0.2145	13725.51	3.9910	3.9910	0.8907	25.63	0.69	0.750			
0.2171	13895.84	3.9880	3.9881	0.8869	25.63	0.69	0.750			
0.2198	14066.64	3.9850	3.9851	0.8927	25.63	0.69	0.750			
0.2225	14240.52	3.9820	3.9821	0.8934	25.63	0.69	0.750			
0.2252	14413.42	3.9790	3.9790	0.8969	25.64	0.70	0.750			
0.2279	14586.25	3.9760	3.9761	0.8965	25.64	0.70	0.750			
0.2306	14756.21	3.9730	3.9729	0.8924	25.64	0.70	0.750			
0.2332	14926.31	3.9700	3.9700	0.8988	25.64	0.70	0.750			
0.2359	15100.22	3.9670	3.9670	0.8971	25.64	0.70	0.750			
0.2386	15271.39	3.9640	3.9641	0.9012	25.65	0.71	0.750			
0.2413	15444.84	3.9610	3.9611	0.9094	25.65	0.71	0.750			
0.2441	15619.43	3.9580	3.9580	0.9109	25.65	0.71	0.750			
0.2469	15798.45	3.9550	3.9551	0.8969	25.66	0.72	0.750			
0.2495	15968.81	3.9520	3.9521	0.9050	25.66	0.72	0.750			
0.2522	16141.36	3.9490	3.9491	0.9129	25.66	0.72	0.750			
0.2550	16318.80	3.9460	3.9461	0.9223	25.67	0.73	0.750			
0.2577	16491.68	3.9430	3.9432	0.9174	25.67	0.73	0.750			
0.2605	16668.98	3.9400	3.9401	0.9241	25.67	0.73	0.750			
0.2633	16849.24	3.9370	3.9371	0.9331	25.67	0.73	0.750			
0.2661	17030.71	3.9340	3.9340	0.9349	25.67	0.73	0.750			
0.2689	17208.38	3.9310	3.9310	0.9267	25.67	0.73	0.750			
0.2717	17389.83	3.9280	3.9279	0.9145	25.68	0.74	0.750			
0.2744	17562.81	3.9250	3.9252	0.9247	25.68	0.74	0.750			
0.2772	17740.18	3.9220	3.9221	0.9279	25.68	0.74	0.750			
0.2800	17917.43	3.9190	3.9190	0.9310	25.69	0.75	0.750			
0.2828	18100.17	3.9160	3.9161	0.9211	25.69	0.75	0.750			
0.2855	18275.18	3.9130	3.9131	0.9323	25.69	0.75	0.750			
0.2884	18454.64	3.9100	3.9101	0.9369	25.69	0.75	0.750			
0.2912	18634.75	3.9070	3.9072	0.9314	25.69	0.75	0.750			
0.2940	18814.04	3.9040	3.9031	0.9407	25.69	0.75	0.750			
0.2968	18996.99	3.9010	3.9012	0.9424	25.68	0.74	0.750			
0.2997	19178.96	3.8980	3.8981	0.9450	25.68	0.74	0.750			
0.3025	19361.75	3.8950	3.8950	0.9493	25.68	0.74	0.750			
0.3054	19543.38	3.8920	3.8920	0.9417	25.67	0.73	0.750			
0.3083	19728.29	3.8890	3.8889	0.9363	25.67	0.73	0.750			
0.3110	19904.45	3.8860	3.8861	0.9406	25.67	0.73	0.750			
0.3138	20083.00	3.8830	3.8831	0.9455	25.67	0.73	0.750			
0.3167	20266.23	3.8800	3.8800	0.9529	25.67	0.73	0.750			
0.3195	20448.14	3.8770	3.8768	0.9559	25.67	0.73	0.750			
0.3224	20632.04	3.8740	3.8741	0.9519	25.66	0.72	0.750			
0.3253	20816.30	3.8710	3.8711	0.9617	25.66	0.72	0.750			
0.3281	21001.43	3.8680	3.8681	0.9704	25.65	0.71	0.750			
0.3310	21186.27	3.8650	3.8642	0.9659	25.65	0.71	0.750			
0.3339	21372.22	3.8620	3.8622	0.9691	25.64	0.70	0.750			
0.3369	21561.20	3.8590	3.8591	0.9760	25.63	0.69	0.750			
0.3399	21750.97	3.8560	3.8560	0.9831	25.62	0.68	0.750			
0.3428	21937.61	3.8530	3.8529	0.9745	25.61	0.67	0.750			
0.3458	22129.91	3.8500	3.8500	0.9636	25.61	0.67	0.750			
0.3486	22312.58	3.8470	3.8470	0.9659	25.60	0.66	0.750			
0.3515	22497.44	3.8440	3.8441	0.9718	25.60	0.66	0.750			
0.3544	22683.12	3.8410	3.8411	0.9666	25.59	0.65	0.750			
0.3573	22865.94	3.8380	3.8382	0.9734	25.59	0.65	0.750			
0.3602	23050.62	3.8350	3.8352	0.9899	25.58	0.64	0.750			
0.3632	23241.98	3.8320	3.8322	1.0055	25.57	0.63	0.750	0.283	0.384	
0.3662	23439.91	3.8290	3.8293	1.0224	25.56	0.62	0.750			
0.3694	23639.39	3.8260	3.8262	1.0228	25.55	0.61	0.750			
0.3725	23838.86	3.8230	3.8232	1.0281	25.54	0.60	0.750			
0.3755	24034.34	3.8200	3.8200	1.0208	25.53	0.59	0.750			
0.3786	24231.24	3.8170	3.8170	1.0285	25.52	0.58	0.750			
0.3817	24428.45	3.8140	3.8140	1.0247	25.51	0.57	0.750			
0.3848	24626.16	3.8110	3.8110	1.0241	25.50	0.56	0.750			
0.3879	24823.46	3.8080	3.8080	1.0316	25.49	0.55	0.750			
0.3909	25020.43	3.8050	3.8051	1.0413	25.48	0.54	0.750			
0.3941	25219.41	3.8020	3.8018	1.0498	25.47	0.53	0.750			
0.3972	25419.20	3.7990	3.7991	1.0475	25.46	0.52	0.750			
0.4003	25620.83	3.7960	3.7961	1.0693	25.44	0.50	0.750			
0.4035	25827.04	3.7930	3.7932	1.0976	25.43	0.49	0.750			
0.4068	26038.26	3.7900	3.7898	1.1067	25.42	0.48	0.750			
0.4102	26253.24	3.7870	3.7872	1.1302	25.41	0.47	0.750			
0.4137	26474.01	3.7840	3.7841	1.1518	25.40	0.46	0.750			
0.4172	26700.96	3.7810	3.7810	1.1748	25.38	0.44	0.750			
0.4208	26932.09	3.7780	3.7779	1.1890	25.37	0.43	0.750			
0.4242	27149.42	3.7750	3.7750	1.1895	25.36	0.42	0.750			
0.4278	27377.85	3.7720	3.7721	1.2206	25.35	0.41	0.750			
0.4316	27620.17	3.7690	3.7689	1.2210	25.34	0.40	0.750			
0.4352	27852.11	3.7660	3.7661	1.2565	25.32	0.38	0.750			
0.4390	28095.19	3.7630	3.7632	1.2874	25.30	0.36	0.750			
0.4429	28345.46	3.7600	3.7597	1.3195	25.28	0.34	0.750			
0.4469	28603.67	3.7570	3.7571	1.3596	25.27	0.33	0.750			
0.4509	28860.67	3.7540	3.7541	1.3845	25.26	0.32	0.750			
0.4553	29139.23	3.7510	3.7509	1.3887	25.25	0.31	0.750			
0.4595	29410.34	3.7480	3.7481	1.4129	25.23	0.29	0.750			
0.4638	29683.05	3.7450	3.7451	1.4374	25.21	0.27	0.750			
0.4681	29956.72	3.7420	3.7418	1.4731	25.19	0.25	0.750			
0.4724	30236.15	3.7390	3.7389	1.5113	25.18	0.24	0.750			
0.4771	30531.46	3.7360	3.7360	1.5823	25.17	0.23	0.750			
0.4820	30848.25	3.7330	3.7325	1.6172	25.16	0.22	0.750			
0.4870	31164.97	3.7300	3.7297	1.6736	25.14	0.20	0.750			
0.4919	31483.35	3.7270	3.7274	1.7813	25.13	0.19	0.750			
0.4974	31831.65	3.7240	3.7239	1.8671	25.11	0.17	0.750			
0.5030	32192.99	3.7210	3.7211	1.9518	25.09	0.15	0.750			
0.5091	32581.49	3.7180	3.7183	1.9869	25.07	0.13	0.750			
0.5155	32993.24	3.7150	3.7151	2.0752	25.04	0.10	0.750			
0.5217	33388.30	3.7120	3.7122	2.0567	25.02	0.08	0.750			
0.5278	33780.92	3.7090	3.7088	2.0457	24.99	0.05	0.750			
0.5340	34177.45	3.7060	3.7062	2.1101	24.97	0.03	0.750			
0.5404	34586.73	3.7030	3.7034	2.1557	24.96	0.02	0.750			
0.5471	35015.22	3.7000	3.6997	2.2144	24.94	0.00	0.750			
0.5537	35439.91	3.6970	3.6970	2.2735	24.93	-0.01	0.750			
0.5607	35885.99	3.6940	3.6941	2.3590	24.91	-0.03	0.750			
0.5680	36348.83	3.6910	3.6912	2.4017	24.88	-0.06	0.750			
0.5754	36824.70	3.6880	3.6879	2.4484	24.87	-0.07	0.750			
0.5827	37292.59	3.6850	3.6850	2.5502	24.86	-0.08	0.750			
0.5906	37796.21	3.6820	3.6823	2.6840	24.84	-0.10	0.750			
0.5988	38324.94	3.6790	3.6791	2.7359	24.83	-0.11	0.750			
0.6070	38848.68	3.6760	3.6763	2.7614	24.82	-0.12	0.750			
0.6154	39385.90	3.6730	3.6733	2.7694	24.81	-0.13	0.750			
0.6237	39919.52	3.6700	3.6701	2.7569	24.80	-0.14	0.750			
0.6324	40473.66	3.6670	3.6669	2.7212	24.80	-0.14	0.750			
0.6405	40988.96	3.6640	3.6639	2.5592	24.80	-0.14	0.750			
0.6479	41466.09	3.6610	3.6609	2.3541	24.80	-0.14	0.750			
0.6545	41890.79	3.6580	3.6582	2.1152	24.80	-0.14	0.750			
0.6603	42262.39	3.6550	3.6552	1.8921	24.81	-0.13	0.750			
0.6658	42609.36	3.6520	3.6521	1.7332	24.82	-0.12	0.750			
0.6706	42916.02	3.6490	3.6491	1.5709	24.83	-0.11	0.750			
0.6751	43207.46	3.6460	3.6461	1.4550	24.84	-0.10	0.750			
0.6792	43471.46	3.6430	3.6430	1.3381	24.85	-0.09	0.750			
0.6831	43719.28	3.6400	3.6400	1.2162	24.85	-0.09	0.750			
0.6865	43936.01	3.6370	3.6370	1.1260	24.86	-0.08	0.750			
0.6897	44137.86	3.6340	3.6341	1.0645	24.86	-0.08	0.750			
0.6927	44331.80	3.6310	3.6309	1.0114	24.87	-0.07	0.750			
0.6956	44521.14	3.6280	3.6280	0.9676	24.88	-0.06	0.750			
0.6985	44701.18	3.6250	3.6251	0.9435	24.88	-0.06	0.750			
0.7013	44880.36	3.6220	3.6221	0.9235	24.89	-0.05	0.750			
0.7040	45059.13	3.6190	3.6190	0.9055	24.90	-0.04	0.750			
0.7067	45227.96	3.6160	3.6158	0.8634	24.90	-0.04	0.750			
0.7093	45394.57	3.6130	3.6130	0.8185	24.91	-0.03	0.750			
0.7118	45553.19	3.6100	3.6101	0.7686	24.92	-0.02	0.750			
0.7140	45696.96	3.6070	3.6071	0.7042	24.93	-0.01	0.750			
0.7160	45824.06	3.6040	3.6040	0.6325	24.93	-0.01	0.750			
0.7178	45939.71	3.6010	3.6009	0.5589	24.94	-0.00	0.750			
0.7194	46040.13	3.5980	3.5979	0.4842	24.94	0.00	0.750			
0.7207	46124.10	3.5950	3.5952	0.4330	24.95	0.01	0.750			
0.7219	46199.79	3.5920	3.5924	0.3810	24.95	0.01	0.750			
0.7229	46267.63	3.5890	3.5864	0.3297	24.95	0.01	0.750			
0.7238	46324.59	3.5860	3.5865	0.2779	24.96	0.02	0.750			
0.7246	46373.78	3.5830	3.5835	0.2352	24.96	0.02	0.750			
0.7252	46415.91	3.5800	3.5805	0.1916	24.96	0.02	0.750			
0.7259	46456.44	3.5770	3.5766	0.1029	24.96	0.02	0.750			
0.7261	46468.93	3.5740	3.5746	0.0755	24.96	0.02	0.750			
