Ah_balance (normalized)	Ah_balance (mAh)	Voltage - fit (V)	Voltage -  interpolate (V)	dQ/dV (1/V)	Temperature (°C)	Temperature - diff (°C)	Current (C)	R_DC 0ms (mOhm)	R_DC 50ms (mOhm)	R_DC 50 ms PEC (mOhm)
0.0004	23.78	4.1590	4.1586	-0.1161	25.30	0.02	-0.750			
0.0008	51.14	4.1560	4.1558	-0.1615	25.30	0.02	-0.750			
0.0013	85.86	4.1530	4.1530	-0.2044	25.30	0.02	-0.750			
0.0020	130.57	4.1500	4.1503	-0.2437	25.30	0.02	-0.750			
0.0028	181.37	4.1470	4.1470	-0.2819	25.30	0.02	-0.750			
0.0038	240.26	4.1440	4.1439	-0.3210	25.29	0.01	-0.750			
0.0048	304.55	4.1410	4.1412	-0.3601	25.29	0.01	-0.750			
0.0059	377.68	4.1380	4.1379	-0.3925	25.29	0.01	-0.750			
0.0071	456.54	4.1350	4.1349	-0.4290	25.29	0.01	-0.750			
0.0085	543.54	4.1320	4.1320	-0.4570	25.28	0.00	-0.750			
0.0099	635.03	4.1290	4.1289	-0.4873	25.28	-0.00	-0.750			
0.0114	732.26	4.1260	4.1261	-0.5149	25.28	-0.00	-0.750			
0.0130	833.58	4.1230	4.1229	-0.5377	25.27	-0.01	-0.750			
0.0146	935.99	4.1200	4.1200	-0.5601	25.27	-0.01	-0.750			
0.0164	1048.23	4.1170	4.1171	-0.5804	25.26	-0.02	-0.750			
0.0182	1161.86	4.1140	4.1140	-0.5928	25.26	-0.02	-0.750			
0.0200	1278.96	4.1110	4.1104	-0.6056	25.25	-0.03	-0.750			
0.0218	1395.46	4.1080	4.1086	-0.6172	25.25	-0.03	-0.750			
0.0237	1514.86	4.1050	4.1049	-0.6300	25.25	-0.03	-0.750			
0.0256	1638.04	4.1020	4.1020	-0.6427	25.24	-0.04	-0.750			
0.0276	1763.21	4.0990	4.0989	-0.6582	25.24	-0.04	-0.750			
0.0296	1891.65	4.0960	4.0960	-0.6668	25.24	-0.04	-0.750			
0.0316	2021.94	4.0930	4.0930	-0.6704	25.23	-0.05	-0.750			
0.0336	2151.46	4.0900	4.0900	-0.6763	25.23	-0.05	-0.750			
0.0356	2279.26	4.0870	4.0869	-0.6790	25.23	-0.05	-0.750			
0.0376	2407.41	4.0840	4.0839	-0.6830	25.23	-0.05	-0.750			
0.0397	2539.17	4.0810	4.0810	-0.6931	25.23	-0.05	-0.750			
0.0418	2672.55	4.0780	4.0779	-0.6971	25.22	-0.06	-0.750			
0.0439	2812.79	4.0750	4.0751	-0.7111	25.22	-0.06	-0.750			
0.0461	2949.08	4.0720	4.0719	-0.7136	25.22	-0.06	-0.750			
0.0482	3086.55	4.0690	4.0689	-0.7119	25.22	-0.06	-0.750			
0.0504	3222.87	4.0660	4.0658	-0.7138	25.22	-0.06	-0.750			
0.0525	3358.29	4.0630	4.0631	-0.7252	25.22	-0.06	-0.750			
0.0547	3500.83	4.0600	4.0600	-0.7270	25.22	-0.06	-0.750			
0.0569	3644.63	4.0570	4.0567	-0.7344	25.22	-0.06	-0.750			
0.0591	3784.97	4.0540	4.0547	-0.7328	25.22	-0.06	-0.750			
0.0613	3924.65	4.0510	4.0509	-0.7314	25.22	-0.06	-0.750			
0.0635	4063.78	4.0480	4.0479	-0.7357	25.22	-0.06	-0.750			
0.0657	4201.73	4.0450	4.0450	-0.7282	25.22	-0.06	-0.750			
0.0679	4347.21	4.0420	4.0419	-0.7402	25.22	-0.06	-0.750			
0.0701	4488.95	4.0390	4.0389	-0.7327	25.22	-0.06	-0.750			
0.0723	4628.74	4.0360	4.0362	-0.7354	25.22	-0.06	-0.750			
0.0745	4769.28	4.0330	4.0331	-0.7359	25.22	-0.06	-0.750			
0.0767	4908.94	4.0300	4.0299	-0.7438	25.23	-0.05	-0.750			
0.0790	5053.02	4.0270	4.0270	-0.7510	25.23	-0.05	-0.750			
0.0812	5199.96	4.0240	4.0239	-0.7554	25.23	-0.05	-0.750			
0.0835	5344.82	4.0210	4.0209	-0.7574	25.24	-0.04	-0.750			
0.0858	5492.21	4.0180	4.0179	-0.7627	25.24	-0.04	-0.750			
0.0880	5634.08	4.0150	4.0148	-0.7774	25.24	-0.04	-0.750			
0.0904	5785.00	4.0120	4.0120	-0.7652	25.24	-0.04	-0.750			
0.0927	5931.42	4.0090	4.0090	-0.7598	25.24	-0.04	-0.750			
0.0950	6082.54	4.0060	4.0058	-0.7663	25.24	-0.04	-0.750			
0.0973	6229.76	4.0030	4.0029	-0.7601	25.24	-0.04	-0.750			
0.0996	6371.53	4.0000	4.0000	-0.7556	25.24	-0.04	-0.750			
0.1018	6515.26	3.9970	3.9969	-0.7573	25.24	-0.04	-0.750			
0.1041	6660.52	3.9940	3.9940	-0.7728	25.25	-0.03	-0.750			
0.1064	6808.32	3.9910	3.9910	-0.7783	25.25	-0.03	-0.750			
0.1087	6958.63	3.9880	3.9880	-0.7791	25.25	-0.03	-0.750			
0.1111	7109.49	3.9850	3.9848	-0.7792	25.25	-0.03	-0.750			
0.1134	7259.13	3.9820	3.9820	-0.7826	25.25	-0.03	-0.750			
0.1158	7410.47	3.9790	3.9791	-0.7744	25.26	-0.02	-0.750			
0.1181	7558.91	3.9760	3.9760	-0.7695	25.26	-0.02	-0.750			
0.1204	7704.38	3.9730	3.9729	-0.7729	25.26	-0.02	-0.750			
0.1227	7851.85	3.9700	3.9703	-0.7773	25.26	-0.02	-0.750			
0.1250	8000.11	3.9670	3.9668	-0.7899	25.26	-0.02	-0.750			
0.1274	8154.26	3.9640	3.9640	-0.7916	25.26	-0.02	-0.750			
0.1298	8308.18	3.9610	3.9610	-0.7964	25.27	-0.01	-0.750			
0.1323	8464.30	3.9580	3.9579	-0.7986	25.27	-0.01	-0.750			
0.1347	8618.29	3.9550	3.9556	-0.7955	25.27	-0.01	-0.750			
0.1370	8769.30	3.9520	3.9519	-0.7875	25.27	-0.01	-0.750			
0.1393	8918.16	3.9490	3.9490	-0.7923	25.27	-0.01	-0.750			
0.1417	9069.74	3.9460	3.9460	-0.7960	25.27	-0.01	-0.750			
0.1441	9223.88	3.9430	3.9429	-0.8030	25.27	-0.01	-0.750			
0.1465	9379.14	3.9400	3.9399	-0.8048	25.27	-0.01	-0.750			
0.1490	9534.01	3.9370	3.9371	-0.8085	25.27	-0.01	-0.750			
0.1514	9688.46	3.9340	3.9339	-0.8259	25.27	-0.01	-0.750			
0.1539	9851.70	3.9310	3.9309	-0.8207	25.28	-0.00	-0.750			
0.1564	10008.05	3.9280	3.9277	-0.8131	25.28	-0.00	-0.750			
0.1589	10168.13	3.9250	3.9254	-0.8168	25.28	-0.00	-0.750			
0.1613	10324.17	3.9220	3.9219	-0.8121	25.28	0.00	-0.750			
0.1637	10477.68	3.9190	3.9189	-0.8153	25.28	0.00	-0.750			
0.1661	10633.02	3.9160	3.9159	-0.8072	25.28	0.00	-0.750			
0.1686	10788.10	3.9130	3.9129	-0.8064	25.28	0.00	-0.750			
0.1710	10944.61	3.9100	3.9100	-0.8052	25.28	0.00	-0.750			
0.1734	11096.93	3.9070	3.9070	-0.7976	25.28	0.00	-0.750			
0.1757	11246.92	3.9040	3.9038	-0.7994	25.28	0.00	-0.750			
0.1781	11399.82	3.9010	3.9010	-0.7950	25.28	0.00	-0.750			
0.1804	11548.74	3.8980	3.8979	-0.7938	25.29	0.01	-0.750			
0.1830	11709.24	3.8950	3.8949	-0.7926	25.29	0.01	-0.750			
0.1853	11859.34	3.8920	3.8921	-0.7892	25.29	0.01	-0.750			
0.1876	12006.72	3.8890	3.8891	-0.7931	25.29	0.01	-0.750			
0.1900	12159.77	3.8860	3.8858	-0.7906	25.29	0.01	-0.750			
0.1923	12308.44	3.8830	3.8828	-0.7848	25.30	0.02	-0.750			
0.1947	12461.80	3.8800	3.8801	-0.7954	25.30	0.02	-0.750			
0.1971	12616.72	3.8770	3.8775	-0.7931	25.30	0.02	-0.750			
0.1996	12771.47	3.8740	3.8739	-0.7911	25.30	0.02	-0.750			
0.2019	12919.52	3.8710	3.8710	-0.7845	25.31	0.03	-0.750			
0.2042	13071.35	3.8680	3.8680	-0.7790	25.31	0.03	-0.750			
0.2066	13222.07	3.8650	3.8649	-0.7810	25.32	0.04	-0.750			
0.2089	13370.10	3.8620	3.8619	-0.7746	25.32	0.04	-0.750			
0.2112	13517.10	3.8590	3.8589	-0.7717	25.32	0.04	-0.750			
0.2135	13663.72	3.8560	3.8560	-0.7861	25.32	0.04	-0.750			
0.2159	13815.92	3.8530	3.8530	-0.7714	25.32	0.04	-0.750			
0.2182	13965.42	3.8500	3.8500	-0.7749	25.32	0.04	-0.750			
0.2205	14114.02	3.8470	3.8469	-0.7695	25.32	0.04	-0.750			
0.2228	14261.24	3.8440	3.8438	-0.7585	25.32	0.04	-0.750			
0.2251	14404.51	3.8410	3.8409	-0.7560	25.33	0.05	-0.750			
0.2273	14547.53	3.8380	3.8380	-0.7622	25.33	0.05	-0.750			
0.2296	14696.26	3.8350	3.8349	-0.7649	25.33	0.05	-0.750			
0.2319	14842.75	3.8320	3.8319	-0.7627	25.34	0.06	-0.750			
0.2342	14988.46	3.8290	3.8293	-0.7577	25.34	0.06	-0.750			
0.2365	15134.80	3.8260	3.8260	-0.7536	25.34	0.06	-0.750			
0.2387	15277.82	3.8230	3.8228	-0.7600	25.34	0.06	-0.750			
0.2410	15423.55	3.8200	3.8200	-0.7466	25.35	0.07	-0.750			
0.2432	15567.32	3.8170	3.8169	-0.7440	25.35	0.07	-0.750			
0.2455	15710.01	3.8140	3.8140	-0.7423	25.35	0.07	-0.750			
0.2477	15851.02	3.8110	3.8111	-0.7401	25.35	0.07	-0.750			
0.2498	15990.23	3.8080	3.8078	-0.7412	25.35	0.07	-0.750			
0.2521	16131.61	3.8050	3.8049	-0.7538	25.35	0.07	-0.750			
0.2543	16273.83	3.8020	3.8021	-0.7572	25.36	0.08	-0.750			
0.2567	16426.99	3.7990	3.7989	-0.7613	25.36	0.08	-0.750			
0.2590	16575.21	3.7960	3.7962	-0.7662	25.36	0.08	-0.750			
0.2613	16722.30	3.7930	3.7930	-0.7603	25.36	0.08	-0.750			
0.2635	16862.82	3.7900	3.7900	-0.7721	25.36	0.08	-0.750			
0.2658	17012.87	3.7870	3.7869	-0.7651	25.37	0.09	-0.750			
0.2681	17157.28	3.7840	3.7838	-0.7647	25.37	0.09	-0.750			
0.2704	17308.23	3.7810	3.7809	-0.7742	25.37	0.09	-0.750			
0.2728	17457.77	3.7780	3.7777	-0.7792	25.37	0.09	-0.750			
0.2751	17603.43	3.7750	3.7750	-0.7893	25.37	0.09	-0.750			
0.2775	17758.36	3.7720	3.7719	-0.7940	25.37	0.09	-0.750			
0.2799	17910.49	3.7690	3.7689	-0.8044	25.37	0.09	-0.750			
0.2823	18065.74	3.7660	3.7658	-0.8124	25.37	0.09	-0.750			
0.2847	18221.67	3.7630	3.7636	-0.8152	25.37	0.09	-0.750			
0.2871	18377.34	3.7600	3.7599	-0.8221	25.37	0.09	-0.750			
0.2896	18535.30	3.7570	3.7569	-0.8239	25.37	0.09	-0.750			
0.2921	18693.45	3.7540	3.7541	-0.8280	25.37	0.09	-0.750			
0.2946	18854.89	3.7510	3.7508	-0.8387	25.37	0.09	-0.750			
0.2971	19016.80	3.7480	3.7482	-0.8387	25.37	0.09	-0.750			
0.2996	19173.15	3.7450	3.7450	-0.8595	25.37	0.09	-0.750			
0.3022	19343.09	3.7420	3.7420	-0.8548	25.37	0.09	-0.750			
0.3048	19507.73	3.7390	3.7389	-0.8575	25.37	0.09	-0.750			
0.3074	19671.40	3.7360	3.7358	-0.8728	25.37	0.09	-0.750			
0.3100	19838.79	3.7330	3.7333	-0.8822	25.37	0.09	-0.750			
0.3126	20009.18	3.7300	3.7297	-0.8998	25.36	0.08	-0.750			
0.3154	20184.48	3.7270	3.7269	-0.9092	25.36	0.08	-0.750			
0.3182	20361.99	3.7240	3.7239	-0.9207	25.36	0.08	-0.750			
0.3210	20540.98	3.7210	3.7207	-0.9161	25.35	0.07	-0.750			
0.3237	20714.57	3.7180	3.7179	-0.9196	25.35	0.07	-0.750			
0.3264	20887.27	3.7150	3.7149	-0.9246	25.35	0.07	-0.750			
0.3291	21060.18	3.7120	3.7120	-0.9345	25.35	0.07	-0.750			
0.3320	21245.12	3.7090	3.7089	-0.9779	25.35	0.07	-0.750			
0.3349	21431.52	3.7060	3.7062	-1.0012	25.35	0.07	-0.750			
0.3380	21630.94	3.7030	3.7029	-1.0054	25.34	0.06	-0.750			
0.3411	21829.25	3.7000	3.6997	-1.0121	25.33	0.05	-0.750			
0.3441	22022.50	3.6970	3.6969	-1.0095	25.33	0.05	-0.750	0.388	0.550	
0.3471	22211.32	3.6940	3.6947	-1.0316	25.32	0.04	-0.750			
0.3502	22412.09	3.6910	3.6907	-1.0310	25.32	0.04	-0.750			
0.3533	22612.18	3.6880	3.6879	-1.0522	25.31	0.03	-0.750			
0.3564	22810.50	3.6850	3.6850	-1.0652	25.31	0.03	-0.750			
0.3596	23015.48	3.6820	3.6827	-1.1080	25.31	0.03	-0.750			
0.3630	23234.25	3.6790	3.6787	-1.1041	25.30	0.02	-0.750			
0.3664	23447.35	3.6760	3.6760	-1.1087	25.30	0.02	-0.750			
0.3696	23657.36	3.6730	3.6730	-1.1199	25.29	0.01	-0.750			
0.3731	23880.03	3.6700	3.6700	-1.1696	25.29	0.01	-0.750			
0.3766	24103.63	3.6670	3.6667	-1.1722	25.28	0.00	-0.750			
0.3801	24328.94	3.6640	3.6639	-1.1890	25.28	-0.00	-0.750			
0.3838	24562.60	3.6610	3.6614	-1.2433	25.27	-0.01	-0.750			
0.3876	24806.20	3.6580	3.6578	-1.2538	25.26	-0.02	-0.750			
0.3914	25052.02	3.6550	3.6547	-1.2530	25.26	-0.02	-0.750			
0.3952	25289.75	3.6520	3.6518	-1.2531	25.25	-0.03	-0.750			
0.3990	25533.63	3.6490	3.6489	-1.2906	25.25	-0.03	-0.750			
0.4028	25781.57	3.6460	3.6457	-1.3008	25.24	-0.04	-0.750			
0.4066	26019.39	3.6430	3.6429	-1.3357	25.23	-0.05	-0.750			
0.4108	26289.36	3.6400	3.6401	-1.3838	25.22	-0.06	-0.750			
0.4150	26558.16	3.6370	3.6368	-1.4223	25.21	-0.07	-0.750			
0.4194	26839.45	3.6340	3.6337	-1.4443	25.20	-0.08	-0.750			
0.4237	27119.75	3.6310	3.6307	-1.4393	25.20	-0.08	-0.750			
0.4282	27402.73	3.6280	3.6277	-1.4749	25.20	-0.08	-0.750			
0.4326	27687.16	3.6250	3.6246	-1.4942	25.20	-0.08	-0.750			
0.4371	27971.46	3.6220	3.6216	-1.4909	25.20	-0.08	-0.750			
0.4415	28254.56	3.6190	3.6194	-1.5407	25.19	-0.09	-0.750			
0.4462	28556.18	3.6160	3.6164	-1.5678	25.18	-0.10	-0.750			
0.4511	28870.66	3.6130	3.6132	-1.6156	25.18	-0.10	-0.750			
0.4560	29182.20	3.6100	3.6101	-1.6301	25.18	-0.10	-0.750			
0.4609	29497.28	3.6070	3.6065	-1.6557	25.18	-0.10	-0.750			
0.4660	29824.34	3.6040	3.6035	-1.6941	25.17	-0.11	-0.750			
0.4711	30149.10	3.6010	3.6009	-1.7041	25.17	-0.11	-0.750			
0.4763	30481.07	3.5980	3.5986	-1.7455	25.17	-0.11	-0.750			
0.4815	30813.97	3.5950	3.5953	-1.7854	25.17	-0.11	-0.750			
0.4869	31160.68	3.5920	3.5923	-1.8285	25.17	-0.11	-0.750			
0.4927	31530.54	3.5890	3.5896	-1.8555	25.16	-0.12	-0.750			
0.4983	31890.34	3.5860	3.5856	-1.8850	25.15	-0.13	-0.750			
0.5041	32265.05	3.5830	3.5827	-1.9138	25.15	-0.13	-0.750			
0.5099	32636.38	3.5800	3.5798	-1.9223	25.15	-0.13	-0.750			
0.5157	33002.67	3.5770	3.5775	-1.9332	25.15	-0.13	-0.750			
0.5216	33382.09	3.5740	3.5745	-1.9374	25.15	-0.13	-0.750			
0.5275	33757.67	3.5710	3.5713	-1.9638	25.15	-0.13	-0.750			
0.5335	34144.68	3.5680	3.5683	-1.9643	25.15	-0.13	-0.750			
0.5396	34531.57	3.5650	3.5650	-1.9989	25.15	-0.13	-0.750			
0.5456	34919.04	3.5620	3.5619	-1.9976	25.16	-0.12	-0.750			
0.5516	35300.87	3.5590	3.5591	-1.9955	25.16	-0.12	-0.750			
0.5575	35680.84	3.5560	3.5563	-1.9849	25.16	-0.12	-0.750			
0.5634	36057.15	3.5530	3.5529	-2.0148	25.16	-0.12	-0.750			
0.5696	36454.11	3.5500	3.5498	-1.9881	25.17	-0.11	-0.750			
0.5756	36835.87	3.5470	3.5469	-1.9617	25.17	-0.11	-0.750			
0.5815	37216.75	3.5440	3.5440	-1.9419	25.18	-0.10	-0.750			
0.5873	37587.90	3.5410	3.5409	-1.9017	25.18	-0.10	-0.750			
0.5930	37950.53	3.5380	3.5378	-1.8592	25.19	-0.09	-0.750			
0.5985	38302.71	3.5350	3.5351	-1.8163	25.20	-0.08	-0.750			
0.6039	38646.74	3.5320	3.5319	-1.8196	25.21	-0.07	-0.750			
0.6094	39004.31	3.5290	3.5295	-1.8050	25.22	-0.06	-0.750			
0.6149	39352.32	3.5260	3.5260	-1.7907	25.23	-0.05	-0.750			
0.6203	39697.52	3.5230	3.5235	-1.7377	25.25	-0.03	-0.750			
0.6255	40035.01	3.5200	3.5201	-1.6984	25.26	-0.02	-0.750			
0.6306	40358.67	3.5170	3.5170	-1.6795	25.28	-0.00	-0.750			
0.6355	40671.02	3.5140	3.5140	-1.6198	25.29	0.01	-0.750			
0.6402	40974.72	3.5110	3.5113	-1.5847	25.30	0.02	-0.750			
0.6451	41283.76	3.5080	3.5085	-1.5681	25.32	0.04	-0.750			
0.6498	41589.52	3.5050	3.5047	-1.5149	25.33	0.05	-0.750			
0.6544	41882.41	3.5020	3.5022	-1.4651	25.35	0.07	-0.750			
0.6587	42155.49	3.4990	3.4994	-1.4205	25.37	0.09	-0.750			
0.6628	42418.32	3.4960	3.4959	-1.3664	25.38	0.10	-0.750			
0.6668	42675.67	3.4930	3.4928	-1.3155	25.39	0.11	-0.750			
0.6706	42917.10	3.4900	3.4899	-1.2749	25.40	0.12	-0.750			
0.6745	43165.60	3.4870	3.4870	-1.2819	25.41	0.13	-0.750			
0.6783	43410.59	3.4840	3.4839	-1.2507	25.44	0.16	-0.750			
0.6820	43648.27	3.4810	3.4807	-1.2164	25.46	0.18	-0.750			
0.6856	43878.28	3.4780	3.4786	-1.2025	25.47	0.19	-0.750	0.397	0.594	
0.6892	44111.33	3.4750	3.4748	-1.1800	25.49	0.21	-0.750			
0.6927	44334.72	3.4720	3.4718	-1.1556	25.50	0.22	-0.750			
0.6960	44546.39	3.4690	3.4689	-1.1351	25.51	0.23	-0.750			
0.6995	44766.10	3.4660	3.4657	-1.1411	25.52	0.24	-0.750			
0.7029	44983.68	3.4630	3.4629	-1.1394	25.53	0.25	-0.750			
0.7062	45197.74	3.4600	3.4600	-1.1401	25.54	0.26	-0.750			
0.7097	45420.21	3.4570	3.4575	-1.1770	25.55	0.27	-0.750			
0.7133	45649.79	3.4540	3.4538	-1.1870	25.57	0.29	-0.750			
0.7169	45879.98	3.4510	3.4508	-1.1830	25.58	0.30	-0.750			
0.7203	46100.27	3.4480	3.4480	-1.2202	25.59	0.31	-0.750			
0.7241	46342.37	3.4450	3.4448	-1.2157	25.61	0.33	-0.750			
0.7278	46578.83	3.4420	3.4417	-1.2136	25.62	0.34	-0.750			
0.7314	46809.21	3.4390	3.4387	-1.2104	25.63	0.35	-0.750			
0.7350	47038.20	3.4360	3.4366	-1.2159	25.64	0.36	-0.750			
0.7388	47282.07	3.4330	3.4327	-1.2261	25.65	0.37	-0.750			
0.7424	47516.03	3.4300	3.4297	-1.2219	25.67	0.39	-0.750			
0.7460	47743.09	3.4270	3.4274	-1.2515	25.68	0.40	-0.750			
0.7498	47988.56	3.4240	3.4238	-1.2240	25.69	0.41	-0.750			
0.7535	48226.17	3.4210	3.4209	-1.2059	25.70	0.42	-0.750			
0.7571	48454.64	3.4180	3.4178	-1.1780	25.70	0.42	-0.750			
0.7605	48674.61	3.4150	3.4151	-1.1534	25.71	0.43	-0.750			
0.7641	48903.18	3.4120	3.4118	-1.1337	25.73	0.45	-0.750			
0.7674	49116.16	3.4090	3.4089	-1.0929	25.74	0.46	-0.750			
0.7707	49326.40	3.4060	3.4057	-1.0574	25.75	0.47	-0.750			
0.7738	49523.69	3.4030	3.4029	-1.0079	25.76	0.48	-0.750			
0.7768	49712.04	3.4000	3.4001	-0.9563	25.77	0.49	-0.750			
0.7795	49889.64	3.3970	3.3968	-0.9054	25.77	0.49	-0.750			
0.7821	50055.04	3.3940	3.3940	-0.8512	25.78	0.50	-0.750			
0.7846	50217.45	3.3910	3.3911	-0.8051	25.79	0.51	-0.750			
0.7870	50366.47	3.3880	3.3881	-0.7547	25.80	0.52	-0.750			
0.7892	50507.42	3.3850	3.3850	-0.7140	25.81	0.53	-0.750			
0.7912	50636.37	3.3820	3.3820	-0.6673	25.81	0.53	-0.750			
0.7931	50759.04	3.3790	3.3790	-0.6230	25.82	0.54	-0.750			
0.7949	50875.07	3.3760	3.3757	-0.5869	25.82	0.54	-0.750			
0.7966	50984.38	3.3730	3.3731	-0.5535	25.83	0.55	-0.750			
0.7982	51087.87	3.3700	3.3700	-0.5206	25.83	0.55	-0.750			
0.7997	51182.34	3.3670	3.3670	-0.4942	25.84	0.56	-0.750			
0.8012	51274.02	3.3640	3.3640	-0.4681	25.84	0.56	-0.750			
0.8025	51359.29	3.3610	3.3609	-0.4420	25.85	0.57	-0.750			
0.8038	51443.07	3.3580	3.3580	-0.4260	25.85	0.57	-0.750			
0.8050	51521.23	3.3550	3.3552	-0.4131	25.86	0.58	-0.750			
0.8062	51599.99	3.3520	3.3519	-0.3954	25.86	0.58	-0.750			
0.8074	51674.67	3.3490	3.3488	-0.3792	25.86	0.58	-0.750			
0.8085	51745.04	3.3460	3.3459	-0.3605	25.87	0.59	-0.750			
0.8096	51813.61	3.3430	3.3433	-0.3513	25.87	0.59	-0.750			
0.8106	51879.32	3.3400	3.3399	-0.3397	25.88	0.60	-0.750			
0.8116	51942.96	3.3370	3.3368	-0.3250	25.88	0.60	-0.750			
0.8125	52002.04	3.3340	3.3340	-0.3111	25.89	0.61	-0.750			
0.8135	52062.54	3.3310	3.3312	-0.3062	25.89	0.61	-0.750			
0.8144	52120.31	3.3280	3.3279	-0.2974	25.89	0.61	-0.750			
0.8153	52176.24	3.3250	3.3249	-0.2892	25.90	0.62	-0.750			
0.8161	52229.41	3.3220	3.3220	-0.2785	25.90	0.62	-0.750			
0.8169	52282.58	3.3190	3.3190	-0.2728	25.91	0.63	-0.750			
0.8177	52335.54	3.3160	3.3161	-0.2677	25.91	0.63	-0.750			
0.8185	52385.57	3.3130	3.3131	-0.2597	25.91	0.63	-0.750			
0.8193	52434.05	3.3100	3.3099	-0.2551	25.92	0.64	-0.750			
0.8200	52483.08	3.3070	3.3070	-0.2499	25.92	0.64	-0.750			
0.8208	52530.70	3.3040	3.3039	-0.2433	25.92	0.64	-0.750			
0.8215	52577.10	3.3010	3.3008	-0.2377	25.93	0.65	-0.750			
0.8222	52622.05	3.2980	3.2981	-0.2339	25.93	0.65	-0.750			
0.8229	52666.40	3.2950	3.2950	-0.2288	25.94	0.66	-0.750			
0.8236	52709.41	3.2920	3.2919	-0.2252	25.94	0.66	-0.750			
0.8242	52751.68	3.2890	3.2889	-0.2211	25.95	0.67	-0.750			
0.8249	52793.16	3.2860	3.2861	-0.2169	25.95	0.67	-0.750			
0.8256	52835.54	3.2830	3.2829	-0.2143	25.95	0.67	-0.750			
0.8262	52876.68	3.2800	3.2800	-0.2112	25.96	0.68	-0.750			
0.8268	52916.78	3.2770	3.2770	-0.2065	25.96	0.68	-0.750			
0.8274	52955.49	3.2740	3.2741	-0.2032	25.97	0.69	-0.750			
0.8280	52994.29	3.2710	3.2709	-0.2004	25.97	0.69	-0.750			
0.8286	53032.20	3.2680	3.2679	-0.1958	25.97	0.69	-0.750			
0.8292	53069.52	3.2650	3.2650	-0.1930	25.98	0.70	-0.750			
0.8298	53106.45	3.2620	3.2621	-0.1902	25.98	0.70	-0.750			
0.8304	53142.71	3.2590	3.2590	-0.1879	25.98	0.70	-0.750			
0.8309	53178.39	3.2560	3.2561	-0.1847	25.99	0.71	-0.750			
0.8315	53213.59	3.2530	3.2528	-0.1819	25.99	0.71	-0.750			
0.8320	53247.68	3.2500	3.2500	-0.1801	25.99	0.71	-0.750			
0.8325	53282.58	3.2470	3.2471	-0.1771	26.00	0.72	-0.750			
0.8331	53316.79	3.2440	3.2438	-0.1752	26.00	0.72	-0.750			
0.8336	53349.94	3.2410	3.2411	-0.1722	26.01	0.73	-0.750			
0.8341	53382.69	3.2380	3.2380	-0.1695	26.01	0.73	-0.750			
0.8346	53414.58	3.2350	3.2348	-0.1670	26.01	0.73	-0.750			
0.8351	53446.46	3.2320	3.2320	-0.1650	26.02	0.74	-0.750			
0.8356	53477.71	3.2290	3.2290	-0.1639	26.02	0.74	-0.750			
0.8361	53508.75	3.2260	3.2259	-0.1612	26.02	0.74	-0.750			
0.8366	53540.08	3.2230	3.2230	-0.1613	26.03	0.75	-0.750			
0.8370	53570.86	3.2200	3.2201	-0.1594	26.03	0.75	-0.750			
0.8375	53601.20	3.2170	3.2170	-0.1572	26.04	0.76	-0.750			
0.8380	53631.30	3.2140	3.2140	-0.1558	26.04	0.76	-0.750			
0.8385	53660.80	3.2110	3.2110	-0.1538	26.04	0.76	-0.750			
0.8389	53690.19	3.2080	3.2080	-0.1523	26.05	0.77	-0.750			
0.8394	53719.24	3.2050	3.2049	-0.1504	26.05	0.77	-0.750			
0.8398	53748.14	3.2020	3.2021	-0.1494	26.06	0.78	-0.750			
0.8403	53776.46	3.1990	3.1991	-0.1473	26.06	0.78	-0.750			
0.8407	53804.62	3.1960	3.1959	-0.1460	26.06	0.78	-0.750			
0.8411	53832.62	3.1930	3.1930	-0.1446	26.07	0.79	-0.750			
0.8416	53860.47	3.1900	3.1899	-0.1422	26.07	0.79	-0.750			
0.8420	53887.69	3.1870	3.1869	-0.1401	26.08	0.80	-0.750			
0.8424	53914.14	3.1840	3.1842	-0.1390	26.08	0.80	-0.750			
0.8428	53940.71	3.1810	3.1811	-0.1376	26.08	0.80	-0.750			
0.8432	53966.57	3.1780	3.1779	-0.1360	26.09	0.81	-0.750			
0.8436	53992.62	3.1750	3.1749	-0.1353	26.09	0.81	-0.750			
0.8440	54018.41	3.1720	3.1722	-0.1343	26.09	0.81	-0.750			
0.8444	54044.10	3.1690	3.1690	-0.1337	26.10	0.82	-0.750			
0.8449	54070.47	3.1660	3.1661	-0.1324	26.10	0.82	-0.750			
0.8452	54095.34	3.1630	3.1629	-0.1309	26.10	0.82	-0.750			
0.8456	54120.05	3.1600	3.1599	-0.1290	26.11	0.83	-0.750			
0.8460	54145.08	3.1570	3.1573	-0.1270	26.11	0.83	-0.750			
0.8464	54169.24	3.1540	3.1539	-0.1247	26.11	0.83	-0.750			
0.8468	54192.73	3.1510	3.1511	-0.1233	26.11	0.83	-0.750			
0.8471	54215.94	3.1480	3.1478	-0.1220	26.11	0.83	-0.750			
0.8475	54239.30	3.1450	3.1449	-0.1213	26.12	0.84	-0.750			
0.8479	54262.63	3.1420	3.1419	-0.1208	26.12	0.84	-0.750			
0.8482	54285.25	3.1390	3.1390	-0.1191	26.12	0.84	-0.750			
0.8486	54308.45	3.1360	3.1363	-0.1177	26.13	0.85	-0.750			
0.8489	54331.73	3.1330	3.1328	-0.1174	26.13	0.85	-0.750			
0.8493	54353.78	3.1300	3.1301	-0.1165	26.13	0.85	-0.750			
0.8496	54375.85	3.1270	3.1269	-0.1150	26.13	0.85	-0.750			
0.8500	54397.65	3.1240	3.1239	-0.1138	26.14	0.86	-0.750			
0.8503	54419.31	3.1210	3.1209	-0.1133	26.14	0.86	-0.750			
0.8506	54440.79	3.1180	3.1181	-0.1125	26.14	0.86	-0.750			
0.8510	54462.72	3.1150	3.1150	-0.1114	26.15	0.87	-0.750			
0.8513	54484.40	3.1120	3.1118	-0.1111	26.15	0.87	-0.750			
0.8516	54505.44	3.1090	3.1092	-0.1100	26.15	0.87	-0.750			
0.8520	54526.33	3.1060	3.1060	-0.1086	26.16	0.88	-0.750			
0.8523	54547.08	3.1030	3.1029	-0.1075	26.16	0.88	-0.750			
0.8526	54567.67	3.1000	3.0999	-0.1065	26.16	0.88	-0.750			
0.8529	54588.13	3.0970	3.0970	-0.1048	26.16	0.88	-0.750			
0.8533	54608.01	3.0940	3.0942	-0.1032	26.17	0.89	-0.750			
0.8536	54627.35	3.0910	3.0909	-0.1032	26.17	0.89	-0.750			
0.8539	54647.09	3.0880	3.0882	-0.1027	26.17	0.89	-0.750			
0.8542	54666.77	3.0850	3.0848	-0.1023	26.18	0.90	-0.750			
0.8545	54685.99	3.0820	3.0821	-0.1015	26.18	0.90	-0.750			
0.8548	54705.77	3.0790	3.0788	-0.1005	26.18	0.90	-0.750			
0.8551	54725.21	3.0760	3.0762	-0.1002	26.18	0.90	-0.750			
0.8554	54744.42	3.0730	3.0731	-0.0991	26.19	0.91	-0.750			
0.8557	54763.91	3.0700	3.0699	-0.0987	26.19	0.91	-0.750			
0.8560	54782.53	3.0670	3.0671	-0.0972	26.19	0.91	-0.750			
0.8563	54800.69	3.0640	3.0637	-0.0952	26.20	0.92	-0.750			
0.8565	54818.80	3.0610	3.0611	-0.0945	26.20	0.92	-0.750			
0.8568	54836.76	3.0580	3.0581	-0.0935	26.20	0.92	-0.750			
0.8571	54854.71	3.0550	3.0550	-0.0926	26.20	0.92	-0.750			
0.8574	54872.49	3.0520	3.0519	-0.0919	26.21	0.93	-0.750			
0.8577	54890.04	3.0490	3.0490	-0.0909	26.21	0.93	-0.750			
0.8579	54907.19	3.0460	3.0462	-0.0905	26.21	0.93	-0.750			
0.8582	54924.53	3.0430	3.0430	-0.0901	26.21	0.93	-0.750			
0.8585	54941.97	3.0400	3.0399	-0.0892	26.21	0.93	-0.750			
0.8587	54959.02	3.0370	3.0369	-0.0884	26.22	0.94	-0.750			
0.8590	54975.92	3.0340	3.0340	-0.0876	26.22	0.94	-0.750			
0.8593	54992.66	3.0310	3.0312	-0.0868	26.22	0.94	-0.750			
0.8595	55009.26	3.0280	3.0278	-0.0864	26.22	0.94	-0.750			
0.8598	55025.76	3.0250	3.0250	-0.0855	26.22	0.94	-0.750			
0.8600	55042.10	3.0220	3.0222	-0.0847	26.22	0.94	-0.750			
0.8603	55058.20	3.0190	3.0188	-0.0832	26.23	0.95	-0.750			
0.8605	55074.08	3.0160	3.0161	-0.0823	26.23	0.95	-0.750			
0.8608	55090.14	3.0130	3.0132	-0.0814	26.23	0.95	-0.750			
0.8610	55105.64	3.0100	3.0101	-0.0800	26.23	0.95	-0.750			
0.8613	55121.07	3.0070	3.0068	-0.0778	26.23	0.95	-0.750			
0.8615	55135.81	3.0040	3.0040	-0.0757	26.23	0.95	-0.750			
