Ah_balance (normalized)	Ah_balance (mAh)	Voltage - fit (V)	Voltage -  interpolate (V)	dQ/dV (1/V)	Temperature (°C)	Temperature - diff (°C)	Current (C)	R_DC 0ms (mOhm)	R_DC 50ms (mOhm)	R_DC 50 ms PEC (mOhm)
0.0479	3065.11	4.1980	4.1980	0.7637	25.97	0.47	0.750			
0.0502	3212.24	4.1950	4.1950	0.7534	25.97	0.47	0.750			
0.0524	3350.84	4.1920	4.1921	0.7413	25.97	0.47	0.750			
0.0546	3491.84	4.1890	4.1891	0.7492	25.97	0.47	0.750			
0.0568	3635.36	4.1860	4.1859	0.7528	25.97	0.47	0.750			
0.0591	3780.66	4.1830	4.1831	0.7553	25.97	0.47	0.750			
0.0614	3927.49	4.1800	4.1801	0.7518	25.97	0.47	0.750			
0.0637	4075.46	4.1770	4.1771	0.7626	25.97	0.47	0.750			
0.0660	4225.43	4.1740	4.1740	0.7663	25.97	0.47	0.750			
0.0682	4364.91	4.1710	4.1708	0.7534	25.97	0.47	0.750			
0.0705	4510.17	4.1680	4.1681	0.7556	25.97	0.47	0.750			
0.0728	4656.59	4.1650	4.1650	0.7554	25.97	0.47	0.750			
0.0750	4801.09	4.1620	4.1620	0.7575	25.97	0.47	0.750			
0.0773	4945.78	4.1590	4.1590	0.7539	25.97	0.47	0.750			
0.0796	5091.55	4.1560	4.1560	0.7580	25.97	0.47	0.750			
0.0818	5237.77	4.1530	4.1530	0.7612	25.97	0.47	0.750			
0.0841	5384.39	4.1500	4.1500	0.7626	25.97	0.47	0.750			
0.0864	5531.26	4.1470	4.1470	0.7653	25.98	0.48	0.750			
0.0887	5676.05	4.1440	4.1440	0.7577	25.98	0.48	0.750			
0.0909	5818.83	4.1410	4.1411	0.7610	25.99	0.49	0.750			
0.0932	5964.88	4.1380	4.1379	0.7655	25.99	0.49	0.750			
0.0955	6112.42	4.1350	4.1352	0.7731	25.99	0.49	0.750			
0.0979	6263.88	4.1320	4.1321	0.7738	25.99	0.49	0.750			
0.1002	6413.49	4.1290	4.1291	0.7800	25.99	0.49	0.750			
0.1026	6568.01	4.1260	4.1259	0.7895	25.99	0.49	0.750			
0.1049	6711.99	4.1230	4.1231	0.7758	25.99	0.49	0.750			
0.1072	6861.59	4.1200	4.1201	0.7744	25.99	0.49	0.750			
0.1095	7010.92	4.1170	4.1170	0.7781	25.99	0.49	0.750			
0.1119	7160.41	4.1140	4.1141	0.7770	25.99	0.49	0.750			
0.1142	7309.92	4.1110	4.1110	0.7785	26.00	0.50	0.750			
0.1165	7458.02	4.1080	4.1080	0.7763	26.00	0.50	0.750			
0.1189	7607.71	4.1050	4.1048	0.7826	26.00	0.50	0.750			
0.1212	7757.94	4.1020	4.1021	0.7835	26.00	0.50	0.750			
0.1236	7911.13	4.0990	4.0990	0.7791	26.00	0.50	0.750			
0.1259	8059.81	4.0960	4.0960	0.7871	26.01	0.51	0.750			
0.1283	8210.38	4.0930	4.0931	0.7874	26.01	0.51	0.750			
0.1307	8362.03	4.0900	4.0899	0.7907	26.01	0.51	0.750			
0.1330	8514.32	4.0870	4.0872	0.7925	26.01	0.51	0.750			
0.1354	8668.72	4.0840	4.0841	0.7882	26.02	0.52	0.750			
0.1378	8819.40	4.0810	4.0810	0.7940	26.02	0.52	0.750			
0.1402	8973.43	4.0780	4.0780	0.7963	26.02	0.52	0.750			
0.1425	9121.25	4.0750	4.0751	0.7975	26.03	0.53	0.750			
0.1449	9275.36	4.0720	4.0720	0.8070	26.03	0.53	0.750			
0.1474	9433.12	4.0690	4.0690	0.8088	26.03	0.53	0.750			
0.1498	9589.56	4.0660	4.0660	0.8122	26.03	0.53	0.750			
0.1523	9748.07	4.0630	4.0631	0.8185	26.03	0.53	0.750			
0.1547	9902.24	4.0600	4.0600	0.8140	26.03	0.53	0.750			
0.1572	10058.58	4.0570	4.0570	0.8158	26.03	0.53	0.750			
0.1596	10214.39	4.0540	4.0541	0.8164	26.04	0.54	0.750			
0.1620	10370.98	4.0510	4.0510	0.8080	26.04	0.54	0.750			
0.1644	10524.74	4.0480	4.0481	0.8125	26.04	0.54	0.750			
0.1668	10678.12	4.0450	4.0452	0.8160	26.05	0.55	0.750			
0.1693	10834.79	4.0420	4.0415	0.8243	26.05	0.55	0.750			
0.1718	10996.35	4.0390	4.0391	0.8204	26.05	0.55	0.750			
0.1743	11154.30	4.0360	4.0361	0.8296	26.05	0.55	0.750			
0.1768	11316.78	4.0330	4.0331	0.8398	26.05	0.55	0.750			
0.1793	11475.50	4.0300	4.0301	0.8371	26.05	0.55	0.750			
0.1818	11636.26	4.0270	4.0269	0.8423	26.05	0.55	0.750			
0.1844	11800.77	4.0240	4.0241	0.8443	26.06	0.56	0.750			
0.1869	11961.96	4.0210	4.0211	0.8576	26.06	0.56	0.750			
0.1895	12126.29	4.0180	4.0181	0.8793	26.06	0.56	0.750			
0.1921	12295.19	4.0150	4.0149	0.8897	26.07	0.57	0.750			
0.1948	12469.31	4.0120	4.0126	0.8919	26.07	0.57	0.750			
0.1976	12644.81	4.0090	4.0093	0.8853	26.07	0.57	0.750			
0.2003	12818.96	4.0060	4.0062	0.8952	26.07	0.57	0.750			
0.2030	12990.87	4.0030	4.0030	0.8861	26.07	0.57	0.750			
0.2055	13153.91	4.0000	3.9998	0.8636	26.07	0.57	0.750			
0.2081	13320.37	3.9970	3.9971	0.8658	26.07	0.57	0.750			
0.2107	13486.93	3.9940	3.9941	0.8658	26.07	0.57	0.750			
0.2133	13654.39	3.9910	3.9909	0.8697	26.07	0.57	0.750			
0.2160	13821.52	3.9880	3.9881	0.8629	26.07	0.57	0.750			
0.2185	13986.83	3.9850	3.9848	0.8646	26.07	0.57	0.750			
0.2212	14153.94	3.9820	3.9820	0.8684	26.07	0.57	0.750			
0.2238	14320.27	3.9790	3.9790	0.8743	26.07	0.57	0.750			
0.2264	14488.72	3.9760	3.9760	0.8765	26.07	0.57	0.750			
0.2290	14657.69	3.9730	3.9730	0.8780	26.07	0.57	0.750			
0.2317	14826.62	3.9700	3.9699	0.8770	26.07	0.57	0.750			
0.2343	14997.48	3.9670	3.9671	0.8702	26.07	0.57	0.750			
0.2369	15163.83	3.9640	3.9640	0.8674	26.07	0.57	0.750			
0.2395	15327.80	3.9610	3.9610	0.8699	26.06	0.56	0.750			
0.2421	15493.27	3.9580	3.9580	0.8699	26.06	0.56	0.750			
0.2447	15660.27	3.9550	3.9550	0.8746	26.06	0.56	0.750			
0.2473	15829.59	3.9520	3.9521	0.8725	26.06	0.56	0.750			
0.2500	16002.49	3.9490	3.9490	0.8681	26.05	0.55	0.750			
0.2526	16169.30	3.9460	3.9461	0.8563	26.05	0.55	0.750			
0.2552	16331.21	3.9430	3.9430	0.8403	26.05	0.55	0.750			
0.2576	16488.40	3.9400	3.9401	0.8403	26.05	0.55	0.750			
0.2601	16647.05	3.9370	3.9369	0.8334	26.05	0.55	0.750			
0.2626	16805.21	3.9340	3.9340	0.8435	26.05	0.55	0.750			
0.2651	16967.78	3.9310	3.9310	0.8596	26.05	0.55	0.750			
0.2678	17137.83	3.9280	3.9280	0.8732	26.05	0.55	0.750			
0.2704	17305.71	3.9250	3.9251	0.8750	26.05	0.55	0.750			
0.2730	17474.98	3.9220	3.9220	0.8785	26.04	0.54	0.750			
0.2756	17640.85	3.9190	3.9192	0.8666	26.04	0.54	0.750			
0.2782	17806.89	3.9160	3.9161	0.8686	26.03	0.53	0.750			
0.2808	17970.29	3.9130	3.9128	0.8727	26.03	0.53	0.750			
0.2834	18137.80	3.9100	3.9102	0.8768	26.02	0.52	0.750			
0.2861	18308.84	3.9070	3.9071	0.8773	26.01	0.51	0.750			
0.2887	18477.50	3.9040	3.9042	0.8809	26.01	0.51	0.750			
0.2914	18652.38	3.9010	3.9010	0.8953	26.00	0.50	0.750			
0.2940	18816.68	3.8980	3.8980	0.8771	25.99	0.49	0.750			
0.2967	18985.97	3.8950	3.8950	0.8751	25.99	0.49	0.750			
0.2993	19152.22	3.8920	3.8921	0.8809	25.98	0.48	0.750			
0.3019	19323.59	3.8890	3.8890	0.8907	25.98	0.48	0.750			
0.3046	19496.18	3.8860	3.8860	0.8915	25.97	0.47	0.750			
0.3073	19664.96	3.8830	3.8830	0.8889	25.97	0.47	0.750			
0.3100	19837.73	3.8800	3.8801	0.8845	25.96	0.46	0.750			
0.3126	20007.70	3.8770	3.8770	0.8937	25.95	0.45	0.750			
0.3153	20179.51	3.8740	3.8740	0.8916	25.94	0.44	0.750			
0.3180	20348.91	3.8710	3.8709	0.8840	25.93	0.43	0.750			
0.3206	20518.88	3.8680	3.8681	0.8877	25.93	0.43	0.750			
0.3233	20690.66	3.8650	3.8652	0.8893	25.92	0.42	0.750			
0.3259	20860.32	3.8620	3.8620	0.8915	25.91	0.41	0.750			
0.3286	21032.23	3.8590	3.8590	0.8976	25.91	0.41	0.750			
0.3313	21201.44	3.8560	3.8556	0.8969	25.90	0.40	0.750			
0.3340	21378.43	3.8530	3.8530	0.8966	25.89	0.39	0.750			
0.3367	21547.68	3.8500	3.8501	0.9062	25.88	0.38	0.750			
0.3394	21719.47	3.8470	3.8471	0.9165	25.87	0.37	0.750			
0.3421	21897.27	3.8440	3.8440	0.9280	25.87	0.37	0.750			
0.3449	22074.70	3.8410	3.8409	0.9354	25.86	0.36	0.750	0.312	0.457	
0.3478	22257.41	3.8380	3.8381	0.9313	25.84	0.34	0.750			
0.3506	22437.55	3.8350	3.8351	0.9433	25.83	0.33	0.750			
0.3534	22619.59	3.8320	3.8321	0.9516	25.82	0.32	0.750			
0.3562	22798.63	3.8290	3.8284	0.9492	25.81	0.31	0.750			
0.3591	22983.98	3.8260	3.8260	0.9466	25.80	0.30	0.750			
0.3620	23165.56	3.8230	3.8232	0.9646	25.80	0.30	0.750			
0.3649	23353.27	3.8200	3.8202	0.9791	25.79	0.29	0.750			
0.3678	23541.87	3.8170	3.8169	0.9759	25.78	0.28	0.750			
0.3708	23731.20	3.8140	3.8140	0.9774	25.77	0.27	0.750			
0.3737	23917.80	3.8110	3.8112	0.9872	25.76	0.26	0.750			
0.3767	24108.17	3.8080	3.8081	1.0043	25.75	0.25	0.750			
0.3797	24301.79	3.8050	3.8050	1.0154	25.74	0.24	0.750			
0.3828	24501.27	3.8020	3.8020	1.0122	25.73	0.23	0.750			
0.3859	24695.79	3.7990	3.7991	1.0401	25.73	0.23	0.750			
0.3890	24897.58	3.7960	3.7961	1.0625	25.72	0.22	0.750			
0.3922	25103.73	3.7930	3.7930	1.0818	25.70	0.20	0.750			
0.3955	25313.33	3.7900	3.7901	1.0785	25.70	0.20	0.750			
0.3987	25519.53	3.7870	3.7871	1.1056	25.69	0.19	0.750			
0.4021	25735.00	3.7840	3.7841	1.1212	25.68	0.18	0.750			
0.4055	25955.17	3.7810	3.7807	1.1325	25.67	0.17	0.750			
0.4089	26169.02	3.7780	3.7781	1.1384	25.66	0.16	0.750			
0.4123	26388.95	3.7750	3.7752	1.1641	25.65	0.15	0.750			
0.4159	26614.77	3.7720	3.7720	1.1916	25.64	0.14	0.750			
0.4195	26846.00	3.7690	3.7689	1.1977	25.63	0.13	0.750			
0.4231	27076.81	3.7660	3.7661	1.2267	25.62	0.12	0.750			
0.4268	27316.04	3.7630	3.7631	1.2673	25.60	0.10	0.750			
0.4307	27566.10	3.7600	3.7595	1.2754	25.59	0.09	0.750			
0.4345	27808.60	3.7570	3.7571	1.3211	25.58	0.08	0.750			
0.4385	28063.56	3.7540	3.7542	1.3551	25.57	0.07	0.750			
0.4427	28330.83	3.7510	3.7508	1.3846	25.56	0.06	0.750			
0.4471	28612.20	3.7480	3.7480	1.3938	25.55	0.05	0.750			
0.4511	28871.15	3.7450	3.7452	1.4292	25.54	0.04	0.750			
0.4556	29158.20	3.7420	3.7418	1.4237	25.52	0.02	0.750			
0.4598	29430.24	3.7390	3.7392	1.4401	25.51	0.01	0.750			
0.4640	29696.57	3.7360	3.7362	1.5178	25.50	-0.00	0.750			
0.4687	29998.72	3.7330	3.7321	1.5520	25.48	-0.02	0.750			
0.4734	30296.72	3.7300	3.7302	1.6247	25.47	-0.03	0.750			
0.4784	30619.28	3.7270	3.7275	1.7134	25.46	-0.04	0.750			
0.4837	30959.22	3.7240	3.7234	1.7253	25.44	-0.06	0.750			
0.4891	31302.55	3.7210	3.7208	1.7884	25.43	-0.07	0.750			
0.4943	31636.61	3.7180	3.7182	1.7977	25.42	-0.08	0.750			
0.5000	31997.60	3.7150	3.7154	1.8676	25.41	-0.09	0.750			
0.5055	32350.43	3.7120	3.7120	1.9054	25.39	-0.11	0.750			
0.5112	32715.19	3.7090	3.7094	1.9501	25.38	-0.12	0.750			
0.5172	33099.37	3.7060	3.7064	2.0567	25.37	-0.13	0.750			
0.5236	33511.72	3.7030	3.7032	2.1549	25.36	-0.14	0.750			
0.5301	33926.18	3.7000	3.7002	2.1688	25.34	-0.16	0.750			
0.5367	34346.33	3.6970	3.6975	2.2105	25.33	-0.17	0.750			
0.5433	34768.70	3.6940	3.6938	2.2885	25.32	-0.18	0.750			
0.5501	35203.97	3.6910	3.6904	2.3186	25.31	-0.19	0.750			
0.5572	35658.13	3.6880	3.6878	2.3873	25.31	-0.19	0.750			
0.5644	36122.42	3.6850	3.6847	2.4048	25.30	-0.20	0.750			
0.5714	36571.97	3.6820	3.6817	2.4453	25.30	-0.20	0.750			
0.5790	37053.83	3.6790	3.6795	2.3989	25.30	-0.20	0.750			
0.5859	37496.50	3.6760	3.6755	2.3022	25.30	-0.20	0.750			
0.5929	37946.83	3.6730	3.6730	2.2325	25.30	-0.20	0.750			
0.5997	38378.08	3.6700	3.6696	2.1820	25.31	-0.19	0.750			
0.6059	38775.85	3.6670	3.6671	2.0394	25.32	-0.18	0.750			
0.6113	39124.72	3.6640	3.6637	1.8605	25.32	-0.18	0.750			
0.6167	39470.88	3.6610	3.6612	1.7398	25.33	-0.17	0.750			
0.6217	39786.82	3.6580	3.6580	1.6183	25.34	-0.16	0.750			
0.6265	40096.59	3.6550	3.6554	1.5345	25.35	-0.15	0.750			
0.6311	40387.21	3.6520	3.6517	1.4293	25.36	-0.14	0.750			
0.6353	40660.29	3.6490	3.6489	1.3366	25.37	-0.13	0.750			
0.6390	40893.06	3.6460	3.6460	1.2348	25.37	-0.13	0.750			
0.6425	41123.16	3.6430	3.6430	1.1726	25.38	-0.12	0.750			
0.6460	41342.76	3.6400	3.6400	1.1197	25.39	-0.11	0.750			
0.6492	41548.13	3.6370	3.6371	1.0429	25.40	-0.10	0.750			
0.6522	41738.63	3.6340	3.6341	1.0008	25.41	-0.09	0.750			
0.6550	41922.90	3.6310	3.6312	0.9720	25.42	-0.08	0.750			
0.6579	42102.82	3.6280	3.6283	0.9369	25.42	-0.08	0.750			
0.6606	42281.51	3.6250	3.6252	0.8930	25.43	-0.07	0.750			
0.6633	42452.81	3.6220	3.6224	0.8804	25.44	-0.06	0.750			
0.6660	42624.99	3.6190	3.6191	0.8384	25.44	-0.06	0.750			
0.6685	42781.84	3.6160	3.6154	0.8023	25.45	-0.05	0.750			
0.6708	42932.82	3.6130	3.6132	0.7646	25.46	-0.04	0.750			
0.6730	43072.94	3.6100	3.6103	0.7081	25.47	-0.03	0.750			
0.6751	43207.78	3.6070	3.6072	0.6690	25.48	-0.02	0.750			
0.6771	43331.46	3.6040	3.6043	0.6144	25.48	-0.02	0.750			
0.6789	43447.87	3.6010	3.6012	0.5634	25.49	-0.01	0.750			
0.6805	43551.92	3.5980	3.5981	0.5181	25.50	-0.00	0.750			
0.6820	43645.26	3.5950	3.5952	0.4647	25.50	0.00	0.750			
0.6833	43730.29	3.5920	3.5922	0.4207	25.51	0.01	0.750			
0.6845	43808.03	3.5890	3.5892	0.3776	25.51	0.01	0.750			
0.6856	43875.38	3.5860	3.5860	0.3243	25.52	0.02	0.750			
0.6865	43932.92	3.5830	3.5830	0.2759	25.52	0.02	0.750			
0.6872	43982.64	3.5800	3.5801	0.2291	25.52	0.02	0.750			
0.6879	44022.88	3.5770	3.5771	0.1749	25.53	0.03	0.750			
0.6883	44051.84	3.5740	3.5745	0.1198	25.53	0.03	0.750			
0.6886	44069.62	3.5710	3.5720	0.0605	25.53	0.03	0.750			
