Ah_balance (normalized)	Ah_balance (mAh)	Voltage - fit (V)	Voltage -  interpolate (V)	dQ/dV (1/V)	Temperature (°C)	Temperature - diff (°C)	Current (C)	R_DC 0ms (mOhm)	R_DC 50ms (mOhm)	R_DC 50 ms PEC (mOhm)
0.0001	6.57	4.1630	4.1635	-0.0927	25.20	0.01	-0.750			
0.0005	30.11	4.1600	4.1597	-0.1455	25.19	0.00	-0.750			
0.0010	63.18	4.1570	4.1568	-0.1878	25.19	0.00	-0.750			
0.0016	102.70	4.1540	4.1541	-0.2266	25.19	0.00	-0.750			
0.0023	149.89	4.1510	4.1511	-0.2646	25.19	-0.00	-0.750			
0.0032	204.42	4.1480	4.1480	-0.3031	25.19	-0.00	-0.750			
0.0042	266.96	4.1450	4.1450	-0.3403	25.19	-0.00	-0.750			
0.0052	335.33	4.1420	4.1419	-0.3778	25.18	-0.01	-0.750			
0.0064	412.30	4.1390	4.1391	-0.4138	25.18	-0.01	-0.750			
0.0077	495.38	4.1360	4.1360	-0.4489	25.18	-0.01	-0.750			
0.0092	586.18	4.1330	4.1329	-0.4831	25.17	-0.02	-0.750			
0.0107	685.42	4.1300	4.1299	-0.5036	25.17	-0.02	-0.750			
0.0122	783.46	4.1270	4.1270	-0.5318	25.17	-0.02	-0.750			
0.0139	888.62	4.1240	4.1241	-0.5510	25.16	-0.03	-0.750			
0.0155	994.79	4.1210	4.1209	-0.5718	25.16	-0.03	-0.750			
0.0173	1107.37	4.1180	4.1178	-0.5910	25.15	-0.04	-0.750			
0.0191	1222.17	4.1150	4.1153	-0.6080	25.15	-0.04	-0.750			
0.0209	1340.37	4.1120	4.1120	-0.6239	25.14	-0.05	-0.750			
0.0229	1467.34	4.1090	4.1091	-0.6462	25.13	-0.06	-0.750			
0.0248	1590.30	4.1060	4.1058	-0.6434	25.13	-0.06	-0.750			
0.0268	1715.42	4.1030	4.1030	-0.6561	25.12	-0.07	-0.750			
0.0288	1840.50	4.1000	4.1001	-0.6632	25.12	-0.07	-0.750			
0.0308	1969.86	4.0970	4.0968	-0.6730	25.12	-0.07	-0.750			
0.0328	2099.09	4.0940	4.0939	-0.6833	25.12	-0.07	-0.750			
0.0348	2230.27	4.0910	4.0911	-0.6877	25.12	-0.07	-0.750			
0.0370	2365.15	4.0880	4.0879	-0.6999	25.12	-0.07	-0.750			
0.0391	2501.66	4.0850	4.0851	-0.7054	25.12	-0.07	-0.750			
0.0412	2636.41	4.0820	4.0820	-0.7067	25.12	-0.07	-0.750			
0.0433	2772.50	4.0790	4.0790	-0.7119	25.12	-0.07	-0.750			
0.0455	2910.51	4.0760	4.0761	-0.7237	25.12	-0.07	-0.750			
0.0477	3050.79	4.0730	4.0730	-0.7207	25.12	-0.07	-0.750			
0.0499	3191.77	4.0700	4.0698	-0.7277	25.12	-0.07	-0.750			
0.0520	3330.81	4.0670	4.0675	-0.7234	25.12	-0.07	-0.750			
0.0542	3469.54	4.0640	4.0638	-0.7243	25.12	-0.07	-0.750			
0.0563	3604.89	4.0610	4.0610	-0.7299	25.12	-0.07	-0.750			
0.0585	3745.25	4.0580	4.0579	-0.7265	25.12	-0.07	-0.750			
0.0608	3888.82	4.0550	4.0550	-0.7374	25.12	-0.07	-0.750			
0.0630	4031.27	4.0520	4.0518	-0.7351	25.12	-0.07	-0.750			
0.0652	4171.16	4.0490	4.0493	-0.7410	25.12	-0.07	-0.750			
0.0674	4314.44	4.0460	4.0459	-0.7452	25.12	-0.07	-0.750			
0.0696	4454.69	4.0430	4.0429	-0.7452	25.12	-0.07	-0.750			
0.0718	4596.98	4.0400	4.0401	-0.7430	25.13	-0.06	-0.750			
0.0741	4744.94	4.0370	4.0370	-0.7558	25.13	-0.06	-0.750			
0.0764	4890.68	4.0340	4.0340	-0.7614	25.13	-0.06	-0.750			
0.0787	5036.11	4.0310	4.0311	-0.7632	25.13	-0.06	-0.750			
0.0810	5180.95	4.0280	4.0279	-0.7660	25.13	-0.06	-0.750			
0.0833	5330.05	4.0250	4.0250	-0.7669	25.13	-0.06	-0.750			
0.0856	5478.96	4.0220	4.0220	-0.7643	25.14	-0.05	-0.750			
0.0879	5625.77	4.0190	4.0190	-0.7632	25.14	-0.05	-0.750			
0.0902	5772.67	4.0160	4.0163	-0.7609	25.14	-0.05	-0.750			
0.0925	5917.04	4.0130	4.0130	-0.7577	25.14	-0.05	-0.750			
0.0947	6060.12	4.0100	4.0099	-0.7618	25.14	-0.05	-0.750			
0.0970	6207.10	4.0070	4.0070	-0.7660	25.14	-0.05	-0.750			
0.0993	6355.24	4.0040	4.0040	-0.7739	25.14	-0.05	-0.750			
0.1017	6506.87	4.0010	4.0010	-0.7778	25.14	-0.05	-0.750			
0.1040	6654.74	3.9980	3.9981	-0.7774	25.14	-0.05	-0.750			
0.1063	6803.35	3.9950	3.9950	-0.7812	25.15	-0.04	-0.750			
0.1086	6953.59	3.9920	3.9920	-0.7807	25.16	-0.03	-0.750			
0.1110	7103.85	3.9890	3.9889	-0.7777	25.16	-0.03	-0.750			
0.1133	7252.91	3.9860	3.9861	-0.7840	25.17	-0.02	-0.750			
0.1157	7403.43	3.9830	3.9831	-0.7840	25.17	-0.02	-0.750			
0.1180	7552.31	3.9800	3.9801	-0.7989	25.17	-0.02	-0.750			
0.1205	7708.97	3.9770	3.9769	-0.7940	25.17	-0.02	-0.750			
0.1228	7862.25	3.9740	3.9740	-0.7923	25.18	-0.01	-0.750			
0.1252	8015.94	3.9710	3.9709	-0.7944	25.18	-0.01	-0.750			
0.1277	8169.76	3.9680	3.9683	-0.7937	25.18	-0.01	-0.750			
0.1300	8319.17	3.9650	3.9649	-0.7882	25.18	-0.01	-0.750			
0.1323	8468.16	3.9620	3.9620	-0.7895	25.18	-0.01	-0.750			
0.1346	8615.41	3.9590	3.9590	-0.7882	25.18	-0.01	-0.750			
0.1371	8774.88	3.9560	3.9560	-0.8000	25.18	-0.01	-0.750			
0.1395	8927.81	3.9530	3.9529	-0.8020	25.18	-0.01	-0.750			
0.1419	9080.75	3.9500	3.9501	-0.8047	25.18	-0.01	-0.750			
0.1443	9236.87	3.9470	3.9469	-0.8071	25.18	-0.01	-0.750			
0.1467	9390.24	3.9440	3.9440	-0.8065	25.19	-0.00	-0.750			
0.1492	9546.07	3.9410	3.9411	-0.8059	25.19	-0.00	-0.750			
0.1516	9701.79	3.9380	3.9380	-0.8043	25.19	-0.00	-0.750			
0.1540	9856.74	3.9350	3.9350	-0.8072	25.19	0.00	-0.750			
0.1564	10008.42	3.9320	3.9321	-0.8147	25.19	0.00	-0.750			
0.1589	10167.33	3.9290	3.9288	-0.8179	25.20	0.01	-0.750			
0.1614	10327.25	3.9260	3.9259	-0.8164	25.20	0.01	-0.750			
0.1638	10484.53	3.9230	3.9228	-0.8165	25.20	0.01	-0.750			
0.1663	10641.04	3.9200	3.9200	-0.8172	25.20	0.01	-0.750			
0.1687	10796.33	3.9170	3.9168	-0.8223	25.20	0.01	-0.750			
0.1711	10950.70	3.9140	3.9140	-0.8158	25.21	0.02	-0.750			
0.1735	11106.51	3.9110	3.9109	-0.8132	25.21	0.02	-0.750			
0.1761	11270.13	3.9080	3.9081	-0.8308	25.21	0.02	-0.750			
0.1786	11430.24	3.9050	3.9049	-0.8273	25.21	0.02	-0.750			
0.1811	11587.24	3.9020	3.9020	-0.8297	25.21	0.02	-0.750			
0.1835	11742.27	3.8990	3.8990	-0.8418	25.21	0.02	-0.750			
0.1859	11898.30	3.8960	3.8961	-0.8559	25.22	0.03	-0.750			
0.1886	12070.00	3.8930	3.8929	-0.8764	25.22	0.03	-0.750			
0.1913	12241.45	3.8900	3.8897	-0.8839	25.22	0.03	-0.750			
0.1940	12416.89	3.8870	3.8873	-0.8869	25.23	0.04	-0.750			
0.1968	12593.97	3.8840	3.8841	-0.8768	25.23	0.04	-0.750			
0.1994	12761.81	3.8810	3.8809	-0.8561	25.24	0.05	-0.750			
0.2019	12922.69	3.8780	3.8782	-0.8320	25.24	0.05	-0.750			
0.2043	13074.00	3.8750	3.8749	-0.8150	25.24	0.05	-0.750			
0.2067	13228.89	3.8720	3.8719	-0.8144	25.25	0.06	-0.750			
0.2091	13383.96	3.8690	3.8689	-0.8085	25.25	0.06	-0.750			
0.2115	13538.98	3.8660	3.8661	-0.8027	25.25	0.06	-0.750			
0.2140	13697.52	3.8630	3.8631	-0.8056	25.26	0.07	-0.750			
0.2164	13850.31	3.8600	3.8599	-0.8019	25.26	0.07	-0.750			
0.2188	14001.49	3.8570	3.8570	-0.7995	25.26	0.07	-0.750			
0.2212	14154.67	3.8540	3.8540	-0.7957	25.27	0.08	-0.750			
0.2235	14306.84	3.8510	3.8510	-0.7910	25.27	0.08	-0.750			
0.2260	14461.41	3.8480	3.8480	-0.7959	25.27	0.08	-0.750			
0.2283	14613.93	3.8450	3.8451	-0.7938	25.27	0.08	-0.750			
0.2307	14764.25	3.8420	3.8419	-0.7949	25.27	0.08	-0.750			
0.2331	14917.02	3.8390	3.8389	-0.7897	25.27	0.08	-0.750			
0.2355	15068.99	3.8360	3.8360	-0.7790	25.28	0.09	-0.750			
0.2378	15219.66	3.8330	3.8329	-0.7756	25.28	0.09	-0.750			
0.2401	15368.49	3.8300	3.8303	-0.7739	25.28	0.09	-0.750			
0.2424	15514.72	3.8270	3.8268	-0.7690	25.28	0.09	-0.750			
0.2447	15660.30	3.8240	3.8239	-0.7679	25.29	0.10	-0.750			
0.2470	15807.83	3.8210	3.8211	-0.7688	25.29	0.10	-0.750			
0.2493	15958.33	3.8180	3.8179	-0.7726	25.30	0.11	-0.750			
0.2517	16107.13	3.8150	3.8149	-0.7700	25.30	0.11	-0.750			
0.2540	16254.24	3.8120	3.8120	-0.7643	25.30	0.11	-0.750			
0.2562	16399.41	3.8090	3.8091	-0.7612	25.30	0.11	-0.750			
0.2585	16544.25	3.8060	3.8059	-0.7585	25.30	0.11	-0.750			
0.2608	16689.17	3.8030	3.8030	-0.7597	25.31	0.12	-0.750			
0.2631	16836.43	3.8000	3.8000	-0.7578	25.31	0.12	-0.750			
0.2653	16981.19	3.7970	3.7970	-0.7602	25.31	0.12	-0.750			
0.2676	17128.13	3.7940	3.7940	-0.7613	25.31	0.12	-0.750			
0.2699	17273.65	3.7910	3.7910	-0.7691	25.31	0.12	-0.750			
0.2722	17421.16	3.7880	3.7880	-0.7681	25.32	0.13	-0.750			
0.2745	17569.44	3.7850	3.7850	-0.7715	25.32	0.13	-0.750			
0.2768	17717.66	3.7820	3.7820	-0.7774	25.32	0.13	-0.750			
0.2792	17868.09	3.7790	3.7790	-0.7852	25.32	0.13	-0.750			
0.2815	18017.77	3.7760	3.7759	-0.7876	25.32	0.13	-0.750			
0.2839	18170.54	3.7730	3.7730	-0.7896	25.32	0.13	-0.750			
0.2863	18321.37	3.7700	3.7700	-0.7936	25.32	0.13	-0.750			
0.2887	18476.49	3.7670	3.7670	-0.8024	25.32	0.13	-0.750			
0.2911	18629.87	3.7640	3.7640	-0.8072	25.32	0.13	-0.750			
0.2935	18783.00	3.7610	3.7610	-0.8136	25.32	0.13	-0.750			
0.2960	18940.91	3.7580	3.7580	-0.8218	25.32	0.13	-0.750			
0.2984	19100.42	3.7550	3.7550	-0.8274	25.32	0.13	-0.750			
0.3009	19259.77	3.7520	3.7519	-0.8339	25.32	0.13	-0.750			
0.3034	19420.17	3.7490	3.7491	-0.8382	25.32	0.13	-0.750			
0.3060	19581.33	3.7460	3.7460	-0.8492	25.32	0.13	-0.750			
0.3085	19744.15	3.7430	3.7428	-0.8554	25.32	0.13	-0.750			
0.3111	19909.69	3.7400	3.7401	-0.8605	25.32	0.13	-0.750			
0.3137	20076.27	3.7370	3.7370	-0.8759	25.32	0.13	-0.750			
0.3163	20246.36	3.7340	3.7340	-0.8926	25.32	0.13	-0.750			
0.3190	20418.63	3.7310	3.7310	-0.9041	25.31	0.12	-0.750			
0.3218	20593.45	3.7280	3.7278	-0.9094	25.31	0.12	-0.750			
0.3245	20768.07	3.7250	3.7251	-0.9189	25.30	0.11	-0.750			
0.3273	20947.16	3.7220	3.7221	-0.9326	25.30	0.11	-0.750			
0.3301	21126.12	3.7190	3.7190	-0.9490	25.30	0.11	-0.750			
0.3329	21307.91	3.7160	3.7159	-0.9548	25.29	0.10	-0.750			
0.3358	21493.82	3.7130	3.7129	-0.9641	25.29	0.10	-0.750			
0.3388	21681.69	3.7100	3.7100	-0.9868	25.28	0.09	-0.750			
0.3418	21873.70	3.7070	3.7070	-1.0047	25.28	0.09	-0.750			
0.3448	22068.90	3.7040	3.7038	-1.0122	25.28	0.09	-0.750			
0.3479	22263.99	3.7010	3.7010	-1.0191	25.27	0.08	-0.750	0.362	0.512	
0.3509	22457.68	3.6980	3.6979	-1.0252	25.27	0.08	-0.750			
0.3540	22658.30	3.6950	3.6949	-1.0487	25.27	0.08	-0.750			
0.3572	22860.11	3.6920	3.6918	-1.0595	25.26	0.07	-0.750			
0.3603	23061.30	3.6890	3.6890	-1.0636	25.26	0.07	-0.750			
0.3636	23267.78	3.6860	3.6861	-1.0822	25.25	0.06	-0.750			
0.3669	23484.49	3.6830	3.6829	-1.1116	25.24	0.05	-0.750			
0.3703	23696.97	3.6800	3.6800	-1.1286	25.24	0.05	-0.750			
0.3736	23911.99	3.6770	3.6768	-1.1428	25.23	0.04	-0.750			
0.3771	24133.34	3.6740	3.6743	-1.1689	25.22	0.03	-0.750			
0.3807	24362.81	3.6710	3.6709	-1.1949	25.22	0.03	-0.750			
0.3843	24596.73	3.6680	3.6680	-1.2085	25.21	0.02	-0.750			
0.3880	24831.38	3.6650	3.6649	-1.2205	25.21	0.02	-0.750			
0.3917	25069.93	3.6620	3.6619	-1.2477	25.21	0.02	-0.750			
0.3954	25306.16	3.6590	3.6590	-1.2582	25.20	0.01	-0.750			
0.3991	25545.53	3.6560	3.6559	-1.2754	25.19	-0.00	-0.750			
0.4031	25795.53	3.6530	3.6531	-1.3063	25.18	-0.01	-0.750			
0.4070	26047.95	3.6500	3.6500	-1.3340	25.18	-0.01	-0.750			
0.4111	26308.00	3.6470	3.6470	-1.3582	25.17	-0.02	-0.750			
0.4152	26570.73	3.6440	3.6440	-1.3956	25.17	-0.02	-0.750			
0.4195	26845.40	3.6410	3.6411	-1.4096	25.16	-0.03	-0.750			
0.4237	27116.97	3.6380	3.6378	-1.4370	25.15	-0.04	-0.750			
0.4280	27393.67	3.6350	3.6352	-1.4617	25.14	-0.05	-0.750			
0.4325	27677.31	3.6320	3.6322	-1.4840	25.13	-0.06	-0.750			
0.4368	27956.82	3.6290	3.6291	-1.5119	25.12	-0.07	-0.750			
0.4414	28249.12	3.6260	3.6259	-1.5322	25.12	-0.07	-0.750			
0.4462	28555.76	3.6230	3.6232	-1.5791	25.11	-0.08	-0.750			
0.4510	28863.19	3.6200	3.6198	-1.6245	25.10	-0.09	-0.750			
0.4559	29178.77	3.6170	3.6172	-1.6473	25.09	-0.10	-0.750			
0.4609	29500.25	3.6140	3.6141	-1.6798	25.09	-0.10	-0.750			
0.4660	29821.47	3.6110	3.6110	-1.7214	25.08	-0.11	-0.750			
0.4712	30155.08	3.6080	3.6080	-1.7293	25.07	-0.12	-0.750			
0.4765	30493.85	3.6050	3.6052	-1.7710	25.06	-0.13	-0.750			
0.4817	30829.76	3.6020	3.6019	-1.8049	25.06	-0.13	-0.750			
0.4873	31188.64	3.5990	3.5990	-1.8293	25.05	-0.14	-0.750			
0.4928	31536.34	3.5960	3.5963	-1.8764	25.05	-0.14	-0.750			
0.4985	31902.90	3.5930	3.5932	-1.9006	25.04	-0.15	-0.750			
0.5042	32265.65	3.5900	3.5900	-1.9208	25.04	-0.15	-0.750			
0.5101	32643.56	3.5870	3.5872	-1.9487	25.03	-0.16	-0.750			
0.5160	33026.33	3.5840	3.5840	-1.9811	25.03	-0.16	-0.750			
0.5221	33413.15	3.5810	3.5811	-2.0361	25.02	-0.17	-0.750			
0.5281	33796.41	3.5780	3.5780	-2.0331	25.02	-0.17	-0.750			
0.5343	34192.98	3.5750	3.5750	-2.0547	25.02	-0.17	-0.750			
0.5404	34586.94	3.5720	3.5721	-2.0446	25.02	-0.17	-0.750			
0.5467	34988.37	3.5690	3.5691	-2.0753	25.01	-0.18	-0.750			
0.5530	35391.46	3.5660	3.5659	-2.0685	25.00	-0.19	-0.750			
0.5592	35789.50	3.5630	3.5632	-2.1101	25.01	-0.18	-0.750			
0.5655	36189.55	3.5600	3.5601	-2.1005	25.01	-0.18	-0.750			
0.5719	36602.85	3.5570	3.5568	-2.0938	25.01	-0.18	-0.750			
0.5780	36993.86	3.5540	3.5542	-2.0628	25.01	-0.18	-0.750			
0.5843	37394.59	3.5510	3.5510	-2.0486	25.02	-0.17	-0.750			
0.5904	37788.52	3.5480	3.5480	-2.0274	25.03	-0.16	-0.750			
0.5964	38170.25	3.5450	3.5451	-1.9990	25.03	-0.16	-0.750			
0.6024	38552.57	3.5420	3.5421	-1.9673	25.03	-0.16	-0.750			
0.6082	38927.46	3.5390	3.5388	-1.9491	25.04	-0.15	-0.750			
0.6141	39299.25	3.5360	3.5358	-1.9101	25.06	-0.13	-0.750			
0.6197	39662.66	3.5330	3.5331	-1.8722	25.07	-0.12	-0.750			
0.6255	40029.14	3.5300	3.5299	-1.8094	25.08	-0.11	-0.750			
0.6309	40376.36	3.5270	3.5269	-1.7298	25.09	-0.10	-0.750			
0.6360	40701.25	3.5240	3.5240	-1.6805	25.09	-0.10	-0.750			
0.6407	41006.49	3.5210	3.5209	-1.6223	25.10	-0.09	-0.750			
0.6454	41305.88	3.5180	3.5176	-1.6020	25.12	-0.07	-0.750			
0.6501	41604.26	3.5150	3.5149	-1.5745	25.13	-0.06	-0.750			
0.6549	41911.63	3.5120	3.5118	-1.5512	25.15	-0.04	-0.750			
0.6598	42224.06	3.5090	3.5087	-1.5807	25.16	-0.03	-0.750			
0.6643	42516.85	3.5060	3.5063	-1.5327	25.18	-0.01	-0.750			
0.6689	42811.04	3.5030	3.5028	-1.4974	25.19	0.00	-0.750			
0.6735	43102.11	3.5000	3.4997	-1.4576	25.20	0.01	-0.750			
0.6779	43382.50	3.4970	3.4971	-1.4252	25.21	0.02	-0.750			
0.6822	43663.14	3.4940	3.4938	-1.4037	25.23	0.04	-0.750			
0.6863	43925.61	3.4910	3.4908	-1.3434	25.25	0.06	-0.750			
0.6902	44170.77	3.4880	3.4886	-1.2808	25.26	0.07	-0.750			
0.6940	44418.20	3.4850	3.4848	-1.2152	25.28	0.09	-0.750			
0.6976	44644.26	3.4820	3.4820	-1.1397	25.29	0.10	-0.750			
