Ah_balance (normalized)	Ah_balance (mAh)	Voltage - fit (V)	Voltage -  interpolate (V)	dQ/dV (1/V)	Temperature (°C)	Temperature - diff (°C)	Current (C)	R_DC 0ms (mOhm)	R_DC 50ms (mOhm)	R_DC 50 ms PEC (mOhm)
0.0461	2948.81	4.1990	4.1990	0.7330	25.61	0.44	0.750			
0.0483	3090.00	4.1960	4.1960	0.7399	25.61	0.44	0.750			
0.0505	3234.83	4.1930	4.1929	0.7553	25.61	0.44	0.750			
0.0528	3381.19	4.1900	4.1897	0.7628	25.61	0.44	0.750			
0.0551	3529.48	4.1870	4.1871	0.7672	25.61	0.44	0.750			
0.0575	3678.44	4.1840	4.1840	0.7649	25.61	0.44	0.750			
0.0598	3825.10	4.1810	4.1810	0.7642	25.61	0.44	0.750			
0.0621	3971.49	4.1780	4.1780	0.7705	25.61	0.44	0.750			
0.0643	4116.42	4.1750	4.1751	0.7680	25.61	0.44	0.750			
0.0666	4264.98	4.1720	4.1720	0.7727	25.61	0.44	0.750			
0.0690	4414.62	4.1690	4.1690	0.7738	25.61	0.44	0.750			
0.0713	4563.61	4.1660	4.1661	0.7692	25.61	0.44	0.750			
0.0736	4711.62	4.1630	4.1631	0.7719	25.61	0.44	0.750			
0.0759	4856.61	4.1600	4.1601	0.7703	25.61	0.44	0.750			
0.0782	5003.23	4.1570	4.1563	0.7771	25.61	0.44	0.750			
0.0805	5152.96	4.1540	4.1542	0.7784	25.61	0.44	0.750			
0.0829	5305.27	4.1510	4.1510	0.7782	25.61	0.44	0.750			
0.0853	5458.97	4.1480	4.1480	0.7857	25.61	0.44	0.750			
0.0876	5606.54	4.1450	4.1451	0.7751	25.61	0.44	0.750			
0.0899	5755.21	4.1420	4.1420	0.7762	25.61	0.44	0.750			
0.0922	5903.85	4.1390	4.1391	0.7783	25.61	0.44	0.750			
0.0946	6052.07	4.1360	4.1360	0.7782	25.61	0.44	0.750			
0.0969	6203.56	4.1330	4.1331	0.7869	25.61	0.44	0.750			
0.0993	6356.58	4.1300	4.1300	0.7930	25.61	0.44	0.750			
0.1017	6506.81	4.1270	4.1270	0.7922	25.61	0.44	0.750			
0.1041	6659.81	4.1240	4.1241	0.7944	25.61	0.44	0.750			
0.1065	6813.31	4.1210	4.1210	0.7963	25.61	0.44	0.750			
0.1088	6966.11	4.1180	4.1180	0.7934	25.61	0.44	0.750			
0.1112	7117.50	4.1150	4.1150	0.7963	25.62	0.45	0.750			
0.1136	7270.01	4.1120	4.1120	0.7961	25.62	0.45	0.750			
0.1160	7422.58	4.1090	4.1091	0.8008	25.62	0.45	0.750			
0.1184	7576.15	4.1060	4.1060	0.8028	25.62	0.45	0.750			
0.1208	7732.66	4.1030	4.1030	0.7935	25.62	0.45	0.750			
0.1232	7884.35	4.1000	4.1000	0.7997	25.63	0.46	0.750			
0.1256	8035.79	4.0970	4.0972	0.7989	25.63	0.46	0.750			
0.1279	8188.79	4.0940	4.0935	0.8042	25.63	0.46	0.750			
0.1304	8342.96	4.0910	4.0911	0.8111	25.63	0.46	0.750			
0.1328	8500.44	4.0880	4.0880	0.8135	25.63	0.46	0.750			
0.1353	8660.43	4.0850	4.0850	0.8248	25.64	0.47	0.750			
0.1377	8815.02	4.0820	4.0821	0.8324	25.64	0.47	0.750			
0.1402	8975.16	4.0790	4.0788	0.8526	25.64	0.47	0.750			
0.1428	9141.29	4.0760	4.0758	0.8644	25.64	0.47	0.750			
0.1455	9311.98	4.0730	4.0730	0.8632	25.64	0.47	0.750			
0.1481	9481.40	4.0700	4.0702	0.8700	25.65	0.48	0.750			
0.1508	9650.60	4.0670	4.0671	0.8638	25.65	0.48	0.750			
0.1534	9814.44	4.0640	4.0637	0.8535	25.65	0.48	0.750			
0.1558	9972.36	4.0610	4.0611	0.8368	25.65	0.48	0.750			
0.1583	10132.37	4.0580	4.0581	0.8368	25.65	0.48	0.750			
0.1608	10293.88	4.0550	4.0550	0.8409	25.65	0.48	0.750			
0.1633	10453.40	4.0520	4.0520	0.8422	25.65	0.48	0.750			
0.1659	10615.60	4.0490	4.0489	0.8471	25.65	0.48	0.750			
0.1684	10779.78	4.0460	4.0461	0.8504	25.65	0.48	0.750			
0.1710	10943.85	4.0430	4.0431	0.8534	25.66	0.49	0.750			
0.1736	11109.75	4.0400	4.0400	0.8555	25.66	0.49	0.750			
0.1761	11272.58	4.0370	4.0370	0.8516	25.67	0.50	0.750			
0.1787	11436.31	4.0340	4.0341	0.8544	25.67	0.50	0.750			
0.1813	11600.71	4.0310	4.0310	0.8539	25.67	0.50	0.750			
0.1838	11764.64	4.0280	4.0280	0.8612	25.67	0.50	0.750			
0.1864	11930.53	4.0250	4.0250	0.8639	25.67	0.50	0.750			
0.1890	12096.25	4.0220	4.0220	0.8687	25.67	0.50	0.750			
0.1916	12263.85	4.0190	4.0191	0.8722	25.67	0.50	0.750			
0.1943	12432.53	4.0160	4.0160	0.8704	25.67	0.50	0.750			
0.1969	12598.97	4.0130	4.0130	0.8776	25.67	0.50	0.750			
0.1995	12768.15	4.0100	4.0101	0.8800	25.68	0.51	0.750			
0.2021	12937.00	4.0070	4.0069	0.8806	25.68	0.51	0.750			
0.2048	13107.02	4.0040	4.0041	0.8848	25.68	0.51	0.750			
0.2074	13276.52	4.0010	4.0011	0.8872	25.68	0.51	0.750			
0.2101	13447.84	3.9980	3.9980	0.8909	25.69	0.52	0.750			
0.2128	13620.30	3.9950	3.9950	0.8946	25.69	0.52	0.750			
0.2155	13790.06	3.9920	3.9920	0.8927	25.69	0.52	0.750			
0.2182	13964.93	3.9890	3.9890	0.8908	25.69	0.52	0.750			
0.2208	14133.82	3.9860	3.9860	0.8975	25.69	0.52	0.750			
0.2235	14305.85	3.9830	3.9830	0.8996	25.69	0.52	0.750			
0.2262	14478.60	3.9800	3.9800	0.9034	25.69	0.52	0.750			
0.2290	14652.92	3.9770	3.9771	0.9050	25.69	0.52	0.750			
0.2317	14829.74	3.9740	3.9740	0.8918	25.70	0.53	0.750			
0.2344	14999.97	3.9710	3.9711	0.8999	25.70	0.53	0.750			
0.2370	15170.47	3.9680	3.9681	0.9080	25.70	0.53	0.750			
0.2397	15341.91	3.9650	3.9650	0.9069	25.71	0.54	0.750			
0.2425	15519.17	3.9620	3.9621	0.9150	25.71	0.54	0.750			
0.2452	15695.48	3.9590	3.9591	0.9214	25.71	0.54	0.750			
0.2480	15874.59	3.9560	3.9562	0.9293	25.72	0.55	0.750			
0.2509	16058.23	3.9530	3.9529	0.9349	25.72	0.55	0.750			
0.2536	16232.61	3.9500	3.9500	0.9268	25.72	0.55	0.750			
0.2564	16411.18	3.9470	3.9470	0.9285	25.72	0.55	0.750			
0.2592	16589.78	3.9440	3.9440	0.9321	25.72	0.55	0.750			
0.2620	16769.39	3.9410	3.9411	0.9324	25.73	0.56	0.750			
0.2648	16948.05	3.9380	3.9379	0.9320	25.73	0.56	0.750			
0.2676	17129.25	3.9350	3.9350	0.9230	25.73	0.56	0.750			
0.2704	17304.20	3.9320	3.9320	0.9307	25.73	0.56	0.750			
0.2731	17481.44	3.9290	3.9291	0.9350	25.73	0.56	0.750			
0.2760	17661.21	3.9260	3.9261	0.9411	25.73	0.56	0.750			
0.2788	17841.60	3.9230	3.9228	0.9453	25.73	0.56	0.750			
0.2816	18024.65	3.9200	3.9202	0.9502	25.74	0.57	0.750			
0.2845	18208.10	3.9170	3.9170	0.9566	25.74	0.57	0.750			
0.2874	18393.66	3.9140	3.9140	0.9602	25.74	0.57	0.750			
0.2903	18577.38	3.9110	3.9108	0.9534	25.75	0.58	0.750			
0.2932	18763.88	3.9080	3.9080	0.9474	25.75	0.58	0.750			
0.2960	18943.30	3.9050	3.9051	0.9544	25.75	0.58	0.750			
0.2988	19125.07	3.9020	3.9021	0.9607	25.75	0.58	0.750			
0.3017	19308.15	3.8990	3.8990	0.9610	25.75	0.58	0.750			
0.3046	19494.26	3.8960	3.8960	0.9701	25.75	0.58	0.750			
0.3075	19682.15	3.8930	3.8932	0.9659	25.75	0.58	0.750			
0.3104	19867.74	3.8900	3.8901	0.9686	25.75	0.58	0.750			
0.3134	20055.13	3.8870	3.8871	0.9769	25.75	0.58	0.750			
0.3162	20236.95	3.8840	3.8838	0.9680	25.75	0.58	0.750			
0.3191	20424.79	3.8810	3.8812	0.9715	25.75	0.58	0.750			
0.3221	20612.44	3.8780	3.8781	0.9811	25.75	0.58	0.750			
0.3251	20804.13	3.8750	3.8751	0.9897	25.75	0.58	0.750			
0.3280	20993.41	3.8720	3.8718	0.9852	25.75	0.58	0.750			
0.3310	21183.79	3.8690	3.8690	0.9859	25.75	0.58	0.750			
0.3339	21372.67	3.8660	3.8661	0.9904	25.74	0.57	0.750			
0.3369	21563.56	3.8630	3.8630	0.9950	25.74	0.57	0.750			
0.3399	21754.54	3.8600	3.8599	0.9961	25.73	0.56	0.750			
0.3429	21946.85	3.8570	3.8570	0.9940	25.73	0.56	0.750			
0.3459	22136.85	3.8540	3.8541	1.0022	25.72	0.55	0.750			
0.3489	22330.01	3.8510	3.8511	1.0093	25.72	0.55	0.750			
0.3519	22523.49	3.8480	3.8480	1.0146	25.71	0.54	0.750			
0.3550	22719.76	3.8450	3.8450	1.0184	25.71	0.54	0.750			
0.3581	22917.13	3.8420	3.8421	1.0242	25.70	0.53	0.750			
0.3611	23113.00	3.8390	3.8391	1.0369	25.70	0.53	0.750			
0.3643	23314.63	3.8360	3.8360	1.0493	25.69	0.52	0.750			
0.3674	23515.91	3.8330	3.8328	1.0473	25.69	0.52	0.750	0.342	0.434	
0.3706	23717.96	3.8300	3.8300	1.0511	25.68	0.51	0.750			
0.3738	23920.38	3.8270	3.8272	1.0536	25.67	0.50	0.750			
0.3770	24124.87	3.8240	3.8239	1.0619	25.66	0.49	0.750			
0.3802	24329.77	3.8210	3.8209	1.0506	25.66	0.49	0.750			
0.3832	24526.12	3.8180	3.8180	1.0513	25.65	0.48	0.750			
0.3864	24729.06	3.8150	3.8151	1.0591	25.64	0.47	0.750			
0.3896	24934.70	3.8120	3.8120	1.0683	25.63	0.46	0.750			
0.3928	25140.02	3.8090	3.8090	1.0670	25.62	0.45	0.750			
0.3960	25344.84	3.8060	3.8060	1.0712	25.61	0.44	0.750			
0.3992	25549.69	3.8030	3.8031	1.0820	25.60	0.43	0.750			
0.4025	25760.12	3.8000	3.7999	1.0963	25.59	0.42	0.750			
0.4058	25968.92	3.7970	3.7969	1.0870	25.58	0.41	0.750			
0.4090	26176.54	3.7940	3.7941	1.1074	25.58	0.41	0.750			
0.4123	26389.31	3.7910	3.7912	1.1244	25.57	0.40	0.750			
0.4158	26609.28	3.7880	3.7875	1.1357	25.56	0.39	0.750			
0.4192	26826.73	3.7850	3.7851	1.1514	25.55	0.38	0.750			
0.4226	27048.42	3.7820	3.7821	1.1721	25.54	0.37	0.750			
0.4262	27276.84	3.7790	3.7791	1.1982	25.53	0.36	0.750			
0.4298	27507.04	3.7760	3.7761	1.2118	25.52	0.35	0.750			
0.4335	27742.00	3.7730	3.7730	1.2384	25.51	0.34	0.750			
0.4372	27983.84	3.7700	3.7701	1.2644	25.49	0.32	0.750			
0.4411	28233.25	3.7670	3.7669	1.2839	25.48	0.31	0.750			
0.4449	28476.01	3.7640	3.7641	1.3019	25.47	0.30	0.750			
0.4488	28725.22	3.7610	3.7611	1.3297	25.46	0.29	0.750			
0.4529	28982.63	3.7580	3.7578	1.3569	25.45	0.28	0.750			
0.4569	29244.26	3.7550	3.7550	1.3906	25.43	0.26	0.750			
0.4612	29516.09	3.7520	3.7521	1.4241	25.42	0.25	0.750			
0.4655	29795.10	3.7490	3.7487	1.4648	25.40	0.23	0.750			
0.4700	30078.87	3.7460	3.7461	1.4895	25.39	0.22	0.750			
0.4745	30368.81	3.7430	3.7431	1.5162	25.38	0.21	0.750			
0.4791	30662.34	3.7400	3.7401	1.5462	25.37	0.20	0.750			
0.4838	30961.26	3.7370	3.7368	1.5820	25.35	0.18	0.750			
0.4885	31263.25	3.7340	3.7342	1.6302	25.33	0.16	0.750			
0.4934	31578.39	3.7310	3.7310	1.6925	25.31	0.14	0.750			
0.4989	31929.35	3.7280	3.7278	1.6970	25.29	0.12	0.750			
0.5040	32257.87	3.7250	3.7246	1.7129	25.28	0.11	0.750			
0.5091	32580.69	3.7220	3.7223	1.7492	25.27	0.10	0.750			
0.5142	32910.62	3.7190	3.7195	1.7608	25.25	0.08	0.750			
0.5196	33255.08	3.7160	3.7157	1.7698	25.24	0.07	0.750			
0.5247	33578.03	3.7130	3.7132	1.8816	25.22	0.05	0.750			
0.5305	33951.94	3.7100	3.7096	2.0098	25.20	0.03	0.750			
0.5369	34363.23	3.7070	3.7069	2.0965	25.18	0.01	0.750			
0.5432	34761.72	3.7040	3.7046	2.1582	25.16	-0.01	0.750			
0.5500	35199.84	3.7010	3.7003	2.2086	25.15	-0.02	0.750			
0.5566	35622.50	3.6980	3.6982	2.2956	25.13	-0.04	0.750			
0.5639	36086.79	3.6950	3.6953	2.3346	25.12	-0.05	0.750			
0.5708	36532.43	3.6920	3.6925	2.4075	25.11	-0.06	0.750			
0.5781	37000.03	3.6890	3.6883	2.5235	25.09	-0.08	0.750			
0.5860	37501.21	3.6860	3.6861	2.5120	25.07	-0.10	0.750			
0.5935	37984.62	3.6830	3.6826	2.6953	25.06	-0.11	0.750			
0.6015	38498.64	3.6800	3.6803	2.8264	25.04	-0.13	0.750			
0.6099	39031.49	3.6770	3.6767	2.8718	25.04	-0.13	0.750			
0.6183	39573.94	3.6740	3.6742	2.9518	25.04	-0.13	0.750			
0.6266	40103.93	3.6710	3.6710	2.8834	25.03	-0.14	0.750			
0.6356	40678.44	3.6680	3.6677	2.9774	25.02	-0.15	0.750			
0.6442	41228.87	3.6650	3.6650	2.8143	25.02	-0.15	0.750			
0.6529	41785.76	3.6620	3.6614	2.8582	25.03	-0.14	0.750			
0.6608	42290.82	3.6590	3.6589	2.5460	25.04	-0.13	0.750			
0.6682	42763.06	3.6560	3.6554	2.3448	25.04	-0.13	0.750			
0.6744	43161.87	3.6530	3.6528	2.0647	25.05	-0.12	0.750			
0.6800	43520.34	3.6500	3.6503	1.8357	25.06	-0.11	0.750			
0.6851	43848.65	3.6470	3.6472	1.6566	25.07	-0.10	0.750			
0.6899	44152.84	3.6440	3.6439	1.4963	25.08	-0.09	0.750			
0.6942	44428.43	3.6410	3.6414	1.3573	25.09	-0.08	0.750			
0.6981	44681.38	3.6380	3.6381	1.2343	25.09	-0.08	0.750			
0.7015	44897.90	3.6350	3.6350	1.1298	25.10	-0.07	0.750			
0.7046	45096.80	3.6320	3.6319	1.0451	25.10	-0.07	0.750			
0.7074	45272.41	3.6290	3.6290	0.9548	25.11	-0.06	0.750			
0.7101	45448.04	3.6260	3.6260	0.9233	25.12	-0.05	0.750			
0.7128	45620.22	3.6230	3.6231	0.9033	25.12	-0.05	0.750			
0.7155	45790.76	3.6200	3.6194	0.8822	25.13	-0.04	0.750			
0.7181	45961.28	3.6170	3.6170	0.8568	25.14	-0.03	0.750			
0.7207	46127.89	3.6140	3.6141	0.8186	25.15	-0.02	0.750			
0.7233	46288.33	3.6110	3.6110	0.7779	25.15	-0.02	0.750			
0.7256	46436.81	3.6080	3.6080	0.7212	25.16	-0.01	0.750			
0.7276	46564.11	3.6050	3.6049	0.6411	25.17	-0.00	0.750			
0.7294	46680.47	3.6020	3.6021	0.5722	25.17	0.00	0.750			
0.7310	46782.74	3.5990	3.5991	0.5019	25.18	0.01	0.750			
0.7324	46872.41	3.5960	3.5961	0.4357	25.18	0.01	0.750			
0.7336	46952.10	3.5930	3.5928	0.3721	25.19	0.02	0.750			
0.7346	47012.05	3.5900	3.5900	0.3052	25.19	0.02	0.750			
0.7354	47064.12	3.5870	3.5873	0.2455	25.19	0.02	0.750			
0.7360	47105.67	3.5840	3.5839	0.1901	25.20	0.03	0.750			
0.7365	47135.18	3.5810	3.5811	0.1360	25.20	0.03	0.750			
0.7368	47156.10	3.5780	3.5800	0.0874	25.20	0.03	0.750			
0.7370	47167.75	3.5750	3.5785	0.0570	25.20	0.03	0.750			
