Ah_balance (normalized)	Ah_balance (mAh)	Voltage - fit (V)	Voltage -  interpolate (V)	dQ/dV (1/V)	Temperature (°C)	Temperature - diff (°C)	Current (C)	R_DC 0ms (mOhm)	R_DC 50ms (mOhm)	R_DC 50 ms PEC (mOhm)
0.0483	3091.60	4.1980	4.1980	0.7290	25.56	0.62	0.750			
0.0505	3234.08	4.1950	4.1947	0.7483	25.56	0.62	0.750			
0.0528	3378.17	4.1920	4.1921	0.7525	25.56	0.62	0.750			
0.0551	3523.89	4.1890	4.1890	0.7543	25.56	0.62	0.750			
0.0573	3669.42	4.1860	4.1859	0.7566	25.55	0.61	0.750			
0.0596	3814.49	4.1830	4.1830	0.7583	25.55	0.61	0.750			
0.0619	3959.45	4.1800	4.1800	0.7558	25.55	0.61	0.750			
0.0641	4104.48	4.1770	4.1770	0.7562	25.55	0.61	0.750			
0.0664	4249.60	4.1740	4.1740	0.7571	25.55	0.61	0.750			
0.0687	4395.08	4.1710	4.1710	0.7524	25.55	0.61	0.750			
0.0709	4538.39	4.1680	4.1680	0.7560	25.55	0.61	0.750			
0.0732	4682.54	4.1650	4.1651	0.7578	25.55	0.61	0.750			
0.0754	4828.29	4.1620	4.1618	0.7613	25.55	0.61	0.750			
0.0777	4975.45	4.1590	4.1590	0.7675	25.55	0.61	0.750			
0.0801	5124.46	4.1560	4.1561	0.7660	25.55	0.61	0.750			
0.0824	5272.11	4.1530	4.1530	0.7689	25.55	0.61	0.750			
0.0847	5418.90	4.1500	4.1500	0.7664	25.55	0.61	0.750			
0.0870	5565.67	4.1470	4.1471	0.7692	25.55	0.61	0.750			
0.0893	5713.30	4.1440	4.1440	0.7678	25.55	0.61	0.750			
0.0916	5860.78	4.1410	4.1410	0.7697	25.55	0.61	0.750			
0.0939	6009.28	4.1380	4.1381	0.7699	25.55	0.61	0.750			
0.0962	6157.77	4.1350	4.1349	0.7715	25.55	0.61	0.750			
0.0985	6305.42	4.1320	4.1320	0.7743	25.55	0.61	0.750			
0.1008	6453.65	4.1290	4.1290	0.7752	25.55	0.61	0.750			
0.1032	6603.27	4.1260	4.1259	0.7754	25.55	0.61	0.750			
0.1055	6753.72	4.1230	4.1231	0.7742	25.55	0.61	0.750			
0.1078	6901.63	4.1200	4.1200	0.7750	25.55	0.61	0.750			
0.1102	7050.25	4.1170	4.1170	0.7761	25.55	0.61	0.750			
0.1125	7198.29	4.1140	4.1139	0.7762	25.55	0.61	0.750			
0.1148	7346.81	4.1110	4.1110	0.7785	25.55	0.61	0.750			
0.1172	7499.24	4.1080	4.1080	0.7767	25.55	0.61	0.750			
0.1195	7646.94	4.1050	4.1051	0.7830	25.55	0.61	0.750			
0.1218	7797.78	4.1020	4.1020	0.7868	25.55	0.61	0.750			
0.1242	7947.84	4.0990	4.0990	0.7886	25.55	0.61	0.750			
0.1265	8098.94	4.0960	4.0959	0.7917	25.55	0.61	0.750			
0.1289	8252.52	4.0930	4.0931	0.7943	25.55	0.61	0.750			
0.1314	8406.85	4.0900	4.0900	0.7986	25.55	0.61	0.750			
0.1338	8560.42	4.0870	4.0871	0.8043	25.55	0.61	0.750			
0.1362	8713.86	4.0840	4.0840	0.8001	25.55	0.61	0.750			
0.1386	8868.08	4.0810	4.0809	0.8041	25.55	0.61	0.750			
0.1410	9022.76	4.0780	4.0781	0.8061	25.55	0.61	0.750			
0.1434	9177.99	4.0750	4.0750	0.8039	25.55	0.61	0.750			
0.1458	9331.21	4.0720	4.0720	0.8075	25.55	0.61	0.750			
0.1482	9486.35	4.0690	4.0691	0.8075	25.55	0.61	0.750			
0.1506	9640.80	4.0660	4.0658	0.8109	25.55	0.61	0.750			
0.1531	9797.93	4.0630	4.0630	0.8168	25.55	0.61	0.750			
0.1556	9955.86	4.0600	4.0600	0.8122	25.55	0.61	0.750			
0.1580	10111.28	4.0570	4.0570	0.8194	25.56	0.62	0.750			
0.1604	10267.61	4.0540	4.0541	0.8186	25.56	0.62	0.750			
0.1629	10424.92	4.0510	4.0508	0.8229	25.56	0.62	0.750			
0.1654	10583.39	4.0480	4.0481	0.8287	25.56	0.62	0.750			
0.1679	10742.51	4.0450	4.0451	0.8332	25.56	0.62	0.750			
0.1704	10906.05	4.0420	4.0419	0.8396	25.57	0.63	0.750			
0.1729	11067.31	4.0390	4.0390	0.8341	25.57	0.63	0.750			
0.1754	11227.04	4.0360	4.0360	0.8363	25.57	0.63	0.750			
0.1779	11388.27	4.0330	4.0330	0.8401	25.57	0.63	0.750			
0.1805	11549.89	4.0300	4.0299	0.8391	25.57	0.63	0.750			
0.1830	11709.40	4.0270	4.0270	0.8427	25.57	0.63	0.750			
0.1855	11870.67	4.0240	4.0241	0.8479	25.57	0.63	0.750			
0.1881	12035.64	4.0210	4.0208	0.8524	25.57	0.63	0.750			
0.1906	12200.56	4.0180	4.0180	0.8554	25.57	0.63	0.750			
0.1932	12364.66	4.0150	4.0150	0.8517	25.57	0.63	0.750			
0.1958	12528.83	4.0120	4.0121	0.8535	25.57	0.63	0.750			
0.1983	12690.78	4.0090	4.0090	0.8536	25.57	0.63	0.750			
0.2008	12854.03	4.0060	4.0055	0.8590	25.57	0.63	0.750			
0.2034	13020.04	4.0030	4.0030	0.8594	25.57	0.63	0.750			
0.2060	13186.05	4.0000	4.0000	0.8660	25.57	0.63	0.750			
0.2087	13354.83	3.9970	3.9970	0.8712	25.58	0.64	0.750			
0.2113	13522.69	3.9940	3.9940	0.8745	25.58	0.64	0.750			
0.2139	13689.95	3.9910	3.9910	0.8680	25.58	0.64	0.750			
0.2165	13857.10	3.9880	3.9880	0.8599	25.58	0.64	0.750			
0.2191	14020.53	3.9850	3.9851	0.8606	25.58	0.64	0.750			
0.2216	14184.68	3.9820	3.9821	0.8653	25.59	0.65	0.750			
0.2242	14350.08	3.9790	3.9789	0.8666	25.59	0.65	0.750			
0.2268	14515.63	3.9760	3.9760	0.8720	25.59	0.65	0.750			
0.2294	14684.60	3.9730	3.9731	0.8737	25.59	0.65	0.750			
0.2321	14855.37	3.9700	3.9700	0.8835	25.59	0.65	0.750			
0.2348	15025.20	3.9670	3.9670	0.8860	25.59	0.65	0.750			
0.2374	15193.48	3.9640	3.9640	0.8863	25.59	0.65	0.750			
0.2401	15364.69	3.9610	3.9610	0.8919	25.59	0.65	0.750			
0.2428	15537.77	3.9580	3.9580	0.8888	25.59	0.65	0.750			
0.2454	15707.85	3.9550	3.9551	0.8888	25.59	0.65	0.750			
0.2481	15879.02	3.9520	3.9521	0.8942	25.59	0.65	0.750			
0.2508	16048.88	3.9490	3.9487	0.8903	25.59	0.65	0.750			
0.2534	16218.78	3.9460	3.9460	0.8913	25.59	0.65	0.750			
0.2561	16389.72	3.9430	3.9431	0.8852	25.59	0.65	0.750			
0.2587	16559.95	3.9400	3.9401	0.8926	25.59	0.65	0.750			
0.2614	16730.74	3.9370	3.9371	0.8934	25.59	0.65	0.750			
0.2641	16902.16	3.9340	3.9341	0.8942	25.59	0.65	0.750			
0.2668	17075.49	3.9310	3.9311	0.8933	25.58	0.64	0.750			
0.2695	17248.93	3.9280	3.9281	0.8993	25.58	0.64	0.750			
0.2722	17422.14	3.9250	3.9250	0.9016	25.58	0.64	0.750			
0.2749	17594.35	3.9220	3.9220	0.8925	25.57	0.63	0.750			
0.2776	17765.98	3.9190	3.9192	0.8942	25.57	0.63	0.750			
0.2803	17937.86	3.9160	3.9160	0.8944	25.57	0.63	0.750			
0.2830	18110.05	3.9130	3.9130	0.8970	25.56	0.62	0.750			
0.2857	18283.38	3.9100	3.9100	0.8990	25.56	0.62	0.750			
0.2884	18454.59	3.9070	3.9071	0.8984	25.56	0.62	0.750			
0.2911	18629.35	3.9040	3.9039	0.8867	25.56	0.62	0.750			
0.2937	18798.14	3.9010	3.9010	0.8932	25.55	0.61	0.750			
0.2964	18968.16	3.8980	3.8980	0.8934	25.55	0.61	0.750			
0.2991	19139.81	3.8950	3.8950	0.8926	25.54	0.60	0.750			
0.3017	19310.87	3.8920	3.8921	0.8911	25.54	0.60	0.750			
0.3044	19483.36	3.8890	3.8891	0.8864	25.53	0.59	0.750			
0.3071	19653.17	3.8860	3.8861	0.8908	25.53	0.59	0.750			
0.3098	19824.62	3.8830	3.8830	0.8950	25.52	0.58	0.750			
0.3124	19994.18	3.8800	3.8799	0.8850	25.51	0.57	0.750			
0.3151	20165.75	3.8770	3.8771	0.8917	25.51	0.57	0.750			
0.3178	20338.17	3.8740	3.8741	0.8933	25.50	0.56	0.750			
0.3205	20509.69	3.8710	3.8710	0.8932	25.49	0.55	0.750			
0.3232	20682.17	3.8680	3.8680	0.8968	25.49	0.55	0.750			
0.3258	20851.09	3.8650	3.8648	0.8951	25.48	0.54	0.750			
0.3285	21023.60	3.8620	3.8620	0.8962	25.47	0.53	0.750			
0.3312	21196.51	3.8590	3.8590	0.9041	25.47	0.53	0.750			
0.3339	21369.77	3.8560	3.8561	0.9096	25.46	0.52	0.750			
0.3367	21545.63	3.8530	3.8531	0.9162	25.45	0.51	0.750			
0.3394	21722.44	3.8500	3.8501	0.9190	25.45	0.51	0.750			
0.3421	21897.43	3.8470	3.8471	0.9254	25.43	0.49	0.750			
0.3448	22070.13	3.8440	3.8442	0.9288	25.42	0.48	0.750			
0.3476	22249.56	3.8410	3.8411	0.9448	25.41	0.47	0.750			
0.3505	22431.75	3.8380	3.8376	0.9564	25.40	0.46	0.750	0.300	0.423	
0.3534	22617.07	3.8350	3.8354	0.9679	25.39	0.45	0.750			
0.3564	22806.64	3.8320	3.8321	0.9773	25.39	0.45	0.750			
0.3594	23001.03	3.8290	3.8290	0.9823	25.38	0.44	0.750			
0.3624	23190.64	3.8260	3.8259	0.9822	25.37	0.43	0.750			
0.3652	23371.92	3.8230	3.8230	0.9583	25.36	0.42	0.750			
0.3680	23555.03	3.8200	3.8200	0.9701	25.35	0.41	0.750			
0.3709	23739.49	3.8170	3.8171	0.9801	25.34	0.40	0.750			
0.3739	23927.43	3.8140	3.8140	0.9942	25.33	0.39	0.750			
0.3769	24119.65	3.8110	3.8110	1.0044	25.32	0.38	0.750			
0.3799	24314.07	3.8080	3.8081	1.0008	25.31	0.37	0.750			
0.3829	24505.69	3.8050	3.8051	1.0139	25.30	0.36	0.750			
0.3859	24700.49	3.8020	3.8022	1.0291	25.29	0.35	0.750			
0.3890	24895.83	3.7990	3.7985	1.0381	25.28	0.34	0.750			
0.3921	25095.98	3.7960	3.7961	1.0557	25.27	0.33	0.750			
0.3953	25301.65	3.7930	3.7932	1.0810	25.26	0.32	0.750			
0.3987	25516.97	3.7900	3.7899	1.1058	25.25	0.31	0.750			
0.4021	25731.54	3.7870	3.7870	1.0948	25.24	0.30	0.750			
0.4053	25941.74	3.7840	3.7840	1.1163	25.23	0.29	0.750			
0.4087	26156.66	3.7810	3.7811	1.1387	25.21	0.27	0.750			
0.4121	26375.45	3.7780	3.7779	1.1589	25.20	0.26	0.750			
0.4156	26601.47	3.7750	3.7752	1.1596	25.19	0.25	0.750			
0.4191	26820.79	3.7720	3.7722	1.1962	25.18	0.24	0.750			
0.4227	27053.89	3.7690	3.7691	1.2269	25.17	0.23	0.750			
0.4265	27293.59	3.7660	3.7654	1.2567	25.16	0.22	0.750			
0.4302	27535.92	3.7630	3.7632	1.2822	25.15	0.21	0.750			
0.4341	27785.12	3.7600	3.7601	1.3124	25.13	0.19	0.750			
0.4382	28045.99	3.7570	3.7569	1.3362	25.12	0.18	0.750			
0.4422	28298.71	3.7540	3.7541	1.3480	25.11	0.17	0.750			
0.4462	28558.59	3.7510	3.7511	1.3841	25.10	0.16	0.750			
0.4506	28837.78	3.7480	3.7476	1.3838	25.09	0.15	0.750			
0.4548	29106.73	3.7450	3.7450	1.3968	25.08	0.14	0.750			
0.4588	29365.77	3.7420	3.7423	1.4528	25.06	0.12	0.750			
0.4632	29645.80	3.7390	3.7383	1.4893	25.05	0.11	0.750			
0.4677	29930.26	3.7360	3.7362	1.5309	25.04	0.10	0.750			
0.4723	30228.22	3.7330	3.7333	1.5946	25.02	0.08	0.750			
0.4774	30552.93	3.7300	3.7295	1.6355	25.01	0.07	0.750			
0.4824	30874.07	3.7270	3.7268	1.6992	24.99	0.05	0.750			
0.4876	31205.32	3.7240	3.7240	1.7268	24.98	0.04	0.750			
0.4926	31527.86	3.7210	3.7207	1.7874	24.97	0.03	0.750			
0.4981	31878.34	3.7180	3.7181	1.8306	24.96	0.02	0.750			
0.5036	32227.76	3.7150	3.7156	1.8917	24.94	0.00	0.750			
0.5096	32615.64	3.7120	3.7118	1.9532	24.93	-0.01	0.750			
0.5155	32992.30	3.7090	3.7087	2.0262	24.91	-0.03	0.750			
0.5215	33379.09	3.7060	3.7062	2.0782	24.90	-0.04	0.750			
0.5279	33787.97	3.7030	3.7024	2.1491	24.88	-0.06	0.750			
0.5344	34201.57	3.7000	3.7001	2.1191	24.87	-0.07	0.750			
0.5409	34620.68	3.6970	3.6975	2.1510	24.86	-0.08	0.750			
0.5474	35036.74	3.6940	3.6936	2.2994	24.85	-0.09	0.750			
0.5545	35485.79	3.6910	3.6913	2.3469	24.83	-0.11	0.750			
0.5619	35962.62	3.6880	3.6881	2.4856	24.82	-0.12	0.750			
0.5693	36435.96	3.6850	3.6852	2.4664	24.82	-0.12	0.750			
0.5768	36913.11	3.6820	3.6822	2.5026	24.82	-0.12	0.750			
0.5841	37383.63	3.6790	3.6789	2.5457	24.81	-0.13	0.750			
0.5917	37868.88	3.6760	3.6764	2.5456	24.80	-0.14	0.750			
0.5993	38352.11	3.6730	3.6733	2.4056	24.80	-0.14	0.750			
0.6066	38821.76	3.6700	3.6703	2.3257	24.80	-0.14	0.750			
0.6134	39256.27	3.6670	3.6665	2.2293	24.80	-0.14	0.750			
0.6199	39676.30	3.6640	3.6639	2.1456	24.81	-0.13	0.750			
0.6259	40056.63	3.6610	3.6615	1.9478	24.82	-0.12	0.750			
0.6316	40422.93	3.6580	3.6584	1.8158	24.83	-0.11	0.750			
0.6367	40749.69	3.6550	3.6553	1.6606	24.84	-0.10	0.750			
0.6415	41054.37	3.6520	3.6523	1.5217	24.84	-0.10	0.750			
0.6459	41338.38	3.6490	3.6492	1.4176	24.85	-0.09	0.750			
0.6499	41593.67	3.6460	3.6460	1.3183	24.85	-0.09	0.750			
0.6536	41829.69	3.6430	3.6431	1.2183	24.85	-0.09	0.750			
0.6570	42051.13	3.6400	3.6402	1.1475	24.86	-0.08	0.750			
0.6604	42266.30	3.6370	3.6371	1.0958	24.87	-0.07	0.750			
0.6637	42478.17	3.6340	3.6338	1.0674	24.87	-0.07	0.750			
0.6667	42667.69	3.6310	3.6310	0.9751	24.88	-0.06	0.750			
0.6695	42846.41	3.6280	3.6280	0.9451	24.88	-0.06	0.750			
0.6723	43024.84	3.6250	3.6251	0.9162	24.89	-0.05	0.750			
0.6750	43197.53	3.6220	3.6219	0.8843	24.90	-0.04	0.750			
0.6776	43364.94	3.6190	3.6191	0.8457	24.91	-0.03	0.750			
0.6801	43529.15	3.6160	3.6161	0.8014	24.91	-0.03	0.750			
0.6825	43681.28	3.6130	3.6130	0.7530	24.92	-0.02	0.750			
0.6848	43827.28	3.6100	3.6100	0.6988	24.93	-0.01	0.750			
0.6867	43946.19	3.6070	3.6072	0.6367	24.93	-0.01	0.750			
0.6885	44062.77	3.6040	3.6034	0.5906	24.94	0.00	0.750			
0.6901	44169.45	3.6010	3.6007	0.5391	24.95	0.01	0.750			
0.6917	44269.11	3.5980	3.5984	0.4961	24.95	0.01	0.750			
0.6932	44362.22	3.5950	3.5953	0.4493	24.96	0.02	0.750			
0.6945	44445.58	3.5920	3.5920	0.3988	24.96	0.02	0.750			
0.6956	44519.41	3.5890	3.5890	0.3506	24.96	0.02	0.750			
0.6965	44579.06	3.5860	3.5860	0.2884	24.97	0.03	0.750			
0.6973	44630.16	3.5830	3.5830	0.2383	24.97	0.03	0.750			
0.6980	44671.45	3.5800	3.5800	0.1856	24.97	0.03	0.750			
0.6985	44701.47	3.5770	3.5774	0.1341	24.97	0.03	0.750			
0.6988	44722.26	3.5740	3.5745	0.0819	24.97	0.03	0.750			
