Ah_balance (normalized)	Ah_balance (mAh)	Voltage - fit (V)	Voltage -  interpolate (V)	dQ/dV (1/V)	Temperature (°C)	Temperature - diff (°C)	Current (C)	R_DC 0ms (mOhm)	R_DC 50ms (mOhm)	R_DC 50 ms PEC (mOhm)
0.0480	3073.34	4.1970	4.1969	0.7626	25.27	0.43	0.750			
0.0503	3217.89	4.1940	4.1941	0.7551	25.27	0.43	0.750			
0.0525	3362.55	4.1910	4.1910	0.7549	25.27	0.43	0.750			
0.0548	3507.22	4.1880	4.1878	0.7572	25.27	0.43	0.750			
0.0571	3652.36	4.1850	4.1849	0.7586	25.27	0.43	0.750			
0.0594	3798.94	4.1820	4.1820	0.7554	25.27	0.43	0.750			
0.0616	3944.35	4.1790	4.1790	0.7643	25.27	0.43	0.750			
0.0639	4091.57	4.1760	4.1761	0.7628	25.27	0.43	0.750			
0.0662	4238.68	4.1730	4.1730	0.7675	25.27	0.43	0.750			
0.0685	4387.09	4.1700	4.1701	0.7703	25.27	0.43	0.750			
0.0709	4534.93	4.1670	4.1670	0.7680	25.27	0.43	0.750			
0.0732	4682.19	4.1640	4.1640	0.7670	25.27	0.43	0.750			
0.0755	4829.73	4.1610	4.1611	0.7716	25.27	0.43	0.750			
0.0778	4976.24	4.1580	4.1580	0.7690	25.27	0.43	0.750			
0.0801	5124.63	4.1550	4.1550	0.7754	25.27	0.43	0.750			
0.0824	5272.90	4.1520	4.1521	0.7763	25.27	0.43	0.750			
0.0847	5423.80	4.1490	4.1490	0.7783	25.27	0.43	0.750			
0.0871	5575.58	4.1460	4.1460	0.7840	25.27	0.43	0.750			
0.0894	5723.39	4.1430	4.1430	0.7807	25.27	0.43	0.750			
0.0918	5874.29	4.1400	4.1399	0.7860	25.27	0.43	0.750			
0.0942	6026.89	4.1370	4.1369	0.7859	25.27	0.43	0.750			
0.0965	6178.23	4.1340	4.1340	0.7815	25.27	0.43	0.750			
0.0989	6330.00	4.1310	4.1310	0.7821	25.27	0.43	0.750			
0.1012	6478.76	4.1280	4.1280	0.7844	25.27	0.43	0.750			
0.1035	6626.57	4.1250	4.1250	0.7830	25.27	0.43	0.750			
0.1059	6776.99	4.1220	4.1220	0.7867	25.27	0.43	0.750			
0.1083	6928.96	4.1190	4.1191	0.7935	25.27	0.43	0.750			
0.1107	7084.08	4.1160	4.1160	0.7867	25.27	0.43	0.750			
0.1130	7233.24	4.1130	4.1131	0.7951	25.28	0.44	0.750			
0.1154	7385.15	4.1100	4.1101	0.7961	25.28	0.44	0.750			
0.1178	7537.39	4.1070	4.1065	0.8008	25.28	0.44	0.750			
0.1202	7690.91	4.1040	4.1041	0.8056	25.28	0.44	0.750			
0.1226	7846.59	4.1010	4.1011	0.8107	25.28	0.44	0.750			
0.1251	8006.77	4.0980	4.0980	0.8132	25.28	0.44	0.750			
0.1275	8162.19	4.0950	4.0950	0.8028	25.28	0.44	0.750			
0.1299	8315.53	4.0920	4.0918	0.8024	25.28	0.44	0.750			
0.1323	8468.76	4.0890	4.0892	0.8068	25.28	0.44	0.750			
0.1347	8624.00	4.0860	4.0859	0.8012	25.28	0.44	0.750			
0.1371	8777.09	4.0830	4.0829	0.8059	25.29	0.45	0.750			
0.1395	8930.32	4.0800	4.0801	0.8050	25.29	0.45	0.750			
0.1419	9084.32	4.0770	4.0769	0.8310	25.29	0.45	0.750			
0.1444	9243.40	4.0740	4.0742	0.8490	25.29	0.45	0.750			
0.1470	9410.35	4.0710	4.0708	0.8558	25.29	0.45	0.750			
0.1496	9577.55	4.0680	4.0679	0.8690	25.30	0.46	0.750			
0.1523	9748.76	4.0650	4.0653	0.8665	25.30	0.46	0.750			
0.1550	9917.13	4.0620	4.0617	0.8646	25.30	0.46	0.750			
0.1576	10085.55	4.0590	4.0589	0.8562	25.30	0.46	0.750			
0.1601	10245.74	4.0560	4.0560	0.8431	25.30	0.46	0.750			
0.1626	10404.18	4.0530	4.0531	0.8376	25.30	0.46	0.750			
0.1650	10563.08	4.0500	4.0500	0.8376	25.30	0.46	0.750			
0.1676	10723.25	4.0470	4.0469	0.8397	25.30	0.46	0.750			
0.1701	10887.59	4.0440	4.0439	0.8409	25.30	0.46	0.750			
0.1726	11048.59	4.0410	4.0411	0.8469	25.30	0.46	0.750			
0.1752	11211.53	4.0380	4.0381	0.8530	25.30	0.46	0.750			
0.1777	11375.67	4.0350	4.0350	0.8516	25.30	0.46	0.750			
0.1803	11538.58	4.0320	4.0319	0.8563	25.30	0.46	0.750			
0.1829	11704.38	4.0290	4.0291	0.8555	25.30	0.46	0.750			
0.1855	11870.28	4.0260	4.0260	0.8601	25.30	0.46	0.750			
0.1881	12035.44	4.0230	4.0230	0.8653	25.31	0.47	0.750			
0.1906	12200.14	4.0200	4.0201	0.8646	25.31	0.47	0.750			
0.1932	12365.71	4.0170	4.0171	0.8694	25.31	0.47	0.750			
0.1958	12534.08	4.0140	4.0140	0.8766	25.31	0.47	0.750			
0.1985	12702.76	4.0110	4.0110	0.8784	25.31	0.47	0.750			
0.2012	12873.71	4.0080	4.0080	0.8837	25.31	0.47	0.750			
0.2038	13043.17	4.0050	4.0050	0.8869	25.31	0.47	0.750			
0.2065	13213.45	4.0020	4.0021	0.8887	25.31	0.47	0.750			
0.2091	13384.09	3.9990	3.9990	0.8882	25.31	0.47	0.750			
0.2118	13554.93	3.9960	3.9960	0.8882	25.32	0.48	0.750			
0.2145	13725.28	3.9930	3.9931	0.8919	25.32	0.48	0.750			
0.2171	13896.92	3.9900	3.9897	0.8932	25.32	0.48	0.750			
0.2198	14069.40	3.9870	3.9871	0.8913	25.32	0.48	0.750			
0.2225	14239.64	3.9840	3.9841	0.8913	25.32	0.48	0.750			
0.2252	14410.75	3.9810	3.9810	0.8983	25.32	0.48	0.750			
0.2279	14583.81	3.9780	3.9780	0.9034	25.32	0.48	0.750			
0.2306	14755.46	3.9750	3.9749	0.9033	25.32	0.48	0.750			
0.2333	14929.15	3.9720	3.9719	0.9038	25.32	0.48	0.750			
0.2360	15104.72	3.9690	3.9691	0.9110	25.32	0.48	0.750			
0.2388	15280.23	3.9660	3.9660	0.9151	25.33	0.49	0.750			
0.2415	15456.44	3.9630	3.9629	0.9139	25.33	0.49	0.750			
0.2443	15633.16	3.9600	3.9600	0.9101	25.33	0.49	0.750			
0.2470	15807.47	3.9570	3.9570	0.9088	25.34	0.50	0.750			
0.2497	15981.16	3.9540	3.9541	0.9135	25.34	0.50	0.750			
0.2524	16156.22	3.9510	3.9510	0.9142	25.35	0.51	0.750			
0.2552	16330.27	3.9480	3.9478	0.9161	25.35	0.51	0.750			
0.2579	16506.74	3.9450	3.9450	0.9183	25.35	0.51	0.750			
0.2607	16684.68	3.9420	3.9420	0.9299	25.35	0.51	0.750			
0.2635	16864.41	3.9390	3.9391	0.9341	25.35	0.51	0.750			
0.2663	17044.37	3.9360	3.9359	0.9357	25.35	0.51	0.750			
0.2691	17224.19	3.9330	3.9331	0.9357	25.35	0.51	0.750			
0.2720	17405.08	3.9300	3.9300	0.9358	25.35	0.51	0.750			
0.2747	17583.90	3.9270	3.9270	0.9353	25.35	0.51	0.750			
0.2776	17763.75	3.9240	3.9240	0.9375	25.35	0.51	0.750			
0.2804	17943.17	3.9210	3.9210	0.9382	25.35	0.51	0.750			
0.2832	18123.22	3.9180	3.9180	0.9376	25.35	0.51	0.750			
0.2860	18302.94	3.9150	3.9151	0.9403	25.35	0.51	0.750			
0.2888	18483.91	3.9120	3.9120	0.9439	25.36	0.52	0.750			
0.2917	18665.74	3.9090	3.9089	0.9479	25.36	0.52	0.750			
0.2945	18850.47	3.9060	3.9060	0.9369	25.36	0.52	0.750			
0.2973	19027.49	3.9030	3.9030	0.9433	25.36	0.52	0.750			
0.3001	19209.19	3.9000	3.9001	0.9488	25.36	0.52	0.750			
0.3030	19391.22	3.8970	3.8971	0.9556	25.36	0.52	0.750			
0.3058	19573.58	3.8940	3.8940	0.9565	25.36	0.52	0.750			
0.3087	19758.23	3.8910	3.8911	0.9596	25.36	0.52	0.750			
0.3116	19943.54	3.8880	3.8881	0.9662	25.36	0.52	0.750			
0.3145	20131.01	3.8850	3.8850	0.9707	25.36	0.52	0.750			
0.3174	20315.78	3.8820	3.8819	0.9647	25.36	0.52	0.750			
0.3204	20503.22	3.8790	3.8790	0.9614	25.36	0.52	0.750			
0.3232	20687.04	3.8760	3.8761	0.9683	25.36	0.52	0.750			
0.3261	20873.27	3.8730	3.8730	0.9755	25.35	0.51	0.750			
0.3291	21060.31	3.8700	3.8699	0.9749	25.35	0.51	0.750			
0.3320	21249.48	3.8670	3.8670	0.9642	25.34	0.50	0.750			
0.3349	21434.52	3.8640	3.8641	0.9662	25.34	0.50	0.750			
0.3378	21619.24	3.8610	3.8611	0.9712	25.33	0.49	0.750			
0.3407	21804.98	3.8580	3.8578	0.9785	25.32	0.48	0.750			
0.3436	21989.46	3.8550	3.8550	0.9803	25.32	0.48	0.750			
0.3465	22179.19	3.8520	3.8520	0.9918	25.31	0.47	0.750			
0.3496	22373.70	3.8490	3.8490	1.0059	25.31	0.47	0.750			
0.3526	22569.27	3.8460	3.8461	1.0166	25.30	0.46	0.750			
0.3557	22767.11	3.8430	3.8429	1.0067	25.30	0.46	0.750			
0.3587	22959.39	3.8400	3.8400	1.0107	25.29	0.45	0.750			
0.3617	23151.77	3.8370	3.8371	1.0125	25.28	0.44	0.750			
0.3648	23346.17	3.8340	3.8339	1.0216	25.28	0.44	0.750	0.312	0.416	
0.3679	23542.60	3.8310	3.8309	1.0262	25.27	0.43	0.750			
0.3709	23739.96	3.8280	3.8280	1.0248	25.26	0.42	0.750			
0.3740	23936.74	3.8250	3.8252	1.0310	25.25	0.41	0.750			
0.3771	24137.39	3.8220	3.8220	1.0409	25.25	0.41	0.750			
0.3803	24336.15	3.8190	3.8190	1.0399	25.24	0.40	0.750			
0.3834	24535.81	3.8160	3.8161	1.0462	25.23	0.39	0.750			
0.3865	24738.12	3.8130	3.8130	1.0482	25.22	0.38	0.750			
0.3897	24942.62	3.8100	3.8101	1.0562	25.21	0.37	0.750			
0.3929	25147.58	3.8070	3.8071	1.0485	25.20	0.36	0.750			
0.3960	25344.96	3.8040	3.8040	1.0578	25.19	0.35	0.750			
0.3992	25546.33	3.8010	3.8011	1.0664	25.18	0.34	0.750			
0.4024	25751.56	3.7980	3.7981	1.0809	25.18	0.34	0.750			
0.4057	25963.26	3.7950	3.7947	1.0870	25.17	0.33	0.750			
0.4090	26173.19	3.7920	3.7921	1.1061	25.15	0.31	0.750			
0.4123	26385.48	3.7890	3.7891	1.1229	25.14	0.30	0.750			
0.4157	26603.93	3.7860	3.7861	1.1366	25.13	0.29	0.750			
0.4191	26821.20	3.7830	3.7831	1.1429	25.11	0.27	0.750			
0.4225	27041.78	3.7800	3.7801	1.1603	25.10	0.26	0.750			
0.4260	27267.15	3.7770	3.7771	1.1791	25.09	0.25	0.750			
0.4297	27498.39	3.7740	3.7738	1.1946	25.08	0.24	0.750			
0.4332	27723.79	3.7710	3.7712	1.2101	25.07	0.23	0.750			
0.4368	27956.34	3.7680	3.7681	1.2414	25.06	0.22	0.750			
0.4406	28197.82	3.7650	3.7650	1.2726	25.05	0.21	0.750			
0.4444	28442.90	3.7620	3.7620	1.2831	25.03	0.19	0.750			
0.4482	28686.85	3.7590	3.7592	1.3280	25.02	0.18	0.750			
0.4523	28946.22	3.7560	3.7562	1.3701	25.01	0.17	0.750			
0.4565	29216.73	3.7530	3.7531	1.3948	24.99	0.15	0.750			
0.4607	29483.46	3.7500	3.7502	1.4210	24.98	0.14	0.750			
0.4650	29757.93	3.7470	3.7473	1.4603	24.97	0.13	0.750			
0.4695	30047.52	3.7440	3.7432	1.4890	24.95	0.11	0.750			
0.4740	30332.84	3.7410	3.7407	1.5072	24.94	0.10	0.750			
0.4785	30623.22	3.7380	3.7382	1.5534	24.93	0.09	0.750			
0.4832	30925.30	3.7350	3.7348	1.6136	24.92	0.08	0.750			
0.4881	31240.61	3.7320	3.7319	1.6390	24.91	0.07	0.750			
0.4931	31557.43	3.7290	3.7286	1.6940	24.90	0.06	0.750			
0.4984	31895.52	3.7260	3.7258	1.7840	24.88	0.04	0.750			
0.5038	32245.63	3.7230	3.7232	1.8259	24.86	0.02	0.750			
0.5093	32594.72	3.7200	3.7204	1.8627	24.85	0.01	0.750			
0.5150	32958.01	3.7170	3.7174	1.8863	24.83	-0.01	0.750			
0.5207	33321.80	3.7140	3.7139	1.9600	24.81	-0.03	0.750			
0.5266	33701.13	3.7110	3.7112	1.9935	24.80	-0.04	0.750			
0.5327	34092.01	3.7080	3.7081	2.0550	24.78	-0.06	0.750			
0.5391	34503.61	3.7050	3.7044	2.1069	24.77	-0.07	0.750			
0.5454	34904.16	3.7020	3.7023	2.1736	24.76	-0.08	0.750			
0.5522	35342.19	3.6990	3.6992	2.2285	24.74	-0.10	0.750			
0.5589	35772.76	3.6960	3.6963	2.2866	24.73	-0.11	0.750			
0.5662	36234.10	3.6930	3.6930	2.3759	24.70	-0.14	0.750			
0.5732	36687.72	3.6900	3.6901	2.4240	24.69	-0.15	0.750			
0.5807	37166.75	3.6870	3.6868	2.5056	24.68	-0.16	0.750			
0.5885	37662.99	3.6840	3.6840	2.5866	24.67	-0.17	0.750			
0.5965	38173.31	3.6810	3.6814	2.6523	24.66	-0.18	0.750			
0.6047	38697.64	3.6780	3.6773	2.7462	24.65	-0.19	0.750			
0.6127	39215.32	3.6750	3.6750	2.7623	24.64	-0.20	0.750			
0.6212	39757.50	3.6720	3.6719	2.8395	24.64	-0.20	0.750			
0.6298	40307.19	3.6690	3.6689	2.7780	24.65	-0.19	0.750			
0.6383	40849.95	3.6660	3.6662	2.7670	24.64	-0.20	0.750			
0.6464	41367.92	3.6630	3.6630	2.6285	24.65	-0.19	0.750			
0.6544	41884.58	3.6600	3.6602	2.4901	24.66	-0.18	0.750			
0.6618	42353.66	3.6570	3.6568	2.2877	24.67	-0.17	0.750			
0.6679	42742.91	3.6540	3.6543	2.0177	24.68	-0.16	0.750			
0.6736	43113.45	3.6510	3.6512	1.8349	24.69	-0.15	0.750			
0.6789	43448.09	3.6480	3.6479	1.6590	24.70	-0.14	0.750			
0.6837	43753.70	3.6450	3.6453	1.5036	24.71	-0.13	0.750			
0.6881	44037.62	3.6420	3.6421	1.3759	24.72	-0.12	0.750			
0.6918	44277.49	3.6390	3.6388	1.2411	24.73	-0.11	0.750			
0.6952	44490.79	3.6360	3.6360	1.0794	24.73	-0.11	0.750			
0.6982	44682.30	3.6330	3.6330	1.0083	24.74	-0.10	0.750			
0.7009	44860.17	3.6300	3.6301	0.9629	24.74	-0.10	0.750			
0.7037	45038.13	3.6270	3.6271	0.9299	24.75	-0.09	0.750			
0.7065	45214.50	3.6240	3.6241	0.9140	24.75	-0.09	0.750			
0.7092	45391.52	3.6210	3.6211	0.8848	24.76	-0.08	0.750			
0.7119	45561.52	3.6180	3.6180	0.8638	24.77	-0.07	0.750			
0.7145	45728.64	3.6150	3.6151	0.8238	24.77	-0.07	0.750			
0.7170	45886.21	3.6120	3.6116	0.7722	24.78	-0.06	0.750			
0.7192	46031.57	3.6090	3.6091	0.7144	24.79	-0.05	0.750			
0.7213	46165.81	3.6060	3.6062	0.6505	24.80	-0.04	0.750			
0.7232	46284.60	3.6030	3.6031	0.5808	24.81	-0.03	0.750			
0.7248	46388.56	3.6000	3.6000	0.5077	24.82	-0.02	0.750			
0.7262	46478.20	3.5970	3.5970	0.4447	24.82	-0.02	0.750			
0.7274	46555.95	3.5940	3.5940	0.3828	24.83	-0.01	0.750			
0.7285	46624.80	3.5910	3.5909	0.3263	24.83	-0.01	0.750			
0.7294	46682.23	3.5880	3.5881	0.2699	24.84	-0.00	0.750			
0.7301	46728.22	3.5850	3.5850	0.2124	24.84	0.00	0.750			
0.7307	46765.06	3.5820	3.5824	0.1541	24.84	0.00	0.750			
0.7311	46789.16	3.5790	3.5797	0.0921	24.85	0.01	0.750			
0.7313	46800.85	3.5760	3.5785	0.0271	24.85	0.01	0.751			
