Ah_balance (normalized)	Ah_balance (mAh)	Voltage - fit (V)	Voltage -  interpolate (V)	dQ/dV (1/V)	Temperature (°C)	Temperature - diff (°C)	Current (C)	R_DC 0ms (mOhm)	R_DC 50ms (mOhm)	R_DC 50 ms PEC (mOhm)
0.0468	2996.05	4.1990	4.1990	0.7016	25.66	0.58	0.750			
0.0491	3140.71	4.1960	4.1959	0.7825	25.66	0.58	0.750			
0.0514	3292.55	4.1930	4.1929	0.7864	25.67	0.59	0.750			
0.0538	3443.68	4.1900	4.1901	0.7823	25.67	0.59	0.750			
0.0562	3594.64	4.1870	4.1870	0.7815	25.67	0.59	0.750			
0.0585	3743.79	4.1840	4.1840	0.7760	25.67	0.59	0.750			
0.0608	3891.03	4.1810	4.1809	0.7696	25.67	0.59	0.750			
0.0631	4036.61	4.1780	4.1780	0.7598	25.67	0.59	0.750			
0.0653	4182.12	4.1750	4.1750	0.7608	25.68	0.60	0.750			
0.0676	4327.81	4.1720	4.1721	0.7612	25.68	0.60	0.750			
0.0699	4472.95	4.1690	4.1688	0.7633	25.68	0.60	0.750			
0.0722	4618.73	4.1660	4.1660	0.7649	25.68	0.60	0.750			
0.0745	4767.73	4.1630	4.1630	0.7630	25.68	0.60	0.750			
0.0768	4914.90	4.1600	4.1600	0.7675	25.67	0.59	0.750			
0.0791	5063.18	4.1570	4.1570	0.7739	25.67	0.59	0.750			
0.0814	5209.96	4.1540	4.1540	0.7720	25.67	0.59	0.750			
0.0837	5357.74	4.1510	4.1510	0.7677	25.67	0.59	0.750			
0.0860	5504.99	4.1480	4.1482	0.7685	25.67	0.59	0.750			
0.0883	5652.38	4.1450	4.1451	0.7714	25.67	0.59	0.750			
0.0906	5800.64	4.1420	4.1417	0.7760	25.67	0.59	0.750			
0.0929	5948.35	4.1390	4.1391	0.7743	25.67	0.59	0.750			
0.0953	6097.37	4.1360	4.1361	0.7802	25.67	0.59	0.750			
0.0977	6250.29	4.1330	4.1331	0.7858	25.67	0.59	0.750			
0.1000	6402.59	4.1300	4.1300	0.7886	25.67	0.59	0.750			
0.1024	6552.33	4.1270	4.1270	0.7865	25.67	0.59	0.750			
0.1047	6702.54	4.1240	4.1241	0.7850	25.67	0.59	0.750			
0.1071	6852.92	4.1210	4.1209	0.7877	25.67	0.59	0.750			
0.1095	7005.19	4.1180	4.1180	0.7884	25.67	0.59	0.750			
0.1118	7157.88	4.1150	4.1150	0.7808	25.67	0.59	0.750			
0.1142	7307.23	4.1120	4.1120	0.7879	25.67	0.59	0.750			
0.1165	7456.96	4.1090	4.1091	0.7906	25.67	0.59	0.750			
0.1189	7608.24	4.1060	4.1060	0.7919	25.67	0.59	0.750			
0.1213	7761.17	4.1030	4.1030	0.7941	25.67	0.59	0.750			
0.1237	7914.02	4.1000	4.1001	0.7907	25.67	0.59	0.750			
0.1261	8067.28	4.0970	4.0971	0.7956	25.67	0.59	0.750			
0.1284	8220.11	4.0940	4.0940	0.7958	25.67	0.59	0.750			
0.1308	8370.79	4.0910	4.0907	0.7928	25.67	0.59	0.750			
0.1332	8522.24	4.0880	4.0881	0.7950	25.67	0.59	0.750			
0.1356	8676.05	4.0850	4.0850	0.8017	25.67	0.59	0.750			
0.1380	8832.01	4.0820	4.0820	0.8045	25.67	0.59	0.750			
0.1404	8986.11	4.0790	4.0790	0.8096	25.67	0.59	0.750			
0.1428	9139.68	4.0760	4.0760	0.8097	25.67	0.59	0.750			
0.1453	9296.01	4.0730	4.0728	0.8160	25.67	0.59	0.750			
0.1477	9452.65	4.0700	4.0700	0.8212	25.67	0.59	0.750			
0.1502	9612.13	4.0670	4.0670	0.8161	25.67	0.59	0.750			
0.1526	9767.68	4.0640	4.0640	0.8260	25.67	0.59	0.750			
0.1551	9926.09	4.0610	4.0611	0.8269	25.67	0.59	0.750			
0.1576	10085.70	4.0580	4.0576	0.8310	25.67	0.59	0.750			
0.1601	10245.89	4.0550	4.0551	0.8352	25.67	0.59	0.750			
0.1626	10408.95	4.0520	4.0521	0.8217	25.67	0.59	0.750			
0.1651	10565.24	4.0490	4.0491	0.8309	25.67	0.59	0.750			
0.1675	10722.19	4.0460	4.0461	0.8285	25.67	0.59	0.750			
0.1700	10880.36	4.0430	4.0427	0.8345	25.67	0.59	0.750			
0.1725	11041.56	4.0400	4.0401	0.8426	25.67	0.59	0.750			
0.1751	11204.58	4.0370	4.0372	0.8445	25.67	0.59	0.750			
0.1777	11370.09	4.0340	4.0341	0.8554	25.68	0.60	0.750			
0.1802	11535.26	4.0310	4.0310	0.8564	25.68	0.60	0.750			
0.1828	11697.33	4.0280	4.0277	0.8507	25.68	0.60	0.750			
0.1853	11861.08	4.0250	4.0251	0.8531	25.68	0.60	0.750			
0.1879	12025.32	4.0220	4.0221	0.8535	25.68	0.60	0.750			
0.1905	12189.40	4.0190	4.0191	0.8621	25.69	0.61	0.750			
0.1930	12353.32	4.0160	4.0160	0.8615	25.69	0.61	0.750			
0.1956	12520.37	4.0130	4.0130	0.8625	25.69	0.61	0.750			
0.1982	12686.60	4.0100	4.0101	0.8692	25.69	0.61	0.750			
0.2009	12856.24	4.0070	4.0071	0.8613	25.69	0.61	0.750			
0.2035	13021.44	4.0040	4.0040	0.8703	25.69	0.61	0.750			
0.2060	13185.55	4.0010	4.0010	0.8672	25.69	0.61	0.750			
0.2086	13352.08	3.9980	3.9979	0.8734	25.69	0.61	0.750			
0.2113	13521.42	3.9950	3.9950	0.8769	25.69	0.61	0.750			
0.2139	13691.92	3.9920	3.9921	0.8871	25.69	0.61	0.750			
0.2166	13864.29	3.9890	3.9890	0.8902	25.69	0.61	0.750			
0.2193	14037.23	3.9860	3.9859	0.8958	25.69	0.61	0.750			
0.2220	14206.33	3.9830	3.9831	0.8880	25.69	0.61	0.750			
0.2246	14376.52	3.9800	3.9800	0.8847	25.70	0.62	0.750			
0.2273	14545.74	3.9770	3.9771	0.8847	25.70	0.62	0.750			
0.2299	14713.95	3.9740	3.9740	0.8845	25.71	0.63	0.750			
0.2326	14885.12	3.9710	3.9707	0.8915	25.71	0.63	0.750			
0.2353	15056.91	3.9680	3.9681	0.8952	25.71	0.63	0.750			
0.2380	15229.08	3.9650	3.9651	0.8974	25.71	0.63	0.750			
0.2407	15403.43	3.9620	3.9620	0.8994	25.71	0.63	0.750			
0.2434	15576.54	3.9590	3.9591	0.9021	25.71	0.63	0.750			
0.2461	15747.28	3.9560	3.9561	0.9018	25.71	0.63	0.750			
0.2488	15920.64	3.9530	3.9527	0.9020	25.71	0.63	0.750			
0.2515	16094.19	3.9500	3.9501	0.9040	25.71	0.63	0.750			
0.2542	16267.89	3.9470	3.9471	0.9070	25.71	0.63	0.750			
0.2569	16443.60	3.9440	3.9438	0.9115	25.71	0.63	0.750			
0.2597	16619.22	3.9410	3.9409	0.9125	25.71	0.63	0.750			
0.2624	16792.71	3.9380	3.9380	0.9008	25.71	0.63	0.750			
0.2651	16964.30	3.9350	3.9351	0.9082	25.71	0.63	0.750			
0.2678	17139.08	3.9320	3.9321	0.9133	25.71	0.63	0.750			
0.2705	17313.09	3.9290	3.9287	0.9145	25.71	0.63	0.750			
0.2733	17489.86	3.9260	3.9261	0.9180	25.71	0.63	0.750			
0.2761	17668.61	3.9230	3.9230	0.9173	25.71	0.63	0.750			
0.2788	17845.44	3.9200	3.9200	0.9199	25.71	0.63	0.750			
0.2816	18020.90	3.9170	3.9171	0.9085	25.71	0.63	0.750			
0.2843	18192.79	3.9140	3.9139	0.9109	25.71	0.63	0.750			
0.2870	18366.17	3.9110	3.9111	0.9128	25.71	0.63	0.750			
0.2897	18541.32	3.9080	3.9077	0.9213	25.71	0.63	0.750			
0.2925	18720.38	3.9050	3.9051	0.9284	25.71	0.63	0.750			
0.2953	18900.52	3.9020	3.9019	0.9308	25.71	0.63	0.750			
0.2982	19084.04	3.8990	3.8990	0.9162	25.71	0.63	0.750			
0.3009	19259.52	3.8960	3.8961	0.9217	25.70	0.62	0.750			
0.3036	19429.36	3.8930	3.8931	0.9238	25.70	0.62	0.750			
0.3064	19607.46	3.8900	3.8900	0.9312	25.69	0.61	0.750			
0.3091	19784.56	3.8870	3.8871	0.9313	25.69	0.61	0.750			
0.3120	19965.03	3.8840	3.8841	0.9376	25.68	0.60	0.750			
0.3148	20149.51	3.8810	3.8811	0.9437	25.68	0.60	0.750			
0.3177	20332.68	3.8780	3.8780	0.9427	25.67	0.59	0.750			
0.3205	20510.54	3.8750	3.8750	0.9337	25.67	0.59	0.750			
0.3233	20690.56	3.8720	3.8720	0.9267	25.66	0.58	0.750			
0.3261	20867.88	3.8690	3.8690	0.9333	25.65	0.57	0.750			
0.3289	21046.89	3.8660	3.8660	0.9365	25.64	0.56	0.750			
0.3317	21227.02	3.8630	3.8630	0.9399	25.63	0.55	0.750			
0.3345	21409.32	3.8600	3.8600	0.9334	25.63	0.55	0.750			
0.3373	21587.22	3.8570	3.8571	0.9405	25.62	0.54	0.750			
0.3401	21767.37	3.8540	3.8541	0.9471	25.62	0.54	0.750			
0.3430	21952.17	3.8510	3.8510	0.9475	25.61	0.53	0.750			
0.3458	22133.45	3.8480	3.8478	0.9377	25.61	0.53	0.750			
0.3487	22314.90	3.8450	3.8451	0.9288	25.60	0.52	0.750			
0.3514	22489.47	3.8420	3.8422	0.9377	25.60	0.52	0.750			
0.3542	22667.24	3.8390	3.8390	0.9504	25.60	0.52	0.750			
0.3570	22846.93	3.8360	3.8359	0.9583	25.59	0.51	0.750			
0.3599	23032.95	3.8330	3.8331	0.9705	25.58	0.50	0.750	0.314	0.429	
0.3628	23222.14	3.8300	3.8302	0.9984	25.57	0.49	0.750			
0.3659	23419.71	3.8270	3.8272	1.0265	25.56	0.48	0.750			
0.3690	23618.65	3.8240	3.8238	1.0417	25.55	0.47	0.750			
0.3722	23818.86	3.8210	3.8208	1.0389	25.55	0.47	0.750			
0.3753	24019.92	3.8180	3.8182	1.0472	25.54	0.46	0.750			
0.3785	24224.68	3.8150	3.8151	1.0530	25.53	0.45	0.750			
0.3817	24431.12	3.8120	3.8118	1.0609	25.52	0.44	0.750			
0.3848	24629.87	3.8090	3.8090	1.0556	25.51	0.43	0.750			
0.3880	24828.87	3.8060	3.8061	1.0557	25.50	0.42	0.750			
0.3911	25031.32	3.8030	3.8030	1.0711	25.49	0.41	0.750			
0.3944	25240.02	3.8000	3.7999	1.0883	25.48	0.40	0.750			
0.3977	25450.32	3.7970	3.7971	1.0865	25.47	0.39	0.750			
0.4009	25658.85	3.7940	3.7941	1.0984	25.47	0.39	0.750			
0.4042	25870.14	3.7910	3.7911	1.1103	25.46	0.38	0.750			
0.4076	26084.91	3.7880	3.7877	1.1209	25.45	0.37	0.750			
0.4109	26299.00	3.7850	3.7850	1.1331	25.44	0.36	0.750			
0.4143	26516.03	3.7820	3.7821	1.1540	25.42	0.34	0.750			
0.4178	26740.76	3.7790	3.7790	1.1795	25.41	0.33	0.750			
0.4214	26969.93	3.7760	3.7760	1.1943	25.40	0.32	0.750			
0.4250	27200.75	3.7730	3.7731	1.2155	25.39	0.31	0.750			
0.4287	27435.66	3.7700	3.7701	1.2387	25.38	0.30	0.750			
0.4325	27677.73	3.7670	3.7669	1.2552	25.37	0.29	0.750			
0.4362	27918.73	3.7640	3.7640	1.2840	25.36	0.28	0.750			
0.4401	28165.88	3.7610	3.7610	1.3170	25.34	0.26	0.750			
0.4441	28425.57	3.7580	3.7579	1.3317	25.32	0.24	0.750			
0.4481	28680.70	3.7550	3.7551	1.3702	25.31	0.23	0.750			
0.4524	28953.32	3.7520	3.7521	1.3794	25.30	0.22	0.750			
0.4566	29219.38	3.7490	3.7489	1.4141	25.28	0.20	0.750			
0.4608	29493.13	3.7460	3.7461	1.4473	25.27	0.19	0.750			
0.4651	29769.57	3.7430	3.7432	1.4833	25.26	0.18	0.750			
0.4696	30055.19	3.7400	3.7401	1.5332	25.25	0.17	0.750			
0.4743	30353.25	3.7370	3.7373	1.5685	25.23	0.15	0.750			
0.4791	30660.33	3.7340	3.7341	1.6199	25.21	0.13	0.750			
0.4841	30981.40	3.7310	3.7308	1.6899	25.20	0.12	0.750			
0.4892	31305.96	3.7280	3.7277	1.7214	25.18	0.10	0.750			
0.4945	31645.72	3.7250	3.7248	1.7689	25.17	0.09	0.750			
0.4997	31982.65	3.7220	3.7221	1.8230	25.16	0.08	0.750			
0.5053	32337.14	3.7190	3.7188	1.8558	25.14	0.06	0.750			
0.5109	32695.34	3.7160	3.7162	1.9063	25.12	0.04	0.750			
0.5168	33072.03	3.7130	3.7132	1.9508	25.11	0.03	0.750			
0.5226	33448.79	3.7100	3.7100	2.0324	25.09	0.01	0.750			
0.5287	33839.20	3.7070	3.7071	2.0837	25.07	-0.01	0.750			
0.5351	34248.11	3.7040	3.7039	2.1344	25.05	-0.03	0.750			
0.5416	34663.05	3.7010	3.7009	2.1783	25.03	-0.05	0.750			
0.5484	35094.61	3.6980	3.6984	2.2037	25.01	-0.07	0.750			
0.5552	35531.23	3.6950	3.6951	2.2195	25.00	-0.08	0.750			
0.5619	35959.53	3.6920	3.6924	2.2620	24.99	-0.09	0.750			
0.5686	36390.59	3.6890	3.6889	2.3565	24.98	-0.10	0.750			
0.5757	36846.15	3.6860	3.6863	2.4837	24.97	-0.11	0.750			
0.5836	37348.48	3.6830	3.6832	2.5652	24.96	-0.12	0.750			
0.5914	37850.18	3.6800	3.6802	2.6112	24.95	-0.13	0.750			
0.5994	38363.54	3.6770	3.6768	2.6179	24.94	-0.14	0.750			
0.6073	38864.94	3.6740	3.6737	2.6345	24.94	-0.14	0.750			
0.6152	39372.59	3.6710	3.6708	2.6220	24.93	-0.15	0.750			
0.6231	39876.76	3.6680	3.6681	2.5270	24.93	-0.15	0.750			
0.6307	40367.85	3.6650	3.6651	2.4064	24.94	-0.14	0.750			
0.6379	40822.74	3.6620	3.6620	2.2137	24.94	-0.14	0.750			
0.6441	41220.53	3.6590	3.6589	2.0484	24.94	-0.14	0.750			
0.6499	41591.18	3.6560	3.6559	1.8858	24.95	-0.13	0.750			
0.6553	41941.78	3.6530	3.6527	1.7303	24.96	-0.12	0.750			
0.6602	42255.23	3.6500	3.6498	1.5880	24.96	-0.12	0.750			
0.6648	42548.25	3.6470	3.6473	1.4629	24.97	-0.11	0.750			
0.6690	42818.72	3.6440	3.6439	1.3489	24.98	-0.10	0.750			
0.6728	43061.39	3.6410	3.6411	1.2338	24.98	-0.10	0.750			
0.6763	43280.54	3.6380	3.6382	1.1386	24.99	-0.09	0.750			
0.6795	43490.48	3.6350	3.6351	1.0902	25.00	-0.08	0.750			
0.6827	43693.84	3.6320	3.6314	1.0460	25.00	-0.08	0.750			
0.6857	43883.35	3.6290	3.6291	1.0037	25.01	-0.07	0.750			
0.6887	44074.11	3.6260	3.6261	0.9805	25.02	-0.06	0.750			
0.6916	44265.34	3.6230	3.6229	0.9500	25.03	-0.05	0.750			
0.6945	44445.07	3.6200	3.6200	0.9024	25.04	-0.04	0.750			
0.6972	44618.67	3.6170	3.6170	0.8577	25.05	-0.03	0.750			
0.6997	44779.54	3.6140	3.6140	0.8025	25.05	-0.03	0.750			
0.7020	44929.17	3.6110	3.6110	0.7395	25.06	-0.02	0.750			
0.7041	45062.23	3.6080	3.6080	0.6804	25.07	-0.01	0.750			
0.7060	45186.32	3.6050	3.6051	0.6250	25.07	-0.01	0.750			
0.7078	45300.90	3.6020	3.6020	0.5718	25.08	0.00	0.750			
0.7095	45405.08	3.5990	3.5990	0.5189	25.09	0.01	0.750			
0.7109	45500.05	3.5960	3.5960	0.4680	25.09	0.01	0.750			
0.7123	45585.37	3.5930	3.5930	0.4201	25.09	0.01	0.750			
0.7134	45660.63	3.5900	3.5900	0.3665	25.10	0.02	0.750			
0.7145	45726.31	3.5870	3.5869	0.3140	25.10	0.02	0.750			
0.7153	45782.09	3.5840	3.5840	0.2644	25.10	0.02	0.750			
0.7161	45828.73	3.5810	3.5810	0.2142	25.11	0.03	0.750			
0.7167	45866.09	3.5780	3.5782	0.1613	25.11	0.03	0.750			
0.7171	45892.27	3.5750	3.5756	0.1034	25.11	0.03	0.750			
0.7173	45906.50	3.5720	3.5742	0.0358	25.11	0.03	0.750			
