Ah_balance (normalized)	Ah_balance (mAh)	Voltage - fit (V)	Voltage -  interpolate (V)	dQ/dV (1/V)	Temperature (°C)	Temperature - diff (°C)	Current (C)	R_DC 0ms (mOhm)	R_DC 50ms (mOhm)	R_DC 50 ms PEC (mOhm)
0.0479	3063.44	4.1980	4.1980	0.7757	25.61	0.44	0.750			
0.0502	3211.49	4.1950	4.1950	0.7679	25.61	0.44	0.750			
0.0525	3358.54	4.1920	4.1920	0.7618	25.61	0.44	0.750			
0.0547	3503.38	4.1890	4.1890	0.7580	25.61	0.44	0.750			
0.0570	3647.56	4.1860	4.1860	0.7577	25.61	0.44	0.750			
0.0593	3792.86	4.1830	4.1828	0.7588	25.61	0.44	0.750			
0.0615	3938.08	4.1800	4.1800	0.7587	25.61	0.44	0.750			
0.0638	4085.33	4.1770	4.1770	0.7598	25.61	0.44	0.750			
0.0661	4231.11	4.1740	4.1740	0.7646	25.61	0.44	0.750			
0.0684	4377.43	4.1710	4.1710	0.7642	25.61	0.44	0.750			
0.0707	4524.63	4.1680	4.1680	0.7694	25.61	0.44	0.750			
0.0730	4672.42	4.1650	4.1651	0.7709	25.61	0.44	0.750			
0.0753	4821.80	4.1620	4.1620	0.7730	25.61	0.44	0.750			
0.0777	4971.15	4.1590	4.1590	0.7760	25.61	0.44	0.750			
0.0800	5120.06	4.1560	4.1561	0.7772	25.61	0.44	0.750			
0.0824	5270.52	4.1530	4.1529	0.7672	25.61	0.44	0.750			
0.0847	5417.81	4.1500	4.1500	0.7643	25.61	0.44	0.750			
0.0869	5562.65	4.1470	4.1471	0.7628	25.61	0.44	0.750			
0.0892	5708.82	4.1440	4.1439	0.7589	25.61	0.44	0.750			
0.0914	5852.38	4.1410	4.1409	0.7614	25.62	0.45	0.750			
0.0937	5997.19	4.1380	4.1380	0.7643	25.62	0.45	0.750			
0.0960	6144.80	4.1350	4.1351	0.7729	25.62	0.45	0.750			
0.0984	6296.23	4.1320	4.1320	0.7839	25.62	0.45	0.750			
0.1008	6449.94	4.1290	4.1290	0.7784	25.62	0.45	0.750			
0.1031	6598.55	4.1260	4.1260	0.7805	25.62	0.45	0.750			
0.1054	6748.38	4.1230	4.1230	0.7881	25.62	0.45	0.750			
0.1078	6898.32	4.1200	4.1201	0.7863	25.62	0.45	0.750			
0.1101	7048.36	4.1170	4.1167	0.7862	25.62	0.45	0.750			
0.1125	7198.99	4.1140	4.1141	0.7904	25.62	0.45	0.750			
0.1149	7352.39	4.1110	4.1111	0.7951	25.62	0.45	0.750			
0.1173	7505.92	4.1080	4.1079	0.7994	25.63	0.46	0.750			
0.1197	7658.47	4.1050	4.1050	0.7951	25.63	0.46	0.750			
0.1221	7812.09	4.1020	4.1020	0.7997	25.63	0.46	0.750			
0.1245	7967.50	4.0990	4.0989	0.7999	25.63	0.46	0.750			
0.1269	8121.67	4.0960	4.0961	0.7961	25.63	0.46	0.750			
0.1293	8272.69	4.0930	4.0930	0.8000	25.63	0.46	0.750			
0.1316	8425.23	4.0900	4.0901	0.8041	25.63	0.46	0.750			
0.1341	8580.47	4.0870	4.0867	0.8069	25.63	0.46	0.750			
0.1365	8735.56	4.0840	4.0839	0.8083	25.63	0.46	0.750			
0.1390	8895.89	4.0810	4.0811	0.7939	25.63	0.46	0.750			
0.1413	9046.06	4.0780	4.0780	0.8011	25.64	0.47	0.750			
0.1437	9198.36	4.0750	4.0751	0.8049	25.64	0.47	0.750			
0.1461	9350.76	4.0720	4.0721	0.8078	25.64	0.47	0.750			
0.1485	9504.67	4.0690	4.0692	0.8108	25.64	0.47	0.750			
0.1510	9662.84	4.0660	4.0661	0.8167	25.64	0.47	0.750			
0.1535	9822.52	4.0630	4.0631	0.8245	25.65	0.48	0.750			
0.1560	9982.79	4.0600	4.0600	0.8270	25.65	0.48	0.750			
0.1584	10139.34	4.0570	4.0570	0.8202	25.65	0.48	0.750			
0.1609	10297.76	4.0540	4.0541	0.8256	25.65	0.48	0.750			
0.1634	10457.58	4.0510	4.0510	0.8203	25.65	0.48	0.750			
0.1658	10613.60	4.0480	4.0479	0.8264	25.65	0.48	0.750			
0.1683	10773.50	4.0450	4.0451	0.8286	25.66	0.49	0.750			
0.1708	10930.99	4.0420	4.0421	0.8314	25.66	0.49	0.750			
0.1733	11090.84	4.0390	4.0389	0.8349	25.66	0.49	0.750			
0.1758	11251.61	4.0360	4.0361	0.8378	25.66	0.49	0.750			
0.1783	11411.86	4.0330	4.0331	0.8319	25.66	0.49	0.750			
0.1808	11572.27	4.0300	4.0301	0.8382	25.67	0.50	0.750			
0.1833	11730.80	4.0270	4.0271	0.8352	25.67	0.50	0.750			
0.1858	11890.36	4.0240	4.0242	0.8452	25.67	0.50	0.750			
0.1883	12052.37	4.0210	4.0212	0.8546	25.67	0.50	0.750			
0.1909	12218.65	4.0180	4.0180	0.8641	25.68	0.51	0.750			
0.1936	12388.06	4.0150	4.0151	0.8767	25.68	0.51	0.750			
0.1962	12555.28	4.0120	4.0120	0.8738	25.68	0.51	0.750			
0.1988	12724.44	4.0090	4.0089	0.8789	25.68	0.51	0.750			
0.2015	12895.61	4.0060	4.0060	0.8722	25.68	0.51	0.750			
0.2040	13059.01	4.0030	4.0031	0.8785	25.69	0.52	0.750			
0.2067	13227.30	4.0000	4.0001	0.8857	25.69	0.52	0.750			
0.2093	13397.60	3.9970	3.9966	0.8853	25.69	0.52	0.750			
0.2120	13567.25	3.9940	3.9941	0.8918	25.69	0.52	0.750			
0.2147	13740.78	3.9910	3.9912	0.8892	25.69	0.52	0.750			
0.2174	13912.90	3.9880	3.9880	0.8989	25.70	0.53	0.750			
0.2201	14083.79	3.9850	3.9850	0.8918	25.70	0.53	0.750			
0.2227	14254.92	3.9820	3.9821	0.8931	25.70	0.53	0.750			
0.2254	14426.89	3.9790	3.9791	0.8957	25.70	0.53	0.750			
0.2281	14599.92	3.9760	3.9761	0.9034	25.70	0.53	0.750			
0.2308	14774.27	3.9730	3.9730	0.9077	25.71	0.54	0.750			
0.2336	14948.39	3.9700	3.9699	0.9049	25.71	0.54	0.750			
0.2363	15122.84	3.9670	3.9670	0.9052	25.71	0.54	0.750			
0.2390	15297.73	3.9640	3.9641	0.9037	25.71	0.54	0.750			
0.2417	15468.76	3.9610	3.9611	0.9157	25.72	0.55	0.750			
0.2445	15647.58	3.9580	3.9579	0.9063	25.72	0.55	0.750			
0.2472	15820.40	3.9550	3.9545	0.8995	25.72	0.55	0.750			
0.2499	15996.13	3.9520	3.9521	0.8896	25.72	0.55	0.750			
0.2525	16163.20	3.9490	3.9492	0.8937	25.72	0.55	0.750			
0.2552	16333.34	3.9460	3.9459	0.9007	25.73	0.56	0.750			
0.2579	16505.52	3.9430	3.9431	0.9081	25.73	0.56	0.750			
0.2606	16675.30	3.9400	3.9399	0.9072	25.73	0.56	0.750			
0.2634	16856.20	3.9370	3.9371	0.9263	25.74	0.57	0.750			
0.2662	17036.68	3.9340	3.9341	0.9294	25.74	0.57	0.750			
0.2690	17216.88	3.9310	3.9310	0.9298	25.75	0.58	0.750			
0.2718	17394.55	3.9280	3.9279	0.9197	25.75	0.58	0.750			
0.2745	17571.10	3.9250	3.9251	0.9135	25.75	0.58	0.750			
0.2773	17745.86	3.9220	3.9221	0.9167	25.75	0.58	0.750			
0.2800	17921.57	3.9190	3.9190	0.9199	25.75	0.58	0.750			
0.2828	18097.87	3.9160	3.9160	0.9211	25.75	0.58	0.750			
0.2855	18273.54	3.9130	3.9131	0.9252	25.75	0.58	0.750			
0.2884	18455.08	3.9100	3.9100	0.9073	25.75	0.58	0.750			
0.2910	18627.17	3.9070	3.9071	0.9264	25.75	0.58	0.750			
0.2938	18804.96	3.9040	3.9040	0.9319	25.75	0.58	0.750			
0.2966	18982.80	3.9010	3.9008	0.9317	25.75	0.58	0.750			
0.2994	19163.41	3.8980	3.8981	0.9385	25.75	0.58	0.750			
0.3023	19345.29	3.8950	3.8952	0.9451	25.74	0.57	0.750			
0.3051	19528.51	3.8920	3.8921	0.9485	25.74	0.57	0.750			
0.3080	19711.05	3.8890	3.8890	0.9380	25.73	0.56	0.750			
0.3108	19891.80	3.8860	3.8860	0.9413	25.73	0.56	0.750			
0.3136	20072.08	3.8830	3.8831	0.9431	25.73	0.56	0.750			
0.3164	20252.16	3.8800	3.8800	0.9498	25.73	0.56	0.750			
0.3193	20435.75	3.8770	3.8771	0.9533	25.73	0.56	0.750			
0.3222	20619.04	3.8740	3.8740	0.9562	25.73	0.56	0.750			
0.3251	20803.44	3.8710	3.8711	0.9632	25.73	0.56	0.750			
0.3279	20987.05	3.8680	3.8681	0.9519	25.72	0.55	0.750			
0.3308	21168.32	3.8650	3.8651	0.9540	25.72	0.55	0.750			
0.3336	21348.19	3.8620	3.8622	0.9500	25.71	0.54	0.750			
0.3364	21531.85	3.8590	3.8592	0.9577	25.71	0.54	0.750			
0.3393	21717.04	3.8560	3.8561	0.9687	25.70	0.53	0.750			
0.3423	21904.19	3.8530	3.8531	0.9787	25.69	0.52	0.750			
0.3453	22100.24	3.8500	3.8500	0.9987	25.68	0.51	0.750			
0.3482	22284.75	3.8470	3.8470	0.9762	25.68	0.51	0.750			
0.3512	22474.55	3.8440	3.8440	0.9624	25.67	0.50	0.750			
0.3540	22653.22	3.8410	3.8411	0.9703	25.66	0.49	0.750			
0.3568	22835.26	3.8380	3.8382	0.9879	25.66	0.49	0.750			
0.3598	23024.66	3.8350	3.8344	0.9988	25.65	0.48	0.750			
0.3628	23218.42	3.8320	3.8322	1.0044	25.64	0.47	0.750	0.293	0.413	
0.3659	23414.81	3.8290	3.8293	1.0225	25.64	0.47	0.750			
0.3690	23617.34	3.8260	3.8262	1.0363	25.63	0.46	0.750			
0.3721	23815.93	3.8230	3.8221	1.0311	25.62	0.45	0.750			
0.3752	24010.10	3.8200	3.8201	1.0229	25.61	0.44	0.750			
0.3782	24207.53	3.8170	3.8170	1.0339	25.61	0.44	0.750			
0.3814	24411.71	3.8140	3.8140	1.0463	25.60	0.43	0.750			
0.3846	24613.37	3.8110	3.8108	1.0517	25.59	0.42	0.750			
0.3877	24812.65	3.8080	3.8080	1.0391	25.58	0.41	0.750			
0.3908	25009.27	3.8050	3.8051	1.0534	25.57	0.40	0.750			
0.3939	25209.75	3.8020	3.8021	1.0652	25.56	0.39	0.750			
0.3972	25419.44	3.7990	3.7984	1.0686	25.55	0.38	0.750			
0.4003	25622.08	3.7960	3.7961	1.0906	25.54	0.37	0.750			
0.4037	25833.87	3.7930	3.7931	1.1123	25.53	0.36	0.750			
0.4070	26050.92	3.7900	3.7901	1.1326	25.52	0.35	0.750			
0.4105	26269.69	3.7870	3.7871	1.1367	25.51	0.34	0.750			
0.4139	26489.44	3.7840	3.7842	1.1536	25.50	0.33	0.750			
0.4174	26713.91	3.7810	3.7811	1.1728	25.49	0.32	0.750			
0.4210	26944.00	3.7780	3.7780	1.1830	25.47	0.30	0.750			
0.4245	27168.48	3.7750	3.7750	1.1921	25.46	0.29	0.750			
0.4281	27399.07	3.7720	3.7721	1.2178	25.46	0.29	0.750			
0.4318	27633.01	3.7690	3.7691	1.2457	25.45	0.28	0.750			
0.4355	27874.80	3.7660	3.7661	1.2604	25.44	0.27	0.750			
0.4393	28115.97	3.7630	3.7631	1.2912	25.42	0.25	0.750			
0.4432	28365.89	3.7600	3.7601	1.3232	25.41	0.24	0.750			
0.4472	28623.70	3.7570	3.7562	1.3597	25.40	0.23	0.750			
0.4514	28887.32	3.7540	3.7542	1.3910	25.39	0.22	0.750			
0.4557	29164.27	3.7510	3.7510	1.4109	25.38	0.21	0.750			
0.4600	29439.55	3.7480	3.7480	1.4388	25.37	0.20	0.750			
0.4643	29714.56	3.7450	3.7451	1.4759	25.35	0.18	0.750			
0.4686	29993.02	3.7420	3.7422	1.4642	25.33	0.16	0.750			
0.4731	30278.29	3.7390	3.7387	1.5028	25.32	0.15	0.750			
0.4776	30569.51	3.7360	3.7354	1.5510	25.30	0.13	0.750			
0.4824	30874.60	3.7330	3.7335	1.6014	25.29	0.12	0.750			
0.4874	31192.56	3.7300	3.7304	1.6318	25.27	0.10	0.750			
0.4924	31510.40	3.7270	3.7276	1.7023	25.26	0.09	0.750			
0.4974	31833.74	3.7240	3.7245	1.7725	25.25	0.08	0.750			
0.5030	32189.56	3.7210	3.7209	1.8457	25.23	0.06	0.750			
0.5085	32544.20	3.7180	3.7184	1.8733	25.21	0.04	0.750			
0.5143	32916.38	3.7150	3.7153	1.9342	25.20	0.03	0.750			
0.5203	33296.83	3.7120	3.7123	1.9873	25.18	0.01	0.750			
0.5261	33669.99	3.7090	3.7086	2.0304	25.17	-0.00	0.750			
0.5325	34079.95	3.7060	3.7058	2.0610	25.15	-0.02	0.750			
0.5387	34476.34	3.7030	3.7036	2.1429	25.13	-0.04	0.750			
0.5452	34890.93	3.7000	3.7004	2.2043	25.12	-0.05	0.750			
0.5519	35323.90	3.6970	3.6975	2.2393	25.10	-0.07	0.750			
0.5588	35761.07	3.6940	3.6939	2.2750	25.08	-0.09	0.750			
0.5657	36207.72	3.6910	3.6914	2.3776	25.07	-0.10	0.750			
0.5731	36676.66	3.6880	3.6877	2.4968	25.06	-0.11	0.750			
0.5811	37187.63	3.6850	3.6851	2.6146	25.04	-0.13	0.750			
0.5886	37670.44	3.6820	3.6819	2.5515	25.03	-0.14	0.750			
0.5963	38165.39	3.6790	3.6788	2.6380	25.02	-0.15	0.750			
0.6042	38668.01	3.6760	3.6765	2.7042	25.01	-0.16	0.750			
0.6128	39216.16	3.6730	3.6735	2.8197	25.00	-0.17	0.750			
0.6211	39751.30	3.6700	3.6700	2.6829	25.00	-0.17	0.750			
0.6293	40277.36	3.6670	3.6665	2.6336	25.01	-0.16	0.750			
0.6373	40785.26	3.6640	3.6646	2.5132	25.01	-0.16	0.750			
0.6443	41237.65	3.6610	3.6604	2.3060	25.02	-0.15	0.750			
0.6512	41678.40	3.6580	3.6582	2.2091	25.02	-0.15	0.750			
0.6574	42071.74	3.6550	3.6555	1.9676	25.03	-0.14	0.750			
0.6630	42431.43	3.6520	3.6513	1.8283	25.04	-0.13	0.750			
0.6681	42759.60	3.6490	3.6487	1.6523	25.04	-0.13	0.750			
0.6729	43067.34	3.6460	3.6456	1.5251	25.05	-0.12	0.750			
0.6772	43342.33	3.6430	3.6433	1.3929	25.06	-0.11	0.750			
0.6812	43596.94	3.6400	3.6402	1.2719	25.06	-0.11	0.750			
0.6848	43829.06	3.6370	3.6369	1.1686	25.07	-0.10	0.750			
0.6881	44039.84	3.6340	3.6340	1.0705	25.08	-0.09	0.750			
0.6911	44230.96	3.6310	3.6311	1.0154	25.09	-0.08	0.750			
0.6941	44419.78	3.6280	3.6281	0.9784	25.09	-0.08	0.750			
0.6969	44601.96	3.6250	3.6245	0.9430	25.10	-0.07	0.750			
0.6997	44780.30	3.6220	3.6221	0.9081	25.10	-0.07	0.750			
0.7025	44957.32	3.6190	3.6191	0.8609	25.11	-0.06	0.750			
0.7050	45120.29	3.6160	3.6161	0.8319	25.11	-0.06	0.750			
0.7074	45273.47	3.6130	3.6131	0.7796	25.12	-0.05	0.750			
0.7097	45419.51	3.6100	3.6090	0.7322	25.12	-0.05	0.750			
0.7118	45556.08	3.6070	3.6073	0.6786	25.13	-0.04	0.750			
0.7138	45683.55	3.6040	3.6042	0.6270	25.14	-0.03	0.750			
0.7156	45800.59	3.6010	3.6012	0.5688	25.14	-0.03	0.750			
0.7173	45910.05	3.5980	3.5978	0.5158	25.15	-0.02	0.750			
0.7187	45993.95	3.5950	3.5951	0.4425	25.16	-0.01	0.750			
0.7199	46072.73	3.5920	3.5919	0.3899	25.16	-0.01	0.750			
0.7210	46142.72	3.5890	3.5890	0.3377	25.17	-0.00	0.750			
0.7219	46202.22	3.5860	3.5859	0.2849	25.17	-0.00	0.750			
0.7227	46252.44	3.5830	3.5830	0.2345	25.17	0.00	0.750			
0.7233	46292.96	3.5800	3.5802	0.1819	25.18	0.01	0.750			
0.7238	46323.93	3.5770	3.5774	0.1247	25.18	0.01	0.750			
0.7241	46342.38	3.5740	3.5750	0.0588	25.18	0.01	0.750			
