Ah_balance (normalized)	Ah_balance (mAh)	Voltage - fit (V)	Voltage -  interpolate (V)	dQ/dV (1/V)	Temperature (°C)	Temperature - diff (°C)	Current (C)	R_DC 0ms (mOhm)	R_DC 50ms (mOhm)	R_DC 50 ms PEC (mOhm)
0.0469	3000.98	4.1960	4.1965	0.7649	25.37	0.61	0.750			
0.0492	3147.60	4.1930	4.1930	0.7637	25.37	0.61	0.750			
0.0515	3295.40	4.1900	4.1908	0.7570	25.37	0.61	0.750			
0.0537	3436.78	4.1870	4.1881	0.7562	25.37	0.61	0.750			
0.0559	3579.85	4.1840	4.1849	0.7531	25.38	0.62	0.750			
0.0582	3726.96	4.1810	4.1824	0.7612	25.38	0.62	0.750			
0.0605	3872.42	4.1780	4.1788	0.7582	25.38	0.62	0.750			
0.0628	4017.15	4.1750	4.1762	0.7615	25.38	0.62	0.750			
0.0651	4164.18	4.1720	4.1721	0.7711	25.38	0.62	0.750			
0.0674	4312.39	4.1690	4.1700	0.7694	25.38	0.62	0.750			
0.0697	4460.59	4.1660	4.1671	0.7744	25.38	0.62	0.750			
0.0720	4611.14	4.1630	4.1639	0.7782	25.38	0.62	0.750			
0.0744	4763.83	4.1600	4.1589	0.7828	25.38	0.62	0.750			
0.0767	4911.20	4.1570	4.1577	0.7715	25.38	0.62	0.750			
0.0790	5058.24	4.1540	4.1536	0.7731	25.38	0.62	0.750			
0.0813	5206.03	4.1510	4.1518	0.7709	25.38	0.62	0.750			
0.0837	5355.18	4.1480	4.1491	0.7731	25.38	0.62	0.750			
0.0860	5502.74	4.1450	4.1454	0.7738	25.38	0.62	0.750			
0.0883	5649.98	4.1420	4.1430	0.7720	25.38	0.62	0.750			
0.0906	5798.00	4.1390	4.1392	0.7745	25.38	0.62	0.750			
0.0929	5945.41	4.1360	4.1368	0.7742	25.39	0.63	0.750			
0.0952	6093.31	4.1330	4.1339	0.7802	25.39	0.63	0.750			
0.0976	6245.28	4.1300	4.1309	0.7879	25.39	0.63	0.750			
0.1000	6397.35	4.1270	4.1278	0.7938	25.39	0.63	0.750			
0.1024	6552.28	4.1240	4.1249	0.8030	25.39	0.63	0.750			
0.1048	6705.16	4.1210	4.1217	0.7952	25.40	0.64	0.750			
0.1072	6859.55	4.1180	4.1190	0.7914	25.40	0.64	0.750			
0.1096	7011.28	4.1150	4.1158	0.7892	25.40	0.64	0.750			
0.1118	7158.32	4.1120	4.1130	0.7867	25.40	0.64	0.750			
0.1142	7308.92	4.1090	4.1097	0.7842	25.40	0.64	0.750			
0.1165	7457.31	4.1060	4.1072	0.7882	25.40	0.64	0.750			
0.1189	7609.90	4.1030	4.1037	0.7945	25.41	0.65	0.750			
0.1213	7765.21	4.1000	4.1011	0.8022	25.41	0.65	0.750			
0.1238	7921.15	4.0970	4.0983	0.8068	25.41	0.65	0.750			
0.1262	8073.94	4.0940	4.0949	0.7958	25.41	0.65	0.750			
0.1285	8225.86	4.0910	4.0920	0.7970	25.42	0.66	0.750			
0.1309	8375.71	4.0880	4.0869	0.7983	25.42	0.66	0.750			
0.1333	8528.31	4.0850	4.0862	0.8109	25.43	0.67	0.750			
0.1357	8686.12	4.0820	4.0816	0.8152	25.43	0.67	0.750			
0.1382	8845.90	4.0790	4.0798	0.8211	25.43	0.67	0.750			
0.1407	9006.60	4.0760	4.0768	0.8151	25.43	0.67	0.750			
0.1432	9162.44	4.0730	4.0722	0.8145	25.43	0.67	0.750			
0.1456	9317.06	4.0700	4.0708	0.8127	25.43	0.67	0.750			
0.1480	9472.40	4.0670	4.0677	0.8152	25.43	0.67	0.750			
0.1504	9627.28	4.0640	4.0640	0.8157	25.43	0.67	0.750			
0.1529	9787.01	4.0610	4.0617	0.8308	25.43	0.67	0.750			
0.1554	9947.54	4.0580	4.0592	0.8357	25.44	0.68	0.750			
0.1580	10110.17	4.0550	4.0557	0.8337	25.44	0.68	0.750			
0.1605	10269.83	4.0520	4.0527	0.8303	25.44	0.68	0.750			
0.1629	10428.35	4.0490	4.0501	0.8300	25.44	0.68	0.750			
0.1654	10585.98	4.0460	4.0459	0.8313	25.44	0.68	0.750			
0.1679	10744.94	4.0430	4.0440	0.8317	25.45	0.69	0.750			
0.1704	10903.12	4.0400	4.0412	0.8351	25.45	0.69	0.750			
0.1729	11066.56	4.0370	4.0378	0.8446	25.45	0.69	0.750			
0.1755	11230.55	4.0340	4.0340	0.8528	25.45	0.69	0.750			
0.1780	11392.78	4.0310	4.0318	0.8519	25.45	0.69	0.750			
0.1806	11558.00	4.0280	4.0290	0.8568	25.45	0.69	0.750			
0.1832	11723.62	4.0250	4.0256	0.8623	25.45	0.69	0.750			
0.1857	11886.91	4.0220	4.0226	0.8548	25.45	0.69	0.750			
0.1883	12051.60	4.0190	4.0201	0.8545	25.45	0.69	0.750			
0.1908	12213.93	4.0160	4.0152	0.8633	25.46	0.70	0.750			
0.1934	12380.09	4.0130	4.0139	0.8671	25.46	0.70	0.750			
0.1961	12548.30	4.0100	4.0094	0.8707	25.47	0.71	0.750			
0.1987	12717.62	4.0070	4.0074	0.8752	25.47	0.71	0.750			
0.2014	12887.93	4.0040	4.0051	0.8807	25.47	0.71	0.750			
0.2040	13053.33	4.0010	4.0019	0.8704	25.47	0.71	0.750			
0.2065	13217.73	3.9980	3.9991	0.8700	25.47	0.71	0.750			
0.2091	13384.02	3.9950	3.9939	0.8796	25.47	0.71	0.750			
0.2118	13554.40	3.9920	3.9928	0.8877	25.47	0.71	0.750			
0.2145	13726.22	3.9890	3.9902	0.8937	25.47	0.71	0.750			
0.2172	13900.56	3.9860	3.9868	0.8998	25.47	0.71	0.750			
0.2199	14076.44	3.9830	3.9839	0.9024	25.48	0.72	0.750			
0.2226	14248.18	3.9800	3.9811	0.9019	25.48	0.72	0.750			
0.2253	14418.53	3.9770	3.9781	0.8964	25.48	0.72	0.750			
0.2280	14589.32	3.9740	3.9750	0.8956	25.49	0.73	0.750			
0.2307	14761.96	3.9710	3.9719	0.8968	25.50	0.74	0.750			
0.2333	14932.68	3.9680	3.9691	0.8992	25.50	0.74	0.750			
0.2360	15106.72	3.9650	3.9662	0.9034	25.51	0.75	0.750			
0.2388	15280.02	3.9620	3.9624	0.9005	25.51	0.75	0.750			
0.2414	15451.90	3.9590	3.9599	0.9029	25.51	0.75	0.750			
0.2442	15625.96	3.9560	3.9572	0.9057	25.51	0.75	0.750			
0.2468	15797.21	3.9530	3.9533	0.9054	25.51	0.75	0.750			
0.2495	15970.37	3.9500	3.9512	0.9109	25.51	0.75	0.750			
0.2523	16146.03	3.9470	3.9484	0.9324	25.51	0.75	0.750			
0.2552	16329.62	3.9440	3.9445	0.9265	25.51	0.75	0.750			
0.2580	16509.11	3.9410	3.9415	0.9277	25.51	0.75	0.750			
0.2607	16683.12	3.9380	3.9387	0.9202	25.51	0.75	0.750			
0.2634	16859.34	3.9350	3.9356	0.9205	25.51	0.75	0.750			
0.2661	17033.52	3.9320	3.9332	0.9180	25.51	0.75	0.750			
0.2689	17208.44	3.9290	3.9299	0.9216	25.52	0.76	0.750			
0.2717	17390.60	3.9260	3.9271	0.9401	25.52	0.76	0.750			
0.2745	17570.92	3.9230	3.9241	0.9409	25.52	0.76	0.750			
0.2773	17747.74	3.9200	3.9197	0.9379	25.52	0.76	0.750			
0.2801	17927.14	3.9170	3.9181	0.9324	25.53	0.77	0.750			
0.2829	18107.01	3.9140	3.9154	0.9373	25.53	0.77	0.750			
0.2858	18289.67	3.9110	3.9110	0.9458	25.53	0.77	0.750			
0.2886	18467.47	3.9080	3.9087	0.9340	25.53	0.77	0.750			
0.2913	18646.17	3.9050	3.9062	0.9341	25.53	0.77	0.750			
0.2941	18823.69	3.9020	3.9019	0.9436	25.52	0.76	0.750			
0.2970	19006.17	3.8990	3.8990	0.9576	25.52	0.76	0.750			
0.2998	19189.34	3.8960	3.8961	0.9571	25.52	0.76	0.750			
0.3027	19373.59	3.8930	3.8930	0.9544	25.52	0.76	0.750			
0.3056	19557.02	3.8900	3.8912	0.9638	25.51	0.75	0.750			
0.3084	19738.38	3.8870	3.8887	0.9568	25.51	0.75	0.750			
0.3113	19923.55	3.8840	3.8839	0.9587	25.51	0.75	0.750			
0.3142	20106.85	3.8810	3.8821	0.9653	25.51	0.75	0.750			
0.3170	20288.79	3.8780	3.8786	0.9643	25.51	0.75	0.750			
0.3200	20479.93	3.8750	3.8763	0.9666	25.51	0.75	0.750			
0.3228	20659.93	3.8720	3.8729	0.9610	25.51	0.75	0.750			
0.3257	20844.87	3.8690	3.8699	0.9646	25.50	0.74	0.750			
0.3286	21030.80	3.8660	3.8669	0.9595	25.50	0.74	0.750			
0.3315	21217.57	3.8630	3.8635	0.9672	25.49	0.73	0.750			
0.3344	21400.17	3.8600	3.8607	0.9661	25.48	0.72	0.750			
0.3372	21579.50	3.8570	3.8567	0.9675	25.48	0.72	0.750			
0.3401	21769.07	3.8540	3.8526	0.9918	25.47	0.71	0.750			
0.3431	21958.63	3.8510	3.8520	1.0076	25.47	0.71	0.750			
0.3461	22151.35	3.8480	3.8494	1.0187	25.46	0.70	0.750			
0.3493	22355.15	3.8450	3.8464	1.0216	25.46	0.70	0.750			
0.3524	22553.31	3.8420	3.8436	1.0226	25.45	0.69	0.750			
0.3554	22745.99	3.8390	3.8398	1.0283	25.44	0.68	0.750			
0.3584	22938.73	3.8360	3.8369	1.0351	25.44	0.68	0.750			
0.3616	23140.82	3.8330	3.8344	1.0470	25.43	0.67	0.750			
0.3647	23340.11	3.8300	3.8296	1.0757	25.42	0.66	0.750	0.239	0.330	
0.3678	23540.65	3.8270	3.8283	1.1041	25.40	0.64	0.750			
0.3712	23755.85	3.8240	3.8243	1.1501	25.39	0.63	0.750			
0.3747	23983.58	3.8210	3.8216	1.1554	25.38	0.62	0.750			
0.3783	24212.76	3.8180	3.8193	1.1808	25.37	0.61	0.750			
0.3821	24455.25	3.8150	3.8157	1.1822	25.36	0.60	0.750			
0.3856	24680.93	3.8120	3.8123	1.1124	25.35	0.59	0.750			
0.3889	24889.84	3.8090	3.8092	1.1016	25.34	0.58	0.750			
0.3916	25063.50	3.8060	3.8066	1.0308	25.33	0.57	0.750			
0.3948	25264.75	3.8030	3.8038	1.0603	25.31	0.55	0.750			
0.3980	25470.95	3.8000	3.8005	1.0885	25.30	0.54	0.750			
0.4013	25682.56	3.7970	3.7974	1.0845	25.29	0.53	0.750			
0.4047	25897.79	3.7940	3.7943	1.1116	25.28	0.52	0.750			
0.4081	26117.81	3.7910	3.7911	1.1241	25.27	0.51	0.750			
0.4114	26330.43	3.7880	3.7876	1.1019	25.26	0.50	0.750			
0.4147	26541.88	3.7850	3.7852	1.1316	25.24	0.48	0.750			
0.4181	26761.05	3.7820	3.7822	1.1561	25.23	0.47	0.750			
0.4217	26991.38	3.7790	3.7790	1.1644	25.22	0.46	0.750			
0.4252	27214.69	3.7760	3.7761	1.1665	25.20	0.44	0.750			
0.4286	27430.31	3.7730	3.7733	1.1990	25.19	0.43	0.750			
0.4323	27669.19	3.7700	3.7701	1.2206	25.18	0.42	0.750			
0.4360	27903.49	3.7670	3.7662	1.2568	25.17	0.41	0.750			
0.4397	28142.59	3.7640	3.7646	1.2901	25.15	0.39	0.750			
0.4437	28399.51	3.7610	3.7614	1.3112	25.14	0.38	0.750			
0.4479	28662.95	3.7580	3.7577	1.2779	25.12	0.36	0.750			
0.4517	28909.15	3.7550	3.7554	1.2760	25.11	0.35	0.750			
0.4553	29137.83	3.7520	3.7528	1.2601	25.10	0.34	0.750			
0.4590	29374.11	3.7490	3.7497	1.2911	25.09	0.33	0.750			
0.4628	29616.41	3.7460	3.7467	1.3261	25.07	0.31	0.750			
0.4667	29869.77	3.7430	3.7423	1.3797	25.06	0.30	0.750			
0.4710	30147.10	3.7400	3.7410	1.4699	25.04	0.28	0.750			
0.4756	30439.74	3.7370	3.7360	1.5430	25.02	0.26	0.750			
0.4803	30740.33	3.7340	3.7350	1.6014	25.00	0.24	0.750			
0.4852	31053.13	3.7310	3.7319	1.6698	24.98	0.22	0.750			
0.4903	31381.21	3.7280	3.7275	1.7012	24.97	0.21	0.750			
0.4955	31714.28	3.7250	3.7257	1.7482	24.95	0.19	0.750			
0.5007	32046.42	3.7220	3.7228	1.7908	24.93	0.17	0.750			
0.5061	32388.66	3.7190	3.7201	1.8577	24.92	0.16	0.750			
0.5118	32752.20	3.7160	3.7173	1.9140	24.90	0.14	0.750			
0.5176	33125.35	3.7130	3.7120	1.9151	24.88	0.12	0.750			
0.5236	33513.51	3.7100	3.7109	1.9490	24.86	0.10	0.750			
0.5293	33872.11	3.7070	3.7081	1.9342	24.84	0.08	0.750			
0.5349	34231.33	3.7040	3.7049	2.0082	24.82	0.06	0.750			
0.5410	34625.55	3.7010	3.7002	2.0713	24.80	0.04	0.750			
0.5475	35039.26	3.6980	3.6991	2.1433	24.78	0.02	0.750			
0.5542	35471.15	3.6950	3.6942	2.1710	24.76	0.00	0.750			
0.5606	35876.93	3.6920	3.6928	2.1885	24.74	-0.02	0.750			
0.5669	36278.67	3.6890	3.6889	2.2569	24.73	-0.03	0.750			
0.5738	36725.08	3.6860	3.6867	2.5180	24.71	-0.05	0.750			
0.5817	37230.95	3.6830	3.6825	2.6904	24.69	-0.07	0.750			
0.5902	37775.75	3.6800	3.6811	2.8139	24.67	-0.09	0.750			
0.5986	38308.12	3.6770	3.6774	2.8955	24.66	-0.10	0.750			
0.6075	38878.16	3.6740	3.6752	2.9312	24.65	-0.11	0.750			
0.6163	39443.30	3.6710	3.6712	2.9830	24.63	-0.13	0.750			
0.6249	39993.35	3.6680	3.6682	2.8965	24.62	-0.14	0.750			
0.6333	40528.59	3.6650	3.6663	2.8554	24.62	-0.14	0.750			
0.6418	41077.54	3.6620	3.6633	2.6992	24.62	-0.14	0.750			
0.6498	41590.23	3.6590	3.6604	2.5256	24.62	-0.14	0.750			
0.6569	42040.35	3.6560	3.6574	2.2503	24.63	-0.13	0.750			
0.6632	42446.42	3.6530	3.6543	2.0695	24.63	-0.13	0.750			
0.6691	42820.35	3.6500	3.6513	1.8629	24.64	-0.12	0.750			
0.6742	43149.26	3.6470	3.6483	1.6701	24.64	-0.12	0.750			
0.6789	43446.75	3.6440	3.6448	1.5069	24.65	-0.11	0.750			
0.6832	43722.62	3.6410	3.6418	1.3752	24.66	-0.10	0.750			
0.6870	43965.56	3.6380	3.6392	1.2396	24.67	-0.09	0.750			
0.6905	44189.29	3.6350	3.6357	1.1300	24.67	-0.09	0.750			
0.6936	44387.74	3.6320	3.6327	1.0493	24.68	-0.08	0.750			
0.6965	44578.56	3.6290	3.6300	0.9948	24.68	-0.08	0.750			
0.6994	44761.89	3.6260	3.6272	0.9473	24.68	-0.08	0.750			
0.7021	44933.29	3.6230	3.6238	0.9162	24.69	-0.07	0.750			
0.7049	45113.07	3.6200	3.6206	0.8933	24.70	-0.06	0.750			
0.7075	45277.40	3.6170	3.6180	0.8459	24.71	-0.05	0.750			
0.7099	45434.51	3.6140	3.6145	0.8152	24.72	-0.04	0.750			
0.7123	45588.51	3.6110	3.6108	0.7897	24.72	-0.04	0.750			
0.7147	45739.40	3.6080	3.6083	0.7477	24.73	-0.03	0.750			
0.7169	45883.54	3.6050	3.6050	0.6944	24.74	-0.02	0.750			
0.7190	46015.80	3.6020	3.6025	0.6322	24.75	-0.01	0.750			
0.7209	46137.20	3.5990	3.5995	0.5595	24.75	-0.01	0.750			
0.7223	46229.85	3.5960	3.5970	0.4685	24.76	-0.00	0.750			
0.7236	46309.79	3.5930	3.5933	0.3946	24.76	0.00	0.750			
0.7246	46376.51	3.5900	3.5911	0.3318	24.76	0.00	0.750			
0.7255	46434.26	3.5870	3.5881	0.2756	24.77	0.01	0.750			
0.7263	46481.43	3.5840	3.5846	0.2222	24.77	0.01	0.750			
0.7269	46518.98	3.5810	3.5820	0.1703	24.77	0.01	0.750			
0.7273	46546.62	3.5780	3.5792	0.1206	24.77	0.01	0.750			
