Ah_balance (normalized)	Ah_balance (mAh)	Voltage - fit (V)	Voltage -  interpolate (V)	dQ/dV (1/V)	Temperature (°C)	Temperature - diff (°C)	Current (C)	R_DC 0ms (mOhm)	R_DC 50ms (mOhm)	R_DC 50 ms PEC (mOhm)
0.0482	3087.87	4.1960	4.1961	0.7830	25.65	0.40	0.750			
0.0506	3237.23	4.1930	4.1930	0.7758	25.65	0.40	0.750			
0.0529	3384.94	4.1900	4.1900	0.7736	25.65	0.40	0.750			
0.0552	3533.36	4.1870	4.1870	0.7728	25.65	0.40	0.750			
0.0575	3680.99	4.1840	4.1839	0.7721	25.65	0.40	0.750			
0.0598	3829.59	4.1810	4.1811	0.7735	25.65	0.40	0.750			
0.0622	3978.14	4.1780	4.1780	0.7721	25.66	0.41	0.750			
0.0645	4125.66	4.1750	4.1750	0.7747	25.66	0.41	0.750			
0.0668	4274.42	4.1720	4.1720	0.7753	25.66	0.41	0.750			
0.0691	4422.72	4.1690	4.1690	0.7772	25.67	0.42	0.750			
0.0715	4573.29	4.1660	4.1661	0.7808	25.67	0.42	0.750			
0.0738	4723.50	4.1630	4.1630	0.7833	25.67	0.42	0.750			
0.0762	4874.53	4.1600	4.1600	0.7827	25.67	0.42	0.750			
0.0785	5024.88	4.1570	4.1570	0.7836	25.66	0.41	0.750			
0.0809	5174.79	4.1540	4.1540	0.7788	25.66	0.41	0.750			
0.0832	5324.48	4.1510	4.1508	0.7801	25.66	0.41	0.750			
0.0855	5470.24	4.1480	4.1482	0.7870	25.66	0.41	0.750			
0.0879	5624.58	4.1450	4.1450	0.7862	25.66	0.41	0.750			
0.0903	5777.29	4.1420	4.1419	0.7853	25.67	0.42	0.750			
0.0926	5929.06	4.1390	4.1389	0.7840	25.67	0.42	0.750			
0.0950	6077.85	4.1360	4.1365	0.7835	25.67	0.42	0.750			
0.0973	6228.02	4.1330	4.1329	0.7854	25.67	0.42	0.750			
0.0996	6377.33	4.1300	4.1300	0.7811	25.67	0.42	0.750			
0.1020	6525.80	4.1270	4.1270	0.7849	25.67	0.42	0.750			
0.1044	6680.17	4.1240	4.1240	0.7996	25.67	0.42	0.750			
0.1068	6832.20	4.1210	4.1211	0.8004	25.67	0.42	0.750			
0.1092	6986.89	4.1180	4.1180	0.8007	25.67	0.42	0.750			
0.1116	7140.29	4.1150	4.1150	0.8021	25.67	0.42	0.750			
0.1140	7294.31	4.1120	4.1120	0.7979	25.68	0.43	0.750			
0.1164	7446.74	4.1090	4.1090	0.8032	25.68	0.43	0.750			
0.1187	7599.50	4.1060	4.1061	0.8055	25.69	0.44	0.750			
0.1212	7755.16	4.1030	4.1025	0.8120	25.69	0.44	0.750			
0.1236	7911.34	4.1000	4.1001	0.8164	25.69	0.44	0.750			
0.1261	8070.39	4.0970	4.0970	0.8196	25.69	0.44	0.750			
0.1286	8229.13	4.0940	4.0941	0.8241	25.70	0.45	0.750			
0.1310	8385.44	4.0910	4.0910	0.8195	25.70	0.45	0.750			
0.1335	8544.67	4.0880	4.0878	0.8234	25.70	0.45	0.750			
0.1360	8702.52	4.0850	4.0851	0.8244	25.70	0.45	0.750			
0.1385	8861.76	4.0820	4.0820	0.8195	25.70	0.45	0.750			
0.1409	9018.35	4.0790	4.0791	0.8281	25.71	0.46	0.750			
0.1434	9176.14	4.0760	4.0760	0.8279	25.71	0.46	0.750			
0.1459	9336.10	4.0730	4.0726	0.8328	25.71	0.46	0.750			
0.1484	9496.85	4.0700	4.0702	0.8369	25.71	0.46	0.750			
0.1509	9658.90	4.0670	4.0671	0.8371	25.71	0.46	0.750			
0.1534	9820.62	4.0640	4.0641	0.8416	25.71	0.46	0.750			
0.1559	9980.29	4.0610	4.0610	0.8360	25.71	0.46	0.750			
0.1584	10140.49	4.0580	4.0576	0.8398	25.71	0.46	0.750			
0.1610	10303.39	4.0550	4.0552	0.8452	25.71	0.46	0.750			
0.1635	10466.18	4.0520	4.0521	0.8508	25.71	0.46	0.750			
0.1661	10631.91	4.0490	4.0490	0.8593	25.72	0.47	0.750			
0.1687	10796.14	4.0460	4.0460	0.8569	25.72	0.47	0.750			
0.1713	10962.02	4.0430	4.0429	0.8615	25.72	0.47	0.750			
0.1739	11130.63	4.0400	4.0400	0.8575	25.72	0.47	0.750			
0.1765	11294.79	4.0370	4.0371	0.8631	25.72	0.47	0.750			
0.1791	11459.92	4.0340	4.0341	0.8635	25.73	0.48	0.750			
0.1816	11624.83	4.0310	4.0310	0.8652	25.73	0.48	0.750			
0.1842	11789.70	4.0280	4.0280	0.8690	25.73	0.48	0.750			
0.1869	11958.65	4.0250	4.0250	0.8685	25.73	0.48	0.750			
0.1895	12126.40	4.0220	4.0220	0.8780	25.73	0.48	0.750			
0.1921	12295.59	4.0190	4.0190	0.8804	25.73	0.48	0.750			
0.1947	12463.03	4.0160	4.0161	0.8813	25.73	0.48	0.750			
0.1974	12633.86	4.0130	4.0131	0.8886	25.73	0.48	0.750			
0.2001	12805.21	4.0100	4.0100	0.8904	25.74	0.49	0.750			
0.2028	12976.93	4.0070	4.0070	0.8924	25.74	0.49	0.750			
0.2055	13150.48	4.0040	4.0041	0.8988	25.74	0.49	0.750			
0.2081	13320.05	4.0010	4.0009	0.8961	25.75	0.50	0.750			
0.2108	13492.95	3.9980	3.9981	0.9005	25.75	0.50	0.750			
0.2135	13665.42	3.9950	3.9950	0.8957	25.75	0.50	0.750			
0.2162	13836.45	3.9920	3.9920	0.9024	25.76	0.51	0.750			
0.2189	14010.42	3.9890	3.9891	0.9074	25.76	0.51	0.750			
0.2216	14184.36	3.9860	3.9862	0.9128	25.76	0.51	0.750			
0.2244	14363.52	3.9830	3.9830	0.9007	25.76	0.51	0.750			
0.2271	14536.05	3.9800	3.9801	0.9080	25.76	0.51	0.750			
0.2298	14708.46	3.9770	3.9772	0.9192	25.77	0.52	0.750			
0.2325	14883.18	3.9740	3.9741	0.9162	25.77	0.52	0.750			
0.2353	15061.12	3.9710	3.9711	0.9211	25.77	0.52	0.750			
0.2381	15238.74	3.9680	3.9681	0.9282	25.77	0.52	0.750			
0.2409	15418.32	3.9650	3.9653	0.9364	25.77	0.52	0.750			
0.2438	15605.68	3.9620	3.9620	0.9471	25.77	0.52	0.750			
0.2466	15781.98	3.9590	3.9589	0.9360	25.77	0.52	0.750			
0.2494	15963.68	3.9560	3.9561	0.9249	25.78	0.53	0.750			
0.2522	16140.86	3.9530	3.9530	0.9322	25.78	0.53	0.750			
0.2550	16317.44	3.9500	3.9501	0.9377	25.78	0.53	0.750			
0.2578	16496.47	3.9470	3.9469	0.9403	25.79	0.54	0.750			
0.2606	16680.93	3.9440	3.9440	0.9297	25.79	0.54	0.750			
0.2634	16859.15	3.9410	3.9411	0.9424	25.79	0.54	0.750			
0.2663	17040.63	3.9380	3.9381	0.9452	25.79	0.54	0.750			
0.2691	17224.24	3.9350	3.9350	0.9553	25.79	0.54	0.750			
0.2719	17403.40	3.9320	3.9319	0.9506	25.79	0.54	0.750			
0.2748	17586.65	3.9290	3.9291	0.9495	25.80	0.55	0.750			
0.2777	17770.29	3.9260	3.9261	0.9612	25.80	0.55	0.750			
0.2806	17957.37	3.9230	3.9230	0.9681	25.81	0.56	0.750			
0.2835	18141.05	3.9200	3.9199	0.9623	25.81	0.56	0.750			
0.2864	18329.66	3.9170	3.9170	0.9625	25.81	0.56	0.750			
0.2893	18513.21	3.9140	3.9141	0.9679	25.81	0.56	0.750			
0.2922	18699.14	3.9110	3.9110	0.9757	25.82	0.57	0.750			
0.2951	18886.94	3.9080	3.9079	0.9771	25.82	0.57	0.750			
0.2980	19073.77	3.9050	3.9051	0.9800	25.82	0.57	0.750			
0.3010	19262.51	3.9020	3.9021	0.9782	25.82	0.57	0.750			
0.3039	19449.36	3.8990	3.8991	0.9882	25.83	0.58	0.750			
0.3069	19640.46	3.8960	3.8960	0.9958	25.83	0.58	0.750			
0.3098	19830.29	3.8930	3.8932	0.9964	25.83	0.58	0.750			
0.3129	20022.62	3.8900	3.8901	1.0042	25.83	0.58	0.750			
0.3159	20218.40	3.8870	3.8870	1.0150	25.83	0.58	0.750			
0.3190	20415.75	3.8840	3.8841	1.0135	25.83	0.58	0.750			
0.3220	20608.24	3.8810	3.8810	1.0065	25.83	0.58	0.750			
0.3250	20801.71	3.8780	3.8781	1.0018	25.83	0.58	0.750			
0.3280	20992.43	3.8750	3.8750	1.0059	25.83	0.58	0.750			
0.3310	21183.71	3.8720	3.8721	1.0169	25.83	0.58	0.750			
0.3341	21379.69	3.8690	3.8688	1.0226	25.83	0.58	0.750			
0.3371	21576.39	3.8660	3.8661	1.0222	25.83	0.58	0.750			
0.3402	21774.86	3.8630	3.8632	1.0299	25.83	0.58	0.750			
0.3434	21974.48	3.8600	3.8601	1.0382	25.83	0.58	0.750			
0.3465	22173.31	3.8570	3.8571	1.0335	25.83	0.58	0.750			
0.3495	22370.39	3.8540	3.8541	1.0369	25.82	0.57	0.750			
0.3527	22570.24	3.8510	3.8510	1.0456	25.82	0.57	0.750			
0.3559	22774.68	3.8480	3.8480	1.0584	25.81	0.56	0.750			
0.3591	22981.08	3.8450	3.8450	1.0487	25.81	0.56	0.750			
0.3622	23181.72	3.8420	3.8420	1.0548	25.81	0.56	0.750			
0.3655	23388.90	3.8390	3.8390	1.0408	25.80	0.55	0.750			
0.3685	23583.80	3.8360	3.8361	1.0631	25.80	0.55	0.750			
0.3717	23789.44	3.8330	3.8330	1.0621	25.80	0.55	0.750			
0.3749	23990.66	3.8300	3.8302	1.0827	25.79	0.54	0.750	0.299	0.405	
0.3781	24199.28	3.8270	3.8274	1.1035	25.78	0.53	0.750			
0.3815	24415.55	3.8240	3.8243	1.1248	25.78	0.53	0.750			
0.3849	24634.85	3.8210	3.8211	1.1266	25.77	0.52	0.750			
0.3884	24855.19	3.8180	3.8181	1.1347	25.76	0.51	0.750			
0.3918	25073.73	3.8150	3.8152	1.1301	25.76	0.51	0.750			
0.3952	25294.04	3.8120	3.8119	1.1330	25.75	0.50	0.750			
0.3986	25507.90	3.8090	3.8090	1.1195	25.74	0.49	0.750			
0.4019	25722.40	3.8060	3.8061	1.1268	25.73	0.48	0.750			
0.4053	25938.05	3.8030	3.8030	1.1380	25.72	0.47	0.750			
0.4087	26158.11	3.8000	3.7995	1.1478	25.71	0.46	0.750			
0.4122	26377.95	3.7970	3.7972	1.1441	25.70	0.45	0.750			
0.4156	26596.76	3.7940	3.7941	1.1583	25.69	0.44	0.750			
0.4191	26820.06	3.7910	3.7911	1.1755	25.68	0.43	0.750			
0.4226	27044.15	3.7880	3.7881	1.1716	25.67	0.42	0.750			
0.4261	27273.51	3.7850	3.7851	1.1960	25.65	0.40	0.750			
0.4298	27505.87	3.7820	3.7821	1.2109	25.64	0.39	0.750			
0.4335	27744.98	3.7790	3.7788	1.2101	25.63	0.38	0.750			
0.4371	27973.76	3.7760	3.7760	1.2281	25.62	0.37	0.750			
0.4408	28209.17	3.7730	3.7731	1.2514	25.61	0.36	0.750			
0.4446	28452.51	3.7700	3.7699	1.2650	25.59	0.34	0.750			
0.4484	28696.20	3.7670	3.7671	1.2989	25.58	0.33	0.750			
0.4523	28946.55	3.7640	3.7642	1.3354	25.58	0.33	0.750			
0.4564	29208.06	3.7610	3.7611	1.3707	25.57	0.32	0.750			
0.4606	29479.58	3.7580	3.7580	1.3893	25.55	0.30	0.750			
0.4647	29739.65	3.7550	3.7552	1.4057	25.54	0.29	0.750			
0.4690	30013.54	3.7520	3.7522	1.4292	25.53	0.28	0.750			
0.4733	30289.49	3.7490	3.7484	1.4688	25.51	0.26	0.750			
0.4777	30570.20	3.7460	3.7460	1.4903	25.50	0.25	0.750			
0.4822	30861.79	3.7430	3.7431	1.5236	25.48	0.23	0.750			
0.4869	31161.53	3.7400	3.7397	1.5808	25.47	0.22	0.750			
0.4917	31465.65	3.7370	3.7366	1.6103	25.47	0.22	0.750			
0.4966	31785.12	3.7340	3.7338	1.6670	25.46	0.21	0.750			
0.5017	32107.63	3.7310	3.7310	1.7329	25.45	0.20	0.750			
0.5070	32447.40	3.7280	3.7279	1.7731	25.43	0.18	0.750			
0.5124	32790.91	3.7250	3.7253	1.8395	25.41	0.16	0.750			
0.5181	33158.43	3.7220	3.7224	1.8950	25.39	0.14	0.750			
0.5239	33532.26	3.7190	3.7190	1.9453	25.37	0.12	0.750			
0.5297	33899.23	3.7160	3.7162	1.9974	25.36	0.11	0.750			
0.5359	34297.77	3.7130	3.7130	2.0368	25.34	0.09	0.750			
0.5421	34693.90	3.7100	3.7098	2.0887	25.32	0.07	0.750			
0.5485	35105.69	3.7070	3.7071	2.1464	25.30	0.05	0.750			
0.5551	35529.51	3.7040	3.7041	2.2161	25.28	0.03	0.750			
0.5620	35965.41	3.7010	3.7005	2.2992	25.26	0.01	0.750			
0.5687	36395.34	3.6980	3.6978	2.3894	25.25	-0.00	0.750			
0.5761	36871.86	3.6950	3.6952	2.4644	25.23	-0.02	0.750			
0.5835	37345.67	3.6920	3.6923	2.5098	25.22	-0.03	0.750			
0.5912	37838.89	3.6890	3.6889	2.5668	25.20	-0.05	0.750			
0.5991	38344.67	3.6860	3.6857	2.6503	25.18	-0.07	0.750			
0.6071	38851.39	3.6830	3.6830	2.7070	25.17	-0.08	0.750			
0.6155	39389.75	3.6800	3.6799	2.7792	25.15	-0.10	0.750			
0.6238	39920.84	3.6770	3.6769	2.8504	25.14	-0.11	0.750			
0.6324	40476.80	3.6740	3.6740	2.9764	25.12	-0.13	0.750			
0.6417	41069.45	3.6710	3.6710	3.0486	25.11	-0.14	0.750			
0.6508	41652.41	3.6680	3.6682	3.0254	25.11	-0.14	0.750			
0.6598	42224.84	3.6650	3.6652	2.8924	25.11	-0.14	0.750			
0.6685	42781.48	3.6620	3.6623	2.7845	25.11	-0.14	0.750			
0.6768	43317.95	3.6590	3.6588	2.6579	25.11	-0.14	0.750			
0.6848	43825.59	3.6560	3.6558	2.4643	25.12	-0.13	0.750			
0.6916	44261.48	3.6530	3.6531	2.2081	25.13	-0.12	0.750			
0.6978	44659.88	3.6500	3.6498	1.9558	25.14	-0.11	0.750			
0.7034	45019.74	3.6470	3.6464	1.7749	25.16	-0.09	0.750			
0.7085	45341.16	3.6440	3.6437	1.5637	25.17	-0.08	0.750			
0.7129	45624.58	3.6410	3.6413	1.3962	25.17	-0.08	0.750			
0.7168	45874.88	3.6380	3.6381	1.2335	25.18	-0.07	0.750			
0.7201	46088.28	3.6350	3.6350	1.0988	25.18	-0.07	0.750			
0.7231	46279.77	3.6320	3.6321	0.9916	25.18	-0.07	0.750			
0.7258	46454.38	3.6290	3.6291	0.9244	25.19	-0.06	0.750			
0.7285	46623.92	3.6260	3.6259	0.8893	25.20	-0.05	0.750			
0.7311	46791.51	3.6230	3.6230	0.8633	25.20	-0.05	0.750			
0.7336	46951.86	3.6200	3.6197	0.8319	25.21	-0.04	0.750			
0.7361	47111.34	3.6170	3.6171	0.8073	25.22	-0.03	0.750			
0.7386	47268.01	3.6140	3.6140	0.7659	25.23	-0.02	0.750			
0.7409	47415.91	3.6110	3.6110	0.7226	25.23	-0.02	0.750			
0.7430	47550.70	3.6080	3.6081	0.6621	25.24	-0.01	0.750			
0.7449	47673.55	3.6050	3.6050	0.5976	25.25	-0.00	0.750			
0.7466	47782.34	3.6020	3.6021	0.5291	25.25	0.00	0.750			
0.7481	47876.43	3.5990	3.5990	0.4599	25.26	0.01	0.750			
0.7493	47957.69	3.5960	3.5960	0.3940	25.26	0.01	0.750			
0.7504	48027.09	3.5930	3.5929	0.3287	25.26	0.01	0.750			
0.7513	48082.32	3.5900	3.5900	0.2614	25.27	0.02	0.750			
0.7520	48126.32	3.5870	3.5872	0.2003	25.27	0.02	0.750			
0.7525	48159.32	3.5840	3.5845	0.1388	25.27	0.02	0.750			
0.7528	48179.99	3.5810	3.5819	0.0682	25.27	0.02	0.750			
