Ah_balance (normalized)	Ah_balance (mAh)	Voltage - fit (V)	Voltage -  interpolate (V)	dQ/dV (1/V)	Temperature (°C)	Temperature - diff (°C)	Current (C)	R_DC 0ms (mOhm)	R_DC 50ms (mOhm)	R_DC 50 ms PEC (mOhm)
0.0000	1.62	4.1880	4.1882	-0.3715	23.82	0.00	-0.050			
0.0004	26.15	4.1870	4.1868	-0.4178	23.82	0.00	-0.050			
0.0008	54.11	4.1860	4.1857	-0.4557	23.82	0.00	-0.050			
0.0013	84.57	4.1850	4.1846	-0.4846	23.82	-0.00	-0.050			
0.0018	116.71	4.1840	4.1838	-0.5081	23.81	-0.01	-0.050			
0.0024	150.77	4.1830	4.1829	-0.5304	23.80	-0.02	-0.050			
0.0029	185.91	4.1820	4.1820	-0.5492	23.79	-0.03	-0.050			
0.0035	222.36	4.1810	4.1811	-0.5662	23.79	-0.03	-0.050			
0.0041	259.84	4.1800	4.1801	-0.5812	23.78	-0.04	-0.050			
0.0047	298.05	4.1790	4.1790	-0.5949	23.77	-0.05	-0.050			
0.0053	337.21	4.1780	4.1780	-0.6071	23.76	-0.06	-0.050			
0.0059	377.13	4.1770	4.1771	-0.6176	23.75	-0.07	-0.050			
0.0065	417.57	4.1760	4.1761	-0.6270	23.75	-0.07	-0.050			
0.0072	461.64	4.1750	4.1750	-0.6403	23.74	-0.08	-0.050			
0.0079	503.47	4.1740	4.1740	-0.6487	23.73	-0.09	-0.050			
0.0085	545.51	4.1730	4.1731	-0.6549	23.73	-0.09	-0.050			
0.0092	587.98	4.1720	4.1721	-0.6608	23.71	-0.11	-0.050			
0.0099	630.57	4.1710	4.1711	-0.6662	23.70	-0.12	-0.050			
0.0105	673.56	4.1700	4.1700	-0.6716	23.70	-0.12	-0.050			
0.0112	716.83	4.1690	4.1691	-0.6772	23.69	-0.13	-0.050			
0.0119	760.58	4.1680	4.1680	-0.6819	23.69	-0.13	-0.050			
0.0126	804.36	4.1670	4.1669	-0.6870	23.67	-0.15	-0.050			
0.0133	848.70	4.1660	4.1659	-0.6915	23.67	-0.15	-0.050			
0.0140	893.17	4.1650	4.1650	-0.6957	23.66	-0.16	-0.050			
0.0147	937.83	4.1640	4.1640	-0.6992	23.66	-0.16	-0.050			
0.0154	982.87	4.1630	4.1631	-0.7024	23.65	-0.17	-0.050			
0.0161	1028.21	4.1620	4.1620	-0.7062	23.64	-0.18	-0.050			
0.0168	1073.71	4.1610	4.1610	-0.7087	23.63	-0.19	-0.050			
0.0175	1119.38	4.1600	4.1600	-0.7121	23.62	-0.20	-0.050			
0.0182	1165.11	4.1590	4.1590	-0.7155	23.61	-0.21	-0.050			
0.0189	1211.04	4.1580	4.1581	-0.7188	23.60	-0.22	-0.050			
0.0196	1257.33	4.1570	4.1570	-0.7221	23.59	-0.23	-0.050			
0.0204	1303.99	4.1560	4.1560	-0.7243	23.57	-0.25	-0.050	0.091	0.448	
0.0211	1350.50	4.1550	4.1551	-0.7260	23.57	-0.25	-0.050			
0.0218	1397.04	4.1540	4.1540	-0.7284	23.57	-0.25	-0.050			
0.0226	1443.59	4.1530	4.1530	-0.7309	23.57	-0.25	-0.050			
0.0233	1490.56	4.1520	4.1520	-0.7335	23.55	-0.27	-0.050			
0.0240	1537.49	4.1510	4.1510	-0.7356	23.55	-0.27	-0.050			
0.0248	1584.55	4.1500	4.1500	-0.7375	23.54	-0.28	-0.050			
0.0255	1631.76	4.1490	4.1490	-0.7395	23.53	-0.29	-0.050			
0.0262	1679.03	4.1480	4.1480	-0.7421	23.52	-0.30	-0.050			
0.0270	1726.68	4.1470	4.1470	-0.7443	23.51	-0.31	-0.050			
0.0277	1774.26	4.1460	4.1460	-0.7465	23.51	-0.31	-0.050			
0.0285	1822.23	4.1450	4.1450	-0.7496	23.49	-0.33	-0.050			
0.0292	1870.12	4.1440	4.1440	-0.7527	23.48	-0.34	-0.050			
0.0300	1918.38	4.1430	4.1430	-0.7558	23.47	-0.35	-0.050			
0.0307	1966.75	4.1420	4.1420	-0.7590	23.47	-0.35	-0.050			
0.0315	2015.39	4.1410	4.1410	-0.7611	23.46	-0.36	-0.050			
0.0323	2064.16	4.1400	4.1401	-0.7631	23.45	-0.37	-0.050			
0.0330	2113.06	4.1390	4.1391	-0.7659	23.45	-0.37	-0.050			
0.0338	2162.36	4.1380	4.1380	-0.7678	23.44	-0.38	-0.050			
0.0346	2211.67	4.1370	4.1370	-0.7706	23.43	-0.39	-0.050			
0.0353	2261.42	4.1360	4.1360	-0.7739	23.42	-0.40	-0.050			
0.0361	2311.48	4.1350	4.1350	-0.7752	23.42	-0.40	-0.050			
0.0369	2361.27	4.1340	4.1341	-0.7763	23.40	-0.42	-0.050			
0.0377	2411.06	4.1330	4.1330	-0.7772	23.39	-0.43	-0.050			
0.0385	2461.00	4.1320	4.1320	-0.7785	23.39	-0.43	-0.050			
0.0392	2511.30	4.1310	4.1310	-0.7802	23.37	-0.45	-0.050			
0.0400	2561.25	4.1300	4.1300	-0.7810	23.37	-0.45	-0.050	0.460	0.547	
0.0408	2611.28	4.1290	4.1290	-0.7822	23.37	-0.45	-0.050			
0.0416	2661.45	4.1280	4.1280	-0.7825	23.36	-0.46	-0.050			
0.0424	2711.66	4.1270	4.1270	-0.7830	23.35	-0.47	-0.050			
0.0432	2761.71	4.1260	4.1260	-0.7834	23.35	-0.47	-0.050			
0.0439	2811.63	4.1250	4.1250	-0.7836	23.35	-0.47	-0.050			
0.0447	2861.69	4.1240	4.1240	-0.7838	23.35	-0.47	-0.050			
0.0455	2911.70	4.1230	4.1230	-0.7846	23.34	-0.48	-0.050			
0.0463	2961.78	4.1220	4.1220	-0.7865	23.32	-0.50	-0.050			
0.0471	3012.00	4.1210	4.1210	-0.7873	23.31	-0.51	-0.050			
0.0478	3062.30	4.1200	4.1200	-0.7896	23.30	-0.52	-0.050			
0.0486	3112.42	4.1190	4.1191	-0.7905	23.31	-0.51	-0.050			
0.0494	3163.02	4.1180	4.1179	-0.7931	23.30	-0.52	-0.050			
0.0502	3213.89	4.1170	4.1169	-0.7948	23.29	-0.53	-0.050			
0.0510	3264.90	4.1160	4.1160	-0.7954	23.29	-0.53	-0.050			
0.0518	3315.96	4.1150	4.1149	-0.7982	23.28	-0.54	-0.050			
0.0526	3367.38	4.1140	4.1139	-0.7997	23.29	-0.53	-0.050			
0.0534	3418.68	4.1130	4.1130	-0.8005	23.29	-0.53	-0.050			
0.0542	3470.15	4.1120	4.1121	-0.8013	23.27	-0.55	-0.050			
0.0550	3521.70	4.1110	4.1110	-0.8022	23.28	-0.54	-0.050			
0.0558	3573.19	4.1100	4.1100	-0.8029	23.28	-0.54	-0.050			
0.0566	3624.93	4.1090	4.1091	-0.8028	23.27	-0.55	-0.050			
0.0574	3676.44	4.1080	4.1081	-0.8036	23.27	-0.55	-0.050			
0.0583	3728.24	4.1070	4.1069	-0.8046	23.26	-0.56	-0.050			
0.0591	3779.91	4.1060	4.1060	-0.8036	23.25	-0.57	-0.050			
0.0599	3831.21	4.1050	4.1051	-0.8039	23.25	-0.57	-0.050	0.288	0.469	
0.0607	3882.54	4.1040	4.1040	-0.8041	23.25	-0.57	-0.050			
0.0615	3933.87	4.1030	4.1030	-0.8038	23.25	-0.57	-0.050			
0.0623	3984.83	4.1020	4.1019	-0.8047	23.25	-0.57	-0.050			
0.0631	4036.08	4.1010	4.1009	-0.8050	23.25	-0.57	-0.050			
0.0639	4087.37	4.1000	4.0999	-0.8053	23.25	-0.57	-0.050			
0.0647	4139.09	4.0990	4.0990	-0.8054	23.24	-0.58	-0.050			
0.0655	4190.69	4.0980	4.0981	-0.8059	23.25	-0.57	-0.050			
0.0663	4242.19	4.0970	4.0970	-0.8071	23.24	-0.58	-0.050			
0.0671	4294.11	4.0960	4.0959	-0.8076	23.23	-0.59	-0.050			
0.0679	4345.88	4.0950	4.0950	-0.8074	23.23	-0.59	-0.050			
0.0687	4397.45	4.0940	4.0940	-0.8082	23.23	-0.59	-0.050			
0.0695	4449.27	4.0930	4.0929	-0.8099	23.22	-0.60	-0.050			
0.0703	4501.09	4.0920	4.0921	-0.8116	23.23	-0.59	-0.050			
0.0711	4553.12	4.0910	4.0911	-0.8126	23.21	-0.61	-0.050			
0.0720	4604.99	4.0900	4.0900	-0.8139	23.21	-0.61	-0.050			
0.0728	4657.37	4.0890	4.0890	-0.8144	23.21	-0.61	-0.050			
0.0736	4709.45	4.0880	4.0881	-0.8147	23.21	-0.61	-0.050			
0.0744	4761.59	4.0870	4.0870	-0.8152	23.20	-0.62	-0.050			
0.0752	4813.96	4.0860	4.0859	-0.8164	23.19	-0.63	-0.050			
0.0760	4866.07	4.0850	4.0850	-0.8168	23.19	-0.63	-0.050			
0.0768	4918.10	4.0840	4.0840	-0.8169	23.19	-0.63	-0.050			
0.0777	4970.67	4.0830	4.0830	-0.8171	23.19	-0.63	-0.050			
0.0785	5022.96	4.0820	4.0821	-0.8176	23.17	-0.65	-0.050			
0.0793	5075.35	4.0810	4.0810	-0.8187	23.18	-0.64	-0.050			
0.0801	5127.91	4.0800	4.0800	-0.8198	23.17	-0.65	-0.050			
0.0809	5180.56	4.0790	4.0791	-0.8212	23.17	-0.65	-0.050			
0.0818	5233.09	4.0780	4.0780	-0.8222	23.17	-0.65	-0.050			
0.0826	5285.54	4.0770	4.0769	-0.8228	23.17	-0.65	-0.050			
0.0834	5338.23	4.0760	4.0761	-0.8240	23.17	-0.65	-0.050			
0.0842	5390.64	4.0750	4.0750	-0.8248	23.16	-0.66	-0.050			
0.0851	5443.42	4.0740	4.0740	-0.8259	23.16	-0.66	-0.050			
0.0859	5495.89	4.0730	4.0729	-0.8261	23.16	-0.66	-0.050			
0.0867	5548.81	4.0720	4.0720	-0.8270	23.15	-0.67	-0.050			
0.0875	5602.06	4.0710	4.0710	-0.8274	23.15	-0.67	-0.050			
0.0884	5655.28	4.0700	4.0700	-0.8285	23.15	-0.67	-0.050			
0.0892	5708.45	4.0690	4.0691	-0.8304	23.15	-0.67	-0.050			
0.0900	5761.72	4.0680	4.0680	-0.8317	23.15	-0.67	-0.050			
0.0909	5814.86	4.0670	4.0669	-0.8322	23.15	-0.67	-0.050			
0.0917	5868.21	4.0660	4.0660	-0.8331	23.14	-0.68	-0.050			
0.0925	5921.64	4.0650	4.0650	-0.8343	23.14	-0.68	-0.050			
0.0934	5975.22	4.0640	4.0640	-0.8345	23.13	-0.69	-0.050			
0.0942	6029.01	4.0630	4.0630	-0.8353	23.13	-0.69	-0.050			
0.0950	6082.38	4.0620	4.0619	-0.8347	23.12	-0.70	-0.050			
0.0959	6135.80	4.0610	4.0609	-0.8349	23.12	-0.70	-0.050			
0.0967	6189.24	4.0600	4.0600	-0.8351	23.11	-0.71	-0.050			
0.0975	6242.57	4.0590	4.0590	-0.8352	23.11	-0.71	-0.050			
0.0984	6295.81	4.0580	4.0579	-0.8359	23.11	-0.71	-0.050			
0.0992	6349.15	4.0570	4.0572	-0.8370	23.11	-0.71	-0.050			
0.1000	6402.63	4.0560	4.0561	-0.8375	23.09	-0.73	-0.050	0.423	0.500	
0.1009	6456.11	4.0550	4.0549	-0.8386	23.09	-0.73	-0.050			
0.1017	6509.82	4.0540	4.0540	-0.8399	23.09	-0.73	-0.050			
0.1026	6563.75	4.0530	4.0530	-0.8407	23.09	-0.73	-0.050			
0.1034	6617.48	4.0520	4.0519	-0.8422	23.07	-0.75	-0.050			
0.1042	6671.52	4.0510	4.0510	-0.8430	23.07	-0.75	-0.050			
0.1051	6725.35	4.0500	4.0499	-0.8436	23.06	-0.76	-0.050			
0.1059	6779.26	4.0490	4.0489	-0.8446	23.07	-0.75	-0.050			
0.1068	6833.62	4.0480	4.0480	-0.8447	23.05	-0.77	-0.050			
0.1076	6887.53	4.0470	4.0470	-0.8453	23.05	-0.77	-0.050			
0.1085	6941.82	4.0460	4.0460	-0.8470	23.05	-0.77	-0.050			
0.1093	6996.20	4.0450	4.0450	-0.8484	23.05	-0.77	-0.050			
0.1102	7050.51	4.0440	4.0440	-0.8494	23.05	-0.77	-0.050			
0.1110	7105.07	4.0430	4.0430	-0.8510	23.04	-0.78	-0.050			
0.1119	7159.41	4.0420	4.0420	-0.8521	23.04	-0.78	-0.050			
0.1127	7213.71	4.0410	4.0409	-0.8535	23.03	-0.79	-0.050			
0.1136	7268.19	4.0400	4.0400	-0.8550	23.03	-0.79	-0.050			
0.1144	7322.97	4.0390	4.0390	-0.8555	23.03	-0.79	-0.050			
0.1153	7377.63	4.0380	4.0380	-0.8561	23.03	-0.79	-0.050			
0.1161	7432.42	4.0370	4.0370	-0.8574	23.02	-0.80	-0.050			
0.1170	7487.50	4.0360	4.0359	-0.8589	23.03	-0.79	-0.050			
0.1178	7542.38	4.0350	4.0350	-0.8606	23.03	-0.79	-0.050			
0.1187	7597.51	4.0340	4.0340	-0.8622	23.03	-0.79	-0.050			
0.1196	7653.03	4.0330	4.0329	-0.8631	23.03	-0.79	-0.050			
0.1204	7708.33	4.0320	4.0320	-0.8644	23.02	-0.80	-0.050	0.286	0.509	
0.1213	7763.80	4.0310	4.0310	-0.8659	23.01	-0.81	-0.050			
0.1222	7819.19	4.0300	4.0301	-0.8667	23.01	-0.81	-0.050			
0.1230	7874.90	4.0290	4.0289	-0.8678	23.01	-0.81	-0.050			
0.1239	7930.75	4.0280	4.0279	-0.8690	23.00	-0.82	-0.050			
0.1248	7986.58	4.0270	4.0271	-0.8690	22.99	-0.83	-0.050			
0.1257	8041.93	4.0260	4.0259	-0.8693	22.99	-0.83	-0.050			
0.1265	8097.69	4.0250	4.0250	-0.8697	22.98	-0.84	-0.050			
0.1274	8153.39	4.0240	4.0240	-0.8699	22.97	-0.85	-0.050			
0.1283	8208.87	4.0230	4.0229	-0.8707	22.97	-0.85	-0.050			
0.1291	8264.51	4.0220	4.0220	-0.8709	22.96	-0.86	-0.050			
0.1300	8320.28	4.0210	4.0210	-0.8712	22.97	-0.85	-0.050			
0.1309	8376.35	4.0200	4.0201	-0.8720	22.95	-0.87	-0.050			
0.1318	8432.33	4.0190	4.0190	-0.8725	22.95	-0.87	-0.050			
0.1326	8488.39	4.0180	4.0180	-0.8725	22.95	-0.87	-0.050			
0.1335	8543.74	4.0170	4.0170	-0.8731	22.95	-0.87	-0.050			
0.1344	8599.61	4.0160	4.0160	-0.8740	22.93	-0.89	-0.050			
0.1352	8655.32	4.0150	4.0149	-0.8742	22.93	-0.89	-0.050			
0.1361	8711.36	4.0140	4.0140	-0.8750	22.93	-0.89	-0.050			
0.1370	8767.58	4.0130	4.0130	-0.8753	22.92	-0.90	-0.050			
0.1379	8823.35	4.0120	4.0121	-0.8760	22.91	-0.91	-0.050			
0.1387	8879.21	4.0110	4.0110	-0.8771	22.90	-0.92	-0.050			
0.1396	8935.65	4.0100	4.0100	-0.8776	22.91	-0.91	-0.050			
0.1405	8991.76	4.0090	4.0090	-0.8794	22.91	-0.91	-0.050	0.231	0.579	
0.1414	9047.76	4.0080	4.0079	-0.8816	22.90	-0.92	-0.050			
0.1423	9104.07	4.0070	4.0071	-0.8831	22.89	-0.93	-0.050			
0.1431	9160.54	4.0060	4.0060	-0.8847	22.88	-0.94	-0.050			
0.1440	9217.18	4.0050	4.0050	-0.8860	22.89	-0.93	-0.050			
0.1449	9273.84	4.0040	4.0040	-0.8869	22.88	-0.94	-0.050			
0.1458	9330.98	4.0030	4.0029	-0.8873	22.87	-0.95	-0.050			
0.1467	9388.12	4.0020	4.0021	-0.8887	22.87	-0.95	-0.050			
0.1476	9445.31	4.0010	4.0010	-0.8893	22.87	-0.95	-0.050			
0.1485	9502.47	4.0000	3.9999	-0.8902	22.87	-0.95	-0.050			
0.1494	9559.79	3.9990	3.9990	-0.8906	22.87	-0.95	-0.050			
0.1503	9616.67	3.9980	3.9981	-0.8908	22.86	-0.96	-0.050			
0.1511	9673.51	3.9970	3.9971	-0.8911	22.86	-0.96	-0.050			
0.1520	9730.47	3.9960	3.9961	-0.8919	22.85	-0.97	-0.050			
0.1529	9787.89	3.9950	3.9951	-0.8931	22.85	-0.97	-0.050			
0.1538	9844.84	3.9940	3.9940	-0.8943	22.86	-0.96	-0.050			
0.1547	9901.97	3.9930	3.9931	-0.8954	22.86	-0.96	-0.050			
0.1556	9959.03	3.9920	3.9919	-0.8954	22.86	-0.96	-0.050			
0.1565	10016.28	3.9910	3.9910	-0.8960	22.85	-0.97	-0.050			
0.1574	10073.39	3.9900	3.9900	-0.8976	22.85	-0.97	-0.050			
0.1583	10130.71	3.9890	3.9890	-0.8987	22.85	-0.97	-0.050			
0.1592	10187.70	3.9880	3.9880	-0.8993	22.85	-0.97	-0.050			
0.1601	10245.21	3.9870	3.9870	-0.9017	22.85	-0.97	-0.050	0.475	0.555	
0.1610	10302.99	3.9860	3.9861	-0.9043	22.84	-0.98	-0.050			
0.1619	10361.01	3.9850	3.9849	-0.9070	22.85	-0.97	-0.050			
0.1628	10419.31	3.9840	3.9840	-0.9092	22.84	-0.98	-0.050			
0.1637	10477.88	3.9830	3.9830	-0.9110	22.84	-0.98	-0.050			
0.1646	10536.31	3.9820	3.9820	-0.9124	22.83	-0.99	-0.050			
0.1655	10595.16	3.9810	3.9810	-0.9129	22.84	-0.98	-0.050			
0.1665	10653.85	3.9800	3.9799	-0.9135	22.83	-0.99	-0.050			
0.1674	10712.50	3.9790	3.9791	-0.9146	22.83	-0.99	-0.050			
0.1683	10771.20	3.9780	3.9779	-0.9154	22.83	-0.99	-0.050			
0.1692	10829.68	3.9770	3.9770	-0.9154	22.83	-0.99	-0.050			
0.1701	10888.51	3.9760	3.9759	-0.9162	22.83	-0.99	-0.050			
0.1711	10947.25	3.9750	3.9751	-0.9163	22.83	-0.99	-0.050			
0.1720	11005.90	3.9740	3.9740	-0.9165	22.82	-1.00	-0.050			
0.1729	11064.67	3.9730	3.9730	-0.9166	22.82	-1.00	-0.050			
0.1738	11123.58	3.9720	3.9720	-0.9171	22.82	-1.00	-0.050			
0.1747	11182.31	3.9710	3.9710	-0.9171	22.82	-1.00	-0.050			
0.1756	11240.67	3.9700	3.9699	-0.9162	22.81	-1.01	-0.050			
0.1766	11299.29	3.9690	3.9690	-0.9150	22.82	-1.00	-0.050			
0.1775	11358.13	3.9680	3.9680	-0.9138	22.81	-1.01	-0.050			
0.1784	11416.56	3.9670	3.9670	-0.9134	22.82	-1.00	-0.050			
0.1793	11475.01	3.9660	3.9660	-0.9129	22.81	-1.01	-0.050			
0.1802	11533.24	3.9650	3.9650	-0.9133	22.81	-1.01	-0.050	0.403	0.531	
0.1811	11591.72	3.9640	3.9640	-0.9134	22.81	-1.01	-0.050			
0.1820	11650.07	3.9630	3.9630	-0.9144	22.83	-0.99	-0.050			
0.1829	11708.20	3.9620	3.9621	-0.9155	22.82	-1.00	-0.050			
0.1839	11766.77	3.9610	3.9610	-0.9165	22.81	-1.01	-0.050			
0.1848	11825.16	3.9600	3.9600	-0.9171	22.81	-1.01	-0.050			
0.1857	11883.54	3.9590	3.9589	-0.9172	22.81	-1.01	-0.050			
0.1866	11942.09	3.9580	3.9579	-0.9187	22.81	-1.01	-0.050			
0.1875	12000.81	3.9570	3.9569	-0.9196	22.82	-1.00	-0.050			
0.1884	12059.89	3.9560	3.9560	-0.9205	22.81	-1.01	-0.050			
0.1894	12118.86	3.9550	3.9551	-0.9215	22.81	-1.01	-0.050			
0.1903	12178.01	3.9540	3.9539	-0.9222	22.81	-1.01	-0.050			
0.1912	12237.31	3.9530	3.9531	-0.9233	22.83	-0.99	-0.050			
0.1921	12296.57	3.9520	3.9520	-0.9242	22.83	-0.99	-0.050			
0.1931	12356.06	3.9510	3.9511	-0.9252	22.83	-0.99	-0.050			
0.1940	12415.56	3.9500	3.9499	-0.9260	22.83	-0.99	-0.050			
0.1949	12474.90	3.9490	3.9490	-0.9268	22.84	-0.98	-0.050			
0.1959	12534.54	3.9480	3.9480	-0.9276	22.83	-0.99	-0.050			
0.1968	12593.65	3.9470	3.9471	-0.9274	22.83	-0.99	-0.050			
0.1977	12652.65	3.9460	3.9460	-0.9283	22.83	-0.99	-0.050			
0.1986	12712.24	3.9450	3.9450	-0.9282	22.83	-0.99	-0.050			
0.1996	12771.66	3.9440	3.9440	-0.9275	22.83	-0.99	-0.050			
0.2005	12830.74	3.9430	3.9430	-0.9277	22.84	-0.98	-0.050	0.266	0.478	
0.2014	12890.01	3.9420	3.9420	-0.9278	22.84	-0.98	-0.050			
0.2023	12949.32	3.9410	3.9410	-0.9290	22.85	-0.97	-0.050			
0.2033	13008.78	3.9400	3.9399	-0.9298	22.84	-0.98	-0.050			
0.2042	13068.14	3.9390	3.9391	-0.9307	22.85	-0.97	-0.050			
0.2051	13127.75	3.9380	3.9380	-0.9316	22.85	-0.97	-0.050			
0.2061	13187.60	3.9370	3.9371	-0.9317	22.83	-0.99	-0.050			
0.2070	13247.56	3.9360	3.9360	-0.9326	22.85	-0.97	-0.050			
0.2079	13307.35	3.9350	3.9351	-0.9324	22.84	-0.98	-0.050			
0.2089	13367.13	3.9340	3.9339	-0.9331	22.83	-0.99	-0.050			
0.2098	13426.99	3.9330	3.9330	-0.9326	22.84	-0.98	-0.050			
0.2107	13486.65	3.9320	3.9320	-0.9330	22.84	-0.98	-0.050			
0.2117	13546.58	3.9310	3.9310	-0.9324	22.84	-0.98	-0.050			
0.2126	13606.40	3.9300	3.9300	-0.9319	22.83	-0.99	-0.050			
0.2135	13666.01	3.9290	3.9291	-0.9312	22.83	-0.99	-0.050			
0.2145	13725.73	3.9280	3.9280	-0.9299	22.83	-0.99	-0.050			
0.2154	13785.69	3.9270	3.9269	-0.9281	22.83	-0.99	-0.050			
0.2163	13845.18	3.9260	3.9260	-0.9269	22.83	-0.99	-0.050			
0.2173	13904.65	3.9250	3.9250	-0.9251	22.82	-1.00	-0.050			
0.2182	13964.15	3.9240	3.9240	-0.9239	22.82	-1.00	-0.050			
0.2191	14022.79	3.9230	3.9230	-0.9217	22.83	-0.99	-0.050			
0.2200	14081.47	3.9220	3.9220	-0.9207	22.83	-0.99	-0.050			
0.2209	14140.20	3.9210	3.9210	-0.9205	22.82	-1.00	-0.050			
0.2219	14198.71	3.9200	3.9201	-0.9191	22.81	-1.01	-0.050			
0.2228	14257.41	3.9190	3.9191	-0.9182	22.81	-1.01	-0.050			
0.2237	14316.17	3.9180	3.9180	-0.9181	22.81	-1.01	-0.050			
0.2246	14374.84	3.9170	3.9169	-0.9175	22.81	-1.01	-0.050			
0.2255	14433.24	3.9160	3.9160	-0.9167	22.81	-1.01	-0.050			
0.2264	14491.72	3.9150	3.9149	-0.9163	22.80	-1.02	-0.050			
0.2273	14550.06	3.9140	3.9140	-0.9163	22.80	-1.02	-0.050			
0.2283	14608.70	3.9130	3.9130	-0.9164	22.80	-1.02	-0.050			
0.2292	14667.45	3.9120	3.9120	-0.9163	22.79	-1.03	-0.050			
0.2301	14726.24	3.9110	3.9111	-0.9166	22.79	-1.03	-0.050			
0.2310	14785.08	3.9100	3.9101	-0.9164	22.77	-1.05	-0.050			
0.2319	14843.98	3.9090	3.9089	-0.9163	22.77	-1.05	-0.050			
0.2329	14902.87	3.9080	3.9080	-0.9158	22.77	-1.05	-0.050			
0.2338	14961.95	3.9070	3.9070	-0.9155	22.77	-1.05	-0.050			
0.2347	15020.46	3.9060	3.9061	-0.9138	22.76	-1.06	-0.050			
0.2356	15079.29	3.9050	3.9050	-0.9123	22.76	-1.06	-0.050			
0.2365	15137.80	3.9040	3.9041	-0.9098	22.75	-1.07	-0.050			
0.2374	15195.86	3.9030	3.9029	-0.9080	22.75	-1.07	-0.050			
0.2383	15254.13	3.9020	3.9019	-0.9053	22.74	-1.08	-0.050			
0.2393	15312.10	3.9010	3.9010	-0.9034	22.73	-1.09	-0.050			
0.2402	15370.11	3.9000	3.8999	-0.9015	22.74	-1.08	-0.050	0.504	0.565	
0.2411	15427.86	3.8990	3.8990	-0.8990	22.73	-1.09	-0.050			
0.2420	15485.24	3.8980	3.8980	-0.8961	22.72	-1.10	-0.050			
0.2429	15542.66	3.8970	3.8970	-0.8931	22.72	-1.10	-0.050			
0.2437	15599.91	3.8960	3.8960	-0.8901	22.71	-1.11	-0.050			
0.2446	15656.65	3.8950	3.8950	-0.8864	22.70	-1.12	-0.050			
0.2455	15713.02	3.8940	3.8940	-0.8833	22.71	-1.11	-0.050			
0.2464	15769.51	3.8930	3.8930	-0.8809	22.69	-1.13	-0.050			
0.2473	15825.51	3.8920	3.8920	-0.8791	22.69	-1.13	-0.050			
0.2481	15881.37	3.8910	3.8910	-0.8775	22.69	-1.13	-0.050			
0.2490	15937.12	3.8900	3.8900	-0.8752	22.69	-1.13	-0.050			
0.2499	15993.02	3.8890	3.8891	-0.8729	22.69	-1.13	-0.050			
0.2508	16048.81	3.8880	3.8880	-0.8712	22.67	-1.15	-0.050			
0.2516	16104.13	3.8870	3.8870	-0.8701	22.67	-1.15	-0.050			
0.2525	16160.05	3.8860	3.8859	-0.8681	22.67	-1.15	-0.050			
0.2534	16215.73	3.8850	3.8850	-0.8661	22.67	-1.15	-0.050			
0.2542	16271.30	3.8840	3.8840	-0.8634	22.65	-1.17	-0.050			
0.2551	16326.57	3.8830	3.8829	-0.8613	22.65	-1.17	-0.050			
0.2560	16381.85	3.8820	3.8821	-0.8594	22.65	-1.17	-0.050			
0.2568	16436.82	3.8810	3.8810	-0.8565	22.65	-1.17	-0.050			
0.2577	16491.55	3.8800	3.8800	-0.8545	22.65	-1.17	-0.050			
0.2585	16546.34	3.8790	3.8791	-0.8529	22.65	-1.17	-0.050			
0.2594	16600.98	3.8780	3.8779	-0.8512	22.63	-1.19	-0.050			
0.2602	16655.48	3.8770	3.8770	-0.8494	22.64	-1.18	-0.050	0.248	0.435	
0.2611	16709.73	3.8760	3.8760	-0.8465	22.64	-1.18	-0.050			
0.2619	16763.71	3.8750	3.8749	-0.8444	22.65	-1.17	-0.050			
0.2628	16817.30	3.8740	3.8740	-0.8416	22.65	-1.17	-0.050			
0.2636	16870.89	3.8730	3.8730	-0.8389	22.65	-1.17	-0.050			
0.2644	16924.18	3.8720	3.8719	-0.8364	22.64	-1.18	-0.050			
0.2653	16977.53	3.8710	3.8710	-0.8344	22.63	-1.19	-0.050			
0.2661	17030.86	3.8700	3.8700	-0.8325	22.65	-1.17	-0.050			
0.2669	17084.35	3.8690	3.8690	-0.8311	22.64	-1.18	-0.050			
0.2678	17137.44	3.8680	3.8680	-0.8295	22.65	-1.17	-0.050			
0.2686	17190.34	3.8670	3.8671	-0.8276	22.65	-1.17	-0.050			
0.2694	17243.65	3.8660	3.8659	-0.8266	22.64	-1.18	-0.050			
0.2703	17296.83	3.8650	3.8649	-0.8251	22.65	-1.17	-0.050			
0.2711	17349.43	3.8640	3.8640	-0.8231	22.65	-1.17	-0.050			
0.2719	17401.93	3.8630	3.8629	-0.8209	22.64	-1.18	-0.050			
0.2727	17454.14	3.8620	3.8620	-0.8201	22.65	-1.17	-0.050			
0.2735	17506.34	3.8610	3.8611	-0.8189	22.65	-1.17	-0.050			
0.2743	17558.35	3.8600	3.8600	-0.8183	22.65	-1.17	-0.050			
0.2752	17610.23	3.8590	3.8589	-0.8183	22.65	-1.17	-0.050			
0.2760	17662.35	3.8580	3.8580	-0.8180	22.65	-1.17	-0.050			
0.2768	17714.55	3.8570	3.8570	-0.8178	22.65	-1.17	-0.050			
0.2776	17766.86	3.8560	3.8559	-0.8180	22.65	-1.17	-0.050			
0.2784	17818.99	3.8550	3.8550	-0.8180	22.65	-1.17	-0.050			
0.2792	17871.29	3.8540	3.8541	-0.8180	22.65	-1.17	-0.050			
0.2801	17923.77	3.8530	3.8529	-0.8185	22.65	-1.17	-0.050			
0.2809	17976.34	3.8520	3.8521	-0.8186	22.66	-1.16	-0.050			
0.2817	18028.83	3.8510	3.8510	-0.8188	22.65	-1.17	-0.050			
0.2825	18081.51	3.8500	3.8500	-0.8188	22.65	-1.17	-0.050			
0.2833	18134.09	3.8490	3.8490	-0.8191	22.65	-1.17	-0.050			
0.2842	18186.75	3.8480	3.8481	-0.8192	22.65	-1.17	-0.050			
0.2850	18239.15	3.8470	3.8470	-0.8190	22.65	-1.17	-0.050			
0.2858	18291.80	3.8460	3.8460	-0.8187	22.65	-1.17	-0.050			
0.2866	18344.49	3.8450	3.8450	-0.8183	22.65	-1.17	-0.050			
0.2875	18396.84	3.8440	3.8440	-0.8165	22.65	-1.17	-0.050			
0.2883	18449.30	3.8430	3.8430	-0.8146	22.65	-1.17	-0.050			
0.2891	18501.19	3.8420	3.8421	-0.8134	22.65	-1.17	-0.050			
0.2899	18553.07	3.8410	3.8410	-0.8124	22.66	-1.16	-0.050			
0.2907	18604.82	3.8400	3.8399	-0.8117	22.67	-1.15	-0.050			
0.2915	18656.62	3.8390	3.8391	-0.8108	22.67	-1.15	-0.050			
0.2923	18708.15	3.8380	3.8381	-0.8117	22.66	-1.16	-0.050			
0.2931	18760.00	3.8370	3.8370	-0.8116	22.67	-1.15	-0.050			
0.2939	18811.28	3.8360	3.8360	-0.8128	22.66	-1.16	-0.050			
0.2947	18863.13	3.8350	3.8351	-0.8136	22.67	-1.15	-0.050			
0.2955	18915.15	3.8340	3.8340	-0.8141	22.67	-1.15	-0.050			
0.2964	18967.00	3.8330	3.8329	-0.8150	22.66	-1.16	-0.050			
0.2972	19019.25	3.8320	3.8320	-0.8161	22.66	-1.16	-0.050			
0.2980	19071.51	3.8310	3.8310	-0.8175	22.67	-1.15	-0.050			
0.2988	19123.89	3.8300	3.8299	-0.8181	22.67	-1.15	-0.050			
0.2996	19176.30	3.8290	3.8289	-0.8185	22.67	-1.15	-0.050			
0.3005	19228.96	3.8280	3.8281	-0.8195	22.66	-1.16	-0.050			
0.3013	19281.81	3.8270	3.8269	-0.8195	22.65	-1.17	-0.050			
0.3021	19334.63	3.8260	3.8261	-0.8210	22.66	-1.16	-0.050			
0.3029	19387.50	3.8250	3.8251	-0.8218	22.66	-1.16	-0.050			
0.3038	19440.29	3.8240	3.8240	-0.8221	22.66	-1.16	-0.050			
0.3046	19492.86	3.8230	3.8230	-0.8232	22.65	-1.17	-0.050			
0.3054	19545.41	3.8220	3.8221	-0.8229	22.66	-1.16	-0.050			
0.3062	19597.98	3.8210	3.8211	-0.8232	22.66	-1.16	-0.050			
0.3070	19650.31	3.8200	3.8200	-0.8244	22.65	-1.17	-0.050			
0.3079	19702.79	3.8190	3.8190	-0.8253	22.65	-1.17	-0.050			
0.3087	19755.12	3.8180	3.8180	-0.8257	22.65	-1.17	-0.050			
0.3095	19807.69	3.8170	3.8169	-0.8268	22.65	-1.17	-0.050			
0.3103	19860.30	3.8160	3.8160	-0.8287	22.65	-1.17	-0.050			
0.3111	19913.45	3.8150	3.8149	-0.8309	22.64	-1.18	-0.050			
0.3120	19966.71	3.8140	3.8139	-0.8334	22.64	-1.18	-0.050			
0.3128	20020.04	3.8130	3.8130	-0.8349	22.64	-1.18	-0.050			
0.3136	20073.47	3.8120	3.8119	-0.8372	22.63	-1.19	-0.050			
0.3145	20127.37	3.8110	3.8109	-0.8398	22.64	-1.18	-0.050			
0.3153	20181.49	3.8100	3.8100	-0.8418	22.65	-1.17	-0.050			
0.3162	20235.73	3.8090	3.8090	-0.8433	22.64	-1.18	-0.050			
0.3170	20290.05	3.8080	3.8080	-0.8451	22.64	-1.18	-0.050			
0.3179	20344.26	3.8070	3.8070	-0.8467	22.65	-1.17	-0.050			
0.3187	20398.34	3.8060	3.8061	-0.8482	22.64	-1.18	-0.050			
0.3196	20452.52	3.8050	3.8050	-0.8505	22.64	-1.18	-0.050			
0.3204	20507.00	3.8040	3.8040	-0.8524	22.65	-1.17	-0.050			
0.3213	20561.51	3.8030	3.8029	-0.8537	22.64	-1.18	-0.050			
0.3221	20616.17	3.8020	3.8020	-0.8554	22.63	-1.19	-0.050			
0.3230	20671.03	3.8010	3.8011	-0.8570	22.63	-1.19	-0.050			
0.3238	20725.72	3.8000	3.8000	-0.8582	22.63	-1.19	-0.050			
0.3247	20780.83	3.7990	3.7989	-0.8595	22.63	-1.19	-0.050			
0.3256	20835.93	3.7980	3.7980	-0.8610	22.63	-1.19	-0.050			
0.3264	20891.30	3.7970	3.7970	-0.8624	22.63	-1.19	-0.050			
0.3273	20946.46	3.7960	3.7960	-0.8632	22.62	-1.20	-0.050			
0.3282	21001.96	3.7950	3.7950	-0.8647	22.62	-1.20	-0.050			
0.3290	21057.33	3.7940	3.7940	-0.8659	22.63	-1.19	-0.050			
0.3299	21112.77	3.7930	3.7930	-0.8675	22.62	-1.20	-0.050			
0.3307	21167.91	3.7920	3.7920	-0.8703	22.61	-1.21	-0.050			
0.3316	21223.53	3.7910	3.7910	-0.8730	22.61	-1.21	-0.050			
0.3325	21279.54	3.7900	3.7900	-0.8752	22.61	-1.21	-0.050			
0.3334	21335.25	3.7890	3.7890	-0.8777	22.61	-1.21	-0.050			
0.3342	21391.41	3.7880	3.7880	-0.8800	22.61	-1.21	-0.050			
0.3351	21447.62	3.7870	3.7869	-0.8807	22.61	-1.21	-0.050			
0.3360	21504.19	3.7860	3.7860	-0.8823	22.60	-1.22	-0.050			
0.3369	21560.69	3.7850	3.7849	-0.8839	22.59	-1.23	-0.050			
0.3378	21617.57	3.7840	3.7841	-0.8866	22.60	-1.22	-0.050			
0.3387	21674.55	3.7830	3.7830	-0.8879	22.60	-1.22	-0.050			
0.3396	21731.84	3.7820	3.7820	-0.8897	22.60	-1.22	-0.050			
0.3405	21789.14	3.7810	3.7811	-0.8906	22.60	-1.22	-0.050	0.433	0.532	
0.3414	21846.41	3.7800	3.7800	-0.8918	22.59	-1.23	-0.050			
0.3422	21903.96	3.7790	3.7791	-0.8931	22.59	-1.23	-0.050			
0.3431	21961.24	3.7780	3.7780	-0.8932	22.59	-1.23	-0.050			
0.3440	22018.51	3.7770	3.7770	-0.8940	22.59	-1.23	-0.050			
0.3449	22075.86	3.7760	3.7760	-0.8943	22.59	-1.23	-0.050			
0.3458	22133.06	3.7750	3.7750	-0.8946	22.57	-1.25	-0.050			
0.3467	22190.12	3.7740	3.7740	-0.8940	22.58	-1.24	-0.050			
0.3476	22247.23	3.7730	3.7729	-0.8944	22.57	-1.25	-0.050			
0.3485	22303.82	3.7720	3.7721	-0.8938	22.57	-1.25	-0.050			
0.3494	22360.76	3.7710	3.7709	-0.8945	22.57	-1.25	-0.050			
0.3503	22417.97	3.7700	3.7700	-0.8964	22.56	-1.26	-0.050			
0.3512	22474.96	3.7690	3.7690	-0.8986	22.55	-1.27	-0.050			
0.3521	22532.47	3.7680	3.7680	-0.9007	22.55	-1.27	-0.050			
0.3530	22590.19	3.7670	3.7671	-0.9029	22.55	-1.27	-0.050			
0.3539	22647.74	3.7660	3.7660	-0.9052	22.54	-1.28	-0.050			
0.3548	22705.32	3.7650	3.7650	-0.9077	22.54	-1.28	-0.050			
0.3557	22763.48	3.7640	3.7640	-0.9106	22.53	-1.29	-0.050			
0.3566	22821.72	3.7630	3.7630	-0.9142	22.53	-1.29	-0.050			
0.3575	22880.08	3.7620	3.7620	-0.9177	22.52	-1.30	-0.050			
0.3584	22939.01	3.7610	3.7610	-0.9212	22.52	-1.30	-0.050			
0.3593	22997.99	3.7600	3.7600	-0.9242	22.51	-1.31	-0.050			
0.3603	23057.45	3.7590	3.7590	-0.9271	22.51	-1.31	-0.050	0.118	0.412	
0.3612	23116.91	3.7580	3.7580	-0.9310	22.51	-1.31	-0.050			
0.3621	23176.75	3.7570	3.7570	-0.9336	22.51	-1.31	-0.050			
0.3631	23236.89	3.7560	3.7560	-0.9372	22.50	-1.32	-0.050			
0.3640	23297.08	3.7550	3.7550	-0.9402	22.49	-1.33	-0.050			
0.3650	23357.36	3.7540	3.7539	-0.9430	22.49	-1.33	-0.050			
0.3659	23417.98	3.7530	3.7531	-0.9461	22.48	-1.34	-0.050			
0.3669	23478.64	3.7520	3.7520	-0.9483	22.49	-1.33	-0.050			
0.3678	23539.36	3.7510	3.7511	-0.9516	22.49	-1.33	-0.050			
0.3688	23600.28	3.7500	3.7500	-0.9544	22.49	-1.33	-0.050			
0.3697	23661.21	3.7490	3.7490	-0.9575	22.49	-1.33	-0.050			
0.3707	23722.58	3.7480	3.7480	-0.9610	22.48	-1.34	-0.050			
0.3716	23783.76	3.7470	3.7471	-0.9652	22.48	-1.34	-0.050			
0.3726	23845.28	3.7460	3.7459	-0.9689	22.47	-1.35	-0.050			
0.3735	23907.18	3.7450	3.7450	-0.9725	22.47	-1.35	-0.050			
0.3745	23969.34	3.7440	3.7440	-0.9771	22.46	-1.36	-0.050			
0.3755	24031.72	3.7430	3.7430	-0.9813	22.45	-1.37	-0.050			
0.3765	24094.66	3.7420	3.7420	-0.9860	22.46	-1.36	-0.050			
0.3775	24158.15	3.7410	3.7410	-0.9904	22.45	-1.37	-0.050			
0.3785	24221.68	3.7400	3.7400	-0.9954	22.45	-1.37	-0.050			
0.3795	24285.57	3.7390	3.7390	-1.0001	22.45	-1.37	-0.050			
0.3805	24349.57	3.7380	3.7380	-1.0056	22.45	-1.37	-0.050	0.478	0.593	
0.3815	24414.27	3.7370	3.7370	-1.0106	22.45	-1.37	-0.050			
0.3825	24478.98	3.7360	3.7360	-1.0159	22.45	-1.37	-0.050			
0.3835	24544.00	3.7350	3.7350	-1.0214	22.45	-1.37	-0.050			
0.3845	24609.22	3.7340	3.7340	-1.0277	22.43	-1.39	-0.050			
0.3855	24675.17	3.7330	3.7331	-1.0339	22.43	-1.39	-0.050			
0.3866	24741.04	3.7320	3.7321	-1.0406	22.45	-1.37	-0.050			
0.3876	24807.51	3.7310	3.7309	-1.0478	22.45	-1.37	-0.050			
0.3887	24874.55	3.7300	3.7300	-1.0541	22.43	-1.39	-0.050			
0.3897	24942.01	3.7290	3.7290	-1.0615	22.43	-1.39	-0.050			
0.3908	25009.66	3.7280	3.7280	-1.0694	22.43	-1.39	-0.050			
0.3918	25077.73	3.7270	3.7270	-1.0775	22.43	-1.39	-0.050			
0.3929	25146.95	3.7260	3.7261	-1.0862	22.43	-1.39	-0.050			
0.3940	25216.92	3.7250	3.7250	-1.0948	22.43	-1.39	-0.050			
0.3951	25287.16	3.7240	3.7240	-1.1031	22.43	-1.39	-0.050			
0.3962	25358.29	3.7230	3.7229	-1.1118	22.43	-1.39	-0.050			
0.3973	25429.76	3.7220	3.7221	-1.1212	22.44	-1.38	-0.050			
0.3985	25501.75	3.7210	3.7210	-1.1308	22.45	-1.37	-0.050			
0.3996	25573.96	3.7200	3.7200	-1.1405	22.44	-1.38	-0.050			
0.4007	25647.14	3.7190	3.7190	-1.1507	22.45	-1.37	-0.050	0.540	0.657	
0.4019	25720.78	3.7180	3.7180	-1.1607	22.45	-1.37	-0.050			
0.4031	25795.65	3.7170	3.7170	-1.1712	22.45	-1.37	-0.050			
0.4042	25870.76	3.7160	3.7160	-1.1801	22.44	-1.38	-0.050			
0.4054	25946.50	3.7150	3.7150	-1.1899	22.45	-1.37	-0.050			
0.4066	26023.15	3.7140	3.7140	-1.1985	22.45	-1.37	-0.050			
0.4078	26100.54	3.7130	3.7129	-1.2080	22.45	-1.37	-0.050			
0.4090	26178.11	3.7120	3.7121	-1.2169	22.45	-1.37	-0.050			
0.4103	26256.41	3.7110	3.7110	-1.2266	22.45	-1.37	-0.050			
0.4115	26334.95	3.7100	3.7100	-1.2377	22.45	-1.37	-0.050			
0.4127	26414.05	3.7090	3.7091	-1.2492	22.45	-1.37	-0.050			
0.4140	26493.99	3.7080	3.7081	-1.2594	22.45	-1.37	-0.050			
0.4152	26575.00	3.7070	3.7070	-1.2700	22.46	-1.36	-0.050			
0.4165	26656.77	3.7060	3.7060	-1.2815	22.46	-1.36	-0.050			
0.4178	26738.99	3.7050	3.7052	-1.2928	22.46	-1.36	-0.050			
0.4191	26821.96	3.7040	3.7040	-1.3029	22.47	-1.35	-0.050			
0.4204	26905.40	3.7030	3.7030	-1.3139	22.47	-1.35	-0.050	0.476	0.543	
0.4217	26989.47	3.7020	3.7020	-1.3244	22.48	-1.34	-0.050			
0.4230	27074.29	3.7010	3.7009	-1.3357	22.47	-1.35	-0.050			
0.4244	27159.76	3.7000	3.7001	-1.3478	22.47	-1.35	-0.050			
0.4257	27246.58	3.6990	3.6989	-1.3601	22.47	-1.35	-0.050			
0.4271	27334.23	3.6980	3.6980	-1.3724	22.47	-1.35	-0.050			
0.4285	27422.51	3.6970	3.6971	-1.3858	22.45	-1.37	-0.050			
0.4299	27511.51	3.6960	3.6960	-1.3989	22.47	-1.35	-0.050			
0.4313	27601.38	3.6950	3.6949	-1.4121	22.45	-1.37	-0.050			
0.4327	27692.02	3.6940	3.6940	-1.4268	22.45	-1.37	-0.050			
0.4341	27783.42	3.6930	3.6930	-1.4410	22.44	-1.38	-0.050			
0.4355	27874.94	3.6920	3.6920	-1.4553	22.43	-1.39	-0.050			
0.4370	27968.09	3.6910	3.6909	-1.4697	22.42	-1.40	-0.050			
0.4385	28062.05	3.6900	3.6900	-1.4847	22.41	-1.41	-0.050			
0.4400	28157.03	3.6890	3.6890	-1.5019	22.41	-1.41	-0.050	0.471	0.595	
0.4415	28253.66	3.6880	3.6880	-1.5192	22.40	-1.42	-0.050			
0.4430	28351.11	3.6870	3.6870	-1.5370	22.39	-1.43	-0.050			
0.4445	28449.54	3.6860	3.6860	-1.5553	22.39	-1.43	-0.050			
0.4461	28549.56	3.6850	3.6850	-1.5733	22.38	-1.44	-0.050			
0.4477	28650.93	3.6840	3.6840	-1.5913	22.37	-1.45	-0.050			
0.4493	28753.24	3.6830	3.6830	-1.6098	22.35	-1.47	-0.050			
0.4509	28857.10	3.6820	3.6821	-1.6282	22.35	-1.47	-0.050			
0.4525	28961.97	3.6810	3.6809	-1.6465	22.35	-1.47	-0.050			
0.4542	29068.29	3.6800	3.6800	-1.6654	22.34	-1.48	-0.050			
0.4559	29175.71	3.6790	3.6790	-1.6838	22.32	-1.50	-0.050			
0.4576	29283.97	3.6780	3.6779	-1.7022	22.31	-1.51	-0.050			
0.4593	29392.86	3.6770	3.6771	-1.7211	22.31	-1.51	-0.050			
0.4610	29503.03	3.6760	3.6760	-1.7426	22.30	-1.52	-0.050			
0.4627	29614.86	3.6750	3.6750	-1.7628	22.29	-1.53	-0.050			
0.4645	29727.80	3.6740	3.6739	-1.7828	22.29	-1.53	-0.050			
0.4663	29842.10	3.6730	3.6729	-1.8045	22.29	-1.53	-0.050			
0.4681	29958.20	3.6720	3.6720	-1.8258	22.27	-1.55	-0.050			
0.4699	30074.69	3.6710	3.6710	-1.8499	22.27	-1.55	-0.050			
0.4718	30192.94	3.6700	3.6700	-1.8739	22.27	-1.55	-0.050			
0.4736	30312.27	3.6690	3.6690	-1.9009	22.28	-1.54	-0.050			
0.4755	30433.33	3.6680	3.6680	-1.9294	22.27	-1.55	-0.050			
0.4774	30556.00	3.6670	3.6671	-1.9594	22.27	-1.55	-0.050			
0.4794	30680.88	3.6660	3.6660	-1.9932	22.27	-1.55	-0.050	0.469	0.673	
0.4814	30808.18	3.6650	3.6650	-2.0291	22.29	-1.53	-0.050			
0.4834	30937.80	3.6640	3.6640	-2.0654	22.29	-1.53	-0.050			
0.4855	31070.51	3.6630	3.6629	-2.1016	22.29	-1.53	-0.050			
0.4876	31205.71	3.6620	3.6619	-2.1384	22.30	-1.52	-0.050			
0.4897	31343.42	3.6610	3.6611	-2.1762	22.33	-1.49	-0.050			
0.4919	31483.83	3.6600	3.6600	-2.2141	22.42	-1.40	-0.050			
0.4942	31626.91	3.6590	3.6590	-2.2526	22.52	-1.30	-0.050			
0.4965	31772.97	3.6580	3.6580	-2.2893	22.64	-1.18	-0.050			
0.4988	31921.98	3.6570	3.6570	-2.3243	22.80	-1.02	-0.050			
0.5012	32074.03	3.6560	3.6559	-2.3589	22.98	-0.84	-0.050			
0.5035	32226.62	3.6550	3.6550	-2.3926	23.15	-0.67	-0.050			
0.5060	32382.67	3.6540	3.6540	-2.4255	23.33	-0.49	-0.050			
0.5084	32540.67	3.6530	3.6530	-2.4568	23.51	-0.31	-0.050			
0.5109	32700.68	3.6520	3.6520	-2.4839	23.66	-0.16	-0.050			
0.5135	32861.08	3.6510	3.6510	-2.5089	23.84	0.02	-0.050			
0.5160	33023.90	3.6500	3.6500	-2.5315	24.00	0.18	-0.050			
0.5186	33188.46	3.6490	3.6490	-2.5477	24.19	0.37	-0.050			
0.5212	33354.49	3.6480	3.6480	-2.5580	24.36	0.54	-0.050	0.401	0.569	
0.5238	33522.30	3.6470	3.6469	-2.5585	24.52	0.70	-0.050			
0.5264	33690.36	3.6460	3.6459	-2.5541	24.68	0.86	-0.050			
0.5290	33859.07	3.6450	3.6451	-2.5467	24.85	1.03	-0.050			
0.5316	34024.80	3.6440	3.6440	-2.5367	24.97	1.15	-0.050			
0.5342	34188.62	3.6430	3.6431	-2.5234	25.12	1.30	-0.050			
0.5367	34351.02	3.6420	3.6420	-2.5122	25.27	1.45	-0.050			
0.5392	34510.39	3.6410	3.6411	-2.5004	25.32	1.50	-0.050	0.446	0.541	
0.5417	34668.06	3.6400	3.6401	-2.4893	25.18	1.36	-0.050			
0.5441	34824.78	3.6390	3.6391	-2.4797	24.97	1.15	-0.050			
0.5466	34979.75	3.6380	3.6381	-2.4738	24.74	0.92	-0.050			
0.5490	35133.51	3.6370	3.6370	-2.4691	24.56	0.74	-0.050			
0.5514	35286.68	3.6360	3.6359	-2.4678	24.45	0.63	-0.050			
0.5538	35441.67	3.6350	3.6349	-2.4736	24.38	0.56	-0.050			
0.5562	35596.43	3.6340	3.6339	-2.4838	24.35	0.53	-0.050			
0.5586	35753.07	3.6330	3.6330	-2.4937	24.36	0.54	-0.050			
0.5611	35912.38	3.6320	3.6320	-2.5072	24.38	0.56	-0.050	0.450	0.550	
0.5637	36073.82	3.6310	3.6310	-2.5213	24.43	0.61	-0.050			
0.5662	36238.60	3.6300	3.6300	-2.5338	24.50	0.68	-0.050			
0.5688	36404.63	3.6290	3.6289	-2.5480	24.58	0.76	-0.050			
0.5714	36571.14	3.6280	3.6280	-2.5579	24.69	0.87	-0.050			
0.5740	36738.27	3.6270	3.6271	-2.5618	24.81	0.99	-0.050			
0.5766	36904.36	3.6260	3.6260	-2.5639	24.93	1.11	-0.050			
0.5792	37071.06	3.6250	3.6251	-2.5626	24.90	1.08	-0.050	0.399	0.496	
0.5818	37236.21	3.6240	3.6240	-2.5554	24.80	0.98	-0.050			
0.5844	37399.64	3.6230	3.6229	-2.5470	24.66	0.84	-0.050			
0.5869	37562.00	3.6220	3.6220	-2.5363	24.60	0.78	-0.050			
0.5894	37723.91	3.6210	3.6209	-2.5246	24.60	0.78	-0.050			
0.5920	37885.64	3.6200	3.6200	-2.5122	24.62	0.80	-0.050			
0.5945	38046.43	3.6190	3.6190	-2.4987	24.65	0.83	-0.050			
0.5970	38205.79	3.6180	3.6179	-2.4851	24.73	0.91	-0.050			
0.5994	38364.01	3.6170	3.6169	-2.4735	24.81	0.99	-0.050	0.429	0.291	
0.6019	38522.85	3.6160	3.6159	-2.4592	24.91	1.09	-0.050			
0.6044	38681.28	3.6150	3.6149	-2.4436	25.03	1.21	-0.050			
0.6069	38840.30	3.6140	3.6140	-2.4223	25.14	1.32	-0.050			
0.6093	38996.97	3.6130	3.6130	-2.3992	25.26	1.44	-0.050			
0.6117	39151.58	3.6120	3.6120	-2.3738	25.38	1.56	-0.050			
0.6141	39303.50	3.6110	3.6110	-2.3462	25.51	1.69	-0.050			
0.6165	39454.16	3.6100	3.6100	-2.3173	25.63	1.81	-0.050			
0.6188	39602.25	3.6090	3.6090	-2.2918	25.74	1.92	-0.050			
0.6211	39748.76	3.6080	3.6081	-2.2635	25.75	1.93	-0.050	0.388	0.488	
0.6233	39892.61	3.6070	3.6070	-2.2337	25.48	1.66	-0.050			
0.6255	40034.42	3.6060	3.6061	-2.2067	25.14	1.32	-0.050			
0.6277	40173.32	3.6050	3.6050	-2.1800	24.80	0.98	-0.050			
0.6298	40310.11	3.6040	3.6040	-2.1522	24.45	0.63	-0.050			
0.6320	40445.65	3.6030	3.6029	-2.1264	24.16	0.34	-0.050			
0.6341	40579.23	3.6020	3.6020	-2.1037	23.94	0.12	-0.050			
0.6361	40711.87	3.6010	3.6010	-2.0819	23.76	-0.06	-0.050			
0.6382	40842.24	3.6000	3.5999	-2.0600	23.64	-0.18	-0.050			
0.6402	40971.73	3.5990	3.5990	-2.0390	23.57	-0.25	-0.050	-0.061	0.512	
0.6422	41100.11	3.5980	3.5980	-2.0212	23.52	-0.30	-0.050			
0.6442	41228.76	3.5970	3.5970	-2.0092	23.50	-0.32	-0.050			
0.6462	41356.83	3.5960	3.5960	-1.9993	23.52	-0.30	-0.050			
0.6482	41484.60	3.5950	3.5949	-1.9878	23.56	-0.26	-0.050			
0.6502	41611.07	3.5940	3.5940	-1.9783	23.62	-0.20	-0.050			
0.6521	41737.14	3.5930	3.5929	-1.9669	23.69	-0.13	-0.050			
0.6541	41861.46	3.5920	3.5921	-1.9596	23.77	-0.05	-0.050			
0.6560	41985.73	3.5910	3.5911	-1.9501	23.86	0.04	-0.050			
0.6580	42109.60	3.5900	3.5900	-1.9401	23.95	0.13	-0.050			
0.6599	42233.32	3.5890	3.5889	-1.9306	24.04	0.22	-0.050	0.210	0.526	
0.6618	42357.29	3.5880	3.5879	-1.9211	24.16	0.34	-0.050			
0.6638	42480.15	3.5870	3.5869	-1.9106	24.26	0.44	-0.050			
0.6657	42602.41	3.5860	3.5860	-1.8994	24.38	0.56	-0.050			
0.6676	42724.75	3.5850	3.5850	-1.8880	24.50	0.68	-0.050			
0.6695	42846.29	3.5840	3.5839	-1.8768	24.61	0.79	-0.050			
0.6714	42966.82	3.5830	3.5829	-1.8638	24.74	0.92	-0.050			
0.6732	43087.00	3.5820	3.5821	-1.8494	24.87	1.05	-0.050			
0.6751	43205.91	3.5810	3.5810	-1.8350	24.98	1.16	-0.050			
0.6769	43323.53	3.5800	3.5799	-1.8189	25.11	1.29	-0.050			
0.6788	43440.12	3.5790	3.5790	-1.8037	25.21	1.39	-0.050			
0.6805	43554.94	3.5780	3.5781	-1.7856	25.22	1.40	-0.050	-0.047	0.514	
0.6823	43668.17	3.5770	3.5770	-1.7692	25.19	1.37	-0.050			
0.6841	43780.03	3.5760	3.5761	-1.7532	25.11	1.29	-0.050			
0.6858	43891.24	3.5750	3.5751	-1.7384	25.01	1.19	-0.050			
0.6875	44000.81	3.5740	3.5739	-1.7217	24.92	1.10	-0.050			
0.6892	44110.22	3.5730	3.5730	-1.7059	24.86	1.04	-0.050			
0.6909	44218.29	3.5720	3.5720	-1.6887	24.84	1.02	-0.050			
0.6926	44326.42	3.5710	3.5710	-1.6738	24.82	1.00	-0.050			
0.6943	44433.72	3.5700	3.5700	-1.6578	24.81	0.99	-0.050			
0.6959	44540.08	3.5690	3.5690	-1.6407	24.81	0.99	-0.050			
0.6976	44645.17	3.5680	3.5679	-1.6237	24.84	1.02	-0.050			
0.6992	44748.91	3.5670	3.5670	-1.6069	24.87	1.05	-0.050			
0.7008	44851.99	3.5660	3.5660	-1.5877	24.88	1.06	-0.050			
0.7024	44953.80	3.5650	3.5651	-1.5700	24.84	1.02	-0.050			
0.7040	45054.01	3.5640	3.5640	-1.5510	24.84	1.02	-0.050			
0.7055	45152.98	3.5630	3.5630	-1.5321	24.84	1.02	-0.050			
0.7070	45250.93	3.5620	3.5620	-1.5131	24.84	1.02	-0.050			
0.7085	45346.86	3.5610	3.5610	-1.4928	24.86	1.04	-0.050			
0.7100	45441.03	3.5600	3.5599	-1.4743	24.89	1.07	-0.050			
0.7115	45534.08	3.5590	3.5590	-1.4549	24.93	1.11	-0.050			
0.7129	45626.00	3.5580	3.5580	-1.4362	24.97	1.15	-0.050			
0.7143	45716.22	3.5570	3.5570	-1.4177	25.02	1.20	-0.050			
0.7157	45805.19	3.5560	3.5560	-1.4003	25.07	1.25	-0.050			
0.7171	45894.10	3.5550	3.5550	-1.3846	25.13	1.31	-0.050			
0.7185	45982.11	3.5540	3.5540	-1.3702	25.18	1.36	-0.050			
0.7198	46069.14	3.5530	3.5530	-1.3560	25.25	1.43	-0.050			
0.7212	46155.15	3.5520	3.5520	-1.3422	25.31	1.49	-0.050	0.322	0.539	
0.7225	46240.34	3.5510	3.5509	-1.3292	25.38	1.56	-0.050			
0.7238	46324.63	3.5500	3.5500	-1.3166	25.45	1.63	-0.050			
0.7251	46408.07	3.5490	3.5490	-1.3037	25.52	1.70	-0.050			
0.7264	46490.88	3.5480	3.5480	-1.2915	25.59	1.77	-0.050			
0.7277	46572.78	3.5470	3.5470	-1.2800	25.67	1.85	-0.050			
0.7290	46654.13	3.5460	3.5460	-1.2695	25.75	1.93	-0.050			
0.7302	46734.92	3.5450	3.5450	-1.2575	25.83	2.01	-0.050			
0.7315	46815.08	3.5440	3.5440	-1.2458	25.90	2.08	-0.050			
0.7327	46894.72	3.5430	3.5430	-1.2336	25.97	2.15	-0.050			
0.7340	46973.82	3.5420	3.5420	-1.2208	26.05	2.23	-0.050			
0.7352	47051.83	3.5410	3.5410	-1.2076	26.14	2.32	-0.050			
0.7364	47129.53	3.5400	3.5400	-1.1939	26.21	2.39	-0.050			
0.7376	47206.02	3.5390	3.5389	-1.1803	26.21	2.39	-0.050			
0.7388	47281.74	3.5380	3.5380	-1.1655	26.13	2.31	-0.050			
0.7399	47356.23	3.5370	3.5370	-1.1502	25.99	2.17	-0.050			
0.7411	47429.96	3.5360	3.5361	-1.1344	25.82	2.00	-0.050	0.427	0.534	
0.7422	47502.56	3.5350	3.5350	-1.1194	25.61	1.79	-0.050			
0.7433	47573.79	3.5340	3.5340	-1.1025	25.41	1.59	-0.050			
0.7444	47643.53	3.5330	3.5330	-1.0869	25.19	1.37	-0.050			
0.7455	47712.45	3.5320	3.5320	-1.0700	24.97	1.15	-0.050			
0.7466	47779.92	3.5310	3.5311	-1.0542	24.76	0.94	-0.050			
0.7476	47846.43	3.5300	3.5299	-1.0381	24.55	0.73	-0.050			
0.7486	47911.47	3.5290	3.5291	-1.0239	24.36	0.54	-0.050			
0.7496	47975.93	3.5280	3.5280	-1.0104	24.19	0.37	-0.050			
0.7506	48038.65	3.5270	3.5270	-0.9992	24.04	0.22	-0.050			
0.7516	48101.12	3.5260	3.5260	-0.9886	23.89	0.07	-0.050			
0.7525	48162.60	3.5250	3.5249	-0.9825	23.77	-0.05	-0.050			
0.7535	48223.84	3.5240	3.5240	-0.9757	23.68	-0.14	-0.050			
0.7544	48284.46	3.5230	3.5230	-0.9720	23.57	-0.25	-0.050			
0.7554	48344.69	3.5220	3.5220	-0.9707	23.49	-0.33	-0.050			
0.7563	48405.28	3.5210	3.5210	-0.9693	23.42	-0.40	-0.050			
0.7573	48465.48	3.5200	3.5200	-0.9719	23.34	-0.48	-0.050			
0.7582	48526.33	3.5190	3.5189	-0.9774	23.30	-0.52	-0.050			
0.7592	48586.91	3.5180	3.5181	-0.9842	23.25	-0.57	-0.050			
0.7601	48648.22	3.5170	3.5170	-0.9962	23.23	-0.59	-0.050	0.548	0.666	
0.7611	48709.61	3.5160	3.5160	-1.0098	23.21	-0.61	-0.050			
0.7621	48772.06	3.5150	3.5151	-1.0251	23.21	-0.61	-0.050			
0.7631	48836.47	3.5140	3.5141	-1.0460	23.21	-0.61	-0.050			
0.7641	48900.63	3.5130	3.5131	-1.0698	23.23	-0.59	-0.050			
0.7651	48967.86	3.5120	3.5121	-1.0979	23.25	-0.57	-0.050			
0.7662	49036.32	3.5110	3.5110	-1.1271	23.29	-0.53	-0.050			
0.7673	49107.15	3.5100	3.5100	-1.1626	23.34	-0.48	-0.050			
0.7684	49179.73	3.5090	3.5090	-1.1979	23.38	-0.44	-0.050			
0.7696	49255.45	3.5080	3.5080	-1.2397	23.45	-0.37	-0.050			
0.7708	49334.24	3.5070	3.5070	-1.2793	23.53	-0.29	-0.050			
0.7721	49415.67	3.5060	3.5061	-1.3273	23.60	-0.22	-0.050			
0.7734	49500.09	3.5050	3.5050	-1.3749	23.67	-0.15	-0.050			
0.7748	49589.28	3.5040	3.5040	-1.4256	23.76	-0.06	-0.050			
0.7763	49681.47	3.5030	3.5030	-1.4766	23.84	0.02	-0.050			
0.7778	49777.46	3.5020	3.5021	-1.5281	23.95	0.13	-0.050			
0.7793	49877.19	3.5010	3.5010	-1.5813	24.04	0.22	-0.050			
0.7810	49980.97	3.5000	3.5000	-1.6327	24.13	0.31	-0.050	0.108	0.522	
0.7826	50087.89	3.4990	3.4990	-1.6847	24.24	0.42	-0.050			
0.7844	50198.99	3.4980	3.4981	-1.7328	24.36	0.54	-0.050			
0.7861	50313.23	3.4970	3.4969	-1.7791	24.47	0.65	-0.050			
0.7880	50430.96	3.4960	3.4960	-1.8223	24.59	0.77	-0.050			
0.7899	50553.06	3.4950	3.4950	-1.8591	24.71	0.89	-0.050			
0.7918	50676.67	3.4940	3.4939	-1.8915	24.85	1.03	-0.050			
0.7938	50802.62	3.4930	3.4930	-1.9216	24.99	1.17	-0.050			
0.7958	50931.16	3.4920	3.4921	-1.9394	25.12	1.30	-0.050			
0.7978	51061.43	3.4910	3.4911	-1.9470	25.27	1.45	-0.050			
0.7999	51192.82	3.4900	3.4899	-1.9503	25.43	1.61	-0.050	0.166	0.465	
0.8019	51322.94	3.4890	3.4889	-1.9499	25.58	1.76	-0.050			
0.8039	51452.23	3.4880	3.4880	-1.9397	25.73	1.91	-0.050			
0.8059	51579.31	3.4870	3.4871	-1.9233	25.86	2.04	-0.050			
0.8079	51704.58	3.4860	3.4862	-1.9042	25.82	2.00	-0.050			
0.8098	51829.13	3.4850	3.4851	-1.8812	25.64	1.82	-0.050			
0.8117	51951.02	3.4840	3.4841	-1.8541	25.42	1.60	-0.050			
0.8136	52070.20	3.4830	3.4831	-1.8233	25.17	1.35	-0.050			
0.8154	52186.15	3.4820	3.4821	-1.7914	24.94	1.12	-0.050			
0.8172	52299.46	3.4810	3.4809	-1.7579	24.77	0.95	-0.050			
0.8189	52410.45	3.4800	3.4799	-1.7222	24.64	0.82	-0.050			
0.8206	52518.83	3.4790	3.4790	-1.6863	24.54	0.72	-0.050	0.394	0.561	
0.8223	52624.72	3.4780	3.4779	-1.6506	24.49	0.67	-0.050			
0.8239	52728.56	3.4770	3.4770	-1.6153	24.44	0.62	-0.050			
0.8255	52830.36	3.4760	3.4761	-1.5803	24.41	0.59	-0.050			
0.8270	52930.54	3.4750	3.4750	-1.5469	24.42	0.60	-0.050			
0.8286	53028.83	3.4740	3.4741	-1.5128	24.42	0.60	-0.050			
0.8301	53125.65	3.4730	3.4729	-1.4809	24.44	0.62	-0.050			
0.8316	53220.67	3.4720	3.4721	-1.4484	24.48	0.66	-0.050			
0.8330	53313.44	3.4710	3.4710	-1.4150	24.51	0.69	-0.050			
0.8344	53402.70	3.4700	3.4699	-1.3794	24.56	0.74	-0.050			
0.8358	53489.84	3.4690	3.4690	-1.3433	24.60	0.78	-0.050			
0.8371	53574.09	3.4680	3.4681	-1.3075	24.65	0.83	-0.050			
0.8384	53656.06	3.4670	3.4671	-1.2716	24.70	0.88	-0.050			
0.8396	53735.87	3.4660	3.4660	-1.2387	24.76	0.94	-0.050			
0.8408	53813.68	3.4650	3.4650	-1.2049	24.82	1.00	-0.050			
0.8420	53889.01	3.4640	3.4639	-1.1719	24.87	1.05	-0.050			
0.8432	53962.31	3.4630	3.4629	-1.1389	24.93	1.11	-0.050			
0.8443	54033.53	3.4620	3.4620	-1.1059	24.98	1.16	-0.050			
0.8454	54102.96	3.4610	3.4611	-1.0747	25.04	1.22	-0.050			
0.8464	54170.80	3.4600	3.4600	-1.0438	25.09	1.27	-0.050			
0.8474	54236.27	3.4590	3.4590	-1.0127	25.15	1.33	-0.050			
0.8484	54299.80	3.4580	3.4580	-0.9825	25.21	1.39	-0.050			
0.8494	54361.61	3.4570	3.4569	-0.9531	25.27	1.45	-0.050			
0.8503	54421.28	3.4560	3.4561	-0.9250	25.30	1.48	-0.050			
0.8512	54479.22	3.4550	3.4551	-0.8967	25.28	1.46	-0.050			
0.8521	54535.50	3.4540	3.4541	-0.8694	25.24	1.42	-0.050			
0.8530	54589.76	3.4530	3.4530	-0.8424	25.19	1.37	-0.050			
0.8538	54642.44	3.4520	3.4519	-0.8144	25.12	1.30	-0.050			
0.8546	54693.11	3.4510	3.4511	-0.7886	25.05	1.23	-0.050			
0.8553	54741.93	3.4500	3.4500	-0.7635	24.97	1.15	-0.050			
0.8561	54789.32	3.4490	3.4490	-0.7398	24.90	1.08	-0.050			
0.8568	54835.05	3.4480	3.4480	-0.7164	24.83	1.01	-0.050			
0.8575	54879.54	3.4470	3.4470	-0.6943	24.74	0.92	-0.050			
0.8582	54922.06	3.4460	3.4460	-0.6721	24.67	0.85	-0.050			
0.8588	54964.02	3.4450	3.4449	-0.6510	24.61	0.79	-0.050			
0.8594	55004.43	3.4440	3.4440	-0.6317	24.55	0.73	-0.050			
0.8601	55043.73	3.4430	3.4429	-0.6139	24.49	0.67	-0.050			
0.8607	55081.79	3.4420	3.4420	-0.5966	24.42	0.60	-0.050	0.372	0.624	
0.8612	55118.90	3.4410	3.4410	-0.5782	24.37	0.55	-0.050			
0.8618	55154.81	3.4400	3.4400	-0.5622	24.33	0.51	-0.050			
0.8623	55189.66	3.4390	3.4390	-0.5474	24.29	0.47	-0.050			
0.8629	55223.79	3.4380	3.4381	-0.5314	24.25	0.43	-0.050			
0.8634	55256.60	3.4370	3.4370	-0.5179	24.22	0.40	-0.050			
0.8639	55288.20	3.4360	3.4359	-0.5041	24.19	0.37	-0.050			
0.8644	55319.71	3.4350	3.4349	-0.4907	24.17	0.35	-0.050			
0.8648	55350.10	3.4340	3.4340	-0.4793	24.14	0.32	-0.050			
0.8653	55379.80	3.4330	3.4330	-0.4680	24.12	0.30	-0.050			
0.8658	55409.41	3.4320	3.4320	-0.4574	24.10	0.28	-0.050			
0.8662	55437.73	3.4310	3.4309	-0.4474	24.10	0.28	-0.050			
0.8667	55465.72	3.4300	3.4300	-0.4371	24.09	0.27	-0.050			
0.8671	55492.88	3.4290	3.4290	-0.4279	24.08	0.26	-0.050			
0.8675	55519.77	3.4280	3.4280	-0.4187	24.07	0.25	-0.050			
0.8679	55546.08	3.4270	3.4270	-0.4103	24.06	0.24	-0.050			
0.8683	55571.78	3.4260	3.4261	-0.4020	24.05	0.23	-0.050			
0.8687	55597.25	3.4250	3.4250	-0.3940	24.05	0.23	-0.050			
0.8691	55621.70	3.4240	3.4240	-0.3866	24.04	0.22	-0.050			
0.8695	55646.04	3.4230	3.4230	-0.3788	24.04	0.22	-0.050			
0.8698	55669.61	3.4220	3.4220	-0.3718	24.04	0.22	-0.050			
0.8702	55693.18	3.4210	3.4211	-0.3650	24.04	0.22	-0.050			
0.8706	55715.95	3.4200	3.4200	-0.3589	24.03	0.21	-0.050			
0.8709	55738.57	3.4190	3.4191	-0.3523	24.03	0.21	-0.050			
0.8713	55760.64	3.4180	3.4180	-0.3470	24.03	0.21	-0.050			
0.8716	55782.32	3.4170	3.4170	-0.3406	24.03	0.21	-0.050			
0.8719	55803.52	3.4160	3.4159	-0.3351	24.03	0.21	-0.050			
0.8723	55824.80	3.4150	3.4150	-0.3300	24.04	0.22	-0.050			
0.8726	55845.50	3.4140	3.4139	-0.3246	24.04	0.22	-0.050			
0.8729	55865.67	3.4130	3.4131	-0.3201	24.04	0.22	-0.050			
0.8732	55886.02	3.4120	3.4120	-0.3159	24.05	0.23	-0.050			
0.8735	55905.88	3.4110	3.4110	-0.3114	24.05	0.23	-0.050			
0.8738	55925.69	3.4100	3.4099	-0.3074	24.06	0.24	-0.050			
0.8741	55944.97	3.4090	3.4090	-0.3033	24.06	0.24	-0.050			
0.8744	55964.26	3.4080	3.4079	-0.2995	24.06	0.24	-0.050			
0.8747	55983.24	3.4070	3.4070	-0.2957	24.07	0.25	-0.050			
0.8750	56001.91	3.4060	3.4059	-0.2925	24.07	0.25	-0.050			
0.8753	56020.52	3.4050	3.4050	-0.2890	24.08	0.26	-0.050			
0.8756	56038.71	3.4040	3.4039	-0.2857	24.09	0.27	-0.050			
0.8759	56056.88	3.4030	3.4030	-0.2824	24.10	0.28	-0.050			
0.8762	56074.49	3.4020	3.4020	-0.2791	24.11	0.29	-0.050			
0.8764	56092.26	3.4010	3.4011	-0.2762	24.12	0.30	-0.050			
0.8767	56109.78	3.4000	3.4000	-0.2732	24.13	0.31	-0.050			
0.8770	56127.00	3.3990	3.3990	-0.2709	24.14	0.32	-0.050			
0.8773	56144.11	3.3980	3.3980	-0.2679	24.14	0.32	-0.050			
0.8775	56160.97	3.3970	3.3970	-0.2660	24.15	0.33	-0.050			
0.8778	56177.75	3.3960	3.3960	-0.2632	24.16	0.34	-0.050			
0.8780	56194.53	3.3950	3.3950	-0.2611	24.17	0.35	-0.050			
0.8783	56211.15	3.3940	3.3940	-0.2592	24.18	0.36	-0.050			
0.8786	56227.53	3.3930	3.3930	-0.2568	24.18	0.36	-0.050			
0.8788	56243.91	3.3920	3.3919	-0.2549	24.19	0.37	-0.050			
0.8791	56260.01	3.3910	3.3911	-0.2525	24.20	0.38	-0.050			
0.8793	56276.11	3.3900	3.3899	-0.2507	24.21	0.39	-0.050			
0.8796	56292.25	3.3890	3.3890	-0.2489	24.22	0.40	-0.050			
0.8798	56308.12	3.3880	3.3880	-0.2470	24.23	0.41	-0.050			
0.8801	56323.86	3.3870	3.3870	-0.2450	24.24	0.42	-0.050			
0.8803	56339.42	3.3860	3.3860	-0.2433	24.25	0.43	-0.050			
0.8805	56354.93	3.3850	3.3850	-0.2414	24.27	0.45	-0.050			
0.8808	56370.30	3.3840	3.3840	-0.2395	24.28	0.46	-0.050	0.461	0.672	
0.8810	56385.42	3.3830	3.3830	-0.2382	24.29	0.47	-0.050			
0.8813	56400.63	3.3820	3.3820	-0.2365	24.29	0.47	-0.050			
0.8815	56415.72	3.3810	3.3810	-0.2348	24.30	0.48	-0.050			
0.8817	56430.70	3.3800	3.3800	-0.2331	24.31	0.49	-0.050			
0.8820	56445.48	3.3790	3.3790	-0.2312	24.32	0.50	-0.050			
0.8822	56460.04	3.3780	3.3780	-0.2301	24.33	0.51	-0.050			
0.8824	56474.57	3.3770	3.3770	-0.2282	24.34	0.52	-0.050			
0.8826	56489.14	3.3760	3.3760	-0.2269	24.35	0.53	-0.050			
0.8829	56503.62	3.3750	3.3750	-0.2256	24.36	0.54	-0.050			
0.8831	56517.86	3.3740	3.3740	-0.2240	24.37	0.55	-0.050			
0.8833	56532.16	3.3730	3.3730	-0.2228	24.38	0.56	-0.050			
0.8835	56546.41	3.3720	3.3720	-0.2215	24.39	0.57	-0.050			
0.8838	56560.57	3.3710	3.3711	-0.2203	24.39	0.57	-0.050			
0.8840	56574.63	3.3700	3.3701	-0.2191	24.40	0.58	-0.050			
0.8842	56588.66	3.3690	3.3689	-0.2179	24.41	0.59	-0.050			
0.8844	56602.57	3.3680	3.3679	-0.2166	24.42	0.60	-0.050			
0.8846	56616.39	3.3670	3.3670	-0.2153	24.44	0.62	-0.050			
0.8848	56630.08	3.3660	3.3661	-0.2143	24.45	0.63	-0.050			
0.8851	56643.76	3.3650	3.3650	-0.2131	24.46	0.64	-0.050			
0.8853	56657.36	3.3640	3.3641	-0.2119	24.47	0.65	-0.050			
0.8855	56670.79	3.3630	3.3630	-0.2105	24.48	0.66	-0.050			
0.8857	56684.23	3.3620	3.3620	-0.2094	24.49	0.67	-0.050			
0.8859	56697.59	3.3610	3.3611	-0.2082	24.50	0.68	-0.050			
0.8861	56710.80	3.3600	3.3600	-0.2070	24.51	0.69	-0.050			
0.8863	56723.94	3.3590	3.3590	-0.2061	24.52	0.70	-0.050			
0.8865	56737.17	3.3580	3.3580	-0.2052	24.53	0.71	-0.050			
0.8867	56750.27	3.3570	3.3570	-0.2042	24.54	0.72	-0.050			
0.8869	56763.21	3.3560	3.3560	-0.2034	24.55	0.73	-0.050			
0.8871	56775.99	3.3550	3.3550	-0.2019	24.56	0.74	-0.050			
0.8873	56788.88	3.3540	3.3541	-0.2011	24.57	0.75	-0.050			
0.8875	56801.79	3.3530	3.3530	-0.2001	24.58	0.76	-0.050			
0.8877	56814.61	3.3520	3.3520	-0.1993	24.60	0.78	-0.050			
0.8879	56827.34	3.3510	3.3510	-0.1985	24.61	0.79	-0.050			
0.8881	56840.06	3.3500	3.3499	-0.1974	24.62	0.80	-0.050			
0.8883	56852.69	3.3490	3.3490	-0.1966	24.64	0.82	-0.050			
0.8885	56865.24	3.3480	3.3480	-0.1956	24.65	0.83	-0.050			
0.8887	56877.73	3.3470	3.3469	-0.1947	24.65	0.83	-0.050			
0.8889	56890.13	3.3460	3.3460	-0.1940	24.66	0.84	-0.050			
0.8891	56902.51	3.3450	3.3450	-0.1931	24.67	0.85	-0.050			
0.8893	56914.84	3.3440	3.3440	-0.1921	24.68	0.86	-0.050			
0.8895	56927.00	3.3430	3.3430	-0.1913	24.69	0.87	-0.050			
0.8897	56939.22	3.3420	3.3421	-0.1905	24.70	0.88	-0.050			
0.8899	56951.38	3.3410	3.3410	-0.1897	24.71	0.89	-0.050			
0.8901	56963.47	3.3400	3.3399	-0.1890	24.72	0.90	-0.050			
0.8902	56975.54	3.3390	3.3390	-0.1882	24.73	0.91	-0.050			
0.8904	56987.56	3.3380	3.3380	-0.1874	24.74	0.92	-0.050			
0.8906	56999.53	3.3370	3.3369	-0.1866	24.75	0.93	-0.050			
0.8908	57011.35	3.3360	3.3360	-0.1857	24.76	0.94	-0.050			
0.8910	57023.21	3.3350	3.3350	-0.1850	24.77	0.95	-0.050			
0.8912	57035.02	3.3340	3.3340	-0.1843	24.78	0.96	-0.050			
0.8914	57046.84	3.3330	3.3330	-0.1833	24.78	0.96	-0.050			
0.8915	57058.55	3.3320	3.3320	-0.1826	24.79	0.97	-0.050			
0.8917	57070.21	3.3310	3.3310	-0.1818	24.80	0.98	-0.050			
0.8919	57081.93	3.3300	3.3300	-0.1813	24.82	1.00	-0.050			
0.8921	57093.47	3.3290	3.3290	-0.1805	24.83	1.01	-0.050			
0.8923	57104.99	3.3280	3.3280	-0.1797	24.85	1.03	-0.050			
0.8924	57116.47	3.3270	3.3270	-0.1789	24.86	1.04	-0.050			
0.8926	57127.96	3.3260	3.3260	-0.1782	24.88	1.06	-0.050			
0.8928	57139.26	3.3250	3.3250	-0.1775	24.89	1.07	-0.050			
0.8930	57150.60	3.3240	3.3240	-0.1767	24.90	1.08	-0.050			
0.8932	57161.82	3.3230	3.3230	-0.1758	24.91	1.09	-0.050			
0.8933	57172.92	3.3220	3.3220	-0.1754	24.92	1.10	-0.050			
0.8935	57184.13	3.3210	3.3210	-0.1748	24.93	1.11	-0.050			
0.8937	57195.20	3.3200	3.3200	-0.1739	24.94	1.12	-0.050			
0.8938	57206.32	3.3190	3.3190	-0.1734	24.94	1.12	-0.050			
0.8940	57217.42	3.3180	3.3180	-0.1728	24.95	1.13	-0.050			
0.8942	57228.46	3.3170	3.3170	-0.1722	24.96	1.14	-0.050			
0.8944	57239.39	3.3160	3.3160	-0.1715	24.97	1.15	-0.050			
0.8945	57250.35	3.3150	3.3150	-0.1711	24.98	1.16	-0.050			
0.8947	57261.40	3.3140	3.3140	-0.1702	24.99	1.17	-0.050			
0.8949	57272.31	3.3130	3.3130	-0.1696	25.00	1.18	-0.050			
0.8950	57283.14	3.3120	3.3120	-0.1690	25.01	1.19	-0.050			
0.8952	57293.94	3.3110	3.3110	-0.1683	25.02	1.20	-0.050			
0.8954	57304.71	3.3100	3.3100	-0.1676	25.03	1.21	-0.050			
0.8956	57315.53	3.3090	3.3090	-0.1672	25.04	1.22	-0.050			
0.8957	57326.21	3.3080	3.3080	-0.1664	25.05	1.23	-0.050			
0.8959	57336.84	3.3070	3.3071	-0.1657	25.06	1.24	-0.050			
0.8961	57347.37	3.3060	3.3060	-0.1651	25.07	1.25	-0.050			
0.8962	57357.93	3.3050	3.3050	-0.1645	25.08	1.26	-0.050			
0.8964	57368.43	3.3040	3.3040	-0.1637	25.09	1.27	-0.050			
0.8965	57378.89	3.3030	3.3031	-0.1630	25.09	1.27	-0.050			
0.8967	57389.21	3.3020	3.3020	-0.1624	25.10	1.28	-0.050			
0.8969	57399.58	3.3010	3.3010	-0.1618	25.11	1.29	-0.050			
0.8970	57409.92	3.3000	3.3000	-0.1612	25.12	1.30	-0.050			
0.8972	57420.21	3.2990	3.2990	-0.1605	25.14	1.32	-0.050			
0.8973	57430.25	3.2980	3.2980	-0.1599	25.15	1.33	-0.050			
0.8975	57440.46	3.2970	3.2969	-0.1594	25.16	1.34	-0.050			
0.8977	57450.66	3.2960	3.2960	-0.1590	25.17	1.35	-0.050			
0.8978	57460.82	3.2950	3.2951	-0.1586	25.18	1.36	-0.050			
0.8980	57470.98	3.2940	3.2940	-0.1579	25.19	1.37	-0.050			
0.8981	57481.07	3.2930	3.2930	-0.1574	25.20	1.38	-0.050			
0.8983	57491.13	3.2920	3.2920	-0.1569	25.22	1.40	-0.050			
0.8985	57501.16	3.2910	3.2910	-0.1565	25.23	1.41	-0.050			
0.8986	57511.18	3.2900	3.2900	-0.1562	25.24	1.42	-0.050			
0.8988	57521.16	3.2890	3.2890	-0.1557	25.24	1.42	-0.050			
0.8989	57531.11	3.2880	3.2880	-0.1553	25.25	1.43	-0.050			
0.8991	57541.03	3.2870	3.2870	-0.1548	25.26	1.44	-0.050			
0.8992	57550.95	3.2860	3.2860	-0.1542	25.27	1.45	-0.050			
0.8994	57560.80	3.2850	3.2849	-0.1537	25.28	1.46	-0.050			
0.8995	57570.62	3.2840	3.2841	-0.1532	25.29	1.47	-0.050			
0.8997	57580.41	3.2830	3.2831	-0.1527	25.30	1.48	-0.050			
0.8998	57590.28	3.2820	3.2820	-0.1520	25.31	1.49	-0.050			
0.9000	57599.99	3.2810	3.2810	-0.1513	25.32	1.50	-0.050			
0.9002	57609.65	3.2800	3.2799	-0.1507	25.33	1.51	-0.050			
0.9003	57619.28	3.2790	3.2789	-0.1501	25.34	1.52	-0.050			
0.9005	57628.88	3.2780	3.2780	-0.1497	25.35	1.53	-0.050			
0.9006	57638.44	3.2770	3.2770	-0.1491	25.36	1.54	-0.050			
0.9007	57647.97	3.2760	3.2760	-0.1485	25.37	1.55	-0.050			
0.9009	57657.45	3.2750	3.2750	-0.1479	25.38	1.56	-0.050			
0.9010	57666.88	3.2740	3.2740	-0.1472	25.39	1.57	-0.050			
0.9012	57676.21	3.2730	3.2730	-0.1469	25.40	1.58	-0.050			
0.9013	57685.59	3.2720	3.2720	-0.1463	25.42	1.60	-0.050			
0.9015	57694.94	3.2710	3.2711	-0.1458	25.43	1.61	-0.050			
0.9016	57704.27	3.2700	3.2700	-0.1453	25.44	1.62	-0.050			
0.9018	57713.55	3.2690	3.2689	-0.1447	25.45	1.63	-0.050			
0.9019	57722.79	3.2680	3.2679	-0.1442	25.45	1.63	-0.050			
0.9021	57732.00	3.2670	3.2670	-0.1437	25.46	1.64	-0.050			
0.9022	57741.03	3.2660	3.2660	-0.1429	25.47	1.65	-0.050			
0.9023	57750.16	3.2650	3.2650	-0.1425	25.48	1.66	-0.050			
0.9025	57759.31	3.2640	3.2639	-0.1419	25.49	1.67	-0.050			
0.9026	57768.38	3.2630	3.2630	-0.1414	25.50	1.68	-0.050			
0.9028	57777.44	3.2620	3.2621	-0.1410	25.51	1.69	-0.050			
0.9029	57786.45	3.2610	3.2611	-0.1405	25.51	1.69	-0.050			
0.9031	57795.40	3.2600	3.2600	-0.1401	25.52	1.70	-0.050			
0.9032	57804.35	3.2590	3.2590	-0.1396	25.53	1.71	-0.050			
0.9033	57813.34	3.2580	3.2581	-0.1393	25.54	1.72	-0.050			
0.9035	57822.23	3.2570	3.2571	-0.1388	25.55	1.73	-0.050			
0.9036	57831.10	3.2560	3.2560	-0.1382	25.56	1.74	-0.050			
0.9037	57839.93	3.2550	3.2549	-0.1377	25.57	1.75	-0.050			
0.9039	57848.73	3.2540	3.2540	-0.1372	25.58	1.76	-0.050			
0.9040	57857.45	3.2530	3.2530	-0.1366	25.59	1.77	-0.050			
0.9042	57866.18	3.2520	3.2520	-0.1361	25.60	1.78	-0.050			
0.9043	57874.87	3.2510	3.2509	-0.1356	25.61	1.79	-0.050			
0.9044	57883.50	3.2500	3.2499	-0.1352	25.62	1.80	-0.050			
0.9046	57892.09	3.2490	3.2491	-0.1346	25.63	1.81	-0.050			
0.9047	57900.69	3.2480	3.2481	-0.1342	25.64	1.82	-0.050			
0.9048	57909.26	3.2470	3.2471	-0.1338	25.65	1.83	-0.050			
0.9050	57917.82	3.2460	3.2460	-0.1333	25.66	1.84	-0.050			
0.9051	57926.34	3.2450	3.2450	-0.1329	25.67	1.85	-0.050			
0.9052	57934.85	3.2440	3.2440	-0.1325	25.68	1.86	-0.050			
0.9054	57943.32	3.2430	3.2430	-0.1320	25.69	1.87	-0.050			
0.9055	57951.75	3.2420	3.2420	-0.1316	25.69	1.87	-0.050			
0.9056	57960.13	3.2410	3.2409	-0.1313	25.70	1.88	-0.050			
0.9058	57968.50	3.2400	3.2400	-0.1308	25.71	1.89	-0.050			
0.9059	57976.85	3.2390	3.2390	-0.1304	25.72	1.90	-0.050			
0.9060	57985.19	3.2380	3.2380	-0.1300	25.73	1.91	-0.050			
0.9061	57993.49	3.2370	3.2370	-0.1296	25.74	1.92	-0.050			
0.9063	58001.75	3.2360	3.2359	-0.1292	25.75	1.93	-0.050			
0.9064	58009.95	3.2350	3.2351	-0.1287	25.75	1.93	-0.050			
0.9065	58018.17	3.2340	3.2341	-0.1283	25.76	1.94	-0.050			
0.9067	58026.38	3.2330	3.2330	-0.1280	25.77	1.95	-0.050			
0.9068	58034.56	3.2320	3.2319	-0.1276	25.78	1.96	-0.050			
0.9069	58042.80	3.2310	3.2309	-0.1270	25.79	1.97	-0.050			
0.9070	58050.98	3.2300	3.2300	-0.1267	25.80	1.98	-0.050			
0.9072	58059.08	3.2290	3.2291	-0.1262	25.81	1.99	-0.050			
0.9073	58067.14	3.2280	3.2281	-0.1258	25.81	1.99	-0.050			
0.9074	58075.17	3.2270	3.2270	-0.1253	25.82	2.00	-0.050			
0.9075	58083.11	3.2260	3.2259	-0.1250	25.83	2.01	-0.050			
0.9077	58091.09	3.2250	3.2250	-0.1246	25.84	2.02	-0.050			
0.9078	58099.05	3.2240	3.2240	-0.1242	25.85	2.03	-0.050			
0.9079	58106.99	3.2230	3.2230	-0.1237	25.85	2.03	-0.050			
0.9080	58114.89	3.2220	3.2220	-0.1233	25.86	2.04	-0.050			
0.9082	58122.78	3.2210	3.2210	-0.1229	25.87	2.05	-0.050			
0.9083	58130.63	3.2200	3.2201	-0.1225	25.88	2.06	-0.050			
0.9084	58138.46	3.2190	3.2190	-0.1221	25.89	2.07	-0.050			
0.9085	58146.26	3.2180	3.2179	-0.1217	25.90	2.08	-0.050			
0.9087	58154.04	3.2170	3.2169	-0.1213	25.91	2.09	-0.050			
0.9088	58161.72	3.2160	3.2161	-0.1208	25.92	2.10	-0.050			
0.9089	58169.41	3.2150	3.2150	-0.1205	25.93	2.11	-0.050			
0.9090	58177.11	3.2140	3.2140	-0.1201	25.94	2.12	-0.050			
0.9091	58184.79	3.2130	3.2130	-0.1198	25.95	2.13	-0.050			
0.9093	58192.44	3.2120	3.2120	-0.1194	25.95	2.13	-0.050			
0.9094	58200.00	3.2110	3.2110	-0.1190	25.96	2.14	-0.050			
0.9095	58207.69	3.2100	3.2100	-0.1185	25.97	2.15	-0.050			
0.9096	58215.27	3.2090	3.2090	-0.1181	25.98	2.16	-0.050			
0.9097	58222.81	3.2080	3.2080	-0.1178	25.98	2.16	-0.050			
0.9098	58230.34	3.2070	3.2070	-0.1174	25.99	2.17	-0.050			
0.9100	58237.97	3.2060	3.2059	-0.1172	26.00	2.18	-0.050			
0.9101	58245.46	3.2050	3.2049	-0.1168	26.00	2.18	-0.050			
0.9102	58252.96	3.2040	3.2040	-0.1163	26.01	2.19	-0.050			
0.9103	58260.38	3.2030	3.2030	-0.1158	26.02	2.20	-0.050			
0.9104	58267.77	3.2020	3.2020	-0.1153	26.03	2.21	-0.050			
0.9105	58275.12	3.2010	3.2010	-0.1148	26.04	2.22	-0.050			
0.9107	58282.45	3.2000	3.2000	-0.1143	26.05	2.23	-0.050			
0.9108	58289.71	3.1990	3.1990	-0.1139	26.05	2.23	-0.050			
0.9109	58296.99	3.1980	3.1981	-0.1135	26.06	2.24	-0.050			
0.9110	58304.24	3.1970	3.1969	-0.1130	26.07	2.25	-0.050			
0.9111	58311.46	3.1960	3.1959	-0.1126	26.08	2.26	-0.050			
0.9112	58318.69	3.1950	3.1950	-0.1122	26.09	2.27	-0.050			
0.9113	58325.86	3.1940	3.1941	-0.1117	26.10	2.28	-0.050			
0.9115	58332.80	3.1930	3.1931	-0.1117	26.11	2.29	-0.050			
0.9116	58339.94	3.1920	3.1920	-0.1114	26.12	2.30	-0.050			
0.9117	58347.06	3.1910	3.1909	-0.1111	26.13	2.31	-0.050			
0.9118	58353.98	3.1900	3.1900	-0.1104	26.14	2.32	-0.050			
0.9119	58361.04	3.1890	3.1890	-0.1102	26.14	2.32	-0.050			
0.9120	58368.09	3.1880	3.1881	-0.1100	26.15	2.33	-0.050			
0.9121	58375.22	3.1870	3.1871	-0.1095	26.16	2.34	-0.050			
0.9122	58382.22	3.1860	3.1860	-0.1092	26.16	2.34	-0.050			
0.9123	58389.20	3.1850	3.1850	-0.1089	26.17	2.35	-0.050			
0.9124	58396.13	3.1840	3.1839	-0.1086	26.18	2.36	-0.050			
0.9125	58403.07	3.1830	3.1830	-0.1083	26.18	2.36	-0.050			
0.9127	58410.00	3.1820	3.1820	-0.1081	26.19	2.37	-0.050			
0.9128	58416.96	3.1810	3.1810	-0.1077	26.20	2.38	-0.050			
0.9129	58423.84	3.1800	3.1800	-0.1074	26.21	2.39	-0.050			
0.9130	58430.79	3.1790	3.1790	-0.1073	26.22	2.40	-0.050			
0.9131	58437.64	3.1780	3.1780	-0.1069	26.23	2.41	-0.050			
0.9132	58444.47	3.1770	3.1770	-0.1065	26.24	2.42	-0.050			
0.9133	58451.33	3.1760	3.1761	-0.1061	26.25	2.43	-0.050			
0.9134	58458.10	3.1750	3.1750	-0.1057	26.25	2.43	-0.050			
0.9135	58464.85	3.1740	3.1739	-0.1053	26.26	2.44	-0.050			
0.9136	58471.68	3.1730	3.1730	-0.1051	26.26	2.44	-0.050			
0.9137	58478.39	3.1720	3.1721	-0.1046	26.27	2.45	-0.050			
0.9138	58485.07	3.1710	3.1710	-0.1042	26.27	2.45	-0.050			
0.9139	58491.72	3.1700	3.1699	-0.1037	26.28	2.46	-0.050			
0.9140	58498.27	3.1690	3.1689	-0.1035	26.28	2.46	-0.050			
0.9141	58504.88	3.1680	3.1680	-0.1031	26.29	2.47	-0.050			
0.9142	58511.34	3.1670	3.1670	-0.1024	26.29	2.47	-0.050			
0.9143	58517.89	3.1660	3.1659	-0.1021	26.30	2.48	-0.050			
0.9144	58524.41	3.1650	3.1650	-0.1018	26.31	2.49	-0.050			
0.9145	58530.92	3.1640	3.1641	-0.1015	26.32	2.50	-0.050			
0.9146	58537.40	3.1630	3.1630	-0.1012	26.32	2.50	-0.050			
0.9147	58543.85	3.1620	3.1619	-0.1009	26.33	2.51	-0.050			
0.9148	58550.31	3.1610	3.1609	-0.1006	26.34	2.52	-0.050			
0.9149	58556.74	3.1600	3.1600	-0.1003	26.35	2.53	-0.050			
0.9150	58563.15	3.1590	3.1591	-0.1000	26.35	2.53	-0.050			
0.9151	58569.54	3.1580	3.1580	-0.0997	26.36	2.54	-0.050			
0.9152	58575.92	3.1570	3.1570	-0.0994	26.37	2.55	-0.050			
0.9153	58582.20	3.1560	3.1560	-0.0990	26.37	2.55	-0.050			
0.9154	58588.52	3.1550	3.1550	-0.0987	26.38	2.56	-0.050			
0.9155	58594.83	3.1540	3.1540	-0.0984	26.39	2.57	-0.050			
0.9156	58601.12	3.1530	3.1530	-0.0982	26.40	2.58	-0.050			
0.9157	58607.40	3.1520	3.1520	-0.0979	26.40	2.58	-0.050			
0.9158	58613.68	3.1510	3.1510	-0.0976	26.41	2.59	-0.050			
0.9159	58619.92	3.1500	3.1500	-0.0973	26.42	2.60	-0.050			
0.9160	58626.18	3.1490	3.1490	-0.0971	26.42	2.60	-0.050			
0.9161	58632.38	3.1480	3.1480	-0.0969	26.43	2.61	-0.050			
0.9162	58638.57	3.1470	3.1470	-0.0966	26.43	2.61	-0.050			
0.9163	58644.74	3.1460	3.1460	-0.0963	26.44	2.62	-0.050			
0.9164	58650.89	3.1450	3.1450	-0.0960	26.44	2.62	-0.050			
0.9165	58657.03	3.1440	3.1440	-0.0957	26.45	2.63	-0.050			
0.9166	58663.16	3.1430	3.1430	-0.0952	26.46	2.64	-0.050			
0.9167	58669.27	3.1420	3.1421	-0.0950	26.46	2.64	-0.050			
0.9168	58675.34	3.1410	3.1410	-0.0946	26.47	2.65	-0.050			
0.9169	58681.38	3.1400	3.1399	-0.0943	26.47	2.65	-0.050			
0.9170	58687.41	3.1390	3.1389	-0.0940	26.48	2.66	-0.050			
0.9171	58693.41	3.1380	3.1380	-0.0936	26.48	2.66	-0.050			
0.9172	58699.40	3.1370	3.1370	-0.0933	26.49	2.67	-0.050			
0.9173	58705.32	3.1360	3.1360	-0.0931	26.50	2.68	-0.050			
0.9174	58711.27	3.1350	3.1350	-0.0928	26.50	2.68	-0.050			
0.9175	58717.20	3.1340	3.1340	-0.0925	26.51	2.69	-0.050			
0.9175	58723.11	3.1330	3.1331	-0.0922	26.51	2.69	-0.050			
0.9176	58729.00	3.1320	3.1320	-0.0919	26.52	2.70	-0.050			
0.9177	58734.85	3.1310	3.1310	-0.0916	26.53	2.71	-0.050			
0.9178	58740.64	3.1300	3.1300	-0.0913	26.54	2.72	-0.050			
0.9179	58746.48	3.1290	3.1290	-0.0911	26.54	2.72	-0.050			
0.9180	58752.30	3.1280	3.1279	-0.0908	26.55	2.73	-0.050			
0.9181	58758.10	3.1270	3.1269	-0.0906	26.56	2.74	-0.050			
0.9182	58763.89	3.1260	3.1260	-0.0903	26.57	2.75	-0.050			
0.9183	58769.67	3.1250	3.1250	-0.0901	26.57	2.75	-0.050			
0.9184	58775.42	3.1240	3.1241	-0.0898	26.58	2.76	-0.050			
0.9185	58781.14	3.1230	3.1230	-0.0894	26.59	2.77	-0.050			
0.9185	58786.86	3.1220	3.1220	-0.0892	26.59	2.77	-0.050			
0.9186	58792.56	3.1210	3.1210	-0.0889	26.60	2.78	-0.050			
0.9187	58798.24	3.1200	3.1200	-0.0887	26.60	2.78	-0.050			
0.9188	58803.91	3.1190	3.1190	-0.0884	26.61	2.79	-0.050			
0.9189	58809.56	3.1180	3.1180	-0.0882	26.61	2.79	-0.050			
0.9190	58815.20	3.1170	3.1170	-0.0880	26.62	2.80	-0.050			
0.9191	58820.84	3.1160	3.1160	-0.0878	26.62	2.80	-0.050			
0.9192	58826.46	3.1150	3.1151	-0.0875	26.63	2.81	-0.050			
0.9193	58832.05	3.1140	3.1140	-0.0873	26.63	2.81	-0.050			
0.9193	58837.63	3.1130	3.1130	-0.0870	26.64	2.82	-0.050			
0.9194	58843.19	3.1120	3.1120	-0.0868	26.65	2.83	-0.050			
0.9195	58848.74	3.1110	3.1110	-0.0865	26.65	2.83	-0.050			
0.9196	58854.25	3.1100	3.1100	-0.0862	26.66	2.84	-0.050			
0.9197	58859.76	3.1090	3.1090	-0.0860	26.67	2.85	-0.050			
0.9198	58865.25	3.1080	3.1080	-0.0857	26.67	2.85	-0.050			
0.9199	58870.73	3.1070	3.1069	-0.0855	26.68	2.86	-0.050			
0.9199	58876.23	3.1060	3.1060	-0.0851	26.68	2.86	-0.050			
0.9200	58881.67	3.1050	3.1050	-0.0848	26.69	2.87	-0.050			
0.9201	58887.09	3.1040	3.1040	-0.0845	26.70	2.88	-0.050			
0.9202	58892.49	3.1030	3.1030	-0.0842	26.70	2.88	-0.050			
0.9203	58897.90	3.1020	3.1020	-0.0839	26.71	2.89	-0.050			
0.9204	58903.26	3.1010	3.1010	-0.0836	26.72	2.90	-0.050			
0.9204	58908.60	3.1000	3.0999	-0.0833	26.72	2.90	-0.050			
0.9205	58913.93	3.0990	3.0989	-0.0830	26.73	2.91	-0.050			
0.9206	58919.23	3.0980	3.0980	-0.0827	26.73	2.91	-0.050			
0.9207	58924.51	3.0970	3.0970	-0.0824	26.74	2.92	-0.050	0.241	0.663	
0.9208	58929.83	3.0960	3.0960	-0.0822	26.75	2.93	-0.050			
0.9209	58935.08	3.0950	3.0950	-0.0819	26.75	2.93	-0.050			
0.9209	58940.20	3.0940	3.0940	-0.0818	26.76	2.94	-0.050			
0.9210	58945.42	3.0930	3.0930	-0.0815	26.76	2.94	-0.050			
0.9211	58950.63	3.0920	3.0920	-0.0812	26.77	2.95	-0.050			
0.9212	58955.82	3.0910	3.0910	-0.0810	26.77	2.95	-0.050			
0.9213	58961.00	3.0900	3.0900	-0.0807	26.78	2.96	-0.050			
0.9213	58966.15	3.0890	3.0890	-0.0805	26.79	2.97	-0.050			
0.9214	58971.30	3.0880	3.0880	-0.0802	26.79	2.97	-0.050			
0.9215	58976.42	3.0870	3.0870	-0.0800	26.80	2.98	-0.050			
0.9216	58981.36	3.0860	3.0860	-0.0796	26.80	2.98	-0.050			
0.9217	58986.45	3.0850	3.0850	-0.0794	26.81	2.99	-0.050			
0.9217	58991.53	3.0840	3.0840	-0.0792	26.81	2.99	-0.050			
0.9218	58996.59	3.0830	3.0830	-0.0791	26.82	3.00	-0.050			
0.9219	59001.66	3.0820	3.0820	-0.0789	26.82	3.00	-0.050			
0.9220	59006.70	3.0810	3.0809	-0.0787	26.82	3.00	-0.050			
0.9221	59011.74	3.0800	3.0799	-0.0785	26.83	3.01	-0.050			
0.9221	59016.78	3.0790	3.0790	-0.0783	26.83	3.01	-0.050			
0.9222	59021.79	3.0780	3.0780	-0.0781	26.84	3.02	-0.050			
0.9223	59026.78	3.0770	3.0770	-0.0779	26.84	3.02	-0.050			
0.9224	59031.76	3.0760	3.0760	-0.0777	26.84	3.02	-0.050			
0.9224	59036.73	3.0750	3.0750	-0.0775	26.85	3.03	-0.050			
0.9225	59041.73	3.0740	3.0740	-0.0774	26.85	3.03	-0.050			
0.9226	59046.68	3.0730	3.0730	-0.0772	26.86	3.04	-0.050			
0.9227	59051.62	3.0720	3.0720	-0.0769	26.87	3.05	-0.050			
0.9228	59056.54	3.0710	3.0710	-0.0767	26.87	3.05	-0.050			
0.9228	59061.44	3.0700	3.0700	-0.0765	26.88	3.06	-0.050			
0.9229	59066.32	3.0690	3.0690	-0.0762	26.89	3.07	-0.050			
0.9230	59071.19	3.0680	3.0680	-0.0760	26.90	3.08	-0.050			
0.9231	59076.05	3.0670	3.0670	-0.0758	26.90	3.08	-0.050			
0.9231	59080.89	3.0660	3.0660	-0.0755	26.91	3.09	-0.050			
0.9232	59085.72	3.0650	3.0650	-0.0753	26.92	3.10	-0.050			
0.9233	59090.56	3.0640	3.0640	-0.0750	26.92	3.10	-0.050			
0.9234	59095.35	3.0630	3.0631	-0.0748	26.93	3.11	-0.050			
0.9234	59100.13	3.0620	3.0620	-0.0745	26.94	3.12	-0.050			
0.9235	59104.89	3.0610	3.0610	-0.0743	26.94	3.12	-0.050			
0.9236	59109.64	3.0600	3.0600	-0.0740	26.94	3.12	-0.050			
0.9237	59114.40	3.0590	3.0590	-0.0738	26.95	3.13	-0.050			
0.9237	59119.11	3.0580	3.0580	-0.0736	26.95	3.13	-0.050			
0.9238	59123.81	3.0570	3.0570	-0.0733	26.96	3.14	-0.050			
0.9239	59128.42	3.0560	3.0560	-0.0732	26.96	3.14	-0.050			
0.9240	59133.10	3.0550	3.0550	-0.0730	26.97	3.15	-0.050			
0.9240	59137.77	3.0540	3.0540	-0.0728	26.97	3.15	-0.050			
0.9241	59142.41	3.0530	3.0530	-0.0725	26.98	3.16	-0.050			
0.9242	59147.00	3.0520	3.0521	-0.0722	26.98	3.16	-0.050			
0.9242	59151.62	3.0510	3.0510	-0.0720	26.99	3.17	-0.050			
0.9243	59156.22	3.0500	3.0500	-0.0719	26.99	3.17	-0.050			
0.9244	59160.84	3.0490	3.0490	-0.0716	27.00	3.18	-0.050			
0.9245	59165.42	3.0480	3.0480	-0.0714	27.00	3.18	-0.050			
0.9245	59169.98	3.0470	3.0470	-0.0712	27.01	3.19	-0.050			
0.9246	59174.53	3.0460	3.0460	-0.0710	27.02	3.20	-0.050			
0.9247	59179.07	3.0450	3.0450	-0.0708	27.02	3.20	-0.050			
0.9247	59183.58	3.0440	3.0440	-0.0706	27.03	3.21	-0.050			
0.9248	59188.10	3.0430	3.0430	-0.0704	27.03	3.21	-0.050			
0.9249	59192.59	3.0420	3.0420	-0.0702	27.04	3.22	-0.050			
0.9250	59197.08	3.0410	3.0410	-0.0700	27.05	3.23	-0.050			
0.9250	59201.56	3.0400	3.0400	-0.0698	27.05	3.23	-0.050			
0.9251	59206.02	3.0390	3.0390	-0.0696	27.05	3.23	-0.050			
0.9252	59210.47	3.0380	3.0380	-0.0694	27.06	3.24	-0.050			
0.9252	59214.90	3.0370	3.0370	-0.0692	27.06	3.24	-0.050			
0.9253	59219.37	3.0360	3.0360	-0.0691	27.06	3.24	-0.050			
0.9254	59223.78	3.0350	3.0350	-0.0688	27.07	3.25	-0.050			
0.9254	59228.18	3.0340	3.0340	-0.0686	27.07	3.25	-0.050			
0.9255	59232.54	3.0330	3.0330	-0.0684	27.07	3.25	-0.050			
0.9256	59236.92	3.0320	3.0320	-0.0682	27.08	3.26	-0.050			
0.9256	59241.28	3.0310	3.0309	-0.0680	27.08	3.26	-0.050			
0.9257	59245.63	3.0300	3.0299	-0.0678	27.08	3.26	-0.050			
0.9258	59249.92	3.0290	3.0290	-0.0675	27.09	3.27	-0.050			
0.9258	59254.24	3.0280	3.0281	-0.0673	27.09	3.27	-0.050			
0.9259	59258.54	3.0270	3.0270	-0.0672	27.09	3.27	-0.050			
0.9260	59262.83	3.0260	3.0260	-0.0670	27.10	3.28	-0.050			
0.9260	59267.11	3.0250	3.0250	-0.0668	27.10	3.28	-0.050			
0.9261	59271.44	3.0240	3.0240	-0.0664	27.11	3.29	-0.050			
0.9262	59275.68	3.0230	3.0230	-0.0662	27.11	3.29	-0.050			
0.9262	59279.92	3.0220	3.0220	-0.0660	27.12	3.30	-0.050			
0.9263	59284.13	3.0210	3.0210	-0.0658	27.12	3.30	-0.050			
0.9264	59288.40	3.0200	3.0200	-0.0657	27.13	3.31	-0.050			
0.9264	59292.59	3.0190	3.0190	-0.0654	27.13	3.31	-0.050			
0.9265	59296.77	3.0180	3.0180	-0.0652	27.14	3.32	-0.050			
0.9266	59300.93	3.0170	3.0170	-0.0649	27.14	3.32	-0.050			
0.9266	59305.08	3.0160	3.0160	-0.0647	27.15	3.33	-0.050			
0.9267	59309.16	3.0150	3.0151	-0.0646	27.15	3.33	-0.050			
0.9268	59313.29	3.0140	3.0141	-0.0644	27.15	3.33	-0.050			
0.9268	59317.37	3.0130	3.0130	-0.0641	27.16	3.34	-0.050			
0.9269	59321.47	3.0120	3.0120	-0.0639	27.16	3.34	-0.050			
0.9270	59325.55	3.0110	3.0110	-0.0637	27.16	3.34	-0.050			
0.9270	59329.62	3.0100	3.0100	-0.0635	27.17	3.35	-0.050			
0.9271	59333.68	3.0090	3.0090	-0.0633	27.17	3.35	-0.050			
0.9272	59337.73	3.0080	3.0080	-0.0631	27.17	3.35	-0.050			
0.9272	59341.76	3.0070	3.0070	-0.0629	27.18	3.36	-0.050			
0.9273	59345.78	3.0060	3.0060	-0.0627	27.18	3.36	-0.050			
0.9273	59349.79	3.0050	3.0050	-0.0625	27.18	3.36	-0.050			
0.9274	59353.67	3.0040	3.0040	-0.0628	27.18	3.36	-0.050			
0.9275	59357.69	3.0030	3.0030	-0.0628	27.19	3.37	-0.050			
0.9275	59361.70	3.0020	3.0020	-0.0627	27.19	3.37	-0.050			
0.9276	59365.72	3.0010	3.0010	-0.0627	27.19	3.37	-0.050			
