Ah_balance (normalized)	Ah_balance (mAh)	Voltage - fit (V)	Voltage -  interpolate (V)	dQ/dV (1/V)	Temperature (°C)	Temperature - diff (°C)	Current (C)	R_DC 0ms (mOhm)	R_DC 50ms (mOhm)	R_DC 50 ms PEC (mOhm)
-0.0043	-272.07	4.1990	4.1989	0.8390	24.21	-0.17	0.050			
-0.0034	-218.35	4.1980	4.1980	0.8394	24.20	-0.18	0.050			
-0.0026	-164.70	4.1970	4.1971	0.8388	24.18	-0.20	0.050			
-0.0017	-110.73	4.1960	4.1960	0.8413	24.16	-0.22	0.050			
-0.0009	-56.91	4.1950	4.1950	0.8417	24.15	-0.23	0.050			
-0.0000	-2.97	4.1940	4.1941	0.8421	24.14	-0.24	0.050			
0.0008	51.13	4.1930	4.1930	0.8425	24.13	-0.25	0.050	0.301	0.394	
0.0016	105.24	4.1920	4.1920	0.8423	24.12	-0.26	0.050			
0.0025	159.23	4.1910	4.1910	0.8418	24.12	-0.26	0.050			
0.0033	213.35	4.1900	4.1900	0.8407	24.12	-0.26	0.050			
0.0042	267.35	4.1890	4.1890	0.8391	24.14	-0.24	0.050			
0.0050	321.29	4.1880	4.1881	0.8373	24.15	-0.23	0.050			
0.0059	375.08	4.1870	4.1870	0.8359	24.18	-0.20	0.050			
0.0067	428.49	4.1860	4.1860	0.8344	24.20	-0.18	0.050			
0.0075	481.75	4.1850	4.1851	0.8336	24.24	-0.14	0.050			
0.0084	535.23	4.1840	4.1839	0.8334	24.29	-0.09	0.050			
0.0092	588.42	4.1830	4.1830	0.8329	24.33	-0.05	0.050			
0.0100	641.28	4.1820	4.1820	0.8325	24.39	0.01	0.050			
0.0108	694.33	4.1810	4.1810	0.8318	24.45	0.07	0.050			
0.0117	746.82	4.1800	4.1800	0.8304	24.53	0.15	0.050			
0.0125	799.46	4.1790	4.1790	0.8313	24.61	0.23	0.050			
0.0133	852.48	4.1780	4.1780	0.8319	24.69	0.31	0.050			
0.0141	905.26	4.1770	4.1770	0.8331	24.76	0.38	0.050			
0.0150	958.27	4.1760	4.1759	0.8344	24.85	0.47	0.050			
0.0158	1011.73	4.1750	4.1749	0.8369	24.96	0.58	0.050			
0.0166	1064.85	4.1740	4.1740	0.8391	25.04	0.66	0.050			
0.0175	1118.36	4.1730	4.1731	0.8420	25.15	0.77	0.050			
0.0183	1172.43	4.1720	4.1720	0.8456	25.23	0.85	0.050			
0.0192	1226.60	4.1710	4.1710	0.8483	25.33	0.95	0.050			
0.0200	1281.15	4.1700	4.1700	0.8522	25.41	1.03	0.050			
0.0209	1335.88	4.1690	4.1690	0.8559	25.49	1.11	0.050	0.229	0.472	
0.0217	1390.47	4.1680	4.1680	0.8596	25.56	1.18	0.050			
0.0226	1445.39	4.1670	4.1671	0.8637	25.63	1.25	0.050			
0.0235	1500.88	4.1660	4.1659	0.8665	25.68	1.30	0.050			
0.0243	1556.41	4.1650	4.1651	0.8693	25.73	1.35	0.050			
0.0252	1612.74	4.1640	4.1640	0.8706	25.75	1.37	0.050			
0.0261	1668.77	4.1630	4.1630	0.8728	25.72	1.34	0.050			
0.0270	1725.18	4.1620	4.1620	0.8754	25.67	1.29	0.050			
0.0278	1781.38	4.1610	4.1610	0.8777	25.62	1.24	0.050			
0.0287	1837.90	4.1600	4.1601	0.8791	25.58	1.20	0.050			
0.0296	1894.47	4.1590	4.1590	0.8808	25.52	1.14	0.050			
0.0305	1951.23	4.1580	4.1581	0.8824	25.47	1.09	0.050			
0.0314	2008.10	4.1570	4.1570	0.8821	25.41	1.03	0.050			
0.0323	2065.16	4.1560	4.1560	0.8816	25.36	0.98	0.050			
0.0332	2121.76	4.1550	4.1550	0.8804	25.31	0.93	0.050			
0.0340	2178.22	4.1540	4.1539	0.8798	25.26	0.88	0.050			
0.0349	2234.16	4.1530	4.1530	0.8801	25.22	0.84	0.050			
0.0358	2290.34	4.1520	4.1520	0.8800	25.16	0.78	0.050			
0.0367	2346.58	4.1510	4.1510	0.8798	25.10	0.72	0.050			
0.0375	2402.43	4.1500	4.1500	0.8794	25.05	0.67	0.050			
0.0384	2458.36	4.1490	4.1491	0.8792	25.00	0.62	0.050			
0.0393	2514.66	4.1480	4.1481	0.8778	24.96	0.58	0.050			
0.0402	2570.69	4.1470	4.1469	0.8787	24.90	0.52	0.050			
0.0411	2627.21	4.1460	4.1459	0.8793	24.85	0.47	0.050			
0.0419	2683.66	4.1450	4.1450	0.8799	24.80	0.42	0.050			
0.0428	2739.90	4.1440	4.1440	0.8806	24.75	0.37	0.050			
0.0437	2795.93	4.1430	4.1431	0.8811	24.70	0.32	0.050			
0.0446	2852.05	4.1420	4.1420	0.8807	24.66	0.28	0.050			
0.0454	2908.51	4.1410	4.1410	0.8809	24.61	0.23	0.050			
0.0463	2965.32	4.1400	4.1401	0.8800	24.57	0.19	0.050			
0.0472	3021.88	4.1390	4.1390	0.8804	24.53	0.15	0.050			
0.0481	3078.65	4.1380	4.1379	0.8812	24.48	0.10	0.050			
0.0490	3135.38	4.1370	4.1370	0.8817	24.42	0.04	0.050			
0.0499	3192.11	4.1360	4.1359	0.8813	24.39	0.01	0.050			
0.0508	3248.20	4.1350	4.1350	0.8797	24.34	-0.04	0.050			
0.0516	3304.44	4.1340	4.1341	0.8788	24.30	-0.08	0.050			
0.0525	3360.31	4.1330	4.1331	0.8771	24.27	-0.11	0.050			
0.0534	3416.42	4.1320	4.1320	0.8766	24.23	-0.15	0.050			
0.0543	3472.55	4.1310	4.1310	0.8764	24.18	-0.20	0.050			
0.0551	3528.80	4.1300	4.1300	0.8757	24.14	-0.24	0.050			
0.0560	3584.96	4.1290	4.1290	0.8752	24.12	-0.26	0.050			
0.0569	3641.26	4.1280	4.1280	0.8730	24.07	-0.31	0.050			
0.0578	3696.84	4.1270	4.1271	0.8717	24.04	-0.34	0.050			
0.0586	3752.74	4.1260	4.1260	0.8706	24.02	-0.36	0.050			
0.0595	3808.37	4.1250	4.1250	0.8689	23.98	-0.40	0.050			
0.0604	3863.76	4.1240	4.1240	0.8681	23.94	-0.44	0.050			
0.0612	3919.25	4.1230	4.1230	0.8670	23.91	-0.47	0.050			
0.0621	3974.81	4.1220	4.1220	0.8668	23.88	-0.50	0.050			
0.0630	4030.52	4.1210	4.1211	0.8655	23.86	-0.52	0.050			
0.0638	4085.88	4.1200	4.1200	0.8648	23.83	-0.55	0.050			
0.0647	4141.12	4.1190	4.1190	0.8638	23.81	-0.57	0.050			
0.0656	4196.10	4.1180	4.1179	0.8617	23.79	-0.59	0.050			
0.0664	4251.55	4.1170	4.1169	0.8599	23.79	-0.59	0.050			
0.0673	4306.56	4.1160	4.1160	0.8584	23.79	-0.59	0.050			
0.0681	4361.60	4.1150	4.1150	0.8563	23.79	-0.59	0.050			
0.0690	4416.48	4.1140	4.1140	0.8542	23.79	-0.59	0.050			
0.0699	4471.05	4.1130	4.1130	0.8526	23.81	-0.57	0.050			
0.0707	4525.59	4.1120	4.1120	0.8514	23.83	-0.55	0.050			
0.0716	4579.59	4.1110	4.1109	0.8511	23.85	-0.53	0.050			
0.0724	4634.57	4.1100	4.1101	0.8496	23.88	-0.50	0.050			
0.0733	4688.83	4.1090	4.1089	0.8481	23.92	-0.46	0.050			
0.0741	4742.86	4.1080	4.1080	0.8471	23.95	-0.43	0.050			
0.0749	4796.58	4.1070	4.1071	0.8458	24.02	-0.36	0.050			
0.0758	4850.00	4.1060	4.1059	0.8470	24.07	-0.31	0.050			
0.0766	4903.84	4.1050	4.1049	0.8468	24.15	-0.23	0.050			
0.0775	4957.58	4.1040	4.1040	0.8475	24.22	-0.16	0.050			
0.0783	5011.62	4.1030	4.1029	0.8481	24.31	-0.07	0.050			
0.0792	5065.78	4.1020	4.1020	0.8486	24.42	0.04	0.050			
0.0800	5120.17	4.1010	4.1011	0.8496	24.52	0.14	0.050			
0.0809	5174.47	4.1000	4.1000	0.8501	24.63	0.25	0.050	0.397	0.454	
0.0817	5228.97	4.0990	4.0989	0.8519	24.75	0.37	0.050			
0.0826	5283.65	4.0980	4.0979	0.8533	24.88	0.50	0.050			
0.0834	5338.58	4.0970	4.0970	0.8556	25.00	0.62	0.050			
0.0843	5393.37	4.0960	4.0961	0.8582	25.12	0.74	0.050			
0.0851	5448.05	4.0950	4.0950	0.8599	25.25	0.87	0.050			
0.0860	5502.90	4.0940	4.0940	0.8632	25.37	0.99	0.050			
0.0868	5557.74	4.0930	4.0932	0.8654	25.50	1.12	0.050			
0.0877	5612.76	4.0920	4.0920	0.8689	25.61	1.23	0.050			
0.0886	5668.05	4.0910	4.0910	0.8726	25.73	1.35	0.050			
0.0894	5724.04	4.0900	4.0899	0.8768	25.84	1.46	0.050			
0.0903	5779.97	4.0890	4.0889	0.8801	25.92	1.54	0.050			
0.0912	5836.14	4.0880	4.0879	0.8841	26.00	1.62	0.050			
0.0921	5892.60	4.0870	4.0869	0.8879	26.04	1.66	0.050			
0.0930	5949.48	4.0860	4.0860	0.8911	26.04	1.66	0.050			
0.0939	6007.26	4.0850	4.0850	0.8937	26.01	1.63	0.050			
0.0948	6065.33	4.0840	4.0840	0.8975	25.96	1.58	0.050			
0.0957	6123.48	4.0830	4.0830	0.8994	25.90	1.52	0.050			
0.0966	6181.68	4.0820	4.0819	0.9021	25.86	1.48	0.050			
0.0975	6240.15	4.0810	4.0811	0.9046	25.79	1.41	0.050			
0.0984	6298.21	4.0800	4.0800	0.9061	25.75	1.37	0.050			
0.0993	6356.63	4.0790	4.0791	0.9071	25.69	1.31	0.050			
0.1002	6415.14	4.0780	4.0780	0.9080	25.64	1.26	0.050			
0.1011	6473.29	4.0770	4.0771	0.9077	25.58	1.20	0.050	0.412	0.469	
0.1021	6531.69	4.0760	4.0760	0.9066	25.52	1.14	0.050			
0.1030	6589.58	4.0750	4.0749	0.9058	25.47	1.09	0.050			
0.1039	6647.29	4.0740	4.0738	0.9058	25.41	1.03	0.050			
0.1048	6705.04	4.0730	4.0729	0.9060	25.37	0.99	0.050			
0.1057	6762.27	4.0720	4.0720	0.9066	25.30	0.92	0.050			
0.1066	6819.99	4.0710	4.0710	0.9074	25.26	0.88	0.050			
0.1075	6878.25	4.0700	4.0700	0.9072	25.21	0.83	0.050			
0.1084	6936.33	4.0690	4.0690	0.9074	25.15	0.77	0.050			
0.1093	6994.31	4.0680	4.0681	0.9078	25.09	0.71	0.050			
0.1102	7052.40	4.0670	4.0670	0.9092	25.04	0.66	0.050			
0.1111	7110.93	4.0660	4.0660	0.9103	24.99	0.61	0.050			
0.1120	7169.41	4.0650	4.0650	0.9117	24.93	0.55	0.050			
0.1129	7227.72	4.0640	4.0640	0.9123	24.88	0.50	0.050			
0.1138	7286.19	4.0630	4.0630	0.9125	24.83	0.45	0.050			
0.1148	7344.77	4.0620	4.0620	0.9122	24.77	0.39	0.050			
0.1157	7403.49	4.0610	4.0611	0.9114	24.72	0.34	0.050			
0.1166	7461.88	4.0600	4.0599	0.9117	24.68	0.30	0.050			
0.1175	7520.32	4.0590	4.0589	0.9115	24.61	0.23	0.050			
0.1184	7578.98	4.0580	4.0579	0.9120	24.57	0.19	0.050			
0.1193	7637.34	4.0570	4.0571	0.9124	24.52	0.14	0.050			
0.1202	7695.68	4.0560	4.0560	0.9127	24.47	0.09	0.050			
0.1212	7753.68	4.0550	4.0552	0.9123	24.43	0.05	0.050	0.147	0.482	
0.1221	7811.70	4.0540	4.0540	0.9116	24.38	0.00	0.050			
0.1230	7869.74	4.0530	4.0530	0.9122	24.33	-0.05	0.050			
0.1239	7927.88	4.0520	4.0520	0.9125	24.30	-0.08	0.050			
0.1248	7986.46	4.0510	4.0509	0.9129	24.26	-0.12	0.050			
0.1257	8045.45	4.0500	4.0500	0.9141	24.20	-0.18	0.050			
0.1266	8104.00	4.0490	4.0490	0.9141	24.18	-0.20	0.050			
0.1275	8162.59	4.0480	4.0480	0.9131	24.12	-0.26	0.050			
0.1285	8221.03	4.0470	4.0470	0.9122	24.08	-0.30	0.050			
0.1294	8279.63	4.0460	4.0460	0.9117	24.02	-0.36	0.050			
0.1303	8338.28	4.0450	4.0450	0.9107	23.98	-0.40	0.050			
0.1312	8396.79	4.0440	4.0440	0.9105	23.92	-0.46	0.050			
0.1321	8455.30	4.0430	4.0430	0.9105	23.87	-0.51	0.050			
0.1330	8513.66	4.0420	4.0421	0.9096	23.82	-0.56	0.050			
0.1339	8571.97	4.0410	4.0409	0.9091	23.78	-0.60	0.050			
0.1348	8630.19	4.0400	4.0401	0.9067	23.74	-0.64	0.050			
0.1357	8687.96	4.0390	4.0390	0.9054	23.69	-0.69	0.050			
0.1367	8745.81	4.0380	4.0380	0.9039	23.65	-0.73	0.050			
0.1376	8803.52	4.0370	4.0370	0.9012	23.62	-0.76	0.050			
0.1385	8861.01	4.0360	4.0360	0.8999	23.59	-0.79	0.050			
0.1393	8918.33	4.0350	4.0349	0.8986	23.57	-0.81	0.050			
0.1402	8975.83	4.0340	4.0340	0.8974	23.55	-0.83	0.050			
0.1411	9033.18	4.0330	4.0331	0.8959	23.54	-0.84	0.050	-0.040	0.440	
0.1420	9090.72	4.0320	4.0320	0.8940	23.53	-0.85	0.050			
0.1429	9147.92	4.0310	4.0311	0.8934	23.54	-0.84	0.050			
0.1438	9205.07	4.0300	4.0300	0.8919	23.55	-0.83	0.050			
0.1447	9262.26	4.0290	4.0290	0.8916	23.57	-0.81	0.050			
0.1456	9319.21	4.0280	4.0280	0.8901	23.61	-0.77	0.050			
0.1465	9376.15	4.0270	4.0269	0.8897	23.65	-0.73	0.050			
0.1474	9433.10	4.0260	4.0261	0.8877	23.71	-0.67	0.050			
0.1483	9489.77	4.0250	4.0250	0.8860	23.76	-0.62	0.050			
0.1492	9545.85	4.0240	4.0240	0.8855	23.84	-0.54	0.050			
0.1500	9602.28	4.0230	4.0231	0.8850	23.93	-0.45	0.050			
0.1509	9658.51	4.0220	4.0219	0.8850	24.02	-0.36	0.050			
0.1518	9714.93	4.0210	4.0211	0.8859	24.12	-0.26	0.050			
0.1527	9771.53	4.0200	4.0199	0.8868	24.24	-0.14	0.050			
0.1536	9828.01	4.0190	4.0190	0.8869	24.36	-0.02	0.050			
0.1544	9884.37	4.0180	4.0180	0.8886	24.49	0.11	0.050			
0.1553	9941.12	4.0170	4.0169	0.8911	24.63	0.25	0.050			
0.1562	9997.73	4.0160	4.0160	0.8927	24.78	0.40	0.050			
0.1571	10054.93	4.0150	4.0149	0.8950	24.94	0.56	0.050			
0.1580	10112.20	4.0140	4.0141	0.8976	25.10	0.72	0.050			
0.1589	10169.35	4.0130	4.0130	0.9015	25.25	0.87	0.050			
0.1598	10226.89	4.0120	4.0121	0.9058	25.40	1.02	0.050			
0.1607	10284.70	4.0110	4.0110	0.9082	25.57	1.19	0.050			
0.1616	10342.80	4.0100	4.0099	0.9125	25.72	1.34	0.050			
0.1625	10401.03	4.0090	4.0089	0.9172	25.86	1.48	0.050			
0.1634	10459.88	4.0080	4.0080	0.9217	25.99	1.61	0.050			
0.1644	10519.14	4.0070	4.0071	0.9262	26.10	1.72	0.050			
0.1653	10578.73	4.0060	4.0059	0.9312	26.20	1.82	0.050			
0.1662	10638.50	4.0050	4.0050	0.9359	26.25	1.87	0.050			
0.1672	10698.24	4.0040	4.0039	0.9394	26.27	1.89	0.050			
0.1681	10758.36	4.0030	4.0031	0.9439	26.23	1.85	0.050			
0.1691	10819.58	4.0020	4.0020	0.9476	26.18	1.80	0.050			
0.1700	10880.81	4.0010	4.0010	0.9511	26.12	1.74	0.050			
0.1710	10942.06	4.0000	3.9999	0.9551	26.07	1.69	0.050			
0.1719	11003.58	3.9990	3.9991	0.9577	26.02	1.64	0.050			
0.1729	11065.04	3.9980	3.9981	0.9605	25.98	1.60	0.050			
0.1739	11126.76	3.9970	3.9970	0.9630	25.92	1.54	0.050			
0.1748	11188.58	3.9960	3.9961	0.9657	25.86	1.48	0.050			
0.1758	11250.84	3.9950	3.9950	0.9688	25.82	1.44	0.050			
0.1768	11312.76	3.9940	3.9941	0.9708	25.76	1.38	0.050			
0.1777	11374.78	3.9930	3.9930	0.9724	25.70	1.32	0.050			
0.1787	11437.47	3.9920	3.9920	0.9737	25.64	1.26	0.050			
0.1797	11500.11	3.9910	3.9910	0.9750	25.59	1.21	0.050			
0.1807	11562.61	3.9900	3.9899	0.9755	25.52	1.14	0.050	0.136	0.414	
0.1816	11624.89	3.9890	3.9890	0.9765	25.47	1.09	0.050			
0.1826	11687.66	3.9880	3.9881	0.9783	25.41	1.03	0.050			
0.1836	11750.53	3.9870	3.9870	0.9789	25.36	0.98	0.050			
0.1846	11812.99	3.9860	3.9860	0.9796	25.30	0.92	0.050			
0.1856	11876.01	3.9850	3.9850	0.9805	25.25	0.87	0.050			
0.1865	11938.83	3.9840	3.9840	0.9809	25.19	0.81	0.050			
0.1875	12001.91	3.9830	3.9830	0.9805	25.13	0.75	0.050			
0.1885	12065.30	3.9820	3.9820	0.9810	25.08	0.70	0.050			
0.1895	12127.95	3.9810	3.9810	0.9808	25.02	0.64	0.050			
0.1905	12190.52	3.9800	3.9800	0.9812	24.97	0.59	0.050			
0.1915	12253.43	3.9790	3.9790	0.9805	24.92	0.54	0.050			
0.1924	12316.11	3.9780	3.9780	0.9796	24.88	0.50	0.050			
0.1934	12378.68	3.9770	3.9769	0.9793	24.83	0.45	0.050			
0.1944	12441.15	3.9760	3.9760	0.9790	24.77	0.39	0.050			
0.1954	12503.72	3.9750	3.9750	0.9793	24.72	0.34	0.050			
0.1963	12566.12	3.9740	3.9740	0.9799	24.67	0.29	0.050			
0.1973	12628.97	3.9730	3.9730	0.9802	24.62	0.24	0.050			
0.1983	12691.94	3.9720	3.9719	0.9808	24.57	0.19	0.050			
0.1993	12754.88	3.9710	3.9709	0.9801	24.53	0.15	0.050			
0.2003	12817.46	3.9700	3.9700	0.9794	24.48	0.10	0.050			
0.2013	12880.06	3.9690	3.9689	0.9787	24.43	0.05	0.050	0.470	0.551	
0.2022	12942.94	3.9680	3.9680	0.9781	24.40	0.02	0.050			
0.2032	13005.67	3.9670	3.9670	0.9784	24.35	-0.03	0.050			
0.2042	13068.11	3.9660	3.9660	0.9780	24.30	-0.08	0.050			
0.2052	13131.23	3.9650	3.9650	0.9775	24.27	-0.11	0.050			
0.2062	13193.90	3.9640	3.9642	0.9766	24.22	-0.16	0.050			
0.2071	13256.93	3.9630	3.9629	0.9749	24.17	-0.21	0.050			
0.2081	13319.57	3.9620	3.9620	0.9726	24.14	-0.24	0.050			
0.2091	13381.70	3.9610	3.9610	0.9698	24.10	-0.28	0.050			
0.2101	13443.83	3.9600	3.9600	0.9677	24.06	-0.32	0.050			
0.2110	13505.84	3.9590	3.9590	0.9658	24.03	-0.35	0.050			
0.2120	13567.12	3.9580	3.9580	0.9650	23.99	-0.39	0.050			
0.2129	13628.58	3.9570	3.9570	0.9631	23.96	-0.42	0.050			
0.2139	13689.85	3.9560	3.9561	0.9612	23.92	-0.46	0.050			
0.2149	13751.37	3.9550	3.9551	0.9598	23.89	-0.49	0.050			
0.2158	13812.81	3.9540	3.9540	0.9567	23.87	-0.51	0.050			
0.2168	13874.40	3.9530	3.9529	0.9540	23.86	-0.52	0.050			
0.2177	13935.62	3.9520	3.9519	0.9514	23.85	-0.53	0.050			
0.2187	13996.51	3.9510	3.9510	0.9496	23.84	-0.54	0.050			
0.2196	14057.14	3.9500	3.9499	0.9473	23.85	-0.53	0.050			
0.2206	14117.70	3.9490	3.9491	0.9443	23.86	-0.52	0.050			
0.2215	14178.10	3.9480	3.9480	0.9417	23.88	-0.50	0.050			
0.2225	14238.21	3.9470	3.9471	0.9387	23.91	-0.47	0.050			
0.2234	14298.47	3.9460	3.9460	0.9363	23.95	-0.43	0.050			
0.2244	14358.77	3.9450	3.9450	0.9340	23.99	-0.39	0.050			
0.2253	14418.55	3.9440	3.9440	0.9314	24.05	-0.33	0.050			
0.2262	14477.94	3.9430	3.9429	0.9298	24.11	-0.27	0.050			
0.2271	14537.10	3.9420	3.9419	0.9269	24.18	-0.20	0.050			
0.2281	14596.21	3.9410	3.9410	0.9234	24.26	-0.12	0.050			
0.2290	14655.29	3.9400	3.9400	0.9191	24.35	-0.03	0.050			
0.2299	14713.73	3.9390	3.9391	0.9156	24.43	0.05	0.050			
0.2308	14771.19	3.9380	3.9380	0.9139	24.53	0.15	0.050			
0.2317	14829.33	3.9370	3.9371	0.9140	24.66	0.28	0.050			
0.2326	14887.50	3.9360	3.9359	0.9145	24.74	0.36	0.050			
0.2335	14945.80	3.9350	3.9350	0.9149	24.87	0.49	0.050			
0.2344	15004.11	3.9340	3.9339	0.9162	24.98	0.60	0.050			
0.2354	15062.62	3.9330	3.9331	0.9171	25.11	0.73	0.050			
0.2363	15121.28	3.9320	3.9321	0.9173	25.22	0.84	0.050			
0.2372	15179.04	3.9310	3.9309	0.9177	25.33	0.95	0.050			
0.2381	15237.80	3.9300	3.9299	0.9199	25.44	1.06	0.050			
0.2390	15296.74	3.9290	3.9289	0.9213	25.55	1.17	0.050			
0.2399	15355.93	3.9280	3.9281	0.9223	25.64	1.26	0.050			
0.2409	15415.10	3.9270	3.9271	0.9241	25.71	1.33	0.050	0.405	0.489	
0.2418	15474.86	3.9260	3.9261	0.9239	25.77	1.39	0.050			
0.2427	15534.54	3.9250	3.9250	0.9245	25.80	1.42	0.050			
0.2437	15594.12	3.9240	3.9240	0.9243	25.79	1.41	0.050			
0.2446	15653.44	3.9230	3.9230	0.9247	25.75	1.37	0.050			
0.2455	15712.98	3.9220	3.9221	0.9251	25.72	1.34	0.050			
0.2464	15772.70	3.9210	3.9211	0.9246	25.69	1.31	0.050			
0.2474	15832.47	3.9200	3.9200	0.9242	25.66	1.28	0.050			
0.2483	15891.10	3.9190	3.9190	0.9228	25.63	1.25	0.050			
0.2492	15949.57	3.9180	3.9181	0.9203	25.60	1.22	0.050			
0.2501	16008.29	3.9170	3.9170	0.9193	25.57	1.19	0.050			
0.2510	16067.20	3.9160	3.9160	0.9183	25.55	1.17	0.050			
0.2520	16126.26	3.9150	3.9149	0.9170	25.52	1.14	0.050			
0.2529	16184.74	3.9140	3.9140	0.9149	25.51	1.13	0.050			
0.2538	16243.26	3.9130	3.9130	0.9136	25.47	1.09	0.050			
0.2547	16301.78	3.9120	3.9120	0.9117	25.43	1.05	0.050			
0.2556	16359.91	3.9110	3.9110	0.9108	25.38	1.00	0.050			
0.2565	16418.02	3.9100	3.9100	0.9092	25.34	0.96	0.050			
0.2574	16476.33	3.9090	3.9091	0.9081	25.29	0.91	0.050			
0.2584	16534.52	3.9080	3.9080	0.9070	25.23	0.85	0.050			
0.2593	16592.72	3.9070	3.9069	0.9061	25.19	0.81	0.050			
0.2602	16650.82	3.9060	3.9060	0.9052	25.14	0.76	0.050			
0.2611	16708.66	3.9050	3.9050	0.9034	25.10	0.72	0.050	0.419	0.547	
0.2620	16766.24	3.9040	3.9040	0.9012	25.05	0.67	0.050			
0.2629	16823.97	3.9030	3.9030	0.8983	25.00	0.62	0.050			
0.2638	16881.46	3.9020	3.9020	0.8966	24.97	0.59	0.050			
0.2647	16938.93	3.9010	3.9009	0.8946	24.93	0.55	0.050			
0.2656	16996.06	3.9000	3.9001	0.8930	24.87	0.49	0.050			
0.2665	17053.03	3.8990	3.8990	0.8903	24.84	0.46	0.050			
0.2673	17110.10	3.8980	3.8981	0.8882	24.80	0.42	0.050			
0.2682	17167.03	3.8970	3.8970	0.8866	24.78	0.40	0.050			
0.2691	17223.55	3.8960	3.8960	0.8851	24.75	0.37	0.050			
0.2700	17280.15	3.8950	3.8950	0.8842	24.73	0.35	0.050			
0.2709	17336.70	3.8940	3.8939	0.8837	24.70	0.32	0.050			
0.2718	17392.50	3.8930	3.8930	0.8821	24.67	0.29	0.050			
0.2726	17448.77	3.8920	3.8920	0.8807	24.64	0.26	0.050			
0.2735	17505.07	3.8910	3.8910	0.8785	24.59	0.21	0.050			
0.2744	17561.28	3.8900	3.8901	0.8772	24.55	0.17	0.050			
0.2753	17617.46	3.8890	3.8889	0.8766	24.51	0.13	0.050			
0.2762	17673.61	3.8880	3.8880	0.8746	24.46	0.08	0.050			
0.2770	17729.53	3.8870	3.8870	0.8730	24.42	0.04	0.050			
0.2779	17785.43	3.8860	3.8860	0.8725	24.39	0.01	0.050			
0.2788	17841.36	3.8850	3.8850	0.8715	24.35	-0.03	0.050			
0.2796	17897.04	3.8840	3.8841	0.8711	24.31	-0.07	0.050			
0.2805	17952.90	3.8830	3.8830	0.8711	24.28	-0.10	0.050			
0.2814	18008.64	3.8820	3.8820	0.8697	24.25	-0.13	0.050	0.077	0.512	
0.2822	18063.99	3.8810	3.8810	0.8693	24.21	-0.17	0.050			
0.2831	18119.46	3.8800	3.8800	0.8685	24.19	-0.19	0.050			
0.2840	18175.02	3.8790	3.8790	0.8682	24.15	-0.23	0.050			
0.2849	18230.60	3.8780	3.8779	0.8680	24.14	-0.24	0.050			
0.2857	18286.05	3.8770	3.8769	0.8667	24.12	-0.26	0.050			
0.2866	18341.14	3.8760	3.8760	0.8652	24.10	-0.28	0.050			
0.2874	18396.50	3.8750	3.8750	0.8649	24.09	-0.29	0.050			
0.2883	18451.61	3.8740	3.8740	0.8645	24.09	-0.29	0.050			
0.2892	18507.06	3.8730	3.8731	0.8645	24.10	-0.28	0.050			
0.2900	18562.35	3.8720	3.8720	0.8642	24.09	-0.29	0.050			
0.2909	18618.09	3.8710	3.8711	0.8652	24.08	-0.30	0.050			
0.2918	18674.02	3.8700	3.8700	0.8635	24.10	-0.28	0.050			
0.2926	18729.25	3.8690	3.8690	0.8624	24.11	-0.27	0.050			
0.2935	18784.79	3.8680	3.8681	0.8613	24.13	-0.25	0.050			
0.2944	18839.79	3.8670	3.8670	0.8604	24.14	-0.24	0.050			
0.2952	18894.61	3.8660	3.8660	0.8589	24.17	-0.21	0.050			
0.2961	18949.40	3.8650	3.8650	0.8583	24.22	-0.16	0.050			
0.2969	19003.83	3.8640	3.8640	0.8589	24.25	-0.13	0.050			
0.2978	19058.47	3.8630	3.8630	0.8588	24.31	-0.07	0.050			
0.2986	19113.23	3.8620	3.8620	0.8592	24.36	-0.02	0.050			
0.2995	19168.01	3.8610	3.8611	0.8581	24.42	0.04	0.050			
0.3004	19222.90	3.8600	3.8599	0.8581	24.49	0.11	0.050			
0.3012	19277.84	3.8590	3.8590	0.8586	24.58	0.20	0.050			
0.3021	19332.97	3.8580	3.8580	0.8581	24.67	0.29	0.050			
0.3029	19388.57	3.8570	3.8570	0.8576	24.76	0.38	0.050			
0.3038	19443.73	3.8560	3.8560	0.8554	24.85	0.47	0.050			
0.3047	19498.54	3.8550	3.8550	0.8540	24.95	0.57	0.050			
0.3055	19553.20	3.8540	3.8541	0.8528	25.05	0.67	0.050			
0.3064	19607.63	3.8530	3.8530	0.8539	25.14	0.76	0.050			
0.3072	19662.43	3.8520	3.8520	0.8531	25.24	0.86	0.050			
0.3081	19716.78	3.8510	3.8511	0.8537	25.34	0.96	0.050			
0.3089	19771.48	3.8500	3.8500	0.8549	25.43	1.05	0.050			
0.3098	19825.32	3.8490	3.8491	0.8567	25.51	1.13	0.050			
0.3106	19879.20	3.8480	3.8480	0.8586	25.59	1.21	0.050			
0.3115	19932.89	3.8470	3.8470	0.8607	25.67	1.29	0.050			
0.3123	19987.56	3.8460	3.8461	0.8637	25.75	1.37	0.050			
0.3132	20042.26	3.8450	3.8450	0.8677	25.80	1.42	0.050			
0.3140	20097.30	3.8440	3.8440	0.8696	25.84	1.46	0.050			
0.3149	20152.93	3.8430	3.8430	0.8743	25.85	1.47	0.050			
0.3158	20209.20	3.8420	3.8419	0.8782	25.81	1.43	0.050			
0.3167	20265.71	3.8410	3.8409	0.8827	25.75	1.37	0.050			
0.3175	20323.04	3.8400	3.8400	0.8866	25.71	1.33	0.050			
0.3184	20380.40	3.8390	3.8390	0.8906	25.65	1.27	0.050			
0.3193	20438.22	3.8380	3.8381	0.8947	25.60	1.22	0.050			
0.3203	20496.26	3.8370	3.8371	0.8980	25.55	1.17	0.050			
0.3212	20554.66	3.8360	3.8360	0.9004	25.50	1.12	0.050			
0.3221	20612.73	3.8350	3.8351	0.9029	25.45	1.07	0.050			
0.3230	20670.63	3.8340	3.8340	0.9031	25.39	1.01	0.050			
0.3239	20728.50	3.8330	3.8330	0.9045	25.33	0.95	0.050			
0.3248	20786.78	3.8320	3.8320	0.9047	25.28	0.90	0.050			
0.3257	20844.57	3.8310	3.8310	0.9057	25.23	0.85	0.050			
0.3266	20902.37	3.8300	3.8300	0.9057	25.17	0.79	0.050			
0.3275	20959.90	3.8290	3.8289	0.9051	25.11	0.73	0.050			
0.3284	21017.43	3.8280	3.8280	0.9054	25.06	0.68	0.050			
0.3293	21075.52	3.8270	3.8271	0.9066	25.00	0.62	0.050			
0.3302	21133.61	3.8260	3.8259	0.9078	24.95	0.57	0.050			
0.3311	21190.82	3.8250	3.8250	0.9120	24.90	0.52	0.050			
0.3320	21248.77	3.8240	3.8240	0.9160	24.86	0.48	0.050			
0.3329	21307.08	3.8230	3.8231	0.9199	24.80	0.42	0.050			
0.3338	21365.67	3.8220	3.8219	0.9228	24.74	0.36	0.050			
0.3348	21425.08	3.8210	3.8211	0.9260	24.69	0.31	0.050			
0.3357	21484.52	3.8200	3.8199	0.9285	24.64	0.26	0.050			
0.3366	21544.37	3.8190	3.8189	0.9312	24.59	0.21	0.050			
0.3376	21604.25	3.8180	3.8179	0.9337	24.54	0.16	0.050			
0.3385	21664.68	3.8170	3.8169	0.9344	24.48	0.10	0.050			
0.3395	21724.97	3.8160	3.8159	0.9364	24.44	0.06	0.050			
0.3404	21785.55	3.8150	3.8152	0.9370	24.39	0.01	0.050			
0.3413	21845.98	3.8140	3.8142	0.9371	24.35	-0.03	0.050	0.326	0.465	
0.3423	21906.78	3.8130	3.8131	0.9379	24.30	-0.08	0.050			
0.3432	21967.19	3.8120	3.8121	0.9378	24.26	-0.12	0.050			
0.3442	22027.90	3.8110	3.8111	0.9365	24.21	-0.17	0.050			
0.3451	22088.09	3.8100	3.8100	0.9354	24.17	-0.21	0.050			
0.3461	22148.56	3.8090	3.8091	0.9335	24.12	-0.26	0.050			
0.3470	22208.87	3.8080	3.8080	0.9285	24.07	-0.31	0.050			
0.3479	22268.62	3.8070	3.8070	0.9237	24.03	-0.35	0.050			
0.3489	22326.81	3.8060	3.8059	0.9203	23.99	-0.39	0.050			
0.3498	22384.85	3.8050	3.8050	0.9143	23.94	-0.44	0.050			
0.3507	22442.11	3.8040	3.8041	0.9151	23.92	-0.46	0.050			
0.3516	22500.13	3.8030	3.8030	0.9159	23.88	-0.50	0.050			
0.3525	22559.39	3.8020	3.8020	0.9129	23.85	-0.53	0.050			
0.3534	22618.23	3.8010	3.8009	0.9094	23.82	-0.56	0.050			
0.3543	22676.20	3.8000	3.8001	0.9072	23.80	-0.58	0.050			
0.3552	22733.48	3.7990	3.7990	0.9067	23.78	-0.60	0.050			
0.3561	22791.11	3.7980	3.7978	0.9061	23.78	-0.60	0.050			
0.3570	22848.44	3.7970	3.7969	0.9074	23.77	-0.61	0.050			
0.3579	22906.11	3.7960	3.7958	0.9081	23.78	-0.60	0.050			
0.3588	22963.23	3.7950	3.7948	0.9103	23.80	-0.58	0.050			
0.3597	23020.99	3.7940	3.7942	0.9128	23.82	-0.56	0.050			
0.3606	23078.97	3.7930	3.7932	0.9153	23.85	-0.53	0.050			
0.3615	23137.26	3.7920	3.7917	0.9195	23.89	-0.49	0.050			
0.3624	23195.78	3.7910	3.7908	0.9246	23.95	-0.43	0.050			
0.3634	23254.76	3.7900	3.7899	0.9301	24.01	-0.37	0.050			
0.3643	23314.63	3.7890	3.7890	0.9354	24.07	-0.31	0.050			
0.3652	23374.90	3.7880	3.7879	0.9417	24.16	-0.22	0.050			
0.3662	23435.43	3.7870	3.7870	0.9461	24.26	-0.12	0.050			
0.3671	23495.14	3.7860	3.7860	0.9486	24.37	-0.01	0.050			
0.3681	23555.76	3.7850	3.7851	0.9529	24.48	0.10	0.050			
0.3690	23616.96	3.7840	3.7839	0.9585	24.60	0.22	0.050			
0.3700	23678.82	3.7830	3.7830	0.9665	24.74	0.36	0.050			
0.3710	23741.46	3.7820	3.7820	0.9744	24.87	0.49	0.050			
0.3719	23804.70	3.7810	3.7810	0.9819	25.03	0.65	0.050			
0.3729	23867.91	3.7800	3.7800	0.9873	25.18	0.80	0.050			
0.3739	23930.34	3.7790	3.7790	0.9918	25.34	0.96	0.050			
0.3749	23993.50	3.7780	3.7780	0.9974	25.49	1.11	0.050			
0.3759	24057.80	3.7770	3.7770	1.0039	25.64	1.26	0.050			
0.3769	24122.10	3.7760	3.7760	1.0098	25.79	1.41	0.050			
0.3779	24186.91	3.7750	3.7749	1.0156	25.92	1.54	0.050			
0.3789	24252.36	3.7740	3.7739	1.0217	26.05	1.67	0.050			
0.3800	24317.93	3.7730	3.7731	1.0273	26.14	1.76	0.050			
0.3810	24384.17	3.7720	3.7720	1.0337	26.20	1.82	0.050			
0.3820	24450.28	3.7710	3.7710	1.0389	26.20	1.82	0.050			
0.3831	24517.05	3.7700	3.7700	1.0447	26.15	1.77	0.050			
0.3841	24584.47	3.7690	3.7691	1.0520	26.10	1.72	0.050			
0.3852	24652.17	3.7680	3.7680	1.0575	26.03	1.65	0.050			
0.3863	24720.17	3.7670	3.7671	1.0633	25.97	1.59	0.050			
0.3873	24788.45	3.7660	3.7661	1.0684	25.90	1.52	0.050			
0.3884	24857.21	3.7650	3.7650	1.0723	25.84	1.46	0.050			
0.3895	24925.87	3.7640	3.7639	1.0769	25.78	1.40	0.050			
0.3905	24994.88	3.7630	3.7631	1.0816	25.72	1.34	0.050			
0.3916	25063.97	3.7620	3.7620	1.0877	25.65	1.27	0.050			
0.3927	25133.40	3.7610	3.7610	1.0939	25.59	1.21	0.050			
0.3938	25203.60	3.7600	3.7600	1.0994	25.53	1.15	0.050			
0.3949	25273.85	3.7590	3.7590	1.1050	25.46	1.08	0.050			
0.3960	25344.60	3.7580	3.7580	1.1117	25.39	1.01	0.050			
0.3971	25416.18	3.7570	3.7570	1.1175	25.32	0.94	0.050			
0.3983	25488.01	3.7560	3.7560	1.1241	25.25	0.87	0.050			
0.3994	25559.95	3.7550	3.7549	1.1300	25.18	0.80	0.050			
0.4005	25632.28	3.7540	3.7540	1.1367	25.11	0.73	0.050			
0.4016	25705.18	3.7530	3.7529	1.1429	25.05	0.67	0.050	0.335	0.394	
0.4028	25778.64	3.7520	3.7521	1.1485	24.97	0.59	0.050			
0.4039	25851.90	3.7510	3.7510	1.1559	24.90	0.52	0.050			
0.4051	25925.85	3.7500	3.7501	1.1635	24.84	0.46	0.050			
0.4062	25999.45	3.7490	3.7490	1.1744	24.77	0.39	0.050			
0.4074	26074.03	3.7480	3.7481	1.1861	24.69	0.31	0.050			
0.4086	26149.13	3.7470	3.7470	1.1986	24.63	0.25	0.050			
0.4098	26225.94	3.7460	3.7460	1.2098	24.56	0.18	0.050			
0.4110	26303.70	3.7450	3.7450	1.2215	24.50	0.12	0.050			
0.4122	26381.96	3.7440	3.7440	1.2318	24.45	0.07	0.050			
0.4135	26461.46	3.7430	3.7429	1.2413	24.39	0.01	0.050			
0.4147	26541.85	3.7420	3.7420	1.2501	24.33	-0.05	0.050			
0.4160	26623.21	3.7410	3.7410	1.2590	24.27	-0.11	0.050			
0.4173	26705.13	3.7400	3.7398	1.2684	24.20	-0.18	0.050			
0.4186	26787.66	3.7390	3.7392	1.2761	24.14	-0.24	0.050			
0.4198	26870.23	3.7380	3.7382	1.2832	24.07	-0.31	0.050			
0.4212	26953.74	3.7370	3.7370	1.2906	24.02	-0.36	0.050	0.401	0.600	
0.4225	27037.22	3.7360	3.7361	1.2962	23.95	-0.43	0.050			
0.4238	27120.67	3.7350	3.7350	1.3031	23.90	-0.48	0.050			
0.4251	27204.66	3.7340	3.7340	1.3082	23.84	-0.54	0.050			
0.4264	27288.82	3.7330	3.7328	1.3132	23.80	-0.58	0.050			
0.4277	27372.45	3.7320	3.7320	1.3179	23.77	-0.61	0.050			
0.4290	27455.71	3.7310	3.7309	1.3215	23.75	-0.63	0.050			
0.4303	27539.53	3.7300	3.7299	1.3256	23.75	-0.63	0.050			
0.4316	27622.85	3.7290	3.7290	1.3307	23.76	-0.62	0.050			
0.4329	27707.33	3.7280	3.7281	1.3397	23.80	-0.58	0.050			
0.4343	27792.01	3.7270	3.7271	1.3501	23.85	-0.53	0.050			
0.4356	27878.50	3.7260	3.7260	1.3615	23.94	-0.44	0.050			
0.4370	27965.80	3.7250	3.7250	1.3740	24.03	-0.35	0.050			
0.4383	28053.02	3.7240	3.7240	1.3865	24.14	-0.24	0.050			
0.4397	28142.38	3.7230	3.7230	1.4006	24.29	-0.09	0.050			
0.4411	28231.95	3.7220	3.7220	1.4145	24.45	0.07	0.050			
0.4425	28322.62	3.7210	3.7211	1.4290	24.64	0.26	0.050			
0.4440	28414.25	3.7200	3.7200	1.4436	24.86	0.48	0.050			
0.4454	28506.97	3.7190	3.7191	1.4589	25.08	0.70	0.050			
0.4469	28600.18	3.7180	3.7181	1.4754	25.29	0.91	0.050			
0.4484	28695.00	3.7170	3.7169	1.4922	25.51	1.13	0.050			
0.4499	28790.78	3.7160	3.7160	1.5091	25.73	1.35	0.050			
0.4514	28887.81	3.7150	3.7149	1.5245	25.93	1.55	0.050			
0.4529	28986.23	3.7140	3.7141	1.5428	26.09	1.71	0.050			
0.4545	29085.67	3.7130	3.7129	1.5588	26.18	1.80	0.050			
0.4560	29185.87	3.7120	3.7120	1.5754	26.14	1.76	0.050			
0.4576	29287.47	3.7110	3.7109	1.5924	26.05	1.67	0.050			
0.4592	29389.81	3.7100	3.7100	1.6092	25.95	1.57	0.050			
0.4608	29493.01	3.7090	3.7090	1.6254	25.87	1.49	0.050	0.451	0.461	
0.4625	29597.66	3.7080	3.7080	1.6419	25.77	1.39	0.050			
0.4641	29703.97	3.7070	3.7070	1.6586	25.68	1.30	0.050			
0.4658	29810.27	3.7060	3.7060	1.6765	25.59	1.21	0.050			
0.4675	29918.24	3.7050	3.7050	1.6927	25.49	1.11	0.050			
0.4692	30026.64	3.7040	3.7040	1.7097	25.38	1.00	0.050			
0.4709	30136.84	3.7030	3.7029	1.7276	25.28	0.90	0.050			
0.4726	30247.27	3.7020	3.7020	1.7455	25.18	0.80	0.050			
0.4744	30359.31	3.7010	3.7010	1.7633	25.07	0.69	0.050			
0.4761	30472.45	3.7000	3.7001	1.7814	24.97	0.59	0.050			
0.4779	30586.83	3.6990	3.6991	1.7988	24.86	0.48	0.050			
0.4797	30702.29	3.6980	3.6980	1.8167	24.75	0.37	0.050			
0.4815	30818.64	3.6970	3.6970	1.8385	24.66	0.28	0.050			
0.4834	30936.71	3.6960	3.6960	1.8590	24.55	0.17	0.050			
0.4853	31056.18	3.6950	3.6950	1.8788	24.44	0.06	0.050			
0.4871	31176.83	3.6940	3.6940	1.8998	24.36	-0.02	0.050			
0.4890	31298.74	3.6930	3.6930	1.9212	24.28	-0.10	0.050			
0.4910	31422.11	3.6920	3.6920	1.9418	24.18	-0.20	0.050			
0.4929	31546.90	3.6910	3.6909	1.9635	24.08	-0.30	0.050			
0.4949	31673.43	3.6900	3.6900	1.9848	24.01	-0.37	0.050			
0.4969	31800.72	3.6890	3.6890	2.0093	23.93	-0.45	0.050			
0.4989	31929.68	3.6880	3.6880	2.0334	23.87	-0.51	0.050			
0.5009	32059.90	3.6870	3.6870	2.0564	23.84	-0.54	0.050	0.313	0.493	
0.5030	32191.59	3.6860	3.6860	2.0813	23.84	-0.54	0.050			
0.5051	32325.37	3.6850	3.6850	2.1075	23.87	-0.51	0.050			
0.5072	32459.86	3.6840	3.6840	2.1345	23.95	-0.43	0.050			
0.5093	32597.23	3.6830	3.6830	2.1609	24.08	-0.30	0.050			
0.5115	32735.78	3.6820	3.6820	2.1879	24.27	-0.11	0.050			
0.5137	32876.55	3.6810	3.6811	2.2181	24.54	0.16	0.050			
0.5159	33018.56	3.6800	3.6799	2.2481	24.83	0.45	0.050			
0.5182	33162.73	3.6790	3.6789	2.2784	25.16	0.78	0.050			
0.5204	33308.79	3.6780	3.6780	2.3087	25.49	1.11	0.050			
0.5228	33456.92	3.6770	3.6770	2.3411	25.80	1.42	0.050			
0.5251	33607.66	3.6760	3.6760	2.3746	26.03	1.65	0.050			
0.5275	33761.06	3.6750	3.6750	2.4059	26.10	1.72	0.050			
0.5299	33916.41	3.6740	3.6740	2.4366	25.95	1.57	0.050			
0.5324	34073.89	3.6730	3.6730	2.4661	25.79	1.41	0.050			
0.5349	34233.28	3.6720	3.6721	2.4968	25.65	1.27	0.050			
0.5374	34394.90	3.6710	3.6711	2.5237	25.47	1.09	0.050			
0.5400	34557.93	3.6700	3.6701	2.5505	25.31	0.93	0.050			
0.5425	34722.78	3.6690	3.6690	2.5780	25.15	0.77	0.050	0.461	0.400	
0.5452	34889.60	3.6680	3.6679	2.6033	24.98	0.60	0.050			
0.5478	35057.85	3.6670	3.6670	2.6259	24.82	0.44	0.050			
0.5504	35227.42	3.6660	3.6660	2.6489	24.66	0.28	0.050			
0.5531	35398.07	3.6650	3.6650	2.6747	24.50	0.12	0.050			
0.5558	35570.82	3.6640	3.6640	2.6947	24.37	-0.01	0.050			
0.5585	35743.75	3.6630	3.6630	2.7140	24.21	-0.17	0.050			
0.5612	35918.37	3.6620	3.6620	2.7296	24.09	-0.29	0.050	0.411	0.508	
0.5640	36094.51	3.6610	3.6610	2.7420	23.94	-0.44	0.050			
0.5668	36272.66	3.6600	3.6601	2.7473	23.82	-0.56	0.050			
0.5695	36450.41	3.6590	3.6589	2.7557	23.71	-0.67	0.050			
0.5723	36629.52	3.6580	3.6579	2.7585	23.64	-0.74	0.050			
0.5751	36808.72	3.6570	3.6570	2.7614	23.64	-0.74	0.050			
0.5779	36986.06	3.6560	3.6561	2.7626	23.72	-0.66	0.050			
0.5807	37163.01	3.6550	3.6550	2.7641	23.89	-0.49	0.050	0.484	0.627	
0.5834	37339.95	3.6540	3.6540	2.7631	24.16	-0.22	0.050			
0.5862	37514.46	3.6530	3.6530	2.7694	24.52	0.14	0.050			
0.5889	37690.20	3.6520	3.6519	2.7747	24.95	0.57	0.050			
0.5917	37866.41	3.6510	3.6511	2.7823	25.39	1.01	0.050			
0.5944	38042.69	3.6500	3.6500	2.7872	25.81	1.43	0.050			
0.5972	38218.94	3.6490	3.6489	2.7962	26.13	1.75	0.050			
0.6000	38397.77	3.6480	3.6480	2.8073	26.16	1.78	0.050	0.023	0.462	
0.6028	38577.70	3.6470	3.6470	2.8210	26.00	1.62	0.050			
0.6056	38760.30	3.6460	3.6459	2.8294	25.82	1.44	0.050			
0.6085	38943.35	3.6450	3.6450	2.8397	25.65	1.27	0.050			
0.6114	39129.13	3.6440	3.6440	2.8437	25.48	1.10	0.050			
0.6143	39314.45	3.6430	3.6431	2.8392	25.30	0.92	0.050			
0.6172	39500.62	3.6420	3.6419	2.8303	25.14	0.76	0.050			
0.6201	39685.76	3.6410	3.6410	2.8117	24.96	0.58	0.050			
0.6229	39867.49	3.6400	3.6400	2.7847	24.77	0.39	0.050			
0.6258	40048.42	3.6390	3.6390	2.7564	24.61	0.23	0.050			
0.6285	40226.16	3.6380	3.6380	2.7204	24.46	0.08	0.050			
0.6313	40401.81	3.6370	3.6369	2.6734	24.31	-0.07	0.050			
0.6340	40574.79	3.6360	3.6360	2.6238	24.18	-0.20	0.050			
0.6366	40744.13	3.6350	3.6350	2.5691	24.04	-0.34	0.050			
0.6392	40908.91	3.6340	3.6340	2.5118	23.93	-0.45	0.050			
0.6417	41068.77	3.6330	3.6330	2.4488	23.83	-0.55	0.050	0.245	0.480	
0.6441	41223.60	3.6320	3.6321	2.3865	23.73	-0.65	0.050			
0.6465	41373.96	3.6310	3.6311	2.3173	23.68	-0.70	0.050			
0.6488	41520.77	3.6300	3.6300	2.2543	23.69	-0.69	0.050			
0.6510	41662.38	3.6290	3.6291	2.1916	23.72	-0.66	0.050			
0.6531	41799.55	3.6280	3.6280	2.1323	23.81	-0.57	0.050			
0.6552	41932.05	3.6270	3.6271	2.0724	23.96	-0.42	0.050			
0.6572	42060.21	3.6260	3.6260	2.0217	24.14	-0.24	0.050			
0.6591	42183.95	3.6250	3.6249	1.9718	24.36	-0.02	0.050			
0.6610	42304.40	3.6240	3.6240	1.9290	24.61	0.23	0.050	0.253	0.572	
0.6628	42422.33	3.6230	3.6229	1.8848	24.88	0.50	0.050			
0.6646	42536.14	3.6220	3.6220	1.8502	25.15	0.77	0.050			
0.6664	42649.16	3.6210	3.6210	1.8174	25.43	1.05	0.050			
0.6681	42761.52	3.6200	3.6200	1.7919	25.66	1.28	0.050			
0.6699	42873.04	3.6190	3.6190	1.7677	25.88	1.50	0.050			
0.6716	42984.74	3.6180	3.6180	1.7481	26.03	1.65	0.050			
0.6734	43095.44	3.6170	3.6169	1.7287	26.05	1.67	0.050			
0.6751	43206.26	3.6160	3.6160	1.7092	25.95	1.57	0.050			
0.6768	43315.86	3.6150	3.6150	1.6902	25.84	1.46	0.050			
0.6785	43424.05	3.6140	3.6141	1.6717	25.74	1.36	0.050			
0.6802	43531.56	3.6130	3.6130	1.6527	25.64	1.26	0.050			
0.6818	43637.77	3.6120	3.6121	1.6329	25.54	1.16	0.050			
0.6835	43742.57	3.6110	3.6111	1.6130	25.45	1.07	0.050			
0.6851	43846.12	3.6100	3.6100	1.5925	25.34	0.96	0.050			
0.6867	43948.16	3.6090	3.6091	1.5698	25.24	0.86	0.050			
0.6882	44047.79	3.6080	3.6080	1.5457	25.15	0.77	0.050			
0.6898	44145.61	3.6070	3.6071	1.5217	25.04	0.66	0.050			
0.6913	44241.67	3.6060	3.6060	1.4980	24.95	0.57	0.050			
0.6928	44336.17	3.6050	3.6050	1.4752	24.86	0.48	0.050			
0.6942	44428.66	3.6040	3.6041	1.4530	24.78	0.40	0.050			
0.6956	44520.42	3.6030	3.6029	1.4338	24.70	0.32	0.050			
0.6970	44609.70	3.6020	3.6019	1.4119	24.61	0.23	0.050			
0.6984	44699.10	3.6010	3.6010	1.3934	24.53	0.15	0.050			
0.6998	44787.27	3.6000	3.6001	1.3773	24.46	0.08	0.050			
0.7012	44874.35	3.5990	3.5990	1.3619	24.39	0.01	0.050	0.346	0.449	
0.7025	44960.33	3.5980	3.5980	1.3469	24.31	-0.07	0.050			
0.7038	45045.87	3.5970	3.5970	1.3323	24.25	-0.13	0.050			
0.7052	45130.17	3.5960	3.5959	1.3174	24.18	-0.20	0.050			
0.7065	45213.75	3.5950	3.5950	1.3041	24.12	-0.26	0.050			
0.7078	45296.01	3.5940	3.5940	1.2911	24.05	-0.33	0.050			
0.7090	45377.98	3.5930	3.5930	1.2788	24.00	-0.38	0.050			
0.7103	45459.21	3.5920	3.5920	1.2669	23.93	-0.45	0.050			
0.7116	45539.63	3.5910	3.5910	1.2546	23.87	-0.51	0.050			
0.7128	45619.57	3.5900	3.5900	1.2441	23.81	-0.57	0.050			
0.7140	45698.99	3.5890	3.5890	1.2336	23.77	-0.61	0.050			
0.7153	45777.22	3.5880	3.5880	1.2235	23.72	-0.66	0.050			
0.7165	45855.10	3.5870	3.5870	1.2124	23.67	-0.71	0.050			
0.7177	45932.21	3.5860	3.5859	1.2019	23.64	-0.74	0.050			
0.7189	46008.54	3.5850	3.5850	1.1917	23.63	-0.75	0.050			
0.7201	46084.17	3.5840	3.5841	1.1818	23.61	-0.77	0.050			
0.7212	46159.57	3.5830	3.5830	1.1717	23.61	-0.77	0.050	0.390	0.531	
0.7224	46234.59	3.5820	3.5820	1.1616	23.62	-0.76	0.050			
0.7236	46309.05	3.5810	3.5810	1.1503	23.66	-0.72	0.050			
0.7247	46382.26	3.5800	3.5800	1.1382	23.69	-0.69	0.050			
0.7259	46454.69	3.5790	3.5790	1.1283	23.74	-0.64	0.050			
0.7270	46526.73	3.5780	3.5780	1.1184	23.82	-0.56	0.050			
0.7281	46597.87	3.5770	3.5770	1.1099	23.89	-0.49	0.050			
0.7292	46668.25	3.5760	3.5762	1.1000	23.98	-0.40	0.050			
0.7303	46737.84	3.5750	3.5750	1.0910	24.09	-0.29	0.050			
0.7314	46806.61	3.5740	3.5741	1.0835	24.22	-0.16	0.050			
0.7324	46875.14	3.5730	3.5731	1.0773	24.36	-0.02	0.050			
0.7335	46943.35	3.5720	3.5720	1.0699	24.50	0.12	0.050			
0.7345	47010.80	3.5710	3.5708	1.0650	24.66	0.28	0.050			
0.7356	47077.78	3.5700	3.5700	1.0601	24.81	0.43	0.050			
0.7366	47143.97	3.5690	3.5691	1.0584	24.98	0.60	0.050			
0.7377	47209.90	3.5680	3.5680	1.0576	25.14	0.76	0.050			
0.7387	47276.60	3.5670	3.5671	1.0582	25.31	0.93	0.050			
0.7397	47342.88	3.5660	3.5661	1.0602	25.47	1.09	0.050			
0.7408	47410.25	3.5650	3.5649	1.0649	25.63	1.25	0.050			
0.7418	47477.58	3.5640	3.5641	1.0691	25.78	1.40	0.050	0.367	0.613	
0.7429	47545.96	3.5630	3.5630	1.0744	25.92	1.54	0.050			
0.7440	47615.23	3.5620	3.5620	1.0801	26.03	1.65	0.050			
0.7451	47684.48	3.5610	3.5610	1.0851	26.11	1.73	0.050			
0.7462	47753.84	3.5600	3.5598	1.0908	26.13	1.75	0.050			
0.7472	47823.53	3.5590	3.5590	1.0966	26.09	1.71	0.050			
0.7483	47893.75	3.5580	3.5580	1.1048	26.03	1.65	0.050			
0.7494	47964.55	3.5570	3.5570	1.1121	25.97	1.59	0.050			
0.7506	48035.87	3.5560	3.5560	1.1211	25.89	1.51	0.050			
0.7517	48107.76	3.5550	3.5552	1.1299	25.84	1.46	0.050			
0.7528	48179.82	3.5540	3.5541	1.1394	25.77	1.39	0.050			
0.7539	48252.45	3.5530	3.5530	1.1506	25.70	1.32	0.050			
0.7551	48326.02	3.5520	3.5520	1.1618	25.62	1.24	0.050			
0.7562	48399.79	3.5510	3.5509	1.1731	25.57	1.19	0.050			
0.7574	48473.91	3.5500	3.5500	1.1860	25.49	1.11	0.050			
0.7586	48548.34	3.5490	3.5490	1.1995	25.42	1.04	0.050			
0.7598	48624.35	3.5480	3.5481	1.2152	25.36	0.98	0.050			
0.7610	48701.75	3.5470	3.5470	1.2337	25.27	0.89	0.050	0.358	0.438	
0.7622	48780.45	3.5460	3.5460	1.2524	25.20	0.82	0.050			
0.7634	48860.42	3.5450	3.5450	1.2727	25.14	0.76	0.050			
0.7647	48941.94	3.5440	3.5440	1.2941	25.05	0.67	0.050			
0.7660	49025.27	3.5430	3.5431	1.3163	24.98	0.60	0.050			
0.7673	49110.14	3.5420	3.5420	1.3395	24.91	0.53	0.050			
0.7687	49195.72	3.5410	3.5410	1.3631	24.83	0.45	0.050			
0.7701	49283.32	3.5400	3.5400	1.3868	24.75	0.37	0.050			
0.7714	49372.26	3.5390	3.5391	1.4131	24.68	0.30	0.050			
0.7729	49463.33	3.5380	3.5380	1.4380	24.59	0.21	0.050			
0.7743	49556.35	3.5370	3.5370	1.4640	24.51	0.13	0.050			
0.7758	49650.19	3.5360	3.5359	1.4914	24.43	0.05	0.050			
0.7773	49746.23	3.5350	3.5351	1.5187	24.36	-0.02	0.050			
0.7788	49843.96	3.5340	3.5340	1.5458	24.29	-0.09	0.050			
0.7804	49943.79	3.5330	3.5330	1.5729	24.22	-0.16	0.050			
0.7820	50045.87	3.5320	3.5320	1.5997	24.15	-0.23	0.050	0.139	0.492	
0.7836	50149.73	3.5310	3.5310	1.6240	24.08	-0.30	0.050			
0.7852	50255.58	3.5300	3.5299	1.6466	23.99	-0.39	0.050			
0.7869	50363.42	3.5290	3.5290	1.6684	23.92	-0.46	0.050			
0.7886	50472.03	3.5280	3.5279	1.6893	23.85	-0.53	0.050			
0.7904	50582.53	3.5270	3.5270	1.7069	23.80	-0.58	0.050			
0.7921	50694.37	3.5260	3.5260	1.7222	23.73	-0.65	0.050			
0.7939	50806.85	3.5250	3.5250	1.7378	23.69	-0.69	0.050			
0.7956	50920.12	3.5240	3.5240	1.7489	23.68	-0.70	0.050			
0.7974	51034.43	3.5230	3.5230	1.7592	23.71	-0.67	0.050			
0.7992	51148.56	3.5220	3.5220	1.7652	23.76	-0.62	0.050			
0.8010	51262.85	3.5210	3.5210	1.7704	23.86	-0.52	0.050	0.195	0.511	
0.8028	51377.45	3.5200	3.5200	1.7738	23.98	-0.40	0.050			
0.8046	51492.06	3.5190	3.5190	1.7771	24.13	-0.25	0.050			
0.8063	51605.76	3.5180	3.5180	1.7800	24.33	-0.05	0.050			
0.8081	51719.36	3.5170	3.5170	1.7810	24.56	0.18	0.050			
0.8099	51832.63	3.5160	3.5160	1.7808	24.79	0.41	0.050			
0.8117	51946.75	3.5150	3.5151	1.7823	25.06	0.68	0.050			
0.8135	52060.86	3.5140	3.5140	1.7824	25.32	0.94	0.050			
0.8152	52175.65	3.5130	3.5131	1.7809	25.57	1.19	0.050			
0.8170	52290.52	3.5120	3.5119	1.7781	25.79	1.41	0.050			
0.8188	52406.23	3.5110	3.5110	1.7719	25.95	1.57	0.050			
0.8207	52521.89	3.5100	3.5099	1.7635	26.02	1.64	0.050	0.273	0.532	
0.8224	52636.22	3.5090	3.5090	1.7526	25.92	1.54	0.050			
0.8242	52749.98	3.5080	3.5081	1.7381	25.82	1.44	0.050			
0.8260	52863.56	3.5070	3.5071	1.7200	25.70	1.32	0.050			
0.8278	52976.13	3.5060	3.5060	1.6993	25.59	1.21	0.050			
0.8295	53086.54	3.5050	3.5051	1.6760	25.48	1.10	0.050			
0.8312	53196.00	3.5040	3.5041	1.6506	25.36	0.98	0.050			
0.8329	53303.19	3.5030	3.5031	1.6221	25.24	0.86	0.050			
0.8345	53407.87	3.5020	3.5020	1.5881	25.14	0.76	0.050			
0.8361	53509.94	3.5010	3.5011	1.5515	25.02	0.64	0.050			
0.8376	53609.30	3.5000	3.4999	1.5138	24.93	0.55	0.050			
0.8391	53705.39	3.4990	3.4991	1.4722	24.83	0.45	0.050			
0.8406	53799.02	3.4980	3.4980	1.4278	24.76	0.38	0.050			
0.8420	53889.83	3.4970	3.4969	1.3851	24.67	0.29	0.050			
0.8434	53977.66	3.4960	3.4960	1.3392	24.59	0.21	0.050			
0.8447	54062.81	3.4950	3.4951	1.2916	24.51	0.13	0.050			
0.8460	54144.63	3.4940	3.4941	1.2449	24.43	0.05	0.050			
0.8472	54223.76	3.4930	3.4932	1.1972	24.36	-0.02	0.050			
0.8484	54299.58	3.4920	3.4920	1.1486	24.30	-0.08	0.050			
0.8496	54372.25	3.4910	3.4910	1.0999	24.25	-0.13	0.050			
0.8506	54441.26	3.4900	3.4900	1.0513	24.19	-0.19	0.050			
0.8517	54507.09	3.4890	3.4892	1.0028	24.13	-0.25	0.050			
0.8526	54569.54	3.4880	3.4879	0.9553	24.08	-0.30	0.050			
0.8536	54628.40	3.4870	3.4870	0.9090	24.04	-0.34	0.050			
0.8544	54682.98	3.4860	3.4860	0.8625	24.01	-0.37	0.050			
0.8552	54735.99	3.4850	3.4850	0.8150	23.97	-0.41	0.050			
0.8560	54784.95	3.4840	3.4841	0.7732	23.93	-0.45	0.050			
0.8567	54830.63	3.4830	3.4830	0.7337	23.90	-0.48	0.050			
0.8574	54875.10	3.4820	3.4820	0.6925	23.86	-0.52	0.050			
0.8581	54915.47	3.4810	3.4809	0.6575	23.84	-0.54	0.050			
0.8587	54954.26	3.4800	3.4800	0.6269	23.82	-0.56	0.050			
0.8592	54991.60	3.4790	3.4790	0.5930	23.80	-0.58	0.050			
0.8598	55026.21	3.4780	3.4780	0.5663	23.79	-0.59	0.050			
0.8603	55059.68	3.4770	3.4770	0.5428	23.77	-0.61	0.050			
0.8608	55092.58	3.4760	3.4760	0.5172	23.75	-0.63	0.050			
0.8613	55122.37	3.4750	3.4750	0.4953	23.73	-0.65	0.050			
0.8618	55152.62	3.4740	3.4740	0.4742	23.73	-0.65	0.050	0.324	0.534	
0.8622	55180.66	3.4730	3.4730	0.4577	23.72	-0.66	0.050			
0.8626	55208.81	3.4720	3.4720	0.4403	23.72	-0.66	0.050			
0.8630	55234.95	3.4710	3.4710	0.4262	23.71	-0.67	0.050			
0.8635	55260.99	3.4700	3.4700	0.4111	23.70	-0.68	0.050			
0.8638	55285.51	3.4690	3.4690	0.3994	23.69	-0.69	0.050			
0.8642	55310.25	3.4680	3.4680	0.3873	23.69	-0.69	0.050			
0.8646	55333.59	3.4670	3.4671	0.3775	23.69	-0.69	0.050			
0.8650	55356.89	3.4660	3.4660	0.3669	23.69	-0.69	0.050			
0.8653	55379.59	3.4650	3.4650	0.3600	23.69	-0.69	0.050			
0.8657	55402.00	3.4640	3.4639	0.3512	23.69	-0.69	0.050			
0.8660	55423.10	3.4630	3.4630	0.3437	23.69	-0.69	0.050			
0.8663	55444.89	3.4620	3.4620	0.3373	23.69	-0.69	0.050			
0.8666	55465.53	3.4610	3.4611	0.3305	23.70	-0.68	0.050			
0.8670	55486.29	3.4600	3.4599	0.3244	23.70	-0.68	0.050			
0.8673	55506.50	3.4590	3.4591	0.3203	23.71	-0.67	0.050			
0.8676	55526.43	3.4580	3.4580	0.3145	23.71	-0.67	0.050			
0.8679	55546.18	3.4570	3.4570	0.3094	23.72	-0.66	0.050			
0.8682	55565.85	3.4560	3.4560	0.3051	23.72	-0.66	0.050			
0.8685	55585.10	3.4550	3.4550	0.3005	23.74	-0.64	0.050			
0.8688	55603.98	3.4540	3.4539	0.2970	23.75	-0.63	0.050			
0.8691	55622.73	3.4530	3.4531	0.2928	23.75	-0.63	0.050			
0.8694	55641.06	3.4520	3.4521	0.2900	23.76	-0.62	0.050			
0.8697	55659.23	3.4510	3.4511	0.2859	23.77	-0.61	0.050			
0.8700	55677.43	3.4500	3.4500	0.2827	23.78	-0.60	0.050			
0.8702	55695.19	3.4490	3.4489	0.2799	23.79	-0.59	0.050			
0.8705	55713.01	3.4480	3.4480	0.2770	23.81	-0.57	0.050			
0.8708	55730.23	3.4470	3.4471	0.2742	23.82	-0.56	0.050			
0.8711	55747.70	3.4460	3.4461	0.2717	23.84	-0.54	0.050			
0.8713	55764.83	3.4450	3.4449	0.2689	23.85	-0.53	0.050			
0.8716	55781.86	3.4440	3.4439	0.2670	23.87	-0.51	0.050			
0.8719	55798.63	3.4430	3.4430	0.2643	23.89	-0.49	0.050			
0.8721	55815.46	3.4420	3.4420	0.2624	23.91	-0.47	0.050			
0.8724	55832.05	3.4410	3.4410	0.2601	23.93	-0.45	0.050			
0.8726	55848.64	3.4400	3.4400	0.2583	23.95	-0.43	0.050			
0.8729	55865.17	3.4390	3.4390	0.2567	23.97	-0.41	0.050			
0.8731	55881.53	3.4380	3.4379	0.2548	23.99	-0.39	0.050			
0.8734	55897.70	3.4370	3.4370	0.2522	24.01	-0.37	0.050			
0.8737	55913.79	3.4360	3.4360	0.2505	24.03	-0.35	0.050			
0.8739	55929.76	3.4350	3.4350	0.2487	24.05	-0.33	0.050			
0.8742	55945.83	3.4340	3.4340	0.2476	24.07	-0.31	0.050			
0.8744	55961.61	3.4330	3.4330	0.2456	24.10	-0.28	0.050			
0.8746	55977.13	3.4320	3.4320	0.2434	24.12	-0.26	0.050			
0.8749	55992.51	3.4310	3.4310	0.2420	24.15	-0.23	0.050			
0.8751	56007.95	3.4300	3.4300	0.2404	24.18	-0.20	0.050			
0.8754	56023.09	3.4290	3.4291	0.2388	24.21	-0.17	0.050			
0.8756	56038.33	3.4280	3.4280	0.2373	24.24	-0.14	0.050			
0.8758	56053.45	3.4270	3.4270	0.2358	24.26	-0.12	0.050			
0.8761	56068.40	3.4260	3.4261	0.2345	24.29	-0.09	0.050			
0.8763	56083.36	3.4250	3.4249	0.2332	24.31	-0.07	0.050			
0.8765	56098.08	3.4240	3.4240	0.2315	24.33	-0.05	0.050			
0.8768	56112.87	3.4230	3.4229	0.2302	24.36	-0.02	0.050			
0.8770	56127.48	3.4220	3.4220	0.2288	24.39	0.01	0.050			
0.8772	56142.08	3.4210	3.4210	0.2276	24.42	0.04	0.050			
0.8774	56156.62	3.4200	3.4199	0.2264	24.45	0.07	0.050			
0.8777	56171.05	3.4190	3.4190	0.2252	24.48	0.10	0.050			
0.8779	56185.42	3.4180	3.4181	0.2240	24.51	0.13	0.050			
0.8781	56199.74	3.4170	3.4170	0.2229	24.53	0.15	0.050			
0.8783	56213.96	3.4160	3.4160	0.2217	24.55	0.17	0.050			
0.8786	56228.11	3.4150	3.4151	0.2205	24.58	0.20	0.050			
0.8788	56242.28	3.4140	3.4140	0.2197	24.61	0.23	0.050			
0.8790	56256.31	3.4130	3.4131	0.2185	24.64	0.26	0.050			
0.8792	56270.25	3.4120	3.4119	0.2172	24.66	0.28	0.050			
0.8794	56284.05	3.4110	3.4109	0.2159	24.70	0.32	0.050			
0.8797	56297.80	3.4100	3.4101	0.2148	24.73	0.35	0.050			
0.8799	56311.43	3.4090	3.4090	0.2135	24.75	0.37	0.050			
0.8801	56325.07	3.4080	3.4080	0.2124	24.78	0.40	0.050			
0.8803	56338.62	3.4070	3.4070	0.2113	24.81	0.43	0.050			
0.8805	56352.11	3.4060	3.4060	0.2102	24.84	0.46	0.050			
0.8807	56365.45	3.4050	3.4049	0.2093	24.87	0.49	0.050			
0.8809	56378.81	3.4040	3.4040	0.2083	24.90	0.52	0.050			
0.8811	56392.05	3.4030	3.4030	0.2072	24.93	0.55	0.050			
0.8813	56405.25	3.4020	3.4020	0.2063	24.96	0.58	0.050			
0.8815	56418.43	3.4010	3.4008	0.2054	24.98	0.60	0.050	0.241	0.614	
0.8817	56431.53	3.4000	3.4000	0.2044	25.01	0.63	0.050			
0.8819	56444.57	3.3990	3.3990	0.2035	25.04	0.66	0.050			
0.8821	56457.56	3.3980	3.3980	0.2026	25.07	0.69	0.050			
0.8824	56470.46	3.3970	3.3970	0.2016	25.09	0.71	0.050			
0.8826	56483.33	3.3960	3.3959	0.2007	25.12	0.74	0.050			
0.8828	56496.11	3.3950	3.3950	0.2000	25.15	0.77	0.050			
0.8830	56508.85	3.3940	3.3941	0.1991	25.18	0.80	0.050			
0.8831	56521.57	3.3930	3.3929	0.1983	25.21	0.83	0.050			
0.8833	56534.22	3.3920	3.3920	0.1976	25.22	0.84	0.050			
0.8835	56546.84	3.3910	3.3911	0.1968	25.25	0.87	0.050			
0.8837	56559.36	3.3900	3.3900	0.1960	25.29	0.91	0.050			
0.8839	56571.93	3.3890	3.3890	0.1951	25.31	0.93	0.050			
0.8841	56584.41	3.3880	3.3881	0.1943	25.33	0.95	0.050			
0.8843	56596.82	3.3870	3.3870	0.1935	25.36	0.98	0.050			
0.8845	56609.18	3.3860	3.3860	0.1927	25.38	1.00	0.050			
0.8847	56621.50	3.3850	3.3850	0.1920	25.41	1.03	0.050			
0.8849	56633.77	3.3840	3.3840	0.1912	25.43	1.05	0.050			
0.8851	56645.98	3.3830	3.3830	0.1904	25.46	1.08	0.050			
0.8853	56657.98	3.3820	3.3820	0.1898	25.48	1.10	0.050			
0.8855	56670.11	3.3810	3.3811	0.1892	25.51	1.13	0.050			
0.8857	56682.20	3.3800	3.3800	0.1885	25.52	1.14	0.050			
0.8858	56694.30	3.3790	3.3790	0.1877	25.54	1.16	0.050			
0.8860	56706.29	3.3780	3.3780	0.1870	25.57	1.19	0.050			
0.8862	56718.24	3.3770	3.3770	0.1863	25.59	1.21	0.050			
0.8864	56730.14	3.3760	3.3759	0.1856	25.62	1.24	0.050			
0.8866	56741.94	3.3750	3.3750	0.1850	25.64	1.26	0.050			
0.8868	56753.76	3.3740	3.3740	0.1844	25.65	1.27	0.050			
0.8870	56765.54	3.3730	3.3730	0.1837	25.67	1.29	0.050			
0.8871	56777.25	3.3720	3.3720	0.1829	25.69	1.31	0.050			
0.8873	56788.94	3.3710	3.3710	0.1823	25.71	1.33	0.050			
0.8875	56800.58	3.3700	3.3700	0.1817	25.73	1.35	0.050			
0.8877	56812.20	3.3690	3.3690	0.1811	25.74	1.36	0.050			
0.8879	56823.71	3.3680	3.3681	0.1806	25.76	1.38	0.050			
0.8881	56835.25	3.3670	3.3671	0.1800	25.78	1.40	0.050			
0.8882	56846.76	3.3660	3.3659	0.1794	25.79	1.41	0.050			
0.8884	56858.31	3.3650	3.3649	0.1788	25.81	1.43	0.050			
0.8886	56869.73	3.3640	3.3640	0.1782	25.82	1.44	0.050			
0.8888	56881.11	3.3630	3.3630	0.1775	25.84	1.46	0.050			
0.8889	56892.43	3.3620	3.3620	0.1769	25.85	1.47	0.050			
0.8891	56903.77	3.3610	3.3611	0.1761	25.86	1.48	0.050			
0.8893	56915.02	3.3600	3.3599	0.1755	25.87	1.49	0.050			
0.8895	56926.17	3.3590	3.3589	0.1747	25.88	1.50	0.050			
0.8896	56937.33	3.3580	3.3580	0.1741	25.89	1.51	0.050			
0.8898	56948.44	3.3570	3.3571	0.1735	25.89	1.51	0.050			
0.8900	56959.52	3.3560	3.3560	0.1729	25.89	1.51	0.050			
0.8902	56970.69	3.3550	3.3550	0.1725	25.90	1.52	0.050			
0.8903	56981.71	3.3540	3.3541	0.1718	25.90	1.52	0.050			
0.8905	56992.68	3.3530	3.3531	0.1712	25.90	1.52	0.050			
0.8907	57003.56	3.3520	3.3520	0.1704	25.89	1.51	0.050			
0.8909	57014.45	3.3510	3.3509	0.1697	25.88	1.50	0.050			
0.8910	57025.24	3.3500	3.3500	0.1692	25.87	1.49	0.050			
0.8912	57036.05	3.3490	3.3490	0.1686	25.86	1.48	0.050			
0.8914	57046.82	3.3480	3.3480	0.1680	25.85	1.47	0.050			
0.8915	57057.55	3.3470	3.3470	0.1674	25.85	1.47	0.050			
0.8917	57068.26	3.3460	3.3460	0.1667	25.84	1.46	0.050			
0.8919	57078.83	3.3450	3.3450	0.1659	25.83	1.45	0.050			
0.8920	57089.43	3.3440	3.3440	0.1653	25.83	1.45	0.050			
0.8922	57100.00	3.3430	3.3430	0.1648	25.82	1.44	0.050			
0.8924	57110.58	3.3420	3.3420	0.1641	25.81	1.43	0.050			
0.8925	57121.13	3.3410	3.3410	0.1636	25.80	1.42	0.050			
0.8927	57131.58	3.3400	3.3400	0.1630	25.79	1.41	0.050			
0.8928	57141.98	3.3390	3.3390	0.1623	25.78	1.40	0.050			
0.8930	57152.35	3.3380	3.3380	0.1616	25.77	1.39	0.050			
0.8932	57162.71	3.3370	3.3370	0.1611	25.76	1.38	0.050			
0.8933	57172.99	3.3360	3.3360	0.1604	25.76	1.38	0.050			
0.8935	57183.24	3.3350	3.3350	0.1597	25.75	1.37	0.050			
0.8936	57193.44	3.3340	3.3340	0.1590	25.74	1.36	0.050			
0.8938	57203.58	3.3330	3.3330	0.1583	25.73	1.35	0.050			
0.8940	57213.68	3.3320	3.3320	0.1576	25.72	1.34	0.050			
0.8941	57223.75	3.3310	3.3311	0.1570	25.71	1.33	0.050			
0.8943	57233.73	3.3300	3.3301	0.1565	25.70	1.32	0.050			
0.8944	57243.72	3.3290	3.3290	0.1558	25.70	1.32	0.050			
0.8946	57253.68	3.3280	3.3279	0.1552	25.69	1.31	0.050			
0.8947	57263.59	3.3270	3.3270	0.1546	25.68	1.30	0.050			
0.8949	57273.37	3.3260	3.3260	0.1538	25.67	1.29	0.050			
0.8951	57283.26	3.3250	3.3250	0.1531	25.66	1.28	0.050			
0.8952	57293.04	3.3240	3.3240	0.1525	25.65	1.27	0.050			
0.8954	57302.77	3.3230	3.3230	0.1519	25.64	1.26	0.050			
0.8955	57312.49	3.3220	3.3220	0.1513	25.63	1.25	0.050			
0.8957	57322.15	3.3210	3.3210	0.1506	25.63	1.25	0.050			
0.8958	57331.77	3.3200	3.3200	0.1500	25.62	1.24	0.050			
0.8960	57341.35	3.3190	3.3190	0.1494	25.61	1.23	0.050			
0.8961	57350.91	3.3180	3.3181	0.1488	25.60	1.22	0.050			
0.8963	57360.39	3.3170	3.3171	0.1482	25.59	1.21	0.050			
0.8964	57369.86	3.3160	3.3160	0.1476	25.58	1.20	0.050			
0.8966	57379.28	3.3150	3.3150	0.1469	25.57	1.19	0.050			
0.8967	57388.66	3.3140	3.3140	0.1463	25.57	1.19	0.050			
0.8968	57398.00	3.3130	3.3129	0.1457	25.56	1.18	0.050			
0.8970	57407.22	3.3120	3.3119	0.1453	25.55	1.17	0.050			
0.8971	57416.51	3.3110	3.3110	0.1447	25.55	1.17	0.050			
0.8973	57425.72	3.3100	3.3101	0.1441	25.54	1.16	0.050			
0.8974	57434.93	3.3090	3.3090	0.1436	25.53	1.15	0.050			
0.8976	57444.10	3.3080	3.3080	0.1431	25.52	1.14	0.050			
0.8977	57453.24	3.3070	3.3070	0.1426	25.52	1.14	0.050			
0.8978	57462.35	3.3060	3.3060	0.1420	25.51	1.13	0.050			
0.8980	57471.33	3.3050	3.3050	0.1414	25.50	1.12	0.050			
0.8981	57480.36	3.3040	3.3040	0.1409	25.50	1.12	0.050			
0.8983	57489.42	3.3030	3.3030	0.1403	25.49	1.11	0.050			
0.8984	57498.38	3.3020	3.3020	0.1398	25.48	1.10	0.050			
0.8986	57507.37	3.3010	3.3010	0.1394	25.47	1.09	0.050			
0.8987	57516.28	3.3000	3.3000	0.1389	25.46	1.08	0.050			
0.8988	57525.13	3.2990	3.2991	0.1384	25.45	1.07	0.050			
0.8990	57533.97	3.2980	3.2980	0.1379	25.45	1.07	0.050			
0.8991	57542.78	3.2970	3.2970	0.1374	25.44	1.06	0.050			
0.8992	57551.55	3.2960	3.2960	0.1368	25.43	1.05	0.050			
0.8994	57560.29	3.2950	3.2950	0.1363	25.43	1.05	0.050			
0.8995	57569.01	3.2940	3.2940	0.1357	25.42	1.04	0.050			
0.8997	57577.68	3.2930	3.2930	0.1352	25.41	1.03	0.050			
0.8998	57586.34	3.2920	3.2920	0.1347	25.41	1.03	0.050			
0.8999	57594.94	3.2910	3.2910	0.1341	25.40	1.02	0.050			
0.9001	57603.51	3.2900	3.2900	0.1336	25.39	1.01	0.050			
0.9002	57612.00	3.2890	3.2890	0.1334	25.38	1.00	0.050			
0.9003	57620.74	3.2880	3.2880	0.1326	25.38	1.00	0.050			
0.9005	57629.20	3.2870	3.2870	0.1320	25.37	0.99	0.050			
0.9006	57637.63	3.2860	3.2860	0.1314	25.36	0.98	0.050			
0.9007	57646.02	3.2850	3.2850	0.1308	25.35	0.97	0.050			
0.9008	57654.37	3.2840	3.2840	0.1302	25.35	0.97	0.050			
0.9010	57662.78	3.2830	3.2830	0.1298	25.34	0.96	0.050			
0.9011	57671.07	3.2820	3.2819	0.1291	25.33	0.95	0.050			
0.9012	57679.24	3.2810	3.2809	0.1286	25.33	0.95	0.050			
0.9014	57687.46	3.2800	3.2799	0.1280	25.32	0.94	0.050			
0.9015	57695.69	3.2790	3.2789	0.1276	25.31	0.93	0.050			
0.9016	57703.83	3.2780	3.2780	0.1269	25.30	0.92	0.050	0.487	0.721	
0.9017	57711.93	3.2770	3.2770	0.1262	25.30	0.92	0.050			
0.9019	57719.84	3.2760	3.2760	0.1260	25.29	0.91	0.050			
0.9020	57727.89	3.2750	3.2750	0.1255	25.28	0.90	0.050			
0.9021	57735.77	3.2740	3.2740	0.1247	25.27	0.89	0.050			
0.9022	57743.74	3.2730	3.2730	0.1243	25.26	0.88	0.050			
0.9024	57751.68	3.2720	3.2720	0.1239	25.25	0.87	0.050			
0.9025	57759.56	3.2710	3.2709	0.1235	25.25	0.87	0.050			
0.9026	57767.45	3.2700	3.2699	0.1231	25.24	0.86	0.050			
0.9027	57775.12	3.2690	3.2690	0.1224	25.24	0.86	0.050			
0.9029	57782.90	3.2680	3.2681	0.1216	25.23	0.85	0.050			
0.9030	57790.67	3.2670	3.2670	0.1214	25.22	0.84	0.050			
0.9031	57798.44	3.2660	3.2659	0.1212	25.22	0.84	0.050			
0.9032	57806.32	3.2650	3.2650	0.1205	25.21	0.83	0.050			
0.9033	57814.02	3.2640	3.2640	0.1202	25.21	0.83	0.050			
0.9035	57821.70	3.2630	3.2630	0.1199	25.20	0.82	0.050			
0.9036	57829.37	3.2620	3.2621	0.1195	25.20	0.82	0.050			
0.9037	57837.30	3.2610	3.2610	0.1195	25.19	0.81	0.050			
0.9038	57844.85	3.2600	3.2600	0.1191	25.18	0.80	0.050			
0.9039	57852.46	3.2590	3.2590	0.1186	25.18	0.80	0.050			
0.9041	57860.04	3.2580	3.2580	0.1182	25.17	0.79	0.050			
0.9042	57867.59	3.2570	3.2571	0.1177	25.16	0.78	0.050			
0.9043	57875.10	3.2560	3.2561	0.1172	25.16	0.78	0.050			
0.9044	57882.59	3.2550	3.2550	0.1168	25.15	0.77	0.050			
0.9045	57890.05	3.2540	3.2539	0.1163	25.14	0.76	0.050			
0.9046	57897.47	3.2530	3.2530	0.1158	25.14	0.76	0.050			
0.9048	57904.87	3.2520	3.2520	0.1154	25.13	0.75	0.050			
0.9049	57912.17	3.2510	3.2510	0.1147	25.12	0.74	0.050			
0.9050	57919.50	3.2500	3.2500	0.1143	25.12	0.74	0.050			
0.9051	57926.80	3.2490	3.2489	0.1139	25.11	0.73	0.050			
0.9052	57934.11	3.2480	3.2479	0.1134	25.10	0.72	0.050			
0.9053	57941.35	3.2470	3.2470	0.1130	25.09	0.71	0.050			
0.9054	57948.57	3.2460	3.2460	0.1125	25.09	0.71	0.050			
0.9056	57955.79	3.2450	3.2450	0.1121	25.08	0.70	0.050			
0.9057	57962.95	3.2440	3.2440	0.1117	25.08	0.70	0.050			
0.9058	57970.01	3.2430	3.2431	0.1114	25.07	0.69	0.050			
0.9059	57977.12	3.2420	3.2420	0.1110	25.06	0.68	0.050			
0.9060	57984.21	3.2410	3.2409	0.1106	25.06	0.68	0.050			
0.9061	57991.27	3.2400	3.2400	0.1102	25.05	0.67	0.050			
0.9062	57998.31	3.2390	3.2391	0.1098	25.05	0.67	0.050			
0.9063	58005.33	3.2380	3.2380	0.1094	25.04	0.66	0.050			
0.9064	58012.28	3.2370	3.2370	0.1091	25.04	0.66	0.050			
0.9066	58019.25	3.2360	3.2359	0.1087	25.03	0.65	0.050			
0.9067	58026.20	3.2350	3.2349	0.1083	25.02	0.64	0.050			
0.9068	58033.03	3.2340	3.2340	0.1078	25.01	0.63	0.050			
0.9069	58039.91	3.2330	3.2330	0.1074	25.01	0.63	0.050			
0.9070	58046.78	3.2320	3.2320	0.1071	25.00	0.62	0.050			
0.9071	58053.70	3.2310	3.2310	0.1066	24.99	0.61	0.050			
0.9072	58060.51	3.2300	3.2300	0.1062	24.98	0.60	0.050			
0.9073	58067.29	3.2290	3.2290	0.1058	24.98	0.60	0.050			
0.9074	58074.12	3.2280	3.2280	0.1056	24.98	0.60	0.050			
0.9075	58080.86	3.2270	3.2270	0.1051	24.97	0.59	0.050			
0.9076	58087.57	3.2260	3.2260	0.1047	24.97	0.59	0.050			
0.9077	58094.26	3.2250	3.2251	0.1043	24.97	0.59	0.050			
0.9078	58100.89	3.2240	3.2241	0.1040	24.97	0.59	0.050			
0.9079	58107.58	3.2230	3.2230	0.1037	24.96	0.58	0.050			
0.9080	58114.20	3.2220	3.2220	0.1033	24.96	0.58	0.050			
0.9081	58120.80	3.2210	3.2210	0.1029	24.96	0.58	0.050			
0.9082	58127.37	3.2200	3.2200	0.1025	24.95	0.57	0.050			
0.9083	58133.92	3.2190	3.2191	0.1021	24.94	0.56	0.050			
0.9084	58140.45	3.2180	3.2181	0.1016	24.93	0.55	0.050			
0.9085	58146.90	3.2170	3.2171	0.1011	24.93	0.55	0.050			
0.9086	58153.36	3.2160	3.2160	0.1007	24.92	0.54	0.050			
0.9087	58159.80	3.2150	3.2150	0.1003	24.91	0.53	0.050			
0.9088	58166.20	3.2140	3.2139	0.0999	24.90	0.52	0.050			
0.9089	58172.58	3.2130	3.2129	0.0995	24.90	0.52	0.050			
0.9090	58178.96	3.2120	3.2120	0.0990	24.89	0.51	0.050			
0.9091	58185.30	3.2110	3.2110	0.0986	24.89	0.51	0.050			
0.9092	58191.60	3.2100	3.2100	0.0982	24.88	0.50	0.050			
0.9093	58197.87	3.2090	3.2090	0.0978	24.88	0.50	0.050			
0.9094	58204.11	3.2080	3.2080	0.0974	24.87	0.49	0.050			
0.9095	58210.33	3.2070	3.2070	0.0969	24.87	0.49	0.050			
0.9096	58216.52	3.2060	3.2060	0.0965	24.87	0.49	0.050			
0.9097	58222.63	3.2050	3.2049	0.0963	24.86	0.48	0.050			
0.9098	58228.78	3.2040	3.2040	0.0959	24.86	0.48	0.050			
0.9099	58234.90	3.2030	3.2030	0.0955	24.85	0.47	0.050			
0.9100	58241.01	3.2020	3.2020	0.0952	24.85	0.47	0.050			
0.9101	58247.08	3.2010	3.2010	0.0948	24.84	0.46	0.050			
0.9102	58253.14	3.2000	3.2001	0.0944	24.84	0.46	0.050			
0.9103	58259.17	3.1990	3.1990	0.0940	24.83	0.45	0.050			
0.9104	58265.01	3.1980	3.1980	0.0935	24.83	0.45	0.050			
0.9105	58271.02	3.1970	3.1969	0.0931	24.82	0.44	0.050			
0.9106	58276.98	3.1960	3.1958	0.0928	24.82	0.44	0.050			
0.9107	58282.91	3.1950	3.1950	0.0925	24.82	0.44	0.050			
0.9108	58288.82	3.1940	3.1940	0.0922	24.81	0.43	0.050			
0.9109	58294.71	3.1930	3.1930	0.0919	24.81	0.43	0.050			
0.9109	58300.57	3.1920	3.1920	0.0916	24.80	0.42	0.050			
0.9110	58306.48	3.1910	3.1910	0.0911	24.80	0.42	0.050			
0.9111	58312.30	3.1900	3.1901	0.0908	24.79	0.41	0.050			
0.9112	58318.10	3.1890	3.1891	0.0904	24.79	0.41	0.050			
0.9113	58323.88	3.1880	3.1880	0.0901	24.78	0.40	0.050			
0.9114	58329.63	3.1870	3.1869	0.0897	24.78	0.40	0.050			
0.9115	58335.36	3.1860	3.1860	0.0894	24.78	0.40	0.050			
0.9116	58341.07	3.1850	3.1851	0.0892	24.77	0.39	0.050			
0.9117	58346.76	3.1840	3.1840	0.0889	24.77	0.39	0.050			
0.9118	58352.44	3.1830	3.1830	0.0885	24.76	0.38	0.050			
0.9118	58358.10	3.1820	3.1820	0.0882	24.76	0.38	0.050			
0.9119	58363.73	3.1810	3.1810	0.0878	24.75	0.37	0.050			
0.9120	58369.34	3.1800	3.1800	0.0875	24.75	0.37	0.050			
0.9121	58374.93	3.1790	3.1790	0.0871	24.75	0.37	0.050			
0.9122	58380.45	3.1780	3.1780	0.0870	24.74	0.36	0.050			
0.9123	58385.92	3.1770	3.1770	0.0865	24.74	0.36	0.050			
0.9124	58391.45	3.1760	3.1760	0.0863	24.73	0.35	0.050			
0.9125	58396.96	3.1750	3.1750	0.0860	24.73	0.35	0.050			
0.9125	58402.46	3.1740	3.1740	0.0858	24.73	0.35	0.050			
0.9126	58407.94	3.1730	3.1730	0.0855	24.72	0.34	0.050			
0.9127	58413.47	3.1720	3.1720	0.0850	24.72	0.34	0.050			
0.9128	58418.92	3.1710	3.1710	0.0848	24.71	0.33	0.050			
0.9129	58424.33	3.1700	3.1700	0.0844	24.71	0.33	0.050			
0.9130	58429.73	3.1690	3.1690	0.0841	24.71	0.33	0.050			
0.9130	58435.10	3.1680	3.1679	0.0838	24.70	0.32	0.050			
0.9131	58440.46	3.1670	3.1671	0.0835	24.70	0.32	0.050			
0.9132	58445.79	3.1660	3.1661	0.0832	24.69	0.31	0.050			
0.9133	58451.17	3.1650	3.1651	0.0830	24.69	0.31	0.050			
0.9134	58456.47	3.1640	3.1641	0.0826	24.69	0.31	0.050			
0.9135	58461.75	3.1630	3.1630	0.0823	24.68	0.30	0.050			
0.9135	58467.00	3.1620	3.1620	0.0819	24.68	0.30	0.050			
0.9136	58472.23	3.1610	3.1610	0.0815	24.67	0.29	0.050			
0.9137	58477.44	3.1600	3.1600	0.0812	24.67	0.29	0.050			
0.9138	58482.62	3.1590	3.1590	0.0808	24.67	0.29	0.050			
0.9139	58487.69	3.1580	3.1579	0.0806	24.66	0.28	0.050			
0.9140	58492.83	3.1570	3.1570	0.0802	24.66	0.28	0.050			
0.9140	58497.96	3.1560	3.1560	0.0799	24.65	0.27	0.050			
0.9141	58503.07	3.1550	3.1550	0.0796	24.65	0.27	0.050			
0.9142	58508.15	3.1540	3.1540	0.0793	24.65	0.27	0.050			
0.9143	58513.22	3.1530	3.1531	0.0790	24.64	0.26	0.050			
0.9143	58518.14	3.1520	3.1521	0.0786	24.64	0.26	0.050			
0.9144	58523.16	3.1510	3.1510	0.0783	24.64	0.26	0.050			
0.9145	58528.23	3.1500	3.1500	0.0780	24.63	0.25	0.050			
0.9146	58533.21	3.1490	3.1490	0.0777	24.63	0.25	0.050			
0.9147	58538.17	3.1480	3.1480	0.0774	24.62	0.24	0.050			
0.9147	58543.12	3.1470	3.1469	0.0771	24.62	0.24	0.050			
0.9148	58548.05	3.1460	3.1460	0.0769	24.62	0.24	0.050			
0.9149	58553.00	3.1450	3.1450	0.0767	24.61	0.23	0.050			
0.9150	58557.90	3.1440	3.1440	0.0763	24.61	0.23	0.050			
0.9150	58562.74	3.1430	3.1430	0.0761	24.61	0.23	0.050			
0.9151	58567.60	3.1420	3.1420	0.0758	24.60	0.22	0.050			
0.9152	58572.45	3.1410	3.1410	0.0755	24.60	0.22	0.050			
0.9153	58577.27	3.1400	3.1400	0.0753	24.59	0.21	0.050			
0.9153	58582.08	3.1390	3.1390	0.0750	24.59	0.21	0.050			
0.9154	58586.88	3.1380	3.1380	0.0747	24.59	0.21	0.050			
0.9155	58591.65	3.1370	3.1370	0.0744	24.58	0.20	0.050			
0.9156	58596.40	3.1360	3.1359	0.0741	24.58	0.20	0.050			
0.9156	58601.13	3.1350	3.1350	0.0739	24.58	0.20	0.050			
0.9157	58605.85	3.1340	3.1341	0.0736	24.57	0.19	0.050			
0.9158	58610.55	3.1330	3.1330	0.0733	24.57	0.19	0.050			
0.9159	58615.23	3.1320	3.1320	0.0730	24.57	0.19	0.050			
0.9159	58619.90	3.1310	3.1310	0.0727	24.56	0.18	0.050			
0.9160	58624.50	3.1300	3.1300	0.0724	24.56	0.18	0.050			
0.9161	58629.12	3.1290	3.1290	0.0721	24.56	0.18	0.050			
0.9162	58633.73	3.1280	3.1280	0.0719	24.55	0.17	0.050			
0.9162	58638.36	3.1270	3.1271	0.0716	24.55	0.17	0.050			
0.9163	58642.93	3.1260	3.1261	0.0713	24.55	0.17	0.050			
0.9164	58647.48	3.1250	3.1250	0.0710	24.54	0.16	0.050			
0.9164	58652.02	3.1240	3.1240	0.0707	24.54	0.16	0.050			
0.9165	58656.58	3.1230	3.1230	0.0705	24.54	0.16	0.050			
0.9166	58661.09	3.1220	3.1220	0.0702	24.54	0.16	0.050			
0.9166	58665.57	3.1210	3.1210	0.0699	24.53	0.15	0.050			
0.9167	58670.04	3.1200	3.1200	0.0696	24.53	0.15	0.050			
0.9168	58674.44	3.1190	3.1190	0.0694	24.53	0.15	0.050			
0.9169	58678.87	3.1180	3.1180	0.0692	24.53	0.15	0.050			
0.9169	58683.29	3.1170	3.1170	0.0689	24.53	0.15	0.050			
0.9170	58687.69	3.1160	3.1160	0.0686	24.53	0.15	0.050			
0.9171	58692.03	3.1150	3.1150	0.0683	24.52	0.14	0.050			
0.9171	58696.40	3.1140	3.1140	0.0680	24.52	0.14	0.050			
0.9172	58700.74	3.1130	3.1130	0.0678	24.52	0.14	0.050			
0.9173	58705.07	3.1120	3.1120	0.0675	24.52	0.14	0.050			
0.9173	58709.38	3.1110	3.1110	0.0672	24.51	0.13	0.050			
0.9174	58713.67	3.1100	3.1100	0.0670	24.51	0.13	0.050			
0.9175	58717.95	3.1090	3.1090	0.0668	24.51	0.13	0.050			
0.9175	58722.21	3.1080	3.1080	0.0665	24.50	0.12	0.050			
0.9176	58726.44	3.1070	3.1070	0.0662	24.50	0.12	0.050			
0.9177	58730.67	3.1060	3.1060	0.0660	24.49	0.11	0.050			
0.9177	58734.89	3.1050	3.1050	0.0657	24.49	0.11	0.050			
0.9178	58739.09	3.1040	3.1040	0.0655	24.49	0.11	0.050			
0.9179	58743.27	3.1030	3.1030	0.0652	24.48	0.10	0.050			
0.9179	58747.44	3.1020	3.1021	0.0650	24.48	0.10	0.050			
0.9180	58751.61	3.1010	3.1010	0.0647	24.47	0.09	0.050			
0.9181	58755.75	3.1000	3.0999	0.0644	24.47	0.09	0.050			
0.9181	58759.88	3.0990	3.0990	0.0642	24.47	0.09	0.050			
0.9182	58763.99	3.0980	3.0981	0.0640	24.47	0.09	0.050			
0.9183	58768.07	3.0970	3.0970	0.0637	24.46	0.08	0.050			
0.9183	58772.14	3.0960	3.0960	0.0634	24.46	0.08	0.050			
0.9184	58776.19	3.0950	3.0950	0.0632	24.46	0.08	0.050			
0.9184	58780.23	3.0940	3.0940	0.0629	24.46	0.08	0.050			
0.9185	58784.25	3.0930	3.0930	0.0626	24.45	0.07	0.050			
0.9186	58788.20	3.0920	3.0920	0.0625	24.45	0.07	0.050			
0.9186	58792.19	3.0910	3.0911	0.0623	24.45	0.07	0.050			
0.9187	58796.17	3.0900	3.0901	0.0620	24.45	0.07	0.050			
0.9188	58800.10	3.0890	3.0890	0.0617	24.45	0.07	0.050			
0.9188	58804.04	3.0880	3.0880	0.0615	24.44	0.06	0.050			
0.9189	58807.97	3.0870	3.0869	0.0613	24.44	0.06	0.050			
0.9189	58811.88	3.0860	3.0859	0.0611	24.44	0.06	0.050			
0.9190	58815.78	3.0850	3.0850	0.0608	24.44	0.06	0.050			
0.9191	58819.67	3.0840	3.0840	0.0606	24.44	0.06	0.050			
0.9191	58823.54	3.0830	3.0830	0.0604	24.43	0.05	0.050			
0.9192	58827.44	3.0820	3.0820	0.0600	24.43	0.05	0.050			
0.9192	58831.28	3.0810	3.0810	0.0598	24.43	0.05	0.050			
0.9193	58835.10	3.0800	3.0800	0.0595	24.43	0.05	0.050			
0.9194	58838.90	3.0790	3.0790	0.0593	24.43	0.05	0.050			
0.9194	58842.69	3.0780	3.0780	0.0590	24.43	0.05	0.050			
0.9195	58846.46	3.0770	3.0770	0.0588	24.43	0.05	0.050			
0.9195	58850.21	3.0760	3.0760	0.0585	24.42	0.04	0.050			
0.9196	58853.95	3.0750	3.0751	0.0583	24.42	0.04	0.050			
0.9197	58857.67	3.0740	3.0741	0.0580	24.42	0.04	0.050			
0.9197	58861.41	3.0730	3.0731	0.0577	24.42	0.04	0.050			
0.9198	58865.14	3.0720	3.0720	0.0576	24.42	0.04	0.050			
0.9198	58868.82	3.0710	3.0710	0.0573	24.42	0.04	0.050			
0.9199	58872.48	3.0700	3.0700	0.0570	24.41	0.03	0.050			
0.9199	58876.12	3.0690	3.0690	0.0567	24.41	0.03	0.050			
0.9200	58879.74	3.0680	3.0680	0.0564	24.41	0.03	0.050			
0.9201	58883.34	3.0670	3.0670	0.0561	24.41	0.03	0.050			
0.9201	58886.92	3.0660	3.0660	0.0558	24.41	0.03	0.050			
0.9202	58890.49	3.0650	3.0650	0.0556	24.40	0.02	0.050			
0.9202	58894.03	3.0640	3.0640	0.0553	24.40	0.02	0.050			
0.9203	58897.89	3.0630	3.0629	0.0540	24.40	0.02	0.050			
0.9203	58901.48	3.0620	3.0619	0.0542	24.40	0.02	0.050			
0.9204	58904.93	3.0610	3.0609	0.0537	24.40	0.02	0.050			
0.9204	58908.35	3.0600	3.0599	0.0532	24.39	0.01	0.050			
0.9205	58911.74	3.0590	3.0589	0.0527	24.39	0.01	0.050			
0.9205	58915.10	3.0580	3.0580	0.0522	24.39	0.01	0.050			
0.9206	58918.42	3.0570	3.0570	0.0517	24.39	0.01	0.050			
0.9207	58921.71	3.0560	3.0561	0.0512	24.39	0.01	0.050			
0.9207	58924.97	3.0550	3.0551	0.0507	24.39	0.01	0.050			
0.9208	58928.20	3.0540	3.0541	0.0501	24.39	0.01	0.050			
0.9208	58931.79	3.0530	3.0531	0.0502	24.39	0.01	0.050			
0.9209	58934.98	3.0520	3.0521	0.0496	24.39	0.01	0.050			
0.9209	58938.13	3.0510	3.0511	0.0489	24.39	0.01	0.050			
0.9210	58941.24	3.0500	3.0502	0.0483	24.39	0.01	0.050			
0.9210	58944.31	3.0490	3.0492	0.0476	24.38	0.00	0.050			
0.9211	58947.33	3.0480	3.0482	0.0470	24.38	0.00	0.050			
0.9211	58950.32	3.0470	3.0473	0.0463	24.38	0.00	0.050			
0.9211	58953.26	3.0460	3.0464	0.0457	24.38	0.00	0.050			
0.9212	58956.16	3.0450	3.0454	0.0450	24.38	0.00	0.050			
0.9212	58959.02	3.0440	3.0445	0.0444	24.38	0.00	0.050			
0.9213	58961.84	3.0430	3.0435	0.0437	24.38	0.00	0.050			
0.9213	58964.62	3.0420	3.0426	0.0431	24.38	0.00	0.050			
0.9214	58967.35	3.0410	3.0416	0.0424	24.38	0.00	0.050			
0.9214	58970.04	3.0400	3.0405	0.0417	24.38	0.00	0.050			
0.9214	58972.70	3.0390	3.0396	0.0411	24.38	-0.00	0.050			
0.9215	58975.30	3.0380	3.0385	0.0404	24.38	-0.00	0.050			
