Ah_balance (normalized)	Ah_balance (mAh)	Voltage - fit (V)	Voltage -  interpolate (V)	dQ/dV (1/V)	Temperature (°C)	Temperature - diff (°C)	Current (C)	R_DC 0ms (mOhm)	R_DC 50ms (mOhm)	R_DC 50 ms PEC (mOhm)
-0.0047	-298.94	4.1990	4.1990	0.8610	24.81	0.36	0.050			
-0.0038	-243.78	4.1980	4.1980	0.8698	24.77	0.32	0.050			
-0.0029	-188.04	4.1970	4.1970	0.8705	24.74	0.29	0.050			
-0.0021	-132.49	4.1960	4.1961	0.8681	24.69	0.24	0.050	0.134	0.464	
-0.0012	-77.05	4.1950	4.1949	0.8665	24.65	0.20	0.050			
-0.0003	-21.80	4.1940	4.1941	0.8651	24.62	0.17	0.050			
0.0005	33.51	4.1930	4.1929	0.8642	24.58	0.13	0.050			
0.0014	88.60	4.1920	4.1920	0.8637	24.54	0.09	0.050			
0.0022	143.91	4.1910	4.1910	0.8631	24.50	0.05	0.050			
0.0031	198.77	4.1900	4.1900	0.8637	24.46	0.01	0.050			
0.0040	253.98	4.1890	4.1891	0.8639	24.41	-0.04	0.050			
0.0048	309.12	4.1880	4.1880	0.8637	24.36	-0.09	0.050			
0.0057	364.44	4.1870	4.1869	0.8632	24.32	-0.13	0.050			
0.0066	419.52	4.1860	4.1860	0.8632	24.26	-0.19	0.050			
0.0074	475.14	4.1850	4.1850	0.8636	24.21	-0.24	0.050			
0.0083	530.52	4.1840	4.1839	0.8630	24.17	-0.28	0.050			
0.0092	585.86	4.1830	4.1829	0.8630	24.11	-0.34	0.050			
0.0100	640.96	4.1820	4.1819	0.8620	24.06	-0.39	0.050			
0.0109	696.06	4.1810	4.1811	0.8619	24.01	-0.44	0.050			
0.0117	751.05	4.1800	4.1800	0.8615	23.96	-0.49	0.050			
0.0126	806.69	4.1790	4.1790	0.8610	23.92	-0.53	0.050			
0.0135	862.29	4.1780	4.1780	0.8613	23.88	-0.57	0.050			
0.0143	917.53	4.1770	4.1769	0.8601	23.84	-0.61	0.050			
0.0152	972.51	4.1760	4.1761	0.8586	23.79	-0.66	0.050			
0.0161	1027.33	4.1750	4.1750	0.8572	23.75	-0.70	0.050			
0.0169	1082.14	4.1740	4.1739	0.8562	23.72	-0.73	0.050			
0.0178	1136.88	4.1730	4.1730	0.8544	23.69	-0.76	0.050	0.119	0.451	
0.0186	1191.57	4.1720	4.1720	0.8526	23.66	-0.79	0.050			
0.0195	1246.20	4.1710	4.1710	0.8514	23.63	-0.82	0.050			
0.0203	1300.68	4.1700	4.1701	0.8483	23.61	-0.84	0.050			
0.0212	1355.19	4.1690	4.1689	0.8466	23.59	-0.86	0.050			
0.0220	1409.62	4.1680	4.1680	0.8440	23.59	-0.86	0.050			
0.0229	1463.47	4.1670	4.1670	0.8433	23.59	-0.86	0.050			
0.0237	1517.36	4.1660	4.1660	0.8416	23.60	-0.85	0.050			
0.0245	1571.00	4.1650	4.1650	0.8396	23.63	-0.82	0.050			
0.0254	1624.60	4.1640	4.1641	0.8378	23.65	-0.80	0.050			
0.0262	1678.02	4.1630	4.1630	0.8363	23.68	-0.77	0.050			
0.0271	1731.21	4.1620	4.1620	0.8345	23.73	-0.72	0.050			
0.0279	1784.31	4.1610	4.1611	0.8337	23.78	-0.67	0.050			
0.0287	1837.55	4.1600	4.1600	0.8324	23.84	-0.61	0.050			
0.0295	1890.70	4.1590	4.1590	0.8323	23.90	-0.55	0.050			
0.0304	1943.51	4.1580	4.1579	0.8324	23.98	-0.47	0.050			
0.0312	1996.49	4.1570	4.1570	0.8324	24.06	-0.39	0.050			
0.0320	2049.47	4.1560	4.1560	0.8319	24.15	-0.30	0.050			
0.0329	2102.51	4.1550	4.1551	0.8321	24.26	-0.19	0.050			
0.0337	2155.68	4.1540	4.1540	0.8329	24.37	-0.08	0.050			
0.0345	2209.01	4.1530	4.1530	0.8339	24.49	0.04	0.050			
0.0353	2262.25	4.1520	4.1520	0.8362	24.62	0.17	0.050			
0.0362	2315.45	4.1510	4.1510	0.8380	24.75	0.30	0.050			
0.0370	2369.32	4.1500	4.1499	0.8405	24.88	0.43	0.050			
0.0379	2423.27	4.1490	4.1490	0.8422	25.02	0.57	0.050	0.184	0.422	
0.0387	2476.70	4.1480	4.1481	0.8445	25.16	0.71	0.050			
0.0395	2530.28	4.1470	4.1471	0.8459	25.29	0.84	0.050			
0.0404	2584.35	4.1460	4.1460	0.8492	25.43	0.98	0.050			
0.0412	2638.89	4.1450	4.1450	0.8522	25.57	1.12	0.050			
0.0421	2693.55	4.1440	4.1441	0.8551	25.69	1.24	0.050			
0.0429	2748.08	4.1430	4.1430	0.8585	25.81	1.36	0.050			
0.0438	2802.99	4.1420	4.1419	0.8622	25.93	1.48	0.050			
0.0447	2858.15	4.1410	4.1411	0.8657	26.04	1.59	0.050			
0.0455	2913.82	4.1400	4.1400	0.8694	26.11	1.66	0.050			
0.0464	2969.87	4.1390	4.1390	0.8717	26.15	1.70	0.050			
0.0473	3025.70	4.1380	4.1380	0.8748	26.15	1.70	0.050			
0.0482	3082.07	4.1370	4.1369	0.8780	26.12	1.67	0.050			
0.0490	3138.82	4.1360	4.1361	0.8797	26.08	1.63	0.050			
0.0499	3195.98	4.1350	4.1349	0.8806	26.05	1.60	0.050			
0.0508	3252.85	4.1340	4.1339	0.8808	26.02	1.57	0.050			
0.0517	3309.34	4.1330	4.1330	0.8817	25.98	1.53	0.050			
0.0526	3366.06	4.1320	4.1321	0.8818	25.94	1.49	0.050			
0.0535	3422.86	4.1310	4.1310	0.8829	25.90	1.45	0.050			
0.0544	3479.49	4.1300	4.1299	0.8833	25.86	1.41	0.050			
0.0553	3536.04	4.1290	4.1290	0.8837	25.82	1.37	0.050			
0.0561	3592.38	4.1280	4.1280	0.8833	25.80	1.35	0.050			
0.0570	3648.85	4.1270	4.1271	0.8827	25.76	1.31	0.050			
0.0579	3705.23	4.1260	4.1260	0.8832	25.72	1.27	0.050	0.278	0.417	
0.0588	3761.71	4.1250	4.1249	0.8832	25.69	1.24	0.050			
0.0597	3817.91	4.1240	4.1240	0.8839	25.67	1.22	0.050			
0.0605	3873.99	4.1230	4.1229	0.8832	25.63	1.18	0.050			
0.0614	3930.39	4.1220	4.1220	0.8837	25.61	1.16	0.050			
0.0623	3987.06	4.1210	4.1210	0.8839	25.59	1.14	0.050			
0.0632	4043.74	4.1200	4.1199	0.8842	25.55	1.10	0.050			
0.0641	4100.63	4.1190	4.1191	0.8849	25.50	1.05	0.050			
0.0650	4157.39	4.1180	4.1180	0.8855	25.45	1.00	0.050			
0.0658	4214.15	4.1170	4.1170	0.8853	25.39	0.94	0.050			
0.0667	4271.08	4.1160	4.1160	0.8863	25.34	0.89	0.050			
0.0676	4328.03	4.1150	4.1149	0.8873	25.28	0.83	0.050			
0.0685	4384.81	4.1140	4.1140	0.8877	25.21	0.76	0.050			
0.0694	4441.32	4.1130	4.1130	0.8868	25.15	0.70	0.050			
0.0703	4498.33	4.1120	4.1121	0.8872	25.09	0.64	0.050			
0.0712	4555.02	4.1110	4.1109	0.8866	25.03	0.58	0.050			
0.0721	4611.89	4.1100	4.1100	0.8861	24.97	0.52	0.050			
0.0729	4668.70	4.1090	4.1090	0.8856	24.92	0.47	0.050			
0.0738	4725.39	4.1080	4.1080	0.8858	24.86	0.41	0.050			
0.0747	4781.87	4.1070	4.1070	0.8861	24.81	0.36	0.050			
0.0756	4838.38	4.1060	4.1059	0.8866	24.76	0.31	0.050			
0.0765	4894.57	4.1050	4.1051	0.8877	24.70	0.25	0.050			
0.0774	4951.26	4.1040	4.1039	0.8886	24.64	0.19	0.050			
0.0783	5008.22	4.1030	4.1031	0.8888	24.58	0.13	0.050			
0.0791	5065.39	4.1020	4.1020	0.8897	24.52	0.07	0.050			
0.0800	5122.61	4.1010	4.1010	0.8905	24.46	0.01	0.050			
0.0809	5179.98	4.1000	4.1000	0.8899	24.41	-0.04	0.050			
0.0818	5236.72	4.0990	4.0989	0.8900	24.34	-0.11	0.050			
0.0827	5293.84	4.0980	4.0980	0.8891	24.29	-0.16	0.050			
0.0836	5351.06	4.0970	4.0970	0.8886	24.24	-0.21	0.050			
0.0845	5408.26	4.0960	4.0961	0.8872	24.17	-0.28	0.050			
0.0854	5464.80	4.0950	4.0951	0.8875	24.11	-0.34	0.050			
0.0863	5521.73	4.0940	4.0940	0.8879	24.05	-0.40	0.050			
0.0872	5578.47	4.0930	4.0931	0.8873	23.99	-0.46	0.050			
0.0881	5635.39	4.0920	4.0920	0.8877	23.94	-0.51	0.050			
0.0889	5692.16	4.0910	4.0911	0.8873	23.88	-0.57	0.050			
0.0898	5748.84	4.0900	4.0899	0.8870	23.82	-0.63	0.050			
0.0907	5805.42	4.0890	4.0891	0.8864	23.76	-0.69	0.050			
0.0916	5862.14	4.0880	4.0880	0.8851	23.71	-0.74	0.050			
0.0925	5918.37	4.0870	4.0869	0.8837	23.65	-0.80	0.050			
0.0934	5974.78	4.0860	4.0860	0.8833	23.60	-0.85	0.050			
0.0942	6031.38	4.0850	4.0851	0.8818	23.54	-0.91	0.050			
0.0951	6088.12	4.0840	4.0840	0.8816	23.49	-0.96	0.050			
0.0960	6145.19	4.0830	4.0829	0.8807	23.45	-1.00	0.050			
0.0969	6201.69	4.0820	4.0820	0.8791	23.41	-1.04	0.050			
0.0978	6258.26	4.0810	4.0810	0.8773	23.38	-1.07	0.050	0.380	0.468	
0.0987	6314.57	4.0800	4.0801	0.8763	23.35	-1.10	0.050			
0.0995	6370.57	4.0790	4.0791	0.8744	23.33	-1.12	0.050			
0.1004	6426.72	4.0780	4.0780	0.8735	23.32	-1.13	0.050			
0.1013	6482.75	4.0770	4.0770	0.8709	23.31	-1.14	0.050			
0.1022	6538.59	4.0760	4.0761	0.8676	23.32	-1.13	0.050			
0.1030	6593.50	4.0750	4.0750	0.8639	23.34	-1.11	0.050			
0.1039	6648.73	4.0740	4.0740	0.8614	23.36	-1.09	0.050			
0.1047	6703.75	4.0730	4.0730	0.8595	23.39	-1.06	0.050			
0.1056	6758.49	4.0720	4.0720	0.8567	23.44	-1.01	0.050			
0.1065	6813.07	4.0710	4.0710	0.8547	23.50	-0.95	0.050			
0.1073	6867.33	4.0700	4.0700	0.8538	23.56	-0.89	0.050			
0.1082	6921.94	4.0690	4.0690	0.8516	23.63	-0.82	0.050			
0.1090	6976.22	4.0680	4.0681	0.8507	23.72	-0.73	0.050			
0.1098	7030.40	4.0670	4.0670	0.8504	23.82	-0.63	0.050			
0.1107	7084.44	4.0660	4.0659	0.8489	23.95	-0.50	0.050			
0.1115	7138.37	4.0650	4.0650	0.8504	24.08	-0.37	0.050			
0.1124	7192.65	4.0640	4.0640	0.8513	24.22	-0.23	0.050			
0.1132	7246.21	4.0630	4.0630	0.8529	24.36	-0.09	0.050			
0.1141	7300.51	4.0620	4.0619	0.8549	24.51	0.06	0.050			
0.1149	7354.82	4.0610	4.0610	0.8572	24.68	0.23	0.050			
0.1158	7408.66	4.0600	4.0601	0.8602	24.84	0.39	0.050			
0.1166	7463.66	4.0590	4.0589	0.8638	25.02	0.57	0.050			
0.1175	7518.82	4.0580	4.0580	0.8677	25.20	0.75	0.050			
0.1184	7574.57	4.0570	4.0571	0.8726	25.38	0.93	0.050			
0.1192	7630.70	4.0560	4.0560	0.8769	25.57	1.12	0.050			
0.1201	7686.81	4.0550	4.0551	0.8805	25.76	1.31	0.050			
0.1210	7743.40	4.0540	4.0539	0.8845	25.94	1.49	0.050			
0.1219	7800.46	4.0530	4.0530	0.8888	26.11	1.66	0.050			
0.1228	7857.55	4.0520	4.0520	0.8930	26.26	1.81	0.050			
0.1237	7915.08	4.0510	4.0510	0.8970	26.39	1.94	0.050			
0.1246	7972.77	4.0500	4.0500	0.9014	26.51	2.06	0.050			
0.1255	8031.04	4.0490	4.0489	0.9050	26.57	2.12	0.050			
0.1264	8089.48	4.0480	4.0479	0.9081	26.57	2.12	0.050			
0.1273	8147.91	4.0470	4.0470	0.9104	26.53	2.08	0.050			
0.1282	8206.43	4.0460	4.0460	0.9127	26.48	2.03	0.050			
0.1291	8264.78	4.0450	4.0450	0.9148	26.43	1.98	0.050			
0.1301	8323.53	4.0440	4.0440	0.9171	26.38	1.93	0.050			
0.1310	8382.18	4.0430	4.0429	0.9186	26.33	1.88	0.050			
0.1319	8441.16	4.0420	4.0419	0.9206	26.27	1.82	0.050			
0.1328	8500.13	4.0410	4.0410	0.9225	26.22	1.77	0.050			
0.1337	8559.30	4.0400	4.0400	0.9237	26.16	1.71	0.050			
0.1347	8618.53	4.0390	4.0390	0.9252	26.10	1.65	0.050			
0.1356	8678.02	4.0380	4.0379	0.9274	26.04	1.59	0.050			
0.1365	8737.32	4.0370	4.0370	0.9290	25.98	1.53	0.050			
0.1375	8796.99	4.0360	4.0359	0.9308	25.90	1.45	0.050			
0.1384	8856.30	4.0350	4.0351	0.9332	25.85	1.40	0.050	0.388	0.479	
0.1393	8916.10	4.0340	4.0340	0.9346	25.78	1.33	0.050			
0.1403	8976.28	4.0330	4.0331	0.9355	25.72	1.27	0.050			
0.1412	9036.11	4.0320	4.0320	0.9363	25.66	1.21	0.050			
0.1421	9096.17	4.0310	4.0309	0.9371	25.60	1.15	0.050			
0.1431	9156.35	4.0300	4.0299	0.9385	25.54	1.09	0.050			
0.1440	9216.82	4.0290	4.0289	0.9396	25.48	1.03	0.050			
0.1450	9276.99	4.0280	4.0280	0.9412	25.41	0.96	0.050			
0.1459	9337.33	4.0270	4.0270	0.9415	25.35	0.90	0.050			
0.1468	9397.57	4.0260	4.0260	0.9418	25.28	0.83	0.050			
0.1478	9457.95	4.0250	4.0251	0.9421	25.22	0.77	0.050			
0.1487	9518.35	4.0240	4.0239	0.9434	25.16	0.71	0.050			
0.1497	9578.92	4.0230	4.0229	0.9436	25.10	0.65	0.050			
0.1506	9639.43	4.0220	4.0220	0.9430	25.04	0.59	0.050			
0.1516	9699.82	4.0210	4.0209	0.9437	24.98	0.53	0.050			
0.1525	9760.16	4.0200	4.0199	0.9441	24.91	0.46	0.050			
0.1534	9820.45	4.0190	4.0189	0.9441	24.86	0.41	0.050			
0.1544	9880.78	4.0180	4.0180	0.9443	24.80	0.35	0.050			
0.1553	9941.23	4.0170	4.0170	0.9437	24.73	0.28	0.050			
0.1563	10001.65	4.0160	4.0159	0.9444	24.68	0.23	0.050			
0.1572	10061.71	4.0150	4.0150	0.9448	24.62	0.17	0.050			
0.1582	10122.43	4.0140	4.0141	0.9460	24.56	0.11	0.050	0.349	0.428	
0.1591	10183.16	4.0130	4.0129	0.9469	24.51	0.06	0.050			
0.1601	10243.56	4.0120	4.0119	0.9472	24.45	0.00	0.050			
0.1610	10304.22	4.0110	4.0110	0.9480	24.40	-0.05	0.050			
0.1620	10364.94	4.0100	4.0100	0.9477	24.34	-0.11	0.050			
0.1629	10425.70	4.0090	4.0090	0.9485	24.29	-0.16	0.050			
0.1638	10486.36	4.0080	4.0080	0.9480	24.23	-0.22	0.050			
0.1648	10547.07	4.0070	4.0069	0.9490	24.17	-0.28	0.050			
0.1658	10608.10	4.0060	4.0060	0.9490	24.11	-0.34	0.050			
0.1667	10668.62	4.0050	4.0050	0.9505	24.05	-0.40	0.050			
0.1676	10729.33	4.0040	4.0041	0.9509	23.99	-0.46	0.050			
0.1686	10790.53	4.0030	4.0030	0.9517	23.92	-0.53	0.050			
0.1696	10851.62	4.0020	4.0021	0.9516	23.86	-0.59	0.050			
0.1705	10912.31	4.0010	4.0010	0.9517	23.80	-0.65	0.050			
0.1715	10973.29	4.0000	4.0001	0.9517	23.73	-0.72	0.050			
0.1724	11034.25	3.9990	3.9990	0.9522	23.68	-0.77	0.050			
0.1734	11095.40	3.9980	3.9980	0.9520	23.62	-0.83	0.050			
0.1743	11156.43	3.9970	3.9970	0.9517	23.57	-0.88	0.050			
0.1753	11217.28	3.9960	3.9960	0.9508	23.51	-0.94	0.050			
0.1762	11278.22	3.9950	3.9950	0.9501	23.45	-1.00	0.050			
0.1772	11339.42	3.9940	3.9941	0.9493	23.39	-1.06	0.050			
0.1781	11400.82	3.9930	3.9931	0.9476	23.36	-1.09	0.050	0.418	0.506	
0.1791	11461.50	3.9920	3.9920	0.9459	23.32	-1.13	0.050			
0.1800	11522.41	3.9910	3.9910	0.9434	23.28	-1.17	0.050			
0.1810	11583.06	3.9900	3.9900	0.9419	23.27	-1.18	0.050			
0.1819	11643.22	3.9890	3.9891	0.9390	23.25	-1.20	0.050			
0.1829	11703.34	3.9880	3.9879	0.9369	23.25	-1.20	0.050			
0.1838	11763.11	3.9870	3.9871	0.9343	23.25	-1.20	0.050			
0.1847	11822.67	3.9860	3.9860	0.9321	23.26	-1.19	0.050			
0.1857	11881.82	3.9850	3.9850	0.9288	23.29	-1.16	0.050			
0.1866	11941.21	3.9840	3.9839	0.9273	23.32	-1.13	0.050			
0.1875	12000.67	3.9830	3.9830	0.9250	23.37	-1.08	0.050			
0.1884	12059.55	3.9820	3.9819	0.9224	23.42	-1.03	0.050			
0.1893	12117.92	3.9810	3.9809	0.9207	23.51	-0.94	0.050			
0.1903	12176.78	3.9800	3.9800	0.9196	23.58	-0.87	0.050			
0.1912	12235.19	3.9790	3.9790	0.9180	23.68	-0.77	0.050			
0.1921	12293.84	3.9780	3.9781	0.9169	23.77	-0.68	0.050			
0.1930	12352.39	3.9770	3.9770	0.9157	23.89	-0.56	0.050			
0.1939	12410.72	3.9760	3.9760	0.9166	24.04	-0.41	0.050			
0.1948	12468.95	3.9750	3.9750	0.9174	24.19	-0.26	0.050			
0.1957	12527.38	3.9740	3.9741	0.9197	24.36	-0.09	0.050			
0.1966	12585.57	3.9730	3.9729	0.9222	24.54	0.09	0.050			
0.1976	12644.34	3.9720	3.9720	0.9249	24.73	0.28	0.050	0.236	0.420	
0.1985	12703.05	3.9710	3.9710	0.9279	24.92	0.47	0.050			
0.1994	12761.83	3.9700	3.9699	0.9307	25.11	0.66	0.050			
0.2003	12821.35	3.9690	3.9690	0.9345	25.32	0.87	0.050			
0.2013	12880.89	3.9680	3.9680	0.9383	25.51	1.06	0.050			
0.2022	12941.03	3.9670	3.9669	0.9421	25.71	1.26	0.050			
0.2031	13001.56	3.9660	3.9660	0.9463	25.90	1.45	0.050			
0.2041	13062.74	3.9650	3.9651	0.9498	26.08	1.63	0.050			
0.2051	13123.89	3.9640	3.9640	0.9536	26.27	1.82	0.050			
0.2060	13185.45	3.9630	3.9629	0.9582	26.39	1.94	0.050			
0.2070	13247.28	3.9620	3.9621	0.9612	26.47	2.02	0.050			
0.2080	13309.06	3.9610	3.9610	0.9641	26.46	2.01	0.050			
0.2089	13371.27	3.9600	3.9601	0.9668	26.44	1.99	0.050			
0.2099	13433.73	3.9590	3.9590	0.9691	26.41	1.96	0.050			
0.2109	13496.52	3.9580	3.9581	0.9708	26.38	1.93	0.050			
0.2119	13559.07	3.9570	3.9569	0.9709	26.35	1.90	0.050			
0.2128	13621.27	3.9560	3.9559	0.9703	26.32	1.87	0.050			
0.2138	13683.39	3.9550	3.9549	0.9697	26.28	1.83	0.050			
0.2148	13745.77	3.9540	3.9540	0.9689	26.25	1.80	0.050			
0.2157	13807.77	3.9530	3.9531	0.9681	26.23	1.78	0.050			
0.2167	13869.62	3.9520	3.9520	0.9680	26.21	1.76	0.050			
0.2177	13931.62	3.9510	3.9512	0.9677	26.17	1.72	0.050	0.336	0.512	
0.2186	13993.59	3.9500	3.9500	0.9668	26.15	1.70	0.050			
0.2196	14055.62	3.9490	3.9490	0.9661	26.13	1.68	0.050			
0.2206	14117.44	3.9480	3.9480	0.9650	26.11	1.66	0.050			
0.2215	14179.02	3.9470	3.9470	0.9647	26.11	1.66	0.050			
0.2225	14240.77	3.9460	3.9459	0.9637	26.06	1.61	0.050			
0.2235	14302.57	3.9450	3.9449	0.9618	26.02	1.57	0.050			
0.2244	14363.82	3.9440	3.9439	0.9600	25.98	1.53	0.050			
0.2254	14425.83	3.9430	3.9430	0.9572	25.92	1.47	0.050			
0.2264	14487.32	3.9420	3.9420	0.9549	25.87	1.42	0.050			
0.2273	14548.73	3.9410	3.9410	0.9521	25.82	1.37	0.050			
0.2283	14609.72	3.9400	3.9400	0.9500	25.77	1.32	0.050			
0.2292	14670.47	3.9390	3.9390	0.9480	25.73	1.28	0.050			
0.2302	14731.33	3.9380	3.9380	0.9460	25.67	1.22	0.050			
0.2311	14791.46	3.9370	3.9371	0.9445	25.63	1.18	0.050			
0.2321	14851.67	3.9360	3.9360	0.9426	25.58	1.13	0.050			
0.2330	14911.61	3.9350	3.9351	0.9411	25.53	1.08	0.050			
0.2339	14971.52	3.9340	3.9341	0.9395	25.49	1.04	0.050			
0.2349	15030.87	3.9330	3.9329	0.9377	25.44	0.99	0.050			
0.2358	15090.56	3.9320	3.9321	0.9371	25.39	0.94	0.050			
0.2367	15150.22	3.9310	3.9309	0.9361	25.35	0.90	0.050			
0.2377	15210.03	3.9300	3.9299	0.9360	25.30	0.85	0.050	0.437	0.547	
0.2386	15269.72	3.9290	3.9289	0.9350	25.26	0.81	0.050			
0.2395	15329.63	3.9280	3.9280	0.9349	25.21	0.76	0.050			
0.2405	15389.36	3.9270	3.9270	0.9338	25.16	0.71	0.050			
0.2414	15449.56	3.9260	3.9261	0.9335	25.10	0.65	0.050			
0.2423	15509.94	3.9250	3.9250	0.9333	25.06	0.61	0.050			
0.2433	15570.26	3.9240	3.9240	0.9314	25.00	0.55	0.050			
0.2442	15630.67	3.9230	3.9230	0.9308	24.95	0.50	0.050			
0.2452	15690.60	3.9220	3.9220	0.9276	24.89	0.44	0.050			
0.2461	15749.99	3.9210	3.9211	0.9241	24.84	0.39	0.050			
0.2470	15809.13	3.9200	3.9201	0.9206	24.79	0.34	0.050			
0.2479	15868.13	3.9190	3.9190	0.9173	24.75	0.30	0.050			
0.2489	15927.00	3.9180	3.9180	0.9126	24.70	0.25	0.050			
0.2498	15984.87	3.9170	3.9170	0.9093	24.65	0.20	0.050			
0.2507	16042.74	3.9160	3.9161	0.9062	24.60	0.15	0.050			
0.2516	16100.10	3.9150	3.9150	0.9041	24.55	0.10	0.050			
0.2525	16157.44	3.9140	3.9140	0.9020	24.51	0.06	0.050			
0.2533	16214.21	3.9130	3.9131	0.9003	24.47	0.02	0.050			
0.2542	16271.73	3.9120	3.9120	0.8990	24.42	-0.03	0.050			
0.2551	16328.82	3.9110	3.9110	0.8967	24.38	-0.07	0.050			
0.2560	16386.10	3.9100	3.9100	0.8964	24.34	-0.11	0.050			
0.2569	16443.03	3.9090	3.9090	0.8948	24.29	-0.16	0.050			
0.2578	16500.53	3.9080	3.9080	0.8937	24.25	-0.20	0.050			
0.2587	16557.96	3.9070	3.9069	0.8923	24.19	-0.26	0.050			
0.2596	16615.13	3.9060	3.9061	0.8911	24.13	-0.32	0.050			
0.2605	16672.36	3.9050	3.9049	0.8909	24.08	-0.37	0.050			
0.2614	16729.66	3.9040	3.9041	0.8899	24.03	-0.42	0.050			
0.2623	16787.00	3.9030	3.9031	0.8876	23.98	-0.47	0.050			
0.2632	16844.20	3.9020	3.9020	0.8863	23.94	-0.51	0.050			
0.2641	16901.11	3.9010	3.9010	0.8834	23.89	-0.56	0.050			
0.2650	16957.95	3.9000	3.9000	0.8813	23.83	-0.62	0.050			
0.2659	17014.55	3.8990	3.8991	0.8787	23.80	-0.65	0.050			
0.2667	17070.72	3.8980	3.8980	0.8751	23.75	-0.70	0.050			
0.2676	17125.90	3.8970	3.8970	0.8725	23.70	-0.75	0.050			
0.2685	17181.52	3.8960	3.8960	0.8692	23.67	-0.78	0.050			
0.2693	17236.74	3.8950	3.8950	0.8665	23.63	-0.82	0.050			
0.2702	17291.89	3.8940	3.8941	0.8638	23.60	-0.85	0.050			
0.2710	17347.11	3.8930	3.8930	0.8612	23.57	-0.88	0.050			
0.2719	17402.28	3.8920	3.8920	0.8596	23.55	-0.90	0.050			
0.2728	17456.99	3.8910	3.8910	0.8585	23.54	-0.91	0.050			
0.2736	17511.65	3.8900	3.8899	0.8557	23.53	-0.92	0.050			
0.2745	17566.05	3.8890	3.8889	0.8554	23.53	-0.92	0.050			
0.2753	17620.87	3.8880	3.8880	0.8539	23.53	-0.92	0.050			
0.2762	17675.33	3.8870	3.8870	0.8532	23.53	-0.92	0.050			
0.2770	17729.93	3.8860	3.8860	0.8517	23.55	-0.90	0.050			
0.2779	17784.12	3.8850	3.8850	0.8496	23.58	-0.87	0.050	0.429	0.472	
0.2787	17838.65	3.8840	3.8840	0.8491	23.62	-0.83	0.050			
0.2796	17893.07	3.8830	3.8830	0.8491	23.67	-0.78	0.050			
0.2804	17947.43	3.8820	3.8820	0.8483	23.73	-0.72	0.050			
0.2813	18001.84	3.8810	3.8810	0.8464	23.79	-0.66	0.050			
0.2821	18056.05	3.8800	3.8799	0.8451	23.85	-0.60	0.050			
0.2830	18109.82	3.8790	3.8790	0.8446	23.94	-0.51	0.050			
0.2838	18163.81	3.8780	3.8780	0.8435	24.03	-0.42	0.050			
0.2846	18217.17	3.8770	3.8771	0.8432	24.13	-0.32	0.050			
0.2855	18271.19	3.8760	3.8760	0.8432	24.25	-0.20	0.050			
0.2863	18325.34	3.8750	3.8750	0.8434	24.38	-0.07	0.050			
0.2872	18379.05	3.8740	3.8741	0.8435	24.49	0.04	0.050			
0.2880	18432.89	3.8730	3.8730	0.8441	24.63	0.18	0.050			
0.2888	18486.33	3.8720	3.8720	0.8442	24.77	0.32	0.050			
0.2897	18540.08	3.8710	3.8709	0.8457	24.91	0.46	0.050			
0.2905	18593.89	3.8700	3.8699	0.8467	25.05	0.60	0.050			
0.2914	18647.59	3.8690	3.8691	0.8489	25.20	0.75	0.050			
0.2922	18702.01	3.8680	3.8680	0.8513	25.33	0.88	0.050			
0.2931	18756.36	3.8670	3.8670	0.8535	25.47	1.02	0.050			
0.2939	18810.93	3.8660	3.8661	0.8573	25.61	1.16	0.050			
0.2948	18865.94	3.8650	3.8649	0.8603	25.74	1.29	0.050			
0.2956	18920.96	3.8640	3.8640	0.8632	25.86	1.41	0.050			
0.2965	18976.19	3.8630	3.8630	0.8660	25.97	1.52	0.050			
0.2974	19031.90	3.8620	3.8620	0.8693	26.06	1.61	0.050			
0.2983	19088.24	3.8610	3.8611	0.8718	26.11	1.66	0.050	0.268	0.504	
0.2991	19144.30	3.8600	3.8600	0.8738	26.10	1.65	0.050			
0.3000	19200.47	3.8590	3.8590	0.8750	26.07	1.62	0.050			
0.3009	19256.92	3.8580	3.8580	0.8770	26.04	1.59	0.050			
0.3018	19313.03	3.8570	3.8569	0.8790	26.00	1.55	0.050			
0.3026	19369.50	3.8560	3.8561	0.8815	25.96	1.51	0.050			
0.3035	19426.20	3.8550	3.8550	0.8833	25.93	1.48	0.050			
0.3044	19482.65	3.8540	3.8540	0.8849	25.89	1.44	0.050			
0.3053	19539.21	3.8530	3.8530	0.8861	25.86	1.41	0.050			
0.3062	19595.93	3.8520	3.8520	0.8872	25.83	1.38	0.050			
0.3071	19652.74	3.8510	3.8510	0.8887	25.79	1.34	0.050			
0.3080	19709.68	3.8500	3.8500	0.8901	25.76	1.31	0.050			
0.3088	19766.39	3.8490	3.8490	0.8909	25.72	1.27	0.050			
0.3097	19823.69	3.8480	3.8479	0.8924	25.69	1.24	0.050			
0.3106	19881.04	3.8470	3.8470	0.8928	25.65	1.20	0.050			
0.3115	19938.31	3.8460	3.8460	0.8924	25.61	1.16	0.050			
0.3124	19995.79	3.8450	3.8450	0.8926	25.59	1.14	0.050			
0.3133	20053.13	3.8440	3.8440	0.8934	25.56	1.11	0.050			
0.3142	20110.26	3.8430	3.8430	0.8942	25.52	1.07	0.050			
0.3151	20167.62	3.8420	3.8421	0.8951	25.50	1.05	0.050			
0.3160	20225.35	3.8410	3.8410	0.8957	25.46	1.01	0.050			
0.3169	20282.86	3.8400	3.8400	0.8958	25.44	0.99	0.050			
0.3178	20339.95	3.8390	3.8391	0.8961	25.42	0.97	0.050	-0.113	0.399	
0.3187	20396.90	3.8380	3.8380	0.8967	25.40	0.95	0.050			
0.3196	20453.80	3.8370	3.8371	0.8967	25.37	0.92	0.050			
0.3205	20510.97	3.8360	3.8359	0.8977	25.32	0.87	0.050			
0.3214	20568.34	3.8350	3.8351	0.8990	25.28	0.83	0.050			
0.3223	20625.65	3.8340	3.8340	0.9001	25.23	0.78	0.050			
0.3232	20683.39	3.8330	3.8329	0.9008	25.18	0.73	0.050			
0.3241	20741.38	3.8320	3.8320	0.9009	25.13	0.68	0.050			
0.3250	20799.20	3.8310	3.8309	0.9016	25.09	0.64	0.050			
0.3259	20857.07	3.8300	3.8300	0.9022	25.05	0.60	0.050			
0.3268	20915.08	3.8290	3.8290	0.9027	25.00	0.55	0.050			
0.3277	20973.02	3.8280	3.8280	0.9034	24.94	0.49	0.050			
0.3286	21031.63	3.8270	3.8270	0.9033	24.89	0.44	0.050			
0.3295	21089.64	3.8260	3.8261	0.9033	24.85	0.40	0.050			
0.3304	21147.34	3.8250	3.8250	0.9034	24.81	0.36	0.050			
0.3313	21205.06	3.8240	3.8241	0.9030	24.76	0.31	0.050			
0.3322	21262.52	3.8230	3.8229	0.9033	24.72	0.27	0.050			
0.3331	21320.01	3.8220	3.8219	0.9033	24.68	0.23	0.050			
0.3340	21377.76	3.8210	3.8211	0.9045	24.63	0.18	0.050			
0.3349	21435.26	3.8200	3.8199	0.9050	24.58	0.13	0.050			
0.3358	21493.01	3.8190	3.8190	0.9061	24.55	0.10	0.050			
0.3367	21550.62	3.8180	3.8180	0.9059	24.50	0.05	0.050			
0.3376	21608.37	3.8170	3.8171	0.9067	24.48	0.03	0.050			
0.3385	21666.59	3.8160	3.8159	0.9075	24.44	-0.01	0.050			
0.3394	21724.72	3.8150	3.8150	0.9092	24.40	-0.05	0.050			
0.3404	21783.31	3.8140	3.8140	0.9095	24.37	-0.08	0.050			
0.3413	21841.69	3.8130	3.8130	0.9107	24.33	-0.12	0.050			
0.3422	21900.37	3.8120	3.8121	0.9123	24.31	-0.14	0.050			
0.3431	21958.81	3.8110	3.8109	0.9128	24.27	-0.18	0.050			
0.3440	22017.36	3.8100	3.8101	0.9132	24.25	-0.20	0.050			
0.3449	22076.02	3.8090	3.8090	0.9137	24.23	-0.22	0.050			
0.3459	22134.60	3.8080	3.8081	0.9145	24.21	-0.24	0.050			
0.3468	22193.30	3.8070	3.8069	0.9155	24.18	-0.27	0.050			
0.3477	22251.68	3.8060	3.8059	0.9153	24.18	-0.27	0.050			
0.3486	22310.05	3.8050	3.8050	0.9147	24.17	-0.28	0.050			
0.3495	22368.42	3.8040	3.8040	0.9164	24.16	-0.29	0.050			
0.3504	22426.55	3.8030	3.8030	0.9167	24.16	-0.29	0.050			
0.3513	22485.01	3.8020	3.8020	0.9184	24.17	-0.28	0.050			
0.3522	22543.44	3.8010	3.8010	0.9199	24.18	-0.27	0.050			
0.3532	22602.28	3.8000	3.8000	0.9215	24.20	-0.25	0.050			
0.3541	22661.13	3.7990	3.7990	0.9238	24.21	-0.24	0.050			
0.3550	22720.56	3.7980	3.7980	0.9263	24.24	-0.21	0.050			
0.3559	22779.92	3.7970	3.7970	0.9282	24.27	-0.18	0.050			
0.3569	22839.14	3.7960	3.7960	0.9310	24.30	-0.15	0.050			
0.3578	22898.54	3.7950	3.7949	0.9331	24.36	-0.09	0.050			
0.3587	22958.32	3.7940	3.7940	0.9371	24.41	-0.04	0.050			
0.3597	23018.15	3.7930	3.7930	0.9403	24.48	0.03	0.050			
0.3606	23078.03	3.7920	3.7920	0.9440	24.56	0.11	0.050			
0.3615	23138.33	3.7910	3.7911	0.9483	24.66	0.21	0.050			
0.3625	23199.06	3.7900	3.7900	0.9525	24.77	0.32	0.050			
0.3634	23259.71	3.7890	3.7891	0.9584	24.89	0.44	0.050			
0.3644	23320.88	3.7880	3.7880	0.9630	25.03	0.58	0.050			
0.3654	23382.56	3.7870	3.7869	0.9687	25.17	0.72	0.050			
0.3663	23444.69	3.7860	3.7859	0.9736	25.33	0.88	0.050			
0.3673	23507.28	3.7850	3.7850	0.9782	25.48	1.03	0.050			
0.3683	23570.05	3.7840	3.7840	0.9820	25.63	1.18	0.050			
0.3693	23633.08	3.7830	3.7830	0.9873	25.77	1.32	0.050			
0.3703	23696.42	3.7820	3.7820	0.9937	25.90	1.45	0.050			
0.3713	23760.08	3.7810	3.7810	0.9999	26.02	1.57	0.050			
0.3723	23824.42	3.7800	3.7800	1.0064	26.13	1.68	0.050			
0.3733	23889.17	3.7790	3.7790	1.0122	26.20	1.75	0.050			
0.3743	23954.03	3.7780	3.7780	1.0177	26.24	1.79	0.050			
0.3753	24019.56	3.7770	3.7770	1.0233	26.20	1.75	0.050			
0.3763	24085.35	3.7760	3.7759	1.0275	26.16	1.71	0.050			
0.3774	24151.33	3.7750	3.7749	1.0322	26.12	1.67	0.050			
0.3784	24217.60	3.7740	3.7739	1.0371	26.07	1.62	0.050	0.221	0.470	
0.3794	24284.18	3.7730	3.7730	1.0413	26.02	1.57	0.050			
0.3805	24351.19	3.7720	3.7720	1.0456	25.98	1.53	0.050			
0.3815	24418.66	3.7710	3.7710	1.0488	25.92	1.47	0.050			
0.3826	24486.07	3.7700	3.7700	1.0521	25.86	1.41	0.050			
0.3836	24553.33	3.7690	3.7689	1.0563	25.81	1.36	0.050			
0.3847	24621.07	3.7680	3.7680	1.0608	25.75	1.30	0.050			
0.3858	24689.21	3.7670	3.7671	1.0665	25.69	1.24	0.050			
0.3868	24757.25	3.7660	3.7660	1.0730	25.64	1.19	0.050			
0.3879	24825.97	3.7650	3.7650	1.0775	25.59	1.14	0.050			
0.3890	24894.46	3.7640	3.7641	1.0833	25.53	1.08	0.050			
0.3901	24963.66	3.7630	3.7630	1.0870	25.47	1.02	0.050			
0.3911	25033.37	3.7620	3.7619	1.0918	25.41	0.96	0.050			
0.3922	25103.07	3.7610	3.7609	1.0974	25.36	0.91	0.050			
0.3933	25173.31	3.7600	3.7600	1.1035	25.29	0.84	0.050			
0.3944	25243.94	3.7590	3.7590	1.1100	25.23	0.78	0.050			
0.3955	25315.09	3.7580	3.7579	1.1167	25.17	0.72	0.050			
0.3967	25386.83	3.7570	3.7570	1.1236	25.11	0.66	0.050			
0.3978	25459.21	3.7560	3.7561	1.1303	25.05	0.60	0.050	0.306	0.536	
0.3989	25531.69	3.7550	3.7551	1.1370	25.00	0.55	0.050			
0.4001	25604.76	3.7540	3.7541	1.1437	24.94	0.49	0.050			
0.4012	25678.46	3.7530	3.7529	1.1511	24.89	0.44	0.050			
0.4024	25752.28	3.7520	3.7520	1.1578	24.83	0.38	0.050			
0.4035	25826.78	3.7510	3.7509	1.1647	24.78	0.33	0.050			
0.4047	25901.06	3.7500	3.7500	1.1710	24.72	0.27	0.050			
0.4059	25976.06	3.7490	3.7490	1.1764	24.66	0.21	0.050			
0.4071	26051.33	3.7480	3.7480	1.1840	24.59	0.14	0.050			
0.4082	26126.84	3.7470	3.7469	1.1917	24.53	0.08	0.050			
0.4094	26203.19	3.7460	3.7460	1.1990	24.48	0.03	0.050			
0.4106	26280.59	3.7450	3.7450	1.2068	24.43	-0.02	0.050			
0.4118	26358.34	3.7440	3.7440	1.2124	24.36	-0.09	0.050			
0.4131	26436.66	3.7430	3.7430	1.2206	24.30	-0.15	0.050			
0.4143	26514.91	3.7420	3.7420	1.2271	24.24	-0.21	0.050			
0.4155	26593.60	3.7410	3.7409	1.2333	24.16	-0.29	0.050			
0.4168	26672.64	3.7400	3.7400	1.2404	24.10	-0.35	0.050			
0.4180	26752.22	3.7390	3.7389	1.2478	24.03	-0.42	0.050			
0.4193	26832.23	3.7380	3.7380	1.2554	23.94	-0.51	0.050			
0.4205	26912.98	3.7370	3.7371	1.2622	23.87	-0.58	0.050			
0.4218	26994.19	3.7360	3.7360	1.2689	23.80	-0.65	0.050			
0.4231	27075.62	3.7350	3.7349	1.2749	23.73	-0.72	0.050			
0.4243	27157.33	3.7340	3.7339	1.2822	23.67	-0.78	0.050			
0.4256	27239.88	3.7330	3.7330	1.2877	23.61	-0.84	0.050			
0.4269	27322.20	3.7320	3.7320	1.2947	23.55	-0.90	0.050			
0.4282	27405.15	3.7310	3.7310	1.3015	23.50	-0.95	0.050			
0.4295	27487.98	3.7300	3.7300	1.3095	23.47	-0.98	0.050			
0.4308	27571.90	3.7290	3.7291	1.3175	23.45	-1.00	0.050			
0.4321	27655.70	3.7280	3.7280	1.3258	23.44	-1.01	0.050			
0.4334	27739.94	3.7270	3.7270	1.3374	23.46	-0.99	0.050			
0.4348	27825.34	3.7260	3.7261	1.3495	23.50	-0.95	0.050			
0.4361	27911.55	3.7250	3.7249	1.3617	23.56	-0.89	0.050			
0.4375	27998.35	3.7240	3.7241	1.3743	23.62	-0.83	0.050			
0.4388	28085.81	3.7230	3.7230	1.3865	23.71	-0.74	0.050	0.321	0.387	
0.4402	28174.03	3.7220	3.7221	1.4014	23.82	-0.63	0.050			
0.4416	28263.72	3.7210	3.7210	1.4161	23.97	-0.48	0.050			
0.4430	28353.96	3.7200	3.7199	1.4327	24.14	-0.31	0.050			
0.4445	28445.74	3.7190	3.7190	1.4485	24.38	-0.07	0.050			
0.4459	28539.23	3.7180	3.7181	1.4656	24.63	0.18	0.050			
0.4474	28634.01	3.7170	3.7170	1.4828	24.91	0.46	0.050			
0.4489	28730.03	3.7160	3.7161	1.4985	25.20	0.75	0.050			
0.4504	28826.86	3.7150	3.7151	1.5149	25.50	1.05	0.050			
0.4520	28924.83	3.7140	3.7140	1.5302	25.78	1.33	0.050			
0.4535	29023.87	3.7130	3.7130	1.5462	26.03	1.58	0.050			
0.4551	29123.41	3.7120	3.7121	1.5607	26.22	1.77	0.050			
0.4566	29224.10	3.7110	3.7110	1.5759	26.28	1.83	0.050			
0.4582	29325.08	3.7100	3.7101	1.5918	26.22	1.77	0.050	0.288	0.529	
0.4598	29427.38	3.7090	3.7090	1.6073	26.15	1.70	0.050			
0.4614	29530.03	3.7080	3.7080	1.6226	26.07	1.62	0.050			
0.4630	29633.61	3.7070	3.7069	1.6398	26.00	1.55	0.050			
0.4647	29737.88	3.7060	3.7060	1.6589	25.93	1.48	0.050			
0.4663	29843.69	3.7050	3.7050	1.6787	25.85	1.40	0.050			
0.4680	29950.80	3.7040	3.7040	1.6982	25.77	1.32	0.050			
0.4697	30060.05	3.7030	3.7030	1.7167	25.70	1.25	0.050			
0.4714	30169.88	3.7020	3.7021	1.7359	25.63	1.18	0.050			
0.4732	30281.73	3.7010	3.7010	1.7564	25.56	1.11	0.050			
0.4749	30394.31	3.7000	3.7000	1.7762	25.49	1.04	0.050			
0.4767	30509.21	3.6990	3.6989	1.7988	25.42	0.97	0.050			
0.4785	30625.65	3.6980	3.6979	1.8198	25.35	0.90	0.050			
0.4804	30743.18	3.6970	3.6969	1.8410	25.28	0.83	0.050			
0.4822	30861.70	3.6960	3.6961	1.8638	25.23	0.78	0.050			
0.4841	30981.02	3.6950	3.6951	1.8867	25.17	0.72	0.050			
0.4860	31102.35	3.6940	3.6941	1.9098	25.14	0.69	0.050			
0.4879	31225.47	3.6930	3.6929	1.9319	25.09	0.64	0.050			
0.4898	31349.96	3.6920	3.6920	1.9527	24.99	0.54	0.050			
0.4918	31475.68	3.6910	3.6909	1.9723	24.90	0.45	0.050			
0.4938	31602.85	3.6900	3.6900	1.9921	24.80	0.35	0.050			
0.4958	31731.27	3.6890	3.6890	2.0118	24.72	0.27	0.050			
0.4978	31860.74	3.6880	3.6878	2.0309	24.62	0.17	0.050	0.484	0.406	
0.4999	31990.86	3.6870	3.6870	2.0507	24.53	0.08	0.050			
0.5019	32122.35	3.6860	3.6860	2.0714	24.46	0.01	0.050			
0.5040	32255.61	3.6850	3.6850	2.0956	24.38	-0.07	0.050			
0.5061	32390.06	3.6840	3.6840	2.1194	24.34	-0.11	0.050			
0.5082	32526.23	3.6830	3.6831	2.1446	24.29	-0.16	0.050			
0.5104	32662.43	3.6820	3.6820	2.1718	24.27	-0.18	0.050			
0.5125	32800.47	3.6810	3.6811	2.2011	24.27	-0.18	0.050			
0.5147	32940.42	3.6800	3.6800	2.2310	24.31	-0.14	0.050			
0.5169	33083.65	3.6790	3.6790	2.2601	24.38	-0.07	0.050			
0.5192	33228.34	3.6780	3.6780	2.2884	24.50	0.05	0.050	0.372	0.463	
0.5215	33375.26	3.6770	3.6770	2.3210	24.70	0.25	0.050			
0.5238	33523.22	3.6760	3.6760	2.3556	24.97	0.52	0.050			
0.5262	33673.74	3.6750	3.6750	2.3902	25.30	0.85	0.050			
0.5286	33828.40	3.6740	3.6740	2.4224	25.65	1.20	0.050			
0.5310	33986.34	3.6730	3.6729	2.4517	25.95	1.50	0.050			
0.5335	34146.80	3.6720	3.6720	2.4782	26.12	1.67	0.050			
0.5361	34308.29	3.6710	3.6710	2.5073	26.03	1.58	0.050			
0.5386	34471.06	3.6700	3.6699	2.5333	25.89	1.44	0.050	0.243	0.553	
0.5412	34634.84	3.6690	3.6689	2.5580	25.77	1.32	0.050			
0.5438	34800.74	3.6680	3.6680	2.5807	25.63	1.18	0.050			
0.5464	34966.95	3.6670	3.6672	2.6026	25.50	1.05	0.050			
0.5490	35133.64	3.6660	3.6661	2.6282	25.37	0.92	0.050			
0.5516	35301.38	3.6650	3.6649	2.6520	25.23	0.78	0.050			
0.5542	35470.02	3.6640	3.6639	2.6771	25.10	0.65	0.050			
0.5569	35640.38	3.6630	3.6630	2.7032	24.96	0.51	0.050			
0.5596	35814.09	3.6620	3.6620	2.7286	24.81	0.36	0.050			
0.5624	35990.55	3.6610	3.6609	2.7515	24.67	0.22	0.050			
0.5651	36167.27	3.6600	3.6600	2.7736	24.52	0.07	0.050			
0.5679	36345.58	3.6590	3.6590	2.7927	24.37	-0.08	0.050			
0.5707	36527.63	3.6580	3.6581	2.8120	24.19	-0.26	0.050			
0.5736	36713.39	3.6570	3.6569	2.8245	23.99	-0.46	0.050			
0.5766	36899.33	3.6560	3.6560	2.8264	23.77	-0.68	0.050			
0.5794	37083.64	3.6550	3.6551	2.8187	23.54	-0.91	0.050	0.382	0.515	
0.5823	37267.26	3.6540	3.6540	2.8082	23.33	-1.12	0.050			
0.5851	37449.46	3.6530	3.6530	2.7912	23.15	-1.30	0.050			
0.5880	37629.69	3.6520	3.6520	2.7735	23.05	-1.40	0.050			
0.5907	37806.23	3.6510	3.6511	2.7472	23.05	-1.40	0.050			
0.5934	37979.20	3.6500	3.6501	2.7238	23.15	-1.30	0.050			
0.5961	38150.14	3.6490	3.6490	2.7037	23.38	-1.07	0.050			
0.5988	38320.67	3.6480	3.6480	2.6880	23.69	-0.76	0.050	0.293	0.579	
0.6014	38488.66	3.6470	3.6470	2.6774	24.16	-0.29	0.050			
0.6040	38656.91	3.6460	3.6460	2.6711	24.73	0.28	0.050			
0.6066	38824.71	3.6450	3.6449	2.6669	25.36	0.91	0.050			
0.6093	38992.79	3.6440	3.6439	2.6644	25.98	1.53	0.050			
0.6119	39162.62	3.6430	3.6430	2.6635	26.49	2.04	0.050			
0.6146	39332.86	3.6420	3.6419	2.6640	26.74	2.29	0.050			
0.6173	39506.33	3.6410	3.6410	2.6615	26.63	2.18	0.050	0.491	0.544	
0.6200	39679.29	3.6400	3.6400	2.6558	26.50	2.05	0.050			
0.6227	39854.35	3.6390	3.6390	2.6478	26.38	1.93	0.050			
0.6254	40027.63	3.6380	3.6380	2.6329	26.24	1.79	0.050			
0.6281	40199.53	3.6370	3.6371	2.6130	26.11	1.66	0.050			
0.6308	40370.15	3.6360	3.6361	2.5888	25.96	1.51	0.050			
0.6334	40537.40	3.6350	3.6350	2.5581	25.80	1.35	0.050			
0.6360	40701.94	3.6340	3.6339	2.5220	25.66	1.21	0.050			
0.6385	40862.41	3.6330	3.6330	2.4778	25.52	1.07	0.050			
0.6409	41019.95	3.6320	3.6320	2.4322	25.36	0.91	0.050			
0.6434	41174.55	3.6310	3.6311	2.3872	25.23	0.78	0.050			
0.6457	41325.81	3.6300	3.6300	2.3397	25.10	0.65	0.050			
0.6480	41474.01	3.6290	3.6289	2.2926	24.95	0.50	0.050			
0.6503	41619.00	3.6280	3.6280	2.2447	24.81	0.36	0.050			
0.6525	41760.64	3.6270	3.6270	2.1988	24.68	0.23	0.050			
0.6547	41899.82	3.6260	3.6261	2.1520	24.54	0.09	0.050			
0.6568	42035.89	3.6250	3.6250	2.1061	24.42	-0.03	0.050			
0.6589	42168.76	3.6240	3.6240	2.0609	24.27	-0.18	0.050	0.117	0.391	
0.6609	42298.81	3.6230	3.6230	2.0166	24.15	-0.30	0.050			
0.6629	42426.28	3.6220	3.6220	1.9727	24.02	-0.43	0.050			
0.6649	42551.00	3.6210	3.6210	1.9284	23.88	-0.57	0.050			
0.6668	42673.01	3.6200	3.6200	1.8836	23.75	-0.70	0.050			
0.6686	42791.86	3.6190	3.6190	1.8396	23.62	-0.83	0.050			
0.6704	42907.80	3.6180	3.6180	1.7964	23.51	-0.94	0.050			
0.6722	43021.44	3.6170	3.6171	1.7510	23.41	-1.04	0.050			
0.6739	43131.98	3.6160	3.6160	1.7066	23.33	-1.12	0.050			
0.6756	43239.85	3.6150	3.6150	1.6634	23.28	-1.17	0.050			
0.6773	43345.00	3.6140	3.6140	1.6234	23.23	-1.22	0.050			
0.6789	43446.64	3.6130	3.6130	1.5831	23.21	-1.24	0.050	0.264	0.618	
0.6804	43545.62	3.6120	3.6120	1.5453	23.23	-1.22	0.050			
0.6819	43642.06	3.6110	3.6111	1.5085	23.26	-1.19	0.050			
0.6834	43735.79	3.6100	3.6100	1.4737	23.33	-1.12	0.050			
0.6848	43827.38	3.6090	3.6090	1.4404	23.42	-1.03	0.050			
0.6862	43916.45	3.6080	3.6081	1.4089	23.54	-0.91	0.050			
0.6876	44003.43	3.6070	3.6069	1.3795	23.67	-0.78	0.050			
0.6889	44088.75	3.6060	3.6061	1.3540	23.83	-0.62	0.050			
0.6902	44172.19	3.6050	3.6049	1.3321	24.02	-0.43	0.050			
0.6915	44253.84	3.6040	3.6040	1.3124	24.24	-0.21	0.050			
0.6927	44334.76	3.6030	3.6029	1.2960	24.48	0.03	0.050			
0.6940	44415.35	3.6020	3.6021	1.2837	24.73	0.28	0.050			
0.6952	44495.03	3.6010	3.6010	1.2730	24.99	0.54	0.050			
0.6965	44574.92	3.6000	3.6001	1.2655	25.26	0.81	0.050			
0.6977	44654.40	3.5990	3.5990	1.2593	25.51	1.06	0.050			
0.6990	44734.04	3.5980	3.5980	1.2556	25.76	1.31	0.050	0.275	0.463	
0.7002	44814.03	3.5970	3.5969	1.2537	26.00	1.55	0.050			
0.7015	44893.05	3.5960	3.5959	1.2494	26.20	1.75	0.050			
0.7027	44973.14	3.5950	3.5950	1.2479	26.36	1.91	0.050			
0.7039	45052.26	3.5940	3.5940	1.2453	26.39	1.94	0.050			
0.7052	45131.93	3.5930	3.5930	1.2430	26.35	1.90	0.050			
0.7064	45212.22	3.5920	3.5920	1.2404	26.29	1.84	0.050			
0.7077	45292.43	3.5910	3.5911	1.2391	26.25	1.80	0.050			
0.7089	45372.26	3.5900	3.5901	1.2374	26.20	1.75	0.050			
0.7102	45452.17	3.5890	3.5889	1.2357	26.14	1.69	0.050			
0.7114	45531.53	3.5880	3.5880	1.2312	26.09	1.64	0.050			
0.7127	45610.64	3.5870	3.5870	1.2266	26.04	1.59	0.050			
0.7139	45689.31	3.5860	3.5860	1.2202	25.99	1.54	0.050			
0.7151	45767.62	3.5850	3.5851	1.2131	25.95	1.50	0.050			
0.7163	45845.38	3.5840	3.5841	1.2066	25.90	1.45	0.050			
0.7175	45922.53	3.5830	3.5830	1.2005	25.86	1.41	0.050			
0.7187	45999.22	3.5820	3.5820	1.1937	25.81	1.36	0.050			
0.7199	46075.18	3.5810	3.5809	1.1874	25.77	1.32	0.050			
0.7211	46150.71	3.5800	3.5800	1.1812	25.74	1.29	0.050			
0.7223	46226.04	3.5790	3.5790	1.1740	25.69	1.24	0.050			
0.7234	46300.76	3.5780	3.5780	1.1669	25.65	1.20	0.050			
0.7246	46375.10	3.5770	3.5770	1.1607	25.61	1.16	0.050			
0.7258	46449.21	3.5760	3.5760	1.1538	25.58	1.13	0.050			
0.7269	46522.99	3.5750	3.5750	1.1470	25.55	1.10	0.050			
0.7281	46596.09	3.5740	3.5739	1.1405	25.51	1.06	0.050			
0.7292	46669.03	3.5730	3.5730	1.1351	25.48	1.03	0.050			
0.7303	46741.22	3.5720	3.5719	1.1304	25.46	1.01	0.050			
0.7314	46812.47	3.5710	3.5710	1.1245	25.44	0.99	0.050			
0.7326	46883.73	3.5700	3.5702	1.1197	25.41	0.96	0.050			
0.7337	46955.02	3.5690	3.5690	1.1166	25.36	0.91	0.050			
0.7348	47025.73	3.5680	3.5679	1.1152	25.32	0.87	0.050			
0.7359	47096.43	3.5670	3.5670	1.1136	25.26	0.81	0.050			
0.7370	47167.22	3.5660	3.5660	1.1126	25.21	0.76	0.050			
0.7381	47237.69	3.5650	3.5650	1.1118	25.15	0.70	0.050	0.117	0.442	
0.7392	47308.29	3.5640	3.5639	1.1120	25.10	0.65	0.050			
0.7403	47378.32	3.5630	3.5629	1.1126	25.05	0.60	0.050			
0.7414	47448.89	3.5620	3.5621	1.1145	25.00	0.55	0.050			
0.7425	47519.64	3.5610	3.5610	1.1169	24.94	0.49	0.050			
0.7436	47590.88	3.5600	3.5600	1.1206	24.88	0.43	0.050			
0.7447	47662.64	3.5590	3.5589	1.1253	24.82	0.37	0.050			
0.7458	47734.37	3.5580	3.5581	1.1309	24.77	0.32	0.050			
0.7470	47806.29	3.5570	3.5571	1.1373	24.71	0.26	0.050			
0.7481	47879.03	3.5560	3.5560	1.1446	24.65	0.20	0.050			
0.7492	47951.64	3.5550	3.5550	1.1527	24.60	0.15	0.050			
0.7504	48024.97	3.5540	3.5540	1.1620	24.55	0.10	0.050			
0.7515	48098.43	3.5530	3.5531	1.1722	24.48	0.03	0.050			
0.7527	48173.16	3.5520	3.5519	1.1812	24.42	-0.03	0.050			
0.7539	48248.31	3.5510	3.5510	1.1931	24.37	-0.08	0.050			
0.7551	48324.41	3.5500	3.5500	1.2059	24.30	-0.15	0.050			
0.7563	48401.42	3.5490	3.5490	1.2193	24.24	-0.21	0.050			
0.7575	48478.78	3.5480	3.5480	1.2340	24.18	-0.27	0.050			
0.7587	48557.93	3.5470	3.5470	1.2494	24.11	-0.34	0.050	0.483	0.647	
0.7600	48638.09	3.5460	3.5460	1.2651	24.05	-0.40	0.050			
0.7612	48719.22	3.5450	3.5450	1.2812	23.98	-0.47	0.050			
0.7625	48801.68	3.5440	3.5440	1.2990	23.90	-0.55	0.050			
0.7638	48884.84	3.5430	3.5431	1.3169	23.83	-0.62	0.050			
0.7651	48969.57	3.5420	3.5420	1.3355	23.77	-0.68	0.050			
0.7665	49055.40	3.5410	3.5410	1.3545	23.70	-0.75	0.050			
0.7679	49142.47	3.5400	3.5400	1.3741	23.64	-0.81	0.050			
0.7692	49230.88	3.5390	3.5389	1.3930	23.59	-0.86	0.050			
0.7706	49320.48	3.5380	3.5380	1.4116	23.54	-0.91	0.050			
0.7721	49411.35	3.5370	3.5370	1.4308	23.51	-0.94	0.050			
0.7735	49503.75	3.5360	3.5360	1.4502	23.49	-0.96	0.050			
0.7750	49597.06	3.5350	3.5350	1.4689	23.48	-0.97	0.050			
0.7764	49691.85	3.5340	3.5340	1.4882	23.49	-0.96	0.050			
0.7779	49788.11	3.5330	3.5330	1.5069	23.52	-0.93	0.050	0.319	0.523	
0.7795	49885.55	3.5320	3.5320	1.5268	23.58	-0.87	0.050			
0.7810	49984.01	3.5310	3.5310	1.5437	23.65	-0.80	0.050			
0.7826	50083.72	3.5300	3.5300	1.5618	23.75	-0.70	0.050			
0.7841	50183.63	3.5290	3.5290	1.5824	23.88	-0.57	0.050			
0.7857	50284.58	3.5280	3.5280	1.6044	24.03	-0.42	0.050			
0.7873	50386.71	3.5270	3.5270	1.6285	24.23	-0.22	0.050			
0.7889	50490.32	3.5260	3.5261	1.6532	24.50	0.05	0.050			
0.7906	50595.52	3.5250	3.5251	1.6778	24.79	0.34	0.050			
0.7922	50702.75	3.5240	3.5242	1.7028	25.11	0.66	0.050			
0.7939	50811.49	3.5230	3.5231	1.7273	25.43	0.98	0.050			
0.7957	50923.27	3.5220	3.5220	1.7526	25.76	1.31	0.050			
0.7975	51036.92	3.5210	3.5208	1.7760	26.03	1.58	0.050			
0.7993	51152.81	3.5200	3.5198	1.7973	26.25	1.80	0.050			
0.8011	51270.39	3.5190	3.5189	1.8166	26.27	1.82	0.050			
0.8030	51389.88	3.5180	3.5179	1.8341	26.18	1.73	0.050			
0.8049	51510.61	3.5170	3.5170	1.8473	26.08	1.63	0.050			
0.8068	51632.72	3.5160	3.5160	1.8590	25.99	1.54	0.050			
0.8087	51755.00	3.5150	3.5150	1.8636	25.88	1.43	0.050			
0.8106	51878.22	3.5140	3.5140	1.8693	25.78	1.33	0.050			
0.8125	52001.51	3.5130	3.5131	1.8664	25.67	1.22	0.050			
0.8144	52123.79	3.5120	3.5120	1.8600	25.57	1.12	0.050			
0.8164	52246.53	3.5110	3.5110	1.8477	25.46	1.01	0.050			
0.8182	52366.61	3.5100	3.5100	1.8297	25.36	0.91	0.050	0.316	0.542	
0.8201	52485.04	3.5090	3.5091	1.8052	25.25	0.80	0.050			
0.8219	52601.67	3.5080	3.5080	1.7798	25.13	0.68	0.050			
0.8237	52716.30	3.5070	3.5070	1.7512	25.02	0.57	0.050			
0.8255	52829.02	3.5060	3.5060	1.7207	24.91	0.46	0.050			
0.8272	52940.07	3.5050	3.5050	1.6860	24.81	0.36	0.050			
0.8289	53048.35	3.5040	3.5040	1.6513	24.70	0.25	0.050			
0.8305	53153.83	3.5030	3.5030	1.6147	24.60	0.15	0.050			
0.8321	53257.34	3.5020	3.5019	1.5780	24.49	0.04	0.050			
0.8337	53358.20	3.5010	3.5011	1.5378	24.39	-0.06	0.050			
0.8352	53455.73	3.5000	3.4999	1.4965	24.28	-0.17	0.050			
0.8367	53550.37	3.4990	3.4990	1.4539	24.20	-0.25	0.050			
0.8382	53642.47	3.4980	3.4981	1.4113	24.10	-0.35	0.050	0.236	0.617	
0.8396	53731.86	3.4970	3.4969	1.3665	24.01	-0.44	0.050			
0.8409	53818.24	3.4960	3.4959	1.3209	23.92	-0.53	0.050			
0.8422	53901.82	3.4950	3.4949	1.2747	23.84	-0.61	0.050			
0.8435	53982.44	3.4940	3.4939	1.2273	23.76	-0.69	0.050			
0.8447	54060.26	3.4930	3.4930	1.1799	23.67	-0.78	0.050			
0.8459	54134.87	3.4920	3.4920	1.1305	23.60	-0.85	0.050			
0.8470	54206.53	3.4910	3.4909	1.0826	23.53	-0.92	0.050			
0.8480	54274.69	3.4900	3.4900	1.0337	23.47	-0.98	0.050			
0.8491	54339.78	3.4890	3.4890	0.9853	23.39	-1.06	0.050			
0.8500	54401.18	3.4880	3.4881	0.9374	23.33	-1.12	0.050			
0.8509	54459.20	3.4870	3.4871	0.8910	23.29	-1.16	0.050			
0.8518	54513.74	3.4860	3.4860	0.8464	23.23	-1.22	0.050			
0.8526	54565.91	3.4850	3.4850	0.7981	23.19	-1.26	0.050			
0.8533	54612.65	3.4840	3.4839	0.7587	23.16	-1.29	0.050			
0.8540	54658.49	3.4830	3.4830	0.7140	23.14	-1.31	0.050			
0.8547	54700.88	3.4820	3.4820	0.6793	23.11	-1.34	0.050			
0.8553	54739.94	3.4810	3.4809	0.6456	23.08	-1.37	0.050			
0.8559	54777.83	3.4800	3.4799	0.6081	23.07	-1.38	0.050			
0.8564	54812.53	3.4790	3.4790	0.5790	23.06	-1.39	0.050			
0.8570	54846.55	3.4780	3.4780	0.5543	23.06	-1.39	0.050			
0.8575	54879.44	3.4770	3.4770	0.5264	23.05	-1.40	0.050			
0.8580	54910.82	3.4760	3.4759	0.5063	23.05	-1.40	0.050			
0.8585	54941.71	3.4750	3.4750	0.4844	23.05	-1.40	0.050	0.376	0.599	
0.8589	54970.50	3.4740	3.4739	0.4672	23.06	-1.39	0.050			
0.8594	54999.01	3.4730	3.4729	0.4486	23.07	-1.38	0.050			
0.8598	55025.04	3.4720	3.4720	0.4324	23.09	-1.36	0.050			
0.8602	55051.78	3.4710	3.4710	0.4175	23.10	-1.35	0.050			
0.8606	55077.46	3.4700	3.4700	0.4067	23.12	-1.33	0.050			
0.8610	55102.49	3.4690	3.4689	0.3935	23.13	-1.32	0.050			
0.8613	55126.16	3.4680	3.4681	0.3828	23.15	-1.30	0.050			
0.8617	55149.72	3.4670	3.4670	0.3713	23.17	-1.28	0.050			
0.8621	55172.00	3.4660	3.4660	0.3629	23.19	-1.26	0.050			
0.8624	55194.95	3.4650	3.4650	0.3543	23.20	-1.25	0.050			
0.8628	55216.28	3.4640	3.4640	0.3462	23.22	-1.23	0.050			
0.8631	55238.20	3.4630	3.4630	0.3388	23.25	-1.20	0.050			
0.8634	55258.68	3.4620	3.4620	0.3318	23.27	-1.18	0.050			
0.8637	55279.20	3.4610	3.4610	0.3244	23.29	-1.16	0.050			
0.8641	55299.37	3.4600	3.4600	0.3198	23.32	-1.13	0.050			
0.8644	55319.26	3.4590	3.4590	0.3136	23.34	-1.11	0.050			
0.8647	55338.86	3.4580	3.4580	0.3081	23.37	-1.08	0.050			
0.8650	55358.24	3.4570	3.4569	0.3042	23.40	-1.05	0.050			
0.8653	55377.28	3.4560	3.4560	0.2992	23.43	-1.02	0.050			
0.8656	55396.13	3.4550	3.4550	0.2958	23.46	-0.99	0.050			
0.8659	55414.69	3.4540	3.4540	0.2914	23.49	-0.96	0.050			
0.8661	55433.05	3.4530	3.4530	0.2884	23.51	-0.94	0.050			
0.8664	55451.19	3.4520	3.4520	0.2846	23.55	-0.90	0.050			
0.8667	55469.30	3.4510	3.4510	0.2813	23.59	-0.86	0.050			
0.8670	55486.88	3.4500	3.4500	0.2785	23.62	-0.83	0.050			
0.8673	55504.61	3.4490	3.4490	0.2756	23.66	-0.79	0.050			
0.8675	55521.90	3.4480	3.4481	0.2729	23.70	-0.75	0.050			
0.8678	55539.29	3.4470	3.4470	0.2704	23.73	-0.72	0.050			
0.8681	55556.34	3.4460	3.4460	0.2681	23.77	-0.68	0.050			
0.8683	55573.41	3.4450	3.4449	0.2657	23.82	-0.63	0.050			
0.8686	55590.01	3.4440	3.4440	0.2626	23.85	-0.60	0.050			
0.8689	55606.74	3.4430	3.4430	0.2606	23.89	-0.56	0.050			
0.8691	55623.33	3.4420	3.4420	0.2585	23.95	-0.50	0.050			
0.8694	55639.81	3.4410	3.4410	0.2564	23.99	-0.46	0.050			
0.8696	55656.14	3.4400	3.4400	0.2544	24.03	-0.42	0.050			
0.8699	55672.36	3.4390	3.4389	0.2524	24.08	-0.37	0.050			
0.8701	55688.45	3.4380	3.4381	0.2503	24.12	-0.33	0.050			
0.8704	55704.25	3.4370	3.4371	0.2484	24.16	-0.29	0.050			
0.8706	55720.08	3.4360	3.4360	0.2465	24.21	-0.24	0.050			
0.8709	55735.69	3.4350	3.4349	0.2451	24.25	-0.20	0.050			
0.8711	55751.32	3.4340	3.4340	0.2434	24.29	-0.16	0.050			
0.8714	55766.78	3.4330	3.4330	0.2415	24.34	-0.11	0.050			
0.8716	55782.18	3.4320	3.4320	0.2398	24.39	-0.06	0.050			
0.8718	55797.47	3.4310	3.4310	0.2381	24.44	-0.01	0.050			
0.8721	55812.59	3.4300	3.4300	0.2364	24.48	0.03	0.050			
0.8723	55827.58	3.4290	3.4290	0.2351	24.53	0.08	0.050			
0.8725	55842.47	3.4280	3.4280	0.2333	24.57	0.12	0.050			
0.8728	55857.35	3.4270	3.4269	0.2319	24.61	0.16	0.050			
0.8730	55872.00	3.4260	3.4260	0.2307	24.66	0.21	0.050			
0.8732	55886.72	3.4250	3.4251	0.2294	24.70	0.25	0.050			
0.8735	55901.37	3.4240	3.4240	0.2282	24.75	0.30	0.050			
0.8737	55915.83	3.4230	3.4232	0.2269	24.79	0.34	0.050			
0.8739	55930.31	3.4220	3.4220	0.2257	24.83	0.38	0.050			
0.8741	55944.72	3.4210	3.4209	0.2246	24.88	0.43	0.050			
0.8744	55958.95	3.4200	3.4200	0.2237	24.92	0.47	0.050			
0.8746	55973.24	3.4190	3.4190	0.2227	24.97	0.52	0.050			
0.8748	55987.46	3.4180	3.4179	0.2218	25.01	0.56	0.050			
0.8750	56001.58	3.4170	3.4170	0.2207	25.05	0.60	0.050			
0.8752	56015.68	3.4160	3.4160	0.2197	25.10	0.65	0.050			
0.8755	56029.60	3.4150	3.4150	0.2187	25.14	0.69	0.050			
0.8757	56043.57	3.4140	3.4141	0.2179	25.19	0.74	0.050			
0.8759	56057.56	3.4130	3.4131	0.2168	25.24	0.79	0.050			
0.8761	56071.37	3.4120	3.4120	0.2158	25.27	0.82	0.050			
0.8763	56085.15	3.4110	3.4110	0.2149	25.31	0.86	0.050			
0.8765	56098.85	3.4100	3.4100	0.2141	25.35	0.90	0.050			
0.8768	56112.62	3.4090	3.4090	0.2135	25.39	0.94	0.050			
0.8770	56126.25	3.4080	3.4081	0.2125	25.44	0.99	0.050			
0.8772	56139.83	3.4070	3.4070	0.2116	25.48	1.03	0.050			
0.8774	56153.22	3.4060	3.4059	0.2109	25.52	1.07	0.050			
0.8776	56166.69	3.4050	3.4050	0.2100	25.56	1.11	0.050			
0.8778	56180.13	3.4040	3.4041	0.2091	25.59	1.14	0.050			
0.8780	56193.46	3.4030	3.4029	0.2082	25.63	1.18	0.050			
0.8782	56206.76	3.4020	3.4021	0.2074	25.66	1.21	0.050			
0.8784	56220.01	3.4010	3.4010	0.2066	25.70	1.25	0.050			
0.8786	56233.18	3.4000	3.4000	0.2060	25.73	1.28	0.050			
0.8788	56246.33	3.3990	3.3990	0.2052	25.76	1.31	0.050			
0.8791	56259.34	3.3980	3.3980	0.2043	25.78	1.33	0.050			
0.8793	56272.45	3.3970	3.3970	0.2034	25.81	1.36	0.050			
0.8795	56285.45	3.3960	3.3961	0.2027	25.84	1.39	0.050			
0.8797	56298.44	3.3950	3.3950	0.2020	25.87	1.42	0.050			
0.8799	56311.25	3.3940	3.3940	0.2014	25.90	1.45	0.050			
0.8801	56324.09	3.3930	3.3930	0.2007	25.93	1.48	0.050			
0.8803	56336.91	3.3920	3.3920	0.2000	25.95	1.50	0.050			
0.8805	56349.70	3.3910	3.3910	0.1993	25.97	1.52	0.050			
0.8807	56362.50	3.3900	3.3899	0.1988	25.99	1.54	0.050			
0.8809	56375.20	3.3890	3.3890	0.1981	26.02	1.57	0.050			
0.8811	56387.81	3.3880	3.3880	0.1974	26.03	1.58	0.050			
0.8813	56400.43	3.3870	3.3871	0.1967	26.03	1.58	0.050			
0.8815	56412.89	3.3860	3.3860	0.1959	26.04	1.59	0.050			
0.8816	56425.40	3.3850	3.3850	0.1953	26.05	1.60	0.050			
0.8818	56437.79	3.3840	3.3840	0.1946	26.05	1.60	0.050			
0.8820	56450.23	3.3830	3.3830	0.1941	26.04	1.59	0.050			
0.8822	56462.64	3.3820	3.3820	0.1936	26.04	1.59	0.050			
0.8824	56475.07	3.3810	3.3810	0.1929	26.03	1.58	0.050			
0.8826	56487.45	3.3800	3.3800	0.1924	26.03	1.58	0.050			
0.8828	56499.75	3.3790	3.3790	0.1918	26.02	1.57	0.050			
0.8830	56512.11	3.3780	3.3780	0.1908	26.01	1.56	0.050			
0.8832	56524.32	3.3770	3.3769	0.1901	26.01	1.56	0.050			
0.8834	56536.46	3.3760	3.3760	0.1894	26.00	1.55	0.050			
0.8836	56548.56	3.3750	3.3750	0.1886	25.99	1.54	0.050			
0.8838	56560.70	3.3740	3.3740	0.1882	25.98	1.53	0.050			
0.8839	56572.71	3.3730	3.3730	0.1874	25.97	1.52	0.050			
0.8841	56584.68	3.3720	3.3721	0.1866	25.96	1.51	0.050			
0.8843	56596.56	3.3710	3.3711	0.1857	25.95	1.50	0.050			
0.8845	56608.42	3.3700	3.3700	0.1849	25.94	1.49	0.050			
0.8847	56620.23	3.3690	3.3690	0.1842	25.93	1.48	0.050			
0.8849	56632.06	3.3680	3.3680	0.1835	25.92	1.47	0.050			
0.8851	56643.76	3.3670	3.3670	0.1827	25.91	1.46	0.050			
0.8852	56655.43	3.3660	3.3660	0.1819	25.90	1.45	0.050			
0.8854	56667.04	3.3650	3.3650	0.1810	25.89	1.44	0.050			
0.8856	56678.58	3.3640	3.3640	0.1801	25.88	1.43	0.050			
0.8858	56690.08	3.3630	3.3630	0.1793	25.88	1.43	0.050			
0.8860	56701.53	3.3620	3.3620	0.1785	25.87	1.42	0.050			
0.8861	56712.85	3.3610	3.3610	0.1776	25.86	1.41	0.050			
0.8863	56724.24	3.3600	3.3600	0.1767	25.86	1.41	0.050			
0.8865	56735.52	3.3590	3.3590	0.1759	25.86	1.41	0.050			
0.8867	56746.81	3.3580	3.3580	0.1752	25.85	1.40	0.050			
0.8868	56758.00	3.3570	3.3570	0.1744	25.84	1.39	0.050			
0.8870	56769.01	3.3560	3.3560	0.1739	25.83	1.38	0.050			
0.8872	56780.12	3.3550	3.3550	0.1732	25.82	1.37	0.050			
0.8874	56791.21	3.3540	3.3540	0.1725	25.81	1.36	0.050			
0.8875	56802.22	3.3530	3.3530	0.1718	25.80	1.35	0.050			
0.8877	56813.14	3.3520	3.3519	0.1712	25.79	1.34	0.050			
0.8879	56823.94	3.3510	3.3510	0.1702	25.79	1.34	0.050			
0.8880	56834.81	3.3500	3.3500	0.1696	25.78	1.33	0.050			
0.8882	56845.72	3.3490	3.3491	0.1689	25.77	1.32	0.050			
0.8884	56856.51	3.3480	3.3479	0.1683	25.76	1.31	0.050			
0.8886	56867.23	3.3470	3.3470	0.1676	25.75	1.30	0.050			
0.8887	56877.94	3.3460	3.3460	0.1670	25.74	1.29	0.050			
0.8889	56888.55	3.3450	3.3450	0.1665	25.74	1.29	0.050			
0.8890	56899.18	3.3440	3.3441	0.1659	25.73	1.28	0.050			
0.8892	56909.78	3.3430	3.3430	0.1653	25.72	1.27	0.050			
0.8894	56920.34	3.3420	3.3420	0.1648	25.71	1.26	0.050			
0.8895	56930.93	3.3410	3.3410	0.1640	25.71	1.26	0.050			
0.8897	56941.46	3.3400	3.3400	0.1636	25.70	1.25	0.050			
0.8899	56951.91	3.3390	3.3389	0.1629	25.70	1.25	0.050			
0.8900	56962.32	3.3380	3.3381	0.1622	25.69	1.24	0.050			
0.8902	56972.72	3.3370	3.3370	0.1614	25.69	1.24	0.050			
0.8904	56983.11	3.3360	3.3359	0.1609	25.68	1.23	0.050			
0.8905	56993.39	3.3350	3.3349	0.1602	25.67	1.22	0.050			
0.8907	57003.62	3.3340	3.3341	0.1594	25.67	1.22	0.050			
0.8908	57013.86	3.3330	3.3330	0.1584	25.66	1.21	0.050			
0.8910	57023.95	3.3320	3.3320	0.1576	25.66	1.21	0.050			
0.8912	57034.01	3.3310	3.3310	0.1568	25.65	1.20	0.050			
0.8913	57044.01	3.3300	3.3301	0.1560	25.64	1.19	0.050			
0.8915	57054.08	3.3290	3.3290	0.1553	25.64	1.19	0.050			
0.8916	57063.85	3.3280	3.3280	0.1548	25.63	1.18	0.050			
0.8918	57073.73	3.3270	3.3270	0.1540	25.63	1.18	0.050			
0.8919	57083.56	3.3260	3.3260	0.1532	25.62	1.17	0.050			
0.8921	57093.39	3.3250	3.3250	0.1525	25.62	1.17	0.050			
0.8922	57103.04	3.3240	3.3240	0.1520	25.61	1.16	0.050			
0.8924	57112.74	3.3230	3.3230	0.1512	25.61	1.16	0.050			
0.8925	57122.40	3.3220	3.3220	0.1505	25.60	1.15	0.050			
0.8927	57131.82	3.3210	3.3210	0.1495	25.60	1.15	0.050			
0.8928	57141.35	3.3200	3.3200	0.1490	25.59	1.14	0.050			
0.8930	57150.87	3.3190	3.3190	0.1485	25.59	1.14	0.050			
0.8931	57160.35	3.3180	3.3179	0.1479	25.59	1.14	0.050			
0.8933	57169.75	3.3170	3.3170	0.1473	25.58	1.13	0.050			
0.8934	57179.16	3.3160	3.3160	0.1468	25.58	1.13	0.050			
0.8936	57188.54	3.3150	3.3150	0.1463	25.57	1.12	0.050			
0.8937	57197.89	3.3140	3.3140	0.1458	25.57	1.12	0.050			
0.8939	57207.17	3.3130	3.3131	0.1452	25.56	1.11	0.050			
0.8940	57216.45	3.3120	3.3120	0.1447	25.56	1.11	0.050			
0.8942	57225.71	3.3110	3.3110	0.1442	25.55	1.10	0.050			
0.8943	57234.92	3.3100	3.3100	0.1437	25.55	1.10	0.050			
0.8944	57244.10	3.3090	3.3090	0.1432	25.54	1.09	0.050			
0.8946	57253.34	3.3080	3.3080	0.1429	25.54	1.09	0.050			
0.8947	57262.44	3.3070	3.3070	0.1424	25.54	1.09	0.050			
0.8949	57271.54	3.3060	3.3060	0.1418	25.53	1.08	0.050			
0.8950	57280.60	3.3050	3.3050	0.1413	25.53	1.08	0.050			
0.8951	57289.54	3.3040	3.3040	0.1406	25.53	1.08	0.050			
0.8953	57298.52	3.3030	3.3031	0.1402	25.53	1.08	0.050			
0.8954	57307.54	3.3020	3.3020	0.1395	25.53	1.08	0.050			
0.8956	57316.45	3.3010	3.3010	0.1390	25.52	1.07	0.050			
0.8957	57325.39	3.3000	3.3000	0.1386	25.52	1.07	0.050			
0.8958	57334.24	3.2990	3.2990	0.1380	25.52	1.07	0.050			
0.8960	57343.05	3.2980	3.2980	0.1375	25.52	1.07	0.050			
0.8961	57351.82	3.2970	3.2971	0.1370	25.51	1.06	0.050			
0.8963	57360.58	3.2960	3.2960	0.1365	25.51	1.06	0.050			
0.8964	57369.30	3.2950	3.2949	0.1359	25.51	1.06	0.050			
0.8965	57377.98	3.2940	3.2940	0.1353	25.50	1.05	0.050			
0.8967	57386.55	3.2930	3.2930	0.1350	25.50	1.05	0.050			
0.8968	57395.17	3.2920	3.2920	0.1345	25.50	1.05	0.050			
0.8969	57403.73	3.2910	3.2911	0.1339	25.49	1.04	0.050			
0.8971	57412.28	3.2900	3.2900	0.1335	25.49	1.04	0.050			
0.8972	57420.81	3.2890	3.2890	0.1330	25.48	1.03	0.050			
0.8973	57429.28	3.2880	3.2880	0.1326	25.48	1.03	0.050			
0.8975	57437.70	3.2870	3.2870	0.1320	25.47	1.02	0.050			
0.8976	57446.14	3.2860	3.2860	0.1316	25.47	1.02	0.050			
0.8977	57454.54	3.2850	3.2850	0.1312	25.46	1.01	0.050			
0.8979	57462.93	3.2840	3.2840	0.1307	25.45	1.00	0.050			
0.8980	57471.36	3.2830	3.2830	0.1301	25.44	0.99	0.050			
0.8981	57479.67	3.2820	3.2820	0.1296	25.44	0.99	0.050			
0.8982	57487.95	3.2810	3.2810	0.1291	25.43	0.98	0.050			
0.8984	57496.20	3.2800	3.2800	0.1286	25.42	0.97	0.050			
0.8985	57504.41	3.2790	3.2790	0.1281	25.41	0.96	0.050			
0.8986	57512.63	3.2780	3.2780	0.1275	25.41	0.96	0.050	0.270	0.485	
0.8988	57520.87	3.2770	3.2769	0.1273	25.40	0.95	0.050			
0.8989	57529.00	3.2760	3.2759	0.1267	25.40	0.95	0.050			
0.8990	57537.09	3.2750	3.2750	0.1261	25.39	0.94	0.050			
0.8991	57545.14	3.2740	3.2740	0.1255	25.38	0.93	0.050			
0.8993	57553.16	3.2730	3.2730	0.1251	25.38	0.93	0.050			
0.8994	57561.15	3.2720	3.2720	0.1246	25.37	0.92	0.050			
0.8995	57569.10	3.2710	3.2710	0.1240	25.37	0.92	0.050			
0.8996	57577.02	3.2700	3.2700	0.1234	25.36	0.91	0.050			
0.8998	57584.90	3.2690	3.2690	0.1228	25.35	0.90	0.050			
0.8999	57592.68	3.2680	3.2680	0.1222	25.35	0.90	0.050			
0.9000	57600.39	3.2670	3.2670	0.1219	25.34	0.89	0.050			
0.9001	57608.18	3.2660	3.2660	0.1214	25.34	0.89	0.050			
0.9002	57615.93	3.2650	3.2649	0.1210	25.33	0.88	0.050			
0.9004	57623.66	3.2640	3.2640	0.1205	25.33	0.88	0.050			
0.9005	57631.24	3.2630	3.2631	0.1199	25.32	0.87	0.050			
0.9006	57638.89	3.2620	3.2620	0.1196	25.31	0.86	0.050			
0.9007	57646.53	3.2610	3.2610	0.1192	25.31	0.86	0.050			
0.9008	57654.15	3.2600	3.2600	0.1189	25.30	0.85	0.050			
0.9010	57661.75	3.2590	3.2590	0.1185	25.30	0.85	0.050			
0.9011	57669.30	3.2580	3.2580	0.1181	25.29	0.84	0.050			
0.9012	57676.85	3.2570	3.2570	0.1178	25.29	0.84	0.050			
0.9013	57684.40	3.2560	3.2560	0.1174	25.28	0.83	0.050			
0.9014	57691.90	3.2550	3.2550	0.1171	25.27	0.82	0.050			
0.9016	57699.38	3.2540	3.2540	0.1167	25.27	0.82	0.050			
0.9017	57706.82	3.2530	3.2530	0.1163	25.26	0.81	0.050			
0.9018	57714.26	3.2520	3.2520	0.1160	25.26	0.81	0.050			
0.9019	57721.80	3.2510	3.2510	0.1154	25.25	0.80	0.050			
0.9020	57729.17	3.2500	3.2500	0.1149	25.24	0.79	0.050			
0.9021	57736.51	3.2490	3.2490	0.1145	25.23	0.78	0.050			
0.9022	57743.82	3.2480	3.2480	0.1140	25.22	0.77	0.050			
0.9024	57751.23	3.2470	3.2470	0.1137	25.21	0.76	0.050			
0.9025	57758.43	3.2460	3.2461	0.1133	25.21	0.76	0.050			
0.9026	57765.67	3.2450	3.2450	0.1128	25.20	0.75	0.050			
0.9027	57772.87	3.2440	3.2440	0.1123	25.19	0.74	0.050			
0.9028	57780.04	3.2430	3.2430	0.1118	25.19	0.74	0.050			
0.9029	57787.20	3.2420	3.2420	0.1114	25.18	0.73	0.050			
0.9030	57794.31	3.2410	3.2410	0.1109	25.18	0.73	0.050			
0.9031	57801.39	3.2400	3.2401	0.1104	25.17	0.72	0.050			
0.9033	57808.36	3.2390	3.2390	0.1102	25.17	0.72	0.050			
0.9034	57815.40	3.2380	3.2379	0.1097	25.16	0.71	0.050			
0.9035	57822.41	3.2370	3.2370	0.1093	25.16	0.71	0.050			
0.9036	57829.29	3.2360	3.2360	0.1087	25.15	0.70	0.050			
0.9037	57836.24	3.2350	3.2350	0.1084	25.15	0.70	0.050			
0.9038	57843.16	3.2340	3.2339	0.1080	25.14	0.69	0.050			
0.9039	57850.06	3.2330	3.2330	0.1076	25.14	0.69	0.050			
0.9040	57856.94	3.2320	3.2321	0.1072	25.13	0.68	0.050			
0.9041	57863.71	3.2310	3.2310	0.1067	25.13	0.68	0.050			
0.9042	57870.53	3.2300	3.2299	0.1064	25.12	0.67	0.050			
0.9043	57877.33	3.2290	3.2290	0.1061	25.11	0.66	0.050			
0.9044	57884.11	3.2280	3.2280	0.1058	25.11	0.66	0.050			
0.9045	57890.96	3.2270	3.2270	0.1051	25.10	0.65	0.050			
0.9047	57897.77	3.2260	3.2259	0.1050	25.10	0.65	0.050			
0.9048	57904.48	3.2250	3.2250	0.1045	25.09	0.64	0.050			
0.9049	57911.15	3.2240	3.2241	0.1041	25.09	0.64	0.050			
0.9050	57917.80	3.2230	3.2230	0.1036	25.08	0.63	0.050			
0.9051	57924.42	3.2220	3.2220	0.1032	25.08	0.63	0.050			
0.9052	57931.00	3.2210	3.2210	0.1027	25.07	0.62	0.050			
0.9053	57937.56	3.2200	3.2200	0.1023	25.07	0.62	0.050			
0.9054	57944.13	3.2190	3.2190	0.1019	25.06	0.61	0.050			
0.9055	57950.64	3.2180	3.2180	0.1014	25.05	0.60	0.050			
0.9056	57957.11	3.2170	3.2170	0.1009	25.05	0.60	0.050			
0.9057	57963.56	3.2160	3.2160	0.1005	25.04	0.59	0.050			
0.9058	57969.97	3.2150	3.2150	0.1000	25.04	0.59	0.050			
0.9059	57976.29	3.2140	3.2140	0.0998	25.03	0.58	0.050			
0.9060	57982.59	3.2130	3.2130	0.0992	25.03	0.58	0.050			
0.9061	57988.92	3.2120	3.2120	0.0988	25.02	0.57	0.050			
0.9062	57995.24	3.2110	3.2110	0.0985	25.02	0.57	0.050			
0.9063	58001.53	3.2100	3.2100	0.0981	25.02	0.57	0.050			
0.9064	58007.79	3.2090	3.2090	0.0977	25.01	0.56	0.050			
0.9065	58014.04	3.2080	3.2080	0.0973	25.01	0.56	0.050			
0.9066	58020.20	3.2070	3.2070	0.0968	25.01	0.56	0.050			
0.9067	58026.39	3.2060	3.2059	0.0965	25.00	0.55	0.050			
0.9068	58032.55	3.2050	3.2049	0.0961	25.00	0.55	0.050			
0.9069	58038.69	3.2040	3.2041	0.0958	24.99	0.54	0.050			
0.9070	58044.81	3.2030	3.2031	0.0954	24.98	0.53	0.050			
0.9070	58050.91	3.2020	3.2021	0.0951	24.98	0.53	0.050			
0.9071	58057.02	3.2010	3.2010	0.0947	24.97	0.52	0.050			
0.9072	58063.07	3.2000	3.2000	0.0944	24.96	0.51	0.050			
0.9073	58069.10	3.1990	3.1990	0.0940	24.96	0.51	0.050			
0.9074	58075.10	3.1980	3.1980	0.0936	24.95	0.50	0.050			
0.9075	58081.08	3.1970	3.1970	0.0932	24.94	0.49	0.050			
0.9076	58087.03	3.1960	3.1960	0.0929	24.94	0.49	0.050			
0.9077	58092.97	3.1950	3.1950	0.0925	24.93	0.48	0.050			
0.9078	58098.86	3.1940	3.1940	0.0922	24.93	0.48	0.050			
0.9079	58104.75	3.1930	3.1930	0.0919	24.92	0.47	0.050			
0.9080	58110.62	3.1920	3.1920	0.0915	24.92	0.47	0.050			
0.9081	58116.46	3.1910	3.1910	0.0911	24.92	0.47	0.050			
0.9082	58122.29	3.1900	3.1900	0.0908	24.91	0.46	0.050			
0.9083	58128.08	3.1890	3.1890	0.0904	24.91	0.46	0.050			
0.9083	58133.86	3.1880	3.1880	0.0900	24.90	0.45	0.050			
0.9084	58139.48	3.1870	3.1870	0.0897	24.90	0.45	0.050			
0.9085	58145.21	3.1860	3.1860	0.0894	24.89	0.44	0.050			
0.9086	58150.92	3.1850	3.1850	0.0891	24.89	0.44	0.050			
0.9087	58156.62	3.1840	3.1840	0.0888	24.89	0.44	0.050			
0.9088	58162.29	3.1830	3.1830	0.0885	24.88	0.43	0.050			
0.9089	58167.95	3.1820	3.1820	0.0882	24.88	0.43	0.050			
0.9090	58173.56	3.1810	3.1810	0.0879	24.87	0.42	0.050			
0.9091	58179.24	3.1800	3.1801	0.0876	24.87	0.42	0.050			
0.9091	58184.83	3.1790	3.1790	0.0873	24.86	0.41	0.050			
0.9092	58190.41	3.1780	3.1779	0.0870	24.86	0.41	0.050			
0.9093	58195.96	3.1770	3.1770	0.0866	24.85	0.40	0.050			
0.9094	58201.50	3.1760	3.1760	0.0863	24.85	0.40	0.050			
0.9095	58207.06	3.1750	3.1750	0.0859	24.84	0.39	0.050			
0.9096	58212.58	3.1740	3.1740	0.0857	24.84	0.39	0.050			
0.9097	58218.05	3.1730	3.1730	0.0853	24.83	0.38	0.050			
0.9097	58223.50	3.1720	3.1720	0.0850	24.82	0.37	0.050			
0.9098	58228.93	3.1710	3.1710	0.0846	24.82	0.37	0.050			
0.9099	58234.33	3.1700	3.1700	0.0843	24.81	0.36	0.050			
0.9100	58239.71	3.1690	3.1690	0.0839	24.80	0.35	0.050			
0.9101	58245.07	3.1680	3.1680	0.0836	24.80	0.35	0.050			
0.9102	58250.43	3.1670	3.1670	0.0833	24.80	0.35	0.050			
0.9102	58255.75	3.1660	3.1660	0.0830	24.80	0.35	0.050			
0.9103	58261.05	3.1650	3.1650	0.0826	24.79	0.34	0.050			
0.9104	58266.32	3.1640	3.1640	0.0822	24.79	0.34	0.050			
0.9105	58271.58	3.1630	3.1630	0.0819	24.79	0.34	0.050			
0.9106	58276.80	3.1620	3.1620	0.0815	24.79	0.34	0.050			
0.9107	58282.01	3.1610	3.1610	0.0811	24.79	0.34	0.050			
0.9107	58287.06	3.1600	3.1600	0.0808	24.78	0.33	0.050			
0.9108	58292.22	3.1590	3.1590	0.0805	24.78	0.33	0.050			
0.9109	58297.36	3.1580	3.1580	0.0802	24.78	0.33	0.050			
0.9110	58302.49	3.1570	3.1570	0.0800	24.78	0.33	0.050			
0.9111	58307.60	3.1560	3.1560	0.0797	24.77	0.32	0.050			
0.9111	58312.66	3.1550	3.1551	0.0794	24.77	0.32	0.050			
0.9112	58317.73	3.1540	3.1541	0.0791	24.76	0.31	0.050			
0.9113	58322.83	3.1530	3.1530	0.0788	24.76	0.31	0.050			
0.9114	58327.87	3.1520	3.1520	0.0785	24.76	0.31	0.050			
0.9115	58332.88	3.1510	3.1510	0.0782	24.75	0.30	0.050			
0.9115	58337.87	3.1500	3.1500	0.0779	24.75	0.30	0.050			
0.9116	58342.85	3.1490	3.1490	0.0776	24.75	0.30	0.050			
0.9117	58347.80	3.1480	3.1479	0.0773	24.74	0.29	0.050			
0.9118	58352.76	3.1470	3.1469	0.0770	24.74	0.29	0.050			
0.9118	58357.68	3.1460	3.1460	0.0767	24.74	0.29	0.050			
0.9119	58362.54	3.1450	3.1450	0.0765	24.74	0.29	0.050			
0.9120	58367.42	3.1440	3.1441	0.0762	24.73	0.28	0.050			
0.9121	58372.29	3.1430	3.1430	0.0760	24.73	0.28	0.050			
0.9121	58377.15	3.1420	3.1420	0.0757	24.73	0.28	0.050			
0.9122	58381.98	3.1410	3.1410	0.0754	24.73	0.28	0.050			
0.9123	58386.81	3.1400	3.1400	0.0752	24.73	0.28	0.050			
0.9124	58391.61	3.1390	3.1390	0.0749	24.72	0.27	0.050			
0.9124	58396.39	3.1380	3.1380	0.0746	24.72	0.27	0.050			
0.9125	58401.16	3.1370	3.1370	0.0743	24.72	0.27	0.050			
0.9126	58405.91	3.1360	3.1360	0.0741	24.72	0.27	0.050			
0.9127	58410.64	3.1350	3.1350	0.0738	24.71	0.26	0.050			
0.9127	58415.36	3.1340	3.1340	0.0735	24.71	0.26	0.050			
0.9128	58420.00	3.1330	3.1330	0.0731	24.71	0.26	0.050			
0.9129	58424.68	3.1320	3.1320	0.0729	24.70	0.25	0.050			
0.9130	58429.33	3.1310	3.1311	0.0726	24.70	0.25	0.050			
0.9130	58433.98	3.1300	3.1301	0.0724	24.70	0.25	0.050			
0.9131	58438.62	3.1290	3.1290	0.0721	24.69	0.24	0.050			
0.9132	58443.22	3.1280	3.1280	0.0718	24.69	0.24	0.050			
0.9132	58447.81	3.1270	3.1270	0.0716	24.69	0.24	0.050			
0.9133	58452.38	3.1260	3.1260	0.0713	24.68	0.23	0.050			
0.9134	58456.99	3.1250	3.1249	0.0711	24.68	0.23	0.050			
0.9135	58461.53	3.1240	3.1240	0.0708	24.68	0.23	0.050			
0.9135	58466.05	3.1230	3.1230	0.0706	24.67	0.22	0.050			
0.9136	58470.56	3.1220	3.1220	0.0703	24.67	0.22	0.050			
0.9137	58475.03	3.1210	3.1210	0.0700	24.67	0.22	0.050			
0.9137	58479.51	3.1200	3.1200	0.0697	24.66	0.21	0.050			
0.9138	58483.96	3.1190	3.1190	0.0695	24.66	0.21	0.050			
0.9139	58488.40	3.1180	3.1180	0.0692	24.66	0.21	0.050			
0.9139	58492.79	3.1170	3.1170	0.0689	24.65	0.20	0.050			
0.9140	58497.19	3.1160	3.1160	0.0686	24.65	0.20	0.050			
0.9141	58501.57	3.1150	3.1150	0.0683	24.65	0.20	0.050			
0.9142	58505.93	3.1140	3.1140	0.0681	24.64	0.19	0.050			
0.9142	58510.28	3.1130	3.1130	0.0678	24.64	0.19	0.050			
0.9143	58514.59	3.1120	3.1120	0.0676	24.64	0.19	0.050			
0.9144	58518.91	3.1110	3.1110	0.0674	24.63	0.18	0.050			
0.9144	58523.22	3.1100	3.1100	0.0671	24.63	0.18	0.050			
0.9145	58527.50	3.1090	3.1091	0.0668	24.63	0.18	0.050			
0.9146	58531.77	3.1080	3.1080	0.0666	24.62	0.17	0.050			
0.9146	58536.02	3.1070	3.1070	0.0664	24.62	0.17	0.050			
0.9147	58540.26	3.1060	3.1060	0.0661	24.62	0.17	0.050			
0.9148	58544.48	3.1050	3.1050	0.0659	24.61	0.16	0.050			
0.9148	58548.69	3.1040	3.1040	0.0656	24.61	0.16	0.050			
0.9149	58552.90	3.1030	3.1030	0.0653	24.61	0.16	0.050			
0.9150	58557.07	3.1020	3.1020	0.0651	24.60	0.15	0.050			
0.9150	58561.23	3.1010	3.1010	0.0648	24.60	0.15	0.050			
0.9151	58565.36	3.1000	3.1000	0.0645	24.60	0.15	0.050			
0.9151	58569.49	3.0990	3.0990	0.0643	24.60	0.15	0.050			
0.9152	58573.59	3.0980	3.0980	0.0640	24.59	0.14	0.050			
0.9153	58577.68	3.0970	3.0971	0.0638	24.59	0.14	0.050			
0.9153	58581.76	3.0960	3.0961	0.0635	24.59	0.14	0.050			
0.9154	58585.81	3.0950	3.0951	0.0633	24.58	0.13	0.050			
0.9155	58589.85	3.0940	3.0941	0.0630	24.58	0.13	0.050			
0.9155	58593.88	3.0930	3.0930	0.0627	24.58	0.13	0.050			
0.9156	58597.90	3.0920	3.0920	0.0625	24.57	0.12	0.050			
0.9157	58601.89	3.0910	3.0910	0.0623	24.57	0.12	0.050			
0.9157	58605.87	3.0900	3.0900	0.0620	24.57	0.12	0.050			
0.9158	58609.83	3.0890	3.0890	0.0617	24.57	0.12	0.050			
0.9158	58613.77	3.0880	3.0880	0.0615	24.56	0.11	0.050			
0.9159	58617.70	3.0870	3.0870	0.0612	24.56	0.11	0.050			
0.9160	58621.61	3.0860	3.0860	0.0609	24.56	0.11	0.050			
0.9160	58625.50	3.0850	3.0850	0.0607	24.55	0.10	0.050			
0.9161	58629.37	3.0840	3.0840	0.0604	24.55	0.10	0.050			
0.9161	58633.17	3.0830	3.0830	0.0601	24.54	0.09	0.050			
0.9162	58637.01	3.0820	3.0820	0.0599	24.54	0.09	0.050			
0.9163	58640.84	3.0810	3.0810	0.0597	24.54	0.09	0.050			
0.9163	58644.65	3.0800	3.0801	0.0594	24.53	0.08	0.050			
0.9164	58648.45	3.0790	3.0791	0.0592	24.53	0.08	0.050			
0.9164	58652.23	3.0780	3.0780	0.0590	24.53	0.08	0.050			
0.9165	58656.00	3.0770	3.0770	0.0588	24.52	0.07	0.050			
0.9166	58659.75	3.0760	3.0760	0.0585	24.52	0.07	0.050			
0.9166	58663.49	3.0750	3.0750	0.0583	24.52	0.07	0.050			
0.9167	58667.27	3.0740	3.0739	0.0579	24.51	0.06	0.050			
0.9167	58671.01	3.0730	3.0729	0.0577	24.51	0.06	0.050			
0.9168	58674.69	3.0720	3.0720	0.0574	24.51	0.06	0.050			
0.9168	58678.36	3.0710	3.0710	0.0571	24.51	0.06	0.050			
0.9169	58682.01	3.0700	3.0700	0.0569	24.50	0.05	0.050			
0.9170	58685.64	3.0690	3.0691	0.0566	24.50	0.05	0.050			
0.9170	58689.25	3.0680	3.0681	0.0563	24.50	0.05	0.050			
0.9171	58692.84	3.0670	3.0670	0.0560	24.50	0.05	0.050			
0.9171	58696.42	3.0660	3.0660	0.0557	24.50	0.05	0.050			
0.9172	58699.98	3.0650	3.0650	0.0555	24.49	0.04	0.050			
0.9172	58703.86	3.0640	3.0639	0.0542	24.49	0.04	0.050			
0.9173	58707.49	3.0630	3.0629	0.0546	24.49	0.04	0.050			
0.9174	58710.97	3.0620	3.0619	0.0541	24.49	0.04	0.050			
0.9174	58714.42	3.0610	3.0610	0.0536	24.49	0.04	0.050			
0.9175	58717.83	3.0600	3.0600	0.0530	24.48	0.03	0.050			
0.9175	58721.21	3.0590	3.0590	0.0525	24.48	0.03	0.050			
0.9176	58724.55	3.0580	3.0580	0.0520	24.48	0.03	0.050			
0.9176	58727.86	3.0570	3.0570	0.0515	24.48	0.03	0.050			
0.9177	58731.14	3.0560	3.0560	0.0509	24.48	0.03	0.050			
0.9177	58734.38	3.0550	3.0551	0.0504	24.47	0.02	0.050			
0.9178	58737.87	3.0540	3.0540	0.0503	24.47	0.02	0.050			
0.9178	58741.07	3.0530	3.0531	0.0497	24.47	0.02	0.050			
0.9179	58744.24	3.0520	3.0521	0.0491	24.47	0.02	0.050			
0.9179	58747.36	3.0510	3.0512	0.0485	24.47	0.02	0.050			
0.9180	58750.44	3.0500	3.0502	0.0479	24.46	0.01	0.050			
0.9180	58753.48	3.0490	3.0493	0.0472	24.46	0.01	0.050			
0.9181	58756.49	3.0480	3.0483	0.0466	24.46	0.01	0.050			
0.9181	58759.45	3.0470	3.0474	0.0460	24.46	0.01	0.050			
0.9182	58762.37	3.0460	3.0464	0.0454	24.46	0.01	0.050			
0.9182	58765.26	3.0450	3.0454	0.0447	24.46	0.01	0.050			
0.9183	58768.10	3.0440	3.0445	0.0441	24.46	0.01	0.050			
0.9183	58770.90	3.0430	3.0436	0.0435	24.45	0.00	0.050			
0.9183	58773.67	3.0420	3.0426	0.0429	24.45	0.00	0.050			
0.9184	58776.39	3.0410	3.0416	0.0422	24.45	0.00	0.050			
0.9184	58779.07	3.0400	3.0406	0.0416	24.45	-0.00	0.050			
0.9185	58781.72	3.0390	3.0397	0.0410	24.45	-0.00	0.050			
0.9185	58784.32	3.0380	3.0386	0.0404	24.45	-0.00	0.050			
