Ah_balance (normalized)	Ah_balance (mAh)	Voltage - fit (V)	Voltage -  interpolate (V)	dQ/dV (1/V)	Temperature (°C)	Temperature - diff (°C)	Current (C)	R_DC 0ms (mOhm)	R_DC 50ms (mOhm)	R_DC 50 ms PEC (mOhm)
0.6208	39729.45	3.6170	3.6178	-0.2386	25.27	0.01	-0.750			
0.6215	39775.91	3.6140	3.6144	-0.2812	25.27	0.01	-0.750			
0.6224	39833.68	3.6110	3.6113	-0.3607	25.26	0.00	-0.750			
0.6235	39904.77	3.6080	3.6082	-0.4721	25.26	0.00	-0.750			
0.6249	39994.87	3.6050	3.6051	-0.5938	25.26	0.00	-0.750			
0.6268	40114.17	3.6020	3.6021	-0.7648	25.26	0.00	-0.750			
0.6291	40264.00	3.5990	3.5992	-1.0295	25.26	-0.00	-0.750			
0.6325	40481.42	3.5960	3.5958	-1.2863	25.26	-0.00	-0.750			
0.6367	40747.51	3.5930	3.5929	-1.6178	25.25	-0.01	-0.750			
0.6420	41086.75	3.5900	3.5901	-1.9444	25.25	-0.01	-0.750			
0.6484	41497.51	3.5870	3.5870	-2.1307	25.24	-0.02	-0.750			
0.6548	41909.46	3.5840	3.5840	-2.2460	25.24	-0.02	-0.750			
0.6615	42336.82	3.5810	3.5811	-2.1778	25.24	-0.02	-0.750			
0.6679	42748.45	3.5780	3.5780	-2.2198	25.24	-0.02	-0.750			
0.6749	43195.94	3.5750	3.5750	-2.3513	25.23	-0.03	-0.750			
0.6818	43635.99	3.5720	3.5720	-2.1600	25.23	-0.03	-0.750			
0.6880	44029.63	3.5690	3.5688	-1.9732	25.23	-0.03	-0.750			
0.6936	44389.24	3.5660	3.5660	-1.8575	25.23	-0.03	-0.750			
0.6991	44742.18	3.5630	3.5631	-1.8129	25.24	-0.02	-0.750			
0.7046	45092.32	3.5600	3.5600	-1.7555	25.24	-0.02	-0.750			
0.7098	45424.17	3.5570	3.5571	-1.7100	25.25	-0.01	-0.750			
0.7150	45758.57	3.5540	3.5541	-1.7025	25.25	-0.01	-0.750			
0.7200	46078.59	3.5510	3.5510	-1.6316	25.26	-0.00	-0.750			
0.7247	46380.52	3.5480	3.5480	-1.5941	25.27	0.01	-0.750			
0.7295	46689.92	3.5450	3.5450	-1.5625	25.28	0.02	-0.750			
0.7342	46990.47	3.5420	3.5422	-1.5670	25.30	0.04	-0.750			
0.7389	47289.42	3.5390	3.5388	-1.5307	25.31	0.05	-0.750			
0.7433	47571.66	3.5360	3.5361	-1.5151	25.33	0.07	-0.750			
0.7480	47872.23	3.5330	3.5328	-1.5135	25.34	0.08	-0.750			
0.7526	48163.79	3.5300	3.5302	-1.5310	25.36	0.10	-0.750			
0.7572	48457.98	3.5270	3.5269	-1.5216	25.38	0.12	-0.750			
0.7616	48744.18	3.5240	3.5239	-1.4836	25.41	0.15	-0.750			
0.7661	49032.42	3.5210	3.5211	-1.4738	25.43	0.17	-0.750			
0.7705	49314.32	3.5180	3.5179	-1.4632	25.46	0.20	-0.750			
0.7749	49590.89	3.5150	3.5149	-1.4166	25.49	0.23	-0.750			
0.7791	49859.27	3.5120	3.5122	-1.3679	25.51	0.25	-0.750			
0.7831	50116.50	3.5090	3.5090	-1.3275	25.54	0.28	-0.750			
0.7870	50367.60	3.5060	3.5059	-1.2963	25.56	0.30	-0.750			
0.7908	50613.33	3.5030	3.5032	-1.2652	25.59	0.33	-0.750			
0.7946	50852.60	3.5000	3.5004	-1.2246	25.61	0.35	-0.750	0.462	0.640	
0.7982	51083.09	3.4970	3.4970	-1.1820	25.64	0.38	-0.750			
0.8016	51305.23	3.4940	3.4940	-1.1378	25.66	0.40	-0.750			
0.8050	51520.56	3.4910	3.4911	-1.1143	25.68	0.42	-0.750			
0.8083	51731.21	3.4880	3.4880	-1.0980	25.69	0.43	-0.750			
0.8116	51940.81	3.4850	3.4849	-1.0752	25.71	0.45	-0.750			
0.8148	52146.68	3.4820	3.4820	-1.0539	25.72	0.46	-0.750			
0.8179	52348.77	3.4790	3.4790	-1.0267	25.74	0.48	-0.750			
0.8210	52543.88	3.4760	3.4760	-0.9956	25.76	0.50	-0.750			
0.8239	52731.91	3.4730	3.4730	-0.9576	25.78	0.52	-0.750			
0.8267	52911.82	3.4700	3.4700	-0.9251	25.80	0.54	-0.750			
0.8295	53085.55	3.4670	3.4671	-0.8917	25.82	0.56	-0.750			
0.8321	53252.19	3.4640	3.4640	-0.8667	25.83	0.57	-0.750			
0.8346	53413.61	3.4610	3.4610	-0.8399	25.84	0.58	-0.750			
0.8371	53571.54	3.4580	3.4580	-0.8193	25.86	0.60	-0.750			
0.8395	53727.50	3.4550	3.4549	-0.8145	25.87	0.61	-0.750			
0.8419	53881.91	3.4520	3.4521	-0.8097	25.88	0.62	-0.750			
0.8443	54034.39	3.4490	3.4489	-0.8140	25.90	0.64	-0.750			
0.8467	54187.86	3.4460	3.4460	-0.8221	25.91	0.65	-0.750			
0.8491	54344.55	3.4430	3.4430	-0.8380	25.92	0.66	-0.750			
0.8517	54507.72	3.4400	3.4399	-0.8712	25.93	0.67	-0.750			
0.8543	54674.61	3.4370	3.4371	-0.9113	25.94	0.68	-0.750			
0.8571	54851.58	3.4340	3.4340	-0.9617	25.96	0.70	-0.750			
0.8600	55037.44	3.4310	3.4310	-1.0226	25.97	0.71	-0.750			
0.8631	55240.31	3.4280	3.4279	-1.0897	25.99	0.73	-0.750			
0.8665	55458.80	3.4250	3.4251	-1.1494	26.00	0.74	-0.750			
0.8702	55692.26	3.4220	3.4220	-1.1738	26.02	0.76	-0.750			
0.8738	55923.69	3.4190	3.4190	-1.1632	26.03	0.77	-0.750			
0.8773	56147.63	3.4160	3.4159	-1.1283	26.05	0.79	-0.750			
0.8806	56357.52	3.4130	3.4129	-1.0903	26.06	0.80	-0.750			
0.8838	56562.84	3.4100	3.4100	-1.0382	26.08	0.82	-0.750			
0.8869	56758.78	3.4070	3.4069	-0.9920	26.09	0.83	-0.750			
0.8898	56944.04	3.4040	3.4040	-0.9434	26.10	0.84	-0.750			
0.8925	57121.56	3.4010	3.4010	-0.9104	26.12	0.86	-0.750			
0.8952	57291.59	3.3980	3.3979	-0.8717	26.13	0.87	-0.750			
0.8977	57453.34	3.3950	3.3949	-0.8281	26.14	0.88	-0.750			
0.9001	57608.06	3.3920	3.3921	-0.7957	26.15	0.89	-0.750			
0.9025	57760.33	3.3890	3.3891	-0.7709	26.17	0.91	-0.750			
0.9048	57904.99	3.3860	3.3859	-0.7390	26.18	0.92	-0.750			
0.9069	58042.51	3.3830	3.3829	-0.7060	26.19	0.93	-0.750			
0.9090	58173.93	3.3800	3.3800	-0.6735	26.20	0.94	-0.750			
0.9110	58302.18	3.3770	3.3771	-0.6507	26.21	0.95	-0.750			
0.9129	58425.58	3.3740	3.3738	-0.6227	26.22	0.96	-0.750			
0.9147	58541.69	3.3710	3.3709	-0.5950	26.22	0.96	-0.750			
0.9165	58652.98	3.3680	3.3681	-0.5691	26.23	0.97	-0.750			
0.9181	58758.84	3.3650	3.3649	-0.5453	26.24	0.98	-0.750			
0.9197	58861.18	3.3620	3.3620	-0.5229	26.25	0.99	-0.750			
0.9212	58957.64	3.3590	3.3590	-0.4961	26.26	1.00	-0.750			
0.9227	59052.67	3.3560	3.3560	-0.4809	26.27	1.01	-0.750			
0.9241	59143.15	3.3530	3.3530	-0.4615	26.28	1.02	-0.750			
0.9255	59229.35	3.3500	3.3500	-0.4401	26.28	1.02	-0.750			
0.9268	59312.31	3.3470	3.3469	-0.4184	26.29	1.03	-0.750			
0.9280	59390.61	3.3440	3.3440	-0.3978	26.30	1.04	-0.750			
0.9291	59463.99	3.3410	3.3410	-0.3808	26.31	1.05	-0.750			
0.9302	59535.17	3.3380	3.3380	-0.3640	26.31	1.05	-0.750			
0.9313	59602.16	3.3350	3.3349	-0.3478	26.32	1.06	-0.750			
0.9323	59667.67	3.3320	3.3320	-0.3347	26.33	1.07	-0.750			
0.9333	59731.24	3.3290	3.3291	-0.3231	26.34	1.08	-0.750			
0.9343	59792.50	3.3260	3.3260	-0.3112	26.34	1.08	-0.750			
0.9352	59850.93	3.3230	3.3230	-0.2978	26.35	1.09	-0.750			
0.9360	59906.40	3.3200	3.3199	-0.2842	26.36	1.10	-0.750			
0.9369	59959.34	3.3170	3.3171	-0.2731	26.36	1.10	-0.750			
0.9377	60010.29	3.3140	3.3140	-0.2617	26.37	1.11	-0.750			
0.9384	60059.59	3.3110	3.3110	-0.2532	26.37	1.11	-0.750			
0.9392	60107.21	3.3080	3.3079	-0.2430	26.38	1.12	-0.750			
0.9399	60152.78	3.3050	3.3051	-0.2339	26.38	1.12	-0.750			
0.9406	60197.06	3.3020	3.3020	-0.2255	26.39	1.13	-0.750			
0.9412	60239.59	3.2990	3.2991	-0.2171	26.39	1.13	-0.750			
0.9419	60280.31	3.2960	3.2959	-0.2081	26.40	1.14	-0.750			
0.9425	60318.72	3.2930	3.2931	-0.1990	26.41	1.15	-0.750			
0.9431	60355.99	3.2900	3.2900	-0.1913	26.41	1.15	-0.750			
0.9436	60391.86	3.2870	3.2871	-0.1860	26.42	1.16	-0.750			
0.9442	60426.85	3.2840	3.2839	-0.1805	26.42	1.16	-0.750			
0.9447	60460.84	3.2810	3.2808	-0.1742	26.43	1.17	-0.750			
0.9452	60493.79	3.2780	3.2780	-0.1691	26.43	1.17	-0.750			
0.9457	60525.86	3.2750	3.2751	-0.1633	26.44	1.18	-0.750			
0.9462	60556.86	3.2720	3.2721	-0.1588	26.44	1.18	-0.750			
0.9467	60586.59	3.2690	3.2689	-0.1533	26.45	1.19	-0.750			
0.9471	60615.54	3.2660	3.2660	-0.1482	26.45	1.19	-0.750			
0.9475	60642.94	3.2630	3.2630	-0.1440	26.46	1.20	-0.750			
0.9480	60670.07	3.2600	3.2601	-0.1400	26.46	1.20	-0.750			
0.9484	60696.69	3.2570	3.2569	-0.1368	26.46	1.20	-0.750			
0.9488	60722.62	3.2540	3.2540	-0.1333	26.47	1.21	-0.750			
0.9492	60747.96	3.2510	3.2510	-0.1299	26.47	1.21	-0.750			
0.9496	60772.33	3.2480	3.2481	-0.1268	26.47	1.21	-0.750			
0.9499	60796.46	3.2450	3.2449	-0.1240	26.48	1.22	-0.750			
0.9503	60819.90	3.2420	3.2419	-0.1214	26.48	1.22	-0.750			
0.9507	60842.77	3.2390	3.2390	-0.1183	26.49	1.23	-0.750			
0.9510	60865.32	3.2360	3.2359	-0.1160	26.49	1.23	-0.750			
0.9514	60887.33	3.2330	3.2330	-0.1134	26.49	1.23	-0.750			
0.9517	60908.95	3.2300	3.2300	-0.1110	26.50	1.24	-0.750			
0.9520	60929.93	3.2270	3.2270	-0.1083	26.50	1.24	-0.750			
0.9523	60950.39	3.2240	3.2239	-0.1055	26.50	1.24	-0.750			
0.9527	60970.33	3.2210	3.2211	-0.1033	26.50	1.24	-0.750			
0.9530	60989.85	3.2180	3.2180	-0.1008	26.51	1.25	-0.750			
0.9533	61008.93	3.2150	3.2151	-0.0989	26.51	1.25	-0.750			
0.9536	61027.65	3.2120	3.2119	-0.0969	26.51	1.25	-0.750			
0.9538	61046.00	3.2090	3.2089	-0.0953	26.52	1.26	-0.750			
0.9541	61063.99	3.2060	3.2061	-0.0934	26.52	1.26	-0.750			
0.9544	61081.86	3.2030	3.2029	-0.0918	26.52	1.26	-0.750			
0.9547	61099.37	3.2000	3.1999	-0.0903	26.53	1.27	-0.750			
0.9549	61116.55	3.1970	3.1971	-0.0887	26.53	1.27	-0.750			
0.9552	61133.51	3.1940	3.1941	-0.0870	26.54	1.28	-0.750			
0.9555	61150.04	3.1910	3.1909	-0.0852	26.54	1.28	-0.750			
0.9557	61166.08	3.1880	3.1880	-0.0839	26.54	1.28	-0.750			
0.9560	61182.06	3.1850	3.1851	-0.0825	26.55	1.29	-0.750			
0.9562	61197.59	3.1820	3.1819	-0.0810	26.55	1.29	-0.750			
0.9565	61213.04	3.1790	3.1790	-0.0800	26.55	1.29	-0.750			
0.9567	61228.23	3.1760	3.1761	-0.0788	26.56	1.30	-0.750			
0.9569	61243.30	3.1730	3.1730	-0.0778	26.56	1.30	-0.750			
0.9572	61258.13	3.1700	3.1700	-0.0767	26.56	1.30	-0.750			
0.9574	61272.88	3.1670	3.1669	-0.0757	26.57	1.31	-0.750			
0.9576	61287.30	3.1640	3.1640	-0.0745	26.57	1.31	-0.750			
0.9578	61301.44	3.1610	3.1610	-0.0733	26.57	1.31	-0.750			
0.9581	61315.32	3.1580	3.1580	-0.0723	26.58	1.32	-0.750			
0.9583	61329.11	3.1550	3.1550	-0.0713	26.58	1.32	-0.750			
0.9585	61342.66	3.1520	3.1520	-0.0703	26.58	1.32	-0.750			
0.9587	61356.03	3.1490	3.1491	-0.0694	26.59	1.33	-0.750			
0.9589	61369.19	3.1460	3.1460	-0.0684	26.59	1.33	-0.750			
0.9591	61382.24	3.1430	3.1430	-0.0676	26.59	1.33	-0.750			
0.9593	61395.11	3.1400	3.1401	-0.0670	26.60	1.34	-0.750			
0.9595	61407.88	3.1370	3.1370	-0.0662	26.60	1.34	-0.750			
0.9597	61420.54	3.1340	3.1340	-0.0656	26.60	1.34	-0.750			
0.9599	61433.11	3.1310	3.1310	-0.0646	26.60	1.34	-0.750			
0.9601	61445.46	3.1280	3.1280	-0.0638	26.61	1.35	-0.750			
0.9603	61457.63	3.1250	3.1253	-0.0629	26.61	1.35	-0.750			
0.9605	61469.60	3.1220	3.1220	-0.0623	26.61	1.35	-0.750			
0.9606	61481.51	3.1190	3.1188	-0.0615	26.62	1.36	-0.750			
0.9608	61493.25	3.1160	3.1160	-0.0607	26.62	1.36	-0.750			
0.9610	61504.63	3.1130	3.1129	-0.0600	26.62	1.36	-0.750			
0.9612	61516.11	3.1100	3.1102	-0.0596	26.62	1.36	-0.750			
0.9614	61527.50	3.1070	3.1068	-0.0591	26.63	1.37	-0.750			
0.9615	61539.02	3.1040	3.1040	-0.0586	26.63	1.37	-0.750			
0.9617	61550.19	3.1010	3.1010	-0.0578	26.63	1.37	-0.750			
0.9619	61561.21	3.0980	3.0981	-0.0570	26.64	1.38	-0.750			
0.9621	61571.98	3.0950	3.0951	-0.0565	26.64	1.38	-0.750			
0.9622	61582.77	3.0920	3.0920	-0.0559	26.64	1.38	-0.750			
0.9624	61593.45	3.0890	3.0890	-0.0553	26.64	1.38	-0.750			
0.9626	61604.02	3.0860	3.0859	-0.0547	26.65	1.39	-0.750			
0.9627	61614.24	3.0830	3.0829	-0.0542	26.65	1.39	-0.750			
0.9629	61624.62	3.0800	3.0801	-0.0539	26.65	1.39	-0.750			
0.9630	61634.95	3.0770	3.0770	-0.0537	26.65	1.39	-0.750			
0.9632	61645.45	3.0740	3.0741	-0.0533	26.66	1.40	-0.750			
0.9634	61655.61	3.0710	3.0708	-0.0527	26.66	1.40	-0.750			
0.9635	61665.67	3.0680	3.0680	-0.0521	26.66	1.40	-0.750			
0.9637	61675.61	3.0650	3.0652	-0.0515	26.66	1.40	-0.750			
0.9638	61685.39	3.0620	3.0621	-0.0512	26.67	1.41	-0.750			
0.9640	61695.17	3.0590	3.0590	-0.0507	26.67	1.41	-0.750			
0.9641	61704.87	3.0560	3.0559	-0.0503	26.67	1.41	-0.750			
0.9643	61714.42	3.0530	3.0531	-0.0497	26.67	1.41	-0.750			
0.9644	61723.91	3.0500	3.0500	-0.0493	26.68	1.42	-0.750			
0.9646	61733.34	3.0470	3.0471	-0.0489	26.68	1.42	-0.750			
0.9647	61742.86	3.0440	3.0441	-0.0487	26.68	1.42	-0.750			
0.9649	61752.01	3.0410	3.0410	-0.0483	26.68	1.42	-0.750			
0.9650	61761.24	3.0380	3.0379	-0.0479	26.69	1.43	-0.750			
0.9652	61770.39	3.0350	3.0349	-0.0475	26.69	1.43	-0.750			
0.9653	61779.32	3.0320	3.0321	-0.0470	26.69	1.43	-0.750			
0.9654	61788.37	3.0290	3.0290	-0.0466	26.69	1.43	-0.750			
0.9656	61797.29	3.0260	3.0260	-0.0463	26.70	1.44	-0.750			
0.9657	61806.15	3.0230	3.0230	-0.0460	26.70	1.44	-0.750			
0.9659	61815.03	3.0200	3.0202	-0.0457	26.70	1.44	-0.750			
0.9660	61823.76	3.0170	3.0169	-0.0453	26.70	1.44	-0.750			
0.9661	61832.42	3.0140	3.0140	-0.0449	26.70	1.44	-0.750			
0.9663	61841.00	3.0110	3.0110	-0.0445	26.71	1.45	-0.750			
0.9664	61849.50	3.0080	3.0080	-0.0441	26.71	1.45	-0.751			
0.9665	61857.94	3.0050	3.0050	-0.0438	26.71	1.45	-0.751			
0.9667	61866.31	3.0020	3.0020	-0.0434	26.71	1.45	-0.751			
