Ah_balance (normalized)	Ah_balance (mAh)	Voltage - fit (V)	Voltage -  interpolate (V)	dQ/dV (1/V)	Temperature (°C)	Temperature - diff (°C)	Current (C)	R_DC 0ms (mOhm)	R_DC 50ms (mOhm)	R_DC 50 ms PEC (mOhm)
0.0005	30.93	4.1590	4.1590	-0.1621	25.09	-0.01	-0.750			
0.0010	66.37	4.1560	4.1561	-0.2077	25.09	-0.01	-0.750			
0.0017	110.95	4.1530	4.1529	-0.2535	25.09	-0.01	-0.750			
0.0026	163.58	4.1500	4.1501	-0.2994	25.10	-0.00	-0.750			
0.0035	225.52	4.1470	4.1470	-0.3457	25.10	0.00	-0.750			
0.0046	296.29	4.1440	4.1440	-0.3912	25.11	0.01	-0.750			
0.0059	376.22	4.1410	4.1409	-0.4350	25.11	0.01	-0.750			
0.0073	464.16	4.1380	4.1381	-0.4790	25.12	0.02	-0.750			
0.0088	561.32	4.1350	4.1350	-0.5191	25.13	0.03	-0.750			
0.0104	665.77	4.1320	4.1320	-0.5592	25.14	0.04	-0.750			
0.0122	777.89	4.1290	4.1290	-0.5904	25.14	0.04	-0.750			
0.0140	895.98	4.1260	4.1260	-0.6186	25.15	0.05	-0.750			
0.0159	1017.95	4.1230	4.1231	-0.6424	25.16	0.06	-0.750			
0.0179	1144.82	4.1200	4.1200	-0.6635	25.17	0.07	-0.750			
0.0199	1273.23	4.1170	4.1170	-0.6822	25.18	0.08	-0.750			
0.0220	1406.14	4.1140	4.1140	-0.7010	25.19	0.09	-0.750			
0.0241	1543.32	4.1110	4.1110	-0.7113	25.20	0.10	-0.750			
0.0263	1682.03	4.1080	4.1079	-0.7231	25.21	0.11	-0.750			
0.0285	1823.15	4.1050	4.1051	-0.7344	25.22	0.12	-0.750			
0.0307	1964.82	4.1020	4.1020	-0.7397	25.24	0.14	-0.750			
0.0329	2107.38	4.0990	4.0989	-0.7497	25.26	0.16	-0.750			
0.0352	2252.09	4.0960	4.0960	-0.7546	25.28	0.18	-0.750			
0.0375	2397.39	4.0930	4.0930	-0.7611	25.30	0.20	-0.750			
0.0398	2544.81	4.0900	4.0900	-0.7693	25.31	0.21	-0.750			
0.0421	2693.50	4.0870	4.0870	-0.7730	25.33	0.23	-0.750			
0.0444	2841.90	4.0840	4.0840	-0.7788	25.35	0.25	-0.750			
0.0468	2992.13	4.0810	4.0810	-0.7827	25.37	0.27	-0.750			
0.0491	3142.41	4.0780	4.0780	-0.7850	25.39	0.29	-0.750			
0.0515	3294.72	4.0750	4.0750	-0.7917	25.41	0.31	-0.750			
0.0539	3446.75	4.0720	4.0720	-0.7923	25.43	0.33	-0.750			
0.0562	3599.40	4.0690	4.0690	-0.7926	25.45	0.35	-0.750			
0.0586	3751.87	4.0660	4.0660	-0.7961	25.47	0.37	-0.750			
0.0610	3904.33	4.0630	4.0630	-0.7962	25.49	0.39	-0.750			
0.0634	4057.78	4.0600	4.0600	-0.8002	25.51	0.41	-0.750			
0.0658	4211.33	4.0570	4.0571	-0.8015	25.52	0.42	-0.750			
0.0682	4364.68	4.0540	4.0540	-0.8053	25.55	0.45	-0.750			
0.0706	4520.71	4.0510	4.0510	-0.8093	25.57	0.47	-0.750			
0.0731	4676.50	4.0480	4.0480	-0.8103	25.59	0.49	-0.750			
0.0755	4832.82	4.0450	4.0450	-0.8125	25.61	0.51	-0.750			
0.0780	4989.14	4.0420	4.0421	-0.8120	25.62	0.52	-0.750			
0.0804	5143.33	4.0390	4.0390	-0.8195	25.64	0.54	-0.750			
0.0828	5301.69	4.0360	4.0360	-0.8234	25.67	0.57	-0.750			
0.0853	5460.40	4.0330	4.0329	-0.8209	25.69	0.59	-0.750			
0.0878	5620.17	4.0300	4.0299	-0.8240	25.71	0.61	-0.750			
0.0903	5777.93	4.0270	4.0272	-0.8237	25.74	0.64	-0.750			
0.0928	5936.55	4.0240	4.0239	-0.8221	25.76	0.66	-0.750			
0.0952	6092.87	4.0210	4.0210	-0.8235	25.78	0.68	-0.750			
0.0976	6247.90	4.0180	4.0180	-0.8223	25.80	0.70	-0.750			
0.1001	6408.77	4.0150	4.0150	-0.8313	25.82	0.72	-0.750			
0.1026	6569.45	4.0120	4.0121	-0.8344	25.84	0.74	-0.750			
0.1052	6730.20	4.0090	4.0090	-0.8353	25.86	0.76	-0.750			
0.1077	6890.46	4.0060	4.0061	-0.8326	25.88	0.78	-0.750			
0.1102	7049.96	4.0030	4.0030	-0.8345	25.90	0.80	-0.750			
0.1126	7208.92	4.0000	4.0000	-0.8364	25.92	0.82	-0.750			
0.1151	7369.34	3.9970	3.9970	-0.8387	25.94	0.84	-0.750			
0.1177	7530.83	3.9940	3.9940	-0.8456	25.96	0.86	-0.750			
0.1202	7695.23	3.9910	3.9910	-0.8549	25.99	0.89	-0.750			
0.1228	7861.75	3.9880	3.9879	-0.8543	26.01	0.91	-0.750			
0.1254	8027.18	3.9850	3.9850	-0.8536	26.04	0.94	-0.750			
0.1280	8190.65	3.9820	3.9824	-0.8509	26.05	0.95	-0.750			
0.1305	8353.24	3.9790	3.9789	-0.8540	26.07	0.97	-0.750			
0.1331	8515.62	3.9760	3.9759	-0.8531	26.10	1.00	-0.750			
0.1356	8678.47	3.9730	3.9730	-0.8524	26.12	1.02	-0.750			
0.1382	8844.45	3.9700	3.9700	-0.8631	26.15	1.05	-0.750			
0.1408	9010.12	3.9670	3.9671	-0.8655	26.16	1.06	-0.750			
0.1434	9176.56	3.9640	3.9640	-0.8691	26.19	1.09	-0.750			
0.1460	9343.33	3.9610	3.9610	-0.8715	26.22	1.12	-0.750			
0.1486	9509.75	3.9580	3.9581	-0.8742	26.24	1.14	-0.750			
0.1512	9679.89	3.9550	3.9549	-0.8786	26.27	1.17	-0.750			
0.1539	9849.34	3.9520	3.9520	-0.8792	26.29	1.19	-0.750			
0.1565	10017.64	3.9490	3.9490	-0.8843	26.31	1.21	-0.750			
0.1592	10188.61	3.9460	3.9460	-0.8878	26.34	1.24	-0.750			
0.1619	10358.87	3.9430	3.9429	-0.8878	26.36	1.26	-0.750			
0.1645	10530.02	3.9400	3.9401	-0.8899	26.38	1.28	-0.750			
0.1672	10700.86	3.9370	3.9370	-0.8913	26.40	1.30	-0.750			
0.1699	10872.75	3.9340	3.9340	-0.8952	26.42	1.32	-0.750			
0.1726	11044.42	3.9310	3.9310	-0.8939	26.44	1.34	-0.750			
0.1752	11214.94	3.9280	3.9280	-0.8923	26.47	1.37	-0.750			
0.1779	11387.36	3.9250	3.9251	-0.9008	26.48	1.38	-0.750			
0.1806	11560.58	3.9220	3.9219	-0.9020	26.51	1.41	-0.750			
0.1834	11734.47	3.9190	3.9190	-0.9045	26.54	1.44	-0.750			
0.1861	11908.21	3.9160	3.9159	-0.9057	26.57	1.47	-0.750			
0.1888	12083.47	3.9130	3.9130	-0.9107	26.59	1.49	-0.750			
0.1915	12257.99	3.9100	3.9100	-0.9141	26.61	1.51	-0.750			
0.1943	12432.88	3.9070	3.9070	-0.9158	26.63	1.53	-0.750			
0.1970	12608.59	3.9040	3.9040	-0.9126	26.66	1.56	-0.750			
0.1998	12785.97	3.9010	3.9009	-0.9156	26.68	1.58	-0.750			
0.2025	12961.71	3.8980	3.8982	-0.9170	26.70	1.60	-0.750			
0.2053	13137.31	3.8950	3.8949	-0.9211	26.72	1.62	-0.750			
0.2080	13314.79	3.8920	3.8919	-0.9199	26.74	1.64	-0.750			
0.2108	13490.73	3.8890	3.8890	-0.9175	26.77	1.67	-0.750			
0.2135	13667.20	3.8860	3.8859	-0.9220	26.79	1.69	-0.750			
0.2163	13846.23	3.8830	3.8830	-0.9276	26.83	1.73	-0.750			
0.2191	14023.35	3.8800	3.8800	-0.9288	26.85	1.75	-0.750			
0.2219	14200.69	3.8770	3.8770	-0.9297	26.87	1.77	-0.750			
0.2247	14380.72	3.8740	3.8740	-0.9326	26.89	1.79	-0.750			
0.2275	14560.46	3.8710	3.8710	-0.9337	26.91	1.81	-0.750			
0.2303	14738.03	3.8680	3.8681	-0.9384	26.93	1.83	-0.750			
0.2331	14918.13	3.8650	3.8649	-0.9395	26.96	1.86	-0.750			
0.2359	15098.81	3.8620	3.8620	-0.9414	26.98	1.88	-0.750			
0.2388	15280.67	3.8590	3.8589	-0.9395	27.01	1.91	-0.750			
0.2416	15462.41	3.8560	3.8561	-0.9420	27.02	1.92	-0.750			
0.2444	15643.60	3.8530	3.8530	-0.9469	27.04	1.94	-0.750			
0.2473	15825.00	3.8500	3.8499	-0.9440	27.07	1.97	-0.750			
0.2501	16004.69	3.8470	3.8469	-0.9383	27.09	1.99	-0.750			
0.2529	16186.78	3.8440	3.8442	-0.9439	27.12	2.02	-0.750			
0.2558	16368.00	3.8410	3.8410	-0.9482	27.14	2.04	-0.750			
0.2586	16550.17	3.8380	3.8380	-0.9482	27.16	2.06	-0.750			
0.2614	16730.99	3.8350	3.8350	-0.9434	27.18	2.08	-0.750			
0.2643	16912.60	3.8320	3.8320	-0.9497	27.20	2.10	-0.750			
0.2671	17095.39	3.8290	3.8289	-0.9505	27.22	2.12	-0.750			
0.2700	17278.21	3.8260	3.8260	-0.9560	27.25	2.15	-0.750			
0.2728	17462.39	3.8230	3.8230	-0.9520	27.27	2.17	-0.750			
0.2757	17644.95	3.8200	3.8200	-0.9520	27.29	2.19	-0.750			
0.2786	17828.91	3.8170	3.8172	-0.9547	27.32	2.22	-0.750			
0.2814	18012.49	3.8140	3.8139	-0.9588	27.34	2.24	-0.750			
0.2843	18195.77	3.8110	3.8109	-0.9559	27.36	2.26	-0.750			
0.2872	18378.09	3.8080	3.8080	-0.9544	27.38	2.28	-0.750			
0.2901	18563.81	3.8050	3.8052	-0.9603	27.41	2.31	-0.750			
0.2929	18748.18	3.8020	3.8019	-0.9632	27.43	2.33	-0.750			
0.2958	18932.47	3.7990	3.7990	-0.9591	27.45	2.35	-0.750			
0.2987	19116.26	3.7960	3.7960	-0.9594	27.47	2.37	-0.750			
0.3015	19298.85	3.7930	3.7930	-0.9604	27.49	2.39	-0.750			
0.3045	19485.99	3.7900	3.7899	-0.9642	27.51	2.41	-0.750			
0.3074	19672.48	3.7870	3.7870	-0.9710	27.53	2.43	-0.750			
0.3103	19859.76	3.7840	3.7839	-0.9727	27.55	2.45	-0.750			
0.3132	20047.10	3.7810	3.7809	-0.9722	27.57	2.47	-0.750			
0.3162	20235.24	3.7780	3.7782	-0.9722	27.59	2.49	-0.750			
0.3191	20420.79	3.7750	3.7749	-0.9729	27.61	2.51	-0.750			
0.3220	20606.71	3.7720	3.7719	-0.9717	27.63	2.53	-0.750			
0.3248	20790.25	3.7690	3.7690	-0.9650	27.66	2.56	-0.750			
0.3278	20979.17	3.7660	3.7662	-0.9772	27.68	2.58	-0.750			
0.3307	21166.77	3.7630	3.7630	-0.9827	27.70	2.60	-0.750			
0.3337	21355.83	3.7600	3.7600	-0.9880	27.72	2.62	-0.750			
0.3366	21545.29	3.7570	3.7570	-0.9910	27.74	2.64	-0.750			
0.3396	21737.00	3.7540	3.7540	-0.9991	27.76	2.66	-0.750			
0.3426	21929.06	3.7510	3.7510	-1.0095	27.77	2.67	-0.750			
0.3457	22124.96	3.7480	3.7479	-1.0136	27.79	2.69	-0.750			
0.3487	22319.36	3.7450	3.7450	-1.0182	27.81	2.71	-0.750			
0.3518	22514.57	3.7420	3.7419	-1.0218	27.83	2.73	-0.750			
0.3549	22712.06	3.7390	3.7390	-1.0323	27.85	2.75	-0.750			
0.3580	22911.04	3.7360	3.7359	-1.0388	27.86	2.76	-0.750			
0.3611	23109.83	3.7330	3.7330	-1.0427	27.88	2.78	-0.750			
0.3642	23308.98	3.7300	3.7300	-1.0476	27.89	2.79	-0.750			
0.3674	23514.48	3.7270	3.7270	-1.0657	27.91	2.81	-0.750			
0.3706	23718.63	3.7240	3.7240	-1.0725	27.92	2.82	-0.750			
0.3738	23924.53	3.7210	3.7210	-1.0840	27.94	2.84	-0.750			
0.3771	24132.92	3.7180	3.7180	-1.0987	27.96	2.86	-0.750			
0.3804	24345.88	3.7150	3.7150	-1.1212	27.97	2.87	-0.750			
0.3838	24564.49	3.7120	3.7120	-1.1335	27.98	2.88	-0.750			
0.3873	24784.88	3.7090	3.7089	-1.1438	27.99	2.89	-0.750			
0.3907	25004.35	3.7060	3.7062	-1.1587	28.00	2.90	-0.750			
0.3942	25227.48	3.7030	3.7029	-1.1744	28.01	2.91	-0.750			
0.3977	25453.94	3.7000	3.7000	-1.1868	28.02	2.92	-0.750			
0.4013	25680.52	3.6970	3.6969	-1.2050	28.03	2.93	-0.750			
0.4049	25915.72	3.6940	3.6940	-1.2288	28.04	2.94	-0.750			
0.4087	26154.63	3.6910	3.6910	-1.2488	28.05	2.95	-0.750			
0.4124	26395.76	3.6880	3.6880	-1.2694	28.06	2.96	-0.750			
0.4162	26636.96	3.6850	3.6851	-1.3032	28.07	2.97	-0.750			
0.4202	26892.01	3.6820	3.6820	-1.3214	28.08	2.98	-0.750			
0.4242	27148.96	3.6790	3.6789	-1.3500	28.09	2.99	-0.750			
0.4283	27409.26	3.6760	3.6762	-1.3778	28.10	3.00	-0.750			
0.4325	27678.31	3.6730	3.6729	-1.4030	28.09	2.99	-0.750			
0.4367	27948.86	3.6700	3.6700	-1.4302	28.09	2.99	-0.750			
0.4410	28221.60	3.6670	3.6671	-1.4595	28.08	2.98	-0.750			
0.4455	28510.56	3.6640	3.6639	-1.4930	28.09	2.99	-0.750			
0.4500	28797.29	3.6610	3.6610	-1.5401	28.10	3.00	-0.750			
0.4547	29099.68	3.6580	3.6580	-1.5720	28.09	2.99	-0.750			
0.4594	29401.99	3.6550	3.6549	-1.6102	28.08	2.98	-0.750			
0.4643	29714.02	3.6520	3.6519	-1.6434	28.06	2.96	-0.750			
0.4693	30033.85	3.6490	3.6489	-1.6832	28.05	2.95	-0.750			
0.4744	30359.67	3.6460	3.6459	-1.7204	28.04	2.94	-0.750			
0.4797	30699.24	3.6430	3.6430	-1.7798	28.03	2.93	-0.750			
0.4850	31040.95	3.6400	3.6401	-1.8123	28.02	2.92	-0.750			
0.4905	31394.13	3.6370	3.6368	-1.8567	28.02	2.92	-0.750			
0.4963	31760.49	3.6340	3.6341	-2.0688	28.02	2.92	-0.750			
