Ah_balance (normalized)	Ah_balance (mAh)	Voltage - fit (V)	Voltage -  interpolate (V)	dQ/dV (1/V)	Temperature (°C)	Temperature - diff (°C)	Current (C)	R_DC 0ms (mOhm)	R_DC 50ms (mOhm)	R_DC 50 ms PEC (mOhm)
-0.0055	-351.13	4.1990	4.1989	0.8365	24.14	-0.09	0.050			
-0.0046	-297.50	4.1980	4.1980	0.8410	24.14	-0.09	0.050			
-0.0038	-243.66	4.1970	4.1970	0.8419	24.15	-0.08	0.050			
-0.0030	-189.72	4.1960	4.1959	0.8430	24.15	-0.08	0.050			
-0.0021	-135.60	4.1950	4.1950	0.8443	24.14	-0.09	0.050			
-0.0013	-81.49	4.1940	4.1941	0.8449	24.13	-0.10	0.050			
-0.0004	-27.57	4.1930	4.1930	0.8456	24.13	-0.10	0.050			
0.0004	26.80	4.1920	4.1920	0.8461	24.13	-0.10	0.050			
0.0013	81.03	4.1910	4.1910	0.8464	24.13	-0.10	0.050			
0.0021	135.05	4.1900	4.1900	0.8473	24.13	-0.10	0.050			
0.0030	189.47	4.1890	4.1890	0.8491	24.13	-0.10	0.050			
0.0038	243.72	4.1880	4.1880	0.8491	24.13	-0.10	0.050			
0.0047	297.95	4.1870	4.1870	0.8499	24.13	-0.10	0.050			
0.0055	352.42	4.1860	4.1860	0.8509	24.13	-0.10	0.050			
0.0064	406.78	4.1850	4.1850	0.8512	24.13	-0.10	0.050			
0.0072	461.27	4.1840	4.1840	0.8511	24.13	-0.10	0.050	0.291	0.521	
0.0081	515.88	4.1830	4.1831	0.8515	24.13	-0.10	0.050			
0.0089	570.57	4.1820	4.1820	0.8521	24.12	-0.11	0.050			
0.0098	624.97	4.1810	4.1810	0.8527	24.11	-0.12	0.050			
0.0106	679.57	4.1800	4.1800	0.8536	24.11	-0.12	0.050			
0.0115	734.38	4.1790	4.1790	0.8538	24.11	-0.12	0.050			
0.0123	789.21	4.1780	4.1780	0.8540	24.11	-0.12	0.050			
0.0132	843.90	4.1770	4.1770	0.8550	24.10	-0.13	0.050			
0.0140	898.56	4.1760	4.1761	0.8549	24.10	-0.13	0.050			
0.0149	953.27	4.1750	4.1750	0.8556	24.09	-0.14	0.050			
0.0158	1008.21	4.1740	4.1740	0.8559	24.09	-0.14	0.050			
0.0166	1062.71	4.1730	4.1730	0.8563	24.09	-0.14	0.050			
0.0175	1117.68	4.1720	4.1720	0.8569	24.08	-0.15	0.050			
0.0183	1172.60	4.1710	4.1710	0.8571	24.08	-0.15	0.050			
0.0192	1227.17	4.1700	4.1701	0.8565	24.07	-0.16	0.050			
0.0200	1281.86	4.1690	4.1690	0.8574	24.07	-0.16	0.050			
0.0209	1336.82	4.1680	4.1679	0.8578	24.07	-0.16	0.050			
0.0217	1391.68	4.1670	4.1670	0.8586	24.07	-0.16	0.050			
0.0226	1446.71	4.1660	4.1660	0.8593	24.06	-0.17	0.050			
0.0235	1501.82	4.1650	4.1650	0.8600	24.06	-0.17	0.050			
0.0243	1556.96	4.1640	4.1640	0.8608	24.05	-0.18	0.050			
0.0252	1612.17	4.1630	4.1631	0.8613	24.05	-0.18	0.050			
0.0261	1667.39	4.1620	4.1620	0.8612	24.05	-0.18	0.050			
0.0269	1722.31	4.1610	4.1609	0.8614	24.05	-0.18	0.050			
0.0278	1777.64	4.1600	4.1599	0.8618	24.06	-0.17	0.050			
0.0286	1832.88	4.1590	4.1591	0.8627	24.06	-0.17	0.050			
0.0295	1888.21	4.1580	4.1580	0.8625	24.05	-0.18	0.050			
0.0304	1943.35	4.1570	4.1570	0.8626	24.05	-0.18	0.050			
0.0312	1998.68	4.1560	4.1561	0.8624	24.05	-0.18	0.050			
0.0321	2054.05	4.1550	4.1549	0.8619	24.06	-0.17	0.050			
0.0330	2109.13	4.1540	4.1541	0.8616	24.06	-0.17	0.050			
0.0338	2164.16	4.1530	4.1530	0.8621	24.06	-0.17	0.050			
0.0347	2219.46	4.1520	4.1519	0.8626	24.07	-0.16	0.050			
0.0355	2274.61	4.1510	4.1511	0.8626	24.07	-0.16	0.050			
0.0364	2329.64	4.1500	4.1500	0.8625	24.07	-0.16	0.050			
0.0373	2384.88	4.1490	4.1491	0.8623	24.07	-0.16	0.050			
0.0381	2440.07	4.1480	4.1479	0.8623	24.08	-0.15	0.050			
0.0390	2495.23	4.1470	4.1470	0.8624	24.09	-0.14	0.050			
0.0398	2550.33	4.1460	4.1460	0.8624	24.09	-0.14	0.050			
0.0407	2605.42	4.1450	4.1450	0.8632	24.10	-0.13	0.050			
0.0416	2660.50	4.1440	4.1441	0.8639	24.11	-0.12	0.050			
0.0424	2715.85	4.1430	4.1431	0.8640	24.11	-0.12	0.050			
0.0433	2771.21	4.1420	4.1420	0.8651	24.11	-0.12	0.050			
0.0442	2826.44	4.1410	4.1410	0.8657	24.11	-0.12	0.050			
0.0450	2881.79	4.1400	4.1400	0.8661	24.11	-0.12	0.050			
0.0459	2937.31	4.1390	4.1390	0.8668	24.12	-0.11	0.050			
0.0468	2992.78	4.1380	4.1380	0.8680	24.12	-0.11	0.050			
0.0476	3048.37	4.1370	4.1370	0.8684	24.11	-0.12	0.050	0.374	0.496	
0.0485	3104.19	4.1360	4.1360	0.8684	24.11	-0.12	0.050			
0.0494	3159.76	4.1350	4.1350	0.8692	24.11	-0.12	0.050			
0.0502	3215.38	4.1340	4.1340	0.8699	24.11	-0.12	0.050			
0.0511	3270.71	4.1330	4.1329	0.8702	24.11	-0.12	0.050			
0.0520	3326.55	4.1320	4.1320	0.8721	24.10	-0.13	0.050			
0.0528	3382.32	4.1310	4.1310	0.8728	24.10	-0.13	0.050			
0.0537	3438.45	4.1300	4.1300	0.8733	24.09	-0.14	0.050			
0.0546	3494.58	4.1290	4.1290	0.8739	24.09	-0.14	0.050			
0.0555	3550.60	4.1280	4.1280	0.8742	24.09	-0.14	0.050			
0.0563	3606.34	4.1270	4.1270	0.8748	24.07	-0.16	0.050			
0.0572	3662.30	4.1260	4.1260	0.8756	24.09	-0.14	0.050			
0.0581	3718.37	4.1250	4.1250	0.8752	24.07	-0.16	0.050			
0.0590	3774.62	4.1240	4.1241	0.8754	24.07	-0.16	0.050			
0.0599	3830.72	4.1230	4.1230	0.8755	24.06	-0.17	0.050			
0.0607	3886.74	4.1220	4.1220	0.8759	24.06	-0.17	0.050			
0.0616	3942.84	4.1210	4.1211	0.8768	24.05	-0.18	0.050			
0.0625	3999.01	4.1200	4.1200	0.8771	24.05	-0.18	0.050			
0.0634	4055.11	4.1190	4.1189	0.8773	24.05	-0.18	0.050			
0.0642	4111.32	4.1180	4.1180	0.8774	24.05	-0.18	0.050			
0.0651	4167.52	4.1170	4.1170	0.8780	24.05	-0.18	0.050			
0.0660	4223.74	4.1160	4.1160	0.8784	24.05	-0.18	0.050			
0.0669	4279.67	4.1150	4.1150	0.8778	24.04	-0.19	0.050			
0.0677	4335.70	4.1140	4.1140	0.8779	24.04	-0.19	0.050	0.319	0.527	
0.0686	4392.05	4.1130	4.1130	0.8779	24.04	-0.19	0.050			
0.0695	4448.29	4.1120	4.1120	0.8780	24.05	-0.18	0.050			
0.0704	4504.53	4.1110	4.1110	0.8793	24.05	-0.18	0.050			
0.0713	4560.87	4.1100	4.1100	0.8800	24.04	-0.19	0.050			
0.0721	4617.22	4.1090	4.1090	0.8805	24.05	-0.18	0.050			
0.0730	4673.33	4.1080	4.1080	0.8813	24.05	-0.18	0.050			
0.0739	4729.52	4.1070	4.1070	0.8815	24.05	-0.18	0.050			
0.0748	4785.91	4.1060	4.1061	0.8826	24.05	-0.18	0.050			
0.0757	4842.72	4.1050	4.1050	0.8838	24.05	-0.18	0.050			
0.0766	4899.26	4.1040	4.1040	0.8846	24.05	-0.18	0.050			
0.0774	4955.71	4.1030	4.1030	0.8852	24.05	-0.18	0.050			
0.0783	5012.08	4.1020	4.1019	0.8869	24.05	-0.18	0.050			
0.0792	5068.86	4.1010	4.1010	0.8874	24.05	-0.18	0.050			
0.0801	5126.08	4.1000	4.1000	0.8876	24.04	-0.19	0.050			
0.0810	5183.10	4.0990	4.0990	0.8881	24.04	-0.19	0.050			
0.0819	5240.25	4.0980	4.0980	0.8882	24.03	-0.20	0.050			
0.0828	5297.19	4.0970	4.0970	0.8889	24.03	-0.20	0.050			
0.0837	5354.24	4.0960	4.0961	0.8889	24.03	-0.20	0.050			
0.0846	5411.21	4.0950	4.0950	0.8893	24.01	-0.22	0.050			
0.0854	5468.01	4.0940	4.0940	0.8899	24.02	-0.21	0.050			
0.0863	5524.97	4.0930	4.0930	0.8908	24.01	-0.22	0.050			
0.0872	5582.16	4.0920	4.0921	0.8908	24.01	-0.22	0.050	0.391	0.536	
0.0881	5638.89	4.0910	4.0910	0.8900	24.00	-0.23	0.050			
0.0890	5695.88	4.0900	4.0900	0.8903	24.01	-0.22	0.050			
0.0899	5752.82	4.0890	4.0889	0.8903	24.01	-0.22	0.050			
0.0908	5809.57	4.0880	4.0879	0.8905	24.01	-0.22	0.050			
0.0917	5866.53	4.0870	4.0871	0.8907	24.01	-0.22	0.050			
0.0926	5923.35	4.0860	4.0860	0.8915	24.01	-0.22	0.050			
0.0934	5980.47	4.0850	4.0850	0.8925	24.00	-0.23	0.050			
0.0943	6037.31	4.0840	4.0839	0.8925	24.01	-0.22	0.050			
0.0952	6094.47	4.0830	4.0830	0.8938	24.01	-0.22	0.050			
0.0961	6151.59	4.0820	4.0820	0.8943	24.01	-0.22	0.050			
0.0970	6208.90	4.0810	4.0809	0.8954	24.01	-0.22	0.050			
0.0979	6266.75	4.0800	4.0800	0.8972	24.01	-0.22	0.050			
0.0988	6324.12	4.0790	4.0790	0.8981	24.01	-0.22	0.050			
0.0997	6381.62	4.0780	4.0780	0.8986	24.01	-0.22	0.050			
0.1006	6438.97	4.0770	4.0770	0.8988	24.02	-0.21	0.050			
0.1015	6496.62	4.0760	4.0760	0.8998	24.02	-0.21	0.050			
0.1024	6554.12	4.0750	4.0750	0.9002	24.02	-0.21	0.050			
0.1033	6611.85	4.0740	4.0739	0.9005	24.03	-0.20	0.050			
0.1042	6669.58	4.0730	4.0730	0.9018	24.03	-0.20	0.050			
0.1051	6727.45	4.0720	4.0720	0.9020	24.03	-0.20	0.050			
0.1060	6785.56	4.0710	4.0711	0.9023	24.03	-0.20	0.050			
0.1069	6843.36	4.0700	4.0700	0.9022	24.03	-0.20	0.050			
0.1078	6901.27	4.0690	4.0691	0.9022	24.03	-0.20	0.050	0.340	0.459	
0.1087	6958.79	4.0680	4.0680	0.9026	24.03	-0.20	0.050			
0.1096	7016.46	4.0670	4.0671	0.9027	24.04	-0.19	0.050			
0.1105	7074.21	4.0660	4.0661	0.9028	24.04	-0.19	0.050			
0.1114	7132.07	4.0650	4.0649	0.9033	24.04	-0.19	0.050			
0.1123	7189.94	4.0640	4.0640	0.9032	24.05	-0.18	0.050			
0.1132	7247.55	4.0630	4.0630	0.9036	24.05	-0.18	0.050			
0.1141	7305.33	4.0620	4.0621	0.9041	24.05	-0.18	0.050			
0.1150	7363.15	4.0610	4.0609	0.9043	24.05	-0.18	0.050			
0.1160	7420.96	4.0600	4.0601	0.9047	24.06	-0.17	0.050			
0.1169	7478.70	4.0590	4.0590	0.9054	24.06	-0.17	0.050			
0.1178	7536.52	4.0580	4.0580	0.9062	24.06	-0.17	0.050			
0.1187	7594.59	4.0570	4.0571	0.9068	24.07	-0.16	0.050			
0.1196	7652.59	4.0560	4.0560	0.9080	24.07	-0.16	0.050			
0.1205	7710.70	4.0550	4.0550	0.9090	24.09	-0.14	0.050			
0.1214	7768.82	4.0540	4.0540	0.9097	24.09	-0.14	0.050			
0.1223	7827.07	4.0530	4.0531	0.9113	24.09	-0.14	0.050			
0.1232	7885.40	4.0520	4.0520	0.9131	24.09	-0.14	0.050			
0.1241	7944.04	4.0510	4.0510	0.9147	24.11	-0.12	0.050			
0.1250	8002.37	4.0500	4.0500	0.9157	24.10	-0.13	0.050			
0.1260	8061.18	4.0490	4.0490	0.9165	24.11	-0.12	0.050			
0.1269	8119.68	4.0480	4.0480	0.9174	24.11	-0.12	0.050			
0.1278	8178.61	4.0470	4.0470	0.9183	24.11	-0.12	0.050	0.439	0.570	
0.1287	8237.74	4.0460	4.0460	0.9194	24.11	-0.12	0.050			
0.1296	8296.76	4.0450	4.0450	0.9203	24.11	-0.12	0.050			
0.1306	8355.70	4.0440	4.0439	0.9210	24.11	-0.12	0.050			
0.1315	8414.60	4.0430	4.0430	0.9218	24.11	-0.12	0.050			
0.1324	8473.64	4.0420	4.0420	0.9230	24.10	-0.13	0.050			
0.1333	8532.97	4.0410	4.0410	0.9235	24.10	-0.13	0.050			
0.1342	8591.93	4.0400	4.0401	0.9238	24.09	-0.14	0.050			
0.1352	8651.10	4.0390	4.0389	0.9246	24.09	-0.14	0.050			
0.1361	8710.56	4.0380	4.0380	0.9248	24.09	-0.14	0.050			
0.1370	8769.71	4.0370	4.0369	0.9255	24.08	-0.15	0.050			
0.1379	8828.61	4.0360	4.0360	0.9261	24.09	-0.14	0.050			
0.1389	8887.86	4.0350	4.0350	0.9268	24.09	-0.14	0.050			
0.1398	8946.94	4.0340	4.0341	0.9283	24.07	-0.16	0.050			
0.1407	9006.21	4.0330	4.0330	0.9284	24.07	-0.16	0.050			
0.1417	9065.98	4.0320	4.0321	0.9286	24.06	-0.17	0.050			
0.1426	9125.32	4.0310	4.0309	0.9299	24.06	-0.17	0.050			
0.1435	9184.88	4.0300	4.0300	0.9311	24.05	-0.18	0.050			
0.1444	9244.74	4.0290	4.0290	0.9320	24.06	-0.17	0.050			
0.1454	9304.43	4.0280	4.0280	0.9326	24.06	-0.17	0.050			
0.1463	9364.07	4.0270	4.0270	0.9334	24.07	-0.16	0.050			
0.1472	9423.98	4.0260	4.0259	0.9340	24.05	-0.18	0.050	0.484	0.527	
0.1482	9483.47	4.0250	4.0250	0.9360	24.05	-0.18	0.050			
0.1491	9543.35	4.0240	4.0241	0.9363	24.06	-0.17	0.050			
0.1501	9603.28	4.0230	4.0230	0.9378	24.07	-0.16	0.050			
0.1510	9663.31	4.0220	4.0219	0.9389	24.07	-0.16	0.050			
0.1519	9723.44	4.0210	4.0210	0.9401	24.06	-0.17	0.050			
0.1529	9783.79	4.0200	4.0201	0.9409	24.07	-0.16	0.050			
0.1538	9844.12	4.0190	4.0189	0.9414	24.07	-0.16	0.050			
0.1548	9904.45	4.0180	4.0180	0.9429	24.07	-0.16	0.050			
0.1557	9964.86	4.0170	4.0170	0.9427	24.08	-0.15	0.050			
0.1566	10025.10	4.0160	4.0160	0.9435	24.09	-0.14	0.050			
0.1576	10085.37	4.0150	4.0151	0.9446	24.09	-0.14	0.050			
0.1585	10145.91	4.0140	4.0140	0.9463	24.10	-0.13	0.050			
0.1595	10206.74	4.0130	4.0131	0.9475	24.10	-0.13	0.050			
0.1604	10267.59	4.0120	4.0121	0.9489	24.11	-0.12	0.050			
0.1614	10328.05	4.0110	4.0110	0.9491	24.11	-0.12	0.050			
0.1623	10388.87	4.0100	4.0100	0.9503	24.11	-0.12	0.050			
0.1633	10449.86	4.0090	4.0090	0.9520	24.12	-0.11	0.050			
0.1642	10510.67	4.0080	4.0080	0.9525	24.11	-0.12	0.050			
0.1652	10571.34	4.0070	4.0070	0.9540	24.13	-0.10	0.050			
0.1661	10632.42	4.0060	4.0060	0.9549	24.12	-0.11	0.050			
0.1671	10693.30	4.0050	4.0051	0.9555	24.13	-0.10	0.050			
0.1680	10754.81	4.0040	4.0041	0.9567	24.13	-0.10	0.050	0.425	0.604	
0.1690	10816.08	4.0030	4.0030	0.9583	24.13	-0.10	0.050			
0.1700	10877.58	4.0020	4.0020	0.9600	24.13	-0.10	0.050			
0.1709	10939.15	4.0010	4.0010	0.9611	24.12	-0.11	0.050			
0.1719	11000.95	4.0000	4.0000	0.9626	24.11	-0.12	0.050			
0.1729	11062.56	3.9990	3.9991	0.9635	24.11	-0.12	0.050			
0.1738	11124.44	3.9980	3.9980	0.9645	24.11	-0.12	0.050			
0.1748	11186.20	3.9970	3.9971	0.9656	24.11	-0.12	0.050			
0.1757	11247.89	3.9960	3.9960	0.9665	24.11	-0.12	0.050			
0.1767	11309.50	3.9950	3.9950	0.9673	24.11	-0.12	0.050			
0.1777	11371.63	3.9940	3.9940	0.9692	24.10	-0.13	0.050			
0.1786	11433.44	3.9930	3.9930	0.9707	24.09	-0.14	0.050			
0.1796	11495.59	3.9920	3.9920	0.9715	24.09	-0.14	0.050			
0.1806	11557.78	3.9910	3.9910	0.9727	24.08	-0.15	0.050			
0.1816	11620.00	3.9900	3.9900	0.9736	24.07	-0.16	0.050			
0.1825	11682.42	3.9890	3.9890	0.9744	24.07	-0.16	0.050			
0.1835	11745.09	3.9880	3.9880	0.9758	24.06	-0.17	0.050			
0.1845	11807.45	3.9870	3.9870	0.9762	24.05	-0.18	0.050			
0.1855	11870.42	3.9860	3.9860	0.9764	24.05	-0.18	0.050			
0.1865	11933.20	3.9850	3.9850	0.9767	24.03	-0.20	0.050			
0.1874	11995.92	3.9840	3.9840	0.9775	24.03	-0.20	0.050	0.298	0.527	
0.1884	12058.64	3.9830	3.9830	0.9771	24.03	-0.20	0.050			
0.1894	12121.19	3.9820	3.9820	0.9771	24.02	-0.21	0.050			
0.1904	12183.70	3.9810	3.9811	0.9773	24.01	-0.22	0.050			
0.1914	12246.42	3.9800	3.9800	0.9770	24.01	-0.22	0.050			
0.1923	12308.96	3.9790	3.9790	0.9776	24.01	-0.22	0.050			
0.1933	12371.33	3.9780	3.9780	0.9771	24.01	-0.22	0.050			
0.1943	12433.67	3.9770	3.9770	0.9783	24.01	-0.22	0.050			
0.1952	12495.83	3.9760	3.9760	0.9781	24.01	-0.22	0.050			
0.1962	12557.88	3.9750	3.9750	0.9791	24.01	-0.22	0.050			
0.1972	12620.35	3.9740	3.9740	0.9804	24.01	-0.22	0.050			
0.1982	12682.85	3.9730	3.9729	0.9815	24.01	-0.22	0.050			
0.1991	12745.56	3.9720	3.9719	0.9833	24.02	-0.21	0.050			
0.2001	12808.41	3.9710	3.9710	0.9852	24.03	-0.20	0.050			
0.2011	12871.78	3.9700	3.9700	0.9862	24.02	-0.21	0.050			
0.2021	12935.31	3.9690	3.9689	0.9874	24.04	-0.19	0.050			
0.2031	12998.55	3.9680	3.9680	0.9892	24.04	-0.19	0.050			
0.2041	13061.98	3.9670	3.9670	0.9916	24.05	-0.18	0.050			
0.2051	13125.90	3.9660	3.9659	0.9928	24.05	-0.18	0.050			
0.2061	13189.39	3.9650	3.9650	0.9949	24.06	-0.17	0.050			
0.2071	13252.92	3.9640	3.9640	0.9964	24.07	-0.16	0.050			
0.2081	13316.95	3.9630	3.9630	0.9974	24.07	-0.16	0.050	0.433	0.537	
0.2091	13381.18	3.9620	3.9620	0.9978	24.07	-0.16	0.050			
0.2101	13445.34	3.9610	3.9610	0.9983	24.09	-0.14	0.050			
0.2111	13509.42	3.9600	3.9599	0.9990	24.09	-0.14	0.050			
0.2121	13573.34	3.9590	3.9589	0.9985	24.09	-0.14	0.050			
0.2131	13637.21	3.9580	3.9580	0.9979	24.09	-0.14	0.050			
0.2141	13700.97	3.9570	3.9570	0.9984	24.09	-0.14	0.050			
0.2151	13764.49	3.9560	3.9559	1.0000	24.09	-0.14	0.050			
0.2161	13828.46	3.9550	3.9552	1.0003	24.09	-0.14	0.050			
0.2171	13892.09	3.9540	3.9540	1.0026	24.09	-0.14	0.050			
0.2181	13956.42	3.9530	3.9530	1.0039	24.09	-0.14	0.050			
0.2191	14020.74	3.9520	3.9520	1.0041	24.09	-0.14	0.050			
0.2201	14085.19	3.9510	3.9509	1.0045	24.09	-0.14	0.050			
0.2211	14149.85	3.9500	3.9500	1.0051	24.09	-0.14	0.050			
0.2221	14214.12	3.9490	3.9489	1.0051	24.09	-0.14	0.050			
0.2231	14278.34	3.9480	3.9479	1.0056	24.09	-0.14	0.050			
0.2241	14342.30	3.9470	3.9470	1.0067	24.09	-0.14	0.050			
0.2251	14406.76	3.9460	3.9460	1.0075	24.08	-0.15	0.050			
0.2261	14471.07	3.9450	3.9450	1.0088	24.08	-0.15	0.050			
0.2271	14536.10	3.9440	3.9441	1.0098	24.07	-0.16	0.050			
0.2281	14600.93	3.9430	3.9430	1.0115	24.07	-0.16	0.050	0.425	0.584	
0.2292	14665.91	3.9420	3.9420	1.0130	24.06	-0.17	0.050			
0.2302	14730.65	3.9410	3.9410	1.0133	24.07	-0.16	0.050			
0.2312	14795.44	3.9400	3.9399	1.0143	24.07	-0.16	0.050			
0.2322	14860.45	3.9390	3.9390	1.0151	24.07	-0.16	0.050			
0.2332	14925.30	3.9380	3.9379	1.0152	24.07	-0.16	0.050			
0.2342	14989.91	3.9370	3.9371	1.0158	24.07	-0.16	0.050			
0.2352	15054.55	3.9360	3.9360	1.0169	24.08	-0.15	0.050			
0.2362	15119.84	3.9350	3.9350	1.0192	24.07	-0.16	0.050			
0.2373	15185.05	3.9340	3.9340	1.0204	24.08	-0.15	0.050			
0.2383	15250.66	3.9330	3.9330	1.0214	24.09	-0.14	0.050			
0.2393	15316.60	3.9320	3.9320	1.0239	24.09	-0.14	0.050			
0.2403	15382.25	3.9310	3.9310	1.0246	24.10	-0.13	0.050			
0.2414	15447.98	3.9300	3.9300	1.0251	24.11	-0.12	0.050			
0.2424	15513.32	3.9290	3.9290	1.0260	24.11	-0.12	0.050			
0.2434	15579.00	3.9280	3.9280	1.0266	24.12	-0.11	0.050			
0.2444	15644.77	3.9270	3.9270	1.0269	24.13	-0.10	0.050			
0.2455	15710.76	3.9260	3.9260	1.0282	24.13	-0.10	0.050			
0.2465	15776.46	3.9250	3.9251	1.0288	24.13	-0.10	0.050			
0.2475	15842.58	3.9240	3.9240	1.0302	24.13	-0.10	0.050	0.375	0.507	
0.2486	15908.41	3.9230	3.9230	1.0302	24.13	-0.10	0.050			
0.2496	15974.41	3.9220	3.9220	1.0306	24.13	-0.10	0.050			
0.2506	16040.52	3.9210	3.9210	1.0312	24.13	-0.10	0.050			
0.2517	16106.26	3.9200	3.9200	1.0321	24.13	-0.10	0.050			
0.2527	16172.22	3.9190	3.9191	1.0334	24.13	-0.10	0.050			
0.2537	16238.22	3.9180	3.9180	1.0341	24.13	-0.10	0.050			
0.2548	16304.32	3.9170	3.9170	1.0348	24.13	-0.10	0.050			
0.2558	16370.42	3.9160	3.9160	1.0357	24.13	-0.10	0.050			
0.2568	16436.79	3.9150	3.9150	1.0372	24.12	-0.11	0.050			
0.2579	16503.67	3.9140	3.9140	1.0374	24.12	-0.11	0.050			
0.2589	16569.85	3.9130	3.9129	1.0392	24.12	-0.11	0.050			
0.2599	16635.97	3.9120	3.9119	1.0407	24.12	-0.11	0.050			
0.2610	16702.81	3.9110	3.9110	1.0419	24.11	-0.12	0.050			
0.2620	16769.27	3.9100	3.9100	1.0439	24.10	-0.13	0.050			
0.2631	16836.09	3.9090	3.9090	1.0449	24.10	-0.13	0.050			
0.2641	16903.37	3.9080	3.9080	1.0464	24.09	-0.14	0.050			
0.2652	16970.41	3.9070	3.9069	1.0473	24.08	-0.15	0.050			
0.2662	17037.50	3.9060	3.9060	1.0484	24.08	-0.15	0.050			
0.2673	17104.72	3.9050	3.9050	1.0496	24.07	-0.16	0.050	0.401	0.508	
0.2683	17171.96	3.9040	3.9040	1.0501	24.06	-0.17	0.050			
0.2694	17239.54	3.9030	3.9030	1.0511	24.06	-0.17	0.050			
0.2704	17306.94	3.9020	3.9021	1.0517	24.05	-0.18	0.050			
0.2715	17374.29	3.9010	3.9009	1.0517	24.04	-0.19	0.050			
0.2725	17441.69	3.9000	3.9001	1.0515	24.05	-0.18	0.050			
0.2736	17509.19	3.8990	3.8991	1.0521	24.05	-0.18	0.050			
0.2746	17576.43	3.8980	3.8980	1.0529	24.05	-0.18	0.050			
0.2757	17643.79	3.8970	3.8970	1.0544	24.05	-0.18	0.050			
0.2767	17711.16	3.8960	3.8961	1.0551	24.05	-0.18	0.050			
0.2778	17778.57	3.8950	3.8950	1.0564	24.04	-0.19	0.050			
0.2788	17846.16	3.8940	3.8940	1.0571	24.04	-0.19	0.050			
0.2799	17912.94	3.8930	3.8930	1.0573	24.04	-0.19	0.050			
0.2809	17980.62	3.8920	3.8920	1.0583	24.04	-0.19	0.050			
0.2820	18048.69	3.8910	3.8909	1.0594	24.05	-0.18	0.050			
0.2831	18116.52	3.8900	3.8900	1.0598	24.05	-0.18	0.050			
0.2841	18184.54	3.8890	3.8890	1.0619	24.05	-0.18	0.050			
0.2852	18252.76	3.8880	3.8880	1.0634	24.06	-0.17	0.050			
0.2863	18320.64	3.8870	3.8870	1.0642	24.06	-0.17	0.050			
0.2873	18388.68	3.8860	3.8860	1.0661	24.05	-0.18	0.050	0.329	0.484	
0.2884	18457.21	3.8850	3.8850	1.0673	24.05	-0.18	0.050			
0.2895	18525.46	3.8840	3.8840	1.0695	24.06	-0.17	0.050			
0.2905	18593.83	3.8830	3.8831	1.0717	24.07	-0.16	0.050			
0.2916	18662.65	3.8820	3.8820	1.0727	24.07	-0.16	0.050			
0.2927	18731.42	3.8810	3.8810	1.0742	24.09	-0.14	0.050			
0.2937	18799.83	3.8800	3.8799	1.0765	24.09	-0.14	0.050			
0.2948	18868.56	3.8790	3.8791	1.0776	24.09	-0.14	0.050			
0.2959	18937.43	3.8780	3.8780	1.0792	24.11	-0.12	0.050			
0.2970	19006.48	3.8770	3.8770	1.0811	24.11	-0.12	0.050			
0.2981	19075.93	3.8760	3.8760	1.0827	24.11	-0.12	0.050			
0.2991	19145.25	3.8750	3.8750	1.0843	24.11	-0.12	0.050			
0.3002	19214.84	3.8740	3.8740	1.0859	24.11	-0.12	0.050			
0.3013	19284.41	3.8730	3.8730	1.0881	24.10	-0.13	0.050			
0.3024	19354.73	3.8720	3.8719	1.0900	24.11	-0.12	0.050			
0.3035	19424.67	3.8710	3.8710	1.0917	24.11	-0.12	0.050			
0.3046	19494.34	3.8700	3.8700	1.0936	24.11	-0.12	0.050			
0.3057	19564.44	3.8690	3.8690	1.0938	24.11	-0.12	0.050			
0.3068	19634.41	3.8680	3.8681	1.0958	24.10	-0.13	0.050			
0.3079	19704.43	3.8670	3.8670	1.0973	24.10	-0.13	0.050	0.289	0.544	
0.3090	19774.73	3.8660	3.8659	1.0982	24.09	-0.14	0.050			
0.3101	19845.23	3.8650	3.8650	1.0998	24.09	-0.14	0.050			
0.3112	19915.37	3.8640	3.8640	1.1007	24.09	-0.14	0.050			
0.3123	19985.83	3.8630	3.8631	1.1026	24.09	-0.14	0.050			
0.3134	20056.52	3.8620	3.8620	1.1047	24.07	-0.16	0.050			
0.3145	20126.92	3.8610	3.8609	1.1064	24.09	-0.14	0.050			
0.3156	20197.53	3.8600	3.8601	1.1077	24.08	-0.15	0.050			
0.3167	20268.46	3.8590	3.8589	1.1112	24.09	-0.14	0.050			
0.3178	20339.62	3.8580	3.8581	1.1139	24.09	-0.14	0.050			
0.3189	20411.28	3.8570	3.8569	1.1156	24.09	-0.14	0.050			
0.3200	20483.09	3.8560	3.8560	1.1175	24.10	-0.13	0.050			
0.3212	20554.68	3.8550	3.8550	1.1187	24.11	-0.12	0.050			
0.3223	20626.15	3.8540	3.8540	1.1216	24.11	-0.12	0.050			
0.3234	20697.81	3.8530	3.8530	1.1239	24.11	-0.12	0.050			
0.3245	20769.55	3.8520	3.8520	1.1282	24.13	-0.10	0.050			
0.3257	20841.60	3.8510	3.8511	1.1304	24.13	-0.10	0.050			
0.3268	20913.83	3.8500	3.8500	1.1332	24.13	-0.10	0.050			
0.3279	20986.77	3.8490	3.8490	1.1370	24.14	-0.09	0.050	0.466	0.546	
0.3291	21059.41	3.8480	3.8480	1.1394	24.15	-0.08	0.050			
0.3302	21132.57	3.8470	3.8469	1.1425	24.15	-0.08	0.050			
0.3313	21205.95	3.8460	3.8459	1.1455	24.15	-0.08	0.050			
0.3325	21279.22	3.8450	3.8449	1.1487	24.15	-0.08	0.050			
0.3336	21352.56	3.8440	3.8441	1.1519	24.14	-0.09	0.050			
0.3348	21426.12	3.8430	3.8430	1.1558	24.15	-0.08	0.050			
0.3359	21500.37	3.8420	3.8420	1.1585	24.15	-0.08	0.050			
0.3371	21574.45	3.8410	3.8410	1.1621	24.14	-0.09	0.050			
0.3383	21648.91	3.8400	3.8399	1.1667	24.14	-0.09	0.050			
0.3394	21723.73	3.8390	3.8390	1.1701	24.13	-0.10	0.050			
0.3406	21799.16	3.8380	3.8380	1.1750	24.13	-0.10	0.050			
0.3418	21874.56	3.8370	3.8369	1.1790	24.13	-0.10	0.050			
0.3430	21950.05	3.8360	3.8360	1.1821	24.11	-0.12	0.050			
0.3442	22025.70	3.8350	3.8349	1.1847	24.11	-0.12	0.050			
0.3453	22101.21	3.8340	3.8341	1.1873	24.11	-0.12	0.050			
0.3465	22177.57	3.8330	3.8331	1.1911	24.11	-0.12	0.050			
0.3477	22253.89	3.8320	3.8320	1.1940	24.10	-0.13	0.050	0.402	0.513	
0.3489	22330.91	3.8310	3.8310	1.1982	24.09	-0.14	0.050			
0.3501	22407.59	3.8300	3.8300	1.2022	24.08	-0.15	0.050			
0.3513	22484.94	3.8290	3.8290	1.2050	24.08	-0.15	0.050			
0.3525	22561.99	3.8280	3.8280	1.2089	24.07	-0.16	0.050			
0.3537	22639.48	3.8270	3.8270	1.2128	24.05	-0.18	0.050			
0.3550	22716.97	3.8260	3.8260	1.2161	24.05	-0.18	0.050			
0.3562	22794.44	3.8250	3.8251	1.2202	24.03	-0.20	0.050			
0.3574	22872.49	3.8240	3.8241	1.2243	24.03	-0.20	0.050			
0.3586	22951.01	3.8230	3.8230	1.2280	24.03	-0.20	0.050			
0.3598	23029.50	3.8220	3.8220	1.2337	24.03	-0.20	0.050			
0.3611	23108.09	3.8210	3.8210	1.2377	24.02	-0.21	0.050			
0.3623	23187.29	3.8200	3.8201	1.2431	24.01	-0.22	0.050			
0.3635	23267.19	3.8190	3.8190	1.2483	24.01	-0.22	0.050			
0.3648	23347.28	3.8180	3.8180	1.2529	24.01	-0.22	0.050			
0.3661	23427.68	3.8170	3.8170	1.2581	24.01	-0.22	0.050			
0.3673	23508.55	3.8160	3.8161	1.2632	24.01	-0.22	0.050	0.403	0.494	
0.3686	23589.73	3.8150	3.8150	1.2682	24.01	-0.22	0.050			
0.3699	23670.93	3.8140	3.8140	1.2739	24.00	-0.23	0.050			
0.3711	23752.81	3.8130	3.8129	1.2792	24.00	-0.23	0.050			
0.3724	23834.91	3.8120	3.8120	1.2842	24.01	-0.22	0.050			
0.3737	23917.58	3.8110	3.8110	1.2876	24.00	-0.23	0.050			
0.3750	24000.00	3.8100	3.8100	1.2923	24.00	-0.23	0.050			
0.3763	24083.14	3.8090	3.8090	1.2971	24.00	-0.23	0.050			
0.3776	24166.02	3.8080	3.8080	1.3008	24.01	-0.22	0.050			
0.3789	24249.39	3.8070	3.8071	1.3058	24.01	-0.22	0.050			
0.3802	24333.01	3.8060	3.8060	1.3102	24.01	-0.22	0.050			
0.3815	24417.23	3.8050	3.8050	1.3131	24.01	-0.22	0.050			
0.3828	24502.05	3.8040	3.8040	1.3159	24.01	-0.22	0.050			
0.3842	24586.87	3.8030	3.8030	1.3179	24.01	-0.22	0.050			
0.3855	24671.34	3.8020	3.8021	1.3194	24.01	-0.22	0.050			
0.3868	24756.80	3.8010	3.8009	1.3202	24.01	-0.22	0.050			
0.3882	24842.24	3.8000	3.8000	1.3199	24.02	-0.21	0.050	0.302	0.506	
0.3895	24927.75	3.7990	3.7990	1.3188	24.02	-0.21	0.050			
0.3908	25012.96	3.7980	3.7980	1.3160	24.03	-0.20	0.050			
0.3922	25098.01	3.7970	3.7971	1.3121	24.03	-0.20	0.050			
0.3935	25182.68	3.7960	3.7961	1.3075	24.03	-0.20	0.050			
0.3948	25267.10	3.7950	3.7949	1.3009	24.03	-0.20	0.050			
0.3961	25350.75	3.7940	3.7940	1.2936	24.03	-0.20	0.050			
0.3974	25434.62	3.7930	3.7930	1.2845	24.04	-0.19	0.050			
0.3987	25517.56	3.7920	3.7920	1.2740	24.05	-0.18	0.050			
0.4000	25599.71	3.7910	3.7909	1.2626	24.06	-0.17	0.050			
0.4013	25680.85	3.7900	3.7899	1.2488	24.06	-0.17	0.050			
0.4025	25760.95	3.7890	3.7890	1.2352	24.07	-0.16	0.050			
0.4038	25840.26	3.7880	3.7879	1.2187	24.09	-0.14	0.050			
0.4050	25918.35	3.7870	3.7870	1.2024	24.09	-0.14	0.050			
0.4062	25995.64	3.7860	3.7861	1.1851	24.09	-0.14	0.050			
0.4074	26071.94	3.7850	3.7851	1.1667	24.11	-0.12	0.050			
0.4085	26146.75	3.7840	3.7840	1.1460	24.11	-0.12	0.050			
0.4097	26219.99	3.7830	3.7831	1.1256	24.11	-0.12	0.050			
0.4108	26291.91	3.7820	3.7820	1.1040	24.13	-0.10	0.050			
0.4119	26362.62	3.7810	3.7810	1.0831	24.13	-0.10	0.050			
0.4130	26431.35	3.7800	3.7800	1.0606	24.14	-0.09	0.050			
0.4140	26498.69	3.7790	3.7791	1.0373	24.15	-0.08	0.050			
0.4151	26564.33	3.7780	3.7780	1.0142	24.14	-0.09	0.050			
0.4161	26628.30	3.7770	3.7770	0.9911	24.16	-0.07	0.050			
0.4170	26690.65	3.7760	3.7760	0.9688	24.16	-0.07	0.050			
0.4180	26751.72	3.7750	3.7749	0.9473	24.17	-0.06	0.050			
0.4189	26811.49	3.7740	3.7740	0.9262	24.17	-0.06	0.050			
0.4198	26868.91	3.7730	3.7730	0.9064	24.17	-0.06	0.050			
0.4207	26925.10	3.7720	3.7720	0.8867	24.17	-0.06	0.050			
0.4216	26980.19	3.7710	3.7711	0.8680	24.17	-0.06	0.050			
0.4224	27034.00	3.7700	3.7701	0.8517	24.17	-0.06	0.050			
0.4232	27087.26	3.7690	3.7690	0.8368	24.16	-0.07	0.050			
0.4240	27139.13	3.7680	3.7680	0.8228	24.17	-0.06	0.050			
0.4248	27189.92	3.7670	3.7671	0.8132	24.17	-0.06	0.050			
0.4256	27240.08	3.7660	3.7659	0.8021	24.17	-0.06	0.050			
0.4264	27290.31	3.7650	3.7649	0.7941	24.17	-0.06	0.050			
0.4272	27339.40	3.7640	3.7640	0.7864	24.17	-0.06	0.050			
0.4279	27387.82	3.7630	3.7630	0.7838	24.17	-0.06	0.050	0.395	0.503	
0.4287	27436.33	3.7620	3.7620	0.7794	24.17	-0.06	0.050			
0.4295	27485.22	3.7610	3.7610	0.7779	24.17	-0.06	0.050			
0.4302	27533.25	3.7600	3.7600	0.7785	24.17	-0.06	0.050			
0.4310	27582.20	3.7590	3.7590	0.7809	24.17	-0.06	0.050			
0.4317	27631.08	3.7580	3.7580	0.7865	24.17	-0.06	0.050			
0.4325	27680.64	3.7570	3.7570	0.7913	24.16	-0.07	0.050			
0.4333	27730.40	3.7560	3.7559	0.7966	24.17	-0.06	0.050			
0.4341	27780.41	3.7550	3.7550	0.8061	24.16	-0.07	0.050			
0.4349	27831.02	3.7540	3.7540	0.8168	24.15	-0.08	0.050			
0.4357	27882.48	3.7530	3.7530	0.8265	24.16	-0.07	0.050			
0.4365	27934.79	3.7520	3.7520	0.8389	24.15	-0.08	0.050			
0.4373	27988.17	3.7510	3.7510	0.8527	24.15	-0.08	0.050			
0.4382	28042.55	3.7500	3.7500	0.8682	24.15	-0.08	0.050			
0.4390	28097.80	3.7490	3.7490	0.8842	24.15	-0.08	0.050			
0.4399	28154.58	3.7480	3.7480	0.9015	24.14	-0.09	0.050			
0.4408	28211.84	3.7470	3.7470	0.9186	24.13	-0.10	0.050			
0.4417	28270.91	3.7460	3.7459	0.9370	24.13	-0.10	0.050			
0.4427	28331.02	3.7450	3.7450	0.9572	24.13	-0.10	0.050			
0.4436	28392.32	3.7440	3.7440	0.9780	24.13	-0.10	0.050			
0.4446	28454.96	3.7430	3.7430	0.9980	24.13	-0.10	0.050			
0.4456	28519.14	3.7420	3.7420	1.0200	24.13	-0.10	0.050			
0.4466	28584.92	3.7410	3.7410	1.0431	24.12	-0.11	0.050			
0.4477	28651.75	3.7400	3.7400	1.0656	24.12	-0.11	0.050	0.401	0.486	
0.4488	28720.52	3.7390	3.7390	1.0887	24.13	-0.10	0.050			
0.4499	28790.64	3.7380	3.7380	1.1120	24.13	-0.10	0.050			
0.4510	28862.63	3.7370	3.7370	1.1357	24.13	-0.10	0.050			
0.4521	28936.17	3.7360	3.7359	1.1595	24.13	-0.10	0.050			
0.4533	29010.62	3.7350	3.7350	1.1835	24.13	-0.10	0.050			
0.4545	29087.14	3.7340	3.7340	1.2077	24.13	-0.10	0.050			
0.4557	29165.02	3.7330	3.7330	1.2329	24.14	-0.09	0.050			
0.4570	29244.84	3.7320	3.7320	1.2577	24.15	-0.08	0.050			
0.4582	29325.85	3.7310	3.7310	1.2828	24.16	-0.07	0.050			
0.4595	29409.29	3.7300	3.7300	1.3064	24.17	-0.06	0.050			
0.4608	29493.51	3.7290	3.7290	1.3317	24.17	-0.06	0.050			
0.4622	29579.23	3.7280	3.7280	1.3584	24.17	-0.06	0.050			
0.4635	29666.36	3.7270	3.7270	1.3850	24.17	-0.06	0.050			
0.4649	29755.82	3.7260	3.7260	1.4106	24.17	-0.06	0.050			
0.4664	29847.02	3.7250	3.7250	1.4349	24.16	-0.07	0.050			
0.4678	29940.20	3.7240	3.7239	1.4588	24.17	-0.06	0.050	0.219	0.453	
0.4693	30034.84	3.7230	3.7230	1.4828	24.15	-0.08	0.050			
0.4708	30130.18	3.7220	3.7220	1.5083	24.15	-0.08	0.050			
0.4723	30227.02	3.7210	3.7210	1.5351	24.14	-0.09	0.050			
0.4739	30326.44	3.7200	3.7200	1.5601	24.13	-0.10	0.050			
0.4754	30427.63	3.7190	3.7190	1.5845	24.13	-0.10	0.050			
0.4770	30529.43	3.7180	3.7180	1.6110	24.13	-0.10	0.050			
0.4786	30633.17	3.7170	3.7171	1.6372	24.13	-0.10	0.050			
0.4803	30738.50	3.7160	3.7160	1.6631	24.12	-0.11	0.050			
0.4820	30845.56	3.7150	3.7150	1.6884	24.13	-0.10	0.050			
0.4837	30954.66	3.7140	3.7139	1.7143	24.13	-0.10	0.050			
0.4854	31065.03	3.7130	3.7130	1.7397	24.13	-0.10	0.050			
0.4871	31176.96	3.7120	3.7121	1.7670	24.15	-0.08	0.050	0.404	0.543	
0.4889	31290.70	3.7110	3.7111	1.7930	24.17	-0.06	0.050			
0.4907	31406.26	3.7100	3.7099	1.8187	24.17	-0.06	0.050			
0.4925	31522.98	3.7090	3.7089	1.8447	24.18	-0.05	0.050			
0.4944	31641.70	3.7080	3.7080	1.8722	24.19	-0.04	0.050			
0.4963	31762.90	3.7070	3.7070	1.8995	24.21	-0.02	0.050			
0.4982	31885.74	3.7060	3.7060	1.9275	24.21	-0.02	0.050			
0.5002	32010.41	3.7050	3.7050	1.9552	24.21	-0.02	0.050			
0.5021	32135.71	3.7040	3.7040	1.9838	24.21	-0.02	0.050			
0.5041	32262.86	3.7030	3.7030	2.0096	24.21	-0.02	0.050			
0.5061	32392.15	3.7020	3.7020	2.0358	24.20	-0.03	0.050			
0.5082	32524.05	3.7010	3.7009	2.0637	24.19	-0.04	0.050	0.415	0.552	
0.5103	32657.22	3.7000	3.7000	2.0916	24.17	-0.06	0.050			
0.5124	32791.43	3.6990	3.6990	2.1180	24.17	-0.06	0.050			
0.5145	32927.25	3.6980	3.6980	2.1465	24.17	-0.06	0.050			
0.5166	33065.35	3.6970	3.6970	2.1764	24.16	-0.07	0.050			
0.5188	33205.43	3.6960	3.6960	2.2053	24.14	-0.09	0.050			
0.5211	33347.53	3.6950	3.6950	2.2347	24.13	-0.10	0.050			
0.5233	33491.27	3.6940	3.6940	2.2643	24.13	-0.10	0.050			
0.5256	33636.67	3.6930	3.6930	2.2930	24.12	-0.11	0.050			
0.5279	33783.94	3.6920	3.6920	2.3236	24.11	-0.12	0.050	0.399	0.512	
0.5302	33933.30	3.6910	3.6909	2.3550	24.11	-0.12	0.050			
0.5326	34084.40	3.6900	3.6900	2.3869	24.12	-0.11	0.050			
0.5350	34237.47	3.6890	3.6889	2.4202	24.12	-0.11	0.050			
0.5374	34393.32	3.6880	3.6880	2.4533	24.12	-0.11	0.050			
0.5399	34550.93	3.6870	3.6871	2.4872	24.14	-0.09	0.050			
0.5424	34710.41	3.6860	3.6859	2.5221	24.16	-0.07	0.050			
0.5449	34872.18	3.6850	3.6850	2.5571	24.17	-0.06	0.050			
0.5474	35035.97	3.6840	3.6840	2.5941	24.17	-0.06	0.050	-0.116	0.551	
0.5501	35203.28	3.6830	3.6830	2.6325	24.17	-0.06	0.050			
0.5527	35372.96	3.6820	3.6820	2.6715	24.17	-0.06	0.050			
0.5554	35544.83	3.6810	3.6810	2.7094	24.17	-0.06	0.050			
0.5581	35718.83	3.6800	3.6800	2.7469	24.17	-0.06	0.050			
0.5609	35895.82	3.6790	3.6791	2.7830	24.15	-0.08	0.050			
0.5637	36075.23	3.6780	3.6780	2.8225	24.13	-0.10	0.050			
0.5665	36257.50	3.6770	3.6770	2.8609	24.12	-0.11	0.050			
0.5694	36443.66	3.6760	3.6759	2.8921	24.12	-0.11	0.050			
0.5724	36631.27	3.6750	3.6750	2.9235	24.13	-0.10	0.050			
0.5753	36819.71	3.6740	3.6740	2.9581	24.13	-0.10	0.050			
0.5783	37010.60	3.6730	3.6730	2.9907	24.15	-0.08	0.050			
0.5813	37203.44	3.6720	3.6720	3.0231	24.17	-0.06	0.050			
0.5843	37397.68	3.6710	3.6710	3.0569	24.19	-0.04	0.050			
0.5874	37594.58	3.6700	3.6700	3.0904	24.19	-0.04	0.050	0.521	0.599	
0.5905	37792.58	3.6690	3.6691	3.1227	24.17	-0.06	0.050			
0.5936	37992.38	3.6680	3.6680	3.1561	24.17	-0.06	0.050			
0.5968	38194.75	3.6670	3.6670	3.1899	24.17	-0.06	0.050			
0.6000	38399.81	3.6660	3.6660	3.2220	24.16	-0.07	0.050			
0.6032	38606.76	3.6650	3.6650	3.2572	24.15	-0.08	0.050			
0.6065	38816.89	3.6640	3.6640	3.2891	24.12	-0.11	0.050	0.219	0.555	
0.6098	39029.21	3.6630	3.6630	3.3194	24.11	-0.12	0.050			
0.6132	39242.98	3.6620	3.6619	3.3527	24.10	-0.13	0.050			
0.6166	39459.49	3.6610	3.6610	3.3886	24.11	-0.12	0.050			
0.6200	39678.48	3.6600	3.6600	3.4267	24.13	-0.10	0.050			
0.6234	39897.96	3.6590	3.6591	3.4563	24.14	-0.09	0.050			
0.6269	40119.95	3.6580	3.6580	3.4838	24.17	-0.06	0.050	0.310	0.552	
0.6304	40344.71	3.6570	3.6570	3.5140	24.18	-0.05	0.050			
0.6339	40570.29	3.6560	3.6560	3.5390	24.19	-0.04	0.050			
0.6375	40799.03	3.6550	3.6550	3.5624	24.18	-0.05	0.050			
0.6411	41028.54	3.6540	3.6540	3.5849	24.16	-0.07	0.050			
0.6447	41259.80	3.6530	3.6531	3.6054	24.15	-0.08	0.050			
0.6483	41492.19	3.6520	3.6520	3.6277	24.14	-0.09	0.050	0.133	0.548	
0.6520	41726.72	3.6510	3.6510	3.6444	24.13	-0.10	0.050			
0.6557	41961.80	3.6500	3.6500	3.6574	24.11	-0.12	0.050			
0.6593	42196.94	3.6490	3.6490	3.6668	24.11	-0.12	0.050			
0.6630	42431.33	3.6480	3.6480	3.6719	24.11	-0.12	0.050			
0.6667	42666.62	3.6470	3.6471	3.6778	24.12	-0.11	0.050	0.047	0.593	
0.6703	42902.12	3.6460	3.6460	3.6814	24.11	-0.12	0.050			
0.6741	43139.36	3.6450	3.6451	3.6832	24.09	-0.14	0.050			
0.6778	43377.56	3.6440	3.6441	3.6825	24.09	-0.14	0.050			
0.6815	43613.81	3.6430	3.6430	3.6756	24.07	-0.16	0.050			
0.6852	43850.48	3.6420	3.6420	3.6638	24.07	-0.16	0.050			
0.6888	44085.56	3.6410	3.6410	3.6541	24.06	-0.17	0.050	0.443	0.623	
0.6925	44320.18	3.6400	3.6400	3.6379	24.05	-0.18	0.050			
0.6961	44553.37	3.6390	3.6390	3.6175	24.05	-0.18	0.050			
0.6998	44785.47	3.6380	3.6380	3.5943	24.05	-0.18	0.050			
0.7034	45016.44	3.6370	3.6370	3.5657	24.07	-0.16	0.050			
0.7069	45244.33	3.6360	3.6360	3.5306	24.07	-0.16	0.050	0.404	0.585	
0.7105	45470.75	3.6350	3.6350	3.4975	24.09	-0.14	0.050			
0.7140	45694.81	3.6340	3.6341	3.4567	24.11	-0.12	0.050			
0.7175	45917.38	3.6330	3.6330	3.4120	24.11	-0.12	0.050			
0.7209	46136.48	3.6320	3.6320	3.3626	24.11	-0.12	0.050			
0.7243	46353.20	3.6310	3.6310	3.3080	24.09	-0.14	0.050			
0.7276	46565.92	3.6300	3.6299	3.2458	24.07	-0.16	0.050	0.247	0.592	
0.7308	46772.67	3.6290	3.6290	3.1794	24.07	-0.16	0.050			
0.7340	46974.56	3.6280	3.6281	3.1128	24.05	-0.18	0.050			
0.7370	47170.76	3.6270	3.6270	3.0442	24.03	-0.20	0.050			
0.7400	47361.53	3.6260	3.6260	2.9800	24.01	-0.22	0.050			
0.7429	47547.16	3.6250	3.6251	2.9189	24.01	-0.22	0.050			
0.7458	47728.90	3.6240	3.6240	2.8610	24.01	-0.22	0.050			
0.7485	47906.19	3.6230	3.6230	2.8073	24.03	-0.20	0.050	0.422	0.577	
0.7513	48081.82	3.6220	3.6220	2.7561	24.03	-0.20	0.050			
0.7540	48256.62	3.6210	3.6209	2.7026	24.03	-0.20	0.050			
0.7568	48432.11	3.6200	3.6199	2.6392	24.02	-0.21	0.050			
0.7594	48599.27	3.6190	3.6189	2.5882	24.02	-0.21	0.050			
0.7620	48765.98	3.6180	3.6179	2.5201	24.00	-0.23	0.050			
0.7645	48930.59	3.6170	3.6169	2.4446	23.99	-0.24	0.050			
0.7670	49091.07	3.6160	3.6159	2.3635	23.99	-0.24	0.050	0.385	0.617	
0.7695	49246.37	3.6150	3.6150	2.2724	23.98	-0.25	0.050			
0.7718	49395.21	3.6140	3.6141	2.1849	23.97	-0.26	0.050			
0.7740	49538.85	3.6130	3.6132	2.0847	23.97	-0.26	0.050			
0.7762	49675.39	3.6120	3.6122	1.9834	23.97	-0.26	0.050			
0.7782	49804.05	3.6110	3.6112	1.8769	23.96	-0.27	0.050			
0.7801	49924.09	3.6100	3.6102	1.7746	23.97	-0.26	0.050			
0.7818	50033.61	3.6090	3.6091	1.6738	23.97	-0.26	0.050			
0.7834	50135.62	3.6080	3.6080	1.5662	23.97	-0.26	0.050			
0.7848	50224.95	3.6070	3.6068	1.4747	23.97	-0.26	0.050			
0.7860	50305.48	3.6060	3.6058	1.3919	23.98	-0.25	0.050			
0.7871	50376.18	3.6050	3.6048	1.3131	23.98	-0.25	0.050			
0.7882	50446.35	3.6040	3.6038	1.2410	23.99	-0.24	0.050	0.387	0.595	
0.7892	50510.67	3.6030	3.6028	1.1903	24.00	-0.23	0.050			
0.7902	50575.75	3.6020	3.6019	1.1558	24.00	-0.23	0.050			
0.7913	50640.38	3.6010	3.6009	1.1316	24.01	-0.22	0.050			
0.7923	50705.24	3.6000	3.5999	1.1160	24.01	-0.22	0.050			
0.7933	50770.66	3.5990	3.5990	1.1084	24.01	-0.22	0.050			
0.7943	50838.07	3.5980	3.5979	1.1105	24.02	-0.21	0.050			
0.7954	50906.31	3.5970	3.5971	1.1178	24.03	-0.20	0.050			
0.7965	50975.38	3.5960	3.5960	1.1286	24.03	-0.20	0.050			
0.7976	51045.52	3.5950	3.5950	1.1456	24.03	-0.20	0.050			
0.7987	51118.28	3.5940	3.5939	1.1655	24.03	-0.20	0.050			
0.7999	51191.84	3.5930	3.5930	1.1855	24.04	-0.19	0.050			
0.8011	51267.47	3.5920	3.5919	1.2072	24.05	-0.18	0.050			
0.8023	51345.56	3.5910	3.5910	1.2302	24.04	-0.19	0.050			
0.8035	51425.05	3.5900	3.5900	1.2525	24.04	-0.19	0.050			
0.8048	51506.59	3.5890	3.5890	1.2744	24.05	-0.18	0.050			
0.8061	51590.17	3.5880	3.5879	1.2939	24.03	-0.20	0.050			
0.8074	51675.54	3.5870	3.5869	1.3111	24.04	-0.19	0.050			
0.8088	51762.89	3.5860	3.5859	1.3258	24.03	-0.20	0.050	0.344	0.638	
0.8102	51851.91	3.5850	3.5850	1.3348	24.02	-0.21	0.050			
0.8116	51941.00	3.5840	3.5840	1.3359	24.02	-0.21	0.050			
0.8130	52030.60	3.5830	3.5830	1.3323	24.01	-0.22	0.050			
0.8144	52119.55	3.5820	3.5819	1.3292	24.01	-0.22	0.050			
0.8158	52209.07	3.5810	3.5810	1.3170	24.01	-0.22	0.050			
0.8171	52297.23	3.5800	3.5801	1.2999	24.01	-0.22	0.050			
0.8185	52382.58	3.5790	3.5791	1.2811	24.00	-0.23	0.050			
0.8198	52466.48	3.5780	3.5781	1.2572	24.00	-0.23	0.050			
0.8211	52547.51	3.5770	3.5771	1.2327	23.99	-0.24	0.050			
0.8223	52626.38	3.5760	3.5762	1.2057	24.00	-0.23	0.050			
0.8235	52702.39	3.5750	3.5751	1.1805	23.99	-0.24	0.050			
0.8246	52776.37	3.5740	3.5741	1.1531	24.01	-0.22	0.050			
0.8257	52847.01	3.5730	3.5730	1.1302	24.01	-0.22	0.050			
0.8268	52915.77	3.5720	3.5719	1.1098	24.01	-0.22	0.050			
0.8279	52982.76	3.5710	3.5711	1.0870	24.02	-0.21	0.050	0.355	0.581	
0.8289	53048.21	3.5700	3.5699	1.0721	24.03	-0.20	0.050			
0.8299	53112.98	3.5690	3.5690	1.0610	24.03	-0.20	0.050			
0.8309	53177.58	3.5680	3.5679	1.0528	24.05	-0.18	0.050			
0.8319	53242.48	3.5670	3.5669	1.0458	24.05	-0.18	0.050			
0.8329	53307.19	3.5660	3.5660	1.0432	24.05	-0.18	0.050			
0.8339	53372.27	3.5650	3.5650	1.0443	24.06	-0.17	0.050			
0.8350	53437.80	3.5640	3.5639	1.0471	24.06	-0.17	0.050			
0.8360	53504.38	3.5630	3.5631	1.0511	24.07	-0.16	0.050			
0.8371	53571.33	3.5620	3.5620	1.0581	24.07	-0.16	0.050			
0.8381	53639.26	3.5610	3.5609	1.0636	24.07	-0.16	0.050			
0.8392	53707.96	3.5600	3.5601	1.0692	24.07	-0.16	0.050			
0.8403	53776.87	3.5590	3.5590	1.0741	24.07	-0.16	0.050			
0.8413	53846.20	3.5580	3.5580	1.0799	24.08	-0.15	0.050			
0.8424	53916.17	3.5570	3.5570	1.0831	24.09	-0.14	0.050			
0.8435	53986.43	3.5560	3.5559	1.0857	24.07	-0.16	0.050			
0.8446	54056.76	3.5550	3.5550	1.0889	24.07	-0.16	0.050			
0.8457	54127.39	3.5540	3.5540	1.0890	24.06	-0.17	0.050			
0.8468	54197.98	3.5530	3.5529	1.0892	24.06	-0.17	0.050			
0.8479	54268.58	3.5520	3.5520	1.0892	24.06	-0.17	0.050	0.295	0.669	
0.8490	54339.03	3.5510	3.5510	1.0863	24.05	-0.18	0.050			
0.8501	54409.11	3.5500	3.5499	1.0840	24.05	-0.18	0.050			
0.8512	54479.01	3.5490	3.5490	1.0809	24.04	-0.19	0.050			
0.8523	54548.69	3.5480	3.5481	1.0774	24.05	-0.18	0.050			
0.8534	54617.43	3.5470	3.5470	1.0728	24.04	-0.19	0.050			
0.8545	54686.05	3.5460	3.5460	1.0674	24.03	-0.20	0.050			
0.8555	54753.68	3.5450	3.5450	1.0625	24.03	-0.20	0.050			
0.8566	54821.09	3.5440	3.5440	1.0584	24.03	-0.20	0.050			
0.8576	54888.33	3.5430	3.5430	1.0547	24.01	-0.22	0.050			
0.8587	54955.16	3.5420	3.5420	1.0512	24.01	-0.22	0.050			
0.8597	55021.93	3.5410	3.5410	1.0498	24.00	-0.23	0.050			
0.8608	55088.46	3.5400	3.5400	1.0475	24.00	-0.23	0.050			
0.8618	55154.67	3.5390	3.5390	1.0458	23.99	-0.24	0.050			
0.8628	55221.18	3.5380	3.5380	1.0459	23.98	-0.25	0.050			
0.8639	55287.42	3.5370	3.5370	1.0469	23.98	-0.25	0.050			
0.8649	55353.75	3.5360	3.5359	1.0479	23.97	-0.26	0.050			
0.8659	55420.41	3.5350	3.5351	1.0509	23.97	-0.26	0.050			
0.8670	55487.04	3.5340	3.5340	1.0541	23.97	-0.26	0.050			
0.8680	55553.88	3.5330	3.5330	1.0578	23.97	-0.26	0.050	0.479	0.706	
0.8691	55621.41	3.5320	3.5320	1.0635	23.97	-0.26	0.050			
0.8701	55689.15	3.5310	3.5311	1.0685	23.98	-0.25	0.050			
0.8712	55757.02	3.5300	3.5299	1.0743	23.99	-0.24	0.050			
0.8723	55825.36	3.5290	3.5290	1.0826	23.99	-0.24	0.050			
0.8733	55893.93	3.5280	3.5280	1.0924	24.01	-0.22	0.050			
0.8744	55963.07	3.5270	3.5270	1.1028	24.01	-0.22	0.050			
0.8755	56033.44	3.5260	3.5260	1.1150	24.02	-0.21	0.050			
0.8766	56103.20	3.5250	3.5250	1.1293	24.03	-0.20	0.050			
0.8777	56174.22	3.5240	3.5240	1.1452	24.04	-0.19	0.050			
0.8789	56247.02	3.5230	3.5230	1.1633	24.04	-0.19	0.050			
0.8800	56320.72	3.5220	3.5220	1.1818	24.06	-0.17	0.050			
0.8812	56395.32	3.5210	3.5210	1.2018	24.07	-0.16	0.050			
0.8824	56472.15	3.5200	3.5199	1.2251	24.07	-0.16	0.050			
0.8836	56549.92	3.5190	3.5190	1.2488	24.07	-0.16	0.050			
0.8848	56629.60	3.5180	3.5180	1.2734	24.08	-0.15	0.050			
0.8861	56710.13	3.5170	3.5169	1.3015	24.07	-0.16	0.050			
0.8874	56793.57	3.5160	3.5159	1.3319	24.08	-0.15	0.050			
0.8887	56878.23	3.5150	3.5150	1.3647	24.08	-0.15	0.050	0.421	0.679	
0.8901	56965.37	3.5140	3.5141	1.3985	24.07	-0.16	0.050			
0.8915	57054.98	3.5130	3.5130	1.4337	24.08	-0.15	0.050			
0.8929	57147.74	3.5120	3.5120	1.4679	24.07	-0.16	0.050			
0.8944	57242.16	3.5110	3.5110	1.5059	24.07	-0.16	0.050			
0.8959	57339.02	3.5100	3.5100	1.5435	24.07	-0.16	0.050			
0.8975	57437.79	3.5090	3.5090	1.5835	24.07	-0.16	0.050			
0.8990	57538.91	3.5080	3.5079	1.6262	24.07	-0.16	0.050			
0.9007	57642.18	3.5070	3.5070	1.6731	24.06	-0.17	0.050			
0.9023	57748.75	3.5060	3.5060	1.7218	24.06	-0.17	0.050			
0.9040	57858.92	3.5050	3.5051	1.7676	24.06	-0.17	0.050			
0.9058	57973.13	3.5040	3.5040	1.8170	24.06	-0.17	0.050			
0.9077	58090.57	3.5030	3.5030	1.8688	24.06	-0.17	0.050	0.318	0.646	
0.9095	58211.07	3.5020	3.5019	1.9217	24.07	-0.16	0.050			
0.9115	58334.98	3.5010	3.5010	1.9743	24.06	-0.17	0.050			
0.9135	58462.94	3.5000	3.5000	2.0280	24.08	-0.15	0.050			
0.9155	58594.67	3.4990	3.4989	2.0810	24.09	-0.14	0.050			
0.9177	58729.79	3.4980	3.4980	2.1344	24.10	-0.13	0.050			
0.9198	58868.65	3.4970	3.4971	2.1862	24.11	-0.12	0.050			
0.9221	59011.37	3.4960	3.4961	2.2377	24.11	-0.12	0.050			
0.9243	59158.29	3.4950	3.4950	2.2866	24.09	-0.14	0.050			
0.9267	59309.71	3.4940	3.4939	2.3325	24.08	-0.15	0.050			
0.9291	59465.04	3.4930	3.4930	2.3708	24.07	-0.16	0.050	0.392	0.740	
0.9316	59623.63	3.4920	3.4920	2.3973	24.06	-0.17	0.050			
0.9341	59785.24	3.4910	3.4910	2.4095	24.05	-0.18	0.050			
0.9367	59950.29	3.4900	3.4899	2.4008	24.03	-0.20	0.050			
0.9393	60114.51	3.4890	3.4889	2.3780	24.01	-0.22	0.050			
0.9418	60275.54	3.4880	3.4879	2.3505	24.00	-0.23	0.050			
0.9443	60435.08	3.4870	3.4870	2.3013	23.97	-0.26	0.050			
0.9468	60596.65	3.4860	3.4859	2.2050	23.95	-0.28	0.050			
0.9492	60746.10	3.4850	3.4851	2.1092	23.93	-0.30	0.050	0.213	0.589	
0.9514	60889.62	3.4840	3.4842	2.0014	23.92	-0.31	0.050			
0.9535	61024.55	3.4830	3.4833	1.8827	23.90	-0.33	0.050			
0.9555	61149.85	3.4820	3.4822	1.7556	23.90	-0.33	0.050			
0.9573	61265.63	3.4810	3.4813	1.6197	23.90	-0.33	0.050			
0.9589	61369.41	3.4800	3.4803	1.4869	23.89	-0.34	0.050			
0.9603	61459.96	3.4790	3.4791	1.3588	23.89	-0.34	0.050			
0.9616	61541.73	3.4780	3.4778	1.2046	23.89	-0.34	0.050			
0.9626	61604.97	3.4770	3.4766	1.0868	23.88	-0.35	0.050			
0.9634	61660.63	3.4760	3.4753	0.9790	23.88	-0.35	0.050			
0.9642	61706.91	3.4750	3.4741	0.8479	23.87	-0.36	0.050			
0.9646	61737.37	3.4740	3.4733	0.7678	23.87	-0.36	0.050			
0.9652	61772.81	3.4730	3.4723	0.6736	23.88	-0.35	0.050			
0.9656	61797.97	3.4720	3.4715	0.6189	23.88	-0.35	0.050			
0.9660	61821.37	3.4710	3.4707	0.5670	23.88	-0.35	0.050			
0.9664	61847.49	3.4700	3.4698	0.5126	23.88	-0.35	0.050			
0.9668	61872.37	3.4690	3.4689	0.4809	23.89	-0.34	0.050			
0.9672	61900.37	3.4680	3.4679	0.4539	23.89	-0.34	0.050			
0.9676	61925.53	3.4670	3.4669	0.4362	23.89	-0.34	0.050			
0.9680	61950.02	3.4660	3.4660	0.4138	23.89	-0.34	0.050			
0.9683	61973.71	3.4650	3.4650	0.4001	23.89	-0.34	0.050	0.298	0.634	
0.9687	61997.69	3.4640	3.4641	0.3858	23.89	-0.34	0.050			
0.9691	62020.43	3.4630	3.4630	0.3756	23.89	-0.34	0.050			
0.9694	62044.21	3.4620	3.4620	0.3673	23.89	-0.34	0.050			
0.9698	62066.24	3.4610	3.4610	0.3594	23.89	-0.34	0.050			
0.9701	62088.37	3.4600	3.4600	0.3511	23.90	-0.33	0.050			
0.9705	62109.92	3.4590	3.4590	0.3449	23.90	-0.33	0.050			
0.9708	62131.81	3.4580	3.4580	0.3393	23.90	-0.33	0.050			
0.9711	62152.66	3.4570	3.4570	0.3339	23.90	-0.33	0.050			
0.9715	62173.74	3.4560	3.4560	0.3287	23.90	-0.33	0.050			
0.9718	62194.33	3.4550	3.4550	0.3250	23.90	-0.33	0.050			
0.9721	62214.98	3.4540	3.4540	0.3207	23.90	-0.33	0.050			
0.9724	62235.00	3.4530	3.4530	0.3176	23.90	-0.33	0.050			
0.9727	62254.55	3.4520	3.4520	0.3126	23.90	-0.33	0.050			
0.9730	62274.25	3.4510	3.4510	0.3089	23.90	-0.33	0.050			
0.9733	62293.89	3.4500	3.4500	0.3060	23.90	-0.33	0.050			
0.9736	62313.17	3.4490	3.4489	0.3025	23.90	-0.33	0.050			
0.9739	62332.43	3.4480	3.4480	0.2997	23.90	-0.33	0.050			
0.9742	62351.43	3.4470	3.4470	0.2967	23.90	-0.33	0.050			
0.9745	62370.30	3.4460	3.4459	0.2942	23.90	-0.33	0.050			
0.9748	62388.91	3.4450	3.4450	0.2912	23.90	-0.33	0.050			
0.9751	62407.46	3.4440	3.4440	0.2887	23.90	-0.33	0.050			
0.9754	62425.72	3.4430	3.4429	0.2864	23.90	-0.33	0.050			
0.9757	62443.98	3.4420	3.4421	0.2841	23.90	-0.33	0.050			
0.9760	62461.87	3.4410	3.4411	0.2822	23.90	-0.33	0.050			
0.9762	62479.86	3.4400	3.4401	0.2801	23.90	-0.33	0.050			
0.9765	62497.61	3.4390	3.4390	0.2784	23.91	-0.32	0.050			
0.9768	62515.36	3.4380	3.4380	0.2764	23.91	-0.32	0.050			
0.9771	62532.88	3.4370	3.4371	0.2742	23.92	-0.31	0.050			
0.9773	62550.33	3.4360	3.4360	0.2725	23.92	-0.31	0.050			
0.9776	62567.58	3.4350	3.4349	0.2704	23.92	-0.31	0.050			
0.9779	62584.81	3.4340	3.4340	0.2688	23.92	-0.31	0.050			
0.9782	62601.80	3.4330	3.4330	0.2667	23.92	-0.31	0.050			
0.9784	62618.82	3.4320	3.4320	0.2652	23.92	-0.31	0.050			
0.9787	62635.76	3.4310	3.4310	0.2637	23.92	-0.31	0.050			
0.9789	62652.45	3.4300	3.4301	0.2620	23.92	-0.31	0.050			
0.9792	62669.10	3.4290	3.4290	0.2608	23.93	-0.30	0.050			
0.9795	62685.87	3.4280	3.4280	0.2598	23.93	-0.30	0.050			
0.9797	62702.45	3.4270	3.4270	0.2584	23.93	-0.30	0.050			
0.9800	62719.08	3.4260	3.4260	0.2567	23.93	-0.30	0.050			
0.9802	62735.46	3.4250	3.4250	0.2552	23.93	-0.30	0.050			
0.9805	62751.72	3.4240	3.4240	0.2537	23.93	-0.30	0.050			
0.9807	62767.94	3.4230	3.4230	0.2522	23.93	-0.30	0.050			
0.9810	62784.03	3.4220	3.4220	0.2506	23.93	-0.30	0.050			
0.9812	62799.87	3.4210	3.4209	0.2493	23.93	-0.30	0.050			
0.9815	62815.78	3.4200	3.4200	0.2479	23.93	-0.30	0.050			
0.9817	62831.49	3.4190	3.4190	0.2463	23.93	-0.30	0.050			
0.9820	62847.22	3.4180	3.4181	0.2450	23.93	-0.30	0.050			
0.9822	62862.85	3.4170	3.4170	0.2437	23.93	-0.30	0.050			
0.9825	62878.42	3.4160	3.4160	0.2423	23.93	-0.30	0.050			
0.9827	62893.89	3.4150	3.4150	0.2410	23.93	-0.30	0.050			
0.9830	62909.31	3.4140	3.4139	0.2398	23.93	-0.30	0.050			
0.9832	62924.58	3.4130	3.4130	0.2385	23.93	-0.30	0.050			
0.9834	62939.80	3.4120	3.4120	0.2371	23.93	-0.30	0.050			
0.9837	62954.92	3.4110	3.4110	0.2358	23.93	-0.30	0.050			
0.9839	62969.88	3.4100	3.4101	0.2348	23.93	-0.30	0.050			
0.9841	62984.79	3.4090	3.4090	0.2335	23.93	-0.30	0.050			
0.9844	62999.70	3.4080	3.4080	0.2324	23.93	-0.30	0.050			
0.9846	63014.47	3.4070	3.4071	0.2315	23.93	-0.30	0.050			
0.9848	63029.10	3.4060	3.4060	0.2302	23.93	-0.30	0.050			
0.9851	63043.85	3.4050	3.4050	0.2292	23.94	-0.29	0.050			
0.9853	63058.58	3.4040	3.4040	0.2284	23.94	-0.29	0.050			
0.9855	63073.17	3.4030	3.4030	0.2274	23.94	-0.29	0.050			
0.9857	63087.68	3.4020	3.4020	0.2264	23.94	-0.29	0.050			
0.9860	63102.05	3.4010	3.4010	0.2252	23.95	-0.28	0.050			
0.9862	63116.38	3.4000	3.4000	0.2243	23.95	-0.28	0.050			
0.9864	63130.70	3.3990	3.3990	0.2234	23.95	-0.28	0.050			
0.9866	63144.89	3.3980	3.3980	0.2223	23.95	-0.28	0.050			
0.9869	63159.09	3.3970	3.3970	0.2215	23.95	-0.28	0.050			
0.9871	63173.29	3.3960	3.3961	0.2206	23.95	-0.28	0.050			
0.9873	63187.38	3.3950	3.3950	0.2197	23.95	-0.28	0.050			
0.9875	63201.41	3.3940	3.3940	0.2188	23.95	-0.28	0.050			
0.9877	63215.50	3.3930	3.3930	0.2177	23.95	-0.28	0.050			
0.9880	63229.40	3.3920	3.3920	0.2167	23.95	-0.28	0.050			
0.9882	63243.24	3.3910	3.3910	0.2156	23.95	-0.28	0.050			
0.9884	63256.99	3.3900	3.3900	0.2148	23.96	-0.27	0.050	0.214	0.655	
0.9886	63270.70	3.3890	3.3890	0.2138	23.96	-0.27	0.050			
0.9888	63284.35	3.3880	3.3879	0.2128	23.96	-0.27	0.050			
0.9890	63297.88	3.3870	3.3870	0.2117	23.96	-0.27	0.050			
0.9892	63311.40	3.3860	3.3860	0.2107	23.97	-0.26	0.050			
0.9895	63324.85	3.3850	3.3850	0.2097	23.97	-0.26	0.050			
0.9897	63338.16	3.3840	3.3840	0.2090	23.97	-0.26	0.050			
0.9899	63351.51	3.3830	3.3830	0.2081	23.97	-0.26	0.050			
0.9901	63364.83	3.3820	3.3820	0.2072	23.96	-0.27	0.050			
0.9903	63378.05	3.3810	3.3810	0.2064	23.96	-0.27	0.050			
0.9905	63391.19	3.3800	3.3800	0.2054	23.96	-0.27	0.050			
0.9907	63404.31	3.3790	3.3790	0.2045	23.96	-0.27	0.050			
0.9909	63417.37	3.3780	3.3780	0.2036	23.97	-0.26	0.050			
0.9911	63430.38	3.3770	3.3770	0.2027	23.97	-0.26	0.050			
0.9913	63443.23	3.3760	3.3759	0.2017	23.97	-0.26	0.050			
0.9915	63456.11	3.3750	3.3750	0.2009	23.97	-0.26	0.050			
0.9917	63469.11	3.3740	3.3740	0.1995	23.98	-0.25	0.050			
0.9919	63481.93	3.3730	3.3730	0.1987	23.98	-0.25	0.050			
0.9921	63494.62	3.3720	3.3720	0.1977	23.98	-0.25	0.050			
0.9923	63507.18	3.3710	3.3710	0.1968	23.98	-0.25	0.050			
0.9925	63519.86	3.3700	3.3700	0.1961	23.98	-0.25	0.050			
0.9927	63532.37	3.3690	3.3691	0.1950	23.98	-0.25	0.050			
0.9929	63544.70	3.3680	3.3680	0.1942	23.98	-0.25	0.050			
0.9931	63557.04	3.3670	3.3670	0.1931	23.98	-0.25	0.050			
0.9933	63569.37	3.3660	3.3660	0.1922	23.98	-0.25	0.050			
0.9935	63581.64	3.3650	3.3651	0.1913	23.99	-0.24	0.050			
0.9937	63593.78	3.3640	3.3640	0.1904	23.99	-0.24	0.050			
0.9938	63605.94	3.3630	3.3630	0.1896	23.99	-0.24	0.050			
0.9940	63618.05	3.3620	3.3619	0.1887	23.99	-0.24	0.050			
0.9942	63629.83	3.3610	3.3609	0.1878	23.99	-0.24	0.050			
0.9944	63641.83	3.3600	3.3600	0.1872	23.99	-0.24	0.050			
0.9946	63653.79	3.3590	3.3590	0.1866	23.99	-0.24	0.050			
0.9948	63665.71	3.3580	3.3580	0.1860	23.99	-0.24	0.050			
0.9950	63677.46	3.3570	3.3570	0.1853	23.99	-0.24	0.050			
0.9951	63689.30	3.3560	3.3560	0.1849	24.00	-0.23	0.050			
0.9953	63701.12	3.3550	3.3550	0.1844	24.00	-0.23	0.050			
0.9955	63712.98	3.3540	3.3540	0.1835	24.00	-0.23	0.050			
0.9957	63724.71	3.3530	3.3531	0.1829	24.00	-0.23	0.050			
0.9959	63736.40	3.3520	3.3520	0.1824	24.01	-0.22	0.050			
0.9961	63748.25	3.3510	3.3509	0.1821	24.01	-0.22	0.050			
0.9962	63759.89	3.3500	3.3499	0.1814	24.01	-0.22	0.050			
0.9964	63771.47	3.3490	3.3490	0.1806	24.01	-0.22	0.050			
0.9966	63782.98	3.3480	3.3480	0.1798	24.02	-0.21	0.050			
0.9968	63794.53	3.3470	3.3470	0.1790	24.02	-0.21	0.050			
0.9970	63805.96	3.3460	3.3461	0.1782	24.03	-0.20	0.050			
0.9971	63817.34	3.3450	3.3451	0.1774	24.03	-0.20	0.050			
0.9973	63828.75	3.3440	3.3440	0.1768	24.03	-0.20	0.050			
0.9975	63840.06	3.3430	3.3430	0.1759	24.03	-0.20	0.050			
0.9977	63851.29	3.3420	3.3420	0.1750	24.03	-0.20	0.050			
0.9979	63862.58	3.3410	3.3409	0.1744	24.03	-0.20	0.050			
0.9980	63873.71	3.3400	3.3400	0.1735	24.03	-0.20	0.050			
0.9982	63884.72	3.3390	3.3390	0.1727	24.03	-0.20	0.050			
0.9984	63895.74	3.3380	3.3381	0.1718	24.03	-0.20	0.050			
0.9985	63906.63	3.3370	3.3370	0.1708	24.03	-0.20	0.050			
0.9987	63917.53	3.3360	3.3359	0.1699	24.03	-0.20	0.050			
0.9989	63928.34	3.3350	3.3350	0.1693	24.03	-0.20	0.050			
0.9990	63939.09	3.3340	3.3340	0.1684	24.04	-0.19	0.050			
0.9992	63949.84	3.3330	3.3330	0.1676	24.04	-0.19	0.050			
0.9994	63960.54	3.3320	3.3320	0.1669	24.05	-0.18	0.050			
0.9995	63971.12	3.3310	3.3311	0.1665	24.05	-0.18	0.050			
0.9997	63981.73	3.3300	3.3300	0.1658	24.05	-0.18	0.050			
0.9999	63992.32	3.3290	3.3290	0.1652	24.05	-0.18	0.050			
1.0000	64002.89	3.3280	3.3280	0.1645	24.05	-0.18	0.050			
1.0002	64013.32	3.3270	3.3270	0.1636	24.05	-0.18	0.050			
1.0004	64023.77	3.3260	3.3260	0.1630	24.05	-0.18	0.050			
1.0005	64034.19	3.3250	3.3250	0.1625	24.05	-0.18	0.050			
1.0007	64044.57	3.3240	3.3240	0.1619	24.05	-0.18	0.050			
1.0009	64054.91	3.3230	3.3230	0.1613	24.06	-0.17	0.050			
1.0010	64065.22	3.3220	3.3220	0.1607	24.06	-0.17	0.050			
1.0012	64075.49	3.3210	3.3210	0.1601	24.06	-0.17	0.050			
1.0013	64085.69	3.3200	3.3200	0.1596	24.06	-0.17	0.050			
1.0015	64095.90	3.3190	3.3190	0.1591	24.06	-0.17	0.050			
1.0017	64106.06	3.3180	3.3181	0.1585	24.07	-0.16	0.050			
1.0018	64116.19	3.3170	3.3170	0.1580	24.07	-0.16	0.050			
1.0020	64126.33	3.3160	3.3160	0.1573	24.07	-0.16	0.050			
1.0021	64136.40	3.3150	3.3150	0.1567	24.07	-0.16	0.050			
1.0023	64146.41	3.3140	3.3140	0.1561	24.08	-0.15	0.050			
1.0024	64156.38	3.3130	3.3129	0.1555	24.08	-0.15	0.050			
1.0026	64166.31	3.3120	3.3120	0.1548	24.08	-0.15	0.050			
1.0028	64176.20	3.3110	3.3110	0.1543	24.09	-0.14	0.050			
1.0029	64186.06	3.3100	3.3100	0.1537	24.09	-0.14	0.050			
1.0031	64195.87	3.3090	3.3090	0.1530	24.09	-0.14	0.050			
1.0032	64205.58	3.3080	3.3080	0.1523	24.09	-0.14	0.050			
1.0034	64215.37	3.3070	3.3070	0.1516	24.09	-0.14	0.050			
1.0035	64225.05	3.3060	3.3061	0.1510	24.09	-0.14	0.050			
1.0037	64234.70	3.3050	3.3050	0.1504	24.09	-0.14	0.050			
1.0038	64244.41	3.3040	3.3039	0.1500	24.09	-0.14	0.050			
1.0040	64253.93	3.3030	3.3029	0.1493	24.09	-0.14	0.050			
1.0041	64263.47	3.3020	3.3020	0.1487	24.09	-0.14	0.050			
1.0043	64272.97	3.3010	3.3010	0.1480	24.10	-0.13	0.050			
1.0044	64282.39	3.3000	3.3000	0.1473	24.10	-0.13	0.050			
1.0046	64291.80	3.2990	3.2991	0.1467	24.10	-0.13	0.050			
1.0047	64301.07	3.2980	3.2980	0.1463	24.10	-0.13	0.050			
1.0049	64310.42	3.2970	3.2970	0.1458	24.10	-0.13	0.050			
1.0050	64319.63	3.2960	3.2960	0.1450	24.11	-0.12	0.050			
1.0051	64328.90	3.2950	3.2950	0.1446	24.11	-0.12	0.050			
1.0053	64338.22	3.2940	3.2940	0.1439	24.11	-0.12	0.050			
1.0054	64347.41	3.2930	3.2930	0.1434	24.11	-0.12	0.050			
1.0056	64356.57	3.2920	3.2920	0.1428	24.11	-0.12	0.050			
1.0057	64365.72	3.2910	3.2910	0.1423	24.11	-0.12	0.050			
1.0059	64374.81	3.2900	3.2900	0.1418	24.11	-0.12	0.050			
1.0060	64383.85	3.2890	3.2890	0.1413	24.11	-0.12	0.050			
1.0061	64392.88	3.2880	3.2880	0.1407	24.11	-0.12	0.050			
1.0063	64401.84	3.2870	3.2870	0.1401	24.11	-0.12	0.050			
1.0064	64410.79	3.2860	3.2860	0.1396	24.11	-0.12	0.050			
1.0066	64419.65	3.2850	3.2851	0.1393	24.11	-0.12	0.050			
1.0067	64428.55	3.2840	3.2841	0.1388	24.11	-0.12	0.050			
1.0068	64437.44	3.2830	3.2830	0.1384	24.11	-0.12	0.050			
1.0070	64446.37	3.2820	3.2820	0.1378	24.11	-0.12	0.050			
1.0071	64455.17	3.2810	3.2810	0.1372	24.11	-0.12	0.050			
1.0072	64463.94	3.2800	3.2799	0.1367	24.11	-0.12	0.050			
1.0074	64472.67	3.2790	3.2789	0.1361	24.11	-0.12	0.050			
1.0075	64481.37	3.2780	3.2780	0.1356	24.12	-0.11	0.050			
1.0077	64490.03	3.2770	3.2770	0.1351	24.12	-0.11	0.050			
1.0078	64498.66	3.2760	3.2760	0.1345	24.12	-0.11	0.050			
1.0079	64507.25	3.2750	3.2750	0.1340	24.12	-0.11	0.050			
1.0081	64515.77	3.2740	3.2740	0.1333	24.12	-0.11	0.050			
1.0082	64524.28	3.2730	3.2730	0.1328	24.12	-0.11	0.050			
1.0083	64532.76	3.2720	3.2720	0.1323	24.13	-0.10	0.050	0.315	0.750	
1.0085	64541.21	3.2710	3.2710	0.1318	24.13	-0.10	0.050			
1.0086	64549.60	3.2700	3.2700	0.1314	24.13	-0.10	0.050			
1.0087	64558.07	3.2690	3.2690	0.1310	24.13	-0.10	0.050			
1.0089	64566.44	3.2680	3.2680	0.1305	24.13	-0.10	0.050			
1.0090	64574.77	3.2670	3.2670	0.1299	24.13	-0.10	0.050			
1.0091	64583.07	3.2660	3.2660	0.1294	24.13	-0.10	0.050			
1.0092	64591.29	3.2650	3.2650	0.1287	24.13	-0.10	0.050			
1.0094	64599.51	3.2640	3.2640	0.1282	24.13	-0.10	0.050			
1.0095	64607.70	3.2630	3.2630	0.1277	24.13	-0.10	0.050			
1.0096	64615.78	3.2620	3.2620	0.1270	24.13	-0.10	0.050			
1.0097	64623.90	3.2610	3.2610	0.1265	24.13	-0.10	0.050			
1.0099	64631.98	3.2600	3.2600	0.1261	24.13	-0.10	0.050			
1.0100	64640.04	3.2590	3.2589	0.1256	24.14	-0.09	0.050			
1.0101	64648.06	3.2580	3.2580	0.1252	24.14	-0.09	0.050			
1.0103	64656.06	3.2570	3.2570	0.1247	24.14	-0.09	0.050			
1.0104	64664.03	3.2560	3.2560	0.1243	24.14	-0.09	0.050			
1.0105	64671.99	3.2550	3.2550	0.1240	24.14	-0.09	0.050			
1.0106	64679.91	3.2540	3.2540	0.1236	24.14	-0.09	0.050			
1.0107	64687.80	3.2530	3.2530	0.1231	24.14	-0.09	0.050			
1.0109	64695.66	3.2520	3.2519	0.1226	24.14	-0.09	0.050			
1.0110	64703.50	3.2510	3.2510	0.1222	24.14	-0.09	0.050			
1.0111	64711.26	3.2500	3.2500	0.1217	24.14	-0.09	0.050			
1.0112	64719.04	3.2490	3.2490	0.1213	24.14	-0.09	0.050			
1.0114	64726.79	3.2480	3.2480	0.1209	24.14	-0.09	0.050			
1.0115	64734.51	3.2470	3.2470	0.1205	24.14	-0.09	0.050			
1.0116	64742.21	3.2460	3.2460	0.1200	24.14	-0.09	0.050			
1.0117	64749.82	3.2450	3.2450	0.1195	24.14	-0.09	0.050			
1.0118	64757.46	3.2440	3.2440	0.1191	24.14	-0.09	0.050			
1.0120	64765.07	3.2430	3.2430	0.1188	24.14	-0.09	0.050			
1.0121	64772.66	3.2420	3.2420	0.1184	24.14	-0.09	0.050			
1.0122	64780.22	3.2410	3.2411	0.1180	24.14	-0.09	0.050			
1.0123	64787.83	3.2400	3.2400	0.1177	24.14	-0.09	0.050			
1.0124	64795.41	3.2390	3.2390	0.1171	24.14	-0.09	0.050			
1.0125	64802.89	3.2380	3.2380	0.1167	24.15	-0.08	0.050			
1.0127	64810.34	3.2370	3.2370	0.1162	24.15	-0.08	0.050			
1.0128	64817.76	3.2360	3.2360	0.1157	24.15	-0.08	0.050			
1.0129	64825.20	3.2350	3.2350	0.1153	24.15	-0.08	0.050			
1.0130	64832.56	3.2340	3.2340	0.1148	24.15	-0.08	0.050			
1.0131	64839.81	3.2330	3.2330	0.1145	24.15	-0.08	0.050			
1.0132	64847.12	3.2320	3.2321	0.1140	24.15	-0.08	0.050			
1.0134	64854.41	3.2310	3.2310	0.1136	24.15	-0.08	0.050			
1.0135	64861.63	3.2300	3.2300	0.1131	24.15	-0.08	0.050			
1.0136	64868.86	3.2290	3.2289	0.1127	24.15	-0.08	0.050			
1.0137	64876.05	3.2280	3.2280	0.1123	24.15	-0.08	0.050			
1.0138	64883.22	3.2270	3.2270	0.1119	24.15	-0.08	0.050			
1.0139	64890.37	3.2260	3.2260	0.1115	24.15	-0.08	0.050			
1.0140	64897.47	3.2250	3.2250	0.1110	24.15	-0.08	0.050			
1.0141	64904.56	3.2240	3.2241	0.1106	24.15	-0.08	0.050			
1.0142	64911.63	3.2230	3.2230	0.1102	24.16	-0.07	0.050			
1.0144	64918.70	3.2220	3.2219	0.1097	24.16	-0.07	0.050			
1.0145	64925.71	3.2210	3.2209	0.1093	24.16	-0.07	0.050			
1.0146	64932.70	3.2200	3.2201	0.1089	24.16	-0.07	0.050			
1.0147	64939.64	3.2190	3.2190	0.1084	24.16	-0.07	0.050			
1.0148	64946.56	3.2180	3.2179	0.1080	24.16	-0.07	0.050			
1.0149	64953.46	3.2170	3.2170	0.1076	24.16	-0.07	0.050			
1.0150	64960.34	3.2160	3.2161	0.1072	24.17	-0.06	0.050			
1.0151	64967.17	3.2150	3.2150	0.1068	24.17	-0.06	0.050			
1.0152	64973.99	3.2140	3.2140	0.1064	24.17	-0.06	0.050			
1.0153	64980.87	3.2130	3.2130	0.1062	24.17	-0.06	0.050			
1.0154	64987.65	3.2120	3.2120	0.1057	24.17	-0.06	0.050			
1.0155	64994.40	3.2110	3.2110	0.1053	24.17	-0.06	0.050			
1.0156	65001.06	3.2100	3.2100	0.1050	24.17	-0.06	0.050			
1.0157	65007.77	3.2090	3.2090	0.1046	24.17	-0.06	0.050			
1.0158	65014.37	3.2080	3.2080	0.1040	24.17	-0.06	0.050			
1.0160	65021.01	3.2070	3.2070	0.1036	24.17	-0.06	0.050			
1.0161	65027.63	3.2060	3.2060	0.1033	24.17	-0.06	0.050			
1.0162	65034.23	3.2050	3.2050	0.1029	24.17	-0.06	0.050			
1.0163	65040.84	3.2040	3.2040	0.1024	24.17	-0.06	0.050			
1.0164	65047.39	3.2030	3.2030	0.1021	24.17	-0.06	0.050			
1.0165	65053.91	3.2020	3.2020	0.1017	24.17	-0.06	0.050			
1.0166	65060.41	3.2010	3.2010	0.1013	24.17	-0.06	0.050			
1.0167	65066.88	3.2000	3.2000	0.1009	24.18	-0.05	0.050			
1.0168	65073.32	3.1990	3.1990	0.1005	24.18	-0.05	0.050			
1.0169	65079.75	3.1980	3.1980	0.1002	24.18	-0.05	0.050			
1.0170	65086.14	3.1970	3.1970	0.0998	24.18	-0.05	0.050			
1.0171	65092.52	3.1960	3.1960	0.0994	24.18	-0.05	0.050			
1.0172	65098.91	3.1950	3.1950	0.0991	24.18	-0.05	0.050			
1.0173	65105.24	3.1940	3.1940	0.0987	24.18	-0.05	0.050			
1.0174	65111.54	3.1930	3.1930	0.0983	24.18	-0.05	0.050			
1.0175	65117.82	3.1920	3.1920	0.0979	24.18	-0.05	0.050			
1.0176	65124.07	3.1910	3.1910	0.0975	24.19	-0.04	0.050			
1.0177	65130.27	3.1900	3.1900	0.0970	24.19	-0.04	0.050			
1.0178	65136.41	3.1890	3.1890	0.0967	24.19	-0.04	0.050			
1.0179	65142.59	3.1880	3.1880	0.0964	24.19	-0.04	0.050			
1.0179	65148.75	3.1870	3.1870	0.0960	24.19	-0.04	0.050			
1.0180	65154.89	3.1860	3.1860	0.0957	24.19	-0.04	0.050			
1.0181	65161.00	3.1850	3.1850	0.0953	24.19	-0.04	0.050			
1.0182	65167.01	3.1840	3.1840	0.0949	24.19	-0.04	0.050			
1.0183	65173.17	3.1830	3.1830	0.0945	24.19	-0.04	0.050			
1.0184	65179.20	3.1820	3.1820	0.0941	24.19	-0.04	0.050			
1.0185	65185.21	3.1810	3.1810	0.0938	24.19	-0.04	0.050			
1.0186	65191.21	3.1800	3.1800	0.0934	24.19	-0.04	0.050			
1.0187	65197.17	3.1790	3.1790	0.0931	24.19	-0.04	0.050			
1.0188	65203.12	3.1780	3.1780	0.0927	24.19	-0.04	0.050			
1.0189	65209.01	3.1770	3.1770	0.0925	24.19	-0.04	0.050			
1.0190	65214.92	3.1760	3.1760	0.0922	24.19	-0.04	0.050			
1.0191	65220.81	3.1750	3.1750	0.0918	24.19	-0.04	0.050			
1.0192	65226.67	3.1740	3.1740	0.0915	24.19	-0.04	0.050			
1.0193	65232.51	3.1730	3.1730	0.0911	24.19	-0.04	0.050			
1.0193	65238.34	3.1720	3.1720	0.0908	24.19	-0.04	0.050			
1.0194	65244.14	3.1710	3.1710	0.0905	24.19	-0.04	0.050			
1.0195	65249.91	3.1700	3.1699	0.0901	24.19	-0.04	0.050			
1.0196	65255.65	3.1690	3.1689	0.0898	24.19	-0.04	0.050			
1.0197	65261.38	3.1680	3.1680	0.0894	24.19	-0.04	0.050			
1.0198	65267.10	3.1670	3.1670	0.0891	24.20	-0.03	0.050			
1.0199	65272.79	3.1660	3.1660	0.0888	24.20	-0.03	0.050			
1.0200	65278.46	3.1650	3.1650	0.0885	24.20	-0.03	0.050			
1.0201	65284.14	3.1640	3.1640	0.0881	24.20	-0.03	0.050			
1.0202	65289.75	3.1630	3.1630	0.0877	24.20	-0.03	0.050			
1.0202	65295.35	3.1620	3.1620	0.0874	24.21	-0.02	0.050			
1.0203	65300.93	3.1610	3.1610	0.0870	24.21	-0.02	0.050			
1.0204	65306.49	3.1600	3.1600	0.0867	24.21	-0.02	0.050			
1.0205	65312.03	3.1590	3.1590	0.0864	24.21	-0.02	0.050			
1.0206	65317.54	3.1580	3.1581	0.0860	24.21	-0.02	0.050			
1.0207	65323.08	3.1570	3.1571	0.0859	24.21	-0.02	0.050			
1.0208	65328.56	3.1560	3.1560	0.0855	24.21	-0.02	0.050			
1.0208	65334.02	3.1550	3.1550	0.0851	24.21	-0.02	0.050			
1.0209	65339.46	3.1540	3.1540	0.0848	24.21	-0.02	0.050			
1.0210	65344.87	3.1530	3.1530	0.0844	24.21	-0.02	0.050			
1.0211	65350.26	3.1520	3.1520	0.0840	24.21	-0.02	0.050			
1.0212	65355.59	3.1510	3.1509	0.0839	24.21	-0.02	0.050			
1.0213	65360.88	3.1500	3.1500	0.0834	24.21	-0.02	0.050			
1.0213	65366.21	3.1490	3.1490	0.0831	24.21	-0.02	0.050			
1.0214	65371.51	3.1480	3.1480	0.0828	24.21	-0.02	0.050			
1.0215	65376.80	3.1470	3.1470	0.0825	24.21	-0.02	0.050			
1.0216	65382.07	3.1460	3.1460	0.0822	24.21	-0.02	0.050			
1.0217	65387.32	3.1450	3.1450	0.0819	24.20	-0.03	0.050			
1.0218	65392.56	3.1440	3.1440	0.0815	24.20	-0.03	0.050			
1.0218	65397.77	3.1430	3.1430	0.0812	24.20	-0.03	0.050			
1.0219	65402.96	3.1420	3.1420	0.0809	24.20	-0.03	0.050			
1.0220	65408.13	3.1410	3.1410	0.0806	24.20	-0.03	0.050			
1.0221	65413.28	3.1400	3.1400	0.0803	24.20	-0.03	0.050			
1.0222	65418.41	3.1390	3.1391	0.0800	24.20	-0.03	0.050			
1.0222	65423.57	3.1380	3.1381	0.0798	24.20	-0.03	0.050			
1.0223	65428.66	3.1370	3.1371	0.0795	24.20	-0.03	0.050			
1.0224	65433.74	3.1360	3.1360	0.0792	24.20	-0.03	0.050			
1.0225	65438.79	3.1350	3.1350	0.0788	24.21	-0.02	0.050			
1.0226	65443.83	3.1340	3.1340	0.0785	24.21	-0.02	0.050			
1.0226	65448.84	3.1330	3.1330	0.0782	24.21	-0.02	0.050			
1.0227	65453.84	3.1320	3.1320	0.0779	24.21	-0.02	0.050			
1.0228	65458.83	3.1310	3.1310	0.0776	24.21	-0.02	0.050			
1.0229	65463.78	3.1300	3.1300	0.0773	24.21	-0.02	0.050			
1.0229	65468.67	3.1290	3.1290	0.0770	24.21	-0.02	0.050			
1.0230	65473.59	3.1280	3.1280	0.0768	24.21	-0.02	0.050			
1.0231	65478.49	3.1270	3.1270	0.0765	24.21	-0.02	0.050			
1.0232	65483.38	3.1260	3.1260	0.0762	24.21	-0.02	0.050			
1.0233	65488.24	3.1250	3.1250	0.0759	24.21	-0.02	0.050			
1.0233	65493.03	3.1240	3.1240	0.0755	24.22	-0.01	0.050			
1.0234	65497.86	3.1230	3.1230	0.0753	24.22	-0.01	0.050			
1.0235	65502.70	3.1220	3.1220	0.0749	24.22	-0.01	0.050			
1.0236	65507.49	3.1210	3.1210	0.0747	24.22	-0.01	0.050			
1.0236	65512.26	3.1200	3.1200	0.0744	24.22	-0.01	0.050			
1.0237	65517.01	3.1190	3.1189	0.0741	24.22	-0.01	0.050			
1.0238	65521.74	3.1180	3.1180	0.0738	24.22	-0.01	0.050			
1.0239	65526.47	3.1170	3.1170	0.0736	24.22	-0.01	0.050			
1.0239	65531.17	3.1160	3.1160	0.0733	24.22	-0.01	0.050			
1.0240	65535.85	3.1150	3.1151	0.0730	24.22	-0.01	0.050			
1.0241	65540.53	3.1140	3.1140	0.0726	24.22	-0.01	0.050			
1.0241	65545.17	3.1130	3.1130	0.0723	24.23	-0.00	0.050			
1.0242	65549.79	3.1120	3.1120	0.0720	24.23	-0.00	0.050			
1.0243	65554.40	3.1110	3.1110	0.0717	24.23	-0.00	0.050			
1.0244	65558.98	3.1100	3.1100	0.0714	24.23	-0.00	0.050			
1.0244	65563.58	3.1090	3.1090	0.0712	24.23	-0.00	0.050			
1.0245	65568.12	3.1080	3.1080	0.0709	24.23	-0.00	0.050			
1.0246	65572.65	3.1070	3.1070	0.0705	24.23	-0.00	0.050			
1.0246	65577.15	3.1060	3.1060	0.0702	24.23	-0.00	0.050			
1.0247	65581.58	3.1050	3.1050	0.0701	24.23	-0.00	0.050			
1.0248	65586.05	3.1040	3.1040	0.0698	24.23	-0.00	0.050			
1.0249	65590.51	3.1030	3.1031	0.0695	24.23	-0.00	0.050			
1.0249	65594.89	3.1020	3.1021	0.0691	24.23	-0.00	0.050			
1.0250	65599.30	3.1010	3.1011	0.0688	24.22	-0.01	0.050			
1.0251	65603.70	3.1000	3.1000	0.0686	24.22	-0.01	0.050			
1.0251	65608.08	3.0990	3.0990	0.0683	24.22	-0.01	0.050			
1.0252	65612.44	3.0980	3.0980	0.0681	24.22	-0.01	0.050			
1.0253	65616.83	3.0970	3.0970	0.0677	24.22	-0.01	0.050			
1.0253	65621.15	3.0960	3.0960	0.0675	24.22	-0.01	0.050			
1.0254	65625.46	3.0950	3.0950	0.0672	24.22	-0.01	0.050			
1.0255	65629.75	3.0940	3.0940	0.0669	24.22	-0.01	0.050			
1.0255	65634.03	3.0930	3.0930	0.0667	24.22	-0.01	0.050			
1.0256	65638.29	3.0920	3.0920	0.0664	24.22	-0.01	0.050			
1.0257	65642.53	3.0910	3.0910	0.0661	24.22	-0.01	0.050			
1.0257	65646.75	3.0900	3.0900	0.0658	24.22	-0.01	0.050			
1.0258	65650.95	3.0890	3.0890	0.0656	24.22	-0.01	0.050			
1.0259	65655.18	3.0880	3.0880	0.0652	24.23	-0.00	0.050			
1.0259	65659.34	3.0870	3.0870	0.0649	24.23	-0.00	0.050			
1.0260	65663.49	3.0860	3.0860	0.0646	24.23	-0.00	0.050			
1.0261	65667.68	3.0850	3.0850	0.0644	24.23	-0.00	0.050			
1.0261	65671.79	3.0840	3.0840	0.0641	24.23	-0.00	0.050			
1.0262	65675.89	3.0830	3.0830	0.0638	24.23	-0.00	0.050			
1.0262	65679.96	3.0820	3.0820	0.0635	24.23	0.00	0.050			
1.0263	65684.01	3.0810	3.0810	0.0631	24.23	0.00	0.050			
1.0264	65688.04	3.0800	3.0800	0.0628	24.23	0.00	0.050			
1.0264	65692.09	3.0790	3.0790	0.0624	24.23	0.00	0.050			
1.0265	65696.07	3.0780	3.0780	0.0620	24.23	0.00	0.050			
1.0266	65700.05	3.0770	3.0770	0.0617	24.23	0.00	0.050			
1.0266	65703.99	3.0760	3.0760	0.0614	24.23	0.00	0.050			
1.0267	65707.91	3.0750	3.0750	0.0610	24.23	0.00	0.050			
1.0267	65711.80	3.0740	3.0740	0.0607	24.23	0.00	0.050			
1.0268	65715.67	3.0730	3.0731	0.0603	24.23	0.00	0.050			
1.0269	65719.52	3.0720	3.0720	0.0599	24.23	0.00	0.050			
1.0269	65723.34	3.0710	3.0710	0.0596	24.23	0.00	0.050			
1.0270	65727.14	3.0700	3.0700	0.0592	24.23	0.00	0.050			
1.0271	65731.64	3.0690	3.0688	0.0568	24.23	0.00	0.050			
1.0271	65735.52	3.0680	3.0678	0.0576	24.23	0.00	0.050			
1.0272	65739.18	3.0670	3.0669	0.0567	24.23	0.00	0.050			
1.0272	65742.79	3.0660	3.0659	0.0559	24.23	0.00	0.050			
1.0273	65746.34	3.0650	3.0649	0.0550	24.23	0.00	0.050			
1.0273	65749.83	3.0640	3.0639	0.0542	24.23	0.00	0.050			
1.0274	65753.27	3.0630	3.0630	0.0533	24.23	0.00	0.050			
1.0274	65756.66	3.0620	3.0621	0.0525	24.23	0.00	0.050			
1.0275	65759.99	3.0610	3.0611	0.0516	24.23	0.00	0.050			
1.0276	65763.26	3.0600	3.0603	0.0508	24.23	0.00	0.050			
1.0276	65767.20	3.0590	3.0591	0.0510	24.23	0.00	0.050			
1.0277	65770.43	3.0580	3.0581	0.0499	24.23	0.00	0.050			
1.0277	65773.58	3.0570	3.0572	0.0487	24.23	0.00	0.050			
1.0278	65776.67	3.0560	3.0563	0.0476	24.23	0.00	0.050			
1.0278	65779.68	3.0550	3.0555	0.0465	24.23	0.00	0.050			
1.0279	65782.62	3.0540	3.0545	0.0454	24.23	0.00	0.050			
1.0279	65785.50	3.0530	3.0536	0.0443	24.23	0.00	0.050			
1.0279	65788.30	3.0520	3.0528	0.0432	24.23	0.00	0.050			
1.0280	65791.02	3.0510	3.0519	0.0421	24.23	0.00	0.050			
1.0280	65793.68	3.0500	3.0510	0.0410	24.23	0.00	0.050			
1.0281	65796.27	3.0490	3.0501	0.0399	24.23	0.00	0.050			
1.0281	65798.79	3.0480	3.0492	0.0388	24.23	0.00	0.050			
1.0281	65801.23	3.0470	3.0484	0.0376	24.23	0.00	0.050			
1.0282	65803.60	3.0460	3.0475	0.0365	24.23	0.00	0.050			
1.0282	65805.91	3.0450	3.0465	0.0354	24.23	0.00	0.050			
1.0283	65808.14	3.0440	3.0455	0.0343	24.23	0.00	0.050			
