Ah_balance (normalized)	Ah_balance (mAh)	Voltage - fit (V)	Voltage -  interpolate (V)	dQ/dV (1/V)	Temperature (°C)	Temperature - diff (°C)	Current (C)	R_DC 0ms (mOhm)	R_DC 50ms (mOhm)	R_DC 50 ms PEC (mOhm)
0.0209	1337.51	4.1990	4.1990	13.2233	25.03	1.72	0.230			
0.0343	2195.98	4.1960	4.1988	2.2119	25.05	1.74	0.438			
0.0394	2519.27	4.1930	4.1954	1.6640	25.04	1.73	0.500			
0.0435	2782.54	4.1900	4.1902	1.3638	25.04	1.73	0.500			
0.0461	2949.89	4.1870	4.1870	0.8041	25.04	1.73	0.500			
0.0485	3103.98	4.1840	4.1840	0.8045	25.04	1.73	0.500			
0.0509	3258.30	4.1810	4.1810	0.8049	25.03	1.72	0.500			
0.0533	3412.51	4.1780	4.1780	0.8067	25.02	1.71	0.500			
0.0557	3567.65	4.1750	4.1750	0.8084	25.01	1.70	0.500			
0.0582	3723.35	4.1720	4.1719	0.8101	25.01	1.70	0.500			
0.0606	3878.96	4.1690	4.1690	0.8108	25.01	1.70	0.500			
0.0630	4034.62	4.1660	4.1660	0.8125	25.00	1.69	0.500			
0.0655	4190.99	4.1630	4.1630	0.8141	25.00	1.69	0.500			
0.0679	4347.19	4.1600	4.1600	0.8160	25.00	1.69	0.500			
0.0704	4503.69	4.1570	4.1570	0.8148	25.00	1.69	0.500			
0.0728	4660.53	4.1540	4.1540	0.8160	25.00	1.69	0.500			
0.0753	4817.63	4.1510	4.1510	0.8178	24.99	1.68	0.500			
0.0777	4974.42	4.1480	4.1480	0.8191	24.99	1.68	0.500			
0.0802	5131.52	4.1450	4.1450	0.8189	24.98	1.67	0.500			
0.0826	5289.24	4.1420	4.1420	0.8195	24.98	1.67	0.500			
0.0851	5446.61	4.1390	4.1390	0.8198	24.97	1.66	0.500			
0.0876	5604.38	4.1360	4.1360	0.8218	24.97	1.66	0.500			
0.0900	5762.03	4.1330	4.1330	0.8206	24.96	1.65	0.500			
0.0925	5919.26	4.1300	4.1300	0.8216	24.96	1.65	0.500			
0.0949	6076.54	4.1270	4.1270	0.8224	24.95	1.64	0.500			
0.0974	6235.46	4.1240	4.1240	0.8229	24.95	1.64	0.500			
0.0999	6394.07	4.1210	4.1210	0.8238	24.94	1.63	0.500			
0.1024	6551.50	4.1180	4.1180	0.8253	24.93	1.62	0.500			
0.1048	6709.77	4.1150	4.1150	0.8257	24.93	1.62	0.500			
0.1073	6868.96	4.1120	4.1120	0.8251	24.92	1.61	0.500			
0.1098	7026.77	4.1090	4.1090	0.8256	24.91	1.60	0.500			
0.1123	7185.72	4.1060	4.1060	0.8258	24.91	1.60	0.500			
0.1148	7344.59	4.1030	4.1029	0.8265	24.90	1.59	0.500			
0.1172	7502.67	4.1000	4.1000	0.8269	24.89	1.58	0.500			
0.1197	7661.32	4.0970	4.0970	0.8271	24.89	1.58	0.500			
0.1222	7820.95	4.0940	4.0940	0.8277	24.88	1.57	0.500			
0.1247	7980.22	4.0910	4.0910	0.8283	24.88	1.57	0.500			
0.1272	8138.38	4.0880	4.0880	0.8283	24.88	1.57	0.500			
0.1297	8297.73	4.0850	4.0850	0.8298	24.89	1.58	0.500			
0.1321	8456.72	4.0820	4.0820	0.8308	24.89	1.58	0.500			
0.1346	8616.18	4.0790	4.0790	0.8331	24.89	1.58	0.500			
0.1371	8776.62	4.0760	4.0760	0.8347	24.88	1.57	0.500			
0.1396	8937.26	4.0730	4.0730	0.8353	24.88	1.57	0.500			
0.1422	9097.63	4.0700	4.0700	0.8359	24.88	1.57	0.500			
0.1447	9257.87	4.0670	4.0670	0.8386	24.87	1.56	0.500			
0.1472	9419.32	4.0640	4.0640	0.8381	24.87	1.56	0.500			
0.1497	9580.14	4.0610	4.0610	0.8391	24.86	1.55	0.500			
0.1522	9741.10	4.0580	4.0580	0.8407	24.86	1.55	0.500			
0.1547	9903.15	4.0550	4.0550	0.8415	24.85	1.54	0.500			
0.1573	10064.58	4.0520	4.0520	0.8431	24.84	1.53	0.500			
0.1598	10226.14	4.0490	4.0490	0.8456	24.84	1.53	0.500			
0.1623	10387.87	4.0460	4.0460	0.8482	24.84	1.53	0.500			
0.1649	10552.06	4.0430	4.0429	0.8497	24.84	1.53	0.500			
0.1674	10715.70	4.0400	4.0400	0.8497	24.84	1.53	0.500			
0.1700	10878.94	4.0370	4.0370	0.8504	24.84	1.53	0.500			
0.1725	11042.40	4.0340	4.0340	0.8512	24.84	1.53	0.500			
0.1751	11204.75	4.0310	4.0310	0.8529	24.84	1.53	0.500			
0.1776	11368.85	4.0280	4.0280	0.8547	24.84	1.53	0.500			
0.1802	11533.33	4.0250	4.0250	0.8579	24.84	1.53	0.500			
0.1828	11699.28	4.0220	4.0221	0.8615	24.84	1.53	0.500			
0.1854	11864.82	4.0190	4.0190	0.8631	24.84	1.53	0.500			
0.1880	12030.76	4.0160	4.0160	0.8623	24.84	1.53	0.500			
0.1906	12195.41	4.0130	4.0130	0.8632	24.84	1.53	0.500			
0.1931	12360.91	4.0100	4.0100	0.8641	24.83	1.52	0.500			
0.1957	12527.80	4.0070	4.0070	0.8681	24.83	1.52	0.500			
0.1984	12694.43	4.0040	4.0040	0.8674	24.82	1.51	0.500			
0.2009	12860.69	4.0010	4.0010	0.8713	24.81	1.50	0.500			
0.2036	13027.91	3.9980	3.9980	0.8750	24.81	1.50	0.500			
0.2062	13196.68	3.9950	3.9949	0.8770	24.80	1.49	0.500			
0.2088	13364.96	3.9920	3.9920	0.8774	24.80	1.49	0.500			
0.2115	13534.21	3.9890	3.9890	0.8815	24.81	1.50	0.500			
0.2141	13704.08	3.9860	3.9860	0.8823	24.81	1.50	0.500			
0.2168	13873.29	3.9830	3.9830	0.8844	24.81	1.50	0.500			
0.2194	14043.02	3.9800	3.9801	0.8857	24.80	1.49	0.500			
0.2221	14213.82	3.9770	3.9770	0.8878	24.80	1.49	0.500			
0.2248	14384.64	3.9740	3.9740	0.8935	24.80	1.49	0.500			
0.2274	14555.91	3.9710	3.9710	0.8960	24.79	1.48	0.500			
0.2301	14728.51	3.9680	3.9680	0.8963	24.78	1.47	0.500			
0.2328	14900.90	3.9650	3.9651	0.9029	24.78	1.47	0.500			
0.2355	15073.82	3.9620	3.9620	0.9063	24.78	1.47	0.500			
0.2383	15248.94	3.9590	3.9590	0.9099	24.78	1.47	0.500			
0.2410	15424.07	3.9560	3.9560	0.9136	24.78	1.47	0.500			
0.2437	15599.24	3.9530	3.9530	0.9181	24.78	1.47	0.500			
0.2465	15776.39	3.9500	3.9501	0.9224	24.77	1.46	0.500			
0.2493	15954.59	3.9470	3.9470	0.9276	24.77	1.46	0.500			
0.2521	16131.97	3.9440	3.9440	0.9294	24.76	1.45	0.500			
0.2549	16311.84	3.9410	3.9410	0.9335	24.75	1.44	0.500			
0.2577	16491.60	3.9380	3.9380	0.9408	24.75	1.44	0.500			
0.2605	16671.86	3.9350	3.9350	0.9464	24.75	1.44	0.500			
0.2633	16854.01	3.9320	3.9320	0.9523	24.74	1.43	0.500			
0.2662	17038.08	3.9290	3.9290	0.9559	24.74	1.43	0.500			
0.2691	17222.97	3.9260	3.9261	0.9595	24.75	1.44	0.500			
0.2720	17407.30	3.9230	3.9230	0.9598	24.75	1.44	0.500			
0.2749	17591.80	3.9200	3.9200	0.9645	24.75	1.44	0.500			
0.2777	17775.74	3.9170	3.9170	0.9664	24.75	1.44	0.500			
0.2806	17961.40	3.9140	3.9139	0.9708	24.75	1.44	0.500			
0.2836	18148.49	3.9110	3.9110	0.9778	24.75	1.44	0.500			
0.2865	18336.90	3.9080	3.9080	0.9845	24.74	1.43	0.500			
0.2895	18527.00	3.9050	3.9050	0.9925	24.74	1.43	0.500			
0.2925	18717.96	3.9020	3.9020	0.9973	24.73	1.42	0.500			
0.2955	18909.71	3.8990	3.8990	1.0021	24.73	1.42	0.500			
0.2985	19102.82	3.8960	3.8960	1.0075	24.72	1.41	0.500			
0.3015	19297.06	3.8930	3.8930	1.0136	24.71	1.40	0.500			
0.3046	19492.25	3.8900	3.8900	1.0174	24.70	1.39	0.500			
0.3076	19688.25	3.8870	3.8870	1.0211	24.70	1.39	0.500			
0.3107	19884.38	3.8840	3.8840	1.0265	24.69	1.38	0.500			
0.3138	20082.03	3.8810	3.8810	1.0332	24.68	1.37	0.500			
0.3169	20281.18	3.8780	3.8780	1.0366	24.68	1.37	0.500			
0.3200	20480.26	3.8750	3.8750	1.0436	24.68	1.37	0.500			
0.3231	20681.56	3.8720	3.8720	1.0460	24.68	1.37	0.500			
0.3263	20882.84	3.8690	3.8690	1.0527	24.67	1.36	0.500			
0.3295	21085.16	3.8660	3.8660	1.0564	24.66	1.35	0.500			
0.3326	21288.81	3.8630	3.8630	1.0568	24.66	1.35	0.500			
0.3358	21491.80	3.8600	3.8600	1.0623	24.64	1.33	0.500			
0.3390	21696.49	3.8570	3.8570	1.0673	24.63	1.32	0.500			
0.3422	21901.30	3.8540	3.8541	1.0707	24.62	1.31	0.500			
0.3454	22107.59	3.8510	3.8510	1.0776	24.61	1.30	0.500			
0.3487	22313.86	3.8480	3.8480	1.0799	24.60	1.29	0.500			
0.3519	22523.00	3.8450	3.8450	1.0853	24.58	1.27	0.500			
0.3552	22732.35	3.8420	3.8420	1.0899	24.57	1.26	0.500			
0.3585	22941.24	3.8390	3.8389	1.0877	24.55	1.24	0.500			
0.3617	23151.27	3.8360	3.8360	1.0879	24.53	1.22	0.500			
0.3650	23360.06	3.8330	3.8330	1.0871	24.52	1.21	0.500			
0.3682	23567.56	3.8300	3.8300	1.0886	24.50	1.19	0.500			
0.3715	23776.71	3.8270	3.8270	1.0853	24.48	1.17	0.500			
0.3748	23985.12	3.8240	3.8240	1.0880	24.46	1.15	0.500			
0.3780	24194.72	3.8210	3.8210	1.0849	24.43	1.12	0.500			
0.3813	24403.54	3.8180	3.8180	1.0815	24.40	1.09	0.500			
0.3846	24611.60	3.8150	3.8150	1.0768	24.37	1.06	0.500			
0.3877	24815.75	3.8120	3.8120	1.0759	24.34	1.03	0.500			
0.3909	25020.75	3.8090	3.8090	1.0732	24.31	1.00	0.500			
0.3942	25227.52	3.8060	3.8060	1.0803	24.28	0.97	0.500			
0.3974	25433.92	3.8030	3.8030	1.0833	24.25	0.94	0.500			
0.4007	25642.74	3.8000	3.8001	1.0946	24.22	0.91	0.500			
0.4040	25853.95	3.7970	3.7970	1.1083	24.18	0.87	0.500			
0.4073	26067.70	3.7940	3.7940	1.1207	24.15	0.84	0.500			
0.4107	26282.69	3.7910	3.7911	1.1352	24.11	0.80	0.500			
0.4141	26502.95	3.7880	3.7880	1.1494	24.07	0.76	0.500			
0.4176	26724.18	3.7850	3.7850	1.1667	24.03	0.72	0.500			
0.4211	26950.66	3.7820	3.7820	1.1831	23.99	0.68	0.500			
0.4247	27178.70	3.7790	3.7790	1.2015	23.94	0.63	0.500			
0.4283	27410.21	3.7760	3.7760	1.2205	23.90	0.59	0.500			
0.4320	27647.51	3.7730	3.7730	1.2401	23.87	0.56	0.500			
0.4357	27886.75	3.7700	3.7701	1.2593	23.82	0.51	0.500			
0.4396	28132.18	3.7670	3.7670	1.2720	23.76	0.45	0.500			
0.4434	28378.20	3.7640	3.7640	1.2832	23.72	0.41	0.500			
0.4473	28625.23	3.7610	3.7611	1.2879	23.66	0.35	0.500			
0.4512	28875.08	3.7580	3.7580	1.2885	23.62	0.31	0.500			
0.4551	29124.85	3.7550	3.7550	1.2701	23.58	0.27	0.500			
0.4589	29371.00	3.7520	3.7520	1.2390	23.53	0.22	0.500			
0.4627	29610.21	3.7490	3.7490	1.1783	23.49	0.18	0.500			
0.4662	29838.01	3.7460	3.7460	1.1106	23.45	0.14	0.500			
0.4695	30047.55	3.7430	3.7431	1.0207	23.41	0.10	0.500			
0.4724	30235.39	3.7400	3.7400	0.9211	23.37	0.06	0.500			
0.4750	30402.20	3.7370	3.7370	0.8229	23.35	0.04	0.500			
0.4773	30546.06	3.7340	3.7340	0.7269	23.34	0.03	0.500			
0.4793	30673.12	3.7310	3.7310	0.6393	23.32	0.01	0.500			
0.4810	30786.34	3.7280	3.7280	0.5689	23.31	0.00	0.500			
0.4826	30886.52	3.7250	3.7250	0.5016	23.30	-0.01	0.500			
0.4840	30975.72	3.7220	3.7220	0.4454	23.29	-0.02	0.500			
0.4852	31054.75	3.7190	3.7190	0.3929	23.29	-0.02	0.500			
0.4863	31124.76	3.7160	3.7160	0.3443	23.28	-0.03	0.500			
0.4873	31186.21	3.7130	3.7130	0.2976	23.28	-0.03	0.500			
0.4881	31238.62	3.7100	3.7100	0.2520	23.27	-0.04	0.500			
0.4888	31282.65	3.7070	3.7070	0.2076	23.27	-0.04	0.500			
0.4893	31318.22	3.7040	3.7040	0.1630	23.26	-0.05	0.500			
