Ah_balance (normalized)	Ah_balance (mAh)	Voltage - fit (V)	Voltage -  interpolate (V)	dQ/dV (1/V)	Temperature (°C)	Temperature - diff (°C)	Current (C)	R_DC 0ms (mOhm)	R_DC 50ms (mOhm)	R_DC 50 ms PEC (mOhm)
0.0001	8.86	4.1590	4.1589	-0.0996	25.97	-0.01	-0.750			
0.0005	33.23	4.1560	4.1560	-0.1511	25.97	-0.01	-0.750			
0.0010	66.64	4.1530	4.1530	-0.1975	25.97	-0.01	-0.750			
0.0017	108.67	4.1500	4.1501	-0.2453	25.97	-0.01	-0.750			
0.0025	160.76	4.1470	4.1469	-0.2919	25.97	-0.01	-0.750			
0.0035	220.94	4.1440	4.1440	-0.3402	25.97	-0.01	-0.750			
0.0046	291.71	4.1410	4.1410	-0.3870	25.98	-0.00	-0.750			
0.0058	370.44	4.1380	4.1381	-0.4316	25.98	-0.00	-0.750			
0.0072	457.84	4.1350	4.1350	-0.4690	25.98	0.00	-0.750			
0.0086	552.85	4.1320	4.1321	-0.5098	25.99	0.01	-0.750			
0.0102	654.49	4.1290	4.1291	-0.5481	25.99	0.01	-0.750			
0.0120	765.55	4.1260	4.1257	-0.5822	25.99	0.01	-0.750			
0.0137	879.97	4.1230	4.1231	-0.6167	26.00	0.02	-0.750			
0.0157	1006.36	4.1200	4.1200	-0.6410	26.00	0.02	-0.750			
0.0177	1132.09	4.1170	4.1170	-0.6589	26.01	0.03	-0.750			
0.0197	1260.77	4.1140	4.1139	-0.6755	26.02	0.04	-0.750	0.399	0.511	
0.0217	1390.33	4.1110	4.1108	-0.6873	26.03	0.05	-0.750			
0.0238	1523.12	4.1080	4.1079	-0.7019	26.05	0.07	-0.750			
0.0259	1658.21	4.1050	4.1049	-0.7157	26.06	0.08	-0.750			
0.0281	1800.33	4.1020	4.1020	-0.7257	26.07	0.09	-0.750			
0.0303	1942.40	4.0990	4.0990	-0.7314	26.09	0.11	-0.750			
0.0325	2080.89	4.0960	4.0960	-0.7433	26.10	0.12	-0.750			
0.0348	2224.85	4.0930	4.0929	-0.7479	26.12	0.14	-0.750			
0.0370	2369.38	4.0900	4.0898	-0.7468	26.13	0.15	-0.750			
0.0393	2513.17	4.0870	4.0869	-0.7499	26.15	0.17	-0.750	0.404	0.508	
0.0415	2657.97	4.0840	4.0840	-0.7604	26.17	0.19	-0.750			
0.0438	2805.32	4.0810	4.0810	-0.7680	26.18	0.20	-0.750			
0.0461	2951.82	4.0780	4.0780	-0.7708	26.20	0.22	-0.750			
0.0484	3100.37	4.0750	4.0750	-0.7720	26.21	0.23	-0.750			
0.0508	3251.23	4.0720	4.0721	-0.7828	26.23	0.25	-0.750			
0.0532	3403.17	4.0690	4.0690	-0.7979	26.24	0.26	-0.750			
0.0556	3557.26	4.0660	4.0659	-0.7928	26.26	0.28	-0.750			
0.0580	3709.29	4.0630	4.0628	-0.7884	26.27	0.29	-0.750			
0.0603	3861.41	4.0600	4.0603	-0.7933	26.29	0.31	-0.750	0.417	0.510	
0.0627	4015.34	4.0570	4.0568	-0.7900	26.30	0.32	-0.750			
0.0651	4165.37	4.0540	4.0538	-0.7868	26.31	0.33	-0.750			
0.0674	4313.09	4.0510	4.0512	-0.7817	26.32	0.34	-0.750			
0.0697	4462.72	4.0480	4.0480	-0.7845	26.34	0.36	-0.750			
0.0721	4615.83	4.0450	4.0448	-0.8001	26.35	0.37	-0.750			
0.0745	4770.57	4.0420	4.0421	-0.7970	26.36	0.38	-0.750			
0.0769	4923.09	4.0390	4.0389	-0.7942	26.37	0.39	-0.750			
0.0793	5078.06	4.0360	4.0360	-0.8057	26.38	0.40	-0.750	0.402	0.503	
0.0818	5232.34	4.0330	4.0329	-0.8035	26.40	0.42	-0.750			
0.0841	5384.01	4.0300	4.0300	-0.8063	26.41	0.43	-0.750			
0.0865	5538.27	4.0270	4.0269	-0.8127	26.42	0.44	-0.750			
0.0890	5697.18	4.0240	4.0241	-0.8069	26.44	0.46	-0.750			
0.0915	5854.37	4.0210	4.0210	-0.8033	26.45	0.47	-0.750			
0.0939	6009.00	4.0180	4.0181	-0.8102	26.46	0.48	-0.750			
0.0963	6164.49	4.0150	4.0147	-0.7954	26.48	0.50	-0.750			
0.0987	6314.59	4.0120	4.0118	-0.7935	26.50	0.52	-0.750			
0.1010	6464.91	4.0090	4.0093	-0.7930	26.52	0.54	-0.750	0.374	0.512	
0.1034	6616.95	4.0060	4.0058	-0.7975	26.53	0.55	-0.750			
0.1058	6771.71	4.0030	4.0030	-0.8047	26.55	0.57	-0.750			
0.1082	6921.61	4.0000	4.0001	-0.8020	26.56	0.58	-0.750			
0.1107	7083.70	3.9970	3.9969	-0.8104	26.58	0.60	-0.750			
0.1131	7240.33	3.9940	3.9940	-0.8127	26.59	0.61	-0.750			
0.1156	7395.70	3.9910	3.9910	-0.8032	26.60	0.62	-0.750			
0.1179	7548.53	3.9880	3.9881	-0.8030	26.62	0.64	-0.750			
0.1203	7702.40	3.9850	3.9852	-0.7987	26.63	0.65	-0.750	0.391	0.504	
0.1227	7855.30	3.9820	3.9820	-0.7989	26.65	0.67	-0.750			
0.1251	8007.00	3.9790	3.9790	-0.7996	26.66	0.68	-0.750			
0.1275	8162.53	3.9760	3.9760	-0.8021	26.67	0.69	-0.750			
0.1299	8316.76	3.9730	3.9730	-0.8012	26.69	0.71	-0.750			
0.1324	8470.68	3.9700	3.9699	-0.8107	26.70	0.72	-0.750			
0.1348	8624.70	3.9670	3.9670	-0.8151	26.71	0.73	-0.750			
0.1373	8784.25	3.9640	3.9639	-0.8164	26.72	0.74	-0.750			
0.1397	8940.90	3.9610	3.9611	-0.8163	26.73	0.75	-0.750	0.388	0.506	
0.1422	9099.49	3.9580	3.9581	-0.8154	26.74	0.76	-0.750			
0.1446	9257.28	3.9550	3.9550	-0.8090	26.75	0.77	-0.750			
0.1470	9409.94	3.9520	3.9520	-0.8085	26.76	0.78	-0.750			
0.1494	9562.42	3.9490	3.9490	-0.8022	26.76	0.78	-0.750			
0.1518	9715.82	3.9460	3.9460	-0.8084	26.77	0.79	-0.750			
0.1543	9873.56	3.9430	3.9429	-0.8089	26.78	0.80	-0.750			
0.1567	10030.44	3.9400	3.9399	-0.7997	26.79	0.81	-0.750			
0.1591	10183.82	3.9370	3.9371	-0.7971	26.80	0.82	-0.750	0.384	0.504	
0.1615	10337.42	3.9340	3.9340	-0.7973	26.81	0.83	-0.750			
0.1639	10486.57	3.9310	3.9308	-0.7920	26.82	0.84	-0.750			
0.1662	10639.88	3.9280	3.9280	-0.7960	26.83	0.85	-0.750			
0.1686	10791.37	3.9250	3.9251	-0.7993	26.84	0.86	-0.750			
0.1711	10947.39	3.9220	3.9219	-0.8051	26.86	0.88	-0.750			
0.1735	11102.61	3.9190	3.9190	-0.8136	26.87	0.89	-0.750			
0.1759	11257.83	3.9160	3.9160	-0.8105	26.88	0.90	-0.750			
0.1784	11416.30	3.9130	3.9129	-0.8112	26.90	0.92	-0.750			
0.1808	11571.28	3.9100	3.9102	-0.8059	26.91	0.93	-0.750	0.391	0.510	
0.1832	11725.97	3.9070	3.9070	-0.8051	26.92	0.94	-0.750			
0.1856	11879.92	3.9040	3.9040	-0.8058	26.93	0.95	-0.750			
0.1880	12033.32	3.9010	3.9009	-0.7959	26.93	0.95	-0.750			
0.1904	12187.39	3.8980	3.8980	-0.7964	26.94	0.96	-0.750			
0.1928	12340.42	3.8950	3.8953	-0.8055	26.95	0.97	-0.750			
0.1952	12494.86	3.8920	3.8918	-0.8067	26.96	0.98	-0.750			
0.1976	12648.46	3.8890	3.8889	-0.8105	26.97	0.99	-0.750			
0.2001	12804.54	3.8860	3.8860	-0.8137	26.98	1.00	-0.750	0.396	0.495	
0.2026	12964.47	3.8830	3.8830	-0.8231	26.99	1.01	-0.750			
0.2050	13122.80	3.8800	3.8800	-0.8191	27.00	1.02	-0.750			
0.2075	13277.94	3.8770	3.8770	-0.8191	27.01	1.03	-0.750			
0.2098	13429.95	3.8740	3.8740	-0.8235	27.01	1.03	-0.750			
0.2124	13592.53	3.8710	3.8709	-0.8320	27.02	1.04	-0.750			
0.2149	13755.92	3.8680	3.8679	-0.8291	27.03	1.05	-0.750			
0.2175	13918.13	3.8650	3.8649	-0.8321	27.04	1.06	-0.750			
0.2200	14078.10	3.8620	3.8620	-0.8221	27.04	1.06	-0.750	0.414	0.497	
0.2224	14234.32	3.8590	3.8587	-0.8185	27.05	1.07	-0.750			
0.2248	14388.47	3.8560	3.8559	-0.8088	27.06	1.08	-0.750			
0.2272	14537.64	3.8530	3.8531	-0.8073	27.06	1.08	-0.750			
0.2296	14692.68	3.8500	3.8501	-0.8254	27.07	1.09	-0.750			
0.2321	14854.63	3.8470	3.8469	-0.8452	27.07	1.09	-0.750			
0.2347	15018.33	3.8440	3.8438	-0.8521	27.08	1.10	-0.750			
0.2373	15185.90	3.8410	3.8409	-0.8626	27.09	1.11	-0.750			
0.2399	15354.23	3.8380	3.8381	-0.8535	27.09	1.11	-0.750	0.401	0.484	
0.2425	15521.42	3.8350	3.8349	-0.8558	27.10	1.12	-0.750			
0.2450	15683.09	3.8320	3.8320	-0.8443	27.11	1.13	-0.750			
0.2475	15838.88	3.8290	3.8290	-0.8341	27.12	1.14	-0.750			
0.2500	15997.75	3.8260	3.8259	-0.8330	27.13	1.15	-0.750			
0.2525	16158.85	3.8230	3.8230	-0.8407	27.14	1.16	-0.750			
0.2550	16322.74	3.8200	3.8200	-0.8467	27.16	1.18	-0.750			
0.2576	16487.07	3.8170	3.8169	-0.8494	27.16	1.18	-0.750			
0.2602	16649.67	3.8140	3.8141	-0.8461	27.17	1.19	-0.750	0.381	0.486	
0.2627	16812.67	3.8110	3.8109	-0.8454	27.17	1.19	-0.750			
0.2652	16971.51	3.8080	3.8080	-0.8523	27.18	1.20	-0.750			
0.2678	17136.08	3.8050	3.8050	-0.8580	27.18	1.20	-0.750			
0.2703	17299.41	3.8020	3.8019	-0.8694	27.19	1.21	-0.750			
0.2730	17470.12	3.7990	3.7990	-0.8823	27.19	1.21	-0.750			
0.2757	17643.52	3.7960	3.7960	-0.8802	27.20	1.22	-0.750			
0.2784	17815.01	3.7930	3.7928	-0.8756	27.20	1.22	-0.750			
0.2810	17982.97	3.7900	3.7903	-0.8721	27.21	1.23	-0.750	0.372	0.471	
0.2836	18148.41	3.7870	3.7869	-0.8579	27.22	1.24	-0.750			
0.2861	18311.81	3.7840	3.7840	-0.8587	27.23	1.25	-0.750			
0.2886	18469.73	3.7810	3.7810	-0.8568	27.24	1.26	-0.750			
0.2912	18635.81	3.7780	3.7781	-0.8882	27.24	1.26	-0.750			
0.2939	18811.17	3.7750	3.7750	-0.8955	27.25	1.27	-0.750			
0.2967	18986.48	3.7720	3.7718	-0.9087	27.25	1.27	-0.750			
0.2994	19163.50	3.7690	3.7691	-0.9082	27.26	1.28	-0.750	0.381	0.475	
0.3022	19339.86	3.7660	3.7660	-0.9146	27.26	1.28	-0.750			
0.3049	19514.59	3.7630	3.7630	-0.9120	27.26	1.28	-0.750			
0.3076	19686.48	3.7600	3.7599	-0.9201	27.26	1.28	-0.750			
0.3103	19857.65	3.7570	3.7570	-0.9314	27.27	1.29	-0.750			
0.3132	20043.77	3.7540	3.7539	-0.9413	27.27	1.29	-0.750			
0.3160	20226.28	3.7510	3.7510	-0.9419	27.28	1.30	-0.750			
0.3189	20409.92	3.7480	3.7480	-0.9567	27.28	1.30	-0.750	0.385	0.462	
0.3218	20592.52	3.7450	3.7451	-0.9546	27.28	1.30	-0.750			
0.3246	20776.02	3.7420	3.7418	-0.9537	27.29	1.31	-0.750			
0.3274	20956.74	3.7390	3.7389	-0.9548	27.29	1.31	-0.750			
0.3303	21136.66	3.7360	3.7362	-0.9735	27.29	1.31	-0.750			
0.3333	21329.40	3.7330	3.7329	-0.9884	27.29	1.31	-0.750			
0.3363	21521.60	3.7300	3.7298	-0.9996	27.30	1.32	-0.750			
0.3393	21714.08	3.7270	3.7268	-1.0027	27.30	1.32	-0.750	0.380	0.473	
0.3423	21906.10	3.7240	3.7240	-1.0095	27.31	1.33	-0.750			
0.3453	22101.76	3.7210	3.7209	-1.0348	27.31	1.33	-0.750			
0.3484	22298.89	3.7180	3.7180	-1.0569	27.31	1.33	-0.750			
0.3516	22500.08	3.7150	3.7149	-1.0636	27.30	1.32	-0.750			
0.3549	22712.56	3.7120	3.7119	-1.0774	27.30	1.32	-0.750			
0.3582	22922.02	3.7090	3.7091	-1.0953	27.30	1.32	-0.750			
0.3614	23132.75	3.7060	3.7062	-1.1105	27.30	1.32	-0.750	0.379	0.469	
0.3648	23345.25	3.7030	3.7029	-1.1198	27.30	1.32	-0.750			
0.3681	23559.12	3.7000	3.7001	-1.1312	27.30	1.32	-0.750			
0.3715	23779.13	3.6970	3.6970	-1.1527	27.29	1.31	-0.750			
0.3751	24006.22	3.6940	3.6940	-1.1767	27.27	1.29	-0.750			
0.3786	24233.14	3.6910	3.6909	-1.1939	27.26	1.28	-0.750	0.397	0.464	
0.3822	24462.32	3.6880	3.6880	-1.2098	27.25	1.27	-0.750			
0.3859	24694.92	3.6850	3.6850	-1.2256	27.24	1.26	-0.750			
0.3895	24930.88	3.6820	3.6820	-1.2508	27.23	1.25	-0.750			
0.3933	25174.17	3.6790	3.6792	-1.2746	27.22	1.24	-0.750			
0.3973	25426.37	3.6760	3.6758	-1.3020	27.22	1.24	-0.750			
0.4012	25678.01	3.6730	3.6732	-1.3231	27.23	1.25	-0.750	0.377	0.469	
0.4052	25931.56	3.6700	3.6704	-1.3527	27.23	1.25	-0.750			
0.4093	26194.73	3.6670	3.6669	-1.3775	27.22	1.24	-0.750			
0.4135	26464.16	3.6640	3.6638	-1.3930	27.20	1.22	-0.750			
0.4177	26731.86	3.6610	3.6609	-1.4124	27.19	1.21	-0.750			
0.4220	27007.00	3.6580	3.6581	-1.4492	27.17	1.19	-0.750	0.397	0.474	
0.4263	27282.40	3.6550	3.6549	-1.4843	27.16	1.18	-0.750			
0.4307	27567.09	3.6520	3.6521	-1.5117	27.14	1.16	-0.750			
0.4353	27861.03	3.6490	3.6487	-1.5422	27.13	1.15	-0.750			
0.4401	28167.20	3.6460	3.6462	-1.5893	27.12	1.14	-0.750	0.387	0.485	
0.4449	28474.68	3.6430	3.6429	-1.6317	27.10	1.12	-0.750			
0.4498	28790.07	3.6400	3.6401	-1.6799	27.08	1.10	-0.750			
0.4549	29113.65	3.6370	3.6369	-1.7014	27.06	1.08	-0.750			
0.4601	29444.56	3.6340	3.6341	-1.7274	27.05	1.07	-0.750	0.395	0.476	
0.4653	29781.28	3.6310	3.6310	-1.7564	27.03	1.05	-0.750			
0.4706	30118.65	3.6280	3.6277	-1.8004	27.02	1.04	-0.750			
0.4760	30466.18	3.6250	3.6247	-1.8297	27.01	1.03	-0.750			
0.4816	30821.35	3.6220	3.6221	-1.8739	27.00	1.02	-0.750	0.381	0.469	
0.4873	31187.58	3.6190	3.6191	-1.9346	26.98	1.00	-0.750			
0.4931	31559.90	3.6160	3.6163	-1.9681	26.96	0.98	-0.750			
0.4991	31945.27	3.6130	3.6133	-2.0137	26.95	0.97	-0.750	0.363	0.485	
0.5053	32338.78	3.6100	3.6099	-2.0543	26.94	0.96	-0.750			
0.5114	32731.81	3.6070	3.6072	-2.0864	26.95	0.97	-0.750			
0.5178	33139.11	3.6040	3.6041	-2.1157	26.97	0.99	-0.750	0.388	0.475	
0.5241	33544.18	3.6010	3.6009	-2.1505	26.99	1.01	-0.750			
0.5306	33956.84	3.5980	3.5982	-2.1818	27.01	1.03	-0.750			
0.5372	34378.69	3.5950	3.5951	-2.2456	27.02	1.04	-0.750	0.391	0.482	
0.5441	34819.37	3.5920	3.5920	-2.3073	27.03	1.05	-0.750			
0.5511	35273.32	3.5890	3.5889	-2.3344	27.05	1.07	-0.750			
0.5582	35726.51	3.5860	3.5860	-2.3823	27.07	1.09	-0.750	0.369	0.482	
0.5655	36193.57	3.5830	3.5831	-2.4186	27.09	1.11	-0.750			
0.5727	36653.18	3.5800	3.5798	-2.4597	27.11	1.13	-0.750			
0.5801	37124.98	3.5770	3.5768	-2.4739	27.13	1.15	-0.750	0.390	0.487	
0.5875	37601.78	3.5740	3.5739	-2.4998	27.15	1.17	-0.750			
0.5952	38094.23	3.5710	3.5712	-2.5278	27.18	1.20	-0.750			
0.6028	38581.70	3.5680	3.5680	-2.5285	27.19	1.21	-0.750	0.381	0.494	
0.6105	39069.21	3.5650	3.5650	-2.5296	27.21	1.23	-0.750			
0.6180	39553.38	3.5620	3.5619	-2.5032	27.22	1.24	-0.750	0.376	0.485	
0.6256	40039.23	3.5590	3.5590	-2.4966	27.24	1.26	-0.750			
0.6330	40510.09	3.5560	3.5561	-2.4873	27.27	1.29	-0.750			
0.6404	40986.81	3.5530	3.5531	-2.4892	27.29	1.31	-0.750	0.391	0.489	
0.6479	41466.31	3.5500	3.5499	-2.4578	27.32	1.34	-0.750			
0.6554	41944.63	3.5470	3.5470	-2.4040	27.35	1.37	-0.750			
0.6626	42404.57	3.5440	3.5440	-2.3780	27.37	1.39	-0.750	0.376	0.488	
0.6696	42851.66	3.5410	3.5409	-2.3111	27.40	1.42	-0.750			
0.6763	43284.38	3.5380	3.5378	-2.2457	27.43	1.45	-0.750			
0.6829	43708.79	3.5350	3.5348	-2.1799	27.46	1.48	-0.750	0.390	0.494	
0.6895	44127.26	3.5320	3.5322	-2.1225	27.50	1.52	-0.750			
0.6959	44540.01	3.5290	3.5291	-2.0398	27.54	1.56	-0.750			
0.7020	44927.66	3.5260	3.5259	-1.9646	27.59	1.61	-0.750	0.388	0.486	
0.7075	45280.48	3.5230	3.5230	-1.8397	27.62	1.64	-0.750			
0.7129	45624.59	3.5200	3.5200	-1.7874	27.66	1.68	-0.750			
0.7182	45963.43	3.5170	3.5172	-1.7176	27.69	1.71	-0.750	0.377	0.496	
0.7232	46284.77	3.5140	3.5139	-1.6379	27.75	1.77	-0.750			
0.7281	46597.85	3.5110	3.5111	-1.6005	27.81	1.83	-0.750			
0.7329	46903.45	3.5080	3.5080	-1.5410	27.85	1.87	-0.750			
0.7374	47193.15	3.5050	3.5046	-1.4750	27.90	1.92	-0.750			
0.7417	47469.84	3.5020	3.5022	-1.4115	27.94	1.96	-0.750	0.381	0.494	
0.7458	47730.37	3.4990	3.4989	-1.3416	27.98	2.00	-0.750			
0.7498	47985.47	3.4960	3.4960	-1.3064	28.03	2.05	-0.750			
0.7535	48224.25	3.4930	3.4930	-1.2459	28.06	2.08	-0.750			
0.7572	48460.77	3.4900	3.4899	-1.2184	28.09	2.11	-0.750			
0.7609	48694.54	3.4870	3.4872	-1.1883	28.12	2.14	-0.750	0.390	0.477	
0.7644	48919.14	3.4840	3.4840	-1.1542	28.15	2.17	-0.750			
0.7678	49136.10	3.4810	3.4813	-1.1334	28.17	2.19	-0.750			
0.7711	49353.03	3.4780	3.4779	-1.1115	28.20	2.22	-0.750			
0.7744	49560.44	3.4750	3.4749	-1.0811	28.24	2.26	-0.750			
0.7776	49765.58	3.4720	3.4719	-1.0696	28.27	2.29	-0.750			
0.7808	49968.31	3.4690	3.4691	-1.0714	28.30	2.32	-0.750	0.369	0.486	
0.7839	50169.23	3.4660	3.4659	-1.0924	28.32	2.34	-0.750			
0.7870	50369.99	3.4630	3.4630	-1.1272	28.34	2.36	-0.750			
0.7904	50587.25	3.4600	3.4600	-1.1954	28.36	2.38	-0.750			
0.7941	50819.78	3.4570	3.4570	-1.2969	28.39	2.41	-0.750			
0.7981	51077.29	3.4540	3.4538	-1.3965	28.41	2.43	-0.750			
0.8024	51354.31	3.4510	3.4509	-1.5008	28.43	2.45	-0.750	0.370	0.484	
0.8071	51656.89	3.4480	3.4478	-1.5878	28.46	2.48	-0.750			
0.8122	51981.19	3.4450	3.4451	-1.6323	28.48	2.50	-0.750			
0.8173	52310.18	3.4420	3.4419	-1.6333	28.50	2.52	-0.750			
0.8224	52631.29	3.4390	3.4389	-1.5864	28.54	2.56	-0.750	0.373	0.504	
0.8271	52931.99	3.4360	3.4359	-1.5432	28.59	2.61	-0.750			
0.8316	53222.22	3.4330	3.4329	-1.4685	28.61	2.63	-0.750			
0.8358	53488.30	3.4300	3.4298	-1.3973	28.64	2.66	-0.750			
0.8399	53751.58	3.4270	3.4271	-1.3497	28.67	2.69	-0.750	0.368	0.503	
0.8438	54005.06	3.4240	3.4240	-1.3054	28.70	2.72	-0.750			
0.8478	54259.66	3.4210	3.4208	-1.2694	28.72	2.74	-0.750			
0.8515	54498.11	3.4180	3.4180	-1.2173	28.75	2.77	-0.750			
0.8551	54727.09	3.4150	3.4150	-1.1491	28.77	2.79	-0.750			
0.8586	54948.22	3.4120	3.4119	-1.0934	28.79	2.81	-0.750			
0.8617	55149.52	3.4090	3.4091	-1.0142	28.81	2.83	-0.750	0.361	0.513	
0.8646	55333.45	3.4060	3.4058	-0.9483	28.83	2.85	-0.750			
0.8673	55506.01	3.4030	3.4031	-0.8851	28.85	2.87	-0.750			
0.8698	55666.11	3.4000	3.3999	-0.8225	28.86	2.88	-0.750			
0.8722	55822.44	3.3970	3.3969	-0.7839	28.88	2.90	-0.750			
0.8745	55967.37	3.3940	3.3941	-0.7444	28.90	2.92	-0.750			
0.8766	56105.18	3.3910	3.3910	-0.6983	28.91	2.93	-0.750			
0.8787	56236.79	3.3880	3.3878	-0.6542	28.93	2.95	-0.750			
0.8806	56357.80	3.3850	3.3848	-0.6094	28.94	2.96	-0.750	0.363	0.517	
0.8824	56470.78	3.3820	3.3819	-0.5694	28.96	2.98	-0.750			
0.8840	56575.09	3.3790	3.3788	-0.5352	28.98	3.00	-0.750			
0.8855	56670.55	3.3760	3.3760	-0.4971	29.00	3.02	-0.750			
0.8869	56761.66	3.3730	3.3730	-0.4654	29.02	3.04	-0.750			
0.8883	56850.06	3.3700	3.3700	-0.4451	29.04	3.06	-0.750			
0.8896	56933.00	3.3670	3.3673	-0.4204	29.05	3.07	-0.750			
0.8908	57009.85	3.3640	3.3639	-0.3993	29.07	3.09	-0.750			
0.8919	57083.94	3.3610	3.3609	-0.3789	29.09	3.11	-0.750			
0.8930	57154.89	3.3580	3.3580	-0.3597	29.10	3.12	-0.750			
0.8941	57222.86	3.3550	3.3550	-0.3424	29.11	3.13	-0.750			
0.8951	57286.76	3.3520	3.3520	-0.3243	29.12	3.14	-0.750			
0.8960	57346.26	3.3490	3.3490	-0.3055	29.13	3.15	-0.750			
0.8969	57402.70	3.3460	3.3460	-0.2913	29.14	3.16	-0.750			
0.8977	57455.88	3.3430	3.3430	-0.2797	29.15	3.17	-0.750			
0.8986	57508.06	3.3400	3.3400	-0.2695	29.16	3.18	-0.750			
0.8994	57559.05	3.3370	3.3369	-0.2608	29.17	3.19	-0.750			
0.9001	57608.67	3.3340	3.3339	-0.2531	29.18	3.20	-0.750			
0.9009	57656.54	3.3310	3.3314	-0.2446	29.18	3.20	-0.750	0.378	0.526	
0.9016	57702.53	3.3280	3.3280	-0.2367	29.19	3.21	-0.750			
0.9023	57747.33	3.3250	3.3250	-0.2286	29.20	3.22	-0.750			
0.9030	57789.57	3.3220	3.3220	-0.2230	29.21	3.23	-0.750			
0.9036	57831.39	3.3190	3.3190	-0.2176	29.21	3.23	-0.750			
0.9043	57872.72	3.3160	3.3159	-0.2130	29.23	3.25	-0.750			
0.9049	57913.09	3.3130	3.3130	-0.2084	29.25	3.27	-0.750			
0.9055	57952.24	3.3100	3.3102	-0.2050	29.26	3.28	-0.750			
0.9061	57991.29	3.3070	3.3069	-0.2017	29.27	3.29	-0.750			
0.9067	58029.20	3.3040	3.3040	-0.1993	29.28	3.30	-0.750			
0.9073	58067.12	3.3010	3.3009	-0.1959	29.29	3.31	-0.750			
0.9079	58105.12	3.2980	3.2980	-0.1946	29.30	3.32	-0.750			
0.9085	58142.22	3.2950	3.2950	-0.1918	29.30	3.32	-0.750			
0.9090	58179.13	3.2920	3.2921	-0.1888	29.31	3.33	-0.750			
0.9096	58215.15	3.2890	3.2890	-0.1862	29.32	3.34	-0.750			
0.9102	58250.20	3.2860	3.2859	-0.1820	29.33	3.35	-0.750			
0.9107	58284.75	3.2830	3.2831	-0.1802	29.33	3.35	-0.750			
0.9112	58318.78	3.2800	3.2800	-0.1778	29.34	3.36	-0.750			
0.9118	58353.07	3.2770	3.2769	-0.1758	29.35	3.37	-0.750			
0.9123	58386.71	3.2740	3.2741	-0.1737	29.36	3.38	-0.750			
0.9128	58419.82	3.2710	3.2710	-0.1713	29.36	3.38	-0.750			
0.9133	58452.56	3.2680	3.2681	-0.1694	29.37	3.39	-0.750			
0.9138	58484.71	3.2650	3.2650	-0.1669	29.38	3.40	-0.750			
0.9143	58516.55	3.2620	3.2619	-0.1648	29.38	3.40	-0.750			
0.9148	58547.91	3.2590	3.2590	-0.1617	29.39	3.41	-0.750			
0.9153	58578.66	3.2560	3.2560	-0.1600	29.40	3.42	-0.750			
0.9158	58609.03	3.2530	3.2531	-0.1586	29.40	3.42	-0.750			
0.9162	58639.32	3.2500	3.2500	-0.1570	29.41	3.43	-0.750			
0.9167	58669.12	3.2470	3.2469	-0.1554	29.42	3.44	-0.750			
0.9172	58698.82	3.2440	3.2440	-0.1535	29.42	3.44	-0.750			
0.9176	58728.24	3.2410	3.2409	-0.1524	29.43	3.45	-0.750			
0.9181	58757.36	3.2380	3.2381	-0.1510	29.44	3.46	-0.750			
0.9185	58786.50	3.2350	3.2350	-0.1499	29.44	3.46	-0.750			
0.9190	58814.43	3.2320	3.2320	-0.1495	29.45	3.47	-0.750			
0.9194	58843.74	3.2290	3.2289	-0.1474	29.46	3.48	-0.750			
0.9199	58871.90	3.2260	3.2260	-0.1459	29.47	3.49	-0.750			
0.9203	58900.24	3.2230	3.2228	-0.1436	29.48	3.50	-0.750			
0.9208	58928.14	3.2200	3.2208	-0.1413	29.49	3.51	-0.750	0.364	0.541	
0.9212	58954.87	3.2170	3.2169	-0.1390	29.49	3.51	-0.750			
0.9216	58980.91	3.2140	3.2139	-0.1369	29.50	3.52	-0.750			
0.9220	59006.40	3.2110	3.2108	-0.1348	29.51	3.53	-0.750			
0.9224	59031.78	3.2080	3.2080	-0.1321	29.52	3.54	-0.750			
0.9228	59057.12	3.2050	3.2051	-0.1318	29.52	3.54	-0.750			
0.9232	59082.87	3.2020	3.2020	-0.1316	29.53	3.55	-0.750			
0.9236	59108.16	3.1990	3.1991	-0.1305	29.54	3.56	-0.750			
0.9240	59133.02	3.1960	3.1959	-0.1294	29.55	3.57	-0.750			
0.9243	59157.56	3.1930	3.1931	-0.1282	29.55	3.57	-0.750			
0.9247	59182.01	3.1900	3.1899	-0.1272	29.56	3.58	-0.750			
0.9251	59206.37	3.1870	3.1870	-0.1263	29.57	3.59	-0.750			
0.9255	59230.53	3.1840	3.1840	-0.1254	29.58	3.60	-0.750			
0.9259	59254.74	3.1810	3.1810	-0.1242	29.59	3.61	-0.750			
0.9262	59278.47	3.1780	3.1780	-0.1229	29.59	3.61	-0.750			
0.9266	59301.98	3.1750	3.1750	-0.1217	29.60	3.62	-0.750			
0.9270	59325.22	3.1720	3.1720	-0.1203	29.61	3.63	-0.750			
0.9273	59348.15	3.1690	3.1689	-0.1191	29.62	3.64	-0.750			
0.9277	59370.83	3.1660	3.1660	-0.1178	29.63	3.65	-0.750			
0.9280	59393.32	3.1630	3.1630	-0.1167	29.63	3.65	-0.750			
0.9284	59415.50	3.1600	3.1600	-0.1156	29.64	3.66	-0.750			
0.9287	59437.66	3.1570	3.1571	-0.1142	29.65	3.67	-0.750			
0.9291	59459.64	3.1540	3.1539	-0.1131	29.65	3.67	-0.750			
0.9294	59481.21	3.1510	3.1510	-0.1116	29.66	3.68	-0.750			
0.9297	59502.35	3.1480	3.1480	-0.1106	29.66	3.68	-0.750			
0.9301	59523.40	3.1450	3.1449	-0.1094	29.67	3.69	-0.750			
0.9304	59544.39	3.1420	3.1421	-0.1082	29.67	3.69	-0.750			
0.9307	59564.99	3.1390	3.1389	-0.1070	29.68	3.70	-0.750			
0.9310	59585.43	3.1360	3.1360	-0.1061	29.68	3.70	-0.750			
0.9313	59605.76	3.1330	3.1331	-0.1052	29.69	3.71	-0.750			
0.9317	59625.86	3.1300	3.1300	-0.1042	29.69	3.71	-0.750			
0.9320	59645.80	3.1270	3.1270	-0.1032	29.70	3.72	-0.750			
0.9323	59665.43	3.1240	3.1240	-0.1024	29.70	3.72	-0.750			
0.9326	59684.82	3.1210	3.1211	-0.1012	29.71	3.73	-0.750			
0.9329	59704.23	3.1180	3.1180	-0.1005	29.71	3.73	-0.750			
0.9332	59723.53	3.1150	3.1151	-0.0998	29.72	3.74	-0.750			
0.9335	59742.62	3.1120	3.1119	-0.0990	29.72	3.74	-0.750			
0.9338	59761.51	3.1090	3.1089	-0.0981	29.73	3.75	-0.750			
0.9341	59780.34	3.1060	3.1062	-0.0970	29.73	3.75	-0.750			
0.9344	59798.99	3.1030	3.1030	-0.0962	29.74	3.76	-0.750			
0.9346	59817.36	3.1000	3.0999	-0.0950	29.74	3.76	-0.750			
0.9349	59835.50	3.0970	3.0970	-0.0938	29.75	3.77	-0.750			
0.9352	59853.22	3.0940	3.0941	-0.0931	29.75	3.77	-0.750			
0.9355	59870.89	3.0910	3.0910	-0.0920	29.76	3.78	-0.750			
0.9358	59888.50	3.0880	3.0881	-0.0913	29.76	3.78	-0.750			
0.9360	59905.92	3.0850	3.0850	-0.0902	29.77	3.79	-0.750			
0.9363	59923.17	3.0820	3.0819	-0.0895	29.77	3.79	-0.750			
0.9366	59940.43	3.0790	3.0790	-0.0886	29.78	3.80	-0.750			
0.9368	59957.34	3.0760	3.0761	-0.0876	29.78	3.80	-0.750			
0.9371	59974.08	3.0730	3.0730	-0.0869	29.79	3.81	-0.750			
0.9374	59990.67	3.0700	3.0700	-0.0859	29.79	3.81	-0.750			
0.9376	60006.84	3.0670	3.0669	-0.0847	29.79	3.81	-0.750			
0.9379	60023.05	3.0640	3.0640	-0.0841	29.80	3.82	-0.750			
0.9381	60039.15	3.0610	3.0610	-0.0835	29.80	3.82	-0.750			
0.9384	60055.13	3.0580	3.0581	-0.0829	29.81	3.83	-0.750			
0.9386	60071.02	3.0550	3.0548	-0.0823	29.81	3.83	-0.750			
0.9389	60086.85	3.0520	3.0520	-0.0813	29.82	3.84	-0.750			
0.9391	60102.38	3.0490	3.0489	-0.0804	29.82	3.84	-0.750			
0.9393	60117.79	3.0460	3.0461	-0.0795	29.82	3.84	-0.750			
0.9396	60132.71	3.0430	3.0430	-0.0799	29.83	3.85	-0.750			
0.9398	60147.74	3.0400	3.0401	-0.0794	29.83	3.85	-0.750			
0.9401	60163.35	3.0370	3.0368	-0.0786	29.84	3.86	-0.750			
0.9403	60178.38	3.0340	3.0338	-0.0780	29.84	3.86	-0.750			
0.9405	60193.62	3.0310	3.0306	-0.0771	29.84	3.86	-0.750			
0.9408	60208.32	3.0280	3.0283	-0.0760	29.85	3.87	-0.750	0.362	0.553	
0.9410	60223.43	3.0250	3.0250	-0.0755	29.85	3.87	-0.750			
0.9412	60237.40	3.0220	3.0221	-0.0746	29.86	3.88	-0.750			
0.9414	60251.59	3.0190	3.0189	-0.0733	29.86	3.88	-0.750			
0.9416	60264.96	3.0160	3.0159	-0.0718	29.86	3.88	-0.750			
0.9419	60278.70	3.0130	3.0131	-0.0716	29.87	3.89	-0.750			
0.9421	60292.31	3.0100	3.0100	-0.0712	29.87	3.89	-0.750			
0.9423	60305.97	3.0070	3.0070	-0.0711	29.87	3.89	-0.750			
0.9425	60319.61	3.0040	3.0040	-0.0709	29.88	3.90	-0.750			
0.9427	60333.21	3.0010	3.0010	-0.0707	29.88	3.90	-0.750			
