Ah_balance (normalized)	Ah_balance (mAh)	Voltage - fit (V)	Voltage -  interpolate (V)	dQ/dV (1/V)	Temperature (°C)	Temperature - diff (°C)	Current (C)	R_DC 0ms (mOhm)	R_DC 50ms (mOhm)	R_DC 50 ms PEC (mOhm)
0.5129	32824.60	3.7530	3.7530	1.9156	28.76	3.74	0.750			
0.5186	33192.93	3.7500	3.7500	1.9419	28.70	3.68	0.750			
0.5245	33570.14	3.7470	3.7470	1.9877	28.65	3.63	0.750			
0.5306	33956.80	3.7440	3.7440	2.0379	28.60	3.58	0.750			
0.5367	34350.73	3.7410	3.7410	2.0977	28.53	3.51	0.750			
0.5431	34759.89	3.7380	3.7380	2.1515	28.46	3.44	0.750			
0.5497	35178.43	3.7350	3.7350	2.2047	28.38	3.36	0.750			
0.5563	35606.36	3.7320	3.7320	2.2754	28.31	3.29	0.750			
0.5633	36049.69	3.7290	3.7290	2.3454	28.24	3.22	0.750			
0.5705	36510.34	3.7260	3.7260	2.4126	28.16	3.14	0.750			
0.5778	36978.37	3.7230	3.7230	2.4597	28.10	3.08	0.750			
0.5852	37454.47	3.7200	3.7200	2.5321	28.01	2.99	0.750			
0.5930	37949.22	3.7170	3.7170	2.6382	27.92	2.90	0.750			
0.6010	38463.79	3.7140	3.7139	2.7075	27.81	2.79	0.750			
0.6092	38988.52	3.7110	3.7110	2.7783	27.72	2.70	0.750			
0.6176	39526.82	3.7080	3.7080	2.8454	27.64	2.62	0.750			
0.6263	40080.06	3.7050	3.7050	2.9375	27.53	2.51	0.750			
0.6352	40652.37	3.7020	3.7020	3.0217	27.43	2.41	0.750			
0.6444	41242.30	3.6990	3.6990	3.0970	27.32	2.30	0.750			
0.6538	41840.93	3.6960	3.6960	3.1715	27.23	2.21	0.750			
0.6634	42457.58	3.6930	3.6930	3.2869	27.11	2.09	0.750			
0.6735	43105.32	3.6900	3.6900	3.4132	27.00	1.98	0.750			
0.6839	43770.83	3.6870	3.6870	3.5735	26.88	1.86	0.750			
0.6949	44474.68	3.6840	3.6839	3.7220	26.77	1.75	0.750			
0.7063	45200.01	3.6810	3.6810	3.8266	26.65	1.63	0.750			
0.7179	45947.55	3.6780	3.6780	3.9227	26.55	1.53	0.750			
0.7299	46715.45	3.6750	3.6750	3.9776	26.45	1.43	0.750			
0.7417	47471.20	3.6720	3.6720	3.7908	26.37	1.35	0.750			
0.7527	48174.80	3.6690	3.6690	3.4320	26.30	1.28	0.750			
0.7624	48794.47	3.6660	3.6660	2.9558	26.22	1.20	0.750			
0.7703	49299.16	3.6630	3.6630	2.4776	26.19	1.17	0.750			
0.7770	49726.65	3.6600	3.6600	2.1296	26.16	1.14	0.750			
0.7828	50100.86	3.6570	3.6570	1.9251	26.13	1.11	0.750			
0.7883	50449.85	3.6540	3.6540	1.7730	26.11	1.09	0.750			
0.7934	50778.87	3.6510	3.6509	1.6492	26.07	1.05	0.750			
0.7981	51078.99	3.6480	3.6480	1.5382	26.04	1.02	0.750			
0.8025	51361.63	3.6450	3.6450	1.4453	26.02	1.00	0.750			
0.8066	51622.87	3.6420	3.6420	1.3754	25.99	0.97	0.750			
0.8106	51876.04	3.6390	3.6390	1.3261	25.97	0.95	0.750			
0.8144	52122.69	3.6360	3.6360	1.3062	25.95	0.93	0.750			
0.8183	52369.44	3.6330	3.6330	1.3065	25.93	0.91	0.750			
0.8222	52618.47	3.6300	3.6300	1.3074	25.92	0.90	0.750			
0.8261	52869.51	3.6270	3.6270	1.3201	25.90	0.88	0.750			
0.8301	53126.30	3.6240	3.6240	1.3253	25.88	0.86	0.750			
0.8341	53382.81	3.6210	3.6210	1.3275	25.86	0.84	0.750			
0.8381	53640.90	3.6180	3.6180	1.3217	25.84	0.82	0.750			
0.8421	53894.77	3.6150	3.6151	1.3110	25.80	0.78	0.750			
0.8460	54144.56	3.6120	3.6120	1.2996	25.77	0.75	0.750			
0.8498	54389.60	3.6090	3.6090	1.2917	25.74	0.72	0.750			
0.8536	54632.01	3.6060	3.6060	1.2935	25.72	0.70	0.750			
0.8575	54878.68	3.6030	3.6030	1.3205	25.69	0.67	0.750			
0.8614	55131.26	3.6000	3.5999	1.3491	25.67	0.65	0.750			
0.8655	55393.73	3.5970	3.5970	1.3925	25.64	0.62	0.750			
0.8698	55664.13	3.5940	3.5940	1.4406	25.59	0.57	0.750			
0.8742	55946.01	3.5910	3.5910	1.4963	25.55	0.53	0.750			
0.8787	56237.11	3.5880	3.5880	1.5460	25.51	0.49	0.750			
0.8834	56539.19	3.5850	3.5850	1.6005	25.47	0.45	0.750			
0.8883	56852.53	3.5820	3.5820	1.6558	25.42	0.40	0.750			
0.8934	57176.02	3.5790	3.5790	1.7043	25.37	0.35	0.750			
0.8986	57509.59	3.5760	3.5760	1.7481	25.31	0.29	0.750			
0.9039	57850.22	3.5730	3.5730	1.7894	25.26	0.24	0.750			
0.9093	58197.26	3.5700	3.5700	1.8265	25.21	0.19	0.750			
0.9149	58550.79	3.5670	3.5670	1.8614	25.15	0.13	0.750			
0.9205	58911.85	3.5640	3.5640	1.9087	25.09	0.07	0.750			
0.9262	59279.26	3.5610	3.5611	1.9742	25.02	0.00	0.750			
0.9322	59661.23	3.5580	3.5580	2.0822	24.95	-0.07	0.750			
0.9387	60073.98	3.5550	3.5549	2.1771	24.88	-0.14	0.750			
0.9458	60529.81	3.5520	3.5519	2.0760	24.80	-0.22	0.750			
0.9518	60915.27	3.5490	3.5493	1.7016	24.75	-0.27	0.750			
0.9567	61227.80	3.5460	3.5464	1.3972	24.72	-0.30	0.750			
0.9601	61448.36	3.5430	3.5429	1.0390	24.70	-0.32	0.750			
0.9622	61579.65	3.5400	3.5397	0.7594	24.69	-0.33	0.750			
0.9637	61674.04	3.5370	3.5367	0.5441	24.70	-0.32	0.750			
0.9649	61752.89	3.5340	3.5338	0.4507	24.70	-0.32	0.750			
0.9660	61822.26	3.5310	3.5309	0.3851	24.71	-0.31	0.750			
0.9670	61888.18	3.5280	3.5280	0.3513	24.71	-0.31	0.750			
0.9680	61952.20	3.5250	3.5250	0.3298	24.71	-0.31	0.750			
0.9689	62011.86	3.5220	3.5220	0.3137	24.72	-0.30	0.750			
0.9698	62070.34	3.5190	3.5190	0.3025	24.72	-0.30	0.750			
0.9707	62126.94	3.5160	3.5160	0.2930	24.72	-0.30	0.750			
0.9716	62182.28	3.5130	3.5130	0.2862	24.72	-0.30	0.750			
0.9724	62236.36	3.5100	3.5100	0.2793	24.73	-0.29	0.750			
0.9733	62289.42	3.5070	3.5070	0.2730	24.73	-0.29	0.750			
0.9741	62341.15	3.5040	3.5040	0.2672	24.73	-0.29	0.750			
0.9749	62391.60	3.5010	3.5010	0.2617	24.74	-0.28	0.750			
0.9756	62441.04	3.4980	3.4980	0.2570	24.74	-0.28	0.750			
0.9764	62489.90	3.4950	3.4950	0.2529	24.75	-0.27	0.750			
0.9772	62537.83	3.4920	3.4920	0.2488	24.75	-0.27	0.750			
0.9779	62585.36	3.4890	3.4890	0.2452	24.75	-0.27	0.750			
0.9786	62632.12	3.4860	3.4860	0.2421	24.76	-0.26	0.750			
0.9793	62678.33	3.4830	3.4831	0.2388	24.76	-0.26	0.750			
0.9801	62723.82	3.4800	3.4800	0.2353	24.77	-0.25	0.750			
0.9808	62768.69	3.4770	3.4770	0.2316	24.77	-0.25	0.750			
0.9814	62812.73	3.4740	3.4740	0.2277	24.77	-0.25	0.750			
0.9821	62856.12	3.4710	3.4710	0.2243	24.78	-0.24	0.750			
0.9828	62898.92	3.4680	3.4680	0.2213	24.78	-0.24	0.750			
0.9835	62941.01	3.4650	3.4650	0.2182	24.79	-0.23	0.750			
0.9841	62982.27	3.4620	3.4620	0.2149	24.79	-0.23	0.750			
0.9847	63023.34	3.4590	3.4590	0.2124	24.79	-0.23	0.750			
0.9854	63063.83	3.4560	3.4560	0.2099	24.80	-0.22	0.750			
0.9860	63104.04	3.4530	3.4530	0.2074	24.80	-0.22	0.750			
0.9866	63143.64	3.4500	3.4500	0.2050	24.80	-0.22	0.750			
0.9872	63182.77	3.4470	3.4470	0.2022	24.81	-0.21	0.750			
0.9878	63221.31	3.4440	3.4440	0.1994	24.81	-0.21	0.750			
0.9884	63259.30	3.4410	3.4410	0.1969	24.82	-0.20	0.750			
0.9890	63296.76	3.4380	3.4380	0.1941	24.82	-0.20	0.750			
0.9896	63333.81	3.4350	3.4350	0.1916	24.83	-0.19	0.750			
0.9902	63370.35	3.4320	3.4320	0.1891	24.83	-0.19	0.750			
0.9907	63406.41	3.4290	3.4290	0.1867	24.83	-0.19	0.750			
0.9913	63441.93	3.4260	3.4260	0.1843	24.84	-0.18	0.750			
0.9918	63477.15	3.4230	3.4230	0.1822	24.84	-0.18	0.750			
0.9924	63511.90	3.4200	3.4200	0.1802	24.85	-0.17	0.750			
0.9929	63546.19	3.4170	3.4170	0.1780	24.85	-0.17	0.750			
0.9934	63580.23	3.4140	3.4140	0.1761	24.85	-0.17	0.750			
0.9940	63613.84	3.4110	3.4110	0.1740	24.86	-0.16	0.750			
0.9945	63647.11	3.4080	3.4080	0.1718	24.86	-0.16	0.750			
0.9950	63679.87	3.4050	3.4050	0.1699	24.87	-0.15	0.750			
0.9955	63712.24	3.4020	3.4020	0.1679	24.87	-0.15	0.750			
0.9960	63744.30	3.3990	3.3990	0.1660	24.87	-0.15	0.750			
0.9965	63775.95	3.3960	3.3960	0.1641	24.88	-0.14	0.750			
0.9970	63807.34	3.3930	3.3930	0.1620	24.88	-0.14	0.750			
0.9975	63838.32	3.3900	3.3900	0.1600	24.88	-0.14	0.750			
0.9980	63868.83	3.3870	3.3870	0.1579	24.89	-0.13	0.750			
0.9984	63898.99	3.3840	3.3840	0.1559	24.89	-0.13	0.750			
0.9989	63928.56	3.3810	3.3810	0.1539	24.89	-0.13	0.750			
0.9993	63957.86	3.3780	3.3780	0.1520	24.90	-0.12	0.750			
0.9998	63986.88	3.3750	3.3750	0.1504	24.90	-0.12	0.750			
1.0002	64015.54	3.3720	3.3720	0.1487	24.90	-0.12	0.750			
1.0007	64044.00	3.3690	3.3690	0.1473	24.90	-0.12	0.750			
1.0011	64072.18	3.3660	3.3661	0.1453	24.91	-0.11	0.750			
1.0016	64099.90	3.3630	3.3630	0.1437	24.91	-0.11	0.750			
1.0020	64127.36	3.3600	3.3600	0.1420	24.91	-0.11	0.750			
1.0024	64154.41	3.3570	3.3570	0.1401	24.92	-0.10	0.750			
1.0028	64181.13	3.3540	3.3540	0.1386	24.92	-0.10	0.750			
1.0032	64207.55	3.3510	3.3510	0.1369	24.93	-0.09	0.750			
1.0037	64233.62	3.3480	3.3480	0.1354	24.93	-0.09	0.750			
1.0041	64259.50	3.3450	3.3450	0.1341	24.94	-0.08	0.750			
1.0045	64285.18	3.3420	3.3420	0.1326	24.94	-0.08	0.750			
1.0049	64310.46	3.3390	3.3390	0.1309	24.95	-0.07	0.750			
1.0052	64335.52	3.3360	3.3360	0.1295	24.95	-0.07	0.750			
1.0056	64360.23	3.3330	3.3330	0.1280	24.95	-0.07	0.750			
1.0060	64384.65	3.3300	3.3300	0.1263	24.96	-0.06	0.750			
1.0064	64408.76	3.3270	3.3270	0.1248	24.96	-0.06	0.750			
1.0068	64432.50	3.3240	3.3240	0.1231	24.97	-0.05	0.750			
1.0071	64455.98	3.3210	3.3210	0.1218	24.97	-0.05	0.750			
1.0075	64479.23	3.3180	3.3180	0.1204	24.97	-0.05	0.750			
1.0078	64502.21	3.3150	3.3150	0.1190	24.98	-0.04	0.750			
1.0082	64524.92	3.3120	3.3120	0.1176	24.98	-0.04	0.750			
1.0086	64547.40	3.3090	3.3090	0.1162	24.98	-0.04	0.750			
1.0089	64569.58	3.3060	3.3060	0.1148	24.99	-0.03	0.750			
1.0092	64591.45	3.3030	3.3030	0.1136	24.99	-0.03	0.750			
1.0096	64613.14	3.3000	3.3000	0.1123	25.00	-0.02	0.750			
1.0099	64634.54	3.2970	3.2970	0.1109	25.00	-0.02	0.750			
1.0102	64655.70	3.2940	3.2940	0.1096	25.00	-0.02	0.750			
1.0106	64676.64	3.2910	3.2911	0.1084	25.01	-0.01	0.750			
1.0109	64697.32	3.2880	3.2880	0.1071	25.01	-0.01	0.750			
1.0112	64717.78	3.2850	3.2850	0.1059	25.01	-0.01	0.750			
1.0115	64737.98	3.2820	3.2820	0.1046	25.01	-0.01	0.750			
1.0118	64757.90	3.2790	3.2790	0.1031	25.02	-0.00	0.750			
1.0121	64777.54	3.2760	3.2760	0.1019	25.02	-0.00	0.750			
1.0125	64797.01	3.2730	3.2730	0.1008	25.02	-0.00	0.750			
1.0128	64816.27	3.2700	3.2700	0.0994	25.02	0.00	0.750			
1.0131	64835.24	3.2670	3.2670	0.0981	25.02	0.00	0.750			
1.0133	64853.94	3.2640	3.2640	0.0969	25.02	0.00	0.750			
1.0136	64872.42	3.2610	3.2610	0.0956	25.03	0.01	0.750			
1.0139	64890.61	3.2580	3.2581	0.0945	25.03	0.01	0.750			
1.0142	64908.64	3.2550	3.2550	0.0934	25.03	0.01	0.750			
1.0145	64926.51	3.2520	3.2520	0.0921	25.03	0.01	0.750			
1.0148	64944.04	3.2490	3.2490	0.0908	25.03	0.01	0.750			
1.0150	64961.38	3.2460	3.2460	0.0897	25.03	0.01	0.750			
1.0153	64978.56	3.2430	3.2430	0.0886	25.04	0.02	0.750			
1.0156	64995.38	3.2400	3.2400	0.0874	25.04	0.02	0.750			
1.0158	65012.03	3.2370	3.2370	0.0862	25.04	0.02	0.750			
1.0161	65028.47	3.2340	3.2340	0.0850	25.04	0.02	0.750			
1.0163	65044.62	3.2310	3.2310	0.0838	25.04	0.02	0.750			
1.0166	65060.61	3.2280	3.2280	0.0827	25.04	0.02	0.750			
1.0168	65076.44	3.2250	3.2250	0.0817	25.05	0.03	0.750			
1.0171	65092.02	3.2220	3.2221	0.0806	25.05	0.03	0.750			
1.0173	65107.40	3.2190	3.2190	0.0795	25.05	0.03	0.750			
1.0175	65122.54	3.2160	3.2160	0.0783	25.05	0.03	0.750			
1.0178	65137.44	3.2130	3.2130	0.0771	25.05	0.03	0.750			
1.0180	65152.15	3.2100	3.2100	0.0761	25.05	0.03	0.750			
1.0182	65166.64	3.2070	3.2070	0.0750	25.05	0.03	0.750			
1.0185	65180.94	3.2040	3.2040	0.0739	25.06	0.04	0.750			
1.0187	65195.03	3.2010	3.2010	0.0729	25.06	0.04	0.750			
1.0189	65208.92	3.1980	3.1980	0.0719	25.06	0.04	0.750			
1.0191	65222.59	3.1950	3.1950	0.0708	25.06	0.04	0.750			
1.0193	65236.11	3.1920	3.1920	0.0698	25.06	0.04	0.750			
1.0195	65249.40	3.1890	3.1890	0.0687	25.06	0.04	0.750			
1.0197	65262.53	3.1860	3.1860	0.0677	25.06	0.04	0.750			
1.0199	65275.46	3.1830	3.1830	0.0665	25.06	0.04	0.750			
1.0201	65288.16	3.1800	3.1800	0.0654	25.07	0.05	0.750			
1.0203	65300.60	3.1770	3.1770	0.0642	25.07	0.05	0.750			
1.0205	65312.78	3.1740	3.1741	0.0630	25.07	0.05	0.750			
1.0207	65324.76	3.1710	3.1710	0.0619	25.07	0.05	0.750			
1.0209	65336.53	3.1680	3.1680	0.0607	25.07	0.05	0.750			
1.0211	65348.09	3.1650	3.1650	0.0595	25.07	0.05	0.750			
1.0212	65359.38	3.1620	3.1620	0.0583	25.07	0.05	0.750			
1.0214	65370.45	3.1590	3.1590	0.0571	25.07	0.05	0.750			
1.0216	65381.30	3.1560	3.1561	0.0559	25.07	0.05	0.750			
1.0218	65392.10	3.1530	3.1530	0.0543	25.07	0.05	0.750			
1.0219	65402.38	3.1500	3.1500	0.0528	25.08	0.06	0.750			
1.0221	65412.36	3.1470	3.1471	0.0512	25.08	0.06	0.750			
1.0222	65423.12	3.1440	3.1438	0.0488	25.08	0.06	0.750			
1.0224	65432.20	3.1410	3.1409	0.0458	25.08	0.06	0.750			
1.0225	65440.70	3.1380	3.1381	0.0428	25.08	0.06	0.750			
1.0226	65449.31	3.1350	3.1351	0.0411	25.08	0.06	0.750			
1.0228	65456.86	3.1320	3.1323	0.0375	25.08	0.06	0.750			
1.0229	65463.71	3.1290	3.1297	0.0339	25.08	0.06	0.750			
1.0230	65469.88	3.1260	3.1271	0.0303	25.08	0.06	0.750			
1.0231	65475.35	3.1230	3.1247	0.0267	25.08	0.06	0.750			
1.0231	65480.14	3.1200	3.1223	0.0231	25.08	0.06	0.750			
1.0232	65484.23	3.1170	3.1199	0.0195	25.08	0.06	0.750			
1.0232	65487.63	3.1140	3.1176	0.0159	25.08	0.06	0.750			
