Ah_balance (normalized)	Ah_balance (mAh)	Voltage - fit (V)	Voltage -  interpolate (V)	dQ/dV (1/V)	Temperature (°C)	Temperature - diff (°C)	Current (C)	R_DC 0ms (mOhm)	R_DC 50ms (mOhm)	R_DC 50 ms PEC (mOhm)
0.4887	31275.27	3.7450	3.7450	1.7349	27.67	2.22	0.750			
0.4942	31627.25	3.7420	3.7418	1.7833	27.64	2.19	0.750			
0.4995	31969.52	3.7390	3.7391	1.8796	27.61	2.16	0.750			
0.5053	32340.34	3.7360	3.7356	1.9434	27.56	2.11	0.750			
0.5111	32712.31	3.7330	3.7332	1.9753	27.50	2.05	0.750			
0.5173	33109.04	3.7300	3.7299	2.0617	27.45	2.00	0.750			
0.5233	33490.65	3.7270	3.7270	2.0412	27.40	1.95	0.750			
0.5297	33903.43	3.7240	3.7239	2.1284	27.35	1.90	0.750			
0.5361	34311.68	3.7210	3.7209	2.1497	27.30	1.85	0.750			
0.5425	34720.20	3.7180	3.7179	2.1938	27.24	1.79	0.750			
0.5491	35142.65	3.7150	3.7150	2.3097	27.19	1.74	0.750			
0.5565	35614.75	3.7120	3.7120	2.5140	27.12	1.67	0.750			
0.5642	36111.48	3.7090	3.7092	2.5677	27.06	1.61	0.750			
0.5718	36594.73	3.7060	3.7060	2.6600	26.99	1.54	0.750			
0.5799	37116.19	3.7030	3.7030	2.7118	26.92	1.47	0.750			
0.5882	37643.16	3.7000	3.6999	2.6797	26.85	1.40	0.750			
0.5960	38145.36	3.6970	3.6972	2.8158	26.80	1.35	0.750			
0.6049	38714.71	3.6940	3.6940	2.9416	26.73	1.28	0.750			
0.6137	39277.11	3.6910	3.6910	2.9349	26.66	1.21	0.750			
0.6226	39846.21	3.6880	3.6880	3.1328	26.60	1.15	0.750			
0.6325	40481.46	3.6850	3.6850	3.3675	26.56	1.11	0.750			
0.6428	41138.25	3.6820	3.6821	3.4886	26.47	1.02	0.750			
0.6535	41820.94	3.6790	3.6790	3.5312	26.40	0.95	0.750			
0.6640	42495.17	3.6760	3.6760	3.6245	26.34	0.89	0.750			
0.6752	43211.11	3.6730	3.6731	3.8183	26.28	0.83	0.750			
0.6864	43931.60	3.6700	3.6701	3.3779	26.22	0.77	0.750			
0.6959	44535.31	3.6670	3.6670	2.9755	26.18	0.73	0.750			
0.7048	45110.04	3.6640	3.6641	2.7392	26.16	0.71	0.750			
0.7120	45568.60	3.6610	3.6613	2.2361	26.14	0.69	0.750			
0.7178	45940.07	3.6580	3.6581	1.9029	26.13	0.68	0.750			
0.7232	46285.65	3.6550	3.6550	1.7562	26.11	0.66	0.750			
0.7283	46610.51	3.6520	3.6519	1.6361	26.10	0.65	0.750			
0.7331	46919.45	3.6490	3.6488	1.5401	26.08	0.63	0.750			
0.7375	47197.04	3.6460	3.6461	1.4152	26.07	0.62	0.750			
0.7414	47451.31	3.6430	3.6430	1.3399	26.07	0.62	0.750			
0.7452	47694.13	3.6400	3.6400	1.2978	26.06	0.61	0.750			
0.7489	47932.01	3.6370	3.6370	1.2696	26.05	0.60	0.750			
0.7528	48177.30	3.6340	3.6339	1.2633	26.03	0.58	0.750			
0.7566	48419.78	3.6310	3.6312	1.2698	26.02	0.57	0.750			
0.7604	48662.76	3.6280	3.6281	1.2781	26.01	0.56	0.750			
0.7642	48908.93	3.6250	3.6249	1.2918	26.00	0.55	0.750			
0.7681	49158.29	3.6220	3.6220	1.2803	26.00	0.55	0.750			
0.7720	49409.72	3.6190	3.6189	1.2779	25.99	0.54	0.750			
0.7759	49657.83	3.6160	3.6161	1.2757	25.96	0.51	0.750			
0.7797	49899.68	3.6130	3.6130	1.2527	25.94	0.49	0.750			
0.7834	50136.08	3.6100	3.6098	1.2365	25.92	0.47	0.750			
0.7870	50366.26	3.6070	3.6071	1.2291	25.91	0.46	0.750			
0.7907	50602.21	3.6040	3.6040	1.2431	25.89	0.44	0.750			
0.7944	50841.79	3.6010	3.6011	1.2620	25.88	0.43	0.750			
0.7982	51082.54	3.5980	3.5980	1.2830	25.86	0.41	0.750			
0.8020	51326.46	3.5950	3.5951	1.3340	25.84	0.39	0.750			
0.8060	51585.87	3.5920	3.5920	1.3896	25.82	0.37	0.750			
0.8103	51857.37	3.5890	3.5889	1.4557	25.80	0.35	0.750			
0.8147	52143.97	3.5860	3.5861	1.4916	25.78	0.33	0.750			
0.8194	52441.92	3.5830	3.5830	1.5441	25.75	0.30	0.750			
0.8242	52747.19	3.5800	3.5801	1.5735	25.72	0.27	0.750			
0.8288	53043.55	3.5770	3.5769	1.6169	25.69	0.24	0.750			
0.8337	53357.33	3.5740	3.5739	1.6562	25.66	0.21	0.750			
0.8388	53680.82	3.5710	3.5710	1.6994	25.63	0.18	0.750			
0.8440	54014.48	3.5680	3.5680	1.7205	25.59	0.14	0.750			
0.8492	54350.37	3.5650	3.5650	1.7796	25.56	0.11	0.750			
0.8545	54689.25	3.5620	3.5619	1.7983	25.52	0.07	0.750			
0.8600	55039.57	3.5590	3.5590	1.7866	25.48	0.03	0.750			
0.8653	55381.23	3.5560	3.5559	1.8267	25.44	-0.01	0.750			
0.8709	55735.26	3.5530	3.5528	1.8566	25.40	-0.05	0.750			
0.8764	56090.63	3.5500	3.5502	1.9267	25.36	-0.09	0.750			
0.8827	56493.11	3.5470	3.5468	1.9916	25.31	-0.14	0.750			
0.8889	56892.28	3.5440	3.5438	1.7624	25.28	-0.17	0.750			
0.8935	57184.57	3.5410	3.5417	1.3810	25.27	-0.18	0.750			
0.8973	57428.86	3.5380	3.5383	1.0775	25.26	-0.19	0.750			
0.8999	57592.34	3.5350	3.5345	0.8148	25.26	-0.19	0.750			
0.9014	57687.97	3.5320	3.5315	0.5683	25.26	-0.19	0.750			
0.9025	57762.15	3.5290	3.5288	0.4538	25.27	-0.18	0.750			
0.9037	57835.93	3.5260	3.5260	0.3920	25.27	-0.18	0.750			
0.9047	57901.50	3.5230	3.5230	0.3571	25.27	-0.18	0.750			
0.9057	57966.15	3.5200	3.5199	0.3322	25.27	-0.18	0.750			
0.9067	58025.94	3.5170	3.5169	0.3170	25.27	-0.18	0.750			
0.9076	58084.34	3.5140	3.5141	0.3053	25.27	-0.18	0.750			
0.9085	58142.13	3.5110	3.5109	0.2964	25.27	-0.18	0.750			
0.9093	58197.97	3.5080	3.5082	0.2881	25.27	-0.18	0.750			
0.9102	58251.83	3.5050	3.5049	0.2804	25.27	-0.18	0.750			
0.9110	58304.92	3.5020	3.5021	0.2758	25.28	-0.17	0.750			
0.9118	58357.46	3.4990	3.4989	0.2711	25.28	-0.17	0.750			
0.9126	58408.41	3.4960	3.4960	0.2651	25.28	-0.17	0.750			
0.9134	58459.61	3.4930	3.4931	0.2610	25.28	-0.17	0.750			
0.9142	58509.16	3.4900	3.4900	0.2559	25.28	-0.17	0.750			
0.9150	58558.54	3.4870	3.4870	0.2510	25.28	-0.17	0.750			
0.9157	58605.48	3.4840	3.4841	0.2460	25.29	-0.16	0.750			
0.9164	58651.67	3.4810	3.4811	0.2418	25.29	-0.16	0.750			
0.9172	58698.18	3.4780	3.4779	0.2382	25.29	-0.16	0.750			
0.9179	58743.48	3.4750	3.4749	0.2347	25.29	-0.16	0.750			
0.9186	58788.06	3.4720	3.4721	0.2316	25.29	-0.16	0.750			
0.9193	58832.94	3.4690	3.4691	0.2287	25.30	-0.15	0.750			
0.9199	58876.09	3.4660	3.4659	0.2255	25.30	-0.15	0.750			
0.9206	58919.10	3.4630	3.4630	0.2218	25.30	-0.15	0.750			
0.9213	58960.72	3.4600	3.4600	0.2181	25.30	-0.15	0.750			
0.9219	59002.24	3.4570	3.4569	0.2156	25.30	-0.15	0.750			
0.9226	59043.42	3.4540	3.4541	0.2148	25.31	-0.14	0.750			
0.9232	59084.63	3.4510	3.4509	0.2125	25.31	-0.14	0.750			
0.9238	59125.34	3.4480	3.4479	0.2106	25.31	-0.14	0.750			
0.9245	59165.53	3.4450	3.4450	0.2080	25.31	-0.14	0.750			
0.9251	59205.27	3.4420	3.4421	0.2043	25.32	-0.13	0.750			
0.9257	59244.63	3.4390	3.4389	0.2023	25.32	-0.13	0.750			
0.9263	59283.01	3.4360	3.4360	0.1982	25.32	-0.13	0.750			
0.9269	59320.63	3.4330	3.4330	0.1951	25.32	-0.13	0.750			
0.9275	59357.28	3.4300	3.4300	0.1919	25.32	-0.13	0.750			
0.9280	59393.79	3.4270	3.4271	0.1901	25.33	-0.12	0.750			
0.9286	59429.90	3.4240	3.4240	0.1880	25.33	-0.12	0.750			
0.9292	59465.86	3.4210	3.4211	0.1868	25.33	-0.12	0.750			
0.9297	59501.85	3.4180	3.4179	0.1847	25.33	-0.12	0.750			
0.9303	59537.32	3.4150	3.4150	0.1820	25.34	-0.11	0.750			
0.9308	59572.00	3.4120	3.4121	0.1793	25.34	-0.11	0.750			
0.9313	59606.38	3.4090	3.4091	0.1773	25.34	-0.11	0.750			
0.9319	59640.19	3.4060	3.4060	0.1745	25.34	-0.11	0.750			
0.9324	59673.07	3.4030	3.4030	0.1717	25.34	-0.11	0.750			
0.9329	59705.79	3.4000	3.4000	0.1699	25.35	-0.10	0.750			
0.9334	59737.98	3.3970	3.3971	0.1678	25.35	-0.10	0.750			
0.9339	59770.10	3.3940	3.3940	0.1664	25.35	-0.10	0.750			
0.9344	59801.88	3.3910	3.3910	0.1652	25.35	-0.10	0.750			
0.9349	59833.42	3.3880	3.3879	0.1638	25.35	-0.10	0.750			
0.9354	59864.53	3.3850	3.3851	0.1623	25.36	-0.09	0.750			
0.9359	59895.98	3.3820	3.3819	0.1600	25.36	-0.09	0.750			
0.9363	59926.31	3.3790	3.3791	0.1587	25.36	-0.09	0.750			
0.9368	59956.83	3.3760	3.3760	0.1567	25.36	-0.09	0.750			
0.9373	59986.71	3.3730	3.3730	0.1545	25.36	-0.09	0.750			
0.9378	60016.06	3.3700	3.3699	0.1529	25.36	-0.09	0.750			
0.9382	60045.11	3.3670	3.3672	0.1509	25.36	-0.09	0.750			
0.9387	60074.01	3.3640	3.3640	0.1491	25.37	-0.08	0.750			
0.9391	60102.47	3.3610	3.3609	0.1474	25.37	-0.08	0.750			
0.9395	60130.90	3.3580	3.3580	0.1457	25.37	-0.08	0.750			
0.9400	60158.24	3.3550	3.3550	0.1435	25.37	-0.08	0.750			
0.9404	60185.85	3.3520	3.3520	0.1424	25.37	-0.08	0.750			
0.9408	60213.01	3.3490	3.3490	0.1406	25.37	-0.08	0.750			
0.9412	60239.70	3.3460	3.3459	0.1382	25.37	-0.08	0.750			
0.9417	60266.17	3.3430	3.3431	0.1366	25.38	-0.07	0.750			
0.9421	60291.94	3.3400	3.3400	0.1354	25.38	-0.07	0.750			
0.9425	60317.82	3.3370	3.3371	0.1342	25.38	-0.07	0.750			
0.9429	60343.40	3.3340	3.3340	0.1327	25.38	-0.07	0.750			
0.9433	60368.63	3.3310	3.3309	0.1311	25.38	-0.07	0.750			
0.9437	60393.77	3.3280	3.3281	0.1303	25.38	-0.07	0.750			
0.9440	60418.80	3.3250	3.3250	0.1284	25.38	-0.07	0.750			
0.9444	60443.39	3.3220	3.3220	0.1276	25.38	-0.07	0.750			
0.9448	60467.73	3.3190	3.3189	0.1260	25.39	-0.06	0.750			
0.9452	60491.48	3.3160	3.3160	0.1237	25.39	-0.06	0.750			
0.9455	60515.14	3.3130	3.3130	0.1227	25.39	-0.06	0.750			
0.9459	60538.84	3.3100	3.3100	0.1213	25.39	-0.06	0.750			
0.9463	60562.04	3.3070	3.3069	0.1199	25.39	-0.06	0.750			
0.9466	60584.79	3.3040	3.3041	0.1187	25.39	-0.06	0.750			
0.9470	60607.58	3.3010	3.3010	0.1175	25.39	-0.06	0.750			
0.9473	60629.98	3.2980	3.2979	0.1160	25.40	-0.05	0.750			
0.9477	60651.84	3.2950	3.2950	0.1143	25.40	-0.05	0.750			
0.9480	60673.75	3.2920	3.2919	0.1128	25.40	-0.05	0.750			
0.9484	60695.38	3.2890	3.2891	0.1115	25.40	-0.05	0.750			
0.9487	60716.62	3.2860	3.2860	0.1103	25.40	-0.05	0.750			
0.9490	60737.77	3.2830	3.2830	0.1090	25.40	-0.05	0.750			
0.9494	60758.42	3.2800	3.2799	0.1082	25.40	-0.05	0.750			
0.9497	60778.77	3.2770	3.2770	0.1069	25.41	-0.04	0.750			
0.9500	60799.33	3.2740	3.2739	0.1057	25.41	-0.04	0.750			
0.9503	60819.57	3.2710	3.2710	0.1047	25.41	-0.04	0.750			
0.9506	60839.55	3.2680	3.2682	0.1039	25.41	-0.04	0.750			
0.9509	60859.48	3.2650	3.2650	0.1030	25.41	-0.04	0.750			
0.9512	60879.19	3.2620	3.2619	0.1016	25.41	-0.04	0.750			
0.9515	60898.64	3.2590	3.2590	0.1005	25.42	-0.03	0.750			
0.9518	60917.81	3.2560	3.2560	0.0992	25.42	-0.03	0.750			
0.9521	60936.66	3.2530	3.2530	0.0979	25.42	-0.03	0.750			
0.9524	60955.39	3.2500	3.2500	0.0965	25.42	-0.03	0.750			
0.9527	60973.96	3.2470	3.2470	0.0953	25.42	-0.03	0.750			
0.9530	60992.00	3.2440	3.2439	0.0942	25.42	-0.03	0.750			
0.9533	61009.77	3.2410	3.2411	0.0928	25.42	-0.03	0.750			
0.9536	61027.52	3.2380	3.2379	0.0917	25.42	-0.03	0.750			
0.9538	61045.03	3.2350	3.2350	0.0907	25.43	-0.02	0.750			
0.9541	61062.34	3.2320	3.2320	0.0896	25.43	-0.02	0.750			
0.9544	61079.42	3.2290	3.2291	0.0886	25.43	-0.02	0.750			
0.9546	61096.35	3.2260	3.2259	0.0875	25.43	-0.02	0.750			
0.9549	61113.14	3.2230	3.2230	0.0866	25.43	-0.02	0.750			
0.9551	61129.56	3.2200	3.2200	0.0857	25.43	-0.02	0.750			
0.9554	61145.80	3.2170	3.2171	0.0845	25.43	-0.02	0.750			
0.9557	61161.96	3.2140	3.2140	0.0837	25.43	-0.02	0.750			
0.9559	61178.04	3.2110	3.2109	0.0827	25.44	-0.01	0.750			
0.9562	61193.83	3.2080	3.2080	0.0817	25.44	-0.01	0.750			
0.9564	61209.45	3.2050	3.2050	0.0807	25.44	-0.01	0.750			
0.9566	61224.87	3.2020	3.2021	0.0796	25.44	-0.01	0.750			
0.9569	61240.15	3.1990	3.1991	0.0786	25.44	-0.01	0.750			
0.9571	61255.15	3.1960	3.1960	0.0772	25.44	-0.01	0.750			
0.9573	61269.85	3.1930	3.1930	0.0759	25.44	-0.01	0.750			
0.9576	61284.28	3.1900	3.1900	0.0746	25.44	-0.01	0.750			
0.9578	61298.30	3.1870	3.1871	0.0738	25.45	-0.00	0.750			
0.9580	61312.27	3.1840	3.1841	0.0727	25.45	-0.00	0.750			
0.9582	61326.15	3.1810	3.1810	0.0719	25.45	-0.00	0.750			
0.9584	61339.84	3.1780	3.1779	0.0713	25.45	-0.00	0.750			
0.9586	61353.29	3.1750	3.1749	0.0704	25.45	-0.00	0.750			
0.9589	61366.77	3.1720	3.1721	0.0700	25.45	0.00	0.750			
0.9591	61380.29	3.1690	3.1691	0.0688	25.45	0.00	0.750			
0.9593	61393.74	3.1660	3.1659	0.0682	25.45	0.00	0.750			
0.9595	61406.60	3.1630	3.1631	0.0673	25.45	0.00	0.750			
0.9597	61419.39	3.1600	3.1601	0.0662	25.45	0.00	0.750			
0.9599	61432.02	3.1570	3.1569	0.0653	25.46	0.01	0.750			
0.9601	61444.46	3.1540	3.1540	0.0643	25.46	0.01	0.750			
0.9603	61456.64	3.1510	3.1509	0.0632	25.46	0.01	0.750			
0.9604	61468.69	3.1480	3.1481	0.0624	25.46	0.01	0.750			
0.9606	61480.59	3.1450	3.1450	0.0615	25.46	0.01	0.750			
0.9608	61492.47	3.1420	3.1421	0.0607	25.46	0.01	0.750			
0.9610	61504.02	3.1390	3.1390	0.0596	25.46	0.01	0.750			
0.9612	61515.37	3.1360	3.1360	0.0586	25.46	0.01	0.750			
0.9614	61526.43	3.1330	3.1329	0.0575	25.46	0.01	0.750			
0.9615	61537.39	3.1300	3.1300	0.0566	25.46	0.01	0.750			
0.9617	61548.17	3.1270	3.1270	0.0557	25.46	0.01	0.750			
0.9619	61558.79	3.1240	3.1240	0.0547	25.46	0.01	0.750			
0.9620	61569.20	3.1210	3.1210	0.0537	25.47	0.02	0.750			
0.9622	61579.41	3.1180	3.1180	0.0527	25.47	0.02	0.750			
0.9623	61589.44	3.1150	3.1151	0.0517	25.47	0.02	0.750			
0.9625	61599.29	3.1120	3.1120	0.0507	25.47	0.02	0.750			
0.9626	61608.94	3.1090	3.1090	0.0497	25.47	0.02	0.750			
0.9628	61618.39	3.1060	3.1060	0.0487	25.47	0.02	0.750			
0.9629	61627.62	3.1030	3.1030	0.0477	25.47	0.02	0.750			
0.9631	61637.29	3.1000	3.0999	0.0456	25.47	0.02	0.750			
0.9632	61645.88	3.0970	3.0970	0.0438	25.47	0.02	0.750			
0.9633	61654.12	3.0940	3.0942	0.0420	25.47	0.02	0.750			
0.9635	61662.65	3.0910	3.0910	0.0408	25.47	0.02	0.750			
0.9636	61670.26	3.0880	3.0884	0.0384	25.47	0.02	0.750			
0.9637	61677.42	3.0850	3.0855	0.0361	25.47	0.02	0.750			
0.9638	61684.12	3.0820	3.0827	0.0337	25.47	0.02	0.750			
0.9639	61690.37	3.0790	3.0799	0.0314	25.47	0.02	0.750			
0.9640	61696.18	3.0760	3.0769	0.0290	25.48	0.03	0.750			
