Ah_balance (normalized)	Ah_balance (mAh)	Voltage - fit (V)	Voltage -  interpolate (V)	dQ/dV (1/V)	Temperature (°C)	Temperature - diff (°C)	Current (C)	R_DC 0ms (mOhm)	R_DC 50ms (mOhm)	R_DC 50 ms PEC (mOhm)
0.1807	11563.10	4.0820	4.0820	0.7669	7.42	1.43	0.750			
0.1830	11712.07	4.0790	4.0791	0.7787	7.41	1.42	0.750			
0.1853	11862.14	4.0760	4.0760	0.7836	7.40	1.41	0.750			
0.1877	12013.03	4.0730	4.0730	0.7855	7.39	1.40	0.750			
0.1901	12164.96	4.0700	4.0700	0.7866	7.39	1.40	0.750			
0.1924	12315.70	4.0670	4.0671	0.7879	7.38	1.39	0.750			
0.1948	12466.55	4.0640	4.0639	0.7883	7.37	1.38	0.750			
0.1971	12617.30	4.0610	4.0612	0.7915	7.37	1.38	0.750			
0.1995	12770.89	4.0580	4.0579	0.7907	7.36	1.37	0.750			
0.2019	12921.20	4.0550	4.0551	0.7981	7.36	1.37	0.750			
0.2043	13075.35	4.0520	4.0520	0.8055	7.36	1.37	0.750			
0.2067	13230.65	4.0490	4.0490	0.8100	7.35	1.36	0.750			
0.2092	13386.96	4.0460	4.0460	0.8108	7.35	1.36	0.750			
0.2117	13546.03	4.0430	4.0430	0.8067	7.34	1.35	0.750			
0.2141	13699.59	4.0400	4.0401	0.8094	7.33	1.34	0.750			
0.2165	13854.31	4.0370	4.0370	0.8142	7.32	1.33	0.750			
0.2189	14008.45	4.0340	4.0341	0.8122	7.31	1.32	0.750			
0.2213	14164.22	4.0310	4.0310	0.8143	7.31	1.32	0.750			
0.2238	14322.53	4.0280	4.0280	0.8134	7.30	1.31	0.750			
0.2263	14480.12	4.0250	4.0250	0.8223	7.29	1.30	0.750			
0.2287	14637.23	4.0220	4.0220	0.8288	7.28	1.29	0.750			
0.2312	14794.32	4.0190	4.0191	0.8332	7.28	1.29	0.750			
0.2337	14956.03	4.0160	4.0161	0.8364	7.27	1.28	0.750			
0.2362	15119.65	4.0130	4.0130	0.8417	7.26	1.27	0.750			
0.2388	15284.10	4.0100	4.0100	0.8446	7.25	1.26	0.750			
0.2413	15445.86	4.0070	4.0071	0.8442	7.24	1.25	0.750			
0.2438	15605.76	4.0040	4.0040	0.8435	7.23	1.24	0.750			
0.2464	15767.36	4.0010	4.0010	0.8446	7.23	1.24	0.750			
0.2489	15929.24	3.9980	3.9979	0.8447	7.22	1.23	0.750			
0.2515	16093.25	3.9950	3.9951	0.8562	7.22	1.23	0.750			
0.2540	16258.49	3.9920	3.9921	0.8620	7.21	1.22	0.750			
0.2566	16425.08	3.9890	3.9889	0.8656	7.20	1.21	0.750			
0.2592	16591.54	3.9860	3.9861	0.8652	7.19	1.20	0.750			
0.2619	16758.56	3.9830	3.9830	0.8566	7.18	1.19	0.750			
0.2644	16922.27	3.9800	3.9801	0.8681	7.17	1.18	0.750			
0.2670	17088.70	3.9770	3.9770	0.8753	7.16	1.17	0.750			
0.2696	17255.80	3.9740	3.9738	0.8825	7.15	1.16	0.750			
0.2723	17427.18	3.9710	3.9711	0.8877	7.15	1.16	0.750			
0.2750	17599.81	3.9680	3.9681	0.8942	7.14	1.15	0.750			
0.2777	17772.89	3.9650	3.9649	0.9009	7.14	1.15	0.750			
0.2804	17947.27	3.9620	3.9620	0.9087	7.13	1.14	0.750			
0.2831	18118.89	3.9590	3.9590	0.9038	7.13	1.14	0.750			
0.2858	18294.39	3.9560	3.9560	0.8992	7.12	1.13	0.750			
0.2885	18465.82	3.9530	3.9530	0.9084	7.10	1.11	0.750			
0.2912	18639.68	3.9500	3.9501	0.9235	7.09	1.10	0.750			
0.2940	18817.32	3.9470	3.9470	0.9303	7.08	1.09	0.750			
0.2968	18995.45	3.9440	3.9440	0.9435	7.07	1.08	0.750			
0.2997	19180.16	3.9410	3.9411	0.9374	7.06	1.07	0.750			
0.3025	19361.12	3.9380	3.9380	0.9504	7.05	1.06	0.750			
0.3054	19545.32	3.9350	3.9351	0.9609	7.04	1.05	0.750			
0.3082	19726.62	3.9320	3.9315	0.9652	7.03	1.04	0.750			
0.3111	19912.78	3.9290	3.9290	0.9600	7.02	1.03	0.750			
0.3140	20098.93	3.9260	3.9261	0.9750	7.01	1.02	0.750			
0.3170	20287.24	3.9230	3.9232	0.9831	6.99	1.00	0.750			
0.3199	20475.10	3.9200	3.9196	0.9884	6.98	0.99	0.750			
0.3229	20665.97	3.9170	3.9172	0.9941	6.97	0.98	0.750			
0.3259	20857.15	3.9140	3.9139	0.9984	6.96	0.97	0.750			
0.3289	21050.14	3.9110	3.9111	1.0088	6.95	0.96	0.750			
0.3320	21249.20	3.9080	3.9080	1.0295	6.94	0.95	0.750			
0.3351	21445.33	3.9050	3.9050	1.0161	6.93	0.94	0.750			
0.3381	21637.72	3.9020	3.9020	1.0275	6.92	0.93	0.750			
0.3411	21831.60	3.8990	3.8990	1.0322	6.91	0.92	0.750			
0.3443	22033.50	3.8960	3.8961	1.0503	6.89	0.90	0.750			
0.3474	22236.05	3.8930	3.8929	1.0547	6.88	0.89	0.750			
0.3506	22438.42	3.8900	3.8901	1.0685	6.87	0.88	0.750			
0.3538	22644.11	3.8870	3.8872	1.0891	6.86	0.87	0.750			
0.3572	22857.77	3.8840	3.8838	1.1077	6.84	0.85	0.750			
0.3604	23067.33	3.8810	3.8811	1.1024	6.83	0.84	0.750			
0.3638	23281.59	3.8780	3.8781	1.1219	6.82	0.83	0.750			
0.3672	23499.08	3.8750	3.8751	1.1401	6.80	0.81	0.750			
0.3706	23720.27	3.8720	3.8717	1.1379	6.79	0.80	0.750			
0.3740	23935.87	3.8690	3.8691	1.1613	6.78	0.79	0.750			
0.3775	24160.00	3.8660	3.8661	1.1856	6.77	0.78	0.750			
0.3812	24394.92	3.8630	3.8629	1.1979	6.76	0.77	0.750			
0.3848	24624.87	3.8600	3.8601	1.2120	6.74	0.75	0.750			
0.3884	24857.77	3.8570	3.8572	1.2362	6.73	0.74	0.750			
0.3922	25098.08	3.8540	3.8541	1.2571	6.71	0.72	0.750			
0.3960	25342.55	3.8510	3.8507	1.2638	6.70	0.71	0.750			
0.3998	25586.70	3.8480	3.8481	1.2795	6.69	0.70	0.750			
0.4036	25831.42	3.8450	3.8451	1.3185	6.68	0.69	0.750			
0.4076	26087.62	3.8420	3.8419	1.3626	6.67	0.68	0.750			
0.4117	26348.83	3.8390	3.8390	1.3928	6.65	0.66	0.750			
0.4160	26621.23	3.8360	3.8362	1.4358	6.63	0.64	0.750	0.381	0.929	
0.4204	26906.44	3.8330	3.8330	1.4584	6.61	0.62	0.750			
0.4249	27193.19	3.8300	3.8300	1.4691	6.60	0.61	0.750			
0.4293	27476.19	3.8270	3.8271	1.5008	6.58	0.59	0.750			
0.4338	27760.51	3.8240	3.8240	1.5108	6.57	0.58	0.750			
0.4383	28051.90	3.8210	3.8209	1.5301	6.55	0.56	0.750			
0.4430	28348.91	3.8180	3.8182	1.5616	6.54	0.55	0.750			
0.4477	28653.01	3.8150	3.8151	1.5917	6.52	0.53	0.750			
0.4525	28959.54	3.8120	3.8120	1.6404	6.50	0.51	0.750			
0.4574	29274.46	3.8090	3.8090	1.6629	6.48	0.49	0.750			
0.4625	29602.35	3.8060	3.8061	1.7002	6.46	0.47	0.750			
0.4677	29935.91	3.8030	3.8032	1.7371	6.44	0.45	0.750			
0.4730	30272.13	3.8000	3.8001	1.7556	6.43	0.44	0.750			
0.4783	30609.63	3.7970	3.7970	1.7848	6.42	0.43	0.750			
0.4836	30949.91	3.7940	3.7941	1.8235	6.41	0.42	0.750			
0.4891	31304.99	3.7910	3.7912	1.8449	6.38	0.39	0.750			
0.4948	31666.00	3.7880	3.7879	1.8756	6.35	0.36	0.750			
0.5005	32029.12	3.7850	3.7849	1.9448	6.33	0.34	0.750			
0.5065	32415.13	3.7820	3.7819	1.8507	6.31	0.32	0.750			
0.5120	32767.55	3.7790	3.7792	1.7988	6.29	0.30	0.750			
0.5172	33098.23	3.7760	3.7763	1.7949	6.27	0.28	0.750			
0.5224	33430.97	3.7730	3.7728	1.8473	6.25	0.26	0.750			
0.5277	33770.90	3.7700	3.7700	1.9167	6.23	0.24	0.750			
0.5338	34163.02	3.7670	3.7670	2.0428	6.21	0.22	0.750			
0.5400	34560.99	3.7640	3.7639	2.0951	6.19	0.20	0.750			
0.5464	34971.32	3.7610	3.7608	2.1268	6.17	0.18	0.750			
0.5530	35392.34	3.7580	3.7579	2.1681	6.16	0.17	0.750			
0.5598	35827.75	3.7550	3.7549	2.1812	6.14	0.15	0.750			
0.5664	36252.07	3.7520	3.7518	2.2108	6.12	0.13	0.750			
0.5730	36671.09	3.7490	3.7488	2.2139	6.10	0.11	0.750			
0.5794	37082.27	3.7460	3.7459	2.2133	6.08	0.09	0.750			
0.5862	37515.93	3.7430	3.7431	2.3486	6.06	0.07	0.750			
0.5932	37965.64	3.7400	3.7400	2.4399	6.04	0.05	0.750			
0.6009	38459.91	3.7370	3.7372	2.5124	6.02	0.03	0.750			
0.6086	38952.34	3.7340	3.7340	2.5480	6.01	0.02	0.750			
0.6161	39430.28	3.7310	3.7310	2.4870	5.98	-0.01	0.750			
0.6236	39912.12	3.7280	3.7282	2.5667	5.96	-0.03	0.750			
0.6315	40416.37	3.7250	3.7249	2.6164	5.95	-0.04	0.750			
0.6394	40922.85	3.7220	3.7222	2.6034	5.94	-0.05	0.750			
0.6473	41426.29	3.7190	3.7190	2.5873	5.94	-0.05	0.750			
0.6551	41923.53	3.7160	3.7159	2.4166	5.92	-0.07	0.750			
0.6621	42373.69	3.7130	3.7131	2.2792	5.92	-0.07	0.750			
0.6687	42795.92	3.7100	3.7098	2.0554	5.91	-0.08	0.750			
0.6744	43161.01	3.7070	3.7072	1.8324	5.91	-0.08	0.750			
0.6796	43496.39	3.7040	3.7042	1.6419	5.91	-0.08	0.750			
0.6844	43799.75	3.7010	3.7008	1.4952	5.91	-0.08	0.750			
0.6885	44066.31	3.6980	3.6981	1.3256	5.91	-0.08	0.750			
0.6921	44293.23	3.6950	3.6951	1.1792	5.91	-0.08	0.750			
0.6953	44501.79	3.6920	3.6919	1.0644	5.91	-0.08	0.750			
0.6983	44688.48	3.6890	3.6891	0.9719	5.91	-0.08	0.750			
0.7010	44865.59	3.6860	3.6860	0.9243	5.92	-0.07	0.750			
0.7037	45035.49	3.6830	3.6829	0.8786	5.92	-0.07	0.750			
0.7062	45198.66	3.6800	3.6801	0.8417	5.93	-0.06	0.750			
0.7087	45356.18	3.6770	3.6769	0.8074	5.93	-0.06	0.750			
0.7111	45509.58	3.6740	3.6741	0.7746	5.94	-0.05	0.750			
0.7134	45657.67	3.6710	3.6709	0.7338	5.94	-0.05	0.750			
0.7155	45793.95	3.6680	3.6681	0.6913	5.94	-0.05	0.750			
0.7176	45923.40	3.6650	3.6651	0.6487	5.95	-0.04	0.750			
0.7194	46043.61	3.6620	3.6621	0.6088	5.95	-0.04	0.750			
0.7212	46155.70	3.6590	3.6589	0.5682	5.95	-0.04	0.750			
0.7228	46259.43	3.6560	3.6560	0.5285	5.96	-0.03	0.750			
0.7243	46357.72	3.6530	3.6530	0.4877	5.96	-0.03	0.750			
0.7258	46449.84	3.6500	3.6500	0.4542	5.97	-0.02	0.750			
0.7271	46531.66	3.6470	3.6470	0.4123	5.97	-0.02	0.750			
0.7282	46607.10	3.6440	3.6440	0.3758	5.98	-0.01	0.750			
0.7293	46674.56	3.6410	3.6409	0.3374	5.98	-0.01	0.750			
0.7303	46736.01	3.6380	3.6382	0.3019	5.98	-0.01	0.750			
0.7311	46790.14	3.6350	3.6349	0.2663	5.98	-0.01	0.750			
0.7319	46839.24	3.6320	3.6320	0.2299	5.99	-0.00	0.750			
0.7325	46879.98	3.6290	3.6288	0.1919	5.99	-0.00	0.750			
0.7330	46913.55	3.6260	3.6259	0.1547	5.99	0.00	0.750			
0.7334	46939.54	3.6230	3.6234	0.1161	5.99	0.00	0.750			
0.7337	46958.28	3.6200	3.6204	0.0773	5.99	0.00	0.750			
0.7339	46969.68	3.6170	3.6177	0.0375	5.99	0.00	0.750			
0.7340	46973.05	3.6140	3.6160	-0.0024	5.99	0.00	0.750			
