Ah_balance (normalized)	Ah_balance (mAh)	Voltage - fit (V)	Voltage -  interpolate (V)	dQ/dV (1/V)	Temperature (°C)	Temperature - diff (°C)	Current (C)	R_DC 0ms (mOhm)	R_DC 50ms (mOhm)	R_DC 50 ms PEC (mOhm)
0.0946	6056.44	4.0030	4.0026	-0.0875	5.94	0.00	-0.750			
0.0949	6075.95	4.0000	3.9998	-0.1156	5.94	0.00	-0.750			
0.0953	6101.21	3.9970	3.9969	-0.1431	5.94	0.00	-0.750			
0.0958	6131.59	3.9940	3.9940	-0.1686	5.94	0.00	-0.750			
0.0964	6166.63	3.9910	3.9910	-0.1924	5.94	0.00	-0.750			
0.0970	6205.93	3.9880	3.9881	-0.2169	5.94	-0.00	-0.750			
0.0977	6250.59	3.9850	3.9850	-0.2403	5.94	-0.00	-0.750			
0.0984	6298.99	3.9820	3.9820	-0.2627	5.94	-0.00	-0.750			
0.0992	6351.74	3.9790	3.9789	-0.2844	5.93	-0.01	-0.750			
0.1001	6408.03	3.9760	3.9760	-0.3080	5.93	-0.01	-0.750			
0.1011	6469.00	3.9730	3.9730	-0.3329	5.93	-0.01	-0.750			
0.1021	6535.19	3.9700	3.9700	-0.3574	5.93	-0.01	-0.750			
0.1032	6605.91	3.9670	3.9669	-0.3820	5.92	-0.02	-0.750			
0.1044	6681.40	3.9640	3.9641	-0.4108	5.92	-0.02	-0.750			
0.1057	6763.19	3.9610	3.9610	-0.4379	5.92	-0.02	-0.750			
0.1070	6850.39	3.9580	3.9579	-0.4631	5.92	-0.02	-0.750			
0.1085	6941.97	3.9550	3.9550	-0.4876	5.91	-0.03	-0.750			
0.1100	7038.34	3.9520	3.9521	-0.5121	5.91	-0.03	-0.750			
0.1116	7139.81	3.9490	3.9489	-0.5354	5.91	-0.03	-0.750			
0.1132	7244.26	3.9460	3.9460	-0.5586	5.90	-0.04	-0.750			
0.1149	7351.88	3.9430	3.9430	-0.5823	5.90	-0.04	-0.750			
0.1167	7468.26	3.9400	3.9400	-0.6022	5.90	-0.04	-0.750			
0.1186	7587.41	3.9370	3.9369	-0.6226	5.89	-0.05	-0.750			
0.1205	7709.22	3.9340	3.9340	-0.6375	5.89	-0.05	-0.750			
0.1224	7833.80	3.9310	3.9311	-0.6543	5.89	-0.05	-0.750			
0.1244	7960.94	3.9280	3.9279	-0.6662	5.89	-0.05	-0.750			
0.1264	8088.97	3.9250	3.9251	-0.6766	5.89	-0.05	-0.750			
0.1284	8219.75	3.9220	3.9219	-0.6878	5.89	-0.05	-0.750			
0.1305	8354.58	3.9190	3.9190	-0.7021	5.89	-0.05	-0.750			
0.1327	8490.29	3.9160	3.9160	-0.7111	5.89	-0.05	-0.750			
0.1348	8627.13	3.9130	3.9131	-0.7233	5.89	-0.05	-0.750			
0.1370	8767.61	3.9100	3.9101	-0.7317	5.89	-0.05	-0.750			
0.1392	8909.74	3.9070	3.9069	-0.7434	5.90	-0.04	-0.750			
0.1415	9053.80	3.9040	3.9040	-0.7512	5.90	-0.04	-0.750			
0.1437	9199.56	3.9010	3.9010	-0.7579	5.91	-0.03	-0.750			
0.1460	9346.18	3.8980	3.8980	-0.7646	5.91	-0.03	-0.750			
0.1483	9493.67	3.8950	3.8950	-0.7666	5.91	-0.03	-0.750			
0.1506	9639.75	3.8920	3.8920	-0.7695	5.92	-0.02	-0.750			
0.1529	9788.64	3.8890	3.8890	-0.7743	5.92	-0.02	-0.750			
0.1553	9937.14	3.8860	3.8860	-0.7759	5.92	-0.02	-0.750			
0.1576	10087.16	3.8830	3.8829	-0.7797	5.93	-0.01	-0.750			
0.1600	10237.12	3.8800	3.8800	-0.7812	5.93	-0.01	-0.750			
0.1623	10386.55	3.8770	3.8771	-0.7863	5.94	-0.00	-0.750			
0.1647	10538.09	3.8740	3.8740	-0.7911	5.94	-0.00	-0.750			
0.1670	10689.83	3.8710	3.8710	-0.7926	5.94	0.00	-0.750			
0.1694	10843.20	3.8680	3.8680	-0.7991	5.95	0.01	-0.750			
0.1718	10997.27	3.8650	3.8651	-0.8025	5.95	0.01	-0.750			
0.1742	11151.85	3.8620	3.8620	-0.8046	5.96	0.02	-0.750			
0.1767	11306.65	3.8590	3.8590	-0.8078	5.97	0.03	-0.750			
0.1791	11461.57	3.8560	3.8560	-0.8077	5.97	0.03	-0.750			
0.1815	11617.09	3.8530	3.8530	-0.8106	5.98	0.04	-0.750			
0.1840	11772.93	3.8500	3.8501	-0.8129	5.99	0.05	-0.750			
0.1864	11929.60	3.8470	3.8470	-0.8130	5.99	0.05	-0.750			
0.1888	12085.57	3.8440	3.8440	-0.8179	6.00	0.06	-0.750			
0.1913	12242.46	3.8410	3.8410	-0.8191	6.00	0.06	-0.750			
0.1937	12399.84	3.8380	3.8380	-0.8207	6.01	0.07	-0.750			
0.1962	12559.44	3.8350	3.8350	-0.8193	6.01	0.07	-0.750			
0.1987	12716.50	3.8320	3.8320	-0.8156	6.02	0.08	-0.750			
0.2011	12872.49	3.8290	3.8290	-0.8163	6.02	0.08	-0.750			
0.2036	13028.47	3.8260	3.8260	-0.8171	6.03	0.09	-0.750			
0.2060	13184.12	3.8230	3.8229	-0.8159	6.04	0.10	-0.750			
0.2085	13341.28	3.8200	3.8201	-0.8204	6.05	0.11	-0.750			
0.2109	13499.53	3.8170	3.8169	-0.8205	6.05	0.11	-0.750			
0.2134	13657.95	3.8140	3.8140	-0.8305	6.06	0.12	-0.750			
0.2159	13816.90	3.8110	3.8110	-0.8327	6.06	0.12	-0.750			
0.2184	13976.20	3.8080	3.8079	-0.8346	6.06	0.12	-0.750			
0.2209	14137.95	3.8050	3.8050	-0.8409	6.07	0.13	-0.750			
0.2235	14301.38	3.8020	3.8020	-0.8413	6.08	0.14	-0.750			
0.2260	14463.06	3.7990	3.7990	-0.8479	6.09	0.15	-0.750			
0.2285	14626.50	3.7960	3.7960	-0.8507	6.10	0.16	-0.750			
0.2311	14789.21	3.7930	3.7929	-0.8435	6.12	0.18	-0.750			
0.2336	14952.78	3.7900	3.7900	-0.8435	6.13	0.19	-0.750			
0.2361	15113.49	3.7870	3.7871	-0.8461	6.13	0.19	-0.750			
0.2387	15275.48	3.7840	3.7840	-0.8515	6.14	0.20	-0.750			
0.2412	15439.65	3.7810	3.7809	-0.8555	6.14	0.20	-0.750			
0.2438	15602.79	3.7780	3.7780	-0.8538	6.15	0.21	-0.750			
0.2464	15769.10	3.7750	3.7751	-0.8608	6.15	0.21	-0.750			
0.2490	15936.06	3.7720	3.7720	-0.8638	6.16	0.22	-0.750			
0.2516	16103.21	3.7690	3.7690	-0.8625	6.17	0.23	-0.750			
0.2542	16266.43	3.7660	3.7660	-0.8606	6.17	0.23	-0.750			
0.2567	16430.87	3.7630	3.7630	-0.8599	6.18	0.24	-0.750			
0.2593	16597.55	3.7600	3.7600	-0.8616	6.19	0.25	-0.750			
0.2619	16762.79	3.7570	3.7570	-0.8618	6.20	0.26	-0.750			
0.2645	16928.15	3.7540	3.7540	-0.8628	6.21	0.27	-0.750			
0.2671	17093.22	3.7510	3.7510	-0.8665	6.22	0.28	-0.750			
0.2697	17260.34	3.7480	3.7479	-0.8696	6.22	0.28	-0.750			
0.2723	17426.75	3.7450	3.7450	-0.8701	6.23	0.29	-0.750			
0.2749	17595.01	3.7420	3.7420	-0.8726	6.24	0.30	-0.750			
0.2775	17762.89	3.7390	3.7390	-0.8744	6.24	0.30	-0.750			
0.2802	17931.28	3.7360	3.7360	-0.8758	6.24	0.30	-0.750			
0.2828	18098.75	3.7330	3.7330	-0.8767	6.25	0.31	-0.750			
0.2854	18267.79	3.7300	3.7300	-0.8741	6.25	0.31	-0.750			
0.2881	18435.43	3.7270	3.7270	-0.8771	6.26	0.32	-0.750			
0.2907	18603.57	3.7240	3.7241	-0.8783	6.27	0.33	-0.750			
0.2933	18773.39	3.7210	3.7210	-0.8783	6.28	0.34	-0.750			
0.2960	18942.95	3.7180	3.7179	-0.8704	6.29	0.35	-0.750			
0.2986	19109.11	3.7150	3.7150	-0.8676	6.30	0.36	-0.750			
0.3012	19274.74	3.7120	3.7121	-0.8646	6.30	0.36	-0.750			
0.3037	19439.94	3.7090	3.7090	-0.8674	6.31	0.37	-0.750			
0.3063	19603.44	3.7060	3.7059	-0.8735	6.32	0.38	-0.750			
0.3089	19770.49	3.7030	3.7030	-0.8804	6.33	0.39	-0.750			
0.3116	19941.41	3.7000	3.7000	-0.8935	6.33	0.39	-0.750			
0.3143	20117.83	3.6970	3.6970	-0.9063	6.34	0.40	-0.750			
0.3171	20291.40	3.6940	3.6940	-0.9104	6.34	0.40	-0.750			
0.3198	20466.59	3.6910	3.6910	-0.9153	6.35	0.41	-0.750			
0.3225	20642.12	3.6880	3.6880	-0.9214	6.35	0.41	-0.750			
0.3253	20819.16	3.6850	3.6850	-0.9343	6.36	0.42	-0.750			
0.3281	20999.93	3.6820	3.6820	-0.9455	6.37	0.43	-0.750			
0.3310	21182.30	3.6790	3.6790	-0.9540	6.38	0.44	-0.750			
0.3339	21368.31	3.6760	3.6761	-0.9620	6.39	0.45	-0.750			
0.3368	21552.91	3.6730	3.6730	-0.9750	6.40	0.46	-0.750			
0.3397	21741.20	3.6700	3.6700	-0.9848	6.41	0.47	-0.750			
0.3427	21931.14	3.6670	3.6669	-0.9905	6.42	0.48	-0.750			
0.3456	22120.57	3.6640	3.6641	-1.0000	6.44	0.50	-0.750			
0.3487	22314.35	3.6610	3.6610	-1.0163	6.45	0.51	-0.750			
0.3517	22510.51	3.6580	3.6579	-1.0300	6.46	0.52	-0.750			
0.3548	22709.41	3.6550	3.6550	-1.0423	6.47	0.53	-0.750			
0.3579	22908.65	3.6520	3.6520	-1.0583	6.49	0.55	-0.750			
0.3612	23116.03	3.6490	3.6490	-1.0822	6.50	0.56	-0.750			
0.3645	23327.94	3.6460	3.6459	-1.0934	6.51	0.57	-0.750			
0.3678	23538.05	3.6430	3.6430	-1.1055	6.52	0.58	-0.750			
0.3711	23751.42	3.6400	3.6402	-1.1196	6.53	0.59	-0.750			
0.3745	23969.07	3.6370	3.6369	-1.1380	6.54	0.60	-0.750			
0.3780	24188.81	3.6340	3.6340	-1.1517	6.55	0.61	-0.750			
0.3814	24409.33	3.6310	3.6310	-1.1686	6.56	0.62	-0.750			
0.3849	24633.34	3.6280	3.6281	-1.1922	6.57	0.63	-0.750			
0.3885	24867.06	3.6250	3.6250	-1.2217	6.58	0.64	-0.750			
0.3922	25103.45	3.6220	3.6219	-1.2350	6.59	0.65	-0.750			
0.3960	25344.41	3.6190	3.6190	-1.2562	6.60	0.66	-0.750			
0.3999	25590.83	3.6160	3.6160	-1.2817	6.61	0.67	-0.750			
0.4037	25838.23	3.6130	3.6130	-1.2896	6.62	0.68	-0.750			
0.4076	26085.12	3.6100	3.6100	-1.3175	6.63	0.69	-0.750			
0.4116	26340.48	3.6070	3.6068	-1.3255	6.63	0.69	-0.750			
0.4156	26595.60	3.6040	3.6039	-1.3404	6.64	0.70	-0.750			
0.4196	26853.65	3.6010	3.6004	-1.3676	6.65	0.71	-0.750	0.509	1.216	
0.4237	27116.38	3.5980	3.5976	-1.3769	6.65	0.71	-0.750			
0.4279	27386.54	3.5950	3.5949	-1.4058	6.66	0.72	-0.750			
0.4321	27653.24	3.5920	3.5921	-1.4213	6.67	0.73	-0.750			
0.4364	27932.34	3.5890	3.5889	-1.4518	6.67	0.73	-0.750			
0.4409	28215.25	3.5860	3.5860	-1.4646	6.68	0.74	-0.750			
0.4453	28500.93	3.5830	3.5830	-1.4907	6.69	0.75	-0.750			
0.4498	28786.15	3.5800	3.5800	-1.5026	6.69	0.75	-0.750			
0.4544	29078.76	3.5770	3.5770	-1.5334	6.69	0.75	-0.750			
0.4589	29371.78	3.5740	3.5740	-1.5489	6.69	0.75	-0.750			
0.4636	29669.11	3.5710	3.5710	-1.5808	6.69	0.75	-0.750			
0.4684	29980.17	3.5680	3.5681	-1.6022	6.70	0.76	-0.750			
0.4733	30289.20	3.5650	3.5650	-1.6278	6.70	0.76	-0.750			
0.4782	30602.45	3.5620	3.5620	-1.6491	6.71	0.77	-0.750			
0.4832	30925.75	3.5590	3.5590	-1.6562	6.71	0.77	-0.750			
0.4882	31244.32	3.5560	3.5559	-1.6748	6.71	0.77	-0.750			
0.4932	31567.27	3.5530	3.5529	-1.6876	6.71	0.77	-0.750			
0.4982	31887.79	3.5500	3.5500	-1.7014	6.71	0.77	-0.750			
0.5034	32219.74	3.5470	3.5470	-1.7175	6.72	0.78	-0.750			
0.5086	32548.48	3.5440	3.5440	-1.7320	6.72	0.78	-0.750			
0.5139	32886.46	3.5410	3.5410	-1.7585	6.72	0.78	-0.750			
0.5192	33226.31	3.5380	3.5379	-1.7527	6.71	0.77	-0.750			
0.5244	33559.24	3.5350	3.5351	-1.7639	6.71	0.77	-0.750			
0.5297	33900.12	3.5320	3.5319	-1.7694	6.72	0.78	-0.750			
0.5350	34240.73	3.5290	3.5290	-1.7576	6.73	0.79	-0.750			
0.5403	34578.08	3.5260	3.5261	-1.7700	6.73	0.79	-0.750			
0.5456	34919.21	3.5230	3.5229	-1.7763	6.74	0.80	-0.750			
0.5510	35263.59	3.5200	3.5199	-1.7787	6.74	0.80	-0.750			
0.5563	35605.80	3.5170	3.5172	-1.7913	6.75	0.81	-0.750			
0.5616	35944.91	3.5140	3.5141	-1.7927	6.75	0.81	-0.750			
0.5671	36294.30	3.5110	3.5109	-1.7933	6.75	0.81	-0.750			
0.5725	36641.27	3.5080	3.5081	-1.7809	6.75	0.81	-0.750			
0.5778	36981.67	3.5050	3.5049	-1.7825	6.76	0.82	-0.750			
0.5832	37322.70	3.5020	3.5019	-1.7740	6.77	0.83	-0.750			
0.5884	37659.91	3.4990	3.4989	-1.7660	6.78	0.84	-0.750			
0.5938	38000.37	3.4960	3.4961	-1.7571	6.79	0.85	-0.750			
0.5990	38333.01	3.4930	3.4929	-1.7438	6.79	0.85	-0.750			
0.6043	38674.23	3.4900	3.4901	-1.7370	6.80	0.86	-0.750			
0.6095	39007.79	3.4870	3.4870	-1.7154	6.81	0.87	-0.750			
0.6146	39334.04	3.4840	3.4840	-1.6989	6.82	0.88	-0.750			
0.6197	39658.91	3.4810	3.4810	-1.6709	6.83	0.89	-0.750			
0.6246	39974.34	3.4780	3.4780	-1.6476	6.83	0.89	-0.750			
0.6295	40290.29	3.4750	3.4750	-1.6358	6.84	0.90	-0.750			
0.6344	40600.59	3.4720	3.4721	-1.6128	6.85	0.91	-0.750			
0.6392	40911.84	3.4690	3.4690	-1.5951	6.85	0.91	-0.750			
0.6440	41214.58	3.4660	3.4660	-1.5722	6.85	0.91	-0.750			
0.6487	41515.34	3.4630	3.4628	-1.5424	6.86	0.92	-0.750			
0.6533	41810.97	3.4600	3.4600	-1.5180	6.87	0.93	-0.750			
0.6578	42097.26	3.4570	3.4569	-1.4875	6.89	0.95	-0.750			
0.6622	42379.44	3.4540	3.4540	-1.4602	6.89	0.95	-0.750			
0.6666	42660.44	3.4510	3.4509	-1.4400	6.90	0.96	-0.750			
0.6708	42933.09	3.4480	3.4480	-1.4145	6.91	0.97	-0.750			
0.6750	43201.51	3.4450	3.4450	-1.3801	6.92	0.98	-0.750			
0.6792	43467.72	3.4420	3.4420	-1.3591	6.93	0.99	-0.750			
0.6832	43724.71	3.4390	3.4391	-1.3265	6.95	1.01	-0.750			
0.6871	43975.61	3.4360	3.4359	-1.2889	6.96	1.02	-0.750			
0.6909	44220.37	3.4330	3.4330	-1.2574	6.97	1.03	-0.750			
0.6946	44457.22	3.4300	3.4300	-1.2271	6.98	1.04	-0.750			
0.6983	44688.18	3.4270	3.4270	-1.2010	7.00	1.06	-0.750			
0.7019	44920.28	3.4240	3.4239	-1.1778	7.01	1.07	-0.750			
0.7054	45142.90	3.4210	3.4209	-1.1456	7.02	1.08	-0.750			
0.7088	45361.27	3.4180	3.4181	-1.1144	7.03	1.09	-0.750			
0.7121	45573.59	3.4150	3.4150	-1.0819	7.04	1.10	-0.750			
0.7153	45777.38	3.4120	3.4120	-1.0468	7.05	1.11	-0.750			
0.7183	45973.30	3.4090	3.4090	-1.0164	7.06	1.12	-0.750			
0.7213	46162.87	3.4060	3.4059	-0.9853	7.07	1.13	-0.750			
0.7242	46350.41	3.4030	3.4030	-0.9627	7.08	1.14	-0.750			
0.7271	46532.78	3.4000	3.4000	-0.9351	7.10	1.16	-0.750			
0.7299	46711.63	3.3970	3.3970	-0.9087	7.11	1.17	-0.750			
0.7326	46883.45	3.3940	3.3940	-0.8796	7.12	1.18	-0.750			
0.7351	47049.59	3.3910	3.3909	-0.8488	7.14	1.20	-0.750			
0.7377	47209.76	3.3880	3.3881	-0.8163	7.15	1.21	-0.750			
0.7401	47363.46	3.3850	3.3850	-0.7841	7.16	1.22	-0.750			
