Ah_balance (normalized)	Ah_balance (mAh)	Voltage - fit (V)	Voltage -  interpolate (V)	dQ/dV (1/V)	Temperature (°C)	Temperature - diff (°C)	Current (C)	R_DC 0ms (mOhm)	R_DC 50ms (mOhm)	R_DC 50 ms PEC (mOhm)
0.1787	11437.64	4.0810	4.0810	0.7530	7.46	1.47	0.750			
0.1810	11582.82	4.0780	4.0780	0.7597	7.45	1.46	0.750			
0.1833	11728.65	4.0750	4.0750	0.7662	7.44	1.45	0.750			
0.1856	11877.45	4.0720	4.0721	0.7715	7.44	1.45	0.750			
0.1879	12025.74	4.0690	4.0691	0.7770	7.43	1.44	0.750			
0.1903	12176.21	4.0660	4.0660	0.7773	7.43	1.44	0.750			
0.1926	12325.25	4.0630	4.0630	0.7833	7.42	1.43	0.750			
0.1949	12474.44	4.0600	4.0600	0.7854	7.42	1.43	0.750			
0.1973	12626.28	4.0570	4.0568	0.7912	7.41	1.42	0.750			
0.1997	12779.44	4.0540	4.0541	0.7925	7.40	1.41	0.750			
0.2021	12934.46	4.0510	4.0511	0.7908	7.40	1.41	0.750			
0.2045	13086.14	4.0480	4.0480	0.7933	7.39	1.40	0.750			
0.2069	13238.48	4.0450	4.0450	0.7961	7.38	1.39	0.750			
0.2092	13387.05	4.0420	4.0420	0.7926	7.37	1.38	0.750			
0.2116	13539.29	4.0390	4.0390	0.8021	7.37	1.38	0.750			
0.2140	13696.07	4.0360	4.0360	0.8056	7.36	1.37	0.750			
0.2164	13851.60	4.0330	4.0329	0.8154	7.36	1.37	0.750			
0.2189	14011.59	4.0300	4.0300	0.8233	7.36	1.37	0.750			
0.2214	14168.61	4.0270	4.0271	0.8201	7.35	1.36	0.750			
0.2238	14325.91	4.0240	4.0242	0.8237	7.35	1.36	0.750			
0.2263	14484.99	4.0210	4.0211	0.8261	7.34	1.35	0.750			
0.2288	14642.82	4.0180	4.0179	0.8277	7.34	1.35	0.750			
0.2313	14802.68	4.0150	4.0150	0.8292	7.34	1.35	0.750			
0.2338	14962.45	4.0120	4.0120	0.8295	7.33	1.34	0.750			
0.2363	15121.22	4.0090	4.0091	0.8327	7.33	1.34	0.750			
0.2388	15285.17	4.0060	4.0059	0.8268	7.32	1.33	0.750			
0.2413	15441.23	4.0030	4.0030	0.8260	7.31	1.32	0.750			
0.2437	15597.94	4.0000	4.0001	0.8309	7.30	1.31	0.750			
0.2462	15756.18	3.9970	3.9972	0.8402	7.30	1.31	0.750			
0.2487	15918.39	3.9940	3.9940	0.8499	7.29	1.30	0.750			
0.2513	16083.49	3.9910	3.9911	0.8533	7.28	1.29	0.750			
0.2539	16249.05	3.9880	3.9880	0.8597	7.27	1.28	0.750			
0.2565	16417.10	3.9850	3.9851	0.8646	7.26	1.27	0.750			
0.2591	16582.01	3.9820	3.9822	0.8645	7.25	1.26	0.750			
0.2617	16747.53	3.9790	3.9791	0.8700	7.25	1.26	0.750			
0.2643	16914.72	3.9760	3.9760	0.8673	7.24	1.25	0.750			
0.2669	17081.59	3.9730	3.9730	0.8779	7.23	1.24	0.750			
0.2696	17252.52	3.9700	3.9701	0.8887	7.23	1.24	0.750			
0.2722	17422.55	3.9670	3.9669	0.8886	7.22	1.23	0.750			
0.2749	17596.67	3.9640	3.9639	0.8891	7.21	1.22	0.750			
0.2776	17766.03	3.9610	3.9610	0.8901	7.21	1.22	0.750			
0.2802	17935.70	3.9580	3.9581	0.8981	7.20	1.21	0.750			
0.2829	18108.58	3.9550	3.9551	0.9098	7.20	1.21	0.750			
0.2857	18281.95	3.9520	3.9517	0.9086	7.19	1.20	0.750			
0.2884	18460.00	3.9490	3.9490	0.9112	7.18	1.19	0.750			
0.2911	18633.23	3.9460	3.9462	0.9292	7.17	1.18	0.750			
0.2940	18815.34	3.9430	3.9430	0.9319	7.16	1.17	0.750			
0.2968	18995.99	3.9400	3.9398	0.9278	7.15	1.16	0.750			
0.2996	19175.46	3.9370	3.9371	0.9244	7.15	1.16	0.750			
0.3024	19350.76	3.9340	3.9343	0.9302	7.14	1.15	0.750			
0.3052	19530.51	3.9310	3.9309	0.9369	7.14	1.15	0.750			
0.3080	19709.05	3.9280	3.9280	0.9472	7.13	1.14	0.750			
0.3107	19886.21	3.9250	3.9249	0.9517	7.13	1.14	0.750			
0.3137	20074.39	3.9220	3.9221	0.9704	7.11	1.12	0.750			
0.3166	20264.46	3.9190	3.9191	0.9847	7.10	1.11	0.750			
0.3196	20453.87	3.9160	3.9160	0.9950	7.09	1.10	0.750			
0.3226	20645.50	3.9130	3.9127	0.9983	7.07	1.08	0.750			
0.3256	20839.58	3.9100	3.9100	1.0047	7.06	1.07	0.750			
0.3286	21031.67	3.9070	3.9071	1.0118	7.05	1.06	0.750			
0.3317	21226.96	3.9040	3.9041	1.0210	7.04	1.05	0.750			
0.3347	21422.41	3.9010	3.9007	1.0274	7.03	1.04	0.750			
0.3378	21622.23	3.8980	3.8980	1.0342	7.02	1.03	0.750			
0.3409	21819.57	3.8950	3.8951	1.0472	7.01	1.02	0.750			
0.3441	22023.21	3.8920	3.8920	1.0650	7.00	1.01	0.750			
0.3474	22230.75	3.8890	3.8888	1.0737	6.99	1.00	0.750			
0.3506	22435.70	3.8860	3.8861	1.0811	6.98	0.99	0.750			
0.3538	22644.50	3.8830	3.8830	1.0963	6.98	0.99	0.750			
0.3572	22857.68	3.8800	3.8801	1.1080	6.97	0.98	0.750			
0.3605	23072.48	3.8770	3.8768	1.1095	6.96	0.97	0.750			
0.3638	23283.55	3.8740	3.8740	1.1269	6.95	0.96	0.750			
0.3672	23500.27	3.8710	3.8711	1.1470	6.93	0.94	0.750			
0.3707	23722.49	3.8680	3.8680	1.1714	6.92	0.93	0.750			
0.3742	23949.86	3.8650	3.8651	1.1843	6.91	0.92	0.750			
0.3778	24179.85	3.8620	3.8620	1.2052	6.89	0.90	0.750			
0.3815	24414.68	3.8590	3.8591	1.2278	6.88	0.89	0.750			
0.3852	24654.57	3.8560	3.8557	1.2321	6.87	0.88	0.750			
0.3889	24889.21	3.8530	3.8530	1.2509	6.86	0.87	0.750			
0.3927	25131.54	3.8500	3.8501	1.2720	6.85	0.86	0.750			
0.3965	25376.37	3.8470	3.8469	1.3025	6.83	0.84	0.750			
0.4004	25627.88	3.8440	3.8441	1.3494	6.82	0.83	0.750			
0.4045	25889.49	3.8410	3.8409	1.3820	6.81	0.82	0.750			
0.4088	26160.75	3.8380	3.8381	1.4066	6.79	0.80	0.750	0.379	0.898	
0.4132	26442.76	3.8350	3.8351	1.4285	6.78	0.79	0.750			
0.4175	26718.09	3.8320	3.8320	1.4512	6.76	0.77	0.750			
0.4218	26993.42	3.8290	3.8289	1.4594	6.74	0.75	0.750			
0.4261	27271.32	3.8260	3.8262	1.4865	6.73	0.74	0.750			
0.4306	27559.74	3.8230	3.8228	1.5297	6.71	0.72	0.750			
0.4353	27857.65	3.8200	3.8199	1.5516	6.70	0.71	0.750			
0.4400	28160.73	3.8170	3.8170	1.5683	6.68	0.69	0.750			
0.4449	28472.54	3.8140	3.8141	1.6083	6.66	0.67	0.750			
0.4496	28772.34	3.8110	3.8110	1.6290	6.64	0.65	0.750			
0.4545	29088.50	3.8080	3.8078	1.6436	6.63	0.64	0.750			
0.4594	29401.92	3.8050	3.8050	1.6800	6.61	0.62	0.750			
0.4646	29732.94	3.8020	3.8022	1.7132	6.60	0.61	0.750			
0.4697	30061.60	3.7990	3.7992	1.7703	6.58	0.59	0.750			
0.4751	30403.65	3.7960	3.7960	1.7679	6.56	0.57	0.750			
0.4805	30749.80	3.7930	3.7930	1.8056	6.55	0.56	0.750			
0.4860	31102.89	3.7900	3.7902	1.8253	6.53	0.54	0.750			
0.4914	31448.88	3.7870	3.7873	1.8540	6.50	0.51	0.750			
0.4971	31816.95	3.7840	3.7839	1.8687	6.47	0.48	0.750			
0.5029	32186.45	3.7810	3.7808	1.8900	6.45	0.46	0.750			
0.5085	32545.85	3.7780	3.7781	1.9185	6.44	0.45	0.750			
0.5142	32908.54	3.7750	3.7748	1.9492	6.42	0.43	0.750			
0.5201	33286.67	3.7720	3.7722	1.9489	6.40	0.41	0.750			
0.5262	33675.60	3.7690	3.7690	2.0072	6.38	0.39	0.750			
0.5321	34052.51	3.7660	3.7658	2.0148	6.36	0.37	0.750			
0.5382	34441.71	3.7630	3.7632	2.0120	6.34	0.35	0.750			
0.5441	34819.52	3.7600	3.7599	2.0146	6.31	0.32	0.750			
0.5502	35212.73	3.7570	3.7568	2.0414	6.29	0.30	0.750			
0.5564	35610.34	3.7540	3.7540	2.0832	6.28	0.29	0.750			
0.5627	36013.05	3.7510	3.7510	2.1425	6.26	0.27	0.750			
0.5691	36424.89	3.7480	3.7478	2.1940	6.23	0.24	0.750			
0.5759	36856.46	3.7450	3.7454	2.2536	6.21	0.22	0.750			
0.5829	37303.23	3.7420	3.7422	2.3109	6.20	0.21	0.750			
0.5897	37741.98	3.7390	3.7389	2.3962	6.18	0.19	0.750			
0.5970	38208.36	3.7360	3.7359	2.3979	6.15	0.16	0.750			
0.6045	38685.50	3.7330	3.7331	2.4825	6.13	0.14	0.750			
0.6119	39161.16	3.7300	3.7300	2.5256	6.10	0.11	0.750			
0.6196	39651.33	3.7270	3.7271	2.5522	6.08	0.09	0.750			
0.6273	40149.27	3.7240	3.7240	2.4662	6.06	0.07	0.750			
0.6346	40612.14	3.7210	3.7211	2.3770	6.05	0.06	0.750			
0.6416	41063.37	3.7180	3.7179	2.2638	6.04	0.05	0.750			
0.6482	41487.23	3.7150	3.7149	2.0835	6.03	0.04	0.750			
0.6544	41882.47	3.7120	3.7120	1.9353	6.02	0.03	0.750			
0.6598	42229.07	3.7090	3.7088	1.7165	6.01	0.02	0.750			
0.6644	42523.23	3.7060	3.7062	1.4754	6.00	0.01	0.750			
0.6686	42792.10	3.7030	3.7033	1.3415	6.00	0.01	0.750			
0.6724	43033.59	3.7000	3.6997	1.2113	5.99	0.00	0.750			
0.6757	43247.69	3.6970	3.6972	1.0971	5.99	-0.00	0.750			
0.6788	43442.92	3.6940	3.6941	1.0249	5.99	-0.00	0.750			
0.6817	43630.50	3.6910	3.6909	0.9709	5.98	-0.01	0.750			
0.6845	43808.02	3.6880	3.6879	0.9251	5.98	-0.01	0.750			
0.6872	43980.73	3.6850	3.6851	0.8913	5.98	-0.01	0.750			
0.6898	44150.37	3.6820	3.6819	0.8615	5.98	-0.01	0.750			
0.6924	44314.96	3.6790	3.6790	0.8344	5.97	-0.02	0.750			
0.6949	44471.68	3.6760	3.6760	0.7989	5.97	-0.02	0.750			
0.6972	44621.50	3.6730	3.6728	0.7622	5.97	-0.02	0.750			
0.6995	44766.51	3.6700	3.6700	0.7257	5.97	-0.02	0.750			
0.7016	44901.46	3.6670	3.6671	0.6872	5.98	-0.01	0.750			
0.7036	45032.53	3.6640	3.6640	0.6478	5.98	-0.01	0.750			
0.7055	45151.72	3.6610	3.6610	0.6088	5.98	-0.01	0.750			
0.7072	45263.09	3.6580	3.6579	0.5673	5.99	-0.00	0.750			
0.7089	45368.03	3.6550	3.6551	0.5315	5.99	-0.00	0.750			
0.7104	45466.82	3.6520	3.6518	0.4963	5.99	0.00	0.750			
0.7118	45558.37	3.6490	3.6490	0.4625	5.99	0.00	0.750			
0.7132	45643.83	3.6460	3.6460	0.4263	5.99	0.00	0.750			
0.7144	45723.23	3.6430	3.6430	0.3926	6.00	0.01	0.750			
0.7155	45794.65	3.6400	3.6400	0.3542	6.00	0.01	0.750			
0.7166	45859.93	3.6370	3.6372	0.3209	6.00	0.01	0.750			
0.7175	45918.02	3.6340	3.6339	0.2861	6.00	0.01	0.750			
0.7183	45970.91	3.6310	3.6309	0.2495	6.00	0.01	0.750			
0.7190	46015.14	3.6280	3.6279	0.2114	6.00	0.01	0.750			
0.7196	46053.70	3.6250	3.6251	0.1766	6.01	0.02	0.750			
0.7201	46084.02	3.6220	3.6221	0.1358	6.01	0.02	0.750			
0.7204	46106.42	3.6190	3.6192	0.0937	6.01	0.02	0.750			
0.7206	46121.25	3.6160	3.6164	0.0483	6.01	0.02	0.750			
0.7207	46126.11	3.6130	3.6145	0.0023	6.01	0.02	0.750			
