Ah_balance (normalized)	Ah_balance (mAh)	Voltage - fit (V)	Voltage -  interpolate (V)	dQ/dV (1/V)	Temperature (°C)	Temperature - diff (°C)	Current (C)	R_DC 0ms (mOhm)	R_DC 50ms (mOhm)	R_DC 50 ms PEC (mOhm)
0.1840	11774.96	4.0800	4.0800	0.7695	7.23	1.24	0.750			
0.1863	11921.68	4.0770	4.0771	0.7717	7.22	1.23	0.750			
0.1886	12071.24	4.0740	4.0739	0.7786	7.21	1.22	0.750			
0.1910	12221.43	4.0710	4.0710	0.7838	7.20	1.21	0.750			
0.1933	12373.44	4.0680	4.0681	0.7835	7.20	1.21	0.750			
0.1957	12524.30	4.0650	4.0650	0.7842	7.19	1.20	0.750			
0.1981	12677.51	4.0620	4.0620	0.7907	7.18	1.19	0.750			
0.2004	12825.36	4.0590	4.0591	0.7879	7.17	1.18	0.750			
0.2028	12976.44	4.0560	4.0560	0.7900	7.17	1.18	0.750			
0.2051	13129.52	4.0530	4.0530	0.7930	7.16	1.17	0.750			
0.2075	13281.63	4.0500	4.0500	0.7977	7.16	1.17	0.750			
0.2100	13436.92	4.0470	4.0470	0.8054	7.16	1.17	0.750			
0.2124	13590.66	4.0440	4.0440	0.8054	7.15	1.16	0.750			
0.2148	13744.81	4.0410	4.0410	0.8088	7.15	1.16	0.750			
0.2172	13901.98	4.0380	4.0380	0.8091	7.14	1.15	0.750			
0.2196	14056.80	4.0350	4.0350	0.8187	7.14	1.15	0.750			
0.2221	14215.64	4.0320	4.0320	0.8190	7.13	1.14	0.750			
0.2246	14372.06	4.0290	4.0290	0.8213	7.13	1.14	0.750			
0.2271	14531.56	4.0260	4.0259	0.8235	7.12	1.13	0.750			
0.2295	14689.81	4.0230	4.0231	0.8257	7.11	1.12	0.750			
0.2320	14847.28	4.0200	4.0200	0.8241	7.11	1.12	0.750			
0.2345	15005.72	4.0170	4.0171	0.8273	7.10	1.11	0.750			
0.2369	15161.45	4.0140	4.0140	0.8306	7.10	1.11	0.750			
0.2394	15322.91	4.0110	4.0108	0.8413	7.09	1.10	0.750			
0.2420	15486.55	4.0080	4.0081	0.8407	7.08	1.09	0.750			
0.2445	15648.75	4.0050	4.0051	0.8482	7.08	1.09	0.750			
0.2471	15813.76	4.0020	4.0021	0.8532	7.07	1.08	0.750			
0.2496	15976.97	3.9990	3.9990	0.8530	7.07	1.08	0.750			
0.2522	16139.67	3.9960	3.9959	0.8589	7.06	1.07	0.750			
0.2547	16303.79	3.9930	3.9931	0.8676	7.05	1.06	0.750			
0.2574	16472.55	3.9900	3.9900	0.8668	7.05	1.06	0.750			
0.2600	16638.03	3.9870	3.9871	0.8765	7.04	1.05	0.750			
0.2626	16806.23	3.9840	3.9842	0.8789	7.03	1.04	0.750			
0.2652	16975.81	3.9810	3.9813	0.8842	7.03	1.04	0.750			
0.2680	17148.88	3.9780	3.9780	0.8748	7.02	1.03	0.750			
0.2705	17314.72	3.9750	3.9752	0.8817	7.01	1.02	0.750			
0.2732	17484.18	3.9720	3.9721	0.8889	7.00	1.01	0.750			
0.2758	17652.32	3.9690	3.9691	0.8890	6.99	1.00	0.750			
0.2785	17824.69	3.9660	3.9660	0.8973	6.99	1.00	0.750			
0.2812	17998.03	3.9630	3.9631	0.9019	6.98	0.99	0.750			
0.2840	18174.58	3.9600	3.9601	0.9010	6.98	0.99	0.750			
0.2868	18353.47	3.9570	3.9570	0.8684	6.97	0.98	0.750			
0.2893	18512.33	3.9540	3.9529	0.8547	6.97	0.98	0.750			
0.2917	18671.69	3.9510	3.9518	0.8512	6.96	0.97	0.750			
0.2942	18831.24	3.9480	3.9487	0.8550	6.95	0.96	0.750			
0.2968	18994.80	3.9450	3.9450	0.8730	6.95	0.96	0.750			
0.2994	19163.07	3.9420	3.9432	0.8977	6.94	0.95	0.750			
0.3022	19339.98	3.9390	3.9394	0.9236	6.93	0.94	0.750			
0.3050	19520.95	3.9360	3.9368	0.9360	6.92	0.93	0.750			
0.3077	19695.96	3.9330	3.9342	0.9456	6.91	0.92	0.750			
0.3106	19881.42	3.9300	3.9313	0.9733	6.90	0.91	0.750			
0.3136	20073.25	3.9270	3.9277	1.0204	6.89	0.90	0.750			
0.3167	20268.86	3.9240	3.9245	1.0376	6.88	0.89	0.750			
0.3199	20472.73	3.9210	3.9217	1.0418	6.87	0.88	0.750			
0.3231	20680.87	3.9180	3.9183	1.0528	6.86	0.87	0.750			
0.3263	20880.37	3.9150	3.9150	1.0387	6.85	0.86	0.750			
0.3293	21078.05	3.9120	3.9119	1.0203	6.84	0.85	0.750			
0.3323	21267.55	3.9090	3.9090	1.0118	6.83	0.84	0.750			
0.3353	21457.18	3.9060	3.9061	1.0085	6.82	0.83	0.750			
0.3383	21651.38	3.9030	3.9029	1.0224	6.81	0.82	0.750			
0.3414	21850.63	3.9000	3.8999	1.0231	6.80	0.81	0.750			
0.3445	22046.13	3.8970	3.8970	1.0347	6.79	0.80	0.750			
0.3476	22244.70	3.8940	3.8941	1.0523	6.78	0.79	0.750			
0.3508	22449.05	3.8910	3.8909	1.0674	6.77	0.78	0.750			
0.3540	22655.35	3.8880	3.8880	1.0718	6.76	0.77	0.750			
0.3572	22860.48	3.8850	3.8851	1.0899	6.75	0.76	0.750			
0.3605	23070.83	3.8820	3.8821	1.1041	6.74	0.75	0.750			
0.3639	23287.09	3.8790	3.8787	1.1225	6.73	0.74	0.750			
0.3672	23500.97	3.8760	3.8761	1.1344	6.72	0.73	0.750			
0.3706	23720.46	3.8730	3.8730	1.1480	6.71	0.72	0.750			
0.3741	23944.85	3.8700	3.8699	1.1697	6.70	0.71	0.750			
0.3777	24171.62	3.8670	3.8671	1.1662	6.69	0.70	0.750			
0.3812	24395.10	3.8640	3.8640	1.1870	6.68	0.69	0.750			
0.3847	24623.64	3.8610	3.8611	1.2096	6.66	0.67	0.750			
0.3884	24858.67	3.8580	3.8577	1.2203	6.65	0.66	0.750			
0.3921	25091.93	3.8550	3.8551	1.2376	6.64	0.65	0.750			
0.3958	25333.15	3.8520	3.8521	1.2599	6.63	0.64	0.750			
0.3997	25579.55	3.8490	3.8491	1.2660	6.62	0.63	0.750			
0.4035	25822.12	3.8460	3.8460	1.3143	6.60	0.61	0.750			
0.4073	26069.08	3.8430	3.8431	1.3441	6.59	0.60	0.750			
0.4115	26333.07	3.8400	3.8400	1.3834	6.58	0.59	0.750			
0.4157	26606.31	3.8370	3.8372	1.4126	6.57	0.58	0.750	0.419	0.968	
0.4200	26878.97	3.8340	3.8342	1.4391	6.55	0.56	0.750			
0.4244	27162.56	3.8310	3.8312	1.4583	6.54	0.55	0.750			
0.4288	27443.94	3.8280	3.8280	1.4780	6.52	0.53	0.750			
0.4331	27720.81	3.8250	3.8251	1.4817	6.51	0.52	0.750			
0.4376	28009.05	3.8220	3.8220	1.5148	6.50	0.51	0.750			
0.4423	28310.02	3.8190	3.8190	1.5670	6.48	0.49	0.750			
0.4470	28607.01	3.8160	3.8159	1.5920	6.47	0.48	0.750			
0.4518	28918.34	3.8130	3.8129	1.6071	6.45	0.46	0.750			
0.4567	29231.61	3.8100	3.8100	1.6175	6.43	0.44	0.750			
0.4616	29543.74	3.8070	3.8072	1.6615	6.42	0.43	0.750			
0.4665	29858.90	3.8040	3.8040	1.6801	6.40	0.41	0.750			
0.4717	30190.90	3.8010	3.8009	1.7183	6.39	0.40	0.750			
0.4770	30526.33	3.7980	3.7981	1.7583	6.37	0.38	0.750			
0.4822	30861.08	3.7950	3.7951	1.7917	6.35	0.36	0.750			
0.4878	31216.82	3.7920	3.7919	1.8177	6.33	0.34	0.750			
0.4932	31563.43	3.7890	3.7890	1.8653	6.32	0.33	0.750			
0.4989	31930.55	3.7860	3.7864	1.8681	6.30	0.31	0.750			
0.5046	32293.55	3.7830	3.7829	1.8924	6.28	0.29	0.750			
0.5103	32658.98	3.7800	3.7799	1.9159	6.26	0.27	0.750			
0.5162	33035.53	3.7770	3.7770	1.9753	6.24	0.25	0.750			
0.5220	33407.09	3.7740	3.7740	2.0161	6.23	0.24	0.750			
0.5282	33805.88	3.7710	3.7711	2.0231	6.21	0.22	0.750			
0.5343	34193.84	3.7680	3.7681	2.0241	6.19	0.20	0.750			
0.5404	34586.71	3.7650	3.7651	2.0583	6.17	0.18	0.750			
0.5466	34985.60	3.7620	3.7621	2.0973	6.16	0.17	0.750			
0.5530	35388.92	3.7590	3.7590	2.0861	6.15	0.16	0.750			
0.5594	35802.33	3.7560	3.7560	2.1181	6.13	0.14	0.750			
0.5658	36212.43	3.7530	3.7532	2.1768	6.10	0.11	0.750			
0.5722	36623.40	3.7500	3.7500	2.1861	6.08	0.09	0.750			
0.5789	37050.98	3.7470	3.7471	2.2808	6.06	0.07	0.750			
0.5857	37485.80	3.7440	3.7439	2.3304	6.05	0.06	0.750			
0.5928	37939.82	3.7410	3.7411	2.3898	6.03	0.04	0.750			
0.6001	38409.60	3.7380	3.7381	2.4734	6.01	0.02	0.750			
0.6076	38889.38	3.7350	3.7351	2.4944	6.00	0.01	0.750			
0.6153	39379.47	3.7320	3.7320	2.5400	5.99	-0.00	0.750			
0.6230	39874.64	3.7290	3.7288	2.5786	5.98	-0.01	0.750			
0.6308	40372.77	3.7260	3.7258	2.5491	5.96	-0.03	0.750			
0.6386	40871.98	3.7230	3.7230	2.5789	5.95	-0.04	0.750			
0.6465	41375.88	3.7200	3.7199	2.4821	5.94	-0.05	0.750			
0.6536	41828.37	3.7170	3.7170	2.3402	5.93	-0.06	0.750			
0.6604	42265.89	3.7140	3.7139	2.1558	5.92	-0.07	0.750			
0.6668	42674.76	3.7110	3.7111	2.0216	5.92	-0.07	0.750			
0.6725	43037.00	3.7080	3.7081	1.7903	5.91	-0.08	0.750			
0.6775	43363.07	3.7050	3.7050	1.5859	5.91	-0.08	0.750			
0.6817	43630.67	3.7020	3.7021	1.3708	5.91	-0.08	0.750			
0.6856	43880.98	3.6990	3.6991	1.2367	5.91	-0.08	0.750			
0.6890	44096.49	3.6960	3.6957	1.1246	5.91	-0.08	0.750			
0.6921	44297.43	3.6930	3.6931	1.0242	5.91	-0.08	0.750			
0.6950	44481.32	3.6900	3.6899	0.9578	5.92	-0.07	0.750			
0.6977	44654.46	3.6870	3.6871	0.9113	5.92	-0.07	0.750			
0.7003	44822.28	3.6840	3.6841	0.8696	5.93	-0.06	0.750			
0.7030	44989.36	3.6810	3.6809	0.8345	5.93	-0.06	0.750			
0.7054	45147.39	3.6780	3.6780	0.7981	5.94	-0.05	0.750			
0.7078	45297.52	3.6750	3.6752	0.7544	5.94	-0.05	0.750			
0.7100	45440.54	3.6720	3.6720	0.7179	5.94	-0.05	0.750			
0.7121	45571.36	3.6690	3.6690	0.6742	5.95	-0.04	0.750			
0.7140	45696.67	3.6660	3.6657	0.6338	5.95	-0.04	0.750			
0.7158	45813.72	3.6630	3.6631	0.5932	5.96	-0.03	0.750			
0.7176	45925.76	3.6600	3.6601	0.5595	5.96	-0.03	0.750			
0.7192	46030.10	3.6570	3.6570	0.5195	5.97	-0.02	0.750			
0.7207	46126.14	3.6540	3.6539	0.4812	5.97	-0.02	0.750			
0.7221	46212.02	3.6510	3.6510	0.4386	5.98	-0.01	0.750			
0.7233	46293.30	3.6480	3.6479	0.3998	5.98	-0.01	0.750			
0.7245	46367.11	3.6450	3.6450	0.3638	5.98	-0.01	0.750			
0.7255	46432.77	3.6420	3.6420	0.3285	5.99	-0.00	0.750			
0.7264	46492.12	3.6390	3.6390	0.2921	5.99	-0.00	0.750			
0.7273	46545.24	3.6360	3.6359	0.2576	5.99	0.00	0.750			
0.7280	46590.98	3.6330	3.6332	0.2189	5.99	0.00	0.750			
0.7286	46630.21	3.6300	3.6299	0.1846	6.00	0.01	0.750			
0.7291	46664.03	3.6270	3.6268	0.1511	6.00	0.01	0.750			
0.7295	46687.81	3.6240	3.6242	0.1098	6.00	0.01	0.750			
0.7297	46703.76	3.6210	3.6216	0.0725	6.00	0.01	0.750			
0.7299	46715.92	3.6180	3.6181	0.0321	6.00	0.01	0.750			
0.7300	46718.21	3.6150	3.6157	-0.0082	6.00	0.01	0.750			
