Ah_balance (normalized)	Ah_balance (mAh)	Voltage - fit (V)	Voltage -  interpolate (V)	dQ/dV (1/V)	Temperature (°C)	Temperature - diff (°C)	Current (C)	R_DC 0ms (mOhm)	R_DC 50ms (mOhm)	R_DC 50 ms PEC (mOhm)
0.1746	11172.38	4.0820	4.0820	0.8075	7.90	1.91	0.750			
0.1769	11324.22	4.0790	4.0790	0.7837	7.90	1.91	0.750			
0.1793	11474.17	4.0760	4.0760	0.7798	7.89	1.90	0.750			
0.1816	11623.57	4.0730	4.0731	0.7766	7.89	1.90	0.750			
0.1839	11771.18	4.0700	4.0699	0.7768	7.89	1.90	0.750			
0.1863	11920.07	4.0670	4.0670	0.7807	7.89	1.90	0.750			
0.1886	12068.89	4.0640	4.0640	0.7799	7.89	1.90	0.750			
0.1909	12219.63	4.0610	4.0610	0.7835	7.88	1.89	0.750			
0.1933	12369.75	4.0580	4.0581	0.7874	7.88	1.89	0.750			
0.1956	12521.59	4.0550	4.0549	0.7966	7.88	1.89	0.750			
0.1981	12676.11	4.0520	4.0520	0.7981	7.87	1.88	0.750			
0.2005	12830.71	4.0490	4.0489	0.7929	7.87	1.88	0.750			
0.2029	12983.25	4.0460	4.0461	0.7961	7.86	1.87	0.750			
0.2052	13135.13	4.0430	4.0431	0.8041	7.86	1.87	0.750			
0.2076	13287.98	4.0400	4.0399	0.8079	7.85	1.86	0.750			
0.2101	13443.29	4.0370	4.0370	0.8108	7.85	1.86	0.750			
0.2125	13599.11	4.0340	4.0340	0.8141	7.84	1.85	0.750			
0.2150	13757.50	4.0310	4.0311	0.8232	7.84	1.85	0.750			
0.2175	13918.30	4.0280	4.0280	0.8278	7.84	1.85	0.750			
0.2199	14076.40	4.0250	4.0249	0.8243	7.83	1.84	0.750			
0.2224	14233.58	4.0220	4.0220	0.8243	7.83	1.84	0.750			
0.2249	14391.37	4.0190	4.0191	0.8271	7.82	1.83	0.750			
0.2274	14550.73	4.0160	4.0160	0.8305	7.82	1.83	0.750			
0.2299	14710.95	4.0130	4.0129	0.8325	7.82	1.83	0.750			
0.2323	14870.15	4.0100	4.0100	0.8321	7.81	1.82	0.750			
0.2349	15030.46	4.0070	4.0070	0.8373	7.81	1.82	0.750			
0.2374	15192.94	4.0040	4.0040	0.8369	7.80	1.81	0.750			
0.2399	15351.56	4.0010	4.0010	0.8432	7.79	1.80	0.750			
0.2424	15513.03	3.9980	3.9980	0.8463	7.78	1.79	0.750			
0.2449	15675.74	3.9950	3.9950	0.8516	7.77	1.78	0.750			
0.2475	15839.91	3.9920	3.9920	0.8602	7.77	1.78	0.750			
0.2501	16007.27	3.9890	3.9892	0.8622	7.76	1.77	0.750			
0.2527	16172.79	3.9860	3.9860	0.8670	7.76	1.77	0.750			
0.2553	16340.43	3.9830	3.9830	0.8669	7.76	1.77	0.750			
0.2579	16507.03	3.9800	3.9799	0.8689	7.75	1.76	0.750			
0.2605	16673.62	3.9770	3.9770	0.8731	7.74	1.75	0.750			
0.2631	16840.09	3.9740	3.9740	0.8727	7.74	1.75	0.750			
0.2657	17006.17	3.9710	3.9710	0.8809	7.73	1.74	0.750			
0.2684	17175.74	3.9680	3.9680	0.8884	7.72	1.73	0.750			
0.2710	17347.09	3.9650	3.9646	0.9002	7.71	1.72	0.750			
0.2738	17524.07	3.9620	3.9621	0.9049	7.70	1.71	0.750			
0.2765	17698.60	3.9590	3.9590	0.9103	7.69	1.70	0.750			
0.2793	17875.44	3.9560	3.9560	0.9159	7.68	1.69	0.750			
0.2820	18049.10	3.9530	3.9532	0.9148	7.67	1.68	0.750			
0.2848	18225.50	3.9500	3.9500	0.9263	7.67	1.68	0.750			
0.2876	18404.76	3.9470	3.9469	0.9241	7.66	1.67	0.750			
0.2903	18581.56	3.9440	3.9442	0.9331	7.65	1.66	0.750			
0.2932	18763.76	3.9410	3.9410	0.9434	7.65	1.66	0.750			
0.2960	18942.89	3.9380	3.9375	0.9427	7.64	1.65	0.750			
0.2988	19125.71	3.9350	3.9351	0.9391	7.63	1.64	0.750			
0.3016	19304.12	3.9320	3.9321	0.9490	7.62	1.63	0.750			
0.3045	19487.42	3.9290	3.9290	0.9593	7.61	1.62	0.750			
0.3074	19671.06	3.9260	3.9260	0.9626	7.59	1.60	0.750			
0.3103	19858.30	3.9230	3.9231	0.9710	7.58	1.59	0.750			
0.3132	20046.99	3.9200	3.9200	0.9831	7.57	1.58	0.750			
0.3162	20237.36	3.9170	3.9171	0.9913	7.57	1.58	0.750			
0.3192	20429.55	3.9140	3.9140	1.0042	7.56	1.57	0.750			
0.3222	20619.88	3.9110	3.9110	1.0040	7.54	1.55	0.750			
0.3252	20814.38	3.9080	3.9080	1.0178	7.53	1.54	0.750			
0.3283	21010.83	3.9050	3.9050	1.0230	7.51	1.52	0.750			
0.3314	21208.22	3.9020	3.9020	1.0325	7.50	1.51	0.750			
0.3345	21409.69	3.8990	3.8990	1.0304	7.49	1.50	0.750			
0.3376	21605.32	3.8960	3.8959	1.0432	7.48	1.49	0.750			
0.3407	21803.43	3.8930	3.8931	1.0552	7.47	1.48	0.750			
0.3439	22007.86	3.8900	3.8900	1.0740	7.46	1.47	0.750			
0.3471	22215.77	3.8870	3.8869	1.0821	7.44	1.45	0.750			
0.3504	22426.34	3.8840	3.8841	1.1005	7.43	1.44	0.750			
0.3537	22637.68	3.8810	3.8811	1.1195	7.41	1.42	0.750			
0.3571	22856.19	3.8780	3.8780	1.1346	7.40	1.41	0.750			
0.3605	23073.51	3.8750	3.8750	1.1425	7.38	1.39	0.750			
0.3640	23294.10	3.8720	3.8720	1.1568	7.37	1.38	0.750			
0.3675	23519.40	3.8690	3.8691	1.1686	7.35	1.36	0.750			
0.3710	23746.83	3.8660	3.8660	1.1758	7.34	1.35	0.750			
0.3746	23971.84	3.8630	3.8631	1.1900	7.33	1.34	0.750			
0.3781	24197.98	3.8600	3.8600	1.2026	7.31	1.32	0.750			
0.3818	24433.82	3.8570	3.8569	1.2191	7.30	1.31	0.750			
0.3854	24667.29	3.8540	3.8540	1.2410	7.28	1.29	0.750			
0.3892	24906.45	3.8510	3.8511	1.2675	7.26	1.27	0.750			
0.3930	25153.60	3.8480	3.8480	1.2919	7.24	1.25	0.750			
0.3969	25401.22	3.8450	3.8449	1.3337	7.23	1.24	0.750			
0.4012	25678.50	3.8420	3.8418	1.2585	7.20	1.21	0.750			
0.4047	25900.11	3.8390	3.8393	1.3293	7.19	1.20	0.750			
0.4086	26151.46	3.8360	3.8365	1.4036	7.17	1.18	0.750	0.401	0.888	
0.4129	26427.61	3.8330	3.8337	1.4615	7.15	1.16	0.750			
0.4173	26709.62	3.8300	3.8307	1.4763	7.13	1.14	0.750			
0.4225	27042.16	3.8270	3.8272	1.7949	7.10	1.11	0.750			
0.4271	27337.55	3.8240	3.8240	1.6314	7.08	1.09	0.750			
0.4313	27605.67	3.8210	3.8210	1.4942	7.06	1.07	0.750			
0.4359	27894.70	3.8180	3.8180	1.5356	7.04	1.05	0.750			
0.4405	28190.89	3.8150	3.8149	1.5865	7.02	1.03	0.750			
0.4454	28506.85	3.8120	3.8119	1.6220	6.99	1.00	0.750			
0.4504	28823.59	3.8090	3.8091	1.6367	6.97	0.98	0.750			
0.4553	29136.66	3.8060	3.8062	1.6768	6.95	0.96	0.750			
0.4603	29457.84	3.8030	3.8028	1.6984	6.92	0.93	0.750			
0.4654	29787.61	3.8000	3.7999	1.7383	6.90	0.91	0.750			
0.4708	30130.30	3.7970	3.7968	1.7712	6.87	0.88	0.750			
0.4761	30473.40	3.7940	3.7941	1.7947	6.84	0.85	0.750			
0.4816	30825.14	3.7910	3.7909	1.8458	6.82	0.83	0.750			
0.4872	31181.39	3.7880	3.7879	1.8694	6.79	0.80	0.750			
0.4929	31543.06	3.7850	3.7850	1.8855	6.76	0.77	0.750			
0.4986	31912.18	3.7820	3.7820	1.9130	6.73	0.74	0.750			
0.5044	32281.84	3.7790	3.7791	1.9234	6.70	0.71	0.750			
0.5102	32653.93	3.7760	3.7760	1.9429	6.67	0.68	0.750			
0.5161	33030.13	3.7730	3.7730	1.9641	6.64	0.65	0.750			
0.5221	33411.75	3.7700	3.7699	2.0095	6.61	0.62	0.750			
0.5281	33801.55	3.7670	3.7668	2.0354	6.58	0.59	0.750			
0.5343	34197.63	3.7640	3.7643	2.0512	6.55	0.56	0.750			
0.5405	34589.49	3.7610	3.7610	2.0651	6.52	0.53	0.750			
0.5467	34987.85	3.7580	3.7580	2.0856	6.49	0.50	0.750			
0.5530	35393.49	3.7550	3.7550	2.1457	6.46	0.47	0.750			
0.5594	35803.80	3.7520	3.7520	2.1760	6.44	0.45	0.750			
0.5661	36228.26	3.7490	3.7490	2.2713	6.41	0.42	0.750			
0.5730	36672.79	3.7460	3.7459	2.3130	6.38	0.39	0.750			
0.5800	37120.38	3.7430	3.7431	2.3524	6.35	0.36	0.750			
0.5872	37579.51	3.7400	3.7398	2.4434	6.31	0.32	0.750			
0.5945	38049.45	3.7370	3.7369	2.4920	6.28	0.29	0.750			
0.6023	38546.61	3.7340	3.7339	2.5451	6.24	0.25	0.750			
0.6098	39029.06	3.7310	3.7309	2.5528	6.21	0.22	0.750			
0.6174	39516.31	3.7280	3.7279	2.5910	6.18	0.19	0.750			
0.6255	40029.52	3.7250	3.7251	2.5997	6.16	0.17	0.750			
0.6332	40527.58	3.7220	3.7221	2.5185	6.13	0.14	0.750			
0.6405	40991.52	3.7190	3.7187	2.3652	6.11	0.12	0.750			
0.6475	41437.09	3.7160	3.7159	2.2315	6.09	0.10	0.750			
0.6541	41860.15	3.7130	3.7130	2.0673	6.06	0.07	0.750			
0.6597	42222.66	3.7100	3.7102	1.8058	6.05	0.06	0.750			
0.6647	42538.31	3.7070	3.7070	1.6079	6.04	0.05	0.750			
0.6691	42824.32	3.7040	3.7041	1.4368	6.03	0.04	0.750			
0.6732	43087.98	3.7010	3.7009	1.3060	6.03	0.04	0.750			
0.6769	43319.71	3.6980	3.6980	1.1824	6.02	0.03	0.750			
0.6801	43525.97	3.6950	3.6952	1.0897	6.02	0.03	0.750			
0.6832	43726.10	3.6920	3.6917	1.0178	6.01	0.02	0.750			
0.6861	43907.71	3.6890	3.6889	0.9520	6.01	0.02	0.750			
0.6888	44081.97	3.6860	3.6861	0.9075	6.00	0.01	0.750			
0.6915	44253.42	3.6830	3.6831	0.8779	6.00	0.01	0.750			
0.6941	44419.99	3.6800	3.6799	0.8462	5.99	0.00	0.750			
0.6965	44576.74	3.6770	3.6770	0.8094	5.99	-0.00	0.750			
0.6989	44728.55	3.6740	3.6740	0.7801	5.99	-0.00	0.750			
0.7012	44878.47	3.6710	3.6710	0.7480	5.99	-0.00	0.750			
0.7034	45019.30	3.6680	3.6679	0.7089	5.98	-0.01	0.750			
0.7055	45151.62	3.6650	3.6651	0.6694	5.98	-0.01	0.750			
0.7074	45276.47	3.6620	3.6621	0.6305	5.98	-0.01	0.750			
0.7093	45393.55	3.6590	3.6590	0.5917	5.98	-0.01	0.750			
0.7110	45501.46	3.6560	3.6560	0.5520	5.98	-0.01	0.750			
0.7126	45603.54	3.6530	3.6531	0.5157	5.98	-0.01	0.750			
0.7141	45701.15	3.6500	3.6500	0.4855	5.98	-0.01	0.750			
0.7155	45791.16	3.6470	3.6469	0.4474	5.99	-0.00	0.750			
0.7168	45873.64	3.6440	3.6440	0.4088	5.99	-0.00	0.750			
0.7179	45948.77	3.6410	3.6411	0.3701	5.99	-0.00	0.750			
0.7190	46015.46	3.6380	3.6381	0.3347	5.99	-0.00	0.750			
0.7199	46075.14	3.6350	3.6350	0.2971	5.99	-0.00	0.750			
0.7208	46129.04	3.6320	3.6318	0.2635	5.99	-0.00	0.750			
0.7215	46176.81	3.6290	3.6290	0.2234	5.99	0.00	0.750			
0.7221	46216.52	3.6260	3.6260	0.1872	5.99	0.00	0.750			
0.7227	46251.51	3.6230	3.6231	0.1530	5.99	0.00	0.750			
0.7231	46277.85	3.6200	3.6201	0.1120	5.99	0.00	0.750			
0.7234	46294.71	3.6170	3.6173	0.0692	5.99	0.00	0.750			
0.7235	46305.04	3.6110	3.6138	-0.0234	5.99	0.00	0.750			
0.7235	46305.10	3.6140	3.6137	0.0227	5.99	0.00	0.750			
