Ah_balance (normalized)	Ah_balance (mAh)	Voltage - fit (V)	Voltage -  interpolate (V)	dQ/dV (1/V)	Temperature (°C)	Temperature - diff (°C)	Current (C)	R_DC 0ms (mOhm)	R_DC 50ms (mOhm)	R_DC 50 ms PEC (mOhm)
0.1800	11519.71	4.0810	4.0810	0.7709	7.54	1.55	0.750			
0.1823	11666.73	4.0780	4.0780	0.7680	7.53	1.54	0.750			
0.1846	11814.60	4.0750	4.0751	0.7708	7.52	1.53	0.750			
0.1869	11962.87	4.0720	4.0719	0.7726	7.52	1.53	0.750			
0.1893	12112.21	4.0690	4.0690	0.7746	7.51	1.52	0.750			
0.1916	12259.56	4.0660	4.0661	0.7754	7.50	1.51	0.750			
0.1939	12408.72	4.0630	4.0630	0.7819	7.49	1.50	0.750			
0.1962	12559.75	4.0600	4.0600	0.7842	7.49	1.50	0.750			
0.1986	12709.57	4.0570	4.0569	0.7852	7.48	1.49	0.750			
0.2010	12861.22	4.0540	4.0540	0.7886	7.47	1.48	0.750			
0.2033	13013.65	4.0510	4.0511	0.7923	7.46	1.47	0.750			
0.2057	13167.84	4.0480	4.0479	0.7866	7.46	1.47	0.750			
0.2081	13316.82	4.0450	4.0451	0.7926	7.45	1.46	0.750			
0.2104	13468.07	4.0420	4.0421	0.8016	7.44	1.45	0.750			
0.2129	13622.74	4.0390	4.0390	0.8087	7.43	1.44	0.750			
0.2153	13779.65	4.0360	4.0362	0.8098	7.42	1.43	0.750			
0.2178	13937.06	4.0330	4.0331	0.8133	7.42	1.43	0.750			
0.2202	14093.36	4.0300	4.0301	0.8154	7.41	1.42	0.750			
0.2227	14250.55	4.0270	4.0270	0.8205	7.40	1.41	0.750			
0.2251	14405.05	4.0240	4.0240	0.8162	7.39	1.40	0.750			
0.2275	14561.80	4.0210	4.0210	0.8186	7.38	1.39	0.750			
0.2300	14721.29	4.0180	4.0180	0.8235	7.37	1.38	0.750			
0.2325	14880.19	4.0150	4.0150	0.8287	7.37	1.38	0.750			
0.2350	15039.19	4.0120	4.0120	0.8325	7.36	1.37	0.750			
0.2375	15197.94	4.0090	4.0091	0.8355	7.35	1.36	0.750			
0.2400	15358.77	4.0060	4.0061	0.8402	7.35	1.36	0.750			
0.2425	15521.56	4.0030	4.0030	0.8429	7.34	1.35	0.750			
0.2451	15684.40	4.0000	4.0000	0.8462	7.33	1.34	0.750			
0.2476	15846.62	3.9970	3.9970	0.8488	7.32	1.33	0.750			
0.2501	16009.22	3.9940	3.9941	0.8522	7.31	1.32	0.750			
0.2527	16172.45	3.9910	3.9910	0.8590	7.31	1.32	0.750			
0.2553	16338.14	3.9880	3.9879	0.8611	7.30	1.31	0.750			
0.2579	16505.17	3.9850	3.9850	0.8637	7.29	1.30	0.750			
0.2605	16673.10	3.9820	3.9821	0.8684	7.28	1.29	0.750			
0.2631	16838.27	3.9790	3.9790	0.8686	7.27	1.28	0.750			
0.2657	17004.67	3.9760	3.9759	0.8706	7.26	1.27	0.750			
0.2683	17169.88	3.9730	3.9730	0.8713	7.26	1.27	0.750			
0.2709	17337.54	3.9700	3.9700	0.8758	7.25	1.26	0.750			
0.2736	17507.71	3.9670	3.9670	0.8868	7.24	1.25	0.750			
0.2762	17678.38	3.9640	3.9639	0.8925	7.23	1.24	0.750			
0.2789	17851.59	3.9610	3.9610	0.8919	7.23	1.24	0.750			
0.2816	18020.96	3.9580	3.9581	0.9005	7.22	1.23	0.750			
0.2843	18193.96	3.9550	3.9550	0.9077	7.22	1.23	0.750			
0.2870	18369.39	3.9520	3.9520	0.9142	7.21	1.22	0.750			
0.2898	18545.66	3.9490	3.9489	0.9182	7.21	1.22	0.750			
0.2925	18721.67	3.9460	3.9462	0.9204	7.20	1.21	0.750			
0.2953	18899.64	3.9430	3.9430	0.9298	7.19	1.20	0.750			
0.2981	19079.63	3.9400	3.9400	0.9356	7.18	1.19	0.750			
0.3009	19258.07	3.9370	3.9368	0.9359	7.17	1.18	0.750			
0.3037	19439.23	3.9340	3.9341	0.9424	7.17	1.18	0.750			
0.3066	19621.29	3.9310	3.9310	0.9499	7.16	1.17	0.750			
0.3094	19803.94	3.9280	3.9280	0.9601	7.16	1.17	0.750			
0.3123	19986.25	3.9250	3.9250	0.9628	7.15	1.16	0.750			
0.3152	20174.85	3.9220	3.9220	0.9694	7.15	1.16	0.750			
0.3182	20361.71	3.9190	3.9190	0.9799	7.14	1.15	0.750			
0.3211	20550.52	3.9160	3.9161	0.9867	7.13	1.14	0.750			
0.3241	20741.42	3.9130	3.9130	0.9963	7.12	1.13	0.750			
0.3271	20933.75	3.9100	3.9100	0.9987	7.11	1.12	0.750			
0.3301	21124.04	3.9070	3.9070	1.0071	7.10	1.11	0.750			
0.3331	21316.65	3.9040	3.9040	1.0223	7.09	1.10	0.750			
0.3362	21515.91	3.9010	3.9010	1.0398	7.08	1.09	0.750			
0.3393	21716.38	3.8980	3.8978	1.0471	7.07	1.08	0.750			
0.3425	21919.68	3.8950	3.8951	1.0609	7.06	1.07	0.750			
0.3457	22125.28	3.8920	3.8920	1.0731	7.05	1.06	0.750			
0.3489	22332.77	3.8890	3.8890	1.0855	7.04	1.05	0.750			
0.3522	22542.00	3.8860	3.8860	1.0823	7.03	1.04	0.750			
0.3555	22749.57	3.8830	3.8831	1.0954	7.02	1.03	0.750			
0.3588	22961.20	3.8800	3.8800	1.1121	7.01	1.02	0.750			
0.3621	23175.15	3.8770	3.8771	1.1300	7.00	1.01	0.750			
0.3655	23392.55	3.8740	3.8740	1.1460	6.99	1.00	0.750			
0.3690	23613.90	3.8710	3.8711	1.1629	6.97	0.98	0.750			
0.3725	23840.58	3.8680	3.8680	1.1821	6.96	0.97	0.750			
0.3761	24073.47	3.8650	3.8649	1.1978	6.95	0.96	0.750			
0.3797	24302.01	3.8620	3.8621	1.2079	6.94	0.95	0.750			
0.3834	24534.66	3.8590	3.8591	1.2206	6.93	0.94	0.750			
0.3871	24772.44	3.8560	3.8559	1.2276	6.92	0.93	0.750			
0.3908	25008.47	3.8530	3.8530	1.2436	6.90	0.91	0.750			
0.3944	25241.06	3.8500	3.8501	1.2793	6.89	0.90	0.750			
0.3983	25491.19	3.8470	3.8470	1.3105	6.88	0.89	0.750			
0.4023	25748.45	3.8440	3.8438	1.3474	6.87	0.88	0.750	0.403	0.901	
0.4064	26010.68	3.8410	3.8413	1.3732	6.85	0.86	0.750			
0.4107	26282.99	3.8380	3.8381	1.4004	6.84	0.85	0.750			
0.4149	26555.41	3.8350	3.8350	1.4304	6.83	0.84	0.750			
0.4192	26829.98	3.8320	3.8319	1.4165	6.81	0.82	0.750			
0.4235	27101.13	3.8290	3.8290	1.4370	6.80	0.81	0.750			
0.4278	27377.75	3.8260	3.8261	1.4712	6.78	0.79	0.750			
0.4322	27660.84	3.8230	3.8230	1.4975	6.77	0.78	0.750			
0.4367	27951.67	3.8200	3.8201	1.5383	6.75	0.76	0.750			
0.4414	28251.39	3.8170	3.8170	1.5669	6.73	0.74	0.750			
0.4462	28556.60	3.8140	3.8140	1.6222	6.71	0.72	0.750			
0.4511	28873.53	3.8110	3.8109	1.6481	6.69	0.70	0.750			
0.4562	29198.04	3.8080	3.8080	1.6677	6.67	0.68	0.750			
0.4612	29518.08	3.8050	3.8052	1.6994	6.66	0.67	0.750			
0.4663	29846.24	3.8020	3.8021	1.6956	6.64	0.65	0.750			
0.4714	30168.78	3.7990	3.7989	1.7208	6.61	0.62	0.750			
0.4765	30498.74	3.7960	3.7958	1.7278	6.59	0.60	0.750			
0.4817	30831.96	3.7930	3.7930	1.7631	6.56	0.57	0.750			
0.4871	31175.55	3.7900	3.7901	1.8190	6.54	0.55	0.750			
0.4927	31533.13	3.7870	3.7869	1.8395	6.52	0.53	0.750			
0.4982	31886.17	3.7840	3.7841	1.8430	6.50	0.51	0.750			
0.5039	32247.83	3.7810	3.7809	1.8773	6.48	0.49	0.750			
0.5094	32603.03	3.7780	3.7780	1.8754	6.45	0.46	0.750			
0.5150	32960.24	3.7750	3.7750	1.8922	6.43	0.44	0.750			
0.5208	33332.43	3.7720	3.7718	1.9027	6.41	0.42	0.750			
0.5265	33693.34	3.7690	3.7690	1.9196	6.39	0.40	0.750			
0.5322	34060.89	3.7660	3.7660	1.9431	6.36	0.37	0.750			
0.5381	34439.64	3.7630	3.7631	1.9793	6.33	0.34	0.750			
0.5441	34823.55	3.7600	3.7599	2.0059	6.31	0.32	0.750			
0.5505	35233.86	3.7570	3.7567	1.9310	6.27	0.28	0.750			
0.5562	35597.41	3.7540	3.7539	1.8305	6.25	0.26	0.750			
0.5610	35904.63	3.7510	3.7516	1.7392	6.24	0.25	0.750			
0.5662	36235.31	3.7480	3.7476	1.8078	6.22	0.23	0.750			
0.5712	36555.97	3.7450	3.7448	2.0243	6.20	0.21	0.750			
0.5777	36969.96	3.7420	3.7418	2.1442	6.18	0.19	0.750			
0.5847	37421.15	3.7390	3.7392	2.2944	6.15	0.16	0.750			
0.5916	37862.42	3.7360	3.7358	2.3022	6.12	0.13	0.750			
0.5982	38286.83	3.7330	3.7330	2.3041	6.10	0.11	0.750			
0.6054	38742.49	3.7300	3.7299	2.4501	6.08	0.09	0.750			
0.6128	39219.64	3.7270	3.7270	2.4031	6.07	0.08	0.750			
0.6203	39698.15	3.7240	3.7244	2.3835	6.05	0.06	0.750			
0.6271	40137.39	3.7210	3.7208	2.2595	6.03	0.04	0.750			
0.6336	40551.75	3.7180	3.7184	2.1391	6.02	0.03	0.750			
0.6400	40960.83	3.7150	3.7147	1.9990	6.01	0.02	0.750			
0.6458	41332.64	3.7120	3.7120	1.8031	6.00	0.01	0.750			
0.6510	41663.08	3.7090	3.7088	1.6134	6.00	0.01	0.750			
0.6556	41955.77	3.7060	3.7061	1.4569	6.00	0.01	0.750			
0.6595	42208.65	3.7030	3.7030	1.2916	5.99	0.00	0.750			
0.6630	42434.81	3.7000	3.6998	1.1695	5.99	0.00	0.750			
0.6664	42651.37	3.6970	3.6971	1.0896	5.99	-0.00	0.750			
0.6695	42845.87	3.6940	3.6940	1.0184	5.98	-0.01	0.750			
0.6724	43031.65	3.6910	3.6909	0.9697	5.98	-0.01	0.750			
0.6751	43207.12	3.6880	3.6880	0.9177	5.97	-0.02	0.750			
0.6778	43381.94	3.6850	3.6850	0.8892	5.97	-0.02	0.750			
0.6805	43552.06	3.6820	3.6820	0.8565	5.96	-0.03	0.750			
0.6830	43712.96	3.6790	3.6791	0.8317	5.96	-0.03	0.750			
0.6855	43870.09	3.6760	3.6760	0.8036	5.96	-0.03	0.750			
0.6878	44020.34	3.6730	3.6730	0.7716	5.95	-0.04	0.750			
0.6901	44166.27	3.6700	3.6701	0.7402	5.95	-0.04	0.750			
0.6923	44305.46	3.6670	3.6671	0.7089	5.96	-0.03	0.750			
0.6944	44440.48	3.6640	3.6639	0.6772	5.96	-0.03	0.750			
0.6964	44567.49	3.6610	3.6609	0.6441	5.96	-0.03	0.750			
0.6982	44684.91	3.6580	3.6581	0.6069	5.96	-0.03	0.750			
0.7000	44798.51	3.6550	3.6550	0.5763	5.97	-0.02	0.750			
0.7017	44906.65	3.6520	3.6520	0.5451	5.97	-0.02	0.750			
0.7033	45009.35	3.6490	3.6490	0.5136	5.97	-0.02	0.750			
0.7048	45104.24	3.6460	3.6460	0.4810	5.98	-0.01	0.750			
0.7061	45193.47	3.6430	3.6430	0.4492	5.98	-0.01	0.750			
0.7074	45276.35	3.6400	3.6401	0.4135	5.98	-0.01	0.750			
0.7086	45352.78	3.6370	3.6369	0.3803	5.98	-0.01	0.750			
0.7097	45422.97	3.6340	3.6341	0.3470	5.98	-0.01	0.750			
0.7107	45486.70	3.6310	3.6310	0.3120	5.98	-0.01	0.750			
0.7116	45543.83	3.6280	3.6280	0.2775	5.99	-0.00	0.750			
0.7124	45594.13	3.6250	3.6249	0.2374	5.99	-0.00	0.750			
0.7131	45636.18	3.6220	3.6220	0.1986	5.99	-0.00	0.750			
0.7136	45671.42	3.6190	3.6190	0.1598	5.99	-0.00	0.750			
0.7140	45698.14	3.6160	3.6165	0.1176	5.99	0.00	0.750			
0.7143	45717.12	3.6130	3.6134	0.0749	5.99	0.00	0.750			
0.7145	45727.37	3.6100	3.6100	0.0314	5.99	0.00	0.750			
0.7145	45729.22	3.6070	3.6092	-0.0122	5.99	0.00	0.750			
