Ah_balance (normalized)	Ah_balance (mAh)	Voltage - fit (V)	Voltage -  interpolate (V)	dQ/dV (1/V)	Temperature (°C)	Temperature - diff (°C)	Current (C)	R_DC 0ms (mOhm)	R_DC 50ms (mOhm)	R_DC 50 ms PEC (mOhm)
0.1592	10191.89	4.0730	4.0730	0.8021	7.27	1.28	0.750			
0.1616	10342.66	4.0700	4.0701	0.7927	7.27	1.28	0.750			
0.1640	10494.71	4.0670	4.0671	0.7982	7.27	1.28	0.750			
0.1664	10648.76	4.0640	4.0637	0.8041	7.27	1.28	0.750			
0.1688	10802.23	4.0610	4.0610	0.8093	7.27	1.28	0.750			
0.1712	10959.84	4.0580	4.0580	0.8048	7.27	1.28	0.750			
0.1737	11116.11	4.0550	4.0550	0.8122	7.27	1.28	0.750			
0.1761	11269.58	4.0520	4.0521	0.8126	7.27	1.28	0.750			
0.1785	11425.69	4.0490	4.0488	0.8219	7.27	1.28	0.750			
0.1810	11583.55	4.0460	4.0460	0.8254	7.27	1.28	0.750			
0.1835	11744.86	4.0430	4.0429	0.8238	7.26	1.27	0.750			
0.1860	11904.92	4.0400	4.0401	0.8308	7.26	1.27	0.750			
0.1885	12065.16	4.0370	4.0371	0.8259	7.25	1.26	0.750			
0.1910	12222.15	4.0340	4.0337	0.8263	7.25	1.26	0.750			
0.1934	12378.24	4.0310	4.0311	0.8235	7.25	1.26	0.750			
0.1959	12537.56	4.0280	4.0280	0.8256	7.25	1.26	0.750			
0.1984	12697.39	4.0250	4.0250	0.8378	7.24	1.25	0.750			
0.2009	12858.25	4.0220	4.0221	0.8367	7.24	1.25	0.750			
0.2034	13019.32	4.0190	4.0189	0.8425	7.24	1.25	0.750			
0.2060	13182.33	4.0160	4.0161	0.8529	7.24	1.25	0.750			
0.2086	13347.45	4.0130	4.0130	0.8528	7.24	1.25	0.750			
0.2111	13512.87	4.0100	4.0099	0.8557	7.23	1.24	0.750			
0.2137	13676.10	4.0070	4.0071	0.8545	7.23	1.24	0.750			
0.2162	13839.58	4.0040	4.0039	0.8598	7.23	1.24	0.750			
0.2189	14006.75	4.0010	4.0009	0.8610	7.23	1.24	0.750			
0.2214	14171.76	3.9980	3.9979	0.8602	7.22	1.23	0.750			
0.2240	14335.12	3.9950	3.9951	0.8668	7.22	1.23	0.750			
0.2266	14502.67	3.9920	3.9921	0.8725	7.21	1.22	0.750			
0.2292	14671.52	3.9890	3.9890	0.8778	7.21	1.22	0.750			
0.2319	14840.20	3.9860	3.9861	0.8801	7.21	1.22	0.750			
0.2345	15010.64	3.9830	3.9830	0.8794	7.20	1.21	0.750			
0.2372	15181.15	3.9800	3.9799	0.8823	7.20	1.21	0.750			
0.2398	15348.78	3.9770	3.9771	0.8822	7.19	1.20	0.750			
0.2424	15516.21	3.9740	3.9740	0.8833	7.19	1.20	0.750			
0.2451	15686.61	3.9710	3.9709	0.8872	7.18	1.19	0.750			
0.2478	15856.77	3.9680	3.9680	0.8952	7.18	1.19	0.750			
0.2505	16028.99	3.9650	3.9651	0.9025	7.18	1.19	0.750			
0.2532	16203.78	3.9620	3.9620	0.9111	7.17	1.18	0.750			
0.2560	16381.40	3.9590	3.9590	0.9132	7.17	1.18	0.750			
0.2587	16556.57	3.9560	3.9560	0.9179	7.17	1.18	0.750			
0.2615	16733.23	3.9530	3.9531	0.9227	7.16	1.17	0.750			
0.2642	16911.61	3.9500	3.9501	0.9264	7.16	1.17	0.750			
0.2670	17088.34	3.9470	3.9469	0.9267	7.16	1.17	0.750			
0.2698	17266.56	3.9440	3.9440	0.9326	7.16	1.17	0.750			
0.2726	17444.94	3.9410	3.9411	0.9395	7.16	1.17	0.750			
0.2754	17626.48	3.9380	3.9379	0.9467	7.15	1.16	0.750			
0.2783	17808.24	3.9350	3.9350	0.9544	7.15	1.16	0.750			
0.2812	17994.99	3.9320	3.9321	0.9564	7.15	1.16	0.750			
0.2840	18178.52	3.9290	3.9290	0.9668	7.14	1.15	0.750			
0.2869	18364.13	3.9260	3.9260	0.9764	7.14	1.15	0.750			
0.2899	18551.27	3.9230	3.9232	0.9829	7.13	1.14	0.750			
0.2928	18741.54	3.9200	3.9201	0.9918	7.13	1.14	0.750			
0.2959	18934.69	3.9170	3.9170	1.0017	7.12	1.13	0.750			
0.2989	19127.36	3.9140	3.9141	1.0115	7.12	1.13	0.750			
0.3020	19325.14	3.9110	3.9110	1.0217	7.11	1.12	0.750			
0.3050	19519.63	3.9080	3.9080	1.0200	7.11	1.12	0.750			
0.3080	19714.80	3.9050	3.9051	1.0368	7.10	1.11	0.750			
0.3112	19914.65	3.9020	3.9020	1.0462	7.09	1.10	0.750			
0.3143	20116.29	3.8990	3.8989	1.0597	7.08	1.09	0.750			
0.3176	20323.29	3.8960	3.8960	1.0641	7.08	1.09	0.750			
0.3207	20526.80	3.8930	3.8931	1.0738	7.07	1.08	0.750			
0.3240	20734.76	3.8900	3.8900	1.0891	7.07	1.08	0.750			
0.3273	20944.48	3.8870	3.8871	1.1005	7.06	1.07	0.750			
0.3305	21153.74	3.8840	3.8840	1.1061	7.06	1.07	0.750			
0.3339	21367.87	3.8810	3.8811	1.1280	7.05	1.06	0.750			
0.3373	21585.20	3.8780	3.8780	1.1493	7.04	1.05	0.750			
0.3408	21809.91	3.8750	3.8748	1.1762	7.03	1.04	0.750			
0.3443	22033.45	3.8720	3.8720	1.1921	7.03	1.04	0.750			
0.3479	22266.61	3.8690	3.8691	1.2175	7.02	1.03	0.750			
0.3517	22508.75	3.8660	3.8659	1.2321	7.01	1.02	0.750			
0.3554	22747.43	3.8630	3.8629	1.2432	7.01	1.02	0.750			
0.3591	22983.53	3.8600	3.8602	1.2547	6.99	1.00	0.750			
0.3629	23224.36	3.8570	3.8570	1.2700	6.98	0.99	0.750			
0.3667	23467.55	3.8540	3.8538	1.2878	6.97	0.98	0.750			
0.3706	23719.36	3.8510	3.8510	1.2923	6.96	0.97	0.750			
0.3744	23964.62	3.8480	3.8481	1.3422	6.95	0.96	0.750			
0.3785	24225.76	3.8450	3.8449	1.3809	6.94	0.95	0.750			
0.3827	24493.69	3.8420	3.8418	1.4134	6.92	0.93	0.750			
0.3870	24769.74	3.8390	3.8392	1.4482	6.91	0.92	0.750	0.411	1.020	
0.3915	25055.60	3.8360	3.8358	1.4570	6.89	0.90	0.750			
0.3959	25337.25	3.8330	3.8331	1.4823	6.88	0.89	0.750			
0.4003	25621.63	3.8300	3.8301	1.4821	6.86	0.87	0.750			
0.4048	25908.19	3.8270	3.8270	1.5032	6.85	0.86	0.750			
0.4093	26192.35	3.8240	3.8241	1.5293	6.83	0.84	0.750			
0.4139	26490.89	3.8210	3.8212	1.5674	6.82	0.83	0.750			
0.4187	26795.40	3.8180	3.8178	1.6291	6.80	0.81	0.750			
0.4236	27109.27	3.8150	3.8148	1.6750	6.79	0.80	0.750			
0.4287	27438.98	3.8120	3.8117	1.7078	6.77	0.78	0.750			
0.4340	27777.81	3.8090	3.8090	1.7383	6.76	0.77	0.750			
0.4393	28117.37	3.8060	3.8060	1.7662	6.75	0.76	0.750			
0.4447	28458.98	3.8030	3.8029	1.8006	6.74	0.75	0.750			
0.4500	28802.83	3.8000	3.7999	1.8505	6.72	0.73	0.750			
0.4557	29166.48	3.7970	3.7970	1.8911	6.69	0.70	0.750			
0.4613	29525.86	3.7940	3.7939	1.9553	6.67	0.68	0.750			
0.4674	29913.48	3.7910	3.7912	1.9829	6.65	0.66	0.750			
0.4733	30289.44	3.7880	3.7879	1.9916	6.62	0.63	0.750			
0.4794	30681.04	3.7850	3.7848	2.0193	6.60	0.61	0.750			
0.4857	31082.55	3.7820	3.7818	2.0746	6.58	0.59	0.750			
0.4919	31481.23	3.7790	3.7791	2.0834	6.57	0.58	0.750			
0.4984	31897.36	3.7760	3.7765	2.1449	6.55	0.56	0.750			
0.5048	32310.20	3.7730	3.7732	2.1641	6.53	0.54	0.750			
0.5113	32725.28	3.7700	3.7702	2.2016	6.49	0.50	0.750			
0.5179	33146.72	3.7670	3.7670	2.2514	6.46	0.47	0.750			
0.5249	33591.80	3.7640	3.7640	2.2678	6.43	0.44	0.750			
0.5320	34046.91	3.7610	3.7610	2.3170	6.40	0.41	0.750			
0.5389	34488.62	3.7580	3.7578	2.3476	6.38	0.39	0.750			
0.5459	34935.61	3.7550	3.7550	2.3796	6.36	0.37	0.750			
0.5532	35404.93	3.7520	3.7521	2.4634	6.33	0.34	0.750			
0.5605	35872.76	3.7490	3.7489	2.5425	6.30	0.31	0.750			
0.5684	36374.92	3.7460	3.7459	2.6142	6.26	0.27	0.750			
0.5767	36908.25	3.7430	3.7431	2.7585	6.24	0.25	0.750			
0.5851	37444.67	3.7400	3.7396	2.8474	6.21	0.22	0.750			
0.5938	38003.37	3.7370	3.7368	2.8811	6.18	0.19	0.750			
0.6024	38551.33	3.7340	3.7341	2.9390	6.14	0.15	0.750			
0.6117	39150.99	3.7310	3.7311	3.1211	6.11	0.12	0.750			
0.6218	39795.36	3.7280	3.7281	3.3344	6.08	0.09	0.750			
0.6315	40418.51	3.7250	3.7250	3.1378	6.05	0.06	0.750			
0.6406	40997.66	3.7220	3.7220	2.8935	6.03	0.04	0.750			
0.6487	41516.95	3.7190	3.7187	2.5866	6.02	0.03	0.750			
0.6560	41980.83	3.7160	3.7158	2.2394	6.00	0.01	0.750			
0.6622	42378.16	3.7130	3.7130	1.9409	5.98	-0.01	0.750			
0.6677	42731.82	3.7100	3.7099	1.6925	5.97	-0.02	0.750			
0.6722	43017.94	3.7070	3.7072	1.4657	5.97	-0.02	0.750			
0.6761	43272.98	3.7040	3.7041	1.2622	5.97	-0.02	0.750			
0.6796	43491.30	3.7010	3.7010	1.1186	5.97	-0.02	0.750			
0.6826	43686.55	3.6980	3.6980	0.9942	5.97	-0.02	0.750			
0.6853	43859.13	3.6950	3.6950	0.9074	5.97	-0.02	0.750			
0.6878	44022.24	3.6920	3.6920	0.8427	5.97	-0.02	0.750			
0.6903	44177.63	3.6890	3.6889	0.7844	5.97	-0.02	0.750			
0.6926	44323.59	3.6860	3.6860	0.7354	5.97	-0.02	0.750			
0.6947	44461.84	3.6830	3.6830	0.6846	5.98	-0.01	0.750			
0.6967	44587.95	3.6800	3.6801	0.6292	5.98	-0.01	0.750			
0.6985	44705.36	3.6770	3.6769	0.5744	5.98	-0.01	0.750			
0.7001	44807.65	3.6740	3.6740	0.5208	5.98	-0.01	0.750			
0.7016	44900.86	3.6710	3.6710	0.4657	5.99	-0.00	0.750			
0.7029	44985.95	3.6680	3.6680	0.4180	5.99	-0.00	0.750			
0.7041	45059.68	3.6650	3.6647	0.3698	5.99	0.00	0.750			
0.7051	45126.48	3.6620	3.6626	0.3270	5.99	0.00	0.750			
0.7060	45184.22	3.6590	3.6590	0.2872	5.99	0.00	0.750			
0.7068	45235.76	3.6560	3.6558	0.2483	5.99	0.00	0.750			
0.7075	45279.89	3.6530	3.6528	0.2097	6.00	0.01	0.750			
0.7080	45313.90	3.6500	3.6502	0.1662	6.00	0.01	0.750			
0.7085	45344.73	3.6470	3.6472	0.1322	6.00	0.01	0.750			
0.7089	45368.09	3.6440	3.6444	0.0916	6.00	0.01	0.750			
0.7091	45381.81	3.6410	3.6418	0.0471	6.00	0.01	0.750			
0.7092	45386.55	3.6380	3.6407	0.0023	6.00	0.01	0.750			
