Ah_balance (normalized)	Ah_balance (mAh)	Voltage - fit (V)	Voltage -  interpolate (V)	dQ/dV (1/V)	Temperature (°C)	Temperature - diff (°C)	Current (C)	R_DC 0ms (mOhm)	R_DC 50ms (mOhm)	R_DC 50 ms PEC (mOhm)
0.0932	5962.74	4.0040	4.0034	-0.0588	6.01	0.02	-0.750			
0.0934	5977.89	4.0010	4.0007	-0.0923	6.01	0.02	-0.750			
0.0937	5998.77	3.9980	3.9978	-0.1206	6.01	0.02	-0.750			
0.0941	6024.54	3.9950	3.9950	-0.1478	6.01	0.02	-0.750			
0.0946	6055.76	3.9920	3.9920	-0.1735	6.00	0.01	-0.750			
0.0952	6091.97	3.9890	3.9890	-0.1967	6.00	0.01	-0.750			
0.0958	6133.53	3.9860	3.9860	-0.2214	6.00	0.01	-0.750			
0.0965	6177.75	3.9830	3.9830	-0.2442	6.00	0.01	-0.750			
0.0973	6226.65	3.9800	3.9801	-0.2669	6.00	0.01	-0.750			
0.0981	6279.94	3.9770	3.9769	-0.2895	6.00	0.01	-0.750			
0.0990	6337.41	3.9740	3.9740	-0.3126	6.00	0.01	-0.750			
0.1000	6399.42	3.9710	3.9711	-0.3384	6.00	0.01	-0.750			
0.1010	6467.05	3.9680	3.9680	-0.3634	5.99	0.00	-0.750			
0.1022	6539.95	3.9650	3.9649	-0.3855	5.99	0.00	-0.750			
0.1034	6616.27	3.9620	3.9619	-0.4069	5.99	0.00	-0.750			
0.1046	6696.85	3.9590	3.9591	-0.4286	5.99	-0.00	-0.750			
0.1060	6781.09	3.9560	3.9559	-0.4493	5.99	-0.00	-0.750			
0.1073	6869.14	3.9530	3.9530	-0.4673	5.98	-0.01	-0.750			
0.1088	6960.75	3.9500	3.9500	-0.4845	5.98	-0.01	-0.750			
0.1102	7055.39	3.9470	3.9471	-0.5078	5.98	-0.01	-0.750			
0.1118	7156.18	3.9440	3.9440	-0.5246	5.98	-0.01	-0.750			
0.1134	7259.03	3.9410	3.9409	-0.5396	5.97	-0.02	-0.750			
0.1151	7363.83	3.9380	3.9380	-0.5549	5.97	-0.02	-0.750			
0.1168	7472.21	3.9350	3.9351	-0.5681	5.97	-0.02	-0.750			
0.1185	7582.50	3.9320	3.9320	-0.5841	5.97	-0.02	-0.750			
0.1203	7696.47	3.9290	3.9289	-0.5969	5.98	-0.01	-0.750			
0.1220	7810.95	3.9260	3.9261	-0.6090	5.98	-0.01	-0.750			
0.1239	7931.39	3.9230	3.9230	-0.6225	5.98	-0.01	-0.750			
0.1258	8052.98	3.9200	3.9201	-0.6323	5.99	-0.00	-0.750			
0.1277	8174.93	3.9170	3.9170	-0.6380	5.99	-0.00	-0.750			
0.1297	8297.90	3.9140	3.9140	-0.6441	5.99	0.00	-0.750			
0.1316	8421.55	3.9110	3.9110	-0.6486	5.99	0.00	-0.750			
0.1335	8546.29	3.9080	3.9080	-0.6588	5.99	0.00	-0.750			
0.1355	8673.53	3.9050	3.9050	-0.6651	5.99	0.00	-0.750			
0.1375	8803.07	3.9020	3.9019	-0.6727	5.99	0.00	-0.750			
0.1396	8934.15	3.8990	3.8990	-0.6761	5.99	0.00	-0.750			
0.1416	9063.96	3.8960	3.8961	-0.6804	5.99	0.00	-0.750			
0.1437	9195.04	3.8930	3.8931	-0.6843	5.99	0.00	-0.750			
0.1457	9326.11	3.8900	3.8899	-0.6873	6.00	0.01	-0.750			
0.1478	9457.75	3.8870	3.8869	-0.6889	6.00	0.01	-0.750			
0.1498	9590.14	3.8840	3.8841	-0.6938	6.00	0.01	-0.750			
0.1519	9724.07	3.8810	3.8809	-0.6965	6.01	0.02	-0.750			
0.1541	9860.04	3.8780	3.8781	-0.6982	6.01	0.02	-0.750			
0.1561	9992.92	3.8750	3.8751	-0.6978	6.01	0.02	-0.750			
0.1582	10125.67	3.8720	3.8721	-0.7033	6.02	0.03	-0.750			
0.1603	10261.63	3.8690	3.8689	-0.7058	6.02	0.03	-0.750			
0.1625	10397.60	3.8660	3.8660	-0.7037	6.02	0.03	-0.750			
0.1646	10532.55	3.8630	3.8631	-0.7038	6.03	0.04	-0.750			
0.1667	10668.24	3.8600	3.8601	-0.7090	6.03	0.04	-0.750			
0.1688	10804.29	3.8570	3.8569	-0.7120	6.04	0.05	-0.750			
0.1709	10938.23	3.8540	3.8540	-0.7147	6.04	0.05	-0.750			
0.1731	11077.65	3.8510	3.8509	-0.7141	6.05	0.06	-0.750			
0.1753	11216.93	3.8480	3.8481	-0.7196	6.06	0.07	-0.750			
0.1774	11355.72	3.8450	3.8451	-0.7194	6.07	0.08	-0.750			
0.1796	11493.78	3.8420	3.8419	-0.7170	6.07	0.08	-0.750			
0.1817	11630.48	3.8390	3.8389	-0.7164	6.07	0.08	-0.750			
0.1838	11766.23	3.8360	3.8360	-0.7169	6.08	0.09	-0.750			
0.1860	11905.31	3.8330	3.8330	-0.7174	6.08	0.09	-0.750			
0.1882	12045.01	3.8300	3.8300	-0.7192	6.09	0.10	-0.750			
0.1903	12182.13	3.8270	3.8270	-0.7192	6.09	0.10	-0.750			
0.1925	12320.24	3.8240	3.8239	-0.7190	6.09	0.10	-0.750			
0.1946	12457.38	3.8210	3.8209	-0.7195	6.10	0.11	-0.750			
0.1968	12595.05	3.8180	3.8181	-0.7208	6.11	0.12	-0.750			
0.1990	12733.60	3.8150	3.8150	-0.7193	6.11	0.12	-0.750			
0.2012	12874.31	3.8120	3.8120	-0.7263	6.12	0.13	-0.750			
0.2033	13012.74	3.8090	3.8091	-0.7242	6.13	0.14	-0.750			
0.2055	13150.97	3.8060	3.8060	-0.7264	6.13	0.14	-0.750			
0.2077	13290.24	3.8030	3.8029	-0.7301	6.14	0.15	-0.750			
0.2099	13431.33	3.8000	3.8000	-0.7364	6.14	0.15	-0.750			
0.2121	13574.86	3.7970	3.7969	-0.7341	6.14	0.15	-0.750			
0.2143	13717.84	3.7940	3.7939	-0.7378	6.15	0.16	-0.750			
0.2165	13858.21	3.7910	3.7913	-0.7361	6.15	0.16	-0.750			
0.2187	13998.88	3.7880	3.7880	-0.7351	6.16	0.17	-0.750			
0.2209	14137.83	3.7850	3.7849	-0.7411	6.16	0.17	-0.750			
0.2231	14280.43	3.7820	3.7820	-0.7372	6.17	0.18	-0.750			
0.2254	14424.90	3.7790	3.7790	-0.7460	6.18	0.19	-0.750			
0.2276	14567.75	3.7760	3.7759	-0.7464	6.19	0.20	-0.750			
0.2299	14711.14	3.7730	3.7729	-0.7448	6.19	0.20	-0.750			
0.2321	14853.52	3.7700	3.7699	-0.7500	6.20	0.21	-0.750			
0.2343	14996.87	3.7670	3.7670	-0.7539	6.21	0.22	-0.750			
0.2366	15141.89	3.7640	3.7640	-0.7537	6.22	0.23	-0.750			
0.2389	15289.84	3.7610	3.7610	-0.7648	6.22	0.23	-0.750			
0.2412	15436.66	3.7580	3.7582	-0.7668	6.23	0.24	-0.750			
0.2435	15583.85	3.7550	3.7549	-0.7746	6.24	0.25	-0.750			
0.2458	15733.40	3.7520	3.7519	-0.7791	6.24	0.25	-0.750			
0.2482	15883.24	3.7490	3.7490	-0.7795	6.25	0.26	-0.750			
0.2505	16034.99	3.7460	3.7460	-0.7878	6.26	0.27	-0.750			
0.2529	16186.34	3.7430	3.7430	-0.7876	6.27	0.28	-0.750			
0.2553	16336.82	3.7400	3.7399	-0.7903	6.27	0.28	-0.750			
0.2576	16487.07	3.7370	3.7370	-0.7936	6.28	0.29	-0.750			
0.2600	16639.54	3.7340	3.7340	-0.7967	6.28	0.29	-0.750			
0.2624	16793.43	3.7310	3.7310	-0.8002	6.28	0.29	-0.750			
0.2648	16948.88	3.7280	3.7280	-0.8093	6.29	0.30	-0.750			
0.2672	17103.09	3.7250	3.7251	-0.8154	6.29	0.30	-0.750			
0.2697	17259.63	3.7220	3.7220	-0.8258	6.30	0.31	-0.750			
0.2722	17420.03	3.7190	3.7190	-0.8318	6.31	0.32	-0.750			
0.2747	17580.11	3.7160	3.7159	-0.8393	6.32	0.33	-0.750			
0.2773	17744.28	3.7130	3.7130	-0.8437	6.33	0.34	-0.750			
0.2798	17908.33	3.7100	3.7100	-0.8479	6.33	0.34	-0.750			
0.2823	18068.74	3.7070	3.7070	-0.8525	6.34	0.35	-0.750			
0.2849	18230.99	3.7040	3.7040	-0.8566	6.34	0.35	-0.750			
0.2874	18396.16	3.7010	3.7009	-0.8637	6.34	0.35	-0.750			
0.2901	18565.36	3.6980	3.6979	-0.8660	6.35	0.36	-0.750			
0.2927	18732.80	3.6950	3.6951	-0.8703	6.35	0.36	-0.750			
0.2953	18900.21	3.6920	3.6920	-0.8847	6.36	0.37	-0.750			
0.2980	19069.92	3.6890	3.6889	-0.8879	6.37	0.38	-0.750			
0.3006	19238.68	3.6860	3.6859	-0.8944	6.37	0.38	-0.750			
0.3033	19412.20	3.6830	3.6831	-0.9097	6.38	0.39	-0.750			
0.3061	19588.96	3.6800	3.6800	-0.9236	6.38	0.39	-0.750			
0.3089	19769.26	3.6770	3.6769	-0.9312	6.38	0.39	-0.750			
0.3117	19948.25	3.6740	3.6740	-0.9327	6.39	0.40	-0.750			
0.3145	20128.02	3.6710	3.6709	-0.9451	6.39	0.40	-0.750			
0.3173	20309.92	3.6680	3.6680	-0.9506	6.39	0.40	-0.750			
0.3202	20492.23	3.6650	3.6650	-0.9586	6.40	0.41	-0.750			
0.3231	20678.79	3.6620	3.6619	-0.9611	6.41	0.42	-0.750			
0.3260	20864.40	3.6590	3.6590	-0.9624	6.42	0.43	-0.750			
0.3289	21049.80	3.6560	3.6564	-0.9726	6.43	0.44	-0.750			
0.3318	21235.92	3.6530	3.6529	-0.9782	6.43	0.44	-0.750			
0.3347	21421.64	3.6500	3.6500	-0.9861	6.43	0.44	-0.750			
0.3377	21611.03	3.6470	3.6470	-0.9928	6.44	0.45	-0.750			
0.3407	21805.95	3.6440	3.6440	-1.0111	6.44	0.45	-0.750			
0.3438	22001.33	3.6410	3.6410	-1.0204	6.44	0.45	-0.750			
0.3469	22198.60	3.6380	3.6380	-1.0276	6.45	0.46	-0.750			
0.3499	22394.70	3.6350	3.6350	-1.0340	6.45	0.46	-0.750			
0.3530	22593.65	3.6320	3.6319	-1.0428	6.46	0.47	-0.750			
0.3561	22791.46	3.6290	3.6290	-1.0603	6.46	0.47	-0.750			
0.3593	22996.69	3.6260	3.6260	-1.0859	6.46	0.47	-0.750			
0.3626	23209.06	3.6230	3.6230	-1.0988	6.47	0.48	-0.750			
0.3660	23423.09	3.6200	3.6200	-1.1092	6.47	0.48	-0.750			
0.3694	23641.68	3.6170	3.6171	-1.1228	6.48	0.49	-0.750			
0.3728	23859.57	3.6140	3.6140	-1.1193	6.48	0.49	-0.750			
0.3762	24074.15	3.6110	3.6109	-1.1180	6.49	0.50	-0.750			
0.3795	24285.66	3.6080	3.6081	-1.1168	6.49	0.50	-0.750			
0.3828	24497.50	3.6050	3.6050	-1.1177	6.50	0.51	-0.750			
0.3862	24713.92	3.6020	3.6020	-1.1232	6.50	0.51	-0.750			
0.3895	24929.44	3.5990	3.5990	-1.1273	6.51	0.52	-0.750			
0.3929	25146.38	3.5960	3.5960	-1.1448	6.51	0.52	-0.750			
0.3964	25366.73	3.5930	3.5930	-1.1523	6.52	0.53	-0.750			
0.3998	25587.23	3.5900	3.5899	-1.1622	6.52	0.53	-0.750			
0.4033	25809.70	3.5870	3.5870	-1.1811	6.53	0.54	-0.750			
0.4069	26041.61	3.5840	3.5839	-1.1910	6.53	0.54	-0.750	0.465	1.043	
0.4105	26273.76	3.5810	3.5810	-1.2049	6.53	0.54	-0.750			
0.4141	26504.58	3.5780	3.5779	-1.2146	6.53	0.54	-0.750			
0.4178	26736.95	3.5750	3.5750	-1.2220	6.53	0.54	-0.750			
0.4215	26974.29	3.5720	3.5719	-1.2359	6.54	0.55	-0.750			
0.4252	27210.15	3.5690	3.5690	-1.2435	6.54	0.55	-0.750			
0.4289	27448.59	3.5660	3.5661	-1.2583	6.55	0.56	-0.750			
0.4328	27697.22	3.5630	3.5629	-1.2770	6.56	0.57	-0.750			
0.4366	27944.12	3.5600	3.5599	-1.2816	6.56	0.57	-0.750			
0.4405	28190.26	3.5570	3.5572	-1.3008	6.57	0.58	-0.750			
0.4444	28442.05	3.5540	3.5539	-1.3118	6.57	0.58	-0.750			
0.4484	28695.38	3.5510	3.5509	-1.3186	6.57	0.58	-0.750			
0.4523	28946.90	3.5480	3.5481	-1.3276	6.57	0.58	-0.750			
0.4563	29201.77	3.5450	3.5449	-1.3381	6.57	0.58	-0.750			
0.4604	29464.10	3.5420	3.5419	-1.3554	6.58	0.59	-0.750			
0.4644	29723.18	3.5390	3.5390	-1.3703	6.59	0.60	-0.750			
0.4685	29984.46	3.5360	3.5360	-1.3721	6.59	0.60	-0.750			
0.4727	30255.86	3.5330	3.5330	-1.3938	6.60	0.61	-0.750			
0.4769	30523.81	3.5300	3.5300	-1.4087	6.61	0.62	-0.750			
0.4812	30794.74	3.5270	3.5270	-1.4147	6.61	0.62	-0.750			
0.4855	31069.18	3.5240	3.5239	-1.4234	6.62	0.63	-0.750			
0.4897	31343.19	3.5210	3.5210	-1.4325	6.63	0.64	-0.750			
0.4940	31616.21	3.5180	3.5180	-1.4483	6.63	0.64	-0.750			
0.4984	31898.73	3.5150	3.5150	-1.4554	6.64	0.65	-0.750			
0.5028	32179.27	3.5120	3.5119	-1.4641	6.65	0.66	-0.750			
0.5072	32461.36	3.5090	3.5090	-1.4642	6.66	0.67	-0.750			
0.5117	32746.52	3.5060	3.5060	-1.4718	6.66	0.67	-0.750			
0.5161	33029.27	3.5030	3.5032	-1.4758	6.67	0.68	-0.750			
0.5205	33311.14	3.5000	3.4999	-1.4802	6.68	0.69	-0.750			
0.5249	33594.05	3.4970	3.4970	-1.4812	6.69	0.70	-0.750			
0.5294	33883.69	3.4940	3.4941	-1.4839	6.70	0.71	-0.750			
0.5339	34170.88	3.4910	3.4912	-1.4875	6.71	0.72	-0.750			
0.5383	34453.57	3.4880	3.4879	-1.4907	6.72	0.73	-0.750			
0.5428	34738.33	3.4850	3.4850	-1.4825	6.73	0.74	-0.750			
0.5473	35024.54	3.4820	3.4819	-1.4834	6.75	0.76	-0.750			
0.5517	35309.13	3.4790	3.4790	-1.4930	6.76	0.77	-0.750			
0.5562	35595.48	3.4760	3.4759	-1.4846	6.77	0.78	-0.750			
0.5607	35885.05	3.4730	3.4729	-1.4863	6.78	0.79	-0.750			
0.5651	36168.68	3.4700	3.4702	-1.4763	6.79	0.80	-0.750			
0.5695	36449.58	3.4670	3.4669	-1.4635	6.80	0.81	-0.750			
0.5739	36732.70	3.4640	3.4639	-1.4631	6.81	0.82	-0.750			
0.5783	37010.50	3.4610	3.4610	-1.4561	6.83	0.84	-0.750			
0.5830	37312.22	3.4580	3.4577	-1.3974	6.85	0.86	-0.750			
0.5873	37587.83	3.4550	3.4548	-1.3464	6.86	0.87	-0.750			
0.5913	37845.51	3.4520	3.4522	-1.2088	6.88	0.89	-0.750			
0.5948	38066.19	3.4490	3.4495	-1.1179	6.89	0.90	-0.750			
0.5977	38254.12	3.4460	3.4471	-1.0224	6.91	0.92	-0.750			
0.6002	38412.59	3.4430	3.4412	-1.0002	6.92	0.93	-0.750			
0.6026	38568.11	3.4400	3.4396	-1.0413	6.93	0.94	-0.750			
0.6060	38785.38	3.4370	3.4369	-1.1458	6.94	0.95	-0.750			
0.6100	39039.54	3.4340	3.4337	-1.2748	6.95	0.96	-0.750			
0.6140	39293.76	3.4310	3.4310	-1.3032	6.96	0.97	-0.750			
0.6182	39566.96	3.4280	3.4279	-1.3103	6.98	0.99	-0.750			
0.6222	39821.21	3.4250	3.4249	-1.3070	6.99	1.00	-0.750			
0.6260	40066.17	3.4220	3.4218	-1.2760	7.00	1.01	-0.750			
0.6297	40302.85	3.4190	3.4190	-1.2433	7.01	1.02	-0.750			
0.6335	40545.35	3.4160	3.4160	-1.2152	7.03	1.04	-0.750			
0.6373	40784.36	3.4130	3.4131	-1.2080	7.05	1.06	-0.750			
0.6408	41010.86	3.4100	3.4101	-1.1828	7.07	1.08	-0.750			
0.6444	41239.50	3.4070	3.4066	-1.1600	7.09	1.10	-0.750			
0.6477	41455.06	3.4040	3.4040	-1.1202	7.10	1.11	-0.750			
0.6510	41666.32	3.4010	3.4011	-1.0934	7.12	1.13	-0.750			
0.6543	41878.03	3.3980	3.3982	-1.0906	7.13	1.14	-0.750			
0.6576	42084.36	3.3950	3.3948	-1.0598	7.15	1.16	-0.750			
0.6606	42281.09	3.3920	3.3919	-1.0205	7.16	1.17	-0.750			
0.6636	42473.38	3.3890	3.3891	-1.0014	7.18	1.19	-0.750			
0.6667	42667.74	3.3860	3.3863	-0.9825	7.19	1.20	-0.750			
0.6696	42854.16	3.3830	3.3828	-0.9526	7.20	1.21	-0.750			
0.6724	43032.90	3.3800	3.3800	-0.9232	7.21	1.22	-0.750			
0.6751	43204.44	3.3770	3.3771	-0.9007	7.23	1.24	-0.750			
0.6778	43376.56	3.3740	3.3738	-0.8786	7.24	1.25	-0.750			
0.6804	43542.91	3.3710	3.3710	-0.8592	7.25	1.26	-0.750			
0.6829	43704.62	3.3680	3.3681	-0.8368	7.26	1.27	-0.750			
0.6854	43865.94	3.3650	3.3648	-0.8188	7.27	1.28	-0.750			
0.6879	44026.12	3.3620	3.3619	-0.7801	7.28	1.29	-0.750			
0.6902	44172.44	3.3590	3.3590	-0.7420	7.30	1.31	-0.750			
0.6923	44308.25	3.3560	3.3559	-0.7161	7.31	1.32	-0.750			
0.6944	44441.84	3.3530	3.3527	-0.6977	7.32	1.33	-0.750			
0.6963	44562.82	3.3500	3.3499	-0.6870	7.33	1.34	-0.750			
0.6983	44694.07	3.3470	3.3470	-0.6798	7.34	1.35	-0.750			
0.7005	44831.88	3.3440	3.3438	-0.6793	7.35	1.36	-0.750			
0.7026	44966.63	3.3410	3.3404	-0.6718	7.36	1.37	-0.750			
0.7046	45094.15	3.3380	3.3377	-0.6533	7.37	1.38	-0.750			
0.7065	45215.34	3.3350	3.3349	-0.6305	7.39	1.40	-0.750			
0.7083	45332.29	3.3320	3.3320	-0.6035	7.40	1.41	-0.750			
0.7101	45444.56	3.3290	3.3290	-0.5888	7.41	1.42	-0.750			
0.7119	45559.32	3.3260	3.3260	-0.5676	7.42	1.43	-0.750			
0.7135	45665.81	3.3230	3.3230	-0.5411	7.42	1.43	-0.750			
