Ah_balance (normalized)	Ah_balance (mAh)	Voltage - fit (V)	Voltage -  interpolate (V)	dQ/dV (1/V)	Temperature (°C)	Temperature - diff (°C)	Current (C)	R_DC 0ms (mOhm)	R_DC 50ms (mOhm)	R_DC 50 ms PEC (mOhm)
-0.0002	-14.67	4.0800	4.0800	0.8033	7.56	1.59	0.750			
0.0022	138.82	4.0770	4.0770	0.8004	7.55	1.58	0.750			
0.0046	292.09	4.0740	4.0740	0.8029	7.55	1.58	0.750			
0.0070	447.67	4.0710	4.0710	0.8017	7.54	1.57	0.750			
0.0094	600.63	4.0680	4.0680	0.8043	7.54	1.57	0.750			
0.0118	755.42	4.0650	4.0651	0.8088	7.54	1.57	0.750			
0.0142	910.35	4.0620	4.0620	0.8124	7.53	1.56	0.750			
0.0167	1066.33	4.0590	4.0590	0.8170	7.53	1.56	0.750			
0.0191	1225.15	4.0560	4.0560	0.8158	7.52	1.55	0.750			
0.0216	1381.85	4.0530	4.0530	0.8219	7.52	1.55	0.750			
0.0241	1540.92	4.0500	4.0500	0.8261	7.52	1.55	0.750			
0.0265	1699.05	4.0470	4.0471	0.8254	7.51	1.54	0.750			
0.0290	1857.39	4.0440	4.0441	0.8276	7.51	1.54	0.750			
0.0315	2016.26	4.0410	4.0411	0.8316	7.50	1.53	0.750			
0.0340	2176.30	4.0380	4.0380	0.8341	7.49	1.52	0.750			
0.0365	2337.49	4.0350	4.0350	0.8379	7.48	1.51	0.750			
0.0390	2497.88	4.0320	4.0320	0.8384	7.48	1.51	0.750			
0.0416	2659.50	4.0290	4.0290	0.8445	7.47	1.50	0.750			
0.0441	2823.19	4.0260	4.0260	0.8447	7.46	1.49	0.750			
0.0466	2985.42	4.0230	4.0230	0.8479	7.46	1.49	0.750			
0.0492	3148.61	4.0200	4.0200	0.8486	7.46	1.49	0.750			
0.0517	3311.82	4.0170	4.0171	0.8509	7.45	1.48	0.750			
0.0543	3474.65	4.0140	4.0141	0.8548	7.45	1.48	0.750			
0.0569	3638.88	4.0110	4.0110	0.8543	7.44	1.47	0.750			
0.0594	3803.03	4.0080	4.0080	0.8576	7.43	1.46	0.750			
0.0620	3969.04	4.0050	4.0050	0.8637	7.42	1.45	0.750			
0.0646	4133.94	4.0020	4.0020	0.8683	7.41	1.44	0.750			
0.0672	4301.41	3.9990	3.9990	0.8732	7.40	1.43	0.750			
0.0698	4469.46	3.9960	3.9960	0.8751	7.39	1.42	0.750			
0.0725	4638.33	3.9930	3.9930	0.8772	7.38	1.41	0.750			
0.0751	4808.13	3.9900	3.9900	0.8827	7.37	1.40	0.750			
0.0778	4976.86	3.9870	3.9870	0.8824	7.35	1.38	0.750			
0.0804	5146.53	3.9840	3.9840	0.8831	7.35	1.38	0.750			
0.0831	5315.31	3.9810	3.9810	0.8871	7.34	1.37	0.750			
0.0857	5486.09	3.9780	3.9780	0.8928	7.34	1.37	0.750			
0.0884	5657.72	3.9750	3.9750	0.9002	7.33	1.36	0.750			
0.0911	5831.30	3.9720	3.9719	0.9077	7.33	1.36	0.750			
0.0939	6007.37	3.9690	3.9690	0.9067	7.33	1.36	0.750			
0.0966	6181.62	3.9660	3.9660	0.9125	7.32	1.35	0.750			
0.0993	6356.28	3.9630	3.9631	0.9188	7.32	1.35	0.750			
0.1021	6532.90	3.9600	3.9600	0.9205	7.31	1.34	0.750			
0.1049	6710.78	3.9570	3.9570	0.9241	7.30	1.33	0.750			
0.1076	6888.25	3.9540	3.9540	0.9276	7.30	1.33	0.750			
0.1104	7066.93	3.9510	3.9511	0.9350	7.29	1.32	0.750			
0.1133	7248.43	3.9480	3.9480	0.9437	7.28	1.31	0.750			
0.1161	7427.61	3.9450	3.9450	0.9443	7.27	1.30	0.750			
0.1189	7609.40	3.9420	3.9420	0.9514	7.26	1.29	0.750			
0.1218	7793.60	3.9390	3.9390	0.9604	7.25	1.28	0.750			
0.1247	7978.76	3.9360	3.9360	0.9662	7.24	1.27	0.750			
0.1276	8164.82	3.9330	3.9330	0.9723	7.23	1.26	0.750			
0.1305	8352.99	3.9300	3.9300	0.9766	7.22	1.25	0.750			
0.1334	8540.69	3.9270	3.9270	0.9844	7.21	1.24	0.750			
0.1364	8729.29	3.9240	3.9240	0.9909	7.19	1.22	0.750			
0.1394	8919.57	3.9210	3.9210	0.9977	7.18	1.21	0.750			
0.1424	9112.33	3.9180	3.9180	1.0095	7.16	1.19	0.750			
0.1454	9307.55	3.9150	3.9150	1.0184	7.16	1.19	0.750			
0.1485	9504.05	3.9120	3.9120	1.0272	7.15	1.18	0.750			
0.1516	9702.95	3.9090	3.9090	1.0418	7.14	1.17	0.750			
0.1548	9904.60	3.9060	3.9060	1.0437	7.13	1.16	0.750			
0.1579	10104.20	3.9030	3.9030	1.0568	7.12	1.15	0.750			
0.1611	10308.53	3.9000	3.9000	1.0677	7.11	1.14	0.750			
0.1643	10513.93	3.8970	3.8970	1.0790	7.09	1.12	0.750			
0.1675	10722.71	3.8940	3.8940	1.0886	7.08	1.11	0.750			
0.1708	10932.13	3.8910	3.8911	1.1013	7.07	1.10	0.750			
0.1741	11143.91	3.8880	3.8880	1.1150	7.06	1.09	0.750			
0.1775	11360.32	3.8850	3.8849	1.1352	7.04	1.07	0.750			
0.1809	11577.73	3.8820	3.8820	1.1458	7.03	1.06	0.750			
0.1844	11800.68	3.8790	3.8790	1.1634	7.02	1.05	0.750			
0.1879	12026.66	3.8760	3.8760	1.1814	7.01	1.04	0.750			
0.1915	12254.93	3.8730	3.8730	1.1890	7.00	1.03	0.750			
0.1951	12485.10	3.8700	3.8700	1.2060	6.98	1.01	0.750			
0.1987	12716.04	3.8670	3.8670	1.2243	6.97	1.00	0.750			
0.2024	12954.14	3.8640	3.8639	1.2349	6.95	0.98	0.750			
0.2061	13192.10	3.8610	3.8610	1.2579	6.94	0.97	0.750			
0.2099	13434.22	3.8580	3.8580	1.2822	6.92	0.95	0.750			
0.2138	13682.68	3.8550	3.8551	1.3039	6.90	0.93	0.750			
0.2178	13936.06	3.8520	3.8520	1.3304	6.89	0.92	0.750			
0.2218	14192.95	3.8490	3.8491	1.3535	6.88	0.91	0.750			
0.2259	14456.56	3.8460	3.8460	1.3745	6.87	0.90	0.750			
0.2300	14722.98	3.8430	3.8430	1.4116	6.85	0.88	0.750			
0.2343	14993.01	3.8400	3.8401	1.4331	6.84	0.87	0.750			
0.2386	15271.87	3.8370	3.8369	1.4594	6.82	0.85	0.750			
0.2431	15556.55	3.8340	3.8341	1.4874	6.80	0.83	0.750	0.451	1.040	
0.2476	15843.58	3.8310	3.8311	1.5228	6.78	0.81	0.750			
0.2522	16139.23	3.8280	3.8280	1.5593	6.76	0.79	0.750			
0.2569	16441.92	3.8250	3.8250	1.5793	6.74	0.77	0.750			
0.2617	16747.77	3.8220	3.8220	1.6126	6.73	0.76	0.750			
0.2666	17060.29	3.8190	3.8190	1.6566	6.72	0.75	0.750			
0.2716	17380.51	3.8160	3.8159	1.6911	6.70	0.73	0.750			
0.2767	17710.94	3.8130	3.8130	1.7189	6.68	0.71	0.750			
0.2819	18041.17	3.8100	3.8101	1.7615	6.66	0.69	0.750			
0.2872	18383.61	3.8070	3.8071	1.8005	6.64	0.67	0.750			
0.2927	18733.03	3.8040	3.8039	1.8260	6.62	0.65	0.750			
0.2982	19082.68	3.8010	3.8011	1.8747	6.59	0.62	0.750			
0.3039	19447.96	3.7980	3.7981	1.9000	6.57	0.60	0.750			
0.3097	19820.43	3.7950	3.7949	1.9468	6.54	0.57	0.750			
0.3156	20197.62	3.7920	3.7920	1.9897	6.52	0.55	0.750			
0.3216	20583.02	3.7890	3.7891	2.0200	6.50	0.53	0.750			
0.3277	20969.75	3.7860	3.7860	2.0623	6.47	0.50	0.750			
0.3340	21377.51	3.7830	3.7830	2.1005	6.45	0.48	0.750			
0.3404	21783.52	3.7800	3.7802	2.1278	6.43	0.46	0.750			
0.3468	22192.29	3.7770	3.7768	2.1605	6.40	0.43	0.750			
0.3533	22610.23	3.7740	3.7740	2.1972	6.37	0.40	0.750			
0.3600	23039.73	3.7710	3.7711	2.2132	6.35	0.38	0.750			
0.3666	23464.72	3.7680	3.7680	2.2571	6.33	0.36	0.750			
0.3734	23899.87	3.7650	3.7649	2.2914	6.31	0.34	0.750			
0.3804	24343.81	3.7620	3.7621	2.3226	6.28	0.31	0.750			
0.3874	24795.39	3.7590	3.7590	2.3556	6.25	0.28	0.750			
0.3944	25244.02	3.7560	3.7560	2.3778	6.22	0.25	0.750			
0.4017	25706.66	3.7530	3.7530	2.4396	6.20	0.23	0.750			
0.4090	26176.89	3.7500	3.7500	2.5049	6.17	0.20	0.750			
0.4166	26665.04	3.7470	3.7471	2.5752	6.15	0.18	0.750			
0.4245	27170.58	3.7440	3.7441	2.6831	6.14	0.17	0.750			
0.4327	27694.40	3.7410	3.7410	2.7604	6.12	0.15	0.750			
0.4411	28232.68	3.7380	3.7380	2.8643	6.09	0.12	0.750			
0.4499	28790.47	3.7350	3.7349	2.9673	6.07	0.10	0.750			
0.4591	29379.29	3.7320	3.7319	3.0550	6.05	0.08	0.750			
0.4683	29970.04	3.7290	3.7290	3.0374	6.02	0.05	0.750			
0.4775	30557.41	3.7260	3.7259	2.9550	5.99	0.02	0.750			
0.4862	31118.17	3.7230	3.7230	2.7906	5.98	0.01	0.750			
0.4943	31635.72	3.7200	3.7200	2.5593	5.96	-0.01	0.750			
0.5016	32102.88	3.7170	3.7170	2.2945	5.95	-0.02	0.750			
0.5081	32516.70	3.7140	3.7140	2.0491	5.95	-0.02	0.750			
0.5138	32884.77	3.7110	3.7110	1.8016	5.95	-0.02	0.750			
0.5187	33195.87	3.7080	3.7081	1.5742	5.95	-0.02	0.750			
0.5231	33475.74	3.7050	3.7050	1.3941	5.94	-0.03	0.750			
0.5268	33716.53	3.7020	3.7019	1.2270	5.94	-0.03	0.750			
0.5301	33927.58	3.6990	3.6989	1.1063	5.94	-0.03	0.750			
0.5331	34120.40	3.6960	3.6960	1.0035	5.95	-0.02	0.750			
0.5360	34302.31	3.6930	3.6930	0.9389	5.95	-0.02	0.750			
0.5387	34473.76	3.6900	3.6900	0.8805	5.96	-0.01	0.750			
0.5412	34636.05	3.6870	3.6870	0.8273	5.96	-0.01	0.750			
0.5436	34791.06	3.6840	3.6840	0.7782	5.96	-0.01	0.750			
0.5459	34937.76	3.6810	3.6810	0.7300	5.96	-0.01	0.750			
0.5480	35072.68	3.6780	3.6780	0.6777	5.97	-0.00	0.750			
0.5500	35197.29	3.6750	3.6751	0.6251	5.97	-0.00	0.750			
0.5517	35311.96	3.6720	3.6720	0.5737	5.97	-0.00	0.750			
0.5534	35416.70	3.6690	3.6690	0.5236	5.97	0.00	0.750			
0.5549	35512.24	3.6660	3.6660	0.4764	5.97	0.00	0.750			
0.5562	35598.94	3.6630	3.6630	0.4313	5.97	0.00	0.750			
0.5574	35676.49	3.6600	3.6600	0.3866	5.97	0.00	0.750			
0.5585	35745.54	3.6570	3.6570	0.3444	5.97	0.00	0.750			
0.5595	35807.53	3.6540	3.6539	0.3064	5.98	0.01	0.750			
0.5603	35862.04	3.6510	3.6510	0.2680	5.98	0.01	0.750			
0.5611	35910.41	3.6480	3.6480	0.2292	5.98	0.01	0.750			
0.5617	35951.01	3.6450	3.6449	0.1915	5.98	0.01	0.750			
0.5623	35984.81	3.6420	3.6420	0.1534	5.98	0.01	0.750			
0.5627	36010.51	3.6390	3.6394	0.1133	5.98	0.01	0.750			
0.5630	36028.85	3.6360	3.6367	0.0707	5.98	0.01	0.750			
0.5631	36038.28	3.6330	3.6342	0.0220	5.98	0.01	0.750			
