Ah_balance (normalized)	Ah_balance (mAh)	Voltage - fit (V)	Voltage -  interpolate (V)	dQ/dV (1/V)	Temperature (°C)	Temperature - diff (°C)	Current (C)	R_DC 0ms (mOhm)	R_DC 50ms (mOhm)	R_DC 50 ms PEC (mOhm)
0.0935	5981.66	4.0040	4.0026	-0.0472	5.98	0.01	-0.750			
0.0937	5994.44	4.0010	4.0006	-0.0801	5.98	0.01	-0.750			
0.0939	6012.61	3.9980	3.9980	-0.1091	5.98	0.01	-0.750			
0.0943	6037.22	3.9950	3.9948	-0.1355	5.98	0.01	-0.750			
0.0948	6066.18	3.9920	3.9920	-0.1596	5.98	0.01	-0.750			
0.0953	6099.13	3.9890	3.9891	-0.1855	5.98	0.01	-0.750			
0.0959	6137.23	3.9860	3.9861	-0.2116	5.97	0.00	-0.750			
0.0966	6180.97	3.9830	3.9829	-0.2341	5.97	0.00	-0.750			
0.0973	6228.09	3.9800	3.9800	-0.2569	5.97	0.00	-0.750			
0.0981	6280.09	3.9770	3.9768	-0.2777	5.97	0.00	-0.750			
0.0990	6335.49	3.9740	3.9742	-0.2973	5.97	-0.00	-0.750			
0.0999	6394.65	3.9710	3.9710	-0.3220	5.97	-0.00	-0.750			
0.1009	6457.88	3.9680	3.9680	-0.3437	5.97	-0.00	-0.750			
0.1020	6525.13	3.9650	3.9649	-0.3656	5.96	-0.01	-0.750			
0.1031	6598.58	3.9620	3.9620	-0.3929	5.96	-0.01	-0.750			
0.1043	6677.26	3.9590	3.9590	-0.4146	5.96	-0.01	-0.750			
0.1056	6759.28	3.9560	3.9560	-0.4392	5.96	-0.01	-0.750			
0.1070	6846.13	3.9530	3.9531	-0.4575	5.96	-0.01	-0.750			
0.1084	6935.56	3.9500	3.9500	-0.4729	5.95	-0.02	-0.750			
0.1098	7029.25	3.9470	3.9468	-0.4892	5.95	-0.02	-0.750			
0.1113	7123.63	3.9440	3.9446	-0.5104	5.95	-0.02	-0.750			
0.1129	7223.69	3.9410	3.9410	-0.5256	5.95	-0.02	-0.750			
0.1145	7327.28	3.9380	3.9379	-0.5455	5.95	-0.02	-0.750			
0.1161	7433.03	3.9350	3.9351	-0.5610	5.95	-0.02	-0.750			
0.1179	7543.34	3.9320	3.9321	-0.5797	5.95	-0.02	-0.750			
0.1196	7656.85	3.9290	3.9290	-0.5918	5.95	-0.02	-0.750			
0.1215	7772.97	3.9260	3.9259	-0.6010	5.95	-0.02	-0.750			
0.1233	7888.81	3.9230	3.9230	-0.6033	5.95	-0.02	-0.750			
0.1251	8006.31	3.9200	3.9200	-0.6154	5.95	-0.02	-0.750			
0.1269	8122.98	3.9170	3.9170	-0.6220	5.95	-0.02	-0.750			
0.1288	8240.76	3.9140	3.9140	-0.6351	5.95	-0.02	-0.750			
0.1307	8364.88	3.9110	3.9109	-0.6443	5.95	-0.02	-0.750			
0.1327	8493.05	3.9080	3.9079	-0.6523	5.95	-0.02	-0.750			
0.1347	8620.03	3.9050	3.9051	-0.6558	5.95	-0.02	-0.750			
0.1367	8746.98	3.9020	3.9021	-0.6645	5.95	-0.02	-0.750			
0.1386	8873.09	3.8990	3.8991	-0.6658	5.95	-0.02	-0.750			
0.1406	8998.08	3.8960	3.8959	-0.6651	5.96	-0.01	-0.750			
0.1426	9125.80	3.8930	3.8931	-0.6735	5.96	-0.01	-0.750			
0.1447	9259.18	3.8900	3.8901	-0.6795	5.96	-0.01	-0.750			
0.1467	9389.95	3.8870	3.8865	-0.6781	5.97	-0.00	-0.750			
0.1488	9521.94	3.8840	3.8845	-0.6772	5.97	0.00	-0.750			
0.1508	9650.51	3.8810	3.8810	-0.6760	5.97	0.00	-0.750			
0.1528	9777.26	3.8780	3.8780	-0.6878	5.98	0.01	-0.750			
0.1549	9910.93	3.8750	3.8749	-0.6965	5.98	0.01	-0.750			
0.1569	10043.86	3.8720	3.8718	-0.6971	5.99	0.02	-0.750			
0.1591	10179.96	3.8690	3.8690	-0.7054	5.99	0.02	-0.750			
0.1612	10318.02	3.8660	3.8664	-0.7089	6.00	0.03	-0.750			
0.1633	10453.82	3.8630	3.8629	-0.7109	6.01	0.04	-0.750			
0.1655	10588.81	3.8600	3.8600	-0.7100	6.01	0.04	-0.750			
0.1676	10724.37	3.8570	3.8569	-0.7130	6.02	0.05	-0.750			
0.1697	10863.58	3.8540	3.8540	-0.7172	6.02	0.05	-0.750			
0.1719	11002.02	3.8510	3.8510	-0.7191	6.03	0.06	-0.750			
0.1741	11140.67	3.8480	3.8481	-0.7167	6.03	0.06	-0.750			
0.1762	11278.17	3.8450	3.8448	-0.7161	6.03	0.06	-0.750			
0.1783	11412.07	3.8420	3.8421	-0.7221	6.04	0.07	-0.750			
0.1805	11551.96	3.8390	3.8389	-0.7177	6.04	0.07	-0.750			
0.1827	11692.62	3.8360	3.8359	-0.7193	6.04	0.07	-0.750			
0.1848	11829.94	3.8330	3.8330	-0.7177	6.05	0.08	-0.750			
0.1870	11967.98	3.8300	3.8301	-0.7125	6.05	0.08	-0.750			
0.1891	12104.12	3.8270	3.8268	-0.7106	6.06	0.09	-0.750			
0.1912	12235.35	3.8240	3.8240	-0.7115	6.07	0.10	-0.750			
0.1933	12371.96	3.8210	3.8211	-0.7109	6.07	0.10	-0.750			
0.1955	12512.03	3.8180	3.8179	-0.7217	6.08	0.11	-0.750			
0.1977	12652.20	3.8150	3.8149	-0.7241	6.09	0.12	-0.750			
0.1999	12791.06	3.8120	3.8121	-0.7233	6.09	0.12	-0.750			
0.2021	12931.97	3.8090	3.8089	-0.7261	6.10	0.13	-0.750			
0.2042	13069.56	3.8060	3.8060	-0.7267	6.11	0.14	-0.750			
0.2064	13206.75	3.8030	3.8030	-0.7226	6.11	0.14	-0.750			
0.2086	13348.50	3.8000	3.8001	-0.7269	6.12	0.15	-0.750			
0.2108	13488.48	3.7970	3.7970	-0.7255	6.13	0.16	-0.750			
0.2129	13627.04	3.7940	3.7940	-0.7296	6.13	0.16	-0.750			
0.2151	13766.75	3.7910	3.7910	-0.7314	6.14	0.17	-0.750			
0.2173	13907.37	3.7880	3.7879	-0.7365	6.14	0.17	-0.750			
0.2195	14049.40	3.7850	3.7850	-0.7348	6.14	0.17	-0.750			
0.2218	14192.92	3.7820	3.7820	-0.7406	6.15	0.18	-0.750			
0.2240	14334.47	3.7790	3.7792	-0.7474	6.15	0.18	-0.750			
0.2262	14478.74	3.7760	3.7759	-0.7468	6.16	0.19	-0.750			
0.2285	14621.47	3.7730	3.7729	-0.7494	6.17	0.20	-0.750			
0.2307	14766.07	3.7700	3.7701	-0.7509	6.18	0.21	-0.750			
0.2330	14911.89	3.7670	3.7670	-0.7583	6.19	0.22	-0.750			
0.2353	15057.59	3.7640	3.7640	-0.7580	6.21	0.24	-0.750			
0.2375	15202.60	3.7610	3.7609	-0.7536	6.21	0.24	-0.750			
0.2398	15346.21	3.7580	3.7579	-0.7541	6.22	0.25	-0.750			
0.2421	15491.58	3.7550	3.7551	-0.7641	6.23	0.26	-0.750			
0.2443	15636.63	3.7520	3.7520	-0.7670	6.24	0.27	-0.750			
0.2467	15786.65	3.7490	3.7490	-0.7736	6.24	0.27	-0.750			
0.2490	15934.92	3.7460	3.7462	-0.7794	6.25	0.28	-0.750			
0.2513	16084.63	3.7430	3.7429	-0.7862	6.26	0.29	-0.750			
0.2537	16237.55	3.7400	3.7401	-0.7979	6.26	0.29	-0.750			
0.2561	16391.87	3.7370	3.7369	-0.7958	6.27	0.30	-0.750			
0.2585	16545.90	3.7340	3.7340	-0.8021	6.27	0.30	-0.750			
0.2609	16700.49	3.7310	3.7312	-0.8049	6.28	0.31	-0.750			
0.2634	16854.49	3.7280	3.7279	-0.8104	6.29	0.32	-0.750			
0.2658	17008.69	3.7250	3.7250	-0.8182	6.29	0.32	-0.750			
0.2682	17165.38	3.7220	3.7220	-0.8237	6.30	0.33	-0.750			
0.2707	17325.50	3.7190	3.7189	-0.8257	6.30	0.33	-0.750			
0.2733	17488.48	3.7160	3.7161	-0.8359	6.31	0.34	-0.750			
0.2757	17647.52	3.7130	3.7130	-0.8376	6.31	0.34	-0.750			
0.2783	17808.21	3.7100	3.7099	-0.8443	6.32	0.35	-0.750			
0.2808	17970.49	3.7070	3.7069	-0.8473	6.32	0.35	-0.750			
0.2833	18131.83	3.7040	3.7041	-0.8492	6.33	0.36	-0.750			
0.2859	18298.41	3.7010	3.7011	-0.8605	6.33	0.36	-0.750			
0.2885	18463.83	3.6980	3.6980	-0.8704	6.34	0.37	-0.750			
0.2911	18630.34	3.6950	3.6949	-0.8725	6.35	0.38	-0.750			
0.2937	18797.44	3.6920	3.6920	-0.8786	6.35	0.38	-0.750			
0.2964	18967.16	3.6890	3.6890	-0.8824	6.36	0.39	-0.750			
0.2990	19138.52	3.6860	3.6863	-0.8896	6.37	0.40	-0.750			
0.3017	19307.73	3.6830	3.6830	-0.9036	6.37	0.40	-0.750			
0.3044	19481.51	3.6800	3.6801	-0.9070	6.38	0.41	-0.750			
0.3071	19656.31	3.6770	3.6766	-0.9158	6.38	0.41	-0.750			
0.3099	19833.73	3.6740	3.6742	-0.9275	6.39	0.42	-0.750			
0.3127	20012.55	3.6710	3.6710	-0.9374	6.39	0.42	-0.750			
0.3156	20197.19	3.6680	3.6679	-0.9499	6.40	0.43	-0.750			
0.3184	20380.08	3.6650	3.6648	-0.9525	6.40	0.43	-0.750			
0.3213	20560.59	3.6620	3.6621	-0.9485	6.41	0.44	-0.750			
0.3241	20744.52	3.6590	3.6592	-0.9664	6.41	0.44	-0.750			
0.3271	20932.61	3.6560	3.6559	-0.9685	6.41	0.44	-0.750			
0.3300	21119.38	3.6530	3.6529	-0.9658	6.42	0.45	-0.750			
0.3328	21302.21	3.6500	3.6501	-0.9705	6.42	0.45	-0.750			
0.3358	21490.85	3.6470	3.6472	-0.9893	6.42	0.45	-0.750			
0.3387	21679.10	3.6440	3.6437	-0.9981	6.42	0.45	-0.750			
0.3417	21870.74	3.6410	3.6409	-1.0073	6.42	0.45	-0.750			
0.3447	22063.62	3.6380	3.6380	-1.0144	6.43	0.46	-0.750			
0.3478	22261.61	3.6350	3.6350	-1.0292	6.43	0.46	-0.750			
0.3510	22464.97	3.6320	3.6320	-1.0448	6.43	0.46	-0.750			
0.3542	22665.79	3.6290	3.6289	-1.0422	6.44	0.47	-0.750			
0.3574	22871.13	3.6260	3.6259	-1.0256	6.44	0.47	-0.750			
0.3605	23070.04	3.6230	3.6228	-1.0023	6.45	0.48	-0.750			
0.3635	23260.85	3.6200	3.6201	-0.9969	6.45	0.48	-0.750			
0.3663	23445.00	3.6170	3.6174	-0.9894	6.46	0.49	-0.750			
0.3691	23625.36	3.6140	3.6136	-0.9880	6.46	0.49	-0.750			
0.3721	23813.14	3.6110	3.6108	-1.0090	6.47	0.50	-0.750			
0.3751	24008.46	3.6080	3.6078	-1.0477	6.47	0.50	-0.750			
0.3784	24215.84	3.6050	3.6051	-1.0838	6.47	0.50	-0.750			
0.3818	24436.53	3.6020	3.6019	-1.1105	6.47	0.50	-0.750			
0.3852	24650.15	3.5990	3.5991	-1.1193	6.47	0.50	-0.750			
0.3886	24871.46	3.5960	3.5959	-1.1384	6.47	0.50	-0.750			
0.3920	25089.45	3.5930	3.5929	-1.1523	6.48	0.51	-0.750			
0.3955	25313.38	3.5900	3.5899	-1.1558	6.48	0.51	-0.750			
0.3989	25532.43	3.5870	3.5873	-1.1612	6.49	0.52	-0.750			
0.4025	25762.89	3.5840	3.5838	-1.1746	6.50	0.53	-0.750	0.467	1.081	
0.4061	25988.23	3.5810	3.5808	-1.1765	6.50	0.53	-0.750			
0.4095	26207.43	3.5780	3.5780	-1.1937	6.51	0.54	-0.750			
0.4131	26439.87	3.5750	3.5750	-1.2019	6.51	0.54	-0.750			
0.4167	26667.14	3.5720	3.5719	-1.2059	6.51	0.54	-0.750			
0.4204	26907.03	3.5690	3.5689	-1.2327	6.51	0.54	-0.750			
0.4241	27144.84	3.5660	3.5663	-1.2390	6.51	0.54	-0.750			
0.4279	27386.36	3.5630	3.5629	-1.2486	6.52	0.55	-0.750			
0.4314	27609.81	3.5600	3.5602	-1.3427	6.53	0.56	-0.750			
0.4356	27876.09	3.5570	3.5569	-1.4137	6.55	0.58	-0.750			
0.4400	28162.55	3.5540	3.5533	-1.4722	6.56	0.59	-0.750			
0.4447	28457.85	3.5510	3.5505	-1.4849	6.56	0.59	-0.750			
0.4494	28759.77	3.5480	3.5488	-1.4982	6.57	0.60	-0.750			
0.4540	29054.98	3.5450	3.5450	-1.4625	6.59	0.62	-0.750			
0.4583	29333.68	3.5420	3.5418	-1.4128	6.60	0.63	-0.750			
0.4621	29573.23	3.5390	3.5392	-1.3512	6.61	0.64	-0.750			
0.4663	29841.52	3.5360	3.5359	-1.3720	6.62	0.65	-0.750			
0.4704	30104.37	3.5330	3.5329	-1.3781	6.62	0.65	-0.750			
0.4745	30371.05	3.5300	3.5301	-1.3914	6.63	0.66	-0.750			
0.4788	30642.19	3.5270	3.5269	-1.4054	6.65	0.68	-0.750			
0.4830	30912.15	3.5240	3.5239	-1.4178	6.66	0.69	-0.750			
0.4873	31184.19	3.5210	3.5212	-1.4165	6.67	0.70	-0.750			
0.4915	31456.85	3.5180	3.5179	-1.4390	6.69	0.72	-0.750			
0.4958	31732.11	3.5150	3.5150	-1.4524	6.70	0.73	-0.750			
0.5002	32010.51	3.5120	3.5120	-1.4458	6.71	0.74	-0.750			
0.5046	32296.39	3.5090	3.5088	-1.4763	6.72	0.75	-0.750			
0.5091	32581.62	3.5060	3.5060	-1.4828	6.73	0.76	-0.750			
0.5136	32867.62	3.5030	3.5029	-1.4804	6.74	0.77	-0.750			
0.5180	33153.82	3.5000	3.5000	-1.4810	6.75	0.78	-0.750			
0.5224	33433.64	3.4970	3.4969	-1.4788	6.77	0.80	-0.750			
0.5269	33720.28	3.4940	3.4939	-1.4772	6.78	0.81	-0.750			
0.5314	34006.67	3.4910	3.4909	-1.4909	6.79	0.82	-0.750			
0.5358	34289.47	3.4880	3.4881	-1.4885	6.81	0.84	-0.750			
0.5403	34577.67	3.4850	3.4849	-1.4923	6.82	0.85	-0.750			
0.5448	34869.85	3.4820	3.4823	-1.4989	6.84	0.87	-0.750			
0.5493	35157.63	3.4790	3.4791	-1.5019	6.85	0.88	-0.750			
0.5538	35444.79	3.4760	3.4758	-1.4891	6.86	0.89	-0.750			
0.5584	35734.62	3.4730	3.4730	-1.4849	6.87	0.90	-0.750			
0.5628	36018.24	3.4700	3.4701	-1.4800	6.88	0.91	-0.750			
0.5672	36302.25	3.4670	3.4670	-1.4782	6.90	0.93	-0.750			
0.5716	36581.45	3.4640	3.4639	-1.4769	6.92	0.95	-0.750			
0.5759	36859.36	3.4610	3.4610	-1.4664	6.94	0.97	-0.750			
0.5804	37148.24	3.4580	3.4579	-1.4705	6.95	0.98	-0.750			
0.5849	37433.63	3.4550	3.4549	-1.4728	6.96	0.99	-0.750			
0.5893	37716.34	3.4520	3.4520	-1.4557	6.97	1.00	-0.750			
0.5937	37994.62	3.4490	3.4489	-1.4327	6.99	1.02	-0.750			
0.5979	38266.56	3.4460	3.4461	-1.4143	7.01	1.04	-0.750			
0.6021	38534.10	3.4430	3.4430	-1.3922	7.03	1.06	-0.750			
0.6063	38803.39	3.4400	3.4398	-1.3768	7.05	1.08	-0.750			
0.6104	39065.31	3.4370	3.4371	-1.3668	7.07	1.10	-0.750			
0.6145	39324.83	3.4340	3.4339	-1.3461	7.08	1.11	-0.750			
0.6186	39588.77	3.4310	3.4308	-1.3270	7.09	1.12	-0.750			
0.6225	39840.20	3.4280	3.4281	-1.3069	7.11	1.14	-0.750			
0.6263	40085.70	3.4250	3.4249	-1.2773	7.12	1.15	-0.750			
0.6302	40331.38	3.4220	3.4220	-1.2567	7.14	1.17	-0.750			
0.6339	40570.12	3.4190	3.4188	-1.2322	7.16	1.19	-0.750			
0.6375	40799.73	3.4160	3.4161	-1.2010	7.18	1.21	-0.750			
0.6412	41034.30	3.4130	3.4130	-1.1853	7.19	1.22	-0.750			
0.6447	41259.89	3.4100	3.4100	-1.1569	7.21	1.24	-0.750			
0.6481	41477.79	3.4070	3.4070	-1.1271	7.23	1.26	-0.750			
0.6515	41693.64	3.4040	3.4040	-1.1088	7.25	1.28	-0.750			
0.6547	41903.19	3.4010	3.4009	-1.0783	7.27	1.30	-0.750			
0.6579	42107.40	3.3980	3.3980	-1.0521	7.29	1.32	-0.750			
0.6610	42307.10	3.3950	3.3952	-1.0273	7.31	1.34	-0.750			
0.6641	42502.76	3.3920	3.3919	-1.0062	7.33	1.36	-0.750			
0.6671	42693.38	3.3890	3.3890	-0.9800	7.35	1.38	-0.750			
0.6700	42877.66	3.3860	3.3860	-0.9515	7.37	1.40	-0.750			
0.6728	43058.64	3.3830	3.3829	-0.9270	7.38	1.41	-0.750			
0.6756	43236.00	3.3800	3.3800	-0.9065	7.40	1.43	-0.750			
0.6782	43406.21	3.3770	3.3770	-0.8817	7.41	1.44	-0.750			
0.6808	43572.37	3.3740	3.3740	-0.8579	7.42	1.45	-0.750			
0.6833	43733.70	3.3710	3.3709	-0.8332	7.44	1.47	-0.750			
0.6858	43893.48	3.3680	3.3680	-0.8143	7.45	1.48	-0.750			
0.6882	44047.38	3.3650	3.3651	-0.7950	7.46	1.49	-0.750			
0.6906	44198.90	3.3620	3.3620	-0.7755	7.48	1.51	-0.750			
0.6929	44344.99	3.3590	3.3590	-0.7541	7.50	1.53	-0.750			
0.6951	44486.66	3.3560	3.3560	-0.7338	7.51	1.54	-0.750			
0.6973	44625.80	3.3530	3.3530	-0.7171	7.53	1.56	-0.750			
0.6994	44761.70	3.3500	3.3500	-0.7001	7.55	1.58	-0.750			
0.7015	44894.53	3.3470	3.3470	-0.6843	7.56	1.59	-0.750			
0.7035	45023.65	3.3440	3.3440	-0.6681	7.57	1.60	-0.750			
0.7055	45151.39	3.3410	3.3410	-0.6557	7.59	1.62	-0.750			
0.7074	45276.16	3.3380	3.3380	-0.6387	7.60	1.63	-0.750			
0.7093	45397.76	3.3350	3.3350	-0.6216	7.62	1.65	-0.750			
0.7112	45515.51	3.3320	3.3323	-0.6048	7.63	1.66	-0.750			
0.7130	45629.81	3.3290	3.3289	-0.5858	7.64	1.67	-0.750			
0.7147	45740.33	3.3260	3.3260	-0.5673	7.66	1.69	-0.750			
0.7164	45847.84	3.3230	3.3230	-0.5571	7.67	1.70	-0.750			
