Ah_balance (normalized)	Ah_balance (mAh)	Voltage - fit (V)	Voltage -  interpolate (V)	dQ/dV (1/V)	Temperature (°C)	Temperature - diff (°C)	Current (C)	R_DC 0ms (mOhm)	R_DC 50ms (mOhm)	R_DC 50 ms PEC (mOhm)
0.1887	12074.51	4.0820	4.0820	0.8415	7.39	1.41	0.750			
0.1912	12236.25	4.0790	4.0790	0.8378	7.39	1.41	0.750			
0.1936	12392.43	4.0760	4.0760	0.8215	7.39	1.41	0.750			
0.1961	12549.26	4.0730	4.0730	0.8194	7.39	1.41	0.750			
0.1985	12705.53	4.0700	4.0701	0.8185	7.39	1.41	0.750			
0.2010	12861.92	4.0670	4.0669	0.8222	7.39	1.41	0.750			
0.2035	13021.97	4.0640	4.0640	0.8218	7.39	1.41	0.750			
0.2059	13179.44	4.0610	4.0611	0.8259	7.38	1.40	0.750			
0.2084	13339.26	4.0580	4.0579	0.8289	7.38	1.40	0.750			
0.2109	13497.86	4.0550	4.0550	0.8281	7.37	1.39	0.750			
0.2134	13656.59	4.0520	4.0519	0.8293	7.37	1.39	0.750			
0.2159	13816.47	4.0490	4.0491	0.8305	7.37	1.39	0.750			
0.2184	13976.07	4.0460	4.0460	0.8341	7.36	1.38	0.750			
0.2209	14137.71	4.0430	4.0430	0.8392	7.36	1.38	0.750			
0.2234	14298.04	4.0400	4.0401	0.8395	7.35	1.37	0.750			
0.2259	14459.76	4.0370	4.0370	0.8469	7.35	1.37	0.750			
0.2285	14622.80	4.0340	4.0340	0.8518	7.35	1.37	0.750			
0.2310	14786.44	4.0310	4.0310	0.8569	7.35	1.37	0.750			
0.2336	14951.66	4.0280	4.0280	0.8614	7.35	1.37	0.750			
0.2362	15117.13	4.0250	4.0250	0.8701	7.35	1.37	0.750			
0.2389	15287.31	4.0220	4.0220	0.8688	7.35	1.37	0.750			
0.2415	15454.86	4.0190	4.0190	0.8665	7.34	1.36	0.750			
0.2441	15620.85	4.0160	4.0160	0.8663	7.34	1.36	0.750			
0.2467	15786.87	4.0130	4.0131	0.8669	7.34	1.36	0.750			
0.2492	15951.86	4.0100	4.0099	0.8684	7.33	1.35	0.750			
0.2519	16118.83	4.0070	4.0070	0.8702	7.33	1.35	0.750			
0.2545	16286.48	4.0040	4.0039	0.8650	7.33	1.35	0.750			
0.2571	16453.81	4.0010	4.0011	0.8763	7.33	1.35	0.750			
0.2597	16622.18	3.9980	3.9981	0.8776	7.33	1.35	0.750			
0.2623	16789.49	3.9950	3.9949	0.8799	7.33	1.35	0.750			
0.2650	16959.14	3.9920	3.9920	0.8849	7.33	1.35	0.750			
0.2676	17128.07	3.9890	3.9891	0.8893	7.32	1.34	0.750			
0.2703	17300.54	3.9860	3.9859	0.8978	7.32	1.34	0.750			
0.2731	17476.11	3.9830	3.9830	0.9047	7.31	1.33	0.750			
0.2758	17648.20	3.9800	3.9799	0.9045	7.31	1.33	0.750			
0.2785	17824.28	3.9770	3.9770	0.9051	7.30	1.32	0.750			
0.2812	17997.26	3.9740	3.9740	0.9088	7.29	1.31	0.750			
0.2839	18172.15	3.9710	3.9710	0.9110	7.28	1.30	0.750			
0.2866	18345.51	3.9680	3.9680	0.9171	7.27	1.29	0.750			
0.2894	18522.11	3.9650	3.9650	0.9239	7.27	1.29	0.750			
0.2922	18701.00	3.9620	3.9620	0.9281	7.27	1.29	0.750			
0.2950	18879.06	3.9590	3.9591	0.9369	7.27	1.29	0.750			
0.2978	19061.78	3.9560	3.9560	0.9455	7.27	1.29	0.750			
0.3007	19242.86	3.9530	3.9529	0.9441	7.27	1.29	0.750			
0.3035	19426.24	3.9500	3.9501	0.9442	7.27	1.29	0.750			
0.3064	19606.69	3.9470	3.9471	0.9486	7.26	1.28	0.750			
0.3092	19789.03	3.9440	3.9440	0.9553	7.26	1.28	0.750			
0.3121	19971.31	3.9410	3.9409	0.9605	7.25	1.27	0.750			
0.3149	20155.85	3.9380	3.9381	0.9647	7.25	1.27	0.750			
0.3178	20342.00	3.9350	3.9350	0.9777	7.24	1.26	0.750			
0.3208	20531.15	3.9320	3.9321	0.9885	7.24	1.26	0.750			
0.3238	20721.68	3.9290	3.9290	0.9949	7.23	1.25	0.750			
0.3268	20915.41	3.9260	3.9260	1.0061	7.23	1.25	0.750			
0.3298	21109.14	3.9230	3.9230	1.0127	7.22	1.24	0.750			
0.3329	21303.52	3.9200	3.9200	1.0234	7.22	1.24	0.750			
0.3360	21501.16	3.9170	3.9170	1.0371	7.21	1.23	0.750			
0.3391	21702.15	3.9140	3.9140	1.0381	7.21	1.23	0.750			
0.3422	21902.31	3.9110	3.9110	1.0477	7.20	1.22	0.750			
0.3454	22103.99	3.9080	3.9081	1.0591	7.19	1.21	0.750			
0.3486	22307.59	3.9050	3.9051	1.0713	7.18	1.20	0.750			
0.3518	22514.87	3.9020	3.9019	1.0772	7.17	1.19	0.750			
0.3550	22721.05	3.8990	3.8990	1.0922	7.16	1.18	0.750			
0.3583	22930.69	3.8960	3.8961	1.1100	7.15	1.17	0.750			
0.3617	23147.17	3.8930	3.8930	1.1290	7.13	1.15	0.750			
0.3651	23365.54	3.8900	3.8900	1.1398	7.12	1.14	0.750			
0.3685	23585.20	3.8870	3.8871	1.1543	7.11	1.13	0.750			
0.3720	23809.40	3.8840	3.8840	1.1677	7.10	1.12	0.750			
0.3756	24037.52	3.8810	3.8808	1.1769	7.09	1.11	0.750			
0.3791	24260.90	3.8780	3.8781	1.1877	7.08	1.10	0.750			
0.3827	24489.95	3.8750	3.8750	1.2023	7.07	1.09	0.750			
0.3863	24724.78	3.8720	3.8720	1.2140	7.06	1.08	0.750			
0.3900	24957.57	3.8690	3.8691	1.2252	7.04	1.06	0.750			
0.3936	25193.22	3.8660	3.8661	1.2441	7.03	1.05	0.750			
0.3974	25433.58	3.8630	3.8630	1.2672	7.02	1.04	0.750			
0.4012	25677.44	3.8600	3.8599	1.2918	7.01	1.03	0.750			
0.4051	25923.33	3.8570	3.8570	1.3231	7.00	1.02	0.750			
0.4091	26184.07	3.8540	3.8540	1.3604	6.98	1.00	0.750			
0.4133	26449.40	3.8510	3.8508	1.3980	6.97	0.99	0.750			
0.4175	26721.74	3.8480	3.8477	1.4211	6.96	0.98	0.750	0.451	1.093	
0.4218	26998.38	3.8450	3.8452	1.4458	6.96	0.98	0.750			
0.4262	27277.45	3.8420	3.8420	1.4713	6.95	0.97	0.750			
0.4306	27559.80	3.8390	3.8389	1.4868	6.93	0.95	0.750			
0.4351	27844.65	3.8360	3.8358	1.5179	6.91	0.93	0.750			
0.4398	28144.83	3.8330	3.8331	1.5575	6.89	0.91	0.750			
0.4445	28448.83	3.8300	3.8299	1.5972	6.87	0.89	0.750			
0.4493	28755.51	3.8270	3.8270	1.6256	6.86	0.88	0.750			
0.4542	29068.77	3.8240	3.8242	1.6361	6.84	0.86	0.750			
0.4592	29388.11	3.8210	3.8210	1.6801	6.82	0.84	0.750			
0.4643	29712.06	3.8180	3.8179	1.6985	6.81	0.83	0.750			
0.4694	30040.46	3.8150	3.8149	1.7252	6.78	0.80	0.750			
0.4746	30374.19	3.8120	3.8121	1.7707	6.76	0.78	0.750			
0.4800	30718.75	3.8090	3.8089	1.8096	6.74	0.76	0.750			
0.4855	31071.84	3.8060	3.8060	1.8718	6.72	0.74	0.750			
0.4913	31441.08	3.8030	3.8030	1.9354	6.70	0.72	0.750			
0.4971	31817.21	3.8000	3.8002	1.9751	6.68	0.70	0.750			
0.5031	32198.15	3.7970	3.7971	2.0011	6.66	0.68	0.750			
0.5091	32582.29	3.7940	3.7939	2.0573	6.63	0.65	0.750			
0.5154	32985.67	3.7910	3.7910	2.1109	6.60	0.62	0.750			
0.5218	33396.26	3.7880	3.7880	2.1600	6.57	0.59	0.750			
0.5283	33812.38	3.7850	3.7850	2.1596	6.54	0.56	0.750			
0.5349	34230.60	3.7820	3.7820	2.1810	6.52	0.54	0.750			
0.5413	34643.77	3.7790	3.7790	2.2042	6.49	0.51	0.750			
0.5479	35066.98	3.7760	3.7759	2.3236	6.46	0.48	0.750			
0.5550	35522.30	3.7730	3.7729	2.3696	6.44	0.46	0.750			
0.5624	35996.18	3.7700	3.7702	2.3728	6.41	0.43	0.750			
0.5694	36440.79	3.7670	3.7670	2.3516	6.38	0.40	0.750			
0.5762	36875.39	3.7640	3.7638	2.3513	6.35	0.37	0.750			
0.5833	37331.63	3.7610	3.7611	2.4256	6.31	0.33	0.750			
0.5909	37819.52	3.7580	3.7580	2.4623	6.28	0.30	0.750			
0.5982	38286.15	3.7550	3.7551	2.5019	6.26	0.28	0.750			
0.6058	38772.02	3.7520	3.7518	2.5882	6.22	0.24	0.750			
0.6137	39275.45	3.7490	3.7490	2.6956	6.19	0.21	0.750			
0.6221	39814.50	3.7460	3.7461	2.9097	6.16	0.18	0.750			
0.6310	40381.16	3.7430	3.7430	3.0385	6.13	0.15	0.750			
0.6405	40989.22	3.7400	3.7400	3.2738	6.10	0.12	0.750			
0.6504	41625.90	3.7370	3.7370	3.3615	6.07	0.09	0.750			
0.6609	42299.75	3.7340	3.7339	3.3981	6.05	0.07	0.750			
0.6711	42952.12	3.7310	3.7310	3.3114	6.02	0.04	0.750			
0.6809	43579.24	3.7280	3.7280	3.0979	6.00	0.02	0.750			
0.6901	44166.11	3.7250	3.7250	2.8243	5.98	-0.00	0.750			
0.6979	44664.18	3.7220	3.7220	2.3774	5.97	-0.01	0.750			
0.7041	45061.95	3.7190	3.7190	1.9708	5.97	-0.01	0.750			
0.7091	45383.34	3.7160	3.7161	1.6191	5.96	-0.02	0.750			
0.7134	45658.76	3.7130	3.7128	1.3650	5.96	-0.02	0.750			
0.7169	45879.70	3.7100	3.7100	1.1359	5.96	-0.02	0.750			
0.7200	46077.86	3.7070	3.7069	1.0099	5.96	-0.02	0.750			
0.7226	46244.27	3.7040	3.7040	0.8965	5.96	-0.02	0.750			
0.7250	46401.58	3.7010	3.7008	0.8069	5.96	-0.02	0.750			
0.7273	46547.43	3.6980	3.6981	0.7388	5.96	-0.02	0.750			
0.7294	46683.00	3.6950	3.6950	0.6795	5.97	-0.01	0.750			
0.7314	46808.90	3.6920	3.6920	0.6236	5.97	-0.01	0.750			
0.7332	46924.49	3.6890	3.6890	0.5681	5.97	-0.01	0.750			
0.7348	47025.57	3.6860	3.6860	0.5092	5.97	-0.01	0.750			
0.7362	47117.46	3.6830	3.6830	0.4577	5.98	-0.00	0.750			
0.7375	47198.82	3.6800	3.6800	0.4076	5.98	-0.00	0.750			
0.7386	47271.89	3.6770	3.6771	0.3626	5.98	0.00	0.750			
0.7396	47336.63	3.6740	3.6739	0.3190	5.98	0.00	0.750			
0.7405	47393.68	3.6710	3.6711	0.2774	5.98	0.00	0.750			
0.7413	47442.79	3.6680	3.6680	0.2369	5.99	0.01	0.750			
0.7419	47484.47	3.6650	3.6650	0.1968	5.99	0.01	0.750			
0.7425	47518.75	3.6620	3.6619	0.1571	5.99	0.01	0.750			
0.7429	47544.23	3.6590	3.6593	0.1160	5.99	0.01	0.750			
0.7432	47562.88	3.6560	3.6568	0.0762	5.99	0.01	0.750			
0.7433	47573.88	3.6530	3.6542	0.0357	5.99	0.01	0.750			
0.7434	47576.84	3.6500	3.6523	-0.0048	5.99	0.01	0.750			
