Ah_balance (normalized)	Ah_balance (mAh)	Voltage - fit (V)	Voltage -  interpolate (V)	dQ/dV (1/V)	Temperature (°C)	Temperature - diff (°C)	Current (C)	R_DC 0ms (mOhm)	R_DC 50ms (mOhm)	R_DC 50 ms PEC (mOhm)
0.1802	11530.23	4.0800	4.0801	0.8013	7.05	1.08	0.750			
0.1825	11682.22	4.0770	4.0770	0.7898	7.05	1.08	0.750			
0.1849	11833.49	4.0740	4.0740	0.7848	7.05	1.08	0.750			
0.1872	11982.30	4.0710	4.0710	0.7887	7.04	1.07	0.750			
0.1896	12132.81	4.0680	4.0681	0.7930	7.04	1.07	0.750			
0.1920	12285.97	4.0650	4.0647	0.7977	7.04	1.07	0.750			
0.1944	12439.65	4.0620	4.0622	0.8012	7.04	1.07	0.750			
0.1968	12596.53	4.0590	4.0590	0.8010	7.04	1.07	0.750			
0.1992	12750.65	4.0560	4.0560	0.7979	7.03	1.06	0.750			
0.2016	12902.05	4.0530	4.0531	0.7892	7.03	1.06	0.750			
0.2039	13051.98	4.0500	4.0499	0.7930	7.03	1.06	0.750			
0.2063	13204.10	4.0470	4.0470	0.7943	7.02	1.05	0.750			
0.2087	13357.66	4.0440	4.0439	0.7955	7.02	1.05	0.750			
0.2111	13510.60	4.0410	4.0410	0.8007	7.01	1.04	0.750			
0.2135	13664.90	4.0380	4.0381	0.8036	7.01	1.04	0.750			
0.2159	13819.26	4.0350	4.0349	0.8118	7.00	1.03	0.750			
0.2184	13975.07	4.0320	4.0320	0.8127	7.00	1.03	0.750			
0.2208	14133.81	4.0290	4.0290	0.8053	7.00	1.03	0.750			
0.2232	14287.92	4.0260	4.0260	0.8159	6.99	1.02	0.750			
0.2257	14445.25	4.0230	4.0231	0.8248	6.99	1.02	0.750			
0.2282	14602.39	4.0200	4.0201	0.8257	6.99	1.02	0.750			
0.2307	14761.64	4.0170	4.0171	0.8314	6.99	1.02	0.750			
0.2332	14923.00	4.0140	4.0142	0.8309	6.98	1.01	0.750			
0.2357	15085.04	4.0110	4.0110	0.8357	6.98	1.01	0.750			
0.2382	15245.83	4.0080	4.0080	0.8434	6.98	1.01	0.750			
0.2407	15403.61	4.0050	4.0050	0.8365	6.97	1.00	0.750			
0.2432	15564.80	4.0020	4.0020	0.8442	6.97	1.00	0.750			
0.2458	15728.30	3.9990	3.9990	0.8504	6.96	0.99	0.750			
0.2483	15890.70	3.9960	3.9961	0.8457	6.96	0.99	0.750			
0.2508	16054.39	3.9930	3.9931	0.8521	6.96	0.99	0.750			
0.2534	16216.09	3.9900	3.9900	0.8545	6.95	0.98	0.750			
0.2559	16379.64	3.9870	3.9871	0.8598	6.95	0.98	0.750			
0.2585	16545.86	3.9840	3.9840	0.8623	6.94	0.97	0.750			
0.2611	16712.54	3.9810	3.9811	0.8666	6.94	0.97	0.750			
0.2638	16882.79	3.9780	3.9780	0.8821	6.93	0.96	0.750			
0.2664	17046.98	3.9750	3.9747	0.8717	6.93	0.96	0.750			
0.2690	17215.28	3.9720	3.9720	0.8748	6.93	0.96	0.750			
0.2716	17383.16	3.9690	3.9690	0.8805	6.92	0.95	0.750			
0.2743	17552.71	3.9660	3.9661	0.8890	6.92	0.95	0.750			
0.2770	17725.43	3.9630	3.9630	0.8959	6.91	0.94	0.750			
0.2796	17897.59	3.9600	3.9601	0.8974	6.91	0.94	0.750			
0.2824	18071.05	3.9570	3.9570	0.8948	6.90	0.93	0.750			
0.2850	18242.81	3.9540	3.9541	0.9035	6.90	0.93	0.750			
0.2878	18416.62	3.9510	3.9510	0.9050	6.90	0.93	0.750			
0.2905	18589.11	3.9480	3.9479	0.9091	6.89	0.92	0.750			
0.2932	18763.87	3.9450	3.9451	0.9154	6.89	0.92	0.750			
0.2960	18940.81	3.9420	3.9420	0.9189	6.89	0.92	0.750			
0.2987	19117.19	3.9390	3.9391	0.9262	6.88	0.91	0.750			
0.3015	19295.65	3.9360	3.9360	0.9355	6.88	0.91	0.750			
0.3043	19474.06	3.9330	3.9327	0.9412	6.88	0.91	0.750			
0.3071	19657.33	3.9300	3.9299	0.9458	6.87	0.90	0.750			
0.3100	19838.91	3.9270	3.9271	0.9566	6.87	0.90	0.750			
0.3129	20024.93	3.9240	3.9240	0.9687	6.86	0.89	0.750			
0.3158	20211.26	3.9210	3.9209	0.9706	6.85	0.88	0.750			
0.3188	20400.81	3.9180	3.9180	0.9723	6.84	0.87	0.750			
0.3217	20586.79	3.9150	3.9150	0.9835	6.83	0.86	0.750			
0.3246	20776.60	3.9120	3.9121	0.9924	6.82	0.85	0.750			
0.3276	20967.00	3.9090	3.9090	0.9985	6.81	0.84	0.750			
0.3307	21163.30	3.9060	3.9061	0.9975	6.81	0.84	0.750			
0.3336	21351.59	3.9030	3.9031	1.0163	6.80	0.83	0.750			
0.3367	21546.77	3.9000	3.9001	1.0386	6.80	0.83	0.750			
0.3398	21747.88	3.8970	3.8971	1.0588	6.79	0.82	0.750			
0.3430	21953.58	3.8940	3.8939	1.0648	6.79	0.82	0.750			
0.3462	22159.32	3.8910	3.8912	1.0891	6.78	0.81	0.750			
0.3496	22373.13	3.8880	3.8880	1.1011	6.78	0.81	0.750			
0.3529	22587.52	3.8850	3.8850	1.1129	6.77	0.80	0.750			
0.3563	22800.98	3.8820	3.8821	1.1013	6.76	0.79	0.750			
0.3595	23010.94	3.8790	3.8790	1.1147	6.75	0.78	0.750			
0.3629	23227.39	3.8760	3.8761	1.1246	6.74	0.77	0.750			
0.3663	23446.23	3.8730	3.8727	1.1341	6.73	0.76	0.750			
0.3697	23659.38	3.8700	3.8702	1.1408	6.73	0.76	0.750			
0.3731	23880.69	3.8670	3.8671	1.1664	6.72	0.75	0.750			
0.3766	24105.45	3.8640	3.8641	1.1844	6.71	0.74	0.750			
0.3802	24334.17	3.8610	3.8610	1.1952	6.71	0.74	0.750			
0.3838	24565.42	3.8580	3.8581	1.2157	6.70	0.73	0.750			
0.3876	24803.29	3.8550	3.8551	1.2446	6.68	0.71	0.750			
0.3914	25046.57	3.8520	3.8516	1.2494	6.67	0.70	0.750			
0.3951	25286.57	3.8490	3.8490	1.2718	6.66	0.69	0.750			
0.3989	25528.41	3.8460	3.8462	1.3131	6.66	0.69	0.750			
0.4029	25783.14	3.8430	3.8429	1.3468	6.65	0.68	0.750			
0.4070	26045.72	3.8400	3.8400	1.3787	6.64	0.67	0.750			
0.4112	26316.81	3.8370	3.8372	1.4122	6.63	0.66	0.750	0.403	0.954	
0.4155	26594.01	3.8340	3.8340	1.4196	6.61	0.64	0.750			
0.4198	26870.05	3.8310	3.8312	1.4542	6.60	0.63	0.750			
0.4242	27150.44	3.8280	3.8280	1.4765	6.59	0.62	0.750			
0.4286	27433.32	3.8250	3.8248	1.4863	6.57	0.60	0.750			
0.4331	27718.83	3.8220	3.8224	1.5021	6.56	0.59	0.750			
0.4378	28016.70	3.8190	3.8191	1.5350	6.54	0.57	0.750			
0.4424	28313.96	3.8160	3.8159	1.5617	6.53	0.56	0.750			
0.4471	28611.24	3.8130	3.8129	1.6071	6.51	0.54	0.750			
0.4519	28918.71	3.8100	3.8102	1.6376	6.50	0.53	0.750			
0.4569	29243.11	3.8070	3.8069	1.6831	6.48	0.51	0.750			
0.4621	29572.17	3.8040	3.8041	1.7389	6.47	0.50	0.750			
0.4673	29910.26	3.8010	3.8010	1.7474	6.46	0.49	0.750			
0.4726	30247.16	3.7980	3.7979	1.7811	6.44	0.47	0.750			
0.4780	30589.15	3.7950	3.7949	1.8116	6.42	0.45	0.750			
0.4834	30938.76	3.7920	3.7918	1.8058	6.41	0.44	0.750			
0.4889	31290.18	3.7890	3.7893	1.8639	6.40	0.43	0.750			
0.4946	31657.39	3.7860	3.7862	1.9248	6.38	0.41	0.750			
0.5003	32021.24	3.7830	3.7831	1.9416	6.36	0.39	0.750			
0.5062	32399.18	3.7800	3.7802	1.9578	6.33	0.36	0.750			
0.5123	32788.23	3.7770	3.7769	2.0156	6.32	0.35	0.750			
0.5182	33165.03	3.7740	3.7741	2.0282	6.30	0.33	0.750			
0.5246	33571.46	3.7710	3.7712	2.0758	6.27	0.30	0.750			
0.5307	33962.24	3.7680	3.7678	2.0987	6.25	0.28	0.750			
0.5371	34371.63	3.7650	3.7649	2.0993	6.24	0.27	0.750			
0.5433	34773.00	3.7620	3.7621	2.1430	6.22	0.25	0.750			
0.5498	35186.31	3.7590	3.7589	2.1465	6.20	0.23	0.750			
0.5563	35603.11	3.7560	3.7560	2.1708	6.18	0.21	0.750			
0.5629	36027.48	3.7530	3.7532	2.2340	6.16	0.19	0.750			
0.5697	36458.94	3.7500	3.7501	2.2486	6.14	0.17	0.750			
0.5765	36893.79	3.7470	3.7469	2.3131	6.12	0.15	0.750			
0.5837	37355.22	3.7440	3.7440	2.3459	6.09	0.12	0.750			
0.5906	37796.89	3.7410	3.7411	2.4363	6.06	0.09	0.750			
0.5979	38268.77	3.7380	3.7379	2.4771	6.04	0.07	0.750			
0.6058	38772.63	3.7350	3.7351	2.6273	6.02	0.05	0.750			
0.6138	39285.33	3.7320	3.7319	2.7050	6.00	0.03	0.750			
0.6220	39809.78	3.7290	3.7288	2.7541	5.98	0.01	0.750			
0.6305	40351.32	3.7260	3.7259	2.7170	5.97	-0.00	0.750			
0.6386	40872.69	3.7230	3.7231	2.6481	5.95	-0.02	0.750			
0.6464	41366.60	3.7200	3.7200	2.5643	5.95	-0.02	0.750			
0.6541	41863.87	3.7170	3.7170	2.4429	5.94	-0.03	0.750			
0.6613	42321.71	3.7140	3.7138	2.2734	5.92	-0.05	0.750			
0.6678	42741.30	3.7110	3.7108	2.0510	5.91	-0.06	0.750			
0.6734	43095.08	3.7080	3.7080	1.8457	5.92	-0.05	0.750			
0.6788	43445.13	3.7050	3.7046	1.6830	5.93	-0.04	0.750			
0.6838	43762.90	3.7020	3.7016	1.5214	5.93	-0.04	0.750			
0.6881	44036.42	3.6990	3.6996	1.3406	5.94	-0.03	0.750			
0.6918	44277.10	3.6960	3.6963	1.1919	5.94	-0.03	0.750			
0.6951	44484.68	3.6930	3.6928	1.0423	5.94	-0.03	0.750			
0.6977	44652.15	3.6900	3.6899	0.9149	5.94	-0.03	0.750			
0.7003	44821.12	3.6870	3.6870	0.8601	5.95	-0.02	0.750			
0.7028	44980.71	3.6840	3.6839	0.8155	5.95	-0.02	0.750			
0.7052	45134.36	3.6810	3.6810	0.7703	5.95	-0.02	0.750			
0.7075	45277.99	3.6780	3.6780	0.7256	5.96	-0.01	0.750			
0.7096	45413.14	3.6750	3.6750	0.6787	5.96	-0.01	0.750			
0.7116	45539.50	3.6720	3.6720	0.6288	5.96	-0.01	0.750			
0.7134	45654.50	3.6690	3.6690	0.5794	5.96	-0.01	0.750			
0.7150	45761.68	3.6660	3.6661	0.5362	5.97	-0.00	0.750			
0.7165	45858.56	3.6630	3.6627	0.4910	5.97	-0.00	0.750			
0.7179	45948.69	3.6600	3.6599	0.4500	5.97	0.00	0.750			
0.7192	46029.95	3.6570	3.6570	0.4082	5.97	0.00	0.750			
0.7204	46104.78	3.6540	3.6541	0.3711	5.98	0.01	0.750			
0.7214	46172.66	3.6510	3.6510	0.3342	5.98	0.01	0.750			
0.7224	46232.43	3.6480	3.6478	0.2961	5.98	0.01	0.750			
0.7232	46284.76	3.6450	3.6451	0.2582	5.98	0.01	0.750			
0.7239	46331.55	3.6420	3.6420	0.2213	5.98	0.01	0.750			
0.7245	46371.08	3.6390	3.6389	0.1853	5.98	0.01	0.750			
0.7251	46403.57	3.6360	3.6360	0.1480	5.98	0.01	0.750			
0.7254	46427.74	3.6330	3.6333	0.1097	5.98	0.01	0.750			
0.7257	46445.63	3.6300	3.6307	0.0708	5.98	0.01	0.750			
0.7259	46455.74	3.6270	3.6286	0.0265	5.98	0.01	0.750			
