Ah_balance (normalized)	Ah_balance (mAh)	Voltage - fit (V)	Voltage -  interpolate (V)	dQ/dV (1/V)	Temperature (°C)	Temperature - diff (°C)	Current (C)	R_DC 0ms (mOhm)	R_DC 50ms (mOhm)	R_DC 50 ms PEC (mOhm)
0.1572	10058.87	4.0750	4.0751	0.8383	7.94	1.95	0.750			
0.1596	10215.65	4.0720	4.0719	0.8044	7.94	1.95	0.750			
0.1620	10369.53	4.0690	4.0690	0.8057	7.94	1.95	0.750			
0.1644	10524.53	4.0660	4.0661	0.8112	7.93	1.94	0.750			
0.1669	10681.25	4.0630	4.0628	0.8160	7.93	1.94	0.750			
0.1694	10838.62	4.0600	4.0600	0.8199	7.93	1.94	0.750			
0.1718	10995.10	4.0570	4.0571	0.8232	7.92	1.93	0.750			
0.1743	11155.21	4.0540	4.0540	0.8293	7.92	1.93	0.750			
0.1768	11314.27	4.0510	4.0510	0.8319	7.91	1.92	0.750			
0.1793	11474.65	4.0480	4.0479	0.8335	7.91	1.92	0.750			
0.1818	11635.14	4.0450	4.0450	0.8362	7.90	1.91	0.750			
0.1843	11796.51	4.0420	4.0420	0.8322	7.89	1.90	0.750			
0.1868	11955.31	4.0390	4.0390	0.8301	7.89	1.90	0.750			
0.1893	12113.68	4.0360	4.0361	0.8313	7.88	1.89	0.750			
0.1918	12272.78	4.0330	4.0328	0.8366	7.87	1.88	0.750			
0.1943	12432.88	4.0300	4.0300	0.8376	7.87	1.88	0.750			
0.1968	12594.98	4.0270	4.0270	0.8443	7.87	1.88	0.750			
0.1994	12758.82	4.0240	4.0240	0.8491	7.86	1.87	0.750			
0.2019	12921.99	4.0210	4.0211	0.8485	7.86	1.87	0.750			
0.2045	13086.19	4.0180	4.0180	0.8515	7.86	1.87	0.750			
0.2070	13249.46	4.0150	4.0150	0.8551	7.85	1.86	0.750			
0.2096	13412.67	4.0120	4.0120	0.8582	7.85	1.86	0.750			
0.2122	13578.38	4.0090	4.0090	0.8646	7.84	1.85	0.750			
0.2148	13745.50	4.0060	4.0061	0.8684	7.83	1.84	0.750			
0.2174	13912.65	4.0030	4.0030	0.8716	7.83	1.84	0.750			
0.2200	14081.11	4.0000	4.0000	0.8696	7.82	1.83	0.750			
0.2226	14247.65	3.9970	3.9971	0.8743	7.82	1.83	0.750			
0.2252	14414.97	3.9940	3.9940	0.8756	7.81	1.82	0.750			
0.2279	14582.60	3.9910	3.9910	0.8802	7.80	1.81	0.750			
0.2305	14752.46	3.9880	3.9880	0.8846	7.80	1.81	0.750			
0.2332	14922.95	3.9850	3.9850	0.8891	7.79	1.80	0.750			
0.2358	15093.96	3.9820	3.9820	0.8942	7.78	1.79	0.750			
0.2386	15267.59	3.9790	3.9790	0.9003	7.78	1.79	0.750			
0.2412	15439.58	3.9760	3.9758	0.8976	7.77	1.78	0.750			
0.2439	15612.56	3.9730	3.9730	0.9013	7.76	1.77	0.750			
0.2466	15785.16	3.9700	3.9700	0.9041	7.75	1.76	0.750			
0.2494	15958.99	3.9670	3.9670	0.9096	7.74	1.75	0.750			
0.2521	16133.89	3.9640	3.9640	0.9116	7.74	1.75	0.750			
0.2548	16307.83	3.9610	3.9610	0.9182	7.73	1.74	0.750			
0.2576	16486.69	3.9580	3.9580	0.9147	7.72	1.73	0.750			
0.2604	16662.46	3.9550	3.9550	0.9291	7.71	1.72	0.750			
0.2631	16841.03	3.9520	3.9520	0.9336	7.70	1.71	0.750			
0.2659	17020.46	3.9490	3.9489	0.9402	7.69	1.70	0.750			
0.2688	17202.20	3.9460	3.9461	0.9460	7.69	1.70	0.750			
0.2716	17385.09	3.9430	3.9430	0.9526	7.68	1.69	0.750			
0.2745	17567.90	3.9400	3.9400	0.9567	7.68	1.69	0.750			
0.2774	17752.03	3.9370	3.9371	0.9557	7.67	1.68	0.750			
0.2803	17937.13	3.9340	3.9340	0.9653	7.67	1.68	0.750			
0.2832	18123.16	3.9310	3.9310	0.9759	7.66	1.67	0.750			
0.2861	18310.92	3.9280	3.9280	0.9834	7.65	1.66	0.750			
0.2891	18501.22	3.9250	3.9250	0.9909	7.64	1.65	0.750			
0.2921	18691.51	3.9220	3.9220	0.9993	7.63	1.64	0.750			
0.2951	18884.17	3.9190	3.9190	1.0045	7.62	1.63	0.750			
0.2981	19078.40	3.9160	3.9160	1.0092	7.61	1.62	0.750			
0.3011	19270.74	3.9130	3.9131	1.0170	7.60	1.61	0.750			
0.3042	19466.47	3.9100	3.9099	1.0243	7.59	1.60	0.750			
0.3073	19664.41	3.9070	3.9070	1.0307	7.58	1.59	0.750			
0.3103	19861.24	3.9040	3.9040	1.0494	7.57	1.58	0.750			
0.3135	20063.40	3.9010	3.9011	1.0606	7.56	1.57	0.750			
0.3167	20270.42	3.8980	3.8977	1.0754	7.55	1.56	0.750			
0.3200	20477.99	3.8950	3.8951	1.0891	7.54	1.55	0.750			
0.3232	20687.54	3.8920	3.8921	1.1027	7.52	1.53	0.750			
0.3266	20902.54	3.8890	3.8890	1.1166	7.51	1.52	0.750			
0.3300	21117.75	3.8860	3.8860	1.1134	7.50	1.51	0.750			
0.3333	21330.43	3.8830	3.8830	1.1343	7.49	1.50	0.750			
0.3367	21549.75	3.8800	3.8801	1.1541	7.48	1.49	0.750			
0.3402	21772.32	3.8770	3.8769	1.1715	7.46	1.47	0.750			
0.3437	21998.49	3.8740	3.8741	1.1928	7.45	1.46	0.750			
0.3473	22230.24	3.8710	3.8710	1.2086	7.44	1.45	0.750			
0.3510	22465.93	3.8680	3.8680	1.2282	7.42	1.43	0.750			
0.3547	22703.49	3.8650	3.8651	1.2398	7.41	1.42	0.750			
0.3584	22940.74	3.8620	3.8620	1.2646	7.39	1.40	0.750			
0.3623	23185.10	3.8590	3.8590	1.2867	7.38	1.39	0.750			
0.3662	23435.97	3.8560	3.8559	1.3003	7.36	1.37	0.750			
0.3701	23686.18	3.8530	3.8531	1.3254	7.35	1.36	0.750			
0.3741	23944.18	3.8500	3.8501	1.3507	7.33	1.34	0.750			
0.3782	24205.91	3.8470	3.8468	1.3686	7.31	1.32	0.750			
0.3823	24469.09	3.8440	3.8440	1.3865	7.29	1.30	0.750			
0.3865	24734.79	3.8410	3.8411	1.4217	7.27	1.28	0.750			
0.3908	25011.97	3.8380	3.8379	1.4644	7.25	1.26	0.750			
0.3953	25296.86	3.8350	3.8351	1.4898	7.23	1.24	0.750	0.446	1.023	
0.3998	25588.15	3.8320	3.8320	1.5223	7.22	1.23	0.750			
0.4045	25885.70	3.8290	3.8291	1.5610	7.20	1.21	0.750			
0.4092	26187.91	3.8260	3.8260	1.5824	7.17	1.18	0.750			
0.4140	26495.46	3.8230	3.8230	1.6113	7.14	1.15	0.750			
0.4188	26801.83	3.8200	3.8201	1.6438	7.12	1.13	0.750			
0.4238	27122.69	3.8170	3.8169	1.6784	7.10	1.11	0.750			
0.4289	27449.95	3.8140	3.8138	1.7076	7.08	1.09	0.750			
0.4341	27780.47	3.8110	3.8111	1.7548	7.06	1.07	0.750			
0.4394	28122.20	3.8080	3.8080	1.7966	7.03	1.04	0.750			
0.4448	28467.01	3.8050	3.8048	1.8457	7.00	1.01	0.750			
0.4504	28824.60	3.8020	3.8021	1.8781	6.97	0.98	0.750			
0.4562	29193.95	3.7990	3.7990	1.9315	6.94	0.95	0.750			
0.4620	29569.56	3.7960	3.7960	1.9705	6.92	0.93	0.750			
0.4680	29951.11	3.7930	3.7930	2.0061	6.90	0.91	0.750			
0.4740	30337.94	3.7900	3.7900	2.0618	6.87	0.88	0.750			
0.4803	30740.01	3.7870	3.7870	2.1135	6.83	0.84	0.750			
0.4867	31148.97	3.7840	3.7840	2.1559	6.80	0.81	0.750			
0.4933	31570.53	3.7810	3.7810	2.1918	6.77	0.78	0.750			
0.4999	31990.99	3.7780	3.7780	2.2452	6.74	0.75	0.750			
0.5067	32427.45	3.7750	3.7750	2.2715	6.71	0.72	0.750			
0.5135	32865.90	3.7720	3.7720	2.3123	6.67	0.68	0.750			
0.5206	33316.66	3.7690	3.7688	2.3588	6.64	0.65	0.750			
0.5276	33768.74	3.7660	3.7660	2.3958	6.60	0.61	0.750			
0.5350	34239.33	3.7630	3.7631	2.4562	6.56	0.57	0.750			
0.5424	34710.41	3.7600	3.7601	2.4586	6.53	0.54	0.750			
0.5498	35186.15	3.7570	3.7570	2.4842	6.48	0.49	0.750			
0.5572	35663.74	3.7540	3.7539	2.5402	6.45	0.46	0.750			
0.5649	36150.84	3.7510	3.7510	2.5901	6.42	0.43	0.750			
0.5729	36666.08	3.7480	3.7481	2.6912	6.38	0.39	0.750			
0.5811	37193.17	3.7450	3.7451	2.7604	6.34	0.35	0.750			
0.5894	37723.48	3.7420	3.7421	2.8585	6.30	0.31	0.750			
0.5981	38277.29	3.7390	3.7390	3.0034	6.26	0.27	0.750			
0.6074	38875.89	3.7360	3.7359	3.1426	6.21	0.22	0.750			
0.6171	39494.17	3.7330	3.7330	3.2825	6.17	0.18	0.750			
0.6272	40139.41	3.7300	3.7300	3.3034	6.14	0.15	0.750			
0.6372	40783.38	3.7270	3.7271	3.2716	6.10	0.11	0.750			
0.6469	41400.36	3.7240	3.7240	3.0727	6.06	0.07	0.750			
0.6559	41976.30	3.7210	3.7211	2.8186	6.03	0.04	0.750			
0.6637	42477.73	3.7180	3.7181	2.4281	6.01	0.02	0.750			
0.6703	42900.58	3.7150	3.7150	2.0748	6.00	0.01	0.750			
0.6760	43260.95	3.7120	3.7122	1.7940	5.99	0.00	0.750			
0.6808	43569.43	3.7090	3.7091	1.5327	5.99	0.00	0.750			
0.6849	43835.00	3.7060	3.7060	1.3306	5.99	0.00	0.750			
0.6884	44056.34	3.7030	3.7031	1.1644	5.99	0.00	0.750			
0.6916	44260.78	3.7000	3.6998	1.0425	5.99	0.00	0.750			
0.6944	44441.01	3.6970	3.6970	0.9439	5.99	0.00	0.750			
0.6971	44612.03	3.6940	3.6940	0.8700	5.99	0.00	0.750			
0.6995	44770.37	3.6910	3.6909	0.8076	5.99	0.00	0.750			
0.7019	44919.57	3.6880	3.6880	0.7503	5.99	0.00	0.750			
0.7040	45057.67	3.6850	3.6850	0.6934	5.99	0.00	0.750			
0.7061	45187.25	3.6820	3.6819	0.6383	5.99	0.00	0.750			
0.7079	45304.72	3.6790	3.6790	0.5807	5.99	0.00	0.750			
0.7095	45409.80	3.6760	3.6760	0.5220	5.99	0.00	0.750			
0.7110	45504.13	3.6730	3.6730	0.4668	5.99	0.00	0.750			
0.7123	45586.52	3.6700	3.6700	0.4143	5.99	0.00	0.750			
0.7134	45659.95	3.6670	3.6670	0.3676	5.99	0.00	0.750			
0.7145	45725.36	3.6640	3.6640	0.3228	5.99	0.00	0.750			
0.7154	45782.71	3.6610	3.6610	0.2846	5.99	0.00	0.750			
0.7161	45833.51	3.6580	3.6579	0.2446	5.99	0.00	0.750			
0.7168	45877.07	3.6550	3.6549	0.2072	5.99	0.00	0.750			
0.7174	45913.48	3.6520	3.6521	0.1692	5.99	0.00	0.750			
0.7179	45942.77	3.6490	3.6493	0.1301	5.99	0.00	0.750			
0.7182	45964.75	3.6460	3.6466	0.0869	5.99	0.00	0.750			
0.7184	45977.38	3.6430	3.6438	0.0360	5.99	0.00	0.750			
