Ah_balance (normalized)	Ah_balance (mAh)	Voltage - fit (V)	Voltage -  interpolate (V)	dQ/dV (1/V)	Temperature (°C)	Temperature - diff (°C)	Current (C)	R_DC 0ms (mOhm)	R_DC 50ms (mOhm)	R_DC 50 ms PEC (mOhm)
0.0964	6171.91	4.0040	4.0031	-0.0817	5.99	0.00	-0.750			
0.0967	6190.29	4.0010	4.0007	-0.1097	5.99	0.00	-0.750			
0.0971	6214.36	3.9980	3.9979	-0.1369	5.99	0.00	-0.750			
0.0976	6243.58	3.9950	3.9951	-0.1620	5.99	-0.00	-0.750			
0.0981	6277.28	3.9920	3.9921	-0.1861	5.99	-0.00	-0.750			
0.0987	6316.02	3.9890	3.9890	-0.2122	5.99	-0.00	-0.750			
0.0994	6358.90	3.9860	3.9860	-0.2361	5.98	-0.01	-0.750			
0.1001	6406.36	3.9830	3.9830	-0.2591	5.98	-0.01	-0.750			
0.1009	6458.64	3.9800	3.9800	-0.2822	5.98	-0.01	-0.750			
0.1018	6515.01	3.9770	3.9771	-0.3051	5.98	-0.01	-0.750			
0.1027	6575.83	3.9740	3.9740	-0.3284	5.97	-0.02	-0.750			
0.1038	6641.22	3.9710	3.9710	-0.3520	5.97	-0.02	-0.750			
0.1049	6710.68	3.9680	3.9680	-0.3748	5.97	-0.02	-0.750			
0.1060	6784.90	3.9650	3.9650	-0.4003	5.96	-0.03	-0.750			
0.1073	6864.78	3.9620	3.9620	-0.4231	5.96	-0.03	-0.750			
0.1086	6948.85	3.9590	3.9590	-0.4465	5.95	-0.04	-0.750			
0.1099	7036.68	3.9560	3.9562	-0.4680	5.95	-0.04	-0.750			
0.1114	7128.73	3.9530	3.9530	-0.4892	5.95	-0.04	-0.750			
0.1129	7224.76	3.9500	3.9499	-0.5093	5.95	-0.04	-0.750			
0.1144	7324.70	3.9470	3.9470	-0.5265	5.94	-0.05	-0.750			
0.1161	7427.62	3.9440	3.9440	-0.5486	5.94	-0.05	-0.750			
0.1177	7535.20	3.9410	3.9410	-0.5650	5.94	-0.05	-0.750			
0.1195	7646.19	3.9380	3.9380	-0.5798	5.93	-0.06	-0.750			
0.1212	7758.83	3.9350	3.9349	-0.5933	5.93	-0.06	-0.750			
0.1230	7874.41	3.9320	3.9321	-0.6060	5.93	-0.06	-0.750			
0.1249	7992.02	3.9290	3.9290	-0.6180	5.93	-0.06	-0.750			
0.1268	8112.11	3.9260	3.9259	-0.6293	5.93	-0.06	-0.750			
0.1286	8233.06	3.9230	3.9231	-0.6406	5.93	-0.06	-0.750			
0.1306	8358.81	3.9200	3.9200	-0.6525	5.93	-0.06	-0.750			
0.1326	8485.94	3.9170	3.9169	-0.6629	5.93	-0.06	-0.750			
0.1346	8614.57	3.9140	3.9142	-0.6660	5.93	-0.06	-0.750			
0.1366	8742.32	3.9110	3.9109	-0.6753	5.93	-0.06	-0.750			
0.1386	8872.26	3.9080	3.9080	-0.6806	5.92	-0.07	-0.750			
0.1407	9003.22	3.9050	3.9050	-0.6892	5.92	-0.07	-0.750			
0.1427	9134.88	3.9020	3.9020	-0.6955	5.92	-0.07	-0.750			
0.1449	9272.07	3.8990	3.8990	-0.7027	5.91	-0.08	-0.750			
0.1470	9407.53	3.8960	3.8960	-0.7062	5.91	-0.08	-0.750			
0.1491	9545.03	3.8930	3.8930	-0.7101	5.91	-0.08	-0.750			
0.1512	9679.92	3.8900	3.8900	-0.7100	5.92	-0.07	-0.750			
0.1534	9816.01	3.8870	3.8870	-0.7161	5.92	-0.07	-0.750			
0.1555	9953.90	3.8840	3.8839	-0.7166	5.92	-0.07	-0.750			
0.1577	10093.02	3.8810	3.8809	-0.7190	5.93	-0.06	-0.750			
0.1599	10230.93	3.8780	3.8782	-0.7234	5.93	-0.06	-0.750			
0.1620	10370.28	3.8750	3.8750	-0.7259	5.93	-0.06	-0.750			
0.1642	10509.84	3.8720	3.8720	-0.7271	5.94	-0.05	-0.750			
0.1664	10647.81	3.8690	3.8690	-0.7282	5.94	-0.05	-0.750			
0.1686	10789.19	3.8660	3.8661	-0.7316	5.94	-0.05	-0.750			
0.1708	10930.81	3.8630	3.8629	-0.7301	5.95	-0.04	-0.750			
0.1730	11070.11	3.8600	3.8601	-0.7344	5.95	-0.04	-0.750			
0.1752	11210.10	3.8570	3.8569	-0.7361	5.95	-0.04	-0.750			
0.1774	11351.74	3.8540	3.8539	-0.7409	5.96	-0.03	-0.750			
0.1796	11495.42	3.8510	3.8510	-0.7440	5.96	-0.03	-0.750			
0.1819	11639.10	3.8480	3.8480	-0.7440	5.97	-0.02	-0.750			
0.1841	11782.86	3.8450	3.8449	-0.7460	5.97	-0.02	-0.750			
0.1864	11926.71	3.8420	3.8420	-0.7462	5.97	-0.02	-0.750			
0.1886	12068.27	3.8390	3.8390	-0.7444	5.98	-0.01	-0.750			
0.1908	12210.88	3.8360	3.8359	-0.7470	5.98	-0.01	-0.750			
0.1930	12354.35	3.8330	3.8330	-0.7459	5.98	-0.01	-0.750			
0.1953	12499.30	3.8300	3.8300	-0.7508	5.99	-0.00	-0.750			
0.1976	12643.61	3.8270	3.8272	-0.7483	5.99	0.00	-0.750			
0.1998	12787.58	3.8240	3.8239	-0.7447	5.99	0.00	-0.750			
0.2020	12928.71	3.8210	3.8211	-0.7475	6.00	0.01	-0.750			
0.2042	13071.85	3.8180	3.8180	-0.7474	6.00	0.01	-0.750			
0.2065	13216.35	3.8150	3.8149	-0.7504	6.00	0.01	-0.750			
0.2087	13359.80	3.8120	3.8120	-0.7462	6.01	0.02	-0.750			
0.2110	13502.10	3.8090	3.8090	-0.7473	6.01	0.02	-0.750			
0.2132	13646.36	3.8060	3.8061	-0.7481	6.02	0.03	-0.750			
0.2154	13788.76	3.8030	3.8027	-0.7536	6.02	0.03	-0.750			
0.2177	13933.39	3.8000	3.8001	-0.7544	6.02	0.03	-0.750			
0.2200	14080.16	3.7970	3.7969	-0.7592	6.03	0.04	-0.750			
0.2223	14227.12	3.7940	3.7942	-0.7620	6.03	0.04	-0.750			
0.2246	14374.15	3.7910	3.7908	-0.7624	6.03	0.04	-0.750			
0.2268	14517.26	3.7880	3.7881	-0.7618	6.04	0.05	-0.750			
0.2291	14664.65	3.7850	3.7849	-0.7616	6.04	0.05	-0.750			
0.2314	14810.81	3.7820	3.7820	-0.7646	6.04	0.05	-0.750			
0.2337	14958.15	3.7790	3.7789	-0.7642	6.05	0.06	-0.750			
0.2360	15104.69	3.7760	3.7760	-0.7629	6.05	0.06	-0.750			
0.2383	15250.55	3.7730	3.7730	-0.7626	6.06	0.07	-0.750			
0.2406	15395.97	3.7700	3.7699	-0.7604	6.06	0.07	-0.750			
0.2428	15540.10	3.7670	3.7671	-0.7628	6.06	0.07	-0.750			
0.2451	15689.07	3.7640	3.7640	-0.7720	6.07	0.08	-0.750			
0.2475	15837.49	3.7610	3.7611	-0.7726	6.07	0.08	-0.750			
0.2498	15986.77	3.7580	3.7580	-0.7777	6.07	0.08	-0.750			
0.2521	16137.48	3.7550	3.7550	-0.7794	6.08	0.09	-0.750			
0.2545	16287.48	3.7520	3.7519	-0.7780	6.08	0.09	-0.750			
0.2568	16436.28	3.7490	3.7490	-0.7802	6.09	0.10	-0.750			
0.2591	16584.33	3.7460	3.7460	-0.7824	6.09	0.10	-0.750			
0.2615	16735.02	3.7430	3.7429	-0.7879	6.10	0.11	-0.750			
0.2638	16886.05	3.7400	3.7400	-0.7982	6.10	0.11	-0.750			
0.2663	17040.51	3.7370	3.7370	-0.7975	6.11	0.12	-0.750			
0.2687	17194.95	3.7340	3.7340	-0.8024	6.12	0.13	-0.750			
0.2711	17350.28	3.7310	3.7310	-0.8075	6.13	0.14	-0.750			
0.2735	17504.49	3.7280	3.7279	-0.8095	6.13	0.14	-0.750			
0.2759	17659.00	3.7250	3.7250	-0.8123	6.13	0.14	-0.750			
0.2784	17815.76	3.7220	3.7220	-0.8202	6.13	0.14	-0.750			
0.2808	17973.21	3.7190	3.7190	-0.8243	6.14	0.15	-0.750			
0.2834	18134.41	3.7160	3.7159	-0.8356	6.14	0.15	-0.750			
0.2859	18294.81	3.7130	3.7131	-0.8398	6.14	0.15	-0.750			
0.2884	18455.65	3.7100	3.7100	-0.8505	6.15	0.16	-0.750			
0.2909	18619.80	3.7070	3.7070	-0.8541	6.15	0.16	-0.750			
0.2935	18783.66	3.7040	3.7040	-0.8621	6.15	0.16	-0.750			
0.2961	18950.92	3.7010	3.7010	-0.8675	6.16	0.17	-0.750			
0.2987	19119.03	3.6980	3.6979	-0.8758	6.16	0.17	-0.750			
0.3014	19286.51	3.6950	3.6950	-0.8848	6.16	0.17	-0.750			
0.3040	19457.24	3.6920	3.6919	-0.8905	6.17	0.18	-0.750			
0.3067	19627.91	3.6890	3.6890	-0.8998	6.17	0.18	-0.750			
0.3094	19803.84	3.6860	3.6859	-0.9101	6.17	0.18	-0.750			
0.3121	19977.28	3.6830	3.6830	-0.9233	6.17	0.18	-0.750			
0.3150	20157.90	3.6800	3.6800	-0.9314	6.18	0.19	-0.750			
0.3178	20337.74	3.6770	3.6770	-0.9352	6.18	0.19	-0.750			
0.3206	20517.89	3.6740	3.6740	-0.9378	6.19	0.20	-0.750			
0.3234	20699.53	3.6710	3.6711	-0.9459	6.19	0.20	-0.750			
0.3262	20879.77	3.6680	3.6680	-0.9583	6.19	0.20	-0.750			
0.3291	21064.95	3.6650	3.6649	-0.9655	6.20	0.21	-0.750			
0.3320	21248.70	3.6620	3.6619	-0.9747	6.20	0.21	-0.750			
0.3350	21439.56	3.6590	3.6592	-0.9931	6.20	0.21	-0.750			
0.3380	21633.87	3.6560	3.6560	-1.0021	6.20	0.21	-0.750			
0.3410	21827.12	3.6530	3.6529	-1.0073	6.20	0.21	-0.750			
0.3441	22019.63	3.6500	3.6501	-1.0102	6.21	0.22	-0.750			
0.3471	22214.40	3.6470	3.6471	-1.0206	6.21	0.22	-0.750			
0.3502	22410.62	3.6440	3.6439	-1.0336	6.21	0.22	-0.750			
0.3533	22608.31	3.6410	3.6410	-1.0387	6.22	0.23	-0.750			
0.3564	22809.02	3.6380	3.6380	-1.0538	6.22	0.23	-0.750			
0.3596	23014.00	3.6350	3.6350	-1.0652	6.23	0.24	-0.750			
0.3628	23221.59	3.6320	3.6319	-1.0753	6.23	0.24	-0.750			
0.3661	23429.64	3.6290	3.6290	-1.0824	6.23	0.24	-0.750			
0.3693	23637.20	3.6260	3.6260	-1.0920	6.23	0.24	-0.750			
0.3726	23847.20	3.6230	3.6232	-1.1054	6.23	0.24	-0.750			
0.3759	24060.39	3.6200	3.6200	-1.1149	6.24	0.25	-0.750			
0.3793	24275.31	3.6170	3.6169	-1.1223	6.24	0.25	-0.750			
0.3827	24492.07	3.6140	3.6140	-1.1310	6.25	0.26	-0.750			
0.3862	24714.19	3.6110	3.6110	-1.1394	6.25	0.26	-0.750			
0.3895	24930.00	3.6080	3.6081	-1.1416	6.25	0.26	-0.750			
0.3929	25146.85	3.6050	3.6050	-1.1496	6.25	0.26	-0.750			
0.3963	25365.47	3.6020	3.6022	-1.1690	6.25	0.26	-0.750			
0.3999	25593.96	3.5990	3.5988	-1.1980	6.25	0.26	-0.750			
0.4036	25829.82	3.5960	3.5959	-1.2133	6.25	0.26	-0.750			
0.4073	26065.25	3.5930	3.5929	-1.2288	6.25	0.26	-0.750			
0.4110	26305.31	3.5900	3.5904	-1.2477	6.25	0.26	-0.750	0.485	1.097	
0.4148	26547.11	3.5870	3.5868	-1.2464	6.25	0.26	-0.750			
0.4185	26785.80	3.5840	3.5839	-1.2513	6.26	0.27	-0.750			
0.4222	27021.62	3.5810	3.5814	-1.2526	6.26	0.27	-0.750			
0.4260	27266.68	3.5780	3.5779	-1.2809	6.26	0.27	-0.750			
0.4299	27512.66	3.5750	3.5749	-1.2888	6.25	0.26	-0.750			
0.4337	27756.81	3.5720	3.5720	-1.3073	6.25	0.26	-0.750			
0.4377	28015.32	3.5690	3.5689	-1.3364	6.25	0.26	-0.750			
0.4418	28274.03	3.5660	3.5660	-1.3477	6.26	0.27	-0.750			
0.4458	28533.00	3.5630	3.5629	-1.3624	6.27	0.28	-0.750			
0.4500	28797.32	3.5600	3.5600	-1.3686	6.27	0.28	-0.750			
0.4541	29060.72	3.5570	3.5569	-1.3728	6.27	0.28	-0.750			
0.4582	29324.53	3.5540	3.5541	-1.3845	6.27	0.28	-0.750			
0.4623	29585.56	3.5510	3.5510	-1.3949	6.27	0.28	-0.750			
0.4666	29859.84	3.5480	3.5480	-1.4177	6.27	0.28	-0.750			
0.4708	30133.15	3.5450	3.5449	-1.4373	6.27	0.28	-0.750			
0.4752	30410.67	3.5420	3.5419	-1.4495	6.27	0.28	-0.750			
0.4796	30693.72	3.5390	3.5390	-1.4749	6.27	0.28	-0.750			
0.4841	30979.67	3.5360	3.5360	-1.4919	6.27	0.28	-0.750			
0.4886	31268.53	3.5330	3.5328	-1.4941	6.27	0.28	-0.750			
0.4931	31556.84	3.5300	3.5301	-1.4957	6.28	0.29	-0.750			
0.4976	31847.06	3.5270	3.5271	-1.5043	6.28	0.29	-0.750			
0.5021	32133.53	3.5240	3.5240	-1.5100	6.28	0.29	-0.750			
0.5066	32420.31	3.5210	3.5210	-1.5574	6.29	0.30	-0.750			
0.5113	32723.66	3.5180	3.5179	-1.5533	6.29	0.30	-0.750			
0.5161	33028.82	3.5150	3.5150	-1.5658	6.30	0.31	-0.750			
0.5208	33332.09	3.5120	3.5123	-1.5712	6.31	0.32	-0.750			
0.5255	33631.68	3.5090	3.5088	-1.5717	6.32	0.33	-0.750			
0.5303	33937.06	3.5060	3.5057	-1.5622	6.32	0.33	-0.750			
0.5349	34230.95	3.5030	3.5031	-1.5613	6.33	0.34	-0.750			
0.5395	34530.64	3.5000	3.4999	-1.5623	6.34	0.35	-0.750			
0.5443	34833.31	3.4970	3.4973	-1.5923	6.35	0.36	-0.750			
0.5491	35143.15	3.4940	3.4939	-1.5777	6.36	0.37	-0.750			
0.5538	35446.22	3.4910	3.4910	-1.5885	6.37	0.38	-0.750			
0.5586	35752.29	3.4880	3.4881	-1.5848	6.39	0.40	-0.750			
0.5634	36056.85	3.4850	3.4848	-1.5751	6.40	0.41	-0.750			
0.5682	36363.78	3.4820	3.4823	-1.5639	6.40	0.41	-0.750			
0.5728	36657.07	3.4790	3.4792	-1.5654	6.41	0.42	-0.750			
0.5774	36956.40	3.4760	3.4759	-1.5446	6.43	0.44	-0.750			
0.5821	37252.51	3.4730	3.4730	-1.5687	6.45	0.46	-0.750			
0.5868	37554.85	3.4700	3.4700	-1.5580	6.46	0.47	-0.750			
0.5915	37857.04	3.4670	3.4670	-1.5450	6.48	0.49	-0.750			
0.5961	38152.71	3.4640	3.4643	-1.5240	6.49	0.50	-0.750			
0.6007	38442.59	3.4610	3.4609	-1.4909	6.50	0.51	-0.750			
0.6051	38727.26	3.4580	3.4577	-1.4748	6.52	0.53	-0.750			
0.6095	39006.90	3.4550	3.4549	-1.4663	6.54	0.55	-0.750			
0.6138	39284.14	3.4520	3.4519	-1.4444	6.56	0.57	-0.750			
0.6182	39561.67	3.4490	3.4489	-1.4318	6.57	0.58	-0.750			
0.6224	39833.98	3.4460	3.4463	-1.4137	6.59	0.60	-0.750			
0.6268	40114.38	3.4430	3.4429	-1.4086	6.61	0.62	-0.750			
0.6309	40377.89	3.4400	3.4400	-1.4078	6.63	0.64	-0.750			
0.6351	40643.78	3.4370	3.4373	-1.4019	6.65	0.66	-0.750			
0.6394	40919.69	3.4340	3.4336	-1.3874	6.66	0.67	-0.750			
0.6436	41187.91	3.4310	3.4309	-1.3634	6.68	0.69	-0.750			
0.6476	41448.48	3.4280	3.4284	-1.3312	6.69	0.70	-0.750			
0.6517	41707.98	3.4250	3.4249	-1.3027	6.71	0.72	-0.750			
0.6555	41950.41	3.4220	3.4218	-1.2615	6.73	0.74	-0.750			
0.6590	42174.17	3.4190	3.4190	-1.2083	6.75	0.76	-0.750			
0.6627	42410.37	3.4160	3.4159	-1.1975	6.77	0.78	-0.750			
0.6662	42638.51	3.4130	3.4130	-1.1651	6.79	0.80	-0.750			
0.6697	42860.61	3.4100	3.4100	-1.1314	6.81	0.82	-0.750			
0.6730	43072.94	3.4070	3.4071	-1.1055	6.82	0.83	-0.750			
0.6763	43283.29	3.4040	3.4040	-1.0793	6.84	0.85	-0.750			
0.6795	43485.89	3.4010	3.4009	-1.0502	6.86	0.87	-0.750			
0.6826	43684.36	3.3980	3.3980	-1.0229	6.88	0.89	-0.750			
0.6856	43881.38	3.3950	3.3951	-0.9988	6.89	0.90	-0.750			
0.6886	44069.87	3.3920	3.3921	-0.9786	6.91	0.92	-0.750			
0.6915	44255.97	3.3890	3.3889	-0.9529	6.93	0.94	-0.750			
0.6943	44434.69	3.3860	3.3860	-0.9264	6.94	0.95	-0.750			
0.6970	44610.30	3.3830	3.3831	-0.9042	6.96	0.97	-0.750			
0.6997	44781.51	3.3800	3.3800	-0.8810	6.98	0.99	-0.750			
0.7023	44949.62	3.3770	3.3770	-0.8598	6.99	1.00	-0.750			
0.7049	45111.81	3.3740	3.3740	-0.8375	7.01	1.02	-0.750			
0.7073	45269.27	3.3710	3.3709	-0.8101	7.02	1.03	-0.750			
0.7098	45424.32	3.3680	3.3681	-0.7911	7.04	1.05	-0.750			
0.7121	45573.39	3.3650	3.3650	-0.7671	7.06	1.07	-0.750			
0.7143	45718.12	3.3620	3.3620	-0.7479	7.07	1.08	-0.750			
0.7166	45859.78	3.3590	3.3590	-0.7301	7.09	1.10	-0.750			
0.7187	45996.78	3.3560	3.3558	-0.7130	7.10	1.11	-0.750			
0.7208	46131.77	3.3530	3.3530	-0.6991	7.12	1.13	-0.750			
0.7229	46265.25	3.3500	3.3500	-0.6825	7.13	1.14	-0.750			
0.7249	46393.98	3.3470	3.3470	-0.6550	7.15	1.16	-0.750			
