Ah_balance (normalized)	Ah_balance (mAh)	Voltage - fit (V)	Voltage -  interpolate (V)	dQ/dV (1/V)	Temperature (°C)	Temperature - diff (°C)	Current (C)	R_DC 0ms (mOhm)	R_DC 50ms (mOhm)	R_DC 50 ms PEC (mOhm)
0.1798	11505.06	4.0800	4.0800	0.7551	7.33	1.34	0.750			
0.1821	11654.23	4.0770	4.0770	0.7827	7.33	1.34	0.750			
0.1844	11804.45	4.0740	4.0740	0.7856	7.33	1.34	0.750			
0.1868	11955.86	4.0710	4.0711	0.7865	7.32	1.33	0.750			
0.1892	12107.28	4.0680	4.0680	0.7884	7.32	1.33	0.750			
0.1915	12258.53	4.0650	4.0650	0.7897	7.31	1.32	0.750			
0.1939	12410.69	4.0620	4.0617	0.7910	7.31	1.32	0.750			
0.1963	12561.88	4.0590	4.0591	0.7953	7.31	1.32	0.750			
0.1987	12717.97	4.0560	4.0560	0.7911	7.30	1.31	0.750			
0.2011	12868.81	4.0530	4.0530	0.7966	7.30	1.31	0.750			
0.2035	13021.60	4.0500	4.0500	0.8018	7.30	1.31	0.750			
0.2058	13173.68	4.0470	4.0471	0.8037	7.29	1.30	0.750			
0.2083	13328.24	4.0440	4.0442	0.8091	7.29	1.30	0.750			
0.2107	13487.42	4.0410	4.0409	0.8080	7.29	1.30	0.750			
0.2132	13641.73	4.0380	4.0380	0.8106	7.28	1.29	0.750			
0.2156	13797.91	4.0350	4.0351	0.8214	7.28	1.29	0.750			
0.2180	13953.45	4.0320	4.0321	0.8200	7.28	1.29	0.750			
0.2205	14111.22	4.0290	4.0290	0.8233	7.28	1.29	0.750			
0.2230	14270.69	4.0260	4.0260	0.8227	7.28	1.29	0.750			
0.2255	14428.86	4.0230	4.0232	0.8287	7.28	1.29	0.750			
0.2280	14591.63	4.0200	4.0200	0.8355	7.27	1.28	0.750			
0.2305	14749.06	4.0170	4.0170	0.8311	7.27	1.28	0.750			
0.2329	14908.18	4.0140	4.0140	0.8328	7.27	1.28	0.750			
0.2354	15068.21	4.0110	4.0111	0.8378	7.26	1.27	0.750			
0.2380	15229.01	4.0080	4.0080	0.8341	7.26	1.27	0.750			
0.2405	15389.09	4.0050	4.0050	0.8417	7.26	1.27	0.750			
0.2430	15549.16	4.0020	4.0021	0.8439	7.25	1.26	0.750			
0.2455	15710.88	3.9990	3.9991	0.8500	7.25	1.26	0.750			
0.2480	15875.15	3.9960	3.9960	0.8551	7.24	1.25	0.750			
0.2506	16040.89	3.9930	3.9931	0.8629	7.24	1.25	0.750			
0.2533	16208.33	3.9900	3.9900	0.8674	7.24	1.25	0.750			
0.2559	16374.86	3.9870	3.9870	0.8673	7.23	1.24	0.750			
0.2585	16542.75	3.9840	3.9840	0.8705	7.23	1.24	0.750			
0.2611	16709.22	3.9810	3.9810	0.8722	7.22	1.23	0.750			
0.2637	16877.05	3.9780	3.9780	0.8743	7.22	1.23	0.750			
0.2663	17044.59	3.9750	3.9750	0.8744	7.21	1.22	0.750			
0.2690	17212.84	3.9720	3.9718	0.8784	7.21	1.22	0.750			
0.2716	17382.74	3.9690	3.9691	0.8812	7.20	1.21	0.750			
0.2742	17551.58	3.9660	3.9660	0.8850	7.20	1.21	0.750			
0.2769	17722.22	3.9630	3.9630	0.8929	7.19	1.20	0.750			
0.2796	17893.67	3.9600	3.9601	0.8984	7.19	1.20	0.750			
0.2823	18065.34	3.9570	3.9570	0.9045	7.18	1.19	0.750			
0.2850	18241.79	3.9540	3.9540	0.9033	7.17	1.18	0.750			
0.2877	18413.72	3.9510	3.9511	0.9110	7.17	1.18	0.750			
0.2905	18591.21	3.9480	3.9480	0.9086	7.16	1.17	0.750			
0.2933	18768.61	3.9450	3.9451	0.9006	7.15	1.16	0.750			
0.2959	18936.88	3.9420	3.9422	0.9008	7.15	1.16	0.750			
0.2984	19099.90	3.9390	3.9395	0.9159	7.14	1.15	0.750			
0.3012	19277.18	3.9360	3.9367	0.9445	7.14	1.15	0.750			
0.3041	19464.30	3.9330	3.9338	0.9623	7.13	1.14	0.750			
0.3070	19650.59	3.9300	3.9298	0.9750	7.13	1.14	0.750			
0.3100	19843.14	3.9270	3.9273	0.9785	7.12	1.13	0.750			
0.3132	20043.45	3.9240	3.9240	0.9925	7.12	1.13	0.750			
0.3160	20221.51	3.9210	3.9210	0.9670	7.12	1.13	0.750			
0.3188	20406.31	3.9180	3.9178	0.9753	7.11	1.12	0.750			
0.3218	20597.02	3.9150	3.9150	0.9842	7.10	1.11	0.750			
0.3248	20786.82	3.9120	3.9121	1.0054	7.09	1.10	0.750			
0.3279	20982.71	3.9090	3.9091	1.0220	7.08	1.09	0.750			
0.3309	21180.53	3.9060	3.9059	1.0299	7.07	1.08	0.750			
0.3341	21381.59	3.9030	3.9030	1.0319	7.07	1.08	0.750			
0.3371	21577.54	3.9000	3.9002	1.0611	7.06	1.07	0.750			
0.3404	21786.73	3.8970	3.8970	1.0594	7.06	1.07	0.750			
0.3437	21999.09	3.8940	3.8936	1.0355	7.05	1.06	0.750			
0.3468	22198.24	3.8910	3.8913	1.0000	7.04	1.05	0.750			
0.3496	22373.11	3.8880	3.8888	1.0101	7.04	1.05	0.750			
0.3524	22555.62	3.8850	3.8850	1.0598	7.03	1.04	0.750			
0.3556	22756.48	3.8820	3.8815	1.1015	7.02	1.03	0.750			
0.3589	22969.47	3.8790	3.8800	1.1254	7.01	1.02	0.750			
0.3626	23205.62	3.8760	3.8768	1.1802	7.01	1.02	0.750			
0.3663	23443.05	3.8730	3.8732	1.1999	7.00	1.01	0.750			
0.3699	23674.17	3.8700	3.8704	1.2094	6.99	1.00	0.750			
0.3735	23907.17	3.8670	3.8671	1.2365	6.98	0.99	0.750			
0.3772	24140.91	3.8640	3.8638	1.2383	6.98	0.99	0.750			
0.3811	24388.93	3.8610	3.8608	1.2630	6.97	0.98	0.750			
0.3849	24636.21	3.8580	3.8582	1.2737	6.96	0.97	0.750			
0.3888	24884.40	3.8550	3.8551	1.2835	6.95	0.96	0.750			
0.3927	25135.18	3.8520	3.8518	1.2761	6.93	0.94	0.750			
0.3964	25372.77	3.8490	3.8491	1.2775	6.92	0.93	0.750			
0.4002	25610.03	3.8460	3.8462	1.3014	6.91	0.92	0.750			
0.4041	25864.68	3.8430	3.8431	1.3359	6.90	0.91	0.750			
0.4081	26121.25	3.8400	3.8399	1.3757	6.89	0.90	0.750			
0.4123	26389.37	3.8370	3.8373	1.4139	6.87	0.88	0.750	0.404	0.949	
0.4167	26670.27	3.8340	3.8342	1.4425	6.86	0.87	0.750			
0.4211	26952.89	3.8310	3.8311	1.4789	6.84	0.85	0.750			
0.4257	27241.69	3.8280	3.8281	1.5040	6.83	0.84	0.750			
0.4301	27526.47	3.8250	3.8251	1.5064	6.82	0.83	0.750			
0.4347	27823.03	3.8220	3.8220	1.5220	6.80	0.81	0.750			
0.4393	28113.17	3.8190	3.8191	1.5604	6.78	0.79	0.750			
0.4440	28414.07	3.8160	3.8159	1.5891	6.76	0.77	0.750			
0.4488	28725.42	3.8130	3.8132	1.6135	6.75	0.76	0.750			
0.4536	29032.68	3.8100	3.8103	1.6636	6.73	0.74	0.750			
0.4587	29358.77	3.8070	3.8070	1.6975	6.71	0.72	0.750			
0.4638	29685.76	3.8040	3.8039	1.7410	6.70	0.71	0.750			
0.4692	30031.31	3.8010	3.8009	1.7567	6.68	0.69	0.750			
0.4746	30376.51	3.7980	3.7978	1.7871	6.66	0.67	0.750			
0.4800	30721.57	3.7950	3.7951	1.8434	6.64	0.65	0.750			
0.4855	31073.65	3.7920	3.7916	1.8879	6.62	0.63	0.750			
0.4912	31438.71	3.7890	3.7887	1.9118	6.60	0.61	0.750			
0.4970	31806.56	3.7860	3.7860	1.9655	6.58	0.59	0.750			
0.5030	32194.50	3.7830	3.7829	1.9700	6.55	0.56	0.750			
0.5091	32580.23	3.7800	3.7800	1.9990	6.52	0.53	0.750			
0.5149	32954.41	3.7770	3.7771	2.0074	6.50	0.51	0.750			
0.5210	33346.64	3.7740	3.7739	2.0457	6.48	0.49	0.750			
0.5272	33743.00	3.7710	3.7710	2.0933	6.46	0.47	0.750			
0.5338	34164.89	3.7680	3.7680	2.1582	6.44	0.45	0.750			
0.5404	34583.13	3.7650	3.7650	2.1596	6.42	0.43	0.750			
0.5468	34992.74	3.7620	3.7621	2.1654	6.39	0.40	0.750			
0.5533	35408.36	3.7590	3.7590	2.1931	6.36	0.37	0.750			
0.5598	35828.55	3.7560	3.7559	2.2593	6.34	0.35	0.750			
0.5668	36273.30	3.7530	3.7530	2.3010	6.32	0.33	0.750			
0.5737	36718.33	3.7500	3.7501	2.3401	6.30	0.31	0.750			
0.5807	37164.26	3.7470	3.7470	2.3795	6.27	0.28	0.750			
0.5880	37629.45	3.7440	3.7441	2.4352	6.25	0.26	0.750			
0.5955	38112.03	3.7410	3.7410	2.4869	6.22	0.23	0.750			
0.6029	38585.90	3.7380	3.7380	2.5774	6.19	0.20	0.750			
0.6108	39093.55	3.7350	3.7348	2.6457	6.16	0.17	0.750			
0.6190	39615.93	3.7320	3.7322	2.7916	6.13	0.14	0.750			
0.6274	40156.51	3.7290	3.7291	2.8353	6.10	0.11	0.750			
0.6361	40708.77	3.7260	3.7261	2.8341	6.08	0.09	0.750			
0.6447	41261.70	3.7230	3.7231	2.8022	6.07	0.08	0.750			
0.6531	41797.05	3.7200	3.7201	2.7412	6.04	0.05	0.750			
0.6611	42307.76	3.7170	3.7170	2.5127	6.02	0.03	0.750			
0.6683	42772.88	3.7140	3.7138	2.2778	6.01	0.02	0.750			
0.6749	43192.82	3.7110	3.7111	2.0657	6.00	0.01	0.750			
0.6807	43567.62	3.7080	3.7079	1.8309	5.99	0.00	0.750			
0.6858	43892.08	3.7050	3.7051	1.6466	5.98	-0.01	0.750			
0.6904	44187.17	3.7020	3.7020	1.4272	5.98	-0.01	0.750			
0.6941	44421.88	3.6990	3.6988	1.2460	5.97	-0.02	0.750			
0.6975	44637.73	3.6960	3.6960	1.0909	5.97	-0.02	0.750			
0.7005	44829.39	3.6930	3.6930	1.0004	5.97	-0.02	0.750			
0.7032	45003.83	3.6900	3.6900	0.9242	5.97	-0.02	0.750			
0.7058	45171.48	3.6870	3.6870	0.8631	5.97	-0.02	0.750			
0.7083	45331.79	3.6840	3.6841	0.8154	5.97	-0.02	0.750			
0.7107	45486.12	3.6810	3.6810	0.7752	5.98	-0.01	0.750			
0.7130	45630.59	3.6780	3.6780	0.7257	5.98	-0.01	0.750			
0.7151	45767.22	3.6750	3.6750	0.6818	5.98	-0.01	0.750			
0.7171	45891.55	3.6720	3.6720	0.6268	5.99	-0.00	0.750			
0.7189	46007.42	3.6690	3.6688	0.5762	5.99	-0.00	0.750			
0.7205	46112.94	3.6660	3.6661	0.5257	5.99	0.00	0.750			
0.7220	46208.61	3.6630	3.6631	0.4793	5.99	0.00	0.750			
0.7234	46295.37	3.6600	3.6600	0.4347	6.00	0.01	0.750			
0.7246	46373.08	3.6570	3.6569	0.3886	6.00	0.01	0.750			
0.7257	46444.08	3.6540	3.6540	0.3511	6.00	0.01	0.750			
0.7267	46507.55	3.6510	3.6509	0.3146	6.00	0.01	0.750			
0.7276	46564.37	3.6480	3.6481	0.2782	6.00	0.01	0.750			
0.7284	46615.08	3.6450	3.6449	0.2401	6.00	0.01	0.750			
0.7290	46657.37	3.6420	3.6419	0.2013	6.01	0.02	0.750			
0.7296	46692.50	3.6390	3.6390	0.1627	6.01	0.02	0.750			
0.7300	46721.49	3.6360	3.6363	0.1258	6.01	0.02	0.750			
0.7303	46741.71	3.6330	3.6335	0.0848	6.01	0.02	0.750			
0.7306	46755.36	3.6300	3.6307	0.0405	6.01	0.02	0.750			
0.7306	46758.89	3.6270	3.6295	-0.0038	6.01	0.02	0.750			
