Ah_balance (normalized)	Ah_balance (mAh)	Voltage - fit (V)	Voltage -  interpolate (V)	dQ/dV (1/V)	Temperature (°C)	Temperature - diff (°C)	Current (C)	R_DC 0ms (mOhm)	R_DC 50ms (mOhm)	R_DC 50 ms PEC (mOhm)
0.1799	11513.11	4.0810	4.0810	0.8240	7.25	1.28	0.750			
0.1823	11665.84	4.0780	4.0781	0.7882	7.25	1.28	0.750			
0.1846	11815.22	4.0750	4.0750	0.7844	7.25	1.28	0.750			
0.1870	11965.17	4.0720	4.0721	0.7903	7.24	1.27	0.750			
0.1893	12115.77	4.0690	4.0690	0.7935	7.24	1.27	0.750			
0.1918	12272.21	4.0660	4.0659	0.7909	7.23	1.26	0.750			
0.1941	12424.03	4.0630	4.0631	0.8006	7.23	1.26	0.750			
0.1966	12579.43	4.0600	4.0600	0.8061	7.23	1.26	0.750			
0.1990	12732.98	4.0570	4.0571	0.8061	7.22	1.25	0.750			
0.2014	12887.09	4.0540	4.0538	0.8045	7.22	1.25	0.750			
0.2038	13042.89	4.0510	4.0511	0.8052	7.21	1.24	0.750			
0.2062	13198.44	4.0480	4.0481	0.8102	7.21	1.24	0.750			
0.2087	13354.99	4.0450	4.0450	0.8131	7.20	1.23	0.750			
0.2111	13508.70	4.0420	4.0421	0.8097	7.20	1.23	0.750			
0.2135	13664.48	4.0390	4.0388	0.8163	7.19	1.22	0.750			
0.2160	13821.64	4.0360	4.0361	0.8196	7.19	1.22	0.750			
0.2184	13980.32	4.0330	4.0330	0.8232	7.18	1.21	0.750			
0.2209	14138.53	4.0300	4.0300	0.8254	7.18	1.21	0.750			
0.2234	14297.81	4.0270	4.0270	0.8283	7.17	1.20	0.750			
0.2259	14456.51	4.0240	4.0239	0.8302	7.17	1.20	0.750			
0.2284	14616.71	4.0210	4.0210	0.8306	7.17	1.20	0.750			
0.2309	14776.22	4.0180	4.0180	0.8335	7.16	1.19	0.750			
0.2334	14937.58	4.0150	4.0150	0.8368	7.16	1.19	0.750			
0.2359	15097.66	4.0120	4.0120	0.8369	7.15	1.18	0.750			
0.2384	15257.77	4.0090	4.0089	0.8422	7.15	1.18	0.750			
0.2410	15421.90	4.0060	4.0060	0.8390	7.15	1.18	0.750			
0.2435	15582.80	4.0030	4.0030	0.8433	7.14	1.17	0.750			
0.2460	15744.08	4.0000	4.0000	0.8482	7.14	1.17	0.750			
0.2485	15907.01	3.9970	3.9971	0.8498	7.13	1.16	0.750			
0.2511	16070.11	3.9940	3.9938	0.8527	7.13	1.16	0.750			
0.2537	16234.27	3.9910	3.9911	0.8548	7.12	1.15	0.750			
0.2562	16398.50	3.9880	3.9881	0.8606	7.12	1.15	0.750			
0.2588	16566.16	3.9850	3.9850	0.8677	7.11	1.14	0.750			
0.2614	16731.86	3.9820	3.9820	0.8687	7.10	1.13	0.750			
0.2640	16898.28	3.9790	3.9790	0.8723	7.10	1.13	0.750			
0.2667	17069.02	3.9760	3.9760	0.8716	7.09	1.12	0.750			
0.2693	17236.16	3.9730	3.9730	0.8769	7.09	1.12	0.750			
0.2719	17404.26	3.9700	3.9701	0.8797	7.08	1.11	0.750			
0.2746	17571.80	3.9670	3.9671	0.8841	7.07	1.10	0.750			
0.2772	17742.40	3.9640	3.9640	0.8916	7.07	1.10	0.750			
0.2799	17913.19	3.9610	3.9610	0.8951	7.06	1.09	0.750			
0.2826	18086.49	3.9580	3.9580	0.9062	7.06	1.09	0.750			
0.2854	18263.09	3.9550	3.9550	0.9197	7.05	1.08	0.750			
0.2881	18439.35	3.9520	3.9518	0.9182	7.05	1.08	0.750			
0.2909	18617.99	3.9490	3.9491	0.9197	7.04	1.07	0.750			
0.2937	18794.35	3.9460	3.9460	0.9241	7.04	1.07	0.750			
0.2964	18971.92	3.9430	3.9431	0.9309	7.03	1.06	0.750			
0.2992	19149.12	3.9400	3.9400	0.9343	7.02	1.05	0.750			
0.3020	19329.49	3.9370	3.9370	0.9397	7.02	1.05	0.750			
0.3049	19510.78	3.9340	3.9340	0.9432	7.02	1.05	0.750			
0.3077	19693.81	3.9310	3.9311	0.9507	7.01	1.04	0.750			
0.3106	19876.81	3.9280	3.9280	0.9601	7.01	1.04	0.750			
0.3134	20060.18	3.9250	3.9248	0.9600	7.01	1.04	0.750			
0.3163	20243.86	3.9220	3.9221	0.9662	7.00	1.03	0.750			
0.3192	20429.69	3.9190	3.9191	0.9800	6.99	1.02	0.750			
0.3222	20620.21	3.9160	3.9160	0.9970	6.98	1.01	0.750			
0.3252	20812.36	3.9130	3.9128	1.0030	6.97	1.00	0.750			
0.3283	21008.46	3.9100	3.9100	1.0084	6.97	1.00	0.750			
0.3313	21202.22	3.9070	3.9071	1.0136	6.96	0.99	0.750			
0.3344	21399.48	3.9040	3.9040	1.0233	6.96	0.99	0.750			
0.3374	21593.72	3.9010	3.9009	1.0353	6.95	0.98	0.750			
0.3405	21793.00	3.8980	3.8980	1.0312	6.95	0.98	0.750			
0.3436	21989.44	3.8950	3.8950	1.0490	6.94	0.97	0.750			
0.3468	22192.36	3.8920	3.8922	1.0712	6.94	0.97	0.750			
0.3500	22401.37	3.8890	3.8889	1.0908	6.93	0.96	0.750			
0.3533	22611.22	3.8860	3.8860	1.0993	6.92	0.95	0.750			
0.3566	22823.40	3.8830	3.8831	1.1155	6.91	0.94	0.750			
0.3600	23039.58	3.8800	3.8801	1.1270	6.90	0.93	0.750			
0.3634	23260.45	3.8770	3.8768	1.1459	6.89	0.92	0.750			
0.3668	23477.89	3.8740	3.8741	1.1394	6.88	0.91	0.750			
0.3702	23695.90	3.8710	3.8710	1.1564	6.88	0.91	0.750			
0.3737	23918.99	3.8680	3.8680	1.1729	6.87	0.90	0.750			
0.3772	24143.57	3.8650	3.8651	1.1877	6.86	0.89	0.750			
0.3808	24373.56	3.8620	3.8621	1.2109	6.85	0.88	0.750			
0.3845	24610.46	3.8590	3.8590	1.2359	6.83	0.86	0.750			
0.3883	24853.16	3.8560	3.8559	1.2384	6.81	0.84	0.750			
0.3921	25091.44	3.8530	3.8530	1.2733	6.80	0.83	0.750			
0.3959	25336.12	3.8500	3.8501	1.3005	6.80	0.83	0.750			
0.3999	25590.54	3.8470	3.8467	1.3141	6.79	0.82	0.750			
0.4038	25842.28	3.8440	3.8442	1.3490	6.78	0.81	0.750			
0.4079	26103.02	3.8410	3.8411	1.3806	6.77	0.80	0.750			
0.4121	26372.77	3.8380	3.8379	1.4030	6.75	0.78	0.750			
0.4163	26643.69	3.8350	3.8352	1.4207	6.74	0.77	0.750	0.388	0.933	
0.4207	26922.06	3.8320	3.8322	1.4584	6.73	0.76	0.750			
0.4251	27207.99	3.8290	3.8287	1.4883	6.71	0.74	0.750			
0.4296	27497.38	3.8260	3.8260	1.5064	6.70	0.73	0.750			
0.4341	27784.87	3.8230	3.8230	1.5273	6.68	0.71	0.750			
0.4388	28085.05	3.8200	3.8200	1.5531	6.67	0.70	0.750			
0.4434	28378.09	3.8170	3.8170	1.5878	6.65	0.68	0.750			
0.4482	28686.90	3.8140	3.8141	1.6270	6.64	0.67	0.750			
0.4532	29006.21	3.8110	3.8108	1.6510	6.62	0.65	0.750			
0.4582	29325.06	3.8080	3.8081	1.6926	6.61	0.64	0.750			
0.4635	29661.53	3.8050	3.8049	1.6592	6.59	0.62	0.750			
0.4685	29983.71	3.8020	3.8020	1.6164	6.56	0.59	0.750			
0.4731	30280.69	3.7990	3.7996	1.6469	6.54	0.57	0.750			
0.4780	30593.25	3.7960	3.7956	1.6648	6.52	0.55	0.750			
0.4828	30902.27	3.7930	3.7927	1.7699	6.51	0.54	0.750			
0.4882	31245.46	3.7900	3.7900	1.8438	6.49	0.52	0.750			
0.4942	31627.17	3.7870	3.7870	1.9185	6.47	0.50	0.750			
0.4999	31996.37	3.7840	3.7840	1.9837	6.45	0.48	0.750			
0.5061	32391.26	3.7810	3.7810	2.0241	6.43	0.46	0.750			
0.5121	32776.58	3.7780	3.7780	2.0399	6.41	0.44	0.750			
0.5183	33173.89	3.7750	3.7751	2.0292	6.39	0.42	0.750			
0.5246	33573.72	3.7720	3.7721	2.0665	6.37	0.40	0.750			
0.5307	33963.02	3.7690	3.7690	2.0902	6.35	0.38	0.750			
0.5371	34375.33	3.7660	3.7660	2.1552	6.33	0.36	0.750			
0.5438	34801.49	3.7630	3.7631	2.1926	6.31	0.34	0.750			
0.5504	35224.85	3.7600	3.7599	2.2129	6.29	0.32	0.750			
0.5572	35657.65	3.7570	3.7569	2.2042	6.27	0.30	0.750			
0.5638	36080.30	3.7540	3.7535	2.2271	6.25	0.28	0.750			
0.5704	36505.98	3.7510	3.7512	2.2427	6.23	0.26	0.750			
0.5771	36937.09	3.7480	3.7481	2.3705	6.21	0.24	0.750			
0.5843	37395.38	3.7450	3.7449	2.3797	6.18	0.21	0.750			
0.5916	37864.72	3.7420	3.7426	2.4112	6.16	0.19	0.750			
0.5990	38336.33	3.7390	3.7390	2.5555	6.14	0.17	0.750			
0.6066	38823.91	3.7360	3.7359	2.6516	6.11	0.14	0.750			
0.6152	39372.64	3.7330	3.7330	2.7985	6.08	0.11	0.750			
0.6237	39913.72	3.7300	3.7299	2.8525	6.06	0.09	0.750			
0.6323	40465.81	3.7270	3.7270	2.8841	6.04	0.07	0.750			
0.6410	41025.09	3.7240	3.7241	2.8389	6.02	0.05	0.750			
0.6493	41556.83	3.7210	3.7211	2.7851	5.99	0.02	0.750			
0.6576	42084.44	3.7180	3.7181	2.7546	5.98	0.01	0.750			
0.6659	42620.40	3.7150	3.7151	2.6222	5.97	0.00	0.750			
0.6736	43110.41	3.7120	3.7121	2.3575	5.97	0.00	0.750			
0.6802	43532.85	3.7090	3.7096	2.0950	5.96	-0.01	0.750			
0.6861	43910.07	3.7060	3.7064	1.8373	5.95	-0.02	0.750			
0.6910	44225.97	3.7030	3.7029	1.6039	5.95	-0.02	0.750			
0.6954	44504.07	3.7000	3.7003	1.3888	5.95	-0.02	0.750			
0.6991	44743.89	3.6970	3.6970	1.2246	5.95	-0.02	0.750			
0.7025	44958.34	3.6940	3.6938	1.1090	5.95	-0.02	0.750			
0.7054	45143.50	3.6910	3.6911	0.9827	5.95	-0.02	0.750			
0.7082	45324.83	3.6880	3.6880	0.9233	5.96	-0.01	0.750			
0.7109	45495.95	3.6850	3.6850	0.8686	5.96	-0.01	0.750			
0.7134	45655.87	3.6820	3.6820	0.8137	5.96	-0.01	0.750			
0.7157	45807.90	3.6790	3.6790	0.7655	5.96	-0.01	0.750			
0.7180	45950.84	3.6760	3.6760	0.7150	5.96	-0.01	0.750			
0.7201	46085.16	3.6730	3.6730	0.6590	5.97	-0.00	0.750			
0.7219	46204.73	3.6700	3.6700	0.6111	5.97	-0.00	0.750			
0.7237	46317.24	3.6670	3.6670	0.5641	5.97	-0.00	0.750			
0.7253	46419.54	3.6640	3.6638	0.5150	5.97	-0.00	0.750			
0.7268	46513.95	3.6610	3.6613	0.4710	5.97	0.00	0.750			
0.7281	46599.64	3.6580	3.6580	0.4305	5.97	0.00	0.750			
0.7294	46678.52	3.6550	3.6550	0.3904	5.97	0.00	0.750			
0.7305	46750.17	3.6520	3.6520	0.3501	5.97	0.00	0.750			
0.7314	46812.24	3.6490	3.6489	0.3082	5.97	0.00	0.750			
0.7323	46867.79	3.6460	3.6462	0.2691	5.98	0.01	0.750			
0.7331	46915.77	3.6430	3.6429	0.2295	5.98	0.01	0.750			
0.7337	46955.57	3.6400	3.6399	0.1887	5.98	0.01	0.750			
0.7342	46987.07	3.6370	3.6371	0.1474	5.98	0.01	0.750			
0.7346	47012.40	3.6340	3.6345	0.1103	5.98	0.01	0.750			
0.7348	47029.89	3.6310	3.6317	0.0719	5.98	0.01	0.750			
0.7350	47040.06	3.6280	3.6289	0.0266	5.98	0.01	0.750			
