Ah_balance (normalized)	Ah_balance (mAh)	Voltage - fit (V)	Voltage -  interpolate (V)	dQ/dV (1/V)	Temperature (°C)	Temperature - diff (°C)	Current (C)	R_DC 0ms (mOhm)	R_DC 50ms (mOhm)	R_DC 50 ms PEC (mOhm)
0.0950	6077.85	4.0060	4.0058	-0.0711	5.99	0.00	-0.750			
0.0952	6095.72	4.0030	4.0028	-0.1080	5.99	0.00	-0.750			
0.0956	6120.05	4.0000	3.9997	-0.1367	5.99	0.00	-0.750			
0.0961	6148.83	3.9970	3.9970	-0.1625	5.99	0.00	-0.750			
0.0966	6182.72	3.9940	3.9941	-0.1873	5.99	-0.00	-0.750			
0.0972	6221.02	3.9910	3.9911	-0.2130	5.99	-0.00	-0.750			
0.0979	6264.78	3.9880	3.9880	-0.2386	5.99	-0.00	-0.750			
0.0986	6312.62	3.9850	3.9850	-0.2628	5.99	-0.00	-0.750			
0.0995	6365.59	3.9820	3.9820	-0.2882	5.99	-0.00	-0.750			
0.1004	6423.26	3.9790	3.9790	-0.3141	5.98	-0.01	-0.750			
0.1013	6486.12	3.9760	3.9760	-0.3394	5.98	-0.01	-0.750			
0.1024	6553.35	3.9730	3.9730	-0.3664	5.98	-0.01	-0.750			
0.1035	6625.68	3.9700	3.9700	-0.3931	5.98	-0.01	-0.750			
0.1047	6703.87	3.9670	3.9669	-0.4209	5.98	-0.01	-0.750			
0.1061	6787.50	3.9640	3.9640	-0.4484	5.97	-0.02	-0.750			
0.1074	6876.73	3.9610	3.9610	-0.4720	5.97	-0.02	-0.750			
0.1089	6969.99	3.9580	3.9581	-0.4989	5.97	-0.02	-0.750			
0.1104	7068.66	3.9550	3.9550	-0.5213	5.97	-0.02	-0.750			
0.1120	7170.48	3.9520	3.9519	-0.5432	5.97	-0.02	-0.750			
0.1137	7276.75	3.9490	3.9491	-0.5681	5.97	-0.02	-0.750			
0.1154	7388.04	3.9460	3.9459	-0.5906	5.97	-0.02	-0.750			
0.1173	7504.47	3.9430	3.9430	-0.6130	5.97	-0.02	-0.750			
0.1191	7625.23	3.9400	3.9400	-0.6318	5.97	-0.02	-0.750			
0.1211	7748.99	3.9370	3.9370	-0.6466	5.97	-0.02	-0.750			
0.1231	7875.54	3.9340	3.9340	-0.6620	5.97	-0.02	-0.750			
0.1251	8003.29	3.9310	3.9310	-0.6764	5.97	-0.02	-0.750			
0.1271	8134.48	3.9280	3.9280	-0.6921	5.97	-0.02	-0.750			
0.1292	8269.40	3.9250	3.9249	-0.7025	5.98	-0.01	-0.750			
0.1314	8406.64	3.9220	3.9220	-0.7141	5.98	-0.01	-0.750			
0.1335	8545.61	3.9190	3.9192	-0.7202	5.98	-0.01	-0.750			
0.1357	8685.25	3.9160	3.9159	-0.7303	5.98	-0.01	-0.750			
0.1379	8824.70	3.9130	3.9130	-0.7360	5.99	-0.00	-0.750			
0.1401	8964.50	3.9100	3.9100	-0.7427	5.99	0.00	-0.750			
0.1423	9109.69	3.9070	3.9070	-0.7467	6.00	0.01	-0.750			
0.1446	9256.50	3.9040	3.9040	-0.7554	6.01	0.02	-0.750			
0.1469	9401.66	3.9010	3.9011	-0.7560	6.01	0.02	-0.750			
0.1492	9548.23	3.8980	3.8979	-0.7602	6.01	0.02	-0.750			
0.1515	9693.16	3.8950	3.8949	-0.7604	6.02	0.03	-0.750			
0.1537	9837.67	3.8920	3.8921	-0.7618	6.02	0.03	-0.750			
0.1560	9984.28	3.8890	3.8890	-0.7725	6.03	0.04	-0.750			
0.1583	10133.26	3.8860	3.8859	-0.7805	6.03	0.04	-0.750			
0.1607	10283.97	3.8830	3.8829	-0.7847	6.04	0.05	-0.750			
0.1631	10435.98	3.8800	3.8799	-0.7893	6.04	0.05	-0.750			
0.1655	10589.32	3.8770	3.8771	-0.7901	6.05	0.06	-0.750			
0.1678	10741.54	3.8740	3.8741	-0.7914	6.06	0.07	-0.750			
0.1702	10893.49	3.8710	3.8709	-0.7924	6.07	0.08	-0.750			
0.1726	11044.40	3.8680	3.8680	-0.7935	6.07	0.08	-0.750			
0.1749	11195.58	3.8650	3.8650	-0.7967	6.08	0.09	-0.750			
0.1773	11349.06	3.8620	3.8620	-0.8040	6.08	0.09	-0.750			
0.1798	11505.68	3.8590	3.8590	-0.8075	6.09	0.10	-0.750			
0.1822	11661.66	3.8560	3.8560	-0.8087	6.10	0.11	-0.750			
0.1847	11818.16	3.8530	3.8530	-0.8057	6.10	0.11	-0.750			
0.1871	11972.46	3.8500	3.8500	-0.8038	6.11	0.12	-0.750			
0.1895	12126.04	3.8470	3.8470	-0.8088	6.11	0.12	-0.750			
0.1919	12281.18	3.8440	3.8440	-0.8120	6.12	0.13	-0.750			
0.1943	12437.78	3.8410	3.8408	-0.8115	6.12	0.13	-0.750			
0.1968	12594.07	3.8380	3.8383	-0.8108	6.13	0.14	-0.750			
0.1992	12749.65	3.8350	3.8350	-0.8143	6.14	0.15	-0.750			
0.2017	12905.84	3.8320	3.8320	-0.8210	6.15	0.16	-0.750			
0.2041	13062.27	3.8290	3.8287	-0.8187	6.15	0.16	-0.750			
0.2066	13222.14	3.8260	3.8260	-0.8250	6.16	0.17	-0.750			
0.2091	13379.96	3.8230	3.8232	-0.8256	6.17	0.18	-0.750			
0.2116	13541.31	3.8200	3.8199	-0.8294	6.18	0.19	-0.750			
0.2141	13699.41	3.8170	3.8170	-0.8326	6.19	0.20	-0.750			
0.2165	13855.40	3.8140	3.8140	-0.8310	6.19	0.20	-0.750			
0.2190	14017.64	3.8110	3.8110	-0.8356	6.20	0.21	-0.750			
0.2215	14178.37	3.8080	3.8081	-0.8401	6.21	0.22	-0.750			
0.2241	14340.09	3.8050	3.8050	-0.8448	6.22	0.23	-0.750			
0.2266	14502.51	3.8020	3.8021	-0.8497	6.23	0.24	-0.750			
0.2292	14667.83	3.7990	3.7989	-0.8481	6.23	0.24	-0.750			
0.2317	14831.28	3.7960	3.7959	-0.8424	6.24	0.25	-0.750			
0.2343	14992.75	3.7930	3.7933	-0.8405	6.25	0.26	-0.750			
0.2368	15155.13	3.7900	3.7899	-0.8365	6.26	0.27	-0.750			
0.2393	15312.28	3.7870	3.7869	-0.8350	6.27	0.28	-0.750			
0.2417	15470.64	3.7840	3.7840	-0.8297	6.27	0.28	-0.750			
0.2442	15631.76	3.7810	3.7810	-0.8371	6.28	0.29	-0.750			
0.2468	15792.51	3.7780	3.7783	-0.8365	6.29	0.30	-0.750			
0.2493	15954.04	3.7750	3.7749	-0.8375	6.30	0.31	-0.750			
0.2518	16114.00	3.7720	3.7720	-0.8378	6.31	0.32	-0.750			
0.2543	16274.90	3.7690	3.7689	-0.8360	6.32	0.33	-0.750			
0.2568	16436.68	3.7660	3.7660	-0.8379	6.32	0.33	-0.750			
0.2593	16596.98	3.7630	3.7631	-0.8386	6.33	0.34	-0.750			
0.2618	16756.97	3.7600	3.7600	-0.8365	6.34	0.35	-0.750			
0.2644	16918.77	3.7570	3.7569	-0.8358	6.35	0.36	-0.750			
0.2668	17076.81	3.7540	3.7540	-0.8391	6.36	0.37	-0.750			
0.2694	17238.83	3.7510	3.7510	-0.8453	6.36	0.37	-0.750			
0.2719	17401.91	3.7480	3.7480	-0.8459	6.37	0.38	-0.750			
0.2745	17564.88	3.7450	3.7450	-0.8480	6.37	0.38	-0.750			
0.2770	17728.93	3.7420	3.7421	-0.8503	6.38	0.39	-0.750			
0.2796	17894.09	3.7390	3.7390	-0.8487	6.38	0.39	-0.750			
0.2821	18056.73	3.7360	3.7359	-0.8532	6.39	0.40	-0.750			
0.2847	18218.10	3.7330	3.7331	-0.8497	6.39	0.40	-0.750			
0.2872	18380.16	3.7300	3.7300	-0.8540	6.40	0.41	-0.750			
0.2898	18544.93	3.7270	3.7269	-0.8572	6.41	0.42	-0.750			
0.2923	18708.05	3.7240	3.7241	-0.8601	6.42	0.43	-0.750			
0.2950	18876.81	3.7210	3.7210	-0.8749	6.43	0.44	-0.750			
0.2976	19046.07	3.7180	3.7180	-0.8811	6.43	0.44	-0.750			
0.3002	19215.03	3.7150	3.7149	-0.8824	6.44	0.45	-0.750			
0.3029	19385.49	3.7120	3.7121	-0.8853	6.45	0.46	-0.750			
0.3056	19556.40	3.7090	3.7090	-0.8863	6.46	0.47	-0.750			
0.3082	19727.54	3.7060	3.7059	-0.8885	6.47	0.48	-0.750			
0.3108	19894.12	3.7030	3.7030	-0.8942	6.47	0.48	-0.750			
0.3135	20066.67	3.7000	3.7000	-0.8987	6.48	0.49	-0.750			
0.3163	20241.33	3.6970	3.6969	-0.8993	6.48	0.49	-0.750			
0.3190	20414.16	3.6940	3.6939	-0.9045	6.49	0.50	-0.750			
0.3217	20588.12	3.6910	3.6914	-0.9161	6.49	0.50	-0.750			
0.3244	20764.46	3.6880	3.6879	-0.9236	6.50	0.51	-0.750			
0.3272	20941.59	3.6850	3.6849	-0.9322	6.51	0.52	-0.750			
0.3300	21120.49	3.6820	3.6820	-0.9436	6.52	0.53	-0.750			
0.3329	21304.80	3.6790	3.6790	-0.9612	6.53	0.54	-0.750			
0.3358	21491.20	3.6760	3.6760	-0.9707	6.53	0.54	-0.750			
0.3387	21678.07	3.6730	3.6730	-0.9785	6.54	0.55	-0.750			
0.3417	21865.85	3.6700	3.6700	-0.9897	6.54	0.55	-0.750			
0.3447	22058.27	3.6670	3.6670	-0.9973	6.55	0.56	-0.750			
0.3476	22248.28	3.6640	3.6641	-1.0162	6.55	0.56	-0.750			
0.3507	22444.28	3.6610	3.6609	-1.0281	6.56	0.57	-0.750			
0.3538	22645.76	3.6580	3.6579	-1.0298	6.56	0.57	-0.750			
0.3570	22845.06	3.6550	3.6549	-1.0387	6.57	0.58	-0.750			
0.3601	23044.06	3.6520	3.6522	-1.0476	6.57	0.58	-0.750			
0.3632	23243.86	3.6490	3.6491	-1.0609	6.58	0.59	-0.750			
0.3664	23448.48	3.6460	3.6458	-1.0792	6.58	0.59	-0.750			
0.3696	23652.49	3.6430	3.6430	-1.0821	6.59	0.60	-0.750			
0.3729	23865.98	3.6400	3.6401	-1.1172	6.59	0.60	-0.750			
0.3764	24088.66	3.6370	3.6370	-1.1441	6.59	0.60	-0.750			
0.3798	24307.30	3.6340	3.6338	-1.1500	6.59	0.60	-0.750			
0.3833	24528.27	3.6310	3.6311	-1.1622	6.59	0.60	-0.750			
0.3868	24754.48	3.6280	3.6279	-1.1791	6.59	0.60	-0.750			
0.3904	24982.78	3.6250	3.6248	-1.1937	6.60	0.61	-0.750			
0.3939	25211.83	3.6220	3.6220	-1.2144	6.60	0.61	-0.750			
0.3975	25443.18	3.6190	3.6191	-1.2181	6.60	0.61	-0.750			
0.4013	25681.84	3.6160	3.6159	-1.2409	6.60	0.61	-0.750			
0.4050	25920.80	3.6130	3.6130	-1.2572	6.61	0.62	-0.750			
0.4088	26160.45	3.6100	3.6101	-1.2863	6.61	0.62	-0.750			
0.4127	26415.73	3.6070	3.6070	-1.3173	6.61	0.62	-0.750			
0.4168	26673.71	3.6040	3.6038	-1.3288	6.60	0.61	-0.750			
0.4208	26932.18	3.6010	3.6001	-1.3390	6.60	0.61	-0.750	0.483	1.128	
0.4248	27189.52	3.5980	3.5979	-1.3522	6.60	0.61	-0.750			
0.4289	27448.92	3.5950	3.5950	-1.3621	6.61	0.62	-0.750			
0.4330	27709.40	3.5920	3.5921	-1.3800	6.61	0.62	-0.750			
0.4371	27972.45	3.5890	3.5889	-1.3965	6.61	0.62	-0.750			
0.4413	28242.19	3.5860	3.5859	-1.4536	6.61	0.62	-0.750			
0.4457	28527.17	3.5830	3.5830	-1.4874	6.61	0.62	-0.750			
0.4503	28820.43	3.5800	3.5797	-1.5059	6.62	0.63	-0.750			
0.4549	29115.39	3.5770	3.5775	-1.5329	6.62	0.63	-0.750			
0.4596	29416.58	3.5740	3.5741	-1.5445	6.63	0.64	-0.750			
0.4643	29713.02	3.5710	3.5711	-1.5500	6.63	0.64	-0.750			
0.4689	30008.21	3.5680	3.5679	-1.5528	6.63	0.64	-0.750			
0.4735	30305.62	3.5650	3.5650	-1.5605	6.63	0.64	-0.750			
0.4782	30605.53	3.5620	3.5620	-1.5935	6.63	0.64	-0.750			
0.4830	30913.27	3.5590	3.5589	-1.5903	6.63	0.64	-0.750			
0.4878	31218.89	3.5560	3.5559	-1.6107	6.63	0.64	-0.750			
0.4927	31531.91	3.5530	3.5531	-1.6355	6.63	0.64	-0.750			
0.4976	31845.29	3.5500	3.5500	-1.6548	6.63	0.64	-0.750			
0.5026	32166.80	3.5470	3.5471	-1.6723	6.63	0.64	-0.750			
0.5077	32490.89	3.5440	3.5440	-1.6917	6.64	0.65	-0.750			
0.5128	32816.28	3.5410	3.5410	-1.7131	6.64	0.65	-0.750			
0.5180	33152.13	3.5380	3.5378	-1.7206	6.65	0.66	-0.750			
0.5232	33482.21	3.5350	3.5350	-1.7300	6.65	0.66	-0.750			
0.5284	33814.48	3.5320	3.5321	-1.7350	6.64	0.65	-0.750			
0.5336	34150.85	3.5290	3.5288	-1.7430	6.64	0.65	-0.750			
0.5388	34484.42	3.5260	3.5261	-1.7585	6.65	0.66	-0.750			
0.5441	34823.98	3.5230	3.5229	-1.7636	6.66	0.67	-0.750			
0.5495	35165.72	3.5200	3.5198	-1.7734	6.66	0.67	-0.750			
0.5549	35512.02	3.5170	3.5171	-1.7766	6.67	0.68	-0.750			
0.5601	35848.03	3.5140	3.5141	-1.7800	6.67	0.68	-0.750			
0.5655	36194.29	3.5110	3.5112	-1.7736	6.67	0.68	-0.750			
0.5708	36533.11	3.5080	3.5081	-1.7799	6.67	0.68	-0.750			
0.5762	36876.76	3.5050	3.5050	-1.7874	6.68	0.69	-0.750			
0.5816	37222.51	3.5020	3.5019	-1.7800	6.69	0.70	-0.750			
0.5870	37568.28	3.4990	3.4991	-1.7752	6.69	0.70	-0.750			
0.5923	37909.06	3.4960	3.4961	-1.7678	6.70	0.71	-0.750			
0.5975	38240.43	3.4930	3.4931	-1.7478	6.71	0.72	-0.750			
0.6027	38574.12	3.4900	3.4901	-1.7294	6.71	0.72	-0.750			
0.6081	38920.05	3.4870	3.4870	-1.6650	6.71	0.72	-0.750			
0.6130	39233.23	3.4840	3.4840	-1.6144	6.72	0.73	-0.750			
0.6178	39538.99	3.4810	3.4811	-1.5781	6.72	0.73	-0.750			
0.6223	39829.03	3.4780	3.4780	-1.5420	6.73	0.74	-0.750			
0.6267	40110.83	3.4750	3.4747	-1.5335	6.75	0.76	-0.750			
0.6312	40398.09	3.4720	3.4718	-1.5288	6.76	0.77	-0.750			
0.6359	40699.45	3.4690	3.4690	-1.5485	6.77	0.78	-0.750			
0.6408	41008.98	3.4660	3.4660	-1.5915	6.78	0.79	-0.750			
0.6455	41313.10	3.4630	3.4630	-1.5747	6.79	0.80	-0.750			
0.6503	41620.46	3.4600	3.4599	-1.5466	6.80	0.81	-0.750			
0.6550	41920.16	3.4570	3.4568	-1.5197	6.80	0.81	-0.750			
0.6595	42205.19	3.4540	3.4542	-1.4815	6.81	0.82	-0.750			
0.6639	42487.63	3.4510	3.4509	-1.4509	6.83	0.84	-0.750			
0.6682	42763.59	3.4480	3.4479	-1.4176	6.84	0.85	-0.750			
0.6723	43028.44	3.4450	3.4451	-1.3890	6.85	0.86	-0.750			
0.6765	43299.04	3.4420	3.4420	-1.3712	6.86	0.87	-0.750			
0.6806	43561.08	3.4390	3.4389	-1.3425	6.86	0.87	-0.750			
0.6846	43816.04	3.4360	3.4361	-1.3057	6.87	0.88	-0.750			
0.6885	44063.45	3.4330	3.4328	-1.2776	6.89	0.90	-0.750			
0.6922	44303.81	3.4300	3.4300	-1.2484	6.91	0.92	-0.750			
0.6959	44540.40	3.4270	3.4269	-1.2134	6.93	0.94	-0.750			
0.6996	44773.38	3.4240	3.4239	-1.1940	6.94	0.95	-0.750			
0.7031	45000.26	3.4210	3.4210	-1.1639	6.94	0.95	-0.750			
0.7066	45220.37	3.4180	3.4179	-1.1312	6.95	0.96	-0.750			
0.7099	45434.32	3.4150	3.4151	-1.1021	6.96	0.97	-0.750			
0.7132	45642.07	3.4120	3.4119	-1.0700	6.97	0.98	-0.750			
0.7163	45845.07	3.4090	3.4090	-1.0413	6.99	1.00	-0.750			
0.7194	46040.48	3.4060	3.4059	-1.0030	7.01	1.02	-0.750			
0.7224	46234.26	3.4030	3.4031	-0.9823	7.02	1.03	-0.750			
0.7253	46418.30	3.4000	3.4001	-0.9529	7.04	1.05	-0.750			
0.7281	46598.44	3.3970	3.3969	-0.9255	7.05	1.06	-0.750			
0.7308	46772.50	3.3940	3.3941	-0.8947	7.07	1.08	-0.750			
0.7335	46942.00	3.3910	3.3910	-0.8709	7.08	1.09	-0.750			
0.7361	47108.02	3.3880	3.3880	-0.8467	7.09	1.10	-0.750			
0.7386	47268.90	3.3850	3.3849	-0.8175	7.10	1.11	-0.750			
0.7410	47422.60	3.3820	3.3820	-0.7878	7.11	1.12	-0.750			
0.7433	47571.41	3.3790	3.3790	-0.7677	7.13	1.14	-0.750			
