Ah_balance (normalized)	Ah_balance (mAh)	Voltage - fit (V)	Voltage -  interpolate (V)	dQ/dV (1/V)	Temperature (°C)	Temperature - diff (°C)	Current (C)	R_DC 0ms (mOhm)	R_DC 50ms (mOhm)	R_DC 50 ms PEC (mOhm)
0.1801	11526.74	4.0800	4.0799	0.7728	7.87	1.88	0.750			
0.1824	11675.99	4.0770	4.0770	0.7678	7.86	1.87	0.750			
0.1847	11818.74	4.0740	4.0741	0.7654	7.86	1.87	0.750			
0.1870	11965.14	4.0710	4.0710	0.7750	7.86	1.87	0.750			
0.1893	12113.64	4.0680	4.0679	0.7802	7.85	1.86	0.750			
0.1916	12264.93	4.0650	4.0650	0.7858	7.85	1.86	0.750			
0.1940	12418.12	4.0620	4.0621	0.7868	7.84	1.85	0.750			
0.1964	12570.87	4.0590	4.0591	0.7945	7.84	1.85	0.750			
0.1988	12725.37	4.0560	4.0559	0.7931	7.84	1.85	0.750			
0.2012	12873.96	4.0530	4.0529	0.7911	7.83	1.84	0.750			
0.2035	13024.70	4.0500	4.0501	0.7900	7.83	1.84	0.750			
0.2059	13179.26	4.0470	4.0470	0.7895	7.82	1.83	0.750			
0.2083	13331.87	4.0440	4.0440	0.7966	7.82	1.83	0.750			
0.2107	13483.05	4.0410	4.0411	0.8020	7.82	1.83	0.750			
0.2131	13635.79	4.0380	4.0381	0.8088	7.81	1.82	0.750			
0.2155	13793.77	4.0350	4.0347	0.8159	7.81	1.82	0.750			
0.2180	13950.58	4.0320	4.0321	0.8171	7.80	1.81	0.750			
0.2204	14108.55	4.0290	4.0291	0.8182	7.79	1.80	0.750			
0.2229	14264.94	4.0260	4.0261	0.8189	7.79	1.80	0.750			
0.2253	14420.49	4.0230	4.0230	0.8163	7.78	1.79	0.750			
0.2278	14577.33	4.0200	4.0196	0.8228	7.77	1.78	0.750			
0.2302	14734.45	4.0170	4.0173	0.8289	7.77	1.78	0.750			
0.2327	14895.79	4.0140	4.0141	0.8310	7.76	1.77	0.750			
0.2353	15058.55	4.0110	4.0110	0.8388	7.76	1.77	0.750			
0.2378	15218.25	4.0080	4.0081	0.8355	7.75	1.76	0.750			
0.2403	15378.67	4.0050	4.0048	0.8388	7.75	1.76	0.750			
0.2428	15541.04	4.0020	4.0020	0.8400	7.74	1.75	0.750			
0.2454	15702.60	3.9990	3.9990	0.8440	7.73	1.74	0.750			
0.2479	15864.92	3.9960	3.9960	0.8486	7.73	1.74	0.750			
0.2504	16026.95	3.9930	3.9931	0.8544	7.72	1.73	0.750			
0.2530	16190.79	3.9900	3.9900	0.8622	7.71	1.72	0.750			
0.2556	16359.18	3.9870	3.9870	0.8624	7.70	1.71	0.750			
0.2582	16526.82	3.9840	3.9840	0.8668	7.69	1.70	0.750			
0.2608	16692.81	3.9810	3.9811	0.8713	7.68	1.69	0.750			
0.2634	16860.12	3.9780	3.9780	0.8731	7.68	1.69	0.750			
0.2661	17027.23	3.9750	3.9749	0.8749	7.67	1.68	0.750			
0.2687	17197.23	3.9720	3.9720	0.8676	7.66	1.67	0.750			
0.2713	17362.23	3.9690	3.9691	0.8794	7.65	1.66	0.750			
0.2740	17533.21	3.9660	3.9661	0.8835	7.64	1.65	0.750			
0.2766	17701.99	3.9630	3.9629	0.8871	7.63	1.64	0.750			
0.2792	17871.31	3.9600	3.9601	0.8946	7.62	1.63	0.750			
0.2819	18044.01	3.9570	3.9571	0.8976	7.62	1.63	0.750			
0.2846	18217.32	3.9540	3.9540	0.9069	7.61	1.62	0.750			
0.2874	18394.43	3.9510	3.9510	0.9189	7.60	1.61	0.750			
0.2901	18567.90	3.9480	3.9477	0.9206	7.59	1.60	0.750			
0.2930	18750.87	3.9450	3.9450	0.9205	7.58	1.59	0.750			
0.2957	18925.61	3.9420	3.9420	0.9273	7.57	1.58	0.750			
0.2985	19104.15	3.9390	3.9392	0.9350	7.56	1.57	0.750			
0.3013	19282.85	3.9360	3.9361	0.9381	7.55	1.56	0.750			
0.3042	19465.69	3.9330	3.9331	0.9437	7.53	1.54	0.750			
0.3070	19645.74	3.9300	3.9301	0.9516	7.52	1.53	0.750			
0.3098	19827.95	3.9270	3.9270	0.9675	7.51	1.52	0.750			
0.3128	20020.00	3.9240	3.9241	0.9861	7.50	1.51	0.750			
0.3157	20206.93	3.9210	3.9208	0.9864	7.49	1.50	0.750			
0.3187	20398.06	3.9180	3.9180	0.9906	7.48	1.49	0.750			
0.3217	20588.85	3.9150	3.9152	1.0018	7.47	1.48	0.750			
0.3247	20781.61	3.9120	3.9120	1.0141	7.46	1.47	0.750			
0.3278	20977.40	3.9090	3.9090	1.0189	7.45	1.46	0.750			
0.3308	21170.42	3.9060	3.9062	1.0312	7.43	1.44	0.750			
0.3340	21375.35	3.9030	3.9029	1.0290	7.42	1.43	0.750			
0.3372	21578.47	3.9000	3.9000	1.0171	7.40	1.41	0.750			
0.3402	21771.15	3.8970	3.8971	0.9843	7.39	1.40	0.750			
0.3428	21940.33	3.8940	3.8948	1.0123	7.38	1.39	0.750			
0.3458	22133.06	3.8910	3.8916	1.0579	7.37	1.38	0.750			
0.3490	22335.54	3.8880	3.8892	1.0900	7.36	1.37	0.750			
0.3524	22553.39	3.8850	3.8855	1.1109	7.35	1.36	0.750			
0.3560	22784.59	3.8820	3.8824	1.1542	7.33	1.34	0.750			
0.3596	23014.71	3.8790	3.8790	1.1530	7.32	1.33	0.750			
0.3629	23227.24	3.8760	3.8759	1.1366	7.30	1.31	0.750			
0.3663	23440.60	3.8730	3.8730	1.1280	7.29	1.30	0.750			
0.3697	23657.75	3.8700	3.8702	1.1503	7.27	1.28	0.750			
0.3731	23881.21	3.8670	3.8671	1.1749	7.26	1.27	0.750			
0.3767	24110.62	3.8640	3.8638	1.1925	7.24	1.25	0.750			
0.3803	24339.08	3.8610	3.8609	1.2053	7.23	1.24	0.750			
0.3840	24573.47	3.8580	3.8581	1.2285	7.21	1.22	0.750			
0.3877	24811.72	3.8550	3.8551	1.2441	7.20	1.21	0.750			
0.3915	25055.78	3.8520	3.8520	1.2535	7.18	1.19	0.750			
0.3952	25294.61	3.8490	3.8491	1.2475	7.17	1.18	0.750			
0.3989	25526.43	3.8460	3.8462	1.2847	7.15	1.16	0.750			
0.4027	25772.89	3.8430	3.8428	1.3357	7.13	1.14	0.750			
0.4067	26029.96	3.8400	3.8395	1.3771	7.11	1.12	0.750			
0.4109	26300.11	3.8370	3.8375	1.4255	7.09	1.10	0.750	0.407	0.929	
0.4154	26584.83	3.8340	3.8340	1.4572	7.07	1.08	0.750			
0.4199	26876.69	3.8310	3.8310	1.4647	7.05	1.06	0.750			
0.4244	27160.11	3.8280	3.8280	1.4693	7.03	1.04	0.750			
0.4286	27432.49	3.8250	3.8251	1.4816	7.02	1.03	0.750			
0.4331	27717.92	3.8220	3.8220	1.4902	7.00	1.01	0.750			
0.4376	28008.00	3.8190	3.8192	1.5299	6.98	0.99	0.750			
0.4423	28305.71	3.8160	3.8160	1.5623	6.96	0.97	0.750			
0.4471	28613.59	3.8130	3.8127	1.5899	6.94	0.95	0.750			
0.4518	28916.72	3.8100	3.8100	1.6254	6.91	0.92	0.750			
0.4568	29235.44	3.8070	3.8069	1.6490	6.89	0.90	0.750			
0.4618	29555.12	3.8040	3.8037	1.7023	6.87	0.88	0.750			
0.4669	29879.64	3.8010	3.8009	1.7456	6.84	0.85	0.750			
0.4723	30224.93	3.7980	3.7979	1.7780	6.82	0.83	0.750			
0.4777	30572.51	3.7950	3.7949	1.8088	6.79	0.80	0.750			
0.4831	30917.24	3.7920	3.7919	1.8432	6.76	0.77	0.750			
0.4885	31262.38	3.7890	3.7892	1.8448	6.74	0.75	0.750			
0.4942	31630.79	3.7860	3.7861	1.8766	6.71	0.72	0.750			
0.4999	31996.47	3.7830	3.7827	1.9371	6.68	0.69	0.750			
0.5058	32369.23	3.7800	3.7802	1.9437	6.65	0.66	0.750			
0.5116	32741.83	3.7770	3.7772	1.9869	6.63	0.64	0.750			
0.5176	33128.97	3.7740	3.7739	1.9994	6.60	0.61	0.750			
0.5237	33518.80	3.7710	3.7712	2.0179	6.57	0.58	0.750			
0.5297	33903.39	3.7680	3.7679	2.0159	6.54	0.55	0.750			
0.5357	34285.81	3.7650	3.7650	2.0174	6.51	0.52	0.750			
0.5418	34678.03	3.7620	3.7620	2.0560	6.48	0.49	0.750			
0.5480	35075.16	3.7590	3.7591	2.0781	6.45	0.46	0.750			
0.5545	35486.85	3.7560	3.7560	2.1251	6.41	0.42	0.750			
0.5609	35898.45	3.7530	3.7531	2.1536	6.38	0.39	0.750			
0.5674	36314.51	3.7500	3.7499	2.2053	6.35	0.36	0.750			
0.5740	36735.52	3.7470	3.7467	2.2540	6.34	0.35	0.750			
0.5809	37177.58	3.7440	3.7439	2.3230	6.31	0.32	0.750			
0.5879	37623.63	3.7410	3.7411	2.3471	6.27	0.28	0.750			
0.5952	38089.83	3.7380	3.7380	2.4341	6.24	0.25	0.750			
0.6025	38558.35	3.7350	3.7348	2.4915	6.21	0.22	0.750			
0.6101	39049.50	3.7320	3.7320	2.5475	6.19	0.20	0.750			
0.6179	39544.16	3.7290	3.7291	2.5634	6.16	0.17	0.750			
0.6255	40033.99	3.7260	3.7260	2.5427	6.14	0.15	0.750			
0.6331	40517.49	3.7230	3.7230	2.4846	6.11	0.12	0.750			
0.6406	40997.34	3.7200	3.7199	2.3949	6.09	0.10	0.750			
0.6476	41447.74	3.7170	3.7169	2.2526	6.07	0.08	0.750			
0.6543	41873.68	3.7140	3.7140	2.0587	6.05	0.06	0.750			
0.6602	42249.79	3.7110	3.7110	1.8584	6.03	0.04	0.750			
0.6652	42574.27	3.7080	3.7078	1.6117	6.02	0.03	0.750			
0.6697	42863.48	3.7050	3.7052	1.4523	6.01	0.02	0.750			
0.6738	43125.26	3.7020	3.7021	1.3168	6.00	0.01	0.750			
0.6775	43356.92	3.6990	3.6987	1.1840	5.99	0.00	0.750			
0.6807	43567.37	3.6960	3.6961	1.0778	5.99	0.00	0.750			
0.6838	43762.27	3.6930	3.6930	1.0040	5.99	0.00	0.750			
0.6866	43945.53	3.6900	3.6901	0.9530	5.99	0.00	0.750			
0.6894	44119.59	3.6870	3.6869	0.9078	5.99	0.00	0.750			
0.6920	44288.48	3.6840	3.6840	0.8697	5.99	-0.00	0.750			
0.6946	44453.35	3.6810	3.6810	0.8356	5.99	-0.00	0.750			
0.6971	44612.69	3.6780	3.6780	0.8101	5.98	-0.01	0.750			
0.6995	44765.50	3.6750	3.6750	0.7780	5.98	-0.01	0.750			
0.7017	44910.91	3.6720	3.6719	0.7399	5.98	-0.01	0.750			
0.7039	45049.62	3.6690	3.6690	0.7045	5.98	-0.01	0.750			
0.7059	45180.45	3.6660	3.6661	0.6669	5.98	-0.01	0.750			
0.7079	45307.56	3.6630	3.6630	0.6303	5.98	-0.01	0.750			
0.7098	45426.96	3.6600	3.6600	0.5892	5.99	-0.00	0.750			
0.7115	45533.36	3.6570	3.6570	0.5501	5.99	-0.00	0.750			
0.7130	45635.04	3.6540	3.6540	0.5128	5.99	-0.00	0.750			
0.7145	45729.38	3.6510	3.6508	0.4777	5.99	-0.00	0.750			
0.7159	45817.02	3.6480	3.6482	0.4435	5.99	0.00	0.750			
0.7172	45901.03	3.6450	3.6449	0.4022	5.99	0.00	0.750			
0.7184	45974.42	3.6420	3.6421	0.3672	5.99	0.00	0.750			
0.7194	46040.61	3.6390	3.6392	0.3321	5.99	0.00	0.750			
0.7203	46099.01	3.6360	3.6360	0.2939	5.99	0.00	0.750			
0.7211	46151.49	3.6330	3.6334	0.2608	5.99	0.00	0.750			
0.7219	46199.90	3.6300	3.6301	0.2219	6.00	0.01	0.750			
0.7225	46240.76	3.6270	3.6271	0.1904	6.00	0.01	0.750			
0.7231	46276.81	3.6240	3.6240	0.1546	6.00	0.01	0.750			
0.7235	46302.46	3.6210	3.6211	0.1126	6.00	0.01	0.750			
0.7237	46319.83	3.6180	3.6184	0.0708	6.00	0.01	0.750			
0.7239	46330.21	3.6150	3.6148	0.0267	6.00	0.01	0.750			
0.7239	46331.12	3.6120	3.6143	-0.0172	6.00	0.01	0.750			
