Ah_balance (normalized)	Ah_balance (mAh)	Voltage - fit (V)	Voltage -  interpolate (V)	dQ/dV (1/V)	Temperature (°C)	Temperature - diff (°C)	Current (C)	R_DC 0ms (mOhm)	R_DC 50ms (mOhm)	R_DC 50 ms PEC (mOhm)
0.1797	11501.84	4.0800	4.0801	0.7426	7.27	1.30	0.750			
0.1820	11646.29	4.0770	4.0772	0.7576	7.27	1.30	0.750			
0.1843	11793.90	4.0740	4.0736	0.7672	7.26	1.29	0.750			
0.1866	11942.27	4.0710	4.0711	0.7731	7.26	1.29	0.750			
0.1889	12091.89	4.0680	4.0681	0.7713	7.25	1.28	0.750			
0.1913	12240.19	4.0650	4.0650	0.7783	7.24	1.27	0.750			
0.1936	12390.45	4.0620	4.0620	0.7756	7.24	1.27	0.750			
0.1959	12539.43	4.0590	4.0590	0.7800	7.23	1.26	0.750			
0.1983	12689.79	4.0560	4.0562	0.7863	7.23	1.26	0.750			
0.2007	12841.81	4.0530	4.0531	0.7866	7.22	1.25	0.750			
0.2030	12993.83	4.0500	4.0500	0.7910	7.21	1.24	0.750			
0.2054	13146.93	4.0470	4.0470	0.7934	7.20	1.23	0.750			
0.2078	13296.63	4.0440	4.0439	0.7923	7.20	1.23	0.750			
0.2101	13448.53	4.0410	4.0413	0.7976	7.19	1.22	0.750			
0.2126	13603.35	4.0380	4.0380	0.7983	7.18	1.21	0.750			
0.2150	13757.59	4.0350	4.0349	0.7952	7.17	1.20	0.750			
0.2173	13910.38	4.0320	4.0320	0.7952	7.17	1.20	0.750			
0.2197	14059.37	4.0290	4.0293	0.7984	7.16	1.19	0.750			
0.2221	14213.35	4.0260	4.0254	0.8020	7.15	1.18	0.750			
0.2245	14369.83	4.0230	4.0231	0.7994	7.14	1.17	0.750			
0.2269	14523.07	4.0200	4.0201	0.8097	7.13	1.16	0.750			
0.2294	14681.41	4.0170	4.0171	0.8240	7.13	1.16	0.750			
0.2319	14841.97	4.0140	4.0141	0.8307	7.12	1.15	0.750			
0.2343	14996.16	4.0110	4.0108	0.8292	7.11	1.14	0.750			
0.2368	15156.27	4.0080	4.0082	0.8323	7.11	1.14	0.750			
0.2394	15319.63	4.0050	4.0050	0.8307	7.10	1.13	0.750			
0.2418	15476.51	4.0020	4.0021	0.8353	7.10	1.13	0.750			
0.2443	15635.13	3.9990	3.9992	0.8373	7.09	1.12	0.750			
0.2468	15797.46	3.9960	3.9956	0.8486	7.09	1.12	0.750			
0.2494	15960.51	3.9930	3.9932	0.8614	7.08	1.11	0.750			
0.2520	16129.79	3.9900	3.9900	0.8512	7.08	1.11	0.750			
0.2546	16297.56	3.9870	3.9869	0.8587	7.07	1.10	0.750			
0.2572	16459.70	3.9840	3.9842	0.8484	7.07	1.10	0.750			
0.2597	16620.18	3.9810	3.9804	0.8540	7.06	1.09	0.750			
0.2622	16782.60	3.9780	3.9779	0.8544	7.05	1.08	0.750			
0.2648	16948.42	3.9750	3.9750	0.8577	7.05	1.08	0.750			
0.2674	17112.02	3.9720	3.9722	0.8725	7.04	1.07	0.750			
0.2700	17282.32	3.9690	3.9691	0.8795	7.04	1.07	0.750			
0.2727	17452.30	3.9660	3.9661	0.8858	7.03	1.06	0.750			
0.2754	17626.21	3.9630	3.9630	0.8817	7.02	1.05	0.750			
0.2781	17795.27	3.9600	3.9601	0.8877	7.01	1.04	0.750			
0.2807	17966.66	3.9570	3.9571	0.9005	7.00	1.03	0.750			
0.2834	18137.26	3.9540	3.9541	0.9014	6.99	1.02	0.750			
0.2861	18311.29	3.9510	3.9510	0.9020	6.99	1.02	0.750			
0.2889	18486.90	3.9480	3.9481	0.9120	6.98	1.01	0.750			
0.2916	18662.98	3.9450	3.9451	0.9198	6.97	1.00	0.750			
0.2944	18844.46	3.9420	3.9420	0.9240	6.97	1.00	0.750			
0.2972	19017.94	3.9390	3.9386	0.9186	6.96	0.99	0.750			
0.3000	19196.95	3.9360	3.9360	0.9064	6.95	0.98	0.750			
0.3026	19368.64	3.9330	3.9330	0.9188	6.95	0.98	0.750			
0.3054	19543.36	3.9300	3.9301	0.9371	6.94	0.97	0.750			
0.3082	19723.93	3.9270	3.9271	0.9516	6.93	0.96	0.750			
0.3111	19908.20	3.9240	3.9242	0.9551	6.93	0.96	0.750			
0.3140	20093.75	3.9210	3.9212	0.9710	6.92	0.95	0.750			
0.3169	20281.52	3.9180	3.9180	0.9856	6.91	0.94	0.750			
0.3199	20474.55	3.9150	3.9149	0.9963	6.90	0.93	0.750			
0.3229	20665.13	3.9120	3.9120	0.9934	6.89	0.92	0.750			
0.3259	20856.98	3.9090	3.9091	0.9983	6.87	0.90	0.750			
0.3289	21049.56	3.9060	3.9062	1.0031	6.86	0.89	0.750			
0.3319	21242.09	3.9030	3.9029	1.0167	6.84	0.87	0.750			
0.3349	21435.43	3.9000	3.8997	1.0226	6.83	0.86	0.750			
0.3380	21632.23	3.8970	3.8970	1.0124	6.82	0.85	0.750			
0.3410	21824.62	3.8940	3.8942	1.0359	6.82	0.85	0.750			
0.3442	22027.05	3.8910	3.8911	1.0535	6.81	0.84	0.750			
0.3473	22229.38	3.8880	3.8871	1.0526	6.81	0.84	0.750			
0.3505	22434.43	3.8850	3.8852	1.0751	6.80	0.83	0.750			
0.3538	22641.55	3.8820	3.8822	1.0921	6.79	0.82	0.750			
0.3571	22856.61	3.8790	3.8790	1.1182	6.78	0.81	0.750			
0.3605	23073.44	3.8760	3.8759	1.1062	6.77	0.80	0.750			
0.3638	23285.76	3.8730	3.8730	1.1292	6.76	0.79	0.750			
0.3673	23505.82	3.8700	3.8701	1.1491	6.75	0.78	0.750			
0.3707	23727.99	3.8670	3.8670	1.1639	6.73	0.76	0.750			
0.3743	23953.08	3.8640	3.8641	1.1616	6.72	0.75	0.750			
0.3777	24174.26	3.8610	3.8611	1.1811	6.71	0.74	0.750			
0.3813	24401.71	3.8580	3.8581	1.2067	6.70	0.73	0.750			
0.3850	24637.57	3.8550	3.8548	1.2304	6.69	0.72	0.750			
0.3886	24869.64	3.8520	3.8522	1.2550	6.68	0.71	0.750			
0.3924	25112.35	3.8490	3.8493	1.2628	6.67	0.70	0.750			
0.3962	25355.46	3.8460	3.8458	1.2961	6.65	0.68	0.750			
0.4001	25606.53	3.8430	3.8431	1.2910	6.64	0.67	0.750			
0.4040	25853.22	3.8400	3.8406	1.3291	6.62	0.65	0.750	0.354	0.875	
0.4081	26121.19	3.8370	3.8373	1.3450	6.61	0.64	0.750			
0.4122	26383.61	3.8340	3.8343	1.3673	6.59	0.62	0.750			
0.4163	26645.53	3.8310	3.8310	1.4150	6.57	0.60	0.750			
0.4206	26915.69	3.8280	3.8283	1.4157	6.56	0.59	0.750			
0.4251	27203.84	3.8250	3.8253	1.4453	6.54	0.57	0.750			
0.4293	27472.46	3.8220	3.8224	1.4869	6.53	0.56	0.750			
0.4338	27761.64	3.8190	3.8190	1.5198	6.51	0.54	0.750			
0.4385	28065.63	3.8160	3.8153	1.5224	6.50	0.53	0.750			
0.4430	28353.42	3.8130	3.8134	1.5303	6.48	0.51	0.750			
0.4477	28652.55	3.8100	3.8099	1.5840	6.47	0.50	0.750			
0.4525	28959.34	3.8070	3.8069	1.6129	6.45	0.48	0.750			
0.4573	29269.00	3.8040	3.8041	1.6238	6.44	0.47	0.750			
0.4625	29598.27	3.8010	3.8008	1.6528	6.42	0.45	0.750			
0.4674	29913.67	3.7980	3.7985	1.6667	6.41	0.44	0.750			
0.4726	30249.49	3.7950	3.7950	1.6960	6.39	0.42	0.750			
0.4777	30573.80	3.7920	3.7922	1.6926	6.37	0.40	0.750			
0.4825	30882.78	3.7890	3.7896	1.7492	6.36	0.39	0.750			
0.4878	31221.79	3.7860	3.7857	1.7694	6.33	0.36	0.750			
0.4933	31570.46	3.7830	3.7825	1.7749	6.31	0.34	0.750			
0.4987	31914.03	3.7800	3.7804	1.7733	6.29	0.32	0.750			
0.5042	32267.98	3.7770	3.7775	1.8475	6.27	0.30	0.750			
0.5095	32610.74	3.7740	3.7741	1.8636	6.25	0.28	0.750			
0.5154	32987.16	3.7710	3.7710	1.8562	6.23	0.26	0.750			
0.5207	33327.66	3.7680	3.7683	1.8294	6.21	0.24	0.750			
0.5263	33680.13	3.7650	3.7648	1.8309	6.20	0.23	0.750			
0.5318	34033.85	3.7620	3.7621	1.8628	6.18	0.21	0.750			
0.5375	34397.62	3.7590	3.7595	1.9146	6.16	0.19	0.750			
0.5432	34767.84	3.7560	3.7567	1.9302	6.14	0.17	0.750			
0.5488	35125.48	3.7530	3.7536	1.9350	6.12	0.15	0.750			
0.5547	35501.11	3.7500	3.7505	1.8864	6.11	0.14	0.750			
0.5602	35854.58	3.7470	3.7475	1.9503	6.09	0.12	0.750			
0.5662	36233.83	3.7440	3.7416	2.1203	6.07	0.10	0.750			
0.5726	36647.27	3.7410	3.7407	2.2891	6.05	0.08	0.750			
0.5799	37115.79	3.7380	3.7383	2.2573	6.03	0.06	0.750			
0.5864	37528.67	3.7350	3.7356	2.2565	6.01	0.04	0.750			
0.5927	37931.45	3.7320	3.7319	2.1966	6.00	0.03	0.750			
0.5996	38377.20	3.7290	3.7284	2.2196	5.98	0.01	0.750			
0.6069	38840.57	3.7260	3.7263	2.3741	5.97	-0.00	0.750			
0.6136	39272.19	3.7230	3.7225	2.4022	5.95	-0.02	0.750			
0.6205	39708.89	3.7200	3.7201	2.1822	5.93	-0.04	0.750			
0.6274	40154.74	3.7170	3.7170	2.1256	5.93	-0.04	0.750			
0.6333	40530.27	3.7140	3.7145	1.8917	5.93	-0.04	0.750			
0.6389	40887.97	3.7110	3.7110	1.7910	5.92	-0.05	0.750			
0.6442	41230.37	3.7080	3.7081	1.6340	5.91	-0.06	0.750			
0.6487	41517.64	3.7050	3.7056	1.4497	5.91	-0.06	0.750			
0.6530	41790.82	3.7020	3.7023	1.3541	5.91	-0.06	0.750			
0.6566	42024.49	3.6990	3.6985	1.2108	5.91	-0.06	0.750			
0.6601	42244.16	3.6960	3.6959	1.1131	5.91	-0.06	0.750			
0.6632	42443.17	3.6930	3.6932	1.0071	5.91	-0.06	0.750			
0.6662	42634.94	3.6900	3.6901	0.9630	5.91	-0.06	0.750			
0.6688	42805.62	3.6870	3.6871	0.9151	5.91	-0.06	0.750			
0.6715	42975.38	3.6840	3.6838	0.8833	5.91	-0.06	0.750			
0.6741	43141.07	3.6810	3.6811	0.8623	5.91	-0.06	0.750			
0.6768	43314.97	3.6780	3.6779	0.8189	5.91	-0.06	0.750			
0.6791	43464.91	3.6750	3.6752	0.7903	5.91	-0.06	0.750			
0.6815	43615.43	3.6720	3.6722	0.7691	5.91	-0.06	0.750			
0.6836	43752.94	3.6690	3.6696	0.7366	5.91	-0.06	0.750			
0.6858	43890.35	3.6660	3.6665	0.7106	5.92	-0.05	0.750			
0.6879	44022.86	3.6630	3.6633	0.6895	5.93	-0.04	0.750			
0.6900	44158.70	3.6600	3.6603	0.6487	5.94	-0.03	0.750			
0.6919	44284.79	3.6570	3.6571	0.6133	5.95	-0.02	0.750			
0.6937	44395.78	3.6540	3.6543	0.5755	5.95	-0.02	0.750			
0.6953	44502.31	3.6510	3.6514	0.5471	5.96	-0.01	0.750			
0.6970	44606.84	3.6480	3.6490	0.5191	5.97	-0.00	0.750			
0.6985	44702.28	3.6450	3.6456	0.5116	5.98	0.01	0.750			
0.7000	44797.58	3.6420	3.6426	0.5221	5.98	0.01	0.750			
0.7017	44906.15	3.6390	3.6388	0.5081	5.99	0.02	0.750			
0.7032	45003.76	3.6360	3.6353	0.4705	6.00	0.03	0.750			
0.7046	45095.81	3.6330	3.6345	0.4301	6.01	0.04	0.750			
0.7059	45178.79	3.6300	3.6305	0.3790	6.01	0.04	0.750			
0.7070	45245.17	3.6270	3.6269	0.3351	6.02	0.05	0.750			
0.7077	45293.93	3.6240	3.6238	0.2383	6.02	0.05	0.750			
0.7083	45331.65	3.6210	3.6211	0.1855	6.02	0.05	0.750			
0.7088	45363.20	3.6180	3.6182	0.1440	6.03	0.06	0.750			
0.7092	45388.77	3.6150	3.6152	0.1032	6.03	0.06	0.750			
0.7095	45404.99	3.6120	3.6119	0.0587	6.03	0.06	0.750			
0.7095	45410.15	3.6060	3.6091	-0.0318	6.03	0.06	0.750			
0.7096	45411.92	3.6090	3.6077	0.0135	6.03	0.06	0.750			
