Ah_balance (normalized)	Ah_balance (mAh)	Voltage - fit (V)	Voltage -  interpolate (V)	dQ/dV (1/V)	Temperature (°C)	Temperature - diff (°C)	Current (C)	R_DC 0ms (mOhm)	R_DC 50ms (mOhm)	R_DC 50 ms PEC (mOhm)
0.0980	6271.90	4.0070	4.0064	-0.0772	5.91	0.00	-0.750			
0.0983	6289.39	4.0040	4.0039	-0.1050	5.91	0.00	-0.750			
0.0986	6312.06	4.0010	4.0010	-0.1330	5.91	0.00	-0.750			
0.0991	6340.82	3.9980	3.9979	-0.1591	5.91	0.00	-0.750			
0.0996	6374.35	3.9950	3.9949	-0.1821	5.91	0.00	-0.750			
0.1002	6411.69	3.9920	3.9921	-0.2055	5.91	0.00	-0.750			
0.1008	6454.25	3.9890	3.9892	-0.2296	5.91	-0.00	-0.750			
0.1016	6500.73	3.9860	3.9860	-0.2513	5.91	-0.00	-0.750			
0.1024	6550.54	3.9830	3.9829	-0.2746	5.91	-0.00	-0.750			
0.1032	6605.36	3.9800	3.9800	-0.2971	5.91	-0.00	-0.750			
0.1041	6665.46	3.9770	3.9770	-0.3193	5.90	-0.01	-0.750			
0.1051	6728.95	3.9740	3.9741	-0.3421	5.90	-0.01	-0.750			
0.1062	6796.65	3.9710	3.9710	-0.3616	5.90	-0.01	-0.750			
0.1073	6867.54	3.9680	3.9680	-0.3845	5.90	-0.01	-0.750			
0.1085	6942.80	3.9650	3.9650	-0.4097	5.90	-0.01	-0.750			
0.1097	7023.35	3.9620	3.9619	-0.4336	5.90	-0.01	-0.750			
0.1111	7109.58	3.9590	3.9590	-0.4591	5.89	-0.02	-0.750			
0.1125	7201.25	3.9560	3.9560	-0.4809	5.89	-0.02	-0.750			
0.1140	7296.88	3.9530	3.9530	-0.5010	5.89	-0.02	-0.750			
0.1156	7395.70	3.9500	3.9500	-0.5215	5.89	-0.02	-0.750			
0.1171	7496.75	3.9470	3.9471	-0.5363	5.89	-0.02	-0.750			
0.1188	7600.46	3.9440	3.9440	-0.5535	5.89	-0.02	-0.750			
0.1205	7708.80	3.9410	3.9411	-0.5725	5.89	-0.02	-0.750			
0.1222	7820.80	3.9380	3.9380	-0.5860	5.89	-0.02	-0.750			
0.1240	7935.02	3.9350	3.9348	-0.6011	5.89	-0.02	-0.750			
0.1258	8052.01	3.9320	3.9324	-0.6162	5.89	-0.02	-0.750			
0.1277	8172.32	3.9290	3.9289	-0.6241	5.89	-0.02	-0.750			
0.1296	8294.37	3.9260	3.9260	-0.6376	5.89	-0.02	-0.750			
0.1315	8417.88	3.9230	3.9230	-0.6521	5.89	-0.02	-0.750			
0.1335	8543.73	3.9200	3.9201	-0.6629	5.89	-0.02	-0.750			
0.1355	8674.67	3.9170	3.9169	-0.6670	5.89	-0.02	-0.750			
0.1376	8803.39	3.9140	3.9141	-0.6723	5.89	-0.02	-0.750			
0.1396	8931.75	3.9110	3.9109	-0.6815	5.89	-0.02	-0.750			
0.1416	9063.72	3.9080	3.9080	-0.6898	5.90	-0.01	-0.750			
0.1437	9194.01	3.9050	3.9048	-0.6966	5.90	-0.01	-0.750			
0.1457	9327.27	3.9020	3.9020	-0.7023	5.90	-0.01	-0.750			
0.1479	9467.61	3.8990	3.8991	-0.7114	5.91	-0.00	-0.750			
0.1501	9605.54	3.8960	3.8960	-0.7188	5.91	-0.00	-0.750			
0.1523	9744.70	3.8930	3.8930	-0.7189	5.91	0.00	-0.750			
0.1544	9881.61	3.8900	3.8899	-0.7212	5.92	0.01	-0.750			
0.1566	10020.41	3.8870	3.8869	-0.7274	5.92	0.01	-0.750			
0.1588	10160.71	3.8840	3.8840	-0.7287	5.92	0.01	-0.750			
0.1610	10302.57	3.8810	3.8809	-0.7354	5.93	0.02	-0.750			
0.1632	10443.99	3.8780	3.8784	-0.7365	5.93	0.02	-0.750			
0.1654	10584.32	3.8750	3.8749	-0.7370	5.93	0.02	-0.750			
0.1676	10726.31	3.8720	3.8720	-0.7413	5.94	0.03	-0.750			
0.1698	10868.23	3.8690	3.8690	-0.7407	5.94	0.03	-0.750			
0.1721	11014.18	3.8660	3.8659	-0.7483	5.94	0.03	-0.750			
0.1743	11156.67	3.8630	3.8630	-0.7482	5.95	0.04	-0.750			
0.1766	11300.01	3.8600	3.8600	-0.7499	5.95	0.04	-0.750			
0.1788	11444.19	3.8570	3.8569	-0.7515	5.95	0.04	-0.750			
0.1811	11588.24	3.8540	3.8540	-0.7523	5.96	0.05	-0.750			
0.1833	11732.44	3.8510	3.8510	-0.7528	5.96	0.05	-0.750			
0.1856	11878.85	3.8480	3.8480	-0.7548	5.97	0.06	-0.750			
0.1879	12023.70	3.8450	3.8451	-0.7549	5.97	0.06	-0.750			
0.1901	12166.79	3.8420	3.8419	-0.7544	5.98	0.07	-0.750			
0.1923	12309.82	3.8390	3.8389	-0.7583	5.98	0.07	-0.750			
0.1946	12457.43	3.8360	3.8360	-0.7583	5.99	0.08	-0.750			
0.1969	12603.52	3.8330	3.8330	-0.7589	6.00	0.09	-0.750			
0.1992	12751.15	3.8300	3.8300	-0.7650	6.01	0.10	-0.750			
0.2015	12898.68	3.8270	3.8271	-0.7643	6.01	0.10	-0.750			
0.2038	13044.20	3.8240	3.8239	-0.7626	6.02	0.11	-0.750			
0.2061	13190.51	3.8210	3.8210	-0.7699	6.02	0.11	-0.750			
0.2084	13340.35	3.8180	3.8180	-0.7644	6.03	0.12	-0.750			
0.2108	13488.03	3.8150	3.8149	-0.7673	6.03	0.12	-0.750			
0.2130	13634.27	3.8120	3.8123	-0.7669	6.04	0.13	-0.750			
0.2153	13780.49	3.8090	3.8089	-0.7648	6.05	0.14	-0.750			
0.2176	13926.79	3.8060	3.8058	-0.7666	6.05	0.14	-0.750			
0.2199	14073.52	3.8030	3.8029	-0.7662	6.06	0.15	-0.750			
0.2222	14222.70	3.8000	3.8002	-0.7731	6.06	0.15	-0.750			
0.2246	14372.14	3.7970	3.7970	-0.7743	6.07	0.16	-0.750			
0.2269	14519.70	3.7940	3.7939	-0.7703	6.07	0.16	-0.750			
0.2292	14667.32	3.7910	3.7909	-0.7734	6.08	0.17	-0.750			
0.2315	14814.52	3.7880	3.7880	-0.7720	6.08	0.17	-0.750			
0.2338	14962.69	3.7850	3.7850	-0.7716	6.09	0.18	-0.750			
0.2361	15113.42	3.7820	3.7820	-0.7718	6.10	0.19	-0.750			
0.2385	15261.52	3.7790	3.7792	-0.7701	6.10	0.19	-0.750			
0.2408	15408.44	3.7760	3.7760	-0.7704	6.11	0.20	-0.750			
0.2431	15555.31	3.7730	3.7730	-0.7745	6.11	0.20	-0.750			
0.2454	15703.67	3.7700	3.7700	-0.7789	6.12	0.21	-0.750			
0.2477	15855.65	3.7670	3.7669	-0.7801	6.12	0.21	-0.750			
0.2501	16006.09	3.7640	3.7640	-0.7803	6.13	0.22	-0.750			
0.2525	16157.24	3.7610	3.7610	-0.7826	6.14	0.23	-0.750			
0.2548	16306.04	3.7580	3.7581	-0.7796	6.14	0.23	-0.750			
0.2571	16453.74	3.7550	3.7549	-0.7804	6.15	0.24	-0.750			
0.2594	16602.84	3.7520	3.7520	-0.7853	6.16	0.25	-0.750			
0.2618	16755.90	3.7490	3.7489	-0.7884	6.17	0.26	-0.750			
0.2642	16909.69	3.7460	3.7461	-0.7878	6.17	0.26	-0.750			
0.2666	17059.60	3.7430	3.7431	-0.7968	6.18	0.27	-0.750			
0.2690	17213.05	3.7400	3.7401	-0.7995	6.18	0.27	-0.750			
0.2713	17366.14	3.7370	3.7369	-0.8007	6.18	0.27	-0.750			
0.2737	17519.86	3.7340	3.7338	-0.8042	6.19	0.28	-0.750			
0.2762	17675.04	3.7310	3.7313	-0.8122	6.19	0.28	-0.750			
0.2786	17832.73	3.7280	3.7280	-0.8187	6.20	0.29	-0.750			
0.2812	17993.85	3.7250	3.7249	-0.8301	6.21	0.30	-0.750			
0.2836	18152.08	3.7220	3.7220	-0.8270	6.22	0.31	-0.750			
0.2861	18313.44	3.7190	3.7189	-0.8286	6.22	0.31	-0.750			
0.2886	18471.51	3.7160	3.7163	-0.8341	6.23	0.32	-0.750			
0.2911	18631.30	3.7130	3.7129	-0.8354	6.23	0.32	-0.750			
0.2936	18790.19	3.7100	3.7099	-0.8410	6.24	0.33	-0.750			
0.2961	18949.61	3.7070	3.7071	-0.8393	6.24	0.33	-0.750			
0.2987	19116.09	3.7040	3.7040	-0.8573	6.25	0.34	-0.750			
0.3013	19280.57	3.7010	3.7011	-0.8663	6.25	0.34	-0.750			
0.3039	19447.11	3.6980	3.6979	-0.8771	6.26	0.35	-0.750			
0.3065	19614.84	3.6950	3.6950	-0.8858	6.27	0.36	-0.750			
0.3092	19785.86	3.6920	3.6919	-0.8996	6.28	0.37	-0.750			
0.3119	19960.58	3.6890	3.6890	-0.9118	6.29	0.38	-0.750			
0.3147	20138.29	3.6860	3.6860	-0.9197	6.29	0.38	-0.750			
0.3175	20317.77	3.6830	3.6830	-0.9303	6.30	0.39	-0.750			
0.3203	20496.77	3.6800	3.6799	-0.9340	6.30	0.39	-0.750			
0.3231	20676.00	3.6770	3.6770	-0.9377	6.31	0.40	-0.750			
0.3259	20854.80	3.6740	3.6744	-0.9539	6.31	0.40	-0.750			
0.3287	21037.64	3.6710	3.6709	-0.9689	6.31	0.40	-0.750			
0.3317	21226.58	3.6680	3.6679	-0.9807	6.32	0.41	-0.750			
0.3346	21417.26	3.6650	3.6649	-0.9884	6.32	0.41	-0.750			
0.3377	21611.60	3.6620	3.6622	-1.0033	6.33	0.42	-0.750			
0.3407	21802.76	3.6590	3.6590	-1.0110	6.33	0.42	-0.750			
0.3437	21996.77	3.6560	3.6559	-1.0167	6.33	0.42	-0.750			
0.3467	22190.55	3.6530	3.6529	-1.0211	6.34	0.43	-0.750			
0.3498	22386.35	3.6500	3.6500	-1.0296	6.34	0.43	-0.750			
0.3530	22589.02	3.6470	3.6470	-1.0483	6.35	0.44	-0.750			
0.3561	22791.21	3.6440	3.6440	-1.0528	6.35	0.44	-0.750			
0.3593	22993.27	3.6410	3.6410	-1.0638	6.36	0.45	-0.750			
0.3625	23197.36	3.6380	3.6379	-1.0710	6.37	0.46	-0.750			
0.3657	23404.69	3.6350	3.6349	-1.0887	6.37	0.46	-0.750			
0.3690	23615.93	3.6320	3.6321	-1.1003	6.37	0.46	-0.750			
0.3723	23827.72	3.6290	3.6289	-1.1125	6.37	0.46	-0.750			
0.3757	24041.77	3.6260	3.6261	-1.1240	6.37	0.46	-0.750			
0.3791	24262.68	3.6230	3.6230	-1.1428	6.38	0.47	-0.750			
0.3825	24482.50	3.6200	3.6199	-1.1512	6.38	0.47	-0.750			
0.3860	24706.62	3.6170	3.6169	-1.1618	6.39	0.48	-0.750			
0.3896	24931.55	3.6140	3.6140	-1.1710	6.39	0.48	-0.750			
0.3931	25157.27	3.6110	3.6109	-1.1776	6.39	0.48	-0.750			
0.3966	25380.84	3.6080	3.6080	-1.1880	6.40	0.49	-0.750			
0.4001	25606.56	3.6050	3.6051	-1.2055	6.40	0.49	-0.750			
0.4038	25844.91	3.6020	3.6018	-1.2291	6.40	0.49	-0.750			
0.4075	26082.65	3.5990	3.5990	-1.2400	6.41	0.50	-0.750			
0.4113	26320.18	3.5960	3.5959	-1.2589	6.41	0.50	-0.750	0.484	1.111	
0.4151	26564.53	3.5930	3.5931	-1.2662	6.41	0.50	-0.750			
0.4189	26810.63	3.5900	3.5899	-1.2794	6.41	0.50	-0.750			
0.4227	27053.39	3.5870	3.5868	-1.2969	6.41	0.50	-0.750			
0.4266	27302.24	3.5840	3.5842	-1.3102	6.41	0.50	-0.750			
0.4306	27558.31	3.5810	3.5810	-1.3303	6.42	0.51	-0.750			
0.4346	27817.48	3.5780	3.5778	-1.3455	6.42	0.51	-0.750			
0.4387	28074.91	3.5750	3.5753	-1.3501	6.43	0.52	-0.750			
0.4428	28341.36	3.5720	3.5719	-1.3725	6.43	0.52	-0.750			
0.4469	28603.80	3.5690	3.5690	-1.3806	6.43	0.52	-0.750			
0.4511	28868.78	3.5660	3.5661	-1.4020	6.43	0.52	-0.750			
0.4553	29139.76	3.5630	3.5629	-1.4169	6.43	0.52	-0.750			
0.4596	29413.43	3.5600	3.5599	-1.4296	6.44	0.53	-0.750			
0.4639	29688.54	3.5570	3.5572	-1.4472	6.44	0.53	-0.750			
0.4683	29970.57	3.5540	3.5539	-1.4666	6.44	0.53	-0.750			
0.4727	30251.31	3.5510	3.5510	-1.4795	6.45	0.54	-0.750			
0.4771	30534.76	3.5480	3.5479	-1.4831	6.45	0.54	-0.750			
0.4816	30824.85	3.5450	3.5451	-1.4941	6.46	0.55	-0.750			
0.4861	31112.93	3.5420	3.5419	-1.5211	6.47	0.56	-0.750			
0.4907	31406.51	3.5390	3.5389	-1.5342	6.47	0.56	-0.750			
0.4953	31701.57	3.5360	3.5358	-1.5602	6.47	0.56	-0.750			
0.5001	32004.93	3.5330	3.5332	-1.5707	6.47	0.56	-0.750			
0.5048	32308.41	3.5300	3.5300	-1.5699	6.48	0.57	-0.750			
0.5096	32614.82	3.5270	3.5269	-1.5818	6.50	0.59	-0.750			
0.5143	32916.16	3.5240	3.5240	-1.5888	6.51	0.60	-0.750			
0.5190	33218.60	3.5210	3.5211	-1.5928	6.51	0.60	-0.750			
0.5238	33525.48	3.5180	3.5178	-1.6058	6.51	0.60	-0.750			
0.5287	33837.68	3.5150	3.5149	-1.6188	6.51	0.60	-0.750			
0.5337	34157.83	3.5120	3.5119	-1.6197	6.52	0.61	-0.750			
0.5386	34468.89	3.5090	3.5091	-1.6282	6.53	0.62	-0.750			
0.5434	34775.90	3.5060	3.5062	-1.6119	6.54	0.63	-0.750			
0.5482	35085.03	3.5030	3.5028	-1.6031	6.55	0.64	-0.750			
0.5531	35396.06	3.5000	3.4998	-1.5912	6.55	0.64	-0.750			
0.5578	35701.96	3.4970	3.4969	-1.5944	6.56	0.65	-0.750			
0.5626	36007.16	3.4940	3.4942	-1.6001	6.57	0.66	-0.750			
0.5674	36311.23	3.4910	3.4908	-1.5809	6.58	0.67	-0.750			
0.5721	36616.30	3.4880	3.4881	-1.5891	6.58	0.67	-0.750			
0.5769	36924.80	3.4850	3.4851	-1.5906	6.59	0.68	-0.750			
0.5817	37230.43	3.4820	3.4820	-1.5887	6.60	0.69	-0.750			
0.5866	37541.43	3.4790	3.4791	-1.5885	6.61	0.70	-0.750			
0.5913	37841.37	3.4760	3.4759	-1.5715	6.61	0.70	-0.750			
0.5961	38148.87	3.4730	3.4730	-1.5570	6.62	0.71	-0.750			
0.6007	38447.97	3.4700	3.4702	-1.5514	6.63	0.72	-0.750			
0.6053	38741.42	3.4670	3.4672	-1.5277	6.64	0.73	-0.750			
0.6099	39035.81	3.4640	3.4638	-1.5178	6.64	0.73	-0.750			
0.6144	39324.53	3.4610	3.4611	-1.4874	6.65	0.74	-0.750			
0.6189	39609.10	3.4580	3.4580	-1.4702	6.66	0.75	-0.750			
0.6232	39883.53	3.4550	3.4551	-1.4617	6.67	0.76	-0.750			
0.6276	40164.31	3.4520	3.4519	-1.4374	6.68	0.77	-0.750			
0.6320	40445.95	3.4490	3.4489	-1.4390	6.69	0.78	-0.750			
0.6362	40718.34	3.4460	3.4460	-1.4287	6.70	0.79	-0.750			
0.6406	40996.50	3.4430	3.4429	-1.4014	6.71	0.80	-0.750			
0.6448	41266.59	3.4400	3.4399	-1.3797	6.72	0.81	-0.750			
0.6488	41522.84	3.4370	3.4370	-1.3557	6.73	0.82	-0.750			
0.6528	41781.27	3.4340	3.4339	-1.3176	6.74	0.83	-0.750			
0.6568	42034.64	3.4310	3.4309	-1.2934	6.75	0.84	-0.750			
0.6606	42278.76	3.4280	3.4278	-1.2628	6.76	0.85	-0.750			
0.6643	42516.27	3.4250	3.4251	-1.2387	6.77	0.86	-0.750			
0.6681	42757.15	3.4220	3.4219	-1.2209	6.79	0.88	-0.750			
0.6717	42986.81	3.4190	3.4190	-1.1868	6.80	0.89	-0.750			
0.6751	43208.95	3.4160	3.4161	-1.1475	6.81	0.90	-0.750			
0.6787	43435.02	3.4130	3.4130	-1.1434	6.82	0.91	-0.750			
0.6820	43651.01	3.4100	3.4100	-1.1122	6.83	0.92	-0.750			
0.6853	43860.89	3.4070	3.4069	-1.0832	6.84	0.93	-0.750			
0.6885	44061.65	3.4040	3.4044	-1.0659	6.85	0.94	-0.750			
0.6917	44267.48	3.4010	3.4010	-1.0372	6.86	0.95	-0.750			
0.6948	44465.70	3.3980	3.3979	-1.0048	6.87	0.96	-0.750			
0.6977	44654.96	3.3950	3.3949	-0.9761	6.88	0.97	-0.750			
0.7006	44840.21	3.3920	3.3926	-0.9555	6.89	0.98	-0.750			
0.7034	45019.41	3.3890	3.3889	-0.9266	6.90	0.99	-0.750			
0.7062	45194.37	3.3860	3.3859	-0.8929	6.91	1.00	-0.750			
0.7088	45361.48	3.3830	3.3830	-0.8718	6.92	1.01	-0.750			
0.7114	45527.11	3.3800	3.3802	-0.8574	6.92	1.01	-0.750			
0.7139	45690.15	3.3770	3.3769	-0.8340	6.93	1.02	-0.750			
0.7164	45847.15	3.3740	3.3740	-0.8082	6.95	1.04	-0.750			
0.7188	46001.52	3.3710	3.3711	-0.7992	6.96	1.05	-0.750			
0.7212	46154.73	3.3680	3.3679	-0.7770	6.97	1.06	-0.750			
0.7235	46304.35	3.3650	3.3648	-0.7492	6.98	1.07	-0.750			
0.7257	46444.32	3.3620	3.3627	-0.7187	6.99	1.08	-0.750			
0.7278	46577.56	3.3590	3.3589	-0.6628	7.00	1.09	-0.750			
