Ah_balance (normalized)	Ah_balance (mAh)	Voltage - fit (V)	Voltage -  interpolate (V)	dQ/dV (1/V)	Temperature (°C)	Temperature - diff (°C)	Current (C)	R_DC 0ms (mOhm)	R_DC 50ms (mOhm)	R_DC 50 ms PEC (mOhm)
0.0942	6026.19	4.0060	4.0056	-0.0940	5.99	0.02	-0.750			
0.0945	6046.45	4.0030	4.0028	-0.1202	5.99	0.02	-0.750			
0.0949	6072.18	4.0000	4.0001	-0.1478	5.99	0.02	-0.750			
0.0954	6103.49	3.9970	3.9970	-0.1741	5.98	0.01	-0.750			
0.0959	6139.69	3.9940	3.9939	-0.1990	5.98	0.01	-0.750			
0.0966	6180.71	3.9910	3.9911	-0.2254	5.98	0.01	-0.750			
0.0973	6226.31	3.9880	3.9881	-0.2496	5.98	0.01	-0.750			
0.0981	6276.44	3.9850	3.9850	-0.2747	5.98	0.01	-0.750			
0.0989	6331.88	3.9820	3.9820	-0.2987	5.98	0.01	-0.750			
0.0999	6391.24	3.9790	3.9789	-0.3226	5.98	0.01	-0.750			
0.1009	6456.09	3.9760	3.9761	-0.3476	5.98	0.01	-0.750			
0.1020	6525.00	3.9730	3.9730	-0.3724	5.97	0.00	-0.750			
0.1031	6598.82	3.9700	3.9699	-0.3961	5.97	0.00	-0.750			
0.1043	6677.18	3.9670	3.9671	-0.4220	5.97	0.00	-0.750			
0.1056	6760.00	3.9640	3.9640	-0.4469	5.97	-0.00	-0.750			
0.1070	6848.67	3.9610	3.9610	-0.4722	5.97	-0.00	-0.750			
0.1085	6942.12	3.9580	3.9580	-0.4950	5.96	-0.01	-0.750			
0.1100	7039.50	3.9550	3.9550	-0.5182	5.96	-0.01	-0.750			
0.1116	7141.84	3.9520	3.9520	-0.5403	5.96	-0.01	-0.750			
0.1132	7247.89	3.9490	3.9490	-0.5623	5.96	-0.01	-0.750			
0.1150	7357.95	3.9460	3.9460	-0.5794	5.95	-0.02	-0.750			
0.1167	7471.62	3.9430	3.9429	-0.5962	5.95	-0.02	-0.750			
0.1186	7588.12	3.9400	3.9400	-0.6133	5.95	-0.02	-0.750			
0.1204	7707.68	3.9370	3.9370	-0.6271	5.95	-0.02	-0.750			
0.1223	7828.94	3.9340	3.9340	-0.6411	5.95	-0.02	-0.750			
0.1243	7953.32	3.9310	3.9310	-0.6540	5.95	-0.02	-0.750			
0.1262	8079.60	3.9280	3.9281	-0.6680	5.95	-0.02	-0.750			
0.1283	8210.69	3.9250	3.9248	-0.6787	5.95	-0.02	-0.750			
0.1304	8343.54	3.9220	3.9219	-0.6869	5.95	-0.02	-0.750			
0.1324	8475.34	3.9190	3.9191	-0.6929	5.95	-0.02	-0.750			
0.1345	8608.45	3.9160	3.9161	-0.7049	5.95	-0.02	-0.750			
0.1366	8742.92	3.9130	3.9130	-0.7084	5.96	-0.01	-0.750			
0.1388	8880.88	3.9100	3.9097	-0.7229	5.96	-0.01	-0.750			
0.1409	9019.84	3.9070	3.9071	-0.7308	5.96	-0.01	-0.750			
0.1432	9162.70	3.9040	3.9039	-0.7407	5.96	-0.01	-0.750			
0.1454	9307.27	3.9010	3.9010	-0.7495	5.96	-0.01	-0.750			
0.1477	9451.65	3.8980	3.8979	-0.7513	5.96	-0.01	-0.750			
0.1499	9594.44	3.8950	3.8951	-0.7490	5.97	-0.00	-0.750			
0.1522	9740.04	3.8920	3.8918	-0.7531	5.97	-0.00	-0.750			
0.1544	9883.61	3.8890	3.8894	-0.7553	5.97	0.00	-0.750			
0.1567	10029.02	3.8860	3.8859	-0.7598	5.97	0.00	-0.750			
0.1590	10175.62	3.8830	3.8830	-0.7652	5.98	0.01	-0.750			
0.1613	10323.13	3.8800	3.8800	-0.7673	5.98	0.01	-0.750			
0.1636	10470.65	3.8770	3.8770	-0.7709	5.98	0.01	-0.750			
0.1659	10619.10	3.8740	3.8739	-0.7747	5.99	0.02	-0.750			
0.1682	10767.76	3.8710	3.8709	-0.7757	5.99	0.02	-0.750			
0.1706	10916.23	3.8680	3.8680	-0.7747	6.00	0.03	-0.750			
0.1729	11065.20	3.8650	3.8650	-0.7739	6.00	0.03	-0.750			
0.1752	11213.05	3.8620	3.8621	-0.7767	6.00	0.03	-0.750			
0.1776	11363.82	3.8590	3.8589	-0.7778	6.01	0.04	-0.750			
0.1799	11512.79	3.8560	3.8561	-0.7785	6.01	0.04	-0.750			
0.1822	11661.43	3.8530	3.8530	-0.7803	6.01	0.04	-0.750			
0.1846	11812.05	3.8500	3.8500	-0.7896	6.02	0.05	-0.750			
0.1870	11965.35	3.8470	3.8470	-0.7904	6.02	0.05	-0.750			
0.1893	12118.17	3.8440	3.8439	-0.7913	6.03	0.06	-0.750			
0.1917	12269.49	3.8410	3.8412	-0.7925	6.03	0.06	-0.750			
0.1941	12423.05	3.8380	3.8379	-0.7925	6.04	0.07	-0.750			
0.1965	12573.79	3.8350	3.8350	-0.7929	6.04	0.07	-0.750			
0.1988	12724.43	3.8320	3.8320	-0.7925	6.05	0.08	-0.750			
0.2012	12878.12	3.8290	3.8290	-0.7991	6.06	0.09	-0.750			
0.2036	13032.36	3.8260	3.8260	-0.8013	6.07	0.10	-0.750			
0.2060	13185.77	3.8230	3.8229	-0.8017	6.07	0.10	-0.750			
0.2084	13338.86	3.8200	3.8201	-0.8067	6.08	0.11	-0.750			
0.2109	13495.67	3.8170	3.8169	-0.8064	6.08	0.11	-0.750			
0.2133	13649.69	3.8140	3.8140	-0.8051	6.08	0.11	-0.750			
0.2157	13805.39	3.8110	3.8110	-0.8042	6.09	0.12	-0.750			
0.2181	13959.59	3.8080	3.8079	-0.8038	6.09	0.12	-0.750			
0.2205	14112.78	3.8050	3.8050	-0.8084	6.10	0.13	-0.750			
0.2230	14269.09	3.8020	3.8020	-0.8052	6.11	0.14	-0.750			
0.2254	14423.61	3.7990	3.7989	-0.8013	6.12	0.15	-0.750			
0.2278	14579.36	3.7960	3.7959	-0.8007	6.12	0.15	-0.750			
0.2302	14731.79	3.7930	3.7931	-0.7984	6.13	0.16	-0.750			
0.2325	14882.83	3.7900	3.7900	-0.8064	6.14	0.17	-0.750			
0.2349	15036.14	3.7870	3.7869	-0.8073	6.15	0.18	-0.750			
0.2374	15191.28	3.7840	3.7839	-0.8037	6.16	0.19	-0.750			
0.2398	15350.01	3.7810	3.7810	-0.8137	6.16	0.19	-0.750			
0.2423	15507.96	3.7780	3.7782	-0.8168	6.17	0.20	-0.750			
0.2448	15665.17	3.7750	3.7750	-0.8122	6.17	0.20	-0.750			
0.2472	15818.67	3.7720	3.7719	-0.8114	6.18	0.21	-0.750			
0.2496	15974.14	3.7690	3.7690	-0.8081	6.18	0.21	-0.750			
0.2520	16130.06	3.7660	3.7660	-0.8116	6.19	0.22	-0.750			
0.2545	16285.77	3.7630	3.7632	-0.8122	6.19	0.22	-0.750			
0.2569	16441.58	3.7600	3.7599	-0.8122	6.20	0.23	-0.750			
0.2593	16597.82	3.7570	3.7570	-0.8140	6.21	0.24	-0.750			
0.2618	16754.29	3.7540	3.7540	-0.8130	6.21	0.24	-0.750			
0.2642	16910.77	3.7510	3.7510	-0.8189	6.22	0.25	-0.750			
0.2667	17068.15	3.7480	3.7482	-0.8217	6.23	0.26	-0.750			
0.2692	17226.12	3.7450	3.7449	-0.8187	6.24	0.27	-0.750			
0.2716	17383.22	3.7420	3.7420	-0.8235	6.25	0.28	-0.750			
0.2741	17540.52	3.7390	3.7390	-0.8263	6.25	0.28	-0.750			
0.2766	17699.72	3.7360	3.7360	-0.8260	6.26	0.29	-0.750			
0.2791	17859.93	3.7330	3.7332	-0.8314	6.27	0.30	-0.750			
0.2815	18018.63	3.7300	3.7300	-0.8347	6.27	0.30	-0.750			
0.2841	18179.25	3.7270	3.7269	-0.8414	6.28	0.31	-0.750			
0.2866	18342.72	3.7240	3.7240	-0.8439	6.28	0.31	-0.750			
0.2891	18504.07	3.7210	3.7210	-0.8428	6.29	0.32	-0.750			
0.2917	18668.55	3.7180	3.7182	-0.8494	6.29	0.32	-0.750			
0.2943	18832.83	3.7150	3.7149	-0.8540	6.30	0.33	-0.750			
0.2968	18995.39	3.7120	3.7120	-0.8554	6.31	0.34	-0.750			
0.2994	19159.42	3.7090	3.7090	-0.8602	6.31	0.34	-0.750			
0.3019	19324.26	3.7060	3.7062	-0.8661	6.32	0.35	-0.750			
0.3046	19492.77	3.7030	3.7031	-0.8797	6.33	0.36	-0.750			
0.3072	19660.05	3.7000	3.7000	-0.8989	6.34	0.37	-0.750			
0.3099	19833.96	3.6970	3.6970	-0.9020	6.34	0.37	-0.750			
0.3126	20008.68	3.6940	3.6940	-0.9127	6.35	0.38	-0.750			
0.3155	20189.08	3.6910	3.6910	-0.9197	6.36	0.39	-0.750			
0.3182	20365.45	3.6880	3.6878	-0.9205	6.36	0.39	-0.750			
0.3210	20541.16	3.6850	3.6850	-0.9275	6.37	0.40	-0.750			
0.3237	20716.90	3.6820	3.6820	-0.9367	6.38	0.41	-0.750			
0.3265	20894.65	3.6790	3.6790	-0.9449	6.38	0.41	-0.750			
0.3294	21083.00	3.6760	3.6761	-0.9601	6.39	0.42	-0.750			
0.3323	21267.52	3.6730	3.6730	-0.9731	6.40	0.43	-0.750			
0.3353	21456.21	3.6700	3.6701	-0.9867	6.41	0.44	-0.750			
0.3382	21645.62	3.6670	3.6669	-0.9956	6.42	0.45	-0.750			
0.3412	21837.28	3.6640	3.6639	-1.0093	6.43	0.46	-0.750			
0.3442	22031.90	3.6610	3.6610	-1.0226	6.43	0.46	-0.750			
0.3474	22230.95	3.6580	3.6580	-1.0382	6.44	0.47	-0.750			
0.3505	22433.99	3.6550	3.6550	-1.0461	6.44	0.47	-0.750			
0.3536	22633.06	3.6520	3.6520	-1.0509	6.45	0.48	-0.750			
0.3568	22836.30	3.6490	3.6490	-1.0735	6.45	0.48	-0.750			
0.3601	23044.74	3.6460	3.6459	-1.0848	6.46	0.49	-0.750			
0.3633	23249.18	3.6430	3.6429	-1.1074	6.46	0.49	-0.750			
0.3666	23463.43	3.6400	3.6404	-1.1375	6.47	0.50	-0.750			
0.3702	23689.91	3.6370	3.6368	-1.1619	6.48	0.51	-0.750			
0.3737	23917.14	3.6340	3.6338	-1.1803	6.49	0.52	-0.750			
0.3773	24146.85	3.6310	3.6311	-1.1825	6.49	0.52	-0.750			
0.3809	24378.07	3.6280	3.6280	-1.2061	6.50	0.53	-0.750			
0.3845	24609.14	3.6250	3.6249	-1.2074	6.51	0.54	-0.750			
0.3880	24834.05	3.6220	3.6219	-1.2001	6.51	0.54	-0.750			
0.3917	25066.58	3.6190	3.6192	-1.2161	6.52	0.55	-0.750			
0.3954	25304.51	3.6160	3.6160	-1.2324	6.52	0.55	-0.750			
0.3991	25541.99	3.6130	3.6129	-1.2432	6.53	0.56	-0.750			
0.4028	25781.04	3.6100	3.6100	-1.2604	6.53	0.56	-0.750			
0.4066	26024.37	3.6070	3.6070	-1.2734	6.53	0.56	-0.750			
0.4105	26269.33	3.6040	3.6039	-1.2877	6.54	0.57	-0.750			
0.4143	26516.55	3.6010	3.6009	-1.3003	6.55	0.58	-0.750	0.470	1.084	
0.4183	26769.05	3.5980	3.5981	-1.3132	6.55	0.58	-0.750			
0.4223	27024.07	3.5950	3.5949	-1.3372	6.56	0.59	-0.750			
0.4263	27281.58	3.5920	3.5920	-1.3513	6.57	0.60	-0.750			
0.4303	27542.22	3.5890	3.5890	-1.3696	6.57	0.60	-0.750			
0.4345	27809.48	3.5860	3.5862	-1.3863	6.57	0.60	-0.750			
0.4387	28077.80	3.5830	3.5829	-1.3965	6.57	0.60	-0.750			
0.4429	28346.93	3.5800	3.5801	-1.4179	6.57	0.60	-0.750			
0.4472	28620.34	3.5770	3.5769	-1.4334	6.58	0.61	-0.750			
0.4514	28892.79	3.5740	3.5740	-1.4547	6.59	0.62	-0.750			
0.4559	29175.52	3.5710	3.5710	-1.4742	6.59	0.62	-0.750			
0.4603	29461.67	3.5680	3.5680	-1.5009	6.60	0.63	-0.750			
0.4649	29752.80	3.5650	3.5649	-1.5197	6.62	0.65	-0.750			
0.4695	30046.74	3.5620	3.5618	-1.5284	6.62	0.65	-0.750			
0.4741	30343.51	3.5590	3.5589	-1.5590	6.63	0.66	-0.750			
0.4788	30643.47	3.5560	3.5561	-1.5739	6.63	0.66	-0.750			
0.4835	30944.37	3.5530	3.5529	-1.5899	6.64	0.67	-0.750			
0.4884	31255.67	3.5500	3.5502	-1.6038	6.64	0.67	-0.750			
0.4932	31563.83	3.5470	3.5470	-1.6254	6.65	0.68	-0.750			
0.4981	31875.86	3.5440	3.5439	-1.6416	6.66	0.69	-0.750			
0.5031	32195.70	3.5410	3.5408	-1.6528	6.67	0.70	-0.750			
0.5080	32514.12	3.5380	3.5379	-1.6685	6.68	0.71	-0.750			
0.5130	32834.90	3.5350	3.5348	-1.6736	6.68	0.71	-0.750			
0.5181	33158.49	3.5320	3.5320	-1.6779	6.69	0.72	-0.750			
0.5232	33482.86	3.5290	3.5290	-1.6889	6.70	0.73	-0.750			
0.5283	33812.54	3.5260	3.5259	-1.7020	6.71	0.74	-0.750			
0.5334	34136.54	3.5230	3.5231	-1.6956	6.72	0.75	-0.750			
0.5385	34466.49	3.5200	3.5201	-1.7091	6.73	0.76	-0.750			
0.5438	34802.13	3.5170	3.5170	-1.6375	6.74	0.77	-0.750			
0.5486	35113.58	3.5140	3.5139	-1.5858	6.76	0.79	-0.750			
0.5534	35415.58	3.5110	3.5114	-1.5516	6.77	0.80	-0.750			
0.5576	35689.32	3.5080	3.5081	-1.5409	6.77	0.80	-0.750			
0.5621	35975.27	3.5050	3.5049	-1.5753	6.78	0.81	-0.750			
0.5668	36274.75	3.5020	3.5020	-1.6163	6.78	0.81	-0.750			
0.5718	36596.76	3.4990	3.4993	-1.6604	6.79	0.82	-0.750			
0.5772	36942.65	3.4960	3.4961	-1.7259	6.80	0.83	-0.750			
0.5825	37281.10	3.4930	3.4928	-1.7255	6.80	0.83	-0.750			
0.5877	37612.36	3.4900	3.4897	-1.7142	6.81	0.84	-0.750			
0.5927	37934.98	3.4870	3.4872	-1.6907	6.81	0.84	-0.750			
0.5977	38255.18	3.4840	3.4842	-1.6681	6.83	0.86	-0.750			
0.6028	38576.59	3.4810	3.4811	-1.6512	6.84	0.87	-0.750			
0.6076	38888.82	3.4780	3.4779	-1.6382	6.86	0.89	-0.750			
0.6126	39207.09	3.4750	3.4749	-1.6458	6.86	0.89	-0.750			
0.6176	39528.58	3.4720	3.4719	-1.6166	6.87	0.90	-0.750			
0.6224	39835.23	3.4690	3.4694	-1.5990	6.88	0.91	-0.750			
0.6272	40140.45	3.4660	3.4662	-1.5705	6.89	0.92	-0.750			
0.6319	40442.41	3.4630	3.4627	-1.5443	6.91	0.94	-0.750			
0.6364	40732.57	3.4600	3.4600	-1.5066	6.92	0.95	-0.750			
0.6410	41021.15	3.4570	3.4570	-1.4913	6.93	0.96	-0.750			
0.6454	41303.72	3.4540	3.4539	-1.4787	6.94	0.97	-0.750			
0.6498	41586.45	3.4510	3.4509	-1.4561	6.96	0.99	-0.750			
0.6540	41857.17	3.4480	3.4483	-1.4283	6.97	1.00	-0.750			
0.6584	42136.37	3.4450	3.4450	-1.4046	6.99	1.02	-0.750			
0.6626	42407.21	3.4420	3.4419	-1.3845	7.00	1.03	-0.750			
0.6667	42670.00	3.4390	3.4393	-1.3673	7.02	1.05	-0.750			
0.6708	42933.80	3.4360	3.4358	-1.3399	7.04	1.07	-0.750			
0.6747	43183.02	3.4330	3.4328	-1.2970	7.05	1.08	-0.750			
0.6786	43430.73	3.4300	3.4303	-1.2680	7.07	1.10	-0.750			
0.6824	43674.77	3.4270	3.4269	-1.2482	7.08	1.11	-0.750			
0.6861	43909.46	3.4240	3.4239	-1.2153	7.10	1.13	-0.750			
0.6896	44135.74	3.4210	3.4210	-1.1749	7.11	1.14	-0.750			
0.6931	44358.74	3.4180	3.4180	-1.1512	7.13	1.16	-0.750			
0.6966	44584.78	3.4150	3.4149	-1.1334	7.14	1.17	-0.750			
0.7000	44798.13	3.4120	3.4120	-1.1035	7.16	1.19	-0.750			
0.7032	45006.85	3.4090	3.4090	-1.0688	7.17	1.20	-0.750			
0.7064	45210.19	3.4060	3.4058	-1.0470	7.19	1.22	-0.750			
0.7095	45405.78	3.4030	3.4030	-1.0127	7.20	1.23	-0.750			
0.7125	45598.84	3.4000	3.4000	-0.9823	7.21	1.24	-0.750			
0.7154	45783.24	3.3970	3.3968	-0.9510	7.22	1.25	-0.750			
0.7182	45966.00	3.3940	3.3941	-0.9305	7.24	1.27	-0.750			
0.7210	46141.04	3.3910	3.3909	-0.9054	7.26	1.29	-0.750			
0.7236	46312.91	3.3880	3.3879	-0.8834	7.27	1.30	-0.750			
0.7262	46477.86	3.3850	3.3850	-0.8504	7.29	1.32	-0.750			
0.7288	46642.51	3.3820	3.3821	-0.8309	7.31	1.34	-0.750			
0.7313	46801.95	3.3790	3.3789	-0.8090	7.32	1.35	-0.750			
0.7336	46953.50	3.3760	3.3759	-0.7778	7.34	1.37	-0.750			
0.7359	47098.71	3.3730	3.3730	-0.7580	7.35	1.38	-0.750			
0.7382	47243.89	3.3700	3.3700	-0.7631	7.37	1.40	-0.750			
