Ah_balance (normalized)	Ah_balance (mAh)	Voltage - fit (V)	Voltage -  interpolate (V)	dQ/dV (1/V)	Temperature (°C)	Temperature - diff (°C)	Current (C)	R_DC 0ms (mOhm)	R_DC 50ms (mOhm)	R_DC 50 ms PEC (mOhm)
0.0962	6154.13	4.0050	4.0048	-0.0723	6.01	0.02	-0.750			
0.0964	6172.57	4.0020	4.0019	-0.1071	6.01	0.02	-0.750			
0.0968	6195.95	3.9990	3.9987	-0.1364	6.00	0.01	-0.750			
0.0973	6225.51	3.9960	3.9960	-0.1631	6.00	0.01	-0.750			
0.0978	6259.52	3.9930	3.9931	-0.1894	6.00	0.01	-0.750			
0.0984	6300.24	3.9900	3.9900	-0.2150	6.00	0.01	-0.750			
0.0991	6343.42	3.9870	3.9870	-0.2375	5.99	0.00	-0.750			
0.0999	6390.92	3.9840	3.9840	-0.2606	5.99	-0.00	-0.750			
0.1007	6443.04	3.9810	3.9810	-0.2831	5.98	-0.01	-0.750			
0.1016	6499.34	3.9780	3.9780	-0.3083	5.98	-0.01	-0.750			
0.1025	6561.14	3.9750	3.9750	-0.3320	5.98	-0.01	-0.750			
0.1036	6627.38	3.9720	3.9720	-0.3552	5.97	-0.02	-0.750			
0.1047	6698.05	3.9690	3.9690	-0.3789	5.97	-0.02	-0.750			
0.1058	6772.92	3.9660	3.9661	-0.4018	5.96	-0.03	-0.750			
0.1071	6851.92	3.9630	3.9631	-0.4270	5.95	-0.04	-0.750			
0.1084	6936.46	3.9600	3.9600	-0.4494	5.95	-0.04	-0.750			
0.1098	7025.05	3.9570	3.9569	-0.4703	5.94	-0.05	-0.750			
0.1112	7118.24	3.9540	3.9540	-0.4922	5.93	-0.06	-0.750			
0.1127	7214.79	3.9510	3.9511	-0.5113	5.93	-0.06	-0.750			
0.1143	7315.53	3.9480	3.9480	-0.5290	5.93	-0.06	-0.750			
0.1159	7418.69	3.9450	3.9450	-0.5463	5.93	-0.06	-0.750			
0.1176	7524.27	3.9420	3.9421	-0.5616	5.93	-0.06	-0.750			
0.1193	7634.33	3.9390	3.9390	-0.5802	5.93	-0.06	-0.750			
0.1211	7748.98	3.9360	3.9360	-0.5923	5.93	-0.06	-0.750			
0.1229	7863.02	3.9330	3.9330	-0.6071	5.93	-0.06	-0.750			
0.1247	7980.98	3.9300	3.9301	-0.6218	5.93	-0.06	-0.750			
0.1266	8102.13	3.9270	3.9270	-0.6345	5.93	-0.06	-0.750			
0.1285	8224.91	3.9240	3.9239	-0.6449	5.93	-0.06	-0.750			
0.1305	8350.62	3.9210	3.9211	-0.6568	5.93	-0.06	-0.750			
0.1325	8479.01	3.9180	3.9180	-0.6665	5.93	-0.06	-0.750			
0.1345	8608.72	3.9150	3.9149	-0.6721	5.93	-0.06	-0.750			
0.1365	8736.45	3.9120	3.9120	-0.6744	5.93	-0.06	-0.750			
0.1385	8866.83	3.9090	3.9090	-0.6830	5.93	-0.06	-0.750			
0.1406	8998.27	3.9060	3.9059	-0.6902	5.93	-0.06	-0.750			
0.1427	9131.67	3.9030	3.9030	-0.6979	5.93	-0.06	-0.750			
0.1448	9266.68	3.9000	3.9001	-0.7032	5.93	-0.06	-0.750			
0.1470	9404.86	3.8970	3.8969	-0.7109	5.93	-0.06	-0.750			
0.1491	9542.14	3.8940	3.8941	-0.7122	5.93	-0.06	-0.750			
0.1512	9677.61	3.8910	3.8909	-0.7113	5.93	-0.06	-0.750			
0.1533	9814.29	3.8880	3.8880	-0.7131	5.94	-0.05	-0.750			
0.1555	9950.62	3.8850	3.8850	-0.7152	5.94	-0.05	-0.750			
0.1576	10087.94	3.8820	3.8820	-0.7197	5.94	-0.05	-0.750			
0.1598	10227.68	3.8790	3.8790	-0.7244	5.95	-0.04	-0.750			
0.1620	10366.50	3.8760	3.8761	-0.7291	5.95	-0.04	-0.750			
0.1642	10507.68	3.8730	3.8730	-0.7314	5.95	-0.04	-0.750			
0.1664	10648.22	3.8700	3.8699	-0.7350	5.95	-0.04	-0.750			
0.1686	10793.52	3.8670	3.8670	-0.7240	5.95	-0.04	-0.750			
0.1708	10933.94	3.8640	3.8639	-0.6934	5.95	-0.04	-0.750			
0.1729	11066.86	3.8610	3.8611	-0.6767	5.95	-0.04	-0.750			
0.1749	11191.43	3.8580	3.8583	-0.6764	5.95	-0.04	-0.750			
0.1768	11313.82	3.8550	3.8545	-0.6721	5.95	-0.04	-0.750			
0.1787	11439.62	3.8520	3.8519	-0.6887	5.96	-0.03	-0.750			
0.1808	11571.33	3.8490	3.8492	-0.7018	5.96	-0.03	-0.750			
0.1830	11714.33	3.8460	3.8460	-0.7337	5.96	-0.03	-0.750			
0.1853	11858.10	3.8430	3.8429	-0.7429	5.97	-0.02	-0.750			
0.1875	12001.12	3.8400	3.8402	-0.7429	5.97	-0.02	-0.750			
0.1897	12143.41	3.8370	3.8371	-0.7478	5.97	-0.02	-0.750			
0.1920	12288.05	3.8340	3.8341	-0.7535	5.98	-0.01	-0.750			
0.1943	12434.34	3.8310	3.8309	-0.7543	5.98	-0.01	-0.750			
0.1966	12580.62	3.8280	3.8279	-0.7556	5.99	-0.00	-0.750			
0.1988	12725.31	3.8250	3.8250	-0.7452	5.99	-0.00	-0.750			
0.2011	12869.85	3.8220	3.8220	-0.7394	5.99	0.00	-0.750			
0.2033	13009.86	3.8190	3.8190	-0.7374	6.00	0.01	-0.750			
0.2054	13148.20	3.8160	3.8162	-0.7397	6.00	0.01	-0.750			
0.2077	13290.28	3.8130	3.8128	-0.7386	6.00	0.01	-0.750			
0.2099	13433.14	3.8100	3.8098	-0.7408	6.01	0.02	-0.750			
0.2121	13575.69	3.8070	3.8075	-0.7451	6.01	0.02	-0.750			
0.2144	13719.70	3.8040	3.8038	-0.7496	6.01	0.02	-0.750			
0.2166	13864.24	3.8010	3.8010	-0.7576	6.02	0.03	-0.750			
0.2189	14009.48	3.7980	3.7979	-0.7583	6.02	0.03	-0.750			
0.2212	14158.31	3.7950	3.7949	-0.7610	6.02	0.03	-0.750			
0.2235	14304.48	3.7920	3.7919	-0.7607	6.03	0.04	-0.750			
0.2258	14450.07	3.7890	3.7890	-0.7603	6.03	0.04	-0.750			
0.2280	14594.09	3.7860	3.7859	-0.7604	6.04	0.05	-0.750			
0.2303	14737.99	3.7830	3.7828	-0.7591	6.04	0.05	-0.750			
0.2325	14882.40	3.7800	3.7801	-0.7582	6.05	0.06	-0.750			
0.2349	15032.40	3.7770	3.7770	-0.7715	6.05	0.06	-0.750			
0.2372	15180.90	3.7740	3.7740	-0.7732	6.06	0.07	-0.750			
0.2395	15330.10	3.7710	3.7709	-0.7714	6.06	0.07	-0.750			
0.2418	15476.62	3.7680	3.7681	-0.7709	6.07	0.08	-0.750			
0.2441	15624.99	3.7650	3.7649	-0.7720	6.07	0.08	-0.750			
0.2465	15774.76	3.7620	3.7621	-0.7687	6.07	0.08	-0.750			
0.2488	15920.94	3.7590	3.7589	-0.7713	6.08	0.09	-0.750			
0.2511	16067.93	3.7560	3.7561	-0.7748	6.08	0.09	-0.750			
0.2534	16215.87	3.7530	3.7529	-0.7833	6.09	0.10	-0.750			
0.2557	16366.95	3.7500	3.7500	-0.7824	6.09	0.10	-0.750			
0.2581	16518.42	3.7470	3.7470	-0.7881	6.10	0.11	-0.750			
0.2605	16672.37	3.7440	3.7439	-0.7926	6.11	0.12	-0.750			
0.2629	16825.07	3.7410	3.7411	-0.7943	6.11	0.12	-0.750			
0.2652	16973.93	3.7380	3.7379	-0.8005	6.11	0.12	-0.750			
0.2676	17126.69	3.7350	3.7350	-0.8055	6.12	0.13	-0.750			
0.2700	17281.34	3.7320	3.7319	-0.8059	6.12	0.13	-0.750			
0.2725	17440.43	3.7290	3.7289	-0.8140	6.13	0.14	-0.750			
0.2750	17597.50	3.7260	3.7262	-0.8205	6.13	0.14	-0.750			
0.2774	17756.75	3.7230	3.7229	-0.8217	6.14	0.15	-0.750			
0.2799	17912.98	3.7200	3.7200	-0.8282	6.14	0.15	-0.750			
0.2824	18071.02	3.7170	3.7171	-0.8337	6.15	0.16	-0.750			
0.2849	18233.37	3.7140	3.7139	-0.8413	6.15	0.16	-0.750			
0.2874	18395.46	3.7110	3.7112	-0.8500	6.16	0.17	-0.750			
0.2900	18559.54	3.7080	3.7079	-0.8569	6.16	0.17	-0.750			
0.2926	18725.91	3.7050	3.7050	-0.8602	6.16	0.17	-0.750			
0.2952	18891.50	3.7020	3.7019	-0.8688	6.17	0.18	-0.750			
0.2978	19059.65	3.6990	3.6990	-0.8763	6.17	0.18	-0.750			
0.3004	19228.01	3.6960	3.6961	-0.8808	6.17	0.18	-0.750			
0.3031	19397.59	3.6930	3.6928	-0.8911	6.18	0.19	-0.750			
0.3058	19568.58	3.6900	3.6901	-0.8923	6.18	0.19	-0.750			
0.3084	19738.01	3.6870	3.6870	-0.8960	6.19	0.20	-0.750			
0.3112	19913.80	3.6840	3.6840	-0.9142	6.20	0.21	-0.750			
0.3139	20087.25	3.6810	3.6811	-0.9201	6.20	0.21	-0.750			
0.3167	20269.01	3.6780	3.6778	-0.9340	6.21	0.22	-0.750			
0.3195	20450.10	3.6750	3.6750	-0.9420	6.22	0.23	-0.750			
0.3224	20632.56	3.6720	3.6720	-0.9448	6.22	0.23	-0.750			
0.3252	20815.96	3.6690	3.6692	-0.9616	6.23	0.24	-0.750			
0.3281	20999.58	3.6660	3.6658	-0.9729	6.24	0.25	-0.750			
0.3310	21186.00	3.6630	3.6629	-0.9794	6.24	0.25	-0.750			
0.3340	21374.13	3.6600	3.6600	-0.9838	6.24	0.25	-0.750			
0.3370	21568.06	3.6570	3.6573	-1.0002	6.25	0.26	-0.750			
0.3400	21761.58	3.6540	3.6539	-1.0130	6.25	0.26	-0.750			
0.3431	21957.62	3.6510	3.6510	-1.0122	6.26	0.27	-0.750			
0.3461	22149.55	3.6480	3.6479	-1.0127	6.26	0.27	-0.750			
0.3491	22343.37	3.6450	3.6450	-1.0298	6.27	0.28	-0.750			
0.3522	22541.27	3.6420	3.6420	-1.0559	6.27	0.28	-0.750			
0.3554	22747.76	3.6390	3.6388	-1.0669	6.28	0.29	-0.750			
0.3586	22953.58	3.6360	3.6359	-1.0776	6.28	0.29	-0.750			
0.3619	23160.97	3.6330	3.6335	-1.0911	6.29	0.30	-0.750			
0.3653	23379.87	3.6300	3.6299	-1.1011	6.30	0.31	-0.750			
0.3686	23591.08	3.6270	3.6268	-1.0934	6.30	0.31	-0.750			
0.3718	23794.90	3.6240	3.6240	-1.0883	6.31	0.32	-0.750			
0.3750	24001.61	3.6210	3.6213	-1.1224	6.31	0.32	-0.750			
0.3784	24219.78	3.6180	3.6180	-1.1348	6.32	0.33	-0.750			
0.3819	24439.10	3.6150	3.6148	-1.1436	6.32	0.33	-0.750			
0.3853	24660.43	3.6120	3.6120	-1.1583	6.33	0.34	-0.750			
0.3889	24890.29	3.6090	3.6089	-1.1855	6.33	0.34	-0.750			
0.3925	25118.38	3.6060	3.6059	-1.1872	6.33	0.34	-0.750			
0.3960	25344.80	3.6030	3.6029	-1.1882	6.34	0.35	-0.750			
0.3996	25571.31	3.6000	3.6004	-1.1995	6.34	0.35	-0.750			
0.4033	25808.29	3.5970	3.5968	-1.2201	6.34	0.35	-0.750			
0.4069	26043.34	3.5940	3.5939	-1.2299	6.35	0.36	-0.750			
0.4106	26278.04	3.5910	3.5914	-1.2400	6.35	0.36	-0.750	0.503	1.108	
0.4144	26519.79	3.5880	3.5878	-1.2562	6.35	0.36	-0.750			
0.4181	26759.41	3.5850	3.5850	-1.2627	6.36	0.37	-0.750			
0.4218	26997.31	3.5820	3.5820	-1.2731	6.37	0.38	-0.750			
0.4256	27241.06	3.5790	3.5791	-1.2816	6.37	0.38	-0.750			
0.4296	27496.37	3.5760	3.5760	-1.3020	6.37	0.38	-0.750			
0.4335	27746.30	3.5730	3.5730	-1.3166	6.38	0.39	-0.750			
0.4375	28001.67	3.5700	3.5702	-1.3402	6.38	0.39	-0.750			
0.4416	28263.32	3.5670	3.5669	-1.3580	6.38	0.39	-0.750			
0.4457	28522.47	3.5640	3.5639	-1.3678	6.39	0.40	-0.750			
0.4498	28788.10	3.5610	3.5613	-1.3912	6.39	0.40	-0.750			
0.4541	29060.29	3.5580	3.5579	-1.4050	6.39	0.40	-0.750			
0.4583	29330.90	3.5550	3.5549	-1.4106	6.39	0.40	-0.750			
0.4625	29600.52	3.5520	3.5523	-1.4193	6.39	0.40	-0.750			
0.4668	29877.33	3.5490	3.5489	-1.4408	6.40	0.41	-0.750			
0.4711	30152.93	3.5460	3.5459	-1.4457	6.40	0.41	-0.750			
0.4755	30431.56	3.5430	3.5431	-1.4543	6.41	0.42	-0.750			
0.4799	30711.77	3.5400	3.5400	-1.4902	6.42	0.43	-0.750			
0.4844	31001.89	3.5370	3.5369	-1.4932	6.43	0.44	-0.750			
0.4888	31285.57	3.5340	3.5340	-1.5138	6.43	0.44	-0.750			
0.4935	31581.75	3.5310	3.5310	-1.5292	6.44	0.45	-0.750			
0.4981	31876.16	3.5280	3.5278	-1.5365	6.45	0.46	-0.750			
0.5027	32171.74	3.5250	3.5248	-1.5401	6.45	0.46	-0.750			
0.5073	32469.48	3.5220	3.5221	-1.5687	6.46	0.47	-0.750			
0.5120	32765.95	3.5190	3.5192	-1.5638	6.47	0.48	-0.750			
0.5168	33073.06	3.5160	3.5158	-1.5727	6.48	0.49	-0.750			
0.5215	33374.68	3.5130	3.5130	-1.5631	6.49	0.50	-0.750			
0.5263	33680.31	3.5100	3.5100	-1.5684	6.49	0.50	-0.750			
0.5310	33981.74	3.5070	3.5071	-1.5868	6.50	0.51	-0.750			
0.5357	34286.06	3.5040	3.5036	-1.5819	6.51	0.52	-0.750			
0.5404	34588.63	3.5010	3.5009	-1.5839	6.52	0.53	-0.750			
0.5452	34890.84	3.4980	3.4983	-1.5919	6.52	0.53	-0.750			
0.5500	35198.91	3.4950	3.4951	-1.5857	6.53	0.54	-0.750			
0.5547	35500.08	3.4920	3.4920	-1.5666	6.54	0.55	-0.750			
0.5594	35801.73	3.4890	3.4889	-1.5716	6.55	0.56	-0.750			
0.5641	36103.87	3.4860	3.4858	-1.5685	6.56	0.57	-0.750			
0.5688	36405.05	3.4830	3.4830	-1.5718	6.58	0.59	-0.750			
0.5735	36705.64	3.4800	3.4802	-1.5601	6.59	0.60	-0.750			
0.5782	37005.04	3.4770	3.4769	-1.5642	6.60	0.61	-0.750			
0.5829	37304.34	3.4740	3.4739	-1.5512	6.62	0.63	-0.750			
0.5876	37603.23	3.4710	3.4711	-1.5406	6.63	0.64	-0.750			
0.5922	37900.75	3.4680	3.4678	-1.5225	6.64	0.65	-0.750			
0.5968	38192.93	3.4650	3.4651	-1.5197	6.65	0.66	-0.750			
0.6013	38482.19	3.4620	3.4620	-1.4997	6.67	0.68	-0.750			
0.6058	38768.42	3.4590	3.4588	-1.4839	6.68	0.69	-0.750			
0.6102	39049.67	3.4560	3.4562	-1.4751	6.70	0.71	-0.750			
0.6145	39327.82	3.4530	3.4531	-1.4583	6.72	0.73	-0.750			
0.6190	39616.35	3.4500	3.4498	-1.4508	6.73	0.74	-0.750			
0.6233	39892.29	3.4470	3.4469	-1.4355	6.74	0.75	-0.750			
0.6276	40165.71	3.4440	3.4439	-1.4144	6.75	0.76	-0.750			
0.6318	40435.22	3.4410	3.4409	-1.3881	6.77	0.78	-0.750			
0.6359	40697.40	3.4380	3.4381	-1.3691	6.79	0.80	-0.750			
0.6399	40956.69	3.4350	3.4350	-1.3365	6.80	0.81	-0.750			
0.6440	41217.80	3.4320	3.4319	-1.3154	6.81	0.82	-0.750			
0.6479	41465.79	3.4290	3.4290	-1.2972	6.82	0.83	-0.750			
0.6517	41708.86	3.4260	3.4261	-1.2644	6.84	0.85	-0.750			
0.6555	41953.41	3.4230	3.4229	-1.2482	6.86	0.87	-0.750			
0.6592	42190.83	3.4200	3.4199	-1.2230	6.88	0.89	-0.750			
0.6628	42421.43	3.4170	3.4173	-1.1998	6.89	0.90	-0.750			
0.6665	42654.06	3.4140	3.4140	-1.1797	6.91	0.92	-0.750			
0.6700	42880.73	3.4110	3.4109	-1.1505	6.93	0.94	-0.750			
0.6734	43097.05	3.4080	3.4080	-1.1135	6.94	0.95	-0.750			
0.6767	43307.59	3.4050	3.4050	-1.0887	6.96	0.97	-0.750			
0.6799	43511.54	3.4020	3.4020	-1.0598	6.97	0.98	-0.750			
0.6830	43711.37	3.3990	3.3989	-1.0321	6.98	0.99	-0.750			
0.6860	43905.34	3.3960	3.3959	-1.0010	7.00	1.01	-0.750			
0.6890	44099.05	3.3930	3.3930	-0.9849	7.01	1.02	-0.750			
0.6920	44286.10	3.3900	3.3900	-0.9569	7.03	1.04	-0.750			
0.6948	44466.77	3.3870	3.3870	-0.9298	7.04	1.05	-0.750			
0.6975	44642.42	3.3840	3.3839	-0.8978	7.06	1.07	-0.750			
0.7002	44810.25	3.3810	3.3811	-0.8728	7.07	1.08	-0.750			
0.7027	44975.78	3.3780	3.3780	-0.8553	7.09	1.10	-0.750			
0.7053	45138.68	3.3750	3.3750	-0.8353	7.11	1.12	-0.750			
0.7078	45296.13	3.3720	3.3719	-0.8142	7.12	1.13	-0.750			
0.7102	45451.60	3.3690	3.3690	-0.7960	7.14	1.15	-0.750			
0.7125	45602.45	3.3660	3.3661	-0.7776	7.15	1.16	-0.750			
0.7149	45751.52	3.3630	3.3630	-0.7564	7.16	1.17	-0.750			
0.7171	45892.70	3.3600	3.3600	-0.7343	7.17	1.18	-0.750			
0.7192	46030.27	3.3570	3.3571	-0.7123	7.18	1.19	-0.750			
0.7214	46167.44	3.3540	3.3540	-0.6934	7.19	1.20	-0.750			
0.7234	46297.35	3.3510	3.3510	-0.6735	7.20	1.21	-0.750			
0.7254	46424.66	3.3480	3.3480	-0.6514	7.21	1.22	-0.750			
