Ah_balance (normalized)	Ah_balance (mAh)	Voltage - fit (V)	Voltage -  interpolate (V)	dQ/dV (1/V)	Temperature (°C)	Temperature - diff (°C)	Current (C)	R_DC 0ms (mOhm)	R_DC 50ms (mOhm)	R_DC 50 ms PEC (mOhm)
0.1827	11692.62	4.0820	4.0820	0.7491	7.42	1.44	0.750			
0.1850	11838.66	4.0790	4.0789	0.7679	7.41	1.43	0.750			
0.1873	11987.33	4.0760	4.0760	0.7757	7.40	1.42	0.750			
0.1897	12137.95	4.0730	4.0729	0.7776	7.40	1.42	0.750			
0.1920	12286.95	4.0700	4.0701	0.7818	7.39	1.41	0.750			
0.1943	12437.31	4.0670	4.0670	0.7878	7.38	1.40	0.750			
0.1967	12587.92	4.0640	4.0640	0.7935	7.37	1.39	0.750			
0.1991	12741.14	4.0610	4.0610	0.7951	7.37	1.39	0.750			
0.2015	12896.64	4.0580	4.0580	0.7916	7.36	1.38	0.750			
0.2039	13047.19	4.0550	4.0551	0.7965	7.36	1.38	0.750			
0.2063	13201.38	4.0520	4.0521	0.7995	7.35	1.37	0.750			
0.2086	13353.34	4.0490	4.0489	0.7978	7.34	1.36	0.750			
0.2110	13505.35	4.0460	4.0459	0.7987	7.34	1.36	0.750			
0.2134	13660.44	4.0430	4.0430	0.8007	7.33	1.35	0.750			
0.2159	13815.35	4.0400	4.0400	0.8095	7.33	1.35	0.750			
0.2183	13970.59	4.0370	4.0370	0.8135	7.32	1.34	0.750			
0.2207	14124.40	4.0340	4.0341	0.8130	7.32	1.34	0.750			
0.2232	14282.95	4.0310	4.0308	0.8216	7.31	1.33	0.750			
0.2257	14443.07	4.0280	4.0280	0.8218	7.30	1.32	0.750			
0.2281	14601.16	4.0250	4.0250	0.8265	7.28	1.30	0.750			
0.2306	14760.05	4.0220	4.0221	0.8295	7.27	1.29	0.750			
0.2331	14918.76	4.0190	4.0190	0.8310	7.26	1.28	0.750			
0.2356	15077.55	4.0160	4.0158	0.8331	7.25	1.27	0.750			
0.2381	15239.38	4.0130	4.0130	0.8332	7.25	1.27	0.750			
0.2406	15399.81	4.0100	4.0100	0.8394	7.24	1.26	0.750			
0.2431	15561.50	4.0070	4.0071	0.8413	7.24	1.26	0.750			
0.2457	15722.83	4.0040	4.0040	0.8396	7.23	1.25	0.750			
0.2482	15883.65	4.0010	4.0009	0.8428	7.23	1.25	0.750			
0.2507	16045.67	3.9980	3.9981	0.8469	7.22	1.24	0.750			
0.2532	16207.88	3.9950	3.9950	0.8539	7.21	1.23	0.750			
0.2558	16373.83	3.9920	3.9920	0.8585	7.20	1.22	0.750			
0.2584	16539.62	3.9890	3.9890	0.8589	7.20	1.22	0.750			
0.2610	16704.22	3.9860	3.9860	0.8623	7.19	1.21	0.750			
0.2636	16870.12	3.9830	3.9830	0.8647	7.18	1.20	0.750			
0.2662	17035.32	3.9800	3.9800	0.8675	7.17	1.19	0.750			
0.2688	17201.92	3.9770	3.9770	0.8728	7.16	1.18	0.750			
0.2714	17368.83	3.9740	3.9740	0.8773	7.15	1.17	0.750			
0.2741	17539.25	3.9710	3.9710	0.8854	7.15	1.17	0.750			
0.2767	17711.25	3.9680	3.9680	0.8885	7.14	1.16	0.750			
0.2794	17881.34	3.9650	3.9650	0.8895	7.13	1.15	0.750			
0.2821	18051.73	3.9620	3.9620	0.8949	7.12	1.14	0.750			
0.2847	18223.25	3.9590	3.9589	0.9005	7.11	1.13	0.750			
0.2875	18397.01	3.9560	3.9560	0.9027	7.10	1.12	0.750			
0.2902	18570.26	3.9530	3.9531	0.9115	7.09	1.11	0.750			
0.2929	18747.70	3.9500	3.9500	0.9193	7.08	1.10	0.750			
0.2957	18924.67	3.9470	3.9470	0.9275	7.07	1.09	0.750			
0.2985	19102.43	3.9440	3.9440	0.9296	7.06	1.08	0.750			
0.3013	19281.55	3.9410	3.9410	0.9318	7.05	1.07	0.750			
0.3041	19461.00	3.9380	3.9380	0.9374	7.05	1.07	0.750			
0.3069	19641.94	3.9350	3.9351	0.9450	7.04	1.06	0.750			
0.3097	19822.28	3.9320	3.9320	0.9530	7.03	1.05	0.750			
0.3127	20009.90	3.9290	3.9289	0.9507	7.02	1.04	0.750			
0.3155	20191.27	3.9260	3.9261	0.9576	7.01	1.03	0.750			
0.3184	20374.50	3.9230	3.9231	0.9736	7.00	1.02	0.750			
0.3213	20561.19	3.9200	3.9201	0.9835	7.00	1.02	0.750			
0.3242	20751.70	3.9170	3.9171	0.9891	6.99	1.01	0.750			
0.3272	20941.62	3.9140	3.9141	1.0055	6.98	1.00	0.750			
0.3303	21137.42	3.9110	3.9111	1.0140	6.97	0.99	0.750			
0.3334	21335.64	3.9080	3.9079	1.0249	6.96	0.98	0.750			
0.3365	21533.31	3.9050	3.9051	1.0249	6.94	0.96	0.750			
0.3395	21727.87	3.9020	3.9020	1.0359	6.93	0.95	0.750			
0.3426	21927.48	3.8990	3.8990	1.0504	6.92	0.94	0.750			
0.3458	22131.41	3.8960	3.8960	1.0627	6.90	0.92	0.750			
0.3490	22336.76	3.8930	3.8929	1.0612	6.89	0.91	0.750			
0.3522	22541.76	3.8900	3.8901	1.0815	6.88	0.90	0.750			
0.3555	22749.19	3.8870	3.8871	1.0983	6.87	0.89	0.750			
0.3588	22961.64	3.8840	3.8840	1.1150	6.86	0.88	0.750			
0.3621	23174.58	3.8810	3.8811	1.1265	6.84	0.86	0.750			
0.3655	23390.76	3.8780	3.8781	1.1536	6.83	0.85	0.750			
0.3691	23620.57	3.8750	3.8750	1.1687	6.81	0.83	0.750			
0.3727	23853.21	3.8720	3.8715	1.1757	6.79	0.81	0.750			
0.3763	24080.97	3.8690	3.8690	1.1576	6.78	0.80	0.750			
0.3797	24300.82	3.8660	3.8663	1.1530	6.77	0.79	0.750			
0.3831	24521.50	3.8630	3.8622	1.1169	6.76	0.78	0.750			
0.3862	24715.68	3.8600	3.8609	1.1330	6.75	0.77	0.750			
0.3894	24921.08	3.8570	3.8564	1.1533	6.73	0.75	0.750			
0.3930	25151.28	3.8540	3.8533	1.2007	6.71	0.73	0.750			
0.3967	25388.57	3.8510	3.8510	1.2593	6.70	0.72	0.750			
0.4006	25636.21	3.8480	3.8475	1.3230	6.68	0.70	0.750			
0.4047	25903.05	3.8450	3.8437	1.4031	6.67	0.69	0.750			
0.4089	26170.39	3.8420	3.8427	1.4424	6.65	0.67	0.750			
0.4133	26448.15	3.8390	3.8388	1.4576	6.64	0.66	0.750	0.408	0.967	
0.4179	26745.03	3.8360	3.8364	1.5134	6.61	0.63	0.750			
0.4224	27035.59	3.8330	3.8324	1.4797	6.59	0.61	0.750			
0.4268	27315.38	3.8300	3.8301	1.4823	6.58	0.60	0.750			
0.4310	27585.77	3.8270	3.8273	1.4662	6.56	0.58	0.750			
0.4356	27876.62	3.8240	3.8237	1.5077	6.55	0.57	0.750			
0.4403	28177.58	3.8210	3.8207	1.5431	6.53	0.55	0.750			
0.4448	28466.00	3.8180	3.8179	1.5619	6.50	0.52	0.750			
0.4496	28772.90	3.8150	3.8148	1.6126	6.48	0.50	0.750			
0.4544	29083.77	3.8120	3.8116	1.6394	6.47	0.49	0.750			
0.4593	29396.62	3.8090	3.8090	1.6567	6.45	0.47	0.750			
0.4644	29719.87	3.8060	3.8062	1.6820	6.43	0.45	0.750			
0.4695	30047.30	3.8030	3.8031	1.7351	6.41	0.43	0.750			
0.4746	30375.42	3.8000	3.7999	1.7851	6.38	0.40	0.750			
0.4801	30723.39	3.7970	3.7969	1.7850	6.36	0.38	0.750			
0.4855	31069.34	3.7940	3.7939	1.8242	6.34	0.36	0.750			
0.4910	31422.64	3.7910	3.7909	1.8452	6.32	0.34	0.750			
0.4965	31779.16	3.7880	3.7880	1.8551	6.30	0.32	0.750			
0.5022	32143.04	3.7850	3.7852	1.9106	6.28	0.30	0.750			
0.5081	32517.02	3.7820	3.7821	1.9566	6.26	0.28	0.750			
0.5140	32893.83	3.7790	3.7790	1.9395	6.23	0.25	0.750			
0.5199	33270.94	3.7760	3.7760	1.9657	6.20	0.22	0.750			
0.5258	33651.29	3.7730	3.7727	1.9945	6.18	0.20	0.750			
0.5318	34033.30	3.7700	3.7702	2.0207	6.16	0.18	0.750			
0.5380	34431.63	3.7670	3.7671	2.0507	6.15	0.17	0.750			
0.5442	34830.23	3.7640	3.7642	2.0503	6.14	0.16	0.750			
0.5503	35221.91	3.7610	3.7612	2.0627	6.12	0.14	0.750			
0.5564	35607.53	3.7580	3.7579	2.1032	6.10	0.12	0.750			
0.5627	36015.82	3.7550	3.7550	2.1323	6.08	0.10	0.750			
0.5693	36435.62	3.7520	3.7521	2.1964	6.06	0.08	0.750			
0.5759	36855.22	3.7490	3.7487	2.2289	6.05	0.07	0.750			
0.5825	37282.20	3.7460	3.7460	2.2897	6.03	0.05	0.750			
0.5895	37729.75	3.7430	3.7430	2.3602	6.02	0.04	0.750			
0.5968	38196.04	3.7400	3.7400	2.4035	5.99	0.01	0.750			
0.6040	38654.70	3.7370	3.7370	2.4641	5.97	-0.01	0.750			
0.6115	39133.42	3.7340	3.7339	2.5421	5.95	-0.03	0.750			
0.6193	39633.89	3.7310	3.7311	2.5750	5.94	-0.04	0.750			
0.6271	40134.11	3.7280	3.7280	2.5809	5.92	-0.06	0.750			
0.6347	40622.34	3.7250	3.7249	2.5105	5.91	-0.07	0.750			
0.6424	41115.98	3.7220	3.7219	2.3160	5.91	-0.07	0.750			
0.6488	41526.15	3.7190	3.7192	2.0974	5.91	-0.07	0.750			
0.6546	41894.59	3.7160	3.7153	1.9444	5.90	-0.08	0.750			
0.6601	42245.32	3.7130	3.7127	1.8706	5.90	-0.08	0.750			
0.6658	42612.91	3.7100	3.7100	1.8140	5.90	-0.08	0.750			
0.6715	42974.33	3.7070	3.7072	1.7063	5.90	-0.08	0.750			
0.6763	43284.85	3.7040	3.7042	1.5397	5.90	-0.08	0.750			
0.6805	43555.16	3.7010	3.7011	1.3527	5.91	-0.07	0.750			
0.6843	43794.52	3.6980	3.6979	1.1964	5.91	-0.07	0.750			
0.6876	44008.84	3.6950	3.6951	1.0977	5.91	-0.07	0.750			
0.6906	44200.72	3.6920	3.6921	1.0117	5.91	-0.07	0.750			
0.6935	44383.95	3.6890	3.6889	0.9530	5.92	-0.06	0.750			
0.6962	44558.50	3.6860	3.6858	0.9076	5.92	-0.06	0.750			
0.6988	44724.95	3.6830	3.6832	0.8649	5.92	-0.06	0.750			
0.7014	44889.53	3.6800	3.6800	0.8285	5.92	-0.06	0.750			
0.7039	45046.74	3.6770	3.6770	0.7978	5.92	-0.06	0.750			
0.7062	45196.54	3.6740	3.6740	0.7612	5.93	-0.05	0.750			
0.7084	45339.86	3.6710	3.6709	0.7234	5.93	-0.05	0.750			
0.7106	45475.63	3.6680	3.6679	0.6799	5.93	-0.05	0.750			
0.7126	45603.23	3.6650	3.6652	0.6405	5.94	-0.04	0.750			
0.7144	45721.83	3.6620	3.6620	0.6000	5.95	-0.03	0.750			
0.7161	45833.41	3.6590	3.6590	0.5581	5.95	-0.03	0.750			
0.7177	45933.57	3.6560	3.6559	0.5127	5.96	-0.02	0.750			
0.7192	46028.10	3.6530	3.6530	0.4746	5.97	-0.01	0.750			
0.7206	46116.63	3.6500	3.6501	0.4390	5.97	-0.01	0.750			
0.7218	46197.13	3.6470	3.6470	0.4036	5.98	-0.00	0.750			
0.7230	46270.61	3.6440	3.6438	0.3672	5.98	0.00	0.750			
0.7240	46337.87	3.6410	3.6410	0.3335	5.98	0.00	0.750			
0.7250	46398.50	3.6380	3.6380	0.2995	5.99	0.01	0.750			
0.7258	46453.15	3.6350	3.6350	0.2668	5.99	0.01	0.750			
0.7266	46502.20	3.6320	3.6320	0.2312	6.00	0.02	0.750			
0.7272	46543.44	3.6290	3.6288	0.1956	6.00	0.02	0.750			
0.7278	46577.47	3.6260	3.6259	0.1577	6.00	0.02	0.750			
0.7282	46604.39	3.6230	3.6234	0.1198	6.00	0.02	0.750			
0.7285	46623.45	3.6200	3.6206	0.0811	6.00	0.02	0.750			
0.7287	46637.27	3.6170	3.6173	0.0377	6.00	0.02	0.750			
0.7288	46640.31	3.6140	3.6159	-0.0061	6.00	0.02	0.750			
