Ah_balance (normalized)	Ah_balance (mAh)	Voltage - fit (V)	Voltage -  interpolate (V)	dQ/dV (1/V)	Temperature (°C)	Temperature - diff (°C)	Current (C)	R_DC 0ms (mOhm)	R_DC 50ms (mOhm)	R_DC 50 ms PEC (mOhm)
0.0917	5868.27	4.0040	4.0032	-0.0634	5.99	0.00	-0.750			
0.0919	5883.28	4.0010	4.0006	-0.0929	5.99	0.00	-0.750			
0.0923	5904.12	3.9980	3.9980	-0.1222	5.99	0.00	-0.750			
0.0927	5930.75	3.9950	3.9950	-0.1497	5.99	0.00	-0.750			
0.0932	5962.45	3.9920	3.9920	-0.1753	5.99	0.00	-0.750			
0.0937	5998.86	3.9890	3.9890	-0.1988	5.99	0.00	-0.750			
0.0944	6040.77	3.9860	3.9861	-0.2233	5.99	0.00	-0.750			
0.0951	6085.88	3.9830	3.9830	-0.2460	5.99	0.00	-0.750			
0.0959	6135.17	3.9800	3.9800	-0.2686	5.99	0.00	-0.750			
0.0967	6189.23	3.9770	3.9770	-0.2883	5.99	0.00	-0.750			
0.0976	6246.43	3.9740	3.9740	-0.3101	5.99	0.00	-0.750			
0.0986	6308.03	3.9710	3.9711	-0.3317	5.99	0.00	-0.750			
0.0996	6374.00	3.9680	3.9680	-0.3519	5.99	0.00	-0.750			
0.1007	6443.10	3.9650	3.9649	-0.3737	5.99	0.00	-0.750			
0.1018	6516.50	3.9620	3.9621	-0.3973	5.99	0.00	-0.750			
0.1030	6595.09	3.9590	3.9590	-0.4205	5.99	0.00	-0.750			
0.1044	6678.87	3.9560	3.9559	-0.4438	5.99	0.00	-0.750			
0.1057	6767.10	3.9530	3.9530	-0.4610	5.99	0.00	-0.750			
0.1072	6857.62	3.9500	3.9501	-0.4804	5.99	0.00	-0.750			
0.1086	6951.83	3.9470	3.9470	-0.4988	5.99	0.00	-0.750			
0.1101	7048.87	3.9440	3.9440	-0.5138	5.99	0.00	-0.750			
0.1117	7148.72	3.9410	3.9409	-0.5297	5.99	0.00	-0.750			
0.1133	7252.34	3.9380	3.9381	-0.5459	5.99	0.00	-0.750			
0.1150	7358.94	3.9350	3.9350	-0.5645	5.99	0.00	-0.750			
0.1167	7469.92	3.9320	3.9320	-0.5787	5.99	0.00	-0.750			
0.1185	7582.32	3.9290	3.9289	-0.5887	5.99	0.00	-0.750			
0.1203	7697.00	3.9260	3.9259	-0.5962	5.99	0.00	-0.750			
0.1221	7812.54	3.9230	3.9231	-0.6082	5.99	0.00	-0.750			
0.1239	7929.94	3.9200	3.9199	-0.6173	6.00	0.01	-0.750			
0.1258	8048.53	3.9170	3.9170	-0.6259	6.00	0.01	-0.750			
0.1277	8170.65	3.9140	3.9140	-0.6342	6.00	0.01	-0.750			
0.1296	8294.51	3.9110	3.9110	-0.6408	6.01	0.02	-0.750			
0.1315	8417.46	3.9080	3.9080	-0.6482	6.01	0.02	-0.750			
0.1335	8542.67	3.9050	3.9049	-0.6554	6.01	0.02	-0.750			
0.1354	8666.36	3.9020	3.9021	-0.6693	6.02	0.03	-0.750			
0.1375	8797.48	3.8990	3.8988	-0.6700	6.02	0.03	-0.750			
0.1395	8929.30	3.8960	3.8960	-0.6761	6.02	0.03	-0.750			
0.1416	9060.07	3.8930	3.8931	-0.6745	6.03	0.04	-0.750			
0.1436	9189.32	3.8900	3.8899	-0.6764	6.03	0.04	-0.750			
0.1456	9317.18	3.8870	3.8869	-0.6729	6.03	0.04	-0.750			
0.1476	9444.19	3.8840	3.8837	-0.6732	6.04	0.05	-0.750			
0.1495	9571.18	3.8810	3.8811	-0.6746	6.05	0.06	-0.750			
0.1516	9703.17	3.8780	3.8781	-0.6868	6.05	0.06	-0.750			
0.1537	9838.32	3.8750	3.8749	-0.6960	6.06	0.07	-0.750			
0.1558	9973.18	3.8720	3.8719	-0.6963	6.07	0.08	-0.750			
0.1579	10105.67	3.8690	3.8689	-0.6943	6.07	0.08	-0.750			
0.1600	10240.17	3.8660	3.8661	-0.6955	6.08	0.09	-0.750			
0.1621	10372.46	3.8630	3.8629	-0.6959	6.09	0.10	-0.750			
0.1642	10506.13	3.8600	3.8600	-0.6965	6.09	0.10	-0.750			
0.1663	10640.42	3.8570	3.8570	-0.6970	6.10	0.11	-0.750			
0.1684	10774.67	3.8540	3.8540	-0.6977	6.11	0.12	-0.750			
0.1705	10908.81	3.8510	3.8510	-0.7009	6.11	0.12	-0.750			
0.1726	11043.42	3.8480	3.8480	-0.6977	6.12	0.13	-0.750			
0.1746	11176.64	3.8450	3.8451	-0.7012	6.13	0.14	-0.750			
0.1767	11310.75	3.8420	3.8420	-0.7002	6.13	0.14	-0.750			
0.1788	11445.38	3.8390	3.8388	-0.7063	6.14	0.15	-0.750			
0.1810	11581.51	3.8360	3.8361	-0.7088	6.15	0.16	-0.750			
0.1831	11718.02	3.8330	3.8330	-0.7114	6.15	0.16	-0.750			
0.1853	11856.79	3.8300	3.8299	-0.7100	6.16	0.17	-0.750			
0.1874	11994.21	3.8270	3.8271	-0.7148	6.17	0.18	-0.750			
0.1895	12129.51	3.8240	3.8241	-0.7119	6.18	0.19	-0.750			
0.1917	12267.62	3.8210	3.8209	-0.7121	6.18	0.19	-0.750			
0.1938	12403.53	3.8180	3.8181	-0.7076	6.19	0.20	-0.750			
0.1959	12538.60	3.8150	3.8150	-0.7090	6.20	0.21	-0.750			
0.1980	12674.66	3.8120	3.8119	-0.7058	6.20	0.21	-0.750			
0.2002	12810.02	3.8090	3.8090	-0.7162	6.21	0.22	-0.750			
0.2023	12947.36	3.8060	3.8060	-0.7156	6.22	0.23	-0.750			
0.2045	13087.46	3.8030	3.8029	-0.7199	6.22	0.23	-0.750			
0.2067	13226.53	3.8000	3.8003	-0.7231	6.23	0.24	-0.750			
0.2088	13365.61	3.7970	3.7970	-0.7259	6.24	0.25	-0.750			
0.2110	13503.54	3.7940	3.7939	-0.7306	6.24	0.25	-0.750			
0.2132	13643.85	3.7910	3.7910	-0.7297	6.25	0.26	-0.750			
0.2154	13783.85	3.7880	3.7880	-0.7318	6.26	0.27	-0.750			
0.2176	13924.91	3.7850	3.7850	-0.7353	6.27	0.28	-0.750			
0.2198	14067.83	3.7820	3.7820	-0.7365	6.27	0.28	-0.750			
0.2220	14208.47	3.7790	3.7791	-0.7339	6.28	0.29	-0.750			
0.2242	14347.80	3.7760	3.7760	-0.7386	6.29	0.30	-0.750			
0.2264	14489.32	3.7730	3.7731	-0.7405	6.30	0.31	-0.750			
0.2287	14634.26	3.7700	3.7699	-0.7480	6.32	0.33	-0.750			
0.2309	14776.51	3.7670	3.7670	-0.7528	6.33	0.34	-0.750			
0.2332	14922.06	3.7640	3.7640	-0.7545	6.33	0.34	-0.750			
0.2354	15067.72	3.7610	3.7608	-0.7621	6.34	0.35	-0.750			
0.2377	15213.47	3.7580	3.7581	-0.7661	6.35	0.36	-0.750			
0.2400	15359.24	3.7550	3.7550	-0.7672	6.36	0.37	-0.750			
0.2424	15510.48	3.7520	3.7519	-0.7764	6.36	0.37	-0.750			
0.2447	15660.09	3.7490	3.7491	-0.7803	6.37	0.38	-0.750			
0.2470	15808.96	3.7460	3.7461	-0.7816	6.38	0.39	-0.750			
0.2494	15960.74	3.7430	3.7429	-0.7930	6.39	0.40	-0.750			
0.2518	16113.64	3.7400	3.7400	-0.7903	6.39	0.40	-0.750			
0.2542	16265.73	3.7370	3.7369	-0.7944	6.40	0.41	-0.750			
0.2565	16418.55	3.7340	3.7343	-0.7988	6.41	0.42	-0.750			
0.2589	16572.40	3.7310	3.7310	-0.8039	6.42	0.43	-0.750			
0.2613	16725.98	3.7280	3.7279	-0.8098	6.43	0.44	-0.750			
0.2638	16880.39	3.7250	3.7250	-0.8151	6.43	0.44	-0.750			
0.2662	17039.52	3.7220	3.7220	-0.8225	6.44	0.45	-0.750			
0.2687	17197.82	3.7190	3.7191	-0.8286	6.45	0.46	-0.750			
0.2712	17357.04	3.7160	3.7160	-0.8331	6.45	0.46	-0.750			
0.2737	17518.00	3.7130	3.7129	-0.8396	6.46	0.47	-0.750			
0.2762	17678.62	3.7100	3.7100	-0.8459	6.47	0.48	-0.750			
0.2788	17842.62	3.7070	3.7070	-0.8514	6.47	0.48	-0.750			
0.2814	18007.80	3.7040	3.7041	-0.8594	6.48	0.49	-0.750			
0.2840	18173.62	3.7010	3.7009	-0.8671	6.49	0.50	-0.750			
0.2866	18339.70	3.6980	3.6981	-0.8661	6.50	0.51	-0.750			
0.2892	18506.05	3.6950	3.6949	-0.8728	6.50	0.51	-0.750			
0.2918	18673.83	3.6920	3.6920	-0.8771	6.51	0.52	-0.750			
0.2944	18842.61	3.6890	3.6892	-0.8830	6.52	0.53	-0.750			
0.2971	19012.70	3.6860	3.6860	-0.8934	6.53	0.54	-0.750			
0.2998	19184.74	3.6830	3.6830	-0.9007	6.53	0.54	-0.750			
0.3025	19357.90	3.6800	3.6800	-0.9137	6.54	0.55	-0.750			
0.3052	19535.38	3.6770	3.6770	-0.9235	6.55	0.56	-0.750			
0.3080	19713.32	3.6740	3.6739	-0.9284	6.55	0.56	-0.750			
0.3108	19894.22	3.6710	3.6710	-0.9378	6.56	0.57	-0.750			
0.3137	20074.69	3.6680	3.6680	-0.9426	6.56	0.57	-0.750			
0.3165	20256.60	3.6650	3.6650	-0.9450	6.57	0.58	-0.750			
0.3193	20438.13	3.6620	3.6621	-0.9480	6.57	0.58	-0.750			
0.3222	20617.65	3.6590	3.6590	-0.9546	6.58	0.59	-0.750			
0.3251	20803.39	3.6560	3.6560	-0.9620	6.59	0.60	-0.750			
0.3279	20987.77	3.6530	3.6528	-0.9696	6.60	0.61	-0.750			
0.3309	21175.79	3.6500	3.6501	-0.9774	6.61	0.62	-0.750			
0.3338	21362.31	3.6470	3.6471	-0.9928	6.61	0.62	-0.750			
0.3368	21556.10	3.6440	3.6439	-1.0033	6.62	0.63	-0.750			
0.3398	21749.96	3.6410	3.6409	-1.0088	6.62	0.63	-0.750			
0.3429	21942.46	3.6380	3.6380	-1.0115	6.63	0.64	-0.750			
0.3459	22139.71	3.6350	3.6350	-1.0299	6.63	0.64	-0.750			
0.3490	22337.86	3.6320	3.6319	-1.0278	6.64	0.65	-0.750			
0.3521	22534.95	3.6290	3.6289	-1.0316	6.64	0.65	-0.750			
0.3552	22730.69	3.6260	3.6260	-1.0352	6.65	0.66	-0.750			
0.3583	22931.78	3.6230	3.6229	-1.0478	6.65	0.66	-0.750			
0.3615	23133.73	3.6200	3.6199	-1.0560	6.66	0.67	-0.750			
0.3646	23336.77	3.6170	3.6170	-1.0640	6.66	0.67	-0.750			
0.3678	23542.01	3.6140	3.6140	-1.0663	6.67	0.68	-0.750			
0.3711	23749.58	3.6110	3.6110	-1.0859	6.67	0.68	-0.750			
0.3744	23959.48	3.6080	3.6080	-1.0927	6.68	0.69	-0.750			
0.3776	24168.71	3.6050	3.6049	-1.0973	6.68	0.69	-0.750			
0.3809	24380.52	3.6020	3.6022	-1.1047	6.69	0.70	-0.750			
0.3843	24594.11	3.5990	3.5989	-1.1180	6.70	0.71	-0.750			
0.3877	24811.07	3.5960	3.5959	-1.1223	6.70	0.71	-0.750			
0.3910	25025.90	3.5930	3.5930	-1.1367	6.71	0.72	-0.750			
0.3944	25241.59	3.5900	3.5903	-1.1457	6.72	0.73	-0.750			
0.3979	25467.49	3.5870	3.5869	-1.1595	6.73	0.74	-0.750			
0.4014	25691.36	3.5840	3.5844	-1.1664	6.73	0.74	-0.750	0.463	1.020	
0.4049	25915.43	3.5810	3.5810	-1.1723	6.74	0.75	-0.750			
0.4085	26144.08	3.5780	3.5779	-1.1941	6.74	0.75	-0.750			
0.4121	26374.13	3.5750	3.5749	-1.1969	6.74	0.75	-0.750			
0.4157	26602.75	3.5720	3.5719	-1.2017	6.75	0.76	-0.750			
0.4193	26834.65	3.5690	3.5694	-1.2155	6.75	0.76	-0.750			
0.4230	27071.59	3.5660	3.5659	-1.2282	6.76	0.77	-0.750			
0.4267	27308.73	3.5630	3.5629	-1.2330	6.76	0.77	-0.750			
0.4304	27543.21	3.5600	3.5600	-1.2477	6.77	0.78	-0.750			
0.4341	27784.58	3.5570	3.5569	-1.2641	6.77	0.78	-0.750			
0.4379	28027.71	3.5540	3.5540	-1.2781	6.78	0.79	-0.750			
0.4417	28270.89	3.5510	3.5509	-1.2938	6.79	0.80	-0.750			
0.4457	28523.20	3.5480	3.5481	-1.2992	6.80	0.81	-0.750			
0.4497	28778.43	3.5450	3.5450	-1.3196	6.81	0.82	-0.750			
0.4536	29032.62	3.5420	3.5419	-1.3275	6.82	0.83	-0.750			
0.4576	29286.39	3.5390	3.5391	-1.3343	6.83	0.84	-0.750			
0.4617	29546.31	3.5360	3.5359	-1.3443	6.83	0.84	-0.750			
0.4657	29803.18	3.5330	3.5330	-1.3547	6.84	0.85	-0.750			
0.4697	30063.10	3.5300	3.5302	-1.3690	6.84	0.85	-0.750			
0.4740	30333.79	3.5270	3.5268	-1.3823	6.85	0.86	-0.750			
0.4781	30598.98	3.5240	3.5239	-1.3811	6.86	0.87	-0.750			
0.4822	30863.18	3.5210	3.5212	-1.3982	6.87	0.88	-0.750			
0.4865	31135.72	3.5180	3.5180	-1.4089	6.88	0.89	-0.750			
0.4907	31406.71	3.5150	3.5148	-1.4097	6.89	0.90	-0.750			
0.4949	31675.09	3.5120	3.5122	-1.4174	6.90	0.91	-0.750			
0.4992	31951.67	3.5090	3.5090	-1.4290	6.91	0.92	-0.750			
0.5035	32226.39	3.5060	3.5059	-1.4367	6.92	0.93	-0.750			
0.5078	32499.27	3.5030	3.5031	-1.4431	6.93	0.94	-0.750			
0.5122	32777.87	3.5000	3.5000	-1.4473	6.95	0.96	-0.750			
0.5165	33057.92	3.4970	3.4969	-1.4684	6.96	0.97	-0.750			
0.5210	33342.15	3.4940	3.4939	-1.4682	6.98	0.99	-0.750			
0.5255	33629.67	3.4910	3.4910	-1.4734	6.99	1.00	-0.750			
0.5299	33914.91	3.4880	3.4882	-1.4827	7.00	1.01	-0.750			
0.5343	34198.00	3.4850	3.4848	-1.4669	7.02	1.03	-0.750			
0.5387	34479.17	3.4820	3.4819	-1.4638	7.03	1.04	-0.750			
0.5431	34757.19	3.4790	3.4790	-1.4615	7.05	1.06	-0.750			
0.5474	35034.92	3.4760	3.4760	-1.4556	7.06	1.07	-0.750			
0.5519	35319.92	3.4730	3.4729	-1.4590	7.07	1.08	-0.750			
0.5562	35596.81	3.4700	3.4702	-1.4570	7.09	1.10	-0.750			
0.5605	35873.92	3.4670	3.4670	-1.4503	7.10	1.11	-0.750			
0.5650	36157.77	3.4640	3.4639	-1.4550	7.12	1.13	-0.750			
0.5693	36436.75	3.4610	3.4610	-1.4583	7.13	1.14	-0.750			
0.5737	36717.64	3.4580	3.4580	-1.4394	7.14	1.15	-0.750			
0.5781	36997.64	3.4550	3.4549	-1.4345	7.16	1.17	-0.750			
0.5824	37272.21	3.4520	3.4522	-1.4213	7.17	1.18	-0.750			
0.5866	37542.57	3.4490	3.4488	-1.4014	7.19	1.20	-0.750			
0.5908	37810.37	3.4460	3.4460	-1.3847	7.20	1.21	-0.750			
0.5949	38072.70	3.4430	3.4431	-1.3842	7.21	1.22	-0.750			
0.5991	38342.77	3.4400	3.4400	-1.3776	7.23	1.24	-0.750			
0.6032	38605.79	3.4370	3.4368	-1.3662	7.24	1.25	-0.750			
0.6073	38864.53	3.4340	3.4343	-1.3532	7.25	1.26	-0.750			
0.6114	39128.23	3.4310	3.4308	-1.3426	7.27	1.28	-0.750			
0.6154	39384.33	3.4280	3.4279	-1.3144	7.28	1.29	-0.750			
0.6194	39640.40	3.4250	3.4252	-1.2530	7.29	1.30	-0.750			
0.6233	39891.05	3.4220	3.4218	-1.1330	7.31	1.32	-0.750			
0.6265	40097.21	3.4190	3.4193	-1.0326	7.33	1.34	-0.750			
0.6293	40276.11	3.4160	3.4169	-0.9415	7.34	1.35	-0.750			
0.6316	40419.84	3.4130	3.4121	-0.9339	7.35	1.36	-0.750			
0.6342	40585.65	3.4100	3.4096	-0.9742	7.36	1.37	-0.750			
0.6371	40773.69	3.4070	3.4067	-0.9986	7.37	1.38	-0.750			
0.6404	40986.52	3.4040	3.4040	-1.0736	7.38	1.39	-0.750			
0.6440	41213.50	3.4010	3.4017	-1.1100	7.39	1.40	-0.750			
0.6473	41428.12	3.3980	3.3979	-1.0646	7.41	1.42	-0.750			
0.6504	41627.37	3.3950	3.3951	-1.0348	7.42	1.43	-0.750			
0.6533	41814.11	3.3920	3.3918	-1.0033	7.43	1.44	-0.750			
0.6563	42002.61	3.3890	3.3894	-0.9941	7.45	1.46	-0.750			
0.6593	42193.19	3.3860	3.3857	-0.9848	7.46	1.47	-0.750			
0.6623	42385.57	3.3830	3.3831	-0.9704	7.48	1.49	-0.750			
0.6652	42574.61	3.3800	3.3801	-0.9481	7.49	1.50	-0.750			
0.6681	42758.23	3.3770	3.3770	-0.9293	7.51	1.52	-0.750			
0.6708	42929.74	3.3740	3.3737	-0.8914	7.52	1.53	-0.750			
0.6733	43092.07	3.3710	3.3710	-0.8594	7.53	1.54	-0.750			
0.6759	43256.83	3.3680	3.3679	-0.8237	7.54	1.55	-0.750			
0.6783	43411.32	3.3650	3.3650	-0.7960	7.55	1.56	-0.750			
0.6807	43566.76	3.3620	3.3621	-0.7790	7.56	1.57	-0.750			
0.6830	43709.61	3.3590	3.3588	-0.7574	7.57	1.58	-0.750			
0.6852	43849.98	3.3560	3.3558	-0.7344	7.58	1.59	-0.750			
0.6873	43989.20	3.3530	3.3530	-0.7244	7.59	1.60	-0.750			
0.6895	44126.87	3.3500	3.3500	-0.7059	7.60	1.61	-0.750			
0.6917	44270.68	3.3470	3.3470	-0.7089	7.62	1.63	-0.750			
0.6938	44400.81	3.3440	3.3448	-0.6901	7.63	1.64	-0.750			
0.6958	44531.57	3.3410	3.3409	-0.6743	7.64	1.65	-0.750			
0.6978	44659.28	3.3380	3.3378	-0.6554	7.65	1.66	-0.750			
0.6997	44783.28	3.3350	3.3350	-0.6399	7.66	1.67	-0.750			
0.7016	44903.65	3.3320	3.3322	-0.6233	7.67	1.68	-0.750			
0.7035	45025.82	3.3290	3.3290	-0.6052	7.68	1.69	-0.750			
0.7053	45138.04	3.3260	3.3259	-0.5843	7.68	1.69	-0.750			
0.7070	45247.11	3.3230	3.3233	-0.5712	7.69	1.70	-0.750			
0.7087	45354.53	3.3200	3.3197	-0.5623	7.70	1.71	-0.750			
0.7103	45461.43	3.3170	3.3170	-0.5593	7.71	1.72	-0.750			
0.7120	45570.93	3.3140	3.3140	-0.5979	7.72	1.73	-0.750			
