Ah_balance (normalized)	Ah_balance (mAh)	Voltage - fit (V)	Voltage -  interpolate (V)	dQ/dV (1/V)	Temperature (°C)	Temperature - diff (°C)	Current (C)	R_DC 0ms (mOhm)	R_DC 50ms (mOhm)	R_DC 50 ms PEC (mOhm)
0.0931	5955.54	4.0020	4.0015	-0.0766	6.00	0.01	-0.750			
0.0933	5974.37	3.9990	3.9986	-0.1085	6.00	0.01	-0.750			
0.0937	5998.07	3.9960	3.9959	-0.1362	6.00	0.01	-0.750			
0.0942	6027.12	3.9930	3.9930	-0.1630	5.99	0.00	-0.750			
0.0947	6061.19	3.9900	3.9901	-0.1886	5.99	0.00	-0.750			
0.0953	6101.05	3.9870	3.9870	-0.2149	5.99	0.00	-0.750			
0.0960	6144.69	3.9840	3.9841	-0.2375	5.99	0.00	-0.750			
0.0968	6192.33	3.9810	3.9810	-0.2609	5.99	0.00	-0.750			
0.0976	6244.69	3.9780	3.9780	-0.2841	5.99	-0.00	-0.750			
0.0985	6301.57	3.9750	3.9750	-0.3078	5.99	-0.00	-0.750			
0.0994	6362.30	3.9720	3.9720	-0.3325	5.99	-0.00	-0.750			
0.1004	6428.33	3.9690	3.9690	-0.3578	5.98	-0.01	-0.750			
0.1016	6499.91	3.9660	3.9659	-0.3819	5.98	-0.01	-0.750			
0.1027	6575.65	3.9630	3.9630	-0.4068	5.98	-0.01	-0.750			
0.1040	6656.10	3.9600	3.9600	-0.4314	5.98	-0.01	-0.750			
0.1053	6741.96	3.9570	3.9570	-0.4535	5.98	-0.01	-0.750			
0.1068	6832.13	3.9540	3.9539	-0.4724	5.97	-0.02	-0.750			
0.1082	6924.29	3.9510	3.9510	-0.4918	5.97	-0.02	-0.750			
0.1097	7020.67	3.9480	3.9481	-0.5120	5.97	-0.02	-0.750			
0.1113	7120.67	3.9450	3.9450	-0.5322	5.97	-0.02	-0.750			
0.1129	7224.24	3.9420	3.9419	-0.5497	5.97	-0.02	-0.750			
0.1146	7331.68	3.9390	3.9391	-0.5697	5.97	-0.02	-0.750			
0.1163	7444.50	3.9360	3.9360	-0.5901	5.97	-0.02	-0.750			
0.1181	7560.73	3.9330	3.9329	-0.6023	5.97	-0.02	-0.750			
0.1200	7678.31	3.9300	3.9300	-0.6134	5.97	-0.02	-0.750			
0.1218	7797.64	3.9270	3.9272	-0.6228	5.97	-0.02	-0.750			
0.1237	7918.53	3.9240	3.9240	-0.6301	5.97	-0.02	-0.750			
0.1256	8040.35	3.9210	3.9209	-0.6363	5.97	-0.02	-0.750			
0.1275	8161.65	3.9180	3.9181	-0.6479	5.97	-0.02	-0.750			
0.1295	8287.54	3.9150	3.9149	-0.6616	5.97	-0.02	-0.750			
0.1315	8415.72	3.9120	3.9119	-0.6720	5.97	-0.02	-0.750			
0.1335	8546.76	3.9090	3.9090	-0.6789	5.97	-0.02	-0.750			
0.1356	8678.07	3.9060	3.9059	-0.6863	5.97	-0.02	-0.750			
0.1377	8811.33	3.9030	3.9030	-0.6924	5.98	-0.01	-0.750			
0.1398	8944.42	3.9000	3.9000	-0.6957	5.98	-0.01	-0.750			
0.1418	9077.11	3.8970	3.8970	-0.6967	5.98	-0.01	-0.750			
0.1440	9212.92	3.8940	3.8940	-0.7046	5.99	-0.00	-0.750			
0.1461	9348.09	3.8910	3.8910	-0.7060	5.99	-0.00	-0.750			
0.1482	9484.26	3.8880	3.8880	-0.7091	5.99	0.00	-0.750			
0.1503	9619.69	3.8850	3.8850	-0.7137	6.00	0.01	-0.750			
0.1525	9757.42	3.8820	3.8820	-0.7203	6.00	0.01	-0.750			
0.1546	9896.79	3.8790	3.8790	-0.7234	6.01	0.02	-0.750			
0.1568	10036.74	3.8760	3.8760	-0.7224	6.01	0.02	-0.750			
0.1590	10175.55	3.8730	3.8731	-0.7243	6.02	0.03	-0.750			
0.1612	10314.95	3.8700	3.8700	-0.7260	6.02	0.03	-0.750			
0.1633	10453.73	3.8670	3.8668	-0.7248	6.03	0.04	-0.750			
0.1655	10591.95	3.8640	3.8641	-0.7291	6.03	0.04	-0.750			
0.1677	10732.00	3.8610	3.8610	-0.7308	6.04	0.05	-0.750			
0.1699	10874.83	3.8580	3.8580	-0.7366	6.05	0.06	-0.750			
0.1721	11016.72	3.8550	3.8551	-0.7387	6.05	0.06	-0.750			
0.1743	11157.65	3.8520	3.8520	-0.7378	6.06	0.07	-0.750			
0.1766	11299.55	3.8490	3.8490	-0.7405	6.06	0.07	-0.750			
0.1788	11441.53	3.8460	3.8460	-0.7397	6.07	0.08	-0.750			
0.1810	11584.33	3.8430	3.8430	-0.7395	6.08	0.09	-0.750			
0.1832	11726.62	3.8400	3.8400	-0.7371	6.09	0.10	-0.750			
0.1854	11868.17	3.8370	3.8370	-0.7359	6.09	0.10	-0.750			
0.1876	12008.04	3.8340	3.8340	-0.7366	6.10	0.11	-0.750			
0.1898	12149.05	3.8310	3.8310	-0.7384	6.11	0.12	-0.750			
0.1920	12290.81	3.8280	3.8279	-0.7386	6.11	0.12	-0.750			
0.1943	12433.97	3.8250	3.8250	-0.7415	6.12	0.13	-0.750			
0.1965	12577.50	3.8220	3.8221	-0.7431	6.13	0.14	-0.750			
0.1987	12719.78	3.8190	3.8189	-0.7442	6.14	0.15	-0.750			
0.2010	12862.42	3.8160	3.8160	-0.7438	6.14	0.15	-0.750			
0.2032	13004.87	3.8130	3.8130	-0.7453	6.15	0.16	-0.750			
0.2054	13147.55	3.8100	3.8100	-0.7460	6.16	0.17	-0.750			
0.2077	13293.19	3.8070	3.8070	-0.7457	6.16	0.17	-0.750			
0.2099	13435.54	3.8040	3.8041	-0.7454	6.17	0.18	-0.750			
0.2122	13578.41	3.8010	3.8010	-0.7463	6.18	0.19	-0.750			
0.2144	13721.21	3.7980	3.7980	-0.7476	6.18	0.19	-0.750			
0.2166	13864.41	3.7950	3.7949	-0.7497	6.19	0.20	-0.750			
0.2189	14009.38	3.7920	3.7920	-0.7534	6.19	0.20	-0.750			
0.2212	14154.68	3.7890	3.7890	-0.7539	6.20	0.21	-0.750			
0.2234	14300.63	3.7860	3.7859	-0.7581	6.21	0.22	-0.750			
0.2257	14444.96	3.7830	3.7830	-0.7581	6.22	0.23	-0.750			
0.2280	14589.46	3.7800	3.7800	-0.7592	6.22	0.23	-0.750			
0.2302	14734.92	3.7770	3.7770	-0.7616	6.23	0.24	-0.750			
0.2325	14882.36	3.7740	3.7740	-0.7643	6.24	0.25	-0.750			
0.2348	15029.55	3.7710	3.7712	-0.7673	6.25	0.26	-0.750			
0.2372	15177.87	3.7680	3.7680	-0.7718	6.25	0.26	-0.750			
0.2395	15326.05	3.7650	3.7650	-0.7714	6.26	0.27	-0.750			
0.2418	15474.29	3.7620	3.7620	-0.7729	6.26	0.27	-0.750			
0.2441	15622.56	3.7590	3.7590	-0.7748	6.27	0.28	-0.750			
0.2464	15771.59	3.7560	3.7560	-0.7758	6.27	0.28	-0.750			
0.2488	15920.46	3.7530	3.7530	-0.7789	6.28	0.29	-0.750			
0.2511	16068.58	3.7500	3.7500	-0.7867	6.28	0.29	-0.750			
0.2534	16219.80	3.7470	3.7470	-0.7919	6.29	0.30	-0.750			
0.2558	16373.30	3.7440	3.7439	-0.7993	6.30	0.31	-0.750			
0.2583	16528.22	3.7410	3.7410	-0.8009	6.31	0.32	-0.750			
0.2607	16682.61	3.7380	3.7381	-0.8049	6.31	0.32	-0.750			
0.2631	16836.55	3.7350	3.7350	-0.8133	6.32	0.33	-0.750			
0.2655	16993.13	3.7320	3.7318	-0.8161	6.32	0.33	-0.750			
0.2679	17148.72	3.7290	3.7290	-0.8168	6.33	0.34	-0.750			
0.2704	17307.94	3.7260	3.7260	-0.8245	6.34	0.35	-0.750			
0.2730	17468.82	3.7230	3.7230	-0.8274	6.34	0.35	-0.750			
0.2754	17627.20	3.7200	3.7200	-0.8370	6.35	0.36	-0.750			
0.2779	17786.06	3.7170	3.7170	-0.8390	6.35	0.36	-0.750			
0.2804	17946.51	3.7140	3.7139	-0.8444	6.36	0.37	-0.750			
0.2830	18110.63	3.7110	3.7109	-0.8558	6.37	0.38	-0.750			
0.2856	18276.44	3.7080	3.7080	-0.8638	6.37	0.38	-0.750			
0.2882	18443.71	3.7050	3.7050	-0.8698	6.38	0.39	-0.750			
0.2908	18612.58	3.7020	3.7020	-0.8771	6.38	0.39	-0.750			
0.2934	18778.58	3.6990	3.6991	-0.8788	6.38	0.39	-0.750			
0.2961	18949.31	3.6960	3.6960	-0.8892	6.39	0.40	-0.750			
0.2987	19119.33	3.6930	3.6929	-0.8984	6.39	0.40	-0.750			
0.3015	19293.29	3.6900	3.6900	-0.9050	6.40	0.41	-0.750			
0.3042	19468.60	3.6870	3.6870	-0.9116	6.41	0.42	-0.750			
0.3069	19644.26	3.6840	3.6840	-0.9175	6.41	0.42	-0.750			
0.3097	19821.30	3.6810	3.6811	-0.9274	6.42	0.43	-0.750			
0.3125	19999.50	3.6780	3.6780	-0.9380	6.43	0.44	-0.750			
0.3153	20180.64	3.6750	3.6749	-0.9433	6.43	0.44	-0.750			
0.3182	20362.18	3.6720	3.6720	-0.9519	6.44	0.45	-0.750			
0.3211	20547.44	3.6690	3.6690	-0.9626	6.45	0.46	-0.750			
0.3239	20731.75	3.6660	3.6660	-0.9729	6.45	0.46	-0.750			
0.3269	20919.70	3.6630	3.6630	-0.9779	6.46	0.47	-0.750			
0.3298	21107.33	3.6600	3.6600	-0.9846	6.46	0.47	-0.750			
0.3328	21296.88	3.6570	3.6570	-0.9910	6.47	0.48	-0.750			
0.3358	21489.35	3.6540	3.6539	-1.0045	6.47	0.48	-0.750			
0.3388	21681.47	3.6510	3.6510	-1.0117	6.48	0.49	-0.750			
0.3418	21876.89	3.6480	3.6479	-1.0204	6.48	0.49	-0.750			
0.3449	22073.48	3.6450	3.6450	-1.0285	6.49	0.50	-0.750			
0.3480	22273.27	3.6420	3.6421	-1.0417	6.49	0.50	-0.750			
0.3512	22475.70	3.6390	3.6390	-1.0426	6.49	0.50	-0.750			
0.3543	22675.40	3.6360	3.6360	-1.0502	6.49	0.50	-0.750			
0.3574	22874.80	3.6330	3.6330	-1.0589	6.49	0.50	-0.750			
0.3606	23078.46	3.6300	3.6300	-1.0727	6.49	0.50	-0.750			
0.3638	23285.69	3.6270	3.6268	-1.0856	6.50	0.51	-0.750			
0.3671	23495.41	3.6240	3.6240	-1.0987	6.50	0.51	-0.750			
0.3706	23716.25	3.6210	3.6209	-1.0947	6.51	0.52	-0.750			
0.3739	23931.04	3.6180	3.6180	-1.0744	6.51	0.52	-0.750			
0.3771	24134.71	3.6150	3.6150	-1.0533	6.52	0.53	-0.750			
0.3802	24330.84	3.6120	3.6124	-1.0400	6.52	0.53	-0.750			
0.3831	24518.87	3.6090	3.6087	-1.0478	6.53	0.54	-0.750			
0.3862	24715.92	3.6060	3.6058	-1.0727	6.53	0.54	-0.750			
0.3893	24917.54	3.6030	3.6030	-1.1042	6.53	0.54	-0.750			
0.3928	25140.42	3.6000	3.6000	-1.1384	6.53	0.54	-0.750			
0.3964	25370.34	3.5970	3.5971	-1.1923	6.53	0.54	-0.750			
0.4001	25605.52	3.5940	3.5940	-1.2042	6.53	0.54	-0.750			
0.4038	25840.23	3.5910	3.5909	-1.2097	6.53	0.54	-0.750			
0.4074	26071.42	3.5880	3.5880	-1.2220	6.53	0.54	-0.750	0.490	1.078	
0.4110	26306.61	3.5850	3.5850	-1.2275	6.53	0.54	-0.750			
0.4147	26543.03	3.5820	3.5819	-1.2309	6.53	0.54	-0.750			
0.4184	26779.83	3.5790	3.5790	-1.2392	6.53	0.54	-0.750			
0.4221	27014.03	3.5760	3.5764	-1.2523	6.53	0.54	-0.750			
0.4259	27258.57	3.5730	3.5730	-1.2758	6.53	0.54	-0.750			
0.4298	27505.42	3.5700	3.5699	-1.2879	6.53	0.54	-0.750			
0.4336	27752.36	3.5670	3.5670	-1.3037	6.53	0.54	-0.750			
0.4376	28006.60	3.5640	3.5640	-1.3268	6.54	0.55	-0.750			
0.4416	28265.37	3.5610	3.5610	-1.3357	6.54	0.55	-0.750			
0.4456	28521.55	3.5580	3.5580	-1.3558	6.55	0.56	-0.750			
0.4497	28782.82	3.5550	3.5550	-1.3688	6.56	0.57	-0.750			
0.4539	29049.10	3.5520	3.5519	-1.3785	6.57	0.58	-0.750			
0.4581	29315.49	3.5490	3.5490	-1.3913	6.58	0.59	-0.750			
0.4622	29582.19	3.5460	3.5460	-1.3992	6.59	0.60	-0.750			
0.4665	29853.92	3.5430	3.5429	-1.4111	6.60	0.61	-0.750			
0.4707	30124.68	3.5400	3.5400	-1.4356	6.61	0.62	-0.750			
0.4750	30398.71	3.5370	3.5369	-1.4435	6.61	0.62	-0.750			
0.4794	30683.32	3.5340	3.5339	-1.4693	6.62	0.63	-0.750			
0.4839	30968.06	3.5310	3.5311	-1.4993	6.63	0.64	-0.750			
0.4884	31257.92	3.5280	3.5279	-1.5058	6.64	0.65	-0.750			
0.4930	31550.52	3.5250	3.5249	-1.5236	6.66	0.67	-0.750			
0.4975	31842.07	3.5220	3.5223	-1.5364	6.67	0.68	-0.750			
0.5022	32140.69	3.5190	3.5188	-1.5414	6.68	0.69	-0.750			
0.5068	32436.85	3.5160	3.5160	-1.5536	6.69	0.70	-0.750			
0.5115	32736.65	3.5130	3.5129	-1.5506	6.71	0.72	-0.750			
0.5162	33038.86	3.5100	3.5100	-1.5583	6.72	0.73	-0.750			
0.5209	33339.06	3.5070	3.5071	-1.5531	6.73	0.74	-0.750			
0.5256	33635.75	3.5040	3.5039	-1.5481	6.74	0.75	-0.750			
0.5302	33931.64	3.5010	3.5010	-1.5637	6.75	0.76	-0.750			
0.5349	34233.96	3.4980	3.4981	-1.5583	6.76	0.77	-0.750			
0.5395	34528.68	3.4950	3.4951	-1.5651	6.78	0.79	-0.750			
0.5443	34836.00	3.4920	3.4921	-1.5674	6.79	0.80	-0.750			
0.5490	35133.97	3.4890	3.4889	-1.5642	6.81	0.82	-0.750			
0.5537	35438.96	3.4860	3.4859	-1.5579	6.82	0.83	-0.750			
0.5583	35733.81	3.4830	3.4830	-1.5500	6.83	0.84	-0.750			
0.5630	36031.37	3.4800	3.4799	-1.5467	6.84	0.85	-0.750			
0.5676	36328.93	3.4770	3.4769	-1.5365	6.86	0.87	-0.750			
0.5722	36620.16	3.4740	3.4743	-1.5195	6.87	0.88	-0.750			
0.5768	36913.33	3.4710	3.4708	-1.5133	6.89	0.90	-0.750			
0.5813	37201.13	3.4680	3.4681	-1.5127	6.90	0.91	-0.750			
0.5858	37493.02	3.4650	3.4650	-1.5141	6.91	0.92	-0.750			
0.5904	37783.90	3.4620	3.4619	-1.5090	6.93	0.94	-0.750			
0.5949	38075.32	3.4590	3.4589	-1.5018	6.94	0.95	-0.750			
0.5994	38364.14	3.4560	3.4560	-1.4847	6.96	0.97	-0.750			
0.6039	38650.26	3.4530	3.4530	-1.4734	6.97	0.98	-0.750			
0.6083	38930.52	3.4500	3.4499	-1.4542	6.99	1.00	-0.750			
0.6126	39204.92	3.4470	3.4468	-1.4245	7.01	1.02	-0.750			
0.6169	39479.27	3.4440	3.4439	-1.4087	7.03	1.04	-0.750			
0.6211	39748.34	3.4410	3.4411	-1.3914	7.05	1.06	-0.750			
0.6252	40011.79	3.4380	3.4379	-1.3660	7.06	1.07	-0.750			
0.6293	40277.76	3.4350	3.4350	-1.3524	7.07	1.08	-0.750			
0.6333	40532.44	3.4320	3.4321	-1.3279	7.09	1.10	-0.750			
0.6372	40783.77	3.4290	3.4289	-1.3017	7.11	1.12	-0.750			
0.6412	41034.90	3.4260	3.4260	-1.2830	7.13	1.14	-0.750			
0.6450	41278.08	3.4230	3.4230	-1.2550	7.15	1.16	-0.750			
0.6487	41515.70	3.4200	3.4200	-1.2254	7.17	1.18	-0.750			
0.6524	41752.36	3.4170	3.4170	-1.1997	7.19	1.20	-0.750			
0.6559	41978.33	3.4140	3.4139	-1.1732	7.20	1.21	-0.750			
0.6594	42200.38	3.4110	3.4110	-1.1444	7.22	1.23	-0.750			
0.6628	42418.68	3.4080	3.4079	-1.1272	7.24	1.25	-0.750			
0.6662	42633.65	3.4050	3.4050	-1.0987	7.25	1.26	-0.750			
0.6694	42842.44	3.4020	3.4019	-1.0740	7.27	1.28	-0.750			
0.6726	43046.63	3.3990	3.3991	-1.0473	7.28	1.29	-0.750			
0.6757	43245.01	3.3960	3.3960	-1.0232	7.30	1.31	-0.750			
0.6787	43437.90	3.3930	3.3929	-0.9926	7.32	1.33	-0.750			
0.6816	43625.20	3.3900	3.3899	-0.9660	7.33	1.34	-0.750			
0.6845	43808.72	3.3870	3.3872	-0.9424	7.35	1.36	-0.750			
0.6873	43986.77	3.3840	3.3839	-0.9185	7.37	1.38	-0.750			
0.6900	44160.65	3.3810	3.3810	-0.8885	7.39	1.40	-0.750			
0.6926	44328.88	3.3780	3.3780	-0.8639	7.40	1.41	-0.750			
0.6952	44492.19	3.3750	3.3750	-0.8425	7.42	1.43	-0.750			
0.6977	44651.61	3.3720	3.3720	-0.8178	7.44	1.45	-0.750			
0.7001	44804.53	3.3690	3.3690	-0.7961	7.45	1.46	-0.750			
0.7024	44954.92	3.3660	3.3661	-0.7815	7.47	1.48	-0.750			
0.7047	45102.86	3.3630	3.3629	-0.7616	7.48	1.49	-0.750			
0.7070	45249.81	3.3600	3.3599	-0.7444	7.50	1.51	-0.750			
0.7092	45391.04	3.3570	3.3570	-0.7222	7.51	1.52	-0.750			
0.7114	45527.25	3.3540	3.3540	-0.7033	7.52	1.53	-0.750			
0.7135	45661.66	3.3510	3.3510	-0.6810	7.54	1.55	-0.750			
0.7154	45786.86	3.3480	3.3479	-0.6664	7.55	1.56	-0.750			
0.7174	45911.86	3.3450	3.3451	-0.6564	7.56	1.57	-0.750			
0.7193	46036.88	3.3420	3.3419	-0.6542	7.57	1.58	-0.750			
0.7213	46162.57	3.3390	3.3387	-0.6568	7.59	1.60	-0.750			
