Ah_balance (normalized)	Ah_balance (mAh)	Voltage - fit (V)	Voltage -  interpolate (V)	dQ/dV (1/V)	Temperature (°C)	Temperature - diff (°C)	Current (C)	R_DC 0ms (mOhm)	R_DC 50ms (mOhm)	R_DC 50 ms PEC (mOhm)
0.0941	6023.91	4.0060	4.0057	-0.0897	5.99	0.00	-0.750			
0.0944	6043.80	4.0030	4.0029	-0.1175	5.99	0.00	-0.750			
0.0948	6069.48	4.0000	3.9998	-0.1440	5.99	0.00	-0.750			
0.0953	6099.70	3.9970	3.9973	-0.1697	5.99	-0.00	-0.750			
0.0959	6134.73	3.9940	3.9939	-0.1959	5.99	-0.00	-0.750			
0.0965	6175.97	3.9910	3.9910	-0.2201	5.99	-0.00	-0.750			
0.0972	6219.84	3.9880	3.9881	-0.2455	5.98	-0.01	-0.750			
0.0980	6269.33	3.9850	3.9850	-0.2691	5.98	-0.01	-0.750			
0.0988	6324.22	3.9820	3.9820	-0.2917	5.98	-0.01	-0.750			
0.0997	6382.05	3.9790	3.9789	-0.3169	5.98	-0.01	-0.750			
0.1007	6444.58	3.9760	3.9762	-0.3419	5.97	-0.02	-0.750			
0.1018	6512.73	3.9730	3.9729	-0.3651	5.97	-0.02	-0.750			
0.1029	6585.11	3.9700	3.9700	-0.3909	5.97	-0.02	-0.750			
0.1041	6661.89	3.9670	3.9670	-0.4144	5.96	-0.03	-0.750			
0.1054	6745.06	3.9640	3.9640	-0.4393	5.96	-0.03	-0.750			
0.1068	6832.41	3.9610	3.9610	-0.4657	5.95	-0.04	-0.750			
0.1082	6923.41	3.9580	3.9581	-0.4855	5.95	-0.04	-0.750			
0.1097	7019.17	3.9550	3.9551	-0.5082	5.95	-0.04	-0.750			
0.1112	7119.42	3.9520	3.9520	-0.5320	5.94	-0.05	-0.750			
0.1129	7223.64	3.9490	3.9489	-0.5490	5.94	-0.05	-0.750			
0.1145	7330.94	3.9460	3.9460	-0.5718	5.94	-0.05	-0.750			
0.1163	7443.43	3.9430	3.9430	-0.5925	5.94	-0.05	-0.750			
0.1181	7559.24	3.9400	3.9399	-0.6079	5.93	-0.06	-0.750			
0.1200	7679.28	3.9370	3.9369	-0.6204	5.93	-0.06	-0.750			
0.1219	7800.20	3.9340	3.9340	-0.6329	5.93	-0.06	-0.750			
0.1238	7921.81	3.9310	3.9312	-0.6491	5.93	-0.06	-0.750			
0.1258	8048.10	3.9280	3.9279	-0.6645	5.93	-0.06	-0.750			
0.1278	8176.94	3.9250	3.9250	-0.6721	5.93	-0.06	-0.750			
0.1298	8308.77	3.9220	3.9219	-0.6804	5.93	-0.06	-0.750			
0.1319	8439.95	3.9190	3.9189	-0.6907	5.93	-0.06	-0.750			
0.1340	8575.16	3.9160	3.9160	-0.7015	5.93	-0.06	-0.750			
0.1361	8708.96	3.9130	3.9128	-0.7087	5.93	-0.06	-0.750			
0.1382	8844.42	3.9100	3.9100	-0.7129	5.93	-0.06	-0.750			
0.1404	8982.42	3.9070	3.9071	-0.7211	5.94	-0.05	-0.750			
0.1426	9125.92	3.9040	3.9040	-0.7329	5.94	-0.05	-0.750			
0.1448	9266.23	3.9010	3.9011	-0.7360	5.94	-0.05	-0.750			
0.1470	9406.85	3.8980	3.8979	-0.7372	5.94	-0.05	-0.750			
0.1492	9547.84	3.8950	3.8947	-0.7401	5.94	-0.05	-0.750			
0.1514	9691.81	3.8920	3.8921	-0.7465	5.94	-0.05	-0.750			
0.1537	9836.39	3.8890	3.8890	-0.7499	5.95	-0.04	-0.750			
0.1560	9982.37	3.8860	3.8859	-0.7561	5.95	-0.04	-0.750			
0.1582	10127.81	3.8830	3.8832	-0.7594	5.95	-0.04	-0.750			
0.1605	10271.87	3.8800	3.8799	-0.7567	5.95	-0.04	-0.750			
0.1628	10417.52	3.8770	3.8770	-0.7617	5.96	-0.03	-0.750			
0.1650	10561.62	3.8740	3.8740	-0.7615	5.96	-0.03	-0.750			
0.1674	10712.84	3.8710	3.8710	-0.7676	5.97	-0.02	-0.750			
0.1697	10859.49	3.8680	3.8679	-0.7690	5.97	-0.02	-0.750			
0.1720	11006.14	3.8650	3.8650	-0.7697	5.97	-0.02	-0.750			
0.1743	11154.32	3.8620	3.8620	-0.7741	5.98	-0.01	-0.750			
0.1766	11302.78	3.8590	3.8589	-0.7767	5.98	-0.01	-0.750			
0.1789	11451.34	3.8560	3.8560	-0.7791	5.98	-0.01	-0.750			
0.1813	11602.05	3.8530	3.8530	-0.7844	5.99	-0.00	-0.750			
0.1837	11754.59	3.8500	3.8500	-0.7879	5.99	0.00	-0.750			
0.1860	11906.40	3.8470	3.8470	-0.7825	6.00	0.01	-0.750			
0.1884	12056.47	3.8440	3.8440	-0.7850	6.00	0.01	-0.750			
0.1907	12206.29	3.8410	3.8411	-0.7842	6.01	0.02	-0.750			
0.1931	12356.48	3.8380	3.8380	-0.7865	6.01	0.02	-0.750			
0.1954	12506.71	3.8350	3.8350	-0.7856	6.02	0.03	-0.750			
0.1978	12657.59	3.8320	3.8320	-0.7884	6.02	0.03	-0.750			
0.2002	12810.19	3.8290	3.8291	-0.7978	6.03	0.04	-0.750			
0.2026	12965.54	3.8260	3.8259	-0.7974	6.03	0.04	-0.750			
0.2050	13119.46	3.8230	3.8229	-0.7906	6.04	0.05	-0.750			
0.2074	13271.65	3.8200	3.8202	-0.7886	6.04	0.05	-0.750			
0.2097	13420.67	3.8170	3.8170	-0.7897	6.04	0.05	-0.750			
0.2121	13571.25	3.8140	3.8140	-0.7973	6.05	0.06	-0.750			
0.2144	13724.24	3.8110	3.8109	-0.7985	6.06	0.07	-0.750			
0.2168	13877.28	3.8080	3.8080	-0.7981	6.06	0.07	-0.750			
0.2193	14036.22	3.8050	3.8051	-0.8039	6.07	0.08	-0.750			
0.2217	14190.20	3.8020	3.8020	-0.8030	6.07	0.08	-0.750			
0.2241	14342.74	3.7990	3.7990	-0.8026	6.08	0.09	-0.750			
0.2265	14497.34	3.7960	3.7960	-0.7918	6.09	0.10	-0.750			
0.2288	14646.21	3.7930	3.7930	-0.7914	6.09	0.10	-0.750			
0.2312	14799.47	3.7900	3.7900	-0.8006	6.10	0.11	-0.750			
0.2336	14953.27	3.7870	3.7870	-0.8020	6.10	0.11	-0.750			
0.2360	15107.13	3.7840	3.7838	-0.8089	6.11	0.12	-0.750			
0.2385	15262.23	3.7810	3.7811	-0.8077	6.11	0.12	-0.750			
0.2409	15419.53	3.7780	3.7780	-0.8061	6.12	0.13	-0.750			
0.2434	15577.55	3.7750	3.7749	-0.8067	6.13	0.14	-0.750			
0.2458	15728.66	3.7720	3.7721	-0.7991	6.13	0.14	-0.750			
0.2482	15882.02	3.7690	3.7690	-0.7985	6.14	0.15	-0.750			
0.2506	16035.22	3.7660	3.7659	-0.8000	6.15	0.16	-0.750			
0.2529	16188.65	3.7630	3.7629	-0.7997	6.15	0.16	-0.750			
0.2554	16342.56	3.7600	3.7601	-0.8079	6.16	0.17	-0.750			
0.2578	16498.36	3.7570	3.7572	-0.8109	6.17	0.18	-0.750			
0.2602	16655.38	3.7540	3.7539	-0.8121	6.17	0.18	-0.750			
0.2627	16810.72	3.7510	3.7509	-0.8166	6.18	0.19	-0.750			
0.2651	16967.15	3.7480	3.7481	-0.8212	6.18	0.19	-0.750			
0.2676	17126.85	3.7450	3.7449	-0.8250	6.19	0.20	-0.750			
0.2701	17284.98	3.7420	3.7421	-0.8219	6.19	0.20	-0.750			
0.2725	17441.79	3.7390	3.7390	-0.8230	6.20	0.21	-0.750			
0.2750	17600.99	3.7360	3.7360	-0.8303	6.21	0.22	-0.750			
0.2775	17762.61	3.7330	3.7329	-0.8297	6.21	0.22	-0.750			
0.2800	17920.09	3.7300	3.7301	-0.8282	6.22	0.23	-0.750			
0.2825	18079.71	3.7270	3.7272	-0.8324	6.23	0.24	-0.750			
0.2850	18239.97	3.7240	3.7239	-0.8380	6.23	0.24	-0.750			
0.2875	18400.31	3.7210	3.7209	-0.8433	6.24	0.25	-0.750			
0.2900	18560.91	3.7180	3.7181	-0.8508	6.24	0.25	-0.750			
0.2926	18727.34	3.7150	3.7150	-0.8625	6.25	0.26	-0.750			
0.2952	18894.09	3.7120	3.7120	-0.8685	6.25	0.26	-0.750			
0.2978	19060.14	3.7090	3.7090	-0.8754	6.26	0.27	-0.750			
0.3005	19228.92	3.7060	3.7060	-0.8768	6.27	0.28	-0.750			
0.3031	19397.77	3.7030	3.7029	-0.8808	6.28	0.29	-0.750			
0.3057	19567.16	3.7000	3.6999	-0.8860	6.28	0.29	-0.750			
0.3084	19737.20	3.6970	3.6972	-0.8921	6.29	0.30	-0.750			
0.3111	19909.35	3.6940	3.6940	-0.9065	6.30	0.31	-0.750			
0.3138	20084.42	3.6910	3.6910	-0.9152	6.31	0.32	-0.750			
0.3166	20262.31	3.6880	3.6878	-0.9189	6.32	0.33	-0.750			
0.3194	20440.80	3.6850	3.6852	-0.9299	6.33	0.34	-0.750			
0.3222	20617.99	3.6820	3.6819	-0.9369	6.33	0.34	-0.750			
0.3250	20797.40	3.6790	3.6790	-0.9465	6.34	0.35	-0.750			
0.3278	20980.90	3.6760	3.6759	-0.9567	6.34	0.35	-0.750			
0.3307	21161.95	3.6730	3.6729	-0.9646	6.35	0.36	-0.750			
0.3336	21351.72	3.6700	3.6702	-0.9823	6.35	0.36	-0.750			
0.3366	21542.47	3.6670	3.6670	-1.0014	6.36	0.37	-0.750			
0.3396	21736.98	3.6640	3.6639	-1.0058	6.36	0.37	-0.750			
0.3426	21929.35	3.6610	3.6609	-1.0137	6.37	0.38	-0.750			
0.3457	22126.20	3.6580	3.6582	-1.0269	6.37	0.38	-0.750			
0.3488	22326.13	3.6550	3.6549	-1.0388	6.38	0.39	-0.750			
0.3520	22524.84	3.6520	3.6520	-1.0492	6.39	0.40	-0.750			
0.3551	22726.34	3.6490	3.6490	-1.0618	6.40	0.41	-0.750			
0.3583	22931.38	3.6460	3.6462	-1.0792	6.41	0.42	-0.750			
0.3616	23141.82	3.6430	3.6430	-1.0916	6.42	0.43	-0.750			
0.3649	23350.69	3.6400	3.6400	-1.1030	6.42	0.43	-0.750			
0.3682	23564.58	3.6370	3.6370	-1.1191	6.43	0.44	-0.750			
0.3716	23781.25	3.6340	3.6340	-1.1404	6.43	0.44	-0.750			
0.3750	24003.03	3.6310	3.6308	-1.1485	6.44	0.45	-0.750			
0.3786	24227.32	3.6280	3.6280	-1.1575	6.45	0.46	-0.750			
0.3820	24450.15	3.6250	3.6251	-1.1686	6.46	0.47	-0.750			
0.3856	24677.19	3.6220	3.6219	-1.1931	6.47	0.48	-0.750			
0.3892	24906.34	3.6190	3.6190	-1.2012	6.48	0.49	-0.750			
0.3928	25138.46	3.6160	3.6158	-1.2127	6.48	0.49	-0.750			
0.3964	25371.03	3.6130	3.6132	-1.2272	6.49	0.50	-0.750			
0.4002	25613.82	3.6100	3.6099	-1.2505	6.50	0.51	-0.750			
0.4040	25853.06	3.6070	3.6069	-1.2591	6.50	0.51	-0.750			
0.4075	26082.38	3.6040	3.6043	-1.3041	6.51	0.52	-0.750			
0.4116	26344.22	3.6010	3.6009	-1.3638	6.52	0.53	-0.750			
0.4158	26612.30	3.5980	3.5980	-1.4015	6.52	0.53	-0.750	0.476	1.099	
0.4202	26891.05	3.5950	3.5949	-1.4263	6.53	0.54	-0.750			
0.4247	27178.97	3.5920	3.5923	-1.4468	6.54	0.55	-0.750			
0.4291	27460.31	3.5890	3.5889	-1.4329	6.54	0.55	-0.750			
0.4333	27732.38	3.5860	3.5861	-1.4184	6.55	0.56	-0.750			
0.4373	27989.67	3.5830	3.5830	-1.3880	6.56	0.57	-0.750			
0.4416	28260.25	3.5800	3.5799	-1.4116	6.56	0.57	-0.750			
0.4458	28531.49	3.5770	3.5771	-1.4198	6.57	0.58	-0.750			
0.4501	28806.48	3.5740	3.5740	-1.4493	6.58	0.59	-0.750			
0.4544	29084.27	3.5710	3.5710	-1.4663	6.58	0.59	-0.750			
0.4589	29368.88	3.5680	3.5679	-1.4829	6.59	0.60	-0.750			
0.4634	29657.57	3.5650	3.5651	-1.5007	6.60	0.61	-0.750			
0.4679	29947.16	3.5620	3.5619	-1.5169	6.61	0.62	-0.750			
0.4725	30238.32	3.5590	3.5590	-1.5409	6.61	0.62	-0.750			
0.4771	30534.97	3.5560	3.5559	-1.5635	6.62	0.63	-0.750			
0.4819	30840.02	3.5530	3.5530	-1.5725	6.63	0.64	-0.750			
0.4866	31143.33	3.5500	3.5500	-1.5837	6.64	0.65	-0.750			
0.4914	31449.94	3.5470	3.5469	-1.6047	6.64	0.65	-0.750			
0.4962	31758.83	3.5440	3.5439	-1.6186	6.65	0.66	-0.750			
0.5011	32068.03	3.5410	3.5411	-1.6289	6.66	0.67	-0.750			
0.5060	32380.90	3.5380	3.5380	-1.6373	6.67	0.68	-0.750			
0.5109	32696.70	3.5350	3.5349	-1.6560	6.68	0.69	-0.750			
0.5160	33022.23	3.5320	3.5319	-1.6838	6.68	0.69	-0.750			
0.5210	33345.68	3.5290	3.5291	-1.6857	6.69	0.70	-0.750			
0.5261	33670.59	3.5260	3.5260	-1.7004	6.70	0.71	-0.750			
0.5313	34000.70	3.5230	3.5229	-1.6996	6.71	0.72	-0.750			
0.5364	34328.50	3.5200	3.5200	-1.7100	6.72	0.73	-0.750			
0.5416	34660.28	3.5170	3.5172	-1.7048	6.72	0.73	-0.750			
0.5466	34984.38	3.5140	3.5140	-1.7040	6.73	0.74	-0.750			
0.5517	35310.78	3.5110	3.5108	-1.7087	6.75	0.76	-0.750			
0.5568	35636.47	3.5080	3.5079	-1.7188	6.77	0.78	-0.750			
0.5620	35971.10	3.5050	3.5050	-1.7203	6.77	0.78	-0.750			
0.5672	36300.25	3.5020	3.5019	-1.7208	6.77	0.78	-0.750			
0.5724	36633.16	3.4990	3.4989	-1.7040	6.78	0.79	-0.750			
0.5775	36961.35	3.4960	3.4960	-1.7092	6.79	0.80	-0.750			
0.5826	37284.19	3.4930	3.4931	-1.6856	6.81	0.82	-0.750			
0.5876	37604.31	3.4900	3.4901	-1.6630	6.82	0.83	-0.750			
0.5925	37922.25	3.4870	3.4868	-1.6619	6.83	0.84	-0.750			
0.5976	38245.02	3.4840	3.4840	-1.6548	6.84	0.85	-0.750			
0.6026	38564.81	3.4810	3.4809	-1.6517	6.85	0.86	-0.750			
0.6076	38883.77	3.4780	3.4781	-1.6400	6.86	0.87	-0.750			
0.6125	39198.19	3.4750	3.4749	-1.6195	6.88	0.89	-0.750			
0.6172	39501.10	3.4720	3.4720	-1.5924	6.90	0.91	-0.750			
0.6219	39802.28	3.4690	3.4691	-1.5801	6.92	0.93	-0.750			
0.6266	40105.37	3.4660	3.4659	-1.5660	6.93	0.94	-0.750			
0.6313	40405.10	3.4630	3.4631	-1.5435	6.95	0.96	-0.750			
0.6359	40700.48	3.4600	3.4599	-1.5232	6.96	0.97	-0.750			
0.6405	40992.39	3.4570	3.4570	-1.4969	6.97	0.98	-0.750			
0.6450	41277.27	3.4540	3.4541	-1.4780	6.99	1.00	-0.750			
0.6494	41558.44	3.4510	3.4509	-1.4386	7.00	1.01	-0.750			
0.6536	41831.50	3.4480	3.4479	-1.4121	7.00	1.01	-0.750			
0.6578	42101.66	3.4450	3.4453	-1.3946	7.01	1.02	-0.750			
0.6620	42366.66	3.4420	3.4419	-1.3668	7.03	1.04	-0.750			
0.6660	42626.95	3.4390	3.4389	-1.3403	7.05	1.06	-0.750			
0.6700	42881.81	3.4360	3.4362	-1.3201	7.07	1.08	-0.750			
0.6740	43134.38	3.4330	3.4330	-1.3005	7.08	1.09	-0.750			
0.6779	43383.62	3.4300	3.4299	-1.2729	7.09	1.10	-0.750			
0.6816	43623.38	3.4270	3.4271	-1.2340	7.11	1.12	-0.750			
0.6853	43859.35	3.4240	3.4239	-1.2161	7.12	1.13	-0.750			
0.6889	44090.28	3.4210	3.4210	-1.1826	7.13	1.14	-0.750			
0.6924	44313.83	3.4180	3.4179	-1.1470	7.15	1.16	-0.750			
0.6958	44528.89	3.4150	3.4152	-1.1175	7.16	1.17	-0.750			
0.6991	44742.32	3.4120	3.4120	-1.0930	7.18	1.19	-0.750			
0.7023	44950.10	3.4090	3.4089	-1.0616	7.20	1.21	-0.750			
0.7055	45149.43	3.4060	3.4060	-1.0340	7.22	1.23	-0.750			
0.7085	45346.21	3.4030	3.4031	-1.0127	7.23	1.24	-0.750			
0.7116	45539.33	3.4000	3.4000	-0.9868	7.25	1.26	-0.750			
0.7145	45727.11	3.3970	3.3969	-0.9580	7.26	1.27	-0.750			
0.7173	45908.33	3.3940	3.3940	-0.9240	7.27	1.28	-0.750			
0.7200	46082.83	3.3910	3.3913	-0.8971	7.28	1.29	-0.750			
0.7227	46252.30	3.3880	3.3879	-0.8685	7.29	1.30	-0.750			
0.7252	46414.45	3.3850	3.3850	-0.8379	7.31	1.32	-0.750			
0.7277	46572.43	3.3820	3.3819	-0.8117	7.32	1.33	-0.750			
0.7301	46727.22	3.3790	3.3790	-0.7935	7.34	1.35	-0.750			
0.7324	46876.11	3.3760	3.3762	-0.7661	7.35	1.36	-0.750			
0.7347	47021.72	3.3730	3.3729	-0.7338	7.36	1.37	-0.750			
0.7369	47160.03	3.3700	3.3701	-0.7112	7.37	1.38	-0.750			
