Ah_balance (normalized)	Ah_balance (mAh)	Voltage - fit (V)	Voltage -  interpolate (V)	dQ/dV (1/V)	Temperature (°C)	Temperature - diff (°C)	Current (C)	R_DC 0ms (mOhm)	R_DC 50ms (mOhm)	R_DC 50 ms PEC (mOhm)
0.1803	11537.80	4.0800	4.0799	0.7710	7.68	1.69	0.750			
0.1826	11685.96	4.0770	4.0770	0.7731	7.68	1.69	0.750			
0.1849	11834.95	4.0740	4.0740	0.7752	7.68	1.69	0.750			
0.1872	11983.09	4.0710	4.0710	0.7810	7.67	1.68	0.750			
0.1896	12134.11	4.0680	4.0680	0.7859	7.67	1.68	0.750			
0.1920	12286.09	4.0650	4.0649	0.7837	7.66	1.67	0.750			
0.1943	12435.75	4.0620	4.0620	0.7870	7.66	1.67	0.750			
0.1967	12587.14	4.0590	4.0591	0.7946	7.66	1.67	0.750			
0.1991	12739.24	4.0560	4.0560	0.7984	7.65	1.66	0.750			
0.2014	12892.72	4.0530	4.0530	0.8027	7.65	1.66	0.750			
0.2039	13048.15	4.0500	4.0500	0.7993	7.64	1.65	0.750			
0.2063	13203.69	4.0470	4.0470	0.8023	7.63	1.64	0.750			
0.2087	13357.74	4.0440	4.0441	0.8059	7.62	1.63	0.750			
0.2111	13510.80	4.0410	4.0410	0.8051	7.62	1.63	0.750			
0.2135	13664.08	4.0380	4.0379	0.8073	7.61	1.62	0.750			
0.2159	13820.08	4.0350	4.0351	0.8148	7.60	1.61	0.750			
0.2184	13977.80	4.0320	4.0320	0.8134	7.59	1.60	0.750			
0.2208	14133.90	4.0290	4.0290	0.8228	7.59	1.60	0.750			
0.2233	14291.09	4.0260	4.0261	0.8274	7.58	1.59	0.750			
0.2258	14450.52	4.0230	4.0226	0.8282	7.57	1.58	0.750			
0.2283	14610.37	4.0200	4.0201	0.8320	7.57	1.58	0.750			
0.2308	14770.15	4.0170	4.0171	0.8334	7.56	1.57	0.750			
0.2333	14931.14	4.0140	4.0140	0.8385	7.56	1.57	0.750			
0.2358	15091.06	4.0110	4.0110	0.8362	7.55	1.56	0.750			
0.2383	15251.79	4.0080	4.0077	0.8420	7.55	1.56	0.750			
0.2409	15415.31	4.0050	4.0051	0.8426	7.54	1.55	0.750			
0.2434	15578.25	4.0020	4.0020	0.8495	7.52	1.53	0.750			
0.2460	15742.60	3.9990	3.9990	0.8527	7.51	1.52	0.750			
0.2485	15905.24	3.9960	3.9960	0.8501	7.50	1.51	0.750			
0.2511	16068.39	3.9930	3.9930	0.8564	7.49	1.50	0.750			
0.2537	16234.10	3.9900	3.9900	0.8566	7.48	1.49	0.750			
0.2562	16398.96	3.9870	3.9870	0.8597	7.47	1.48	0.750			
0.2588	16564.45	3.9840	3.9840	0.8625	7.46	1.47	0.750			
0.2614	16728.78	3.9810	3.9811	0.8656	7.46	1.47	0.750			
0.2639	16892.11	3.9780	3.9781	0.8816	7.45	1.46	0.750			
0.2666	17065.33	3.9750	3.9749	0.8813	7.44	1.45	0.750			
0.2693	17235.54	3.9720	3.9720	0.8846	7.43	1.44	0.750			
0.2720	17407.66	3.9690	3.9690	0.8880	7.42	1.43	0.750			
0.2747	17578.36	3.9660	3.9666	0.8927	7.41	1.42	0.750			
0.2773	17749.89	3.9630	3.9629	0.8948	7.40	1.41	0.750			
0.2800	17918.53	3.9600	3.9600	0.8948	7.40	1.41	0.750			
0.2827	18090.64	3.9570	3.9570	0.9023	7.39	1.40	0.750			
0.2855	18269.63	3.9540	3.9540	0.9166	7.38	1.39	0.750			
0.2882	18442.18	3.9510	3.9509	0.9153	7.37	1.38	0.750			
0.2910	18620.99	3.9480	3.9481	0.9149	7.36	1.37	0.750			
0.2937	18795.52	3.9450	3.9450	0.9186	7.35	1.36	0.750			
0.2964	18971.18	3.9420	3.9420	0.9268	7.34	1.35	0.750			
0.2992	19147.88	3.9390	3.9392	0.9269	7.33	1.34	0.750			
0.3020	19326.23	3.9360	3.9361	0.9422	7.31	1.32	0.750			
0.3048	19508.52	3.9330	3.9331	0.9486	7.30	1.31	0.750			
0.3077	19690.33	3.9300	3.9299	0.9576	7.29	1.30	0.750			
0.3106	19877.19	3.9270	3.9271	0.9709	7.28	1.29	0.750			
0.3135	20062.71	3.9240	3.9237	0.9740	7.27	1.28	0.750			
0.3164	20250.83	3.9210	3.9212	0.9764	7.25	1.26	0.750			
0.3194	20440.12	3.9180	3.9180	0.9853	7.24	1.25	0.750			
0.3223	20628.13	3.9150	3.9151	0.9927	7.23	1.24	0.750			
0.3253	20818.16	3.9120	3.9117	0.9971	7.21	1.22	0.750			
0.3283	21009.92	3.9090	3.9091	1.0058	7.20	1.21	0.750			
0.3313	21204.40	3.9060	3.9060	1.0196	7.18	1.19	0.750			
0.3344	21401.71	3.9030	3.9031	1.0360	7.17	1.18	0.750			
0.3375	21602.84	3.9000	3.8998	1.0523	7.15	1.16	0.750			
0.3407	21804.23	3.8970	3.8971	1.0591	7.14	1.15	0.750			
0.3439	22008.85	3.8940	3.8940	1.0762	7.13	1.14	0.750			
0.3471	22217.04	3.8910	3.8910	1.0942	7.12	1.13	0.750			
0.3505	22431.94	3.8880	3.8877	1.0993	7.11	1.12	0.750			
0.3538	22645.13	3.8850	3.8851	1.0878	7.09	1.10	0.750			
0.3570	22850.22	3.8820	3.8821	1.0691	7.08	1.09	0.750			
0.3599	23035.51	3.8790	3.8797	1.0861	7.07	1.08	0.750			
0.3632	23244.19	3.8760	3.8756	1.0984	7.05	1.06	0.750			
0.3665	23457.58	3.8730	3.8718	1.1516	7.04	1.05	0.750			
0.3701	23684.89	3.8700	3.8711	1.1832	7.02	1.03	0.750			
0.3738	23924.56	3.8670	3.8675	1.2251	7.01	1.02	0.750			
0.3777	24175.68	3.8640	3.8641	1.2286	6.99	1.00	0.750			
0.3813	24406.23	3.8610	3.8610	1.2244	6.98	0.99	0.750			
0.3848	24627.06	3.8580	3.8581	1.2155	6.96	0.97	0.750			
0.3885	24865.69	3.8550	3.8547	1.2378	6.95	0.96	0.750			
0.3923	25106.74	3.8520	3.8521	1.2661	6.93	0.94	0.750			
0.3962	25356.21	3.8490	3.8491	1.2840	6.91	0.92	0.750			
0.4001	25605.00	3.8460	3.8461	1.3100	6.89	0.90	0.750			
0.4039	25852.65	3.8430	3.8431	1.3350	6.87	0.88	0.750			
0.4080	26111.75	3.8400	3.8400	1.3710	6.85	0.86	0.750			
0.4122	26378.76	3.8370	3.8368	1.3898	6.83	0.84	0.750	0.383	0.911	
0.4164	26652.69	3.8340	3.8342	1.4207	6.82	0.83	0.750			
0.4207	26927.47	3.8310	3.8311	1.4575	6.81	0.82	0.750			
0.4252	27210.59	3.8280	3.8277	1.4794	6.79	0.80	0.750			
0.4296	27491.31	3.8250	3.8252	1.4862	6.77	0.78	0.750			
0.4341	27780.20	3.8220	3.8220	1.5294	6.75	0.76	0.750			
0.4387	28079.28	3.8190	3.8189	1.5650	6.73	0.74	0.750			
0.4435	28384.52	3.8160	3.8160	1.5776	6.70	0.71	0.750			
0.4483	28693.74	3.8130	3.8130	1.5940	6.66	0.67	0.750			
0.4532	29005.33	3.8100	3.8102	1.6014	6.64	0.65	0.750			
0.4579	29308.16	3.8070	3.8067	1.6350	6.63	0.64	0.750			
0.4628	29619.51	3.8040	3.8039	1.6985	6.61	0.62	0.750			
0.4680	29951.85	3.8010	3.8008	1.7302	6.59	0.60	0.750			
0.4734	30299.60	3.7980	3.7979	1.7862	6.56	0.57	0.750			
0.4788	30644.64	3.7950	3.7953	1.8214	6.54	0.55	0.750			
0.4843	30997.51	3.7920	3.7921	1.8326	6.52	0.53	0.750			
0.4899	31355.11	3.7890	3.7890	1.8676	6.49	0.50	0.750			
0.4956	31716.68	3.7860	3.7859	1.8763	6.46	0.47	0.750			
0.5013	32082.57	3.7830	3.7831	1.8787	6.43	0.44	0.750			
0.5069	32438.53	3.7800	3.7801	1.9217	6.41	0.42	0.750			
0.5128	32819.58	3.7770	3.7769	1.9419	6.39	0.40	0.750			
0.5186	33191.82	3.7740	3.7739	1.9568	6.37	0.38	0.750			
0.5246	33573.96	3.7710	3.7711	1.9958	6.34	0.35	0.750			
0.5306	33960.45	3.7680	3.7680	2.0194	6.32	0.33	0.750			
0.5366	34343.13	3.7650	3.7649	2.0300	6.30	0.31	0.750			
0.5428	34740.40	3.7620	3.7622	2.0655	6.27	0.28	0.750			
0.5489	35132.20	3.7590	3.7589	2.0938	6.26	0.27	0.750			
0.5552	35532.48	3.7560	3.7559	2.1026	6.24	0.25	0.750			
0.5616	35941.18	3.7530	3.7529	2.1155	6.21	0.22	0.750			
0.5681	36355.89	3.7500	3.7500	2.1537	6.19	0.20	0.750			
0.5746	36773.77	3.7470	3.7469	2.2128	6.17	0.18	0.750			
0.5812	37198.67	3.7440	3.7440	2.2696	6.15	0.16	0.750			
0.5882	37645.07	3.7410	3.7413	2.3099	6.13	0.14	0.750			
0.5954	38104.09	3.7380	3.7379	2.3856	6.11	0.12	0.750			
0.6024	38556.36	3.7350	3.7350	2.4297	6.08	0.09	0.750			
0.6100	39039.09	3.7320	3.7321	2.4798	6.06	0.07	0.750			
0.6175	39522.59	3.7290	3.7291	2.5685	6.04	0.05	0.750			
0.6253	40017.89	3.7260	3.7259	2.5099	6.02	0.03	0.750			
0.6328	40497.95	3.7230	3.7231	2.4483	6.00	0.01	0.750			
0.6402	40970.95	3.7200	3.7198	2.3602	5.99	-0.00	0.750			
0.6470	41406.52	3.7170	3.7170	2.2002	5.98	-0.01	0.750			
0.6534	41820.43	3.7140	3.7143	2.0712	5.97	-0.02	0.750			
0.6595	42209.18	3.7110	3.7110	1.8899	5.96	-0.03	0.750			
0.6649	42556.69	3.7080	3.7077	1.7104	5.95	-0.04	0.750			
0.6696	42855.79	3.7050	3.7053	1.5061	5.95	-0.04	0.750			
0.6740	43134.42	3.7020	3.7019	1.3782	5.95	-0.04	0.750			
0.6778	43377.15	3.6990	3.6989	1.2193	5.95	-0.04	0.750			
0.6810	43584.06	3.6960	3.6961	1.1007	5.94	-0.05	0.750			
0.6842	43786.41	3.6930	3.6930	1.0302	5.94	-0.05	0.750			
0.6870	43969.63	3.6900	3.6900	0.9701	5.93	-0.06	0.750			
0.6899	44150.95	3.6870	3.6871	0.9273	5.93	-0.06	0.750			
0.6926	44323.75	3.6840	3.6840	0.8908	5.93	-0.06	0.750			
0.6952	44493.67	3.6810	3.6811	0.8616	5.93	-0.06	0.750			
0.6978	44657.70	3.6780	3.6780	0.8329	5.93	-0.06	0.750			
0.7002	44810.72	3.6750	3.6750	0.7932	5.93	-0.06	0.750			
0.7025	44960.68	3.6720	3.6720	0.7623	5.94	-0.05	0.750			
0.7047	45103.30	3.6690	3.6690	0.7262	5.94	-0.05	0.750			
0.7069	45243.10	3.6660	3.6659	0.6920	5.95	-0.04	0.750			
0.7089	45371.32	3.6630	3.6631	0.6535	5.96	-0.03	0.750			
0.7108	45492.51	3.6600	3.6601	0.6187	5.96	-0.03	0.750			
0.7126	45607.28	3.6570	3.6569	0.5807	5.97	-0.02	0.750			
0.7143	45714.61	3.6540	3.6540	0.5430	5.97	-0.02	0.750			
0.7159	45815.76	3.6510	3.6510	0.5101	5.97	-0.02	0.750			
0.7174	45911.10	3.6480	3.6481	0.4759	5.98	-0.01	0.750			
0.7188	46000.58	3.6450	3.6449	0.4407	5.98	-0.01	0.750			
0.7200	46080.81	3.6420	3.6420	0.4019	5.98	-0.01	0.750			
0.7212	46154.18	3.6390	3.6390	0.3656	5.98	-0.01	0.750			
0.7222	46220.94	3.6360	3.6360	0.3316	5.98	-0.01	0.750			
0.7231	46280.74	3.6330	3.6330	0.2962	5.99	-0.00	0.750			
0.7240	46333.37	3.6300	3.6299	0.2607	5.99	-0.00	0.750			
0.7247	46381.47	3.6270	3.6269	0.2239	5.99	-0.00	0.750			
0.7253	46421.89	3.6240	3.6240	0.1897	5.99	-0.00	0.750			
0.7259	46454.95	3.6210	3.6212	0.1519	5.99	0.00	0.750			
0.7263	46481.27	3.6180	3.6181	0.1135	5.99	0.00	0.750			
0.7266	46499.60	3.6150	3.6154	0.0729	5.99	0.00	0.750			
0.7267	46510.44	3.6120	3.6125	0.0291	5.99	0.00	0.750			
0.7267	46511.83	3.6090	3.6113	-0.0146	5.99	0.00	0.750			
