Ah_balance (normalized)	Ah_balance (mAh)	Voltage - fit (V)	Voltage -  interpolate (V)	dQ/dV (1/V)	Temperature (°C)	Temperature - diff (°C)	Current (C)	R_DC 0ms (mOhm)	R_DC 50ms (mOhm)	R_DC 50 ms PEC (mOhm)
0.0936	5991.60	4.0010	4.0010	-0.0768	6.00	0.01	-0.750			
0.0939	6009.91	3.9980	3.9979	-0.1067	6.00	0.01	-0.750			
0.0943	6033.06	3.9950	3.9949	-0.1325	6.00	0.01	-0.750			
0.0947	6061.25	3.9920	3.9921	-0.1574	6.00	0.01	-0.750			
0.0952	6093.95	3.9890	3.9890	-0.1816	6.00	0.01	-0.750			
0.0958	6131.32	3.9860	3.9859	-0.2048	6.00	0.01	-0.750			
0.0965	6173.74	3.9830	3.9831	-0.2281	5.99	0.00	-0.750			
0.0972	6219.57	3.9800	3.9800	-0.2503	5.99	0.00	-0.750			
0.0980	6268.88	3.9770	3.9771	-0.2763	5.99	0.00	-0.750			
0.0988	6324.04	3.9740	3.9739	-0.3002	5.99	0.00	-0.750			
0.0997	6383.56	3.9710	3.9710	-0.3253	5.99	0.00	-0.750			
0.1008	6449.06	3.9680	3.9679	-0.3482	5.99	0.00	-0.750			
0.1019	6518.87	3.9650	3.9652	-0.3698	5.99	0.00	-0.750			
0.1030	6592.50	3.9620	3.9620	-0.3927	5.99	-0.00	-0.750			
0.1042	6670.09	3.9590	3.9590	-0.4152	5.99	-0.00	-0.750			
0.1055	6751.90	3.9560	3.9559	-0.4353	5.99	-0.00	-0.750			
0.1068	6836.78	3.9530	3.9530	-0.4549	5.99	-0.00	-0.750			
0.1082	6926.84	3.9500	3.9500	-0.4765	5.99	-0.00	-0.750			
0.1097	7021.18	3.9470	3.9471	-0.4952	5.98	-0.01	-0.750			
0.1112	7118.74	3.9440	3.9439	-0.5144	5.98	-0.01	-0.750			
0.1128	7218.62	3.9410	3.9410	-0.5300	5.98	-0.01	-0.750			
0.1144	7321.74	3.9380	3.9381	-0.5461	5.98	-0.01	-0.750			
0.1161	7428.87	3.9350	3.9350	-0.5613	5.98	-0.01	-0.750			
0.1178	7538.48	3.9320	3.9320	-0.5768	5.98	-0.01	-0.750			
0.1196	7651.43	3.9290	3.9290	-0.5880	5.98	-0.01	-0.750			
0.1213	7765.22	3.9260	3.9260	-0.6021	5.99	-0.00	-0.750			
0.1232	7882.01	3.9230	3.9230	-0.6144	5.99	-0.00	-0.750			
0.1250	8001.54	3.9200	3.9201	-0.6257	5.99	-0.00	-0.750			
0.1269	8123.25	3.9170	3.9169	-0.6350	5.99	-0.00	-0.750			
0.1289	8246.54	3.9140	3.9141	-0.6428	5.99	0.00	-0.750			
0.1308	8370.85	3.9110	3.9110	-0.6499	6.00	0.01	-0.750			
0.1328	8496.43	3.9080	3.9080	-0.6602	6.00	0.01	-0.750			
0.1348	8624.47	3.9050	3.9049	-0.6639	6.00	0.01	-0.750			
0.1368	8752.67	3.9020	3.9020	-0.6698	6.01	0.02	-0.750			
0.1388	8882.26	3.8990	3.8990	-0.6725	6.01	0.02	-0.750			
0.1408	9012.70	3.8960	3.8960	-0.6751	6.01	0.02	-0.750			
0.1428	9141.86	3.8930	3.8930	-0.6784	6.02	0.03	-0.750			
0.1449	9270.91	3.8900	3.8899	-0.6813	6.02	0.03	-0.750			
0.1469	9401.08	3.8870	3.8870	-0.6836	6.02	0.03	-0.750			
0.1490	9534.33	3.8840	3.8840	-0.6949	6.02	0.03	-0.750			
0.1511	9668.84	3.8810	3.8810	-0.6968	6.03	0.04	-0.750			
0.1532	9803.72	3.8780	3.8780	-0.7005	6.03	0.04	-0.750			
0.1553	9939.39	3.8750	3.8750	-0.7013	6.04	0.05	-0.750			
0.1574	10073.09	3.8720	3.8720	-0.7035	6.05	0.06	-0.750			
0.1595	10208.96	3.8690	3.8690	-0.7021	6.05	0.06	-0.750			
0.1616	10344.34	3.8660	3.8660	-0.6996	6.06	0.07	-0.750			
0.1637	10476.80	3.8630	3.8630	-0.7021	6.07	0.08	-0.750			
0.1658	10611.99	3.8600	3.8601	-0.7080	6.07	0.08	-0.750			
0.1679	10747.79	3.8570	3.8569	-0.7105	6.08	0.09	-0.750			
0.1701	10885.26	3.8540	3.8539	-0.7177	6.08	0.09	-0.750			
0.1723	11024.12	3.8510	3.8511	-0.7181	6.09	0.10	-0.750			
0.1744	11164.38	3.8480	3.8480	-0.7180	6.09	0.10	-0.750			
0.1766	11304.37	3.8450	3.8451	-0.7147	6.10	0.11	-0.750			
0.1787	11438.93	3.8420	3.8419	-0.7133	6.11	0.12	-0.750			
0.1808	11573.56	3.8390	3.8389	-0.7114	6.11	0.12	-0.750			
0.1830	11709.51	3.8360	3.8360	-0.7167	6.12	0.13	-0.750			
0.1851	11846.28	3.8330	3.8330	-0.7182	6.13	0.14	-0.750			
0.1873	11988.01	3.8300	3.8300	-0.7241	6.14	0.15	-0.750			
0.1895	12127.61	3.8270	3.8271	-0.7240	6.15	0.16	-0.750			
0.1917	12267.70	3.8240	3.8239	-0.7209	6.16	0.17	-0.750			
0.1939	12407.20	3.8210	3.8209	-0.6995	6.17	0.18	-0.750			
0.1960	12544.66	3.8180	3.8180	-0.6596	6.18	0.19	-0.750			
0.1979	12664.54	3.8150	3.8152	-0.6343	6.18	0.19	-0.750			
0.1997	12780.69	3.8120	3.8126	-0.6188	6.19	0.20	-0.750			
0.2014	12890.84	3.8090	3.8084	-0.6334	6.20	0.21	-0.750			
0.2032	13004.25	3.8060	3.8058	-0.6446	6.20	0.21	-0.750			
0.2052	13130.70	3.8030	3.8030	-0.6725	6.21	0.22	-0.750			
0.2073	13270.17	3.8000	3.8001	-0.7150	6.21	0.22	-0.750			
0.2096	13414.73	3.7970	3.7971	-0.7307	6.22	0.23	-0.750			
0.2119	13559.21	3.7940	3.7939	-0.7397	6.22	0.23	-0.750			
0.2141	13703.18	3.7910	3.7911	-0.7375	6.23	0.24	-0.750			
0.2163	13843.18	3.7880	3.7879	-0.7344	6.24	0.25	-0.750			
0.2185	13983.74	3.7850	3.7851	-0.7334	6.24	0.25	-0.750			
0.2207	14123.70	3.7820	3.7820	-0.7390	6.25	0.26	-0.750			
0.2229	14263.48	3.7790	3.7790	-0.7389	6.26	0.27	-0.750			
0.2251	14408.10	3.7760	3.7759	-0.7482	6.26	0.27	-0.750			
0.2274	14552.09	3.7730	3.7732	-0.7507	6.27	0.28	-0.750			
0.2297	14698.39	3.7700	3.7698	-0.7585	6.28	0.29	-0.750			
0.2319	14843.36	3.7670	3.7671	-0.7640	6.29	0.30	-0.750			
0.2342	14990.84	3.7640	3.7640	-0.7634	6.29	0.30	-0.750			
0.2366	15140.03	3.7610	3.7609	-0.7662	6.30	0.31	-0.750			
0.2389	15286.46	3.7580	3.7580	-0.7657	6.31	0.32	-0.750			
0.2411	15432.33	3.7550	3.7550	-0.7654	6.31	0.32	-0.750			
0.2434	15577.31	3.7520	3.7519	-0.7735	6.32	0.33	-0.750			
0.2457	15725.87	3.7490	3.7489	-0.7743	6.33	0.34	-0.750			
0.2481	15875.79	3.7460	3.7461	-0.7763	6.34	0.35	-0.750			
0.2504	16027.41	3.7430	3.7428	-0.7914	6.34	0.35	-0.750			
0.2528	16179.88	3.7400	3.7403	-0.7940	6.35	0.36	-0.750			
0.2552	16330.66	3.7370	3.7369	-0.7988	6.36	0.37	-0.750			
0.2576	16484.96	3.7340	3.7340	-0.8054	6.36	0.37	-0.750			
0.2600	16639.87	3.7310	3.7311	-0.8055	6.37	0.38	-0.750			
0.2625	16797.68	3.7280	3.7280	-0.8140	6.37	0.38	-0.750			
0.2649	16954.84	3.7250	3.7254	-0.8233	6.38	0.39	-0.750			
0.2674	17111.62	3.7220	3.7221	-0.8220	6.39	0.40	-0.750			
0.2699	17271.36	3.7190	3.7189	-0.8331	6.39	0.40	-0.750			
0.2724	17432.03	3.7160	3.7159	-0.8370	6.40	0.41	-0.750			
0.2749	17594.66	3.7130	3.7130	-0.8420	6.40	0.41	-0.750			
0.2774	17756.39	3.7100	3.7102	-0.8443	6.41	0.42	-0.750			
0.2800	17918.88	3.7070	3.7071	-0.8489	6.42	0.43	-0.750			
0.2825	18081.71	3.7040	3.7039	-0.8590	6.42	0.43	-0.750			
0.2851	18247.06	3.7010	3.7008	-0.8636	6.43	0.44	-0.750			
0.2877	18415.61	3.6980	3.6980	-0.8736	6.44	0.45	-0.750			
0.2904	18582.58	3.6950	3.6952	-0.8772	6.44	0.45	-0.750			
0.2930	18753.66	3.6920	3.6920	-0.8841	6.45	0.46	-0.750			
0.2957	18923.98	3.6890	3.6889	-0.8813	6.45	0.46	-0.750			
0.2983	19088.91	3.6860	3.6860	-0.8779	6.46	0.47	-0.750			
0.3009	19260.69	3.6830	3.6830	-0.8921	6.47	0.48	-0.750			
0.3036	19431.96	3.6800	3.6800	-0.8976	6.47	0.48	-0.750			
0.3063	19605.60	3.6770	3.6769	-0.9095	6.48	0.49	-0.750			
0.3091	19782.00	3.6740	3.6739	-0.9120	6.48	0.49	-0.750			
0.3118	19957.66	3.6710	3.6710	-0.9225	6.49	0.50	-0.750			
0.3146	20136.12	3.6680	3.6686	-0.9328	6.49	0.50	-0.750			
0.3175	20316.85	3.6650	3.6648	-0.9459	6.49	0.50	-0.750			
0.3203	20499.17	3.6620	3.6619	-0.9550	6.50	0.51	-0.750			
0.3232	20682.03	3.6590	3.6590	-0.9612	6.50	0.51	-0.750			
0.3261	20871.47	3.6560	3.6561	-0.9843	6.51	0.52	-0.750			
0.3291	21060.47	3.6530	3.6527	-0.9930	6.51	0.52	-0.750			
0.3321	21251.29	3.6500	3.6497	-0.9900	6.52	0.53	-0.750			
0.3350	21441.84	3.6470	3.6471	-0.9942	6.52	0.53	-0.750			
0.3380	21632.58	3.6440	3.6439	-0.9984	6.53	0.54	-0.750			
0.3411	21829.50	3.6410	3.6408	-1.0043	6.53	0.54	-0.750			
0.3441	22023.69	3.6380	3.6379	-1.0229	6.53	0.54	-0.750			
0.3472	22217.91	3.6350	3.6349	-1.0219	6.54	0.55	-0.750			
0.3503	22418.18	3.6320	3.6318	-1.0328	6.54	0.55	-0.750			
0.3534	22614.89	3.6290	3.6292	-1.0420	6.54	0.55	-0.750			
0.3565	22813.15	3.6260	3.6260	-1.0418	6.54	0.55	-0.750			
0.3596	23014.14	3.6230	3.6227	-1.0453	6.55	0.56	-0.750			
0.3627	23210.18	3.6200	3.6201	-1.0391	6.55	0.56	-0.750			
0.3659	23416.22	3.6170	3.6171	-1.0710	6.55	0.56	-0.750			
0.3692	23627.23	3.6140	3.6139	-1.0811	6.56	0.57	-0.750			
0.3724	23834.93	3.6110	3.6109	-1.0876	6.56	0.57	-0.750			
0.3756	24041.37	3.6080	3.6077	-1.0840	6.57	0.58	-0.750			
0.3789	24252.32	3.6050	3.6048	-1.1114	6.57	0.58	-0.750			
0.3823	24467.54	3.6020	3.6019	-1.1165	6.58	0.59	-0.750			
0.3856	24680.64	3.5990	3.5989	-1.1257	6.58	0.59	-0.750			
0.3891	24900.96	3.5960	3.5960	-1.1479	6.59	0.60	-0.750			
0.3925	25117.80	3.5930	3.5929	-1.1694	6.59	0.60	-0.750			
0.3961	25349.52	3.5900	3.5899	-1.1634	6.59	0.60	-0.750			
0.3996	25574.65	3.5870	3.5868	-1.1646	6.59	0.60	-0.750			
0.4031	25798.95	3.5840	3.5839	-1.1750	6.59	0.60	-0.750			
0.4066	26024.88	3.5810	3.5808	-1.1751	6.60	0.61	-0.750	0.499	1.070	
0.4101	26246.28	3.5780	3.5778	-1.1800	6.60	0.61	-0.750			
0.4136	26468.45	3.5750	3.5749	-1.1878	6.61	0.62	-0.750			
0.4172	26701.51	3.5720	3.5719	-1.2229	6.61	0.62	-0.750			
0.4209	26937.03	3.5690	3.5689	-1.2313	6.61	0.62	-0.750			
0.4245	27169.80	3.5660	3.5660	-1.2485	6.61	0.62	-0.750			
0.4283	27412.53	3.5630	3.5630	-1.2576	6.61	0.62	-0.750			
0.4321	27656.29	3.5600	3.5600	-1.2704	6.61	0.62	-0.750			
0.4360	27901.01	3.5570	3.5569	-1.2809	6.62	0.63	-0.750			
0.4398	28146.71	3.5540	3.5545	-1.2944	6.62	0.63	-0.750			
0.4438	28402.11	3.5510	3.5506	-1.3094	6.62	0.63	-0.750			
0.4477	28653.55	3.5480	3.5481	-1.3110	6.63	0.64	-0.750			
0.4516	28904.28	3.5450	3.5450	-1.3267	6.63	0.64	-0.750			
0.4557	29163.99	3.5420	3.5418	-1.3428	6.64	0.65	-0.750			
0.4597	29421.53	3.5390	3.5390	-1.3363	6.64	0.65	-0.750			
0.4636	29672.57	3.5360	3.5362	-1.3541	6.65	0.66	-0.750			
0.4677	29935.23	3.5330	3.5330	-1.3747	6.66	0.67	-0.750			
0.4719	30201.23	3.5300	3.5297	-1.3897	6.66	0.67	-0.750			
0.4761	30468.68	3.5270	3.5271	-1.4049	6.67	0.68	-0.750			
0.4804	30743.78	3.5240	3.5240	-1.3959	6.68	0.69	-0.750			
0.4847	31020.27	3.5210	3.5209	-1.4078	6.68	0.69	-0.750			
0.4889	31289.19	3.5180	3.5183	-1.4228	6.69	0.70	-0.750			
0.4931	31556.98	3.5150	3.5147	-1.4201	6.70	0.71	-0.750			
0.4973	31829.01	3.5120	3.5118	-1.4429	6.70	0.71	-0.750			
0.5017	32109.17	3.5090	3.5094	-1.4565	6.71	0.72	-0.750			
0.5063	32400.73	3.5060	3.5061	-1.4776	6.71	0.72	-0.750			
0.5107	32684.80	3.5030	3.5028	-1.4649	6.72	0.73	-0.750			
0.5151	32964.13	3.5000	3.5002	-1.4548	6.72	0.73	-0.750			
0.5194	33241.22	3.4970	3.4969	-1.4582	6.73	0.74	-0.750			
0.5236	33512.25	3.4940	3.4939	-1.4842	6.74	0.75	-0.750			
0.5281	33801.56	3.4910	3.4910	-1.4745	6.75	0.76	-0.750			
0.5327	34095.38	3.4880	3.4883	-1.4880	6.76	0.77	-0.750			
0.5372	34379.15	3.4850	3.4853	-1.4926	6.77	0.78	-0.750			
0.5416	34665.49	3.4820	3.4818	-1.4831	6.77	0.78	-0.750			
0.5460	34947.10	3.4790	3.4788	-1.4859	6.78	0.79	-0.750			
0.5505	35231.92	3.4760	3.4758	-1.4970	6.79	0.80	-0.750			
0.5550	35519.90	3.4730	3.4729	-1.4791	6.80	0.81	-0.750			
0.5596	35812.18	3.4700	3.4697	-1.4775	6.81	0.82	-0.750			
0.5640	36096.16	3.4670	3.4675	-1.4759	6.82	0.83	-0.750			
0.5683	36371.37	3.4640	3.4639	-1.4563	6.83	0.84	-0.750			
0.5727	36655.08	3.4610	3.4608	-1.4566	6.85	0.86	-0.750			
0.5771	36931.40	3.4580	3.4584	-1.4538	6.87	0.88	-0.750			
0.5815	37215.00	3.4550	3.4549	-1.4581	6.88	0.89	-0.750			
0.5858	37493.62	3.4520	3.4520	-1.4424	6.89	0.90	-0.750			
0.5901	37767.44	3.4490	3.4492	-1.4306	6.90	0.91	-0.750			
0.5944	38042.80	3.4460	3.4458	-1.4167	6.91	0.92	-0.750			
0.5986	38311.24	3.4430	3.4430	-1.3941	6.92	0.93	-0.750			
0.6028	38579.02	3.4400	3.4401	-1.3922	6.93	0.94	-0.750			
0.6070	38850.44	3.4370	3.4368	-1.3822	6.95	0.96	-0.750			
0.6111	39113.53	3.4340	3.4338	-1.3595	6.96	0.97	-0.750			
0.6152	39371.63	3.4310	3.4314	-1.3324	6.97	0.98	-0.750			
0.6192	39626.16	3.4280	3.4279	-1.3093	6.99	1.00	-0.750			
0.6231	39875.23	3.4250	3.4249	-1.2824	7.01	1.02	-0.750			
0.6267	40108.10	3.4220	3.4220	-1.2479	7.03	1.04	-0.750			
0.6306	40357.42	3.4190	3.4189	-1.2422	7.04	1.05	-0.750			
0.6342	40588.08	3.4160	3.4160	-1.2566	7.05	1.06	-0.750			
0.6380	40831.13	3.4130	3.4128	-1.2469	7.06	1.07	-0.750			
0.6418	41074.06	3.4100	3.4096	-1.2348	7.08	1.09	-0.750			
0.6455	41314.99	3.4070	3.4074	-1.2008	7.09	1.10	-0.750			
0.6492	41548.62	3.4040	3.4039	-1.1616	7.10	1.11	-0.750			
0.6526	41765.30	3.4010	3.4011	-1.1248	7.11	1.12	-0.750			
0.6558	41969.36	3.3980	3.3980	-1.0632	7.13	1.14	-0.750			
0.6588	42161.19	3.3950	3.3950	-1.0153	7.15	1.16	-0.750			
0.6619	42359.75	3.3920	3.3920	-1.0004	7.17	1.18	-0.750			
0.6648	42548.97	3.3890	3.3893	-0.9816	7.19	1.20	-0.750			
0.6677	42735.92	3.3860	3.3860	-0.9585	7.21	1.22	-0.750			
0.6706	42919.32	3.3830	3.3829	-0.9336	7.22	1.23	-0.750			
0.6734	43095.67	3.3800	3.3800	-0.9029	7.23	1.24	-0.750			
0.6761	43267.76	3.3770	3.3771	-0.8786	7.25	1.26	-0.750			
0.6786	43432.43	3.3740	3.3738	-0.8546	7.26	1.27	-0.750			
0.6811	43591.99	3.3710	3.3709	-0.8270	7.28	1.29	-0.750			
0.6835	43747.07	3.3680	3.3680	-0.8047	7.29	1.30	-0.750			
0.6859	43898.03	3.3650	3.3650	-0.7846	7.31	1.32	-0.750			
0.6883	44050.82	3.3620	3.3620	-0.7701	7.32	1.33	-0.750			
0.6906	44196.35	3.3590	3.3590	-0.7535	7.33	1.34	-0.750			
0.6928	44337.73	3.3560	3.3560	-0.7370	7.35	1.36	-0.750			
0.6949	44476.77	3.3530	3.3530	-0.7237	7.36	1.37	-0.750			
0.6971	44615.73	3.3500	3.3499	-0.7094	7.37	1.38	-0.750			
0.6992	44751.79	3.3470	3.3470	-0.6921	7.38	1.39	-0.750			
0.7013	44884.27	3.3440	3.3440	-0.6723	7.39	1.40	-0.750			
0.7033	45011.09	3.3410	3.3411	-0.6528	7.40	1.41	-0.750			
0.7052	45132.53	3.3380	3.3380	-0.6312	7.41	1.42	-0.750			
0.7071	45252.05	3.3350	3.3347	-0.6112	7.42	1.43	-0.750			
0.7088	45365.06	3.3320	3.3322	-0.6030	7.43	1.44	-0.750			
0.7106	45481.41	3.3290	3.3291	-0.5974	7.44	1.45	-0.750			
0.7124	45595.53	3.3260	3.3258	-0.5868	7.46	1.47	-0.750			
0.7142	45706.34	3.3230	3.3230	-0.5635	7.47	1.48	-0.750			
