Ah_balance (normalized)	Ah_balance (mAh)	Voltage - fit (V)	Voltage -  interpolate (V)	dQ/dV (1/V)	Temperature (°C)	Temperature - diff (°C)	Current (C)	R_DC 0ms (mOhm)	R_DC 50ms (mOhm)	R_DC 50 ms PEC (mOhm)
0.1573	10067.70	4.0760	4.0760	0.8162	7.39	1.40	0.750			
0.1597	10219.10	4.0730	4.0730	0.7837	7.39	1.40	0.750			
0.1621	10372.03	4.0700	4.0700	0.7956	7.39	1.40	0.750			
0.1645	10525.80	4.0670	4.0671	0.8003	7.39	1.40	0.750			
0.1669	10679.71	4.0640	4.0639	0.8038	7.39	1.40	0.750			
0.1693	10836.85	4.0610	4.0612	0.8014	7.39	1.40	0.750			
0.1717	10988.99	4.0580	4.0580	0.8030	7.39	1.40	0.750			
0.1741	11143.78	4.0550	4.0551	0.8077	7.39	1.40	0.750			
0.1765	11297.43	4.0520	4.0520	0.8105	7.39	1.40	0.750			
0.1790	11454.06	4.0490	4.0488	0.8172	7.39	1.40	0.750			
0.1814	11611.68	4.0460	4.0461	0.8215	7.39	1.40	0.750			
0.1839	11770.95	4.0430	4.0431	0.8284	7.38	1.39	0.750			
0.1864	11931.81	4.0400	4.0400	0.8326	7.38	1.39	0.750			
0.1889	12091.50	4.0370	4.0370	0.8273	7.37	1.38	0.750			
0.1914	12250.49	4.0340	4.0340	0.8279	7.37	1.38	0.750			
0.1939	12409.26	4.0310	4.0310	0.8261	7.37	1.38	0.750			
0.1964	12567.80	4.0280	4.0280	0.8303	7.37	1.38	0.750			
0.1988	12726.04	4.0250	4.0250	0.8326	7.36	1.37	0.750			
0.2013	12885.05	4.0220	4.0220	0.8385	7.36	1.37	0.750			
0.2039	13047.72	4.0190	4.0189	0.8445	7.36	1.37	0.750			
0.2064	13211.83	4.0160	4.0160	0.8478	7.36	1.37	0.750			
0.2090	13375.84	4.0130	4.0131	0.8501	7.35	1.36	0.750			
0.2115	13538.95	4.0100	4.0100	0.8536	7.35	1.36	0.750			
0.2141	13701.64	4.0070	4.0070	0.8544	7.34	1.35	0.750			
0.2167	13865.85	4.0040	4.0041	0.8572	7.34	1.35	0.750			
0.2192	14030.86	4.0010	4.0010	0.8604	7.34	1.35	0.750			
0.2218	14197.91	3.9980	3.9980	0.8665	7.34	1.35	0.750			
0.2244	14364.29	3.9950	3.9951	0.8700	7.33	1.34	0.750			
0.2271	14531.70	3.9920	3.9919	0.8723	7.33	1.34	0.750			
0.2297	14698.94	3.9890	3.9890	0.8728	7.33	1.34	0.750			
0.2323	14867.32	3.9860	3.9860	0.8719	7.32	1.33	0.750			
0.2349	15034.28	3.9830	3.9831	0.8771	7.32	1.33	0.750			
0.2376	15203.57	3.9800	3.9800	0.8822	7.32	1.33	0.750			
0.2402	15372.17	3.9770	3.9769	0.8858	7.31	1.32	0.750			
0.2429	15542.47	3.9740	3.9740	0.8908	7.30	1.31	0.750			
0.2455	15714.47	3.9710	3.9710	0.8912	7.30	1.31	0.750			
0.2482	15885.42	3.9680	3.9680	0.8985	7.29	1.30	0.750			
0.2509	16058.74	3.9650	3.9650	0.9042	7.28	1.29	0.750			
0.2536	16231.78	3.9620	3.9617	0.9061	7.27	1.28	0.750			
0.2563	16406.29	3.9590	3.9590	0.9100	7.27	1.28	0.750			
0.2591	16581.30	3.9560	3.9561	0.9175	7.26	1.27	0.750			
0.2619	16758.56	3.9530	3.9530	0.9263	7.26	1.27	0.750			
0.2646	16936.37	3.9500	3.9500	0.9281	7.25	1.26	0.750			
0.2674	17115.50	3.9470	3.9470	0.9348	7.25	1.26	0.750			
0.2702	17295.71	3.9440	3.9440	0.9397	7.24	1.25	0.750			
0.2731	17476.80	3.9410	3.9411	0.9455	7.24	1.25	0.750			
0.2759	17658.66	3.9380	3.9380	0.9513	7.23	1.24	0.750			
0.2788	17840.43	3.9350	3.9348	0.9568	7.23	1.24	0.750			
0.2816	18025.09	3.9320	3.9320	0.9631	7.23	1.24	0.750			
0.2845	18209.89	3.9290	3.9290	0.9738	7.22	1.23	0.750			
0.2875	18399.35	3.9260	3.9260	0.9812	7.22	1.23	0.750			
0.2904	18587.81	3.9230	3.9228	0.9850	7.21	1.22	0.750			
0.2934	18778.84	3.9200	3.9200	0.9952	7.21	1.22	0.750			
0.2964	18968.78	3.9170	3.9171	1.0087	7.20	1.21	0.750			
0.2994	19164.29	3.9140	3.9141	1.0138	7.20	1.21	0.750			
0.3025	19360.74	3.9110	3.9109	1.0248	7.19	1.20	0.750			
0.3056	19557.89	3.9080	3.9079	1.0267	7.18	1.19	0.750			
0.3087	19755.61	3.9050	3.9051	1.0421	7.17	1.18	0.750			
0.3118	19955.04	3.9020	3.9021	1.0514	7.16	1.17	0.750			
0.3150	20158.03	3.8990	3.8989	1.0603	7.15	1.16	0.750			
0.3182	20362.05	3.8960	3.8960	1.0703	7.15	1.16	0.750			
0.3214	20568.82	3.8930	3.8930	1.0889	7.14	1.15	0.750			
0.3247	20777.99	3.8900	3.8901	1.1008	7.13	1.14	0.750			
0.3280	20994.18	3.8870	3.8869	1.1089	7.12	1.13	0.750			
0.3313	21205.95	3.8840	3.8840	1.1165	7.11	1.12	0.750			
0.3348	21426.72	3.8810	3.8810	1.1167	7.10	1.11	0.750			
0.3382	21644.55	3.8780	3.8780	1.1115	7.08	1.09	0.750			
0.3415	21857.22	3.8750	3.8749	1.1001	7.07	1.08	0.750			
0.3447	22062.28	3.8720	3.8724	1.1101	7.06	1.07	0.750			
0.3480	22269.40	3.8690	3.8687	1.1240	7.06	1.07	0.750			
0.3513	22485.73	3.8660	3.8661	1.1524	7.05	1.06	0.750			
0.3548	22707.00	3.8630	3.8632	1.1690	7.05	1.06	0.750			
0.3584	22934.93	3.8600	3.8602	1.2161	7.03	1.04	0.750			
0.3621	23176.55	3.8570	3.8571	1.2556	7.02	1.03	0.750			
0.3659	23420.39	3.8540	3.8535	1.2860	7.01	1.02	0.750			
0.3698	23669.23	3.8510	3.8511	1.3100	7.00	1.01	0.750			
0.3738	23925.63	3.8480	3.8482	1.3531	6.99	1.00	0.750			
0.3780	24191.14	3.8450	3.8450	1.3717	6.97	0.98	0.750			
0.3821	24456.44	3.8420	3.8420	1.3848	6.96	0.97	0.750			
0.3863	24723.40	3.8390	3.8390	1.4184	6.96	0.97	0.750	0.412	1.010	
0.3906	25000.03	3.8360	3.8357	1.4416	6.95	0.96	0.750			
0.3950	25277.05	3.8330	3.8333	1.4715	6.93	0.94	0.750			
0.3994	25562.11	3.8300	3.8299	1.5021	6.92	0.93	0.750			
0.4040	25855.99	3.8270	3.8269	1.5313	6.90	0.91	0.750			
0.4085	26144.67	3.8240	3.8240	1.5287	6.89	0.90	0.750			
0.4132	26445.56	3.8210	3.8211	1.5945	6.88	0.89	0.750			
0.4180	26750.08	3.8180	3.8180	1.6363	6.86	0.87	0.750			
0.4229	27068.70	3.8150	3.8148	1.6756	6.85	0.86	0.750			
0.4281	27396.85	3.8120	3.8120	1.7176	6.83	0.84	0.750			
0.4333	27731.67	3.8090	3.8089	1.7608	6.81	0.82	0.750			
0.4386	28072.17	3.8060	3.8061	1.8145	6.79	0.80	0.750			
0.4441	28423.86	3.8030	3.8029	1.8386	6.77	0.78	0.750			
0.4498	28789.04	3.8000	3.7999	1.8873	6.74	0.75	0.750			
0.4554	29144.80	3.7970	3.7971	1.9339	6.72	0.73	0.750			
0.4613	29525.59	3.7940	3.7940	1.9520	6.69	0.70	0.750			
0.4672	29899.59	3.7910	3.7907	1.9693	6.67	0.68	0.750			
0.4732	30283.99	3.7880	3.7882	1.9948	6.65	0.66	0.750			
0.4791	30660.09	3.7850	3.7849	2.0008	6.63	0.64	0.750			
0.4851	31045.91	3.7820	3.7821	2.0592	6.60	0.61	0.750			
0.4915	31455.71	3.7790	3.7789	2.1126	6.57	0.58	0.750			
0.4978	31857.52	3.7760	3.7761	2.1292	6.54	0.55	0.750			
0.5043	32276.39	3.7730	3.7730	2.1917	6.51	0.52	0.750			
0.5109	32696.10	3.7700	3.7700	2.2033	6.49	0.50	0.750			
0.5176	33129.13	3.7670	3.7670	2.2638	6.46	0.47	0.750			
0.5245	33564.95	3.7640	3.7639	2.3198	6.43	0.44	0.750			
0.5315	34015.16	3.7610	3.7609	2.3617	6.40	0.41	0.750			
0.5387	34477.99	3.7580	3.7581	2.3982	6.38	0.39	0.750			
0.5459	34937.51	3.7550	3.7550	2.4529	6.35	0.36	0.750			
0.5532	35405.08	3.7520	3.7519	2.4638	6.31	0.32	0.750			
0.5607	35886.92	3.7490	3.7491	2.5807	6.29	0.30	0.750			
0.5687	36395.24	3.7460	3.7458	2.6676	6.26	0.27	0.750			
0.5766	36903.30	3.7430	3.7430	2.7067	6.22	0.23	0.750			
0.5850	37439.25	3.7400	3.7400	2.8171	6.19	0.20	0.750			
0.5936	37989.52	3.7370	3.7370	2.9587	6.16	0.17	0.750			
0.6027	38570.13	3.7340	3.7340	3.0566	6.13	0.14	0.750			
0.6119	39164.66	3.7310	3.7311	3.0895	6.10	0.11	0.750			
0.6213	39761.96	3.7280	3.7279	3.1228	6.07	0.08	0.750			
0.6308	40370.02	3.7250	3.7250	3.1029	6.04	0.05	0.750			
0.6402	40971.40	3.7220	3.7220	2.9005	6.01	0.02	0.750			
0.6483	41493.87	3.7190	3.7190	2.5426	6.00	0.01	0.750			
0.6554	41943.29	3.7160	3.7158	2.1944	5.99	-0.00	0.750			
0.6615	42335.69	3.7130	3.7127	1.9124	5.98	-0.01	0.750			
0.6666	42664.12	3.7100	3.7102	1.6395	5.97	-0.02	0.750			
0.6711	42952.29	3.7070	3.7071	1.4324	5.97	-0.02	0.750			
0.6748	43189.99	3.7040	3.7041	1.2479	5.97	-0.02	0.750			
0.6783	43409.18	3.7010	3.7007	1.1003	5.97	-0.02	0.750			
0.6813	43601.11	3.6980	3.6980	0.9848	5.97	-0.02	0.750			
0.6840	43778.96	3.6950	3.6950	0.9061	5.97	-0.02	0.750			
0.6866	43942.52	3.6920	3.6921	0.8448	5.97	-0.02	0.750			
0.6890	44097.16	3.6890	3.6890	0.7875	5.97	-0.02	0.750			
0.6913	44242.89	3.6860	3.6857	0.7309	5.97	-0.02	0.750			
0.6934	44379.09	3.6830	3.6831	0.6845	5.97	-0.02	0.750			
0.6954	44506.82	3.6800	3.6800	0.6340	5.98	-0.01	0.750			
0.6973	44624.62	3.6770	3.6770	0.5792	5.98	-0.01	0.750			
0.6989	44729.81	3.6740	3.6739	0.5191	5.98	-0.01	0.750			
0.7004	44823.18	3.6710	3.6709	0.4653	5.98	-0.01	0.750			
0.7017	44906.29	3.6680	3.6682	0.4149	5.99	-0.00	0.750			
0.7028	44980.93	3.6650	3.6650	0.3704	5.99	-0.00	0.750			
0.7038	45045.45	3.6620	3.6621	0.3250	5.99	0.00	0.750			
0.7048	45104.07	3.6590	3.6590	0.2888	5.99	0.00	0.750			
0.7056	45155.94	3.6560	3.6559	0.2509	5.99	0.00	0.750			
0.7063	45200.58	3.6530	3.6531	0.2136	5.99	0.00	0.750			
0.7069	45238.44	3.6500	3.6499	0.1762	6.00	0.01	0.750			
0.7073	45269.36	3.6470	3.6471	0.1383	6.00	0.01	0.750			
0.7077	45292.26	3.6440	3.6444	0.0982	6.00	0.01	0.750			
0.7079	45308.48	3.6410	3.6417	0.0542	6.00	0.01	0.750			
0.7080	45314.59	3.6380	3.6404	0.0095	6.00	0.01	0.750			
