Ah_balance (normalized)	Ah_balance (mAh)	Voltage - fit (V)	Voltage -  interpolate (V)	dQ/dV (1/V)	Temperature (°C)	Temperature - diff (°C)	Current (C)	R_DC 0ms (mOhm)	R_DC 50ms (mOhm)	R_DC 50 ms PEC (mOhm)
0.1791	11463.39	4.0800	4.0799	0.7847	7.48	1.49	0.750			
0.1814	11612.55	4.0770	4.0769	0.7770	7.48	1.49	0.750			
0.1838	11761.42	4.0740	4.0742	0.7750	7.47	1.48	0.750			
0.1861	11909.24	4.0710	4.0710	0.7789	7.46	1.47	0.750			
0.1884	12059.00	4.0680	4.0680	0.7816	7.46	1.47	0.750			
0.1908	12209.04	4.0650	4.0650	0.7828	7.45	1.46	0.750			
0.1931	12359.06	4.0620	4.0621	0.7862	7.45	1.46	0.750			
0.1955	12511.04	4.0590	4.0590	0.7939	7.44	1.45	0.750			
0.1979	12663.30	4.0560	4.0561	0.8000	7.44	1.45	0.750			
0.2003	12816.95	4.0530	4.0526	0.8033	7.43	1.44	0.750			
0.2027	12972.71	4.0500	4.0501	0.7996	7.43	1.44	0.750			
0.2052	13130.10	4.0470	4.0471	0.7919	7.42	1.43	0.750			
0.2075	13280.38	4.0440	4.0441	0.7970	7.42	1.43	0.750			
0.2099	13432.04	4.0410	4.0411	0.8016	7.42	1.43	0.750			
0.2122	13581.46	4.0380	4.0379	0.8023	7.41	1.42	0.750			
0.2146	13737.24	4.0350	4.0351	0.8061	7.41	1.42	0.750			
0.2171	13895.25	4.0320	4.0320	0.8121	7.40	1.41	0.750			
0.2196	14053.58	4.0290	4.0291	0.8172	7.40	1.41	0.750			
0.2221	14211.94	4.0260	4.0260	0.8227	7.40	1.41	0.750			
0.2245	14365.97	4.0230	4.0229	0.8162	7.39	1.40	0.750			
0.2269	14523.34	4.0200	4.0201	0.8187	7.39	1.40	0.750			
0.2294	14680.16	4.0170	4.0170	0.8194	7.38	1.39	0.750			
0.2319	14838.87	4.0140	4.0141	0.8258	7.38	1.39	0.750			
0.2343	14998.02	4.0110	4.0110	0.8317	7.38	1.39	0.750			
0.2368	15157.87	4.0080	4.0080	0.8330	7.37	1.38	0.750			
0.2393	15317.59	4.0050	4.0050	0.8345	7.37	1.38	0.750			
0.2419	15480.03	4.0020	4.0021	0.8337	7.36	1.37	0.750			
0.2444	15639.89	3.9990	3.9990	0.8417	7.36	1.37	0.750			
0.2469	15799.94	3.9960	3.9960	0.8496	7.36	1.37	0.750			
0.2494	15963.18	3.9930	3.9930	0.8503	7.35	1.36	0.750			
0.2520	16127.36	3.9900	3.9901	0.8548	7.35	1.36	0.750			
0.2546	16294.83	3.9870	3.9871	0.8583	7.34	1.35	0.750			
0.2572	16459.49	3.9840	3.9841	0.8623	7.33	1.34	0.750			
0.2598	16625.34	3.9810	3.9810	0.8678	7.32	1.33	0.750			
0.2623	16789.55	3.9780	3.9779	0.8674	7.31	1.32	0.750			
0.2649	16956.52	3.9750	3.9751	0.8731	7.31	1.32	0.750			
0.2676	17126.46	3.9720	3.9720	0.8790	7.30	1.31	0.750			
0.2702	17295.10	3.9690	3.9690	0.8813	7.30	1.31	0.750			
0.2729	17465.32	3.9660	3.9660	0.8892	7.29	1.30	0.750			
0.2755	17635.01	3.9630	3.9628	0.8883	7.29	1.30	0.750			
0.2783	17810.12	3.9600	3.9600	0.8799	7.29	1.30	0.750			
0.2809	17976.30	3.9570	3.9571	0.8892	7.28	1.29	0.750			
0.2835	18146.30	3.9540	3.9541	0.8945	7.28	1.29	0.750			
0.2862	18317.35	3.9510	3.9510	0.9038	7.27	1.28	0.750			
0.2889	18489.45	3.9480	3.9477	0.9077	7.27	1.28	0.750			
0.2916	18665.25	3.9450	3.9451	0.9128	7.26	1.27	0.750			
0.2944	18843.94	3.9420	3.9421	0.9273	7.25	1.26	0.750			
0.2972	19023.19	3.9390	3.9391	0.9371	7.24	1.25	0.750			
0.3000	19201.09	3.9360	3.9359	0.9363	7.23	1.24	0.750			
0.3029	19384.36	3.9330	3.9330	0.9394	7.23	1.24	0.750			
0.3057	19563.60	3.9300	3.9300	0.9504	7.22	1.23	0.750			
0.3086	19748.88	3.9270	3.9271	0.9587	7.22	1.23	0.750			
0.3114	19932.70	3.9240	3.9241	0.9595	7.21	1.22	0.750			
0.3143	20117.16	3.9210	3.9210	0.9658	7.21	1.22	0.750			
0.3172	20301.96	3.9180	3.9181	0.9686	7.20	1.21	0.750			
0.3201	20487.24	3.9150	3.9150	0.9789	7.19	1.20	0.750			
0.3231	20675.50	3.9120	3.9121	0.9951	7.19	1.20	0.750			
0.3260	20865.95	3.9090	3.9088	0.9975	7.18	1.19	0.750			
0.3291	21060.86	3.9060	3.9061	1.0112	7.17	1.18	0.750			
0.3321	21256.81	3.9030	3.9031	1.0214	7.16	1.17	0.750			
0.3352	21455.77	3.9000	3.9001	1.0284	7.16	1.17	0.750			
0.3383	21651.74	3.8970	3.8967	1.0320	7.15	1.16	0.750			
0.3414	21850.32	3.8940	3.8941	1.0312	7.14	1.15	0.750			
0.3445	22047.60	3.8910	3.8910	1.0450	7.13	1.14	0.750			
0.3476	22248.68	3.8880	3.8881	1.0663	7.13	1.14	0.750			
0.3509	22456.22	3.8850	3.8846	1.0746	7.12	1.13	0.750			
0.3541	22661.39	3.8820	3.8821	1.0937	7.11	1.12	0.750			
0.3574	22873.45	3.8790	3.8790	1.1155	7.10	1.11	0.750			
0.3608	23090.62	3.8760	3.8761	1.1334	7.10	1.11	0.750			
0.3643	23312.93	3.8730	3.8729	1.1272	7.09	1.10	0.750			
0.3676	23528.85	3.8700	3.8701	1.1497	7.08	1.09	0.750			
0.3711	23750.79	3.8670	3.8671	1.1605	7.06	1.07	0.750			
0.3746	23976.80	3.8640	3.8638	1.1742	7.05	1.06	0.750			
0.3781	24201.19	3.8610	3.8611	1.1847	7.04	1.05	0.750			
0.3817	24429.82	3.8580	3.8581	1.1967	7.03	1.04	0.750			
0.3853	24661.86	3.8550	3.8550	1.2138	7.01	1.02	0.750			
0.3890	24895.33	3.8520	3.8521	1.2215	7.00	1.01	0.750			
0.3926	25129.40	3.8490	3.8491	1.2477	6.98	0.99	0.750			
0.3965	25373.96	3.8460	3.8460	1.2730	6.97	0.98	0.750			
0.4003	25618.09	3.8430	3.8427	1.3087	6.95	0.96	0.750			
0.4042	25868.00	3.8400	3.8402	1.3538	6.94	0.95	0.750			
0.4083	26134.21	3.8370	3.8371	1.4055	6.93	0.94	0.750			
0.4127	26411.47	3.8340	3.8337	1.4198	6.92	0.93	0.750	0.391	0.914	
0.4170	26686.41	3.8310	3.8312	1.4516	6.90	0.91	0.750			
0.4214	26970.53	3.8280	3.8282	1.4932	6.89	0.90	0.750			
0.4260	27266.10	3.8250	3.8247	1.5058	6.87	0.88	0.750			
0.4304	27547.14	3.8220	3.8220	1.5121	6.85	0.86	0.750			
0.4350	27839.46	3.8190	3.8193	1.5318	6.83	0.84	0.750			
0.4396	28136.83	3.8160	3.8161	1.5795	6.81	0.82	0.750			
0.4443	28434.91	3.8130	3.8132	1.6095	6.80	0.81	0.750			
0.4492	28749.20	3.8100	3.8099	1.6333	6.78	0.79	0.750			
0.4542	29071.61	3.8070	3.8072	1.6731	6.75	0.76	0.750			
0.4593	29397.49	3.8040	3.8041	1.7065	6.73	0.74	0.750			
0.4646	29733.90	3.8010	3.8008	1.7488	6.70	0.71	0.750			
0.4697	30060.03	3.7980	3.7979	1.7751	6.68	0.69	0.750			
0.4752	30410.62	3.7950	3.7948	1.8232	6.65	0.66	0.750			
0.4808	30771.02	3.7920	3.7920	1.8187	6.63	0.64	0.750			
0.4864	31129.27	3.7890	3.7890	1.8509	6.60	0.61	0.750			
0.4920	31488.18	3.7860	3.7860	1.8689	6.58	0.59	0.750			
0.4975	31843.13	3.7830	3.7829	1.8879	6.56	0.57	0.750			
0.5033	32208.46	3.7800	3.7802	1.9338	6.54	0.55	0.750			
0.5092	32590.90	3.7770	3.7770	1.9945	6.51	0.52	0.750			
0.5153	32982.00	3.7740	3.7740	1.9748	6.48	0.49	0.750			
0.5212	33355.00	3.7710	3.7712	2.0120	6.46	0.47	0.750			
0.5271	33735.00	3.7680	3.7678	2.0038	6.44	0.45	0.750			
0.5331	34119.24	3.7650	3.7647	2.0070	6.41	0.42	0.750			
0.5391	34500.45	3.7620	3.7623	2.0619	6.39	0.40	0.750			
0.5455	34911.63	3.7590	3.7589	2.0995	6.36	0.37	0.750			
0.5519	35322.77	3.7560	3.7559	2.1169	6.33	0.34	0.750			
0.5584	35738.91	3.7530	3.7531	2.1614	6.31	0.32	0.750			
0.5648	36147.80	3.7500	3.7500	2.1909	6.28	0.29	0.750			
0.5715	36577.26	3.7470	3.7470	2.2459	6.25	0.26	0.750			
0.5785	37026.92	3.7440	3.7438	2.2978	6.23	0.24	0.750			
0.5855	37472.50	3.7410	3.7415	2.3485	6.21	0.22	0.750			
0.5927	37934.66	3.7380	3.7379	2.3903	6.19	0.20	0.750			
0.5998	38389.17	3.7350	3.7352	2.4625	6.15	0.16	0.750			
0.6076	38884.82	3.7320	3.7317	2.5785	6.14	0.15	0.750			
0.6153	39378.32	3.7290	3.7290	2.5578	6.12	0.13	0.750			
0.6233	39888.57	3.7260	3.7261	2.6753	6.10	0.11	0.750			
0.6312	40396.40	3.7230	3.7229	2.5868	6.07	0.08	0.750			
0.6391	40901.49	3.7200	3.7201	2.5344	6.05	0.06	0.750			
0.6467	41391.36	3.7170	3.7169	2.4304	6.03	0.04	0.750			
0.6537	41839.36	3.7140	3.7138	2.2548	6.01	0.02	0.750			
0.6603	42259.23	3.7110	3.7114	2.0828	6.00	0.01	0.750			
0.6662	42638.15	3.7080	3.7082	1.8958	5.99	-0.00	0.750			
0.6716	42980.03	3.7050	3.7051	1.6790	5.98	-0.01	0.750			
0.6763	43284.29	3.7020	3.7020	1.4904	5.97	-0.02	0.750			
0.6805	43555.19	3.6990	3.6989	1.3325	5.97	-0.02	0.750			
0.6840	43777.10	3.6960	3.6961	1.1852	5.97	-0.02	0.750			
0.6873	43985.08	3.6930	3.6929	1.0768	5.97	-0.02	0.750			
0.6903	44178.82	3.6900	3.6899	0.9995	5.97	-0.02	0.750			
0.6932	44361.86	3.6870	3.6869	0.9150	5.97	-0.02	0.750			
0.6957	44523.92	3.6840	3.6841	0.8806	5.97	-0.02	0.750			
0.6982	44682.15	3.6810	3.6814	0.8544	5.97	-0.02	0.750			
0.7007	44844.88	3.6780	3.6783	0.8354	5.97	-0.02	0.750			
0.7032	45005.22	3.6750	3.6755	0.8083	5.97	-0.02	0.750			
0.7056	45160.98	3.6720	3.6723	0.7799	5.97	-0.02	0.750			
0.7080	45312.14	3.6690	3.6694	0.7521	5.98	-0.01	0.750			
0.7104	45462.85	3.6660	3.6658	0.6986	5.98	-0.01	0.750			
0.7123	45590.08	3.6630	3.6630	0.6279	5.98	-0.01	0.750			
0.7141	45700.84	3.6600	3.6602	0.5992	5.98	-0.01	0.750			
0.7158	45811.64	3.6570	3.6574	0.5662	5.98	-0.01	0.750			
0.7175	45917.12	3.6540	3.6539	0.5300	5.98	-0.01	0.750			
0.7190	46016.36	3.6510	3.6518	0.4928	5.98	-0.01	0.750			
0.7204	46106.23	3.6480	3.6484	0.4512	5.99	-0.00	0.750			
0.7218	46192.21	3.6450	3.6451	0.4151	5.99	-0.00	0.750			
0.7230	46269.40	3.6420	3.6419	0.3670	5.99	-0.00	0.750			
0.7240	46332.97	3.6390	3.6391	0.3287	5.99	-0.00	0.750			
0.7249	46394.71	3.6360	3.6360	0.2956	5.99	-0.00	0.750			
0.7258	46448.93	3.6330	3.6329	0.2620	5.99	0.00	0.750			
0.7265	46496.08	3.6300	3.6299	0.2256	5.99	0.00	0.750			
0.7271	46536.57	3.6270	3.6273	0.1901	5.99	0.00	0.750			
0.7277	46569.98	3.6240	3.6246	0.1523	5.99	0.00	0.750			
0.7280	46594.81	3.6210	3.6213	0.1126	5.99	0.00	0.750			
0.7283	46612.76	3.6180	3.6199	0.0743	5.99	0.00	0.750			
0.7285	46622.94	3.6150	3.6178	0.0499	5.99	0.00	0.750			
