Ah_balance (normalized)	Ah_balance (mAh)	Voltage - fit (V)	Voltage -  interpolate (V)	dQ/dV (1/V)	Temperature (°C)	Temperature - diff (°C)	Current (C)	R_DC 0ms (mOhm)	R_DC 50ms (mOhm)	R_DC 50 ms PEC (mOhm)
0.1778	11379.39	4.0820	4.0817	0.7458	7.49	1.52	0.750			
0.1801	11525.76	4.0790	4.0790	0.7684	7.49	1.52	0.750			
0.1825	11678.28	4.0760	4.0760	0.7763	7.48	1.51	0.750			
0.1848	11825.42	4.0730	4.0730	0.7762	7.48	1.51	0.750			
0.1871	11975.49	4.0700	4.0701	0.7807	7.48	1.51	0.750			
0.1894	12124.21	4.0670	4.0672	0.7802	7.47	1.50	0.750			
0.1918	12273.46	4.0640	4.0640	0.7817	7.47	1.50	0.750			
0.1941	12423.42	4.0610	4.0611	0.7839	7.46	1.49	0.750			
0.1965	12575.15	4.0580	4.0580	0.7907	7.45	1.48	0.750			
0.1989	12729.76	4.0550	4.0550	0.7996	7.44	1.47	0.750			
0.2013	12881.02	4.0520	4.0521	0.7983	7.44	1.47	0.750			
0.2037	13034.54	4.0490	4.0490	0.8030	7.43	1.46	0.750			
0.2061	13190.58	4.0460	4.0460	0.8021	7.42	1.45	0.750			
0.2085	13344.34	4.0430	4.0430	0.7998	7.41	1.44	0.750			
0.2109	13496.85	4.0400	4.0401	0.8012	7.40	1.43	0.750			
0.2133	13650.52	4.0370	4.0370	0.8017	7.40	1.43	0.750			
0.2157	13803.73	4.0340	4.0338	0.8049	7.39	1.42	0.750			
0.2181	13957.98	4.0310	4.0311	0.8116	7.38	1.41	0.750			
0.2205	14114.68	4.0280	4.0280	0.8147	7.37	1.40	0.750			
0.2230	14272.99	4.0250	4.0250	0.8255	7.37	1.40	0.750			
0.2255	14429.88	4.0220	4.0221	0.8261	7.36	1.39	0.750			
0.2280	14590.21	4.0190	4.0187	0.8359	7.35	1.38	0.750			
0.2305	14751.80	4.0160	4.0160	0.8419	7.34	1.37	0.750			
0.2330	14914.12	4.0130	4.0130	0.8418	7.33	1.36	0.750			
0.2356	15077.54	4.0100	4.0100	0.8444	7.33	1.36	0.750			
0.2381	15238.74	4.0070	4.0070	0.8432	7.32	1.35	0.750			
0.2406	15400.30	4.0040	4.0039	0.8448	7.31	1.34	0.750			
0.2432	15563.89	4.0010	4.0010	0.8451	7.30	1.33	0.750			
0.2457	15725.51	3.9980	3.9980	0.8491	7.29	1.32	0.750			
0.2483	15889.04	3.9950	3.9951	0.8556	7.28	1.31	0.750			
0.2508	16053.37	3.9920	3.9920	0.8577	7.27	1.30	0.750			
0.2534	16218.61	3.9890	3.9891	0.8646	7.26	1.29	0.750			
0.2560	16385.70	3.9860	3.9861	0.8641	7.25	1.28	0.750			
0.2586	16552.01	3.9830	3.9830	0.8691	7.24	1.27	0.750			
0.2612	16719.49	3.9800	3.9800	0.8727	7.23	1.26	0.750			
0.2638	16884.71	3.9770	3.9770	0.8762	7.22	1.25	0.750			
0.2665	17054.03	3.9740	3.9740	0.8844	7.21	1.24	0.750			
0.2692	17225.80	3.9710	3.9710	0.8875	7.20	1.23	0.750			
0.2718	17397.43	3.9680	3.9680	0.8908	7.19	1.22	0.750			
0.2745	17569.21	3.9650	3.9651	0.8964	7.18	1.21	0.750			
0.2772	17741.39	3.9620	3.9620	0.8973	7.17	1.20	0.750			
0.2799	17913.38	3.9590	3.9590	0.8966	7.16	1.19	0.750			
0.2826	18084.32	3.9560	3.9560	0.8989	7.15	1.18	0.750			
0.2853	18257.71	3.9530	3.9531	0.9078	7.14	1.17	0.750			
0.2880	18434.53	3.9500	3.9500	0.9136	7.12	1.15	0.750			
0.2908	18608.96	3.9470	3.9469	0.9188	7.11	1.14	0.750			
0.2935	18786.94	3.9440	3.9440	0.9185	7.10	1.13	0.750			
0.2963	18962.58	3.9410	3.9410	0.9322	7.09	1.12	0.750			
0.2991	19142.46	3.9380	3.9380	0.9409	7.08	1.11	0.750			
0.3019	19323.59	3.9350	3.9349	0.9472	7.07	1.10	0.750			
0.3048	19508.10	3.9320	3.9321	0.9495	7.06	1.09	0.750			
0.3077	19692.44	3.9290	3.9290	0.9599	7.06	1.09	0.750			
0.3106	19875.38	3.9260	3.9260	0.9668	7.05	1.08	0.750			
0.3135	20062.31	3.9230	3.9231	0.9745	7.04	1.07	0.750			
0.3164	20248.13	3.9200	3.9201	0.9777	7.03	1.06	0.750			
0.3193	20436.94	3.9170	3.9170	0.9885	7.02	1.05	0.750			
0.3223	20627.66	3.9140	3.9141	1.0014	7.01	1.04	0.750			
0.3253	20822.07	3.9110	3.9110	1.0096	7.00	1.03	0.750			
0.3284	21018.92	3.9080	3.9080	1.0143	6.99	1.02	0.750			
0.3314	21212.33	3.9050	3.9051	1.0230	6.98	1.01	0.750			
0.3345	21410.06	3.9020	3.9020	1.0345	6.97	1.00	0.750			
0.3376	21608.24	3.8990	3.8990	1.0473	6.96	0.99	0.750			
0.3408	21810.26	3.8960	3.8958	1.0553	6.95	0.98	0.750			
0.3440	22013.79	3.8930	3.8931	1.0675	6.94	0.97	0.750			
0.3472	22222.75	3.8900	3.8900	1.0840	6.92	0.95	0.750			
0.3505	22431.62	3.8870	3.8870	1.0924	6.91	0.94	0.750			
0.3538	22642.31	3.8840	3.8840	1.0922	6.90	0.93	0.750			
0.3571	22852.77	3.8810	3.8810	1.1058	6.89	0.92	0.750			
0.3604	23063.74	3.8780	3.8781	1.1173	6.88	0.91	0.750			
0.3638	23280.19	3.8750	3.8750	1.1333	6.87	0.90	0.750			
0.3672	23498.18	3.8720	3.8720	1.1442	6.86	0.89	0.750			
0.3706	23719.22	3.8690	3.8691	1.1609	6.85	0.88	0.750			
0.3741	23942.95	3.8660	3.8661	1.1821	6.84	0.87	0.750			
0.3778	24176.87	3.8630	3.8627	1.1880	6.83	0.86	0.750			
0.3813	24401.80	3.8600	3.8601	1.2046	6.81	0.84	0.750			
0.3849	24634.71	3.8570	3.8571	1.2228	6.80	0.83	0.750			
0.3886	24873.01	3.8540	3.8541	1.2447	6.78	0.81	0.750			
0.3924	25112.29	3.8510	3.8509	1.2620	6.76	0.79	0.750			
0.3961	25352.81	3.8480	3.8481	1.2997	6.75	0.78	0.750			
0.4001	25608.99	3.8450	3.8451	1.3287	6.74	0.77	0.750			
0.4042	25870.04	3.8420	3.8420	1.3766	6.73	0.76	0.750			
0.4084	26135.15	3.8390	3.8386	1.3894	6.72	0.75	0.750	0.387	0.901	
0.4126	26409.54	3.8360	3.8361	1.4115	6.71	0.74	0.750			
0.4169	26684.34	3.8330	3.8331	1.4450	6.70	0.73	0.750			
0.4212	26958.72	3.8300	3.8301	1.4604	6.68	0.71	0.750			
0.4256	27238.83	3.8270	3.8270	1.4732	6.67	0.70	0.750			
0.4301	27524.69	3.8240	3.8241	1.5022	6.65	0.68	0.750			
0.4345	27810.57	3.8210	3.8209	1.5221	6.63	0.66	0.750			
0.4392	28105.71	3.8180	3.8182	1.5577	6.62	0.65	0.750			
0.4439	28407.99	3.8150	3.8151	1.5748	6.60	0.63	0.750			
0.4486	28713.54	3.8120	3.8120	1.6262	6.58	0.61	0.750			
0.4536	29031.13	3.8090	3.8089	1.6450	6.57	0.60	0.750			
0.4586	29352.40	3.8060	3.8060	1.6824	6.55	0.58	0.750			
0.4638	29683.24	3.8030	3.8030	1.7255	6.53	0.56	0.750			
0.4690	30014.53	3.8000	3.7998	1.7417	6.51	0.54	0.750			
0.4743	30355.07	3.7970	3.7970	1.7639	6.50	0.53	0.750			
0.4795	30688.63	3.7940	3.7940	1.8085	6.48	0.51	0.750			
0.4850	31040.97	3.7910	3.7912	1.8549	6.46	0.49	0.750			
0.4907	31402.98	3.7880	3.7878	1.8647	6.43	0.46	0.750			
0.4963	31765.52	3.7850	3.7850	1.9166	6.42	0.45	0.750			
0.5021	32136.13	3.7820	3.7818	1.9143	6.41	0.44	0.750			
0.5078	32496.66	3.7790	3.7788	1.9209	6.39	0.42	0.750			
0.5135	32862.32	3.7760	3.7762	1.9408	6.36	0.39	0.750			
0.5193	33236.63	3.7730	3.7730	1.9593	6.34	0.37	0.750			
0.5250	33603.16	3.7700	3.7698	1.9661	6.32	0.35	0.750			
0.5311	33990.91	3.7670	3.7666	1.9819	6.30	0.33	0.750			
0.5370	34366.17	3.7640	3.7640	1.9760	6.28	0.31	0.750			
0.5431	34758.15	3.7610	3.7610	2.0393	6.26	0.29	0.750			
0.5491	35141.70	3.7580	3.7579	2.0224	6.24	0.27	0.750			
0.5554	35543.91	3.7550	3.7551	2.0726	6.22	0.25	0.750			
0.5618	35953.53	3.7520	3.7521	2.1333	6.20	0.23	0.750			
0.5681	36355.93	3.7490	3.7492	2.1473	6.18	0.21	0.750			
0.5746	36772.29	3.7460	3.7460	2.2223	6.16	0.19	0.750			
0.5813	37202.42	3.7430	3.7430	2.2728	6.14	0.17	0.750			
0.5882	37646.15	3.7400	3.7401	2.4314	6.11	0.14	0.750			
0.5955	38112.78	3.7370	3.7369	2.4193	6.08	0.11	0.750			
0.6028	38578.41	3.7340	3.7338	2.4633	6.05	0.08	0.750			
0.6103	39059.59	3.7310	3.7313	2.4553	6.04	0.07	0.750			
0.6176	39524.72	3.7280	3.7283	2.4900	6.04	0.07	0.750			
0.6249	39994.38	3.7250	3.7251	2.4323	6.02	0.05	0.750			
0.6326	40483.37	3.7220	3.7219	2.4181	6.00	0.03	0.750			
0.6399	40952.43	3.7190	3.7188	2.3341	5.99	0.02	0.750			
0.6466	41384.67	3.7160	3.7158	2.1489	5.98	0.01	0.750			
0.6527	41774.43	3.7130	3.7130	1.9296	5.97	0.00	0.750			
0.6584	42136.55	3.7100	3.7100	1.7946	5.96	-0.01	0.750			
0.6636	42467.92	3.7070	3.7070	1.6167	5.95	-0.02	0.750			
0.6679	42744.86	3.7040	3.7041	1.4236	5.95	-0.02	0.750			
0.6719	43004.26	3.7010	3.7013	1.2784	5.95	-0.02	0.750			
0.6754	43226.26	3.6980	3.6980	1.1674	5.95	-0.02	0.750			
0.6786	43427.81	3.6950	3.6948	1.0585	5.95	-0.02	0.750			
0.6816	43620.67	3.6920	3.6920	0.9988	5.95	-0.02	0.750			
0.6844	43804.72	3.6890	3.6891	0.9591	5.94	-0.03	0.750			
0.6873	43984.39	3.6860	3.6860	0.9248	5.94	-0.03	0.750			
0.6900	44157.89	3.6830	3.6829	0.8913	5.94	-0.03	0.750			
0.6926	44325.37	3.6800	3.6800	0.8627	5.94	-0.03	0.750			
0.6952	44490.45	3.6770	3.6770	0.8280	5.94	-0.03	0.750			
0.6976	44647.32	3.6740	3.6740	0.8007	5.95	-0.02	0.750			
0.7000	44797.37	3.6710	3.6711	0.7711	5.95	-0.02	0.750			
0.7022	44940.85	3.6680	3.6680	0.7365	5.95	-0.02	0.750			
0.7044	45080.21	3.6650	3.6650	0.7044	5.95	-0.02	0.750			
0.7064	45212.27	3.6620	3.6620	0.6715	5.96	-0.01	0.750			
0.7084	45339.06	3.6590	3.6591	0.6347	5.96	-0.01	0.750			
0.7103	45461.23	3.6560	3.6559	0.5969	5.96	-0.01	0.750			
0.7120	45568.75	3.6530	3.6530	0.5569	5.96	-0.01	0.750			
0.7136	45671.63	3.6500	3.6500	0.5207	5.97	-0.00	0.750			
0.7151	45767.33	3.6470	3.6468	0.4871	5.97	-0.00	0.750			
0.7165	45857.78	3.6440	3.6439	0.4527	5.97	0.00	0.750			
0.7178	45941.50	3.6410	3.6411	0.4179	5.97	0.00	0.750			
0.7191	46019.24	3.6380	3.6382	0.3854	5.98	0.01	0.750			
0.7202	46090.80	3.6350	3.6349	0.3532	5.98	0.01	0.750			
0.7212	46153.87	3.6320	3.6320	0.3150	5.98	0.01	0.750			
0.7220	46210.27	3.6290	3.6290	0.2798	5.98	0.01	0.750			
0.7228	46261.93	3.6260	3.6260	0.2411	5.98	0.01	0.750			
0.7235	46306.49	3.6230	3.6229	0.2081	5.98	0.01	0.750			
0.7241	46342.86	3.6200	3.6200	0.1687	5.98	0.01	0.750			
0.7246	46372.23	3.6170	3.6173	0.1290	5.98	0.01	0.750			
0.7249	46393.25	3.6140	3.6146	0.0872	5.99	0.02	0.750			
0.7251	46406.78	3.6110	3.6114	0.0427	5.99	0.02	0.750			
0.7252	46410.70	3.6080	3.6101	-0.0018	5.99	0.02	0.750			
