Ah_balance (normalized)	Ah_balance (mAh)	Voltage - fit (V)	Voltage -  interpolate (V)	dQ/dV (1/V)	Temperature (°C)	Temperature - diff (°C)	Current (C)	R_DC 0ms (mOhm)	R_DC 50ms (mOhm)	R_DC 50 ms PEC (mOhm)
0.0940	6015.94	4.0010	4.0006	-0.0470	5.98	0.01	-0.750			
0.0942	6030.07	3.9980	3.9973	-0.0816	5.98	0.01	-0.750			
0.0945	6047.86	3.9950	3.9948	-0.1091	5.98	0.01	-0.750			
0.0949	6072.14	3.9920	3.9921	-0.1363	5.98	0.01	-0.750			
0.0953	6100.89	3.9890	3.9890	-0.1632	5.98	0.01	-0.750			
0.0959	6135.02	3.9860	3.9859	-0.1864	5.98	0.01	-0.750			
0.0965	6174.93	3.9830	3.9830	-0.2105	5.98	0.01	-0.750			
0.0971	6217.23	3.9800	3.9802	-0.2336	5.98	0.01	-0.750			
0.0979	6263.88	3.9770	3.9770	-0.2564	5.98	0.01	-0.750			
0.0987	6315.22	3.9740	3.9739	-0.2802	5.98	0.01	-0.750			
0.0995	6370.27	3.9710	3.9709	-0.3056	5.98	0.01	-0.750			
0.1005	6432.47	3.9680	3.9679	-0.3288	5.97	0.00	-0.750			
0.1015	6498.46	3.9650	3.9650	-0.3486	5.97	0.00	-0.750			
0.1026	6568.45	3.9620	3.9622	-0.3702	5.97	0.00	-0.750			
0.1038	6641.15	3.9590	3.9590	-0.3921	5.97	-0.00	-0.750			
0.1050	6718.61	3.9560	3.9559	-0.4118	5.97	-0.00	-0.750			
0.1062	6799.02	3.9530	3.9529	-0.4307	5.96	-0.01	-0.750			
0.1075	6882.88	3.9500	3.9500	-0.4490	5.96	-0.01	-0.750			
0.1090	6973.69	3.9470	3.9471	-0.4711	5.96	-0.01	-0.750			
0.1104	7065.97	3.9440	3.9440	-0.4929	5.96	-0.01	-0.750			
0.1119	7162.26	3.9410	3.9409	-0.5104	5.96	-0.01	-0.750			
0.1135	7262.02	3.9380	3.9379	-0.5257	5.95	-0.02	-0.750			
0.1151	7364.92	3.9350	3.9352	-0.5456	5.95	-0.02	-0.750			
0.1167	7471.72	3.9320	3.9319	-0.5609	5.95	-0.02	-0.750			
0.1185	7582.98	3.9290	3.9289	-0.5674	5.95	-0.02	-0.750			
0.1202	7691.87	3.9260	3.9260	-0.5817	5.95	-0.02	-0.750			
0.1219	7804.07	3.9230	3.9232	-0.5930	5.95	-0.02	-0.750			
0.1238	7921.23	3.9200	3.9198	-0.6058	5.95	-0.02	-0.750			
0.1256	8038.56	3.9170	3.9169	-0.6169	5.95	-0.02	-0.750			
0.1275	8157.37	3.9140	3.9142	-0.6238	5.95	-0.02	-0.750			
0.1293	8277.46	3.9110	3.9109	-0.6404	5.95	-0.02	-0.750			
0.1313	8404.70	3.9080	3.9080	-0.6525	5.96	-0.01	-0.750			
0.1333	8528.55	3.9050	3.9049	-0.6609	5.96	-0.01	-0.750			
0.1353	8659.01	3.9020	3.9019	-0.6604	5.96	-0.01	-0.750			
0.1373	8789.06	3.8990	3.8992	-0.6681	5.96	-0.01	-0.750			
0.1393	8916.92	3.8960	3.8958	-0.6674	5.97	-0.00	-0.750			
0.1413	9045.63	3.8930	3.8928	-0.6665	5.97	0.00	-0.750			
0.1433	9170.83	3.8900	3.8898	-0.6652	5.97	0.00	-0.750			
0.1452	9295.50	3.8870	3.8871	-0.6728	5.98	0.01	-0.750			
0.1473	9428.07	3.8840	3.8840	-0.6840	5.98	0.01	-0.750			
0.1494	9560.60	3.8810	3.8809	-0.6885	5.98	0.01	-0.750			
0.1515	9693.03	3.8780	3.8778	-0.6866	5.99	0.02	-0.750			
0.1535	9825.82	3.8750	3.8754	-0.6898	5.99	0.02	-0.750			
0.1556	9958.31	3.8720	3.8719	-0.6928	5.99	0.02	-0.750			
0.1577	10091.71	3.8690	3.8689	-0.6871	6.00	0.03	-0.750			
0.1597	10221.44	3.8660	3.8660	-0.6904	6.00	0.03	-0.750			
0.1618	10357.05	3.8630	3.8630	-0.6985	6.00	0.03	-0.750			
0.1639	10491.83	3.8600	3.8599	-0.7023	6.01	0.04	-0.750			
0.1660	10627.16	3.8570	3.8572	-0.7044	6.01	0.04	-0.750			
0.1682	10761.87	3.8540	3.8541	-0.7060	6.02	0.05	-0.750			
0.1703	10896.27	3.8510	3.8510	-0.7132	6.03	0.06	-0.750			
0.1724	11034.08	3.8480	3.8479	-0.7067	6.03	0.06	-0.750			
0.1746	11173.38	3.8450	3.8450	-0.7129	6.04	0.07	-0.750			
0.1767	11311.72	3.8420	3.8419	-0.7134	6.05	0.08	-0.750			
0.1789	11447.34	3.8390	3.8391	-0.7113	6.05	0.08	-0.750			
0.1810	11583.53	3.8360	3.8359	-0.7138	6.05	0.08	-0.750			
0.1831	11719.26	3.8330	3.8330	-0.7170	6.06	0.09	-0.750			
0.1853	11856.34	3.8300	3.8299	-0.7156	6.06	0.09	-0.750			
0.1875	11998.82	3.8270	3.8270	-0.7138	6.07	0.10	-0.750			
0.1896	12136.32	3.8240	3.8241	-0.7134	6.07	0.10	-0.750			
0.1917	12271.26	3.8210	3.8209	-0.7118	6.07	0.10	-0.750			
0.1938	12404.42	3.8180	3.8179	-0.7107	6.08	0.11	-0.750			
0.1960	12540.85	3.8150	3.8148	-0.7162	6.09	0.12	-0.750			
0.1981	12677.70	3.8120	3.8121	-0.7169	6.10	0.13	-0.750			
0.2003	12821.31	3.8090	3.8089	-0.7255	6.11	0.14	-0.750			
0.2025	12961.77	3.8060	3.8062	-0.7274	6.12	0.15	-0.750			
0.2047	13099.35	3.8030	3.8029	-0.7227	6.12	0.15	-0.750			
0.2068	13237.17	3.8000	3.7998	-0.7251	6.13	0.16	-0.750			
0.2090	13376.70	3.7970	3.7970	-0.7327	6.13	0.16	-0.750			
0.2112	13518.49	3.7940	3.7940	-0.7319	6.14	0.17	-0.750			
0.2135	13664.49	3.7910	3.7908	-0.7298	6.15	0.18	-0.750			
0.2157	13803.09	3.7880	3.7884	-0.7273	6.15	0.18	-0.750			
0.2178	13940.24	3.7850	3.7850	-0.7244	6.16	0.19	-0.750			
0.2199	14076.67	3.7820	3.7819	-0.7292	6.16	0.19	-0.750			
0.2221	14213.25	3.7790	3.7790	-0.7310	6.17	0.20	-0.750			
0.2243	14357.50	3.7760	3.7759	-0.7477	6.18	0.21	-0.750			
0.2266	14501.98	3.7730	3.7724	-0.7523	6.19	0.22	-0.750			
0.2289	14650.73	3.7700	3.7701	-0.7608	6.19	0.22	-0.750			
0.2312	14795.94	3.7670	3.7670	-0.7560	6.20	0.23	-0.750			
0.2335	14941.53	3.7640	3.7640	-0.7608	6.21	0.24	-0.750			
0.2357	15085.69	3.7610	3.7610	-0.7500	6.21	0.24	-0.750			
0.2381	15235.73	3.7580	3.7580	-0.7525	6.22	0.25	-0.750			
0.2403	15379.14	3.7550	3.7553	-0.7568	6.23	0.26	-0.750			
0.2426	15523.52	3.7520	3.7520	-0.7643	6.24	0.27	-0.750			
0.2448	15668.84	3.7490	3.7491	-0.7717	6.24	0.27	-0.750			
0.2471	15816.88	3.7460	3.7459	-0.7773	6.25	0.28	-0.750			
0.2495	15967.78	3.7430	3.7432	-0.7906	6.26	0.29	-0.750			
0.2519	16122.87	3.7400	3.7399	-0.7913	6.27	0.30	-0.750			
0.2544	16279.65	3.7370	3.7368	-0.7930	6.27	0.30	-0.750			
0.2566	16423.50	3.7340	3.7342	-0.7977	6.28	0.31	-0.750			
0.2591	16579.65	3.7310	3.7310	-0.7966	6.28	0.31	-0.750			
0.2615	16733.45	3.7280	3.7277	-0.7974	6.29	0.32	-0.750			
0.2639	16886.74	3.7250	3.7250	-0.8029	6.30	0.33	-0.750			
0.2662	17038.91	3.7220	3.7221	-0.8114	6.30	0.33	-0.750			
0.2687	17195.68	3.7190	3.7189	-0.8239	6.31	0.34	-0.750			
0.2712	17354.59	3.7160	3.7159	-0.8271	6.31	0.34	-0.750			
0.2736	17510.08	3.7130	3.7131	-0.8339	6.32	0.35	-0.750			
0.2762	17677.09	3.7100	3.7099	-0.8500	6.33	0.36	-0.750			
0.2788	17841.50	3.7070	3.7069	-0.8547	6.33	0.36	-0.750			
0.2813	18004.89	3.7040	3.7040	-0.8590	6.34	0.37	-0.750			
0.2839	18171.44	3.7010	3.7010	-0.8516	6.34	0.37	-0.750			
0.2865	18333.89	3.6980	3.6981	-0.8550	6.34	0.37	-0.750			
0.2891	18499.43	3.6950	3.6950	-0.8664	6.35	0.38	-0.750			
0.2916	18662.56	3.6920	3.6919	-0.8683	6.35	0.38	-0.750			
0.2943	18832.30	3.6890	3.6888	-0.8844	6.36	0.39	-0.750			
0.2969	19004.69	3.6860	3.6860	-0.8855	6.37	0.40	-0.750			
0.2996	19175.76	3.6830	3.6829	-0.8886	6.37	0.40	-0.750			
0.3023	19348.74	3.6800	3.6800	-0.9005	6.38	0.41	-0.750			
0.3049	19515.73	3.6770	3.6770	-0.9072	6.38	0.41	-0.750			
0.3077	19692.59	3.6740	3.6738	-0.9127	6.39	0.42	-0.750			
0.3104	19866.00	3.6710	3.6710	-0.9230	6.40	0.43	-0.750			
0.3133	20049.73	3.6680	3.6678	-0.9411	6.40	0.43	-0.750			
0.3161	20230.93	3.6650	3.6653	-0.9417	6.41	0.44	-0.750			
0.3189	20411.68	3.6620	3.6618	-0.9544	6.41	0.44	-0.750			
0.3218	20593.73	3.6590	3.6590	-0.9626	6.42	0.45	-0.750			
0.3247	20781.01	3.6560	3.6558	-0.9713	6.42	0.45	-0.750			
0.3276	20967.26	3.6530	3.6532	-0.9760	6.42	0.45	-0.750			
0.3306	21156.27	3.6500	3.6500	-0.9938	6.42	0.45	-0.750			
0.3336	21352.50	3.6470	3.6471	-1.0013	6.43	0.46	-0.750			
0.3366	21544.85	3.6440	3.6437	-0.9953	6.43	0.46	-0.750			
0.3396	21732.41	3.6410	3.6410	-0.9967	6.44	0.47	-0.750			
0.3426	21925.71	3.6380	3.6379	-1.0132	6.44	0.47	-0.750			
0.3456	22121.46	3.6350	3.6348	-1.0225	6.44	0.47	-0.750			
0.3487	22317.93	3.6320	3.6319	-1.0193	6.45	0.48	-0.750			
0.3518	22512.18	3.6290	3.6290	-1.0238	6.45	0.48	-0.750			
0.3550	22717.45	3.6260	3.6259	-1.0456	6.45	0.48	-0.750			
0.3581	22919.14	3.6230	3.6228	-1.0411	6.46	0.49	-0.750			
0.3612	23113.64	3.6200	3.6200	-1.0410	6.46	0.49	-0.750			
0.3643	23312.05	3.6170	3.6170	-1.0447	6.47	0.50	-0.750			
0.3675	23517.44	3.6140	3.6139	-1.0648	6.47	0.50	-0.750			
0.3707	23724.08	3.6110	3.6109	-1.0749	6.47	0.50	-0.750			
0.3739	23928.82	3.6080	3.6080	-1.0815	6.47	0.50	-0.750			
0.3771	24137.49	3.6050	3.6049	-1.0937	6.47	0.50	-0.750			
0.3805	24352.76	3.6020	3.6019	-1.1147	6.47	0.50	-0.750			
0.3839	24567.28	3.5990	3.5990	-1.1189	6.48	0.51	-0.750			
0.3872	24783.78	3.5960	3.5959	-1.1272	6.48	0.51	-0.750			
0.3906	24997.59	3.5930	3.5933	-1.1486	6.49	0.52	-0.750			
0.3942	25227.85	3.5900	3.5899	-1.1631	6.49	0.52	-0.750			
0.3977	25454.52	3.5870	3.5867	-1.1577	6.50	0.53	-0.750			
0.4012	25677.43	3.5840	3.5838	-1.1614	6.50	0.53	-0.750			
0.4047	25902.28	3.5810	3.5809	-1.1774	6.50	0.53	-0.750	0.534	1.100	
0.4082	26127.12	3.5780	3.5777	-1.1706	6.50	0.53	-0.750			
0.4117	26347.40	3.5750	3.5749	-1.1649	6.51	0.54	-0.750			
0.4151	26566.14	3.5720	3.5724	-1.1785	6.51	0.54	-0.750			
0.4188	26805.09	3.5690	3.5687	-1.2134	6.52	0.55	-0.750			
0.4225	27040.48	3.5660	3.5659	-1.2062	6.52	0.55	-0.750			
0.4261	27268.54	3.5630	3.5629	-1.2668	6.53	0.56	-0.750			
0.4299	27516.74	3.5600	3.5598	-1.3103	6.53	0.56	-0.750			
0.4340	27775.45	3.5570	3.5563	-1.3333	6.54	0.57	-0.750			
0.4380	28031.02	3.5540	3.5531	-1.3640	6.55	0.58	-0.750			
0.4421	28295.66	3.5510	3.5536	-1.3772	6.55	0.58	-0.750			
0.4464	28572.00	3.5480	3.5480	-1.4006	6.55	0.58	-0.750			
0.4505	28834.81	3.5450	3.5448	-1.4082	6.55	0.58	-0.750			
0.4549	29112.34	3.5420	3.5420	-1.4354	6.55	0.58	-0.750			
0.4590	29379.00	3.5390	3.5389	-1.4130	6.55	0.58	-0.750			
0.4634	29655.74	3.5360	3.5359	-1.4363	6.55	0.58	-0.750			
0.4676	29928.15	3.5330	3.5329	-1.4349	6.55	0.58	-0.750			
0.4721	30211.67	3.5300	3.5298	-1.4498	6.56	0.59	-0.750			
0.4765	30493.11	3.5270	3.5266	-1.4576	6.57	0.60	-0.750			
0.4808	30771.93	3.5240	3.5240	-1.4476	6.58	0.61	-0.750			
0.4852	31053.06	3.5210	3.5208	-1.4493	6.59	0.62	-0.750			
0.4895	31328.52	3.5180	3.5182	-1.4429	6.61	0.64	-0.750			
0.4937	31597.49	3.5150	3.5149	-1.4285	6.61	0.64	-0.750			
0.4981	31875.49	3.5120	3.5120	-1.4344	6.62	0.65	-0.750			
0.5024	32156.47	3.5090	3.5091	-1.4518	6.62	0.65	-0.750			
0.5068	32433.94	3.5060	3.5059	-1.4597	6.63	0.66	-0.750			
0.5113	32721.64	3.5030	3.5029	-1.4671	6.64	0.67	-0.750			
0.5157	33005.56	3.5000	3.5003	-1.4713	6.65	0.68	-0.750			
0.5201	33288.60	3.4970	3.4971	-1.4637	6.66	0.69	-0.750			
0.5245	33568.98	3.4940	3.4939	-1.4769	6.66	0.69	-0.750			
0.5289	33851.63	3.4910	3.4912	-1.4778	6.67	0.70	-0.750			
0.5334	34136.21	3.4880	3.4878	-1.4845	6.68	0.71	-0.750			
0.5378	34419.53	3.4850	3.4848	-1.4863	6.69	0.72	-0.750			
0.5423	34704.61	3.4820	3.4821	-1.4830	6.69	0.72	-0.750			
0.5468	34998.38	3.4790	3.4789	-1.4922	6.70	0.73	-0.750			
0.5513	35283.42	3.4760	3.4759	-1.4934	6.71	0.74	-0.750			
0.5557	35566.52	3.4730	3.4730	-1.4745	6.72	0.75	-0.750			
0.5603	35856.89	3.4700	3.4698	-1.4763	6.73	0.76	-0.750			
0.5647	36140.10	3.4670	3.4670	-1.4668	6.75	0.78	-0.750			
0.5690	36418.64	3.4640	3.4641	-1.4540	6.76	0.79	-0.750			
0.5734	36697.26	3.4610	3.4609	-1.4532	6.78	0.81	-0.750			
0.5777	36972.93	3.4580	3.4580	-1.4527	6.79	0.82	-0.750			
0.5820	37247.29	3.4550	3.4550	-1.4425	6.81	0.84	-0.750			
0.5864	37528.17	3.4520	3.4520	-1.4449	6.82	0.85	-0.750			
0.5908	37814.06	3.4490	3.4491	-1.4413	6.84	0.87	-0.750			
0.5951	38087.89	3.4460	3.4458	-1.4199	6.85	0.88	-0.750			
0.5994	38359.79	3.4430	3.4432	-1.3997	6.86	0.89	-0.750			
0.6035	38626.23	3.4400	3.4400	-1.3836	6.87	0.90	-0.750			
0.6077	38890.07	3.4370	3.4369	-1.3613	6.90	0.93	-0.750			
0.6117	39150.44	3.4340	3.4340	-1.3393	6.93	0.96	-0.750			
0.6157	39403.90	3.4310	3.4312	-1.3279	6.95	0.98	-0.750			
0.6197	39660.07	3.4280	3.4280	-1.3106	6.97	1.00	-0.750			
0.6236	39908.51	3.4250	3.4248	-1.2798	6.98	1.01	-0.750			
0.6274	40151.87	3.4220	3.4222	-1.2554	7.00	1.03	-0.750			
0.6311	40391.91	3.4190	3.4190	-1.2374	7.02	1.05	-0.750			
0.6348	40627.40	3.4160	3.4159	-1.2101	7.04	1.07	-0.750			
0.6384	40859.49	3.4130	3.4129	-1.1680	7.06	1.09	-0.750			
0.6418	41077.56	3.4100	3.4101	-1.1345	7.08	1.11	-0.750			
0.6453	41297.00	3.4070	3.4070	-1.1010	7.09	1.12	-0.750			
0.6485	41503.14	3.4040	3.4040	-1.0658	7.11	1.14	-0.750			
0.6515	41698.27	3.4010	3.4009	-1.0358	7.12	1.15	-0.750			
0.6546	41894.94	3.3980	3.3978	-1.0239	7.14	1.17	-0.750			
0.6577	42090.24	3.3950	3.3950	-1.0137	7.15	1.18	-0.750			
0.6607	42286.73	3.3920	3.3919	-1.0031	7.17	1.20	-0.750			
0.6637	42479.69	3.3890	3.3890	-0.9809	7.18	1.21	-0.750			
0.6667	42669.79	3.3860	3.3860	-0.9635	7.20	1.23	-0.750			
0.6696	42852.47	3.3830	3.3829	-0.9364	7.21	1.24	-0.750			
0.6723	43029.61	3.3800	3.3799	-0.9045	7.23	1.26	-0.750			
0.6750	43197.41	3.3770	3.3770	-0.8696	7.24	1.27	-0.750			
0.6776	43364.83	3.3740	3.3742	-0.8487	7.26	1.29	-0.750			
0.6801	43523.61	3.3710	3.3709	-0.8256	7.27	1.30	-0.750			
0.6825	43677.27	3.3680	3.3680	-0.8118	7.29	1.32	-0.750			
0.6848	43829.16	3.3650	3.3650	-0.7945	7.30	1.33	-0.750			
0.6872	43981.86	3.3620	3.3620	-0.7784	7.31	1.34	-0.750			
0.6896	44132.74	3.3590	3.3590	-0.7703	7.33	1.36	-0.750			
0.6919	44280.09	3.3560	3.3560	-0.7533	7.34	1.37	-0.750			
0.6941	44424.04	3.3530	3.3529	-0.7357	7.35	1.38	-0.750			
0.6963	44563.15	3.3500	3.3499	-0.7149	7.37	1.40	-0.750			
0.6984	44696.02	3.3470	3.3471	-0.6938	7.38	1.41	-0.750			
0.7005	44829.93	3.3440	3.3439	-0.6790	7.39	1.42	-0.750			
0.7025	44958.36	3.3410	3.3411	-0.6626	7.41	1.44	-0.750			
0.7044	45081.88	3.3380	3.3379	-0.6442	7.42	1.45	-0.750			
0.7063	45204.40	3.3350	3.3350	-0.6319	7.43	1.46	-0.750			
0.7082	45324.79	3.3320	3.3319	-0.6190	7.44	1.47	-0.750			
0.7100	45441.31	3.3290	3.3291	-0.6071	7.46	1.49	-0.750			
0.7118	45557.08	3.3260	3.3260	-0.5950	7.47	1.50	-0.750			
0.7136	45669.78	3.3230	3.3230	-0.5710	7.48	1.51	-0.750			
