Ah_balance (normalized)	Ah_balance (mAh)	Voltage - fit (V)	Voltage -  interpolate (V)	dQ/dV (1/V)	Temperature (°C)	Temperature - diff (°C)	Current (C)	R_DC 0ms (mOhm)	R_DC 50ms (mOhm)	R_DC 50 ms PEC (mOhm)
0.1770	11329.92	4.0810	4.0810	0.8023	7.50	1.51	0.750			
0.1794	11481.61	4.0780	4.0780	0.7860	7.49	1.50	0.750			
0.1817	11631.76	4.0750	4.0751	0.7899	7.49	1.50	0.750			
0.1842	11785.62	4.0720	4.0719	0.7926	7.48	1.49	0.750			
0.1865	11938.09	4.0690	4.0689	0.7923	7.48	1.49	0.750			
0.1889	12090.49	4.0660	4.0662	0.7888	7.47	1.48	0.750			
0.1913	12242.52	4.0630	4.0630	0.7956	7.46	1.47	0.750			
0.1937	12394.01	4.0600	4.0600	0.7988	7.46	1.47	0.750			
0.1960	12545.26	4.0570	4.0570	0.7987	7.45	1.46	0.750			
0.1984	12699.12	4.0540	4.0541	0.8056	7.45	1.46	0.750			
0.2009	12858.30	4.0510	4.0510	0.8124	7.45	1.46	0.750			
0.2033	13013.75	4.0480	4.0480	0.8155	7.45	1.46	0.750			
0.2058	13170.85	4.0450	4.0451	0.8198	7.45	1.46	0.750			
0.2082	13327.98	4.0420	4.0420	0.8171	7.45	1.46	0.750			
0.2107	13484.54	4.0390	4.0390	0.8202	7.45	1.46	0.750			
0.2132	13642.05	4.0360	4.0360	0.8204	7.45	1.46	0.750			
0.2156	13798.89	4.0330	4.0331	0.8242	7.45	1.46	0.750			
0.2181	13958.71	4.0300	4.0300	0.8333	7.44	1.45	0.750			
0.2206	14116.41	4.0270	4.0271	0.8335	7.44	1.45	0.750			
0.2231	14277.77	4.0240	4.0240	0.8429	7.44	1.45	0.750			
0.2257	14444.71	4.0210	4.0210	0.8383	7.43	1.44	0.750			
0.2282	14603.83	4.0180	4.0178	0.8379	7.43	1.44	0.750			
0.2307	14763.51	4.0150	4.0152	0.8439	7.43	1.44	0.750			
0.2332	14924.29	4.0120	4.0121	0.8410	7.42	1.43	0.750			
0.2357	15086.14	4.0090	4.0090	0.8436	7.42	1.43	0.750			
0.2383	15249.85	4.0060	4.0060	0.8432	7.41	1.42	0.750			
0.2408	15410.95	4.0030	4.0031	0.8469	7.41	1.42	0.750			
0.2434	15574.54	4.0000	4.0000	0.8533	7.41	1.42	0.750			
0.2459	15736.89	3.9970	3.9970	0.8505	7.40	1.41	0.750			
0.2485	15900.98	3.9940	3.9940	0.8560	7.40	1.41	0.750			
0.2511	16067.21	3.9910	3.9910	0.8592	7.39	1.40	0.750			
0.2536	16231.78	3.9880	3.9881	0.8653	7.39	1.40	0.750			
0.2562	16399.67	3.9850	3.9851	0.8717	7.39	1.40	0.750			
0.2588	16565.67	3.9820	3.9818	0.8728	7.38	1.39	0.750			
0.2615	16733.79	3.9790	3.9790	0.8776	7.38	1.39	0.750			
0.2641	16902.42	3.9760	3.9761	0.8822	7.37	1.38	0.750			
0.2668	17072.65	3.9730	3.9730	0.8876	7.36	1.37	0.750			
0.2695	17245.79	3.9700	3.9700	0.8915	7.36	1.37	0.750			
0.2721	17416.03	3.9670	3.9670	0.8890	7.35	1.36	0.750			
0.2748	17587.88	3.9640	3.9641	0.8878	7.35	1.36	0.750			
0.2774	17756.30	3.9610	3.9610	0.8955	7.34	1.35	0.750			
0.2801	17927.57	3.9580	3.9580	0.9011	7.34	1.35	0.750			
0.2828	18099.40	3.9550	3.9550	0.9034	7.33	1.34	0.750			
0.2855	18273.86	3.9520	3.9519	0.9159	7.33	1.34	0.750			
0.2883	18453.36	3.9490	3.9491	0.9164	7.32	1.33	0.750			
0.2911	18629.60	3.9460	3.9460	0.9262	7.31	1.32	0.750			
0.2939	18807.38	3.9430	3.9431	0.9337	7.31	1.32	0.750			
0.2966	18985.58	3.9400	3.9398	0.9377	7.30	1.31	0.750			
0.2995	19167.77	3.9370	3.9370	0.9394	7.29	1.30	0.750			
0.3023	19348.52	3.9340	3.9341	0.9494	7.29	1.30	0.750			
0.3052	19531.88	3.9310	3.9311	0.9608	7.28	1.29	0.750			
0.3081	19717.07	3.9280	3.9281	0.9653	7.27	1.28	0.750			
0.3110	19904.34	3.9250	3.9250	0.9642	7.27	1.28	0.750			
0.3139	20089.07	3.9220	3.9221	0.9715	7.26	1.27	0.750			
0.3168	20275.95	3.9190	3.9191	0.9814	7.25	1.26	0.750			
0.3198	20466.39	3.9160	3.9160	0.9903	7.25	1.26	0.750			
0.3228	20656.04	3.9130	3.9130	0.9848	7.24	1.25	0.750			
0.3257	20844.99	3.9100	3.9101	0.9910	7.23	1.24	0.750			
0.3287	21034.91	3.9070	3.9071	1.0054	7.22	1.23	0.750			
0.3317	21229.57	3.9040	3.9040	1.0189	7.22	1.23	0.750			
0.3348	21424.48	3.9010	3.9008	1.0246	7.21	1.22	0.750			
0.3378	21618.44	3.8980	3.8981	1.0538	7.20	1.21	0.750			
0.3410	21821.53	3.8950	3.8952	1.0864	7.19	1.20	0.750			
0.3443	22036.80	3.8920	3.8919	1.1140	7.19	1.20	0.750			
0.3478	22257.19	3.8890	3.8887	1.1234	7.18	1.19	0.750			
0.3512	22475.82	3.8860	3.8864	1.1329	7.16	1.17	0.750			
0.3547	22697.81	3.8830	3.8832	1.1435	7.15	1.16	0.750			
0.3581	22917.68	3.8800	3.8799	1.1400	7.14	1.15	0.750			
0.3614	23131.73	3.8770	3.8770	1.1350	7.12	1.13	0.750			
0.3647	23343.83	3.8740	3.8740	1.1390	7.11	1.12	0.750			
0.3682	23564.57	3.8710	3.8711	1.1577	7.10	1.11	0.750			
0.3717	23791.90	3.8680	3.8677	1.1756	7.09	1.10	0.750			
0.3752	24015.63	3.8650	3.8651	1.1911	7.08	1.09	0.750			
0.3788	24246.18	3.8620	3.8621	1.2125	7.07	1.08	0.750			
0.3826	24484.65	3.8590	3.8589	1.2271	7.06	1.07	0.750			
0.3862	24719.99	3.8560	3.8559	1.2363	7.05	1.06	0.750			
0.3900	24959.11	3.8530	3.8531	1.2532	7.04	1.05	0.750			
0.3938	25200.93	3.8500	3.8501	1.2723	7.03	1.04	0.750			
0.3976	25448.58	3.8470	3.8468	1.2837	7.02	1.03	0.750			
0.4015	25693.87	3.8440	3.8440	1.2911	7.00	1.01	0.750			
0.4053	25939.62	3.8410	3.8411	1.3264	6.99	1.00	0.750			
0.4093	26196.16	3.8380	3.8378	1.3637	6.97	0.98	0.750			
0.4134	26460.43	3.8350	3.8354	1.3976	6.95	0.96	0.750	0.412	0.932	
0.4178	26737.27	3.8320	3.8321	1.4270	6.93	0.94	0.750			
0.4221	27013.94	3.8290	3.8290	1.4572	6.91	0.92	0.750			
0.4266	27300.29	3.8260	3.8261	1.4757	6.90	0.91	0.750			
0.4310	27581.42	3.8230	3.8231	1.5000	6.88	0.89	0.750			
0.4355	27870.53	3.8200	3.8199	1.5435	6.87	0.88	0.750			
0.4401	28165.07	3.8170	3.8170	1.5720	6.85	0.86	0.750			
0.4449	28475.31	3.8140	3.8141	1.6096	6.84	0.85	0.750			
0.4499	28793.55	3.8110	3.8111	1.6533	6.82	0.83	0.750			
0.4549	29110.52	3.8080	3.8080	1.6946	6.79	0.80	0.750			
0.4600	29439.31	3.8050	3.8046	1.7273	6.77	0.78	0.750			
0.4652	29773.96	3.8020	3.8019	1.7375	6.74	0.75	0.750			
0.4705	30110.67	3.7990	3.7991	1.7670	6.72	0.73	0.750			
0.4759	30459.80	3.7960	3.7961	1.8173	6.69	0.70	0.750			
0.4814	30808.92	3.7930	3.7931	1.8617	6.66	0.67	0.750			
0.4871	31174.59	3.7900	3.7900	1.9016	6.64	0.65	0.750			
0.4929	31544.71	3.7870	3.7869	1.9471	6.61	0.62	0.750			
0.4987	31914.32	3.7840	3.7842	1.9720	6.58	0.59	0.750			
0.5046	32294.72	3.7810	3.7808	2.0353	6.57	0.58	0.750			
0.5107	32687.00	3.7780	3.7780	2.0601	6.54	0.55	0.750			
0.5170	33087.26	3.7750	3.7751	2.0318	6.51	0.52	0.750			
0.5232	33484.38	3.7720	3.7721	2.0712	6.48	0.49	0.750			
0.5293	33874.16	3.7690	3.7688	2.1164	6.45	0.46	0.750			
0.5356	34279.51	3.7660	3.7661	2.1555	6.43	0.44	0.750			
0.5424	34712.63	3.7630	3.7630	2.2142	6.40	0.41	0.750			
0.5489	35127.39	3.7600	3.7600	2.1853	6.38	0.39	0.750			
0.5554	35545.55	3.7570	3.7570	2.2091	6.35	0.36	0.750			
0.5620	35970.77	3.7540	3.7539	2.2625	6.32	0.33	0.750			
0.5689	36412.11	3.7510	3.7509	2.2988	6.30	0.31	0.750			
0.5759	36856.42	3.7480	3.7481	2.3485	6.28	0.29	0.750			
0.5830	37312.04	3.7450	3.7449	2.3693	6.25	0.26	0.750			
0.5902	37769.67	3.7420	3.7421	2.4668	6.22	0.23	0.750			
0.5977	38255.23	3.7390	3.7388	2.5662	6.19	0.20	0.750			
0.6055	38751.56	3.7360	3.7361	2.6265	6.16	0.17	0.750			
0.6135	39265.90	3.7330	3.7330	2.7967	6.14	0.15	0.750			
0.6221	39812.95	3.7300	3.7299	2.8668	6.11	0.12	0.750			
0.6309	40379.93	3.7270	3.7270	2.9293	6.08	0.09	0.750			
0.6395	40927.96	3.7240	3.7239	2.8543	6.06	0.07	0.750			
0.6481	41479.67	3.7210	3.7210	2.8660	6.05	0.06	0.750			
0.6568	42034.86	3.7180	3.7181	2.8330	6.02	0.03	0.750			
0.6654	42585.13	3.7150	3.7150	2.6807	5.99	0.00	0.750			
0.6730	43073.08	3.7120	3.7119	2.4175	5.97	-0.02	0.750			
0.6799	43515.29	3.7090	3.7090	2.1732	5.96	-0.03	0.750			
0.6860	43902.16	3.7060	3.7062	1.8959	5.95	-0.04	0.750			
0.6912	44234.82	3.7030	3.7031	1.6610	5.95	-0.04	0.750			
0.6958	44530.15	3.7000	3.6999	1.4570	5.95	-0.04	0.750			
0.6997	44779.64	3.6970	3.6970	1.2849	5.95	-0.04	0.750			
0.7031	44997.61	3.6940	3.6940	1.1305	5.95	-0.04	0.750			
0.7061	45191.72	3.6910	3.6910	1.0200	5.95	-0.04	0.750			
0.7089	45371.75	3.6880	3.6877	0.9335	5.95	-0.04	0.750			
0.7115	45538.78	3.6850	3.6851	0.8713	5.95	-0.04	0.750			
0.7140	45698.38	3.6820	3.6819	0.8166	5.96	-0.03	0.750			
0.7164	45850.54	3.6790	3.6790	0.7710	5.96	-0.03	0.750			
0.7187	45995.45	3.6760	3.6760	0.7265	5.96	-0.03	0.750			
0.7208	46130.01	3.6730	3.6731	0.6783	5.97	-0.02	0.750			
0.7228	46256.76	3.6700	3.6700	0.6277	5.97	-0.02	0.750			
0.7246	46371.29	3.6670	3.6669	0.5764	5.97	-0.02	0.750			
0.7262	46477.18	3.6640	3.6641	0.5262	5.98	-0.01	0.750			
0.7277	46572.83	3.6610	3.6609	0.4794	5.98	-0.01	0.750			
0.7291	46659.75	3.6580	3.6580	0.4334	5.98	-0.01	0.750			
0.7303	46738.24	3.6550	3.6550	0.3901	5.98	-0.01	0.750			
0.7314	46808.02	3.6520	3.6520	0.3501	5.99	-0.00	0.750			
0.7324	46871.14	3.6490	3.6490	0.3129	5.99	-0.00	0.750			
0.7332	46926.68	3.6460	3.6459	0.2745	5.99	-0.00	0.750			
0.7340	46976.60	3.6430	3.6429	0.2369	5.99	-0.00	0.750			
0.7347	47018.07	3.6400	3.6402	0.1984	5.99	0.00	0.750			
0.7352	47053.47	3.6370	3.6373	0.1619	5.99	0.00	0.750			
0.7357	47082.06	3.6340	3.6341	0.1223	5.99	0.00	0.750			
0.7360	47101.95	3.6310	3.6316	0.0796	5.99	0.00	0.750			
0.7361	47113.14	3.6280	3.6293	0.0336	5.99	0.00	0.750			
