Ah_balance (normalized)	Ah_balance (mAh)	Voltage - fit (V)	Voltage -  interpolate (V)	dQ/dV (1/V)	Temperature (°C)	Temperature - diff (°C)	Current (C)	R_DC 0ms (mOhm)	R_DC 50ms (mOhm)	R_DC 50 ms PEC (mOhm)
0.1765	11297.66	4.0810	4.0811	0.7530	7.48	1.49	0.750			
0.1788	11441.83	4.0780	4.0779	0.7550	7.48	1.49	0.750			
0.1810	11586.25	4.0750	4.0751	0.7635	7.47	1.48	0.750			
0.1833	11733.67	4.0720	4.0718	0.7749	7.47	1.48	0.750			
0.1857	11883.13	4.0690	4.0690	0.7866	7.47	1.48	0.750			
0.1881	12037.94	4.0660	4.0659	0.7833	7.46	1.47	0.750			
0.1904	12188.34	4.0630	4.0631	0.7888	7.46	1.47	0.750			
0.1928	12341.02	4.0600	4.0601	0.7953	7.45	1.46	0.750			
0.1952	12492.53	4.0570	4.0569	0.7948	7.45	1.46	0.750			
0.1976	12644.61	4.0540	4.0540	0.7984	7.44	1.45	0.750			
0.2000	12798.39	4.0510	4.0510	0.7958	7.44	1.45	0.750			
0.2024	12951.05	4.0480	4.0481	0.8026	7.43	1.44	0.750			
0.2048	13109.89	4.0450	4.0450	0.8094	7.42	1.43	0.750			
0.2072	13261.81	4.0420	4.0420	0.8048	7.41	1.42	0.750			
0.2096	13416.35	4.0390	4.0390	0.8099	7.41	1.42	0.750			
0.2121	13574.31	4.0360	4.0360	0.8043	7.40	1.41	0.750			
0.2145	13726.88	4.0330	4.0330	0.8100	7.39	1.40	0.750			
0.2169	13883.72	4.0300	4.0300	0.8179	7.38	1.39	0.750			
0.2194	14039.42	4.0270	4.0271	0.8163	7.37	1.38	0.750			
0.2218	14196.70	4.0240	4.0239	0.8223	7.37	1.38	0.750			
0.2243	14356.90	4.0210	4.0211	0.8151	7.36	1.37	0.750			
0.2268	14512.54	4.0180	4.0180	0.8235	7.36	1.37	0.750			
0.2292	14670.96	4.0150	4.0151	0.8346	7.36	1.37	0.750			
0.2317	14829.98	4.0120	4.0120	0.8353	7.35	1.36	0.750			
0.2342	14991.19	4.0090	4.0091	0.8414	7.35	1.36	0.750			
0.2368	15155.57	4.0060	4.0062	0.8453	7.34	1.35	0.750			
0.2394	15319.12	4.0030	4.0030	0.8521	7.34	1.35	0.750			
0.2419	15484.40	4.0000	3.9999	0.8540	7.34	1.35	0.750			
0.2445	15645.83	3.9970	3.9972	0.8458	7.33	1.34	0.750			
0.2470	15808.64	3.9940	3.9941	0.8493	7.33	1.34	0.750			
0.2496	15974.22	3.9910	3.9910	0.8527	7.32	1.33	0.750			
0.2521	16136.95	3.9880	3.9880	0.8640	7.31	1.32	0.750			
0.2547	16302.58	3.9850	3.9850	0.8731	7.30	1.31	0.750			
0.2574	16470.52	3.9820	3.9819	0.8771	7.29	1.30	0.750			
0.2600	16641.51	3.9790	3.9791	0.8833	7.29	1.30	0.750			
0.2627	16813.38	3.9760	3.9760	0.8839	7.28	1.29	0.750			
0.2654	16982.50	3.9730	3.9731	0.8863	7.28	1.29	0.750			
0.2680	17151.02	3.9700	3.9701	0.8847	7.27	1.28	0.750			
0.2706	17320.74	3.9670	3.9664	0.8895	7.27	1.28	0.750			
0.2733	17492.39	3.9640	3.9641	0.8942	7.26	1.27	0.750			
0.2760	17665.26	3.9610	3.9611	0.9029	7.25	1.26	0.750			
0.2788	17842.20	3.9580	3.9580	0.9124	7.24	1.25	0.750			
0.2815	18017.93	3.9550	3.9550	0.9139	7.24	1.25	0.750			
0.2842	18190.79	3.9520	3.9521	0.9120	7.23	1.24	0.750			
0.2870	18368.08	3.9490	3.9491	0.9079	7.22	1.23	0.750			
0.2897	18541.46	3.9460	3.9460	0.9177	7.21	1.22	0.750			
0.2925	18717.21	3.9430	3.9430	0.9237	7.20	1.21	0.750			
0.2952	18894.38	3.9400	3.9399	0.9308	7.19	1.20	0.750			
0.2981	19075.59	3.9370	3.9371	0.9371	7.19	1.20	0.750			
0.3009	19255.27	3.9340	3.9340	0.9471	7.18	1.19	0.750			
0.3037	19438.02	3.9310	3.9310	0.9593	7.18	1.19	0.750			
0.3066	19622.80	3.9280	3.9282	0.9632	7.17	1.18	0.750			
0.3095	19809.93	3.9250	3.9250	0.9708	7.16	1.17	0.750			
0.3125	19998.09	3.9220	3.9220	0.9787	7.15	1.16	0.750			
0.3154	20185.60	3.9190	3.9191	0.9931	7.14	1.15	0.750			
0.3184	20378.13	3.9160	3.9160	1.0018	7.12	1.13	0.750			
0.3214	20572.68	3.9130	3.9130	1.0021	7.11	1.12	0.750			
0.3245	20765.39	3.9100	3.9101	1.0105	7.10	1.11	0.750			
0.3275	20961.11	3.9070	3.9071	1.0178	7.09	1.10	0.750			
0.3306	21155.96	3.9040	3.9040	1.0294	7.08	1.09	0.750			
0.3336	21352.20	3.9010	3.9009	1.0407	7.07	1.08	0.750			
0.3367	21551.56	3.8980	3.8980	1.0384	7.06	1.07	0.750			
0.3399	21752.90	3.8950	3.8951	1.0588	7.05	1.06	0.750			
0.3431	21957.86	3.8920	3.8921	1.0712	7.05	1.06	0.750			
0.3463	22165.68	3.8890	3.8886	1.0807	7.04	1.05	0.750			
0.3496	22373.34	3.8860	3.8861	1.0921	7.03	1.04	0.750			
0.3529	22583.30	3.8830	3.8831	1.1032	7.01	1.02	0.750			
0.3562	22797.52	3.8800	3.8801	1.1208	7.00	1.01	0.750			
0.3596	23013.03	3.8770	3.8771	1.1261	6.99	1.00	0.750			
0.3630	23229.51	3.8740	3.8740	1.1446	6.98	0.99	0.750			
0.3664	23452.54	3.8710	3.8710	1.1653	6.97	0.98	0.750			
0.3700	23680.05	3.8680	3.8679	1.1729	6.96	0.97	0.750			
0.3736	23908.44	3.8650	3.8651	1.1891	6.95	0.96	0.750			
0.3771	24136.25	3.8620	3.8621	1.2057	6.94	0.95	0.750			
0.3807	24367.42	3.8590	3.8590	1.2220	6.93	0.94	0.750			
0.3844	24602.99	3.8560	3.8561	1.2293	6.92	0.93	0.750			
0.3881	24839.16	3.8530	3.8532	1.2557	6.90	0.91	0.750			
0.3920	25087.10	3.8500	3.8500	1.2767	6.89	0.90	0.750			
0.3958	25332.65	3.8470	3.8468	1.3062	6.88	0.89	0.750			
0.3997	25581.78	3.8440	3.8440	1.3400	6.87	0.88	0.750			
0.4038	25841.70	3.8410	3.8412	1.3801	6.85	0.86	0.750			
0.4079	26104.18	3.8380	3.8371	1.4209	6.84	0.85	0.749	0.365	0.874	
0.4121	26377.59	3.8350	3.8352	1.4509	6.83	0.84	0.750			
0.4164	26651.14	3.8320	3.8323	1.5404	6.82	0.83	0.750			
0.4212	26958.15	3.8290	3.8285	1.6083	6.81	0.82	0.750			
0.4262	27276.85	3.8260	3.8269	1.6939	6.79	0.80	0.750			
0.4314	27608.59	3.8230	3.8235	1.6705	6.77	0.78	0.750			
0.4366	27943.87	3.8200	3.8201	1.7068	6.75	0.76	0.750			
0.4415	28255.21	3.8170	3.8169	1.6404	6.73	0.74	0.750			
0.4460	28543.76	3.8140	3.8140	1.6024	6.71	0.72	0.750			
0.4509	28859.12	3.8110	3.8110	1.6597	6.69	0.70	0.750			
0.4559	29174.50	3.8080	3.8082	1.6849	6.68	0.69	0.750			
0.4610	29506.73	3.8050	3.8048	1.7162	6.66	0.67	0.750			
0.4663	29840.15	3.8020	3.8021	1.7465	6.63	0.64	0.750			
0.4713	30165.02	3.7990	3.7992	1.7746	6.61	0.62	0.750			
0.4768	30512.02	3.7960	3.7958	1.8162	6.59	0.60	0.750			
0.4822	30863.01	3.7930	3.7929	1.8417	6.57	0.58	0.750			
0.4879	31222.59	3.7900	3.7905	1.8542	6.55	0.56	0.750			
0.4936	31587.54	3.7870	3.7870	1.8795	6.53	0.54	0.750			
0.4991	31943.11	3.7840	3.7842	1.8658	6.51	0.52	0.750			
0.5047	32298.10	3.7810	3.7810	1.9130	6.48	0.49	0.750			
0.5105	32671.10	3.7780	3.7780	1.9532	6.46	0.47	0.750			
0.5165	33056.05	3.7750	3.7749	1.9776	6.43	0.44	0.750			
0.5224	33432.47	3.7720	3.7720	1.9994	6.41	0.42	0.750			
0.5284	33818.46	3.7690	3.7688	2.0134	6.39	0.40	0.750			
0.5344	34200.76	3.7660	3.7660	2.0419	6.37	0.38	0.750			
0.5404	34588.40	3.7630	3.7630	2.0561	6.35	0.36	0.750			
0.5469	35002.13	3.7600	3.7600	2.0827	6.33	0.34	0.750			
0.5531	35397.01	3.7570	3.7570	2.1184	6.31	0.32	0.750			
0.5595	35806.83	3.7540	3.7539	2.1588	6.28	0.29	0.750			
0.5661	36230.36	3.7510	3.7511	2.2268	6.25	0.26	0.750			
0.5730	36669.36	3.7480	3.7480	2.3185	6.22	0.23	0.750			
0.5800	37119.78	3.7450	3.7449	2.3414	6.20	0.21	0.750			
0.5872	37580.57	3.7420	3.7424	2.3952	6.18	0.19	0.750			
0.5943	38035.10	3.7390	3.7390	2.4219	6.15	0.16	0.750			
0.6015	38495.62	3.7360	3.7362	2.4290	6.13	0.14	0.750			
0.6091	38984.22	3.7330	3.7330	2.5537	6.11	0.12	0.750			
0.6167	39471.79	3.7300	3.7299	2.5792	6.08	0.09	0.750			
0.6250	39999.12	3.7270	3.7269	2.6645	6.06	0.07	0.750			
0.6330	40513.39	3.7240	3.7240	2.5883	6.04	0.05	0.750			
0.6406	40996.68	3.7210	3.7207	2.3973	6.02	0.03	0.750			
0.6473	41426.98	3.7180	3.7182	2.1624	6.01	0.02	0.750			
0.6536	41829.91	3.7150	3.7150	2.0167	6.00	0.01	0.750			
0.6597	42219.01	3.7120	3.7121	1.8606	5.99	-0.00	0.750			
0.6648	42547.14	3.7090	3.7092	1.6358	5.98	-0.01	0.750			
0.6696	42851.49	3.7060	3.7060	1.4897	5.98	-0.01	0.750			
0.6735	43105.16	3.7030	3.7031	1.3124	5.98	-0.01	0.750			
0.6772	43340.38	3.7000	3.6999	1.1921	5.97	-0.02	0.750			
0.6804	43548.72	3.6970	3.6971	1.0915	5.97	-0.02	0.750			
0.6835	43743.47	3.6940	3.6936	1.0213	5.97	-0.02	0.750			
0.6864	43930.47	3.6910	3.6910	0.9604	5.97	-0.02	0.750			
0.6892	44108.85	3.6880	3.6880	0.9234	5.97	-0.02	0.750			
0.6919	44280.80	3.6850	3.6851	0.8898	5.96	-0.03	0.750			
0.6945	44448.10	3.6820	3.6820	0.8537	5.96	-0.03	0.750			
0.6970	44609.15	3.6790	3.6790	0.8211	5.96	-0.03	0.750			
0.6995	44764.83	3.6760	3.6761	0.7880	5.96	-0.03	0.750			
0.7018	44915.52	3.6730	3.6730	0.7518	5.96	-0.03	0.750			
0.7040	45057.87	3.6700	3.6701	0.7154	5.97	-0.02	0.750			
0.7061	45188.10	3.6670	3.6670	0.6730	5.97	-0.02	0.750			
0.7080	45314.10	3.6640	3.6637	0.6345	5.97	-0.02	0.750			
0.7099	45431.96	3.6610	3.6610	0.5949	5.97	-0.02	0.750			
0.7116	45542.88	3.6580	3.6581	0.5575	5.98	-0.01	0.750			
0.7133	45648.44	3.6550	3.6551	0.5211	5.98	-0.01	0.750			
0.7148	45744.79	3.6520	3.6520	0.4806	5.98	-0.01	0.750			
0.7161	45831.37	3.6490	3.6489	0.4357	5.98	-0.01	0.750			
0.7173	45910.33	3.6460	3.6460	0.3969	5.98	-0.01	0.750			
0.7185	45982.42	3.6430	3.6430	0.3610	5.99	-0.00	0.750			
0.7195	46047.41	3.6400	3.6400	0.3238	5.99	-0.00	0.750			
0.7204	46105.98	3.6370	3.6371	0.2896	5.99	-0.00	0.750			
0.7213	46160.00	3.6340	3.6341	0.2534	5.99	0.00	0.750			
0.7220	46205.57	3.6310	3.6309	0.2181	5.99	0.00	0.750			
0.7226	46245.08	3.6280	3.6281	0.1830	5.99	0.00	0.750			
0.7231	46277.30	3.6250	3.6251	0.1436	5.99	0.00	0.750			
0.7234	46300.78	3.6220	3.6225	0.1017	5.99	0.00	0.750			
0.7237	46317.41	3.6190	3.6198	0.0574	5.99	0.00	0.750			
0.7238	46324.08	3.6160	3.6178	0.0122	5.99	0.00	0.750			
