Ah_balance (normalized)	Ah_balance (mAh)	Voltage - fit (V)	Voltage -  interpolate (V)	dQ/dV (1/V)	Temperature (°C)	Temperature - diff (°C)	Current (C)	R_DC 0ms (mOhm)	R_DC 50ms (mOhm)	R_DC 50 ms PEC (mOhm)
0.1782	11404.87	4.0810	4.0811	0.7363	7.14	1.15	0.750			
0.1805	11551.80	4.0780	4.0776	0.7848	7.14	1.15	0.750			
0.1829	11704.08	4.0750	4.0751	0.7942	7.14	1.15	0.750			
0.1853	11858.57	4.0720	4.0721	0.7948	7.14	1.15	0.750			
0.1877	12012.15	4.0690	4.0691	0.8006	7.13	1.14	0.750			
0.1901	12163.81	4.0660	4.0660	0.7949	7.13	1.14	0.750			
0.1924	12316.68	4.0630	4.0629	0.8018	7.13	1.14	0.750			
0.1949	12471.24	4.0600	4.0600	0.8035	7.13	1.14	0.750			
0.1973	12625.94	4.0570	4.0570	0.8065	7.12	1.13	0.750			
0.1997	12782.43	4.0540	4.0540	0.8085	7.12	1.13	0.750			
0.2022	12939.25	4.0510	4.0510	0.8088	7.12	1.13	0.750			
0.2046	13091.56	4.0480	4.0480	0.8078	7.11	1.12	0.750			
0.2070	13247.39	4.0450	4.0449	0.8094	7.11	1.12	0.750			
0.2095	13405.37	4.0420	4.0420	0.8011	7.10	1.11	0.750			
0.2118	13557.60	4.0390	4.0390	0.8084	7.10	1.11	0.750			
0.2142	13711.27	4.0360	4.0362	0.8143	7.10	1.11	0.750			
0.2167	13868.58	4.0330	4.0331	0.8184	7.09	1.10	0.750			
0.2191	14024.99	4.0300	4.0301	0.8261	7.09	1.10	0.750			
0.2216	14185.22	4.0270	4.0271	0.8278	7.08	1.09	0.750			
0.2242	14346.39	4.0240	4.0240	0.8343	7.08	1.09	0.750			
0.2267	14507.94	4.0210	4.0210	0.8342	7.08	1.09	0.750			
0.2292	14666.58	4.0180	4.0181	0.8281	7.07	1.08	0.750			
0.2316	14825.33	4.0150	4.0149	0.8310	7.07	1.08	0.750			
0.2341	14985.14	4.0120	4.0121	0.8325	7.06	1.07	0.750			
0.2366	15141.85	4.0090	4.0090	0.8408	7.06	1.07	0.750			
0.2392	15307.38	4.0060	4.0060	0.8520	7.06	1.07	0.750			
0.2417	15469.89	4.0030	4.0030	0.8558	7.05	1.06	0.750			
0.2443	15636.21	4.0000	4.0000	0.8655	7.05	1.06	0.750			
0.2470	15807.22	3.9970	3.9970	0.8604	7.05	1.06	0.750			
0.2495	15971.18	3.9940	3.9939	0.8667	7.04	1.05	0.750			
0.2522	16137.80	3.9910	3.9911	0.8655	7.04	1.05	0.750			
0.2547	16301.78	3.9880	3.9881	0.8591	7.04	1.05	0.750			
0.2573	16467.82	3.9850	3.9851	0.8646	7.04	1.05	0.750			
0.2599	16632.66	3.9820	3.9821	0.8626	7.04	1.05	0.750			
0.2625	16798.41	3.9790	3.9790	0.8683	7.03	1.04	0.750			
0.2651	16965.94	3.9760	3.9760	0.8664	7.03	1.04	0.750			
0.2677	17132.72	3.9730	3.9728	0.8753	7.03	1.04	0.750			
0.2704	17303.54	3.9700	3.9700	0.8822	7.03	1.04	0.750			
0.2730	17473.52	3.9670	3.9670	0.8868	7.02	1.03	0.750			
0.2757	17643.19	3.9640	3.9640	0.8959	7.02	1.03	0.750			
0.2784	17815.74	3.9610	3.9611	0.9067	7.01	1.02	0.750			
0.2811	17990.71	3.9580	3.9581	0.9053	7.01	1.02	0.750			
0.2839	18168.51	3.9550	3.9549	0.8982	7.00	1.01	0.750			
0.2865	18338.23	3.9520	3.9522	0.9086	6.99	1.00	0.750			
0.2893	18512.91	3.9490	3.9491	0.9149	6.98	0.99	0.750			
0.2920	18687.93	3.9460	3.9459	0.9153	6.97	0.98	0.750			
0.2947	18862.61	3.9430	3.9430	0.9226	6.97	0.98	0.750			
0.2975	19041.04	3.9400	3.9402	0.9204	6.97	0.98	0.750			
0.3003	19218.94	3.9370	3.9370	0.9342	6.97	0.98	0.750			
0.3031	19399.21	3.9340	3.9341	0.9461	6.97	0.98	0.750			
0.3059	19577.60	3.9310	3.9307	0.9454	6.97	0.98	0.750			
0.3088	19760.84	3.9280	3.9280	0.9548	6.96	0.97	0.750			
0.3116	19945.56	3.9250	3.9251	0.9698	6.96	0.97	0.750			
0.3146	20134.43	3.9220	3.9220	0.9788	6.95	0.96	0.750			
0.3176	20323.88	3.9190	3.9189	0.9798	6.94	0.95	0.750			
0.3205	20512.81	3.9160	3.9161	0.9772	6.93	0.94	0.750			
0.3234	20698.20	3.9130	3.9132	0.9959	6.93	0.94	0.750			
0.3264	20890.89	3.9100	3.9100	1.0051	6.92	0.93	0.750			
0.3294	21084.44	3.9070	3.9069	1.0079	6.91	0.92	0.750			
0.3325	21278.82	3.9040	3.9040	1.0177	6.91	0.92	0.750			
0.3356	21478.13	3.9010	3.9013	1.0313	6.90	0.91	0.750			
0.3387	21676.40	3.8980	3.8980	1.0414	6.90	0.91	0.750			
0.3418	21876.58	3.8950	3.8949	1.0513	6.89	0.90	0.750			
0.3450	22079.14	3.8920	3.8920	1.0390	6.88	0.89	0.750			
0.3481	22278.65	3.8890	3.8890	1.0619	6.87	0.88	0.750			
0.3513	22481.80	3.8860	3.8860	1.0774	6.86	0.87	0.750			
0.3545	22688.50	3.8830	3.8831	1.0928	6.85	0.86	0.750			
0.3578	22901.53	3.8800	3.8801	1.0959	6.85	0.86	0.750			
0.3611	23111.87	3.8770	3.8771	1.1115	6.84	0.85	0.750			
0.3645	23327.07	3.8740	3.8741	1.1347	6.84	0.85	0.750			
0.3680	23551.10	3.8710	3.8705	1.1472	6.83	0.84	0.750			
0.3714	23767.16	3.8680	3.8681	1.1552	6.82	0.83	0.750			
0.3748	23989.77	3.8650	3.8651	1.1789	6.82	0.83	0.750			
0.3784	24219.97	3.8620	3.8621	1.2005	6.81	0.82	0.750			
0.3821	24451.84	3.8590	3.8591	1.2061	6.81	0.82	0.750			
0.3857	24683.91	3.8560	3.8561	1.2266	6.79	0.80	0.750			
0.3894	24919.45	3.8530	3.8531	1.2526	6.78	0.79	0.750			
0.3932	25167.43	3.8500	3.8496	1.2589	6.77	0.78	0.750			
0.3970	25408.96	3.8470	3.8471	1.2902	6.76	0.77	0.750			
0.4009	25656.87	3.8440	3.8442	1.3183	6.75	0.76	0.750			
0.4049	25913.56	3.8410	3.8407	1.3621	6.73	0.74	0.750			
0.4090	26175.50	3.8380	3.8381	1.3912	6.72	0.73	0.750			
0.4133	26448.96	3.8350	3.8348	1.4308	6.72	0.73	0.750	0.383	0.921	
0.4177	26731.42	3.8320	3.8319	1.4558	6.71	0.72	0.750			
0.4221	27011.23	3.8290	3.8292	1.4723	6.70	0.71	0.750			
0.4265	27296.71	3.8260	3.8261	1.4948	6.68	0.69	0.750			
0.4310	27581.22	3.8230	3.8227	1.4943	6.67	0.68	0.750			
0.4355	27870.47	3.8200	3.8203	1.5039	6.65	0.66	0.750			
0.4400	28159.51	3.8170	3.8172	1.5522	6.63	0.64	0.750			
0.4447	28461.37	3.8140	3.8136	1.6070	6.62	0.63	0.750			
0.4495	28767.55	3.8110	3.8108	1.6227	6.60	0.61	0.750			
0.4545	29088.28	3.8080	3.8081	1.6979	6.59	0.60	0.750			
0.4598	29425.39	3.8050	3.8050	1.7382	6.58	0.59	0.750			
0.4651	29764.66	3.8020	3.8019	1.7751	6.56	0.57	0.750			
0.4704	30104.10	3.7990	3.7990	1.7765	6.54	0.55	0.750			
0.4759	30456.02	3.7960	3.7960	1.7925	6.53	0.54	0.750			
0.4813	30802.51	3.7930	3.7929	1.8134	6.51	0.52	0.750			
0.4866	31145.15	3.7900	3.7902	1.8453	6.49	0.50	0.750			
0.4923	31507.19	3.7870	3.7868	1.8920	6.47	0.48	0.750			
0.4981	31881.21	3.7840	3.7841	1.9512	6.45	0.46	0.750			
0.5041	32259.63	3.7810	3.7810	1.9813	6.44	0.45	0.750			
0.5101	32645.43	3.7780	3.7780	2.0014	6.42	0.43	0.750			
0.5161	33032.27	3.7750	3.7750	2.0344	6.40	0.41	0.750			
0.5225	33440.29	3.7720	3.7719	2.0451	6.37	0.38	0.750			
0.5286	33830.63	3.7690	3.7691	2.0631	6.34	0.35	0.750			
0.5348	34230.08	3.7660	3.7661	2.1312	6.32	0.33	0.750			
0.5413	34644.67	3.7630	3.7629	2.1541	6.30	0.31	0.750			
0.5479	35066.16	3.7600	3.7600	2.2388	6.28	0.29	0.750			
0.5549	35511.43	3.7570	3.7567	2.2010	6.25	0.26	0.750			
0.5611	35910.11	3.7540	3.7543	2.2057	6.23	0.24	0.750			
0.5677	36330.87	3.7510	3.7510	2.2494	6.21	0.22	0.750			
0.5746	36774.61	3.7480	3.7479	2.3511	6.19	0.20	0.750			
0.5821	37252.00	3.7450	3.7448	2.3500	6.17	0.18	0.750			
0.5889	37686.42	3.7420	3.7423	2.3879	6.14	0.15	0.750			
0.5960	38146.28	3.7390	3.7388	2.4611	6.12	0.13	0.750			
0.6035	38624.98	3.7360	3.7362	2.5774	6.10	0.11	0.750			
0.6116	39144.38	3.7330	3.7329	2.6529	6.07	0.08	0.750			
0.6194	39639.80	3.7300	3.7301	2.7472	6.05	0.06	0.750			
0.6280	40193.38	3.7270	3.7269	2.8511	6.03	0.04	0.750			
0.6368	40755.60	3.7240	3.7242	2.9048	6.02	0.03	0.750			
0.6454	41307.15	3.7210	3.7211	2.8762	6.00	0.01	0.750			
0.6541	41863.57	3.7180	3.7180	2.8253	5.99	0.00	0.750			
0.6625	42398.68	3.7150	3.7151	2.6678	5.98	-0.01	0.750			
0.6703	42897.64	3.7120	3.7119	2.5418	5.97	-0.02	0.750			
0.6777	43375.80	3.7090	3.7086	2.2940	5.95	-0.04	0.750			
0.6842	43787.75	3.7060	3.7066	1.9937	5.95	-0.04	0.750			
0.6896	44135.43	3.7030	3.7029	1.7280	5.95	-0.04	0.750			
0.6945	44447.19	3.7000	3.7000	1.5009	5.95	-0.04	0.750			
0.6983	44691.18	3.6970	3.6973	1.2884	5.96	-0.03	0.750			
0.7020	44931.20	3.6940	3.6942	1.1748	5.96	-0.03	0.750			
0.7052	45134.76	3.6910	3.6906	1.0589	5.97	-0.02	0.750			
0.7082	45323.33	3.6880	3.6881	0.9589	5.97	-0.02	0.750			
0.7109	45496.82	3.6850	3.6851	0.8882	5.97	-0.02	0.750			
0.7134	45658.28	3.6820	3.6821	0.8353	5.97	-0.02	0.750			
0.7158	45813.58	3.6790	3.6790	0.7771	5.97	-0.02	0.750			
0.7181	45957.90	3.6760	3.6758	0.7327	5.97	-0.02	0.750			
0.7202	46095.37	3.6730	3.6730	0.6869	5.97	-0.02	0.750			
0.7222	46223.39	3.6700	3.6701	0.6370	5.98	-0.01	0.750			
0.7241	46343.05	3.6670	3.6671	0.5888	5.98	-0.01	0.750			
0.7258	46450.85	3.6640	3.6639	0.5349	5.98	-0.01	0.750			
0.7273	46547.48	3.6610	3.6610	0.4841	5.98	-0.01	0.750			
0.7287	46634.41	3.6580	3.6580	0.4388	5.99	-0.00	0.750			
0.7299	46712.88	3.6550	3.6551	0.3940	5.99	-0.00	0.750			
0.7310	46784.26	3.6520	3.6520	0.3548	5.99	0.00	0.750			
0.7320	46847.51	3.6490	3.6490	0.3164	5.99	0.00	0.750			
0.7329	46903.94	3.6460	3.6461	0.2795	5.99	0.00	0.750			
0.7337	46955.66	3.6430	3.6428	0.2411	5.99	0.00	0.750			
0.7344	46998.89	3.6400	3.6400	0.2039	6.00	0.01	0.750			
0.7349	47034.72	3.6370	3.6372	0.1657	6.00	0.01	0.750			
0.7354	47064.05	3.6340	3.6342	0.1269	6.00	0.01	0.750			
0.7357	47085.77	3.6310	3.6313	0.0844	6.00	0.01	0.750			
0.7359	47098.69	3.6280	3.6277	0.0376	6.00	0.01	0.750			
0.7360	47101.38	3.6250	3.6263	-0.0096	6.00	0.01	0.750			
