Ah_balance (normalized)	Ah_balance (mAh)	Voltage - fit (V)	Voltage -  interpolate (V)	dQ/dV (1/V)	Temperature (°C)	Temperature - diff (°C)	Current (C)	R_DC 0ms (mOhm)	R_DC 50ms (mOhm)	R_DC 50 ms PEC (mOhm)
0.0937	5996.87	4.0020	4.0012	-0.0609	5.99	0.00	-0.750			
0.0939	6011.96	3.9990	3.9987	-0.0924	5.99	0.00	-0.750			
0.0943	6032.58	3.9960	3.9959	-0.1211	5.99	0.00	-0.750			
0.0947	6059.48	3.9930	3.9929	-0.1480	5.99	0.00	-0.750			
0.0952	6090.40	3.9900	3.9900	-0.1741	5.99	0.00	-0.750			
0.0957	6126.37	3.9870	3.9869	-0.1985	5.99	0.00	-0.750			
0.0964	6167.66	3.9840	3.9841	-0.2239	5.99	0.00	-0.750			
0.0971	6213.16	3.9810	3.9810	-0.2468	5.99	0.00	-0.750			
0.0978	6262.36	3.9780	3.9779	-0.2713	5.99	0.00	-0.750			
0.0987	6316.88	3.9750	3.9750	-0.2934	5.99	0.00	-0.750			
0.0996	6375.08	3.9720	3.9721	-0.3179	5.99	0.00	-0.750			
0.1006	6438.64	3.9690	3.9690	-0.3431	5.99	0.00	-0.750			
0.1017	6507.36	3.9660	3.9660	-0.3660	5.99	0.00	-0.750			
0.1028	6579.97	3.9630	3.9630	-0.3884	5.99	0.00	-0.750			
0.1040	6656.95	3.9600	3.9600	-0.4121	5.99	0.00	-0.750			
0.1053	6738.08	3.9570	3.9570	-0.4342	5.99	0.00	-0.750			
0.1066	6824.34	3.9540	3.9539	-0.4558	5.99	0.00	-0.750			
0.1080	6913.03	3.9510	3.9510	-0.4769	5.99	0.00	-0.750			
0.1095	7006.47	3.9480	3.9481	-0.4990	5.99	0.00	-0.750			
0.1110	7104.90	3.9450	3.9450	-0.5199	5.99	0.00	-0.750			
0.1126	7207.08	3.9420	3.9420	-0.5423	5.99	0.00	-0.750			
0.1143	7313.74	3.9390	3.9390	-0.5572	5.99	0.00	-0.750			
0.1160	7423.11	3.9360	3.9360	-0.5722	5.99	0.00	-0.750			
0.1177	7535.33	3.9330	3.9330	-0.5866	5.99	0.00	-0.750			
0.1195	7648.93	3.9300	3.9300	-0.5957	5.99	0.00	-0.750			
0.1213	7764.05	3.9270	3.9270	-0.6081	5.99	0.00	-0.750			
0.1232	7881.74	3.9240	3.9240	-0.6205	5.99	0.00	-0.750			
0.1250	8001.16	3.9210	3.9210	-0.6364	5.99	0.00	-0.750			
0.1270	8126.67	3.9180	3.9180	-0.6468	5.99	0.00	-0.750			
0.1290	8252.90	3.9150	3.9149	-0.6573	5.99	0.00	-0.750			
0.1309	8380.77	3.9120	3.9123	-0.6623	5.99	0.00	-0.750			
0.1330	8509.06	3.9090	3.9089	-0.6691	5.99	0.00	-0.750			
0.1349	8636.71	3.9060	3.9061	-0.6729	6.00	0.01	-0.750			
0.1370	8765.43	3.9030	3.9030	-0.6760	6.00	0.01	-0.750			
0.1390	8895.85	3.9000	3.8999	-0.6865	6.00	0.01	-0.750			
0.1411	9029.09	3.8970	3.8970	-0.6924	6.01	0.02	-0.750			
0.1432	9161.99	3.8940	3.8941	-0.6972	6.01	0.02	-0.750			
0.1453	9297.42	3.8910	3.8910	-0.6999	6.01	0.02	-0.750			
0.1474	9432.15	3.8880	3.8880	-0.7020	6.02	0.03	-0.750			
0.1495	9567.39	3.8850	3.8850	-0.7058	6.02	0.03	-0.750			
0.1516	9702.28	3.8820	3.8819	-0.7079	6.02	0.03	-0.750			
0.1537	9838.26	3.8790	3.8790	-0.7111	6.03	0.04	-0.750			
0.1559	9976.06	3.8760	3.8761	-0.7145	6.03	0.04	-0.750			
0.1580	10113.97	3.8730	3.8730	-0.7172	6.04	0.05	-0.750			
0.1602	10252.92	3.8700	3.8701	-0.7170	6.04	0.05	-0.750			
0.1623	10390.20	3.8670	3.8670	-0.7191	6.05	0.06	-0.750			
0.1645	10528.47	3.8640	3.8640	-0.7187	6.06	0.07	-0.750			
0.1667	10666.30	3.8610	3.8609	-0.7205	6.06	0.07	-0.750			
0.1688	10804.37	3.8580	3.8582	-0.7227	6.07	0.08	-0.750			
0.1710	10943.55	3.8550	3.8550	-0.7264	6.08	0.09	-0.750			
0.1732	11082.22	3.8520	3.8520	-0.7318	6.09	0.10	-0.750			
0.1754	11224.78	3.8490	3.8489	-0.7284	6.09	0.10	-0.750			
0.1776	11365.50	3.8460	3.8460	-0.7306	6.10	0.11	-0.750			
0.1798	11505.12	3.8430	3.8430	-0.7291	6.11	0.12	-0.750			
0.1819	11644.77	3.8400	3.8399	-0.7284	6.11	0.12	-0.750			
0.1841	11784.31	3.8370	3.8369	-0.7309	6.12	0.13	-0.750			
0.1863	11923.22	3.8340	3.8340	-0.7340	6.13	0.14	-0.750			
0.1886	12068.30	3.8310	3.8309	-0.7258	6.13	0.14	-0.750			
0.1908	12209.98	3.8280	3.8280	-0.7191	6.14	0.15	-0.750			
0.1929	12346.51	3.8250	3.8251	-0.7085	6.15	0.16	-0.750			
0.1950	12479.86	3.8220	3.8221	-0.7037	6.15	0.16	-0.750			
0.1970	12610.96	3.8190	3.8189	-0.6965	6.16	0.17	-0.750			
0.1991	12741.72	3.8160	3.8160	-0.7102	6.17	0.18	-0.750			
0.2012	12878.91	3.8130	3.8130	-0.7158	6.17	0.18	-0.750			
0.2035	13023.12	3.8100	3.8098	-0.7371	6.18	0.19	-0.750			
0.2057	13164.15	3.8070	3.8073	-0.7375	6.19	0.20	-0.750			
0.2079	13306.79	3.8040	3.8040	-0.7414	6.19	0.20	-0.750			
0.2102	13449.63	3.8010	3.8010	-0.7437	6.20	0.21	-0.750			
0.2124	13592.50	3.7980	3.7980	-0.7454	6.20	0.21	-0.750			
0.2146	13737.40	3.7950	3.7949	-0.7475	6.20	0.21	-0.750			
0.2169	13880.58	3.7920	3.7920	-0.7480	6.21	0.22	-0.750			
0.2191	14023.53	3.7890	3.7891	-0.7469	6.21	0.22	-0.750			
0.2214	14166.58	3.7860	3.7860	-0.7485	6.21	0.22	-0.750			
0.2236	14309.55	3.7830	3.7829	-0.7528	6.22	0.23	-0.750			
0.2258	14452.27	3.7800	3.7801	-0.7527	6.22	0.23	-0.750			
0.2281	14600.06	3.7770	3.7770	-0.7620	6.23	0.24	-0.750			
0.2304	14748.17	3.7740	3.7739	-0.7668	6.23	0.24	-0.750			
0.2327	14895.01	3.7710	3.7710	-0.7667	6.24	0.25	-0.750			
0.2350	15040.89	3.7680	3.7680	-0.7698	6.25	0.26	-0.750			
0.2373	15189.78	3.7650	3.7650	-0.7660	6.26	0.27	-0.750			
0.2396	15335.44	3.7620	3.7621	-0.7684	6.26	0.27	-0.750			
0.2419	15483.60	3.7590	3.7590	-0.7747	6.27	0.28	-0.750			
0.2443	15632.02	3.7560	3.7560	-0.7793	6.28	0.29	-0.750			
0.2466	15781.06	3.7530	3.7530	-0.7856	6.29	0.30	-0.750			
0.2490	15933.26	3.7500	3.7500	-0.7898	6.29	0.30	-0.750			
0.2514	16086.42	3.7470	3.7470	-0.7946	6.30	0.31	-0.750			
0.2538	16242.02	3.7440	3.7439	-0.7993	6.30	0.31	-0.750			
0.2561	16392.81	3.7410	3.7412	-0.7996	6.31	0.32	-0.750			
0.2585	16546.88	3.7380	3.7379	-0.8058	6.31	0.32	-0.750			
0.2610	16701.44	3.7350	3.7350	-0.8133	6.32	0.33	-0.750			
0.2634	16859.10	3.7320	3.7320	-0.8190	6.32	0.33	-0.750			
0.2659	17018.32	3.7290	3.7290	-0.8273	6.33	0.34	-0.750			
0.2684	17178.33	3.7260	3.7262	-0.8264	6.33	0.34	-0.750			
0.2709	17336.92	3.7230	3.7230	-0.8325	6.34	0.35	-0.750			
0.2734	17495.51	3.7200	3.7200	-0.8367	6.35	0.36	-0.750			
0.2759	17655.28	3.7170	3.7170	-0.8414	6.35	0.36	-0.750			
0.2784	17818.74	3.7140	3.7138	-0.8509	6.36	0.37	-0.750			
0.2810	17982.34	3.7110	3.7112	-0.8557	6.37	0.38	-0.750			
0.2835	18147.07	3.7080	3.7080	-0.8660	6.37	0.38	-0.750			
0.2862	18315.52	3.7050	3.7050	-0.8683	6.38	0.39	-0.750			
0.2888	18481.10	3.7020	3.7019	-0.8681	6.38	0.39	-0.750			
0.2914	18649.18	3.6990	3.6990	-0.8784	6.39	0.40	-0.750			
0.2940	18817.49	3.6960	3.6962	-0.8844	6.39	0.40	-0.750			
0.2967	18987.54	3.6930	3.6929	-0.8942	6.40	0.41	-0.750			
0.2994	19160.21	3.6900	3.6900	-0.8982	6.40	0.41	-0.750			
0.3021	19331.54	3.6870	3.6870	-0.9069	6.41	0.42	-0.750			
0.3048	19508.14	3.6840	3.6840	-0.9242	6.42	0.43	-0.750			
0.3076	19686.35	3.6810	3.6809	-0.9343	6.42	0.43	-0.750			
0.3104	19868.07	3.6780	3.6779	-0.9349	6.43	0.44	-0.750			
0.3133	20048.48	3.6750	3.6751	-0.9410	6.43	0.44	-0.750			
0.3161	20229.57	3.6720	3.6721	-0.9470	6.44	0.45	-0.750			
0.3189	20411.97	3.6690	3.6690	-0.9570	6.44	0.45	-0.750			
0.3218	20593.37	3.6660	3.6659	-0.9638	6.44	0.45	-0.750			
0.3247	20779.53	3.6630	3.6630	-0.9733	6.44	0.45	-0.750			
0.3276	20968.12	3.6600	3.6600	-0.9831	6.45	0.46	-0.750			
0.3306	21161.43	3.6570	3.6571	-0.9965	6.45	0.46	-0.750			
0.3336	21351.39	3.6540	3.6540	-1.0010	6.46	0.47	-0.750			
0.3366	21543.30	3.6510	3.6509	-1.0075	6.47	0.48	-0.750			
0.3396	21736.90	3.6480	3.6480	-1.0165	6.48	0.49	-0.750			
0.3427	21932.29	3.6450	3.6450	-1.0257	6.49	0.50	-0.750			
0.3458	22132.63	3.6420	3.6419	-1.0395	6.49	0.50	-0.750			
0.3490	22334.06	3.6390	3.6390	-1.0413	6.49	0.50	-0.750			
0.3521	22534.28	3.6360	3.6360	-1.0477	6.50	0.51	-0.750			
0.3552	22734.35	3.6330	3.6330	-1.0544	6.50	0.51	-0.750			
0.3584	22938.00	3.6300	3.6300	-1.0631	6.50	0.51	-0.750			
0.3616	23142.64	3.6270	3.6269	-1.0706	6.50	0.51	-0.750			
0.3648	23349.18	3.6240	3.6240	-1.0763	6.51	0.52	-0.750			
0.3681	23556.16	3.6210	3.6212	-1.0869	6.51	0.52	-0.750			
0.3714	23768.08	3.6180	3.6179	-1.1068	6.51	0.52	-0.750			
0.3747	23980.55	3.6150	3.6149	-1.1102	6.51	0.52	-0.750			
0.3780	24193.59	3.6120	3.6119	-1.1163	6.52	0.53	-0.750			
0.3814	24408.76	3.6090	3.6092	-1.1288	6.52	0.53	-0.750			
0.3848	24628.03	3.6060	3.6058	-1.1393	6.52	0.53	-0.750			
0.3882	24847.50	3.6030	3.6030	-1.1474	6.53	0.54	-0.750			
0.3917	25066.38	3.6000	3.5999	-1.1560	6.53	0.54	-0.750			
0.3952	25291.96	3.5970	3.5970	-1.1819	6.53	0.54	-0.750			
0.3988	25522.20	3.5940	3.5939	-1.1935	6.54	0.55	-0.750			
0.4024	25754.16	3.5910	3.5909	-1.1950	6.54	0.55	-0.750			
0.4060	25982.09	3.5880	3.5883	-1.2055	6.55	0.56	-0.750	0.460	1.056	
0.4096	26216.60	3.5850	3.5849	-1.2089	6.55	0.56	-0.750			
0.4133	26448.87	3.5820	3.5818	-1.2059	6.55	0.56	-0.750			
0.4168	26675.79	3.5790	3.5791	-1.2222	6.55	0.56	-0.750			
0.4205	26910.12	3.5760	3.5760	-1.2318	6.55	0.56	-0.750			
0.4242	27150.42	3.5730	3.5729	-1.2502	6.55	0.56	-0.750			
0.4280	27390.73	3.5700	3.5700	-1.2709	6.56	0.57	-0.750			
0.4318	27632.96	3.5670	3.5672	-1.2823	6.56	0.57	-0.750			
0.4357	27885.79	3.5640	3.5640	-1.3049	6.56	0.57	-0.750			
0.4397	28139.98	3.5610	3.5610	-1.3165	6.57	0.58	-0.750			
0.4436	28391.13	3.5580	3.5581	-1.3279	6.57	0.58	-0.750			
0.4477	28650.19	3.5550	3.5550	-1.3459	6.57	0.58	-0.750			
0.4517	28908.94	3.5520	3.5520	-1.3521	6.58	0.59	-0.750			
0.4558	29168.01	3.5490	3.5491	-1.3635	6.58	0.59	-0.750			
0.4599	29432.62	3.5460	3.5460	-1.3752	6.58	0.59	-0.750			
0.4640	29697.87	3.5430	3.5430	-1.3845	6.59	0.60	-0.750			
0.4682	29965.58	3.5400	3.5400	-1.4015	6.59	0.60	-0.750			
0.4724	30234.63	3.5370	3.5370	-1.4154	6.60	0.61	-0.750			
0.4767	30509.32	3.5340	3.5339	-1.4298	6.60	0.61	-0.750			
0.4810	30786.35	3.5310	3.5313	-1.4438	6.61	0.62	-0.750			
0.4854	31065.47	3.5280	3.5281	-1.4483	6.61	0.62	-0.750			
0.4898	31347.05	3.5250	3.5249	-1.4568	6.62	0.63	-0.750			
0.4942	31625.70	3.5220	3.5221	-1.4680	6.62	0.63	-0.750			
0.4986	31909.51	3.5190	3.5190	-1.4771	6.62	0.63	-0.750			
0.5029	32188.21	3.5160	3.5159	-1.4966	6.63	0.64	-0.750			
0.5075	32477.60	3.5130	3.5131	-1.5067	6.63	0.64	-0.750			
0.5121	32774.05	3.5100	3.5099	-1.5096	6.64	0.65	-0.750			
0.5166	33065.09	3.5070	3.5071	-1.5164	6.65	0.66	-0.750			
0.5212	33355.20	3.5040	3.5038	-1.5032	6.65	0.66	-0.750			
0.5257	33644.49	3.5010	3.5010	-1.5209	6.66	0.67	-0.750			
0.5302	33935.40	3.4980	3.4980	-1.5231	6.67	0.68	-0.750			
0.5348	34228.26	3.4950	3.4949	-1.5288	6.68	0.69	-0.750			
0.5394	34521.89	3.4920	3.4923	-1.5240	6.69	0.70	-0.750			
0.5441	34821.07	3.4890	3.4891	-1.5339	6.70	0.71	-0.750			
0.5486	35111.10	3.4860	3.4859	-1.5329	6.71	0.72	-0.750			
0.5532	35407.06	3.4830	3.4830	-1.5287	6.72	0.73	-0.750			
0.5578	35697.24	3.4800	3.4800	-1.5264	6.73	0.74	-0.750			
0.5624	35995.06	3.4770	3.4769	-1.5232	6.74	0.75	-0.750			
0.5670	36285.26	3.4740	3.4740	-1.5160	6.75	0.76	-0.750			
0.5715	36575.23	3.4710	3.4708	-1.5006	6.75	0.76	-0.750			
0.5760	36864.48	3.4680	3.4680	-1.4902	6.76	0.77	-0.750			
0.5804	37146.49	3.4650	3.4651	-1.4733	6.77	0.78	-0.750			
0.5849	37430.57	3.4620	3.4620	-1.4666	6.79	0.80	-0.750			
0.5892	37709.13	3.4590	3.4590	-1.4361	6.81	0.82	-0.750			
0.5935	37986.42	3.4560	3.4560	-1.4316	6.83	0.84	-0.750			
0.5978	38257.75	3.4530	3.4531	-1.4103	6.84	0.85	-0.750			
0.6020	38529.75	3.4500	3.4498	-1.4028	6.85	0.86	-0.750			
0.6062	38797.59	3.4470	3.4471	-1.3960	6.86	0.87	-0.750			
0.6104	39065.09	3.4440	3.4440	-1.3783	6.87	0.88	-0.750			
0.6145	39329.07	3.4410	3.4409	-1.3721	6.88	0.89	-0.750			
0.6186	39593.52	3.4380	3.4383	-1.3666	6.89	0.90	-0.750			
0.6227	39853.34	3.4350	3.4350	-1.3529	6.90	0.91	-0.750			
0.6268	40113.98	3.4320	3.4319	-1.3289	6.92	0.93	-0.750			
0.6307	40367.16	3.4290	3.4292	-1.3026	6.93	0.94	-0.750			
0.6347	40619.80	3.4260	3.4260	-1.2883	6.94	0.95	-0.750			
0.6385	40862.44	3.4230	3.4229	-1.2555	6.95	0.96	-0.750			
0.6422	41098.45	3.4200	3.4199	-1.2199	6.97	0.98	-0.750			
0.6458	41330.27	3.4170	3.4169	-1.1951	6.98	0.99	-0.750			
0.6494	41559.28	3.4140	3.4140	-1.1680	7.00	1.01	-0.750			
0.6528	41781.30	3.4110	3.4110	-1.1447	7.02	1.03	-0.750			
0.6562	41995.99	3.4080	3.4082	-1.1226	7.03	1.04	-0.750			
0.6595	42209.55	3.4050	3.4050	-1.0999	7.05	1.06	-0.750			
0.6628	42419.47	3.4020	3.4019	-1.0750	7.06	1.07	-0.750			
0.6660	42624.28	3.3990	3.3990	-1.0499	7.08	1.09	-0.750			
0.6692	42825.94	3.3960	3.3961	-1.0273	7.09	1.10	-0.750			
0.6722	43019.06	3.3930	3.3930	-0.9997	7.11	1.12	-0.750			
0.6751	43207.76	3.3900	3.3899	-0.9680	7.12	1.13	-0.750			
0.6780	43390.57	3.3870	3.3869	-0.9412	7.14	1.15	-0.750			
0.6808	43569.39	3.3840	3.3842	-0.9160	7.15	1.16	-0.750			
0.6835	43741.64	3.3810	3.3810	-0.8962	7.16	1.17	-0.750			
0.6861	43912.00	3.3780	3.3779	-0.8718	7.17	1.18	-0.750			
0.6887	44077.09	3.3750	3.3749	-0.8491	7.19	1.20	-0.750			
0.6912	44236.81	3.3720	3.3720	-0.8296	7.20	1.21	-0.750			
0.6937	44393.99	3.3690	3.3693	-0.8116	7.21	1.22	-0.750			
0.6961	44548.29	3.3660	3.3660	-0.7921	7.23	1.24	-0.750			
0.6984	44698.77	3.3630	3.3629	-0.7710	7.24	1.25	-0.750			
0.7007	44844.08	3.3600	3.3600	-0.7508	7.26	1.27	-0.750			
0.7029	44987.95	3.3570	3.3570	-0.7299	7.27	1.28	-0.750			
0.7051	45124.82	3.3540	3.3539	-0.7102	7.28	1.29	-0.750			
0.7072	45258.29	3.3510	3.3511	-0.6915	7.30	1.31	-0.750			
0.7092	45388.87	3.3480	3.3479	-0.6760	7.31	1.32	-0.750			
0.7112	45516.71	3.3450	3.3450	-0.6631	7.32	1.33	-0.750			
0.7132	45642.16	3.3420	3.3420	-0.6567	7.34	1.35	-0.750			
0.7151	45768.56	3.3390	3.3390	-0.6643	7.35	1.36	-0.750			
