Ah_balance (normalized)	Ah_balance (mAh)	Voltage - fit (V)	Voltage -  interpolate (V)	dQ/dV (1/V)	Temperature (°C)	Temperature - diff (°C)	Current (C)	R_DC 0ms (mOhm)	R_DC 50ms (mOhm)	R_DC 50 ms PEC (mOhm)
0.1761	11272.86	4.0820	4.0820	0.7764	7.34	1.35	0.750			
0.1785	11421.59	4.0790	4.0790	0.7755	7.33	1.34	0.750			
0.1808	11570.53	4.0760	4.0760	0.7757	7.33	1.34	0.750			
0.1831	11719.70	4.0730	4.0730	0.7733	7.33	1.34	0.750			
0.1854	11868.45	4.0700	4.0701	0.7655	7.32	1.33	0.750			
0.1877	12015.64	4.0670	4.0670	0.7724	7.32	1.33	0.750			
0.1900	12161.83	4.0640	4.0640	0.7767	7.31	1.32	0.750			
0.1923	12309.01	4.0610	4.0609	0.7790	7.31	1.32	0.750			
0.1947	12459.62	4.0580	4.0581	0.7888	7.31	1.32	0.750			
0.1971	12614.29	4.0550	4.0550	0.7923	7.30	1.31	0.750			
0.1995	12767.80	4.0520	4.0520	0.7973	7.30	1.31	0.750			
0.2019	12922.37	4.0490	4.0491	0.8031	7.30	1.31	0.750			
0.2043	13074.20	4.0460	4.0461	0.8044	7.29	1.30	0.750			
0.2067	13227.82	4.0430	4.0429	0.8084	7.29	1.30	0.750			
0.2092	13386.55	4.0400	4.0400	0.8041	7.28	1.29	0.750			
0.2116	13540.10	4.0370	4.0371	0.8070	7.27	1.28	0.750			
0.2140	13697.53	4.0340	4.0341	0.8139	7.26	1.27	0.750			
0.2164	13850.91	4.0310	4.0311	0.8154	7.26	1.27	0.750			
0.2188	14005.94	4.0280	4.0280	0.8176	7.25	1.26	0.750			
0.2213	14164.22	4.0250	4.0250	0.8225	7.24	1.25	0.750			
0.2238	14323.71	4.0220	4.0221	0.8292	7.24	1.25	0.750			
0.2263	14485.18	4.0190	4.0190	0.8352	7.24	1.25	0.750			
0.2288	14644.82	4.0160	4.0161	0.8360	7.23	1.24	0.750			
0.2313	14805.45	4.0130	4.0131	0.8379	7.23	1.24	0.750			
0.2339	14966.79	4.0100	4.0100	0.8377	7.22	1.23	0.750			
0.2364	15128.17	4.0070	4.0070	0.8423	7.22	1.23	0.750			
0.2389	15290.00	4.0040	4.0041	0.8467	7.22	1.23	0.750			
0.2414	15452.54	4.0010	4.0010	0.8536	7.21	1.22	0.750			
0.2440	15617.01	3.9980	3.9981	0.8573	7.21	1.22	0.750			
0.2466	15783.22	3.9950	3.9950	0.8555	7.20	1.21	0.750			
0.2492	15947.17	3.9920	3.9920	0.8646	7.19	1.20	0.750			
0.2518	16113.79	3.9890	3.9891	0.8675	7.18	1.19	0.750			
0.2544	16280.66	3.9860	3.9860	0.8679	7.17	1.18	0.750			
0.2570	16446.60	3.9830	3.9829	0.8689	7.17	1.18	0.750			
0.2596	16613.65	3.9800	3.9802	0.8693	7.16	1.17	0.750			
0.2622	16781.78	3.9770	3.9770	0.8745	7.16	1.17	0.750			
0.2649	16951.29	3.9740	3.9739	0.8815	7.16	1.17	0.750			
0.2675	17118.25	3.9710	3.9710	0.8777	7.15	1.16	0.750			
0.2701	17287.26	3.9680	3.9680	0.8827	7.14	1.15	0.750			
0.2728	17456.70	3.9650	3.9650	0.8890	7.14	1.15	0.750			
0.2754	17627.45	3.9620	3.9621	0.8937	7.13	1.14	0.750			
0.2781	17798.96	3.9590	3.9590	0.9049	7.12	1.13	0.750			
0.2808	17974.10	3.9560	3.9559	0.9112	7.11	1.12	0.750			
0.2836	18151.31	3.9530	3.9530	0.9131	7.11	1.12	0.750			
0.2864	18327.80	3.9500	3.9500	0.9199	7.10	1.11	0.750			
0.2891	18503.64	3.9470	3.9471	0.9276	7.10	1.11	0.750			
0.2919	18681.94	3.9440	3.9439	0.9294	7.09	1.10	0.750			
0.2947	18861.95	3.9410	3.9410	0.9316	7.08	1.09	0.750			
0.2975	19039.15	3.9380	3.9381	0.9355	7.08	1.09	0.750			
0.3003	19220.09	3.9350	3.9350	0.9465	7.07	1.08	0.750			
0.3032	19403.74	3.9320	3.9320	0.9551	7.06	1.07	0.750			
0.3060	19585.83	3.9290	3.9289	0.9569	7.05	1.06	0.750			
0.3089	19769.32	3.9260	3.9261	0.9638	7.04	1.05	0.750			
0.3118	19957.49	3.9230	3.9230	0.9770	7.03	1.04	0.750			
0.3148	20145.88	3.9200	3.9200	0.9841	7.02	1.03	0.750			
0.3177	20334.71	3.9170	3.9169	0.9916	7.01	1.02	0.750			
0.3207	20527.09	3.9140	3.9141	0.9923	7.00	1.01	0.750			
0.3238	20720.56	3.9110	3.9110	0.9984	6.99	1.00	0.750			
0.3268	20918.39	3.9080	3.9079	0.9858	6.97	0.98	0.750			
0.3297	21103.33	3.9050	3.9050	0.9737	6.96	0.97	0.750			
0.3326	21289.48	3.9020	3.9023	0.9656	6.96	0.97	0.750			
0.3355	21468.94	3.8990	3.8990	0.9724	6.95	0.96	0.750			
0.3383	21652.38	3.8960	3.8958	0.9865	6.94	0.95	0.750			
0.3412	21836.98	3.8930	3.8931	1.0011	6.93	0.94	0.750			
0.3443	22035.88	3.8900	3.8900	1.0273	6.93	0.94	0.750			
0.3476	22244.04	3.8870	3.8870	1.0743	6.92	0.93	0.750			
0.3508	22449.20	3.8840	3.8840	1.0909	6.91	0.92	0.750			
0.3541	22662.02	3.8810	3.8811	1.1122	6.89	0.90	0.750			
0.3575	22876.91	3.8780	3.8781	1.1158	6.88	0.89	0.750			
0.3608	23091.59	3.8750	3.8751	1.1365	6.87	0.88	0.750			
0.3642	23311.44	3.8720	3.8721	1.1545	6.86	0.87	0.750			
0.3678	23537.83	3.8690	3.8685	1.1700	6.85	0.86	0.750			
0.3712	23759.41	3.8660	3.8661	1.1820	6.84	0.85	0.750			
0.3748	23987.85	3.8630	3.8631	1.2009	6.83	0.84	0.750			
0.3785	24224.77	3.8600	3.8601	1.2173	6.82	0.83	0.750			
0.3821	24456.24	3.8570	3.8570	1.2207	6.81	0.82	0.750			
0.3858	24693.59	3.8540	3.8541	1.2452	6.79	0.80	0.750			
0.3896	24933.51	3.8510	3.8510	1.2668	6.78	0.79	0.750			
0.3934	25177.14	3.8480	3.8480	1.2998	6.77	0.78	0.750			
0.3973	25427.21	3.8450	3.8451	1.3262	6.75	0.76	0.750			
0.4014	25686.61	3.8420	3.8419	1.3632	6.73	0.74	0.750			
0.4055	25954.76	3.8390	3.8381	1.3843	6.71	0.72	0.750	0.389	0.882	
0.4097	26219.69	3.8360	3.8361	1.4087	6.70	0.71	0.750			
0.4140	26493.34	3.8330	3.8331	1.4340	6.68	0.69	0.750			
0.4183	26770.27	3.8300	3.8296	1.4511	6.67	0.68	0.750			
0.4226	27048.47	3.8270	3.8269	1.4753	6.65	0.66	0.750			
0.4272	27339.70	3.8240	3.8240	1.4909	6.63	0.64	0.750			
0.4317	27628.57	3.8210	3.8207	1.4964	6.60	0.61	0.750			
0.4361	27909.54	3.8180	3.8182	1.5258	6.58	0.59	0.750			
0.4406	28199.79	3.8150	3.8153	1.5532	6.56	0.57	0.750			
0.4453	28502.04	3.8120	3.8117	1.6108	6.54	0.55	0.750			
0.4501	28808.91	3.8090	3.8090	1.6445	6.52	0.53	0.750			
0.4553	29136.49	3.8060	3.8060	1.7047	6.49	0.50	0.750			
0.4607	29481.74	3.8030	3.8030	1.7160	6.47	0.48	0.750			
0.4657	29807.97	3.8000	3.8002	1.7125	6.46	0.47	0.750			
0.4710	30141.04	3.7970	3.7972	1.7380	6.44	0.45	0.750			
0.4760	30465.85	3.7940	3.7939	1.7530	6.42	0.43	0.750			
0.4812	30799.33	3.7910	3.7909	1.7715	6.40	0.41	0.750			
0.4867	31147.97	3.7880	3.7878	1.8027	6.38	0.39	0.750			
0.4922	31503.13	3.7850	3.7850	1.8265	6.35	0.36	0.750			
0.4978	31857.25	3.7820	3.7820	1.8654	6.33	0.34	0.750			
0.5034	32215.76	3.7790	3.7790	1.9195	6.32	0.33	0.750			
0.5092	32586.64	3.7760	3.7756	1.9113	6.30	0.31	0.750			
0.5149	32954.35	3.7730	3.7731	1.9023	6.28	0.29	0.750			
0.5205	33313.92	3.7700	3.7700	1.8808	6.26	0.27	0.750			
0.5261	33667.93	3.7670	3.7670	1.9018	6.24	0.25	0.750			
0.5319	34040.42	3.7640	3.7639	1.9323	6.23	0.24	0.750			
0.5378	34417.20	3.7610	3.7608	2.0205	6.21	0.22	0.750			
0.5440	34815.61	3.7580	3.7582	2.0258	6.19	0.20	0.750			
0.5500	35198.58	3.7550	3.7552	2.0374	6.17	0.18	0.750			
0.5561	35592.15	3.7520	3.7519	2.0989	6.15	0.16	0.750			
0.5625	36000.21	3.7490	3.7489	2.1801	6.13	0.14	0.750			
0.5692	36427.94	3.7460	3.7459	2.1821	6.11	0.12	0.750			
0.5760	36861.94	3.7430	3.7429	2.2483	6.08	0.09	0.750			
0.5827	37292.47	3.7400	3.7399	2.2723	6.06	0.07	0.750			
0.5895	37727.45	3.7370	3.7371	2.3142	6.05	0.06	0.750			
0.5967	38188.04	3.7340	3.7340	2.3899	6.03	0.04	0.750			
0.6037	38635.75	3.7310	3.7310	2.3884	6.01	0.02	0.750			
0.6109	39099.20	3.7280	3.7279	2.4669	6.00	0.01	0.750			
0.6186	39592.52	3.7250	3.7250	2.4194	5.99	-0.00	0.750			
0.6259	40058.99	3.7220	3.7219	2.3304	5.97	-0.02	0.750			
0.6326	40484.73	3.7190	3.7188	2.1818	5.96	-0.03	0.750			
0.6389	40888.61	3.7160	3.7160	2.0602	5.95	-0.04	0.750			
0.6452	41295.93	3.7130	3.7127	1.9680	5.95	-0.04	0.750			
0.6508	41654.17	3.7100	3.7098	1.7657	5.94	-0.05	0.750			
0.6558	41974.06	3.7070	3.7068	1.5747	5.93	-0.06	0.750			
0.6602	42253.10	3.7040	3.7040	1.4134	5.93	-0.06	0.750			
0.6640	42495.47	3.7010	3.7011	1.2583	5.93	-0.06	0.750			
0.6674	42716.16	3.6980	3.6977	1.1593	5.93	-0.06	0.750			
0.6708	42930.90	3.6950	3.6951	1.0737	5.93	-0.06	0.750			
0.6739	43128.11	3.6920	3.6920	1.0239	5.93	-0.06	0.750			
0.6768	43318.21	3.6890	3.6891	0.9809	5.93	-0.06	0.750			
0.6797	43499.61	3.6860	3.6859	0.9354	5.93	-0.06	0.750			
0.6824	43676.21	3.6830	3.6831	0.9086	5.93	-0.06	0.750			
0.6852	43850.16	3.6800	3.6799	0.8681	5.93	-0.06	0.750			
0.6877	44012.61	3.6770	3.6770	0.8409	5.93	-0.06	0.750			
0.6902	44173.34	3.6740	3.6742	0.8137	5.93	-0.06	0.750			
0.6925	44323.00	3.6710	3.6707	0.7791	5.93	-0.06	0.750			
0.6949	44470.85	3.6680	3.6680	0.7522	5.93	-0.06	0.750			
0.6970	44610.98	3.6650	3.6651	0.7226	5.94	-0.05	0.750			
0.6992	44748.89	3.6620	3.6621	0.6874	5.94	-0.05	0.750			
0.7013	44880.04	3.6590	3.6590	0.6592	5.94	-0.05	0.750			
0.7032	45003.46	3.6560	3.6560	0.6276	5.95	-0.04	0.750			
0.7050	45120.15	3.6530	3.6530	0.5961	5.95	-0.04	0.750			
0.7067	45230.66	3.6500	3.6502	0.5697	5.95	-0.04	0.750			
0.7084	45338.20	3.6470	3.6469	0.5407	5.96	-0.03	0.750			
0.7100	45440.57	3.6440	3.6439	0.5030	5.96	-0.03	0.750			
0.7115	45537.19	3.6410	3.6409	0.4707	5.97	-0.02	0.750			
0.7128	45621.69	3.6380	3.6384	0.4297	5.97	-0.02	0.750			
0.7141	45701.03	3.6350	3.6348	0.3941	5.98	-0.01	0.750			
0.7152	45771.33	3.6320	3.6319	0.3548	5.98	-0.01	0.750			
0.7162	45835.06	3.6290	3.6290	0.3184	5.98	-0.01	0.750			
0.7171	45893.48	3.6260	3.6261	0.2877	5.99	-0.00	0.750			
0.7179	45947.64	3.6230	3.6229	0.2500	5.99	-0.00	0.750			
0.7186	45992.34	3.6200	3.6199	0.2111	5.99	0.00	0.750			
0.7192	46029.35	3.6170	3.6171	0.1704	5.99	0.00	0.750			
0.7197	46058.62	3.6140	3.6144	0.1286	6.00	0.01	0.750			
0.7200	46080.27	3.6110	3.6119	0.0845	6.00	0.01	0.750			
0.7202	46093.45	3.6080	3.6081	0.0344	6.00	0.01	0.750			
0.7202	46095.29	3.6050	3.6070	-0.0153	6.00	0.01	0.750			
