Ah_balance (normalized)	Ah_balance (mAh)	Voltage - fit (V)	Voltage -  interpolate (V)	dQ/dV (1/V)	Temperature (°C)	Temperature - diff (°C)	Current (C)	R_DC 0ms (mOhm)	R_DC 50ms (mOhm)	R_DC 50 ms PEC (mOhm)
0.1884	12055.21	4.0820	4.0820	0.7791	7.42	1.44	0.750			
0.1907	12206.75	4.0790	4.0789	0.7960	7.42	1.44	0.750			
0.1931	12361.28	4.0760	4.0759	0.8051	7.41	1.43	0.750			
0.1956	12516.57	4.0730	4.0731	0.8116	7.41	1.43	0.750			
0.1980	12673.93	4.0700	4.0700	0.8124	7.40	1.42	0.750			
0.2005	12831.41	4.0670	4.0670	0.8185	7.40	1.42	0.750			
0.2029	12988.00	4.0640	4.0641	0.8228	7.40	1.42	0.750			
0.2054	13145.59	4.0610	4.0610	0.8254	7.39	1.41	0.750			
0.2079	13304.31	4.0580	4.0580	0.8274	7.39	1.41	0.750			
0.2104	13464.48	4.0550	4.0551	0.8292	7.38	1.40	0.750			
0.2129	13623.59	4.0520	4.0520	0.8308	7.38	1.40	0.750			
0.2154	13784.42	4.0490	4.0490	0.8358	7.38	1.40	0.750			
0.2179	13943.18	4.0460	4.0460	0.8379	7.37	1.39	0.750			
0.2204	14104.59	4.0430	4.0430	0.8371	7.37	1.39	0.750			
0.2229	14267.46	4.0400	4.0400	0.8356	7.36	1.38	0.750			
0.2254	14426.62	4.0370	4.0370	0.8398	7.36	1.38	0.750			
0.2279	14587.29	4.0340	4.0341	0.8439	7.36	1.38	0.750			
0.2304	14748.59	4.0310	4.0310	0.8473	7.35	1.37	0.750			
0.2330	14911.56	4.0280	4.0280	0.8500	7.35	1.37	0.750			
0.2355	15075.17	4.0250	4.0251	0.8536	7.34	1.36	0.750			
0.2382	15241.66	4.0220	4.0220	0.8602	7.34	1.36	0.750			
0.2408	15408.45	4.0190	4.0191	0.8580	7.34	1.36	0.750			
0.2433	15572.36	4.0160	4.0159	0.8598	7.33	1.35	0.750			
0.2459	15736.67	4.0130	4.0131	0.8609	7.33	1.35	0.750			
0.2485	15902.39	4.0100	4.0100	0.8640	7.32	1.34	0.750			
0.2511	16067.72	4.0070	4.0070	0.8714	7.31	1.33	0.750			
0.2537	16235.43	4.0040	4.0040	0.8750	7.31	1.33	0.750			
0.2563	16403.92	4.0010	4.0009	0.8787	7.30	1.32	0.750			
0.2590	16575.67	3.9980	3.9980	0.8803	7.30	1.32	0.750			
0.2616	16743.78	3.9950	3.9951	0.8803	7.29	1.31	0.750			
0.2643	16913.16	3.9920	3.9920	0.8876	7.29	1.31	0.750			
0.2669	17082.69	3.9890	3.9890	0.8964	7.28	1.30	0.750			
0.2696	17254.49	3.9860	3.9859	0.8956	7.28	1.30	0.750			
0.2723	17429.03	3.9830	3.9831	0.8987	7.27	1.29	0.750			
0.2750	17602.76	3.9800	3.9800	0.9086	7.27	1.29	0.750			
0.2778	17777.85	3.9770	3.9771	0.9140	7.27	1.29	0.750			
0.2805	17952.97	3.9740	3.9738	0.9128	7.26	1.28	0.750			
0.2833	18128.87	3.9710	3.9711	0.9125	7.26	1.28	0.750			
0.2860	18303.76	3.9680	3.9681	0.9163	7.25	1.27	0.750			
0.2888	18481.10	3.9650	3.9650	0.9283	7.24	1.26	0.750			
0.2916	18660.44	3.9620	3.9620	0.9339	7.24	1.26	0.750			
0.2944	18838.86	3.9590	3.9588	0.9346	7.23	1.25	0.750			
0.2972	19019.89	3.9560	3.9561	0.9354	7.22	1.24	0.750			
0.3000	19200.40	3.9530	3.9530	0.9467	7.22	1.24	0.750			
0.3028	19382.30	3.9500	3.9500	0.9509	7.22	1.24	0.750			
0.3057	19564.44	3.9470	3.9469	0.9544	7.21	1.23	0.750			
0.3086	19748.37	3.9440	3.9440	0.9593	7.20	1.22	0.750			
0.3115	19933.56	3.9410	3.9411	0.9709	7.19	1.21	0.750			
0.3144	20121.06	3.9380	3.9380	0.9812	7.18	1.20	0.750			
0.3174	20310.64	3.9350	3.9350	0.9840	7.18	1.20	0.750			
0.3203	20501.31	3.9320	3.9320	0.9882	7.17	1.19	0.750			
0.3233	20691.23	3.9290	3.9290	0.9969	7.16	1.18	0.750			
0.3263	20883.89	3.9260	3.9260	0.9994	7.16	1.18	0.750			
0.3293	21075.93	3.9230	3.9230	1.0087	7.15	1.17	0.750			
0.3323	21269.52	3.9200	3.9199	1.0098	7.15	1.17	0.750			
0.3354	21463.60	3.9170	3.9170	1.0210	7.14	1.16	0.750			
0.3385	21661.06	3.9140	3.9139	1.0342	7.14	1.16	0.750			
0.3416	21860.39	3.9110	3.9111	1.0441	7.13	1.15	0.750			
0.3447	22063.04	3.9080	3.9079	1.0460	7.13	1.15	0.750			
0.3479	22263.95	3.9050	3.9051	1.0631	7.12	1.14	0.750			
0.3511	22467.24	3.9020	3.9020	1.0734	7.11	1.13	0.750			
0.3543	22675.51	3.8990	3.8990	1.0921	7.10	1.12	0.750			
0.3576	22885.95	3.8960	3.8960	1.1013	7.09	1.11	0.750			
0.3609	23099.49	3.8930	3.8931	1.1213	7.08	1.10	0.750			
0.3643	23318.12	3.8900	3.8901	1.1387	7.08	1.10	0.750			
0.3678	23540.16	3.8870	3.8869	1.1512	7.07	1.09	0.750			
0.3713	23761.24	3.8840	3.8841	1.1583	7.06	1.08	0.750			
0.3748	23984.98	3.8810	3.8810	1.1743	7.05	1.07	0.750			
0.3783	24211.19	3.8780	3.8781	1.1881	7.04	1.06	0.750			
0.3819	24440.64	3.8750	3.8749	1.1956	7.03	1.05	0.750			
0.3855	24672.09	3.8720	3.8720	1.2106	7.02	1.04	0.750			
0.3892	24905.93	3.8690	3.8690	1.2259	7.02	1.04	0.750			
0.3929	25144.21	3.8660	3.8659	1.2360	7.01	1.03	0.750			
0.3966	25382.43	3.8630	3.8630	1.2643	7.00	1.02	0.750			
0.4004	25622.68	3.8600	3.8600	1.2836	6.99	1.01	0.750			
0.4043	25874.18	3.8570	3.8571	1.3003	6.98	1.00	0.750			
0.4082	26123.09	3.8540	3.8541	1.3563	6.96	0.98	0.750			
0.4123	26387.05	3.8510	3.8510	1.3968	6.95	0.97	0.750			
0.4166	26661.78	3.8480	3.8479	1.4297	6.94	0.96	0.750	0.457	1.100	
0.4209	26940.60	3.8450	3.8453	1.4678	6.92	0.94	0.750			
0.4254	27227.95	3.8420	3.8422	1.4939	6.91	0.93	0.750			
0.4300	27521.42	3.8390	3.8389	1.5099	6.89	0.91	0.750			
0.4345	27806.72	3.8360	3.8361	1.5185	6.88	0.90	0.750			
0.4391	28104.61	3.8330	3.8330	1.5441	6.87	0.89	0.750			
0.4438	28405.32	3.8300	3.8299	1.5822	6.85	0.87	0.750			
0.4486	28711.03	3.8270	3.8271	1.6140	6.84	0.86	0.750			
0.4535	29021.76	3.8240	3.8238	1.6314	6.82	0.84	0.750			
0.4584	29338.57	3.8210	3.8210	1.6689	6.80	0.82	0.750			
0.4634	29656.04	3.8180	3.8181	1.7186	6.78	0.80	0.750			
0.4687	29996.89	3.8150	3.8149	1.7584	6.75	0.77	0.750			
0.4740	30335.78	3.8120	3.8119	1.7854	6.73	0.75	0.750			
0.4794	30681.65	3.8090	3.8092	1.8310	6.72	0.74	0.750			
0.4850	31038.83	3.8060	3.8059	1.8832	6.70	0.72	0.750			
0.4906	31400.21	3.8030	3.8029	1.9293	6.68	0.70	0.750			
0.4966	31779.41	3.8000	3.8001	1.9818	6.66	0.68	0.750			
0.5026	32167.81	3.7970	3.7970	2.0346	6.64	0.66	0.750			
0.5088	32561.55	3.7940	3.7940	2.0402	6.62	0.64	0.750			
0.5150	32958.16	3.7910	3.7911	2.0809	6.59	0.61	0.750			
0.5212	33355.22	3.7880	3.7880	2.1077	6.56	0.58	0.750			
0.5275	33762.50	3.7850	3.7850	2.1542	6.54	0.56	0.750			
0.5341	34183.22	3.7820	3.7820	2.1988	6.52	0.54	0.750			
0.5408	34612.98	3.7790	3.7791	2.2426	6.49	0.51	0.750			
0.5476	35045.26	3.7760	3.7760	2.2483	6.45	0.47	0.750			
0.5543	35472.55	3.7730	3.7731	2.2858	6.42	0.44	0.750			
0.5612	35915.59	3.7700	3.7699	2.3387	6.40	0.42	0.750			
0.5682	36367.03	3.7670	3.7671	2.3716	6.37	0.39	0.750			
0.5755	36833.96	3.7640	3.7640	2.3959	6.34	0.36	0.750			
0.5827	37292.89	3.7610	3.7610	2.3981	6.30	0.32	0.750			
0.5898	37749.05	3.7580	3.7580	2.4977	6.27	0.29	0.750			
0.5975	38238.23	3.7550	3.7548	2.5922	6.24	0.26	0.750			
0.6054	38748.60	3.7520	3.7521	2.7198	6.21	0.23	0.750			
0.6138	39281.79	3.7490	3.7490	2.7885	6.19	0.21	0.750			
0.6221	39815.20	3.7460	3.7462	2.9000	6.16	0.18	0.750			
0.6309	40376.26	3.7430	3.7430	3.2008	6.11	0.13	0.750			
0.6410	41021.19	3.7400	3.7400	3.2217	6.08	0.10	0.750			
0.6508	41649.86	3.7370	3.7367	3.2911	6.05	0.07	0.750			
0.6605	42270.99	3.7340	3.7342	3.3114	6.03	0.05	0.750			
0.6713	42966.18	3.7310	3.7309	3.2997	6.01	0.03	0.750			
0.6807	43565.52	3.7280	3.7281	2.9616	5.99	0.01	0.750			
0.6888	44081.55	3.7250	3.7249	2.5667	5.98	-0.00	0.750			
0.6961	44547.28	3.7220	3.7219	2.2519	5.97	-0.01	0.750			
0.7021	44936.31	3.7190	3.7192	1.9071	5.97	-0.01	0.750			
0.7073	45269.86	3.7160	3.7159	1.6052	5.97	-0.01	0.750			
0.7115	45536.80	3.7130	3.7129	1.3498	5.97	-0.01	0.750			
0.7147	45741.85	3.7100	3.7101	1.1350	5.97	-0.01	0.750			
0.7179	45942.47	3.7070	3.7069	1.0147	5.97	-0.01	0.750			
0.7206	46116.41	3.7040	3.7041	0.9062	5.97	-0.01	0.750			
0.7231	46278.60	3.7010	3.7010	0.8246	5.97	-0.01	0.750			
0.7255	46429.42	3.6980	3.6980	0.7567	5.98	-0.00	0.750			
0.7276	46569.40	3.6950	3.6949	0.6992	5.98	-0.00	0.750			
0.7296	46694.54	3.6920	3.6920	0.6343	5.98	-0.00	0.750			
0.7314	46810.64	3.6890	3.6888	0.5796	5.98	-0.00	0.750			
0.7331	46915.58	3.6860	3.6861	0.5243	5.98	0.00	0.750			
0.7346	47011.84	3.6830	3.6830	0.4748	5.98	0.00	0.750			
0.7359	47097.65	3.6800	3.6800	0.4242	5.98	0.00	0.750			
0.7371	47172.75	3.6770	3.6770	0.3751	5.98	0.00	0.750			
0.7381	47239.43	3.6740	3.6740	0.3315	5.99	0.01	0.750			
0.7390	47298.37	3.6710	3.6710	0.2889	5.99	0.01	0.750			
0.7398	47349.60	3.6680	3.6678	0.2488	5.99	0.01	0.750			
0.7405	47393.48	3.6650	3.6650	0.2095	5.99	0.01	0.750			
0.7411	47429.84	3.6620	3.6621	0.1706	5.99	0.01	0.750			
0.7416	47459.38	3.6590	3.6593	0.1324	5.99	0.01	0.750			
0.7419	47481.93	3.6560	3.6566	0.0925	5.99	0.01	0.750			
0.7421	47495.83	3.6530	3.6541	0.0514	5.99	0.01	0.750			
0.7422	47501.76	3.6500	3.6525	0.0103	5.99	0.01	0.750			
