Ah_balance (normalized)	Ah_balance (mAh)	Voltage - fit (V)	Voltage -  interpolate (V)	dQ/dV (1/V)	Temperature (°C)	Temperature - diff (°C)	Current (C)	R_DC 0ms (mOhm)	R_DC 50ms (mOhm)	R_DC 50 ms PEC (mOhm)
0.1809	11574.48	4.0800	4.0799	0.7484	7.40	1.43	0.750			
0.1831	11719.41	4.0770	4.0771	0.7604	7.40	1.43	0.750			
0.1855	11868.91	4.0740	4.0740	0.7670	7.39	1.42	0.750			
0.1877	12015.76	4.0710	4.0711	0.7697	7.39	1.42	0.750			
0.1901	12165.53	4.0680	4.0680	0.7758	7.39	1.42	0.750			
0.1924	12311.14	4.0650	4.0650	0.7791	7.38	1.41	0.750			
0.1947	12462.21	4.0620	4.0621	0.7816	7.38	1.41	0.750			
0.1971	12612.94	4.0590	4.0590	0.7857	7.38	1.41	0.750			
0.1995	12765.00	4.0560	4.0560	0.7893	7.38	1.41	0.750			
0.2018	12918.12	4.0530	4.0531	0.7933	7.37	1.40	0.750			
0.2042	13069.45	4.0500	4.0499	0.7943	7.37	1.40	0.750			
0.2066	13221.84	4.0470	4.0467	0.7991	7.37	1.40	0.750			
0.2090	13374.09	4.0440	4.0441	0.7997	7.37	1.40	0.750			
0.2115	13533.27	4.0410	4.0410	0.7934	7.36	1.39	0.750			
0.2138	13685.56	4.0380	4.0380	0.8019	7.36	1.39	0.750			
0.2162	13837.53	4.0350	4.0352	0.8081	7.35	1.38	0.750			
0.2186	13991.26	4.0320	4.0319	0.8088	7.35	1.38	0.750			
0.2210	14147.13	4.0290	4.0291	0.8124	7.34	1.37	0.750			
0.2235	14304.63	4.0260	4.0260	0.8115	7.34	1.37	0.750			
0.2260	14461.18	4.0230	4.0231	0.8203	7.33	1.36	0.750			
0.2285	14621.63	4.0200	4.0201	0.8332	7.32	1.35	0.750			
0.2309	14777.33	4.0170	4.0169	0.8296	7.31	1.34	0.750			
0.2334	14938.41	4.0140	4.0141	0.8340	7.31	1.34	0.750			
0.2360	15102.01	4.0110	4.0110	0.8313	7.30	1.33	0.750			
0.2385	15261.17	4.0080	4.0081	0.8321	7.30	1.33	0.750			
0.2410	15421.61	4.0050	4.0051	0.8375	7.30	1.33	0.750			
0.2434	15579.72	4.0020	4.0019	0.8343	7.29	1.32	0.750			
0.2459	15739.28	3.9990	3.9990	0.8395	7.29	1.32	0.750			
0.2485	15901.73	3.9960	3.9960	0.8360	7.28	1.31	0.750			
0.2510	16062.38	3.9930	3.9931	0.8470	7.28	1.31	0.750			
0.2536	16227.30	3.9900	3.9901	0.8610	7.28	1.31	0.750			
0.2561	16390.89	3.9870	3.9868	0.8608	7.27	1.30	0.750			
0.2588	16560.20	3.9840	3.9840	0.8578	7.27	1.30	0.750			
0.2614	16728.37	3.9810	3.9811	0.8519	7.26	1.29	0.750			
0.2640	16893.57	3.9780	3.9780	0.8313	7.26	1.29	0.750			
0.2662	17038.57	3.9750	3.9754	0.8522	7.25	1.28	0.750			
0.2687	17194.03	3.9720	3.9727	0.8572	7.25	1.28	0.750			
0.2713	17360.63	3.9690	3.9691	0.8904	7.24	1.27	0.750			
0.2740	17535.62	3.9660	3.9667	0.9014	7.23	1.26	0.750			
0.2768	17715.91	3.9630	3.9637	0.9195	7.23	1.26	0.750			
0.2798	17904.31	3.9600	3.9601	0.9293	7.22	1.25	0.750			
0.2826	18084.90	3.9570	3.9569	0.9187	7.21	1.24	0.750			
0.2852	18252.73	3.9540	3.9541	0.8776	7.21	1.24	0.750			
0.2879	18422.78	3.9510	3.9510	0.8952	7.21	1.24	0.750			
0.2905	18591.94	3.9480	3.9481	0.9075	7.21	1.24	0.750			
0.2932	18764.61	3.9450	3.9451	0.9138	7.21	1.24	0.750			
0.2960	18945.43	3.9420	3.9420	0.9204	7.21	1.24	0.750			
0.2987	19115.56	3.9390	3.9391	0.9664	7.20	1.23	0.750			
0.3016	19304.86	3.9360	3.9362	1.0051	7.20	1.23	0.750			
0.3048	19509.47	3.9330	3.9328	1.0334	7.19	1.22	0.750			
0.3080	19711.60	3.9300	3.9297	1.0423	7.19	1.22	0.750			
0.3112	19916.45	3.9270	3.9275	1.0459	7.18	1.21	0.750			
0.3145	20128.92	3.9240	3.9239	1.0347	7.17	1.20	0.750			
0.3176	20329.06	3.9210	3.9208	0.9869	7.16	1.19	0.750			
0.3203	20501.47	3.9180	3.9182	0.9362	7.15	1.18	0.750			
0.3229	20665.45	3.9150	3.9156	0.9351	7.14	1.17	0.750			
0.3256	20836.58	3.9120	3.9128	0.9621	7.13	1.16	0.750			
0.3285	21023.87	3.9090	3.9096	0.9970	7.12	1.15	0.750			
0.3315	21216.63	3.9060	3.9062	1.0280	7.11	1.14	0.750			
0.3347	21421.94	3.9030	3.9037	1.0490	7.10	1.13	0.750			
0.3381	21638.78	3.9000	3.9003	1.0686	7.09	1.12	0.750			
0.3415	21853.12	3.8970	3.8969	1.0744	7.09	1.12	0.750			
0.3445	22046.78	3.8940	3.8936	1.0457	7.08	1.11	0.750			
0.3476	22244.28	3.8910	3.8911	1.0514	7.07	1.10	0.750			
0.3508	22449.04	3.8880	3.8881	1.0686	7.06	1.09	0.750			
0.3540	22656.98	3.8850	3.8850	1.0858	7.06	1.09	0.750			
0.3573	22866.70	3.8820	3.8820	1.0868	7.05	1.08	0.750			
0.3606	23076.25	3.8790	3.8790	1.1071	7.04	1.07	0.750			
0.3639	23289.00	3.8760	3.8760	1.1255	7.03	1.06	0.750			
0.3673	23507.75	3.8730	3.8731	1.1441	7.02	1.05	0.750			
0.3708	23729.36	3.8700	3.8700	1.1534	7.01	1.04	0.750			
0.3743	23954.13	3.8670	3.8671	1.1705	6.99	1.02	0.750			
0.3778	24179.46	3.8640	3.8640	1.1856	6.98	1.01	0.750			
0.3814	24408.69	3.8610	3.8609	1.2014	6.97	1.00	0.750			
0.3850	24637.57	3.8580	3.8580	1.2167	6.96	0.99	0.750			
0.3886	24872.66	3.8550	3.8550	1.2397	6.95	0.98	0.750			
0.3925	25120.43	3.8520	3.8519	1.2479	6.94	0.97	0.750			
0.3962	25356.29	3.8490	3.8492	1.2794	6.92	0.95	0.750			
0.4000	25597.17	3.8460	3.8461	1.2995	6.91	0.94	0.750			
0.4039	25848.16	3.8430	3.8431	1.3317	6.90	0.93	0.750			
0.4079	26108.67	3.8400	3.8398	1.3550	6.89	0.92	0.750			
0.4120	26370.57	3.8370	3.8374	1.3962	6.87	0.90	0.750	0.402	0.926	
0.4164	26647.79	3.8340	3.8342	1.4318	6.86	0.89	0.750			
0.4209	26936.36	3.8310	3.8310	1.4584	6.84	0.87	0.750			
0.4252	27211.57	3.8280	3.8280	1.4803	6.83	0.86	0.750			
0.4295	27489.88	3.8250	3.8251	1.4714	6.82	0.85	0.750			
0.4340	27775.92	3.8220	3.8221	1.5045	6.80	0.83	0.750			
0.4385	28066.97	3.8190	3.8191	1.5427	6.78	0.81	0.750			
0.4431	28359.49	3.8160	3.8158	1.5648	6.76	0.79	0.750			
0.4480	28669.00	3.8130	3.8130	1.5914	6.75	0.78	0.750			
0.4528	28977.50	3.8100	3.8101	1.6216	6.73	0.76	0.750			
0.4577	29292.36	3.8070	3.8070	1.6713	6.71	0.74	0.750			
0.4627	29613.77	3.8040	3.8038	1.7007	6.69	0.72	0.750			
0.4679	29945.59	3.8010	3.8010	1.7307	6.67	0.70	0.750			
0.4732	30286.21	3.7980	3.7981	1.7601	6.66	0.69	0.750			
0.4786	30629.09	3.7950	3.7952	1.8088	6.64	0.67	0.750			
0.4840	30977.16	3.7920	3.7920	1.8140	6.62	0.65	0.750			
0.4894	31323.64	3.7890	3.7890	1.8227	6.60	0.63	0.750			
0.4949	31675.69	3.7860	3.7863	1.8464	6.58	0.61	0.750			
0.5006	32036.29	3.7830	3.7830	1.8995	6.55	0.58	0.750			
0.5063	32400.94	3.7800	3.7800	1.9068	6.53	0.56	0.750			
0.5122	32782.23	3.7770	3.7770	1.9590	6.51	0.54	0.750			
0.5181	33159.57	3.7740	3.7740	1.9667	6.48	0.51	0.750			
0.5240	33534.81	3.7710	3.7711	1.9828	6.46	0.49	0.750			
0.5299	33916.68	3.7680	3.7679	2.0092	6.44	0.47	0.750			
0.5360	34306.38	3.7650	3.7649	2.0458	6.42	0.45	0.750			
0.5422	34698.11	3.7620	3.7620	2.0667	6.40	0.43	0.750			
0.5484	35098.19	3.7590	3.7590	2.0284	6.37	0.40	0.750			
0.5545	35485.81	3.7560	3.7563	2.0212	6.34	0.37	0.750			
0.5605	35873.37	3.7530	3.7526	2.0300	6.32	0.35	0.750			
0.5665	36255.03	3.7500	3.7499	2.1318	6.30	0.33	0.750			
0.5732	36685.82	3.7470	3.7475	2.2478	6.27	0.30	0.750			
0.5800	37120.24	3.7440	3.7440	2.3295	6.24	0.27	0.750			
0.5872	37580.09	3.7410	3.7409	2.3281	6.21	0.24	0.750			
0.5943	38037.71	3.7380	3.7379	2.4007	6.18	0.21	0.750			
0.6016	38502.25	3.7350	3.7350	2.5074	6.16	0.19	0.750			
0.6092	38989.00	3.7320	3.7321	2.5634	6.14	0.17	0.750			
0.6170	39490.70	3.7290	3.7292	2.5840	6.12	0.15	0.750			
0.6250	40001.21	3.7260	3.7260	2.5288	6.09	0.12	0.750			
0.6323	40464.51	3.7230	3.7230	2.5363	6.07	0.10	0.750			
0.6403	40977.74	3.7200	3.7197	2.4418	6.04	0.07	0.750			
0.6474	41436.22	3.7170	3.7175	2.3013	6.02	0.05	0.750			
0.6539	41849.20	3.7140	3.7143	2.0909	6.01	0.04	0.750			
0.6600	42238.42	3.7110	3.7111	1.9255	6.00	0.03	0.750			
0.6657	42606.82	3.7080	3.7081	1.7806	5.99	0.02	0.750			
0.6707	42923.73	3.7050	3.7051	1.5659	5.98	0.01	0.750			
0.6749	43193.76	3.7020	3.7023	1.3721	5.98	0.01	0.750			
0.6788	43442.51	3.6990	3.6991	1.2453	5.97	0.00	0.750			
0.6822	43661.10	3.6960	3.6956	1.1232	5.97	-0.00	0.750			
0.6853	43860.86	3.6930	3.6931	1.0266	5.96	-0.01	0.750			
0.6882	44046.15	3.6900	3.6901	0.9728	5.96	-0.01	0.750			
0.6910	44223.71	3.6870	3.6869	0.9339	5.96	-0.01	0.750			
0.6937	44398.75	3.6840	3.6838	0.8862	5.95	-0.02	0.750			
0.6964	44566.52	3.6810	3.6811	0.8514	5.95	-0.02	0.750			
0.6989	44731.05	3.6780	3.6780	0.8042	5.95	-0.02	0.750			
0.7013	44881.41	3.6750	3.6750	0.7692	5.96	-0.01	0.750			
0.7035	45022.34	3.6720	3.6721	0.7308	5.96	-0.01	0.750			
0.7056	45156.27	3.6690	3.6690	0.6881	5.96	-0.01	0.750			
0.7075	45283.18	3.6660	3.6662	0.6495	5.96	-0.01	0.750			
0.7095	45407.03	3.6630	3.6632	0.6244	5.96	-0.01	0.750			
0.7113	45524.71	3.6600	3.6601	0.5934	5.96	-0.01	0.750			
0.7131	45640.56	3.6570	3.6568	0.5469	5.97	-0.00	0.750			
0.7147	45740.79	3.6540	3.6539	0.5003	5.97	-0.00	0.750			
0.7161	45830.25	3.6510	3.6512	0.4657	5.97	-0.00	0.750			
0.7174	45915.14	3.6480	3.6485	0.4295	5.97	-0.00	0.750			
0.7186	45993.32	3.6450	3.6445	0.3917	5.97	-0.00	0.750			
0.7198	46064.58	3.6420	3.6424	0.3582	5.97	0.00	0.750			
0.7208	46129.53	3.6390	3.6393	0.3240	5.97	0.00	0.750			
0.7217	46190.65	3.6360	3.6362	0.2934	5.97	0.00	0.750			
0.7226	46246.19	3.6330	3.6329	0.2511	5.97	0.00	0.750			
0.7233	46291.22	3.6300	3.6299	0.2164	5.97	0.00	0.750			
0.7239	46330.19	3.6270	3.6269	0.1822	5.97	0.00	0.750			
0.7244	46361.81	3.6240	3.6242	0.1440	5.97	0.00	0.750			
0.7248	46386.56	3.6210	3.6212	0.1048	5.97	0.00	0.750			
0.7250	46402.72	3.6180	3.6184	0.0636	5.97	0.00	0.750			
0.7252	46411.25	3.6150	3.6160	0.0152	5.97	0.00	0.750			
