Ah_balance (normalized)	Ah_balance (mAh)	Voltage - fit (V)	Voltage -  interpolate (V)	dQ/dV (1/V)	Temperature (°C)	Temperature - diff (°C)	Current (C)	R_DC 0ms (mOhm)	R_DC 50ms (mOhm)	R_DC 50 ms PEC (mOhm)
0.1791	11462.70	4.0820	4.0820	0.7526	7.46	1.49	0.750			
0.1814	11607.41	4.0790	4.0791	0.7572	7.45	1.48	0.750			
0.1837	11754.33	4.0760	4.0761	0.7645	7.45	1.48	0.750			
0.1860	11901.77	4.0730	4.0730	0.7685	7.45	1.48	0.750			
0.1883	12049.62	4.0700	4.0700	0.7678	7.44	1.47	0.750			
0.1906	12197.48	4.0670	4.0670	0.7738	7.44	1.47	0.750			
0.1929	12346.35	4.0640	4.0641	0.7757	7.43	1.46	0.750			
0.1952	12495.08	4.0610	4.0608	0.7809	7.43	1.46	0.750			
0.1976	12644.92	4.0580	4.0580	0.7854	7.43	1.46	0.750			
0.2000	12799.19	4.0550	4.0550	0.7823	7.42	1.45	0.750			
0.2023	12949.06	4.0520	4.0519	0.7892	7.42	1.45	0.750			
0.2047	13100.68	4.0490	4.0491	0.7925	7.42	1.45	0.750			
0.2070	13247.33	4.0460	4.0462	0.8109	7.41	1.44	0.750			
0.2095	13404.95	4.0430	4.0431	0.8290	7.41	1.44	0.750			
0.2120	13566.55	4.0400	4.0399	0.8378	7.40	1.43	0.750			
0.2145	13731.16	4.0370	4.0371	0.8473	7.39	1.42	0.750			
0.2172	13900.62	4.0340	4.0341	0.8525	7.38	1.41	0.750			
0.2197	14063.88	4.0310	4.0309	0.8409	7.37	1.40	0.750			
0.2223	14224.27	4.0280	4.0280	0.8361	7.37	1.40	0.750			
0.2247	14378.67	4.0250	4.0251	0.8169	7.36	1.39	0.750			
0.2271	14537.18	4.0220	4.0220	0.8267	7.36	1.39	0.750			
0.2296	14696.31	4.0190	4.0190	0.8299	7.36	1.39	0.750			
0.2321	14854.28	4.0160	4.0160	0.8276	7.35	1.38	0.750			
0.2346	15013.45	4.0130	4.0131	0.8326	7.34	1.37	0.750			
0.2371	15175.82	4.0100	4.0100	0.8319	7.34	1.37	0.750			
0.2396	15333.45	4.0070	4.0070	0.8386	7.33	1.36	0.750			
0.2421	15494.85	4.0040	4.0040	0.8437	7.32	1.35	0.750			
0.2446	15656.90	4.0010	4.0010	0.8441	7.31	1.34	0.750			
0.2472	15819.91	3.9980	3.9980	0.8500	7.30	1.33	0.750			
0.2497	15983.93	3.9950	3.9952	0.8558	7.29	1.32	0.750			
0.2523	16148.18	3.9920	3.9920	0.8604	7.28	1.31	0.750			
0.2549	16312.50	3.9890	3.9890	0.8635	7.27	1.30	0.750			
0.2575	16478.85	3.9860	3.9858	0.8740	7.26	1.29	0.750			
0.2601	16649.54	3.9830	3.9830	0.8778	7.25	1.28	0.750			
0.2628	16819.17	3.9800	3.9800	0.8825	7.24	1.27	0.750			
0.2655	16990.18	3.9770	3.9771	0.8835	7.24	1.27	0.750			
0.2681	17158.81	3.9740	3.9740	0.8849	7.23	1.26	0.750			
0.2707	17326.88	3.9710	3.9709	0.8862	7.22	1.25	0.750			
0.2734	17499.74	3.9680	3.9680	0.8792	7.21	1.24	0.750			
0.2760	17665.96	3.9650	3.9649	0.8835	7.21	1.24	0.750			
0.2787	17836.33	3.9620	3.9622	0.8907	7.20	1.23	0.750			
0.2814	18007.14	3.9590	3.9591	0.8977	7.19	1.22	0.750			
0.2841	18179.25	3.9560	3.9558	0.9018	7.19	1.22	0.750			
0.2868	18354.42	3.9530	3.9531	0.8955	7.18	1.21	0.750			
0.2895	18524.90	3.9500	3.9501	0.9114	7.17	1.20	0.750			
0.2922	18702.21	3.9470	3.9471	0.9217	7.16	1.19	0.750			
0.2950	18879.31	3.9440	3.9437	0.9222	7.15	1.18	0.750			
0.2978	19057.09	3.9410	3.9411	0.9276	7.14	1.17	0.750			
0.3005	19235.07	3.9380	3.9381	0.9408	7.13	1.16	0.750			
0.3034	19419.20	3.9350	3.9350	0.9523	7.12	1.15	0.750			
0.3063	19601.29	3.9320	3.9319	0.9502	7.12	1.15	0.750			
0.3092	19786.49	3.9290	3.9291	0.9552	7.11	1.14	0.750			
0.3120	19970.65	3.9260	3.9261	0.9655	7.10	1.13	0.750			
0.3149	20156.00	3.9230	3.9230	0.9745	7.09	1.12	0.750			
0.3179	20342.87	3.9200	3.9200	0.9821	7.08	1.11	0.750			
0.3208	20530.56	3.9170	3.9169	0.9904	7.07	1.10	0.750			
0.3238	20723.34	3.9140	3.9141	1.0017	7.06	1.09	0.750			
0.3268	20917.66	3.9110	3.9111	1.0139	7.05	1.08	0.750			
0.3299	21114.26	3.9080	3.9080	1.0228	7.04	1.07	0.750			
0.3330	21311.22	3.9050	3.9048	1.0310	7.03	1.06	0.750			
0.3361	21508.02	3.9020	3.9020	1.0347	7.02	1.05	0.750			
0.3392	21707.68	3.8990	3.8990	1.0447	7.01	1.04	0.750			
0.3423	21909.01	3.8960	3.8960	1.0554	7.00	1.03	0.750			
0.3456	22115.23	3.8930	3.8929	1.0566	6.99	1.02	0.750			
0.3487	22314.91	3.8900	3.8900	1.0713	6.98	1.01	0.750			
0.3519	22521.56	3.8870	3.8871	1.0859	6.97	1.00	0.750			
0.3552	22730.33	3.8840	3.8841	1.1019	6.96	0.99	0.750			
0.3585	22946.91	3.8810	3.8807	1.1085	6.95	0.98	0.750			
0.3619	23158.95	3.8780	3.8782	1.1299	6.94	0.97	0.750			
0.3653	23376.89	3.8750	3.8751	1.1505	6.93	0.96	0.750			
0.3688	23601.41	3.8720	3.8720	1.1684	6.92	0.95	0.750			
0.3723	23825.30	3.8690	3.8691	1.1736	6.90	0.93	0.750			
0.3758	24052.36	3.8660	3.8661	1.1937	6.89	0.92	0.750			
0.3794	24283.61	3.8630	3.8631	1.2126	6.87	0.90	0.750			
0.3832	24523.86	3.8600	3.8599	1.2251	6.86	0.89	0.750			
0.3868	24754.47	3.8570	3.8570	1.2356	6.84	0.87	0.750			
0.3905	24991.92	3.8540	3.8542	1.2628	6.83	0.86	0.750			
0.3943	25236.66	3.8510	3.8509	1.2861	6.81	0.84	0.750			
0.3982	25484.49	3.8480	3.8481	1.3271	6.80	0.83	0.750			
0.4022	25741.18	3.8450	3.8447	1.3548	6.79	0.82	0.750			
0.4064	26006.47	3.8420	3.8422	1.3818	6.78	0.81	0.750	0.399	0.922	
0.4106	26278.09	3.8390	3.8391	1.4111	6.76	0.79	0.750			
0.4149	26553.36	3.8360	3.8361	1.4360	6.74	0.77	0.750			
0.4193	26832.47	3.8330	3.8329	1.4400	6.72	0.75	0.750			
0.4236	27108.89	3.8300	3.8300	1.4491	6.70	0.73	0.750			
0.4279	27387.86	3.8270	3.8271	1.4772	6.69	0.72	0.750			
0.4324	27672.28	3.8240	3.8239	1.5074	6.67	0.70	0.750			
0.4369	27963.30	3.8210	3.8212	1.5281	6.66	0.69	0.750			
0.4415	28257.30	3.8180	3.8180	1.5662	6.64	0.67	0.750			
0.4463	28560.39	3.8150	3.8148	1.6299	6.63	0.66	0.750			
0.4513	28881.69	3.8120	3.8120	1.6612	6.61	0.64	0.750			
0.4564	29211.74	3.8090	3.8090	1.6757	6.59	0.62	0.750			
0.4615	29536.68	3.8060	3.8062	1.6997	6.57	0.60	0.750			
0.4666	29860.56	3.8030	3.8030	1.7170	6.55	0.58	0.750			
0.4716	30185.06	3.8000	3.7998	1.7448	6.53	0.56	0.750			
0.4769	30523.23	3.7970	3.7969	1.7682	6.51	0.54	0.750			
0.4824	30871.90	3.7940	3.7939	1.8032	6.49	0.52	0.750			
0.4879	31223.56	3.7910	3.7910	1.8211	6.47	0.50	0.750			
0.4934	31575.57	3.7880	3.7880	1.8588	6.46	0.49	0.750			
0.4990	31934.20	3.7850	3.7849	1.8685	6.43	0.46	0.750			
0.5046	32294.83	3.7820	3.7819	1.8868	6.41	0.44	0.750			
0.5102	32654.77	3.7790	3.7791	1.9189	6.38	0.41	0.750			
0.5161	33027.81	3.7760	3.7761	1.9729	6.36	0.39	0.750			
0.5221	33416.45	3.7730	3.7729	1.9589	6.34	0.37	0.750			
0.5280	33793.48	3.7700	3.7701	1.9547	6.33	0.36	0.750			
0.5338	34164.37	3.7670	3.7674	1.9548	6.31	0.34	0.750			
0.5397	34541.17	3.7640	3.7639	1.9948	6.28	0.31	0.750			
0.5457	34923.82	3.7610	3.7609	2.0225	6.25	0.28	0.750			
0.5521	35331.90	3.7580	3.7585	2.0615	6.23	0.26	0.750			
0.5581	35719.26	3.7550	3.7549	2.0781	6.21	0.24	0.750			
0.5643	36114.61	3.7520	3.7520	2.1206	6.19	0.22	0.750			
0.5708	36532.81	3.7490	3.7492	2.1957	6.17	0.20	0.750			
0.5774	36955.08	3.7460	3.7460	2.2744	6.15	0.18	0.750			
0.5844	37403.59	3.7430	3.7429	2.2967	6.13	0.16	0.750			
0.5915	37853.75	3.7400	3.7401	2.3657	6.10	0.13	0.750			
0.5986	38311.64	3.7370	3.7368	2.4066	6.08	0.11	0.750			
0.6058	38773.80	3.7340	3.7338	2.4664	6.06	0.09	0.750			
0.6135	39262.50	3.7310	3.7309	2.5067	6.04	0.07	0.750			
0.6211	39753.38	3.7280	3.7279	2.5000	6.03	0.06	0.750			
0.6284	40220.47	3.7250	3.7251	2.4431	6.00	0.03	0.750			
0.6358	40690.79	3.7220	3.7220	2.3545	5.99	0.02	0.750			
0.6427	41135.17	3.7190	3.7189	2.1797	5.97	0.00	0.750			
0.6492	41549.17	3.7160	3.7160	2.0073	5.96	-0.01	0.750			
0.6548	41904.81	3.7130	3.7131	1.7711	5.96	-0.01	0.750			
0.6596	42213.33	3.7100	3.7101	1.5534	5.95	-0.02	0.750			
0.6639	42491.88	3.7070	3.7071	1.4015	5.95	-0.02	0.750			
0.6678	42741.97	3.7040	3.7041	1.2661	5.95	-0.02	0.750			
0.6714	42967.50	3.7010	3.7010	1.1583	5.95	-0.02	0.750			
0.6746	43173.82	3.6980	3.6980	1.0644	5.94	-0.03	0.750			
0.6776	43364.96	3.6950	3.6951	0.9961	5.94	-0.03	0.750			
0.6805	43551.11	3.6920	3.6920	0.9481	5.93	-0.04	0.750			
0.6832	43724.34	3.6890	3.6889	0.9002	5.93	-0.04	0.750			
0.6858	43891.95	3.6860	3.6859	0.8646	5.93	-0.04	0.750			
0.6884	44055.12	3.6830	3.6830	0.8316	5.94	-0.03	0.750			
0.6908	44212.29	3.6800	3.6800	0.8006	5.94	-0.03	0.750			
0.6932	44362.88	3.6770	3.6770	0.7678	5.95	-0.02	0.750			
0.6954	44508.52	3.6740	3.6737	0.7353	5.95	-0.02	0.750			
0.6976	44646.45	3.6710	3.6710	0.6990	5.95	-0.02	0.750			
0.6996	44776.95	3.6680	3.6681	0.6648	5.96	-0.01	0.750			
0.7016	44901.84	3.6650	3.6650	0.6267	5.96	-0.01	0.750			
0.7034	45019.02	3.6620	3.6619	0.5906	5.96	-0.01	0.750			
0.7051	45127.75	3.6590	3.6590	0.5524	5.97	-0.00	0.750			
0.7067	45229.89	3.6560	3.6561	0.5161	5.97	-0.00	0.750			
0.7082	45326.28	3.6530	3.6529	0.4812	5.97	0.00	0.750			
0.7096	45415.04	3.6500	3.6500	0.4437	5.97	0.00	0.750			
0.7109	45495.71	3.6470	3.6471	0.4070	5.97	0.00	0.750			
0.7120	45571.08	3.6440	3.6440	0.3742	5.98	0.01	0.750			
0.7131	45639.32	3.6410	3.6409	0.3377	5.98	0.01	0.750			
0.7141	45700.45	3.6380	3.6380	0.3031	5.98	0.01	0.750			
0.7150	45757.14	3.6350	3.6350	0.2674	5.98	0.01	0.750			
0.7157	45805.68	3.6320	3.6320	0.2336	5.98	0.01	0.750			
0.7164	45847.39	3.6290	3.6288	0.1966	5.98	0.01	0.750			
0.7169	45881.26	3.6260	3.6261	0.1570	5.98	0.01	0.750			
0.7173	45907.89	3.6230	3.6234	0.1178	5.98	0.01	0.750			
0.7176	45927.60	3.6200	3.6206	0.0774	5.99	0.02	0.750			
0.7178	45940.70	3.6170	3.6168	0.0293	5.99	0.02	0.750			
0.7178	45941.77	3.6140	3.6161	-0.0181	5.99	0.02	0.750			
