Ah_balance (normalized)	Ah_balance (mAh)	Voltage - fit (V)	Voltage -  interpolate (V)	dQ/dV (1/V)	Temperature (°C)	Temperature - diff (°C)	Current (C)	R_DC 0ms (mOhm)	R_DC 50ms (mOhm)	R_DC 50 ms PEC (mOhm)
0.0941	6020.31	4.0100	4.0098	-0.0822	5.98	0.01	-0.750			
0.0944	6039.58	4.0070	4.0066	-0.1143	5.98	0.01	-0.750			
0.0948	6064.44	4.0040	4.0040	-0.1445	5.98	0.01	-0.750			
0.0953	6096.13	4.0010	4.0010	-0.1702	5.98	0.01	-0.750			
0.0958	6131.60	3.9980	3.9980	-0.1949	5.97	0.00	-0.750			
0.0965	6173.34	3.9950	3.9950	-0.2202	5.97	0.00	-0.750			
0.0971	6217.35	3.9920	3.9923	-0.2420	5.97	-0.00	-0.750			
0.0979	6266.15	3.9890	3.9888	-0.2624	5.97	-0.00	-0.750			
0.0987	6317.74	3.9860	3.9860	-0.2864	5.96	-0.01	-0.750			
0.0996	6374.25	3.9830	3.9830	-0.3102	5.96	-0.01	-0.750			
0.1006	6436.49	3.9800	3.9800	-0.3363	5.96	-0.01	-0.750			
0.1016	6503.53	3.9770	3.9770	-0.3629	5.96	-0.01	-0.750			
0.1027	6575.95	3.9740	3.9740	-0.3889	5.95	-0.02	-0.750			
0.1040	6653.41	3.9710	3.9710	-0.4136	5.95	-0.02	-0.750			
0.1053	6736.21	3.9680	3.9679	-0.4397	5.94	-0.03	-0.750			
0.1066	6822.68	3.9650	3.9651	-0.4607	5.94	-0.03	-0.750			
0.1080	6913.91	3.9620	3.9619	-0.4825	5.93	-0.04	-0.750			
0.1095	7008.31	3.9590	3.9592	-0.5059	5.93	-0.04	-0.750			
0.1111	7107.43	3.9560	3.9560	-0.5252	5.93	-0.04	-0.750			
0.1127	7209.90	3.9530	3.9530	-0.5485	5.93	-0.04	-0.750			
0.1143	7318.10	3.9500	3.9500	-0.5671	5.92	-0.05	-0.750			
0.1161	7430.00	3.9470	3.9469	-0.5914	5.92	-0.05	-0.750			
0.1179	7545.89	3.9440	3.9440	-0.6081	5.92	-0.05	-0.750			
0.1198	7664.48	3.9410	3.9409	-0.6236	5.91	-0.06	-0.750			
0.1216	7785.41	3.9380	3.9382	-0.6404	5.91	-0.06	-0.750			
0.1236	7911.35	3.9350	3.9349	-0.6513	5.91	-0.06	-0.750			
0.1256	8036.79	3.9320	3.9319	-0.6627	5.91	-0.06	-0.750			
0.1276	8166.20	3.9290	3.9291	-0.6747	5.91	-0.06	-0.750			
0.1296	8295.43	3.9260	3.9260	-0.6837	5.91	-0.06	-0.750			
0.1317	8430.32	3.9230	3.9229	-0.6968	5.91	-0.06	-0.750			
0.1338	8565.72	3.9200	3.9199	-0.7005	5.91	-0.06	-0.750			
0.1359	8700.40	3.9170	3.9169	-0.7082	5.91	-0.06	-0.750			
0.1381	8837.60	3.9140	3.9141	-0.7187	5.91	-0.06	-0.750			
0.1402	8974.78	3.9110	3.9110	-0.7272	5.91	-0.06	-0.750			
0.1424	9116.06	3.9080	3.9079	-0.7346	5.91	-0.06	-0.750			
0.1447	9258.96	3.9050	3.9049	-0.7407	5.91	-0.06	-0.750			
0.1469	9403.07	3.9020	3.9023	-0.7422	5.91	-0.06	-0.750			
0.1492	9548.48	3.8990	3.8989	-0.7464	5.91	-0.06	-0.750			
0.1514	9689.47	3.8960	3.8961	-0.7426	5.91	-0.06	-0.750			
0.1536	9830.06	3.8930	3.8930	-0.7511	5.92	-0.05	-0.750			
0.1559	9976.35	3.8900	3.8899	-0.7611	5.92	-0.05	-0.750			
0.1582	10123.77	3.8870	3.8869	-0.7652	5.92	-0.05	-0.750			
0.1605	10272.66	3.8840	3.8840	-0.7707	5.92	-0.05	-0.750			
0.1628	10420.49	3.8810	3.8811	-0.7775	5.92	-0.05	-0.750			
0.1652	10570.11	3.8780	3.8780	-0.7770	5.92	-0.05	-0.750			
0.1675	10716.84	3.8750	3.8750	-0.7719	5.93	-0.04	-0.750			
0.1698	10868.41	3.8720	3.8720	-0.7777	5.93	-0.04	-0.750			
0.1722	11018.07	3.8690	3.8694	-0.7778	5.93	-0.04	-0.750			
0.1745	11166.98	3.8660	3.8660	-0.7772	5.93	-0.04	-0.750			
0.1768	11315.82	3.8630	3.8630	-0.7802	5.93	-0.04	-0.750			
0.1791	11464.33	3.8600	3.8600	-0.7818	5.94	-0.03	-0.750			
0.1815	11615.92	3.8570	3.8569	-0.7866	5.94	-0.03	-0.750			
0.1839	11766.62	3.8540	3.8540	-0.7912	5.94	-0.03	-0.750			
0.1862	11919.97	3.8510	3.8510	-0.7963	5.94	-0.03	-0.750			
0.1886	12072.37	3.8480	3.8481	-0.8014	5.95	-0.02	-0.750			
0.1910	12226.92	3.8450	3.8449	-0.8005	5.96	-0.01	-0.750			
0.1935	12380.97	3.8420	3.8420	-0.8000	5.96	-0.01	-0.750			
0.1959	12535.50	3.8390	3.8390	-0.7999	5.97	-0.00	-0.750			
0.1983	12691.07	3.8360	3.8359	-0.7885	5.97	0.00	-0.750			
0.2006	12838.41	3.8330	3.8331	-0.7926	5.98	0.01	-0.750			
0.2030	12990.90	3.8300	3.8300	-0.7938	5.98	0.01	-0.750			
0.2053	13141.90	3.8270	3.8269	-0.7942	5.98	0.01	-0.750			
0.2078	13297.17	3.8240	3.8239	-0.7963	5.99	0.02	-0.750			
0.2102	13450.47	3.8210	3.8212	-0.7986	5.99	0.02	-0.750			
0.2126	13604.15	3.8180	3.8180	-0.8005	5.99	0.02	-0.750			
0.2150	13759.70	3.8150	3.8150	-0.8157	6.00	0.03	-0.750			
0.2174	13913.89	3.8120	3.8118	-0.7988	6.00	0.03	-0.750			
0.2198	14070.26	3.8090	3.8089	-0.8051	6.01	0.04	-0.750			
0.2223	14224.52	3.8060	3.8064	-0.8078	6.01	0.04	-0.750			
0.2247	14379.77	3.8030	3.8028	-0.8100	6.01	0.04	-0.750			
0.2271	14534.61	3.8000	3.7999	-0.8134	6.02	0.05	-0.750			
0.2295	14688.41	3.7970	3.7970	-0.8087	6.02	0.05	-0.750			
0.2320	14846.01	3.7940	3.7940	-0.8118	6.03	0.06	-0.750			
0.2344	15004.41	3.7910	3.7911	-0.8118	6.03	0.06	-0.750			
0.2369	15158.73	3.7880	3.7880	-0.8080	6.03	0.06	-0.750			
0.2393	15312.85	3.7850	3.7850	-0.8094	6.04	0.07	-0.750			
0.2417	15466.80	3.7820	3.7819	-0.8082	6.04	0.07	-0.750			
0.2441	15622.66	3.7790	3.7789	-0.8095	6.05	0.08	-0.750			
0.2466	15779.98	3.7760	3.7762	-0.8148	6.05	0.08	-0.750			
0.2490	15936.30	3.7730	3.7729	-0.8121	6.06	0.09	-0.750			
0.2514	16092.40	3.7700	3.7700	-0.8135	6.06	0.09	-0.750			
0.2539	16247.50	3.7670	3.7670	-0.8137	6.07	0.10	-0.750			
0.2563	16402.89	3.7640	3.7640	-0.8098	6.08	0.11	-0.750			
0.2588	16561.13	3.7610	3.7610	-0.8112	6.09	0.12	-0.750			
0.2612	16716.90	3.7580	3.7580	-0.8090	6.09	0.12	-0.750			
0.2636	16872.29	3.7550	3.7551	-0.8074	6.10	0.13	-0.750			
0.2660	17026.53	3.7520	3.7520	-0.8085	6.10	0.13	-0.750			
0.2684	17180.12	3.7490	3.7490	-0.8057	6.10	0.13	-0.750			
0.2709	17334.88	3.7460	3.7459	-0.8054	6.11	0.14	-0.750			
0.2733	17490.11	3.7430	3.7430	-0.8096	6.11	0.14	-0.750			
0.2757	17644.74	3.7400	3.7401	-0.8176	6.12	0.15	-0.750			
0.2782	17802.73	3.7370	3.7369	-0.8196	6.12	0.15	-0.750			
0.2806	17961.16	3.7340	3.7340	-0.8230	6.13	0.16	-0.750			
0.2831	18119.95	3.7310	3.7309	-0.8262	6.14	0.17	-0.750			
0.2856	18279.91	3.7280	3.7280	-0.8306	6.14	0.17	-0.750			
0.2881	18438.05	3.7250	3.7250	-0.8429	6.15	0.18	-0.750			
0.2906	18601.30	3.7220	3.7220	-0.8378	6.15	0.18	-0.750			
0.2932	18761.92	3.7190	3.7189	-0.8313	6.16	0.19	-0.750			
0.2957	18923.72	3.7160	3.7160	-0.8382	6.17	0.20	-0.750			
0.2982	19083.66	3.7130	3.7128	-0.8430	6.17	0.20	-0.750			
0.3007	19244.14	3.7100	3.7099	-0.8532	6.18	0.21	-0.750			
0.3032	19406.05	3.7070	3.7070	-0.8611	6.18	0.21	-0.750			
0.3058	19573.55	3.7040	3.7040	-0.8651	6.18	0.21	-0.750			
0.3085	19745.85	3.7010	3.7009	-0.8821	6.19	0.22	-0.750			
0.3112	19917.73	3.6980	3.6979	-0.8846	6.19	0.22	-0.750			
0.3138	20086.07	3.6950	3.6951	-0.8913	6.20	0.23	-0.750			
0.3165	20255.09	3.6920	3.6919	-0.8953	6.20	0.23	-0.750			
0.3192	20426.24	3.6890	3.6889	-0.9017	6.21	0.24	-0.750			
0.3219	20604.07	3.6860	3.6860	-0.9042	6.21	0.24	-0.750			
0.3246	20776.22	3.6830	3.6831	-0.9273	6.21	0.24	-0.750			
0.3274	20956.15	3.6800	3.6801	-0.9419	6.21	0.24	-0.750			
0.3303	21137.87	3.6770	3.6767	-0.9503	6.21	0.24	-0.750			
0.3331	21321.60	3.6740	3.6740	-0.9590	6.21	0.24	-0.750			
0.3360	21506.96	3.6710	3.6710	-0.9681	6.21	0.24	-0.750			
0.3390	21697.81	3.6680	3.6680	-0.9805	6.22	0.25	-0.750			
0.3420	21886.07	3.6650	3.6649	-0.9884	6.22	0.25	-0.750			
0.3448	22069.76	3.6620	3.6620	-0.9900	6.23	0.26	-0.750			
0.3479	22262.51	3.6590	3.6591	-1.0140	6.23	0.26	-0.750			
0.3509	22459.30	3.6560	3.6558	-1.0297	6.23	0.26	-0.750			
0.3540	22658.59	3.6530	3.6530	-1.0443	6.23	0.26	-0.750			
0.3572	22859.85	3.6500	3.6500	-1.0572	6.23	0.26	-0.750			
0.3604	23066.04	3.6470	3.6471	-1.0836	6.23	0.26	-0.750			
0.3637	23276.08	3.6440	3.6439	-1.0841	6.24	0.27	-0.750			
0.3670	23485.84	3.6410	3.6409	-1.0916	6.24	0.27	-0.750			
0.3702	23695.28	3.6380	3.6379	-1.1028	6.25	0.28	-0.750			
0.3736	23908.32	3.6350	3.6350	-1.1163	6.25	0.28	-0.750			
0.3769	24123.46	3.6320	3.6319	-1.1253	6.25	0.28	-0.750			
0.3803	24338.82	3.6290	3.6291	-1.1393	6.25	0.28	-0.750			
0.3836	24548.02	3.6260	3.6261	-1.1901	6.25	0.28	-0.750			
0.3873	24785.12	3.6230	3.6230	-1.2472	6.25	0.28	-0.750			
0.3911	25033.37	3.6200	3.6196	-1.2729	6.26	0.29	-0.750			
0.3951	25284.54	3.6170	3.6169	-1.2974	6.27	0.30	-0.750			
0.3992	25546.51	3.6140	3.6143	-1.3007	6.27	0.30	-0.750			
0.4032	25802.00	3.6110	3.6110	-1.3113	6.27	0.30	-0.750			
0.4070	26049.87	3.6080	3.6079	-1.2916	6.27	0.30	-0.750			
0.4107	26282.33	3.6050	3.6050	-1.2691	6.27	0.30	-0.750			
0.4146	26531.89	3.6020	3.6018	-1.2880	6.27	0.30	-0.750			
0.4184	26780.60	3.5990	3.5990	-1.2981	6.27	0.30	-0.750	0.470	1.085	
0.4224	27031.39	3.5960	3.5961	-1.3209	6.27	0.30	-0.750			
0.4264	27287.32	3.5930	3.5929	-1.3394	6.28	0.31	-0.750			
0.4303	27541.48	3.5900	3.5899	-1.3441	6.28	0.31	-0.750			
0.4344	27803.72	3.5870	3.5873	-1.3736	6.29	0.32	-0.750			
0.4386	28073.02	3.5840	3.5839	-1.3877	6.30	0.33	-0.750			
0.4428	28339.91	3.5810	3.5810	-1.3970	6.30	0.33	-0.750			
0.4470	28609.18	3.5780	3.5782	-1.4144	6.31	0.34	-0.750			
0.4513	28882.23	3.5750	3.5749	-1.4411	6.31	0.34	-0.750			
0.4556	29160.82	3.5720	3.5718	-1.4521	6.31	0.34	-0.750			
0.4600	29440.03	3.5690	3.5692	-1.4813	6.31	0.34	-0.750			
0.4645	29730.18	3.5660	3.5662	-1.5026	6.31	0.34	-0.750			
0.4691	30021.52	3.5630	3.5628	-1.5278	6.31	0.34	-0.750			
0.4737	30316.82	3.5600	3.5600	-1.5334	6.31	0.34	-0.750			
0.4783	30613.93	3.5570	3.5570	-1.5549	6.32	0.35	-0.750			
0.4830	30914.94	3.5540	3.5542	-1.5685	6.33	0.36	-0.750			
0.4877	31213.77	3.5510	3.5511	-1.5696	6.33	0.36	-0.750			
0.4925	31516.83	3.5480	3.5480	-1.5982	6.33	0.36	-0.750			
0.4973	31826.99	3.5450	3.5450	-1.6027	6.33	0.36	-0.750			
0.5021	32135.13	3.5420	3.5420	-1.6280	6.33	0.36	-0.750			
0.5070	32450.02	3.5390	3.5390	-1.6503	6.33	0.36	-0.750			
0.5120	32766.05	3.5360	3.5359	-1.6560	6.33	0.36	-0.750			
0.5170	33086.58	3.5330	3.5330	-1.6787	6.34	0.37	-0.750			
0.5220	33410.38	3.5300	3.5300	-1.6869	6.35	0.38	-0.750			
0.5271	33734.75	3.5270	3.5269	-1.7001	6.35	0.38	-0.750			
0.5323	34068.51	3.5240	3.5240	-1.7090	6.35	0.38	-0.750			
0.5375	34398.37	3.5210	3.5211	-1.7150	6.35	0.38	-0.750			
0.5426	34728.17	3.5180	3.5179	-1.7157	6.36	0.39	-0.750			
0.5478	35056.86	3.5150	3.5150	-1.7256	6.37	0.40	-0.750			
0.5529	35385.33	3.5120	3.5121	-1.7171	6.37	0.40	-0.750			
0.5581	35717.55	3.5090	3.5091	-1.7131	6.37	0.40	-0.750			
0.5633	36048.24	3.5060	3.5059	-1.7097	6.38	0.41	-0.750			
0.5684	36377.62	3.5030	3.5029	-1.7140	6.38	0.41	-0.750			
0.5735	36705.40	3.5000	3.4999	-1.6916	6.39	0.42	-0.750			
0.5785	37027.04	3.4970	3.4972	-1.7044	6.40	0.43	-0.750			
0.5837	37353.98	3.4940	3.4941	-1.6898	6.41	0.44	-0.750			
0.5888	37682.52	3.4910	3.4909	-1.6816	6.42	0.45	-0.750			
0.5939	38009.27	3.4880	3.4882	-1.6741	6.43	0.46	-0.750			
0.5990	38333.25	3.4850	3.4849	-1.6499	6.43	0.46	-0.750			
0.6038	38644.05	3.4820	3.4820	-1.6344	6.44	0.47	-0.750			
0.6087	38959.44	3.4790	3.4793	-1.6238	6.45	0.48	-0.750			
0.6136	39268.85	3.4760	3.4757	-1.6139	6.46	0.49	-0.750			
0.6184	39574.80	3.4730	3.4732	-1.5997	6.46	0.49	-0.750			
0.6232	39881.71	3.4700	3.4701	-1.5755	6.47	0.50	-0.750			
0.6279	40185.60	3.4670	3.4671	-1.5555	6.48	0.51	-0.750			
0.6325	40482.30	3.4640	3.4641	-1.5320	6.49	0.52	-0.750			
0.6370	40769.64	3.4610	3.4610	-1.4921	6.50	0.53	-0.750			
0.6415	41055.68	3.4580	3.4579	-1.4817	6.51	0.54	-0.750			
0.6459	41336.02	3.4550	3.4550	-1.4623	6.53	0.56	-0.750			
0.6502	41614.77	3.4520	3.4520	-1.4425	6.54	0.57	-0.750			
0.6546	41891.63	3.4490	3.4489	-1.4159	6.54	0.57	-0.750			
0.6588	42162.91	3.4460	3.4461	-1.3947	6.55	0.58	-0.750			
0.6629	42427.36	3.4430	3.4430	-1.3629	6.56	0.59	-0.750			
0.6670	42688.71	3.4400	3.4398	-1.3373	6.57	0.60	-0.750			
0.6709	42939.48	3.4370	3.4371	-1.3060	6.59	0.62	-0.750			
0.6748	43187.31	3.4340	3.4339	-1.2708	6.60	0.63	-0.750			
0.6786	43431.68	3.4310	3.4309	-1.2454	6.61	0.64	-0.750			
0.6823	43666.15	3.4280	3.4280	-1.2137	6.62	0.65	-0.750			
0.6858	43891.26	3.4250	3.4251	-1.1866	6.63	0.66	-0.750			
0.6894	44119.35	3.4220	3.4220	-1.1666	6.65	0.68	-0.750			
0.6928	44341.50	3.4190	3.4188	-1.1382	6.66	0.69	-0.750			
0.6962	44557.89	3.4160	3.4161	-1.1111	6.67	0.70	-0.750			
0.6995	44771.01	3.4130	3.4130	-1.0891	6.68	0.71	-0.750			
0.7028	44978.78	3.4100	3.4099	-1.0563	6.70	0.73	-0.750			
0.7059	45177.97	3.4070	3.4070	-1.0285	6.71	0.74	-0.750			
0.7089	45367.84	3.4040	3.4040	-0.9982	6.73	0.76	-0.750			
0.7119	45558.59	3.4010	3.4009	-0.9786	6.74	0.77	-0.750			
0.7148	45745.50	3.3980	3.3981	-0.9518	6.75	0.78	-0.750			
0.7176	45924.78	3.3950	3.3949	-0.9258	6.76	0.79	-0.750			
0.7203	46100.39	3.3920	3.3920	-0.8947	6.77	0.80	-0.750			
0.7230	46271.10	3.3890	3.3890	-0.8690	6.79	0.82	-0.750			
0.7255	46431.86	3.3860	3.3860	-0.8436	6.80	0.83	-0.750			
0.7280	46591.28	3.3830	3.3830	-0.8164	6.81	0.84	-0.750			
0.7304	46745.36	3.3800	3.3800	-0.7923	6.83	0.86	-0.750			
0.7328	46896.71	3.3770	3.3770	-0.7717	6.84	0.87	-0.750			
0.7350	47042.46	3.3740	3.3741	-0.7498	6.85	0.88	-0.750			
0.7372	47181.80	3.3710	3.3710	-0.6931	6.87	0.90	-0.750			
