Ah_balance (normalized)	Ah_balance (mAh)	Voltage - fit (V)	Voltage -  interpolate (V)	dQ/dV (1/V)	Temperature (°C)	Temperature - diff (°C)	Current (C)	R_DC 0ms (mOhm)	R_DC 50ms (mOhm)	R_DC 50 ms PEC (mOhm)
0.1791	11464.81	4.0800	4.0799	0.7685	7.44	1.47	0.750			
0.1814	11611.01	4.0770	4.0770	0.7670	7.44	1.47	0.750			
0.1837	11759.34	4.0740	4.0739	0.7747	7.44	1.47	0.750			
0.1861	11908.82	4.0710	4.0711	0.7813	7.43	1.46	0.750			
0.1884	12059.38	4.0680	4.0680	0.7879	7.43	1.46	0.750			
0.1908	12210.69	4.0650	4.0650	0.7928	7.43	1.46	0.750			
0.1932	12365.68	4.0620	4.0620	0.7910	7.42	1.45	0.750			
0.1956	12515.51	4.0590	4.0590	0.7957	7.42	1.45	0.750			
0.1979	12668.58	4.0560	4.0562	0.7980	7.41	1.44	0.750			
0.2004	12823.08	4.0530	4.0527	0.8025	7.41	1.44	0.750			
0.2028	12976.84	4.0500	4.0500	0.8067	7.41	1.44	0.750			
0.2052	13132.45	4.0470	4.0472	0.8082	7.40	1.43	0.750			
0.2076	13289.26	4.0440	4.0440	0.8139	7.40	1.43	0.750			
0.2101	13444.68	4.0410	4.0410	0.8131	7.39	1.42	0.750			
0.2125	13600.80	4.0380	4.0379	0.8144	7.39	1.42	0.750			
0.2150	13758.23	4.0350	4.0351	0.8155	7.39	1.42	0.750			
0.2174	13915.74	4.0320	4.0319	0.8118	7.38	1.41	0.750			
0.2199	14070.51	4.0290	4.0291	0.8169	7.38	1.41	0.750			
0.2223	14228.34	4.0260	4.0260	0.8193	7.38	1.41	0.750			
0.2247	14383.04	4.0230	4.0229	0.8240	7.37	1.40	0.750			
0.2272	14541.85	4.0200	4.0201	0.8299	7.37	1.40	0.750			
0.2297	14701.54	4.0170	4.0170	0.8383	7.36	1.39	0.750			
0.2323	14864.61	4.0140	4.0139	0.8445	7.36	1.39	0.750			
0.2348	15029.56	4.0110	4.0111	0.8435	7.36	1.39	0.750			
0.2374	15191.75	4.0080	4.0079	0.8412	7.35	1.38	0.750			
0.2399	15354.14	4.0050	4.0051	0.8448	7.35	1.38	0.750			
0.2424	15515.58	4.0020	4.0020	0.8368	7.34	1.37	0.750			
0.2449	15673.49	3.9990	3.9990	0.8402	7.34	1.37	0.750			
0.2474	15833.22	3.9960	3.9960	0.8406	7.34	1.37	0.750			
0.2499	15995.68	3.9930	3.9930	0.8505	7.33	1.36	0.750			
0.2525	16161.30	3.9900	3.9900	0.8608	7.32	1.35	0.750			
0.2551	16326.71	3.9870	3.9870	0.8619	7.32	1.35	0.750			
0.2577	16493.81	3.9840	3.9841	0.8660	7.31	1.34	0.750			
0.2603	16660.94	3.9810	3.9810	0.8714	7.30	1.33	0.750			
0.2629	16827.38	3.9780	3.9775	0.8710	7.29	1.32	0.750			
0.2656	16995.74	3.9750	3.9751	0.8729	7.29	1.32	0.750			
0.2682	17161.99	3.9720	3.9721	0.8786	7.28	1.31	0.750			
0.2708	17331.94	3.9690	3.9690	0.8876	7.28	1.31	0.750			
0.2735	17503.57	3.9660	3.9659	0.8942	7.27	1.30	0.750			
0.2762	17674.69	3.9630	3.9631	0.8963	7.27	1.30	0.750			
0.2789	17847.41	3.9600	3.9601	0.8983	7.27	1.30	0.750			
0.2816	18022.72	3.9570	3.9570	0.9044	7.27	1.30	0.750			
0.2843	18195.86	3.9540	3.9539	0.9080	7.26	1.29	0.750			
0.2870	18368.64	3.9510	3.9509	0.9042	7.26	1.29	0.750			
0.2897	18542.91	3.9480	3.9481	0.9086	7.26	1.29	0.750			
0.2925	18718.52	3.9450	3.9450	0.9055	7.25	1.28	0.750			
0.2952	18890.73	3.9420	3.9420	0.9158	7.24	1.27	0.750			
0.2979	19066.19	3.9390	3.9391	0.9216	7.24	1.27	0.750			
0.3007	19242.04	3.9360	3.9356	0.9326	7.23	1.26	0.750			
0.3035	19423.28	3.9330	3.9332	0.9328	7.22	1.25	0.750			
0.3063	19604.21	3.9300	3.9300	0.9454	7.22	1.25	0.750			
0.3092	19785.69	3.9270	3.9270	0.9623	7.21	1.24	0.750			
0.3120	19970.32	3.9240	3.9241	0.9665	7.20	1.23	0.750			
0.3149	20156.69	3.9210	3.9210	0.9777	7.20	1.23	0.750			
0.3179	20346.45	3.9180	3.9181	0.9841	7.19	1.22	0.750			
0.3209	20534.94	3.9150	3.9152	0.9991	7.18	1.21	0.750			
0.3239	20730.07	3.9120	3.9120	1.0140	7.17	1.20	0.750			
0.3270	20925.33	3.9090	3.9091	1.0065	7.17	1.20	0.750			
0.3300	21117.75	3.9060	3.9061	1.0194	7.16	1.19	0.750			
0.3331	21315.30	3.9030	3.9031	1.0372	7.16	1.19	0.750			
0.3362	21516.01	3.9000	3.9001	1.0482	7.15	1.18	0.750			
0.3393	21716.48	3.8970	3.8969	1.0456	7.15	1.18	0.750			
0.3425	21917.67	3.8940	3.8941	1.0674	7.14	1.17	0.750			
0.3457	22126.45	3.8910	3.8911	1.0825	7.13	1.16	0.750			
0.3490	22336.46	3.8880	3.8880	1.0971	7.11	1.14	0.750			
0.3523	22549.03	3.8850	3.8851	1.0895	7.10	1.13	0.750			
0.3556	22756.40	3.8820	3.8821	1.1099	7.09	1.12	0.750			
0.3589	22971.55	3.8790	3.8790	1.1285	7.08	1.11	0.750			
0.3624	23191.47	3.8760	3.8758	1.1395	7.07	1.10	0.750			
0.3657	23407.46	3.8730	3.8731	1.1553	7.06	1.09	0.750			
0.3693	23634.20	3.8700	3.8701	1.1752	7.05	1.08	0.750			
0.3728	23862.09	3.8670	3.8671	1.1941	7.04	1.07	0.750			
0.3765	24093.83	3.8640	3.8640	1.1979	7.03	1.06	0.750			
0.3801	24324.96	3.8610	3.8611	1.2072	7.02	1.05	0.750			
0.3837	24557.38	3.8580	3.8580	1.2220	7.00	1.03	0.750			
0.3873	24789.14	3.8550	3.8549	1.2600	6.99	1.02	0.750			
0.3912	25034.89	3.8520	3.8520	1.2655	6.98	1.01	0.750			
0.3950	25282.81	3.8490	3.8488	1.2892	6.97	1.00	0.750			
0.3990	25535.65	3.8460	3.8461	1.3026	6.95	0.98	0.750			
0.4030	25789.60	3.8430	3.8429	1.2839	6.94	0.97	0.750			
0.4066	26021.19	3.8400	3.8401	1.3323	6.93	0.96	0.750			
0.4104	26268.40	3.8370	3.8373	1.3667	6.92	0.95	0.750			
0.4147	26537.72	3.8340	3.8347	1.4176	6.90	0.93	0.750	0.426	0.950	
0.4191	26821.61	3.8310	3.8316	1.4845	6.89	0.92	0.750			
0.4237	27118.64	3.8280	3.8282	1.5187	6.88	0.91	0.750			
0.4286	27428.35	3.8250	3.8248	1.5568	6.86	0.89	0.750			
0.4330	27709.06	3.8220	3.8222	1.5255	6.83	0.86	0.750			
0.4376	28005.67	3.8190	3.8189	1.5508	6.81	0.84	0.750			
0.4423	28307.39	3.8160	3.8158	1.5756	6.80	0.83	0.750			
0.4470	28610.98	3.8130	3.8132	1.6084	6.78	0.81	0.750			
0.4519	28922.73	3.8100	3.8098	1.6618	6.76	0.79	0.750			
0.4570	29248.19	3.8070	3.8068	1.6926	6.74	0.77	0.750			
0.4620	29570.99	3.8040	3.8040	1.7390	6.71	0.74	0.750			
0.4674	29913.61	3.8010	3.8012	1.7781	6.70	0.73	0.750			
0.4728	30261.07	3.7980	3.7980	1.8106	6.68	0.71	0.750			
0.4783	30614.05	3.7950	3.7951	1.8369	6.66	0.69	0.750			
0.4839	30968.48	3.7920	3.7921	1.8877	6.63	0.66	0.750			
0.4895	31326.22	3.7890	3.7889	1.9094	6.61	0.64	0.750			
0.4952	31690.56	3.7860	3.7859	1.9465	6.59	0.62	0.750			
0.5011	32067.54	3.7830	3.7832	2.0118	6.57	0.60	0.750			
0.5073	32467.51	3.7800	3.7799	2.0368	6.54	0.57	0.750			
0.5135	32860.96	3.7770	3.7769	2.0434	6.51	0.54	0.750			
0.5196	33254.93	3.7740	3.7736	2.0768	6.48	0.51	0.750			
0.5258	33653.44	3.7710	3.7707	2.0828	6.46	0.49	0.750			
0.5321	34054.68	3.7680	3.7682	2.0999	6.43	0.46	0.750			
0.5386	34467.64	3.7650	3.7647	2.1267	6.41	0.44	0.750			
0.5450	34881.06	3.7620	3.7622	2.1385	6.38	0.41	0.750			
0.5516	35299.74	3.7590	3.7590	2.1608	6.35	0.38	0.750			
0.5581	35715.51	3.7560	3.7560	2.2090	6.33	0.36	0.750			
0.5649	36151.51	3.7530	3.7528	2.2908	6.30	0.33	0.750			
0.5717	36589.86	3.7500	3.7499	2.3056	6.28	0.31	0.750			
0.5787	37036.57	3.7470	3.7471	2.3313	6.25	0.28	0.750			
0.5856	37477.26	3.7440	3.7441	2.3567	6.22	0.25	0.750			
0.5930	37950.73	3.7410	3.7409	2.4478	6.19	0.22	0.750			
0.6003	38422.21	3.7380	3.7379	2.5804	6.17	0.20	0.750			
0.6083	38931.71	3.7350	3.7348	2.7122	6.15	0.18	0.750			
0.6165	39457.96	3.7320	3.7322	2.8156	6.12	0.15	0.750			
0.6252	40014.43	3.7290	3.7287	2.8274	6.09	0.12	0.750			
0.6335	40546.57	3.7260	3.7261	2.8287	6.06	0.09	0.750			
0.6421	41093.84	3.7230	3.7230	2.8220	6.04	0.07	0.750			
0.6505	41633.85	3.7200	3.7202	2.7735	6.02	0.05	0.750			
0.6588	42161.88	3.7170	3.7169	2.6156	6.00	0.03	0.750			
0.6663	42641.58	3.7140	3.7140	2.4425	5.98	0.01	0.750			
0.6737	43113.60	3.7110	3.7109	2.2436	5.97	0.00	0.750			
0.6800	43517.38	3.7080	3.7077	1.9719	5.97	-0.00	0.750			
0.6854	43868.28	3.7050	3.7052	1.7334	5.96	-0.01	0.750			
0.6901	44168.77	3.7020	3.7020	1.4957	5.96	-0.01	0.750			
0.6941	44422.77	3.6990	3.6990	1.2967	5.96	-0.01	0.750			
0.6975	44640.35	3.6960	3.6962	1.1450	5.95	-0.02	0.750			
0.7008	44851.02	3.6930	3.6928	1.0524	5.95	-0.02	0.750			
0.7037	45036.91	3.6900	3.6900	0.9633	5.95	-0.02	0.750			
0.7065	45213.14	3.6870	3.6870	0.9002	5.95	-0.02	0.750			
0.7090	45377.01	3.6840	3.6840	0.8554	5.95	-0.02	0.750			
0.7115	45535.38	3.6810	3.6810	0.8104	5.95	-0.02	0.750			
0.7138	45686.21	3.6780	3.6779	0.7597	5.95	-0.02	0.750			
0.7161	45831.22	3.6750	3.6752	0.7164	5.95	-0.02	0.750			
0.7182	45965.65	3.6720	3.6720	0.6676	5.96	-0.01	0.750			
0.7201	46089.45	3.6690	3.6689	0.6129	5.96	-0.01	0.750			
0.7219	46200.75	3.6660	3.6660	0.5611	5.96	-0.01	0.750			
0.7234	46300.68	3.6630	3.6629	0.5143	5.97	-0.00	0.750			
0.7249	46394.73	3.6600	3.6601	0.4709	5.97	-0.00	0.750			
0.7263	46482.15	3.6570	3.6570	0.4322	5.97	0.00	0.750			
0.7275	46561.26	3.6540	3.6540	0.3924	5.97	0.00	0.750			
0.7286	46632.14	3.6510	3.6511	0.3533	5.97	0.00	0.750			
0.7296	46695.90	3.6480	3.6479	0.3166	5.98	0.01	0.750			
0.7305	46751.95	3.6450	3.6450	0.2775	5.98	0.01	0.750			
0.7313	46802.12	3.6420	3.6419	0.2387	5.98	0.01	0.750			
0.7320	46845.32	3.6390	3.6391	0.2037	5.98	0.01	0.750			
0.7325	46881.04	3.6360	3.6361	0.1652	5.98	0.01	0.750			
0.7330	46909.33	3.6330	3.6332	0.1257	5.98	0.01	0.750			
0.7333	46930.56	3.6300	3.6304	0.0825	5.98	0.01	0.750			
0.7335	46942.38	3.6270	3.6277	0.0344	5.98	0.01	0.750			
