Ah_balance (normalized)	Ah_balance (mAh)	Voltage - fit (V)	Voltage -  interpolate (V)	dQ/dV (1/V)	Temperature (°C)	Temperature - diff (°C)	Current (C)	R_DC 0ms (mOhm)	R_DC 50ms (mOhm)	R_DC 50 ms PEC (mOhm)
0.0925	5919.42	4.0030	4.0027	-0.0742	5.99	-0.00	-0.750			
0.0928	5937.33	4.0000	3.9998	-0.1063	5.99	-0.00	-0.750			
0.0931	5960.52	3.9970	3.9969	-0.1352	5.99	-0.00	-0.750			
0.0936	5989.68	3.9940	3.9940	-0.1622	5.99	-0.00	-0.750			
0.0941	6023.99	3.9910	3.9910	-0.1864	5.99	-0.00	-0.750			
0.0947	6063.10	3.9880	3.9881	-0.2136	5.99	-0.00	-0.750			
0.0954	6106.39	3.9850	3.9850	-0.2364	5.99	-0.00	-0.750			
0.0962	6153.88	3.9820	3.9820	-0.2601	5.98	-0.01	-0.750			
0.0970	6206.08	3.9790	3.9789	-0.2826	5.98	-0.01	-0.750			
0.0979	6262.62	3.9760	3.9760	-0.3056	5.98	-0.01	-0.750			
0.0988	6324.09	3.9730	3.9730	-0.3279	5.98	-0.01	-0.750			
0.0998	6388.91	3.9700	3.9700	-0.3509	5.98	-0.01	-0.750			
0.1009	6457.83	3.9670	3.9670	-0.3757	5.98	-0.01	-0.750			
0.1021	6532.46	3.9640	3.9640	-0.4023	5.97	-0.02	-0.750			
0.1033	6611.83	3.9610	3.9609	-0.4256	5.97	-0.02	-0.750			
0.1046	6696.22	3.9580	3.9582	-0.4518	5.97	-0.02	-0.750			
0.1060	6786.40	3.9550	3.9550	-0.4749	5.97	-0.02	-0.750			
0.1075	6880.07	3.9520	3.9519	-0.4970	5.97	-0.02	-0.750			
0.1090	6977.66	3.9490	3.9490	-0.5152	5.96	-0.03	-0.750			
0.1106	7078.38	3.9460	3.9460	-0.5331	5.96	-0.03	-0.750			
0.1122	7183.81	3.9430	3.9430	-0.5529	5.96	-0.03	-0.750			
0.1139	7292.68	3.9400	3.9400	-0.5678	5.96	-0.03	-0.750			
0.1157	7403.01	3.9370	3.9370	-0.5814	5.95	-0.04	-0.750			
0.1174	7516.11	3.9340	3.9342	-0.5954	5.95	-0.04	-0.750			
0.1192	7631.77	3.9310	3.9310	-0.6064	5.95	-0.04	-0.750			
0.1211	7749.07	3.9280	3.9279	-0.6210	5.95	-0.04	-0.750			
0.1229	7868.33	3.9250	3.9250	-0.6358	5.95	-0.04	-0.750			
0.1249	7993.07	3.9220	3.9220	-0.6502	5.95	-0.04	-0.750			
0.1269	8119.89	3.9190	3.9190	-0.6600	5.95	-0.04	-0.750			
0.1289	8248.90	3.9160	3.9159	-0.6697	5.95	-0.04	-0.750			
0.1309	8378.77	3.9130	3.9130	-0.6757	5.95	-0.04	-0.750			
0.1330	8509.02	3.9100	3.9100	-0.6836	5.95	-0.04	-0.750			
0.1350	8639.51	3.9070	3.9070	-0.6883	5.95	-0.04	-0.750			
0.1371	8772.46	3.9040	3.9040	-0.6914	5.95	-0.04	-0.750			
0.1392	8906.56	3.9010	3.9010	-0.6990	5.95	-0.04	-0.750			
0.1413	9041.79	3.8980	3.8980	-0.7039	5.95	-0.04	-0.750			
0.1434	9176.81	3.8950	3.8950	-0.7073	5.95	-0.04	-0.750			
0.1455	9313.21	3.8920	3.8920	-0.7114	5.95	-0.04	-0.750			
0.1477	9449.89	3.8890	3.8890	-0.7156	5.96	-0.03	-0.750			
0.1498	9588.46	3.8860	3.8860	-0.7189	5.96	-0.03	-0.750			
0.1520	9727.79	3.8830	3.8829	-0.7202	5.97	-0.02	-0.750			
0.1542	9866.30	3.8800	3.8801	-0.7202	5.97	-0.02	-0.750			
0.1563	10004.18	3.8770	3.8770	-0.7223	5.97	-0.02	-0.750			
0.1585	10142.20	3.8740	3.8739	-0.7217	5.98	-0.01	-0.750			
0.1606	10281.04	3.8710	3.8710	-0.7258	5.98	-0.01	-0.750			
0.1628	10420.07	3.8680	3.8680	-0.7261	5.98	-0.01	-0.750			
0.1650	10561.24	3.8650	3.8650	-0.7332	5.99	-0.00	-0.750			
0.1672	10702.81	3.8620	3.8622	-0.7329	5.99	-0.00	-0.750			
0.1694	10843.09	3.8590	3.8589	-0.7339	5.99	0.00	-0.750			
0.1716	10983.62	3.8560	3.8560	-0.7343	6.00	0.01	-0.750			
0.1738	11125.79	3.8530	3.8530	-0.7390	6.00	0.01	-0.750			
0.1761	11269.21	3.8500	3.8499	-0.7457	6.00	0.01	-0.750			
0.1783	11412.12	3.8470	3.8469	-0.7435	6.01	0.02	-0.750			
0.1805	11554.63	3.8440	3.8441	-0.7427	6.01	0.02	-0.750			
0.1828	11698.08	3.8410	3.8409	-0.7425	6.02	0.03	-0.750			
0.1850	11839.38	3.8380	3.8380	-0.7425	6.03	0.04	-0.750			
0.1872	11979.92	3.8350	3.8350	-0.7366	6.03	0.04	-0.750			
0.1895	12125.09	3.8320	3.8319	-0.7414	6.04	0.05	-0.750			
0.1917	12266.56	3.8290	3.8290	-0.7382	6.05	0.06	-0.750			
0.1939	12407.41	3.8260	3.8260	-0.7415	6.05	0.06	-0.750			
0.1961	12549.11	3.8230	3.8230	-0.7425	6.06	0.07	-0.750			
0.1983	12691.80	3.8200	3.8199	-0.7493	6.06	0.07	-0.750			
0.2006	12836.14	3.8170	3.8170	-0.7471	6.07	0.08	-0.750			
0.2029	12982.89	3.8140	3.8140	-0.7518	6.08	0.09	-0.750			
0.2051	13126.90	3.8110	3.8112	-0.7517	6.08	0.09	-0.750			
0.2074	13270.97	3.8080	3.8080	-0.7501	6.09	0.10	-0.750			
0.2096	13413.27	3.8050	3.8049	-0.7529	6.09	0.10	-0.750			
0.2119	13558.58	3.8020	3.8020	-0.7487	6.10	0.11	-0.750			
0.2141	13702.93	3.7990	3.7990	-0.7523	6.10	0.11	-0.750			
0.2164	13847.47	3.7960	3.7960	-0.7538	6.11	0.12	-0.750			
0.2186	13992.52	3.7930	3.7930	-0.7537	6.11	0.12	-0.750			
0.2209	14135.78	3.7900	3.7899	-0.7548	6.12	0.13	-0.750			
0.2231	14280.15	3.7870	3.7869	-0.7543	6.13	0.14	-0.750			
0.2254	14425.50	3.7840	3.7841	-0.7529	6.14	0.15	-0.750			
0.2277	14572.29	3.7810	3.7810	-0.7573	6.14	0.15	-0.750			
0.2299	14716.67	3.7780	3.7782	-0.7567	6.15	0.16	-0.750			
0.2322	14862.17	3.7750	3.7750	-0.7581	6.16	0.17	-0.750			
0.2345	15006.69	3.7720	3.7720	-0.7601	6.16	0.17	-0.750			
0.2368	15152.40	3.7690	3.7690	-0.7638	6.17	0.18	-0.750			
0.2391	15299.54	3.7660	3.7660	-0.7715	6.18	0.19	-0.750			
0.2414	15448.74	3.7630	3.7629	-0.7774	6.19	0.20	-0.750			
0.2437	15598.80	3.7600	3.7600	-0.7804	6.19	0.20	-0.750			
0.2461	15748.07	3.7570	3.7570	-0.7886	6.20	0.21	-0.750			
0.2485	15902.15	3.7540	3.7540	-0.7881	6.20	0.21	-0.750			
0.2508	16053.70	3.7510	3.7509	-0.7865	6.20	0.21	-0.750			
0.2532	16207.01	3.7480	3.7480	-0.7693	6.21	0.22	-0.750			
0.2555	16354.11	3.7450	3.7451	-0.7556	6.21	0.22	-0.750			
0.2578	16496.32	3.7420	3.7421	-0.7487	6.22	0.23	-0.750			
0.2599	16635.12	3.7390	3.7390	-0.7567	6.23	0.24	-0.750			
0.2621	16776.48	3.7360	3.7358	-0.7599	6.23	0.24	-0.750			
0.2645	16925.75	3.7330	3.7329	-0.7806	6.24	0.25	-0.750			
0.2668	17077.87	3.7300	3.7300	-0.7991	6.25	0.26	-0.750			
0.2693	17238.33	3.7270	3.7269	-0.8117	6.25	0.26	-0.750			
0.2718	17392.91	3.7240	3.7239	-0.8240	6.26	0.27	-0.750			
0.2742	17550.36	3.7210	3.7211	-0.8260	6.26	0.27	-0.750			
0.2767	17708.92	3.7180	3.7180	-0.8334	6.26	0.27	-0.750			
0.2793	17872.45	3.7150	3.7150	-0.8429	6.27	0.28	-0.750			
0.2818	18034.34	3.7120	3.7121	-0.8508	6.27	0.28	-0.750			
0.2844	18198.63	3.7090	3.7090	-0.8596	6.28	0.29	-0.750			
0.2870	18364.91	3.7060	3.7060	-0.8668	6.28	0.29	-0.750			
0.2895	18528.85	3.7030	3.7031	-0.8708	6.29	0.30	-0.750			
0.2922	18700.38	3.7000	3.7000	-0.8844	6.29	0.30	-0.750			
0.2948	18869.29	3.6970	3.6970	-0.8928	6.29	0.30	-0.750			
0.2975	19043.10	3.6940	3.6940	-0.8996	6.30	0.31	-0.750			
0.3002	19215.70	3.6910	3.6910	-0.9036	6.30	0.31	-0.750			
0.3030	19390.21	3.6880	3.6879	-0.9114	6.31	0.32	-0.750			
0.3057	19566.22	3.6850	3.6850	-0.9177	6.31	0.32	-0.750			
0.3085	19742.93	3.6820	3.6820	-0.9239	6.32	0.33	-0.750			
0.3113	19921.57	3.6790	3.6790	-0.9323	6.32	0.33	-0.750			
0.3140	20099.07	3.6760	3.6760	-0.9369	6.32	0.33	-0.750			
0.3169	20281.33	3.6730	3.6731	-0.9520	6.33	0.34	-0.750			
0.3197	20462.89	3.6700	3.6699	-0.9633	6.33	0.34	-0.750			
0.3227	20651.04	3.6670	3.6669	-0.9685	6.34	0.35	-0.750			
0.3256	20838.71	3.6640	3.6640	-0.9790	6.34	0.35	-0.750			
0.3285	21027.19	3.6610	3.6609	-0.9836	6.35	0.36	-0.750			
0.3315	21217.40	3.6580	3.6580	-0.9921	6.35	0.36	-0.750			
0.3345	21408.17	3.6550	3.6549	-1.0008	6.36	0.37	-0.750			
0.3375	21600.11	3.6520	3.6519	-1.0052	6.36	0.37	-0.750			
0.3405	21792.92	3.6490	3.6490	-1.0088	6.37	0.38	-0.750			
0.3436	21989.67	3.6460	3.6460	-1.0259	6.37	0.38	-0.750			
0.3467	22187.31	3.6430	3.6431	-1.0324	6.37	0.38	-0.750			
0.3498	22386.72	3.6400	3.6399	-1.0429	6.38	0.39	-0.750			
0.3529	22586.09	3.6370	3.6370	-1.0494	6.38	0.39	-0.750			
0.3561	22790.02	3.6340	3.6341	-1.0667	6.38	0.39	-0.750			
0.3593	22995.92	3.6310	3.6310	-1.0778	6.38	0.39	-0.750			
0.3626	23203.82	3.6280	3.6280	-1.0864	6.39	0.40	-0.750			
0.3658	23411.99	3.6250	3.6250	-1.0933	6.39	0.40	-0.750			
0.3691	23623.32	3.6220	3.6220	-1.1128	6.39	0.40	-0.750			
0.3725	23839.84	3.6190	3.6190	-1.1203	6.40	0.41	-0.750			
0.3759	24056.02	3.6160	3.6159	-1.1294	6.40	0.41	-0.750			
0.3793	24272.71	3.6130	3.6132	-1.1392	6.41	0.42	-0.750			
0.3827	24493.56	3.6100	3.6099	-1.1521	6.41	0.42	-0.750			
0.3862	24715.13	3.6070	3.6069	-1.1630	6.42	0.43	-0.750			
0.3897	24939.43	3.6040	3.6040	-1.1704	6.43	0.44	-0.750			
0.3932	25163.10	3.6010	3.6011	-1.1787	6.43	0.44	-0.750			
0.3968	25394.99	3.5980	3.5979	-1.2008	6.43	0.44	-0.750			
0.4004	25625.71	3.5950	3.5950	-1.2048	6.43	0.44	-0.750			
0.4040	25856.26	3.5920	3.5919	-1.2167	6.43	0.44	-0.750			
0.4077	26092.14	3.5890	3.5890	-1.2290	6.43	0.44	-0.750	0.471	1.064	
0.4114	26328.70	3.5860	3.5858	-1.2392	6.44	0.45	-0.750			
0.4151	26566.27	3.5830	3.5830	-1.2532	6.45	0.46	-0.750			
0.4189	26806.64	3.5800	3.5800	-1.2612	6.45	0.46	-0.750			
0.4227	27054.74	3.5770	3.5770	-1.2793	6.46	0.47	-0.750			
0.4266	27299.80	3.5740	3.5740	-1.2882	6.46	0.47	-0.750			
0.4304	27544.88	3.5710	3.5711	-1.3070	6.47	0.48	-0.750			
0.4344	27801.00	3.5680	3.5679	-1.3201	6.48	0.49	-0.750			
0.4384	28056.53	3.5650	3.5649	-1.3284	6.48	0.49	-0.750			
0.4424	28312.76	3.5620	3.5624	-1.3439	6.49	0.50	-0.750			
0.4465	28573.73	3.5590	3.5589	-1.3564	6.50	0.51	-0.750			
0.4505	28833.80	3.5560	3.5559	-1.3632	6.50	0.51	-0.750			
0.4546	29091.76	3.5530	3.5532	-1.3770	6.51	0.52	-0.750			
0.4588	29361.26	3.5500	3.5499	-1.3995	6.51	0.52	-0.750			
0.4630	29632.28	3.5470	3.5469	-1.4117	6.51	0.52	-0.750			
0.4673	29904.79	3.5440	3.5442	-1.4333	6.51	0.52	-0.750			
0.4717	30185.67	3.5410	3.5410	-1.4455	6.51	0.52	-0.750			
0.4760	30461.51	3.5380	3.5379	-1.4590	6.51	0.52	-0.750			
0.4803	30741.45	3.5350	3.5353	-1.4635	6.51	0.52	-0.750			
0.4848	31025.18	3.5320	3.5319	-1.4722	6.52	0.53	-0.750			
0.4892	31306.27	3.5290	3.5290	-1.4907	6.53	0.54	-0.750			
0.4937	31595.18	3.5260	3.5260	-1.4896	6.54	0.55	-0.750			
0.4982	31883.52	3.5230	3.5229	-1.5152	6.54	0.55	-0.750			
0.5027	32175.72	3.5200	3.5200	-1.5211	6.55	0.56	-0.750			
0.5073	32467.52	3.5170	3.5169	-1.5231	6.55	0.56	-0.750			
0.5119	32764.79	3.5140	3.5140	-1.5399	6.56	0.57	-0.750			
0.5166	33060.28	3.5110	3.5110	-1.5415	6.57	0.58	-0.750			
0.5212	33354.15	3.5080	3.5079	-1.5471	6.58	0.59	-0.750			
0.5258	33651.62	3.5050	3.5051	-1.5502	6.60	0.61	-0.750			
0.5304	33946.60	3.5020	3.5020	-1.5440	6.61	0.62	-0.750			
0.5351	34247.77	3.4990	3.4990	-1.5504	6.61	0.62	-0.750			
0.5398	34545.36	3.4960	3.4961	-1.5661	6.61	0.62	-0.750			
0.5445	34845.69	3.4930	3.4929	-1.5663	6.62	0.63	-0.750			
0.5492	35149.16	3.4900	3.4900	-1.5576	6.63	0.64	-0.750			
0.5539	35450.06	3.4870	3.4871	-1.5516	6.65	0.66	-0.750			
0.5585	35745.95	3.4840	3.4840	-1.5515	6.66	0.67	-0.750			
0.5632	36045.05	3.4810	3.4807	-1.5405	6.67	0.68	-0.750			
0.5678	36339.24	3.4780	3.4780	-1.5294	6.68	0.69	-0.750			
0.5724	36630.84	3.4750	3.4748	-1.5162	6.69	0.70	-0.750			
0.5769	36921.81	3.4720	3.4722	-1.5154	6.70	0.71	-0.750			
0.5815	37212.87	3.4690	3.4690	-1.5044	6.72	0.73	-0.750			
0.5860	37505.30	3.4660	3.4658	-1.4961	6.73	0.74	-0.750			
0.5904	37787.58	3.4630	3.4629	-1.4883	6.74	0.75	-0.750			
0.5949	38073.51	3.4600	3.4600	-1.4686	6.76	0.77	-0.750			
0.5993	38357.44	3.4570	3.4569	-1.4601	6.77	0.78	-0.750			
0.6037	38635.10	3.4540	3.4539	-1.4404	6.79	0.80	-0.750			
0.6079	38907.24	3.4510	3.4510	-1.4145	6.79	0.80	-0.750			
0.6122	39180.32	3.4480	3.4479	-1.4055	6.80	0.81	-0.750			
0.6164	39447.52	3.4450	3.4451	-1.3949	6.81	0.82	-0.750			
0.6205	39710.21	3.4420	3.4420	-1.3727	6.82	0.83	-0.750			
0.6247	39981.19	3.4390	3.4389	-1.3641	6.85	0.86	-0.750			
0.6287	40237.09	3.4360	3.4361	-1.3491	6.86	0.87	-0.750			
0.6327	40494.84	3.4330	3.4330	-1.3242	6.88	0.89	-0.750			
0.6367	40749.60	3.4300	3.4298	-1.3056	6.90	0.91	-0.750			
0.6406	40997.64	3.4270	3.4270	-1.2762	6.91	0.92	-0.750			
0.6444	41238.97	3.4240	3.4239	-1.2445	6.92	0.93	-0.750			
0.6481	41477.67	3.4210	3.4210	-1.2334	6.93	0.94	-0.750			
0.6518	41713.10	3.4180	3.4179	-1.2054	6.94	0.95	-0.750			
0.6553	41936.95	3.4150	3.4151	-1.1736	6.95	0.96	-0.750			
0.6588	42164.28	3.4120	3.4120	-1.1571	6.97	0.98	-0.750			
0.6623	42384.20	3.4090	3.4091	-1.1280	6.99	1.00	-0.750			
0.6656	42598.84	3.4060	3.4059	-1.1022	7.00	1.01	-0.750			
0.6689	42808.13	3.4030	3.4030	-1.0805	7.02	1.03	-0.750			
0.6720	43009.52	3.4000	3.4000	-1.0456	7.04	1.05	-0.750			
0.6752	43210.86	3.3970	3.3970	-1.0218	7.05	1.06	-0.750			
0.6781	43401.59	3.3940	3.3940	-0.9931	7.07	1.08	-0.750			
0.6811	43591.33	3.3910	3.3910	-0.9698	7.09	1.10	-0.750			
0.6840	43775.67	3.3880	3.3880	-0.9456	7.10	1.11	-0.750			
0.6868	43954.16	3.3850	3.3849	-0.9157	7.11	1.12	-0.750			
0.6895	44126.75	3.3820	3.3821	-0.8898	7.13	1.14	-0.750			
0.6921	44296.37	3.3790	3.3791	-0.8694	7.14	1.15	-0.750			
0.6947	44459.91	3.3760	3.3759	-0.8471	7.15	1.16	-0.750			
0.6972	44619.86	3.3730	3.3729	-0.8221	7.17	1.18	-0.750			
0.6996	44774.52	3.3700	3.3700	-0.8018	7.18	1.19	-0.750			
0.7020	44926.84	3.3670	3.3670	-0.7785	7.19	1.20	-0.750			
0.7043	45075.92	3.3640	3.3641	-0.7600	7.21	1.22	-0.750			
0.7065	45218.58	3.3610	3.3609	-0.7376	7.22	1.23	-0.750			
0.7087	45357.09	3.3580	3.3580	-0.7154	7.23	1.24	-0.750			
0.7108	45492.47	3.3550	3.3550	-0.7004	7.25	1.26	-0.750			
0.7129	45624.98	3.3520	3.3519	-0.6815	7.26	1.27	-0.750			
0.7149	45754.99	3.3490	3.3491	-0.6608	7.27	1.28	-0.750			
0.7169	45881.12	3.3460	3.3461	-0.6400	7.29	1.30	-0.750			
0.7188	46002.62	3.3430	3.3430	-0.6092	7.30	1.31	-0.750			
0.7206	46115.51	3.3400	3.3400	-0.5565	7.31	1.32	-0.750			
