Ah_balance (normalized)	Ah_balance (mAh)	Voltage - fit (V)	Voltage -  interpolate (V)	dQ/dV (1/V)	Temperature (°C)	Temperature - diff (°C)	Current (C)	R_DC 0ms (mOhm)	R_DC 50ms (mOhm)	R_DC 50 ms PEC (mOhm)
0.0919	5879.96	4.0040	4.0035	-0.0535	6.01	0.02	-0.750			
0.0921	5893.76	4.0010	4.0005	-0.0860	6.01	0.02	-0.750			
0.0924	5913.37	3.9980	3.9978	-0.1139	6.01	0.02	-0.750			
0.0928	5937.77	3.9950	3.9950	-0.1403	6.00	0.01	-0.750			
0.0932	5967.41	3.9920	3.9921	-0.1658	6.00	0.01	-0.750			
0.0938	6001.76	3.9890	3.9890	-0.1913	6.00	0.01	-0.750			
0.0944	6041.78	3.9860	3.9860	-0.2162	6.00	0.01	-0.750			
0.0951	6085.70	3.9830	3.9830	-0.2387	6.00	0.01	-0.750			
0.0958	6134.21	3.9800	3.9800	-0.2597	5.99	0.00	-0.750			
0.0967	6186.00	3.9770	3.9771	-0.2834	5.99	0.00	-0.750			
0.0975	6242.23	3.9740	3.9741	-0.3067	5.99	-0.00	-0.750			
0.0985	6302.81	3.9710	3.9710	-0.3311	5.99	-0.00	-0.750			
0.0995	6368.64	3.9680	3.9679	-0.3550	5.98	-0.01	-0.750			
0.1006	6439.37	3.9650	3.9650	-0.3804	5.98	-0.01	-0.750			
0.1018	6515.30	3.9620	3.9620	-0.4045	5.98	-0.01	-0.750			
0.1031	6595.45	3.9590	3.9590	-0.4280	5.97	-0.02	-0.750			
0.1044	6679.71	3.9560	3.9560	-0.4498	5.97	-0.02	-0.750			
0.1058	6768.77	3.9530	3.9530	-0.4715	5.96	-0.03	-0.750			
0.1072	6861.67	3.9500	3.9500	-0.4902	5.96	-0.03	-0.750			
0.1087	6958.06	3.9470	3.9470	-0.5095	5.95	-0.04	-0.750			
0.1103	7057.84	3.9440	3.9440	-0.5255	5.95	-0.04	-0.750			
0.1119	7160.03	3.9410	3.9410	-0.5435	5.95	-0.04	-0.750			
0.1135	7266.50	3.9380	3.9380	-0.5577	5.95	-0.04	-0.750			
0.1152	7375.58	3.9350	3.9349	-0.5703	5.95	-0.04	-0.750			
0.1170	7486.97	3.9320	3.9320	-0.5871	5.95	-0.04	-0.750			
0.1188	7601.40	3.9290	3.9290	-0.5992	5.95	-0.04	-0.750			
0.1206	7717.67	3.9260	3.9259	-0.6108	5.95	-0.04	-0.750			
0.1224	7836.66	3.9230	3.9232	-0.6212	5.95	-0.04	-0.750			
0.1243	7956.18	3.9200	3.9200	-0.6303	5.95	-0.04	-0.750			
0.1262	8079.07	3.9170	3.9170	-0.6409	5.95	-0.04	-0.750			
0.1282	8203.28	3.9140	3.9140	-0.6497	5.95	-0.04	-0.750			
0.1301	8328.89	3.9110	3.9109	-0.6588	5.95	-0.04	-0.750			
0.1321	8456.47	3.9080	3.9080	-0.6636	5.95	-0.04	-0.750			
0.1341	8584.83	3.9050	3.9050	-0.6695	5.95	-0.04	-0.750			
0.1362	8714.05	3.9020	3.9021	-0.6736	5.95	-0.04	-0.750			
0.1382	8843.38	3.8990	3.8990	-0.6783	5.96	-0.03	-0.750			
0.1402	8973.12	3.8960	3.8960	-0.6882	5.96	-0.03	-0.750			
0.1423	9106.86	3.8930	3.8930	-0.6901	5.96	-0.03	-0.750			
0.1444	9240.30	3.8900	3.8899	-0.6934	5.97	-0.02	-0.750			
0.1465	9374.58	3.8870	3.8871	-0.6994	5.97	-0.02	-0.750			
0.1486	9508.77	3.8840	3.8840	-0.7018	5.97	-0.02	-0.750			
0.1507	9644.33	3.8810	3.8809	-0.7047	5.98	-0.01	-0.750			
0.1528	9779.44	3.8780	3.8779	-0.7091	5.98	-0.01	-0.750			
0.1549	9915.74	3.8750	3.8750	-0.7082	5.99	-0.00	-0.750			
0.1571	10053.45	3.8720	3.8720	-0.7142	5.99	0.00	-0.750			
0.1592	10191.18	3.8690	3.8691	-0.7162	6.00	0.01	-0.750			
0.1614	10328.00	3.8660	3.8659	-0.7177	6.00	0.01	-0.750			
0.1635	10465.41	3.8630	3.8630	-0.7184	6.01	0.02	-0.750			
0.1657	10604.31	3.8600	3.8600	-0.7174	6.01	0.02	-0.750			
0.1678	10741.09	3.8570	3.8570	-0.7188	6.02	0.03	-0.750			
0.1700	10881.56	3.8540	3.8540	-0.7237	6.02	0.03	-0.750			
0.1722	11019.92	3.8510	3.8511	-0.7186	6.03	0.04	-0.750			
0.1743	11157.12	3.8480	3.8479	-0.7189	6.03	0.04	-0.750			
0.1765	11294.93	3.8450	3.8450	-0.7195	6.04	0.05	-0.750			
0.1786	11432.76	3.8420	3.8420	-0.7270	6.04	0.05	-0.750			
0.1809	11574.76	3.8390	3.8389	-0.7232	6.04	0.05	-0.750			
0.1830	11713.93	3.8360	3.8360	-0.7214	6.05	0.06	-0.750			
0.1852	11852.57	3.8330	3.8332	-0.7225	6.05	0.06	-0.750			
0.1874	11991.74	3.8300	3.8300	-0.7243	6.06	0.07	-0.750			
0.1895	12129.16	3.8270	3.8269	-0.7235	6.06	0.07	-0.750			
0.1917	12267.08	3.8240	3.8240	-0.7205	6.07	0.08	-0.750			
0.1938	12405.51	3.8210	3.8211	-0.7267	6.08	0.09	-0.750			
0.1960	12546.61	3.8180	3.8179	-0.7291	6.09	0.10	-0.750			
0.1982	12687.90	3.8150	3.8150	-0.7246	6.09	0.10	-0.750			
0.2004	12825.57	3.8120	3.8120	-0.7270	6.09	0.10	-0.750			
0.2026	12964.12	3.8090	3.8091	-0.7318	6.10	0.11	-0.750			
0.2048	13105.14	3.8060	3.8060	-0.7341	6.10	0.11	-0.750			
0.2070	13248.39	3.8030	3.8028	-0.7348	6.11	0.12	-0.750			
0.2092	13389.38	3.8000	3.8001	-0.7330	6.11	0.12	-0.750			
0.2114	13531.04	3.7970	3.7970	-0.7366	6.12	0.13	-0.750			
0.2137	13673.97	3.7940	3.7939	-0.7370	6.12	0.13	-0.750			
0.2158	13812.41	3.7910	3.7909	-0.7384	6.13	0.14	-0.750			
0.2180	13953.80	3.7880	3.7881	-0.7373	6.14	0.15	-0.750			
0.2203	14098.88	3.7850	3.7849	-0.7421	6.14	0.15	-0.750			
0.2225	14241.02	3.7820	3.7823	-0.7465	6.15	0.16	-0.750			
0.2248	14384.44	3.7790	3.7790	-0.7453	6.16	0.17	-0.750			
0.2270	14526.26	3.7760	3.7759	-0.7478	6.16	0.17	-0.750			
0.2292	14669.72	3.7730	3.7730	-0.7506	6.17	0.18	-0.750			
0.2315	14814.95	3.7700	3.7700	-0.7565	6.18	0.19	-0.750			
0.2338	14960.68	3.7670	3.7670	-0.7571	6.19	0.20	-0.750			
0.2360	15106.75	3.7640	3.7641	-0.7620	6.19	0.20	-0.750			
0.2383	15250.78	3.7610	3.7610	-0.7694	6.20	0.21	-0.750			
0.2406	15399.65	3.7580	3.7578	-0.7764	6.21	0.22	-0.750			
0.2430	15549.41	3.7550	3.7550	-0.7786	6.22	0.23	-0.750			
0.2453	15701.07	3.7520	3.7520	-0.7810	6.22	0.23	-0.750			
0.2477	15851.98	3.7490	3.7492	-0.7928	6.23	0.24	-0.750			
0.2501	16005.39	3.7460	3.7460	-0.7954	6.23	0.24	-0.750			
0.2524	16156.41	3.7430	3.7429	-0.7996	6.24	0.25	-0.750			
0.2549	16311.36	3.7400	3.7400	-0.8012	6.24	0.25	-0.750			
0.2573	16466.77	3.7370	3.7370	-0.8087	6.25	0.26	-0.750			
0.2597	16621.92	3.7340	3.7342	-0.8137	6.25	0.26	-0.750			
0.2622	16778.57	3.7310	3.7310	-0.8196	6.26	0.27	-0.750			
0.2646	16934.36	3.7280	3.7279	-0.8223	6.26	0.27	-0.750			
0.2671	17093.76	3.7250	3.7250	-0.8278	6.27	0.28	-0.750			
0.2696	17254.84	3.7220	3.7220	-0.8339	6.27	0.28	-0.750			
0.2721	17415.08	3.7190	3.7191	-0.8367	6.28	0.29	-0.750			
0.2746	17575.15	3.7160	3.7160	-0.8398	6.29	0.30	-0.750			
0.2771	17735.94	3.7130	3.7130	-0.8451	6.29	0.30	-0.750			
0.2797	17898.09	3.7100	3.7100	-0.8484	6.30	0.31	-0.750			
0.2822	18062.03	3.7070	3.7070	-0.8562	6.30	0.31	-0.750			
0.2848	18228.86	3.7040	3.7041	-0.8645	6.31	0.32	-0.750			
0.2874	18394.60	3.7010	3.7010	-0.8714	6.31	0.32	-0.750			
0.2900	18562.33	3.6980	3.6980	-0.8743	6.32	0.33	-0.750			
0.2927	18730.27	3.6950	3.6950	-0.8802	6.32	0.33	-0.750			
0.2953	18899.62	3.6920	3.6920	-0.8886	6.33	0.34	-0.750			
0.2980	19070.26	3.6890	3.6891	-0.8992	6.33	0.34	-0.750			
0.3007	19243.09	3.6860	3.6859	-0.9094	6.34	0.35	-0.750			
0.3034	19418.94	3.6830	3.6830	-0.9213	6.34	0.35	-0.750			
0.3062	19598.85	3.6800	3.6800	-0.9258	6.34	0.35	-0.750			
0.3090	19778.50	3.6770	3.6770	-0.9368	6.35	0.36	-0.750			
0.3118	19958.12	3.6740	3.6740	-0.9427	6.35	0.36	-0.750			
0.3147	20139.42	3.6710	3.6710	-0.9450	6.36	0.37	-0.750			
0.3175	20320.71	3.6680	3.6679	-0.9492	6.36	0.37	-0.750			
0.3203	20501.84	3.6650	3.6649	-0.9575	6.37	0.38	-0.750			
0.3232	20686.97	3.6620	3.6621	-0.9662	6.37	0.38	-0.750			
0.3262	20874.22	3.6590	3.6589	-0.9820	6.38	0.39	-0.750			
0.3291	21064.82	3.6560	3.6559	-0.9823	6.39	0.40	-0.750			
0.3321	21253.13	3.6530	3.6531	-0.9861	6.39	0.40	-0.750			
0.3351	21445.36	3.6500	3.6502	-0.9998	6.40	0.41	-0.750			
0.3381	21637.08	3.6470	3.6469	-1.0098	6.40	0.41	-0.750			
0.3411	21831.50	3.6440	3.6439	-1.0160	6.41	0.42	-0.750			
0.3442	22027.76	3.6410	3.6410	-1.0215	6.41	0.42	-0.750			
0.3473	22225.43	3.6380	3.6382	-1.0348	6.41	0.42	-0.750			
0.3504	22426.06	3.6350	3.6350	-1.0412	6.41	0.42	-0.750			
0.3535	22624.40	3.6320	3.6320	-1.0411	6.42	0.43	-0.750			
0.3566	22823.04	3.6290	3.6290	-1.0510	6.42	0.43	-0.750			
0.3598	23024.07	3.6260	3.6262	-1.0678	6.43	0.44	-0.750			
0.3630	23231.23	3.6230	3.6229	-1.0814	6.43	0.44	-0.750			
0.3663	23441.66	3.6200	3.6199	-1.0915	6.43	0.44	-0.750			
0.3696	23652.48	3.6170	3.6170	-1.0964	6.43	0.44	-0.750			
0.3729	23864.46	3.6140	3.6141	-1.1103	6.43	0.44	-0.750			
0.3762	24078.29	3.6110	3.6109	-1.1158	6.44	0.45	-0.750			
0.3796	24291.69	3.6080	3.6080	-1.1135	6.44	0.45	-0.750			
0.3829	24505.45	3.6050	3.6049	-1.1228	6.45	0.46	-0.750			
0.3863	24723.16	3.6020	3.6021	-1.1387	6.45	0.46	-0.750			
0.3897	24942.71	3.5990	3.5990	-1.1493	6.45	0.46	-0.750			
0.3932	25162.76	3.5960	3.5960	-1.1632	6.46	0.47	-0.750			
0.3966	25383.17	3.5930	3.5931	-1.1821	6.46	0.47	-0.750			
0.4003	25618.88	3.5900	3.5898	-1.1933	6.46	0.47	-0.750			
0.4039	25852.33	3.5870	3.5868	-1.2030	6.47	0.48	-0.750			
0.4075	26082.27	3.5840	3.5841	-1.2046	6.47	0.48	-0.750	0.459	1.044	
0.4111	26313.45	3.5810	3.5811	-1.2162	6.47	0.48	-0.750			
0.4148	26549.52	3.5780	3.5778	-1.2237	6.48	0.49	-0.750			
0.4185	26784.93	3.5750	3.5749	-1.2241	6.48	0.49	-0.750			
0.4221	27016.11	3.5720	3.5723	-1.2427	6.49	0.50	-0.750			
0.4259	27260.60	3.5690	3.5690	-1.2647	6.50	0.51	-0.750			
0.4298	27504.18	3.5660	3.5659	-1.2706	6.50	0.51	-0.750			
0.4335	27746.86	3.5630	3.5629	-1.2853	6.51	0.52	-0.750			
0.4374	27996.52	3.5600	3.5600	-1.3009	6.51	0.52	-0.750			
0.4414	28246.90	3.5570	3.5569	-1.3146	6.51	0.52	-0.750			
0.4453	28497.68	3.5540	3.5540	-1.3409	6.51	0.52	-0.750			
0.4493	28757.61	3.5510	3.5510	-1.3435	6.51	0.52	-0.750			
0.4535	29021.86	3.5480	3.5479	-1.3645	6.52	0.53	-0.750			
0.4576	29283.78	3.5450	3.5450	-1.3828	6.53	0.54	-0.750			
0.4617	29551.15	3.5420	3.5420	-1.3847	6.54	0.55	-0.750			
0.4659	29820.42	3.5390	3.5389	-1.3894	6.55	0.56	-0.750			
0.4700	30083.07	3.5360	3.5360	-1.4002	6.56	0.57	-0.750			
0.4742	30347.40	3.5330	3.5330	-1.4178	6.57	0.58	-0.750			
0.4786	30630.53	3.5300	3.5299	-1.4289	6.58	0.59	-0.750			
0.4828	30902.03	3.5270	3.5269	-1.4505	6.59	0.60	-0.750			
0.4872	31180.39	3.5240	3.5238	-1.4687	6.59	0.60	-0.750			
0.4917	31469.71	3.5210	3.5210	-1.4934	6.60	0.61	-0.750			
0.4963	31761.06	3.5180	3.5179	-1.5038	6.60	0.61	-0.750			
0.5008	32049.15	3.5150	3.5150	-1.5049	6.60	0.61	-0.750			
0.5054	32342.52	3.5120	3.5120	-1.4970	6.61	0.62	-0.750			
0.5099	32635.80	3.5090	3.5091	-1.4946	6.61	0.62	-0.750			
0.5143	32914.35	3.5060	3.5061	-1.4733	6.62	0.63	-0.750			
0.5187	33195.46	3.5030	3.5030	-1.4775	6.64	0.65	-0.750			
0.5231	33477.03	3.5000	3.4999	-1.4834	6.65	0.66	-0.750			
0.5275	33762.20	3.4970	3.4970	-1.4925	6.66	0.67	-0.750			
0.5320	34046.97	3.4940	3.4940	-1.4974	6.67	0.68	-0.750			
0.5366	34343.20	3.4910	3.4910	-1.5092	6.68	0.69	-0.750			
0.5411	34630.09	3.4880	3.4881	-1.5086	6.69	0.70	-0.750			
0.5456	34920.49	3.4850	3.4849	-1.5166	6.70	0.71	-0.750			
0.5502	35212.46	3.4820	3.4819	-1.5117	6.72	0.73	-0.750			
0.5548	35505.43	3.4790	3.4789	-1.5088	6.73	0.74	-0.750			
0.5593	35796.37	3.4760	3.4761	-1.5123	6.75	0.76	-0.750			
0.5638	36086.30	3.4730	3.4729	-1.4976	6.76	0.77	-0.750			
0.5684	36375.05	3.4700	3.4699	-1.4868	6.78	0.79	-0.750			
0.5728	36658.78	3.4670	3.4672	-1.4776	6.79	0.80	-0.750			
0.5772	36942.87	3.4640	3.4639	-1.4755	6.81	0.82	-0.750			
0.5816	37222.81	3.4610	3.4610	-1.4671	6.82	0.83	-0.750			
0.5860	37503.24	3.4580	3.4581	-1.4513	6.83	0.84	-0.750			
0.5903	37782.13	3.4550	3.4550	-1.4452	6.84	0.85	-0.750			
0.5946	38057.57	3.4520	3.4520	-1.4374	6.85	0.86	-0.750			
0.5989	38331.62	3.4490	3.4491	-1.4152	6.86	0.87	-0.750			
0.6032	38606.31	3.4460	3.4459	-1.4100	6.87	0.88	-0.750			
0.6074	38873.21	3.4430	3.4430	-1.3906	6.88	0.89	-0.750			
0.6116	39139.83	3.4400	3.4399	-1.3642	6.90	0.91	-0.750			
0.6157	39402.70	3.4370	3.4370	-1.3491	6.92	0.93	-0.750			
0.6196	39656.70	3.4340	3.4340	-1.3302	6.94	0.95	-0.750			
0.6236	39910.03	3.4310	3.4311	-1.3080	6.96	0.97	-0.750			
0.6275	40161.87	3.4280	3.4278	-1.2910	6.98	0.99	-0.750			
0.6314	40406.61	3.4250	3.4250	-1.2651	6.99	1.00	-0.750			
0.6351	40648.01	3.4220	3.4221	-1.2422	7.01	1.02	-0.750			
0.6388	40886.27	3.4190	3.4190	-1.2211	7.03	1.04	-0.750			
0.6425	41118.00	3.4160	3.4160	-1.1902	7.05	1.06	-0.750			
0.6460	41342.91	3.4130	3.4129	-1.1604	7.06	1.07	-0.750			
0.6494	41563.73	3.4100	3.4099	-1.1432	7.08	1.09	-0.750			
0.6528	41780.93	3.4070	3.4070	-1.1140	7.10	1.11	-0.750			
0.6561	41992.78	3.4040	3.4039	-1.0864	7.12	1.13	-0.750			
0.6593	42197.14	3.4010	3.4012	-1.0591	7.14	1.15	-0.750			
0.6625	42400.21	3.3980	3.3980	-1.0391	7.16	1.17	-0.750			
0.6656	42597.82	3.3950	3.3949	-1.0128	7.18	1.19	-0.750			
0.6686	42789.04	3.3920	3.3920	-0.9877	7.20	1.21	-0.750			
0.6715	42974.74	3.3890	3.3890	-0.9596	7.21	1.22	-0.750			
0.6744	43158.98	3.3860	3.3859	-0.9430	7.23	1.24	-0.750			
0.6771	43337.10	3.3830	3.3829	-0.9168	7.25	1.26	-0.750			
0.6798	43508.74	3.3800	3.3800	-0.8909	7.27	1.28	-0.750			
0.6825	43677.67	3.3770	3.3770	-0.8671	7.29	1.30	-0.750			
0.6851	43844.26	3.3740	3.3741	-0.8482	7.30	1.31	-0.750			
0.6876	44004.53	3.3710	3.3710	-0.8240	7.32	1.33	-0.750			
0.6900	44161.11	3.3680	3.3680	-0.8031	7.33	1.34	-0.750			
0.6924	44312.65	3.3650	3.3650	-0.7789	7.35	1.36	-0.750			
0.6947	44460.02	3.3620	3.3620	-0.7594	7.36	1.37	-0.750			
0.6969	44603.43	3.3590	3.3592	-0.7390	7.38	1.39	-0.750			
0.6991	44743.45	3.3560	3.3559	-0.7194	7.39	1.40	-0.750			
0.7012	44878.47	3.3530	3.3530	-0.7009	7.41	1.42	-0.750			
0.7033	45010.84	3.3500	3.3500	-0.6848	7.42	1.43	-0.750			
0.7053	45140.41	3.3470	3.3471	-0.6701	7.44	1.45	-0.750			
0.7073	45269.11	3.3440	3.3439	-0.6551	7.45	1.46	-0.750			
0.7093	45393.82	3.3410	3.3410	-0.6354	7.47	1.48	-0.750			
0.7112	45514.29	3.3380	3.3380	-0.6195	7.48	1.49	-0.750			
0.7130	45631.43	3.3350	3.3349	-0.6031	7.50	1.51	-0.750			
0.7147	45743.83	3.3320	3.3321	-0.5894	7.52	1.53	-0.750			
0.7165	45855.22	3.3290	3.3290	-0.5805	7.53	1.54	-0.750			
0.7182	45965.29	3.3260	3.3259	-0.5775	7.55	1.56	-0.750			
0.7199	46076.10	3.3230	3.3229	-0.5773	7.56	1.57	-0.750			
