Ah_balance (normalized)	Ah_balance (mAh)	Voltage - fit (V)	Voltage -  interpolate (V)	dQ/dV (1/V)	Temperature (°C)	Temperature - diff (°C)	Current (C)	R_DC 0ms (mOhm)	R_DC 50ms (mOhm)	R_DC 50 ms PEC (mOhm)
0.0950	6079.29	4.0090	4.0086	-0.0866	6.00	0.03	-0.750			
0.0953	6098.58	4.0060	4.0057	-0.1133	5.99	0.02	-0.750			
0.0957	6122.84	4.0030	4.0031	-0.1394	5.99	0.02	-0.750			
0.0961	6152.41	4.0000	4.0000	-0.1639	5.99	0.02	-0.750			
0.0967	6186.14	3.9970	3.9970	-0.1898	5.99	0.02	-0.750			
0.0973	6225.33	3.9940	3.9941	-0.2146	5.99	0.02	-0.750			
0.0980	6269.10	3.9910	3.9909	-0.2375	5.99	0.02	-0.750			
0.0987	6317.11	3.9880	3.9882	-0.2604	5.98	0.01	-0.750			
0.0995	6369.43	3.9850	3.9850	-0.2842	5.98	0.01	-0.750			
0.1004	6426.15	3.9820	3.9820	-0.3076	5.98	0.01	-0.750			
0.1014	6487.50	3.9790	3.9790	-0.3310	5.98	0.01	-0.750			
0.1024	6552.74	3.9760	3.9760	-0.3537	5.97	0.00	-0.750			
0.1035	6622.85	3.9730	3.9731	-0.3790	5.97	-0.00	-0.750			
0.1047	6698.14	3.9700	3.9700	-0.4035	5.96	-0.01	-0.750			
0.1059	6778.09	3.9670	3.9670	-0.4274	5.96	-0.01	-0.750			
0.1072	6862.70	3.9640	3.9640	-0.4499	5.96	-0.01	-0.750			
0.1086	6950.94	3.9610	3.9611	-0.4749	5.95	-0.02	-0.750			
0.1101	7044.80	3.9580	3.9580	-0.4988	5.95	-0.02	-0.750			
0.1116	7143.01	3.9550	3.9550	-0.5195	5.94	-0.03	-0.750			
0.1132	7244.50	3.9520	3.9520	-0.5404	5.94	-0.03	-0.750			
0.1149	7351.19	3.9490	3.9490	-0.5589	5.93	-0.04	-0.750			
0.1166	7460.12	3.9460	3.9459	-0.5791	5.93	-0.04	-0.750			
0.1183	7573.60	3.9430	3.9430	-0.5953	5.93	-0.04	-0.750			
0.1201	7689.23	3.9400	3.9399	-0.6093	5.93	-0.04	-0.750			
0.1220	7808.30	3.9370	3.9371	-0.6250	5.93	-0.04	-0.750			
0.1239	7930.14	3.9340	3.9339	-0.6386	5.93	-0.04	-0.750			
0.1258	8054.38	3.9310	3.9310	-0.6481	5.93	-0.04	-0.750			
0.1278	8180.09	3.9280	3.9280	-0.6597	5.93	-0.04	-0.750			
0.1298	8307.19	3.9250	3.9250	-0.6672	5.93	-0.04	-0.750			
0.1318	8436.92	3.9220	3.9219	-0.6782	5.93	-0.04	-0.750			
0.1339	8568.07	3.9190	3.9190	-0.6866	5.93	-0.04	-0.750			
0.1359	8700.68	3.9160	3.9160	-0.6929	5.92	-0.05	-0.750			
0.1381	8835.41	3.9130	3.9130	-0.6987	5.92	-0.05	-0.750			
0.1402	8970.65	3.9100	3.9100	-0.7029	5.92	-0.05	-0.750			
0.1423	9104.41	3.9070	3.9070	-0.7114	5.92	-0.05	-0.750			
0.1444	9242.17	3.9040	3.9040	-0.7183	5.92	-0.05	-0.750			
0.1466	9380.40	3.9010	3.9009	-0.7238	5.92	-0.05	-0.750			
0.1488	9521.12	3.8980	3.8981	-0.7285	5.93	-0.04	-0.750			
0.1510	9663.28	3.8950	3.8950	-0.7343	5.93	-0.04	-0.750			
0.1532	9803.99	3.8920	3.8921	-0.7377	5.93	-0.04	-0.750			
0.1554	9945.57	3.8890	3.8890	-0.7377	5.93	-0.04	-0.750			
0.1576	10085.37	3.8860	3.8860	-0.7422	5.93	-0.04	-0.750			
0.1598	10230.30	3.8830	3.8829	-0.7447	5.93	-0.04	-0.750			
0.1621	10374.69	3.8800	3.8801	-0.7455	5.93	-0.04	-0.750			
0.1643	10517.05	3.8770	3.8770	-0.7498	5.93	-0.04	-0.750			
0.1666	10661.92	3.8740	3.8740	-0.7520	5.93	-0.04	-0.750			
0.1688	10805.46	3.8710	3.8709	-0.7554	5.94	-0.03	-0.750			
0.1711	10949.78	3.8680	3.8681	-0.7581	5.94	-0.03	-0.750			
0.1734	11095.70	3.8650	3.8650	-0.7614	5.94	-0.03	-0.750			
0.1757	11243.70	3.8620	3.8620	-0.7681	5.95	-0.02	-0.750			
0.1780	11392.59	3.8590	3.8591	-0.7694	5.95	-0.02	-0.750			
0.1803	11539.12	3.8560	3.8560	-0.7679	5.95	-0.02	-0.750			
0.1826	11687.61	3.8530	3.8530	-0.7721	5.96	-0.01	-0.750			
0.1849	11835.48	3.8500	3.8500	-0.7716	5.96	-0.01	-0.750			
0.1873	11984.16	3.8470	3.8469	-0.7694	5.96	-0.01	-0.750			
0.1896	12131.99	3.8440	3.8440	-0.7670	5.97	-0.00	-0.750			
0.1919	12278.43	3.8410	3.8410	-0.7681	5.97	0.00	-0.750			
0.1942	12425.67	3.8380	3.8380	-0.7705	5.98	0.01	-0.750			
0.1965	12573.57	3.8350	3.8350	-0.7735	5.98	0.01	-0.750			
0.1988	12720.67	3.8320	3.8320	-0.7740	5.98	0.01	-0.750			
0.2011	12870.88	3.8290	3.8290	-0.7762	5.99	0.02	-0.750			
0.2035	13021.12	3.8260	3.8260	-0.7810	5.99	0.02	-0.750			
0.2058	13171.06	3.8230	3.8229	-0.7792	5.99	0.02	-0.750			
0.2081	13320.64	3.8200	3.8201	-0.7806	5.99	0.02	-0.750			
0.2105	13471.21	3.8170	3.8170	-0.7822	6.00	0.03	-0.750			
0.2128	13621.57	3.8140	3.8140	-0.7832	6.00	0.03	-0.750			
0.2152	13772.68	3.8110	3.8112	-0.7829	6.00	0.03	-0.750			
0.2175	13922.74	3.8080	3.8079	-0.7830	6.00	0.03	-0.750			
0.2199	14071.27	3.8050	3.8050	-0.7835	6.01	0.04	-0.750			
0.2222	14222.48	3.8020	3.8020	-0.7811	6.02	0.05	-0.750			
0.2246	14371.24	3.7990	3.7990	-0.7812	6.02	0.05	-0.750			
0.2269	14523.36	3.7960	3.7960	-0.7837	6.03	0.06	-0.750			
0.2293	14673.74	3.7930	3.7930	-0.7843	6.03	0.06	-0.750			
0.2316	14824.05	3.7900	3.7899	-0.7881	6.04	0.07	-0.750			
0.2340	14975.33	3.7870	3.7871	-0.7894	6.04	0.07	-0.750			
0.2364	15127.42	3.7840	3.7839	-0.7818	6.04	0.07	-0.750			
0.2387	15278.24	3.7810	3.7810	-0.7828	6.05	0.08	-0.750			
0.2411	15427.21	3.7780	3.7782	-0.7840	6.05	0.08	-0.750			
0.2434	15577.76	3.7750	3.7748	-0.7841	6.05	0.08	-0.750			
0.2457	15727.66	3.7720	3.7719	-0.7899	6.06	0.09	-0.750			
0.2481	15880.96	3.7690	3.7690	-0.7894	6.06	0.09	-0.750			
0.2505	16034.54	3.7660	3.7659	-0.7931	6.07	0.10	-0.750			
0.2529	16188.22	3.7630	3.7633	-0.7925	6.07	0.10	-0.750			
0.2553	16338.31	3.7600	3.7600	-0.7890	6.08	0.11	-0.750			
0.2576	16488.94	3.7570	3.7569	-0.7899	6.08	0.11	-0.750			
0.2600	16639.34	3.7540	3.7540	-0.7909	6.09	0.12	-0.750			
0.2624	16792.73	3.7510	3.7509	-0.7960	6.10	0.13	-0.750			
0.2648	16946.10	3.7480	3.7480	-0.7969	6.11	0.14	-0.750			
0.2672	17099.31	3.7450	3.7449	-0.7997	6.11	0.14	-0.750			
0.2696	17252.08	3.7420	3.7421	-0.8059	6.12	0.15	-0.750			
0.2720	17405.72	3.7390	3.7389	-0.8042	6.12	0.15	-0.750			
0.2744	17560.68	3.7360	3.7359	-0.8105	6.12	0.15	-0.750			
0.2768	17717.47	3.7330	3.7330	-0.8141	6.13	0.16	-0.750			
0.2793	17875.23	3.7300	3.7299	-0.8157	6.13	0.16	-0.750			
0.2818	18032.39	3.7270	3.7270	-0.8236	6.14	0.17	-0.750			
0.2842	18190.01	3.7240	3.7240	-0.8282	6.15	0.18	-0.750			
0.2867	18347.84	3.7210	3.7209	-0.8309	6.16	0.19	-0.750			
0.2892	18509.50	3.7180	3.7179	-0.8411	6.17	0.20	-0.750			
0.2918	18674.78	3.7150	3.7150	-0.8284	6.17	0.20	-0.750			
0.2943	18833.68	3.7120	3.7120	-0.8232	6.18	0.21	-0.750			
0.2967	18991.01	3.7090	3.7091	-0.8219	6.18	0.21	-0.750			
0.2991	19143.80	3.7060	3.7063	-0.8125	6.18	0.21	-0.750			
0.3015	19297.77	3.7030	3.7028	-0.8280	6.19	0.22	-0.750			
0.3040	19455.24	3.7000	3.7001	-0.8364	6.19	0.22	-0.750			
0.3065	19617.89	3.6970	3.6970	-0.8556	6.19	0.22	-0.750			
0.3092	19789.69	3.6940	3.6940	-0.8864	6.19	0.22	-0.750			
0.3118	19957.89	3.6910	3.6911	-0.8940	6.19	0.22	-0.750			
0.3146	20132.03	3.6880	3.6880	-0.9117	6.19	0.22	-0.750			
0.3173	20309.01	3.6850	3.6849	-0.9238	6.19	0.22	-0.750			
0.3201	20486.21	3.6820	3.6820	-0.9374	6.20	0.23	-0.750			
0.3230	20670.87	3.6790	3.6790	-0.9465	6.20	0.23	-0.750			
0.3258	20852.06	3.6760	3.6760	-0.9522	6.21	0.24	-0.750			
0.3287	21036.84	3.6730	3.6731	-0.9596	6.21	0.24	-0.750			
0.3316	21221.07	3.6700	3.6699	-0.9715	6.21	0.24	-0.750			
0.3345	21408.64	3.6670	3.6670	-0.9779	6.21	0.24	-0.750			
0.3374	21596.80	3.6640	3.6639	-0.9890	6.21	0.24	-0.750			
0.3404	21787.42	3.6610	3.6614	-0.9980	6.21	0.24	-0.750			
0.3435	21981.65	3.6580	3.6579	-1.0143	6.21	0.24	-0.750			
0.3465	22174.89	3.6550	3.6550	-1.0253	6.21	0.24	-0.750			
0.3496	22372.69	3.6520	3.6519	-1.0390	6.22	0.25	-0.750			
0.3527	22574.21	3.6490	3.6491	-1.0594	6.22	0.25	-0.750			
0.3559	22779.02	3.6460	3.6460	-1.0729	6.22	0.25	-0.750			
0.3592	22986.94	3.6430	3.6428	-1.0825	6.22	0.25	-0.750			
0.3624	23196.77	3.6400	3.6400	-1.0940	6.22	0.25	-0.750			
0.3657	23405.41	3.6370	3.6371	-1.1064	6.22	0.25	-0.750			
0.3691	23621.01	3.6340	3.6340	-1.1175	6.22	0.25	-0.750			
0.3725	23837.42	3.6310	3.6309	-1.1286	6.23	0.26	-0.750			
0.3758	24053.41	3.6280	3.6280	-1.1349	6.23	0.26	-0.750			
0.3793	24273.11	3.6250	3.6250	-1.1521	6.23	0.26	-0.750			
0.3827	24495.49	3.6220	3.6220	-1.1618	6.23	0.26	-0.750			
0.3863	24720.48	3.6190	3.6189	-1.1651	6.24	0.27	-0.750			
0.3897	24943.36	3.6160	3.6160	-1.1712	6.24	0.27	-0.750			
0.3933	25172.31	3.6130	3.6130	-1.1938	6.24	0.27	-0.750			
0.3969	25401.51	3.6100	3.6099	-1.2067	6.25	0.28	-0.750			
0.4005	25632.53	3.6070	3.6069	-1.2303	6.25	0.28	-0.750			
0.4042	25869.78	3.6040	3.6042	-1.2457	6.25	0.28	-0.750			
0.4080	26115.07	3.6010	3.6008	-1.2582	6.25	0.28	-0.750			
0.4119	26360.40	3.5980	3.5979	-1.2594	6.25	0.28	-0.750	0.471	1.084	
0.4156	26599.19	3.5950	3.5952	-1.2642	6.25	0.28	-0.750			
0.4195	26846.97	3.5920	3.5918	-1.2788	6.25	0.28	-0.750			
0.4233	27088.79	3.5890	3.5891	-1.2832	6.25	0.28	-0.750			
0.4271	27336.66	3.5860	3.5861	-1.2884	6.25	0.28	-0.750			
0.4311	27587.29	3.5830	3.5830	-1.3287	6.25	0.28	-0.750			
0.4351	27846.54	3.5800	3.5799	-1.3497	6.25	0.28	-0.750			
0.4392	28106.71	3.5770	3.5771	-1.3731	6.25	0.28	-0.750			
0.4433	28370.92	3.5740	3.5738	-1.3820	6.25	0.28	-0.750			
0.4476	28643.22	3.5710	3.5709	-1.4010	6.25	0.28	-0.750			
0.4517	28911.86	3.5680	3.5681	-1.4186	6.25	0.28	-0.750			
0.4560	29184.90	3.5650	3.5649	-1.4263	6.25	0.28	-0.750			
0.4603	29457.90	3.5620	3.5619	-1.4415	6.25	0.28	-0.750			
0.4647	29741.87	3.5590	3.5590	-1.4677	6.25	0.28	-0.750			
0.4691	30024.44	3.5560	3.5559	-1.4786	6.25	0.28	-0.750			
0.4737	30315.27	3.5530	3.5532	-1.5015	6.25	0.28	-0.750			
0.4782	30602.16	3.5500	3.5503	-1.5216	6.25	0.28	-0.750			
0.4827	30893.18	3.5470	3.5468	-1.5302	6.25	0.28	-0.750			
0.4874	31191.90	3.5440	3.5440	-1.5472	6.25	0.28	-0.750			
0.4921	31492.17	3.5410	3.5409	-1.5578	6.25	0.28	-0.750			
0.4968	31796.47	3.5380	3.5381	-1.5793	6.26	0.29	-0.750			
0.5016	32099.54	3.5350	3.5348	-1.5826	6.27	0.30	-0.750			
0.5062	32399.67	3.5320	3.5319	-1.5962	6.27	0.30	-0.750			
0.5111	32708.14	3.5290	3.5291	-1.6338	6.27	0.30	-0.750			
0.5160	33024.74	3.5260	3.5261	-1.6441	6.27	0.30	-0.750			
0.5210	33343.58	3.5230	3.5233	-1.6355	6.27	0.30	-0.750			
0.5260	33662.86	3.5200	3.5202	-1.6457	6.28	0.31	-0.750			
0.5309	33977.14	3.5170	3.5168	-1.6418	6.28	0.31	-0.750			
0.5357	34287.87	3.5140	3.5137	-1.6425	6.29	0.32	-0.750			
0.5406	34599.15	3.5110	3.5110	-1.6417	6.29	0.32	-0.750			
0.5456	34915.26	3.5080	3.5079	-1.6436	6.30	0.33	-0.750			
0.5506	35235.33	3.5050	3.5051	-1.6518	6.31	0.34	-0.750			
0.5556	35556.76	3.5020	3.5019	-1.6547	6.32	0.35	-0.750			
0.5605	35874.28	3.4990	3.4990	-1.6635	6.33	0.36	-0.750			
0.5656	36196.36	3.4960	3.4962	-1.6565	6.35	0.38	-0.750			
0.5705	36513.28	3.4930	3.4932	-1.6358	6.36	0.39	-0.750			
0.5754	36827.39	3.4900	3.4900	-1.6361	6.37	0.40	-0.750			
0.5804	37143.46	3.4870	3.4867	-1.6246	6.37	0.40	-0.750			
0.5852	37454.45	3.4840	3.4839	-1.6114	6.38	0.41	-0.750			
0.5900	37759.52	3.4810	3.4812	-1.5925	6.39	0.42	-0.750			
0.5948	38066.59	3.4780	3.4779	-1.5913	6.40	0.43	-0.750			
0.5996	38372.77	3.4750	3.4753	-1.5743	6.42	0.45	-0.750			
0.6042	38671.40	3.4720	3.4720	-1.5537	6.43	0.46	-0.750			
0.6088	38965.65	3.4690	3.4689	-1.5341	6.44	0.47	-0.750			
0.6134	39259.44	3.4660	3.4661	-1.5303	6.45	0.48	-0.750			
0.6181	39555.65	3.4630	3.4629	-1.5195	6.46	0.49	-0.750			
0.6226	39845.17	3.4600	3.4599	-1.5054	6.47	0.50	-0.750			
0.6271	40131.90	3.4570	3.4572	-1.4855	6.49	0.52	-0.750			
0.6316	40420.19	3.4540	3.4539	-1.4675	6.50	0.53	-0.750			
0.6359	40700.79	3.4510	3.4512	-1.4437	6.52	0.55	-0.750			
0.6402	40975.33	3.4480	3.4481	-1.4153	6.53	0.56	-0.750			
0.6444	41240.70	3.4450	3.4450	-1.3918	6.55	0.58	-0.750			
0.6486	41507.81	3.4420	3.4420	-1.3709	6.56	0.59	-0.750			
0.6526	41765.97	3.4390	3.4391	-1.3531	6.58	0.61	-0.750			
0.6567	42027.67	3.4360	3.4360	-1.3321	6.59	0.62	-0.750			
0.6607	42285.25	3.4330	3.4330	-1.3106	6.61	0.64	-0.750			
0.6646	42533.50	3.4300	3.4301	-1.2863	6.63	0.66	-0.750			
0.6684	42778.62	3.4270	3.4269	-1.2544	6.64	0.67	-0.750			
0.6721	43015.85	3.4240	3.4239	-1.2206	6.66	0.69	-0.750			
0.6757	43247.49	3.4210	3.4210	-1.1970	6.68	0.71	-0.750			
0.6793	43472.66	3.4180	3.4181	-1.1641	6.69	0.72	-0.750			
0.6828	43697.93	3.4150	3.4149	-1.1455	6.71	0.74	-0.750			
0.6862	43913.66	3.4120	3.4120	-1.1149	6.72	0.75	-0.750			
0.6894	44123.98	3.4090	3.4090	-1.0859	6.73	0.76	-0.750			
0.6927	44331.53	3.4060	3.4059	-1.0654	6.74	0.77	-0.750			
0.6958	44532.51	3.4030	3.4030	-1.0393	6.76	0.79	-0.750			
0.6989	44728.99	3.4000	3.4000	-1.0118	6.77	0.80	-0.750			
0.7019	44921.93	3.3970	3.3970	-0.9845	6.78	0.81	-0.750			
0.7048	45108.45	3.3940	3.3940	-0.9603	6.80	0.83	-0.750			
0.7077	45290.59	3.3910	3.3910	-0.9373	6.82	0.85	-0.750			
0.7105	45469.53	3.3880	3.3879	-0.9055	6.84	0.87	-0.750			
0.7131	45640.47	3.3850	3.3850	-0.8769	6.85	0.88	-0.750			
0.7157	45806.71	3.3820	3.3822	-0.8496	6.87	0.90	-0.750			
0.7182	45967.37	3.3790	3.3789	-0.8231	6.88	0.91	-0.750			
0.7206	46121.42	3.3760	3.3759	-0.8020	6.89	0.92	-0.750			
0.7230	46269.68	3.3730	3.3731	-0.7768	6.91	0.94	-0.750			
0.7253	46418.95	3.3700	3.3698	-0.7592	6.92	0.95	-0.750			
0.7276	46563.33	3.3670	3.3671	-0.7371	6.93	0.96	-0.750			
0.7297	46702.56	3.3640	3.3640	-0.7123	6.94	0.97	-0.750			
0.7318	46836.54	3.3610	3.3610	-0.6794	6.95	0.98	-0.750			
