Ah_balance (normalized)	Ah_balance (mAh)	Voltage - fit (V)	Voltage -  interpolate (V)	dQ/dV (1/V)	Temperature (°C)	Temperature - diff (°C)	Current (C)	R_DC 0ms (mOhm)	R_DC 50ms (mOhm)	R_DC 50 ms PEC (mOhm)
0.0001	7.96	4.1560	4.1587	-0.0552	24.68	0.01	-0.750			
0.0006	40.51	4.1530	4.1545	-0.1632	24.68	0.01	-0.750			
0.0013	81.45	4.1500	4.1510	-0.2255	24.68	0.01	-0.750			
0.0021	132.38	4.1470	4.1478	-0.2755	24.68	0.01	-0.750			
0.0030	190.75	4.1440	4.1446	-0.3202	24.67	0.00	-0.750			
0.0040	256.77	4.1410	4.1412	-0.3605	24.67	0.00	-0.750			
0.0053	339.65	4.1380	4.1377	-0.4061	24.67	0.00	-0.750			
0.0065	413.31	4.1350	4.1349	-0.4307	24.67	-0.00	-0.750			
0.0078	500.95	4.1320	4.1320	-0.4692	24.67	-0.00	-0.750			
0.0093	596.39	4.1290	4.1290	-0.5023	24.66	-0.01	-0.750			
0.0109	695.87	4.1260	4.1260	-0.5317	24.66	-0.01	-0.750			
0.0125	803.16	4.1230	4.1231	-0.5633	24.66	-0.01	-0.750			
0.0143	914.20	4.1200	4.1200	-0.5935	24.66	-0.01	-0.750			
0.0162	1034.44	4.1170	4.1168	-0.6121	24.65	-0.02	-0.750			
0.0180	1154.16	4.1140	4.1140	-0.6247	24.65	-0.02	-0.750			
0.0199	1276.77	4.1110	4.1113	-0.6400	24.65	-0.02	-0.750	0.450	0.564	
0.0219	1400.07	4.1080	4.1080	-0.6504	24.66	-0.01	-0.750			
0.0238	1524.75	4.1050	4.1047	-0.6597	24.66	-0.01	-0.750			
0.0258	1651.60	4.1020	4.1021	-0.6696	24.66	-0.01	-0.750			
0.0278	1779.67	4.0990	4.0990	-0.6773	24.67	-0.00	-0.750			
0.0300	1917.37	4.0960	4.0960	-0.6999	24.67	-0.00	-0.750			
0.0320	2050.10	4.0930	4.0928	-0.7069	24.67	0.00	-0.750			
0.0342	2189.90	4.0900	4.0898	-0.7189	24.68	0.01	-0.750			
0.0364	2331.79	4.0870	4.0869	-0.7208	24.68	0.01	-0.750			
0.0386	2470.09	4.0840	4.0836	-0.7201	24.68	0.01	-0.750			
0.0408	2611.40	4.0810	4.0813	-0.7239	24.69	0.02	-0.750	0.427	0.565	
0.0430	2748.99	4.0780	4.0784	-0.7200	24.69	0.02	-0.750			
0.0451	2884.37	4.0750	4.0747	-0.7120	24.69	0.02	-0.750			
0.0471	3011.54	4.0720	4.0723	-0.7050	24.69	0.02	-0.750			
0.0492	3151.35	4.0690	4.0692	-0.7269	24.69	0.02	-0.750			
0.0515	3298.15	4.0660	4.0659	-0.7554	24.70	0.03	-0.750			
0.0538	3444.00	4.0630	4.0628	-0.7610	24.70	0.03	-0.750			
0.0562	3596.47	4.0600	4.0599	-0.7555	24.70	0.03	-0.750			
0.0585	3742.73	4.0570	4.0568	-0.7487	24.71	0.04	-0.750			
0.0607	3887.85	4.0540	4.0545	-0.7457	24.71	0.04	-0.750			
0.0629	4026.39	4.0510	4.0507	-0.7338	24.72	0.05	-0.750			
0.0651	4163.31	4.0480	4.0478	-0.7332	24.72	0.05	-0.750			
0.0671	4296.76	4.0450	4.0451	-0.7253	24.73	0.06	-0.750			
0.0694	4443.87	4.0420	4.0418	-0.7464	24.73	0.06	-0.750			
0.0717	4587.63	4.0390	4.0391	-0.7534	24.74	0.07	-0.750			
0.0739	4732.77	4.0360	4.0360	-0.7616	24.75	0.08	-0.750			
0.0763	4882.07	4.0330	4.0328	-0.7574	24.76	0.09	-0.750			
0.0786	5028.67	4.0300	4.0298	-0.7566	24.76	0.09	-0.750			
0.0809	5174.68	4.0270	4.0276	-0.7505	24.77	0.10	-0.750	0.245	0.565	
0.0831	5316.73	4.0240	4.0240	-0.7567	24.77	0.10	-0.750			
0.0853	5458.16	4.0210	4.0210	-0.7701	24.78	0.11	-0.750			
0.0875	5602.37	4.0180	4.0179	-0.7734	24.78	0.11	-0.750			
0.0900	5759.90	4.0150	4.0148	-0.7887	24.79	0.12	-0.750			
0.0924	5912.23	4.0120	4.0120	-0.7969	24.79	0.12	-0.750			
0.0949	6075.39	4.0090	4.0091	-0.7793	24.79	0.12	-0.750			
0.0973	6225.68	4.0060	4.0059	-0.7534	24.80	0.13	-0.750			
0.0994	6364.14	4.0030	4.0031	-0.7252	24.81	0.14	-0.750	0.409	0.553	
0.1015	6497.83	4.0000	3.9998	-0.7151	24.81	0.14	-0.750			
0.1036	6629.80	3.9970	3.9968	-0.7055	24.82	0.15	-0.750			
0.1056	6761.22	3.9940	3.9940	-0.7107	24.82	0.15	-0.750			
0.1077	6895.47	3.9910	3.9911	-0.7226	24.83	0.16	-0.750			
0.1100	7042.13	3.9880	3.9880	-0.7571	24.84	0.17	-0.750			
0.1124	7192.38	3.9850	3.9849	-0.7754	24.85	0.18	-0.750			
0.1148	7346.71	3.9820	3.9818	-0.7842	24.86	0.19	-0.750			
0.1172	7500.03	3.9790	3.9790	-0.7797	24.87	0.20	-0.750			
0.1195	7650.07	3.9760	3.9758	-0.7728	24.87	0.20	-0.750	0.409	0.574	
0.1218	7796.80	3.9730	3.9728	-0.7700	24.88	0.21	-0.750			
0.1241	7941.36	3.9700	3.9698	-0.7662	24.89	0.22	-0.750			
0.1263	8082.06	3.9670	3.9668	-0.7553	24.90	0.23	-0.750			
0.1285	8227.18	3.9640	3.9641	-0.7580	24.90	0.23	-0.750			
0.1309	8379.91	3.9610	3.9614	-0.7747	24.91	0.24	-0.750			
0.1333	8529.88	3.9580	3.9580	-0.7962	24.92	0.25	-0.750			
0.1357	8687.18	3.9550	3.9546	-0.7911	24.92	0.25	-0.750			
0.1381	8837.69	3.9520	3.9518	-0.7834	24.93	0.26	-0.750			
0.1405	8990.07	3.9490	3.9491	-0.7807	24.93	0.26	-0.750	0.395	0.544	
0.1428	9140.85	3.9460	3.9460	-0.7763	24.94	0.27	-0.750			
0.1451	9286.35	3.9430	3.9428	-0.7695	24.94	0.27	-0.750			
0.1473	9428.07	3.9400	3.9400	-0.7729	24.94	0.27	-0.750			
0.1496	9575.90	3.9370	3.9370	-0.7800	24.95	0.28	-0.750			
0.1520	9729.19	3.9340	3.9338	-0.8025	24.95	0.28	-0.750			
0.1545	9888.71	3.9310	3.9308	-0.8068	24.95	0.28	-0.750			
0.1570	10046.55	3.9280	3.9277	-0.8040	24.96	0.29	-0.750			
0.1594	10200.87	3.9250	3.9247	-0.8122	24.97	0.30	-0.750	0.447	0.575	
0.1619	10358.46	3.9220	3.9216	-0.8025	24.98	0.31	-0.750			
0.1642	10508.91	3.9190	3.9187	-0.7908	24.98	0.31	-0.750			
0.1665	10656.80	3.9160	3.9160	-0.7824	24.99	0.32	-0.750			
0.1689	10808.85	3.9130	3.9131	-0.7979	25.00	0.33	-0.750			
0.1713	10961.04	3.9100	3.9099	-0.8072	25.01	0.34	-0.750			
0.1737	11117.41	3.9070	3.9068	-0.8130	25.02	0.35	-0.750			
0.1762	11274.30	3.9040	3.9039	-0.8067	25.03	0.36	-0.750			
0.1787	11434.26	3.9010	3.9006	-0.8113	25.03	0.36	-0.750			
0.1811	11591.53	3.8980	3.8980	-0.8070	25.04	0.37	-0.750	0.434	0.582	
0.1835	11743.11	3.8950	3.8948	-0.8048	25.05	0.38	-0.750			
0.1858	11892.41	3.8920	3.8918	-0.7916	25.05	0.38	-0.750			
0.1881	12038.37	3.8890	3.8891	-0.7788	25.06	0.39	-0.750			
0.1905	12192.17	3.8860	3.8860	-0.7917	25.06	0.39	-0.750			
0.1930	12353.65	3.8830	3.8835	-0.8184	25.07	0.40	-0.750			
0.1955	12511.42	3.8800	3.8799	-0.8197	25.08	0.41	-0.750			
0.1980	12671.31	3.8770	3.8768	-0.8146	25.09	0.42	-0.750			
0.2004	12827.43	3.8740	3.8746	-0.8119	25.10	0.43	-0.750			
0.2029	12984.86	3.8710	3.8710	-0.8061	25.11	0.44	-0.750			
0.2053	13136.97	3.8680	3.8678	-0.7945	25.12	0.45	-0.750			
0.2076	13285.45	3.8650	3.8650	-0.7865	25.12	0.45	-0.750			
0.2099	13435.02	3.8620	3.8619	-0.7894	25.12	0.45	-0.750			
0.2123	13586.68	3.8590	3.8590	-0.8019	25.13	0.46	-0.750			
0.2148	13746.44	3.8560	3.8556	-0.8070	25.13	0.46	-0.750			
0.2172	13903.18	3.8530	3.8530	-0.7917	25.13	0.46	-0.750			
0.2196	14053.70	3.8500	3.8499	-0.8044	25.14	0.47	-0.750	0.443	0.570	
0.2220	14209.06	3.8470	3.8468	-0.7952	25.15	0.48	-0.750			
0.2244	14362.30	3.8440	3.8434	-0.7877	25.16	0.49	-0.750			
0.2267	14507.79	3.8410	3.8409	-0.7748	25.16	0.49	-0.750			
0.2290	14655.68	3.8380	3.8381	-0.7703	25.17	0.50	-0.750			
0.2313	14804.20	3.8350	3.8351	-0.8083	25.18	0.51	-0.750			
0.2338	14960.99	3.8320	3.8318	-0.7931	25.19	0.52	-0.750			
0.2361	15108.53	3.8290	3.8289	-0.7847	25.19	0.52	-0.750			
0.2385	15266.84	3.8260	3.8256	-0.7896	25.20	0.53	-0.750			
0.2409	15419.70	3.8230	3.8231	-0.7931	25.21	0.54	-0.750	0.394	0.534	
0.2433	15571.64	3.8200	3.8201	-0.7825	25.21	0.54	-0.750			
0.2456	15718.82	3.8170	3.8170	-0.7714	25.21	0.54	-0.750			
0.2478	15857.11	3.8140	3.8140	-0.7698	25.22	0.55	-0.750			
0.2502	16012.17	3.8110	3.8110	-0.7789	25.22	0.55	-0.750			
0.2526	16164.85	3.8080	3.8078	-0.7742	25.23	0.56	-0.750			
0.2548	16309.66	3.8050	3.8050	-0.7909	25.23	0.56	-0.750			
0.2570	16449.60	3.8020	3.8023	-0.7656	25.23	0.56	-0.750			
0.2593	16595.24	3.7990	3.7995	-0.7957	25.24	0.57	-0.750	0.460	0.562	
0.2616	16744.07	3.7960	3.7969	-0.8128	25.24	0.57	-0.750			
0.2642	16906.11	3.7930	3.7937	-0.8323	25.25	0.58	-0.750			
0.2668	17075.34	3.7900	3.7905	-0.8629	25.26	0.59	-0.750			
0.2695	17246.02	3.7870	3.7869	-0.8804	25.26	0.59	-0.750			
0.2723	17426.50	3.7840	3.7838	-0.9032	25.27	0.60	-0.750			
0.2748	17586.22	3.7810	3.7809	-0.8585	25.27	0.60	-0.750			
0.2774	17752.53	3.7780	3.7778	-0.8599	25.28	0.61	-0.750			
0.2801	17923.70	3.7750	3.7749	-0.8604	25.28	0.61	-0.750	0.442	0.559	
0.2826	18088.13	3.7720	3.7719	-0.8560	25.28	0.61	-0.750			
0.2851	18248.84	3.7690	3.7689	-0.8669	25.29	0.62	-0.750			
0.2877	18412.34	3.7660	3.7659	-0.8697	25.29	0.62	-0.750			
0.2902	18572.63	3.7630	3.7629	-0.9058	25.30	0.63	-0.750			
0.2931	18758.45	3.7600	3.7602	-0.9164	25.30	0.63	-0.750			
0.2959	18940.06	3.7570	3.7568	-0.9260	25.30	0.63	-0.750			
0.2987	19119.53	3.7540	3.7537	-0.9279	25.30	0.63	-0.750			
0.3015	19297.04	3.7510	3.7507	-0.9225	25.31	0.64	-0.750	0.430	0.556	
0.3043	19473.06	3.7480	3.7478	-0.9232	25.31	0.64	-0.750			
0.3070	19646.27	3.7450	3.7449	-0.9341	25.31	0.64	-0.750			
0.3097	19822.59	3.7420	3.7419	-0.9424	25.31	0.64	-0.750			
0.3129	20022.88	3.7390	3.7387	-0.9208	25.32	0.65	-0.750			
0.3154	20187.80	3.7360	3.7360	-0.9377	25.32	0.65	-0.750			
0.3182	20366.30	3.7330	3.7334	-0.9579	25.32	0.65	-0.750			
0.3211	20550.55	3.7300	3.7293	-0.9806	25.32	0.65	-0.750	0.446	0.562	
0.3240	20735.08	3.7270	3.7273	-0.9931	25.32	0.65	-0.750			
0.3271	20931.55	3.7240	3.7243	-1.0004	25.33	0.66	-0.750			
0.3302	21131.89	3.7210	3.7211	-1.0443	25.33	0.66	-0.750			
0.3336	21349.26	3.7180	3.7178	-1.0667	25.33	0.66	-0.750			
0.3366	21543.29	3.7150	3.7145	-1.0284	25.33	0.66	-0.750			
0.3397	21741.18	3.7120	3.7120	-1.0188	25.34	0.67	-0.750	0.445	0.572	
0.3428	21936.74	3.7090	3.7091	-1.0186	25.34	0.67	-0.750			
0.3458	22129.52	3.7060	3.7058	-1.0271	25.34	0.67	-0.750			
0.3488	22321.56	3.7030	3.7028	-1.0479	25.34	0.67	-0.750			
0.3520	22527.30	3.7000	3.6998	-1.0656	25.34	0.67	-0.750			
0.3553	22738.75	3.6970	3.6968	-1.0781	25.34	0.67	-0.750			
0.3587	22953.94	3.6940	3.6936	-1.1010	25.34	0.67	-0.750	0.440	0.558	
0.3620	23166.93	3.6910	3.6910	-1.0937	25.34	0.67	-0.750			
0.3652	23373.84	3.6880	3.6876	-1.0874	25.34	0.67	-0.750			
0.3684	23579.43	3.6850	3.6853	-1.0997	25.34	0.67	-0.750			
0.3716	23783.53	3.6820	3.6820	-1.1012	25.33	0.66	-0.750			
0.3751	24008.80	3.6790	3.6788	-1.1229	25.33	0.66	-0.750			
0.3784	24217.82	3.6760	3.6759	-1.0194	25.32	0.65	-0.750			
0.3811	24390.59	3.6730	3.6738	-1.0799	25.32	0.65	-0.750	0.423	0.555	
0.3843	24592.22	3.6700	3.6708	-1.1273	25.32	0.65	-0.750			
0.3876	24806.09	3.6670	3.6679	-1.1702	25.32	0.65	-0.750			
0.3912	25034.97	3.6640	3.6649	-1.2463	25.32	0.65	-0.750			
0.3955	25311.52	3.6610	3.6611	-1.2931	25.32	0.65	-0.750			
0.3996	25576.40	3.6580	3.6578	-1.2990	25.31	0.64	-0.750	0.437	0.569	
0.4033	25812.32	3.6550	3.6548	-1.2475	25.31	0.64	-0.750			
0.4072	26059.88	3.6520	3.6516	-1.2656	25.31	0.64	-0.750			
0.4111	26307.47	3.6490	3.6487	-1.2309	25.31	0.64	-0.750			
0.4145	26525.57	3.6460	3.6457	-1.2640	25.31	0.64	-0.750			
0.4183	26771.79	3.6430	3.6437	-1.2781	25.31	0.64	-0.750			
0.4221	27012.34	3.6400	3.6401	-1.3746	25.31	0.64	-0.750	0.440	0.576	
0.4262	27275.21	3.6370	3.6367	-1.3853	25.31	0.64	-0.750			
0.4304	27544.44	3.6340	3.6353	-1.4107	25.31	0.64	-0.750			
0.4350	27843.03	3.6310	3.6304	-1.4660	25.31	0.64	-0.750			
0.4396	28134.24	3.6280	3.6273	-1.4891	25.31	0.64	-0.750	0.457	0.590	
0.4437	28398.52	3.6250	3.6250	-1.4488	25.31	0.64	-0.750			
0.4480	28674.07	3.6220	3.6216	-1.4833	25.31	0.64	-0.750			
0.4525	28960.75	3.6190	3.6186	-1.4947	25.31	0.64	-0.750			
0.4570	29249.99	3.6160	3.6160	-1.5761	25.31	0.64	-0.750			
0.4620	29567.59	3.6130	3.6128	-1.6248	25.32	0.65	-0.750	0.454	0.572	
0.4668	29875.98	3.6100	3.6100	-1.6504	25.32	0.65	-0.750			
0.4719	30198.44	3.6070	3.6077	-1.6839	25.33	0.66	-0.750			
0.4771	30535.57	3.6040	3.6035	-1.7089	25.33	0.66	-0.750			
0.4822	30863.10	3.6010	3.6008	-1.7311	25.34	0.67	-0.750	0.396	0.563	
0.4876	31207.21	3.5980	3.5977	-1.7685	25.34	0.67	-0.750			
0.4929	31545.73	3.5950	3.5956	-1.7955	25.34	0.67	-0.750			
0.4983	31894.39	3.5920	3.5922	-1.8565	25.34	0.67	-0.750	0.436	0.579	
0.5039	32252.42	3.5890	3.5888	-1.8856	25.33	0.66	-0.750			
0.5096	32615.48	3.5860	3.5862	-1.8638	25.33	0.66	-0.750			
0.5153	32979.81	3.5830	3.5832	-1.9363	25.34	0.67	-0.750			
0.5211	33351.06	3.5800	3.5792	-2.0144	25.34	0.67	-0.750	0.438	0.565	
0.5273	33745.24	3.5770	3.5775	-2.0461	25.34	0.67	-0.750			
0.5335	34144.68	3.5740	3.5745	-2.0729	25.35	0.68	-0.750			
0.5400	34561.94	3.5710	3.5714	-2.1126	25.36	0.69	-0.750	0.430	0.557	
0.5468	34996.43	3.5680	3.5678	-2.1708	25.37	0.70	-0.750			
0.5527	35375.74	3.5650	3.5649	-2.0624	25.38	0.71	-0.750			
0.5589	35769.07	3.5620	3.5623	-2.0455	25.38	0.71	-0.750	0.420	0.567	
0.5651	36164.08	3.5590	3.5590	-2.0667	25.38	0.71	-0.750			
0.5713	36563.00	3.5560	3.5557	-2.0688	25.39	0.72	-0.750			
0.5772	36941.91	3.5530	3.5528	-2.1081	25.40	0.73	-0.750			
0.5837	37356.03	3.5500	3.5498	-2.1238	25.41	0.74	-0.750	0.430	0.574	
0.5902	37769.75	3.5470	3.5468	-2.0805	25.42	0.75	-0.750			
0.5964	38172.30	3.5440	3.5435	-2.0403	25.43	0.76	-0.750			
0.6026	38567.35	3.5410	3.5407	-2.0190	25.44	0.77	-0.750	0.389	0.583	
0.6084	38938.22	3.5380	3.5376	-1.9335	25.46	0.79	-0.750			
0.6142	39310.34	3.5350	3.5347	-1.8882	25.47	0.80	-0.750			
0.6197	39662.54	3.5320	3.5321	-1.9146	25.48	0.81	-0.750	0.421	0.589	
0.6257	40041.79	3.5290	3.5288	-1.8607	25.49	0.82	-0.750			
0.6309	40378.58	3.5260	3.5258	-1.7888	25.50	0.83	-0.750			
0.6362	40714.32	3.5230	3.5233	-1.7536	25.52	0.85	-0.750			
0.6414	41046.47	3.5200	3.5210	-1.7310	25.54	0.87	-0.750	0.405	0.565	
0.6466	41380.19	3.5170	3.5168	-1.6840	25.55	0.88	-0.750			
0.6516	41700.38	3.5140	3.5137	-1.6377	25.57	0.90	-0.750			
0.6565	42015.25	3.5110	3.5107	-1.6094	25.59	0.92	-0.750			
0.6612	42316.95	3.5080	3.5083	-1.5534	25.60	0.93	-0.750	0.428	0.602	
0.6657	42605.03	3.5050	3.5051	-1.5226	25.62	0.95	-0.750			
0.6702	42895.49	3.5020	3.5017	-1.4757	25.64	0.97	-0.750			
0.6745	43170.14	3.4990	3.4992	-1.4274	25.66	0.99	-0.750			
0.6790	43453.08	3.4960	3.4961	-1.3995	25.67	1.00	-0.750	0.419	0.586	
0.6833	43730.61	3.4930	3.4927	-1.3770	25.69	1.02	-0.750			
0.6873	43984.17	3.4900	3.4897	-1.3415	25.71	1.04	-0.750			
0.6911	44229.68	3.4870	3.4868	-1.3046	25.72	1.05	-0.750			
0.6949	44472.53	3.4840	3.4837	-1.2776	25.74	1.07	-0.750			
0.6988	44720.94	3.4810	3.4804	-1.2589	25.75	1.08	-0.750			
0.7023	44944.81	3.4780	3.4776	-1.3021	25.77	1.10	-0.750	0.426	0.628	
0.7063	45201.84	3.4750	3.4743	-1.3560	25.78	1.11	-0.750			
0.7106	45478.97	3.4720	3.4712	-1.3970	25.80	1.13	-0.750			
0.7149	45754.09	3.4690	3.4684	-1.4282	25.81	1.14	-0.750			
0.7194	46039.64	3.4660	3.4658	-1.4350	25.83	1.16	-0.750	0.411	0.569	
0.7237	46315.48	3.4630	3.4628	-1.4074	25.85	1.18	-0.750			
0.7279	46583.58	3.4600	3.4597	-1.4353	25.87	1.20	-0.750			
0.7319	46839.66	3.4570	3.4569	-1.3923	25.89	1.22	-0.750			
0.7361	47108.28	3.4540	3.4538	-1.4927	25.90	1.23	-0.750			
0.7407	47404.35	3.4510	3.4514	-1.5358	25.91	1.24	-0.750	0.407	0.585	
0.7456	47715.48	3.4480	3.4472	-1.5534	25.93	1.26	-0.750			
0.7505	48029.30	3.4450	3.4457	-1.5239	25.94	1.27	-0.750			
0.7551	48327.00	3.4420	3.4424	-1.4666	25.96	1.29	-0.750			
0.7594	48604.76	3.4390	3.4388	-1.3966	25.98	1.31	-0.750	0.370	0.575	
0.7635	48865.00	3.4360	3.4358	-1.3363	25.99	1.32	-0.750			
0.7671	49091.93	3.4330	3.4330	-1.2533	26.01	1.34	-0.750			
0.7707	49327.38	3.4300	3.4299	-1.2356	26.02	1.35	-0.750			
0.7744	49564.39	3.4270	3.4269	-1.2095	26.04	1.37	-0.750			
0.7781	49797.73	3.4240	3.4239	-1.1851	26.05	1.38	-0.750			
0.7816	50023.96	3.4210	3.4211	-1.1532	26.06	1.39	-0.750	0.382	0.588	
0.7851	50245.04	3.4180	3.4179	-1.1209	26.08	1.41	-0.750			
0.7883	50453.51	3.4150	3.4150	-1.0872	26.09	1.42	-0.750			
0.7915	50657.11	3.4120	3.4120	-1.0452	26.10	1.43	-0.750			
0.7947	50859.78	3.4090	3.4088	-1.0127	26.11	1.44	-0.750			
0.7977	51052.44	3.4060	3.4058	-0.9637	26.12	1.45	-0.750			
0.8005	51233.67	3.4030	3.4030	-0.9119	26.13	1.46	-0.750	0.379	0.601	
0.8032	51402.84	3.4000	3.3999	-0.8540	26.13	1.46	-0.750			
0.8056	51560.89	3.3970	3.3970	-0.8008	26.14	1.47	-0.750			
0.8079	51706.75	3.3940	3.3939	-0.7484	26.15	1.48	-0.750			
0.8101	51844.30	3.3910	3.3911	-0.7029	26.16	1.49	-0.750			
0.8121	51975.88	3.3880	3.3880	-0.6599	26.17	1.50	-0.750			
0.8140	52098.27	3.3850	3.3850	-0.6183	26.18	1.51	-0.750			
0.8158	52211.81	3.3820	3.3820	-0.5833	26.19	1.52	-0.750			
0.8175	52319.33	3.3790	3.3790	-0.5441	26.20	1.53	-0.750			
0.8191	52419.71	3.3760	3.3759	-0.5103	26.21	1.54	-0.750			
0.8205	52513.39	3.3730	3.3729	-0.4812	26.21	1.54	-0.750	0.379	0.613	
0.8219	52602.87	3.3700	3.3700	-0.4554	26.22	1.55	-0.750			
0.8232	52686.57	3.3670	3.3669	-0.4320	26.22	1.55	-0.750			
0.8245	52765.77	3.3640	3.3640	-0.4089	26.23	1.56	-0.750			
0.8256	52841.54	3.3610	3.3611	-0.3904	26.23	1.56	-0.750			
0.8268	52915.91	3.3580	3.3579	-0.3764	26.24	1.57	-0.750			
0.8279	52985.85	3.3550	3.3551	-0.3593	26.24	1.57	-0.750			
0.8290	53053.18	3.3520	3.3519	-0.3451	26.25	1.58	-0.750			
0.8300	53117.58	3.3490	3.3491	-0.3316	26.25	1.58	-0.750			
0.8309	53179.99	3.3460	3.3460	-0.3197	26.25	1.58	-0.750			
0.8319	53240.08	3.3430	3.3430	-0.3082	26.26	1.59	-0.750			
0.8328	53297.87	3.3400	3.3400	-0.2978	26.26	1.59	-0.750			
0.8336	53353.44	3.3370	3.3370	-0.2882	26.27	1.60	-0.750			
0.8345	53407.66	3.3340	3.3340	-0.2797	26.27	1.60	-0.750			
0.8353	53460.61	3.3310	3.3310	-0.2715	26.28	1.61	-0.750			
0.8361	53511.90	3.3280	3.3280	-0.2641	26.28	1.61	-0.750			
0.8369	53562.06	3.3250	3.3251	-0.2569	26.29	1.62	-0.750			
0.8377	53610.09	3.3220	3.3220	-0.2520	26.29	1.62	-0.750			
0.8384	53657.81	3.3190	3.3190	-0.2459	26.30	1.63	-0.750			
0.8391	53704.42	3.3160	3.3159	-0.2395	26.30	1.63	-0.750			
0.8398	53750.21	3.3130	3.3129	-0.2348	26.30	1.63	-0.750			
0.8405	53795.06	3.3100	3.3099	-0.2297	26.31	1.64	-0.750	0.382	0.630	
0.8412	53838.57	3.3070	3.3071	-0.2240	26.31	1.64	-0.750			
0.8419	53880.82	3.3040	3.3040	-0.2186	26.32	1.65	-0.750			
0.8425	53922.00	3.3010	3.3009	-0.2142	26.32	1.65	-0.750			
0.8432	53961.60	3.2980	3.2981	-0.2087	26.32	1.65	-0.750			
0.8438	54001.80	3.2950	3.2949	-0.2057	26.33	1.66	-0.750			
0.8444	54040.82	3.2920	3.2920	-0.2023	26.33	1.66	-0.750			
0.8450	54079.25	3.2890	3.2891	-0.1987	26.34	1.67	-0.750			
0.8456	54117.10	3.2860	3.2860	-0.1956	26.34	1.67	-0.750			
0.8462	54154.39	3.2830	3.2829	-0.1927	26.35	1.68	-0.750			
0.8467	54191.00	3.2800	3.2800	-0.1896	26.35	1.68	-0.750			
0.8473	54227.09	3.2770	3.2770	-0.1863	26.36	1.69	-0.750			
0.8479	54262.58	3.2740	3.2740	-0.1834	26.36	1.69	-0.750			
0.8484	54297.58	3.2710	3.2710	-0.1810	26.37	1.70	-0.750			
0.8489	54331.91	3.2680	3.2680	-0.1781	26.37	1.70	-0.750			
0.8495	54365.74	3.2650	3.2650	-0.1759	26.38	1.71	-0.750			
0.8500	54399.29	3.2620	3.2620	-0.1737	26.38	1.71	-0.750			
0.8505	54432.26	3.2590	3.2590	-0.1716	26.38	1.71	-0.750			
0.8510	54464.93	3.2560	3.2560	-0.1700	26.39	1.72	-0.750			
0.8515	54497.59	3.2530	3.2530	-0.1683	26.39	1.72	-0.750			
0.8520	54529.72	3.2500	3.2500	-0.1664	26.40	1.73	-0.750			
0.8525	54561.65	3.2470	3.2470	-0.1636	26.40	1.73	-0.750			
0.8530	54592.81	3.2440	3.2440	-0.1620	26.40	1.73	-0.750			
0.8535	54623.68	3.2410	3.2411	-0.1596	26.41	1.74	-0.750			
0.8540	54654.10	3.2380	3.2380	-0.1573	26.41	1.74	-0.750			
0.8544	54683.94	3.2350	3.2349	-0.1557	26.42	1.75	-0.750			
0.8549	54713.50	3.2320	3.2322	-0.1536	26.42	1.75	-0.750			
0.8554	54742.91	3.2290	3.2290	-0.1523	26.41	1.74	-0.750			
0.8558	54772.01	3.2260	3.2260	-0.1508	26.42	1.75	-0.750			
0.8563	54801.02	3.2230	3.2230	-0.1492	26.42	1.75	-0.750			
0.8567	54829.29	3.2200	3.2200	-0.1469	26.42	1.75	-0.750			
0.8571	54857.40	3.2170	3.2170	-0.1458	26.42	1.75	-0.750			
0.8576	54885.23	3.2140	3.2140	-0.1440	26.43	1.76	-0.750			
0.8580	54912.56	3.2110	3.2111	-0.1424	26.43	1.76	-0.750			
0.8584	54939.75	3.2080	3.2080	-0.1411	26.43	1.76	-0.750			
0.8589	54966.49	3.2050	3.2051	-0.1399	26.44	1.77	-0.750			
0.8593	54993.29	3.2020	3.2020	-0.1392	26.44	1.77	-0.750			
0.8597	55020.01	3.1990	3.1990	-0.1380	26.44	1.77	-0.750			
0.8601	55046.65	3.1960	3.1959	-0.1362	26.45	1.78	-0.750			
0.8605	55072.65	3.1930	3.1929	-0.1346	26.45	1.78	-0.750	0.381	0.660	
0.8609	55098.31	3.1900	3.1903	-0.1327	26.45	1.78	-0.750			
0.8613	55123.73	3.1870	3.1869	-0.1311	26.45	1.78	-0.750			
0.8617	55148.67	3.1840	3.1839	-0.1290	26.46	1.79	-0.750			
0.8621	55172.89	3.1810	3.1811	-0.1272	26.46	1.79	-0.750			
0.8625	55197.25	3.1780	3.1780	-0.1262	26.46	1.79	-0.750			
0.8628	55221.35	3.1750	3.1749	-0.1251	26.47	1.80	-0.750			
0.8632	55245.37	3.1720	3.1720	-0.1242	26.47	1.80	-0.750			
0.8636	55269.10	3.1690	3.1690	-0.1230	26.47	1.80	-0.750			
0.8639	55292.56	3.1660	3.1660	-0.1217	26.47	1.80	-0.750			
0.8643	55315.92	3.1630	3.1631	-0.1208	26.48	1.81	-0.750			
0.8647	55338.91	3.1600	3.1599	-0.1196	26.48	1.81	-0.750			
0.8650	55361.69	3.1570	3.1570	-0.1184	26.48	1.81	-0.750			
0.8654	55384.38	3.1540	3.1539	-0.1171	26.48	1.81	-0.750			
0.8657	55406.79	3.1510	3.1510	-0.1160	26.49	1.82	-0.750			
0.8661	55428.80	3.1480	3.1480	-0.1153	26.49	1.82	-0.750			
0.8664	55450.76	3.1450	3.1450	-0.1143	26.49	1.82	-0.750			
0.8668	55472.76	3.1420	3.1420	-0.1131	26.49	1.82	-0.750			
0.8671	55494.41	3.1390	3.1389	-0.1120	26.50	1.83	-0.750			
0.8674	55515.83	3.1360	3.1360	-0.1108	26.50	1.83	-0.750			
0.8678	55537.04	3.1330	3.1330	-0.1097	26.50	1.83	-0.750			
0.8681	55557.89	3.1300	3.1301	-0.1088	26.50	1.83	-0.750			
0.8684	55578.74	3.1270	3.1269	-0.1078	26.51	1.84	-0.750			
0.8687	55599.32	3.1240	3.1240	-0.1066	26.51	1.84	-0.750			
0.8691	55619.46	3.1210	3.1209	-0.1052	26.51	1.84	-0.750			
0.8694	55639.59	3.1180	3.1181	-0.1045	26.51	1.84	-0.750			
0.8697	55659.67	3.1150	3.1150	-0.1038	26.52	1.85	-0.750			
0.8700	55679.51	3.1120	3.1120	-0.1029	26.52	1.85	-0.750			
0.8703	55699.18	3.1090	3.1089	-0.1020	26.52	1.85	-0.750			
0.8706	55718.74	3.1060	3.1060	-0.1008	26.52	1.85	-0.750			
0.8709	55737.98	3.1030	3.1030	-0.0998	26.52	1.85	-0.750			
0.8712	55756.96	3.1000	3.1000	-0.0990	26.53	1.86	-0.750			
0.8715	55775.95	3.0970	3.0970	-0.0982	26.53	1.86	-0.750			
0.8718	55794.70	3.0940	3.0939	-0.0973	26.53	1.86	-0.750			
0.8721	55813.17	3.0910	3.0910	-0.0962	26.53	1.86	-0.750			
0.8724	55831.58	3.0880	3.0880	-0.0954	26.53	1.86	-0.750			
0.8727	55849.80	3.0850	3.0851	-0.0946	26.54	1.87	-0.750			
0.8729	55867.96	3.0820	3.0820	-0.0937	26.54	1.87	-0.750			
0.8732	55885.99	3.0790	3.0790	-0.0929	26.54	1.87	-0.750			
0.8735	55903.71	3.0760	3.0760	-0.0919	26.54	1.87	-0.750			
0.8738	55921.19	3.0730	3.0729	-0.0908	26.54	1.87	-0.750			
0.8740	55938.48	3.0700	3.0701	-0.0900	26.55	1.88	-0.750			
0.8743	55955.67	3.0670	3.0670	-0.0891	26.55	1.88	-0.750			
0.8746	55972.71	3.0640	3.0640	-0.0882	26.55	1.88	-0.750			
0.8748	55989.51	3.0610	3.0610	-0.0873	26.55	1.88	-0.750			
0.8751	56006.16	3.0580	3.0580	-0.0866	26.55	1.88	-0.750			
0.8754	56022.73	3.0550	3.0550	-0.0859	26.56	1.89	-0.750			
0.8756	56039.13	3.0520	3.0521	-0.0853	26.56	1.89	-0.750			
0.8759	56055.43	3.0490	3.0491	-0.0846	26.56	1.89	-0.750			
0.8761	56071.62	3.0460	3.0459	-0.0840	26.56	1.89	-0.750			
0.8764	56087.68	3.0430	3.0429	-0.0832	26.56	1.89	-0.750			
0.8766	56103.60	3.0400	3.0401	-0.0826	26.57	1.90	-0.750			
0.8769	56119.45	3.0370	3.0371	-0.0821	26.57	1.90	-0.750			
0.8771	56135.14	3.0340	3.0340	-0.0813	26.57	1.90	-0.750			
0.8774	56150.65	3.0310	3.0310	-0.0805	26.57	1.90	-0.750			
0.8776	56166.06	3.0280	3.0280	-0.0798	26.57	1.90	-0.750			
0.8778	56181.30	3.0250	3.0249	-0.0791	26.57	1.90	-0.750			
0.8781	56196.42	3.0220	3.0221	-0.0784	26.58	1.91	-0.750			
0.8783	56211.41	3.0190	3.0190	-0.0777	26.58	1.91	-0.750			
0.8785	56226.30	3.0160	3.0159	-0.0771	26.58	1.91	-0.750			
0.8788	56241.03	3.0130	3.0130	-0.0764	26.58	1.91	-0.750			
0.8790	56255.62	3.0100	3.0100	-0.0756	26.58	1.91	-0.750			
0.8792	56270.04	3.0070	3.0071	-0.0750	26.58	1.91	-0.750			
0.8794	56284.39	3.0040	3.0040	-0.0744	26.59	1.92	-0.750			
