Ah_balance (normalized)	Ah_balance (mAh)	Voltage - fit (V)	Voltage -  interpolate (V)	dQ/dV (1/V)	Temperature (°C)	Temperature - diff (°C)	Current (C)	R_DC 0ms (mOhm)	R_DC 50ms (mOhm)	R_DC 50 ms PEC (mOhm)
0.1808	11570.48	4.0800	4.0800	0.7790	7.64	1.67	0.750			
0.1831	11720.93	4.0770	4.0770	0.7822	7.63	1.66	0.750			
0.1855	11869.71	4.0740	4.0740	0.7775	7.62	1.65	0.750			
0.1878	12018.91	4.0710	4.0710	0.7765	7.61	1.64	0.750			
0.1901	12167.10	4.0680	4.0681	0.7762	7.61	1.64	0.750			
0.1925	12316.98	4.0650	4.0649	0.7763	7.60	1.63	0.750			
0.1948	12465.61	4.0620	4.0620	0.7794	7.59	1.62	0.750			
0.1971	12613.78	4.0590	4.0590	0.7818	7.58	1.61	0.750			
0.1994	12764.16	4.0560	4.0561	0.7899	7.58	1.61	0.750			
0.2018	12916.47	4.0530	4.0529	0.7938	7.57	1.60	0.750			
0.2042	13069.80	4.0500	4.0500	0.8022	7.56	1.59	0.750			
0.2067	13225.85	4.0470	4.0470	0.8020	7.55	1.58	0.750			
0.2091	13380.07	4.0440	4.0440	0.8069	7.55	1.58	0.750			
0.2115	13534.99	4.0410	4.0411	0.8073	7.54	1.57	0.750			
0.2139	13690.21	4.0380	4.0378	0.8121	7.53	1.56	0.750			
0.2163	13845.93	4.0350	4.0350	0.8119	7.53	1.56	0.750			
0.2188	14002.94	4.0320	4.0320	0.8116	7.52	1.55	0.750			
0.2212	14158.07	4.0290	4.0291	0.8168	7.52	1.55	0.750			
0.2237	14314.64	4.0260	4.0261	0.8178	7.51	1.54	0.750			
0.2261	14471.40	4.0230	4.0228	0.8237	7.51	1.54	0.750			
0.2286	14630.51	4.0200	4.0201	0.8279	7.50	1.53	0.750			
0.2311	14790.79	4.0170	4.0171	0.8282	7.50	1.53	0.750			
0.2336	14952.60	4.0140	4.0140	0.8350	7.49	1.52	0.750			
0.2361	15111.23	4.0110	4.0111	0.8332	7.48	1.51	0.750			
0.2386	15271.18	4.0080	4.0079	0.8387	7.47	1.50	0.750			
0.2411	15432.68	4.0050	4.0050	0.8398	7.46	1.49	0.750			
0.2437	15595.67	4.0020	4.0021	0.8335	7.46	1.49	0.750			
0.2462	15756.39	3.9990	3.9990	0.8418	7.45	1.48	0.750			
0.2487	15917.52	3.9960	3.9960	0.8435	7.44	1.47	0.750			
0.2512	16077.01	3.9930	3.9926	0.8458	7.43	1.46	0.750			
0.2537	16239.28	3.9900	3.9901	0.8523	7.43	1.46	0.750			
0.2563	16403.53	3.9870	3.9870	0.8592	7.42	1.45	0.750			
0.2589	16570.94	3.9840	3.9841	0.8668	7.42	1.45	0.750			
0.2616	16740.46	3.9810	3.9809	0.8756	7.41	1.44	0.750			
0.2642	16905.74	3.9780	3.9779	0.8757	7.41	1.44	0.750			
0.2668	17076.01	3.9750	3.9750	0.8754	7.40	1.43	0.750			
0.2694	17244.03	3.9720	3.9720	0.8784	7.38	1.41	0.750			
0.2721	17412.78	3.9690	3.9690	0.8832	7.37	1.40	0.750			
0.2747	17582.32	3.9660	3.9661	0.8868	7.36	1.39	0.750			
0.2774	17752.60	3.9630	3.9630	0.8918	7.35	1.38	0.750			
0.2801	17925.09	3.9600	3.9599	0.8884	7.34	1.37	0.750			
0.2827	18095.04	3.9570	3.9571	0.8949	7.34	1.37	0.750			
0.2854	18267.52	3.9540	3.9541	0.9043	7.34	1.37	0.750			
0.2881	18441.28	3.9510	3.9509	0.9061	7.33	1.36	0.750			
0.2909	18616.83	3.9480	3.9480	0.9093	7.32	1.35	0.750			
0.2936	18790.09	3.9450	3.9451	0.9212	7.32	1.35	0.750			
0.2964	18968.47	3.9420	3.9421	0.9300	7.31	1.34	0.750			
0.2992	19149.48	3.9390	3.9390	0.9413	7.30	1.33	0.750			
0.3020	19328.93	3.9360	3.9359	0.9455	7.29	1.32	0.750			
0.3049	19511.22	3.9330	3.9331	0.9528	7.28	1.31	0.750			
0.3077	19695.36	3.9300	3.9300	0.9641	7.27	1.30	0.750			
0.3107	19881.85	3.9270	3.9270	0.9674	7.26	1.29	0.750			
0.3136	20067.50	3.9240	3.9239	0.9660	7.25	1.28	0.750			
0.3165	20256.67	3.9210	3.9210	0.9713	7.24	1.27	0.750			
0.3194	20440.91	3.9180	3.9182	0.9780	7.23	1.26	0.750			
0.3223	20627.86	3.9150	3.9150	0.9836	7.22	1.25	0.750			
0.3252	20815.64	3.9120	3.9120	0.9884	7.21	1.24	0.750			
0.3283	21008.05	3.9090	3.9090	1.0010	7.20	1.23	0.750			
0.3313	21200.52	3.9060	3.9061	1.0224	7.20	1.23	0.750			
0.3344	21399.38	3.9030	3.9030	1.0334	7.19	1.22	0.750			
0.3375	21600.48	3.9000	3.8999	1.0497	7.18	1.21	0.750			
0.3407	21802.90	3.8970	3.8970	1.0500	7.17	1.20	0.750			
0.3439	22006.45	3.8940	3.8941	1.0632	7.15	1.18	0.750			
0.3470	22210.91	3.8910	3.8911	1.0732	7.14	1.17	0.750			
0.3503	22418.32	3.8880	3.8879	1.0818	7.13	1.16	0.750			
0.3535	22626.85	3.8850	3.8851	1.0736	7.12	1.15	0.750			
0.3568	22832.34	3.8820	3.8820	1.0934	7.11	1.14	0.750			
0.3600	23040.49	3.8790	3.8792	1.1062	7.09	1.12	0.750			
0.3634	23255.99	3.8760	3.8758	1.1234	7.07	1.10	0.750			
0.3667	23470.59	3.8730	3.8731	1.1402	7.06	1.09	0.750			
0.3702	23691.05	3.8700	3.8701	1.1611	7.04	1.07	0.750			
0.3737	23918.56	3.8670	3.8671	1.1800	7.02	1.05	0.750			
0.3774	24150.89	3.8640	3.8639	1.1850	7.01	1.04	0.750			
0.3809	24375.61	3.8610	3.8611	1.2178	7.00	1.03	0.750			
0.3846	24614.95	3.8580	3.8580	1.2209	6.99	1.02	0.750			
0.3883	24852.94	3.8550	3.8546	1.2161	6.98	1.01	0.750			
0.3921	25093.95	3.8520	3.8522	1.1833	6.96	0.99	0.750			
0.3954	25308.49	3.8490	3.8496	1.1908	6.94	0.97	0.750			
0.3987	25518.87	3.8460	3.8471	1.2391	6.93	0.96	0.750			
0.4024	25750.80	3.8430	3.8444	1.3123	6.91	0.94	0.750			
0.4064	26010.37	3.8400	3.8402	1.3671	6.89	0.92	0.750			
0.4108	26292.62	3.8370	3.8381	1.4501	6.88	0.91	0.750	0.387	0.908	
0.4157	26602.24	3.8340	3.8344	1.5225	6.87	0.90	0.750			
0.4203	26896.06	3.8310	3.8311	1.4980	6.85	0.88	0.750			
0.4247	27177.85	3.8280	3.8280	1.4695	6.84	0.87	0.750			
0.4290	27453.89	3.8250	3.8251	1.4541	6.82	0.85	0.750			
0.4334	27735.01	3.8220	3.8221	1.4945	6.80	0.83	0.750			
0.4379	28025.09	3.8190	3.8189	1.5295	6.78	0.81	0.750			
0.4425	28321.48	3.8160	3.8160	1.5526	6.77	0.80	0.750			
0.4473	28625.64	3.8130	3.8130	1.5873	6.75	0.78	0.750			
0.4521	28932.84	3.8100	3.8099	1.6294	6.73	0.76	0.750			
0.4570	29247.74	3.8070	3.8070	1.6636	6.70	0.73	0.750			
0.4620	29569.40	3.8040	3.8041	1.7093	6.68	0.71	0.750			
0.4672	29898.79	3.8010	3.8012	1.7248	6.66	0.69	0.750			
0.4724	30232.79	3.7980	3.7981	1.7597	6.64	0.67	0.750			
0.4777	30570.18	3.7950	3.7952	1.7902	6.61	0.64	0.750			
0.4830	30912.66	3.7920	3.7922	1.8098	6.58	0.61	0.750			
0.4886	31269.98	3.7890	3.7891	1.8302	6.55	0.58	0.750			
0.4942	31631.03	3.7860	3.7860	1.8795	6.53	0.56	0.750			
0.4998	31986.41	3.7830	3.7831	1.8965	6.52	0.55	0.750			
0.5056	32356.52	3.7800	3.7797	1.9237	6.50	0.53	0.750			
0.5114	32727.71	3.7770	3.7770	1.9564	6.48	0.51	0.750			
0.5173	33109.34	3.7740	3.7740	2.0115	6.45	0.48	0.750			
0.5234	33498.55	3.7710	3.7711	2.0033	6.43	0.46	0.750			
0.5294	33880.19	3.7680	3.7679	2.0112	6.40	0.43	0.750			
0.5355	34271.32	3.7650	3.7653	2.0320	6.38	0.41	0.750			
0.5415	34658.15	3.7620	3.7619	2.0527	6.36	0.39	0.750			
0.5476	35049.38	3.7590	3.7590	2.0663	6.33	0.36	0.750			
0.5541	35463.23	3.7560	3.7560	2.1263	6.30	0.33	0.750			
0.5604	35865.00	3.7530	3.7530	2.1390	6.28	0.31	0.750			
0.5669	36281.01	3.7500	3.7500	2.1615	6.26	0.29	0.750			
0.5734	36696.67	3.7470	3.7472	2.1951	6.23	0.26	0.750			
0.5800	37117.05	3.7440	3.7440	2.2812	6.20	0.23	0.750			
0.5869	37559.58	3.7410	3.7409	2.3756	6.18	0.21	0.750			
0.5942	38029.16	3.7380	3.7381	2.4101	6.15	0.18	0.750			
0.6015	38497.93	3.7350	3.7352	2.4382	6.13	0.16	0.750			
0.6087	38959.15	3.7320	3.7318	2.5088	6.11	0.14	0.750			
0.6163	39443.46	3.7290	3.7289	2.5202	6.08	0.11	0.750			
0.6242	39947.39	3.7260	3.7260	2.5645	6.06	0.09	0.750			
0.6317	40430.57	3.7230	3.7231	2.5271	6.03	0.06	0.750			
0.6393	40917.67	3.7200	3.7200	2.4302	6.01	0.04	0.750			
0.6464	41371.92	3.7170	3.7171	2.2930	6.00	0.03	0.750			
0.6532	41807.54	3.7140	3.7140	2.1363	5.99	0.02	0.750			
0.6594	42201.73	3.7110	3.7111	1.9281	5.98	0.01	0.750			
0.6649	42552.00	3.7080	3.7080	1.7353	5.97	0.00	0.750			
0.6698	42867.61	3.7050	3.7048	1.5609	5.97	0.00	0.750			
0.6742	43147.31	3.7020	3.7020	1.3812	5.97	0.00	0.750			
0.6779	43383.38	3.6990	3.6989	1.2255	5.97	0.00	0.750			
0.6812	43595.16	3.6960	3.6960	1.1127	5.97	0.00	0.750			
0.6842	43785.83	3.6930	3.6931	1.0130	5.97	0.00	0.750			
0.6871	43976.02	3.6900	3.6899	0.9653	5.97	0.00	0.750			
0.6899	44150.76	3.6870	3.6870	0.9116	5.97	-0.00	0.750			
0.6926	44323.95	3.6840	3.6841	0.8723	5.97	-0.00	0.750			
0.6951	44486.62	3.6810	3.6810	0.8460	5.97	-0.00	0.750			
0.6976	44645.83	3.6780	3.6779	0.8110	5.96	-0.01	0.750			
0.6999	44796.19	3.6750	3.6750	0.7749	5.96	-0.01	0.750			
0.7022	44943.14	3.6720	3.6719	0.7440	5.96	-0.01	0.750			
0.7044	45084.09	3.6690	3.6692	0.7144	5.96	-0.01	0.750			
0.7065	45219.07	3.6660	3.6660	0.6771	5.96	-0.01	0.750			
0.7086	45347.24	3.6630	3.6630	0.6361	5.97	-0.00	0.750			
0.7104	45463.39	3.6600	3.6600	0.5907	5.97	-0.00	0.750			
0.7121	45574.42	3.6570	3.6570	0.5549	5.97	-0.00	0.750			
0.7137	45675.53	3.6540	3.6539	0.5150	5.97	-0.00	0.750			
0.7152	45770.60	3.6510	3.6510	0.4769	5.97	0.00	0.750			
0.7165	45857.80	3.6480	3.6480	0.4401	5.97	0.00	0.750			
0.7178	45939.48	3.6450	3.6450	0.4068	5.97	0.00	0.750			
0.7190	46014.93	3.6420	3.6420	0.3730	5.97	0.00	0.750			
0.7200	46082.25	3.6390	3.6390	0.3379	5.97	0.00	0.750			
0.7210	46143.47	3.6360	3.6360	0.3037	5.98	0.01	0.750			
0.7218	46198.21	3.6330	3.6330	0.2704	5.98	0.01	0.750			
0.7226	46248.77	3.6300	3.6298	0.2351	5.98	0.01	0.750			
0.7233	46290.21	3.6270	3.6270	0.1972	5.98	0.01	0.750			
0.7238	46325.85	3.6240	3.6241	0.1620	5.98	0.01	0.750			
0.7243	46354.63	3.6210	3.6211	0.1238	5.98	0.01	0.750			
0.7246	46374.34	3.6180	3.6181	0.0815	5.98	0.01	0.750			
0.7248	46385.95	3.6150	3.6153	0.0391	5.98	0.01	0.750			
0.7248	46389.39	3.6120	3.6144	-0.0032	5.98	0.01	0.751			
