Ah_balance (normalized)	Ah_balance (mAh)	Voltage - fit (V)	Voltage -  interpolate (V)	dQ/dV (1/V)	Temperature (°C)	Temperature - diff (°C)	Current (C)	R_DC 0ms (mOhm)	R_DC 50ms (mOhm)	R_DC 50 ms PEC (mOhm)
0.1610	10305.81	4.0730	4.0729	0.8254	7.57	1.60	0.750			
0.1635	10462.48	4.0700	4.0700	0.8180	7.57	1.60	0.750			
0.1660	10621.20	4.0670	4.0670	0.8148	7.56	1.59	0.750			
0.1684	10775.39	4.0640	4.0640	0.8144	7.56	1.59	0.750			
0.1708	10929.81	4.0610	4.0611	0.8168	7.55	1.58	0.750			
0.1732	11087.45	4.0580	4.0578	0.8206	7.55	1.58	0.750			
0.1757	11245.04	4.0550	4.0550	0.8251	7.55	1.58	0.750			
0.1782	11405.46	4.0520	4.0520	0.8247	7.54	1.57	0.750			
0.1807	11563.12	4.0490	4.0491	0.8311	7.54	1.57	0.750			
0.1832	11723.32	4.0460	4.0460	0.8311	7.53	1.56	0.750			
0.1857	11882.97	4.0430	4.0427	0.8319	7.53	1.56	0.750			
0.1882	12041.78	4.0400	4.0401	0.8352	7.52	1.55	0.750			
0.1907	12203.67	4.0370	4.0371	0.8440	7.52	1.55	0.750			
0.1932	12367.52	4.0340	4.0339	0.8476	7.51	1.54	0.750			
0.1958	12530.14	4.0310	4.0310	0.8443	7.51	1.54	0.750			
0.1983	12692.62	4.0280	4.0281	0.8477	7.50	1.53	0.750			
0.2009	12856.95	4.0250	4.0250	0.8509	7.50	1.53	0.750			
0.2034	13020.22	4.0220	4.0219	0.8506	7.50	1.53	0.750			
0.2060	13180.90	4.0190	4.0190	0.8518	7.49	1.52	0.750			
0.2085	13344.65	4.0160	4.0161	0.8567	7.49	1.52	0.750			
0.2111	13509.52	4.0130	4.0129	0.8625	7.49	1.52	0.750			
0.2137	13677.01	4.0100	4.0100	0.8639	7.49	1.52	0.750			
0.2163	13842.79	4.0070	4.0070	0.8680	7.48	1.51	0.750			
0.2189	14009.93	4.0040	4.0041	0.8740	7.48	1.51	0.750			
0.2215	14177.17	4.0010	4.0010	0.8757	7.47	1.50	0.750			
0.2242	14345.72	3.9980	3.9980	0.8780	7.47	1.50	0.750			
0.2268	14516.30	3.9950	3.9950	0.8802	7.46	1.49	0.750			
0.2295	14685.21	3.9920	3.9921	0.8840	7.45	1.48	0.750			
0.2321	14855.41	3.9890	3.9890	0.8884	7.44	1.47	0.750			
0.2348	15025.30	3.9860	3.9860	0.8864	7.43	1.46	0.750			
0.2374	15195.76	3.9830	3.9831	0.8900	7.43	1.46	0.750			
0.2401	15366.84	3.9800	3.9800	0.8923	7.42	1.45	0.750			
0.2428	15538.55	3.9770	3.9769	0.8974	7.42	1.45	0.750			
0.2455	15711.68	3.9740	3.9740	0.9007	7.41	1.44	0.750			
0.2482	15883.44	3.9710	3.9710	0.9028	7.41	1.44	0.750			
0.2509	16058.78	3.9680	3.9680	0.9047	7.40	1.43	0.750			
0.2536	16232.37	3.9650	3.9650	0.9142	7.39	1.42	0.750			
0.2564	16407.43	3.9620	3.9620	0.9184	7.38	1.41	0.750			
0.2591	16584.39	3.9590	3.9591	0.9271	7.38	1.41	0.750			
0.2619	16762.70	3.9560	3.9560	0.9321	7.37	1.40	0.750			
0.2647	16943.34	3.9530	3.9530	0.9358	7.36	1.39	0.750			
0.2676	17123.48	3.9500	3.9501	0.9411	7.36	1.39	0.750			
0.2704	17304.98	3.9470	3.9470	0.9453	7.35	1.38	0.750			
0.2732	17485.79	3.9440	3.9439	0.9476	7.35	1.38	0.750			
0.2761	17669.34	3.9410	3.9410	0.9489	7.34	1.37	0.750			
0.2789	17850.73	3.9380	3.9381	0.9545	7.33	1.36	0.750			
0.2818	18033.97	3.9350	3.9351	0.9682	7.32	1.35	0.750			
0.2847	18220.44	3.9320	3.9320	0.9761	7.31	1.34	0.750			
0.2876	18409.42	3.9290	3.9290	0.9801	7.30	1.33	0.750			
0.2906	18598.64	3.9260	3.9261	0.9891	7.30	1.33	0.750			
0.2936	18789.47	3.9230	3.9231	0.9977	7.29	1.32	0.750			
0.2966	18983.78	3.9200	3.9199	1.0045	7.28	1.31	0.750			
0.2996	19174.71	3.9170	3.9170	1.0086	7.27	1.30	0.750			
0.3026	19367.76	3.9140	3.9141	1.0187	7.26	1.29	0.750			
0.3057	19564.97	3.9110	3.9110	1.0313	7.25	1.28	0.750			
0.3088	19764.45	3.9080	3.9080	1.0437	7.25	1.28	0.750			
0.3120	19965.51	3.9050	3.9050	1.0514	7.24	1.27	0.750			
0.3151	20168.22	3.9020	3.9021	1.0654	7.23	1.26	0.750			
0.3184	20375.06	3.8990	3.8990	1.0777	7.22	1.25	0.750			
0.3216	20582.27	3.8960	3.8960	1.0882	7.21	1.24	0.750			
0.3249	20793.40	3.8930	3.8930	1.0929	7.21	1.24	0.750			
0.3282	21002.07	3.8900	3.8900	1.1134	7.20	1.23	0.750			
0.3315	21217.57	3.8870	3.8870	1.1264	7.18	1.21	0.750			
0.3349	21435.59	3.8840	3.8839	1.1410	7.17	1.20	0.750			
0.3384	21655.10	3.8810	3.8811	1.1570	7.16	1.19	0.750			
0.3419	21879.86	3.8780	3.8781	1.1774	7.15	1.18	0.750			
0.3454	22107.62	3.8750	3.8750	1.1954	7.14	1.17	0.750			
0.3491	22339.26	3.8720	3.8720	1.2017	7.13	1.16	0.750			
0.3527	22571.09	3.8690	3.8691	1.2175	7.12	1.15	0.750			
0.3563	22806.28	3.8660	3.8660	1.2435	7.10	1.13	0.750			
0.3601	23047.60	3.8630	3.8629	1.2532	7.09	1.12	0.750			
0.3639	23287.06	3.8600	3.8600	1.2720	7.08	1.11	0.750			
0.3677	23532.12	3.8570	3.8571	1.2992	7.07	1.10	0.750			
0.3717	23785.76	3.8540	3.8540	1.3254	7.06	1.09	0.750			
0.3757	24042.74	3.8510	3.8510	1.3575	7.04	1.07	0.750			
0.3798	24306.46	3.8480	3.8480	1.3716	7.03	1.06	0.750			
0.3839	24572.03	3.8450	3.8450	1.4012	7.02	1.05	0.750			
0.3883	24848.04	3.8420	3.8420	1.4288	7.00	1.03	0.750			
0.3925	25122.23	3.8390	3.8391	1.4574	6.99	1.02	0.750			
0.3970	25405.58	3.8360	3.8361	1.4757	6.97	1.00	0.750	0.449	1.041	
0.4014	25689.44	3.8330	3.8332	1.5149	6.96	0.99	0.750			
0.4060	25982.51	3.8300	3.8298	1.5420	6.95	0.98	0.750			
0.4106	26278.38	3.8270	3.8269	1.5785	6.93	0.96	0.750			
0.4154	26588.54	3.8240	3.8241	1.6095	6.91	0.94	0.750			
0.4204	26906.47	3.8210	3.8209	1.6635	6.88	0.91	0.750			
0.4255	27228.81	3.8180	3.8180	1.7115	6.86	0.89	0.750			
0.4306	27556.06	3.8150	3.8149	1.7591	6.85	0.88	0.750			
0.4360	27902.40	3.8120	3.8120	1.7940	6.83	0.86	0.750			
0.4414	28251.41	3.8090	3.8090	1.8115	6.80	0.83	0.750			
0.4469	28603.65	3.8060	3.8060	1.8491	6.78	0.81	0.750			
0.4525	28956.85	3.8030	3.8030	1.8718	6.76	0.79	0.750			
0.4581	29318.13	3.8000	3.7999	1.9349	6.74	0.77	0.750			
0.4640	29696.00	3.7970	3.7970	1.9878	6.72	0.75	0.750			
0.4701	30083.33	3.7940	3.7941	2.0295	6.69	0.72	0.750			
0.4762	30473.66	3.7910	3.7910	2.0759	6.66	0.69	0.750			
0.4825	30879.65	3.7880	3.7880	2.1295	6.64	0.67	0.750			
0.4889	31291.58	3.7850	3.7852	2.1756	6.62	0.65	0.750			
0.4956	31715.74	3.7820	3.7817	2.2241	6.58	0.61	0.750			
0.5023	32147.69	3.7790	3.7790	2.2342	6.55	0.58	0.750			
0.5091	32582.81	3.7760	3.7761	2.2570	6.52	0.55	0.750			
0.5158	33009.84	3.7730	3.7730	2.2750	6.49	0.52	0.750			
0.5226	33448.11	3.7700	3.7700	2.3191	6.47	0.50	0.750			
0.5298	33906.07	3.7670	3.7669	2.3947	6.44	0.47	0.750			
0.5370	34368.10	3.7640	3.7641	2.4010	6.41	0.44	0.750			
0.5444	34838.96	3.7610	3.7610	2.4454	6.37	0.40	0.750			
0.5516	35305.17	3.7580	3.7579	2.4771	6.34	0.37	0.750			
0.5591	35785.04	3.7550	3.7549	2.5271	6.31	0.34	0.750			
0.5668	36274.44	3.7520	3.7520	2.5757	6.28	0.31	0.750			
0.5746	36774.27	3.7490	3.7491	2.6318	6.25	0.28	0.750			
0.5826	37287.61	3.7460	3.7461	2.7470	6.22	0.25	0.750			
0.5910	37823.56	3.7430	3.7431	2.8591	6.19	0.22	0.750			
0.5998	38386.22	3.7400	3.7400	3.0227	6.15	0.18	0.750			
0.6090	38974.63	3.7370	3.7371	3.1335	6.12	0.15	0.750			
0.6187	39593.95	3.7340	3.7340	3.2676	6.08	0.11	0.750			
0.6287	40234.44	3.7310	3.7310	3.3708	6.04	0.07	0.750			
0.6390	40893.23	3.7280	3.7280	3.3026	6.02	0.05	0.750			
0.6486	41513.47	3.7250	3.7251	3.0847	5.99	0.02	0.750			
0.6574	42074.68	3.7220	3.7221	2.7905	5.98	0.01	0.750			
0.6653	42580.17	3.7190	3.7190	2.4387	5.97	-0.00	0.750			
0.6721	43012.71	3.7160	3.7159	2.0945	5.96	-0.01	0.750			
0.6779	43386.00	3.7130	3.7129	1.8250	5.96	-0.01	0.750			
0.6829	43707.49	3.7100	3.7100	1.5735	5.95	-0.02	0.750			
0.6871	43972.88	3.7070	3.7070	1.3595	5.95	-0.02	0.750			
0.6907	44202.73	3.7040	3.7040	1.1991	5.95	-0.02	0.750			
0.6938	44401.24	3.7010	3.7009	1.0430	5.95	-0.02	0.750			
0.6966	44584.20	3.6980	3.6979	0.9529	5.95	-0.02	0.750			
0.6992	44751.87	3.6950	3.6950	0.8695	5.95	-0.02	0.750			
0.7018	44912.44	3.6920	3.6920	0.8108	5.96	-0.01	0.750			
0.7041	45062.32	3.6890	3.6890	0.7511	5.96	-0.01	0.750			
0.7063	45202.26	3.6860	3.6860	0.6957	5.96	-0.01	0.750			
0.7083	45330.14	3.6830	3.6830	0.6363	5.97	-0.00	0.750			
0.7101	45446.90	3.6800	3.6800	0.5783	5.97	-0.00	0.750			
0.7117	45551.64	3.6770	3.6770	0.5223	5.97	0.00	0.750			
0.7132	45645.35	3.6740	3.6740	0.4674	5.97	0.00	0.750			
0.7145	45728.96	3.6710	3.6710	0.4170	5.98	0.01	0.750			
0.7157	45803.12	3.6680	3.6681	0.3699	5.98	0.01	0.750			
0.7167	45868.99	3.6650	3.6650	0.3241	5.98	0.01	0.750			
0.7176	45926.73	3.6620	3.6619	0.2848	5.98	0.01	0.750			
0.7184	45977.22	3.6590	3.6589	0.2437	5.98	0.01	0.750			
0.7191	46020.02	3.6560	3.6559	0.2045	5.98	0.01	0.750			
0.7196	46056.17	3.6530	3.6531	0.1664	5.98	0.01	0.750			
0.7201	46085.08	3.6500	3.6502	0.1266	5.98	0.01	0.750			
0.7204	46105.70	3.6470	3.6476	0.0843	5.99	0.02	0.750			
0.7206	46117.99	3.6440	3.6448	0.0344	5.99	0.02	0.750			
