Ah_balance (normalized)	Ah_balance (mAh)	Voltage - fit (V)	Voltage -  interpolate (V)	dQ/dV (1/V)	Temperature (°C)	Temperature - diff (°C)	Current (C)	R_DC 0ms (mOhm)	R_DC 50ms (mOhm)	R_DC 50 ms PEC (mOhm)
0.1819	11640.63	4.0800	4.0801	0.7825	7.54	1.59	0.750			
0.1843	11792.07	4.0770	4.0770	0.7904	7.54	1.59	0.750			
0.1867	11946.03	4.0740	4.0741	0.7904	7.53	1.58	0.750			
0.1890	12096.89	4.0710	4.0710	0.7890	7.53	1.58	0.750			
0.1914	12249.01	4.0680	4.0680	0.7954	7.52	1.57	0.750			
0.1937	12399.01	4.0650	4.0650	0.7920	7.51	1.56	0.750			
0.1961	12551.42	4.0620	4.0619	0.7933	7.51	1.56	0.750			
0.1985	12703.77	4.0590	4.0590	0.7952	7.50	1.55	0.750			
0.2009	12857.35	4.0560	4.0561	0.7941	7.50	1.55	0.750			
0.2033	13009.01	4.0530	4.0530	0.8016	7.49	1.54	0.750			
0.2057	13162.17	4.0500	4.0501	0.8006	7.49	1.54	0.750			
0.2081	13316.59	4.0470	4.0467	0.8040	7.48	1.53	0.750			
0.2105	13471.37	4.0440	4.0441	0.8087	7.47	1.52	0.750			
0.2129	13627.99	4.0410	4.0411	0.8110	7.46	1.51	0.750			
0.2154	13784.26	4.0380	4.0380	0.8143	7.46	1.51	0.750			
0.2178	13938.65	4.0350	4.0350	0.8130	7.45	1.50	0.750			
0.2202	14095.77	4.0320	4.0319	0.8171	7.44	1.49	0.750			
0.2227	14253.97	4.0290	4.0289	0.8217	7.43	1.48	0.750			
0.2252	14411.61	4.0260	4.0260	0.8226	7.43	1.48	0.750			
0.2277	14570.01	4.0230	4.0231	0.8274	7.42	1.47	0.750			
0.2301	14729.04	4.0200	4.0200	0.8297	7.42	1.47	0.750			
0.2326	14888.63	4.0170	4.0169	0.8338	7.41	1.46	0.750			
0.2351	15048.13	4.0140	4.0140	0.8361	7.40	1.45	0.750			
0.2377	15210.55	4.0110	4.0110	0.8353	7.40	1.45	0.750			
0.2402	15371.12	4.0080	4.0081	0.8399	7.39	1.44	0.750			
0.2427	15531.52	4.0050	4.0050	0.8404	7.39	1.44	0.750			
0.2452	15692.52	4.0020	4.0018	0.8451	7.38	1.43	0.750			
0.2477	15854.81	3.9990	3.9990	0.8474	7.37	1.42	0.750			
0.2503	16017.86	3.9960	3.9961	0.8489	7.37	1.42	0.750			
0.2528	16182.06	3.9930	3.9930	0.8575	7.36	1.41	0.750			
0.2554	16347.26	3.9900	3.9900	0.8558	7.36	1.41	0.750			
0.2580	16511.68	3.9870	3.9867	0.8605	7.35	1.40	0.750			
0.2606	16676.78	3.9840	3.9841	0.8681	7.34	1.39	0.750			
0.2632	16844.81	3.9810	3.9809	0.8712	7.33	1.38	0.750			
0.2658	17013.82	3.9780	3.9779	0.8788	7.32	1.37	0.750			
0.2685	17183.25	3.9750	3.9752	0.8801	7.32	1.37	0.750			
0.2711	17350.82	3.9720	3.9720	0.8832	7.31	1.36	0.750			
0.2738	17522.64	3.9690	3.9690	0.8853	7.30	1.35	0.750			
0.2764	17691.11	3.9660	3.9660	0.8858	7.29	1.34	0.750			
0.2791	17860.99	3.9630	3.9631	0.8882	7.28	1.33	0.750			
0.2818	18033.25	3.9600	3.9600	0.8966	7.27	1.32	0.750			
0.2844	18204.32	3.9570	3.9571	0.9006	7.27	1.32	0.750			
0.2872	18378.79	3.9540	3.9540	0.8979	7.26	1.31	0.750			
0.2898	18549.44	3.9510	3.9510	0.9044	7.25	1.30	0.750			
0.2925	18722.55	3.9480	3.9481	0.9201	7.24	1.29	0.750			
0.2953	18900.40	3.9450	3.9446	0.9266	7.23	1.28	0.750			
0.2981	19080.33	3.9420	3.9420	0.9348	7.22	1.27	0.750			
0.3010	19261.12	3.9390	3.9390	0.9389	7.22	1.27	0.750			
0.3038	19444.45	3.9360	3.9362	0.9480	7.21	1.26	0.750			
0.3067	19625.93	3.9330	3.9329	0.9432	7.20	1.25	0.750			
0.3095	19808.06	3.9300	3.9299	0.9463	7.20	1.25	0.750			
0.3123	19986.58	3.9270	3.9271	0.9510	7.19	1.24	0.750			
0.3152	20171.83	3.9240	3.9240	0.9632	7.18	1.23	0.750			
0.3181	20358.08	3.9210	3.9210	0.9759	7.18	1.23	0.750			
0.3210	20545.42	3.9180	3.9180	0.9851	7.17	1.22	0.750			
0.3240	20735.11	3.9150	3.9150	0.9942	7.16	1.21	0.750			
0.3270	20928.31	3.9120	3.9120	1.0051	7.15	1.20	0.750			
0.3300	21121.49	3.9090	3.9091	1.0158	7.14	1.19	0.750			
0.3331	21316.54	3.9060	3.9057	1.0234	7.13	1.18	0.750			
0.3362	21516.11	3.9030	3.9031	1.0288	7.12	1.17	0.750			
0.3393	21712.89	3.9000	3.8999	1.0373	7.10	1.15	0.750			
0.3424	21913.15	3.8970	3.8971	1.0474	7.09	1.14	0.750			
0.3456	22116.72	3.8940	3.8937	1.0550	7.08	1.13	0.750			
0.3487	22317.64	3.8910	3.8911	1.0669	7.07	1.12	0.750			
0.3519	22522.26	3.8880	3.8880	1.0822	7.06	1.11	0.750			
0.3552	22731.29	3.8850	3.8851	1.0973	7.05	1.10	0.750			
0.3585	22943.50	3.8820	3.8819	1.1061	7.04	1.09	0.750			
0.3618	23157.76	3.8790	3.8791	1.1212	7.02	1.07	0.750			
0.3652	23375.69	3.8760	3.8760	1.1366	7.01	1.06	0.750			
0.3687	23594.25	3.8730	3.8730	1.1533	7.00	1.05	0.750			
0.3721	23816.49	3.8700	3.8700	1.1649	6.98	1.03	0.750			
0.3756	24040.75	3.8670	3.8670	1.1794	6.97	1.02	0.750			
0.3792	24270.61	3.8640	3.8640	1.1971	6.96	1.01	0.750			
0.3828	24502.22	3.8610	3.8611	1.2153	6.95	1.00	0.750			
0.3866	24742.71	3.8580	3.8579	1.2086	6.94	0.99	0.750			
0.3902	24973.27	3.8550	3.8550	1.2202	6.93	0.98	0.750			
0.3939	25208.16	3.8520	3.8520	1.2201	6.92	0.97	0.750			
0.3975	25439.25	3.8490	3.8490	1.2363	6.90	0.95	0.750			
0.4012	25674.73	3.8460	3.8457	1.2526	6.88	0.93	0.750			
0.4049	25914.16	3.8430	3.8432	1.3048	6.86	0.91	0.750			
0.4089	26167.57	3.8400	3.8399	1.3457	6.84	0.89	0.750			
0.4131	26436.36	3.8370	3.8368	1.3824	6.83	0.88	0.750	0.377	0.921	
0.4173	26704.50	3.8340	3.8343	1.4103	6.82	0.87	0.750			
0.4216	26981.48	3.8310	3.8309	1.4619	6.80	0.85	0.750			
0.4260	27264.35	3.8280	3.8282	1.4919	6.78	0.83	0.750			
0.4305	27554.49	3.8250	3.8252	1.4939	6.76	0.81	0.750			
0.4351	27849.58	3.8220	3.8222	1.5422	6.74	0.79	0.750			
0.4397	28142.81	3.8190	3.8191	1.5442	6.73	0.78	0.750			
0.4444	28444.22	3.8160	3.8158	1.5808	6.71	0.76	0.750			
0.4491	28743.29	3.8130	3.8128	1.5893	6.69	0.74	0.750			
0.4540	29053.72	3.8100	3.8100	1.6389	6.67	0.72	0.750			
0.4589	29372.10	3.8070	3.8068	1.6897	6.65	0.70	0.750			
0.4641	29700.96	3.8040	3.8039	1.7315	6.63	0.68	0.750			
0.4694	30040.07	3.8010	3.8010	1.7632	6.60	0.65	0.750			
0.4747	30381.11	3.7980	3.7983	1.8090	6.58	0.63	0.750			
0.4802	30732.96	3.7950	3.7952	1.8139	6.56	0.61	0.750			
0.4857	31085.01	3.7920	3.7920	1.8302	6.54	0.59	0.750			
0.4911	31428.87	3.7890	3.7890	1.8618	6.52	0.57	0.750			
0.4966	31785.54	3.7860	3.7861	1.8948	6.50	0.55	0.750			
0.5024	32154.51	3.7830	3.7829	1.9609	6.47	0.52	0.750			
0.5085	32543.19	3.7800	3.7797	1.9639	6.44	0.49	0.750			
0.5143	32916.73	3.7770	3.7771	1.9909	6.41	0.46	0.750			
0.5203	33298.02	3.7740	3.7735	2.0481	6.39	0.44	0.750			
0.5265	33693.13	3.7710	3.7714	2.0539	6.37	0.42	0.750			
0.5328	34099.36	3.7680	3.7680	2.1016	6.35	0.40	0.750			
0.5392	34505.61	3.7650	3.7648	2.1162	6.32	0.37	0.750			
0.5457	34926.86	3.7620	3.7617	2.1245	6.29	0.34	0.750			
0.5520	35329.55	3.7590	3.7589	2.1085	6.26	0.31	0.750			
0.5584	35738.09	3.7560	3.7562	2.1410	6.23	0.28	0.750			
0.5649	36150.87	3.7530	3.7533	2.1484	6.21	0.26	0.750			
0.5714	36569.38	3.7500	3.7501	2.1624	6.19	0.24	0.750			
0.5782	37002.89	3.7470	3.7471	2.2359	6.17	0.22	0.750			
0.5849	37435.20	3.7440	3.7438	2.3301	6.14	0.19	0.750			
0.5918	37876.45	3.7410	3.7409	2.3755	6.12	0.17	0.750			
0.5993	38356.37	3.7380	3.7382	2.4617	6.09	0.14	0.750			
0.6069	38838.88	3.7350	3.7349	2.5760	6.06	0.11	0.750			
0.6146	39334.76	3.7320	3.7319	2.5961	6.04	0.09	0.750			
0.6226	39847.90	3.7290	3.7289	2.6334	6.02	0.07	0.750			
0.6305	40352.91	3.7260	3.7257	2.5622	6.00	0.05	0.750			
0.6381	40835.91	3.7230	3.7232	2.5347	5.98	0.03	0.750			
0.6458	41331.47	3.7200	3.7198	2.5055	5.96	0.01	0.750			
0.6531	41801.51	3.7170	3.7174	2.3881	5.95	-0.00	0.750			
0.6601	42249.34	3.7140	3.7140	2.2645	5.93	-0.02	0.750			
0.6668	42673.55	3.7110	3.7110	2.0277	5.92	-0.03	0.750			
0.6729	43065.54	3.7080	3.7081	1.9105	5.91	-0.04	0.750			
0.6782	43406.23	3.7050	3.7051	1.6725	5.92	-0.03	0.750			
0.6829	43703.53	3.7020	3.7018	1.4727	5.92	-0.03	0.750			
0.6869	43962.57	3.6990	3.6990	1.3019	5.92	-0.03	0.750			
0.6903	44176.30	3.6960	3.6961	1.1521	5.92	-0.03	0.750			
0.6935	44382.48	3.6930	3.6929	1.0569	5.92	-0.03	0.750			
0.6964	44570.16	3.6900	3.6900	0.9796	5.92	-0.03	0.750			
0.6993	44752.38	3.6870	3.6869	0.9208	5.92	-0.03	0.750			
0.7019	44923.65	3.6840	3.6841	0.8802	5.93	-0.02	0.750			
0.7045	45087.02	3.6810	3.6810	0.8450	5.93	-0.02	0.750			
0.7069	45242.83	3.6780	3.6781	0.8079	5.93	-0.02	0.750			
0.7093	45395.72	3.6750	3.6750	0.7720	5.93	-0.02	0.750			
0.7116	45541.79	3.6720	3.6720	0.7365	5.94	-0.01	0.750			
0.7138	45681.43	3.6690	3.6691	0.6912	5.94	-0.01	0.750			
0.7158	45811.20	3.6660	3.6660	0.6548	5.94	-0.01	0.750			
0.7177	45930.55	3.6630	3.6630	0.6054	5.95	-0.00	0.750			
0.7194	46041.25	3.6600	3.6599	0.5647	5.95	-0.00	0.750			
0.7210	46144.32	3.6570	3.6569	0.5231	5.95	0.00	0.750			
0.7225	46242.42	3.6540	3.6542	0.4850	5.95	0.00	0.750			
0.7239	46332.74	3.6510	3.6509	0.4473	5.96	0.01	0.750			
0.7252	46414.86	3.6480	3.6481	0.4079	5.96	0.01	0.750			
0.7264	46487.76	3.6450	3.6450	0.3668	5.96	0.01	0.750			
0.7274	46554.01	3.6420	3.6419	0.3318	5.96	0.01	0.750			
0.7283	46613.56	3.6390	3.6389	0.2958	5.96	0.01	0.750			
0.7292	46666.84	3.6360	3.6360	0.2620	5.96	0.01	0.750			
0.7299	46715.14	3.6330	3.6330	0.2261	5.97	0.02	0.750			
0.7306	46755.97	3.6300	3.6299	0.1918	5.97	0.02	0.750			
0.7311	46789.95	3.6270	3.6271	0.1553	5.97	0.02	0.750			
0.7315	46815.93	3.6240	3.6242	0.1161	5.97	0.02	0.750			
0.7318	46834.92	3.6210	3.6215	0.0767	5.97	0.02	0.750			
0.7320	46845.74	3.6180	3.6186	0.0368	5.97	0.02	0.750			
0.7320	46848.99	3.6150	3.6165	-0.0030	5.97	0.02	0.750			
