Ah_balance (normalized)	Ah_balance (mAh)	Voltage - fit (V)	Voltage -  interpolate (V)	dQ/dV (1/V)	Temperature (°C)	Temperature - diff (°C)	Current (C)	R_DC 0ms (mOhm)	R_DC 50ms (mOhm)	R_DC 50 ms PEC (mOhm)
0.1833	11734.14	4.0820	4.0820	0.7428	7.26	1.27	0.750			
0.1856	11878.24	4.0790	4.0790	0.7570	7.25	1.26	0.750			
0.1879	12024.34	4.0760	4.0760	0.7653	7.25	1.26	0.750			
0.1902	12172.05	4.0730	4.0730	0.7730	7.25	1.26	0.750			
0.1925	12322.51	4.0700	4.0700	0.7725	7.24	1.25	0.750			
0.1949	12471.38	4.0670	4.0670	0.7798	7.24	1.25	0.750			
0.1972	12621.52	4.0640	4.0640	0.7841	7.23	1.24	0.750			
0.1996	12771.70	4.0610	4.0609	0.7871	7.23	1.24	0.750			
0.2019	12923.14	4.0580	4.0581	0.7893	7.23	1.24	0.750			
0.2043	13075.35	4.0550	4.0550	0.7903	7.22	1.23	0.750			
0.2067	13227.26	4.0520	4.0520	0.7962	7.22	1.23	0.750			
0.2091	13381.62	4.0490	4.0490	0.8028	7.22	1.23	0.750			
0.2115	13534.98	4.0460	4.0460	0.8012	7.21	1.22	0.750			
0.2139	13689.21	4.0430	4.0430	0.8045	7.21	1.22	0.750			
0.2163	13845.37	4.0400	4.0400	0.8031	7.20	1.21	0.750			
0.2187	13998.90	4.0370	4.0371	0.8073	7.20	1.21	0.750			
0.2212	14153.98	4.0340	4.0340	0.8080	7.20	1.21	0.750			
0.2236	14307.81	4.0310	4.0310	0.8102	7.19	1.20	0.750			
0.2260	14463.32	4.0280	4.0280	0.8145	7.19	1.20	0.750			
0.2285	14621.55	4.0250	4.0250	0.8159	7.18	1.19	0.750			
0.2309	14778.09	4.0220	4.0221	0.8227	7.18	1.19	0.750			
0.2334	14937.18	4.0190	4.0190	0.8268	7.18	1.19	0.750			
0.2359	15094.72	4.0160	4.0160	0.8311	7.17	1.18	0.750			
0.2384	15255.49	4.0130	4.0130	0.8375	7.17	1.18	0.750			
0.2409	15417.98	4.0100	4.0100	0.8347	7.16	1.17	0.750			
0.2434	15579.14	4.0070	4.0070	0.8399	7.16	1.17	0.750			
0.2460	15740.93	4.0040	4.0041	0.8418	7.16	1.17	0.750			
0.2485	15901.27	4.0010	4.0010	0.8412	7.15	1.16	0.750			
0.2510	16063.47	3.9980	3.9980	0.8426	7.15	1.16	0.750			
0.2535	16225.01	3.9950	3.9951	0.8435	7.14	1.15	0.750			
0.2561	16387.24	3.9920	3.9919	0.8497	7.13	1.14	0.750			
0.2586	16550.83	3.9890	3.9890	0.8586	7.12	1.13	0.750			
0.2612	16713.76	3.9860	3.9861	0.8656	7.12	1.13	0.750			
0.2638	16882.31	3.9830	3.9830	0.8742	7.11	1.12	0.750			
0.2665	17053.72	3.9800	3.9800	0.8759	7.10	1.11	0.750			
0.2692	17227.36	3.9770	3.9769	0.8810	7.10	1.11	0.750			
0.2718	17397.64	3.9740	3.9740	0.8699	7.10	1.11	0.750			
0.2745	17565.50	3.9710	3.9708	0.8381	7.09	1.10	0.750			
0.2768	17713.72	3.9680	3.9686	0.8540	7.09	1.10	0.750			
0.2792	17871.11	3.9650	3.9656	0.8609	7.08	1.09	0.750			
0.2818	18037.16	3.9620	3.9627	0.8877	7.07	1.08	0.750			
0.2845	18208.20	3.9590	3.9598	0.8963	7.07	1.08	0.750			
0.2873	18389.45	3.9560	3.9560	0.9258	7.06	1.07	0.750			
0.2903	18582.38	3.9530	3.9530	0.9299	7.05	1.06	0.750			
0.2931	18755.29	3.9500	3.9500	0.9071	7.05	1.06	0.750			
0.2957	18925.93	3.9470	3.9471	0.9061	7.04	1.05	0.750			
0.2985	19100.85	3.9440	3.9441	0.9202	7.03	1.04	0.750			
0.3012	19274.62	3.9410	3.9410	0.9254	7.03	1.04	0.750			
0.3040	19453.60	3.9380	3.9380	0.9333	7.02	1.03	0.750			
0.3068	19635.42	3.9350	3.9350	0.9445	7.01	1.02	0.750			
0.3097	19818.10	3.9320	3.9321	0.9544	7.00	1.01	0.750			
0.3125	20002.56	3.9290	3.9288	0.9593	6.99	1.00	0.750			
0.3154	20188.57	3.9260	3.9260	0.9618	6.99	1.00	0.750			
0.3183	20372.40	3.9230	3.9230	0.9690	6.98	0.99	0.750			
0.3212	20558.29	3.9200	3.9201	0.9774	6.98	0.99	0.750			
0.3242	20746.16	3.9170	3.9169	0.9838	6.97	0.98	0.750			
0.3271	20937.25	3.9140	3.9139	0.9895	6.96	0.97	0.750			
0.3301	21127.42	3.9110	3.9111	0.9979	6.95	0.96	0.750			
0.3331	21320.01	3.9080	3.9081	1.0092	6.94	0.95	0.750			
0.3362	21515.32	3.9050	3.9050	1.0175	6.93	0.94	0.750			
0.3392	21711.96	3.9020	3.9020	1.0252	6.93	0.94	0.750			
0.3423	21907.69	3.8990	3.8990	1.0375	6.92	0.93	0.750			
0.3454	22108.67	3.8960	3.8960	1.0511	6.92	0.93	0.750			
0.3486	22313.59	3.8930	3.8929	1.0655	6.91	0.92	0.750			
0.3519	22520.31	3.8900	3.8900	1.0586	6.90	0.91	0.750			
0.3550	22720.32	3.8870	3.8871	1.0847	6.89	0.90	0.750			
0.3583	22930.57	3.8840	3.8841	1.1023	6.88	0.89	0.750			
0.3616	23143.29	3.8810	3.8808	1.1216	6.87	0.88	0.750			
0.3650	23361.53	3.8780	3.8781	1.1281	6.87	0.88	0.750			
0.3685	23585.43	3.8750	3.8751	1.1241	6.86	0.87	0.750			
0.3719	23802.61	3.8720	3.8721	1.1024	6.86	0.87	0.750			
0.3751	24004.73	3.8690	3.8694	1.0912	6.85	0.86	0.750			
0.3783	24208.74	3.8660	3.8666	1.1082	6.84	0.85	0.750			
0.3815	24414.19	3.8630	3.8646	1.1514	6.83	0.84	0.750			
0.3850	24640.25	3.8600	3.8590	1.2076	6.82	0.83	0.750			
0.3888	24882.69	3.8570	3.8581	1.2784	6.81	0.82	0.750			
0.3928	25142.01	3.8540	3.8532	1.3230	6.79	0.80	0.750			
0.3970	25407.59	3.8510	3.8513	1.3458	6.78	0.79	0.750			
0.4010	25664.50	3.8480	3.8479	1.3483	6.77	0.78	0.750			
0.4051	25923.68	3.8450	3.8451	1.3630	6.75	0.76	0.750			
0.4090	26177.66	3.8420	3.8421	1.3646	6.74	0.75	0.750			
0.4132	26446.92	3.8390	3.8390	1.3768	6.73	0.74	0.750	0.407	0.957	
0.4174	26713.42	3.8360	3.8361	1.3996	6.72	0.73	0.750			
0.4216	26983.79	3.8330	3.8332	1.4209	6.71	0.72	0.750			
0.4260	27261.85	3.8300	3.8299	1.4399	6.70	0.71	0.750			
0.4302	27533.34	3.8270	3.8271	1.4458	6.68	0.69	0.750			
0.4347	27817.93	3.8240	3.8240	1.4838	6.66	0.67	0.750			
0.4392	28107.86	3.8210	3.8211	1.5323	6.65	0.66	0.750			
0.4437	28399.36	3.8180	3.8179	1.5597	6.64	0.65	0.750			
0.4485	28703.39	3.8150	3.8151	1.5954	6.62	0.63	0.750			
0.4534	29017.66	3.8120	3.8121	1.5997	6.61	0.62	0.750			
0.4582	29326.96	3.8090	3.8091	1.6434	6.60	0.61	0.750			
0.4631	29638.54	3.8060	3.8059	1.6688	6.59	0.60	0.750			
0.4681	29961.41	3.8030	3.8029	1.6927	6.57	0.58	0.750			
0.4733	30292.29	3.8000	3.8001	1.7422	6.55	0.56	0.750			
0.4787	30634.55	3.7970	3.7971	1.8058	6.53	0.54	0.750			
0.4842	30987.83	3.7940	3.7939	1.8279	6.50	0.51	0.750			
0.4896	31333.18	3.7910	3.7911	1.8606	6.48	0.49	0.750			
0.4952	31693.56	3.7880	3.7881	1.8908	6.47	0.48	0.750			
0.5010	32062.35	3.7850	3.7849	1.8962	6.45	0.46	0.750			
0.5068	32435.45	3.7820	3.7817	1.9270	6.43	0.44	0.750			
0.5126	32806.01	3.7790	3.7787	1.9540	6.42	0.43	0.750			
0.5183	33173.85	3.7760	3.7762	1.9383	6.40	0.41	0.750			
0.5242	33547.00	3.7730	3.7729	1.9674	6.37	0.38	0.750			
0.5302	33934.42	3.7700	3.7700	2.0247	6.35	0.36	0.750			
0.5366	34341.03	3.7670	3.7669	2.0828	6.33	0.34	0.750			
0.5427	34731.01	3.7640	3.7642	2.0994	6.31	0.32	0.750			
0.5491	35141.01	3.7610	3.7609	2.1163	6.29	0.30	0.750			
0.5554	35543.05	3.7580	3.7579	2.1094	6.27	0.28	0.750			
0.5618	35955.63	3.7550	3.7548	2.1385	6.25	0.26	0.750			
0.5682	36365.42	3.7520	3.7520	2.2049	6.23	0.24	0.750			
0.5747	36779.38	3.7490	3.7491	2.2426	6.21	0.22	0.750			
0.5816	37221.56	3.7460	3.7460	2.3249	6.19	0.20	0.750			
0.5887	37679.92	3.7430	3.7430	2.4040	6.17	0.18	0.750			
0.5961	38150.95	3.7400	3.7400	2.4537	6.14	0.15	0.750			
0.6036	38629.80	3.7370	3.7371	2.5058	6.12	0.13	0.750			
0.6112	39116.28	3.7340	3.7340	2.6053	6.09	0.10	0.750			
0.6190	39617.59	3.7310	3.7309	2.6366	6.08	0.09	0.750			
0.6271	40136.29	3.7280	3.7281	2.5560	6.07	0.08	0.750			
0.6348	40630.00	3.7250	3.7253	2.5249	6.05	0.06	0.750			
0.6421	41095.69	3.7220	3.7222	2.4064	6.03	0.04	0.750			
0.6493	41557.28	3.7190	3.7190	2.3345	6.01	0.02	0.750			
0.6564	42009.27	3.7160	3.7159	2.2341	6.00	0.01	0.750			
0.6632	42443.77	3.7130	3.7132	2.0943	5.99	-0.00	0.750			
0.6691	42825.38	3.7100	3.7103	1.8777	5.98	-0.01	0.750			
0.6742	43150.10	3.7070	3.7069	1.6319	5.98	-0.01	0.750			
0.6786	43431.57	3.7040	3.7041	1.4449	5.98	-0.01	0.750			
0.6826	43688.10	3.7010	3.7011	1.2746	5.97	-0.02	0.750			
0.6861	43909.18	3.6980	3.6980	1.1432	5.97	-0.02	0.750			
0.6893	44115.62	3.6950	3.6950	1.0470	5.97	-0.02	0.750			
0.6921	44297.36	3.6920	3.6920	0.9588	5.97	-0.02	0.750			
0.6949	44470.78	3.6890	3.6891	0.9027	5.97	-0.02	0.750			
0.6975	44638.27	3.6860	3.6859	0.8641	5.97	-0.02	0.750			
0.7000	44798.38	3.6830	3.6827	0.8262	5.97	-0.02	0.750			
0.7024	44953.74	3.6800	3.6801	0.7878	5.97	-0.02	0.750			
0.7048	45104.37	3.6770	3.6771	0.7546	5.97	-0.02	0.750			
0.7070	45248.29	3.6740	3.6740	0.7094	5.97	-0.02	0.750			
0.7091	45380.17	3.6710	3.6709	0.6663	5.97	-0.02	0.750			
0.7109	45500.34	3.6680	3.6681	0.6176	5.97	-0.02	0.750			
0.7127	45614.32	3.6650	3.6646	0.5772	5.97	-0.02	0.750			
0.7144	45720.49	3.6620	3.6620	0.5358	5.97	-0.02	0.750			
0.7159	45820.30	3.6590	3.6590	0.4967	5.98	-0.01	0.750			
0.7174	45912.52	3.6560	3.6561	0.4584	5.98	-0.01	0.750			
0.7187	45997.21	3.6530	3.6529	0.4119	5.98	-0.01	0.750			
0.7199	46073.03	3.6500	3.6500	0.3690	5.98	-0.01	0.750			
0.7209	46139.26	3.6470	3.6470	0.3280	5.98	-0.01	0.750			
0.7218	46196.88	3.6440	3.6441	0.2905	5.98	-0.01	0.750			
0.7226	46246.70	3.6410	3.6409	0.2565	5.99	-0.00	0.750			
0.7233	46293.39	3.6380	3.6375	0.2224	5.99	-0.00	0.750			
0.7239	46332.77	3.6350	3.6350	0.1900	5.99	-0.00	0.750			
0.7245	46367.16	3.6320	3.6322	0.1619	5.99	-0.00	0.750			
0.7250	46398.05	3.6290	3.6292	0.1340	5.99	-0.00	0.750			
0.7254	46423.12	3.6260	3.6262	0.0997	5.99	0.00	0.750			
0.7256	46437.80	3.6230	3.6234	0.0611	5.99	0.00	0.750			
0.7257	46446.54	3.6200	3.6130	0.0213	5.99	0.00	0.750			
0.7257	46446.84	3.6170	3.6067	-0.0182	5.99	0.00	0.750			
