Ah_balance (normalized)	Ah_balance (mAh)	Voltage - fit (V)	Voltage -  interpolate (V)	dQ/dV (1/V)	Temperature (°C)	Temperature - diff (°C)	Current (C)	R_DC 0ms (mOhm)	R_DC 50ms (mOhm)	R_DC 50 ms PEC (mOhm)
0.0937	5999.46	4.0020	4.0013	-0.0749	6.01	0.01	-0.750			
0.0940	6016.67	3.9990	3.9985	-0.1031	6.01	0.01	-0.750			
0.0944	6039.14	3.9960	3.9959	-0.1308	6.00	0.00	-0.750			
0.0948	6067.07	3.9930	3.9932	-0.1579	6.00	0.00	-0.750			
0.0953	6100.15	3.9900	3.9901	-0.1848	6.00	0.00	-0.750			
0.0959	6139.40	3.9870	3.9869	-0.2111	6.00	0.00	-0.750			
0.0966	6182.07	3.9840	3.9839	-0.2348	6.00	0.00	-0.750			
0.0973	6228.94	3.9810	3.9811	-0.2602	6.00	0.00	-0.750			
0.0982	6281.85	3.9780	3.9780	-0.2841	6.00	0.00	-0.750			
0.0990	6338.44	3.9750	3.9749	-0.3075	6.00	0.00	-0.750			
0.1000	6399.97	3.9720	3.9720	-0.3305	6.00	0.00	-0.750			
0.1010	6465.72	3.9690	3.9689	-0.3529	6.00	-0.00	-0.750			
0.1021	6536.03	3.9660	3.9660	-0.3783	6.00	-0.00	-0.750			
0.1033	6610.97	3.9630	3.9630	-0.3997	6.00	-0.00	-0.750			
0.1045	6689.23	3.9600	3.9600	-0.4228	6.00	-0.00	-0.750			
0.1058	6773.24	3.9570	3.9570	-0.4473	6.00	-0.00	-0.750			
0.1072	6860.41	3.9540	3.9540	-0.4712	5.99	-0.01	-0.750			
0.1087	6953.86	3.9510	3.9510	-0.4936	5.99	-0.01	-0.750			
0.1102	7051.94	3.9480	3.9479	-0.5121	5.99	-0.01	-0.750			
0.1118	7152.16	3.9450	3.9449	-0.5286	5.99	-0.01	-0.750			
0.1134	7256.24	3.9420	3.9422	-0.5464	5.99	-0.01	-0.750			
0.1150	7361.79	3.9390	3.9390	-0.5620	5.99	-0.01	-0.750			
0.1167	7471.68	3.9360	3.9360	-0.5777	5.99	-0.01	-0.750			
0.1185	7583.77	3.9330	3.9330	-0.5937	5.99	-0.01	-0.750			
0.1203	7700.15	3.9300	3.9300	-0.6091	6.00	-0.00	-0.750			
0.1222	7819.06	3.9270	3.9271	-0.6209	6.00	-0.00	-0.750			
0.1241	7940.40	3.9240	3.9239	-0.6304	6.00	-0.00	-0.750			
0.1260	8061.83	3.9210	3.9210	-0.6388	6.00	0.00	-0.750			
0.1279	8184.16	3.9180	3.9180	-0.6489	6.01	0.01	-0.750			
0.1298	8309.50	3.9150	3.9150	-0.6597	6.01	0.01	-0.750			
0.1318	8437.47	3.9120	3.9119	-0.6677	6.02	0.02	-0.750			
0.1339	8567.35	3.9090	3.9091	-0.6777	6.02	0.02	-0.750			
0.1359	8698.61	3.9060	3.9060	-0.6855	6.02	0.02	-0.750			
0.1380	8832.40	3.9030	3.9032	-0.6920	6.03	0.03	-0.750			
0.1401	8965.98	3.9000	3.8999	-0.6928	6.04	0.04	-0.750			
0.1422	9097.65	3.8970	3.8971	-0.6953	6.04	0.04	-0.750			
0.1442	9231.95	3.8940	3.8940	-0.7008	6.05	0.05	-0.750			
0.1464	9367.09	3.8910	3.8910	-0.7040	6.06	0.06	-0.750			
0.1485	9502.07	3.8880	3.8879	-0.7055	6.06	0.06	-0.750			
0.1506	9637.96	3.8850	3.8852	-0.7103	6.07	0.07	-0.750			
0.1527	9775.62	3.8820	3.8820	-0.7125	6.07	0.07	-0.750			
0.1549	9911.97	3.8790	3.8789	-0.7172	6.08	0.08	-0.750			
0.1570	10049.04	3.8760	3.8761	-0.7197	6.08	0.08	-0.750			
0.1592	10187.16	3.8730	3.8730	-0.7217	6.08	0.08	-0.750			
0.1613	10326.33	3.8700	3.8699	-0.7263	6.09	0.09	-0.750			
0.1635	10466.48	3.8670	3.8672	-0.7272	6.09	0.09	-0.750			
0.1657	10605.92	3.8640	3.8639	-0.7302	6.10	0.10	-0.750			
0.1679	10747.65	3.8610	3.8610	-0.7339	6.11	0.11	-0.750			
0.1701	10888.28	3.8580	3.8579	-0.7326	6.12	0.12	-0.750			
0.1723	11028.67	3.8550	3.8550	-0.7340	6.13	0.13	-0.750			
0.1745	11170.07	3.8520	3.8520	-0.7375	6.14	0.14	-0.750			
0.1767	11311.43	3.8490	3.8490	-0.7386	6.14	0.14	-0.750			
0.1790	11454.16	3.8460	3.8459	-0.7383	6.15	0.15	-0.750			
0.1812	11595.76	3.8430	3.8431	-0.7384	6.16	0.16	-0.750			
0.1834	11738.22	3.8400	3.8400	-0.7378	6.17	0.17	-0.750			
0.1856	11879.63	3.8370	3.8370	-0.7398	6.18	0.18	-0.750			
0.1878	12020.92	3.8340	3.8341	-0.7398	6.19	0.19	-0.750			
0.1900	12162.60	3.8310	3.8309	-0.7402	6.20	0.20	-0.750			
0.1923	12305.66	3.8280	3.8280	-0.7402	6.20	0.20	-0.750			
0.1945	12448.20	3.8250	3.8250	-0.7436	6.21	0.21	-0.750			
0.1967	12590.73	3.8220	3.8220	-0.7440	6.22	0.22	-0.750			
0.1990	12734.78	3.8190	3.8190	-0.7458	6.23	0.23	-0.750			
0.2012	12877.51	3.8160	3.8160	-0.7452	6.23	0.23	-0.750			
0.2035	13021.29	3.8130	3.8130	-0.7429	6.24	0.24	-0.750			
0.2057	13163.86	3.8100	3.8100	-0.7476	6.25	0.25	-0.750			
0.2079	13307.23	3.8070	3.8070	-0.7437	6.25	0.25	-0.750			
0.2102	13451.14	3.8040	3.8039	-0.7475	6.26	0.26	-0.750			
0.2124	13594.04	3.8010	3.8010	-0.7471	6.27	0.27	-0.750			
0.2147	13738.00	3.7980	3.7979	-0.7469	6.28	0.28	-0.750			
0.2169	13881.23	3.7950	3.7950	-0.7481	6.29	0.29	-0.750			
0.2191	14024.56	3.7920	3.7920	-0.7558	6.30	0.30	-0.750			
0.2214	14168.89	3.7890	3.7890	-0.7547	6.31	0.31	-0.750			
0.2237	14317.43	3.7860	3.7858	-0.7588	6.32	0.32	-0.750			
0.2260	14463.14	3.7830	3.7832	-0.7549	6.33	0.33	-0.750			
0.2283	14608.71	3.7800	3.7800	-0.7539	6.34	0.34	-0.750			
0.2305	14751.99	3.7770	3.7770	-0.7594	6.34	0.34	-0.750			
0.2327	14895.57	3.7740	3.7741	-0.7604	6.35	0.35	-0.750			
0.2350	15042.59	3.7710	3.7709	-0.7653	6.35	0.35	-0.750			
0.2374	15190.74	3.7680	3.7680	-0.7706	6.36	0.36	-0.750			
0.2397	15340.95	3.7650	3.7650	-0.7755	6.37	0.37	-0.750			
0.2420	15489.44	3.7620	3.7620	-0.7787	6.38	0.38	-0.750			
0.2444	15639.18	3.7590	3.7590	-0.7788	6.39	0.39	-0.750			
0.2467	15787.50	3.7560	3.7560	-0.7797	6.39	0.39	-0.750			
0.2490	15938.00	3.7530	3.7530	-0.7846	6.40	0.40	-0.750			
0.2514	16089.80	3.7500	3.7500	-0.7877	6.41	0.41	-0.750			
0.2538	16240.72	3.7470	3.7470	-0.7919	6.42	0.42	-0.750			
0.2561	16392.97	3.7440	3.7440	-0.7955	6.43	0.43	-0.750			
0.2585	16545.68	3.7410	3.7411	-0.7983	6.44	0.44	-0.750			
0.2609	16700.42	3.7380	3.7379	-0.8038	6.44	0.44	-0.750			
0.2634	16854.42	3.7350	3.7351	-0.8069	6.45	0.45	-0.750			
0.2658	17009.73	3.7320	3.7320	-0.8122	6.45	0.45	-0.750			
0.2682	17166.67	3.7290	3.7290	-0.8213	6.46	0.46	-0.750			
0.2707	17324.09	3.7260	3.7259	-0.8272	6.46	0.46	-0.750			
0.2732	17483.35	3.7230	3.7230	-0.8356	6.47	0.47	-0.750			
0.2757	17644.91	3.7200	3.7202	-0.8414	6.47	0.47	-0.750			
0.2783	17808.30	3.7170	3.7169	-0.8488	6.48	0.48	-0.750			
0.2808	17972.16	3.7140	3.7140	-0.8521	6.50	0.50	-0.750			
0.2833	18133.63	3.7110	3.7110	-0.8577	6.51	0.51	-0.750			
0.2859	18300.17	3.7080	3.7080	-0.8690	6.52	0.52	-0.750			
0.2885	18466.85	3.7050	3.7050	-0.8719	6.53	0.53	-0.750			
0.2912	18634.35	3.7020	3.7020	-0.8799	6.54	0.54	-0.750			
0.2938	18804.86	3.6990	3.6991	-0.8877	6.54	0.54	-0.750			
0.2965	18976.03	3.6960	3.6959	-0.8932	6.54	0.54	-0.750			
0.2992	19149.04	3.6930	3.6930	-0.8979	6.55	0.55	-0.750			
0.3019	19320.76	3.6900	3.6900	-0.9006	6.55	0.55	-0.750			
0.3046	19494.35	3.6870	3.6870	-0.9102	6.56	0.56	-0.750			
0.3073	19669.96	3.6840	3.6840	-0.9157	6.56	0.56	-0.750			
0.3101	19845.56	3.6810	3.6809	-0.9194	6.57	0.57	-0.750			
0.3128	20022.26	3.6780	3.6782	-0.9315	6.57	0.57	-0.750			
0.3157	20202.30	3.6750	3.6749	-0.9443	6.57	0.57	-0.750			
0.3185	20384.94	3.6720	3.6720	-0.9545	6.58	0.58	-0.750			
0.3214	20569.41	3.6690	3.6690	-0.9605	6.58	0.58	-0.750			
0.3243	20756.07	3.6660	3.6659	-0.9759	6.59	0.59	-0.750			
0.3273	20944.29	3.6630	3.6629	-0.9806	6.59	0.59	-0.750			
0.3302	21133.07	3.6600	3.6600	-0.9882	6.60	0.60	-0.750			
0.3332	21321.62	3.6570	3.6570	-0.9940	6.61	0.61	-0.750			
0.3361	21512.75	3.6540	3.6540	-0.9992	6.62	0.62	-0.750			
0.3392	21706.94	3.6510	3.6510	-1.0170	6.62	0.62	-0.750			
0.3423	21905.17	3.6480	3.6479	-1.0216	6.62	0.62	-0.750			
0.3453	22100.81	3.6450	3.6450	-1.0279	6.63	0.63	-0.750			
0.3484	22298.64	3.6420	3.6420	-1.0337	6.63	0.63	-0.750			
0.3515	22498.39	3.6390	3.6392	-1.0479	6.63	0.63	-0.750			
0.3547	22698.88	3.6360	3.6359	-1.0564	6.64	0.64	-0.750			
0.3579	22903.30	3.6330	3.6329	-1.0672	6.64	0.64	-0.750			
0.3611	23107.77	3.6300	3.6300	-1.0771	6.65	0.65	-0.750			
0.3644	23319.03	3.6270	3.6271	-1.0955	6.65	0.65	-0.750			
0.3677	23531.59	3.6240	3.6240	-1.1037	6.65	0.65	-0.750			
0.3710	23745.26	3.6210	3.6210	-1.1121	6.65	0.65	-0.750			
0.3744	23958.49	3.6180	3.6181	-1.1146	6.65	0.65	-0.750			
0.3777	24173.32	3.6150	3.6149	-1.1290	6.65	0.65	-0.750			
0.3811	24392.22	3.6120	3.6120	-1.1337	6.66	0.66	-0.750			
0.3845	24609.83	3.6090	3.6089	-1.1353	6.66	0.66	-0.750			
0.3879	24825.78	3.6060	3.6063	-1.1509	6.67	0.67	-0.750			
0.3914	25049.53	3.6030	3.6030	-1.1648	6.67	0.67	-0.750			
0.3949	25274.17	3.6000	3.5999	-1.1776	6.68	0.68	-0.750			
0.3985	25502.77	3.5970	3.5969	-1.1823	6.68	0.68	-0.750			
0.4021	25732.49	3.5940	3.5940	-1.1998	6.68	0.68	-0.750			
0.4057	25964.19	3.5910	3.5910	-1.2088	6.68	0.68	-0.750	0.458	1.043	
0.4093	26196.51	3.5880	3.5879	-1.2147	6.69	0.69	-0.750			
0.4129	26426.21	3.5850	3.5852	-1.2205	6.69	0.69	-0.750			
0.4166	26664.52	3.5820	3.5820	-1.2389	6.70	0.70	-0.750			
0.4204	26902.49	3.5790	3.5790	-1.2520	6.70	0.70	-0.750			
0.4241	27145.10	3.5760	3.5760	-1.2747	6.71	0.71	-0.750			
0.4280	27393.00	3.5730	3.5729	-1.2863	6.71	0.71	-0.750			
0.4319	27640.52	3.5700	3.5699	-1.2944	6.72	0.72	-0.750			
0.4357	27886.88	3.5670	3.5671	-1.3151	6.73	0.73	-0.750			
0.4397	28142.10	3.5640	3.5640	-1.3250	6.73	0.73	-0.750			
0.4438	28401.28	3.5610	3.5609	-1.3410	6.73	0.73	-0.750			
0.4478	28657.54	3.5580	3.5580	-1.3599	6.73	0.73	-0.750			
0.4519	28920.44	3.5550	3.5550	-1.3667	6.73	0.73	-0.750			
0.4560	29186.51	3.5520	3.5520	-1.3826	6.73	0.73	-0.750			
0.4602	29450.84	3.5490	3.5490	-1.3946	6.73	0.73	-0.750			
0.4643	29718.11	3.5460	3.5460	-1.4020	6.73	0.73	-0.750			
0.4686	29992.73	3.5430	3.5430	-1.4228	6.75	0.75	-0.750			
0.4729	30263.95	3.5400	3.5399	-1.4383	6.76	0.76	-0.750			
0.4772	30540.07	3.5370	3.5371	-1.4514	6.77	0.77	-0.750			
0.4816	30825.43	3.5340	3.5339	-1.4629	6.78	0.78	-0.750			
0.4860	31105.86	3.5310	3.5309	-1.4742	6.79	0.79	-0.750			
0.4904	31388.66	3.5280	3.5278	-1.4748	6.79	0.79	-0.750			
0.4949	31676.08	3.5250	3.5250	-1.4851	6.80	0.80	-0.750			
0.4994	31961.28	3.5220	3.5219	-1.4975	6.81	0.81	-0.750			
0.5039	32249.39	3.5190	3.5190	-1.4972	6.82	0.82	-0.750			
0.5084	32535.34	3.5160	3.5159	-1.5135	6.82	0.82	-0.750			
0.5130	32831.91	3.5130	3.5133	-1.5266	6.83	0.83	-0.750			
0.5176	33124.07	3.5100	3.5100	-1.5339	6.84	0.84	-0.750			
0.5222	33423.95	3.5070	3.5069	-1.5449	6.84	0.84	-0.750			
0.5269	33719.48	3.5040	3.5040	-1.5478	6.85	0.85	-0.750			
0.5316	34020.62	3.5010	3.5012	-1.5445	6.86	0.86	-0.750			
0.5362	34316.28	3.4980	3.4978	-1.5419	6.87	0.87	-0.750			
0.5408	34609.87	3.4950	3.4949	-1.5330	6.88	0.88	-0.750			
0.5454	34905.75	3.4920	3.4920	-1.5444	6.89	0.89	-0.750			
0.5501	35204.38	3.4890	3.4891	-1.5485	6.90	0.90	-0.750			
0.5548	35504.22	3.4860	3.4860	-1.4998	6.91	0.91	-0.750			
0.5592	35789.06	3.4830	3.4829	-1.4775	6.92	0.92	-0.750			
0.5636	36072.40	3.4800	3.4804	-1.4585	6.93	0.93	-0.750			
0.5678	36342.40	3.4770	3.4766	-1.4463	6.94	0.94	-0.750			
0.5720	36609.75	3.4740	3.4739	-1.4623	6.94	0.94	-0.750			
0.5764	36891.96	3.4710	3.4711	-1.4618	6.95	0.95	-0.750			
0.5810	37185.81	3.4680	3.4679	-1.4971	6.97	0.97	-0.750			
0.5856	37477.92	3.4650	3.4651	-1.4963	6.98	0.98	-0.750			
0.5901	37767.35	3.4620	3.4619	-1.4923	7.00	1.00	-0.750			
0.5946	38054.09	3.4590	3.4589	-1.4819	7.01	1.01	-0.750			
0.5990	38335.63	3.4560	3.4560	-1.4700	7.02	1.02	-0.750			
0.6034	38616.30	3.4530	3.4529	-1.4549	7.03	1.03	-0.750			
0.6078	38896.26	3.4500	3.4500	-1.4460	7.04	1.04	-0.750			
0.6120	39170.37	3.4470	3.4470	-1.4260	7.05	1.05	-0.750			
0.6163	39442.06	3.4440	3.4439	-1.4089	7.06	1.06	-0.750			
0.6205	39713.61	3.4410	3.4410	-1.3889	7.07	1.07	-0.750			
0.6246	39976.98	3.4380	3.4381	-1.3767	7.09	1.09	-0.750			
0.6288	40240.23	3.4350	3.4350	-1.3514	7.10	1.10	-0.750			
0.6329	40503.19	3.4320	3.4319	-1.3316	7.12	1.12	-0.750			
0.6368	40753.50	3.4290	3.4291	-1.3036	7.14	1.14	-0.750			
0.6406	41000.62	3.4260	3.4260	-1.2783	7.15	1.15	-0.750			
0.6444	41244.22	3.4230	3.4229	-1.2572	7.16	1.16	-0.750			
0.6482	41484.03	3.4200	3.4199	-1.2273	7.17	1.17	-0.750			
0.6518	41713.71	3.4170	3.4171	-1.2014	7.19	1.19	-0.750			
0.6555	41949.77	3.4140	3.4140	-1.1835	7.20	1.20	-0.750			
0.6590	42173.52	3.4110	3.4109	-1.1507	7.21	1.21	-0.750			
0.6624	42390.41	3.4080	3.4080	-1.1135	7.23	1.23	-0.750			
0.6656	42601.58	3.4050	3.4050	-1.0919	7.25	1.25	-0.750			
0.6689	42807.57	3.4020	3.4019	-1.0610	7.27	1.27	-0.750			
0.6720	43009.11	3.3990	3.3989	-1.0349	7.29	1.29	-0.750			
0.6750	43202.11	3.3960	3.3963	-1.0062	7.31	1.31	-0.750			
0.6781	43395.50	3.3930	3.3929	-0.9928	7.32	1.32	-0.750			
0.6810	43583.51	3.3900	3.3899	-0.9661	7.34	1.34	-0.750			
0.6839	43766.75	3.3870	3.3870	-0.9399	7.35	1.35	-0.750			
0.6866	43944.02	3.3840	3.3840	-0.9103	7.36	1.36	-0.750			
0.6894	44120.69	3.3810	3.3810	-0.8877	7.38	1.38	-0.750			
0.6920	44287.10	3.3780	3.3780	-0.8671	7.40	1.40	-0.750			
0.6945	44449.37	3.3750	3.3750	-0.8384	7.41	1.41	-0.750			
0.6970	44606.60	3.3720	3.3719	-0.8162	7.43	1.43	-0.750			
0.6994	44762.54	3.3690	3.3690	-0.7973	7.44	1.44	-0.750			
0.7018	44913.97	3.3660	3.3659	-0.7787	7.46	1.46	-0.750			
0.7041	45061.80	3.3630	3.3630	-0.7558	7.47	1.47	-0.750			
0.7063	45204.12	3.3600	3.3600	-0.7368	7.48	1.48	-0.750			
0.7085	45342.50	3.3570	3.3570	-0.7145	7.49	1.49	-0.750			
0.7106	45479.15	3.3540	3.3540	-0.6993	7.50	1.50	-0.750			
0.7127	45610.37	3.3510	3.3510	-0.6809	7.51	1.51	-0.750			
0.7147	45739.73	3.3480	3.3480	-0.6649	7.52	1.52	-0.750			
0.7166	45865.15	3.3450	3.3449	-0.6498	7.53	1.53	-0.750			
0.7186	45989.01	3.3420	3.3420	-0.6338	7.54	1.54	-0.750			
0.7205	46109.65	3.3390	3.3390	-0.6285	7.55	1.55	-0.750			
