Ah_balance (normalized)	Ah_balance (mAh)	Voltage - fit (V)	Voltage -  interpolate (V)	dQ/dV (1/V)	Temperature (°C)	Temperature - diff (°C)	Current (C)	R_DC 0ms (mOhm)	R_DC 50ms (mOhm)	R_DC 50 ms PEC (mOhm)
0.1813	11601.97	4.0810	4.0811	0.7679	7.25	1.26	0.750			
0.1836	11751.24	4.0780	4.0780	0.7754	7.25	1.26	0.750			
0.1859	11899.37	4.0750	4.0749	0.7761	7.25	1.26	0.750			
0.1883	12048.61	4.0720	4.0721	0.7787	7.25	1.26	0.750			
0.1906	12197.11	4.0690	4.0686	0.7863	7.25	1.26	0.750			
0.1930	12349.38	4.0660	4.0660	0.7878	7.25	1.26	0.750			
0.1954	12502.45	4.0630	4.0629	0.7845	7.25	1.26	0.750			
0.1977	12652.92	4.0600	4.0601	0.7893	7.25	1.26	0.750			
0.2001	12804.89	4.0570	4.0570	0.7925	7.25	1.26	0.750			
0.2024	12955.31	4.0540	4.0538	0.7942	7.25	1.26	0.750			
0.2048	13108.10	4.0510	4.0510	0.7984	7.25	1.26	0.750			
0.2073	13264.34	4.0480	4.0480	0.7869	7.24	1.25	0.750			
0.2096	13415.31	4.0450	4.0451	0.7945	7.24	1.25	0.750			
0.2120	13566.55	4.0420	4.0421	0.8038	7.24	1.25	0.750			
0.2144	13718.74	4.0390	4.0392	0.8060	7.23	1.24	0.750			
0.2168	13872.85	4.0360	4.0360	0.8098	7.23	1.24	0.750			
0.2192	14029.74	4.0330	4.0332	0.8170	7.22	1.23	0.750			
0.2217	14189.72	4.0300	4.0301	0.8249	7.21	1.22	0.750			
0.2242	14350.79	4.0270	4.0270	0.8293	7.20	1.21	0.750			
0.2267	14508.53	4.0240	4.0240	0.8227	7.19	1.20	0.750			
0.2292	14667.14	4.0210	4.0210	0.8251	7.19	1.20	0.750			
0.2317	14826.67	4.0180	4.0180	0.8251	7.19	1.20	0.750			
0.2341	14984.47	4.0150	4.0150	0.8296	7.19	1.20	0.750			
0.2366	15142.93	4.0120	4.0120	0.8374	7.19	1.20	0.750			
0.2391	15304.71	4.0090	4.0090	0.8400	7.19	1.20	0.750			
0.2417	15467.00	4.0060	4.0060	0.8418	7.19	1.20	0.750			
0.2442	15630.78	4.0030	4.0031	0.8439	7.18	1.19	0.750			
0.2468	15793.05	4.0000	4.0000	0.8482	7.18	1.19	0.750			
0.2493	15954.48	3.9970	3.9970	0.8536	7.18	1.19	0.750			
0.2518	16116.79	3.9940	3.9939	0.8526	7.17	1.18	0.750			
0.2544	16281.30	3.9910	3.9910	0.8536	7.17	1.18	0.750			
0.2570	16448.93	3.9880	3.9880	0.8572	7.16	1.17	0.750			
0.2596	16612.17	3.9850	3.9851	0.8614	7.15	1.16	0.750			
0.2622	16777.69	3.9820	3.9820	0.8672	7.14	1.15	0.750			
0.2647	16943.05	3.9790	3.9788	0.8678	7.13	1.14	0.750			
0.2673	17110.27	3.9760	3.9761	0.8728	7.13	1.14	0.750			
0.2700	17279.42	3.9730	3.9730	0.8761	7.12	1.13	0.750			
0.2726	17448.22	3.9700	3.9700	0.8800	7.12	1.13	0.750			
0.2753	17617.33	3.9670	3.9670	0.8855	7.11	1.12	0.750			
0.2779	17785.88	3.9640	3.9637	0.8853	7.11	1.12	0.750			
0.2806	17957.37	3.9610	3.9610	0.8841	7.10	1.11	0.750			
0.2833	18128.21	3.9580	3.9581	0.8887	7.09	1.10	0.750			
0.2859	18298.50	3.9550	3.9550	0.8980	7.08	1.09	0.750			
0.2886	18469.55	3.9520	3.9521	0.9006	7.08	1.09	0.750			
0.2913	18642.60	3.9490	3.9492	0.9118	7.07	1.08	0.750			
0.2941	18821.05	3.9460	3.9460	0.9105	7.06	1.07	0.750			
0.2968	18997.33	3.9430	3.9430	0.9280	7.06	1.07	0.750			
0.2996	19176.78	3.9400	3.9401	0.9353	7.06	1.07	0.750			
0.3024	19355.84	3.9370	3.9368	0.9392	7.05	1.06	0.750			
0.3053	19538.64	3.9340	3.9341	0.9330	7.05	1.06	0.750			
0.3081	19716.54	3.9310	3.9309	0.9433	7.04	1.05	0.750			
0.3109	19898.05	3.9280	3.9282	0.9496	7.04	1.05	0.750			
0.3138	20082.44	3.9250	3.9250	0.9625	7.03	1.04	0.750			
0.3166	20264.64	3.9220	3.9221	0.9635	7.03	1.04	0.750			
0.3195	20450.55	3.9190	3.9191	0.9759	7.02	1.03	0.750			
0.3225	20638.07	3.9160	3.9160	0.9855	7.01	1.02	0.750			
0.3255	20830.29	3.9130	3.9130	0.9999	7.00	1.01	0.750			
0.3285	21022.18	3.9100	3.9101	1.0014	6.99	1.00	0.750			
0.3315	21217.63	3.9070	3.9071	1.0101	6.98	0.99	0.750			
0.3346	21411.38	3.9040	3.9042	1.0209	6.98	0.99	0.750			
0.3376	21607.61	3.9010	3.9010	1.0345	6.97	0.98	0.750			
0.3407	21804.21	3.8980	3.8980	1.0383	6.97	0.98	0.750			
0.3438	22006.39	3.8950	3.8950	1.0474	6.96	0.97	0.750			
0.3470	22205.44	3.8920	3.8920	1.0661	6.95	0.96	0.750			
0.3502	22413.52	3.8890	3.8891	1.0829	6.94	0.95	0.750			
0.3535	22624.23	3.8860	3.8857	1.0907	6.93	0.94	0.750			
0.3568	22832.80	3.8830	3.8830	1.1101	6.92	0.93	0.750			
0.3602	23049.83	3.8800	3.8801	1.1288	6.91	0.92	0.750			
0.3636	23270.96	3.8770	3.8771	1.1454	6.90	0.91	0.750			
0.3671	23492.79	3.8740	3.8742	1.1416	6.89	0.90	0.750			
0.3705	23711.25	3.8710	3.8711	1.1498	6.87	0.88	0.750			
0.3739	23931.86	3.8680	3.8680	1.1648	6.86	0.87	0.750			
0.3774	24156.18	3.8650	3.8648	1.1728	6.85	0.86	0.750			
0.3809	24378.61	3.8620	3.8620	1.1891	6.84	0.85	0.750			
0.3845	24609.06	3.8590	3.8591	1.2074	6.83	0.84	0.750			
0.3882	24845.71	3.8560	3.8561	1.2325	6.83	0.84	0.750			
0.3919	25083.73	3.8530	3.8531	1.2426	6.81	0.82	0.750			
0.3957	25322.52	3.8500	3.8500	1.2614	6.80	0.81	0.750			
0.3995	25567.23	3.8470	3.8470	1.2716	6.78	0.79	0.750			
0.4033	25810.99	3.8440	3.8437	1.3074	6.77	0.78	0.750			
0.4072	26059.16	3.8410	3.8412	1.3456	6.76	0.77	0.750			
0.4114	26326.44	3.8380	3.8380	1.3801	6.76	0.77	0.750			
0.4156	26595.57	3.8350	3.8348	1.4187	6.75	0.76	0.750	0.359	0.904	
0.4199	26875.47	3.8320	3.8322	1.4316	6.73	0.74	0.750			
0.4244	27159.94	3.8290	3.8290	1.4607	6.71	0.72	0.750			
0.4288	27443.44	3.8260	3.8258	1.4813	6.69	0.70	0.750			
0.4331	27716.07	3.8230	3.8232	1.5114	6.67	0.68	0.750			
0.4377	28014.10	3.8200	3.8201	1.5443	6.66	0.67	0.750			
0.4425	28320.59	3.8170	3.8171	1.5852	6.64	0.65	0.750			
0.4473	28628.20	3.8140	3.8143	1.6360	6.63	0.64	0.750			
0.4523	28947.50	3.8110	3.8108	1.6461	6.61	0.62	0.750			
0.4573	29266.21	3.8080	3.8077	1.6522	6.59	0.60	0.750			
0.4622	29583.93	3.8050	3.8051	1.6542	6.57	0.58	0.750			
0.4673	29904.81	3.8020	3.8020	1.7029	6.55	0.56	0.750			
0.4724	30234.18	3.7990	3.7990	1.7435	6.53	0.54	0.750			
0.4777	30569.68	3.7960	3.7958	1.7829	6.51	0.52	0.750			
0.4831	30917.76	3.7930	3.7932	1.8292	6.49	0.50	0.750			
0.4887	31275.48	3.7900	3.7903	1.8675	6.47	0.48	0.750			
0.4945	31644.99	3.7870	3.7869	1.8813	6.44	0.45	0.750			
0.5001	32008.76	3.7840	3.7842	1.9109	6.41	0.42	0.750			
0.5057	32365.70	3.7810	3.7810	1.9376	6.39	0.40	0.750			
0.5117	32747.37	3.7780	3.7781	1.9608	6.37	0.38	0.750			
0.5176	33128.94	3.7750	3.7749	2.0433	6.35	0.36	0.750			
0.5237	33514.70	3.7720	3.7719	2.0325	6.33	0.34	0.750			
0.5301	33928.90	3.7690	3.7691	2.1064	6.30	0.31	0.750			
0.5364	34329.37	3.7660	3.7659	2.1715	6.28	0.29	0.750			
0.5429	34748.31	3.7630	3.7633	2.1567	6.25	0.26	0.750			
0.5494	35163.35	3.7600	3.7601	2.1517	6.24	0.25	0.750			
0.5557	35566.08	3.7570	3.7572	2.1339	6.22	0.23	0.750			
0.5622	35982.88	3.7540	3.7534	2.1608	6.19	0.20	0.750			
0.5691	36420.56	3.7510	3.7508	2.2234	6.17	0.18	0.750			
0.5753	36816.58	3.7480	3.7478	2.1707	6.15	0.16	0.750			
0.5818	37233.01	3.7450	3.7445	2.2812	6.13	0.14	0.750			
0.5887	37677.54	3.7420	3.7420	2.5390	6.11	0.12	0.750			
0.5972	38218.98	3.7390	3.7389	2.5734	6.09	0.10	0.750			
0.6046	38696.75	3.7360	3.7360	2.4497	6.06	0.07	0.750			
0.6118	39153.13	3.7330	3.7327	2.5038	6.04	0.05	0.750			
0.6190	39618.21	3.7300	3.7297	2.5934	6.02	0.03	0.750			
0.6270	40130.50	3.7270	3.7269	2.6466	6.01	0.02	0.750			
0.6351	40646.92	3.7240	3.7244	2.7406	5.99	-0.00	0.750			
0.6435	41182.05	3.7210	3.7212	2.6593	5.97	-0.02	0.750			
0.6512	41676.26	3.7180	3.7186	2.4769	5.95	-0.04	0.750			
0.6584	42137.87	3.7150	3.7149	2.2413	5.95	-0.04	0.750			
0.6650	42559.19	3.7120	3.7120	2.0890	5.95	-0.04	0.750			
0.6714	42971.14	3.7090	3.7087	1.9711	5.95	-0.04	0.750			
0.6770	43327.33	3.7060	3.7061	1.7447	5.95	-0.04	0.750			
0.6819	43642.85	3.7030	3.7032	1.5542	5.95	-0.04	0.750			
0.6862	43919.78	3.7000	3.7000	1.3675	5.94	-0.05	0.750			
0.6900	44157.56	3.6970	3.6970	1.2061	5.94	-0.05	0.750			
0.6933	44370.66	3.6940	3.6939	1.0805	5.94	-0.05	0.750			
0.6963	44561.30	3.6910	3.6909	1.0039	5.94	-0.05	0.750			
0.6991	44739.57	3.6880	3.6881	0.9306	5.95	-0.04	0.750			
0.7017	44911.71	3.6850	3.6850	0.8882	5.95	-0.04	0.750			
0.7043	45075.60	3.6820	3.6820	0.8463	5.95	-0.04	0.750			
0.7068	45236.21	3.6790	3.6791	0.8116	5.95	-0.04	0.750			
0.7092	45387.82	3.6760	3.6761	0.7764	5.95	-0.04	0.750			
0.7115	45536.68	3.6730	3.6729	0.7429	5.96	-0.03	0.750			
0.7137	45674.77	3.6700	3.6701	0.6957	5.96	-0.03	0.750			
0.7157	45804.82	3.6670	3.6669	0.6551	5.96	-0.03	0.750			
0.7176	45926.24	3.6640	3.6641	0.6075	5.96	-0.03	0.750			
0.7194	46038.56	3.6610	3.6610	0.5626	5.97	-0.02	0.750			
0.7210	46142.08	3.6580	3.6578	0.5182	5.97	-0.02	0.750			
0.7225	46236.83	3.6550	3.6551	0.4746	5.98	-0.01	0.750			
0.7238	46323.95	3.6520	3.6520	0.4327	5.98	-0.01	0.750			
0.7251	46403.32	3.6490	3.6490	0.3958	5.98	-0.01	0.750			
0.7262	46474.95	3.6460	3.6460	0.3581	5.99	-0.00	0.750			
0.7272	46539.44	3.6430	3.6429	0.3229	5.99	-0.00	0.750			
0.7281	46597.20	3.6400	3.6397	0.2872	5.99	0.00	0.750			
0.7289	46650.20	3.6370	3.6371	0.2516	5.99	0.00	0.750			
0.7296	46695.15	3.6340	3.6339	0.2157	5.99	0.00	0.750			
0.7302	46733.88	3.6310	3.6310	0.1807	6.00	0.01	0.750			
0.7307	46765.26	3.6280	3.6280	0.1424	6.00	0.01	0.750			
0.7311	46789.86	3.6250	3.6254	0.1052	6.00	0.01	0.750			
0.7313	46806.26	3.6220	3.6226	0.0657	6.00	0.01	0.750			
0.7315	46816.20	3.6190	3.6203	0.0221	6.00	0.01	0.750			
0.7315	46816.34	3.6160	3.6203	-0.0207	6.00	0.01	0.750			
