Ah_balance (normalized)	Ah_balance (mAh)	Voltage - fit (V)	Voltage -  interpolate (V)	dQ/dV (1/V)	Temperature (°C)	Temperature - diff (°C)	Current (C)	R_DC 0ms (mOhm)	R_DC 50ms (mOhm)	R_DC 50 ms PEC (mOhm)
0.0953	6100.56	4.0060	4.0059	-0.0853	5.99	0.02	-0.750			
0.0956	6120.77	4.0030	4.0027	-0.1165	5.99	0.02	-0.750			
0.0960	6146.10	4.0000	4.0000	-0.1441	5.99	0.02	-0.750			
0.0965	6176.52	3.9970	3.9969	-0.1707	5.99	0.02	-0.750			
0.0971	6211.95	3.9940	3.9941	-0.1967	5.99	0.02	-0.750			
0.0977	6253.20	3.9910	3.9909	-0.2218	5.99	0.02	-0.750			
0.0984	6298.21	3.9880	3.9880	-0.2458	5.99	0.02	-0.750			
0.0992	6347.59	3.9850	3.9850	-0.2692	5.98	0.01	-0.750			
0.1000	6401.03	3.9820	3.9820	-0.2949	5.98	0.01	-0.750			
0.1009	6460.31	3.9790	3.9790	-0.3190	5.98	0.01	-0.750			
0.1019	6523.80	3.9760	3.9760	-0.3445	5.98	0.01	-0.750			
0.1030	6592.46	3.9730	3.9730	-0.3690	5.98	0.01	-0.750			
0.1042	6666.23	3.9700	3.9700	-0.3938	5.97	0.00	-0.750			
0.1054	6743.90	3.9670	3.9671	-0.4181	5.97	-0.00	-0.750			
0.1067	6826.48	3.9640	3.9640	-0.4425	5.97	-0.00	-0.750			
0.1080	6913.99	3.9610	3.9610	-0.4639	5.96	-0.01	-0.750			
0.1095	7005.49	3.9580	3.9580	-0.4879	5.96	-0.01	-0.750			
0.1110	7101.34	3.9550	3.9551	-0.5111	5.96	-0.01	-0.750			
0.1125	7201.93	3.9520	3.9520	-0.5312	5.95	-0.02	-0.750			
0.1142	7306.60	3.9490	3.9489	-0.5503	5.95	-0.02	-0.750			
0.1158	7413.88	3.9460	3.9460	-0.5683	5.94	-0.03	-0.750			
0.1176	7525.15	3.9430	3.9431	-0.5849	5.94	-0.03	-0.750			
0.1194	7639.36	3.9400	3.9400	-0.6009	5.94	-0.03	-0.750			
0.1212	7755.55	3.9370	3.9370	-0.6158	5.94	-0.03	-0.750			
0.1231	7875.71	3.9340	3.9340	-0.6319	5.94	-0.03	-0.750			
0.1250	7999.03	3.9310	3.9309	-0.6436	5.94	-0.03	-0.750			
0.1270	8125.34	3.9280	3.9280	-0.6561	5.94	-0.03	-0.750			
0.1289	8252.61	3.9250	3.9251	-0.6658	5.94	-0.03	-0.750			
0.1310	8381.60	3.9220	3.9219	-0.6771	5.94	-0.03	-0.750			
0.1330	8512.18	3.9190	3.9190	-0.6847	5.94	-0.03	-0.750			
0.1350	8643.19	3.9160	3.9160	-0.6931	5.94	-0.03	-0.750			
0.1372	8778.48	3.9130	3.9129	-0.7027	5.95	-0.02	-0.750			
0.1393	8917.39	3.9100	3.9099	-0.6993	5.95	-0.02	-0.750			
0.1415	9056.00	3.9070	3.9069	-0.6864	5.95	-0.02	-0.750			
0.1435	9186.70	3.9040	3.9041	-0.6657	5.95	-0.02	-0.750			
0.1455	9308.93	3.9010	3.9014	-0.6615	5.95	-0.02	-0.750			
0.1473	9430.01	3.8980	3.8976	-0.6651	5.95	-0.02	-0.750			
0.1493	9553.20	3.8950	3.8946	-0.6647	5.95	-0.02	-0.750			
0.1513	9680.99	3.8920	3.8920	-0.6878	5.95	-0.02	-0.750			
0.1534	9816.62	3.8890	3.8890	-0.7067	5.95	-0.02	-0.750			
0.1556	9959.24	3.8860	3.8864	-0.7287	5.95	-0.02	-0.750			
0.1579	10104.24	3.8830	3.8828	-0.7431	5.95	-0.02	-0.750			
0.1601	10245.75	3.8800	3.8801	-0.7477	5.96	-0.01	-0.750			
0.1623	10389.67	3.8770	3.8770	-0.7531	5.96	-0.01	-0.750			
0.1647	10538.33	3.8740	3.8740	-0.7591	5.97	-0.00	-0.750			
0.1669	10684.33	3.8710	3.8709	-0.7548	5.97	-0.00	-0.750			
0.1692	10830.45	3.8680	3.8680	-0.7548	5.97	0.00	-0.750			
0.1715	10974.00	3.8650	3.8650	-0.7570	5.97	0.00	-0.750			
0.1737	11117.67	3.8620	3.8620	-0.7547	5.97	0.00	-0.750			
0.1760	11261.46	3.8590	3.8590	-0.7554	5.98	0.01	-0.750			
0.1782	11407.78	3.8560	3.8559	-0.7613	5.98	0.01	-0.750			
0.1806	11555.78	3.8530	3.8531	-0.7647	5.98	0.01	-0.750			
0.1829	11703.10	3.8500	3.8500	-0.7706	5.98	0.01	-0.750			
0.1852	11851.00	3.8470	3.8470	-0.7745	5.99	0.02	-0.750			
0.1875	12001.08	3.8440	3.8440	-0.7754	5.99	0.02	-0.750			
0.1898	12149.83	3.8410	3.8409	-0.7785	6.00	0.03	-0.750			
0.1922	12299.52	3.8380	3.8380	-0.7786	6.00	0.03	-0.750			
0.1945	12450.73	3.8350	3.8349	-0.7765	6.00	0.03	-0.750			
0.1969	12598.63	3.8320	3.8320	-0.7769	6.01	0.04	-0.750			
0.1992	12745.83	3.8290	3.8290	-0.7746	6.01	0.04	-0.750			
0.2015	12894.67	3.8260	3.8261	-0.7772	6.01	0.04	-0.750			
0.2038	13045.41	3.8230	3.8228	-0.7808	6.02	0.05	-0.750			
0.2062	13194.89	3.8200	3.8201	-0.7801	6.02	0.05	-0.750			
0.2085	13345.07	3.8170	3.8171	-0.7810	6.03	0.06	-0.750			
0.2109	13496.21	3.8140	3.8140	-0.7776	6.03	0.06	-0.750			
0.2132	13644.39	3.8110	3.8111	-0.7758	6.04	0.07	-0.750			
0.2155	13794.27	3.8080	3.8079	-0.7751	6.04	0.07	-0.750			
0.2179	13942.82	3.8050	3.8053	-0.7726	6.05	0.08	-0.750			
0.2202	14089.80	3.8020	3.8021	-0.7757	6.05	0.08	-0.750			
0.2225	14239.02	3.7990	3.7990	-0.7815	6.06	0.09	-0.750			
0.2248	14390.08	3.7960	3.7959	-0.7843	6.06	0.09	-0.750			
0.2272	14541.39	3.7930	3.7929	-0.7897	6.07	0.10	-0.750			
0.2296	14692.10	3.7900	3.7901	-0.7915	6.07	0.10	-0.750			
0.2320	14846.84	3.7870	3.7869	-0.7965	6.07	0.10	-0.750			
0.2344	14999.69	3.7840	3.7840	-0.7955	6.08	0.11	-0.750			
0.2367	15150.87	3.7810	3.7810	-0.7894	6.08	0.11	-0.750			
0.2391	15302.80	3.7780	3.7781	-0.7891	6.08	0.11	-0.750			
0.2415	15455.74	3.7750	3.7750	-0.7917	6.09	0.12	-0.750			
0.2439	15606.92	3.7720	3.7720	-0.7881	6.09	0.12	-0.750			
0.2462	15756.00	3.7690	3.7690	-0.7936	6.10	0.13	-0.750			
0.2486	15910.63	3.7660	3.7660	-0.7921	6.11	0.14	-0.750			
0.2510	16063.78	3.7630	3.7629	-0.7914	6.12	0.15	-0.750			
0.2534	16215.61	3.7600	3.7599	-0.7944	6.12	0.15	-0.750			
0.2558	16368.20	3.7570	3.7571	-0.7940	6.13	0.16	-0.750			
0.2581	16519.57	3.7540	3.7539	-0.7957	6.13	0.16	-0.750			
0.2605	16673.34	3.7510	3.7510	-0.8054	6.14	0.17	-0.750			
0.2629	16827.96	3.7480	3.7479	-0.8010	6.14	0.17	-0.750			
0.2654	16986.70	3.7450	3.7449	-0.8084	6.15	0.18	-0.750			
0.2678	17141.83	3.7420	3.7424	-0.8083	6.15	0.18	-0.750			
0.2702	17295.52	3.7390	3.7390	-0.8036	6.16	0.19	-0.750			
0.2726	17448.32	3.7360	3.7359	-0.8094	6.17	0.20	-0.750			
0.2750	17602.36	3.7330	3.7330	-0.8120	6.18	0.21	-0.750			
0.2775	17761.54	3.7300	3.7299	-0.8225	6.19	0.22	-0.750			
0.2800	17919.67	3.7270	3.7272	-0.8233	6.20	0.23	-0.750			
0.2825	18078.35	3.7240	3.7240	-0.8329	6.20	0.23	-0.750			
0.2850	18238.16	3.7210	3.7210	-0.8388	6.21	0.24	-0.750			
0.2875	18400.30	3.7180	3.7179	-0.8400	6.21	0.24	-0.750			
0.2900	18562.41	3.7150	3.7150	-0.8482	6.22	0.25	-0.750			
0.2926	18725.65	3.7120	3.7122	-0.8519	6.22	0.25	-0.750			
0.2951	18888.44	3.7090	3.7089	-0.8608	6.23	0.26	-0.750			
0.2977	19054.65	3.7060	3.7059	-0.8632	6.23	0.26	-0.750			
0.3003	19219.39	3.7030	3.7030	-0.8679	6.24	0.27	-0.750			
0.3029	19388.09	3.7000	3.6999	-0.8789	6.24	0.27	-0.750			
0.3056	19557.58	3.6970	3.6972	-0.8845	6.25	0.28	-0.750			
0.3082	19725.15	3.6940	3.6940	-0.8967	6.25	0.28	-0.750			
0.3109	19899.18	3.6910	3.6910	-0.9031	6.25	0.28	-0.750			
0.3136	20072.55	3.6880	3.6880	-0.9159	6.25	0.28	-0.750			
0.3164	20250.49	3.6850	3.6850	-0.9307	6.25	0.28	-0.750			
0.3192	20430.35	3.6820	3.6818	-0.9374	6.25	0.28	-0.750			
0.3221	20612.37	3.6790	3.6790	-0.9545	6.26	0.29	-0.750			
0.3250	20798.65	3.6760	3.6760	-0.9578	6.26	0.29	-0.750			
0.3278	20982.26	3.6730	3.6729	-0.9616	6.27	0.30	-0.750			
0.3308	21169.61	3.6700	3.6702	-0.9722	6.27	0.30	-0.750			
0.3337	21353.71	3.6670	3.6671	-0.9814	6.28	0.31	-0.750			
0.3366	21543.98	3.6640	3.6639	-0.9898	6.28	0.31	-0.750			
0.3396	21735.00	3.6610	3.6609	-0.9961	6.29	0.32	-0.750			
0.3426	21926.68	3.6580	3.6583	-1.0126	6.29	0.32	-0.750			
0.3457	22122.94	3.6550	3.6550	-1.0214	6.29	0.32	-0.750			
0.3487	22319.93	3.6520	3.6519	-1.0312	6.29	0.32	-0.750			
0.3519	22518.81	3.6490	3.6489	-1.0401	6.29	0.32	-0.750			
0.3550	22718.58	3.6460	3.6461	-1.0530	6.29	0.32	-0.750			
0.3582	22922.19	3.6430	3.6430	-1.0707	6.29	0.32	-0.750			
0.3614	23130.88	3.6400	3.6400	-1.0813	6.30	0.33	-0.750			
0.3647	23339.34	3.6370	3.6369	-1.0850	6.31	0.34	-0.750			
0.3679	23545.57	3.6340	3.6342	-1.1128	6.31	0.34	-0.750			
0.3713	23763.26	3.6310	3.6310	-1.1220	6.31	0.34	-0.750			
0.3747	23980.50	3.6280	3.6278	-1.1360	6.32	0.35	-0.750			
0.3781	24200.12	3.6250	3.6249	-1.1422	6.32	0.35	-0.750			
0.3816	24421.85	3.6220	3.6220	-1.1589	6.32	0.35	-0.750			
0.3851	24646.18	3.6190	3.6189	-1.1668	6.32	0.35	-0.750			
0.3886	24869.50	3.6160	3.6159	-1.1767	6.33	0.36	-0.750			
0.3920	25089.21	3.6130	3.6132	-1.1939	6.33	0.36	-0.750			
0.3957	25326.98	3.6100	3.6099	-1.2095	6.33	0.36	-0.750			
0.3994	25560.22	3.6070	3.6069	-1.2201	6.32	0.35	-0.750			
0.4030	25793.84	3.6040	3.6040	-1.2490	6.32	0.35	-0.750			
0.4068	26035.56	3.6010	3.6010	-1.2523	6.32	0.35	-0.750			
0.4107	26281.84	3.5980	3.5979	-1.2606	6.32	0.35	-0.750			
0.4144	26523.81	3.5950	3.5950	-1.2639	6.33	0.36	-0.750	0.486	1.093	
0.4182	26767.75	3.5920	3.5922	-1.2877	6.33	0.36	-0.750			
0.4221	27013.47	3.5890	3.5888	-1.2983	6.34	0.37	-0.750			
0.4259	27260.31	3.5860	3.5859	-1.3062	6.34	0.37	-0.750			
0.4299	27512.36	3.5830	3.5833	-1.3247	6.35	0.38	-0.750			
0.4340	27775.98	3.5800	3.5798	-1.3502	6.35	0.38	-0.750			
0.4380	28034.17	3.5770	3.5770	-1.3620	6.35	0.38	-0.750			
0.4421	28295.55	3.5740	3.5742	-1.3796	6.35	0.38	-0.750			
0.4462	28557.94	3.5710	3.5709	-1.4188	6.35	0.38	-0.750			
0.4505	28831.37	3.5680	3.5679	-1.4436	6.35	0.38	-0.750			
0.4549	29113.02	3.5650	3.5652	-1.4613	6.35	0.38	-0.750			
0.4594	29399.75	3.5620	3.5617	-1.4650	6.35	0.38	-0.750			
0.4639	29686.54	3.5590	3.5595	-1.5011	6.36	0.39	-0.750			
0.4684	29977.63	3.5560	3.5560	-1.4974	6.36	0.39	-0.750			
0.4729	30266.89	3.5530	3.5528	-1.5062	6.36	0.39	-0.750			
0.4774	30550.90	3.5500	3.5500	-1.5086	6.37	0.40	-0.750			
0.4819	30838.67	3.5470	3.5470	-1.5341	6.37	0.40	-0.750			
0.4865	31138.71	3.5440	3.5438	-1.5501	6.38	0.41	-0.750			
0.4912	31434.55	3.5410	3.5409	-1.5694	6.39	0.42	-0.750			
0.4958	31733.64	3.5380	3.5380	-1.5851	6.40	0.43	-0.750			
0.5007	32045.70	3.5350	3.5348	-1.6013	6.40	0.43	-0.750			
0.5056	32357.02	3.5320	3.5319	-1.5987	6.41	0.44	-0.750			
0.5103	32661.53	3.5290	3.5290	-1.6018	6.42	0.45	-0.750			
0.5152	32972.05	3.5260	3.5261	-1.6146	6.43	0.46	-0.750			
0.5201	33285.40	3.5230	3.5227	-1.6231	6.43	0.46	-0.750			
0.5249	33592.56	3.5200	3.5201	-1.6314	6.44	0.47	-0.750			
0.5298	33909.76	3.5170	3.5172	-1.6376	6.45	0.48	-0.750			
0.5348	34228.98	3.5140	3.5140	-1.6421	6.46	0.49	-0.750			
0.5398	34547.23	3.5110	3.5109	-1.6701	6.47	0.50	-0.750			
0.5448	34867.55	3.5080	3.5077	-1.6565	6.47	0.50	-0.750			
0.5498	35186.53	3.5050	3.5049	-1.6614	6.48	0.51	-0.750			
0.5548	35506.64	3.5020	3.5022	-1.6524	6.49	0.52	-0.750			
0.5597	35821.09	3.4990	3.4990	-1.6454	6.50	0.53	-0.750			
0.5647	36138.41	3.4960	3.4959	-1.6413	6.51	0.54	-0.750			
0.5695	36444.87	3.4930	3.4930	-1.6218	6.52	0.55	-0.750			
0.5744	36759.81	3.4900	3.4899	-1.6509	6.53	0.56	-0.750			
0.5793	37075.89	3.4870	3.4869	-1.6390	6.54	0.57	-0.750			
0.5843	37393.20	3.4840	3.4840	-1.6361	6.55	0.58	-0.750			
0.5892	37709.78	3.4810	3.4809	-1.6265	6.56	0.59	-0.750			
0.5940	38018.73	3.4780	3.4780	-1.6115	6.57	0.60	-0.750			
0.5989	38329.08	3.4750	3.4748	-1.5901	6.59	0.62	-0.750			
0.6036	38630.62	3.4720	3.4720	-1.5723	6.61	0.64	-0.750			
0.6083	38932.31	3.4690	3.4689	-1.5491	6.62	0.65	-0.750			
0.6130	39233.80	3.4660	3.4660	-1.5404	6.64	0.67	-0.750			
0.6176	39523.92	3.4630	3.4633	-1.5225	6.65	0.68	-0.750			
0.6222	39817.88	3.4600	3.4599	-1.4989	6.66	0.69	-0.750			
0.6266	40102.25	3.4570	3.4569	-1.4773	6.68	0.71	-0.750			
0.6311	40388.55	3.4540	3.4542	-1.4733	6.69	0.72	-0.750			
0.6355	40670.89	3.4510	3.4509	-1.4572	6.71	0.74	-0.750			
0.6398	40946.25	3.4480	3.4479	-1.4416	6.73	0.76	-0.750			
0.6441	41219.65	3.4450	3.4451	-1.4045	6.75	0.78	-0.750			
0.6483	41493.61	3.4420	3.4419	-1.4000	6.76	0.79	-0.750			
0.6525	41757.72	3.4390	3.4390	-1.3858	6.78	0.81	-0.750			
0.6565	42018.85	3.4360	3.4360	-1.3477	6.80	0.83	-0.750			
0.6607	42283.17	3.4330	3.4329	-1.3249	6.81	0.84	-0.750			
0.6646	42533.84	3.4300	3.4299	-1.2929	6.83	0.86	-0.750			
0.6684	42777.06	3.4270	3.4272	-1.2603	6.84	0.87	-0.750			
0.6722	43018.50	3.4240	3.4239	-1.2394	6.86	0.89	-0.750			
0.6758	43251.71	3.4210	3.4209	-1.2001	6.87	0.90	-0.750			
0.6793	43476.87	3.4180	3.4179	-1.1636	6.89	0.92	-0.750			
0.6829	43705.33	3.4150	3.4150	-1.1585	6.90	0.93	-0.750			
0.6863	43923.89	3.4120	3.4120	-1.1246	6.92	0.95	-0.750			
0.6896	44136.12	3.4090	3.4088	-1.0900	6.94	0.97	-0.750			
0.6928	44340.68	3.4060	3.4065	-1.0616	6.95	0.98	-0.750			
0.6960	44542.40	3.4030	3.4029	-1.0412	6.97	1.00	-0.750			
0.6991	44741.95	3.4000	3.4000	-1.0169	6.99	1.02	-0.750			
0.7021	44933.49	3.3970	3.3970	-0.9870	7.01	1.04	-0.750			
0.7051	45124.71	3.3940	3.3941	-0.9701	7.03	1.06	-0.750			
0.7079	45306.06	3.3910	3.3910	-0.9437	7.04	1.07	-0.750			
0.7107	45484.22	3.3880	3.3879	-0.9133	7.05	1.08	-0.750			
0.7134	45655.24	3.3850	3.3850	-0.8849	7.06	1.09	-0.750			
0.7160	45823.70	3.3820	3.3819	-0.8597	7.07	1.10	-0.750			
0.7185	45986.58	3.3790	3.3790	-0.8329	7.09	1.12	-0.750			
0.7210	46142.71	3.3760	3.3760	-0.8110	7.10	1.13	-0.750			
0.7234	46295.80	3.3730	3.3730	-0.7835	7.11	1.14	-0.750			
0.7256	46441.19	3.3700	3.3699	-0.7581	7.12	1.15	-0.750			
0.7279	46587.35	3.3670	3.3670	-0.7414	7.14	1.17	-0.750			
0.7301	46726.68	3.3640	3.3643	-0.7245	7.15	1.18	-0.750			
0.7322	46864.00	3.3610	3.3610	-0.7026	7.16	1.19	-0.750			
