Ah_balance (normalized)	Ah_balance (mAh)	Voltage - fit (V)	Voltage -  interpolate (V)	dQ/dV (1/V)	Temperature (°C)	Temperature - diff (°C)	Current (C)	R_DC 0ms (mOhm)	R_DC 50ms (mOhm)	R_DC 50 ms PEC (mOhm)
0.0951	6088.68	4.0050	4.0039	-0.0725	5.98	0.01	-0.750			
0.0954	6105.44	4.0020	4.0019	-0.1020	5.98	0.01	-0.750			
0.0958	6128.37	3.9990	3.9987	-0.1307	5.98	0.01	-0.750			
0.0962	6156.27	3.9960	3.9961	-0.1579	5.98	0.01	-0.750			
0.0967	6189.28	3.9930	3.9930	-0.1843	5.98	0.01	-0.750			
0.0973	6227.41	3.9900	3.9900	-0.2098	5.98	0.01	-0.750			
0.0980	6271.41	3.9870	3.9870	-0.2336	5.98	0.01	-0.750			
0.0987	6317.84	3.9840	3.9841	-0.2598	5.98	0.01	-0.750			
0.0995	6370.63	3.9810	3.9810	-0.2832	5.97	0.00	-0.750			
0.1004	6427.40	3.9780	3.9780	-0.3055	5.97	0.00	-0.750			
0.1014	6488.08	3.9750	3.9750	-0.3302	5.97	0.00	-0.750			
0.1024	6553.18	3.9720	3.9722	-0.3551	5.97	0.00	-0.750			
0.1035	6623.52	3.9690	3.9689	-0.3812	5.97	-0.00	-0.750			
0.1047	6699.51	3.9660	3.9659	-0.4069	5.97	-0.00	-0.750			
0.1059	6779.39	3.9630	3.9631	-0.4326	5.96	-0.01	-0.750			
0.1073	6865.56	3.9600	3.9600	-0.4588	5.96	-0.01	-0.750			
0.1087	6957.23	3.9570	3.9570	-0.4855	5.96	-0.01	-0.750			
0.1102	7053.16	3.9540	3.9540	-0.5062	5.96	-0.01	-0.750			
0.1118	7153.58	3.9510	3.9510	-0.5241	5.96	-0.01	-0.750			
0.1134	7256.01	3.9480	3.9480	-0.5428	5.95	-0.02	-0.750			
0.1150	7361.02	3.9450	3.9452	-0.5642	5.95	-0.02	-0.750			
0.1167	7471.59	3.9420	3.9420	-0.5790	5.95	-0.02	-0.750			
0.1185	7584.58	3.9390	3.9389	-0.5967	5.95	-0.02	-0.750			
0.1203	7700.37	3.9360	3.9360	-0.6159	5.95	-0.02	-0.750			
0.1222	7822.16	3.9330	3.9332	-0.6324	5.95	-0.02	-0.750			
0.1241	7945.06	3.9300	3.9299	-0.6453	5.95	-0.02	-0.750			
0.1261	8070.33	3.9270	3.9271	-0.6541	5.95	-0.02	-0.750			
0.1281	8197.19	3.9240	3.9241	-0.6631	5.95	-0.02	-0.750			
0.1301	8326.24	3.9210	3.9209	-0.6776	5.95	-0.02	-0.750			
0.1321	8455.54	3.9180	3.9181	-0.6843	5.95	-0.02	-0.750			
0.1342	8587.74	3.9150	3.9150	-0.6918	5.95	-0.02	-0.750			
0.1363	8722.30	3.9120	3.9120	-0.7027	5.95	-0.02	-0.750			
0.1384	8857.59	3.9090	3.9090	-0.7102	5.95	-0.02	-0.750			
0.1406	8995.49	3.9060	3.9062	-0.7155	5.95	-0.02	-0.750			
0.1427	9133.14	3.9030	3.9028	-0.7207	5.95	-0.02	-0.750			
0.1449	9270.58	3.9000	3.9002	-0.7309	5.96	-0.01	-0.750			
0.1471	9413.54	3.8970	3.8970	-0.7351	5.96	-0.01	-0.750			
0.1493	9556.64	3.8940	3.8939	-0.7379	5.96	-0.01	-0.750			
0.1515	9698.92	3.8910	3.8910	-0.7364	5.97	-0.00	-0.750			
0.1537	9839.50	3.8880	3.8879	-0.7404	5.97	0.00	-0.750			
0.1560	9981.88	3.8850	3.8850	-0.7435	5.98	0.01	-0.750			
0.1582	10123.41	3.8820	3.8820	-0.7482	5.98	0.01	-0.750			
0.1604	10267.84	3.8790	3.8789	-0.7483	5.98	0.01	-0.750			
0.1627	10414.61	3.8760	3.8759	-0.7549	5.99	0.02	-0.750			
0.1650	10560.23	3.8730	3.8733	-0.7586	5.99	0.02	-0.750			
0.1673	10705.69	3.8700	3.8699	-0.7566	5.99	0.02	-0.750			
0.1695	10848.80	3.8670	3.8670	-0.7579	6.00	0.03	-0.750			
0.1718	10994.51	3.8640	3.8640	-0.7639	6.00	0.03	-0.750			
0.1741	11141.99	3.8610	3.8610	-0.7715	6.00	0.03	-0.750			
0.1764	11291.14	3.8580	3.8579	-0.7710	6.01	0.04	-0.750			
0.1788	11440.12	3.8550	3.8551	-0.7732	6.01	0.04	-0.750			
0.1811	11587.48	3.8520	3.8521	-0.7739	6.02	0.05	-0.750			
0.1834	11737.53	3.8490	3.8489	-0.7709	6.02	0.05	-0.750			
0.1857	11883.97	3.8460	3.8460	-0.7658	6.02	0.05	-0.750			
0.1880	12031.20	3.8430	3.8429	-0.7700	6.03	0.06	-0.750			
0.1903	12179.11	3.8400	3.8403	-0.7743	6.03	0.06	-0.750			
0.1926	12328.28	3.8370	3.8370	-0.7783	6.03	0.06	-0.750			
0.1950	12477.99	3.8340	3.8339	-0.7805	6.04	0.07	-0.750			
0.1973	12628.30	3.8310	3.8311	-0.7849	6.04	0.07	-0.750			
0.1997	12781.00	3.8280	3.8279	-0.7886	6.05	0.08	-0.750			
0.2021	12932.04	3.8250	3.8249	-0.7829	6.05	0.08	-0.750			
0.2044	13082.25	3.8220	3.8219	-0.7773	6.06	0.09	-0.750			
0.2067	13229.69	3.8190	3.8191	-0.7791	6.06	0.09	-0.750			
0.2090	13378.17	3.8160	3.8160	-0.7776	6.07	0.10	-0.750			
0.2114	13526.67	3.8130	3.8129	-0.7820	6.08	0.11	-0.750			
0.2137	13677.66	3.8100	3.8100	-0.7828	6.09	0.12	-0.750			
0.2161	13828.92	3.8070	3.8070	-0.7891	6.09	0.12	-0.750			
0.2185	13982.97	3.8040	3.8040	-0.7912	6.10	0.13	-0.750			
0.2209	14135.09	3.8010	3.8010	-0.7900	6.10	0.13	-0.750			
0.2232	14284.46	3.7980	3.7980	-0.7846	6.10	0.13	-0.750			
0.2256	14436.30	3.7950	3.7949	-0.7864	6.11	0.14	-0.750			
0.2279	14585.17	3.7920	3.7921	-0.7846	6.11	0.14	-0.750			
0.2303	14736.08	3.7890	3.7889	-0.7894	6.11	0.14	-0.750			
0.2326	14888.34	3.7860	3.7861	-0.7911	6.12	0.15	-0.750			
0.2350	15042.83	3.7830	3.7829	-0.7896	6.12	0.15	-0.750			
0.2374	15193.98	3.7800	3.7800	-0.7894	6.13	0.16	-0.750			
0.2398	15345.87	3.7770	3.7772	-0.7867	6.13	0.16	-0.750			
0.2421	15495.00	3.7740	3.7738	-0.7854	6.14	0.17	-0.750			
0.2444	15644.35	3.7710	3.7709	-0.7865	6.14	0.17	-0.750			
0.2468	15795.76	3.7680	3.7680	-0.7812	6.15	0.18	-0.750			
0.2491	15945.52	3.7650	3.7650	-0.7859	6.16	0.19	-0.750			
0.2515	16099.13	3.7620	3.7620	-0.7944	6.17	0.20	-0.750			
0.2539	16251.11	3.7590	3.7592	-0.7925	6.17	0.20	-0.750			
0.2563	16402.06	3.7560	3.7558	-0.8006	6.18	0.21	-0.750			
0.2587	16557.45	3.7530	3.7531	-0.8013	6.18	0.21	-0.750			
0.2611	16710.92	3.7500	3.7500	-0.8048	6.18	0.21	-0.750			
0.2636	16867.89	3.7470	3.7470	-0.8068	6.19	0.22	-0.750			
0.2660	17023.02	3.7440	3.7441	-0.8062	6.19	0.22	-0.750			
0.2684	17177.96	3.7410	3.7409	-0.8062	6.20	0.23	-0.750			
0.2708	17333.50	3.7380	3.7381	-0.8160	6.21	0.24	-0.750			
0.2733	17489.17	3.7350	3.7348	-0.8175	6.22	0.25	-0.750			
0.2758	17648.10	3.7320	3.7319	-0.8255	6.22	0.25	-0.750			
0.2782	17807.48	3.7290	3.7292	-0.8285	6.23	0.26	-0.750			
0.2807	17967.67	3.7260	3.7259	-0.8327	6.23	0.26	-0.750			
0.2832	18126.87	3.7230	3.7230	-0.8391	6.24	0.27	-0.750			
0.2857	18287.32	3.7200	3.7201	-0.8389	6.24	0.27	-0.750			
0.2883	18452.85	3.7170	3.7169	-0.8475	6.25	0.28	-0.750			
0.2909	18616.39	3.7140	3.7141	-0.8441	6.25	0.28	-0.750			
0.2934	18776.11	3.7110	3.7111	-0.8523	6.26	0.29	-0.750			
0.2959	18939.80	3.7080	3.7080	-0.8592	6.26	0.29	-0.750			
0.2985	19104.41	3.7050	3.7047	-0.8628	6.26	0.29	-0.750			
0.3011	19270.17	3.7020	3.7020	-0.8743	6.27	0.30	-0.750			
0.3037	19439.90	3.6990	3.6992	-0.8858	6.27	0.30	-0.750			
0.3065	19613.26	3.6960	3.6959	-0.9013	6.27	0.30	-0.750			
0.3092	19787.69	3.6930	3.6930	-0.9075	6.28	0.31	-0.750			
0.3119	19959.42	3.6900	3.6900	-0.9052	6.28	0.31	-0.750			
0.3146	20136.06	3.6870	3.6868	-0.9164	6.28	0.31	-0.750			
0.3174	20311.60	3.6840	3.6840	-0.9337	6.29	0.32	-0.750			
0.3202	20491.32	3.6810	3.6810	-0.9394	6.29	0.32	-0.750			
0.3230	20673.20	3.6780	3.6779	-0.9498	6.30	0.33	-0.750			
0.3259	20857.09	3.6750	3.6749	-0.9529	6.31	0.34	-0.750			
0.3288	21042.26	3.6720	3.6721	-0.9640	6.31	0.34	-0.750			
0.3317	21228.15	3.6690	3.6690	-0.9818	6.31	0.34	-0.750			
0.3346	21417.44	3.6660	3.6658	-0.9853	6.31	0.34	-0.750			
0.3376	21604.69	3.6630	3.6629	-0.9920	6.31	0.34	-0.750			
0.3406	21798.49	3.6600	3.6603	-1.0126	6.31	0.34	-0.750			
0.3437	21995.03	3.6570	3.6569	-1.0226	6.31	0.34	-0.750			
0.3468	22192.71	3.6540	3.6540	-1.0353	6.31	0.34	-0.750			
0.3498	22388.95	3.6510	3.6509	-1.0421	6.31	0.34	-0.750			
0.3530	22591.32	3.6480	3.6483	-1.0595	6.31	0.34	-0.750			
0.3562	22797.19	3.6450	3.6450	-1.0713	6.32	0.35	-0.750			
0.3594	23003.63	3.6420	3.6420	-1.0741	6.32	0.35	-0.750			
0.3627	23211.52	3.6390	3.6388	-1.0779	6.33	0.36	-0.750			
0.3659	23417.41	3.6360	3.6362	-1.0981	6.33	0.36	-0.750			
0.3692	23628.28	3.6330	3.6329	-1.1083	6.33	0.36	-0.750			
0.3725	23841.75	3.6300	3.6299	-1.1225	6.33	0.36	-0.750			
0.3759	24060.04	3.6270	3.6270	-1.1280	6.33	0.36	-0.750			
0.3793	24278.00	3.6240	3.6240	-1.1515	6.33	0.36	-0.750			
0.3829	24502.54	3.6210	3.6210	-1.1616	6.33	0.36	-0.750			
0.3864	24727.36	3.6180	3.6177	-1.1667	6.33	0.36	-0.750			
0.3898	24947.04	3.6150	3.6153	-1.1846	6.33	0.36	-0.750			
0.3934	25179.02	3.6120	3.6120	-1.2001	6.34	0.37	-0.750			
0.3970	25410.11	3.6090	3.6089	-1.2174	6.34	0.37	-0.750			
0.4007	25646.42	3.6060	3.6059	-1.2299	6.35	0.38	-0.750			
0.4044	25884.06	3.6030	3.6030	-1.2484	6.35	0.38	-0.750			
0.4082	26126.28	3.6000	3.5999	-1.2565	6.35	0.38	-0.750			
0.4120	26368.09	3.5970	3.5969	-1.2637	6.35	0.38	-0.750			
0.4157	26607.89	3.5940	3.5941	-1.2727	6.35	0.38	-0.750	0.481	1.094	
0.4197	26858.39	3.5910	3.5909	-1.2903	6.35	0.38	-0.750			
0.4235	27105.45	3.5880	3.5879	-1.3001	6.35	0.38	-0.750			
0.4275	27357.39	3.5850	3.5853	-1.3180	6.35	0.38	-0.750			
0.4314	27609.85	3.5820	3.5820	-1.3325	6.35	0.38	-0.750			
0.4355	27869.46	3.5790	3.5789	-1.3513	6.35	0.38	-0.750			
0.4395	28129.32	3.5760	3.5761	-1.3796	6.35	0.38	-0.750			
0.4438	28401.30	3.5730	3.5729	-1.3921	6.35	0.38	-0.750			
0.4479	28665.70	3.5700	3.5700	-1.4170	6.36	0.39	-0.750			
0.4522	28940.25	3.5670	3.5673	-1.4386	6.36	0.39	-0.750			
0.4566	29221.23	3.5640	3.5637	-1.4439	6.36	0.39	-0.750			
0.4610	29502.43	3.5610	3.5608	-1.4532	6.37	0.40	-0.750			
0.4654	29782.64	3.5580	3.5584	-1.4716	6.37	0.40	-0.750			
0.4698	30070.22	3.5550	3.5548	-1.4882	6.37	0.40	-0.750			
0.4743	30352.35	3.5520	3.5518	-1.5174	6.37	0.40	-0.750			
0.4787	30637.64	3.5490	3.5492	-1.5052	6.37	0.40	-0.750			
0.4834	30936.72	3.5460	3.5459	-1.5422	6.37	0.40	-0.750			
0.4881	31235.42	3.5430	3.5432	-1.5521	6.38	0.41	-0.750			
0.4927	31533.09	3.5400	3.5397	-1.5460	6.38	0.41	-0.750			
0.4974	31834.83	3.5370	3.5368	-1.5656	6.39	0.42	-0.750			
0.5021	32133.69	3.5340	3.5343	-1.5668	6.39	0.42	-0.750			
0.5068	32434.43	3.5310	3.5309	-1.5788	6.39	0.42	-0.750			
0.5116	32740.21	3.5280	3.5279	-1.5777	6.39	0.42	-0.750			
0.5163	33041.41	3.5250	3.5250	-1.5894	6.39	0.42	-0.750			
0.5210	33345.94	3.5220	3.5221	-1.6171	6.40	0.43	-0.750			
0.5259	33658.71	3.5190	3.5188	-1.6129	6.41	0.44	-0.750			
0.5308	33969.60	3.5160	3.5158	-1.6162	6.42	0.45	-0.750			
0.5356	34279.11	3.5130	3.5129	-1.6460	6.42	0.45	-0.750			
0.5406	34596.65	3.5100	3.5100	-1.6541	6.43	0.46	-0.750			
0.5456	34917.21	3.5070	3.5070	-1.6715	6.43	0.46	-0.750			
0.5506	35238.30	3.5040	3.5040	-1.6628	6.43	0.46	-0.750			
0.5557	35562.05	3.5010	3.5008	-1.6558	6.43	0.46	-0.750			
0.5607	35886.31	3.4980	3.4978	-1.6804	6.44	0.47	-0.750			
0.5657	36205.58	3.4950	3.4950	-1.6565	6.45	0.48	-0.750			
0.5706	36519.47	3.4920	3.4922	-1.6395	6.46	0.49	-0.750			
0.5755	36834.93	3.4890	3.4889	-1.6121	6.47	0.50	-0.750			
0.5803	37140.29	3.4860	3.4858	-1.5958	6.47	0.50	-0.750			
0.5852	37450.18	3.4830	3.4828	-1.6051	6.48	0.51	-0.750			
0.5900	37758.80	3.4800	3.4799	-1.5940	6.48	0.51	-0.750			
0.5946	38056.94	3.4770	3.4770	-1.5847	6.49	0.52	-0.750			
0.5994	38364.07	3.4740	3.4739	-1.5724	6.49	0.52	-0.750			
0.6042	38669.20	3.4710	3.4710	-1.5616	6.50	0.53	-0.750			
0.6089	38970.43	3.4680	3.4679	-1.5617	6.52	0.55	-0.750			
0.6135	39266.01	3.4650	3.4648	-1.5436	6.53	0.56	-0.750			
0.6182	39566.79	3.4620	3.4619	-1.5194	6.54	0.57	-0.750			
0.6228	39860.39	3.4590	3.4591	-1.5006	6.54	0.57	-0.750			
0.6272	40142.98	3.4560	3.4563	-1.4824	6.55	0.58	-0.750			
0.6317	40427.12	3.4530	3.4528	-1.4560	6.56	0.59	-0.750			
0.6360	40704.76	3.4500	3.4498	-1.4358	6.58	0.61	-0.750			
0.6403	40976.11	3.4470	3.4475	-1.4172	6.59	0.62	-0.750			
0.6446	41256.14	3.4440	3.4439	-1.4066	6.60	0.63	-0.750			
0.6488	41524.39	3.4410	3.4409	-1.3725	6.60	0.63	-0.750			
0.6528	41779.01	3.4380	3.4384	-1.3452	6.61	0.64	-0.750			
0.6568	42038.08	3.4350	3.4349	-1.3276	6.63	0.66	-0.750			
0.6608	42290.29	3.4320	3.4318	-1.2902	6.65	0.68	-0.750			
0.6645	42528.47	3.4290	3.4293	-1.2763	6.67	0.70	-0.750			
0.6684	42776.77	3.4260	3.4260	-1.2577	6.68	0.71	-0.750			
0.6721	43015.24	3.4230	3.4228	-1.2244	6.69	0.72	-0.750			
0.6757	43247.27	3.4200	3.4199	-1.1909	6.70	0.73	-0.750			
0.6792	43471.56	3.4170	3.4169	-1.1651	6.72	0.75	-0.750			
0.6828	43697.92	3.4140	3.4140	-1.1443	6.73	0.76	-0.750			
0.6862	43915.66	3.4110	3.4109	-1.1132	6.74	0.77	-0.750			
0.6894	44123.83	3.4080	3.4081	-1.0857	6.75	0.78	-0.750			
0.6926	44328.62	3.4050	3.4049	-1.0590	6.76	0.79	-0.750			
0.6958	44529.23	3.4020	3.4020	-1.0312	6.78	0.81	-0.750			
0.6988	44724.21	3.3990	3.3989	-1.0005	6.79	0.82	-0.750			
0.7017	44911.55	3.3960	3.3960	-0.9690	6.81	0.84	-0.750			
0.7046	45096.84	3.3930	3.3930	-0.9478	6.82	0.85	-0.750			
0.7074	45276.64	3.3900	3.3900	-0.9180	6.83	0.86	-0.750			
0.7101	45448.82	3.3870	3.3869	-0.8894	6.85	0.88	-0.750			
0.7127	45615.24	3.3840	3.3839	-0.8631	6.86	0.89	-0.750			
0.7153	45779.65	3.3810	3.3812	-0.8426	6.87	0.90	-0.750			
0.7178	45938.97	3.3780	3.3779	-0.8229	6.88	0.91	-0.750			
0.7203	46096.33	3.3750	3.3750	-0.8014	6.89	0.92	-0.750			
0.7226	46249.18	3.3720	3.3719	-0.7760	6.91	0.94	-0.750			
0.7249	46396.52	3.3690	3.3690	-0.7569	6.92	0.95	-0.750			
0.7272	46539.25	3.3660	3.3662	-0.7289	6.93	0.96	-0.750			
0.7293	46676.63	3.3630	3.3628	-0.6996	6.94	0.97	-0.750			
0.7314	46807.57	3.3600	3.3601	-0.6603	6.95	0.98	-0.750			
