Ah_balance (normalized)	Ah_balance (mAh)	Voltage - fit (V)	Voltage -  interpolate (V)	dQ/dV (1/V)	Temperature (°C)	Temperature - diff (°C)	Current (C)	R_DC 0ms (mOhm)	R_DC 50ms (mOhm)	R_DC 50 ms PEC (mOhm)
0.1770	11328.93	4.0830	4.0831	0.8191	7.54	1.55	0.750			
0.1794	11483.90	4.0800	4.0800	0.7979	7.53	1.54	0.750			
0.1818	11634.65	4.0770	4.0771	0.7798	7.53	1.54	0.750			
0.1842	11786.20	4.0740	4.0739	0.7563	7.52	1.53	0.750			
0.1864	11930.97	4.0710	4.0710	0.7159	7.52	1.53	0.750			
0.1885	12064.39	4.0680	4.0679	0.6885	7.51	1.52	0.750			
0.1905	12189.48	4.0650	4.0656	0.6711	7.51	1.52	0.750			
0.1923	12309.13	4.0620	4.0615	0.6828	7.50	1.51	0.750			
0.1943	12436.14	4.0590	4.0588	0.6984	7.49	1.50	0.750			
0.1964	12568.17	4.0560	4.0560	0.7243	7.49	1.50	0.750			
0.1987	12716.31	4.0530	4.0531	0.7665	7.48	1.49	0.750			
0.2011	12870.73	4.0500	4.0497	0.7900	7.47	1.48	0.750			
0.2035	13024.09	4.0470	4.0471	0.7907	7.47	1.48	0.750			
0.2059	13179.20	4.0440	4.0439	0.7842	7.46	1.47	0.750			
0.2082	13327.33	4.0410	4.0413	0.7927	7.46	1.47	0.750			
0.2106	13480.25	4.0380	4.0380	0.7999	7.46	1.47	0.750			
0.2130	13630.10	4.0350	4.0349	0.8059	7.45	1.46	0.750			
0.2154	13785.56	4.0320	4.0320	0.8178	7.45	1.46	0.750			
0.2180	13949.37	4.0290	4.0290	0.8118	7.44	1.45	0.750			
0.2204	14105.95	4.0260	4.0261	0.8122	7.43	1.44	0.750			
0.2228	14259.30	4.0230	4.0232	0.8242	7.42	1.43	0.750			
0.2252	14413.63	4.0200	4.0201	0.8227	7.41	1.42	0.750			
0.2277	14571.08	4.0170	4.0169	0.8223	7.41	1.42	0.750			
0.2302	14729.99	4.0140	4.0140	0.8245	7.40	1.41	0.750			
0.2327	14892.31	4.0110	4.0114	0.8319	7.40	1.41	0.750			
0.2352	15054.09	4.0080	4.0080	0.8393	7.40	1.41	0.750			
0.2377	15212.94	4.0050	4.0050	0.8361	7.39	1.40	0.750			
0.2402	15373.08	4.0020	4.0021	0.8321	7.39	1.40	0.750			
0.2427	15534.89	3.9990	3.9989	0.8297	7.38	1.39	0.750			
0.2452	15694.50	3.9960	3.9961	0.8375	7.37	1.38	0.750			
0.2477	15853.38	3.9930	3.9931	0.8465	7.36	1.37	0.750			
0.2502	16014.73	3.9900	3.9900	0.8554	7.35	1.36	0.750			
0.2528	16179.96	3.9870	3.9870	0.8543	7.35	1.36	0.750			
0.2554	16346.62	3.9840	3.9840	0.8561	7.34	1.35	0.750			
0.2580	16513.26	3.9810	3.9811	0.8662	7.33	1.34	0.750			
0.2606	16680.91	3.9780	3.9780	0.8690	7.33	1.34	0.750			
0.2632	16843.27	3.9750	3.9748	0.8685	7.32	1.33	0.750			
0.2658	17010.43	3.9720	3.9721	0.8713	7.32	1.33	0.750			
0.2684	17177.13	3.9690	3.9690	0.8762	7.31	1.32	0.750			
0.2711	17348.42	3.9660	3.9660	0.8857	7.30	1.31	0.750			
0.2737	17519.69	3.9630	3.9631	0.8929	7.30	1.31	0.750			
0.2764	17689.24	3.9600	3.9597	0.8929	7.29	1.30	0.750			
0.2791	17864.05	3.9570	3.9571	0.8900	7.28	1.29	0.750			
0.2818	18033.66	3.9540	3.9540	0.8947	7.28	1.29	0.750			
0.2845	18205.67	3.9510	3.9511	0.9061	7.27	1.28	0.750			
0.2872	18379.59	3.9480	3.9481	0.9092	7.26	1.27	0.750			
0.2899	18553.46	3.9450	3.9449	0.9123	7.26	1.27	0.750			
0.2926	18728.69	3.9420	3.9420	0.9160	7.25	1.26	0.750			
0.2954	18904.59	3.9390	3.9391	0.9279	7.24	1.25	0.750			
0.2982	19084.28	3.9360	3.9360	0.9388	7.23	1.24	0.750			
0.3010	19264.71	3.9330	3.9327	0.9416	7.22	1.23	0.750			
0.3039	19447.95	3.9300	3.9301	0.9403	7.21	1.22	0.750			
0.3067	19629.39	3.9270	3.9271	0.9560	7.21	1.22	0.750			
0.3096	19813.65	3.9240	3.9241	0.9695	7.20	1.21	0.750			
0.3124	19996.24	3.9210	3.9211	0.9760	7.19	1.20	0.750			
0.3154	20187.89	3.9180	3.9180	0.9883	7.19	1.20	0.750			
0.3185	20381.44	3.9150	3.9151	0.9852	7.18	1.19	0.750			
0.3214	20570.46	3.9120	3.9120	0.9910	7.17	1.18	0.750			
0.3244	20762.47	3.9090	3.9092	0.9971	7.16	1.17	0.750			
0.3274	20950.43	3.9060	3.9062	0.9877	7.15	1.16	0.750			
0.3303	21138.70	3.9030	3.9030	0.9987	7.14	1.15	0.750			
0.3333	21329.63	3.9000	3.9001	1.0092	7.14	1.15	0.750			
0.3364	21527.52	3.8970	3.8971	1.0381	7.13	1.14	0.750			
0.3395	21730.18	3.8940	3.8938	1.0449	7.13	1.14	0.750			
0.3427	21931.60	3.8910	3.8910	1.0601	7.12	1.13	0.750			
0.3459	22136.32	3.8880	3.8880	1.0794	7.11	1.12	0.750			
0.3492	22346.16	3.8850	3.8852	1.0978	7.10	1.11	0.750			
0.3525	22560.30	3.8820	3.8819	1.1004	7.09	1.10	0.750			
0.3558	22772.63	3.8790	3.8790	1.1172	7.07	1.08	0.750			
0.3592	22987.38	3.8760	3.8762	1.1243	7.06	1.07	0.750			
0.3626	23205.87	3.8730	3.8729	1.1433	7.05	1.06	0.750			
0.3660	23425.91	3.8700	3.8700	1.1616	7.03	1.04	0.750			
0.3695	23646.91	3.8670	3.8671	1.1801	7.02	1.03	0.750			
0.3731	23878.26	3.8640	3.8640	1.1944	7.01	1.02	0.750			
0.3768	24113.91	3.8610	3.8609	1.2026	7.00	1.01	0.750			
0.3804	24344.85	3.8580	3.8581	1.2210	6.98	0.99	0.750			
0.3841	24580.56	3.8550	3.8549	1.2330	6.97	0.98	0.750			
0.3878	24820.70	3.8520	3.8518	1.2255	6.95	0.96	0.750			
0.3914	25050.47	3.8490	3.8491	1.2513	6.94	0.95	0.750			
0.3951	25284.72	3.8460	3.8463	1.2747	6.93	0.94	0.750			
0.3990	25533.33	3.8430	3.8431	1.3162	6.91	0.92	0.750			
0.4029	25785.70	3.8400	3.8400	1.3638	6.89	0.90	0.750			
0.4070	26049.83	3.8370	3.8374	1.3804	6.88	0.89	0.750	0.361	0.872	
0.4113	26323.09	3.8340	3.8344	1.4246	6.86	0.87	0.750			
0.4157	26601.68	3.8310	3.8313	1.4397	6.84	0.85	0.750			
0.4200	26880.55	3.8280	3.8277	1.4629	6.83	0.84	0.750			
0.4244	27160.30	3.8250	3.8253	1.4539	6.82	0.83	0.750			
0.4288	27443.36	3.8220	3.8222	1.4880	6.80	0.81	0.750			
0.4333	27734.18	3.8190	3.8192	1.5203	6.79	0.80	0.750			
0.4379	28023.79	3.8160	3.8159	1.5102	6.77	0.78	0.750			
0.4425	28316.86	3.8130	3.8130	1.5574	6.75	0.76	0.750			
0.4470	28606.04	3.8100	3.8098	1.6033	6.73	0.74	0.750			
0.4518	28917.64	3.8070	3.8067	1.6460	6.71	0.72	0.750			
0.4569	29241.56	3.8040	3.8042	1.6796	6.69	0.70	0.750			
0.4621	29572.44	3.8010	3.8012	1.7258	6.68	0.69	0.750			
0.4673	29910.33	3.7980	3.7983	1.7373	6.66	0.67	0.750			
0.4726	30245.09	3.7950	3.7950	1.7578	6.64	0.65	0.750			
0.4779	30583.28	3.7920	3.7922	1.8021	6.62	0.63	0.750			
0.4832	30922.75	3.7890	3.7890	1.8014	6.60	0.61	0.750			
0.4888	31281.08	3.7860	3.7857	1.8136	6.57	0.58	0.750			
0.4943	31632.68	3.7830	3.7830	1.8664	6.55	0.56	0.750			
0.4998	31987.57	3.7800	3.7800	1.8441	6.54	0.55	0.750			
0.5054	32342.52	3.7770	3.7767	1.8791	6.51	0.52	0.750			
0.5110	32703.71	3.7740	3.7743	1.8734	6.48	0.49	0.750			
0.5166	33060.16	3.7710	3.7711	1.9257	6.46	0.47	0.750			
0.5224	33430.58	3.7680	3.7680	1.8992	6.44	0.45	0.750			
0.5281	33796.68	3.7650	3.7650	1.8913	6.42	0.43	0.750			
0.5338	34163.40	3.7620	3.7622	1.9117	6.39	0.40	0.750			
0.5396	34536.19	3.7590	3.7587	1.9428	6.37	0.38	0.750			
0.5455	34910.92	3.7560	3.7564	1.9780	6.34	0.35	0.750			
0.5517	35308.50	3.7530	3.7531	2.0201	6.32	0.33	0.750			
0.5576	35687.98	3.7500	3.7499	2.0276	6.30	0.31	0.750			
0.5637	36075.17	3.7470	3.7470	2.1139	6.27	0.28	0.750			
0.5702	36490.85	3.7440	3.7439	2.1786	6.25	0.26	0.750			
0.5767	36910.65	3.7410	3.7410	2.1905	6.23	0.24	0.750			
0.5835	37344.10	3.7380	3.7377	2.2916	6.21	0.22	0.750			
0.5904	37787.06	3.7350	3.7349	2.2675	6.18	0.19	0.750			
0.5974	38236.26	3.7320	3.7322	2.3753	6.16	0.17	0.750			
0.6045	38690.79	3.7290	3.7286	2.4142	6.13	0.14	0.750			
0.6117	39148.96	3.7260	3.7258	2.4284	6.10	0.11	0.750			
0.6192	39631.32	3.7230	3.7231	2.4356	6.07	0.08	0.750			
0.6267	40109.83	3.7200	3.7199	2.3200	6.05	0.06	0.750			
0.6333	40528.61	3.7170	3.7166	2.1788	6.04	0.05	0.750			
0.6395	40926.87	3.7140	3.7137	2.0206	6.03	0.04	0.750			
0.6453	41301.28	3.7110	3.7109	1.8537	6.02	0.03	0.750			
0.6508	41651.70	3.7080	3.7079	1.6802	6.01	0.02	0.750			
0.6555	41955.09	3.7050	3.7052	1.4834	6.00	0.01	0.750			
0.6598	42224.69	3.7020	3.7021	1.3492	6.00	0.01	0.750			
0.6635	42466.19	3.6990	3.6987	1.2177	5.99	0.00	0.750			
0.6669	42681.49	3.6960	3.6961	1.1054	5.99	-0.00	0.750			
0.6700	42879.84	3.6930	3.6931	1.0427	5.98	-0.01	0.750			
0.6730	43069.65	3.6900	3.6900	0.9901	5.98	-0.01	0.750			
0.6758	43253.38	3.6870	3.6868	0.9515	5.97	-0.02	0.750			
0.6786	43431.86	3.6840	3.6840	0.9251	5.97	-0.02	0.750			
0.6814	43608.86	3.6810	3.6811	0.8869	5.97	-0.02	0.750			
0.6840	43775.71	3.6780	3.6780	0.8669	5.97	-0.02	0.750			
0.6866	43939.28	3.6750	3.6752	0.8326	5.97	-0.02	0.750			
0.6890	44098.48	3.6720	3.6713	0.7967	5.97	-0.02	0.750			
0.6914	44248.24	3.6690	3.6691	0.7630	5.97	-0.02	0.750			
0.6936	44391.51	3.6660	3.6664	0.7273	5.97	-0.02	0.750			
0.6958	44528.05	3.6630	3.6629	0.6984	5.97	-0.02	0.750			
0.6978	44656.90	3.6600	3.6599	0.6571	5.97	-0.02	0.750			
0.6997	44779.48	3.6570	3.6570	0.6276	5.97	-0.02	0.750			
0.7015	44898.29	3.6540	3.6539	0.6054	5.97	-0.02	0.750			
0.7033	45013.33	3.6510	3.6510	0.5760	5.97	-0.02	0.750			
0.7050	45120.16	3.6480	3.6480	0.5454	5.98	-0.01	0.750			
0.7066	45222.12	3.6450	3.6450	0.5143	5.98	-0.01	0.750			
0.7081	45316.93	3.6420	3.6420	0.4844	5.98	-0.01	0.750			
0.7095	45408.72	3.6390	3.6389	0.4512	5.98	-0.01	0.750			
0.7108	45492.65	3.6360	3.6360	0.4169	5.99	-0.00	0.750			
0.7120	45569.69	3.6330	3.6330	0.3836	5.99	-0.00	0.750			
0.7131	45639.96	3.6300	3.6302	0.3510	5.99	-0.00	0.750			
0.7141	45703.20	3.6270	3.6266	0.3117	5.99	0.00	0.750			
0.7150	45762.28	3.6240	3.6238	0.2746	5.99	0.00	0.750			
0.7158	45811.23	3.6210	3.6210	0.2350	5.99	0.00	0.750			
0.7165	45854.99	3.6180	3.6181	0.2026	5.99	0.00	0.750			
0.7170	45889.77	3.6150	3.6148	0.1578	5.99	0.00	0.750			
0.7174	45916.18	3.6120	3.6120	0.1126	6.00	0.01	0.750			
0.7177	45932.82	3.6090	3.6084	0.0666	6.00	0.01	0.750			
0.7178	45936.53	3.6060	3.6075	0.0328	6.00	0.01	0.750			
0.7178	45939.56	3.6030	3.6061	-0.0012	6.00	0.01	0.750			
