Ah_balance (normalized)	Ah_balance (mAh)	Voltage - fit (V)	Voltage -  interpolate (V)	dQ/dV (1/V)	Temperature (°C)	Temperature - diff (°C)	Current (C)	R_DC 0ms (mOhm)	R_DC 50ms (mOhm)	R_DC 50 ms PEC (mOhm)
0.1787	11438.31	4.0810	4.0810	0.7751	7.81	1.84	0.750			
0.1810	11586.91	4.0780	4.0781	0.7727	7.80	1.83	0.750			
0.1834	11735.18	4.0750	4.0749	0.7700	7.80	1.83	0.750			
0.1856	11881.50	4.0720	4.0720	0.7721	7.79	1.82	0.750			
0.1880	12029.14	4.0690	4.0690	0.7734	7.78	1.81	0.750			
0.1903	12178.13	4.0660	4.0659	0.7797	7.77	1.80	0.750			
0.1926	12327.96	4.0630	4.0631	0.7829	7.77	1.80	0.750			
0.1950	12479.76	4.0600	4.0600	0.7845	7.76	1.79	0.750			
0.1974	12630.90	4.0570	4.0570	0.7876	7.75	1.78	0.750			
0.1997	12783.49	4.0540	4.0540	0.7871	7.74	1.77	0.750			
0.2021	12934.50	4.0510	4.0510	0.7795	7.74	1.77	0.750			
0.2044	13083.83	4.0480	4.0480	0.7783	7.73	1.76	0.750			
0.2067	13231.99	4.0450	4.0451	0.7752	7.72	1.75	0.750			
0.2091	13379.27	4.0420	4.0420	0.7768	7.71	1.74	0.750			
0.2114	13526.75	4.0390	4.0390	0.7861	7.71	1.74	0.750			
0.2137	13675.91	4.0360	4.0360	0.7942	7.70	1.73	0.750			
0.2161	13830.38	4.0330	4.0329	0.8134	7.69	1.72	0.750			
0.2186	13990.93	4.0300	4.0300	0.8285	7.68	1.71	0.750			
0.2211	14153.46	4.0270	4.0270	0.8231	7.68	1.71	0.750			
0.2236	14312.33	4.0240	4.0241	0.8307	7.67	1.70	0.750			
0.2261	14471.59	4.0210	4.0211	0.8267	7.66	1.69	0.750			
0.2286	14628.63	4.0180	4.0177	0.8279	7.65	1.68	0.750			
0.2310	14785.84	4.0150	4.0150	0.8244	7.64	1.67	0.750			
0.2335	14943.71	4.0120	4.0122	0.8261	7.64	1.67	0.750			
0.2360	15106.50	4.0090	4.0091	0.8385	7.63	1.66	0.750			
0.2386	15267.84	4.0060	4.0060	0.8352	7.62	1.65	0.750			
0.2410	15426.96	4.0030	4.0029	0.8377	7.61	1.64	0.750			
0.2436	15587.63	4.0000	4.0001	0.8449	7.60	1.63	0.750			
0.2461	15749.52	3.9970	3.9970	0.8465	7.60	1.63	0.750			
0.2487	15913.94	3.9940	3.9939	0.8543	7.59	1.62	0.750			
0.2512	16077.12	3.9910	3.9911	0.8575	7.58	1.61	0.750			
0.2538	16242.80	3.9880	3.9878	0.8662	7.57	1.60	0.750			
0.2564	16411.94	3.9850	3.9850	0.8687	7.56	1.59	0.750			
0.2590	16578.78	3.9820	3.9820	0.8698	7.55	1.58	0.750			
0.2616	16745.15	3.9790	3.9791	0.8747	7.55	1.58	0.750			
0.2643	16913.42	3.9760	3.9761	0.8747	7.54	1.57	0.750			
0.2669	17080.43	3.9730	3.9731	0.8824	7.53	1.56	0.750			
0.2696	17252.12	3.9700	3.9700	0.8805	7.52	1.55	0.750			
0.2722	17417.91	3.9670	3.9672	0.8954	7.51	1.54	0.750			
0.2749	17592.70	3.9640	3.9640	0.9064	7.50	1.53	0.750			
0.2776	17768.40	3.9610	3.9611	0.9138	7.49	1.52	0.750			
0.2804	17945.67	3.9580	3.9579	0.9175	7.48	1.51	0.750			
0.2832	18124.45	3.9550	3.9552	0.9187	7.47	1.50	0.750			
0.2859	18300.29	3.9520	3.9522	0.9170	7.46	1.49	0.750			
0.2887	18478.07	3.9490	3.9489	0.9211	7.44	1.47	0.750			
0.2914	18649.82	3.9460	3.9458	0.9184	7.43	1.46	0.750			
0.2942	18825.60	3.9430	3.9431	0.9242	7.42	1.45	0.750			
0.2969	19001.99	3.9400	3.9400	0.9319	7.41	1.44	0.750			
0.2998	19184.90	3.9370	3.9370	0.9432	7.40	1.43	0.750			
0.3026	19365.72	3.9340	3.9340	0.9481	7.39	1.42	0.750			
0.3054	19548.28	3.9310	3.9310	0.9600	7.38	1.41	0.750			
0.3083	19733.00	3.9280	3.9280	0.9579	7.37	1.40	0.750			
0.3112	19916.35	3.9250	3.9250	0.9670	7.36	1.39	0.750			
0.3141	20102.58	3.9220	3.9222	0.9773	7.34	1.37	0.750			
0.3170	20290.13	3.9190	3.9190	0.9904	7.33	1.36	0.750			
0.3200	20481.58	3.9160	3.9162	0.9985	7.32	1.35	0.750			
0.3230	20673.92	3.9130	3.9130	1.0107	7.31	1.34	0.750			
0.3261	20870.48	3.9100	3.9101	1.0230	7.30	1.33	0.750			
0.3292	21067.34	3.9070	3.9070	1.0208	7.29	1.32	0.750			
0.3323	21266.61	3.9040	3.9040	1.0265	7.27	1.30	0.750			
0.3354	21462.56	3.9010	3.9012	1.0373	7.26	1.29	0.750			
0.3384	21660.57	3.8980	3.8980	1.0464	7.24	1.27	0.750			
0.3416	21864.81	3.8950	3.8948	1.0508	7.23	1.26	0.750			
0.3447	22063.64	3.8920	3.8920	1.0684	7.21	1.24	0.750			
0.3480	22269.61	3.8890	3.8891	1.0859	7.20	1.23	0.750			
0.3513	22482.80	3.8860	3.8860	1.1025	7.18	1.21	0.750			
0.3546	22696.48	3.8830	3.8828	1.1094	7.17	1.20	0.750			
0.3580	22909.39	3.8800	3.8802	1.1211	7.15	1.18	0.750			
0.3613	23125.63	3.8770	3.8770	1.1366	7.13	1.16	0.750			
0.3648	23345.43	3.8740	3.8740	1.1546	7.12	1.15	0.750			
0.3682	23566.53	3.8710	3.8710	1.1553	7.10	1.13	0.750			
0.3717	23789.50	3.8680	3.8680	1.1771	7.09	1.12	0.750			
0.3753	24016.43	3.8650	3.8651	1.2044	7.07	1.10	0.750			
0.3790	24253.10	3.8620	3.8615	1.2106	7.05	1.08	0.750			
0.3826	24484.42	3.8590	3.8590	1.2272	7.03	1.06	0.750			
0.3863	24722.79	3.8560	3.8562	1.2437	7.02	1.05	0.750			
0.3901	24964.70	3.8530	3.8530	1.2561	7.00	1.03	0.750			
0.3939	25209.43	3.8500	3.8499	1.2845	6.98	1.01	0.750			
0.3976	25447.10	3.8470	3.8472	1.3017	6.96	0.99	0.750			
0.4016	25702.71	3.8440	3.8439	1.3288	6.94	0.97	0.750			
0.4057	25963.96	3.8410	3.8411	1.3856	6.92	0.95	0.750			
0.4098	26230.04	3.8380	3.8378	1.4090	6.91	0.94	0.750	0.391	0.904	
0.4142	26511.17	3.8350	3.8351	1.4267	6.89	0.92	0.750			
0.4186	26790.03	3.8320	3.8323	1.4439	6.87	0.90	0.750			
0.4229	27067.65	3.8290	3.8291	1.4576	6.84	0.87	0.750			
0.4272	27342.17	3.8260	3.8262	1.4810	6.82	0.85	0.750			
0.4317	27627.84	3.8230	3.8231	1.4855	6.80	0.83	0.750			
0.4362	27916.32	3.8200	3.8201	1.5424	6.78	0.81	0.750			
0.4410	28222.55	3.8170	3.8172	1.5656	6.75	0.78	0.750			
0.4458	28530.94	3.8140	3.8142	1.5871	6.73	0.76	0.750			
0.4505	28834.24	3.8110	3.8112	1.6193	6.71	0.74	0.750			
0.4554	29144.91	3.8080	3.8078	1.6607	6.68	0.71	0.750			
0.4604	29464.24	3.8050	3.8047	1.7041	6.66	0.69	0.750			
0.4656	29797.29	3.8020	3.8020	1.7375	6.63	0.66	0.750			
0.4710	30145.41	3.7990	3.7990	1.7675	6.60	0.63	0.750			
0.4764	30489.01	3.7960	3.7962	1.8232	6.57	0.60	0.750			
0.4819	30844.49	3.7930	3.7930	1.8289	6.54	0.57	0.750			
0.4873	31189.44	3.7900	3.7901	1.8766	6.51	0.54	0.750			
0.4930	31554.05	3.7870	3.7869	1.8718	6.48	0.51	0.750			
0.4988	31922.96	3.7840	3.7837	1.8948	6.45	0.48	0.750			
0.5045	32286.60	3.7810	3.7811	1.8862	6.43	0.46	0.750			
0.5101	32645.11	3.7780	3.7783	1.9176	6.40	0.43	0.750			
0.5159	33017.65	3.7750	3.7749	1.9315	6.37	0.40	0.750			
0.5219	33401.92	3.7720	3.7719	1.9899	6.34	0.37	0.750			
0.5280	33794.22	3.7690	3.7690	2.0165	6.31	0.34	0.750			
0.5341	34180.50	3.7660	3.7660	2.0082	6.29	0.32	0.750			
0.5400	34557.34	3.7630	3.7630	1.9972	6.27	0.30	0.750			
0.5460	34944.01	3.7600	3.7600	2.0568	6.25	0.28	0.750			
0.5522	35342.20	3.7570	3.7569	2.0577	6.22	0.25	0.750			
0.5585	35743.81	3.7540	3.7543	2.1161	6.20	0.23	0.750			
0.5649	36153.09	3.7510	3.7508	2.0997	6.18	0.21	0.750			
0.5712	36556.98	3.7480	3.7481	2.1223	6.15	0.18	0.750			
0.5778	36978.04	3.7450	3.7450	2.2073	6.13	0.16	0.750			
0.5842	37390.62	3.7420	3.7420	2.2752	6.11	0.14	0.750			
0.5913	37845.18	3.7390	3.7391	2.3276	6.09	0.12	0.750			
0.5986	38313.53	3.7360	3.7360	2.4057	6.07	0.10	0.750			
0.6058	38772.89	3.7330	3.7329	2.4133	6.05	0.08	0.750			
0.6132	39242.17	3.7300	3.7299	2.4566	6.03	0.06	0.750			
0.6207	39727.76	3.7270	3.7270	2.4469	6.01	0.04	0.750			
0.6281	40200.66	3.7240	3.7240	2.4143	5.99	0.02	0.750			
0.6351	40646.90	3.7210	3.7209	2.2903	5.98	0.01	0.750			
0.6419	41083.47	3.7180	3.7180	2.1615	5.97	-0.00	0.750			
0.6483	41489.32	3.7150	3.7152	2.0421	5.96	-0.01	0.750			
0.6542	41869.76	3.7120	3.7118	1.8635	5.95	-0.02	0.750			
0.6596	42213.93	3.7090	3.7091	1.6862	5.95	-0.02	0.750			
0.6642	42511.84	3.7060	3.7064	1.5022	5.94	-0.03	0.750			
0.6684	42778.85	3.7030	3.7031	1.3405	5.94	-0.03	0.750			
0.6721	43013.07	3.7000	3.6999	1.1980	5.94	-0.03	0.750			
0.6752	43214.80	3.6970	3.6970	1.0941	5.93	-0.04	0.750			
0.6783	43412.08	3.6940	3.6938	1.0263	5.93	-0.04	0.750			
0.6812	43598.13	3.6910	3.6911	0.9706	5.93	-0.04	0.750			
0.6841	43779.35	3.6880	3.6881	0.9389	5.93	-0.04	0.750			
0.6868	43956.50	3.6850	3.6850	0.9117	5.93	-0.04	0.750			
0.6895	44129.19	3.6820	3.6819	0.8829	5.93	-0.04	0.750			
0.6921	44293.87	3.6790	3.6791	0.8514	5.93	-0.04	0.750			
0.6946	44455.49	3.6760	3.6761	0.8251	5.93	-0.04	0.750			
0.6971	44613.06	3.6730	3.6730	0.7946	5.93	-0.04	0.750			
0.6994	44762.52	3.6700	3.6699	0.7615	5.93	-0.04	0.750			
0.7016	44903.76	3.6670	3.6671	0.7269	5.93	-0.04	0.750			
0.7038	45041.02	3.6640	3.6638	0.6965	5.93	-0.04	0.750			
0.7058	45172.62	3.6610	3.6610	0.6623	5.94	-0.03	0.750			
0.7078	45296.52	3.6580	3.6580	0.6278	5.94	-0.03	0.750			
0.7096	45413.39	3.6550	3.6551	0.5960	5.95	-0.02	0.750			
0.7113	45525.19	3.6520	3.6519	0.5630	5.95	-0.02	0.750			
0.7129	45628.32	3.6490	3.6490	0.5299	5.96	-0.01	0.750			
0.7145	45726.71	3.6460	3.6460	0.5001	5.96	-0.01	0.750			
0.7159	45820.42	3.6430	3.6430	0.4695	5.97	-0.00	0.750			
0.7173	45908.68	3.6400	3.6400	0.4354	5.97	0.00	0.750			
0.7186	45989.34	3.6370	3.6370	0.4009	5.98	0.01	0.750			
0.7197	46062.72	3.6340	3.6341	0.3666	5.98	0.01	0.750			
0.7208	46129.78	3.6310	3.6309	0.3314	5.98	0.01	0.750			
0.7217	46189.54	3.6280	3.6279	0.2957	5.99	0.02	0.750			
0.7226	46244.16	3.6250	3.6249	0.2564	5.99	0.02	0.750			
0.7233	46290.24	3.6220	3.6221	0.2193	5.99	0.02	0.750			
0.7239	46331.14	3.6190	3.6189	0.1837	5.99	0.02	0.750			
0.7244	46362.13	3.6160	3.6162	0.1400	6.00	0.03	0.750			
0.7248	46384.80	3.6130	3.6135	0.0963	6.00	0.03	0.750			
0.7250	46400.76	3.6100	3.6104	0.0483	6.00	0.03	0.750			
0.7251	46405.33	3.6070	3.6088	-0.0006	6.00	0.03	0.750			
