Ah_balance (normalized)	Ah_balance (mAh)	Voltage - fit (V)	Voltage -  interpolate (V)	dQ/dV (1/V)	Temperature (°C)	Temperature - diff (°C)	Current (C)	R_DC 0ms (mOhm)	R_DC 50ms (mOhm)	R_DC 50 ms PEC (mOhm)
0.0961	6152.03	4.0110	4.0107	-0.0545	6.00	0.01	-0.750			
0.0963	6166.18	4.0080	4.0076	-0.0874	6.00	0.01	-0.750			
0.0966	6185.34	4.0050	4.0049	-0.1145	6.00	0.01	-0.750			
0.0970	6210.47	4.0020	4.0019	-0.1417	6.00	0.01	-0.750			
0.0975	6240.22	3.9990	3.9991	-0.1682	6.00	0.01	-0.750			
0.0981	6275.35	3.9960	3.9960	-0.1909	6.00	0.01	-0.750			
0.0987	6314.94	3.9930	3.9932	-0.2170	5.99	0.00	-0.750			
0.0994	6359.30	3.9900	3.9900	-0.2393	5.99	0.00	-0.750			
0.1001	6407.40	3.9870	3.9870	-0.2612	5.99	-0.00	-0.750			
0.1009	6459.71	3.9840	3.9840	-0.2837	5.99	-0.00	-0.750			
0.1018	6516.29	3.9810	3.9810	-0.3040	5.98	-0.01	-0.750			
0.1028	6576.85	3.9780	3.9780	-0.3267	5.98	-0.01	-0.750			
0.1038	6641.83	3.9750	3.9750	-0.3484	5.98	-0.01	-0.750			
0.1048	6709.69	3.9720	3.9721	-0.3710	5.97	-0.02	-0.750			
0.1060	6783.64	3.9690	3.9690	-0.3955	5.97	-0.02	-0.750			
0.1072	6860.85	3.9660	3.9660	-0.4212	5.97	-0.02	-0.750			
0.1085	6944.90	3.9630	3.9630	-0.4443	5.96	-0.03	-0.750			
0.1099	7033.49	3.9600	3.9600	-0.4676	5.96	-0.03	-0.750			
0.1113	7125.52	3.9570	3.9569	-0.4872	5.95	-0.04	-0.750			
0.1128	7221.41	3.9540	3.9541	-0.5095	5.95	-0.04	-0.750			
0.1144	7321.18	3.9510	3.9510	-0.5278	5.95	-0.04	-0.750			
0.1160	7423.81	3.9480	3.9480	-0.5486	5.95	-0.04	-0.750			
0.1177	7530.41	3.9450	3.9450	-0.5630	5.95	-0.04	-0.750			
0.1194	7642.38	3.9420	3.9421	-0.5882	5.95	-0.04	-0.750			
0.1212	7757.06	3.9390	3.9389	-0.6089	5.95	-0.04	-0.750			
0.1231	7875.87	3.9360	3.9359	-0.6273	5.95	-0.04	-0.750			
0.1250	7998.58	3.9330	3.9332	-0.6422	5.95	-0.04	-0.750			
0.1269	8124.79	3.9300	3.9300	-0.6559	5.95	-0.04	-0.750			
0.1290	8253.18	3.9270	3.9270	-0.6624	5.95	-0.04	-0.750			
0.1310	8381.90	3.9240	3.9240	-0.6715	5.95	-0.04	-0.750			
0.1330	8511.72	3.9210	3.9210	-0.6771	5.94	-0.05	-0.750			
0.1350	8640.70	3.9180	3.9179	-0.6787	5.94	-0.05	-0.750			
0.1371	8771.21	3.9150	3.9151	-0.6824	5.94	-0.05	-0.750			
0.1391	8903.02	3.9120	3.9120	-0.6863	5.94	-0.05	-0.750			
0.1412	9035.63	3.9090	3.9089	-0.6925	5.94	-0.05	-0.750			
0.1433	9168.99	3.9060	3.9060	-0.7046	5.94	-0.05	-0.750			
0.1454	9304.45	3.9030	3.9030	-0.7089	5.94	-0.05	-0.750			
0.1475	9442.73	3.9000	3.8999	-0.7174	5.94	-0.05	-0.750			
0.1497	9581.64	3.8970	3.8974	-0.7231	5.94	-0.05	-0.750			
0.1519	9721.58	3.8940	3.8939	-0.7280	5.94	-0.05	-0.750			
0.1541	9861.04	3.8910	3.8910	-0.7326	5.94	-0.05	-0.750			
0.1563	10001.40	3.8880	3.8880	-0.7312	5.95	-0.04	-0.750			
0.1585	10143.03	3.8850	3.8850	-0.7404	5.95	-0.04	-0.750			
0.1607	10285.30	3.8820	3.8820	-0.7399	5.95	-0.04	-0.750			
0.1629	10427.95	3.8790	3.8790	-0.7413	5.95	-0.04	-0.750			
0.1652	10569.89	3.8760	3.8760	-0.7437	5.95	-0.04	-0.750			
0.1674	10712.71	3.8730	3.8731	-0.7512	5.96	-0.03	-0.750			
0.1697	10857.89	3.8700	3.8699	-0.7528	5.96	-0.03	-0.750			
0.1719	11004.67	3.8670	3.8669	-0.7531	5.97	-0.02	-0.750			
0.1742	11149.21	3.8640	3.8639	-0.7515	5.97	-0.02	-0.750			
0.1765	11293.65	3.8610	3.8609	-0.7520	5.97	-0.02	-0.750			
0.1787	11437.45	3.8580	3.8579	-0.7528	5.98	-0.01	-0.750			
0.1810	11580.92	3.8550	3.8550	-0.7549	5.98	-0.01	-0.750			
0.1832	11725.62	3.8520	3.8520	-0.7546	5.98	-0.01	-0.750			
0.1855	11874.93	3.8490	3.8489	-0.7640	5.99	-0.00	-0.750			
0.1878	12021.99	3.8460	3.8462	-0.7636	5.99	0.00	-0.750			
0.1901	12167.88	3.8430	3.8429	-0.7647	5.99	0.00	-0.750			
0.1924	12313.94	3.8400	3.8400	-0.7679	6.00	0.01	-0.750			
0.1947	12458.96	3.8370	3.8369	-0.7640	6.00	0.01	-0.750			
0.1970	12610.60	3.8340	3.8340	-0.7700	6.01	0.02	-0.750			
0.1994	12758.90	3.8310	3.8310	-0.7704	6.01	0.02	-0.750			
0.2016	12905.27	3.8280	3.8280	-0.7704	6.02	0.03	-0.750			
0.2039	13052.75	3.8250	3.8251	-0.7740	6.02	0.03	-0.750			
0.2063	13202.52	3.8220	3.8218	-0.7707	6.03	0.04	-0.750			
0.2086	13350.93	3.8190	3.8190	-0.7711	6.04	0.05	-0.750			
0.2109	13499.66	3.8160	3.8160	-0.7738	6.05	0.06	-0.750			
0.2132	13647.90	3.8130	3.8132	-0.7736	6.05	0.06	-0.750			
0.2155	13794.32	3.8100	3.8099	-0.7746	6.06	0.07	-0.750			
0.2179	13942.85	3.8070	3.8069	-0.7786	6.06	0.07	-0.750			
0.2202	14095.14	3.8040	3.8040	-0.7710	6.06	0.07	-0.750			
0.2226	14244.13	3.8010	3.8009	-0.7734	6.07	0.08	-0.750			
0.2249	14391.96	3.7980	3.7985	-0.7777	6.07	0.08	-0.750			
0.2272	14540.55	3.7950	3.7950	-0.7799	6.08	0.09	-0.750			
0.2295	14689.46	3.7920	3.7918	-0.7799	6.09	0.10	-0.750			
0.2319	14839.28	3.7890	3.7890	-0.7836	6.09	0.10	-0.750			
0.2342	14991.76	3.7860	3.7861	-0.7857	6.10	0.11	-0.750			
0.2366	15144.51	3.7830	3.7830	-0.7873	6.11	0.12	-0.750			
0.2390	15294.30	3.7800	3.7799	-0.7828	6.11	0.12	-0.750			
0.2413	15443.18	3.7770	3.7770	-0.7846	6.12	0.13	-0.750			
0.2436	15593.34	3.7740	3.7740	-0.7815	6.13	0.14	-0.750			
0.2460	15744.16	3.7710	3.7710	-0.7809	6.13	0.14	-0.750			
0.2484	15894.84	3.7680	3.7680	-0.7831	6.14	0.15	-0.750			
0.2507	16045.63	3.7650	3.7650	-0.7844	6.14	0.15	-0.750			
0.2530	16192.03	3.7620	3.7620	-0.8028	6.15	0.16	-0.750			
0.2555	16348.97	3.7590	3.7590	-0.8124	6.16	0.17	-0.750			
0.2579	16505.90	3.7560	3.7558	-0.8230	6.17	0.18	-0.750			
0.2605	16670.28	3.7530	3.7531	-0.8235	6.17	0.18	-0.750			
0.2630	16831.62	3.7500	3.7501	-0.8267	6.18	0.19	-0.750			
0.2655	16989.68	3.7470	3.7469	-0.8178	6.19	0.20	-0.750			
0.2679	17144.94	3.7440	3.7440	-0.8136	6.19	0.20	-0.750			
0.2703	17297.87	3.7410	3.7408	-0.8036	6.20	0.21	-0.750			
0.2727	17452.65	3.7380	3.7380	-0.8077	6.21	0.22	-0.750			
0.2751	17606.87	3.7350	3.7352	-0.8107	6.21	0.22	-0.750			
0.2776	17764.01	3.7320	3.7320	-0.8177	6.22	0.23	-0.750			
0.2800	17919.91	3.7290	3.7289	-0.8208	6.23	0.24	-0.750			
0.2825	18079.43	3.7260	3.7259	-0.8240	6.23	0.24	-0.750			
0.2850	18240.21	3.7230	3.7230	-0.8297	6.24	0.25	-0.750			
0.2875	18398.99	3.7200	3.7202	-0.8332	6.25	0.26	-0.750			
0.2900	18558.18	3.7170	3.7170	-0.8356	6.26	0.27	-0.750			
0.2925	18718.76	3.7140	3.7139	-0.8417	6.27	0.28	-0.750			
0.2950	18879.02	3.7110	3.7109	-0.8452	6.27	0.28	-0.750			
0.2976	19043.77	3.7080	3.7081	-0.8572	6.28	0.29	-0.750			
0.3001	19208.67	3.7050	3.7051	-0.8614	6.29	0.30	-0.750			
0.3027	19374.35	3.7020	3.7019	-0.8736	6.30	0.31	-0.750			
0.3054	19542.57	3.6990	3.6990	-0.8795	6.30	0.31	-0.750			
0.3080	19710.41	3.6960	3.6959	-0.8894	6.31	0.32	-0.750			
0.3107	19884.05	3.6930	3.6930	-0.9039	6.32	0.33	-0.750			
0.3134	20059.06	3.6900	3.6900	-0.9111	6.32	0.33	-0.750			
0.3162	20235.09	3.6870	3.6869	-0.9229	6.33	0.34	-0.750			
0.3190	20413.15	3.6840	3.6840	-0.9323	6.34	0.35	-0.750			
0.3217	20590.89	3.6810	3.6810	-0.9383	6.34	0.35	-0.750			
0.3246	20773.60	3.6780	3.6781	-0.9509	6.35	0.36	-0.750			
0.3274	20956.03	3.6750	3.6750	-0.9586	6.36	0.37	-0.750			
0.3303	21141.45	3.6720	3.6719	-0.9694	6.36	0.37	-0.750			
0.3333	21328.77	3.6690	3.6690	-0.9816	6.37	0.38	-0.750			
0.3362	21518.12	3.6660	3.6658	-0.9880	6.38	0.39	-0.750			
0.3392	21709.99	3.6630	3.6630	-0.9961	6.38	0.39	-0.750			
0.3422	21901.77	3.6600	3.6600	-1.0079	6.39	0.40	-0.750			
0.3452	22095.88	3.6570	3.6570	-1.0170	6.40	0.41	-0.750			
0.3483	22290.37	3.6540	3.6540	-1.0223	6.41	0.42	-0.750			
0.3514	22488.20	3.6510	3.6511	-1.0416	6.41	0.42	-0.750			
0.3545	22689.76	3.6480	3.6480	-1.0552	6.42	0.43	-0.750			
0.3578	22896.72	3.6450	3.6449	-1.0673	6.42	0.43	-0.750			
0.3610	23101.32	3.6420	3.6420	-1.0803	6.43	0.44	-0.750			
0.3642	23308.38	3.6390	3.6390	-1.0962	6.43	0.44	-0.750			
0.3675	23522.10	3.6360	3.6359	-1.1087	6.44	0.45	-0.750			
0.3709	23736.14	3.6330	3.6329	-1.1192	6.44	0.45	-0.750			
0.3742	23950.04	3.6300	3.6301	-1.1290	6.45	0.46	-0.750			
0.3777	24173.82	3.6270	3.6270	-1.1429	6.45	0.46	-0.750			
0.3811	24392.81	3.6240	3.6240	-1.1539	6.46	0.47	-0.750			
0.3846	24613.42	3.6210	3.6210	-1.1595	6.46	0.47	-0.750			
0.3880	24834.82	3.6180	3.6180	-1.1790	6.46	0.47	-0.750			
0.3916	25064.68	3.6150	3.6150	-1.1973	6.46	0.47	-0.750			
0.3952	25294.94	3.6120	3.6120	-1.2123	6.47	0.48	-0.750			
0.3989	25528.93	3.6090	3.6090	-1.2296	6.47	0.48	-0.750			
0.4028	25781.50	3.6060	3.6058	-1.2287	6.47	0.48	-0.750			
0.4065	26018.74	3.6030	3.6028	-1.1932	6.48	0.49	-0.750			
0.4102	26250.31	3.6000	3.6001	-1.1691	6.49	0.50	-0.750			
0.4135	26464.47	3.5970	3.5978	-1.1736	6.49	0.50	-0.750	0.469	1.079	
0.4169	26683.98	3.5940	3.5933	-1.1710	6.50	0.51	-0.750			
0.4203	26901.23	3.5910	3.5907	-1.1956	6.50	0.51	-0.750			
0.4238	27125.70	3.5880	3.5880	-1.2328	6.51	0.52	-0.750			
0.4277	27375.37	3.5850	3.5850	-1.3005	6.51	0.52	-0.750			
0.4319	27639.97	3.5820	3.5818	-1.3439	6.51	0.52	-0.750			
0.4359	27896.93	3.5790	3.5791	-1.3599	6.51	0.52	-0.750			
0.4401	28163.62	3.5760	3.5760	-1.3863	6.51	0.52	-0.750			
0.4443	28434.32	3.5730	3.5730	-1.3976	6.51	0.52	-0.750			
0.4485	28701.56	3.5700	3.5700	-1.4116	6.51	0.52	-0.750			
0.4527	28972.05	3.5670	3.5669	-1.4104	6.51	0.52	-0.750			
0.4570	29245.80	3.5640	3.5640	-1.4220	6.51	0.52	-0.750			
0.4612	29516.81	3.5610	3.5610	-1.4456	6.51	0.52	-0.750			
0.4655	29791.12	3.5580	3.5581	-1.4698	6.52	0.53	-0.750			
0.4700	30078.85	3.5550	3.5548	-1.4942	6.52	0.53	-0.750			
0.4745	30369.58	3.5520	3.5522	-1.5159	6.53	0.54	-0.750			
0.4791	30661.26	3.5490	3.5490	-1.5433	6.53	0.54	-0.750			
0.4839	30967.07	3.5460	3.5462	-1.5751	6.54	0.55	-0.750			
0.4886	31269.21	3.5430	3.5430	-1.5818	6.54	0.55	-0.750			
0.4934	31574.62	3.5400	3.5398	-1.5808	6.54	0.55	-0.750			
0.4981	31879.72	3.5370	3.5369	-1.5870	6.55	0.56	-0.750			
0.5029	32186.43	3.5340	3.5339	-1.6077	6.56	0.57	-0.750			
0.5077	32492.55	3.5310	3.5308	-1.6148	6.56	0.57	-0.750			
0.5126	32805.48	3.5280	3.5281	-1.6195	6.57	0.58	-0.750			
0.5175	33121.87	3.5250	3.5253	-1.6201	6.57	0.58	-0.750			
0.5224	33436.64	3.5220	3.5221	-1.6290	6.57	0.58	-0.750			
0.5274	33751.35	3.5190	3.5190	-1.6373	6.58	0.59	-0.750			
0.5323	34069.04	3.5160	3.5160	-1.6254	6.59	0.60	-0.750			
0.5371	34375.36	3.5130	3.5132	-1.6395	6.60	0.61	-0.750			
0.5420	34690.99	3.5100	3.5103	-1.6433	6.61	0.62	-0.750			
0.5469	35003.98	3.5070	3.5068	-1.6528	6.62	0.63	-0.750			
0.5519	35323.92	3.5040	3.5039	-1.6375	6.62	0.63	-0.750			
0.5568	35637.00	3.5010	3.5012	-1.6605	6.63	0.64	-0.750			
0.5620	35966.48	3.4980	3.4980	-1.6498	6.64	0.65	-0.750			
0.5668	36276.06	3.4950	3.4948	-1.6301	6.64	0.65	-0.750			
0.5717	36590.06	3.4920	3.4923	-1.6252	6.65	0.66	-0.750			
0.5766	36901.05	3.4890	3.4890	-1.6290	6.66	0.67	-0.750			
0.5814	37212.76	3.4860	3.4859	-1.6272	6.67	0.68	-0.750			
0.5864	37527.34	3.4830	3.4830	-1.6183	6.69	0.70	-0.750			
0.5913	37841.71	3.4800	3.4800	-1.6194	6.70	0.71	-0.750			
0.5961	38151.14	3.4770	3.4769	-1.5886	6.70	0.71	-0.750			
0.6008	38451.03	3.4740	3.4740	-1.5634	6.71	0.72	-0.750			
0.6055	38750.03	3.4710	3.4710	-1.5404	6.73	0.74	-0.750			
0.6101	39044.10	3.4680	3.4679	-1.5377	6.74	0.75	-0.750			
0.6146	39335.30	3.4650	3.4647	-1.5138	6.76	0.77	-0.750			
0.6192	39630.53	3.4620	3.4619	-1.5051	6.77	0.78	-0.750			
0.6237	39915.80	3.4590	3.4590	-1.4885	6.78	0.79	-0.750			
0.6281	40196.77	3.4560	3.4560	-1.4705	6.79	0.80	-0.750			
0.6325	40481.54	3.4530	3.4529	-1.4599	6.81	0.82	-0.750			
0.6369	40762.15	3.4500	3.4501	-1.4508	6.82	0.83	-0.750			
0.6412	41039.18	3.4470	3.4469	-1.4202	6.83	0.84	-0.750			
0.6456	41317.01	3.4440	3.4440	-1.4099	6.84	0.85	-0.750			
0.6498	41585.78	3.4410	3.4413	-1.3820	6.85	0.86	-0.750			
0.6538	41846.08	3.4380	3.4380	-1.3509	6.87	0.88	-0.750			
0.6579	42103.59	3.4350	3.4349	-1.3225	6.89	0.90	-0.750			
0.6618	42352.85	3.4320	3.4322	-1.3038	6.91	0.92	-0.750			
0.6657	42604.17	3.4290	3.4289	-1.2813	6.92	0.93	-0.750			
0.6695	42846.32	3.4260	3.4260	-1.2519	6.93	0.94	-0.750			
0.6732	43083.04	3.4230	3.4229	-1.2222	6.95	0.96	-0.750			
0.6768	43314.99	3.4200	3.4200	-1.2032	6.96	0.97	-0.750			
0.6804	43546.58	3.4170	3.4169	-1.1756	6.97	0.98	-0.750			
0.6839	43771.46	3.4140	3.4139	-1.1422	6.98	0.99	-0.750			
0.6873	43985.72	3.4110	3.4113	-1.1161	6.99	1.00	-0.750			
0.6906	44200.31	3.4080	3.4081	-1.0923	7.01	1.02	-0.750			
0.6938	44405.42	3.4050	3.4048	-1.0602	7.02	1.03	-0.750			
0.6969	44604.30	3.4020	3.4019	-1.0253	7.04	1.05	-0.750			
0.7000	44798.92	3.3990	3.3992	-1.0016	7.05	1.06	-0.750			
0.7029	44988.33	3.3960	3.3960	-0.9802	7.07	1.08	-0.750			
0.7059	45177.44	3.3930	3.3930	-0.9539	7.08	1.09	-0.750			
0.7087	45355.51	3.3900	3.3898	-0.9215	7.09	1.10	-0.750			
0.7114	45530.40	3.3870	3.3872	-0.8974	7.11	1.12	-0.750			
0.7141	45699.77	3.3840	3.3839	-0.8704	7.12	1.13	-0.750			
0.7166	45864.14	3.3810	3.3809	-0.8524	7.14	1.15	-0.750			
0.7191	46024.81	3.3780	3.3780	-0.8254	7.15	1.16	-0.750			
0.7215	46178.71	3.3750	3.3749	-0.7963	7.17	1.18	-0.750			
0.7240	46333.13	3.3720	3.3721	-0.7809	7.19	1.20	-0.750			
0.7262	46479.91	3.3690	3.3690	-0.7557	7.20	1.21	-0.750			
0.7285	46623.18	3.3660	3.3658	-0.7306	7.21	1.22	-0.750			
0.7306	46760.66	3.3630	3.3631	-0.7054	7.23	1.24	-0.750			
0.7328	46896.53	3.3600	3.3600	-0.7472	7.24	1.25	-0.750			
