Ah_balance (normalized)	Ah_balance (mAh)	Voltage - fit (V)	Voltage -  interpolate (V)	dQ/dV (1/V)	Temperature (°C)	Temperature - diff (°C)	Current (C)	R_DC 0ms (mOhm)	R_DC 50ms (mOhm)	R_DC 50 ms PEC (mOhm)
0.1811	11593.17	4.0790	4.0805	0.7308	7.53	1.54	0.750			
0.1835	11745.46	4.0760	4.0764	0.7972	7.52	1.53	0.750			
0.1860	11902.38	4.0730	4.0738	0.8192	7.52	1.53	0.750			
0.1885	12064.86	4.0700	4.0709	0.8331	7.52	1.53	0.750			
0.1911	12229.45	4.0670	4.0675	0.8347	7.51	1.52	0.750			
0.1936	12390.54	4.0640	4.0642	0.8210	7.51	1.52	0.750			
0.1961	12549.33	4.0610	4.0609	0.8079	7.50	1.51	0.750			
0.1983	12693.33	4.0580	4.0580	0.7824	7.50	1.51	0.750			
0.2007	12844.61	4.0550	4.0551	0.7841	7.50	1.51	0.750			
0.2030	12992.23	4.0520	4.0521	0.7861	7.49	1.50	0.750			
0.2054	13144.56	4.0490	4.0488	0.7926	7.49	1.50	0.750			
0.2078	13296.93	4.0460	4.0461	0.7999	7.48	1.49	0.750			
0.2102	13453.82	4.0430	4.0430	0.7987	7.48	1.49	0.750			
0.2126	13605.86	4.0400	4.0400	0.8030	7.47	1.48	0.750			
0.2150	13758.43	4.0370	4.0371	0.8036	7.47	1.48	0.750			
0.2174	13914.08	4.0340	4.0337	0.8089	7.46	1.47	0.750			
0.2198	14068.91	4.0310	4.0310	0.8112	7.46	1.47	0.750			
0.2223	14226.70	4.0280	4.0281	0.8125	7.45	1.46	0.750			
0.2247	14382.92	4.0250	4.0251	0.8198	7.45	1.46	0.750			
0.2272	14540.29	4.0220	4.0220	0.8213	7.44	1.45	0.750			
0.2297	14698.01	4.0190	4.0187	0.8231	7.44	1.45	0.750			
0.2321	14856.16	4.0160	4.0161	0.8260	7.43	1.44	0.750			
0.2346	15016.87	4.0130	4.0130	0.8269	7.43	1.44	0.750			
0.2371	15175.67	4.0100	4.0101	0.8360	7.42	1.43	0.750			
0.2396	15334.70	4.0070	4.0070	0.8334	7.42	1.43	0.750			
0.2421	15496.14	4.0040	4.0037	0.8386	7.41	1.42	0.750			
0.2446	15657.55	4.0010	4.0012	0.8455	7.40	1.41	0.750			
0.2472	15821.54	3.9980	3.9980	0.8491	7.39	1.40	0.750			
0.2498	15986.01	3.9950	3.9950	0.8554	7.39	1.40	0.750			
0.2523	16148.76	3.9920	3.9920	0.8526	7.38	1.39	0.750			
0.2549	16312.82	3.9890	3.9888	0.8558	7.37	1.38	0.750			
0.2575	16479.38	3.9860	3.9860	0.8605	7.36	1.37	0.750			
0.2601	16644.73	3.9830	3.9830	0.8645	7.35	1.36	0.750			
0.2627	16811.11	3.9800	3.9800	0.8660	7.35	1.36	0.750			
0.2653	16978.17	3.9770	3.9770	0.8707	7.34	1.35	0.750			
0.2679	17143.40	3.9740	3.9740	0.8731	7.33	1.34	0.750			
0.2705	17313.07	3.9710	3.9710	0.8746	7.32	1.33	0.750			
0.2731	17479.96	3.9680	3.9680	0.8834	7.31	1.32	0.750			
0.2758	17649.95	3.9650	3.9650	0.8884	7.30	1.31	0.750			
0.2785	17821.40	3.9620	3.9620	0.8943	7.29	1.30	0.750			
0.2811	17993.54	3.9590	3.9590	0.8998	7.29	1.30	0.750			
0.2839	18167.23	3.9560	3.9562	0.8977	7.28	1.29	0.750			
0.2865	18339.08	3.9530	3.9530	0.9051	7.27	1.28	0.750			
0.2893	18513.57	3.9500	3.9500	0.9140	7.27	1.28	0.750			
0.2920	18688.66	3.9470	3.9467	0.9171	7.26	1.27	0.750			
0.2948	18866.30	3.9440	3.9441	0.9213	7.25	1.26	0.750			
0.2976	19043.65	3.9410	3.9411	0.9298	7.25	1.26	0.750			
0.3004	19223.62	3.9380	3.9380	0.9420	7.24	1.25	0.750			
0.3032	19405.75	3.9350	3.9350	0.9532	7.23	1.24	0.750			
0.3060	19586.73	3.9320	3.9320	0.9514	7.23	1.24	0.750			
0.3089	19770.33	3.9290	3.9290	0.9541	7.22	1.23	0.750			
0.3118	19954.43	3.9260	3.9262	0.9620	7.21	1.22	0.750			
0.3147	20139.00	3.9230	3.9231	0.9701	7.20	1.21	0.750			
0.3176	20324.83	3.9200	3.9196	0.9736	7.19	1.20	0.750			
0.3205	20512.00	3.9170	3.9172	0.9766	7.18	1.19	0.750			
0.3235	20701.16	3.9140	3.9141	0.9855	7.17	1.18	0.750			
0.3265	20893.91	3.9110	3.9110	1.0016	7.16	1.17	0.750			
0.3294	21084.52	3.9080	3.9078	1.0047	7.15	1.16	0.750			
0.3325	21277.94	3.9050	3.9050	1.0117	7.14	1.15	0.750			
0.3355	21472.73	3.9020	3.9020	1.0243	7.13	1.14	0.750			
0.3386	21671.99	3.8990	3.8990	1.0374	7.12	1.13	0.750			
0.3418	21872.77	3.8960	3.8959	1.0475	7.11	1.12	0.750			
0.3449	22075.07	3.8930	3.8930	1.0505	7.10	1.11	0.750			
0.3480	22272.92	3.8900	3.8901	1.0660	7.09	1.10	0.750			
0.3512	22478.28	3.8870	3.8871	1.0808	7.08	1.09	0.750			
0.3545	22690.10	3.8840	3.8837	1.0953	7.07	1.08	0.750			
0.3578	22900.53	3.8810	3.8811	1.1096	7.06	1.07	0.750			
0.3612	23116.88	3.8780	3.8782	1.1245	7.05	1.06	0.750			
0.3646	23336.04	3.8750	3.8750	1.1422	7.04	1.05	0.750			
0.3680	23555.07	3.8720	3.8720	1.1431	7.03	1.04	0.750			
0.3715	23774.88	3.8690	3.8690	1.1578	7.02	1.03	0.750			
0.3750	23999.16	3.8660	3.8661	1.1754	7.01	1.02	0.750			
0.3785	24226.06	3.8630	3.8629	1.1912	7.00	1.01	0.750			
0.3821	24455.18	3.8600	3.8601	1.2070	6.99	1.00	0.750			
0.3858	24688.99	3.8570	3.8570	1.2298	6.98	0.99	0.750			
0.3895	24926.54	3.8540	3.8540	1.2470	6.96	0.97	0.750			
0.3933	25171.61	3.8510	3.8510	1.2524	6.95	0.96	0.750			
0.3970	25409.94	3.8480	3.8481	1.2697	6.94	0.95	0.750			
0.4008	25651.74	3.8450	3.8452	1.3055	6.92	0.93	0.750			
0.4047	25903.96	3.8420	3.8416	1.3386	6.91	0.92	0.750			
0.4088	26162.07	3.8390	3.8389	1.3729	6.89	0.90	0.750			
0.4130	26430.51	3.8360	3.8362	1.4131	6.88	0.89	0.750	0.407	0.928	
0.4174	26711.63	3.8330	3.8328	1.4358	6.86	0.87	0.750			
0.4217	26991.33	3.8300	3.8301	1.4415	6.85	0.86	0.750			
0.4260	27263.91	3.8270	3.8271	1.4573	6.84	0.85	0.750			
0.4304	27545.68	3.8240	3.8238	1.4905	6.83	0.84	0.750			
0.4349	27831.99	3.8210	3.8211	1.5143	6.81	0.82	0.750			
0.4395	28127.14	3.8180	3.8182	1.5487	6.80	0.81	0.750			
0.4442	28431.22	3.8150	3.8150	1.5833	6.78	0.79	0.750			
0.4490	28738.26	3.8120	3.8119	1.6118	6.76	0.77	0.750			
0.4539	29049.72	3.8090	3.8090	1.6321	6.74	0.75	0.750			
0.4589	29369.45	3.8060	3.8058	1.6581	6.72	0.73	0.750			
0.4639	29686.74	3.8030	3.8031	1.6964	6.70	0.71	0.750			
0.4690	30014.79	3.8000	3.8000	1.7237	6.69	0.70	0.750			
0.4743	30355.05	3.7970	3.7968	1.7637	6.67	0.68	0.750			
0.4795	30691.11	3.7940	3.7938	1.7941	6.65	0.66	0.750			
0.4849	31036.04	3.7910	3.7911	1.8213	6.63	0.64	0.750			
0.4906	31395.53	3.7880	3.7878	1.8510	6.62	0.63	0.750			
0.4962	31756.30	3.7850	3.7852	1.8733	6.60	0.61	0.750			
0.5018	32116.52	3.7820	3.7823	1.8944	6.58	0.59	0.750			
0.5075	32480.05	3.7790	3.7792	1.9337	6.56	0.57	0.750			
0.5135	32861.69	3.7760	3.7759	1.9458	6.54	0.55	0.750			
0.5194	33239.32	3.7730	3.7730	1.9677	6.52	0.53	0.750			
0.5252	33612.45	3.7700	3.7701	1.9728	6.49	0.50	0.750			
0.5312	33999.29	3.7670	3.7669	1.9894	6.47	0.48	0.750			
0.5372	34381.39	3.7640	3.7639	2.0114	6.45	0.46	0.750			
0.5434	34777.48	3.7610	3.7612	2.0678	6.43	0.44	0.750			
0.5495	35168.12	3.7580	3.7581	2.0747	6.41	0.42	0.750			
0.5559	35576.29	3.7550	3.7550	2.1032	6.39	0.40	0.750			
0.5623	35984.12	3.7520	3.7520	2.1554	6.37	0.38	0.750			
0.5688	36401.39	3.7490	3.7490	2.2163	6.35	0.36	0.750			
0.5754	36828.23	3.7460	3.7460	2.2596	6.32	0.33	0.750			
0.5823	37267.62	3.7430	3.7431	2.3123	6.30	0.31	0.750			
0.5893	37717.96	3.7400	3.7399	2.3548	6.28	0.29	0.750			
0.5965	38176.43	3.7370	3.7370	2.3805	6.25	0.26	0.750			
0.6037	38637.89	3.7340	3.7340	2.4742	6.22	0.23	0.750			
0.6112	39116.65	3.7310	3.7307	2.5541	6.19	0.20	0.750			
0.6190	39618.75	3.7280	3.7280	2.6016	6.16	0.17	0.750			
0.6271	40134.68	3.7250	3.7250	2.6044	6.14	0.15	0.750			
0.6347	40620.11	3.7220	3.7221	2.4969	6.11	0.12	0.750			
0.6420	41087.89	3.7190	3.7190	2.4214	6.09	0.10	0.750			
0.6492	41550.19	3.7160	3.7158	2.2882	6.08	0.09	0.750			
0.6560	41981.24	3.7130	3.7130	2.1419	6.07	0.08	0.750			
0.6622	42379.06	3.7100	3.7097	1.9301	6.06	0.07	0.750			
0.6675	42719.60	3.7070	3.7066	1.6937	6.05	0.06	0.750			
0.6721	43017.49	3.7040	3.7042	1.5017	6.04	0.05	0.750			
0.6763	43283.61	3.7010	3.7010	1.3381	6.02	0.03	0.750			
0.6800	43518.94	3.6980	3.6976	1.1942	6.01	0.02	0.750			
0.6832	43726.72	3.6950	3.6952	1.0800	6.00	0.01	0.750			
0.6864	43929.87	3.6920	3.6919	1.0196	6.00	0.01	0.750			
0.6892	44111.11	3.6890	3.6890	0.9580	6.00	0.01	0.750			
0.6920	44287.15	3.6860	3.6860	0.9074	5.99	0.00	0.750			
0.6947	44457.78	3.6830	3.6830	0.8758	5.99	0.00	0.750			
0.6972	44623.33	3.6800	3.6799	0.8347	5.99	0.00	0.750			
0.6997	44779.47	3.6770	3.6771	0.8039	5.99	0.00	0.750			
0.7020	44930.11	3.6740	3.6740	0.7721	5.99	0.00	0.750			
0.7043	45075.31	3.6710	3.6709	0.7382	5.99	0.00	0.750			
0.7065	45214.34	3.6680	3.6680	0.7049	5.99	0.00	0.750			
0.7085	45346.55	3.6650	3.6650	0.6691	5.99	0.00	0.750			
0.7105	45472.40	3.6620	3.6620	0.6312	5.99	0.00	0.750			
0.7124	45591.36	3.6590	3.6591	0.5902	5.99	0.00	0.750			
0.7141	45700.06	3.6560	3.6560	0.5483	5.99	0.00	0.750			
0.7156	45801.09	3.6530	3.6531	0.5093	5.99	0.00	0.750			
0.7171	45895.34	3.6500	3.6498	0.4714	5.99	0.00	0.750			
0.7185	45981.05	3.6470	3.6470	0.4342	5.99	0.00	0.750			
0.7197	46061.12	3.6440	3.6440	0.3983	5.99	0.00	0.750			
0.7208	46133.80	3.6410	3.6410	0.3624	5.99	0.00	0.750			
0.7219	46200.82	3.6380	3.6380	0.3287	5.99	0.00	0.750			
0.7228	46260.07	3.6350	3.6351	0.2930	5.99	0.00	0.750			
0.7236	46312.88	3.6320	3.6319	0.2580	5.99	0.00	0.750			
0.7244	46359.77	3.6290	3.6290	0.2215	5.99	0.00	0.750			
0.7250	46398.57	3.6260	3.6260	0.1838	5.99	0.00	0.750			
0.7255	46431.50	3.6230	3.6231	0.1491	5.99	0.00	0.750			
0.7259	46456.76	3.6200	3.6201	0.1104	5.99	0.00	0.750			
0.7262	46474.15	3.6170	3.6174	0.0707	5.99	0.00	0.750			
0.7263	46484.33	3.6140	3.6141	0.0295	5.99	0.00	0.750			
0.7263	46486.06	3.6110	3.6132	-0.0114	5.99	0.00	0.751			
