Ah_balance (normalized)	Ah_balance (mAh)	Voltage - fit (V)	Voltage -  interpolate (V)	dQ/dV (1/V)	Temperature (°C)	Temperature - diff (°C)	Current (C)	R_DC 0ms (mOhm)	R_DC 50ms (mOhm)	R_DC 50 ms PEC (mOhm)
0.0919	5883.99	4.0020	4.0015	-0.0569	5.99	0.00	-0.750			
0.0921	5897.44	3.9990	3.9988	-0.0863	5.99	0.00	-0.750			
0.0925	5918.05	3.9960	3.9959	-0.1178	5.99	0.00	-0.750			
0.0929	5943.58	3.9930	3.9930	-0.1463	5.99	0.00	-0.750			
0.0934	5975.03	3.9900	3.9899	-0.1727	5.99	0.00	-0.750			
0.0939	6011.07	3.9870	3.9871	-0.1974	5.99	0.00	-0.750			
0.0946	6053.20	3.9840	3.9839	-0.2223	5.99	0.00	-0.750			
0.0953	6098.13	3.9810	3.9812	-0.2450	5.99	0.00	-0.750			
0.0960	6147.11	3.9780	3.9780	-0.2662	5.99	-0.00	-0.750			
0.0969	6199.18	3.9750	3.9750	-0.2910	5.99	-0.00	-0.750			
0.0978	6256.70	3.9720	3.9720	-0.3162	5.99	-0.00	-0.750			
0.0987	6319.68	3.9690	3.9690	-0.3396	5.99	-0.00	-0.750			
0.0998	6387.79	3.9660	3.9660	-0.3645	5.99	-0.00	-0.750			
0.1010	6460.81	3.9630	3.9631	-0.3898	5.99	-0.00	-0.750			
0.1022	6538.11	3.9600	3.9600	-0.4123	5.98	-0.01	-0.750			
0.1034	6619.55	3.9570	3.9569	-0.4360	5.98	-0.01	-0.750			
0.1048	6705.19	3.9540	3.9540	-0.4567	5.98	-0.01	-0.750			
0.1062	6795.26	3.9510	3.9509	-0.4754	5.98	-0.01	-0.750			
0.1077	6889.90	3.9480	3.9481	-0.4961	5.98	-0.01	-0.750			
0.1092	6986.06	3.9450	3.9450	-0.5179	5.98	-0.01	-0.750			
0.1107	7087.01	3.9420	3.9419	-0.5364	5.98	-0.01	-0.750			
0.1124	7192.08	3.9390	3.9389	-0.5544	5.98	-0.01	-0.750			
0.1141	7299.60	3.9360	3.9361	-0.5733	5.98	-0.01	-0.750			
0.1158	7413.83	3.9330	3.9331	-0.5876	5.98	-0.01	-0.750			
0.1176	7528.81	3.9300	3.9299	-0.5992	5.98	-0.01	-0.750			
0.1195	7645.15	3.9270	3.9271	-0.6102	5.98	-0.01	-0.750			
0.1213	7762.34	3.9240	3.9239	-0.6196	5.98	-0.01	-0.750			
0.1232	7882.47	3.9210	3.9210	-0.6318	5.98	-0.01	-0.750			
0.1251	8004.51	3.9180	3.9180	-0.6426	5.98	-0.01	-0.750			
0.1271	8132.06	3.9150	3.9149	-0.6565	5.99	-0.00	-0.750			
0.1291	8261.79	3.9120	3.9118	-0.6613	5.99	-0.00	-0.750			
0.1311	8389.63	3.9090	3.9089	-0.6662	5.99	-0.00	-0.750			
0.1331	8517.23	3.9060	3.9064	-0.6679	5.99	0.00	-0.750			
0.1351	8644.33	3.9030	3.9029	-0.6726	5.99	0.00	-0.750			
0.1371	8772.66	3.9000	3.8998	-0.6772	6.00	0.01	-0.750			
0.1390	8898.40	3.8970	3.8971	-0.6790	6.00	0.01	-0.750			
0.1412	9036.93	3.8940	3.8940	-0.7016	6.00	0.01	-0.750			
0.1433	9173.32	3.8910	3.8909	-0.7088	6.01	0.02	-0.750			
0.1455	9309.54	3.8880	3.8881	-0.7092	6.01	0.02	-0.750			
0.1476	9446.19	3.8850	3.8850	-0.7089	6.02	0.03	-0.750			
0.1497	9581.16	3.8820	3.8820	-0.7131	6.02	0.03	-0.750			
0.1519	9719.43	3.8790	3.8790	-0.7110	6.03	0.04	-0.750			
0.1540	9856.03	3.8760	3.8760	-0.7120	6.04	0.05	-0.750			
0.1561	9992.46	3.8730	3.8730	-0.7106	6.04	0.05	-0.750			
0.1583	10128.86	3.8700	3.8701	-0.7100	6.05	0.06	-0.750			
0.1604	10265.27	3.8670	3.8670	-0.7111	6.05	0.06	-0.750			
0.1625	10399.77	3.8640	3.8640	-0.7166	6.06	0.07	-0.750			
0.1647	10538.20	3.8610	3.8609	-0.7157	6.06	0.07	-0.750			
0.1668	10677.64	3.8580	3.8580	-0.7218	6.06	0.07	-0.750			
0.1690	10815.89	3.8550	3.8549	-0.7185	6.07	0.08	-0.750			
0.1712	10954.70	3.8520	3.8521	-0.7209	6.07	0.08	-0.750			
0.1733	11092.98	3.8490	3.8489	-0.7222	6.08	0.09	-0.750			
0.1755	11230.22	3.8460	3.8459	-0.7247	6.09	0.10	-0.750			
0.1776	11368.08	3.8430	3.8430	-0.7235	6.09	0.10	-0.750			
0.1799	11510.45	3.8400	3.8400	-0.7306	6.10	0.11	-0.750			
0.1821	11652.23	3.8370	3.8370	-0.7305	6.11	0.12	-0.750			
0.1843	11792.56	3.8340	3.8339	-0.7306	6.11	0.12	-0.750			
0.1864	11931.72	3.8310	3.8310	-0.7271	6.12	0.13	-0.750			
0.1886	12070.77	3.8280	3.8280	-0.7283	6.13	0.14	-0.750			
0.1908	12209.48	3.8250	3.8250	-0.7267	6.14	0.15	-0.750			
0.1930	12351.05	3.8220	3.8220	-0.7288	6.14	0.15	-0.750			
0.1952	12491.09	3.8190	3.8191	-0.7282	6.15	0.16	-0.750			
0.1974	12631.75	3.8160	3.8160	-0.7273	6.15	0.16	-0.750			
0.1995	12769.99	3.8130	3.8129	-0.7262	6.16	0.17	-0.750			
0.2017	12907.99	3.8100	3.8100	-0.7300	6.17	0.18	-0.750			
0.2039	13048.95	3.8070	3.8070	-0.7300	6.17	0.18	-0.750			
0.2061	13190.36	3.8040	3.8039	-0.7341	6.18	0.19	-0.750			
0.2083	13331.69	3.8010	3.8011	-0.7352	6.18	0.19	-0.750			
0.2105	13472.86	3.7980	3.7979	-0.7385	6.19	0.20	-0.750			
0.2127	13614.61	3.7950	3.7950	-0.7425	6.19	0.20	-0.750			
0.2150	13757.04	3.7920	3.7919	-0.7405	6.20	0.21	-0.750			
0.2172	13900.40	3.7890	3.7890	-0.7428	6.20	0.21	-0.750			
0.2194	14043.67	3.7860	3.7859	-0.7439	6.21	0.22	-0.750			
0.2217	14186.20	3.7830	3.7831	-0.7432	6.21	0.22	-0.750			
0.2239	14327.95	3.7800	3.7799	-0.7466	6.22	0.23	-0.750			
0.2261	14468.96	3.7770	3.7771	-0.7500	6.23	0.24	-0.750			
0.2283	14613.04	3.7740	3.7740	-0.7540	6.24	0.25	-0.750			
0.2306	14761.04	3.7710	3.7709	-0.7657	6.24	0.25	-0.750			
0.2330	14908.82	3.7680	3.7682	-0.7698	6.25	0.26	-0.750			
0.2353	15056.61	3.7650	3.7650	-0.7752	6.25	0.26	-0.750			
0.2376	15207.07	3.7620	3.7620	-0.7808	6.26	0.27	-0.750			
0.2400	15357.63	3.7590	3.7590	-0.7828	6.26	0.27	-0.750			
0.2423	15507.65	3.7560	3.7559	-0.7843	6.27	0.28	-0.750			
0.2447	15659.10	3.7530	3.7530	-0.7874	6.27	0.28	-0.750			
0.2470	15810.65	3.7500	3.7500	-0.7878	6.28	0.29	-0.750			
0.2494	15960.89	3.7470	3.7470	-0.7904	6.29	0.30	-0.750			
0.2518	16112.16	3.7440	3.7440	-0.7926	6.30	0.31	-0.750			
0.2541	16265.07	3.7410	3.7410	-0.7977	6.31	0.32	-0.750			
0.2565	16419.14	3.7380	3.7379	-0.8015	6.32	0.33	-0.750			
0.2590	16573.57	3.7350	3.7351	-0.8035	6.32	0.33	-0.750			
0.2614	16727.56	3.7320	3.7320	-0.8120	6.33	0.34	-0.750			
0.2638	16884.38	3.7290	3.7289	-0.8167	6.33	0.34	-0.750			
0.2663	17040.68	3.7260	3.7260	-0.8193	6.34	0.35	-0.750			
0.2687	17198.98	3.7230	3.7230	-0.8281	6.35	0.36	-0.750			
0.2712	17359.30	3.7200	3.7200	-0.8367	6.35	0.36	-0.750			
0.2738	17520.24	3.7170	3.7170	-0.8470	6.36	0.37	-0.750			
0.2763	17685.20	3.7140	3.7140	-0.8463	6.36	0.37	-0.750			
0.2789	17846.48	3.7110	3.7110	-0.8519	6.36	0.37	-0.750			
0.2814	18010.91	3.7080	3.7080	-0.8601	6.37	0.38	-0.750			
0.2840	18176.46	3.7050	3.7048	-0.8635	6.37	0.38	-0.750			
0.2866	18341.21	3.7020	3.7020	-0.8751	6.38	0.39	-0.750			
0.2892	18509.41	3.6990	3.6991	-0.8842	6.38	0.39	-0.750			
0.2919	18681.54	3.6960	3.6960	-0.8904	6.38	0.39	-0.750			
0.2946	18856.74	3.6930	3.6930	-0.9016	6.39	0.40	-0.750			
0.2973	19027.20	3.6900	3.6901	-0.9059	6.40	0.41	-0.750			
0.3000	19202.62	3.6870	3.6870	-0.9140	6.41	0.42	-0.750			
0.3028	19379.18	3.6840	3.6839	-0.9149	6.41	0.42	-0.750			
0.3055	19553.65	3.6810	3.6810	-0.9164	6.42	0.43	-0.750			
0.3083	19730.39	3.6780	3.6782	-0.9284	6.43	0.44	-0.750			
0.3111	19909.49	3.6750	3.6748	-0.9421	6.44	0.45	-0.750			
0.3139	20092.25	3.6720	3.6719	-0.9437	6.44	0.45	-0.750			
0.3168	20273.43	3.6690	3.6689	-0.9493	6.44	0.45	-0.750			
0.3196	20457.33	3.6660	3.6662	-0.9609	6.45	0.46	-0.750			
0.3225	20642.32	3.6630	3.6629	-0.9765	6.45	0.46	-0.750			
0.3255	20831.33	3.6600	3.6598	-0.9749	6.46	0.47	-0.750			
0.3284	21017.41	3.6570	3.6570	-0.9814	6.46	0.47	-0.750			
0.3313	21205.05	3.6540	3.6540	-0.9836	6.47	0.48	-0.750			
0.3343	21398.13	3.6510	3.6510	-1.0022	6.47	0.48	-0.750			
0.3373	21589.69	3.6480	3.6479	-1.0081	6.48	0.49	-0.750			
0.3403	21781.69	3.6450	3.6447	-1.0139	6.49	0.50	-0.750			
0.3434	21978.29	3.6420	3.6421	-1.0176	6.50	0.51	-0.750			
0.3465	22176.44	3.6390	3.6391	-1.0423	6.50	0.51	-0.750			
0.3497	22377.88	3.6360	3.6360	-1.0468	6.50	0.51	-0.750			
0.3528	22581.24	3.6330	3.6329	-1.0549	6.51	0.52	-0.750			
0.3560	22780.97	3.6300	3.6299	-1.0600	6.51	0.52	-0.750			
0.3592	22986.37	3.6270	3.6270	-1.0759	6.51	0.52	-0.750			
0.3624	23195.77	3.6240	3.6240	-1.0822	6.52	0.53	-0.750			
0.3657	23404.62	3.6210	3.6209	-1.0857	6.52	0.53	-0.750			
0.3689	23610.97	3.6180	3.6181	-1.0857	6.53	0.54	-0.750			
0.3722	23822.51	3.6150	3.6150	-1.1095	6.53	0.54	-0.750			
0.3756	24035.51	3.6120	3.6119	-1.1167	6.53	0.54	-0.750			
0.3789	24250.77	3.6090	3.6089	-1.1246	6.54	0.55	-0.750			
0.3823	24467.01	3.6060	3.6062	-1.1296	6.54	0.55	-0.750			
0.3858	24691.38	3.6030	3.6029	-1.1497	6.54	0.55	-0.750			
0.3892	24911.09	3.6000	3.6000	-1.1525	6.55	0.56	-0.750			
0.3927	25130.91	3.5970	3.5969	-1.1573	6.55	0.56	-0.750			
0.3961	25350.38	3.5940	3.5942	-1.1699	6.55	0.56	-0.750			
0.3997	25579.74	3.5910	3.5909	-1.1847	6.56	0.57	-0.750			
0.4033	25808.79	3.5880	3.5880	-1.1895	6.56	0.57	-0.750			
0.4068	26036.61	3.5850	3.5847	-1.1965	6.57	0.58	-0.750	0.462	1.037	
0.4105	26271.02	3.5820	3.5820	-1.2256	6.57	0.58	-0.750			
0.4141	26504.04	3.5790	3.5789	-1.2321	6.58	0.59	-0.750			
0.4179	26742.71	3.5760	3.5759	-1.2450	6.59	0.60	-0.750			
0.4216	26981.54	3.5730	3.5731	-1.2516	6.59	0.60	-0.750			
0.4255	27230.27	3.5700	3.5700	-1.2721	6.59	0.60	-0.750			
0.4293	27474.64	3.5670	3.5670	-1.2803	6.59	0.60	-0.750			
0.4331	27717.41	3.5640	3.5641	-1.2930	6.59	0.60	-0.750			
0.4371	27971.41	3.5610	3.5609	-1.3025	6.60	0.61	-0.750			
0.4410	28222.17	3.5580	3.5579	-1.3134	6.60	0.61	-0.750			
0.4449	28475.58	3.5550	3.5554	-1.3343	6.61	0.62	-0.750			
0.4490	28735.11	3.5520	3.5518	-1.3442	6.62	0.63	-0.750			
0.4530	28993.25	3.5490	3.5489	-1.3522	6.62	0.63	-0.750			
0.4571	29251.54	3.5460	3.5462	-1.3585	6.63	0.64	-0.750			
0.4612	29515.21	3.5430	3.5429	-1.3929	6.64	0.65	-0.750			
0.4654	29785.57	3.5400	3.5399	-1.3976	6.64	0.65	-0.750			
0.4695	30047.96	3.5370	3.5371	-1.4235	6.65	0.66	-0.750			
0.4738	30326.31	3.5340	3.5340	-1.4383	6.66	0.67	-0.750			
0.4783	30610.84	3.5310	3.5307	-1.4611	6.66	0.67	-0.750			
0.4827	30893.99	3.5280	3.5283	-1.4666	6.67	0.68	-0.750			
0.4871	31177.57	3.5250	3.5250	-1.4666	6.68	0.69	-0.750			
0.4916	31459.76	3.5220	3.5220	-1.4658	6.68	0.69	-0.750			
0.4960	31744.53	3.5190	3.5191	-1.4772	6.69	0.70	-0.750			
0.5004	32024.28	3.5160	3.5159	-1.4667	6.70	0.71	-0.750			
0.5048	32307.56	3.5130	3.5130	-1.4925	6.71	0.72	-0.750			
0.5093	32596.12	3.5100	3.5100	-1.4955	6.71	0.72	-0.750			
0.5139	32887.50	3.5070	3.5068	-1.5119	6.71	0.72	-0.750			
0.5184	33178.05	3.5040	3.5041	-1.5105	6.72	0.73	-0.750			
0.5229	33468.20	3.5010	3.5008	-1.5010	6.73	0.74	-0.750			
0.5275	33759.27	3.4980	3.4981	-1.5136	6.74	0.75	-0.750			
0.5320	34048.21	3.4950	3.4950	-1.5059	6.75	0.76	-0.750			
0.5365	34334.09	3.4920	3.4919	-1.5121	6.76	0.77	-0.750			
0.5411	34629.83	3.4890	3.4890	-1.5137	6.78	0.79	-0.750			
0.5456	34918.61	3.4860	3.4861	-1.5028	6.79	0.80	-0.750			
0.5502	35210.25	3.4830	3.4832	-1.5021	6.80	0.81	-0.750			
0.5547	35500.47	3.4800	3.4799	-1.4975	6.81	0.82	-0.750			
0.5591	35785.05	3.4770	3.4770	-1.4957	6.81	0.82	-0.750			
0.5636	36072.85	3.4740	3.4739	-1.4933	6.83	0.84	-0.750			
0.5681	36356.71	3.4710	3.4710	-1.4840	6.84	0.85	-0.750			
0.5726	36645.63	3.4680	3.4680	-1.4837	6.85	0.86	-0.750			
0.5771	36933.32	3.4650	3.4649	-1.4791	6.86	0.87	-0.750			
0.5815	37215.38	3.4620	3.4620	-1.4645	6.87	0.88	-0.750			
0.5858	37494.04	3.4590	3.4590	-1.4447	6.88	0.89	-0.750			
0.5902	37772.45	3.4560	3.4560	-1.4406	6.89	0.90	-0.750			
0.5945	38047.75	3.4530	3.4530	-1.4307	6.91	0.92	-0.750			
0.5988	38320.83	3.4500	3.4499	-1.4157	6.92	0.93	-0.750			
0.6030	38592.80	3.4470	3.4469	-1.4024	6.94	0.95	-0.750			
0.6072	38860.86	3.4440	3.4441	-1.3926	6.96	0.97	-0.750			
0.6114	39127.86	3.4410	3.4409	-1.3770	6.97	0.98	-0.750			
0.6155	39394.56	3.4380	3.4379	-1.3512	6.98	0.99	-0.750			
0.6195	39648.18	3.4350	3.4351	-1.3342	6.99	1.00	-0.750			
0.6234	39900.74	3.4320	3.4320	-1.3156	7.01	1.02	-0.750			
0.6274	40155.03	3.4290	3.4288	-1.2959	7.02	1.03	-0.750			
0.6313	40401.67	3.4260	3.4260	-1.2708	7.04	1.05	-0.750			
0.6350	40642.03	3.4230	3.4231	-1.2429	7.06	1.07	-0.750			
0.6388	40881.72	3.4200	3.4200	-1.2265	7.08	1.09	-0.750			
0.6424	41115.52	3.4170	3.4170	-1.2018	7.10	1.11	-0.750			
0.6459	41338.26	3.4140	3.4140	-1.1674	7.11	1.12	-0.750			
0.6494	41562.85	3.4110	3.4110	-1.1463	7.13	1.14	-0.750			
0.6529	41783.02	3.4080	3.4080	-1.1200	7.15	1.16	-0.750			
0.6562	41995.15	3.4050	3.4050	-1.0939	7.16	1.17	-0.750			
0.6594	42201.46	3.4020	3.4021	-1.0690	7.18	1.19	-0.750			
0.6626	42403.60	3.3990	3.3989	-1.0402	7.19	1.20	-0.750			
0.6656	42601.05	3.3960	3.3959	-1.0111	7.20	1.21	-0.750			
0.6686	42791.70	3.3930	3.3930	-0.9860	7.21	1.22	-0.750			
0.6716	42980.05	3.3900	3.3900	-0.9625	7.23	1.24	-0.750			
0.6744	43163.18	3.3870	3.3870	-0.9435	7.24	1.25	-0.750			
0.6772	43341.00	3.3840	3.3840	-0.9157	7.26	1.27	-0.750			
0.6799	43513.84	3.3810	3.3810	-0.8882	7.27	1.28	-0.750			
0.6826	43684.02	3.3780	3.3782	-0.8646	7.29	1.30	-0.750			
0.6851	43847.10	3.3750	3.3750	-0.8436	7.30	1.31	-0.750			
0.6876	44005.48	3.3720	3.3719	-0.8214	7.32	1.33	-0.750			
0.6900	44161.07	3.3690	3.3689	-0.7976	7.33	1.34	-0.750			
0.6924	44311.75	3.3660	3.3660	-0.7726	7.34	1.35	-0.750			
0.6947	44459.99	3.3630	3.3632	-0.7564	7.36	1.37	-0.750			
0.6969	44602.92	3.3600	3.3599	-0.7361	7.37	1.38	-0.750			
0.6991	44741.20	3.3570	3.3570	-0.7146	7.38	1.39	-0.750			
0.7012	44874.56	3.3540	3.3539	-0.6970	7.39	1.40	-0.750			
0.7032	45005.03	3.3510	3.3511	-0.6802	7.40	1.41	-0.750			
0.7053	45137.19	3.3480	3.3480	-0.6681	7.42	1.43	-0.750			
0.7072	45263.83	3.3450	3.3450	-0.6507	7.43	1.44	-0.750			
0.7092	45387.12	3.3420	3.3420	-0.6329	7.44	1.45	-0.750			
0.7111	45507.30	3.3390	3.3390	-0.6175	7.45	1.46	-0.750			
0.7129	45624.06	3.3360	3.3360	-0.6002	7.47	1.48	-0.750			
0.7146	45736.92	3.3330	3.3330	-0.5852	7.48	1.49	-0.750			
0.7164	45847.67	3.3300	3.3300	-0.5718	7.49	1.50	-0.750			
0.7181	45956.29	3.3270	3.3270	-0.5587	7.50	1.51	-0.750			
0.7197	46062.53	3.3240	3.3240	-0.5546	7.52	1.53	-0.750			
