Ah_balance (normalized)	Ah_balance (mAh)	Voltage - fit (V)	Voltage -  interpolate (V)	dQ/dV (1/V)	Temperature (°C)	Temperature - diff (°C)	Current (C)	R_DC 0ms (mOhm)	R_DC 50ms (mOhm)	R_DC 50 ms PEC (mOhm)
0.1800	11518.23	4.0800	4.0800	0.7771	7.37	1.38	0.750			
0.1823	11668.12	4.0770	4.0770	0.7807	7.36	1.37	0.750			
0.1847	11817.98	4.0740	4.0740	0.7813	7.36	1.37	0.750			
0.1870	11967.94	4.0710	4.0709	0.7841	7.35	1.36	0.750			
0.1894	12118.55	4.0680	4.0679	0.7834	7.35	1.36	0.750			
0.1917	12269.23	4.0650	4.0650	0.7893	7.35	1.36	0.750			
0.1941	12423.27	4.0620	4.0620	0.7872	7.34	1.35	0.750			
0.1964	12572.69	4.0590	4.0590	0.7939	7.34	1.35	0.750			
0.1988	12724.45	4.0560	4.0560	0.7994	7.34	1.35	0.750			
0.2012	12877.31	4.0530	4.0531	0.8050	7.33	1.34	0.750			
0.2036	13032.71	4.0500	4.0500	0.8108	7.33	1.34	0.750			
0.2061	13192.43	4.0470	4.0470	0.8129	7.32	1.33	0.750			
0.2086	13347.69	4.0440	4.0441	0.8135	7.31	1.32	0.750			
0.2110	13506.73	4.0410	4.0410	0.8176	7.30	1.31	0.750			
0.2134	13659.74	4.0380	4.0381	0.8160	7.29	1.30	0.750			
0.2159	13815.36	4.0350	4.0350	0.8193	7.29	1.30	0.750			
0.2183	13973.95	4.0320	4.0320	0.8180	7.28	1.29	0.750			
0.2208	14131.73	4.0290	4.0290	0.8251	7.28	1.29	0.750			
0.2233	14290.77	4.0260	4.0261	0.8288	7.28	1.29	0.750			
0.2258	14450.39	4.0230	4.0230	0.8297	7.27	1.28	0.750			
0.2283	14609.19	4.0200	4.0200	0.8364	7.27	1.28	0.750			
0.2308	14771.47	4.0170	4.0171	0.8328	7.26	1.27	0.750			
0.2333	14932.13	4.0140	4.0140	0.8361	7.26	1.27	0.750			
0.2358	15092.56	4.0110	4.0110	0.8394	7.26	1.27	0.750			
0.2383	15252.61	4.0080	4.0081	0.8410	7.25	1.26	0.750			
0.2408	15413.65	4.0050	4.0050	0.8454	7.25	1.26	0.750			
0.2434	15577.99	4.0020	4.0020	0.8419	7.24	1.25	0.750			
0.2459	15739.41	3.9990	3.9990	0.8453	7.24	1.25	0.750			
0.2485	15903.07	3.9960	3.9961	0.8527	7.24	1.25	0.750			
0.2510	16066.25	3.9930	3.9931	0.8545	7.23	1.24	0.750			
0.2536	16230.46	3.9900	3.9900	0.8570	7.23	1.24	0.750			
0.2562	16394.61	3.9870	3.9871	0.8577	7.22	1.23	0.750			
0.2588	16560.41	3.9840	3.9840	0.8657	7.22	1.23	0.750			
0.2614	16728.00	3.9810	3.9811	0.8770	7.22	1.23	0.750			
0.2640	16896.97	3.9780	3.9778	0.8756	7.21	1.22	0.750			
0.2666	17065.13	3.9750	3.9751	0.8808	7.20	1.21	0.750			
0.2693	17234.87	3.9720	3.9720	0.8833	7.20	1.21	0.750			
0.2720	17405.38	3.9690	3.9690	0.8873	7.19	1.20	0.750			
0.2746	17576.06	3.9660	3.9660	0.8909	7.18	1.19	0.750			
0.2773	17746.03	3.9630	3.9628	0.8926	7.17	1.18	0.750			
0.2800	17918.98	3.9600	3.9601	0.8885	7.17	1.18	0.750			
0.2827	18089.67	3.9570	3.9569	0.8985	7.16	1.17	0.750			
0.2853	18260.49	3.9540	3.9541	0.9059	7.16	1.17	0.750			
0.2881	18435.59	3.9510	3.9510	0.9177	7.15	1.16	0.750			
0.2908	18611.46	3.9480	3.9479	0.9259	7.15	1.16	0.750			
0.2936	18791.94	3.9450	3.9450	0.9255	7.14	1.15	0.750			
0.2964	18969.82	3.9420	3.9421	0.9367	7.13	1.14	0.750			
0.2992	19151.03	3.9390	3.9391	0.9444	7.13	1.14	0.750			
0.3021	19332.45	3.9360	3.9357	0.9425	7.12	1.13	0.750			
0.3049	19513.45	3.9330	3.9330	0.9406	7.11	1.12	0.750			
0.3077	19694.53	3.9300	3.9301	0.9499	7.11	1.12	0.750			
0.3106	19878.34	3.9270	3.9271	0.9622	7.10	1.11	0.750			
0.3135	20063.37	3.9240	3.9239	0.9608	7.09	1.10	0.750			
0.3164	20249.20	3.9210	3.9210	0.9643	7.09	1.10	0.750			
0.3193	20434.18	3.9180	3.9181	0.9797	7.08	1.09	0.750			
0.3222	20623.56	3.9150	3.9150	0.9935	7.07	1.08	0.750			
0.3253	20816.00	3.9120	3.9120	1.0074	7.06	1.07	0.750			
0.3283	21010.60	3.9090	3.9091	1.0126	7.05	1.06	0.750			
0.3313	21206.21	3.9060	3.9060	1.0215	7.04	1.05	0.750			
0.3344	21404.29	3.9030	3.9031	1.0382	7.04	1.05	0.750			
0.3376	21604.01	3.9000	3.9001	1.0467	7.03	1.04	0.750			
0.3408	21808.17	3.8970	3.8970	1.0434	7.03	1.04	0.750			
0.3439	22007.84	3.8940	3.8940	1.0544	7.02	1.03	0.750			
0.3470	22209.83	3.8910	3.8912	1.0626	7.02	1.03	0.750			
0.3502	22414.23	3.8880	3.8880	1.0767	7.01	1.02	0.750			
0.3535	22621.86	3.8850	3.8849	1.0837	7.01	1.02	0.750			
0.3567	22831.81	3.8820	3.8820	1.0910	7.00	1.01	0.750			
0.3600	23037.36	3.8790	3.8791	1.1273	6.99	1.00	0.750			
0.3634	23256.23	3.8760	3.8761	1.1689	6.98	0.99	0.750			
0.3669	23482.37	3.8730	3.8730	1.1995	6.96	0.97	0.750			
0.3706	23718.03	3.8700	3.8697	1.2389	6.95	0.96	0.750			
0.3744	23964.27	3.8670	3.8673	1.2504	6.94	0.95	0.750			
0.3784	24217.69	3.8640	3.8640	1.2442	6.93	0.94	0.750			
0.3821	24454.75	3.8610	3.8611	1.2468	6.92	0.93	0.750			
0.3856	24681.13	3.8580	3.8580	1.2367	6.90	0.91	0.750			
0.3894	24921.38	3.8550	3.8547	1.2523	6.89	0.90	0.750			
0.3931	25160.98	3.8520	3.8522	1.2696	6.88	0.89	0.750			
0.3970	25406.99	3.8490	3.8491	1.2810	6.87	0.88	0.750			
0.4009	25655.66	3.8460	3.8461	1.3175	6.86	0.87	0.750			
0.4049	25912.00	3.8430	3.8430	1.3662	6.84	0.85	0.750			
0.4089	26171.46	3.8400	3.8398	1.3882	6.83	0.84	0.750			
0.4132	26443.02	3.8370	3.8373	1.4152	6.82	0.83	0.750	0.423	0.969	
0.4176	26723.82	3.8340	3.8342	1.4439	6.80	0.81	0.750			
0.4219	27003.12	3.8310	3.8308	1.4817	6.78	0.79	0.750			
0.4264	27289.92	3.8280	3.8280	1.4952	6.75	0.76	0.750			
0.4308	27572.61	3.8250	3.8249	1.5177	6.74	0.75	0.750			
0.4355	27869.88	3.8220	3.8222	1.5599	6.72	0.73	0.750			
0.4402	28169.94	3.8190	3.8187	1.5831	6.71	0.72	0.750			
0.4450	28481.14	3.8160	3.8161	1.6166	6.69	0.70	0.750			
0.4499	28791.54	3.8130	3.8130	1.6267	6.68	0.69	0.750			
0.4549	29111.91	3.8100	3.8100	1.6757	6.66	0.67	0.750			
0.4598	29428.90	3.8070	3.8069	1.7149	6.63	0.64	0.750			
0.4651	29765.62	3.8040	3.8038	1.7436	6.61	0.62	0.750			
0.4703	30101.86	3.8010	3.8010	1.7714	6.59	0.60	0.750			
0.4758	30448.43	3.7980	3.7981	1.8011	6.58	0.59	0.750			
0.4812	30797.92	3.7950	3.7949	1.8420	6.55	0.56	0.750			
0.4867	31151.26	3.7920	3.7921	1.8879	6.53	0.54	0.750			
0.4925	31517.86	3.7890	3.7889	1.9405	6.50	0.51	0.750			
0.4984	31898.50	3.7860	3.7861	1.9684	6.48	0.49	0.750			
0.5044	32281.72	3.7830	3.7830	1.9852	6.45	0.46	0.750			
0.5103	32659.35	3.7800	3.7800	1.9883	6.43	0.44	0.750			
0.5162	33037.93	3.7770	3.7771	2.0567	6.41	0.42	0.750			
0.5224	33436.60	3.7740	3.7740	2.0744	6.39	0.40	0.750			
0.5288	33841.10	3.7710	3.7710	2.1263	6.36	0.37	0.750			
0.5352	34254.59	3.7680	3.7679	2.1540	6.34	0.35	0.750			
0.5417	34670.98	3.7650	3.7650	2.1582	6.31	0.32	0.750			
0.5483	35088.91	3.7620	3.7620	2.2000	6.29	0.30	0.750			
0.5548	35504.03	3.7590	3.7590	2.2080	6.26	0.27	0.750			
0.5614	35930.91	3.7560	3.7560	2.2266	6.24	0.25	0.750			
0.5681	36359.39	3.7530	3.7530	2.2691	6.22	0.23	0.750			
0.5750	36802.93	3.7500	3.7499	2.3204	6.20	0.21	0.750			
0.5820	37245.27	3.7470	3.7471	2.4049	6.18	0.19	0.750			
0.5895	37728.96	3.7440	3.7439	2.4614	6.15	0.16	0.750			
0.5969	38203.25	3.7410	3.7409	2.5132	6.13	0.14	0.750			
0.6045	38689.46	3.7380	3.7378	2.5877	6.10	0.11	0.750			
0.6123	39189.74	3.7350	3.7349	2.7016	6.08	0.09	0.750			
0.6207	39724.67	3.7320	3.7320	2.8123	6.06	0.07	0.750			
0.6292	40267.54	3.7290	3.7290	2.8305	6.04	0.05	0.750			
0.6380	40829.02	3.7260	3.7259	2.8785	6.02	0.03	0.750			
0.6467	41389.16	3.7230	3.7229	2.7696	6.00	0.01	0.750			
0.6548	41908.41	3.7200	3.7199	2.6248	5.99	-0.00	0.750			
0.6620	42365.13	3.7170	3.7169	2.3469	5.97	-0.02	0.750			
0.6692	42828.12	3.7140	3.7138	2.2549	5.97	-0.02	0.750			
0.6756	43241.28	3.7110	3.7110	2.0121	5.97	-0.02	0.750			
0.6812	43595.69	3.7080	3.7078	1.7622	5.96	-0.03	0.750			
0.6861	43912.87	3.7050	3.7052	1.5600	5.96	-0.03	0.750			
0.6905	44190.42	3.7020	3.7017	1.3841	5.95	-0.04	0.750			
0.6941	44424.16	3.6990	3.6990	1.2179	5.95	-0.04	0.750			
0.6974	44636.45	3.6960	3.6960	1.0804	5.95	-0.04	0.750			
0.7005	44830.37	3.6930	3.6931	0.9979	5.95	-0.04	0.750			
0.7033	45009.11	3.6900	3.6899	0.9181	5.95	-0.04	0.750			
0.7059	45177.53	3.6870	3.6870	0.8609	5.96	-0.03	0.750			
0.7084	45334.58	3.6840	3.6839	0.8108	5.96	-0.03	0.750			
0.7107	45485.25	3.6810	3.6811	0.7659	5.96	-0.03	0.750			
0.7130	45630.03	3.6780	3.6780	0.7204	5.97	-0.02	0.750			
0.7151	45765.61	3.6750	3.6749	0.6756	5.97	-0.02	0.750			
0.7170	45890.73	3.6720	3.6720	0.6250	5.97	-0.02	0.750			
0.7188	46005.26	3.6690	3.6690	0.5742	5.98	-0.01	0.750			
0.7205	46110.02	3.6660	3.6660	0.5276	5.98	-0.01	0.750			
0.7219	46204.53	3.6630	3.6630	0.4787	5.98	-0.01	0.750			
0.7233	46292.68	3.6600	3.6599	0.4369	5.98	-0.01	0.750			
0.7246	46372.41	3.6570	3.6570	0.3937	5.99	-0.00	0.750			
0.7257	46443.23	3.6540	3.6541	0.3544	5.99	-0.00	0.750			
0.7267	46507.39	3.6510	3.6511	0.3153	5.99	-0.00	0.750			
0.7276	46563.34	3.6480	3.6477	0.2777	5.99	0.00	0.750			
0.7283	46613.80	3.6450	3.6448	0.2394	5.99	0.00	0.750			
0.7290	46656.22	3.6420	3.6421	0.2027	5.99	0.00	0.750			
0.7296	46692.72	3.6390	3.6390	0.1679	5.99	0.00	0.750			
0.7300	46722.78	3.6360	3.6361	0.1299	5.99	0.00	0.750			
0.7304	46744.27	3.6330	3.6334	0.0875	5.99	0.00	0.750			
0.7306	46756.92	3.6300	3.6308	0.0440	6.00	0.01	0.750			
0.7306	46761.18	3.6270	3.6290	0.0004	6.00	0.01	0.750			
