Ah_balance (normalized)	Ah_balance (mAh)	Voltage - fit (V)	Voltage -  interpolate (V)	dQ/dV (1/V)	Temperature (°C)	Temperature - diff (°C)	Current (C)	R_DC 0ms (mOhm)	R_DC 50ms (mOhm)	R_DC 50 ms PEC (mOhm)
0.1817	11629.23	4.0800	4.0800	0.7281	7.33	1.34	0.750			
0.1840	11774.64	4.0770	4.0769	0.7627	7.33	1.34	0.750			
0.1863	11922.81	4.0740	4.0740	0.7763	7.33	1.34	0.750			
0.1887	12077.49	4.0710	4.0710	0.7723	7.32	1.33	0.750			
0.1910	12225.69	4.0680	4.0681	0.7773	7.32	1.33	0.750			
0.1934	12374.48	4.0650	4.0651	0.7819	7.32	1.33	0.750			
0.1957	12521.92	4.0620	4.0621	0.7861	7.31	1.32	0.750			
0.1980	12672.02	4.0590	4.0588	0.7873	7.31	1.32	0.750			
0.2004	12826.05	4.0560	4.0560	0.7882	7.30	1.31	0.750			
0.2028	12978.93	4.0530	4.0531	0.7956	7.30	1.31	0.750			
0.2052	13133.35	4.0500	4.0502	0.8037	7.30	1.31	0.750			
0.2076	13286.80	4.0470	4.0470	0.7997	7.29	1.30	0.750			
0.2100	13440.23	4.0440	4.0438	0.7952	7.29	1.30	0.750			
0.2124	13592.80	4.0410	4.0411	0.8007	7.28	1.29	0.750			
0.2148	13747.81	4.0380	4.0381	0.8031	7.27	1.28	0.750			
0.2172	13900.10	4.0350	4.0350	0.8085	7.27	1.28	0.750			
0.2196	14053.26	4.0320	4.0320	0.8141	7.26	1.27	0.750			
0.2221	14212.11	4.0290	4.0287	0.8182	7.25	1.26	0.750			
0.2245	14370.84	4.0260	4.0260	0.8278	7.24	1.25	0.750			
0.2271	14532.77	4.0230	4.0231	0.8235	7.24	1.25	0.750			
0.2295	14690.32	4.0200	4.0201	0.8258	7.23	1.24	0.750			
0.2320	14847.87	4.0170	4.0170	0.8206	7.23	1.24	0.750			
0.2344	15004.45	4.0140	4.0137	0.8265	7.22	1.23	0.750			
0.2369	15160.63	4.0110	4.0111	0.8306	7.21	1.22	0.750			
0.2394	15322.65	4.0080	4.0081	0.8397	7.21	1.22	0.750			
0.2420	15486.55	4.0050	4.0049	0.8423	7.20	1.21	0.750			
0.2445	15650.40	4.0020	4.0021	0.8253	7.20	1.21	0.750			
0.2469	15802.24	3.9990	3.9991	0.8350	7.19	1.20	0.750			
0.2494	15959.05	3.9960	3.9966	0.8463	7.19	1.20	0.750			
0.2519	16121.80	3.9930	3.9929	0.8547	7.18	1.19	0.750			
0.2545	16286.35	3.9900	3.9908	0.8662	7.18	1.19	0.750			
0.2571	16451.65	3.9870	3.9875	0.8948	7.17	1.18	0.750			
0.2598	16628.52	3.9840	3.9837	0.9340	7.17	1.18	0.750			
0.2627	16815.49	3.9810	3.9810	0.9538	7.16	1.17	0.750			
0.2655	16992.05	3.9780	3.9776	0.9495	7.16	1.17	0.750			
0.2686	17188.35	3.9750	3.9754	0.9590	7.15	1.16	0.750			
0.2715	17375.77	3.9720	3.9720	0.9473	7.14	1.15	0.750			
0.2744	17561.39	3.9690	3.9690	0.9395	7.13	1.14	0.750			
0.2771	17734.87	3.9660	3.9658	0.9108	7.13	1.14	0.750			
0.2797	17898.43	3.9630	3.9631	0.8972	7.12	1.13	0.750			
0.2824	18071.20	3.9600	3.9600	0.9048	7.12	1.13	0.750			
0.2851	18244.33	3.9570	3.9569	0.9087	7.11	1.12	0.750			
0.2878	18420.77	3.9540	3.9540	0.9138	7.10	1.11	0.750			
0.2906	18596.60	3.9510	3.9511	0.9208	7.09	1.10	0.750			
0.2933	18774.13	3.9480	3.9480	0.9290	7.08	1.09	0.750			
0.2961	18951.91	3.9450	3.9450	0.9384	7.07	1.08	0.750			
0.2990	19133.82	3.9420	3.9420	0.9450	7.06	1.07	0.750			
0.3018	19314.33	3.9390	3.9390	0.9440	7.06	1.07	0.750			
0.3046	19495.24	3.9360	3.9362	0.9561	7.05	1.06	0.750			
0.3075	19682.34	3.9330	3.9330	0.9601	7.04	1.05	0.750			
0.3104	19868.50	3.9300	3.9300	0.9508	7.03	1.04	0.750			
0.3133	20050.88	3.9270	3.9273	0.9442	7.02	1.03	0.750			
0.3161	20230.48	3.9240	3.9244	0.9336	7.02	1.03	0.750			
0.3189	20409.23	3.9210	3.9216	0.9309	7.02	1.03	0.750			
0.3216	20583.53	3.9180	3.9186	0.9316	7.01	1.02	0.750			
0.3242	20749.17	3.9150	3.9143	0.9355	7.00	1.01	0.750			
0.3270	20930.79	3.9120	3.9125	0.9762	6.99	1.00	0.750			
0.3300	21120.83	3.9090	3.9089	1.0283	6.98	0.99	0.750			
0.3332	21324.82	3.9060	3.9067	1.0659	6.97	0.98	0.750			
0.3366	21543.79	3.9030	3.9039	1.0846	6.95	0.96	0.750			
0.3399	21753.96	3.9000	3.8997	1.0923	6.94	0.95	0.750			
0.3433	21971.90	3.8970	3.8973	1.1018	6.93	0.94	0.750			
0.3465	22175.55	3.8940	3.8938	1.0888	6.91	0.92	0.750			
0.3496	22375.80	3.8910	3.8912	1.0717	6.91	0.92	0.750			
0.3529	22582.56	3.8880	3.8881	1.0829	6.90	0.91	0.750			
0.3562	22794.68	3.8850	3.8851	1.1086	6.90	0.91	0.750			
0.3597	23017.97	3.8820	3.8816	1.1253	6.89	0.90	0.750			
0.3629	23227.97	3.8790	3.8791	1.1260	6.87	0.88	0.750			
0.3663	23445.59	3.8760	3.8760	1.1420	6.86	0.87	0.750			
0.3698	23666.53	3.8730	3.8731	1.1565	6.84	0.85	0.750			
0.3733	23890.70	3.8700	3.8699	1.1534	6.83	0.84	0.750			
0.3767	24111.41	3.8670	3.8671	1.1800	6.82	0.83	0.750			
0.3803	24338.71	3.8640	3.8641	1.1967	6.80	0.81	0.750			
0.3839	24571.75	3.8610	3.8606	1.2156	6.79	0.80	0.750			
0.3876	24805.79	3.8580	3.8581	1.2314	6.78	0.79	0.750			
0.3913	25044.04	3.8550	3.8551	1.2544	6.77	0.78	0.750			
0.3952	25290.18	3.8520	3.8520	1.2678	6.76	0.77	0.750			
0.3990	25535.37	3.8490	3.8490	1.3022	6.74	0.75	0.750			
0.4028	25778.93	3.8460	3.8461	1.3285	6.73	0.74	0.750			
0.4069	26042.36	3.8430	3.8429	1.3544	6.72	0.73	0.750			
0.4110	26305.48	3.8400	3.8401	1.3880	6.71	0.72	0.750	0.411	0.942	
0.4152	26575.96	3.8370	3.8371	1.4063	6.69	0.70	0.750			
0.4195	26850.72	3.8340	3.8341	1.4364	6.68	0.69	0.750			
0.4239	27128.72	3.8310	3.8310	1.4494	6.66	0.67	0.750			
0.4281	27401.21	3.8280	3.8280	1.4594	6.65	0.66	0.750			
0.4325	27681.73	3.8250	3.8252	1.4938	6.64	0.65	0.750			
0.4371	27971.72	3.8220	3.8219	1.5392	6.62	0.63	0.750			
0.4417	28267.61	3.8190	3.8188	1.5708	6.60	0.61	0.750			
0.4465	28576.55	3.8160	3.8161	1.5967	6.58	0.59	0.750			
0.4514	28892.03	3.8130	3.8133	1.6445	6.56	0.57	0.750			
0.4564	29208.92	3.8100	3.8101	1.6601	6.54	0.55	0.750			
0.4613	29522.67	3.8070	3.8071	1.6931	6.53	0.54	0.750			
0.4664	29846.74	3.8040	3.8042	1.7288	6.51	0.52	0.750			
0.4716	30183.97	3.8010	3.8010	1.7538	6.50	0.51	0.750			
0.4770	30528.07	3.7980	3.7981	1.7877	6.48	0.49	0.750			
0.4825	30877.10	3.7950	3.7952	1.8387	6.46	0.47	0.750			
0.4880	31229.57	3.7920	3.7921	1.8307	6.44	0.45	0.750			
0.4935	31584.69	3.7890	3.7891	1.8461	6.42	0.43	0.750			
0.4990	31935.41	3.7860	3.7861	1.8890	6.40	0.41	0.750			
0.5047	32297.95	3.7830	3.7832	1.9177	6.39	0.40	0.750			
0.5105	32672.66	3.7800	3.7798	1.9415	6.37	0.38	0.750			
0.5165	33055.12	3.7770	3.7769	1.9958	6.34	0.35	0.750			
0.5227	33451.22	3.7740	3.7741	1.9635	6.31	0.32	0.750			
0.5284	33817.95	3.7710	3.7711	1.9039	6.29	0.30	0.750			
0.5340	34177.51	3.7680	3.7682	1.9114	6.27	0.28	0.750			
0.5398	34544.04	3.7650	3.7647	1.9320	6.25	0.26	0.750			
0.5454	34907.70	3.7620	3.7620	1.9883	6.24	0.25	0.750			
0.5516	35305.10	3.7590	3.7589	2.1083	6.22	0.23	0.750			
0.5581	35721.27	3.7560	3.7559	2.1114	6.20	0.21	0.750			
0.5646	36131.29	3.7530	3.7532	2.1558	6.18	0.19	0.750			
0.5709	36535.35	3.7500	3.7501	2.2034	6.16	0.17	0.750			
0.5776	36969.03	3.7470	3.7469	2.2125	6.14	0.15	0.750			
0.5843	37396.02	3.7440	3.7437	2.3793	6.12	0.13	0.750			
0.5915	37857.29	3.7410	3.7406	2.3431	6.10	0.11	0.750			
0.5985	38302.74	3.7380	3.7389	2.4351	6.09	0.10	0.750			
0.6060	38786.21	3.7350	3.7351	2.5277	6.06	0.07	0.750			
0.6139	39286.63	3.7320	3.7320	2.5743	6.04	0.05	0.750			
0.6213	39761.74	3.7290	3.7291	2.5170	6.03	0.04	0.750			
0.6289	40246.53	3.7260	3.7259	2.4822	6.02	0.03	0.750			
0.6363	40725.36	3.7230	3.7232	2.3901	6.01	0.02	0.750			
0.6436	41188.70	3.7200	3.7201	2.3213	6.00	0.01	0.750			
0.6503	41618.56	3.7170	3.7168	2.1953	5.98	-0.01	0.750			
0.6567	42028.11	3.7140	3.7138	2.0184	5.97	-0.02	0.750			
0.6624	42393.34	3.7110	3.7117	1.8056	5.97	-0.02	0.750			
0.6674	42711.01	3.7080	3.7077	1.5888	5.97	-0.02	0.750			
0.6719	43001.69	3.7050	3.7046	1.4271	5.97	-0.02	0.750			
0.6758	43252.03	3.7020	3.7021	1.2848	5.97	-0.02	0.750			
0.6793	43476.04	3.6990	3.6992	1.1719	5.96	-0.03	0.750			
0.6826	43684.40	3.6960	3.6961	1.0767	5.96	-0.03	0.750			
0.6857	43882.35	3.6930	3.6928	1.0064	5.96	-0.03	0.750			
0.6886	44069.52	3.6900	3.6901	0.9555	5.96	-0.03	0.750			
0.6914	44248.71	3.6870	3.6871	0.9132	5.95	-0.04	0.750			
0.6941	44421.03	3.6840	3.6840	0.8776	5.95	-0.04	0.750			
0.6966	44582.83	3.6810	3.6809	0.8301	5.95	-0.04	0.750			
0.6990	44736.73	3.6780	3.6780	0.7896	5.95	-0.04	0.750			
0.7014	44887.99	3.6750	3.6750	0.7604	5.96	-0.03	0.750			
0.7036	45031.29	3.6720	3.6720	0.7212	5.96	-0.03	0.750			
0.7057	45166.25	3.6690	3.6690	0.6827	5.96	-0.03	0.750			
0.7077	45292.15	3.6660	3.6660	0.6448	5.97	-0.02	0.750			
0.7096	45411.39	3.6630	3.6627	0.6084	5.97	-0.02	0.750			
0.7113	45526.24	3.6600	3.6600	0.5672	5.97	-0.02	0.750			
0.7130	45631.77	3.6570	3.6571	0.5275	5.98	-0.01	0.750			
0.7145	45730.76	3.6540	3.6540	0.4880	5.98	-0.01	0.750			
0.7159	45820.40	3.6510	3.6510	0.4482	5.98	-0.01	0.750			
0.7172	45900.23	3.6480	3.6478	0.4046	5.98	-0.01	0.750			
0.7183	45973.04	3.6450	3.6450	0.3665	5.98	-0.01	0.750			
0.7194	46039.41	3.6420	3.6421	0.3318	5.99	-0.00	0.750			
0.7203	46100.91	3.6390	3.6390	0.3015	5.99	-0.00	0.750			
0.7212	46155.72	3.6360	3.6359	0.2681	5.99	-0.00	0.750			
0.7219	46204.67	3.6330	3.6327	0.2313	5.99	-0.00	0.750			
0.7226	46245.84	3.6300	3.6302	0.1955	5.99	0.00	0.750			
0.7231	46280.97	3.6270	3.6270	0.1609	5.99	0.00	0.750			
0.7236	46309.03	3.6240	3.6242	0.1236	5.99	0.00	0.750			
0.7239	46329.94	3.6210	3.6213	0.0843	5.99	0.00	0.750			
0.7241	46341.23	3.6180	3.6182	0.0441	5.99	0.00	0.750			
0.7241	46343.09	3.6120	3.6168	-0.0344	5.99	0.00	0.750			
0.7242	46345.93	3.6150	3.6135	0.0048	5.99	0.00	0.750			
