Ah_balance (normalized)	Ah_balance (mAh)	Voltage - fit (V)	Voltage -  interpolate (V)	dQ/dV (1/V)	Temperature (°C)	Temperature - diff (°C)	Current (C)	R_DC 0ms (mOhm)	R_DC 50ms (mOhm)	R_DC 50 ms PEC (mOhm)
0.1750	11200.40	4.0830	4.0830	0.7494	7.56	1.57	0.750			
0.1773	11346.57	4.0800	4.0800	0.7664	7.56	1.57	0.750			
0.1797	11497.97	4.0770	4.0769	0.7729	7.55	1.56	0.750			
0.1819	11643.70	4.0740	4.0740	0.7682	7.55	1.56	0.750			
0.1842	11790.16	4.0710	4.0711	0.7772	7.54	1.55	0.750			
0.1865	11938.70	4.0680	4.0681	0.7771	7.53	1.54	0.750			
0.1889	12087.76	4.0650	4.0647	0.7791	7.53	1.54	0.750			
0.1912	12237.15	4.0620	4.0621	0.7875	7.53	1.54	0.750			
0.1936	12389.89	4.0590	4.0591	0.7940	7.53	1.54	0.750			
0.1960	12543.50	4.0560	4.0559	0.7979	7.53	1.54	0.750			
0.1984	12697.57	4.0530	4.0530	0.7958	7.53	1.54	0.750			
0.2008	12850.70	4.0500	4.0498	0.8000	7.53	1.54	0.750			
0.2032	13007.10	4.0470	4.0470	0.8042	7.52	1.53	0.750			
0.2057	13163.05	4.0440	4.0440	0.7912	7.52	1.53	0.750			
0.2080	13310.96	4.0410	4.0410	0.7991	7.51	1.52	0.750			
0.2104	13464.54	4.0380	4.0382	0.8055	7.51	1.52	0.750			
0.2128	13618.68	4.0350	4.0347	0.8104	7.50	1.51	0.750			
0.2152	13774.80	4.0320	4.0321	0.8134	7.50	1.51	0.750			
0.2177	13932.91	4.0290	4.0290	0.8118	7.49	1.50	0.750			
0.2201	14089.33	4.0260	4.0261	0.8195	7.48	1.49	0.750			
0.2226	14248.69	4.0230	4.0229	0.8290	7.48	1.49	0.750			
0.2250	14403.18	4.0200	4.0200	0.8256	7.47	1.48	0.750			
0.2276	14564.60	4.0170	4.0170	0.8322	7.47	1.48	0.750			
0.2301	14727.62	4.0140	4.0140	0.8265	7.46	1.47	0.750			
0.2326	14885.52	4.0110	4.0111	0.8357	7.46	1.47	0.750			
0.2351	15045.96	4.0080	4.0080	0.8419	7.46	1.47	0.750			
0.2376	15206.17	4.0050	4.0049	0.8380	7.45	1.46	0.750			
0.2401	15367.51	4.0020	4.0020	0.8406	7.45	1.46	0.750			
0.2427	15529.65	3.9990	3.9991	0.8438	7.44	1.45	0.750			
0.2452	15692.43	3.9960	3.9961	0.8494	7.43	1.44	0.750			
0.2477	15854.34	3.9930	3.9930	0.8487	7.43	1.44	0.750			
0.2503	16019.08	3.9900	3.9898	0.8534	7.42	1.43	0.750			
0.2529	16182.43	3.9870	3.9870	0.8564	7.42	1.43	0.750			
0.2555	16348.91	3.9840	3.9841	0.8614	7.41	1.42	0.750			
0.2581	16515.25	3.9810	3.9810	0.8674	7.40	1.41	0.750			
0.2606	16680.16	3.9780	3.9780	0.8699	7.40	1.41	0.750			
0.2633	16848.84	3.9750	3.9745	0.8759	7.39	1.40	0.750			
0.2659	17016.96	3.9720	3.9720	0.8791	7.39	1.40	0.750			
0.2686	17187.40	3.9690	3.9691	0.8891	7.38	1.39	0.750			
0.2712	17358.79	3.9660	3.9660	0.8975	7.38	1.39	0.750			
0.2739	17532.28	3.9630	3.9630	0.9015	7.37	1.38	0.750			
0.2766	17704.88	3.9600	3.9600	0.9014	7.37	1.38	0.750			
0.2794	17879.87	3.9570	3.9570	0.8976	7.36	1.37	0.750			
0.2821	18052.61	3.9540	3.9541	0.9080	7.36	1.37	0.750			
0.2848	18226.01	3.9510	3.9511	0.9106	7.36	1.37	0.750			
0.2875	18398.91	3.9480	3.9479	0.9162	7.35	1.36	0.750			
0.2903	18577.05	3.9450	3.9450	0.9176	7.34	1.35	0.750			
0.2930	18753.73	3.9420	3.9420	0.9262	7.34	1.35	0.750			
0.2958	18932.04	3.9390	3.9390	0.9343	7.33	1.34	0.750			
0.2986	19113.18	3.9360	3.9360	0.9446	7.32	1.33	0.750			
0.3014	19291.16	3.9330	3.9329	0.9490	7.31	1.32	0.750			
0.3043	19476.33	3.9300	3.9300	0.9568	7.30	1.31	0.750			
0.3072	19660.83	3.9270	3.9269	0.9626	7.30	1.31	0.750			
0.3101	19848.18	3.9240	3.9241	0.9727	7.30	1.31	0.750			
0.3131	20035.28	3.9210	3.9210	0.9750	7.29	1.30	0.750			
0.3160	20223.73	3.9180	3.9179	0.9730	7.28	1.29	0.750			
0.3189	20408.97	3.9150	3.9150	0.9892	7.27	1.28	0.750			
0.3218	20597.46	3.9120	3.9120	0.9986	7.26	1.27	0.750			
0.3249	20791.44	3.9090	3.9089	1.0123	7.25	1.26	0.750			
0.3279	20988.32	3.9060	3.9061	1.0157	7.24	1.25	0.750			
0.3310	21183.88	3.9030	3.9031	1.0285	7.24	1.25	0.750			
0.3341	21382.47	3.9000	3.9000	1.0438	7.23	1.24	0.750			
0.3372	21582.52	3.8970	3.8971	1.0503	7.22	1.23	0.750			
0.3404	21788.16	3.8940	3.8940	1.0492	7.21	1.22	0.750			
0.3436	21991.38	3.8910	3.8911	1.0635	7.20	1.21	0.750			
0.3468	22194.74	3.8880	3.8882	1.0773	7.19	1.20	0.750			
0.3501	22403.24	3.8850	3.8849	1.0915	7.18	1.19	0.750			
0.3533	22611.04	3.8820	3.8820	1.0956	7.17	1.18	0.750			
0.3566	22821.53	3.8790	3.8790	1.1034	7.17	1.18	0.750			
0.3599	23035.94	3.8760	3.8761	1.1194	7.16	1.17	0.750			
0.3634	23255.73	3.8730	3.8730	1.1270	7.15	1.16	0.750			
0.3668	23472.69	3.8700	3.8700	1.1427	7.14	1.15	0.750			
0.3701	23689.27	3.8670	3.8670	1.1573	7.13	1.14	0.750			
0.3737	23915.18	3.8640	3.8641	1.1809	7.12	1.13	0.750			
0.3772	24142.76	3.8610	3.8611	1.2033	7.10	1.11	0.750			
0.3809	24376.68	3.8580	3.8582	1.2218	7.09	1.10	0.750			
0.3846	24613.63	3.8550	3.8550	1.2396	7.08	1.09	0.750			
0.3884	24855.69	3.8520	3.8520	1.2456	7.06	1.07	0.750			
0.3921	25093.11	3.8490	3.8491	1.2601	7.05	1.06	0.750			
0.3958	25332.23	3.8460	3.8461	1.2994	7.04	1.05	0.750			
0.3998	25586.76	3.8430	3.8429	1.3213	7.03	1.04	0.750			
0.4038	25841.85	3.8400	3.8398	1.3668	7.02	1.03	0.750			
0.4079	26108.29	3.8370	3.8371	1.4071	7.01	1.02	0.750	0.387	0.888	
0.4123	26385.55	3.8340	3.8339	1.4201	6.99	1.00	0.750			
0.4167	26666.94	3.8310	3.8311	1.4492	6.98	0.99	0.750			
0.4210	26944.82	3.8280	3.8281	1.4691	6.97	0.98	0.750			
0.4254	27224.65	3.8250	3.8247	1.4919	6.95	0.96	0.750			
0.4299	27512.78	3.8220	3.8220	1.5039	6.93	0.94	0.750			
0.4345	27807.48	3.8190	3.8190	1.5295	6.91	0.92	0.750			
0.4391	28102.41	3.8160	3.8161	1.5717	6.89	0.90	0.750			
0.4438	28405.69	3.8130	3.8130	1.6025	6.87	0.88	0.750			
0.4487	28719.14	3.8100	3.8101	1.6189	6.86	0.87	0.750			
0.4536	29031.81	3.8070	3.8071	1.6540	6.84	0.85	0.750			
0.4587	29354.60	3.8040	3.8039	1.6970	6.81	0.82	0.750			
0.4638	29682.72	3.8010	3.8005	1.7348	6.79	0.80	0.750			
0.4690	30018.12	3.7980	3.7979	1.7512	6.77	0.78	0.750			
0.4744	30361.79	3.7950	3.7951	1.7701	6.75	0.76	0.750			
0.4798	30708.55	3.7920	3.7922	1.8210	6.73	0.74	0.750			
0.4853	31061.41	3.7890	3.7891	1.8240	6.70	0.71	0.750			
0.4908	31411.20	3.7860	3.7860	1.8546	6.68	0.69	0.750			
0.4963	31763.14	3.7830	3.7830	1.8821	6.66	0.67	0.750			
0.5019	32124.64	3.7800	3.7800	1.9115	6.64	0.65	0.750			
0.5078	32499.95	3.7770	3.7769	1.9341	6.62	0.63	0.750			
0.5137	32876.55	3.7740	3.7738	1.9502	6.59	0.60	0.750			
0.5194	33242.67	3.7710	3.7707	1.9543	6.57	0.58	0.750			
0.5254	33624.03	3.7680	3.7679	1.9847	6.55	0.56	0.750			
0.5313	34003.60	3.7650	3.7652	2.0125	6.52	0.53	0.750			
0.5375	34402.81	3.7620	3.7620	2.0477	6.48	0.49	0.750			
0.5438	34805.30	3.7590	3.7589	2.0848	6.46	0.47	0.750			
0.5502	35209.70	3.7560	3.7561	2.1201	6.43	0.44	0.750			
0.5565	35618.04	3.7530	3.7529	2.1406	6.39	0.40	0.750			
0.5628	36019.98	3.7500	3.7500	2.2078	6.35	0.36	0.750			
0.5697	36461.90	3.7470	3.7469	2.2891	6.33	0.34	0.750			
0.5767	36910.90	3.7440	3.7441	2.3266	6.31	0.32	0.750			
0.5839	37366.64	3.7410	3.7409	2.4098	6.28	0.29	0.750			
0.5911	37827.65	3.7380	3.7378	2.4391	6.25	0.26	0.750			
0.5986	38308.83	3.7350	3.7349	2.4687	6.22	0.23	0.750			
0.6060	38786.35	3.7320	3.7321	2.5351	6.19	0.20	0.750			
0.6137	39275.84	3.7290	3.7289	2.5652	6.16	0.17	0.750			
0.6214	39771.86	3.7260	3.7260	2.6061	6.13	0.14	0.750			
0.6293	40276.86	3.7230	3.7228	2.5863	6.11	0.12	0.750			
0.6371	40774.03	3.7200	3.7200	2.4522	6.07	0.08	0.750			
0.6443	41236.16	3.7170	3.7171	2.3462	6.06	0.07	0.750			
0.6511	41668.20	3.7140	3.7139	2.1140	6.05	0.06	0.750			
0.6571	42053.09	3.7110	3.7113	1.9106	6.03	0.04	0.750			
0.6625	42401.49	3.7080	3.7077	1.6904	6.01	0.02	0.750			
0.6671	42696.95	3.7050	3.7051	1.5084	6.00	0.01	0.750			
0.6713	42960.33	3.7020	3.7021	1.3336	6.00	0.01	0.750			
0.6749	43194.11	3.6990	3.6988	1.2111	5.99	0.00	0.750			
0.6783	43414.03	3.6960	3.6961	1.1106	5.99	-0.00	0.750			
0.6813	43605.75	3.6930	3.6930	1.0250	5.98	-0.01	0.750			
0.6843	43793.91	3.6900	3.6900	0.9782	5.98	-0.01	0.750			
0.6871	43974.82	3.6870	3.6870	0.9285	5.97	-0.02	0.750			
0.6898	44148.94	3.6840	3.6840	0.8916	5.97	-0.02	0.750			
0.6925	44320.78	3.6810	3.6810	0.8594	5.97	-0.02	0.750			
0.6950	44481.74	3.6780	3.6780	0.8267	5.97	-0.02	0.750			
0.6975	44637.78	3.6750	3.6750	0.7930	5.97	-0.02	0.750			
0.6998	44785.35	3.6720	3.6720	0.7541	5.97	-0.02	0.750			
0.7020	44927.00	3.6690	3.6691	0.7177	5.97	-0.02	0.750			
0.7041	45062.11	3.6660	3.6661	0.6805	5.98	-0.01	0.750			
0.7061	45190.17	3.6630	3.6630	0.6425	5.98	-0.01	0.750			
0.7080	45311.31	3.6600	3.6600	0.6000	5.98	-0.01	0.750			
0.7097	45420.17	3.6570	3.6570	0.5593	5.98	-0.01	0.750			
0.7113	45523.57	3.6540	3.6541	0.5227	5.99	-0.00	0.750			
0.7128	45620.22	3.6510	3.6508	0.4842	5.99	-0.00	0.750			
0.7142	45709.64	3.6480	3.6481	0.4473	5.99	0.00	0.750			
0.7155	45792.41	3.6450	3.6450	0.4110	5.99	0.00	0.750			
0.7167	45867.63	3.6420	3.6420	0.3729	6.00	0.01	0.750			
0.7178	45936.45	3.6390	3.6391	0.3378	6.00	0.01	0.750			
0.7187	45996.29	3.6360	3.6359	0.3001	6.00	0.01	0.750			
0.7196	46051.43	3.6330	3.6329	0.2634	6.00	0.01	0.750			
0.7203	46098.88	3.6300	3.6298	0.2283	6.00	0.01	0.750			
0.7209	46138.86	3.6270	3.6270	0.1904	6.00	0.01	0.750			
0.7215	46173.48	3.6240	3.6241	0.1555	6.00	0.01	0.750			
0.7219	46200.96	3.6210	3.6213	0.1175	6.00	0.01	0.750			
0.7222	46219.53	3.6180	3.6186	0.0759	6.00	0.01	0.750			
0.7224	46231.04	3.6150	3.6150	0.0313	6.00	0.01	0.750			
0.7224	46232.81	3.6120	3.6135	-0.0129	6.00	0.01	0.750			
