Ah_balance (normalized)	Ah_balance (mAh)	Voltage - fit (V)	Voltage -  interpolate (V)	dQ/dV (1/V)	Temperature (°C)	Temperature - diff (°C)	Current (C)	R_DC 0ms (mOhm)	R_DC 50ms (mOhm)	R_DC 50 ms PEC (mOhm)
0.4803	30740.59	3.7580	3.7579	1.6926	25.68	1.01	0.750			
0.4851	31046.77	3.7550	3.7552	1.6540	25.66	0.99	0.750			
0.4901	31369.15	3.7520	3.7519	1.6797	25.63	0.96	0.750			
0.4953	31698.09	3.7490	3.7493	1.6942	25.61	0.94	0.750			
0.5003	32022.33	3.7460	3.7459	1.7385	25.58	0.91	0.750			
0.5057	32363.30	3.7430	3.7429	1.7696	25.56	0.89	0.750			
0.5110	32701.72	3.7400	3.7402	1.8354	25.53	0.86	0.750			
0.5167	33066.85	3.7370	3.7368	1.8609	25.50	0.83	0.750			
0.5223	33430.03	3.7340	3.7340	1.9007	25.48	0.81	0.750			
0.5281	33800.92	3.7310	3.7309	1.9653	25.45	0.78	0.750			
0.5341	34179.97	3.7280	3.7280	1.9706	25.41	0.74	0.750			
0.5400	34562.24	3.7250	3.7251	2.0374	25.38	0.71	0.750			
0.5460	34946.41	3.7220	3.7219	2.1068	25.35	0.68	0.750			
0.5525	35359.88	3.7190	3.7190	2.1696	25.32	0.65	0.750			
0.5594	35798.74	3.7160	3.7160	2.2808	25.28	0.61	0.750			
0.5663	36240.36	3.7130	3.7130	2.3303	25.25	0.58	0.750			
0.5733	36689.71	3.7100	3.7099	2.3835	25.21	0.54	0.750			
0.5805	37154.24	3.7070	3.7069	2.3986	25.18	0.51	0.750			
0.5878	37622.26	3.7040	3.7041	2.5352	25.15	0.48	0.750			
0.5956	38115.84	3.7010	3.7010	2.6035	25.12	0.45	0.750			
0.6036	38629.97	3.6980	3.6979	2.7369	25.09	0.42	0.750			
0.6116	39143.54	3.6950	3.6950	2.7988	25.05	0.38	0.750			
0.6203	39701.00	3.6920	3.6920	2.9124	25.02	0.35	0.750			
0.6295	40284.87	3.6890	3.6889	3.1342	24.99	0.32	0.750			
0.6392	40906.62	3.6860	3.6860	3.2609	24.95	0.28	0.750			
0.6489	41527.38	3.6830	3.6830	3.3219	24.92	0.25	0.750			
0.6591	42180.11	3.6800	3.6801	3.3274	24.89	0.22	0.750			
0.6689	42806.94	3.6770	3.6771	3.1841	24.86	0.19	0.750			
0.6782	43404.33	3.6740	3.6741	3.0177	24.83	0.16	0.750			
0.6870	43969.15	3.6710	3.6709	2.7268	24.81	0.14	0.750			
0.6946	44454.06	3.6680	3.6679	2.3720	24.80	0.13	0.750			
0.7011	44868.24	3.6650	3.6650	2.0345	24.79	0.12	0.750			
0.7068	45232.52	3.6620	3.6619	1.8762	24.78	0.11	0.750			
0.7121	45572.96	3.6590	3.6589	1.7577	24.77	0.10	0.750			
0.7172	45898.14	3.6560	3.6562	1.6539	24.77	0.10	0.750			
0.7220	46205.67	3.6530	3.6530	1.5697	24.76	0.09	0.750			
0.7266	46499.99	3.6500	3.6498	1.4832	24.76	0.09	0.750			
0.7308	46771.99	3.6470	3.6471	1.4122	24.75	0.08	0.750			
0.7349	47034.84	3.6440	3.6441	1.3592	24.74	0.07	0.750			
0.7390	47297.12	3.6410	3.6409	1.3188	24.73	0.06	0.750			
0.7427	47535.01	3.6380	3.6381	1.2873	24.72	0.05	0.750			
0.7465	47778.24	3.6350	3.6352	1.2926	24.72	0.05	0.750			
0.7504	48028.36	3.6320	3.6316	1.2990	24.71	0.04	0.750			
0.7543	48274.57	3.6290	3.6291	1.3023	24.70	0.03	0.750			
0.7583	48529.25	3.6260	3.6261	1.3046	24.70	0.03	0.750			
0.7623	48785.55	3.6230	3.6229	1.3046	24.69	0.02	0.750			
0.7661	49032.76	3.6200	3.6201	1.2816	24.69	0.02	0.750			
0.7699	49274.22	3.6170	3.6171	1.2736	24.68	0.01	0.750			
0.7737	49518.59	3.6140	3.6140	1.2788	24.67	0.00	0.750			
0.7775	49760.97	3.6110	3.6111	1.2750	24.66	-0.01	0.750			
0.7814	50010.19	3.6080	3.6081	1.2797	24.65	-0.02	0.750			
0.7851	50248.18	3.6050	3.6052	1.3378	24.64	-0.03	0.750			
0.7893	50514.90	3.6020	3.6021	1.3486	24.63	-0.04	0.750			
0.7934	50774.98	3.5990	3.5986	1.3908	24.62	-0.05	0.750			
0.7977	51052.71	3.5960	3.5965	1.4273	24.62	-0.05	0.750			
0.8020	51331.03	3.5930	3.5930	1.4614	24.61	-0.06	0.750			
0.8064	51610.77	3.5900	3.5901	1.4642	24.59	-0.08	0.750			
0.8106	51881.12	3.5870	3.5871	1.4922	24.58	-0.09	0.750			
0.8153	52176.01	3.5840	3.5842	1.5219	24.57	-0.10	0.750			
0.8199	52473.97	3.5810	3.5807	1.5556	24.56	-0.11	0.750			
0.8247	52778.09	3.5780	3.5781	1.6011	24.55	-0.12	0.750			
0.8294	53083.45	3.5750	3.5753	1.6429	24.54	-0.13	0.750			
0.8344	53401.95	3.5720	3.5721	1.6698	24.53	-0.14	0.750			
0.8396	53736.25	3.5690	3.5688	1.6829	24.52	-0.15	0.750			
0.8448	54067.44	3.5660	3.5658	1.6768	24.50	-0.17	0.750			
0.8497	54382.25	3.5630	3.5632	1.6842	24.49	-0.18	0.750			
0.8547	54702.65	3.5600	3.5601	1.6825	24.48	-0.19	0.750			
0.8596	55015.95	3.5570	3.5571	1.6901	24.48	-0.19	0.750			
0.8650	55359.58	3.5540	3.5540	1.7321	24.47	-0.20	0.750			
0.8702	55692.76	3.5510	3.5509	1.7804	24.46	-0.21	0.750			
0.8758	56053.50	3.5480	3.5476	1.6752	24.46	-0.21	0.750			
0.8806	56355.53	3.5450	3.5453	1.4118	24.46	-0.21	0.750			
0.8849	56630.76	3.5420	3.5423	1.2089	24.47	-0.20	0.750			
0.8881	56841.33	3.5390	3.5390	0.9684	24.47	-0.20	0.750			
0.8905	56989.11	3.5360	3.5358	0.7685	24.48	-0.19	0.750			
0.8921	57092.40	3.5330	3.5326	0.5732	24.48	-0.19	0.750			
0.8933	57173.91	3.5300	3.5300	0.4653	24.48	-0.19	0.750			
0.8945	57249.99	3.5270	3.5271	0.3986	24.48	-0.19	0.750			
0.8955	57314.62	3.5240	3.5239	0.3576	24.49	-0.18	0.750			
0.8965	57378.34	3.5210	3.5208	0.3324	24.49	-0.18	0.750			
0.8974	57436.43	3.5180	3.5180	0.3124	24.49	-0.18	0.750			
0.8984	57494.96	3.5150	3.5151	0.3045	24.49	-0.18	0.750			
0.8993	57553.43	3.5120	3.5120	0.2993	24.50	-0.17	0.750			
0.9002	57609.90	3.5090	3.5090	0.2917	24.50	-0.17	0.750			
0.9010	57665.12	3.5060	3.5060	0.2844	24.50	-0.17	0.750			
0.9019	57718.98	3.5030	3.5031	0.2780	24.50	-0.17	0.750			
0.9027	57772.03	3.5000	3.5000	0.2723	24.51	-0.16	0.750			
0.9035	57823.61	3.4970	3.4970	0.2673	24.51	-0.16	0.750			
0.9043	57874.09	3.4940	3.4939	0.2620	24.51	-0.16	0.750			
0.9050	57923.11	3.4910	3.4910	0.2573	24.52	-0.15	0.750			
0.9058	57972.45	3.4880	3.4879	0.2539	24.52	-0.15	0.750			
0.9066	58020.70	3.4850	3.4850	0.2502	24.52	-0.15	0.750			
0.9073	58068.58	3.4820	3.4819	0.2473	24.53	-0.14	0.750			
0.9081	58115.77	3.4790	3.4790	0.2434	24.53	-0.14	0.750			
0.9088	58162.44	3.4760	3.4759	0.2392	24.53	-0.14	0.750			
0.9095	58207.84	3.4730	3.4730	0.2347	24.53	-0.14	0.750			
0.9102	58252.53	3.4700	3.4701	0.2317	24.54	-0.13	0.750			
0.9109	58296.43	3.4670	3.4670	0.2279	24.54	-0.13	0.750			
0.9116	58339.45	3.4640	3.4640	0.2256	24.54	-0.13	0.750			
0.9122	58382.62	3.4610	3.4609	0.2233	24.55	-0.12	0.750			
0.9129	58424.86	3.4580	3.4580	0.2207	24.55	-0.12	0.750			
0.9135	58466.61	3.4550	3.4550	0.2222	24.55	-0.12	0.750			
0.9142	58509.27	3.4520	3.4522	0.2224	24.55	-0.12	0.750			
0.9149	58552.56	3.4490	3.4489	0.2203	24.55	-0.12	0.750			
0.9156	58595.45	3.4460	3.4457	0.2168	24.55	-0.12	0.750			
0.9162	58638.30	3.4430	3.4430	0.2121	24.55	-0.12	0.750			
0.9169	58679.17	3.4400	3.4401	0.2060	24.56	-0.11	0.750			
0.9175	58717.72	3.4370	3.4370	0.2022	24.56	-0.11	0.750			
0.9180	58753.61	3.4340	3.4341	0.1956	24.56	-0.11	0.750			
0.9186	58790.51	3.4310	3.4310	0.1930	24.56	-0.11	0.750			
0.9192	58827.62	3.4280	3.4277	0.1935	24.56	-0.11	0.750			
0.9198	58864.86	3.4250	3.4250	0.1906	24.56	-0.11	0.750			
0.9204	58903.13	3.4220	3.4221	0.1867	24.56	-0.11	0.750			
0.9209	58939.25	3.4190	3.4191	0.1859	24.56	-0.11	0.750			
0.9215	58974.19	3.4160	3.4161	0.1782	24.56	-0.11	0.750			
0.9220	59006.63	3.4130	3.4131	0.1734	24.56	-0.11	0.750			
0.9225	59037.72	3.4100	3.4097	0.1704	24.56	-0.11	0.750			
0.9230	59069.21	3.4070	3.4070	0.1690	24.57	-0.10	0.750			
0.9235	59102.30	3.4040	3.4041	0.1700	24.57	-0.10	0.750			
0.9240	59135.46	3.4010	3.4009	0.1697	24.57	-0.10	0.750			
0.9245	59169.20	3.3980	3.3980	0.1714	24.57	-0.10	0.750			
0.9250	59201.81	3.3950	3.3951	0.1692	24.57	-0.10	0.750			
0.9255	59234.15	3.3920	3.3920	0.1671	24.57	-0.10	0.750			
0.9260	59266.36	3.3890	3.3890	0.1652	24.57	-0.10	0.750			
0.9265	59297.05	3.3860	3.3859	0.1626	24.57	-0.10	0.750			
0.9270	59328.19	3.3830	3.3833	0.1617	24.58	-0.09	0.750			
0.9275	59359.40	3.3800	3.3800	0.1600	24.58	-0.09	0.750			
0.9280	59390.11	3.3770	3.3769	0.1581	24.58	-0.09	0.750			
0.9284	59420.20	3.3740	3.3740	0.1560	24.58	-0.09	0.750			
0.9289	59450.05	3.3710	3.3711	0.1535	24.58	-0.09	0.750			
0.9294	59479.51	3.3680	3.3680	0.1516	24.59	-0.08	0.750			
0.9298	59508.11	3.3650	3.3650	0.1502	24.59	-0.08	0.750			
0.9303	59536.17	3.3620	3.3620	0.1475	24.59	-0.08	0.750			
0.9307	59564.64	3.3590	3.3591	0.1460	24.59	-0.08	0.750			
0.9311	59592.73	3.3560	3.3559	0.1448	24.60	-0.07	0.750			
0.9316	59620.44	3.3530	3.3532	0.1433	24.60	-0.07	0.750			
0.9320	59647.81	3.3500	3.3500	0.1418	24.60	-0.07	0.750			
0.9324	59674.99	3.3470	3.3470	0.1407	24.60	-0.07	0.750			
0.9328	59701.85	3.3440	3.3440	0.1388	24.60	-0.07	0.750			
0.9333	59728.22	3.3410	3.3410	0.1365	24.61	-0.06	0.750			
0.9337	59754.29	3.3380	3.3380	0.1350	24.61	-0.06	0.750			
0.9341	59780.24	3.3350	3.3351	0.1341	24.61	-0.06	0.750			
0.9345	59805.72	3.3320	3.3320	0.1325	24.61	-0.06	0.750			
0.9349	59831.02	3.3290	3.3289	0.1310	24.61	-0.06	0.750			
0.9353	59856.03	3.3260	3.3260	0.1296	24.62	-0.05	0.750			
0.9356	59880.71	3.3230	3.3230	0.1281	24.62	-0.05	0.750			
0.9360	59905.36	3.3200	3.3200	0.1270	24.62	-0.05	0.750			
0.9364	59929.73	3.3170	3.3170	0.1255	24.62	-0.05	0.750			
0.9368	59953.65	3.3140	3.3139	0.1236	24.62	-0.05	0.750			
0.9371	59976.97	3.3110	3.3110	0.1219	24.62	-0.05	0.750			
0.9375	60000.27	3.3080	3.3080	0.1205	24.63	-0.04	0.750			
0.9379	60023.15	3.3050	3.3050	0.1194	24.63	-0.04	0.750			
0.9382	60045.88	3.3020	3.3021	0.1181	24.63	-0.04	0.750			
0.9386	60068.51	3.2990	3.2989	0.1168	24.63	-0.04	0.750			
0.9389	60090.73	3.2960	3.2961	0.1155	24.63	-0.04	0.750			
0.9393	60112.80	3.2930	3.2930	0.1144	24.63	-0.04	0.750			
0.9396	60134.79	3.2900	3.2900	0.1135	24.63	-0.04	0.750			
0.9399	60156.58	3.2870	3.2870	0.1117	24.64	-0.03	0.750			
0.9403	60177.98	3.2840	3.2841	0.1102	24.64	-0.03	0.750			
0.9406	60198.84	3.2810	3.2809	0.1089	24.64	-0.03	0.750			
0.9409	60219.54	3.2780	3.2780	0.1074	24.64	-0.03	0.750			
0.9413	60240.05	3.2750	3.2751	0.1060	24.64	-0.03	0.750			
0.9416	60260.30	3.2720	3.2719	0.1047	24.64	-0.03	0.750			
0.9419	60280.22	3.2690	3.2691	0.1034	24.64	-0.03	0.750			
0.9422	60299.78	3.2660	3.2660	0.1019	24.64	-0.03	0.750			
0.9425	60319.18	3.2630	3.2630	0.1010	24.64	-0.03	0.750			
0.9428	60338.59	3.2600	3.2600	0.1002	24.64	-0.03	0.750			
0.9431	60357.76	3.2570	3.2569	0.0990	24.65	-0.02	0.750			
0.9434	60376.52	3.2540	3.2539	0.0977	24.65	-0.02	0.750			
0.9437	60395.25	3.2510	3.2510	0.0966	24.65	-0.02	0.750			
0.9440	60413.83	3.2480	3.2480	0.0957	24.65	-0.02	0.750			
0.9443	60432.13	3.2450	3.2450	0.0942	24.65	-0.02	0.750			
0.9445	60450.20	3.2420	3.2420	0.0929	24.65	-0.02	0.750			
0.9448	60467.76	3.2390	3.2390	0.0917	24.65	-0.02	0.750			
0.9451	60485.09	3.2360	3.2360	0.0902	24.65	-0.02	0.750			
0.9453	60502.23	3.2330	3.2331	0.0892	24.65	-0.02	0.750			
0.9456	60519.20	3.2300	3.2299	0.0881	24.65	-0.02	0.750			
0.9459	60536.16	3.2270	3.2270	0.0869	24.65	-0.02	0.750			
0.9461	60552.74	3.2240	3.2240	0.0858	24.65	-0.02	0.750			
0.9464	60569.09	3.2210	3.2210	0.0846	24.66	-0.01	0.750			
0.9466	60585.30	3.2180	3.2180	0.0839	24.66	-0.01	0.750			
0.9469	60601.30	3.2150	3.2151	0.0828	24.66	-0.01	0.750			
0.9471	60616.98	3.2120	3.2120	0.0815	24.66	-0.01	0.750			
0.9474	60632.54	3.2090	3.2089	0.0806	24.66	-0.01	0.750			
0.9476	60647.78	3.2060	3.2060	0.0795	24.66	-0.01	0.750			
0.9479	60663.02	3.2030	3.2033	0.0785	24.66	-0.01	0.750			
0.9481	60678.16	3.2000	3.1999	0.0779	24.66	-0.01	0.750			
0.9483	60693.00	3.1970	3.1971	0.0767	24.66	-0.01	0.750			
0.9486	60707.65	3.1940	3.1940	0.0754	24.66	-0.01	0.750			
0.9488	60722.01	3.1910	3.1909	0.0742	24.66	-0.01	0.750			
0.9490	60736.11	3.1880	3.1881	0.0731	24.66	-0.01	0.750			
0.9492	60750.03	3.1850	3.1850	0.0719	24.66	-0.01	0.750			
0.9494	60763.76	3.1820	3.1820	0.0708	24.67	-0.00	0.750			
0.9496	60777.17	3.1790	3.1790	0.0699	24.67	-0.00	0.750			
0.9498	60790.36	3.1760	3.1760	0.0686	24.67	-0.00	0.750			
0.9501	60803.45	3.1730	3.1732	0.0678	24.67	-0.00	0.750			
0.9503	60816.42	3.1700	3.1699	0.0668	24.67	-0.00	0.750			
0.9505	60829.20	3.1670	3.1669	0.0659	24.67	-0.00	0.750			
0.9507	60841.76	3.1640	3.1640	0.0649	24.67	-0.00	0.750			
0.9508	60854.10	3.1610	3.1610	0.0641	24.67	-0.00	0.750			
0.9510	60866.31	3.1580	3.1581	0.0632	24.67	0.00	0.750			
0.9512	60878.36	3.1550	3.1548	0.0623	24.67	0.00	0.750			
0.9514	60890.30	3.1520	3.1520	0.0613	24.67	0.00	0.750			
0.9516	60901.97	3.1490	3.1491	0.0603	24.67	0.00	0.750			
0.9518	60913.46	3.1460	3.1460	0.0593	24.67	0.00	0.750			
0.9520	60924.92	3.1430	3.1430	0.0585	24.67	0.00	0.750			
0.9521	60936.03	3.1400	3.1400	0.0572	24.67	0.00	0.750			
0.9523	60946.90	3.1370	3.1370	0.0560	24.67	0.00	0.750			
0.9525	60957.53	3.1340	3.1340	0.0548	24.68	0.01	0.750			
0.9526	60968.01	3.1310	3.1311	0.0534	24.68	0.01	0.750			
0.9528	60978.13	3.1280	3.1281	0.0521	24.68	0.01	0.750			
0.9529	60988.00	3.1250	3.1249	0.0507	24.68	0.01	0.750			
0.9531	60997.69	3.1220	3.1221	0.0494	24.68	0.01	0.750			
0.9532	61007.48	3.1190	3.1188	0.0468	24.68	0.01	0.750			
0.9534	61016.26	3.1160	3.1160	0.0446	24.68	0.01	0.750			
0.9535	61025.01	3.1130	3.1129	0.0432	24.68	0.01	0.750			
0.9536	61033.05	3.1100	3.1102	0.0405	24.68	0.01	0.750			
0.9538	61040.57	3.1070	3.1075	0.0378	24.68	0.01	0.750			
0.9539	61047.58	3.1040	3.1047	0.0352	24.68	0.01	0.750			
0.9540	61054.08	3.1010	3.1020	0.0325	24.68	0.01	0.750			
0.9541	61060.06	3.0980	3.0992	0.0298	24.68	0.01	0.750			
0.9541	61065.54	3.0950	3.0963	0.0272	24.68	0.01	0.750			
