Ah_balance (normalized)	Ah_balance (mAh)	Voltage - fit (V)	Voltage -  interpolate (V)	dQ/dV (1/V)	Temperature (°C)	Temperature - diff (°C)	Current (C)	R_DC 0ms (mOhm)	R_DC 50ms (mOhm)	R_DC 50 ms PEC (mOhm)
0.1797	11498.86	4.0800	4.0801	0.8065	7.17	1.18	0.750			
0.1821	11654.35	4.0770	4.0770	0.8016	7.16	1.17	0.750			
0.1845	11805.72	4.0740	4.0740	0.7898	7.16	1.17	0.750			
0.1868	11955.65	4.0710	4.0711	0.7876	7.16	1.17	0.750			
0.1891	12105.36	4.0680	4.0679	0.7842	7.15	1.16	0.750			
0.1915	12255.04	4.0650	4.0650	0.7861	7.15	1.16	0.750			
0.1939	12406.51	4.0620	4.0621	0.7884	7.14	1.15	0.750			
0.1962	12557.98	4.0590	4.0590	0.7834	7.14	1.15	0.750			
0.1986	12708.07	4.0560	4.0560	0.7903	7.14	1.15	0.750			
0.2009	12857.56	4.0530	4.0532	0.7938	7.13	1.14	0.750			
0.2033	13010.37	4.0500	4.0496	0.8005	7.13	1.14	0.750			
0.2057	13164.83	4.0470	4.0470	0.8092	7.13	1.14	0.750			
0.2081	13321.51	4.0440	4.0441	0.8097	7.12	1.13	0.750			
0.2106	13479.15	4.0410	4.0411	0.8180	7.12	1.13	0.750			
0.2131	13635.29	4.0380	4.0381	0.8165	7.11	1.12	0.750			
0.2155	13793.40	4.0350	4.0345	0.8169	7.11	1.12	0.750			
0.2180	13949.57	4.0320	4.0321	0.8160	7.11	1.12	0.750			
0.2204	14107.33	4.0290	4.0291	0.8143	7.11	1.12	0.750			
0.2229	14262.64	4.0260	4.0261	0.8210	7.10	1.11	0.750			
0.2253	14418.22	4.0230	4.0230	0.8177	7.10	1.11	0.750			
0.2278	14577.49	4.0200	4.0197	0.8284	7.10	1.11	0.750			
0.2303	14736.94	4.0170	4.0171	0.8330	7.09	1.10	0.750			
0.2328	14899.55	4.0140	4.0141	0.8352	7.09	1.10	0.750			
0.2353	15060.49	4.0110	4.0111	0.8434	7.08	1.09	0.750			
0.2378	15220.86	4.0080	4.0080	0.8391	7.08	1.09	0.750			
0.2404	15383.19	4.0050	4.0048	0.8456	7.07	1.08	0.750			
0.2429	15546.24	4.0020	4.0021	0.8489	7.07	1.08	0.750			
0.2455	15710.61	3.9990	3.9990	0.8450	7.06	1.07	0.750			
0.2480	15874.77	3.9960	3.9961	0.8497	7.06	1.07	0.750			
0.2506	16035.46	3.9930	3.9930	0.8453	7.05	1.06	0.750			
0.2531	16195.96	3.9900	3.9893	0.8508	7.05	1.06	0.750			
0.2556	16359.77	3.9870	3.9870	0.8538	7.05	1.06	0.750			
0.2582	16524.23	3.9840	3.9840	0.8615	7.04	1.05	0.750			
0.2608	16693.07	3.9810	3.9810	0.8724	7.04	1.05	0.750			
0.2635	16862.51	3.9780	3.9780	0.8773	7.03	1.04	0.750			
0.2661	17027.80	3.9750	3.9750	0.8805	7.03	1.04	0.750			
0.2687	17199.12	3.9720	3.9720	0.8831	7.03	1.04	0.750			
0.2714	17367.75	3.9690	3.9690	0.8885	7.02	1.03	0.750			
0.2741	17541.93	3.9660	3.9660	0.8890	7.02	1.03	0.750			
0.2767	17711.67	3.9630	3.9631	0.8908	7.01	1.02	0.750			
0.2794	17883.08	3.9600	3.9601	0.8898	7.01	1.02	0.750			
0.2821	18055.59	3.9570	3.9570	0.8807	7.00	1.01	0.750			
0.2847	18221.67	3.9540	3.9539	0.8848	7.00	1.01	0.750			
0.2873	18390.36	3.9510	3.9512	0.8948	7.00	1.01	0.750			
0.2900	18560.02	3.9480	3.9479	0.9040	6.99	1.00	0.750			
0.2928	18740.80	3.9450	3.9450	0.9138	6.98	0.99	0.750			
0.2955	18914.03	3.9420	3.9421	0.9218	6.97	0.98	0.750			
0.2983	19094.11	3.9390	3.9390	0.9347	6.97	0.98	0.750			
0.3012	19274.21	3.9360	3.9361	0.9434	6.96	0.97	0.750			
0.3040	19453.03	3.9330	3.9329	0.9469	6.95	0.96	0.750			
0.3068	19635.62	3.9300	3.9301	0.9478	6.94	0.95	0.750			
0.3097	19817.84	3.9270	3.9270	0.9567	6.94	0.95	0.750			
0.3126	20003.61	3.9240	3.9241	0.9670	6.93	0.94	0.750			
0.3155	20189.08	3.9210	3.9208	0.9739	6.93	0.94	0.750			
0.3184	20378.98	3.9180	3.9180	0.9802	6.92	0.93	0.750			
0.3214	20566.76	3.9150	3.9150	0.9922	6.91	0.92	0.750			
0.3244	20759.37	3.9120	3.9122	1.0026	6.90	0.91	0.750			
0.3274	20952.90	3.9090	3.9088	1.0090	6.89	0.90	0.750			
0.3304	21147.50	3.9060	3.9060	1.0162	6.89	0.90	0.750			
0.3335	21342.62	3.9030	3.9031	1.0263	6.88	0.89	0.750			
0.3366	21540.98	3.9000	3.8999	1.0321	6.88	0.89	0.750			
0.3397	21741.37	3.8970	3.8969	1.0482	6.87	0.88	0.750			
0.3428	21941.72	3.8940	3.8940	1.0463	6.86	0.87	0.750			
0.3460	22142.09	3.8910	3.8911	1.0621	6.85	0.86	0.750			
0.3492	22348.16	3.8880	3.8879	1.0758	6.84	0.85	0.750			
0.3524	22554.57	3.8850	3.8849	1.0890	6.83	0.84	0.750			
0.3557	22764.79	3.8820	3.8821	1.0915	6.82	0.83	0.750			
0.3590	22973.82	3.8790	3.8791	1.1123	6.81	0.82	0.750			
0.3623	23185.43	3.8760	3.8761	1.1348	6.80	0.81	0.750			
0.3658	23411.04	3.8730	3.8725	1.1507	6.79	0.80	0.750			
0.3692	23630.40	3.8700	3.8700	1.1652	6.78	0.79	0.750			
0.3728	23858.83	3.8670	3.8672	1.1848	6.78	0.79	0.750			
0.3764	24090.99	3.8640	3.8642	1.1991	6.77	0.78	0.750			
0.3800	24321.00	3.8610	3.8611	1.1985	6.76	0.77	0.750			
0.3836	24547.94	3.8580	3.8581	1.2082	6.75	0.76	0.750			
0.3872	24780.80	3.8550	3.8551	1.2314	6.74	0.75	0.750			
0.3910	25022.64	3.8520	3.8522	1.2514	6.73	0.74	0.750			
0.3947	25262.91	3.8490	3.8490	1.2631	6.72	0.73	0.750			
0.3985	25504.60	3.8460	3.8461	1.2940	6.70	0.71	0.750			
0.4024	25752.49	3.8430	3.8429	1.3359	6.69	0.70	0.750			
0.4064	26011.01	3.8400	3.8400	1.3757	6.68	0.69	0.750			
0.4106	26281.36	3.8370	3.8375	1.4129	6.68	0.69	0.750	0.401	0.952	
0.4150	26560.88	3.8340	3.8340	1.4409	6.67	0.68	0.750			
0.4195	26847.94	3.8310	3.8312	1.4554	6.65	0.66	0.750			
0.4239	27127.67	3.8280	3.8280	1.4758	6.63	0.64	0.750			
0.4282	27405.45	3.8250	3.8249	1.4816	6.61	0.62	0.750			
0.4326	27686.85	3.8220	3.8222	1.5011	6.60	0.61	0.750			
0.4372	27980.24	3.8190	3.8190	1.5353	6.58	0.59	0.750			
0.4418	28275.58	3.8160	3.8161	1.5779	6.57	0.58	0.750			
0.4465	28578.97	3.8130	3.8131	1.6225	6.56	0.57	0.750			
0.4516	28904.04	3.8100	3.8100	1.6443	6.54	0.55	0.750			
0.4566	29220.36	3.8070	3.8072	1.6712	6.53	0.54	0.750			
0.4617	29545.81	3.8040	3.8041	1.7182	6.51	0.52	0.750			
0.4668	29872.05	3.8010	3.8008	1.7494	6.50	0.51	0.750			
0.4719	30204.10	3.7980	3.7979	1.7689	6.47	0.48	0.750			
0.4774	30553.38	3.7950	3.7950	1.8190	6.45	0.46	0.750			
0.4830	30914.51	3.7920	3.7920	1.8372	6.43	0.44	0.750			
0.4886	31272.81	3.7890	3.7892	1.9097	6.42	0.43	0.750			
0.4945	31646.89	3.7860	3.7863	1.9142	6.40	0.41	0.750			
0.5003	32017.96	3.7830	3.7834	1.9582	6.38	0.39	0.750			
0.5062	32396.15	3.7800	3.7796	1.9821	6.36	0.37	0.750			
0.5122	32778.04	3.7770	3.7772	1.9984	6.34	0.35	0.750			
0.5182	33164.48	3.7740	3.7740	2.0312	6.32	0.33	0.750			
0.5244	33558.41	3.7710	3.7712	2.0480	6.30	0.31	0.750			
0.5306	33956.68	3.7680	3.7681	2.0770	6.28	0.29	0.750			
0.5367	34351.78	3.7650	3.7651	2.1173	6.26	0.27	0.750			
0.5431	34759.71	3.7620	3.7622	2.1628	6.24	0.25	0.750			
0.5498	35186.27	3.7590	3.7592	2.1938	6.22	0.23	0.750			
0.5565	35614.33	3.7560	3.7557	2.2003	6.20	0.21	0.750			
0.5630	36029.14	3.7530	3.7528	2.2074	6.18	0.19	0.750			
0.5696	36451.52	3.7500	3.7500	2.2599	6.16	0.17	0.750			
0.5763	36880.63	3.7470	3.7470	2.3091	6.14	0.15	0.750			
0.5832	37325.54	3.7440	3.7441	2.4851	6.12	0.13	0.750			
0.5907	37801.79	3.7410	3.7411	2.7258	6.10	0.11	0.750			
0.5992	38349.50	3.7380	3.7375	3.1467	6.08	0.09	0.750			
0.6093	38992.56	3.7350	3.7352	3.1434	6.06	0.07	0.750			
0.6183	39571.32	3.7320	3.7317	2.9336	6.03	0.04	0.750			
0.6262	40079.92	3.7290	3.7291	2.7255	6.01	0.02	0.750			
0.6344	40599.24	3.7260	3.7260	2.7537	5.99	0.00	0.750			
0.6429	41146.90	3.7230	3.7230	2.7358	5.97	-0.02	0.750			
0.6511	41667.81	3.7200	3.7200	2.5850	5.95	-0.04	0.750			
0.6584	42137.20	3.7170	3.7169	2.3628	5.95	-0.04	0.750			
0.6651	42565.82	3.7140	3.7140	2.1512	5.94	-0.05	0.750			
0.6715	42973.96	3.7110	3.7109	2.0081	5.93	-0.06	0.750			
0.6772	43338.70	3.7080	3.7079	1.7791	5.92	-0.07	0.750			
0.6821	43652.32	3.7050	3.7051	1.5677	5.92	-0.07	0.750			
0.6865	43935.33	3.7020	3.7021	1.3804	5.93	-0.06	0.750			
0.6902	44172.26	3.6990	3.6989	1.2207	5.93	-0.06	0.750			
0.6935	44383.75	3.6960	3.6959	1.0781	5.93	-0.06	0.750			
0.6965	44573.48	3.6930	3.6930	0.9884	5.93	-0.06	0.750			
0.6991	44743.94	3.6900	3.6901	0.9143	5.94	-0.05	0.750			
0.7018	44915.54	3.6870	3.6870	0.8683	5.94	-0.05	0.750			
0.7043	45077.23	3.6840	3.6840	0.8269	5.94	-0.05	0.750			
0.7068	45232.62	3.6810	3.6810	0.7865	5.94	-0.05	0.750			
0.7091	45380.36	3.6780	3.6780	0.7419	5.94	-0.05	0.750			
0.7113	45520.33	3.6750	3.6750	0.7006	5.95	-0.04	0.750			
0.7133	45649.98	3.6720	3.6721	0.6532	5.95	-0.04	0.750			
0.7152	45770.78	3.6690	3.6689	0.6058	5.95	-0.04	0.750			
0.7169	45882.58	3.6660	3.6660	0.5589	5.95	-0.04	0.750			
0.7185	45984.77	3.6630	3.6631	0.5125	5.96	-0.03	0.750			
0.7200	46078.60	3.6600	3.6600	0.4710	5.96	-0.03	0.750			
0.7213	46164.48	3.6570	3.6569	0.4286	5.97	-0.02	0.750			
0.7225	46241.05	3.6540	3.6540	0.3865	5.97	-0.02	0.750			
0.7236	46311.40	3.6510	3.6510	0.3499	5.98	-0.01	0.750			
0.7246	46375.21	3.6480	3.6480	0.3140	5.98	-0.01	0.750			
0.7255	46432.14	3.6450	3.6450	0.2787	5.98	-0.01	0.750			
0.7263	46482.68	3.6420	3.6419	0.2409	5.98	-0.01	0.750			
0.7270	46525.51	3.6390	3.6389	0.2038	5.99	-0.00	0.750			
0.7275	46561.63	3.6360	3.6361	0.1670	5.99	-0.00	0.750			
0.7280	46590.42	3.6330	3.6331	0.1282	5.99	-0.00	0.750			
0.7283	46611.99	3.6300	3.6305	0.0876	5.99	0.00	0.750			
0.7285	46625.03	3.6270	3.6278	0.0447	5.99	0.00	0.750			
0.7286	46629.49	3.6240	3.6266	0.0017	5.99	0.00	0.750			
