Ah_balance (normalized)	Ah_balance (mAh)	Voltage - fit (V)	Voltage -  interpolate (V)	dQ/dV (1/V)	Temperature (°C)	Temperature - diff (°C)	Current (C)	R_DC 0ms (mOhm)	R_DC 50ms (mOhm)	R_DC 50 ms PEC (mOhm)
0.0942	6027.95	4.0040	4.0036	-0.0949	5.97	0.00	-0.750			
0.0945	6049.46	4.0010	4.0004	-0.1246	5.97	0.00	-0.750			
0.0949	6076.07	3.9980	3.9981	-0.1526	5.97	0.00	-0.750			
0.0954	6108.53	3.9950	3.9952	-0.1783	5.97	0.00	-0.750			
0.0960	6145.34	3.9920	3.9921	-0.2040	5.97	0.00	-0.750			
0.0967	6187.90	3.9890	3.9890	-0.2315	5.97	0.00	-0.750			
0.0974	6234.96	3.9860	3.9860	-0.2532	5.97	0.00	-0.750			
0.0982	6285.56	3.9830	3.9829	-0.2753	5.97	0.00	-0.750			
0.0991	6341.51	3.9800	3.9800	-0.2975	5.97	0.00	-0.750			
0.1000	6399.79	3.9770	3.9770	-0.3218	5.97	0.00	-0.750			
0.1010	6463.45	3.9740	3.9741	-0.3484	5.97	0.00	-0.750			
0.1021	6532.35	3.9710	3.9710	-0.3738	5.97	0.00	-0.750			
0.1032	6605.80	3.9680	3.9679	-0.4004	5.97	0.00	-0.750			
0.1045	6685.94	3.9650	3.9650	-0.4304	5.97	0.00	-0.750			
0.1058	6771.52	3.9620	3.9621	-0.4576	5.97	0.00	-0.750			
0.1072	6863.12	3.9590	3.9590	-0.4811	5.97	0.00	-0.750			
0.1087	6958.21	3.9560	3.9560	-0.5014	5.97	0.00	-0.750			
0.1103	7057.10	3.9530	3.9530	-0.5239	5.97	0.00	-0.750			
0.1119	7159.84	3.9500	3.9501	-0.5446	5.97	0.00	-0.750			
0.1135	7266.16	3.9470	3.9469	-0.5606	5.97	0.00	-0.750			
0.1152	7375.36	3.9440	3.9440	-0.5777	5.97	0.00	-0.750			
0.1170	7487.69	3.9410	3.9411	-0.5979	5.97	0.00	-0.750			
0.1188	7604.26	3.9380	3.9380	-0.6159	5.98	0.01	-0.750			
0.1207	7725.81	3.9350	3.9350	-0.6304	5.98	0.01	-0.750			
0.1226	7848.36	3.9320	3.9320	-0.6421	5.98	0.01	-0.750			
0.1246	7974.24	3.9290	3.9293	-0.6537	5.98	0.01	-0.750			
0.1266	8101.52	3.9260	3.9260	-0.6628	5.98	0.01	-0.750			
0.1286	8227.77	3.9230	3.9230	-0.6749	5.98	0.01	-0.750			
0.1306	8357.77	3.9200	3.9200	-0.6855	5.98	0.01	-0.750			
0.1327	8490.57	3.9170	3.9169	-0.6963	5.99	0.02	-0.750			
0.1348	8626.47	3.9140	3.9140	-0.7062	5.99	0.02	-0.750			
0.1369	8764.30	3.9110	3.9111	-0.7146	5.99	0.02	-0.750			
0.1391	8902.40	3.9080	3.9080	-0.7188	5.99	0.02	-0.750			
0.1413	9040.18	3.9050	3.9050	-0.7246	6.00	0.03	-0.750			
0.1434	9179.14	3.9020	3.9020	-0.7298	6.01	0.04	-0.750			
0.1456	9320.24	3.8990	3.8989	-0.7344	6.01	0.04	-0.750			
0.1479	9462.55	3.8960	3.8960	-0.7415	6.02	0.05	-0.750			
0.1501	9605.38	3.8930	3.8931	-0.7475	6.02	0.05	-0.750			
0.1524	9750.49	3.8900	3.8898	-0.7512	6.02	0.05	-0.750			
0.1546	9895.03	3.8870	3.8870	-0.7543	6.02	0.05	-0.750			
0.1569	10038.72	3.8840	3.8841	-0.7553	6.03	0.06	-0.750			
0.1592	10186.20	3.8810	3.8809	-0.7610	6.03	0.06	-0.750			
0.1614	10331.53	3.8780	3.8779	-0.7622	6.03	0.06	-0.750			
0.1637	10476.91	3.8750	3.8750	-0.7616	6.04	0.07	-0.750			
0.1660	10623.06	3.8720	3.8720	-0.7642	6.04	0.07	-0.750			
0.1683	10770.80	3.8690	3.8690	-0.7685	6.05	0.08	-0.750			
0.1706	10917.85	3.8660	3.8660	-0.7665	6.06	0.09	-0.750			
0.1729	11067.55	3.8630	3.8630	-0.7677	6.06	0.09	-0.750			
0.1752	11214.70	3.8600	3.8601	-0.7704	6.07	0.10	-0.750			
0.1775	11361.69	3.8570	3.8571	-0.7699	6.08	0.11	-0.750			
0.1798	11509.53	3.8540	3.8539	-0.7767	6.09	0.12	-0.750			
0.1822	11658.12	3.8510	3.8510	-0.7778	6.09	0.12	-0.750			
0.1845	11808.52	3.8480	3.8480	-0.7805	6.10	0.13	-0.750			
0.1869	11958.88	3.8450	3.8449	-0.7868	6.11	0.14	-0.750			
0.1893	12112.14	3.8420	3.8420	-0.7867	6.12	0.15	-0.750			
0.1916	12261.93	3.8390	3.8390	-0.7880	6.12	0.15	-0.750			
0.1940	12413.99	3.8360	3.8360	-0.7882	6.13	0.16	-0.750			
0.1963	12565.20	3.8330	3.8329	-0.7876	6.14	0.17	-0.750			
0.1987	12717.56	3.8300	3.8300	-0.7883	6.15	0.18	-0.750			
0.2011	12868.69	3.8270	3.8270	-0.7870	6.15	0.18	-0.750			
0.2034	13018.82	3.8240	3.8240	-0.7863	6.16	0.19	-0.750			
0.2058	13169.81	3.8210	3.8210	-0.7926	6.17	0.20	-0.750			
0.2081	13320.00	3.8180	3.8180	-0.7920	6.18	0.21	-0.750			
0.2105	13474.42	3.8150	3.8149	-0.7975	6.18	0.21	-0.750			
0.2129	13628.05	3.8120	3.8121	-0.7965	6.19	0.22	-0.750			
0.2154	13783.13	3.8090	3.8090	-0.7951	6.20	0.23	-0.750			
0.2177	13934.59	3.8060	3.8060	-0.7967	6.21	0.24	-0.750			
0.2201	14086.76	3.8030	3.8029	-0.7949	6.22	0.25	-0.750			
0.2225	14238.54	3.8000	3.7999	-0.7970	6.22	0.25	-0.750			
0.2249	14392.77	3.7970	3.7971	-0.7971	6.23	0.26	-0.750			
0.2273	14547.19	3.7940	3.7940	-0.7983	6.24	0.27	-0.750			
0.2297	14700.77	3.7910	3.7910	-0.8003	6.25	0.28	-0.750			
0.2321	14854.63	3.7880	3.7880	-0.7995	6.25	0.28	-0.750			
0.2345	15007.92	3.7850	3.7849	-0.7955	6.26	0.29	-0.750			
0.2369	15159.77	3.7820	3.7822	-0.7948	6.27	0.30	-0.750			
0.2392	15310.77	3.7790	3.7790	-0.7979	6.28	0.31	-0.750			
0.2417	15466.42	3.7760	3.7759	-0.7988	6.29	0.32	-0.750			
0.2440	15619.03	3.7730	3.7730	-0.7995	6.30	0.33	-0.750			
0.2464	15772.18	3.7700	3.7701	-0.8007	6.31	0.34	-0.750			
0.2489	15927.83	3.7670	3.7671	-0.8055	6.32	0.35	-0.750			
0.2513	16082.99	3.7640	3.7638	-0.8071	6.33	0.36	-0.750			
0.2537	16235.76	3.7610	3.7611	-0.8079	6.34	0.37	-0.750			
0.2561	16391.97	3.7580	3.7580	-0.8037	6.35	0.38	-0.750			
0.2585	16547.14	3.7550	3.7550	-0.8053	6.36	0.39	-0.750			
0.2610	16700.98	3.7520	3.7520	-0.8077	6.37	0.40	-0.750			
0.2634	16855.80	3.7490	3.7488	-0.8132	6.37	0.40	-0.750			
0.2658	17011.64	3.7460	3.7459	-0.8177	6.38	0.41	-0.750			
0.2683	17170.22	3.7430	3.7430	-0.8205	6.38	0.41	-0.750			
0.2708	17328.74	3.7400	3.7400	-0.8245	6.38	0.41	-0.750			
0.2733	17488.84	3.7370	3.7370	-0.8324	6.39	0.42	-0.750			
0.2757	17647.64	3.7340	3.7339	-0.8323	6.39	0.42	-0.750			
0.2782	17807.31	3.7310	3.7310	-0.8318	6.40	0.43	-0.750			
0.2808	17968.30	3.7280	3.7280	-0.8312	6.41	0.44	-0.750			
0.2832	18127.70	3.7250	3.7251	-0.8362	6.42	0.45	-0.750			
0.2857	18287.84	3.7220	3.7221	-0.8461	6.43	0.46	-0.750			
0.2883	18449.72	3.7190	3.7190	-0.8499	6.43	0.46	-0.750			
0.2908	18613.57	3.7160	3.7158	-0.8565	6.44	0.47	-0.750			
0.2934	18779.21	3.7130	3.7131	-0.8649	6.45	0.48	-0.750			
0.2961	18948.05	3.7100	3.7100	-0.8718	6.46	0.49	-0.750			
0.2987	19115.48	3.7070	3.7070	-0.8751	6.47	0.50	-0.750			
0.3013	19281.14	3.7040	3.7040	-0.8788	6.48	0.51	-0.750			
0.3039	19450.28	3.7010	3.7010	-0.8855	6.48	0.51	-0.750			
0.3066	19621.99	3.6980	3.6979	-0.8957	6.49	0.52	-0.750			
0.3093	19794.42	3.6950	3.6950	-0.9054	6.50	0.53	-0.750			
0.3120	19970.74	3.6920	3.6921	-0.9155	6.51	0.54	-0.750			
0.3148	20147.05	3.6890	3.6890	-0.9279	6.51	0.54	-0.750			
0.3176	20325.84	3.6860	3.6859	-0.9320	6.52	0.55	-0.750			
0.3204	20505.33	3.6830	3.6830	-0.9397	6.52	0.55	-0.750			
0.3232	20686.43	3.6800	3.6800	-0.9523	6.53	0.56	-0.750			
0.3261	20869.16	3.6770	3.6770	-0.9635	6.53	0.56	-0.750			
0.3290	21055.22	3.6740	3.6740	-0.9769	6.54	0.57	-0.750			
0.3320	21245.81	3.6710	3.6709	-0.9841	6.55	0.58	-0.750			
0.3349	21434.92	3.6680	3.6680	-0.9927	6.55	0.58	-0.750			
0.3379	21627.98	3.6650	3.6651	-1.0054	6.56	0.59	-0.750			
0.3410	21821.20	3.6620	3.6619	-1.0140	6.57	0.60	-0.750			
0.3440	22015.64	3.6590	3.6590	-1.0242	6.58	0.61	-0.750			
0.3471	22211.47	3.6560	3.6560	-1.0354	6.58	0.61	-0.750			
0.3502	22412.33	3.6530	3.6531	-1.0519	6.59	0.62	-0.750			
0.3534	22616.02	3.6500	3.6500	-1.0671	6.60	0.63	-0.750			
0.3566	22822.60	3.6470	3.6470	-1.0745	6.60	0.63	-0.750			
0.3599	23030.43	3.6440	3.6439	-1.0874	6.61	0.64	-0.750			
0.3631	23240.00	3.6410	3.6411	-1.1002	6.61	0.64	-0.750			
0.3664	23452.35	3.6380	3.6381	-1.1133	6.62	0.65	-0.750			
0.3698	23666.54	3.6350	3.6350	-1.1280	6.62	0.65	-0.750			
0.3732	23883.50	3.6320	3.6319	-1.1391	6.63	0.66	-0.750			
0.3767	24105.64	3.6290	3.6290	-1.1620	6.63	0.66	-0.750			
0.3802	24332.54	3.6260	3.6260	-1.1791	6.64	0.67	-0.750			
0.3837	24559.00	3.6230	3.6230	-1.1886	6.64	0.67	-0.750			
0.3873	24788.83	3.6200	3.6202	-1.2017	6.65	0.68	-0.750			
0.3910	25020.88	3.6170	3.6169	-1.2151	6.66	0.69	-0.750			
0.3946	25255.36	3.6140	3.6140	-1.2215	6.66	0.69	-0.750			
0.3983	25488.89	3.6110	3.6109	-1.2410	6.67	0.70	-0.750			
0.4020	25729.95	3.6080	3.6080	-1.2588	6.67	0.70	-0.750			
0.4058	25973.30	3.6050	3.6050	-1.2675	6.68	0.71	-0.750			
0.4096	26215.51	3.6020	3.6019	-1.2835	6.69	0.72	-0.750			
0.4135	26463.33	3.5990	3.5992	-1.2917	6.69	0.72	-0.750	0.463	1.088	
0.4174	26714.79	3.5960	3.5960	-1.3098	6.69	0.72	-0.750			
0.4214	26968.37	3.5930	3.5929	-1.3226	6.70	0.73	-0.750			
0.4253	27220.27	3.5900	3.5901	-1.3382	6.70	0.73	-0.750			
0.4294	27483.80	3.5870	3.5870	-1.3533	6.70	0.73	-0.750			
0.4335	27746.01	3.5840	3.5839	-1.3683	6.71	0.74	-0.750			
0.4376	28008.19	3.5810	3.5812	-1.3854	6.71	0.74	-0.750			
0.4418	28276.97	3.5780	3.5779	-1.4009	6.71	0.74	-0.750			
0.4460	28545.25	3.5750	3.5749	-1.4142	6.71	0.74	-0.750			
0.4503	28818.18	3.5720	3.5722	-1.4358	6.71	0.74	-0.750			
0.4547	29097.69	3.5690	3.5689	-1.4590	6.71	0.74	-0.750			
0.4591	29384.01	3.5660	3.5659	-1.4571	6.71	0.74	-0.750			
0.4635	29666.40	3.5630	3.5630	-1.4440	6.71	0.74	-0.750			
0.4679	29943.82	3.5600	3.5601	-1.4453	6.71	0.74	-0.750			
0.4721	30216.38	3.5570	3.5572	-1.4542	6.71	0.74	-0.750			
0.4763	30482.92	3.5540	3.5539	-1.4580	6.71	0.74	-0.750			
0.4807	30766.10	3.5510	3.5509	-1.5013	6.71	0.74	-0.750			
0.4853	31056.06	3.5480	3.5480	-1.5330	6.72	0.75	-0.750			
0.4900	31362.84	3.5450	3.5448	-1.5813	6.72	0.75	-0.750			
0.4948	31668.43	3.5420	3.5418	-1.6088	6.71	0.74	-0.750			
0.4997	31979.37	3.5390	3.5392	-1.6093	6.71	0.74	-0.750			
0.5045	32290.42	3.5360	3.5358	-1.6271	6.71	0.74	-0.750			
0.5094	32599.99	3.5330	3.5330	-1.6285	6.71	0.74	-0.750			
0.5142	32911.23	3.5300	3.5299	-1.6372	6.71	0.74	-0.750			
0.5193	33233.04	3.5270	3.5271	-1.6586	6.71	0.74	-0.750			
0.5243	33552.29	3.5240	3.5240	-1.6561	6.71	0.74	-0.750			
0.5293	33872.01	3.5210	3.5210	-1.6726	6.72	0.75	-0.750			
0.5342	34191.55	3.5180	3.5179	-1.6766	6.73	0.76	-0.750			
0.5393	34513.50	3.5150	3.5149	-1.6847	6.73	0.76	-0.750			
0.5443	34837.17	3.5120	3.5120	-1.6856	6.73	0.76	-0.750			
0.5495	35165.53	3.5090	3.5089	-1.6968	6.73	0.76	-0.750			
0.5545	35488.55	3.5060	3.5060	-1.6874	6.74	0.77	-0.750			
0.5596	35815.61	3.5030	3.5030	-1.6924	6.75	0.78	-0.750			
0.5647	36142.21	3.5000	3.5002	-1.6870	6.75	0.78	-0.750			
0.5697	36463.59	3.4970	3.4970	-1.6814	6.75	0.78	-0.750			
0.5748	36785.46	3.4940	3.4941	-1.6791	6.75	0.78	-0.750			
0.5798	37106.24	3.4910	3.4911	-1.6586	6.75	0.78	-0.750			
0.5847	37423.30	3.4880	3.4879	-1.6484	6.76	0.79	-0.750			
0.5897	37742.12	3.4850	3.4849	-1.6418	6.76	0.79	-0.750			
0.5946	38054.56	3.4820	3.4819	-1.6375	6.77	0.80	-0.750			
0.5995	38368.89	3.4790	3.4792	-1.6227	6.78	0.81	-0.750			
0.6044	38680.99	3.4760	3.4760	-1.6034	6.79	0.82	-0.750			
0.6092	38988.54	3.4730	3.4729	-1.5794	6.80	0.83	-0.750			
0.6140	39293.29	3.4700	3.4699	-1.5626	6.81	0.84	-0.750			
0.6186	39588.25	3.4670	3.4671	-1.5382	6.82	0.85	-0.750			
0.6231	39877.16	3.4640	3.4638	-1.5195	6.83	0.86	-0.750			
0.6276	40166.53	3.4610	3.4610	-1.5019	6.83	0.86	-0.750			
0.6321	40456.66	3.4580	3.4580	-1.4884	6.84	0.87	-0.750			
0.6366	40740.48	3.4550	3.4550	-1.4801	6.85	0.88	-0.750			
0.6410	41023.15	3.4520	3.4520	-1.4565	6.86	0.89	-0.750			
0.6454	41304.50	3.4490	3.4488	-1.4355	6.87	0.90	-0.750			
0.6497	41578.01	3.4460	3.4462	-1.4129	6.88	0.91	-0.750			
0.6538	41845.47	3.4430	3.4431	-1.3808	6.89	0.92	-0.750			
0.6580	42113.06	3.4400	3.4399	-1.3609	6.89	0.92	-0.750			
0.6620	42369.92	3.4370	3.4372	-1.3358	6.90	0.93	-0.750			
0.6660	42622.27	3.4340	3.4339	-1.3030	6.92	0.95	-0.750			
0.6699	42870.68	3.4310	3.4310	-1.2746	6.93	0.96	-0.750			
0.6737	43113.94	3.4280	3.4281	-1.2468	6.95	0.98	-0.750			
0.6774	43351.25	3.4250	3.4250	-1.2260	6.96	0.99	-0.750			
0.6810	43583.05	3.4220	3.4219	-1.1971	6.97	1.00	-0.750			
0.6845	43809.28	3.4190	3.4189	-1.1670	6.98	1.01	-0.750			
0.6880	44029.55	3.4160	3.4162	-1.1416	6.99	1.02	-0.750			
0.6914	44251.46	3.4130	3.4129	-1.1175	7.00	1.03	-0.750			
0.6947	44462.42	3.4100	3.4100	-1.0817	7.01	1.04	-0.750			
0.6979	44663.05	3.4070	3.4070	-1.0482	7.02	1.05	-0.750			
0.7010	44864.34	3.4040	3.4040	-1.0311	7.04	1.07	-0.750			
0.7040	45058.49	3.4010	3.4009	-1.0056	7.05	1.08	-0.750			
0.7070	45251.14	3.3980	3.3980	-0.9774	7.07	1.10	-0.750			
0.7099	45436.28	3.3950	3.3950	-0.9513	7.08	1.11	-0.750			
0.7128	45617.86	3.3920	3.3921	-0.9270	7.09	1.12	-0.750			
0.7155	45792.80	3.3890	3.3890	-0.9005	7.11	1.14	-0.750			
0.7181	45961.51	3.3860	3.3859	-0.8715	7.13	1.16	-0.750			
0.7207	46125.45	3.3830	3.3830	-0.8449	7.15	1.18	-0.750			
0.7232	46286.86	3.3800	3.3800	-0.8237	7.16	1.19	-0.750			
0.7257	46443.07	3.3770	3.3770	-0.7971	7.18	1.21	-0.750			
0.7280	46593.49	3.3740	3.3740	-0.7682	7.19	1.22	-0.750			
0.7303	46738.13	3.3710	3.3710	-0.7368	7.21	1.24	-0.750			
