Ah_balance (normalized)	Ah_balance (mAh)	Voltage - fit (V)	Voltage -  interpolate (V)	dQ/dV (1/V)	Temperature (°C)	Temperature - diff (°C)	Current (C)	R_DC 0ms (mOhm)	R_DC 50ms (mOhm)	R_DC 50 ms PEC (mOhm)
0.1801	11529.26	4.0800	4.0800	0.7828	7.36	1.37	0.750			
0.1824	11675.42	4.0770	4.0770	0.7731	7.36	1.37	0.750			
0.1848	11824.78	4.0740	4.0741	0.7806	7.36	1.37	0.750			
0.1871	11976.19	4.0710	4.0711	0.7853	7.35	1.36	0.750			
0.1895	12127.09	4.0680	4.0680	0.7928	7.35	1.36	0.750			
0.1919	12280.59	4.0650	4.0651	0.7932	7.34	1.35	0.750			
0.1943	12434.47	4.0620	4.0620	0.7957	7.34	1.35	0.750			
0.1967	12586.10	4.0590	4.0589	0.7961	7.34	1.35	0.750			
0.1990	12738.23	4.0560	4.0560	0.7950	7.33	1.34	0.750			
0.2014	12892.24	4.0530	4.0530	0.7973	7.33	1.34	0.750			
0.2038	13045.51	4.0500	4.0500	0.7974	7.32	1.33	0.750			
0.2062	13198.52	4.0470	4.0470	0.7954	7.31	1.32	0.750			
0.2086	13351.55	4.0440	4.0441	0.8017	7.31	1.32	0.750			
0.2110	13504.69	4.0410	4.0409	0.8018	7.30	1.31	0.750			
0.2134	13657.95	4.0380	4.0378	0.8056	7.29	1.30	0.750			
0.2158	13812.78	4.0350	4.0351	0.8100	7.28	1.29	0.750			
0.2183	13969.22	4.0320	4.0320	0.8133	7.28	1.29	0.750			
0.2207	14126.25	4.0290	4.0290	0.8216	7.27	1.28	0.750			
0.2232	14283.38	4.0260	4.0261	0.8209	7.26	1.27	0.750			
0.2257	14441.73	4.0230	4.0228	0.8284	7.25	1.26	0.750			
0.2281	14601.51	4.0200	4.0200	0.8367	7.25	1.26	0.750			
0.2307	14763.68	4.0170	4.0171	0.8345	7.24	1.25	0.750			
0.2332	14924.84	4.0140	4.0140	0.8418	7.23	1.24	0.750			
0.2357	15086.30	4.0110	4.0111	0.8354	7.23	1.24	0.750			
0.2383	15248.32	4.0080	4.0078	0.8383	7.22	1.23	0.750			
0.2408	15409.26	4.0050	4.0051	0.8381	7.21	1.22	0.750			
0.2433	15571.38	4.0020	4.0021	0.8248	7.20	1.21	0.750			
0.2457	15727.16	3.9990	3.9991	0.8290	7.19	1.20	0.750			
0.2482	15883.58	3.9960	3.9960	0.8273	7.18	1.19	0.750			
0.2507	16042.36	3.9930	3.9928	0.8362	7.17	1.18	0.750			
0.2532	16203.51	3.9900	3.9900	0.8467	7.17	1.18	0.750			
0.2557	16367.92	3.9870	3.9871	0.8490	7.16	1.17	0.750			
0.2584	16535.08	3.9840	3.9840	0.8597	7.16	1.17	0.750			
0.2609	16699.98	3.9810	3.9811	0.8620	7.15	1.16	0.750			
0.2635	16865.42	3.9780	3.9777	0.8642	7.15	1.16	0.750			
0.2661	17030.81	3.9750	3.9750	0.8665	7.14	1.15	0.750			
0.2687	17197.59	3.9720	3.9721	0.8752	7.13	1.14	0.750			
0.2713	17366.25	3.9690	3.9690	0.8839	7.12	1.13	0.750			
0.2740	17538.43	3.9660	3.9660	0.8895	7.11	1.12	0.750			
0.2767	17708.18	3.9630	3.9630	0.8943	7.10	1.11	0.750			
0.2794	17881.70	3.9600	3.9600	0.8933	7.09	1.10	0.750			
0.2821	18054.35	3.9570	3.9571	0.8988	7.09	1.10	0.750			
0.2848	18225.54	3.9540	3.9541	0.9049	7.08	1.09	0.750			
0.2875	18398.16	3.9510	3.9510	0.9090	7.07	1.08	0.750			
0.2902	18572.33	3.9480	3.9480	0.9248	7.07	1.08	0.750			
0.2930	18752.98	3.9450	3.9450	0.9199	7.06	1.07	0.750			
0.2958	18928.17	3.9420	3.9420	0.9278	7.05	1.06	0.750			
0.2986	19110.01	3.9390	3.9391	0.9401	7.04	1.05	0.750			
0.3014	19288.98	3.9360	3.9354	0.9417	7.03	1.04	0.750			
0.3042	19469.91	3.9330	3.9331	0.9372	7.02	1.03	0.750			
0.3070	19650.60	3.9300	3.9301	0.9486	7.01	1.02	0.750			
0.3099	19831.60	3.9270	3.9271	0.9619	7.00	1.01	0.750			
0.3128	20017.07	3.9240	3.9239	0.9700	6.99	1.00	0.750			
0.3157	20207.88	3.9210	3.9210	0.9636	6.98	0.99	0.750			
0.3186	20392.84	3.9180	3.9181	0.9804	6.97	0.98	0.750			
0.3216	20580.34	3.9150	3.9152	1.0022	6.96	0.97	0.750			
0.3246	20775.83	3.9120	3.9119	1.0127	6.95	0.96	0.750			
0.3277	20973.84	3.9090	3.9089	0.9968	6.95	0.96	0.750			
0.3307	21162.44	3.9060	3.9063	1.0040	6.94	0.95	0.750			
0.3337	21357.02	3.9030	3.9033	1.0127	6.93	0.94	0.750			
0.3368	21553.37	3.9000	3.8999	1.0198	6.92	0.93	0.750			
0.3397	21742.57	3.8970	3.8967	1.0116	6.91	0.92	0.750			
0.3428	21937.59	3.8940	3.8943	1.0333	6.90	0.91	0.750			
0.3460	22141.91	3.8910	3.8910	1.0646	6.89	0.90	0.750			
0.3492	22350.97	3.8880	3.8881	1.0820	6.88	0.89	0.750			
0.3525	22559.88	3.8850	3.8850	1.0789	6.86	0.87	0.750			
0.3557	22764.49	3.8820	3.8820	1.1057	6.85	0.86	0.750			
0.3591	22981.95	3.8790	3.8790	1.1190	6.83	0.84	0.750			
0.3625	23199.16	3.8760	3.8758	1.1276	6.82	0.83	0.750			
0.3659	23415.69	3.8730	3.8732	1.1305	6.81	0.82	0.750			
0.3693	23633.52	3.8700	3.8702	1.1413	6.80	0.81	0.750			
0.3727	23852.21	3.8670	3.8670	1.1588	6.80	0.81	0.750			
0.3762	24075.97	3.8640	3.8634	1.1684	6.79	0.80	0.750			
0.3796	24296.53	3.8610	3.8612	1.1854	6.78	0.79	0.750			
0.3833	24529.30	3.8580	3.8580	1.2204	6.76	0.77	0.750			
0.3871	24772.37	3.8550	3.8550	1.2375	6.75	0.76	0.750			
0.3908	25008.69	3.8520	3.8522	1.2427	6.73	0.74	0.750			
0.3945	25250.52	3.8490	3.8490	1.2732	6.72	0.73	0.750			
0.3984	25496.37	3.8460	3.8461	1.2956	6.70	0.71	0.750			
0.4022	25742.36	3.8430	3.8428	1.3256	6.68	0.69	0.750			
0.4062	25996.39	3.8400	3.8401	1.3574	6.67	0.68	0.750			
0.4103	26261.99	3.8370	3.8368	1.3928	6.65	0.66	0.750	0.370	0.901	
0.4146	26534.69	3.8340	3.8343	1.4208	6.63	0.64	0.750			
0.4189	26812.67	3.8310	3.8312	1.4466	6.61	0.62	0.750			
0.4234	27096.73	3.8280	3.8281	1.4585	6.60	0.61	0.750			
0.4278	27378.18	3.8250	3.8246	1.4849	6.58	0.59	0.750			
0.4321	27652.42	3.8220	3.8222	1.4891	6.57	0.58	0.750			
0.4367	27946.95	3.8190	3.8190	1.5092	6.56	0.57	0.750			
0.4412	28236.40	3.8160	3.8159	1.5550	6.54	0.55	0.750			
0.4458	28532.64	3.8130	3.8129	1.5917	6.52	0.53	0.750			
0.4508	28848.94	3.8100	3.8097	1.6236	6.50	0.51	0.750			
0.4558	29169.19	3.8070	3.8073	1.6410	6.48	0.49	0.750			
0.4608	29488.94	3.8040	3.8041	1.6734	6.46	0.47	0.750			
0.4658	29809.89	3.8010	3.8011	1.7188	6.44	0.45	0.750			
0.4708	30130.46	3.7980	3.7977	1.7318	6.42	0.43	0.750			
0.4761	30469.01	3.7950	3.7948	1.7880	6.39	0.40	0.750			
0.4815	30816.36	3.7920	3.7921	1.8401	6.37	0.38	0.750			
0.4872	31181.65	3.7890	3.7890	1.8416	6.35	0.36	0.750			
0.4927	31534.30	3.7860	3.7858	1.8784	6.33	0.34	0.750			
0.4985	31901.51	3.7830	3.7825	1.9091	6.32	0.33	0.750			
0.5041	32261.41	3.7800	3.7796	1.8865	6.30	0.31	0.750			
0.5098	32629.04	3.7770	3.7772	1.8927	6.28	0.29	0.750			
0.5155	32991.56	3.7740	3.7736	1.9265	6.25	0.26	0.750			
0.5213	33366.04	3.7710	3.7708	1.9818	6.24	0.25	0.750			
0.5273	33745.87	3.7680	3.7679	2.0086	6.22	0.23	0.750			
0.5333	34130.00	3.7650	3.7650	2.0519	6.20	0.21	0.750			
0.5395	34530.05	3.7620	3.7619	2.0969	6.19	0.20	0.750			
0.5459	34939.42	3.7590	3.7589	2.0617	6.17	0.18	0.750			
0.5523	35349.00	3.7560	3.7561	2.0816	6.15	0.16	0.750			
0.5586	35749.63	3.7530	3.7527	2.0511	6.13	0.14	0.750			
0.5647	36138.74	3.7500	3.7503	2.1513	6.11	0.12	0.750			
0.5712	36559.07	3.7470	3.7471	2.2212	6.09	0.10	0.750			
0.5782	37002.43	3.7440	3.7443	2.2420	6.07	0.08	0.750			
0.5849	37431.17	3.7410	3.7412	2.2871	6.06	0.07	0.750			
0.5918	37876.43	3.7380	3.7378	2.3493	6.04	0.05	0.750			
0.5991	38340.99	3.7350	3.7353	2.4780	6.02	0.03	0.750			
0.6068	38833.65	3.7320	3.7319	2.4932	5.99	0.00	0.750			
0.6140	39296.62	3.7290	3.7293	2.4358	5.97	-0.02	0.750			
0.6215	39776.01	3.7260	3.7259	2.4640	5.95	-0.04	0.750			
0.6291	40260.51	3.7230	3.7228	2.4927	5.94	-0.05	0.750			
0.6368	40753.19	3.7200	3.7199	2.4801	5.93	-0.06	0.750			
0.6442	41228.65	3.7170	3.7169	2.4019	5.92	-0.07	0.750			
0.6511	41671.84	3.7140	3.7145	2.2488	5.91	-0.08	0.750			
0.6576	42088.11	3.7110	3.7108	2.0632	5.91	-0.08	0.750			
0.6637	42476.05	3.7080	3.7080	1.8627	5.91	-0.08	0.750			
0.6687	42799.48	3.7050	3.7050	1.6290	5.91	-0.08	0.750			
0.6733	43089.64	3.7020	3.7021	1.4465	5.91	-0.08	0.750			
0.6774	43352.94	3.6990	3.6990	1.2962	5.91	-0.08	0.750			
0.6809	43577.99	3.6960	3.6960	1.1611	5.91	-0.08	0.750			
0.6841	43779.85	3.6930	3.6931	1.0639	5.91	-0.08	0.750			
0.6871	43973.66	3.6900	3.6901	0.9981	5.91	-0.08	0.750			
0.6899	44155.07	3.6870	3.6870	0.9425	5.91	-0.08	0.750			
0.6926	44328.53	3.6840	3.6841	0.8866	5.92	-0.07	0.750			
0.6952	44495.13	3.6810	3.6810	0.8635	5.92	-0.07	0.750			
0.6978	44658.56	3.6780	3.6781	0.8371	5.92	-0.07	0.750			
0.7002	44815.33	3.6750	3.6748	0.8010	5.93	-0.06	0.750			
0.7026	44966.00	3.6720	3.6721	0.7700	5.93	-0.06	0.750			
0.7049	45111.48	3.6690	3.6691	0.7381	5.94	-0.05	0.750			
0.7071	45253.92	3.6660	3.6660	0.6966	5.95	-0.04	0.750			
0.7091	45380.59	3.6630	3.6630	0.6746	5.96	-0.03	0.750			
0.7111	45508.78	3.6600	3.6600	0.6519	5.96	-0.03	0.750			
0.7130	45632.31	3.6570	3.6570	0.6225	5.97	-0.02	0.750			
0.7149	45752.68	3.6540	3.6545	0.5838	5.97	-0.02	0.750			
0.7166	45865.06	3.6510	3.6513	0.5442	5.97	-0.02	0.750			
0.7182	45965.86	3.6480	3.6480	0.4950	5.98	-0.01	0.750			
0.7196	46055.89	3.6450	3.6448	0.4413	5.98	-0.01	0.750			
0.7208	46128.76	3.6420	3.6420	0.3855	5.98	-0.01	0.750			
0.7219	46198.62	3.6390	3.6390	0.3498	5.98	-0.01	0.750			
0.7228	46261.93	3.6360	3.6360	0.3149	5.98	-0.01	0.750			
0.7237	46319.38	3.6330	3.6329	0.2819	5.99	-0.00	0.750			
0.7246	46371.48	3.6300	3.6300	0.2473	5.99	-0.00	0.750			
0.7252	46415.74	3.6270	3.6269	0.2117	5.99	-0.00	0.750			
0.7258	46454.09	3.6240	3.6241	0.1772	5.99	-0.00	0.750			
0.7263	46484.29	3.6210	3.6211	0.1382	5.99	0.00	0.750			
0.7267	46507.41	3.6180	3.6185	0.0994	5.99	0.00	0.750			
0.7269	46523.05	3.6150	3.6161	0.0592	5.99	0.00	0.750			
0.7270	46530.54	3.6120	3.6133	0.0188	5.99	0.00	0.750			
