Ah_balance (normalized)	Ah_balance (mAh)	Voltage - fit (V)	Voltage -  interpolate (V)	dQ/dV (1/V)	Temperature (°C)	Temperature - diff (°C)	Current (C)	R_DC 0ms (mOhm)	R_DC 50ms (mOhm)	R_DC 50 ms PEC (mOhm)
0.0967	6189.43	4.0060	4.0057	-0.0534	5.99	0.02	-0.750			
0.0969	6203.26	4.0030	4.0028	-0.0872	5.99	0.02	-0.750			
0.0972	6223.69	4.0000	3.9998	-0.1172	5.98	0.01	-0.750			
0.0976	6249.33	3.9970	3.9969	-0.1437	5.98	0.01	-0.750			
0.0981	6279.66	3.9940	3.9940	-0.1688	5.98	0.01	-0.750			
0.0987	6314.48	3.9910	3.9911	-0.1941	5.98	0.01	-0.750			
0.0993	6355.13	3.9880	3.9880	-0.2188	5.98	0.01	-0.750			
0.1000	6399.44	3.9850	3.9850	-0.2413	5.98	0.01	-0.750			
0.1007	6447.76	3.9820	3.9820	-0.2642	5.98	0.01	-0.750			
0.1016	6500.19	3.9790	3.9791	-0.2887	5.98	0.01	-0.750			
0.1025	6557.68	3.9760	3.9760	-0.3138	5.98	0.01	-0.750			
0.1034	6620.56	3.9730	3.9729	-0.3382	5.98	0.01	-0.750			
0.1045	6687.88	3.9700	3.9700	-0.3613	5.97	0.00	-0.750			
0.1056	6759.89	3.9670	3.9671	-0.3855	5.97	0.00	-0.750			
0.1068	6836.59	3.9640	3.9640	-0.4091	5.97	-0.00	-0.750			
0.1081	6917.23	3.9610	3.9609	-0.4309	5.97	-0.00	-0.750			
0.1094	7000.83	3.9580	3.9581	-0.4524	5.97	-0.00	-0.750			
0.1108	7090.80	3.9550	3.9550	-0.4739	5.96	-0.01	-0.750			
0.1123	7184.51	3.9520	3.9520	-0.4963	5.96	-0.01	-0.750			
0.1138	7282.06	3.9490	3.9490	-0.5186	5.96	-0.01	-0.750			
0.1154	7384.22	3.9460	3.9461	-0.5367	5.96	-0.01	-0.750			
0.1170	7489.20	3.9430	3.9429	-0.5554	5.95	-0.02	-0.750			
0.1187	7598.44	3.9400	3.9401	-0.5703	5.95	-0.02	-0.750			
0.1205	7709.24	3.9370	3.9369	-0.5856	5.95	-0.02	-0.750			
0.1222	7823.44	3.9340	3.9340	-0.6023	5.95	-0.02	-0.750			
0.1241	7939.50	3.9310	3.9310	-0.6142	5.95	-0.02	-0.750			
0.1259	8057.96	3.9280	3.9280	-0.6262	5.95	-0.02	-0.750			
0.1278	8181.70	3.9250	3.9250	-0.6402	5.95	-0.02	-0.750			
0.1298	8305.96	3.9220	3.9220	-0.6466	5.95	-0.02	-0.750			
0.1318	8432.52	3.9190	3.9192	-0.6558	5.95	-0.02	-0.750			
0.1337	8557.95	3.9160	3.9160	-0.6603	5.95	-0.02	-0.750			
0.1357	8684.64	3.9130	3.9131	-0.6677	5.95	-0.02	-0.750			
0.1377	8814.15	3.9100	3.9099	-0.6745	5.95	-0.02	-0.750			
0.1397	8943.67	3.9070	3.9070	-0.6823	5.95	-0.02	-0.750			
0.1418	9075.73	3.9040	3.9041	-0.6887	5.95	-0.02	-0.750			
0.1439	9210.23	3.9010	3.9010	-0.6956	5.95	-0.02	-0.750			
0.1460	9343.63	3.8980	3.8980	-0.7002	5.95	-0.02	-0.750			
0.1481	9477.88	3.8950	3.8950	-0.7036	5.96	-0.01	-0.750			
0.1502	9613.57	3.8920	3.8920	-0.7093	5.96	-0.01	-0.750			
0.1524	9751.38	3.8890	3.8890	-0.7129	5.96	-0.01	-0.750			
0.1545	9888.34	3.8860	3.8860	-0.7168	5.97	-0.00	-0.750			
0.1567	10027.14	3.8830	3.8831	-0.7233	5.97	0.00	-0.750			
0.1589	10166.56	3.8800	3.8800	-0.7274	5.98	0.01	-0.750			
0.1610	10305.42	3.8770	3.8769	-0.7303	5.98	0.01	-0.750			
0.1632	10447.49	3.8740	3.8741	-0.7297	5.99	0.02	-0.750			
0.1654	10587.83	3.8710	3.8709	-0.7343	6.00	0.03	-0.750			
0.1677	10729.94	3.8680	3.8678	-0.7296	6.01	0.04	-0.750			
0.1698	10868.00	3.8650	3.8651	-0.7283	6.01	0.04	-0.750			
0.1720	11007.11	3.8620	3.8620	-0.7298	6.01	0.04	-0.750			
0.1742	11147.06	3.8590	3.8591	-0.7381	6.02	0.05	-0.750			
0.1764	11289.43	3.8560	3.8558	-0.7383	6.02	0.05	-0.750			
0.1787	11434.90	3.8530	3.8530	-0.7443	6.03	0.06	-0.750			
0.1809	11577.97	3.8500	3.8500	-0.7425	6.03	0.06	-0.750			
0.1831	11720.89	3.8470	3.8471	-0.7483	6.03	0.06	-0.750			
0.1853	11862.35	3.8440	3.8439	-0.7458	6.04	0.07	-0.750			
0.1876	12006.36	3.8410	3.8410	-0.7522	6.04	0.07	-0.750			
0.1899	12151.15	3.8380	3.8380	-0.7474	6.04	0.07	-0.750			
0.1922	12298.55	3.8350	3.8350	-0.7535	6.05	0.08	-0.750			
0.1944	12442.97	3.8320	3.8322	-0.7501	6.05	0.08	-0.750			
0.1967	12585.68	3.8290	3.8289	-0.7486	6.05	0.08	-0.750			
0.1989	12727.09	3.8260	3.8260	-0.7472	6.06	0.09	-0.750			
0.2011	12868.83	3.8230	3.8230	-0.7471	6.06	0.09	-0.750			
0.2033	13014.20	3.8200	3.8200	-0.7548	6.06	0.09	-0.750			
0.2056	13160.09	3.8170	3.8168	-0.7538	6.07	0.10	-0.750			
0.2079	13304.99	3.8140	3.8139	-0.7526	6.07	0.10	-0.750			
0.2101	13448.61	3.8110	3.8111	-0.7562	6.08	0.11	-0.750			
0.2124	13593.25	3.8080	3.8078	-0.7556	6.09	0.12	-0.750			
0.2147	13739.50	3.8050	3.8050	-0.7477	6.10	0.13	-0.750			
0.2169	13884.09	3.8020	3.8021	-0.7519	6.10	0.13	-0.750			
0.2192	14027.11	3.7990	3.7992	-0.7542	6.11	0.14	-0.750			
0.2214	14172.76	3.7960	3.7959	-0.7552	6.12	0.15	-0.750			
0.2237	14315.46	3.7930	3.7929	-0.7586	6.12	0.15	-0.750			
0.2260	14461.66	3.7900	3.7900	-0.7581	6.13	0.16	-0.750			
0.2283	14609.76	3.7870	3.7871	-0.7638	6.13	0.16	-0.750			
0.2306	14757.77	3.7840	3.7839	-0.7654	6.14	0.17	-0.750			
0.2329	14902.95	3.7810	3.7811	-0.7625	6.14	0.17	-0.750			
0.2352	15049.62	3.7780	3.7779	-0.7625	6.15	0.18	-0.750			
0.2374	15195.20	3.7750	3.7750	-0.7678	6.15	0.18	-0.750			
0.2397	15342.72	3.7720	3.7720	-0.7671	6.16	0.19	-0.750			
0.2421	15493.02	3.7690	3.7689	-0.7726	6.17	0.20	-0.750			
0.2444	15640.43	3.7660	3.7662	-0.7717	6.17	0.20	-0.750			
0.2467	15789.11	3.7630	3.7629	-0.7704	6.18	0.21	-0.750			
0.2490	15935.79	3.7600	3.7600	-0.7736	6.19	0.22	-0.750			
0.2513	16084.90	3.7570	3.7570	-0.7747	6.19	0.22	-0.750			
0.2537	16234.01	3.7540	3.7539	-0.7780	6.20	0.23	-0.750			
0.2560	16383.18	3.7510	3.7510	-0.7817	6.21	0.24	-0.750			
0.2583	16533.40	3.7480	3.7480	-0.7851	6.21	0.24	-0.750			
0.2607	16682.50	3.7450	3.7450	-0.7944	6.22	0.25	-0.750			
0.2631	16836.16	3.7420	3.7419	-0.8000	6.23	0.26	-0.750			
0.2655	16990.55	3.7390	3.7390	-0.8009	6.23	0.26	-0.750			
0.2679	17146.81	3.7360	3.7360	-0.8075	6.24	0.27	-0.750			
0.2703	17301.86	3.7330	3.7330	-0.8083	6.24	0.27	-0.750			
0.2727	17455.68	3.7300	3.7300	-0.8145	6.25	0.28	-0.750			
0.2752	17613.50	3.7270	3.7269	-0.8152	6.25	0.28	-0.750			
0.2776	17767.72	3.7240	3.7240	-0.8167	6.25	0.28	-0.750			
0.2801	17927.02	3.7210	3.7209	-0.8255	6.26	0.29	-0.750			
0.2826	18087.71	3.7180	3.7179	-0.8309	6.26	0.29	-0.750			
0.2851	18245.71	3.7150	3.7150	-0.8387	6.27	0.30	-0.750			
0.2876	18407.49	3.7120	3.7120	-0.8426	6.27	0.30	-0.750			
0.2901	18568.65	3.7090	3.7090	-0.8464	6.28	0.31	-0.750			
0.2927	18734.30	3.7060	3.7059	-0.8606	6.29	0.32	-0.750			
0.2953	18898.93	3.7030	3.7031	-0.8669	6.29	0.32	-0.750			
0.2979	19066.48	3.7000	3.6999	-0.8791	6.30	0.33	-0.750			
0.3006	19236.08	3.6970	3.6970	-0.8872	6.30	0.33	-0.750			
0.3032	19406.49	3.6940	3.6940	-0.8923	6.30	0.33	-0.750			
0.3059	19580.51	3.6910	3.6910	-0.9039	6.31	0.34	-0.750			
0.3087	19754.00	3.6880	3.6880	-0.9162	6.31	0.34	-0.750			
0.3114	19931.61	3.6850	3.6850	-0.9217	6.32	0.35	-0.750			
0.3142	20109.65	3.6820	3.6819	-0.9276	6.32	0.35	-0.750			
0.3170	20288.78	3.6790	3.6789	-0.9319	6.33	0.36	-0.750			
0.3198	20469.27	3.6760	3.6762	-0.9395	6.33	0.36	-0.750			
0.3226	20649.27	3.6730	3.6730	-0.9500	6.34	0.37	-0.750			
0.3255	20831.82	3.6700	3.6699	-0.9581	6.34	0.37	-0.750			
0.3283	21014.34	3.6670	3.6670	-0.9595	6.34	0.37	-0.750			
0.3313	21202.86	3.6640	3.6642	-0.9767	6.35	0.38	-0.750			
0.3343	21392.44	3.6610	3.6610	-0.9918	6.35	0.38	-0.750			
0.3373	21584.08	3.6580	3.6578	-1.0023	6.36	0.39	-0.750			
0.3402	21775.25	3.6550	3.6550	-1.0169	6.36	0.39	-0.750			
0.3433	21969.21	3.6520	3.6520	-1.0355	6.37	0.40	-0.750			
0.3464	22171.65	3.6490	3.6489	-1.0607	6.37	0.40	-0.750			
0.3497	22379.12	3.6460	3.6458	-1.0772	6.37	0.40	-0.750			
0.3530	22589.94	3.6430	3.6430	-1.0819	6.38	0.41	-0.750			
0.3562	22798.86	3.6400	3.6402	-1.0816	6.38	0.41	-0.750			
0.3595	23010.71	3.6370	3.6370	-1.0891	6.38	0.41	-0.750			
0.3628	23217.73	3.6340	3.6340	-1.0863	6.38	0.41	-0.750			
0.3659	23420.28	3.6310	3.6310	-1.0848	6.39	0.42	-0.750			
0.3692	23628.09	3.6280	3.6281	-1.0973	6.39	0.42	-0.750			
0.3725	23841.75	3.6250	3.6250	-1.1101	6.39	0.42	-0.750			
0.3759	24056.53	3.6220	3.6220	-1.1218	6.39	0.42	-0.750			
0.3793	24274.24	3.6190	3.6190	-1.1316	6.39	0.42	-0.750			
0.3827	24493.01	3.6160	3.6160	-1.1452	6.39	0.42	-0.750			
0.3862	24715.64	3.6130	3.6130	-1.1514	6.40	0.43	-0.750			
0.3896	24934.02	3.6100	3.6100	-1.1627	6.40	0.43	-0.750			
0.3931	25158.16	3.6070	3.6070	-1.1744	6.41	0.44	-0.750			
0.3967	25387.08	3.6040	3.6038	-1.1922	6.41	0.44	-0.750			
0.4003	25616.62	3.6010	3.6010	-1.2047	6.42	0.45	-0.750			
0.4039	25850.11	3.5980	3.5981	-1.2143	6.43	0.46	-0.750			
0.4076	26083.57	3.5950	3.5950	-1.2272	6.43	0.46	-0.750			
0.4113	26324.10	3.5920	3.5918	-1.2426	6.43	0.46	-0.750	0.470	1.077	
0.4150	26561.83	3.5890	3.5889	-1.2451	6.43	0.46	-0.750			
0.4188	26801.59	3.5860	3.5862	-1.2571	6.43	0.46	-0.750			
0.4226	27044.61	3.5830	3.5829	-1.2675	6.43	0.46	-0.750			
0.4264	27286.42	3.5800	3.5800	-1.2745	6.43	0.46	-0.750			
0.4302	27534.21	3.5770	3.5769	-1.2907	6.43	0.46	-0.750			
0.4341	27782.97	3.5740	3.5740	-1.3100	6.43	0.46	-0.750			
0.4380	28034.72	3.5710	3.5710	-1.3243	6.44	0.47	-0.750			
0.4420	28288.77	3.5680	3.5679	-1.3464	6.45	0.48	-0.750			
0.4461	28551.84	3.5650	3.5649	-1.3546	6.45	0.48	-0.750			
0.4503	28816.93	3.5620	3.5620	-1.3643	6.45	0.48	-0.750			
0.4543	29075.27	3.5590	3.5590	-1.3970	6.45	0.48	-0.750			
0.4586	29349.04	3.5560	3.5560	-1.4060	6.45	0.48	-0.750			
0.4628	29620.16	3.5530	3.5527	-1.4164	6.46	0.49	-0.750			
0.4671	29891.58	3.5500	3.5502	-1.4335	6.46	0.49	-0.750			
0.4714	30168.69	3.5470	3.5470	-1.4463	6.46	0.49	-0.750			
0.4758	30451.66	3.5440	3.5439	-1.4620	6.45	0.48	-0.750			
0.4802	30732.13	3.5410	3.5408	-1.4770	6.45	0.48	-0.750			
0.4846	31016.42	3.5380	3.5380	-1.4795	6.46	0.49	-0.750			
0.4891	31304.36	3.5350	3.5349	-1.5039	6.47	0.50	-0.750			
0.4936	31593.49	3.5320	3.5321	-1.5115	6.49	0.52	-0.750			
0.4981	31880.99	3.5290	3.5290	-1.5181	6.50	0.53	-0.750			
0.5028	32178.83	3.5260	3.5259	-1.5344	6.50	0.53	-0.750			
0.5074	32472.81	3.5230	3.5231	-1.5512	6.51	0.54	-0.750			
0.5121	32776.59	3.5200	3.5198	-1.5568	6.51	0.54	-0.750			
0.5168	33075.84	3.5170	3.5170	-1.5649	6.51	0.54	-0.750			
0.5215	33373.77	3.5140	3.5139	-1.5606	6.51	0.54	-0.750			
0.5262	33675.21	3.5110	3.5110	-1.5770	6.52	0.55	-0.750			
0.5309	33978.98	3.5080	3.5079	-1.5763	6.53	0.56	-0.750			
0.5356	34281.56	3.5050	3.5050	-1.5739	6.54	0.57	-0.750			
0.5404	34586.32	3.5020	3.5019	-1.5714	6.54	0.57	-0.750			
0.5452	34892.20	3.4990	3.4990	-1.5713	6.55	0.58	-0.750			
0.5498	35189.17	3.4960	3.4962	-1.5607	6.56	0.59	-0.750			
0.5546	35493.38	3.4930	3.4928	-1.5134	6.57	0.60	-0.750			
0.5591	35784.26	3.4900	3.4900	-1.4621	6.57	0.60	-0.750			
0.5634	36056.30	3.4870	3.4873	-1.4550	6.58	0.61	-0.750			
0.5676	36324.07	3.4840	3.4845	-1.4414	6.59	0.62	-0.750			
0.5718	36593.16	3.4810	3.4803	-1.4297	6.59	0.62	-0.750			
0.5760	36866.30	3.4780	3.4779	-1.4606	6.60	0.63	-0.750			
0.5804	37148.71	3.4750	3.4754	-1.4883	6.61	0.64	-0.750			
0.5853	37459.81	3.4720	3.4718	-1.5305	6.62	0.65	-0.750			
0.5899	37750.76	3.4690	3.4691	-1.4943	6.64	0.67	-0.750			
0.5943	38036.54	3.4660	3.4663	-1.4967	6.65	0.68	-0.750			
0.5988	38321.69	3.4630	3.4629	-1.4822	6.66	0.69	-0.750			
0.6032	38603.74	3.4600	3.4598	-1.4807	6.66	0.69	-0.750			
0.6076	38886.52	3.4570	3.4573	-1.4572	6.67	0.70	-0.750			
0.6121	39171.87	3.4540	3.4539	-1.4589	6.68	0.71	-0.750			
0.6164	39447.15	3.4510	3.4510	-1.4493	6.69	0.72	-0.750			
0.6206	39720.70	3.4480	3.4481	-1.4155	6.70	0.73	-0.750			
0.6250	39997.64	3.4450	3.4448	-1.4158	6.71	0.74	-0.750			
0.6292	40267.22	3.4420	3.4419	-1.3982	6.72	0.75	-0.750			
0.6333	40533.64	3.4390	3.4391	-1.3699	6.74	0.77	-0.750			
0.6375	40800.69	3.4360	3.4359	-1.3529	6.75	0.78	-0.750			
0.6415	41053.37	3.4330	3.4330	-1.3292	6.76	0.79	-0.750			
0.6454	41303.16	3.4300	3.4301	-1.3001	6.77	0.80	-0.750			
0.6493	41556.92	3.4270	3.4270	-1.2781	6.79	0.82	-0.750			
0.6531	41799.27	3.4240	3.4239	-1.2528	6.80	0.83	-0.750			
0.6568	42036.31	3.4210	3.4213	-1.2244	6.81	0.84	-0.750			
0.6605	42271.14	3.4180	3.4179	-1.2068	6.83	0.86	-0.750			
0.6641	42500.85	3.4150	3.4149	-1.1742	6.84	0.87	-0.750			
0.6675	42721.69	3.4120	3.4120	-1.1382	6.85	0.88	-0.750			
0.6709	42937.54	3.4090	3.4091	-1.1207	6.87	0.90	-0.750			
0.6742	43151.17	3.4060	3.4060	-1.0962	6.88	0.91	-0.750			
0.6775	43357.42	3.4030	3.4029	-1.0646	6.89	0.92	-0.750			
0.6806	43560.20	3.4000	3.4000	-1.0379	6.91	0.94	-0.750			
0.6837	43755.73	3.3970	3.3970	-1.0177	6.92	0.95	-0.750			
0.6867	43951.80	3.3940	3.3940	-0.9972	6.93	0.96	-0.750			
0.6897	44139.54	3.3910	3.3909	-0.9710	6.95	0.98	-0.750			
0.6925	44322.64	3.3880	3.3879	-0.9354	6.96	0.99	-0.750			
0.6953	44501.01	3.3850	3.3850	-0.9151	6.98	1.01	-0.750			
0.6980	44674.48	3.3820	3.3820	-0.8904	6.99	1.02	-0.750			
0.7007	44843.48	3.3790	3.3789	-0.8628	7.00	1.03	-0.750			
0.7032	45003.59	3.3760	3.3759	-0.8357	7.01	1.04	-0.750			
0.7057	45163.25	3.3730	3.3730	-0.8168	7.03	1.06	-0.750			
0.7081	45317.06	3.3700	3.3699	-0.7950	7.04	1.07	-0.750			
0.7105	45468.95	3.3670	3.3670	-0.7771	7.05	1.08	-0.750			
0.7127	45614.27	3.3640	3.3641	-0.7559	7.06	1.09	-0.750			
0.7150	45758.57	3.3610	3.3610	-0.7384	7.07	1.10	-0.750			
0.7172	45900.80	3.3580	3.3580	-0.7181	7.08	1.11	-0.750			
0.7193	46036.23	3.3550	3.3551	-0.6928	7.09	1.12	-0.750			
0.7214	46168.38	3.3520	3.3519	-0.6671	7.10	1.13	-0.750			
0.7233	46293.75	3.3490	3.3491	-0.6350	7.11	1.14	-0.750			
0.7252	46412.74	3.3460	3.3460	-0.6062	7.12	1.15	-0.750			
