Ah_balance (normalized)	Ah_balance (mAh)	Voltage - fit (V)	Voltage -  interpolate (V)	dQ/dV (1/V)	Temperature (°C)	Temperature - diff (°C)	Current (C)	R_DC 0ms (mOhm)	R_DC 50ms (mOhm)	R_DC 50 ms PEC (mOhm)
0.0941	6021.36	4.0070	4.0066	-0.0822	6.01	0.01	-0.750			
0.0944	6040.06	4.0040	4.0038	-0.1125	6.00	0.00	-0.750			
0.0948	6065.62	4.0010	4.0008	-0.1412	6.00	0.00	-0.750			
0.0952	6095.55	3.9980	3.9981	-0.1671	6.00	0.00	-0.750			
0.0958	6130.35	3.9950	3.9951	-0.1914	6.00	0.00	-0.750			
0.0964	6169.58	3.9920	3.9921	-0.2163	6.00	-0.00	-0.750			
0.0971	6214.29	3.9890	3.9889	-0.2414	6.00	-0.00	-0.750			
0.0979	6262.52	3.9860	3.9860	-0.2640	6.00	-0.00	-0.750			
0.0987	6315.59	3.9830	3.9830	-0.2872	5.99	-0.01	-0.750			
0.0996	6372.89	3.9800	3.9800	-0.3116	5.99	-0.01	-0.750			
0.1005	6434.89	3.9770	3.9770	-0.3370	5.99	-0.01	-0.750			
0.1016	6502.07	3.9740	3.9740	-0.3609	5.99	-0.01	-0.750			
0.1027	6573.65	3.9710	3.9710	-0.3839	5.98	-0.02	-0.750			
0.1039	6649.47	3.9680	3.9680	-0.4103	5.98	-0.02	-0.750			
0.1052	6731.39	3.9650	3.9650	-0.4339	5.98	-0.02	-0.750			
0.1065	6817.07	3.9620	3.9619	-0.4576	5.98	-0.02	-0.750			
0.1079	6907.18	3.9590	3.9590	-0.4800	5.97	-0.03	-0.750			
0.1094	7001.63	3.9560	3.9560	-0.5019	5.97	-0.03	-0.750			
0.1109	7100.58	3.9530	3.9529	-0.5254	5.97	-0.03	-0.750			
0.1126	7204.97	3.9500	3.9500	-0.5426	5.96	-0.04	-0.750			
0.1142	7310.73	3.9470	3.9469	-0.5573	5.96	-0.04	-0.750			
0.1159	7420.02	3.9440	3.9441	-0.5734	5.96	-0.04	-0.750			
0.1177	7530.66	3.9410	3.9411	-0.5882	5.96	-0.04	-0.750			
0.1195	7645.03	3.9380	3.9379	-0.6017	5.95	-0.05	-0.750			
0.1213	7761.62	3.9350	3.9351	-0.6153	5.95	-0.05	-0.750			
0.1231	7881.00	3.9320	3.9320	-0.6303	5.95	-0.05	-0.750			
0.1251	8006.46	3.9290	3.9290	-0.6452	5.95	-0.05	-0.750			
0.1270	8130.36	3.9260	3.9260	-0.6607	5.95	-0.05	-0.750			
0.1290	8258.13	3.9230	3.9231	-0.6741	5.95	-0.05	-0.750			
0.1311	8390.61	3.9200	3.9198	-0.6814	5.95	-0.05	-0.750			
0.1332	8523.99	3.9170	3.9169	-0.6899	5.95	-0.05	-0.750			
0.1352	8655.56	3.9140	3.9140	-0.6983	5.95	-0.05	-0.750			
0.1373	8789.91	3.9110	3.9111	-0.7059	5.96	-0.04	-0.750			
0.1395	8926.14	3.9080	3.9078	-0.7149	5.96	-0.04	-0.750			
0.1416	9061.62	3.9050	3.9050	-0.7209	5.96	-0.04	-0.750			
0.1438	9203.45	3.9020	3.9021	-0.7289	5.97	-0.03	-0.750			
0.1460	9345.44	3.8990	3.8990	-0.7372	5.97	-0.03	-0.750			
0.1483	9489.68	3.8960	3.8960	-0.7370	5.97	-0.03	-0.750			
0.1505	9629.11	3.8930	3.8930	-0.7360	5.98	-0.02	-0.750			
0.1527	9770.93	3.8900	3.8900	-0.7432	5.98	-0.02	-0.750			
0.1549	9913.84	3.8870	3.8868	-0.7478	5.98	-0.02	-0.750			
0.1572	10058.22	3.8840	3.8839	-0.7513	5.99	-0.01	-0.750			
0.1594	10203.45	3.8810	3.8812	-0.7552	5.99	-0.01	-0.750			
0.1617	10349.87	3.8780	3.8779	-0.7558	5.99	-0.01	-0.750			
0.1640	10495.28	3.8750	3.8750	-0.7629	6.00	-0.00	-0.750			
0.1662	10638.02	3.8720	3.8720	-0.7588	6.00	0.00	-0.750			
0.1685	10786.63	3.8690	3.8689	-0.7650	6.01	0.01	-0.750			
0.1708	10933.35	3.8660	3.8660	-0.7698	6.01	0.01	-0.750			
0.1732	11082.11	3.8630	3.8630	-0.7765	6.02	0.02	-0.750			
0.1755	11230.80	3.8600	3.8598	-0.7855	6.02	0.02	-0.750			
0.1779	11383.13	3.8570	3.8570	-0.7896	6.03	0.03	-0.750			
0.1802	11534.23	3.8540	3.8541	-0.7928	6.04	0.04	-0.750			
0.1827	11690.23	3.8510	3.8509	-0.7969	6.05	0.05	-0.750			
0.1851	11844.19	3.8480	3.8480	-0.7960	6.05	0.05	-0.750			
0.1874	11994.16	3.8450	3.8450	-0.7953	6.06	0.06	-0.750			
0.1898	12147.85	3.8420	3.8420	-0.7918	6.06	0.06	-0.750			
0.1922	12298.74	3.8390	3.8390	-0.7899	6.07	0.07	-0.750			
0.1946	12451.83	3.8360	3.8359	-0.7885	6.08	0.08	-0.750			
0.1969	12602.65	3.8330	3.8331	-0.7878	6.08	0.08	-0.750			
0.1993	12753.56	3.8300	3.8299	-0.7897	6.09	0.09	-0.750			
0.2016	12904.07	3.8270	3.8270	-0.7933	6.09	0.09	-0.750			
0.2040	13056.16	3.8240	3.8239	-0.7914	6.10	0.10	-0.750			
0.2064	13211.65	3.8210	3.8210	-0.7957	6.10	0.10	-0.750			
0.2088	13364.67	3.8180	3.8181	-0.7951	6.11	0.11	-0.750			
0.2112	13517.72	3.8150	3.8150	-0.7961	6.12	0.12	-0.750			
0.2136	13668.93	3.8120	3.8120	-0.7997	6.13	0.13	-0.750			
0.2160	13821.37	3.8090	3.8089	-0.7969	6.13	0.13	-0.750			
0.2184	13975.32	3.8060	3.8059	-0.7980	6.14	0.14	-0.750			
0.2208	14129.66	3.8030	3.8032	-0.7990	6.15	0.15	-0.750			
0.2232	14283.92	3.8000	3.8000	-0.8014	6.16	0.16	-0.750			
0.2256	14435.42	3.7970	3.7970	-0.8015	6.16	0.16	-0.750			
0.2279	14588.45	3.7940	3.7940	-0.7978	6.17	0.17	-0.750			
0.2303	14741.31	3.7910	3.7909	-0.7996	6.18	0.18	-0.750			
0.2328	14897.53	3.7880	3.7881	-0.8052	6.19	0.19	-0.750			
0.2352	15052.71	3.7850	3.7850	-0.7999	6.19	0.19	-0.750			
0.2376	15205.50	3.7820	3.7820	-0.8047	6.20	0.20	-0.750			
0.2400	15359.99	3.7790	3.7789	-0.8027	6.21	0.21	-0.750			
0.2424	15512.10	3.7760	3.7760	-0.8015	6.22	0.22	-0.750			
0.2448	15667.81	3.7730	3.7730	-0.8056	6.23	0.23	-0.750			
0.2472	15823.00	3.7700	3.7700	-0.8069	6.23	0.23	-0.750			
0.2497	15978.56	3.7670	3.7669	-0.8063	6.24	0.24	-0.750			
0.2521	16134.62	3.7640	3.7640	-0.8047	6.25	0.25	-0.750			
0.2545	16286.36	3.7610	3.7610	-0.8025	6.26	0.26	-0.750			
0.2569	16440.75	3.7580	3.7580	-0.8077	6.26	0.26	-0.750			
0.2593	16595.35	3.7550	3.7549	-0.8055	6.27	0.27	-0.750			
0.2617	16750.08	3.7520	3.7520	-0.8092	6.28	0.28	-0.750			
0.2641	16905.43	3.7490	3.7491	-0.8190	6.29	0.29	-0.750			
0.2666	17064.93	3.7460	3.7460	-0.8221	6.30	0.30	-0.750			
0.2691	17224.92	3.7430	3.7429	-0.8233	6.30	0.30	-0.750			
0.2716	17382.31	3.7400	3.7402	-0.8214	6.31	0.31	-0.750			
0.2741	17540.24	3.7370	3.7370	-0.8187	6.32	0.32	-0.750			
0.2765	17697.48	3.7340	3.7340	-0.8268	6.33	0.33	-0.750			
0.2790	17854.24	3.7310	3.7310	-0.8254	6.33	0.33	-0.750			
0.2815	18014.06	3.7280	3.7279	-0.8301	6.34	0.34	-0.750			
0.2840	18173.49	3.7250	3.7253	-0.8395	6.35	0.35	-0.750			
0.2865	18336.42	3.7220	3.7219	-0.8437	6.36	0.36	-0.750			
0.2890	18498.48	3.7190	3.7190	-0.8494	6.36	0.36	-0.750			
0.2916	18662.27	3.7160	3.7160	-0.8521	6.37	0.37	-0.750			
0.2942	18826.51	3.7130	3.7130	-0.8604	6.37	0.37	-0.750			
0.2968	18992.51	3.7100	3.7101	-0.8654	6.38	0.38	-0.750			
0.2993	19158.21	3.7070	3.7070	-0.8731	6.39	0.39	-0.750			
0.3020	19325.61	3.7040	3.7039	-0.8753	6.39	0.39	-0.750			
0.3046	19495.20	3.7010	3.7011	-0.8842	6.40	0.40	-0.750			
0.3073	19665.64	3.6980	3.6979	-0.8914	6.41	0.41	-0.750			
0.3099	19836.73	3.6950	3.6951	-0.8988	6.41	0.41	-0.750			
0.3126	20008.68	3.6920	3.6920	-0.9109	6.42	0.42	-0.750			
0.3154	20185.19	3.6890	3.6889	-0.9215	6.43	0.43	-0.750			
0.3182	20363.57	3.6860	3.6860	-0.9312	6.44	0.44	-0.750			
0.3210	20545.39	3.6830	3.6832	-0.9410	6.45	0.45	-0.750			
0.3239	20727.58	3.6800	3.6799	-0.9511	6.45	0.45	-0.750			
0.3267	20911.11	3.6770	3.6771	-0.9582	6.46	0.46	-0.750			
0.3296	21093.62	3.6740	3.6739	-0.9633	6.46	0.46	-0.750			
0.3325	21277.60	3.6710	3.6710	-0.9767	6.47	0.47	-0.750			
0.3354	21466.61	3.6680	3.6680	-0.9959	6.47	0.47	-0.750			
0.3384	21660.13	3.6650	3.6650	-1.0049	6.48	0.48	-0.750			
0.3415	21856.32	3.6620	3.6619	-1.0187	6.48	0.48	-0.750			
0.3446	22054.06	3.6590	3.6590	-1.0250	6.49	0.49	-0.750			
0.3477	22251.44	3.6560	3.6562	-1.0382	6.49	0.49	-0.750			
0.3508	22450.55	3.6530	3.6529	-1.0485	6.50	0.50	-0.750			
0.3539	22651.93	3.6500	3.6500	-1.0591	6.50	0.50	-0.750			
0.3571	22854.49	3.6470	3.6469	-1.0691	6.51	0.51	-0.750			
0.3604	23062.93	3.6440	3.6440	-1.0892	6.51	0.51	-0.750			
0.3637	23276.03	3.6410	3.6410	-1.0983	6.52	0.52	-0.750			
0.3670	23487.79	3.6380	3.6380	-1.1120	6.52	0.52	-0.750			
0.3703	23701.64	3.6350	3.6351	-1.1200	6.53	0.53	-0.750			
0.3737	23919.41	3.6320	3.6319	-1.1469	6.53	0.53	-0.750			
0.3772	24142.54	3.6290	3.6289	-1.1546	6.54	0.54	-0.750			
0.3807	24365.56	3.6260	3.6259	-1.1640	6.55	0.55	-0.750			
0.3842	24590.13	3.6230	3.6234	-1.1792	6.55	0.55	-0.750			
0.3878	24821.40	3.6200	3.6200	-1.1964	6.56	0.56	-0.750			
0.3914	25048.98	3.6170	3.6169	-1.2026	6.56	0.56	-0.750			
0.3950	25278.58	3.6140	3.6140	-1.2118	6.57	0.57	-0.750			
0.3987	25515.06	3.6110	3.6108	-1.2361	6.57	0.57	-0.750			
0.4024	25753.98	3.6080	3.6080	-1.2627	6.58	0.58	-0.750			
0.4061	25991.42	3.6050	3.6050	-1.3012	6.59	0.59	-0.750			
0.4101	26246.25	3.6020	3.6019	-1.3258	6.59	0.59	-0.750			
0.4142	26509.52	3.5990	3.5994	-1.3568	6.60	0.60	-0.750	0.488	1.094	
0.4184	26774.88	3.5960	3.5959	-1.3726	6.61	0.61	-0.750			
0.4226	27045.26	3.5930	3.5931	-1.3819	6.61	0.61	-0.750			
0.4267	27309.60	3.5900	3.5900	-1.3783	6.61	0.61	-0.750			
0.4308	27574.00	3.5870	3.5869	-1.3798	6.62	0.62	-0.750			
0.4349	27830.92	3.5840	3.5841	-1.3744	6.62	0.62	-0.750			
0.4391	28100.32	3.5810	3.5810	-1.4002	6.62	0.62	-0.750			
0.4433	28368.35	3.5780	3.5780	-1.4210	6.63	0.63	-0.750			
0.4476	28643.60	3.5750	3.5750	-1.4382	6.63	0.63	-0.750			
0.4519	28923.28	3.5720	3.5720	-1.4581	6.64	0.64	-0.750			
0.4563	29205.54	3.5690	3.5689	-1.4730	6.65	0.65	-0.750			
0.4608	29490.72	3.5660	3.5660	-1.4820	6.65	0.65	-0.750			
0.4653	29776.49	3.5630	3.5630	-1.5076	6.66	0.66	-0.750			
0.4698	30067.87	3.5600	3.5600	-1.5190	6.66	0.66	-0.750			
0.4744	30361.09	3.5570	3.5569	-1.5259	6.66	0.66	-0.750			
0.4790	30654.88	3.5540	3.5541	-1.5551	6.67	0.67	-0.750			
0.4836	30952.81	3.5510	3.5511	-1.5624	6.67	0.67	-0.750			
0.4883	31253.17	3.5480	3.5480	-1.5764	6.68	0.68	-0.750			
0.4931	31557.81	3.5450	3.5448	-1.5939	6.68	0.68	-0.750			
0.4979	31864.57	3.5420	3.5420	-1.6030	6.69	0.69	-0.750			
0.5028	32177.88	3.5390	3.5391	-1.6407	6.70	0.70	-0.750			
0.5077	32492.75	3.5360	3.5359	-1.6652	6.70	0.70	-0.750			
0.5128	32819.24	3.5330	3.5329	-1.6777	6.70	0.70	-0.750			
0.5178	33139.42	3.5300	3.5302	-1.6755	6.71	0.71	-0.750			
0.5229	33464.90	3.5270	3.5271	-1.6939	6.71	0.71	-0.750			
0.5279	33787.63	3.5240	3.5239	-1.6994	6.72	0.72	-0.750			
0.5330	34114.79	3.5210	3.5213	-1.6992	6.73	0.73	-0.750			
0.5381	34437.89	3.5180	3.5180	-1.7012	6.74	0.74	-0.750			
0.5432	34765.07	3.5150	3.5150	-1.7059	6.75	0.75	-0.750			
0.5484	35096.24	3.5120	3.5118	-1.7057	6.75	0.75	-0.750			
0.5535	35426.39	3.5090	3.5091	-1.7169	6.76	0.76	-0.750			
0.5586	35752.76	3.5060	3.5060	-1.7110	6.77	0.77	-0.750			
0.5638	36083.42	3.5030	3.5029	-1.7090	6.78	0.78	-0.750			
0.5689	36409.14	3.5000	3.5000	-1.6849	6.79	0.79	-0.750			
0.5740	36735.90	3.4970	3.4969	-1.6835	6.79	0.79	-0.750			
0.5790	37057.88	3.4940	3.4940	-1.6839	6.80	0.80	-0.750			
0.5841	37381.53	3.4910	3.4911	-1.6758	6.81	0.81	-0.750			
0.5893	37716.18	3.4880	3.4880	-1.6123	6.82	0.82	-0.750			
0.5941	38022.20	3.4850	3.4849	-1.5581	6.83	0.83	-0.750			
0.5986	38313.20	3.4820	3.4821	-1.5238	6.85	0.85	-0.750			
0.6030	38590.52	3.4790	3.4792	-1.4988	6.86	0.86	-0.750			
0.6073	38867.45	3.4760	3.4756	-1.4947	6.87	0.87	-0.750			
0.6117	39147.40	3.4730	3.4728	-1.4981	6.87	0.87	-0.750			
0.6162	39436.21	3.4700	3.4701	-1.5411	6.88	0.88	-0.750			
0.6212	39755.27	3.4670	3.4671	-1.5646	6.89	0.89	-0.750			
0.6259	40057.69	3.4640	3.4641	-1.5461	6.90	0.90	-0.750			
0.6306	40355.23	3.4610	3.4609	-1.5178	6.90	0.90	-0.750			
0.6351	40646.27	3.4580	3.4580	-1.4954	6.91	0.91	-0.750			
0.6395	40929.32	3.4550	3.4548	-1.4632	6.93	0.93	-0.750			
0.6438	41201.60	3.4520	3.4520	-1.4418	6.94	0.94	-0.750			
0.6481	41476.34	3.4490	3.4491	-1.4187	6.96	0.96	-0.750			
0.6523	41750.24	3.4460	3.4459	-1.4042	6.97	0.97	-0.750			
0.6565	42014.09	3.4430	3.4428	-1.3923	6.98	0.98	-0.750			
0.6607	42282.74	3.4400	3.4399	-1.3639	7.00	1.00	-0.750			
0.6648	42546.06	3.4370	3.4369	-1.3429	7.01	1.01	-0.750			
0.6688	42800.70	3.4340	3.4340	-1.3215	7.02	1.02	-0.750			
0.6726	43048.57	3.4310	3.4311	-1.2857	7.03	1.03	-0.750			
0.6766	43299.33	3.4280	3.4278	-1.2689	7.05	1.05	-0.750			
0.6803	43538.15	3.4250	3.4249	-1.2370	7.06	1.06	-0.750			
0.6839	43769.56	3.4220	3.4223	-1.2047	7.07	1.07	-0.750			
0.6876	44003.20	3.4190	3.4189	-1.1877	7.09	1.09	-0.750			
0.6911	44228.56	3.4160	3.4160	-1.1557	7.10	1.10	-0.750			
0.6945	44446.93	3.4130	3.4128	-1.1200	7.11	1.11	-0.750			
0.6978	44659.69	3.4100	3.4100	-1.0934	7.13	1.13	-0.750			
0.7011	44867.39	3.4070	3.4070	-1.0625	7.15	1.15	-0.750			
0.7042	45067.37	3.4040	3.4040	-1.0318	7.16	1.16	-0.750			
0.7072	45260.24	3.4010	3.4009	-0.9978	7.18	1.18	-0.750			
0.7102	45451.26	3.3980	3.3981	-0.9767	7.20	1.20	-0.750			
0.7131	45635.86	3.3950	3.3949	-0.9568	7.21	1.21	-0.750			
0.7159	45819.26	3.3920	3.3920	-0.9259	7.22	1.22	-0.750			
0.7186	45993.50	3.3890	3.3890	-0.9004	7.24	1.24	-0.750			
0.7213	46163.83	3.3860	3.3863	-0.8761	7.25	1.25	-0.750			
0.7239	46329.62	3.3830	3.3829	-0.8500	7.26	1.26	-0.750			
0.7264	46489.74	3.3800	3.3799	-0.8304	7.27	1.27	-0.750			
0.7288	46644.79	3.3770	3.3771	-0.8136	7.29	1.29	-0.750			
0.7312	46799.94	3.3740	3.3740	-0.8047	7.30	1.30	-0.750			
0.7336	46951.89	3.3710	3.3711	-0.7706	7.31	1.31	-0.750			
