Ah_balance (normalized)	Ah_balance (mAh)	Voltage - fit (V)	Voltage -  interpolate (V)	dQ/dV (1/V)	Temperature (°C)	Temperature - diff (°C)	Current (C)	R_DC 0ms (mOhm)	R_DC 50ms (mOhm)	R_DC 50 ms PEC (mOhm)
0.0961	6148.00	4.0020	4.0021	-0.0967	5.98	0.01	-0.750			
0.0964	6169.26	3.9990	3.9989	-0.1226	5.98	0.01	-0.750			
0.0968	6195.16	3.9960	3.9960	-0.1472	5.97	0.00	-0.750			
0.0973	6226.31	3.9930	3.9930	-0.1697	5.97	0.00	-0.750			
0.0978	6260.76	3.9900	3.9901	-0.1947	5.97	0.00	-0.750			
0.0984	6300.64	3.9870	3.9870	-0.2186	5.97	0.00	-0.750			
0.0991	6345.09	3.9840	3.9840	-0.2413	5.97	0.00	-0.750			
0.0999	6393.75	3.9810	3.9809	-0.2636	5.97	-0.00	-0.750			
0.1007	6447.25	3.9780	3.9781	-0.2840	5.97	-0.00	-0.750			
0.1016	6503.38	3.9750	3.9751	-0.3080	5.97	-0.00	-0.750			
0.1026	6564.50	3.9720	3.9720	-0.3332	5.97	-0.00	-0.750			
0.1036	6629.51	3.9690	3.9691	-0.3571	5.96	-0.01	-0.750			
0.1047	6701.29	3.9660	3.9659	-0.3814	5.96	-0.01	-0.750			
0.1059	6777.67	3.9630	3.9631	-0.4057	5.96	-0.01	-0.750			
0.1071	6857.48	3.9600	3.9601	-0.4298	5.96	-0.01	-0.750			
0.1085	6943.11	3.9570	3.9569	-0.4513	5.96	-0.01	-0.750			
0.1099	7031.50	3.9540	3.9540	-0.4701	5.95	-0.02	-0.750			
0.1113	7124.29	3.9510	3.9508	-0.4898	5.95	-0.02	-0.750			
0.1128	7220.80	3.9480	3.9482	-0.5089	5.95	-0.02	-0.750			
0.1144	7320.75	3.9450	3.9449	-0.5290	5.95	-0.02	-0.750			
0.1160	7423.91	3.9420	3.9420	-0.5467	5.94	-0.03	-0.750			
0.1176	7529.47	3.9390	3.9390	-0.5594	5.94	-0.03	-0.750			
0.1194	7640.11	3.9360	3.9360	-0.5783	5.94	-0.03	-0.750			
0.1211	7753.25	3.9330	3.9330	-0.5943	5.94	-0.03	-0.750			
0.1230	7869.29	3.9300	3.9300	-0.6070	5.93	-0.04	-0.750			
0.1248	7987.62	3.9270	3.9270	-0.6181	5.93	-0.04	-0.750			
0.1267	8106.67	3.9240	3.9240	-0.6280	5.93	-0.04	-0.750			
0.1286	8228.40	3.9210	3.9211	-0.6406	5.93	-0.04	-0.750			
0.1305	8351.94	3.9180	3.9180	-0.6539	5.93	-0.04	-0.750			
0.1325	8480.85	3.9150	3.9148	-0.6597	5.94	-0.03	-0.750			
0.1345	8607.61	3.9120	3.9120	-0.6652	5.94	-0.03	-0.750			
0.1365	8735.66	3.9090	3.9090	-0.6737	5.94	-0.03	-0.750			
0.1385	8866.47	3.9060	3.9059	-0.6824	5.94	-0.03	-0.750			
0.1406	8998.36	3.9030	3.9029	-0.6857	5.94	-0.03	-0.750			
0.1426	9128.81	3.9000	3.9001	-0.6921	5.94	-0.03	-0.750			
0.1447	9263.52	3.8970	3.8970	-0.6930	5.95	-0.02	-0.750			
0.1469	9398.96	3.8940	3.8940	-0.6973	5.95	-0.02	-0.750			
0.1489	9531.94	3.8910	3.8909	-0.6965	5.95	-0.02	-0.750			
0.1510	9664.65	3.8880	3.8880	-0.7020	5.95	-0.02	-0.750			
0.1531	9798.81	3.8850	3.8850	-0.7066	5.96	-0.01	-0.750			
0.1552	9935.36	3.8820	3.8819	-0.7154	5.96	-0.01	-0.750			
0.1574	10073.09	3.8790	3.8791	-0.7209	5.96	-0.01	-0.750			
0.1596	10215.68	3.8760	3.8759	-0.7260	5.97	-0.00	-0.750			
0.1618	10355.25	3.8730	3.8731	-0.7244	5.97	-0.00	-0.750			
0.1639	10491.59	3.8700	3.8701	-0.7349	5.97	0.00	-0.750			
0.1661	10632.21	3.8670	3.8669	-0.7325	5.98	0.01	-0.750			
0.1684	10774.85	3.8640	3.8639	-0.7354	5.98	0.01	-0.750			
0.1706	10917.14	3.8610	3.8609	-0.7304	5.98	0.01	-0.750			
0.1728	11059.45	3.8580	3.8584	-0.7321	5.99	0.02	-0.750			
0.1750	11199.55	3.8550	3.8552	-0.7317	5.99	0.02	-0.750			
0.1772	11337.69	3.8520	3.8519	-0.7261	6.00	0.03	-0.750			
0.1793	11473.32	3.8490	3.8490	-0.7296	6.00	0.03	-0.750			
0.1815	11614.61	3.8460	3.8460	-0.7380	6.01	0.04	-0.750			
0.1837	11759.04	3.8430	3.8429	-0.7449	6.02	0.05	-0.750			
0.1860	11903.18	3.8400	3.8400	-0.7434	6.03	0.06	-0.750			
0.1882	12046.42	3.8370	3.8371	-0.7419	6.03	0.06	-0.750			
0.1904	12188.15	3.8340	3.8340	-0.7419	6.03	0.06	-0.750			
0.1926	12329.58	3.8310	3.8310	-0.7415	6.04	0.07	-0.750			
0.1949	12471.17	3.8280	3.8279	-0.7388	6.04	0.07	-0.750			
0.1971	12614.44	3.8250	3.8250	-0.7419	6.05	0.08	-0.750			
0.1993	12757.81	3.8220	3.8220	-0.7430	6.05	0.08	-0.750			
0.2016	12899.73	3.8190	3.8190	-0.7443	6.06	0.09	-0.750			
0.2038	13041.59	3.8160	3.8159	-0.7441	6.06	0.09	-0.750			
0.2060	13184.79	3.8130	3.8130	-0.7436	6.07	0.10	-0.750			
0.2083	13328.86	3.8100	3.8100	-0.7421	6.08	0.11	-0.750			
0.2105	13473.43	3.8070	3.8070	-0.7449	6.08	0.11	-0.750			
0.2127	13615.82	3.8040	3.8041	-0.7430	6.09	0.12	-0.750			
0.2150	13757.25	3.8010	3.8011	-0.7421	6.09	0.12	-0.750			
0.2172	13898.64	3.7980	3.7979	-0.7457	6.10	0.13	-0.750			
0.2194	14042.04	3.7950	3.7950	-0.7467	6.10	0.13	-0.750			
0.2217	14186.10	3.7920	3.7919	-0.7555	6.10	0.13	-0.750			
0.2239	14331.49	3.7890	3.7889	-0.7543	6.11	0.14	-0.750			
0.2262	14477.98	3.7860	3.7859	-0.7532	6.11	0.14	-0.750			
0.2285	14622.33	3.7830	3.7829	-0.7522	6.12	0.15	-0.750			
0.2307	14765.36	3.7800	3.7803	-0.7514	6.13	0.16	-0.750			
0.2330	14908.99	3.7770	3.7770	-0.7494	6.14	0.17	-0.750			
0.2352	15055.85	3.7740	3.7739	-0.7566	6.14	0.17	-0.750			
0.2375	15201.14	3.7710	3.7711	-0.7540	6.15	0.18	-0.750			
0.2398	15346.14	3.7680	3.7680	-0.7597	6.16	0.19	-0.750			
0.2420	15491.12	3.7650	3.7649	-0.7651	6.16	0.19	-0.750			
0.2443	15637.78	3.7620	3.7620	-0.7689	6.17	0.20	-0.750			
0.2466	15785.17	3.7590	3.7588	-0.7713	6.18	0.21	-0.750			
0.2490	15933.83	3.7560	3.7561	-0.7750	6.19	0.22	-0.750			
0.2513	16084.69	3.7530	3.7530	-0.7769	6.19	0.22	-0.750			
0.2536	16233.14	3.7500	3.7499	-0.7840	6.20	0.23	-0.750			
0.2560	16383.90	3.7470	3.7471	-0.7823	6.21	0.24	-0.750			
0.2583	16533.71	3.7440	3.7439	-0.7867	6.22	0.25	-0.750			
0.2607	16686.94	3.7410	3.7410	-0.7927	6.22	0.25	-0.750			
0.2631	16839.69	3.7380	3.7381	-0.7982	6.23	0.26	-0.750			
0.2655	16991.70	3.7350	3.7349	-0.8012	6.24	0.27	-0.750			
0.2679	17146.72	3.7320	3.7320	-0.8079	6.24	0.27	-0.750			
0.2703	17300.45	3.7290	3.7290	-0.8129	6.24	0.27	-0.750			
0.2728	17458.82	3.7260	3.7260	-0.8207	6.25	0.28	-0.750			
0.2753	17616.14	3.7230	3.7231	-0.8289	6.25	0.28	-0.750			
0.2778	17776.32	3.7200	3.7200	-0.8394	6.26	0.29	-0.750			
0.2803	17938.07	3.7170	3.7170	-0.8469	6.26	0.29	-0.750			
0.2829	18102.70	3.7140	3.7139	-0.8520	6.27	0.30	-0.750			
0.2854	18267.10	3.7110	3.7111	-0.8579	6.28	0.31	-0.750			
0.2880	18432.26	3.7080	3.7080	-0.8622	6.28	0.31	-0.750			
0.2906	18598.05	3.7050	3.7050	-0.8712	6.29	0.32	-0.750			
0.2932	18764.56	3.7020	3.7020	-0.8745	6.29	0.32	-0.750			
0.2958	18932.87	3.6990	3.6990	-0.8791	6.30	0.33	-0.750			
0.2985	19103.20	3.6960	3.6960	-0.8862	6.31	0.34	-0.750			
0.3012	19274.39	3.6930	3.6930	-0.8930	6.31	0.34	-0.750			
0.3038	19446.07	3.6900	3.6900	-0.9007	6.32	0.35	-0.750			
0.3066	19619.90	3.6870	3.6870	-0.9059	6.32	0.35	-0.750			
0.3093	19792.50	3.6840	3.6840	-0.9131	6.33	0.36	-0.750			
0.3120	19969.91	3.6810	3.6810	-0.9227	6.33	0.36	-0.750			
0.3148	20147.34	3.6780	3.6780	-0.9358	6.33	0.36	-0.750			
0.3176	20328.90	3.6750	3.6750	-0.9428	6.34	0.37	-0.750			
0.3205	20511.28	3.6720	3.6720	-0.9494	6.34	0.37	-0.750			
0.3233	20693.77	3.6690	3.6690	-0.9600	6.35	0.38	-0.750			
0.3263	20880.68	3.6660	3.6661	-0.9677	6.35	0.38	-0.750			
0.3292	21067.44	3.6630	3.6628	-0.9794	6.36	0.39	-0.750			
0.3321	21256.02	3.6600	3.6600	-0.9894	6.36	0.39	-0.750			
0.3351	21446.10	3.6570	3.6570	-0.9949	6.37	0.40	-0.750			
0.3381	21637.97	3.6540	3.6542	-1.0125	6.37	0.40	-0.750			
0.3412	21834.79	3.6510	3.6509	-1.0201	6.38	0.41	-0.750			
0.3442	22030.97	3.6480	3.6480	-1.0242	6.38	0.41	-0.750			
0.3473	22227.28	3.6450	3.6450	-1.0284	6.39	0.42	-0.750			
0.3504	22427.49	3.6420	3.6422	-1.0455	6.39	0.42	-0.750			
0.3536	22628.11	3.6390	3.6390	-1.0536	6.40	0.43	-0.750			
0.3568	22832.76	3.6360	3.6359	-1.0613	6.40	0.43	-0.750			
0.3599	23035.87	3.6330	3.6329	-1.0702	6.41	0.44	-0.750			
0.3631	23241.57	3.6300	3.6302	-1.0958	6.41	0.44	-0.750			
0.3665	23454.70	3.6270	3.6270	-1.1024	6.41	0.44	-0.750			
0.3698	23668.76	3.6240	3.6239	-1.1081	6.41	0.44	-0.750			
0.3732	23882.95	3.6210	3.6208	-1.1090	6.41	0.44	-0.750			
0.3765	24096.03	3.6180	3.6179	-1.1247	6.41	0.44	-0.750			
0.3799	24314.15	3.6150	3.6149	-1.1272	6.42	0.45	-0.750			
0.3833	24529.21	3.6120	3.6118	-1.1340	6.42	0.45	-0.750			
0.3866	24743.29	3.6090	3.6093	-1.1422	6.43	0.46	-0.750			
0.3902	24971.51	3.6060	3.6059	-1.1731	6.43	0.46	-0.750			
0.3938	25200.53	3.6030	3.6029	-1.1827	6.44	0.47	-0.750			
0.3973	25427.10	3.6000	3.5999	-1.1960	6.44	0.47	-0.750			
0.4009	25655.72	3.5970	3.5972	-1.2038	6.44	0.47	-0.750			
0.4046	25894.15	3.5940	3.5938	-1.2191	6.44	0.47	-0.750			
0.4082	26126.26	3.5910	3.5913	-1.2240	6.45	0.48	-0.750	0.463	1.078	
0.4118	26358.16	3.5880	3.5882	-1.2266	6.45	0.48	-0.750			
0.4156	26600.08	3.5850	3.5849	-1.2467	6.46	0.49	-0.750			
0.4194	26839.64	3.5820	3.5819	-1.2545	6.46	0.49	-0.750			
0.4231	27076.74	3.5790	3.5790	-1.2704	6.47	0.50	-0.750			
0.4269	27322.44	3.5760	3.5759	-1.2868	6.47	0.50	-0.750			
0.4309	27575.08	3.5730	3.5730	-1.3050	6.47	0.50	-0.750			
0.4348	27824.68	3.5700	3.5700	-1.3282	6.48	0.51	-0.750			
0.4388	28084.64	3.5670	3.5670	-1.3390	6.48	0.51	-0.750			
0.4429	28344.48	3.5640	3.5639	-1.3496	6.48	0.51	-0.750			
0.4469	28601.98	3.5610	3.5609	-1.3623	6.49	0.52	-0.750			
0.4510	28863.69	3.5580	3.5581	-1.3705	6.49	0.52	-0.750			
0.4552	29129.84	3.5550	3.5549	-1.3834	6.51	0.54	-0.750			
0.4593	29395.93	3.5520	3.5519	-1.3951	6.52	0.55	-0.750			
0.4635	29662.89	3.5490	3.5491	-1.3950	6.53	0.56	-0.750			
0.4678	29936.04	3.5460	3.5460	-1.4175	6.54	0.57	-0.750			
0.4720	30206.29	3.5430	3.5430	-1.4441	6.55	0.58	-0.750			
0.4763	30485.20	3.5400	3.5399	-1.4532	6.55	0.58	-0.750			
0.4808	30771.11	3.5370	3.5369	-1.4744	6.56	0.59	-0.750			
0.4853	31057.86	3.5340	3.5341	-1.4943	6.57	0.60	-0.750			
0.4898	31345.80	3.5310	3.5308	-1.5102	6.57	0.60	-0.750			
0.4944	31640.92	3.5280	3.5278	-1.5158	6.58	0.61	-0.750			
0.4989	31930.82	3.5250	3.5249	-1.5154	6.59	0.62	-0.750			
0.5035	32221.08	3.5220	3.5221	-1.5266	6.60	0.63	-0.750			
0.5081	32516.24	3.5190	3.5188	-1.5817	6.60	0.63	-0.750			
0.5128	32821.41	3.5160	3.5161	-1.5922	6.61	0.64	-0.750			
0.5176	33127.79	3.5130	3.5130	-1.5960	6.63	0.66	-0.750			
0.5225	33438.60	3.5100	3.5102	-1.6069	6.64	0.67	-0.750			
0.5275	33759.90	3.5070	3.5070	-1.6163	6.65	0.68	-0.750			
0.5324	34074.23	3.5040	3.5038	-1.6144	6.66	0.69	-0.750			
0.5371	34376.12	3.5010	3.5012	-1.5860	6.67	0.70	-0.750			
0.5418	34672.72	3.4980	3.4980	-1.5655	6.68	0.71	-0.750			
0.5465	34975.21	3.4950	3.4949	-1.5759	6.70	0.73	-0.750			
0.5512	35277.99	3.4920	3.4920	-1.5673	6.71	0.74	-0.750			
0.5559	35575.93	3.4890	3.4888	-1.5655	6.73	0.76	-0.750			
0.5606	35878.94	3.4860	3.4860	-1.5716	6.74	0.77	-0.750			
0.5654	36184.19	3.4830	3.4830	-1.5616	6.75	0.78	-0.750			
0.5701	36486.23	3.4800	3.4801	-1.5646	6.76	0.79	-0.750			
0.5747	36783.80	3.4770	3.4772	-1.5452	6.77	0.80	-0.750			
0.5793	37078.16	3.4740	3.4740	-1.5312	6.79	0.82	-0.750			
0.5839	37371.25	3.4710	3.4709	-1.5316	6.81	0.84	-0.750			
0.5885	37662.16	3.4680	3.4680	-1.5212	6.83	0.86	-0.750			
0.5931	37958.16	3.4650	3.4649	-1.5213	6.85	0.88	-0.750			
0.5977	38251.10	3.4620	3.4619	-1.5148	6.86	0.89	-0.750			
0.6022	38540.95	3.4590	3.4590	-1.4990	6.88	0.91	-0.750			
0.6067	38831.47	3.4560	3.4559	-1.4833	6.89	0.92	-0.750			
0.6112	39114.08	3.4530	3.4529	-1.4666	6.90	0.93	-0.750			
0.6155	39391.74	3.4500	3.4499	-1.4434	6.92	0.95	-0.750			
0.6198	39667.91	3.4470	3.4470	-1.4328	6.94	0.97	-0.750			
0.6241	39941.05	3.4440	3.4440	-1.4116	6.96	0.99	-0.750			
0.6283	40208.58	3.4410	3.4409	-1.3886	6.97	1.00	-0.750			
0.6325	40477.81	3.4380	3.4381	-1.3731	6.99	1.02	-0.750			
0.6365	40739.08	3.4350	3.4350	-1.3519	7.01	1.04	-0.750			
0.6405	40994.91	3.4320	3.4320	-1.3229	7.03	1.06	-0.750			
0.6445	41247.89	3.4290	3.4290	-1.3020	7.04	1.07	-0.750			
0.6483	41494.28	3.4260	3.4260	-1.2782	7.06	1.09	-0.750			
0.6522	41739.41	3.4230	3.4229	-1.2578	7.08	1.11	-0.750			
0.6559	41979.53	3.4200	3.4200	-1.2299	7.10	1.13	-0.750			
0.6596	42213.56	3.4170	3.4169	-1.2003	7.12	1.15	-0.750			
0.6631	42439.55	3.4140	3.4142	-1.1755	7.13	1.16	-0.750			
0.6666	42665.30	3.4110	3.4110	-1.1429	7.15	1.18	-0.750			
0.6700	42881.18	3.4080	3.4079	-1.1118	7.17	1.20	-0.750			
0.6733	43090.86	3.4050	3.4049	-1.0900	7.18	1.21	-0.750			
0.6765	43296.24	3.4020	3.4020	-1.0646	7.20	1.23	-0.750			
0.6797	43498.97	3.3990	3.3989	-1.0382	7.21	1.24	-0.750			
0.6827	43695.75	3.3960	3.3961	-1.0141	7.23	1.26	-0.750			
0.6857	43887.08	3.3930	3.3930	-0.9838	7.24	1.27	-0.750			
0.6887	44076.95	3.3900	3.3900	-0.9627	7.26	1.29	-0.750			
0.6915	44257.08	3.3870	3.3870	-0.9393	7.27	1.30	-0.750			
0.6943	44434.29	3.3840	3.3840	-0.9136	7.28	1.31	-0.750			
0.6970	44608.76	3.3810	3.3810	-0.8915	7.30	1.33	-0.750			
0.6997	44778.75	3.3780	3.3782	-0.8652	7.31	1.34	-0.750			
0.7022	44941.65	3.3750	3.3750	-0.8433	7.33	1.36	-0.750			
0.7047	45102.34	3.3720	3.3721	-0.8237	7.34	1.37	-0.750			
0.7071	45256.73	3.3690	3.3689	-0.7991	7.36	1.39	-0.750			
0.7095	45408.74	3.3660	3.3659	-0.7789	7.37	1.40	-0.750			
0.7118	45556.55	3.3630	3.3632	-0.7588	7.39	1.42	-0.750			
0.7140	45698.56	3.3600	3.3599	-0.7453	7.40	1.43	-0.750			
0.7163	45842.31	3.3570	3.3570	-0.7262	7.42	1.45	-0.750			
0.7184	45978.81	3.3540	3.3538	-0.7053	7.43	1.46	-0.750			
0.7205	46112.04	3.3510	3.3509	-0.6858	7.44	1.47	-0.750	0.463	1.114	
0.7226	46243.64	3.3480	3.3479	-0.6684	7.46	1.49	-0.750			
0.7245	46369.69	3.3450	3.3449	-0.6496	7.47	1.50	-0.750			
0.7264	46491.28	3.3420	3.3420	-0.6277	7.48	1.51	-0.750			
0.7282	46607.82	3.3390	3.3390	-0.6088	7.49	1.52	-0.750			
0.7301	46726.18	3.3360	3.3360	-0.6020	7.51	1.54	-0.750			
0.7319	46839.58	3.3330	3.3330	-0.5869	7.52	1.55	-0.750			
0.7336	46951.89	3.3300	3.3299	-0.5727	7.53	1.56	-0.750			
0.7353	47060.44	3.3270	3.3270	-0.5576	7.55	1.58	-0.750			
0.7370	47165.72	3.3240	3.3242	-0.5421	7.56	1.59	-0.750			
0.7386	47268.36	3.3210	3.3209	-0.5299	7.57	1.60	-0.750			
0.7401	47368.23	3.3180	3.3179	-0.5133	7.58	1.61	-0.750			
0.7416	47464.87	3.3150	3.3151	-0.5001	7.59	1.62	-0.750			
0.7431	47558.81	3.3120	3.3120	-0.4893	7.60	1.63	-0.750			
0.7446	47652.22	3.3090	3.3091	-0.4812	7.61	1.64	-0.750			
0.7460	47742.59	3.3060	3.3061	-0.4747	7.62	1.65	-0.750			
0.7474	47833.08	3.3030	3.3029	-0.4625	7.63	1.66	-0.750			
0.7488	47921.72	3.3000	3.2995	-0.4504	7.64	1.67	-0.750			
0.7501	48007.32	3.2970	3.2971	-0.4432	7.65	1.68	-0.750			
0.7514	48090.68	3.2940	3.2943	-0.4353	7.66	1.69	-0.750			
0.7527	48173.18	3.2910	3.2909	-0.4287	7.68	1.71	-0.750			
0.7540	48254.79	3.2880	3.2879	-0.4240	7.69	1.72	-0.750			
0.7552	48333.40	3.2850	3.2851	-0.4129	7.70	1.73	-0.750			
0.7565	48415.77	3.2820	3.2819	-0.4123	7.71	1.74	-0.750			
0.7577	48494.06	3.2790	3.2790	-0.4018	7.72	1.75	-0.750			
0.7589	48569.99	3.2760	3.2761	-0.3912	7.73	1.76	-0.750			
0.7601	48644.55	3.2730	3.2730	-0.3808	7.74	1.77	-0.750			
0.7612	48716.76	3.2700	3.2701	-0.3689	7.75	1.78	-0.750			
0.7623	48786.42	3.2670	3.2672	-0.3592	7.75	1.78	-0.750			
0.7633	48854.25	3.2640	3.2640	-0.3531	7.76	1.79	-0.750			
0.7644	48920.95	3.2610	3.2609	-0.3427	7.77	1.80	-0.750			
0.7654	48987.44	3.2580	3.2578	-0.3255	7.78	1.81	-0.750			
0.7664	49049.45	3.2550	3.2551	-0.3147	7.79	1.82	-0.750			
0.7673	49107.25	3.2520	3.2524	-0.3060	7.80	1.83	-0.750			
0.7682	49164.15	3.2490	3.2489	-0.2994	7.81	1.84	-0.750			
0.7690	49217.51	3.2460	3.2457	-0.2954	7.82	1.85	-0.750			
0.7699	49273.67	3.2430	3.2431	-0.2946	7.82	1.85	-0.750			
0.7708	49330.69	3.2400	3.2401	-0.2943	7.83	1.86	-0.750			
0.7717	49388.34	3.2370	3.2370	-0.2959	7.84	1.87	-0.750			
0.7726	49446.60	3.2340	3.2344	-0.2927	7.85	1.88	-0.750			
0.7735	49502.55	3.2310	3.2310	-0.2873	7.85	1.88	-0.750			
0.7743	49556.72	3.2280	3.2279	-0.2838	7.86	1.89	-0.750			
0.7752	49611.03	3.2250	3.2252	-0.2801	7.86	1.89	-0.750			
0.7760	49664.76	3.2220	3.2218	-0.2778	7.87	1.90	-0.750			
0.7768	49717.75	3.2190	3.2189	-0.2724	7.88	1.91	-0.750			
0.7776	49769.06	3.2160	3.2162	-0.2664	7.89	1.92	-0.750			
0.7784	49820.37	3.2130	3.2131	-0.2636	7.90	1.93	-0.750			
0.7792	49870.50	3.2100	3.2099	-0.2595	7.90	1.93	-0.750			
0.7800	49919.23	3.2070	3.2069	-0.2545	7.91	1.94	-0.750			
0.7807	49967.76	3.2040	3.2040	-0.2495	7.92	1.95	-0.750			
0.7815	50015.31	3.2010	3.2010	-0.2470	7.93	1.96	-0.750			
0.7822	50062.22	3.1980	3.1981	-0.2448	7.93	1.96	-0.750			
0.7830	50109.44	3.1950	3.1950	-0.2407	7.94	1.97	-0.750			
0.7837	50155.43	3.1920	3.1919	-0.2364	7.95	1.98	-0.750			
0.7844	50200.45	3.1890	3.1890	-0.2321	7.96	1.99	-0.750			
0.7851	50244.60	3.1860	3.1861	-0.2285	7.96	1.99	-0.750			
0.7858	50288.10	3.1830	3.1830	-0.2248	7.97	2.00	-0.750			
0.7864	50331.14	3.1800	3.1799	-0.2209	7.97	2.00	-0.750			
0.7871	50372.50	3.1770	3.1770	-0.2159	7.98	2.01	-0.750			
0.7877	50413.49	3.1740	3.1741	-0.2114	7.98	2.01	-0.750			
0.7883	50454.26	3.1710	3.1711	-0.2091	7.99	2.02	-0.750			
0.7889	50492.18	3.1680	3.1681	-0.2080	8.00	2.03	-0.750			
0.7896	50532.18	3.1650	3.1650	-0.2087	8.01	2.04	-0.750			
0.7902	50572.24	3.1620	3.1619	-0.2035	8.01	2.04	-0.750			
0.7908	50611.86	3.1590	3.1588	-0.2001	8.02	2.05	-0.750			
0.7914	50650.26	3.1560	3.1562	-0.1989	8.03	2.06	-0.750			
0.7920	50688.08	3.1530	3.1536	-0.1951	8.04	2.07	-0.750			
0.7926	50725.48	3.1500	3.1499	-0.1933	8.04	2.07	-0.750			
0.7931	50761.30	3.1470	3.1468	-0.1912	8.05	2.08	-0.750			
0.7937	50796.41	3.1440	3.1439	-0.1863	8.06	2.09	-0.750			
0.7943	50833.06	3.1410	3.1413	-0.1867	8.06	2.09	-0.750			
0.7948	50870.36	3.1380	3.1380	-0.1886	8.07	2.10	-0.750			
0.7954	50906.71	3.1350	3.1350	-0.1871	8.08	2.11	-0.750			
0.7960	50942.29	3.1320	3.1322	-0.1842	8.08	2.11	-0.750			
0.7965	50977.42	3.1290	3.1289	-0.1817	8.09	2.12	-0.750			
0.7971	51012.20	3.1260	3.1260	-0.1794	8.10	2.13	-0.750			
0.7976	51046.00	3.1230	3.1230	-0.1769	8.10	2.13	-0.750			
0.7981	51079.95	3.1200	3.1200	-0.1752	8.11	2.14	-0.750			
0.7986	51113.36	3.1170	3.1170	-0.1732	8.12	2.15	-0.750			
0.7992	51146.39	3.1140	3.1140	-0.1711	8.12	2.15	-0.750			
0.7997	51179.12	3.1110	3.1110	-0.1682	8.13	2.16	-0.750			
0.8002	51211.37	3.1080	3.1080	-0.1660	8.14	2.17	-0.750			
0.8007	51242.79	3.1050	3.1050	-0.1636	8.14	2.17	-0.750			
0.8012	51273.96	3.1020	3.1021	-0.1611	8.15	2.18	-0.750			
0.8016	51304.29	3.0990	3.0990	-0.1594	8.16	2.19	-0.750			
0.8021	51334.70	3.0960	3.0959	-0.1574	8.17	2.20	-0.750			
0.8026	51364.63	3.0930	3.0930	-0.1558	8.17	2.20	-0.750			
0.8030	51394.47	3.0900	3.0901	-0.1546	8.18	2.21	-0.750			
0.8035	51424.28	3.0870	3.0871	-0.1536	8.19	2.22	-0.750			
0.8040	51453.45	3.0840	3.0839	-0.1526	8.20	2.23	-0.750			
0.8044	51482.77	3.0810	3.0810	-0.1508	8.20	2.23	-0.750			
0.8049	51511.60	3.0780	3.0780	-0.1495	8.21	2.24	-0.750			
0.8053	51540.15	3.0750	3.0750	-0.1480	8.22	2.25	-0.750			
0.8058	51568.76	3.0720	3.0720	-0.1467	8.23	2.26	-0.750			
0.8062	51596.53	3.0690	3.0691	-0.1452	8.23	2.26	-0.750			
0.8066	51624.18	3.0660	3.0660	-0.1434	8.24	2.27	-0.750			
0.8071	51651.43	3.0630	3.0630	-0.1420	8.24	2.27	-0.750			
0.8075	51678.43	3.0600	3.0600	-0.1401	8.25	2.28	-0.750			
0.8079	51705.48	3.0570	3.0569	-0.1395	8.25	2.28	-0.750			
0.8083	51732.18	3.0540	3.0541	-0.1375	8.26	2.29	-0.750			
0.8087	51758.33	3.0510	3.0510	-0.1360	8.26	2.29	-0.750			
0.8091	51784.13	3.0480	3.0479	-0.1353	8.27	2.30	-0.750			
0.8095	51809.62	3.0450	3.0450	-0.1336	8.27	2.30	-0.750			
0.8099	51835.41	3.0420	3.0420	-0.1326	8.28	2.31	-0.750			
0.8103	51860.88	3.0390	3.0390	-0.1314	8.28	2.31	-0.750			
0.8107	51886.16	3.0360	3.0361	-0.1306	8.29	2.32	-0.750			
0.8111	51910.99	3.0330	3.0331	-0.1299	8.29	2.32	-0.750			
0.8115	51935.99	3.0300	3.0300	-0.1290	8.30	2.33	-0.750			
0.8119	51960.55	3.0270	3.0269	-0.1276	8.30	2.33	-0.750			
0.8123	51984.69	3.0240	3.0240	-0.1262	8.31	2.34	-0.750			
0.8126	52008.83	3.0210	3.0212	-0.1260	8.31	2.34	-0.750			
0.8130	52033.11	3.0180	3.0180	-0.1258	8.32	2.35	-0.750			
0.8134	52057.33	3.0150	3.0150	-0.1245	8.32	2.35	-0.750			
0.8138	52081.30	3.0120	3.0119	-0.1235	8.33	2.36	-0.750			
0.8141	52104.77	3.0090	3.0091	-0.1223	8.33	2.36	-0.750			
0.8145	52128.16	3.0060	3.0061	-0.1214	8.34	2.37	-0.751			
0.8149	52151.33	3.0030	3.0030	-0.1149	8.34	2.37	-0.751			
