Ah_balance (normalized)	Ah_balance (mAh)	Voltage - fit (V)	Voltage -  interpolate (V)	dQ/dV (1/V)	Temperature (°C)	Temperature - diff (°C)	Current (C)	R_DC 0ms (mOhm)	R_DC 50ms (mOhm)	R_DC 50 ms PEC (mOhm)
0.0926	5924.37	4.0030	4.0026	-0.0723	6.01	0.01	-0.750			
0.0928	5941.18	4.0000	3.9999	-0.1028	6.00	0.00	-0.750			
0.0932	5964.04	3.9970	3.9968	-0.1328	6.00	0.00	-0.750			
0.0936	5993.16	3.9940	3.9941	-0.1586	6.00	0.00	-0.750			
0.0942	6026.24	3.9910	3.9910	-0.1845	6.00	0.00	-0.750			
0.0948	6064.17	3.9880	3.9882	-0.2115	6.00	0.00	-0.750			
0.0954	6108.49	3.9850	3.9850	-0.2339	6.00	-0.00	-0.750			
0.0962	6155.40	3.9820	3.9820	-0.2572	6.00	-0.00	-0.750			
0.0970	6206.93	3.9790	3.9791	-0.2816	5.99	-0.01	-0.750			
0.0979	6263.07	3.9760	3.9759	-0.3057	5.99	-0.01	-0.750			
0.0988	6324.48	3.9730	3.9730	-0.3293	5.99	-0.01	-0.750			
0.0998	6389.61	3.9700	3.9700	-0.3528	5.99	-0.01	-0.750			
0.1009	6459.33	3.9670	3.9671	-0.3772	5.99	-0.01	-0.750			
0.1021	6534.81	3.9640	3.9639	-0.4018	5.98	-0.02	-0.750			
0.1033	6614.09	3.9610	3.9610	-0.4275	5.98	-0.02	-0.750			
0.1047	6699.37	3.9580	3.9580	-0.4480	5.98	-0.02	-0.750			
0.1061	6788.19	3.9550	3.9550	-0.4704	5.97	-0.03	-0.750			
0.1075	6880.56	3.9520	3.9522	-0.4912	5.97	-0.03	-0.750			
0.1090	6976.52	3.9490	3.9489	-0.5103	5.97	-0.03	-0.750			
0.1106	7076.01	3.9460	3.9460	-0.5303	5.96	-0.04	-0.750			
0.1122	7178.59	3.9430	3.9429	-0.5512	5.96	-0.04	-0.750			
0.1139	7288.10	3.9400	3.9401	-0.5732	5.96	-0.04	-0.750			
0.1156	7401.21	3.9370	3.9369	-0.5875	5.96	-0.04	-0.750			
0.1174	7516.16	3.9340	3.9340	-0.6018	5.95	-0.05	-0.750			
0.1193	7633.33	3.9310	3.9311	-0.6143	5.95	-0.05	-0.750			
0.1211	7749.56	3.9280	3.9280	-0.6327	5.95	-0.05	-0.750			
0.1230	7874.04	3.9250	3.9249	-0.6413	5.95	-0.05	-0.750			
0.1250	7997.96	3.9220	3.9220	-0.6486	5.95	-0.05	-0.750			
0.1270	8126.35	3.9190	3.9189	-0.6529	5.95	-0.05	-0.750			
0.1290	8254.34	3.9160	3.9165	-0.6623	5.95	-0.05	-0.750			
0.1309	8380.15	3.9130	3.9128	-0.6656	5.95	-0.05	-0.750			
0.1329	8506.00	3.9100	3.9101	-0.6695	5.95	-0.05	-0.750			
0.1349	8633.53	3.9070	3.9068	-0.6791	5.95	-0.05	-0.750			
0.1370	8766.74	3.9040	3.9040	-0.6917	5.96	-0.04	-0.750			
0.1391	8899.51	3.9010	3.9009	-0.6954	5.96	-0.04	-0.750			
0.1412	9035.74	3.8980	3.8981	-0.7059	5.96	-0.04	-0.750			
0.1433	9172.64	3.8950	3.8949	-0.7041	5.97	-0.03	-0.750			
0.1454	9307.44	3.8920	3.8920	-0.7086	5.97	-0.03	-0.750			
0.1476	9444.01	3.8890	3.8891	-0.7123	5.97	-0.03	-0.750			
0.1497	9579.03	3.8860	3.8860	-0.7181	5.97	-0.03	-0.750			
0.1519	9719.46	3.8830	3.8830	-0.7189	5.97	-0.03	-0.750			
0.1540	9857.42	3.8800	3.8800	-0.7222	5.97	-0.03	-0.750			
0.1562	9996.05	3.8770	3.8769	-0.7216	5.97	-0.03	-0.750			
0.1584	10136.03	3.8740	3.8740	-0.7270	5.97	-0.03	-0.750			
0.1605	10274.89	3.8710	3.8709	-0.7236	5.98	-0.02	-0.750			
0.1627	10413.09	3.8680	3.8679	-0.7288	5.99	-0.01	-0.750			
0.1649	10551.96	3.8650	3.8651	-0.7323	5.99	-0.01	-0.750			
0.1671	10695.46	3.8620	3.8620	-0.7385	6.00	0.00	-0.750			
0.1693	10837.65	3.8590	3.8590	-0.7377	6.01	0.01	-0.750			
0.1716	10980.05	3.8560	3.8560	-0.7410	6.01	0.01	-0.750			
0.1738	11122.30	3.8530	3.8529	-0.7368	6.02	0.02	-0.750			
0.1760	11264.59	3.8500	3.8501	-0.7357	6.02	0.02	-0.750			
0.1782	11405.35	3.8470	3.8470	-0.7264	6.03	0.03	-0.750			
0.1804	11544.91	3.8440	3.8441	-0.7257	6.04	0.04	-0.750			
0.1826	11683.59	3.8410	3.8411	-0.7281	6.04	0.04	-0.750			
0.1847	11821.96	3.8380	3.8379	-0.7261	6.05	0.05	-0.750			
0.1869	11959.03	3.8350	3.8350	-0.7353	6.05	0.05	-0.750			
0.1891	12102.10	3.8320	3.8320	-0.7386	6.06	0.06	-0.750			
0.1913	12246.24	3.8290	3.8289	-0.7426	6.06	0.06	-0.750			
0.1936	12388.87	3.8260	3.8259	-0.7454	6.07	0.07	-0.750			
0.1958	12531.50	3.8230	3.8229	-0.7443	6.07	0.07	-0.750			
0.1980	12674.86	3.8200	3.8200	-0.7422	6.08	0.08	-0.750			
0.2003	12818.05	3.8170	3.8169	-0.7430	6.09	0.09	-0.750			
0.2025	12959.63	3.8140	3.8141	-0.7366	6.09	0.09	-0.750			
0.2047	13102.89	3.8110	3.8109	-0.7432	6.10	0.10	-0.750			
0.2070	13244.84	3.8080	3.8082	-0.7421	6.11	0.11	-0.750			
0.2092	13385.99	3.8050	3.8048	-0.7429	6.11	0.11	-0.750			
0.2114	13527.50	3.8020	3.8020	-0.7459	6.12	0.12	-0.750			
0.2136	13672.23	3.7990	3.7990	-0.7524	6.12	0.12	-0.750			
0.2159	13816.54	3.7960	3.7960	-0.7556	6.12	0.12	-0.750			
0.2182	13965.05	3.7930	3.7930	-0.7602	6.13	0.13	-0.750			
0.2205	14110.79	3.7900	3.7901	-0.7567	6.13	0.13	-0.750			
0.2227	14255.87	3.7870	3.7870	-0.7600	6.14	0.14	-0.750			
0.2250	14401.77	3.7840	3.7839	-0.7618	6.15	0.15	-0.750			
0.2273	14545.88	3.7810	3.7811	-0.7623	6.15	0.15	-0.750			
0.2296	14694.44	3.7780	3.7780	-0.7719	6.16	0.16	-0.750			
0.2319	14844.31	3.7750	3.7750	-0.7722	6.17	0.17	-0.750			
0.2343	14994.03	3.7720	3.7719	-0.7728	6.18	0.18	-0.750			
0.2366	15140.98	3.7690	3.7691	-0.7731	6.18	0.18	-0.750			
0.2389	15289.40	3.7660	3.7660	-0.7693	6.19	0.19	-0.750			
0.2412	15436.94	3.7630	3.7630	-0.7708	6.20	0.20	-0.750			
0.2435	15584.51	3.7600	3.7600	-0.7718	6.21	0.21	-0.750			
0.2458	15732.28	3.7570	3.7571	-0.7764	6.21	0.21	-0.750			
0.2482	15882.22	3.7540	3.7539	-0.7862	6.22	0.22	-0.750			
0.2505	16032.75	3.7510	3.7511	-0.7916	6.22	0.22	-0.750			
0.2529	16185.67	3.7480	3.7479	-0.7946	6.23	0.23	-0.750			
0.2553	16340.47	3.7450	3.7450	-0.8015	6.24	0.24	-0.750			
0.2577	16495.62	3.7420	3.7420	-0.7999	6.24	0.24	-0.750			
0.2602	16649.68	3.7390	3.7390	-0.7974	6.25	0.25	-0.750			
0.2625	16801.68	3.7360	3.7361	-0.8070	6.25	0.25	-0.750			
0.2650	16957.49	3.7330	3.7329	-0.8070	6.26	0.26	-0.750			
0.2674	17112.36	3.7300	3.7299	-0.8119	6.26	0.26	-0.750			
0.2698	17268.76	3.7270	3.7274	-0.8195	6.27	0.27	-0.750			
0.2723	17427.07	3.7240	3.7239	-0.8256	6.28	0.28	-0.750			
0.2748	17586.79	3.7210	3.7209	-0.8317	6.29	0.29	-0.750			
0.2773	17745.33	3.7180	3.7180	-0.8355	6.29	0.29	-0.750			
0.2798	17906.48	3.7150	3.7150	-0.8455	6.30	0.30	-0.750			
0.2824	18070.54	3.7120	3.7120	-0.8517	6.31	0.31	-0.750			
0.2849	18232.54	3.7090	3.7090	-0.8596	6.31	0.31	-0.750			
0.2875	18399.28	3.7060	3.7060	-0.8633	6.32	0.32	-0.750			
0.2901	18565.81	3.7030	3.7030	-0.8736	6.32	0.32	-0.750			
0.2927	18735.03	3.7000	3.7000	-0.8791	6.33	0.33	-0.750			
0.2954	18903.77	3.6970	3.6971	-0.8848	6.33	0.33	-0.750			
0.2980	19074.31	3.6940	3.6940	-0.8953	6.34	0.34	-0.750			
0.3008	19248.19	3.6910	3.6910	-0.9011	6.34	0.34	-0.750			
0.3035	19421.39	3.6880	3.6880	-0.9050	6.35	0.35	-0.750			
0.3062	19596.77	3.6850	3.6851	-0.9177	6.36	0.36	-0.750			
0.3089	19771.79	3.6820	3.6819	-0.9232	6.36	0.36	-0.750			
0.3117	19951.64	3.6790	3.6789	-0.9384	6.37	0.37	-0.750			
0.3146	20132.08	3.6760	3.6760	-0.9435	6.38	0.38	-0.750			
0.3174	20313.85	3.6730	3.6730	-0.9466	6.38	0.38	-0.750			
0.3203	20498.55	3.6700	3.6702	-0.9593	6.39	0.39	-0.750			
0.3232	20682.42	3.6670	3.6669	-0.9673	6.39	0.39	-0.750			
0.3261	20867.55	3.6640	3.6640	-0.9740	6.39	0.39	-0.750			
0.3290	21054.31	3.6610	3.6610	-0.9801	6.39	0.39	-0.750			
0.3320	21246.45	3.6580	3.6581	-0.9950	6.39	0.39	-0.750			
0.3350	21437.58	3.6550	3.6550	-1.0063	6.40	0.40	-0.750			
0.3380	21632.06	3.6520	3.6519	-1.0158	6.41	0.41	-0.750			
0.3411	21827.50	3.6490	3.6489	-1.0181	6.42	0.42	-0.750			
0.3441	22023.37	3.6460	3.6458	-1.0242	6.43	0.43	-0.750			
0.3472	22221.83	3.6430	3.6430	-1.0363	6.43	0.43	-0.750			
0.3503	22421.37	3.6400	3.6399	-1.0444	6.44	0.44	-0.750			
0.3535	22621.34	3.6370	3.6370	-1.0491	6.44	0.44	-0.750			
0.3566	22824.35	3.6340	3.6340	-1.0665	6.45	0.45	-0.750			
0.3598	23028.47	3.6310	3.6310	-1.0771	6.45	0.45	-0.750			
0.3631	23238.33	3.6280	3.6279	-1.0857	6.46	0.46	-0.750			
0.3664	23447.12	3.6250	3.6249	-1.0944	6.46	0.46	-0.750			
0.3697	23657.64	3.6220	3.6222	-1.1037	6.47	0.47	-0.750			
0.3730	23873.20	3.6190	3.6189	-1.1213	6.47	0.47	-0.750			
0.3764	24090.52	3.6160	3.6158	-1.1296	6.47	0.47	-0.750			
0.3798	24306.60	3.6130	3.6130	-1.1350	6.47	0.47	-0.750			
0.3832	24527.65	3.6100	3.6101	-1.1567	6.47	0.47	-0.750			
0.3867	24749.68	3.6070	3.6070	-1.1659	6.48	0.48	-0.750			
0.3903	24976.88	3.6040	3.6039	-1.1634	6.48	0.48	-0.750			
0.3937	25197.49	3.6010	3.6010	-1.1628	6.49	0.49	-0.750			
0.3972	25423.55	3.5980	3.5980	-1.1886	6.49	0.49	-0.750			
0.4008	25648.65	3.5950	3.5950	-1.1990	6.50	0.50	-0.750			
0.4044	25881.11	3.5920	3.5918	-1.2079	6.51	0.51	-0.750			
0.4080	26113.57	3.5890	3.5892	-1.2256	6.51	0.51	-0.750	0.482	1.075	
0.4118	26354.88	3.5860	3.5860	-1.2460	6.51	0.51	-0.750			
0.4156	26599.60	3.5830	3.5830	-1.2559	6.52	0.52	-0.750			
0.4194	26838.63	3.5800	3.5802	-1.2692	6.52	0.52	-0.750			
0.4231	27081.36	3.5770	3.5769	-1.2785	6.52	0.52	-0.750			
0.4270	27328.30	3.5740	3.5739	-1.2879	6.53	0.53	-0.750			
0.4309	27575.78	3.5710	3.5711	-1.3125	6.53	0.53	-0.750			
0.4348	27828.53	3.5680	3.5680	-1.3150	6.53	0.53	-0.750			
0.4388	28086.13	3.5650	3.5649	-1.3355	6.54	0.54	-0.750			
0.4428	28341.77	3.5620	3.5620	-1.3547	6.55	0.55	-0.750			
0.4469	28602.64	3.5590	3.5588	-1.3475	6.55	0.55	-0.750			
0.4510	28866.86	3.5560	3.5560	-1.3633	6.56	0.56	-0.750			
0.4551	29127.06	3.5530	3.5529	-1.3814	6.56	0.56	-0.750			
0.4592	29385.63	3.5500	3.5499	-1.4036	6.56	0.56	-0.750			
0.4635	29661.13	3.5470	3.5469	-1.4383	6.56	0.56	-0.750			
0.4678	29937.32	3.5440	3.5438	-1.4623	6.57	0.57	-0.750			
0.4722	30223.36	3.5410	3.5407	-1.4829	6.57	0.57	-0.750			
0.4768	30517.41	3.5380	3.5381	-1.5122	6.58	0.58	-0.750			
0.4815	30813.49	3.5350	3.5351	-1.5183	6.59	0.59	-0.750			
0.4860	31106.33	3.5320	3.5318	-1.5094	6.59	0.59	-0.750			
0.4905	31391.12	3.5290	3.5288	-1.5030	6.59	0.59	-0.750			
0.4951	31683.26	3.5260	3.5262	-1.5149	6.59	0.59	-0.750			
0.4996	31973.21	3.5230	3.5232	-1.5103	6.60	0.60	-0.750			
0.5041	32265.39	3.5200	3.5199	-1.5222	6.61	0.61	-0.750			
0.5087	32553.61	3.5170	3.5169	-1.5086	6.61	0.61	-0.750			
0.5133	32848.44	3.5140	3.5142	-1.5342	6.62	0.62	-0.750			
0.5179	33145.60	3.5110	3.5111	-1.5434	6.63	0.63	-0.750			
0.5225	33440.76	3.5080	3.5079	-1.5389	6.63	0.63	-0.750			
0.5271	33735.80	3.5050	3.5050	-1.5503	6.64	0.64	-0.750			
0.5318	34035.02	3.5020	3.5020	-1.5436	6.65	0.65	-0.750			
0.5364	34331.01	3.4990	3.4990	-1.5511	6.66	0.66	-0.750			
0.5411	34628.58	3.4960	3.4959	-1.5586	6.66	0.66	-0.750			
0.5457	34925.18	3.4930	3.4929	-1.5498	6.67	0.67	-0.750			
0.5504	35224.46	3.4900	3.4902	-1.5613	6.68	0.68	-0.750			
0.5551	35527.74	3.4870	3.4870	-1.5587	6.69	0.69	-0.750			
0.5597	35822.50	3.4840	3.4837	-1.5495	6.70	0.70	-0.750			
0.5644	36121.99	3.4810	3.4809	-1.5430	6.71	0.71	-0.750			
0.5690	36415.94	3.4780	3.4782	-1.5256	6.73	0.73	-0.750			
0.5736	36711.22	3.4750	3.4749	-1.5188	6.74	0.74	-0.750			
0.5781	37000.16	3.4720	3.4719	-1.4994	6.74	0.74	-0.750			
0.5826	37287.11	3.4690	3.4691	-1.4946	6.75	0.75	-0.750			
0.5871	37572.65	3.4660	3.4659	-1.4870	6.76	0.76	-0.750			
0.5915	37856.52	3.4630	3.4630	-1.4738	6.77	0.77	-0.750			
0.5959	38140.13	3.4600	3.4601	-1.4646	6.78	0.78	-0.750			
0.6004	38424.60	3.4570	3.4570	-1.4637	6.80	0.80	-0.750			
0.6047	38702.15	3.4540	3.4540	-1.4490	6.82	0.82	-0.750			
0.6091	38979.91	3.4510	3.4510	-1.4276	6.84	0.84	-0.750			
0.6133	39252.74	3.4480	3.4480	-1.4110	6.85	0.85	-0.750			
0.6175	39520.76	3.4450	3.4450	-1.4018	6.86	0.86	-0.750			
0.6217	39789.14	3.4420	3.4420	-1.3813	6.88	0.88	-0.750			
0.6259	40055.16	3.4390	3.4389	-1.3606	6.89	0.89	-0.750			
0.6299	40312.14	3.4360	3.4360	-1.3442	6.90	0.90	-0.750			
0.6339	40568.41	3.4330	3.4331	-1.3194	6.92	0.92	-0.750			
0.6379	40823.12	3.4300	3.4299	-1.2984	6.93	0.93	-0.750			
0.6417	41068.81	3.4270	3.4269	-1.2694	6.94	0.94	-0.750			
0.6455	41308.98	3.4240	3.4242	-1.2408	6.95	0.95	-0.750			
0.6492	41548.17	3.4210	3.4209	-1.2174	6.97	0.97	-0.750			
0.6528	41779.10	3.4180	3.4180	-1.1934	6.99	0.99	-0.750			
0.6563	42003.44	3.4150	3.4149	-1.1635	7.01	1.01	-0.750			
0.6598	42225.56	3.4120	3.4119	-1.1468	7.02	1.02	-0.750			
0.6632	42443.35	3.4090	3.4089	-1.1208	7.04	1.04	-0.750			
0.6665	42655.86	3.4060	3.4060	-1.0930	7.05	1.05	-0.750			
0.6697	42863.23	3.4030	3.4033	-1.0657	7.07	1.07	-0.750			
0.6729	43068.13	3.4000	3.3999	-1.0461	7.09	1.09	-0.750			
0.6760	43265.57	3.3970	3.3970	-1.0126	7.10	1.10	-0.750			
0.6790	43455.95	3.3940	3.3940	-0.9822	7.11	1.11	-0.750			
0.6819	43643.14	3.3910	3.3910	-0.9603	7.13	1.13	-0.750			
0.6847	43823.10	3.3880	3.3880	-0.9357	7.14	1.14	-0.750			
0.6875	44000.10	3.3850	3.3850	-0.9104	7.16	1.16	-0.750			
0.6902	44172.43	3.3820	3.3819	-0.8818	7.17	1.17	-0.750			
0.6928	44339.56	3.3790	3.3790	-0.8565	7.18	1.18	-0.750			
0.6953	44502.40	3.3760	3.3761	-0.8374	7.19	1.19	-0.750			
0.6978	44659.98	3.3730	3.3730	-0.8132	7.21	1.21	-0.750			
0.7002	44812.77	3.3700	3.3699	-0.7905	7.22	1.22	-0.750			
0.7025	44962.04	3.3670	3.3670	-0.7700	7.23	1.23	-0.750			
0.7048	45109.01	3.3640	3.3640	-0.7531	7.25	1.25	-0.750			
0.7071	45252.32	3.3610	3.3610	-0.7326	7.26	1.26	-0.750			
0.7092	45390.78	3.3580	3.3580	-0.7135	7.27	1.27	-0.750			
0.7113	45525.44	3.3550	3.3550	-0.6930	7.28	1.28	-0.750			
0.7134	45657.69	3.3520	3.3519	-0.6649	7.29	1.29	-0.750			
0.7154	45784.72	3.3490	3.3490	-0.6216	7.31	1.31	-0.750			
0.7172	45903.98	3.3460	3.3461	-0.5779	7.32	1.32	-0.750			
0.7189	46011.07	3.3430	3.3434	-0.5186	7.33	1.33	-0.750			
0.7204	46103.80	3.3400	3.3398	-0.4152	7.33	1.33	-0.750			
