Ah_balance (normalized)	Ah_balance (mAh)	Voltage - fit (V)	Voltage -  interpolate (V)	dQ/dV (1/V)	Temperature (°C)	Temperature - diff (°C)	Current (C)	R_DC 0ms (mOhm)	R_DC 50ms (mOhm)	R_DC 50 ms PEC (mOhm)
0.1748	11187.44	4.0830	4.0830	0.7443	7.56	1.59	0.750			
0.1771	11336.08	4.0800	4.0798	0.7802	7.56	1.59	0.750			
0.1794	11480.85	4.0770	4.0771	0.7728	7.55	1.58	0.750			
0.1817	11630.90	4.0740	4.0740	0.7801	7.55	1.58	0.750			
0.1841	11781.91	4.0710	4.0711	0.7842	7.54	1.57	0.750			
0.1865	11933.59	4.0680	4.0680	0.7869	7.54	1.57	0.750			
0.1888	12084.84	4.0650	4.0651	0.7834	7.53	1.56	0.750			
0.1912	12235.97	4.0620	4.0620	0.7870	7.53	1.56	0.750			
0.1936	12387.66	4.0590	4.0590	0.7918	7.52	1.55	0.750			
0.1959	12536.20	4.0560	4.0560	0.7902	7.51	1.54	0.750			
0.1983	12688.36	4.0530	4.0530	0.7968	7.51	1.54	0.750			
0.2007	12842.86	4.0500	4.0499	0.7966	7.50	1.53	0.750			
0.2031	12997.08	4.0470	4.0470	0.8004	7.49	1.52	0.750			
0.2055	13151.00	4.0440	4.0441	0.8046	7.48	1.51	0.750			
0.2079	13305.10	4.0410	4.0410	0.8047	7.48	1.51	0.750			
0.2103	13459.32	4.0380	4.0379	0.8071	7.47	1.50	0.750			
0.2127	13614.61	4.0350	4.0351	0.8123	7.46	1.49	0.750			
0.2152	13771.32	4.0320	4.0320	0.8140	7.45	1.48	0.750			
0.2176	13928.19	4.0290	4.0291	0.8190	7.45	1.48	0.750			
0.2201	14085.02	4.0260	4.0260	0.8206	7.44	1.47	0.750			
0.2225	14242.05	4.0230	4.0228	0.8279	7.43	1.46	0.750			
0.2250	14402.27	4.0200	4.0200	0.8307	7.42	1.45	0.750			
0.2275	14562.17	4.0170	4.0170	0.8303	7.42	1.45	0.750			
0.2300	14722.06	4.0140	4.0141	0.8361	7.41	1.44	0.750			
0.2325	14881.94	4.0110	4.0111	0.8395	7.41	1.44	0.750			
0.2351	15044.05	4.0080	4.0077	0.8456	7.40	1.43	0.750			
0.2376	15206.80	4.0050	4.0050	0.8478	7.39	1.42	0.750			
0.2402	15369.62	4.0020	4.0021	0.8541	7.39	1.42	0.750			
0.2428	15537.02	3.9990	3.9990	0.8613	7.38	1.41	0.750			
0.2453	15701.44	3.9960	3.9960	0.8588	7.38	1.41	0.750			
0.2479	15866.71	3.9930	3.9930	0.8594	7.37	1.40	0.750			
0.2505	16033.39	3.9900	3.9900	0.8565	7.36	1.39	0.750			
0.2531	16197.02	3.9870	3.9870	0.8654	7.35	1.38	0.750			
0.2557	16362.44	3.9840	3.9840	0.8709	7.34	1.37	0.750			
0.2583	16528.81	3.9810	3.9810	0.8779	7.34	1.37	0.750			
0.2609	16698.81	3.9780	3.9781	0.8871	7.33	1.36	0.750			
0.2636	16873.10	3.9750	3.9750	0.8788	7.32	1.35	0.750			
0.2663	17043.24	3.9720	3.9720	0.8881	7.30	1.33	0.750			
0.2689	17212.46	3.9690	3.9692	0.8909	7.29	1.32	0.750			
0.2716	17381.07	3.9660	3.9660	0.8887	7.28	1.31	0.750			
0.2743	17552.50	3.9630	3.9631	0.8950	7.28	1.31	0.750			
0.2769	17723.23	3.9600	3.9600	0.8933	7.27	1.30	0.750			
0.2796	17895.79	3.9570	3.9571	0.9017	7.26	1.29	0.750			
0.2824	18073.14	3.9540	3.9540	0.9189	7.26	1.29	0.750			
0.2851	18245.41	3.9510	3.9509	0.9197	7.25	1.28	0.750			
0.2879	18424.02	3.9480	3.9479	0.9258	7.24	1.27	0.750			
0.2907	18602.90	3.9450	3.9450	0.9329	7.23	1.26	0.750			
0.2935	18784.06	3.9420	3.9421	0.9445	7.22	1.25	0.750			
0.2963	18966.28	3.9390	3.9390	0.9491	7.20	1.23	0.750			
0.2992	19150.31	3.9360	3.9360	0.9468	7.20	1.23	0.750			
0.3020	19330.06	3.9330	3.9330	0.9494	7.19	1.22	0.750			
0.3049	19512.25	3.9300	3.9301	0.9591	7.18	1.21	0.750			
0.3078	19697.31	3.9270	3.9271	0.9709	7.18	1.21	0.750			
0.3107	19884.48	3.9240	3.9240	0.9750	7.17	1.20	0.750			
0.3136	20071.67	3.9210	3.9210	0.9831	7.16	1.19	0.750			
0.3166	20261.88	3.9180	3.9181	0.9956	7.14	1.17	0.750			
0.3196	20455.29	3.9150	3.9150	1.0046	7.13	1.16	0.750			
0.3226	20647.56	3.9120	3.9119	1.0115	7.12	1.15	0.750			
0.3257	20843.25	3.9090	3.9090	1.0122	7.11	1.14	0.750			
0.3287	21036.71	3.9060	3.9060	1.0216	7.10	1.13	0.750			
0.3318	21234.10	3.9030	3.9031	1.0334	7.08	1.11	0.750			
0.3349	21432.22	3.9000	3.8996	1.0438	7.07	1.10	0.750			
0.3380	21633.82	3.8970	3.8971	1.0492	7.06	1.09	0.750			
0.3412	21836.12	3.8940	3.8940	1.0644	7.04	1.07	0.750			
0.3444	22042.01	3.8910	3.8911	1.0774	7.02	1.05	0.750			
0.3477	22250.34	3.8880	3.8878	1.0805	7.01	1.04	0.750			
0.3509	22459.04	3.8850	3.8851	1.0942	7.00	1.03	0.750			
0.3542	22670.11	3.8820	3.8821	1.1127	6.99	1.02	0.750			
0.3576	22885.02	3.8790	3.8789	1.1260	6.98	1.01	0.750			
0.3610	23103.38	3.8760	3.8760	1.1339	6.97	1.00	0.750			
0.3644	23321.66	3.8730	3.8730	1.1483	6.96	0.99	0.750			
0.3679	23544.31	3.8700	3.8700	1.1655	6.94	0.97	0.750			
0.3714	23769.49	3.8670	3.8669	1.1859	6.93	0.96	0.750			
0.3750	23996.92	3.8640	3.8640	1.2039	6.92	0.95	0.750			
0.3786	24229.54	3.8610	3.8610	1.2214	6.91	0.94	0.750			
0.3823	24468.14	3.8580	3.8581	1.2423	6.90	0.93	0.750			
0.3861	24710.32	3.8550	3.8550	1.2570	6.88	0.91	0.750			
0.3899	24952.01	3.8520	3.8521	1.2649	6.87	0.90	0.750			
0.3936	25191.28	3.8490	3.8490	1.2952	6.85	0.88	0.750			
0.3975	25437.85	3.8460	3.8458	1.3091	6.83	0.86	0.750			
0.4014	25686.91	3.8430	3.8431	1.3408	6.82	0.85	0.750			
0.4054	25947.65	3.8400	3.8400	1.3829	6.80	0.83	0.750	0.399	0.895	
0.4097	26222.22	3.8370	3.8369	1.4001	6.79	0.82	0.750			
0.4139	26492.30	3.8340	3.8339	1.4304	6.77	0.80	0.750			
0.4183	26772.86	3.8310	3.8313	1.4684	6.75	0.78	0.750			
0.4228	27058.64	3.8280	3.8277	1.4940	6.73	0.76	0.750			
0.4272	27340.94	3.8250	3.8249	1.4831	6.71	0.74	0.750			
0.4316	27625.14	3.8220	3.8223	1.5119	6.70	0.73	0.750			
0.4363	27921.84	3.8190	3.8188	1.5492	6.68	0.71	0.750			
0.4409	28220.65	3.8160	3.8158	1.5728	6.66	0.69	0.750			
0.4457	28522.46	3.8130	3.8132	1.5885	6.64	0.67	0.750			
0.4505	28834.26	3.8100	3.8101	1.6420	6.62	0.65	0.750			
0.4555	29151.24	3.8070	3.8070	1.6574	6.60	0.63	0.750			
0.4605	29470.60	3.8040	3.8040	1.7063	6.58	0.61	0.750			
0.4657	29802.45	3.8010	3.8011	1.7274	6.56	0.59	0.750			
0.4710	30143.71	3.7980	3.7980	1.7605	6.54	0.57	0.750			
0.4762	30478.71	3.7950	3.7953	1.7813	6.51	0.54	0.750			
0.4816	30824.68	3.7920	3.7921	1.7927	6.49	0.52	0.750			
0.4872	31179.59	3.7890	3.7888	1.8013	6.46	0.49	0.750			
0.4925	31522.34	3.7860	3.7862	1.8104	6.45	0.48	0.750			
0.4981	31876.48	3.7830	3.7831	1.8352	6.43	0.46	0.750			
0.5036	32228.38	3.7800	3.7802	1.8721	6.41	0.44	0.750			
0.5092	32591.97	3.7770	3.7771	1.8941	6.39	0.42	0.750			
0.5150	32958.93	3.7740	3.7739	1.9266	6.37	0.40	0.750			
0.5207	33327.82	3.7710	3.7711	1.9598	6.34	0.37	0.750			
0.5266	33705.22	3.7680	3.7679	1.9516	6.32	0.35	0.750			
0.5325	34083.01	3.7650	3.7650	1.9654	6.31	0.34	0.750			
0.5385	34462.91	3.7620	3.7622	1.9848	6.29	0.32	0.750			
0.5444	34839.38	3.7590	3.7589	2.0243	6.27	0.30	0.750			
0.5505	35231.19	3.7560	3.7560	2.0634	6.25	0.28	0.750			
0.5568	35638.10	3.7530	3.7530	2.1175	6.22	0.25	0.750			
0.5632	36041.64	3.7500	3.7499	2.1514	6.20	0.23	0.750			
0.5697	36460.10	3.7470	3.7470	2.2109	6.18	0.21	0.750			
0.5764	36888.36	3.7440	3.7439	2.2627	6.16	0.19	0.750			
0.5834	37335.64	3.7410	3.7410	2.3193	6.14	0.17	0.750			
0.5904	37786.25	3.7380	3.7379	2.3676	6.12	0.15	0.750			
0.5975	38240.04	3.7350	3.7348	2.3985	6.10	0.13	0.750			
0.6047	38701.26	3.7320	3.7322	2.4326	6.08	0.11	0.750			
0.6123	39188.40	3.7290	3.7290	2.4727	6.06	0.09	0.750			
0.6196	39651.22	3.7260	3.7260	2.4451	6.05	0.08	0.750			
0.6271	40132.94	3.7230	3.7228	2.3574	6.03	0.06	0.750			
0.6341	40580.83	3.7200	3.7199	2.2605	6.01	0.04	0.750			
0.6405	40994.44	3.7170	3.7168	2.0888	6.00	0.03	0.750			
0.6465	41376.35	3.7140	3.7141	1.8720	5.99	0.02	0.750			
0.6520	41729.60	3.7110	3.7112	1.7427	5.99	0.02	0.750			
0.6570	42046.92	3.7080	3.7082	1.5760	5.99	0.02	0.750			
0.6614	42327.55	3.7050	3.7051	1.4088	5.99	0.02	0.750			
0.6654	42583.85	3.7020	3.7020	1.2891	5.98	0.01	0.750			
0.6689	42808.58	3.6990	3.6989	1.1686	5.98	0.01	0.750			
0.6721	43014.56	3.6960	3.6959	1.0867	5.97	0.00	0.750			
0.6752	43214.52	3.6930	3.6930	1.0173	5.97	-0.00	0.750			
0.6782	43401.77	3.6900	3.6899	0.9719	5.96	-0.01	0.750			
0.6809	43579.74	3.6870	3.6871	0.9359	5.96	-0.01	0.750			
0.6837	43754.27	3.6840	3.6840	0.9064	5.95	-0.02	0.750			
0.6864	43926.58	3.6810	3.6810	0.8843	5.95	-0.02	0.750			
0.6890	44095.53	3.6780	3.6780	0.8593	5.96	-0.01	0.750			
0.6916	44259.74	3.6750	3.6750	0.8307	5.96	-0.01	0.750			
0.6941	44420.18	3.6720	3.6720	0.8020	5.96	-0.01	0.750			
0.6964	44568.65	3.6690	3.6690	0.7632	5.97	-0.00	0.750			
0.6986	44711.26	3.6660	3.6660	0.7291	5.97	0.00	0.750			
0.7007	44846.93	3.6630	3.6630	0.6945	5.97	0.00	0.750			
0.7028	44976.90	3.6600	3.6599	0.6652	5.97	0.00	0.750			
0.7047	45103.17	3.6570	3.6570	0.6319	5.97	0.00	0.750			
0.7066	45220.67	3.6540	3.6541	0.5989	5.97	0.00	0.750			
0.7083	45332.31	3.6510	3.6510	0.5684	5.97	0.00	0.750			
0.7100	45438.74	3.6480	3.6478	0.5355	5.97	0.00	0.750			
0.7115	45537.84	3.6450	3.6450	0.5014	5.97	0.00	0.750			
0.7130	45631.16	3.6420	3.6421	0.4693	5.97	0.00	0.750			
0.7144	45718.48	3.6390	3.6391	0.4368	5.97	0.00	0.750			
0.7156	45799.81	3.6360	3.6359	0.4021	5.97	0.00	0.750			
0.7168	45873.50	3.6330	3.6330	0.3672	5.97	0.00	0.750			
0.7178	45940.39	3.6300	3.6300	0.3304	5.97	0.00	0.750			
0.7188	46001.23	3.6270	3.6269	0.2943	5.97	0.00	0.750			
0.7196	46055.58	3.6240	3.6240	0.2547	5.97	0.00	0.750			
0.7203	46100.60	3.6210	3.6210	0.2131	5.97	0.00	0.750			
0.7209	46138.33	3.6180	3.6179	0.1722	5.97	0.00	0.750			
0.7214	46168.09	3.6150	3.6151	0.1291	5.97	0.00	0.750			
0.7217	46188.25	3.6120	3.6126	0.0843	5.97	0.00	0.750			
0.7219	46201.35	3.6090	3.6092	0.0361	5.97	0.00	0.750			
0.7219	46203.59	3.6060	3.6081	-0.0127	5.97	0.00	0.750			
