Ah_balance (normalized)	Ah_balance (mAh)	Voltage - fit (V)	Voltage -  interpolate (V)	dQ/dV (1/V)	Temperature (°C)	Temperature - diff (°C)	Current (C)	R_DC 0ms (mOhm)	R_DC 50ms (mOhm)	R_DC 50 ms PEC (mOhm)
0.1796	11496.07	4.0810	4.0812	0.8314	7.11	1.13	0.750			
0.1821	11652.06	4.0780	4.0780	0.8021	7.10	1.12	0.750			
0.1844	11802.33	4.0750	4.0750	0.7855	7.10	1.12	0.750			
0.1867	11950.76	4.0720	4.0721	0.7840	7.10	1.12	0.750			
0.1890	12098.84	4.0690	4.0690	0.7842	7.09	1.11	0.750			
0.1914	12250.68	4.0660	4.0657	0.7872	7.09	1.11	0.750			
0.1938	12401.94	4.0630	4.0631	0.7902	7.09	1.11	0.750			
0.1962	12555.10	4.0600	4.0600	0.7938	7.08	1.10	0.750			
0.1986	12708.68	4.0570	4.0570	0.8004	7.08	1.10	0.750			
0.2009	12860.58	4.0540	4.0540	0.7990	7.07	1.09	0.750			
0.2034	13016.38	4.0510	4.0508	0.8015	7.07	1.09	0.750			
0.2058	13171.65	4.0480	4.0480	0.8026	7.07	1.09	0.750			
0.2083	13329.07	4.0450	4.0450	0.7936	7.06	1.08	0.750			
0.2106	13480.05	4.0420	4.0421	0.7974	7.06	1.08	0.750			
0.2130	13630.75	4.0390	4.0391	0.8016	7.06	1.08	0.750			
0.2153	13781.60	4.0360	4.0359	0.8028	7.05	1.07	0.750			
0.2178	13936.37	4.0330	4.0331	0.8137	7.05	1.07	0.750			
0.2202	14095.87	4.0300	4.0301	0.8230	7.05	1.07	0.750			
0.2227	14254.28	4.0270	4.0270	0.8298	7.04	1.06	0.750			
0.2253	14418.28	4.0240	4.0239	0.8350	7.04	1.06	0.750			
0.2277	14575.98	4.0210	4.0211	0.8314	7.04	1.06	0.750			
0.2302	14735.95	4.0180	4.0181	0.8353	7.04	1.06	0.750			
0.2328	14897.76	4.0150	4.0150	0.8313	7.03	1.05	0.750			
0.2353	15056.50	4.0120	4.0120	0.8358	7.03	1.05	0.750			
0.2378	15216.96	4.0090	4.0091	0.8403	7.03	1.05	0.750			
0.2403	15377.33	4.0060	4.0060	0.8420	7.02	1.04	0.750			
0.2428	15540.04	4.0030	4.0030	0.8476	7.02	1.04	0.750			
0.2454	15704.10	4.0000	4.0000	0.8419	7.02	1.04	0.750			
0.2479	15866.34	3.9970	3.9970	0.8485	7.01	1.03	0.750			
0.2505	16031.17	3.9940	3.9941	0.8520	7.01	1.03	0.750			
0.2530	16192.29	3.9910	3.9909	0.8504	7.01	1.03	0.750			
0.2556	16355.81	3.9880	3.9880	0.8567	7.00	1.02	0.750			
0.2581	16519.89	3.9850	3.9850	0.8588	7.00	1.02	0.750			
0.2607	16684.94	3.9820	3.9820	0.8661	6.99	1.01	0.750			
0.2633	16851.92	3.9790	3.9790	0.8675	6.98	1.00	0.750			
0.2660	17020.96	3.9760	3.9759	0.8779	6.97	0.99	0.750			
0.2686	17193.06	3.9730	3.9729	0.8736	6.97	0.99	0.750			
0.2712	17359.73	3.9700	3.9700	0.8745	6.96	0.98	0.750			
0.2738	17526.09	3.9670	3.9671	0.8815	6.96	0.98	0.750			
0.2765	17695.76	3.9640	3.9640	0.8879	6.95	0.97	0.750			
0.2791	17864.16	3.9610	3.9607	0.8928	6.95	0.97	0.750			
0.2819	18039.09	3.9580	3.9581	0.8950	6.95	0.97	0.750			
0.2845	18210.69	3.9550	3.9550	0.9050	6.94	0.96	0.750			
0.2873	18386.64	3.9520	3.9520	0.9133	6.94	0.96	0.750			
0.2900	18560.65	3.9490	3.9492	0.9107	6.93	0.95	0.750			
0.2927	18735.20	3.9460	3.9459	0.9188	6.93	0.95	0.750			
0.2955	18913.60	3.9430	3.9431	0.9202	6.92	0.94	0.750			
0.2983	19089.62	3.9400	3.9401	0.9285	6.92	0.94	0.750			
0.3011	19269.75	3.9370	3.9370	0.9426	6.91	0.93	0.750			
0.3039	19449.38	3.9340	3.9336	0.9437	6.91	0.93	0.750			
0.3067	19631.12	3.9310	3.9310	0.9485	6.91	0.93	0.750			
0.3096	19813.80	3.9280	3.9281	0.9573	6.90	0.92	0.750			
0.3125	19998.81	3.9250	3.9250	0.9683	6.90	0.92	0.750			
0.3154	20185.19	3.9220	3.9219	0.9710	6.89	0.91	0.750			
0.3183	20373.34	3.9190	3.9190	0.9731	6.88	0.90	0.750			
0.3213	20560.32	3.9160	3.9160	0.9872	6.87	0.89	0.750			
0.3242	20751.14	3.9130	3.9131	1.0011	6.86	0.88	0.750			
0.3273	20944.94	3.9100	3.9100	1.0093	6.85	0.87	0.750			
0.3303	21141.65	3.9070	3.9070	1.0047	6.85	0.87	0.750			
0.3333	21333.49	3.9040	3.9041	1.0130	6.84	0.86	0.750			
0.3364	21529.00	3.9010	3.9011	1.0209	6.84	0.86	0.750			
0.3394	21724.15	3.8980	3.8980	1.0341	6.83	0.85	0.750			
0.3425	21921.61	3.8950	3.8949	1.0338	6.82	0.84	0.750			
0.3456	22121.33	3.8920	3.8921	1.0529	6.81	0.83	0.750			
0.3488	22325.52	3.8890	3.8890	1.0732	6.79	0.81	0.750			
0.3521	22535.07	3.8860	3.8861	1.0898	6.78	0.80	0.750			
0.3554	22746.42	3.8830	3.8831	1.0906	6.77	0.79	0.750			
0.3587	22956.42	3.8800	3.8801	1.1083	6.76	0.78	0.750			
0.3620	23169.68	3.8770	3.8770	1.1191	6.76	0.78	0.750			
0.3654	23386.84	3.8740	3.8739	1.1353	6.75	0.77	0.750			
0.3688	23603.36	3.8710	3.8711	1.1472	6.75	0.77	0.750			
0.3723	23824.30	3.8680	3.8680	1.1636	6.74	0.76	0.750			
0.3758	24052.79	3.8650	3.8650	1.1842	6.73	0.75	0.750			
0.3794	24281.35	3.8620	3.8621	1.1936	6.73	0.75	0.750			
0.3830	24510.25	3.8590	3.8591	1.2097	6.72	0.74	0.750			
0.3866	24743.98	3.8560	3.8561	1.2292	6.70	0.72	0.750			
0.3904	24982.72	3.8530	3.8529	1.2406	6.69	0.71	0.750			
0.3941	25220.90	3.8500	3.8500	1.2598	6.69	0.71	0.750			
0.3979	25465.11	3.8470	3.8470	1.2817	6.68	0.70	0.750			
0.4018	25712.39	3.8440	3.8442	1.3120	6.67	0.69	0.750			
0.4057	25964.76	3.8410	3.8411	1.3519	6.66	0.68	0.750			
0.4098	26227.64	3.8380	3.8380	1.3804	6.64	0.66	0.750			
0.4140	26497.83	3.8350	3.8349	1.4174	6.62	0.64	0.750	0.367	0.908	
0.4184	26777.61	3.8320	3.8321	1.4574	6.61	0.63	0.750			
0.4228	27059.42	3.8290	3.8290	1.4762	6.60	0.62	0.750			
0.4273	27348.28	3.8260	3.8259	1.4823	6.59	0.61	0.750			
0.4317	27630.36	3.8230	3.8231	1.4991	6.58	0.60	0.750			
0.4362	27919.70	3.8200	3.8200	1.5338	6.57	0.59	0.750			
0.4408	28214.17	3.8170	3.8168	1.5478	6.55	0.57	0.750			
0.4455	28511.15	3.8140	3.8138	1.5682	6.54	0.56	0.750			
0.4503	28818.49	3.8110	3.8113	1.6166	6.52	0.54	0.750			
0.4552	29131.20	3.8080	3.8077	1.6564	6.51	0.53	0.750			
0.4602	29449.91	3.8050	3.8049	1.7124	6.49	0.51	0.750			
0.4654	29783.56	3.8020	3.8020	1.7346	6.47	0.49	0.750			
0.4708	30128.54	3.7990	3.7992	1.7503	6.46	0.48	0.750			
0.4760	30465.06	3.7960	3.7963	1.7848	6.44	0.46	0.750			
0.4814	30810.40	3.7930	3.7931	1.8090	6.42	0.44	0.750			
0.4867	31151.72	3.7900	3.7900	1.8472	6.40	0.42	0.750			
0.4923	31510.18	3.7870	3.7868	1.9016	6.39	0.41	0.750			
0.4982	31884.10	3.7840	3.7839	1.9016	6.37	0.39	0.750			
0.5039	32248.91	3.7810	3.7810	1.9932	6.35	0.37	0.750			
0.5099	32632.05	3.7780	3.7776	2.0425	6.33	0.35	0.750			
0.5163	33043.44	3.7750	3.7751	2.0677	6.31	0.33	0.750			
0.5228	33462.23	3.7720	3.7717	2.0781	6.29	0.31	0.750			
0.5291	33861.98	3.7690	3.7690	2.0783	6.27	0.29	0.750			
0.5351	34245.56	3.7660	3.7663	2.0663	6.25	0.27	0.750			
0.5413	34640.30	3.7630	3.7629	2.0834	6.23	0.25	0.750			
0.5479	35065.12	3.7600	3.7597	2.1492	6.21	0.23	0.750			
0.5545	35489.24	3.7570	3.7568	2.2023	6.19	0.21	0.750			
0.5611	35907.69	3.7540	3.7538	2.2331	6.17	0.19	0.750			
0.5677	36331.23	3.7510	3.7507	2.2245	6.15	0.17	0.750			
0.5744	36764.73	3.7480	3.7481	2.2488	6.12	0.14	0.750			
0.5814	37209.42	3.7450	3.7449	2.3335	6.10	0.12	0.750			
0.5884	37656.94	3.7420	3.7424	2.2926	6.08	0.10	0.750			
0.5953	38099.18	3.7390	3.7390	2.3535	6.06	0.08	0.750			
0.6023	38544.45	3.7360	3.7358	2.4555	6.03	0.05	0.750			
0.6097	39021.04	3.7330	3.7329	2.5387	6.02	0.04	0.750			
0.6176	39528.67	3.7300	3.7299	2.6346	6.01	0.03	0.750			
0.6258	40048.69	3.7270	3.7271	2.7711	5.98	-0.00	0.750			
0.6343	40595.45	3.7240	3.7241	2.7808	5.96	-0.02	0.750			
0.6423	41106.98	3.7210	3.7210	2.7963	5.95	-0.03	0.750			
0.6507	41643.75	3.7180	3.7180	2.6039	5.94	-0.04	0.750			
0.6585	42146.14	3.7150	3.7153	2.5598	5.94	-0.04	0.750			
0.6659	42616.84	3.7120	3.7117	2.2866	5.93	-0.05	0.750			
0.6723	43029.62	3.7090	3.7091	2.0529	5.93	-0.05	0.750			
0.6785	43426.88	3.7060	3.7057	1.9021	5.92	-0.06	0.750			
0.6838	43762.99	3.7030	3.7034	1.6651	5.92	-0.06	0.750			
0.6885	44064.75	3.7000	3.7001	1.4783	5.91	-0.07	0.750			
0.6926	44324.09	3.6970	3.6970	1.3018	5.91	-0.07	0.750			
0.6961	44547.34	3.6940	3.6940	1.1329	5.92	-0.06	0.750			
0.6992	44750.97	3.6910	3.6911	1.0390	5.92	-0.06	0.750			
0.7022	44938.23	3.6880	3.6880	0.9710	5.93	-0.05	0.750			
0.7049	45111.33	3.6850	3.6850	0.9103	5.93	-0.05	0.750			
0.7075	45279.77	3.6820	3.6820	0.8620	5.94	-0.04	0.750			
0.7100	45438.27	3.6790	3.6790	0.8284	5.94	-0.04	0.750			
0.7125	45597.61	3.6760	3.6760	0.7961	5.94	-0.04	0.750			
0.7148	45748.46	3.6730	3.6730	0.7537	5.95	-0.03	0.750			
0.7171	45891.81	3.6700	3.6702	0.7087	5.95	-0.03	0.750			
0.7191	46024.21	3.6670	3.6672	0.6585	5.96	-0.02	0.750			
0.7210	46144.71	3.6640	3.6640	0.6114	5.96	-0.02	0.750			
0.7228	46257.40	3.6610	3.6610	0.5663	5.97	-0.01	0.750			
0.7243	46357.90	3.6580	3.6579	0.5158	5.97	-0.01	0.750			
0.7258	46453.31	3.6550	3.6550	0.4771	5.97	-0.01	0.750			
0.7272	46542.38	3.6520	3.6520	0.4394	5.98	-0.00	0.750			
0.7285	46622.84	3.6490	3.6488	0.4005	5.98	-0.00	0.750			
0.7296	46695.91	3.6460	3.6462	0.3624	5.98	0.00	0.750			
0.7306	46760.50	3.6430	3.6429	0.3229	5.98	0.00	0.750			
0.7315	46818.75	3.6400	3.6402	0.2873	5.99	0.01	0.750			
0.7324	46871.94	3.6370	3.6369	0.2508	5.99	0.01	0.750			
0.7331	46916.87	3.6340	3.6340	0.2153	5.99	0.01	0.750			
0.7337	46955.09	3.6310	3.6310	0.1777	5.99	0.01	0.750			
0.7341	46985.38	3.6280	3.6282	0.1377	5.99	0.01	0.750			
0.7345	47009.20	3.6250	3.6254	0.0973	5.99	0.01	0.750			
0.7348	47024.18	3.6220	3.6226	0.0540	5.99	0.01	0.750			
0.7348	47030.38	3.6190	3.6203	0.0105	5.99	0.01	0.750			
