Ah_balance (normalized)	Ah_balance (mAh)	Voltage - fit (V)	Voltage -  interpolate (V)	dQ/dV (1/V)	Temperature (°C)	Temperature - diff (°C)	Current (C)	R_DC 0ms (mOhm)	R_DC 50ms (mOhm)	R_DC 50 ms PEC (mOhm)
0.0941	6022.69	4.0020	4.0014	-0.0456	6.00	0.00	-0.750			
0.0943	6036.85	3.9990	3.9982	-0.0845	6.00	0.00	-0.750			
0.0946	6055.93	3.9960	3.9955	-0.1108	6.00	0.00	-0.750			
0.0950	6079.65	3.9930	3.9930	-0.1362	6.00	0.00	-0.750			
0.0954	6108.14	3.9900	3.9901	-0.1622	6.00	-0.00	-0.750			
0.0960	6141.88	3.9870	3.9870	-0.1865	6.00	-0.00	-0.750			
0.0966	6181.01	3.9840	3.9839	-0.2109	6.00	-0.00	-0.750			
0.0972	6223.70	3.9810	3.9810	-0.2328	6.00	-0.00	-0.750			
0.0980	6270.06	3.9780	3.9781	-0.2564	6.00	-0.00	-0.750			
0.0988	6321.74	3.9750	3.9750	-0.2804	6.00	-0.00	-0.750			
0.0996	6377.31	3.9720	3.9719	-0.3047	6.00	-0.00	-0.750			
0.1006	6438.29	3.9690	3.9690	-0.3266	6.00	-0.00	-0.750			
0.1016	6502.72	3.9660	3.9661	-0.3514	5.99	-0.01	-0.750			
0.1027	6571.28	3.9630	3.9631	-0.3821	5.99	-0.01	-0.750			
0.1039	6648.13	3.9600	3.9598	-0.4075	5.99	-0.01	-0.750			
0.1052	6730.58	3.9570	3.9569	-0.4252	5.99	-0.01	-0.750			
0.1065	6814.85	3.9540	3.9540	-0.4456	5.99	-0.01	-0.750			
0.1079	6903.04	3.9510	3.9514	-0.4660	5.99	-0.01	-0.750			
0.1093	6995.49	3.9480	3.9479	-0.4805	5.99	-0.01	-0.750			
0.1107	7086.04	3.9450	3.9449	-0.4945	5.99	-0.01	-0.750			
0.1122	7181.71	3.9420	3.9421	-0.5126	5.99	-0.01	-0.750			
0.1138	7282.28	3.9390	3.9390	-0.5378	5.99	-0.01	-0.750			
0.1154	7388.59	3.9360	3.9359	-0.5547	6.00	-0.00	-0.750			
0.1171	7497.54	3.9330	3.9331	-0.5694	6.00	-0.00	-0.750			
0.1189	7609.20	3.9300	3.9300	-0.5831	6.00	-0.00	-0.750			
0.1207	7724.90	3.9270	3.9270	-0.5971	6.00	0.00	-0.750			
0.1225	7840.03	3.9240	3.9240	-0.6022	6.00	0.00	-0.750			
0.1243	7956.34	3.9210	3.9209	-0.6071	6.00	0.00	-0.750			
0.1261	8072.04	3.9180	3.9182	-0.6150	6.00	0.00	-0.750			
0.1280	8193.59	3.9150	3.9149	-0.6200	6.01	0.01	-0.750			
0.1299	8311.82	3.9120	3.9119	-0.6271	6.01	0.01	-0.750			
0.1317	8431.70	3.9090	3.9089	-0.6368	6.01	0.01	-0.750			
0.1337	8553.94	3.9060	3.9059	-0.6495	6.01	0.01	-0.750			
0.1356	8680.74	3.9030	3.9029	-0.6589	6.02	0.02	-0.750			
0.1376	8807.09	3.9000	3.9000	-0.6758	6.03	0.03	-0.750			
0.1397	8940.30	3.8970	3.8970	-0.6757	6.03	0.03	-0.750			
0.1418	9076.43	3.8940	3.8939	-0.6847	6.04	0.04	-0.750			
0.1438	9206.33	3.8910	3.8909	-0.6776	6.05	0.05	-0.750			
0.1459	9335.08	3.8880	3.8881	-0.6736	6.05	0.05	-0.750			
0.1478	9462.26	3.8850	3.8849	-0.6802	6.06	0.06	-0.750			
0.1498	9589.52	3.8820	3.8820	-0.6896	6.06	0.06	-0.750			
0.1519	9722.27	3.8790	3.8789	-0.6877	6.07	0.07	-0.750			
0.1541	9860.55	3.8760	3.8760	-0.7015	6.07	0.07	-0.750			
0.1562	9998.38	3.8730	3.8730	-0.7013	6.08	0.08	-0.750			
0.1583	10132.80	3.8700	3.8701	-0.6980	6.08	0.08	-0.750			
0.1604	10265.90	3.8670	3.8670	-0.6957	6.09	0.09	-0.750			
0.1624	10396.33	3.8640	3.8640	-0.6967	6.10	0.10	-0.750			
0.1645	10529.25	3.8610	3.8609	-0.6945	6.11	0.11	-0.750			
0.1666	10665.21	3.8580	3.8581	-0.7051	6.12	0.12	-0.750			
0.1688	10800.37	3.8550	3.8548	-0.7119	6.12	0.12	-0.750			
0.1709	10938.26	3.8520	3.8520	-0.7145	6.13	0.13	-0.750			
0.1731	11076.35	3.8490	3.8489	-0.7150	6.14	0.14	-0.750			
0.1752	11214.23	3.8460	3.8460	-0.7190	6.15	0.15	-0.750			
0.1774	11354.09	3.8430	3.8431	-0.7187	6.15	0.15	-0.750			
0.1796	11493.74	3.8400	3.8400	-0.7203	6.16	0.16	-0.750			
0.1817	11630.66	3.8370	3.8369	-0.7160	6.17	0.17	-0.750			
0.1839	11767.36	3.8340	3.8339	-0.7146	6.17	0.17	-0.750			
0.1860	11903.88	3.8310	3.8310	-0.7162	6.18	0.18	-0.750			
0.1881	12040.26	3.8280	3.8279	-0.7227	6.19	0.19	-0.750			
0.1903	12179.41	3.8250	3.8250	-0.7248	6.19	0.19	-0.750			
0.1926	12323.43	3.8220	3.8219	-0.7292	6.20	0.20	-0.750			
0.1948	12464.05	3.8190	3.8192	-0.7228	6.21	0.21	-0.750			
0.1969	12602.55	3.8160	3.8159	-0.7238	6.22	0.22	-0.750			
0.1991	12740.58	3.8130	3.8131	-0.7190	6.23	0.23	-0.750			
0.2012	12876.71	3.8100	3.8099	-0.7271	6.23	0.23	-0.750			
0.2034	13015.12	3.8070	3.8070	-0.7217	6.24	0.24	-0.750			
0.2056	13157.25	3.8040	3.8039	-0.7280	6.25	0.25	-0.750			
0.2078	13297.40	3.8010	3.8014	-0.7301	6.26	0.26	-0.750			
0.2100	13438.97	3.7980	3.7979	-0.7342	6.27	0.27	-0.750			
0.2121	13577.22	3.7950	3.7950	-0.7373	6.28	0.28	-0.750			
0.2144	13719.74	3.7920	3.7920	-0.7350	6.29	0.29	-0.750			
0.2166	13862.50	3.7890	3.7889	-0.7379	6.30	0.30	-0.750			
0.2188	14005.48	3.7860	3.7857	-0.7376	6.30	0.30	-0.750			
0.2210	14146.34	3.7830	3.7832	-0.7372	6.31	0.31	-0.750			
0.2232	14286.24	3.7800	3.7799	-0.7358	6.32	0.32	-0.750			
0.2254	14424.78	3.7770	3.7771	-0.7409	6.33	0.33	-0.750			
0.2276	14565.77	3.7740	3.7740	-0.7419	6.33	0.33	-0.750			
0.2298	14709.72	3.7710	3.7709	-0.7729	6.34	0.34	-0.750			
0.2321	14853.74	3.7680	3.7682	-0.8254	6.35	0.35	-0.750			
0.2347	15020.16	3.7650	3.7647	-0.8560	6.36	0.36	-0.750			
0.2374	15192.97	3.7620	3.7612	-0.8796	6.37	0.37	-0.750			
0.2402	15371.72	3.7590	3.7597	-0.8717	6.37	0.37	-0.750			
0.2429	15544.18	3.7560	3.7563	-0.8562	6.38	0.38	-0.750			
0.2455	15712.74	3.7530	3.7531	-0.8436	6.39	0.39	-0.750			
0.2478	15859.82	3.7500	3.7499	-0.7930	6.40	0.40	-0.750			
0.2501	16004.52	3.7470	3.7469	-0.7847	6.41	0.41	-0.750			
0.2524	16156.15	3.7440	3.7440	-0.7917	6.42	0.42	-0.750			
0.2548	16309.49	3.7410	3.7410	-0.7967	6.44	0.44	-0.750			
0.2572	16463.10	3.7380	3.7379	-0.8032	6.45	0.45	-0.750			
0.2597	16618.80	3.7350	3.7350	-0.8070	6.46	0.46	-0.750			
0.2621	16772.70	3.7320	3.7319	-0.8118	6.46	0.46	-0.750			
0.2645	16929.44	3.7290	3.7290	-0.8134	6.47	0.47	-0.750			
0.2670	17085.39	3.7260	3.7260	-0.8161	6.48	0.48	-0.750			
0.2694	17243.87	3.7230	3.7230	-0.8227	6.49	0.49	-0.750			
0.2719	17401.84	3.7200	3.7200	-0.8295	6.50	0.50	-0.750			
0.2744	17559.99	3.7170	3.7170	-0.8360	6.50	0.50	-0.750			
0.2769	17721.96	3.7140	3.7139	-0.8443	6.51	0.51	-0.750			
0.2794	17884.26	3.7110	3.7110	-0.8488	6.52	0.52	-0.750			
0.2820	18050.70	3.7080	3.7080	-0.8586	6.53	0.53	-0.750			
0.2846	18214.03	3.7050	3.7050	-0.8655	6.53	0.53	-0.750			
0.2872	18381.13	3.7020	3.7020	-0.8697	6.54	0.54	-0.750			
0.2898	18548.66	3.6990	3.6990	-0.8713	6.55	0.55	-0.750			
0.2924	18715.75	3.6960	3.6960	-0.8763	6.55	0.55	-0.750			
0.2951	18885.63	3.6930	3.6932	-0.8839	6.56	0.56	-0.750			
0.2977	19054.64	3.6900	3.6900	-0.8927	6.57	0.57	-0.750			
0.3004	19226.29	3.6870	3.6870	-0.9003	6.57	0.57	-0.750			
0.3031	19398.87	3.6840	3.6840	-0.9078	6.58	0.58	-0.750			
0.3059	19576.79	3.6810	3.6809	-0.9173	6.59	0.59	-0.750			
0.3086	19753.48	3.6780	3.6780	-0.9243	6.59	0.59	-0.750			
0.3114	19931.66	3.6750	3.6750	-0.9375	6.60	0.60	-0.750			
0.3143	20114.37	3.6720	3.6719	-0.9416	6.60	0.60	-0.750			
0.3171	20294.48	3.6690	3.6688	-0.9446	6.61	0.61	-0.750			
0.3200	20477.54	3.6660	3.6664	-0.9503	6.61	0.61	-0.750			
0.3228	20660.01	3.6630	3.6629	-0.9581	6.61	0.61	-0.750			
0.3257	20844.18	3.6600	3.6599	-0.9671	6.62	0.62	-0.750			
0.3286	21027.28	3.6570	3.6570	-0.9687	6.62	0.62	-0.750			
0.3315	21217.54	3.6540	3.6539	-0.9862	6.63	0.63	-0.750			
0.3345	21407.53	3.6510	3.6511	-0.9913	6.63	0.63	-0.750			
0.3375	21598.91	3.6480	3.6480	-1.0009	6.63	0.63	-0.750			
0.3405	21792.53	3.6450	3.6450	-1.0076	6.63	0.63	-0.750			
0.3435	21983.39	3.6420	3.6420	-1.0166	6.63	0.63	-0.750			
0.3466	22179.50	3.6390	3.6390	-1.0345	6.63	0.63	-0.750			
0.3497	22380.30	3.6360	3.6360	-1.0485	6.64	0.64	-0.750			
0.3529	22583.30	3.6330	3.6328	-1.0590	6.64	0.64	-0.750			
0.3561	22789.00	3.6300	3.6301	-1.0655	6.65	0.65	-0.750			
0.3593	22998.03	3.6270	3.6271	-1.0754	6.65	0.65	-0.750			
0.3626	23206.73	3.6240	3.6239	-1.0760	6.66	0.66	-0.750			
0.3658	23411.25	3.6210	3.6209	-1.0743	6.66	0.66	-0.750			
0.3690	23614.63	3.6180	3.6181	-1.0727	6.67	0.67	-0.750			
0.3722	23820.60	3.6150	3.6149	-1.0793	6.67	0.67	-0.750			
0.3754	24028.22	3.6120	3.6120	-1.0867	6.67	0.67	-0.750			
0.3787	24236.46	3.6090	3.6090	-1.0964	6.68	0.68	-0.750			
0.3820	24447.59	3.6060	3.6060	-1.1045	6.68	0.68	-0.750			
0.3854	24662.70	3.6030	3.6030	-1.1194	6.68	0.68	-0.750			
0.3887	24878.45	3.6000	3.6000	-1.1262	6.68	0.68	-0.750			
0.3921	25095.35	3.5970	3.5970	-1.1424	6.69	0.69	-0.750			
0.3956	25315.98	3.5940	3.5940	-1.1535	6.69	0.69	-0.750			
0.3991	25540.17	3.5910	3.5909	-1.1563	6.69	0.69	-0.750			
0.4025	25762.85	3.5880	3.5880	-1.1608	6.69	0.69	-0.750	0.454	1.022	
0.4060	25986.09	3.5850	3.5849	-1.1718	6.69	0.69	-0.750			
0.4095	26210.66	3.5820	3.5819	-1.1796	6.69	0.69	-0.750			
0.4131	26437.33	3.5790	3.5789	-1.1888	6.69	0.69	-0.750			
0.4166	26663.86	3.5760	3.5760	-1.1977	6.69	0.69	-0.750			
0.4203	26898.04	3.5730	3.5730	-1.2188	6.69	0.69	-0.750			
0.4240	27134.74	3.5700	3.5700	-1.2340	6.70	0.70	-0.750			
0.4277	27372.38	3.5670	3.5669	-1.2436	6.70	0.70	-0.750			
0.4314	27609.56	3.5640	3.5640	-1.2678	6.71	0.71	-0.750			
0.4353	27856.67	3.5610	3.5610	-1.2770	6.71	0.71	-0.750			
0.4391	28103.84	3.5580	3.5579	-1.2866	6.72	0.72	-0.750			
0.4430	28350.92	3.5550	3.5550	-1.3033	6.73	0.73	-0.750			
0.4469	28604.01	3.5520	3.5520	-1.3093	6.73	0.73	-0.750			
0.4509	28858.04	3.5490	3.5489	-1.3185	6.73	0.73	-0.750			
0.4548	29110.37	3.5460	3.5460	-1.3264	6.73	0.73	-0.750			
0.4588	29361.70	3.5430	3.5431	-1.3309	6.73	0.73	-0.750			
0.4629	29623.44	3.5400	3.5399	-1.3487	6.74	0.74	-0.750			
0.4669	29882.48	3.5370	3.5369	-1.3540	6.74	0.74	-0.750			
0.4710	30140.82	3.5340	3.5341	-1.3645	6.75	0.75	-0.750			
0.4751	30407.65	3.5310	3.5311	-1.3817	6.75	0.75	-0.750			
0.4793	30674.17	3.5280	3.5279	-1.3879	6.76	0.76	-0.750			
0.4834	30940.41	3.5250	3.5251	-1.4012	6.76	0.76	-0.750			
0.4877	31210.25	3.5220	3.5220	-1.4080	6.77	0.77	-0.750			
0.4919	31482.74	3.5190	3.5190	-1.4136	6.77	0.77	-0.750			
0.4962	31756.85	3.5160	3.5161	-1.4256	6.78	0.78	-0.750			
0.5005	32031.73	3.5130	3.5129	-1.4311	6.79	0.79	-0.750			
0.5048	32306.46	3.5100	3.5099	-1.4396	6.80	0.80	-0.750			
0.5091	32583.31	3.5070	3.5070	-1.4427	6.81	0.81	-0.750			
0.5135	32861.69	3.5040	3.5040	-1.4447	6.81	0.81	-0.750			
0.5178	33138.88	3.5010	3.5010	-1.4566	6.81	0.81	-0.750			
0.5221	33416.11	3.4980	3.4981	-1.4612	6.82	0.82	-0.750			
0.5266	33703.28	3.4950	3.4949	-1.4761	6.83	0.83	-0.750			
0.5310	33986.98	3.4920	3.4920	-1.4786	6.84	0.84	-0.750			
0.5355	34271.69	3.4890	3.4892	-1.4759	6.85	0.85	-0.750			
0.5399	34556.70	3.4860	3.4860	-1.4816	6.86	0.86	-0.750			
0.5444	34841.36	3.4830	3.4829	-1.4832	6.87	0.87	-0.750			
0.5488	35125.54	3.4800	3.4799	-1.4753	6.88	0.88	-0.750			
0.5532	35407.24	3.4770	3.4770	-1.4725	6.90	0.90	-0.750			
0.5577	35692.60	3.4740	3.4741	-1.4768	6.91	0.91	-0.750			
0.5621	35974.95	3.4710	3.4710	-1.4668	6.92	0.92	-0.750			
0.5665	36258.33	3.4680	3.4679	-1.4658	6.92	0.92	-0.750			
0.5709	36537.61	3.4650	3.4651	-1.4596	6.93	0.93	-0.750			
0.5753	36819.25	3.4620	3.4620	-1.4561	6.95	0.95	-0.750			
0.5797	37098.63	3.4590	3.4590	-1.4459	6.96	0.96	-0.750			
0.5840	37375.28	3.4560	3.4560	-1.4347	6.97	0.97	-0.750			
0.5883	37651.54	3.4530	3.4529	-1.4271	6.98	0.98	-0.750			
0.5926	37924.56	3.4500	3.4500	-1.4127	6.99	0.99	-0.750			
0.5968	38193.08	3.4470	3.4469	-1.3975	7.01	1.01	-0.750			
0.6010	38461.24	3.4440	3.4440	-1.3858	7.02	1.02	-0.750			
0.6051	38724.69	3.4410	3.4410	-1.3755	7.04	1.04	-0.750			
0.6092	38987.72	3.4380	3.4380	-1.3521	7.05	1.05	-0.750			
0.6133	39250.91	3.4350	3.4350	-1.3395	7.07	1.07	-0.750			
0.6173	39505.79	3.4320	3.4320	-1.3149	7.08	1.08	-0.750			
0.6212	39754.93	3.4290	3.4291	-1.2961	7.09	1.09	-0.750			
0.6250	40002.35	3.4260	3.4259	-1.2710	7.11	1.11	-0.750			
0.6288	40243.29	3.4230	3.4229	-1.2477	7.12	1.12	-0.750			
0.6325	40479.39	3.4200	3.4199	-1.2216	7.13	1.13	-0.750			
0.6362	40715.69	3.4170	3.4169	-1.2018	7.14	1.14	-0.750			
0.6398	40944.19	3.4140	3.4140	-1.1734	7.15	1.15	-0.750			
0.6432	41165.45	3.4110	3.4110	-1.1430	7.16	1.16	-0.750			
0.6466	41381.62	3.4080	3.4080	-1.1218	7.18	1.18	-0.750			
0.6499	41595.41	3.4050	3.4049	-1.0967	7.19	1.19	-0.750			
0.6532	41802.09	3.4020	3.4019	-1.0689	7.21	1.21	-0.750			
0.6563	42005.24	3.3990	3.3990	-1.0461	7.22	1.22	-0.750			
0.6594	42204.62	3.3960	3.3961	-1.0232	7.24	1.24	-0.750			
0.6625	42400.46	3.3930	3.3929	-0.9969	7.25	1.25	-0.750			
0.6654	42588.68	3.3900	3.3899	-0.9702	7.27	1.27	-0.750			
0.6683	42771.30	3.3870	3.3870	-0.9409	7.28	1.28	-0.750			
0.6711	42950.14	3.3840	3.3840	-0.9178	7.29	1.29	-0.750			
0.6738	43123.33	3.3810	3.3809	-0.8957	7.31	1.31	-0.750			
0.6764	43292.58	3.3780	3.3780	-0.8720	7.32	1.32	-0.750			
0.6790	43456.31	3.3750	3.3750	-0.8491	7.33	1.33	-0.750			
0.6816	43619.73	3.3720	3.3719	-0.8320	7.34	1.34	-0.750			
0.6840	43776.18	3.3690	3.3691	-0.8089	7.36	1.36	-0.750			
0.6864	43929.56	3.3660	3.3660	-0.7911	7.37	1.37	-0.750			
0.6887	44079.01	3.3630	3.3630	-0.7714	7.38	1.38	-0.750			
0.6910	44225.20	3.3600	3.3600	-0.7524	7.40	1.40	-0.750			
0.6933	44368.18	3.3570	3.3570	-0.7353	7.41	1.41	-0.750			
0.6954	44508.41	3.3540	3.3541	-0.7175	7.42	1.42	-0.750			
0.6976	44644.39	3.3510	3.3510	-0.6994	7.43	1.43	-0.750			
0.6996	44776.69	3.3480	3.3480	-0.6811	7.45	1.45	-0.750			
0.7016	44905.48	3.3450	3.3450	-0.6646	7.46	1.46	-0.750			
0.7036	45031.14	3.3420	3.3420	-0.6457	7.47	1.47	-0.750			
0.7056	45155.54	3.3390	3.3389	-0.6124	7.48	1.48	-0.750			
0.7074	45270.74	3.3360	3.3361	-0.5896	7.49	1.49	-0.750			
0.7091	45380.45	3.3330	3.3333	-0.5677	7.50	1.50	-0.750			
0.7107	45486.00	3.3300	3.3295	-0.5440	7.51	1.51	-0.750			
0.7123	45587.75	3.3270	3.3269	-0.5299	7.52	1.52	-0.750			
0.7139	45690.35	3.3240	3.3241	-0.5525	7.53	1.53	-0.750			
