Ah_balance (normalized)	Ah_balance (mAh)	Voltage - fit (V)	Voltage -  interpolate (V)	dQ/dV (1/V)	Temperature (°C)	Temperature - diff (°C)	Current (C)	R_DC 0ms (mOhm)	R_DC 50ms (mOhm)	R_DC 50 ms PEC (mOhm)
0.1788	11445.18	4.0830	4.0830	0.7679	7.26	1.27	0.750			
0.1811	11593.28	4.0800	4.0800	0.7689	7.25	1.26	0.750			
0.1834	11738.83	4.0770	4.0769	0.7603	7.25	1.26	0.750			
0.1857	11882.90	4.0740	4.0742	0.7609	7.25	1.26	0.750			
0.1879	12028.79	4.0710	4.0709	0.7623	7.24	1.25	0.750			
0.1902	12175.16	4.0680	4.0680	0.7685	7.24	1.25	0.750			
0.1926	12323.65	4.0650	4.0649	0.7713	7.24	1.25	0.750			
0.1949	12471.49	4.0620	4.0621	0.7724	7.23	1.24	0.750			
0.1972	12622.37	4.0590	4.0590	0.7807	7.23	1.24	0.750			
0.1996	12771.33	4.0560	4.0560	0.7823	7.23	1.24	0.750			
0.2019	12921.38	4.0530	4.0530	0.7763	7.22	1.23	0.750			
0.2042	13070.71	4.0500	4.0500	0.7800	7.22	1.23	0.750			
0.2066	13219.47	4.0470	4.0471	0.7836	7.21	1.22	0.750			
0.2089	13370.46	4.0440	4.0438	0.7920	7.21	1.22	0.750			
0.2113	13523.16	4.0410	4.0411	0.7959	7.20	1.21	0.750			
0.2137	13677.78	4.0380	4.0380	0.7930	7.20	1.21	0.750			
0.2161	13830.25	4.0350	4.0351	0.8056	7.19	1.20	0.750			
0.2185	13986.14	4.0320	4.0321	0.8161	7.18	1.19	0.750			
0.2210	14141.60	4.0290	4.0288	0.8138	7.17	1.18	0.750			
0.2234	14298.39	4.0260	4.0261	0.8177	7.17	1.18	0.750			
0.2259	14459.45	4.0230	4.0230	0.8094	7.16	1.17	0.750			
0.2283	14612.93	4.0200	4.0202	0.8207	7.16	1.17	0.750			
0.2308	14772.17	4.0170	4.0170	0.8232	7.16	1.17	0.750			
0.2332	14925.94	4.0140	4.0141	0.8199	7.15	1.16	0.750			
0.2357	15084.27	4.0110	4.0111	0.8244	7.15	1.16	0.750			
0.2382	15245.84	4.0080	4.0081	0.8268	7.14	1.15	0.750			
0.2407	15403.96	4.0050	4.0050	0.8301	7.13	1.14	0.750			
0.2432	15565.04	4.0020	4.0020	0.8391	7.12	1.13	0.750			
0.2456	15721.55	3.9990	3.9991	0.8300	7.11	1.12	0.750			
0.2482	15883.59	3.9960	3.9961	0.8432	7.11	1.12	0.750			
0.2507	16045.49	3.9930	3.9930	0.8445	7.10	1.11	0.750			
0.2533	16209.78	3.9900	3.9900	0.8496	7.09	1.10	0.750			
0.2558	16372.62	3.9870	3.9871	0.8520	7.08	1.09	0.750			
0.2584	16536.32	3.9840	3.9840	0.8641	7.07	1.08	0.750			
0.2610	16703.53	3.9810	3.9809	0.8711	7.06	1.07	0.750			
0.2636	16872.51	3.9780	3.9779	0.8707	7.06	1.07	0.750			
0.2662	17039.75	3.9750	3.9752	0.8699	7.05	1.06	0.750			
0.2689	17208.77	3.9720	3.9720	0.8719	7.04	1.05	0.750			
0.2715	17374.85	3.9690	3.9687	0.8737	7.03	1.04	0.750			
0.2741	17543.05	3.9660	3.9660	0.8562	7.02	1.03	0.750			
0.2767	17706.03	3.9630	3.9630	0.8426	7.01	1.02	0.750			
0.2792	17868.70	3.9600	3.9602	0.8465	7.01	1.02	0.750			
0.2817	18026.53	3.9570	3.9574	0.8419	7.00	1.01	0.750			
0.2842	18187.68	3.9540	3.9534	0.8563	6.99	1.00	0.750			
0.2868	18352.21	3.9510	3.9510	0.8591	6.98	0.99	0.750			
0.2893	18517.52	3.9480	3.9481	0.8817	6.98	0.99	0.750			
0.2921	18693.51	3.9450	3.9450	0.9174	6.97	0.98	0.750			
0.2949	18872.03	3.9420	3.9420	0.9199	6.96	0.97	0.750			
0.2976	19046.99	3.9390	3.9389	0.9243	6.96	0.97	0.750			
0.3004	19226.62	3.9360	3.9361	0.9323	6.95	0.96	0.750			
0.3032	19406.20	3.9330	3.9330	0.9381	6.94	0.95	0.750			
0.3060	19587.18	3.9300	3.9300	0.9478	6.94	0.95	0.750			
0.3089	19767.48	3.9270	3.9269	0.9500	6.93	0.94	0.750			
0.3118	19952.11	3.9240	3.9240	0.9517	6.92	0.93	0.750			
0.3146	20137.36	3.9210	3.9210	0.9686	6.91	0.92	0.750			
0.3176	20323.62	3.9180	3.9181	0.9735	6.90	0.91	0.750			
0.3205	20509.96	3.9150	3.9150	0.9801	6.89	0.90	0.750			
0.3235	20701.55	3.9120	3.9120	0.9850	6.88	0.89	0.750			
0.3264	20889.74	3.9090	3.9091	0.9959	6.88	0.89	0.750			
0.3294	21083.02	3.9060	3.9060	1.0073	6.87	0.88	0.750			
0.3325	21277.54	3.9030	3.9031	1.0149	6.86	0.87	0.750			
0.3355	21474.67	3.9000	3.9001	1.0256	6.85	0.86	0.750			
0.3386	21671.69	3.8970	3.8971	1.0407	6.84	0.85	0.750			
0.3418	21872.94	3.8940	3.8940	1.0500	6.84	0.85	0.750			
0.3449	22076.38	3.8910	3.8911	1.0614	6.83	0.84	0.750			
0.3482	22285.79	3.8880	3.8881	1.0524	6.83	0.84	0.750			
0.3513	22484.07	3.8850	3.8851	1.0723	6.82	0.83	0.750			
0.3545	22688.12	3.8820	3.8821	1.0869	6.81	0.82	0.750			
0.3578	22897.06	3.8790	3.8792	1.1065	6.79	0.80	0.750			
0.3612	23114.14	3.8760	3.8760	1.0953	6.78	0.79	0.750			
0.3645	23326.57	3.8730	3.8732	1.1356	6.77	0.78	0.750			
0.3679	23545.94	3.8700	3.8701	1.1585	6.76	0.77	0.750			
0.3715	23774.77	3.8670	3.8663	1.1630	6.75	0.76	0.750			
0.3749	23996.06	3.8640	3.8643	1.1716	6.74	0.75	0.750			
0.3785	24221.70	3.8610	3.8611	1.1986	6.73	0.74	0.750			
0.3821	24453.65	3.8580	3.8582	1.2297	6.72	0.73	0.750			
0.3859	24697.49	3.8550	3.8549	1.2008	6.70	0.71	0.750			
0.3895	24928.73	3.8520	3.8521	1.2071	6.69	0.70	0.750			
0.3930	25155.09	3.8490	3.8493	1.2596	6.68	0.69	0.750			
0.3969	25399.56	3.8460	3.8453	1.2987	6.67	0.68	0.750			
0.4007	25647.53	3.8430	3.8431	1.3263	6.66	0.67	0.750	0.348	0.873	
0.4048	25906.93	3.8400	3.8404	1.3735	6.64	0.65	0.750			
0.4092	26189.54	3.8370	3.8365	1.3848	6.63	0.64	0.750			
0.4136	26470.42	3.8340	3.8341	1.4126	6.62	0.63	0.750			
0.4177	26731.17	3.8310	3.8311	1.4097	6.60	0.61	0.750			
0.4219	26998.82	3.8280	3.8278	1.4108	6.59	0.60	0.750			
0.4260	27261.51	3.8250	3.8252	1.4704	6.58	0.59	0.750			
0.4306	27556.91	3.8220	3.8220	1.4980	6.56	0.57	0.750			
0.4352	27850.44	3.8190	3.8185	1.5401	6.55	0.56	0.750			
0.4398	28145.43	3.8160	3.8165	1.5384	6.53	0.54	0.750			
0.4445	28449.61	3.8130	3.8131	1.5679	6.52	0.53	0.750			
0.4491	28741.34	3.8100	3.8091	1.5759	6.50	0.51	0.750			
0.4537	29037.90	3.8070	3.8071	1.6135	6.49	0.50	0.750			
0.4588	29365.12	3.8040	3.8036	1.6342	6.47	0.48	0.750			
0.4638	29683.15	3.8010	3.8018	1.6419	6.46	0.47	0.750			
0.4688	30005.45	3.7980	3.7982	1.6879	6.44	0.45	0.750			
0.4740	30337.81	3.7950	3.7948	1.6864	6.42	0.43	0.750			
0.4789	30647.74	3.7920	3.7919	1.6778	6.40	0.41	0.750			
0.4843	30993.19	3.7890	3.7890	1.7265	6.37	0.38	0.750			
0.4895	31325.42	3.7860	3.7864	1.7469	6.35	0.36	0.750			
0.4947	31660.70	3.7830	3.7834	1.8022	6.34	0.35	0.750			
0.5004	32025.96	3.7800	3.7802	1.8241	6.32	0.33	0.750			
0.5058	32369.22	3.7770	3.7772	1.8800	6.31	0.32	0.750			
0.5114	32726.82	3.7740	3.7742	1.9217	6.29	0.30	0.750			
0.5169	33080.75	3.7710	3.7708	1.8213	6.28	0.29	0.750			
0.5224	33435.30	3.7680	3.7684	1.7860	6.26	0.27	0.750			
0.5278	33776.18	3.7650	3.7652	1.8297	6.24	0.25	0.750			
0.5331	34120.92	3.7620	3.7621	1.8581	6.21	0.22	0.750			
0.5391	34502.23	3.7590	3.7592	1.9122	6.19	0.20	0.750			
0.5449	34871.13	3.7560	3.7562	1.9857	6.18	0.19	0.750			
0.5510	35262.75	3.7530	3.7529	1.9837	6.16	0.17	0.750			
0.5569	35644.40	3.7500	3.7503	1.9969	6.14	0.15	0.750			
0.5629	36025.64	3.7470	3.7468	2.0331	6.12	0.13	0.750			
0.5692	36427.46	3.7440	3.7439	2.0713	6.11	0.12	0.750			
0.5755	36831.31	3.7410	3.7413	2.1220	6.10	0.11	0.750			
0.5820	37245.00	3.7380	3.7382	2.1743	6.08	0.09	0.750			
0.5884	37659.36	3.7350	3.7353	2.2624	6.06	0.07	0.750			
0.5952	38091.62	3.7320	3.7321	2.2794	6.04	0.05	0.750			
0.6023	38544.08	3.7290	3.7292	2.3001	6.03	0.04	0.750			
0.6094	39001.38	3.7260	3.7260	2.3018	6.01	0.02	0.750			
0.6163	39443.55	3.7230	3.7229	2.3334	6.00	0.01	0.750			
0.6234	39894.80	3.7200	3.7200	2.2125	5.99	-0.00	0.750			
0.6300	40320.82	3.7170	3.7171	2.1283	5.97	-0.02	0.750			
0.6361	40708.86	3.7140	3.7138	1.9409	5.96	-0.03	0.750			
0.6415	41056.40	3.7110	3.7108	1.7388	5.95	-0.04	0.750			
0.6466	41380.05	3.7080	3.7076	1.5722	5.95	-0.04	0.750			
0.6510	41663.91	3.7050	3.7051	1.4028	5.95	-0.04	0.750			
0.6550	41921.05	3.7020	3.7021	1.2758	5.95	-0.04	0.750			
0.6585	42146.21	3.6990	3.6989	1.1641	5.95	-0.04	0.750			
0.6618	42356.98	3.6960	3.6959	1.0667	5.95	-0.04	0.750			
0.6648	42549.78	3.6930	3.6930	1.0076	5.95	-0.04	0.750			
0.6677	42734.41	3.6900	3.6901	0.9578	5.95	-0.04	0.750			
0.6705	42911.40	3.6870	3.6869	0.9159	5.95	-0.04	0.750			
0.6732	43084.93	3.6840	3.6842	0.8899	5.95	-0.04	0.750			
0.6758	43254.28	3.6810	3.6809	0.8474	5.95	-0.04	0.750			
0.6783	43411.44	3.6780	3.6780	0.8175	5.95	-0.04	0.750			
0.6807	43567.06	3.6750	3.6751	0.7927	5.95	-0.04	0.750			
0.6830	43712.83	3.6720	3.6722	0.7609	5.95	-0.04	0.750			
0.6853	43856.79	3.6690	3.6690	0.7368	5.95	-0.04	0.750			
0.6875	43997.41	3.6660	3.6660	0.7079	5.95	-0.04	0.750			
0.6896	44132.01	3.6630	3.6630	0.6771	5.95	-0.04	0.750			
0.6916	44260.77	3.6600	3.6600	0.6422	5.96	-0.03	0.750			
0.6934	44378.77	3.6570	3.6573	0.6051	5.96	-0.03	0.750			
0.6951	44489.54	3.6540	3.6539	0.5750	5.96	-0.03	0.750			
0.6968	44596.47	3.6510	3.6504	0.5500	5.96	-0.03	0.750			
0.6984	44699.20	3.6480	3.6481	0.5200	5.96	-0.03	0.750			
0.7000	44797.95	3.6450	3.6452	0.4946	5.97	-0.02	0.750			
0.7015	44894.92	3.6420	3.6419	0.4691	5.97	-0.02	0.750			
0.7028	44981.17	3.6390	3.6390	0.4277	5.97	-0.02	0.750			
0.7041	45059.72	3.6360	3.6360	0.3918	5.98	-0.01	0.750			
0.7052	45131.33	3.6330	3.6329	0.3579	5.98	-0.01	0.750			
0.7062	45196.26	3.6300	3.6301	0.3223	5.98	-0.01	0.750			
0.7071	45255.39	3.6270	3.6269	0.2900	5.98	-0.01	0.750			
0.7080	45309.67	3.6240	3.6240	0.2534	5.99	-0.00	0.750			
0.7087	45354.78	3.6210	3.6211	0.2149	5.99	-0.00	0.750			
0.7093	45392.62	3.6180	3.6177	0.1759	5.99	0.00	0.750			
0.7098	45424.34	3.6150	3.6153	0.1376	5.99	0.00	0.750			
0.7101	45446.76	3.6120	3.6122	0.0948	5.99	0.00	0.750			
0.7103	45460.84	3.6090	3.6088	0.0519	5.99	0.00	0.750			
0.7104	45464.34	3.6030	3.6074	-0.0467	5.99	0.00	0.750			
0.7104	45468.68	3.6060	3.9158	0.0016	5.99	0.00	0.742			
