Ah_balance (normalized)	Ah_balance (mAh)	Voltage - fit (V)	Voltage -  interpolate (V)	dQ/dV (1/V)	Temperature (°C)	Temperature - diff (°C)	Current (C)	R_DC 0ms (mOhm)	R_DC 50ms (mOhm)	R_DC 50 ms PEC (mOhm)
0.0933	5972.29	4.0040	4.0035	-0.0668	6.00	0.01	-0.750			
0.0936	5988.12	4.0010	4.0008	-0.0980	6.00	0.01	-0.750			
0.0939	6010.91	3.9980	3.9979	-0.1273	6.00	0.01	-0.750			
0.0944	6038.77	3.9950	3.9950	-0.1526	5.99	0.00	-0.750			
0.0949	6070.59	3.9920	3.9921	-0.1775	5.99	0.00	-0.750			
0.0954	6107.11	3.9890	3.9891	-0.2021	5.99	0.00	-0.750			
0.0961	6149.52	3.9860	3.9859	-0.2258	5.99	-0.00	-0.750			
0.0968	6195.04	3.9830	3.9829	-0.2473	5.99	-0.00	-0.750			
0.0976	6244.51	3.9800	3.9800	-0.2706	5.98	-0.01	-0.750			
0.0984	6298.99	3.9770	3.9770	-0.2936	5.98	-0.01	-0.750			
0.0993	6357.53	3.9740	3.9739	-0.3156	5.98	-0.01	-0.750			
0.1003	6419.94	3.9710	3.9711	-0.3400	5.97	-0.02	-0.750			
0.1014	6487.36	3.9680	3.9679	-0.3624	5.97	-0.02	-0.750			
0.1025	6559.27	3.9650	3.9650	-0.3858	5.97	-0.02	-0.750			
0.1037	6635.56	3.9620	3.9619	-0.4103	5.96	-0.03	-0.750			
0.1049	6716.71	3.9590	3.9591	-0.4320	5.96	-0.03	-0.750			
0.1063	6803.13	3.9560	3.9559	-0.4542	5.96	-0.03	-0.750			
0.1077	6893.15	3.9530	3.9531	-0.4697	5.95	-0.04	-0.750			
0.1091	6984.34	3.9500	3.9500	-0.4880	5.95	-0.04	-0.750			
0.1106	7080.12	3.9470	3.9470	-0.5066	5.95	-0.04	-0.750			
0.1122	7179.01	3.9440	3.9440	-0.5213	5.94	-0.05	-0.750			
0.1138	7280.55	3.9410	3.9410	-0.5363	5.94	-0.05	-0.750			
0.1154	7386.02	3.9380	3.9381	-0.5558	5.94	-0.05	-0.750			
0.1171	7494.71	3.9350	3.9350	-0.5704	5.94	-0.05	-0.750			
0.1189	7606.82	3.9320	3.9319	-0.5855	5.93	-0.06	-0.750			
0.1206	7719.49	3.9290	3.9291	-0.5941	5.93	-0.06	-0.750			
0.1224	7835.43	3.9260	3.9260	-0.6051	5.93	-0.06	-0.750			
0.1243	7952.67	3.9230	3.9230	-0.6158	5.93	-0.06	-0.750			
0.1261	8071.00	3.9200	3.9200	-0.6277	5.93	-0.06	-0.750			
0.1280	8193.49	3.9170	3.9170	-0.6351	5.94	-0.05	-0.750			
0.1299	8316.60	3.9140	3.9140	-0.6422	5.94	-0.05	-0.750			
0.1319	8441.94	3.9110	3.9110	-0.6484	5.94	-0.05	-0.750			
0.1339	8567.77	3.9080	3.9080	-0.6485	5.94	-0.05	-0.750			
0.1358	8691.52	3.9050	3.9050	-0.6533	5.94	-0.05	-0.750			
0.1377	8814.79	3.9020	3.9021	-0.6598	5.94	-0.05	-0.750			
0.1397	8941.07	3.8990	3.8990	-0.6626	5.95	-0.04	-0.750			
0.1417	9070.66	3.8960	3.8959	-0.6716	5.95	-0.04	-0.750			
0.1438	9200.13	3.8930	3.8931	-0.6788	5.95	-0.04	-0.750			
0.1458	9331.80	3.8900	3.8903	-0.6831	5.95	-0.04	-0.750			
0.1479	9464.85	3.8870	3.8870	-0.6911	5.95	-0.04	-0.750			
0.1499	9596.35	3.8840	3.8840	-0.6917	5.96	-0.03	-0.750			
0.1520	9728.46	3.8810	3.8809	-0.6911	5.96	-0.03	-0.750			
0.1541	9863.27	3.8780	3.8781	-0.6991	5.96	-0.03	-0.750			
0.1562	9997.11	3.8750	3.8749	-0.7017	5.97	-0.02	-0.750			
0.1583	10133.09	3.8720	3.8721	-0.7019	5.97	-0.02	-0.750			
0.1604	10268.43	3.8690	3.8690	-0.7037	5.97	-0.02	-0.750			
0.1625	10402.15	3.8660	3.8660	-0.7032	5.98	-0.01	-0.750			
0.1647	10538.70	3.8630	3.8630	-0.7011	5.98	-0.01	-0.750			
0.1668	10672.80	3.8600	3.8599	-0.7016	5.98	-0.01	-0.750			
0.1689	10806.74	3.8570	3.8569	-0.6979	5.99	-0.00	-0.750			
0.1709	10939.10	3.8540	3.8541	-0.7029	5.99	0.00	-0.750			
0.1731	11075.25	3.8510	3.8509	-0.7056	6.00	0.01	-0.750			
0.1751	11209.23	3.8480	3.8480	-0.7135	6.00	0.01	-0.750			
0.1773	11349.83	3.8450	3.8450	-0.7107	6.01	0.02	-0.750			
0.1795	11487.68	3.8420	3.8420	-0.7146	6.02	0.03	-0.750			
0.1816	11623.69	3.8390	3.8390	-0.7138	6.03	0.04	-0.750			
0.1838	11760.56	3.8360	3.8359	-0.7143	6.03	0.04	-0.750			
0.1859	11895.98	3.8330	3.8329	-0.7146	6.03	0.04	-0.750			
0.1880	12032.36	3.8300	3.8301	-0.7226	6.04	0.05	-0.750			
0.1902	12171.74	3.8270	3.8270	-0.7204	6.04	0.05	-0.750			
0.1924	12313.95	3.8240	3.8240	-0.7257	6.05	0.06	-0.750			
0.1946	12452.51	3.8210	3.8210	-0.7187	6.05	0.06	-0.750			
0.1967	12589.47	3.8180	3.8178	-0.7192	6.05	0.06	-0.750			
0.1989	12726.99	3.8150	3.8150	-0.7172	6.06	0.07	-0.750			
0.2010	12863.32	3.8120	3.8120	-0.7224	6.07	0.08	-0.750			
0.2032	13002.27	3.8090	3.8090	-0.7225	6.07	0.08	-0.750			
0.2054	13144.97	3.8060	3.8059	-0.7219	6.08	0.09	-0.750			
0.2075	13283.19	3.8030	3.8031	-0.7219	6.09	0.10	-0.750			
0.2097	13421.13	3.8000	3.8000	-0.7214	6.09	0.10	-0.750			
0.2118	13557.34	3.7970	3.7970	-0.7197	6.10	0.11	-0.750			
0.2140	13695.22	3.7940	3.7939	-0.7319	6.10	0.11	-0.750			
0.2162	13834.67	3.7910	3.7910	-0.7343	6.11	0.12	-0.750			
0.2184	13979.88	3.7880	3.7879	-0.7454	6.11	0.12	-0.750			
0.2207	14124.76	3.7850	3.7852	-0.7458	6.12	0.13	-0.750			
0.2230	14268.96	3.7820	3.7820	-0.7453	6.13	0.14	-0.750			
0.2252	14411.91	3.7790	3.7790	-0.7476	6.13	0.14	-0.750			
0.2274	14553.70	3.7760	3.7760	-0.7424	6.14	0.15	-0.750			
0.2296	14696.51	3.7730	3.7729	-0.7425	6.14	0.15	-0.750			
0.2319	14839.05	3.7700	3.7699	-0.7437	6.15	0.16	-0.750			
0.2341	14982.90	3.7670	3.7670	-0.7423	6.15	0.16	-0.750			
0.2363	15124.10	3.7640	3.7640	-0.7449	6.16	0.17	-0.750			
0.2385	15265.22	3.7610	3.7611	-0.7517	6.17	0.18	-0.750			
0.2408	15409.60	3.7580	3.7580	-0.7572	6.17	0.18	-0.750			
0.2431	15557.68	3.7550	3.7549	-0.7693	6.18	0.19	-0.750			
0.2454	15707.68	3.7520	3.7522	-0.7736	6.19	0.20	-0.750			
0.2478	15857.16	3.7490	3.7490	-0.7758	6.19	0.20	-0.750			
0.2501	16007.96	3.7460	3.7460	-0.7831	6.20	0.21	-0.750			
0.2524	16156.67	3.7430	3.7430	-0.7817	6.20	0.21	-0.750			
0.2548	16305.68	3.7400	3.7399	-0.7838	6.20	0.21	-0.750			
0.2571	16456.21	3.7370	3.7370	-0.7888	6.21	0.22	-0.750			
0.2595	16609.96	3.7340	3.7340	-0.7934	6.21	0.22	-0.750			
0.2619	16761.00	3.7310	3.7311	-0.8075	6.22	0.23	-0.750			
0.2643	16917.96	3.7280	3.7279	-0.8089	6.23	0.24	-0.750			
0.2668	17072.98	3.7250	3.7250	-0.8139	6.24	0.25	-0.750			
0.2692	17230.65	3.7220	3.7218	-0.8201	6.25	0.26	-0.750			
0.2717	17389.16	3.7190	3.7189	-0.8219	6.25	0.26	-0.750			
0.2741	17545.42	3.7160	3.7160	-0.8323	6.26	0.27	-0.750			
0.2767	17706.64	3.7130	3.7130	-0.8377	6.27	0.28	-0.750			
0.2792	17866.02	3.7100	3.7100	-0.8403	6.28	0.29	-0.750			
0.2817	18031.74	3.7070	3.7068	-0.8527	6.29	0.30	-0.750			
0.2843	18195.39	3.7040	3.7041	-0.8586	6.29	0.30	-0.750			
0.2869	18361.62	3.7010	3.7009	-0.8689	6.30	0.31	-0.750			
0.2895	18530.68	3.6980	3.6978	-0.8724	6.30	0.31	-0.750			
0.2921	18695.51	3.6950	3.6950	-0.8705	6.30	0.31	-0.750			
0.2948	18865.85	3.6920	3.6920	-0.8850	6.31	0.32	-0.750			
0.2974	19036.15	3.6890	3.6889	-0.8935	6.32	0.33	-0.750			
0.3001	19208.51	3.6860	3.6859	-0.8997	6.32	0.33	-0.750			
0.3028	19380.51	3.6830	3.6830	-0.9033	6.33	0.34	-0.750			
0.3055	19554.12	3.6800	3.6800	-0.9097	6.34	0.35	-0.750			
0.3083	19732.46	3.6770	3.6772	-0.9250	6.35	0.36	-0.750			
0.3111	19909.86	3.6740	3.6740	-0.9308	6.35	0.36	-0.750			
0.3139	20088.23	3.6710	3.6710	-0.9373	6.36	0.37	-0.750			
0.3167	20269.60	3.6680	3.6680	-0.9438	6.36	0.37	-0.750			
0.3196	20452.37	3.6650	3.6651	-0.9532	6.37	0.38	-0.750			
0.3224	20636.32	3.6620	3.6619	-0.9577	6.37	0.38	-0.750			
0.3253	20821.80	3.6590	3.6589	-0.9724	6.38	0.39	-0.750			
0.3283	21009.07	3.6560	3.6560	-0.9796	6.39	0.40	-0.750			
0.3312	21198.13	3.6530	3.6529	-0.9852	6.40	0.41	-0.750			
0.3342	21390.23	3.6500	3.6500	-0.9912	6.40	0.41	-0.750			
0.3372	21581.71	3.6470	3.6470	-1.0019	6.41	0.42	-0.750			
0.3402	21772.13	3.6440	3.6439	-1.0078	6.42	0.43	-0.750			
0.3432	21963.69	3.6410	3.6410	-1.0080	6.42	0.43	-0.750			
0.3463	22161.38	3.6380	3.6381	-1.0284	6.43	0.44	-0.750			
0.3494	22359.45	3.6350	3.6349	-1.0343	6.44	0.45	-0.750			
0.3525	22558.98	3.6320	3.6320	-1.0437	6.44	0.45	-0.750			
0.3556	22758.08	3.6290	3.6289	-1.0459	6.45	0.46	-0.750			
0.3588	22960.99	3.6260	3.6261	-1.0650	6.45	0.46	-0.750			
0.3620	23167.96	3.6230	3.6229	-1.0617	6.46	0.47	-0.750			
0.3652	23371.85	3.6200	3.6200	-1.0717	6.47	0.48	-0.750			
0.3684	23577.00	3.6170	3.6168	-1.0796	6.47	0.48	-0.750			
0.3716	23784.51	3.6140	3.6139	-1.0943	6.48	0.49	-0.750			
0.3749	23996.14	3.6110	3.6109	-1.1007	6.48	0.49	-0.750			
0.3783	24209.43	3.6080	3.6080	-1.1085	6.49	0.50	-0.750			
0.3816	24421.68	3.6050	3.6050	-1.1121	6.49	0.50	-0.750			
0.3850	24640.84	3.6020	3.6020	-1.1376	6.49	0.50	-0.750			
0.3884	24857.23	3.5990	3.5989	-1.1353	6.50	0.51	-0.750			
0.3918	25074.26	3.5960	3.5960	-1.1533	6.50	0.51	-0.750			
0.3952	25295.69	3.5930	3.5933	-1.1631	6.51	0.52	-0.750			
0.3988	25524.74	3.5900	3.5899	-1.1742	6.52	0.53	-0.750			
0.4024	25752.35	3.5870	3.5868	-1.1798	6.53	0.54	-0.750			
0.4062	25993.91	3.5840	3.5838	-1.0947	6.54	0.55	-0.750	0.474	1.047	
0.4096	26212.30	3.5810	3.5809	-1.0408	6.55	0.56	-0.750			
0.4124	26393.83	3.5780	3.5785	-0.9991	6.56	0.57	-0.750			
0.4149	26551.37	3.5750	3.5764	-0.9919	6.56	0.57	-0.750			
0.4176	26728.94	3.5720	3.5711	-1.0181	6.57	0.58	-0.750			
0.4208	26928.25	3.5690	3.5689	-1.0998	6.57	0.58	-0.750			
0.4242	27146.09	3.5660	3.5662	-1.1828	6.57	0.58	-0.750			
0.4282	27407.25	3.5630	3.5630	-1.2477	6.57	0.58	-0.750			
0.4322	27662.79	3.5600	3.5603	-1.2979	6.57	0.58	-0.750			
0.4361	27909.44	3.5570	3.5569	-1.2959	6.58	0.59	-0.750			
0.4399	28154.88	3.5540	3.5539	-1.3007	6.59	0.60	-0.750			
0.4439	28407.40	3.5510	3.5507	-1.2989	6.60	0.61	-0.750			
0.4478	28656.87	3.5480	3.5480	-1.3075	6.61	0.62	-0.750			
0.4518	28912.38	3.5450	3.5450	-1.3481	6.62	0.63	-0.750			
0.4558	29172.83	3.5420	3.5419	-1.3674	6.63	0.64	-0.750			
0.4599	29435.29	3.5390	3.5388	-1.3522	6.63	0.64	-0.750			
0.4641	29701.36	3.5360	3.5361	-1.3697	6.64	0.65	-0.750			
0.4682	29965.41	3.5330	3.5328	-1.4046	6.65	0.66	-0.750			
0.4725	30237.67	3.5300	3.5296	-1.4031	6.65	0.66	-0.750			
0.4768	30512.47	3.5270	3.5267	-1.4093	6.66	0.67	-0.750			
0.4809	30776.62	3.5240	3.5239	-1.4034	6.67	0.68	-0.750			
0.4853	31059.06	3.5210	3.5208	-1.4276	6.67	0.68	-0.750			
0.4896	31335.18	3.5180	3.5179	-1.4523	6.68	0.69	-0.750			
0.4939	31606.42	3.5150	3.5150	-1.4504	6.69	0.70	-0.750			
0.4982	31883.22	3.5120	3.5118	-1.4488	6.70	0.71	-0.750			
0.5027	32175.67	3.5090	3.5092	-1.5045	6.71	0.72	-0.750			
0.5073	32469.18	3.5060	3.5061	-1.4963	6.73	0.74	-0.750			
0.5119	32759.44	3.5030	3.5030	-1.4966	6.74	0.75	-0.750			
0.5164	33047.37	3.5000	3.4998	-1.4933	6.75	0.76	-0.750			
0.5208	33330.43	3.4970	3.4976	-1.4741	6.76	0.77	-0.750			
0.5252	33612.87	3.4940	3.4944	-1.4863	6.78	0.79	-0.750			
0.5296	33892.56	3.4910	3.4906	-1.4986	6.80	0.81	-0.750			
0.5340	34178.17	3.4880	3.4883	-1.4987	6.81	0.82	-0.750			
0.5387	34478.10	3.4850	3.4848	-1.5145	6.82	0.83	-0.750			
0.5434	34775.23	3.4820	3.4818	-1.5364	6.83	0.84	-0.750			
0.5479	35067.68	3.4790	3.4787	-1.5004	6.84	0.85	-0.750			
0.5525	35358.70	3.4760	3.4759	-1.5043	6.85	0.86	-0.750			
0.5569	35641.53	3.4730	3.4734	-1.4844	6.87	0.88	-0.750			
0.5613	35922.03	3.4700	3.4698	-1.4813	6.88	0.89	-0.750			
0.5656	36200.75	3.4670	3.4668	-1.4908	6.89	0.90	-0.750			
0.5703	36498.53	3.4640	3.4644	-1.4847	6.91	0.92	-0.750			
0.5749	36791.17	3.4610	3.4605	-1.5079	6.93	0.94	-0.750			
0.5793	37074.85	3.4580	3.4580	-1.5171	6.95	0.96	-0.750			
0.5839	37366.61	3.4550	3.4551	-1.4640	6.97	0.98	-0.750			
0.5882	37642.97	3.4520	3.4519	-1.4797	6.99	1.00	-0.750			
0.5925	37918.74	3.4490	3.4487	-1.4438	7.00	1.01	-0.750			
0.5969	38201.64	3.4460	3.4457	-1.4055	7.02	1.03	-0.750			
0.6013	38481.99	3.4430	3.4423	-1.4067	7.04	1.05	-0.750			
0.6053	38739.82	3.4400	3.4417	-1.3862	7.06	1.07	-0.750			
0.6096	39013.81	3.4370	3.4366	-1.3814	7.08	1.09	-0.750			
0.6136	39272.09	3.4340	3.4338	-1.3512	7.10	1.11	-0.750			
0.6174	39516.55	3.4310	3.4309	-1.3229	7.12	1.13	-0.750			
0.6215	39775.26	3.4280	3.4279	-1.3222	7.13	1.14	-0.750			
0.6256	40035.26	3.4250	3.4249	-1.2986	7.15	1.16	-0.750			
0.6293	40276.15	3.4220	3.4218	-1.2668	7.17	1.18	-0.750			
0.6330	40510.80	3.4190	3.4200	-1.2442	7.19	1.20	-0.750			
0.6369	40759.95	3.4160	3.4158	-1.2453	7.21	1.22	-0.750			
0.6406	40997.52	3.4130	3.4128	-1.1985	7.23	1.24	-0.750			
0.6442	41225.94	3.4100	3.4100	-1.1650	7.24	1.25	-0.750			
0.6475	41442.41	3.4070	3.4071	-1.1777	7.26	1.27	-0.750			
0.6511	41669.47	3.4040	3.4037	-1.1496	7.29	1.30	-0.750			
0.6544	41883.82	3.4010	3.4006	-1.1193	7.31	1.32	-0.750			
0.6578	42100.83	3.3980	3.3974	-1.0788	7.33	1.34	-0.750			
0.6611	42312.01	3.3950	3.3948	-1.0659	7.35	1.36	-0.750			
0.6643	42514.67	3.3920	3.3912	-1.0217	7.36	1.37	-0.750			
0.6672	42697.77	3.3890	3.3885	-0.9721	7.37	1.38	-0.750			
0.6700	42877.57	3.3860	3.3858	-0.9549	7.39	1.40	-0.750			
0.6727	43052.23	3.3830	3.3831	-0.9258	7.40	1.41	-0.750			
0.6755	43234.24	3.3800	3.3799	-0.9159	7.42	1.43	-0.750			
0.6783	43412.99	3.3770	3.3767	-0.8993	7.44	1.45	-0.750			
0.6810	43584.77	3.3740	3.3740	-0.8751	7.46	1.47	-0.750			
0.6836	43747.27	3.3710	3.3706	-0.8422	7.47	1.48	-0.750			
0.6860	43904.61	3.3680	3.3681	-0.8201	7.49	1.50	-0.750			
0.6884	44059.44	3.3650	3.3649	-0.8159	7.50	1.51	-0.750			
0.6908	44211.38	3.3620	3.3617	-0.7845	7.52	1.53	-0.750			
0.6933	44369.32	3.3590	3.3589	-0.7808	7.54	1.55	-0.750			
0.6956	44516.21	3.3560	3.3567	-0.7585	7.55	1.56	-0.750			
0.6978	44660.30	3.3530	3.3528	-0.7348	7.56	1.57	-0.750			
0.7000	44797.89	3.3500	3.3498	-0.7082	7.58	1.59	-0.750			
0.7019	44924.48	3.3470	3.3469	-0.6874	7.59	1.60	-0.750			
0.7040	45059.20	3.3440	3.3441	-0.6805	7.60	1.61	-0.750			
0.7061	45189.72	3.3410	3.3408	-0.6581	7.62	1.63	-0.750			
0.7080	45313.96	3.3380	3.3385	-0.6432	7.63	1.64	-0.750			
0.7099	45435.38	3.3350	3.3351	-0.6268	7.64	1.65	-0.750			
0.7118	45553.65	3.3320	3.3318	-0.6058	7.65	1.66	-0.750			
0.7136	45668.04	3.3290	3.3290	-0.5868	7.67	1.68	-0.750			
0.7153	45778.38	3.3260	3.3261	-0.5738	7.68	1.69	-0.750			
0.7170	45887.26	3.3230	3.3230	-0.5627	7.69	1.70	-0.750			
