Ah_balance (normalized)	Ah_balance (mAh)	Voltage - fit (V)	Voltage -  interpolate (V)	dQ/dV (1/V)	Temperature (°C)	Temperature - diff (°C)	Current (C)	R_DC 0ms (mOhm)	R_DC 50ms (mOhm)	R_DC 50 ms PEC (mOhm)
0.1798	11508.02	4.0810	4.0812	0.8202	7.45	1.47	0.750			
0.1822	11662.31	4.0780	4.0781	0.7867	7.45	1.47	0.750			
0.1845	11805.60	4.0750	4.0752	0.7587	7.45	1.47	0.750			
0.1867	11947.50	4.0720	4.0724	0.7405	7.45	1.47	0.750			
0.1888	12085.11	4.0690	4.0697	0.7380	7.45	1.47	0.750			
0.1909	12220.11	4.0660	4.0668	0.7396	7.45	1.47	0.750			
0.1932	12364.00	4.0630	4.0628	0.7568	7.45	1.47	0.750			
0.1955	12513.24	4.0600	4.0591	0.7841	7.45	1.47	0.750			
0.1980	12669.37	4.0570	4.0580	0.8128	7.44	1.46	0.750			
0.2005	12829.28	4.0540	4.0548	0.8267	7.44	1.46	0.750			
0.2030	12989.74	4.0510	4.0515	0.8304	7.44	1.46	0.750			
0.2055	13154.16	4.0480	4.0483	0.8333	7.43	1.45	0.750			
0.2081	13316.33	4.0450	4.0452	0.8272	7.43	1.45	0.750			
0.2106	13478.76	4.0420	4.0420	0.8051	7.42	1.44	0.750			
0.2129	13625.79	4.0390	4.0391	0.7968	7.42	1.44	0.750			
0.2152	13775.72	4.0360	4.0361	0.7994	7.42	1.44	0.750			
0.2176	13927.54	4.0330	4.0331	0.7985	7.41	1.43	0.750			
0.2200	14081.34	4.0300	4.0301	0.8033	7.41	1.43	0.750			
0.2225	14239.91	4.0270	4.0272	0.8093	7.40	1.42	0.750			
0.2249	14396.74	4.0240	4.0241	0.8150	7.40	1.42	0.750			
0.2274	14555.20	4.0210	4.0211	0.8172	7.40	1.42	0.750			
0.2298	14707.73	4.0180	4.0179	0.8113	7.39	1.41	0.750			
0.2322	14863.63	4.0150	4.0150	0.8183	7.39	1.41	0.750			
0.2348	15025.48	4.0120	4.0120	0.8193	7.39	1.41	0.750			
0.2372	15180.98	4.0090	4.0091	0.8253	7.39	1.41	0.750			
0.2397	15342.41	4.0060	4.0060	0.8346	7.39	1.41	0.750			
0.2422	15501.17	4.0030	4.0031	0.8328	7.39	1.41	0.750			
0.2447	15660.81	4.0000	4.0001	0.8373	7.39	1.41	0.750			
0.2472	15822.54	3.9970	3.9971	0.8391	7.38	1.40	0.750			
0.2498	15984.13	3.9940	3.9940	0.8466	7.38	1.40	0.750			
0.2523	16147.42	3.9910	3.9910	0.8533	7.38	1.40	0.750			
0.2549	16310.51	3.9880	3.9880	0.8539	7.37	1.39	0.750			
0.2574	16475.85	3.9850	3.9851	0.8605	7.37	1.39	0.750			
0.2601	16643.53	3.9820	3.9820	0.8620	7.36	1.38	0.750			
0.2626	16808.97	3.9790	3.9790	0.8662	7.36	1.38	0.750			
0.2653	16976.50	3.9760	3.9761	0.8707	7.36	1.38	0.750			
0.2678	17142.12	3.9730	3.9729	0.8705	7.35	1.37	0.750			
0.2705	17309.25	3.9700	3.9700	0.8743	7.35	1.37	0.750			
0.2731	17477.20	3.9670	3.9670	0.8793	7.34	1.36	0.750			
0.2757	17646.94	3.9640	3.9640	0.8834	7.34	1.36	0.750			
0.2784	17816.22	3.9610	3.9610	0.8886	7.33	1.35	0.750			
0.2811	17988.90	3.9580	3.9575	0.8960	7.33	1.35	0.750			
0.2838	18163.59	3.9550	3.9550	0.8910	7.32	1.34	0.750			
0.2865	18332.97	3.9520	3.9521	0.8984	7.31	1.33	0.750			
0.2891	18505.42	3.9490	3.9490	0.9042	7.30	1.32	0.750			
0.2918	18678.29	3.9460	3.9460	0.9173	7.30	1.32	0.750			
0.2946	18853.75	3.9430	3.9430	0.9230	7.29	1.31	0.750			
0.2974	19031.57	3.9400	3.9401	0.9273	7.28	1.30	0.750			
0.3002	19213.52	3.9370	3.9371	0.9389	7.28	1.30	0.750			
0.3031	19395.35	3.9340	3.9341	0.9453	7.27	1.29	0.750			
0.3059	19575.78	3.9310	3.9310	0.9438	7.27	1.29	0.750			
0.3087	19758.94	3.9280	3.9280	0.9431	7.27	1.29	0.750			
0.3115	19938.59	3.9250	3.9250	0.9501	7.26	1.28	0.750			
0.3144	20121.81	3.9220	3.9221	0.9614	7.26	1.28	0.750			
0.3173	20306.31	3.9190	3.9190	0.9680	7.25	1.27	0.750			
0.3202	20493.46	3.9160	3.9160	0.9737	7.24	1.26	0.750			
0.3231	20680.08	3.9130	3.9131	0.9865	7.24	1.26	0.750			
0.3261	20871.52	3.9100	3.9100	0.9980	7.23	1.25	0.750			
0.3291	21065.58	3.9070	3.9071	1.0122	7.22	1.24	0.750			
0.3322	21259.50	3.9040	3.9041	1.0143	7.21	1.23	0.750			
0.3352	21454.69	3.9010	3.9010	1.0274	7.20	1.22	0.750			
0.3383	21652.68	3.8980	3.8981	1.0412	7.19	1.21	0.750			
0.3415	21854.44	3.8950	3.8950	1.0502	7.18	1.20	0.750			
0.3447	22057.76	3.8920	3.8919	1.0538	7.17	1.19	0.750			
0.3478	22261.17	3.8890	3.8891	1.0699	7.16	1.18	0.750			
0.3510	22465.11	3.8860	3.8861	1.0844	7.15	1.17	0.750			
0.3543	22675.31	3.8830	3.8830	1.1023	7.14	1.16	0.750			
0.3576	22888.60	3.8800	3.8800	1.1073	7.13	1.15	0.750			
0.3610	23102.18	3.8770	3.8770	1.1214	7.11	1.13	0.750			
0.3644	23319.46	3.8740	3.8742	1.1396	7.10	1.12	0.750			
0.3678	23541.70	3.8710	3.8708	1.1471	7.09	1.11	0.750			
0.3713	23760.79	3.8680	3.8680	1.1514	7.08	1.10	0.750			
0.3747	23981.10	3.8650	3.8651	1.1684	7.07	1.09	0.750			
0.3782	24205.81	3.8620	3.8620	1.1885	7.06	1.08	0.750			
0.3818	24435.24	3.8590	3.8590	1.2001	7.05	1.07	0.750			
0.3854	24667.77	3.8560	3.8560	1.2238	7.03	1.05	0.750			
0.3891	24904.04	3.8530	3.8531	1.2482	7.01	1.03	0.750			
0.3930	25151.77	3.8500	3.8498	1.2598	6.99	1.01	0.750			
0.3968	25394.43	3.8470	3.8470	1.2790	6.98	1.00	0.750			
0.4006	25636.94	3.8440	3.8441	1.3143	6.97	0.99	0.750			
0.4046	25891.74	3.8410	3.8410	1.3424	6.96	0.98	0.750			
0.4087	26153.74	3.8380	3.8380	1.3784	6.95	0.97	0.750			
0.4128	26420.68	3.8350	3.8351	1.4089	6.93	0.95	0.750	0.394	0.907	
0.4172	26697.64	3.8320	3.8320	1.4228	6.92	0.94	0.750			
0.4215	26977.02	3.8290	3.8290	1.4405	6.90	0.92	0.750			
0.4258	27250.71	3.8260	3.8261	1.4528	6.89	0.91	0.750			
0.4302	27533.99	3.8230	3.8229	1.4588	6.87	0.89	0.750			
0.4346	27814.85	3.8200	3.8197	1.4831	6.86	0.88	0.750			
0.4390	28098.53	3.8170	3.8172	1.5618	6.84	0.86	0.750			
0.4437	28395.50	3.8140	3.8137	1.6604	6.83	0.85	0.750			
0.4488	28725.89	3.8110	3.8110	1.7302	6.81	0.83	0.750			
0.4544	29083.55	3.8080	3.8083	1.7738	6.80	0.82	0.750			
0.4598	29429.19	3.8050	3.8053	1.7875	6.77	0.79	0.750			
0.4651	29766.91	3.8020	3.8021	1.7723	6.75	0.77	0.750			
0.4702	30090.65	3.7990	3.7992	1.7581	6.72	0.74	0.750			
0.4754	30427.23	3.7960	3.7963	1.7738	6.70	0.72	0.750			
0.4808	30770.08	3.7930	3.7931	1.8204	6.67	0.69	0.750			
0.4864	31127.44	3.7900	3.7899	1.8427	6.65	0.67	0.750			
0.4921	31495.64	3.7870	3.7871	1.8854	6.63	0.65	0.750			
0.4977	31855.31	3.7840	3.7842	1.9144	6.61	0.63	0.750			
0.5036	32227.59	3.7810	3.7811	1.9358	6.58	0.60	0.750			
0.5092	32591.70	3.7780	3.7778	1.9603	6.56	0.58	0.750			
0.5152	32973.00	3.7750	3.7748	1.9703	6.53	0.55	0.750			
0.5212	33354.63	3.7720	3.7719	1.9953	6.51	0.53	0.750			
0.5272	33740.48	3.7690	3.7689	2.0041	6.49	0.51	0.750			
0.5332	34125.57	3.7660	3.7661	2.0419	6.46	0.48	0.750			
0.5394	34520.68	3.7630	3.7631	2.0438	6.43	0.45	0.750			
0.5456	34918.10	3.7600	3.7599	2.0736	6.40	0.42	0.750			
0.5519	35319.95	3.7570	3.7570	2.1226	6.38	0.40	0.750			
0.5583	35734.01	3.7540	3.7539	2.1505	6.35	0.37	0.750			
0.5647	36140.21	3.7510	3.7510	2.1512	6.33	0.35	0.750			
0.5713	36560.73	3.7480	3.7481	2.1942	6.30	0.32	0.750			
0.5780	36989.05	3.7450	3.7450	2.2603	6.26	0.28	0.750			
0.5848	37428.51	3.7420	3.7419	2.3557	6.24	0.26	0.750			
0.5921	37895.25	3.7390	3.7390	2.4203	6.21	0.23	0.750			
0.5994	38359.06	3.7360	3.7361	2.4934	6.19	0.21	0.750			
0.6068	38837.40	3.7330	3.7330	2.4530	6.16	0.18	0.750			
0.6145	39325.41	3.7300	3.7302	2.5566	6.13	0.15	0.750			
0.6223	39824.70	3.7270	3.7269	2.5701	6.10	0.12	0.750			
0.6299	40314.93	3.7240	3.7241	2.5777	6.08	0.10	0.750			
0.6379	40826.69	3.7210	3.7208	2.5043	6.06	0.08	0.750			
0.6454	41302.84	3.7180	3.7181	2.3895	6.05	0.07	0.750			
0.6523	41745.49	3.7150	3.7150	2.2477	6.04	0.06	0.750			
0.6588	42165.93	3.7120	3.7120	2.0404	6.03	0.05	0.750			
0.6647	42540.96	3.7090	3.7090	1.8764	6.02	0.04	0.750			
0.6699	42872.04	3.7060	3.7063	1.6444	6.01	0.03	0.750			
0.6745	43166.56	3.7030	3.7027	1.4587	6.00	0.02	0.750			
0.6785	43421.03	3.7000	3.7000	1.3079	5.99	0.01	0.750			
0.6820	43646.04	3.6970	3.6970	1.1641	5.99	0.01	0.750			
0.6852	43852.45	3.6940	3.6939	1.0632	5.98	0.00	0.750			
0.6881	44037.36	3.6910	3.6911	0.9812	5.98	-0.00	0.750			
0.6910	44222.14	3.6880	3.6880	0.9440	5.97	-0.01	0.750			
0.6937	44395.14	3.6850	3.6847	0.9027	5.97	-0.01	0.750			
0.6963	44563.22	3.6820	3.6820	0.8654	5.97	-0.01	0.750			
0.6989	44726.77	3.6790	3.6790	0.8289	5.97	-0.01	0.750			
0.7013	44885.72	3.6760	3.6760	0.7994	5.97	-0.01	0.750			
0.7037	45035.61	3.6730	3.6731	0.7595	5.97	-0.01	0.750			
0.7059	45177.58	3.6700	3.6697	0.7216	5.97	-0.01	0.750			
0.7080	45311.79	3.6670	3.6671	0.6801	5.97	-0.01	0.750			
0.7100	45439.49	3.6640	3.6640	0.6438	5.97	-0.01	0.750			
0.7119	45560.45	3.6610	3.6610	0.6075	5.97	-0.01	0.750			
0.7136	45672.15	3.6580	3.6580	0.5639	5.98	-0.00	0.750			
0.7153	45777.09	3.6550	3.6550	0.5255	5.98	-0.00	0.750			
0.7168	45873.93	3.6520	3.6520	0.4878	5.98	-0.00	0.750			
0.7182	45963.95	3.6490	3.6490	0.4505	5.98	-0.00	0.750			
0.7195	46046.78	3.6460	3.6461	0.4159	5.98	0.00	0.750			
0.7207	46122.87	3.6430	3.6429	0.3783	5.98	0.00	0.750			
0.7218	46192.26	3.6400	3.6400	0.3431	5.98	0.00	0.750			
0.7227	46255.03	3.6370	3.6370	0.3081	5.98	0.00	0.750			
0.7236	46311.07	3.6340	3.6341	0.2733	5.98	0.00	0.750			
0.7244	46360.21	3.6310	3.6309	0.2351	5.98	0.00	0.750			
0.7250	46401.93	3.6280	3.6280	0.1981	5.99	0.01	0.750			
0.7256	46435.95	3.6250	3.6250	0.1592	5.99	0.01	0.750			
0.7260	46463.35	3.6220	3.6223	0.1219	5.99	0.01	0.750			
0.7263	46484.39	3.6190	3.6193	0.0828	5.99	0.01	0.750			
0.7265	46496.57	3.6160	3.6163	0.0412	5.99	0.01	0.750			
0.7266	46500.50	3.6130	3.6148	-0.0004	5.99	0.01	0.750			
