Ah_balance (normalized)	Ah_balance (mAh)	Voltage - fit (V)	Voltage -  interpolate (V)	dQ/dV (1/V)	Temperature (°C)	Temperature - diff (°C)	Current (C)	R_DC 0ms (mOhm)	R_DC 50ms (mOhm)	R_DC 50 ms PEC (mOhm)
0.1734	11099.93	4.0820	4.0820	0.7281	7.34	1.37	0.750			
0.1756	11240.31	4.0790	4.0790	0.7410	7.34	1.37	0.750			
0.1779	11385.13	4.0760	4.0761	0.7584	7.33	1.36	0.750			
0.1802	11532.88	4.0730	4.0731	0.7716	7.33	1.36	0.750			
0.1826	11683.94	4.0700	4.0701	0.7781	7.33	1.36	0.750			
0.1849	11835.29	4.0670	4.0670	0.7792	7.32	1.35	0.750			
0.1873	11984.60	4.0640	4.0641	0.7825	7.32	1.35	0.750			
0.1896	12134.21	4.0610	4.0610	0.7826	7.31	1.34	0.750			
0.1919	12284.24	4.0580	4.0578	0.7844	7.31	1.34	0.750			
0.1943	12434.57	4.0550	4.0551	0.7885	7.30	1.33	0.750			
0.1967	12587.77	4.0520	4.0521	0.7834	7.30	1.33	0.750			
0.1991	12740.42	4.0490	4.0489	0.7946	7.29	1.32	0.750			
0.2014	12891.77	4.0460	4.0460	0.7998	7.29	1.32	0.750			
0.2038	13042.30	4.0430	4.0430	0.8017	7.28	1.31	0.750			
0.2062	13198.02	4.0400	4.0401	0.8095	7.28	1.31	0.750			
0.2087	13357.09	4.0370	4.0370	0.8098	7.27	1.30	0.750			
0.2111	13512.19	4.0340	4.0340	0.8149	7.26	1.29	0.750			
0.2136	13669.62	4.0310	4.0311	0.8257	7.26	1.29	0.750			
0.2160	13825.83	4.0280	4.0280	0.8228	7.25	1.28	0.750			
0.2185	13984.42	4.0250	4.0250	0.8242	7.25	1.28	0.750			
0.2210	14144.99	4.0220	4.0221	0.8208	7.24	1.27	0.750			
0.2235	14303.21	4.0190	4.0192	0.8224	7.23	1.26	0.750			
0.2260	14461.35	4.0160	4.0160	0.8315	7.22	1.25	0.750			
0.2284	14617.38	4.0130	4.0131	0.8248	7.21	1.24	0.750			
0.2309	14775.68	4.0100	4.0100	0.8323	7.21	1.24	0.750			
0.2334	14938.22	4.0070	4.0070	0.8344	7.20	1.23	0.750			
0.2359	15098.57	4.0040	4.0041	0.8462	7.19	1.22	0.750			
0.2385	15262.88	4.0010	4.0010	0.8591	7.18	1.21	0.750			
0.2411	15427.24	3.9980	3.9980	0.8597	7.17	1.20	0.750			
0.2436	15592.91	3.9950	3.9951	0.8653	7.17	1.20	0.750			
0.2463	15764.52	3.9920	3.9921	0.8574	7.16	1.19	0.750			
0.2488	15926.23	3.9890	3.9890	0.8633	7.16	1.19	0.750			
0.2514	16091.96	3.9860	3.9862	0.8673	7.15	1.18	0.750			
0.2540	16254.89	3.9830	3.9828	0.8672	7.15	1.18	0.750			
0.2566	16421.90	3.9800	3.9801	0.8745	7.14	1.17	0.750			
0.2592	16591.61	3.9770	3.9771	0.8761	7.14	1.17	0.750			
0.2619	16759.63	3.9740	3.9742	0.8835	7.13	1.16	0.750			
0.2646	16931.72	3.9710	3.9710	0.8858	7.12	1.15	0.750			
0.2672	17101.26	3.9680	3.9676	0.8901	7.11	1.14	0.750			
0.2699	17273.04	3.9650	3.9651	0.8934	7.10	1.13	0.750			
0.2726	17445.13	3.9620	3.9620	0.9036	7.09	1.12	0.750			
0.2753	17621.13	3.9590	3.9591	0.9176	7.08	1.11	0.750			
0.2782	17803.42	3.9560	3.9559	0.9174	7.07	1.10	0.750			
0.2809	17974.98	3.9530	3.9532	0.9131	7.07	1.10	0.750			
0.2836	18150.84	3.9500	3.9500	0.9110	7.06	1.09	0.750			
0.2863	18322.83	3.9470	3.9472	0.9196	7.06	1.09	0.750			
0.2890	18498.38	3.9440	3.9428	0.9271	7.05	1.08	0.750			
0.2918	18675.89	3.9410	3.9406	0.9310	7.05	1.08	0.750			
0.2947	18859.14	3.9380	3.9382	0.9300	7.04	1.07	0.750			
0.2975	19039.72	3.9350	3.9350	0.9482	7.03	1.06	0.750			
0.3004	19222.43	3.9320	3.9321	0.9539	7.02	1.05	0.750			
0.3032	19404.49	3.9290	3.9291	0.9534	7.01	1.04	0.750			
0.3061	19590.47	3.9260	3.9261	0.9570	7.01	1.04	0.750			
0.3090	19774.82	3.9230	3.9232	0.9713	7.00	1.03	0.750			
0.3119	19963.08	3.9200	3.9200	0.9831	6.99	1.02	0.750			
0.3149	20155.25	3.9170	3.9170	0.9964	6.98	1.01	0.750			
0.3179	20343.09	3.9140	3.9140	0.9954	6.97	1.00	0.750			
0.3209	20535.72	3.9110	3.9111	1.0027	6.96	0.99	0.750			
0.3239	20728.88	3.9080	3.9082	1.0187	6.95	0.98	0.750			
0.3270	20926.58	3.9050	3.9050	1.0307	6.95	0.98	0.750			
0.3301	21127.09	3.9020	3.9021	1.0293	6.94	0.97	0.750			
0.3331	21320.25	3.8990	3.8992	1.0558	6.93	0.96	0.750			
0.3362	21519.39	3.8960	3.8962	1.1029	6.92	0.95	0.750			
0.3396	21735.37	3.8930	3.8930	1.1380	6.92	0.95	0.750			
0.3431	21960.42	3.8900	3.8896	1.1509	6.91	0.94	0.750			
0.3467	22187.94	3.8870	3.8875	1.1714	6.90	0.93	0.750			
0.3504	22423.96	3.8840	3.8843	1.1917	6.88	0.91	0.750			
0.3540	22656.23	3.8810	3.8807	1.1769	6.87	0.90	0.750			
0.3574	22870.95	3.8780	3.8781	1.1363	6.86	0.89	0.750			
0.3607	23087.76	3.8750	3.8752	1.1457	6.85	0.88	0.750			
0.3642	23310.77	3.8720	3.8720	1.1658	6.84	0.87	0.750			
0.3677	23533.12	3.8690	3.8689	1.1723	6.83	0.86	0.750			
0.3712	23758.02	3.8660	3.8660	1.1770	6.82	0.85	0.750			
0.3747	23983.68	3.8630	3.8632	1.2020	6.81	0.84	0.750			
0.3785	24221.79	3.8600	3.8598	1.2081	6.79	0.82	0.750			
0.3821	24451.72	3.8570	3.8570	1.2299	6.78	0.81	0.750			
0.3858	24692.30	3.8540	3.8541	1.2310	6.77	0.80	0.750			
0.3895	24925.92	3.8510	3.8512	1.2669	6.76	0.79	0.750			
0.3933	25171.66	3.8480	3.8480	1.3030	6.75	0.78	0.750			
0.3971	25416.98	3.8450	3.8451	1.3310	6.73	0.76	0.750			
0.4012	25677.09	3.8420	3.8423	1.3555	6.72	0.75	0.750	0.360	0.878	
0.4054	25944.52	3.8390	3.8388	1.3936	6.71	0.74	0.750			
0.4096	26214.92	3.8360	3.8362	1.4123	6.69	0.72	0.750			
0.4141	26500.76	3.8330	3.8331	1.4340	6.66	0.69	0.750			
0.4183	26769.87	3.8300	3.8300	1.4497	6.65	0.68	0.750			
0.4225	27041.28	3.8270	3.8271	1.4486	6.63	0.66	0.750			
0.4270	27325.27	3.8240	3.8239	1.4651	6.62	0.65	0.750			
0.4314	27610.61	3.8210	3.8212	1.4950	6.60	0.63	0.750			
0.4358	27892.61	3.8180	3.8180	1.5315	6.58	0.61	0.750			
0.4405	28191.06	3.8150	3.8152	1.5626	6.57	0.60	0.750			
0.4452	28490.50	3.8120	3.8121	1.5941	6.55	0.58	0.750			
0.4502	28810.07	3.8090	3.8091	1.6460	6.53	0.56	0.750			
0.4552	29131.47	3.8060	3.8060	1.6579	6.51	0.54	0.750			
0.4603	29456.20	3.8030	3.8031	1.6662	6.49	0.52	0.750			
0.4653	29777.71	3.8000	3.8000	1.6751	6.48	0.51	0.750			
0.4703	30097.72	3.7970	3.7967	1.6883	6.46	0.49	0.750			
0.4752	30410.72	3.7940	3.7941	1.7079	6.44	0.47	0.750			
0.4804	30745.28	3.7910	3.7907	1.7929	6.43	0.46	0.750			
0.4858	31093.44	3.7880	3.7881	1.7763	6.41	0.44	0.750			
0.4912	31435.49	3.7850	3.7848	1.7985	6.39	0.42	0.750			
0.4965	31778.01	3.7820	3.7819	1.8401	6.38	0.41	0.750			
0.5021	32133.78	3.7790	3.7789	1.8350	6.36	0.39	0.750			
0.5076	32487.07	3.7760	3.7759	1.9727	6.34	0.37	0.750			
0.5134	32857.71	3.7730	3.7728	2.0795	6.32	0.35	0.750			
0.5201	33285.04	3.7700	3.7703	2.1514	6.30	0.33	0.750			
0.5267	33710.41	3.7670	3.7674	2.1171	6.28	0.31	0.750			
0.5332	34123.94	3.7640	3.7640	2.0289	6.26	0.29	0.750			
0.5388	34480.31	3.7610	3.7609	1.9183	6.24	0.27	0.750			
0.5445	34848.61	3.7580	3.7580	1.9437	6.22	0.25	0.750			
0.5504	35223.90	3.7550	3.7550	1.9851	6.20	0.23	0.750			
0.5563	35603.27	3.7520	3.7520	2.0411	6.18	0.21	0.750			
0.5625	36001.53	3.7490	3.7490	2.1030	6.16	0.19	0.750			
0.5691	36419.49	3.7460	3.7459	2.1730	6.14	0.17	0.750			
0.5757	36843.15	3.7430	3.7430	2.2195	6.12	0.15	0.750			
0.5824	37271.13	3.7400	3.7400	2.2682	6.10	0.13	0.750			
0.5891	37703.27	3.7370	3.7371	2.3264	6.08	0.11	0.750			
0.5963	38160.76	3.7340	3.7340	2.3770	6.06	0.09	0.750			
0.6035	38625.96	3.7310	3.7308	2.3840	6.03	0.06	0.750			
0.6106	39081.17	3.7280	3.7280	2.3823	6.02	0.05	0.750			
0.6179	39546.28	3.7250	3.7249	2.2487	6.01	0.04	0.750			
0.6244	39962.57	3.7220	3.7222	2.1281	6.00	0.03	0.750			
0.6305	40350.15	3.7190	3.7189	1.9405	5.99	0.02	0.750			
0.6360	40706.31	3.7160	3.7160	1.7956	5.98	0.01	0.750			
0.6413	41040.69	3.7130	3.7129	1.6566	5.97	0.00	0.750			
0.6461	41352.45	3.7100	3.7101	1.5370	5.96	-0.01	0.750			
0.6505	41632.52	3.7070	3.7072	1.3972	5.96	-0.01	0.750			
0.6544	41880.99	3.7040	3.7038	1.2658	5.95	-0.02	0.750			
0.6580	42110.79	3.7010	3.7011	1.1619	5.95	-0.02	0.750			
0.6612	42314.35	3.6980	3.6980	1.0774	5.95	-0.02	0.750			
0.6643	42512.12	3.6950	3.6950	1.0185	5.95	-0.02	0.750			
0.6672	42697.69	3.6920	3.6920	0.9648	5.95	-0.02	0.750			
0.6700	42878.94	3.6890	3.6890	0.9286	5.95	-0.02	0.750			
0.6727	43054.46	3.6860	3.6860	0.9039	5.95	-0.02	0.750			
0.6754	43223.95	3.6830	3.6830	0.8747	5.94	-0.03	0.750			
0.6780	43389.41	3.6800	3.6800	0.8480	5.94	-0.03	0.750			
0.6805	43549.80	3.6770	3.6771	0.8191	5.94	-0.03	0.750			
0.6829	43705.73	3.6740	3.6740	0.7956	5.94	-0.03	0.750			
0.6853	43856.05	3.6710	3.6710	0.7657	5.94	-0.03	0.750			
0.6875	43999.80	3.6680	3.6680	0.7368	5.95	-0.02	0.750			
0.6896	44137.37	3.6650	3.6650	0.7084	5.95	-0.02	0.750			
0.6917	44271.07	3.6620	3.6619	0.6822	5.95	-0.02	0.750			
0.6938	44400.08	3.6590	3.6590	0.6544	5.95	-0.02	0.750			
0.6957	44524.13	3.6560	3.6560	0.6239	5.96	-0.01	0.750			
0.6975	44641.19	3.6530	3.6530	0.5927	5.96	-0.01	0.750			
0.6993	44752.87	3.6500	3.6500	0.5602	5.96	-0.01	0.750			
0.7009	44855.81	3.6470	3.6471	0.5268	5.96	-0.01	0.750			
0.7024	44953.41	3.6440	3.6440	0.4950	5.97	-0.00	0.750			
0.7038	45045.52	3.6410	3.6410	0.4638	5.97	-0.00	0.750			
0.7052	45131.99	3.6380	3.6380	0.4319	5.97	0.00	0.750			
0.7064	45212.70	3.6350	3.6350	0.4012	5.97	0.00	0.750			
0.7076	45286.52	3.6320	3.6320	0.3658	5.97	0.00	0.750			
0.7087	45354.29	3.6290	3.6290	0.3304	5.98	0.01	0.750			
0.7096	45415.64	3.6260	3.6259	0.2884	5.98	0.01	0.750			
0.7104	45467.86	3.6230	3.6230	0.2494	5.98	0.01	0.750			
0.7111	45512.13	3.6200	3.6200	0.2066	5.98	0.01	0.750			
0.7117	45549.30	3.6170	3.6170	0.1640	5.98	0.01	0.750			
0.7121	45576.17	3.6140	3.6140	0.1161	5.98	0.01	0.750			
0.7124	45593.70	3.6110	3.6113	0.0685	5.98	0.01	0.750			
0.7125	45601.84	3.6050	3.6077	-0.0321	5.98	0.01	0.750			
0.7125	45603.20	3.6080	3.6057	0.0179	5.98	0.01	0.750			
