Ah_balance (normalized)	Ah_balance (mAh)	Voltage - fit (V)	Voltage -  interpolate (V)	dQ/dV (1/V)	Temperature (°C)	Temperature - diff (°C)	Current (C)	R_DC 0ms (mOhm)	R_DC 50ms (mOhm)	R_DC 50 ms PEC (mOhm)
0.1783	11412.38	4.0820	4.0820	0.7492	7.56	1.56	0.750			
0.1806	11558.29	4.0790	4.0791	0.7642	7.55	1.55	0.750			
0.1829	11706.39	4.0760	4.0760	0.7698	7.55	1.55	0.750			
0.1852	11854.67	4.0730	4.0729	0.7715	7.54	1.54	0.750			
0.1875	12002.46	4.0700	4.0700	0.7747	7.54	1.54	0.750			
0.1899	12150.97	4.0670	4.0671	0.7790	7.54	1.54	0.750			
0.1922	12302.87	4.0640	4.0639	0.7768	7.53	1.53	0.750			
0.1945	12450.45	4.0610	4.0609	0.7787	7.53	1.53	0.750			
0.1969	12599.09	4.0580	4.0581	0.7833	7.53	1.53	0.750			
0.1992	12749.96	4.0550	4.0550	0.7849	7.52	1.52	0.750			
0.2016	12901.53	4.0520	4.0519	0.7867	7.52	1.52	0.750			
0.2040	13052.93	4.0490	4.0491	0.7871	7.51	1.51	0.750			
0.2063	13204.02	4.0460	4.0460	0.7899	7.51	1.51	0.750			
0.2087	13356.70	4.0430	4.0430	0.7968	7.50	1.50	0.750			
0.2111	13508.96	4.0400	4.0400	0.7958	7.50	1.50	0.750			
0.2135	13661.15	4.0370	4.0369	0.7995	7.49	1.49	0.750			
0.2159	13816.39	4.0340	4.0341	0.8049	7.49	1.49	0.750			
0.2183	13971.62	4.0310	4.0310	0.8063	7.48	1.48	0.750			
0.2207	14126.08	4.0280	4.0280	0.8078	7.48	1.48	0.750			
0.2231	14280.08	4.0250	4.0251	0.8106	7.47	1.47	0.750			
0.2256	14435.47	4.0220	4.0218	0.8182	7.47	1.47	0.750			
0.2280	14593.58	4.0190	4.0190	0.8263	7.47	1.47	0.750			
0.2305	14753.75	4.0160	4.0159	0.8243	7.46	1.46	0.750			
0.2330	14913.76	4.0130	4.0131	0.8314	7.46	1.46	0.750			
0.2355	15073.09	4.0100	4.0100	0.8275	7.45	1.45	0.750			
0.2380	15231.94	4.0070	4.0066	0.8302	7.45	1.45	0.750			
0.2404	15386.36	4.0040	4.0041	0.8477	7.44	1.44	0.750			
0.2430	15550.41	4.0010	4.0009	0.8693	7.43	1.43	0.750			
0.2457	15722.29	3.9980	3.9978	0.8884	7.43	1.43	0.750			
0.2484	15899.15	3.9950	3.9951	0.8956	7.42	1.42	0.750			
0.2512	16074.03	3.9920	3.9921	0.8966	7.41	1.41	0.750			
0.2539	16248.76	3.9890	3.9890	0.8881	7.40	1.40	0.750			
0.2565	16415.86	3.9860	3.9860	0.8750	7.40	1.40	0.750			
0.2590	16577.28	3.9830	3.9831	0.8662	7.39	1.39	0.750			
0.2616	16743.74	3.9800	3.9800	0.8683	7.38	1.38	0.750			
0.2642	16910.92	3.9770	3.9771	0.8722	7.38	1.38	0.750			
0.2668	17078.30	3.9740	3.9740	0.8750	7.37	1.37	0.750			
0.2695	17247.45	3.9710	3.9710	0.8783	7.37	1.37	0.750			
0.2721	17416.72	3.9680	3.9680	0.8827	7.36	1.36	0.750			
0.2748	17584.48	3.9650	3.9650	0.8867	7.35	1.35	0.750			
0.2774	17756.18	3.9620	3.9619	0.8932	7.35	1.35	0.750			
0.2801	17927.61	3.9590	3.9590	0.8969	7.34	1.34	0.750			
0.2828	18099.91	3.9560	3.9560	0.9050	7.34	1.34	0.750			
0.2855	18274.74	3.9530	3.9531	0.9122	7.33	1.33	0.750			
0.2883	18451.34	3.9500	3.9498	0.9150	7.33	1.33	0.750			
0.2911	18628.32	3.9470	3.9470	0.9114	7.32	1.32	0.750			
0.2938	18802.27	3.9440	3.9441	0.9210	7.31	1.31	0.750			
0.2966	18979.56	3.9410	3.9410	0.9306	7.30	1.30	0.750			
0.2993	19156.78	3.9380	3.9380	0.9347	7.29	1.29	0.750			
0.3022	19338.02	3.9350	3.9351	0.9419	7.29	1.29	0.750			
0.3050	19520.44	3.9320	3.9321	0.9440	7.28	1.28	0.750			
0.3078	19702.15	3.9290	3.9290	0.9509	7.27	1.27	0.750			
0.3107	19884.28	3.9260	3.9261	0.9614	7.26	1.26	0.750			
0.3135	20066.81	3.9230	3.9228	0.9651	7.25	1.25	0.750			
0.3165	20253.23	3.9200	3.9200	0.9739	7.24	1.24	0.750			
0.3194	20442.35	3.9170	3.9171	0.9878	7.23	1.23	0.750			
0.3224	20635.58	3.9140	3.9140	1.0010	7.22	1.22	0.750			
0.3254	20827.37	3.9110	3.9109	1.0044	7.21	1.21	0.750			
0.3284	21020.61	3.9080	3.9080	1.0091	7.20	1.20	0.750			
0.3315	21214.66	3.9050	3.9050	1.0176	7.19	1.19	0.750			
0.3345	21410.91	3.9020	3.9020	1.0304	7.18	1.18	0.750			
0.3377	21609.61	3.8990	3.8989	1.0427	7.17	1.17	0.750			
0.3408	21810.34	3.8960	3.8961	1.0493	7.16	1.16	0.750			
0.3440	22013.03	3.8930	3.8930	1.0614	7.16	1.16	0.750			
0.3472	22218.17	3.8900	3.8901	1.0768	7.15	1.15	0.750			
0.3504	22427.71	3.8870	3.8869	1.0871	7.14	1.14	0.750			
0.3537	22635.15	3.8840	3.8840	1.0868	7.13	1.13	0.750			
0.3569	22842.18	3.8810	3.8811	1.1001	7.12	1.12	0.750			
0.3602	23052.15	3.8780	3.8781	1.1216	7.11	1.11	0.750			
0.3636	23270.71	3.8750	3.8747	1.1393	7.10	1.10	0.750			
0.3670	23489.91	3.8720	3.8721	1.1581	7.08	1.08	0.750			
0.3705	23715.10	3.8690	3.8692	1.1784	7.07	1.07	0.750			
0.3742	23948.99	3.8660	3.8659	1.1994	7.06	1.06	0.750			
0.3778	24179.08	3.8630	3.8630	1.2045	7.05	1.05	0.750			
0.3814	24410.08	3.8600	3.8600	1.2138	7.04	1.04	0.750			
0.3851	24644.25	3.8570	3.8570	1.2272	7.03	1.03	0.750			
0.3888	24883.17	3.8540	3.8540	1.2417	7.02	1.02	0.750			
0.3924	25115.68	3.8510	3.8511	1.2752	7.00	1.00	0.750			
0.3963	25361.33	3.8480	3.8481	1.3097	6.99	0.99	0.750			
0.4003	25618.51	3.8450	3.8446	1.3358	6.97	0.97	0.750			
0.4044	25879.89	3.8420	3.8420	1.3681	6.96	0.96	0.750	0.396	0.904	
0.4086	26147.92	3.8390	3.8391	1.3969	6.94	0.94	0.750			
0.4128	26422.03	3.8360	3.8358	1.4130	6.93	0.93	0.750			
0.4170	26688.25	3.8330	3.8331	1.4126	6.92	0.92	0.750			
0.4213	26961.41	3.8300	3.8301	1.4428	6.90	0.90	0.750			
0.4256	27240.96	3.8270	3.8267	1.4589	6.89	0.89	0.750			
0.4301	27524.29	3.8240	3.8240	1.4778	6.88	0.88	0.750			
0.4346	27812.10	3.8210	3.8211	1.5098	6.86	0.86	0.750			
0.4391	28104.72	3.8180	3.8179	1.5394	6.85	0.85	0.750			
0.4437	28399.73	3.8150	3.8150	1.5548	6.82	0.82	0.750			
0.4485	28701.24	3.8120	3.8122	1.5821	6.80	0.80	0.750			
0.4533	29009.90	3.8090	3.8090	1.6226	6.78	0.78	0.750			
0.4581	29320.94	3.8060	3.8060	1.6739	6.77	0.77	0.750			
0.4632	29647.09	3.8030	3.8027	1.7144	6.75	0.75	0.750			
0.4685	29986.23	3.8000	3.8000	1.7436	6.73	0.73	0.750			
0.4738	30322.55	3.7970	3.7971	1.7639	6.72	0.72	0.750			
0.4791	30663.06	3.7940	3.7942	1.7705	6.69	0.69	0.750			
0.4844	31004.15	3.7910	3.7909	1.8038	6.67	0.67	0.750			
0.4898	31349.12	3.7880	3.7881	1.7993	6.64	0.64	0.750			
0.4952	31695.05	3.7850	3.7851	1.8560	6.63	0.63	0.750			
0.5010	32064.89	3.7820	3.7821	1.8761	6.61	0.61	0.750			
0.5066	32425.23	3.7790	3.7789	1.9075	6.59	0.59	0.750			
0.5124	32794.00	3.7760	3.7759	1.9004	6.56	0.56	0.750			
0.5181	33155.35	3.7730	3.7728	1.9302	6.54	0.54	0.750			
0.5238	33524.63	3.7700	3.7701	1.9066	6.52	0.52	0.750			
0.5297	33898.38	3.7670	3.7669	1.9614	6.49	0.49	0.750			
0.5355	34274.69	3.7640	3.7637	1.9737	6.47	0.47	0.750			
0.5416	34659.51	3.7610	3.7612	1.9828	6.45	0.45	0.750			
0.5474	35034.84	3.7580	3.7584	2.0061	6.42	0.42	0.750			
0.5535	35426.01	3.7550	3.7550	2.0510	6.40	0.40	0.750			
0.5598	35824.59	3.7520	3.7520	2.1001	6.38	0.38	0.750			
0.5662	36235.29	3.7490	3.7490	2.1838	6.36	0.36	0.750			
0.5728	36658.61	3.7460	3.7460	2.2214	6.34	0.34	0.750			
0.5794	37084.51	3.7430	3.7431	2.2825	6.31	0.31	0.750			
0.5864	37532.48	3.7400	3.7399	2.3222	6.28	0.28	0.750			
0.5935	37982.02	3.7370	3.7371	2.3711	6.25	0.25	0.750			
0.6007	38446.44	3.7340	3.7338	2.4247	6.23	0.23	0.750			
0.6080	38909.16	3.7310	3.7310	2.4361	6.21	0.21	0.750			
0.6155	39389.52	3.7280	3.7280	2.4865	6.18	0.18	0.750			
0.6230	39869.26	3.7250	3.7250	2.4711	6.14	0.14	0.750			
0.6305	40350.06	3.7220	3.7219	2.3697	6.12	0.12	0.750			
0.6375	40803.16	3.7190	3.7186	2.2201	6.10	0.10	0.750			
0.6438	41205.25	3.7160	3.7158	2.0308	6.09	0.09	0.750			
0.6496	41575.08	3.7130	3.7131	1.8125	6.07	0.07	0.750			
0.6548	41906.96	3.7100	3.7103	1.6431	6.06	0.06	0.750			
0.6595	42205.24	3.7070	3.7070	1.4777	6.04	0.04	0.750			
0.6635	42466.55	3.7040	3.7041	1.3171	6.03	0.03	0.750			
0.6673	42704.11	3.7010	3.7009	1.1932	6.02	0.02	0.750			
0.6705	42909.14	3.6980	3.6981	1.0892	6.02	0.02	0.750			
0.6735	43105.49	3.6950	3.6950	1.0159	6.01	0.01	0.750			
0.6764	43289.52	3.6920	3.6920	0.9561	6.01	0.01	0.750			
0.6792	43466.23	3.6890	3.6890	0.9128	6.00	0.00	0.750			
0.6818	43637.17	3.6860	3.6860	0.8802	6.00	0.00	0.750			
0.6844	43803.26	3.6830	3.6830	0.8482	6.00	-0.00	0.750			
0.6869	43962.76	3.6800	3.6800	0.8136	5.99	-0.01	0.750			
0.6893	44116.20	3.6770	3.6770	0.7818	5.99	-0.01	0.750			
0.6916	44264.51	3.6740	3.6741	0.7467	5.99	-0.01	0.750			
0.6938	44406.10	3.6710	3.6710	0.7100	5.99	-0.01	0.750			
0.6959	44538.47	3.6680	3.6680	0.6709	5.99	-0.01	0.750			
0.6979	44663.07	3.6650	3.6650	0.6328	5.99	-0.01	0.750			
0.6997	44780.07	3.6620	3.6621	0.5938	5.99	-0.01	0.750			
0.7014	44889.96	3.6590	3.6590	0.5578	5.99	-0.01	0.750			
0.7030	44993.60	3.6560	3.6560	0.5240	5.99	-0.01	0.750			
0.7046	45091.71	3.6530	3.6530	0.4893	5.99	-0.01	0.750			
0.7060	45182.14	3.6500	3.6501	0.4517	5.99	-0.01	0.750			
0.7073	45265.53	3.6470	3.6470	0.4163	6.00	-0.00	0.750			
0.7085	45341.96	3.6440	3.6440	0.3813	6.00	-0.00	0.750			
0.7096	45411.23	3.6410	3.6410	0.3472	6.00	-0.00	0.750			
0.7105	45474.27	3.6380	3.6380	0.3122	6.00	-0.00	0.750			
0.7114	45531.09	3.6350	3.6350	0.2785	6.00	-0.00	0.750			
0.7122	45583.15	3.6320	3.6320	0.2430	6.00	-0.00	0.750			
0.7129	45627.19	3.6290	3.6289	0.2081	6.00	-0.00	0.750			
0.7135	45663.34	3.6260	3.6261	0.1685	6.00	0.00	0.750			
0.7139	45692.77	3.6230	3.6231	0.1292	6.00	0.00	0.750			
0.7143	45713.60	3.6200	3.6206	0.0879	6.00	0.00	0.750			
0.7145	45726.53	3.6170	3.6179	0.0467	6.00	0.00	0.750			
0.7146	45731.43	3.6140	3.6161	-0.0080	6.00	0.00	0.750			
