Ah_balance (normalized)	Ah_balance (mAh)	Voltage - fit (V)	Voltage -  interpolate (V)	dQ/dV (1/V)	Temperature (°C)	Temperature - diff (°C)	Current (C)	R_DC 0ms (mOhm)	R_DC 50ms (mOhm)	R_DC 50 ms PEC (mOhm)
0.0940	6017.89	4.0090	4.0086	-0.0736	5.77	0.00	-0.750			
0.0943	6034.94	4.0060	4.0058	-0.1040	5.77	0.00	-0.750			
0.0947	6058.15	4.0030	4.0029	-0.1337	5.77	0.00	-0.750			
0.0951	6087.65	4.0000	4.0000	-0.1590	5.77	0.00	-0.750			
0.0956	6120.73	3.9970	3.9971	-0.1841	5.77	0.00	-0.750			
0.0962	6158.61	3.9940	3.9940	-0.2075	5.77	0.00	-0.750			
0.0969	6201.80	3.9910	3.9911	-0.2314	5.77	-0.00	-0.750			
0.0976	6248.12	3.9880	3.9880	-0.2542	5.77	-0.00	-0.750			
0.0984	6299.08	3.9850	3.9850	-0.2763	5.77	-0.00	-0.750			
0.0993	6353.94	3.9820	3.9821	-0.3003	5.77	-0.00	-0.750			
0.1002	6414.15	3.9790	3.9790	-0.3249	5.76	-0.01	-0.750			
0.1012	6478.47	3.9760	3.9760	-0.3489	5.76	-0.01	-0.750			
0.1023	6548.08	3.9730	3.9730	-0.3734	5.76	-0.01	-0.750			
0.1035	6621.87	3.9700	3.9700	-0.3984	5.76	-0.01	-0.750			
0.1047	6701.12	3.9670	3.9670	-0.4215	5.76	-0.01	-0.750			
0.1060	6784.49	3.9640	3.9640	-0.4469	5.76	-0.01	-0.750			
0.1074	6872.08	3.9610	3.9610	-0.4706	5.75	-0.02	-0.750			
0.1088	6965.30	3.9580	3.9580	-0.4938	5.75	-0.02	-0.750			
0.1104	7062.51	3.9550	3.9549	-0.5142	5.75	-0.02	-0.750			
0.1119	7163.54	3.9520	3.9520	-0.5357	5.75	-0.02	-0.750			
0.1136	7268.30	3.9490	3.9491	-0.5559	5.74	-0.03	-0.750			
0.1153	7376.83	3.9460	3.9459	-0.5781	5.74	-0.03	-0.750			
0.1170	7490.33	3.9430	3.9430	-0.5940	5.74	-0.03	-0.750			
0.1189	7606.89	3.9400	3.9400	-0.6107	5.73	-0.04	-0.750			
0.1207	7726.84	3.9370	3.9370	-0.6274	5.73	-0.04	-0.750			
0.1226	7849.38	3.9340	3.9340	-0.6376	5.73	-0.04	-0.750			
0.1246	7971.24	3.9310	3.9310	-0.6507	5.73	-0.04	-0.750			
0.1265	8096.50	3.9280	3.9280	-0.6659	5.73	-0.04	-0.750			
0.1285	8226.49	3.9250	3.9250	-0.6750	5.73	-0.04	-0.750			
0.1306	8358.33	3.9220	3.9220	-0.6887	5.73	-0.04	-0.750			
0.1327	8492.63	3.9190	3.9190	-0.6982	5.73	-0.04	-0.750			
0.1348	8627.37	3.9160	3.9161	-0.7072	5.73	-0.04	-0.750			
0.1370	8768.03	3.9130	3.9128	-0.6999	5.73	-0.04	-0.750			
0.1391	8900.82	3.9100	3.9100	-0.6922	5.73	-0.04	-0.750			
0.1411	9032.52	3.9070	3.9072	-0.6888	5.73	-0.04	-0.750			
0.1432	9162.91	3.9040	3.9040	-0.6957	5.73	-0.04	-0.750			
0.1452	9293.04	3.9010	3.9008	-0.6984	5.73	-0.04	-0.750			
0.1473	9427.71	3.8980	3.8980	-0.7104	5.73	-0.04	-0.750			
0.1495	9564.87	3.8950	3.8950	-0.7264	5.73	-0.04	-0.750			
0.1517	9709.41	3.8920	3.8920	-0.7517	5.73	-0.04	-0.750			
0.1540	9854.85	3.8890	3.8890	-0.7577	5.73	-0.04	-0.750			
0.1563	10002.11	3.8860	3.8859	-0.7620	5.73	-0.04	-0.750			
0.1586	10149.97	3.8830	3.8830	-0.7628	5.73	-0.04	-0.750			
0.1609	10297.92	3.8800	3.8801	-0.7642	5.73	-0.04	-0.750			
0.1632	10443.63	3.8770	3.8770	-0.7682	5.73	-0.04	-0.750			
0.1655	10589.79	3.8740	3.8740	-0.7666	5.73	-0.04	-0.750			
0.1677	10735.80	3.8710	3.8710	-0.7694	5.73	-0.04	-0.750			
0.1701	10884.45	3.8680	3.8679	-0.7789	5.73	-0.04	-0.750			
0.1724	11035.13	3.8650	3.8651	-0.7832	5.73	-0.04	-0.750			
0.1748	11186.52	3.8620	3.8620	-0.7884	5.74	-0.03	-0.750			
0.1772	11337.87	3.8590	3.8590	-0.7901	5.75	-0.02	-0.750			
0.1795	11490.52	3.8560	3.8561	-0.7860	5.76	-0.01	-0.750			
0.1819	11642.86	3.8530	3.8529	-0.7883	5.76	-0.01	-0.750			
0.1843	11792.91	3.8500	3.8504	-0.7862	5.77	0.00	-0.750			
0.1866	11943.28	3.8470	3.8470	-0.7857	5.77	0.00	-0.750			
0.1890	12093.32	3.8440	3.8440	-0.7916	5.78	0.01	-0.750			
0.1913	12245.49	3.8410	3.8410	-0.7943	5.78	0.01	-0.750			
0.1937	12398.37	3.8380	3.8380	-0.7959	5.79	0.02	-0.750			
0.1961	12552.93	3.8350	3.8350	-0.7971	5.79	0.02	-0.750			
0.1985	12705.67	3.8320	3.8320	-0.7965	5.79	0.02	-0.750			
0.2009	12857.48	3.8290	3.8290	-0.8034	5.80	0.03	-0.750			
0.2033	13011.55	3.8260	3.8260	-0.8033	5.80	0.03	-0.750			
0.2057	13166.16	3.8230	3.8228	-0.8040	5.80	0.03	-0.750			
0.2082	13322.80	3.8200	3.8201	-0.8082	5.81	0.04	-0.750			
0.2106	13478.78	3.8170	3.8170	-0.8080	5.81	0.04	-0.750			
0.2130	13634.28	3.8140	3.8140	-0.8081	5.82	0.05	-0.750			
0.2154	13788.59	3.8110	3.8110	-0.8037	5.83	0.06	-0.750			
0.2178	13939.68	3.8080	3.8080	-0.7980	5.83	0.06	-0.750			
0.2202	14094.92	3.8050	3.8049	-0.8031	5.84	0.07	-0.750			
0.2226	14248.77	3.8020	3.8021	-0.8019	5.84	0.07	-0.750			
0.2251	14403.24	3.7990	3.7989	-0.8021	5.85	0.08	-0.750			
0.2275	14556.89	3.7960	3.7960	-0.8007	5.86	0.09	-0.750			
0.2298	14709.47	3.7930	3.7930	-0.8002	5.87	0.10	-0.750			
0.2322	14863.37	3.7900	3.7900	-0.8064	5.88	0.11	-0.750			
0.2347	15018.25	3.7870	3.7870	-0.8086	5.89	0.12	-0.750			
0.2371	15173.99	3.7840	3.7840	-0.8127	5.89	0.12	-0.750			
0.2396	15332.01	3.7810	3.7810	-0.8191	5.90	0.13	-0.750			
0.2420	15491.00	3.7780	3.7780	-0.8178	5.90	0.13	-0.750			
0.2445	15648.73	3.7750	3.7750	-0.8179	5.91	0.14	-0.750			
0.2470	15805.28	3.7720	3.7722	-0.8150	5.91	0.14	-0.750			
0.2494	15961.10	3.7690	3.7689	-0.8094	5.92	0.15	-0.750			
0.2518	16115.51	3.7660	3.7660	-0.8147	5.93	0.16	-0.750			
0.2542	16270.55	3.7630	3.7630	-0.8135	5.93	0.16	-0.750			
0.2567	16429.27	3.7600	3.7599	-0.8201	5.94	0.17	-0.750			
0.2592	16587.11	3.7570	3.7572	-0.8137	5.95	0.18	-0.750			
0.2616	16743.06	3.7540	3.7540	-0.8123	5.95	0.18	-0.750			
0.2640	16898.20	3.7510	3.7511	-0.8184	5.96	0.19	-0.750			
0.2665	17054.64	3.7480	3.7479	-0.8191	5.96	0.19	-0.750			
0.2689	17212.50	3.7450	3.7448	-0.8178	5.97	0.20	-0.750			
0.2714	17370.17	3.7420	3.7422	-0.8191	5.97	0.20	-0.750			
0.2739	17527.80	3.7390	3.7390	-0.8231	5.98	0.21	-0.750			
0.2763	17686.00	3.7360	3.7360	-0.8311	5.99	0.22	-0.750			
0.2788	17844.66	3.7330	3.7329	-0.8262	5.99	0.22	-0.750			
0.2813	18002.97	3.7300	3.7299	-0.8275	6.00	0.23	-0.750			
0.2838	18164.15	3.7270	3.7273	-0.8339	6.01	0.24	-0.750			
0.2863	18325.13	3.7240	3.7239	-0.8348	6.02	0.25	-0.750			
0.2888	18485.07	3.7210	3.7209	-0.8380	6.02	0.25	-0.750			
0.2913	18645.34	3.7180	3.7180	-0.8393	6.03	0.26	-0.750			
0.2938	18804.53	3.7150	3.7150	-0.8423	6.03	0.26	-0.750			
0.2964	18970.05	3.7120	3.7121	-0.8531	6.04	0.27	-0.750			
0.2990	19133.01	3.7090	3.7090	-0.8580	6.05	0.28	-0.750			
0.3015	19298.00	3.7060	3.7060	-0.8640	6.05	0.28	-0.750			
0.3041	19464.68	3.7030	3.7030	-0.8714	6.06	0.29	-0.750			
0.3067	19631.33	3.7000	3.7000	-0.8778	6.06	0.29	-0.750			
0.3094	19802.36	3.6970	3.6971	-0.8865	6.07	0.30	-0.750			
0.3121	19972.77	3.6940	3.6940	-0.9001	6.07	0.30	-0.750			
0.3148	20147.18	3.6910	3.6910	-0.9095	6.08	0.31	-0.750			
0.3175	20323.14	3.6880	3.6879	-0.9172	6.08	0.31	-0.750			
0.3203	20501.70	3.6850	3.6850	-0.9226	6.09	0.32	-0.750			
0.3231	20678.86	3.6820	3.6819	-0.9288	6.09	0.32	-0.750			
0.3259	20857.41	3.6790	3.6790	-0.9389	6.09	0.32	-0.750			
0.3287	21037.79	3.6760	3.6760	-0.9476	6.10	0.33	-0.750			
0.3315	21217.78	3.6730	3.6730	-0.9521	6.10	0.33	-0.750			
0.3345	21405.69	3.6700	3.6701	-0.9692	6.10	0.33	-0.750			
0.3374	21591.59	3.6670	3.6670	-0.9820	6.11	0.34	-0.750			
0.3403	21782.15	3.6640	3.6640	-0.9903	6.11	0.34	-0.750			
0.3433	21971.39	3.6610	3.6610	-1.0013	6.12	0.35	-0.750			
0.3463	22166.05	3.6580	3.6581	-1.0165	6.13	0.36	-0.750			
0.3494	22362.92	3.6550	3.6550	-1.0320	6.13	0.36	-0.750			
0.3526	22563.72	3.6520	3.6519	-1.0449	6.13	0.36	-0.750			
0.3557	22765.12	3.6490	3.6490	-1.0567	6.13	0.36	-0.750			
0.3589	22967.10	3.6460	3.6464	-1.0700	6.13	0.36	-0.750			
0.3621	23177.06	3.6430	3.6429	-1.0819	6.13	0.36	-0.750			
0.3654	23383.90	3.6400	3.6399	-1.0929	6.14	0.37	-0.750			
0.3687	23593.73	3.6370	3.6370	-1.1054	6.15	0.38	-0.750			
0.3720	23807.51	3.6340	3.6342	-1.1354	6.15	0.38	-0.750			
0.3754	24026.88	3.6310	3.6310	-1.1454	6.15	0.38	-0.750			
0.3789	24249.09	3.6280	3.6279	-1.1585	6.15	0.38	-0.750			
0.3824	24473.50	3.6250	3.6249	-1.1683	6.15	0.38	-0.750			
0.3860	24700.86	3.6220	3.6220	-1.1905	6.15	0.38	-0.750			
0.3895	24929.05	3.6190	3.6190	-1.1936	6.16	0.39	-0.750			
0.3931	25158.74	3.6160	3.6158	-1.2028	6.16	0.39	-0.750			
0.3967	25386.59	3.6130	3.6134	-1.2202	6.17	0.40	-0.750			
0.4004	25625.80	3.6100	3.6098	-1.2473	6.18	0.41	-0.750			
0.4042	25867.53	3.6070	3.6070	-1.2699	6.18	0.41	-0.750			
0.4080	26112.36	3.6040	3.6040	-1.2974	6.19	0.42	-0.750			
0.4120	26367.51	3.6010	3.6010	-1.3133	6.19	0.42	-0.750	0.490	1.144	
0.4160	26622.77	3.5980	3.5981	-1.3220	6.19	0.42	-0.750			
0.4199	26874.57	3.5950	3.5950	-1.3383	6.19	0.42	-0.750			
0.4239	27131.80	3.5920	3.5919	-1.3422	6.19	0.42	-0.750			
0.4280	27391.85	3.5890	3.5889	-1.3523	6.20	0.43	-0.750			
0.4320	27647.86	3.5860	3.5860	-1.3865	6.21	0.44	-0.750			
0.4362	27919.13	3.5830	3.5829	-1.3959	6.21	0.44	-0.750			
0.4405	28192.73	3.5800	3.5798	-1.4150	6.21	0.44	-0.750			
0.4448	28465.61	3.5770	3.5772	-1.4329	6.21	0.44	-0.750			
0.4491	28741.28	3.5740	3.5740	-1.4404	6.21	0.44	-0.750			
0.4535	29022.37	3.5710	3.5708	-1.4565	6.22	0.45	-0.750			
0.4578	29301.88	3.5680	3.5678	-1.4595	6.22	0.45	-0.750			
0.4622	29580.01	3.5650	3.5650	-1.4702	6.22	0.45	-0.750			
0.4667	29865.99	3.5620	3.5619	-1.4909	6.22	0.45	-0.750			
0.4711	30153.59	3.5590	3.5591	-1.5046	6.22	0.45	-0.750			
0.4756	30438.79	3.5560	3.5559	-1.5175	6.22	0.45	-0.750			
0.4802	30734.41	3.5530	3.5530	-1.5531	6.23	0.46	-0.750			
0.4849	31034.39	3.5500	3.5502	-1.5790	6.23	0.46	-0.750			
0.4897	31341.32	3.5470	3.5467	-1.5928	6.23	0.46	-0.750			
0.4945	31651.03	3.5440	3.5441	-1.6190	6.23	0.46	-0.750			
0.4995	31965.66	3.5410	3.5409	-1.6375	6.23	0.46	-0.750			
0.5045	32286.93	3.5380	3.5379	-1.6629	6.23	0.46	-0.750			
0.5094	32601.22	3.5350	3.5353	-1.6518	6.23	0.46	-0.750			
0.5144	32920.77	3.5320	3.5321	-1.6838	6.23	0.46	-0.750			
0.5195	33248.25	3.5290	3.5290	-1.6855	6.23	0.46	-0.750			
0.5246	33577.23	3.5260	3.5258	-1.6896	6.23	0.46	-0.750			
0.5297	33901.55	3.5230	3.5232	-1.6939	6.23	0.46	-0.750			
0.5348	34225.23	3.5200	3.5201	-1.7075	6.23	0.46	-0.750			
0.5399	34552.88	3.5170	3.5171	-1.7053	6.24	0.47	-0.750			
0.5450	34877.39	3.5140	3.5139	-1.7087	6.25	0.48	-0.750			
0.5501	35206.85	3.5110	3.5109	-1.7156	6.25	0.48	-0.750			
0.5554	35543.97	3.5080	3.5077	-1.7208	6.25	0.48	-0.750			
0.5605	35874.06	3.5050	3.5051	-1.7187	6.25	0.48	-0.750			
0.5657	36205.38	3.5020	3.5021	-1.7099	6.26	0.49	-0.750			
0.5709	36537.38	3.4990	3.4987	-1.7094	6.27	0.50	-0.750			
0.5759	36859.69	3.4960	3.4961	-1.6838	6.27	0.50	-0.750			
0.5810	37185.50	3.4930	3.4931	-1.6831	6.28	0.51	-0.750			
0.5861	37509.86	3.4900	3.4900	-1.6633	6.28	0.51	-0.750			
0.5910	37825.23	3.4870	3.4869	-1.6586	6.29	0.52	-0.750			
0.5960	38145.36	3.4840	3.4841	-1.6436	6.30	0.53	-0.750			
0.6009	38458.49	3.4810	3.4808	-1.6362	6.30	0.53	-0.750			
0.6057	38767.42	3.4780	3.4782	-1.6350	6.31	0.54	-0.750			
0.6107	39083.93	3.4750	3.4750	-1.6021	6.31	0.54	-0.750			
0.6154	39388.56	3.4720	3.4718	-1.5903	6.32	0.55	-0.750			
0.6203	39696.76	3.4690	3.4690	-1.5798	6.33	0.56	-0.750			
0.6250	39998.15	3.4660	3.4658	-1.5490	6.34	0.57	-0.750			
0.6296	40296.73	3.4630	3.4631	-1.5285	6.35	0.58	-0.750			
0.6341	40582.85	3.4600	3.4604	-1.4955	6.36	0.59	-0.750			
0.6386	40869.46	3.4570	3.4569	-1.4848	6.37	0.60	-0.750			
0.6430	41149.23	3.4540	3.4539	-1.4587	6.38	0.61	-0.750			
0.6473	41424.66	3.4510	3.4510	-1.4371	6.39	0.62	-0.750			
0.6516	41705.56	3.4480	3.4479	-1.4247	6.41	0.64	-0.750			
0.6559	41978.32	3.4450	3.4450	-1.3895	6.42	0.65	-0.750			
0.6600	42241.59	3.4420	3.4421	-1.3706	6.43	0.66	-0.750			
0.6641	42501.13	3.4390	3.4389	-1.3402	6.44	0.67	-0.750			
0.6681	42755.77	3.4360	3.4359	-1.3124	6.44	0.67	-0.750			
0.6719	43004.04	3.4330	3.4333	-1.2832	6.45	0.68	-0.750			
0.6758	43252.25	3.4300	3.4300	-1.2650	6.46	0.69	-0.750			
0.6795	43490.55	3.4270	3.4270	-1.2328	6.48	0.71	-0.750			
0.6832	43724.00	3.4240	3.4240	-1.2021	6.49	0.72	-0.750			
0.6867	43950.82	3.4210	3.4209	-1.1774	6.50	0.73	-0.750			
0.6902	44175.23	3.4180	3.4180	-1.1469	6.51	0.74	-0.750			
0.6936	44393.34	3.4150	3.4150	-1.1149	6.52	0.75	-0.750			
0.6969	44602.29	3.4120	3.4121	-1.0897	6.53	0.76	-0.750			
0.7002	44809.67	3.4090	3.4090	-1.0610	6.54	0.77	-0.750			
0.7033	45010.68	3.4060	3.4059	-1.0319	6.56	0.79	-0.750			
0.7063	45205.54	3.4030	3.4029	-1.0040	6.57	0.80	-0.750			
0.7093	45396.06	3.4000	3.4002	-0.9777	6.58	0.81	-0.750			
0.7122	45581.43	3.3970	3.3970	-0.9550	6.59	0.82	-0.750			
0.7151	45763.88	3.3940	3.3939	-0.9255	6.60	0.83	-0.750			
0.7178	45937.70	3.3910	3.3910	-0.8916	6.61	0.84	-0.750			
0.7204	46105.69	3.3880	3.3880	-0.8694	6.63	0.86	-0.750			
0.7230	46269.51	3.3850	3.3851	-0.8410	6.64	0.87	-0.750			
0.7254	46427.57	3.3820	3.3819	-0.8156	6.65	0.88	-0.750			
0.7278	46581.37	3.3790	3.3789	-0.7931	6.65	0.88	-0.750			
0.7302	46729.80	3.3760	3.3761	-0.7860	6.66	0.89	-0.750			
0.7325	46879.69	3.3730	3.3730	-0.7721	6.67	0.90	-0.750			
