Ah_balance (normalized)	Ah_balance (mAh)	Voltage - fit (V)	Voltage -  interpolate (V)	dQ/dV (1/V)	Temperature (°C)	Temperature - diff (°C)	Current (C)	R_DC 0ms (mOhm)	R_DC 50ms (mOhm)	R_DC 50 ms PEC (mOhm)
0.0940	6015.27	4.0090	4.0082	-0.0675	5.97	0.00	-0.750			
0.0942	6029.85	4.0060	4.0057	-0.0908	5.97	0.00	-0.750			
0.0945	6050.59	4.0030	4.0029	-0.1209	5.97	0.00	-0.750			
0.0950	6077.49	4.0000	3.9998	-0.1481	5.97	0.00	-0.750			
0.0954	6108.52	3.9970	3.9969	-0.1741	5.97	0.00	-0.750			
0.0960	6144.81	3.9940	3.9941	-0.1982	5.97	0.00	-0.750			
0.0967	6186.13	3.9910	3.9910	-0.2234	5.97	0.00	-0.750			
0.0974	6231.05	3.9880	3.9879	-0.2472	5.97	-0.00	-0.750			
0.0981	6281.15	3.9850	3.9850	-0.2688	5.97	-0.00	-0.750			
0.0990	6334.69	3.9820	3.9820	-0.2900	5.97	-0.00	-0.750			
0.0999	6392.42	3.9790	3.9791	-0.3141	5.97	-0.00	-0.750			
0.1009	6454.48	3.9760	3.9760	-0.3386	5.96	-0.01	-0.750			
0.1019	6522.42	3.9730	3.9729	-0.3599	5.96	-0.01	-0.750			
0.1030	6593.59	3.9700	3.9701	-0.3836	5.96	-0.01	-0.750			
0.1042	6668.63	3.9670	3.9671	-0.4097	5.96	-0.01	-0.750			
0.1055	6750.00	3.9640	3.9639	-0.4365	5.96	-0.01	-0.750			
0.1068	6836.92	3.9610	3.9609	-0.4588	5.95	-0.02	-0.750			
0.1082	6927.32	3.9580	3.9580	-0.4801	5.95	-0.02	-0.750			
0.1097	7022.04	3.9550	3.9552	-0.5041	5.95	-0.02	-0.750			
0.1113	7122.23	3.9520	3.9521	-0.5253	5.95	-0.02	-0.750			
0.1129	7224.12	3.9490	3.9489	-0.5441	5.94	-0.03	-0.750			
0.1145	7330.37	3.9460	3.9460	-0.5623	5.94	-0.03	-0.750			
0.1163	7440.62	3.9430	3.9431	-0.5826	5.94	-0.03	-0.750			
0.1181	7555.48	3.9400	3.9399	-0.5982	5.94	-0.03	-0.750			
0.1199	7672.69	3.9370	3.9370	-0.6136	5.93	-0.04	-0.750			
0.1217	7791.88	3.9340	3.9342	-0.6234	5.93	-0.04	-0.750			
0.1236	7913.39	3.9310	3.9309	-0.6379	5.93	-0.04	-0.750			
0.1256	8036.55	3.9280	3.9280	-0.6479	5.92	-0.05	-0.750			
0.1275	8162.27	3.9250	3.9250	-0.6603	5.92	-0.05	-0.750			
0.1295	8290.39	3.9220	3.9221	-0.6686	5.92	-0.05	-0.750			
0.1316	8421.62	3.9190	3.9189	-0.6801	5.91	-0.06	-0.750			
0.1336	8552.47	3.9160	3.9161	-0.6864	5.91	-0.06	-0.750			
0.1357	8685.58	3.9130	3.9128	-0.6936	5.91	-0.06	-0.750			
0.1378	8818.08	3.9100	3.9100	-0.6995	5.92	-0.05	-0.750			
0.1399	8952.54	3.9070	3.9070	-0.7097	5.92	-0.05	-0.750			
0.1420	9090.31	3.9040	3.9040	-0.7171	5.92	-0.05	-0.750			
0.1442	9230.67	3.9010	3.9009	-0.7247	5.93	-0.04	-0.750			
0.1464	9370.36	3.8980	3.8981	-0.7258	5.93	-0.04	-0.750			
0.1486	9510.36	3.8950	3.8950	-0.7243	5.93	-0.04	-0.750			
0.1508	9649.17	3.8920	3.8920	-0.7277	5.93	-0.04	-0.750			
0.1529	9788.20	3.8890	3.8891	-0.7349	5.93	-0.04	-0.750			
0.1551	9927.85	3.8860	3.8858	-0.7368	5.93	-0.04	-0.750			
0.1574	10071.68	3.8830	3.8829	-0.7458	5.93	-0.04	-0.750			
0.1596	10215.33	3.8800	3.8802	-0.7512	5.93	-0.04	-0.750			
0.1619	10361.84	3.8770	3.8769	-0.7574	5.93	-0.04	-0.750			
0.1642	10507.82	3.8740	3.8740	-0.7615	5.93	-0.04	-0.750			
0.1664	10652.50	3.8710	3.8710	-0.7573	5.94	-0.03	-0.750			
0.1688	10800.08	3.8680	3.8680	-0.7627	5.94	-0.03	-0.750			
0.1710	10946.74	3.8650	3.8649	-0.7580	5.94	-0.03	-0.750			
0.1733	11090.73	3.8620	3.8620	-0.7581	5.94	-0.03	-0.750			
0.1755	11234.46	3.8590	3.8590	-0.7637	5.94	-0.03	-0.750			
0.1778	11381.02	3.8560	3.8559	-0.7673	5.94	-0.03	-0.750			
0.1801	11528.11	3.8530	3.8530	-0.7715	5.95	-0.02	-0.750			
0.1825	11677.82	3.8500	3.8500	-0.7791	5.95	-0.02	-0.750			
0.1848	11829.99	3.8470	3.8471	-0.7795	5.95	-0.02	-0.750			
0.1872	11980.99	3.8440	3.8439	-0.7791	5.95	-0.02	-0.750			
0.1895	12129.60	3.8410	3.8411	-0.7772	5.96	-0.01	-0.750			
0.1919	12279.14	3.8380	3.8379	-0.7729	5.96	-0.01	-0.750			
0.1942	12426.95	3.8350	3.8350	-0.7749	5.97	-0.00	-0.750			
0.1965	12575.25	3.8320	3.8320	-0.7728	5.97	-0.00	-0.750			
0.1988	12722.35	3.8290	3.8289	-0.7789	5.97	0.00	-0.750			
0.2011	12872.46	3.8260	3.8260	-0.7902	5.98	0.01	-0.750			
0.2035	13024.73	3.8230	3.8229	-0.7936	5.98	0.01	-0.750			
0.2059	13179.80	3.8200	3.8200	-0.7914	5.98	0.01	-0.750			
0.2084	13335.48	3.8170	3.8170	-0.7941	5.99	0.02	-0.750			
0.2107	13486.86	3.8140	3.8140	-0.7880	5.99	0.02	-0.750			
0.2131	13636.66	3.8110	3.8110	-0.7858	6.00	0.03	-0.750			
0.2154	13785.07	3.8080	3.8079	-0.7795	6.00	0.03	-0.750			
0.2177	13932.02	3.8050	3.8051	-0.7766	6.00	0.03	-0.750			
0.2201	14083.82	3.8020	3.8019	-0.7842	6.01	0.04	-0.750			
0.2224	14235.47	3.7990	3.7992	-0.7836	6.01	0.04	-0.750			
0.2248	14386.06	3.7960	3.7960	-0.7848	6.02	0.05	-0.750			
0.2271	14536.21	3.7930	3.7930	-0.7898	6.03	0.06	-0.750			
0.2295	14689.12	3.7900	3.7899	-0.7908	6.03	0.06	-0.750			
0.2319	14841.16	3.7870	3.7869	-0.7925	6.04	0.07	-0.750			
0.2343	14993.54	3.7840	3.7843	-0.7898	6.05	0.08	-0.750			
0.2367	15145.85	3.7810	3.7809	-0.7893	6.06	0.09	-0.750			
0.2390	15296.48	3.7780	3.7780	-0.7920	6.06	0.09	-0.750			
0.2414	15446.64	3.7750	3.7750	-0.7862	6.07	0.10	-0.750			
0.2437	15598.80	3.7720	3.7720	-0.7908	6.07	0.10	-0.750			
0.2461	15750.26	3.7690	3.7690	-0.7883	6.08	0.11	-0.750			
0.2484	15900.58	3.7660	3.7661	-0.7925	6.08	0.11	-0.750			
0.2508	16052.57	3.7630	3.7629	-0.7995	6.09	0.12	-0.750			
0.2532	16206.13	3.7600	3.7600	-0.7989	6.10	0.13	-0.750			
0.2556	16360.18	3.7570	3.7570	-0.7998	6.10	0.13	-0.750			
0.2581	16516.12	3.7540	3.7540	-0.8042	6.11	0.14	-0.750			
0.2605	16671.34	3.7510	3.7509	-0.7964	6.11	0.14	-0.750			
0.2628	16821.61	3.7480	3.7481	-0.7956	6.12	0.15	-0.750			
0.2652	16972.55	3.7450	3.7450	-0.7917	6.12	0.15	-0.750			
0.2676	17125.11	3.7420	3.7421	-0.7850	6.12	0.15	-0.750			
0.2699	17275.82	3.7390	3.7389	-0.7914	6.13	0.16	-0.750			
0.2723	17425.88	3.7360	3.7363	-0.7998	6.13	0.16	-0.750			
0.2747	17579.50	3.7330	3.7329	-0.8101	6.13	0.16	-0.750			
0.2771	17736.84	3.7300	3.7299	-0.8233	6.14	0.17	-0.750			
0.2796	17896.39	3.7270	3.7270	-0.8219	6.14	0.17	-0.750			
0.2821	18056.60	3.7240	3.7240	-0.8314	6.15	0.18	-0.750			
0.2847	18217.95	3.7210	3.7212	-0.8322	6.15	0.18	-0.750			
0.2871	18374.79	3.7180	3.7177	-0.8312	6.15	0.18	-0.750			
0.2896	18533.85	3.7150	3.7151	-0.8478	6.16	0.19	-0.750			
0.2921	18697.11	3.7120	3.7119	-0.8498	6.16	0.19	-0.750			
0.2948	18864.51	3.7090	3.7088	-0.8636	6.17	0.20	-0.750			
0.2974	19031.89	3.7060	3.7063	-0.8660	6.17	0.20	-0.750			
0.3000	19197.44	3.7030	3.7029	-0.8687	6.17	0.20	-0.750			
0.3026	19364.97	3.7000	3.6999	-0.8797	6.17	0.20	-0.750			
0.3052	19530.85	3.6970	3.6970	-0.8799	6.18	0.21	-0.750			
0.3079	19703.24	3.6940	3.6939	-0.8912	6.18	0.21	-0.750			
0.3106	19875.53	3.6910	3.6911	-0.8992	6.18	0.21	-0.750			
0.3133	20048.93	3.6880	3.6880	-0.9090	6.19	0.22	-0.750			
0.3160	20224.37	3.6850	3.6849	-0.9144	6.20	0.23	-0.750			
0.3187	20398.24	3.6820	3.6820	-0.9161	6.20	0.23	-0.750			
0.3215	20576.04	3.6790	3.6792	-0.9322	6.21	0.24	-0.750			
0.3243	20755.68	3.6760	3.6760	-0.9461	6.21	0.24	-0.750			
0.3272	20938.53	3.6730	3.6730	-0.9592	6.21	0.24	-0.750			
0.3300	21122.56	3.6700	3.6700	-0.9714	6.21	0.24	-0.750			
0.3330	21311.15	3.6670	3.6669	-0.9824	6.21	0.24	-0.750			
0.3360	21502.94	3.6640	3.6641	-1.0015	6.21	0.24	-0.750			
0.3390	21696.76	3.6610	3.6610	-1.0085	6.22	0.25	-0.750			
0.3420	21890.53	3.6580	3.6580	-1.0166	6.22	0.25	-0.750			
0.3451	22086.48	3.6550	3.6550	-1.0204	6.23	0.26	-0.750			
0.3482	22284.11	3.6520	3.6520	-1.0331	6.23	0.26	-0.750			
0.3513	22484.06	3.6490	3.6490	-1.0389	6.23	0.26	-0.750			
0.3544	22684.07	3.6460	3.6460	-1.0484	6.23	0.26	-0.750			
0.3576	22883.55	3.6430	3.6430	-1.0601	6.23	0.26	-0.750			
0.3608	23089.41	3.6400	3.6401	-1.0822	6.23	0.26	-0.750			
0.3640	23297.69	3.6370	3.6369	-1.0956	6.23	0.26	-0.750			
0.3674	23511.21	3.6340	3.6340	-1.1101	6.24	0.27	-0.750			
0.3707	23726.29	3.6310	3.6311	-1.1251	6.24	0.27	-0.750			
0.3742	23946.29	3.6280	3.6279	-1.1414	6.24	0.27	-0.750			
0.3776	24166.90	3.6250	3.6249	-1.1494	6.24	0.27	-0.750			
0.3811	24387.60	3.6220	3.6220	-1.1580	6.25	0.28	-0.750			
0.3845	24608.41	3.6190	3.6194	-1.1721	6.25	0.28	-0.750			
0.3881	24838.03	3.6160	3.6159	-1.1882	6.25	0.28	-0.750			
0.3917	25067.24	3.6130	3.6129	-1.1984	6.25	0.28	-0.750			
0.3952	25293.26	3.6100	3.6101	-1.2224	6.25	0.28	-0.750			
0.3990	25536.79	3.6070	3.6070	-1.2474	6.25	0.28	-0.750			
0.4028	25777.71	3.6040	3.6038	-1.2531	6.26	0.29	-0.750			
0.4065	26018.61	3.6010	3.6010	-1.2675	6.27	0.30	-0.750			
0.4104	26263.46	3.5980	3.5989	-1.2750	6.27	0.30	-0.750	0.485	1.131	
0.4142	26510.24	3.5950	3.5949	-1.2864	6.26	0.29	-0.750			
0.4181	26757.97	3.5920	3.5919	-1.2885	6.26	0.29	-0.750			
0.4219	26999.49	3.5890	3.5893	-1.3022	6.25	0.28	-0.750			
0.4259	27257.48	3.5860	3.5860	-1.3286	6.26	0.29	-0.750			
0.4299	27513.23	3.5830	3.5829	-1.3423	6.26	0.29	-0.750			
0.4339	27771.24	3.5800	3.5801	-1.3640	6.27	0.30	-0.750			
0.4381	28039.51	3.5770	3.5769	-1.3788	6.27	0.30	-0.750			
0.4423	28305.06	3.5740	3.5740	-1.3885	6.27	0.30	-0.750			
0.4465	28574.01	3.5710	3.5712	-1.4114	6.27	0.30	-0.750			
0.4507	28847.39	3.5680	3.5679	-1.4029	6.27	0.30	-0.750			
0.4550	29121.75	3.5650	3.5648	-1.4075	6.26	0.29	-0.750			
0.4592	29389.71	3.5620	3.5625	-1.4084	6.26	0.29	-0.750			
0.4634	29654.75	3.5590	3.5590	-1.4538	6.26	0.29	-0.750			
0.4677	29933.11	3.5560	3.5558	-1.4919	6.27	0.30	-0.750			
0.4722	30219.51	3.5530	3.5530	-1.5372	6.27	0.30	-0.750			
0.4769	30524.42	3.5500	3.5504	-1.5717	6.27	0.30	-0.750			
0.4819	30839.87	3.5470	3.5468	-1.6108	6.27	0.30	-0.750			
0.4867	31151.42	3.5440	3.5438	-1.6054	6.27	0.30	-0.750			
0.4915	31456.91	3.5410	3.5407	-1.6047	6.27	0.30	-0.750			
0.4963	31765.77	3.5380	3.5382	-1.5973	6.27	0.30	-0.750			
0.5011	32069.66	3.5350	3.5349	-1.5838	6.27	0.30	-0.750			
0.5058	32373.14	3.5320	3.5319	-1.5957	6.27	0.30	-0.750			
0.5107	32683.88	3.5290	3.5289	-1.6228	6.27	0.30	-0.750			
0.5155	32991.68	3.5260	3.5261	-1.6216	6.27	0.30	-0.750			
0.5204	33307.89	3.5230	3.5231	-1.6329	6.27	0.30	-0.750			
0.5254	33623.45	3.5200	3.5199	-1.6468	6.27	0.30	-0.750			
0.5304	33945.74	3.5170	3.5167	-1.6642	6.27	0.30	-0.750			
0.5354	34266.55	3.5140	3.5140	-1.6608	6.27	0.30	-0.750			
0.5404	34584.44	3.5110	3.5113	-1.6698	6.29	0.32	-0.750			
0.5454	34902.89	3.5080	3.5082	-1.6521	6.31	0.34	-0.750			
0.5503	35217.99	3.5050	3.5051	-1.6472	6.31	0.34	-0.750			
0.5552	35531.68	3.5020	3.5021	-1.6362	6.32	0.35	-0.750			
0.5601	35849.21	3.4990	3.4991	-1.6593	6.32	0.35	-0.750			
0.5651	36166.34	3.4960	3.4958	-1.6673	6.32	0.35	-0.750			
0.5701	36489.15	3.4930	3.4929	-1.6638	6.33	0.36	-0.750			
0.5752	36810.12	3.4900	3.4899	-1.6543	6.34	0.37	-0.750			
0.5802	37132.78	3.4870	3.4869	-1.6662	6.36	0.39	-0.750			
0.5852	37450.07	3.4840	3.4840	-1.6368	6.37	0.40	-0.750			
0.5901	37765.69	3.4810	3.4812	-1.6340	6.37	0.40	-0.750			
0.5949	38072.83	3.4780	3.4781	-1.6052	6.38	0.41	-0.750			
0.5997	38380.00	3.4750	3.4748	-1.5815	6.39	0.42	-0.750			
0.6045	38685.40	3.4720	3.4719	-1.5836	6.40	0.43	-0.750			
0.6092	38989.58	3.4690	3.4691	-1.5690	6.42	0.45	-0.750			
0.6139	39288.51	3.4660	3.4658	-1.5445	6.43	0.46	-0.750			
0.6185	39584.02	3.4630	3.4632	-1.5251	6.44	0.47	-0.750			
0.6230	39874.56	3.4600	3.4600	-1.5117	6.45	0.48	-0.750			
0.6276	40163.48	3.4570	3.4569	-1.4945	6.47	0.50	-0.750			
0.6320	40445.80	3.4540	3.4539	-1.4770	6.49	0.52	-0.750			
0.6364	40728.00	3.4510	3.4511	-1.4581	6.51	0.54	-0.750			
0.6408	41009.07	3.4480	3.4480	-1.4418	6.53	0.56	-0.750			
0.6450	41282.48	3.4450	3.4449	-1.4189	6.54	0.57	-0.750			
0.6492	41551.31	3.4420	3.4419	-1.3864	6.56	0.59	-0.750			
0.6534	41817.89	3.4390	3.4390	-1.3616	6.57	0.60	-0.750			
0.6574	42075.66	3.4360	3.4359	-1.3393	6.58	0.61	-0.750			
0.6614	42328.37	3.4330	3.4331	-1.3038	6.60	0.63	-0.750			
0.6653	42578.83	3.4300	3.4299	-1.2873	6.61	0.64	-0.750			
0.6691	42822.79	3.4270	3.4269	-1.2577	6.63	0.66	-0.750			
0.6728	43060.41	3.4240	3.4241	-1.2351	6.64	0.67	-0.750			
0.6765	43298.17	3.4210	3.4209	-1.2181	6.66	0.69	-0.750			
0.6802	43532.95	3.4180	3.4179	-1.1834	6.67	0.70	-0.750			
0.6837	43754.80	3.4150	3.4149	-1.1455	6.69	0.72	-0.750			
0.6871	43974.20	3.4120	3.4120	-1.1226	6.70	0.73	-0.750			
0.6904	44185.80	3.4090	3.4088	-1.0901	6.72	0.75	-0.750			
0.6936	44391.15	3.4060	3.4059	-1.0564	6.73	0.76	-0.750			
0.6967	44588.19	3.4030	3.4032	-1.0199	6.75	0.78	-0.750			
0.6997	44783.71	3.4000	3.4000	-1.0027	6.76	0.79	-0.750			
0.7027	44975.45	3.3970	3.3970	-0.9786	6.78	0.81	-0.750			
0.7056	45157.49	3.3940	3.3939	-0.9470	6.79	0.82	-0.750			
0.7084	45337.70	3.3910	3.3910	-0.9264	6.81	0.84	-0.750			
0.7111	45513.03	3.3880	3.3880	-0.9005	6.82	0.85	-0.750			
0.7138	45684.05	3.3850	3.3849	-0.8815	6.84	0.87	-0.750			
0.7164	45850.77	3.3820	3.3820	-0.8591	6.86	0.89	-0.750			
0.7189	46012.58	3.3790	3.3790	-0.8278	6.87	0.90	-0.750			
0.7214	46172.05	3.3760	3.3760	-0.8031	6.89	0.92	-0.750			
0.7238	46323.78	3.3730	3.3731	-0.7655	6.90	0.93	-0.750			
0.7260	46466.01	3.3700	3.3699	-0.7037	6.92	0.95	-0.750			
