Ah_balance (normalized)	Ah_balance (mAh)	Voltage - fit (V)	Voltage -  interpolate (V)	dQ/dV (1/V)	Temperature (°C)	Temperature - diff (°C)	Current (C)	R_DC 0ms (mOhm)	R_DC 50ms (mOhm)	R_DC 50 ms PEC (mOhm)
0.0921	5894.37	4.0020	4.0016	-0.0765	5.98	0.00	-0.750			
0.0924	5911.78	3.9990	3.9988	-0.1049	5.98	0.00	-0.750			
0.0927	5934.91	3.9960	3.9959	-0.1327	5.98	0.00	-0.750			
0.0932	5963.62	3.9930	3.9930	-0.1584	5.98	0.00	-0.750			
0.0937	5996.55	3.9900	3.9900	-0.1840	5.98	0.00	-0.750			
0.0943	6034.55	3.9870	3.9871	-0.2077	5.98	0.00	-0.750			
0.0950	6077.96	3.9840	3.9841	-0.2322	5.98	0.00	-0.750			
0.0957	6124.62	3.9810	3.9810	-0.2557	5.98	0.00	-0.750			
0.0965	6175.77	3.9780	3.9780	-0.2792	5.98	0.00	-0.750			
0.0974	6231.48	3.9750	3.9749	-0.3039	5.98	-0.00	-0.750			
0.0983	6292.04	3.9720	3.9720	-0.3266	5.98	-0.00	-0.750			
0.0993	6357.45	3.9690	3.9690	-0.3493	5.98	-0.00	-0.750			
0.1004	6426.54	3.9660	3.9660	-0.3725	5.98	-0.00	-0.750			
0.1016	6500.70	3.9630	3.9630	-0.3954	5.98	-0.00	-0.750			
0.1028	6578.80	3.9600	3.9600	-0.4159	5.98	-0.00	-0.750			
0.1041	6660.29	3.9570	3.9570	-0.4400	5.97	-0.01	-0.750			
0.1054	6747.04	3.9540	3.9540	-0.4614	5.97	-0.01	-0.750			
0.1068	6838.35	3.9510	3.9510	-0.4835	5.97	-0.01	-0.750			
0.1083	6934.21	3.9480	3.9479	-0.5027	5.97	-0.01	-0.750			
0.1099	7032.14	3.9450	3.9451	-0.5218	5.97	-0.01	-0.750			
0.1115	7134.43	3.9420	3.9420	-0.5408	5.97	-0.01	-0.750			
0.1131	7240.60	3.9390	3.9390	-0.5556	5.96	-0.02	-0.750			
0.1148	7348.07	3.9360	3.9359	-0.5706	5.96	-0.02	-0.750			
0.1166	7460.44	3.9330	3.9331	-0.5849	5.96	-0.02	-0.750			
0.1184	7574.63	3.9300	3.9300	-0.5984	5.96	-0.02	-0.750			
0.1202	7690.89	3.9270	3.9270	-0.6095	5.95	-0.03	-0.750			
0.1220	7809.09	3.9240	3.9241	-0.6159	5.95	-0.03	-0.750			
0.1239	7928.16	3.9210	3.9210	-0.6263	5.95	-0.03	-0.750			
0.1258	8050.19	3.9180	3.9180	-0.6355	5.96	-0.02	-0.750			
0.1277	8172.28	3.9150	3.9150	-0.6493	5.96	-0.02	-0.750			
0.1297	8299.51	3.9120	3.9119	-0.6598	5.96	-0.02	-0.750			
0.1317	8427.04	3.9090	3.9089	-0.6651	5.97	-0.01	-0.750			
0.1337	8556.49	3.9060	3.9061	-0.6730	5.97	-0.01	-0.750			
0.1357	8686.79	3.9030	3.9028	-0.6772	5.97	-0.01	-0.750			
0.1377	8815.92	3.9000	3.8999	-0.6791	5.98	-0.00	-0.750			
0.1398	8945.94	3.8970	3.8970	-0.6836	5.98	-0.00	-0.750			
0.1418	9075.90	3.8940	3.8940	-0.6800	5.98	0.00	-0.750			
0.1439	9210.77	3.8910	3.8910	-0.6907	5.99	0.01	-0.750			
0.1460	9343.15	3.8880	3.8880	-0.6953	5.99	0.01	-0.750			
0.1481	9477.04	3.8850	3.8849	-0.6970	5.99	0.01	-0.750			
0.1502	9611.13	3.8820	3.8820	-0.7014	6.00	0.02	-0.750			
0.1523	9745.22	3.8790	3.8791	-0.7079	6.00	0.02	-0.750			
0.1544	9883.19	3.8760	3.8759	-0.7093	6.00	0.02	-0.750			
0.1566	10021.18	3.8730	3.8729	-0.7134	6.01	0.03	-0.750			
0.1587	10157.54	3.8700	3.8701	-0.7126	6.01	0.03	-0.750			
0.1609	10294.90	3.8670	3.8670	-0.7130	6.01	0.03	-0.750			
0.1630	10432.70	3.8640	3.8640	-0.7148	6.02	0.04	-0.750			
0.1651	10568.48	3.8610	3.8610	-0.7166	6.03	0.05	-0.750			
0.1673	10705.03	3.8580	3.8581	-0.7163	6.04	0.06	-0.750			
0.1695	10845.96	3.8550	3.8549	-0.7205	6.04	0.06	-0.750			
0.1716	10983.30	3.8520	3.8521	-0.7163	6.05	0.07	-0.750			
0.1738	11120.36	3.8490	3.8490	-0.7205	6.05	0.07	-0.750			
0.1759	11258.85	3.8460	3.8461	-0.7222	6.06	0.08	-0.750			
0.1781	11396.88	3.8430	3.8429	-0.7244	6.07	0.09	-0.750			
0.1803	11536.52	3.8400	3.8400	-0.7247	6.07	0.09	-0.750			
0.1825	11677.07	3.8370	3.8371	-0.7292	6.08	0.10	-0.750			
0.1846	11817.39	3.8340	3.8341	-0.7286	6.08	0.10	-0.750			
0.1868	11958.03	3.8310	3.8309	-0.7283	6.09	0.11	-0.750			
0.1890	12097.41	3.8280	3.8280	-0.7218	6.09	0.11	-0.750			
0.1912	12234.66	3.8250	3.8250	-0.7244	6.10	0.12	-0.750			
0.1933	12373.20	3.8220	3.8221	-0.7264	6.10	0.12	-0.750			
0.1955	12512.86	3.8190	3.8189	-0.7307	6.11	0.13	-0.750			
0.1977	12652.97	3.8160	3.8160	-0.7312	6.11	0.13	-0.750			
0.1999	12794.42	3.8130	3.8130	-0.7347	6.12	0.14	-0.750			
0.2021	12936.98	3.8100	3.8100	-0.7384	6.13	0.15	-0.750			
0.2044	13080.32	3.8070	3.8070	-0.7360	6.13	0.15	-0.750			
0.2066	13219.63	3.8040	3.8040	-0.7351	6.14	0.16	-0.750			
0.2088	13360.90	3.8010	3.8009	-0.7336	6.15	0.17	-0.750			
0.2110	13501.68	3.7980	3.7979	-0.7329	6.16	0.18	-0.750			
0.2132	13641.91	3.7950	3.7950	-0.7371	6.16	0.18	-0.750			
0.2154	13782.84	3.7920	3.7920	-0.7411	6.17	0.19	-0.750			
0.2176	13925.31	3.7890	3.7890	-0.7395	6.18	0.20	-0.750			
0.2198	14069.76	3.7860	3.7859	-0.7460	6.18	0.20	-0.750			
0.2221	14212.66	3.7830	3.7831	-0.7442	6.19	0.21	-0.750			
0.2243	14356.81	3.7800	3.7799	-0.7481	6.20	0.22	-0.750			
0.2266	14500.00	3.7770	3.7770	-0.7501	6.21	0.23	-0.750			
0.2288	14641.90	3.7740	3.7740	-0.7517	6.21	0.23	-0.750			
0.2311	14788.34	3.7710	3.7709	-0.7590	6.22	0.24	-0.750			
0.2334	14935.23	3.7680	3.7680	-0.7622	6.23	0.25	-0.750			
0.2356	15080.86	3.7650	3.7649	-0.7649	6.23	0.25	-0.750			
0.2379	15227.87	3.7620	3.7620	-0.7713	6.24	0.26	-0.750			
0.2402	15375.85	3.7590	3.7590	-0.7721	6.24	0.26	-0.750			
0.2426	15524.09	3.7560	3.7560	-0.7732	6.25	0.27	-0.750			
0.2449	15674.11	3.7530	3.7530	-0.7742	6.26	0.28	-0.750			
0.2472	15822.81	3.7500	3.7502	-0.7776	6.26	0.28	-0.750			
0.2496	15972.21	3.7470	3.7469	-0.7791	6.27	0.29	-0.750			
0.2519	16120.10	3.7440	3.7441	-0.7891	6.27	0.29	-0.750			
0.2543	16272.57	3.7410	3.7408	-0.7931	6.28	0.30	-0.750			
0.2567	16427.41	3.7380	3.7380	-0.7992	6.28	0.30	-0.750			
0.2591	16581.25	3.7350	3.7350	-0.8064	6.29	0.31	-0.750			
0.2615	16737.66	3.7320	3.7320	-0.8124	6.30	0.32	-0.750			
0.2640	16893.10	3.7290	3.7290	-0.8226	6.30	0.32	-0.750			
0.2664	17050.24	3.7260	3.7259	-0.8257	6.31	0.33	-0.750			
0.2689	17209.75	3.7230	3.7230	-0.8304	6.32	0.34	-0.750			
0.2714	17371.32	3.7200	3.7202	-0.8345	6.33	0.35	-0.750			
0.2739	17532.71	3.7170	3.7170	-0.8399	6.33	0.35	-0.750			
0.2765	17693.57	3.7140	3.7139	-0.8396	6.34	0.36	-0.750			
0.2790	17854.20	3.7110	3.7110	-0.8409	6.34	0.36	-0.750			
0.2815	18014.58	3.7080	3.7080	-0.8435	6.35	0.37	-0.750			
0.2840	18178.64	3.7050	3.7053	-0.8555	6.35	0.37	-0.750			
0.2866	18343.59	3.7020	3.7019	-0.8609	6.35	0.37	-0.750			
0.2892	18509.46	3.6990	3.6989	-0.8726	6.36	0.38	-0.750			
0.2918	18677.35	3.6960	3.6960	-0.8779	6.36	0.38	-0.750			
0.2945	18848.85	3.6930	3.6930	-0.8950	6.37	0.39	-0.750			
0.2972	19019.90	3.6900	3.6902	-0.8982	6.37	0.39	-0.750			
0.2999	19192.73	3.6870	3.6869	-0.9087	6.37	0.39	-0.750			
0.3026	19367.09	3.6840	3.6840	-0.9136	6.38	0.40	-0.750			
0.3054	19543.76	3.6810	3.6811	-0.9222	6.38	0.40	-0.750			
0.3082	19723.60	3.6780	3.6780	-0.9311	6.39	0.41	-0.750			
0.3110	19902.80	3.6750	3.6750	-0.9327	6.39	0.41	-0.750			
0.3138	20081.29	3.6720	3.6720	-0.9444	6.40	0.42	-0.750			
0.3166	20264.86	3.6690	3.6689	-0.9437	6.40	0.42	-0.750			
0.3195	20445.98	3.6660	3.6659	-0.9482	6.41	0.43	-0.750			
0.3223	20628.56	3.6630	3.6633	-0.9613	6.41	0.43	-0.750			
0.3252	20813.68	3.6600	3.6598	-0.9723	6.42	0.44	-0.750			
0.3282	21002.21	3.6570	3.6569	-0.9783	6.42	0.44	-0.750			
0.3311	21189.02	3.6540	3.6540	-0.9798	6.42	0.44	-0.750			
0.3341	21381.81	3.6510	3.6513	-0.9982	6.43	0.45	-0.750			
0.3371	21574.49	3.6480	3.6479	-1.0102	6.43	0.45	-0.750			
0.3401	21766.70	3.6450	3.6449	-1.0130	6.44	0.46	-0.750			
0.3432	21962.18	3.6420	3.6419	-1.0149	6.44	0.46	-0.750			
0.3462	22159.93	3.6390	3.6390	-1.0280	6.45	0.47	-0.750			
0.3493	22356.61	3.6360	3.6360	-1.0376	6.45	0.47	-0.750			
0.3524	22555.47	3.6330	3.6329	-1.0447	6.46	0.48	-0.750			
0.3556	22756.36	3.6300	3.6299	-1.0514	6.46	0.48	-0.750			
0.3587	22957.29	3.6270	3.6269	-1.0555	6.47	0.49	-0.750			
0.3619	23163.94	3.6240	3.6240	-1.0755	6.48	0.50	-0.750			
0.3652	23372.55	3.6210	3.6210	-1.0843	6.49	0.51	-0.750			
0.3684	23580.21	3.6180	3.6179	-1.0895	6.50	0.52	-0.750			
0.3717	23789.07	3.6150	3.6151	-1.0977	6.51	0.53	-0.750			
0.3750	23999.15	3.6120	3.6120	-1.1522	6.52	0.54	-0.750			
0.3785	24224.97	3.6090	3.6089	-1.1854	6.52	0.54	-0.750			
0.3822	24460.52	3.6060	3.6056	-1.1981	6.53	0.55	-0.750			
0.3859	24697.11	3.6030	3.6033	-1.2164	6.53	0.55	-0.750			
0.3896	24935.57	3.6000	3.6001	-1.2141	6.54	0.56	-0.750			
0.3932	25167.16	3.5970	3.5970	-1.2109	6.54	0.56	-0.750			
0.3967	25390.97	3.5940	3.5941	-1.1858	6.55	0.57	-0.750			
0.4003	25621.94	3.5910	3.5909	-1.1876	6.56	0.58	-0.750			
0.4039	25850.50	3.5880	3.5879	-1.1947	6.57	0.59	-0.750			
0.4075	26079.35	3.5850	3.5850	-1.2028	6.58	0.60	-0.750	0.464	1.027	
0.4111	26309.42	3.5820	3.5820	-1.2144	6.58	0.60	-0.750			
0.4147	26542.58	3.5790	3.5789	-1.2305	6.59	0.61	-0.750			
0.4184	26776.43	3.5760	3.5759	-1.2426	6.60	0.62	-0.750			
0.4222	27021.81	3.5730	3.5730	-1.2618	6.61	0.63	-0.750			
0.4261	27268.08	3.5700	3.5700	-1.2793	6.62	0.64	-0.750			
0.4299	27514.70	3.5670	3.5670	-1.2885	6.63	0.65	-0.750			
0.4338	27763.38	3.5640	3.5640	-1.3026	6.64	0.66	-0.750			
0.4377	28012.83	3.5610	3.5609	-1.3074	6.65	0.67	-0.750			
0.4416	28265.46	3.5580	3.5579	-1.3164	6.66	0.68	-0.750			
0.4456	28517.79	3.5550	3.5551	-1.3347	6.67	0.69	-0.750			
0.4496	28777.31	3.5520	3.5520	-1.3458	6.67	0.69	-0.750			
0.4537	29036.82	3.5490	3.5489	-1.3590	6.68	0.70	-0.750			
0.4578	29299.61	3.5460	3.5460	-1.3749	6.69	0.71	-0.750			
0.4619	29563.20	3.5430	3.5430	-1.3859	6.70	0.72	-0.750			
0.4662	29834.09	3.5400	3.5399	-1.4018	6.71	0.73	-0.750			
0.4704	30103.91	3.5370	3.5370	-1.4130	6.72	0.74	-0.750			
0.4746	30374.00	3.5340	3.5339	-1.4176	6.73	0.75	-0.750			
0.4789	30650.61	3.5310	3.5310	-1.4344	6.74	0.76	-0.750			
0.4832	30924.97	3.5280	3.5280	-1.4393	6.75	0.77	-0.750			
0.4875	31201.52	3.5250	3.5249	-1.4475	6.76	0.78	-0.750			
0.4919	31482.40	3.5220	3.5220	-1.4592	6.77	0.79	-0.750			
0.4963	31763.72	3.5190	3.5190	-1.4688	6.79	0.81	-0.750			
0.5007	32045.31	3.5160	3.5160	-1.4740	6.80	0.82	-0.750			
0.5052	32332.16	3.5130	3.5130	-1.4835	6.81	0.83	-0.750			
0.5097	32618.71	3.5100	3.5101	-1.4916	6.82	0.84	-0.750			
0.5142	32905.73	3.5070	3.5070	-1.4946	6.83	0.85	-0.750			
0.5187	33193.92	3.5040	3.5040	-1.5000	6.84	0.86	-0.750			
0.5232	33482.02	3.5010	3.5011	-1.5019	6.86	0.88	-0.750			
0.5277	33771.43	3.4980	3.4979	-1.5073	6.88	0.90	-0.750			
0.5322	34059.93	3.4950	3.4950	-1.5120	6.90	0.92	-0.750			
0.5367	34346.90	3.4920	3.4921	-1.5200	6.92	0.94	-0.750			
0.5413	34645.69	3.4890	3.4889	-1.5267	6.93	0.95	-0.750			
0.5460	34941.07	3.4860	3.4859	-1.5274	6.95	0.97	-0.750			
0.5505	35232.61	3.4830	3.4830	-1.5254	6.96	0.98	-0.750			
0.5551	35527.01	3.4800	3.4800	-1.5184	6.98	1.00	-0.750			
0.5597	35818.31	3.4770	3.4771	-1.5141	6.99	1.01	-0.750			
0.5642	36107.43	3.4740	3.4739	-1.5059	7.01	1.03	-0.750			
0.5687	36394.58	3.4710	3.4711	-1.5011	7.02	1.04	-0.750			
0.5732	36686.36	3.4680	3.4680	-1.4945	7.04	1.06	-0.750			
0.5777	36974.44	3.4650	3.4650	-1.4858	7.06	1.08	-0.750			
0.5821	37256.07	3.4620	3.4620	-1.4781	7.08	1.10	-0.750			
0.5865	37538.73	3.4590	3.4589	-1.4613	7.10	1.12	-0.750			
0.5909	37820.09	3.4560	3.4559	-1.4550	7.11	1.13	-0.750			
0.5953	38097.43	3.4530	3.4529	-1.4438	7.13	1.15	-0.750			
0.5996	38373.73	3.4500	3.4500	-1.4283	7.15	1.17	-0.750			
0.6039	38649.76	3.4470	3.4469	-1.4195	7.17	1.19	-0.750			
0.6081	38919.81	3.4440	3.4441	-1.4064	7.19	1.21	-0.750			
0.6123	39188.63	3.4410	3.4409	-1.3809	7.21	1.23	-0.750			
0.6165	39456.49	3.4380	3.4380	-1.3701	7.23	1.25	-0.750			
0.6205	39714.27	3.4350	3.4350	-1.3510	7.25	1.27	-0.750			
0.6246	39971.33	3.4320	3.4320	-1.3241	7.26	1.28	-0.750			
0.6286	40227.33	3.4290	3.4289	-1.3003	7.28	1.30	-0.750			
0.6324	40471.83	3.4260	3.4260	-1.2764	7.30	1.32	-0.750			
0.6361	40713.24	3.4230	3.4231	-1.2515	7.32	1.34	-0.750			
0.6399	40955.84	3.4200	3.4199	-1.2352	7.34	1.36	-0.750			
0.6436	41188.79	3.4170	3.4169	-1.2005	7.36	1.38	-0.750			
0.6471	41412.94	3.4140	3.4142	-1.1751	7.38	1.40	-0.750			
0.6506	41640.45	3.4110	3.4110	-1.1552	7.40	1.42	-0.750			
0.6541	41861.47	3.4080	3.4080	-1.1313	7.42	1.44	-0.750			
0.6574	42074.62	3.4050	3.4050	-1.0999	7.44	1.46	-0.750			
0.6607	42282.95	3.4020	3.4020	-1.0756	7.46	1.48	-0.750			
0.6639	42487.37	3.3990	3.3990	-1.0481	7.47	1.49	-0.750			
0.6670	42685.82	3.3960	3.3960	-1.0230	7.49	1.51	-0.750			
0.6700	42878.39	3.3930	3.3930	-0.9909	7.50	1.52	-0.750			
0.6729	43067.44	3.3900	3.3900	-0.9662	7.52	1.54	-0.750			
0.6758	43249.74	3.3870	3.3870	-0.9417	7.54	1.56	-0.750			
0.6786	43428.55	3.3840	3.3840	-0.9161	7.55	1.57	-0.750			
0.6813	43601.51	3.3810	3.3810	-0.8896	7.57	1.59	-0.750			
0.6839	43770.24	3.3780	3.3781	-0.8673	7.59	1.61	-0.750			
0.6865	43933.50	3.3750	3.3750	-0.8428	7.60	1.62	-0.750			
0.6890	44093.32	3.3720	3.3720	-0.8246	7.62	1.64	-0.750			
0.6914	44248.82	3.3690	3.3690	-0.8006	7.64	1.66	-0.750			
0.6937	44399.77	3.3660	3.3660	-0.7800	7.65	1.67	-0.750			
0.6961	44549.20	3.3630	3.3630	-0.7630	7.67	1.69	-0.750			
0.6983	44693.82	3.3600	3.3600	-0.7411	7.68	1.70	-0.750			
0.7005	44833.63	3.3570	3.3570	-0.7207	7.70	1.72	-0.750			
0.7027	44970.17	3.3540	3.3541	-0.7035	7.71	1.73	-0.750			
0.7047	45102.54	3.3510	3.3510	-0.6853	7.73	1.75	-0.750			
0.7068	45233.31	3.3480	3.3480	-0.6698	7.74	1.76	-0.750			
0.7087	45359.69	3.3450	3.3451	-0.6527	7.76	1.78	-0.750			
0.7107	45483.95	3.3420	3.3419	-0.6374	7.77	1.79	-0.750			
0.7126	45605.07	3.3390	3.3390	-0.6211	7.78	1.80	-0.750			
0.7144	45721.77	3.3360	3.3360	-0.6029	7.80	1.82	-0.750			
0.7162	45835.41	3.3330	3.3330	-0.5884	7.81	1.83	-0.750			
0.7179	45947.29	3.3300	3.3300	-0.5745	7.82	1.84	-0.750			
0.7196	46056.38	3.3270	3.3270	-0.5613	7.83	1.85	-0.750			
0.7213	46163.00	3.3240	3.3240	-0.5548	7.85	1.87	-0.750			
