Ah_balance (normalized)	Ah_balance (mAh)	Voltage - fit (V)	Voltage -  interpolate (V)	dQ/dV (1/V)	Temperature (°C)	Temperature - diff (°C)	Current (C)	R_DC 0ms (mOhm)	R_DC 50ms (mOhm)	R_DC 50 ms PEC (mOhm)
0.0948	6067.59	4.0060	4.0051	-0.0491	5.96	-0.01	-0.750			
0.0950	6081.24	4.0030	4.0026	-0.0869	5.96	-0.01	-0.750			
0.0953	6100.82	4.0000	3.9998	-0.1171	5.96	-0.01	-0.750			
0.0957	6127.31	3.9970	3.9968	-0.1447	5.96	-0.01	-0.750			
0.0962	6158.24	3.9940	3.9940	-0.1688	5.96	-0.01	-0.750			
0.0968	6192.92	3.9910	3.9910	-0.1946	5.97	-0.00	-0.750			
0.0974	6232.92	3.9880	3.9882	-0.2193	5.97	-0.00	-0.750			
0.0981	6278.19	3.9850	3.9849	-0.2445	5.97	-0.00	-0.750			
0.0989	6326.56	3.9820	3.9820	-0.2703	5.97	-0.00	-0.750			
0.0997	6381.12	3.9790	3.9791	-0.2944	5.97	-0.00	-0.750			
0.1006	6440.20	3.9760	3.9759	-0.3190	5.97	-0.00	-0.750			
0.1016	6504.11	3.9730	3.9731	-0.3446	5.97	-0.00	-0.750			
0.1027	6572.71	3.9700	3.9701	-0.3678	5.97	-0.00	-0.750			
0.1038	6645.70	3.9670	3.9670	-0.3928	5.97	0.00	-0.750			
0.1051	6723.34	3.9640	3.9640	-0.4172	5.97	0.00	-0.750			
0.1063	6805.97	3.9610	3.9610	-0.4392	5.97	0.00	-0.750			
0.1077	6893.17	3.9580	3.9580	-0.4598	5.97	0.00	-0.750			
0.1091	6983.27	3.9550	3.9551	-0.4850	5.98	0.01	-0.750			
0.1106	7078.52	3.9520	3.9520	-0.5065	5.98	0.01	-0.750			
0.1122	7178.45	3.9490	3.9489	-0.5248	5.98	0.01	-0.750			
0.1138	7281.08	3.9460	3.9459	-0.5424	5.98	0.01	-0.750			
0.1155	7388.89	3.9430	3.9433	-0.5510	5.98	0.01	-0.750			
0.1171	7494.77	3.9400	3.9400	-0.5701	5.98	0.01	-0.750			
0.1188	7604.05	3.9370	3.9371	-0.5908	5.98	0.01	-0.750			
0.1206	7717.41	3.9340	3.9336	-0.6111	5.98	0.01	-0.750			
0.1225	7837.61	3.9310	3.9309	-0.6298	5.98	0.01	-0.750			
0.1244	7962.05	3.9280	3.9281	-0.6490	5.98	0.01	-0.750			
0.1264	8092.12	3.9250	3.9250	-0.6642	5.98	0.01	-0.750			
0.1285	8223.29	3.9220	3.9221	-0.6712	5.98	0.01	-0.750			
0.1305	8349.50	3.9190	3.9189	-0.6671	5.98	0.01	-0.750			
0.1325	8477.28	3.9160	3.9160	-0.6755	5.98	0.01	-0.750			
0.1345	8606.51	3.9130	3.9130	-0.6785	5.99	0.02	-0.750			
0.1365	8738.14	3.9100	3.9099	-0.6847	5.99	0.02	-0.750			
0.1386	8869.83	3.9070	3.9070	-0.6937	5.99	0.02	-0.750			
0.1407	9004.10	3.9040	3.9042	-0.7006	5.99	0.02	-0.750			
0.1428	9139.77	3.9010	3.9010	-0.7095	5.99	0.02	-0.750			
0.1449	9275.74	3.8980	3.8980	-0.7179	6.00	0.03	-0.750			
0.1471	9414.41	3.8950	3.8949	-0.7186	6.00	0.03	-0.750			
0.1493	9554.61	3.8920	3.8920	-0.7260	6.00	0.03	-0.750			
0.1515	9694.22	3.8890	3.8890	-0.7268	6.01	0.04	-0.750			
0.1536	9833.48	3.8860	3.8860	-0.7297	6.01	0.04	-0.750			
0.1559	9974.48	3.8830	3.8830	-0.7344	6.01	0.04	-0.750			
0.1580	10115.04	3.8800	3.8799	-0.7364	6.02	0.05	-0.750			
0.1603	10256.67	3.8770	3.8770	-0.7384	6.02	0.05	-0.750			
0.1625	10400.67	3.8740	3.8740	-0.7435	6.03	0.06	-0.750			
0.1648	10544.01	3.8710	3.8710	-0.7412	6.03	0.06	-0.750			
0.1670	10686.02	3.8680	3.8679	-0.7392	6.03	0.06	-0.750			
0.1692	10825.89	3.8650	3.8649	-0.7358	6.04	0.07	-0.750			
0.1713	10966.36	3.8620	3.8622	-0.7440	6.04	0.07	-0.750			
0.1736	11109.78	3.8590	3.8589	-0.7452	6.04	0.07	-0.750			
0.1759	11254.61	3.8560	3.8559	-0.7496	6.05	0.08	-0.750			
0.1781	11399.04	3.8530	3.8532	-0.7547	6.05	0.08	-0.750			
0.1804	11545.85	3.8500	3.8499	-0.7566	6.06	0.09	-0.750			
0.1827	11691.22	3.8470	3.8469	-0.7566	6.06	0.09	-0.750			
0.1849	11835.18	3.8440	3.8440	-0.7538	6.07	0.10	-0.750			
0.1872	11980.32	3.8410	3.8410	-0.7549	6.07	0.10	-0.750			
0.1895	12125.18	3.8380	3.8380	-0.7578	6.08	0.11	-0.750			
0.1917	12270.62	3.8350	3.8349	-0.7539	6.08	0.11	-0.750			
0.1940	12413.46	3.8320	3.8320	-0.7569	6.09	0.12	-0.750			
0.1962	12559.93	3.8290	3.8290	-0.7573	6.09	0.12	-0.750			
0.1985	12703.89	3.8260	3.8260	-0.7583	6.10	0.13	-0.750			
0.2008	12851.06	3.8230	3.8230	-0.7626	6.11	0.14	-0.750			
0.2031	12998.03	3.8200	3.8202	-0.7612	6.11	0.14	-0.750			
0.2054	13144.30	3.8170	3.8170	-0.7604	6.12	0.15	-0.750			
0.2077	13291.29	3.8140	3.8141	-0.7650	6.12	0.15	-0.750			
0.2100	13437.09	3.8110	3.8108	-0.7620	6.13	0.16	-0.750			
0.2123	13584.14	3.8080	3.8080	-0.7636	6.13	0.16	-0.750			
0.2145	13730.03	3.8050	3.8049	-0.7605	6.14	0.17	-0.750			
0.2168	13875.91	3.8020	3.8020	-0.7637	6.14	0.17	-0.750			
0.2191	14023.84	3.7990	3.7990	-0.7625	6.15	0.18	-0.750			
0.2214	14169.73	3.7960	3.7959	-0.7656	6.15	0.18	-0.750			
0.2237	14317.12	3.7930	3.7930	-0.7587	6.16	0.19	-0.750			
0.2260	14464.47	3.7900	3.7900	-0.7631	6.17	0.20	-0.750			
0.2283	14610.08	3.7870	3.7873	-0.7630	6.17	0.20	-0.750			
0.2306	14755.93	3.7840	3.7840	-0.7620	6.18	0.21	-0.750			
0.2328	14900.42	3.7810	3.7809	-0.7669	6.19	0.22	-0.750			
0.2351	15045.68	3.7780	3.7780	-0.7679	6.19	0.22	-0.750			
0.2375	15198.69	3.7750	3.7750	-0.7740	6.20	0.23	-0.750			
0.2399	15350.71	3.7720	3.7720	-0.7774	6.21	0.24	-0.750			
0.2421	15496.93	3.7690	3.7691	-0.7748	6.21	0.24	-0.750			
0.2445	15644.83	3.7660	3.7659	-0.7756	6.22	0.25	-0.750			
0.2468	15792.91	3.7630	3.7629	-0.7781	6.22	0.25	-0.750			
0.2491	15942.09	3.7600	3.7599	-0.7786	6.22	0.25	-0.750			
0.2514	16092.40	3.7570	3.7571	-0.7857	6.23	0.26	-0.750			
0.2538	16245.59	3.7540	3.7541	-0.7903	6.23	0.26	-0.750			
0.2562	16395.52	3.7510	3.7510	-0.7967	6.24	0.27	-0.750			
0.2586	16549.81	3.7480	3.7480	-0.7943	6.24	0.27	-0.750			
0.2610	16702.38	3.7450	3.7450	-0.7957	6.24	0.27	-0.750			
0.2634	16855.93	3.7420	3.7419	-0.7940	6.25	0.28	-0.750			
0.2658	17008.89	3.7390	3.7392	-0.7979	6.25	0.28	-0.750			
0.2681	17160.46	3.7360	3.7360	-0.7993	6.25	0.28	-0.750			
0.2705	17313.38	3.7330	3.7329	-0.8072	6.26	0.29	-0.750			
0.2729	17468.44	3.7300	3.7299	-0.8044	6.26	0.29	-0.750			
0.2754	17626.85	3.7270	3.7270	-0.8186	6.27	0.30	-0.750			
0.2779	17784.17	3.7240	3.7242	-0.8256	6.27	0.30	-0.750			
0.2804	17943.73	3.7210	3.7210	-0.8313	6.28	0.31	-0.750			
0.2829	18102.54	3.7180	3.7179	-0.8369	6.29	0.32	-0.750			
0.2854	18263.71	3.7150	3.7150	-0.8370	6.29	0.32	-0.750			
0.2879	18426.37	3.7120	3.7120	-0.8460	6.30	0.33	-0.750			
0.2904	18588.46	3.7090	3.7092	-0.8511	6.31	0.34	-0.750			
0.2929	18748.22	3.7060	3.7061	-0.8669	6.31	0.34	-0.750			
0.2956	18916.50	3.7030	3.7029	-0.8681	6.32	0.35	-0.750			
0.2982	19084.45	3.7000	3.6999	-0.8748	6.32	0.35	-0.750			
0.3009	19254.71	3.6970	3.6969	-0.8851	6.33	0.36	-0.750			
0.3035	19425.38	3.6940	3.6941	-0.8947	6.33	0.36	-0.750			
0.3062	19597.30	3.6910	3.6910	-0.9037	6.34	0.37	-0.750			
0.3089	19770.90	3.6880	3.6879	-0.9119	6.34	0.37	-0.750			
0.3117	19947.42	3.6850	3.6849	-0.9255	6.34	0.37	-0.750			
0.3145	20125.56	3.6820	3.6820	-0.9262	6.35	0.38	-0.750			
0.3172	20302.12	3.6790	3.6791	-0.9411	6.35	0.38	-0.750			
0.3201	20483.95	3.6760	3.6760	-0.9438	6.35	0.38	-0.750			
0.3229	20663.61	3.6730	3.6729	-0.9506	6.36	0.39	-0.750			
0.3257	20847.92	3.6700	3.6698	-0.9603	6.36	0.39	-0.750			
0.3287	21033.87	3.6670	3.6670	-0.9723	6.36	0.39	-0.750			
0.3316	21222.40	3.6640	3.6640	-0.9908	6.36	0.39	-0.750			
0.3346	21415.15	3.6610	3.6610	-0.9947	6.37	0.40	-0.750			
0.3376	21603.79	3.6580	3.6579	-0.9954	6.37	0.40	-0.750			
0.3406	21798.86	3.6550	3.6553	-1.0202	6.37	0.40	-0.750			
0.3437	21993.69	3.6520	3.6518	-1.0242	6.38	0.41	-0.750			
0.3468	22192.25	3.6490	3.6490	-1.0355	6.38	0.41	-0.750			
0.3499	22391.81	3.6460	3.6460	-1.0402	6.39	0.42	-0.750			
0.3530	22593.11	3.6430	3.6433	-1.0609	6.39	0.42	-0.750			
0.3562	22799.62	3.6400	3.6400	-1.0700	6.39	0.42	-0.750			
0.3594	23003.52	3.6370	3.6369	-1.0746	6.40	0.43	-0.750			
0.3627	23209.81	3.6340	3.6340	-1.0850	6.40	0.43	-0.750			
0.3659	23418.90	3.6310	3.6311	-1.1037	6.40	0.43	-0.750			
0.3693	23633.33	3.6280	3.6280	-1.1073	6.40	0.43	-0.750			
0.3726	23848.10	3.6250	3.6250	-1.1188	6.41	0.44	-0.750			
0.3760	24061.75	3.6220	3.6220	-1.1241	6.41	0.44	-0.750			
0.3794	24278.91	3.6190	3.6189	-1.1443	6.41	0.44	-0.750			
0.3828	24500.36	3.6160	3.6159	-1.1507	6.41	0.44	-0.750			
0.3863	24721.11	3.6130	3.6129	-1.1627	6.41	0.44	-0.750			
0.3898	24944.22	3.6100	3.6102	-1.1765	6.41	0.44	-0.750			
0.3934	25175.13	3.6070	3.6069	-1.1936	6.41	0.44	-0.750			
0.3969	25404.04	3.6040	3.6040	-1.2007	6.41	0.44	-0.750			
0.4006	25635.40	3.6010	3.6010	-1.2136	6.41	0.44	-0.750			
0.4042	25867.02	3.5980	3.5979	-1.2282	6.41	0.44	-0.750			
0.4079	26108.72	3.5950	3.5950	-1.2431	6.42	0.45	-0.750			
0.4117	26347.48	3.5920	3.5919	-1.2478	6.42	0.45	-0.750	0.458	1.084	
0.4154	26588.61	3.5890	3.5892	-1.2695	6.43	0.46	-0.750			
0.4193	26835.95	3.5860	3.5858	-1.2737	6.43	0.46	-0.750			
0.4231	27080.50	3.5830	3.5830	-1.2764	6.43	0.46	-0.750			
0.4269	27321.49	3.5800	3.5802	-1.3017	6.43	0.46	-0.750			
0.4309	27574.81	3.5770	3.5769	-1.3238	6.43	0.46	-0.750			
0.4349	27833.41	3.5740	3.5738	-1.3341	6.43	0.46	-0.750			
0.4389	28088.73	3.5710	3.5711	-1.3554	6.43	0.46	-0.750			
0.4430	28351.91	3.5680	3.5680	-1.3619	6.43	0.46	-0.750			
0.4472	28621.40	3.5650	3.5649	-1.3824	6.44	0.47	-0.750			
0.4513	28883.93	3.5620	3.5620	-1.3899	6.45	0.48	-0.750			
0.4554	29144.60	3.5590	3.5590	-1.3880	6.45	0.48	-0.750			
0.4597	29418.42	3.5560	3.5558	-1.4228	6.45	0.48	-0.750			
0.4640	29695.69	3.5530	3.5530	-1.4370	6.45	0.48	-0.750			
0.4683	29972.64	3.5500	3.5499	-1.4345	6.45	0.48	-0.750			
0.4728	30257.91	3.5470	3.5472	-1.4778	6.45	0.48	-0.750			
0.4772	30542.43	3.5440	3.5441	-1.4863	6.45	0.48	-0.750			
0.4817	30826.11	3.5410	3.5406	-1.4977	6.45	0.48	-0.750			
0.4862	31116.57	3.5380	3.5384	-1.5051	6.45	0.48	-0.750			
0.4907	31406.05	3.5350	3.5352	-1.5152	6.45	0.48	-0.750			
0.4953	31700.11	3.5320	3.5322	-1.5418	6.46	0.49	-0.750			
0.5000	32000.83	3.5290	3.5289	-1.5447	6.47	0.50	-0.750			
0.5046	32294.64	3.5260	3.5260	-1.5651	6.47	0.50	-0.750			
0.5094	32600.82	3.5230	3.5229	-1.5682	6.47	0.50	-0.750			
0.5141	32902.46	3.5200	3.5198	-1.5751	6.47	0.50	-0.750			
0.5188	33203.26	3.5170	3.5169	-1.5674	6.48	0.51	-0.750			
0.5235	33507.19	3.5140	3.5138	-1.5735	6.48	0.51	-0.750			
0.5282	33803.80	3.5110	3.5113	-1.5820	6.49	0.52	-0.750			
0.5330	34113.06	3.5080	3.5078	-1.5800	6.50	0.53	-0.750			
0.5378	34416.41	3.5050	3.5050	-1.5851	6.51	0.54	-0.750			
0.5426	34725.52	3.5020	3.5020	-1.5989	6.51	0.54	-0.750			
0.5474	35035.07	3.4990	3.4989	-1.6005	6.51	0.54	-0.750			
0.5522	35342.46	3.4960	3.4961	-1.5805	6.51	0.54	-0.750			
0.5569	35641.52	3.4930	3.4930	-1.5734	6.52	0.55	-0.750			
0.5616	35945.47	3.4900	3.4899	-1.5671	6.54	0.57	-0.750			
0.5663	36245.83	3.4870	3.4871	-1.5725	6.55	0.58	-0.750			
0.5710	36546.07	3.4840	3.4842	-1.5653	6.56	0.59	-0.750			
0.5757	36846.82	3.4810	3.4809	-1.5579	6.57	0.60	-0.750			
0.5805	37149.84	3.4780	3.4782	-1.5452	6.57	0.60	-0.750			
0.5851	37443.40	3.4750	3.4750	-1.5474	6.58	0.61	-0.750			
0.5897	37741.13	3.4720	3.4719	-1.5483	6.59	0.62	-0.750			
0.5943	38035.06	3.4690	3.4688	-1.5311	6.60	0.63	-0.750			
0.5989	38326.76	3.4660	3.4658	-1.5214	6.62	0.65	-0.750			
0.6035	38624.37	3.4630	3.4632	-1.5055	6.63	0.66	-0.750			
0.6081	38916.72	3.4600	3.4597	-1.4950	6.64	0.67	-0.750			
0.6125	39197.38	3.4570	3.4570	-1.4734	6.65	0.68	-0.750			
0.6167	39471.57	3.4540	3.4541	-1.4357	6.65	0.68	-0.750			
0.6211	39752.41	3.4510	3.4509	-1.4378	6.67	0.70	-0.750			
0.6253	40018.71	3.4480	3.4480	-1.4159	6.68	0.71	-0.750			
0.6296	40294.96	3.4450	3.4449	-1.3979	6.70	0.73	-0.750			
0.6339	40567.32	3.4420	3.4419	-1.3827	6.71	0.74	-0.750			
0.6379	40828.79	3.4390	3.4390	-1.3606	6.72	0.75	-0.750			
0.6420	41085.97	3.4360	3.4361	-1.3362	6.74	0.77	-0.750			
0.6460	41342.76	3.4330	3.4329	-1.3137	6.75	0.78	-0.750			
0.6498	41589.04	3.4300	3.4299	-1.2831	6.76	0.79	-0.750			
0.6536	41831.82	3.4270	3.4272	-1.2612	6.77	0.80	-0.750			
0.6575	42077.51	3.4240	3.4239	-1.2474	6.79	0.82	-0.750			
0.6612	42316.09	3.4210	3.4209	-1.2186	6.80	0.83	-0.750			
0.6648	42546.04	3.4180	3.4180	-1.1871	6.81	0.84	-0.750			
0.6683	42771.03	3.4150	3.4150	-1.1695	6.82	0.85	-0.750			
0.6718	42994.99	3.4120	3.4119	-1.1396	6.84	0.87	-0.750			
0.6752	43210.37	3.4090	3.4089	-1.1054	6.85	0.88	-0.750			
0.6784	43417.54	3.4060	3.4062	-1.0807	6.86	0.89	-0.750			
0.6816	43624.27	3.4030	3.4029	-1.0577	6.88	0.91	-0.750			
0.6848	43824.63	3.4000	3.3999	-1.0285	6.89	0.92	-0.750			
0.6878	44016.75	3.3970	3.3970	-1.0010	6.91	0.94	-0.750			
0.6908	44208.06	3.3940	3.3943	-0.9801	6.92	0.95	-0.750			
0.6937	44394.96	3.3910	3.3909	-0.9592	6.93	0.96	-0.750			
0.6965	44577.70	3.3880	3.3880	-0.9311	6.95	0.98	-0.750			
0.6993	44753.14	3.3850	3.3849	-0.8988	6.96	0.99	-0.750			
0.7019	44923.39	3.3820	3.3821	-0.8737	6.97	1.00	-0.750			
0.7045	45088.06	3.3790	3.3789	-0.8489	6.98	1.01	-0.750			
0.7070	45244.83	3.3760	3.3760	-0.8281	6.99	1.02	-0.750			
0.7094	45402.76	3.3730	3.3729	-0.8023	7.01	1.04	-0.750			
0.7118	45552.86	3.3700	3.3699	-0.7797	7.02	1.05	-0.750			
0.7141	45704.12	3.3670	3.3670	-0.7645	7.03	1.06	-0.750			
0.7164	45848.87	3.3640	3.3639	-0.7411	7.05	1.08	-0.750			
0.7186	45988.67	3.3610	3.3609	-0.7172	7.06	1.09	-0.750			
0.7207	46123.04	3.3580	3.3581	-0.6974	7.07	1.10	-0.750			
0.7227	46252.09	3.3550	3.3550	-0.6755	7.08	1.11	-0.750			
0.7247	46383.28	3.3520	3.3520	-0.6607	7.09	1.12	-0.750			
0.7267	46507.60	3.3490	3.3489	-0.6438	7.10	1.13	-0.750			
0.7286	46630.11	3.3460	3.3460	-0.6349	7.11	1.14	-0.750			
