Ah_balance (normalized)	Ah_balance (mAh)	Voltage - fit (V)	Voltage -  interpolate (V)	dQ/dV (1/V)	Temperature (°C)	Temperature - diff (°C)	Current (C)	R_DC 0ms (mOhm)	R_DC 50ms (mOhm)	R_DC 50 ms PEC (mOhm)
0.1805	11549.98	4.0790	4.0790	0.8051	7.69	1.72	0.750			
0.1829	11703.40	4.0760	4.0760	0.7889	7.68	1.71	0.750			
0.1850	11842.88	4.0730	4.0732	0.7934	7.68	1.71	0.750			
0.1875	11996.95	4.0700	4.0700	0.8277	7.68	1.71	0.750			
0.1899	12156.43	4.0670	4.0667	0.8408	7.67	1.70	0.750			
0.1926	12325.74	4.0640	4.0641	0.8446	7.67	1.70	0.750			
0.1953	12497.74	4.0610	4.0614	0.8477	7.66	1.69	0.750			
0.1978	12661.46	4.0580	4.0581	0.8354	7.66	1.69	0.750			
0.2003	12819.74	4.0550	4.0549	0.8219	7.65	1.68	0.750			
0.2026	12964.38	4.0520	4.0520	0.7888	7.65	1.68	0.750			
0.2050	13117.00	4.0490	4.0490	0.7946	7.64	1.67	0.750			
0.2074	13272.13	4.0460	4.0460	0.7979	7.64	1.67	0.750			
0.2098	13425.34	4.0430	4.0430	0.8022	7.63	1.66	0.750			
0.2122	13580.99	4.0400	4.0401	0.8043	7.62	1.65	0.750			
0.2146	13733.27	4.0370	4.0369	0.8006	7.61	1.64	0.750			
0.2170	13886.84	4.0340	4.0340	0.8051	7.61	1.64	0.750			
0.2194	14043.08	4.0310	4.0310	0.8015	7.61	1.64	0.750			
0.2218	14195.61	4.0280	4.0280	0.8092	7.61	1.64	0.750			
0.2243	14352.51	4.0250	4.0250	0.8164	7.60	1.63	0.750			
0.2267	14508.27	4.0220	4.0221	0.8190	7.60	1.63	0.750			
0.2292	14666.25	4.0190	4.0190	0.8282	7.60	1.63	0.750			
0.2317	14827.20	4.0160	4.0160	0.8279	7.59	1.62	0.750			
0.2342	14986.03	4.0130	4.0130	0.8320	7.59	1.62	0.750			
0.2367	15146.90	4.0100	4.0101	0.8369	7.58	1.61	0.750			
0.2392	15306.67	4.0070	4.0070	0.8378	7.57	1.60	0.750			
0.2417	15468.92	4.0040	4.0040	0.8416	7.57	1.60	0.750			
0.2443	15632.16	4.0010	4.0010	0.8382	7.56	1.59	0.750			
0.2468	15792.39	3.9980	3.9981	0.8426	7.56	1.59	0.750			
0.2493	15953.75	3.9950	3.9950	0.8527	7.56	1.59	0.750			
0.2518	16116.99	3.9920	3.9920	0.8560	7.55	1.58	0.750			
0.2544	16281.90	3.9890	3.9890	0.8578	7.55	1.58	0.750			
0.2570	16447.92	3.9860	3.9861	0.8597	7.54	1.57	0.750			
0.2596	16615.10	3.9830	3.9831	0.8688	7.53	1.56	0.750			
0.2622	16782.82	3.9800	3.9800	0.8687	7.52	1.55	0.750			
0.2648	16948.05	3.9770	3.9769	0.8667	7.51	1.54	0.750			
0.2674	17113.95	3.9740	3.9741	0.8705	7.51	1.54	0.750			
0.2700	17281.76	3.9710	3.9711	0.8748	7.50	1.53	0.750			
0.2727	17450.29	3.9680	3.9680	0.8805	7.50	1.53	0.750			
0.2753	17619.92	3.9650	3.9650	0.8861	7.49	1.52	0.750			
0.2780	17789.10	3.9620	3.9618	0.8885	7.49	1.52	0.750			
0.2807	17961.95	3.9590	3.9591	0.8949	7.48	1.51	0.750			
0.2833	18133.51	3.9560	3.9560	0.8997	7.47	1.50	0.750			
0.2861	18308.18	3.9530	3.9530	0.9041	7.47	1.50	0.750			
0.2888	18482.11	3.9500	3.9500	0.9104	7.46	1.49	0.750			
0.2915	18655.02	3.9470	3.9470	0.9171	7.45	1.48	0.750			
0.2943	18833.48	3.9440	3.9440	0.9152	7.44	1.47	0.750			
0.2970	19008.58	3.9410	3.9410	0.9269	7.44	1.47	0.750			
0.2998	19186.65	3.9380	3.9381	0.9365	7.44	1.47	0.750			
0.3026	19367.51	3.9350	3.9349	0.9445	7.43	1.46	0.750			
0.3055	19550.60	3.9320	3.9320	0.9527	7.42	1.45	0.750			
0.3083	19733.75	3.9290	3.9290	0.9576	7.42	1.45	0.750			
0.3112	19919.59	3.9260	3.9261	0.9632	7.41	1.44	0.750			
0.3142	20106.49	3.9230	3.9230	0.9652	7.40	1.43	0.750			
0.3171	20293.40	3.9200	3.9200	0.9642	7.40	1.43	0.750			
0.3199	20476.64	3.9170	3.9170	0.9729	7.39	1.42	0.750			
0.3229	20662.68	3.9140	3.9140	0.9862	7.38	1.41	0.750			
0.3258	20853.06	3.9110	3.9110	0.9976	7.38	1.41	0.750			
0.3288	21045.99	3.9080	3.9080	1.0094	7.37	1.40	0.750			
0.3319	21241.40	3.9050	3.9051	1.0145	7.36	1.39	0.750			
0.3349	21436.45	3.9020	3.9021	1.0329	7.35	1.38	0.750			
0.3381	21636.53	3.8990	3.8990	1.0457	7.34	1.37	0.750			
0.3412	21838.26	3.8960	3.8957	1.0486	7.33	1.36	0.750			
0.3444	22040.23	3.8930	3.8932	1.0637	7.32	1.35	0.750			
0.3476	22247.47	3.8900	3.8901	1.0771	7.31	1.34	0.750			
0.3509	22456.44	3.8870	3.8870	1.0901	7.30	1.33	0.750			
0.3541	22664.80	3.8840	3.8839	1.0918	7.29	1.32	0.750			
0.3574	22874.09	3.8810	3.8811	1.1116	7.28	1.31	0.750			
0.3608	23091.90	3.8780	3.8779	1.1255	7.27	1.30	0.750			
0.3642	23309.96	3.8750	3.8750	1.1361	7.26	1.29	0.750			
0.3676	23529.34	3.8720	3.8721	1.1441	7.24	1.27	0.750			
0.3711	23749.96	3.8690	3.8691	1.1642	7.23	1.26	0.750			
0.3746	23973.76	3.8660	3.8659	1.1776	7.22	1.25	0.750			
0.3781	24199.82	3.8630	3.8628	1.1876	7.21	1.24	0.750			
0.3817	24428.48	3.8600	3.8600	1.2077	7.20	1.23	0.750			
0.3854	24664.16	3.8570	3.8570	1.2253	7.19	1.22	0.750			
0.3891	24903.34	3.8540	3.8540	1.2408	7.18	1.21	0.750			
0.3929	25144.37	3.8510	3.8510	1.2505	7.16	1.19	0.750			
0.3966	25382.54	3.8480	3.8480	1.2619	7.15	1.18	0.750			
0.4004	25622.84	3.8450	3.8451	1.3196	7.14	1.17	0.750			
0.4044	25881.41	3.8420	3.8420	1.3369	7.13	1.16	0.750			
0.4085	26141.41	3.8390	3.8390	1.3711	7.11	1.14	0.750	0.398	0.919	
0.4127	26413.37	3.8360	3.8363	1.4072	7.09	1.12	0.750			
0.4170	26686.43	3.8330	3.8331	1.4356	7.07	1.10	0.750			
0.4215	26974.84	3.8300	3.8303	1.4489	7.05	1.08	0.750			
0.4257	27247.22	3.8270	3.8272	1.4447	7.04	1.07	0.750			
0.4302	27530.73	3.8240	3.8240	1.4913	7.02	1.05	0.750			
0.4346	27813.14	3.8210	3.8209	1.4958	7.00	1.03	0.750			
0.4391	28101.96	3.8180	3.8184	1.4903	6.97	1.00	0.750			
0.4432	28365.71	3.8150	3.8156	1.5301	6.95	0.98	0.750			
0.4479	28667.48	3.8120	3.8127	1.6384	6.93	0.96	0.750			
0.4529	28983.44	3.8090	3.8091	1.6963	6.91	0.94	0.750			
0.4582	29325.45	3.8060	3.8064	1.7263	6.89	0.92	0.750			
0.4641	29704.02	3.8030	3.8029	1.7848	6.87	0.90	0.750			
0.4690	30015.56	3.8000	3.7999	1.6859	6.85	0.88	0.750			
0.4738	30321.26	3.7970	3.7972	1.6758	6.83	0.86	0.750			
0.4787	30635.34	3.7940	3.7937	1.7255	6.81	0.84	0.750			
0.4838	30964.56	3.7910	3.7911	1.7723	6.78	0.81	0.750			
0.4893	31314.61	3.7880	3.7882	1.8515	6.75	0.78	0.750			
0.4950	31679.85	3.7850	3.7845	1.8830	6.72	0.75	0.750			
0.5008	32050.72	3.7820	3.7823	1.9334	6.68	0.71	0.750			
0.5067	32429.19	3.7790	3.7792	1.9657	6.65	0.68	0.750			
0.5127	32814.17	3.7760	3.7763	1.9667	6.63	0.66	0.750			
0.5187	33195.30	3.7730	3.7732	2.0082	6.60	0.63	0.750			
0.5247	33577.99	3.7700	3.7702	2.0099	6.57	0.60	0.750			
0.5307	33967.44	3.7670	3.7670	2.0407	6.54	0.57	0.750			
0.5368	34357.57	3.7640	3.7639	2.0689	6.51	0.54	0.750			
0.5431	34757.69	3.7610	3.7612	2.0784	6.48	0.51	0.750			
0.5493	35157.65	3.7580	3.7579	2.0724	6.45	0.48	0.750			
0.5556	35556.12	3.7550	3.7548	2.1001	6.42	0.45	0.750			
0.5618	35956.82	3.7520	3.7522	2.1663	6.39	0.42	0.750			
0.5684	36380.70	3.7490	3.7490	2.2063	6.36	0.39	0.750			
0.5749	36795.71	3.7460	3.7461	2.2656	6.33	0.36	0.750			
0.5820	37249.13	3.7430	3.7428	2.3491	6.30	0.33	0.750			
0.5889	37690.30	3.7400	3.7402	2.3729	6.28	0.31	0.750			
0.5962	38157.66	3.7370	3.7371	2.4573	6.24	0.27	0.750			
0.6035	38624.84	3.7340	3.7339	2.5192	6.21	0.24	0.750			
0.6113	39123.12	3.7310	3.7310	2.5760	6.18	0.21	0.750			
0.6193	39634.64	3.7280	3.7281	2.5212	6.16	0.19	0.750			
0.6268	40112.31	3.7250	3.7249	2.5262	6.13	0.16	0.750			
0.6344	40602.36	3.7220	3.7216	2.4634	6.10	0.13	0.750			
0.6417	41071.33	3.7190	3.7186	2.3815	6.08	0.11	0.750			
0.6489	41526.90	3.7160	3.7160	2.2466	6.05	0.08	0.750			
0.6552	41929.65	3.7130	3.7131	1.9945	6.03	0.06	0.750			
0.6609	42295.00	3.7100	3.7099	1.7982	6.03	0.06	0.750			
0.6662	42638.49	3.7070	3.7067	1.6601	6.03	0.06	0.750			
0.6706	42919.59	3.7040	3.7041	1.4436	6.02	0.05	0.750			
0.6747	43183.26	3.7010	3.7012	1.3156	6.02	0.05	0.750			
0.6784	43418.03	3.6980	3.6975	1.1896	6.01	0.04	0.750			
0.6817	43631.25	3.6950	3.6950	1.0897	6.00	0.03	0.750			
0.6848	43827.33	3.6920	3.6921	1.0199	6.00	0.03	0.750			
0.6877	44012.78	3.6890	3.6889	0.9602	6.00	0.03	0.750			
0.6905	44193.17	3.6860	3.6858	0.9293	5.99	0.02	0.750			
0.6931	44359.73	3.6830	3.6830	0.8730	5.99	0.02	0.750			
0.6957	44525.51	3.6800	3.6801	0.8394	5.98	0.01	0.750			
0.6982	44684.50	3.6770	3.6769	0.8064	5.98	0.01	0.750			
0.7006	44835.85	3.6740	3.6743	0.7704	5.97	0.00	0.750			
0.7028	44980.98	3.6710	3.6708	0.7371	5.97	0.00	0.750			
0.7050	45119.60	3.6680	3.6680	0.7000	5.97	0.00	0.750			
0.7070	45249.67	3.6650	3.6650	0.6616	5.97	0.00	0.750			
0.7090	45374.37	3.6620	3.6620	0.6257	5.97	0.00	0.750			
0.7108	45491.79	3.6590	3.6590	0.5789	5.97	0.00	0.750			
0.7125	45597.05	3.6560	3.6560	0.5377	5.97	0.00	0.750			
0.7140	45695.42	3.6530	3.6530	0.5004	5.97	0.00	0.750			
0.7154	45786.59	3.6500	3.6500	0.4634	5.97	0.00	0.750			
0.7168	45872.41	3.6470	3.6470	0.4285	5.97	0.00	0.750			
0.7180	45950.91	3.6440	3.6441	0.3930	5.97	0.00	0.750			
0.7191	46024.04	3.6410	3.6410	0.3596	5.97	0.00	0.750			
0.7202	46091.02	3.6380	3.6380	0.3275	5.97	0.00	0.750			
0.7211	46148.87	3.6350	3.6349	0.2883	5.97	0.00	0.750			
0.7219	46201.37	3.6320	3.6319	0.2518	5.97	0.00	0.750			
0.7226	46246.41	3.6290	3.6290	0.2157	5.97	0.00	0.750			
0.7232	46284.94	3.6260	3.6261	0.1802	5.97	0.00	0.750			
0.7237	46316.78	3.6230	3.6230	0.1431	5.97	0.00	0.750			
0.7241	46340.91	3.6200	3.6202	0.1036	5.97	0.00	0.750			
0.7243	46356.92	3.6170	3.6177	0.0631	5.97	0.00	0.750			
0.7245	46365.18	3.6140	3.6153	0.0250	5.97	0.00	0.750			
