Ah_balance (normalized)	Ah_balance (mAh)	Voltage - fit (V)	Voltage -  interpolate (V)	dQ/dV (1/V)	Temperature (°C)	Temperature - diff (°C)	Current (C)	R_DC 0ms (mOhm)	R_DC 50ms (mOhm)	R_DC 50 ms PEC (mOhm)
0.1748	11188.90	4.0820	4.0820	0.8044	7.87	1.90	0.750			
0.1772	11340.32	4.0790	4.0790	0.7800	7.87	1.90	0.750			
0.1795	11488.07	4.0760	4.0761	0.7741	7.86	1.89	0.750			
0.1818	11636.23	4.0730	4.0730	0.7749	7.85	1.88	0.750			
0.1841	11785.03	4.0700	4.0699	0.7744	7.84	1.87	0.750			
0.1864	11932.62	4.0670	4.0671	0.7759	7.84	1.87	0.750			
0.1888	12082.69	4.0640	4.0641	0.7813	7.83	1.86	0.750			
0.1911	12233.02	4.0610	4.0609	0.7834	7.82	1.85	0.750			
0.1935	12383.06	4.0580	4.0580	0.7822	7.81	1.84	0.750			
0.1958	12532.67	4.0550	4.0550	0.7857	7.81	1.84	0.750			
0.1982	12683.83	4.0520	4.0521	0.7932	7.80	1.83	0.750			
0.2006	12836.70	4.0490	4.0489	0.8027	7.79	1.82	0.750			
0.2030	12991.24	4.0460	4.0460	0.8054	7.78	1.81	0.750			
0.2055	13149.13	4.0430	4.0430	0.8015	7.78	1.81	0.750			
0.2079	13304.53	4.0400	4.0400	0.8059	7.77	1.80	0.750			
0.2103	13458.03	4.0370	4.0371	0.8092	7.76	1.79	0.750			
0.2127	13611.12	4.0340	4.0339	0.8080	7.75	1.78	0.750			
0.2151	13765.60	4.0310	4.0310	0.8153	7.74	1.77	0.750			
0.2176	13923.66	4.0280	4.0280	0.8122	7.74	1.77	0.750			
0.2200	14081.32	4.0250	4.0250	0.8182	7.73	1.76	0.750			
0.2225	14240.29	4.0220	4.0222	0.8287	7.72	1.75	0.750			
0.2250	14397.36	4.0190	4.0190	0.8269	7.71	1.74	0.750			
0.2274	14555.69	4.0160	4.0160	0.8310	7.70	1.73	0.750			
0.2299	14716.65	4.0130	4.0130	0.8276	7.69	1.72	0.750			
0.2324	14873.99	4.0100	4.0101	0.8343	7.68	1.71	0.750			
0.2350	15037.34	4.0070	4.0070	0.8452	7.67	1.70	0.750			
0.2375	15197.95	4.0040	4.0040	0.8446	7.65	1.68	0.750			
0.2400	15359.68	4.0010	4.0010	0.8496	7.64	1.67	0.750			
0.2426	15524.54	3.9980	3.9982	0.8524	7.64	1.67	0.750			
0.2451	15688.02	3.9950	3.9951	0.8608	7.63	1.66	0.750			
0.2477	15855.46	3.9920	3.9920	0.8628	7.62	1.65	0.750			
0.2503	16021.55	3.9890	3.9889	0.8646	7.61	1.64	0.750			
0.2529	16187.83	3.9860	3.9861	0.8658	7.60	1.63	0.750			
0.2555	16354.32	3.9830	3.9831	0.8668	7.59	1.62	0.750			
0.2581	16520.22	3.9800	3.9800	0.8707	7.58	1.61	0.750			
0.2607	16687.35	3.9770	3.9770	0.8693	7.57	1.60	0.750			
0.2633	16853.60	3.9740	3.9735	0.8739	7.56	1.59	0.750			
0.2660	17022.94	3.9710	3.9711	0.8808	7.55	1.58	0.750			
0.2686	17191.64	3.9680	3.9681	0.8909	7.54	1.57	0.750			
0.2713	17364.56	3.9650	3.9649	0.9004	7.53	1.56	0.750			
0.2740	17537.91	3.9620	3.9619	0.9092	7.53	1.56	0.750			
0.2768	17712.07	3.9590	3.9591	0.9087	7.52	1.55	0.750			
0.2795	17889.91	3.9560	3.9560	0.9047	7.50	1.53	0.750			
0.2822	18063.67	3.9530	3.9531	0.9063	7.49	1.52	0.750			
0.2849	18235.20	3.9500	3.9499	0.9122	7.48	1.51	0.750			
0.2876	18407.33	3.9470	3.9470	0.9132	7.46	1.49	0.750			
0.2904	18586.42	3.9440	3.9439	0.9137	7.45	1.48	0.750			
0.2931	18761.01	3.9410	3.9410	0.9260	7.44	1.47	0.750			
0.2960	18941.49	3.9380	3.9382	0.9380	7.43	1.46	0.750			
0.2988	19123.27	3.9350	3.9351	0.9525	7.42	1.45	0.750			
0.3016	19304.77	3.9320	3.9318	0.9495	7.41	1.44	0.750			
0.3045	19488.98	3.9290	3.9291	0.9489	7.40	1.43	0.750			
0.3073	19670.20	3.9260	3.9261	0.9601	7.38	1.41	0.750			
0.3102	19855.59	3.9230	3.9231	0.9684	7.37	1.40	0.750			
0.3131	20039.56	3.9200	3.9197	0.9752	7.36	1.39	0.750			
0.3161	20228.95	3.9170	3.9170	0.9806	7.35	1.38	0.750			
0.3190	20417.67	3.9140	3.9141	0.9927	7.34	1.37	0.750			
0.3221	20612.27	3.9110	3.9110	1.0129	7.33	1.36	0.750			
0.3251	20806.21	3.9080	3.9079	1.0180	7.31	1.34	0.750			
0.3282	21004.21	3.9050	3.9050	1.0194	7.30	1.33	0.750			
0.3313	21200.20	3.9020	3.9021	1.0367	7.28	1.31	0.750			
0.3344	21400.58	3.8990	3.8990	1.0472	7.27	1.30	0.750			
0.3376	21605.65	3.8960	3.8958	1.0600	7.25	1.28	0.750			
0.3408	21808.04	3.8930	3.8931	1.0547	7.24	1.27	0.750			
0.3439	22007.61	3.8900	3.8902	1.0685	7.22	1.25	0.750			
0.3471	22213.28	3.8870	3.8870	1.0891	7.21	1.24	0.750			
0.3504	22427.87	3.8840	3.8837	1.0951	7.19	1.22	0.750			
0.3537	22634.87	3.8810	3.8810	1.1054	7.18	1.21	0.750			
0.3570	22848.87	3.8780	3.8781	1.1234	7.16	1.19	0.750			
0.3604	23068.67	3.8750	3.8751	1.1449	7.14	1.17	0.750			
0.3639	23291.17	3.8720	3.8718	1.1403	7.13	1.16	0.750			
0.3673	23508.47	3.8690	3.8691	1.1529	7.11	1.14	0.750			
0.3708	23730.32	3.8660	3.8661	1.1688	7.09	1.12	0.750			
0.3744	23960.37	3.8630	3.8630	1.1857	7.08	1.11	0.750			
0.3779	24185.97	3.8600	3.8600	1.1967	7.06	1.09	0.750			
0.3815	24415.54	3.8570	3.8571	1.2232	7.04	1.07	0.750			
0.3852	24652.32	3.8540	3.8541	1.2533	7.03	1.06	0.750			
0.3891	24899.27	3.8510	3.8507	1.2612	7.01	1.04	0.750			
0.3928	25142.34	3.8480	3.8482	1.2873	6.99	1.02	0.750			
0.3967	25387.25	3.8450	3.8451	1.3295	6.97	1.00	0.750			
0.4007	25646.98	3.8420	3.8416	1.3598	6.95	0.98	0.750			
0.4048	25910.33	3.8390	3.8390	1.3875	6.93	0.96	0.750			
0.4091	26181.02	3.8360	3.8364	1.4233	6.91	0.94	0.750	0.398	0.881	
0.4135	26462.16	3.8330	3.8326	1.4495	6.89	0.92	0.750			
0.4179	26744.13	3.8300	3.8301	1.4607	6.87	0.90	0.750			
0.4222	27022.66	3.8270	3.8271	1.4695	6.85	0.88	0.750			
0.4267	27308.20	3.8240	3.8241	1.5016	6.83	0.86	0.750			
0.4312	27595.84	3.8210	3.8210	1.5224	6.80	0.83	0.750			
0.4358	27892.82	3.8180	3.8181	1.5648	6.78	0.81	0.750			
0.4406	28197.06	3.8150	3.8149	1.5698	6.76	0.79	0.750			
0.4453	28501.68	3.8120	3.8122	1.5967	6.74	0.77	0.750			
0.4501	28808.03	3.8090	3.8088	1.6305	6.71	0.74	0.750			
0.4551	29125.27	3.8060	3.8060	1.6637	6.69	0.72	0.750			
0.4601	29445.93	3.8030	3.8029	1.6965	6.67	0.70	0.750			
0.4653	29777.01	3.8000	3.8000	1.7439	6.64	0.67	0.750			
0.4706	30116.12	3.7970	3.7970	1.7676	6.62	0.65	0.750			
0.4759	30459.81	3.7940	3.7938	1.7932	6.59	0.62	0.750			
0.4813	30800.40	3.7910	3.7910	1.7775	6.56	0.59	0.750			
0.4866	31145.09	3.7880	3.7881	1.8252	6.54	0.57	0.750			
0.4922	31502.36	3.7850	3.7852	1.8357	6.51	0.54	0.750			
0.4978	31860.63	3.7820	3.7819	1.8553	6.48	0.51	0.750			
0.5033	32213.58	3.7790	3.7790	1.8973	6.46	0.49	0.750			
0.5090	32575.69	3.7760	3.7760	1.8868	6.43	0.46	0.750			
0.5146	32937.27	3.7730	3.7729	1.9073	6.40	0.43	0.750			
0.5203	33299.46	3.7700	3.7695	1.9163	6.38	0.41	0.750			
0.5261	33669.96	3.7670	3.7668	1.9395	6.35	0.38	0.750			
0.5320	34048.19	3.7640	3.7637	1.9355	6.33	0.36	0.750			
0.5379	34424.46	3.7610	3.7610	1.9644	6.30	0.33	0.750			
0.5438	34801.59	3.7580	3.7580	2.0075	6.28	0.31	0.750			
0.5500	35200.16	3.7550	3.7550	2.0255	6.25	0.28	0.750			
0.5563	35600.08	3.7520	3.7519	2.0703	6.22	0.25	0.750			
0.5624	35995.29	3.7490	3.7489	2.0977	6.19	0.22	0.750			
0.5688	36401.56	3.7460	3.7460	2.1541	6.17	0.20	0.750			
0.5752	36812.72	3.7430	3.7430	2.2158	6.14	0.17	0.750			
0.5821	37256.57	3.7400	3.7399	2.2853	6.11	0.14	0.750			
0.5891	37704.39	3.7370	3.7372	2.3580	6.09	0.12	0.750			
0.5963	38160.47	3.7340	3.7339	2.3871	6.06	0.09	0.750			
0.6034	38620.66	3.7310	3.7311	2.4155	6.04	0.07	0.750			
0.6108	39091.91	3.7280	3.7279	2.4858	6.02	0.05	0.750			
0.6182	39564.95	3.7250	3.7250	2.4005	6.00	0.03	0.750			
0.6254	40028.26	3.7220	3.7219	2.3914	5.99	0.02	0.750			
0.6325	40480.01	3.7190	3.7191	2.2760	5.98	0.01	0.750			
0.6392	40910.85	3.7160	3.7160	2.1325	5.97	-0.00	0.750			
0.6456	41316.81	3.7130	3.7128	1.9702	5.96	-0.01	0.750			
0.6509	41659.43	3.7100	3.7099	1.7366	5.95	-0.02	0.750			
0.6558	41970.34	3.7070	3.7069	1.5529	5.95	-0.02	0.750			
0.6602	42252.82	3.7040	3.7045	1.4116	5.95	-0.02	0.750			
0.6642	42505.60	3.7010	3.7009	1.2739	5.95	-0.02	0.750			
0.6676	42728.24	3.6980	3.6980	1.1982	5.95	-0.02	0.750			
0.6711	42948.49	3.6950	3.6950	1.1422	5.95	-0.02	0.750			
0.6743	43156.43	3.6920	3.6918	1.0814	5.95	-0.02	0.750			
0.6775	43362.87	3.6890	3.6893	1.0306	5.95	-0.02	0.750			
0.6806	43559.21	3.6860	3.6862	0.9880	5.95	-0.02	0.750			
0.6835	43745.67	3.6830	3.6831	0.9491	5.94	-0.03	0.750			
0.6863	43922.74	3.6800	3.6799	0.9004	5.94	-0.03	0.750			
0.6888	44082.81	3.6770	3.6770	0.8460	5.94	-0.03	0.750			
0.6913	44243.47	3.6740	3.6740	0.8169	5.94	-0.03	0.750			
0.6937	44398.16	3.6710	3.6711	0.7891	5.94	-0.03	0.750			
0.6960	44546.61	3.6680	3.6680	0.7571	5.95	-0.02	0.750			
0.6983	44688.32	3.6650	3.6650	0.7247	5.95	-0.02	0.750			
0.7004	44823.89	3.6620	3.6620	0.6941	5.95	-0.02	0.750			
0.7024	44955.10	3.6590	3.6590	0.6664	5.95	-0.02	0.750			
0.7044	45080.47	3.6560	3.6560	0.6355	5.96	-0.01	0.750			
0.7063	45200.26	3.6530	3.6530	0.6050	5.96	-0.01	0.750			
0.7080	45313.45	3.6500	3.6500	0.5695	5.96	-0.01	0.750			
0.7097	45418.92	3.6470	3.6470	0.5412	5.96	-0.01	0.750			
0.7112	45519.44	3.6440	3.6440	0.5115	5.97	-0.00	0.750			
0.7127	45614.68	3.6410	3.6409	0.4809	5.97	-0.00	0.750			
0.7141	45704.76	3.6380	3.6380	0.4497	5.97	0.00	0.750			
0.7155	45789.08	3.6350	3.6351	0.4199	5.97	0.00	0.750			
0.7167	45867.57	3.6320	3.6320	0.3844	5.98	0.01	0.750			
0.7178	45938.85	3.6290	3.6290	0.3495	5.98	0.01	0.750			
0.7188	46001.31	3.6260	3.6259	0.3086	5.98	0.01	0.750			
0.7197	46058.33	3.6230	3.6230	0.2673	5.98	0.01	0.750			
0.7204	46106.60	3.6200	3.6198	0.2277	5.98	0.01	0.750			
0.7210	46146.22	3.6170	3.6170	0.1840	5.98	0.01	0.750			
0.7215	46177.80	3.6140	3.6143	0.1398	5.98	0.01	0.750			
0.7219	46201.67	3.6110	3.6112	0.0947	5.98	0.01	0.750			
0.7221	46217.24	3.6080	3.6081	0.0428	5.98	0.01	0.750			
0.7222	46220.38	3.6050	3.6063	-0.0101	5.98	0.01	0.750			
