Ah_balance (normalized)	Ah_balance (mAh)	Voltage - fit (V)	Voltage -  interpolate (V)	dQ/dV (1/V)	Temperature (°C)	Temperature - diff (°C)	Current (C)	R_DC 0ms (mOhm)	R_DC 50ms (mOhm)	R_DC 50 ms PEC (mOhm)
0.1757	11244.83	4.0820	4.0820	0.7582	7.54	1.55	0.750			
0.1780	11389.01	4.0790	4.0789	0.7539	7.53	1.54	0.750			
0.1802	11535.66	4.0760	4.0761	0.7607	7.53	1.54	0.750			
0.1825	11680.51	4.0730	4.0729	0.7673	7.52	1.53	0.750			
0.1848	11829.69	4.0700	4.0700	0.7730	7.51	1.52	0.750			
0.1872	11980.02	4.0670	4.0670	0.7645	7.51	1.52	0.750			
0.1894	12124.72	4.0640	4.0639	0.7686	7.50	1.51	0.750			
0.1918	12272.34	4.0610	4.0613	0.7757	7.50	1.51	0.750			
0.1941	12420.93	4.0580	4.0581	0.7819	7.49	1.50	0.750			
0.1964	12572.15	4.0550	4.0550	0.7862	7.49	1.50	0.750			
0.1988	12724.04	4.0520	4.0521	0.7858	7.48	1.49	0.750			
0.2013	12880.69	4.0490	4.0490	0.7888	7.48	1.49	0.750			
0.2036	13033.52	4.0460	4.0459	0.7931	7.48	1.49	0.750			
0.2059	13179.51	4.0430	4.0431	0.7890	7.47	1.48	0.750			
0.2082	13327.93	4.0400	4.0404	0.7918	7.47	1.48	0.750			
0.2107	13483.67	4.0370	4.0368	0.7849	7.46	1.47	0.750			
0.2130	13633.93	4.0340	4.0341	0.7918	7.45	1.46	0.750			
0.2154	13783.29	4.0310	4.0313	0.8062	7.44	1.45	0.750			
0.2178	13940.83	4.0280	4.0282	0.8052	7.44	1.45	0.750			
0.2203	14097.33	4.0250	4.0248	0.7999	7.43	1.44	0.750			
0.2226	14249.40	4.0220	4.0223	0.8143	7.43	1.44	0.750			
0.2252	14411.31	4.0190	4.0193	0.8093	7.42	1.43	0.750			
0.2276	14567.21	4.0160	4.0163	0.8184	7.42	1.43	0.750			
0.2300	14718.39	4.0130	4.0130	0.8010	7.41	1.42	0.750			
0.2324	14873.20	4.0100	4.0097	0.8028	7.41	1.42	0.750			
0.2349	15031.38	4.0070	4.0067	0.8152	7.40	1.41	0.750			
0.2373	15187.86	4.0040	4.0048	0.8038	7.39	1.40	0.750			
0.2396	15337.42	4.0010	4.0018	0.8011	7.39	1.40	0.750			
0.2421	15491.22	3.9980	3.9992	0.8144	7.38	1.39	0.750			
0.2445	15645.12	3.9950	3.9956	0.8120	7.37	1.38	0.750			
0.2469	15801.54	3.9920	3.9911	0.8318	7.37	1.38	0.750			
0.2494	15961.25	3.9890	3.9871	0.8517	7.36	1.37	0.750			
0.2520	16128.64	3.9860	3.9863	0.8672	7.35	1.36	0.750			
0.2547	16299.08	3.9830	3.9817	0.8760	7.35	1.36	0.750			
0.2573	16470.01	3.9800	3.9801	0.8858	7.34	1.35	0.750			
0.2600	16642.52	3.9770	3.9770	0.8873	7.33	1.34	0.750			
0.2626	16808.67	3.9740	3.9752	0.8891	7.33	1.34	0.750			
0.2653	16978.24	3.9710	3.9718	0.8857	7.32	1.33	0.750			
0.2679	17143.49	3.9680	3.9690	0.9112	7.31	1.32	0.750			
0.2707	17322.98	3.9650	3.9655	0.9251	7.31	1.32	0.750			
0.2735	17505.71	3.9620	3.9628	0.9290	7.30	1.31	0.750			
0.2764	17689.23	3.9590	3.9592	0.9305	7.29	1.30	0.750			
0.2792	17866.12	3.9560	3.9564	0.9224	7.28	1.29	0.750			
0.2819	18044.66	3.9530	3.9526	0.9157	7.27	1.28	0.750			
0.2847	18218.74	3.9500	3.9503	0.8956	7.26	1.27	0.750			
0.2873	18385.41	3.9470	3.9473	0.8807	7.25	1.26	0.750			
0.2899	18551.34	3.9440	3.9442	0.9065	7.25	1.26	0.750			
0.2926	18729.50	3.9410	3.9411	0.9201	7.24	1.25	0.750			
0.2954	18903.09	3.9380	3.9378	0.9247	7.23	1.24	0.750			
0.2982	19084.80	3.9350	3.9351	0.9282	7.22	1.23	0.750			
0.3011	19267.46	3.9320	3.9323	0.9411	7.22	1.23	0.750			
0.3039	19448.10	3.9290	3.9290	0.9532	7.21	1.22	0.750			
0.3067	19631.76	3.9260	3.9258	0.9517	7.20	1.21	0.750			
0.3096	19814.94	3.9230	3.9230	0.9369	7.19	1.20	0.750			
0.3124	19996.47	3.9200	3.9201	0.9495	7.19	1.20	0.750			
0.3152	20174.56	3.9170	3.9173	0.9697	7.18	1.19	0.750			
0.3181	20360.46	3.9140	3.9142	0.9932	7.17	1.18	0.750			
0.3211	20552.49	3.9110	3.9113	0.9950	7.17	1.18	0.750			
0.3241	20744.37	3.9080	3.9082	1.0081	7.16	1.17	0.750			
0.3273	20945.08	3.9050	3.9052	1.0259	7.15	1.16	0.750			
0.3304	21144.27	3.9020	3.9020	1.0335	7.14	1.15	0.750			
0.3335	21345.72	3.8990	3.8989	1.0052	7.13	1.14	0.750			
0.3365	21536.70	3.8960	3.8961	1.0155	7.12	1.13	0.750			
0.3395	21728.97	3.8930	3.8931	1.0259	7.11	1.12	0.750			
0.3426	21927.66	3.8900	3.8902	1.0418	7.10	1.11	0.750			
0.3457	22125.75	3.8870	3.8870	1.0474	7.09	1.10	0.750			
0.3489	22327.31	3.8840	3.8842	1.0486	7.08	1.09	0.750			
0.3520	22526.58	3.8810	3.8811	1.0693	7.07	1.08	0.750			
0.3552	22735.29	3.8780	3.8782	1.0981	7.06	1.07	0.750			
0.3586	22947.76	3.8750	3.8748	1.0948	7.05	1.06	0.750			
0.3619	23161.51	3.8720	3.8723	1.1313	7.04	1.05	0.750			
0.3654	23383.06	3.8690	3.8691	1.1629	7.02	1.03	0.750			
0.3690	23616.41	3.8660	3.8657	1.1754	7.01	1.02	0.750			
0.3726	23847.38	3.8630	3.8631	1.2062	7.00	1.01	0.750			
0.3761	24068.04	3.8600	3.8600	1.1983	7.00	1.01	0.750			
0.3797	24300.03	3.8570	3.8570	1.2199	6.99	1.00	0.750			
0.3834	24534.63	3.8540	3.8541	1.2104	6.98	0.99	0.750			
0.3867	24748.13	3.8510	3.8513	1.3781	6.97	0.98	0.750			
0.3909	25014.41	3.8480	3.8480	1.5229	6.95	0.96	0.750			
0.3951	25289.25	3.8450	3.8441	1.6552	6.94	0.95	0.750			
0.4001	25604.07	3.8420	3.8409	1.7642	6.92	0.93	0.750			
0.4059	25978.62	3.8390	3.8402	1.7912	6.90	0.91	0.750	0.408	0.886	
0.4111	26312.67	3.8360	3.8366	1.6742	6.88	0.89	0.750			
0.4158	26610.55	3.8330	3.8333	1.6462	6.87	0.88	0.750			
0.4204	26906.39	3.8300	3.8298	1.5610	6.85	0.86	0.750			
0.4246	27173.62	3.8270	3.8268	1.4725	6.83	0.84	0.750			
0.4291	27463.10	3.8240	3.8241	1.4911	6.82	0.83	0.750			
0.4337	27753.87	3.8210	3.8208	1.5223	6.80	0.81	0.750			
0.4383	28052.06	3.8180	3.8182	1.5708	6.78	0.79	0.750			
0.4430	28351.81	3.8150	3.8149	1.5782	6.76	0.77	0.750			
0.4479	28664.27	3.8120	3.8119	1.6109	6.74	0.75	0.750			
0.4526	28969.14	3.8090	3.8093	1.6342	6.73	0.74	0.750			
0.4577	29291.93	3.8060	3.8058	1.6707	6.71	0.72	0.750			
0.4627	29613.37	3.8030	3.8029	1.6785	6.69	0.70	0.750			
0.4677	29932.84	3.8000	3.8001	1.7089	6.68	0.69	0.750			
0.4730	30270.61	3.7970	3.7971	1.7359	6.66	0.67	0.750			
0.4782	30605.51	3.7940	3.7939	1.7758	6.63	0.64	0.750			
0.4835	30946.57	3.7910	3.7912	1.7898	6.60	0.61	0.750			
0.4890	31295.52	3.7880	3.7880	1.8435	6.58	0.59	0.750			
0.4947	31662.00	3.7850	3.7848	1.8496	6.55	0.56	0.750			
0.5003	32021.44	3.7820	3.7821	1.8698	6.53	0.54	0.750			
0.5058	32373.55	3.7790	3.7792	1.8362	6.51	0.52	0.750			
0.5113	32725.53	3.7760	3.7759	1.8403	6.50	0.51	0.750			
0.5169	33078.58	3.7730	3.7728	1.8733	6.48	0.49	0.750			
0.5225	33436.87	3.7700	3.7699	1.8955	6.46	0.47	0.750			
0.5281	33801.54	3.7670	3.7671	1.9082	6.43	0.44	0.750			
0.5339	34172.13	3.7640	3.7640	1.9381	6.40	0.41	0.750			
0.5398	34547.44	3.7610	3.7610	2.0023	6.39	0.40	0.750			
0.5458	34929.95	3.7580	3.7582	2.0274	6.37	0.38	0.750			
0.5520	35327.24	3.7550	3.7551	2.0335	6.34	0.35	0.750			
0.5581	35720.43	3.7520	3.7519	2.0635	6.31	0.32	0.750			
0.5643	36115.40	3.7490	3.7487	2.1079	6.29	0.30	0.750			
0.5706	36515.59	3.7460	3.7459	2.1696	6.27	0.28	0.750			
0.5773	36945.89	3.7430	3.7431	2.2007	6.23	0.24	0.750			
0.5840	37376.93	3.7400	3.7401	2.2481	6.20	0.21	0.750			
0.5906	37800.36	3.7370	3.7370	2.2975	6.18	0.19	0.750			
0.5977	38250.32	3.7340	3.7339	2.4173	6.16	0.17	0.750			
0.6052	38731.88	3.7310	3.7310	2.4575	6.13	0.14	0.750			
0.6128	39216.01	3.7280	3.7281	2.4674	6.10	0.11	0.750			
0.6200	39682.17	3.7250	3.7250	2.3723	6.07	0.08	0.750			
0.6270	40124.87	3.7220	3.7220	2.2821	6.05	0.06	0.750			
0.6339	40569.03	3.7190	3.7189	2.1579	6.04	0.05	0.750			
0.6402	40969.96	3.7160	3.7160	2.0017	6.02	0.03	0.750			
0.6460	41341.82	3.7130	3.7128	1.8067	6.01	0.02	0.750			
0.6510	41665.42	3.7100	3.7103	1.6409	6.00	0.01	0.750			
0.6557	41962.71	3.7070	3.7069	1.4720	5.99	0.00	0.750			
0.6597	42219.62	3.7040	3.7040	1.3166	5.99	-0.00	0.750			
0.6633	42449.04	3.7010	3.7010	1.1772	5.98	-0.01	0.750			
0.6667	42666.47	3.6980	3.6982	1.1000	5.98	-0.01	0.750			
0.6698	42865.86	3.6950	3.6949	1.0225	5.97	-0.02	0.750			
0.6726	43046.40	3.6920	3.6919	0.9572	5.97	-0.02	0.750			
0.6753	43222.24	3.6890	3.6890	0.9247	5.97	-0.02	0.750			
0.6780	43394.61	3.6860	3.6860	0.8958	5.96	-0.03	0.750			
0.6807	43564.28	3.6830	3.6829	0.8686	5.96	-0.03	0.750			
0.6833	43729.80	3.6800	3.6800	0.8384	5.96	-0.03	0.750			
0.6858	43888.47	3.6770	3.6770	0.8097	5.96	-0.03	0.750			
0.6881	44041.56	3.6740	3.6740	0.7790	5.96	-0.03	0.750			
0.6904	44188.18	3.6710	3.6709	0.7460	5.97	-0.02	0.750			
0.6926	44325.86	3.6680	3.6680	0.7097	5.97	-0.02	0.750			
0.6947	44460.89	3.6650	3.6649	0.6827	5.97	-0.02	0.750			
0.6967	44589.36	3.6620	3.6620	0.6528	5.97	-0.02	0.750			
0.6986	44711.99	3.6590	3.6590	0.6210	5.98	-0.01	0.750			
0.7004	44827.50	3.6560	3.6559	0.5883	5.98	-0.01	0.750			
0.7022	44938.26	3.6530	3.6530	0.5553	5.98	-0.01	0.750			
0.7038	45041.85	3.6500	3.6500	0.5222	5.98	-0.01	0.750			
0.7053	45138.62	3.6470	3.6470	0.4879	5.99	-0.00	0.750			
0.7067	45229.51	3.6440	3.6440	0.4540	5.99	-0.00	0.750			
0.7080	45313.13	3.6410	3.6411	0.4196	5.99	0.00	0.750			
0.7092	45390.02	3.6380	3.6380	0.3869	5.99	0.00	0.750			
0.7103	45460.84	3.6350	3.6350	0.3544	5.99	0.00	0.750			
0.7114	45526.49	3.6320	3.6319	0.3217	6.00	0.01	0.750			
0.7123	45584.85	3.6290	3.6291	0.2862	6.00	0.01	0.750			
0.7131	45638.21	3.6260	3.6259	0.2488	6.00	0.01	0.750			
0.7138	45682.69	3.6230	3.6230	0.2109	6.00	0.01	0.750			
0.7144	45720.25	3.6200	3.6201	0.1724	6.00	0.01	0.750			
0.7148	45749.44	3.6170	3.6171	0.1313	6.00	0.01	0.750			
0.7152	45771.29	3.6140	3.6141	0.0903	6.00	0.01	0.750			
0.7154	45785.78	3.6110	3.6046	0.0479	6.00	0.01	0.750			
0.7154	45787.38	3.6050	3.6039	-0.0396	6.00	0.01	0.749			
0.7155	45790.78	3.6080	3.5869	0.0042	6.00	0.01	0.745			
