Ah_balance (normalized)	Ah_balance (mAh)	Voltage - fit (V)	Voltage -  interpolate (V)	dQ/dV (1/V)	Temperature (°C)	Temperature - diff (°C)	Current (C)	R_DC 0ms (mOhm)	R_DC 50ms (mOhm)	R_DC 50 ms PEC (mOhm)
0.1742	11147.77	4.0820	4.0820	0.7718	7.64	1.65	0.750			
0.1765	11297.18	4.0790	4.0790	0.7830	7.62	1.63	0.750			
0.1789	11450.17	4.0760	4.0758	0.7908	7.61	1.62	0.750			
0.1813	11602.04	4.0730	4.0731	0.7914	7.60	1.61	0.750			
0.1837	11757.09	4.0700	4.0700	0.7821	7.59	1.60	0.750			
0.1860	11904.69	4.0670	4.0671	0.7880	7.58	1.59	0.750			
0.1884	12054.86	4.0640	4.0640	0.7920	7.57	1.58	0.750			
0.1907	12204.58	4.0610	4.0611	0.7942	7.56	1.57	0.750			
0.1931	12357.93	4.0580	4.0579	0.7998	7.54	1.55	0.750			
0.1956	12516.00	4.0550	4.0550	0.7946	7.53	1.54	0.750			
0.1980	12668.84	4.0520	4.0521	0.8061	7.52	1.53	0.750			
0.2004	12824.14	4.0490	4.0491	0.8117	7.51	1.52	0.750			
0.2028	12977.90	4.0460	4.0460	0.8077	7.50	1.51	0.750			
0.2052	13131.99	4.0430	4.0428	0.8144	7.49	1.50	0.750			
0.2076	13289.56	4.0400	4.0401	0.8243	7.48	1.49	0.750			
0.2101	13449.43	4.0370	4.0371	0.8269	7.46	1.47	0.750			
0.2126	13609.44	4.0340	4.0340	0.8307	7.45	1.46	0.750			
0.2151	13767.92	4.0310	4.0311	0.8194	7.44	1.45	0.750			
0.2176	13926.66	4.0280	4.0276	0.8228	7.43	1.44	0.750			
0.2201	14087.31	4.0250	4.0252	0.8204	7.42	1.43	0.750			
0.2225	14241.62	4.0220	4.0220	0.8273	7.40	1.41	0.750			
0.2250	14400.54	4.0190	4.0190	0.8335	7.39	1.40	0.750			
0.2275	14559.07	4.0160	4.0161	0.8247	7.38	1.39	0.750			
0.2300	14719.83	4.0130	4.0127	0.8394	7.37	1.38	0.750			
0.2326	14884.59	4.0100	4.0103	0.8390	7.36	1.37	0.750			
0.2351	15045.45	4.0070	4.0069	0.8411	7.35	1.36	0.750			
0.2376	15206.29	4.0040	4.0040	0.8422	7.34	1.35	0.750			
0.2401	15366.80	4.0010	4.0011	0.8412	7.34	1.35	0.750			
0.2426	15528.03	3.9980	3.9980	0.8520	7.33	1.34	0.750			
0.2452	15694.96	3.9950	3.9950	0.8519	7.32	1.33	0.750			
0.2478	15856.95	3.9920	3.9921	0.8584	7.31	1.32	0.750			
0.2504	16023.42	3.9890	3.9891	0.8677	7.30	1.31	0.750			
0.2529	16184.57	3.9860	3.9862	0.8936	7.30	1.31	0.750			
0.2555	16352.98	3.9830	3.9830	0.9283	7.29	1.30	0.750			
0.2584	16536.54	3.9800	3.9799	0.9448	7.28	1.29	0.750			
0.2614	16726.41	3.9770	3.9766	0.9553	7.28	1.29	0.750			
0.2643	16917.00	3.9740	3.9745	0.9585	7.27	1.28	0.750			
0.2673	17105.33	3.9710	3.9710	0.9474	7.27	1.28	0.750			
0.2702	17290.14	3.9680	3.9679	0.9299	7.26	1.27	0.750			
0.2728	17461.58	3.9650	3.9650	0.9117	7.25	1.26	0.750			
0.2754	17625.97	3.9620	3.9620	0.8948	7.24	1.25	0.750			
0.2781	17797.66	3.9590	3.9590	0.8955	7.23	1.24	0.750			
0.2808	17969.67	3.9560	3.9561	0.9021	7.23	1.24	0.750			
0.2835	18144.02	3.9530	3.9530	0.9037	7.22	1.23	0.750			
0.2862	18317.11	3.9500	3.9500	0.9106	7.21	1.22	0.750			
0.2890	18493.38	3.9470	3.9470	0.9185	7.20	1.21	0.750			
0.2917	18668.51	3.9440	3.9439	0.9236	7.19	1.20	0.750			
0.2945	18848.60	3.9410	3.9410	0.9259	7.18	1.19	0.750			
0.2973	19026.74	3.9380	3.9380	0.9385	7.17	1.18	0.750			
0.3001	19207.53	3.9350	3.9350	0.9486	7.16	1.17	0.750			
0.3030	19390.96	3.9320	3.9321	0.9530	7.15	1.16	0.750			
0.3059	19576.39	3.9290	3.9292	0.9551	7.15	1.16	0.750			
0.3087	19759.78	3.9260	3.9260	0.9644	7.14	1.15	0.750			
0.3116	19944.86	3.9230	3.9230	0.9694	7.13	1.14	0.750			
0.3146	20131.37	3.9200	3.9201	0.9779	7.12	1.13	0.750			
0.3175	20319.11	3.9170	3.9169	0.9848	7.11	1.12	0.750			
0.3204	20507.75	3.9140	3.9141	0.9914	7.10	1.11	0.750			
0.3234	20699.53	3.9110	3.9110	1.0049	7.08	1.09	0.750			
0.3265	20894.32	3.9080	3.9080	1.0131	7.07	1.08	0.750			
0.3295	21089.41	3.9050	3.9048	1.0226	7.06	1.07	0.750			
0.3326	21287.84	3.9020	3.9021	1.0263	7.05	1.06	0.750			
0.3357	21484.68	3.8990	3.8990	1.0374	7.04	1.05	0.750			
0.3388	21685.04	3.8960	3.8960	1.0457	7.03	1.04	0.750			
0.3419	21884.51	3.8930	3.8923	1.0580	7.02	1.03	0.750			
0.3451	22086.62	3.8900	3.8901	1.0651	7.01	1.02	0.750			
0.3483	22292.28	3.8870	3.8870	1.0839	7.00	1.01	0.750			
0.3516	22502.32	3.8840	3.8841	1.0979	6.99	1.00	0.750			
0.3549	22716.74	3.8810	3.8807	1.1060	6.98	0.99	0.750			
0.3583	22929.01	3.8780	3.8783	1.1197	6.97	0.98	0.750			
0.3617	23146.53	3.8750	3.8751	1.1361	6.95	0.96	0.750			
0.3651	23364.92	3.8720	3.8721	1.1530	6.94	0.95	0.750			
0.3686	23588.39	3.8690	3.8690	1.1574	6.92	0.93	0.750			
0.3720	23808.98	3.8660	3.8660	1.1796	6.91	0.92	0.750			
0.3756	24039.37	3.8630	3.8630	1.1971	6.90	0.91	0.750			
0.3793	24272.67	3.8600	3.8596	1.2166	6.88	0.89	0.750			
0.3829	24506.04	3.8570	3.8570	1.2279	6.87	0.88	0.750			
0.3866	24742.67	3.8540	3.8540	1.2527	6.85	0.86	0.750			
0.3905	24988.88	3.8510	3.8509	1.2597	6.84	0.85	0.750			
0.3942	25231.04	3.8480	3.8480	1.2886	6.82	0.83	0.750			
0.3981	25477.14	3.8450	3.8450	1.2997	6.81	0.82	0.750			
0.4020	25729.20	3.8420	3.8421	1.3403	6.80	0.81	0.750			
0.4060	25985.49	3.8390	3.8389	1.3787	6.78	0.79	0.750			
0.4103	26256.69	3.8360	3.8358	1.4003	6.76	0.77	0.750	0.401	0.924	
0.4145	26529.94	3.8330	3.8332	1.4310	6.74	0.75	0.750			
0.4190	26817.87	3.8300	3.8301	1.4603	6.72	0.73	0.750			
0.4233	27092.01	3.8270	3.8268	1.4877	6.70	0.71	0.750			
0.4278	27379.24	3.8240	3.8241	1.5114	6.69	0.70	0.750			
0.4323	27670.38	3.8210	3.8207	1.5360	6.67	0.68	0.750			
0.4370	27970.10	3.8180	3.8182	1.5756	6.65	0.66	0.750			
0.4418	28276.53	3.8150	3.8150	1.5860	6.63	0.64	0.750			
0.4467	28586.15	3.8120	3.8123	1.6074	6.61	0.62	0.750			
0.4515	28893.34	3.8090	3.8091	1.6279	6.58	0.59	0.750			
0.4564	29211.75	3.8060	3.8060	1.6501	6.56	0.57	0.750			
0.4614	29531.36	3.8030	3.8030	1.6777	6.55	0.56	0.750			
0.4665	29856.64	3.8000	3.8000	1.7397	6.53	0.54	0.750			
0.4719	30199.13	3.7970	3.7969	1.7516	6.51	0.52	0.750			
0.4772	30537.77	3.7940	3.7938	1.7926	6.48	0.49	0.750			
0.4826	30885.30	3.7910	3.7913	1.8442	6.46	0.47	0.750			
0.4882	31244.20	3.7880	3.7881	1.8525	6.43	0.44	0.750			
0.4939	31607.32	3.7850	3.7849	1.9113	6.40	0.41	0.750			
0.4996	31974.85	3.7820	3.7820	1.8627	6.39	0.40	0.750			
0.5052	32335.49	3.7790	3.7792	1.8594	6.37	0.38	0.750			
0.5107	32681.94	3.7760	3.7756	1.8239	6.34	0.35	0.750			
0.5162	33034.58	3.7730	3.7730	1.9062	6.31	0.32	0.750			
0.5218	33394.50	3.7700	3.7703	2.0184	6.29	0.30	0.750			
0.5282	33806.43	3.7670	3.7670	2.0356	6.27	0.28	0.750			
0.5345	34210.87	3.7640	3.7640	2.0971	6.25	0.26	0.750			
0.5408	34609.17	3.7610	3.7610	2.0928	6.22	0.23	0.750			
0.5469	35002.00	3.7580	3.7582	2.1459	6.19	0.20	0.750			
0.5536	35433.26	3.7550	3.7549	2.1641	6.17	0.18	0.750			
0.5601	35844.59	3.7520	3.7520	2.1394	6.15	0.16	0.750			
0.5664	36250.20	3.7490	3.7488	2.2418	6.13	0.14	0.750			
0.5731	36680.27	3.7460	3.7459	2.2394	6.11	0.12	0.750			
0.5800	37120.84	3.7430	3.7432	2.3112	6.09	0.10	0.750			
0.5873	37586.42	3.7400	3.7398	2.3868	6.07	0.08	0.750			
0.5944	38041.74	3.7370	3.7369	2.3926	6.04	0.05	0.750			
0.6018	38515.49	3.7340	3.7340	2.5183	6.02	0.03	0.750			
0.6093	38995.86	3.7310	3.7309	2.4911	6.00	0.01	0.750			
0.6170	39486.31	3.7280	3.7282	2.5622	5.98	-0.01	0.750			
0.6247	39979.27	3.7250	3.7249	2.5845	5.96	-0.03	0.750			
0.6325	40479.20	3.7220	3.7221	2.5550	5.93	-0.06	0.750			
0.6402	40972.82	3.7190	3.7195	2.5421	5.91	-0.08	0.750			
0.6479	41467.63	3.7160	3.7158	2.3945	5.91	-0.08	0.750			
0.6549	41916.43	3.7130	3.7134	2.2308	5.90	-0.09	0.750			
0.6614	42332.01	3.7100	3.7097	2.0667	5.89	-0.10	0.750			
0.6672	42699.13	3.7070	3.7070	1.8089	5.89	-0.10	0.750			
0.6722	43023.95	3.7040	3.7043	1.6347	5.89	-0.10	0.750			
0.6768	43318.35	3.7010	3.7011	1.4705	5.89	-0.10	0.750			
0.6810	43582.54	3.6980	3.6978	1.2994	5.89	-0.10	0.750			
0.6845	43806.14	3.6950	3.6950	1.1746	5.89	-0.10	0.750			
0.6877	44012.34	3.6920	3.6922	1.0717	5.90	-0.09	0.750			
0.6907	44207.86	3.6890	3.6889	1.0023	5.90	-0.09	0.750			
0.6935	44386.06	3.6860	3.6861	0.9390	5.90	-0.09	0.750			
0.6962	44558.84	3.6830	3.6830	0.8927	5.91	-0.08	0.750			
0.6989	44729.67	3.6800	3.6800	0.8650	5.91	-0.08	0.750			
0.7015	44893.39	3.6770	3.6770	0.8302	5.92	-0.07	0.750			
0.7039	45049.59	3.6740	3.6738	0.8019	5.92	-0.07	0.750			
0.7063	45200.73	3.6710	3.6711	0.7700	5.92	-0.07	0.750			
0.7085	45346.48	3.6680	3.6679	0.7357	5.93	-0.06	0.750			
0.7107	45485.86	3.6650	3.6650	0.6980	5.93	-0.06	0.750			
0.7128	45618.20	3.6620	3.6620	0.6627	5.94	-0.05	0.750			
0.7147	45739.91	3.6590	3.6591	0.6238	5.94	-0.05	0.750			
0.7165	45855.39	3.6560	3.6558	0.5843	5.95	-0.04	0.750			
0.7182	45963.79	3.6530	3.6530	0.5473	5.95	-0.04	0.750			
0.7198	46065.37	3.6500	3.6500	0.5110	5.96	-0.03	0.750			
0.7213	46160.41	3.6470	3.6471	0.4741	5.96	-0.03	0.750			
0.7226	46249.13	3.6440	3.6439	0.4382	5.97	-0.02	0.750			
0.7239	46328.48	3.6410	3.6411	0.3978	5.97	-0.02	0.750			
0.7250	46400.29	3.6380	3.6380	0.3622	5.98	-0.01	0.750			
0.7260	46466.59	3.6350	3.6349	0.3272	5.98	-0.01	0.750			
0.7270	46526.21	3.6320	3.6320	0.2919	5.98	-0.01	0.750			
0.7278	46579.46	3.6290	3.6290	0.2549	5.98	-0.01	0.750			
0.7285	46625.59	3.6260	3.6260	0.2207	5.99	-0.00	0.750			
0.7291	46664.64	3.6230	3.6230	0.1836	5.99	-0.00	0.750			
0.7296	46696.51	3.6200	3.6200	0.1460	5.99	0.00	0.750			
0.7300	46720.24	3.6170	3.6174	0.1072	5.99	0.00	0.750			
0.7303	46736.36	3.6140	3.6148	0.0700	5.99	0.00	0.750			
0.7304	46747.46	3.6110	3.6108	0.0306	5.99	0.00	0.750			
0.7305	46749.58	3.6080	3.6074	-0.0084	5.99	0.00	0.750			
