Ah_balance (normalized)	Ah_balance (mAh)	Voltage - fit (V)	Voltage -  interpolate (V)	dQ/dV (1/V)	Temperature (°C)	Temperature - diff (°C)	Current (C)	R_DC 0ms (mOhm)	R_DC 50ms (mOhm)	R_DC 50 ms PEC (mOhm)
0.1773	11349.77	4.0810	4.0810	0.7413	7.84	1.84	0.750			
0.1796	11493.80	4.0780	4.0780	0.7567	7.83	1.83	0.750			
0.1819	11640.91	4.0750	4.0751	0.7692	7.82	1.82	0.750			
0.1842	11790.01	4.0720	4.0716	0.7785	7.81	1.81	0.750			
0.1866	11941.94	4.0690	4.0691	0.7811	7.80	1.80	0.750			
0.1890	12093.06	4.0660	4.0660	0.7791	7.79	1.79	0.750			
0.1913	12243.72	4.0630	4.0630	0.7848	7.78	1.78	0.750			
0.1936	12391.78	4.0600	4.0600	0.7792	7.76	1.76	0.750			
0.1960	12542.06	4.0570	4.0569	0.7869	7.75	1.75	0.750			
0.1983	12693.56	4.0540	4.0541	0.7949	7.75	1.75	0.750			
0.2007	12847.98	4.0510	4.0509	0.7960	7.74	1.74	0.750			
0.2032	13001.94	4.0480	4.0480	0.8014	7.74	1.74	0.750			
0.2056	13156.67	4.0450	4.0451	0.8056	7.74	1.74	0.750			
0.2080	13311.24	4.0420	4.0420	0.8064	7.73	1.73	0.750			
0.2104	13466.01	4.0390	4.0390	0.8067	7.73	1.73	0.750			
0.2128	13621.72	4.0360	4.0360	0.8027	7.72	1.72	0.750			
0.2152	13774.29	4.0330	4.0330	0.8089	7.71	1.71	0.750			
0.2177	13931.22	4.0300	4.0300	0.8168	7.70	1.70	0.750			
0.2201	14086.44	4.0270	4.0271	0.8192	7.70	1.70	0.750			
0.2226	14243.60	4.0240	4.0241	0.8259	7.69	1.69	0.750			
0.2251	14404.93	4.0210	4.0210	0.8261	7.68	1.68	0.750			
0.2276	14564.55	4.0180	4.0180	0.8308	7.67	1.67	0.750			
0.2301	14723.39	4.0150	4.0151	0.8367	7.66	1.66	0.750			
0.2326	14883.52	4.0120	4.0120	0.8367	7.66	1.66	0.750			
0.2351	15045.47	4.0090	4.0090	0.8409	7.65	1.65	0.750			
0.2376	15208.42	4.0060	4.0060	0.8400	7.64	1.64	0.750			
0.2402	15370.01	4.0030	4.0031	0.8428	7.63	1.63	0.750			
0.2427	15532.68	4.0000	4.0001	0.8449	7.62	1.62	0.750			
0.2452	15692.97	3.9970	3.9970	0.8446	7.61	1.61	0.750			
0.2477	15854.33	3.9940	3.9940	0.8487	7.61	1.61	0.750			
0.2503	16018.86	3.9910	3.9910	0.8513	7.60	1.60	0.750			
0.2529	16182.62	3.9880	3.9880	0.8579	7.59	1.59	0.750			
0.2555	16349.14	3.9850	3.9850	0.8686	7.58	1.58	0.750			
0.2581	16515.57	3.9820	3.9820	0.8684	7.57	1.57	0.750			
0.2607	16683.40	3.9790	3.9790	0.8726	7.57	1.57	0.750			
0.2633	16850.73	3.9760	3.9760	0.8734	7.56	1.56	0.750			
0.2659	17018.68	3.9730	3.9731	0.8820	7.55	1.55	0.750			
0.2686	17189.70	3.9700	3.9700	0.8896	7.54	1.54	0.750			
0.2712	17359.19	3.9670	3.9668	0.8901	7.53	1.53	0.750			
0.2739	17531.83	3.9640	3.9640	0.8903	7.52	1.52	0.750			
0.2766	17703.78	3.9610	3.9611	0.8981	7.51	1.51	0.750			
0.2793	17877.23	3.9580	3.9580	0.9024	7.49	1.49	0.750			
0.2820	18050.21	3.9550	3.9550	0.9050	7.48	1.48	0.750			
0.2847	18221.69	3.9520	3.9519	0.9077	7.47	1.47	0.750			
0.2875	18398.89	3.9490	3.9491	0.9070	7.46	1.46	0.750			
0.2902	18571.48	3.9460	3.9460	0.9212	7.45	1.45	0.750			
0.2930	18749.30	3.9430	3.9430	0.9313	7.44	1.44	0.750			
0.2957	18927.55	3.9400	3.9400	0.9390	7.43	1.43	0.750			
0.2986	19110.37	3.9370	3.9371	0.9466	7.42	1.42	0.750			
0.3015	19293.97	3.9340	3.9341	0.9544	7.41	1.41	0.750			
0.3044	19478.66	3.9310	3.9310	0.9610	7.40	1.40	0.750			
0.3073	19664.03	3.9280	3.9280	0.9615	7.39	1.39	0.750			
0.3101	19848.72	3.9250	3.9250	0.9664	7.38	1.38	0.750			
0.3130	20033.65	3.9220	3.9220	0.9726	7.36	1.36	0.750			
0.3159	20220.46	3.9190	3.9190	0.9816	7.35	1.35	0.750			
0.3189	20409.76	3.9160	3.9160	0.9943	7.34	1.34	0.750			
0.3219	20601.46	3.9130	3.9128	1.0037	7.33	1.33	0.750			
0.3249	20794.64	3.9100	3.9101	1.0112	7.32	1.32	0.750			
0.3280	20990.22	3.9070	3.9070	1.0218	7.30	1.30	0.750			
0.3311	21188.62	3.9040	3.9041	1.0320	7.29	1.29	0.750			
0.3342	21386.53	3.9010	3.9005	1.0363	7.28	1.28	0.750			
0.3373	21585.78	3.8980	3.8981	1.0424	7.27	1.27	0.750			
0.3404	21785.37	3.8950	3.8951	1.0570	7.26	1.26	0.750			
0.3436	21989.85	3.8920	3.8920	1.0720	7.24	1.24	0.750			
0.3469	22199.54	3.8890	3.8887	1.0777	7.23	1.23	0.750			
0.3501	22404.92	3.8860	3.8861	1.0897	7.22	1.22	0.750			
0.3534	22615.44	3.8830	3.8831	1.1021	7.20	1.20	0.750			
0.3567	22828.39	3.8800	3.8801	1.1185	7.19	1.19	0.750			
0.3601	23044.53	3.8770	3.8769	1.1130	7.18	1.18	0.750			
0.3634	23258.75	3.8740	3.8741	1.1425	7.16	1.16	0.750			
0.3669	23480.60	3.8710	3.8710	1.1601	7.15	1.15	0.750			
0.3704	23707.34	3.8680	3.8679	1.1744	7.13	1.13	0.750			
0.3740	23933.34	3.8650	3.8652	1.1906	7.12	1.12	0.750			
0.3776	24163.79	3.8620	3.8621	1.2104	7.10	1.10	0.750			
0.3812	24396.99	3.8590	3.8591	1.2318	7.08	1.08	0.750			
0.3849	24634.36	3.8560	3.8559	1.2369	7.07	1.07	0.750			
0.3887	24876.10	3.8530	3.8530	1.2656	7.05	1.05	0.750			
0.3926	25123.25	3.8500	3.8500	1.2779	7.03	1.03	0.750			
0.3964	25367.69	3.8470	3.8469	1.2959	7.01	1.01	0.750			
0.4002	25611.59	3.8440	3.8441	1.3400	6.99	0.99	0.750			
0.4042	25870.50	3.8410	3.8407	1.3977	6.97	0.97	0.750			
0.4085	26143.97	3.8380	3.8378	1.4341	6.95	0.95	0.750	0.404	0.913	
0.4130	26432.98	3.8350	3.8353	1.4498	6.93	0.93	0.750			
0.4174	26714.66	3.8320	3.8321	1.4672	6.91	0.91	0.750			
0.4218	26998.24	3.8290	3.8289	1.4744	6.89	0.89	0.750			
0.4262	27277.60	3.8260	3.8260	1.4456	6.87	0.87	0.750			
0.4305	27549.45	3.8230	3.8231	1.4708	6.85	0.85	0.750			
0.4349	27831.20	3.8200	3.8201	1.4768	6.83	0.83	0.750			
0.4394	28120.06	3.8170	3.8169	1.4985	6.80	0.80	0.750			
0.4438	28406.21	3.8140	3.8140	1.5614	6.78	0.78	0.750			
0.4485	28703.83	3.8110	3.8113	1.6022	6.76	0.76	0.750			
0.4534	29020.68	3.8080	3.8079	1.6532	6.74	0.74	0.750			
0.4585	29347.18	3.8050	3.8051	1.6639	6.71	0.71	0.750			
0.4637	29677.19	3.8020	3.8021	1.7023	6.68	0.68	0.750			
0.4686	29991.54	3.7990	3.7994	1.7507	6.66	0.66	0.750			
0.4739	30330.04	3.7960	3.7958	1.7669	6.63	0.63	0.750			
0.4793	30675.34	3.7930	3.7927	1.7911	6.60	0.60	0.750			
0.4847	31019.57	3.7900	3.7900	1.8409	6.57	0.57	0.750			
0.4903	31377.78	3.7870	3.7873	1.8727	6.55	0.55	0.750			
0.4960	31743.66	3.7840	3.7838	1.8857	6.52	0.52	0.750			
0.5019	32119.97	3.7810	3.7809	1.9303	6.49	0.49	0.750			
0.5077	32490.77	3.7780	3.7782	1.9829	6.46	0.46	0.750			
0.5136	32869.11	3.7750	3.7752	1.9391	6.43	0.43	0.750			
0.5195	33249.73	3.7720	3.7721	1.9701	6.40	0.40	0.750			
0.5255	33633.15	3.7690	3.7691	1.9653	6.37	0.37	0.750			
0.5312	33995.56	3.7660	3.7663	1.9851	6.35	0.35	0.750			
0.5371	34377.45	3.7630	3.7632	2.0220	6.32	0.32	0.750			
0.5434	34779.49	3.7600	3.7600	2.0576	6.29	0.29	0.750			
0.5497	35178.94	3.7570	3.7570	2.1020	6.26	0.26	0.750			
0.5560	35584.69	3.7540	3.7542	2.1257	6.24	0.24	0.750			
0.5623	35987.86	3.7510	3.7512	2.1296	6.21	0.21	0.750			
0.5688	36400.56	3.7480	3.7478	2.1755	6.18	0.18	0.750			
0.5754	36825.78	3.7450	3.7452	2.2343	6.15	0.15	0.750			
0.5821	37256.89	3.7420	3.7420	2.2748	6.13	0.13	0.750			
0.5891	37702.63	3.7390	3.7390	2.3084	6.10	0.10	0.750			
0.5961	38149.25	3.7360	3.7359	2.4457	6.07	0.07	0.750			
0.6037	38635.83	3.7330	3.7334	2.4665	6.05	0.05	0.750			
0.6112	39115.92	3.7300	3.7304	2.4811	6.03	0.03	0.750			
0.6184	39577.98	3.7270	3.7270	2.4436	6.01	0.01	0.750			
0.6257	40041.66	3.7240	3.7239	2.4175	5.99	-0.01	0.750			
0.6332	40522.50	3.7210	3.7211	2.3751	5.98	-0.02	0.750			
0.6403	40977.13	3.7180	3.7183	2.2897	5.97	-0.03	0.750			
0.6468	41397.22	3.7150	3.7151	2.1281	5.95	-0.05	0.750			
0.6531	41797.11	3.7120	3.7118	1.9533	5.95	-0.05	0.750			
0.6588	42162.26	3.7090	3.7086	1.7811	5.95	-0.05	0.750			
0.6635	42463.42	3.7060	3.7067	1.5235	5.94	-0.06	0.750			
0.6677	42735.97	3.7030	3.7030	1.3691	5.94	-0.06	0.750			
0.6715	42974.78	3.7000	3.6995	1.2236	5.93	-0.07	0.750			
0.6747	43182.81	3.6970	3.6972	1.0839	5.93	-0.07	0.750			
0.6779	43388.73	3.6940	3.6941	1.0392	5.93	-0.07	0.750			
0.6809	43579.34	3.6910	3.6911	0.9896	5.93	-0.07	0.750			
0.6838	43765.68	3.6880	3.6877	0.9514	5.93	-0.07	0.750			
0.6865	43937.92	3.6850	3.6850	0.9044	5.93	-0.07	0.750			
0.6892	44107.65	3.6820	3.6820	0.8753	5.94	-0.06	0.750			
0.6918	44275.13	3.6790	3.6791	0.8444	5.94	-0.06	0.750			
0.6943	44434.77	3.6760	3.6760	0.8079	5.95	-0.05	0.750			
0.6967	44587.06	3.6730	3.6730	0.7752	5.95	-0.05	0.750			
0.6989	44732.73	3.6700	3.6699	0.7391	5.95	-0.05	0.750			
0.7011	44869.90	3.6670	3.6670	0.7044	5.96	-0.04	0.750			
0.7032	45003.36	3.6640	3.6638	0.6618	5.96	-0.04	0.750			
0.7051	45125.90	3.6610	3.6611	0.6305	5.96	-0.04	0.750			
0.7069	45243.32	3.6580	3.6581	0.6021	5.97	-0.03	0.750			
0.7087	45355.31	3.6550	3.6549	0.5694	5.97	-0.03	0.750			
0.7103	45462.18	3.6520	3.6521	0.5341	5.97	-0.03	0.750			
0.7119	45562.04	3.6490	3.6490	0.4993	5.98	-0.02	0.750			
0.7134	45655.03	3.6460	3.6462	0.4620	5.98	-0.02	0.750			
0.7147	45742.81	3.6430	3.6430	0.4285	5.98	-0.02	0.750			
0.7159	45817.79	3.6400	3.6399	0.3872	5.99	-0.01	0.750			
0.7170	45888.02	3.6370	3.6369	0.3510	5.99	-0.01	0.750			
0.7180	45951.62	3.6340	3.6340	0.3176	5.99	-0.01	0.750			
0.7189	46009.91	3.6310	3.6310	0.2842	5.99	-0.01	0.750			
0.7197	46063.24	3.6280	3.6280	0.2495	6.00	-0.00	0.750			
0.7204	46107.80	3.6250	3.6250	0.2117	6.00	-0.00	0.750			
0.7210	46145.22	3.6220	3.6220	0.1731	6.00	-0.00	0.750			
0.7215	46174.94	3.6190	3.6191	0.1331	6.00	-0.00	0.750			
0.7218	46196.71	3.6160	3.6165	0.0920	6.00	0.00	0.750			
0.7221	46211.25	3.6130	3.6137	0.0482	6.00	0.00	0.750			
0.7221	46216.24	3.6100	3.6118	0.0039	6.00	0.00	0.750			
