Ah_balance (normalized)	Ah_balance (mAh)	Voltage - fit (V)	Voltage -  interpolate (V)	dQ/dV (1/V)	Temperature (°C)	Temperature - diff (°C)	Current (C)	R_DC 0ms (mOhm)	R_DC 50ms (mOhm)	R_DC 50 ms PEC (mOhm)
0.0960	6146.23	4.0030	4.0026	-0.0849	5.99	-0.00	-0.750			
0.0963	6166.11	4.0000	3.9998	-0.1149	5.99	-0.00	-0.750			
0.0967	6191.17	3.9970	3.9969	-0.1416	5.99	-0.00	-0.750			
0.0972	6221.05	3.9940	3.9940	-0.1670	5.99	-0.00	-0.750			
0.0977	6255.50	3.9910	3.9911	-0.1927	5.99	-0.00	-0.750			
0.0984	6295.87	3.9880	3.9880	-0.2170	5.99	-0.00	-0.750			
0.0991	6339.80	3.9850	3.9850	-0.2398	5.98	-0.01	-0.750			
0.0998	6388.11	3.9820	3.9820	-0.2619	5.98	-0.01	-0.750			
0.1006	6440.28	3.9790	3.9790	-0.2858	5.98	-0.01	-0.750			
0.1015	6497.24	3.9760	3.9760	-0.3096	5.98	-0.01	-0.750			
0.1025	6558.95	3.9730	3.9729	-0.3330	5.98	-0.01	-0.750			
0.1035	6624.59	3.9700	3.9700	-0.3579	5.98	-0.01	-0.750			
0.1046	6696.52	3.9670	3.9670	-0.3820	5.98	-0.01	-0.750			
0.1058	6772.16	3.9640	3.9640	-0.4068	5.97	-0.02	-0.750			
0.1071	6853.14	3.9610	3.9610	-0.4289	5.97	-0.02	-0.750			
0.1084	6936.96	3.9580	3.9581	-0.4506	5.97	-0.02	-0.750			
0.1098	7026.19	3.9550	3.9550	-0.4726	5.97	-0.02	-0.750			
0.1112	7119.34	3.9520	3.9521	-0.4932	5.97	-0.02	-0.750			
0.1127	7215.85	3.9490	3.9489	-0.5121	5.97	-0.02	-0.750			
0.1143	7316.85	3.9460	3.9461	-0.5337	5.97	-0.02	-0.750			
0.1159	7420.79	3.9430	3.9430	-0.5522	5.97	-0.02	-0.750			
0.1177	7529.85	3.9400	3.9399	-0.5699	5.97	-0.02	-0.750			
0.1194	7640.71	3.9370	3.9370	-0.5839	5.97	-0.02	-0.750			
0.1212	7755.63	3.9340	3.9341	-0.5988	5.97	-0.02	-0.750			
0.1230	7872.14	3.9310	3.9310	-0.6080	5.97	-0.02	-0.750			
0.1248	7989.74	3.9280	3.9280	-0.6188	5.97	-0.02	-0.750			
0.1267	8108.43	3.9250	3.9252	-0.6295	5.97	-0.02	-0.750			
0.1286	8230.53	3.9220	3.9219	-0.6392	5.97	-0.02	-0.750			
0.1305	8353.82	3.9190	3.9190	-0.6507	5.97	-0.02	-0.750			
0.1325	8480.17	3.9160	3.9160	-0.6566	5.97	-0.02	-0.750			
0.1345	8606.90	3.9130	3.9129	-0.6662	5.97	-0.02	-0.750			
0.1365	8737.54	3.9100	3.9100	-0.6749	5.97	-0.02	-0.750			
0.1386	8867.22	3.9070	3.9069	-0.6800	5.98	-0.01	-0.750			
0.1406	8997.69	3.9040	3.9040	-0.6876	5.98	-0.01	-0.750			
0.1427	9132.11	3.9010	3.9010	-0.6924	5.98	-0.01	-0.750			
0.1448	9264.70	3.8980	3.8980	-0.6987	5.99	-0.00	-0.750			
0.1469	9400.06	3.8950	3.8951	-0.7068	5.99	0.00	-0.750			
0.1490	9535.79	3.8920	3.8920	-0.7094	5.99	0.00	-0.750			
0.1511	9673.51	3.8890	3.8890	-0.7148	5.99	0.00	-0.750			
0.1533	9811.13	3.8860	3.8860	-0.7181	6.00	0.01	-0.750			
0.1555	9949.48	3.8830	3.8830	-0.7185	6.00	0.01	-0.750			
0.1576	10088.71	3.8800	3.8800	-0.7245	6.00	0.01	-0.750			
0.1598	10226.76	3.8770	3.8769	-0.7212	6.00	0.01	-0.750			
0.1619	10364.43	3.8740	3.8740	-0.7244	6.01	0.02	-0.750			
0.1641	10503.97	3.8710	3.8710	-0.7311	6.01	0.02	-0.750			
0.1663	10644.57	3.8680	3.8680	-0.7328	6.02	0.03	-0.750			
0.1686	10787.51	3.8650	3.8649	-0.7358	6.02	0.03	-0.750			
0.1708	10929.75	3.8620	3.8621	-0.7365	6.03	0.04	-0.750			
0.1730	11070.12	3.8590	3.8590	-0.7397	6.03	0.04	-0.750			
0.1752	11213.15	3.8560	3.8560	-0.7421	6.04	0.05	-0.750			
0.1774	11355.85	3.8530	3.8529	-0.7431	6.04	0.05	-0.750			
0.1797	11498.36	3.8500	3.8501	-0.7424	6.04	0.05	-0.750			
0.1819	11643.08	3.8470	3.8470	-0.7437	6.05	0.06	-0.750			
0.1841	11784.94	3.8440	3.8441	-0.7426	6.05	0.06	-0.750			
0.1864	11926.73	3.8410	3.8409	-0.7416	6.05	0.06	-0.750			
0.1886	12067.95	3.8380	3.8380	-0.7409	6.06	0.07	-0.750			
0.1908	12209.57	3.8350	3.8350	-0.7414	6.06	0.07	-0.750			
0.1930	12354.23	3.8320	3.8320	-0.7454	6.07	0.08	-0.750			
0.1953	12498.92	3.8290	3.8290	-0.7448	6.07	0.08	-0.750			
0.1975	12641.29	3.8260	3.8259	-0.7446	6.08	0.09	-0.750			
0.1997	12783.63	3.8230	3.8230	-0.7395	6.08	0.09	-0.750			
0.2020	12925.31	3.8200	3.8200	-0.7471	6.09	0.10	-0.750			
0.2042	13067.60	3.8170	3.8170	-0.7522	6.10	0.11	-0.750			
0.2065	13212.97	3.8140	3.8139	-0.7571	6.10	0.11	-0.750			
0.2087	13359.92	3.8110	3.8112	-0.7590	6.11	0.12	-0.750			
0.2111	13507.93	3.8080	3.8080	-0.7623	6.11	0.12	-0.750			
0.2133	13653.81	3.8050	3.8050	-0.7590	6.12	0.13	-0.750			
0.2156	13799.41	3.8020	3.8019	-0.7560	6.12	0.13	-0.750			
0.2179	13943.39	3.7990	3.7990	-0.7555	6.13	0.14	-0.750			
0.2201	14087.96	3.7960	3.7959	-0.7524	6.13	0.14	-0.750			
0.2224	14232.62	3.7930	3.7929	-0.7533	6.13	0.14	-0.750			
0.2246	14376.47	3.7900	3.7900	-0.7570	6.14	0.15	-0.750			
0.2269	14521.12	3.7870	3.7871	-0.7587	6.15	0.16	-0.750			
0.2292	14667.52	3.7840	3.7839	-0.7551	6.16	0.17	-0.750			
0.2315	14813.26	3.7810	3.7810	-0.7608	6.16	0.17	-0.750			
0.2337	14958.95	3.7780	3.7782	-0.7647	6.17	0.18	-0.750			
0.2361	15107.32	3.7750	3.7749	-0.7667	6.17	0.18	-0.750			
0.2383	15254.32	3.7720	3.7719	-0.7682	6.18	0.19	-0.750			
0.2406	15401.34	3.7690	3.7690	-0.7693	6.18	0.19	-0.750			
0.2430	15549.56	3.7660	3.7660	-0.7747	6.19	0.20	-0.750			
0.2453	15700.25	3.7630	3.7629	-0.7726	6.19	0.20	-0.750			
0.2476	15846.54	3.7600	3.7599	-0.7727	6.20	0.21	-0.750			
0.2499	15995.15	3.7570	3.7571	-0.7770	6.20	0.21	-0.750			
0.2523	16144.61	3.7540	3.7540	-0.7829	6.21	0.22	-0.750			
0.2546	16293.98	3.7510	3.7510	-0.7867	6.22	0.23	-0.750			
0.2570	16446.29	3.7480	3.7480	-0.7907	6.23	0.24	-0.750			
0.2594	16598.90	3.7450	3.7451	-0.7954	6.23	0.24	-0.750			
0.2618	16753.52	3.7420	3.7420	-0.8045	6.24	0.25	-0.750			
0.2642	16907.31	3.7390	3.7390	-0.8021	6.24	0.25	-0.750			
0.2666	17061.85	3.7360	3.7360	-0.8031	6.24	0.25	-0.750			
0.2690	17215.55	3.7330	3.7330	-0.8067	6.25	0.26	-0.750			
0.2714	17370.24	3.7300	3.7301	-0.8116	6.25	0.26	-0.750			
0.2739	17526.94	3.7270	3.7269	-0.8173	6.26	0.27	-0.750			
0.2763	17682.88	3.7240	3.7240	-0.8255	6.27	0.28	-0.750			
0.2788	17842.70	3.7210	3.7210	-0.8305	6.28	0.29	-0.750			
0.2813	18004.32	3.7180	3.7180	-0.8391	6.28	0.29	-0.750			
0.2838	18165.78	3.7150	3.7150	-0.8449	6.29	0.30	-0.750			
0.2864	18327.10	3.7120	3.7120	-0.8516	6.29	0.30	-0.750			
0.2889	18491.75	3.7090	3.7090	-0.8596	6.30	0.31	-0.750			
0.2915	18658.10	3.7060	3.7060	-0.8647	6.30	0.31	-0.750			
0.2941	18824.21	3.7030	3.7030	-0.8736	6.31	0.32	-0.750			
0.2968	18994.46	3.7000	3.7001	-0.8808	6.31	0.32	-0.750			
0.2994	19163.58	3.6970	3.6970	-0.8869	6.32	0.33	-0.750			
0.3021	19334.50	3.6940	3.6940	-0.8887	6.32	0.33	-0.750			
0.3047	19503.88	3.6910	3.6910	-0.8962	6.32	0.33	-0.750			
0.3074	19676.46	3.6880	3.6879	-0.9092	6.33	0.34	-0.750			
0.3102	19851.93	3.6850	3.6850	-0.9205	6.33	0.34	-0.750			
0.3130	20029.30	3.6820	3.6820	-0.9281	6.34	0.35	-0.750			
0.3158	20210.56	3.6790	3.6790	-0.9400	6.34	0.35	-0.750			
0.3186	20391.22	3.6760	3.6761	-0.9486	6.35	0.36	-0.750			
0.3215	20575.24	3.6730	3.6730	-0.9563	6.35	0.36	-0.750			
0.3243	20757.50	3.6700	3.6699	-0.9682	6.36	0.37	-0.750			
0.3273	20944.73	3.6670	3.6670	-0.9776	6.37	0.38	-0.750			
0.3302	21134.99	3.6640	3.6638	-0.9888	6.37	0.38	-0.750			
0.3332	21327.25	3.6610	3.6613	-1.0032	6.38	0.39	-0.750			
0.3363	21521.36	3.6580	3.6580	-1.0134	6.39	0.40	-0.750			
0.3393	21717.20	3.6550	3.6549	-1.0181	6.40	0.41	-0.750			
0.3424	21913.35	3.6520	3.6520	-1.0253	6.42	0.43	-0.750			
0.3455	22110.00	3.6490	3.6490	-1.0335	6.43	0.44	-0.750			
0.3486	22308.72	3.6460	3.6459	-1.0476	6.43	0.44	-0.750			
0.3517	22511.06	3.6430	3.6430	-1.0575	6.44	0.45	-0.750			
0.3549	22714.18	3.6400	3.6399	-1.0654	6.44	0.45	-0.750			
0.3581	22918.76	3.6370	3.6373	-1.0821	6.45	0.46	-0.750			
0.3614	23131.00	3.6340	3.6339	-1.0988	6.46	0.47	-0.750			
0.3647	23343.27	3.6310	3.6309	-1.1028	6.47	0.48	-0.750			
0.3680	23554.86	3.6280	3.6280	-1.1109	6.48	0.49	-0.750			
0.3714	23770.58	3.6250	3.6251	-1.1284	6.49	0.50	-0.750			
0.3748	23987.77	3.6220	3.6219	-1.1296	6.50	0.51	-0.750			
0.3782	24205.47	3.6190	3.6190	-1.1352	6.51	0.52	-0.750			
0.3816	24422.16	3.6160	3.6161	-1.1425	6.52	0.53	-0.750			
0.3850	24643.02	3.6130	3.6130	-1.1612	6.52	0.53	-0.750			
0.3886	24867.65	3.6100	3.6099	-1.1723	6.53	0.54	-0.750			
0.3920	25091.20	3.6070	3.6070	-1.1839	6.54	0.55	-0.750			
0.3956	25320.97	3.6040	3.6042	-1.1975	6.55	0.56	-0.750			
0.3993	25554.30	3.6010	3.6009	-1.2194	6.56	0.57	-0.750			
0.4030	25789.81	3.5980	3.5980	-1.2318	6.56	0.57	-0.750			
0.4067	26026.66	3.5950	3.5950	-1.2425	6.57	0.58	-0.750			
0.4104	26268.54	3.5920	3.5920	-1.2595	6.57	0.58	-0.750	0.466	1.071	
0.4142	26511.49	3.5890	3.5890	-1.2665	6.58	0.59	-0.750			
0.4180	26752.70	3.5860	3.5859	-1.2754	6.59	0.60	-0.750			
0.4218	26996.64	3.5830	3.5832	-1.2926	6.59	0.60	-0.750			
0.4258	27249.52	3.5800	3.5799	-1.3086	6.60	0.61	-0.750			
0.4298	27504.00	3.5770	3.5769	-1.3223	6.60	0.61	-0.750			
0.4338	27760.20	3.5740	3.5742	-1.3411	6.61	0.62	-0.750			
0.4378	28019.25	3.5710	3.5709	-1.3532	6.62	0.63	-0.750			
0.4419	28280.75	3.5680	3.5679	-1.3617	6.62	0.63	-0.750			
0.4460	28541.08	3.5650	3.5653	-1.3780	6.63	0.64	-0.750			
0.4502	28810.36	3.5620	3.5619	-1.3907	6.64	0.65	-0.750			
0.4543	29078.35	3.5590	3.5590	-1.3993	6.64	0.65	-0.750			
0.4585	29347.08	3.5560	3.5563	-1.4177	6.65	0.66	-0.750			
0.4629	29624.90	3.5530	3.5529	-1.4274	6.66	0.67	-0.750			
0.4671	29895.17	3.5500	3.5499	-1.4500	6.66	0.67	-0.750			
0.4715	30176.45	3.5470	3.5472	-1.4518	6.67	0.68	-0.750			
0.4759	30456.49	3.5440	3.5439	-1.4737	6.68	0.69	-0.750			
0.4803	30740.79	3.5410	3.5410	-1.4827	6.69	0.70	-0.750			
0.4848	31025.42	3.5380	3.5380	-1.4854	6.69	0.70	-0.750			
0.4893	31313.80	3.5350	3.5349	-1.5046	6.70	0.71	-0.750			
0.4938	31603.24	3.5320	3.5319	-1.5183	6.71	0.72	-0.750			
0.4983	31893.91	3.5290	3.5290	-1.5325	6.71	0.72	-0.750			
0.5030	32190.67	3.5260	3.5259	-1.5581	6.72	0.73	-0.750			
0.5077	32490.61	3.5230	3.5229	-1.5573	6.73	0.74	-0.750			
0.5124	32792.92	3.5200	3.5200	-1.5632	6.74	0.75	-0.750			
0.5171	33096.02	3.5170	3.5169	-1.5810	6.74	0.75	-0.750			
0.5218	33397.99	3.5140	3.5140	-1.5771	6.75	0.76	-0.750			
0.5266	33701.37	3.5110	3.5111	-1.5824	6.76	0.77	-0.750			
0.5313	34005.93	3.5080	3.5080	-1.5815	6.78	0.79	-0.750			
0.5361	34308.03	3.5050	3.5048	-1.5782	6.79	0.80	-0.750			
0.5409	34615.96	3.5020	3.5020	-1.5807	6.80	0.81	-0.750			
0.5456	34917.25	3.4990	3.4991	-1.5749	6.81	0.82	-0.750			
0.5503	35220.41	3.4960	3.4960	-1.5822	6.82	0.83	-0.750			
0.5550	35520.43	3.4930	3.4929	-1.5646	6.83	0.84	-0.750			
0.5598	35824.32	3.4900	3.4900	-1.5621	6.84	0.85	-0.750			
0.5644	36122.63	3.4870	3.4869	-1.5591	6.85	0.86	-0.750			
0.5691	36420.70	3.4840	3.4840	-1.5595	6.86	0.87	-0.750			
0.5738	36720.70	3.4810	3.4809	-1.5563	6.87	0.88	-0.750			
0.5785	37022.27	3.4780	3.4780	-1.5564	6.89	0.90	-0.750			
0.5831	37321.02	3.4750	3.4751	-1.5419	6.91	0.92	-0.750			
0.5878	37618.85	3.4720	3.4719	-1.5360	6.92	0.93	-0.750			
0.5924	37914.26	3.4690	3.4692	-1.5291	6.94	0.95	-0.750			
0.5969	38203.83	3.4660	3.4660	-1.5134	6.95	0.96	-0.750			
0.6015	38495.47	3.4630	3.4632	-1.5048	6.96	0.97	-0.750			
0.6060	38783.48	3.4600	3.4599	-1.4933	6.97	0.98	-0.750			
0.6105	39068.96	3.4570	3.4571	-1.4824	6.99	1.00	-0.750			
0.6149	39355.55	3.4540	3.4539	-1.4691	7.01	1.02	-0.750			
0.6193	39636.42	3.4510	3.4509	-1.4510	7.02	1.03	-0.750			
0.6236	39911.26	3.4480	3.4479	-1.4221	7.04	1.05	-0.750			
0.6279	40183.24	3.4450	3.4450	-1.4021	7.05	1.06	-0.750			
0.6320	40449.83	3.4420	3.4420	-1.3857	7.07	1.08	-0.750			
0.6361	40711.89	3.4390	3.4389	-1.3608	7.08	1.09	-0.750			
0.6403	40976.25	3.4360	3.4359	-1.3386	7.09	1.10	-0.750			
0.6442	41230.50	3.4330	3.4330	-1.3173	7.10	1.11	-0.750			
0.6482	41481.87	3.4300	3.4299	-1.2865	7.12	1.13	-0.750			
0.6520	41728.03	3.4270	3.4270	-1.2639	7.14	1.15	-0.750			
0.6557	41965.89	3.4240	3.4238	-1.2368	7.17	1.18	-0.750			
0.6593	42197.61	3.4210	3.4212	-1.2098	7.18	1.19	-0.750			
0.6630	42430.92	3.4180	3.4179	-1.1929	7.20	1.21	-0.750			
0.6666	42659.90	3.4150	3.4149	-1.1689	7.21	1.22	-0.750			
0.6700	42881.93	3.4120	3.4120	-1.1421	7.23	1.24	-0.750			
0.6734	43100.75	3.4090	3.4090	-1.1203	7.24	1.25	-0.750			
0.6768	43312.31	3.4060	3.4060	-1.0890	7.26	1.27	-0.750			
0.6800	43518.86	3.4030	3.4029	-1.0602	7.28	1.29	-0.750			
0.6831	43717.56	3.4000	3.4001	-1.0314	7.30	1.31	-0.750			
0.6862	43914.72	3.3970	3.3970	-1.0102	7.32	1.33	-0.750			
0.6892	44106.72	3.3940	3.3939	-0.9824	7.33	1.34	-0.750			
0.6921	44292.33	3.3910	3.3910	-0.9542	7.35	1.36	-0.750			
0.6949	44472.99	3.3880	3.3880	-0.9288	7.36	1.37	-0.750			
0.6976	44649.28	3.3850	3.3850	-0.9082	7.38	1.39	-0.750			
0.7003	44822.04	3.3820	3.3819	-0.8819	7.39	1.40	-0.750			
0.7029	44987.01	3.3790	3.3789	-0.8561	7.40	1.41	-0.750			
0.7054	45148.65	3.3760	3.3760	-0.8347	7.42	1.43	-0.750			
0.7079	45308.06	3.3730	3.3730	-0.8167	7.43	1.44	-0.750			
0.7103	45462.02	3.3700	3.3699	-0.7938	7.44	1.45	-0.750			
0.7127	45612.26	3.3670	3.3670	-0.7720	7.45	1.46	-0.750			
0.7150	45758.54	3.3640	3.3640	-0.7488	7.47	1.48	-0.750			
0.7172	45900.67	3.3610	3.3610	-0.7300	7.48	1.49	-0.750			
0.7194	46038.78	3.3580	3.3581	-0.7083	7.49	1.50	-0.750			
0.7214	46172.19	3.3550	3.3550	-0.6914	7.50	1.51	-0.750			
0.7235	46302.52	3.3520	3.3520	-0.6754	7.51	1.52	-0.750			
0.7255	46430.83	3.3490	3.3490	-0.6615	7.53	1.54	-0.750			
0.7275	46557.70	3.3460	3.3460	-0.6637	7.54	1.55	-0.750			
