Ah_balance (normalized)	Ah_balance (mAh)	Voltage - fit (V)	Voltage -  interpolate (V)	dQ/dV (1/V)	Temperature (°C)	Temperature - diff (°C)	Current (C)	R_DC 0ms (mOhm)	R_DC 50ms (mOhm)	R_DC 50 ms PEC (mOhm)
0.1791	11465.00	4.0820	4.0821	0.7290	7.09	1.10	0.750			
0.1814	11607.49	4.0790	4.0790	0.7531	7.09	1.10	0.750			
0.1837	11756.98	4.0760	4.0760	0.7714	7.08	1.09	0.750			
0.1860	11904.51	4.0730	4.0731	0.7809	7.08	1.09	0.750			
0.1884	12057.81	4.0700	4.0700	0.7925	7.08	1.09	0.750			
0.1908	12209.35	4.0670	4.0670	0.7957	7.07	1.08	0.750			
0.1932	12362.87	4.0640	4.0639	0.8004	7.07	1.08	0.750			
0.1956	12518.13	4.0610	4.0610	0.8021	7.07	1.08	0.750			
0.1980	12673.47	4.0580	4.0580	0.7993	7.06	1.07	0.750			
0.2004	12825.87	4.0550	4.0552	0.8048	7.06	1.07	0.750			
0.2028	12978.17	4.0520	4.0520	0.8037	7.05	1.06	0.750			
0.2052	13133.94	4.0490	4.0488	0.8079	7.05	1.06	0.750			
0.2076	13288.30	4.0460	4.0461	0.8132	7.05	1.06	0.750			
0.2101	13445.49	4.0430	4.0431	0.8137	7.04	1.05	0.750			
0.2126	13604.58	4.0400	4.0400	0.8207	7.04	1.05	0.750			
0.2150	13760.58	4.0370	4.0370	0.8190	7.03	1.04	0.750			
0.2175	13918.01	4.0340	4.0339	0.8206	7.03	1.04	0.750			
0.2200	14076.86	4.0310	4.0309	0.8220	7.03	1.04	0.750			
0.2224	14235.04	4.0280	4.0281	0.8229	7.03	1.04	0.750			
0.2249	14392.45	4.0250	4.0250	0.8261	7.02	1.03	0.750			
0.2274	14551.62	4.0220	4.0220	0.8286	7.02	1.03	0.750			
0.2299	14710.78	4.0190	4.0189	0.8332	7.02	1.03	0.750			
0.2324	14870.41	4.0160	4.0161	0.8366	7.02	1.03	0.750			
0.2349	15032.48	4.0130	4.0130	0.8384	7.02	1.03	0.750			
0.2374	15194.96	4.0100	4.0101	0.8429	7.01	1.02	0.750			
0.2399	15354.96	4.0070	4.0070	0.8421	7.01	1.02	0.750			
0.2424	15516.30	4.0040	4.0039	0.8479	7.01	1.02	0.750			
0.2450	15679.90	4.0010	4.0010	0.8520	7.00	1.01	0.750			
0.2476	15844.00	3.9980	3.9980	0.8561	6.99	1.00	0.750			
0.2502	16009.79	3.9950	3.9950	0.8641	6.99	1.00	0.750			
0.2528	16177.31	3.9920	3.9920	0.8696	6.98	0.99	0.750			
0.2554	16344.83	3.9890	3.9889	0.8700	6.97	0.98	0.750			
0.2580	16513.05	3.9860	3.9860	0.8684	6.97	0.98	0.750			
0.2606	16678.46	3.9830	3.9831	0.8690	6.97	0.98	0.750			
0.2632	16845.05	3.9800	3.9800	0.8725	6.97	0.98	0.750			
0.2658	17013.00	3.9770	3.9770	0.8755	6.97	0.98	0.750			
0.2684	17178.34	3.9740	3.9740	0.8795	6.97	0.98	0.750			
0.2711	17350.78	3.9710	3.9710	0.8739	6.96	0.97	0.750			
0.2737	17518.36	3.9680	3.9680	0.8872	6.95	0.96	0.750			
0.2764	17689.10	3.9650	3.9650	0.8917	6.94	0.95	0.750			
0.2791	17860.03	3.9620	3.9622	0.8970	6.93	0.94	0.750			
0.2818	18033.62	3.9590	3.9590	0.9024	6.93	0.94	0.750			
0.2845	18207.85	3.9560	3.9561	0.9035	6.92	0.93	0.750			
0.2872	18381.46	3.9530	3.9532	0.9083	6.92	0.93	0.750			
0.2900	18559.01	3.9500	3.9500	0.9191	6.91	0.92	0.750			
0.2927	18730.91	3.9470	3.9469	0.9183	6.91	0.92	0.750			
0.2954	18908.19	3.9440	3.9440	0.9251	6.91	0.92	0.750			
0.2982	19085.87	3.9410	3.9410	0.9344	6.90	0.91	0.750			
0.3011	19268.09	3.9380	3.9381	0.9467	6.90	0.91	0.750			
0.3039	19450.90	3.9350	3.9350	0.9493	6.89	0.90	0.750			
0.3068	19635.59	3.9320	3.9320	0.9501	6.89	0.90	0.750			
0.3097	19818.26	3.9290	3.9290	0.9548	6.88	0.89	0.750			
0.3125	20000.72	3.9260	3.9261	0.9616	6.88	0.89	0.750			
0.3154	20186.07	3.9230	3.9231	0.9676	6.87	0.88	0.750			
0.3183	20370.67	3.9200	3.9201	0.9728	6.87	0.88	0.750			
0.3212	20557.66	3.9170	3.9170	0.9834	6.86	0.87	0.750			
0.3242	20748.12	3.9140	3.9140	0.9968	6.86	0.87	0.750			
0.3272	20941.02	3.9110	3.9110	1.0033	6.85	0.86	0.750			
0.3302	21134.04	3.9080	3.9080	1.0166	6.85	0.86	0.750			
0.3333	21330.01	3.9050	3.9050	1.0238	6.84	0.85	0.750			
0.3364	21527.43	3.9020	3.9020	1.0367	6.83	0.84	0.750			
0.3395	21727.18	3.8990	3.8990	1.0481	6.82	0.83	0.750			
0.3427	21931.67	3.8960	3.8958	1.0524	6.81	0.82	0.750			
0.3458	22132.91	3.8930	3.8930	1.0711	6.80	0.81	0.750			
0.3491	22340.08	3.8900	3.8901	1.0861	6.80	0.81	0.750			
0.3523	22549.56	3.8870	3.8870	1.0953	6.79	0.80	0.750			
0.3557	22762.01	3.8840	3.8839	1.1054	6.79	0.80	0.750			
0.3590	22976.02	3.8810	3.8811	1.1197	6.78	0.79	0.750			
0.3624	23192.52	3.8780	3.8781	1.1333	6.77	0.78	0.750			
0.3658	23412.06	3.8750	3.8749	1.1434	6.76	0.77	0.750			
0.3692	23630.17	3.8720	3.8720	1.1439	6.74	0.75	0.750			
0.3727	23851.27	3.8690	3.8691	1.1585	6.73	0.74	0.750			
0.3761	24072.52	3.8660	3.8660	1.1817	6.72	0.73	0.750			
0.3797	24301.30	3.8630	3.8627	1.1993	6.71	0.72	0.750			
0.3833	24532.09	3.8600	3.8600	1.2140	6.70	0.71	0.750			
0.3870	24767.84	3.8570	3.8570	1.2377	6.69	0.70	0.750			
0.3908	25013.59	3.8540	3.8541	1.2537	6.68	0.69	0.750			
0.3946	25254.85	3.8510	3.8509	1.2732	6.68	0.69	0.750			
0.3984	25498.83	3.8480	3.8480	1.2871	6.67	0.68	0.750			
0.4023	25747.26	3.8450	3.8451	1.3065	6.66	0.67	0.750			
0.4062	25995.67	3.8420	3.8421	1.3500	6.65	0.66	0.750			
0.4103	26258.64	3.8390	3.8390	1.3823	6.63	0.64	0.750			
0.4145	26530.19	3.8360	3.8361	1.4091	6.62	0.63	0.750	0.387	0.946	
0.4188	26806.09	3.8330	3.8330	1.4521	6.61	0.62	0.750			
0.4231	27080.59	3.8300	3.8302	1.4898	6.59	0.60	0.750			
0.4277	27375.13	3.8270	3.8272	1.5143	6.58	0.59	0.750			
0.4323	27666.29	3.8240	3.8239	1.5144	6.56	0.57	0.750			
0.4368	27957.57	3.8210	3.8211	1.5317	6.55	0.56	0.750			
0.4415	28258.08	3.8180	3.8182	1.5494	6.53	0.54	0.750			
0.4461	28551.52	3.8150	3.8150	1.5773	6.52	0.53	0.750			
0.4508	28852.91	3.8120	3.8120	1.6101	6.50	0.51	0.750			
0.4557	29162.39	3.8090	3.8091	1.6636	6.49	0.50	0.750			
0.4608	29491.89	3.8060	3.8062	1.6975	6.47	0.48	0.750			
0.4660	29825.14	3.8030	3.8030	1.7272	6.45	0.46	0.750			
0.4713	30163.36	3.8000	3.8002	1.7628	6.44	0.45	0.750			
0.4766	30501.75	3.7970	3.7972	1.7987	6.42	0.43	0.750			
0.4822	30858.69	3.7940	3.7939	1.8323	6.40	0.41	0.750			
0.4876	31208.37	3.7910	3.7911	1.8725	6.38	0.39	0.750			
0.4933	31572.36	3.7880	3.7883	1.9092	6.36	0.37	0.750			
0.4991	31939.88	3.7850	3.7850	1.9303	6.34	0.35	0.750			
0.5051	32324.17	3.7820	3.7819	1.9758	6.33	0.34	0.750			
0.5112	32715.48	3.7790	3.7790	2.0187	6.31	0.32	0.750			
0.5171	33096.77	3.7760	3.7761	2.0125	6.29	0.30	0.750			
0.5232	33485.76	3.7730	3.7728	2.0573	6.27	0.28	0.750			
0.5294	33883.08	3.7700	3.7699	2.0893	6.25	0.26	0.750			
0.5359	34296.45	3.7670	3.7672	2.1351	6.23	0.24	0.750			
0.5422	34702.73	3.7640	3.7639	2.1537	6.21	0.22	0.750			
0.5487	35117.36	3.7610	3.7611	2.2020	6.19	0.20	0.750			
0.5555	35550.50	3.7580	3.7580	2.2026	6.17	0.18	0.750			
0.5621	35972.00	3.7550	3.7550	2.2456	6.15	0.16	0.750			
0.5689	36409.88	3.7520	3.7517	2.3016	6.13	0.14	0.750			
0.5758	36851.34	3.7490	3.7491	2.3436	6.10	0.11	0.750			
0.5831	37318.90	3.7460	3.7460	2.3976	6.08	0.09	0.750			
0.5900	37762.17	3.7430	3.7430	2.4614	6.06	0.07	0.750			
0.5976	38244.72	3.7400	3.7399	2.5457	6.04	0.05	0.750			
0.6054	38745.67	3.7370	3.7372	2.6463	6.03	0.04	0.750			
0.6134	39260.64	3.7340	3.7341	2.7514	6.00	0.01	0.750			
0.6217	39789.78	3.7310	3.7310	2.8094	5.98	-0.01	0.750			
0.6304	40345.30	3.7280	3.7282	2.9292	5.97	-0.02	0.750			
0.6395	40927.90	3.7250	3.7251	2.9394	5.95	-0.04	0.750			
0.6482	41487.14	3.7220	3.7220	2.8740	5.94	-0.05	0.750			
0.6567	42029.16	3.7190	3.7190	2.6891	5.93	-0.06	0.750			
0.6644	42524.09	3.7160	3.7160	2.4822	5.91	-0.08	0.750			
0.6716	42980.69	3.7130	3.7128	2.2332	5.91	-0.08	0.750			
0.6778	43382.22	3.7100	3.7102	1.9758	5.91	-0.08	0.750			
0.6834	43736.40	3.7070	3.7069	1.7528	5.91	-0.08	0.750			
0.6882	44047.34	3.7040	3.7041	1.5479	5.91	-0.08	0.750			
0.6924	44314.44	3.7010	3.7006	1.3541	5.91	-0.08	0.750			
0.6961	44549.88	3.6980	3.6980	1.2103	5.92	-0.07	0.750			
0.6994	44761.41	3.6950	3.6950	1.1029	5.92	-0.07	0.750			
0.7024	44952.43	3.6920	3.6919	0.9971	5.93	-0.06	0.750			
0.7052	45133.31	3.6890	3.6891	0.9299	5.93	-0.06	0.750			
0.7078	45300.31	3.6860	3.6860	0.8677	5.93	-0.06	0.750			
0.7104	45462.74	3.6830	3.6832	0.8198	5.94	-0.05	0.750			
0.7127	45615.07	3.6800	3.6799	0.7747	5.94	-0.05	0.750			
0.7150	45760.18	3.6770	3.6770	0.7278	5.95	-0.04	0.750			
0.7171	45895.98	3.6740	3.6738	0.6813	5.95	-0.04	0.750			
0.7191	46022.90	3.6710	3.6711	0.6364	5.96	-0.03	0.750			
0.7209	46140.41	3.6680	3.6679	0.5877	5.96	-0.03	0.750			
0.7226	46248.06	3.6650	3.6650	0.5380	5.97	-0.02	0.750			
0.7241	46345.30	3.6620	3.6620	0.4893	5.97	-0.02	0.750			
0.7255	46435.08	3.6590	3.6591	0.4457	5.98	-0.01	0.750			
0.7268	46516.64	3.6560	3.6559	0.4058	5.98	-0.01	0.750			
0.7280	46589.48	3.6530	3.6530	0.3663	5.98	-0.01	0.750			
0.7290	46655.37	3.6500	3.6501	0.3287	5.99	-0.00	0.750			
0.7299	46714.86	3.6470	3.6467	0.2940	5.99	-0.00	0.750			
0.7308	46768.16	3.6440	3.6441	0.2601	5.99	0.00	0.750			
0.7315	46815.71	3.6410	3.6409	0.2220	5.99	0.00	0.750			
0.7321	46855.02	3.6380	3.6380	0.1852	6.00	0.01	0.750			
0.7326	46888.72	3.6350	3.6350	0.1482	6.00	0.01	0.750			
0.7330	46912.99	3.6320	3.6324	0.1076	6.00	0.01	0.750			
0.7333	46930.15	3.6290	3.6296	0.0660	6.00	0.01	0.750			
0.7334	46939.05	3.6260	3.6272	0.0156	6.00	0.01	0.750			
