Ah_balance (normalized)	Ah_balance (mAh)	Voltage - fit (V)	Voltage -  interpolate (V)	dQ/dV (1/V)	Temperature (°C)	Temperature - diff (°C)	Current (C)	R_DC 0ms (mOhm)	R_DC 50ms (mOhm)	R_DC 50 ms PEC (mOhm)
0.0922	5899.10	4.0040	4.0030	-0.0447	5.99	0.00	-0.750			
0.0923	5910.29	4.0010	4.0004	-0.0741	5.99	0.00	-0.750			
0.0926	5928.62	3.9980	3.9978	-0.1061	5.99	-0.00	-0.750			
0.0930	5951.74	3.9950	3.9949	-0.1347	5.99	-0.00	-0.750			
0.0935	5980.88	3.9920	3.9919	-0.1596	5.99	-0.00	-0.750			
0.0940	6013.97	3.9890	3.9892	-0.1865	5.99	-0.00	-0.750			
0.0946	6053.50	3.9860	3.9860	-0.2119	5.99	-0.00	-0.750			
0.0953	6096.24	3.9830	3.9830	-0.2363	5.99	-0.00	-0.750			
0.0960	6143.88	3.9800	3.9800	-0.2605	5.98	-0.01	-0.750			
0.0968	6196.09	3.9770	3.9771	-0.2835	5.98	-0.01	-0.750			
0.0977	6253.20	3.9740	3.9740	-0.3076	5.98	-0.01	-0.750			
0.0987	6314.83	3.9710	3.9710	-0.3312	5.98	-0.01	-0.750			
0.0997	6380.39	3.9680	3.9680	-0.3523	5.98	-0.01	-0.750			
0.1008	6450.39	3.9650	3.9650	-0.3773	5.98	-0.01	-0.750			
0.1019	6524.57	3.9620	3.9620	-0.4005	5.97	-0.02	-0.750			
0.1032	6603.92	3.9590	3.9590	-0.4222	5.97	-0.02	-0.750			
0.1045	6687.33	3.9560	3.9560	-0.4450	5.97	-0.02	-0.750			
0.1059	6775.35	3.9530	3.9530	-0.4672	5.97	-0.02	-0.750			
0.1073	6867.35	3.9500	3.9500	-0.4877	5.97	-0.02	-0.750			
0.1088	6964.08	3.9470	3.9470	-0.5054	5.96	-0.03	-0.750			
0.1103	7062.24	3.9440	3.9440	-0.5219	5.96	-0.03	-0.750			
0.1119	7164.28	3.9410	3.9410	-0.5425	5.96	-0.03	-0.750			
0.1136	7270.87	3.9380	3.9380	-0.5604	5.96	-0.03	-0.750			
0.1153	7380.08	3.9350	3.9348	-0.5739	5.95	-0.04	-0.750			
0.1171	7491.82	3.9320	3.9321	-0.5893	5.95	-0.04	-0.750			
0.1189	7607.32	3.9290	3.9290	-0.6021	5.95	-0.04	-0.750			
0.1207	7724.58	3.9260	3.9259	-0.6129	5.95	-0.04	-0.750			
0.1225	7842.16	3.9230	3.9230	-0.6260	5.95	-0.04	-0.750			
0.1244	7962.17	3.9200	3.9199	-0.6334	5.95	-0.04	-0.750			
0.1263	8086.23	3.9170	3.9170	-0.6435	5.95	-0.04	-0.750			
0.1283	8211.43	3.9140	3.9139	-0.6493	5.95	-0.04	-0.750			
0.1303	8336.83	3.9110	3.9112	-0.6556	5.95	-0.04	-0.750			
0.1322	8463.67	3.9080	3.9079	-0.6627	5.95	-0.04	-0.750			
0.1342	8590.68	3.9050	3.9050	-0.6672	5.96	-0.03	-0.750			
0.1362	8718.66	3.9020	3.9020	-0.6758	5.96	-0.03	-0.750			
0.1383	8850.81	3.8990	3.8990	-0.6811	5.96	-0.03	-0.750			
0.1403	8982.26	3.8960	3.8959	-0.6837	5.97	-0.02	-0.750			
0.1424	9114.88	3.8930	3.8932	-0.6867	5.97	-0.02	-0.750			
0.1445	9245.71	3.8900	3.8900	-0.6890	5.97	-0.02	-0.750			
0.1465	9376.18	3.8870	3.8870	-0.6945	5.98	-0.01	-0.750			
0.1486	9509.95	3.8840	3.8840	-0.7012	5.98	-0.01	-0.750			
0.1507	9645.44	3.8810	3.8808	-0.7057	5.98	-0.01	-0.750			
0.1529	9782.81	3.8780	3.8780	-0.7103	5.99	-0.00	-0.750			
0.1550	9920.68	3.8750	3.8751	-0.7117	5.99	0.00	-0.750			
0.1571	10057.49	3.8720	3.8719	-0.7106	5.99	0.00	-0.750			
0.1592	10191.50	3.8690	3.8691	-0.7102	6.00	0.01	-0.750			
0.1614	10328.37	3.8660	3.8660	-0.7118	6.00	0.01	-0.750			
0.1635	10465.60	3.8630	3.8629	-0.7135	6.00	0.01	-0.750			
0.1657	10603.41	3.8600	3.8600	-0.7137	6.01	0.02	-0.750			
0.1678	10740.51	3.8570	3.8571	-0.7150	6.01	0.02	-0.750			
0.1700	10877.40	3.8540	3.8540	-0.7156	6.01	0.02	-0.750			
0.1721	11012.64	3.8510	3.8510	-0.7212	6.02	0.03	-0.750			
0.1743	11152.89	3.8480	3.8479	-0.7186	6.02	0.03	-0.750			
0.1764	11292.64	3.8450	3.8449	-0.7215	6.02	0.03	-0.750			
0.1786	11430.60	3.8420	3.8420	-0.7223	6.03	0.04	-0.750			
0.1808	11569.64	3.8390	3.8389	-0.7233	6.03	0.04	-0.750			
0.1829	11708.30	3.8360	3.8359	-0.7213	6.04	0.05	-0.750			
0.1851	11844.82	3.8330	3.8329	-0.7213	6.05	0.06	-0.750			
0.1872	11982.72	3.8300	3.8301	-0.7228	6.05	0.06	-0.750			
0.1895	12124.83	3.8270	3.8270	-0.7297	6.06	0.07	-0.750			
0.1916	12264.77	3.8240	3.8239	-0.7267	6.07	0.08	-0.750			
0.1938	12403.76	3.8210	3.8210	-0.7261	6.07	0.08	-0.750			
0.1960	12542.92	3.8180	3.8180	-0.7254	6.08	0.09	-0.750			
0.1982	12682.24	3.8150	3.8149	-0.7281	6.09	0.10	-0.750			
0.2003	12821.91	3.8120	3.8120	-0.7260	6.10	0.11	-0.750			
0.2025	12962.52	3.8090	3.8089	-0.7224	6.10	0.11	-0.750			
0.2047	13101.15	3.8060	3.8062	-0.7232	6.11	0.12	-0.750			
0.2069	13239.12	3.8030	3.8030	-0.7290	6.11	0.12	-0.750			
0.2090	13377.18	3.8000	3.8000	-0.7327	6.12	0.13	-0.750			
0.2113	13520.21	3.7970	3.7969	-0.7381	6.13	0.14	-0.750			
0.2135	13661.88	3.7940	3.7940	-0.7416	6.13	0.14	-0.750			
0.2157	13807.52	3.7910	3.7910	-0.7499	6.14	0.15	-0.750			
0.2180	13952.36	3.7880	3.7881	-0.7512	6.14	0.15	-0.750			
0.2203	14096.40	3.7850	3.7848	-0.7470	6.15	0.16	-0.750			
0.2225	14238.38	3.7820	3.7820	-0.7473	6.15	0.16	-0.750			
0.2247	14380.98	3.7790	3.7791	-0.7450	6.16	0.17	-0.750			
0.2270	14526.16	3.7760	3.7760	-0.7511	6.16	0.17	-0.750			
0.2292	14668.84	3.7730	3.7730	-0.7539	6.17	0.18	-0.750			
0.2315	14814.11	3.7700	3.7701	-0.7560	6.17	0.18	-0.750			
0.2337	14959.14	3.7670	3.7670	-0.7633	6.18	0.19	-0.750			
0.2361	15107.38	3.7640	3.7641	-0.7665	6.19	0.20	-0.750			
0.2383	15254.39	3.7610	3.7610	-0.7692	6.20	0.21	-0.750			
0.2407	15401.96	3.7580	3.7579	-0.7723	6.20	0.21	-0.750			
0.2430	15551.08	3.7550	3.7551	-0.7737	6.21	0.22	-0.750			
0.2453	15699.24	3.7520	3.7519	-0.7767	6.21	0.22	-0.750			
0.2476	15849.55	3.7490	3.7491	-0.7836	6.22	0.23	-0.750			
0.2500	15999.74	3.7460	3.7460	-0.7857	6.22	0.23	-0.750			
0.2524	16152.20	3.7430	3.7429	-0.7912	6.23	0.24	-0.750			
0.2547	16303.80	3.7400	3.7400	-0.7940	6.23	0.24	-0.750			
0.2571	16454.98	3.7370	3.7370	-0.8012	6.24	0.25	-0.750			
0.2595	16609.52	3.7340	3.7341	-0.8106	6.24	0.25	-0.750			
0.2620	16766.27	3.7310	3.7309	-0.8140	6.25	0.26	-0.750			
0.2644	16923.44	3.7280	3.7279	-0.8181	6.26	0.27	-0.750			
0.2669	17081.71	3.7250	3.7251	-0.8255	6.27	0.28	-0.750			
0.2694	17240.41	3.7220	3.7220	-0.8324	6.27	0.28	-0.750			
0.2719	17400.22	3.7190	3.7189	-0.8407	6.27	0.28	-0.750			
0.2744	17562.61	3.7160	3.7160	-0.8461	6.28	0.29	-0.750			
0.2770	17726.07	3.7130	3.7130	-0.8482	6.28	0.29	-0.750			
0.2796	17892.08	3.7100	3.7101	-0.8556	6.28	0.29	-0.750			
0.2821	18055.82	3.7070	3.7070	-0.8552	6.29	0.30	-0.750			
0.2847	18217.75	3.7040	3.7040	-0.8594	6.29	0.30	-0.750			
0.2872	18382.87	3.7010	3.7010	-0.8647	6.30	0.31	-0.750			
0.2898	18548.81	3.6980	3.6979	-0.8707	6.30	0.31	-0.750			
0.2925	18718.47	3.6950	3.6951	-0.8836	6.31	0.32	-0.750			
0.2951	18888.62	3.6920	3.6921	-0.8941	6.32	0.33	-0.750			
0.2978	19062.31	3.6890	3.6889	-0.8994	6.32	0.33	-0.750			
0.3006	19235.87	3.6860	3.6860	-0.9044	6.33	0.34	-0.750			
0.3033	19408.96	3.6830	3.6830	-0.9107	6.34	0.35	-0.750			
0.3060	19585.05	3.6800	3.6801	-0.9184	6.34	0.35	-0.750			
0.3088	19762.43	3.6770	3.6769	-0.9271	6.34	0.35	-0.750			
0.3116	19940.83	3.6740	3.6740	-0.9314	6.35	0.36	-0.750			
0.3144	20119.76	3.6710	3.6710	-0.9381	6.35	0.36	-0.750			
0.3172	20301.77	3.6680	3.6682	-0.9480	6.35	0.36	-0.750			
0.3201	20483.57	3.6650	3.6649	-0.9598	6.35	0.36	-0.750			
0.3230	20668.94	3.6620	3.6620	-0.9678	6.36	0.37	-0.750			
0.3259	20856.52	3.6590	3.6590	-0.9705	6.36	0.37	-0.750			
0.3288	21045.57	3.6560	3.6559	-0.9819	6.37	0.38	-0.750			
0.3318	21232.08	3.6530	3.6531	-0.9926	6.37	0.38	-0.750			
0.3347	21422.34	3.6500	3.6499	-1.0005	6.38	0.39	-0.750			
0.3377	21615.51	3.6470	3.6470	-1.0044	6.38	0.39	-0.750			
0.3408	21808.20	3.6440	3.6439	-1.0042	6.39	0.40	-0.750			
0.3438	22004.34	3.6410	3.6411	-1.0254	6.39	0.40	-0.750			
0.3469	22203.07	3.6380	3.6380	-1.0333	6.39	0.40	-0.750			
0.3500	22399.21	3.6350	3.6348	-1.0366	6.40	0.41	-0.750			
0.3531	22597.14	3.6320	3.6320	-1.0391	6.40	0.41	-0.750			
0.3563	22800.28	3.6290	3.6292	-1.0581	6.40	0.41	-0.750			
0.3595	23007.08	3.6260	3.6259	-1.0691	6.40	0.41	-0.750			
0.3627	23212.50	3.6230	3.6230	-1.0722	6.41	0.42	-0.750			
0.3659	23416.16	3.6200	3.6200	-1.0710	6.41	0.42	-0.750			
0.3691	23623.51	3.6170	3.6170	-1.0866	6.41	0.42	-0.750			
0.3724	23833.16	3.6140	3.6140	-1.0936	6.41	0.42	-0.750			
0.3757	24043.76	3.6110	3.6109	-1.1021	6.42	0.43	-0.750			
0.3790	24255.97	3.6080	3.6081	-1.1084	6.42	0.43	-0.750			
0.3824	24471.07	3.6050	3.6050	-1.1260	6.42	0.43	-0.750			
0.3858	24689.26	3.6020	3.6019	-1.1325	6.42	0.43	-0.750			
0.3892	24907.92	3.5990	3.5990	-1.1381	6.43	0.44	-0.750			
0.3926	25123.68	3.5960	3.5964	-1.1499	6.43	0.44	-0.750			
0.3961	25347.98	3.5930	3.5929	-1.1642	6.44	0.45	-0.750			
0.3996	25573.76	3.5900	3.5900	-1.1698	6.44	0.45	-0.750			
0.4031	25798.50	3.5870	3.5869	-1.1751	6.45	0.46	-0.750			
0.4067	26027.21	3.5840	3.5839	-1.1887	6.45	0.46	-0.750	0.472	1.045	
0.4102	26255.22	3.5810	3.5809	-1.1941	6.45	0.46	-0.750			
0.4138	26482.76	3.5780	3.5779	-1.1983	6.46	0.47	-0.750			
0.4173	26709.79	3.5750	3.5751	-1.2060	6.46	0.47	-0.750			
0.4210	26945.41	3.5720	3.5720	-1.2292	6.46	0.47	-0.750			
0.4247	27183.15	3.5690	3.5689	-1.2397	6.47	0.48	-0.750			
0.4285	27421.95	3.5660	3.5660	-1.2527	6.47	0.48	-0.750			
0.4322	27663.90	3.5630	3.5630	-1.2696	6.47	0.48	-0.750			
0.4360	27907.19	3.5600	3.5600	-1.2861	6.48	0.49	-0.750			
0.4399	28154.64	3.5570	3.5570	-1.3099	6.49	0.50	-0.750			
0.4439	28407.74	3.5540	3.5540	-1.3235	6.49	0.50	-0.750			
0.4479	28666.24	3.5510	3.5510	-1.3456	6.49	0.50	-0.750			
0.4520	28926.47	3.5480	3.5480	-1.3674	6.49	0.50	-0.750			
0.4562	29194.79	3.5450	3.5450	-1.3707	6.49	0.50	-0.750			
0.4603	29459.01	3.5420	3.5419	-1.3723	6.50	0.51	-0.750			
0.4644	29720.94	3.5390	3.5390	-1.3773	6.51	0.52	-0.750			
0.4685	29983.75	3.5360	3.5361	-1.3811	6.51	0.52	-0.750			
0.4727	30251.60	3.5330	3.5328	-1.4004	6.52	0.53	-0.750			
0.4769	30520.92	3.5300	3.5300	-1.4014	6.53	0.54	-0.750			
0.4811	30791.83	3.5270	3.5270	-1.4195	6.53	0.54	-0.750			
0.4855	31069.82	3.5240	3.5240	-1.4403	6.54	0.55	-0.750			
0.4898	31346.19	3.5210	3.5209	-1.4584	6.55	0.56	-0.750			
0.4941	31625.46	3.5180	3.5180	-1.4583	6.55	0.56	-0.750			
0.4986	31908.72	3.5150	3.5149	-1.4683	6.56	0.57	-0.750			
0.5030	32191.71	3.5120	3.5119	-1.4698	6.57	0.58	-0.750			
0.5074	32472.63	3.5090	3.5089	-1.4731	6.57	0.58	-0.750			
0.5119	32760.88	3.5060	3.5060	-1.4817	6.57	0.58	-0.750			
0.5163	33044.08	3.5030	3.5030	-1.4802	6.57	0.58	-0.750			
0.5207	33326.59	3.5000	3.4999	-1.4814	6.58	0.59	-0.750			
0.5252	33615.80	3.4970	3.4970	-1.4910	6.60	0.61	-0.750			
0.5297	33902.55	3.4940	3.4941	-1.4975	6.61	0.62	-0.750			
0.5343	34192.46	3.4910	3.4910	-1.4933	6.62	0.63	-0.750			
0.5387	34478.32	3.4880	3.4879	-1.4894	6.62	0.63	-0.750			
0.5432	34767.91	3.4850	3.4851	-1.4943	6.63	0.64	-0.750			
0.5477	35052.04	3.4820	3.4820	-1.4941	6.65	0.66	-0.750			
0.5522	35338.13	3.4790	3.4789	-1.4908	6.66	0.67	-0.750			
0.5567	35625.93	3.4760	3.4760	-1.4917	6.68	0.69	-0.750			
0.5612	35914.88	3.4730	3.4729	-1.4896	6.69	0.70	-0.750			
0.5656	36200.70	3.4700	3.4699	-1.4896	6.70	0.71	-0.750			
0.5701	36485.55	3.4670	3.4670	-1.4769	6.71	0.72	-0.750			
0.5746	36774.90	3.4640	3.4639	-1.4654	6.72	0.73	-0.750			
0.5789	37051.33	3.4610	3.4609	-1.4533	6.73	0.74	-0.750			
0.5833	37328.53	3.4580	3.4580	-1.4427	6.74	0.75	-0.750			
0.5876	37607.37	3.4550	3.4549	-1.4293	6.75	0.76	-0.750			
0.5919	37878.88	3.4520	3.4521	-1.4212	6.77	0.78	-0.750			
0.5961	38147.82	3.4490	3.4491	-1.4059	6.78	0.79	-0.750			
0.6003	38422.38	3.4460	3.4459	-1.4000	6.80	0.81	-0.750			
0.6045	38690.44	3.4430	3.4431	-1.3907	6.81	0.82	-0.750			
0.6087	38953.98	3.4400	3.4400	-1.3690	6.82	0.83	-0.750			
0.6128	39219.81	3.4370	3.4369	-1.3500	6.84	0.85	-0.750			
0.6168	39477.43	3.4340	3.4342	-1.3344	6.85	0.86	-0.750			
0.6208	39729.84	3.4310	3.4310	-1.3041	6.86	0.87	-0.750			
0.6247	39980.94	3.4280	3.4279	-1.2832	6.87	0.88	-0.750			
0.6285	40223.00	3.4250	3.4250	-1.2639	6.89	0.90	-0.750			
0.6322	40461.45	3.4220	3.4221	-1.2376	6.90	0.91	-0.750			
0.6360	40700.95	3.4190	3.4189	-1.2132	6.92	0.93	-0.750			
0.6396	40932.45	3.4160	3.4160	-1.1824	6.94	0.95	-0.750			
0.6430	41152.49	3.4130	3.4133	-1.1608	6.95	0.96	-0.750			
0.6465	41375.37	3.4100	3.4099	-1.1388	6.96	0.97	-0.750			
0.6499	41590.84	3.4070	3.4069	-1.1090	6.97	0.98	-0.750			
0.6531	41800.97	3.4040	3.4040	-1.0828	6.98	0.99	-0.750			
0.6564	42007.46	3.4010	3.4010	-1.0675	7.00	1.01	-0.750			
0.6596	42212.10	3.3980	3.3980	-1.0356	7.01	1.02	-0.750			
0.6626	42407.69	3.3950	3.3950	-1.0069	7.03	1.04	-0.750			
0.6655	42594.70	3.3920	3.3920	-0.9776	7.04	1.05	-0.750			
0.6685	42782.35	3.3890	3.3890	-0.9605	7.06	1.07	-0.750			
0.6713	42963.99	3.3860	3.3859	-0.9356	7.08	1.09	-0.750			
0.6741	43139.81	3.3830	3.3830	-0.9144	7.09	1.10	-0.750			
0.6768	43313.23	3.3800	3.3800	-0.8901	7.11	1.12	-0.750			
0.6795	43485.39	3.3770	3.3770	-0.8715	7.13	1.14	-0.750			
0.6820	43649.51	3.3740	3.3740	-0.8438	7.14	1.15	-0.750			
0.6845	43807.70	3.3710	3.3711	-0.8243	7.15	1.16	-0.750			
0.6869	43964.15	3.3680	3.3680	-0.8005	7.16	1.17	-0.750			
0.6893	44115.74	3.3650	3.3648	-0.7792	7.18	1.19	-0.750			
0.6916	44261.06	3.3620	3.3621	-0.7618	7.19	1.20	-0.750			
0.6938	44406.28	3.3590	3.3591	-0.7520	7.20	1.21	-0.750			
0.6961	44550.25	3.3560	3.3558	-0.7386	7.21	1.22	-0.750			
0.6983	44691.81	3.3530	3.3529	-0.7213	7.23	1.24	-0.750			
0.7004	44827.86	3.3500	3.3501	-0.7015	7.24	1.25	-0.750			
0.7026	44964.41	3.3470	3.3470	-0.6886	7.26	1.27	-0.750			
0.7046	45093.84	3.3440	3.3441	-0.6633	7.27	1.28	-0.750			
0.7065	45215.70	3.3410	3.3409	-0.6366	7.28	1.29	-0.750			
0.7084	45335.77	3.3380	3.3380	-0.6204	7.30	1.31	-0.750			
0.7102	45453.18	3.3350	3.3350	-0.6057	7.32	1.33	-0.750			
0.7120	45567.65	3.3320	3.3319	-0.5922	7.33	1.34	-0.750			
0.7138	45680.60	3.3290	3.3291	-0.5793	7.35	1.36	-0.750			
0.7155	45790.63	3.3260	3.3260	-0.5671	7.37	1.38	-0.750			
0.7172	45898.01	3.3230	3.3230	-0.5487	7.37	1.38	-0.750			
