Ah_balance (normalized)	Ah_balance (mAh)	Voltage - fit (V)	Voltage -  interpolate (V)	dQ/dV (1/V)	Temperature (°C)	Temperature - diff (°C)	Current (C)	R_DC 0ms (mOhm)	R_DC 50ms (mOhm)	R_DC 50 ms PEC (mOhm)
0.0970	6207.37	4.0050	4.0046	-0.0940	5.99	0.00	-0.750			
0.0973	6227.05	4.0020	4.0019	-0.1188	5.99	0.00	-0.750			
0.0977	6253.30	3.9990	3.9990	-0.1454	5.99	0.00	-0.750			
0.0982	6283.66	3.9960	3.9961	-0.1708	5.99	0.00	-0.750			
0.0987	6318.90	3.9930	3.9929	-0.1963	5.99	0.00	-0.750			
0.0994	6359.58	3.9900	3.9903	-0.2212	5.99	-0.00	-0.750			
0.1001	6404.70	3.9870	3.9870	-0.2443	5.99	-0.00	-0.750			
0.1008	6454.06	3.9840	3.9839	-0.2651	5.99	-0.00	-0.750			
0.1017	6507.07	3.9810	3.9811	-0.2889	5.99	-0.00	-0.750			
0.1026	6564.08	3.9780	3.9781	-0.3113	5.98	-0.01	-0.750			
0.1035	6626.39	3.9750	3.9749	-0.3345	5.98	-0.01	-0.750			
0.1046	6691.83	3.9720	3.9720	-0.3580	5.98	-0.01	-0.750			
0.1057	6762.92	3.9690	3.9691	-0.3838	5.98	-0.01	-0.750			
0.1069	6838.74	3.9660	3.9660	-0.4128	5.98	-0.01	-0.750			
0.1081	6921.07	3.9630	3.9629	-0.4367	5.98	-0.01	-0.750			
0.1095	7006.95	3.9600	3.9601	-0.4598	5.97	-0.02	-0.750			
0.1109	7098.37	3.9570	3.9570	-0.4842	5.97	-0.02	-0.750			
0.1124	7194.91	3.9540	3.9539	-0.5074	5.97	-0.02	-0.750			
0.1140	7294.82	3.9510	3.9510	-0.5242	5.97	-0.02	-0.750			
0.1156	7396.55	3.9480	3.9480	-0.5429	5.97	-0.02	-0.750			
0.1172	7501.72	3.9450	3.9451	-0.5627	5.97	-0.02	-0.750			
0.1190	7613.03	3.9420	3.9420	-0.5825	5.97	-0.02	-0.750			
0.1207	7726.40	3.9390	3.9389	-0.5969	5.97	-0.02	-0.750			
0.1225	7842.69	3.9360	3.9361	-0.6116	5.97	-0.02	-0.750			
0.1244	7962.78	3.9330	3.9332	-0.6266	5.97	-0.02	-0.750			
0.1263	8084.45	3.9300	3.9299	-0.6393	5.97	-0.02	-0.750			
0.1283	8208.10	3.9270	3.9270	-0.6478	5.97	-0.02	-0.750			
0.1302	8333.60	3.9240	3.9240	-0.6613	5.97	-0.02	-0.750			
0.1322	8463.30	3.9210	3.9209	-0.6725	5.97	-0.02	-0.750			
0.1343	8593.60	3.9180	3.9180	-0.6799	5.97	-0.02	-0.750			
0.1363	8724.33	3.9150	3.9150	-0.6892	5.97	-0.02	-0.750			
0.1384	8857.54	3.9120	3.9119	-0.6957	5.97	-0.02	-0.750			
0.1405	8991.55	3.9090	3.9089	-0.7019	5.98	-0.01	-0.750			
0.1426	9127.79	3.9060	3.9060	-0.7081	5.98	-0.01	-0.750			
0.1447	9263.77	3.9030	3.9031	-0.7115	5.98	-0.01	-0.750			
0.1469	9403.40	3.9000	3.9000	-0.7180	5.99	-0.00	-0.750			
0.1491	9540.60	3.8970	3.8971	-0.7208	5.99	-0.00	-0.750			
0.1512	9678.02	3.8940	3.8939	-0.7228	5.99	0.00	-0.750			
0.1534	9817.85	3.8910	3.8909	-0.7283	6.00	0.01	-0.750			
0.1556	9958.76	3.8880	3.8880	-0.7377	6.00	0.01	-0.750			
0.1578	10102.24	3.8850	3.8849	-0.7414	6.00	0.01	-0.750			
0.1601	10247.10	3.8820	3.8819	-0.7456	6.01	0.02	-0.750			
0.1624	10390.76	3.8790	3.8792	-0.7434	6.01	0.02	-0.750			
0.1646	10532.26	3.8760	3.8760	-0.7447	6.01	0.02	-0.750			
0.1668	10675.49	3.8730	3.8729	-0.7492	6.02	0.03	-0.750			
0.1690	10816.74	3.8700	3.8699	-0.7444	6.02	0.03	-0.750			
0.1713	10963.45	3.8670	3.8670	-0.7527	6.03	0.04	-0.750			
0.1736	11108.79	3.8640	3.8640	-0.7546	6.03	0.04	-0.750			
0.1758	11254.33	3.8610	3.8609	-0.7555	6.03	0.04	-0.750			
0.1781	11399.24	3.8580	3.8579	-0.7575	6.04	0.05	-0.750			
0.1803	11542.36	3.8550	3.8550	-0.7523	6.05	0.06	-0.750			
0.1826	11685.63	3.8520	3.8521	-0.7577	6.06	0.07	-0.750			
0.1849	11833.64	3.8490	3.8490	-0.7656	6.06	0.07	-0.750			
0.1872	11981.37	3.8460	3.8459	-0.7701	6.07	0.08	-0.750			
0.1895	12129.25	3.8430	3.8430	-0.7743	6.08	0.09	-0.750			
0.1919	12280.07	3.8400	3.8400	-0.7745	6.09	0.10	-0.750			
0.1942	12430.06	3.8370	3.8370	-0.7753	6.09	0.10	-0.750			
0.1965	12578.69	3.8340	3.8340	-0.7765	6.10	0.11	-0.750			
0.1988	12726.21	3.8310	3.8311	-0.7751	6.11	0.12	-0.750			
0.2012	12875.65	3.8280	3.8278	-0.7737	6.12	0.13	-0.750			
0.2035	13023.01	3.8250	3.8251	-0.7757	6.12	0.13	-0.750			
0.2058	13173.47	3.8220	3.8220	-0.7730	6.13	0.14	-0.750			
0.2082	13322.10	3.8190	3.8189	-0.7740	6.14	0.15	-0.750			
0.2105	13470.89	3.8160	3.8160	-0.7714	6.15	0.16	-0.750			
0.2128	13618.25	3.8130	3.8132	-0.7700	6.15	0.16	-0.750			
0.2151	13764.82	3.8100	3.8099	-0.7760	6.16	0.17	-0.750			
0.2174	13916.34	3.8070	3.8070	-0.7749	6.17	0.18	-0.750			
0.2197	14063.10	3.8040	3.8040	-0.7759	6.18	0.19	-0.750			
0.2221	14213.53	3.8010	3.8011	-0.7828	6.18	0.19	-0.750			
0.2244	14364.74	3.7980	3.7982	-0.7792	6.19	0.20	-0.750			
0.2268	14516.41	3.7950	3.7949	-0.7716	6.20	0.21	-0.750			
0.2291	14661.40	3.7920	3.7921	-0.7750	6.21	0.22	-0.750			
0.2314	14809.36	3.7890	3.7890	-0.7743	6.21	0.22	-0.750			
0.2338	14960.55	3.7860	3.7860	-0.7809	6.22	0.23	-0.750			
0.2361	15107.83	3.7830	3.7829	-0.7802	6.23	0.24	-0.750			
0.2384	15258.77	3.7800	3.7801	-0.7851	6.24	0.25	-0.750			
0.2408	15411.18	3.7770	3.7770	-0.7941	6.24	0.25	-0.750			
0.2432	15565.49	3.7740	3.7739	-0.7959	6.25	0.26	-0.750			
0.2456	15715.51	3.7710	3.7711	-0.7879	6.26	0.27	-0.750			
0.2480	15868.82	3.7680	3.7679	-0.7928	6.27	0.28	-0.750			
0.2503	16020.69	3.7650	3.7651	-0.7892	6.27	0.28	-0.750			
0.2527	16170.43	3.7620	3.7620	-0.7905	6.28	0.29	-0.750			
0.2550	16322.90	3.7590	3.7590	-0.7919	6.28	0.29	-0.750			
0.2574	16474.93	3.7560	3.7560	-0.7915	6.28	0.29	-0.750			
0.2598	16628.34	3.7530	3.7530	-0.7950	6.29	0.30	-0.750			
0.2622	16781.12	3.7500	3.7501	-0.7962	6.29	0.30	-0.750			
0.2646	16933.45	3.7470	3.7470	-0.7967	6.30	0.31	-0.750			
0.2670	17086.17	3.7440	3.7440	-0.8060	6.31	0.32	-0.750			
0.2694	17243.14	3.7410	3.7409	-0.8024	6.31	0.32	-0.750			
0.2719	17398.81	3.7380	3.7379	-0.8076	6.32	0.33	-0.750			
0.2743	17552.84	3.7350	3.7354	-0.8094	6.33	0.34	-0.750			
0.2767	17707.67	3.7320	3.7320	-0.8149	6.34	0.35	-0.750			
0.2791	17864.62	3.7290	3.7288	-0.8227	6.35	0.36	-0.750			
0.2816	18022.07	3.7260	3.7259	-0.8234	6.35	0.36	-0.750			
0.2841	18183.15	3.7230	3.7230	-0.8340	6.36	0.37	-0.750			
0.2866	18344.64	3.7200	3.7203	-0.8376	6.37	0.38	-0.750			
0.2891	18505.38	3.7170	3.7170	-0.8407	6.38	0.39	-0.750			
0.2917	18666.53	3.7140	3.7139	-0.8470	6.39	0.40	-0.750			
0.2942	18827.55	3.7110	3.7110	-0.8456	6.39	0.40	-0.750			
0.2968	18992.83	3.7080	3.7079	-0.8619	6.40	0.41	-0.750			
0.2993	19157.96	3.7050	3.7053	-0.8656	6.41	0.42	-0.750			
0.3019	19324.56	3.7020	3.7020	-0.8781	6.41	0.42	-0.750			
0.3046	19493.81	3.6990	3.6989	-0.8853	6.42	0.43	-0.750			
0.3072	19663.66	3.6960	3.6960	-0.8880	6.42	0.43	-0.750			
0.3100	19837.60	3.6930	3.6929	-0.9018	6.43	0.44	-0.750			
0.3127	20011.00	3.6900	3.6902	-0.9068	6.43	0.44	-0.750			
0.3154	20184.54	3.6870	3.6870	-0.9190	6.44	0.45	-0.750			
0.3182	20362.50	3.6840	3.6839	-0.9275	6.44	0.45	-0.750			
0.3209	20540.45	3.6810	3.6809	-0.9326	6.44	0.45	-0.750			
0.3238	20722.27	3.6780	3.6782	-0.9454	6.45	0.46	-0.750			
0.3266	20904.18	3.6750	3.6750	-0.9650	6.45	0.46	-0.750			
0.3296	21092.29	3.6720	3.6719	-0.9647	6.45	0.46	-0.750			
0.3325	21277.08	3.6690	3.6689	-0.9695	6.46	0.47	-0.750			
0.3353	21462.36	3.6660	3.6660	-0.9793	6.46	0.47	-0.750			
0.3384	21654.70	3.6630	3.6629	-0.9916	6.46	0.47	-0.750			
0.3414	21847.60	3.6600	3.6599	-1.0044	6.47	0.48	-0.750			
0.3444	22039.81	3.6570	3.6570	-1.0141	6.47	0.48	-0.750			
0.3474	22234.20	3.6540	3.6540	-1.0223	6.48	0.49	-0.750			
0.3505	22434.78	3.6510	3.6511	-1.0474	6.48	0.49	-0.750			
0.3537	22636.20	3.6480	3.6478	-1.0490	6.48	0.49	-0.750			
0.3569	22839.17	3.6450	3.6450	-1.0508	6.49	0.50	-0.750			
0.3600	23038.48	3.6420	3.6421	-1.0607	6.49	0.50	-0.750			
0.3632	23247.27	3.6390	3.6390	-1.0840	6.49	0.50	-0.750			
0.3665	23453.92	3.6360	3.6359	-1.0964	6.49	0.50	-0.750			
0.3698	23668.24	3.6330	3.6330	-1.1057	6.49	0.50	-0.750			
0.3732	23882.16	3.6300	3.6301	-1.1130	6.49	0.50	-0.750			
0.3765	24099.05	3.6270	3.6269	-1.1387	6.49	0.50	-0.750			
0.3800	24319.54	3.6240	3.6240	-1.1492	6.50	0.51	-0.750			
0.3834	24537.84	3.6210	3.6209	-1.1567	6.50	0.51	-0.750			
0.3869	24760.20	3.6180	3.6183	-1.1734	6.51	0.52	-0.750			
0.3904	24988.67	3.6150	3.6149	-1.1896	6.51	0.52	-0.750			
0.3941	25221.95	3.6120	3.6120	-1.2065	6.51	0.52	-0.750			
0.3977	25451.08	3.6090	3.6090	-1.2230	6.51	0.52	-0.750			
0.4014	25686.67	3.6060	3.6059	-1.2389	6.51	0.52	-0.750			
0.4052	25929.63	3.6030	3.6029	-1.2482	6.51	0.52	-0.750			
0.4089	26169.08	3.6000	3.5997	-1.2542	6.51	0.52	-0.750			
0.4127	26409.64	3.5970	3.5972	-1.2733	6.51	0.52	-0.750	0.502	1.117	
0.4166	26660.22	3.5940	3.5940	-1.2841	6.51	0.52	-0.750			
0.4204	26907.44	3.5910	3.5908	-1.2962	6.51	0.52	-0.750			
0.4243	27153.07	3.5880	3.5884	-1.3083	6.51	0.52	-0.750			
0.4282	27406.27	3.5850	3.5848	-1.3180	6.51	0.52	-0.750			
0.4323	27665.99	3.5820	3.5819	-1.3370	6.51	0.52	-0.750			
0.4363	27922.28	3.5790	3.5793	-1.3502	6.51	0.52	-0.750			
0.4404	28186.21	3.5760	3.5759	-1.3659	6.52	0.53	-0.750			
0.4445	28449.85	3.5730	3.5729	-1.3895	6.52	0.53	-0.750			
0.4487	28713.65	3.5700	3.5701	-1.3982	6.53	0.54	-0.750			
0.4529	28983.40	3.5670	3.5669	-1.4180	6.53	0.54	-0.750			
0.4573	29264.31	3.5640	3.5643	-1.4381	6.53	0.54	-0.750			
0.4616	29542.15	3.5610	3.5612	-1.4454	6.53	0.54	-0.750			
0.4659	29820.11	3.5580	3.5578	-1.4479	6.53	0.54	-0.750			
0.4703	30099.64	3.5550	3.5552	-1.4562	6.54	0.55	-0.750			
0.4747	30377.84	3.5520	3.5522	-1.4767	6.54	0.55	-0.750			
0.4791	30663.77	3.5490	3.5489	-1.4979	6.54	0.55	-0.750			
0.4836	30947.70	3.5460	3.5459	-1.5310	6.53	0.54	-0.750			
0.4882	31247.91	3.5430	3.5430	-1.5419	6.53	0.54	-0.750			
0.4930	31549.22	3.5400	3.5401	-1.5621	6.53	0.54	-0.750			
0.4977	31850.39	3.5370	3.5371	-1.5710	6.53	0.54	-0.750			
0.5023	32146.48	3.5340	3.5339	-1.5975	6.53	0.54	-0.750			
0.5069	32444.24	3.5310	3.5309	-1.6601	6.54	0.55	-0.750			
0.5120	32767.10	3.5280	3.5281	-1.7106	6.55	0.56	-0.750			
0.5173	33109.25	3.5250	3.5243	-1.7295	6.55	0.56	-0.750			
0.5228	33461.08	3.5220	3.5223	-1.7534	6.55	0.56	-0.750			
0.5281	33799.94	3.5190	3.5190	-1.7307	6.56	0.57	-0.750			
0.5333	34132.99	3.5160	3.5158	-1.7013	6.56	0.57	-0.750			
0.5381	34440.40	3.5130	3.5130	-1.6253	6.57	0.58	-0.750			
0.5430	34750.71	3.5100	3.5099	-1.6242	6.58	0.59	-0.750			
0.5479	35063.51	3.5070	3.5068	-1.6188	6.59	0.60	-0.750			
0.5527	35374.03	3.5040	3.5039	-1.6145	6.59	0.60	-0.750			
0.5576	35684.79	3.5010	3.5011	-1.6300	6.59	0.60	-0.750			
0.5624	35992.48	3.4980	3.4981	-1.6134	6.59	0.60	-0.750			
0.5673	36308.63	3.4950	3.4951	-1.6231	6.60	0.61	-0.750			
0.5722	36619.94	3.4920	3.4920	-1.6172	6.61	0.62	-0.750			
0.5770	36930.82	3.4890	3.4887	-1.6086	6.61	0.62	-0.750			
0.5819	37238.92	3.4860	3.4859	-1.6036	6.62	0.63	-0.750			
0.5866	37544.91	3.4830	3.4832	-1.5955	6.63	0.64	-0.750			
0.5914	37850.69	3.4800	3.4800	-1.5794	6.64	0.65	-0.750			
0.5961	38153.56	3.4770	3.4769	-1.5671	6.64	0.65	-0.750			
0.6009	38456.13	3.4740	3.4740	-1.5595	6.65	0.66	-0.750			
0.6056	38758.34	3.4710	3.4710	-1.5413	6.66	0.67	-0.750			
0.6102	39050.41	3.4680	3.4680	-1.5149	6.67	0.68	-0.750			
0.6146	39336.32	3.4650	3.4649	-1.4938	6.67	0.68	-0.750			
0.6191	39623.43	3.4620	3.4620	-1.4785	6.68	0.69	-0.750			
0.6235	39902.07	3.4590	3.4590	-1.4622	6.69	0.70	-0.750			
0.6278	40178.46	3.4560	3.4560	-1.4488	6.70	0.71	-0.750			
0.6322	40459.95	3.4530	3.4530	-1.4351	6.70	0.71	-0.750			
0.6365	40735.98	3.4500	3.4501	-1.4238	6.71	0.72	-0.750			
0.6407	41006.36	3.4470	3.4470	-1.4002	6.72	0.73	-0.750			
0.6449	41275.70	3.4440	3.4440	-1.3747	6.74	0.75	-0.750			
0.6490	41537.95	3.4410	3.4411	-1.3639	6.75	0.76	-0.750			
0.6531	41796.54	3.4380	3.4380	-1.3385	6.76	0.77	-0.750			
0.6571	42053.76	3.4350	3.4349	-1.3142	6.77	0.78	-0.750			
0.6610	42304.07	3.4320	3.4321	-1.2927	6.79	0.80	-0.750			
0.6648	42549.43	3.4290	3.4290	-1.2621	6.80	0.81	-0.750			
0.6686	42792.20	3.4260	3.4259	-1.2388	6.81	0.82	-0.750			
0.6723	43027.18	3.4230	3.4229	-1.2092	6.82	0.83	-0.750			
0.6758	43252.93	3.4200	3.4201	-1.1783	6.83	0.84	-0.750			
0.6794	43479.81	3.4170	3.4170	-1.1590	6.85	0.86	-0.750			
0.6828	43700.12	3.4140	3.4139	-1.1315	6.86	0.87	-0.750			
0.6862	43914.78	3.4110	3.4111	-1.0998	6.87	0.88	-0.750			
0.6894	44124.40	3.4080	3.4079	-1.0737	6.88	0.89	-0.750			
0.6926	44327.30	3.4050	3.4050	-1.0450	6.90	0.91	-0.750			
0.6957	44524.91	3.4020	3.4020	-1.0178	6.91	0.92	-0.750			
0.6987	44715.02	3.3990	3.3990	-0.9913	6.93	0.94	-0.750			
0.7016	44903.65	3.3960	3.3960	-0.9693	6.94	0.95	-0.750			
0.7045	45088.75	3.3930	3.3930	-0.9444	6.95	0.96	-0.750			
0.7073	45269.31	3.3900	3.3899	-0.9209	6.96	0.97	-0.750			
0.7100	45443.19	3.3870	3.3870	-0.8927	6.96	0.97	-0.750			
0.7127	45612.98	3.3840	3.3840	-0.8635	6.97	0.98	-0.750			
0.7152	45774.41	3.3810	3.3810	-0.8429	6.99	1.00	-0.750			
0.7177	45932.14	3.3780	3.3781	-0.8189	7.00	1.01	-0.750			
0.7201	46088.26	3.3750	3.3749	-0.7943	7.01	1.02	-0.750			
0.7225	46239.82	3.3720	3.3719	-0.7752	7.02	1.03	-0.750			
0.7248	46386.78	3.3690	3.3691	-0.7540	7.03	1.04	-0.750			
0.7270	46529.55	3.3660	3.3660	-0.7308	7.04	1.05	-0.750			
0.7292	46669.01	3.3630	3.3629	-0.6955	7.05	1.06	-0.750			
0.7313	46801.01	3.3600	3.3600	-0.6939	7.06	1.07	-0.750			
