Ah_balance (normalized)	Ah_balance (mAh)	Voltage - fit (V)	Voltage -  interpolate (V)	dQ/dV (1/V)	Temperature (°C)	Temperature - diff (°C)	Current (C)	R_DC 0ms (mOhm)	R_DC 50ms (mOhm)	R_DC 50 ms PEC (mOhm)
0.1812	11594.96	4.0790	4.0790	0.7640	7.23	1.24	0.750			
0.1835	11744.90	4.0760	4.0759	0.7761	7.22	1.23	0.750			
0.1859	11894.51	4.0730	4.0730	0.7732	7.22	1.23	0.750			
0.1881	12041.29	4.0700	4.0701	0.7764	7.22	1.23	0.750			
0.1905	12190.32	4.0670	4.0670	0.7803	7.21	1.22	0.750			
0.1928	12339.95	4.0640	4.0642	0.7846	7.21	1.22	0.750			
0.1952	12490.76	4.0610	4.0610	0.7838	7.21	1.22	0.750			
0.1975	12642.29	4.0580	4.0581	0.7878	7.20	1.21	0.750			
0.1999	12795.94	4.0550	4.0550	0.7968	7.20	1.21	0.750			
0.2023	12948.95	4.0520	4.0521	0.7930	7.19	1.20	0.750			
0.2047	13100.50	4.0490	4.0488	0.7920	7.19	1.20	0.750			
0.2071	13251.25	4.0460	4.0460	0.7953	7.19	1.20	0.750			
0.2095	13408.60	4.0430	4.0430	0.7837	7.18	1.19	0.750			
0.2118	13557.71	4.0400	4.0399	0.7970	7.18	1.19	0.750			
0.2142	13706.67	4.0370	4.0371	0.8036	7.18	1.19	0.750			
0.2166	13860.22	4.0340	4.0340	0.8083	7.17	1.18	0.750			
0.2190	14019.09	4.0310	4.0313	0.8160	7.17	1.18	0.750			
0.2215	14178.73	4.0280	4.0280	0.8136	7.16	1.17	0.750			
0.2240	14336.66	4.0250	4.0252	0.8182	7.16	1.17	0.750			
0.2265	14493.98	4.0220	4.0220	0.8258	7.16	1.17	0.750			
0.2289	14649.56	4.0190	4.0190	0.8170	7.15	1.16	0.750			
0.2314	14806.60	4.0160	4.0161	0.8205	7.15	1.16	0.750			
0.2338	14965.17	4.0130	4.0130	0.8267	7.14	1.15	0.750			
0.2363	15125.58	4.0100	4.0101	0.8275	7.14	1.15	0.750			
0.2388	15286.33	4.0070	4.0070	0.8322	7.14	1.15	0.750			
0.2413	15444.00	4.0040	4.0040	0.8284	7.13	1.14	0.750			
0.2438	15600.95	4.0010	4.0010	0.8325	7.13	1.14	0.750			
0.2463	15762.83	3.9980	3.9980	0.8351	7.12	1.13	0.750			
0.2488	15921.84	3.9950	3.9950	0.8446	7.12	1.13	0.750			
0.2513	16085.95	3.9920	3.9920	0.8514	7.12	1.13	0.750			
0.2539	16250.29	3.9890	3.9891	0.8573	7.11	1.12	0.750			
0.2565	16415.79	3.9860	3.9861	0.8585	7.11	1.12	0.750			
0.2591	16583.06	3.9830	3.9830	0.8563	7.10	1.11	0.750			
0.2616	16745.53	3.9800	3.9800	0.8627	7.10	1.11	0.750			
0.2643	16912.35	3.9770	3.9770	0.8655	7.10	1.11	0.750			
0.2668	17076.30	3.9740	3.9738	0.8647	7.09	1.10	0.750			
0.2694	17242.93	3.9710	3.9711	0.8749	7.09	1.10	0.750			
0.2720	17411.07	3.9680	3.9681	0.8796	7.08	1.09	0.750			
0.2747	17581.95	3.9650	3.9650	0.8846	7.08	1.09	0.750			
0.2774	17753.11	3.9620	3.9620	0.8925	7.07	1.08	0.750			
0.2800	17922.98	3.9590	3.9588	0.8899	7.07	1.08	0.750			
0.2828	18098.09	3.9560	3.9560	0.8915	7.06	1.07	0.750			
0.2854	18267.23	3.9530	3.9530	0.8962	7.06	1.07	0.750			
0.2881	18436.85	3.9500	3.9501	0.9049	7.05	1.06	0.750			
0.2908	18613.16	3.9470	3.9471	0.9127	7.04	1.05	0.750			
0.2936	18788.76	3.9440	3.9439	0.9175	7.04	1.05	0.750			
0.2963	18965.45	3.9410	3.9410	0.9163	7.03	1.04	0.750			
0.2991	19141.29	3.9380	3.9382	0.9321	7.02	1.03	0.750			
0.3019	19320.82	3.9350	3.9350	0.9389	7.02	1.03	0.750			
0.3047	19500.74	3.9320	3.9317	0.9394	7.01	1.02	0.750			
0.3075	19682.53	3.9290	3.9291	0.9395	7.01	1.02	0.750			
0.3104	19864.98	3.9260	3.9262	0.9582	7.00	1.01	0.750			
0.3133	20051.50	3.9230	3.9230	0.9698	7.00	1.01	0.750			
0.3162	20236.53	3.9200	3.9200	0.9649	6.99	1.00	0.750			
0.3191	20424.07	3.9170	3.9171	0.9683	6.99	1.00	0.750			
0.3220	20610.12	3.9140	3.9140	0.9859	6.98	0.99	0.750			
0.3250	20800.96	3.9110	3.9111	0.9953	6.97	0.98	0.750			
0.3280	20992.97	3.9080	3.9080	1.0078	6.96	0.97	0.750			
0.3311	21187.96	3.9050	3.9050	1.0084	6.95	0.96	0.750			
0.3341	21381.78	3.9020	3.9021	1.0248	6.94	0.95	0.750			
0.3372	21581.27	3.8990	3.8990	1.0357	6.94	0.95	0.750			
0.3403	21780.99	3.8960	3.8961	1.0417	6.93	0.94	0.750			
0.3434	21979.62	3.8930	3.8929	1.0445	6.93	0.94	0.750			
0.3466	22182.07	3.8900	3.8901	1.0628	6.92	0.93	0.750			
0.3498	22384.69	3.8870	3.8870	1.0782	6.91	0.92	0.750			
0.3531	22595.33	3.8840	3.8841	1.0918	6.91	0.92	0.750			
0.3564	22810.04	3.8810	3.8809	1.0818	6.90	0.91	0.750			
0.3597	23018.92	3.8780	3.8781	1.1004	6.89	0.90	0.750			
0.3630	23230.02	3.8750	3.8751	1.1163	6.87	0.88	0.750			
0.3663	23444.08	3.8720	3.8721	1.1286	6.86	0.87	0.750			
0.3697	23660.44	3.8690	3.8691	1.1385	6.86	0.87	0.750			
0.3731	23877.66	3.8660	3.8662	1.1559	6.85	0.86	0.750			
0.3766	24104.82	3.8630	3.8631	1.1824	6.85	0.86	0.750			
0.3803	24338.44	3.8600	3.8597	1.1979	6.84	0.85	0.750			
0.3838	24562.72	3.8570	3.8571	1.2173	6.83	0.84	0.750			
0.3875	24799.17	3.8540	3.8541	1.2381	6.82	0.83	0.750			
0.3913	25043.77	3.8510	3.8509	1.2491	6.81	0.82	0.750			
0.3951	25283.78	3.8480	3.8480	1.2610	6.80	0.81	0.750			
0.3988	25526.02	3.8450	3.8452	1.2852	6.79	0.80	0.750			
0.4027	25775.41	3.8420	3.8421	1.3155	6.78	0.79	0.750			
0.4067	26027.80	3.8390	3.8391	1.3566	6.77	0.78	0.750			
0.4108	26290.84	3.8360	3.8363	1.3719	6.75	0.76	0.750	0.379	0.904	
0.4150	26560.80	3.8330	3.8334	1.4158	6.74	0.75	0.750			
0.4193	26837.26	3.8300	3.8302	1.4528	6.73	0.74	0.750			
0.4237	27118.86	3.8270	3.8268	1.4636	6.72	0.73	0.750			
0.4281	27395.42	3.8240	3.8242	1.4646	6.70	0.71	0.750			
0.4326	27686.44	3.8210	3.8209	1.5100	6.69	0.70	0.750			
0.4371	27973.77	3.8180	3.8175	1.5486	6.68	0.69	0.750			
0.4419	28278.71	3.8150	3.8149	1.5449	6.67	0.68	0.750			
0.4466	28579.67	3.8120	3.8119	1.5928	6.66	0.67	0.750			
0.4515	28893.65	3.8090	3.8092	1.6337	6.64	0.65	0.750			
0.4562	29199.24	3.8060	3.8056	1.6555	6.63	0.64	0.750			
0.4613	29522.12	3.8030	3.8031	1.6861	6.61	0.62	0.750			
0.4664	29847.70	3.8000	3.8001	1.7032	6.59	0.60	0.750			
0.4717	30187.93	3.7970	3.7971	1.7483	6.58	0.59	0.750			
0.4770	30526.40	3.7940	3.7941	1.7641	6.56	0.57	0.750			
0.4823	30867.88	3.7910	3.7912	1.8148	6.54	0.55	0.750			
0.4877	31211.63	3.7880	3.7881	1.8602	6.53	0.54	0.750			
0.4933	31571.04	3.7850	3.7848	1.8863	6.51	0.52	0.750			
0.4991	31944.61	3.7820	3.7819	1.9171	6.49	0.50	0.750			
0.5049	32313.60	3.7790	3.7788	1.9100	6.47	0.48	0.750			
0.5105	32675.05	3.7760	3.7760	1.9284	6.45	0.46	0.750			
0.5165	33055.33	3.7730	3.7730	1.9540	6.43	0.44	0.750			
0.5224	33435.63	3.7700	3.7704	1.9948	6.41	0.42	0.750			
0.5286	33828.78	3.7670	3.7671	2.0304	6.39	0.40	0.750			
0.5347	34218.64	3.7640	3.7641	2.0059	6.38	0.39	0.750			
0.5408	34612.74	3.7610	3.7610	2.0893	6.36	0.37	0.750			
0.5472	35020.78	3.7580	3.7580	2.0720	6.34	0.35	0.750			
0.5533	35413.20	3.7550	3.7549	2.0887	6.32	0.33	0.750			
0.5596	35812.59	3.7520	3.7519	2.1470	6.30	0.31	0.750			
0.5662	36235.55	3.7490	3.7489	2.1426	6.27	0.28	0.750			
0.5725	36642.31	3.7460	3.7462	2.2227	6.26	0.27	0.750			
0.5791	37064.70	3.7430	3.7429	2.2496	6.24	0.25	0.750			
0.5862	37513.62	3.7400	3.7401	2.3209	6.22	0.23	0.750			
0.5933	37971.42	3.7370	3.7369	2.4700	6.19	0.20	0.750			
0.6007	38444.39	3.7340	3.7339	2.4569	6.16	0.17	0.750			
0.6083	38932.88	3.7310	3.7314	2.5500	6.14	0.15	0.750			
0.6161	39433.45	3.7280	3.7280	2.5811	6.11	0.12	0.750			
0.6236	39909.88	3.7250	3.7251	2.5856	6.10	0.11	0.750			
0.6316	40424.84	3.7220	3.7218	2.5142	6.09	0.10	0.750			
0.6390	40897.52	3.7190	3.7194	2.4915	6.06	0.07	0.750			
0.6466	41384.50	3.7160	3.7160	2.3867	6.04	0.05	0.750			
0.6536	41831.76	3.7130	3.7129	2.1941	6.02	0.03	0.750			
0.6602	42250.65	3.7100	3.7098	2.0496	6.01	0.02	0.750			
0.6658	42609.80	3.7070	3.7071	1.7928	5.99	0.00	0.750			
0.6708	42930.65	3.7040	3.7038	1.6204	5.99	-0.00	0.750			
0.6753	43219.12	3.7010	3.7011	1.4404	5.98	-0.01	0.750			
0.6792	43467.00	3.6980	3.6979	1.2819	5.98	-0.01	0.750			
0.6827	43695.46	3.6950	3.6949	1.1481	5.98	-0.01	0.750			
0.6858	43893.03	3.6920	3.6921	1.0411	5.98	-0.01	0.750			
0.6888	44081.36	3.6890	3.6890	0.9814	5.97	-0.02	0.750			
0.6915	44259.09	3.6860	3.6860	0.9224	5.97	-0.02	0.750			
0.6942	44431.66	3.6830	3.6830	0.8834	5.97	-0.02	0.750			
0.6968	44597.12	3.6800	3.6800	0.8418	5.97	-0.02	0.750			
0.6993	44756.46	3.6770	3.6771	0.8147	5.97	-0.02	0.750			
0.7017	44911.21	3.6740	3.6740	0.7863	5.97	-0.02	0.750			
0.7040	45057.24	3.6710	3.6710	0.7462	5.97	-0.02	0.750			
0.7062	45197.54	3.6680	3.6680	0.7115	5.97	-0.02	0.750			
0.7083	45331.86	3.6650	3.6650	0.6686	5.98	-0.01	0.750			
0.7103	45457.55	3.6620	3.6622	0.6309	5.98	-0.01	0.750			
0.7121	45576.93	3.6590	3.6589	0.5847	5.98	-0.01	0.750			
0.7138	45680.78	3.6560	3.6558	0.5380	5.98	-0.01	0.750			
0.7153	45778.02	3.6530	3.6531	0.4971	5.99	-0.00	0.750			
0.7167	45869.78	3.6500	3.6500	0.4628	5.99	-0.00	0.750			
0.7181	45955.33	3.6470	3.6469	0.4285	5.99	0.00	0.750			
0.7193	46035.59	3.6440	3.6440	0.3943	5.99	0.00	0.750			
0.7204	46107.58	3.6410	3.6411	0.3572	5.99	0.00	0.750			
0.7215	46174.39	3.6380	3.6379	0.3233	6.00	0.01	0.750			
0.7224	46231.67	3.6350	3.6350	0.2845	6.00	0.01	0.750			
0.7232	46283.26	3.6320	3.6321	0.2466	6.00	0.01	0.750			
0.7239	46326.98	3.6290	3.6288	0.2094	6.00	0.01	0.750			
0.7244	46364.36	3.6260	3.6260	0.1731	6.00	0.01	0.750			
0.7249	46394.65	3.6230	3.6232	0.1357	6.00	0.01	0.750			
0.7253	46417.56	3.6200	3.6202	0.0960	6.00	0.01	0.750			
0.7255	46433.55	3.6170	3.6172	0.0513	6.00	0.01	0.750			
0.7256	46439.02	3.6140	3.6155	0.0056	6.00	0.01	0.750			
