Ah_balance (normalized)	Ah_balance (mAh)	Voltage - fit (V)	Voltage -  interpolate (V)	dQ/dV (1/V)	Temperature (°C)	Temperature - diff (°C)	Current (C)	R_DC 0ms (mOhm)	R_DC 50ms (mOhm)	R_DC 50 ms PEC (mOhm)
0.0923	5904.82	4.0020	4.0019	-0.0925	6.00	0.01	-0.750			
0.0926	5925.33	3.9990	3.9989	-0.1193	6.00	0.01	-0.750			
0.0930	5950.72	3.9960	3.9960	-0.1451	6.00	0.01	-0.750			
0.0935	5981.10	3.9930	3.9930	-0.1707	5.99	0.00	-0.750			
0.0940	6016.48	3.9900	3.9902	-0.1952	5.99	0.00	-0.750			
0.0946	6057.40	3.9870	3.9869	-0.2189	5.99	0.00	-0.750			
0.0953	6101.70	3.9840	3.9839	-0.2402	5.99	0.00	-0.750			
0.0961	6150.09	3.9810	3.9810	-0.2636	5.99	0.00	-0.750			
0.0969	6202.10	3.9780	3.9781	-0.2878	5.99	-0.00	-0.750			
0.0978	6259.81	3.9750	3.9749	-0.3114	5.99	-0.00	-0.750			
0.0988	6321.34	3.9720	3.9720	-0.3365	5.99	-0.00	-0.750			
0.0998	6388.29	3.9690	3.9689	-0.3605	5.98	-0.01	-0.750			
0.1009	6460.05	3.9660	3.9661	-0.3855	5.98	-0.01	-0.750			
0.1021	6536.83	3.9630	3.9629	-0.4106	5.98	-0.01	-0.750			
0.1034	6617.28	3.9600	3.9600	-0.4331	5.98	-0.01	-0.750			
0.1047	6702.44	3.9570	3.9570	-0.4562	5.98	-0.01	-0.750			
0.1061	6792.84	3.9540	3.9540	-0.4819	5.97	-0.02	-0.750			
0.1076	6888.14	3.9510	3.9508	-0.5022	5.97	-0.02	-0.750			
0.1092	6986.56	3.9480	3.9482	-0.5262	5.97	-0.02	-0.750			
0.1108	7090.20	3.9450	3.9450	-0.5465	5.97	-0.02	-0.750			
0.1125	7198.74	3.9420	3.9420	-0.5609	5.97	-0.02	-0.750			
0.1142	7308.34	3.9390	3.9389	-0.5765	5.97	-0.02	-0.750			
0.1159	7419.86	3.9360	3.9362	-0.5950	5.96	-0.03	-0.750			
0.1178	7536.77	3.9330	3.9329	-0.6054	5.96	-0.03	-0.750			
0.1196	7655.62	3.9300	3.9298	-0.6171	5.96	-0.03	-0.750			
0.1215	7773.74	3.9270	3.9274	-0.6264	5.96	-0.03	-0.750			
0.1234	7894.72	3.9240	3.9240	-0.6400	5.96	-0.03	-0.750			
0.1253	8018.72	3.9210	3.9209	-0.6527	5.96	-0.03	-0.750			
0.1273	8144.35	3.9180	3.9180	-0.6597	5.96	-0.03	-0.750			
0.1293	8275.58	3.9150	3.9149	-0.6714	5.97	-0.02	-0.750			
0.1313	8404.66	3.9120	3.9121	-0.6803	5.97	-0.02	-0.750			
0.1334	8535.22	3.9090	3.9090	-0.6901	5.97	-0.02	-0.750			
0.1354	8667.15	3.9060	3.9058	-0.6975	5.97	-0.02	-0.750			
0.1375	8800.73	3.9030	3.9029	-0.7039	5.98	-0.01	-0.750			
0.1397	8938.40	3.9000	3.9000	-0.7148	5.98	-0.01	-0.750			
0.1418	9077.83	3.8970	3.8971	-0.7226	5.98	-0.01	-0.750			
0.1441	9221.78	3.8940	3.8940	-0.7276	5.99	-0.00	-0.750			
0.1463	9360.78	3.8910	3.8912	-0.7159	5.99	-0.00	-0.750			
0.1484	9495.28	3.8880	3.8880	-0.7127	5.99	0.00	-0.750			
0.1505	9632.04	3.8850	3.8850	-0.7109	6.00	0.01	-0.750			
0.1526	9766.72	3.8820	3.8820	-0.7109	6.00	0.01	-0.750			
0.1547	9902.29	3.8790	3.8789	-0.7134	6.00	0.01	-0.750			
0.1569	10040.78	3.8760	3.8761	-0.7193	6.01	0.02	-0.750			
0.1591	10179.89	3.8730	3.8732	-0.7259	6.01	0.02	-0.750			
0.1613	10320.26	3.8700	3.8698	-0.7346	6.02	0.03	-0.750			
0.1635	10461.31	3.8670	3.8671	-0.7342	6.02	0.03	-0.750			
0.1657	10604.08	3.8640	3.8640	-0.7407	6.03	0.04	-0.750			
0.1679	10748.10	3.8610	3.8609	-0.7452	6.03	0.04	-0.750			
0.1702	10890.49	3.8580	3.8580	-0.7444	6.04	0.05	-0.750			
0.1724	11033.68	3.8550	3.8548	-0.7395	6.04	0.05	-0.750			
0.1746	11174.37	3.8520	3.8520	-0.7383	6.04	0.05	-0.750			
0.1768	11315.57	3.8490	3.8490	-0.7451	6.05	0.06	-0.750			
0.1790	11457.81	3.8460	3.8460	-0.7415	6.05	0.06	-0.750			
0.1813	11604.21	3.8430	3.8429	-0.7469	6.06	0.07	-0.750			
0.1835	11746.92	3.8400	3.8401	-0.7426	6.06	0.07	-0.750			
0.1858	11888.65	3.8370	3.8370	-0.7438	6.07	0.08	-0.750			
0.1880	12031.56	3.8340	3.8340	-0.7456	6.08	0.09	-0.750			
0.1902	12172.68	3.8310	3.8309	-0.7422	6.08	0.09	-0.750			
0.1924	12314.36	3.8280	3.8280	-0.7401	6.09	0.10	-0.750			
0.1947	12460.74	3.8250	3.8250	-0.7453	6.10	0.11	-0.750			
0.1969	12603.11	3.8220	3.8220	-0.7460	6.11	0.12	-0.750			
0.1992	12746.12	3.8190	3.8190	-0.7481	6.11	0.12	-0.750			
0.2014	12888.72	3.8160	3.8159	-0.7499	6.12	0.13	-0.750			
0.2036	13032.95	3.8130	3.8130	-0.7503	6.12	0.13	-0.750			
0.2059	13178.48	3.8100	3.8099	-0.7535	6.12	0.13	-0.750			
0.2082	13322.91	3.8070	3.8070	-0.7549	6.13	0.14	-0.750			
0.2105	13469.84	3.8040	3.8040	-0.7527	6.13	0.14	-0.750			
0.2127	13611.92	3.8010	3.8010	-0.7523	6.14	0.15	-0.750			
0.2149	13756.18	3.7980	3.7981	-0.7511	6.15	0.16	-0.750			
0.2172	13900.95	3.7950	3.7950	-0.7511	6.16	0.17	-0.750			
0.2195	14045.67	3.7920	3.7920	-0.7552	6.16	0.17	-0.750			
0.2217	14189.92	3.7890	3.7893	-0.7575	6.17	0.18	-0.750			
0.2240	14335.11	3.7860	3.7860	-0.7618	6.18	0.19	-0.750			
0.2263	14484.09	3.7830	3.7829	-0.7639	6.19	0.20	-0.750			
0.2286	14630.29	3.7800	3.7801	-0.7607	6.19	0.20	-0.750			
0.2309	14777.40	3.7770	3.7770	-0.7635	6.20	0.21	-0.750			
0.2332	14923.35	3.7740	3.7740	-0.7659	6.21	0.22	-0.750			
0.2355	15069.20	3.7710	3.7709	-0.7634	6.21	0.22	-0.750			
0.2377	15215.46	3.7680	3.7680	-0.7663	6.22	0.23	-0.750			
0.2401	15363.56	3.7650	3.7651	-0.7666	6.23	0.24	-0.750			
0.2424	15511.48	3.7620	3.7620	-0.7731	6.24	0.25	-0.750			
0.2447	15661.28	3.7590	3.7590	-0.7746	6.24	0.25	-0.750			
0.2470	15808.18	3.7560	3.7561	-0.7758	6.25	0.26	-0.750			
0.2493	15957.48	3.7530	3.7531	-0.7775	6.26	0.27	-0.750			
0.2517	16107.00	3.7500	3.7500	-0.7850	6.27	0.28	-0.750			
0.2540	16257.28	3.7470	3.7469	-0.7929	6.27	0.28	-0.750			
0.2564	16411.42	3.7440	3.7440	-0.7964	6.28	0.29	-0.750			
0.2588	16563.52	3.7410	3.7409	-0.8015	6.29	0.30	-0.750			
0.2613	16720.03	3.7380	3.7380	-0.8074	6.29	0.30	-0.750			
0.2637	16875.45	3.7350	3.7349	-0.8123	6.30	0.31	-0.750			
0.2661	17032.79	3.7320	3.7320	-0.8136	6.30	0.31	-0.750			
0.2686	17188.03	3.7290	3.7290	-0.8146	6.31	0.32	-0.750			
0.2710	17344.90	3.7260	3.7261	-0.8161	6.31	0.32	-0.750			
0.2735	17501.82	3.7230	3.7229	-0.8254	6.32	0.33	-0.750			
0.2759	17659.07	3.7200	3.7200	-0.8317	6.32	0.33	-0.750			
0.2784	17820.48	3.7170	3.7169	-0.8383	6.33	0.34	-0.750			
0.2810	17981.79	3.7140	3.7140	-0.8440	6.34	0.35	-0.750			
0.2835	18146.87	3.7110	3.7111	-0.8551	6.35	0.36	-0.750			
0.2861	18310.40	3.7080	3.7079	-0.8621	6.35	0.36	-0.750			
0.2887	18477.12	3.7050	3.7050	-0.8680	6.36	0.37	-0.750			
0.2913	18643.26	3.7020	3.7020	-0.8727	6.36	0.37	-0.750			
0.2939	18810.85	3.6990	3.6990	-0.8800	6.37	0.38	-0.750			
0.2966	18983.21	3.6960	3.6962	-0.8931	6.37	0.38	-0.750			
0.2993	19154.94	3.6930	3.6930	-0.8972	6.38	0.39	-0.750			
0.3020	19327.72	3.6900	3.6899	-0.9036	6.38	0.39	-0.750			
0.3047	19501.04	3.6870	3.6870	-0.9130	6.39	0.40	-0.750			
0.3075	19677.85	3.6840	3.6840	-0.9189	6.40	0.41	-0.750			
0.3102	19854.72	3.6810	3.6810	-0.9232	6.40	0.41	-0.750			
0.3130	20031.86	3.6780	3.6780	-0.9387	6.41	0.42	-0.750			
0.3159	20215.04	3.6750	3.6749	-0.9442	6.42	0.43	-0.750			
0.3187	20398.60	3.6720	3.6719	-0.9521	6.42	0.43	-0.750			
0.3216	20581.18	3.6690	3.6693	-0.9588	6.43	0.44	-0.750			
0.3245	20766.64	3.6660	3.6660	-0.9745	6.43	0.44	-0.750			
0.3275	20958.04	3.6630	3.6628	-0.9784	6.44	0.45	-0.750			
0.3304	21144.85	3.6600	3.6599	-0.9769	6.44	0.45	-0.750			
0.3333	21333.27	3.6570	3.6572	-0.9842	6.45	0.46	-0.750			
0.3363	21521.86	3.6540	3.6538	-1.0014	6.45	0.46	-0.750			
0.3393	21713.49	3.6510	3.6509	-1.0068	6.46	0.47	-0.750			
0.3423	21906.43	3.6480	3.6479	-1.0160	6.46	0.47	-0.750			
0.3454	22106.91	3.6450	3.6449	-1.0380	6.47	0.48	-0.750			
0.3486	22307.22	3.6420	3.6419	-1.0413	6.47	0.48	-0.750			
0.3517	22507.90	3.6390	3.6390	-1.0392	6.48	0.49	-0.750			
0.3547	22703.42	3.6360	3.6361	-1.0469	6.48	0.49	-0.750			
0.3578	22901.37	3.6330	3.6330	-1.0542	6.49	0.50	-0.750			
0.3610	23106.31	3.6300	3.6299	-1.0763	6.49	0.50	-0.750			
0.3643	23315.29	3.6270	3.6269	-1.0915	6.49	0.50	-0.750			
0.3677	23529.64	3.6240	3.6241	-1.1070	6.49	0.50	-0.750			
0.3710	23743.96	3.6210	3.6212	-1.1153	6.49	0.50	-0.750			
0.3744	23963.09	3.6180	3.6179	-1.1303	6.49	0.50	-0.750			
0.3778	24178.54	3.6150	3.6149	-1.1305	6.50	0.51	-0.750			
0.3812	24393.65	3.6120	3.6120	-1.1340	6.51	0.52	-0.750			
0.3846	24611.45	3.6090	3.6092	-1.1481	6.51	0.52	-0.750			
0.3881	24835.72	3.6060	3.6060	-1.1636	6.52	0.53	-0.750			
0.3916	25059.68	3.6030	3.6029	-1.1726	6.52	0.53	-0.750			
0.3951	25284.54	3.6000	3.6000	-1.1803	6.53	0.54	-0.750			
0.3987	25514.55	3.5970	3.5969	-1.2070	6.53	0.54	-0.750			
0.4023	25747.54	3.5940	3.5939	-1.2143	6.53	0.54	-0.750			
0.4060	25982.47	3.5910	3.5908	-1.2167	6.53	0.54	-0.750			
0.4096	26215.33	3.5880	3.5882	-1.2332	6.53	0.54	-0.750	0.491	1.085	
0.4134	26456.61	3.5850	3.5850	-1.2473	6.54	0.55	-0.750			
0.4171	26697.05	3.5820	3.5817	-1.2557	6.54	0.55	-0.750			
0.4209	26938.29	3.5790	3.5791	-1.2760	6.55	0.56	-0.750			
0.4247	27183.56	3.5760	3.5759	-1.2873	6.55	0.56	-0.750			
0.4287	27436.19	3.5730	3.5729	-1.2999	6.55	0.56	-0.750			
0.4326	27685.90	3.5700	3.5701	-1.3149	6.55	0.56	-0.750			
0.4365	27934.41	3.5670	3.5669	-1.3178	6.56	0.57	-0.750			
0.4405	28193.55	3.5640	3.5638	-1.3370	6.57	0.58	-0.750			
0.4445	28449.00	3.5610	3.5611	-1.3537	6.58	0.59	-0.750			
0.4486	28707.76	3.5580	3.5578	-1.3603	6.58	0.59	-0.750			
0.4528	28976.52	3.5550	3.5550	-1.3888	6.58	0.59	-0.750			
0.4569	29243.91	3.5520	3.5520	-1.4072	6.59	0.60	-0.750			
0.4611	29511.85	3.5490	3.5490	-1.4110	6.59	0.60	-0.750			
0.4655	29791.95	3.5460	3.5459	-1.4326	6.60	0.61	-0.750			
0.4698	30065.89	3.5430	3.5428	-1.4494	6.60	0.61	-0.750			
0.4741	30345.60	3.5400	3.5400	-1.4597	6.60	0.61	-0.750			
0.4786	30629.31	3.5370	3.5369	-1.4675	6.61	0.62	-0.750			
0.4830	30911.49	3.5340	3.5340	-1.4768	6.61	0.62	-0.750			
0.4874	31192.37	3.5310	3.5310	-1.4834	6.62	0.63	-0.750			
0.4919	31483.83	3.5280	3.5280	-1.5023	6.62	0.63	-0.750			
0.4964	31772.36	3.5250	3.5252	-1.5130	6.63	0.64	-0.750			
0.5010	32062.06	3.5220	3.5219	-1.5120	6.63	0.64	-0.750			
0.5056	32355.90	3.5190	3.5192	-1.5480	6.63	0.64	-0.750			
0.5103	32659.40	3.5160	3.5160	-1.5395	6.63	0.64	-0.750			
0.5150	32959.66	3.5130	3.5129	-1.5528	6.64	0.65	-0.750			
0.5196	33256.36	3.5100	3.5102	-1.5475	6.65	0.66	-0.750			
0.5243	33553.41	3.5070	3.5068	-1.5438	6.65	0.66	-0.750			
0.5289	33848.69	3.5040	3.5040	-1.5663	6.66	0.67	-0.750			
0.5336	34149.05	3.5010	3.5011	-1.5556	6.67	0.68	-0.750			
0.5383	34449.27	3.4980	3.4981	-1.5640	6.68	0.69	-0.750			
0.5430	34754.96	3.4950	3.4949	-1.5520	6.69	0.70	-0.750			
0.5476	35048.47	3.4920	3.4920	-1.5581	6.70	0.71	-0.750			
0.5523	35350.26	3.4890	3.4892	-1.5474	6.71	0.72	-0.750			
0.5570	35649.80	3.4860	3.4857	-1.5480	6.73	0.74	-0.750			
0.5616	35940.64	3.4830	3.4829	-1.5264	6.74	0.75	-0.750			
0.5662	36239.56	3.4800	3.4801	-1.5425	6.75	0.76	-0.750			
0.5709	36536.26	3.4770	3.4769	-1.5393	6.77	0.78	-0.750			
0.5754	36827.70	3.4740	3.4739	-1.5250	6.78	0.79	-0.750			
0.5801	37125.06	3.4710	3.4713	-1.5161	6.78	0.79	-0.750			
0.5847	37421.23	3.4680	3.4680	-1.5130	6.79	0.80	-0.750			
0.5891	37702.77	3.4650	3.4652	-1.5454	6.81	0.82	-0.750			
0.5937	37997.14	3.4620	3.4618	-1.5570	6.82	0.83	-0.750			
0.5984	38299.46	3.4590	3.4587	-1.5641	6.84	0.85	-0.750			
0.6033	38612.67	3.4560	3.4560	-1.5590	6.85	0.86	-0.750			
0.6080	38913.50	3.4530	3.4533	-1.5310	6.87	0.88	-0.750			
0.6127	39215.08	3.4500	3.4499	-1.4970	6.88	0.89	-0.750			
0.6172	39499.20	3.4470	3.4469	-1.4477	6.90	0.91	-0.750			
0.6212	39755.08	3.4440	3.4443	-1.3878	6.91	0.92	-0.750			
0.6254	40022.94	3.4410	3.4409	-1.3705	6.92	0.93	-0.750			
0.6295	40286.55	3.4380	3.4379	-1.3487	6.94	0.95	-0.750			
0.6334	40540.66	3.4350	3.4351	-1.3253	6.95	0.96	-0.750			
0.6374	40796.72	3.4320	3.4320	-1.3086	6.97	0.98	-0.750			
0.6413	41044.73	3.4290	3.4289	-1.2771	6.99	1.00	-0.750			
0.6451	41284.70	3.4260	3.4260	-1.2530	7.00	1.01	-0.750			
0.6488	41521.28	3.4230	3.4231	-1.2315	7.02	1.03	-0.750			
0.6525	41759.10	3.4200	3.4199	-1.2149	7.03	1.04	-0.750			
0.6561	41990.01	3.4170	3.4170	-1.1908	7.04	1.05	-0.750			
0.6596	42214.63	3.4140	3.4141	-1.1697	7.05	1.06	-0.750			
0.6631	42440.87	3.4110	3.4110	-1.1401	7.07	1.08	-0.750			
0.6666	42659.50	3.4080	3.4079	-1.1100	7.09	1.10	-0.750			
0.6698	42867.71	3.4050	3.4050	-1.0778	7.10	1.11	-0.750			
0.6730	43071.11	3.4020	3.4020	-1.0461	7.12	1.13	-0.750			
0.6761	43268.22	3.3990	3.3989	-1.0228	7.13	1.14	-0.750			
0.6791	43462.13	3.3960	3.3959	-0.9928	7.15	1.16	-0.750			
0.6820	43648.74	3.3930	3.3930	-0.9668	7.16	1.17	-0.750			
0.6849	43835.19	3.3900	3.3901	-0.9461	7.18	1.19	-0.750			
0.6877	44013.23	3.3870	3.3871	-0.9261	7.19	1.20	-0.750			
0.6904	44188.61	3.3840	3.3839	-0.9029	7.21	1.22	-0.750			
0.6931	44359.21	3.3810	3.3811	-0.8758	7.22	1.23	-0.750			
0.6957	44526.58	3.3780	3.3780	-0.8562	7.24	1.25	-0.750			
0.6983	44690.06	3.3750	3.3751	-0.8365	7.25	1.26	-0.750			
0.7007	44846.36	3.3720	3.3720	-0.8119	7.26	1.27	-0.750			
0.7031	45001.02	3.3690	3.3689	-0.7864	7.28	1.29	-0.750			
0.7054	45148.07	3.3660	3.3659	-0.7565	7.29	1.30	-0.750			
0.7077	45292.20	3.3630	3.3631	-0.7346	7.30	1.31	-0.750			
0.7098	45430.10	3.3600	3.3601	-0.7124	7.32	1.33	-0.750			
0.7119	45563.52	3.3570	3.3570	-0.6919	7.33	1.34	-0.750			
0.7140	45693.49	3.3540	3.3539	-0.6749	7.34	1.35	-0.750			
0.7159	45819.56	3.3510	3.3510	-0.6583	7.35	1.36	-0.750			
0.7179	45947.06	3.3480	3.3481	-0.6461	7.37	1.38	-0.750			
0.7199	46071.24	3.3450	3.3449	-0.6291	7.38	1.39	-0.750			
0.7217	46190.60	3.3420	3.3421	-0.6021	7.39	1.40	-0.750			
0.7235	46303.90	3.3390	3.3390	-0.5800	7.40	1.41	-0.750			
