Ah_balance (normalized)	Ah_balance (mAh)	Voltage - fit (V)	Voltage -  interpolate (V)	dQ/dV (1/V)	Temperature (°C)	Temperature - diff (°C)	Current (C)	R_DC 0ms (mOhm)	R_DC 50ms (mOhm)	R_DC 50 ms PEC (mOhm)
0.0941	6022.91	4.0070	4.0066	-0.0830	6.00	0.01	-0.750			
0.0944	6042.52	4.0040	4.0036	-0.1135	6.00	0.01	-0.750			
0.0948	6066.89	4.0010	4.0009	-0.1404	6.00	0.01	-0.750			
0.0953	6096.91	3.9980	3.9981	-0.1650	6.00	0.01	-0.750			
0.0958	6130.90	3.9950	3.9951	-0.1905	5.99	0.00	-0.750			
0.0964	6171.27	3.9920	3.9920	-0.2147	5.99	0.00	-0.750			
0.0971	6214.05	3.9890	3.9890	-0.2381	5.99	-0.00	-0.750			
0.0978	6261.69	3.9860	3.9860	-0.2602	5.99	-0.00	-0.750			
0.0987	6314.09	3.9830	3.9830	-0.2827	5.98	-0.01	-0.750			
0.0995	6370.57	3.9800	3.9799	-0.3061	5.98	-0.01	-0.750			
0.1005	6431.38	3.9770	3.9771	-0.3300	5.98	-0.01	-0.750			
0.1015	6496.67	3.9740	3.9740	-0.3531	5.98	-0.01	-0.750			
0.1026	6567.32	3.9710	3.9710	-0.3778	5.97	-0.02	-0.750			
0.1038	6641.96	3.9680	3.9680	-0.4000	5.97	-0.02	-0.750			
0.1050	6720.82	3.9650	3.9650	-0.4291	5.96	-0.03	-0.750			
0.1064	6806.49	3.9620	3.9620	-0.4513	5.96	-0.03	-0.750			
0.1077	6895.90	3.9590	3.9588	-0.4725	5.96	-0.03	-0.750			
0.1092	6988.81	3.9560	3.9563	-0.4935	5.95	-0.04	-0.750			
0.1107	7085.74	3.9530	3.9530	-0.5146	5.95	-0.04	-0.750			
0.1123	7186.33	3.9500	3.9500	-0.5336	5.95	-0.04	-0.750			
0.1139	7290.63	3.9470	3.9470	-0.5501	5.94	-0.05	-0.750			
0.1156	7396.71	3.9440	3.9441	-0.5696	5.94	-0.05	-0.750			
0.1174	7511.09	3.9410	3.9410	-0.5887	5.94	-0.05	-0.750			
0.1191	7625.23	3.9380	3.9379	-0.6040	5.93	-0.06	-0.750			
0.1210	7742.80	3.9350	3.9350	-0.6174	5.93	-0.06	-0.750			
0.1229	7862.69	3.9320	3.9321	-0.6317	5.93	-0.06	-0.750			
0.1248	7985.66	3.9290	3.9289	-0.6462	5.93	-0.06	-0.750			
0.1267	8111.22	3.9260	3.9259	-0.6586	5.93	-0.06	-0.750			
0.1287	8238.55	3.9230	3.9230	-0.6692	5.93	-0.06	-0.750			
0.1307	8365.45	3.9200	3.9201	-0.7050	5.93	-0.06	-0.750			
0.1328	8502.17	3.9170	3.9170	-0.7286	5.93	-0.06	-0.750			
0.1351	8648.08	3.9140	3.9137	-0.7415	5.93	-0.06	-0.750			
0.1374	8795.17	3.9110	3.9112	-0.7541	5.93	-0.06	-0.750			
0.1398	8944.74	3.9080	3.9082	-0.7512	5.93	-0.06	-0.750			
0.1421	9092.78	3.9050	3.9050	-0.7471	5.94	-0.05	-0.750			
0.1443	9232.65	3.9020	3.9019	-0.7381	5.94	-0.05	-0.750			
0.1464	9368.00	3.8990	3.8990	-0.7246	5.94	-0.05	-0.750			
0.1485	9506.38	3.8960	3.8959	-0.7292	5.94	-0.05	-0.750			
0.1507	9647.01	3.8930	3.8930	-0.7344	5.94	-0.05	-0.750			
0.1529	9788.23	3.8900	3.8900	-0.7394	5.94	-0.05	-0.750			
0.1552	9931.44	3.8870	3.8870	-0.7448	5.95	-0.04	-0.750			
0.1574	10075.95	3.8840	3.8840	-0.7481	5.95	-0.04	-0.750			
0.1597	10220.48	3.8810	3.8810	-0.7492	5.95	-0.04	-0.750			
0.1620	10364.83	3.8780	3.8780	-0.7525	5.95	-0.04	-0.750			
0.1642	10509.51	3.8750	3.8750	-0.7528	5.96	-0.03	-0.750			
0.1665	10654.05	3.8720	3.8720	-0.7536	5.96	-0.03	-0.750			
0.1687	10797.99	3.8690	3.8689	-0.7572	5.96	-0.03	-0.750			
0.1710	10943.07	3.8660	3.8660	-0.7609	5.97	-0.02	-0.750			
0.1733	11089.47	3.8630	3.8629	-0.7660	5.97	-0.02	-0.750			
0.1756	11237.06	3.8600	3.8600	-0.7702	5.98	-0.01	-0.750			
0.1779	11385.08	3.8570	3.8571	-0.7730	5.99	-0.00	-0.750			
0.1802	11535.38	3.8540	3.8540	-0.7719	6.00	0.01	-0.750			
0.1826	11685.49	3.8510	3.8510	-0.7719	6.00	0.01	-0.750			
0.1849	11832.03	3.8480	3.8481	-0.7719	6.01	0.02	-0.750			
0.1872	11978.25	3.8450	3.8449	-0.7736	6.01	0.02	-0.750			
0.1895	12126.95	3.8420	3.8420	-0.7786	6.02	0.03	-0.750			
0.1918	12277.26	3.8390	3.8390	-0.7818	6.02	0.03	-0.750			
0.1942	12428.95	3.8360	3.8360	-0.7809	6.03	0.04	-0.750			
0.1966	12579.67	3.8330	3.8330	-0.7842	6.03	0.04	-0.750			
0.1989	12729.87	3.8300	3.8300	-0.7840	6.03	0.04	-0.750			
0.2012	12879.58	3.8270	3.8267	-0.7827	6.04	0.05	-0.750			
0.2036	13028.07	3.8240	3.8241	-0.7827	6.04	0.05	-0.750			
0.2059	13179.07	3.8210	3.8210	-0.7872	6.04	0.05	-0.750			
0.2083	13332.89	3.8180	3.8180	-0.7902	6.05	0.06	-0.750			
0.2107	13485.51	3.8150	3.8149	-0.7884	6.05	0.06	-0.750			
0.2130	13633.46	3.8120	3.8121	-0.7900	6.06	0.07	-0.750			
0.2154	13786.36	3.8090	3.8090	-0.7901	6.07	0.08	-0.750			
0.2178	13938.25	3.8060	3.8059	-0.7895	6.08	0.09	-0.750			
0.2202	14091.24	3.8030	3.8029	-0.7822	6.08	0.09	-0.750			
0.2225	14240.49	3.8000	3.8001	-0.7826	6.09	0.10	-0.750			
0.2248	14389.90	3.7970	3.7971	-0.7854	6.10	0.11	-0.750			
0.2272	14539.84	3.7940	3.7940	-0.7876	6.11	0.12	-0.750			
0.2295	14689.07	3.7910	3.7908	-0.7848	6.11	0.12	-0.750			
0.2319	14843.38	3.7880	3.7881	-0.7956	6.12	0.13	-0.750			
0.2343	14997.10	3.7850	3.7851	-0.7995	6.13	0.14	-0.750			
0.2368	15152.53	3.7820	3.7819	-0.8004	6.14	0.15	-0.750			
0.2392	15306.30	3.7790	3.7791	-0.7952	6.15	0.16	-0.750			
0.2415	15456.10	3.7760	3.7760	-0.7896	6.15	0.16	-0.750			
0.2439	15607.36	3.7730	3.7731	-0.7924	6.16	0.17	-0.750			
0.2462	15759.27	3.7700	3.7699	-0.7961	6.17	0.18	-0.750			
0.2486	15911.47	3.7670	3.7669	-0.7965	6.17	0.18	-0.750			
0.2510	16065.11	3.7640	3.7640	-0.8042	6.18	0.19	-0.750			
0.2535	16221.08	3.7610	3.7611	-0.8082	6.18	0.19	-0.750			
0.2559	16379.43	3.7580	3.7579	-0.8093	6.18	0.19	-0.750			
0.2583	16534.16	3.7550	3.7549	-0.8064	6.19	0.20	-0.750			
0.2608	16688.19	3.7520	3.7519	-0.8041	6.19	0.20	-0.750			
0.2631	16841.49	3.7490	3.7490	-0.8053	6.20	0.21	-0.750			
0.2656	16995.69	3.7460	3.7459	-0.8055	6.21	0.22	-0.750			
0.2679	17147.78	3.7430	3.7431	-0.8047	6.22	0.23	-0.750			
0.2704	17305.42	3.7400	3.7398	-0.8134	6.23	0.24	-0.750			
0.2728	17462.39	3.7370	3.7370	-0.8168	6.23	0.24	-0.750			
0.2753	17618.80	3.7340	3.7340	-0.8243	6.24	0.25	-0.750			
0.2778	17777.92	3.7310	3.7310	-0.8270	6.24	0.25	-0.750			
0.2803	17936.50	3.7280	3.7280	-0.8265	6.24	0.25	-0.750			
0.2828	18097.39	3.7250	3.7249	-0.8328	6.25	0.26	-0.750			
0.2853	18257.42	3.7220	3.7221	-0.8348	6.25	0.26	-0.750			
0.2878	18416.51	3.7190	3.7190	-0.8453	6.26	0.27	-0.750			
0.2903	18579.64	3.7160	3.7160	-0.8480	6.27	0.28	-0.750			
0.2928	18741.66	3.7130	3.7129	-0.8498	6.28	0.29	-0.750			
0.2954	18907.27	3.7100	3.7100	-0.8616	6.29	0.30	-0.750			
0.2980	19074.41	3.7070	3.7070	-0.8676	6.29	0.30	-0.750			
0.3006	19240.66	3.7040	3.7039	-0.8741	6.30	0.31	-0.750			
0.3033	19408.14	3.7010	3.7010	-0.8788	6.30	0.31	-0.750			
0.3059	19576.04	3.6980	3.6980	-0.8818	6.30	0.31	-0.750			
0.3086	19748.42	3.6950	3.6950	-0.8974	6.31	0.32	-0.750			
0.3113	19920.61	3.6920	3.6920	-0.9070	6.31	0.32	-0.750			
0.3140	20095.72	3.6890	3.6890	-0.9159	6.32	0.33	-0.750			
0.3168	20273.84	3.6860	3.6860	-0.9235	6.33	0.34	-0.750			
0.3196	20451.43	3.6830	3.6830	-0.9299	6.33	0.34	-0.750			
0.3224	20630.88	3.6800	3.6801	-0.9404	6.34	0.35	-0.750			
0.3252	20811.75	3.6770	3.6770	-0.9528	6.35	0.36	-0.750			
0.3280	20994.36	3.6740	3.6739	-0.9601	6.35	0.36	-0.750			
0.3310	21181.21	3.6710	3.6710	-0.9665	6.36	0.37	-0.750			
0.3339	21368.30	3.6680	3.6681	-0.9789	6.37	0.38	-0.750			
0.3368	21558.14	3.6650	3.6650	-0.9872	6.37	0.38	-0.750			
0.3398	21747.05	3.6620	3.6620	-0.9972	6.38	0.39	-0.750			
0.3428	21937.78	3.6590	3.6589	-1.0114	6.38	0.39	-0.750			
0.3458	22131.67	3.6560	3.6561	-1.0240	6.39	0.40	-0.750			
0.3490	22333.10	3.6530	3.6528	-1.0396	6.39	0.40	-0.750			
0.3521	22533.87	3.6500	3.6500	-1.0558	6.39	0.40	-0.750			
0.3553	22736.91	3.6470	3.6471	-1.0674	6.40	0.41	-0.750			
0.3585	22943.58	3.6440	3.6441	-1.0820	6.40	0.41	-0.750			
0.3618	23152.18	3.6410	3.6409	-1.0952	6.40	0.41	-0.750			
0.3651	23365.58	3.6380	3.6380	-1.1070	6.41	0.42	-0.750			
0.3684	23579.88	3.6350	3.6351	-1.1216	6.41	0.42	-0.750			
0.3718	23796.61	3.6320	3.6321	-1.1327	6.42	0.43	-0.750			
0.3753	24017.08	3.6290	3.6289	-1.1474	6.42	0.43	-0.750			
0.3787	24238.84	3.6260	3.6259	-1.1619	6.43	0.44	-0.750			
0.3822	24462.27	3.6230	3.6229	-1.1727	6.43	0.44	-0.750			
0.3858	24690.05	3.6200	3.6201	-1.1903	6.43	0.44	-0.750			
0.3894	24921.75	3.6170	3.6169	-1.1958	6.44	0.45	-0.750			
0.3930	25149.78	3.6140	3.6140	-1.2053	6.44	0.45	-0.750			
0.3966	25379.23	3.6110	3.6112	-1.2179	6.45	0.46	-0.750			
0.4003	25618.51	3.6080	3.6079	-1.2424	6.46	0.47	-0.750			
0.4040	25858.35	3.6050	3.6050	-1.2501	6.46	0.47	-0.750			
0.4078	26099.52	3.6020	3.6020	-1.2671	6.47	0.48	-0.750			
0.4116	26345.35	3.5990	3.5998	-1.2872	6.47	0.48	-0.750	0.468	1.099	
0.4156	26597.95	3.5960	3.5959	-1.3060	6.47	0.48	-0.750			
0.4195	26846.87	3.5930	3.5929	-1.3199	6.47	0.48	-0.750			
0.4235	27101.18	3.5900	3.5901	-1.3328	6.47	0.48	-0.750			
0.4275	27362.23	3.5870	3.5869	-1.3572	6.48	0.49	-0.750			
0.4316	27621.27	3.5840	3.5839	-1.3754	6.49	0.50	-0.750			
0.4357	27886.41	3.5810	3.5811	-1.3797	6.49	0.50	-0.750			
0.4399	28155.27	3.5780	3.5779	-1.4057	6.49	0.50	-0.750			
0.4442	28426.00	3.5750	3.5750	-1.4249	6.49	0.50	-0.750			
0.4485	28701.88	3.5720	3.5721	-1.4308	6.49	0.50	-0.750			
0.4528	28977.64	3.5690	3.5689	-1.4568	6.50	0.51	-0.750			
0.4572	29260.47	3.5660	3.5660	-1.4633	6.51	0.52	-0.750			
0.4616	29541.97	3.5630	3.5630	-1.4686	6.51	0.52	-0.750			
0.4660	29826.88	3.5600	3.5600	-1.4927	6.51	0.52	-0.750			
0.4705	30112.05	3.5570	3.5569	-1.5055	6.51	0.52	-0.750			
0.4750	30401.78	3.5540	3.5540	-1.5269	6.52	0.53	-0.750			
0.4797	30700.76	3.5510	3.5510	-1.5500	6.52	0.53	-0.750			
0.4843	30997.86	3.5480	3.5482	-1.5707	6.53	0.54	-0.750			
0.4892	31306.56	3.5450	3.5451	-1.5871	6.54	0.55	-0.750			
0.4939	31612.79	3.5420	3.5419	-1.6071	6.55	0.56	-0.750			
0.4988	31922.25	3.5390	3.5389	-1.6102	6.55	0.56	-0.750			
0.5036	32231.65	3.5360	3.5361	-1.6378	6.56	0.57	-0.750			
0.5086	32547.41	3.5330	3.5331	-1.6357	6.56	0.57	-0.750			
0.5135	32865.38	3.5300	3.5300	-1.6436	6.57	0.58	-0.750			
0.5185	33181.58	3.5270	3.5272	-1.6644	6.57	0.58	-0.750			
0.5235	33500.97	3.5240	3.5240	-1.6691	6.58	0.59	-0.750			
0.5285	33824.86	3.5210	3.5210	-1.6734	6.59	0.60	-0.750			
0.5336	34148.15	3.5180	3.5181	-1.6753	6.59	0.60	-0.750			
0.5386	34469.22	3.5150	3.5150	-1.6949	6.60	0.61	-0.750			
0.5437	34794.32	3.5120	3.5118	-1.6859	6.61	0.62	-0.750			
0.5487	35116.59	3.5090	3.5090	-1.6770	6.62	0.63	-0.750			
0.5537	35438.62	3.5060	3.5060	-1.6897	6.63	0.64	-0.750			
0.5588	35763.58	3.5030	3.5029	-1.6897	6.64	0.65	-0.750			
0.5639	36091.62	3.5000	3.4999	-1.6799	6.64	0.65	-0.750			
0.5689	36412.58	3.4970	3.4969	-1.6862	6.65	0.66	-0.750			
0.5740	36737.44	3.4940	3.4939	-1.6585	6.66	0.67	-0.750			
0.5790	37055.37	3.4910	3.4910	-1.6599	6.67	0.68	-0.750			
0.5839	37372.20	3.4880	3.4882	-1.6505	6.69	0.70	-0.750			
0.5889	37686.93	3.4850	3.4849	-1.6287	6.70	0.71	-0.750			
0.5937	37998.98	3.4820	3.4819	-1.6412	6.70	0.71	-0.750			
0.5987	38316.50	3.4790	3.4790	-1.6206	6.72	0.73	-0.750			
0.6036	38627.80	3.4760	3.4760	-1.6100	6.73	0.74	-0.750			
0.6084	38939.28	3.4730	3.4731	-1.5937	6.75	0.76	-0.750			
0.6131	39241.25	3.4700	3.4699	-1.5619	6.76	0.77	-0.750			
0.6178	39541.10	3.4670	3.4672	-1.5430	6.77	0.78	-0.750			
0.6224	39831.08	3.4640	3.4641	-1.5277	6.78	0.79	-0.750			
0.6269	40119.92	3.4610	3.4610	-1.5082	6.79	0.80	-0.750			
0.6314	40409.67	3.4580	3.4580	-1.4983	6.80	0.81	-0.750			
0.6359	40694.89	3.4550	3.4549	-1.4763	6.81	0.82	-0.750			
0.6404	40983.14	3.4520	3.4522	-1.4590	6.83	0.84	-0.750			
0.6447	41259.93	3.4490	3.4489	-1.4402	6.84	0.85	-0.750			
0.6490	41534.21	3.4460	3.4460	-1.4115	6.86	0.87	-0.750			
0.6533	41808.64	3.4430	3.4429	-1.3663	6.87	0.88	-0.750			
0.6573	42068.47	3.4400	3.4399	-1.3185	6.88	0.89	-0.750			
0.6611	42313.12	3.4370	3.4372	-1.2762	6.89	0.90	-0.750			
0.6649	42552.60	3.4340	3.4341	-1.2510	6.90	0.91	-0.750			
0.6685	42783.78	3.4310	3.4308	-1.2240	6.91	0.92	-0.750			
0.6720	43011.05	3.4280	3.4282	-1.2028	6.92	0.93	-0.750			
0.6757	43243.88	3.4250	3.4250	-1.2063	6.93	0.94	-0.750			
0.6795	43486.34	3.4220	3.4219	-1.2057	6.94	0.95	-0.750			
0.6831	43715.33	3.4190	3.4190	-1.1752	6.96	0.97	-0.750			
0.6866	43939.61	3.4160	3.4159	-1.1512	6.97	0.98	-0.750			
0.6900	44158.54	3.4130	3.4130	-1.1202	6.97	0.98	-0.750			
0.6932	44367.64	3.4100	3.4099	-1.0873	6.98	0.99	-0.750			
0.6965	44572.96	3.4070	3.4071	-1.0576	6.99	1.00	-0.750			
0.6996	44774.16	3.4040	3.4039	-1.0337	7.00	1.01	-0.750			
0.7027	44971.37	3.4010	3.4010	-1.0081	7.02	1.03	-0.750			
0.7057	45162.64	3.3980	3.3980	-0.9789	7.03	1.04	-0.750			
0.7086	45347.20	3.3950	3.3950	-0.9504	7.05	1.06	-0.750			
0.7114	45527.08	3.3920	3.3920	-0.9299	7.06	1.07	-0.750			
0.7141	45702.85	3.3890	3.3890	-0.9049	7.07	1.08	-0.750			
0.7168	45875.17	3.3860	3.3859	-0.8738	7.08	1.09	-0.750			
0.7194	46039.32	3.3830	3.3830	-0.8456	7.09	1.10	-0.750			
0.7219	46200.54	3.3800	3.3804	-0.8245	7.10	1.11	-0.750			
0.7243	46356.07	3.3770	3.3768	-0.7967	7.11	1.12	-0.750			
0.7266	46505.43	3.3740	3.3740	-0.7747	7.12	1.13	-0.750			
0.7290	46653.47	3.3710	3.3710	-0.7821	7.13	1.14	-0.750			
