Ah_balance (normalized)	Ah_balance (mAh)	Voltage - fit (V)	Voltage -  interpolate (V)	dQ/dV (1/V)	Temperature (°C)	Temperature - diff (°C)	Current (C)	R_DC 0ms (mOhm)	R_DC 50ms (mOhm)	R_DC 50 ms PEC (mOhm)
0.0941	6021.28	4.0090	4.0084	-0.0795	5.96	0.03	-0.750			
0.0944	6039.12	4.0060	4.0057	-0.1062	5.96	0.03	-0.750			
0.0947	6062.33	4.0030	4.0029	-0.1326	5.96	0.03	-0.750			
0.0952	6090.44	4.0000	4.0001	-0.1580	5.96	0.03	-0.750			
0.0957	6123.44	3.9970	3.9971	-0.1824	5.95	0.02	-0.750			
0.0963	6160.74	3.9940	3.9940	-0.2077	5.95	0.02	-0.750			
0.0969	6203.94	3.9910	3.9909	-0.2306	5.95	0.02	-0.750			
0.0977	6250.72	3.9880	3.9880	-0.2512	5.95	0.02	-0.750			
0.0985	6300.87	3.9850	3.9850	-0.2749	5.94	0.01	-0.750			
0.0993	6355.25	3.9820	3.9822	-0.2994	5.94	0.01	-0.750			
0.1002	6414.85	3.9790	3.9789	-0.3197	5.94	0.01	-0.750			
0.1012	6478.44	3.9760	3.9760	-0.3415	5.94	0.01	-0.750			
0.1023	6545.76	3.9730	3.9731	-0.3642	5.93	0.00	-0.750			
0.1034	6617.46	3.9700	3.9701	-0.3881	5.93	-0.00	-0.750			
0.1046	6695.20	3.9670	3.9671	-0.4114	5.93	-0.00	-0.750			
0.1059	6775.87	3.9640	3.9639	-0.4333	5.92	-0.01	-0.750			
0.1072	6860.99	3.9610	3.9611	-0.4561	5.92	-0.01	-0.750			
0.1086	6952.45	3.9580	3.9580	-0.4786	5.91	-0.02	-0.750			
0.1101	7046.25	3.9550	3.9549	-0.4995	5.91	-0.02	-0.750			
0.1116	7144.07	3.9520	3.9520	-0.5182	5.90	-0.03	-0.750			
0.1132	7245.07	3.9490	3.9490	-0.5353	5.90	-0.03	-0.750			
0.1148	7350.28	3.9460	3.9460	-0.5531	5.89	-0.04	-0.750			
0.1165	7458.49	3.9430	3.9430	-0.5705	5.89	-0.04	-0.750			
0.1183	7569.15	3.9400	3.9400	-0.5869	5.89	-0.04	-0.750			
0.1201	7683.92	3.9370	3.9370	-0.6012	5.88	-0.05	-0.750			
0.1219	7801.90	3.9340	3.9339	-0.6135	5.88	-0.05	-0.750			
0.1238	7921.42	3.9310	3.9310	-0.6251	5.88	-0.05	-0.750			
0.1257	8043.50	3.9280	3.9280	-0.6353	5.87	-0.06	-0.750			
0.1276	8165.86	3.9250	3.9249	-0.6443	5.87	-0.06	-0.750			
0.1295	8290.34	3.9220	3.9219	-0.6523	5.87	-0.06	-0.750			
0.1315	8416.25	3.9190	3.9190	-0.6604	5.86	-0.07	-0.750			
0.1335	8544.10	3.9160	3.9160	-0.6718	5.86	-0.07	-0.750			
0.1355	8673.24	3.9130	3.9131	-0.6829	5.86	-0.07	-0.750			
0.1376	8807.33	3.9100	3.9099	-0.6893	5.85	-0.08	-0.750			
0.1397	8940.98	3.9070	3.9071	-0.6928	5.85	-0.08	-0.750			
0.1418	9075.25	3.9040	3.9039	-0.6946	5.85	-0.08	-0.750			
0.1439	9208.00	3.9010	3.9011	-0.7022	5.86	-0.07	-0.750			
0.1460	9344.31	3.8980	3.8979	-0.7044	5.86	-0.07	-0.750			
0.1481	9478.53	3.8950	3.8949	-0.7074	5.86	-0.07	-0.750			
0.1502	9615.70	3.8920	3.8920	-0.7150	5.87	-0.06	-0.750			
0.1524	9754.51	3.8890	3.8892	-0.7203	5.87	-0.06	-0.750			
0.1546	9893.19	3.8860	3.8858	-0.7220	5.87	-0.06	-0.750			
0.1568	10032.07	3.8830	3.8830	-0.7246	5.87	-0.06	-0.750			
0.1589	10170.28	3.8800	3.8801	-0.7310	5.87	-0.06	-0.750			
0.1611	10312.35	3.8770	3.8770	-0.7310	5.87	-0.06	-0.750			
0.1633	10454.01	3.8740	3.8739	-0.7337	5.87	-0.06	-0.750			
0.1655	10594.72	3.8710	3.8714	-0.7359	5.87	-0.06	-0.750			
0.1678	10736.03	3.8680	3.8680	-0.7398	5.87	-0.06	-0.750			
0.1700	10877.45	3.8650	3.8649	-0.7412	5.88	-0.05	-0.750			
0.1722	11019.40	3.8620	3.8620	-0.7397	5.88	-0.05	-0.750			
0.1744	11163.01	3.8590	3.8591	-0.7477	5.88	-0.05	-0.750			
0.1767	11306.78	3.8560	3.8560	-0.7495	5.89	-0.04	-0.750			
0.1789	11450.51	3.8530	3.8530	-0.7486	5.89	-0.04	-0.750			
0.1812	11594.52	3.8500	3.8500	-0.7517	5.89	-0.04	-0.750			
0.1834	11738.85	3.8470	3.8469	-0.7511	5.90	-0.03	-0.750			
0.1857	11883.11	3.8440	3.8441	-0.7512	5.90	-0.03	-0.750			
0.1879	12028.16	3.8410	3.8410	-0.7588	5.91	-0.02	-0.750			
0.1902	12172.74	3.8380	3.8380	-0.7625	5.91	-0.02	-0.750			
0.1925	12320.92	3.8350	3.8349	-0.7641	5.91	-0.02	-0.750			
0.1948	12467.08	3.8320	3.8320	-0.7680	5.92	-0.01	-0.750			
0.1971	12615.80	3.8290	3.8290	-0.7640	5.92	-0.01	-0.750			
0.1994	12763.84	3.8260	3.8260	-0.7629	5.92	-0.01	-0.750			
0.2017	12909.28	3.8230	3.8230	-0.7629	5.93	-0.00	-0.750			
0.2040	13054.59	3.8200	3.8200	-0.7611	5.93	0.00	-0.750			
0.2062	13199.03	3.8170	3.8170	-0.7613	5.94	0.01	-0.750			
0.2085	13346.41	3.8140	3.8140	-0.7653	5.95	0.02	-0.750			
0.2108	13493.93	3.8110	3.8110	-0.7633	5.95	0.02	-0.750			
0.2132	13642.71	3.8080	3.8079	-0.7640	5.96	0.03	-0.750			
0.2154	13787.92	3.8050	3.8052	-0.7621	5.97	0.04	-0.750			
0.2177	13933.15	3.8020	3.8020	-0.7600	5.97	0.04	-0.750			
0.2200	14078.73	3.7990	3.7990	-0.7611	5.98	0.05	-0.750			
0.2223	14224.91	3.7960	3.7959	-0.7609	5.98	0.05	-0.750			
0.2246	14371.44	3.7930	3.7931	-0.7602	5.98	0.05	-0.750			
0.2268	14517.16	3.7900	3.7900	-0.7622	5.99	0.06	-0.750			
0.2291	14664.30	3.7870	3.7870	-0.7613	5.99	0.06	-0.750			
0.2314	14809.24	3.7840	3.7840	-0.7601	6.00	0.07	-0.750			
0.2337	14954.58	3.7810	3.7809	-0.7588	6.01	0.08	-0.750			
0.2359	15100.35	3.7780	3.7781	-0.7580	6.02	0.09	-0.750			
0.2382	15246.90	3.7750	3.7750	-0.7598	6.02	0.09	-0.750			
0.2405	15391.74	3.7720	3.7722	-0.7653	6.03	0.10	-0.750			
0.2428	15537.83	3.7690	3.7690	-0.7683	6.03	0.10	-0.750			
0.2451	15685.95	3.7660	3.7659	-0.7752	6.04	0.11	-0.750			
0.2474	15835.64	3.7630	3.7630	-0.7776	6.04	0.11	-0.750			
0.2498	15988.64	3.7600	3.7600	-0.7785	6.04	0.11	-0.750			
0.2522	16138.48	3.7570	3.7569	-0.7738	6.05	0.12	-0.750			
0.2545	16287.71	3.7540	3.7540	-0.7685	6.05	0.12	-0.750			
0.2568	16432.16	3.7510	3.7511	-0.7634	6.06	0.13	-0.750			
0.2590	16575.49	3.7480	3.7479	-0.7635	6.07	0.14	-0.750			
0.2613	16720.50	3.7450	3.7450	-0.7708	6.08	0.15	-0.750			
0.2636	16870.22	3.7420	3.7419	-0.7771	6.08	0.15	-0.750			
0.2659	17020.18	3.7390	3.7391	-0.7878	6.09	0.16	-0.750			
0.2683	17173.73	3.7360	3.7360	-0.8011	6.09	0.16	-0.750			
0.2708	17328.95	3.7330	3.7331	-0.8118	6.10	0.17	-0.750			
0.2733	17488.27	3.7300	3.7299	-0.8100	6.10	0.17	-0.750			
0.2757	17643.79	3.7270	3.7270	-0.8133	6.11	0.18	-0.750			
0.2781	17799.51	3.7240	3.7244	-0.8210	6.11	0.18	-0.750			
0.2806	17957.55	3.7210	3.7209	-0.8273	6.11	0.18	-0.750			
0.2830	18114.90	3.7180	3.7178	-0.8328	6.12	0.19	-0.750			
0.2855	18274.94	3.7150	3.7149	-0.8340	6.12	0.19	-0.750			
0.2881	18439.16	3.7120	3.7121	-0.8481	6.13	0.20	-0.750			
0.2907	18602.21	3.7090	3.7092	-0.8534	6.13	0.20	-0.750			
0.2932	18764.78	3.7060	3.7060	-0.8556	6.14	0.21	-0.750			
0.2958	18929.00	3.7030	3.7029	-0.8638	6.15	0.22	-0.750			
0.2983	19094.23	3.7000	3.7000	-0.8698	6.15	0.22	-0.750			
0.3010	19264.11	3.6970	3.6970	-0.8826	6.16	0.23	-0.750			
0.3037	19434.45	3.6940	3.6940	-0.8882	6.17	0.24	-0.750			
0.3063	19606.03	3.6910	3.6910	-0.8966	6.18	0.25	-0.750			
0.3090	19778.78	3.6880	3.6880	-0.9007	6.18	0.25	-0.750			
0.3117	19951.45	3.6850	3.6850	-0.9063	6.18	0.25	-0.750			
0.3145	20125.36	3.6820	3.6821	-0.9198	6.19	0.26	-0.750			
0.3172	20303.31	3.6790	3.6789	-0.9291	6.19	0.26	-0.750			
0.3201	20484.77	3.6760	3.6759	-0.9433	6.20	0.27	-0.750			
0.3229	20668.56	3.6730	3.6729	-0.9463	6.20	0.27	-0.750			
0.3258	20850.91	3.6700	3.6700	-0.9521	6.21	0.28	-0.750			
0.3287	21034.84	3.6670	3.6672	-0.9668	6.21	0.28	-0.750			
0.3316	21219.59	3.6640	3.6639	-0.9772	6.22	0.29	-0.750			
0.3345	21407.54	3.6610	3.6609	-0.9871	6.22	0.29	-0.750			
0.3374	21595.63	3.6580	3.6579	-0.9957	6.23	0.30	-0.750			
0.3405	21792.62	3.6550	3.6552	-1.0198	6.23	0.30	-0.750			
0.3436	21992.95	3.6520	3.6520	-1.0314	6.23	0.30	-0.750			
0.3467	22189.87	3.6490	3.6489	-1.0322	6.24	0.31	-0.750			
0.3498	22387.39	3.6460	3.6460	-1.0397	6.24	0.31	-0.750			
0.3529	22583.32	3.6430	3.6431	-1.0622	6.25	0.32	-0.750			
0.3561	22791.00	3.6400	3.6399	-1.0697	6.25	0.32	-0.750			
0.3594	22999.64	3.6370	3.6368	-1.0728	6.26	0.33	-0.750			
0.3626	23206.63	3.6340	3.6340	-1.0808	6.27	0.34	-0.750			
0.3658	23412.47	3.6310	3.6314	-1.1095	6.27	0.34	-0.750			
0.3692	23628.22	3.6280	3.6278	-1.1125	6.27	0.34	-0.750			
0.3725	23841.14	3.6250	3.6249	-1.1173	6.28	0.35	-0.750			
0.3759	24056.94	3.6220	3.6219	-1.1207	6.28	0.35	-0.750			
0.3794	24278.45	3.6190	3.6189	-1.1555	6.28	0.35	-0.750			
0.3828	24500.12	3.6160	3.6159	-1.1622	6.28	0.35	-0.750			
0.3863	24722.77	3.6130	3.6127	-1.1595	6.29	0.36	-0.750			
0.3897	24941.21	3.6100	3.6103	-1.1658	6.29	0.36	-0.750			
0.3934	25174.72	3.6070	3.6069	-1.1991	6.29	0.36	-0.750			
0.3970	25405.13	3.6040	3.6038	-1.2110	6.30	0.37	-0.750			
0.4006	25639.54	3.6010	3.6009	-1.2151	6.30	0.37	-0.750			
0.4042	25868.29	3.5980	3.5982	-1.2287	6.30	0.37	-0.750			
0.4080	26111.86	3.5950	3.5949	-1.2476	6.30	0.37	-0.750			
0.4118	26353.76	3.5920	3.5920	-1.2591	6.31	0.38	-0.750	0.487	1.092	
0.4155	26591.43	3.5890	3.5893	-1.2762	6.31	0.38	-0.750			
0.4194	26843.97	3.5860	3.5859	-1.2975	6.32	0.39	-0.750			
0.4234	27095.32	3.5830	3.5829	-1.3083	6.32	0.39	-0.750			
0.4273	27348.08	3.5800	3.5803	-1.3224	6.33	0.40	-0.750			
0.4313	27606.23	3.5770	3.5769	-1.3325	6.34	0.41	-0.750			
0.4353	27862.37	3.5740	3.5739	-1.3411	6.34	0.41	-0.750			
0.4393	28115.84	3.5710	3.5712	-1.3509	6.35	0.42	-0.750			
0.4433	28374.14	3.5680	3.5679	-1.3629	6.35	0.42	-0.750			
0.4475	28639.05	3.5650	3.5650	-1.3975	6.35	0.42	-0.750			
0.4517	28908.91	3.5620	3.5620	-1.4197	6.35	0.42	-0.750			
0.4560	29183.30	3.5590	3.5590	-1.4352	6.35	0.42	-0.750			
0.4602	29455.91	3.5560	3.5560	-1.5132	6.36	0.43	-0.750			
0.4648	29750.34	3.5530	3.5532	-1.5660	6.37	0.44	-0.750			
0.4697	30059.52	3.5500	3.5496	-1.6033	6.38	0.45	-0.750			
0.4747	30383.81	3.5470	3.5466	-1.6187	6.38	0.45	-0.750			
0.4797	30699.38	3.5440	3.5442	-1.6091	6.39	0.46	-0.750			
0.4845	31008.39	3.5410	3.5412	-1.6037	6.40	0.47	-0.750			
0.4894	31319.50	3.5380	3.5378	-1.5884	6.41	0.48	-0.750			
0.4938	31606.07	3.5350	3.5349	-1.5483	6.42	0.49	-0.750			
0.4985	31906.94	3.5320	3.5318	-1.5736	6.42	0.49	-0.750			
0.5033	32210.67	3.5290	3.5292	-1.5826	6.43	0.50	-0.750			
0.5081	32515.91	3.5260	3.5261	-1.5741	6.44	0.51	-0.750			
0.5129	32822.52	3.5230	3.5229	-1.5898	6.45	0.52	-0.750			
0.5176	33127.34	3.5200	3.5197	-1.5774	6.46	0.53	-0.750			
0.5224	33431.20	3.5170	3.5170	-1.5897	6.47	0.54	-0.750			
0.5271	33734.47	3.5140	3.5142	-1.5921	6.47	0.54	-0.750			
0.5319	34042.55	3.5110	3.5108	-1.5992	6.48	0.55	-0.750			
0.5367	34350.02	3.5080	3.5082	-1.5913	6.49	0.56	-0.750			
0.5415	34658.24	3.5050	3.5051	-1.6039	6.50	0.57	-0.750			
0.5463	34963.91	3.5020	3.5023	-1.5980	6.51	0.58	-0.750			
0.5512	35274.30	3.4990	3.4989	-1.5998	6.52	0.59	-0.750			
0.5560	35581.06	3.4960	3.4958	-1.5831	6.52	0.59	-0.750			
0.5607	35882.77	3.4930	3.4929	-1.5854	6.53	0.60	-0.750			
0.5654	36184.47	3.4900	3.4902	-1.5926	6.53	0.60	-0.750			
0.5701	36488.64	3.4870	3.4869	-1.5797	6.54	0.61	-0.750			
0.5749	36795.65	3.4840	3.4838	-1.5737	6.56	0.63	-0.750			
0.5797	37099.54	3.4810	3.4810	-1.5728	6.58	0.65	-0.750			
0.5844	37401.19	3.4780	3.4782	-1.5724	6.59	0.66	-0.750			
0.5891	37704.01	3.4750	3.4750	-1.5559	6.61	0.68	-0.750			
0.5937	37998.66	3.4720	3.4718	-1.5195	6.62	0.69	-0.750			
0.5983	38290.10	3.4690	3.4688	-1.5111	6.63	0.70	-0.750			
0.6028	38578.91	3.4660	3.4662	-1.5012	6.64	0.71	-0.750			
0.6072	38862.66	3.4630	3.4628	-1.4835	6.66	0.73	-0.750			
0.6117	39146.95	3.4600	3.4602	-1.4684	6.67	0.74	-0.750			
0.6161	39429.65	3.4570	3.4570	-1.4620	6.69	0.76	-0.750			
0.6205	39710.84	3.4540	3.4540	-1.4419	6.71	0.78	-0.750			
0.6248	39986.88	3.4510	3.4510	-1.4474	6.72	0.79	-0.750			
0.6292	40266.06	3.4480	3.4480	-1.4274	6.73	0.80	-0.750			
0.6334	40537.52	3.4450	3.4450	-1.4027	6.75	0.82	-0.750			
0.6376	40806.14	3.4420	3.4421	-1.3781	6.76	0.83	-0.750			
0.6417	41068.35	3.4390	3.4391	-1.3479	6.78	0.85	-0.750			
0.6458	41328.44	3.4360	3.4359	-1.3320	6.80	0.87	-0.750			
0.6497	41578.39	3.4330	3.4330	-1.2996	6.81	0.88	-0.750			
0.6535	41822.03	3.4300	3.4301	-1.2755	6.83	0.90	-0.750			
0.6573	42066.74	3.4270	3.4270	-1.2599	6.85	0.92	-0.750			
0.6610	42306.78	3.4240	3.4240	-1.2368	6.87	0.94	-0.750			
0.6647	42543.53	3.4210	3.4210	-1.2117	6.89	0.96	-0.750			
0.6684	42775.84	3.4180	3.4179	-1.1923	6.90	0.97	-0.750			
0.6719	43001.68	3.4150	3.4151	-1.1600	6.92	0.99	-0.750			
0.6753	43221.53	3.4120	3.4119	-1.1328	6.94	1.01	-0.750			
0.6787	43435.30	3.4090	3.4091	-1.1048	6.95	1.02	-0.750			
0.6819	43644.75	3.4060	3.4060	-1.0760	6.96	1.03	-0.750			
0.6851	43848.73	3.4030	3.4030	-1.0484	6.97	1.04	-0.750			
0.6883	44048.89	3.4000	3.3999	-1.0202	6.98	1.05	-0.750			
0.6913	44242.75	3.3970	3.3971	-0.9948	7.00	1.07	-0.750			
0.6942	44430.26	3.3940	3.3940	-0.9658	7.01	1.08	-0.750			
0.6971	44611.48	3.3910	3.3910	-0.9375	7.03	1.10	-0.750			
0.6998	44789.12	3.3880	3.3879	-0.9137	7.05	1.12	-0.750			
0.7025	44961.60	3.3850	3.3850	-0.8898	7.07	1.14	-0.750			
0.7052	45130.38	3.3820	3.3820	-0.8649	7.08	1.15	-0.750			
0.7077	45294.21	3.3790	3.3790	-0.8427	7.10	1.17	-0.750			
0.7102	45455.31	3.3760	3.3760	-0.8190	7.12	1.19	-0.750			
0.7126	45609.35	3.3730	3.3730	-0.7933	7.13	1.20	-0.750			
0.7150	45758.47	3.3700	3.3700	-0.7695	7.15	1.22	-0.750			
0.7172	45903.68	3.3670	3.3669	-0.7477	7.16	1.23	-0.750			
0.7194	46044.52	3.3640	3.3640	-0.7254	7.17	1.24	-0.750			
0.7216	46181.64	3.3610	3.3610	-0.7075	7.18	1.25	-0.750			
0.7237	46314.95	3.3580	3.3580	-0.6859	7.19	1.26	-0.750			
0.7257	46447.04	3.3550	3.3550	-0.6678	7.20	1.27	-0.750			
0.7277	46573.29	3.3520	3.3521	-0.6448	7.21	1.28	-0.750			
0.7296	46695.00	3.3490	3.3490	-0.6199	7.22	1.29	-0.750			
0.7314	46810.76	3.3460	3.3460	-0.5800	7.23	1.30	-0.750			
