Ah_balance (normalized)	Ah_balance (mAh)	Voltage - fit (V)	Voltage -  interpolate (V)	dQ/dV (1/V)	Temperature (°C)	Temperature - diff (°C)	Current (C)	R_DC 0ms (mOhm)	R_DC 50ms (mOhm)	R_DC 50 ms PEC (mOhm)
0.0963	6162.01	4.0020	4.0017	-0.0762	5.99	0.00	-0.750			
0.0966	6180.16	3.9990	3.9987	-0.1075	5.99	0.00	-0.750			
0.0969	6203.53	3.9960	3.9959	-0.1360	5.99	0.00	-0.750			
0.0974	6232.96	3.9930	3.9930	-0.1624	5.99	0.00	-0.750			
0.0979	6266.84	3.9900	3.9900	-0.1880	5.99	0.00	-0.750			
0.0985	6306.48	3.9870	3.9870	-0.2148	5.99	0.00	-0.750			
0.0992	6350.19	3.9840	3.9841	-0.2376	5.99	-0.00	-0.750			
0.1000	6398.11	3.9810	3.9809	-0.2605	5.99	-0.00	-0.750			
0.1008	6450.49	3.9780	3.9780	-0.2834	5.99	-0.00	-0.750			
0.1017	6506.71	3.9750	3.9751	-0.3073	5.99	-0.00	-0.750			
0.1026	6567.97	3.9720	3.9720	-0.3317	5.98	-0.01	-0.750			
0.1037	6633.86	3.9690	3.9690	-0.3561	5.98	-0.01	-0.750			
0.1048	6704.80	3.9660	3.9659	-0.3788	5.98	-0.01	-0.750			
0.1059	6779.89	3.9630	3.9631	-0.4031	5.98	-0.01	-0.750			
0.1072	6859.91	3.9600	3.9600	-0.4285	5.98	-0.01	-0.750			
0.1085	6944.71	3.9570	3.9570	-0.4507	5.97	-0.02	-0.750			
0.1099	7033.44	3.9540	3.9539	-0.4729	5.97	-0.02	-0.750			
0.1114	7126.57	3.9510	3.9512	-0.4958	5.97	-0.02	-0.750			
0.1129	7224.12	3.9480	3.9479	-0.5171	5.97	-0.02	-0.750			
0.1145	7326.07	3.9450	3.9450	-0.5361	5.97	-0.02	-0.750			
0.1161	7430.39	3.9420	3.9420	-0.5529	5.97	-0.02	-0.750			
0.1178	7537.47	3.9390	3.9390	-0.5745	5.97	-0.02	-0.750			
0.1196	7652.11	3.9360	3.9360	-0.5890	5.98	-0.01	-0.750			
0.1214	7766.93	3.9330	3.9328	-0.6005	5.98	-0.01	-0.750			
0.1232	7883.90	3.9300	3.9301	-0.6149	5.98	-0.01	-0.750			
0.1251	8003.43	3.9270	3.9271	-0.6271	5.98	-0.01	-0.750			
0.1270	8125.26	3.9240	3.9239	-0.6386	5.98	-0.01	-0.750			
0.1289	8248.34	3.9210	3.9211	-0.6479	5.98	-0.01	-0.750			
0.1308	8372.27	3.9180	3.9180	-0.6585	5.99	-0.00	-0.750			
0.1328	8502.11	3.9150	3.9149	-0.6703	5.99	-0.00	-0.750			
0.1349	8632.38	3.9120	3.9120	-0.6785	5.99	-0.00	-0.750			
0.1369	8763.05	3.9090	3.9091	-0.6839	5.99	0.00	-0.750			
0.1390	8896.02	3.9060	3.9060	-0.6904	5.99	0.00	-0.750			
0.1411	9028.56	3.9030	3.9030	-0.6981	6.00	0.01	-0.750			
0.1432	9162.49	3.9000	3.9000	-0.7020	6.00	0.01	-0.750			
0.1453	9298.92	3.8970	3.8969	-0.7053	6.00	0.01	-0.750			
0.1474	9434.67	3.8940	3.8940	-0.7072	6.01	0.02	-0.750			
0.1496	9571.87	3.8910	3.8911	-0.7067	6.01	0.02	-0.750			
0.1517	9706.66	3.8880	3.8879	-0.7104	6.01	0.02	-0.750			
0.1538	9841.86	3.8850	3.8850	-0.7172	6.02	0.03	-0.750			
0.1559	9979.57	3.8820	3.8821	-0.7232	6.02	0.03	-0.750			
0.1581	10119.74	3.8790	3.8789	-0.7314	6.02	0.03	-0.750			
0.1603	10261.98	3.8760	3.8760	-0.7342	6.03	0.04	-0.750			
0.1626	10403.63	3.8730	3.8731	-0.7390	6.03	0.04	-0.750			
0.1648	10546.39	3.8700	3.8700	-0.7384	6.04	0.05	-0.750			
0.1670	10687.45	3.8670	3.8669	-0.7384	6.04	0.05	-0.750			
0.1692	10829.41	3.8640	3.8640	-0.7375	6.04	0.05	-0.750			
0.1714	10972.13	3.8610	3.8609	-0.7382	6.05	0.06	-0.750			
0.1737	11114.60	3.8580	3.8581	-0.7392	6.05	0.06	-0.750			
0.1759	11256.22	3.8550	3.8549	-0.7409	6.06	0.07	-0.750			
0.1781	11396.99	3.8520	3.8520	-0.7402	6.06	0.07	-0.750			
0.1803	11539.58	3.8490	3.8489	-0.7488	6.07	0.08	-0.750			
0.1825	11682.78	3.8460	3.8460	-0.7467	6.08	0.09	-0.750			
0.1848	11828.92	3.8430	3.8429	-0.7526	6.08	0.09	-0.750			
0.1871	11973.60	3.8400	3.8402	-0.7522	6.09	0.10	-0.750			
0.1894	12119.11	3.8370	3.8369	-0.7504	6.10	0.11	-0.750			
0.1916	12262.02	3.8340	3.8340	-0.7530	6.11	0.12	-0.750			
0.1938	12405.59	3.8310	3.8310	-0.7520	6.11	0.12	-0.750			
0.1961	12552.19	3.8280	3.8279	-0.7522	6.12	0.13	-0.750			
0.1984	12697.21	3.8250	3.8250	-0.7493	6.13	0.14	-0.750			
0.2006	12840.29	3.8220	3.8220	-0.7484	6.13	0.14	-0.750			
0.2029	12983.25	3.8190	3.8190	-0.7485	6.14	0.15	-0.750			
0.2051	13125.46	3.8160	3.8159	-0.7501	6.15	0.16	-0.750			
0.2073	13268.24	3.8130	3.8130	-0.7507	6.16	0.17	-0.750			
0.2096	13413.94	3.8100	3.8100	-0.7584	6.16	0.17	-0.750			
0.2119	13561.22	3.8070	3.8070	-0.7598	6.17	0.18	-0.750			
0.2142	13708.34	3.8040	3.8040	-0.7628	6.18	0.19	-0.750			
0.2165	13854.77	3.8010	3.8010	-0.7617	6.18	0.19	-0.750			
0.2188	14001.48	3.7980	3.7979	-0.7579	6.19	0.20	-0.750			
0.2210	14146.72	3.7950	3.7950	-0.7545	6.19	0.20	-0.750			
0.2233	14291.04	3.7920	3.7920	-0.7532	6.20	0.21	-0.750			
0.2255	14434.03	3.7890	3.7890	-0.7566	6.20	0.21	-0.750			
0.2278	14579.36	3.7860	3.7859	-0.7622	6.21	0.22	-0.750			
0.2301	14723.95	3.7830	3.7830	-0.7643	6.21	0.22	-0.750			
0.2324	14872.56	3.7800	3.7800	-0.7661	6.22	0.23	-0.750			
0.2347	15023.24	3.7770	3.7770	-0.7717	6.23	0.24	-0.750			
0.2370	15170.41	3.7740	3.7741	-0.7740	6.23	0.24	-0.750			
0.2394	15319.17	3.7710	3.7709	-0.7693	6.24	0.25	-0.750			
0.2416	15465.53	3.7680	3.7680	-0.7696	6.25	0.26	-0.750			
0.2440	15613.52	3.7650	3.7650	-0.7725	6.25	0.26	-0.750			
0.2463	15762.09	3.7620	3.7621	-0.7759	6.26	0.27	-0.750			
0.2486	15912.27	3.7590	3.7589	-0.7786	6.27	0.28	-0.750			
0.2509	16060.55	3.7560	3.7560	-0.7827	6.28	0.29	-0.750			
0.2533	16209.35	3.7530	3.7531	-0.7940	6.28	0.29	-0.750			
0.2557	16364.76	3.7500	3.7499	-0.7973	6.29	0.30	-0.750			
0.2581	16518.50	3.7470	3.7469	-0.7935	6.30	0.31	-0.750			
0.2605	16672.87	3.7440	3.7440	-0.7908	6.31	0.32	-0.750			
0.2629	16823.67	3.7410	3.7409	-0.7904	6.31	0.32	-0.750			
0.2652	16972.48	3.7380	3.7380	-0.7997	6.32	0.33	-0.750			
0.2676	17125.79	3.7350	3.7349	-0.8029	6.32	0.33	-0.750			
0.2700	17279.02	3.7320	3.7319	-0.8081	6.33	0.34	-0.750			
0.2725	17438.77	3.7290	3.7290	-0.8200	6.34	0.35	-0.750			
0.2750	17599.34	3.7260	3.7261	-0.8268	6.34	0.35	-0.750			
0.2775	17757.35	3.7230	3.7229	-0.8330	6.35	0.36	-0.750			
0.2799	17915.33	3.7200	3.7200	-0.8328	6.35	0.36	-0.750			
0.2824	18074.01	3.7170	3.7170	-0.8379	6.36	0.37	-0.750			
0.2850	18238.19	3.7140	3.7139	-0.8472	6.37	0.38	-0.750			
0.2875	18402.22	3.7110	3.7110	-0.8541	6.37	0.38	-0.750			
0.2901	18566.60	3.7080	3.7080	-0.8613	6.37	0.38	-0.750			
0.2927	18732.58	3.7050	3.7050	-0.8675	6.37	0.38	-0.750			
0.2953	18898.15	3.7020	3.7019	-0.8705	6.37	0.38	-0.750			
0.2979	19066.84	3.6990	3.6990	-0.8814	6.37	0.38	-0.750			
0.3006	19236.23	3.6960	3.6960	-0.8890	6.37	0.38	-0.750			
0.3033	19409.31	3.6930	3.6930	-0.8986	6.38	0.39	-0.750			
0.3060	19582.39	3.6900	3.6900	-0.9061	6.39	0.40	-0.750			
0.3087	19756.32	3.6870	3.6870	-0.9145	6.40	0.41	-0.750			
0.3115	19933.27	3.6840	3.6842	-0.9241	6.41	0.42	-0.750			
0.3142	20110.57	3.6810	3.6809	-0.9354	6.41	0.42	-0.750			
0.3171	20292.02	3.6780	3.6779	-0.9379	6.42	0.43	-0.750			
0.3199	20472.99	3.6750	3.6750	-0.9436	6.42	0.43	-0.750			
0.3227	20653.76	3.6720	3.6719	-0.9537	6.43	0.44	-0.750			
0.3256	20838.21	3.6690	3.6689	-0.9632	6.43	0.44	-0.750			
0.3285	21025.45	3.6660	3.6659	-0.9750	6.44	0.45	-0.750			
0.3314	21212.78	3.6630	3.6630	-0.9857	6.44	0.45	-0.750			
0.3344	21403.03	3.6600	3.6600	-0.9929	6.45	0.46	-0.750			
0.3375	21597.60	3.6570	3.6571	-1.0066	6.45	0.46	-0.750			
0.3405	21790.91	3.6540	3.6539	-1.0153	6.46	0.47	-0.750			
0.3435	21985.76	3.6510	3.6510	-1.0213	6.46	0.47	-0.750			
0.3466	22181.30	3.6480	3.6480	-1.0252	6.47	0.48	-0.750			
0.3497	22380.25	3.6450	3.6451	-1.0517	6.47	0.48	-0.750			
0.3529	22583.08	3.6420	3.6420	-1.0556	6.48	0.49	-0.750			
0.3561	22787.92	3.6390	3.6389	-1.0663	6.48	0.49	-0.750			
0.3593	22994.68	3.6360	3.6360	-1.0707	6.49	0.50	-0.750			
0.3625	23198.92	3.6330	3.6331	-1.0857	6.49	0.50	-0.750			
0.3658	23409.73	3.6300	3.6300	-1.0952	6.49	0.50	-0.750			
0.3691	23620.44	3.6270	3.6268	-1.1003	6.49	0.50	-0.750			
0.3724	23832.00	3.6240	3.6239	-1.1028	6.49	0.50	-0.750			
0.3757	24045.62	3.6210	3.6211	-1.1233	6.49	0.50	-0.750			
0.3791	24261.97	3.6180	3.6179	-1.1354	6.50	0.51	-0.750			
0.3825	24481.62	3.6150	3.6149	-1.1444	6.50	0.51	-0.750			
0.3859	24697.77	3.6120	3.6120	-1.1464	6.51	0.52	-0.750			
0.3894	24921.61	3.6090	3.6091	-1.1706	6.51	0.52	-0.750			
0.3930	25150.36	3.6060	3.6060	-1.1831	6.51	0.52	-0.750			
0.3965	25378.13	3.6030	3.6029	-1.1943	6.51	0.52	-0.750			
0.4001	25607.92	3.6000	3.6001	-1.1981	6.51	0.52	-0.750			
0.4038	25840.94	3.5970	3.5970	-1.2095	6.51	0.52	-0.750			
0.4074	26074.01	3.5940	3.5940	-1.2205	6.51	0.52	-0.750			
0.4110	26307.18	3.5910	3.5911	-1.2356	6.51	0.52	-0.750	0.455	1.065	
0.4148	26544.92	3.5880	3.5879	-1.2427	6.52	0.53	-0.750			
0.4185	26785.93	3.5850	3.5850	-1.2539	6.52	0.53	-0.750			
0.4223	27025.91	3.5820	3.5820	-1.2722	6.53	0.54	-0.750			
0.4262	27276.07	3.5790	3.5789	-1.2941	6.53	0.54	-0.750			
0.4301	27523.74	3.5760	3.5759	-1.2985	6.53	0.54	-0.750			
0.4339	27772.06	3.5730	3.5730	-1.3146	6.52	0.53	-0.750			
0.4379	28024.00	3.5700	3.5701	-1.3273	6.52	0.53	-0.750			
0.4419	28283.24	3.5670	3.5669	-1.3456	6.52	0.53	-0.750			
0.4460	28544.07	3.5640	3.5639	-1.3544	6.53	0.54	-0.750			
0.4501	28806.35	3.5610	3.5611	-1.3630	6.53	0.54	-0.750			
0.4542	29071.37	3.5580	3.5580	-1.3738	6.53	0.54	-0.750			
0.4584	29334.47	3.5550	3.5550	-1.3879	6.53	0.54	-0.750			
0.4625	29600.34	3.5520	3.5521	-1.3965	6.53	0.54	-0.750			
0.4667	29871.31	3.5490	3.5489	-1.3986	6.53	0.54	-0.750			
0.4709	30137.48	3.5460	3.5459	-1.4194	6.53	0.54	-0.750			
0.4752	30410.21	3.5430	3.5432	-1.4235	6.53	0.54	-0.750			
0.4795	30691.12	3.5400	3.5400	-1.4474	6.53	0.54	-0.750			
0.4839	30967.94	3.5370	3.5369	-1.4507	6.53	0.54	-0.750			
0.4882	31245.70	3.5340	3.5341	-1.4484	6.53	0.54	-0.750			
0.4926	31525.42	3.5310	3.5310	-1.4763	6.53	0.54	-0.750			
0.4971	31812.75	3.5280	3.5278	-1.4901	6.53	0.54	-0.750			
0.5015	32096.72	3.5250	3.5249	-1.4886	6.53	0.54	-0.750			
0.5060	32385.38	3.5220	3.5221	-1.5122	6.53	0.54	-0.750			
0.5106	32678.04	3.5190	3.5190	-1.5324	6.53	0.54	-0.750			
0.5152	32972.05	3.5160	3.5159	-1.5512	6.54	0.55	-0.750			
0.5199	33273.18	3.5130	3.5127	-1.5731	6.54	0.55	-0.750			
0.5246	33576.13	3.5100	3.5102	-1.5808	6.55	0.56	-0.750			
0.5295	33886.66	3.5070	3.5074	-1.5977	6.56	0.57	-0.750			
0.5344	34200.86	3.5040	3.5040	-1.5950	6.57	0.58	-0.750			
0.5391	34500.24	3.5010	3.5008	-1.5745	6.57	0.58	-0.750			
0.5438	34805.19	3.4980	3.4979	-1.5670	6.57	0.58	-0.750			
0.5485	35105.97	3.4950	3.4952	-1.5673	6.57	0.58	-0.750			
0.5532	35403.57	3.4920	3.4919	-1.5535	6.58	0.59	-0.750			
0.5578	35697.69	3.4890	3.4888	-1.5434	6.58	0.59	-0.750			
0.5624	35996.25	3.4860	3.4862	-1.5481	6.59	0.60	-0.750			
0.5671	36293.03	3.4830	3.4828	-1.5457	6.59	0.60	-0.750			
0.5717	36589.23	3.4800	3.4800	-1.5400	6.60	0.61	-0.750			
0.5763	36884.41	3.4770	3.4769	-1.5280	6.60	0.61	-0.750			
0.5810	37183.58	3.4740	3.4740	-1.5383	6.61	0.62	-0.750			
0.5856	37477.91	3.4710	3.4709	-1.5232	6.61	0.62	-0.750			
0.5902	37770.36	3.4680	3.4679	-1.5148	6.62	0.63	-0.750			
0.5947	38062.09	3.4650	3.4652	-1.5037	6.64	0.65	-0.750			
0.5992	38349.33	3.4620	3.4623	-1.4999	6.65	0.66	-0.750			
0.6037	38635.66	3.4590	3.4590	-1.4746	6.66	0.67	-0.750			
0.6081	38919.39	3.4560	3.4559	-1.4567	6.66	0.67	-0.750			
0.6124	39194.61	3.4530	3.4533	-1.4398	6.67	0.68	-0.750			
0.6168	39476.06	3.4500	3.4498	-1.4304	6.68	0.69	-0.750			
0.6210	39745.09	3.4470	3.4469	-1.3977	6.69	0.70	-0.750			
0.6252	40011.86	3.4440	3.4441	-1.3863	6.69	0.70	-0.750			
0.6294	40280.10	3.4410	3.4410	-1.3728	6.71	0.72	-0.750			
0.6334	40540.02	3.4380	3.4379	-1.3607	6.72	0.73	-0.750			
0.6375	40799.43	3.4350	3.4352	-1.3319	6.73	0.74	-0.750			
0.6415	41055.56	3.4320	3.4319	-1.3072	6.74	0.75	-0.750			
0.6454	41303.37	3.4290	3.4289	-1.2790	6.75	0.76	-0.750			
0.6491	41541.47	3.4260	3.4265	-1.2473	6.76	0.77	-0.750			
0.6529	41785.23	3.4230	3.4229	-1.2318	6.77	0.78	-0.750			
0.6566	42019.41	3.4200	3.4199	-1.1995	6.78	0.79	-0.750			
0.6601	42245.25	3.4170	3.4170	-1.1664	6.79	0.80	-0.750			
0.6636	42468.82	3.4140	3.4139	-1.1547	6.80	0.81	-0.750			
0.6670	42685.77	3.4110	3.4109	-1.1287	6.81	0.82	-0.750			
0.6703	42899.11	3.4080	3.4079	-1.1003	6.82	0.83	-0.750			
0.6736	43107.52	3.4050	3.4052	-1.0773	6.84	0.85	-0.750			
0.6768	43315.59	3.4020	3.4019	-1.0565	6.85	0.86	-0.750			
0.6800	43517.50	3.3990	3.3989	-1.0294	6.86	0.87	-0.750			
0.6830	43711.09	3.3960	3.3960	-1.0020	6.88	0.89	-0.750			
0.6859	43898.60	3.3930	3.3928	-0.9690	6.89	0.90	-0.750			
0.6888	44082.23	3.3900	3.3900	-0.9515	6.90	0.91	-0.750			
0.6916	44264.42	3.3870	3.3870	-0.9281	6.91	0.92	-0.750			
0.6944	44439.59	3.3840	3.3839	-0.9034	6.93	0.94	-0.750			
0.6970	44609.84	3.3810	3.3809	-0.8753	6.94	0.95	-0.750			
0.6997	44779.83	3.3780	3.3782	-0.8518	6.95	0.96	-0.750			
0.7022	44940.32	3.3750	3.3749	-0.8225	6.96	0.97	-0.750			
0.7046	45095.51	3.3720	3.3720	-0.8053	6.98	0.99	-0.750			
0.7069	45244.16	3.3690	3.3690	-0.7759	6.99	1.00	-0.750			
0.7093	45394.58	3.3660	3.3658	-0.7625	7.00	1.01	-0.750			
0.7115	45539.18	3.3630	3.3632	-0.7447	7.01	1.02	-0.750			
0.7138	45680.26	3.3600	3.3600	-0.7279	7.02	1.03	-0.750			
0.7159	45818.45	3.3570	3.3570	-0.7103	7.03	1.04	-0.750			
0.7180	45952.22	3.3540	3.3540	-0.6913	7.04	1.05	-0.750			
0.7200	46082.69	3.3510	3.3510	-0.6806	7.05	1.06	-0.750			
0.7221	46212.53	3.3480	3.3480	-0.6790	7.06	1.07	-0.750			
