Ah_balance (normalized)	Ah_balance (mAh)	Voltage - fit (V)	Voltage -  interpolate (V)	dQ/dV (1/V)	Temperature (°C)	Temperature - diff (°C)	Current (C)	R_DC 0ms (mOhm)	R_DC 50ms (mOhm)	R_DC 50 ms PEC (mOhm)
0.1790	11455.48	4.0790	4.0789	0.7430	7.61	1.62	0.750			
0.1813	11603.87	4.0760	4.0761	0.7726	7.61	1.62	0.750			
0.1837	11755.02	4.0730	4.0730	0.7806	7.61	1.62	0.750			
0.1860	11905.49	4.0700	4.0699	0.7838	7.60	1.61	0.750			
0.1884	12060.05	4.0670	4.0671	0.7913	7.60	1.61	0.750			
0.1908	12210.17	4.0640	4.0639	0.7868	7.60	1.61	0.750			
0.1931	12359.93	4.0610	4.0609	0.7884	7.60	1.61	0.750			
0.1955	12510.56	4.0580	4.0581	0.7879	7.60	1.61	0.750			
0.1979	12663.55	4.0550	4.0549	0.7805	7.60	1.61	0.750			
0.2002	12812.54	4.0520	4.0522	0.7883	7.59	1.60	0.750			
0.2025	12962.41	4.0490	4.0491	0.7895	7.59	1.60	0.750			
0.2049	13113.74	4.0460	4.0455	0.7943	7.59	1.60	0.750			
0.2073	13266.68	4.0430	4.0431	0.7993	7.59	1.60	0.750			
0.2097	13420.67	4.0400	4.0401	0.8002	7.59	1.60	0.750			
0.2121	13577.28	4.0370	4.0370	0.8108	7.59	1.60	0.750			
0.2146	13731.76	4.0340	4.0341	0.8076	7.59	1.60	0.750			
0.2169	13882.27	4.0310	4.0306	0.8331	7.59	1.60	0.750			
0.2194	14043.05	4.0280	4.0281	0.8595	7.59	1.60	0.750			
0.2221	14212.61	4.0250	4.0247	0.8857	7.58	1.59	0.750			
0.2248	14389.37	4.0220	4.0211	0.9084	7.58	1.59	0.750			
0.2277	14570.18	4.0190	4.0194	0.9010	7.57	1.58	0.750			
0.2304	14747.41	4.0160	4.0160	0.8932	7.57	1.58	0.750			
0.2331	14919.09	4.0130	4.0130	0.8720	7.56	1.57	0.750			
0.2355	15073.27	4.0100	4.0099	0.8404	7.56	1.57	0.750			
0.2380	15234.45	4.0070	4.0070	0.8423	7.56	1.57	0.750			
0.2406	15396.06	4.0040	4.0040	0.8410	7.55	1.56	0.750			
0.2431	15556.97	4.0010	4.0010	0.8414	7.55	1.56	0.750			
0.2456	15720.45	3.9980	3.9981	0.8435	7.54	1.55	0.750			
0.2481	15880.60	3.9950	3.9950	0.8510	7.53	1.54	0.750			
0.2507	16045.36	3.9920	3.9920	0.8555	7.52	1.53	0.750			
0.2533	16208.43	3.9890	3.9890	0.8553	7.51	1.52	0.750			
0.2558	16374.18	3.9860	3.9861	0.8639	7.51	1.52	0.750			
0.2585	16541.65	3.9830	3.9831	0.8680	7.50	1.51	0.750			
0.2611	16710.40	3.9800	3.9799	0.8698	7.50	1.51	0.750			
0.2637	16876.13	3.9770	3.9771	0.8750	7.50	1.51	0.750			
0.2663	17042.46	3.9740	3.9740	0.8740	7.49	1.50	0.750			
0.2689	17212.30	3.9710	3.9710	0.8817	7.49	1.50	0.750			
0.2716	17381.66	3.9680	3.9680	0.8790	7.48	1.49	0.750			
0.2742	17549.84	3.9650	3.9650	0.8821	7.47	1.48	0.750			
0.2769	17719.53	3.9620	3.9621	0.8915	7.47	1.48	0.750			
0.2795	17890.85	3.9590	3.9587	0.8970	7.46	1.47	0.750			
0.2822	18063.79	3.9560	3.9560	0.8929	7.45	1.46	0.750			
0.2849	18235.33	3.9530	3.9531	0.9087	7.44	1.45	0.750			
0.2877	18411.45	3.9500	3.9501	0.9160	7.43	1.44	0.750			
0.2905	18589.26	3.9470	3.9470	0.9192	7.43	1.44	0.750			
0.2932	18763.15	3.9440	3.9440	0.9230	7.42	1.43	0.750			
0.2959	18940.65	3.9410	3.9412	0.9271	7.41	1.42	0.750			
0.2987	19119.86	3.9380	3.9379	0.9363	7.40	1.41	0.750			
0.3016	19300.64	3.9350	3.9350	0.9442	7.39	1.40	0.750			
0.3044	19480.90	3.9320	3.9319	0.9452	7.38	1.39	0.750			
0.3073	19666.84	3.9290	3.9290	0.9482	7.37	1.38	0.750			
0.3101	19848.74	3.9260	3.9260	0.9529	7.36	1.37	0.750			
0.3129	20028.61	3.9230	3.9231	0.9613	7.35	1.36	0.750			
0.3158	20213.15	3.9200	3.9201	0.9693	7.34	1.35	0.750			
0.3188	20402.10	3.9170	3.9170	0.9745	7.33	1.34	0.750			
0.3217	20589.61	3.9140	3.9140	0.9857	7.32	1.33	0.750			
0.3247	20780.82	3.9110	3.9111	0.9981	7.31	1.32	0.750			
0.3277	20974.70	3.9080	3.9080	1.0160	7.30	1.31	0.750			
0.3308	21169.87	3.9050	3.9050	1.0141	7.29	1.30	0.750			
0.3338	21363.99	3.9020	3.9020	1.0245	7.28	1.29	0.750			
0.3369	21561.98	3.8990	3.8991	1.0384	7.27	1.28	0.750			
0.3400	21762.70	3.8960	3.8961	1.0524	7.26	1.27	0.750			
0.3432	21966.52	3.8930	3.8929	1.0536	7.25	1.26	0.750			
0.3464	22168.61	3.8900	3.8900	1.0673	7.24	1.25	0.750			
0.3496	22373.47	3.8870	3.8871	1.0776	7.23	1.24	0.750			
0.3529	22583.11	3.8840	3.8841	1.0927	7.22	1.23	0.750			
0.3562	22794.20	3.8810	3.8810	1.0932	7.21	1.22	0.750			
0.3594	23002.94	3.8780	3.8781	1.1124	7.19	1.20	0.750			
0.3628	23218.40	3.8750	3.8749	1.1291	7.18	1.19	0.750			
0.3662	23439.88	3.8720	3.8719	1.1436	7.17	1.18	0.750			
0.3697	23658.16	3.8690	3.8691	1.1530	7.16	1.17	0.750			
0.3732	23881.63	3.8660	3.8661	1.1689	7.15	1.16	0.750			
0.3767	24106.31	3.8630	3.8631	1.1917	7.14	1.15	0.750			
0.3802	24334.78	3.8600	3.8600	1.2025	7.13	1.14	0.750			
0.3839	24567.97	3.8570	3.8570	1.2207	7.11	1.12	0.750			
0.3876	24804.99	3.8540	3.8540	1.2448	7.09	1.10	0.750			
0.3914	25049.41	3.8510	3.8508	1.2529	7.07	1.08	0.750			
0.3952	25290.90	3.8480	3.8481	1.2718	7.06	1.07	0.750			
0.3989	25531.34	3.8450	3.8451	1.3035	7.05	1.06	0.750			
0.4028	25781.47	3.8420	3.8421	1.3408	7.04	1.05	0.750			
0.4069	26041.83	3.8390	3.8390	1.3823	7.02	1.03	0.750			
0.4111	26311.95	3.8360	3.8361	1.4170	7.00	1.01	0.750	0.392	0.912	
0.4155	26590.95	3.8330	3.8331	1.4349	6.98	0.99	0.750			
0.4199	26872.27	3.8300	3.8300	1.4623	6.96	0.97	0.750			
0.4243	27153.32	3.8270	3.8271	1.4853	6.95	0.96	0.750			
0.4287	27434.04	3.8240	3.8239	1.4880	6.93	0.94	0.750			
0.4332	27724.45	3.8210	3.8207	1.5118	6.91	0.92	0.750			
0.4378	28016.10	3.8180	3.8183	1.5524	6.89	0.90	0.750			
0.4425	28317.75	3.8150	3.8148	1.5961	6.87	0.88	0.750			
0.4473	28629.78	3.8120	3.8120	1.6131	6.85	0.86	0.750			
0.4522	28939.75	3.8090	3.8093	1.6444	6.83	0.84	0.750			
0.4573	29267.04	3.8060	3.8061	1.6801	6.80	0.81	0.750			
0.4623	29584.94	3.8030	3.8030	1.7039	6.78	0.79	0.750			
0.4674	29913.00	3.8000	3.7999	1.7199	6.75	0.76	0.750			
0.4727	30252.62	3.7970	3.7971	1.7341	6.73	0.74	0.750			
0.4779	30588.19	3.7940	3.7940	1.7655	6.72	0.73	0.750			
0.4833	30929.53	3.7910	3.7907	1.8184	6.69	0.70	0.750			
0.4887	31278.45	3.7880	3.7877	1.8579	6.67	0.68	0.750			
0.4944	31641.03	3.7850	3.7852	1.8943	6.64	0.65	0.750			
0.5002	32015.95	3.7820	3.7819	1.9219	6.61	0.62	0.750			
0.5061	32392.77	3.7790	3.7790	1.9216	6.58	0.59	0.750			
0.5120	32766.37	3.7760	3.7760	1.8861	6.56	0.57	0.750			
0.5177	33131.15	3.7730	3.7724	1.8890	6.54	0.55	0.750			
0.5232	33481.84	3.7700	3.7702	1.9105	6.51	0.52	0.750			
0.5289	33851.27	3.7670	3.7669	1.9492	6.48	0.49	0.750			
0.5349	34233.21	3.7640	3.7640	2.0051	6.46	0.47	0.750			
0.5413	34640.78	3.7610	3.7609	2.1256	6.43	0.44	0.750			
0.5477	35054.31	3.7580	3.7582	2.1270	6.41	0.42	0.750			
0.5540	35452.82	3.7550	3.7549	2.1393	6.38	0.39	0.750			
0.5605	35869.97	3.7520	3.7519	2.1510	6.36	0.37	0.750			
0.5669	36283.83	3.7490	3.7491	2.1606	6.33	0.34	0.750			
0.5732	36685.90	3.7460	3.7457	2.2320	6.31	0.32	0.750			
0.5801	37126.41	3.7430	3.7429	2.3923	6.29	0.30	0.750			
0.5874	37593.17	3.7400	3.7401	2.4236	6.26	0.27	0.750			
0.5946	38053.92	3.7370	3.7371	2.4250	6.23	0.24	0.750			
0.6020	38526.40	3.7340	3.7336	2.5098	6.20	0.21	0.750			
0.6098	39024.40	3.7310	3.7310	2.5431	6.17	0.18	0.750			
0.6175	39518.80	3.7280	3.7279	2.5877	6.15	0.16	0.750			
0.6250	40001.84	3.7250	3.7251	2.5362	6.12	0.13	0.750			
0.6330	40510.09	3.7220	3.7222	2.5417	6.09	0.10	0.750			
0.6404	40986.95	3.7190	3.7190	2.3939	6.07	0.08	0.750			
0.6474	41433.19	3.7160	3.7160	2.2636	6.05	0.06	0.750			
0.6542	41867.85	3.7130	3.7129	2.1598	6.03	0.04	0.750			
0.6606	42277.88	3.7100	3.7102	1.9874	6.02	0.03	0.750			
0.6665	42656.31	3.7070	3.7081	1.8237	6.01	0.02	0.750			
0.6714	42971.43	3.7040	3.7042	1.6010	6.00	0.01	0.750			
0.6757	43247.73	3.7010	3.7012	1.3942	6.00	0.01	0.750			
0.6796	43495.78	3.6980	3.6976	1.2490	5.99	-0.00	0.750			
0.6831	43715.42	3.6950	3.6951	1.1153	5.98	-0.01	0.750			
0.6862	43915.58	3.6920	3.6920	1.0416	5.98	-0.01	0.750			
0.6891	44103.41	3.6890	3.6891	0.9791	5.97	-0.02	0.750			
0.6919	44282.50	3.6860	3.6856	0.9233	5.97	-0.02	0.750			
0.6946	44454.90	3.6830	3.6830	0.8851	5.97	-0.02	0.750			
0.6972	44620.90	3.6800	3.6801	0.8461	5.97	-0.02	0.750			
0.6997	44781.40	3.6770	3.6770	0.8175	5.97	-0.02	0.750			
0.7021	44933.64	3.6740	3.6740	0.7769	5.97	-0.02	0.750			
0.7044	45081.11	3.6710	3.6706	0.7453	5.97	-0.02	0.750			
0.7066	45220.86	3.6680	3.6680	0.7085	5.97	-0.02	0.750			
0.7087	45355.17	3.6650	3.6651	0.6716	5.98	-0.01	0.750			
0.7106	45481.33	3.6620	3.6620	0.6350	5.98	-0.01	0.750			
0.7125	45599.48	3.6590	3.6590	0.5951	5.98	-0.01	0.750			
0.7142	45707.57	3.6560	3.6560	0.5523	5.99	-0.00	0.750			
0.7158	45810.56	3.6530	3.6530	0.5145	5.99	-0.00	0.750			
0.7173	45906.56	3.6500	3.6499	0.4764	5.99	0.00	0.750			
0.7187	45994.11	3.6470	3.6471	0.4365	5.99	0.00	0.750			
0.7199	46073.84	3.6440	3.6439	0.4004	5.99	0.00	0.750			
0.7210	46145.77	3.6410	3.6410	0.3625	6.00	0.01	0.750			
0.7220	46211.15	3.6380	3.6380	0.3272	6.00	0.01	0.750			
0.7230	46270.65	3.6350	3.6350	0.2945	6.00	0.01	0.750			
0.7238	46326.35	3.6320	3.6319	0.2610	6.00	0.01	0.750			
0.7246	46373.28	3.6290	3.6289	0.2252	6.00	0.01	0.750			
0.7252	46414.03	3.6260	3.6260	0.1898	6.00	0.01	0.750			
0.7257	46446.91	3.6230	3.6232	0.1505	6.00	0.01	0.750			
0.7261	46473.08	3.6200	3.6200	0.1110	6.00	0.01	0.750			
0.7264	46491.94	3.6170	3.6169	0.0684	6.00	0.01	0.750			
0.7266	46500.79	3.6140	3.6132	0.0237	6.01	0.02	0.750			
0.7266	46501.05	3.6110	3.6130	-0.0210	6.01	0.02	0.750			
