Ah_balance (normalized)	Ah_balance (mAh)	Voltage - fit (V)	Voltage -  interpolate (V)	dQ/dV (1/V)	Temperature (°C)	Temperature - diff (°C)	Current (C)	R_DC 0ms (mOhm)	R_DC 50ms (mOhm)	R_DC 50 ms PEC (mOhm)
0.1773	11348.67	4.0810	4.0811	0.8264	7.50	1.53	0.750			
0.1797	11499.77	4.0780	4.0780	0.7662	7.50	1.53	0.750			
0.1819	11642.90	4.0750	4.0751	0.7659	7.50	1.53	0.750			
0.1842	11791.83	4.0720	4.0721	0.7832	7.49	1.52	0.750			
0.1866	11944.88	4.0690	4.0687	0.7916	7.49	1.52	0.750			
0.1891	12099.37	4.0660	4.0661	0.7978	7.49	1.52	0.750			
0.1915	12254.53	4.0630	4.0631	0.7966	7.48	1.51	0.750			
0.1939	12409.10	4.0600	4.0601	0.8010	7.48	1.51	0.750			
0.1962	12559.41	4.0570	4.0570	0.7906	7.47	1.50	0.750			
0.1986	12710.46	4.0540	4.0537	0.7924	7.47	1.50	0.750			
0.2009	12860.74	4.0510	4.0511	0.7999	7.47	1.50	0.750			
0.2034	13016.42	4.0480	4.0480	0.8012	7.46	1.49	0.750			
0.2058	13172.40	4.0450	4.0450	0.8099	7.46	1.49	0.750			
0.2082	13327.79	4.0420	4.0420	0.8059	7.45	1.48	0.750			
0.2107	13482.31	4.0390	4.0389	0.8147	7.45	1.48	0.750			
0.2131	13639.52	4.0360	4.0361	0.8170	7.45	1.48	0.750			
0.2156	13799.98	4.0330	4.0329	0.8067	7.44	1.47	0.750			
0.2180	13952.98	4.0300	4.0300	0.8127	7.43	1.46	0.750			
0.2205	14109.05	4.0270	4.0271	0.8251	7.43	1.46	0.750			
0.2229	14264.48	4.0240	4.0239	0.8254	7.42	1.45	0.750			
0.2254	14423.81	4.0210	4.0211	0.8342	7.42	1.45	0.750			
0.2279	14586.82	4.0180	4.0180	0.8240	7.42	1.45	0.750			
0.2304	14747.07	4.0150	4.0152	0.8336	7.41	1.44	0.750			
0.2330	14909.88	4.0120	4.0120	0.8396	7.41	1.44	0.750			
0.2354	15064.66	4.0090	4.0092	0.8360	7.41	1.44	0.750			
0.2379	15225.30	4.0060	4.0061	0.8414	7.40	1.43	0.750			
0.2404	15387.21	4.0030	4.0030	0.8440	7.40	1.43	0.750			
0.2430	15551.25	4.0000	4.0000	0.8484	7.39	1.42	0.750			
0.2455	15714.59	3.9970	3.9973	0.8540	7.38	1.41	0.750			
0.2481	15880.38	3.9940	3.9938	0.8631	7.37	1.40	0.750			
0.2507	16046.48	3.9910	3.9909	0.8652	7.37	1.40	0.750			
0.2533	16213.64	3.9880	3.9880	0.8611	7.36	1.39	0.750			
0.2559	16379.11	3.9850	3.9851	0.8668	7.35	1.38	0.750			
0.2585	16544.55	3.9820	3.9821	0.8661	7.35	1.38	0.750			
0.2611	16711.85	3.9790	3.9786	0.8699	7.34	1.37	0.750			
0.2637	16878.03	3.9760	3.9760	0.8632	7.33	1.36	0.750			
0.2663	17044.57	3.9730	3.9732	0.8719	7.33	1.36	0.750			
0.2690	17213.33	3.9700	3.9700	0.8832	7.32	1.35	0.750			
0.2716	17382.67	3.9670	3.9670	0.8853	7.31	1.34	0.750			
0.2742	17551.78	3.9640	3.9641	0.8878	7.31	1.34	0.750			
0.2770	17726.68	3.9610	3.9610	0.8841	7.30	1.33	0.750			
0.2796	17896.99	3.9580	3.9581	0.8973	7.30	1.33	0.750			
0.2823	18068.82	3.9550	3.9551	0.9037	7.29	1.32	0.750			
0.2850	18241.17	3.9520	3.9520	0.9032	7.28	1.31	0.750			
0.2877	18415.49	3.9490	3.9491	0.9079	7.28	1.31	0.750			
0.2905	18590.52	3.9460	3.9461	0.9109	7.27	1.30	0.750			
0.2932	18765.80	3.9430	3.9431	0.9184	7.26	1.29	0.750			
0.2960	18945.29	3.9400	3.9400	0.9302	7.26	1.29	0.750			
0.2988	19120.26	3.9370	3.9368	0.9289	7.25	1.28	0.750			
0.3016	19300.66	3.9340	3.9340	0.9301	7.24	1.27	0.750			
0.3044	19480.40	3.9310	3.9311	0.9446	7.23	1.26	0.750			
0.3072	19662.91	3.9280	3.9282	0.9609	7.22	1.25	0.750			
0.3101	19847.58	3.9250	3.9248	0.9634	7.21	1.24	0.750			
0.3131	20035.59	3.9220	3.9220	0.9640	7.20	1.23	0.750			
0.3159	20219.35	3.9190	3.9192	0.9740	7.19	1.22	0.750			
0.3189	20407.63	3.9160	3.9161	0.9821	7.19	1.22	0.750			
0.3218	20597.17	3.9130	3.9130	0.9839	7.18	1.21	0.750			
0.3248	20788.15	3.9100	3.9100	0.9889	7.17	1.20	0.750			
0.3278	20977.40	3.9070	3.9071	0.9987	7.16	1.19	0.750			
0.3308	21171.31	3.9040	3.9040	1.0160	7.15	1.18	0.750			
0.3339	21366.52	3.9010	3.9010	1.0320	7.14	1.17	0.750			
0.3370	21567.67	3.8980	3.8980	1.0237	7.13	1.16	0.750			
0.3401	21763.88	3.8950	3.8951	1.0428	7.12	1.15	0.750			
0.3432	21965.61	3.8920	3.8921	1.0556	7.12	1.15	0.750			
0.3464	22168.82	3.8890	3.8891	1.0703	7.11	1.14	0.750			
0.3496	22375.74	3.8860	3.8858	1.0705	7.11	1.14	0.750			
0.3528	22581.20	3.8830	3.8831	1.0858	7.09	1.12	0.750			
0.3561	22790.84	3.8800	3.8801	1.1003	7.08	1.11	0.750			
0.3595	23005.52	3.8770	3.8771	1.1235	7.07	1.10	0.750			
0.3628	23220.08	3.8740	3.8740	1.1255	7.06	1.09	0.750			
0.3662	23438.08	3.8710	3.8710	1.1431	7.05	1.08	0.750			
0.3697	23658.97	3.8680	3.8680	1.1609	7.04	1.07	0.750			
0.3733	23889.18	3.8650	3.8649	1.1680	7.03	1.06	0.750			
0.3767	24109.68	3.8620	3.8619	1.1783	7.02	1.05	0.750			
0.3803	24336.24	3.8590	3.8591	1.1952	7.01	1.04	0.750			
0.3838	24566.15	3.8560	3.8561	1.2107	7.00	1.03	0.750			
0.3875	24799.82	3.8530	3.8528	1.2350	6.99	1.02	0.750			
0.3912	25039.44	3.8500	3.8501	1.2596	6.97	1.00	0.750			
0.3950	25281.97	3.8470	3.8471	1.2777	6.96	0.99	0.750			
0.3989	25529.89	3.8440	3.8440	1.3051	6.95	0.98	0.750			
0.4028	25780.57	3.8410	3.8411	1.3160	6.93	0.96	0.750			
0.4068	26032.56	3.8380	3.8375	1.3517	6.92	0.95	0.750			
0.4108	26293.14	3.8350	3.8349	1.4040	6.90	0.93	0.750			
0.4151	26565.65	3.8320	3.8326	1.4634	6.88	0.91	0.750	0.387	0.913	
0.4196	26855.58	3.8290	3.8289	1.4944	6.87	0.90	0.750			
0.4241	27145.32	3.8260	3.8259	1.5222	6.85	0.88	0.750			
0.4290	27456.94	3.8230	3.8229	1.5493	6.83	0.86	0.750			
0.4336	27750.30	3.8200	3.8202	1.5558	6.81	0.84	0.750			
0.4382	28042.81	3.8170	3.8172	1.5505	6.79	0.82	0.750			
0.4428	28337.69	3.8140	3.8138	1.5828	6.77	0.80	0.750			
0.4475	28640.38	3.8110	3.8111	1.5896	6.75	0.78	0.750			
0.4524	28953.35	3.8080	3.8081	1.6180	6.73	0.76	0.750			
0.4574	29272.52	3.8050	3.8051	1.6705	6.71	0.74	0.750			
0.4624	29590.66	3.8020	3.8019	1.7133	6.70	0.73	0.750			
0.4676	29924.26	3.7990	3.7988	1.7266	6.67	0.70	0.750			
0.4729	30262.44	3.7960	3.7959	1.7653	6.65	0.68	0.750			
0.4783	30610.22	3.7930	3.7931	1.7965	6.63	0.66	0.750			
0.4838	30962.89	3.7900	3.7899	1.8212	6.61	0.64	0.750			
0.4892	31307.85	3.7870	3.7869	1.9005	6.59	0.62	0.750			
0.4950	31680.05	3.7840	3.7841	1.9262	6.56	0.59	0.750			
0.5008	32053.72	3.7810	3.7809	1.9386	6.54	0.57	0.750			
0.5066	32423.22	3.7780	3.7782	2.0051	6.52	0.55	0.750			
0.5128	32816.77	3.7750	3.7749	1.9926	6.50	0.53	0.750			
0.5187	33194.18	3.7720	3.7719	2.0301	6.47	0.50	0.750			
0.5251	33603.36	3.7690	3.7692	2.0339	6.44	0.47	0.750			
0.5311	33989.63	3.7660	3.7661	2.0403	6.42	0.45	0.750			
0.5372	34383.45	3.7630	3.7634	2.0660	6.40	0.43	0.750			
0.5436	34789.88	3.7600	3.7602	2.1157	6.37	0.40	0.750			
0.5498	35188.30	3.7570	3.7571	2.1317	6.35	0.38	0.750			
0.5564	35607.47	3.7540	3.7540	2.1786	6.33	0.36	0.750			
0.5631	36039.29	3.7510	3.7509	2.2433	6.30	0.33	0.750			
0.5700	36478.78	3.7480	3.7481	2.2848	6.27	0.30	0.750			
0.5769	36920.82	3.7450	3.7445	2.3151	6.24	0.27	0.750			
0.5839	37372.67	3.7420	3.7418	2.3738	6.22	0.25	0.750			
0.5913	37840.87	3.7390	3.7389	2.4247	6.19	0.22	0.750			
0.5985	38301.46	3.7360	3.7358	2.4758	6.17	0.20	0.750			
0.6058	38774.24	3.7330	3.7330	2.5274	6.15	0.18	0.750			
0.6138	39281.33	3.7300	3.7301	2.7300	6.12	0.15	0.750			
0.6221	39812.83	3.7270	3.7269	2.8823	6.09	0.12	0.750			
0.6308	40368.91	3.7240	3.7240	2.7559	6.07	0.10	0.750			
0.6389	40888.31	3.7210	3.7206	2.6492	6.04	0.07	0.750			
0.6466	41383.08	3.7180	3.7181	2.6074	6.02	0.05	0.750			
0.6545	41890.97	3.7150	3.7149	2.5662	6.01	0.04	0.750			
0.6619	42360.65	3.7120	3.7122	2.3789	6.00	0.03	0.750			
0.6688	42805.64	3.7090	3.7090	2.1653	5.98	0.01	0.750			
0.6750	43199.80	3.7060	3.7062	1.9154	5.97	-0.00	0.750			
0.6803	43541.39	3.7030	3.7032	1.7109	5.96	-0.01	0.750			
0.6851	43844.60	3.7000	3.6999	1.4978	5.96	-0.01	0.750			
0.6891	44104.19	3.6970	3.6971	1.3234	5.96	-0.01	0.750			
0.6927	44334.23	3.6940	3.6939	1.1721	5.96	-0.01	0.750			
0.6959	44537.32	3.6910	3.6911	1.0646	5.96	-0.01	0.750			
0.6989	44726.66	3.6880	3.6879	0.9730	5.96	-0.01	0.750			
0.7016	44904.04	3.6850	3.6851	0.9288	5.96	-0.01	0.750			
0.7043	45074.40	3.6820	3.6819	0.8716	5.96	-0.01	0.750			
0.7069	45238.44	3.6790	3.6790	0.8379	5.97	-0.00	0.750			
0.7093	45396.19	3.6760	3.6760	0.7997	5.97	-0.00	0.750			
0.7117	45549.74	3.6730	3.6734	0.7595	5.97	0.00	0.750			
0.7139	45691.33	3.6700	3.6701	0.7113	5.97	0.00	0.750			
0.7160	45823.64	3.6670	3.6671	0.6650	5.97	0.00	0.750			
0.7179	45946.48	3.6640	3.6640	0.6145	5.97	0.00	0.750			
0.7197	46057.84	3.6610	3.6609	0.5664	5.97	0.00	0.750			
0.7213	46161.22	3.6580	3.6580	0.5249	5.97	0.00	0.750			
0.7228	46258.21	3.6550	3.6551	0.4860	5.97	0.00	0.750			
0.7242	46348.46	3.6520	3.6520	0.4503	5.97	0.00	0.750			
0.7255	46430.93	3.6490	3.6490	0.4108	5.97	0.00	0.750			
0.7267	46506.33	3.6460	3.6461	0.3725	5.97	0.00	0.750			
0.7277	46574.32	3.6430	3.6429	0.3362	5.97	0.00	0.750			
0.7287	46634.23	3.6400	3.6400	0.2978	5.97	0.00	0.750			
0.7295	46687.41	3.6370	3.6370	0.2612	5.97	0.00	0.750			
0.7302	46734.81	3.6340	3.6339	0.2239	5.97	0.00	0.750			
0.7309	46774.52	3.6310	3.6310	0.1872	5.97	0.00	0.750			
0.7314	46807.65	3.6280	3.6280	0.1513	5.97	0.00	0.750			
0.7318	46833.02	3.6250	3.6254	0.1132	5.97	0.00	0.750			
0.7321	46852.39	3.6220	3.6225	0.0739	5.97	0.00	0.750			
0.7322	46863.26	3.6190	3.6202	0.0311	5.97	0.00	0.750			
0.7323	46865.13	3.6160	3.6197	-0.0116	5.97	0.00	0.750			
