Ah_balance (normalized)	Ah_balance (mAh)	Voltage - fit (V)	Voltage -  interpolate (V)	dQ/dV (1/V)	Temperature (°C)	Temperature - diff (°C)	Current (C)	R_DC 0ms (mOhm)	R_DC 50ms (mOhm)	R_DC 50 ms PEC (mOhm)
0.1783	11413.07	4.0820	4.0820	0.7520	7.58	1.59	0.750			
0.1806	11558.86	4.0790	4.0790	0.7626	7.57	1.58	0.750			
0.1829	11706.66	4.0760	4.0759	0.7665	7.57	1.58	0.750			
0.1852	11853.24	4.0730	4.0729	0.7687	7.57	1.58	0.750			
0.1875	12001.91	4.0700	4.0701	0.7664	7.56	1.57	0.750			
0.1898	12149.11	4.0670	4.0670	0.7697	7.56	1.57	0.750			
0.1921	12296.41	4.0640	4.0640	0.7756	7.56	1.57	0.750			
0.1945	12445.16	4.0610	4.0611	0.7800	7.55	1.56	0.750			
0.1968	12594.50	4.0580	4.0579	0.7850	7.55	1.56	0.750			
0.1992	12746.01	4.0550	4.0550	0.7909	7.55	1.56	0.750			
0.2016	12899.90	4.0520	4.0520	0.7872	7.54	1.55	0.750			
0.2039	13051.58	4.0490	4.0490	0.7919	7.54	1.55	0.750			
0.2063	13202.94	4.0460	4.0461	0.7905	7.53	1.54	0.750			
0.2087	13354.26	4.0430	4.0428	0.7933	7.53	1.54	0.750			
0.2110	13505.52	4.0400	4.0401	0.7968	7.53	1.54	0.750			
0.2134	13659.07	4.0370	4.0370	0.7987	7.52	1.53	0.750			
0.2158	13813.77	4.0340	4.0340	0.8036	7.52	1.53	0.750			
0.2183	13968.79	4.0310	4.0310	0.8071	7.51	1.52	0.750			
0.2207	14122.57	4.0280	4.0279	0.8108	7.51	1.52	0.750			
0.2231	14279.76	4.0250	4.0250	0.8168	7.51	1.52	0.750			
0.2256	14438.51	4.0220	4.0220	0.8147	7.50	1.51	0.750			
0.2280	14593.97	4.0190	4.0190	0.8201	7.49	1.50	0.750			
0.2305	14752.06	4.0160	4.0162	0.8256	7.49	1.50	0.750			
0.2330	14909.17	4.0130	4.0129	0.8285	7.48	1.49	0.750			
0.2354	15067.98	4.0100	4.0100	0.8345	7.48	1.49	0.750			
0.2379	15227.76	4.0070	4.0071	0.8398	7.47	1.48	0.750			
0.2405	15391.40	4.0040	4.0040	0.8449	7.46	1.47	0.750			
0.2431	15556.72	4.0010	4.0010	0.8488	7.46	1.47	0.750			
0.2456	15719.33	3.9980	3.9980	0.8512	7.45	1.46	0.750			
0.2482	15882.69	3.9950	3.9950	0.8534	7.45	1.46	0.750			
0.2507	16046.77	3.9920	3.9920	0.8549	7.44	1.45	0.750			
0.2533	16209.65	3.9890	3.9890	0.8576	7.43	1.44	0.750			
0.2559	16374.49	3.9860	3.9861	0.8595	7.43	1.44	0.750			
0.2585	16540.82	3.9830	3.9828	0.8693	7.42	1.43	0.750			
0.2611	16709.26	3.9800	3.9800	0.8698	7.41	1.42	0.750			
0.2637	16876.01	3.9770	3.9770	0.8743	7.41	1.42	0.750			
0.2663	17044.12	3.9740	3.9740	0.8794	7.40	1.41	0.750			
0.2690	17214.33	3.9710	3.9711	0.8800	7.40	1.41	0.750			
0.2716	17381.03	3.9680	3.9680	0.8847	7.39	1.40	0.750			
0.2743	17553.25	3.9650	3.9650	0.8849	7.38	1.39	0.750			
0.2769	17721.47	3.9620	3.9621	0.8889	7.37	1.38	0.750			
0.2796	17894.23	3.9590	3.9590	0.8937	7.36	1.37	0.750			
0.2823	18065.83	3.9560	3.9562	0.8946	7.35	1.36	0.750			
0.2850	18237.40	3.9530	3.9530	0.9047	7.35	1.36	0.750			
0.2877	18412.09	3.9500	3.9501	0.9082	7.34	1.35	0.750			
0.2904	18584.91	3.9470	3.9470	0.9134	7.33	1.34	0.750			
0.2932	18763.68	3.9440	3.9440	0.9239	7.32	1.33	0.750			
0.2959	18939.82	3.9410	3.9409	0.9267	7.31	1.32	0.750			
0.2988	19120.76	3.9380	3.9380	0.9300	7.30	1.31	0.750			
0.3015	19298.41	3.9350	3.9351	0.9349	7.29	1.30	0.750			
0.3043	19477.19	3.9320	3.9320	0.9393	7.28	1.29	0.750			
0.3072	19658.66	3.9290	3.9290	0.9461	7.27	1.28	0.750			
0.3100	19841.03	3.9260	3.9261	0.9513	7.27	1.28	0.750			
0.3129	20023.80	3.9230	3.9230	0.9630	7.26	1.27	0.750			
0.3158	20208.98	3.9200	3.9200	0.9706	7.26	1.27	0.750			
0.3187	20398.50	3.9170	3.9170	0.9819	7.25	1.26	0.750			
0.3217	20585.99	3.9140	3.9140	0.9879	7.25	1.26	0.750			
0.3246	20776.31	3.9110	3.9111	0.9985	7.24	1.25	0.750			
0.3276	20969.30	3.9080	3.9080	1.0094	7.23	1.24	0.750			
0.3307	21164.31	3.9050	3.9050	1.0171	7.22	1.23	0.750			
0.3337	21359.64	3.9020	3.9020	1.0244	7.21	1.22	0.750			
0.3369	21558.40	3.8990	3.8990	1.0319	7.20	1.21	0.750			
0.3399	21756.16	3.8960	3.8960	1.0430	7.19	1.20	0.750			
0.3431	21955.39	3.8930	3.8931	1.0571	7.17	1.18	0.750			
0.3463	22162.87	3.8900	3.8898	1.0601	7.16	1.17	0.750			
0.3495	22366.32	3.8870	3.8870	1.0774	7.15	1.16	0.750			
0.3527	22573.95	3.8840	3.8840	1.0948	7.14	1.15	0.750			
0.3560	22785.83	3.8810	3.8811	1.1093	7.14	1.15	0.750			
0.3594	23001.96	3.8780	3.8778	1.1111	7.13	1.14	0.750			
0.3627	23215.22	3.8750	3.8750	1.1269	7.12	1.13	0.750			
0.3661	23431.10	3.8720	3.8721	1.1431	7.11	1.12	0.750			
0.3696	23654.65	3.8690	3.8690	1.1609	7.10	1.11	0.750			
0.3731	23877.12	3.8660	3.8660	1.1637	7.08	1.09	0.750			
0.3766	24100.19	3.8630	3.8631	1.1862	7.06	1.07	0.750			
0.3802	24331.88	3.8600	3.8600	1.2035	7.05	1.06	0.750			
0.3839	24567.34	3.8570	3.8568	1.2214	7.03	1.04	0.750			
0.3875	24800.12	3.8540	3.8541	1.2303	7.02	1.03	0.750			
0.3912	25033.77	3.8510	3.8510	1.2648	7.01	1.02	0.750			
0.3950	25282.63	3.8480	3.8479	1.2884	6.99	1.00	0.750			
0.3989	25530.20	3.8450	3.8449	1.3390	6.98	0.99	0.750			
0.4030	25789.87	3.8420	3.8411	1.3687	6.97	0.98	0.750	0.383	0.889	
0.4072	26061.17	3.8390	3.8391	1.3946	6.95	0.96	0.750			
0.4115	26337.61	3.8360	3.8362	1.4237	6.94	0.95	0.750			
0.4158	26610.89	3.8330	3.8332	1.4281	6.92	0.93	0.750			
0.4201	26886.09	3.8300	3.8298	1.4273	6.90	0.91	0.750			
0.4242	27150.13	3.8270	3.8270	1.4254	6.88	0.89	0.750			
0.4285	27425.30	3.8240	3.8241	1.4622	6.87	0.88	0.750			
0.4329	27705.37	3.8210	3.8210	1.5061	6.85	0.86	0.750			
0.4374	27996.39	3.8180	3.8180	1.5553	6.84	0.85	0.750			
0.4422	28298.62	3.8150	3.8148	1.5972	6.82	0.83	0.750			
0.4471	28611.61	3.8120	3.8123	1.6101	6.81	0.82	0.750			
0.4519	28923.92	3.8090	3.8091	1.6330	6.79	0.80	0.750			
0.4570	29247.45	3.8060	3.8060	1.6418	6.77	0.78	0.750			
0.4618	29557.70	3.8030	3.8031	1.6649	6.75	0.76	0.750			
0.4668	29875.65	3.8000	3.8001	1.6717	6.73	0.74	0.750			
0.4719	30200.22	3.7970	3.7970	1.7391	6.71	0.72	0.750			
0.4771	30531.25	3.7940	3.7941	1.7630	6.68	0.69	0.750			
0.4825	30880.81	3.7910	3.7909	1.7917	6.66	0.67	0.750			
0.4880	31229.93	3.7880	3.7882	1.8233	6.64	0.65	0.750			
0.4936	31588.96	3.7850	3.7852	1.8395	6.62	0.63	0.750			
0.4992	31947.04	3.7820	3.7819	1.8416	6.60	0.61	0.750			
0.5047	32303.62	3.7790	3.7792	1.8647	6.58	0.59	0.750			
0.5103	32658.40	3.7760	3.7759	1.8734	6.56	0.57	0.750			
0.5159	33019.59	3.7730	3.7729	1.8825	6.54	0.55	0.750			
0.5215	33375.60	3.7700	3.7699	1.9262	6.51	0.52	0.750			
0.5274	33754.37	3.7670	3.7670	1.9159	6.49	0.50	0.750			
0.5333	34129.90	3.7640	3.7639	1.9341	6.47	0.48	0.750			
0.5392	34507.39	3.7610	3.7609	1.9693	6.44	0.45	0.750			
0.5451	34884.80	3.7580	3.7579	2.0007	6.42	0.43	0.750			
0.5511	35267.45	3.7550	3.7551	2.0058	6.39	0.40	0.750			
0.5573	35666.36	3.7520	3.7519	2.1169	6.37	0.38	0.750			
0.5636	36071.73	3.7490	3.7489	2.1411	6.35	0.36	0.750			
0.5701	36486.51	3.7460	3.7463	2.2088	6.33	0.34	0.750			
0.5768	36912.63	3.7430	3.7430	2.2758	6.31	0.32	0.750			
0.5838	37361.03	3.7400	3.7398	2.3302	6.28	0.29	0.750			
0.5910	37824.93	3.7370	3.7371	2.4014	6.25	0.26	0.750			
0.5982	38285.45	3.7340	3.7339	2.4144	6.22	0.23	0.750			
0.6055	38753.24	3.7310	3.7310	2.3882	6.20	0.21	0.750			
0.6127	39215.80	3.7280	3.7279	2.4065	6.18	0.19	0.750			
0.6199	39674.84	3.7250	3.7250	2.4124	6.15	0.16	0.750			
0.6272	40142.14	3.7220	3.7220	2.3701	6.14	0.15	0.750			
0.6344	40598.93	3.7190	3.7189	2.2383	6.12	0.13	0.750			
0.6410	41026.31	3.7160	3.7158	2.1086	6.10	0.11	0.750			
0.6471	41414.09	3.7130	3.7130	1.8907	6.09	0.10	0.750			
0.6524	41755.02	3.7100	3.7102	1.6925	6.07	0.08	0.750			
0.6573	42065.28	3.7070	3.7070	1.5298	6.05	0.06	0.750			
0.6614	42329.26	3.7040	3.7047	1.3447	6.03	0.04	0.750			
0.6652	42572.48	3.7010	3.7010	1.2217	6.02	0.03	0.750			
0.6685	42784.25	3.6980	3.6981	1.1009	6.02	0.03	0.750			
0.6716	42982.73	3.6950	3.6949	1.0310	6.01	0.02	0.750			
0.6745	43168.05	3.6920	3.6920	0.9546	6.01	0.02	0.750			
0.6772	43340.00	3.6890	3.6890	0.9075	6.01	0.02	0.750			
0.6799	43510.50	3.6860	3.6860	0.8777	6.01	0.02	0.750			
0.6824	43674.07	3.6830	3.6832	0.8425	6.01	0.02	0.750			
0.6849	43834.20	3.6800	3.6799	0.8134	6.01	0.02	0.750			
0.6873	43989.00	3.6770	3.6771	0.7836	6.00	0.01	0.750			
0.6897	44138.58	3.6740	3.6740	0.7408	6.00	0.01	0.750			
0.6919	44278.46	3.6710	3.6710	0.7125	6.00	0.01	0.750			
0.6939	44407.54	3.6680	3.6681	0.6673	5.99	0.00	0.750			
0.6958	44533.12	3.6650	3.6647	0.6310	5.99	0.00	0.750			
0.6977	44650.18	3.6620	3.6621	0.5951	5.99	0.00	0.750			
0.6994	44761.82	3.6590	3.6590	0.5587	5.99	0.00	0.750			
0.7010	44867.15	3.6560	3.6560	0.5237	5.99	0.00	0.750			
0.7026	44963.22	3.6530	3.6530	0.4804	5.99	0.00	0.750			
0.7039	45051.83	3.6500	3.6501	0.4438	5.99	0.00	0.750			
0.7052	45133.05	3.6470	3.6470	0.4073	5.99	0.00	0.750			
0.7064	45208.24	3.6440	3.6440	0.3738	5.99	0.00	0.750			
0.7074	45275.23	3.6410	3.6410	0.3378	5.99	0.00	0.750			
0.7084	45337.26	3.6380	3.6380	0.3068	5.99	0.00	0.750			
0.7093	45393.18	3.6350	3.6350	0.2750	5.99	0.00	0.750			
0.7101	45444.41	3.6320	3.6319	0.2377	5.99	0.00	0.750			
0.7107	45487.37	3.6290	3.6289	0.2031	5.99	0.00	0.750			
0.7113	45523.52	3.6260	3.6260	0.1656	5.99	0.00	0.750			
0.7118	45552.44	3.6230	3.6233	0.1255	5.99	0.00	0.750			
0.7121	45573.08	3.6200	3.6203	0.0824	5.99	0.00	0.750			
0.7123	45586.09	3.6170	3.6173	0.0335	5.99	0.00	0.750			
0.7123	45587.84	3.6140	3.6162	-0.0153	5.99	0.00	0.750			
