Ah_balance (normalized)	Ah_balance (mAh)	Voltage - fit (V)	Voltage -  interpolate (V)	dQ/dV (1/V)	Temperature (°C)	Temperature - diff (°C)	Current (C)	R_DC 0ms (mOhm)	R_DC 50ms (mOhm)	R_DC 50 ms PEC (mOhm)
0.0957	6127.93	4.0040	4.0036	-0.0483	5.99	0.00	-0.750			
0.0959	6140.47	4.0010	4.0008	-0.0809	5.99	0.00	-0.750			
0.0962	6159.88	3.9980	3.9978	-0.1119	5.99	0.00	-0.750			
0.0966	6184.43	3.9950	3.9949	-0.1394	5.99	0.00	-0.750			
0.0971	6213.77	3.9920	3.9920	-0.1664	5.99	0.00	-0.750			
0.0976	6248.47	3.9890	3.9891	-0.1920	5.99	-0.00	-0.750			
0.0983	6289.18	3.9860	3.9859	-0.2157	5.99	-0.00	-0.750			
0.0990	6332.92	3.9830	3.9830	-0.2383	5.99	-0.00	-0.750			
0.0997	6380.32	3.9800	3.9801	-0.2627	5.98	-0.01	-0.750			
0.1005	6432.98	3.9770	3.9769	-0.2848	5.98	-0.01	-0.750			
0.1014	6489.81	3.9740	3.9740	-0.3086	5.98	-0.01	-0.750			
0.1024	6550.65	3.9710	3.9711	-0.3352	5.98	-0.01	-0.750			
0.1034	6617.98	3.9680	3.9680	-0.3586	5.98	-0.01	-0.750			
0.1045	6689.27	3.9650	3.9650	-0.3841	5.97	-0.02	-0.750			
0.1057	6765.32	3.9620	3.9620	-0.4085	5.97	-0.02	-0.750			
0.1070	6845.99	3.9590	3.9590	-0.4325	5.97	-0.02	-0.750			
0.1083	6932.27	3.9560	3.9559	-0.4557	5.96	-0.03	-0.750			
0.1097	7021.58	3.9530	3.9531	-0.4774	5.96	-0.03	-0.750			
0.1112	7115.42	3.9500	3.9500	-0.4962	5.96	-0.03	-0.750			
0.1127	7213.81	3.9470	3.9469	-0.5162	5.96	-0.03	-0.750			
0.1143	7314.27	3.9440	3.9440	-0.5334	5.96	-0.03	-0.750			
0.1159	7418.21	3.9410	3.9410	-0.5531	5.96	-0.03	-0.750			
0.1176	7526.40	3.9380	3.9380	-0.5702	5.95	-0.04	-0.750			
0.1193	7638.23	3.9350	3.9349	-0.5856	5.95	-0.04	-0.750			
0.1211	7753.09	3.9320	3.9320	-0.5967	5.95	-0.04	-0.750			
0.1230	7869.16	3.9290	3.9291	-0.6103	5.95	-0.04	-0.750			
0.1248	7987.34	3.9260	3.9261	-0.6257	5.95	-0.04	-0.750			
0.1267	8108.96	3.9230	3.9229	-0.6349	5.95	-0.04	-0.750			
0.1286	8231.35	3.9200	3.9199	-0.6488	5.95	-0.04	-0.750			
0.1306	8359.29	3.9170	3.9170	-0.6580	5.95	-0.04	-0.750			
0.1326	8487.35	3.9140	3.9140	-0.6712	5.95	-0.04	-0.750			
0.1346	8616.73	3.9110	3.9113	-0.6814	5.95	-0.04	-0.750			
0.1367	8747.40	3.9080	3.9079	-0.6857	5.95	-0.04	-0.750			
0.1387	8879.88	3.9050	3.9049	-0.6921	5.96	-0.03	-0.750			
0.1409	9014.90	3.9020	3.9021	-0.6979	5.96	-0.03	-0.750			
0.1430	9151.61	3.8990	3.8990	-0.7042	5.96	-0.03	-0.750			
0.1451	9286.27	3.8960	3.8960	-0.7058	5.97	-0.02	-0.750			
0.1472	9420.00	3.8930	3.8930	-0.7054	5.97	-0.02	-0.750			
0.1493	9555.69	3.8900	3.8899	-0.7098	5.98	-0.01	-0.750			
0.1514	9692.06	3.8870	3.8871	-0.7169	5.98	-0.01	-0.750			
0.1536	9830.94	3.8840	3.8840	-0.7247	5.99	0.00	-0.750			
0.1558	9971.82	3.8810	3.8810	-0.7273	6.00	0.01	-0.750			
0.1580	10113.28	3.8780	3.8780	-0.7288	6.00	0.01	-0.750			
0.1602	10252.93	3.8750	3.8751	-0.7241	6.01	0.02	-0.750			
0.1624	10391.50	3.8720	3.8719	-0.7250	6.02	0.03	-0.750			
0.1645	10529.25	3.8690	3.8691	-0.7325	6.03	0.04	-0.750			
0.1667	10669.29	3.8660	3.8658	-0.7287	6.03	0.04	-0.750			
0.1689	10811.21	3.8630	3.8630	-0.7353	6.04	0.05	-0.750			
0.1711	10952.37	3.8600	3.8600	-0.7381	6.05	0.06	-0.750			
0.1734	11094.75	3.8570	3.8568	-0.7446	6.06	0.07	-0.750			
0.1756	11238.52	3.8540	3.8539	-0.7451	6.07	0.08	-0.750			
0.1778	11379.81	3.8510	3.8510	-0.7469	6.08	0.09	-0.750			
0.1801	11525.06	3.8480	3.8480	-0.7457	6.09	0.10	-0.750			
0.1824	11671.02	3.8450	3.8449	-0.7492	6.10	0.11	-0.750			
0.1846	11813.81	3.8420	3.8423	-0.7476	6.11	0.12	-0.750			
0.1868	11956.48	3.8390	3.8390	-0.7459	6.12	0.13	-0.750			
0.1890	12097.39	3.8360	3.8359	-0.7481	6.12	0.13	-0.750			
0.1913	12241.99	3.8330	3.8330	-0.7520	6.13	0.14	-0.750			
0.1936	12388.06	3.8300	3.8299	-0.7549	6.14	0.15	-0.750			
0.1958	12533.91	3.8270	3.8269	-0.7510	6.15	0.16	-0.750			
0.1981	12678.47	3.8240	3.8241	-0.7483	6.15	0.16	-0.750			
0.2003	12819.99	3.8210	3.8211	-0.7476	6.16	0.17	-0.750			
0.2025	12962.79	3.8180	3.8180	-0.7486	6.18	0.19	-0.750			
0.2048	13105.74	3.8150	3.8149	-0.7460	6.19	0.20	-0.750			
0.2070	13250.70	3.8120	3.8120	-0.7526	6.20	0.21	-0.750			
0.2093	13396.80	3.8090	3.8091	-0.7579	6.21	0.22	-0.750			
0.2116	13542.24	3.8060	3.8058	-0.7567	6.22	0.23	-0.750			
0.2138	13683.49	3.8030	3.8030	-0.7701	6.23	0.24	-0.750			
0.2162	13833.89	3.8000	3.8000	-0.7613	6.24	0.25	-0.750			
0.2184	13980.33	3.7970	3.7969	-0.7594	6.25	0.26	-0.750			
0.2208	14129.26	3.7940	3.7938	-0.7645	6.26	0.27	-0.750			
0.2231	14275.23	3.7910	3.7909	-0.7618	6.27	0.28	-0.750			
0.2253	14420.81	3.7880	3.7879	-0.7623	6.28	0.29	-0.750			
0.2276	14566.36	3.7850	3.7850	-0.7669	6.30	0.31	-0.750			
0.2299	14713.64	3.7820	3.7820	-0.7757	6.31	0.32	-0.750			
0.2322	14862.19	3.7790	3.7790	-0.7773	6.32	0.33	-0.750			
0.2346	15011.62	3.7760	3.7761	-0.7794	6.33	0.34	-0.750			
0.2369	15161.06	3.7730	3.7729	-0.7791	6.34	0.35	-0.750			
0.2392	15310.26	3.7700	3.7699	-0.7838	6.35	0.36	-0.750			
0.2416	15461.19	3.7670	3.7671	-0.7838	6.36	0.37	-0.750			
0.2439	15611.65	3.7640	3.7640	-0.7818	6.37	0.38	-0.750			
0.2463	15763.63	3.7610	3.7610	-0.7835	6.39	0.40	-0.750			
0.2486	15913.36	3.7580	3.7580	-0.7816	6.40	0.41	-0.750			
0.2510	16060.85	3.7550	3.7550	-0.7890	6.40	0.41	-0.750			
0.2533	16214.02	3.7520	3.7518	-0.7916	6.41	0.42	-0.750			
0.2557	16365.72	3.7490	3.7490	-0.7941	6.42	0.43	-0.750			
0.2581	16521.45	3.7460	3.7460	-0.7975	6.43	0.44	-0.750			
0.2606	16675.20	3.7430	3.7431	-0.7989	6.44	0.45	-0.750			
0.2629	16827.96	3.7400	3.7399	-0.8010	6.45	0.46	-0.750			
0.2653	16979.71	3.7370	3.7370	-0.8093	6.46	0.47	-0.750			
0.2677	17134.97	3.7340	3.7339	-0.8095	6.47	0.48	-0.750			
0.2702	17292.90	3.7310	3.7310	-0.8189	6.48	0.49	-0.750			
0.2727	17452.05	3.7280	3.7282	-0.8271	6.49	0.50	-0.750			
0.2752	17612.85	3.7250	3.7250	-0.8278	6.50	0.51	-0.750			
0.2777	17770.98	3.7220	3.7219	-0.8350	6.52	0.53	-0.750			
0.2802	17930.76	3.7190	3.7190	-0.8368	6.53	0.54	-0.750			
0.2827	18092.64	3.7160	3.7159	-0.8490	6.54	0.55	-0.750			
0.2853	18256.47	3.7130	3.7132	-0.8537	6.55	0.56	-0.750			
0.2878	18421.26	3.7100	3.7099	-0.8583	6.56	0.57	-0.750			
0.2904	18586.88	3.7070	3.7070	-0.8656	6.56	0.57	-0.750			
0.2930	18752.86	3.7040	3.7040	-0.8655	6.57	0.58	-0.750			
0.2957	18922.31	3.7010	3.7009	-0.8837	6.58	0.59	-0.750			
0.2983	19092.15	3.6980	3.6980	-0.8870	6.58	0.59	-0.750			
0.3010	19261.69	3.6950	3.6949	-0.8935	6.59	0.60	-0.750			
0.3037	19434.90	3.6920	3.6920	-0.9019	6.61	0.62	-0.750			
0.3064	19607.31	3.6890	3.6891	-0.9078	6.62	0.63	-0.750			
0.3091	19784.51	3.6860	3.6859	-0.9207	6.63	0.64	-0.750			
0.3119	19961.70	3.6830	3.6829	-0.9284	6.63	0.64	-0.750			
0.3147	20139.00	3.6800	3.6799	-0.9388	6.64	0.65	-0.750			
0.3175	20319.07	3.6770	3.6771	-0.9538	6.64	0.65	-0.750			
0.3204	20503.46	3.6740	3.6740	-0.9660	6.65	0.66	-0.750			
0.3233	20691.02	3.6710	3.6710	-0.9863	6.65	0.66	-0.750			
0.3263	20882.39	3.6680	3.6680	-0.9999	6.66	0.67	-0.750			
0.3293	21077.87	3.6650	3.6650	-1.0044	6.67	0.68	-0.750			
0.3324	21272.41	3.6620	3.6620	-1.0086	6.68	0.69	-0.750			
0.3354	21464.46	3.6590	3.6593	-1.0189	6.69	0.70	-0.750			
0.3384	21659.73	3.6560	3.6559	-1.0230	6.70	0.71	-0.750			
0.3415	21858.21	3.6530	3.6529	-1.0271	6.70	0.71	-0.750			
0.3446	22052.96	3.6500	3.6500	-1.0338	6.71	0.72	-0.750			
0.3477	22254.02	3.6470	3.6472	-1.0479	6.71	0.72	-0.750			
0.3509	22458.14	3.6440	3.6439	-1.0532	6.72	0.73	-0.750			
0.3541	22659.27	3.6410	3.6410	-1.0567	6.72	0.73	-0.750			
0.3572	22861.71	3.6380	3.6380	-1.0613	6.73	0.74	-0.750			
0.3604	23063.77	3.6350	3.6352	-1.0888	6.73	0.74	-0.750			
0.3637	23276.02	3.6320	3.6319	-1.0964	6.74	0.75	-0.750			
0.3670	23487.77	3.6290	3.6289	-1.0989	6.74	0.75	-0.750			
0.3703	23701.17	3.6260	3.6260	-1.1129	6.75	0.76	-0.750			
0.3737	23917.38	3.6230	3.6228	-1.1351	6.75	0.76	-0.750			
0.3771	24136.77	3.6200	3.6199	-1.1401	6.76	0.77	-0.750			
0.3805	24354.86	3.6170	3.6170	-1.1463	6.76	0.77	-0.750			
0.3839	24572.62	3.6140	3.6142	-1.1516	6.77	0.78	-0.750			
0.3875	24802.73	3.6110	3.6109	-1.1727	6.77	0.78	-0.750			
0.3911	25028.99	3.6080	3.6079	-1.1776	6.77	0.78	-0.750			
0.3946	25252.26	3.6050	3.6050	-1.1800	6.77	0.78	-0.750			
0.3981	25475.55	3.6020	3.6022	-1.2014	6.77	0.78	-0.750			
0.4017	25709.95	3.5990	3.5988	-1.2295	6.78	0.79	-0.750			
0.4055	25950.06	3.5960	3.5959	-1.2275	6.78	0.79	-0.750			
0.4092	26185.92	3.5930	3.5929	-1.2352	6.79	0.80	-0.750			
0.4129	26428.46	3.5900	3.5892	-1.2477	6.79	0.80	-0.750	0.478	1.072	
0.4167	26668.09	3.5870	3.5868	-1.2527	6.79	0.80	-0.750			
0.4203	26900.81	3.5840	3.5840	-1.2664	6.79	0.80	-0.750			
0.4241	27145.25	3.5810	3.5809	-1.2655	6.79	0.80	-0.750			
0.4280	27392.51	3.5780	3.5780	-1.2877	6.79	0.80	-0.750			
0.4319	27643.17	3.5750	3.5750	-1.3177	6.79	0.80	-0.750			
0.4359	27898.14	3.5720	3.5722	-1.3274	6.79	0.80	-0.750			
0.4399	28156.78	3.5690	3.5688	-1.3351	6.79	0.80	-0.750			
0.4439	28411.44	3.5660	3.5659	-1.3370	6.80	0.81	-0.750			
0.4479	28666.64	3.5630	3.5632	-1.3511	6.80	0.81	-0.750			
0.4521	28933.09	3.5600	3.5600	-1.3732	6.80	0.81	-0.750			
0.4562	29197.48	3.5570	3.5568	-1.3743	6.81	0.82	-0.750			
0.4603	29459.93	3.5540	3.5542	-1.3901	6.81	0.82	-0.750			
0.4645	29725.61	3.5510	3.5510	-1.4237	6.81	0.82	-0.750			
0.4688	30001.70	3.5480	3.5479	-1.4422	6.81	0.82	-0.750			
0.4732	30284.12	3.5450	3.5450	-1.4452	6.81	0.82	-0.750			
0.4776	30563.59	3.5420	3.5419	-1.4752	6.81	0.82	-0.750			
0.4820	30848.20	3.5390	3.5392	-1.4867	6.81	0.82	-0.750			
0.4865	31137.61	3.5360	3.5359	-1.4903	6.81	0.82	-0.750			
0.4910	31421.65	3.5330	3.5328	-1.5003	6.82	0.83	-0.750			
0.4955	31709.56	3.5300	3.5299	-1.5115	6.83	0.84	-0.750			
0.5001	32004.97	3.5270	3.5269	-1.5255	6.83	0.84	-0.750			
0.5047	32298.00	3.5240	3.5240	-1.5468	6.83	0.84	-0.750			
0.5093	32594.68	3.5210	3.5211	-1.5380	6.83	0.84	-0.750			
0.5139	32890.43	3.5180	3.5180	-1.5494	6.83	0.84	-0.750			
0.5186	33191.88	3.5150	3.5149	-1.5600	6.83	0.84	-0.750			
0.5233	33491.67	3.5120	3.5119	-1.5453	6.83	0.84	-0.750			
0.5280	33790.00	3.5090	3.5087	-1.5626	6.84	0.85	-0.750			
0.5326	34088.62	3.5060	3.5061	-1.5600	6.85	0.86	-0.750			
0.5373	34384.69	3.5030	3.5029	-1.5701	6.85	0.86	-0.750			
0.5421	34692.16	3.5000	3.5001	-1.5861	6.85	0.86	-0.750			
0.5468	34993.48	3.4970	3.4970	-1.5623	6.85	0.86	-0.750			
0.5515	35294.93	3.4940	3.4941	-1.5904	6.86	0.87	-0.750			
0.5563	35605.14	3.4910	3.4909	-1.6016	6.86	0.87	-0.750			
0.5611	35908.78	3.4880	3.4878	-1.5976	6.87	0.88	-0.750			
0.5660	36223.19	3.4850	3.4852	-1.5873	6.88	0.89	-0.750			
0.5708	36533.75	3.4820	3.4820	-1.5928	6.89	0.90	-0.750			
0.5755	36834.16	3.4790	3.4790	-1.5598	6.90	0.91	-0.750			
0.5802	37133.43	3.4760	3.4760	-1.5562	6.91	0.92	-0.750			
0.5848	37426.44	3.4730	3.4732	-1.5294	6.92	0.93	-0.750			
0.5894	37719.97	3.4700	3.4699	-1.5098	6.93	0.94	-0.750			
0.5939	38007.11	3.4670	3.4670	-1.4967	6.94	0.95	-0.750			
0.5984	38295.92	3.4640	3.4640	-1.4956	6.95	0.96	-0.750			
0.6029	38582.45	3.4610	3.4608	-1.4820	6.96	0.97	-0.750			
0.6072	38863.85	3.4580	3.4580	-1.4756	6.97	0.98	-0.750			
0.6116	39145.35	3.4550	3.4550	-1.4517	6.98	0.99	-0.750			
0.6161	39429.59	3.4520	3.4519	-1.4425	6.99	1.00	-0.750			
0.6204	39702.80	3.4490	3.4489	-1.4239	7.00	1.01	-0.750			
0.6245	39970.83	3.4460	3.4459	-1.3937	7.01	1.02	-0.750			
0.6287	40239.44	3.4430	3.4429	-1.3790	7.02	1.03	-0.750			
0.6328	40500.34	3.4400	3.4399	-1.3628	7.03	1.04	-0.750			
0.6369	40759.26	3.4370	3.4370	-1.3373	7.04	1.05	-0.750			
0.6409	41018.88	3.4340	3.4339	-1.3247	7.05	1.06	-0.750			
0.6449	41270.70	3.4310	3.4310	-1.3032	7.06	1.07	-0.750			
0.6487	41517.66	3.4280	3.4280	-1.2669	7.07	1.08	-0.750			
0.6525	41761.04	3.4250	3.4250	-1.2480	7.09	1.10	-0.750			
0.6562	41997.89	3.4220	3.4220	-1.2174	7.10	1.11	-0.750			
0.6598	42225.82	3.4190	3.4192	-1.1955	7.11	1.12	-0.750			
0.6634	42455.40	3.4160	3.4159	-1.1702	7.13	1.14	-0.750			
0.6668	42676.85	3.4130	3.4131	-1.1427	7.14	1.15	-0.750			
0.6702	42893.97	3.4100	3.4100	-1.1178	7.16	1.17	-0.750			
0.6736	43109.02	3.4070	3.4070	-1.0999	7.17	1.18	-0.750			
0.6768	43316.33	3.4040	3.4039	-1.0658	7.18	1.19	-0.750			
0.6800	43517.68	3.4010	3.4010	-1.0375	7.19	1.20	-0.750			
0.6830	43712.29	3.3980	3.3980	-1.0065	7.20	1.21	-0.750			
0.6860	43905.52	3.3950	3.3950	-0.9865	7.22	1.23	-0.750			
0.6889	44091.06	3.3920	3.3920	-0.9627	7.23	1.24	-0.750			
0.6918	44273.83	3.3890	3.3890	-0.9367	7.24	1.25	-0.750			
0.6946	44451.95	3.3860	3.3859	-0.9126	7.26	1.27	-0.750			
0.6973	44625.41	3.3830	3.3832	-0.8918	7.27	1.28	-0.750			
0.6999	44794.04	3.3800	3.3800	-0.8659	7.29	1.30	-0.750			
0.7025	44957.86	3.3770	3.3769	-0.8441	7.30	1.31	-0.750			
0.7050	45117.05	3.3740	3.3740	-0.8201	7.32	1.33	-0.750			
0.7074	45273.16	3.3710	3.3710	-0.8006	7.34	1.35	-0.750			
0.7098	45424.53	3.3680	3.3682	-0.7788	7.35	1.36	-0.750			
0.7121	45571.94	3.3650	3.3650	-0.7563	7.36	1.37	-0.750			
0.7143	45713.44	3.3620	3.3620	-0.7378	7.37	1.38	-0.750			
0.7165	45853.51	3.3590	3.3590	-0.7176	7.38	1.39	-0.750			
0.7186	45989.70	3.3560	3.3560	-0.7026	7.39	1.40	-0.750			
0.7207	46122.42	3.3530	3.3530	-0.6858	7.40	1.41	-0.750			
0.7227	46252.90	3.3500	3.3500	-0.6677	7.41	1.42	-0.750			
0.7247	46379.08	3.3470	3.3470	-0.6454	7.42	1.43	-0.750			
