Ah_balance (normalized)	Ah_balance (mAh)	Voltage - fit (V)	Voltage -  interpolate (V)	dQ/dV (1/V)	Temperature (°C)	Temperature - diff (°C)	Current (C)	R_DC 0ms (mOhm)	R_DC 50ms (mOhm)	R_DC 50 ms PEC (mOhm)
0.1778	11377.93	4.0820	4.0821	0.7989	7.59	1.62	0.750			
0.1802	11529.65	4.0790	4.0789	0.7876	7.58	1.61	0.750			
0.1825	11680.57	4.0760	4.0761	0.7843	7.57	1.60	0.750			
0.1849	11831.06	4.0730	4.0729	0.7806	7.56	1.59	0.750			
0.1872	11980.08	4.0700	4.0700	0.7800	7.55	1.58	0.750			
0.1895	12129.52	4.0670	4.0669	0.7789	7.54	1.57	0.750			
0.1918	12277.67	4.0640	4.0640	0.7838	7.53	1.56	0.750			
0.1942	12430.60	4.0610	4.0610	0.7792	7.52	1.55	0.750			
0.1965	12578.41	4.0580	4.0580	0.7878	7.51	1.54	0.750			
0.1989	12730.06	4.0550	4.0551	0.7966	7.50	1.53	0.750			
0.2013	12883.12	4.0520	4.0519	0.8045	7.49	1.52	0.750			
0.2037	13038.66	4.0490	4.0491	0.8069	7.48	1.51	0.750			
0.2062	13195.18	4.0460	4.0460	0.8107	7.48	1.51	0.750			
0.2086	13351.08	4.0430	4.0431	0.8108	7.47	1.50	0.750			
0.2111	13509.23	4.0400	4.0400	0.8146	7.46	1.49	0.750			
0.2135	13662.40	4.0370	4.0370	0.8089	7.45	1.48	0.750			
0.2159	13817.34	4.0340	4.0340	0.8125	7.45	1.48	0.750			
0.2183	13974.25	4.0310	4.0310	0.8094	7.44	1.47	0.750			
0.2208	14129.93	4.0280	4.0280	0.8147	7.43	1.46	0.750			
0.2232	14285.07	4.0250	4.0250	0.8217	7.42	1.45	0.750			
0.2257	14442.53	4.0220	4.0222	0.8260	7.41	1.44	0.750			
0.2282	14602.75	4.0190	4.0190	0.8323	7.41	1.44	0.750			
0.2307	14764.27	4.0160	4.0159	0.8326	7.40	1.43	0.750			
0.2332	14924.57	4.0130	4.0132	0.8392	7.39	1.42	0.750			
0.2357	15087.48	4.0100	4.0100	0.8475	7.38	1.41	0.750			
0.2383	15248.73	4.0070	4.0069	0.8465	7.37	1.40	0.750			
0.2408	15411.35	4.0040	4.0040	0.8476	7.37	1.40	0.750			
0.2434	15574.99	4.0010	4.0011	0.8484	7.36	1.39	0.750			
0.2459	15738.02	3.9980	3.9980	0.8534	7.35	1.38	0.750			
0.2485	15902.97	3.9950	3.9950	0.8577	7.34	1.37	0.750			
0.2510	16065.67	3.9920	3.9919	0.8565	7.33	1.36	0.750			
0.2536	16229.70	3.9890	3.9891	0.8634	7.32	1.35	0.750			
0.2562	16397.54	3.9860	3.9860	0.8652	7.31	1.34	0.750			
0.2588	16565.00	3.9830	3.9830	0.8664	7.30	1.33	0.750			
0.2614	16731.21	3.9800	3.9800	0.8720	7.28	1.31	0.750			
0.2640	16897.25	3.9770	3.9769	0.8723	7.27	1.30	0.750			
0.2667	17065.70	3.9740	3.9740	0.8759	7.26	1.29	0.750			
0.2693	17233.51	3.9710	3.9710	0.8842	7.25	1.28	0.750			
0.2719	17403.75	3.9680	3.9681	0.8887	7.25	1.28	0.750			
0.2746	17576.65	3.9650	3.9650	0.8974	7.24	1.27	0.750			
0.2773	17748.85	3.9620	3.9619	0.9042	7.23	1.26	0.750			
0.2800	17922.97	3.9590	3.9590	0.9043	7.22	1.25	0.750			
0.2828	18097.30	3.9560	3.9560	0.9114	7.21	1.24	0.750			
0.2855	18272.79	3.9530	3.9530	0.9154	7.20	1.23	0.750			
0.2882	18447.42	3.9500	3.9500	0.9196	7.18	1.21	0.750			
0.2910	18626.92	3.9470	3.9470	0.9230	7.17	1.20	0.750			
0.2938	18803.45	3.9440	3.9440	0.9296	7.16	1.19	0.750			
0.2966	18981.78	3.9410	3.9410	0.9364	7.15	1.18	0.750			
0.2994	19162.36	3.9380	3.9381	0.9457	7.14	1.17	0.750			
0.3022	19343.14	3.9350	3.9348	0.9535	7.13	1.16	0.750			
0.3051	19528.65	3.9320	3.9320	0.9556	7.12	1.15	0.750			
0.3080	19711.91	3.9290	3.9290	0.9640	7.11	1.14	0.750			
0.3109	19899.03	3.9260	3.9261	0.9736	7.10	1.13	0.750			
0.3138	20085.61	3.9230	3.9228	0.9760	7.09	1.12	0.750			
0.3168	20273.83	3.9200	3.9200	0.9827	7.08	1.11	0.750			
0.3197	20463.42	3.9170	3.9171	0.9911	7.06	1.09	0.750			
0.3227	20653.80	3.9140	3.9140	0.9989	7.05	1.08	0.750			
0.3258	20850.86	3.9110	3.9109	1.0017	7.04	1.07	0.750			
0.3288	21042.60	3.9080	3.9080	0.9851	7.02	1.05	0.750			
0.3317	21228.86	3.9050	3.9052	0.9917	7.01	1.04	0.750			
0.3346	21417.01	3.9020	3.9021	0.9990	7.01	1.04	0.750			
0.3376	21604.74	3.8990	3.8988	1.0127	7.00	1.03	0.750			
0.3406	21801.56	3.8960	3.8960	1.0178	6.99	1.02	0.750			
0.3437	21998.06	3.8930	3.8931	1.0390	6.98	1.01	0.750			
0.3469	22203.14	3.8900	3.8901	1.0719	6.97	1.00	0.750			
0.3502	22411.08	3.8870	3.8871	1.0900	6.96	0.99	0.750			
0.3534	22619.16	3.8840	3.8840	1.0998	6.95	0.98	0.750			
0.3568	22832.09	3.8810	3.8810	1.1144	6.93	0.96	0.750			
0.3601	23049.03	3.8780	3.8781	1.1328	6.92	0.95	0.750			
0.3636	23271.26	3.8750	3.8751	1.1475	6.91	0.94	0.750			
0.3671	23492.65	3.8720	3.8720	1.1595	6.90	0.93	0.750			
0.3705	23714.81	3.8690	3.8690	1.1700	6.89	0.92	0.750			
0.3741	23940.26	3.8660	3.8661	1.1812	6.88	0.91	0.750			
0.3776	24168.32	3.8630	3.8630	1.1976	6.87	0.90	0.750			
0.3812	24398.12	3.8600	3.8601	1.2108	6.86	0.89	0.750			
0.3849	24630.78	3.8570	3.8570	1.2302	6.84	0.87	0.750			
0.3886	24870.97	3.8540	3.8537	1.2401	6.83	0.86	0.750			
0.3924	25113.76	3.8510	3.8511	1.2474	6.82	0.85	0.750			
0.3962	25354.28	3.8480	3.8481	1.2658	6.80	0.83	0.750			
0.3999	25596.16	3.8450	3.8452	1.3122	6.79	0.82	0.750			
0.4038	25846.32	3.8420	3.8421	1.3596	6.77	0.80	0.750			
0.4080	26110.51	3.8390	3.8391	1.3948	6.76	0.79	0.750	0.397	0.918	
0.4123	26388.28	3.8360	3.8362	1.4194	6.74	0.77	0.750			
0.4167	26670.31	3.8330	3.8331	1.4655	6.72	0.75	0.750			
0.4212	26954.73	3.8300	3.8301	1.4996	6.71	0.74	0.750			
0.4256	27237.62	3.8270	3.8269	1.5037	6.69	0.72	0.750			
0.4301	27528.44	3.8240	3.8241	1.4848	6.68	0.71	0.750			
0.4346	27811.45	3.8210	3.8211	1.5147	6.67	0.70	0.750			
0.4391	28105.34	3.8180	3.8182	1.5501	6.65	0.68	0.750			
0.4438	28402.54	3.8150	3.8152	1.5689	6.64	0.67	0.750			
0.4485	28703.13	3.8120	3.8122	1.6104	6.62	0.65	0.750			
0.4534	29015.48	3.8090	3.8088	1.6491	6.60	0.63	0.750			
0.4585	29344.76	3.8060	3.8060	1.6843	6.58	0.61	0.750			
0.4636	29670.31	3.8030	3.8028	1.7063	6.55	0.58	0.750			
0.4689	30009.43	3.8000	3.8000	1.7381	6.54	0.57	0.750			
0.4741	30343.40	3.7970	3.7969	1.7528	6.52	0.55	0.750			
0.4793	30678.02	3.7940	3.7940	1.7717	6.50	0.53	0.750			
0.4847	31020.28	3.7910	3.7910	1.8120	6.49	0.52	0.750			
0.4902	31369.83	3.7880	3.7877	1.8419	6.47	0.50	0.750			
0.4956	31717.41	3.7850	3.7850	1.8565	6.45	0.48	0.750			
0.5013	32082.97	3.7820	3.7818	1.8912	6.43	0.46	0.750			
0.5071	32451.80	3.7790	3.7790	1.9023	6.41	0.44	0.750			
0.5129	32826.80	3.7760	3.7760	1.9188	6.38	0.41	0.750			
0.5188	33203.67	3.7730	3.7730	1.9532	6.36	0.39	0.750			
0.5247	33580.32	3.7700	3.7702	1.9713	6.34	0.37	0.750			
0.5306	33959.53	3.7670	3.7674	1.9822	6.32	0.35	0.750			
0.5366	34342.87	3.7640	3.7643	2.0101	6.29	0.32	0.750			
0.5426	34723.50	3.7610	3.7611	2.0050	6.27	0.30	0.750			
0.5487	35116.37	3.7580	3.7579	2.0714	6.24	0.27	0.750			
0.5550	35519.52	3.7550	3.7551	2.0921	6.22	0.25	0.750			
0.5613	35922.22	3.7520	3.7520	2.1082	6.20	0.23	0.750			
0.5676	36328.55	3.7490	3.7489	2.1222	6.18	0.21	0.750			
0.5741	36741.65	3.7460	3.7461	2.1682	6.16	0.19	0.750			
0.5806	37160.26	3.7430	3.7431	2.2322	6.14	0.17	0.750			
0.5874	37593.41	3.7400	3.7400	2.3582	6.12	0.15	0.750			
0.5946	38056.30	3.7370	3.7371	2.4623	6.09	0.12	0.750			
0.6023	38547.18	3.7340	3.7342	2.5228	6.07	0.10	0.750			
0.6100	39041.64	3.7310	3.7310	2.5634	6.04	0.07	0.750			
0.6174	39514.81	3.7280	3.7282	2.4577	6.03	0.06	0.750			
0.6248	39984.71	3.7250	3.7250	2.4870	6.01	0.04	0.750			
0.6322	40461.68	3.7220	3.7219	2.4647	5.99	0.02	0.750			
0.6399	40955.82	3.7190	3.7191	2.3922	5.97	-0.00	0.750			
0.6470	41408.73	3.7160	3.7161	2.2360	5.96	-0.01	0.750			
0.6533	41808.57	3.7130	3.7130	2.0127	5.95	-0.02	0.750			
0.6590	42176.30	3.7100	3.7100	1.7955	5.95	-0.02	0.750			
0.6641	42501.21	3.7070	3.7069	1.5927	5.95	-0.02	0.750			
0.6684	42776.70	3.7040	3.7046	1.4313	5.94	-0.03	0.750			
0.6724	43033.33	3.7010	3.7008	1.2982	5.94	-0.03	0.750			
0.6759	43260.36	3.6980	3.6978	1.1665	5.93	-0.04	0.750			
0.6792	43469.85	3.6950	3.6951	1.0694	5.93	-0.04	0.750			
0.6822	43663.09	3.6920	3.6923	1.0032	5.94	-0.03	0.750			
0.6851	43845.64	3.6890	3.6889	0.9576	5.94	-0.03	0.750			
0.6878	44020.54	3.6860	3.6859	0.9128	5.95	-0.02	0.750			
0.6903	44181.07	3.6830	3.6831	0.8618	5.95	-0.02	0.750			
0.6930	44349.75	3.6800	3.6801	0.8512	5.95	-0.02	0.750			
0.6955	44514.62	3.6770	3.6771	0.8327	5.95	-0.02	0.750			
0.6980	44673.17	3.6740	3.6739	0.8014	5.94	-0.03	0.750			
0.7004	44824.88	3.6710	3.6710	0.7669	5.94	-0.03	0.750			
0.7026	44968.34	3.6680	3.6680	0.7347	5.94	-0.03	0.750			
0.7048	45106.89	3.6650	3.6650	0.7036	5.95	-0.02	0.750			
0.7069	45239.70	3.6620	3.6619	0.6677	5.95	-0.02	0.750			
0.7088	45364.32	3.6590	3.6590	0.6257	5.96	-0.01	0.750			
0.7106	45481.18	3.6560	3.6560	0.5901	5.96	-0.01	0.750			
0.7124	45591.04	3.6530	3.6531	0.5532	5.96	-0.01	0.750			
0.7139	45692.48	3.6500	3.6498	0.5173	5.97	-0.00	0.750			
0.7154	45787.06	3.6470	3.6470	0.4816	5.97	0.00	0.750			
0.7168	45875.69	3.6440	3.6440	0.4494	5.98	0.01	0.750			
0.7181	45960.14	3.6410	3.6410	0.4179	5.98	0.01	0.750			
0.7194	46038.83	3.6380	3.6379	0.3877	5.98	0.01	0.750			
0.7205	46109.39	3.6350	3.6349	0.3504	5.98	0.01	0.750			
0.7215	46173.57	3.6320	3.6325	0.3163	5.99	0.02	0.750			
0.7224	46232.08	3.6290	3.6288	0.2782	5.99	0.02	0.750			
0.7232	46282.34	3.6260	3.6259	0.2413	5.99	0.02	0.750			
0.7238	46324.97	3.6230	3.6229	0.2016	5.99	0.02	0.750			
0.7244	46359.27	3.6200	3.6204	0.1609	5.99	0.02	0.750			
0.7248	46388.82	3.6170	3.6172	0.1203	5.99	0.02	0.750			
0.7251	46407.75	3.6140	3.6147	0.0757	6.00	0.03	0.750			
0.7253	46418.48	3.6110	3.6125	0.0189	6.00	0.03	0.750			
