Ah_balance (normalized)	Ah_balance (mAh)	Voltage - fit (V)	Voltage -  interpolate (V)	dQ/dV (1/V)	Temperature (°C)	Temperature - diff (°C)	Current (C)	R_DC 0ms (mOhm)	R_DC 50ms (mOhm)	R_DC 50 ms PEC (mOhm)
0.0948	6069.17	4.0100	4.0089	-0.0475	5.99	0.00	-0.750			
0.0950	6081.17	4.0070	4.0062	-0.0777	5.99	0.00	-0.750			
0.0953	6099.70	4.0040	4.0038	-0.1081	5.99	0.00	-0.750			
0.0957	6123.20	4.0010	4.0010	-0.1366	5.99	-0.00	-0.750			
0.0961	6152.55	3.9980	3.9979	-0.1621	5.99	-0.00	-0.750			
0.0967	6186.53	3.9950	3.9951	-0.1860	5.99	-0.00	-0.750			
0.0973	6226.12	3.9920	3.9921	-0.2109	5.99	-0.00	-0.750			
0.0979	6268.25	3.9890	3.9890	-0.2343	5.99	-0.00	-0.750			
0.0987	6315.34	3.9860	3.9860	-0.2577	5.98	-0.01	-0.750			
0.0995	6366.94	3.9830	3.9830	-0.2797	5.98	-0.01	-0.750			
0.1004	6422.62	3.9800	3.9800	-0.3038	5.98	-0.01	-0.750			
0.1013	6483.26	3.9770	3.9771	-0.3290	5.98	-0.01	-0.750			
0.1023	6548.77	3.9740	3.9740	-0.3535	5.98	-0.01	-0.750			
0.1034	6619.76	3.9710	3.9709	-0.3780	5.98	-0.01	-0.750			
0.1046	6694.48	3.9680	3.9680	-0.4016	5.98	-0.01	-0.750			
0.1058	6774.18	3.9650	3.9650	-0.4251	5.97	-0.02	-0.750			
0.1072	6858.56	3.9620	3.9620	-0.4468	5.97	-0.02	-0.750			
0.1085	6946.76	3.9590	3.9588	-0.4660	5.97	-0.02	-0.750			
0.1100	7037.95	3.9560	3.9560	-0.4869	5.97	-0.02	-0.750			
0.1115	7133.21	3.9530	3.9530	-0.5064	5.96	-0.03	-0.750			
0.1130	7232.88	3.9500	3.9499	-0.5224	5.96	-0.03	-0.750			
0.1146	7335.77	3.9470	3.9470	-0.5450	5.96	-0.03	-0.750			
0.1163	7441.63	3.9440	3.9440	-0.5622	5.96	-0.03	-0.750			
0.1180	7552.29	3.9410	3.9409	-0.5761	5.95	-0.04	-0.750			
0.1198	7665.27	3.9380	3.9380	-0.5903	5.95	-0.04	-0.750			
0.1215	7778.97	3.9350	3.9350	-0.6040	5.95	-0.04	-0.750			
0.1234	7897.07	3.9320	3.9320	-0.6166	5.95	-0.04	-0.750			
0.1253	8017.01	3.9290	3.9289	-0.6264	5.95	-0.04	-0.750			
0.1271	8136.47	3.9260	3.9260	-0.6424	5.96	-0.03	-0.750			
0.1291	8263.44	3.9230	3.9231	-0.6560	5.96	-0.03	-0.750			
0.1311	8391.52	3.9200	3.9198	-0.6680	5.96	-0.03	-0.750			
0.1332	8521.63	3.9170	3.9172	-0.6761	5.96	-0.03	-0.750			
0.1352	8652.70	3.9140	3.9140	-0.6784	5.96	-0.03	-0.750			
0.1372	8783.14	3.9110	3.9110	-0.6876	5.96	-0.03	-0.750			
0.1393	8914.93	3.9080	3.9080	-0.6900	5.97	-0.02	-0.750			
0.1414	9047.28	3.9050	3.9050	-0.6972	5.97	-0.02	-0.750			
0.1435	9181.73	3.9020	3.9020	-0.7025	5.97	-0.02	-0.750			
0.1456	9318.58	3.8990	3.8991	-0.7048	5.97	-0.02	-0.750			
0.1477	9454.10	3.8960	3.8960	-0.7108	5.97	-0.02	-0.750			
0.1499	9590.67	3.8930	3.8931	-0.7182	5.98	-0.01	-0.750			
0.1520	9728.44	3.8900	3.8900	-0.7185	5.98	-0.01	-0.750			
0.1542	9866.87	3.8870	3.8869	-0.7261	5.98	-0.01	-0.750			
0.1564	10006.80	3.8840	3.8840	-0.7275	5.99	-0.00	-0.750			
0.1586	10147.76	3.8810	3.8811	-0.7320	5.99	0.00	-0.750			
0.1608	10288.92	3.8780	3.8779	-0.7346	5.99	0.00	-0.750			
0.1630	10429.33	3.8750	3.8750	-0.7360	6.00	0.01	-0.750			
0.1652	10570.99	3.8720	3.8720	-0.7375	6.00	0.01	-0.750			
0.1674	10713.76	3.8690	3.8690	-0.7427	6.01	0.02	-0.750			
0.1696	10856.20	3.8660	3.8659	-0.7433	6.01	0.02	-0.750			
0.1719	10999.75	3.8630	3.8629	-0.7481	6.02	0.03	-0.750			
0.1741	11142.92	3.8600	3.8599	-0.7482	6.02	0.03	-0.750			
0.1764	11286.52	3.8570	3.8571	-0.7506	6.03	0.04	-0.750			
0.1786	11430.83	3.8540	3.8540	-0.7502	6.04	0.05	-0.750			
0.1809	11577.13	3.8510	3.8510	-0.7542	6.04	0.05	-0.750			
0.1832	11722.06	3.8480	3.8481	-0.7530	6.05	0.06	-0.750			
0.1854	11866.29	3.8450	3.8450	-0.7519	6.06	0.07	-0.750			
0.1877	12009.91	3.8420	3.8420	-0.7550	6.07	0.08	-0.750			
0.1899	12154.40	3.8390	3.8390	-0.7563	6.07	0.08	-0.750			
0.1922	12301.18	3.8360	3.8359	-0.7572	6.08	0.09	-0.750			
0.1945	12446.65	3.8330	3.8330	-0.7554	6.09	0.10	-0.750			
0.1967	12591.49	3.8300	3.8300	-0.7571	6.09	0.10	-0.750			
0.1990	12736.00	3.8270	3.8270	-0.7583	6.10	0.11	-0.750			
0.2013	12881.40	3.8240	3.8240	-0.7556	6.10	0.11	-0.750			
0.2035	13026.04	3.8210	3.8210	-0.7494	6.10	0.11	-0.750			
0.2058	13170.70	3.8180	3.8179	-0.7520	6.11	0.12	-0.750			
0.2080	13314.33	3.8150	3.8153	-0.7592	6.11	0.12	-0.750			
0.2103	13460.57	3.8120	3.8117	-0.7593	6.12	0.13	-0.750			
0.2126	13605.65	3.8090	3.8090	-0.7613	6.13	0.14	-0.750			
0.2149	13753.63	3.8060	3.8061	-0.7637	6.13	0.14	-0.750			
0.2172	13902.19	3.8030	3.8030	-0.7660	6.14	0.15	-0.750			
0.2195	14049.29	3.8000	3.8000	-0.7656	6.15	0.16	-0.750			
0.2218	14193.92	3.7970	3.7970	-0.7580	6.15	0.16	-0.750			
0.2240	14338.25	3.7940	3.7939	-0.7557	6.16	0.17	-0.750			
0.2263	14484.35	3.7910	3.7910	-0.7584	6.16	0.17	-0.750			
0.2286	14629.03	3.7880	3.7881	-0.7562	6.16	0.17	-0.750			
0.2309	14775.28	3.7850	3.7850	-0.7613	6.17	0.18	-0.750			
0.2331	14921.32	3.7820	3.7820	-0.7613	6.17	0.18	-0.750			
0.2354	15066.32	3.7790	3.7790	-0.7611	6.18	0.19	-0.750			
0.2377	15213.16	3.7760	3.7760	-0.7709	6.19	0.20	-0.750			
0.2400	15361.36	3.7730	3.7730	-0.7758	6.19	0.20	-0.750			
0.2424	15511.94	3.7700	3.7699	-0.7740	6.20	0.21	-0.750			
0.2447	15660.72	3.7670	3.7669	-0.7767	6.21	0.22	-0.750			
0.2470	15810.26	3.7640	3.7640	-0.7790	6.22	0.23	-0.750			
0.2494	15959.62	3.7610	3.7609	-0.7845	6.22	0.23	-0.750			
0.2517	16110.14	3.7580	3.7579	-0.7796	6.23	0.24	-0.750			
0.2541	16260.04	3.7550	3.7550	-0.7743	6.24	0.25	-0.750			
0.2564	16408.90	3.7520	3.7520	-0.7835	6.25	0.26	-0.750			
0.2588	16560.14	3.7490	3.7491	-0.7879	6.25	0.26	-0.750			
0.2611	16708.55	3.7460	3.7459	-0.7902	6.26	0.27	-0.750			
0.2635	16861.13	3.7430	3.7430	-0.7961	6.26	0.27	-0.750			
0.2659	17015.79	3.7400	3.7401	-0.7957	6.27	0.28	-0.750			
0.2683	17170.93	3.7370	3.7370	-0.8028	6.28	0.29	-0.750			
0.2707	17325.29	3.7340	3.7341	-0.8090	6.28	0.29	-0.750			
0.2731	17477.70	3.7310	3.7310	-0.8107	6.29	0.30	-0.750			
0.2755	17633.67	3.7280	3.7279	-0.8211	6.29	0.30	-0.750			
0.2780	17793.90	3.7250	3.7249	-0.8234	6.30	0.31	-0.750			
0.2805	17955.03	3.7220	3.7220	-0.8274	6.30	0.31	-0.750			
0.2830	18113.39	3.7190	3.7192	-0.8342	6.31	0.32	-0.750			
0.2855	18272.99	3.7160	3.7160	-0.8359	6.32	0.33	-0.750			
0.2880	18433.59	3.7130	3.7129	-0.8415	6.33	0.34	-0.750			
0.2905	18593.92	3.7100	3.7100	-0.8432	6.33	0.34	-0.750			
0.2931	18758.31	3.7070	3.7071	-0.8557	6.34	0.35	-0.750			
0.2957	18923.32	3.7040	3.7041	-0.8646	6.35	0.36	-0.750			
0.2983	19090.48	3.7010	3.7010	-0.8716	6.35	0.36	-0.750			
0.3009	19256.65	3.6980	3.6979	-0.8746	6.36	0.37	-0.750			
0.3035	19425.02	3.6950	3.6951	-0.8811	6.36	0.37	-0.750			
0.3062	19596.35	3.6920	3.6920	-0.8925	6.37	0.38	-0.750			
0.3089	19767.13	3.6890	3.6890	-0.8993	6.37	0.38	-0.750			
0.3116	19939.82	3.6860	3.6860	-0.9187	6.38	0.39	-0.750			
0.3144	20119.68	3.6830	3.6829	-0.9240	6.38	0.39	-0.750			
0.3172	20299.23	3.6800	3.6799	-0.9364	6.39	0.40	-0.750			
0.3200	20480.03	3.6770	3.6775	-0.9433	6.39	0.40	-0.750			
0.3228	20661.89	3.6740	3.6739	-0.9557	6.40	0.41	-0.750			
0.3257	20846.29	3.6710	3.6709	-0.9578	6.40	0.41	-0.750			
0.3285	21026.81	3.6680	3.6679	-0.9602	6.41	0.42	-0.750			
0.3315	21215.45	3.6650	3.6651	-0.9801	6.42	0.43	-0.750			
0.3344	21403.58	3.6620	3.6620	-0.9922	6.42	0.43	-0.750			
0.3374	21593.31	3.6590	3.6589	-1.0023	6.43	0.44	-0.750			
0.3404	21788.14	3.6560	3.6560	-1.0143	6.43	0.44	-0.750			
0.3435	21982.64	3.6530	3.6530	-1.0180	6.44	0.45	-0.750			
0.3465	22179.19	3.6500	3.6501	-1.0456	6.44	0.45	-0.750			
0.3497	22382.36	3.6470	3.6470	-1.0503	6.45	0.46	-0.750			
0.3529	22585.63	3.6440	3.6438	-1.0577	6.46	0.47	-0.750			
0.3561	22789.06	3.6410	3.6410	-1.0617	6.47	0.48	-0.750			
0.3593	22994.03	3.6380	3.6379	-1.0790	6.47	0.48	-0.750			
0.3626	23205.03	3.6350	3.6349	-1.0882	6.47	0.48	-0.750			
0.3659	23414.78	3.6320	3.6318	-1.0932	6.48	0.49	-0.750			
0.3691	23620.82	3.6290	3.6291	-1.0923	6.48	0.49	-0.750			
0.3724	23834.44	3.6260	3.6260	-1.1208	6.48	0.49	-0.750			
0.3758	24050.27	3.6230	3.6230	-1.1319	6.49	0.50	-0.750			
0.3792	24268.71	3.6200	3.6198	-1.1423	6.49	0.50	-0.750			
0.3826	24486.16	3.6170	3.6172	-1.1541	6.50	0.51	-0.750			
0.3862	24717.48	3.6140	3.6140	-1.1716	6.50	0.51	-0.750			
0.3897	24941.51	3.6110	3.6109	-1.1766	6.51	0.52	-0.750			
0.3932	25165.28	3.6080	3.6080	-1.1920	6.51	0.52	-0.750			
0.3968	25395.62	3.6050	3.6050	-1.1979	6.51	0.52	-0.750			
0.4004	25627.53	3.6020	3.6018	-1.2138	6.52	0.53	-0.750			
0.4041	25862.45	3.5990	3.5990	-1.2259	6.52	0.53	-0.750			
0.4078	26097.01	3.5960	3.5964	-1.2440	6.53	0.54	-0.750			
0.4116	26340.33	3.5930	3.5932	-1.2647	6.53	0.54	-0.750	0.483	1.085	
0.4154	26583.04	3.5900	3.5899	-1.2687	6.53	0.54	-0.750			
0.4192	26825.86	3.5870	3.5871	-1.2910	6.53	0.54	-0.750			
0.4231	27079.74	3.5840	3.5840	-1.3065	6.53	0.54	-0.750			
0.4270	27330.36	3.5810	3.5809	-1.3155	6.54	0.55	-0.750			
0.4310	27582.74	3.5780	3.5780	-1.3358	6.54	0.55	-0.750			
0.4350	27838.15	3.5750	3.5749	-1.3462	6.54	0.55	-0.750			
0.4391	28101.57	3.5720	3.5719	-1.3655	6.54	0.55	-0.750			
0.4432	28365.11	3.5690	3.5689	-1.3828	6.54	0.55	-0.750			
0.4474	28630.49	3.5660	3.5660	-1.3882	6.54	0.55	-0.750			
0.4516	28902.58	3.5630	3.5630	-1.4041	6.56	0.57	-0.750			
0.4557	29167.02	3.5600	3.5601	-1.5014	6.57	0.58	-0.750			
0.4603	29461.91	3.5570	3.5567	-1.5371	6.57	0.58	-0.750			
0.4652	29772.15	3.5540	3.5534	-1.5657	6.57	0.58	-0.750			
0.4701	30086.17	3.5510	3.5517	-1.5802	6.57	0.58	-0.750			
0.4749	30396.08	3.5480	3.5478	-1.5734	6.58	0.59	-0.750			
0.4796	30695.36	3.5450	3.5450	-1.5606	6.58	0.59	-0.750			
0.4840	30974.21	3.5420	3.5420	-1.5078	6.59	0.60	-0.750			
0.4887	31275.38	3.5390	3.5390	-1.5303	6.60	0.61	-0.750			
0.4932	31567.00	3.5360	3.5360	-1.5234	6.61	0.62	-0.750			
0.4978	31862.00	3.5330	3.5328	-1.5473	6.61	0.62	-0.750			
0.5025	32157.55	3.5300	3.5300	-1.5647	6.62	0.63	-0.750			
0.5072	32458.52	3.5270	3.5269	-1.5641	6.63	0.64	-0.750			
0.5119	32759.30	3.5240	3.5240	-1.5646	6.63	0.64	-0.750			
0.5166	33064.32	3.5210	3.5208	-1.5846	6.63	0.64	-0.750			
0.5215	33374.36	3.5180	3.5179	-1.5911	6.63	0.64	-0.750			
0.5263	33680.51	3.5150	3.5150	-1.5793	6.65	0.66	-0.750			
0.5310	33981.23	3.5120	3.5121	-1.5835	6.66	0.67	-0.750			
0.5357	34284.77	3.5090	3.5089	-1.5869	6.67	0.68	-0.750			
0.5405	34595.07	3.5060	3.5058	-1.6067	6.68	0.69	-0.750			
0.5453	34901.20	3.5030	3.5031	-1.6057	6.69	0.70	-0.750			
0.5502	35211.79	3.5000	3.5001	-1.6022	6.69	0.70	-0.750			
0.5551	35525.19	3.4970	3.4969	-1.6061	6.70	0.71	-0.750			
0.5598	35830.03	3.4940	3.4938	-1.5954	6.70	0.71	-0.750			
0.5646	36137.40	3.4910	3.4910	-1.5724	6.72	0.73	-0.750			
0.5693	36434.45	3.4880	3.4881	-1.5585	6.73	0.74	-0.750			
0.5739	36731.47	3.4850	3.4850	-1.5530	6.74	0.75	-0.750			
0.5786	37030.54	3.4820	3.4819	-1.5414	6.74	0.75	-0.750			
0.5832	37325.41	3.4790	3.4791	-1.5429	6.75	0.76	-0.750			
0.5878	37619.18	3.4760	3.4758	-1.5360	6.77	0.78	-0.750			
0.5924	37915.56	3.4730	3.4731	-1.5242	6.78	0.79	-0.750			
0.5971	38211.38	3.4700	3.4700	-1.5206	6.80	0.81	-0.750			
0.6016	38504.35	3.4670	3.4670	-1.4949	6.81	0.82	-0.750			
0.6060	38787.12	3.4640	3.4639	-1.4985	6.82	0.83	-0.750			
0.6105	39069.95	3.4610	3.4610	-1.4780	6.83	0.84	-0.750			
0.6150	39359.26	3.4580	3.4578	-1.4707	6.84	0.85	-0.750			
0.6194	39640.92	3.4550	3.4552	-1.4546	6.85	0.86	-0.750			
0.6237	39919.45	3.4520	3.4519	-1.4320	6.86	0.87	-0.750			
0.6280	40192.04	3.4490	3.4489	-1.4175	6.87	0.88	-0.750			
0.6322	40461.56	3.4460	3.4460	-1.4024	6.89	0.90	-0.750			
0.6363	40724.78	3.4430	3.4430	-1.3765	6.90	0.91	-0.750			
0.6405	40994.94	3.4400	3.4400	-1.3625	6.91	0.92	-0.750			
0.6446	41254.31	3.4370	3.4371	-1.3459	6.93	0.94	-0.750			
0.6486	41511.02	3.4340	3.4339	-1.3209	6.94	0.95	-0.750			
0.6526	41764.51	3.4310	3.4309	-1.2930	6.96	0.97	-0.750			
0.6564	42008.03	3.4280	3.4281	-1.2622	6.97	0.98	-0.750			
0.6602	42249.94	3.4250	3.4249	-1.2406	6.99	1.00	-0.750			
0.6639	42488.78	3.4220	3.4219	-1.2175	7.00	1.01	-0.750			
0.6675	42717.75	3.4190	3.4189	-1.1882	7.01	1.02	-0.750			
0.6709	42940.24	3.4160	3.4163	-1.1598	7.02	1.03	-0.750			
0.6745	43165.07	3.4130	3.4129	-1.1372	7.04	1.05	-0.750			
0.6778	43381.96	3.4100	3.4099	-1.1015	7.05	1.06	-0.750			
0.6810	43585.99	3.4070	3.4071	-1.0620	7.06	1.07	-0.750			
0.6842	43791.21	3.4040	3.4041	-1.0517	7.08	1.09	-0.750			
0.6873	43987.75	3.4010	3.4009	-1.0190	7.09	1.10	-0.750			
0.6903	44180.06	3.3980	3.3979	-0.9931	7.11	1.12	-0.750			
0.6933	44368.04	3.3950	3.3951	-0.9669	7.12	1.13	-0.750			
0.6961	44553.35	3.3920	3.3921	-0.9490	7.13	1.14	-0.750			
0.6990	44735.89	3.3890	3.3890	-0.9293	7.14	1.15	-0.750			
0.7017	44911.06	3.3860	3.3859	-0.8965	7.16	1.17	-0.750			
0.7043	45078.26	3.3830	3.3830	-0.8692	7.17	1.18	-0.750			
0.7069	45244.68	3.3800	3.3800	-0.8466	7.18	1.19	-0.750			
0.7094	45403.87	3.3770	3.3769	-0.8222	7.19	1.20	-0.750			
0.7119	45558.95	3.3740	3.3740	-0.7978	7.20	1.21	-0.750			
0.7142	45708.37	3.3710	3.3711	-0.7740	7.22	1.23	-0.750			
0.7165	45855.12	3.3680	3.3680	-0.7527	7.23	1.24	-0.750			
0.7187	45998.88	3.3650	3.3649	-0.7341	7.24	1.25	-0.750			
0.7209	46136.49	3.3620	3.3620	-0.7133	7.25	1.26	-0.750			
0.7230	46272.01	3.3590	3.3589	-0.6957	7.27	1.28	-0.750			
0.7251	46403.24	3.3560	3.3560	-0.6750	7.28	1.29	-0.750			
0.7271	46531.58	3.3530	3.3530	-0.6562	7.29	1.30	-0.750			
0.7290	46655.76	3.3500	3.3500	-0.6361	7.30	1.31	-0.750			
0.7309	46775.14	3.3470	3.3470	-0.6028	7.31	1.32	-0.750			
