Ah_balance (normalized)	Ah_balance (mAh)	Voltage - fit (V)	Voltage -  interpolate (V)	dQ/dV (1/V)	Temperature (°C)	Temperature - diff (°C)	Current (C)	R_DC 0ms (mOhm)	R_DC 50ms (mOhm)	R_DC 50 ms PEC (mOhm)
0.1770	11325.12	4.0820	4.0820	0.7338	7.54	1.55	0.750			
0.1792	11469.99	4.0790	4.0785	0.7641	7.53	1.54	0.750			
0.1815	11617.14	4.0760	4.0761	0.7709	7.52	1.53	0.750			
0.1839	11768.51	4.0730	4.0730	0.7710	7.51	1.52	0.750			
0.1862	11916.42	4.0700	4.0700	0.7747	7.51	1.52	0.750			
0.1885	12066.46	4.0670	4.0670	0.7788	7.50	1.51	0.750			
0.1908	12213.72	4.0640	4.0640	0.7782	7.49	1.50	0.750			
0.1932	12363.13	4.0610	4.0611	0.7792	7.48	1.49	0.750			
0.1956	12516.88	4.0580	4.0579	0.7771	7.48	1.49	0.750			
0.1979	12663.41	4.0550	4.0552	0.7811	7.47	1.48	0.750			
0.2002	12814.95	4.0520	4.0519	0.7889	7.46	1.47	0.750			
0.2025	12962.17	4.0490	4.0492	0.7925	7.46	1.47	0.750			
0.2049	13115.27	4.0460	4.0459	0.7944	7.45	1.46	0.750			
0.2074	13270.65	4.0430	4.0430	0.7920	7.44	1.45	0.750			
0.2098	13424.26	4.0400	4.0401	0.8024	7.43	1.44	0.750			
0.2122	13577.81	4.0370	4.0373	0.8078	7.42	1.43	0.750			
0.2146	13732.04	4.0340	4.0339	0.8060	7.42	1.43	0.750			
0.2170	13887.35	4.0310	4.0308	0.8130	7.41	1.42	0.750			
0.2194	14043.98	4.0280	4.0280	0.8203	7.40	1.41	0.750			
0.2220	14206.18	4.0250	4.0250	0.8228	7.39	1.40	0.750			
0.2244	14363.50	4.0220	4.0220	0.8222	7.38	1.39	0.750			
0.2268	14517.66	4.0190	4.0191	0.8193	7.38	1.39	0.750			
0.2293	14675.15	4.0160	4.0157	0.8199	7.37	1.38	0.750			
0.2318	14833.73	4.0130	4.0130	0.8242	7.36	1.37	0.750			
0.2342	14990.47	4.0100	4.0100	0.8228	7.35	1.36	0.750			
0.2367	15148.09	4.0070	4.0071	0.8326	7.35	1.36	0.750			
0.2392	15307.89	4.0040	4.0041	0.8366	7.34	1.35	0.750			
0.2417	15469.33	4.0010	4.0003	0.8462	7.33	1.34	0.750			
0.2443	15635.49	3.9980	3.9982	0.8413	7.32	1.33	0.750			
0.2468	15797.49	3.9950	3.9951	0.8563	7.30	1.31	0.750			
0.2494	15964.31	3.9920	3.9920	0.8653	7.29	1.30	0.750			
0.2520	16128.46	3.9890	3.9890	0.8549	7.28	1.29	0.750			
0.2546	16292.83	3.9860	3.9860	0.8589	7.27	1.28	0.750			
0.2572	16460.80	3.9830	3.9832	0.8557	7.26	1.27	0.750			
0.2598	16624.93	3.9800	3.9799	0.8633	7.25	1.26	0.750			
0.2623	16790.18	3.9770	3.9771	0.8704	7.24	1.25	0.750			
0.2649	16953.70	3.9740	3.9740	0.8710	7.24	1.25	0.750			
0.2675	17119.02	3.9710	3.9711	0.8944	7.23	1.24	0.750			
0.2703	17299.71	3.9680	3.9679	0.8852	7.22	1.23	0.750			
0.2730	17471.97	3.9650	3.9650	0.8931	7.21	1.22	0.750			
0.2757	17642.34	3.9620	3.9620	0.9055	7.20	1.21	0.750			
0.2784	17815.30	3.9590	3.9612	0.9008	7.19	1.20	0.750			
0.2811	17988.64	3.9560	3.9559	0.9066	7.18	1.19	0.750			
0.2838	18161.45	3.9530	3.9533	0.9049	7.18	1.19	0.750			
0.2865	18336.07	3.9500	3.9501	0.9107	7.17	1.18	0.750			
0.2894	18521.21	3.9470	3.9469	0.9240	7.16	1.17	0.750			
0.2920	18687.66	3.9440	3.9442	0.9167	7.15	1.16	0.750			
0.2948	18865.35	3.9410	3.9410	0.9111	7.14	1.15	0.750			
0.2975	19042.27	3.9380	3.9381	0.9275	7.13	1.14	0.750			
0.3003	19218.05	3.9350	3.9355	0.9408	7.12	1.13	0.750			
0.3031	19399.91	3.9320	3.9322	0.9544	7.11	1.12	0.750			
0.3061	19587.32	3.9290	3.9289	0.9496	7.10	1.11	0.750			
0.3089	19770.07	3.9260	3.9260	0.9629	7.09	1.10	0.750			
0.3118	19953.11	3.9230	3.9233	0.9714	7.08	1.09	0.750			
0.3148	20144.59	3.9200	3.9200	0.9922	7.07	1.08	0.750			
0.3177	20332.28	3.9170	3.9171	0.9848	7.06	1.07	0.750			
0.3207	20523.08	3.9140	3.9140	0.9942	7.05	1.06	0.750			
0.3237	20714.80	3.9110	3.9112	1.0154	7.04	1.05	0.750			
0.3268	20912.47	3.9080	3.9080	1.0313	7.03	1.04	0.750			
0.3299	21112.14	3.9050	3.9051	1.0269	7.02	1.03	0.750			
0.3330	21310.52	3.9020	3.9023	1.0345	7.00	1.01	0.750			
0.3361	21509.43	3.8990	3.8991	1.0444	6.99	1.00	0.750			
0.3393	21712.43	3.8960	3.8958	1.0503	6.98	0.99	0.750			
0.3424	21911.40	3.8930	3.8930	1.0545	6.97	0.98	0.750			
0.3455	22111.72	3.8900	3.8901	1.0468	6.95	0.96	0.750			
0.3486	22311.23	3.8870	3.8871	1.0666	6.94	0.95	0.750			
0.3518	22518.09	3.8840	3.8840	1.0877	6.92	0.93	0.750			
0.3551	22725.00	3.8810	3.8813	1.1038	6.91	0.92	0.750			
0.3584	22938.88	3.8780	3.8782	1.1293	6.90	0.91	0.750			
0.3619	23163.37	3.8750	3.8750	1.1503	6.88	0.89	0.750			
0.3654	23387.48	3.8720	3.8720	1.1637	6.87	0.88	0.750			
0.3689	23610.35	3.8690	3.8691	1.1546	6.86	0.87	0.750			
0.3724	23831.34	3.8660	3.8659	1.1674	6.85	0.86	0.750			
0.3759	24054.69	3.8630	3.8632	1.1791	6.84	0.85	0.750			
0.3794	24284.09	3.8600	3.8596	1.1821	6.83	0.84	0.750			
0.3830	24510.05	3.8570	3.8570	1.2140	6.81	0.82	0.750			
0.3867	24745.73	3.8540	3.8541	1.2477	6.79	0.80	0.750			
0.3905	24991.89	3.8510	3.8510	1.2587	6.78	0.79	0.750			
0.3943	25232.58	3.8480	3.8483	1.2739	6.76	0.77	0.750			
0.3980	25474.63	3.8450	3.8453	1.3111	6.75	0.76	0.750			
0.4021	25735.41	3.8420	3.8421	1.3320	6.74	0.75	0.750			
0.4061	25993.04	3.8390	3.8390	1.3838	6.72	0.73	0.750	0.332	0.859	
0.4104	26265.59	3.8360	3.8362	1.3843	6.71	0.72	0.750			
0.4146	26537.19	3.8330	3.8332	1.4076	6.70	0.71	0.750			
0.4190	26816.18	3.8300	3.8303	1.4583	6.68	0.69	0.750			
0.4234	27095.27	3.8270	3.8273	1.4045	6.67	0.68	0.750			
0.4276	27363.89	3.8240	3.8245	1.4469	6.65	0.66	0.750			
0.4318	27634.61	3.8210	3.8211	1.4854	6.64	0.65	0.750			
0.4363	27925.47	3.8180	3.8173	1.5240	6.62	0.63	0.750			
0.4411	28227.21	3.8150	3.8151	1.5366	6.59	0.60	0.750			
0.4459	28539.11	3.8120	3.8118	1.5935	6.58	0.59	0.750			
0.4508	28852.51	3.8090	3.8090	1.6313	6.56	0.57	0.750			
0.4557	29165.06	3.8060	3.8058	1.6272	6.54	0.55	0.750			
0.4605	29473.14	3.8030	3.8030	1.6311	6.52	0.53	0.750			
0.4656	29795.45	3.8000	3.8000	1.6918	6.49	0.50	0.750			
0.4707	30124.33	3.7970	3.7966	1.7068	6.47	0.48	0.750			
0.4757	30446.46	3.7940	3.7937	1.7664	6.45	0.46	0.750			
0.4811	30790.86	3.7910	3.7907	1.8071	6.44	0.45	0.750			
0.4867	31151.76	3.7880	3.7876	1.8305	6.42	0.43	0.750			
0.4923	31507.06	3.7850	3.7854	1.8372	6.41	0.42	0.750			
0.4976	31847.72	3.7820	3.7826	1.8345	6.38	0.39	0.750			
0.5031	32199.80	3.7790	3.7790	1.8037	6.35	0.36	0.750			
0.5086	32548.18	3.7760	3.7768	1.8499	6.33	0.34	0.750			
0.5143	32916.60	3.7730	3.7726	1.8808	6.31	0.32	0.750			
0.5199	33274.39	3.7700	3.7705	1.8562	6.29	0.30	0.750			
0.5253	33619.25	3.7670	3.7675	1.8768	6.27	0.28	0.750			
0.5309	33978.08	3.7640	3.7646	1.9199	6.24	0.25	0.750			
0.5367	34348.63	3.7610	3.7621	2.0348	6.23	0.24	0.750			
0.5429	34745.92	3.7580	3.7586	2.0230	6.21	0.22	0.750			
0.5494	35160.73	3.7550	3.7550	2.1157	6.18	0.19	0.750			
0.5556	35559.71	3.7520	3.7517	2.0958	6.17	0.18	0.750			
0.5619	35963.96	3.7490	3.7488	2.0571	6.14	0.15	0.750			
0.5682	36366.84	3.7460	3.7463	2.0127	6.12	0.13	0.750			
0.5742	36751.09	3.7430	3.7427	2.0559	6.09	0.10	0.750			
0.5801	37128.69	3.7400	3.7396	2.1312	6.07	0.08	0.750			
0.5865	37538.28	3.7370	3.7377	2.1336	6.06	0.07	0.750			
0.5933	37968.39	3.7340	3.7335	2.1720	6.05	0.06	0.750			
0.5996	38375.38	3.7310	3.7312	2.3284	6.04	0.05	0.750			
0.6069	38844.14	3.7280	3.7278	2.4419	6.02	0.03	0.750			
0.6144	39323.81	3.7250	3.7254	2.2614	6.00	0.01	0.750			
0.6209	39736.40	3.7220	3.7220	2.2655	5.98	-0.01	0.750			
0.6276	40166.18	3.7190	3.7196	2.1845	5.97	-0.02	0.750			
0.6344	40602.70	3.7160	3.7165	2.2351	5.96	-0.03	0.750			
0.6407	41007.61	3.7130	3.7129	2.0114	5.95	-0.04	0.750			
0.6462	41355.05	3.7100	3.7095	1.7097	5.94	-0.05	0.750			
0.6505	41632.01	3.7070	3.7077	1.5093	5.94	-0.05	0.750			
0.6550	41918.17	3.7040	3.7044	1.4715	5.93	-0.06	0.750			
0.6590	42176.24	3.7010	3.7014	1.3962	5.93	-0.06	0.750			
0.6632	42444.21	3.6980	3.6978	1.3439	5.93	-0.06	0.750			
0.6674	42710.97	3.6950	3.6941	1.3029	5.93	-0.06	0.750			
0.6715	42976.22	3.6920	3.6935	1.2457	5.93	-0.06	0.750			
0.6753	43221.87	3.6890	3.6894	1.1529	5.93	-0.06	0.750			
0.6784	43418.66	3.6860	3.6857	1.0140	5.93	-0.06	0.750			
0.6812	43598.49	3.6830	3.6827	0.9507	5.93	-0.06	0.750			
0.6835	43745.00	3.6800	3.6801	0.8361	5.93	-0.06	0.750			
0.6860	43902.84	3.6770	3.6769	0.8124	5.93	-0.06	0.750			
0.6884	44059.52	3.6740	3.6741	0.7883	5.93	-0.06	0.750			
0.6907	44204.74	3.6710	3.6709	0.7538	5.93	-0.06	0.750			
0.6929	44347.35	3.6680	3.6681	0.7265	5.93	-0.06	0.750			
0.6951	44484.65	3.6650	3.6651	0.6984	5.94	-0.05	0.750			
0.6971	44615.58	3.6620	3.6620	0.6703	5.94	-0.05	0.750			
0.6991	44743.44	3.6590	3.6590	0.6438	5.95	-0.04	0.750			
0.7010	44862.90	3.6560	3.6560	0.6122	5.95	-0.04	0.750			
0.7028	44977.78	3.6530	3.6531	0.5864	5.96	-0.03	0.750			
0.7045	45087.76	3.6500	3.6500	0.5578	5.96	-0.03	0.750			
0.7061	45192.66	3.6470	3.6469	0.5285	5.96	-0.03	0.750			
0.7077	45291.41	3.6440	3.6440	0.4997	5.97	-0.02	0.750			
0.7091	45384.94	3.6410	3.6410	0.4667	5.97	-0.02	0.750			
0.7105	45472.21	3.6380	3.6380	0.4353	5.98	-0.01	0.750			
0.7118	45552.91	3.6350	3.6350	0.4006	5.98	-0.01	0.750			
0.7129	45626.41	3.6320	3.6320	0.3644	5.98	-0.01	0.750			
0.7140	45693.60	3.6290	3.6290	0.3294	5.98	-0.01	0.750			
0.7149	45754.86	3.6260	3.6259	0.2891	5.99	-0.00	0.750			
0.7157	45806.87	3.6230	3.6230	0.2493	5.99	-0.00	0.750			
0.7164	45851.71	3.6200	3.6200	0.2092	5.99	-0.00	0.750			
0.7170	45888.05	3.6170	3.6172	0.1656	5.99	0.00	0.750			
0.7174	45916.61	3.6140	3.6142	0.1213	5.99	0.00	0.750			
0.7177	45935.63	3.6110	3.6114	0.0746	5.99	0.00	0.750			
0.7179	45946.43	3.6050	3.6074	-0.0271	5.99	0.00	0.750			
0.7179	45946.79	3.6080	3.6070	0.0234	5.99	0.00	0.750			
