Ah_balance (normalized)	Ah_balance (mAh)	Voltage - fit (V)	Voltage -  interpolate (V)	dQ/dV (1/V)	Temperature (°C)	Temperature - diff (°C)	Current (C)	R_DC 0ms (mOhm)	R_DC 50ms (mOhm)	R_DC 50 ms PEC (mOhm)
0.0953	6100.72	4.0060	4.0056	-0.0628	5.99	0.02	-0.750			
0.0956	6116.31	4.0030	4.0028	-0.0956	5.99	0.02	-0.750			
0.0959	6138.44	4.0000	3.9999	-0.1254	5.99	0.02	-0.750			
0.0963	6165.42	3.9970	3.9968	-0.1533	5.99	0.02	-0.750			
0.0968	6198.18	3.9940	3.9941	-0.1777	5.99	0.02	-0.750			
0.0974	6234.77	3.9910	3.9911	-0.2032	5.98	0.01	-0.750			
0.0981	6277.36	3.9880	3.9881	-0.2279	5.98	0.01	-0.750			
0.0988	6323.25	3.9850	3.9850	-0.2511	5.98	0.01	-0.750			
0.0996	6373.78	3.9820	3.9819	-0.2739	5.98	0.01	-0.750			
0.1004	6428.38	3.9790	3.9790	-0.2971	5.98	0.01	-0.750			
0.1014	6487.47	3.9760	3.9760	-0.3214	5.98	0.01	-0.750			
0.1024	6551.04	3.9730	3.9731	-0.3470	5.98	0.01	-0.750			
0.1034	6620.54	3.9700	3.9699	-0.3689	5.97	0.00	-0.750			
0.1046	6693.90	3.9670	3.9669	-0.3920	5.97	0.00	-0.750			
0.1058	6771.68	3.9640	3.9641	-0.4146	5.97	0.00	-0.750			
0.1071	6853.67	3.9610	3.9610	-0.4359	5.97	-0.00	-0.750			
0.1084	6939.39	3.9580	3.9580	-0.4582	5.97	-0.00	-0.750			
0.1098	7029.53	3.9550	3.9550	-0.4780	5.96	-0.01	-0.750			
0.1113	7122.44	3.9520	3.9520	-0.5006	5.96	-0.01	-0.750			
0.1128	7221.63	3.9490	3.9491	-0.5230	5.96	-0.01	-0.750			
0.1144	7324.42	3.9460	3.9460	-0.5409	5.96	-0.01	-0.750			
0.1161	7430.48	3.9430	3.9431	-0.5583	5.95	-0.02	-0.750			
0.1178	7539.60	3.9400	3.9400	-0.5773	5.95	-0.02	-0.750			
0.1196	7652.26	3.9370	3.9369	-0.5921	5.95	-0.02	-0.750			
0.1214	7767.98	3.9340	3.9341	-0.6084	5.95	-0.02	-0.750			
0.1232	7886.15	3.9310	3.9311	-0.6194	5.95	-0.02	-0.750			
0.1251	8008.13	3.9280	3.9280	-0.6363	5.96	-0.01	-0.750			
0.1271	8132.22	3.9250	3.9249	-0.6467	5.96	-0.01	-0.750			
0.1290	8257.03	3.9220	3.9220	-0.6551	5.96	-0.01	-0.750			
0.1310	8383.51	3.9190	3.9191	-0.6600	5.96	-0.01	-0.750			
0.1330	8512.57	3.9160	3.9159	-0.6686	5.96	-0.01	-0.750			
0.1350	8640.46	3.9130	3.9130	-0.6739	5.96	-0.01	-0.750			
0.1370	8770.38	3.9100	3.9100	-0.6793	5.96	-0.01	-0.750			
0.1391	8900.61	3.9070	3.9071	-0.6826	5.97	-0.00	-0.750			
0.1412	9033.66	3.9040	3.9039	-0.6897	5.97	-0.00	-0.750			
0.1432	9166.18	3.9010	3.9010	-0.6953	5.97	-0.00	-0.750			
0.1453	9300.36	3.8980	3.8980	-0.7024	5.97	0.00	-0.750			
0.1474	9435.60	3.8950	3.8950	-0.7057	5.98	0.01	-0.750			
0.1495	9571.17	3.8920	3.8920	-0.7124	5.99	0.02	-0.750			
0.1517	9709.51	3.8890	3.8890	-0.7189	6.00	0.03	-0.750			
0.1539	9848.72	3.8860	3.8860	-0.7253	6.00	0.03	-0.750			
0.1561	9988.56	3.8830	3.8830	-0.7280	6.01	0.04	-0.750			
0.1583	10129.80	3.8800	3.8800	-0.7272	6.01	0.04	-0.750			
0.1605	10269.07	3.8770	3.8770	-0.7292	6.01	0.04	-0.750			
0.1626	10408.81	3.8740	3.8741	-0.7346	6.02	0.05	-0.750			
0.1648	10549.83	3.8710	3.8710	-0.7333	6.02	0.05	-0.750			
0.1671	10691.37	3.8680	3.8679	-0.7361	6.02	0.05	-0.750			
0.1693	10832.40	3.8650	3.8652	-0.7374	6.02	0.05	-0.750			
0.1715	10974.30	3.8620	3.8619	-0.7437	6.03	0.06	-0.750			
0.1737	11116.92	3.8590	3.8590	-0.7542	6.03	0.06	-0.750			
0.1760	11261.17	3.8560	3.8559	-0.7574	6.04	0.07	-0.750			
0.1783	11410.00	3.8530	3.8529	-0.7621	6.04	0.07	-0.750			
0.1806	11557.82	3.8500	3.8499	-0.7647	6.05	0.08	-0.750			
0.1829	11704.95	3.8470	3.8470	-0.7651	6.05	0.08	-0.750			
0.1852	11851.77	3.8440	3.8439	-0.7614	6.06	0.09	-0.750			
0.1874	11996.17	3.8410	3.8410	-0.7598	6.07	0.10	-0.750			
0.1897	12141.20	3.8380	3.8379	-0.7555	6.08	0.11	-0.750			
0.1920	12289.11	3.8350	3.8351	-0.7584	6.08	0.11	-0.750			
0.1943	12434.02	3.8320	3.8322	-0.7589	6.09	0.12	-0.750			
0.1965	12578.48	3.8290	3.8290	-0.7594	6.10	0.13	-0.750			
0.1988	12724.22	3.8260	3.8260	-0.7599	6.11	0.14	-0.750			
0.2011	12869.36	3.8230	3.8229	-0.7587	6.11	0.14	-0.750			
0.2034	13016.35	3.8200	3.8201	-0.7648	6.12	0.15	-0.750			
0.2057	13163.46	3.8170	3.8168	-0.7627	6.13	0.16	-0.750			
0.2080	13310.46	3.8140	3.8140	-0.7627	6.14	0.17	-0.750			
0.2102	13455.76	3.8110	3.8109	-0.7613	6.14	0.17	-0.750			
0.2125	13600.99	3.8080	3.8081	-0.7587	6.15	0.18	-0.750			
0.2148	13745.99	3.8050	3.8050	-0.7587	6.16	0.19	-0.750			
0.2171	13893.98	3.8020	3.8019	-0.7591	6.16	0.19	-0.750			
0.2193	14037.92	3.7990	3.7991	-0.7609	6.17	0.20	-0.750			
0.2216	14183.89	3.7960	3.7960	-0.7649	6.18	0.21	-0.750			
0.2239	14331.84	3.7930	3.7930	-0.7655	6.19	0.22	-0.750			
0.2262	14479.53	3.7900	3.7899	-0.7655	6.19	0.22	-0.750			
0.2285	14626.80	3.7870	3.7871	-0.7686	6.20	0.23	-0.750			
0.2308	14774.03	3.7840	3.7840	-0.7688	6.21	0.24	-0.750			
0.2332	14922.47	3.7810	3.7808	-0.7710	6.22	0.25	-0.750			
0.2354	15068.20	3.7780	3.7780	-0.7736	6.22	0.25	-0.750			
0.2378	15217.08	3.7750	3.7750	-0.7712	6.23	0.26	-0.750			
0.2401	15365.28	3.7720	3.7720	-0.7753	6.24	0.27	-0.750			
0.2425	15517.40	3.7690	3.7689	-0.7728	6.25	0.28	-0.750			
0.2447	15663.99	3.7660	3.7660	-0.7742	6.25	0.28	-0.750			
0.2470	15810.80	3.7630	3.7630	-0.7804	6.26	0.29	-0.750			
0.2494	15961.46	3.7600	3.7600	-0.7834	6.27	0.30	-0.750			
0.2518	16112.54	3.7570	3.7568	-0.7813	6.28	0.31	-0.750			
0.2541	16264.81	3.7540	3.7540	-0.7859	6.28	0.31	-0.750			
0.2565	16415.89	3.7510	3.7513	-0.7860	6.29	0.32	-0.750			
0.2589	16566.78	3.7480	3.7480	-0.7918	6.30	0.33	-0.750			
0.2612	16716.26	3.7450	3.7449	-0.7956	6.31	0.34	-0.750			
0.2636	16870.41	3.7420	3.7420	-0.8033	6.31	0.34	-0.750			
0.2661	17027.27	3.7390	3.7388	-0.8087	6.32	0.35	-0.750			
0.2685	17183.96	3.7360	3.7363	-0.8075	6.33	0.36	-0.750			
0.2709	17339.72	3.7330	3.7330	-0.8089	6.33	0.36	-0.750			
0.2733	17493.56	3.7300	3.7299	-0.8152	6.34	0.37	-0.750			
0.2757	17647.89	3.7270	3.7270	-0.8136	6.34	0.37	-0.750			
0.2782	17804.79	3.7240	3.7239	-0.8200	6.34	0.37	-0.750			
0.2807	17965.39	3.7210	3.7212	-0.8311	6.35	0.38	-0.750			
0.2832	18125.86	3.7180	3.7179	-0.8350	6.36	0.39	-0.750			
0.2858	18288.18	3.7150	3.7150	-0.8454	6.36	0.39	-0.750			
0.2883	18450.42	3.7120	3.7120	-0.8462	6.37	0.40	-0.750			
0.2908	18611.40	3.7090	3.7089	-0.8489	6.38	0.41	-0.750			
0.2934	18777.68	3.7060	3.7062	-0.8592	6.39	0.42	-0.750			
0.2960	18941.09	3.7030	3.7029	-0.8712	6.39	0.42	-0.750			
0.2986	19109.52	3.7000	3.7000	-0.8758	6.39	0.42	-0.750			
0.3012	19277.93	3.6970	3.6969	-0.8874	6.40	0.43	-0.750			
0.3039	19446.57	3.6940	3.6940	-0.8961	6.40	0.43	-0.750			
0.3066	19624.82	3.6910	3.6913	-0.9072	6.40	0.43	-0.750			
0.3094	19800.10	3.6880	3.6880	-0.9193	6.41	0.44	-0.750			
0.3122	19978.78	3.6850	3.6850	-0.9273	6.41	0.44	-0.750			
0.3150	20157.32	3.6820	3.6820	-0.9303	6.42	0.45	-0.750			
0.3178	20338.60	3.6790	3.6791	-0.9369	6.43	0.46	-0.750			
0.3205	20514.49	3.6760	3.6758	-0.9488	6.43	0.46	-0.750			
0.3234	20696.74	3.6730	3.6730	-0.9562	6.44	0.47	-0.750			
0.3263	20881.40	3.6700	3.6699	-0.9675	6.44	0.47	-0.750			
0.3292	21067.56	3.6670	3.6670	-0.9678	6.45	0.48	-0.750			
0.3322	21258.33	3.6640	3.6641	-0.9887	6.45	0.48	-0.750			
0.3352	21450.02	3.6610	3.6611	-1.0062	6.46	0.49	-0.750			
0.3382	21647.19	3.6580	3.6579	-1.0061	6.46	0.49	-0.750			
0.3412	21837.95	3.6550	3.6548	-1.0047	6.47	0.50	-0.750			
0.3442	22031.99	3.6520	3.6524	-1.0194	6.47	0.50	-0.750			
0.3473	22226.96	3.6490	3.6490	-1.0280	6.47	0.50	-0.750			
0.3504	22425.07	3.6460	3.6459	-1.0365	6.47	0.50	-0.750			
0.3535	22622.61	3.6430	3.6427	-1.0500	6.47	0.50	-0.750			
0.3566	22823.87	3.6400	3.6404	-1.0758	6.47	0.50	-0.750			
0.3599	23036.42	3.6370	3.6370	-1.0861	6.47	0.50	-0.750			
0.3633	23248.76	3.6340	3.6339	-1.0913	6.47	0.50	-0.750			
0.3665	23458.64	3.6310	3.6310	-1.1010	6.47	0.50	-0.750			
0.3698	23668.49	3.6280	3.6282	-1.1144	6.47	0.50	-0.750			
0.3732	23884.02	3.6250	3.6248	-1.1251	6.48	0.51	-0.750			
0.3766	24100.29	3.6220	3.6219	-1.1289	6.48	0.51	-0.750			
0.3800	24317.38	3.6190	3.6190	-1.1374	6.49	0.52	-0.750			
0.3834	24540.71	3.6160	3.6159	-1.1702	6.49	0.52	-0.750			
0.3870	24769.02	3.6130	3.6130	-1.1768	6.50	0.53	-0.750			
0.3905	24994.53	3.6100	3.6098	-1.1746	6.50	0.53	-0.750			
0.3940	25218.70	3.6070	3.6076	-1.1855	6.51	0.54	-0.750			
0.3977	25450.78	3.6040	3.6038	-1.1992	6.51	0.54	-0.750			
0.4012	25679.99	3.6010	3.6010	-1.2144	6.51	0.54	-0.750			
0.4048	25908.17	3.5980	3.5980	-1.2348	6.51	0.54	-0.750			
0.4086	26151.65	3.5950	3.5949	-1.2731	6.51	0.54	-0.750			
0.4125	26399.27	3.5920	3.5923	-1.2999	6.51	0.54	-0.750	0.476	1.087	
0.4164	26651.66	3.5890	3.5887	-1.3221	6.51	0.54	-0.750			
0.4205	26909.95	3.5860	3.5862	-1.3189	6.51	0.54	-0.750			
0.4246	27171.60	3.5830	3.5829	-1.3293	6.52	0.55	-0.750			
0.4285	27421.77	3.5800	3.5800	-1.3385	6.53	0.56	-0.750			
0.4324	27672.47	3.5770	3.5770	-1.3263	6.53	0.56	-0.750			
0.4364	27931.43	3.5740	3.5739	-1.3406	6.53	0.56	-0.750			
0.4405	28189.44	3.5710	3.5709	-1.3459	6.53	0.56	-0.750			
0.4445	28449.14	3.5680	3.5683	-1.3724	6.53	0.56	-0.750			
0.4488	28720.62	3.5650	3.5648	-1.3914	6.53	0.56	-0.750			
0.4529	28983.08	3.5620	3.5619	-1.4121	6.53	0.56	-0.750			
0.4572	29257.63	3.5590	3.5592	-1.4190	6.53	0.56	-0.750			
0.4615	29536.18	3.5560	3.5559	-1.4352	6.54	0.57	-0.750			
0.4658	29811.85	3.5530	3.5530	-1.4514	6.55	0.58	-0.750			
0.4702	30091.17	3.5500	3.5501	-1.4545	6.55	0.58	-0.750			
0.4746	30371.30	3.5470	3.5469	-1.4667	6.55	0.58	-0.750			
0.4789	30652.42	3.5440	3.5440	-1.4737	6.55	0.58	-0.750			
0.4833	30932.46	3.5410	3.5410	-1.4908	6.55	0.58	-0.750			
0.4879	31222.91	3.5380	3.5380	-1.5117	6.56	0.59	-0.750			
0.4924	31516.23	3.5350	3.5350	-1.5283	6.57	0.60	-0.750			
0.4971	31814.38	3.5320	3.5318	-1.5308	6.57	0.60	-0.750			
0.5017	32110.45	3.5290	3.5289	-1.5397	6.58	0.61	-0.750			
0.5064	32407.79	3.5260	3.5263	-1.5343	6.58	0.61	-0.750			
0.5109	32700.65	3.5230	3.5231	-1.5376	6.58	0.61	-0.750			
0.5155	32992.56	3.5200	3.5199	-1.5444	6.59	0.62	-0.750			
0.5202	33289.72	3.5170	3.5169	-1.5588	6.59	0.62	-0.750			
0.5248	33589.43	3.5140	3.5141	-1.5754	6.60	0.63	-0.750			
0.5296	33897.54	3.5110	3.5110	-1.5947	6.61	0.64	-0.750			
0.5344	34201.54	3.5080	3.5078	-1.5865	6.61	0.64	-0.750			
0.5393	34512.14	3.5050	3.5049	-1.5883	6.62	0.65	-0.750			
0.5440	34815.89	3.5020	3.5022	-1.5888	6.62	0.65	-0.750			
0.5487	35119.26	3.4990	3.4988	-1.5798	6.62	0.65	-0.750			
0.5534	35420.77	3.4960	3.4961	-1.5796	6.63	0.66	-0.750			
0.5582	35727.44	3.4930	3.4928	-1.5769	6.63	0.66	-0.750			
0.5630	36033.16	3.4900	3.4900	-1.5872	6.64	0.67	-0.750			
0.5678	36338.18	3.4870	3.4873	-1.5792	6.65	0.68	-0.750			
0.5725	36641.26	3.4840	3.4838	-1.5687	6.66	0.69	-0.750			
0.5772	36940.28	3.4810	3.4811	-1.5590	6.68	0.71	-0.750			
0.5819	37242.21	3.4780	3.4781	-1.5450	6.69	0.72	-0.750			
0.5865	37538.69	3.4750	3.4752	-1.5311	6.70	0.73	-0.750			
0.5911	37831.52	3.4720	3.4720	-1.5212	6.71	0.74	-0.750			
0.5956	38115.22	3.4690	3.4690	-1.5149	6.71	0.74	-0.750			
0.6002	38410.64	3.4660	3.4659	-1.5004	6.72	0.75	-0.750			
0.6046	38696.15	3.4630	3.4629	-1.4853	6.73	0.76	-0.750			
0.6091	38983.48	3.4600	3.4599	-1.4785	6.73	0.76	-0.750			
0.6136	39268.11	3.4570	3.4571	-1.4680	6.74	0.77	-0.750			
0.6179	39548.24	3.4540	3.4540	-1.4527	6.75	0.78	-0.750			
0.6222	39822.97	3.4510	3.4509	-1.4234	6.76	0.79	-0.750			
0.6265	40094.61	3.4480	3.4480	-1.4022	6.77	0.80	-0.750			
0.6307	40367.96	3.4450	3.4452	-1.3967	6.79	0.82	-0.750			
0.6349	40632.70	3.4420	3.4419	-1.3676	6.80	0.83	-0.750			
0.6390	40894.29	3.4390	3.4389	-1.3434	6.81	0.84	-0.750			
0.6429	41147.43	3.4360	3.4362	-1.3302	6.82	0.85	-0.750			
0.6469	41400.59	3.4330	3.4329	-1.3077	6.83	0.86	-0.750			
0.6509	41655.16	3.4300	3.4298	-1.2924	6.85	0.88	-0.750			
0.6547	41901.81	3.4270	3.4270	-1.2594	6.86	0.89	-0.750			
0.6586	42147.40	3.4240	3.4240	-1.1983	6.88	0.91	-0.750			
0.6622	42380.62	3.4210	3.4209	-1.1495	6.89	0.92	-0.750			
0.6655	42593.47	3.4180	3.4182	-1.0827	6.90	0.93	-0.750			
0.6685	42781.84	3.4150	3.4157	-1.0411	6.91	0.94	-0.750			
0.6714	42970.48	3.4120	3.4117	-1.0177	6.92	0.95	-0.750			
0.6744	43159.66	3.4090	3.4088	-1.0137	6.93	0.96	-0.750			
0.6774	43356.37	3.4060	3.4060	-1.0209	6.94	0.97	-0.750			
0.6806	43558.35	3.4030	3.4031	-1.0347	6.95	0.98	-0.750			
0.6838	43762.70	3.4000	3.4000	-1.0299	6.96	0.99	-0.750			
0.6869	43961.28	3.3970	3.3970	-1.0122	6.97	1.00	-0.750			
0.6899	44152.54	3.3940	3.3940	-0.9841	6.98	1.01	-0.750			
0.6928	44339.10	3.3910	3.3910	-0.9563	6.99	1.02	-0.750			
0.6956	44519.67	3.3880	3.3880	-0.9352	7.00	1.03	-0.750			
0.6984	44697.26	3.3850	3.3850	-0.9081	7.00	1.03	-0.750			
0.7011	44868.73	3.3820	3.3820	-0.8816	7.01	1.04	-0.750			
0.7037	45035.92	3.3790	3.3789	-0.8546	7.02	1.05	-0.750			
0.7062	45197.46	3.3760	3.3763	-0.8329	7.03	1.06	-0.750			
0.7087	45355.19	3.3730	3.3730	-0.8094	7.04	1.07	-0.750			
0.7110	45506.71	3.3700	3.3700	-0.7896	7.05	1.08	-0.750			
0.7134	45656.42	3.3670	3.3669	-0.7634	7.06	1.09	-0.750			
0.7157	45801.92	3.3640	3.3640	-0.7450	7.07	1.10	-0.750			
0.7179	45942.57	3.3610	3.3609	-0.7213	7.09	1.12	-0.750			
0.7200	46079.40	3.3580	3.3578	-0.7008	7.10	1.13	-0.750			
0.7220	46210.73	3.3550	3.3550	-0.6775	7.11	1.14	-0.750			
0.7240	46337.75	3.3520	3.3520	-0.6579	7.12	1.15	-0.750			
0.7260	46460.88	3.3490	3.3490	-0.6521	7.12	1.15	-0.750			
0.7279	46583.37	3.3460	3.3460	-0.6133	7.13	1.16	-0.750			
