Ah_balance (normalized)	Ah_balance (mAh)	Voltage - fit (V)	Voltage -  interpolate (V)	dQ/dV (1/V)	Temperature (°C)	Temperature - diff (°C)	Current (C)	R_DC 0ms (mOhm)	R_DC 50ms (mOhm)	R_DC 50 ms PEC (mOhm)
0.1768	11316.10	4.0830	4.0830	0.7809	7.45	1.46	0.750			
0.1791	11464.94	4.0800	4.0802	0.7709	7.44	1.45	0.750			
0.1814	11610.43	4.0770	4.0769	0.7640	7.44	1.45	0.750			
0.1837	11756.35	4.0740	4.0740	0.7667	7.43	1.44	0.750			
0.1860	11903.24	4.0710	4.0710	0.7677	7.43	1.44	0.750			
0.1883	12049.37	4.0680	4.0680	0.7711	7.42	1.43	0.750			
0.1906	12199.79	4.0650	4.0650	0.7787	7.42	1.43	0.750			
0.1930	12350.22	4.0620	4.0618	0.7801	7.41	1.42	0.750			
0.1953	12501.79	4.0590	4.0590	0.7839	7.40	1.41	0.750			
0.1977	12653.98	4.0560	4.0560	0.7759	7.40	1.41	0.750			
0.2000	12799.86	4.0530	4.0531	0.7807	7.39	1.40	0.750			
0.2023	12950.02	4.0500	4.0500	0.7847	7.38	1.39	0.750			
0.2047	13099.16	4.0470	4.0470	0.7865	7.37	1.38	0.750			
0.2070	13251.03	4.0440	4.0439	0.7932	7.37	1.38	0.750			
0.2095	13407.04	4.0410	4.0411	0.7950	7.36	1.37	0.750			
0.2118	13558.14	4.0380	4.0381	0.8029	7.36	1.37	0.750			
0.2143	13714.34	4.0350	4.0349	0.8135	7.36	1.37	0.750			
0.2167	13868.00	4.0320	4.0321	0.8170	7.35	1.36	0.750			
0.2192	14026.11	4.0290	4.0290	0.8241	7.35	1.36	0.750			
0.2217	14186.13	4.0260	4.0261	0.8234	7.34	1.35	0.750			
0.2242	14347.15	4.0230	4.0232	0.8258	7.34	1.35	0.750			
0.2267	14505.72	4.0200	4.0200	0.8236	7.34	1.35	0.750			
0.2291	14660.91	4.0170	4.0169	0.8195	7.33	1.34	0.750			
0.2315	14816.89	4.0140	4.0139	0.8197	7.33	1.34	0.750			
0.2340	14976.03	4.0110	4.0110	0.8166	7.32	1.33	0.750			
0.2365	15133.68	4.0080	4.0080	0.8270	7.31	1.32	0.750			
0.2390	15293.03	4.0050	4.0051	0.8310	7.30	1.31	0.750			
0.2414	15452.48	4.0020	4.0020	0.8349	7.30	1.31	0.750			
0.2439	15611.85	3.9990	3.9989	0.8366	7.29	1.30	0.750			
0.2465	15775.11	3.9960	3.9961	0.8371	7.29	1.30	0.750			
0.2490	15936.71	3.9930	3.9930	0.8468	7.28	1.29	0.750			
0.2515	16098.73	3.9900	3.9900	0.8563	7.28	1.29	0.750			
0.2541	16262.79	3.9870	3.9871	0.8578	7.27	1.28	0.750			
0.2567	16428.50	3.9840	3.9841	0.8653	7.27	1.28	0.750			
0.2593	16596.35	3.9810	3.9811	0.8672	7.26	1.27	0.750			
0.2619	16763.37	3.9780	3.9781	0.8732	7.25	1.26	0.750			
0.2646	16931.47	3.9750	3.9750	0.8761	7.24	1.25	0.750			
0.2672	17099.08	3.9720	3.9720	0.8783	7.23	1.24	0.750			
0.2698	17267.94	3.9690	3.9690	0.8835	7.23	1.24	0.750			
0.2725	17442.96	3.9660	3.9660	0.8757	7.22	1.23	0.750			
0.2752	17609.61	3.9630	3.9630	0.8834	7.22	1.23	0.750			
0.2778	17778.06	3.9600	3.9602	0.8954	7.21	1.22	0.750			
0.2805	17948.81	3.9570	3.9566	0.8983	7.21	1.22	0.750			
0.2832	18123.23	3.9540	3.9541	0.8990	7.20	1.21	0.750			
0.2859	18295.12	3.9510	3.9511	0.9055	7.19	1.20	0.750			
0.2886	18469.76	3.9480	3.9482	0.9183	7.19	1.20	0.750			
0.2914	18650.98	3.9450	3.9450	0.9305	7.18	1.19	0.750			
0.2942	18826.15	3.9420	3.9418	0.9309	7.17	1.18	0.750			
0.2970	19005.87	3.9390	3.9391	0.9274	7.16	1.17	0.750			
0.2998	19185.23	3.9360	3.9361	0.9378	7.15	1.16	0.750			
0.3026	19364.89	3.9330	3.9330	0.9486	7.14	1.15	0.750			
0.3054	19546.92	3.9300	3.9298	0.9524	7.13	1.14	0.750			
0.3083	19728.59	3.9270	3.9270	0.9564	7.13	1.14	0.750			
0.3112	19914.12	3.9240	3.9241	0.9680	7.12	1.13	0.750			
0.3141	20102.28	3.9210	3.9210	0.9789	7.12	1.13	0.750			
0.3171	20291.52	3.9180	3.9180	0.9839	7.11	1.12	0.750			
0.3201	20484.98	3.9150	3.9149	0.9762	7.10	1.11	0.750			
0.3229	20668.11	3.9120	3.9121	0.9880	7.10	1.11	0.750			
0.3259	20857.62	3.9090	3.9091	1.0069	7.09	1.10	0.750			
0.3289	21050.60	3.9060	3.9061	1.0213	7.08	1.09	0.750			
0.3320	21249.13	3.9030	3.9027	1.0231	7.06	1.07	0.750			
0.3351	21447.43	3.9000	3.9001	1.0360	7.05	1.06	0.750			
0.3383	21649.53	3.8970	3.8972	1.0488	7.03	1.04	0.750			
0.3414	21851.47	3.8940	3.8941	1.0650	7.02	1.03	0.750			
0.3446	22054.87	3.8910	3.8909	1.0589	7.01	1.02	0.750			
0.3478	22258.25	3.8880	3.8880	1.0741	7.00	1.01	0.750			
0.3510	22466.65	3.8850	3.8850	1.0942	6.99	1.00	0.750			
0.3544	22679.81	3.8820	3.8821	1.1101	6.97	0.98	0.750			
0.3577	22895.15	3.8790	3.8790	1.1166	6.96	0.97	0.750			
0.3611	23108.47	3.8760	3.8761	1.1346	6.95	0.96	0.750			
0.3645	23327.19	3.8730	3.8730	1.1474	6.94	0.95	0.750			
0.3680	23549.97	3.8700	3.8699	1.1672	6.93	0.94	0.750			
0.3715	23773.46	3.8670	3.8670	1.1699	6.92	0.93	0.750			
0.3750	23998.12	3.8640	3.8642	1.1882	6.91	0.92	0.750			
0.3786	24228.06	3.8610	3.8611	1.2121	6.90	0.91	0.750			
0.3822	24463.94	3.8580	3.8581	1.2123	6.89	0.90	0.750			
0.3858	24694.02	3.8550	3.8552	1.2385	6.87	0.88	0.750			
0.3896	24935.73	3.8520	3.8521	1.2571	6.86	0.87	0.750			
0.3934	25176.56	3.8490	3.8485	1.2815	6.85	0.86	0.750			
0.3972	25421.83	3.8460	3.8461	1.3009	6.84	0.85	0.750			
0.4011	25671.99	3.8430	3.8431	1.3503	6.83	0.84	0.750			
0.4053	25937.82	3.8400	3.8403	1.3799	6.81	0.82	0.750	0.394	0.867	
0.4095	26206.29	3.8370	3.8374	1.4115	6.80	0.81	0.750			
0.4138	26483.70	3.8340	3.8339	1.4424	6.78	0.79	0.750			
0.4184	26776.81	3.8310	3.8304	1.4321	6.77	0.78	0.750			
0.4225	27042.17	3.8280	3.8283	1.4288	6.75	0.76	0.750			
0.4268	27317.79	3.8250	3.8253	1.4688	6.73	0.74	0.750			
0.4312	27594.00	3.8220	3.8214	1.4910	6.71	0.72	0.750			
0.4357	27882.87	3.8190	3.8193	1.5140	6.69	0.70	0.750			
0.4403	28180.31	3.8160	3.8163	1.5713	6.68	0.69	0.750			
0.4453	28496.53	3.8130	3.8129	1.5732	6.66	0.67	0.750			
0.4500	28800.03	3.8100	3.8098	1.5941	6.64	0.65	0.750			
0.4548	29105.96	3.8070	3.8072	1.6701	6.62	0.63	0.750			
0.4599	29435.65	3.8040	3.8039	1.6604	6.60	0.61	0.750			
0.4650	29759.09	3.8010	3.8010	1.7185	6.58	0.59	0.750			
0.4701	30088.61	3.7980	3.7983	1.7540	6.56	0.57	0.750			
0.4754	30428.25	3.7950	3.7955	1.7658	6.55	0.56	0.750			
0.4808	30772.70	3.7920	3.7921	1.7989	6.53	0.54	0.750			
0.4864	31127.69	3.7890	3.7890	1.7998	6.50	0.51	0.750			
0.4915	31456.62	3.7860	3.7862	1.7824	6.48	0.49	0.750			
0.4969	31803.55	3.7830	3.7827	1.7979	6.45	0.46	0.750			
0.5023	32149.05	3.7800	3.7799	1.8410	6.43	0.44	0.750			
0.5079	32502.82	3.7770	3.7769	1.8879	6.40	0.41	0.750			
0.5137	32874.01	3.7740	3.7740	1.9125	6.39	0.40	0.750			
0.5194	33244.36	3.7710	3.7709	1.9100	6.36	0.37	0.750			
0.5250	33600.77	3.7680	3.7679	1.8979	6.34	0.35	0.750			
0.5307	33967.84	3.7650	3.7646	1.8984	6.31	0.32	0.750			
0.5365	34338.64	3.7620	3.7620	1.9288	6.29	0.30	0.750			
0.5424	34710.97	3.7590	3.7590	2.0009	6.27	0.28	0.750			
0.5485	35106.23	3.7560	3.7561	1.9905	6.25	0.26	0.750			
0.5546	35494.50	3.7530	3.7529	2.0298	6.23	0.24	0.750			
0.5608	35891.37	3.7500	3.7501	2.0809	6.21	0.22	0.750			
0.5672	36299.88	3.7470	3.7469	2.1381	6.19	0.20	0.750			
0.5735	36704.74	3.7440	3.7440	2.1764	6.17	0.18	0.750			
0.5803	37139.97	3.7410	3.7408	2.2405	6.15	0.16	0.750			
0.5871	37571.52	3.7380	3.7381	2.2778	6.13	0.14	0.750			
0.5940	38013.25	3.7350	3.7349	2.3216	6.11	0.12	0.750			
0.6010	38466.17	3.7320	3.7320	2.4521	6.09	0.10	0.750			
0.6085	38944.13	3.7290	3.7288	2.4236	6.06	0.07	0.750			
0.6157	39403.14	3.7260	3.7264	2.4669	6.05	0.06	0.750			
0.6232	39881.83	3.7230	3.7230	2.3944	6.03	0.04	0.750			
0.6304	40342.82	3.7200	3.7202	2.2618	6.01	0.02	0.750			
0.6370	40769.04	3.7170	3.7168	2.1204	6.00	0.01	0.750			
0.6431	41159.76	3.7140	3.7139	1.9259	5.99	0.00	0.750			
0.6488	41521.91	3.7110	3.7113	1.7850	5.98	-0.01	0.750			
0.6538	41844.33	3.7080	3.7082	1.5968	5.97	-0.02	0.750			
0.6582	42122.74	3.7050	3.7051	1.4265	5.97	-0.02	0.750			
0.6622	42383.32	3.7020	3.7020	1.2879	5.96	-0.03	0.750			
0.6657	42607.62	3.6990	3.6991	1.1769	5.96	-0.03	0.750			
0.6689	42812.79	3.6960	3.6958	1.0729	5.96	-0.03	0.750			
0.6720	43008.48	3.6930	3.6930	1.0092	5.96	-0.03	0.750			
0.6749	43192.15	3.6900	3.6901	0.9641	5.96	-0.03	0.750			
0.6777	43373.79	3.6870	3.6870	0.9306	5.96	-0.03	0.750			
0.6804	43547.52	3.6840	3.6838	0.8966	5.96	-0.03	0.750			
0.6831	43718.23	3.6810	3.6812	0.8733	5.96	-0.03	0.750			
0.6857	43884.35	3.6780	3.6780	0.8443	5.96	-0.03	0.750			
0.6882	44044.57	3.6750	3.6749	0.8173	5.95	-0.04	0.750			
0.6906	44197.67	3.6720	3.6721	0.7815	5.95	-0.04	0.750			
0.6929	44345.42	3.6690	3.6688	0.7533	5.95	-0.04	0.750			
0.6951	44489.27	3.6660	3.6661	0.7255	5.95	-0.04	0.750			
0.6973	44624.75	3.6630	3.6630	0.6925	5.96	-0.03	0.750			
0.6993	44755.70	3.6600	3.6600	0.6613	5.96	-0.03	0.750			
0.7013	44880.23	3.6570	3.6570	0.6286	5.96	-0.03	0.750			
0.7031	44995.74	3.6540	3.6540	0.5944	5.97	-0.02	0.750			
0.7048	45107.19	3.6510	3.6511	0.5615	5.97	-0.02	0.750			
0.7064	45211.21	3.6480	3.6480	0.5319	5.97	-0.02	0.750			
0.7080	45310.30	3.6450	3.6449	0.4997	5.97	-0.02	0.750			
0.7094	45403.77	3.6420	3.6420	0.4667	5.98	-0.01	0.750			
0.7108	45490.67	3.6390	3.6390	0.4345	5.98	-0.01	0.750			
0.7121	45571.86	3.6360	3.6360	0.4009	5.98	-0.01	0.750			
0.7132	45645.54	3.6330	3.6330	0.3658	5.98	-0.01	0.750			
0.7143	45712.13	3.6300	3.6300	0.3317	5.98	-0.01	0.750			
0.7152	45771.87	3.6270	3.6270	0.2945	5.98	-0.01	0.750			
0.7161	45827.29	3.6240	3.6238	0.2575	5.99	-0.00	0.750			
0.7168	45873.18	3.6210	3.6211	0.2175	5.99	-0.00	0.750			
0.7174	45912.09	3.6180	3.6181	0.1775	5.99	-0.00	0.750			
0.7179	45942.88	3.6150	3.6151	0.1343	5.99	-0.00	0.750			
0.7182	45965.73	3.6120	3.6123	0.0880	5.99	-0.00	0.750			
0.7184	45977.49	3.6090	3.6093	0.0412	5.99	0.00	0.750			
0.7185	45980.93	3.6060	3.6074	-0.0053	5.99	0.00	0.750			
