Ah_balance (normalized)	Ah_balance (mAh)	Voltage - fit (V)	Voltage -  interpolate (V)	dQ/dV (1/V)	Temperature (°C)	Temperature - diff (°C)	Current (C)	R_DC 0ms (mOhm)	R_DC 50ms (mOhm)	R_DC 50 ms PEC (mOhm)
0.0913	5841.86	4.0030	4.0026	-0.0378	5.98	0.01	-0.750			
0.0915	5855.18	4.0000	3.9999	-0.0786	5.97	0.00	-0.750			
0.0918	5874.36	3.9970	3.9967	-0.1101	5.97	0.00	-0.750			
0.0922	5898.41	3.9940	3.9941	-0.1402	5.97	0.00	-0.750			
0.0926	5929.36	3.9910	3.9910	-0.1659	5.97	0.00	-0.750			
0.0932	5964.09	3.9880	3.9880	-0.1908	5.97	0.00	-0.750			
0.0938	6005.53	3.9850	3.9850	-0.2172	5.97	0.00	-0.750			
0.0945	6049.14	3.9820	3.9824	-0.2392	5.97	-0.00	-0.750			
0.0953	6097.05	3.9790	3.9789	-0.2618	5.97	-0.00	-0.750			
0.0961	6149.81	3.9760	3.9759	-0.2831	5.97	-0.00	-0.750			
0.0970	6206.08	3.9730	3.9730	-0.3042	5.97	-0.00	-0.750			
0.0979	6266.21	3.9700	3.9700	-0.3269	5.96	-0.01	-0.750			
0.0989	6331.75	3.9670	3.9670	-0.3509	5.96	-0.01	-0.750			
0.1000	6400.84	3.9640	3.9639	-0.3722	5.96	-0.01	-0.750			
0.1012	6474.09	3.9610	3.9610	-0.3969	5.96	-0.01	-0.750			
0.1024	6553.11	3.9580	3.9580	-0.4195	5.96	-0.01	-0.750			
0.1037	6636.69	3.9550	3.9550	-0.4411	5.96	-0.01	-0.750			
0.1051	6725.23	3.9520	3.9519	-0.4585	5.95	-0.02	-0.750			
0.1065	6814.73	3.9490	3.9491	-0.4737	5.95	-0.02	-0.750			
0.1079	6907.80	3.9460	3.9460	-0.4885	5.95	-0.02	-0.750			
0.1094	7001.92	3.9430	3.9430	-0.5057	5.95	-0.02	-0.750			
0.1109	7098.77	3.9400	3.9399	-0.5210	5.96	-0.01	-0.750			
0.1125	7201.32	3.9370	3.9370	-0.5393	5.96	-0.01	-0.750			
0.1142	7307.60	3.9340	3.9340	-0.5612	5.96	-0.01	-0.750			
0.1159	7419.77	3.9310	3.9310	-0.5730	5.96	-0.01	-0.750			
0.1177	7531.83	3.9280	3.9279	-0.5851	5.97	-0.00	-0.750			
0.1195	7645.32	3.9250	3.9254	-0.5961	5.97	0.00	-0.750			
0.1212	7759.53	3.9220	3.9220	-0.6077	5.97	0.00	-0.750			
0.1231	7876.52	3.9190	3.9188	-0.6166	5.97	0.00	-0.750			
0.1249	7994.50	3.9160	3.9161	-0.6317	5.97	0.00	-0.750			
0.1269	8119.70	3.9130	3.9129	-0.6403	5.97	0.00	-0.750			
0.1288	8244.35	3.9100	3.9100	-0.6469	5.97	0.00	-0.750			
0.1308	8370.11	3.9070	3.9067	-0.6477	5.97	0.00	-0.750			
0.1327	8494.52	3.9040	3.9041	-0.6463	5.97	0.00	-0.750			
0.1347	8618.36	3.9010	3.9009	-0.6501	5.97	0.00	-0.750			
0.1366	8742.78	3.8980	3.8980	-0.6522	5.97	0.00	-0.750			
0.1385	8866.67	3.8950	3.8949	-0.6595	5.97	0.00	-0.750			
0.1406	8998.11	3.8920	3.8920	-0.6767	5.97	0.00	-0.750			
0.1427	9130.56	3.8890	3.8887	-0.6796	5.97	0.00	-0.750			
0.1447	9262.46	3.8860	3.8865	-0.6825	5.97	0.00	-0.750			
0.1468	9395.05	3.8830	3.8828	-0.6830	5.98	0.01	-0.750			
0.1488	9523.16	3.8800	3.8801	-0.6885	5.98	0.01	-0.750			
0.1508	9651.08	3.8770	3.8770	-0.6807	5.99	0.02	-0.750			
0.1529	9788.66	3.8740	3.8739	-0.6923	6.00	0.03	-0.750			
0.1550	9922.52	3.8710	3.8710	-0.6947	6.00	0.03	-0.750			
0.1571	10056.68	3.8680	3.8685	-0.6947	6.01	0.04	-0.750			
0.1592	10190.03	3.8650	3.8651	-0.6963	6.01	0.04	-0.750			
0.1613	10321.45	3.8620	3.8619	-0.6998	6.02	0.05	-0.750			
0.1634	10455.35	3.8590	3.8589	-0.7009	6.02	0.05	-0.750			
0.1655	10591.36	3.8560	3.8560	-0.7002	6.02	0.05	-0.750			
0.1676	10726.07	3.8530	3.8531	-0.6998	6.03	0.06	-0.750			
0.1697	10861.02	3.8500	3.8504	-0.7020	6.03	0.06	-0.750			
0.1718	10996.21	3.8470	3.8466	-0.7023	6.03	0.06	-0.750			
0.1739	11127.36	3.8440	3.8441	-0.7026	6.04	0.07	-0.750			
0.1760	11263.24	3.8410	3.8411	-0.7040	6.04	0.07	-0.750			
0.1781	11400.22	3.8380	3.8380	-0.7090	6.04	0.07	-0.750			
0.1803	11537.09	3.8350	3.8349	-0.7119	6.05	0.08	-0.750			
0.1824	11672.32	3.8320	3.8321	-0.7109	6.05	0.08	-0.750			
0.1845	11809.80	3.8290	3.8288	-0.7055	6.06	0.09	-0.750			
0.1866	11944.27	3.8260	3.8261	-0.7128	6.07	0.10	-0.750			
0.1888	12081.41	3.8230	3.8231	-0.7131	6.08	0.11	-0.750			
0.1909	12219.03	3.8200	3.8199	-0.7181	6.09	0.12	-0.750			
0.1931	12361.31	3.8170	3.8168	-0.6999	6.10	0.13	-0.750			
0.1953	12497.32	3.8140	3.8140	-0.6805	6.11	0.14	-0.750			
0.1973	12626.12	3.8110	3.8111	-0.6626	6.12	0.15	-0.750			
0.1992	12749.82	3.8080	3.8084	-0.6535	6.12	0.15	-0.750			
0.2010	12865.05	3.8050	3.8046	-0.6529	6.13	0.16	-0.750			
0.2030	12990.17	3.8020	3.8017	-0.6689	6.13	0.16	-0.750			
0.2050	13117.03	3.7990	3.7987	-0.6843	6.14	0.17	-0.750			
0.2071	13255.00	3.7960	3.7966	-0.7056	6.14	0.17	-0.750			
0.2094	13398.75	3.7930	3.7929	-0.7301	6.15	0.18	-0.750			
0.2115	13538.85	3.7900	3.7900	-0.7346	6.15	0.18	-0.750			
0.2137	13679.00	3.7870	3.7868	-0.7226	6.16	0.19	-0.750			
0.2159	13820.20	3.7840	3.7840	-0.7302	6.16	0.19	-0.750			
0.2181	13960.45	3.7810	3.7811	-0.7324	6.17	0.20	-0.750			
0.2203	14100.37	3.7780	3.7779	-0.7347	6.17	0.20	-0.750			
0.2225	14241.20	3.7750	3.7748	-0.7378	6.17	0.20	-0.750			
0.2247	14380.17	3.7720	3.7721	-0.7416	6.18	0.21	-0.750			
0.2270	14525.36	3.7690	3.7689	-0.7493	6.18	0.21	-0.750			
0.2293	14672.20	3.7660	3.7660	-0.7558	6.19	0.22	-0.750			
0.2315	14816.97	3.7630	3.7629	-0.7533	6.19	0.22	-0.750			
0.2338	14960.48	3.7600	3.7600	-0.7571	6.19	0.22	-0.750			
0.2360	15103.87	3.7570	3.7571	-0.7644	6.20	0.23	-0.750			
0.2383	15253.47	3.7540	3.7539	-0.7642	6.20	0.23	-0.750			
0.2406	15399.51	3.7510	3.7510	-0.7610	6.20	0.23	-0.750			
0.2430	15549.54	3.7480	3.7481	-0.7661	6.21	0.24	-0.750			
0.2452	15694.74	3.7450	3.7452	-0.7697	6.21	0.24	-0.750			
0.2475	15840.09	3.7420	3.7420	-0.7761	6.22	0.25	-0.750			
0.2498	15988.23	3.7390	3.7386	-0.7840	6.23	0.26	-0.750			
0.2522	16138.29	3.7360	3.7362	-0.7884	6.23	0.26	-0.750			
0.2546	16294.67	3.7330	3.7329	-0.8022	6.24	0.27	-0.750			
0.2571	16451.95	3.7300	3.7304	-0.8122	6.25	0.28	-0.750			
0.2595	16609.82	3.7270	3.7269	-0.8098	6.25	0.28	-0.750			
0.2619	16762.43	3.7240	3.7240	-0.8168	6.26	0.29	-0.750			
0.2644	16922.43	3.7210	3.7210	-0.8141	6.26	0.29	-0.750			
0.2668	17077.29	3.7180	3.7179	-0.8184	6.27	0.30	-0.750			
0.2693	17233.26	3.7150	3.7155	-0.8252	6.27	0.30	-0.750			
0.2717	17386.07	3.7120	3.7119	-0.8490	6.28	0.31	-0.750			
0.2743	17555.02	3.7090	3.7088	-0.8466	6.29	0.32	-0.750			
0.2769	17719.84	3.7060	3.7058	-0.8539	6.29	0.32	-0.750			
0.2795	17887.63	3.7030	3.7030	-0.8685	6.30	0.33	-0.750			
0.2821	18055.80	3.7000	3.7007	-0.8671	6.31	0.34	-0.750			
0.2847	18220.93	3.6970	3.6966	-0.8567	6.31	0.34	-0.750			
0.2872	18383.25	3.6940	3.6940	-0.8640	6.32	0.35	-0.750			
0.2898	18545.45	3.6910	3.6911	-0.8784	6.32	0.35	-0.750			
0.2924	18715.43	3.6880	3.6879	-0.8857	6.33	0.36	-0.750			
0.2951	18887.43	3.6850	3.6851	-0.8831	6.33	0.36	-0.750			
0.2977	19055.94	3.6820	3.6821	-0.8989	6.33	0.36	-0.750			
0.3005	19231.65	3.6790	3.6790	-0.9074	6.33	0.36	-0.750			
0.3032	19406.22	3.6760	3.6759	-0.9138	6.34	0.37	-0.750			
0.3060	19581.29	3.6730	3.6731	-0.9210	6.34	0.37	-0.750			
0.3087	19756.90	3.6700	3.6700	-0.9401	6.34	0.37	-0.750			
0.3116	19943.51	3.6670	3.6670	-0.9388	6.35	0.38	-0.750			
0.3144	20124.71	3.6640	3.6638	-0.9392	6.35	0.38	-0.750			
0.3172	20301.50	3.6610	3.6609	-0.9330	6.36	0.39	-0.750			
0.3201	20484.41	3.6580	3.6583	-0.9469	6.36	0.39	-0.750			
0.3229	20663.49	3.6550	3.6548	-0.9555	6.37	0.40	-0.750			
0.3257	20845.70	3.6520	3.6519	-0.9598	6.37	0.40	-0.750			
0.3286	21029.40	3.6490	3.6490	-0.9604	6.37	0.40	-0.750			
0.3316	21222.69	3.6460	3.6461	-0.9881	6.38	0.41	-0.750			
0.3346	21413.61	3.6430	3.6430	-0.9956	6.38	0.41	-0.750			
0.3376	21606.19	3.6400	3.6400	-0.9991	6.39	0.42	-0.750			
0.3406	21797.46	3.6370	3.6369	-0.9977	6.39	0.42	-0.750			
0.3436	21988.70	3.6340	3.6339	-1.0023	6.40	0.43	-0.750			
0.3466	22183.45	3.6310	3.6310	-1.0164	6.40	0.43	-0.750			
0.3497	22378.91	3.6280	3.6280	-1.0184	6.40	0.43	-0.750			
0.3527	22572.28	3.6250	3.6248	-1.0283	6.41	0.44	-0.750			
0.3558	22770.74	3.6220	3.6220	-1.0378	6.41	0.44	-0.750			
0.3589	22972.00	3.6190	3.6189	-1.0555	6.41	0.44	-0.750			
0.3621	23176.41	3.6160	3.6159	-1.0646	6.41	0.44	-0.750			
0.3654	23382.92	3.6130	3.6131	-1.0674	6.41	0.44	-0.750			
0.3686	23587.56	3.6100	3.6099	-1.0754	6.41	0.44	-0.750			
0.3719	23799.03	3.6070	3.6070	-1.0906	6.41	0.44	-0.750			
0.3751	24009.21	3.6040	3.6039	-1.0879	6.42	0.45	-0.750			
0.3784	24217.35	3.6010	3.6009	-1.0945	6.42	0.45	-0.750			
0.3816	24425.29	3.5980	3.5978	-1.0961	6.43	0.46	-0.750			
0.3849	24635.62	3.5950	3.5950	-1.1154	6.43	0.46	-0.750			
0.3883	24852.11	3.5920	3.5919	-1.1205	6.44	0.47	-0.750			
0.3916	25065.11	3.5890	3.5886	-1.1425	6.44	0.47	-0.750			
0.3952	25292.50	3.5860	3.5862	-1.1586	6.44	0.47	-0.750			
0.3987	25516.65	3.5830	3.5831	-1.1625	6.44	0.47	-0.750			
0.4022	25742.15	3.5800	3.5806	-1.1678	6.45	0.48	-0.750	0.515	1.088	
0.4057	25963.56	3.5770	3.5767	-1.1926	6.45	0.48	-0.750			
0.4092	26189.79	3.5740	3.5739	-1.1836	6.45	0.48	-0.750			
0.4128	26417.22	3.5710	3.5709	-1.1946	6.46	0.49	-0.750			
0.4164	26650.64	3.5680	3.5679	-1.2105	6.47	0.50	-0.750			
0.4200	26882.55	3.5650	3.5652	-1.2253	6.47	0.50	-0.750			
0.4238	27124.91	3.5620	3.5619	-1.2384	6.47	0.50	-0.750			
0.4275	27361.16	3.5590	3.5589	-1.2442	6.48	0.51	-0.750			
0.4312	27598.70	3.5560	3.5561	-1.2681	6.48	0.51	-0.750			
0.4351	27845.78	3.5530	3.5528	-1.2791	6.48	0.51	-0.750			
0.4389	28090.34	3.5500	3.5497	-1.2717	6.49	0.52	-0.750			
0.4427	28331.19	3.5470	3.5471	-1.2840	6.49	0.52	-0.750			
0.4465	28579.16	3.5440	3.5440	-1.3046	6.49	0.52	-0.750			
0.4505	28830.49	3.5410	3.5409	-1.3162	6.49	0.52	-0.750			
0.4544	29078.72	3.5380	3.5378	-1.3488	6.50	0.53	-0.750			
0.4585	29341.53	3.5350	3.5349	-1.3431	6.50	0.53	-0.750			
0.4627	29610.77	3.5320	3.5319	-1.3547	6.51	0.54	-0.750			
0.4667	29870.07	3.5290	3.5289	-1.3737	6.52	0.55	-0.750			
0.4708	30132.79	3.5260	3.5260	-1.3563	6.53	0.56	-0.750			
0.4749	30393.97	3.5230	3.5227	-1.3596	6.54	0.57	-0.750			
0.4789	30646.57	3.5200	3.5204	-1.3731	6.55	0.58	-0.750			
0.4830	30911.42	3.5170	3.5171	-1.3627	6.55	0.58	-0.750			
0.4872	31179.65	3.5140	3.5138	-1.4065	6.56	0.59	-0.750			
0.4913	31446.27	3.5110	3.5110	-1.4267	6.57	0.60	-0.750			
0.4957	31727.31	3.5080	3.5081	-1.4294	6.57	0.60	-0.750			
0.5001	32007.04	3.5050	3.5048	-1.4308	6.59	0.62	-0.750			
0.5043	32277.32	3.5020	3.5018	-1.4322	6.60	0.63	-0.750			
0.5086	32550.12	3.4990	3.4989	-1.4205	6.61	0.64	-0.750			
0.5130	32828.99	3.4960	3.4958	-1.4287	6.62	0.65	-0.750			
0.5171	33096.58	3.4930	3.4930	-1.4412	6.63	0.66	-0.750			
0.5215	33377.00	3.4900	3.4898	-1.4469	6.64	0.67	-0.750			
0.5259	33655.94	3.4870	3.4869	-1.5292	6.65	0.68	-0.750			
0.5304	33946.42	3.4840	3.4845	-1.5659	6.67	0.70	-0.750			
0.5351	34247.72	3.4810	3.4806	-1.6292	6.68	0.71	-0.750			
0.5402	34575.38	3.4780	3.4771	-1.6693	6.70	0.73	-0.750			
0.5454	34908.74	3.4750	3.4761	-1.6491	6.71	0.74	-0.750			
0.5507	35247.02	3.4720	3.4722	-1.6617	6.73	0.76	-0.750			
0.5555	35550.32	3.4690	3.4689	-1.5722	6.75	0.78	-0.750			
0.5600	35842.53	3.4660	3.4658	-1.5178	6.77	0.80	-0.750			
0.5642	36108.86	3.4630	3.4629	-1.4484	6.78	0.81	-0.750			
0.5685	36387.09	3.4600	3.4600	-1.4470	6.81	0.84	-0.750			
0.5729	36663.17	3.4570	3.4570	-1.4420	6.82	0.85	-0.750			
0.5773	36946.41	3.4540	3.4539	-1.4331	6.84	0.87	-0.750			
0.5816	37219.84	3.4510	3.4511	-1.4316	6.86	0.89	-0.750			
0.5858	37493.10	3.4480	3.4480	-1.4106	6.88	0.91	-0.750			
0.5901	37765.95	3.4450	3.4448	-1.4005	6.89	0.92	-0.750			
0.5943	38033.27	3.4420	3.4423	-1.3810	6.91	0.94	-0.750			
0.5984	38295.42	3.4390	3.4390	-1.3630	6.93	0.96	-0.750			
0.6024	38556.54	3.4360	3.4360	-1.3509	6.95	0.98	-0.750			
0.6065	38815.17	3.4330	3.4330	-1.3352	6.97	1.00	-0.750			
0.6104	39066.90	3.4300	3.4300	-1.3197	6.99	1.02	-0.750			
0.6144	39321.31	3.4270	3.4270	-1.3023	7.01	1.04	-0.750			
0.6183	39570.66	3.4240	3.4240	-1.2837	7.02	1.05	-0.750			
0.6221	39816.44	3.4210	3.4210	-1.2545	7.04	1.07	-0.750			
0.6258	40054.40	3.4180	3.4181	-1.2289	7.06	1.09	-0.750			
0.6295	40287.72	3.4150	3.4149	-1.1989	7.08	1.11	-0.750			
0.6330	40514.74	3.4120	3.4121	-1.1731	7.10	1.13	-0.750			
0.6365	40734.75	3.4090	3.4090	-1.1470	7.11	1.14	-0.750			
0.6399	40953.10	3.4060	3.4060	-1.1294	7.13	1.16	-0.750			
0.6433	41169.11	3.4030	3.4030	-1.1049	7.14	1.17	-0.750			
0.6466	41380.60	3.4000	3.4000	-1.0837	7.16	1.19	-0.750			
0.6498	41585.92	3.3970	3.3970	-1.0550	7.18	1.21	-0.750			
0.6529	41787.22	3.3940	3.3939	-1.0306	7.20	1.23	-0.750			
0.6560	41980.86	3.3910	3.3909	-0.9994	7.21	1.24	-0.750			
0.6589	42169.53	3.3880	3.3880	-0.9748	7.23	1.26	-0.750			
0.6618	42353.55	3.3850	3.3850	-0.9510	7.25	1.28	-0.750			
0.6646	42535.35	3.3820	3.3820	-0.9271	7.26	1.29	-0.750			
0.6674	42710.92	3.3790	3.3790	-0.8995	7.28	1.31	-0.750			
0.6700	42881.43	3.3760	3.3760	-0.8785	7.29	1.32	-0.750			
0.6726	43047.68	3.3730	3.3731	-0.8527	7.31	1.34	-0.750			
0.6751	43208.55	3.3700	3.3699	-0.8353	7.33	1.36	-0.750			
0.6776	43367.04	3.3670	3.3669	-0.8095	7.34	1.37	-0.750			
0.6800	43519.99	3.3640	3.3640	-0.7875	7.36	1.39	-0.750			
0.6823	43669.16	3.3610	3.3613	-0.7691	7.37	1.40	-0.750			
0.6846	43815.96	3.3580	3.3578	-0.7493	7.39	1.42	-0.750			
0.6868	43955.88	3.3550	3.3550	-0.7321	7.40	1.43	-0.750			
0.6890	44094.26	3.3520	3.3520	-0.7115	7.42	1.45	-0.750			
0.6911	44231.46	3.3490	3.3490	-0.6976	7.43	1.46	-0.750			
0.6932	44363.39	3.3460	3.3460	-0.6820	7.44	1.47	-0.750			
0.6952	44491.19	3.3430	3.3430	-0.6643	7.46	1.49	-0.750			
0.6971	44617.08	3.3400	3.3399	-0.6480	7.47	1.50	-0.750			
0.6991	44739.45	3.3370	3.3370	-0.6329	7.48	1.51	-0.750			
0.7009	44858.63	3.3340	3.3340	-0.6197	7.50	1.53	-0.750			
0.7028	44977.90	3.3310	3.3310	-0.6083	7.51	1.54	-0.750			
0.7046	45093.84	3.3280	3.3279	-0.5942	7.52	1.55	-0.750			
0.7063	45205.53	3.3250	3.3250	-0.5790	7.54	1.57	-0.750			
0.7080	45315.09	3.3220	3.3221	-0.5664	7.55	1.58	-0.750			
0.7097	45422.94	3.3190	3.3190	-0.5544	7.56	1.59	-0.750			
0.7114	45527.77	3.3160	3.3159	-0.5431	7.57	1.60	-0.750			
0.7130	45631.37	3.3130	3.3130	-0.5428	7.58	1.61	-0.750			
