Ah_balance (normalized)	Ah_balance (mAh)	Voltage - fit (V)	Voltage -  interpolate (V)	dQ/dV (1/V)	Temperature (°C)	Temperature - diff (°C)	Current (C)	R_DC 0ms (mOhm)	R_DC 50ms (mOhm)	R_DC 50 ms PEC (mOhm)
0.1777	11374.43	4.0820	4.0820	0.7770	7.48	1.49	0.750			
0.1800	11520.59	4.0790	4.0791	0.7540	7.48	1.49	0.750			
0.1823	11665.96	4.0760	4.0760	0.7618	7.47	1.48	0.750			
0.1846	11812.75	4.0730	4.0729	0.7703	7.47	1.48	0.750			
0.1869	11961.19	4.0700	4.0700	0.7758	7.47	1.48	0.750			
0.1892	12111.76	4.0670	4.0671	0.7819	7.46	1.47	0.750			
0.1916	12263.67	4.0640	4.0640	0.7883	7.46	1.47	0.750			
0.1940	12417.31	4.0610	4.0610	0.7931	7.46	1.47	0.750			
0.1964	12567.76	4.0580	4.0580	0.7895	7.45	1.46	0.750			
0.1987	12719.30	4.0550	4.0550	0.7940	7.45	1.46	0.750			
0.2011	12873.23	4.0520	4.0520	0.7912	7.44	1.45	0.750			
0.2035	13024.17	4.0490	4.0490	0.7958	7.44	1.45	0.750			
0.2059	13177.27	4.0460	4.0460	0.7988	7.44	1.45	0.750			
0.2083	13329.95	4.0430	4.0430	0.8024	7.43	1.44	0.750			
0.2107	13484.63	4.0400	4.0399	0.8057	7.43	1.44	0.750			
0.2131	13639.85	4.0370	4.0371	0.8091	7.43	1.44	0.750			
0.2155	13794.89	4.0340	4.0340	0.8066	7.42	1.43	0.750			
0.2180	13950.12	4.0310	4.0311	0.8125	7.42	1.43	0.750			
0.2204	14104.84	4.0280	4.0281	0.8129	7.41	1.42	0.750			
0.2228	14260.63	4.0250	4.0247	0.8196	7.41	1.42	0.750			
0.2253	14420.36	4.0220	4.0221	0.8197	7.40	1.41	0.750			
0.2278	14578.03	4.0190	4.0191	0.8274	7.40	1.41	0.750			
0.2303	14739.16	4.0160	4.0160	0.8341	7.39	1.40	0.750			
0.2328	14899.04	4.0130	4.0130	0.8311	7.39	1.40	0.750			
0.2353	15057.82	4.0100	4.0099	0.8340	7.38	1.39	0.750			
0.2378	15220.10	4.0070	4.0071	0.8344	7.37	1.38	0.750			
0.2403	15379.99	4.0040	4.0040	0.8380	7.37	1.38	0.750			
0.2428	15542.05	4.0010	4.0010	0.8419	7.36	1.37	0.750			
0.2453	15701.93	3.9980	3.9981	0.8417	7.36	1.37	0.750			
0.2479	15864.29	3.9950	3.9949	0.8465	7.35	1.36	0.750			
0.2504	16028.49	3.9920	3.9920	0.8479	7.35	1.36	0.750			
0.2530	16191.06	3.9890	3.9890	0.8488	7.34	1.35	0.750			
0.2555	16352.92	3.9860	3.9861	0.8617	7.34	1.35	0.750			
0.2581	16518.85	3.9830	3.9830	0.8638	7.33	1.34	0.750			
0.2607	16685.84	3.9800	3.9800	0.8694	7.33	1.34	0.750			
0.2633	16854.32	3.9770	3.9771	0.8718	7.32	1.33	0.750			
0.2660	17023.40	3.9740	3.9741	0.8768	7.32	1.33	0.750			
0.2686	17191.32	3.9710	3.9710	0.8819	7.32	1.33	0.750			
0.2712	17359.53	3.9680	3.9680	0.8829	7.31	1.32	0.750			
0.2739	17527.94	3.9650	3.9650	0.8850	7.31	1.32	0.750			
0.2766	17700.80	3.9620	3.9620	0.8889	7.30	1.31	0.750			
0.2792	17870.82	3.9590	3.9591	0.8920	7.29	1.30	0.750			
0.2819	18042.26	3.9560	3.9561	0.9022	7.28	1.29	0.750			
0.2846	18215.24	3.9530	3.9528	0.9052	7.27	1.28	0.750			
0.2874	18391.31	3.9500	3.9500	0.8991	7.27	1.28	0.750			
0.2901	18563.30	3.9470	3.9471	0.9103	7.26	1.27	0.750			
0.2928	18738.84	3.9440	3.9441	0.9208	7.26	1.27	0.750			
0.2956	18916.96	3.9410	3.9410	0.9276	7.25	1.26	0.750			
0.2983	19092.58	3.9380	3.9378	0.9276	7.25	1.26	0.750			
0.3011	19271.23	3.9350	3.9351	0.9323	7.24	1.25	0.750			
0.3039	19450.30	3.9320	3.9321	0.9485	7.23	1.24	0.750			
0.3068	19634.85	3.9290	3.9290	0.9579	7.22	1.23	0.750			
0.3097	19818.60	3.9260	3.9257	0.9564	7.21	1.22	0.750			
0.3126	20005.21	3.9230	3.9231	0.9602	7.21	1.22	0.750			
0.3154	20188.49	3.9200	3.9202	0.9817	7.20	1.21	0.750			
0.3184	20378.92	3.9170	3.9169	0.9911	7.20	1.21	0.750			
0.3214	20569.22	3.9140	3.9139	0.9915	7.19	1.20	0.750			
0.3244	20759.83	3.9110	3.9112	1.0095	7.18	1.19	0.750			
0.3275	20956.91	3.9080	3.9081	1.0095	7.17	1.18	0.750			
0.3305	21149.82	3.9050	3.9050	1.0176	7.16	1.17	0.750			
0.3335	21344.29	3.9020	3.9020	1.0253	7.15	1.16	0.750			
0.3365	21538.77	3.8990	3.8992	1.0191	7.15	1.16	0.750			
0.3396	21737.51	3.8960	3.8960	1.0406	7.14	1.15	0.750			
0.3428	21938.10	3.8930	3.8931	1.0588	7.13	1.14	0.750			
0.3460	22143.72	3.8900	3.8901	1.0694	7.12	1.13	0.750			
0.3493	22352.40	3.8870	3.8869	1.0659	7.12	1.13	0.750			
0.3524	22555.74	3.8840	3.8841	1.0831	7.11	1.12	0.750			
0.3557	22765.46	3.8810	3.8811	1.1018	7.10	1.11	0.750			
0.3590	22978.32	3.8780	3.8778	1.1195	7.09	1.10	0.750			
0.3624	23192.33	3.8750	3.8751	1.1196	7.08	1.09	0.750			
0.3657	23406.34	3.8720	3.8721	1.1366	7.07	1.08	0.750			
0.3692	23628.63	3.8690	3.8691	1.1573	7.05	1.06	0.750			
0.3727	23854.32	3.8660	3.8656	1.1732	7.04	1.05	0.750			
0.3762	24077.20	3.8630	3.8631	1.1846	7.03	1.04	0.750			
0.3798	24307.32	3.8600	3.8601	1.2024	7.02	1.03	0.750			
0.3835	24541.82	3.8570	3.8569	1.2187	7.01	1.02	0.750			
0.3871	24776.43	3.8540	3.8541	1.2283	7.00	1.01	0.750			
0.3908	25012.11	3.8510	3.8511	1.2490	6.99	1.00	0.750			
0.3946	25254.53	3.8480	3.8480	1.2717	6.98	0.99	0.750			
0.3985	25504.62	3.8450	3.8450	1.2756	6.97	0.98	0.750			
0.4022	25742.50	3.8420	3.8422	1.3135	6.96	0.97	0.750			
0.4062	25997.58	3.8390	3.8391	1.3485	6.94	0.95	0.750			
0.4103	26258.48	3.8360	3.8355	1.3943	6.93	0.94	0.750	0.404	0.918	
0.4145	26529.04	3.8330	3.8333	1.4359	6.92	0.93	0.750			
0.4190	26818.59	3.8300	3.8302	1.4640	6.90	0.91	0.750			
0.4235	27104.53	3.8270	3.8270	1.4852	6.89	0.90	0.750			
0.4279	27385.93	3.8240	3.8242	1.4731	6.87	0.88	0.750			
0.4324	27674.81	3.8210	3.8210	1.4820	6.86	0.87	0.750			
0.4369	27961.86	3.8180	3.8181	1.4932	6.84	0.85	0.750			
0.4414	28246.58	3.8150	3.8150	1.5204	6.83	0.84	0.750			
0.4459	28537.07	3.8120	3.8121	1.6061	6.82	0.83	0.750			
0.4508	28850.99	3.8090	3.8087	1.6990	6.80	0.81	0.750			
0.4562	29196.87	3.8060	3.8056	1.7663	6.78	0.79	0.750			
0.4616	29542.79	3.8030	3.8034	1.8224	6.76	0.77	0.750			
0.4673	29908.84	3.8000	3.8001	1.8646	6.75	0.76	0.750			
0.4728	30260.84	3.7970	3.7967	1.8270	6.73	0.74	0.750			
0.4783	30610.37	3.7940	3.7939	1.8501	6.70	0.71	0.750			
0.4838	30960.72	3.7910	3.7912	1.8503	6.68	0.69	0.750			
0.4894	31322.92	3.7880	3.7881	1.8518	6.66	0.67	0.750			
0.4950	31680.37	3.7850	3.7849	1.8760	6.64	0.65	0.750			
0.5007	32043.58	3.7820	3.7822	1.9037	6.62	0.63	0.750			
0.5062	32394.21	3.7790	3.7790	1.9360	6.60	0.61	0.750			
0.5121	32775.22	3.7760	3.7760	1.9647	6.57	0.58	0.750			
0.5182	33164.42	3.7730	3.7731	2.0057	6.55	0.56	0.750			
0.5242	33546.23	3.7700	3.7701	2.0124	6.52	0.53	0.750			
0.5302	33933.14	3.7670	3.7671	2.0426	6.51	0.52	0.750			
0.5363	34322.04	3.7640	3.7641	2.0428	6.49	0.50	0.750			
0.5426	34726.22	3.7610	3.7610	2.0921	6.46	0.47	0.750			
0.5491	35139.33	3.7580	3.7578	2.1054	6.43	0.44	0.750			
0.5553	35541.22	3.7550	3.7550	2.1304	6.41	0.42	0.750			
0.5617	35948.36	3.7520	3.7521	2.1718	6.38	0.39	0.750			
0.5682	36364.90	3.7490	3.7490	2.2136	6.36	0.37	0.750			
0.5750	36801.75	3.7460	3.7461	2.3035	6.34	0.35	0.750			
0.5819	37242.00	3.7430	3.7432	2.3438	6.30	0.31	0.750			
0.5892	37709.74	3.7400	3.7399	2.4220	6.28	0.29	0.750			
0.5966	38181.15	3.7370	3.7370	2.4624	6.25	0.26	0.750			
0.6041	38660.14	3.7340	3.7339	2.5429	6.23	0.24	0.750			
0.6117	39148.00	3.7310	3.7310	2.5927	6.20	0.21	0.750			
0.6198	39664.30	3.7280	3.7281	2.6472	6.16	0.17	0.750			
0.6278	40178.38	3.7250	3.7250	2.6354	6.13	0.14	0.750			
0.6354	40668.59	3.7220	3.7219	2.6329	6.11	0.12	0.750			
0.6434	41176.66	3.7190	3.7189	2.5220	6.09	0.10	0.750			
0.6510	41661.18	3.7160	3.7164	2.3841	6.07	0.08	0.750			
0.6579	42106.98	3.7130	3.7128	2.1866	6.06	0.07	0.750			
0.6639	42492.14	3.7100	3.7102	1.9447	6.04	0.05	0.750			
0.6696	42852.05	3.7070	3.7071	1.7690	6.03	0.04	0.750			
0.6743	43155.68	3.7040	3.7041	1.5625	6.02	0.03	0.750			
0.6787	43439.14	3.7010	3.7010	1.3902	6.01	0.02	0.750			
0.6825	43677.32	3.6980	3.6980	1.2440	6.00	0.01	0.750			
0.6859	43897.11	3.6950	3.6949	1.1258	6.00	0.01	0.750			
0.6890	44093.48	3.6920	3.6921	1.0329	6.00	0.01	0.750			
0.6919	44279.99	3.6890	3.6890	0.9725	5.99	0.00	0.750			
0.6947	44459.47	3.6860	3.6860	0.9286	5.99	0.00	0.750			
0.6974	44631.82	3.6830	3.6826	0.8867	5.99	0.00	0.750			
0.7000	44799.98	3.6800	3.6800	0.8503	5.99	-0.00	0.750			
0.7025	44962.44	3.6770	3.6770	0.8031	5.98	-0.01	0.750			
0.7049	45114.07	3.6740	3.6740	0.7660	5.98	-0.01	0.750			
0.7071	45255.69	3.6710	3.6711	0.7238	5.97	-0.02	0.750			
0.7092	45386.84	3.6680	3.6680	0.6767	5.97	-0.02	0.750			
0.7111	45513.18	3.6650	3.6651	0.6397	5.97	-0.02	0.750			
0.7130	45632.13	3.6620	3.6620	0.6018	5.97	-0.02	0.750			
0.7148	45745.12	3.6590	3.6590	0.5649	5.98	-0.01	0.750			
0.7164	45852.54	3.6560	3.6560	0.5292	5.98	-0.01	0.750			
0.7179	45948.09	3.6530	3.6529	0.4844	5.98	-0.01	0.750			
0.7193	46037.66	3.6500	3.6500	0.4462	5.98	-0.01	0.750			
0.7206	46119.10	3.6470	3.6470	0.4073	5.99	-0.00	0.750			
0.7218	46193.22	3.6440	3.6440	0.3701	5.99	-0.00	0.750			
0.7228	46260.53	3.6410	3.6410	0.3339	5.99	0.00	0.750			
0.7238	46320.71	3.6380	3.6380	0.2991	5.99	0.00	0.750			
0.7246	46376.16	3.6350	3.6350	0.2629	5.99	0.00	0.750			
0.7254	46423.40	3.6320	3.6319	0.2271	5.99	0.00	0.750			
0.7260	46464.02	3.6290	3.6289	0.1907	6.00	0.01	0.750			
0.7265	46497.72	3.6260	3.6262	0.1534	6.00	0.01	0.750			
0.7269	46524.26	3.6230	3.6232	0.1145	6.00	0.01	0.750			
0.7272	46542.32	3.6200	3.6205	0.0736	6.00	0.01	0.750			
0.7274	46553.97	3.6170	3.6176	0.0274	6.00	0.01	0.750			
0.7274	46554.91	3.6140	3.6173	-0.0177	6.00	0.01	0.750			
