Ah_balance (normalized)	Ah_balance (mAh)	Voltage - fit (V)	Voltage -  interpolate (V)	dQ/dV (1/V)	Temperature (°C)	Temperature - diff (°C)	Current (C)	R_DC 0ms (mOhm)	R_DC 50ms (mOhm)	R_DC 50 ms PEC (mOhm)
0.0930	5953.31	4.0020	4.0015	-0.0816	5.98	-0.01	-0.750			
0.0933	5971.91	3.9990	3.9988	-0.1122	5.98	-0.01	-0.750			
0.0937	5997.09	3.9960	3.9959	-0.1414	5.98	-0.01	-0.750			
0.0942	6027.55	3.9930	3.9930	-0.1674	5.98	-0.01	-0.750			
0.0947	6062.39	3.9900	3.9901	-0.1922	5.98	-0.01	-0.750			
0.0953	6101.74	3.9870	3.9871	-0.2163	5.98	-0.01	-0.750			
0.0960	6146.66	3.9840	3.9841	-0.2410	5.98	-0.01	-0.750			
0.0968	6195.03	3.9810	3.9810	-0.2643	5.98	-0.01	-0.750			
0.0976	6247.60	3.9780	3.9779	-0.2879	5.98	-0.01	-0.750			
0.0985	6305.21	3.9750	3.9751	-0.3128	5.99	-0.00	-0.750			
0.0995	6367.51	3.9720	3.9720	-0.3375	5.99	-0.00	-0.750			
0.1005	6435.00	3.9690	3.9690	-0.3632	5.99	-0.00	-0.750			
0.1017	6507.42	3.9660	3.9660	-0.3867	5.99	-0.00	-0.750			
0.1029	6584.00	3.9630	3.9630	-0.4107	5.99	-0.00	-0.750			
0.1041	6665.54	3.9600	3.9600	-0.4332	5.99	-0.00	-0.750			
0.1055	6751.51	3.9570	3.9570	-0.4537	5.99	0.00	-0.750			
0.1069	6840.47	3.9540	3.9540	-0.4746	5.99	0.00	-0.750			
0.1083	6933.17	3.9510	3.9511	-0.4953	5.99	0.00	-0.750			
0.1098	7029.93	3.9480	3.9480	-0.5164	5.99	0.00	-0.750			
0.1114	7131.33	3.9450	3.9449	-0.5396	6.00	0.01	-0.750			
0.1131	7237.87	3.9420	3.9420	-0.5557	6.00	0.01	-0.750			
0.1148	7347.41	3.9390	3.9390	-0.5701	6.00	0.01	-0.750			
0.1165	7459.00	3.9360	3.9360	-0.5892	6.00	0.01	-0.750			
0.1183	7573.22	3.9330	3.9330	-0.6030	6.00	0.01	-0.750			
0.1202	7689.62	3.9300	3.9299	-0.6170	6.01	0.02	-0.750			
0.1220	7809.53	3.9270	3.9270	-0.6306	6.01	0.02	-0.750			
0.1239	7932.42	3.9240	3.9241	-0.6458	6.02	0.03	-0.750			
0.1259	8059.75	3.9210	3.9210	-0.6559	6.02	0.03	-0.750			
0.1279	8188.46	3.9180	3.9179	-0.6637	6.03	0.04	-0.750			
0.1299	8315.29	3.9150	3.9152	-0.6678	6.03	0.04	-0.750			
0.1319	8443.85	3.9120	3.9120	-0.6752	6.03	0.04	-0.750			
0.1340	8573.34	3.9090	3.9090	-0.6821	6.04	0.05	-0.750			
0.1360	8703.97	3.9060	3.9060	-0.6906	6.04	0.05	-0.750			
0.1381	8838.23	3.9030	3.9030	-0.6984	6.04	0.05	-0.750			
0.1402	8973.88	3.9000	3.9000	-0.7037	6.05	0.06	-0.750			
0.1424	9111.32	3.8970	3.8972	-0.7056	6.05	0.06	-0.750			
0.1445	9245.76	3.8940	3.8940	-0.7086	6.06	0.07	-0.750			
0.1466	9379.75	3.8910	3.8911	-0.7156	6.07	0.08	-0.750			
0.1487	9518.34	3.8880	3.8879	-0.7207	6.08	0.09	-0.750			
0.1509	9657.48	3.8850	3.8849	-0.7208	6.08	0.09	-0.750			
0.1531	9797.67	3.8820	3.8820	-0.7233	6.09	0.10	-0.750			
0.1553	9937.57	3.8790	3.8791	-0.7284	6.10	0.11	-0.750			
0.1575	10077.98	3.8760	3.8759	-0.7261	6.11	0.12	-0.750			
0.1596	10213.29	3.8730	3.8730	-0.7283	6.11	0.12	-0.750			
0.1618	10354.98	3.8700	3.8700	-0.7281	6.12	0.13	-0.750			
0.1640	10496.67	3.8670	3.8669	-0.7321	6.12	0.13	-0.750			
0.1662	10637.04	3.8640	3.8640	-0.7350	6.13	0.14	-0.750			
0.1684	10778.36	3.8610	3.8609	-0.7361	6.14	0.15	-0.750			
0.1706	10919.48	3.8580	3.8579	-0.7342	6.15	0.16	-0.750			
0.1728	11060.54	3.8550	3.8550	-0.7376	6.16	0.17	-0.750			
0.1750	11201.55	3.8520	3.8520	-0.7357	6.17	0.18	-0.750			
0.1773	11344.95	3.8490	3.8490	-0.7389	6.18	0.19	-0.750			
0.1795	11486.67	3.8460	3.8461	-0.7356	6.19	0.20	-0.750			
0.1817	11626.52	3.8430	3.8430	-0.7374	6.20	0.21	-0.750			
0.1839	11768.33	3.8400	3.8399	-0.7369	6.20	0.21	-0.750			
0.1861	11909.20	3.8370	3.8370	-0.7416	6.21	0.22	-0.750			
0.1883	12051.11	3.8340	3.8341	-0.7437	6.22	0.23	-0.750			
0.1906	12195.78	3.8310	3.8310	-0.7515	6.22	0.23	-0.750			
0.1928	12340.89	3.8280	3.8280	-0.7516	6.23	0.24	-0.750			
0.1951	12485.78	3.8250	3.8251	-0.7543	6.24	0.25	-0.750			
0.1974	12631.36	3.8220	3.8220	-0.7495	6.25	0.26	-0.750			
0.1996	12776.69	3.8190	3.8190	-0.7488	6.27	0.28	-0.750			
0.2018	12917.92	3.8160	3.8160	-0.7444	6.28	0.29	-0.750			
0.2041	13060.34	3.8130	3.8130	-0.7454	6.29	0.30	-0.750			
0.2063	13202.24	3.8100	3.8099	-0.7464	6.30	0.31	-0.750			
0.2085	13345.11	3.8070	3.8070	-0.7550	6.31	0.32	-0.750			
0.2108	13490.19	3.8040	3.8040	-0.7586	6.31	0.32	-0.750			
0.2131	13638.12	3.8010	3.8010	-0.7614	6.32	0.33	-0.750			
0.2154	13786.00	3.7980	3.7979	-0.7633	6.33	0.34	-0.750			
0.2177	13932.38	3.7950	3.7952	-0.7641	6.34	0.35	-0.750			
0.2200	14079.34	3.7920	3.7919	-0.7611	6.35	0.36	-0.750			
0.2223	14224.50	3.7890	3.7890	-0.7637	6.36	0.37	-0.750			
0.2246	14371.51	3.7860	3.7860	-0.7630	6.37	0.38	-0.750			
0.2269	14518.82	3.7830	3.7829	-0.7642	6.38	0.39	-0.750			
0.2292	14665.69	3.7800	3.7799	-0.7634	6.39	0.40	-0.750			
0.2314	14810.94	3.7770	3.7770	-0.7655	6.40	0.41	-0.750			
0.2337	14957.17	3.7740	3.7740	-0.7701	6.41	0.42	-0.750			
0.2360	15105.52	3.7710	3.7709	-0.7731	6.42	0.43	-0.750			
0.2383	15253.05	3.7680	3.7680	-0.7734	6.42	0.43	-0.750			
0.2407	15405.10	3.7650	3.7650	-0.7802	6.43	0.44	-0.750			
0.2430	15554.84	3.7620	3.7622	-0.7808	6.44	0.45	-0.750			
0.2454	15704.64	3.7590	3.7590	-0.7823	6.45	0.46	-0.750			
0.2477	15853.98	3.7560	3.7560	-0.7832	6.46	0.47	-0.750			
0.2501	16004.12	3.7530	3.7530	-0.7818	6.47	0.48	-0.750			
0.2524	16154.32	3.7500	3.7500	-0.7892	6.48	0.49	-0.750			
0.2548	16306.20	3.7470	3.7472	-0.7930	6.49	0.50	-0.750			
0.2572	16458.58	3.7440	3.7440	-0.7983	6.50	0.51	-0.750			
0.2596	16611.90	3.7410	3.7409	-0.8031	6.51	0.52	-0.750			
0.2620	16766.90	3.7380	3.7380	-0.8097	6.52	0.53	-0.750			
0.2644	16922.87	3.7350	3.7351	-0.8157	6.54	0.55	-0.750			
0.2669	17084.16	3.7320	3.7319	-0.8066	6.55	0.56	-0.750			
0.2694	17239.01	3.7290	3.7290	-0.7967	6.56	0.57	-0.750			
0.2717	17390.80	3.7260	3.7262	-0.7928	6.56	0.57	-0.750			
0.2740	17538.16	3.7230	3.7233	-0.7904	6.57	0.58	-0.750			
0.2764	17687.84	3.7200	3.7197	-0.7985	6.58	0.59	-0.750			
0.2787	17837.22	3.7170	3.7171	-0.8062	6.59	0.60	-0.750			
0.2811	17992.68	3.7140	3.7141	-0.8319	6.59	0.60	-0.750			
0.2838	18160.78	3.7110	3.7110	-0.8622	6.60	0.61	-0.750			
0.2864	18326.85	3.7080	3.7077	-0.8731	6.61	0.62	-0.750			
0.2890	18496.05	3.7050	3.7051	-0.8763	6.62	0.63	-0.750			
0.2917	18666.58	3.7020	3.7020	-0.8886	6.63	0.64	-0.750			
0.2943	18837.95	3.6990	3.6990	-0.8996	6.64	0.65	-0.750			
0.2971	19013.03	3.6960	3.6958	-0.9026	6.64	0.65	-0.750			
0.2997	19182.92	3.6930	3.6930	-0.9036	6.65	0.66	-0.750			
0.3025	19358.10	3.6900	3.6901	-0.9098	6.65	0.66	-0.750			
0.3052	19534.46	3.6870	3.6872	-0.9206	6.66	0.67	-0.750			
0.3080	19712.34	3.6840	3.6840	-0.9330	6.67	0.68	-0.750			
0.3108	19890.60	3.6810	3.6810	-0.9335	6.67	0.68	-0.750			
0.3136	20070.80	3.6780	3.6780	-0.9433	6.68	0.69	-0.750			
0.3165	20254.71	3.6750	3.6751	-0.9549	6.69	0.70	-0.750			
0.3193	20436.80	3.6720	3.6720	-0.9670	6.69	0.70	-0.750			
0.3222	20623.47	3.6690	3.6690	-0.9770	6.70	0.71	-0.750			
0.3252	20811.17	3.6660	3.6660	-0.9846	6.71	0.72	-0.750			
0.3282	21002.16	3.6630	3.6629	-0.9854	6.72	0.73	-0.750			
0.3312	21193.60	3.6600	3.6600	-1.0030	6.72	0.73	-0.750			
0.3342	21385.64	3.6570	3.6571	-1.0082	6.73	0.74	-0.750			
0.3372	21580.57	3.6540	3.6538	-1.0113	6.73	0.74	-0.750			
0.3402	21772.99	3.6510	3.6510	-1.0089	6.74	0.75	-0.750			
0.3432	21967.54	3.6480	3.6482	-1.0275	6.74	0.75	-0.750			
0.3463	22165.66	3.6450	3.6451	-1.0404	6.75	0.76	-0.750			
0.3495	22367.37	3.6420	3.6417	-1.0518	6.75	0.76	-0.750			
0.3526	22567.76	3.6390	3.6390	-1.0533	6.76	0.77	-0.750			
0.3558	22772.04	3.6360	3.6363	-1.0770	6.76	0.77	-0.750			
0.3592	22985.84	3.6330	3.6329	-1.0854	6.76	0.77	-0.750			
0.3624	23194.47	3.6300	3.6299	-1.0867	6.77	0.78	-0.750			
0.3656	23399.37	3.6270	3.6270	-1.0860	6.77	0.78	-0.750			
0.3689	23609.43	3.6240	3.6240	-1.1025	6.77	0.78	-0.750			
0.3722	23822.89	3.6210	3.6209	-1.1098	6.78	0.79	-0.750			
0.3756	24035.57	3.6180	3.6181	-1.1188	6.78	0.79	-0.750			
0.3789	24249.32	3.6150	3.6151	-1.1276	6.79	0.80	-0.750			
0.3824	24472.04	3.6120	3.6119	-1.1550	6.79	0.80	-0.750			
0.3859	24696.27	3.6090	3.6088	-1.1588	6.79	0.80	-0.750			
0.3894	24919.90	3.6060	3.6059	-1.1635	6.79	0.80	-0.750			
0.3928	25140.43	3.6030	3.6034	-1.1868	6.79	0.80	-0.750			
0.3965	25375.13	3.6000	3.5999	-1.1976	6.80	0.81	-0.750			
0.4001	25606.93	3.5970	3.5968	-1.1949	6.80	0.81	-0.750			
0.4036	25832.53	3.5940	3.5940	-1.1916	6.81	0.82	-0.750			
0.4073	26067.37	3.5910	3.5917	-1.2231	6.81	0.82	-0.750	0.477	1.049	
0.4110	26304.33	3.5880	3.5880	-1.2285	6.82	0.83	-0.750			
0.4146	26537.49	3.5850	3.5848	-1.2396	6.82	0.83	-0.750			
0.4183	26773.17	3.5820	3.5822	-1.2455	6.82	0.83	-0.750			
0.4222	27019.33	3.5790	3.5790	-1.2715	6.82	0.83	-0.750			
0.4260	27262.22	3.5760	3.5759	-1.2823	6.83	0.84	-0.750			
0.4298	27507.13	3.5730	3.5733	-1.2910	6.83	0.84	-0.750			
0.4338	27762.85	3.5700	3.5699	-1.3100	6.83	0.84	-0.750			
0.4378	28016.86	3.5670	3.5669	-1.3219	6.83	0.84	-0.750			
0.4417	28269.40	3.5640	3.5643	-1.3346	6.83	0.84	-0.750			
0.4457	28527.07	3.5610	3.5609	-1.3514	6.83	0.84	-0.750			
0.4498	28786.82	3.5580	3.5579	-1.3665	6.83	0.84	-0.750			
0.4539	29048.71	3.5550	3.5551	-1.3820	6.83	0.84	-0.750			
0.4581	29316.85	3.5520	3.5519	-1.4008	6.84	0.85	-0.750			
0.4624	29594.43	3.5490	3.5490	-1.4184	6.84	0.85	-0.750			
0.4667	29867.53	3.5460	3.5461	-1.4304	6.85	0.86	-0.750			
0.4710	30141.19	3.5430	3.5429	-1.4425	6.85	0.86	-0.750			
0.4753	30421.82	3.5400	3.5400	-1.4536	6.85	0.86	-0.750			
0.4797	30701.27	3.5370	3.5373	-1.4667	6.85	0.86	-0.750			
0.4841	30985.23	3.5340	3.5341	-1.4655	6.85	0.86	-0.750			
0.4886	31268.13	3.5310	3.5310	-1.4891	6.85	0.86	-0.750			
0.4930	31553.12	3.5280	3.5281	-1.4981	6.85	0.86	-0.750			
0.4976	31843.31	3.5250	3.5249	-1.5096	6.86	0.87	-0.750			
0.5021	32132.68	3.5220	3.5220	-1.5094	6.87	0.88	-0.750			
0.5066	32424.59	3.5190	3.5188	-1.5257	6.87	0.88	-0.750			
0.5112	32718.05	3.5160	3.5162	-1.5396	6.88	0.89	-0.750			
0.5159	33016.55	3.5130	3.5129	-1.5434	6.89	0.90	-0.750			
0.5205	33313.35	3.5100	3.5099	-1.5414	6.89	0.90	-0.750			
0.5251	33609.05	3.5070	3.5069	-1.5494	6.89	0.90	-0.750			
0.5298	33907.08	3.5040	3.5040	-1.5455	6.89	0.90	-0.750			
0.5344	34202.04	3.5010	3.5009	-1.5390	6.90	0.91	-0.750			
0.5390	34496.23	3.4980	3.4979	-1.5368	6.90	0.91	-0.750			
0.5436	34793.19	3.4950	3.4950	-1.5375	6.91	0.92	-0.750			
0.5483	35088.04	3.4920	3.4920	-1.5428	6.92	0.93	-0.750			
0.5529	35384.66	3.4890	3.4889	-1.5407	6.93	0.94	-0.750			
0.5575	35677.08	3.4860	3.4860	-1.5370	6.93	0.94	-0.750			
0.5621	35977.48	3.4830	3.4829	-1.5347	6.94	0.95	-0.750			
0.5667	36270.63	3.4800	3.4801	-1.5352	6.95	0.96	-0.750			
0.5714	36566.53	3.4770	3.4770	-1.5155	6.96	0.97	-0.750			
0.5759	36859.51	3.4740	3.4739	-1.5188	6.96	0.97	-0.750			
0.5805	37150.60	3.4710	3.4712	-1.5067	6.97	0.98	-0.750			
0.5850	37438.16	3.4680	3.4679	-1.4905	6.99	1.00	-0.750			
0.5894	37721.66	3.4650	3.4650	-1.4865	7.00	1.01	-0.750			
0.5939	38008.61	3.4620	3.4620	-1.4741	7.01	1.02	-0.750			
0.5983	38292.57	3.4590	3.4589	-1.4603	7.02	1.03	-0.750			
0.6027	38570.58	3.4560	3.4559	-1.4515	7.03	1.04	-0.750			
0.6070	38844.97	3.4530	3.4530	-1.4298	7.04	1.05	-0.750			
0.6113	39122.25	3.4500	3.4499	-1.4198	7.05	1.06	-0.750			
0.6155	39390.56	3.4470	3.4469	-1.4076	7.06	1.07	-0.750			
0.6197	39658.11	3.4440	3.4440	-1.3816	7.08	1.09	-0.750			
0.6239	39927.49	3.4410	3.4409	-1.3688	7.09	1.10	-0.750			
0.6279	40187.83	3.4380	3.4380	-1.3558	7.10	1.11	-0.750			
0.6320	40444.96	3.4350	3.4350	-1.3269	7.11	1.12	-0.750			
0.6360	40701.89	3.4320	3.4319	-1.3055	7.12	1.13	-0.750			
0.6398	40949.98	3.4290	3.4290	-1.2772	7.13	1.14	-0.750			
0.6436	41191.19	3.4260	3.4261	-1.2511	7.14	1.15	-0.750			
0.6473	41430.02	3.4230	3.4230	-1.2325	7.15	1.16	-0.750			
0.6510	41663.68	3.4200	3.4199	-1.2072	7.17	1.18	-0.750			
0.6545	41888.58	3.4170	3.4172	-1.1838	7.19	1.20	-0.750			
0.6581	42120.12	3.4140	3.4139	-1.1603	7.20	1.21	-0.750			
0.6616	42344.67	3.4110	3.4110	-1.1325	7.21	1.22	-0.750			
0.6650	42556.97	3.4080	3.4080	-1.0988	7.22	1.23	-0.750			
0.6682	42764.51	3.4050	3.4051	-1.0719	7.23	1.24	-0.750			
0.6713	42965.74	3.4020	3.4019	-1.0458	7.24	1.25	-0.750			
0.6744	43161.72	3.3990	3.3989	-1.0187	7.25	1.26	-0.750			
0.6774	43354.76	3.3960	3.3960	-0.9927	7.26	1.27	-0.750			
0.6804	43547.93	3.3930	3.3932	-0.9823	7.27	1.28	-0.750			
0.6834	43735.93	3.3900	3.3899	-0.9607	7.29	1.30	-0.750			
0.6862	43917.57	3.3870	3.3869	-0.9275	7.31	1.32	-0.750			
0.6889	44090.29	3.3840	3.3840	-0.8972	7.33	1.34	-0.750			
0.6916	44263.38	3.3810	3.3813	-0.8778	7.35	1.36	-0.750			
0.6942	44428.01	3.3780	3.3778	-0.8514	7.36	1.37	-0.750			
0.6967	44588.75	3.3750	3.3750	-0.8290	7.37	1.38	-0.750			
0.6991	44744.31	3.3720	3.3720	-0.8054	7.38	1.39	-0.750			
0.7015	44896.34	3.3690	3.3690	-0.7793	7.39	1.40	-0.750			
0.7039	45047.16	3.3660	3.3661	-0.7649	7.41	1.42	-0.750			
0.7061	45191.34	3.3630	3.3629	-0.7361	7.42	1.43	-0.750			
0.7083	45329.81	3.3600	3.3600	-0.7177	7.43	1.44	-0.750			
0.7104	45464.32	3.3570	3.3570	-0.6978	7.44	1.45	-0.750			
0.7124	45594.52	3.3540	3.3540	-0.6790	7.45	1.46	-0.750			
0.7145	45724.92	3.3510	3.3510	-0.6658	7.46	1.47	-0.750			
0.7164	45851.91	3.3480	3.3480	-0.6518	7.47	1.48	-0.750			
0.7184	45975.07	3.3450	3.3451	-0.6364	7.48	1.49	-0.750			
0.7203	46097.04	3.3420	3.3419	-0.6124	7.48	1.49	-0.750			
0.7221	46213.06	3.3390	3.3390	-0.5995	7.49	1.50	-0.750			
