Ah_balance (normalized)	Ah_balance (mAh)	Voltage - fit (V)	Voltage -  interpolate (V)	dQ/dV (1/V)	Temperature (°C)	Temperature - diff (°C)	Current (C)	R_DC 0ms (mOhm)	R_DC 50ms (mOhm)	R_DC 50 ms PEC (mOhm)
0.1836	11753.02	4.0790	4.0789	0.8090	7.27	1.30	0.750			
0.1860	11905.19	4.0760	4.0761	0.7973	7.27	1.30	0.750			
0.1885	12061.06	4.0730	4.0730	0.8010	7.26	1.29	0.750			
0.1909	12214.55	4.0700	4.0699	0.7996	7.26	1.29	0.750			
0.1932	12367.47	4.0670	4.0670	0.7971	7.25	1.28	0.750			
0.1956	12520.24	4.0640	4.0640	0.7981	7.25	1.28	0.750			
0.1980	12673.15	4.0610	4.0610	0.8027	7.25	1.28	0.750			
0.2004	12828.69	4.0580	4.0579	0.8031	7.24	1.27	0.750			
0.2028	12979.92	4.0550	4.0550	0.8064	7.24	1.27	0.750			
0.2053	13137.10	4.0520	4.0520	0.8195	7.24	1.27	0.750			
0.2077	13294.39	4.0490	4.0490	0.8233	7.23	1.26	0.750			
0.2102	13453.58	4.0460	4.0460	0.8280	7.23	1.26	0.750			
0.2127	13614.70	4.0430	4.0430	0.8261	7.22	1.25	0.750			
0.2152	13773.48	4.0400	4.0401	0.8269	7.22	1.25	0.750			
0.2177	13933.06	4.0370	4.0370	0.8310	7.22	1.25	0.750			
0.2202	14090.43	4.0340	4.0341	0.8273	7.21	1.24	0.750			
0.2226	14249.51	4.0310	4.0310	0.8319	7.21	1.24	0.750			
0.2252	14409.93	4.0280	4.0281	0.8340	7.20	1.23	0.750			
0.2277	14570.65	4.0250	4.0249	0.8419	7.19	1.22	0.750			
0.2302	14735.02	4.0220	4.0220	0.8442	7.19	1.22	0.750			
0.2327	14895.71	4.0190	4.0189	0.8428	7.18	1.21	0.750			
0.2353	15057.10	4.0160	4.0162	0.8458	7.18	1.21	0.750			
0.2378	15220.43	4.0130	4.0130	0.8467	7.17	1.20	0.750			
0.2403	15381.84	4.0100	4.0100	0.8529	7.16	1.19	0.750			
0.2429	15546.27	4.0070	4.0071	0.8563	7.16	1.19	0.750			
0.2455	15712.02	4.0040	4.0038	0.8607	7.15	1.18	0.750			
0.2481	15877.89	4.0010	4.0011	0.8635	7.15	1.18	0.750			
0.2507	16043.49	3.9980	3.9981	0.8650	7.14	1.17	0.750			
0.2533	16209.65	3.9950	3.9950	0.8687	7.14	1.17	0.750			
0.2559	16376.80	3.9920	3.9920	0.8728	7.13	1.16	0.750			
0.2585	16543.82	3.9890	3.9889	0.8737	7.13	1.16	0.750			
0.2612	16713.92	3.9860	3.9860	0.8766	7.12	1.15	0.750			
0.2638	16881.57	3.9830	3.9830	0.8802	7.11	1.14	0.750			
0.2664	17050.16	3.9800	3.9801	0.8831	7.11	1.14	0.750			
0.2691	17220.13	3.9770	3.9770	0.8854	7.10	1.13	0.750			
0.2717	17389.50	3.9740	3.9741	0.8898	7.09	1.12	0.750			
0.2744	17563.09	3.9710	3.9710	0.8869	7.08	1.11	0.750			
0.2771	17733.02	3.9680	3.9680	0.8952	7.08	1.11	0.750			
0.2798	17904.68	3.9650	3.9650	0.8999	7.08	1.11	0.750			
0.2824	18076.00	3.9620	3.9621	0.9029	7.07	1.10	0.750			
0.2852	18250.74	3.9590	3.9591	0.9113	7.07	1.10	0.750			
0.2879	18426.87	3.9560	3.9560	0.9137	7.06	1.09	0.750			
0.2907	18602.17	3.9530	3.9531	0.9212	7.05	1.08	0.750			
0.2935	18781.73	3.9500	3.9500	0.9327	7.04	1.07	0.750			
0.2962	18958.89	3.9470	3.9468	0.9334	7.03	1.06	0.750			
0.2991	19141.78	3.9440	3.9440	0.9288	7.02	1.05	0.750			
0.3019	19319.62	3.9410	3.9410	0.9377	7.01	1.04	0.750			
0.3047	19499.99	3.9380	3.9381	0.9462	7.00	1.03	0.750			
0.3075	19679.44	3.9350	3.9350	0.9529	6.99	1.02	0.750			
0.3104	19862.59	3.9320	3.9322	0.9615	6.99	1.02	0.750			
0.3132	20047.33	3.9290	3.9290	0.9629	6.98	1.01	0.750			
0.3161	20233.40	3.9260	3.9261	0.9762	6.98	1.01	0.750			
0.3191	20424.18	3.9230	3.9231	0.9947	6.97	1.00	0.750			
0.3221	20614.72	3.9200	3.9202	0.9955	6.97	1.00	0.750			
0.3251	20806.43	3.9170	3.9171	1.0056	6.95	0.98	0.750			
0.3281	21000.80	3.9140	3.9140	1.0118	6.94	0.97	0.750			
0.3312	21199.28	3.9110	3.9111	1.0198	6.92	0.95	0.750			
0.3343	21392.58	3.9080	3.9080	1.0168	6.91	0.94	0.750			
0.3373	21588.73	3.9050	3.9050	1.0278	6.90	0.93	0.750			
0.3404	21784.56	3.9020	3.9021	1.0369	6.90	0.93	0.750			
0.3435	21985.70	3.8990	3.8990	1.0527	6.89	0.92	0.750			
0.3468	22193.26	3.8960	3.8960	1.0549	6.89	0.92	0.750			
0.3499	22394.79	3.8930	3.8930	1.0747	6.88	0.91	0.750			
0.3532	22601.66	3.8900	3.8901	1.0890	6.87	0.90	0.750			
0.3564	22810.90	3.8870	3.8871	1.1044	6.86	0.89	0.750			
0.3598	23026.43	3.8840	3.8839	1.1078	6.85	0.88	0.750			
0.3631	23239.23	3.8810	3.8811	1.1236	6.84	0.87	0.750			
0.3665	23455.59	3.8780	3.8781	1.1405	6.83	0.86	0.750			
0.3699	23676.36	3.8750	3.8750	1.1570	6.81	0.84	0.750			
0.3734	23897.62	3.8720	3.8720	1.1533	6.80	0.83	0.750			
0.3769	24118.70	3.8690	3.8691	1.1758	6.79	0.82	0.750			
0.3804	24345.26	3.8660	3.8662	1.2035	6.78	0.81	0.750			
0.3841	24583.91	3.8630	3.8628	1.2130	6.77	0.80	0.750			
0.3877	24813.62	3.8600	3.8602	1.2397	6.76	0.79	0.750			
0.3915	25054.96	3.8570	3.8572	1.2676	6.75	0.78	0.750			
0.3954	25303.10	3.8540	3.8538	1.2949	6.73	0.76	0.750			
0.3993	25555.71	3.8510	3.8511	1.3288	6.72	0.75	0.750			
0.4032	25807.75	3.8480	3.8480	1.3363	6.71	0.74	0.750			
0.4073	26068.88	3.8450	3.8450	1.3588	6.69	0.72	0.750			
0.4115	26335.01	3.8420	3.8420	1.4045	6.69	0.72	0.750			
0.4156	26601.00	3.8390	3.8391	1.4268	6.68	0.71	0.750			
0.4200	26878.96	3.8360	3.8360	1.4650	6.67	0.70	0.750	0.399	0.989	
0.4243	27158.27	3.8330	3.8332	1.4847	6.66	0.69	0.750			
0.4288	27445.63	3.8300	3.8299	1.5274	6.65	0.68	0.750			
0.4335	27745.49	3.8270	3.8266	1.5460	6.63	0.66	0.750			
0.4381	28040.87	3.8240	3.8241	1.5614	6.62	0.65	0.750			
0.4430	28350.60	3.8210	3.8212	1.6038	6.60	0.63	0.750			
0.4477	28654.33	3.8180	3.8177	1.6615	6.59	0.62	0.750			
0.4528	28979.19	3.8150	3.8149	1.6779	6.57	0.60	0.750			
0.4580	29310.33	3.8120	3.8118	1.6995	6.55	0.58	0.750			
0.4632	29642.65	3.8090	3.8096	1.7270	6.54	0.57	0.750			
0.4683	29969.15	3.8060	3.8060	1.7327	6.53	0.56	0.750			
0.4734	30299.78	3.8030	3.8030	1.7429	6.51	0.54	0.750			
0.4786	30631.85	3.8000	3.8001	1.8092	6.50	0.53	0.750			
0.4843	30994.20	3.7970	3.7970	1.8494	6.48	0.51	0.750			
0.4899	31355.35	3.7940	3.7937	1.9169	6.47	0.50	0.750			
0.4958	31732.31	3.7910	3.7908	1.9585	6.45	0.48	0.750			
0.5017	32110.05	3.7880	3.7881	1.9942	6.43	0.46	0.750			
0.5078	32499.28	3.7850	3.7849	2.0264	6.41	0.44	0.750			
0.5140	32895.30	3.7820	3.7821	2.0550	6.39	0.42	0.750			
0.5201	33288.66	3.7790	3.7789	2.0718	6.37	0.40	0.750			
0.5265	33692.92	3.7760	3.7760	2.1110	6.35	0.38	0.750			
0.5328	34100.59	3.7730	3.7730	2.1565	6.33	0.36	0.750			
0.5392	34511.86	3.7700	3.7701	2.1581	6.31	0.34	0.750			
0.5458	34931.51	3.7670	3.7669	2.1990	6.29	0.32	0.750			
0.5525	35357.00	3.7640	3.7639	2.2471	6.27	0.30	0.750			
0.5593	35795.76	3.7610	3.7611	2.2994	6.26	0.29	0.750			
0.5661	36233.03	3.7580	3.7580	2.3373	6.23	0.26	0.750			
0.5733	36688.61	3.7550	3.7550	2.3811	6.20	0.23	0.750			
0.5806	37161.25	3.7520	3.7521	2.3897	6.18	0.21	0.750			
0.5877	37615.19	3.7490	3.7491	2.4808	6.16	0.19	0.750			
0.5954	38107.95	3.7460	3.7459	2.5636	6.15	0.18	0.750			
0.6033	38612.43	3.7430	3.7432	2.6801	6.12	0.15	0.750			
0.6116	39143.53	3.7400	3.7399	2.7479	6.09	0.12	0.750			
0.6196	39656.20	3.7370	3.7370	2.7805	6.07	0.10	0.750			
0.6284	40218.11	3.7340	3.7340	2.8981	6.05	0.08	0.750			
0.6373	40785.18	3.7310	3.7309	2.9786	6.02	0.05	0.750			
0.6462	41357.03	3.7280	3.7280	3.0317	6.01	0.04	0.750			
0.6555	41953.34	3.7250	3.7249	2.9547	6.00	0.03	0.750			
0.6640	42495.52	3.7220	3.7219	2.8185	5.98	0.01	0.750			
0.6724	43032.63	3.7190	3.7190	2.6340	5.97	-0.00	0.750			
0.6802	43534.19	3.7160	3.7162	2.4730	5.96	-0.01	0.750			
0.6870	43970.94	3.7130	3.7128	2.1731	5.96	-0.01	0.750			
0.6932	44363.69	3.7100	3.7102	1.8970	5.95	-0.02	0.750			
0.6983	44690.71	3.7070	3.7074	1.6574	5.95	-0.02	0.750			
0.7029	44988.34	3.7040	3.7040	1.4429	5.95	-0.02	0.750			
0.7067	45231.42	3.7010	3.7010	1.2646	5.95	-0.02	0.750			
0.7101	45446.44	3.6980	3.6979	1.1184	5.95	-0.02	0.750			
0.7132	45642.32	3.6950	3.6951	1.0168	5.95	-0.02	0.750			
0.7160	45824.94	3.6920	3.6920	0.9409	5.96	-0.01	0.750			
0.7187	45997.37	3.6890	3.6890	0.8811	5.96	-0.01	0.750			
0.7212	46158.56	3.6860	3.6858	0.8272	5.96	-0.01	0.750			
0.7236	46311.93	3.6830	3.6830	0.7765	5.96	-0.01	0.750			
0.7259	46456.85	3.6800	3.6801	0.7282	5.96	-0.01	0.750			
0.7281	46595.41	3.6770	3.6771	0.6728	5.97	-0.00	0.750			
0.7300	46719.62	3.6740	3.6739	0.6194	5.97	-0.00	0.750			
0.7317	46831.82	3.6710	3.6711	0.5652	5.97	-0.00	0.750			
0.7333	46933.62	3.6680	3.6679	0.5123	5.97	-0.00	0.750			
0.7348	47026.31	3.6650	3.6651	0.4639	5.97	0.00	0.750			
0.7361	47110.51	3.6620	3.6621	0.4191	5.97	0.00	0.750			
0.7373	47185.53	3.6590	3.6590	0.3757	5.97	0.00	0.750			
0.7384	47254.74	3.6560	3.6559	0.3385	5.97	0.00	0.750			
0.7393	47313.36	3.6530	3.6530	0.2961	5.97	0.00	0.750			
0.7401	47367.40	3.6500	3.6499	0.2584	5.98	0.01	0.750			
0.7408	47413.79	3.6470	3.6469	0.2217	5.98	0.01	0.750			
0.7415	47453.01	3.6440	3.6440	0.1842	5.98	0.01	0.750			
0.7420	47485.22	3.6410	3.6411	0.1459	5.98	0.01	0.750			
0.7423	47509.63	3.6380	3.6384	0.1060	5.98	0.01	0.750			
0.7426	47526.67	3.6350	3.6357	0.0643	5.98	0.01	0.750			
0.7427	47535.10	3.6320	3.6339	0.0197	5.98	0.01	0.751			
