Ah_balance (normalized)	Ah_balance (mAh)	Voltage - fit (V)	Voltage -  interpolate (V)	dQ/dV (1/V)	Temperature (°C)	Temperature - diff (°C)	Current (C)	R_DC 0ms (mOhm)	R_DC 50ms (mOhm)	R_DC 50 ms PEC (mOhm)
0.1760	11266.94	4.0810	4.0811	0.7074	7.48	1.49	0.750			
0.1783	11408.79	4.0780	4.0780	0.7449	7.48	1.49	0.750			
0.1805	11552.94	4.0750	4.0744	0.7571	7.47	1.48	0.750			
0.1828	11700.71	4.0720	4.0723	0.7653	7.46	1.47	0.750			
0.1851	11849.04	4.0690	4.0690	0.7706	7.45	1.46	0.750			
0.1874	11996.36	4.0660	4.0660	0.7697	7.45	1.46	0.750			
0.1897	12142.27	4.0630	4.0632	0.7700	7.44	1.45	0.750			
0.1920	12290.98	4.0600	4.0600	0.7745	7.43	1.44	0.750			
0.1944	12439.82	4.0570	4.0571	0.7862	7.43	1.44	0.750			
0.1968	12592.98	4.0540	4.0541	0.7867	7.42	1.43	0.750			
0.1991	12745.56	4.0510	4.0511	0.7951	7.41	1.42	0.750			
0.2016	12903.22	4.0480	4.0479	0.8070	7.40	1.41	0.750			
0.2039	13052.60	4.0450	4.0452	0.7921	7.39	1.40	0.750			
0.2063	13204.57	4.0420	4.0422	0.7967	7.39	1.40	0.750			
0.2087	13359.01	4.0390	4.0391	0.8007	7.38	1.39	0.750			
0.2111	13510.08	4.0360	4.0360	0.7969	7.38	1.39	0.750			
0.2135	13665.16	4.0330	4.0330	0.8043	7.37	1.38	0.750			
0.2159	13817.95	4.0300	4.0301	0.8103	7.36	1.37	0.750			
0.2184	13975.48	4.0270	4.0266	0.8141	7.36	1.37	0.750			
0.2208	14133.64	4.0240	4.0241	0.8200	7.35	1.36	0.750			
0.2233	14289.89	4.0210	4.0210	0.8154	7.34	1.35	0.750			
0.2257	14446.97	4.0180	4.0182	0.8221	7.34	1.35	0.750			
0.2281	14601.35	4.0150	4.0150	0.8124	7.33	1.34	0.750			
0.2307	14762.38	4.0120	4.0115	0.8175	7.32	1.33	0.750			
0.2331	14917.61	4.0090	4.0093	0.8197	7.31	1.32	0.750			
0.2356	15076.07	4.0060	4.0062	0.8264	7.31	1.32	0.750			
0.2381	15235.33	4.0030	4.0031	0.8384	7.30	1.31	0.750			
0.2406	15396.53	4.0000	4.0004	0.8346	7.30	1.31	0.750			
0.2431	15556.60	3.9970	3.9967	0.8415	7.29	1.30	0.750			
0.2457	15722.85	3.9940	3.9940	0.8439	7.28	1.29	0.750			
0.2482	15884.88	3.9910	3.9911	0.8557	7.27	1.28	0.750			
0.2507	16047.75	3.9880	3.9880	0.8663	7.26	1.27	0.750			
0.2534	16216.14	3.9850	3.9850	0.8633	7.26	1.27	0.750			
0.2560	16383.94	3.9820	3.9818	0.8636	7.25	1.26	0.750			
0.2586	16553.02	3.9790	3.9790	0.8681	7.24	1.25	0.750			
0.2612	16715.98	3.9760	3.9764	0.8640	7.24	1.25	0.750			
0.2637	16879.96	3.9730	3.9730	0.8656	7.24	1.25	0.750			
0.2663	17042.80	3.9700	3.9701	0.8608	7.23	1.24	0.750			
0.2689	17207.05	3.9670	3.9676	0.8691	7.23	1.24	0.750			
0.2715	17378.97	3.9640	3.9645	0.8882	7.22	1.23	0.750			
0.2743	17555.09	3.9610	3.9611	0.9063	7.21	1.22	0.750			
0.2771	17734.68	3.9580	3.9578	0.8918	7.20	1.21	0.750			
0.2797	17900.96	3.9550	3.9549	0.8879	7.19	1.20	0.750			
0.2824	18072.28	3.9520	3.9523	0.8983	7.19	1.20	0.750			
0.2851	18243.80	3.9490	3.9491	0.9020	7.18	1.19	0.750			
0.2878	18417.22	3.9460	3.9462	0.9093	7.18	1.19	0.750			
0.2905	18589.69	3.9430	3.9431	0.9213	7.17	1.18	0.750			
0.2932	18767.97	3.9400	3.9402	0.9242	7.17	1.18	0.750			
0.2962	18956.67	3.9370	3.9369	0.9282	7.16	1.17	0.750			
0.2988	19123.80	3.9340	3.9341	0.9440	7.15	1.16	0.750			
0.3016	19303.92	3.9310	3.9312	0.9724	7.14	1.15	0.750			
0.3046	19491.40	3.9280	3.9278	0.9891	7.13	1.14	0.750			
0.3076	19688.13	3.9250	3.9251	0.9985	7.13	1.14	0.750			
0.3106	19880.52	3.9220	3.9222	0.9990	7.12	1.13	0.750			
0.3137	20076.50	3.9190	3.9194	1.0086	7.12	1.13	0.750			
0.3168	20272.22	3.9160	3.9160	1.0070	7.11	1.12	0.750			
0.3196	20454.71	3.9130	3.9132	0.9884	7.10	1.11	0.750			
0.3226	20648.03	3.9100	3.9102	0.9933	7.09	1.10	0.750			
0.3256	20839.82	3.9070	3.9071	1.0115	7.09	1.10	0.750			
0.3287	21038.40	3.9040	3.9040	1.0260	7.08	1.09	0.750			
0.3318	21232.30	3.9010	3.9010	1.0055	7.07	1.08	0.750			
0.3348	21427.45	3.8980	3.8982	1.0302	7.06	1.07	0.750			
0.3379	21628.46	3.8950	3.8950	1.0434	7.05	1.06	0.750			
0.3411	21829.84	3.8920	3.8921	1.0542	7.04	1.05	0.750			
0.3443	22038.01	3.8890	3.8892	1.0450	7.03	1.04	0.750			
0.3474	22234.79	3.8860	3.8860	1.0586	7.02	1.03	0.750			
0.3506	22438.29	3.8830	3.8831	1.0769	7.01	1.02	0.750			
0.3538	22646.24	3.8800	3.8803	1.0931	7.00	1.01	0.750			
0.3572	22859.72	3.8770	3.8770	1.0868	6.99	1.00	0.750			
0.3604	23067.41	3.8740	3.8742	1.1215	6.98	0.99	0.750			
0.3638	23282.48	3.8710	3.8711	1.1424	6.97	0.98	0.750			
0.3673	23509.68	3.8680	3.8676	1.1507	6.96	0.97	0.750			
0.3708	23730.69	3.8650	3.8652	1.1608	6.95	0.96	0.750			
0.3743	23956.10	3.8620	3.8622	1.1857	6.93	0.94	0.750			
0.3779	24187.05	3.8590	3.8591	1.2071	6.92	0.93	0.750			
0.3816	24420.53	3.8560	3.8560	1.1988	6.91	0.92	0.750			
0.3851	24648.02	3.8530	3.8531	1.2239	6.89	0.90	0.750			
0.3888	24884.72	3.8500	3.8501	1.2569	6.88	0.89	0.750			
0.3928	25136.52	3.8470	3.8460	1.2560	6.87	0.88	0.750			
0.3965	25373.30	3.8440	3.8441	1.2932	6.86	0.87	0.750			
0.4003	25620.21	3.8410	3.8414	1.3425	6.85	0.86	0.750			
0.4045	25885.42	3.8380	3.8379	1.3814	6.83	0.84	0.750	0.294	0.804	
0.4086	26151.48	3.8350	3.8355	1.3949	6.82	0.83	0.750			
0.4128	26420.92	3.8320	3.8325	1.4360	6.81	0.82	0.750			
0.4175	26717.02	3.8290	3.8286	1.4513	6.79	0.80	0.750			
0.4217	26991.14	3.8260	3.8261	1.4826	6.77	0.78	0.750			
0.4260	27263.89	3.8230	3.8233	1.4884	6.76	0.77	0.750			
0.4306	27560.96	3.8200	3.8196	1.5061	6.74	0.75	0.750			
0.4352	27853.91	3.8170	3.8173	1.5441	6.72	0.73	0.750			
0.4398	28149.24	3.8140	3.8142	1.5341	6.71	0.72	0.750			
0.4445	28445.83	3.8110	3.8106	1.5844	6.69	0.70	0.750			
0.4492	28746.10	3.8080	3.8082	1.5798	6.67	0.68	0.750			
0.4540	29054.20	3.8050	3.8053	1.6391	6.66	0.67	0.750			
0.4590	29378.63	3.8020	3.8017	1.6830	6.63	0.64	0.750			
0.4640	29699.19	3.7990	3.7993	1.7125	6.61	0.62	0.750			
0.4692	30027.76	3.7960	3.7959	1.7476	6.59	0.60	0.750			
0.4745	30365.88	3.7930	3.7926	1.7844	6.57	0.58	0.750			
0.4800	30720.19	3.7900	3.7897	1.7586	6.55	0.56	0.750			
0.4854	31062.89	3.7870	3.7873	1.7877	6.53	0.54	0.750			
0.4907	31407.00	3.7840	3.7845	1.7954	6.50	0.51	0.750			
0.4960	31742.41	3.7810	3.7805	1.8107	6.48	0.49	0.750			
0.5013	32082.50	3.7780	3.7781	1.8701	6.46	0.47	0.750			
0.5070	32447.53	3.7750	3.7749	1.8583	6.43	0.44	0.750			
0.5129	32828.30	3.7720	3.7720	1.8670	6.41	0.42	0.750			
0.5183	33174.01	3.7690	3.7693	1.8669	6.39	0.40	0.750			
0.5238	33526.20	3.7660	3.7662	1.8457	6.37	0.38	0.750			
0.5296	33894.48	3.7630	3.7630	1.8870	6.35	0.36	0.750			
0.5355	34271.48	3.7600	3.7598	1.9805	6.33	0.34	0.750			
0.5414	34650.60	3.7570	3.7571	1.9600	6.30	0.31	0.750			
0.5474	35033.47	3.7540	3.7539	2.0180	6.28	0.29	0.750			
0.5536	35430.95	3.7510	3.7510	2.0090	6.26	0.27	0.750			
0.5599	35831.98	3.7480	3.7484	2.0606	6.24	0.25	0.750			
0.5658	36210.03	3.7450	3.7455	2.1577	6.22	0.23	0.750			
0.5723	36627.94	3.7420	3.7424	2.1939	6.20	0.21	0.750			
0.5790	37055.21	3.7390	3.7390	2.2569	6.17	0.18	0.750			
0.5859	37498.40	3.7360	3.7358	2.2315	6.15	0.16	0.750			
0.5924	37915.25	3.7330	3.7329	2.2741	6.13	0.14	0.750			
0.5993	38354.53	3.7300	3.7303	2.3266	6.11	0.12	0.750			
0.6065	38814.66	3.7270	3.7264	2.3483	6.09	0.10	0.750			
0.6138	39280.04	3.7240	3.7241	2.4993	6.08	0.09	0.750			
0.6215	39778.36	3.7210	3.7212	2.5029	6.06	0.07	0.750			
0.6286	40228.67	3.7180	3.7184	2.2432	6.04	0.05	0.750			
0.6350	40642.54	3.7150	3.7149	2.0395	6.02	0.03	0.750			
0.6407	41004.52	3.7120	3.7126	1.9275	6.01	0.02	0.750			
0.6465	41374.92	3.7090	3.7094	1.8262	6.00	0.01	0.750			
0.6517	41709.84	3.7060	3.7069	1.6190	6.00	0.01	0.750			
0.6563	42001.04	3.7030	3.7041	1.4194	5.99	-0.00	0.750			
0.6604	42262.81	3.7000	3.7012	1.2972	5.98	-0.01	0.750			
0.6638	42480.34	3.6970	3.6983	1.1823	5.98	-0.01	0.750			
0.6669	42678.53	3.6940	3.6937	1.0938	5.97	-0.02	0.750			
0.6701	42885.49	3.6910	3.6925	1.0635	5.97	-0.02	0.750			
0.6733	43094.15	3.6880	3.6889	1.0341	5.96	-0.03	0.750			
0.6766	43299.44	3.6850	3.6857	1.0207	5.96	-0.03	0.750			
0.6796	43493.35	3.6820	3.6824	0.9710	5.95	-0.04	0.750			
0.6824	43670.50	3.6790	3.6792	0.9247	5.95	-0.04	0.750			
0.6850	43841.60	3.6760	3.6762	0.8596	5.95	-0.04	0.750			
0.6875	44001.41	3.6730	3.6732	0.8302	5.96	-0.03	0.750			
0.6900	44158.36	3.6700	3.6700	0.8040	5.96	-0.03	0.750			
0.6923	44305.98	3.6670	3.6672	0.7701	5.96	-0.03	0.750			
0.6945	44449.18	3.6640	3.6641	0.7313	5.96	-0.03	0.750			
0.6967	44590.05	3.6610	3.6610	0.7056	5.96	-0.03	0.750			
0.6988	44723.87	3.6580	3.6581	0.6729	5.96	-0.03	0.750			
0.7008	44850.99	3.6550	3.6552	0.6375	5.97	-0.02	0.750			
0.7027	44970.78	3.6520	3.6519	0.6081	5.97	-0.02	0.750			
0.7044	45081.99	3.6490	3.6491	0.5756	5.97	-0.02	0.750			
0.7061	45190.16	3.6460	3.6461	0.5461	5.97	-0.02	0.750			
0.7077	45293.90	3.6430	3.6430	0.5203	5.97	-0.02	0.750			
0.7092	45391.30	3.6400	3.6400	0.4903	5.98	-0.01	0.750			
0.7107	45481.78	3.6370	3.6371	0.4578	5.98	-0.01	0.750			
0.7120	45567.39	3.6340	3.6339	0.4222	5.98	-0.01	0.750			
0.7132	45645.80	3.6310	3.6309	0.3888	5.98	-0.01	0.750			
0.7143	45716.63	3.6280	3.6281	0.3520	5.98	-0.01	0.750			
0.7153	45782.03	3.6250	3.6249	0.3143	5.99	-0.00	0.750			
0.7162	45839.01	3.6220	3.6220	0.2754	5.99	-0.00	0.750			
0.7170	45887.89	3.6190	3.6191	0.2343	5.99	-0.00	0.750			
0.7176	45928.81	3.6160	3.6163	0.1935	5.99	-0.00	0.750			
0.7182	45963.23	3.6130	3.6131	0.1544	5.99	0.00	0.750			
0.7185	45986.38	3.6100	3.6109	0.1110	5.99	0.00	0.750			
0.7188	46001.30	3.6070	3.6086	0.0740	5.99	0.00	0.750			
0.7189	46012.28	3.6040	3.6063	0.0404	5.99	0.00	0.750			
0.7190	46016.81	3.6010	3.6036	0.0068	5.99	0.00	0.750			
