Ah_balance (normalized)	Ah_balance (mAh)	Voltage - fit (V)	Voltage -  interpolate (V)	dQ/dV (1/V)	Temperature (°C)	Temperature - diff (°C)	Current (C)	R_DC 0ms (mOhm)	R_DC 50ms (mOhm)	R_DC 50 ms PEC (mOhm)
0.0867	5548.23	4.1970	4.1951	0.6448	7.21	1.21	0.707			
0.0897	5739.63	4.1940	4.1984	1.1341	7.21	1.21	0.750	0.388	0.842	
0.0931	5961.33	4.1910	4.1937	1.0913	7.21	1.21	0.750			
0.0964	6167.81	4.1880	4.1892	0.9959	7.21	1.21	0.750			
0.0998	6384.95	4.1850	4.1844	0.8291	7.21	1.21	0.750			
0.1016	6499.28	4.1820	4.1819	0.7254	7.21	1.21	0.750			
0.1037	6639.41	4.1790	4.1790	0.7307	7.21	1.21	0.750			
0.1060	6783.48	4.1760	4.1760	0.7289	7.21	1.21	0.750			
0.1082	6922.82	4.1730	4.1731	0.7298	7.20	1.20	0.750			
0.1103	7062.37	4.1700	4.1700	0.7272	7.20	1.20	0.750			
0.1125	7200.81	4.1670	4.1670	0.7263	7.20	1.20	0.750			
0.1147	7339.42	4.1640	4.1640	0.7275	7.20	1.20	0.750			
0.1169	7478.54	4.1610	4.1610	0.7306	7.20	1.20	0.750			
0.1191	7621.21	4.1580	4.1580	0.7278	7.19	1.19	0.750			
0.1213	7760.43	4.1550	4.1550	0.7353	7.19	1.19	0.750			
0.1235	7900.93	4.1520	4.1521	0.7344	7.18	1.18	0.750			
0.1257	8043.04	4.1490	4.1489	0.7391	7.18	1.18	0.750			
0.1279	8185.59	4.1460	4.1461	0.7403	7.18	1.18	0.750			
0.1301	8328.21	4.1430	4.1431	0.7388	7.18	1.18	0.750			
0.1323	8468.55	4.1400	4.1401	0.7459	7.18	1.18	0.750			
0.1346	8613.49	4.1370	4.1370	0.7449	7.17	1.17	0.750			
0.1368	8756.47	4.1340	4.1339	0.7455	7.17	1.17	0.750			
0.1391	8900.22	4.1310	4.1309	0.7518	7.17	1.17	0.750			
0.1413	9044.74	4.1280	4.1283	0.7542	7.17	1.17	0.750			
0.1436	9192.29	4.1250	4.1249	0.7557	7.16	1.16	0.750			
0.1459	9335.78	4.1220	4.1220	0.7602	7.16	1.16	0.750			
0.1481	9480.19	4.1190	4.1190	0.7589	7.16	1.16	0.750			
0.1504	9628.46	4.1160	4.1160	0.7655	7.15	1.15	0.750			
0.1527	9775.43	4.1130	4.1130	0.7646	7.15	1.15	0.750			
0.1550	9922.07	4.1100	4.1101	0.7641	7.14	1.14	0.750			
0.1573	10068.75	4.1070	4.1070	0.7687	7.14	1.14	0.750			
0.1596	10217.17	4.1040	4.1040	0.7704	7.14	1.14	0.750			
0.1619	10362.99	4.1010	4.1010	0.7680	7.13	1.13	0.750			
0.1642	10511.40	4.0980	4.0980	0.7748	7.13	1.13	0.750			
0.1666	10660.87	4.0950	4.0950	0.7778	7.13	1.13	0.750			
0.1689	10811.07	4.0920	4.0919	0.7792	7.13	1.13	0.750			
0.1712	10959.93	4.0890	4.0891	0.7825	7.13	1.13	0.750			
0.1736	11110.18	4.0860	4.0860	0.7830	7.13	1.13	0.750			
0.1760	11261.70	4.0830	4.0828	0.7880	7.13	1.13	0.750			
0.1783	11412.81	4.0800	4.0800	0.7881	7.13	1.13	0.750			
0.1807	11565.69	4.0770	4.0770	0.7828	7.12	1.12	0.750			
0.1831	11715.85	4.0740	4.0740	0.7900	7.12	1.12	0.750			
0.1854	11867.34	4.0710	4.0710	0.7914	7.12	1.12	0.750			
0.1878	12017.68	4.0680	4.0681	0.7929	7.11	1.11	0.750			
0.1902	12170.78	4.0650	4.0650	0.8005	7.11	1.11	0.750			
0.1926	12327.35	4.0620	4.0620	0.7995	7.10	1.10	0.750			
0.1950	12480.89	4.0590	4.0591	0.8050	7.10	1.10	0.750			
0.1974	12636.62	4.0560	4.0560	0.8119	7.10	1.10	0.750			
0.1998	12789.79	4.0530	4.0531	0.8125	7.09	1.09	0.750			
0.2023	12945.76	4.0500	4.0500	0.8216	7.09	1.09	0.750			
0.2048	13105.01	4.0470	4.0470	0.8223	7.08	1.08	0.750			
0.2073	13264.85	4.0440	4.0440	0.8275	7.08	1.08	0.750			
0.2098	13424.84	4.0410	4.0411	0.8300	7.08	1.08	0.750			
0.2123	13584.01	4.0380	4.0380	0.8281	7.07	1.07	0.750			
0.2147	13742.41	4.0350	4.0350	0.8288	7.07	1.07	0.750			
0.2172	13902.11	4.0320	4.0319	0.8295	7.06	1.06	0.750			
0.2197	14059.66	4.0290	4.0291	0.8341	7.06	1.06	0.750			
0.2222	14221.42	4.0260	4.0260	0.8395	7.05	1.05	0.750			
0.2247	14383.19	4.0230	4.0230	0.8435	7.04	1.04	0.750			
0.2273	14546.01	4.0200	4.0200	0.8437	7.04	1.04	0.750			
0.2298	14707.94	4.0170	4.0170	0.8419	7.03	1.03	0.750			
0.2324	14870.76	4.0140	4.0141	0.8461	7.03	1.03	0.750			
0.2349	15033.08	4.0110	4.0109	0.8480	7.02	1.02	0.750			
0.2374	15194.12	4.0080	4.0080	0.8492	7.01	1.01	0.750			
0.2400	15358.83	4.0050	4.0051	0.8535	7.01	1.01	0.750			
0.2426	15523.23	4.0020	4.0020	0.8549	7.00	1.00	0.750			
0.2451	15687.04	3.9990	3.9990	0.8629	7.00	1.00	0.750			
0.2477	15852.14	3.9960	3.9960	0.8670	7.00	1.00	0.750			
0.2503	16020.01	3.9930	3.9929	0.8716	6.99	0.99	0.750			
0.2529	16187.87	3.9900	3.9900	0.8721	6.99	0.99	0.750			
0.2556	16355.33	3.9870	3.9871	0.8739	6.98	0.98	0.750			
0.2582	16524.19	3.9840	3.9840	0.8791	6.98	0.98	0.750			
0.2608	16691.72	3.9810	3.9810	0.8818	6.97	0.97	0.750			
0.2635	16861.75	3.9780	3.9777	0.8865	6.97	0.97	0.750			
0.2662	17034.58	3.9750	3.9750	0.8868	6.97	0.97	0.750			
0.2688	17204.64	3.9720	3.9721	0.8921	6.96	0.96	0.750			
0.2715	17376.21	3.9690	3.9690	0.8992	6.96	0.96	0.750			
0.2742	17547.89	3.9660	3.9661	0.9046	6.95	0.95	0.750			
0.2769	17720.63	3.9630	3.9628	0.9046	6.95	0.95	0.750			
0.2796	17894.79	3.9600	3.9600	0.9106	6.94	0.94	0.750			
0.2824	18071.88	3.9570	3.9571	0.9202	6.94	0.94	0.750			
0.2852	18249.72	3.9540	3.9540	0.9259	6.94	0.94	0.750			
0.2879	18427.70	3.9510	3.9509	0.9269	6.93	0.93	0.750			
0.2907	18606.39	3.9480	3.9480	0.9268	6.93	0.93	0.750			
0.2935	18783.68	3.9450	3.9451	0.9362	6.92	0.92	0.750			
0.2963	18965.00	3.9420	3.9420	0.9436	6.91	0.91	0.750			
0.2992	19146.08	3.9390	3.9390	0.9490	6.91	0.91	0.750			
0.3020	19328.18	3.9360	3.9359	0.9557	6.90	0.90	0.750			
0.3049	19512.13	3.9330	3.9331	0.9620	6.90	0.90	0.750			
0.3078	19696.89	3.9300	3.9300	0.9738	6.89	0.89	0.750			
0.3107	19884.99	3.9270	3.9271	0.9853	6.89	0.89	0.750			
0.3137	20075.28	3.9240	3.9237	0.9902	6.89	0.89	0.750			
0.3167	20268.46	3.9210	3.9210	0.9961	6.88	0.88	0.750			
0.3197	20460.48	3.9180	3.9181	0.9995	6.87	0.87	0.750			
0.3227	20652.90	3.9150	3.9151	1.0052	6.86	0.86	0.750			
0.3257	20844.61	3.9120	3.9118	1.0074	6.85	0.85	0.750			
0.3287	21038.01	3.9090	3.9090	1.0113	6.85	0.85	0.750			
0.3318	21233.22	3.9060	3.9060	1.0227	6.84	0.84	0.750			
0.3349	21431.44	3.9030	3.9032	1.0395	6.84	0.84	0.750			
0.3380	21631.81	3.9000	3.8998	1.0522	6.83	0.83	0.750			
0.3412	21834.68	3.8970	3.8969	1.0516	6.83	0.83	0.750			
0.3443	22035.10	3.8940	3.8941	1.0641	6.82	0.82	0.750			
0.3475	22240.01	3.8910	3.8910	1.0801	6.82	0.82	0.750			
0.3508	22451.64	3.8880	3.8878	1.0924	6.81	0.81	0.750			
0.3541	22660.11	3.8850	3.8851	1.1055	6.80	0.80	0.750			
0.3574	22872.92	3.8820	3.8821	1.1239	6.80	0.80	0.750			
0.3608	23092.45	3.8790	3.8791	1.1499	6.79	0.79	0.750			
0.3643	23318.25	3.8760	3.8758	1.1522	6.78	0.78	0.750			
0.3678	23541.57	3.8730	3.8730	1.1654	6.77	0.77	0.750			
0.3713	23766.39	3.8700	3.8702	1.1796	6.76	0.76	0.750			
0.3749	23994.88	3.8670	3.8669	1.1905	6.75	0.75	0.750			
0.3785	24222.40	3.8640	3.8640	1.2038	6.75	0.75	0.750			
0.3820	24450.88	3.8610	3.8610	1.2224	6.74	0.74	0.750			
0.3857	24686.24	3.8580	3.8581	1.2515	6.74	0.74	0.750			
0.3896	24934.31	3.8550	3.8548	1.2639	6.73	0.73	0.750			
0.3934	25179.50	3.8520	3.8521	1.2917	6.72	0.72	0.750			
0.3973	25428.37	3.8490	3.8491	1.3123	6.71	0.71	0.750			
0.4013	25683.56	3.8460	3.8456	1.3327	6.70	0.70	0.750			
0.4053	25941.60	3.8430	3.8430	1.3429	6.69	0.69	0.750			
0.4094	26200.37	3.8400	3.8401	1.3724	6.68	0.68	0.750			
0.4135	26465.40	3.8370	3.8370	1.4029	6.67	0.67	0.750			
0.4177	26735.58	3.8340	3.8340	1.4279	6.66	0.66	0.750			
0.4221	27014.71	3.8310	3.8309	1.4546	6.64	0.64	0.750			
0.4265	27296.53	3.8280	3.8279	1.4835	6.63	0.63	0.750			
0.4310	27585.28	3.8250	3.8251	1.5093	6.62	0.62	0.750			
0.4356	27878.23	3.8220	3.8221	1.5341	6.61	0.61	0.750			
0.4402	28172.56	3.8190	3.8189	1.5625	6.60	0.60	0.750			
0.4450	28477.40	3.8160	3.8158	1.5990	6.59	0.59	0.750			
0.4498	28784.73	3.8130	3.8131	1.6405	6.57	0.57	0.750			
0.4548	29107.27	3.8100	3.8102	1.6794	6.56	0.56	0.750			
0.4600	29437.88	3.8070	3.8070	1.6989	6.54	0.54	0.750			
0.4651	29767.56	3.8040	3.8038	1.7333	6.53	0.53	0.750			
0.4704	30107.49	3.8010	3.8012	1.7578	6.51	0.51	0.750			
0.4757	30447.48	3.7980	3.7980	1.7950	6.49	0.49	0.750			
0.4811	30788.81	3.7950	3.7952	1.8348	6.47	0.47	0.750			
0.4866	31143.68	3.7920	3.7922	1.8611	6.46	0.46	0.750			
0.4923	31509.64	3.7890	3.7892	1.9163	6.44	0.44	0.750			
0.4982	31881.74	3.7860	3.7862	1.9497	6.42	0.42	0.750			
0.5040	32255.57	3.7830	3.7829	1.9915	6.40	0.40	0.750			
0.5100	32641.12	3.7800	3.7801	2.0228	6.39	0.39	0.750			
0.5161	33032.69	3.7770	3.7769	2.0849	6.37	0.37	0.750			
0.5226	33445.63	3.7740	3.7740	2.1009	6.35	0.35	0.750			
0.5288	33842.88	3.7710	3.7711	2.1190	6.33	0.33	0.750			
0.5353	34258.37	3.7680	3.7683	2.1374	6.30	0.30	0.750			
0.5416	34662.83	3.7650	3.7648	2.1428	6.29	0.29	0.750			
0.5481	35077.22	3.7620	3.7620	2.1767	6.28	0.28	0.750			
0.5547	35498.15	3.7590	3.7589	2.2004	6.26	0.26	0.750			
0.5614	35927.20	3.7560	3.7561	2.2571	6.24	0.24	0.750			
0.5681	36361.22	3.7530	3.7531	2.2736	6.22	0.22	0.750			
0.5751	36807.87	3.7500	3.7498	2.3001	6.21	0.21	0.750			
0.5820	37248.09	3.7470	3.7470	2.3239	6.19	0.19	0.750			
0.5889	37690.73	3.7440	3.7441	2.3558	6.17	0.17	0.750			
0.5960	38146.61	3.7410	3.7410	2.4161	6.16	0.16	0.750			
0.6034	38620.49	3.7380	3.7378	2.4709	6.14	0.14	0.750			
0.6110	39102.95	3.7350	3.7351	2.5403	6.12	0.12	0.750			
0.6186	39593.05	3.7320	3.7319	2.5766	6.10	0.10	0.750			
0.6264	40088.48	3.7290	3.7292	2.5720	6.09	0.09	0.750			
0.6343	40592.64	3.7260	3.7260	2.5932	6.08	0.08	0.750			
0.6421	41091.33	3.7230	3.7228	2.5462	6.06	0.06	0.750			
0.6496	41577.41	3.7200	3.7199	2.5153	6.05	0.05	0.750			
0.6572	42060.39	3.7170	3.7169	2.4393	6.04	0.04	0.750			
0.6645	42525.24	3.7140	3.7141	2.3116	6.03	0.03	0.750			
0.6713	42961.68	3.7110	3.7110	2.2051	6.02	0.02	0.750			
0.6777	43374.33	3.7080	3.7077	2.0581	6.01	0.01	0.750			
0.6836	43748.51	3.7050	3.7048	1.9053	6.00	0.00	0.750			
0.6891	44101.89	3.7020	3.7020	1.7788	6.00	-0.00	0.750			
0.6942	44427.97	3.6990	3.6991	1.6454	6.00	-0.00	0.750			
0.6988	44726.19	3.6960	3.6963	1.5122	5.99	-0.01	0.750			
0.7031	45001.16	3.6930	3.6931	1.4179	5.99	-0.01	0.750			
0.7073	45266.42	3.6900	3.6900	1.3411	5.98	-0.02	0.750			
0.7111	45511.27	3.6870	3.6868	1.2704	5.97	-0.03	0.750			
0.7148	45745.13	3.6840	3.6840	1.2033	5.97	-0.03	0.750			
0.7182	45964.51	3.6810	3.6812	1.1789	5.96	-0.04	0.750			
0.7217	46185.66	3.6780	3.6779	1.1588	5.96	-0.04	0.750			
0.7251	46406.80	3.6750	3.6748	1.1412	5.95	-0.05	0.750			
0.7285	46621.39	3.6720	3.6720	1.1108	5.95	-0.05	0.750			
0.7318	46832.69	3.6690	3.6693	1.1203	5.95	-0.05	0.750			
0.7351	47048.79	3.6660	3.6660	1.1215	5.95	-0.05	0.750			
0.7385	47265.43	3.6630	3.6624	1.1085	5.95	-0.05	0.750			
0.7418	47472.74	3.6600	3.6600	1.0785	5.95	-0.05	0.750			
0.7450	47682.83	3.6570	3.6574	1.0747	5.95	-0.05	0.750			
0.7483	47890.30	3.6540	3.6540	1.0750	5.96	-0.04	0.750			
0.7515	48094.83	3.6510	3.6509	1.0620	5.96	-0.04	0.750			
0.7544	48279.99	3.6480	3.6482	1.0470	5.96	-0.04	0.750			
0.7575	48480.43	3.6450	3.6451	1.0883	5.96	-0.04	0.750			
0.7609	48697.01	3.6420	3.6421	1.1174	5.95	-0.05	0.750			
0.7643	48916.75	3.6390	3.6387	1.1367	5.95	-0.05	0.750			
0.7678	49138.79	3.6360	3.6364	1.1515	5.95	-0.05	0.750			
0.7713	49363.28	3.6330	3.6333	1.1623	5.95	-0.05	0.750			
0.7749	49591.11	3.6300	3.6299	1.1751	5.95	-0.05	0.750			
0.7784	49814.45	3.6270	3.6269	1.1642	5.95	-0.05	0.750			
0.7817	50025.66	3.6240	3.6241	1.2005	5.95	-0.05	0.750			
0.7853	50261.07	3.6210	3.6211	1.2510	5.95	-0.05	0.750			
0.7892	50510.18	3.6180	3.6179	1.2713	5.95	-0.05	0.750			
0.7931	50761.54	3.6150	3.6152	1.2747	5.96	-0.04	0.750			
0.7972	51018.18	3.6120	3.6121	1.2045	5.96	-0.04	0.750			
0.8010	51266.36	3.6090	3.6089	1.1157	5.97	-0.03	0.750			
0.8043	51476.51	3.6060	3.6062	0.9528	5.98	-0.02	0.750			
0.8069	51641.66	3.6030	3.6032	0.7769	5.98	-0.02	0.750			
0.8089	51772.62	3.6000	3.6001	0.6346	5.99	-0.01	0.750			
0.8105	51870.38	3.5970	3.5969	0.5072	5.99	-0.01	0.750			
0.8117	51946.37	3.5940	3.5938	0.3793	5.99	-0.01	0.750			
0.8125	52000.01	3.5910	3.5912	0.3166	6.00	-0.00	0.750			
0.8133	52048.66	3.5880	3.5879	0.2396	6.00	-0.00	0.750			
0.8139	52088.76	3.5850	3.5845	0.1895	6.00	0.00	0.750			
0.8143	52115.55	3.5820	3.5816	0.1363	6.00	0.00	0.750			
0.8146	52136.23	3.5790	3.5774	0.0942	6.00	0.00	0.750			
0.8148	52148.58	3.5670	3.5662	-0.0664	6.00	0.00	0.750			
0.8149	52151.81	3.5760	3.5256	0.0552	6.00	0.00	0.740			
0.8150	52157.43	3.5700	3.4453	-0.0259	6.00	0.00	0.720			
0.8150	52158.51	3.5730	3.4300	0.0146	6.00	0.00	0.717			
