Ah_balance (normalized)	Ah_balance (mAh)	Voltage - fit (V)	Voltage -  interpolate (V)	dQ/dV (1/V)	Temperature (°C)	Temperature - diff (°C)	Current (C)	R_DC 0ms (mOhm)	R_DC 50ms (mOhm)	R_DC 50 ms PEC (mOhm)
0.1748	11184.85	4.0830	4.0829	0.7070	7.55	1.55	0.750			
0.1769	11320.66	4.0800	4.0803	0.7218	7.54	1.54	0.750			
0.1791	11464.54	4.0770	4.0767	0.7515	7.53	1.53	0.750			
0.1814	11612.16	4.0740	4.0741	0.7675	7.52	1.52	0.750			
0.1838	11765.02	4.0710	4.0712	0.7640	7.52	1.52	0.750			
0.1861	11911.68	4.0680	4.0681	0.7671	7.51	1.51	0.750			
0.1885	12060.84	4.0650	4.0651	0.7713	7.50	1.50	0.750			
0.1908	12209.04	4.0620	4.0622	0.7771	7.49	1.49	0.750			
0.1930	12352.98	4.0590	4.0588	0.7766	7.49	1.49	0.750			
0.1954	12505.67	4.0560	4.0560	0.7807	7.48	1.48	0.750			
0.1978	12657.18	4.0530	4.0530	0.7898	7.47	1.47	0.750			
0.2002	12809.68	4.0500	4.0501	0.8015	7.46	1.46	0.750			
0.2026	12965.98	4.0470	4.0470	0.7964	7.46	1.46	0.750			
0.2049	13116.79	4.0440	4.0440	0.7998	7.45	1.45	0.750			
0.2074	13272.67	4.0410	4.0411	0.8044	7.44	1.44	0.750			
0.2098	13427.47	4.0380	4.0379	0.7970	7.43	1.43	0.750			
0.2122	13580.99	4.0350	4.0350	0.7988	7.43	1.43	0.750			
0.2146	13734.00	4.0320	4.0319	0.8006	7.42	1.42	0.750			
0.2169	13883.19	4.0290	4.0282	0.8025	7.41	1.41	0.750			
0.2194	14039.11	4.0260	4.0261	0.8128	7.40	1.40	0.750			
0.2218	14196.99	4.0230	4.0231	0.8006	7.40	1.40	0.750			
0.2242	14350.29	4.0200	4.0200	0.8234	7.39	1.39	0.750			
0.2267	14510.96	4.0170	4.0170	0.8335	7.39	1.39	0.750			
0.2292	14668.53	4.0140	4.0136	0.8363	7.38	1.38	0.750			
0.2317	14830.79	4.0110	4.0112	0.8428	7.37	1.37	0.750			
0.2343	14996.74	4.0080	4.0081	0.8285	7.36	1.36	0.750			
0.2368	15156.16	4.0050	4.0051	0.8348	7.35	1.35	0.750			
0.2393	15314.55	4.0020	4.0022	0.8253	7.34	1.34	0.750			
0.2417	15469.50	3.9990	3.9986	0.8334	7.33	1.33	0.750			
0.2442	15630.82	3.9960	3.9960	0.8410	7.32	1.32	0.750			
0.2468	15793.35	3.9930	3.9931	0.8403	7.31	1.31	0.750			
0.2493	15957.47	3.9900	3.9900	0.8566	7.31	1.31	0.750			
0.2519	16120.84	3.9870	3.9874	0.8604	7.30	1.30	0.750			
0.2545	16288.00	3.9840	3.9833	0.8727	7.29	1.29	0.750			
0.2572	16458.20	3.9810	3.9810	0.8672	7.28	1.28	0.750			
0.2598	16624.86	3.9780	3.9781	0.8721	7.27	1.27	0.750			
0.2624	16796.02	3.9750	3.9751	0.8822	7.26	1.26	0.750			
0.2650	16961.26	3.9720	3.9721	0.8776	7.26	1.26	0.750			
0.2676	17129.31	3.9690	3.9689	0.8777	7.25	1.25	0.750			
0.2703	17301.60	3.9660	3.9660	0.8710	7.24	1.24	0.750			
0.2730	17468.98	3.9630	3.9630	0.8809	7.23	1.23	0.750			
0.2756	17639.08	3.9600	3.9602	0.8872	7.22	1.22	0.750			
0.2782	17806.14	3.9570	3.9571	0.8845	7.21	1.21	0.750			
0.2809	17976.61	3.9540	3.9539	0.8909	7.21	1.21	0.750			
0.2835	18145.80	3.9510	3.9511	0.8896	7.20	1.20	0.750			
0.2862	18319.72	3.9480	3.9480	0.9101	7.19	1.19	0.750			
0.2890	18496.29	3.9450	3.9451	0.9248	7.18	1.18	0.750			
0.2918	18672.89	3.9420	3.9417	0.9349	7.17	1.17	0.750			
0.2947	18858.48	3.9390	3.9391	0.9289	7.16	1.16	0.750			
0.2975	19037.71	3.9360	3.9359	0.9359	7.15	1.15	0.750			
0.3003	19217.02	3.9330	3.9332	0.9489	7.14	1.14	0.750			
0.3031	19397.25	3.9300	3.9300	0.9433	7.13	1.13	0.750			
0.3060	19581.18	3.9270	3.9271	0.9434	7.13	1.13	0.750			
0.3088	19761.27	3.9240	3.9241	0.9540	7.12	1.12	0.750			
0.3117	19946.47	3.9210	3.9211	0.9644	7.11	1.11	0.750			
0.3146	20133.96	3.9180	3.9181	0.9805	7.10	1.10	0.750			
0.3175	20320.62	3.9150	3.9148	0.9843	7.09	1.09	0.750			
0.3205	20510.48	3.9120	3.9121	0.9797	7.08	1.08	0.750			
0.3234	20700.39	3.9090	3.9090	0.9946	7.06	1.06	0.750			
0.3264	20889.85	3.9060	3.9062	1.0113	7.05	1.05	0.750			
0.3294	21084.53	3.9030	3.9022	1.0167	7.04	1.04	0.750			
0.3325	21283.15	3.9000	3.9000	1.0222	7.03	1.03	0.750			
0.3356	21477.91	3.8970	3.8972	1.0390	7.02	1.02	0.750			
0.3388	21680.05	3.8940	3.8942	1.0607	7.00	1.00	0.750			
0.3420	21889.60	3.8910	3.8900	1.0847	6.99	0.99	0.750			
0.3452	22090.71	3.8880	3.8883	1.0806	6.98	0.98	0.750			
0.3485	22303.69	3.8850	3.8850	1.0747	6.97	0.97	0.750			
0.3518	22514.33	3.8820	3.8821	1.0968	6.96	0.96	0.750			
0.3549	22712.93	3.8790	3.8795	1.1047	6.95	0.95	0.750			
0.3583	22929.88	3.8760	3.8762	1.1156	6.94	0.94	0.750			
0.3617	23151.76	3.8730	3.8734	1.1141	6.93	0.93	0.750			
0.3651	23364.60	3.8700	3.8703	1.1288	6.92	0.92	0.750			
0.3685	23581.12	3.8670	3.8688	1.1500	6.90	0.90	0.750			
0.3719	23804.78	3.8640	3.8641	1.1738	6.89	0.89	0.750			
0.3753	24021.55	3.8610	3.8613	1.1789	6.87	0.87	0.750			
0.3790	24253.57	3.8580	3.8580	1.2041	6.85	0.85	0.750			
0.3827	24491.98	3.8550	3.8552	1.2495	6.84	0.84	0.750			
0.3866	24743.32	3.8520	3.8519	1.2751	6.83	0.83	0.750			
0.3905	24988.96	3.8490	3.8489	1.2444	6.82	0.82	0.750			
0.3943	25232.27	3.8460	3.8461	1.2592	6.81	0.81	0.750			
0.3978	25461.53	3.8430	3.8433	1.3056	6.80	0.80	0.750			
0.4018	25713.68	3.8400	3.8400	1.3517	6.79	0.79	0.750			
0.4058	25974.32	3.8370	3.8364	1.3598	6.79	0.79	0.750	0.272	0.797	
0.4100	26239.75	3.8340	3.8346	1.4036	6.77	0.77	0.750			
0.4145	26527.13	3.8310	3.8314	1.4369	6.76	0.76	0.750			
0.4189	26808.40	3.8280	3.8281	1.4459	6.75	0.75	0.750			
0.4230	27069.64	3.8250	3.8253	1.4508	6.74	0.74	0.750			
0.4274	27350.92	3.8220	3.8221	1.5302	6.73	0.73	0.750			
0.4322	27661.66	3.8190	3.8187	1.5868	6.71	0.71	0.750			
0.4369	27961.44	3.8160	3.8159	1.5730	6.69	0.69	0.750			
0.4417	28270.85	3.8130	3.8127	1.6055	6.67	0.67	0.750			
0.4465	28574.74	3.8100	3.8101	1.6061	6.66	0.66	0.750			
0.4513	28882.40	3.8070	3.8070	1.6457	6.64	0.64	0.750			
0.4563	29202.29	3.8040	3.8039	1.6967	6.62	0.62	0.750			
0.4613	29524.99	3.8010	3.8006	1.7216	6.61	0.61	0.750			
0.4667	29866.01	3.7980	3.7981	1.7089	6.59	0.59	0.750			
0.4720	30209.40	3.7950	3.7953	1.7134	6.57	0.57	0.750			
0.4771	30535.90	3.7920	3.7923	1.7693	6.56	0.56	0.750			
0.4824	30870.52	3.7890	3.7887	1.7790	6.54	0.54	0.750			
0.4876	31207.61	3.7860	3.7859	1.7761	6.51	0.51	0.750			
0.4931	31556.72	3.7830	3.7831	1.7762	6.49	0.49	0.750			
0.4984	31900.64	3.7800	3.7799	1.8191	6.47	0.47	0.750			
0.5040	32255.24	3.7770	3.7771	1.8401	6.45	0.45	0.750			
0.5098	32627.46	3.7740	3.7740	1.8911	6.43	0.43	0.750			
0.5156	33000.15	3.7710	3.7710	1.8708	6.41	0.41	0.750			
0.5215	33373.58	3.7680	3.7681	1.8932	6.39	0.39	0.750			
0.5270	33727.60	3.7650	3.7653	1.8540	6.36	0.36	0.750			
0.5326	34084.35	3.7620	3.7618	1.8739	6.34	0.34	0.750			
0.5381	34436.14	3.7590	3.7591	1.9511	6.32	0.32	0.750			
0.5441	34819.68	3.7560	3.7559	1.9310	6.30	0.30	0.750			
0.5501	35205.77	3.7530	3.7532	2.0422	6.28	0.28	0.750			
0.5562	35599.31	3.7500	3.7501	2.0091	6.26	0.26	0.750			
0.5622	35979.54	3.7470	3.7465	2.0450	6.25	0.25	0.750			
0.5684	36378.05	3.7440	3.7438	2.1063	6.22	0.22	0.750			
0.5745	36765.06	3.7410	3.7413	2.1334	6.19	0.19	0.750			
0.5813	37202.15	3.7380	3.7380	2.2954	6.16	0.16	0.750			
0.5881	37638.19	3.7350	3.7352	2.4342	6.14	0.14	0.750			
0.5956	38118.10	3.7320	3.7326	2.3381	6.12	0.12	0.750			
0.6022	38541.33	3.7290	3.7293	2.3068	6.11	0.11	0.750			
0.6091	38985.08	3.7260	3.7253	2.3954	6.09	0.09	0.750			
0.6167	39469.67	3.7230	3.7235	2.4687	6.07	0.07	0.750			
0.6243	39956.74	3.7200	3.7197	2.4504	6.05	0.05	0.750			
0.6314	40409.74	3.7170	3.7166	2.2180	6.03	0.03	0.750			
0.6376	40808.21	3.7140	3.7141	2.0687	6.02	0.02	0.750			
0.6439	41211.03	3.7110	3.7107	1.9453	6.01	0.01	0.750			
0.6492	41551.62	3.7080	3.7079	1.6884	5.99	-0.01	0.750			
0.6541	41865.19	3.7050	3.7046	1.5130	5.98	-0.02	0.750			
0.6584	42137.68	3.7020	3.7023	1.3927	5.98	-0.02	0.750			
0.6622	42379.56	3.6990	3.6992	1.2402	5.97	-0.03	0.750			
0.6656	42599.97	3.6960	3.6961	1.1348	5.97	-0.03	0.750			
0.6689	42809.71	3.6930	3.6931	1.0418	5.97	-0.03	0.750			
0.6719	42999.94	3.6900	3.6903	1.0001	5.96	-0.04	0.750			
0.6748	43185.99	3.6870	3.6871	0.9700	5.96	-0.04	0.750			
0.6776	43369.13	3.6840	3.6840	0.9421	5.95	-0.05	0.750			
0.6803	43542.16	3.6810	3.6808	0.8943	5.95	-0.05	0.750			
0.6831	43717.50	3.6780	3.6782	0.8645	5.96	-0.04	0.750			
0.6857	43882.99	3.6750	3.6751	0.8445	5.96	-0.04	0.750			
0.6882	44042.60	3.6720	3.6721	0.8156	5.96	-0.04	0.750			
0.6905	44191.91	3.6690	3.6691	0.7768	5.97	-0.03	0.750			
0.6928	44336.76	3.6660	3.6660	0.7443	5.97	-0.03	0.750			
0.6950	44478.98	3.6630	3.6631	0.7193	5.97	-0.03	0.750			
0.6971	44615.62	3.6600	3.6600	0.6990	5.97	-0.03	0.750			
0.6992	44747.06	3.6570	3.6571	0.6621	5.97	-0.03	0.750			
0.7011	44869.30	3.6540	3.6540	0.6311	5.97	-0.03	0.750			
0.7030	44990.55	3.6510	3.6510	0.5960	5.97	-0.03	0.750			
0.7047	45103.79	3.6480	3.6479	0.5593	5.97	-0.03	0.750			
0.7063	45204.89	3.6450	3.6453	0.5411	5.97	-0.03	0.750			
0.7079	45304.15	3.6420	3.6423	0.5163	5.98	-0.02	0.750			
0.7094	45400.66	3.6390	3.6399	0.4846	5.98	-0.02	0.750			
0.7108	45493.78	3.6360	3.6366	0.4598	5.99	-0.01	0.750			
0.7122	45578.61	3.6330	3.6335	0.4201	5.99	-0.01	0.750			
0.7134	45660.34	3.6300	3.6300	0.3854	5.99	-0.01	0.750			
0.7146	45731.62	3.6270	3.6269	0.3396	5.99	-0.01	0.750			
0.7155	45788.91	3.6240	3.6239	0.2947	6.00	-0.00	0.750			
0.7163	45843.99	3.6210	3.6210	0.2570	6.00	-0.00	0.750			
0.7170	45890.22	3.6180	3.6175	0.2199	6.00	0.00	0.750			
0.7176	45928.92	3.6150	3.6152	0.1806	6.00	0.00	0.750			
0.7181	45961.26	3.6120	3.6122	0.1416	6.00	0.00	0.750			
0.7185	45984.31	3.6090	3.6094	0.0983	6.00	0.00	0.750			
0.7188	46001.37	3.6060	3.6036	0.0520	6.00	0.00	0.750			
0.7188	46003.40	3.6000	3.5974	-0.0415	6.00	0.00	0.750			
0.7189	46006.87	3.6030	3.4720	0.0053	6.00	0.00	0.737			
