Ah_balance (normalized)	Ah_balance (mAh)	Voltage - fit (V)	Voltage -  interpolate (V)	dQ/dV (1/V)	Temperature (°C)	Temperature - diff (°C)	Current (C)	R_DC 0ms (mOhm)	R_DC 50ms (mOhm)	R_DC 50 ms PEC (mOhm)
0.0937	5997.57	4.0050	4.0044	-0.0611	6.00	0.01	-0.750			
0.0939	6012.80	4.0020	4.0016	-0.0931	6.00	0.01	-0.750			
0.0943	6034.09	3.9990	3.9989	-0.1218	6.00	0.01	-0.750			
0.0947	6060.11	3.9960	3.9960	-0.1488	5.99	0.00	-0.750			
0.0952	6091.77	3.9930	3.9931	-0.1740	5.99	0.00	-0.750			
0.0957	6127.72	3.9900	3.9899	-0.1989	5.99	0.00	-0.750			
0.0964	6169.50	3.9870	3.9870	-0.2232	5.99	0.00	-0.750			
0.0971	6214.60	3.9840	3.9841	-0.2456	5.99	0.00	-0.750			
0.0979	6263.73	3.9810	3.9810	-0.2684	5.99	-0.00	-0.750			
0.0987	6317.21	3.9780	3.9780	-0.2923	5.99	-0.00	-0.750			
0.0996	6375.47	3.9750	3.9749	-0.3151	5.99	-0.00	-0.750			
0.1006	6437.93	3.9720	3.9720	-0.3386	5.98	-0.01	-0.750			
0.1016	6505.52	3.9690	3.9690	-0.3633	5.98	-0.01	-0.750			
0.1028	6577.73	3.9660	3.9660	-0.3875	5.98	-0.01	-0.750			
0.1040	6654.79	3.9630	3.9630	-0.4094	5.98	-0.01	-0.750			
0.1052	6735.34	3.9600	3.9600	-0.4318	5.98	-0.01	-0.750			
0.1066	6820.41	3.9570	3.9570	-0.4541	5.98	-0.01	-0.750			
0.1080	6910.39	3.9540	3.9540	-0.4748	5.97	-0.02	-0.750			
0.1094	7003.05	3.9510	3.9510	-0.4950	5.97	-0.02	-0.750			
0.1109	7099.88	3.9480	3.9480	-0.5151	5.97	-0.02	-0.750			
0.1125	7201.25	3.9450	3.9450	-0.5331	5.97	-0.02	-0.750			
0.1142	7306.37	3.9420	3.9419	-0.5506	5.97	-0.02	-0.750			
0.1158	7413.17	3.9390	3.9391	-0.5657	5.97	-0.02	-0.750			
0.1176	7523.91	3.9360	3.9360	-0.5780	5.97	-0.02	-0.750			
0.1193	7636.93	3.9330	3.9330	-0.5915	5.97	-0.02	-0.750			
0.1211	7751.42	3.9300	3.9299	-0.6015	5.97	-0.02	-0.750			
0.1229	7866.95	3.9270	3.9271	-0.6142	5.97	-0.02	-0.750			
0.1248	7986.35	3.9240	3.9240	-0.6263	5.97	-0.02	-0.750			
0.1267	8108.46	3.9210	3.9210	-0.6354	5.97	-0.02	-0.750			
0.1286	8231.42	3.9180	3.9180	-0.6463	5.97	-0.02	-0.750			
0.1306	8357.93	3.9150	3.9150	-0.6553	5.97	-0.02	-0.750			
0.1326	8483.50	3.9120	3.9120	-0.6642	5.97	-0.02	-0.750			
0.1346	8611.94	3.9090	3.9091	-0.6716	5.97	-0.02	-0.750			
0.1366	8741.71	3.9060	3.9059	-0.6761	5.97	-0.02	-0.750			
0.1386	8872.79	3.9030	3.9030	-0.6815	5.98	-0.01	-0.750			
0.1407	9004.76	3.9000	3.9001	-0.6828	5.98	-0.01	-0.750			
0.1427	9135.42	3.8970	3.8970	-0.6847	5.98	-0.01	-0.750			
0.1448	9267.23	3.8940	3.8940	-0.6929	5.99	-0.00	-0.750			
0.1469	9399.67	3.8910	3.8908	-0.6959	5.99	-0.00	-0.750			
0.1490	9534.13	3.8880	3.8879	-0.7014	5.99	0.00	-0.750			
0.1511	9669.57	3.8850	3.8851	-0.7074	6.00	0.01	-0.750			
0.1532	9806.79	3.8820	3.8820	-0.7144	6.00	0.01	-0.750			
0.1554	9944.74	3.8790	3.8790	-0.7185	6.00	0.01	-0.750			
0.1576	10083.37	3.8760	3.8759	-0.7170	6.01	0.02	-0.750			
0.1597	10220.63	3.8730	3.8731	-0.7181	6.01	0.02	-0.750			
0.1619	10359.81	3.8700	3.8700	-0.7186	6.02	0.03	-0.750			
0.1640	10497.11	3.8670	3.8670	-0.7188	6.02	0.03	-0.750			
0.1662	10635.43	3.8640	3.8640	-0.7181	6.03	0.04	-0.750			
0.1683	10772.51	3.8610	3.8610	-0.7223	6.04	0.05	-0.750			
0.1705	10911.70	3.8580	3.8580	-0.7260	6.04	0.05	-0.750			
0.1727	11051.65	3.8550	3.8551	-0.7304	6.05	0.06	-0.750			
0.1749	11192.15	3.8520	3.8520	-0.7319	6.05	0.06	-0.750			
0.1771	11333.65	3.8490	3.8490	-0.7338	6.06	0.07	-0.750			
0.1793	11473.90	3.8460	3.8460	-0.7338	6.06	0.07	-0.750			
0.1815	11616.49	3.8430	3.8431	-0.7381	6.06	0.07	-0.750			
0.1837	11756.61	3.8400	3.8399	-0.7335	6.07	0.08	-0.750			
0.1859	11898.48	3.8370	3.8370	-0.7335	6.07	0.08	-0.750			
0.1881	12038.96	3.8340	3.8341	-0.7342	6.08	0.09	-0.750			
0.1903	12179.83	3.8310	3.8310	-0.7356	6.09	0.10	-0.750			
0.1925	12320.82	3.8280	3.8280	-0.7341	6.09	0.10	-0.750			
0.1947	12462.12	3.8250	3.8250	-0.7336	6.10	0.11	-0.750			
0.1969	12602.34	3.8220	3.8220	-0.7370	6.11	0.12	-0.750			
0.1991	12744.93	3.8190	3.8190	-0.7342	6.12	0.13	-0.750			
0.2013	12885.93	3.8160	3.8159	-0.7330	6.12	0.13	-0.750			
0.2035	13025.47	3.8130	3.8130	-0.7355	6.13	0.14	-0.750			
0.2057	13167.14	3.8100	3.8100	-0.7371	6.14	0.15	-0.750			
0.2080	13309.40	3.8070	3.8069	-0.7398	6.14	0.15	-0.750			
0.2102	13452.09	3.8040	3.8042	-0.7383	6.15	0.16	-0.750			
0.2124	13592.71	3.8010	3.8011	-0.7387	6.16	0.17	-0.750			
0.2146	13735.68	3.7980	3.7980	-0.7450	6.16	0.17	-0.750			
0.2168	13877.46	3.7950	3.7950	-0.7429	6.17	0.18	-0.750			
0.2191	14020.46	3.7920	3.7919	-0.7479	6.17	0.18	-0.750			
0.2213	14164.53	3.7890	3.7890	-0.7479	6.18	0.19	-0.750			
0.2236	14309.27	3.7860	3.7860	-0.7496	6.18	0.19	-0.750			
0.2258	14453.92	3.7830	3.7830	-0.7493	6.19	0.20	-0.750			
0.2281	14596.84	3.7800	3.7800	-0.7483	6.19	0.20	-0.750			
0.2303	14740.21	3.7770	3.7770	-0.7463	6.20	0.21	-0.750			
0.2326	14883.42	3.7740	3.7740	-0.7562	6.20	0.21	-0.750			
0.2348	15028.29	3.7710	3.7711	-0.7595	6.21	0.22	-0.750			
0.2371	15175.20	3.7680	3.7679	-0.7652	6.21	0.22	-0.750			
0.2394	15322.04	3.7650	3.7651	-0.7734	6.22	0.23	-0.750			
0.2418	15472.11	3.7620	3.7620	-0.7733	6.22	0.23	-0.750			
0.2441	15622.66	3.7590	3.7589	-0.7779	6.22	0.23	-0.750			
0.2464	15771.25	3.7560	3.7560	-0.7784	6.23	0.24	-0.750			
0.2487	15919.22	3.7530	3.7529	-0.7796	6.23	0.24	-0.750			
0.2511	16069.14	3.7500	3.7500	-0.7842	6.24	0.25	-0.750			
0.2534	16219.87	3.7470	3.7470	-0.7866	6.25	0.26	-0.750			
0.2558	16370.41	3.7440	3.7440	-0.7884	6.26	0.27	-0.750			
0.2582	16524.25	3.7410	3.7409	-0.7910	6.26	0.27	-0.750			
0.2606	16675.57	3.7380	3.7381	-0.7950	6.27	0.28	-0.750			
0.2629	16827.85	3.7350	3.7350	-0.7992	6.28	0.29	-0.750			
0.2653	16981.24	3.7320	3.7320	-0.8071	6.29	0.30	-0.750			
0.2678	17138.02	3.7290	3.7290	-0.8127	6.30	0.31	-0.750			
0.2702	17295.20	3.7260	3.7259	-0.8174	6.30	0.31	-0.750			
0.2727	17452.37	3.7230	3.7231	-0.8236	6.31	0.32	-0.750			
0.2752	17611.25	3.7200	3.7200	-0.8300	6.31	0.32	-0.750			
0.2776	17769.53	3.7170	3.7169	-0.8389	6.32	0.33	-0.750			
0.2802	17931.65	3.7140	3.7139	-0.8430	6.32	0.33	-0.750			
0.2827	18095.35	3.7110	3.7110	-0.8504	6.33	0.34	-0.750			
0.2853	18259.14	3.7080	3.7082	-0.8569	6.33	0.34	-0.750			
0.2879	18424.86	3.7050	3.7050	-0.8650	6.34	0.35	-0.750			
0.2905	18590.99	3.7020	3.7019	-0.8677	6.35	0.36	-0.750			
0.2931	18756.66	3.6990	3.6990	-0.8723	6.36	0.37	-0.750			
0.2957	18925.08	3.6960	3.6960	-0.8830	6.36	0.37	-0.750			
0.2984	19095.74	3.6930	3.6930	-0.8925	6.37	0.38	-0.750			
0.3011	19268.12	3.6900	3.6899	-0.9050	6.38	0.39	-0.750			
0.3038	19443.04	3.6870	3.6870	-0.9109	6.38	0.39	-0.750			
0.3066	19619.73	3.6840	3.6839	-0.9155	6.38	0.39	-0.750			
0.3093	19796.50	3.6810	3.6812	-0.9243	6.39	0.40	-0.750			
0.3121	19972.58	3.6780	3.6780	-0.9336	6.40	0.41	-0.750			
0.3149	20153.42	3.6750	3.6749	-0.9386	6.41	0.42	-0.750			
0.3177	20333.14	3.6720	3.6720	-0.9460	6.41	0.42	-0.750			
0.3206	20515.96	3.6690	3.6690	-0.9525	6.42	0.43	-0.750			
0.3235	20703.18	3.6660	3.6661	-0.9652	6.43	0.44	-0.750			
0.3264	20888.98	3.6630	3.6629	-0.9748	6.44	0.45	-0.750			
0.3293	21075.75	3.6600	3.6600	-0.9742	6.44	0.45	-0.750			
0.3322	21262.27	3.6570	3.6570	-0.9790	6.45	0.46	-0.750			
0.3352	21452.15	3.6540	3.6542	-0.9890	6.45	0.46	-0.750			
0.3381	21641.17	3.6510	3.6509	-0.9941	6.46	0.47	-0.750			
0.3411	21832.97	3.6480	3.6480	-1.0036	6.47	0.48	-0.750			
0.3441	22024.97	3.6450	3.6449	-1.0108	6.48	0.49	-0.750			
0.3472	22220.74	3.6420	3.6421	-1.0262	6.49	0.50	-0.750			
0.3503	22419.79	3.6390	3.6390	-1.0477	6.49	0.50	-0.750			
0.3535	22624.11	3.6360	3.6359	-1.0531	6.50	0.51	-0.750			
0.3567	22828.07	3.6330	3.6329	-1.0638	6.50	0.51	-0.750			
0.3599	23030.73	3.6300	3.6304	-1.0732	6.51	0.52	-0.750			
0.3631	23239.34	3.6270	3.6269	-1.0845	6.52	0.53	-0.750			
0.3664	23450.18	3.6240	3.6238	-1.0834	6.53	0.54	-0.750			
0.3696	23656.84	3.6210	3.6210	-1.0830	6.54	0.55	-0.750			
0.3729	23863.78	3.6180	3.6182	-1.1059	6.55	0.56	-0.750			
0.3762	24077.15	3.6150	3.6150	-1.1187	6.56	0.57	-0.750			
0.3796	24291.28	3.6120	3.6118	-1.1254	6.56	0.57	-0.750			
0.3829	24508.32	3.6090	3.6089	-1.1437	6.57	0.58	-0.750			
0.3864	24731.77	3.6060	3.6061	-1.1652	6.57	0.58	-0.750			
0.3900	24959.53	3.6030	3.6029	-1.1786	6.59	0.60	-0.750			
0.3935	25186.87	3.6000	3.6000	-1.1900	6.60	0.61	-0.750			
0.3971	25412.35	3.5970	3.5971	-1.1957	6.61	0.62	-0.750			
0.4007	25647.39	3.5940	3.5939	-1.2128	6.62	0.63	-0.750			
0.4044	25882.99	3.5910	3.5909	-1.2191	6.62	0.63	-0.750			
0.4081	26115.39	3.5880	3.5881	-1.2261	6.63	0.64	-0.750	0.471	1.063	
0.4118	26352.35	3.5850	3.5850	-1.2313	6.63	0.64	-0.750			
0.4155	26590.26	3.5820	3.5820	-1.2443	6.64	0.65	-0.750			
0.4192	26826.45	3.5790	3.5789	-1.2540	6.64	0.65	-0.750			
0.4230	27069.14	3.5760	3.5762	-1.2710	6.65	0.66	-0.750			
0.4268	27318.24	3.5730	3.5730	-1.2880	6.66	0.67	-0.750			
0.4308	27568.59	3.5700	3.5699	-1.3035	6.67	0.68	-0.750			
0.4347	27820.13	3.5670	3.5672	-1.3104	6.68	0.69	-0.750			
0.4386	28072.65	3.5640	3.5640	-1.3250	6.69	0.70	-0.750			
0.4426	28326.64	3.5610	3.5609	-1.3292	6.70	0.71	-0.750			
0.4466	28579.82	3.5580	3.5580	-1.3512	6.71	0.72	-0.750			
0.4507	28845.12	3.5550	3.5549	-1.3719	6.72	0.73	-0.750			
0.4548	29109.56	3.5520	3.5520	-1.3805	6.72	0.73	-0.750			
0.4590	29377.80	3.5490	3.5491	-1.3961	6.73	0.74	-0.750			
0.4632	29645.73	3.5460	3.5459	-1.4151	6.74	0.75	-0.750			
0.4675	29919.26	3.5430	3.5429	-1.4181	6.75	0.76	-0.750			
0.4718	30193.56	3.5400	3.5401	-1.4368	6.77	0.78	-0.750			
0.4761	30468.84	3.5370	3.5370	-1.4352	6.78	0.79	-0.750			
0.4805	30750.55	3.5340	3.5339	-1.4645	6.79	0.80	-0.750			
0.4849	31031.90	3.5310	3.5314	-1.4741	6.80	0.81	-0.750			
0.4893	31316.14	3.5280	3.5279	-1.4720	6.81	0.82	-0.750			
0.4937	31599.90	3.5250	3.5249	-1.4749	6.82	0.83	-0.750			
0.4982	31885.93	3.5220	3.5221	-1.4907	6.83	0.84	-0.750			
0.5027	32174.05	3.5190	3.5189	-1.5028	6.84	0.85	-0.750			
0.5072	32458.47	3.5160	3.5159	-1.5238	6.85	0.86	-0.750			
0.5117	32748.38	3.5130	3.5131	-1.5185	6.86	0.87	-0.750			
0.5164	33048.23	3.5100	3.5099	-1.5287	6.88	0.89	-0.750			
0.5210	33343.76	3.5070	3.5073	-1.5398	6.89	0.90	-0.750			
0.5256	33639.60	3.5040	3.5039	-1.5333	6.90	0.91	-0.750			
0.5302	33931.92	3.5010	3.5009	-1.5461	6.91	0.92	-0.750			
0.5348	34228.22	3.4980	3.4983	-1.5395	6.93	0.94	-0.750			
0.5394	34520.10	3.4950	3.4950	-1.5508	6.94	0.95	-0.750			
0.5441	34822.54	3.4920	3.4919	-1.5604	6.95	0.96	-0.750			
0.5489	35127.26	3.4890	3.4891	-1.5551	6.96	0.97	-0.750			
0.5536	35428.32	3.4860	3.4859	-1.5591	6.97	0.98	-0.750			
0.5582	35726.88	3.4830	3.4830	-1.5554	6.99	1.00	-0.750			
0.5628	36022.28	3.4800	3.4799	-1.5534	7.00	1.01	-0.750			
0.5675	36318.34	3.4770	3.4770	-1.5365	7.01	1.02	-0.750			
0.5721	36612.37	3.4740	3.4741	-1.5232	7.03	1.04	-0.750			
0.5767	36907.04	3.4710	3.4708	-1.5226	7.04	1.05	-0.750			
0.5812	37199.11	3.4680	3.4683	-1.5288	7.06	1.07	-0.750			
0.5858	37491.84	3.4650	3.4650	-1.5060	7.07	1.08	-0.750			
0.5904	37784.43	3.4620	3.4621	-1.4994	7.09	1.10	-0.750			
0.5948	38069.16	3.4590	3.4590	-1.4872	7.10	1.11	-0.750			
0.5993	38353.84	3.4560	3.4560	-1.4728	7.12	1.13	-0.750			
0.6037	38635.27	3.4530	3.4529	-1.4597	7.14	1.15	-0.750			
0.6080	38910.47	3.4500	3.4499	-1.4413	7.15	1.16	-0.750			
0.6123	39185.74	3.4470	3.4471	-1.4258	7.17	1.18	-0.750			
0.6166	39463.25	3.4440	3.4439	-1.4157	7.20	1.21	-0.750			
0.6208	39731.04	3.4410	3.4409	-1.4011	7.22	1.23	-0.750			
0.6250	39997.54	3.4380	3.4380	-1.3707	7.24	1.25	-0.750			
0.6291	40259.58	3.4350	3.4349	-1.3770	7.25	1.26	-0.750			
0.6332	40522.49	3.4320	3.4320	-1.3626	7.26	1.27	-0.750			
0.6373	40785.25	3.4290	3.4289	-1.3372	7.28	1.29	-0.750			
0.6414	41048.53	3.4260	3.4260	-1.3202	7.30	1.31	-0.750			
0.6453	41298.63	3.4230	3.4231	-1.2906	7.32	1.33	-0.750			
0.6491	41541.38	3.4200	3.4200	-1.2487	7.34	1.35	-0.750			
0.6528	41779.90	3.4170	3.4169	-1.2156	7.36	1.37	-0.750			
0.6563	42002.53	3.4140	3.4140	-1.1685	7.39	1.40	-0.750			
0.6598	42225.14	3.4110	3.4112	-1.1504	7.41	1.42	-0.750			
0.6632	42443.88	3.4080	3.4079	-1.1249	7.43	1.44	-0.750			
0.6665	42658.32	3.4050	3.4050	-1.0988	7.44	1.45	-0.750			
0.6698	42865.57	3.4020	3.4019	-1.0671	7.46	1.47	-0.750			
0.6730	43070.13	3.3990	3.3991	-1.0454	7.47	1.48	-0.750			
0.6761	43268.40	3.3960	3.3960	-1.0209	7.49	1.50	-0.750			
0.6791	43460.83	3.3930	3.3929	-0.9905	7.51	1.52	-0.750			
0.6820	43648.04	3.3900	3.3900	-0.9615	7.52	1.53	-0.750			
0.6848	43829.58	3.3870	3.3872	-0.9375	7.54	1.55	-0.750			
0.6876	44007.80	3.3840	3.3840	-0.9067	7.56	1.57	-0.750			
0.6903	44179.49	3.3810	3.3810	-0.8860	7.57	1.58	-0.750			
0.6929	44345.49	3.3780	3.3780	-0.8625	7.58	1.59	-0.750			
0.6954	44508.72	3.3750	3.3751	-0.8419	7.60	1.61	-0.750			
0.6979	44668.06	3.3720	3.3721	-0.8211	7.61	1.62	-0.750			
0.7004	44823.91	3.3690	3.3690	-0.8017	7.63	1.64	-0.750			
0.7027	44975.83	3.3660	3.3660	-0.7798	7.64	1.65	-0.750			
0.7051	45124.32	3.3630	3.3629	-0.7575	7.66	1.67	-0.750			
0.7073	45266.53	3.3600	3.3601	-0.7371	7.67	1.68	-0.750			
0.7095	45405.82	3.3570	3.3570	-0.7174	7.69	1.70	-0.750			
0.7116	45541.24	3.3540	3.3540	-0.6989	7.70	1.71	-0.750			
0.7136	45673.47	3.3510	3.3510	-0.6800	7.71	1.72	-0.750			
0.7156	45801.58	3.3480	3.3480	-0.6643	7.73	1.74	-0.750			
0.7176	45928.11	3.3450	3.3450	-0.6491	7.74	1.75	-0.750			
0.7196	46051.65	3.3420	3.3420	-0.6310	7.75	1.76	-0.750			
0.7214	46171.32	3.3390	3.3390	-0.6232	7.76	1.77	-0.750			
