Ah_balance (normalized)	Ah_balance (mAh)	Voltage - fit (V)	Voltage -  interpolate (V)	dQ/dV (1/V)	Temperature (°C)	Temperature - diff (°C)	Current (C)	R_DC 0ms (mOhm)	R_DC 50ms (mOhm)	R_DC 50 ms PEC (mOhm)
0.0977	6255.51	4.0050	4.0056	-0.1113	5.99	0.01	-0.750			
0.0981	6279.73	4.0020	4.0021	-0.1361	5.99	0.01	-0.750			
0.0986	6308.58	3.9990	3.9989	-0.1580	5.99	0.01	-0.750			
0.0991	6340.31	3.9960	3.9959	-0.1806	5.99	0.01	-0.750			
0.0996	6377.03	3.9930	3.9931	-0.2038	5.99	0.01	-0.750			
0.1003	6417.76	3.9900	3.9901	-0.2280	5.99	0.01	-0.750			
0.1010	6464.59	3.9870	3.9868	-0.2500	5.99	0.01	-0.750			
0.1018	6514.72	3.9840	3.9841	-0.2726	5.98	0.00	-0.750			
0.1026	6569.26	3.9810	3.9811	-0.2949	5.98	0.00	-0.750			
0.1036	6628.33	3.9780	3.9780	-0.3188	5.98	0.00	-0.750			
0.1046	6691.50	3.9750	3.9749	-0.3419	5.98	-0.00	-0.750			
0.1056	6758.72	3.9720	3.9720	-0.3631	5.98	-0.00	-0.750			
0.1067	6830.16	3.9690	3.9690	-0.3885	5.97	-0.01	-0.750			
0.1079	6907.95	3.9660	3.9660	-0.4125	5.97	-0.01	-0.750			
0.1092	6989.58	3.9630	3.9630	-0.4368	5.97	-0.01	-0.750			
0.1106	7075.65	3.9600	3.9600	-0.4614	5.96	-0.02	-0.750			
0.1120	7167.29	3.9570	3.9571	-0.4824	5.96	-0.02	-0.750			
0.1135	7262.14	3.9540	3.9540	-0.5051	5.96	-0.02	-0.750			
0.1150	7361.12	3.9510	3.9510	-0.5266	5.95	-0.03	-0.750			
0.1166	7463.84	3.9480	3.9482	-0.5445	5.95	-0.03	-0.750			
0.1183	7571.28	3.9450	3.9450	-0.5651	5.95	-0.03	-0.750			
0.1200	7681.45	3.9420	3.9421	-0.5796	5.96	-0.02	-0.750			
0.1218	7795.34	3.9390	3.9389	-0.5934	5.96	-0.02	-0.750			
0.1236	7911.52	3.9360	3.9361	-0.6141	5.96	-0.02	-0.750			
0.1255	8030.69	3.9330	3.9330	-0.6261	5.96	-0.02	-0.750			
0.1274	8153.01	3.9300	3.9299	-0.6369	5.97	-0.01	-0.750			
0.1293	8276.77	3.9270	3.9272	-0.6483	5.97	-0.01	-0.750			
0.1313	8402.50	3.9240	3.9240	-0.6563	5.97	-0.01	-0.750			
0.1333	8529.53	3.9210	3.9209	-0.6641	5.97	-0.01	-0.750			
0.1353	8656.15	3.9180	3.9181	-0.6709	5.98	-0.00	-0.750			
0.1373	8787.99	3.9150	3.9150	-0.6836	5.98	-0.00	-0.750			
0.1394	8920.61	3.9120	3.9120	-0.6912	5.98	-0.00	-0.750			
0.1415	9054.76	3.9090	3.9092	-0.6989	5.98	0.00	-0.750			
0.1436	9189.30	3.9060	3.9060	-0.7027	5.99	0.01	-0.750			
0.1457	9324.16	3.9030	3.9030	-0.7121	5.99	0.01	-0.750			
0.1478	9461.47	3.9000	3.8999	-0.7164	6.00	0.02	-0.750			
0.1500	9600.61	3.8970	3.8970	-0.7204	6.00	0.02	-0.750			
0.1522	9739.41	3.8940	3.8939	-0.7226	6.01	0.03	-0.750			
0.1544	9879.24	3.8910	3.8912	-0.7282	6.01	0.03	-0.750			
0.1566	10019.42	3.8880	3.8880	-0.7282	6.01	0.03	-0.750			
0.1587	10157.91	3.8850	3.8849	-0.7339	6.02	0.04	-0.750			
0.1609	10298.00	3.8820	3.8820	-0.7297	6.02	0.04	-0.750			
0.1631	10440.17	3.8790	3.8790	-0.7404	6.02	0.04	-0.750			
0.1654	10584.57	3.8760	3.8759	-0.7444	6.03	0.05	-0.750			
0.1676	10726.83	3.8730	3.8730	-0.7444	6.03	0.05	-0.750			
0.1698	10869.31	3.8700	3.8700	-0.7485	6.04	0.06	-0.750			
0.1721	11014.19	3.8670	3.8670	-0.7508	6.05	0.07	-0.750			
0.1743	11157.70	3.8640	3.8639	-0.7501	6.06	0.08	-0.750			
0.1766	11303.34	3.8610	3.8610	-0.7544	6.06	0.08	-0.750			
0.1789	11447.61	3.8580	3.8581	-0.7556	6.07	0.09	-0.750			
0.1811	11593.45	3.8550	3.8549	-0.7584	6.07	0.09	-0.750			
0.1834	11738.20	3.8520	3.8520	-0.7601	6.08	0.10	-0.750			
0.1857	11884.82	3.8490	3.8490	-0.7602	6.08	0.10	-0.750			
0.1880	12032.69	3.8460	3.8460	-0.7648	6.08	0.10	-0.750			
0.1903	12178.89	3.8430	3.8430	-0.7627	6.09	0.11	-0.750			
0.1926	12325.14	3.8400	3.8401	-0.7632	6.09	0.11	-0.750			
0.1949	12470.57	3.8370	3.8370	-0.7626	6.10	0.12	-0.750			
0.1971	12616.08	3.8340	3.8340	-0.7654	6.11	0.13	-0.750			
0.1994	12764.02	3.8310	3.8310	-0.7638	6.12	0.14	-0.750			
0.2017	12911.00	3.8280	3.8278	-0.7678	6.12	0.14	-0.750			
0.2040	13059.08	3.8250	3.8252	-0.7683	6.13	0.15	-0.750			
0.2064	13206.58	3.8220	3.8220	-0.7701	6.14	0.16	-0.750			
0.2087	13355.37	3.8190	3.8189	-0.7696	6.15	0.17	-0.750			
0.2110	13503.43	3.8160	3.8160	-0.7701	6.15	0.17	-0.750			
0.2133	13650.25	3.8130	3.8130	-0.7686	6.16	0.18	-0.750			
0.2156	13798.23	3.8100	3.8101	-0.7726	6.17	0.19	-0.750			
0.2179	13945.58	3.8070	3.8069	-0.7710	6.18	0.20	-0.750			
0.2202	14093.18	3.8040	3.8040	-0.7782	6.18	0.20	-0.750			
0.2226	14243.30	3.8010	3.8009	-0.7787	6.19	0.21	-0.750			
0.2249	14394.18	3.7980	3.7980	-0.7812	6.20	0.22	-0.750			
0.2273	14545.93	3.7950	3.7949	-0.7802	6.21	0.23	-0.750			
0.2296	14695.43	3.7920	3.7921	-0.7788	6.21	0.23	-0.750			
0.2319	14842.70	3.7890	3.7890	-0.7798	6.22	0.24	-0.750			
0.2343	14993.04	3.7860	3.7860	-0.7815	6.23	0.25	-0.750			
0.2366	15142.47	3.7830	3.7829	-0.7771	6.23	0.25	-0.750			
0.2390	15293.20	3.7800	3.7800	-0.7821	6.24	0.26	-0.750			
0.2413	15444.77	3.7770	3.7773	-0.7822	6.25	0.27	-0.750			
0.2437	15594.74	3.7740	3.7739	-0.7804	6.26	0.28	-0.750			
0.2460	15742.27	3.7710	3.7710	-0.7793	6.26	0.28	-0.750			
0.2483	15890.85	3.7680	3.7680	-0.7827	6.27	0.29	-0.750			
0.2507	16042.84	3.7650	3.7650	-0.7873	6.28	0.30	-0.750			
0.2530	16195.04	3.7620	3.7619	-0.7884	6.29	0.31	-0.750			
0.2554	16347.81	3.7590	3.7590	-0.7866	6.30	0.32	-0.750			
0.2578	16497.67	3.7560	3.7560	-0.7926	6.30	0.32	-0.750			
0.2601	16648.86	3.7530	3.7530	-0.7908	6.31	0.33	-0.750			
0.2625	16800.10	3.7500	3.7499	-0.7929	6.32	0.34	-0.750			
0.2649	16952.38	3.7470	3.7469	-0.7958	6.33	0.35	-0.750			
0.2673	17106.38	3.7440	3.7440	-0.8026	6.33	0.35	-0.750			
0.2697	17260.53	3.7410	3.7411	-0.8126	6.34	0.36	-0.750			
0.2722	17418.81	3.7380	3.7380	-0.8128	6.35	0.37	-0.750			
0.2746	17573.87	3.7350	3.7350	-0.8098	6.36	0.38	-0.750			
0.2771	17731.88	3.7320	3.7320	-0.8173	6.36	0.38	-0.750			
0.2795	17887.86	3.7290	3.7291	-0.8189	6.37	0.39	-0.750			
0.2819	18044.75	3.7260	3.7259	-0.8229	6.38	0.40	-0.750			
0.2844	18202.31	3.7230	3.7230	-0.8299	6.39	0.41	-0.750			
0.2869	18361.92	3.7200	3.7199	-0.8355	6.40	0.42	-0.750			
0.2895	18525.69	3.7170	3.7170	-0.8472	6.40	0.42	-0.750			
0.2920	18689.12	3.7140	3.7141	-0.8475	6.41	0.43	-0.750			
0.2946	18851.47	3.7110	3.7110	-0.8499	6.42	0.44	-0.750			
0.2971	19014.78	3.7080	3.7080	-0.8624	6.42	0.44	-0.750			
0.2997	19181.38	3.7050	3.7047	-0.8657	6.42	0.44	-0.750			
0.3023	19349.79	3.7020	3.7019	-0.8757	6.43	0.45	-0.750			
0.3050	19519.57	3.6990	3.6992	-0.8831	6.43	0.45	-0.750			
0.3076	19689.17	3.6960	3.6959	-0.8935	6.44	0.46	-0.750			
0.3103	19861.51	3.6930	3.6929	-0.9037	6.45	0.47	-0.750			
0.3130	20031.03	3.6900	3.6900	-0.9034	6.46	0.48	-0.750			
0.3158	20209.23	3.6870	3.6870	-0.9175	6.47	0.49	-0.750			
0.3185	20386.73	3.6840	3.6840	-0.9389	6.47	0.49	-0.750			
0.3214	20568.76	3.6810	3.6810	-0.9439	6.48	0.50	-0.750			
0.3242	20751.43	3.6780	3.6779	-0.9503	6.48	0.50	-0.750			
0.3271	20933.61	3.6750	3.6750	-0.9577	6.49	0.51	-0.750			
0.3300	21118.71	3.6720	3.6721	-0.9671	6.49	0.51	-0.750			
0.3329	21305.58	3.6690	3.6689	-0.9834	6.50	0.52	-0.750			
0.3359	21496.32	3.6660	3.6659	-0.9881	6.51	0.53	-0.750			
0.3388	21685.11	3.6630	3.6630	-0.9875	6.51	0.53	-0.750			
0.3418	21877.38	3.6600	3.6602	-1.0084	6.52	0.54	-0.750			
0.3449	22071.70	3.6570	3.6569	-1.0170	6.52	0.54	-0.750			
0.3480	22270.38	3.6540	3.6538	-1.0008	6.53	0.55	-0.750			
0.3510	22462.37	3.6510	3.6511	-0.9950	6.53	0.55	-0.750			
0.3539	22649.38	3.6480	3.6483	-1.0033	6.53	0.55	-0.750			
0.3569	22840.78	3.6450	3.6449	-1.0148	6.53	0.55	-0.750			
0.3599	23031.22	3.6420	3.6418	-1.0261	6.54	0.56	-0.750			
0.3629	23226.18	3.6390	3.6390	-1.0487	6.54	0.56	-0.750			
0.3661	23432.87	3.6360	3.6361	-1.0783	6.55	0.57	-0.750			
0.3695	23649.77	3.6330	3.6330	-1.1166	6.55	0.57	-0.750			
0.3729	23867.90	3.6300	3.6299	-1.1282	6.55	0.57	-0.750			
0.3763	24085.77	3.6270	3.6269	-1.1390	6.55	0.57	-0.750			
0.3798	24305.06	3.6240	3.6242	-1.1508	6.55	0.57	-0.750			
0.3833	24528.26	3.6210	3.6210	-1.1623	6.55	0.57	-0.750			
0.3867	24751.01	3.6180	3.6180	-1.1752	6.55	0.57	-0.750			
0.3902	24975.93	3.6150	3.6150	-1.1746	6.55	0.57	-0.750			
0.3939	25206.90	3.6120	3.6119	-1.1945	6.55	0.57	-0.750			
0.3975	25437.30	3.6090	3.6090	-1.2052	6.55	0.57	-0.750			
0.4010	25665.90	3.6060	3.6061	-1.2203	6.55	0.57	-0.750			
0.4047	25901.82	3.6030	3.6030	-1.2366	6.55	0.57	-0.750			
0.4085	26145.93	3.6000	3.5999	-1.2472	6.55	0.57	-0.750			
0.4123	26387.15	3.5970	3.5969	-1.2525	6.55	0.57	-0.750	0.473	1.089	
0.4161	26628.79	3.5940	3.5942	-1.2735	6.55	0.57	-0.750			
0.4199	26874.00	3.5910	3.5910	-1.2837	6.55	0.57	-0.750			
0.4237	27118.78	3.5880	3.5878	-1.2941	6.55	0.57	-0.750			
0.4275	27362.14	3.5850	3.5850	-1.3094	6.55	0.57	-0.750			
0.4316	27620.34	3.5820	3.5821	-1.3345	6.55	0.57	-0.750			
0.4356	27879.02	3.5790	3.5789	-1.3522	6.55	0.57	-0.750			
0.4397	28141.44	3.5760	3.5760	-1.3724	6.55	0.57	-0.750			
0.4438	28404.99	3.5730	3.5730	-1.3759	6.55	0.57	-0.750			
0.4480	28672.50	3.5700	3.5699	-1.3921	6.55	0.57	-0.750			
0.4522	28941.84	3.5670	3.5669	-1.3981	6.55	0.57	-0.750			
0.4564	29209.51	3.5640	3.5640	-1.4020	6.55	0.57	-0.750			
0.4606	29479.54	3.5610	3.5609	-1.4158	6.55	0.57	-0.750			
0.4648	29750.24	3.5580	3.5581	-1.4247	6.55	0.57	-0.750			
0.4691	30020.84	3.5550	3.5549	-1.4479	6.55	0.57	-0.750			
0.4735	30305.73	3.5520	3.5520	-1.4760	6.55	0.57	-0.750			
0.4780	30592.24	3.5490	3.5489	-1.4983	6.55	0.57	-0.750			
0.4826	30883.80	3.5460	3.5460	-1.5157	6.55	0.57	-0.750			
0.4872	31180.12	3.5430	3.5429	-1.5255	6.55	0.57	-0.750			
0.4918	31475.37	3.5400	3.5402	-1.5303	6.55	0.57	-0.750			
0.4963	31765.39	3.5370	3.5368	-1.5470	6.55	0.57	-0.750			
0.5010	32061.35	3.5340	3.5340	-1.5459	6.55	0.57	-0.750			
0.5056	32361.29	3.5310	3.5310	-1.5725	6.55	0.57	-0.750			
0.5104	32667.83	3.5280	3.5279	-1.5917	6.54	0.56	-0.750			
0.5152	32974.67	3.5250	3.5249	-1.5915	6.54	0.56	-0.750			
0.5200	33281.17	3.5220	3.5219	-1.5913	6.54	0.56	-0.750			
0.5249	33591.11	3.5190	3.5188	-1.5918	6.55	0.57	-0.750			
0.5295	33889.00	3.5160	3.5161	-1.5934	6.55	0.57	-0.750			
0.5343	34198.26	3.5130	3.5131	-1.5935	6.55	0.57	-0.750			
0.5392	34505.98	3.5100	3.5098	-1.6011	6.56	0.58	-0.750			
0.5440	34817.08	3.5070	3.5070	-1.5990	6.56	0.58	-0.750			
0.5489	35129.27	3.5040	3.5040	-1.6094	6.57	0.59	-0.750			
0.5537	35436.13	3.5010	3.5013	-1.6099	6.57	0.59	-0.750			
0.5586	35748.60	3.4980	3.4981	-1.6030	6.57	0.59	-0.750			
0.5633	36050.93	3.4950	3.4948	-1.6149	6.57	0.59	-0.750			
0.5682	36364.95	3.4920	3.4918	-1.5967	6.57	0.59	-0.750			
0.5730	36672.03	3.4890	3.4890	-1.5938	6.58	0.60	-0.750			
0.5778	36981.49	3.4860	3.4863	-1.5933	6.59	0.61	-0.750			
0.5825	37278.52	3.4830	3.4829	-1.5725	6.59	0.61	-0.750			
0.5872	37581.44	3.4800	3.4802	-1.5687	6.60	0.62	-0.750			
0.5919	37880.00	3.4770	3.4771	-1.5621	6.60	0.62	-0.750			
0.5966	38181.91	3.4740	3.4738	-1.5516	6.60	0.62	-0.750			
0.6013	38481.05	3.4710	3.4711	-1.5369	6.61	0.63	-0.750			
0.6058	38770.02	3.4680	3.4680	-1.5233	6.61	0.63	-0.750			
0.6104	39065.58	3.4650	3.4650	-1.5091	6.63	0.65	-0.750			
0.6149	39352.33	3.4620	3.4618	-1.4905	6.64	0.66	-0.750			
0.6193	39634.15	3.4590	3.4589	-1.4715	6.65	0.67	-0.750			
0.6237	39919.81	3.4560	3.4560	-1.4666	6.66	0.68	-0.750			
0.6282	40202.06	3.4530	3.4531	-1.4500	6.67	0.69	-0.750			
0.6324	40475.20	3.4500	3.4499	-1.4186	6.68	0.70	-0.750			
0.6367	40746.19	3.4470	3.4470	-1.3979	6.68	0.70	-0.750			
0.6409	41016.06	3.4440	3.4441	-1.3858	6.69	0.71	-0.750			
0.6450	41278.12	3.4410	3.4409	-1.3611	6.70	0.72	-0.750			
0.6490	41539.13	3.4380	3.4380	-1.3409	6.71	0.73	-0.750			
0.6530	41794.13	3.4350	3.4351	-1.3159	6.73	0.75	-0.750			
0.6570	42045.15	3.4320	3.4319	-1.2931	6.74	0.76	-0.750			
0.6608	42293.48	3.4290	3.4290	-1.2705	6.75	0.77	-0.750			
0.6646	42534.23	3.4260	3.4260	-1.2426	6.76	0.78	-0.750			
0.6683	42769.01	3.4230	3.4230	-1.2199	6.77	0.79	-0.750			
0.6719	43004.32	3.4200	3.4200	-1.1901	6.78	0.80	-0.750			
0.6755	43228.92	3.4170	3.4170	-1.1653	6.78	0.80	-0.750			
0.6789	43448.98	3.4140	3.4143	-1.1444	6.79	0.81	-0.750			
0.6823	43666.22	3.4110	3.4108	-1.1161	6.80	0.82	-0.750			
0.6856	43878.71	3.4080	3.4080	-1.0859	6.81	0.83	-0.750			
0.6888	44085.09	3.4050	3.4050	-1.0547	6.82	0.84	-0.750			
0.6920	44287.12	3.4020	3.4021	-1.0311	6.83	0.85	-0.750			
0.6950	44482.70	3.3990	3.3990	-1.0026	6.85	0.87	-0.750			
0.6979	44667.23	3.3960	3.3959	-0.9667	6.86	0.88	-0.750			
0.7008	44849.66	3.3930	3.3930	-0.9490	6.88	0.90	-0.750			
0.7036	45030.19	3.3900	3.3901	-0.9297	6.89	0.91	-0.750			
0.7064	45206.66	3.3870	3.3869	-0.9077	6.90	0.92	-0.750			
0.7091	45381.05	3.3840	3.3841	-0.8826	6.91	0.93	-0.750			
0.7117	45547.94	3.3810	3.3810	-0.8531	6.92	0.94	-0.750			
0.7142	45708.62	3.3780	3.3781	-0.8272	6.92	0.94	-0.750			
0.7166	45864.41	3.3750	3.3752	-0.8052	6.93	0.95	-0.750			
0.7190	46015.89	3.3720	3.3719	-0.7805	6.94	0.96	-0.750			
0.7213	46162.74	3.3690	3.3690	-0.7645	6.95	0.97	-0.750			
0.7235	46307.14	3.3660	3.3661	-0.7500	6.96	0.98	-0.750			
0.7258	46450.98	3.3630	3.3630	-0.7342	6.98	1.00	-0.750			
0.7280	46590.26	3.3600	3.3598	-0.7186	6.99	1.01	-0.750			
