Ah_balance (normalized)	Ah_balance (mAh)	Voltage - fit (V)	Voltage -  interpolate (V)	dQ/dV (1/V)	Temperature (°C)	Temperature - diff (°C)	Current (C)	R_DC 0ms (mOhm)	R_DC 50ms (mOhm)	R_DC 50 ms PEC (mOhm)
0.1780	11390.50	4.0820	4.0820	0.7546	7.35	1.36	0.750			
0.1802	11532.51	4.0790	4.0791	0.7395	7.34	1.35	0.750			
0.1825	11677.11	4.0760	4.0762	0.7540	7.34	1.35	0.750			
0.1847	11823.24	4.0730	4.0726	0.7623	7.33	1.34	0.750			
0.1870	11969.34	4.0700	4.0701	0.7711	7.32	1.33	0.750			
0.1894	12120.87	4.0670	4.0670	0.7701	7.31	1.32	0.750			
0.1917	12270.79	4.0640	4.0640	0.7806	7.31	1.32	0.750			
0.1941	12421.09	4.0610	4.0611	0.7796	7.30	1.31	0.750			
0.1964	12568.38	4.0580	4.0580	0.7737	7.29	1.30	0.750			
0.1987	12717.41	4.0550	4.0550	0.7778	7.29	1.30	0.750			
0.2011	12868.41	4.0520	4.0520	0.7714	7.28	1.29	0.750			
0.2033	13014.10	4.0490	4.0491	0.7749	7.28	1.29	0.750			
0.2057	13165.42	4.0460	4.0459	0.7833	7.28	1.29	0.750			
0.2080	13311.21	4.0430	4.0432	0.7877	7.27	1.28	0.750			
0.2104	13463.42	4.0400	4.0399	0.7947	7.27	1.28	0.750			
0.2128	13618.50	4.0370	4.0370	0.7983	7.26	1.27	0.750			
0.2152	13773.02	4.0340	4.0340	0.8035	7.25	1.26	0.750			
0.2176	13928.84	4.0310	4.0312	0.8102	7.24	1.25	0.750			
0.2201	14083.94	4.0280	4.0280	0.8092	7.24	1.25	0.750			
0.2225	14240.07	4.0250	4.0251	0.8133	7.23	1.24	0.750			
0.2249	14394.38	4.0220	4.0221	0.8211	7.22	1.23	0.750			
0.2274	14555.15	4.0190	4.0190	0.8210	7.22	1.23	0.750			
0.2299	14712.51	4.0160	4.0161	0.8228	7.21	1.22	0.750			
0.2323	14869.31	4.0130	4.0130	0.8245	7.21	1.22	0.750			
0.2348	15027.99	4.0100	4.0095	0.8248	7.20	1.21	0.750			
0.2373	15185.80	4.0070	4.0071	0.8289	7.19	1.20	0.750			
0.2398	15344.60	4.0040	4.0040	0.8364	7.19	1.20	0.750			
0.2423	15507.24	4.0010	4.0011	0.8387	7.18	1.19	0.750			
0.2449	15670.83	3.9980	3.9980	0.8545	7.18	1.19	0.750			
0.2474	15832.97	3.9950	3.9950	0.8505	7.17	1.18	0.750			
0.2500	15998.21	3.9920	3.9918	0.8496	7.16	1.17	0.750			
0.2525	16161.78	3.9890	3.9891	0.8423	7.15	1.16	0.750			
0.2550	16320.31	3.9860	3.9862	0.8382	7.14	1.15	0.750			
0.2575	16477.48	3.9830	3.9831	0.8504	7.14	1.15	0.750			
0.2600	16641.87	3.9800	3.9799	0.8594	7.13	1.14	0.750			
0.2626	16806.82	3.9770	3.9771	0.8496	7.12	1.13	0.750			
0.2652	16972.92	3.9740	3.9741	0.8650	7.11	1.12	0.750			
0.2678	17141.93	3.9710	3.9712	0.8803	7.10	1.11	0.750			
0.2705	17312.44	3.9680	3.9680	0.8875	7.09	1.10	0.750			
0.2731	17478.72	3.9650	3.9650	0.8839	7.09	1.10	0.750			
0.2758	17649.73	3.9620	3.9620	0.8808	7.08	1.09	0.750			
0.2785	17823.14	3.9590	3.9591	0.8875	7.07	1.08	0.750			
0.2812	17994.02	3.9560	3.9562	0.8875	7.06	1.07	0.750			
0.2838	18163.77	3.9530	3.9527	0.8777	7.05	1.06	0.750			
0.2864	18331.68	3.9500	3.9500	0.8702	7.05	1.06	0.750			
0.2890	18495.96	3.9470	3.9471	0.8787	7.04	1.05	0.750			
0.2916	18661.97	3.9440	3.9442	0.9016	7.04	1.05	0.750			
0.2943	18837.78	3.9410	3.9415	0.9257	7.03	1.04	0.750			
0.2971	19016.40	3.9380	3.9388	0.9403	7.03	1.04	0.750			
0.3000	19203.09	3.9350	3.9353	0.9407	7.02	1.03	0.750			
0.3029	19386.51	3.9320	3.9321	0.9615	7.00	1.01	0.750			
0.3059	19575.62	3.9290	3.9291	0.9690	6.99	1.00	0.750			
0.3088	19760.15	3.9260	3.9258	0.9655	6.97	0.98	0.750			
0.3116	19943.10	3.9230	3.9232	0.9603	6.97	0.98	0.750			
0.3145	20126.13	3.9200	3.9201	0.9717	6.96	0.97	0.750			
0.3174	20314.23	3.9170	3.9170	0.9840	6.96	0.97	0.750			
0.3204	20504.95	3.9140	3.9139	0.9869	6.95	0.96	0.750			
0.3234	20698.56	3.9110	3.9110	0.9857	6.94	0.95	0.750			
0.3264	20890.78	3.9080	3.9081	1.0060	6.93	0.94	0.750			
0.3294	21083.82	3.9050	3.9050	1.0201	6.92	0.93	0.750			
0.3325	21278.26	3.9020	3.9021	1.0400	6.91	0.92	0.750			
0.3356	21480.24	3.8990	3.8990	1.0425	6.90	0.91	0.750			
0.3388	21682.66	3.8960	3.8960	1.0441	6.89	0.90	0.750			
0.3419	21884.55	3.8930	3.8938	1.0583	6.88	0.89	0.750			
0.3451	22088.17	3.8900	3.8901	1.0673	6.87	0.88	0.750			
0.3483	22292.84	3.8870	3.8872	1.0529	6.85	0.86	0.750			
0.3514	22490.96	3.8840	3.8841	1.0693	6.84	0.85	0.750			
0.3546	22694.27	3.8810	3.8812	1.1001	6.83	0.84	0.750			
0.3580	22913.96	3.8780	3.8781	1.1333	6.82	0.83	0.750			
0.3615	23134.10	3.8750	3.8750	1.1124	6.80	0.81	0.750			
0.3648	23349.60	3.8720	3.8721	1.1370	6.79	0.80	0.750			
0.3683	23570.47	3.8690	3.8694	1.1575	6.78	0.79	0.750			
0.3718	23797.50	3.8660	3.8653	1.1698	6.77	0.78	0.750			
0.3754	24025.17	3.8630	3.8630	1.1579	6.76	0.77	0.750			
0.3788	24242.06	3.8600	3.8600	1.1753	6.75	0.76	0.750			
0.3823	24469.25	3.8570	3.8571	1.1866	6.74	0.75	0.750			
0.3859	24699.84	3.8540	3.8542	1.2083	6.73	0.74	0.750			
0.3897	24937.81	3.8510	3.8511	1.2086	6.71	0.72	0.750			
0.3932	25164.82	3.8480	3.8484	1.2641	6.70	0.71	0.750			
0.3971	25411.70	3.8450	3.8451	1.3065	6.69	0.70	0.750			
0.4012	25679.00	3.8420	3.8418	1.3292	6.68	0.69	0.750	0.307	0.835	
0.4052	25929.97	3.8390	3.8395	1.3599	6.66	0.67	0.750			
0.4094	26200.46	3.8360	3.8356	1.3835	6.65	0.66	0.750			
0.4135	26466.47	3.8330	3.8333	1.4135	6.63	0.64	0.750			
0.4178	26739.36	3.8300	3.8305	1.4298	6.61	0.62	0.750			
0.4219	27003.67	3.8270	3.8265	1.4447	6.59	0.60	0.750			
0.4265	27297.07	3.8240	3.8242	1.4702	6.58	0.59	0.750			
0.4310	27583.26	3.8210	3.8209	1.5135	6.56	0.57	0.750			
0.4355	27869.54	3.8180	3.8178	1.5515	6.55	0.56	0.750			
0.4401	28163.79	3.8150	3.8154	1.5243	6.53	0.54	0.750			
0.4448	28465.52	3.8120	3.8122	1.5487	6.52	0.53	0.750			
0.4493	28757.27	3.8090	3.8089	1.5804	6.50	0.51	0.750			
0.4540	29055.11	3.8060	3.8056	1.6316	6.49	0.50	0.750			
0.4589	29371.93	3.8030	3.8029	1.6782	6.47	0.48	0.750			
0.4643	29713.90	3.8000	3.7997	1.7264	6.45	0.46	0.750			
0.4696	30052.29	3.7970	3.7972	1.7196	6.42	0.43	0.750			
0.4746	30375.31	3.7940	3.7939	1.7271	6.40	0.41	0.750			
0.4798	30709.34	3.7910	3.7900	1.6916	6.38	0.39	0.750			
0.4848	31026.11	3.7880	3.7877	1.7166	6.37	0.38	0.750			
0.4900	31359.68	3.7850	3.7851	1.7837	6.35	0.36	0.750			
0.4954	31704.31	3.7820	3.7825	1.8071	6.34	0.35	0.750			
0.5009	32057.46	3.7790	3.7788	1.8258	6.32	0.33	0.750			
0.5062	32398.22	3.7760	3.7758	1.8331	6.30	0.31	0.750			
0.5117	32750.41	3.7730	3.7726	1.8731	6.28	0.29	0.750			
0.5174	33110.47	3.7700	3.7696	1.8304	6.25	0.26	0.750			
0.5230	33471.59	3.7670	3.7667	1.8701	6.23	0.24	0.750			
0.5286	33831.92	3.7640	3.7642	1.8442	6.21	0.22	0.750			
0.5340	34177.72	3.7610	3.7616	1.8334	6.20	0.21	0.750			
0.5395	34526.00	3.7580	3.7585	1.8476	6.18	0.19	0.750			
0.5450	34877.83	3.7550	3.7543	1.8839	6.17	0.18	0.750			
0.5509	35254.70	3.7520	3.7536	1.9792	6.14	0.15	0.750			
0.5572	35660.01	3.7490	3.7481	2.1125	6.12	0.13	0.750			
0.5639	36091.65	3.7460	3.7459	2.1700	6.10	0.11	0.750			
0.5701	36488.60	3.7430	3.7436	2.2186	6.09	0.10	0.750			
0.5768	36914.84	3.7400	3.7403	2.1625	6.07	0.08	0.750			
0.5832	37326.76	3.7370	3.7372	2.3063	6.05	0.06	0.750			
0.5896	37735.69	3.7340	3.7341	2.2967	6.03	0.04	0.750			
0.5968	38197.00	3.7310	3.7311	2.3022	6.01	0.02	0.750			
0.6039	38648.83	3.7280	3.7281	2.2780	6.00	0.01	0.750			
0.6108	39088.30	3.7250	3.7250	2.1871	5.99	-0.00	0.750			
0.6172	39499.76	3.7220	3.7227	2.2432	5.97	-0.02	0.750			
0.6241	39942.15	3.7190	3.7190	2.2282	5.95	-0.04	0.750			
0.6308	40373.87	3.7160	3.7162	2.0085	5.95	-0.04	0.750			
0.6367	40748.17	3.7130	3.7136	1.8449	5.95	-0.04	0.750			
0.6417	41071.38	3.7100	3.7102	1.6907	5.94	-0.05	0.750			
0.6467	41387.97	3.7070	3.7068	1.5708	5.93	-0.06	0.750			
0.6512	41676.74	3.7040	3.7048	1.4566	5.93	-0.06	0.750			
0.6553	41940.63	3.7010	3.7013	1.3192	5.93	-0.06	0.750			
0.6592	42189.86	3.6980	3.6977	1.2341	5.93	-0.06	0.750			
0.6625	42399.10	3.6950	3.6951	1.0680	5.93	-0.06	0.750			
0.6656	42597.49	3.6920	3.6919	1.0167	5.93	-0.06	0.750			
0.6684	42779.92	3.6890	3.6890	0.9620	5.93	-0.06	0.750			
0.6713	42961.85	3.6860	3.6860	0.9000	5.93	-0.06	0.750			
0.6739	43129.60	3.6830	3.6830	0.8540	5.93	-0.06	0.750			
0.6764	43286.88	3.6800	3.6803	0.8292	5.93	-0.06	0.750			
0.6787	43439.87	3.6770	3.6773	0.8150	5.93	-0.06	0.750			
0.6812	43596.14	3.6740	3.6720	0.7987	5.93	-0.06	0.750			
0.6835	43745.02	3.6710	3.6716	0.7646	5.93	-0.06	0.750			
0.6858	43892.90	3.6680	3.6682	0.7479	5.93	-0.06	0.750			
0.6881	44038.62	3.6650	3.6652	0.7227	5.94	-0.05	0.750			
0.6902	44175.95	3.6620	3.6619	0.6776	5.94	-0.05	0.750			
0.6922	44301.30	3.6590	3.6591	0.6434	5.94	-0.05	0.750			
0.6941	44421.84	3.6560	3.6560	0.6116	5.95	-0.04	0.750			
0.6959	44536.86	3.6530	3.6531	0.5826	5.95	-0.04	0.750			
0.6976	44644.34	3.6500	3.6499	0.5540	5.95	-0.04	0.750			
0.6992	44747.99	3.6470	3.6472	0.5245	5.96	-0.03	0.750			
0.7007	44847.01	3.6440	3.6439	0.4933	5.96	-0.03	0.750			
0.7022	44939.49	3.6410	3.6411	0.4606	5.97	-0.02	0.750			
0.7035	45025.18	3.6380	3.6381	0.4273	5.97	-0.02	0.750			
0.7047	45103.65	3.6350	3.6350	0.3938	5.97	-0.02	0.750			
0.7059	45176.73	3.6320	3.6319	0.3585	5.98	-0.01	0.750			
0.7069	45241.50	3.6290	3.6291	0.3228	5.98	-0.01	0.750			
0.7078	45301.07	3.6260	3.6260	0.2897	5.98	-0.01	0.750			
0.7087	45354.37	3.6230	3.6229	0.2520	5.99	-0.00	0.750			
0.7094	45399.50	3.6200	3.6199	0.2149	5.99	-0.00	0.750			
0.7099	45436.73	3.6170	3.6171	0.1750	5.99	0.00	0.750			
0.7104	45467.46	3.6140	3.6142	0.1373	5.99	0.00	0.750			
0.7108	45489.73	3.6110	3.6115	0.0972	5.99	0.00	0.750			
0.7111	45507.35	3.6080	3.6062	0.0555	5.99	0.00	0.750			
0.7111	45511.56	3.6020	3.5984	-0.0294	6.00	0.01	0.749			
0.7111	45513.12	3.6050	3.6700	0.0132	6.00	0.01	0.744			
