Ah_balance (normalized)	Ah_balance (mAh)	Voltage - fit (V)	Voltage -  interpolate (V)	dQ/dV (1/V)	Temperature (°C)	Temperature - diff (°C)	Current (C)	R_DC 0ms (mOhm)	R_DC 50ms (mOhm)	R_DC 50 ms PEC (mOhm)
0.1816	11621.81	4.0790	4.0790	0.7720	7.12	1.16	0.750			
0.1839	11770.87	4.0760	4.0760	0.7789	7.12	1.16	0.750			
0.1863	11921.58	4.0730	4.0730	0.7844	7.11	1.15	0.750			
0.1886	12072.23	4.0700	4.0699	0.7906	7.11	1.15	0.750			
0.1910	12225.59	4.0670	4.0670	0.7939	7.11	1.15	0.750			
0.1934	12379.89	4.0640	4.0640	0.7830	7.10	1.14	0.750			
0.1958	12528.12	4.0610	4.0610	0.7892	7.10	1.14	0.750			
0.1981	12679.54	4.0580	4.0580	0.7984	7.09	1.13	0.750			
0.2005	12831.81	4.0550	4.0549	0.8005	7.09	1.13	0.750			
0.2029	12985.82	4.0520	4.0521	0.8057	7.09	1.13	0.750			
0.2053	13142.24	4.0490	4.0491	0.8076	7.08	1.12	0.750			
0.2078	13299.04	4.0460	4.0460	0.8139	7.08	1.12	0.750			
0.2103	13457.70	4.0430	4.0429	0.8187	7.08	1.12	0.750			
0.2127	13610.78	4.0400	4.0401	0.8095	7.07	1.11	0.750			
0.2151	13766.64	4.0370	4.0370	0.8135	7.07	1.11	0.750			
0.2176	13924.05	4.0340	4.0340	0.8167	7.06	1.10	0.750			
0.2200	14080.15	4.0310	4.0310	0.8219	7.05	1.09	0.750			
0.2225	14239.46	4.0280	4.0280	0.8288	7.04	1.08	0.750			
0.2249	14396.68	4.0250	4.0250	0.8324	7.03	1.07	0.750			
0.2275	14559.28	4.0220	4.0220	0.8352	7.03	1.07	0.750			
0.2300	14722.74	4.0190	4.0191	0.8318	7.02	1.06	0.750			
0.2325	14881.67	4.0160	4.0159	0.8300	7.02	1.06	0.750			
0.2350	15038.89	4.0130	4.0131	0.8354	7.02	1.06	0.750			
0.2375	15197.13	4.0100	4.0101	0.8327	7.01	1.05	0.750			
0.2400	15357.23	4.0070	4.0070	0.8398	7.01	1.05	0.750			
0.2425	15520.10	4.0040	4.0041	0.8424	7.00	1.04	0.750			
0.2451	15684.40	4.0010	4.0010	0.8525	6.99	1.03	0.750			
0.2477	15850.52	3.9980	3.9980	0.8569	6.98	1.02	0.750			
0.2502	16011.74	3.9950	3.9950	0.8541	6.97	1.01	0.750			
0.2527	16174.55	3.9920	3.9920	0.8607	6.97	1.01	0.750			
0.2554	16343.13	3.9890	3.9890	0.8606	6.96	1.00	0.750			
0.2579	16507.57	3.9860	3.9859	0.8637	6.95	0.99	0.750			
0.2605	16675.12	3.9830	3.9831	0.8695	6.95	0.99	0.750			
0.2631	16840.82	3.9800	3.9800	0.8661	6.94	0.98	0.750			
0.2657	17006.83	3.9770	3.9769	0.8717	6.94	0.98	0.750			
0.2683	17174.07	3.9740	3.9741	0.8703	6.93	0.97	0.750			
0.2709	17339.22	3.9710	3.9709	0.8768	6.92	0.96	0.750			
0.2736	17509.92	3.9680	3.9681	0.8894	6.92	0.96	0.750			
0.2763	17680.92	3.9650	3.9647	0.8928	6.91	0.95	0.750			
0.2790	17853.05	3.9620	3.9621	0.8993	6.90	0.94	0.750			
0.2817	18027.82	3.9590	3.9590	0.9019	6.89	0.93	0.750			
0.2844	18200.60	3.9560	3.9561	0.9059	6.88	0.92	0.750			
0.2871	18374.59	3.9530	3.9530	0.9072	6.88	0.92	0.750			
0.2898	18548.42	3.9500	3.9499	0.9117	6.87	0.91	0.750			
0.2926	18724.01	3.9470	3.9470	0.9126	6.86	0.90	0.750			
0.2953	18899.20	3.9440	3.9441	0.9207	6.85	0.89	0.750			
0.2981	19076.16	3.9410	3.9410	0.9299	6.84	0.88	0.750			
0.3009	19255.24	3.9380	3.9377	0.9415	6.83	0.87	0.750			
0.3037	19438.06	3.9350	3.9351	0.9375	6.83	0.87	0.750			
0.3065	19618.00	3.9320	3.9320	0.9506	6.82	0.86	0.750			
0.3094	19802.45	3.9290	3.9291	0.9609	6.82	0.86	0.750			
0.3123	19986.70	3.9260	3.9262	0.9608	6.81	0.85	0.750			
0.3152	20173.61	3.9230	3.9231	0.9685	6.81	0.85	0.750			
0.3181	20359.68	3.9200	3.9200	0.9735	6.80	0.84	0.750			
0.3211	20548.14	3.9170	3.9170	0.9793	6.79	0.83	0.750			
0.3240	20738.86	3.9140	3.9141	0.9894	6.79	0.83	0.750			
0.3270	20925.27	3.9110	3.9110	0.9865	6.78	0.82	0.750			
0.3299	21114.83	3.9080	3.9080	0.9991	6.77	0.81	0.750			
0.3329	21305.47	3.9050	3.9050	1.0125	6.75	0.79	0.750			
0.3360	21500.97	3.9020	3.9020	1.0275	6.74	0.78	0.750			
0.3391	21704.11	3.8990	3.8990	1.0322	6.73	0.77	0.750			
0.3423	21904.24	3.8960	3.8961	1.0469	6.72	0.76	0.750			
0.3454	22105.32	3.8930	3.8931	1.0575	6.71	0.75	0.750			
0.3486	22308.42	3.8900	3.8901	1.0728	6.71	0.75	0.750			
0.3518	22512.82	3.8870	3.8868	1.0775	6.70	0.74	0.750			
0.3550	22722.08	3.8840	3.8840	1.0971	6.69	0.73	0.750			
0.3584	22936.25	3.8810	3.8811	1.1134	6.69	0.73	0.750			
0.3618	23152.67	3.8780	3.8780	1.1277	6.68	0.72	0.750			
0.3652	23370.93	3.8750	3.8750	1.1271	6.68	0.72	0.750			
0.3685	23584.51	3.8720	3.8720	1.1472	6.67	0.71	0.750			
0.3720	23806.35	3.8690	3.8691	1.1641	6.66	0.70	0.750			
0.3755	24033.18	3.8660	3.8658	1.1812	6.65	0.69	0.750			
0.3791	24260.98	3.8630	3.8632	1.2022	6.64	0.68	0.750			
0.3827	24495.98	3.8600	3.8600	1.2171	6.63	0.67	0.750			
0.3865	24733.37	3.8570	3.8571	1.2295	6.62	0.66	0.750			
0.3901	24968.33	3.8540	3.8540	1.2309	6.61	0.65	0.750			
0.3938	25201.60	3.8510	3.8512	1.2499	6.60	0.64	0.750			
0.3975	25442.71	3.8480	3.8480	1.2796	6.60	0.64	0.750			
0.4015	25694.75	3.8450	3.8447	1.2814	6.59	0.63	0.750			
0.4052	25935.35	3.8420	3.8421	1.3314	6.58	0.62	0.750			
0.4092	26191.96	3.8390	3.8392	1.3810	6.56	0.60	0.750			
0.4135	26464.60	3.8360	3.8359	1.4115	6.55	0.59	0.750	0.423	0.948	
0.4178	26737.16	3.8330	3.8335	1.4373	6.53	0.57	0.750			
0.4222	27020.19	3.8300	3.8303	1.4702	6.52	0.56	0.750			
0.4267	27306.62	3.8270	3.8269	1.5009	6.50	0.54	0.750			
0.4313	27601.32	3.8240	3.8239	1.5231	6.49	0.53	0.750			
0.4358	27888.40	3.8210	3.8212	1.5364	6.48	0.52	0.750			
0.4405	28188.95	3.8180	3.8180	1.5704	6.46	0.50	0.750			
0.4452	28494.71	3.8150	3.8150	1.6068	6.45	0.49	0.750			
0.4500	28801.17	3.8120	3.8121	1.6315	6.43	0.47	0.750			
0.4550	29120.73	3.8090	3.8092	1.6525	6.42	0.46	0.750			
0.4600	29440.23	3.8060	3.8061	1.6890	6.40	0.44	0.750			
0.4651	29765.37	3.8030	3.8030	1.7286	6.39	0.43	0.750			
0.4703	30101.82	3.8000	3.7998	1.7383	6.37	0.41	0.750			
0.4755	30434.04	3.7970	3.7971	1.7756	6.35	0.39	0.750			
0.4810	30784.79	3.7940	3.7939	1.8117	6.33	0.37	0.750			
0.4865	31138.23	3.7910	3.7910	1.8386	6.32	0.36	0.750			
0.4921	31495.83	3.7880	3.7883	1.8835	6.30	0.34	0.750			
0.4979	31864.86	3.7850	3.7851	1.9168	6.28	0.32	0.750			
0.5036	32230.57	3.7820	3.7821	1.9322	6.26	0.30	0.750			
0.5095	32605.28	3.7790	3.7789	1.9929	6.24	0.28	0.750			
0.5155	32993.93	3.7760	3.7761	2.0213	6.23	0.27	0.750			
0.5215	33379.16	3.7730	3.7728	2.0146	6.21	0.25	0.750			
0.5277	33769.89	3.7700	3.7702	2.0394	6.20	0.24	0.750			
0.5337	34158.86	3.7670	3.7670	2.0691	6.18	0.22	0.750			
0.5401	34567.78	3.7640	3.7640	2.1085	6.17	0.21	0.750			
0.5465	34976.75	3.7610	3.7610	2.1855	6.14	0.18	0.750			
0.5531	35399.83	3.7580	3.7580	2.1735	6.12	0.16	0.750			
0.5596	35817.22	3.7550	3.7552	2.1668	6.10	0.14	0.750			
0.5660	36226.53	3.7520	3.7520	2.1817	6.08	0.12	0.750			
0.5726	36646.28	3.7490	3.7489	2.2275	6.07	0.11	0.750			
0.5795	37086.81	3.7460	3.7462	2.3239	6.05	0.09	0.750			
0.5864	37531.90	3.7430	3.7430	2.3865	6.04	0.08	0.750			
0.5937	37996.90	3.7400	3.7400	2.4201	6.02	0.06	0.750			
0.6011	38472.04	3.7370	3.7371	2.4869	6.01	0.05	0.750			
0.6086	38952.23	3.7340	3.7340	2.5297	5.99	0.03	0.750			
0.6163	39444.74	3.7310	3.7310	2.6244	5.97	0.01	0.750			
0.6244	39960.00	3.7280	3.7281	2.7205	5.95	-0.01	0.750			
0.6327	40489.97	3.7250	3.7250	2.6911	5.94	-0.02	0.750			
0.6406	40999.05	3.7220	3.7219	2.6662	5.94	-0.02	0.750			
0.6487	41519.92	3.7190	3.7189	2.6227	5.93	-0.03	0.750			
0.6567	42026.16	3.7160	3.7160	2.5254	5.92	-0.04	0.750			
0.6639	42486.62	3.7130	3.7130	2.3061	5.91	-0.05	0.750			
0.6704	42905.83	3.7100	3.7100	2.1199	5.91	-0.05	0.750			
0.6767	43307.41	3.7070	3.7070	1.9371	5.91	-0.05	0.750			
0.6822	43663.70	3.7040	3.7041	1.7448	5.91	-0.05	0.750			
0.6870	43965.27	3.7010	3.7015	1.5209	5.91	-0.05	0.750			
0.6912	44236.06	3.6980	3.6980	1.3514	5.91	-0.05	0.750			
0.6949	44472.75	3.6950	3.6950	1.1976	5.91	-0.05	0.750			
0.6980	44673.94	3.6920	3.6921	1.0781	5.91	-0.05	0.750			
0.7011	44868.62	3.6890	3.6888	1.0008	5.91	-0.05	0.750			
0.7038	45043.05	3.6860	3.6860	0.9255	5.91	-0.05	0.750			
0.7065	45213.37	3.6830	3.6830	0.8802	5.92	-0.04	0.750			
0.7090	45378.47	3.6800	3.6800	0.8432	5.92	-0.04	0.750			
0.7115	45536.60	3.6770	3.6770	0.8056	5.93	-0.03	0.750			
0.7139	45687.97	3.6740	3.6739	0.7680	5.93	-0.03	0.750			
0.7161	45832.01	3.6710	3.6710	0.7292	5.94	-0.02	0.750			
0.7183	45968.92	3.6680	3.6680	0.6872	5.94	-0.02	0.750			
0.7203	46098.59	3.6650	3.6650	0.6397	5.95	-0.01	0.750			
0.7221	46216.51	3.6620	3.6620	0.5968	5.95	-0.01	0.750			
0.7239	46326.41	3.6590	3.6590	0.5551	5.95	-0.01	0.750			
0.7254	46427.40	3.6560	3.6561	0.5133	5.96	-0.00	0.750			
0.7269	46521.70	3.6530	3.6530	0.4745	5.96	0.00	0.750			
0.7283	46609.08	3.6500	3.6500	0.4342	5.97	0.01	0.750			
0.7295	46689.49	3.6470	3.6471	0.3962	5.97	0.01	0.750			
0.7307	46763.39	3.6440	3.6439	0.3600	5.97	0.01	0.750			
0.7317	46826.57	3.6410	3.6409	0.3196	5.97	0.01	0.750			
0.7326	46883.41	3.6380	3.6380	0.2829	5.98	0.02	0.750			
0.7334	46935.36	3.6350	3.6350	0.2463	5.98	0.02	0.750			
0.7341	46979.70	3.6320	3.6319	0.2112	5.98	0.02	0.750			
0.7346	47017.54	3.6290	3.6290	0.1754	5.98	0.02	0.750			
0.7351	47048.40	3.6260	3.6261	0.1379	5.98	0.02	0.750			
0.7355	47071.34	3.6230	3.6234	0.0978	5.98	0.02	0.750			
0.7357	47086.22	3.6200	3.6209	0.0571	5.98	0.02	0.750			
0.7358	47093.48	3.6170	3.6181	0.0117	5.98	0.02	0.750			
