Ah_balance (normalized)	Ah_balance (mAh)	Voltage - fit (V)	Voltage -  interpolate (V)	dQ/dV (1/V)	Temperature (°C)	Temperature - diff (°C)	Current (C)	R_DC 0ms (mOhm)	R_DC 50ms (mOhm)	R_DC 50 ms PEC (mOhm)
0.1566	10020.96	4.0800	4.0799	0.7737	7.43	1.46	0.750			
0.1589	10171.90	4.0770	4.0770	0.7921	7.43	1.46	0.750			
0.1614	10328.12	4.0740	4.0740	0.7971	7.42	1.45	0.750			
0.1638	10480.23	4.0710	4.0710	0.7995	7.42	1.45	0.750			
0.1662	10634.49	4.0680	4.0682	0.8034	7.41	1.44	0.750			
0.1686	10788.88	4.0650	4.0648	0.8038	7.41	1.44	0.750			
0.1710	10942.94	4.0620	4.0620	0.8037	7.41	1.44	0.750			
0.1734	11098.09	4.0590	4.0590	0.7986	7.40	1.43	0.750			
0.1758	11250.37	4.0560	4.0561	0.8077	7.40	1.43	0.750			
0.1782	11404.93	4.0530	4.0530	0.8116	7.39	1.42	0.750			
0.1806	11560.14	4.0500	4.0499	0.8184	7.39	1.42	0.750			
0.1831	11718.85	4.0470	4.0471	0.8214	7.39	1.42	0.750			
0.1856	11880.19	4.0440	4.0439	0.8189	7.38	1.41	0.750			
0.1881	12036.85	4.0410	4.0411	0.8242	7.38	1.41	0.750			
0.1906	12195.62	4.0380	4.0380	0.8293	7.38	1.41	0.750			
0.1930	12351.93	4.0350	4.0349	0.8247	7.37	1.40	0.750			
0.1955	12511.46	4.0320	4.0320	0.8299	7.37	1.40	0.750			
0.1980	12669.77	4.0290	4.0291	0.8352	7.36	1.39	0.750			
0.2005	12833.48	4.0260	4.0260	0.8398	7.36	1.39	0.750			
0.2031	12995.87	4.0230	4.0230	0.8403	7.36	1.39	0.750			
0.2056	13156.76	4.0200	4.0200	0.8412	7.35	1.38	0.750			
0.2081	13318.11	4.0170	4.0171	0.8445	7.34	1.37	0.750			
0.2107	13482.51	4.0140	4.0138	0.8430	7.34	1.37	0.750			
0.2132	13643.12	4.0110	4.0110	0.8437	7.33	1.36	0.750			
0.2157	13802.97	4.0080	4.0081	0.8455	7.32	1.35	0.750			
0.2182	13965.97	4.0050	4.0049	0.8547	7.31	1.34	0.750			
0.2208	14130.28	4.0020	4.0020	0.8590	7.31	1.34	0.750			
0.2234	14297.47	3.9990	3.9990	0.8609	7.31	1.34	0.750			
0.2260	14464.29	3.9960	3.9960	0.8651	7.31	1.34	0.750			
0.2286	14629.69	3.9930	3.9931	0.8677	7.31	1.34	0.750			
0.2312	14797.08	3.9900	3.9898	0.8709	7.31	1.34	0.750			
0.2338	14964.23	3.9870	3.9869	0.8685	7.31	1.34	0.750			
0.2364	15130.58	3.9840	3.9840	0.8748	7.30	1.33	0.750			
0.2391	15299.29	3.9810	3.9811	0.8804	7.30	1.33	0.750			
0.2417	15469.20	3.9780	3.9780	0.8868	7.29	1.32	0.750			
0.2444	15638.48	3.9750	3.9749	0.8908	7.29	1.32	0.750			
0.2470	15810.44	3.9720	3.9719	0.8925	7.28	1.31	0.750			
0.2498	15984.09	3.9690	3.9690	0.8984	7.27	1.30	0.750			
0.2524	16156.66	3.9660	3.9661	0.9060	7.26	1.29	0.750			
0.2552	16330.14	3.9630	3.9630	0.9078	7.25	1.28	0.750			
0.2579	16505.89	3.9600	3.9600	0.9126	7.25	1.28	0.750			
0.2606	16680.78	3.9570	3.9571	0.9138	7.24	1.27	0.750			
0.2634	16856.59	3.9540	3.9540	0.9203	7.24	1.27	0.750			
0.2662	17035.03	3.9510	3.9510	0.9268	7.23	1.26	0.750			
0.2689	17212.40	3.9480	3.9480	0.9289	7.23	1.26	0.750			
0.2717	17389.97	3.9450	3.9451	0.9267	7.22	1.25	0.750			
0.2745	17569.21	3.9420	3.9420	0.9387	7.21	1.24	0.750			
0.2773	17749.26	3.9390	3.9390	0.9484	7.20	1.23	0.750			
0.2802	17931.51	3.9360	3.9360	0.9576	7.19	1.22	0.750			
0.2831	18116.65	3.9330	3.9331	0.9604	7.19	1.22	0.750			
0.2860	18302.78	3.9300	3.9300	0.9614	7.18	1.21	0.750			
0.2888	18486.22	3.9270	3.9272	0.9726	7.18	1.21	0.750			
0.2918	18673.08	3.9240	3.9240	0.9800	7.17	1.20	0.750			
0.2947	18860.69	3.9210	3.9211	0.9857	7.17	1.20	0.750			
0.2977	19050.07	3.9180	3.9181	1.0005	7.16	1.19	0.750			
0.3007	19244.00	3.9150	3.9151	1.0137	7.15	1.18	0.750			
0.3038	19442.97	3.9120	3.9120	1.0252	7.14	1.17	0.750			
0.3069	19641.71	3.9090	3.9090	1.0189	7.13	1.16	0.750			
0.3100	19836.93	3.9060	3.9060	1.0251	7.12	1.15	0.750			
0.3130	20033.82	3.9030	3.9031	1.0382	7.12	1.15	0.750			
0.3161	20233.54	3.9000	3.9000	1.0440	7.11	1.14	0.750			
0.3193	20434.46	3.8970	3.8968	1.0454	7.11	1.14	0.750			
0.3224	20634.72	3.8940	3.8941	1.0667	7.10	1.13	0.750			
0.3256	20839.06	3.8910	3.8911	1.0912	7.09	1.12	0.750			
0.3289	21051.81	3.8880	3.8880	1.1112	7.08	1.11	0.750			
0.3323	21267.25	3.8850	3.8850	1.1186	7.07	1.10	0.750			
0.3357	21484.27	3.8820	3.8821	1.1350	7.06	1.09	0.750			
0.3392	21706.91	3.8790	3.8791	1.1543	7.04	1.07	0.750			
0.3426	21929.30	3.8760	3.8759	1.1677	7.03	1.06	0.750			
0.3461	22152.51	3.8730	3.8730	1.1795	7.02	1.05	0.750			
0.3497	22380.83	3.8700	3.8700	1.1873	7.01	1.04	0.750			
0.3533	22612.16	3.8670	3.8670	1.2032	7.00	1.03	0.750			
0.3570	22845.27	3.8640	3.8642	1.2213	6.99	1.02	0.750			
0.3606	23077.65	3.8610	3.8609	1.2371	6.97	1.00	0.750			
0.3643	23313.40	3.8580	3.8580	1.2582	6.96	0.99	0.750			
0.3681	23557.32	3.8550	3.8548	1.2793	6.94	0.97	0.750			
0.3720	23807.95	3.8520	3.8521	1.3084	6.93	0.96	0.750			
0.3760	24064.35	3.8490	3.8490	1.3288	6.92	0.95	0.750			
0.3801	24323.50	3.8460	3.8459	1.3440	6.91	0.94	0.750			
0.3840	24577.65	3.8430	3.8431	1.3869	6.90	0.93	0.750			
0.3882	24842.62	3.8400	3.8399	1.4136	6.89	0.92	0.750			
0.3925	25120.06	3.8370	3.8368	1.4375	6.87	0.90	0.750	0.415	0.992	
0.3969	25400.98	3.8340	3.8342	1.4741	6.86	0.89	0.750			
0.4013	25686.06	3.8310	3.8311	1.5004	6.85	0.88	0.750			
0.4059	25976.99	3.8280	3.8278	1.5245	6.84	0.87	0.750			
0.4104	26268.60	3.8250	3.8250	1.5342	6.83	0.86	0.750			
0.4151	26567.99	3.8220	3.8221	1.5768	6.81	0.84	0.750			
0.4199	26874.45	3.8190	3.8188	1.6291	6.80	0.83	0.750			
0.4249	27190.54	3.8160	3.8159	1.6626	6.78	0.81	0.750			
0.4300	27517.27	3.8130	3.8130	1.7059	6.76	0.79	0.750			
0.4351	27848.48	3.8100	3.8101	1.7412	6.74	0.77	0.750			
0.4404	28188.00	3.8070	3.8071	1.7539	6.72	0.75	0.750			
0.4457	28525.52	3.8040	3.8040	1.7929	6.70	0.73	0.750			
0.4510	28864.98	3.8010	3.8011	1.8293	6.68	0.71	0.750			
0.4566	29219.21	3.7980	3.7979	1.8402	6.65	0.68	0.750			
0.4622	29578.44	3.7950	3.7950	1.9178	6.63	0.66	0.750			
0.4680	29953.21	3.7920	3.7918	1.9635	6.61	0.64	0.750			
0.4738	30326.03	3.7890	3.7889	1.9648	6.59	0.62	0.750			
0.4799	30711.22	3.7860	3.7860	2.0270	6.57	0.60	0.750			
0.4861	31110.66	3.7830	3.7831	2.0959	6.54	0.57	0.750			
0.4925	31519.65	3.7800	3.7800	2.0993	6.51	0.54	0.750			
0.4989	31931.53	3.7770	3.7770	2.1477	6.49	0.52	0.750			
0.5055	32354.19	3.7740	3.7739	2.1670	6.47	0.50	0.750			
0.5119	32758.56	3.7710	3.7713	2.2099	6.45	0.48	0.750			
0.5185	33186.00	3.7680	3.7678	2.2760	6.42	0.45	0.750			
0.5255	33632.50	3.7650	3.7651	2.3260	6.39	0.42	0.750			
0.5327	34092.25	3.7620	3.7620	2.3772	6.36	0.39	0.750			
0.5397	34542.00	3.7590	3.7590	2.3427	6.34	0.37	0.750			
0.5468	34992.83	3.7560	3.7561	2.3871	6.30	0.33	0.750			
0.5540	35456.95	3.7530	3.7531	2.4135	6.26	0.29	0.750			
0.5613	35920.29	3.7500	3.7501	2.5060	6.23	0.26	0.750			
0.5689	36410.82	3.7470	3.7470	2.5303	6.21	0.24	0.750			
0.5767	36908.24	3.7440	3.7441	2.6094	6.19	0.22	0.750			
0.5844	37401.77	3.7410	3.7410	2.6998	6.17	0.20	0.750			
0.5926	37927.85	3.7380	3.7380	2.8427	6.14	0.17	0.750			
0.6015	38493.63	3.7350	3.7349	3.0004	6.11	0.14	0.750			
0.6106	39078.66	3.7320	3.7320	3.0044	6.08	0.11	0.750			
0.6197	39661.08	3.7290	3.7289	3.0743	6.06	0.09	0.750			
0.6289	40247.60	3.7260	3.7260	3.0546	6.04	0.07	0.750			
0.6382	40843.31	3.7230	3.7230	2.9693	6.01	0.04	0.750			
0.6467	41390.42	3.7200	3.7199	2.6886	5.99	0.02	0.750			
0.6544	41880.36	3.7170	3.7171	2.4571	5.99	0.02	0.750			
0.6613	42325.28	3.7140	3.7138	2.1714	5.98	0.01	0.750			
0.6674	42710.70	3.7110	3.7110	1.8765	5.97	0.00	0.750			
0.6725	43038.40	3.7080	3.7081	1.6451	5.97	-0.00	0.750			
0.6771	43334.21	3.7050	3.7051	1.4363	5.96	-0.01	0.750			
0.6808	43573.38	3.7020	3.7019	1.2471	5.96	-0.01	0.750			
0.6843	43792.38	3.6990	3.6989	1.1044	5.96	-0.01	0.750			
0.6873	43989.97	3.6960	3.6960	1.0150	5.96	-0.01	0.750			
0.6901	44167.96	3.6930	3.6931	0.9303	5.96	-0.01	0.750			
0.6928	44336.46	3.6900	3.6899	0.8643	5.96	-0.01	0.750			
0.6953	44496.71	3.6870	3.6870	0.8116	5.96	-0.01	0.750			
0.6976	44646.35	3.6840	3.6840	0.7576	5.96	-0.01	0.750			
0.6998	44787.97	3.6810	3.6810	0.7047	5.96	-0.01	0.750			
0.7019	44920.54	3.6780	3.6780	0.6529	5.97	-0.00	0.750			
0.7037	45039.37	3.6750	3.6750	0.5946	5.97	-0.00	0.750			
0.7054	45147.53	3.6720	3.6720	0.5378	5.97	-0.00	0.750			
0.7070	45245.20	3.6690	3.6690	0.4859	5.97	0.00	0.750			
0.7083	45331.26	3.6660	3.6660	0.4355	5.97	0.00	0.750			
0.7095	45409.53	3.6630	3.6629	0.3912	5.97	0.00	0.750			
0.7106	45480.02	3.6600	3.6600	0.3492	5.97	0.00	0.750			
0.7116	45542.28	3.6570	3.6570	0.3091	5.97	0.00	0.750			
0.7125	45597.51	3.6540	3.6540	0.2709	5.97	0.00	0.750			
0.7132	45646.71	3.6510	3.6510	0.2328	5.98	0.01	0.750			
0.7139	45687.34	3.6480	3.6479	0.1932	5.98	0.01	0.750			
0.7144	45721.26	3.6450	3.6451	0.1550	5.98	0.01	0.750			
0.7148	45747.36	3.6420	3.6422	0.1151	5.98	0.01	0.750			
0.7151	45765.77	3.6390	3.6397	0.0745	5.98	0.01	0.750			
0.7153	45776.45	3.6360	3.6375	0.0254	5.98	0.01	0.750			
