Ah_balance (normalized)	Ah_balance (mAh)	Voltage - fit (V)	Voltage -  interpolate (V)	dQ/dV (1/V)	Temperature (°C)	Temperature - diff (°C)	Current (C)	R_DC 0ms (mOhm)	R_DC 50ms (mOhm)	R_DC 50 ms PEC (mOhm)
0.1792	11466.07	4.0800	4.0801	0.7894	7.40	1.41	0.750			
0.1815	11615.60	4.0770	4.0771	0.7801	7.39	1.40	0.750			
0.1838	11764.50	4.0740	4.0737	0.7834	7.39	1.40	0.750			
0.1862	11916.38	4.0710	4.0710	0.7834	7.39	1.40	0.750			
0.1885	12066.77	4.0680	4.0680	0.7746	7.38	1.39	0.750			
0.1909	12215.35	4.0650	4.0651	0.7859	7.38	1.39	0.750			
0.1932	12366.90	4.0620	4.0619	0.7947	7.37	1.38	0.750			
0.1956	12518.33	4.0590	4.0588	0.7958	7.37	1.38	0.750			
0.1980	12672.32	4.0560	4.0561	0.8012	7.37	1.38	0.750			
0.2004	12828.30	4.0530	4.0531	0.8004	7.36	1.37	0.750			
0.2029	12983.95	4.0500	4.0500	0.8093	7.36	1.37	0.750			
0.2053	13140.03	4.0470	4.0470	0.8117	7.36	1.37	0.750			
0.2077	13292.61	4.0440	4.0439	0.8043	7.35	1.36	0.750			
0.2101	13447.25	4.0410	4.0412	0.8091	7.35	1.36	0.750			
0.2126	13603.60	4.0380	4.0380	0.8135	7.34	1.35	0.750			
0.2150	13759.90	4.0350	4.0350	0.8163	7.34	1.35	0.750			
0.2175	13919.29	4.0320	4.0320	0.8188	7.34	1.35	0.750			
0.2199	14075.42	4.0290	4.0290	0.8192	7.33	1.34	0.750			
0.2224	14232.07	4.0260	4.0261	0.8269	7.33	1.34	0.750			
0.2249	14393.40	4.0230	4.0229	0.8227	7.32	1.33	0.750			
0.2273	14549.33	4.0200	4.0200	0.8256	7.32	1.33	0.750			
0.2298	14707.82	4.0170	4.0171	0.8298	7.32	1.33	0.750			
0.2323	14867.43	4.0140	4.0141	0.8357	7.31	1.32	0.750			
0.2348	15029.35	4.0110	4.0109	0.8383	7.31	1.32	0.750			
0.2374	15192.50	4.0080	4.0080	0.8302	7.30	1.31	0.750			
0.2399	15350.50	4.0050	4.0052	0.8381	7.30	1.31	0.750			
0.2424	15513.03	4.0020	4.0020	0.8447	7.30	1.31	0.750			
0.2449	15674.18	3.9990	3.9991	0.8435	7.29	1.30	0.750			
0.2474	15834.97	3.9960	3.9962	0.8477	7.29	1.30	0.750			
0.2500	15999.46	3.9930	3.9930	0.8459	7.28	1.29	0.750			
0.2525	16163.08	3.9900	3.9901	0.8614	7.28	1.29	0.750			
0.2551	16329.59	3.9870	3.9870	0.8655	7.28	1.29	0.750			
0.2578	16496.48	3.9840	3.9840	0.8645	7.27	1.28	0.750			
0.2604	16663.90	3.9810	3.9812	0.8712	7.27	1.28	0.750			
0.2630	16831.42	3.9780	3.9781	0.8715	7.26	1.27	0.750			
0.2656	16998.05	3.9750	3.9750	0.8754	7.26	1.27	0.750			
0.2682	17165.02	3.9720	3.9720	0.8708	7.25	1.26	0.750			
0.2708	17333.54	3.9690	3.9688	0.8791	7.25	1.26	0.750			
0.2735	17504.40	3.9660	3.9660	0.8864	7.25	1.26	0.750			
0.2762	17675.32	3.9630	3.9630	0.8810	7.24	1.25	0.750			
0.2788	17841.64	3.9600	3.9601	0.8919	7.24	1.25	0.750			
0.2815	18013.73	3.9570	3.9571	0.9022	7.23	1.24	0.750			
0.2842	18186.23	3.9540	3.9536	0.9074	7.23	1.24	0.750			
0.2869	18362.67	3.9510	3.9511	0.9113	7.22	1.23	0.750			
0.2897	18537.80	3.9480	3.9482	0.9225	7.21	1.22	0.750			
0.2924	18716.71	3.9450	3.9450	0.9382	7.20	1.21	0.750			
0.2953	18897.39	3.9420	3.9420	0.9345	7.19	1.20	0.750			
0.2981	19079.92	3.9390	3.9390	0.9293	7.19	1.20	0.750			
0.3009	19259.87	3.9360	3.9360	0.9348	7.18	1.19	0.750			
0.3037	19439.19	3.9330	3.9333	0.9382	7.18	1.19	0.750			
0.3065	19618.47	3.9300	3.9300	0.9447	7.17	1.18	0.750			
0.3093	19796.39	3.9270	3.9268	0.9438	7.17	1.18	0.750			
0.3122	19980.92	3.9240	3.9240	0.9401	7.16	1.17	0.750			
0.3150	20161.37	3.9210	3.9211	0.9613	7.16	1.17	0.750			
0.3179	20346.48	3.9180	3.9181	0.9710	7.16	1.17	0.750			
0.3208	20531.26	3.9150	3.9146	0.9825	7.15	1.16	0.750			
0.3238	20722.32	3.9120	3.9122	0.9907	7.15	1.16	0.750			
0.3268	20914.03	3.9090	3.9090	1.0044	7.14	1.15	0.750			
0.3299	21110.56	3.9060	3.9061	1.0186	7.14	1.15	0.750			
0.3330	21311.22	3.9030	3.9029	1.0404	7.13	1.14	0.750			
0.3360	21506.30	3.9000	3.9000	1.0203	7.12	1.13	0.750			
0.3391	21703.76	3.8970	3.8970	1.0368	7.11	1.12	0.750			
0.3422	21902.04	3.8940	3.8941	1.0495	7.10	1.11	0.750			
0.3454	22104.25	3.8910	3.8909	1.0582	7.09	1.10	0.750			
0.3486	22310.48	3.8880	3.8881	1.0677	7.09	1.10	0.750			
0.3518	22514.51	3.8850	3.8851	1.0864	7.08	1.09	0.750			
0.3551	22723.54	3.8820	3.8821	1.1089	7.08	1.09	0.750			
0.3585	22942.45	3.8790	3.8786	1.1279	7.07	1.08	0.750			
0.3618	23155.88	3.8760	3.8761	1.1446	7.06	1.07	0.750			
0.3653	23380.08	3.8730	3.8730	1.1628	7.05	1.06	0.750			
0.3689	23609.32	3.8700	3.8701	1.1832	7.04	1.05	0.750			
0.3725	23837.55	3.8670	3.8669	1.1789	7.03	1.04	0.750			
0.3760	24063.60	3.8640	3.8643	1.1963	7.02	1.03	0.750			
0.3796	24293.59	3.8610	3.8609	1.2086	7.00	1.01	0.750			
0.3833	24531.83	3.8580	3.8576	1.2027	6.99	1.00	0.750			
0.3868	24757.68	3.8550	3.8553	1.2132	6.98	0.99	0.750			
0.3905	24992.60	3.8520	3.8521	1.2386	6.97	0.98	0.750			
0.3943	25235.18	3.8490	3.8491	1.2555	6.96	0.97	0.750			
0.3980	25474.22	3.8460	3.8459	1.2635	6.95	0.96	0.750			
0.4018	25716.12	3.8430	3.8432	1.3171	6.94	0.95	0.750			
0.4059	25979.01	3.8400	3.8401	1.3500	6.93	0.94	0.750			
0.4100	26242.79	3.8370	3.8368	1.3932	6.93	0.94	0.750	0.418	0.936	
0.4143	26514.36	3.8340	3.8343	1.4014	6.91	0.92	0.750			
0.4186	26787.39	3.8310	3.8312	1.4513	6.90	0.91	0.750			
0.4230	27073.36	3.8280	3.8281	1.4751	6.88	0.89	0.750			
0.4274	27353.74	3.8250	3.8248	1.4838	6.87	0.88	0.750			
0.4318	27638.30	3.8220	3.8222	1.5147	6.85	0.86	0.750			
0.4365	27932.88	3.8190	3.8192	1.5514	6.83	0.84	0.750			
0.4413	28240.37	3.8160	3.8159	1.5825	6.82	0.83	0.750			
0.4460	28544.36	3.8130	3.8129	1.6163	6.81	0.82	0.750			
0.4510	28867.14	3.8100	3.8100	1.6404	6.79	0.80	0.750			
0.4559	29178.71	3.8070	3.8068	1.6879	6.78	0.79	0.750			
0.4610	29503.82	3.8040	3.8040	1.7007	6.76	0.77	0.750			
0.4662	29838.12	3.8010	3.8007	1.7258	6.74	0.75	0.750			
0.4715	30175.04	3.7980	3.7979	1.7782	6.72	0.73	0.750			
0.4768	30514.26	3.7950	3.7951	1.8334	6.70	0.71	0.750			
0.4825	30877.61	3.7920	3.7918	1.8925	6.68	0.69	0.750			
0.4882	31247.67	3.7890	3.7889	1.9106	6.66	0.67	0.750			
0.4939	31612.63	3.7860	3.7860	1.9133	6.64	0.65	0.750			
0.4997	31977.88	3.7830	3.7826	1.9442	6.62	0.63	0.750			
0.5054	32343.14	3.7800	3.7798	1.9313	6.59	0.60	0.750			
0.5114	32726.48	3.7770	3.7769	1.9937	6.57	0.58	0.750			
0.5175	33118.62	3.7740	3.7740	2.0320	6.55	0.56	0.750			
0.5237	33516.27	3.7710	3.7710	2.0752	6.52	0.53	0.750			
0.5301	33923.55	3.7680	3.7682	2.1068	6.49	0.50	0.750			
0.5367	34348.33	3.7650	3.7652	2.1408	6.47	0.48	0.750			
0.5429	34748.40	3.7620	3.7623	2.1672	6.44	0.45	0.750			
0.5495	35169.41	3.7590	3.7593	2.1836	6.42	0.43	0.750			
0.5562	35593.80	3.7560	3.7564	2.2499	6.40	0.41	0.750			
0.5630	36033.62	3.7530	3.7527	2.2485	6.37	0.38	0.750			
0.5696	36455.23	3.7500	3.7503	2.2229	6.34	0.35	0.750			
0.5764	36892.33	3.7470	3.7470	2.3100	6.31	0.32	0.750			
0.5832	37324.23	3.7440	3.7440	2.3872	6.27	0.28	0.750			
0.5908	37810.61	3.7410	3.7411	2.5619	6.25	0.26	0.750			
0.5988	38322.06	3.7380	3.7380	2.5970	6.22	0.23	0.750			
0.6066	38823.47	3.7350	3.7352	2.6071	6.20	0.21	0.750			
0.6145	39325.66	3.7320	3.7319	2.6899	6.17	0.18	0.750			
0.6226	39844.70	3.7290	3.7290	2.8766	6.14	0.15	0.750			
0.6316	40421.30	3.7260	3.7259	2.8831	6.11	0.12	0.750			
0.6402	40971.14	3.7230	3.7230	2.9066	6.08	0.09	0.750			
0.6490	41537.32	3.7200	3.7200	2.7391	6.06	0.07	0.750			
0.6573	42066.88	3.7170	3.7169	2.6736	6.03	0.04	0.750			
0.6647	42541.43	3.7140	3.7138	2.4015	6.02	0.03	0.750			
0.6717	42988.47	3.7110	3.7109	2.1797	6.01	0.02	0.750			
0.6781	43396.72	3.7080	3.7078	1.9859	6.00	0.01	0.750			
0.6834	43738.50	3.7050	3.7050	1.7348	5.99	0.00	0.750			
0.6884	44057.68	3.7020	3.7020	1.5663	5.99	0.00	0.750			
0.6927	44329.94	3.6990	3.6988	1.3674	5.99	0.00	0.750			
0.6964	44572.57	3.6960	3.6966	1.2129	5.99	-0.00	0.750			
0.6999	44794.46	3.6930	3.6931	1.0799	5.99	-0.00	0.750			
0.7029	44984.32	3.6900	3.6899	0.9740	5.98	-0.01	0.750			
0.7055	45150.25	3.6870	3.6869	0.8908	5.98	-0.01	0.750			
0.7079	45304.44	3.6840	3.6840	0.8166	5.98	-0.01	0.750			
0.7103	45457.43	3.6810	3.6810	0.7726	5.98	-0.01	0.750			
0.7125	45602.97	3.6780	3.6781	0.7316	5.98	-0.01	0.750			
0.7147	45741.48	3.6750	3.6750	0.6809	5.98	-0.01	0.750			
0.7167	45870.19	3.6720	3.6720	0.6330	5.99	-0.00	0.750			
0.7185	45983.31	3.6690	3.6690	0.5762	5.99	-0.00	0.750			
0.7201	46087.68	3.6660	3.6659	0.5267	5.99	-0.00	0.750			
0.7216	46183.37	3.6630	3.6631	0.4807	5.99	0.00	0.750			
0.7230	46270.64	3.6600	3.6600	0.4365	5.99	0.00	0.750			
0.7242	46349.70	3.6570	3.6570	0.3952	5.99	0.00	0.750			
0.7253	46422.36	3.6540	3.6540	0.3577	5.99	0.00	0.750			
0.7263	46486.24	3.6510	3.6510	0.3179	5.99	0.00	0.750			
0.7272	46543.61	3.6480	3.6479	0.2806	5.99	0.00	0.750			
0.7280	46593.84	3.6450	3.6450	0.2410	6.00	0.01	0.750			
0.7287	46636.97	3.6420	3.6420	0.2043	6.00	0.01	0.750			
0.7293	46673.23	3.6390	3.6391	0.1666	6.00	0.01	0.750			
0.7297	46701.64	3.6360	3.6362	0.1266	6.00	0.01	0.750			
0.7300	46722.25	3.6330	3.6337	0.0856	6.00	0.01	0.750			
0.7302	46734.90	3.6300	3.6312	0.0388	6.00	0.01	0.750			
