Ah_balance (normalized)	Ah_balance (mAh)	Voltage - fit (V)	Voltage -  interpolate (V)	dQ/dV (1/V)	Temperature (°C)	Temperature - diff (°C)	Current (C)	R_DC 0ms (mOhm)	R_DC 50ms (mOhm)	R_DC 50 ms PEC (mOhm)
0.0702	4489.84	3.9970	3.9966	-0.0994	5.98	0.01	-0.750			
0.0705	4512.53	3.9940	3.9938	-0.1287	5.98	0.01	-0.750			
0.0709	4539.96	3.9910	3.9910	-0.1543	5.98	0.01	-0.750			
0.0714	4572.13	3.9880	3.9880	-0.1792	5.98	0.01	-0.750			
0.0720	4608.99	3.9850	3.9851	-0.2037	5.98	0.01	-0.750			
0.0727	4650.55	3.9820	3.9820	-0.2301	5.98	0.01	-0.750			
0.0734	4696.79	3.9790	3.9790	-0.2541	5.98	0.01	-0.750			
0.0742	4748.08	3.9760	3.9760	-0.2810	5.97	0.00	-0.750			
0.0751	4804.60	3.9730	3.9730	-0.3056	5.97	0.00	-0.750			
0.0760	4865.73	3.9700	3.9700	-0.3330	5.97	0.00	-0.750			
0.0771	4932.07	3.9670	3.9671	-0.3604	5.97	0.00	-0.750			
0.0782	5004.00	3.9640	3.9639	-0.3866	5.97	-0.00	-0.750			
0.0794	5080.44	3.9610	3.9610	-0.4135	5.97	-0.00	-0.750			
0.0807	5162.47	3.9580	3.9580	-0.4402	5.96	-0.01	-0.750			
0.0820	5249.60	3.9550	3.9550	-0.4657	5.96	-0.01	-0.750			
0.0835	5341.45	3.9520	3.9520	-0.4961	5.96	-0.01	-0.750			
0.0850	5439.17	3.9490	3.9490	-0.5214	5.96	-0.01	-0.750			
0.0866	5542.57	3.9460	3.9460	-0.5448	5.96	-0.01	-0.750			
0.0883	5649.92	3.9430	3.9430	-0.5699	5.95	-0.02	-0.750			
0.0900	5762.34	3.9400	3.9402	-0.5916	5.95	-0.02	-0.750			
0.0918	5878.38	3.9370	3.9369	-0.6129	5.95	-0.02	-0.750			
0.0937	5998.15	3.9340	3.9340	-0.6310	5.95	-0.02	-0.750			
0.0956	6120.63	3.9310	3.9310	-0.6479	5.95	-0.02	-0.750			
0.0976	6247.94	3.9280	3.9280	-0.6662	5.96	-0.01	-0.750			
0.0997	6378.31	3.9250	3.9249	-0.6777	5.96	-0.01	-0.750			
0.1017	6509.47	3.9220	3.9221	-0.6895	5.96	-0.01	-0.750			
0.1038	6643.21	3.9190	3.9190	-0.7016	5.96	-0.01	-0.750			
0.1059	6778.77	3.9160	3.9160	-0.7118	5.96	-0.01	-0.750			
0.1081	6916.90	3.9130	3.9129	-0.7242	5.96	-0.01	-0.750			
0.1103	7057.16	3.9100	3.9100	-0.7311	5.97	-0.00	-0.750			
0.1125	7199.88	3.9070	3.9070	-0.7409	5.97	-0.00	-0.750			
0.1147	7342.63	3.9040	3.9042	-0.7475	5.97	-0.00	-0.750			
0.1170	7486.49	3.9010	3.9010	-0.7513	5.97	0.00	-0.750			
0.1192	7630.56	3.8980	3.8980	-0.7595	5.98	0.01	-0.750			
0.1215	7776.48	3.8950	3.8950	-0.7635	5.98	0.01	-0.750			
0.1238	7925.05	3.8920	3.8920	-0.7721	5.98	0.01	-0.750			
0.1262	8073.97	3.8890	3.8890	-0.7742	5.99	0.02	-0.750			
0.1285	8223.27	3.8860	3.8860	-0.7794	5.99	0.02	-0.750			
0.1308	8372.63	3.8830	3.8830	-0.7838	6.00	0.03	-0.750			
0.1332	8523.10	3.8800	3.8799	-0.7862	6.00	0.03	-0.750			
0.1355	8674.18	3.8770	3.8770	-0.7862	6.00	0.03	-0.750			
0.1379	8826.19	3.8740	3.8740	-0.7910	6.01	0.04	-0.750			
0.1403	8978.89	3.8710	3.8710	-0.7939	6.01	0.04	-0.750			
0.1427	9131.33	3.8680	3.8679	-0.7963	6.02	0.05	-0.750			
0.1450	9283.04	3.8650	3.8650	-0.8013	6.03	0.06	-0.750			
0.1475	9438.67	3.8620	3.8620	-0.8035	6.03	0.06	-0.750			
0.1499	9594.49	3.8590	3.8589	-0.8079	6.04	0.07	-0.750			
0.1523	9750.09	3.8560	3.8562	-0.8099	6.05	0.08	-0.750			
0.1548	9905.36	3.8530	3.8530	-0.8097	6.05	0.08	-0.750			
0.1572	10060.29	3.8500	3.8499	-0.8167	6.06	0.09	-0.750			
0.1596	10216.34	3.8470	3.8470	-0.8166	6.06	0.09	-0.750			
0.1621	10374.98	3.8440	3.8439	-0.8205	6.07	0.10	-0.750			
0.1646	10532.86	3.8410	3.8412	-0.8210	6.07	0.10	-0.750			
0.1670	10690.63	3.8380	3.8380	-0.8209	6.08	0.11	-0.750			
0.1695	10847.58	3.8350	3.8350	-0.8209	6.09	0.12	-0.750			
0.1719	11004.06	3.8320	3.8320	-0.8201	6.09	0.12	-0.750			
0.1744	11160.76	3.8290	3.8289	-0.8211	6.10	0.13	-0.750			
0.1769	11319.93	3.8260	3.8260	-0.8303	6.11	0.14	-0.750			
0.1794	11480.39	3.8230	3.8230	-0.8310	6.12	0.15	-0.750			
0.1819	11640.79	3.8200	3.8199	-0.8355	6.12	0.15	-0.750			
0.1844	11802.56	3.8170	3.8170	-0.8348	6.13	0.16	-0.750			
0.1869	11963.02	3.8140	3.8140	-0.8320	6.14	0.17	-0.750			
0.1894	12122.96	3.8110	3.8111	-0.8302	6.15	0.18	-0.750			
0.1919	12280.87	3.8080	3.8080	-0.8335	6.16	0.19	-0.750			
0.1944	12438.46	3.8050	3.8049	-0.8348	6.16	0.19	-0.750			
0.1969	12599.99	3.8020	3.8020	-0.8412	6.17	0.20	-0.750			
0.1994	12762.43	3.7990	3.7990	-0.8393	6.18	0.21	-0.750			
0.2020	12926.91	3.7960	3.7961	-0.8456	6.19	0.22	-0.750			
0.2045	13089.45	3.7930	3.7930	-0.8436	6.20	0.23	-0.750			
0.2070	13250.10	3.7900	3.7900	-0.8430	6.21	0.24	-0.750			
0.2095	13410.78	3.7870	3.7870	-0.8413	6.21	0.24	-0.750			
0.2121	13572.11	3.7840	3.7840	-0.8398	6.22	0.25	-0.750			
0.2146	13734.49	3.7810	3.7811	-0.8424	6.23	0.26	-0.750			
0.2171	13896.31	3.7780	3.7780	-0.8443	6.24	0.27	-0.750			
0.2197	14057.98	3.7750	3.7750	-0.8462	6.25	0.28	-0.750			
0.2222	14221.34	3.7720	3.7720	-0.8472	6.25	0.28	-0.750			
0.2247	14383.44	3.7690	3.7690	-0.8477	6.26	0.29	-0.750			
0.2273	14546.92	3.7660	3.7661	-0.8537	6.27	0.30	-0.750			
0.2299	14710.79	3.7630	3.7630	-0.8585	6.27	0.30	-0.750			
0.2324	14876.36	3.7600	3.7599	-0.8565	6.28	0.31	-0.750			
0.2350	15041.37	3.7570	3.7570	-0.8545	6.28	0.31	-0.750			
0.2376	15206.41	3.7540	3.7540	-0.8559	6.29	0.32	-0.750			
0.2402	15369.75	3.7510	3.7511	-0.8563	6.29	0.32	-0.750			
0.2427	15533.97	3.7480	3.7480	-0.8518	6.30	0.33	-0.750			
0.2453	15696.11	3.7450	3.7449	-0.8531	6.31	0.34	-0.750			
0.2478	15860.03	3.7420	3.7420	-0.8558	6.32	0.35	-0.750			
0.2504	16025.17	3.7390	3.7390	-0.8626	6.32	0.35	-0.750			
0.2530	16190.79	3.7360	3.7360	-0.8626	6.33	0.36	-0.750			
0.2556	16356.77	3.7330	3.7330	-0.8647	6.34	0.37	-0.750			
0.2582	16523.18	3.7300	3.7300	-0.8646	6.35	0.38	-0.750			
0.2608	16690.00	3.7270	3.7270	-0.8679	6.36	0.39	-0.750			
0.2634	16855.41	3.7240	3.7240	-0.8695	6.37	0.40	-0.750			
0.2660	17022.45	3.7210	3.7210	-0.8737	6.37	0.40	-0.750			
0.2686	17190.71	3.7180	3.7180	-0.8758	6.38	0.41	-0.750			
0.2713	17360.16	3.7150	3.7150	-0.8793	6.38	0.41	-0.750			
0.2739	17529.14	3.7120	3.7120	-0.8850	6.38	0.41	-0.750			
0.2766	17700.08	3.7090	3.7090	-0.8885	6.39	0.42	-0.750			
0.2792	17868.67	3.7060	3.7059	-0.8948	6.40	0.43	-0.750			
0.2819	18041.28	3.7030	3.7030	-0.9012	6.40	0.43	-0.750			
0.2846	18215.39	3.7000	3.7000	-0.9048	6.41	0.44	-0.750			
0.2873	18389.99	3.6970	3.6970	-0.9110	6.42	0.45	-0.750			
0.2901	18566.73	3.6940	3.6941	-0.9182	6.43	0.46	-0.750			
0.2928	18742.15	3.6910	3.6910	-0.9265	6.43	0.46	-0.750			
0.2956	18921.37	3.6880	3.6879	-0.9334	6.44	0.47	-0.750			
0.2984	19099.83	3.6850	3.6850	-0.9416	6.44	0.47	-0.750			
0.3013	19282.31	3.6820	3.6820	-0.9533	6.45	0.48	-0.750			
0.3042	19465.96	3.6790	3.6790	-0.9653	6.45	0.48	-0.750			
0.3071	19652.16	3.6760	3.6759	-0.9730	6.46	0.49	-0.750			
0.3100	19839.75	3.6730	3.6731	-0.9820	6.46	0.49	-0.750			
0.3129	20028.32	3.6700	3.6700	-0.9927	6.47	0.50	-0.750			
0.3160	20221.61	3.6670	3.6670	-1.0096	6.47	0.50	-0.750			
0.3190	20416.25	3.6640	3.6640	-1.0187	6.48	0.51	-0.750			
0.3221	20612.73	3.6610	3.6610	-1.0320	6.48	0.51	-0.750			
0.3252	20811.48	3.6580	3.6580	-1.0425	6.49	0.52	-0.750			
0.3283	21013.59	3.6550	3.6550	-1.0597	6.49	0.52	-0.750			
0.3315	21217.80	3.6520	3.6520	-1.0708	6.50	0.53	-0.750			
0.3348	21424.11	3.6490	3.6490	-1.0827	6.51	0.54	-0.750			
0.3380	21633.27	3.6460	3.6460	-1.0994	6.52	0.55	-0.750			
0.3414	21846.49	3.6430	3.6430	-1.1200	6.52	0.55	-0.750			
0.3447	22063.50	3.6400	3.6400	-1.1344	6.52	0.55	-0.750			
0.3482	22284.00	3.6370	3.6370	-1.1446	6.53	0.56	-0.750			
0.3516	22504.11	3.6340	3.6341	-1.1572	6.53	0.56	-0.750			
0.3551	22727.22	3.6310	3.6310	-1.1794	6.53	0.56	-0.750			
0.3587	22954.70	3.6280	3.6278	-1.1924	6.54	0.57	-0.750			
0.3622	23183.35	3.6250	3.6250	-1.2118	6.55	0.58	-0.750			
0.3659	23417.18	3.6220	3.6221	-1.2316	6.55	0.58	-0.750			
0.3697	23659.86	3.6190	3.6190	-1.2554	6.56	0.59	-0.750			
0.3735	23903.89	3.6160	3.6159	-1.2709	6.56	0.59	-0.750			
0.3773	24147.18	3.6130	3.6131	-1.2884	6.57	0.60	-0.750			
0.3812	24397.29	3.6100	3.6100	-1.3154	6.57	0.60	-0.750			
0.3852	24655.78	3.6070	3.6068	-1.3299	6.58	0.61	-0.750			
0.3892	24911.10	3.6040	3.6041	-1.3415	6.58	0.61	-0.750			
0.3933	25169.63	3.6010	3.6012	-1.3596	6.58	0.61	-0.750	0.478	1.141	
0.3974	25430.82	3.5980	3.5980	-1.3803	6.59	0.62	-0.750			
0.4015	25695.80	3.5950	3.5949	-1.4008	6.59	0.62	-0.750			
0.4057	25965.44	3.5920	3.5920	-1.4227	6.59	0.62	-0.750			
0.4101	26245.66	3.5890	3.5890	-1.4500	6.59	0.62	-0.750			
0.4145	26527.84	3.5860	3.5861	-1.4732	6.59	0.62	-0.750			
0.4189	26811.58	3.5830	3.5829	-1.4857	6.60	0.63	-0.750			
0.4234	27098.79	3.5800	3.5800	-1.4973	6.60	0.63	-0.750			
0.4279	27383.87	3.5770	3.5772	-1.5217	6.61	0.64	-0.750			
0.4325	27677.53	3.5740	3.5738	-1.5376	6.61	0.64	-0.750			
0.4371	27975.86	3.5710	3.5710	-1.5673	6.62	0.65	-0.750			
0.4419	28278.44	3.5680	3.5679	-1.5941	6.62	0.65	-0.750			
0.4467	28590.25	3.5650	3.5651	-1.6295	6.63	0.66	-0.750			
0.4516	28905.08	3.5620	3.5621	-1.6401	6.63	0.66	-0.750			
0.4567	29225.88	3.5590	3.5589	-1.6501	6.63	0.66	-0.750			
0.4616	29539.85	3.5560	3.5562	-1.6731	6.63	0.66	-0.750			
0.4666	29862.25	3.5530	3.5529	-1.6917	6.63	0.66	-0.750			
0.4717	30188.25	3.5500	3.5500	-1.6986	6.64	0.67	-0.750			
0.4768	30516.40	3.5470	3.5470	-1.7117	6.65	0.68	-0.750			
0.4820	30847.89	3.5440	3.5440	-1.7421	6.65	0.68	-0.750			
0.4873	31186.71	3.5410	3.5410	-1.7520	6.66	0.69	-0.750			
0.4926	31523.31	3.5380	3.5379	-1.7581	6.66	0.69	-0.750			
0.4978	31860.40	3.5350	3.5352	-1.7689	6.67	0.70	-0.750			
0.5032	32206.81	3.5320	3.5321	-1.7765	6.67	0.70	-0.750			
0.5085	32545.77	3.5290	3.5292	-1.7877	6.68	0.71	-0.750			
0.5139	32887.35	3.5260	3.5261	-1.7913	6.69	0.72	-0.750			
0.5193	33232.72	3.5230	3.5230	-1.7968	6.69	0.72	-0.750			
0.5247	33582.59	3.5200	3.5201	-1.8118	6.70	0.73	-0.750			
0.5302	33934.63	3.5170	3.5168	-1.8220	6.70	0.73	-0.750			
0.5356	34280.75	3.5140	3.5140	-1.8209	6.71	0.74	-0.750			
0.5412	34635.59	3.5110	3.5110	-1.8182	6.71	0.74	-0.750			
0.5466	34981.80	3.5080	3.5081	-1.8186	6.72	0.75	-0.750			
0.5520	35328.97	3.5050	3.5050	-1.8050	6.73	0.76	-0.750			
0.5575	35677.63	3.5020	3.5020	-1.7900	6.74	0.77	-0.750			
0.5628	36021.81	3.4990	3.4991	-1.7775	6.75	0.78	-0.750			
0.5682	36362.50	3.4960	3.4958	-1.7747	6.75	0.78	-0.750			
0.5734	36698.02	3.4930	3.4929	-1.7485	6.76	0.79	-0.750			
0.5787	37037.05	3.4900	3.4899	-1.7348	6.76	0.79	-0.750			
0.5838	37364.22	3.4870	3.4870	-1.7215	6.78	0.81	-0.750			
0.5889	37692.79	3.4840	3.4840	-1.7031	6.79	0.82	-0.750			
0.5941	38024.17	3.4810	3.4810	-1.6934	6.80	0.83	-0.750			
0.5992	38347.84	3.4780	3.4779	-1.6697	6.81	0.84	-0.750			
0.6042	38667.45	3.4750	3.4750	-1.6423	6.81	0.84	-0.750			
0.6091	38981.58	3.4720	3.4721	-1.6277	6.82	0.85	-0.750			
0.6140	39293.62	3.4690	3.4690	-1.5968	6.83	0.86	-0.750			
0.6186	39593.17	3.4660	3.4660	-1.5579	6.84	0.87	-0.750			
0.6233	39890.97	3.4630	3.4629	-1.5351	6.84	0.87	-0.750			
0.6279	40182.94	3.4600	3.4600	-1.5130	6.85	0.88	-0.750			
0.6324	40470.47	3.4570	3.4569	-1.4841	6.87	0.90	-0.750			
0.6368	40753.56	3.4540	3.4540	-1.4591	6.88	0.91	-0.750			
0.6411	41031.74	3.4510	3.4511	-1.4255	6.89	0.92	-0.750			
0.6454	41306.37	3.4480	3.4480	-1.4038	6.91	0.94	-0.750			
0.6496	41571.81	3.4450	3.4449	-1.3692	6.92	0.95	-0.750			
0.6536	41828.77	3.4420	3.4421	-1.3302	6.94	0.97	-0.750			
0.6576	42083.68	3.4390	3.4390	-1.3039	6.96	0.99	-0.750			
0.6614	42330.57	3.4360	3.4360	-1.2726	6.97	1.00	-0.750			
0.6651	42569.53	3.4330	3.4330	-1.2417	6.99	1.02	-0.750			
0.6689	42807.86	3.4300	3.4300	-1.2189	7.00	1.03	-0.750			
0.6725	43038.89	3.4270	3.4269	-1.1885	7.01	1.04	-0.750			
0.6760	43264.97	3.4240	3.4240	-1.1599	7.03	1.06	-0.750			
0.6795	43485.88	3.4210	3.4210	-1.1349	7.04	1.07	-0.750			
0.6828	43701.41	3.4180	3.4180	-1.1029	7.05	1.08	-0.750			
0.6861	43909.93	3.4150	3.4149	-1.0681	7.06	1.09	-0.750			
0.6892	44111.39	3.4120	3.4121	-1.0345	7.07	1.10	-0.750			
0.6923	44307.31	3.4090	3.4090	-1.0091	7.08	1.11	-0.750			
0.6953	44497.39	3.4060	3.4060	-0.9790	7.10	1.13	-0.750			
0.6982	44681.98	3.4030	3.4030	-0.9483	7.11	1.14	-0.750			
0.7010	44861.31	3.4000	3.3999	-0.9179	7.12	1.15	-0.750			
0.7037	45036.99	3.3970	3.3970	-0.8927	7.14	1.17	-0.750			
0.7063	45205.06	3.3940	3.3940	-0.8678	7.15	1.18	-0.750			
0.7089	45368.84	3.3910	3.3910	-0.8380	7.16	1.19	-0.750			
0.7113	45524.84	3.3880	3.3880	-0.8127	7.17	1.20	-0.750			
0.7137	45679.46	3.3850	3.3850	-0.7904	7.19	1.22	-0.750			
0.7161	45828.57	3.3820	3.3819	-0.7607	7.20	1.23	-0.750			
