Ah_balance (normalized)	Ah_balance (mAh)	Voltage - fit (V)	Voltage -  interpolate (V)	dQ/dV (1/V)	Temperature (°C)	Temperature - diff (°C)	Current (C)	R_DC 0ms (mOhm)	R_DC 50ms (mOhm)	R_DC 50 ms PEC (mOhm)
0.1796	11491.82	4.0790	4.0791	0.8006	7.32	1.33	0.750			
0.1819	11644.48	4.0760	4.0760	0.7918	7.32	1.33	0.750			
0.1843	11795.24	4.0730	4.0731	0.7844	7.31	1.32	0.750			
0.1866	11944.62	4.0700	4.0700	0.7816	7.31	1.32	0.750			
0.1890	12094.49	4.0670	4.0670	0.7834	7.30	1.31	0.750			
0.1913	12244.95	4.0640	4.0639	0.7842	7.30	1.31	0.750			
0.1937	12396.87	4.0610	4.0609	0.7879	7.30	1.31	0.750			
0.1960	12546.79	4.0580	4.0583	0.7894	7.29	1.30	0.750			
0.1984	12699.51	4.0550	4.0547	0.7919	7.29	1.30	0.750			
0.2008	12851.58	4.0520	4.0519	0.7932	7.29	1.30	0.750			
0.2031	13001.33	4.0490	4.0491	0.7911	7.29	1.30	0.750			
0.2055	13152.59	4.0460	4.0461	0.7969	7.28	1.29	0.750			
0.2080	13309.28	4.0430	4.0430	0.8098	7.28	1.29	0.750			
0.2104	13466.06	4.0400	4.0398	0.8140	7.28	1.29	0.750			
0.2129	13623.02	4.0370	4.0370	0.8151	7.28	1.29	0.750			
0.2154	13783.41	4.0340	4.0339	0.8036	7.28	1.29	0.750			
0.2178	13937.24	4.0310	4.0311	0.8080	7.27	1.28	0.750			
0.2202	14089.92	4.0280	4.0281	0.8126	7.27	1.28	0.750			
0.2226	14244.57	4.0250	4.0247	0.8126	7.27	1.28	0.750			
0.2250	14399.46	4.0220	4.0221	0.8161	7.27	1.28	0.750			
0.2275	14561.22	4.0190	4.0191	0.8113	7.26	1.27	0.750			
0.2299	14716.76	4.0160	4.0161	0.8290	7.26	1.27	0.750			
0.2325	14878.33	4.0130	4.0131	0.8394	7.25	1.26	0.750			
0.2349	15036.59	4.0100	4.0097	0.8353	7.25	1.26	0.750			
0.2375	15197.11	4.0070	4.0072	0.8433	7.25	1.26	0.750			
0.2400	15362.20	4.0040	4.0041	0.8460	7.24	1.25	0.750			
0.2426	15524.70	4.0010	4.0010	0.8501	7.24	1.25	0.750			
0.2451	15689.26	3.9980	3.9980	0.8435	7.23	1.24	0.750			
0.2477	15851.67	3.9950	3.9947	0.8480	7.23	1.24	0.750			
0.2502	16014.56	3.9920	3.9920	0.8535	7.23	1.24	0.750			
0.2528	16179.45	3.9890	3.9891	0.8604	7.22	1.23	0.750			
0.2554	16344.76	3.9860	3.9859	0.8643	7.22	1.23	0.750			
0.2580	16512.92	3.9830	3.9830	0.8702	7.21	1.22	0.750			
0.2606	16679.79	3.9800	3.9799	0.8661	7.21	1.22	0.750			
0.2632	16846.42	3.9770	3.9770	0.8723	7.20	1.21	0.750			
0.2658	17013.10	3.9740	3.9741	0.8755	7.19	1.20	0.750			
0.2684	17180.47	3.9710	3.9709	0.8822	7.18	1.19	0.750			
0.2711	17351.76	3.9680	3.9680	0.8908	7.18	1.19	0.750			
0.2738	17522.68	3.9650	3.9651	0.8980	7.17	1.18	0.750			
0.2765	17697.75	3.9620	3.9620	0.8972	7.16	1.17	0.750			
0.2793	17872.65	3.9590	3.9590	0.9031	7.16	1.17	0.750			
0.2819	18043.26	3.9560	3.9561	0.9052	7.16	1.17	0.750			
0.2846	18216.22	3.9530	3.9530	0.9098	7.15	1.16	0.750			
0.2874	18392.72	3.9500	3.9500	0.9091	7.15	1.16	0.750			
0.2901	18566.61	3.9470	3.9470	0.9166	7.14	1.15	0.750			
0.2928	18742.13	3.9440	3.9442	0.9253	7.14	1.15	0.750			
0.2957	18923.62	3.9410	3.9410	0.9329	7.13	1.14	0.750			
0.2985	19101.88	3.9380	3.9379	0.9351	7.13	1.14	0.750			
0.3013	19281.72	3.9350	3.9350	0.9339	7.12	1.13	0.750			
0.3041	19460.28	3.9320	3.9321	0.9417	7.11	1.12	0.750			
0.3069	19641.76	3.9290	3.9290	0.9518	7.10	1.11	0.750			
0.3097	19823.21	3.9260	3.9259	0.9550	7.09	1.10	0.750			
0.3126	20008.86	3.9230	3.9230	0.9586	7.08	1.09	0.750			
0.3155	20194.46	3.9200	3.9200	0.9715	7.07	1.08	0.750			
0.3185	20381.93	3.9170	3.9171	0.9812	7.06	1.07	0.750			
0.3214	20570.81	3.9140	3.9141	0.9956	7.05	1.06	0.750			
0.3244	20762.12	3.9110	3.9110	0.9962	7.05	1.06	0.750			
0.3274	20955.25	3.9080	3.9080	1.0051	7.04	1.05	0.750			
0.3305	21149.34	3.9050	3.9051	1.0147	7.04	1.05	0.750			
0.3335	21344.99	3.9020	3.9021	1.0236	7.03	1.04	0.750			
0.3366	21542.85	3.8990	3.8989	1.0269	7.03	1.04	0.750			
0.3397	21740.52	3.8960	3.8960	1.0365	7.02	1.03	0.750			
0.3428	21937.30	3.8930	3.8931	1.0497	7.01	1.02	0.750			
0.3460	22142.55	3.8900	3.8902	1.0653	7.00	1.01	0.750			
0.3492	22351.50	3.8870	3.8869	1.0648	6.99	1.00	0.750			
0.3524	22555.16	3.8840	3.8840	1.0825	6.98	0.99	0.750			
0.3557	22761.85	3.8810	3.8812	1.1006	6.97	0.98	0.750			
0.3590	22975.26	3.8780	3.8779	1.1165	6.95	0.96	0.750			
0.3624	23191.70	3.8750	3.8751	1.1287	6.94	0.95	0.750			
0.3657	23407.94	3.8720	3.8721	1.1446	6.93	0.94	0.750			
0.3693	23632.71	3.8690	3.8690	1.1643	6.92	0.93	0.750			
0.3728	23860.25	3.8660	3.8658	1.1832	6.91	0.92	0.750			
0.3763	24084.94	3.8630	3.8631	1.1808	6.90	0.91	0.750			
0.3799	24310.50	3.8600	3.8601	1.2004	6.89	0.90	0.750			
0.3835	24543.34	3.8570	3.8571	1.2196	6.88	0.89	0.750			
0.3871	24776.03	3.8540	3.8541	1.2294	6.87	0.88	0.750			
0.3908	25013.19	3.8510	3.8511	1.2576	6.86	0.87	0.750			
0.3946	25257.37	3.8480	3.8481	1.2918	6.85	0.86	0.750			
0.3986	25507.35	3.8450	3.8450	1.3338	6.84	0.85	0.750			
0.4026	25764.12	3.8420	3.8421	1.3591	6.83	0.84	0.750			
0.4068	26034.14	3.8390	3.8390	1.3786	6.82	0.83	0.750			
0.4110	26305.73	3.8360	3.8360	1.3975	6.81	0.82	0.750	0.373	0.931	
0.4153	26577.07	3.8330	3.8332	1.4202	6.79	0.80	0.750			
0.4195	26845.16	3.8300	3.8300	1.4333	6.77	0.78	0.750			
0.4237	27118.86	3.8270	3.8264	1.4572	6.76	0.77	0.750			
0.4280	27394.00	3.8240	3.8244	1.4769	6.74	0.75	0.750			
0.4326	27684.38	3.8210	3.8212	1.5259	6.72	0.73	0.750			
0.4372	27982.28	3.8180	3.8179	1.5701	6.70	0.71	0.750			
0.4419	28281.69	3.8150	3.8148	1.5760	6.69	0.70	0.750			
0.4468	28592.18	3.8120	3.8121	1.6305	6.67	0.68	0.750			
0.4518	28914.07	3.8090	3.8092	1.6491	6.65	0.66	0.750			
0.4568	29232.10	3.8060	3.8060	1.6591	6.63	0.64	0.750			
0.4616	29545.06	3.8030	3.8033	1.6932	6.61	0.62	0.750			
0.4667	29867.08	3.8000	3.8002	1.7352	6.59	0.60	0.750			
0.4720	30209.88	3.7970	3.7971	1.7651	6.57	0.58	0.750			
0.4774	30552.04	3.7940	3.7942	1.8357	6.56	0.57	0.750			
0.4831	30916.40	3.7910	3.7912	1.8649	6.54	0.55	0.750			
0.4888	31285.33	3.7880	3.7876	1.8737	6.51	0.52	0.750			
0.4945	31647.26	3.7850	3.7849	1.8885	6.49	0.50	0.750			
0.5001	32004.83	3.7820	3.7820	1.9007	6.46	0.47	0.750			
0.5060	32382.18	3.7790	3.7791	1.9498	6.44	0.45	0.750			
0.5118	32754.83	3.7760	3.7761	2.0149	6.43	0.44	0.750			
0.5180	33153.42	3.7730	3.7733	2.0228	6.41	0.42	0.750			
0.5240	33532.87	3.7700	3.7700	2.0453	6.39	0.40	0.750			
0.5301	33925.00	3.7670	3.7668	2.0862	6.36	0.37	0.750			
0.5365	34336.16	3.7640	3.7640	2.1269	6.33	0.34	0.750			
0.5428	34741.28	3.7610	3.7610	2.1194	6.31	0.32	0.750			
0.5493	35158.31	3.7580	3.7579	2.1649	6.29	0.30	0.750			
0.5558	35571.52	3.7550	3.7549	2.2071	6.26	0.27	0.750			
0.5624	35993.15	3.7520	3.7521	2.2958	6.24	0.25	0.750			
0.5695	36446.91	3.7490	3.7490	2.2963	6.22	0.23	0.750			
0.5763	36884.25	3.7460	3.7463	2.4979	6.20	0.21	0.750			
0.5838	37363.97	3.7430	3.7426	2.8370	6.18	0.19	0.750			
0.5929	37942.78	3.7400	3.7404	2.9263	6.15	0.16	0.750			
0.6021	38534.84	3.7370	3.7370	2.8678	6.12	0.13	0.750			
0.6099	39034.11	3.7340	3.7340	2.6652	6.10	0.11	0.750			
0.6179	39545.82	3.7310	3.7311	2.7149	6.08	0.09	0.750			
0.6263	40083.32	3.7280	3.7278	2.7310	6.05	0.06	0.750			
0.6344	40601.42	3.7250	3.7251	2.6884	6.02	0.03	0.750			
0.6425	41119.73	3.7220	3.7219	2.6402	6.00	0.01	0.750			
0.6503	41616.41	3.7190	3.7190	2.5085	5.99	-0.00	0.750			
0.6578	42100.89	3.7160	3.7159	2.3814	5.97	-0.02	0.750			
0.6647	42541.26	3.7130	3.7127	2.1491	5.96	-0.03	0.750			
0.6709	42935.44	3.7100	3.7102	1.9129	5.95	-0.04	0.750			
0.6760	43265.50	3.7070	3.7072	1.7032	5.95	-0.04	0.750			
0.6808	43571.24	3.7040	3.7038	1.4816	5.94	-0.05	0.750			
0.6845	43811.18	3.7010	3.7009	1.2873	5.94	-0.05	0.750			
0.6881	44038.94	3.6980	3.6981	1.1453	5.94	-0.05	0.750			
0.6913	44245.57	3.6950	3.6949	1.0540	5.94	-0.05	0.750			
0.6942	44431.69	3.6920	3.6920	0.9663	5.95	-0.04	0.750			
0.6970	44605.23	3.6890	3.6890	0.9080	5.95	-0.04	0.750			
0.6996	44774.05	3.6860	3.6859	0.8614	5.95	-0.04	0.750			
0.7021	44935.39	3.6830	3.6829	0.8118	5.96	-0.03	0.750			
0.7045	45086.99	3.6800	3.6802	0.7682	5.96	-0.03	0.750			
0.7068	45234.18	3.6770	3.6769	0.7212	5.96	-0.03	0.750			
0.7089	45366.94	3.6740	3.6739	0.6633	5.97	-0.02	0.750			
0.7107	45486.48	3.6710	3.6711	0.6098	5.97	-0.02	0.750			
0.7124	45596.45	3.6680	3.6678	0.5614	5.97	-0.02	0.750			
0.7141	45700.11	3.6650	3.6650	0.5223	5.98	-0.01	0.750			
0.7156	45795.81	3.6620	3.6619	0.4859	5.98	-0.01	0.750			
0.7169	45884.38	3.6590	3.6590	0.4483	5.98	-0.01	0.750			
0.7183	45968.61	3.6560	3.6560	0.4165	5.98	-0.01	0.750			
0.7195	46045.71	3.6530	3.6529	0.3788	5.98	-0.01	0.750			
0.7205	46114.42	3.6500	3.6500	0.3419	5.99	-0.00	0.750			
0.7215	46176.37	3.6470	3.6471	0.3041	5.99	-0.00	0.750			
0.7224	46230.51	3.6440	3.6439	0.2694	5.99	-0.00	0.750			
0.7231	46279.19	3.6410	3.6409	0.2314	5.99	0.00	0.750			
0.7238	46320.59	3.6380	3.6378	0.1968	5.99	0.00	0.750			
0.7243	46355.05	3.6350	3.6351	0.1612	5.99	0.00	0.750			
0.7248	46384.69	3.6320	3.6322	0.1262	5.99	0.00	0.750			
0.7251	46404.98	3.6290	3.6296	0.0855	5.99	0.00	0.750			
0.7253	46419.15	3.6260	3.6260	0.0401	5.99	0.00	0.750			
0.7254	46422.42	3.6230	3.6241	-0.0060	5.99	0.00	0.750			
