Ah_balance (normalized)	Ah_balance (mAh)	Voltage - fit (V)	Voltage -  interpolate (V)	dQ/dV (1/V)	Temperature (°C)	Temperature - diff (°C)	Current (C)	R_DC 0ms (mOhm)	R_DC 50ms (mOhm)	R_DC 50 ms PEC (mOhm)
0.1767	11311.41	4.0810	4.0808	0.7720	7.71	1.72	0.750			
0.1791	11460.32	4.0780	4.0780	0.7744	7.71	1.72	0.750			
0.1814	11611.41	4.0750	4.0750	0.7693	7.70	1.71	0.750			
0.1837	11756.17	4.0720	4.0721	0.7686	7.70	1.71	0.750			
0.1860	11902.73	4.0690	4.0690	0.7752	7.70	1.71	0.750			
0.1883	12049.70	4.0660	4.0660	0.7740	7.69	1.70	0.750			
0.1906	12199.70	4.0630	4.0631	0.7792	7.69	1.70	0.750			
0.1930	12350.51	4.0600	4.0600	0.7859	7.68	1.69	0.750			
0.1954	12503.07	4.0570	4.0571	0.7885	7.68	1.69	0.750			
0.1978	12656.46	4.0540	4.0540	0.7956	7.68	1.69	0.750			
0.2001	12805.39	4.0510	4.0509	0.7957	7.67	1.68	0.750			
0.2025	12958.06	4.0480	4.0480	0.8018	7.67	1.68	0.750			
0.2049	13114.34	4.0450	4.0449	0.8073	7.66	1.67	0.750			
0.2073	13270.07	4.0420	4.0419	0.8108	7.65	1.66	0.750			
0.2098	13427.61	4.0390	4.0391	0.8159	7.64	1.65	0.750			
0.2123	13584.76	4.0360	4.0361	0.8159	7.64	1.65	0.750			
0.2147	13741.10	4.0330	4.0329	0.8140	7.63	1.64	0.750			
0.2172	13898.87	4.0300	4.0299	0.8109	7.63	1.64	0.750			
0.2196	14052.19	4.0270	4.0270	0.8119	7.63	1.64	0.750			
0.2220	14206.99	4.0240	4.0241	0.8169	7.62	1.63	0.750			
0.2244	14364.45	4.0210	4.0211	0.8184	7.62	1.63	0.750			
0.2269	14521.49	4.0180	4.0178	0.8240	7.62	1.63	0.750			
0.2294	14681.40	4.0150	4.0150	0.8286	7.61	1.62	0.750			
0.2319	14840.86	4.0120	4.0120	0.8330	7.61	1.62	0.750			
0.2344	15001.51	4.0090	4.0090	0.8380	7.60	1.61	0.750			
0.2369	15162.72	4.0060	4.0060	0.8370	7.60	1.61	0.750			
0.2394	15322.42	4.0030	4.0030	0.8440	7.59	1.60	0.750			
0.2420	15486.51	4.0000	4.0000	0.8496	7.58	1.59	0.750			
0.2445	15649.32	3.9970	3.9970	0.8520	7.57	1.58	0.750			
0.2471	15814.12	3.9940	3.9940	0.8575	7.56	1.57	0.750			
0.2497	15979.78	3.9910	3.9910	0.8582	7.56	1.57	0.750			
0.2523	16144.79	3.9880	3.9880	0.8583	7.55	1.56	0.750			
0.2549	16310.48	3.9850	3.9850	0.8581	7.55	1.56	0.750			
0.2574	16473.20	3.9820	3.9820	0.8599	7.55	1.56	0.750			
0.2600	16638.84	3.9790	3.9790	0.8677	7.55	1.56	0.750			
0.2626	16805.84	3.9760	3.9761	0.8691	7.55	1.56	0.750			
0.2652	16972.27	3.9730	3.9731	0.8759	7.55	1.56	0.750			
0.2678	17142.19	3.9700	3.9700	0.8780	7.54	1.55	0.750			
0.2705	17311.05	3.9670	3.9670	0.8853	7.53	1.54	0.750			
0.2731	17480.85	3.9640	3.9640	0.8920	7.52	1.53	0.750			
0.2758	17651.89	3.9610	3.9610	0.8960	7.51	1.52	0.750			
0.2785	17825.04	3.9580	3.9580	0.9024	7.51	1.52	0.750			
0.2813	18000.81	3.9550	3.9550	0.9014	7.50	1.51	0.750			
0.2839	18172.38	3.9520	3.9521	0.9084	7.50	1.51	0.750			
0.2867	18346.95	3.9490	3.9491	0.9161	7.49	1.50	0.750			
0.2894	18521.73	3.9460	3.9457	0.9172	7.49	1.50	0.750			
0.2922	18700.03	3.9430	3.9430	0.9169	7.48	1.49	0.750			
0.2949	18875.78	3.9400	3.9401	0.9276	7.47	1.48	0.750			
0.2977	19055.60	3.9370	3.9371	0.9410	7.46	1.47	0.750			
0.3006	19235.52	3.9340	3.9339	0.9454	7.45	1.46	0.750			
0.3034	19419.42	3.9310	3.9310	0.9477	7.45	1.46	0.750			
0.3063	19601.90	3.9280	3.9281	0.9580	7.44	1.45	0.750			
0.3092	19787.15	3.9250	3.9251	0.9689	7.43	1.44	0.750			
0.3121	19975.40	3.9220	3.9220	0.9779	7.42	1.43	0.750			
0.3150	20162.01	3.9190	3.9190	0.9729	7.42	1.43	0.750			
0.3180	20349.29	3.9160	3.9161	0.9779	7.41	1.42	0.750			
0.3209	20537.73	3.9130	3.9131	0.9872	7.40	1.41	0.750			
0.3239	20727.94	3.9100	3.9100	1.0010	7.40	1.41	0.750			
0.3269	20918.40	3.9070	3.9070	1.0075	7.39	1.40	0.750			
0.3299	21113.56	3.9040	3.9040	1.0142	7.38	1.39	0.750			
0.3330	21309.28	3.9010	3.9011	1.0308	7.37	1.38	0.750			
0.3361	21509.14	3.8980	3.8981	1.0478	7.36	1.37	0.750			
0.3393	21713.00	3.8950	3.8946	1.0513	7.35	1.36	0.750			
0.3424	21913.86	3.8920	3.8920	1.0606	7.34	1.35	0.750			
0.3456	22117.67	3.8890	3.8891	1.0757	7.32	1.33	0.750			
0.3489	22326.73	3.8860	3.8860	1.0921	7.31	1.32	0.750			
0.3522	22539.05	3.8830	3.8828	1.0910	7.30	1.31	0.750			
0.3554	22748.79	3.8800	3.8800	1.1084	7.29	1.30	0.750			
0.3588	22962.25	3.8770	3.8771	1.1239	7.28	1.29	0.750			
0.3622	23180.65	3.8740	3.8740	1.1433	7.27	1.28	0.750			
0.3656	23398.43	3.8710	3.8711	1.1528	7.27	1.28	0.750			
0.3691	23620.49	3.8680	3.8681	1.1668	7.25	1.26	0.750			
0.3726	23847.56	3.8650	3.8651	1.1873	7.24	1.25	0.750			
0.3763	24080.98	3.8620	3.8614	1.1973	7.23	1.24	0.750			
0.3798	24309.99	3.8590	3.8593	1.2105	7.22	1.23	0.750			
0.3835	24542.65	3.8560	3.8560	1.2310	7.21	1.22	0.750			
0.3873	24784.22	3.8530	3.8530	1.2348	7.20	1.21	0.750			
0.3910	25022.02	3.8500	3.8499	1.2586	7.18	1.19	0.750			
0.3947	25261.31	3.8470	3.8471	1.2759	7.17	1.18	0.750			
0.3986	25511.79	3.8440	3.8440	1.3077	7.16	1.17	0.750			
0.4026	25763.64	3.8410	3.8408	1.3510	7.15	1.16	0.750			
0.4067	26025.75	3.8380	3.8379	1.3722	7.13	1.14	0.750	0.367	0.871	
0.4109	26294.89	3.8350	3.8353	1.4142	7.12	1.13	0.750			
0.4152	26573.20	3.8320	3.8318	1.4522	7.11	1.12	0.750			
0.4197	26857.68	3.8290	3.8289	1.4399	7.09	1.10	0.750			
0.4239	27129.08	3.8260	3.8264	1.5064	7.08	1.09	0.750			
0.4285	27425.97	3.8230	3.8231	1.5763	7.06	1.07	0.750			
0.4333	27728.60	3.8200	3.8192	1.6073	7.05	1.06	0.750			
0.4382	28045.19	3.8170	3.8173	1.6283	7.03	1.04	0.750			
0.4433	28368.60	3.8140	3.8143	1.6742	7.01	1.02	0.750			
0.4484	28698.77	3.8110	3.8110	1.6803	6.99	1.00	0.750			
0.4533	29011.25	3.8080	3.8082	1.6539	6.96	0.97	0.750			
0.4582	29327.26	3.8050	3.8053	1.7045	6.94	0.95	0.750			
0.4635	29662.35	3.8020	3.8019	1.7201	6.92	0.93	0.750			
0.4688	30002.42	3.7990	3.7988	1.7593	6.90	0.91	0.750			
0.4740	30337.53	3.7960	3.7963	1.7995	6.88	0.89	0.750			
0.4795	30686.06	3.7930	3.7929	1.8310	6.86	0.87	0.750			
0.4850	31040.28	3.7900	3.7901	1.8318	6.83	0.84	0.750			
0.4906	31395.35	3.7870	3.7872	1.8897	6.80	0.81	0.750			
0.4964	31768.85	3.7840	3.7840	1.9051	6.77	0.78	0.750			
0.5020	32126.41	3.7810	3.7809	1.9261	6.75	0.76	0.750			
0.5079	32504.07	3.7780	3.7777	1.9564	6.72	0.73	0.750			
0.5138	32885.10	3.7750	3.7751	1.9750	6.69	0.70	0.750			
0.5196	33256.87	3.7720	3.7719	1.9865	6.66	0.67	0.750			
0.5257	33646.57	3.7690	3.7688	1.9804	6.62	0.63	0.750			
0.5317	34030.84	3.7660	3.7660	2.0105	6.60	0.61	0.750			
0.5378	34420.58	3.7630	3.7629	2.0191	6.58	0.59	0.750			
0.5439	34809.37	3.7600	3.7601	2.0577	6.54	0.55	0.750			
0.5501	35203.61	3.7570	3.7570	2.0790	6.50	0.51	0.750			
0.5565	35616.08	3.7540	3.7540	2.1516	6.47	0.48	0.750			
0.5629	36027.32	3.7510	3.7510	2.2339	6.45	0.46	0.750			
0.5698	36468.99	3.7480	3.7481	2.2607	6.42	0.43	0.750			
0.5767	36906.78	3.7450	3.7448	2.2819	6.39	0.40	0.750			
0.5835	37346.03	3.7420	3.7417	2.3282	6.36	0.37	0.750			
0.5906	37799.60	3.7390	3.7389	2.4033	6.32	0.33	0.750			
0.5980	38269.55	3.7360	3.7360	2.5025	6.29	0.30	0.750			
0.6054	38748.73	3.7330	3.7330	2.5165	6.25	0.26	0.750			
0.6132	39244.80	3.7300	3.7300	2.5542	6.22	0.23	0.750			
0.6209	39737.53	3.7270	3.7270	2.5782	6.19	0.20	0.750			
0.6287	40236.59	3.7240	3.7239	2.5291	6.16	0.17	0.750			
0.6362	40715.87	3.7210	3.7210	2.4358	6.14	0.15	0.750			
0.6434	41177.34	3.7180	3.7181	2.3298	6.12	0.13	0.750			
0.6504	41623.19	3.7150	3.7149	2.1695	6.09	0.10	0.750			
0.6566	42021.00	3.7120	3.7123	1.9469	6.07	0.08	0.750			
0.6621	42372.42	3.7090	3.7090	1.7302	6.06	0.07	0.750			
0.6666	42661.00	3.7060	3.7061	1.4946	6.04	0.05	0.750			
0.6707	42927.83	3.7030	3.7031	1.3502	6.03	0.04	0.750			
0.6744	43164.70	3.7000	3.7000	1.2194	6.03	0.04	0.750			
0.6778	43380.00	3.6970	3.6970	1.1193	6.02	0.03	0.750			
0.6810	43581.64	3.6940	3.6941	1.0426	6.01	0.02	0.750			
0.6839	43770.93	3.6910	3.6911	0.9818	6.01	0.02	0.750			
0.6868	43954.44	3.6880	3.6879	0.9425	6.00	0.01	0.750			
0.6895	44127.33	3.6850	3.6850	0.8964	6.00	0.01	0.750			
0.6921	44296.50	3.6820	3.6820	0.8621	6.00	0.01	0.750			
0.6947	44459.73	3.6790	3.6790	0.8329	6.00	0.01	0.750			
0.6971	44617.36	3.6760	3.6760	0.8004	5.99	0.00	0.750			
0.6995	44767.81	3.6730	3.6730	0.7684	5.99	0.00	0.750			
0.7017	44910.92	3.6700	3.6700	0.7361	5.99	0.00	0.750			
0.7039	45049.76	3.6670	3.6670	0.7003	5.99	0.00	0.750			
0.7060	45181.06	3.6640	3.6640	0.6688	5.99	0.00	0.750			
0.7080	45308.90	3.6610	3.6610	0.6288	5.99	0.00	0.750			
0.7098	45425.31	3.6580	3.6580	0.5893	5.99	0.00	0.750			
0.7115	45534.49	3.6550	3.6550	0.5497	5.99	0.00	0.750			
0.7130	45635.06	3.6520	3.6520	0.5113	5.99	0.00	0.750			
0.7145	45728.48	3.6490	3.6489	0.4718	5.99	0.00	0.750			
0.7159	45815.94	3.6460	3.6461	0.4391	5.99	0.00	0.750			
0.7171	45896.13	3.6430	3.6430	0.4036	5.99	0.00	0.750			
0.7183	45972.02	3.6400	3.6400	0.3725	5.99	0.00	0.750			
0.7194	46039.92	3.6370	3.6370	0.3366	5.99	0.00	0.750			
0.7203	46101.15	3.6340	3.6339	0.3021	5.99	0.00	0.750			
0.7212	46157.17	3.6310	3.6309	0.2655	5.99	0.00	0.750			
0.7220	46205.18	3.6280	3.6280	0.2301	5.99	0.00	0.750			
0.7226	46245.34	3.6250	3.6250	0.1901	5.99	0.00	0.750			
0.7231	46279.51	3.6220	3.6221	0.1530	5.99	0.00	0.750			
0.7235	46305.29	3.6190	3.6192	0.1121	5.99	0.00	0.750			
0.7238	46322.80	3.6160	3.6166	0.0702	5.99	0.00	0.750			
0.7240	46332.97	3.6130	3.6137	0.0257	5.99	0.00	0.750			
0.7240	46333.66	3.6100	3.6131	-0.0185	5.99	0.00	0.750			
