Ah_balance (normalized)	Ah_balance (mAh)	Voltage - fit (V)	Voltage -  interpolate (V)	dQ/dV (1/V)	Temperature (°C)	Temperature - diff (°C)	Current (C)	R_DC 0ms (mOhm)	R_DC 50ms (mOhm)	R_DC 50 ms PEC (mOhm)
0.1812	11596.62	4.0810	4.0810	0.7773	7.44	1.49	0.750			
0.1835	11746.36	4.0780	4.0780	0.7781	7.44	1.49	0.750			
0.1858	11893.54	4.0750	4.0750	0.7740	7.43	1.48	0.750			
0.1882	12041.82	4.0720	4.0720	0.7760	7.42	1.47	0.750			
0.1905	12190.66	4.0690	4.0692	0.7798	7.41	1.46	0.750			
0.1928	12339.99	4.0660	4.0659	0.7817	7.41	1.46	0.750			
0.1952	12490.82	4.0630	4.0630	0.7863	7.40	1.45	0.750			
0.1975	12642.13	4.0600	4.0600	0.7913	7.39	1.44	0.750			
0.1999	12794.38	4.0570	4.0570	0.7941	7.38	1.43	0.750			
0.2023	12948.45	4.0540	4.0540	0.7979	7.38	1.43	0.750			
0.2047	13102.18	4.0510	4.0510	0.7982	7.37	1.42	0.750			
0.2071	13255.70	4.0480	4.0481	0.7994	7.36	1.41	0.750			
0.2095	13409.66	4.0450	4.0450	0.7976	7.35	1.40	0.750			
0.2119	13561.09	4.0420	4.0420	0.7999	7.35	1.40	0.750			
0.2143	13712.96	4.0390	4.0391	0.8037	7.34	1.39	0.750			
0.2167	13867.98	4.0360	4.0358	0.8094	7.33	1.38	0.750			
0.2191	14024.62	4.0330	4.0330	0.8147	7.32	1.37	0.750			
0.2216	14182.60	4.0300	4.0300	0.8185	7.31	1.36	0.750			
0.2241	14340.38	4.0270	4.0271	0.8236	7.30	1.35	0.750			
0.2265	14498.70	4.0240	4.0240	0.8230	7.28	1.33	0.750			
0.2290	14656.28	4.0210	4.0208	0.8262	7.27	1.32	0.750			
0.2315	14813.98	4.0180	4.0180	0.8287	7.26	1.31	0.750			
0.2340	14974.61	4.0150	4.0151	0.8323	7.26	1.31	0.750			
0.2365	15135.61	4.0120	4.0120	0.8382	7.25	1.30	0.750			
0.2390	15295.22	4.0090	4.0091	0.8391	7.24	1.29	0.750			
0.2415	15458.69	4.0060	4.0059	0.8423	7.23	1.28	0.750			
0.2441	15620.50	4.0030	4.0030	0.8478	7.23	1.28	0.750			
0.2466	15783.67	4.0000	4.0000	0.8466	7.22	1.27	0.750			
0.2492	15946.16	3.9970	3.9971	0.8488	7.22	1.27	0.750			
0.2517	16108.59	3.9940	3.9940	0.8506	7.21	1.26	0.750			
0.2543	16272.15	3.9910	3.9907	0.8525	7.21	1.26	0.750			
0.2568	16435.95	3.9880	3.9880	0.8559	7.20	1.25	0.750			
0.2594	16600.54	3.9850	3.9850	0.8661	7.19	1.24	0.750			
0.2620	16766.78	3.9820	3.9820	0.8729	7.19	1.24	0.750			
0.2646	16935.76	3.9790	3.9790	0.8755	7.18	1.23	0.750			
0.2673	17106.88	3.9760	3.9759	0.8817	7.17	1.22	0.750			
0.2700	17278.16	3.9730	3.9731	0.8790	7.16	1.21	0.750			
0.2726	17447.11	3.9700	3.9701	0.8828	7.15	1.20	0.750			
0.2752	17614.76	3.9670	3.9670	0.8813	7.14	1.19	0.750			
0.2778	17781.65	3.9640	3.9641	0.8816	7.14	1.19	0.750			
0.2805	17951.40	3.9610	3.9610	0.8925	7.13	1.18	0.750			
0.2832	18124.46	3.9580	3.9579	0.8963	7.11	1.16	0.750			
0.2859	18298.14	3.9550	3.9551	0.9056	7.10	1.15	0.750			
0.2886	18472.67	3.9520	3.9520	0.9156	7.09	1.14	0.750			
0.2914	18648.66	3.9490	3.9489	0.9214	7.07	1.12	0.750			
0.2942	18829.90	3.9460	3.9460	0.9180	7.06	1.11	0.750			
0.2969	19004.28	3.9430	3.9431	0.9258	7.05	1.10	0.750			
0.2997	19182.37	3.9400	3.9401	0.9342	7.05	1.10	0.750			
0.3025	19362.44	3.9370	3.9370	0.9465	7.04	1.09	0.750			
0.3053	19542.15	3.9340	3.9339	0.9491	7.03	1.08	0.750			
0.3082	19725.46	3.9310	3.9311	0.9521	7.02	1.07	0.750			
0.3111	19910.41	3.9280	3.9281	0.9652	7.01	1.06	0.750			
0.3140	20098.19	3.9250	3.9251	0.9731	7.00	1.05	0.750			
0.3169	20283.39	3.9220	3.9217	0.9749	6.99	1.04	0.750			
0.3199	20473.10	3.9190	3.9190	0.9711	6.98	1.03	0.750			
0.3228	20659.12	3.9160	3.9161	0.9871	6.96	1.01	0.750			
0.3258	20850.11	3.9130	3.9130	1.0000	6.95	1.00	0.750			
0.3288	21041.21	3.9100	3.9098	1.0091	6.93	0.98	0.750			
0.3319	21238.59	3.9070	3.9070	1.0076	6.92	0.97	0.750			
0.3349	21432.60	3.9040	3.9041	1.0280	6.91	0.96	0.750			
0.3380	21630.91	3.9010	3.9011	1.0408	6.90	0.95	0.750			
0.3411	21831.04	3.8980	3.8979	1.0484	6.89	0.94	0.750			
0.3443	22035.03	3.8950	3.8951	1.0588	6.88	0.93	0.750			
0.3475	22239.39	3.8920	3.8920	1.0711	6.86	0.91	0.750			
0.3507	22446.31	3.8890	3.8891	1.0855	6.85	0.90	0.750			
0.3541	22660.15	3.8860	3.8858	1.0987	6.83	0.88	0.750			
0.3573	22870.07	3.8830	3.8830	1.0892	6.82	0.87	0.750			
0.3606	23079.93	3.8800	3.8800	1.0886	6.81	0.86	0.750			
0.3639	23286.99	3.8770	3.8771	1.0971	6.80	0.85	0.750			
0.3671	23495.06	3.8740	3.8741	1.1051	6.79	0.84	0.750			
0.3704	23706.95	3.8710	3.8708	1.1096	6.77	0.82	0.750			
0.3737	23916.25	3.8680	3.8681	1.1327	6.76	0.81	0.750			
0.3771	24136.38	3.8650	3.8652	1.1703	6.74	0.79	0.750			
0.3808	24368.07	3.8620	3.8621	1.1980	6.73	0.78	0.750			
0.3844	24600.64	3.8590	3.8590	1.2164	6.71	0.76	0.750			
0.3881	24835.53	3.8560	3.8561	1.2385	6.70	0.75	0.750			
0.3919	25081.90	3.8530	3.8527	1.2421	6.69	0.74	0.750			
0.3956	25319.29	3.8500	3.8500	1.2641	6.68	0.73	0.750			
0.3994	25559.05	3.8470	3.8472	1.2947	6.67	0.72	0.750			
0.4033	25808.08	3.8440	3.8438	1.3182	6.65	0.70	0.750			
0.4073	26064.94	3.8410	3.8411	1.3558	6.64	0.69	0.750			
0.4114	26329.32	3.8380	3.8375	1.4041	6.62	0.67	0.750	0.389	0.926	
0.4157	26604.79	3.8350	3.8351	1.4287	6.60	0.65	0.750			
0.4201	26887.41	3.8320	3.8320	1.4551	6.58	0.63	0.750			
0.4245	27170.79	3.8290	3.8292	1.4815	6.57	0.62	0.750			
0.4291	27462.07	3.8260	3.8257	1.4523	6.55	0.60	0.750			
0.4334	27737.97	3.8230	3.8231	1.4688	6.53	0.58	0.750			
0.4378	28018.73	3.8200	3.8202	1.5135	6.51	0.56	0.750			
0.4422	28301.68	3.8170	3.8166	1.5669	6.49	0.54	0.750			
0.4470	28607.26	3.8140	3.8142	1.6041	6.47	0.52	0.750			
0.4519	28921.67	3.8110	3.8114	1.6640	6.46	0.51	0.750			
0.4572	29260.86	3.8080	3.8082	1.7195	6.44	0.49	0.750			
0.4623	29585.45	3.8050	3.8049	1.7034	6.41	0.46	0.750			
0.4674	29911.81	3.8020	3.8021	1.7378	6.39	0.44	0.750			
0.4726	30247.85	3.7990	3.7991	1.7481	6.36	0.41	0.750			
0.4779	30587.56	3.7960	3.7960	1.7881	6.34	0.39	0.750			
0.4835	30943.62	3.7930	3.7932	1.8097	6.32	0.37	0.750			
0.4890	31293.58	3.7900	3.7903	1.8272	6.31	0.36	0.750			
0.4946	31654.05	3.7870	3.7872	1.8526	6.30	0.35	0.750			
0.5002	32013.77	3.7840	3.7839	1.8803	6.27	0.32	0.750			
0.5056	32360.84	3.7810	3.7811	1.8831	6.25	0.30	0.750			
0.5114	32729.64	3.7780	3.7778	1.9223	6.23	0.28	0.750			
0.5172	33103.57	3.7750	3.7747	1.8861	6.21	0.26	0.750			
0.5230	33472.20	3.7720	3.7718	1.9255	6.19	0.24	0.750			
0.5287	33837.42	3.7690	3.7691	2.0703	6.17	0.22	0.750			
0.5350	34239.24	3.7660	3.7662	2.0725	6.15	0.20	0.750			
0.5415	34656.27	3.7630	3.7627	2.1064	6.13	0.18	0.750			
0.5475	35041.87	3.7600	3.7602	2.0088	6.11	0.16	0.750			
0.5535	35421.96	3.7570	3.7571	1.9946	6.09	0.14	0.750			
0.5597	35823.31	3.7540	3.7539	2.0541	6.07	0.12	0.750			
0.5659	36218.46	3.7510	3.7511	2.1044	6.05	0.10	0.750			
0.5723	36626.48	3.7480	3.7482	2.1716	6.04	0.09	0.750			
0.5788	37046.26	3.7450	3.7448	2.2000	6.03	0.08	0.750			
0.5853	37459.57	3.7420	3.7422	2.3333	6.02	0.07	0.750			
0.5928	37938.45	3.7390	3.7390	2.3695	6.00	0.05	0.750			
0.6000	38398.07	3.7360	3.7363	2.3936	5.97	0.02	0.750			
0.6072	38863.53	3.7330	3.7327	2.3959	5.96	0.01	0.750			
0.6140	39296.66	3.7300	3.7298	2.3650	5.95	0.00	0.750			
0.6214	39766.46	3.7270	3.7269	2.4583	5.94	-0.01	0.750			
0.6287	40235.74	3.7240	3.7241	2.5582	5.92	-0.03	0.750			
0.6366	40739.88	3.7210	3.7209	2.4934	5.91	-0.04	0.750			
0.6440	41218.55	3.7180	3.7184	2.4086	5.90	-0.05	0.750			
0.6511	41668.83	3.7150	3.7149	2.2147	5.89	-0.06	0.750			
0.6574	42070.62	3.7120	3.7119	1.9785	5.89	-0.06	0.750			
0.6631	42440.16	3.7090	3.7091	1.8245	5.89	-0.06	0.750			
0.6680	42754.56	3.7060	3.7059	1.6048	5.89	-0.06	0.750			
0.6725	43038.49	3.7030	3.7030	1.4259	5.89	-0.06	0.750			
0.6763	43285.62	3.7000	3.7001	1.2769	5.90	-0.05	0.750			
0.6799	43515.95	3.6970	3.6968	1.1676	5.90	-0.05	0.750			
0.6832	43725.81	3.6940	3.6944	1.0681	5.90	-0.05	0.750			
0.6863	43921.01	3.6910	3.6910	1.0037	5.91	-0.04	0.750			
0.6891	44102.98	3.6880	3.6880	0.9456	5.91	-0.04	0.750			
0.6918	44273.77	3.6850	3.6848	0.8912	5.91	-0.04	0.750			
0.6944	44441.00	3.6820	3.6820	0.8605	5.91	-0.04	0.750			
0.6969	44601.96	3.6790	3.6789	0.8312	5.92	-0.03	0.750			
0.6994	44759.17	3.6760	3.6761	0.8037	5.92	-0.03	0.750			
0.7017	44910.94	3.6730	3.6730	0.7753	5.93	-0.02	0.750			
0.7040	45057.43	3.6700	3.6698	0.7393	5.93	-0.02	0.750			
0.7062	45197.30	3.6670	3.6671	0.7053	5.93	-0.02	0.750			
0.7083	45328.86	3.6640	3.6641	0.6767	5.94	-0.01	0.750			
0.7103	45456.17	3.6610	3.6609	0.6420	5.94	-0.01	0.750			
0.7121	45575.06	3.6580	3.6579	0.5959	5.94	-0.01	0.750			
0.7139	45687.49	3.6550	3.6549	0.5639	5.95	-0.00	0.750			
0.7155	45792.45	3.6520	3.6524	0.5275	5.95	-0.00	0.750			
0.7171	45891.24	3.6490	3.6489	0.4914	5.95	0.00	0.750			
0.7185	45980.85	3.6460	3.6460	0.4535	5.95	0.00	0.750			
0.7197	46063.26	3.6430	3.6430	0.4165	5.95	0.00	0.750			
0.7209	46140.31	3.6400	3.6400	0.3843	5.96	0.01	0.750			
0.7220	46210.39	3.6370	3.6369	0.3484	5.96	0.01	0.750			
0.7230	46273.18	3.6340	3.6341	0.3160	5.96	0.01	0.750			
0.7239	46331.47	3.6310	3.6310	0.2839	5.96	0.01	0.750			
0.7248	46384.11	3.6280	3.6278	0.2481	5.96	0.01	0.750			
0.7254	46428.46	3.6250	3.6251	0.2116	5.96	0.01	0.750			
0.7260	46466.46	3.6220	3.6221	0.1755	5.96	0.01	0.750			
0.7265	46497.24	3.6190	3.6192	0.1364	5.97	0.02	0.750			
0.7269	46520.75	3.6160	3.6163	0.0943	5.97	0.02	0.750			
0.7271	46533.78	3.6130	3.6141	0.0541	5.97	0.02	0.750			
0.7272	46540.33	3.6100	3.6121	0.0141	5.97	0.02	0.750			
