Ah_balance (normalized)	Ah_balance (mAh)	Voltage - fit (V)	Voltage -  interpolate (V)	dQ/dV (1/V)	Temperature (°C)	Temperature - diff (°C)	Current (C)	R_DC 0ms (mOhm)	R_DC 50ms (mOhm)	R_DC 50 ms PEC (mOhm)
0.0958	6130.33	4.0080	4.0073	-0.0465	6.00	0.01	-0.750			
0.0960	6143.19	4.0050	4.0047	-0.0816	6.00	0.01	-0.750			
0.0963	6162.64	4.0020	4.0018	-0.1128	6.00	0.01	-0.750			
0.0967	6187.10	3.9990	3.9989	-0.1420	6.00	0.01	-0.750			
0.0971	6217.58	3.9960	3.9960	-0.1679	6.00	0.01	-0.750			
0.0977	6252.96	3.9930	3.9931	-0.1910	6.00	0.01	-0.750			
0.0983	6293.63	3.9900	3.9901	-0.2171	6.00	0.01	-0.750			
0.0990	6337.18	3.9870	3.9870	-0.2400	6.00	0.01	-0.750			
0.0998	6385.62	3.9840	3.9840	-0.2608	5.99	0.00	-0.750			
0.1006	6438.46	3.9810	3.9809	-0.2767	5.99	0.00	-0.750			
0.1014	6492.72	3.9780	3.9780	-0.2987	5.99	0.00	-0.750			
0.1024	6550.87	3.9750	3.9756	-0.3247	5.99	-0.00	-0.750			
0.1034	6614.62	3.9720	3.9718	-0.3529	5.99	-0.00	-0.750			
0.1044	6684.33	3.9690	3.9689	-0.3833	5.99	-0.00	-0.750			
0.1056	6760.63	3.9660	3.9660	-0.4112	5.98	-0.01	-0.750			
0.1069	6844.65	3.9630	3.9630	-0.4401	5.98	-0.01	-0.750			
0.1083	6933.29	3.9600	3.9601	-0.4637	5.98	-0.01	-0.750			
0.1098	7024.92	3.9570	3.9570	-0.4828	5.98	-0.01	-0.750			
0.1112	7119.87	3.9540	3.9540	-0.5008	5.98	-0.01	-0.750			
0.1128	7217.36	3.9510	3.9510	-0.5162	5.97	-0.02	-0.750			
0.1143	7318.15	3.9480	3.9480	-0.5328	5.97	-0.02	-0.750			
0.1160	7422.59	3.9450	3.9449	-0.5498	5.97	-0.02	-0.750			
0.1176	7528.79	3.9420	3.9420	-0.5657	5.97	-0.02	-0.750			
0.1194	7639.34	3.9390	3.9390	-0.5804	5.97	-0.02	-0.750			
0.1211	7751.59	3.9360	3.9360	-0.5976	5.96	-0.03	-0.750			
0.1230	7869.94	3.9330	3.9330	-0.6113	5.96	-0.03	-0.750			
0.1248	7989.31	3.9300	3.9300	-0.6228	5.96	-0.03	-0.750			
0.1267	8110.31	3.9270	3.9270	-0.6352	5.96	-0.03	-0.750			
0.1286	8232.62	3.9240	3.9241	-0.6490	5.96	-0.03	-0.750			
0.1306	8358.10	3.9210	3.9210	-0.6568	5.96	-0.03	-0.750			
0.1326	8485.38	3.9180	3.9179	-0.6685	5.96	-0.03	-0.750			
0.1346	8615.47	3.9150	3.9151	-0.6742	5.97	-0.02	-0.750			
0.1367	8748.22	3.9120	3.9121	-0.6848	5.97	-0.02	-0.750			
0.1387	8879.75	3.9090	3.9089	-0.6842	5.97	-0.02	-0.750			
0.1408	9010.99	3.9060	3.9061	-0.6846	5.97	-0.02	-0.750			
0.1428	9142.05	3.9030	3.9030	-0.6885	5.97	-0.02	-0.750			
0.1449	9273.65	3.9000	3.9000	-0.7007	5.97	-0.02	-0.750			
0.1470	9407.83	3.8970	3.8969	-0.7025	5.98	-0.01	-0.750			
0.1491	9545.39	3.8940	3.8941	-0.7115	5.98	-0.01	-0.750			
0.1513	9683.81	3.8910	3.8910	-0.7172	5.98	-0.01	-0.750			
0.1535	9822.50	3.8880	3.8879	-0.7222	5.98	-0.01	-0.750			
0.1557	9961.78	3.8850	3.8850	-0.7228	5.99	-0.00	-0.750			
0.1578	10101.23	3.8820	3.8821	-0.7208	5.99	0.00	-0.750			
0.1600	10238.15	3.8790	3.8790	-0.7212	6.00	0.01	-0.750			
0.1622	10378.39	3.8760	3.8759	-0.7276	6.00	0.01	-0.750			
0.1643	10516.99	3.8730	3.8731	-0.7312	6.01	0.02	-0.750			
0.1665	10657.28	3.8700	3.8698	-0.7330	6.02	0.03	-0.750			
0.1687	10798.44	3.8670	3.8670	-0.7373	6.02	0.03	-0.750			
0.1710	10941.30	3.8640	3.8640	-0.7430	6.03	0.04	-0.750			
0.1732	11084.54	3.8610	3.8610	-0.7453	6.04	0.05	-0.750			
0.1754	11227.91	3.8580	3.8580	-0.7477	6.04	0.05	-0.750			
0.1777	11372.73	3.8550	3.8550	-0.7495	6.05	0.06	-0.750			
0.1799	11516.73	3.8520	3.8519	-0.7485	6.05	0.06	-0.750			
0.1822	11661.41	3.8490	3.8490	-0.7507	6.06	0.07	-0.750			
0.1845	11805.30	3.8460	3.8461	-0.7486	6.06	0.07	-0.750			
0.1867	11949.56	3.8430	3.8429	-0.7481	6.07	0.08	-0.750			
0.1890	12092.80	3.8400	3.8400	-0.7447	6.07	0.08	-0.750			
0.1912	12233.90	3.8370	3.8370	-0.7447	6.07	0.08	-0.750			
0.1934	12376.71	3.8340	3.8340	-0.7478	6.08	0.09	-0.750			
0.1956	12520.42	3.8310	3.8310	-0.7531	6.09	0.10	-0.750			
0.1979	12666.69	3.8280	3.8280	-0.7523	6.10	0.11	-0.750			
0.2002	12812.97	3.8250	3.8248	-0.7570	6.10	0.11	-0.750			
0.2025	12958.41	3.8220	3.8222	-0.7577	6.11	0.12	-0.750			
0.2048	13104.05	3.8190	3.8190	-0.7553	6.12	0.13	-0.750			
0.2070	13247.52	3.8160	3.8159	-0.7557	6.13	0.14	-0.750			
0.2093	13394.03	3.8130	3.8130	-0.7519	6.13	0.14	-0.750			
0.2115	13538.36	3.8100	3.8100	-0.7534	6.14	0.15	-0.750			
0.2138	13681.42	3.8070	3.8070	-0.7573	6.15	0.16	-0.750			
0.2160	13826.58	3.8040	3.8040	-0.7577	6.15	0.16	-0.750			
0.2183	13971.86	3.8010	3.8009	-0.7635	6.16	0.17	-0.750			
0.2206	14118.73	3.7980	3.7980	-0.7670	6.17	0.18	-0.750			
0.2229	14267.73	3.7950	3.7950	-0.7656	6.18	0.19	-0.750			
0.2253	14417.17	3.7920	3.7920	-0.7624	6.18	0.19	-0.750			
0.2275	14562.22	3.7890	3.7893	-0.7644	6.19	0.20	-0.750			
0.2298	14707.60	3.7860	3.7860	-0.7642	6.20	0.21	-0.750			
0.2321	14854.54	3.7830	3.7828	-0.7659	6.21	0.22	-0.750			
0.2344	15001.44	3.7800	3.7800	-0.7664	6.21	0.22	-0.750			
0.2367	15149.23	3.7770	3.7771	-0.7705	6.22	0.23	-0.750			
0.2390	15298.51	3.7740	3.7740	-0.7714	6.23	0.24	-0.750			
0.2414	15447.32	3.7710	3.7709	-0.7720	6.23	0.24	-0.750			
0.2436	15592.77	3.7680	3.7680	-0.7697	6.24	0.25	-0.750			
0.2459	15740.71	3.7650	3.7651	-0.7715	6.24	0.25	-0.750			
0.2483	15889.80	3.7620	3.7620	-0.7720	6.24	0.25	-0.750			
0.2506	16039.24	3.7590	3.7590	-0.7754	6.25	0.26	-0.750			
0.2529	16188.46	3.7560	3.7561	-0.7749	6.25	0.26	-0.750			
0.2553	16337.83	3.7530	3.7530	-0.7762	6.26	0.27	-0.750			
0.2576	16485.72	3.7500	3.7500	-0.7810	6.27	0.28	-0.750			
0.2599	16635.03	3.7470	3.7471	-0.7821	6.27	0.28	-0.750			
0.2623	16786.48	3.7440	3.7439	-0.7874	6.28	0.29	-0.750			
0.2647	16938.41	3.7410	3.7409	-0.7942	6.29	0.30	-0.750			
0.2671	17091.67	3.7380	3.7380	-0.7948	6.30	0.31	-0.750			
0.2694	17244.32	3.7350	3.7349	-0.8026	6.30	0.31	-0.750			
0.2719	17398.76	3.7320	3.7320	-0.8060	6.31	0.32	-0.750			
0.2743	17553.82	3.7290	3.7290	-0.8119	6.31	0.32	-0.750			
0.2767	17710.45	3.7260	3.7260	-0.8164	6.32	0.33	-0.750			
0.2792	17868.18	3.7230	3.7230	-0.8227	6.32	0.33	-0.750			
0.2816	18025.54	3.7200	3.7201	-0.8306	6.33	0.34	-0.750			
0.2842	18186.46	3.7170	3.7169	-0.8386	6.34	0.35	-0.750			
0.2867	18346.79	3.7140	3.7139	-0.8440	6.34	0.35	-0.750			
0.2892	18510.16	3.7110	3.7111	-0.8545	6.35	0.36	-0.750			
0.2918	18674.49	3.7080	3.7080	-0.8636	6.36	0.37	-0.750			
0.2944	18843.33	3.7050	3.7049	-0.8706	6.36	0.37	-0.750			
0.2970	19010.79	3.7020	3.7020	-0.8754	6.37	0.38	-0.750			
0.2997	19178.49	3.6990	3.6990	-0.8762	6.38	0.39	-0.750			
0.3023	19348.11	3.6960	3.6963	-0.8846	6.39	0.40	-0.750			
0.3049	19515.66	3.6930	3.6930	-0.8989	6.39	0.40	-0.750			
0.3077	19689.84	3.6900	3.6900	-0.9012	6.40	0.41	-0.750			
0.3104	19863.45	3.6870	3.6868	-0.9121	6.40	0.41	-0.750			
0.3131	20040.33	3.6840	3.6840	-0.9241	6.41	0.42	-0.750			
0.3159	20217.97	3.6810	3.6810	-0.9326	6.41	0.42	-0.750			
0.3187	20399.64	3.6780	3.6779	-0.9479	6.42	0.43	-0.750			
0.3216	20581.90	3.6750	3.6749	-0.9533	6.43	0.44	-0.750			
0.3244	20763.86	3.6720	3.6720	-0.9547	6.43	0.44	-0.750			
0.3274	20951.39	3.6690	3.6692	-0.9702	6.44	0.45	-0.750			
0.3303	21137.18	3.6660	3.6659	-0.9761	6.45	0.46	-0.750			
0.3332	21325.48	3.6630	3.6630	-0.9839	6.45	0.46	-0.750			
0.3361	21513.31	3.6600	3.6600	-0.9899	6.46	0.47	-0.750			
0.3392	21706.00	3.6570	3.6570	-1.0024	6.47	0.48	-0.750			
0.3422	21899.01	3.6540	3.6540	-1.0110	6.47	0.48	-0.750			
0.3452	22093.53	3.6510	3.6510	-1.0240	6.47	0.48	-0.750			
0.3483	22290.09	3.6480	3.6480	-1.0339	6.47	0.48	-0.750			
0.3514	22488.32	3.6450	3.6449	-1.0482	6.47	0.48	-0.750			
0.3546	22691.66	3.6420	3.6420	-1.0687	6.48	0.49	-0.750			
0.3578	22899.73	3.6390	3.6390	-1.0815	6.49	0.50	-0.750			
0.3611	23111.39	3.6360	3.6359	-1.0936	6.50	0.51	-0.750			
0.3644	23322.36	3.6330	3.6332	-1.0986	6.51	0.52	-0.750			
0.3677	23533.11	3.6300	3.6300	-1.1111	6.51	0.52	-0.750			
0.3711	23747.53	3.6270	3.6270	-1.1184	6.52	0.53	-0.750			
0.3744	23961.65	3.6240	3.6239	-1.1188	6.52	0.53	-0.750			
0.3777	24175.55	3.6210	3.6211	-1.1339	6.52	0.53	-0.750			
0.3812	24396.17	3.6180	3.6179	-1.1521	6.52	0.53	-0.750			
0.3847	24618.84	3.6150	3.6150	-1.1604	6.53	0.54	-0.750			
0.3881	24840.68	3.6120	3.6118	-1.1814	6.53	0.54	-0.750			
0.3917	25070.76	3.6090	3.6091	-1.1882	6.53	0.54	-0.750			
0.3954	25303.02	3.6060	3.6059	-1.1947	6.54	0.55	-0.750			
0.3989	25531.72	3.6030	3.6030	-1.2132	6.54	0.55	-0.750			
0.4025	25761.11	3.6000	3.6002	-1.2187	6.55	0.56	-0.750			
0.4063	26000.02	3.5970	3.5968	-1.2379	6.56	0.57	-0.750			
0.4100	26241.44	3.5940	3.5940	-1.2484	6.56	0.57	-0.750	0.471	1.070	
0.4137	26479.85	3.5910	3.5910	-1.2625	6.57	0.58	-0.750			
0.4176	26729.35	3.5880	3.5880	-1.2721	6.57	0.58	-0.750			
0.4214	26972.67	3.5850	3.5850	-1.2651	6.58	0.59	-0.750			
0.4251	27208.93	3.5820	3.5820	-1.2798	6.59	0.60	-0.750			
0.4290	27455.17	3.5790	3.5789	-1.2862	6.59	0.60	-0.750			
0.4329	27704.41	3.5760	3.5759	-1.3002	6.59	0.60	-0.750			
0.4368	27954.24	3.5730	3.5730	-1.3157	6.59	0.60	-0.750			
0.4408	28208.21	3.5700	3.5702	-1.3376	6.59	0.60	-0.750			
0.4449	28472.06	3.5670	3.5669	-1.3619	6.61	0.62	-0.750			
0.4490	28734.34	3.5640	3.5639	-1.3716	6.62	0.63	-0.750			
0.4531	28997.24	3.5610	3.5611	-1.3870	6.63	0.64	-0.750			
0.4573	29269.48	3.5580	3.5580	-1.4082	6.63	0.64	-0.750			
0.4616	29542.16	3.5550	3.5549	-1.4139	6.64	0.65	-0.750			
0.4658	29813.43	3.5520	3.5521	-1.4226	6.64	0.65	-0.750			
0.4701	30086.50	3.5490	3.5490	-1.4515	6.65	0.66	-0.750			
0.4744	30364.75	3.5460	3.5459	-1.4642	6.66	0.67	-0.750			
0.4789	30647.84	3.5430	3.5430	-1.4655	6.66	0.67	-0.750			
0.4833	30933.30	3.5400	3.5399	-1.4983	6.66	0.67	-0.750			
0.4879	31223.26	3.5370	3.5369	-1.5168	6.67	0.68	-0.750			
0.4925	31516.89	3.5340	3.5339	-1.5356	6.67	0.68	-0.750			
0.4971	31812.24	3.5310	3.5311	-1.5721	6.68	0.69	-0.750			
0.5019	32120.12	3.5280	3.5280	-1.5749	6.68	0.69	-0.750			
0.5067	32427.59	3.5250	3.5250	-1.5915	6.68	0.69	-0.750			
0.5115	32737.68	3.5220	3.5219	-1.6070	6.69	0.70	-0.750			
0.5163	33043.96	3.5190	3.5191	-1.6001	6.69	0.70	-0.750			
0.5211	33352.98	3.5160	3.5158	-1.6001	6.71	0.72	-0.750			
0.5259	33659.68	3.5130	3.5129	-1.5968	6.72	0.73	-0.750			
0.5308	33969.40	3.5100	3.5099	-1.5824	6.73	0.74	-0.750			
0.5355	34273.93	3.5070	3.5067	-1.5924	6.73	0.74	-0.750			
0.5402	34574.37	3.5040	3.5044	-1.5810	6.74	0.75	-0.750			
0.5449	34876.33	3.5010	3.5007	-1.5706	6.75	0.76	-0.750			
0.5497	35179.59	3.4980	3.4981	-1.5839	6.76	0.77	-0.750			
0.5545	35484.85	3.4950	3.4949	-1.5811	6.76	0.77	-0.750			
0.5594	35800.87	3.4920	3.4919	-1.6067	6.77	0.78	-0.750			
0.5642	36108.12	3.4890	3.4892	-1.5901	6.78	0.79	-0.750			
0.5689	36409.57	3.4860	3.4861	-1.5847	6.79	0.80	-0.750			
0.5737	36714.37	3.4830	3.4827	-1.5688	6.80	0.81	-0.750			
0.5783	37014.36	3.4800	3.4800	-1.5451	6.81	0.82	-0.750			
0.5829	37306.02	3.4770	3.4768	-1.5382	6.82	0.83	-0.750			
0.5875	37600.09	3.4740	3.4739	-1.5229	6.83	0.84	-0.750			
0.5921	37895.65	3.4710	3.4710	-1.5199	6.83	0.84	-0.750			
0.5967	38190.35	3.4680	3.4680	-1.5108	6.84	0.85	-0.750			
0.6012	38474.45	3.4650	3.4650	-1.4945	6.85	0.86	-0.750			
0.6057	38762.20	3.4620	3.4620	-1.4896	6.86	0.87	-0.750			
0.6102	39051.12	3.4590	3.4588	-1.4748	6.87	0.88	-0.750			
0.6145	39328.53	3.4560	3.4563	-1.4703	6.88	0.89	-0.750			
0.6190	39616.10	3.4530	3.4526	-1.4431	6.89	0.90	-0.750			
0.6233	39892.32	3.4500	3.4502	-1.4245	6.91	0.92	-0.750			
0.6276	40167.76	3.4470	3.4475	-1.4198	6.92	0.93	-0.750			
0.6319	40441.45	3.4440	3.4438	-1.3946	6.93	0.94	-0.750			
0.6360	40705.16	3.4410	3.4408	-1.3638	6.94	0.95	-0.750			
0.6400	40960.93	3.4380	3.4384	-1.3374	6.95	0.96	-0.750			
0.6440	41217.82	3.4350	3.4349	-1.3242	6.96	0.97	-0.750			
0.6480	41469.40	3.4320	3.4319	-1.3047	6.98	0.99	-0.750			
0.6517	41710.64	3.4290	3.4289	-1.2802	6.99	1.00	-0.750			
0.6556	41960.87	3.4260	3.4259	-1.2585	7.00	1.01	-0.750			
0.6594	42201.96	3.4230	3.4230	-1.2355	7.01	1.02	-0.750			
0.6631	42435.84	3.4200	3.4200	-1.2067	7.02	1.03	-0.750			
0.6666	42664.80	3.4170	3.4170	-1.1837	7.04	1.05	-0.750			
0.6701	42888.96	3.4140	3.4139	-1.1523	7.05	1.06	-0.750			
0.6736	43108.31	3.4110	3.4110	-1.1209	7.07	1.08	-0.750			
0.6769	43320.42	3.4080	3.4082	-1.0947	7.08	1.09	-0.750			
0.6802	43530.26	3.4050	3.4049	-1.0789	7.09	1.10	-0.750			
0.6833	43733.91	3.4020	3.4020	-1.0423	7.10	1.11	-0.750			
0.6864	43931.29	3.3990	3.3989	-1.0139	7.12	1.13	-0.750			
0.6894	44121.88	3.3960	3.3960	-0.9823	7.13	1.14	-0.750			
0.6923	44308.97	3.3930	3.3929	-0.9689	7.14	1.15	-0.750			
0.6952	44493.22	3.3900	3.3900	-0.9392	7.15	1.16	-0.750			
0.6980	44669.42	3.3870	3.3869	-0.9104	7.16	1.17	-0.750			
0.7007	44843.33	3.3840	3.3839	-0.8904	7.17	1.18	-0.750			
0.7033	45013.51	3.3810	3.3810	-0.8645	7.18	1.19	-0.750			
0.7058	45173.35	3.3780	3.3780	-0.8480	7.19	1.20	-0.750			
0.7084	45335.56	3.3750	3.3749	-0.8224	7.20	1.21	-0.750			
0.7108	45489.37	3.3720	3.3719	-0.7927	7.21	1.22	-0.750			
0.7132	45643.94	3.3690	3.3690	-0.7740	7.22	1.23	-0.750			
0.7155	45790.14	3.3660	3.3661	-0.7499	7.23	1.24	-0.750			
0.7177	45930.81	3.3630	3.3629	-0.7290	7.25	1.26	-0.750			
0.7198	46066.00	3.3600	3.3600	-0.7054	7.26	1.27	-0.750			
0.7218	46195.82	3.3570	3.3569	-0.6871	7.28	1.29	-0.750			
0.7239	46329.07	3.3540	3.3541	-0.6801	7.29	1.30	-0.750			
0.7259	46458.64	3.3510	3.3509	-0.6675	7.30	1.31	-0.750			
0.7279	46585.49	3.3480	3.3482	-0.6532	7.31	1.32	-0.750			
