Ah_balance (normalized)	Ah_balance (mAh)	Voltage - fit (V)	Voltage -  interpolate (V)	dQ/dV (1/V)	Temperature (°C)	Temperature - diff (°C)	Current (C)	R_DC 0ms (mOhm)	R_DC 50ms (mOhm)	R_DC 50 ms PEC (mOhm)
0.1797	11501.73	4.0810	4.0810	0.7943	7.44	1.46	0.750			
0.1821	11654.78	4.0780	4.0780	0.7989	7.44	1.46	0.750			
0.1845	11811.05	4.0750	4.0750	0.8014	7.44	1.46	0.750			
0.1869	11961.54	4.0720	4.0720	0.7949	7.44	1.46	0.750			
0.1893	12112.83	4.0690	4.0691	0.7953	7.43	1.45	0.750			
0.1916	12264.28	4.0660	4.0661	0.8016	7.43	1.45	0.750			
0.1940	12416.93	4.0630	4.0628	0.8081	7.43	1.45	0.750			
0.1965	12574.81	4.0600	4.0600	0.8094	7.43	1.45	0.750			
0.1989	12731.68	4.0570	4.0570	0.8152	7.42	1.44	0.750			
0.2014	12889.33	4.0540	4.0541	0.8201	7.42	1.44	0.750			
0.2039	13047.49	4.0510	4.0510	0.8182	7.41	1.43	0.750			
0.2063	13203.23	4.0480	4.0479	0.8181	7.41	1.43	0.750			
0.2087	13359.90	4.0450	4.0450	0.8205	7.41	1.43	0.750			
0.2112	13518.27	4.0420	4.0420	0.8149	7.40	1.42	0.750			
0.2137	13674.74	4.0390	4.0390	0.8225	7.40	1.42	0.750			
0.2161	13831.65	4.0360	4.0361	0.8211	7.39	1.41	0.750			
0.2186	13989.07	4.0330	4.0327	0.8276	7.39	1.41	0.750			
0.2211	14148.43	4.0300	4.0300	0.8338	7.39	1.41	0.750			
0.2236	14309.12	4.0270	4.0270	0.8319	7.39	1.41	0.750			
0.2261	14469.84	4.0240	4.0242	0.8371	7.38	1.40	0.750			
0.2286	14629.90	4.0210	4.0210	0.8389	7.38	1.40	0.750			
0.2311	14790.22	4.0180	4.0176	0.8442	7.38	1.40	0.750			
0.2337	14954.79	4.0150	4.0150	0.8435	7.38	1.40	0.750			
0.2362	15115.91	4.0120	4.0120	0.8490	7.38	1.40	0.750			
0.2388	15281.44	4.0090	4.0090	0.8579	7.37	1.39	0.750			
0.2414	15446.42	4.0060	4.0061	0.8577	7.37	1.39	0.750			
0.2439	15610.95	4.0030	4.0030	0.8645	7.37	1.39	0.750			
0.2465	15779.09	4.0000	4.0000	0.8595	7.37	1.39	0.750			
0.2491	15944.03	3.9970	3.9971	0.8645	7.36	1.38	0.750			
0.2517	16111.18	3.9940	3.9940	0.8656	7.36	1.38	0.750			
0.2543	16275.58	3.9910	3.9910	0.8633	7.35	1.37	0.750			
0.2569	16440.43	3.9880	3.9881	0.8689	7.35	1.37	0.750			
0.2595	16608.35	3.9850	3.9850	0.8721	7.35	1.37	0.750			
0.2621	16775.61	3.9820	3.9820	0.8807	7.35	1.37	0.750			
0.2648	16947.38	3.9790	3.9790	0.8902	7.34	1.36	0.750			
0.2675	17118.93	3.9760	3.9760	0.8909	7.34	1.36	0.750			
0.2702	17292.09	3.9730	3.9730	0.8934	7.34	1.36	0.750			
0.2729	17462.72	3.9700	3.9701	0.8904	7.34	1.36	0.750			
0.2755	17632.81	3.9670	3.9670	0.8947	7.33	1.35	0.750			
0.2782	17805.15	3.9640	3.9640	0.8980	7.33	1.35	0.750			
0.2809	17975.36	3.9610	3.9607	0.9006	7.33	1.35	0.750			
0.2836	18150.57	3.9580	3.9581	0.9021	7.32	1.34	0.750			
0.2863	18323.60	3.9550	3.9550	0.9113	7.31	1.33	0.750			
0.2891	18500.02	3.9520	3.9520	0.9196	7.30	1.32	0.750			
0.2918	18677.29	3.9490	3.9490	0.9252	7.30	1.32	0.750			
0.2946	18852.42	3.9460	3.9460	0.9303	7.29	1.31	0.750			
0.2974	19033.33	3.9430	3.9431	0.9339	7.29	1.31	0.750			
0.3002	19213.47	3.9400	3.9401	0.9385	7.28	1.30	0.750			
0.3030	19394.09	3.9370	3.9370	0.9487	7.28	1.30	0.750			
0.3059	19575.50	3.9340	3.9338	0.9537	7.28	1.30	0.750			
0.3087	19759.52	3.9310	3.9310	0.9583	7.27	1.29	0.750			
0.3116	19945.55	3.9280	3.9280	0.9662	7.27	1.29	0.750			
0.3146	20132.56	3.9250	3.9250	0.9740	7.26	1.28	0.750			
0.3175	20320.99	3.9220	3.9220	0.9756	7.25	1.27	0.750			
0.3205	20509.58	3.9190	3.9191	0.9760	7.25	1.27	0.750			
0.3234	20694.47	3.9160	3.9159	0.9858	7.24	1.26	0.750			
0.3263	20883.72	3.9130	3.9130	1.0024	7.23	1.25	0.750			
0.3293	21075.05	3.9100	3.9099	1.0157	7.22	1.24	0.750			
0.3325	21277.26	3.9070	3.9071	1.0173	7.22	1.24	0.750			
0.3355	21473.52	3.9040	3.9040	1.0293	7.22	1.24	0.750			
0.3386	21671.79	3.9010	3.9012	1.0404	7.21	1.23	0.750			
0.3417	21870.54	3.8980	3.8981	1.0498	7.21	1.23	0.750			
0.3449	22072.70	3.8950	3.8948	1.0468	7.21	1.23	0.750			
0.3480	22272.71	3.8920	3.8921	1.0705	7.20	1.22	0.750			
0.3512	22477.91	3.8890	3.8891	1.0912	7.19	1.21	0.750			
0.3546	22692.34	3.8860	3.8860	1.1157	7.17	1.19	0.750			
0.3580	22908.95	3.8830	3.8831	1.1167	7.17	1.19	0.750			
0.3613	23123.36	3.8800	3.8801	1.1353	7.16	1.18	0.750			
0.3648	23344.41	3.8770	3.8772	1.1527	7.16	1.18	0.750			
0.3683	23571.11	3.8740	3.8735	1.1584	7.15	1.17	0.750			
0.3717	23789.78	3.8710	3.8711	1.1622	7.14	1.16	0.750			
0.3752	24012.40	3.8680	3.8682	1.1829	7.13	1.15	0.750			
0.3788	24240.71	3.8650	3.8650	1.2060	7.12	1.14	0.750			
0.3824	24472.14	3.8620	3.8620	1.2108	7.11	1.13	0.750			
0.3861	24707.74	3.8590	3.8590	1.2346	7.09	1.11	0.750			
0.3898	24947.57	3.8560	3.8561	1.2644	7.08	1.10	0.750			
0.3937	25194.95	3.8530	3.8527	1.2818	7.07	1.09	0.750			
0.3975	25440.87	3.8500	3.8501	1.2976	7.06	1.08	0.750			
0.4014	25691.77	3.8470	3.8470	1.3198	7.05	1.07	0.750			
0.4054	25943.77	3.8440	3.8439	1.3599	7.04	1.06	0.750			
0.4096	26212.18	3.8410	3.8410	1.3767	7.03	1.05	0.750			
0.4137	26477.66	3.8380	3.8379	1.4197	7.02	1.04	0.750			
0.4180	26752.70	3.8350	3.8349	1.4512	7.00	1.02	0.750	0.415	0.984	
0.4224	27034.69	3.8320	3.8322	1.4873	6.98	1.00	0.750			
0.4269	27324.46	3.8290	3.8289	1.5200	6.97	0.99	0.750			
0.4316	27621.56	3.8260	3.8257	1.5257	6.95	0.97	0.750			
0.4361	27913.27	3.8230	3.8233	1.5745	6.93	0.95	0.750			
0.4410	28225.83	3.8200	3.8200	1.5851	6.92	0.94	0.750			
0.4457	28522.83	3.8170	3.8170	1.6122	6.90	0.92	0.750			
0.4505	28829.91	3.8140	3.8144	1.6322	6.88	0.90	0.750			
0.4555	29150.38	3.8110	3.8107	1.6749	6.85	0.87	0.750			
0.4606	29476.49	3.8080	3.8083	1.6864	6.84	0.86	0.750			
0.4656	29799.31	3.8050	3.8053	1.7326	6.82	0.84	0.750			
0.4709	30139.82	3.8020	3.8021	1.7955	6.80	0.82	0.750			
0.4765	30497.35	3.7990	3.7990	1.8432	6.77	0.79	0.750			
0.4820	30848.20	3.7960	3.7959	1.8730	6.75	0.77	0.750			
0.4878	31216.84	3.7930	3.7933	1.9017	6.72	0.74	0.750			
0.4935	31585.30	3.7900	3.7900	1.9351	6.69	0.71	0.750			
0.4994	31959.91	3.7870	3.7873	1.9860	6.67	0.69	0.750			
0.5056	32357.04	3.7840	3.7838	2.0266	6.65	0.67	0.750			
0.5116	32740.41	3.7810	3.7809	2.0527	6.62	0.64	0.750			
0.5180	33153.15	3.7780	3.7780	2.1404	6.59	0.61	0.750			
0.5245	33569.79	3.7750	3.7750	2.1316	6.56	0.58	0.750			
0.5309	33979.38	3.7720	3.7721	2.1123	6.53	0.55	0.750			
0.5374	34391.53	3.7690	3.7693	2.1660	6.51	0.53	0.750			
0.5436	34790.87	3.7660	3.7661	2.1632	6.49	0.51	0.750			
0.5502	35214.95	3.7630	3.7630	2.2538	6.46	0.48	0.750			
0.5573	35664.32	3.7600	3.7599	2.3269	6.43	0.45	0.750			
0.5643	36112.66	3.7570	3.7570	2.3327	6.40	0.42	0.750			
0.5713	36560.46	3.7540	3.7539	2.3806	6.38	0.40	0.750			
0.5783	37013.06	3.7510	3.7508	2.4566	6.34	0.36	0.750			
0.5859	37494.91	3.7480	3.7480	2.5207	6.31	0.33	0.750			
0.5935	37986.29	3.7450	3.7452	2.5952	6.29	0.31	0.750			
0.6013	38481.25	3.7420	3.7420	2.6150	6.25	0.27	0.750			
0.6092	38991.97	3.7390	3.7393	2.6761	6.22	0.24	0.750			
0.6174	39512.02	3.7360	3.7360	2.8428	6.19	0.21	0.750			
0.6262	40076.59	3.7330	3.7330	2.9640	6.17	0.19	0.750			
0.6355	40672.16	3.7300	3.7300	3.2391	6.13	0.15	0.750			
0.6454	41305.21	3.7270	3.7271	3.1527	6.09	0.11	0.750			
0.6551	41925.75	3.7240	3.7238	3.0812	6.05	0.07	0.750			
0.6636	42473.01	3.7210	3.7211	2.8408	6.04	0.06	0.750			
0.6723	43029.24	3.7180	3.7177	2.7308	6.02	0.04	0.750			
0.6803	43538.00	3.7150	3.7150	2.4867	6.00	0.02	0.750			
0.6874	43991.25	3.7120	3.7117	2.2391	5.99	0.01	0.750			
0.6934	44377.86	3.7090	3.7088	1.9066	5.99	0.01	0.750			
0.6985	44701.70	3.7060	3.7064	1.6318	5.98	0.00	0.750			
0.7029	44986.00	3.7030	3.7031	1.4196	5.97	-0.01	0.750			
0.7067	45231.84	3.7000	3.7000	1.2385	5.97	-0.01	0.750			
0.7102	45451.70	3.6970	3.6970	1.1066	5.97	-0.01	0.750			
0.7132	45642.15	3.6940	3.6941	0.9968	5.97	-0.01	0.750			
0.7160	45822.18	3.6910	3.6910	0.9317	5.97	-0.01	0.750			
0.7186	45991.98	3.6880	3.6879	0.8594	5.97	-0.01	0.750			
0.7211	46150.20	3.6850	3.6849	0.7993	5.97	-0.01	0.750			
0.7234	46298.58	3.6820	3.6825	0.7434	5.97	-0.01	0.750			
0.7256	46437.79	3.6790	3.6788	0.6906	5.98	-0.00	0.750			
0.7276	46565.34	3.6760	3.6759	0.6330	5.98	-0.00	0.750			
0.7293	46676.29	3.6730	3.6730	0.5731	5.98	-0.00	0.750			
0.7309	46779.80	3.6700	3.6699	0.5236	5.98	-0.00	0.750			
0.7325	46879.41	3.6670	3.6670	0.4777	5.98	0.00	0.750			
0.7338	46965.58	3.6640	3.6640	0.4274	5.98	0.00	0.750			
0.7350	47042.37	3.6610	3.6611	0.3806	5.98	0.00	0.750			
0.7361	47110.08	3.6580	3.6580	0.3394	5.98	0.00	0.750			
0.7370	47169.81	3.6550	3.6549	0.2986	5.98	0.00	0.750			
0.7379	47223.56	3.6520	3.6519	0.2582	5.99	0.01	0.750			
0.7386	47269.56	3.6490	3.6489	0.2208	5.99	0.01	0.750			
0.7392	47309.10	3.6460	3.6460	0.1839	5.99	0.01	0.750			
0.7397	47341.94	3.6430	3.6431	0.1452	5.99	0.01	0.750			
0.7401	47366.87	3.6400	3.6400	0.1028	5.99	0.01	0.750			
0.7403	47382.30	3.6370	3.6374	0.0580	5.99	0.01	0.750			
0.7405	47389.15	3.6340	3.6359	0.0138	5.99	0.01	0.750			
