Ah_balance (normalized)	Ah_balance (mAh)	Voltage - fit (V)	Voltage -  interpolate (V)	dQ/dV (1/V)	Temperature (°C)	Temperature - diff (°C)	Current (C)	R_DC 0ms (mOhm)	R_DC 50ms (mOhm)	R_DC 50 ms PEC (mOhm)
0.0937	5997.07	4.0040	4.0039	-0.0533	5.99	0.00	-0.750			
0.0939	6011.78	4.0010	4.0008	-0.0886	5.99	0.00	-0.750			
0.0943	6032.98	3.9980	3.9978	-0.1178	5.99	0.00	-0.750			
0.0947	6058.61	3.9950	3.9949	-0.1442	5.99	0.00	-0.750			
0.0951	6088.80	3.9920	3.9921	-0.1704	5.99	0.00	-0.750			
0.0957	6124.18	3.9890	3.9892	-0.1922	5.99	0.00	-0.750			
0.0963	6165.01	3.9860	3.9860	-0.2172	5.99	0.00	-0.750			
0.0970	6208.50	3.9830	3.9831	-0.2390	5.99	0.00	-0.750			
0.0978	6256.29	3.9800	3.9801	-0.2626	5.99	0.00	-0.750			
0.0986	6308.49	3.9770	3.9770	-0.2859	5.99	0.00	-0.750			
0.0995	6366.01	3.9740	3.9740	-0.3082	5.99	0.00	-0.750			
0.1004	6427.90	3.9710	3.9710	-0.3289	5.99	0.00	-0.750			
0.1015	6493.18	3.9680	3.9680	-0.3529	5.99	0.00	-0.750			
0.1025	6561.46	3.9650	3.9651	-0.3791	5.99	0.00	-0.750			
0.1037	6637.83	3.9620	3.9619	-0.3981	5.99	0.00	-0.750			
0.1049	6716.73	3.9590	3.9589	-0.4180	5.99	0.00	-0.750			
0.1062	6798.93	3.9560	3.9561	-0.4410	5.99	0.00	-0.750			
0.1076	6886.56	3.9530	3.9531	-0.4607	5.99	-0.00	-0.750			
0.1090	6976.77	3.9500	3.9499	-0.4786	5.99	-0.00	-0.750			
0.1104	7068.79	3.9470	3.9470	-0.4958	5.98	-0.01	-0.750			
0.1120	7165.53	3.9440	3.9439	-0.5144	5.98	-0.01	-0.750			
0.1136	7267.38	3.9410	3.9410	-0.5401	5.98	-0.01	-0.750			
0.1152	7373.74	3.9380	3.9379	-0.5507	5.98	-0.01	-0.750			
0.1169	7481.64	3.9350	3.9350	-0.5626	5.97	-0.02	-0.750			
0.1186	7591.51	3.9320	3.9318	-0.5771	5.97	-0.02	-0.750			
0.1204	7703.69	3.9290	3.9291	-0.5854	5.97	-0.02	-0.750			
0.1221	7816.45	3.9260	3.9259	-0.5930	5.97	-0.02	-0.750			
0.1239	7929.48	3.9230	3.9230	-0.6064	5.97	-0.02	-0.750			
0.1257	8045.73	3.9200	3.9202	-0.6120	5.97	-0.02	-0.750			
0.1276	8167.88	3.9170	3.9167	-0.6297	5.98	-0.01	-0.750			
0.1295	8290.12	3.9140	3.9140	-0.6391	5.98	-0.01	-0.750			
0.1315	8413.64	3.9110	3.9112	-0.6455	5.98	-0.01	-0.750			
0.1334	8540.07	3.9080	3.9080	-0.6555	5.98	-0.01	-0.750			
0.1354	8665.86	3.9050	3.9049	-0.6594	5.99	-0.00	-0.750			
0.1373	8789.13	3.9020	3.9020	-0.6626	5.99	0.00	-0.750			
0.1394	8919.68	3.8990	3.8990	-0.6677	6.00	0.01	-0.750			
0.1414	9049.07	3.8960	3.8959	-0.6728	6.00	0.01	-0.750			
0.1434	9179.18	3.8930	3.8930	-0.6743	6.01	0.02	-0.750			
0.1454	9308.77	3.8900	3.8901	-0.6772	6.01	0.02	-0.750			
0.1473	9428.72	3.8870	3.8872	-0.7231	6.02	0.03	-0.750			
0.1495	9570.91	3.8840	3.8839	-0.7588	6.03	0.04	-0.750			
0.1519	9724.66	3.8810	3.8804	-0.7737	6.03	0.04	-0.750			
0.1544	9883.12	3.8780	3.8780	-0.7901	6.04	0.05	-0.750			
0.1570	10045.61	3.8750	3.8755	-0.7937	6.05	0.06	-0.750			
0.1594	10199.62	3.8720	3.8720	-0.7731	6.06	0.07	-0.750			
0.1616	10343.43	3.8690	3.8688	-0.7382	6.06	0.07	-0.750			
0.1636	10470.43	3.8660	3.8660	-0.7066	6.07	0.08	-0.750			
0.1657	10607.23	3.8630	3.8629	-0.7068	6.08	0.09	-0.750			
0.1679	10742.60	3.8600	3.8600	-0.7056	6.08	0.09	-0.750			
0.1700	10878.29	3.8570	3.8570	-0.7078	6.09	0.10	-0.750			
0.1721	11014.40	3.8540	3.8540	-0.7067	6.10	0.11	-0.750			
0.1742	11148.89	3.8510	3.8510	-0.7137	6.10	0.11	-0.750			
0.1764	11287.03	3.8480	3.8480	-0.7108	6.11	0.12	-0.750			
0.1785	11424.10	3.8450	3.8450	-0.7115	6.12	0.13	-0.750			
0.1806	11561.47	3.8420	3.8420	-0.7131	6.12	0.13	-0.750			
0.1828	11698.27	3.8390	3.8391	-0.7107	6.13	0.14	-0.750			
0.1849	11833.83	3.8360	3.8359	-0.7100	6.14	0.15	-0.750			
0.1870	11968.62	3.8330	3.8330	-0.7138	6.15	0.16	-0.750			
0.1891	12104.30	3.8300	3.8299	-0.7143	6.16	0.17	-0.750			
0.1913	12245.04	3.8270	3.8270	-0.7238	6.17	0.18	-0.750			
0.1935	12385.03	3.8240	3.8240	-0.7232	6.18	0.19	-0.750			
0.1957	12524.42	3.8210	3.8210	-0.7221	6.19	0.20	-0.750			
0.1979	12663.24	3.8180	3.8181	-0.7231	6.20	0.21	-0.750			
0.2000	12800.48	3.8150	3.8150	-0.7228	6.21	0.22	-0.750			
0.2022	12938.41	3.8120	3.8120	-0.7223	6.21	0.22	-0.750			
0.2043	13077.93	3.8090	3.8090	-0.7244	6.22	0.23	-0.750			
0.2065	13218.11	3.8060	3.8060	-0.7265	6.23	0.24	-0.750			
0.2087	13358.05	3.8030	3.8030	-0.7251	6.23	0.24	-0.750			
0.2109	13497.04	3.8000	3.7999	-0.7253	6.24	0.25	-0.750			
0.2130	13634.48	3.7970	3.7971	-0.7303	6.25	0.26	-0.750			
0.2152	13775.08	3.7940	3.7939	-0.7289	6.26	0.27	-0.750			
0.2174	13916.15	3.7910	3.7910	-0.7345	6.26	0.27	-0.750			
0.2197	14058.19	3.7880	3.7881	-0.7356	6.27	0.28	-0.750			
0.2219	14198.68	3.7850	3.7850	-0.7375	6.28	0.29	-0.750			
0.2241	14341.63	3.7820	3.7820	-0.7391	6.29	0.30	-0.750			
0.2263	14483.14	3.7790	3.7790	-0.7401	6.30	0.31	-0.750			
0.2285	14624.32	3.7760	3.7760	-0.7426	6.30	0.31	-0.750			
0.2308	14768.26	3.7730	3.7730	-0.7487	6.31	0.32	-0.750			
0.2330	14911.37	3.7700	3.7700	-0.7514	6.32	0.33	-0.750			
0.2352	15055.78	3.7670	3.7670	-0.7565	6.33	0.34	-0.750			
0.2375	15201.13	3.7640	3.7640	-0.7595	6.34	0.35	-0.750			
0.2398	15347.40	3.7610	3.7610	-0.7649	6.34	0.35	-0.750			
0.2421	15496.43	3.7580	3.7580	-0.7706	6.35	0.36	-0.750			
0.2444	15643.25	3.7550	3.7551	-0.7728	6.36	0.37	-0.750			
0.2468	15792.16	3.7520	3.7520	-0.7773	6.37	0.38	-0.750			
0.2491	15940.68	3.7490	3.7490	-0.7848	6.38	0.39	-0.750			
0.2515	16093.44	3.7460	3.7460	-0.7855	6.39	0.40	-0.750			
0.2538	16244.52	3.7430	3.7430	-0.7874	6.40	0.41	-0.750			
0.2562	16396.51	3.7400	3.7401	-0.7888	6.41	0.42	-0.750			
0.2586	16548.08	3.7370	3.7369	-0.7917	6.41	0.42	-0.750			
0.2609	16698.19	3.7340	3.7340	-0.7979	6.42	0.43	-0.750			
0.2633	16852.23	3.7310	3.7309	-0.8034	6.43	0.44	-0.750			
0.2657	17006.17	3.7280	3.7280	-0.8084	6.44	0.45	-0.750			
0.2682	17164.37	3.7250	3.7250	-0.8179	6.44	0.45	-0.750			
0.2707	17321.88	3.7220	3.7220	-0.8239	6.45	0.46	-0.750			
0.2731	17480.57	3.7190	3.7190	-0.8310	6.46	0.47	-0.750			
0.2756	17640.33	3.7160	3.7160	-0.8336	6.46	0.47	-0.750			
0.2781	17800.37	3.7130	3.7130	-0.8384	6.47	0.48	-0.750			
0.2807	17962.98	3.7100	3.7100	-0.8465	6.48	0.49	-0.750			
0.2832	18126.13	3.7070	3.7070	-0.8509	6.48	0.49	-0.750			
0.2858	18289.24	3.7040	3.7039	-0.8588	6.49	0.50	-0.750			
0.2884	18454.45	3.7010	3.7010	-0.8607	6.49	0.50	-0.750			
0.2909	18619.78	3.6980	3.6980	-0.8672	6.50	0.51	-0.750			
0.2936	18787.24	3.6950	3.6950	-0.8764	6.51	0.52	-0.750			
0.2962	18955.70	3.6920	3.6920	-0.8843	6.51	0.52	-0.750			
0.2988	19126.11	3.6890	3.6890	-0.8967	6.52	0.53	-0.750			
0.3016	19299.50	3.6860	3.6860	-0.9062	6.53	0.54	-0.750			
0.3043	19475.40	3.6830	3.6830	-0.9099	6.54	0.55	-0.750			
0.3071	19652.17	3.6800	3.6801	-0.9198	6.55	0.56	-0.750			
0.3098	19828.59	3.6770	3.6770	-0.9281	6.55	0.56	-0.750			
0.3126	20007.68	3.6740	3.6740	-0.9336	6.56	0.57	-0.750			
0.3154	20186.36	3.6710	3.6709	-0.9387	6.56	0.57	-0.750			
0.3182	20367.00	3.6680	3.6680	-0.9450	6.57	0.58	-0.750			
0.3211	20550.26	3.6650	3.6650	-0.9556	6.57	0.58	-0.750			
0.3240	20735.66	3.6620	3.6620	-0.9665	6.58	0.59	-0.750			
0.3269	20922.07	3.6590	3.6589	-0.9673	6.58	0.59	-0.750			
0.3298	21108.14	3.6560	3.6560	-0.9736	6.59	0.60	-0.750			
0.3328	21296.20	3.6530	3.6532	-0.9816	6.59	0.60	-0.750			
0.3357	21484.43	3.6500	3.6499	-0.9918	6.60	0.61	-0.750			
0.3387	21676.07	3.6470	3.6470	-0.9995	6.61	0.62	-0.750			
0.3417	21867.47	3.6440	3.6440	-1.0051	6.62	0.63	-0.750			
0.3447	22063.59	3.6410	3.6412	-1.0207	6.63	0.64	-0.750			
0.3478	22259.73	3.6380	3.6380	-1.0282	6.63	0.64	-0.750			
0.3509	22457.01	3.6350	3.6349	-1.0332	6.64	0.65	-0.750			
0.3540	22655.93	3.6320	3.6320	-1.0444	6.64	0.65	-0.750			
0.3571	22857.48	3.6290	3.6290	-1.0515	6.65	0.66	-0.750			
0.3603	23060.87	3.6260	3.6260	-1.0659	6.66	0.67	-0.750			
0.3636	23268.39	3.6230	3.6231	-1.0730	6.67	0.68	-0.750			
0.3668	23474.96	3.6200	3.6199	-1.0766	6.68	0.69	-0.750			
0.3700	23680.59	3.6170	3.6173	-1.0862	6.69	0.70	-0.750			
0.3733	23890.19	3.6140	3.6139	-1.0921	6.70	0.71	-0.750			
0.3766	24099.73	3.6110	3.6110	-1.0953	6.70	0.71	-0.750			
0.3799	24310.66	3.6080	3.6080	-1.1039	6.71	0.72	-0.750			
0.3832	24523.45	3.6050	3.6051	-1.1208	6.71	0.72	-0.750			
0.3866	24739.80	3.6020	3.6019	-1.1280	6.72	0.73	-0.750			
0.3899	24956.27	3.5990	3.5990	-1.1376	6.72	0.73	-0.750			
0.3933	25174.23	3.5960	3.5960	-1.1517	6.73	0.74	-0.750			
0.3969	25400.05	3.5930	3.5930	-1.1664	6.73	0.74	-0.750			
0.4004	25625.57	3.5900	3.5899	-1.1743	6.74	0.75	-0.750			
0.4039	25850.75	3.5870	3.5880	-1.1846	6.74	0.75	-0.750	0.457	1.030	
0.4075	26077.88	3.5840	3.5842	-1.1945	6.75	0.76	-0.750			
0.4111	26310.49	3.5810	3.5809	-1.2052	6.76	0.77	-0.750			
0.4147	26541.98	3.5780	3.5780	-1.2121	6.76	0.77	-0.750			
0.4184	26775.01	3.5750	3.5751	-1.2271	6.77	0.78	-0.750			
0.4221	27013.47	3.5720	3.5720	-1.2413	6.77	0.78	-0.750			
0.4258	27251.45	3.5690	3.5689	-1.2505	6.78	0.79	-0.750			
0.4295	27490.50	3.5660	3.5661	-1.2626	6.79	0.80	-0.750			
0.4334	27734.75	3.5630	3.5631	-1.2875	6.79	0.80	-0.750			
0.4373	27987.05	3.5600	3.5599	-1.2940	6.80	0.81	-0.750			
0.4412	28236.73	3.5570	3.5570	-1.3061	6.80	0.81	-0.750			
0.4451	28488.38	3.5540	3.5542	-1.3184	6.81	0.82	-0.750			
0.4491	28744.16	3.5510	3.5509	-1.3318	6.82	0.83	-0.750			
0.4531	28999.72	3.5480	3.5479	-1.3407	6.82	0.83	-0.750			
0.4571	29256.22	3.5450	3.5452	-1.3511	6.83	0.84	-0.750			
0.4612	29518.37	3.5420	3.5420	-1.3696	6.84	0.85	-0.750			
0.4654	29784.63	3.5390	3.5389	-1.3804	6.84	0.85	-0.750			
0.4695	30048.96	3.5360	3.5361	-1.3864	6.85	0.86	-0.750			
0.4737	30318.51	3.5330	3.5330	-1.3984	6.86	0.87	-0.750			
0.4779	30586.66	3.5300	3.5300	-1.4006	6.86	0.87	-0.750			
0.4821	30855.18	3.5270	3.5272	-1.4062	6.87	0.88	-0.750			
0.4863	31125.54	3.5240	3.5239	-1.4102	6.88	0.89	-0.750			
0.4906	31397.02	3.5210	3.5210	-1.4187	6.90	0.91	-0.750			
0.4948	31669.72	3.5180	3.5181	-1.4348	6.91	0.92	-0.750			
0.4992	31948.13	3.5150	3.5149	-1.4461	6.92	0.93	-0.750			
0.5035	32224.09	3.5120	3.5120	-1.4642	6.92	0.93	-0.750			
0.5080	32509.09	3.5090	3.5091	-1.4643	6.93	0.94	-0.750			
0.5124	32793.35	3.5060	3.5059	-1.4713	6.95	0.96	-0.750			
0.5168	33076.59	3.5030	3.5030	-1.4690	6.96	0.97	-0.750			
0.5212	33357.39	3.5000	3.5000	-1.4680	6.97	0.98	-0.750			
0.5256	33639.46	3.4970	3.4969	-1.4683	6.98	0.99	-0.750			
0.5300	33919.56	3.4940	3.4940	-1.4705	6.99	1.00	-0.750			
0.5344	34203.36	3.4910	3.4909	-1.4758	7.00	1.01	-0.750			
0.5388	34485.88	3.4880	3.4880	-1.4866	7.01	1.02	-0.750			
0.5433	34769.90	3.4850	3.4850	-1.4931	7.03	1.04	-0.750			
0.5478	35058.41	3.4820	3.4819	-1.4923	7.04	1.05	-0.750			
0.5523	35348.78	3.4790	3.4788	-1.5055	7.05	1.06	-0.750			
0.5569	35638.82	3.4760	3.4762	-1.5061	7.07	1.08	-0.750			
0.5614	35928.72	3.4730	3.4729	-1.4968	7.08	1.09	-0.750			
0.5660	36221.73	3.4700	3.4701	-1.4888	7.10	1.11	-0.750			
0.5703	36500.71	3.4670	3.4671	-1.4834	7.11	1.12	-0.750			
0.5747	36782.83	3.4640	3.4640	-1.4744	7.12	1.13	-0.750			
0.5792	37065.90	3.4610	3.4609	-1.4799	7.13	1.14	-0.750			
0.5836	37352.33	3.4580	3.4580	-1.4600	7.15	1.16	-0.750			
0.5880	37634.39	3.4550	3.4552	-1.4500	7.16	1.17	-0.750			
0.5924	37911.08	3.4520	3.4520	-1.4371	7.18	1.19	-0.750			
0.5966	38183.91	3.4490	3.4490	-1.4128	7.20	1.21	-0.750			
0.6009	38454.63	3.4460	3.4458	-1.3965	7.21	1.22	-0.750			
0.6050	38718.40	3.4430	3.4430	-1.3796	7.22	1.23	-0.750			
0.6091	38980.29	3.4400	3.4400	-1.3567	7.24	1.25	-0.750			
0.6132	39245.10	3.4370	3.4371	-1.3527	7.25	1.26	-0.750			
0.6172	39499.32	3.4340	3.4340	-1.3382	7.26	1.27	-0.750			
0.6212	39754.65	3.4310	3.4309	-1.3180	7.28	1.29	-0.750			
0.6252	40010.34	3.4280	3.4280	-1.2952	7.30	1.31	-0.750			
0.6290	40258.71	3.4250	3.4250	-1.2735	7.31	1.32	-0.750			
0.6328	40499.77	3.4220	3.4222	-1.2475	7.33	1.34	-0.750			
0.6365	40738.84	3.4190	3.4189	-1.2205	7.35	1.36	-0.750			
0.6401	40966.49	3.4160	3.4159	-1.1865	7.36	1.37	-0.750			
0.6436	41189.93	3.4130	3.4131	-1.1612	7.38	1.39	-0.750			
0.6471	41412.80	3.4100	3.4100	-1.1489	7.39	1.40	-0.750			
0.6505	41632.31	3.4070	3.4068	-1.1204	7.40	1.41	-0.750			
0.6538	41844.71	3.4040	3.4041	-1.0912	7.42	1.43	-0.750			
0.6571	42051.82	3.4010	3.4013	-1.0655	7.43	1.44	-0.750			
0.6602	42255.06	3.3980	3.3979	-1.0501	7.44	1.45	-0.750			
0.6633	42454.31	3.3950	3.3949	-1.0207	7.46	1.47	-0.750			
0.6663	42645.58	3.3920	3.3919	-0.9857	7.47	1.48	-0.750			
0.6693	42834.54	3.3890	3.3890	-0.9681	7.49	1.50	-0.750			
0.6721	43017.47	3.3860	3.3860	-0.9401	7.50	1.51	-0.750			
0.6749	43193.87	3.3830	3.3829	-0.9098	7.51	1.52	-0.750			
0.6776	43363.80	3.3800	3.3800	-0.8835	7.53	1.54	-0.750			
0.6801	43528.69	3.3770	3.3770	-0.8589	7.54	1.55	-0.750			
0.6827	43694.62	3.3740	3.3742	-0.8458	7.55	1.56	-0.750			
0.6852	43855.70	3.3710	3.3709	-0.8231	7.56	1.57	-0.750			
0.6877	44011.02	3.3680	3.3680	-0.8031	7.58	1.59	-0.750			
0.6901	44164.63	3.3650	3.3651	-0.7824	7.59	1.60	-0.750			
0.6924	44312.83	3.3620	3.3619	-0.7615	7.60	1.61	-0.750			
0.6946	44456.95	3.3590	3.3592	-0.7389	7.61	1.62	-0.750			
0.6970	44605.02	3.3560	3.3558	-0.6954	7.62	1.63	-0.750			
0.6990	44735.77	3.3530	3.3528	-0.6464	7.64	1.65	-0.750			
0.7010	44861.22	3.3500	3.3500	-0.5836	7.65	1.66	-0.750			
0.7026	44968.63	3.3470	3.3476	-0.5303	7.66	1.67	-0.750			
0.7039	45050.35	3.3440	3.3452	-0.5102	7.67	1.68	-0.750			
0.7051	45125.65	3.3410	3.3398	-0.4904	7.68	1.69	-0.750			
0.7066	45220.00	3.3380	3.3374	-0.5075	7.69	1.70	-0.750			
0.7081	45320.15	3.3350	3.3352	-0.5419	7.70	1.71	-0.750			
0.7100	45436.82	3.3320	3.3323	-0.5843	7.71	1.72	-0.750			
0.7117	45550.83	3.3290	3.3290	-0.6033	7.72	1.73	-0.750			
0.7136	45671.49	3.3260	3.3259	-0.5901	7.73	1.74	-0.750			
0.7154	45785.41	3.3230	3.3230	-0.6065	7.74	1.75	-0.750			
