Ah_balance (normalized)	Ah_balance (mAh)	Voltage - fit (V)	Voltage -  interpolate (V)	dQ/dV (1/V)	Temperature (°C)	Temperature - diff (°C)	Current (C)	R_DC 0ms (mOhm)	R_DC 50ms (mOhm)	R_DC 50 ms PEC (mOhm)
0.1764	11289.81	4.0820	4.0820	0.7825	7.38	1.39	0.750			
0.1787	11438.71	4.0790	4.0791	0.7728	7.38	1.39	0.750			
0.1810	11584.76	4.0760	4.0760	0.7704	7.37	1.38	0.750			
0.1833	11733.13	4.0730	4.0729	0.7740	7.37	1.38	0.750			
0.1857	11882.05	4.0700	4.0699	0.7720	7.37	1.38	0.750			
0.1881	12035.21	4.0670	4.0669	0.7634	7.36	1.37	0.750			
0.1903	12177.85	4.0640	4.0642	0.7645	7.36	1.37	0.750			
0.1925	12322.23	4.0610	4.0611	0.7710	7.35	1.36	0.750			
0.1949	12470.59	4.0580	4.0578	0.7743	7.35	1.36	0.750			
0.1972	12618.44	4.0550	4.0551	0.7832	7.35	1.36	0.750			
0.1996	12772.49	4.0520	4.0521	0.7812	7.34	1.35	0.750			
0.2019	12923.35	4.0490	4.0491	0.7910	7.33	1.34	0.750			
0.2044	13079.12	4.0460	4.0460	0.8001	7.33	1.34	0.750			
0.2067	13227.23	4.0430	4.0430	0.7902	7.32	1.33	0.750			
0.2090	13378.45	4.0400	4.0400	0.7920	7.32	1.33	0.750			
0.2115	13534.10	4.0370	4.0370	0.7921	7.31	1.32	0.750			
0.2138	13684.54	4.0340	4.0340	0.8000	7.31	1.32	0.750			
0.2162	13839.82	4.0310	4.0311	0.8078	7.30	1.31	0.750			
0.2187	13993.87	4.0280	4.0280	0.8043	7.29	1.30	0.750			
0.2211	14148.94	4.0250	4.0249	0.8132	7.29	1.30	0.750			
0.2236	14307.52	4.0220	4.0222	0.8174	7.29	1.30	0.750			
0.2260	14465.26	4.0190	4.0190	0.8237	7.28	1.29	0.750			
0.2285	14623.81	4.0160	4.0159	0.8268	7.28	1.29	0.750			
0.2309	14780.12	4.0130	4.0131	0.8283	7.27	1.28	0.750			
0.2334	14940.76	4.0100	4.0099	0.8332	7.27	1.28	0.750			
0.2360	15101.20	4.0070	4.0070	0.8414	7.26	1.27	0.750			
0.2385	15263.30	4.0040	4.0040	0.8313	7.25	1.26	0.750			
0.2410	15421.37	4.0010	4.0011	0.8393	7.24	1.25	0.750			
0.2435	15581.58	3.9980	3.9981	0.8442	7.24	1.25	0.750			
0.2460	15744.67	3.9950	3.9946	0.8510	7.23	1.24	0.750			
0.2486	15909.63	3.9920	3.9921	0.8473	7.23	1.24	0.750			
0.2512	16073.70	3.9890	3.9892	0.8553	7.22	1.23	0.750			
0.2537	16239.79	3.9860	3.9860	0.8620	7.22	1.23	0.750			
0.2563	16403.69	3.9830	3.9831	0.8581	7.21	1.22	0.750			
0.2588	16566.05	3.9800	3.9799	0.8636	7.21	1.22	0.750			
0.2615	16735.82	3.9770	3.9770	0.8686	7.20	1.21	0.750			
0.2642	16905.87	3.9740	3.9740	0.8761	7.20	1.21	0.750			
0.2668	17075.47	3.9710	3.9711	0.8767	7.20	1.21	0.750			
0.2694	17241.65	3.9680	3.9681	0.8774	7.19	1.20	0.750			
0.2720	17410.25	3.9650	3.9650	0.8821	7.19	1.20	0.750			
0.2747	17578.08	3.9620	3.9620	0.8788	7.18	1.19	0.750			
0.2773	17746.73	3.9590	3.9590	0.8875	7.17	1.18	0.750			
0.2800	17919.81	3.9560	3.9561	0.9017	7.16	1.17	0.750			
0.2827	18090.64	3.9530	3.9527	0.9104	7.15	1.16	0.750			
0.2855	18270.67	3.9500	3.9501	0.9075	7.14	1.15	0.750			
0.2882	18444.15	3.9470	3.9469	0.9103	7.14	1.15	0.750			
0.2909	18620.37	3.9440	3.9441	0.9195	7.13	1.14	0.750			
0.2937	18797.74	3.9410	3.9411	0.9242	7.12	1.13	0.750			
0.2964	18971.58	3.9380	3.9380	0.9265	7.12	1.13	0.750			
0.2992	19149.29	3.9350	3.9350	0.9379	7.11	1.12	0.750			
0.3020	19329.69	3.9320	3.9320	0.9465	7.10	1.11	0.750			
0.3049	19515.67	3.9290	3.9289	0.9643	7.10	1.11	0.750			
0.3079	19703.07	3.9260	3.9259	0.9650	7.09	1.10	0.750			
0.3108	19892.38	3.9230	3.9231	0.9620	7.08	1.09	0.750			
0.3137	20073.63	3.9200	3.9199	0.9799	7.07	1.08	0.750			
0.3165	20258.94	3.9170	3.9172	0.9907	7.06	1.07	0.750			
0.3195	20450.55	3.9140	3.9137	0.9958	7.05	1.06	0.750			
0.3226	20643.74	3.9110	3.9110	1.0081	7.05	1.06	0.750			
0.3256	20839.74	3.9080	3.9083	1.0214	7.04	1.05	0.750			
0.3288	21040.46	3.9050	3.9051	1.0273	7.04	1.05	0.750			
0.3319	21240.83	3.9020	3.9018	1.0392	7.03	1.04	0.750			
0.3349	21435.58	3.8990	3.8990	1.0312	7.02	1.03	0.750			
0.3380	21631.35	3.8960	3.8961	1.0420	7.01	1.02	0.750			
0.3412	21834.49	3.8930	3.8930	1.0550	7.00	1.01	0.750			
0.3443	22037.82	3.8900	3.8900	1.0660	6.99	1.00	0.750			
0.3476	22245.81	3.8870	3.8869	1.0589	6.98	0.99	0.750			
0.3508	22448.86	3.8840	3.8841	1.0901	6.97	0.98	0.750			
0.3540	22656.64	3.8810	3.8811	1.1058	6.96	0.97	0.750			
0.3574	22873.05	3.8780	3.8776	1.1182	6.95	0.96	0.750			
0.3608	23088.62	3.8750	3.8752	1.1330	6.94	0.95	0.750			
0.3642	23309.78	3.8720	3.8720	1.1470	6.93	0.94	0.750			
0.3677	23531.20	3.8690	3.8692	1.1574	6.92	0.93	0.750			
0.3712	23755.94	3.8660	3.8659	1.1485	6.91	0.92	0.750			
0.3746	23974.58	3.8630	3.8631	1.1680	6.90	0.91	0.750			
0.3781	24198.43	3.8600	3.8601	1.1854	6.89	0.90	0.750			
0.3817	24430.69	3.8570	3.8569	1.2043	6.87	0.88	0.750			
0.3854	24664.03	3.8540	3.8540	1.2226	6.86	0.87	0.750			
0.3891	24902.02	3.8510	3.8511	1.2439	6.85	0.86	0.750			
0.3928	25141.00	3.8480	3.8482	1.2701	6.84	0.85	0.750			
0.3966	25382.11	3.8450	3.8451	1.3028	6.83	0.84	0.750			
0.4006	25635.85	3.8420	3.8419	1.3470	6.81	0.82	0.750			
0.4047	25900.48	3.8390	3.8387	1.3760	6.80	0.81	0.750	0.383	0.876	
0.4090	26173.80	3.8360	3.8361	1.4213	6.79	0.80	0.750			
0.4133	26448.12	3.8330	3.8331	1.4384	6.77	0.78	0.750			
0.4177	26734.40	3.8300	3.8299	1.4386	6.76	0.77	0.750			
0.4220	27005.54	3.8270	3.8270	1.4503	6.74	0.75	0.750			
0.4263	27283.43	3.8240	3.8241	1.4466	6.73	0.74	0.750			
0.4307	27563.80	3.8210	3.8211	1.4784	6.71	0.72	0.750			
0.4351	27846.80	3.8180	3.8182	1.5199	6.69	0.70	0.750			
0.4397	28138.57	3.8150	3.8148	1.5583	6.67	0.68	0.750			
0.4444	28443.17	3.8120	3.8121	1.5904	6.65	0.66	0.750			
0.4493	28753.80	3.8090	3.8092	1.6185	6.64	0.65	0.750			
0.4542	29071.82	3.8060	3.8061	1.6602	6.62	0.63	0.750			
0.4592	29387.94	3.8030	3.8031	1.6442	6.61	0.62	0.750			
0.4641	29701.36	3.8000	3.8005	1.6704	6.59	0.60	0.750			
0.4691	30020.70	3.7970	3.7975	1.7254	6.57	0.58	0.750			
0.4743	30358.25	3.7940	3.7943	1.7434	6.55	0.56	0.750			
0.4796	30696.95	3.7910	3.7912	1.7897	6.53	0.54	0.750			
0.4850	31039.45	3.7880	3.7880	1.8224	6.50	0.51	0.750			
0.4905	31394.18	3.7850	3.7852	1.8429	6.49	0.50	0.750			
0.4961	31751.64	3.7820	3.7820	1.8543	6.47	0.48	0.750			
0.5018	32117.74	3.7790	3.7787	1.8795	6.45	0.46	0.750			
0.5074	32473.49	3.7760	3.7759	1.8616	6.43	0.44	0.750			
0.5130	32832.13	3.7730	3.7730	1.8884	6.41	0.42	0.750			
0.5187	33198.50	3.7700	3.7702	1.9091	6.39	0.40	0.750			
0.5244	33564.43	3.7670	3.7668	1.9099	6.37	0.38	0.750			
0.5303	33942.04	3.7640	3.7636	1.9235	6.35	0.36	0.750			
0.5361	34310.26	3.7610	3.7612	1.9425	6.33	0.34	0.750			
0.5418	34676.65	3.7580	3.7581	1.9637	6.30	0.31	0.750			
0.5478	35058.60	3.7550	3.7550	2.0434	6.28	0.29	0.750			
0.5539	35451.36	3.7520	3.7522	2.0516	6.26	0.27	0.750			
0.5602	35850.22	3.7490	3.7492	2.0665	6.24	0.25	0.750			
0.5662	36237.26	3.7460	3.7458	2.0850	6.22	0.23	0.750			
0.5725	36639.95	3.7430	3.7432	2.1464	6.20	0.21	0.750			
0.5794	37081.11	3.7400	3.7399	2.2805	6.18	0.19	0.750			
0.5862	37517.85	3.7370	3.7369	2.2837	6.16	0.17	0.750			
0.5932	37967.89	3.7340	3.7343	2.3238	6.14	0.15	0.750			
0.6002	38412.51	3.7310	3.7310	2.3627	6.12	0.13	0.750			
0.6073	38865.96	3.7280	3.7280	2.4064	6.09	0.10	0.750			
0.6149	39351.81	3.7250	3.7250	2.4538	6.08	0.09	0.750			
0.6223	39829.81	3.7220	3.7219	2.5917	6.07	0.08	0.750			
0.6301	40326.17	3.7190	3.7186	2.4276	6.05	0.06	0.750			
0.6377	40812.73	3.7160	3.7161	2.3384	6.04	0.05	0.750			
0.6444	41239.04	3.7130	3.7128	2.0883	6.02	0.03	0.750			
0.6499	41593.81	3.7100	3.7099	1.7651	6.01	0.02	0.750			
0.6548	41906.55	3.7070	3.7073	1.5564	6.00	0.01	0.750			
0.6592	42186.35	3.7040	3.7042	1.4001	5.99	-0.00	0.750			
0.6629	42426.43	3.7010	3.7011	1.2419	5.97	-0.02	0.750			
0.6664	42648.46	3.6980	3.6982	1.1408	5.96	-0.03	0.750			
0.6697	42861.43	3.6950	3.6948	1.0744	5.95	-0.04	0.750			
0.6727	43054.45	3.6920	3.6920	0.9957	5.95	-0.04	0.750			
0.6756	43239.13	3.6890	3.6891	0.9538	5.95	-0.04	0.750			
0.6783	43413.85	3.6860	3.6860	0.9244	5.95	-0.04	0.750			
0.6810	43586.96	3.6830	3.6830	0.8975	5.95	-0.04	0.750			
0.6837	43756.30	3.6800	3.6800	0.8657	5.95	-0.04	0.750			
0.6863	43920.92	3.6770	3.6770	0.8394	5.96	-0.03	0.750			
0.6888	44084.76	3.6740	3.6741	0.8009	5.96	-0.03	0.750			
0.6912	44234.13	3.6710	3.6711	0.7691	5.96	-0.03	0.750			
0.6934	44376.11	3.6680	3.6681	0.7286	5.97	-0.02	0.750			
0.6955	44510.92	3.6650	3.6642	0.6930	5.97	-0.02	0.750			
0.6975	44639.69	3.6620	3.6622	0.6601	5.97	-0.02	0.750			
0.6995	44765.38	3.6590	3.6591	0.6312	5.98	-0.01	0.750			
0.7013	44886.07	3.6560	3.6560	0.6037	5.98	-0.01	0.750			
0.7031	44997.54	3.6530	3.6530	0.5590	5.98	-0.01	0.750			
0.7047	45101.63	3.6500	3.6501	0.5270	5.98	-0.01	0.750			
0.7062	45199.60	3.6470	3.6470	0.4965	5.99	-0.00	0.750			
0.7076	45289.58	3.6440	3.6440	0.4762	5.99	-0.00	0.750			
0.7090	45378.57	3.6410	3.6410	0.4508	5.99	0.00	0.750			
0.7104	45464.07	3.6380	3.6378	0.4238	5.99	0.00	0.750			
0.7117	45546.99	3.6350	3.6349	0.3908	6.00	0.01	0.750			
0.7128	45621.00	3.6320	3.6325	0.3491	6.00	0.01	0.750			
0.7138	45684.28	3.6290	3.6290	0.3069	6.00	0.01	0.750			
0.7147	45738.51	3.6260	3.6256	0.2561	6.00	0.01	0.750			
0.7153	45776.55	3.6230	3.6231	0.1929	6.00	0.01	0.750			
0.7158	45810.22	3.6200	3.6202	0.1519	6.00	0.01	0.750			
0.7162	45836.62	3.6170	3.6174	0.1089	6.00	0.01	0.750			
0.7165	45854.90	3.6140	3.6145	0.0600	6.00	0.01	0.750			
0.7166	45861.61	3.6110	3.6126	0.0098	6.00	0.01	0.750			
