Ah_balance (normalized)	Ah_balance (mAh)	Voltage - fit (V)	Voltage -  interpolate (V)	dQ/dV (1/V)	Temperature (°C)	Temperature - diff (°C)	Current (C)	R_DC 0ms (mOhm)	R_DC 50ms (mOhm)	R_DC 50 ms PEC (mOhm)
0.1800	11520.77	4.0810	4.0811	0.7956	7.77	1.80	0.750			
0.1824	11672.21	4.0780	4.0780	0.7855	7.76	1.79	0.750			
0.1847	11822.48	4.0750	4.0750	0.7792	7.75	1.78	0.750			
0.1870	11970.18	4.0720	4.0721	0.7780	7.74	1.77	0.750			
0.1893	12118.21	4.0690	4.0690	0.7806	7.74	1.77	0.750			
0.1917	12268.95	4.0660	4.0658	0.7820	7.73	1.76	0.750			
0.1940	12418.23	4.0630	4.0630	0.7849	7.72	1.75	0.750			
0.1964	12570.39	4.0600	4.0600	0.7860	7.71	1.74	0.750			
0.1988	12721.13	4.0570	4.0571	0.7954	7.71	1.74	0.750			
0.2012	12874.87	4.0540	4.0539	0.7952	7.70	1.73	0.750			
0.2036	13027.73	4.0510	4.0509	0.7956	7.69	1.72	0.750			
0.2059	13180.44	4.0480	4.0480	0.7986	7.68	1.71	0.750			
0.2084	13335.87	4.0450	4.0450	0.8009	7.68	1.71	0.750			
0.2108	13488.81	4.0420	4.0420	0.8051	7.67	1.70	0.750			
0.2132	13644.10	4.0390	4.0390	0.8095	7.66	1.69	0.750			
0.2156	13797.39	4.0360	4.0360	0.8070	7.65	1.68	0.750			
0.2180	13955.16	4.0330	4.0330	0.8135	7.65	1.68	0.750			
0.2205	14113.89	4.0300	4.0300	0.8087	7.64	1.67	0.750			
0.2229	14267.27	4.0270	4.0270	0.8138	7.63	1.66	0.750			
0.2254	14423.46	4.0240	4.0240	0.8201	7.62	1.65	0.750			
0.2278	14579.80	4.0210	4.0210	0.8234	7.61	1.64	0.750			
0.2303	14738.27	4.0180	4.0182	0.8279	7.61	1.64	0.750			
0.2328	14898.17	4.0150	4.0151	0.8352	7.60	1.63	0.750			
0.2353	15059.73	4.0120	4.0120	0.8409	7.59	1.62	0.750			
0.2378	15221.64	4.0090	4.0089	0.8449	7.58	1.61	0.750			
0.2404	15383.53	4.0060	4.0061	0.8448	7.57	1.60	0.750			
0.2429	15546.04	4.0030	4.0030	0.8470	7.56	1.59	0.750			
0.2455	15710.06	4.0000	3.9999	0.8488	7.55	1.58	0.750			
0.2480	15872.65	3.9970	3.9971	0.8553	7.54	1.57	0.750			
0.2506	16035.97	3.9940	3.9939	0.8584	7.53	1.56	0.750			
0.2531	16200.81	3.9910	3.9910	0.8616	7.52	1.55	0.750			
0.2557	16367.55	3.9880	3.9880	0.8665	7.52	1.55	0.750			
0.2584	16534.65	3.9850	3.9851	0.8702	7.51	1.54	0.750			
0.2610	16702.58	3.9820	3.9819	0.8720	7.50	1.53	0.750			
0.2636	16869.58	3.9790	3.9791	0.8753	7.50	1.53	0.750			
0.2662	17036.70	3.9760	3.9758	0.8748	7.49	1.52	0.750			
0.2688	17205.88	3.9730	3.9731	0.8765	7.48	1.51	0.750			
0.2715	17374.00	3.9700	3.9700	0.8805	7.47	1.50	0.750			
0.2741	17542.68	3.9670	3.9670	0.8869	7.46	1.49	0.750			
0.2768	17713.37	3.9640	3.9640	0.8920	7.45	1.48	0.750			
0.2794	17883.72	3.9610	3.9609	0.8975	7.44	1.47	0.750			
0.2821	18057.57	3.9580	3.9581	0.8996	7.43	1.46	0.750			
0.2849	18231.50	3.9550	3.9550	0.9081	7.42	1.45	0.750			
0.2876	18406.03	3.9520	3.9520	0.9151	7.41	1.44	0.750			
0.2903	18580.25	3.9490	3.9491	0.9183	7.40	1.43	0.750			
0.2931	18757.15	3.9460	3.9460	0.9276	7.38	1.41	0.750			
0.2959	18936.98	3.9430	3.9430	0.9256	7.37	1.40	0.750			
0.2987	19114.96	3.9400	3.9400	0.9289	7.36	1.39	0.750			
0.3015	19293.00	3.9370	3.9372	0.9408	7.34	1.37	0.750			
0.3042	19471.73	3.9340	3.9334	0.9497	7.33	1.36	0.750			
0.3071	19655.06	3.9310	3.9311	0.9521	7.32	1.35	0.750			
0.3100	19839.63	3.9280	3.9280	0.9628	7.31	1.34	0.750			
0.3129	20026.93	3.9250	3.9250	0.9744	7.30	1.33	0.750			
0.3158	20213.62	3.9220	3.9221	0.9758	7.29	1.32	0.750			
0.3188	20405.26	3.9190	3.9189	0.9769	7.28	1.31	0.750			
0.3217	20590.41	3.9160	3.9161	0.9840	7.27	1.30	0.750			
0.3247	20778.83	3.9130	3.9131	0.9955	7.26	1.29	0.750			
0.3277	20972.58	3.9100	3.9102	1.0088	7.25	1.28	0.750			
0.3308	21169.77	3.9070	3.9070	1.0089	7.24	1.27	0.750			
0.3338	21362.14	3.9040	3.9041	1.0263	7.23	1.26	0.750			
0.3369	21560.18	3.9010	3.9010	1.0409	7.22	1.25	0.750			
0.3400	21763.16	3.8980	3.8982	1.0558	7.21	1.24	0.750			
0.3432	21965.73	3.8950	3.8949	1.0516	7.19	1.22	0.750			
0.3464	22168.04	3.8920	3.8921	1.0668	7.18	1.21	0.750			
0.3496	22373.23	3.8890	3.8891	1.0834	7.17	1.20	0.750			
0.3529	22582.71	3.8860	3.8860	1.0979	7.16	1.19	0.750			
0.3562	22794.78	3.8830	3.8831	1.0943	7.14	1.17	0.750			
0.3594	23003.74	3.8800	3.8800	1.1222	7.12	1.15	0.750			
0.3628	23220.97	3.8770	3.8772	1.1497	7.10	1.13	0.750			
0.3664	23448.52	3.8740	3.8736	1.1609	7.08	1.11	0.750			
0.3698	23669.91	3.8710	3.8712	1.1835	7.07	1.10	0.750			
0.3735	23904.43	3.8680	3.8681	1.1788	7.06	1.09	0.750			
0.3772	24141.96	3.8650	3.8649	1.1533	7.05	1.08	0.750			
0.3803	24342.20	3.8620	3.8625	1.1495	7.04	1.07	0.750			
0.3836	24550.03	3.8590	3.8598	1.1828	7.02	1.05	0.750			
0.3871	24773.49	3.8560	3.8552	1.2207	7.01	1.04	0.750			
0.3908	25014.17	3.8530	3.8540	1.2686	6.99	1.02	0.750			
0.3948	25265.00	3.8500	3.8507	1.3072	6.98	1.01	0.750			
0.3990	25537.35	3.8470	3.8472	1.3589	6.96	0.99	0.750			
0.4032	25807.07	3.8440	3.8438	1.3544	6.94	0.97	0.750			
0.4071	26053.07	3.8410	3.8410	1.3579	6.93	0.96	0.750			
0.4113	26321.26	3.8380	3.8380	1.3997	6.91	0.94	0.750	0.394	0.924	
0.4155	26594.08	3.8350	3.8349	1.4231	6.89	0.92	0.750			
0.4200	26877.21	3.8320	3.8321	1.4491	6.86	0.89	0.750			
0.4243	27156.14	3.8290	3.8290	1.4731	6.84	0.87	0.750			
0.4289	27449.37	3.8260	3.8258	1.4429	6.82	0.85	0.750			
0.4332	27726.00	3.8230	3.8231	1.4095	6.80	0.83	0.750			
0.4374	27992.13	3.8200	3.8201	1.4079	6.79	0.82	0.750			
0.4414	28250.68	3.8170	3.8173	1.4318	6.77	0.80	0.750			
0.4456	28515.96	3.8140	3.8139	1.4556	6.75	0.78	0.750			
0.4499	28792.42	3.8110	3.8109	1.5543	6.73	0.76	0.750			
0.4546	29092.87	3.8080	3.8078	1.6012	6.71	0.74	0.750			
0.4598	29425.22	3.8050	3.8051	1.6815	6.67	0.70	0.750			
0.4648	29747.39	3.8020	3.8023	1.7255	6.64	0.67	0.750			
0.4702	30089.82	3.7990	3.7991	1.7703	6.62	0.65	0.750			
0.4755	30434.23	3.7960	3.7962	1.8147	6.59	0.62	0.750			
0.4811	30788.24	3.7930	3.7930	1.8382	6.57	0.60	0.750			
0.4868	31157.59	3.7900	3.7899	1.8523	6.55	0.58	0.750			
0.4923	31506.58	3.7870	3.7871	1.8715	6.53	0.56	0.750			
0.4979	31865.64	3.7840	3.7842	1.8812	6.50	0.53	0.750			
0.5036	32230.18	3.7810	3.7812	1.9101	6.46	0.49	0.750			
0.5095	32608.26	3.7780	3.7780	1.9521	6.44	0.47	0.750			
0.5154	32988.53	3.7750	3.7749	1.9746	6.41	0.44	0.750			
0.5213	33364.10	3.7720	3.7721	1.9616	6.39	0.42	0.750			
0.5274	33751.76	3.7690	3.7690	1.9885	6.36	0.39	0.750			
0.5334	34135.85	3.7660	3.7659	2.0225	6.33	0.36	0.750			
0.5395	34526.46	3.7630	3.7628	2.0648	6.30	0.33	0.750			
0.5456	34919.66	3.7600	3.7602	2.0837	6.27	0.30	0.750			
0.5520	35326.35	3.7570	3.7572	2.0513	6.24	0.27	0.750			
0.5581	35718.29	3.7540	3.7540	2.1281	6.21	0.24	0.750			
0.5645	36128.62	3.7510	3.7507	2.1473	6.19	0.22	0.750			
0.5711	36547.85	3.7480	3.7482	2.2245	6.16	0.19	0.750			
0.5778	36980.16	3.7450	3.7449	2.2406	6.14	0.17	0.750			
0.5845	37410.20	3.7420	3.7418	2.2854	6.11	0.14	0.750			
0.5916	37863.59	3.7390	3.7388	2.3791	6.09	0.12	0.750			
0.5987	38315.31	3.7360	3.7361	2.3969	6.07	0.10	0.750			
0.6061	38791.81	3.7330	3.7330	2.5087	6.05	0.08	0.750			
0.6137	39275.33	3.7300	3.7300	2.5065	6.03	0.06	0.750			
0.6213	39765.01	3.7270	3.7271	2.5181	6.01	0.04	0.750			
0.6290	40253.54	3.7240	3.7238	2.4888	5.99	0.02	0.750			
0.6364	40729.36	3.7210	3.7210	2.4254	5.98	0.01	0.750			
0.6438	41201.20	3.7180	3.7179	2.3691	5.97	-0.00	0.750			
0.6506	41638.08	3.7150	3.7148	2.1604	5.96	-0.01	0.750			
0.6567	42029.50	3.7120	3.7119	1.9560	5.95	-0.02	0.750			
0.6623	42386.52	3.7090	3.7088	1.7778	5.94	-0.03	0.750			
0.6673	42710.21	3.7060	3.7061	1.5942	5.93	-0.04	0.750			
0.6717	42990.53	3.7030	3.7031	1.4122	5.93	-0.04	0.750			
0.6756	43240.57	3.7000	3.7002	1.2612	5.93	-0.04	0.750			
0.6791	43462.16	3.6970	3.6966	1.1425	5.93	-0.04	0.750			
0.6823	43665.42	3.6940	3.6940	1.0455	5.93	-0.04	0.750			
0.6852	43854.14	3.6910	3.6910	0.9875	5.93	-0.04	0.750			
0.6880	44035.11	3.6880	3.6881	0.9465	5.93	-0.04	0.750			
0.6908	44210.89	3.6850	3.6849	0.9054	5.93	-0.04	0.750			
0.6935	44382.00	3.6820	3.6820	0.8706	5.93	-0.04	0.750			
0.6961	44547.25	3.6790	3.6789	0.8386	5.93	-0.04	0.750			
0.6985	44705.20	3.6760	3.6761	0.8108	5.94	-0.03	0.750			
0.7009	44859.25	3.6730	3.6730	0.7794	5.94	-0.03	0.750			
0.7032	45005.32	3.6700	3.6699	0.7434	5.94	-0.03	0.750			
0.7054	45145.10	3.6670	3.6671	0.7086	5.94	-0.03	0.750			
0.7075	45277.78	3.6640	3.6641	0.6750	5.95	-0.02	0.750			
0.7095	45404.93	3.6610	3.6609	0.6383	5.95	-0.02	0.750			
0.7113	45524.79	3.6580	3.6579	0.5948	5.96	-0.01	0.750			
0.7130	45633.99	3.6550	3.6550	0.5596	5.96	-0.01	0.750			
0.7146	45737.46	3.6520	3.6520	0.5241	5.97	-0.00	0.750			
0.7162	45835.24	3.6490	3.6488	0.4879	5.97	-0.00	0.750			
0.7176	45924.95	3.6460	3.6462	0.4512	5.97	0.00	0.750			
0.7189	46007.65	3.6430	3.6431	0.4156	5.98	0.01	0.750			
0.7201	46084.40	3.6400	3.6400	0.3829	5.98	0.01	0.750			
0.7212	46155.13	3.6370	3.6369	0.3490	5.98	0.01	0.750			
0.7222	46217.74	3.6340	3.6340	0.3125	5.98	0.01	0.750			
0.7230	46274.45	3.6310	3.6310	0.2772	5.99	0.02	0.750			
0.7238	46326.07	3.6280	3.6281	0.2430	5.99	0.02	0.750			
0.7245	46369.19	3.6250	3.6249	0.2049	5.99	0.02	0.750			
0.7251	46405.16	3.6220	3.6220	0.1669	5.99	0.02	0.750			
0.7255	46433.52	3.6190	3.6191	0.1277	5.99	0.02	0.750			
0.7258	46453.73	3.6160	3.6165	0.0886	5.99	0.02	0.750			
0.7261	46468.01	3.6130	3.6138	0.0475	5.99	0.02	0.750			
0.7261	46473.13	3.6100	3.6115	0.0059	5.99	0.02	0.750			
