Ah_balance (normalized)	Ah_balance (mAh)	Voltage - fit (V)	Voltage -  interpolate (V)	dQ/dV (1/V)	Temperature (°C)	Temperature - diff (°C)	Current (C)	R_DC 0ms (mOhm)	R_DC 50ms (mOhm)	R_DC 50 ms PEC (mOhm)
0.1804	11545.73	4.0800	4.0800	0.7449	7.63	1.65	0.750			
0.1827	11693.37	4.0770	4.0770	0.7702	7.63	1.65	0.750			
0.1850	11841.83	4.0740	4.0740	0.7719	7.63	1.65	0.750			
0.1873	11989.58	4.0710	4.0711	0.7731	7.62	1.64	0.750			
0.1897	12138.44	4.0680	4.0680	0.7781	7.62	1.64	0.750			
0.1920	12286.26	4.0650	4.0650	0.7819	7.61	1.63	0.750			
0.1943	12438.00	4.0620	4.0618	0.7847	7.61	1.63	0.750			
0.1967	12589.12	4.0590	4.0590	0.7896	7.61	1.63	0.750			
0.1991	12743.87	4.0560	4.0560	0.7874	7.60	1.62	0.750			
0.2015	12894.81	4.0530	4.0531	0.7927	7.60	1.62	0.750			
0.2038	13045.53	4.0500	4.0500	0.7967	7.60	1.62	0.750			
0.2062	13197.46	4.0470	4.0470	0.7959	7.59	1.61	0.750			
0.2086	13351.05	4.0440	4.0441	0.7985	7.59	1.61	0.750			
0.2110	13506.82	4.0410	4.0410	0.8032	7.58	1.60	0.750			
0.2134	13659.85	4.0380	4.0381	0.8047	7.57	1.59	0.750			
0.2159	13815.76	4.0350	4.0350	0.8124	7.56	1.58	0.750			
0.2183	13969.05	4.0320	4.0320	0.8140	7.55	1.57	0.750			
0.2207	14126.56	4.0290	4.0290	0.8172	7.55	1.57	0.750			
0.2232	14287.56	4.0260	4.0260	0.8160	7.54	1.56	0.750			
0.2257	14443.22	4.0230	4.0231	0.8167	7.54	1.56	0.750			
0.2281	14600.12	4.0200	4.0201	0.8181	7.54	1.56	0.750			
0.2305	14754.74	4.0170	4.0170	0.8249	7.53	1.55	0.750			
0.2330	14911.24	4.0140	4.0140	0.8282	7.53	1.55	0.750			
0.2355	15072.88	4.0110	4.0110	0.8291	7.52	1.54	0.750			
0.2381	15235.45	4.0080	4.0081	0.8386	7.52	1.54	0.750			
0.2406	15396.45	4.0050	4.0051	0.8434	7.52	1.54	0.750			
0.2431	15556.98	4.0020	4.0021	0.8461	7.51	1.53	0.750			
0.2456	15719.70	3.9990	3.9990	0.8462	7.51	1.53	0.750			
0.2482	15883.38	3.9960	3.9960	0.8422	7.50	1.52	0.750			
0.2507	16045.94	3.9930	3.9930	0.8530	7.50	1.52	0.750			
0.2533	16210.31	3.9900	3.9901	0.8565	7.49	1.51	0.750			
0.2559	16374.54	3.9870	3.9870	0.8563	7.48	1.50	0.750			
0.2584	16538.80	3.9840	3.9841	0.8550	7.47	1.49	0.750			
0.2610	16703.28	3.9810	3.9810	0.8547	7.46	1.48	0.750			
0.2636	16868.14	3.9780	3.9781	0.8662	7.45	1.47	0.750			
0.2662	17035.00	3.9750	3.9750	0.8737	7.44	1.46	0.750			
0.2688	17201.02	3.9720	3.9718	0.8742	7.43	1.45	0.750			
0.2714	17371.39	3.9690	3.9691	0.8825	7.43	1.45	0.750			
0.2741	17542.27	3.9660	3.9660	0.8854	7.42	1.44	0.750			
0.2768	17712.57	3.9630	3.9630	0.8928	7.42	1.44	0.750			
0.2794	17884.10	3.9600	3.9600	0.8967	7.41	1.43	0.750			
0.2821	18055.47	3.9570	3.9568	0.8963	7.41	1.43	0.750			
0.2848	18228.71	3.9540	3.9541	0.9000	7.40	1.42	0.750			
0.2875	18401.32	3.9510	3.9510	0.9112	7.40	1.42	0.750			
0.2903	18578.66	3.9480	3.9480	0.9160	7.39	1.41	0.750			
0.2930	18752.40	3.9450	3.9449	0.9202	7.38	1.40	0.750			
0.2958	18930.50	3.9420	3.9420	0.9247	7.38	1.40	0.750			
0.2986	19111.58	3.9390	3.9391	0.9223	7.37	1.39	0.750			
0.3014	19286.73	3.9360	3.9360	0.9312	7.36	1.38	0.750			
0.3041	19464.77	3.9330	3.9332	0.9360	7.36	1.38	0.750			
0.3069	19643.31	3.9300	3.9297	0.9436	7.35	1.37	0.750			
0.3098	19827.10	3.9270	3.9271	0.9503	7.34	1.36	0.750			
0.3126	20008.24	3.9240	3.9241	0.9635	7.33	1.35	0.750			
0.3156	20197.12	3.9210	3.9210	0.9798	7.32	1.34	0.750			
0.3185	20385.48	3.9180	3.9180	0.9818	7.31	1.33	0.750			
0.3215	20575.22	3.9150	3.9151	0.9812	7.30	1.32	0.750			
0.3244	20764.12	3.9120	3.9120	0.9921	7.29	1.31	0.750			
0.3274	20954.77	3.9090	3.9091	1.0012	7.29	1.31	0.750			
0.3304	21147.15	3.9060	3.9060	1.0154	7.28	1.30	0.750			
0.3335	21341.53	3.9030	3.9030	1.0162	7.27	1.29	0.750			
0.3365	21538.33	3.9000	3.9000	1.0341	7.26	1.28	0.750			
0.3397	21738.10	3.8970	3.8971	1.0521	7.25	1.27	0.750			
0.3429	21943.26	3.8940	3.8941	1.0685	7.24	1.26	0.750			
0.3461	22149.45	3.8910	3.8910	1.0712	7.23	1.25	0.750			
0.3493	22355.82	3.8880	3.8880	1.0847	7.22	1.24	0.750			
0.3526	22565.44	3.8850	3.8851	1.0971	7.20	1.22	0.750			
0.3559	22778.04	3.8820	3.8819	1.1146	7.19	1.21	0.750			
0.3592	22991.57	3.8790	3.8790	1.1132	7.18	1.20	0.750			
0.3626	23204.10	3.8760	3.8761	1.1259	7.17	1.19	0.750			
0.3660	23422.16	3.8730	3.8731	1.1388	7.16	1.18	0.750			
0.3694	23643.40	3.8700	3.8698	1.1520	7.15	1.17	0.750			
0.3729	23863.16	3.8670	3.8670	1.1672	7.14	1.16	0.750			
0.3764	24088.57	3.8640	3.8641	1.1828	7.13	1.15	0.750			
0.3799	24316.40	3.8610	3.8610	1.2072	7.12	1.14	0.750			
0.3836	24552.81	3.8580	3.8580	1.2144	7.11	1.13	0.750			
0.3873	24784.83	3.8550	3.8550	1.2309	7.09	1.11	0.750			
0.3910	25024.04	3.8520	3.8521	1.2546	7.08	1.10	0.750			
0.3948	25267.73	3.8490	3.8486	1.2590	7.07	1.09	0.750			
0.3987	25514.10	3.8460	3.8460	1.2610	7.05	1.07	0.750			
0.4023	25750.31	3.8430	3.8431	1.3062	7.03	1.05	0.750			
0.4062	25998.75	3.8400	3.8400	1.3418	7.01	1.03	0.750			
0.4103	26259.11	3.8370	3.8361	1.3760	7.00	1.02	0.750	0.380	0.895	
0.4145	26527.87	3.8340	3.8343	1.4269	6.99	1.01	0.750			
0.4189	26811.63	3.8310	3.8310	1.4538	6.97	0.99	0.750			
0.4235	27101.12	3.8280	3.8279	1.4796	6.96	0.98	0.750			
0.4280	27389.56	3.8250	3.8251	1.5106	6.94	0.96	0.750			
0.4323	27667.36	3.8220	3.8218	1.5222	6.93	0.95	0.750			
0.4369	27962.58	3.8190	3.8191	1.5620	6.91	0.93	0.750			
0.4417	28268.66	3.8160	3.8162	1.5747	6.88	0.90	0.750			
0.4465	28576.71	3.8130	3.8131	1.6240	6.86	0.88	0.750			
0.4514	28886.70	3.8100	3.8101	1.6513	6.85	0.87	0.750			
0.4565	29213.46	3.8070	3.8067	1.6353	6.83	0.85	0.750			
0.4614	29528.98	3.8040	3.8037	1.6707	6.81	0.83	0.750			
0.4664	29850.66	3.8010	3.8014	1.7175	6.79	0.81	0.750			
0.4716	30184.59	3.7980	3.7979	1.7531	6.76	0.78	0.750			
0.4768	30517.97	3.7950	3.7949	1.8107	6.75	0.77	0.750			
0.4824	30874.13	3.7920	3.7917	1.8334	6.73	0.75	0.750			
0.4879	31224.28	3.7890	3.7890	1.8473	6.70	0.72	0.750			
0.4935	31581.12	3.7860	3.7863	1.8746	6.68	0.70	0.750			
0.4994	31962.25	3.7830	3.7832	1.8979	6.65	0.67	0.750			
0.5050	32321.24	3.7800	3.7803	1.9144	6.62	0.64	0.750			
0.5109	32695.48	3.7770	3.7774	1.9625	6.60	0.62	0.750			
0.5167	33071.15	3.7740	3.7740	1.9787	6.58	0.60	0.750			
0.5228	33458.11	3.7710	3.7709	1.9965	6.55	0.57	0.750			
0.5290	33856.66	3.7680	3.7683	2.0614	6.52	0.54	0.750			
0.5352	34250.33	3.7650	3.7651	2.0424	6.50	0.52	0.750			
0.5412	34633.98	3.7620	3.7622	2.0571	6.47	0.49	0.750			
0.5474	35035.64	3.7590	3.7592	2.0915	6.44	0.46	0.750			
0.5537	35437.04	3.7560	3.7561	2.1179	6.42	0.44	0.750			
0.5600	35840.04	3.7530	3.7527	2.1519	6.40	0.42	0.750			
0.5665	36258.23	3.7500	3.7501	2.2153	6.36	0.38	0.750			
0.5732	36683.13	3.7470	3.7469	2.2464	6.33	0.35	0.750			
0.5799	37115.87	3.7440	3.7440	2.2903	6.30	0.32	0.750			
0.5870	37566.60	3.7410	3.7410	2.3760	6.27	0.29	0.750			
0.5943	38033.19	3.7380	3.7380	2.4468	6.25	0.27	0.750			
0.6017	38511.09	3.7350	3.7350	2.5147	6.22	0.24	0.750			
0.6094	39004.50	3.7320	3.7319	2.5278	6.18	0.20	0.750			
0.6170	39485.45	3.7290	3.7291	2.5802	6.14	0.16	0.750			
0.6249	39990.84	3.7260	3.7258	2.5968	6.12	0.14	0.750			
0.6325	40479.67	3.7230	3.7232	2.5614	6.11	0.13	0.750			
0.6401	40967.86	3.7200	3.7201	2.5562	6.09	0.11	0.750			
0.6478	41458.88	3.7170	3.7173	2.4432	6.07	0.09	0.750			
0.6554	41946.96	3.7140	3.7142	2.3693	6.04	0.06	0.750			
0.6621	42375.80	3.7110	3.7108	2.0622	6.02	0.04	0.750			
0.6676	42726.89	3.7080	3.7084	1.7056	6.01	0.03	0.750			
0.6721	43015.55	3.7050	3.7051	1.4845	6.01	0.03	0.750			
0.6763	43284.44	3.7020	3.7019	1.3164	6.00	0.02	0.750			
0.6796	43495.96	3.6990	3.6991	1.1564	5.99	0.01	0.750			
0.6829	43708.37	3.6960	3.6959	1.0831	5.99	0.01	0.750			
0.6861	43907.21	3.6930	3.6932	1.0166	5.98	0.00	0.750			
0.6890	44095.63	3.6900	3.6900	0.9610	5.98	-0.00	0.750			
0.6918	44272.21	3.6870	3.6870	0.9198	5.97	-0.01	0.750			
0.6944	44441.92	3.6840	3.6838	0.8727	5.97	-0.01	0.750			
0.6970	44605.15	3.6810	3.6809	0.8403	5.97	-0.01	0.750			
0.6995	44765.58	3.6780	3.6780	0.8034	5.97	-0.01	0.750			
0.7018	44917.00	3.6750	3.6750	0.7731	5.97	-0.01	0.750			
0.7041	45062.26	3.6720	3.6721	0.7417	5.97	-0.01	0.750			
0.7063	45201.15	3.6690	3.6689	0.7030	5.97	-0.01	0.750			
0.7083	45332.05	3.6660	3.6661	0.6625	5.97	-0.01	0.750			
0.7103	45457.29	3.6630	3.6631	0.6256	5.97	-0.01	0.750			
0.7121	45573.44	3.6600	3.6600	0.5847	5.97	-0.01	0.750			
0.7138	45683.63	3.6570	3.6569	0.5480	5.98	-0.00	0.750			
0.7153	45782.38	3.6540	3.6540	0.5000	5.98	-0.00	0.750			
0.7168	45873.47	3.6510	3.6510	0.4619	5.98	-0.00	0.750			
0.7181	45959.83	3.6480	3.6481	0.4282	5.98	-0.00	0.750			
0.7193	46038.23	3.6450	3.6448	0.3928	5.98	-0.00	0.750			
0.7205	46109.33	3.6420	3.6421	0.3589	5.98	0.00	0.750			
0.7215	46174.85	3.6390	3.6390	0.3240	5.98	0.00	0.750			
0.7224	46234.23	3.6360	3.6360	0.2883	5.98	0.00	0.750			
0.7232	46287.50	3.6330	3.6330	0.2542	5.98	0.00	0.750			
0.7239	46332.36	3.6300	3.6300	0.2151	5.98	0.00	0.750			
0.7245	46370.74	3.6270	3.6270	0.1784	5.98	0.00	0.750			
0.7250	46401.23	3.6240	3.6240	0.1396	5.98	0.00	0.750			
0.7253	46421.90	3.6210	3.6216	0.0996	5.98	0.00	0.750			
0.7256	46439.14	3.6180	3.6189	0.0636	5.98	0.00	0.750			
0.7257	46447.73	3.6150	3.6164	0.0259	5.98	0.00	0.750			
0.7258	46449.07	3.6120	3.6160	-0.0119	5.98	0.00	0.750			
