Ah_balance (normalized)	Ah_balance (mAh)	Voltage - fit (V)	Voltage -  interpolate (V)	dQ/dV (1/V)	Temperature (°C)	Temperature - diff (°C)	Current (C)	R_DC 0ms (mOhm)	R_DC 50ms (mOhm)	R_DC 50 ms PEC (mOhm)
0.1811	11592.26	4.0800	4.0800	0.7648	7.41	1.42	0.750			
0.1834	11739.12	4.0770	4.0771	0.7721	7.41	1.42	0.750			
0.1858	11890.50	4.0740	4.0739	0.7903	7.41	1.42	0.750			
0.1882	12046.50	4.0710	4.0709	0.7941	7.41	1.42	0.750			
0.1906	12199.67	4.0680	4.0680	0.7970	7.41	1.42	0.750			
0.1930	12352.08	4.0650	4.0652	0.7996	7.40	1.41	0.750			
0.1954	12505.41	4.0620	4.0620	0.8017	7.40	1.41	0.750			
0.1978	12658.12	4.0590	4.0588	0.8056	7.40	1.41	0.750			
0.2002	12812.10	4.0560	4.0560	0.8113	7.39	1.40	0.750			
0.2027	12970.96	4.0530	4.0530	0.8146	7.39	1.40	0.750			
0.2051	13128.23	4.0500	4.0500	0.8192	7.38	1.39	0.750			
0.2076	13284.69	4.0470	4.0472	0.8204	7.38	1.39	0.750			
0.2100	13442.63	4.0440	4.0438	0.8234	7.37	1.38	0.750			
0.2125	13600.75	4.0410	4.0409	0.8232	7.37	1.38	0.750			
0.2150	13759.60	4.0380	4.0381	0.8199	7.37	1.38	0.750			
0.2175	13916.85	4.0350	4.0351	0.8250	7.36	1.37	0.750			
0.2199	14075.23	4.0320	4.0320	0.8253	7.36	1.37	0.750			
0.2224	14233.44	4.0290	4.0287	0.8295	7.36	1.37	0.750			
0.2249	14391.11	4.0260	4.0261	0.8312	7.35	1.36	0.750			
0.2274	14551.92	4.0230	4.0230	0.8342	7.35	1.36	0.750			
0.2299	14713.42	4.0200	4.0201	0.8438	7.34	1.35	0.750			
0.2324	14874.36	4.0170	4.0170	0.8429	7.34	1.35	0.750			
0.2350	15037.86	4.0140	4.0138	0.8479	7.33	1.34	0.750			
0.2375	15201.57	4.0110	4.0110	0.8528	7.33	1.34	0.750			
0.2401	15365.93	4.0080	4.0081	0.8497	7.32	1.33	0.750			
0.2427	15530.71	4.0050	4.0051	0.8515	7.32	1.33	0.750			
0.2452	15692.26	4.0020	4.0020	0.8527	7.31	1.32	0.750			
0.2477	15854.31	3.9990	3.9989	0.8545	7.31	1.32	0.750			
0.2503	16020.60	3.9960	3.9960	0.8583	7.31	1.32	0.750			
0.2529	16186.45	3.9930	3.9931	0.8618	7.31	1.32	0.750			
0.2555	16352.60	3.9900	3.9900	0.8717	7.31	1.32	0.750			
0.2581	16521.05	3.9870	3.9870	0.8733	7.31	1.32	0.750			
0.2608	16688.23	3.9840	3.9840	0.8771	7.31	1.32	0.750			
0.2634	16857.92	3.9810	3.9810	0.8738	7.30	1.31	0.750			
0.2660	17026.61	3.9780	3.9781	0.8806	7.30	1.31	0.750			
0.2687	17196.36	3.9750	3.9750	0.8849	7.30	1.31	0.750			
0.2713	17364.82	3.9720	3.9720	0.8905	7.29	1.30	0.750			
0.2740	17535.25	3.9690	3.9690	0.8939	7.29	1.30	0.750			
0.2767	17709.63	3.9660	3.9660	0.8960	7.28	1.29	0.750			
0.2794	17880.81	3.9630	3.9631	0.9026	7.28	1.29	0.750			
0.2821	18056.72	3.9600	3.9601	0.9120	7.27	1.28	0.750			
0.2848	18230.29	3.9570	3.9568	0.9104	7.27	1.28	0.750			
0.2876	18406.29	3.9540	3.9540	0.9109	7.26	1.27	0.750			
0.2903	18580.55	3.9510	3.9510	0.9177	7.26	1.27	0.750			
0.2931	18759.20	3.9480	3.9480	0.9246	7.25	1.26	0.750			
0.2959	18935.75	3.9450	3.9450	0.9292	7.24	1.25	0.750			
0.2986	19113.35	3.9420	3.9421	0.9339	7.24	1.25	0.750			
0.3015	19294.55	3.9390	3.9390	0.9388	7.23	1.24	0.750			
0.3043	19474.65	3.9360	3.9361	0.9503	7.22	1.23	0.750			
0.3072	19658.09	3.9330	3.9331	0.9612	7.22	1.23	0.750			
0.3100	19842.88	3.9300	3.9297	0.9622	7.21	1.22	0.750			
0.3130	20031.83	3.9270	3.9270	0.9609	7.21	1.22	0.750			
0.3158	20214.30	3.9240	3.9241	0.9719	7.21	1.22	0.750			
0.3188	20401.67	3.9210	3.9210	0.9816	7.20	1.21	0.750			
0.3217	20589.03	3.9180	3.9179	0.9865	7.20	1.21	0.750			
0.3247	20779.79	3.9150	3.9151	0.9950	7.19	1.20	0.750			
0.3277	20971.99	3.9120	3.9121	1.0109	7.19	1.20	0.750			
0.3308	21168.63	3.9090	3.9091	1.0284	7.18	1.19	0.750			
0.3339	21367.81	3.9060	3.9059	1.0303	7.17	1.18	0.750			
0.3370	21568.15	3.9030	3.9030	1.0333	7.16	1.17	0.750			
0.3401	21766.89	3.9000	3.9001	1.0474	7.15	1.16	0.750			
0.3432	21967.79	3.8970	3.8970	1.0592	7.14	1.15	0.750			
0.3464	22171.95	3.8940	3.8939	1.0727	7.13	1.14	0.750			
0.3497	22377.70	3.8910	3.8910	1.0770	7.13	1.14	0.750			
0.3529	22584.64	3.8880	3.8880	1.0956	7.12	1.13	0.750			
0.3562	22799.05	3.8850	3.8851	1.1122	7.12	1.13	0.750			
0.3597	23019.39	3.8820	3.8818	1.1171	7.11	1.12	0.750			
0.3630	23229.43	3.8790	3.8791	1.1310	7.10	1.11	0.750			
0.3664	23447.72	3.8760	3.8761	1.1473	7.09	1.10	0.750			
0.3698	23668.38	3.8730	3.8730	1.1641	7.08	1.09	0.750			
0.3734	23894.63	3.8700	3.8698	1.1678	7.07	1.08	0.750			
0.3768	24118.07	3.8670	3.8672	1.1891	7.06	1.07	0.750			
0.3805	24351.50	3.8640	3.8641	1.2143	7.04	1.05	0.750			
0.3842	24588.64	3.8610	3.8607	1.2221	7.03	1.04	0.750			
0.3878	24820.19	3.8580	3.8581	1.2395	7.03	1.04	0.750			
0.3916	25060.80	3.8550	3.8551	1.2644	7.02	1.03	0.750			
0.3955	25310.24	3.8520	3.8519	1.2767	7.01	1.02	0.750			
0.3994	25564.41	3.8490	3.8490	1.2870	7.00	1.01	0.750			
0.4032	25803.27	3.8460	3.8461	1.3084	6.99	1.00	0.750			
0.4071	26053.22	3.8430	3.8433	1.3416	6.98	0.99	0.750			
0.4111	26310.97	3.8400	3.8399	1.3832	6.97	0.98	0.750			
0.4152	26573.91	3.8370	3.8372	1.4393	6.96	0.97	0.750	0.392	0.962	
0.4196	26852.52	3.8340	3.8344	1.5263	6.95	0.96	0.750			
0.4244	27160.06	3.8310	3.8310	1.6356	6.94	0.95	0.750			
0.4295	27488.88	3.8280	3.8271	1.6561	6.93	0.94	0.750			
0.4346	27812.87	3.8250	3.8253	1.6712	6.91	0.92	0.750			
0.4397	28139.71	3.8220	3.8220	1.6806	6.89	0.90	0.750			
0.4446	28457.55	3.8190	3.8191	1.6614	6.86	0.87	0.750			
0.4494	28762.25	3.8160	3.8161	1.6500	6.84	0.85	0.750			
0.4545	29086.17	3.8130	3.8131	1.6828	6.83	0.84	0.750			
0.4595	29410.28	3.8100	3.8101	1.6954	6.81	0.82	0.750			
0.4646	29737.54	3.8070	3.8072	1.7404	6.80	0.81	0.750			
0.4700	30079.11	3.8040	3.8041	1.7872	6.78	0.79	0.750			
0.4755	30429.81	3.8010	3.8009	1.8432	6.76	0.77	0.750			
0.4811	30793.26	3.7980	3.7982	1.8859	6.74	0.75	0.750			
0.4868	31153.79	3.7950	3.7949	1.8907	6.72	0.73	0.750			
0.4925	31522.35	3.7920	3.7921	1.9267	6.71	0.72	0.750			
0.4982	31886.06	3.7890	3.7889	1.9758	6.69	0.70	0.750			
0.5043	32275.24	3.7860	3.7859	2.0228	6.67	0.68	0.750			
0.5105	32670.47	3.7830	3.7829	2.0586	6.65	0.66	0.750			
0.5169	33079.00	3.7800	3.7802	2.0796	6.62	0.63	0.750			
0.5230	33469.36	3.7770	3.7770	2.1236	6.59	0.60	0.750			
0.5293	33874.75	3.7740	3.7740	2.1251	6.57	0.58	0.750			
0.5359	34294.41	3.7710	3.7707	2.2138	6.55	0.56	0.750			
0.5425	34722.12	3.7680	3.7678	2.2212	6.51	0.52	0.750			
0.5493	35155.25	3.7650	3.7651	2.2625	6.48	0.49	0.750			
0.5563	35600.81	3.7620	3.7618	2.3236	6.46	0.47	0.750			
0.5630	36033.99	3.7590	3.7591	2.3441	6.44	0.45	0.750			
0.5702	36494.93	3.7560	3.7560	2.3619	6.42	0.43	0.750			
0.5773	36945.18	3.7530	3.7531	2.3902	6.39	0.40	0.750			
0.5845	37407.66	3.7500	3.7499	2.4400	6.35	0.36	0.750			
0.5918	37873.96	3.7470	3.7469	2.5526	6.33	0.34	0.750			
0.5998	38384.48	3.7440	3.7439	2.6293	6.30	0.31	0.750			
0.6077	38895.54	3.7410	3.7411	2.7381	6.26	0.27	0.750			
0.6160	39425.18	3.7380	3.7378	2.8711	6.23	0.24	0.750			
0.6248	39988.51	3.7350	3.7350	3.0239	6.20	0.21	0.750			
0.6341	40579.30	3.7320	3.7319	2.9216	6.15	0.16	0.750			
0.6426	41125.11	3.7290	3.7291	2.8682	6.14	0.15	0.750			
0.6510	41660.84	3.7260	3.7262	2.9710	6.12	0.13	0.750			
0.6603	42261.34	3.7230	3.7229	3.0309	6.09	0.10	0.750			
0.6692	42828.03	3.7200	3.7199	2.8294	6.06	0.07	0.750			
0.6772	43339.53	3.7170	3.7170	2.5183	6.04	0.05	0.750			
0.6843	43794.71	3.7140	3.7139	2.2288	6.03	0.04	0.750			
0.6903	44182.31	3.7110	3.7111	1.9278	6.02	0.03	0.750			
0.6957	44526.79	3.7080	3.7080	1.6888	6.01	0.02	0.750			
0.7001	44808.02	3.7050	3.7051	1.4728	6.01	0.02	0.750			
0.7043	45074.81	3.7020	3.7019	1.3063	6.00	0.01	0.750			
0.7077	45294.33	3.6990	3.6992	1.1428	5.99	0.00	0.750			
0.7109	45497.73	3.6960	3.6960	1.0411	5.99	-0.00	0.750			
0.7138	45684.65	3.6930	3.6930	0.9489	5.98	-0.01	0.750			
0.7165	45852.89	3.6900	3.6899	0.8733	5.98	-0.01	0.750			
0.7189	46011.40	3.6870	3.6870	0.8142	5.98	-0.01	0.750			
0.7213	46161.96	3.6840	3.6841	0.7599	5.97	-0.02	0.750			
0.7235	46304.71	3.6810	3.6809	0.7056	5.97	-0.02	0.750			
0.7256	46435.38	3.6780	3.6780	0.6509	5.97	-0.02	0.750			
0.7274	46555.88	3.6750	3.6751	0.5946	5.98	-0.01	0.750			
0.7291	46664.52	3.6720	3.6720	0.5391	5.98	-0.01	0.750			
0.7306	46760.70	3.6690	3.6689	0.4810	5.98	-0.01	0.750			
0.7320	46846.75	3.6660	3.6660	0.4314	5.99	-0.00	0.750			
0.7332	46922.89	3.6630	3.6629	0.3844	5.99	-0.00	0.750			
0.7343	46992.25	3.6600	3.6600	0.3456	5.99	-0.00	0.750			
0.7352	47053.22	3.6570	3.6569	0.3049	5.99	0.00	0.750			
0.7361	47108.41	3.6540	3.6541	0.2703	5.99	0.00	0.750			
0.7368	47157.82	3.6510	3.6509	0.2316	5.99	0.00	0.750			
0.7375	47199.36	3.6480	3.6480	0.1949	5.99	0.00	0.750			
0.7380	47234.31	3.6450	3.6451	0.1562	5.99	0.00	0.750			
0.7384	47259.45	3.6420	3.6423	0.1150	6.00	0.01	0.750			
0.7387	47278.59	3.6390	3.6395	0.0714	6.00	0.01	0.750			
0.7389	47288.16	3.6360	3.6371	0.0226	6.00	0.01	0.750			
