Ah_balance (normalized)	Ah_balance (mAh)	Voltage - fit (V)	Voltage -  interpolate (V)	dQ/dV (1/V)	Temperature (°C)	Temperature - diff (°C)	Current (C)	R_DC 0ms (mOhm)	R_DC 50ms (mOhm)	R_DC 50 ms PEC (mOhm)
-0.0991	-6343.46	4.0030	4.0026	-0.0940	5.97	0.00	-0.750			
-0.0988	-6322.04	4.0000	3.9998	-0.1230	5.97	0.00	-0.750			
-0.0984	-6295.92	3.9970	3.9969	-0.1491	5.97	0.00	-0.750			
-0.0979	-6264.90	3.9940	3.9940	-0.1757	5.97	0.00	-0.750			
-0.0973	-6228.28	3.9910	3.9910	-0.2005	5.97	0.00	-0.750			
-0.0967	-6186.42	3.9880	3.9880	-0.2258	5.97	0.00	-0.750			
-0.0960	-6140.89	3.9850	3.9849	-0.2489	5.97	0.00	-0.750			
-0.0952	-6090.73	3.9820	3.9821	-0.2717	5.97	0.00	-0.750			
-0.0943	-6036.60	3.9790	3.9790	-0.2959	5.97	0.00	-0.750			
-0.0934	-5977.77	3.9760	3.9760	-0.3200	5.97	0.00	-0.750			
-0.0924	-5914.95	3.9730	3.9731	-0.3456	5.97	0.00	-0.750			
-0.0913	-5845.86	3.9700	3.9700	-0.3729	5.97	0.00	-0.750			
-0.0902	-5771.06	3.9670	3.9670	-0.3985	5.97	0.00	-0.750			
-0.0889	-5692.01	3.9640	3.9640	-0.4239	5.97	0.00	-0.750			
-0.0876	-5607.87	3.9610	3.9610	-0.4501	5.97	0.00	-0.750			
-0.0862	-5519.22	3.9580	3.9580	-0.4743	5.97	0.00	-0.750			
-0.0848	-5425.81	3.9550	3.9549	-0.4985	5.97	0.00	-0.750			
-0.0832	-5327.88	3.9520	3.9520	-0.5222	5.97	0.00	-0.750			
-0.0816	-5225.14	3.9490	3.9490	-0.5454	5.97	0.00	-0.750			
-0.0799	-5116.38	3.9460	3.9460	-0.5690	5.97	0.00	-0.750			
-0.0782	-5004.95	3.9430	3.9430	-0.5859	5.97	0.00	-0.750			
-0.0764	-4890.51	3.9400	3.9400	-0.6033	5.97	0.00	-0.750			
-0.0746	-4773.21	3.9370	3.9371	-0.6208	5.97	0.00	-0.750			
-0.0727	-4652.38	3.9340	3.9340	-0.6360	5.97	0.00	-0.750			
-0.0708	-4528.61	3.9310	3.9310	-0.6517	5.97	0.00	-0.750			
-0.0688	-4402.07	3.9280	3.9280	-0.6671	5.97	0.00	-0.750			
-0.0667	-4270.64	3.9250	3.9250	-0.6805	5.98	0.01	-0.750			
-0.0647	-4138.64	3.9220	3.9220	-0.6892	5.98	0.01	-0.750			
-0.0626	-4005.14	3.9190	3.9190	-0.6971	5.98	0.01	-0.750			
-0.0605	-3870.54	3.9160	3.9161	-0.7033	5.98	0.01	-0.750			
-0.0584	-3735.54	3.9130	3.9130	-0.7119	5.99	0.02	-0.750			
-0.0562	-3598.70	3.9100	3.9100	-0.7201	5.99	0.02	-0.750			
-0.0540	-3458.65	3.9070	3.9070	-0.7277	5.99	0.02	-0.750			
-0.0518	-3316.87	3.9040	3.9039	-0.7366	6.00	0.03	-0.750			
-0.0496	-3175.03	3.9010	3.9011	-0.7398	6.00	0.03	-0.750			
-0.0474	-3031.95	3.8980	3.8980	-0.7435	6.01	0.04	-0.750			
-0.0451	-2889.50	3.8950	3.8950	-0.7482	6.01	0.04	-0.750			
-0.0429	-2746.41	3.8920	3.8920	-0.7508	6.02	0.05	-0.750			
-0.0406	-2601.03	3.8890	3.8890	-0.7554	6.02	0.05	-0.750			
-0.0384	-2455.95	3.8860	3.8860	-0.7611	6.03	0.06	-0.750			
-0.0361	-2308.56	3.8830	3.8830	-0.7665	6.03	0.06	-0.750			
-0.0338	-2161.00	3.8800	3.8800	-0.7711	6.04	0.07	-0.750			
-0.0314	-2012.03	3.8770	3.8770	-0.7733	6.04	0.07	-0.750			
-0.0291	-1863.75	3.8740	3.8740	-0.7735	6.04	0.07	-0.750			
-0.0268	-1714.52	3.8710	3.8710	-0.7763	6.05	0.08	-0.750			
-0.0245	-1565.36	3.8680	3.8681	-0.7802	6.05	0.08	-0.750			
-0.0221	-1416.39	3.8650	3.8650	-0.7819	6.06	0.09	-0.750			
-0.0198	-1266.23	3.8620	3.8620	-0.7869	6.07	0.10	-0.750			
-0.0174	-1114.06	3.8590	3.8590	-0.7884	6.09	0.12	-0.750			
-0.0150	-961.30	3.8560	3.8560	-0.7917	6.10	0.13	-0.750			
-0.0126	-809.40	3.8530	3.8530	-0.7925	6.11	0.14	-0.750			
-0.0103	-657.03	3.8500	3.8500	-0.7924	6.11	0.14	-0.750			
-0.0079	-504.76	3.8470	3.8469	-0.7894	6.12	0.15	-0.750			
-0.0055	-354.38	3.8440	3.8440	-0.7912	6.12	0.15	-0.750			
-0.0032	-202.52	3.8410	3.8410	-0.7930	6.12	0.15	-0.750			
-0.0008	-49.31	3.8380	3.8380	-0.7983	6.13	0.16	-0.750			
0.0016	104.07	3.8350	3.8350	-0.7971	6.14	0.17	-0.750			
0.0040	255.83	3.8320	3.8320	-0.8037	6.15	0.18	-0.750			
0.0064	412.80	3.8290	3.8290	-0.8028	6.16	0.19	-0.750			
0.0089	567.66	3.8260	3.8260	-0.8044	6.17	0.20	-0.750			
0.0113	720.71	3.8230	3.8230	-0.8029	6.18	0.21	-0.750			
0.0137	875.28	3.8200	3.8200	-0.8046	6.19	0.22	-0.750			
0.0161	1028.84	3.8170	3.8169	-0.8063	6.20	0.23	-0.750			
0.0185	1183.91	3.8140	3.8140	-0.8075	6.21	0.24	-0.750			
0.0209	1338.20	3.8110	3.8111	-0.8081	6.22	0.25	-0.750			
0.0234	1495.80	3.8080	3.8079	-0.8133	6.22	0.25	-0.750			
0.0258	1651.84	3.8050	3.8051	-0.8115	6.23	0.26	-0.750			
0.0282	1807.54	3.8020	3.8020	-0.8129	6.24	0.27	-0.750			
0.0307	1963.20	3.7990	3.7990	-0.8156	6.25	0.28	-0.750			
0.0331	2120.33	3.7960	3.7960	-0.8173	6.26	0.29	-0.750			
0.0356	2278.07	3.7930	3.7929	-0.8175	6.27	0.30	-0.750			
0.0380	2434.90	3.7900	3.7901	-0.8167	6.28	0.31	-0.750			
0.0405	2592.13	3.7870	3.7870	-0.8176	6.29	0.32	-0.750			
0.0429	2748.71	3.7840	3.7840	-0.8197	6.30	0.33	-0.750			
0.0454	2905.25	3.7810	3.7810	-0.8193	6.31	0.34	-0.750			
0.0479	3063.28	3.7780	3.7779	-0.8208	6.32	0.35	-0.750			
0.0503	3220.87	3.7750	3.7751	-0.8222	6.33	0.36	-0.750			
0.0528	3379.93	3.7720	3.7720	-0.8252	6.34	0.37	-0.750			
0.0553	3538.05	3.7690	3.7690	-0.8236	6.35	0.38	-0.750			
0.0577	3695.56	3.7660	3.7660	-0.8236	6.35	0.38	-0.750			
0.0602	3853.99	3.7630	3.7630	-0.8258	6.36	0.39	-0.750			
0.0627	4012.77	3.7600	3.7600	-0.8254	6.37	0.40	-0.750			
0.0652	4171.76	3.7570	3.7570	-0.8278	6.38	0.41	-0.750			
0.0677	4330.52	3.7540	3.7540	-0.8264	6.39	0.42	-0.750			
0.0701	4488.92	3.7510	3.7510	-0.8272	6.39	0.42	-0.750			
0.0726	4647.85	3.7480	3.7480	-0.8286	6.40	0.43	-0.750			
0.0751	4806.52	3.7450	3.7450	-0.8298	6.41	0.44	-0.750			
0.0776	4965.98	3.7420	3.7420	-0.8338	6.42	0.45	-0.750			
0.0801	5126.86	3.7390	3.7390	-0.8377	6.43	0.46	-0.750			
0.0826	5287.43	3.7360	3.7360	-0.8417	6.45	0.48	-0.750			
0.0852	5450.14	3.7330	3.7330	-0.8444	6.46	0.49	-0.750			
0.0877	5612.68	3.7300	3.7301	-0.8472	6.47	0.50	-0.750			
0.0902	5775.86	3.7270	3.7270	-0.8484	6.48	0.51	-0.750			
0.0928	5939.21	3.7240	3.7240	-0.8506	6.48	0.51	-0.750			
0.0954	6102.64	3.7210	3.7210	-0.8507	6.49	0.52	-0.750			
0.0979	6265.30	3.7180	3.7180	-0.8552	6.49	0.52	-0.750			
0.1005	6429.30	3.7150	3.7151	-0.8602	6.50	0.53	-0.750			
0.1030	6594.74	3.7120	3.7119	-0.8693	6.51	0.54	-0.750			
0.1057	6762.00	3.7090	3.7090	-0.8750	6.52	0.55	-0.750			
0.1083	6931.03	3.7060	3.7060	-0.8837	6.53	0.56	-0.750			
0.1110	7103.46	3.7030	3.7030	-0.8921	6.54	0.57	-0.750			
0.1137	7274.88	3.7000	3.7000	-0.8965	6.55	0.58	-0.750			
0.1163	7445.80	3.6970	3.6970	-0.9036	6.56	0.59	-0.750			
0.1191	7619.84	3.6940	3.6940	-0.9152	6.56	0.59	-0.750			
0.1218	7796.79	3.6910	3.6909	-0.9215	6.56	0.59	-0.750			
0.1246	7975.65	3.6880	3.6881	-0.9309	6.57	0.60	-0.750			
0.1274	8155.25	3.6850	3.6850	-0.9422	6.58	0.61	-0.750			
0.1303	8337.16	3.6820	3.6821	-0.9514	6.59	0.62	-0.750			
0.1331	8519.32	3.6790	3.6789	-0.9570	6.61	0.64	-0.750			
0.1360	8703.02	3.6760	3.6760	-0.9674	6.62	0.65	-0.750			
0.1389	8889.96	3.6730	3.6730	-0.9807	6.63	0.66	-0.750			
0.1419	9080.49	3.6700	3.6700	-0.9939	6.64	0.67	-0.750			
0.1449	9273.21	3.6670	3.6670	-1.0050	6.64	0.67	-0.750			
0.1479	9467.14	3.6640	3.6640	-1.0143	6.65	0.68	-0.750			
0.1510	9662.09	3.6610	3.6610	-1.0293	6.65	0.68	-0.750			
0.1541	9861.12	3.6580	3.6580	-1.0375	6.66	0.69	-0.750			
0.1572	10060.79	3.6550	3.6550	-1.0508	6.67	0.70	-0.750			
0.1604	10263.42	3.6520	3.6519	-1.0646	6.68	0.71	-0.750			
0.1636	10468.87	3.6490	3.6491	-1.0822	6.69	0.72	-0.750			
0.1669	10678.55	3.6460	3.6460	-1.0962	6.70	0.73	-0.750			
0.1702	10890.94	3.6430	3.6430	-1.1121	6.71	0.74	-0.750			
0.1735	11105.73	3.6400	3.6400	-1.1238	6.72	0.75	-0.750			
0.1769	11323.39	3.6370	3.6370	-1.1410	6.73	0.76	-0.750			
0.1804	11542.98	3.6340	3.6340	-1.1501	6.74	0.77	-0.750			
0.1838	11764.60	3.6310	3.6310	-1.1665	6.74	0.77	-0.750			
0.1873	11988.89	3.6280	3.6280	-1.1817	6.75	0.78	-0.750			
0.1909	12218.03	3.6250	3.6250	-1.2006	6.76	0.79	-0.750			
0.1945	12450.07	3.6220	3.6220	-1.2180	6.76	0.79	-0.750			
0.1982	12686.43	3.6190	3.6190	-1.2356	6.77	0.80	-0.750			
0.2020	12924.88	3.6160	3.6160	-1.2521	6.77	0.80	-0.750			
0.2058	13168.37	3.6130	3.6130	-1.2659	6.78	0.81	-0.750			
0.2096	13411.40	3.6100	3.6100	-1.2821	6.78	0.81	-0.750			
0.2134	13659.48	3.6070	3.6070	-1.2995	6.79	0.82	-0.750			
0.2174	13910.64	3.6040	3.6039	-1.3164	6.80	0.83	-0.750			
0.2213	14164.77	3.6010	3.6011	-1.3337	6.82	0.85	-0.750	0.460	1.114	
0.2254	14423.00	3.5980	3.5981	-1.3528	6.83	0.86	-0.750			
0.2294	14684.59	3.5950	3.5950	-1.3721	6.84	0.87	-0.750			
0.2336	14949.92	3.5920	3.5920	-1.3924	6.84	0.87	-0.750			
0.2378	15218.01	3.5890	3.5891	-1.4104	6.85	0.88	-0.750			
0.2421	15491.67	3.5860	3.5860	-1.4339	6.86	0.89	-0.750			
0.2464	15768.31	3.5830	3.5830	-1.4502	6.86	0.89	-0.750			
0.2508	16048.55	3.5800	3.5800	-1.4682	6.87	0.90	-0.750			
0.2552	16334.03	3.5770	3.5770	-1.4878	6.88	0.91	-0.750			
0.2597	16619.62	3.5740	3.5740	-1.5070	6.89	0.92	-0.750			
0.2642	16910.28	3.5710	3.5710	-1.5241	6.89	0.92	-0.750			
0.2688	17204.99	3.5680	3.5680	-1.5475	6.90	0.93	-0.750			
0.2735	17502.66	3.5650	3.5651	-1.5694	6.91	0.94	-0.750			
0.2782	17805.36	3.5620	3.5620	-1.5931	6.91	0.94	-0.750			
0.2831	18115.74	3.5590	3.5590	-1.6140	6.92	0.95	-0.750			
0.2880	18429.77	3.5560	3.5560	-1.6233	6.93	0.96	-0.750			
0.2928	18740.81	3.5530	3.5530	-1.6400	6.94	0.97	-0.750			
0.2978	19060.79	3.5500	3.5501	-1.6552	6.95	0.98	-0.750			
0.3028	19377.78	3.5470	3.5470	-1.6690	6.95	0.98	-0.750			
0.3078	19697.66	3.5440	3.5439	-1.6829	6.96	0.99	-0.750			
0.3129	20022.89	3.5410	3.5411	-1.6995	6.97	1.00	-0.750			
0.3180	20353.04	3.5380	3.5380	-1.7166	6.98	1.01	-0.750			
0.3232	20683.53	3.5350	3.5350	-1.7311	6.99	1.02	-0.750			
0.3284	21017.15	3.5320	3.5319	-1.7352	7.00	1.03	-0.750			
0.3337	21355.58	3.5290	3.5290	-1.7430	7.00	1.03	-0.750			
0.3389	21687.85	3.5260	3.5260	-1.7456	7.01	1.04	-0.750			
0.3441	22023.93	3.5230	3.5230	-1.7496	7.02	1.05	-0.750			
0.3493	22357.61	3.5200	3.5201	-1.7567	7.03	1.06	-0.750			
0.3546	22697.50	3.5170	3.5169	-1.7577	7.04	1.07	-0.750			
0.3599	23036.73	3.5140	3.5140	-1.7590	7.05	1.08	-0.750			
0.3652	23374.49	3.5110	3.5110	-1.7690	7.06	1.09	-0.750			
0.3706	23715.62	3.5080	3.5080	-1.7809	7.07	1.10	-0.750			
0.3759	24055.99	3.5050	3.5050	-1.7767	7.08	1.11	-0.750			
0.3813	24400.25	3.5020	3.5020	-1.7659	7.09	1.12	-0.750			
0.3866	24739.44	3.4990	3.4990	-1.7559	7.11	1.14	-0.750			
0.3918	25076.98	3.4960	3.4961	-1.7556	7.12	1.15	-0.750			
0.3971	25412.74	3.4930	3.4928	-1.7427	7.12	1.15	-0.750			
0.4022	25742.94	3.4900	3.4900	-1.7169	7.14	1.17	-0.750			
0.4074	26071.12	3.4870	3.4870	-1.7135	7.15	1.18	-0.750			
0.4125	26401.68	3.4840	3.4839	-1.7044	7.17	1.20	-0.750			
0.4176	26728.18	3.4810	3.4810	-1.6842	7.18	1.21	-0.750			
0.4227	27051.36	3.4780	3.4779	-1.6653	7.19	1.22	-0.750			
0.4276	27367.03	3.4750	3.4750	-1.6434	7.20	1.23	-0.750			
0.4326	27683.69	3.4720	3.4720	-1.6192	7.22	1.25	-0.750			
0.4374	27992.78	3.4690	3.4689	-1.5978	7.24	1.27	-0.750			
0.4421	28294.73	3.4660	3.4660	-1.5688	7.25	1.28	-0.750			
0.4468	28595.86	3.4630	3.4629	-1.5480	7.26	1.29	-0.750			
0.4514	28891.73	3.4600	3.4600	-1.5234	7.27	1.30	-0.750			
0.4560	29182.12	3.4570	3.4570	-1.4946	7.29	1.32	-0.750			
0.4604	29465.97	3.4540	3.4540	-1.4693	7.30	1.33	-0.750			
0.4648	29746.04	3.4510	3.4510	-1.4449	7.32	1.35	-0.750			
0.4690	30018.88	3.4480	3.4480	-1.4160	7.33	1.36	-0.750			
0.4733	30288.60	3.4450	3.4449	-1.3914	7.34	1.37	-0.750			
0.4774	30552.84	3.4420	3.4420	-1.3606	7.36	1.39	-0.750			
0.4815	30813.91	3.4390	3.4390	-1.3371	7.37	1.40	-0.750			
0.4854	31067.97	3.4360	3.4360	-1.3079	7.38	1.41	-0.750			
0.4893	31315.07	3.4330	3.4330	-1.2737	7.40	1.43	-0.750			
0.4931	31557.98	3.4300	3.4300	-1.2443	7.41	1.44	-0.750			
0.4968	31793.46	3.4270	3.4270	-1.2113	7.43	1.46	-0.750			
0.5003	32022.35	3.4240	3.4242	-1.1832	7.44	1.47	-0.750			
0.5039	32247.58	3.4210	3.4210	-1.1550	7.45	1.48	-0.750			
0.5073	32465.52	3.4180	3.4180	-1.1240	7.46	1.49	-0.750			
0.5106	32678.76	3.4150	3.4150	-1.0941	7.46	1.49	-0.750			
0.5138	32886.30	3.4120	3.4120	-1.0657	7.48	1.51	-0.750			
0.5170	33088.50	3.4090	3.4090	-1.0345	7.49	1.52	-0.750			
0.5201	33284.01	3.4060	3.4060	-1.0049	7.51	1.54	-0.750			
0.5230	33472.10	3.4030	3.4030	-0.9733	7.52	1.55	-0.750			
0.5259	33657.73	3.4000	3.4000	-0.9454	7.53	1.56	-0.750			
0.5287	33836.58	3.3970	3.3970	-0.9157	7.55	1.58	-0.750			
0.5314	34009.28	3.3940	3.3940	-0.8881	7.56	1.59	-0.750			
0.5340	34177.08	3.3910	3.3911	-0.8607	7.57	1.60	-0.750			
0.5366	34339.56	3.3880	3.3879	-0.8329	7.58	1.61	-0.750			
0.5390	34496.20	3.3850	3.3850	-0.8060	7.60	1.63	-0.750			
0.5414	34647.74	3.3820	3.3820	-0.7861	7.61	1.64	-0.750			
0.5437	34796.74	3.3790	3.3790	-0.7654	7.62	1.65	-0.750			
