Ah_balance (normalized)	Ah_balance (mAh)	Voltage - fit (V)	Voltage -  interpolate (V)	dQ/dV (1/V)	Temperature (°C)	Temperature - diff (°C)	Current (C)	R_DC 0ms (mOhm)	R_DC 50ms (mOhm)	R_DC 50 ms PEC (mOhm)
0.1809	11576.53	4.0800	4.0800	0.7753	7.48	1.49	0.750			
0.1832	11724.14	4.0770	4.0770	0.7721	7.48	1.49	0.750			
0.1855	11872.83	4.0740	4.0741	0.7758	7.48	1.49	0.750			
0.1878	12022.36	4.0710	4.0709	0.7769	7.47	1.48	0.750			
0.1902	12171.02	4.0680	4.0680	0.7782	7.47	1.48	0.750			
0.1925	12321.22	4.0650	4.0651	0.7837	7.47	1.48	0.750			
0.1949	12475.30	4.0620	4.0619	0.7759	7.46	1.47	0.750			
0.1972	12621.36	4.0590	4.0590	0.7832	7.46	1.47	0.750			
0.1995	12770.47	4.0560	4.0562	0.7874	7.45	1.46	0.750			
0.2019	12921.97	4.0530	4.0528	0.7912	7.45	1.46	0.750			
0.2043	13075.07	4.0500	4.0501	0.7961	7.44	1.45	0.750			
0.2067	13229.30	4.0470	4.0471	0.7939	7.44	1.45	0.750			
0.2091	13381.41	4.0440	4.0440	0.7983	7.43	1.44	0.750			
0.2115	13537.94	4.0410	4.0410	0.8059	7.42	1.43	0.750			
0.2139	13687.23	4.0380	4.0380	0.8015	7.41	1.42	0.750			
0.2163	13842.37	4.0350	4.0350	0.8115	7.41	1.42	0.750			
0.2188	14002.76	4.0320	4.0320	0.8090	7.40	1.41	0.750			
0.2212	14157.20	4.0290	4.0291	0.8113	7.39	1.40	0.750			
0.2237	14315.41	4.0260	4.0260	0.8159	7.38	1.39	0.750			
0.2261	14469.99	4.0230	4.0231	0.8115	7.37	1.38	0.750			
0.2285	14623.68	4.0200	4.0200	0.8140	7.37	1.38	0.750			
0.2310	14781.13	4.0170	4.0171	0.8152	7.36	1.37	0.750			
0.2334	14937.98	4.0140	4.0140	0.8196	7.36	1.37	0.750			
0.2359	15096.52	4.0110	4.0110	0.8260	7.36	1.37	0.750			
0.2383	15253.94	4.0080	4.0082	0.8349	7.35	1.36	0.750			
0.2409	15414.85	4.0050	4.0050	0.8397	7.35	1.36	0.750			
0.2434	15579.41	4.0020	4.0019	0.8376	7.34	1.35	0.750			
0.2459	15740.35	3.9990	3.9991	0.8449	7.34	1.35	0.750			
0.2485	15903.80	3.9960	3.9961	0.8497	7.34	1.35	0.750			
0.2511	16067.55	3.9930	3.9931	0.8515	7.33	1.34	0.750			
0.2536	16229.44	3.9900	3.9902	0.8570	7.33	1.34	0.750			
0.2562	16394.94	3.9870	3.9870	0.8561	7.32	1.33	0.750			
0.2588	16561.09	3.9840	3.9840	0.8666	7.31	1.32	0.750			
0.2614	16727.96	3.9810	3.9811	0.8690	7.31	1.32	0.750			
0.2640	16895.40	3.9780	3.9779	0.8726	7.30	1.31	0.750			
0.2666	17063.93	3.9750	3.9750	0.8732	7.30	1.31	0.750			
0.2692	17230.76	3.9720	3.9720	0.8734	7.29	1.30	0.750			
0.2718	17397.26	3.9690	3.9691	0.8785	7.28	1.29	0.750			
0.2745	17568.25	3.9660	3.9660	0.8897	7.28	1.29	0.750			
0.2771	17737.06	3.9630	3.9627	0.8910	7.27	1.28	0.750			
0.2799	17912.37	3.9600	3.9600	0.8911	7.26	1.27	0.750			
0.2825	18082.32	3.9570	3.9571	0.8961	7.25	1.26	0.750			
0.2853	18256.35	3.9540	3.9540	0.9058	7.25	1.26	0.750			
0.2879	18427.88	3.9510	3.9511	0.9149	7.24	1.25	0.750			
0.2907	18602.18	3.9480	3.9478	0.9162	7.23	1.24	0.750			
0.2935	18780.84	3.9450	3.9450	0.9163	7.22	1.23	0.750			
0.2962	18958.93	3.9420	3.9420	0.9222	7.21	1.22	0.750			
0.2990	19135.85	3.9390	3.9393	0.9334	7.20	1.21	0.750			
0.3018	19314.45	3.9360	3.9358	0.9370	7.19	1.20	0.750			
0.3046	19496.85	3.9330	3.9329	0.9328	7.18	1.19	0.750			
0.3074	19674.94	3.9300	3.9301	0.9428	7.18	1.19	0.750			
0.3103	19856.74	3.9270	3.9271	0.9629	7.17	1.18	0.750			
0.3132	20043.11	3.9240	3.9241	0.9759	7.16	1.17	0.750			
0.3161	20229.14	3.9210	3.9211	0.9817	7.16	1.17	0.750			
0.3190	20417.42	3.9180	3.9181	0.9838	7.15	1.16	0.750			
0.3220	20608.59	3.9150	3.9152	0.9975	7.14	1.15	0.750			
0.3250	20802.71	3.9120	3.9121	1.0080	7.14	1.15	0.750			
0.3281	20996.09	3.9090	3.9091	1.0099	7.13	1.14	0.750			
0.3311	21188.84	3.9060	3.9061	1.0141	7.11	1.12	0.750			
0.3341	21383.41	3.9030	3.9031	1.0277	7.10	1.11	0.750			
0.3373	21584.14	3.9000	3.9000	1.0378	7.08	1.09	0.750			
0.3404	21785.24	3.8970	3.8967	1.0367	7.07	1.08	0.750			
0.3435	21983.23	3.8940	3.8941	1.0550	7.06	1.07	0.750			
0.3467	22188.51	3.8910	3.8911	1.0681	7.06	1.07	0.750			
0.3499	22396.17	3.8880	3.8881	1.0764	7.05	1.06	0.750			
0.3532	22602.11	3.8850	3.8848	1.0693	7.05	1.06	0.750			
0.3564	22807.69	3.8820	3.8823	1.0953	7.04	1.05	0.750			
0.3597	23019.72	3.8790	3.8790	1.1127	7.03	1.04	0.750			
0.3630	23234.33	3.8760	3.8759	1.1239	7.02	1.03	0.750			
0.3664	23451.28	3.8730	3.8731	1.1354	7.01	1.02	0.750			
0.3698	23669.90	3.8700	3.8702	1.1483	6.99	1.00	0.750			
0.3733	23890.99	3.8670	3.8671	1.1650	6.98	0.99	0.750			
0.3768	24117.42	3.8640	3.8637	1.1742	6.97	0.98	0.750			
0.3803	24338.68	3.8610	3.8611	1.1903	6.96	0.97	0.750			
0.3839	24570.93	3.8580	3.8581	1.2237	6.94	0.95	0.750			
0.3877	24811.52	3.8550	3.8550	1.2516	6.92	0.93	0.750			
0.3915	25057.98	3.8520	3.8520	1.2587	6.91	0.92	0.750			
0.3952	25295.59	3.8490	3.8492	1.2601	6.90	0.91	0.750			
0.3990	25536.66	3.8460	3.8462	1.3105	6.90	0.91	0.750			
0.4030	25789.58	3.8430	3.8429	1.3590	6.89	0.90	0.750			
0.4071	26052.00	3.8400	3.8403	1.3870	6.87	0.88	0.750	0.369	0.902	
0.4115	26335.34	3.8370	3.8372	1.4125	6.85	0.86	0.750			
0.4158	26611.12	3.8340	3.8340	1.4385	6.83	0.84	0.750			
0.4201	26889.00	3.8310	3.8311	1.4341	6.81	0.82	0.750			
0.4243	27157.90	3.8280	3.8281	1.4310	6.79	0.80	0.750			
0.4286	27431.72	3.8250	3.8249	1.4574	6.78	0.79	0.750			
0.4330	27709.04	3.8220	3.8219	1.4947	6.77	0.78	0.750			
0.4375	28000.46	3.8190	3.8193	1.5327	6.76	0.77	0.750			
0.4422	28298.49	3.8160	3.8160	1.5748	6.74	0.75	0.750			
0.4470	28606.59	3.8130	3.8131	1.6072	6.72	0.73	0.750			
0.4518	28914.19	3.8100	3.8101	1.6342	6.69	0.70	0.750			
0.4568	29234.12	3.8070	3.8074	1.6644	6.68	0.69	0.750			
0.4618	29556.12	3.8040	3.8041	1.6835	6.66	0.67	0.750			
0.4669	29879.12	3.8010	3.8012	1.7202	6.64	0.65	0.750			
0.4720	30208.90	3.7980	3.7983	1.7463	6.63	0.64	0.750			
0.4774	30552.90	3.7950	3.7947	1.7745	6.61	0.62	0.750			
0.4828	30902.10	3.7920	3.7920	1.8207	6.58	0.59	0.750			
0.4883	31248.26	3.7890	3.7891	1.8509	6.56	0.57	0.750			
0.4940	31613.86	3.7860	3.7859	1.8664	6.53	0.54	0.750			
0.4997	31981.21	3.7830	3.7828	1.8968	6.51	0.52	0.750			
0.5054	32346.28	3.7800	3.7801	1.9134	6.49	0.50	0.750			
0.5111	32709.72	3.7770	3.7772	1.9219	6.47	0.48	0.750			
0.5169	33080.92	3.7740	3.7740	1.9417	6.44	0.45	0.750			
0.5227	33452.24	3.7710	3.7709	1.9869	6.43	0.44	0.750			
0.5287	33836.34	3.7680	3.7680	1.9614	6.40	0.41	0.750			
0.5346	34216.81	3.7650	3.7652	2.0179	6.38	0.39	0.750			
0.5408	34611.38	3.7620	3.7617	2.0534	6.36	0.37	0.750			
0.5472	35018.26	3.7590	3.7590	2.0542	6.33	0.34	0.750			
0.5534	35415.75	3.7560	3.7561	2.0945	6.31	0.32	0.750			
0.5598	35829.47	3.7530	3.7532	2.1344	6.29	0.30	0.750			
0.5662	36238.65	3.7500	3.7502	2.1848	6.27	0.28	0.750			
0.5730	36674.01	3.7470	3.7470	2.2221	6.24	0.25	0.750			
0.5799	37111.89	3.7440	3.7439	2.2527	6.22	0.23	0.750			
0.5864	37531.97	3.7410	3.7413	2.2661	6.20	0.21	0.750			
0.5935	37984.26	3.7380	3.7381	2.3683	6.18	0.19	0.750			
0.6008	38450.78	3.7350	3.7350	2.4611	6.16	0.17	0.750			
0.6084	38938.43	3.7320	3.7318	2.4765	6.13	0.14	0.750			
0.6159	39415.76	3.7290	3.7289	2.5131	6.11	0.12	0.750			
0.6235	39902.04	3.7260	3.7260	2.5087	6.08	0.09	0.750			
0.6308	40369.57	3.7230	3.7231	2.5365	6.06	0.07	0.750			
0.6385	40863.66	3.7200	3.7199	2.4344	6.04	0.05	0.750			
0.6457	41324.83	3.7170	3.7175	2.2930	6.03	0.04	0.750			
0.6524	41754.66	3.7140	3.7140	2.0931	6.01	0.02	0.750			
0.6582	42121.83	3.7110	3.7110	1.8280	6.00	0.01	0.750			
0.6634	42456.94	3.7080	3.7081	1.6416	5.99	0.00	0.750			
0.6681	42758.74	3.7050	3.7048	1.4970	5.98	-0.01	0.750			
0.6723	43024.22	3.7020	3.7022	1.3347	5.98	-0.01	0.750			
0.6760	43265.98	3.6990	3.6990	1.2088	5.97	-0.02	0.750			
0.6794	43481.04	3.6960	3.6960	1.1052	5.97	-0.02	0.750			
0.6823	43669.24	3.6930	3.6931	0.9931	5.97	-0.02	0.750			
0.6852	43850.45	3.6900	3.6901	0.9536	5.97	-0.02	0.750			
0.6879	44025.31	3.6870	3.6870	0.9121	5.97	-0.02	0.750			
0.6905	44192.58	3.6840	3.6837	0.8735	5.97	-0.02	0.750			
0.6931	44357.74	3.6810	3.6811	0.8491	5.97	-0.02	0.750			
0.6957	44522.94	3.6780	3.6781	0.8203	5.97	-0.02	0.750			
0.6981	44679.26	3.6750	3.6750	0.7831	5.97	-0.02	0.750			
0.7004	44825.37	3.6720	3.6720	0.7389	5.97	-0.02	0.750			
0.7025	44962.86	3.6690	3.6688	0.6962	5.97	-0.02	0.750			
0.7046	45092.46	3.6660	3.6660	0.6576	5.97	-0.02	0.750			
0.7065	45214.51	3.6630	3.6629	0.6178	5.98	-0.01	0.750			
0.7083	45328.96	3.6600	3.6601	0.5808	5.98	-0.01	0.750			
0.7100	45438.02	3.6570	3.6570	0.5427	5.98	-0.01	0.750			
0.7115	45538.27	3.6540	3.6539	0.5069	5.98	-0.01	0.750			
0.7130	45632.05	3.6510	3.6511	0.4682	5.99	-0.00	0.750			
0.7144	45718.80	3.6480	3.6479	0.4297	5.99	-0.00	0.750			
0.7156	45796.72	3.6450	3.6452	0.3909	5.99	0.00	0.750			
0.7167	45867.65	3.6420	3.6420	0.3534	5.99	0.00	0.750			
0.7177	45931.36	3.6390	3.6390	0.3162	5.99	0.00	0.750			
0.7186	45988.52	3.6360	3.6359	0.2827	6.00	0.01	0.750			
0.7194	46040.35	3.6330	3.6331	0.2467	6.00	0.01	0.750			
0.7201	46084.60	3.6300	3.6299	0.2117	6.00	0.01	0.750			
0.7207	46123.27	3.6270	3.6269	0.1782	6.00	0.01	0.750			
0.7212	46154.13	3.6240	3.6241	0.1395	6.00	0.01	0.750			
0.7215	46177.31	3.6210	3.6215	0.0995	6.00	0.01	0.750			
0.7218	46194.37	3.6180	3.6184	0.0549	6.00	0.01	0.750			
0.7219	46200.48	3.6150	3.6160	0.0087	6.00	0.01	0.750			
