Ah_balance (normalized)	Ah_balance (mAh)	Voltage - fit (V)	Voltage -  interpolate (V)	dQ/dV (1/V)	Temperature (°C)	Temperature - diff (°C)	Current (C)	R_DC 0ms (mOhm)	R_DC 50ms (mOhm)	R_DC 50 ms PEC (mOhm)
0.0940	6015.70	4.0070	4.0070	-0.0941	6.00	0.01	-0.750			
0.0943	6036.58	4.0040	4.0039	-0.1205	6.00	0.01	-0.750			
0.0947	6062.08	4.0010	4.0009	-0.1451	6.00	0.01	-0.750			
0.0952	6092.51	3.9980	3.9981	-0.1688	6.00	0.01	-0.750			
0.0957	6127.23	3.9950	3.9950	-0.1924	5.99	0.00	-0.750			
0.0964	6167.05	3.9920	3.9919	-0.2157	5.99	0.00	-0.750			
0.0970	6210.22	3.9890	3.9891	-0.2395	5.99	-0.00	-0.750			
0.0978	6258.26	3.9860	3.9859	-0.2621	5.99	-0.00	-0.750			
0.0986	6310.41	3.9830	3.9830	-0.2880	5.98	-0.01	-0.750			
0.0995	6368.36	3.9800	3.9800	-0.3110	5.98	-0.01	-0.750			
0.1005	6430.79	3.9770	3.9770	-0.3325	5.98	-0.01	-0.750			
0.1015	6496.84	3.9740	3.9741	-0.3576	5.98	-0.01	-0.750			
0.1026	6568.06	3.9710	3.9710	-0.3803	5.97	-0.02	-0.750			
0.1038	6643.12	3.9680	3.9680	-0.4019	5.97	-0.02	-0.750			
0.1050	6722.44	3.9650	3.9649	-0.4254	5.96	-0.03	-0.750			
0.1063	6805.51	3.9620	3.9620	-0.4497	5.96	-0.03	-0.750			
0.1077	6895.00	3.9590	3.9590	-0.4745	5.96	-0.03	-0.750			
0.1092	6988.55	3.9560	3.9561	-0.4958	5.95	-0.04	-0.750			
0.1107	7085.83	3.9530	3.9530	-0.5159	5.95	-0.04	-0.750			
0.1123	7187.65	3.9500	3.9500	-0.5385	5.95	-0.04	-0.750			
0.1140	7293.43	3.9470	3.9470	-0.5562	5.96	-0.03	-0.750			
0.1157	7401.86	3.9440	3.9440	-0.5720	5.96	-0.03	-0.750			
0.1174	7513.50	3.9410	3.9410	-0.5885	5.96	-0.03	-0.750			
0.1192	7628.96	3.9380	3.9380	-0.6031	5.97	-0.02	-0.750			
0.1210	7746.56	3.9350	3.9350	-0.6166	5.97	-0.02	-0.750			
0.1229	7865.52	3.9320	3.9320	-0.6304	5.97	-0.02	-0.750			
0.1248	7988.24	3.9290	3.9291	-0.6396	5.97	-0.02	-0.750			
0.1268	8112.71	3.9260	3.9260	-0.6508	5.97	-0.02	-0.750			
0.1287	8239.92	3.9230	3.9230	-0.6633	5.96	-0.03	-0.750			
0.1308	8368.34	3.9200	3.9199	-0.6711	5.96	-0.03	-0.750			
0.1328	8499.01	3.9170	3.9169	-0.6795	5.96	-0.03	-0.750			
0.1348	8630.19	3.9140	3.9141	-0.6815	5.96	-0.03	-0.750			
0.1369	8761.08	3.9110	3.9110	-0.6849	5.96	-0.03	-0.750			
0.1389	8891.99	3.9080	3.9080	-0.6986	5.96	-0.03	-0.750			
0.1410	9025.40	3.9050	3.9050	-0.6974	5.97	-0.02	-0.750			
0.1432	9163.10	3.9020	3.9019	-0.7094	5.97	-0.02	-0.750			
0.1453	9299.46	3.8990	3.8990	-0.7159	5.97	-0.02	-0.750			
0.1475	9438.74	3.8960	3.8961	-0.7204	5.97	-0.02	-0.750			
0.1497	9577.98	3.8930	3.8929	-0.7233	5.97	-0.02	-0.750			
0.1518	9716.48	3.8900	3.8900	-0.7275	5.98	-0.01	-0.750			
0.1540	9855.09	3.8870	3.8871	-0.7278	5.98	-0.01	-0.750			
0.1562	9997.59	3.8840	3.8839	-0.7359	5.98	-0.01	-0.750			
0.1584	10139.81	3.8810	3.8809	-0.7359	5.99	-0.00	-0.750			
0.1606	10280.07	3.8780	3.8779	-0.7347	5.99	0.00	-0.750			
0.1628	10421.70	3.8750	3.8750	-0.7390	6.00	0.01	-0.750			
0.1650	10562.34	3.8720	3.8720	-0.7473	6.01	0.02	-0.750			
0.1673	10705.98	3.8690	3.8689	-0.7456	6.02	0.03	-0.750			
0.1696	10852.19	3.8660	3.8659	-0.7538	6.02	0.03	-0.750			
0.1718	10997.42	3.8630	3.8634	-0.7565	6.03	0.04	-0.750			
0.1741	11144.80	3.8600	3.8599	-0.7595	6.03	0.04	-0.750			
0.1764	11289.72	3.8570	3.8569	-0.7563	6.04	0.05	-0.750			
0.1786	11432.55	3.8540	3.8540	-0.7505	6.04	0.05	-0.750			
0.1809	11577.28	3.8510	3.8511	-0.7573	6.04	0.05	-0.750			
0.1832	11722.98	3.8480	3.8479	-0.7579	6.05	0.06	-0.750			
0.1854	11868.08	3.8450	3.8450	-0.7563	6.05	0.06	-0.750			
0.1877	12012.92	3.8420	3.8420	-0.7583	6.06	0.07	-0.750			
0.1900	12159.98	3.8390	3.8390	-0.7578	6.06	0.07	-0.750			
0.1922	12303.90	3.8360	3.8360	-0.7575	6.06	0.07	-0.750			
0.1945	12449.59	3.8330	3.8330	-0.7613	6.07	0.08	-0.750			
0.1968	12594.99	3.8300	3.8302	-0.7619	6.07	0.08	-0.750			
0.1991	12742.94	3.8270	3.8269	-0.7647	6.08	0.09	-0.750			
0.2014	12890.24	3.8240	3.8241	-0.7693	6.08	0.09	-0.750			
0.2037	13038.96	3.8210	3.8210	-0.7678	6.09	0.10	-0.750			
0.2061	13188.62	3.8180	3.8180	-0.7681	6.10	0.11	-0.750			
0.2083	13333.92	3.8150	3.8150	-0.7622	6.11	0.12	-0.750			
0.2106	13478.76	3.8120	3.8121	-0.7594	6.11	0.12	-0.750			
0.2129	13624.23	3.8090	3.8089	-0.7587	6.12	0.13	-0.750			
0.2152	13769.92	3.8060	3.8059	-0.7619	6.12	0.13	-0.750			
0.2174	13915.65	3.8030	3.8031	-0.7612	6.12	0.13	-0.750			
0.2197	14063.59	3.8000	3.8000	-0.7650	6.13	0.14	-0.750			
0.2221	14211.31	3.7970	3.7972	-0.7665	6.13	0.14	-0.750			
0.2243	14358.30	3.7940	3.7940	-0.7668	6.14	0.15	-0.750			
0.2266	14505.37	3.7910	3.7910	-0.7639	6.15	0.16	-0.750			
0.2289	14652.57	3.7880	3.7879	-0.7590	6.15	0.16	-0.750			
0.2312	14798.27	3.7850	3.7850	-0.7608	6.16	0.17	-0.750			
0.2335	14943.38	3.7820	3.7820	-0.7551	6.17	0.18	-0.750			
0.2357	15087.58	3.7790	3.7789	-0.7539	6.17	0.18	-0.750			
0.2380	15230.66	3.7760	3.7759	-0.7578	6.18	0.19	-0.750			
0.2402	15374.59	3.7730	3.7731	-0.7610	6.18	0.19	-0.750			
0.2425	15521.94	3.7700	3.7700	-0.7671	6.18	0.19	-0.750			
0.2449	15671.97	3.7670	3.7670	-0.7728	6.19	0.20	-0.750			
0.2472	15819.42	3.7640	3.7643	-0.7764	6.19	0.20	-0.750			
0.2495	15969.06	3.7610	3.7609	-0.7803	6.19	0.20	-0.750			
0.2519	16119.36	3.7580	3.7580	-0.7862	6.20	0.21	-0.750			
0.2542	16271.48	3.7550	3.7550	-0.7856	6.20	0.21	-0.750			
0.2566	16422.53	3.7520	3.7520	-0.7889	6.21	0.22	-0.750			
0.2590	16574.88	3.7490	3.7490	-0.7897	6.21	0.22	-0.750			
0.2613	16726.01	3.7460	3.7460	-0.7919	6.21	0.22	-0.750			
0.2637	16876.69	3.7430	3.7429	-0.7954	6.22	0.23	-0.750			
0.2661	17029.39	3.7400	3.7401	-0.7984	6.22	0.23	-0.750			
0.2685	17183.18	3.7370	3.7369	-0.8031	6.22	0.23	-0.750			
0.2710	17340.85	3.7340	3.7340	-0.8098	6.23	0.24	-0.750			
0.2734	17495.68	3.7310	3.7310	-0.8090	6.23	0.24	-0.750			
0.2758	17650.14	3.7280	3.7280	-0.8174	6.24	0.25	-0.750			
0.2782	17807.58	3.7250	3.7250	-0.8180	6.25	0.26	-0.750			
0.2807	17962.61	3.7220	3.7219	-0.8230	6.25	0.26	-0.750			
0.2832	18123.75	3.7190	3.7189	-0.8274	6.26	0.27	-0.750			
0.2857	18282.32	3.7160	3.7160	-0.8321	6.26	0.27	-0.750			
0.2882	18443.56	3.7130	3.7130	-0.8473	6.26	0.27	-0.750			
0.2907	18606.74	3.7100	3.7100	-0.8525	6.27	0.28	-0.750			
0.2933	18769.71	3.7070	3.7069	-0.8552	6.27	0.28	-0.750			
0.2959	18936.90	3.7040	3.7040	-0.8673	6.27	0.28	-0.750			
0.2985	19103.42	3.7010	3.7009	-0.8741	6.27	0.28	-0.750			
0.3011	19273.10	3.6980	3.6979	-0.8822	6.28	0.29	-0.750			
0.3038	19441.80	3.6950	3.6950	-0.8857	6.29	0.30	-0.750			
0.3064	19611.60	3.6920	3.6920	-0.8923	6.29	0.30	-0.750			
0.3092	19786.59	3.6890	3.6890	-0.9024	6.30	0.31	-0.750			
0.3118	19957.78	3.6860	3.6860	-0.9201	6.31	0.32	-0.750			
0.3146	20136.57	3.6830	3.6830	-0.9256	6.31	0.32	-0.750			
0.3174	20316.22	3.6800	3.6799	-0.9307	6.32	0.33	-0.750			
0.3202	20495.91	3.6770	3.6769	-0.9418	6.33	0.34	-0.750			
0.3231	20678.74	3.6740	3.6740	-0.9456	6.33	0.34	-0.750			
0.3260	20860.84	3.6710	3.6709	-0.9550	6.33	0.34	-0.750			
0.3288	21044.17	3.6680	3.6680	-0.9612	6.32	0.33	-0.750			
0.3317	21225.93	3.6650	3.6650	-0.9636	6.32	0.33	-0.750			
0.3346	21415.43	3.6620	3.6622	-0.9824	6.32	0.33	-0.750			
0.3376	21605.18	3.6590	3.6589	-0.9956	6.32	0.33	-0.750			
0.3406	21796.20	3.6560	3.6560	-1.0042	6.32	0.33	-0.750			
0.3436	21991.63	3.6530	3.6530	-1.0122	6.33	0.34	-0.750			
0.3467	22188.03	3.6500	3.6501	-1.0210	6.33	0.34	-0.750			
0.3498	22384.22	3.6470	3.6470	-1.0318	6.33	0.34	-0.750			
0.3529	22582.41	3.6440	3.6439	-1.0373	6.33	0.34	-0.750			
0.3560	22782.03	3.6410	3.6409	-1.0429	6.33	0.34	-0.750			
0.3591	22980.07	3.6380	3.6380	-1.0614	6.33	0.34	-0.750			
0.3623	23186.12	3.6350	3.6350	-1.0730	6.33	0.34	-0.750			
0.3656	23396.23	3.6320	3.6319	-1.0709	6.34	0.35	-0.750			
0.3688	23600.85	3.6290	3.6289	-1.0791	6.35	0.36	-0.750			
0.3720	23807.35	3.6260	3.6265	-1.0988	6.35	0.36	-0.750			
0.3753	24019.36	3.6230	3.6228	-1.1085	6.35	0.36	-0.750			
0.3786	24232.05	3.6200	3.6199	-1.1201	6.35	0.36	-0.750			
0.3820	24447.42	3.6170	3.6170	-1.1323	6.35	0.36	-0.750			
0.3855	24669.59	3.6140	3.6141	-1.1570	6.35	0.36	-0.750			
0.3890	24894.79	3.6110	3.6109	-1.1711	6.35	0.36	-0.750			
0.3924	25116.22	3.6080	3.6080	-1.1825	6.35	0.36	-0.750			
0.3960	25342.88	3.6050	3.6050	-1.2052	6.35	0.36	-0.750			
0.3996	25577.09	3.6020	3.6019	-1.2389	6.35	0.36	-0.750			
0.4035	25820.82	3.5990	3.5989	-1.2499	6.35	0.36	-0.750			
0.4072	26063.84	3.5960	3.5959	-1.2635	6.35	0.36	-0.750			
0.4111	26308.45	3.5930	3.5930	-1.2720	6.35	0.36	-0.750			
0.4149	26555.58	3.5900	3.5899	-1.2840	6.35	0.36	-0.750	0.498	1.096	
0.4188	26801.43	3.5870	3.5869	-1.2854	6.35	0.36	-0.750			
0.4226	27046.03	3.5840	3.5840	-1.2969	6.35	0.36	-0.750			
0.4265	27298.38	3.5810	3.5811	-1.2984	6.35	0.36	-0.750			
0.4305	27553.08	3.5780	3.5779	-1.3137	6.35	0.36	-0.750			
0.4344	27804.28	3.5750	3.5753	-1.3347	6.35	0.36	-0.750			
0.4384	28060.63	3.5720	3.5719	-1.3456	6.35	0.36	-0.750			
0.4425	28319.83	3.5690	3.5688	-1.3588	6.36	0.37	-0.750			
0.4466	28582.99	3.5660	3.5664	-1.3794	6.36	0.37	-0.750			
0.4508	28853.81	3.5630	3.5629	-1.3991	6.36	0.37	-0.750			
0.4550	29120.71	3.5600	3.5600	-1.4259	6.37	0.38	-0.750			
0.4593	29395.10	3.5570	3.5573	-1.4444	6.37	0.38	-0.750			
0.4638	29681.05	3.5540	3.5538	-1.4713	6.37	0.38	-0.750			
0.4682	29965.73	3.5510	3.5508	-1.4767	6.37	0.38	-0.750			
0.4727	30252.75	3.5480	3.5481	-1.4760	6.37	0.38	-0.750			
0.4771	30537.06	3.5450	3.5453	-1.4912	6.37	0.38	-0.750			
0.4815	30819.13	3.5420	3.5418	-1.4955	6.38	0.39	-0.750			
0.4858	31093.60	3.5390	3.5391	-1.5016	6.38	0.39	-0.750			
0.4905	31392.03	3.5360	3.5359	-1.5326	6.38	0.39	-0.750			
0.4952	31693.57	3.5330	3.5330	-1.5593	6.39	0.40	-0.750			
0.4999	31995.58	3.5300	3.5298	-1.5552	6.39	0.40	-0.750			
0.5046	32293.09	3.5270	3.5268	-1.5890	6.39	0.40	-0.750			
0.5094	32600.58	3.5240	3.5243	-1.5787	6.39	0.40	-0.750			
0.5142	32907.33	3.5210	3.5208	-1.5840	6.40	0.41	-0.750			
0.5189	33207.00	3.5180	3.5179	-1.5762	6.41	0.42	-0.750			
0.5237	33514.07	3.5150	3.5151	-1.5869	6.41	0.42	-0.750			
0.5284	33817.61	3.5120	3.5119	-1.6075	6.42	0.43	-0.750			
0.5332	34124.15	3.5090	3.5088	-1.6012	6.42	0.43	-0.750			
0.5379	34427.19	3.5060	3.5062	-1.6006	6.42	0.43	-0.750			
0.5430	34750.69	3.5030	3.5030	-1.6234	6.43	0.44	-0.750			
0.5478	35058.04	3.5000	3.5001	-1.6171	6.43	0.44	-0.750			
0.5526	35368.45	3.4970	3.4974	-1.5992	6.43	0.44	-0.750			
0.5574	35672.82	3.4940	3.4937	-1.5884	6.43	0.44	-0.750			
0.5621	35974.85	3.4910	3.4909	-1.5755	6.44	0.45	-0.750			
0.5668	36275.19	3.4880	3.4879	-1.5775	6.45	0.46	-0.750			
0.5716	36580.25	3.4850	3.4850	-1.5748	6.47	0.48	-0.750			
0.5762	36877.35	3.4820	3.4820	-1.5510	6.48	0.49	-0.750			
0.5809	37176.59	3.4790	3.4789	-1.5442	6.48	0.49	-0.750			
0.5856	37476.40	3.4760	3.4761	-1.5370	6.49	0.50	-0.750			
0.5902	37770.79	3.4730	3.4731	-1.5244	6.50	0.51	-0.750			
0.5947	38063.58	3.4700	3.4699	-1.5111	6.52	0.53	-0.750			
0.5992	38348.82	3.4670	3.4671	-1.4873	6.53	0.54	-0.750			
0.6037	38636.70	3.4640	3.4640	-1.5013	6.54	0.55	-0.750			
0.6082	38926.32	3.4610	3.4609	-1.4855	6.55	0.56	-0.750			
0.6127	39211.00	3.4580	3.4578	-1.4643	6.56	0.57	-0.750			
0.6171	39491.75	3.4550	3.4553	-1.4479	6.57	0.58	-0.750			
0.6214	39769.45	3.4520	3.4521	-1.4441	6.59	0.60	-0.750			
0.6257	40045.54	3.4490	3.4488	-1.4215	6.60	0.61	-0.750			
0.6299	40314.47	3.4460	3.4458	-1.3917	6.60	0.61	-0.750			
0.6340	40574.99	3.4430	3.4435	-1.3961	6.61	0.62	-0.750			
0.6383	40849.78	3.4400	3.4399	-1.3961	6.63	0.64	-0.750			
0.6425	41120.44	3.4370	3.4368	-1.3831	6.65	0.66	-0.750			
0.6466	41384.39	3.4340	3.4343	-1.3629	6.67	0.68	-0.750			
0.6508	41649.72	3.4310	3.4310	-1.3449	6.68	0.69	-0.750			
0.6548	41906.98	3.4280	3.4280	-1.3042	6.70	0.71	-0.750			
0.6586	42153.58	3.4250	3.4251	-1.2557	6.71	0.72	-0.750			
0.6623	42386.64	3.4220	3.4220	-1.2178	6.72	0.73	-0.750			
0.6659	42616.04	3.4190	3.4190	-1.1835	6.74	0.75	-0.750			
0.6693	42837.26	3.4160	3.4159	-1.1499	6.76	0.77	-0.750			
0.6727	43053.37	3.4130	3.4131	-1.1261	6.77	0.78	-0.750			
0.6761	43270.68	3.4100	3.4100	-1.1053	6.78	0.79	-0.750			
0.6794	43480.72	3.4070	3.4070	-1.0770	6.79	0.80	-0.750			
0.6826	43685.13	3.4040	3.4040	-1.0446	6.80	0.81	-0.750			
0.6857	43884.76	3.4010	3.4011	-1.0205	6.82	0.83	-0.750			
0.6887	44076.97	3.3980	3.3979	-0.9993	6.83	0.84	-0.750			
0.6917	44266.12	3.3950	3.3949	-0.9698	6.85	0.86	-0.750			
0.6945	44449.47	3.3920	3.3919	-0.9400	6.86	0.87	-0.750			
0.6973	44628.70	3.3890	3.3892	-0.9161	6.87	0.88	-0.750			
0.7000	44802.76	3.3860	3.3860	-0.8922	6.89	0.90	-0.750			
0.7027	44971.35	3.3830	3.3829	-0.8690	6.90	0.91	-0.750			
0.7052	45133.75	3.3800	3.3800	-0.8415	6.91	0.92	-0.750			
0.7077	45294.83	3.3770	3.3769	-0.8196	6.92	0.93	-0.750			
0.7102	45450.21	3.3740	3.3741	-0.7960	6.93	0.94	-0.750			
0.7125	45600.69	3.3710	3.3710	-0.7740	6.95	0.96	-0.750			
0.7148	45745.60	3.3680	3.3680	-0.7530	6.96	0.97	-0.750			
0.7170	45886.67	3.3650	3.3649	-0.7290	6.97	0.98	-0.750			
0.7192	46026.52	3.3620	3.3620	-0.7129	6.98	0.99	-0.750			
0.7213	46162.28	3.3590	3.3590	-0.6927	6.99	1.00	-0.750			
0.7233	46293.60	3.3560	3.3559	-0.6741	7.00	1.01	-0.750			
0.7253	46420.65	3.3530	3.3530	-0.6520	7.01	1.02	-0.750			
0.7272	46543.33	3.3500	3.3500	-0.6342	7.02	1.03	-0.750			
0.7291	46664.66	3.3470	3.3470	-0.6438	7.03	1.04	-0.750			
