Ah_balance (normalized)	Ah_balance (mAh)	Voltage - fit (V)	Voltage -  interpolate (V)	dQ/dV (1/V)	Temperature (°C)	Temperature - diff (°C)	Current (C)	R_DC 0ms (mOhm)	R_DC 50ms (mOhm)	R_DC 50 ms PEC (mOhm)
-0.3458	-22130.58	4.0790	4.0790	0.7856	7.30	1.31	0.750			
-0.3434	-21980.04	4.0760	4.0761	0.7901	7.30	1.31	0.750			
-0.3410	-21825.94	4.0730	4.0730	0.7914	7.30	1.31	0.750			
-0.3387	-21674.62	4.0700	4.0701	0.7936	7.29	1.30	0.750			
-0.3363	-21521.72	4.0670	4.0671	0.7966	7.29	1.30	0.750			
-0.3339	-21369.93	4.0640	4.0638	0.8011	7.29	1.30	0.750			
-0.3315	-21215.24	4.0610	4.0610	0.8033	7.29	1.30	0.750			
-0.3291	-21060.62	4.0580	4.0580	0.8035	7.28	1.29	0.750			
-0.3267	-20906.35	4.0550	4.0551	0.8094	7.28	1.29	0.750			
-0.3242	-20749.98	4.0520	4.0521	0.8120	7.27	1.28	0.750			
-0.3218	-20594.61	4.0490	4.0488	0.8173	7.27	1.28	0.750			
-0.3193	-20437.53	4.0460	4.0461	0.8211	7.27	1.28	0.750			
-0.3169	-20279.32	4.0430	4.0431	0.8237	7.26	1.27	0.750			
-0.3143	-20117.75	4.0400	4.0400	0.8299	7.26	1.27	0.750			
-0.3119	-19959.36	4.0370	4.0371	0.8258	7.25	1.26	0.750			
-0.3094	-19800.99	4.0340	4.0340	0.8293	7.25	1.26	0.750			
-0.3069	-19641.12	4.0310	4.0310	0.8297	7.25	1.26	0.750			
-0.3044	-19482.55	4.0280	4.0280	0.8308	7.25	1.26	0.750			
-0.3019	-19323.32	4.0250	4.0250	0.8354	7.25	1.26	0.750			
-0.2994	-19163.19	4.0220	4.0221	0.8402	7.25	1.26	0.750			
-0.2969	-19000.59	4.0190	4.0189	0.8451	7.25	1.26	0.750			
-0.2943	-18837.80	4.0160	4.0160	0.8483	7.24	1.25	0.750			
-0.2918	-18674.36	4.0130	4.0130	0.8483	7.24	1.25	0.750			
-0.2892	-18509.73	4.0100	4.0100	0.8512	7.23	1.24	0.750			
-0.2867	-18348.08	4.0070	4.0070	0.8509	7.22	1.23	0.750			
-0.2841	-18185.22	4.0040	4.0038	0.8549	7.21	1.22	0.750			
-0.2816	-18021.68	4.0010	4.0010	0.8578	7.21	1.22	0.750			
-0.2790	-17855.90	3.9980	3.9980	0.8642	7.21	1.22	0.750			
-0.2764	-17688.46	3.9950	3.9950	0.8692	7.20	1.21	0.750			
-0.2738	-17522.20	3.9920	3.9921	0.8731	7.20	1.21	0.750			
-0.2711	-17352.59	3.9890	3.9891	0.8793	7.20	1.21	0.750			
-0.2685	-17183.04	3.9860	3.9859	0.8801	7.20	1.21	0.750			
-0.2658	-17014.06	3.9830	3.9830	0.8822	7.20	1.21	0.750			
-0.2632	-16844.58	3.9800	3.9801	0.8876	7.19	1.20	0.750			
-0.2605	-16672.95	3.9770	3.9771	0.8912	7.19	1.20	0.750			
-0.2578	-16502.20	3.9740	3.9740	0.8950	7.19	1.20	0.750			
-0.2552	-16330.66	3.9710	3.9709	0.8922	7.18	1.19	0.750			
-0.2525	-16159.26	3.9680	3.9681	0.8982	7.18	1.19	0.750			
-0.2498	-15986.16	3.9650	3.9650	0.9051	7.18	1.19	0.750			
-0.2471	-15812.99	3.9620	3.9619	0.9065	7.17	1.18	0.750			
-0.2444	-15638.63	3.9590	3.9590	0.9081	7.17	1.18	0.750			
-0.2416	-15463.34	3.9560	3.9561	0.9154	7.16	1.17	0.750			
-0.2389	-15287.28	3.9530	3.9530	0.9217	7.16	1.17	0.750			
-0.2361	-15108.24	3.9500	3.9500	0.9291	7.15	1.16	0.750			
-0.2333	-14931.49	3.9470	3.9470	0.9295	7.15	1.16	0.750			
-0.2305	-14752.11	3.9440	3.9440	0.9359	7.14	1.15	0.750			
-0.2277	-14572.70	3.9410	3.9411	0.9471	7.14	1.15	0.750			
-0.2248	-14389.22	3.9380	3.9379	0.9523	7.13	1.14	0.750			
-0.2220	-14206.83	3.9350	3.9350	0.9609	7.12	1.13	0.750			
-0.2191	-14021.32	3.9320	3.9320	0.9670	7.11	1.12	0.750			
-0.2162	-13834.01	3.9290	3.9291	0.9788	7.11	1.12	0.750			
-0.2132	-13644.00	3.9260	3.9260	0.9874	7.10	1.11	0.750			
-0.2102	-13453.60	3.9230	3.9230	0.9929	7.09	1.10	0.750			
-0.2072	-13262.71	3.9200	3.9201	0.9971	7.09	1.10	0.750			
-0.2042	-13069.40	3.9170	3.9170	1.0042	7.08	1.09	0.750			
-0.2012	-12877.79	3.9140	3.9140	1.0057	7.08	1.09	0.750			
-0.1982	-12685.05	3.9110	3.9110	1.0079	7.07	1.08	0.750			
-0.1952	-12489.86	3.9080	3.9080	1.0132	7.07	1.08	0.750			
-0.1921	-12296.51	3.9050	3.9050	1.0254	7.06	1.07	0.750			
-0.1891	-12099.45	3.9020	3.9020	1.0387	7.05	1.06	0.750			
-0.1859	-11899.15	3.8990	3.8990	1.0520	7.04	1.05	0.750			
-0.1827	-11694.25	3.8960	3.8960	1.0626	7.03	1.04	0.750			
-0.1795	-11489.39	3.8930	3.8930	1.0812	7.02	1.03	0.750			
-0.1763	-11280.06	3.8900	3.8900	1.0974	7.02	1.03	0.750			
-0.1729	-11067.88	3.8870	3.8870	1.1126	7.01	1.02	0.750			
-0.1696	-10853.41	3.8840	3.8840	1.1208	7.01	1.02	0.750			
-0.1662	-10635.95	3.8810	3.8810	1.1351	7.00	1.01	0.750			
-0.1628	-10416.90	3.8780	3.8780	1.1530	6.99	1.00	0.750			
-0.1593	-10193.44	3.8750	3.8750	1.1691	6.98	0.99	0.750			
-0.1558	-9969.81	3.8720	3.8720	1.1829	6.97	0.98	0.750			
-0.1522	-9740.02	3.8690	3.8690	1.1997	6.96	0.97	0.750			
-0.1485	-9506.52	3.8660	3.8659	1.2135	6.96	0.97	0.750			
-0.1449	-9271.89	3.8630	3.8631	1.2300	6.95	0.96	0.750			
-0.1412	-9035.67	3.8600	3.8600	1.2466	6.94	0.95	0.750			
-0.1374	-8796.24	3.8570	3.8570	1.2626	6.94	0.95	0.750			
-0.1336	-8552.24	3.8540	3.8539	1.2832	6.93	0.94	0.750			
-0.1298	-8305.00	3.8510	3.8510	1.3081	6.92	0.93	0.750			
-0.1258	-8051.33	3.8480	3.8480	1.3401	6.90	0.91	0.750			
-0.1218	-7792.33	3.8450	3.8450	1.3731	6.89	0.90	0.750			
-0.1176	-7526.14	3.8420	3.8420	1.4024	6.88	0.89	0.750			
-0.1133	-7250.23	3.8390	3.8389	1.4280	6.86	0.87	0.750			
-0.1090	-6974.13	3.8360	3.8359	1.4628	6.85	0.86	0.750	0.448	1.038	
-0.1045	-6690.84	3.8330	3.8331	1.4954	6.84	0.85	0.750			
-0.1000	-6398.93	3.8300	3.8300	1.5179	6.82	0.83	0.750			
-0.0954	-6105.58	3.8270	3.8269	1.5471	6.81	0.82	0.750			
-0.0907	-5807.93	3.8240	3.8241	1.5732	6.80	0.81	0.750			
-0.0859	-5500.80	3.8210	3.8210	1.5967	6.79	0.80	0.750			
-0.0811	-5190.67	3.8180	3.8180	1.6251	6.78	0.79	0.750			
-0.0763	-4882.49	3.8150	3.8150	1.6559	6.77	0.78	0.750			
-0.0713	-4560.15	3.8120	3.8119	1.6886	6.75	0.76	0.750			
-0.0661	-4233.20	3.8090	3.8090	1.7203	6.73	0.74	0.750			
-0.0609	-3898.52	3.8060	3.8061	1.7687	6.71	0.72	0.750			
-0.0556	-3555.43	3.8030	3.8031	1.8152	6.69	0.70	0.750			
-0.0500	-3202.04	3.8000	3.7999	1.8603	6.68	0.69	0.750			
-0.0444	-2839.35	3.7970	3.7970	1.9028	6.66	0.67	0.750			
-0.0386	-2472.17	3.7940	3.7940	1.9303	6.63	0.64	0.750			
-0.0328	-2101.96	3.7910	3.7910	1.9816	6.61	0.62	0.750			
-0.0268	-1717.60	3.7880	3.7880	2.0113	6.59	0.60	0.750			
-0.0207	-1325.56	3.7850	3.7850	2.0703	6.57	0.58	0.750			
-0.0144	-920.61	3.7820	3.7820	2.1243	6.54	0.55	0.750			
-0.0079	-506.85	3.7790	3.7791	2.1237	6.51	0.52	0.750			
-0.0016	-101.92	3.7760	3.7761	2.1448	6.49	0.50	0.750			
0.0049	315.26	3.7730	3.7729	2.1626	6.46	0.47	0.750			
0.0113	724.93	3.7700	3.7701	2.1950	6.43	0.44	0.750			
0.0181	1157.97	3.7670	3.7670	2.2374	6.40	0.41	0.750			
0.0248	1587.25	3.7640	3.7639	2.2737	6.38	0.39	0.750			
0.0317	2031.39	3.7610	3.7610	2.3415	6.35	0.36	0.750			
0.0388	2484.00	3.7580	3.7581	2.3306	6.32	0.33	0.750			
0.0459	2935.48	3.7550	3.7551	2.4026	6.29	0.30	0.750			
0.0531	3395.96	3.7520	3.7518	2.4369	6.26	0.27	0.750			
0.0605	3871.59	3.7490	3.7490	2.5141	6.23	0.24	0.750			
0.0682	4362.93	3.7460	3.7460	2.6340	6.20	0.21	0.750			
0.0762	4879.05	3.7430	3.7430	2.6957	6.18	0.19	0.750			
0.0846	5416.71	3.7400	3.7401	2.8153	6.14	0.15	0.750			
0.0932	5966.65	3.7370	3.7370	2.8801	6.11	0.12	0.750			
0.1019	6523.26	3.7340	3.7340	2.9686	6.09	0.10	0.750			
0.1109	7099.77	3.7310	3.7310	2.9922	6.07	0.08	0.750			
0.1199	7676.12	3.7280	3.7280	2.9280	6.04	0.05	0.750			
0.1286	8232.49	3.7250	3.7248	2.7899	6.03	0.04	0.750			
0.1369	8763.79	3.7220	3.7219	2.6125	6.00	0.01	0.750			
0.1446	9257.01	3.7190	3.7190	2.4135	5.98	-0.01	0.750			
0.1514	9690.88	3.7160	3.7161	2.1346	5.97	-0.02	0.750			
0.1574	10071.02	3.7130	3.7130	1.8753	5.97	-0.02	0.750			
0.1625	10401.28	3.7100	3.7101	1.6565	5.97	-0.02	0.750			
0.1672	10699.05	3.7070	3.7070	1.4631	5.97	-0.02	0.750			
0.1711	10948.55	3.7040	3.7040	1.2911	5.97	-0.02	0.750			
0.1746	11173.77	3.7010	3.7010	1.1504	5.97	-0.02	0.750			
0.1777	11375.75	3.6980	3.6980	1.0521	5.97	-0.02	0.750			
0.1807	11562.35	3.6950	3.6950	0.9616	5.97	-0.02	0.750			
0.1834	11739.52	3.6920	3.6920	0.9002	5.97	-0.02	0.750			
0.1860	11904.17	3.6890	3.6889	0.8438	5.97	-0.02	0.750			
0.1885	12061.16	3.6860	3.6861	0.7933	5.97	-0.02	0.750			
0.1908	12208.39	3.6830	3.6829	0.7436	5.97	-0.02	0.750			
0.1929	12347.06	3.6800	3.6800	0.6943	5.97	-0.02	0.750			
0.1949	12475.36	3.6770	3.6770	0.6437	5.98	-0.01	0.750			
0.1968	12593.92	3.6740	3.6739	0.5940	5.98	-0.01	0.750			
0.1985	12703.51	3.6710	3.6711	0.5405	5.98	-0.01	0.750			
0.2000	12802.15	3.6680	3.6679	0.4892	5.98	-0.01	0.750			
0.2014	12890.63	3.6650	3.6651	0.4407	5.99	-0.00	0.750			
0.2026	12969.38	3.6620	3.6620	0.3965	5.99	-0.00	0.750			
0.2037	13039.47	3.6590	3.6590	0.3541	5.99	0.00	0.750			
0.2047	13102.89	3.6560	3.6560	0.3145	5.99	0.00	0.750			
0.2056	13158.77	3.6530	3.6530	0.2784	5.99	0.00	0.750			
0.2064	13210.53	3.6500	3.6499	0.2421	5.99	0.00	0.750			
0.2071	13253.75	3.6470	3.6470	0.2043	6.00	0.01	0.750			
0.2077	13289.62	3.6440	3.6441	0.1654	6.00	0.01	0.750			
0.2081	13318.24	3.6410	3.6413	0.1254	6.00	0.01	0.750			
0.2084	13339.15	3.6380	3.6384	0.0811	6.00	0.01	0.750			
0.2086	13350.58	3.6350	3.6359	0.0308	6.00	0.01	0.750			
