Ah_balance (normalized)	Ah_balance (mAh)	Voltage - fit (V)	Voltage -  interpolate (V)	dQ/dV (1/V)	Temperature (°C)	Temperature - diff (°C)	Current (C)	R_DC 0ms (mOhm)	R_DC 50ms (mOhm)	R_DC 50 ms PEC (mOhm)
0.1779	11387.11	4.0810	4.0811	0.7452	7.54	1.55	0.750			
0.1802	11530.98	4.0780	4.0779	0.7560	7.53	1.54	0.750			
0.1825	11679.03	4.0750	4.0751	0.7621	7.53	1.54	0.750			
0.1848	11826.12	4.0720	4.0721	0.7626	7.52	1.53	0.750			
0.1871	11972.90	4.0690	4.0690	0.7631	7.51	1.52	0.750			
0.1894	12119.89	4.0660	4.0660	0.7701	7.51	1.52	0.750			
0.1917	12265.74	4.0630	4.0630	0.7700	7.50	1.51	0.750			
0.1940	12413.05	4.0600	4.0594	0.7723	7.49	1.50	0.750			
0.1963	12563.46	4.0570	4.0571	0.7771	7.49	1.50	0.750			
0.1987	12714.52	4.0540	4.0541	0.7857	7.48	1.49	0.750			
0.2010	12865.61	4.0510	4.0510	0.7938	7.48	1.49	0.750			
0.2034	13016.29	4.0480	4.0480	0.7917	7.48	1.49	0.750			
0.2058	13169.48	4.0450	4.0449	0.7967	7.47	1.48	0.750			
0.2082	13324.61	4.0420	4.0420	0.8026	7.46	1.47	0.750			
0.2107	13483.02	4.0390	4.0390	0.7991	7.46	1.47	0.750			
0.2130	13635.20	4.0360	4.0360	0.7988	7.45	1.46	0.750			
0.2154	13786.99	4.0330	4.0330	0.7978	7.44	1.45	0.750			
0.2178	13937.48	4.0300	4.0302	0.8037	7.43	1.44	0.750			
0.2202	14092.80	4.0270	4.0270	0.8143	7.43	1.44	0.750			
0.2227	14252.36	4.0240	4.0239	0.8098	7.42	1.43	0.750			
0.2251	14409.01	4.0210	4.0211	0.8197	7.41	1.42	0.750			
0.2276	14567.08	4.0180	4.0181	0.8220	7.40	1.41	0.750			
0.2301	14725.54	4.0150	4.0151	0.8200	7.39	1.40	0.750			
0.2325	14881.49	4.0120	4.0122	0.8236	7.39	1.40	0.750			
0.2350	15039.48	4.0090	4.0090	0.8259	7.38	1.39	0.750			
0.2375	15199.42	4.0060	4.0061	0.8319	7.38	1.39	0.750			
0.2400	15360.76	4.0030	4.0030	0.8383	7.38	1.39	0.750			
0.2425	15522.16	4.0000	4.0000	0.8400	7.37	1.38	0.750			
0.2451	15684.02	3.9970	3.9970	0.8459	7.37	1.38	0.750			
0.2476	15846.13	3.9940	3.9940	0.8462	7.36	1.37	0.750			
0.2501	16008.15	3.9910	3.9910	0.8480	7.35	1.36	0.750			
0.2527	16171.66	3.9880	3.9880	0.8609	7.34	1.35	0.750			
0.2553	16337.08	3.9850	3.9851	0.8686	7.33	1.34	0.750			
0.2579	16506.08	3.9820	3.9819	0.8676	7.33	1.34	0.750			
0.2606	16675.56	3.9790	3.9791	0.8668	7.32	1.33	0.750			
0.2631	16840.80	3.9760	3.9761	0.8720	7.31	1.32	0.750			
0.2657	17007.80	3.9730	3.9731	0.8774	7.31	1.32	0.750			
0.2684	17175.14	3.9700	3.9697	0.8790	7.30	1.31	0.750			
0.2710	17342.44	3.9670	3.9670	0.8806	7.29	1.30	0.750			
0.2736	17513.13	3.9640	3.9641	0.8850	7.29	1.30	0.750			
0.2763	17684.49	3.9610	3.9610	0.8927	7.28	1.29	0.750			
0.2790	17857.53	3.9580	3.9580	0.8966	7.27	1.28	0.750			
0.2817	18026.50	3.9550	3.9549	0.8954	7.26	1.27	0.750			
0.2844	18200.32	3.9520	3.9520	0.8979	7.25	1.26	0.750			
0.2871	18374.47	3.9490	3.9491	0.9072	7.25	1.26	0.750			
0.2898	18549.18	3.9460	3.9460	0.9145	7.24	1.25	0.750			
0.2926	18723.88	3.9430	3.9431	0.9192	7.23	1.24	0.750			
0.2954	18902.42	3.9400	3.9400	0.9244	7.23	1.24	0.750			
0.2981	19078.13	3.9370	3.9370	0.9300	7.22	1.23	0.750			
0.3009	19257.56	3.9340	3.9341	0.9370	7.21	1.22	0.750			
0.3037	19438.68	3.9310	3.9310	0.9473	7.20	1.21	0.750			
0.3065	19618.89	3.9280	3.9277	0.9557	7.19	1.20	0.750			
0.3094	19804.24	3.9250	3.9252	0.9581	7.18	1.19	0.750			
0.3123	19989.23	3.9220	3.9220	0.9682	7.16	1.17	0.750			
0.3153	20178.40	3.9190	3.9190	0.9794	7.15	1.16	0.750			
0.3182	20364.08	3.9160	3.9160	0.9804	7.13	1.14	0.750			
0.3212	20555.75	3.9130	3.9130	0.9712	7.13	1.14	0.750			
0.3241	20742.26	3.9100	3.9100	0.9894	7.12	1.13	0.750			
0.3270	20930.67	3.9070	3.9072	1.0066	7.12	1.13	0.750			
0.3301	21123.79	3.9040	3.9041	1.0207	7.11	1.12	0.750			
0.3333	21329.46	3.9010	3.9010	1.0091	7.10	1.11	0.750			
0.3363	21521.41	3.8980	3.8982	1.0287	7.10	1.11	0.750			
0.3393	21718.26	3.8950	3.8952	1.0462	7.09	1.10	0.750			
0.3425	21921.43	3.8920	3.8922	1.0682	7.08	1.09	0.750			
0.3457	22123.58	3.8890	3.8890	1.0666	7.06	1.07	0.750			
0.3489	22332.04	3.8860	3.8862	1.0777	7.05	1.06	0.750			
0.3522	22542.43	3.8830	3.8833	1.1000	7.04	1.05	0.750			
0.3556	22759.00	3.8800	3.8799	1.1155	7.03	1.04	0.750			
0.3590	22974.77	3.8770	3.8768	1.0759	7.02	1.03	0.750			
0.3621	23175.26	3.8740	3.8741	1.1082	7.01	1.02	0.750			
0.3655	23388.95	3.8710	3.8712	1.1295	7.00	1.01	0.750			
0.3689	23608.28	3.8680	3.8673	1.1554	6.99	1.00	0.750			
0.3723	23829.81	3.8650	3.8651	1.1574	6.98	0.99	0.750			
0.3758	24049.65	3.8620	3.8624	1.1871	6.97	0.98	0.750			
0.3794	24282.68	3.8590	3.8592	1.2202	6.96	0.97	0.750			
0.3832	24522.26	3.8560	3.8562	1.2091	6.94	0.95	0.750			
0.3868	24755.87	3.8530	3.8533	1.2356	6.93	0.94	0.750			
0.3907	25006.63	3.8500	3.8502	1.2347	6.92	0.93	0.750			
0.3943	25235.71	3.8470	3.8464	1.2860	6.91	0.92	0.750			
0.3981	25478.58	3.8440	3.8443	1.2945	6.90	0.91	0.750			
0.4020	25726.25	3.8410	3.8410	1.3900	6.88	0.89	0.750	0.364	0.857	
0.4062	25997.51	3.8380	3.8383	1.4719	6.87	0.88	0.750			
0.4109	26297.56	3.8350	3.8350	1.4978	6.86	0.87	0.750			
0.4158	26608.92	3.8320	3.8321	1.5535	6.84	0.85	0.750			
0.4204	26906.10	3.8290	3.8292	1.5310	6.83	0.84	0.750			
0.4250	27201.69	3.8260	3.8260	1.5083	6.81	0.82	0.750			
0.4296	27491.32	3.8230	3.8231	1.5163	6.80	0.81	0.750			
0.4339	27772.25	3.8200	3.8202	1.5361	6.78	0.79	0.750			
0.4386	28067.39	3.8170	3.8167	1.5534	6.77	0.78	0.750			
0.4433	28369.06	3.8140	3.8140	1.5732	6.75	0.76	0.750			
0.4480	28674.70	3.8110	3.8112	1.5891	6.74	0.75	0.750			
0.4529	28985.85	3.8080	3.8080	1.6267	6.72	0.73	0.750			
0.4577	29294.92	3.8050	3.8052	1.6358	6.70	0.71	0.750			
0.4626	29604.24	3.8020	3.8022	1.6544	6.68	0.69	0.750			
0.4675	29920.74	3.7990	3.7991	1.7077	6.66	0.67	0.750			
0.4728	30260.21	3.7960	3.7961	1.7449	6.64	0.65	0.750			
0.4781	30597.84	3.7930	3.7931	1.7592	6.62	0.63	0.750			
0.4835	30943.96	3.7900	3.7902	1.7977	6.60	0.61	0.750			
0.4889	31290.29	3.7870	3.7871	1.8222	6.59	0.60	0.750			
0.4946	31654.73	3.7840	3.7837	1.8213	6.57	0.58	0.750			
0.5003	32016.76	3.7810	3.7805	1.7976	6.54	0.55	0.750			
0.5054	32347.39	3.7780	3.7775	1.8419	6.52	0.53	0.750			
0.5110	32703.23	3.7750	3.7751	1.8556	6.50	0.51	0.750			
0.5166	33062.32	3.7720	3.7722	1.8608	6.48	0.49	0.750			
0.5224	33434.91	3.7690	3.7686	1.9180	6.45	0.46	0.750			
0.5279	33787.96	3.7660	3.7659	1.8828	6.43	0.44	0.750			
0.5334	34134.52	3.7630	3.7627	1.9089	6.40	0.41	0.750			
0.5392	34511.42	3.7600	3.7598	1.9335	6.39	0.40	0.750			
0.5451	34888.29	3.7570	3.7570	1.9617	6.37	0.38	0.750			
0.5509	35259.44	3.7540	3.7538	1.9943	6.35	0.36	0.750			
0.5571	35653.47	3.7510	3.7510	2.0019	6.33	0.34	0.750			
0.5632	36043.24	3.7480	3.7477	2.0778	6.31	0.32	0.750			
0.5695	36448.12	3.7450	3.7455	2.1746	6.29	0.30	0.750			
0.5760	36866.82	3.7420	3.7420	2.2640	6.26	0.27	0.750			
0.5832	37323.74	3.7390	3.7391	2.3411	6.24	0.25	0.750			
0.5903	37778.88	3.7360	3.7361	2.3393	6.22	0.23	0.750			
0.5974	38231.63	3.7330	3.7329	2.3785	6.20	0.21	0.750			
0.6046	38693.58	3.7300	3.7301	2.4093	6.18	0.19	0.750			
0.6119	39159.45	3.7270	3.7270	2.3827	6.15	0.16	0.750			
0.6188	39603.92	3.7240	3.7241	2.3518	6.13	0.14	0.750			
0.6258	40053.20	3.7210	3.7209	2.2691	6.11	0.12	0.750			
0.6329	40502.45	3.7180	3.7179	2.1705	6.09	0.10	0.750			
0.6393	40914.31	3.7150	3.7149	2.0360	6.08	0.09	0.750			
0.6450	41283.13	3.7120	3.7121	1.8239	6.07	0.08	0.750			
0.6501	41608.20	3.7090	3.7091	1.6395	6.05	0.06	0.750			
0.6547	41901.74	3.7060	3.7060	1.4707	6.04	0.05	0.750			
0.6588	42163.38	3.7030	3.7030	1.2908	6.03	0.04	0.750			
0.6623	42388.83	3.7000	3.7001	1.1786	6.02	0.03	0.750			
0.6656	42595.37	3.6970	3.6971	1.0984	6.02	0.03	0.750			
0.6687	42796.86	3.6940	3.6935	1.0380	6.01	0.02	0.750			
0.6717	42986.53	3.6910	3.6911	0.9767	6.01	0.02	0.750			
0.6745	43168.54	3.6880	3.6882	0.9387	6.00	0.01	0.750			
0.6773	43345.67	3.6850	3.6851	0.9077	6.00	0.01	0.750			
0.6800	43521.29	3.6820	3.6819	0.8814	5.99	0.00	0.750			
0.6825	43680.04	3.6790	3.6789	0.8341	5.99	0.00	0.750			
0.6850	43837.28	3.6760	3.6760	0.8065	5.99	0.00	0.750			
0.6874	43991.82	3.6730	3.6731	0.7714	5.99	0.00	0.750			
0.6896	44137.00	3.6700	3.6701	0.7399	5.99	0.00	0.750			
0.6918	44274.49	3.6670	3.6670	0.7039	5.99	0.00	0.750			
0.6938	44405.86	3.6640	3.6637	0.6733	5.99	0.00	0.750			
0.6958	44531.04	3.6610	3.6610	0.6400	5.99	0.00	0.750			
0.6977	44652.12	3.6580	3.6580	0.6106	5.99	0.00	0.750			
0.6995	44767.80	3.6550	3.6551	0.5820	5.99	0.00	0.750			
0.7012	44878.95	3.6520	3.6519	0.5429	5.99	0.00	0.750			
0.7028	44978.61	3.6490	3.6491	0.5096	5.99	0.00	0.750			
0.7042	45071.79	3.6460	3.6459	0.4745	5.99	0.00	0.750			
0.7056	45159.20	3.6430	3.6431	0.4432	5.99	0.00	0.750			
0.7069	45240.84	3.6400	3.6397	0.4121	5.99	0.00	0.750			
0.7081	45316.74	3.6370	3.6371	0.3800	5.99	0.00	0.750			
0.7092	45388.33	3.6340	3.6341	0.3483	5.99	0.00	0.750			
0.7102	45453.57	3.6310	3.6310	0.3158	5.99	0.00	0.750			
0.7111	45510.60	3.6280	3.6281	0.2770	5.99	0.00	0.750			
0.7119	45561.73	3.6250	3.6249	0.2380	5.99	0.00	0.750			
0.7126	45603.81	3.6220	3.6219	0.1978	5.99	0.00	0.750			
0.7131	45638.17	3.6190	3.6190	0.1567	5.99	0.00	0.750			
0.7135	45664.12	3.6160	3.6162	0.1145	5.99	0.00	0.750			
0.7138	45682.95	3.6130	3.6132	0.0719	5.99	0.00	0.750			
0.7140	45693.59	3.6100	3.6094	0.0256	5.99	0.00	0.751			
0.7140	45694.07	3.6070	3.6092	-0.0207	5.99	0.00	0.751			
