Ah_balance (normalized)	Ah_balance (mAh)	Voltage - fit (V)	Voltage -  interpolate (V)	dQ/dV (1/V)	Temperature (°C)	Temperature - diff (°C)	Current (C)	R_DC 0ms (mOhm)	R_DC 50ms (mOhm)	R_DC 50 ms PEC (mOhm)
0.0951	6084.17	4.0040	4.0035	-0.0868	5.99	0.01	-0.750			
0.0954	6103.53	4.0010	4.0009	-0.1148	5.99	0.01	-0.750			
0.0958	6128.71	3.9980	3.9978	-0.1419	5.99	0.01	-0.750			
0.0962	6159.84	3.9950	3.9949	-0.1642	5.99	0.01	-0.750			
0.0968	6193.02	3.9920	3.9922	-0.1887	5.99	0.01	-0.750			
0.0974	6231.36	3.9890	3.9891	-0.2141	5.98	0.00	-0.750			
0.0980	6274.60	3.9860	3.9861	-0.2405	5.98	0.00	-0.750			
0.0988	6322.59	3.9830	3.9827	-0.2661	5.98	0.00	-0.750			
0.0996	6375.33	3.9800	3.9800	-0.2944	5.98	0.00	-0.750			
0.1006	6435.81	3.9770	3.9770	-0.3164	5.98	0.00	-0.750			
0.1016	6499.71	3.9740	3.9741	-0.3405	5.98	0.00	-0.750			
0.1027	6570.65	3.9710	3.9709	-0.3540	5.98	0.00	-0.750			
0.1037	6639.88	3.9680	3.9679	-0.3665	5.98	-0.00	-0.750			
0.1048	6707.81	3.9650	3.9652	-0.3980	5.98	-0.00	-0.750			
0.1060	6784.90	3.9620	3.9620	-0.4298	5.98	-0.00	-0.750			
0.1074	6871.63	3.9590	3.9585	-0.4463	5.98	-0.00	-0.750			
0.1088	6962.07	3.9560	3.9561	-0.4694	5.98	-0.00	-0.750			
0.1102	7054.27	3.9530	3.9534	-0.5058	5.97	-0.01	-0.750			
0.1118	7155.45	3.9500	3.9501	-0.5348	5.97	-0.01	-0.750			
0.1134	7259.48	3.9470	3.9465	-0.5559	5.97	-0.01	-0.750			
0.1151	7366.77	3.9440	3.9436	-0.5750	5.97	-0.01	-0.750			
0.1169	7482.14	3.9410	3.9412	-0.5964	5.97	-0.01	-0.750			
0.1188	7602.17	3.9380	3.9381	-0.6173	5.97	-0.01	-0.750			
0.1207	7723.17	3.9350	3.9350	-0.6272	5.97	-0.01	-0.750			
0.1226	7844.84	3.9320	3.9319	-0.6382	5.97	-0.01	-0.750			
0.1245	7965.46	3.9290	3.9290	-0.6391	5.97	-0.01	-0.750			
0.1264	8089.07	3.9260	3.9260	-0.6454	5.97	-0.01	-0.750			
0.1283	8213.77	3.9230	3.9233	-0.6546	5.97	-0.01	-0.750			
0.1303	8339.80	3.9200	3.9200	-0.6616	5.97	-0.01	-0.750			
0.1323	8465.94	3.9170	3.9170	-0.6692	5.98	-0.00	-0.750			
0.1343	8595.68	3.9140	3.9140	-0.6786	5.98	-0.00	-0.750			
0.1364	8727.25	3.9110	3.9110	-0.6883	5.98	0.00	-0.750			
0.1385	8861.36	3.9080	3.9080	-0.6936	5.99	0.01	-0.750			
0.1406	8995.79	3.9050	3.9051	-0.6996	5.99	0.01	-0.750			
0.1427	9130.31	3.9020	3.9020	-0.7044	5.99	0.01	-0.750			
0.1448	9265.59	3.8990	3.8990	-0.7090	6.00	0.02	-0.750			
0.1469	9402.16	3.8960	3.8960	-0.7212	6.00	0.02	-0.750			
0.1491	9542.37	3.8930	3.8930	-0.7219	6.00	0.02	-0.750			
0.1513	9683.14	3.8900	3.8899	-0.7261	6.01	0.03	-0.750			
0.1535	9823.51	3.8870	3.8873	-0.7256	6.01	0.03	-0.750			
0.1557	9962.28	3.8840	3.8840	-0.7268	6.01	0.03	-0.750			
0.1578	10099.64	3.8810	3.8810	-0.7365	6.02	0.04	-0.750			
0.1600	10241.32	3.8780	3.8779	-0.7320	6.02	0.04	-0.750			
0.1622	10383.78	3.8750	3.8749	-0.7404	6.02	0.04	-0.750			
0.1645	10525.79	3.8720	3.8720	-0.7478	6.03	0.05	-0.750			
0.1667	10671.00	3.8690	3.8688	-0.7484	6.03	0.05	-0.750			
0.1690	10814.94	3.8660	3.8659	-0.7499	6.04	0.06	-0.750			
0.1712	10957.60	3.8630	3.8631	-0.7490	6.05	0.07	-0.750			
0.1735	11101.20	3.8600	3.8601	-0.7469	6.05	0.07	-0.750			
0.1757	11247.98	3.8570	3.8569	-0.7551	6.06	0.08	-0.750			
0.1780	11391.60	3.8540	3.8541	-0.7502	6.07	0.09	-0.750			
0.1802	11534.88	3.8510	3.8510	-0.7472	6.08	0.10	-0.750			
0.1825	11678.59	3.8480	3.8481	-0.7549	6.08	0.10	-0.750			
0.1847	11822.35	3.8450	3.8450	-0.7561	6.09	0.11	-0.750			
0.1870	11967.46	3.8420	3.8418	-0.7581	6.10	0.12	-0.750			
0.1893	12115.11	3.8390	3.8389	-0.7618	6.11	0.13	-0.750			
0.1916	12261.07	3.8360	3.8361	-0.7622	6.11	0.13	-0.750			
0.1939	12407.95	3.8330	3.8331	-0.7695	6.12	0.14	-0.750			
0.1962	12556.83	3.8300	3.8300	-0.7684	6.13	0.15	-0.750			
0.1985	12703.00	3.8270	3.8269	-0.7608	6.13	0.15	-0.750			
0.2008	12850.05	3.8240	3.8240	-0.7625	6.14	0.16	-0.750			
0.2031	12996.40	3.8210	3.8213	-0.7619	6.15	0.17	-0.750			
0.2053	13141.70	3.8180	3.8179	-0.7604	6.16	0.18	-0.750			
0.2076	13285.43	3.8150	3.8150	-0.7644	6.16	0.18	-0.750			
0.2099	13434.06	3.8120	3.8120	-0.7596	6.17	0.19	-0.750			
0.2122	13581.45	3.8090	3.8090	-0.7641	6.18	0.20	-0.750			
0.2145	13728.01	3.8060	3.8060	-0.7646	6.19	0.21	-0.750			
0.2168	13873.83	3.8030	3.8028	-0.7640	6.19	0.21	-0.750			
0.2191	14019.91	3.8000	3.7999	-0.7672	6.20	0.22	-0.750			
0.2213	14165.44	3.7970	3.7971	-0.7677	6.21	0.23	-0.750			
0.2237	14314.59	3.7940	3.7940	-0.7672	6.22	0.24	-0.750			
0.2260	14465.03	3.7910	3.7910	-0.7742	6.22	0.24	-0.750			
0.2283	14612.53	3.7880	3.7881	-0.7693	6.23	0.25	-0.750			
0.2306	14759.93	3.7850	3.7850	-0.7665	6.24	0.26	-0.750			
0.2329	14906.47	3.7820	3.7819	-0.7652	6.24	0.26	-0.750			
0.2352	15052.71	3.7790	3.7790	-0.7659	6.25	0.27	-0.750			
0.2375	15198.63	3.7760	3.7760	-0.7702	6.26	0.28	-0.750			
0.2398	15347.95	3.7730	3.7729	-0.7737	6.27	0.29	-0.750			
0.2421	15496.98	3.7700	3.7699	-0.7708	6.27	0.29	-0.750			
0.2445	15644.84	3.7670	3.7671	-0.7761	6.28	0.30	-0.750			
0.2468	15793.73	3.7640	3.7640	-0.7809	6.29	0.31	-0.750			
0.2491	15943.46	3.7610	3.7609	-0.7834	6.30	0.32	-0.750			
0.2515	16094.52	3.7580	3.7579	-0.7868	6.30	0.32	-0.750			
0.2538	16245.84	3.7550	3.7552	-0.7877	6.31	0.33	-0.750			
0.2562	16398.59	3.7520	3.7520	-0.7921	6.32	0.34	-0.750			
0.2586	16552.56	3.7490	3.7490	-0.8005	6.33	0.35	-0.750			
0.2610	16706.03	3.7460	3.7460	-0.7968	6.33	0.35	-0.750			
0.2634	16858.49	3.7430	3.7429	-0.7973	6.34	0.36	-0.750			
0.2658	17011.82	3.7400	3.7403	-0.8009	6.35	0.37	-0.750			
0.2682	17165.58	3.7370	3.7370	-0.8039	6.36	0.38	-0.750			
0.2706	17319.75	3.7340	3.7339	-0.8138	6.36	0.38	-0.750			
0.2731	17476.69	3.7310	3.7310	-0.8131	6.37	0.39	-0.750			
0.2755	17634.24	3.7280	3.7279	-0.8236	6.37	0.39	-0.750			
0.2780	17792.83	3.7250	3.7254	-0.8264	6.38	0.40	-0.750			
0.2805	17949.33	3.7220	3.7219	-0.8384	6.39	0.41	-0.750			
0.2830	18110.09	3.7190	3.7190	-0.8577	6.39	0.41	-0.750			
0.2856	18276.16	3.7160	3.7159	-0.8681	6.40	0.42	-0.750			
0.2883	18448.75	3.7130	3.7128	-0.8881	6.40	0.42	-0.750			
0.2910	18622.71	3.7100	3.7102	-0.8884	6.41	0.43	-0.750			
0.2937	18794.84	3.7070	3.7071	-0.8895	6.42	0.44	-0.750			
0.2963	18964.18	3.7040	3.7039	-0.8872	6.43	0.45	-0.750			
0.2989	19128.53	3.7010	3.7010	-0.8742	6.44	0.46	-0.750			
0.3015	19296.22	3.6980	3.6979	-0.8841	6.44	0.46	-0.750			
0.3042	19465.89	3.6950	3.6950	-0.8922	6.45	0.47	-0.750			
0.3069	19638.95	3.6920	3.6921	-0.9078	6.46	0.48	-0.750			
0.3096	19815.42	3.6890	3.6890	-0.9180	6.46	0.48	-0.750			
0.3124	19993.47	3.6860	3.6860	-0.9250	6.46	0.48	-0.750			
0.3152	20172.45	3.6830	3.6831	-0.9346	6.47	0.49	-0.750			
0.3180	20351.69	3.6800	3.6800	-0.9457	6.47	0.49	-0.750			
0.3208	20534.18	3.6770	3.6769	-0.9490	6.48	0.50	-0.750			
0.3237	20716.48	3.6740	3.6740	-0.9556	6.48	0.50	-0.750			
0.3266	20899.79	3.6710	3.6710	-0.9652	6.49	0.51	-0.750			
0.3295	21088.24	3.6680	3.6680	-0.9779	6.49	0.51	-0.750			
0.3325	21276.86	3.6650	3.6649	-0.9914	6.50	0.52	-0.750			
0.3354	21468.47	3.6620	3.6620	-0.9952	6.50	0.52	-0.750			
0.3384	21660.14	3.6590	3.6590	-1.0035	6.51	0.53	-0.750			
0.3415	21854.19	3.6560	3.6562	-1.0167	6.51	0.53	-0.750			
0.3445	22049.63	3.6530	3.6529	-1.0215	6.51	0.53	-0.750			
0.3476	22245.19	3.6500	3.6500	-1.0318	6.52	0.54	-0.750			
0.3507	22443.49	3.6470	3.6469	-1.0425	6.52	0.54	-0.750			
0.3538	22644.59	3.6440	3.6442	-1.0632	6.52	0.54	-0.750			
0.3571	22852.80	3.6410	3.6410	-1.0705	6.52	0.54	-0.750			
0.3603	23059.62	3.6380	3.6380	-1.0786	6.53	0.55	-0.750			
0.3636	23267.61	3.6350	3.6349	-1.0877	6.53	0.55	-0.750			
0.3668	23477.86	3.6320	3.6321	-1.1001	6.53	0.55	-0.750			
0.3701	23688.74	3.6290	3.6289	-1.1087	6.53	0.55	-0.750			
0.3735	23901.84	3.6260	3.6260	-1.1194	6.53	0.55	-0.750			
0.3768	24115.87	3.6230	3.6230	-1.1229	6.53	0.55	-0.750			
0.3803	24336.38	3.6200	3.6198	-1.1427	6.53	0.55	-0.750			
0.3837	24556.99	3.6170	3.6170	-1.1502	6.54	0.56	-0.750			
0.3872	24777.89	3.6140	3.6139	-1.1615	6.54	0.56	-0.750			
0.3906	25000.38	3.6110	3.6111	-1.1702	6.55	0.57	-0.750			
0.3942	25230.43	3.6080	3.6079	-1.1912	6.55	0.57	-0.750			
0.3978	25459.39	3.6050	3.6050	-1.2010	6.55	0.57	-0.750			
0.4014	25691.63	3.6020	3.6019	-1.2155	6.55	0.57	-0.750			
0.4051	25927.16	3.5990	3.5989	-1.2337	6.55	0.57	-0.750			
0.4088	26165.03	3.5960	3.5959	-1.2408	6.55	0.57	-0.750			
0.4126	26403.83	3.5930	3.5929	-1.2488	6.55	0.57	-0.750	0.456	1.051	
0.4163	26642.98	3.5900	3.5902	-1.2610	6.55	0.57	-0.750			
0.4202	26890.35	3.5870	3.5869	-1.2770	6.55	0.57	-0.750			
0.4240	27135.35	3.5840	3.5840	-1.2824	6.55	0.57	-0.750			
0.4278	27380.00	3.5810	3.5810	-1.3031	6.55	0.57	-0.750			
0.4318	27634.11	3.5780	3.5780	-1.3230	6.55	0.57	-0.750			
0.4358	27889.48	3.5750	3.5749	-1.3356	6.55	0.57	-0.750			
0.4398	28146.76	3.5720	3.5721	-1.3534	6.55	0.57	-0.750			
0.4439	28408.02	3.5690	3.5690	-1.3672	6.55	0.57	-0.750			
0.4481	28676.41	3.5660	3.5660	-1.3815	6.55	0.57	-0.750			
0.4522	28942.22	3.5630	3.5630	-1.3923	6.55	0.57	-0.750			
0.4564	29207.64	3.5600	3.5599	-1.3967	6.55	0.57	-0.750			
0.4606	29479.12	3.5570	3.5570	-1.4123	6.55	0.57	-0.750			
0.4648	29750.35	3.5540	3.5540	-1.4278	6.55	0.57	-0.750			
0.4691	30024.08	3.5510	3.5509	-1.4454	6.55	0.57	-0.750			
0.4736	30307.43	3.5480	3.5479	-1.4629	6.55	0.57	-0.750			
0.4780	30591.59	3.5450	3.5452	-1.4779	6.55	0.57	-0.750			
0.4825	30877.47	3.5420	3.5421	-1.4903	6.55	0.57	-0.750			
0.4870	31167.33	3.5390	3.5389	-1.5044	6.56	0.58	-0.750			
0.4915	31455.02	3.5360	3.5361	-1.5145	6.56	0.58	-0.750			
0.4960	31746.12	3.5330	3.5332	-1.5230	6.56	0.58	-0.750			
0.5006	32036.76	3.5300	3.5298	-1.5410	6.57	0.59	-0.750			
0.5053	32339.23	3.5270	3.5270	-1.5528	6.57	0.59	-0.750			
0.5100	32642.38	3.5240	3.5240	-1.5687	6.57	0.59	-0.750			
0.5148	32947.63	3.5210	3.5211	-1.5804	6.57	0.59	-0.750			
0.5195	33249.19	3.5180	3.5178	-1.5726	6.58	0.60	-0.750			
0.5243	33552.41	3.5150	3.5152	-1.5787	6.58	0.60	-0.750			
0.5291	33865.29	3.5120	3.5120	-1.5393	6.59	0.61	-0.750			
0.5337	34159.95	3.5090	3.5091	-1.4958	6.59	0.61	-0.750			
0.5382	34446.03	3.5060	3.5059	-1.4710	6.59	0.61	-0.750			
0.5424	34716.13	3.5030	3.5035	-1.4540	6.59	0.61	-0.750			
0.5466	34984.10	3.5000	3.4998	-1.4623	6.59	0.61	-0.750			
0.5509	35256.33	3.4970	3.4968	-1.4768	6.59	0.61	-0.750			
0.5554	35548.06	3.4940	3.4940	-1.4970	6.59	0.61	-0.750			
0.5601	35848.15	3.4910	3.4911	-1.5499	6.60	0.62	-0.750			
0.5650	36157.97	3.4880	3.4881	-1.5568	6.61	0.63	-0.750			
0.5696	36454.59	3.4850	3.4850	-1.5590	6.61	0.63	-0.750			
0.5743	36756.96	3.4820	3.4818	-1.5558	6.61	0.63	-0.750			
0.5789	37051.03	3.4790	3.4790	-1.5430	6.61	0.63	-0.750			
0.5836	37350.87	3.4760	3.4758	-1.5314	6.62	0.64	-0.750			
0.5883	37649.43	3.4730	3.4731	-1.5397	6.63	0.65	-0.750			
0.5929	37943.77	3.4700	3.4698	-1.5302	6.63	0.65	-0.750			
0.5975	38242.22	3.4670	3.4668	-1.5193	6.64	0.66	-0.750			
0.6020	38527.13	3.4640	3.4642	-1.4881	6.65	0.67	-0.750			
0.6065	38815.28	3.4610	3.4609	-1.4771	6.66	0.68	-0.750			
0.6109	39099.17	3.4580	3.4579	-1.4705	6.67	0.69	-0.750			
0.6153	39376.60	3.4550	3.4551	-1.4520	6.68	0.70	-0.750			
0.6196	39651.23	3.4520	3.4519	-1.4310	6.69	0.71	-0.750			
0.6239	39927.99	3.4490	3.4488	-1.4192	6.70	0.72	-0.750			
0.6282	40202.57	3.4460	3.4462	-1.4103	6.71	0.73	-0.750			
0.6324	40472.03	3.4430	3.4429	-1.3860	6.72	0.74	-0.750			
0.6366	40739.66	3.4400	3.4399	-1.3642	6.74	0.76	-0.750			
0.6405	40995.00	3.4370	3.4373	-1.3277	6.75	0.77	-0.750			
0.6446	41251.78	3.4340	3.4339	-1.3141	6.76	0.78	-0.750			
0.6484	41498.38	3.4310	3.4310	-1.2889	6.77	0.79	-0.750			
0.6522	41739.84	3.4280	3.4280	-1.2641	6.79	0.81	-0.750			
0.6560	41984.57	3.4250	3.4250	-1.2506	6.80	0.82	-0.750			
0.6597	42222.04	3.4220	3.4220	-1.2247	6.81	0.83	-0.750			
0.6634	42457.76	3.4190	3.4190	-1.2011	6.82	0.84	-0.750			
0.6670	42686.01	3.4160	3.4160	-1.1787	6.83	0.85	-0.750			
0.6705	42910.84	3.4130	3.4129	-1.1484	6.85	0.87	-0.750			
0.6739	43127.14	3.4100	3.4100	-1.1194	6.86	0.88	-0.750			
0.6772	43339.39	3.4070	3.4069	-1.0894	6.87	0.89	-0.750			
0.6804	43546.01	3.4040	3.4039	-1.0638	6.88	0.90	-0.750			
0.6835	43746.58	3.4010	3.4010	-1.0340	6.89	0.91	-0.750			
0.6866	43941.40	3.3980	3.3980	-1.0078	6.90	0.92	-0.750			
0.6896	44131.34	3.3950	3.3949	-0.9758	6.92	0.94	-0.750			
0.6925	44320.15	3.3920	3.3919	-0.9546	6.93	0.95	-0.750			
0.6953	44499.70	3.3890	3.3890	-0.9298	6.94	0.96	-0.750			
0.6981	44677.63	3.3860	3.3860	-0.9031	6.95	0.97	-0.750			
0.7007	44846.91	3.3830	3.3829	-0.8733	6.96	0.98	-0.750			
0.7033	45012.39	3.3800	3.3802	-0.8540	6.97	0.99	-0.750			
0.7058	45173.79	3.3770	3.3769	-0.8263	6.98	1.00	-0.750			
0.7083	45330.20	3.3740	3.3739	-0.8091	6.99	1.01	-0.750			
0.7107	45483.10	3.3710	3.3710	-0.7846	7.01	1.03	-0.750			
0.7130	45633.20	3.3680	3.3680	-0.7667	7.02	1.04	-0.750			
0.7153	45778.02	3.3650	3.3652	-0.7447	7.03	1.05	-0.750			
0.7175	45918.50	3.3620	3.3619	-0.7222	7.04	1.06	-0.750			
0.7196	46054.21	3.3590	3.3591	-0.7022	7.05	1.07	-0.750			
0.7217	46186.85	3.3560	3.3559	-0.6858	7.06	1.08	-0.750			
0.7237	46314.55	3.3530	3.3531	-0.6715	7.07	1.09	-0.750			
0.7257	46443.82	3.3500	3.3499	-0.6544	7.09	1.11	-0.750			
0.7276	46568.61	3.3470	3.3469	-0.6523	7.10	1.12	-0.750			
