Ah_balance (normalized)	Ah_balance (mAh)	Voltage - fit (V)	Voltage -  interpolate (V)	dQ/dV (1/V)	Temperature (°C)	Temperature - diff (°C)	Current (C)	R_DC 0ms (mOhm)	R_DC 50ms (mOhm)	R_DC 50 ms PEC (mOhm)
0.0005	33.02	4.1600	4.1599	-0.1600	25.10	0.00	-0.750			
0.0011	68.82	4.1570	4.1568	-0.2108	25.10	0.00	-0.750			
0.0018	114.26	4.1540	4.1540	-0.2600	25.10	0.00	-0.750			
0.0026	169.25	4.1510	4.1510	-0.3078	25.10	0.00	-0.750			
0.0036	233.29	4.1480	4.1480	-0.3563	25.10	0.00	-0.750			
0.0048	306.43	4.1450	4.1450	-0.4028	25.10	0.00	-0.750			
0.0061	388.09	4.1420	4.1420	-0.4488	25.10	0.00	-0.750			
0.0075	479.40	4.1390	4.1390	-0.4926	25.10	-0.00	-0.750			
0.0090	578.70	4.1360	4.1360	-0.5343	25.10	-0.00	-0.750			
0.0107	686.47	4.1330	4.1330	-0.5692	25.10	-0.00	-0.750			
0.0125	800.53	4.1300	4.1300	-0.6028	25.09	-0.01	-0.750			
0.0144	920.67	4.1270	4.1270	-0.6329	25.09	-0.01	-0.750			
0.0163	1045.69	4.1240	4.1240	-0.6573	25.09	-0.01	-0.750			
0.0184	1175.12	4.1210	4.1210	-0.6769	25.09	-0.01	-0.750			
0.0204	1307.53	4.1180	4.1181	-0.6939	25.09	-0.01	-0.750	0.388	0.507	
0.0226	1443.49	4.1150	4.1150	-0.7074	25.09	-0.01	-0.750			
0.0247	1581.02	4.1120	4.1120	-0.7184	25.09	-0.01	-0.750			
0.0269	1719.99	4.1090	4.1090	-0.7264	25.09	-0.01	-0.750			
0.0291	1860.34	4.1060	4.1060	-0.7328	25.09	-0.01	-0.750			
0.0313	2001.74	4.1030	4.1031	-0.7413	25.09	-0.01	-0.750			
0.0335	2144.85	4.1000	4.1000	-0.7487	25.09	-0.01	-0.750			
0.0358	2289.81	4.0970	4.0970	-0.7548	25.09	-0.01	-0.750			
0.0381	2435.92	4.0940	4.0939	-0.7586	25.09	-0.01	-0.750			
0.0403	2582.15	4.0910	4.0911	-0.7630	25.09	-0.01	-0.750	0.392	0.499	
0.0426	2728.98	4.0880	4.0880	-0.7673	25.09	-0.01	-0.750			
0.0449	2876.38	4.0850	4.0850	-0.7719	25.09	-0.01	-0.750			
0.0473	3024.47	4.0820	4.0820	-0.7740	25.10	-0.00	-0.750			
0.0496	3173.35	4.0790	4.0790	-0.7758	25.10	-0.00	-0.750			
0.0519	3323.73	4.0760	4.0760	-0.7795	25.10	0.00	-0.750			
0.0543	3473.70	4.0730	4.0730	-0.7765	25.11	0.01	-0.750			
0.0566	3621.72	4.0700	4.0701	-0.7789	25.11	0.01	-0.750			
0.0589	3771.16	4.0670	4.0670	-0.7807	25.11	0.01	-0.750	0.410	0.500	
0.0613	3920.71	4.0640	4.0641	-0.7819	25.12	0.02	-0.750			
0.0636	4071.36	4.0610	4.0611	-0.7879	25.12	0.02	-0.750			
0.0660	4223.36	4.0580	4.0580	-0.7935	25.13	0.03	-0.750			
0.0684	4376.93	4.0550	4.0550	-0.7972	25.13	0.03	-0.750			
0.0708	4529.10	4.0520	4.0520	-0.7974	25.13	0.03	-0.750			
0.0732	4683.22	4.0490	4.0490	-0.8012	25.14	0.04	-0.750			
0.0756	4838.30	4.0460	4.0460	-0.8041	25.14	0.04	-0.750			
0.0780	4993.49	4.0430	4.0429	-0.8018	25.14	0.04	-0.750			
0.0804	5147.56	4.0400	4.0400	-0.8001	25.15	0.05	-0.750	0.382	0.502	
0.0828	5300.82	4.0370	4.0370	-0.7994	25.15	0.05	-0.750			
0.0852	5453.69	4.0340	4.0340	-0.7996	25.16	0.06	-0.750			
0.0876	5606.50	4.0310	4.0310	-0.7995	25.16	0.06	-0.750			
0.0900	5759.30	4.0280	4.0280	-0.8021	25.16	0.06	-0.750			
0.0924	5913.52	4.0250	4.0250	-0.8081	25.17	0.07	-0.750			
0.0948	6070.34	4.0220	4.0220	-0.8107	25.17	0.07	-0.750			
0.0973	6227.08	4.0190	4.0189	-0.8103	25.18	0.08	-0.750			
0.0997	6382.77	4.0160	4.0160	-0.8108	25.19	0.09	-0.750	0.398	0.501	
0.1022	6537.78	4.0130	4.0130	-0.8102	25.20	0.10	-0.750			
0.1046	6693.47	4.0100	4.0099	-0.8117	25.20	0.10	-0.750			
0.1070	6848.42	4.0070	4.0070	-0.8108	25.21	0.11	-0.750			
0.1094	7003.57	4.0040	4.0040	-0.8148	25.22	0.12	-0.750			
0.1119	7160.50	4.0010	4.0010	-0.8215	25.22	0.12	-0.750			
0.1144	7320.46	3.9980	3.9979	-0.8209	25.22	0.12	-0.750			
0.1169	7478.66	3.9950	3.9950	-0.8227	25.23	0.13	-0.750			
0.1193	7636.77	3.9920	3.9920	-0.8223	25.23	0.13	-0.750	0.381	0.500	
0.1218	7794.65	3.9890	3.9890	-0.8217	25.24	0.14	-0.750			
0.1242	7951.99	3.9860	3.9859	-0.8229	25.25	0.15	-0.750			
0.1267	8109.16	3.9830	3.9830	-0.8244	25.26	0.16	-0.750			
0.1292	8267.67	3.9800	3.9800	-0.8274	25.26	0.16	-0.750			
0.1317	8427.50	3.9770	3.9771	-0.8298	25.27	0.17	-0.750			
0.1341	8585.24	3.9740	3.9740	-0.8293	25.27	0.17	-0.750			
0.1366	8744.37	3.9710	3.9711	-0.8338	25.28	0.18	-0.750			
0.1391	8903.98	3.9680	3.9679	-0.8375	25.28	0.18	-0.750	0.387	0.491	
0.1416	9065.53	3.9650	3.9652	-0.8431	25.29	0.19	-0.750			
0.1442	9228.52	3.9620	3.9621	-0.8445	25.29	0.19	-0.750			
0.1468	9393.17	3.9590	3.9590	-0.8470	25.30	0.20	-0.750			
0.1493	9556.19	3.9560	3.9560	-0.8454	25.30	0.20	-0.750			
0.1518	9716.03	3.9530	3.9530	-0.8461	25.31	0.21	-0.750			
0.1544	9878.84	3.9500	3.9500	-0.8492	25.32	0.22	-0.750			
0.1569	10042.27	3.9470	3.9470	-0.8523	25.32	0.22	-0.750			
0.1595	10206.45	3.9440	3.9439	-0.8545	25.33	0.23	-0.750	0.375	0.490	
0.1621	10371.39	3.9410	3.9410	-0.8553	25.34	0.24	-0.750			
0.1646	10536.29	3.9380	3.9380	-0.8572	25.35	0.25	-0.750			
0.1672	10700.03	3.9350	3.9350	-0.8583	25.36	0.26	-0.750			
0.1697	10863.85	3.9320	3.9320	-0.8582	25.36	0.26	-0.750			
0.1723	11029.14	3.9290	3.9290	-0.8667	25.37	0.27	-0.750			
0.1749	11196.16	3.9260	3.9260	-0.8711	25.38	0.28	-0.750			
0.1776	11364.48	3.9230	3.9230	-0.8747	25.38	0.28	-0.750			
0.1802	11533.68	3.9200	3.9203	-0.8750	25.39	0.29	-0.750	0.405	0.492	
0.1828	11702.19	3.9170	3.9170	-0.8736	25.40	0.30	-0.750			
0.1855	11869.58	3.9140	3.9140	-0.8747	25.40	0.30	-0.750			
0.1881	12036.61	3.9110	3.9110	-0.8749	25.41	0.31	-0.750			
0.1907	12203.54	3.9080	3.9080	-0.8774	25.42	0.32	-0.750			
0.1933	12372.55	3.9050	3.9050	-0.8829	25.43	0.33	-0.750			
0.1960	12543.64	3.9020	3.9020	-0.8845	25.44	0.34	-0.750			
0.1987	12714.18	3.8990	3.8990	-0.8859	25.44	0.34	-0.750			
0.2013	12884.57	3.8960	3.8960	-0.8863	25.45	0.35	-0.750	0.394	0.490	
0.2040	13053.93	3.8930	3.8929	-0.8873	25.45	0.35	-0.750			
0.2066	13224.01	3.8900	3.8900	-0.8879	25.46	0.36	-0.750			
0.2093	13394.08	3.8870	3.8870	-0.8896	25.47	0.37	-0.750			
0.2120	13566.15	3.8840	3.8840	-0.8942	25.48	0.38	-0.750			
0.2147	13738.78	3.8810	3.8810	-0.8961	25.49	0.39	-0.750			
0.2174	13910.94	3.8780	3.8780	-0.8962	25.50	0.40	-0.750			
0.2201	14083.25	3.8750	3.8751	-0.8953	25.50	0.40	-0.750	0.392	0.495	
0.2227	14254.58	3.8720	3.8720	-0.8946	25.51	0.41	-0.750			
0.2254	14426.87	3.8690	3.8690	-0.8942	25.52	0.42	-0.750			
0.2281	14597.75	3.8660	3.8660	-0.8951	25.52	0.42	-0.750			
0.2308	14769.08	3.8630	3.8631	-0.8977	25.53	0.43	-0.750			
0.2335	14942.34	3.8600	3.8599	-0.9029	25.54	0.44	-0.750			
0.2362	15116.56	3.8570	3.8570	-0.9050	25.54	0.44	-0.750			
0.2389	15290.94	3.8540	3.8540	-0.9051	25.55	0.45	-0.750	0.404	0.495	
0.2416	15464.56	3.8510	3.8511	-0.9052	25.56	0.46	-0.750			
0.2444	15639.42	3.8480	3.8480	-0.9065	25.56	0.46	-0.750			
0.2471	15812.79	3.8450	3.8449	-0.9045	25.57	0.47	-0.750			
0.2498	15985.22	3.8420	3.8420	-0.9020	25.57	0.47	-0.750			
0.2525	16159.88	3.8390	3.8390	-0.9066	25.58	0.48	-0.750			
0.2552	16334.52	3.8360	3.8360	-0.9077	25.59	0.49	-0.750			
0.2579	16508.75	3.8330	3.8329	-0.9076	25.60	0.50	-0.750			
0.2607	16682.94	3.8300	3.8301	-0.9089	25.60	0.50	-0.750	0.382	0.501	
0.2634	16857.56	3.8270	3.8269	-0.9100	25.61	0.51	-0.750			
0.2661	17032.41	3.8240	3.8240	-0.9099	25.62	0.52	-0.750			
0.2689	17206.87	3.8210	3.8211	-0.9094	25.63	0.53	-0.750			
0.2716	17380.95	3.8180	3.8180	-0.9128	25.63	0.53	-0.750			
0.2743	17557.26	3.8150	3.8150	-0.9142	25.64	0.54	-0.750			
0.2771	17732.79	3.8120	3.8120	-0.9152	25.64	0.54	-0.750			
0.2798	17909.52	3.8090	3.8090	-0.9144	25.65	0.55	-0.750	0.394	0.491	
0.2826	18084.63	3.8060	3.8060	-0.9124	25.65	0.55	-0.750			
0.2853	18260.18	3.8030	3.8030	-0.9126	25.66	0.56	-0.750			
0.2880	18435.16	3.8000	3.7999	-0.9087	25.67	0.57	-0.750			
0.2907	18607.84	3.7970	3.7970	-0.9100	25.67	0.57	-0.750			
0.2935	18783.20	3.7940	3.7941	-0.9158	25.68	0.58	-0.750			
0.2963	18960.04	3.7910	3.7909	-0.9158	25.69	0.59	-0.750			
0.2990	19136.94	3.7880	3.7880	-0.9153	25.69	0.59	-0.750	0.400	0.497	
0.3017	19311.57	3.7850	3.7851	-0.9168	25.70	0.60	-0.750			
0.3045	19487.26	3.7820	3.7820	-0.9197	25.71	0.61	-0.750			
0.3073	19664.15	3.7790	3.7790	-0.9224	25.71	0.61	-0.750			
0.3100	19838.68	3.7760	3.7760	-0.9264	25.72	0.62	-0.750			
0.3128	20019.61	3.7730	3.7730	-0.9339	25.73	0.63	-0.750			
0.3157	20201.92	3.7700	3.7700	-0.9355	25.73	0.63	-0.750			
0.3185	20381.66	3.7670	3.7670	-0.9337	25.74	0.64	-0.750			
0.3213	20560.05	3.7640	3.7641	-0.9307	25.75	0.65	-0.750	0.395	0.496	
0.3240	20738.35	3.7610	3.7609	-0.9330	25.75	0.65	-0.750			
0.3268	20915.57	3.7580	3.7580	-0.9333	25.76	0.66	-0.750			
0.3296	21094.07	3.7550	3.7550	-0.9357	25.77	0.67	-0.750			
0.3324	21275.56	3.7520	3.7520	-0.9477	25.77	0.67	-0.750			
0.3353	21458.24	3.7490	3.7490	-0.9535	25.78	0.68	-0.750			
0.3382	21642.26	3.7460	3.7460	-0.9572	25.78	0.68	-0.750			
0.3410	21826.69	3.7430	3.7431	-0.9619	25.79	0.69	-0.750	0.403	0.499	
0.3439	22011.42	3.7400	3.7400	-0.9659	25.79	0.69	-0.750			
0.3468	22196.57	3.7370	3.7370	-0.9750	25.80	0.70	-0.750			
0.3497	22383.64	3.7340	3.7340	-0.9864	25.80	0.70	-0.750			
0.3527	22573.54	3.7310	3.7309	-0.9969	25.80	0.70	-0.750			
0.3557	22766.62	3.7280	3.7280	-1.0081	25.81	0.71	-0.750			
0.3588	22961.77	3.7250	3.7250	-1.0219	25.81	0.71	-0.750	0.373	0.490	
0.3619	23160.01	3.7220	3.7220	-1.0328	25.81	0.71	-0.750			
0.3650	23358.87	3.7190	3.7189	-1.0439	25.81	0.71	-0.750			
0.3681	23558.40	3.7160	3.7161	-1.0545	25.81	0.71	-0.750			
0.3713	23761.69	3.7130	3.7130	-1.0740	25.81	0.71	-0.750			
0.3746	23971.69	3.7100	3.7099	-1.0916	25.82	0.72	-0.750			
0.3778	24182.19	3.7070	3.7070	-1.1059	25.82	0.72	-0.750			
0.3812	24395.38	3.7040	3.7041	-1.1221	25.83	0.73	-0.750	0.390	0.493	
0.3846	24613.64	3.7010	3.7010	-1.1388	25.83	0.73	-0.750			
0.3880	24832.28	3.6980	3.6980	-1.1576	25.83	0.73	-0.750			
0.3915	25055.30	3.6950	3.6950	-1.1728	25.83	0.73	-0.750			
0.3951	25283.27	3.6920	3.6920	-1.1931	25.83	0.73	-0.750			
0.3987	25514.46	3.6890	3.6889	-1.2112	25.83	0.73	-0.750	0.394	0.493	
0.4023	25748.19	3.6860	3.6860	-1.2284	25.83	0.73	-0.750			
0.4060	25984.03	3.6830	3.6830	-1.2522	25.83	0.73	-0.750			
0.4098	26227.92	3.6800	3.6800	-1.2752	25.83	0.73	-0.750			
0.4137	26474.55	3.6770	3.6769	-1.2960	25.83	0.73	-0.750			
0.4176	26725.46	3.6740	3.6740	-1.3218	25.83	0.73	-0.750			
0.4216	26982.11	3.6710	3.6710	-1.3457	25.83	0.73	-0.750	0.366	0.492	
0.4256	27241.28	3.6680	3.6680	-1.3735	25.82	0.72	-0.750			
0.4298	27508.04	3.6650	3.6650	-1.3983	25.81	0.71	-0.750			
0.4341	27779.37	3.6620	3.6619	-1.4232	25.81	0.71	-0.750			
0.4384	28056.78	3.6590	3.6589	-1.4514	25.81	0.71	-0.750	0.394	0.498	
0.4428	28337.85	3.6560	3.6561	-1.4738	25.81	0.71	-0.750			
0.4472	28621.41	3.6530	3.6529	-1.5012	25.80	0.70	-0.750			
0.4517	28911.97	3.6500	3.6499	-1.5283	25.80	0.70	-0.750			
0.4564	29207.13	3.6470	3.6471	-1.5543	25.79	0.69	-0.750			
0.4611	29509.65	3.6440	3.6441	-1.5888	25.78	0.68	-0.750	0.397	0.505	
0.4659	29817.88	3.6410	3.6410	-1.6186	25.77	0.67	-0.750			
0.4708	30132.15	3.6380	3.6379	-1.6426	25.77	0.67	-0.750			
0.4758	30450.13	3.6350	3.6350	-1.6693	25.77	0.67	-0.750			
0.4808	30773.27	3.6320	3.6321	-1.6958	25.77	0.67	-0.750	0.405	0.505	
0.4859	31100.58	3.6290	3.6290	-1.7288	25.76	0.66	-0.750			
0.4912	31434.50	3.6260	3.6259	-1.7600	25.75	0.65	-0.750			
0.4965	31774.88	3.6230	3.6230	-1.7873	25.75	0.65	-0.750			
0.5019	32120.15	3.6200	3.6201	-1.8237	25.74	0.64	-0.750	0.390	0.509	
0.5074	32475.28	3.6170	3.6170	-1.8613	25.73	0.63	-0.750			
0.5131	32835.34	3.6140	3.6140	-1.8943	25.72	0.62	-0.750			
0.5188	33202.05	3.6110	3.6110	-1.9323	25.71	0.61	-0.750	0.385	0.507	
0.5246	33576.84	3.6080	3.6080	-1.9661	25.70	0.60	-0.750			
0.5306	33957.19	3.6050	3.6050	-2.0114	25.69	0.59	-0.750			
0.5367	34348.12	3.6020	3.6020	-2.0486	25.68	0.58	-0.750			
0.5429	34744.12	3.5990	3.5990	-2.0845	25.67	0.57	-0.750	0.399	0.513	
0.5492	35148.76	3.5960	3.5960	-2.1302	25.66	0.56	-0.750			
0.5556	35560.21	3.5930	3.5929	-2.1714	25.65	0.55	-0.750			
0.5622	35981.88	3.5900	3.5900	-2.2151	25.64	0.54	-0.750	0.380	0.518	
0.5690	36413.16	3.5870	3.5870	-2.2644	25.64	0.54	-0.750			
0.5758	36850.97	3.5840	3.5840	-2.3002	25.63	0.53	-0.750			
0.5828	37300.20	3.5810	3.5810	-2.3332	25.63	0.53	-0.750	0.380	0.518	
0.5899	37752.25	3.5780	3.5780	-2.3677	25.62	0.52	-0.750			
0.5970	38208.84	3.5750	3.5750	-2.3931	25.61	0.51	-0.750	0.382	0.521	
0.6043	38672.02	3.5720	3.5721	-2.4160	25.61	0.51	-0.750			
0.6116	39140.23	3.5690	3.5690	-2.4356	25.61	0.51	-0.750			
0.6189	39609.72	3.5660	3.5661	-2.4445	25.61	0.51	-0.750	0.390	0.524	
0.6263	40082.56	3.5630	3.5630	-2.4430	25.60	0.50	-0.750			
0.6337	40554.77	3.5600	3.5600	-2.4352	25.60	0.50	-0.750			
0.6409	41020.69	3.5570	3.5571	-2.4083	25.59	0.49	-0.750	0.387	0.526	
0.6482	41482.87	3.5540	3.5540	-2.3844	25.59	0.49	-0.750			
0.6553	41938.28	3.5510	3.5511	-2.3583	25.59	0.49	-0.750			
0.6623	42388.41	3.5480	3.5480	-2.3254	25.59	0.49	-0.750	0.397	0.530	
0.6693	42832.41	3.5450	3.5450	-2.2896	25.59	0.49	-0.750			
0.6761	43271.90	3.5420	3.5420	-2.2417	25.60	0.50	-0.750			
0.6828	43700.12	3.5390	3.5390	-2.1933	25.60	0.50	-0.750	0.382	0.534	
0.6893	44116.28	3.5360	3.5360	-2.1361	25.61	0.51	-0.750			
0.6956	44521.14	3.5330	3.5330	-2.0777	25.61	0.51	-0.750			
0.7018	44912.16	3.5300	3.5301	-2.0160	25.62	0.52	-0.750	0.378	0.540	
0.7077	45295.35	3.5270	3.5270	-1.9584	25.63	0.53	-0.750			
0.7135	45664.93	3.5240	3.5240	-1.9004	25.64	0.54	-0.750			
0.7192	46026.52	3.5210	3.5210	-1.8377	25.65	0.55	-0.750	0.402	0.549	
0.7245	46371.15	3.5180	3.5180	-1.7808	25.67	0.57	-0.750			
0.7298	46709.21	3.5150	3.5150	-1.7232	25.69	0.59	-0.750			
0.7349	47032.83	3.5120	3.5120	-1.6677	25.70	0.60	-0.750			
0.7398	47347.68	3.5090	3.5090	-1.6156	25.72	0.62	-0.750	0.391	0.550	
0.7446	47652.70	3.5060	3.5060	-1.5702	25.73	0.63	-0.750			
0.7492	47949.60	3.5030	3.5030	-1.5064	25.75	0.65	-0.750			
0.7536	48231.17	3.5000	3.5000	-1.4698	25.76	0.66	-0.750			
0.7579	48506.87	3.4970	3.4971	-1.4280	25.78	0.68	-0.750			
0.7622	48777.66	3.4940	3.4936	-1.3926	25.80	0.70	-0.750	0.404	0.559	
0.7662	49039.99	3.4910	3.4911	-1.3548	25.82	0.72	-0.750			
0.7703	49296.78	3.4880	3.4881	-1.3206	25.84	0.74	-0.750			
0.7743	49552.03	3.4850	3.4849	-1.2904	25.85	0.75	-0.750			
0.7780	49792.54	3.4820	3.4820	-1.2382	25.86	0.76	-0.750			
0.7816	50024.94	3.4790	3.4791	-1.2058	25.87	0.77	-0.750	0.400	0.568	
0.7852	50254.23	3.4760	3.4760	-1.1820	25.89	0.79	-0.750			
0.7887	50475.77	3.4730	3.4730	-1.1603	25.91	0.81	-0.750			
0.7921	50695.18	3.4700	3.4700	-1.1476	25.92	0.82	-0.750			
0.7955	50911.47	3.4670	3.4670	-1.1467	25.94	0.84	-0.750			
0.7989	51129.92	3.4640	3.4640	-1.1576	25.95	0.85	-0.750			
0.8023	51350.39	3.4610	3.4610	-1.1722	25.96	0.86	-0.750	0.387	0.572	
0.8058	51574.28	3.4580	3.4581	-1.2057	25.97	0.87	-0.750			
0.8095	51806.55	3.4550	3.4550	-1.2433	25.99	0.89	-0.750			
0.8133	52050.86	3.4520	3.4519	-1.2820	26.01	0.91	-0.750			
0.8173	52304.36	3.4490	3.4490	-1.3205	26.03	0.93	-0.750			
0.8213	52565.85	3.4460	3.4461	-1.3503	26.04	0.94	-0.750	0.403	0.585	
0.8255	52829.93	3.4430	3.4430	-1.3559	26.05	0.95	-0.750			
0.8296	53094.09	3.4400	3.4400	-1.3571	26.07	0.97	-0.750			
0.8337	53356.66	3.4370	3.4370	-1.3317	26.08	0.98	-0.750			
0.8377	53613.30	3.4340	3.4340	-1.3080	26.09	0.99	-0.750			
0.8416	53861.34	3.4310	3.4312	-1.2708	26.10	1.00	-0.750	0.398	0.589	
0.8453	54101.16	3.4280	3.4280	-1.2341	26.11	1.01	-0.750			
0.8490	54334.01	3.4250	3.4250	-1.2006	26.12	1.02	-0.750			
0.8525	54560.85	3.4220	3.4220	-1.1663	26.14	1.04	-0.750			
0.8560	54782.83	3.4190	3.4190	-1.1330	26.15	1.05	-0.750			
0.8593	54998.04	3.4160	3.4159	-1.0972	26.16	1.06	-0.750	0.407	0.600	
0.8626	55204.94	3.4130	3.4131	-1.0613	26.16	1.06	-0.750			
0.8657	55404.67	3.4100	3.4100	-1.0272	26.17	1.07	-0.750			
0.8687	55597.17	3.4070	3.4070	-0.9931	26.17	1.07	-0.750			
0.8716	55782.41	3.4040	3.4040	-0.9624	26.18	1.08	-0.750			
0.8745	55967.61	3.4010	3.4010	-0.9339	26.19	1.09	-0.750			
0.8773	56145.39	3.3980	3.3980	-0.9024	26.20	1.10	-0.750			
0.8799	56316.25	3.3950	3.3949	-0.8688	26.21	1.11	-0.750	0.405	0.625	
0.8825	56479.06	3.3920	3.3920	-0.8314	26.22	1.12	-0.750			
0.8849	56634.17	3.3890	3.3890	-0.7950	26.22	1.12	-0.750			
0.8872	56783.68	3.3860	3.3860	-0.7587	26.23	1.13	-0.750			
0.8895	56924.86	3.3830	3.3830	-0.7257	26.24	1.14	-0.750			
0.8916	57061.67	3.3800	3.3800	-0.6947	26.24	1.14	-0.750			
0.8936	57190.68	3.3770	3.3770	-0.6625	26.25	1.15	-0.750			
0.8956	57315.32	3.3740	3.3740	-0.6318	26.26	1.16	-0.750			
0.8974	57433.93	3.3710	3.3710	-0.6004	26.27	1.17	-0.750			
0.8992	57546.69	3.3680	3.3679	-0.5692	26.28	1.18	-0.750			
0.9008	57653.18	3.3650	3.3652	-0.5402	26.29	1.19	-0.750	0.396	0.639	
0.9024	57753.00	3.3620	3.3619	-0.5086	26.29	1.19	-0.750			
0.9039	57847.36	3.3590	3.3589	-0.4788	26.30	1.20	-0.750			
0.9052	57935.51	3.3560	3.3560	-0.4537	26.31	1.21	-0.750			
0.9065	58018.87	3.3530	3.3531	-0.4300	26.31	1.21	-0.750			
0.9078	58099.98	3.3500	3.3500	-0.4099	26.32	1.22	-0.750			
0.9090	58176.10	3.3470	3.3470	-0.3885	26.33	1.23	-0.750			
0.9101	58248.44	3.3440	3.3440	-0.3691	26.33	1.23	-0.750			
0.9112	58317.05	3.3410	3.3410	-0.3514	26.34	1.24	-0.750			
0.9122	58382.61	3.3380	3.3380	-0.3362	26.34	1.24	-0.750			
0.9132	58445.16	3.3350	3.3349	-0.3206	26.35	1.25	-0.750			
0.9141	58504.85	3.3320	3.3320	-0.3065	26.35	1.25	-0.750			
0.9150	58562.26	3.3290	3.3291	-0.2944	26.35	1.25	-0.750			
0.9159	58617.47	3.3260	3.3260	-0.2832	26.36	1.26	-0.750			
0.9167	58670.62	3.3230	3.3229	-0.2725	26.36	1.26	-0.750			
0.9175	58720.97	3.3200	3.3200	-0.2628	26.37	1.27	-0.750			
0.9183	58770.38	3.3170	3.3170	-0.2551	26.37	1.27	-0.750			
0.9190	58819.16	3.3140	3.3140	-0.2470	26.38	1.28	-0.750			
0.9198	58865.92	3.3110	3.3109	-0.2389	26.38	1.28	-0.750			
0.9205	58911.05	3.3080	3.3078	-0.2304	26.38	1.28	-0.750	0.407	0.679	
0.9212	58954.30	3.3050	3.3052	-0.2224	26.39	1.29	-0.750			
0.9218	58996.17	3.3020	3.3019	-0.2154	26.39	1.29	-0.750			
0.9224	59036.68	3.2990	3.2989	-0.2076	26.40	1.30	-0.750			
0.9230	59074.53	3.2960	3.2960	-0.2012	26.40	1.30	-0.750			
0.9236	59112.72	3.2930	3.2930	-0.1967	26.40	1.30	-0.750			
0.9242	59150.37	3.2900	3.2899	-0.1931	26.41	1.31	-0.750			
0.9248	59187.01	3.2870	3.2870	-0.1886	26.41	1.31	-0.750			
0.9254	59222.69	3.2840	3.2840	-0.1846	26.42	1.32	-0.750			
0.9259	59257.63	3.2810	3.2810	-0.1809	26.42	1.32	-0.750			
0.9264	59292.03	3.2780	3.2780	-0.1771	26.42	1.32	-0.750			
0.9270	59325.68	3.2750	3.2750	-0.1734	26.43	1.33	-0.750			
0.9275	59358.44	3.2720	3.2719	-0.1699	26.43	1.33	-0.750			
0.9280	59390.84	3.2690	3.2690	-0.1667	26.43	1.33	-0.750			
0.9285	59422.53	3.2660	3.2660	-0.1633	26.44	1.34	-0.750			
0.9290	59453.55	3.2630	3.2630	-0.1598	26.44	1.34	-0.750			
0.9294	59483.78	3.2600	3.2601	-0.1568	26.44	1.34	-0.750			
0.9299	59513.47	3.2570	3.2570	-0.1539	26.45	1.35	-0.750			
0.9304	59542.66	3.2540	3.2540	-0.1515	26.45	1.35	-0.750			
0.9308	59571.51	3.2510	3.2510	-0.1490	26.45	1.35	-0.750			
0.9312	59599.73	3.2480	3.2480	-0.1467	26.46	1.36	-0.750			
0.9317	59627.79	3.2450	3.2450	-0.1442	26.46	1.36	-0.750			
0.9321	59655.35	3.2420	3.2420	-0.1419	26.46	1.36	-0.750			
0.9325	59682.34	3.2390	3.2390	-0.1393	26.47	1.37	-0.750			
0.9329	59708.76	3.2360	3.2361	-0.1372	26.47	1.37	-0.750			
0.9334	59734.82	3.2330	3.2330	-0.1352	26.48	1.38	-0.750			
0.9338	59760.40	3.2300	3.2300	-0.1329	26.48	1.38	-0.750			
0.9342	59785.77	3.2270	3.2270	-0.1313	26.48	1.38	-0.750			
0.9345	59810.80	3.2240	3.2240	-0.1294	26.49	1.39	-0.750			
0.9349	59835.60	3.2210	3.2210	-0.1278	26.49	1.39	-0.750			
0.9353	59859.98	3.2180	3.2180	-0.1260	26.49	1.39	-0.750			
0.9357	59883.99	3.2150	3.2150	-0.1241	26.50	1.40	-0.750			
0.9361	59907.53	3.2120	3.2120	-0.1223	26.50	1.40	-0.750			
0.9364	59930.83	3.2090	3.2090	-0.1205	26.51	1.41	-0.750			
0.9368	59953.78	3.2060	3.2060	-0.1189	26.51	1.41	-0.750			
0.9371	59976.41	3.2030	3.2030	-0.1173	26.51	1.41	-0.750			
0.9375	59998.81	3.2000	3.2000	-0.1156	26.52	1.42	-0.750			
0.9378	60020.86	3.1970	3.1970	-0.1140	26.52	1.42	-0.750			
0.9382	60042.56	3.1940	3.1940	-0.1124	26.52	1.42	-0.750			
0.9385	60063.99	3.1910	3.1910	-0.1108	26.53	1.43	-0.750			
0.9388	60085.07	3.1880	3.1880	-0.1094	26.53	1.43	-0.750			
0.9392	60105.88	3.1850	3.1850	-0.1079	26.53	1.43	-0.750			
0.9395	60126.22	3.1820	3.1820	-0.1088	26.53	1.43	-0.750			
0.9398	60147.30	3.1790	3.1789	-0.1070	26.54	1.44	-0.750			
0.9401	60167.77	3.1760	3.1759	-0.1062	26.54	1.44	-0.750			
0.9404	60188.51	3.1730	3.1727	-0.1047	26.54	1.44	-0.750			
0.9408	60208.45	3.1700	3.1713	-0.1030	26.55	1.45	-0.749	0.399	0.709	
0.9411	60228.51	3.1670	3.1673	-0.1016	26.55	1.45	-0.750			
0.9414	60247.77	3.1640	3.1640	-0.0991	26.55	1.45	-0.750			
0.9417	60266.30	3.1610	3.1609	-0.0977	26.55	1.45	-0.750			
0.9419	60284.21	3.1580	3.1581	-0.0946	26.55	1.45	-0.750			
0.9422	60302.36	3.1550	3.1550	-0.0937	26.56	1.46	-0.750			
0.9425	60320.33	3.1520	3.1520	-0.0930	26.56	1.46	-0.750			
0.9428	60338.17	3.1490	3.1489	-0.0920	26.56	1.46	-0.750			
0.9431	60355.77	3.1460	3.1461	-0.0911	26.56	1.46	-0.750			
0.9433	60373.16	3.1430	3.1430	-0.0901	26.56	1.46	-0.750			
0.9436	60390.47	3.1400	3.1400	-0.0893	26.56	1.46	-0.750			
0.9439	60407.50	3.1370	3.1370	-0.0881	26.57	1.47	-0.750			
0.9441	60424.15	3.1340	3.1340	-0.0870	26.57	1.47	-0.750			
0.9444	60440.78	3.1310	3.1310	-0.0862	26.57	1.47	-0.750			
0.9446	60457.22	3.1280	3.1280	-0.0854	26.58	1.48	-0.750			
0.9449	60473.56	3.1250	3.1250	-0.0847	26.58	1.48	-0.750			
0.9452	60489.77	3.1220	3.1220	-0.0840	26.58	1.48	-0.750			
0.9454	60505.90	3.1190	3.1189	-0.0829	26.58	1.48	-0.750			
0.9457	60521.79	3.1160	3.1160	-0.0821	26.59	1.49	-0.750			
0.9459	60537.44	3.1130	3.1130	-0.0810	26.59	1.49	-0.750			
0.9461	60552.90	3.1100	3.1100	-0.0800	26.59	1.49	-0.750			
0.9464	60568.22	3.1070	3.1070	-0.0790	26.59	1.49	-0.750			
0.9466	60583.16	3.1040	3.1040	-0.0784	26.60	1.50	-0.750			
0.9468	60597.93	3.1010	3.1010	-0.0773	26.60	1.50	-0.750			
0.9471	60612.72	3.0980	3.0980	-0.0767	26.60	1.50	-0.750			
0.9473	60627.46	3.0950	3.0950	-0.0758	26.60	1.50	-0.750			
0.9475	60642.00	3.0920	3.0920	-0.0751	26.61	1.51	-0.750			
0.9478	60656.28	3.0890	3.0891	-0.0744	26.61	1.51	-0.750			
0.9480	60670.49	3.0860	3.0861	-0.0736	26.61	1.51	-0.750			
0.9482	60684.61	3.0830	3.0829	-0.0729	26.61	1.51	-0.750			
0.9484	60698.54	3.0800	3.0800	-0.0721	26.62	1.52	-0.750			
0.9486	60712.20	3.0770	3.0770	-0.0711	26.62	1.52	-0.750			
0.9488	60725.78	3.0740	3.0741	-0.0704	26.62	1.52	-0.750			
0.9491	60739.23	3.0710	3.0710	-0.0697	26.62	1.52	-0.750			
0.9493	60752.63	3.0680	3.0680	-0.0691	26.63	1.53	-0.750			
0.9495	60765.73	3.0650	3.0650	-0.0684	26.63	1.53	-0.750			
0.9497	60778.81	3.0620	3.0620	-0.0677	26.63	1.53	-0.750			
0.9499	60791.61	3.0590	3.0589	-0.0670	26.63	1.53	-0.750			
0.9501	60804.46	3.0560	3.0560	-0.0664	26.63	1.53	-0.750			
0.9503	60817.18	3.0530	3.0530	-0.0658	26.64	1.54	-0.750			
0.9505	60829.76	3.0500	3.0500	-0.0652	26.64	1.54	-0.750			
0.9507	60842.21	3.0470	3.0470	-0.0646	26.64	1.54	-0.750			
0.9509	60854.56	3.0440	3.0441	-0.0640	26.64	1.54	-0.750			
0.9510	60866.80	3.0410	3.0410	-0.0634	26.64	1.54	-0.750			
0.9512	60878.92	3.0380	3.0380	-0.0628	26.65	1.55	-0.750			
0.9514	60890.91	3.0350	3.0350	-0.0622	26.65	1.55	-0.750			
0.9516	60902.79	3.0320	3.0320	-0.0616	26.65	1.55	-0.750			
0.9518	60914.56	3.0290	3.0290	-0.0610	26.65	1.55	-0.750			
0.9520	60926.21	3.0260	3.0261	-0.0605	26.65	1.55	-0.750			
0.9522	60937.78	3.0230	3.0230	-0.0600	26.66	1.56	-0.750			
0.9523	60949.25	3.0200	3.0200	-0.0594	26.66	1.56	-0.750			
0.9525	60960.55	3.0170	3.0170	-0.0589	26.66	1.56	-0.750			
0.9527	60971.81	3.0140	3.0140	-0.0584	26.66	1.56	-0.750			
0.9529	60982.99	3.0110	3.0111	-0.0579	26.66	1.56	-0.750			
0.9530	60994.10	3.0080	3.0080	-0.0574	26.67	1.57	-0.750			
0.9532	61005.08	3.0050	3.0050	-0.0569	26.67	1.57	-0.750			
0.9534	61015.95	3.0020	3.0020	-0.0564	26.67	1.57	-0.750			
