Ah_balance (normalized)	Ah_balance (mAh)	Voltage - fit (V)	Voltage -  interpolate (V)	dQ/dV (1/V)	Temperature (°C)	Temperature - diff (°C)	Current (C)	R_DC 0ms (mOhm)	R_DC 50ms (mOhm)	R_DC 50 ms PEC (mOhm)
0.1802	11533.77	4.0800	4.0800	0.7608	7.53	1.56	0.750			
0.1825	11681.04	4.0770	4.0770	0.7702	7.53	1.56	0.750			
0.1849	11831.77	4.0740	4.0740	0.7747	7.52	1.55	0.750			
0.1872	11980.90	4.0710	4.0710	0.7720	7.51	1.54	0.750			
0.1895	12129.67	4.0680	4.0681	0.7762	7.50	1.53	0.750			
0.1918	12277.58	4.0650	4.0651	0.7748	7.50	1.53	0.750			
0.1941	12425.49	4.0620	4.0621	0.7760	7.49	1.52	0.750			
0.1965	12574.32	4.0590	4.0590	0.7801	7.48	1.51	0.750			
0.1988	12724.27	4.0560	4.0560	0.7807	7.47	1.50	0.750			
0.2012	12875.27	4.0530	4.0530	0.7851	7.47	1.50	0.750			
0.2035	13025.86	4.0500	4.0501	0.7925	7.46	1.49	0.750			
0.2059	13177.80	4.0470	4.0469	0.7938	7.45	1.48	0.750			
0.2083	13331.20	4.0440	4.0440	0.8001	7.44	1.47	0.750			
0.2107	13487.14	4.0410	4.0410	0.7971	7.44	1.47	0.750			
0.2131	13640.27	4.0380	4.0381	0.8052	7.43	1.46	0.750			
0.2156	13796.04	4.0350	4.0351	0.8073	7.42	1.45	0.750			
0.2180	13949.90	4.0320	4.0319	0.8077	7.41	1.44	0.750			
0.2204	14104.70	4.0290	4.0291	0.8111	7.40	1.43	0.750			
0.2228	14261.71	4.0260	4.0260	0.8139	7.40	1.43	0.750			
0.2253	14417.79	4.0230	4.0230	0.8183	7.39	1.42	0.750			
0.2278	14576.18	4.0200	4.0201	0.8293	7.38	1.41	0.750			
0.2302	14734.56	4.0170	4.0169	0.8308	7.37	1.40	0.750			
0.2327	14895.85	4.0140	4.0140	0.8326	7.37	1.40	0.750			
0.2353	15056.43	4.0110	4.0110	0.8300	7.36	1.39	0.750			
0.2377	15215.46	4.0080	4.0081	0.8358	7.35	1.38	0.750			
0.2403	15376.72	4.0050	4.0050	0.8424	7.35	1.38	0.750			
0.2428	15538.40	4.0020	4.0019	0.8440	7.34	1.37	0.750			
0.2453	15699.39	3.9990	3.9991	0.8457	7.34	1.37	0.750			
0.2479	15865.50	3.9960	3.9960	0.8429	7.33	1.36	0.750			
0.2504	16026.36	3.9930	3.9931	0.8517	7.32	1.35	0.750			
0.2529	16188.44	3.9900	3.9900	0.8614	7.32	1.35	0.750			
0.2555	16353.88	3.9870	3.9869	0.8655	7.31	1.34	0.750			
0.2581	16518.47	3.9840	3.9841	0.8946	7.30	1.33	0.750			
0.2608	16692.72	3.9810	3.9811	0.9156	7.30	1.33	0.750			
0.2637	16873.64	3.9780	3.9778	0.9239	7.29	1.32	0.750			
0.2665	17058.48	3.9750	3.9752	0.9301	7.28	1.31	0.750			
0.2693	17236.12	3.9720	3.9721	0.9218	7.27	1.30	0.750			
0.2721	17414.00	3.9690	3.9690	0.9104	7.26	1.29	0.750			
0.2748	17586.76	3.9660	3.9660	0.9061	7.25	1.28	0.750			
0.2774	17753.40	3.9630	3.9630	0.8990	7.24	1.27	0.750			
0.2801	17927.65	3.9600	3.9600	0.9046	7.23	1.26	0.750			
0.2828	18102.08	3.9570	3.9570	0.9118	7.22	1.25	0.750			
0.2856	18279.27	3.9540	3.9540	0.9138	7.21	1.24	0.750			
0.2883	18453.93	3.9510	3.9511	0.9165	7.20	1.23	0.750			
0.2911	18630.87	3.9480	3.9480	0.9213	7.18	1.21	0.750			
0.2939	18806.41	3.9450	3.9448	0.9224	7.17	1.20	0.750			
0.2966	18983.04	3.9420	3.9420	0.9240	7.16	1.19	0.750			
0.2994	19161.19	3.9390	3.9391	0.9350	7.15	1.18	0.750			
0.3022	19340.65	3.9360	3.9360	0.9470	7.14	1.17	0.750			
0.3050	19522.65	3.9330	3.9330	0.9583	7.13	1.16	0.750			
0.3080	19711.11	3.9300	3.9300	0.9610	7.12	1.15	0.750			
0.3109	19896.66	3.9270	3.9269	0.9710	7.12	1.15	0.750			
0.3138	20084.40	3.9240	3.9241	0.9757	7.11	1.14	0.750			
0.3168	20272.55	3.9210	3.9212	0.9810	7.10	1.13	0.750			
0.3197	20460.88	3.9180	3.9180	0.9809	7.09	1.12	0.750			
0.3226	20648.43	3.9150	3.9150	0.9846	7.07	1.10	0.750			
0.3256	20835.58	3.9120	3.9120	0.9951	7.06	1.09	0.750			
0.3286	21028.68	3.9090	3.9091	1.0097	7.05	1.08	0.750			
0.3316	21223.12	3.9060	3.9058	1.0185	7.04	1.07	0.750			
0.3347	21421.05	3.9030	3.9030	1.0342	7.03	1.06	0.750			
0.3378	21621.40	3.9000	3.9000	1.0461	7.01	1.04	0.750			
0.3410	21824.76	3.8970	3.8970	1.0571	7.00	1.03	0.750			
0.3442	22029.95	3.8940	3.8940	1.0618	6.99	1.02	0.750			
0.3474	22232.99	3.8910	3.8911	1.0728	6.98	1.01	0.750			
0.3506	22439.48	3.8880	3.8880	1.0843	6.96	0.99	0.750			
0.3539	22648.63	3.8850	3.8850	1.0965	6.95	0.98	0.750			
0.3572	22861.06	3.8820	3.8820	1.1056	6.94	0.97	0.750			
0.3605	23073.58	3.8790	3.8790	1.1235	6.92	0.95	0.750			
0.3639	23292.06	3.8760	3.8761	1.1399	6.91	0.94	0.750			
0.3674	23512.34	3.8730	3.8729	1.1529	6.90	0.93	0.750			
0.3708	23733.56	3.8700	3.8701	1.1596	6.88	0.91	0.750			
0.3743	23957.04	3.8670	3.8671	1.1808	6.87	0.90	0.750			
0.3779	24185.79	3.8640	3.8640	1.1965	6.86	0.89	0.750			
0.3815	24418.29	3.8610	3.8610	1.2115	6.85	0.88	0.750			
0.3851	24648.84	3.8580	3.8581	1.2333	6.84	0.87	0.750			
0.3889	24888.06	3.8550	3.8550	1.2597	6.83	0.86	0.750			
0.3928	25136.28	3.8520	3.8518	1.2668	6.81	0.84	0.750			
0.3965	25378.05	3.8490	3.8490	1.2948	6.80	0.83	0.750			
0.4003	25621.33	3.8460	3.8463	1.3304	6.78	0.81	0.750			
0.4044	25883.51	3.8430	3.8429	1.3592	6.76	0.79	0.750	0.399	0.901	
0.4086	26148.79	3.8400	3.8401	1.3833	6.74	0.77	0.750			
0.4127	26415.98	3.8370	3.8372	1.4147	6.73	0.76	0.750			
0.4171	26694.70	3.8340	3.8341	1.4468	6.72	0.75	0.750			
0.4215	26975.48	3.8310	3.8309	1.4483	6.71	0.74	0.750			
0.4258	27249.56	3.8280	3.8282	1.4641	6.69	0.72	0.750			
0.4302	27532.12	3.8250	3.8249	1.4873	6.67	0.70	0.750			
0.4347	27822.33	3.8220	3.8221	1.5136	6.66	0.69	0.750			
0.4393	28115.17	3.8190	3.8190	1.5493	6.64	0.67	0.750			
0.4440	28413.49	3.8160	3.8160	1.5759	6.62	0.65	0.750			
0.4487	28718.29	3.8130	3.8130	1.5992	6.61	0.64	0.750			
0.4536	29031.58	3.8100	3.8101	1.6252	6.60	0.63	0.750			
0.4585	29342.99	3.8070	3.8070	1.6697	6.58	0.61	0.750			
0.4636	29669.57	3.8040	3.8039	1.6813	6.57	0.60	0.750			
0.4687	29995.68	3.8010	3.8008	1.7139	6.55	0.58	0.750			
0.4740	30335.12	3.7980	3.7981	1.7297	6.52	0.55	0.750			
0.4792	30667.69	3.7950	3.7948	1.7504	6.50	0.53	0.750			
0.4844	31003.35	3.7920	3.7919	1.7692	6.48	0.51	0.750			
0.4897	31338.93	3.7890	3.7888	1.7839	6.46	0.49	0.750			
0.4951	31688.18	3.7860	3.7861	1.8121	6.44	0.47	0.750			
0.5006	32038.14	3.7830	3.7830	1.8492	6.42	0.45	0.750			
0.5063	32400.09	3.7800	3.7800	1.8753	6.40	0.43	0.750			
0.5119	32759.88	3.7770	3.7771	1.8790	6.38	0.41	0.750			
0.5176	33124.18	3.7740	3.7740	1.8847	6.35	0.38	0.750			
0.5232	33481.63	3.7710	3.7711	1.8940	6.34	0.37	0.750			
0.5288	33844.10	3.7680	3.7679	1.8876	6.32	0.35	0.750			
0.5344	34203.99	3.7650	3.7649	1.9401	6.30	0.33	0.750			
0.5403	34577.58	3.7620	3.7620	1.9717	6.28	0.31	0.750			
0.5464	34967.72	3.7590	3.7589	1.9870	6.26	0.29	0.750			
0.5523	35348.75	3.7560	3.7560	2.0018	6.24	0.27	0.750			
0.5584	35738.57	3.7530	3.7530	2.0289	6.21	0.24	0.750			
0.5643	36118.02	3.7500	3.7500	2.0499	6.20	0.23	0.750			
0.5706	36519.96	3.7470	3.7471	2.1223	6.18	0.21	0.750			
0.5773	36944.79	3.7440	3.7441	2.1946	6.15	0.18	0.750			
0.5839	37367.53	3.7410	3.7408	2.2647	6.12	0.15	0.750			
0.5908	37810.94	3.7380	3.7379	2.3160	6.11	0.14	0.750			
0.5979	38266.62	3.7350	3.7351	2.2840	6.09	0.12	0.750			
0.6047	38703.49	3.7320	3.7321	2.2800	6.06	0.09	0.750			
0.6119	39159.24	3.7290	3.7286	2.1891	6.04	0.07	0.750			
0.6183	39571.90	3.7260	3.7260	2.0741	6.01	0.04	0.750			
0.6239	39930.28	3.7230	3.7239	1.9520	6.00	0.03	0.750			
0.6295	40287.91	3.7200	3.7196	1.8780	5.99	0.02	0.750			
0.6348	40626.27	3.7170	3.7173	1.8418	5.98	0.01	0.750			
0.6408	41011.70	3.7140	3.7144	1.8609	5.97	0.00	0.750			
0.6466	41384.66	3.7110	3.7110	1.8027	5.97	-0.00	0.750			
0.6516	41701.34	3.7080	3.7081	1.5854	5.96	-0.01	0.750			
0.6562	41995.31	3.7050	3.7046	1.4390	5.96	-0.01	0.750			
0.6601	42249.44	3.7020	3.7020	1.3153	5.96	-0.01	0.750			
0.6637	42476.24	3.6990	3.6990	1.1813	5.95	-0.02	0.750			
0.6670	42686.26	3.6960	3.6962	1.0937	5.95	-0.02	0.750			
0.6701	42887.84	3.6930	3.6929	1.0225	5.95	-0.02	0.750			
0.6731	43076.89	3.6900	3.6902	0.9653	5.95	-0.02	0.750			
0.6758	43252.76	3.6870	3.6870	0.9219	5.95	-0.02	0.750			
0.6785	43424.71	3.6840	3.6841	0.8952	5.95	-0.02	0.750			
0.6811	43589.47	3.6810	3.6805	0.8631	5.95	-0.02	0.750			
0.6837	43753.84	3.6780	3.6781	0.8437	5.95	-0.02	0.750			
0.6862	43915.88	3.6750	3.6750	0.8177	5.95	-0.02	0.750			
0.6886	44073.57	3.6720	3.6720	0.7988	5.95	-0.02	0.750			
0.6910	44225.64	3.6690	3.6690	0.7675	5.95	-0.02	0.750			
0.6932	44365.48	3.6660	3.6658	0.7322	5.95	-0.02	0.750			
0.6954	44504.21	3.6630	3.6630	0.7028	5.95	-0.02	0.750			
0.6974	44636.26	3.6600	3.6600	0.6697	5.96	-0.01	0.750			
0.6994	44761.96	3.6570	3.6571	0.6417	5.96	-0.01	0.750			
0.7013	44883.57	3.6540	3.6540	0.6094	5.96	-0.01	0.750			
0.7030	44995.02	3.6510	3.6509	0.5772	5.96	-0.01	0.750			
0.7047	45102.74	3.6480	3.6481	0.5482	5.97	-0.00	0.750			
0.7063	45205.02	3.6450	3.6447	0.5184	5.97	0.00	0.750			
0.7079	45303.02	3.6420	3.6421	0.4899	5.97	0.00	0.750			
0.7093	45394.43	3.6390	3.6390	0.4584	5.97	0.00	0.750			
0.7106	45479.10	3.6360	3.6360	0.4254	5.98	0.01	0.750			
0.7118	45557.82	3.6330	3.6330	0.3912	5.98	0.01	0.750			
0.7130	45630.21	3.6300	3.6300	0.3566	5.98	0.01	0.750			
0.7140	45696.56	3.6270	3.6270	0.3211	5.98	0.01	0.750			
0.7149	45755.82	3.6240	3.6239	0.2817	5.98	0.01	0.750			
0.7157	45806.71	3.6210	3.6211	0.2436	5.99	0.02	0.750			
0.7164	45849.57	3.6180	3.6180	0.2015	5.99	0.02	0.750			
0.7169	45884.58	3.6150	3.6150	0.1594	5.99	0.02	0.750			
0.7174	45910.89	3.6120	3.6122	0.1160	5.99	0.02	0.750			
0.7176	45928.16	3.6090	3.6096	0.0735	5.99	0.02	0.750			
0.7178	45939.32	3.6060	3.6054	0.0289	5.99	0.02	0.750			
0.7178	45940.62	3.6030	3.6043	-0.0153	5.99	0.02	0.750			
