Ah_balance (normalized)	Ah_balance (mAh)	Voltage - fit (V)	Voltage -  interpolate (V)	dQ/dV (1/V)	Temperature (°C)	Temperature - diff (°C)	Current (C)	R_DC 0ms (mOhm)	R_DC 50ms (mOhm)	R_DC 50 ms PEC (mOhm)
0.1819	11641.27	4.0810	4.0810	0.7492	7.38	1.39	0.750			
0.1842	11788.12	4.0780	4.0780	0.7699	7.37	1.38	0.750			
0.1865	11936.73	4.0750	4.0750	0.7759	7.37	1.38	0.750			
0.1888	12086.28	4.0720	4.0721	0.7802	7.36	1.37	0.750			
0.1912	12237.50	4.0690	4.0690	0.7832	7.35	1.36	0.750			
0.1936	12388.49	4.0660	4.0660	0.7804	7.35	1.36	0.750			
0.1959	12537.75	4.0630	4.0630	0.7862	7.34	1.35	0.750			
0.1982	12687.88	4.0600	4.0601	0.7894	7.34	1.35	0.750			
0.2006	12840.50	4.0570	4.0569	0.7957	7.33	1.34	0.750			
0.2030	12993.84	4.0540	4.0540	0.7985	7.32	1.33	0.750			
0.2054	13148.38	4.0510	4.0511	0.8009	7.32	1.33	0.750			
0.2078	13301.99	4.0480	4.0480	0.8057	7.31	1.32	0.750			
0.2103	13458.24	4.0450	4.0450	0.8091	7.30	1.31	0.750			
0.2127	13612.06	4.0420	4.0420	0.8065	7.29	1.30	0.750			
0.2151	13767.59	4.0390	4.0390	0.8091	7.29	1.30	0.750			
0.2176	13925.19	4.0360	4.0360	0.8075	7.28	1.29	0.750			
0.2200	14079.25	4.0330	4.0330	0.8101	7.27	1.28	0.750			
0.2224	14233.83	4.0300	4.0300	0.8144	7.26	1.27	0.750			
0.2248	14389.09	4.0270	4.0271	0.8141	7.25	1.26	0.750			
0.2273	14546.33	4.0240	4.0240	0.8222	7.25	1.26	0.750			
0.2298	14705.51	4.0210	4.0211	0.8255	7.24	1.25	0.750			
0.2323	14864.44	4.0180	4.0180	0.8330	7.24	1.25	0.750			
0.2348	15025.78	4.0150	4.0150	0.8370	7.24	1.25	0.750			
0.2373	15186.39	4.0120	4.0121	0.8355	7.23	1.24	0.750			
0.2398	15347.53	4.0090	4.0090	0.8391	7.23	1.24	0.750			
0.2424	15510.90	4.0060	4.0061	0.8399	7.22	1.23	0.750			
0.2449	15670.90	4.0030	4.0030	0.8415	7.22	1.23	0.750			
0.2474	15832.81	4.0000	4.0000	0.8454	7.21	1.22	0.750			
0.2499	15992.93	3.9970	3.9970	0.8433	7.20	1.21	0.750			
0.2524	16155.87	3.9940	3.9940	0.8523	7.20	1.21	0.750			
0.2550	16321.41	3.9910	3.9910	0.8554	7.19	1.20	0.750			
0.2576	16484.81	3.9880	3.9880	0.8641	7.18	1.19	0.750			
0.2602	16652.58	3.9850	3.9850	0.8714	7.18	1.19	0.750			
0.2628	16819.65	3.9820	3.9819	0.8723	7.17	1.18	0.750			
0.2654	16988.42	3.9790	3.9790	0.8777	7.16	1.17	0.750			
0.2681	17158.24	3.9760	3.9761	0.8793	7.16	1.17	0.750			
0.2707	17327.12	3.9730	3.9730	0.8806	7.15	1.16	0.750			
0.2734	17496.89	3.9700	3.9700	0.8843	7.14	1.15	0.750			
0.2760	17664.63	3.9670	3.9669	0.8830	7.13	1.14	0.750			
0.2787	17834.94	3.9640	3.9640	0.8859	7.12	1.13	0.750			
0.2813	18005.31	3.9610	3.9610	0.8878	7.11	1.12	0.750			
0.2840	18175.25	3.9580	3.9580	0.8945	7.11	1.12	0.750			
0.2867	18347.84	3.9550	3.9550	0.8995	7.10	1.11	0.750			
0.2894	18520.17	3.9520	3.9521	0.9053	7.09	1.10	0.750			
0.2921	18696.93	3.9490	3.9489	0.9010	7.08	1.09	0.750			
0.2948	18869.71	3.9460	3.9461	0.9143	7.07	1.08	0.750			
0.2976	19044.47	3.9430	3.9431	0.9282	7.06	1.07	0.750			
0.3004	19222.96	3.9400	3.9398	0.9369	7.05	1.06	0.750			
0.3032	19406.83	3.9370	3.9371	0.9332	7.05	1.06	0.750			
0.3060	19584.10	3.9340	3.9341	0.9525	7.04	1.05	0.750			
0.3089	19772.10	3.9310	3.9311	0.9497	7.03	1.04	0.750			
0.3118	19956.89	3.9280	3.9280	0.9629	7.02	1.03	0.750			
0.3146	20132.05	3.9250	3.9249	0.9352	7.02	1.03	0.750			
0.3172	20300.65	3.9220	3.9227	0.9564	7.01	1.02	0.750			
0.3200	20481.75	3.9190	3.9199	0.9843	7.01	1.02	0.750			
0.3231	20677.78	3.9160	3.9148	1.0097	7.00	1.01	0.750			
0.3261	20873.33	3.9130	3.9129	1.0258	6.99	1.00	0.750			
0.3294	21078.96	3.9100	3.9104	1.0320	6.98	0.99	0.750			
0.3328	21297.66	3.9070	3.9070	1.0422	6.97	0.98	0.750			
0.3357	21482.83	3.9040	3.9041	1.0067	6.96	0.97	0.750			
0.3386	21671.93	3.9010	3.9005	1.0398	6.95	0.96	0.750			
0.3418	21873.10	3.8980	3.8982	1.0696	6.94	0.95	0.750			
0.3451	22085.74	3.8950	3.8950	1.1028	6.93	0.94	0.750			
0.3486	22309.16	3.8920	3.8921	1.1249	6.93	0.94	0.750			
0.3520	22530.01	3.8890	3.8890	1.1165	6.92	0.93	0.750			
0.3554	22744.83	3.8860	3.8861	1.1198	6.91	0.92	0.750			
0.3587	22957.76	3.8830	3.8830	1.1197	6.90	0.91	0.750			
0.3619	23162.21	3.8800	3.8801	1.1161	6.89	0.90	0.750			
0.3653	23378.90	3.8770	3.8770	1.1379	6.87	0.88	0.750			
0.3687	23598.43	3.8740	3.8741	1.1691	6.86	0.87	0.750			
0.3723	23830.26	3.8710	3.8710	1.1780	6.85	0.86	0.750			
0.3760	24066.69	3.8680	3.8673	1.1630	6.83	0.84	0.750			
0.3794	24279.18	3.8650	3.8654	1.1466	6.82	0.83	0.750			
0.3827	24491.59	3.8620	3.8627	1.1469	6.81	0.82	0.750			
0.3860	24701.92	3.8590	3.8596	1.1932	6.80	0.81	0.750			
0.3895	24929.86	3.8560	3.8567	1.2231	6.79	0.80	0.750			
0.3932	25164.70	3.8530	3.8538	1.2725	6.77	0.78	0.750			
0.3974	25431.69	3.8500	3.8507	1.3146	6.75	0.76	0.750			
0.4015	25694.64	3.8470	3.8463	1.3647	6.73	0.74	0.750			
0.4055	25951.99	3.8440	3.8444	1.3739	6.72	0.73	0.750			
0.4097	26218.59	3.8410	3.8411	1.3833	6.70	0.71	0.750			
0.4138	26484.26	3.8380	3.8378	1.3989	6.69	0.70	0.750	0.404	0.956	
0.4181	26760.83	3.8350	3.8351	1.4409	6.67	0.68	0.750			
0.4224	27034.20	3.8320	3.8321	1.4455	6.65	0.66	0.750			
0.4268	27316.80	3.8290	3.8289	1.4638	6.63	0.64	0.750			
0.4312	27595.97	3.8260	3.8260	1.4693	6.61	0.62	0.750			
0.4357	27884.11	3.8230	3.8231	1.4937	6.60	0.61	0.750			
0.4403	28176.81	3.8200	3.8199	1.5310	6.58	0.59	0.750			
0.4449	28472.01	3.8170	3.8169	1.5564	6.57	0.58	0.750			
0.4495	28769.33	3.8140	3.8141	1.5941	6.55	0.56	0.750			
0.4544	29083.27	3.8110	3.8109	1.6272	6.53	0.54	0.750			
0.4593	29397.02	3.8080	3.8080	1.6698	6.51	0.52	0.750			
0.4644	29721.14	3.8050	3.8053	1.7215	6.49	0.50	0.750			
0.4696	30054.24	3.8020	3.8018	1.7431	6.46	0.47	0.750			
0.4750	30397.00	3.7990	3.7991	1.7745	6.44	0.45	0.750			
0.4802	30730.98	3.7960	3.7956	1.8044	6.42	0.43	0.750			
0.4857	31085.80	3.7930	3.7933	1.8393	6.40	0.41	0.750			
0.4912	31439.53	3.7900	3.7899	1.8673	6.38	0.39	0.750			
0.4969	31800.91	3.7870	3.7871	1.8912	6.35	0.36	0.750			
0.5026	32164.68	3.7840	3.7841	1.9149	6.33	0.34	0.750			
0.5085	32540.84	3.7810	3.7810	1.9853	6.31	0.32	0.750			
0.5145	32930.34	3.7780	3.7779	1.9780	6.29	0.30	0.750			
0.5205	33309.45	3.7750	3.7751	1.9773	6.26	0.27	0.750			
0.5263	33680.58	3.7720	3.7719	2.0249	6.23	0.24	0.750			
0.5324	34075.31	3.7690	3.7689	2.0409	6.21	0.22	0.750			
0.5386	34469.40	3.7660	3.7659	2.0503	6.19	0.20	0.750			
0.5449	34875.62	3.7630	3.7628	2.1086	6.17	0.18	0.750			
0.5512	35279.22	3.7600	3.7600	2.1125	6.15	0.16	0.750			
0.5575	35678.45	3.7570	3.7572	2.1143	6.13	0.14	0.750			
0.5640	36093.80	3.7540	3.7539	2.1630	6.11	0.12	0.750			
0.5705	36509.23	3.7510	3.7510	2.2234	6.09	0.10	0.750			
0.5772	36939.64	3.7480	3.7480	2.2748	6.07	0.08	0.750			
0.5842	37386.25	3.7450	3.7450	2.3363	6.05	0.06	0.750			
0.5912	37836.95	3.7420	3.7420	2.4098	6.03	0.04	0.750			
0.5986	38309.65	3.7390	3.7389	2.4032	6.02	0.03	0.750			
0.6058	38772.22	3.7360	3.7362	2.4982	6.00	0.01	0.750			
0.6134	39260.71	3.7330	3.7327	2.5424	5.97	-0.02	0.750			
0.6211	39749.06	3.7300	3.7301	2.5806	5.96	-0.03	0.750			
0.6290	40257.42	3.7270	3.7269	2.5673	5.95	-0.04	0.750			
0.6365	40737.24	3.7240	3.7241	2.5527	5.93	-0.06	0.750			
0.6443	41232.53	3.7210	3.7211	2.4758	5.92	-0.07	0.750			
0.6515	41698.10	3.7180	3.7183	2.3643	5.91	-0.08	0.750			
0.6586	42149.53	3.7150	3.7148	2.2089	5.90	-0.09	0.750			
0.6649	42552.74	3.7120	3.7120	1.9760	5.90	-0.09	0.750			
0.6705	42914.49	3.7090	3.7089	1.8038	5.91	-0.08	0.750			
0.6754	43228.15	3.7060	3.7058	1.5623	5.91	-0.08	0.750			
0.6797	43503.88	3.7030	3.7031	1.4043	5.91	-0.08	0.750			
0.6837	43754.84	3.7000	3.7001	1.2514	5.91	-0.08	0.750			
0.6871	43976.24	3.6970	3.6970	1.1343	5.91	-0.08	0.750			
0.6904	44184.09	3.6940	3.6940	1.0497	5.91	-0.08	0.750			
0.6932	44367.59	3.6910	3.6910	0.9658	5.91	-0.08	0.750			
0.6960	44545.06	3.6880	3.6880	0.9168	5.92	-0.07	0.750			
0.6987	44716.64	3.6850	3.6850	0.8719	5.92	-0.07	0.750			
0.7012	44876.77	3.6820	3.6818	0.8267	5.92	-0.07	0.750			
0.7036	45031.15	3.6790	3.6791	0.7929	5.93	-0.06	0.750			
0.7060	45181.97	3.6760	3.6760	0.7509	5.93	-0.06	0.750			
0.7082	45323.17	3.6730	3.6729	0.7160	5.94	-0.05	0.750			
0.7103	45456.05	3.6700	3.6700	0.6774	5.94	-0.05	0.750			
0.7122	45582.41	3.6670	3.6671	0.6404	5.95	-0.04	0.750			
0.7141	45703.02	3.6640	3.6637	0.6028	5.95	-0.04	0.750			
0.7159	45814.53	3.6610	3.6611	0.5625	5.96	-0.03	0.750			
0.7175	45917.53	3.6580	3.6581	0.5252	5.96	-0.03	0.750			
0.7190	46016.63	3.6550	3.6549	0.4892	5.97	-0.02	0.750			
0.7204	46105.44	3.6520	3.6520	0.4490	5.97	-0.02	0.750			
0.7217	46190.55	3.6490	3.6490	0.4059	5.98	-0.01	0.750			
0.7229	46264.42	3.6460	3.6461	0.3713	5.98	-0.01	0.750			
0.7239	46331.03	3.6430	3.6431	0.3351	5.98	-0.01	0.750			
0.7249	46390.73	3.6400	3.6404	0.2969	5.99	-0.00	0.750			
0.7257	46443.25	3.6370	3.6352	0.2633	5.99	-0.00	0.750			
0.7264	46491.87	3.6340	3.6343	0.2279	5.99	0.00	0.750			
0.7271	46531.98	3.6310	3.6313	0.1926	5.99	0.00	0.750			
0.7276	46566.83	3.6280	3.6283	0.1603	5.99	0.00	0.750			
0.7281	46598.27	3.6250	3.6249	0.1232	6.00	0.01	0.750			
0.7284	46616.68	3.6220	3.6226	0.0835	6.00	0.01	0.750			
0.7286	46630.64	3.6190	3.6196	0.0426	6.00	0.01	0.750			
0.7287	46634.79	3.6160	3.6184	0.0007	6.00	0.01	0.750			
