Ah_balance (normalized)	Ah_balance (mAh)	Voltage - fit (V)	Voltage -  interpolate (V)	dQ/dV (1/V)	Temperature (°C)	Temperature - diff (°C)	Current (C)	R_DC 0ms (mOhm)	R_DC 50ms (mOhm)	R_DC 50 ms PEC (mOhm)
0.1806	11556.72	4.0800	4.0800	0.7754	7.46	1.47	0.750			
0.1829	11705.04	4.0770	4.0770	0.7737	7.46	1.47	0.750			
0.1852	11853.27	4.0740	4.0740	0.7745	7.46	1.47	0.750			
0.1875	12002.38	4.0710	4.0709	0.7747	7.45	1.46	0.750			
0.1899	12150.53	4.0680	4.0681	0.7754	7.45	1.46	0.750			
0.1922	12299.22	4.0650	4.0650	0.7820	7.45	1.46	0.750			
0.1945	12450.80	4.0620	4.0620	0.7772	7.44	1.45	0.750			
0.1968	12598.30	4.0590	4.0590	0.7852	7.44	1.45	0.750			
0.1992	12748.03	4.0560	4.0561	0.7884	7.43	1.44	0.750			
0.2016	12900.36	4.0530	4.0526	0.7938	7.43	1.44	0.750			
0.2040	13053.62	4.0500	4.0501	0.7994	7.43	1.44	0.750			
0.2064	13208.52	4.0470	4.0471	0.7973	7.42	1.43	0.750			
0.2088	13362.71	4.0440	4.0440	0.8029	7.42	1.43	0.750			
0.2112	13516.66	4.0410	4.0411	0.7994	7.41	1.42	0.750			
0.2136	13669.37	4.0380	4.0379	0.8024	7.41	1.42	0.750			
0.2160	13824.03	4.0350	4.0350	0.8088	7.41	1.42	0.750			
0.2185	13981.65	4.0320	4.0321	0.8063	7.40	1.41	0.750			
0.2209	14136.47	4.0290	4.0290	0.8122	7.40	1.41	0.750			
0.2233	14291.97	4.0260	4.0261	0.8181	7.40	1.41	0.750			
0.2257	14446.87	4.0230	4.0230	0.8188	7.39	1.40	0.750			
0.2282	14605.16	4.0200	4.0200	0.8247	7.39	1.40	0.750			
0.2307	14766.94	4.0170	4.0170	0.8189	7.38	1.39	0.750			
0.2332	14923.49	4.0140	4.0141	0.8288	7.37	1.38	0.750			
0.2357	15085.00	4.0110	4.0110	0.8356	7.36	1.37	0.750			
0.2382	15242.31	4.0080	4.0080	0.8325	7.35	1.36	0.750			
0.2407	15402.43	4.0050	4.0052	0.8376	7.35	1.36	0.750			
0.2432	15565.74	4.0020	4.0020	0.8328	7.35	1.36	0.750			
0.2457	15725.95	3.9990	3.9990	0.8383	7.34	1.35	0.750			
0.2482	15887.67	3.9960	3.9960	0.8461	7.34	1.35	0.750			
0.2507	16046.40	3.9930	3.9931	0.8444	7.34	1.35	0.750			
0.2533	16209.48	3.9900	3.9901	0.8535	7.34	1.35	0.750			
0.2558	16373.56	3.9870	3.9869	0.8545	7.33	1.34	0.750			
0.2584	16539.33	3.9840	3.9840	0.8604	7.32	1.33	0.750			
0.2610	16705.30	3.9810	3.9812	0.8652	7.32	1.33	0.750			
0.2636	16872.02	3.9780	3.9779	0.8740	7.31	1.32	0.750			
0.2662	17039.73	3.9750	3.9749	0.8772	7.31	1.32	0.750			
0.2689	17210.81	3.9720	3.9720	0.8740	7.30	1.31	0.750			
0.2715	17378.39	3.9690	3.9691	0.8803	7.29	1.30	0.750			
0.2742	17546.62	3.9660	3.9662	0.8818	7.29	1.30	0.750			
0.2768	17716.34	3.9630	3.9625	0.8898	7.28	1.29	0.750			
0.2795	17885.18	3.9600	3.9601	0.8916	7.28	1.29	0.750			
0.2822	18058.27	3.9570	3.9570	0.8998	7.28	1.29	0.750			
0.2849	18234.57	3.9540	3.9540	0.9101	7.27	1.28	0.750			
0.2876	18408.71	3.9510	3.9510	0.9090	7.27	1.28	0.750			
0.2904	18584.33	3.9480	3.9480	0.9133	7.27	1.28	0.750			
0.2931	18760.01	3.9450	3.9450	0.9146	7.26	1.27	0.750			
0.2959	18934.97	3.9420	3.9420	0.9203	7.25	1.26	0.750			
0.2986	19111.05	3.9390	3.9391	0.9287	7.24	1.25	0.750			
0.3014	19290.46	3.9360	3.9358	0.9355	7.23	1.24	0.750			
0.3043	19473.75	3.9330	3.9329	0.9327	7.23	1.24	0.750			
0.3071	19651.99	3.9300	3.9301	0.9402	7.22	1.23	0.750			
0.3099	19831.55	3.9270	3.9271	0.9563	7.22	1.23	0.750			
0.3127	20014.52	3.9240	3.9241	0.9624	7.21	1.22	0.750			
0.3156	20201.58	3.9210	3.9210	0.9726	7.21	1.22	0.750			
0.3186	20388.63	3.9180	3.9181	0.9815	7.20	1.21	0.750			
0.3216	20580.61	3.9150	3.9151	0.9915	7.19	1.20	0.750			
0.3246	20773.15	3.9120	3.9120	0.9980	7.18	1.19	0.750			
0.3276	20963.43	3.9090	3.9091	0.9981	7.17	1.18	0.750			
0.3305	21154.68	3.9060	3.9060	1.0058	7.16	1.17	0.750			
0.3336	21347.57	3.9030	3.9031	1.0212	7.16	1.17	0.750			
0.3366	21545.01	3.9000	3.9000	1.0356	7.15	1.16	0.750			
0.3398	21749.91	3.8970	3.8969	1.0362	7.15	1.16	0.750			
0.3429	21947.23	3.8940	3.8940	1.0493	7.14	1.15	0.750			
0.3461	22148.11	3.8910	3.8912	1.0605	7.13	1.14	0.750			
0.3492	22351.88	3.8880	3.8881	1.0747	7.12	1.13	0.750			
0.3525	22558.61	3.8850	3.8848	1.0834	7.11	1.12	0.750			
0.3557	22766.59	3.8820	3.8822	1.1017	7.10	1.11	0.750			
0.3591	22981.97	3.8790	3.8790	1.1183	7.09	1.10	0.750			
0.3625	23200.88	3.8760	3.8760	1.1310	7.08	1.09	0.750			
0.3659	23417.24	3.8730	3.8731	1.1356	7.06	1.07	0.750			
0.3694	23639.27	3.8700	3.8699	1.1403	7.05	1.06	0.750			
0.3728	23860.03	3.8670	3.8670	1.1403	7.04	1.05	0.750			
0.3763	24081.34	3.8640	3.8640	1.1386	7.02	1.03	0.750			
0.3796	24295.92	3.8610	3.8612	1.1435	7.01	1.02	0.750			
0.3830	24512.39	3.8580	3.8579	1.1716	7.00	1.01	0.750			
0.3865	24734.71	3.8550	3.8551	1.1909	7.00	1.01	0.750			
0.3901	24963.47	3.8520	3.8518	1.2179	6.99	1.00	0.750			
0.3938	25204.26	3.8490	3.8491	1.2548	6.97	0.98	0.750			
0.3976	25449.17	3.8460	3.8461	1.3032	6.95	0.96	0.750			
0.4016	25700.48	3.8430	3.8429	1.3194	6.93	0.94	0.750			
0.4055	25951.23	3.8400	3.8402	1.3563	6.92	0.93	0.750			
0.4096	26216.07	3.8370	3.8368	1.4043	6.91	0.92	0.750	0.406	0.921	
0.4139	26492.38	3.8340	3.8339	1.4224	6.90	0.91	0.750			
0.4183	26768.67	3.8310	3.8313	1.4520	6.88	0.89	0.750			
0.4227	27055.81	3.8280	3.8281	1.4524	6.87	0.88	0.750			
0.4273	27347.02	3.8250	3.8247	1.4759	6.85	0.86	0.750			
0.4315	27615.51	3.8220	3.8222	1.4653	6.83	0.84	0.750			
0.4359	27900.28	3.8190	3.8186	1.5096	6.81	0.82	0.750			
0.4405	28192.39	3.8160	3.8158	1.5806	6.79	0.80	0.750			
0.4453	28498.99	3.8130	3.8129	1.5915	6.78	0.79	0.750			
0.4502	28814.81	3.8100	3.8100	1.6138	6.76	0.77	0.750			
0.4551	29128.40	3.8070	3.8074	1.6546	6.73	0.74	0.750			
0.4601	29446.19	3.8040	3.8037	1.7054	6.71	0.72	0.750			
0.4652	29774.92	3.8010	3.8008	1.7213	6.68	0.69	0.750			
0.4704	30106.64	3.7980	3.7980	1.7474	6.66	0.67	0.750			
0.4758	30452.37	3.7950	3.7951	1.7753	6.63	0.64	0.750			
0.4813	30803.98	3.7920	3.7922	1.8073	6.62	0.63	0.750			
0.4868	31152.39	3.7890	3.7892	1.8203	6.60	0.61	0.750			
0.4923	31509.03	3.7860	3.7859	1.8649	6.57	0.58	0.750			
0.4979	31867.11	3.7830	3.7832	1.9005	6.55	0.56	0.750			
0.5035	32225.82	3.7800	3.7800	1.9219	6.52	0.53	0.750			
0.5094	32604.65	3.7770	3.7770	1.9337	6.49	0.50	0.750			
0.5153	32976.37	3.7740	3.7737	1.9833	6.47	0.48	0.750			
0.5212	33357.14	3.7710	3.7706	2.0261	6.45	0.46	0.750			
0.5275	33759.12	3.7680	3.7683	2.0451	6.43	0.44	0.750			
0.5338	34166.13	3.7650	3.7650	2.0378	6.40	0.41	0.750			
0.5399	34555.78	3.7620	3.7624	2.0451	6.37	0.38	0.750			
0.5462	34958.76	3.7590	3.7592	2.1050	6.35	0.36	0.750			
0.5524	35354.88	3.7560	3.7560	2.1077	6.33	0.34	0.750			
0.5589	35768.71	3.7530	3.7533	2.1690	6.30	0.31	0.750			
0.5656	36199.79	3.7500	3.7499	2.1591	6.27	0.28	0.750			
0.5718	36598.04	3.7470	3.7471	2.1697	6.25	0.26	0.750			
0.5787	37033.92	3.7440	3.7438	2.2602	6.22	0.23	0.750			
0.5855	37474.47	3.7410	3.7407	2.3682	6.19	0.20	0.750			
0.5930	37952.25	3.7380	3.7377	2.3872	6.16	0.17	0.750			
0.6001	38405.08	3.7350	3.7351	2.3583	6.14	0.15	0.750			
0.6072	38863.60	3.7320	3.7318	2.3823	6.11	0.12	0.750			
0.6141	39301.85	3.7290	3.7288	2.4544	6.09	0.10	0.750			
0.6216	39785.01	3.7260	3.7259	2.4941	6.07	0.08	0.750			
0.6295	40289.62	3.7230	3.7233	2.5603	6.05	0.06	0.750			
0.6373	40790.28	3.7200	3.7200	2.5149	6.03	0.04	0.750			
0.6447	41259.58	3.7170	3.7170	2.3738	6.02	0.03	0.750			
0.6518	41716.84	3.7140	3.7137	2.2352	6.01	0.02	0.750			
0.6584	42135.39	3.7110	3.7111	2.0704	6.00	0.01	0.750			
0.6642	42511.05	3.7080	3.7081	1.8384	5.99	-0.00	0.750			
0.6696	42851.54	3.7050	3.7052	1.6704	5.98	-0.01	0.750			
0.6741	43140.29	3.7020	3.7021	1.4765	5.97	-0.02	0.750			
0.6782	43402.05	3.6990	3.6989	1.3114	5.96	-0.03	0.750			
0.6817	43630.37	3.6960	3.6959	1.1905	5.96	-0.03	0.750			
0.6849	43835.26	3.6930	3.6931	1.0736	5.95	-0.04	0.750			
0.6880	44029.43	3.6900	3.6900	1.0064	5.95	-0.04	0.750			
0.6908	44210.63	3.6870	3.6870	0.9430	5.95	-0.04	0.750			
0.6935	44383.05	3.6840	3.6840	0.8941	5.95	-0.04	0.750			
0.6961	44549.93	3.6810	3.6810	0.8620	5.95	-0.04	0.750			
0.6987	44714.11	3.6780	3.6780	0.8354	5.95	-0.04	0.750			
0.7011	44870.55	3.6750	3.6749	0.7977	5.95	-0.04	0.750			
0.7035	45023.09	3.6720	3.6720	0.7651	5.95	-0.04	0.750			
0.7057	45166.76	3.6690	3.6690	0.7244	5.96	-0.03	0.750			
0.7079	45302.41	3.6660	3.6661	0.6834	5.96	-0.03	0.750			
0.7098	45428.57	3.6630	3.6630	0.6478	5.96	-0.03	0.750			
0.7117	45547.75	3.6600	3.6600	0.6087	5.97	-0.02	0.750			
0.7134	45660.65	3.6570	3.6569	0.5713	5.97	-0.02	0.750			
0.7151	45767.26	3.6540	3.6541	0.5363	5.97	-0.02	0.750			
0.7167	45868.33	3.6510	3.6510	0.5015	5.97	-0.02	0.750			
0.7181	45961.46	3.6480	3.6481	0.4626	5.98	-0.01	0.750			
0.7195	46046.27	3.6450	3.6449	0.4255	5.98	-0.01	0.750			
0.7207	46123.20	3.6420	3.6422	0.3865	5.98	-0.01	0.750			
0.7218	46194.35	3.6390	3.6389	0.3525	5.98	-0.01	0.750			
0.7228	46258.38	3.6360	3.6361	0.3179	5.98	-0.01	0.750			
0.7237	46315.77	3.6330	3.6330	0.2834	5.99	-0.00	0.750			
0.7245	46367.49	3.6300	3.6298	0.2458	5.99	-0.00	0.750			
0.7252	46412.31	3.6270	3.6269	0.2123	5.99	-0.00	0.750			
0.7258	46449.33	3.6240	3.6241	0.1745	5.99	-0.00	0.750			
0.7262	46479.97	3.6210	3.6212	0.1375	5.99	-0.00	0.750			
0.7266	46503.54	3.6180	3.6183	0.0980	5.99	-0.00	0.750			
0.7269	46518.92	3.6150	3.6165	0.0559	5.99	0.00	0.750			
0.7270	46525.66	3.6120	3.6144	0.0089	5.99	0.00	0.750			
