Ah_balance (normalized)	Ah_balance (mAh)	Voltage - fit (V)	Voltage -  interpolate (V)	dQ/dV (1/V)	Temperature (°C)	Temperature - diff (°C)	Current (C)	R_DC 0ms (mOhm)	R_DC 50ms (mOhm)	R_DC 50 ms PEC (mOhm)
0.1788	11440.31	4.0810	4.0810	0.7620	7.19	1.20	0.750			
0.1811	11587.43	4.0780	4.0778	0.7683	7.19	1.20	0.750			
0.1833	11734.12	4.0750	4.0751	0.7701	7.19	1.20	0.750			
0.1857	11883.41	4.0720	4.0719	0.7738	7.18	1.19	0.750			
0.1880	12030.55	4.0690	4.0690	0.7823	7.18	1.19	0.750			
0.1903	12181.42	4.0660	4.0660	0.7886	7.18	1.19	0.750			
0.1927	12333.44	4.0630	4.0630	0.7931	7.17	1.18	0.750			
0.1951	12487.45	4.0600	4.0599	0.7966	7.17	1.18	0.750			
0.1975	12642.65	4.0570	4.0571	0.7943	7.16	1.17	0.750			
0.1999	12794.16	4.0540	4.0539	0.7936	7.16	1.17	0.750			
0.2023	12947.14	4.0510	4.0511	0.7940	7.15	1.16	0.750			
0.2046	13097.10	4.0480	4.0480	0.7946	7.14	1.15	0.750			
0.2070	13247.44	4.0450	4.0450	0.8030	7.14	1.15	0.750			
0.2094	13404.18	4.0420	4.0420	0.8035	7.13	1.14	0.750			
0.2119	13559.34	4.0390	4.0390	0.8111	7.13	1.14	0.750			
0.2143	13716.05	4.0360	4.0360	0.8160	7.12	1.13	0.750			
0.2168	13873.10	4.0330	4.0331	0.8173	7.11	1.12	0.750			
0.2192	14030.60	4.0300	4.0298	0.8221	7.11	1.12	0.750			
0.2217	14188.02	4.0270	4.0271	0.8244	7.11	1.12	0.750			
0.2241	14345.29	4.0240	4.0240	0.8179	7.10	1.11	0.750			
0.2266	14503.70	4.0210	4.0211	0.8248	7.10	1.11	0.750			
0.2291	14660.58	4.0180	4.0181	0.8259	7.09	1.10	0.750			
0.2316	14819.64	4.0150	4.0146	0.8310	7.09	1.10	0.750			
0.2341	14981.35	4.0120	4.0121	0.8302	7.08	1.09	0.750			
0.2366	15140.43	4.0090	4.0091	0.8358	7.07	1.08	0.750			
0.2391	15302.94	4.0060	4.0060	0.8441	7.07	1.08	0.750			
0.2416	15464.01	4.0030	4.0031	0.8459	7.06	1.07	0.750			
0.2442	15626.44	4.0000	3.9999	0.8508	7.05	1.06	0.750			
0.2467	15791.62	3.9970	3.9970	0.8512	7.04	1.05	0.750			
0.2493	15956.48	3.9940	3.9941	0.8585	7.03	1.04	0.750			
0.2519	16121.88	3.9910	3.9911	0.8601	7.02	1.03	0.750			
0.2545	16286.15	3.9880	3.9880	0.8586	7.02	1.03	0.750			
0.2570	16450.54	3.9850	3.9851	0.8614	7.01	1.02	0.750			
0.2596	16616.72	3.9820	3.9820	0.8643	7.00	1.01	0.750			
0.2622	16783.61	3.9790	3.9790	0.8728	7.00	1.01	0.750			
0.2649	16952.19	3.9760	3.9760	0.8789	7.00	1.01	0.750			
0.2675	17121.00	3.9730	3.9730	0.8800	6.99	1.00	0.750			
0.2702	17291.68	3.9700	3.9700	0.8837	6.99	1.00	0.750			
0.2728	17460.55	3.9670	3.9670	0.8851	6.98	0.99	0.750			
0.2755	17630.35	3.9640	3.9641	0.8895	6.97	0.98	0.750			
0.2781	17800.70	3.9610	3.9610	0.8959	6.96	0.97	0.750			
0.2808	17972.35	3.9580	3.9578	0.8981	6.95	0.96	0.750			
0.2835	18147.15	3.9550	3.9551	0.8994	6.95	0.96	0.750			
0.2862	18319.28	3.9520	3.9520	0.9082	6.94	0.95	0.750			
0.2890	18494.98	3.9490	3.9491	0.9168	6.94	0.95	0.750			
0.2917	18670.92	3.9460	3.9459	0.9258	6.93	0.94	0.750			
0.2945	18847.99	3.9430	3.9429	0.9304	6.93	0.94	0.750			
0.2973	19029.04	3.9400	3.9400	0.9303	6.92	0.93	0.750			
0.3001	19208.76	3.9370	3.9371	0.9421	6.91	0.92	0.750			
0.3030	19390.52	3.9340	3.9340	0.9444	6.90	0.91	0.750			
0.3058	19569.80	3.9310	3.9308	0.9475	6.89	0.90	0.750			
0.3086	19752.74	3.9280	3.9281	0.9481	6.88	0.89	0.750			
0.3115	19934.17	3.9250	3.9251	0.9568	6.87	0.88	0.750			
0.3144	20121.11	3.9220	3.9220	0.9699	6.86	0.87	0.750			
0.3173	20306.61	3.9190	3.9191	0.9746	6.85	0.86	0.750			
0.3202	20494.51	3.9160	3.9160	0.9798	6.85	0.86	0.750			
0.3232	20684.22	3.9130	3.9131	0.9929	6.84	0.85	0.750			
0.3262	20875.21	3.9100	3.9100	1.0006	6.84	0.85	0.750			
0.3292	21069.21	3.9070	3.9070	1.0125	6.83	0.84	0.750			
0.3323	21264.51	3.9040	3.9040	1.0215	6.83	0.84	0.750			
0.3353	21461.83	3.9010	3.9010	1.0341	6.82	0.83	0.750			
0.3385	21661.04	3.8980	3.8980	1.0475	6.81	0.82	0.750			
0.3416	21864.96	3.8950	3.8952	1.0583	6.80	0.81	0.750			
0.3449	22071.48	3.8920	3.8919	1.0570	6.79	0.80	0.750			
0.3480	22273.98	3.8890	3.8890	1.0696	6.78	0.79	0.750			
0.3512	22476.85	3.8860	3.8861	1.0816	6.77	0.78	0.750			
0.3544	22684.75	3.8830	3.8831	1.0952	6.76	0.77	0.750			
0.3578	22896.50	3.8800	3.8801	1.1080	6.75	0.76	0.750			
0.3611	23111.09	3.8770	3.8770	1.1246	6.73	0.74	0.750			
0.3645	23329.69	3.8740	3.8741	1.1448	6.72	0.73	0.750			
0.3680	23551.28	3.8710	3.8709	1.1643	6.71	0.72	0.750			
0.3715	23775.84	3.8680	3.8681	1.1672	6.70	0.71	0.750			
0.3750	23999.80	3.8650	3.8650	1.1844	6.69	0.70	0.750			
0.3786	24228.62	3.8620	3.8621	1.2019	6.68	0.69	0.750			
0.3822	24459.45	3.8590	3.8591	1.2114	6.67	0.68	0.750			
0.3859	24694.41	3.8560	3.8561	1.2341	6.66	0.67	0.750			
0.3896	24931.94	3.8530	3.8531	1.2578	6.64	0.65	0.750			
0.3934	25178.37	3.8500	3.8496	1.2717	6.63	0.64	0.750			
0.3973	25425.30	3.8470	3.8470	1.2825	6.62	0.63	0.750			
0.4011	25670.07	3.8440	3.8441	1.3095	6.62	0.63	0.750			
0.4050	25921.30	3.8410	3.8411	1.3407	6.61	0.62	0.750			
0.4091	26180.72	3.8380	3.8380	1.3773	6.60	0.61	0.750			
0.4132	26445.76	3.8350	3.8352	1.4099	6.58	0.59	0.750	0.380	0.902	
0.4176	26723.26	3.8320	3.8321	1.4389	6.56	0.57	0.750			
0.4220	27009.98	3.8290	3.8290	1.4625	6.54	0.55	0.750			
0.4264	27292.38	3.8260	3.8261	1.4843	6.54	0.55	0.750			
0.4308	27573.18	3.8230	3.8228	1.4958	6.53	0.54	0.750			
0.4353	27859.30	3.8200	3.8201	1.5314	6.52	0.53	0.750			
0.4400	28159.63	3.8170	3.8170	1.5542	6.50	0.51	0.750			
0.4447	28460.27	3.8140	3.8141	1.5910	6.49	0.50	0.750			
0.4495	28767.02	3.8110	3.8112	1.6360	6.47	0.48	0.750			
0.4545	29087.27	3.8080	3.8080	1.6782	6.46	0.47	0.750			
0.4594	29404.52	3.8050	3.8051	1.6802	6.44	0.45	0.750			
0.4646	29733.45	3.8020	3.8021	1.7022	6.42	0.43	0.750			
0.4697	30062.14	3.7990	3.7992	1.7556	6.41	0.42	0.750			
0.4749	30395.72	3.7960	3.7963	1.7787	6.39	0.40	0.750			
0.4804	30742.85	3.7930	3.7930	1.8200	6.37	0.38	0.750			
0.4861	31112.73	3.7900	3.7899	1.8517	6.35	0.36	0.750			
0.4916	31460.70	3.7870	3.7872	1.8815	6.34	0.35	0.750			
0.4973	31826.61	3.7840	3.7842	1.9117	6.32	0.33	0.750			
0.5031	32197.15	3.7810	3.7812	1.9320	6.30	0.31	0.750			
0.5090	32573.75	3.7780	3.7778	1.9463	6.29	0.30	0.750			
0.5148	32945.71	3.7750	3.7750	1.9964	6.28	0.29	0.750			
0.5208	33328.67	3.7720	3.7720	2.0018	6.26	0.27	0.750			
0.5268	33712.04	3.7690	3.7691	2.0036	6.24	0.25	0.750			
0.5329	34108.57	3.7660	3.7660	2.0505	6.22	0.23	0.750			
0.5390	34496.87	3.7630	3.7631	2.0733	6.20	0.21	0.750			
0.5453	34899.48	3.7600	3.7600	2.1002	6.19	0.20	0.750			
0.5517	35310.30	3.7570	3.7569	2.1371	6.16	0.17	0.750			
0.5582	35723.20	3.7540	3.7541	2.1538	6.14	0.15	0.750			
0.5647	36141.43	3.7510	3.7509	2.2028	6.12	0.13	0.750			
0.5712	36555.84	3.7480	3.7482	2.2393	6.10	0.11	0.750			
0.5781	36996.59	3.7450	3.7453	2.3240	6.09	0.10	0.750			
0.5853	37456.19	3.7420	3.7419	2.3563	6.07	0.08	0.750			
0.5926	37924.60	3.7390	3.7390	2.3798	6.05	0.06	0.750			
0.5998	38386.96	3.7360	3.7358	2.4223	6.04	0.05	0.750			
0.6070	38845.74	3.7330	3.7327	2.4462	6.02	0.03	0.750			
0.6143	39312.75	3.7300	3.7301	2.5326	6.00	0.01	0.750			
0.6223	39826.16	3.7270	3.7269	2.5906	5.98	-0.01	0.750			
0.6300	40318.33	3.7240	3.7240	2.5989	5.97	-0.02	0.750			
0.6378	40820.36	3.7210	3.7208	2.5344	5.96	-0.03	0.750			
0.6453	41299.68	3.7180	3.7180	2.4495	5.95	-0.04	0.750			
0.6527	41771.82	3.7150	3.7148	2.3331	5.94	-0.05	0.750			
0.6594	42201.35	3.7120	3.7118	2.2005	5.92	-0.07	0.750			
0.6659	42618.96	3.7090	3.7088	1.9917	5.91	-0.08	0.750			
0.6715	42975.42	3.7060	3.7061	1.7645	5.91	-0.08	0.750			
0.6764	43289.10	3.7030	3.7030	1.5703	5.92	-0.07	0.750			
0.6806	43561.47	3.7000	3.6998	1.3752	5.93	-0.06	0.750			
0.6844	43801.05	3.6970	3.6971	1.2309	5.93	-0.06	0.750			
0.6877	44011.10	3.6940	3.6940	1.1063	5.92	-0.07	0.750			
0.6908	44210.81	3.6910	3.6911	1.0391	5.91	-0.08	0.750			
0.6938	44402.19	3.6880	3.6875	0.9807	5.91	-0.08	0.750			
0.6966	44581.90	3.6850	3.6850	0.9283	5.91	-0.08	0.750			
0.6993	44755.71	3.6820	3.6821	0.8898	5.92	-0.07	0.750			
0.7019	44923.61	3.6790	3.6790	0.8608	5.92	-0.07	0.750			
0.7044	45083.96	3.6760	3.6760	0.8215	5.93	-0.06	0.750			
0.7068	45238.15	3.6730	3.6730	0.7883	5.93	-0.06	0.750			
0.7092	45387.02	3.6700	3.6701	0.7540	5.93	-0.06	0.750			
0.7114	45532.09	3.6670	3.6670	0.7190	5.94	-0.05	0.750			
0.7135	45666.25	3.6640	3.6641	0.6809	5.94	-0.05	0.750			
0.7155	45792.12	3.6610	3.6610	0.6415	5.94	-0.05	0.750			
0.7174	45910.85	3.6580	3.6580	0.6014	5.95	-0.04	0.750			
0.7191	46022.34	3.6550	3.6549	0.5640	5.95	-0.04	0.750			
0.7207	46127.61	3.6520	3.6521	0.5253	5.96	-0.03	0.750			
0.7223	46226.45	3.6490	3.6489	0.4900	5.96	-0.03	0.750			
0.7237	46316.48	3.6460	3.6460	0.4508	5.97	-0.02	0.750			
0.7250	46398.37	3.6430	3.6430	0.4116	5.97	-0.02	0.750			
0.7261	46472.71	3.6400	3.6400	0.3747	5.97	-0.02	0.750			
0.7272	46541.84	3.6370	3.6370	0.3418	5.98	-0.01	0.750			
0.7282	46603.81	3.6340	3.6340	0.3058	5.98	-0.01	0.750			
0.7291	46659.67	3.6310	3.6310	0.2720	5.98	-0.01	0.750			
0.7298	46709.45	3.6280	3.6279	0.2345	5.99	-0.00	0.750			
0.7305	46751.29	3.6250	3.6250	0.1973	5.99	-0.00	0.750			
0.7310	46785.66	3.6220	3.6222	0.1584	5.99	-0.00	0.750			
0.7314	46812.74	3.6190	3.6192	0.1193	5.99	0.00	0.750			
0.7317	46831.79	3.6160	3.6166	0.0791	5.99	0.00	0.750			
0.7319	46842.92	3.6130	3.6140	0.0394	5.99	0.00	0.750			
0.7320	46846.67	3.6100	3.6124	-0.0004	5.99	0.00	0.750			
