Ah_balance (normalized)	Ah_balance (mAh)	Voltage - fit (V)	Voltage -  interpolate (V)	dQ/dV (1/V)	Temperature (°C)	Temperature - diff (°C)	Current (C)	R_DC 0ms (mOhm)	R_DC 50ms (mOhm)	R_DC 50 ms PEC (mOhm)
0.1749	11193.89	4.0840	4.0840	0.7267	7.50	1.53	0.750			
0.1771	11336.10	4.0810	4.0808	0.7511	7.49	1.52	0.750			
0.1794	11481.73	4.0780	4.0781	0.7629	7.48	1.51	0.750			
0.1817	11630.69	4.0750	4.0749	0.7698	7.48	1.51	0.750			
0.1840	11779.05	4.0720	4.0721	0.7744	7.47	1.50	0.750			
0.1864	11928.99	4.0690	4.0690	0.7778	7.46	1.49	0.750			
0.1887	12077.55	4.0660	4.0661	0.7820	7.45	1.48	0.750			
0.1911	12228.14	4.0630	4.0629	0.7822	7.45	1.48	0.750			
0.1934	12380.21	4.0600	4.0600	0.7791	7.44	1.47	0.750			
0.1958	12528.54	4.0570	4.0570	0.7797	7.44	1.47	0.750			
0.1981	12678.56	4.0540	4.0541	0.7866	7.44	1.47	0.750			
0.2004	12827.81	4.0510	4.0510	0.7909	7.43	1.46	0.750			
0.2028	12980.00	4.0480	4.0478	0.7935	7.43	1.46	0.750			
0.2052	13133.18	4.0450	4.0450	0.7953	7.43	1.46	0.750			
0.2076	13289.22	4.0420	4.0420	0.7994	7.42	1.45	0.750			
0.2100	13440.87	4.0390	4.0392	0.8039	7.42	1.45	0.750			
0.2124	13592.16	4.0360	4.0360	0.8048	7.41	1.44	0.750			
0.2148	13748.13	4.0330	4.0328	0.8080	7.41	1.44	0.750			
0.2172	13902.58	4.0300	4.0300	0.8111	7.40	1.43	0.750			
0.2197	14061.09	4.0270	4.0271	0.8130	7.40	1.43	0.750			
0.2222	14220.31	4.0240	4.0241	0.8200	7.39	1.42	0.750			
0.2246	14375.45	4.0210	4.0210	0.8183	7.38	1.41	0.750			
0.2271	14531.45	4.0180	4.0178	0.8243	7.37	1.40	0.750			
0.2295	14689.24	4.0150	4.0150	0.8267	7.36	1.39	0.750			
0.2320	14850.95	4.0120	4.0120	0.8335	7.36	1.39	0.750			
0.2346	15012.01	4.0090	4.0091	0.8413	7.35	1.38	0.750			
0.2371	15171.80	4.0060	4.0061	0.8474	7.34	1.37	0.750			
0.2396	15336.64	4.0030	4.0028	0.8555	7.33	1.36	0.750			
0.2422	15500.96	4.0000	4.0001	0.8578	7.32	1.35	0.750			
0.2448	15668.43	3.9970	3.9970	0.8538	7.31	1.34	0.750			
0.2474	15834.61	3.9940	3.9942	0.8610	7.31	1.34	0.750			
0.2500	15997.30	3.9910	3.9910	0.8557	7.30	1.33	0.750			
0.2525	16160.91	3.9880	3.9873	0.8572	7.29	1.32	0.750			
0.2551	16324.01	3.9850	3.9850	0.8524	7.28	1.31	0.750			
0.2576	16489.29	3.9820	3.9821	0.8612	7.27	1.30	0.750			
0.2603	16656.38	3.9790	3.9790	0.8743	7.27	1.30	0.750			
0.2629	16828.35	3.9760	3.9759	0.8842	7.26	1.29	0.750			
0.2655	16992.50	3.9730	3.9730	0.8761	7.25	1.28	0.750			
0.2682	17162.74	3.9700	3.9701	0.8826	7.24	1.27	0.750			
0.2708	17333.26	3.9670	3.9671	0.8902	7.24	1.27	0.750			
0.2735	17504.87	3.9640	3.9640	0.8964	7.23	1.26	0.750			
0.2762	17676.04	3.9610	3.9610	0.8996	7.22	1.25	0.750			
0.2789	17848.07	3.9580	3.9580	0.9077	7.22	1.25	0.750			
0.2817	18025.72	3.9550	3.9550	0.9109	7.21	1.24	0.750			
0.2844	18199.85	3.9520	3.9520	0.9160	7.20	1.23	0.750			
0.2871	18376.60	3.9490	3.9491	0.9210	7.19	1.22	0.750			
0.2899	18551.79	3.9460	3.9458	0.9302	7.18	1.21	0.750			
0.2927	18731.52	3.9430	3.9430	0.9345	7.17	1.20	0.750			
0.2955	18911.78	3.9400	3.9400	0.9442	7.17	1.20	0.750			
0.2984	19094.57	3.9370	3.9370	0.9524	7.16	1.19	0.750			
0.3012	19279.26	3.9340	3.9341	0.9543	7.15	1.18	0.750			
0.3041	19463.10	3.9310	3.9310	0.9607	7.14	1.17	0.750			
0.3070	19647.93	3.9280	3.9280	0.9673	7.13	1.16	0.750			
0.3099	19832.72	3.9250	3.9250	0.9753	7.11	1.14	0.750			
0.3128	20020.93	3.9220	3.9220	0.9887	7.10	1.13	0.750			
0.3158	20212.60	3.9190	3.9189	0.9902	7.09	1.12	0.750			
0.3188	20403.59	3.9160	3.9160	0.9981	7.08	1.11	0.750			
0.3218	20595.13	3.9130	3.9131	1.0133	7.07	1.10	0.750			
0.3248	20790.16	3.9100	3.9100	1.0202	7.06	1.09	0.750			
0.3279	20988.38	3.9070	3.9069	1.0263	7.05	1.08	0.750			
0.3310	21186.08	3.9040	3.9040	1.0335	7.04	1.07	0.750			
0.3342	21387.21	3.9010	3.9011	1.0384	7.03	1.06	0.750			
0.3373	21587.76	3.8980	3.8981	1.0468	7.02	1.05	0.750			
0.3404	21787.45	3.8950	3.8948	1.0454	7.01	1.04	0.750			
0.3435	21985.57	3.8920	3.8920	1.0531	7.00	1.03	0.750			
0.3467	22187.00	3.8890	3.8890	1.0663	6.99	1.02	0.750			
0.3499	22392.96	3.8860	3.8860	1.0823	6.98	1.01	0.750			
0.3532	22605.81	3.8830	3.8829	1.0922	6.97	1.00	0.750			
0.3565	22816.95	3.8800	3.8801	1.1100	6.95	0.98	0.750			
0.3598	23028.68	3.8770	3.8771	1.1328	6.94	0.97	0.750			
0.3633	23250.15	3.8740	3.8740	1.1513	6.92	0.95	0.750			
0.3668	23472.11	3.8710	3.8710	1.1616	6.91	0.94	0.750			
0.3702	23695.57	3.8680	3.8681	1.1798	6.90	0.93	0.750			
0.3738	23924.40	3.8650	3.8651	1.1988	6.89	0.92	0.750			
0.3775	24161.60	3.8620	3.8617	1.2099	6.88	0.91	0.750			
0.3811	24389.48	3.8590	3.8590	1.2233	6.87	0.90	0.750			
0.3848	24624.93	3.8560	3.8561	1.2379	6.85	0.88	0.750			
0.3886	24868.58	3.8530	3.8529	1.2548	6.84	0.87	0.750			
0.3924	25110.45	3.8500	3.8500	1.2625	6.82	0.85	0.750			
0.3960	25344.67	3.8470	3.8472	1.2961	6.81	0.84	0.750			
0.4000	25598.38	3.8440	3.8441	1.3256	6.80	0.83	0.750			
0.4040	25854.47	3.8410	3.8408	1.3750	6.79	0.82	0.750			
0.4081	26119.52	3.8380	3.8382	1.4203	6.77	0.80	0.750	0.373	0.873	
0.4125	26398.83	3.8350	3.8352	1.4662	6.76	0.79	0.750			
0.4170	26691.15	3.8320	3.8321	1.4912	6.74	0.77	0.750			
0.4215	26978.42	3.8290	3.8291	1.4950	6.72	0.75	0.750			
0.4260	27262.81	3.8260	3.8260	1.4883	6.70	0.73	0.750			
0.4306	27555.50	3.8230	3.8232	1.4964	6.68	0.71	0.750			
0.4350	27841.29	3.8200	3.8200	1.5208	6.65	0.68	0.750			
0.4396	28131.72	3.8170	3.8169	1.5493	6.63	0.66	0.750			
0.4443	28436.50	3.8140	3.8140	1.5874	6.62	0.65	0.750			
0.4490	28738.37	3.8110	3.8111	1.6177	6.60	0.63	0.750			
0.4539	29051.10	3.8080	3.8079	1.6515	6.58	0.61	0.750			
0.4589	29372.74	3.8050	3.8049	1.6868	6.56	0.59	0.750			
0.4641	29699.69	3.8020	3.8020	1.7079	6.53	0.56	0.750			
0.4693	30032.81	3.7990	3.7992	1.7512	6.52	0.55	0.750			
0.4746	30371.95	3.7960	3.7961	1.7634	6.50	0.53	0.750			
0.4799	30712.61	3.7930	3.7931	1.8098	6.48	0.51	0.750			
0.4853	31057.91	3.7900	3.7900	1.8111	6.46	0.49	0.750			
0.4907	31405.77	3.7870	3.7869	1.8417	6.44	0.47	0.750			
0.4964	31767.31	3.7840	3.7843	1.8678	6.41	0.44	0.750			
0.5020	32127.87	3.7810	3.7810	1.8902	6.39	0.42	0.750			
0.5077	32490.20	3.7780	3.7781	1.8771	6.37	0.40	0.750			
0.5133	32852.30	3.7750	3.7751	1.9177	6.35	0.38	0.750			
0.5192	33229.66	3.7720	3.7721	1.9436	6.32	0.35	0.750			
0.5251	33606.66	3.7690	3.7695	1.9633	6.30	0.33	0.750			
0.5310	33982.85	3.7660	3.7660	1.9597	6.28	0.31	0.750			
0.5369	34360.47	3.7630	3.7630	1.9762	6.26	0.29	0.750			
0.5428	34739.79	3.7600	3.7602	2.0213	6.24	0.27	0.750			
0.5489	35128.82	3.7570	3.7570	2.0088	6.21	0.24	0.750			
0.5548	35509.52	3.7540	3.7540	2.0418	6.19	0.22	0.750			
0.5611	35910.07	3.7510	3.7508	2.0957	6.17	0.20	0.750			
0.5675	36317.12	3.7480	3.7481	2.1587	6.14	0.17	0.750			
0.5741	36739.49	3.7450	3.7450	2.1892	6.12	0.15	0.750			
0.5808	37168.46	3.7420	3.7424	2.2388	6.10	0.13	0.750			
0.5875	37598.50	3.7390	3.7391	2.2841	6.09	0.12	0.750			
0.5943	38037.03	3.7360	3.7361	2.3675	6.07	0.10	0.750			
0.6015	38498.33	3.7330	3.7330	2.4489	6.05	0.08	0.750			
0.6091	38985.12	3.7300	3.7299	2.4598	6.03	0.06	0.750			
0.6167	39466.62	3.7270	3.7271	2.4436	6.02	0.05	0.750			
0.6241	39940.74	3.7240	3.7238	2.3915	6.00	0.03	0.750			
0.6310	40381.27	3.7210	3.7209	2.2898	5.98	0.01	0.750			
0.6378	40818.38	3.7180	3.7180	2.1833	5.97	0.00	0.750			
0.6440	41218.28	3.7150	3.7151	1.9969	5.97	-0.00	0.750			
0.6499	41595.27	3.7120	3.7119	1.8407	5.96	-0.01	0.750			
0.6552	41930.71	3.7090	3.7087	1.6683	5.96	-0.01	0.750			
0.6597	42222.45	3.7060	3.7062	1.4711	5.95	-0.02	0.750			
0.6639	42490.08	3.7030	3.7029	1.3442	5.95	-0.02	0.750			
0.6677	42730.86	3.7000	3.7000	1.2254	5.95	-0.02	0.750			
0.6711	42948.05	3.6970	3.6970	1.1164	5.94	-0.03	0.750			
0.6742	43151.68	3.6940	3.6940	1.0611	5.94	-0.03	0.750			
0.6773	43347.82	3.6910	3.6903	1.0082	5.93	-0.04	0.750			
0.6802	43532.79	3.6880	3.6879	0.9586	5.93	-0.04	0.750			
0.6830	43713.46	3.6850	3.6852	0.9256	5.93	-0.04	0.750			
0.6857	43886.55	3.6820	3.6820	0.8948	5.94	-0.03	0.750			
0.6884	44056.03	3.6790	3.6790	0.8642	5.94	-0.03	0.750			
0.6909	44217.64	3.6760	3.6760	0.8340	5.94	-0.03	0.750			
0.6933	44373.01	3.6730	3.6730	0.8048	5.94	-0.03	0.750			
0.6957	44527.63	3.6700	3.6700	0.7747	5.94	-0.03	0.750			
0.6980	44672.73	3.6670	3.6670	0.7501	5.95	-0.02	0.750			
0.7002	44813.86	3.6640	3.6640	0.7208	5.95	-0.02	0.750			
0.7023	44950.08	3.6610	3.6607	0.6907	5.95	-0.02	0.750			
0.7044	45080.28	3.6580	3.6581	0.6620	5.95	-0.02	0.750			
0.7063	45204.21	3.6550	3.6552	0.6308	5.96	-0.01	0.750			
0.7082	45323.50	3.6520	3.6519	0.6014	5.96	-0.01	0.750			
0.7100	45437.84	3.6490	3.6488	0.5648	5.96	-0.01	0.750			
0.7115	45539.13	3.6460	3.6461	0.5312	5.96	-0.01	0.750			
0.7131	45639.20	3.6430	3.6430	0.5040	5.97	-0.00	0.750			
0.7146	45734.23	3.6400	3.6398	0.4738	5.97	-0.00	0.750			
0.7160	45821.92	3.6370	3.6372	0.4403	5.97	0.00	0.750			
0.7172	45903.54	3.6340	3.6341	0.4079	5.97	0.00	0.750			
0.7184	45979.33	3.6310	3.6310	0.3734	5.98	0.01	0.750			
0.7195	46048.77	3.6280	3.6279	0.3395	5.98	0.01	0.750			
0.7205	46109.29	3.6250	3.6250	0.3000	5.98	0.01	0.750			
0.7213	46164.75	3.6220	3.6219	0.2572	5.98	0.01	0.750			
0.7221	46211.67	3.6190	3.6189	0.2190	5.98	0.01	0.750			
0.7227	46249.68	3.6160	3.6162	0.1744	5.98	0.01	0.750			
0.7231	46280.29	3.6130	3.6131	0.1299	5.98	0.01	0.750			
0.7235	46301.70	3.6100	3.6102	0.0816	5.98	0.01	0.750			
0.7236	46312.96	3.6070	3.6062	0.0305	5.98	0.01	0.750			
0.7237	46313.89	3.6040	3.6058	-0.0207	5.98	0.01	0.751			
