Ah_balance (normalized)	Ah_balance (mAh)	Voltage - fit (V)	Voltage -  interpolate (V)	dQ/dV (1/V)	Temperature (°C)	Temperature - diff (°C)	Current (C)	R_DC 0ms (mOhm)	R_DC 50ms (mOhm)	R_DC 50 ms PEC (mOhm)
0.1814	11612.12	4.0790	4.0790	0.8095	7.28	1.31	0.750			
0.1839	11767.36	4.0760	4.0759	0.8007	7.28	1.31	0.750			
0.1862	11918.43	4.0730	4.0731	0.7910	7.28	1.31	0.750			
0.1886	12068.81	4.0700	4.0701	0.7879	7.27	1.30	0.750			
0.1909	12218.23	4.0670	4.0671	0.7898	7.27	1.30	0.750			
0.1933	12369.56	4.0640	4.0640	0.7907	7.27	1.30	0.750			
0.1957	12523.03	4.0610	4.0609	0.7885	7.26	1.29	0.750			
0.1980	12673.33	4.0580	4.0581	0.7905	7.26	1.29	0.750			
0.2004	12826.37	4.0550	4.0551	0.7969	7.25	1.28	0.750			
0.2028	12978.13	4.0520	4.0518	0.7978	7.25	1.28	0.750			
0.2052	13130.88	4.0490	4.0490	0.8005	7.25	1.28	0.750			
0.2076	13285.54	4.0460	4.0461	0.8033	7.24	1.27	0.750			
0.2100	13441.90	4.0430	4.0430	0.8144	7.24	1.27	0.750			
0.2125	13600.00	4.0400	4.0400	0.8191	7.24	1.27	0.750			
0.2149	13756.01	4.0370	4.0368	0.8142	7.23	1.26	0.750			
0.2174	13912.47	4.0340	4.0341	0.8164	7.23	1.26	0.750			
0.2199	14073.21	4.0310	4.0310	0.8066	7.22	1.25	0.750			
0.2223	14226.01	4.0280	4.0280	0.8089	7.22	1.25	0.750			
0.2247	14379.65	4.0250	4.0250	0.8105	7.22	1.25	0.750			
0.2271	14531.82	4.0220	4.0222	0.8130	7.21	1.24	0.750			
0.2295	14688.73	4.0190	4.0192	0.8201	7.21	1.24	0.750			
0.2320	14850.35	4.0160	4.0160	0.8228	7.20	1.23	0.750			
0.2345	15008.00	4.0130	4.0130	0.8289	7.20	1.23	0.750			
0.2370	15169.26	4.0100	4.0101	0.8427	7.20	1.23	0.750			
0.2395	15327.96	4.0070	4.0071	0.8415	7.19	1.22	0.750			
0.2420	15491.14	4.0040	4.0040	0.8469	7.19	1.22	0.750			
0.2446	15654.71	4.0010	4.0011	0.8429	7.18	1.21	0.750			
0.2472	15817.63	3.9980	3.9981	0.8546	7.18	1.21	0.750			
0.2498	15984.95	3.9950	3.9950	0.8604	7.18	1.21	0.750			
0.2523	16147.30	3.9920	3.9919	0.8538	7.17	1.20	0.750			
0.2549	16311.55	3.9890	3.9891	0.8556	7.17	1.20	0.750			
0.2574	16476.13	3.9860	3.9861	0.8576	7.16	1.19	0.750			
0.2600	16641.53	3.9830	3.9830	0.8608	7.15	1.18	0.750			
0.2626	16805.10	3.9800	3.9800	0.8623	7.15	1.18	0.750			
0.2652	16972.90	3.9770	3.9767	0.8724	7.14	1.17	0.750			
0.2678	17141.28	3.9740	3.9740	0.8772	7.13	1.16	0.750			
0.2705	17309.91	3.9710	3.9711	0.8816	7.13	1.16	0.750			
0.2732	17481.70	3.9680	3.9680	0.8865	7.12	1.15	0.750			
0.2758	17652.08	3.9650	3.9649	0.8871	7.12	1.15	0.750			
0.2784	17819.70	3.9620	3.9621	0.8919	7.11	1.14	0.750			
0.2811	17992.06	3.9590	3.9590	0.8901	7.11	1.14	0.750			
0.2838	18164.77	3.9560	3.9560	0.8992	7.10	1.13	0.750			
0.2865	18337.94	3.9530	3.9531	0.9028	7.10	1.13	0.750			
0.2892	18510.03	3.9500	3.9502	0.9064	7.09	1.12	0.750			
0.2920	18685.84	3.9470	3.9469	0.9140	7.09	1.12	0.750			
0.2947	18860.32	3.9440	3.9440	0.9173	7.08	1.11	0.750			
0.2974	19036.30	3.9410	3.9411	0.9230	7.07	1.10	0.750			
0.3003	19217.32	3.9380	3.9380	0.9367	7.06	1.09	0.750			
0.3031	19395.21	3.9350	3.9349	0.9428	7.05	1.08	0.750			
0.3059	19578.85	3.9320	3.9320	0.9408	7.05	1.08	0.750			
0.3087	19758.77	3.9290	3.9290	0.9529	7.04	1.07	0.750			
0.3116	19943.35	3.9260	3.9260	0.9620	7.04	1.07	0.750			
0.3145	20126.87	3.9230	3.9231	0.9701	7.03	1.06	0.750			
0.3174	20315.93	3.9200	3.9201	0.9794	7.02	1.05	0.750			
0.3204	20504.32	3.9170	3.9170	0.9896	7.02	1.05	0.750			
0.3234	20695.09	3.9140	3.9141	0.9986	7.01	1.04	0.750			
0.3264	20889.32	3.9110	3.9111	1.0002	7.00	1.03	0.750			
0.3294	21083.55	3.9080	3.9080	1.0059	6.99	1.02	0.750			
0.3324	21275.51	3.9050	3.9050	1.0156	6.98	1.01	0.750			
0.3355	21469.74	3.9020	3.9021	1.0262	6.97	1.00	0.750			
0.3386	21668.57	3.8990	3.8989	1.0416	6.96	0.99	0.750			
0.3418	21872.12	3.8960	3.8961	1.0394	6.95	0.98	0.750			
0.3449	22071.30	3.8930	3.8931	1.0537	6.94	0.97	0.750			
0.3480	22274.34	3.8900	3.8901	1.0701	6.93	0.96	0.750			
0.3513	22480.49	3.8870	3.8870	1.0825	6.92	0.95	0.750			
0.3545	22688.86	3.8840	3.8839	1.0815	6.91	0.94	0.750			
0.3578	22897.42	3.8810	3.8811	1.1003	6.90	0.93	0.750			
0.3611	23110.05	3.8780	3.8782	1.1187	6.88	0.91	0.750			
0.3645	23327.58	3.8750	3.8749	1.1374	6.87	0.90	0.750			
0.3679	23545.37	3.8720	3.8720	1.1417	6.87	0.90	0.750			
0.3713	23763.85	3.8690	3.8690	1.1575	6.86	0.89	0.750			
0.3748	23988.95	3.8660	3.8661	1.1805	6.86	0.89	0.750			
0.3784	24219.83	3.8630	3.8629	1.1927	6.85	0.88	0.750			
0.3820	24448.21	3.8600	3.8600	1.2137	6.83	0.86	0.750			
0.3857	24684.44	3.8570	3.8571	1.2357	6.82	0.85	0.750			
0.3895	24929.95	3.8540	3.8538	1.2351	6.80	0.83	0.750			
0.3932	25165.53	3.8510	3.8510	1.2498	6.79	0.82	0.750			
0.3969	25403.72	3.8480	3.8482	1.2716	6.79	0.82	0.750			
0.4007	25643.94	3.8450	3.8452	1.3116	6.78	0.81	0.750			
0.4046	25895.76	3.8420	3.8421	1.3321	6.77	0.80	0.750			
0.4086	26152.02	3.8390	3.8391	1.3747	6.75	0.78	0.750			
0.4129	26423.10	3.8360	3.8360	1.4138	6.74	0.77	0.750			
0.4172	26701.34	3.8330	3.8334	1.4599	6.72	0.75	0.750	0.393	0.921	
0.4217	26985.98	3.8300	3.8302	1.4826	6.71	0.74	0.750			
0.4262	27277.53	3.8270	3.8270	1.4961	6.69	0.72	0.750			
0.4308	27572.76	3.8240	3.8241	1.5391	6.67	0.70	0.750			
0.4353	27856.55	3.8210	3.8208	1.5328	6.66	0.69	0.750			
0.4399	28151.89	3.8180	3.8179	1.5573	6.65	0.68	0.750			
0.4446	28453.10	3.8150	3.8151	1.5743	6.64	0.67	0.750			
0.4494	28759.87	3.8120	3.8121	1.6267	6.62	0.65	0.750			
0.4542	29071.67	3.8090	3.8087	1.6730	6.61	0.64	0.750			
0.4594	29400.00	3.8060	3.8060	1.7122	6.59	0.62	0.750			
0.4646	29733.48	3.8030	3.8030	1.7264	6.57	0.60	0.750			
0.4699	30072.91	3.8000	3.8001	1.7495	6.56	0.59	0.750			
0.4750	30399.87	3.7970	3.7973	1.8236	6.54	0.57	0.750			
0.4805	30753.59	3.7940	3.7939	1.8224	6.52	0.55	0.750			
0.4861	31109.14	3.7910	3.7911	1.9678	6.50	0.53	0.750			
0.4923	31504.52	3.7880	3.7879	2.1317	6.47	0.50	0.750			
0.4991	31943.76	3.7850	3.7852	2.1747	6.45	0.48	0.750			
0.5059	32379.99	3.7820	3.7818	2.2241	6.43	0.46	0.750			
0.5120	32769.15	3.7790	3.7787	2.0608	6.42	0.45	0.750			
0.5179	33147.61	3.7760	3.7762	2.0413	6.40	0.43	0.750			
0.5242	33546.28	3.7730	3.7729	2.0715	6.37	0.40	0.750			
0.5305	33952.83	3.7700	3.7700	2.0834	6.34	0.37	0.750			
0.5369	34362.51	3.7670	3.7671	2.1425	6.32	0.35	0.750			
0.5433	34768.09	3.7640	3.7639	2.1383	6.30	0.33	0.750			
0.5497	35181.47	3.7610	3.7611	2.1482	6.27	0.30	0.750			
0.5562	35596.42	3.7580	3.7581	2.1871	6.25	0.28	0.750			
0.5629	36022.55	3.7550	3.7548	2.2410	6.22	0.25	0.750			
0.5696	36456.32	3.7520	3.7520	2.2714	6.20	0.23	0.750			
0.5765	36898.03	3.7490	3.7492	2.3273	6.18	0.21	0.750			
0.5835	37344.71	3.7460	3.7460	2.3114	6.15	0.18	0.750			
0.5904	37784.18	3.7430	3.7431	2.3448	6.13	0.16	0.750			
0.5976	38249.45	3.7400	3.7400	2.5184	6.11	0.14	0.750			
0.6052	38733.09	3.7370	3.7370	2.5595	6.08	0.11	0.750			
0.6132	39242.69	3.7340	3.7343	2.6168	6.06	0.09	0.750			
0.6212	39758.70	3.7310	3.7311	2.6381	6.03	0.06	0.750			
0.6290	40253.21	3.7280	3.7281	2.6774	6.01	0.04	0.750			
0.6372	40783.17	3.7250	3.7250	2.7208	6.00	0.03	0.750			
0.6455	41314.77	3.7220	3.7220	2.6828	5.98	0.01	0.750			
0.6537	41836.46	3.7190	3.7189	2.6004	5.97	-0.00	0.750			
0.6613	42324.07	3.7160	3.7160	2.4296	5.96	-0.01	0.750			
0.6685	42785.34	3.7130	3.7132	2.2560	5.95	-0.02	0.750			
0.6749	43194.44	3.7100	3.7101	2.0032	5.94	-0.03	0.750			
0.6805	43554.56	3.7070	3.7071	1.7902	5.94	-0.03	0.750			
0.6855	43870.71	3.7040	3.7042	1.5647	5.93	-0.04	0.750			
0.6899	44155.42	3.7010	3.7008	1.3936	5.93	-0.04	0.750			
0.6937	44394.59	3.6980	3.6980	1.2033	5.93	-0.04	0.750			
0.6969	44604.68	3.6950	3.6952	1.1020	5.93	-0.04	0.750			
0.6998	44789.59	3.6920	3.6920	0.9904	5.93	-0.04	0.750			
0.7026	44966.36	3.6890	3.6887	0.9257	5.93	-0.04	0.750			
0.7052	45132.74	3.6860	3.6861	0.8760	5.93	-0.04	0.750			
0.7078	45300.72	3.6830	3.6830	0.8466	5.94	-0.03	0.750			
0.7103	45462.07	3.6800	3.6800	0.8250	5.94	-0.03	0.750			
0.7128	45618.60	3.6770	3.6770	0.7871	5.95	-0.02	0.750			
0.7151	45767.95	3.6740	3.6739	0.7510	5.95	-0.02	0.750			
0.7174	45910.66	3.6710	3.6711	0.7122	5.95	-0.02	0.750			
0.7194	46043.80	3.6680	3.6680	0.6703	5.96	-0.01	0.750			
0.7214	46168.34	3.6650	3.6650	0.6285	5.96	-0.01	0.750			
0.7232	46287.34	3.6620	3.6619	0.5773	5.96	-0.01	0.750			
0.7248	46390.07	3.6590	3.6590	0.5309	5.96	-0.01	0.750			
0.7264	46487.60	3.6560	3.6561	0.4935	5.97	-0.00	0.750			
0.7278	46578.23	3.6530	3.6530	0.4547	5.97	-0.00	0.750			
0.7291	46661.15	3.6500	3.6500	0.4145	5.97	0.00	0.750			
0.7303	46736.24	3.6470	3.6472	0.3763	5.97	0.00	0.750			
0.7313	46805.48	3.6440	3.6440	0.3405	5.98	0.01	0.750			
0.7323	46869.70	3.6410	3.6408	0.3084	5.98	0.01	0.750			
0.7332	46922.37	3.6380	3.6381	0.2645	5.98	0.01	0.750			
0.7339	46970.19	3.6350	3.6348	0.2267	5.98	0.01	0.750			
0.7345	47011.09	3.6320	3.6320	0.1913	5.98	0.01	0.750			
0.7351	47044.69	3.6290	3.6289	0.1539	5.98	0.01	0.750			
0.7355	47070.28	3.6260	3.6261	0.1148	5.98	0.01	0.750			
0.7358	47088.14	3.6230	3.6238	0.0766	5.98	0.01	0.750			
0.7359	47099.41	3.6200	3.6210	0.0382	5.98	0.01	0.750			
0.7360	47103.07	3.6170	3.6183	-0.0001	5.98	0.01	0.750			
