Ah_balance (normalized)	Ah_balance (mAh)	Voltage - fit (V)	Voltage -  interpolate (V)	dQ/dV (1/V)	Temperature (°C)	Temperature - diff (°C)	Current (C)	R_DC 0ms (mOhm)	R_DC 50ms (mOhm)	R_DC 50 ms PEC (mOhm)
-0.0503	-3216.50	4.0020	4.0016	-0.0869	5.99	0.02	-0.750			
-0.0499	-3196.48	3.9990	3.9989	-0.1173	5.99	0.02	-0.750			
-0.0495	-3170.73	3.9960	3.9959	-0.1451	5.98	0.01	-0.750			
-0.0491	-3140.42	3.9930	3.9930	-0.1722	5.98	0.01	-0.750			
-0.0485	-3104.55	3.9900	3.9900	-0.1982	5.98	0.01	-0.750			
-0.0479	-3062.90	3.9870	3.9870	-0.2234	5.98	0.01	-0.750			
-0.0472	-3017.68	3.9840	3.9840	-0.2477	5.98	0.01	-0.750			
-0.0464	-2968.10	3.9810	3.9811	-0.2722	5.98	0.01	-0.750			
-0.0455	-2913.83	3.9780	3.9780	-0.2974	5.98	0.01	-0.750			
-0.0446	-2854.49	3.9750	3.9750	-0.3225	5.98	0.01	-0.750			
-0.0436	-2789.97	3.9720	3.9720	-0.3465	5.97	0.00	-0.750			
-0.0425	-2721.40	3.9690	3.9690	-0.3732	5.97	0.00	-0.750			
-0.0414	-2647.06	3.9660	3.9661	-0.3986	5.97	0.00	-0.750			
-0.0401	-2568.27	3.9630	3.9630	-0.4245	5.97	-0.00	-0.750			
-0.0388	-2484.50	3.9600	3.9600	-0.4517	5.97	-0.00	-0.750			
-0.0374	-2395.20	3.9570	3.9570	-0.4763	5.96	-0.01	-0.750			
-0.0359	-2300.74	3.9540	3.9540	-0.5030	5.96	-0.01	-0.750			
-0.0344	-2201.37	3.9510	3.9510	-0.5285	5.96	-0.01	-0.750			
-0.0328	-2097.58	3.9480	3.9480	-0.5510	5.96	-0.01	-0.750			
-0.0311	-1989.03	3.9450	3.9450	-0.5737	5.95	-0.02	-0.750			
-0.0293	-1876.65	3.9420	3.9420	-0.5932	5.95	-0.02	-0.750			
-0.0275	-1760.70	3.9390	3.9390	-0.6123	5.95	-0.02	-0.750			
-0.0256	-1640.60	3.9360	3.9360	-0.6297	5.95	-0.02	-0.750			
-0.0237	-1518.23	3.9330	3.9330	-0.6461	5.95	-0.02	-0.750			
-0.0218	-1392.24	3.9300	3.9300	-0.6612	5.95	-0.02	-0.750			
-0.0197	-1262.71	3.9270	3.9270	-0.6737	5.95	-0.02	-0.750			
-0.0177	-1132.19	3.9240	3.9240	-0.6853	5.95	-0.02	-0.750			
-0.0156	-998.94	3.9210	3.9211	-0.6968	5.95	-0.02	-0.750			
-0.0135	-864.07	3.9180	3.9179	-0.7036	5.95	-0.02	-0.750			
-0.0114	-728.08	3.9150	3.9150	-0.7123	5.96	-0.01	-0.750			
-0.0092	-590.99	3.9120	3.9120	-0.7203	5.96	-0.01	-0.750			
-0.0071	-451.39	3.9090	3.9089	-0.7290	5.96	-0.01	-0.750			
-0.0049	-310.76	3.9060	3.9060	-0.7357	5.97	-0.00	-0.750			
-0.0026	-169.16	3.9030	3.9030	-0.7405	5.97	0.00	-0.750			
-0.0004	-26.04	3.9000	3.9000	-0.7457	5.97	0.00	-0.750			
0.0018	117.97	3.8970	3.8970	-0.7514	5.98	0.01	-0.750			
0.0041	262.28	3.8940	3.8940	-0.7543	5.98	0.01	-0.750			
0.0064	407.93	3.8910	3.8910	-0.7578	5.99	0.02	-0.750			
0.0086	553.57	3.8880	3.8880	-0.7618	5.99	0.02	-0.750			
0.0109	700.01	3.8850	3.8850	-0.7651	5.99	0.02	-0.750			
0.0132	847.10	3.8820	3.8820	-0.7703	5.99	0.02	-0.750			
0.0156	995.34	3.8790	3.8790	-0.7740	5.99	0.02	-0.750			
0.0179	1144.17	3.8760	3.8760	-0.7759	6.00	0.03	-0.750			
0.0202	1293.74	3.8730	3.8730	-0.7790	6.00	0.03	-0.750			
0.0226	1443.92	3.8700	3.8701	-0.7823	6.00	0.03	-0.750			
0.0249	1593.89	3.8670	3.8669	-0.7856	6.00	0.03	-0.750			
0.0273	1745.37	3.8640	3.8640	-0.7859	6.01	0.04	-0.750			
0.0296	1896.31	3.8610	3.8610	-0.7876	6.01	0.04	-0.750			
0.0320	2048.15	3.8580	3.8580	-0.7889	6.02	0.05	-0.750			
0.0344	2199.67	3.8550	3.8550	-0.7906	6.02	0.05	-0.750			
0.0367	2351.26	3.8520	3.8520	-0.7918	6.03	0.06	-0.750			
0.0391	2503.00	3.8490	3.8490	-0.7948	6.03	0.06	-0.750			
0.0415	2655.56	3.8460	3.8460	-0.7960	6.04	0.07	-0.750			
0.0439	2809.45	3.8430	3.8430	-0.7979	6.04	0.07	-0.750			
0.0463	2962.66	3.8400	3.8400	-0.7994	6.05	0.08	-0.750			
0.0487	3116.72	3.8370	3.8370	-0.7998	6.05	0.08	-0.750			
0.0511	3269.48	3.8340	3.8340	-0.8015	6.06	0.09	-0.750			
0.0535	3423.95	3.8310	3.8310	-0.8021	6.06	0.09	-0.750			
0.0559	3577.86	3.8280	3.8280	-0.8017	6.06	0.09	-0.750			
0.0583	3732.39	3.8250	3.8250	-0.8046	6.07	0.10	-0.750			
0.0607	3886.92	3.8220	3.8220	-0.8045	6.07	0.10	-0.750			
0.0631	4040.25	3.8190	3.8190	-0.8065	6.08	0.11	-0.750			
0.0656	4195.87	3.8160	3.8159	-0.8087	6.09	0.12	-0.750			
0.0680	4351.30	3.8130	3.8130	-0.8078	6.10	0.13	-0.750			
0.0704	4507.47	3.8100	3.8100	-0.8101	6.11	0.14	-0.750			
0.0729	4663.76	3.8070	3.8070	-0.8105	6.11	0.14	-0.750			
0.0753	4818.48	3.8040	3.8040	-0.8123	6.12	0.15	-0.750			
0.0777	4974.25	3.8010	3.8010	-0.8110	6.12	0.15	-0.750			
0.0801	5129.26	3.7980	3.7980	-0.8104	6.13	0.16	-0.750			
0.0826	5285.52	3.7950	3.7950	-0.8129	6.14	0.17	-0.750			
0.0850	5442.10	3.7920	3.7920	-0.8149	6.14	0.17	-0.750			
0.0875	5598.13	3.7890	3.7890	-0.8153	6.15	0.18	-0.750			
0.0899	5754.89	3.7860	3.7860	-0.8179	6.16	0.19	-0.750			
0.0924	5912.40	3.7830	3.7829	-0.8166	6.17	0.20	-0.750			
0.0949	6071.17	3.7800	3.7800	-0.8151	6.18	0.21	-0.750			
0.0973	6226.70	3.7770	3.7771	-0.8135	6.19	0.22	-0.750			
0.0997	6381.92	3.7740	3.7740	-0.8145	6.20	0.23	-0.750			
0.1021	6537.54	3.7710	3.7710	-0.8181	6.21	0.24	-0.750			
0.1046	6693.79	3.7680	3.7680	-0.8191	6.21	0.24	-0.750			
0.1071	6852.77	3.7650	3.7650	-0.8243	6.22	0.25	-0.750			
0.1096	7011.63	3.7620	3.7621	-0.8270	6.23	0.26	-0.750			
0.1121	7172.51	3.7590	3.7590	-0.8297	6.24	0.27	-0.750			
0.1145	7330.80	3.7560	3.7559	-0.8278	6.24	0.27	-0.750			
0.1170	7488.47	3.7530	3.7530	-0.8278	6.25	0.28	-0.750			
0.1195	7648.16	3.7500	3.7500	-0.8285	6.25	0.28	-0.750			
0.1220	7807.41	3.7470	3.7471	-0.8298	6.26	0.29	-0.750			
0.1245	7967.39	3.7440	3.7440	-0.8312	6.27	0.30	-0.750			
0.1270	8125.85	3.7410	3.7410	-0.8348	6.28	0.31	-0.750			
0.1295	8286.59	3.7380	3.7380	-0.8378	6.28	0.31	-0.750			
0.1320	8448.05	3.7350	3.7349	-0.8406	6.29	0.32	-0.750			
0.1345	8609.58	3.7320	3.7321	-0.8410	6.30	0.33	-0.750			
0.1371	8772.32	3.7290	3.7290	-0.8456	6.30	0.33	-0.750			
0.1396	8934.11	3.7260	3.7261	-0.8496	6.30	0.33	-0.750			
0.1421	9097.27	3.7230	3.7230	-0.8524	6.31	0.34	-0.750			
0.1447	9261.09	3.7200	3.7200	-0.8569	6.31	0.34	-0.750			
0.1473	9426.39	3.7170	3.7171	-0.8632	6.31	0.34	-0.750			
0.1499	9592.67	3.7140	3.7140	-0.8699	6.32	0.35	-0.750			
0.1525	9760.43	3.7110	3.7110	-0.8731	6.33	0.36	-0.750			
0.1551	9927.60	3.7080	3.7080	-0.8759	6.34	0.37	-0.750			
0.1578	10096.49	3.7050	3.7050	-0.8839	6.34	0.37	-0.750			
0.1604	10266.59	3.7020	3.7020	-0.8889	6.35	0.38	-0.750			
0.1631	10437.47	3.6990	3.6990	-0.8982	6.36	0.39	-0.750			
0.1658	10610.90	3.6960	3.6960	-0.9049	6.37	0.40	-0.750			
0.1685	10785.22	3.6930	3.6930	-0.9135	6.38	0.41	-0.750			
0.1713	10962.23	3.6900	3.6901	-0.9221	6.39	0.42	-0.750			
0.1741	11139.64	3.6870	3.6869	-0.9294	6.39	0.42	-0.750			
0.1768	11318.14	3.6840	3.6840	-0.9379	6.40	0.43	-0.750			
0.1797	11498.55	3.6810	3.6810	-0.9462	6.40	0.43	-0.750			
0.1825	11680.63	3.6780	3.6780	-0.9541	6.41	0.44	-0.750			
0.1854	11865.81	3.6750	3.6750	-0.9689	6.41	0.44	-0.750			
0.1883	12052.85	3.6720	3.6720	-0.9783	6.42	0.45	-0.750			
0.1913	12242.50	3.6690	3.6690	-0.9885	6.43	0.46	-0.750			
0.1943	12432.60	3.6660	3.6660	-0.9986	6.43	0.46	-0.750			
0.1973	12624.63	3.6630	3.6630	-1.0115	6.44	0.47	-0.750			
0.2003	12819.85	3.6600	3.6600	-1.0252	6.45	0.48	-0.750			
0.2034	13018.03	3.6570	3.6569	-1.0387	6.45	0.48	-0.750			
0.2065	13218.20	3.6540	3.6540	-1.0499	6.46	0.49	-0.750			
0.2097	13422.10	3.6510	3.6512	-1.0668	6.46	0.49	-0.750			
0.2129	13627.70	3.6480	3.6480	-1.0813	6.47	0.50	-0.750			
0.2162	13836.81	3.6450	3.6450	-1.0911	6.48	0.51	-0.750			
0.2195	14047.63	3.6420	3.6420	-1.1034	6.48	0.51	-0.750			
0.2228	14259.38	3.6390	3.6391	-1.1209	6.49	0.52	-0.750			
0.2262	14476.81	3.6360	3.6359	-1.1361	6.49	0.52	-0.750			
0.2296	14696.88	3.6330	3.6330	-1.1517	6.49	0.52	-0.750			
0.2331	14919.17	3.6300	3.6300	-1.1653	6.49	0.52	-0.750			
0.2366	15144.43	3.6270	3.6270	-1.1818	6.49	0.52	-0.750			
0.2402	15373.96	3.6240	3.6240	-1.1982	6.50	0.53	-0.750			
0.2438	15604.79	3.6210	3.6210	-1.2111	6.51	0.54	-0.750			
0.2475	15837.99	3.6180	3.6181	-1.2250	6.51	0.54	-0.750			
0.2512	16075.47	3.6150	3.6150	-1.2412	6.52	0.55	-0.750			
0.2549	16315.94	3.6120	3.6120	-1.2531	6.52	0.55	-0.750			
0.2587	16556.90	3.6090	3.6090	-1.2699	6.53	0.56	-0.750			
0.2625	16801.35	3.6060	3.6060	-1.2892	6.53	0.56	-0.750			
0.2664	17049.90	3.6030	3.6030	-1.3075	6.53	0.56	-0.750			
0.2703	17302.23	3.6000	3.6000	-1.3270	6.53	0.56	-0.750	0.464	1.124	
0.2744	17559.66	3.5970	3.5970	-1.3422	6.53	0.56	-0.750			
0.2785	17820.93	3.5940	3.5940	-1.3598	6.54	0.57	-0.750			
0.2826	18083.29	3.5910	3.5910	-1.3785	6.55	0.58	-0.750			
0.2867	18348.46	3.5880	3.5879	-1.3888	6.55	0.58	-0.750			
0.2909	18616.75	3.5850	3.5850	-1.4058	6.56	0.59	-0.750			
0.2951	18887.30	3.5820	3.5820	-1.4244	6.57	0.60	-0.750			
0.2994	19161.86	3.5790	3.5789	-1.4435	6.57	0.60	-0.750			
0.3038	19441.38	3.5760	3.5760	-1.4676	6.57	0.60	-0.750			
0.3082	19724.84	3.5730	3.5728	-1.4863	6.57	0.60	-0.750			
0.3127	20012.67	3.5700	3.5700	-1.5028	6.58	0.61	-0.750			
0.3173	20305.10	3.5670	3.5669	-1.5198	6.58	0.61	-0.750			
0.3218	20597.34	3.5640	3.5641	-1.5380	6.59	0.62	-0.750			
0.3265	20893.21	3.5610	3.5609	-1.5469	6.59	0.62	-0.750			
0.3311	21191.76	3.5580	3.5581	-1.5691	6.60	0.63	-0.750			
0.3359	21495.78	3.5550	3.5550	-1.5824	6.60	0.63	-0.750			
0.3406	21800.46	3.5520	3.5520	-1.6080	6.60	0.63	-0.750			
0.3455	22111.73	3.5490	3.5489	-1.6234	6.60	0.63	-0.750			
0.3504	22425.71	3.5460	3.5460	-1.6394	6.60	0.63	-0.750			
0.3553	22739.27	3.5430	3.5430	-1.6548	6.61	0.64	-0.750			
0.3603	23060.67	3.5400	3.5400	-1.6777	6.61	0.64	-0.750			
0.3654	23384.65	3.5370	3.5371	-1.6840	6.61	0.64	-0.750			
0.3705	23712.78	3.5340	3.5339	-1.6986	6.61	0.64	-0.750			
0.3756	24037.88	3.5310	3.5311	-1.6988	6.61	0.64	-0.750			
0.3807	24365.84	3.5280	3.5279	-1.7099	6.62	0.65	-0.750			
0.3858	24693.11	3.5250	3.5251	-1.7166	6.62	0.65	-0.750			
0.3910	25023.48	3.5220	3.5219	-1.7234	6.63	0.66	-0.750			
0.3962	25354.31	3.5190	3.5190	-1.7360	6.63	0.66	-0.750			
0.4014	25690.66	3.5160	3.5160	-1.7447	6.63	0.66	-0.750			
0.4066	26025.01	3.5130	3.5130	-1.7513	6.63	0.66	-0.750			
0.4120	26365.01	3.5100	3.5100	-1.7475	6.63	0.66	-0.750			
0.4172	26701.86	3.5070	3.5070	-1.7488	6.64	0.67	-0.750			
0.4224	27034.78	3.5040	3.5040	-1.7423	6.64	0.67	-0.750			
0.4277	27370.40	3.5010	3.5009	-1.7382	6.65	0.68	-0.750			
0.4329	27702.67	3.4980	3.4980	-1.7304	6.67	0.70	-0.750			
0.4381	28036.08	3.4950	3.4949	-1.7235	6.68	0.71	-0.750			
0.4432	28366.98	3.4920	3.4920	-1.7165	6.68	0.71	-0.750			
0.4484	28697.72	3.4890	3.4890	-1.7093	6.69	0.72	-0.750			
0.4535	29022.46	3.4860	3.4860	-1.6975	6.70	0.73	-0.750			
0.4585	29346.49	3.4830	3.4831	-1.6853	6.71	0.74	-0.750			
0.4636	29672.36	3.4800	3.4799	-1.6666	6.72	0.75	-0.750			
0.4686	29991.51	3.4770	3.4771	-1.6512	6.73	0.76	-0.750			
0.4736	30309.47	3.4740	3.4740	-1.6302	6.75	0.78	-0.750			
0.4784	30618.56	3.4710	3.4711	-1.6092	6.76	0.79	-0.750			
0.4832	30926.65	3.4680	3.4680	-1.5916	6.78	0.81	-0.750			
0.4880	31231.87	3.4650	3.4649	-1.5676	6.79	0.82	-0.750			
0.4927	31530.72	3.4620	3.4621	-1.5433	6.80	0.83	-0.750			
0.4973	31826.23	3.4590	3.4592	-1.5294	6.81	0.84	-0.750			
0.5018	32115.42	3.4560	3.4559	-1.5013	6.83	0.86	-0.750			
0.5063	32401.79	3.4530	3.4529	-1.4795	6.86	0.89	-0.750			
0.5107	32682.75	3.4500	3.4501	-1.4493	6.87	0.90	-0.750			
0.5150	32962.79	3.4470	3.4470	-1.4311	6.89	0.92	-0.750			
0.5193	33234.00	3.4440	3.4440	-1.4009	6.90	0.93	-0.750			
0.5234	33498.19	3.4410	3.4410	-1.3627	6.92	0.95	-0.750			
0.5275	33759.03	3.4380	3.4380	-1.3380	6.94	0.97	-0.750			
0.5314	34012.11	3.4350	3.4350	-1.3066	6.96	0.99	-0.750			
0.5353	34259.80	3.4320	3.4321	-1.2799	6.97	1.00	-0.750			
0.5391	34504.14	3.4290	3.4290	-1.2518	6.99	1.02	-0.750			
0.5428	34741.93	3.4260	3.4260	-1.2189	7.01	1.04	-0.750			
0.5464	34972.55	3.4230	3.4230	-1.1896	7.03	1.06	-0.750			
0.5500	35198.34	3.4200	3.4200	-1.1623	7.04	1.07	-0.750			
0.5534	35418.43	3.4170	3.4169	-1.1297	7.06	1.09	-0.750			
0.5567	35631.68	3.4140	3.4140	-1.0999	7.08	1.11	-0.750			
0.5600	35839.66	3.4110	3.4111	-1.0703	7.09	1.12	-0.750			
0.5632	36044.32	3.4080	3.4080	-1.0430	7.11	1.14	-0.750			
0.5663	36241.30	3.4050	3.4049	-1.0136	7.12	1.15	-0.750			
0.5692	36431.29	3.4020	3.4020	-0.9818	7.14	1.17	-0.750			
0.5721	36617.34	3.3990	3.3991	-0.9569	7.15	1.18	-0.750			
0.5750	36798.37	3.3960	3.3960	-0.9302	7.17	1.20	-0.750			
0.5777	36974.54	3.3930	3.3930	-0.9012	7.19	1.22	-0.750			
0.5804	37145.30	3.3900	3.3900	-0.8750	7.20	1.23	-0.750			
0.5830	37311.35	3.3870	3.3870	-0.8485	7.22	1.25	-0.750			
0.5855	37471.40	3.3840	3.3840	-0.8191	7.24	1.27	-0.750			
0.5879	37625.81	3.3810	3.3810	-0.7905	7.25	1.28	-0.750			
0.5902	37775.21	3.3780	3.3780	-0.7703	7.27	1.30	-0.750			
