Ah_balance (normalized)	Ah_balance (mAh)	Voltage - fit (V)	Voltage -  interpolate (V)	dQ/dV (1/V)	Temperature (°C)	Temperature - diff (°C)	Current (C)	R_DC 0ms (mOhm)	R_DC 50ms (mOhm)	R_DC 50 ms PEC (mOhm)
0.1803	11536.47	4.0810	4.0811	0.7379	7.26	1.29	0.750			
0.1825	11680.22	4.0780	4.0779	0.7512	7.26	1.29	0.750			
0.1848	11824.87	4.0750	4.0750	0.7574	7.25	1.28	0.750			
0.1871	11971.49	4.0720	4.0720	0.7613	7.25	1.28	0.750			
0.1893	12117.88	4.0690	4.0690	0.7668	7.25	1.28	0.750			
0.1917	12265.61	4.0660	4.0660	0.7659	7.24	1.27	0.750			
0.1940	12413.76	4.0630	4.0630	0.7684	7.24	1.27	0.750			
0.1963	12560.83	4.0600	4.0600	0.7718	7.23	1.26	0.750			
0.1986	12709.52	4.0570	4.0568	0.7757	7.23	1.26	0.750			
0.2009	12858.20	4.0540	4.0541	0.7785	7.23	1.26	0.750			
0.2033	13008.81	4.0510	4.0512	0.7817	7.22	1.25	0.750			
0.2056	13158.64	4.0480	4.0479	0.7867	7.22	1.25	0.750			
0.2080	13311.54	4.0450	4.0449	0.7909	7.22	1.25	0.750			
0.2103	13462.31	4.0420	4.0420	0.7904	7.21	1.24	0.750			
0.2127	13613.71	4.0390	4.0390	0.7907	7.21	1.24	0.750			
0.2151	13767.93	4.0360	4.0360	0.7939	7.20	1.23	0.750			
0.2175	13920.09	4.0330	4.0329	0.8001	7.19	1.22	0.750			
0.2199	14073.41	4.0300	4.0300	0.8039	7.18	1.21	0.750			
0.2223	14227.13	4.0270	4.0271	0.8101	7.18	1.21	0.750			
0.2248	14384.06	4.0240	4.0241	0.8162	7.17	1.20	0.750			
0.2272	14542.28	4.0210	4.0209	0.8171	7.16	1.19	0.750			
0.2297	14699.91	4.0180	4.0180	0.8190	7.16	1.19	0.750			
0.2321	14856.68	4.0150	4.0151	0.8185	7.16	1.19	0.750			
0.2346	15012.38	4.0120	4.0121	0.8225	7.15	1.18	0.750			
0.2370	15170.79	4.0090	4.0089	0.8296	7.15	1.18	0.750			
0.2396	15331.48	4.0060	4.0060	0.8284	7.14	1.17	0.750			
0.2421	15491.51	4.0030	4.0030	0.8364	7.14	1.17	0.750			
0.2446	15653.04	4.0000	4.0001	0.8391	7.13	1.16	0.750			
0.2471	15815.12	3.9970	3.9970	0.8423	7.12	1.15	0.750			
0.2496	15976.55	3.9940	3.9940	0.8437	7.12	1.15	0.750			
0.2522	16139.69	3.9910	3.9910	0.8420	7.11	1.14	0.750			
0.2547	16300.93	3.9880	3.9881	0.8495	7.11	1.14	0.750			
0.2573	16464.27	3.9850	3.9850	0.8579	7.10	1.13	0.750			
0.2598	16628.55	3.9820	3.9822	0.8593	7.09	1.12	0.750			
0.2624	16794.51	3.9790	3.9791	0.8648	7.09	1.12	0.750			
0.2650	16961.52	3.9760	3.9760	0.8645	7.08	1.11	0.750			
0.2676	17127.79	3.9730	3.9731	0.8735	7.07	1.10	0.750			
0.2702	17295.88	3.9700	3.9699	0.8795	7.06	1.09	0.750			
0.2729	17465.06	3.9670	3.9670	0.8829	7.05	1.08	0.750			
0.2756	17635.55	3.9640	3.9642	0.8931	7.05	1.08	0.750			
0.2783	17810.16	3.9610	3.9609	0.8944	7.04	1.07	0.750			
0.2810	17982.33	3.9580	3.9580	0.8951	7.04	1.07	0.750			
0.2837	18153.92	3.9550	3.9551	0.9042	7.03	1.06	0.750			
0.2863	18325.36	3.9520	3.9516	0.9039	7.03	1.06	0.750			
0.2891	18502.60	3.9490	3.9489	0.8995	7.02	1.05	0.750			
0.2918	18672.78	3.9460	3.9462	0.9074	7.01	1.04	0.750			
0.2945	18847.19	3.9430	3.9431	0.9144	7.00	1.03	0.750			
0.2973	19024.23	3.9400	3.9400	0.9250	6.99	1.02	0.750			
0.3000	19200.14	3.9370	3.9370	0.9287	6.98	1.01	0.750			
0.3028	19379.39	3.9340	3.9341	0.9264	6.97	1.00	0.750			
0.3056	19560.12	3.9310	3.9311	0.9358	6.96	0.99	0.750			
0.3084	19740.56	3.9280	3.9281	0.9432	6.96	0.99	0.750			
0.3112	19919.31	3.9250	3.9248	0.9462	6.95	0.98	0.750			
0.3141	20103.12	3.9220	3.9220	0.9453	6.94	0.97	0.750			
0.3169	20282.84	3.9190	3.9190	0.9614	6.94	0.97	0.750			
0.3198	20469.19	3.9160	3.9161	0.9742	6.93	0.96	0.750			
0.3228	20657.24	3.9130	3.9130	0.9853	6.92	0.95	0.750			
0.3258	20848.40	3.9100	3.9101	0.9928	6.92	0.95	0.750			
0.3287	21038.57	3.9070	3.9071	1.0070	6.91	0.94	0.750			
0.3318	21233.50	3.9040	3.9040	1.0265	6.90	0.93	0.750			
0.3349	21433.97	3.9010	3.9010	1.0319	6.89	0.92	0.750			
0.3380	21634.72	3.8980	3.8980	1.0325	6.88	0.91	0.750			
0.3412	21835.19	3.8950	3.8951	1.0469	6.87	0.90	0.750			
0.3443	22035.77	3.8920	3.8921	1.0538	6.86	0.89	0.750			
0.3475	22238.19	3.8890	3.8890	1.0694	6.85	0.88	0.750			
0.3507	22443.77	3.8860	3.8860	1.0650	6.84	0.87	0.750			
0.3539	22646.94	3.8830	3.8831	1.0831	6.83	0.86	0.750			
0.3572	22858.71	3.8800	3.8802	1.1011	6.82	0.85	0.750			
0.3605	23073.92	3.8770	3.8768	1.1174	6.81	0.84	0.750			
0.3638	23285.87	3.8740	3.8741	1.1199	6.80	0.83	0.750			
0.3672	23499.59	3.8710	3.8711	1.1349	6.79	0.82	0.750			
0.3706	23718.64	3.8680	3.8680	1.1557	6.78	0.81	0.750			
0.3742	23946.28	3.8650	3.8646	1.1699	6.77	0.80	0.750			
0.3776	24168.42	3.8620	3.8621	1.1876	6.76	0.79	0.750			
0.3812	24398.62	3.8590	3.8591	1.2153	6.75	0.78	0.750			
0.3850	24639.54	3.8560	3.8558	1.2297	6.74	0.77	0.750			
0.3887	24876.22	3.8530	3.8531	1.2331	6.73	0.76	0.750			
0.3923	25108.08	3.8500	3.8501	1.2828	6.72	0.75	0.750			
0.3963	25363.69	3.8470	3.8471	1.3000	6.70	0.73	0.750			
0.4003	25617.14	3.8440	3.8436	1.3373	6.69	0.72	0.750	0.379	0.870	
0.4043	25874.38	3.8410	3.8414	1.3524	6.68	0.71	0.750			
0.4085	26146.23	3.8380	3.8380	1.3563	6.67	0.70	0.750			
0.4127	26412.33	3.8350	3.8349	1.3446	6.65	0.68	0.750			
0.4167	26666.45	3.8320	3.8321	1.3723	6.64	0.67	0.750			
0.4207	26921.92	3.8290	3.8292	1.4018	6.62	0.65	0.750			
0.4249	27195.99	3.8260	3.8255	1.4531	6.61	0.64	0.750			
0.4293	27476.50	3.8230	3.8233	1.4744	6.59	0.62	0.750			
0.4339	27770.41	3.8200	3.8203	1.5050	6.57	0.60	0.750			
0.4388	28082.27	3.8170	3.8170	1.5189	6.55	0.58	0.750			
0.4431	28356.36	3.8140	3.8137	1.5019	6.54	0.57	0.750			
0.4475	28640.03	3.8110	3.8112	1.5349	6.52	0.55	0.750			
0.4521	28936.36	3.8080	3.8076	1.5695	6.51	0.54	0.750			
0.4570	29246.30	3.8050	3.8046	1.5567	6.49	0.52	0.750			
0.4617	29549.07	3.8020	3.8025	1.5792	6.47	0.50	0.750			
0.4667	29866.17	3.7990	3.7993	1.5917	6.45	0.48	0.750			
0.4712	30156.96	3.7960	3.7962	1.5973	6.44	0.47	0.750			
0.4762	30476.86	3.7930	3.7931	1.5867	6.42	0.45	0.750			
0.4810	30783.09	3.7900	3.7902	1.6047	6.41	0.44	0.750			
0.4856	31080.39	3.7870	3.7869	1.6284	6.39	0.42	0.750			
0.4907	31403.16	3.7840	3.7841	1.6945	6.37	0.40	0.750			
0.4957	31721.96	3.7810	3.7812	1.7879	6.35	0.38	0.750			
0.5013	32080.78	3.7780	3.7781	1.8742	6.32	0.35	0.750			
0.5069	32439.50	3.7750	3.7750	1.9020	6.30	0.33	0.750			
0.5126	32807.22	3.7720	3.7713	1.9106	6.29	0.32	0.750			
0.5182	33162.48	3.7690	3.7690	1.8673	6.27	0.30	0.750			
0.5240	33532.86	3.7660	3.7657	1.8395	6.25	0.28	0.750			
0.5295	33888.62	3.7630	3.7628	1.8745	6.23	0.26	0.750			
0.5350	34242.45	3.7600	3.7600	1.9655	6.21	0.24	0.750			
0.5410	34623.51	3.7570	3.7574	1.9538	6.18	0.21	0.750			
0.5468	34992.71	3.7540	3.7545	1.9203	6.16	0.19	0.750			
0.5525	35360.22	3.7510	3.7509	1.9437	6.14	0.17	0.750			
0.5582	35724.65	3.7480	3.7483	2.0481	6.13	0.16	0.750			
0.5647	36142.29	3.7450	3.7449	2.0642	6.11	0.14	0.750			
0.5710	36544.48	3.7420	3.7425	2.1479	6.08	0.11	0.750			
0.5775	36957.82	3.7390	3.7386	2.1998	6.06	0.09	0.750			
0.5841	37381.96	3.7360	3.7365	2.1905	6.05	0.08	0.750			
0.5911	37828.52	3.7330	3.7334	2.2656	6.03	0.06	0.750			
0.5977	38253.35	3.7300	3.7300	2.2251	6.01	0.04	0.750			
0.6048	38706.43	3.7270	3.7268	2.2639	5.99	0.02	0.750			
0.6116	39143.20	3.7240	3.7237	2.2445	5.97	0.00	0.750			
0.6184	39578.75	3.7210	3.7206	2.2814	5.97	0.00	0.750			
0.6257	40045.88	3.7180	3.7179	2.2076	5.97	-0.00	0.750			
0.6320	40449.21	3.7150	3.7150	2.0594	5.96	-0.01	0.750			
0.6377	40811.91	3.7120	3.7123	1.8517	5.95	-0.02	0.750			
0.6429	41145.86	3.7090	3.7094	1.6872	5.94	-0.03	0.750			
0.6479	41468.16	3.7060	3.7062	1.5222	5.94	-0.03	0.750			
0.6525	41758.67	3.7030	3.7030	1.4348	5.94	-0.03	0.750			
0.6566	42019.23	3.7000	3.7001	1.2864	5.94	-0.03	0.750			
0.6598	42230.37	3.6970	3.6971	1.1358	5.94	-0.03	0.750			
0.6631	42437.28	3.6940	3.6940	1.0503	5.94	-0.03	0.750			
0.6659	42620.56	3.6910	3.6912	0.9598	5.94	-0.03	0.750			
0.6688	42801.64	3.6880	3.6881	0.9376	5.95	-0.02	0.750			
0.6715	42977.77	3.6850	3.6850	0.9070	5.95	-0.02	0.750			
0.6742	43146.35	3.6820	3.6814	0.8723	5.95	-0.02	0.750			
0.6768	43314.73	3.6790	3.6789	0.8374	5.95	-0.02	0.750			
0.6793	43474.57	3.6760	3.6762	0.7997	5.95	-0.02	0.750			
0.6817	43627.38	3.6730	3.6733	0.7748	5.95	-0.02	0.750			
0.6839	43767.00	3.6700	3.6700	0.7340	5.95	-0.02	0.750			
0.6860	43904.78	3.6670	3.6670	0.7075	5.95	-0.02	0.750			
0.6881	44036.91	3.6640	3.6645	0.6745	5.95	-0.02	0.750			
0.6901	44163.63	3.6610	3.6612	0.6493	5.96	-0.01	0.750			
0.6921	44291.52	3.6580	3.6581	0.6244	5.96	-0.01	0.750			
0.6939	44410.80	3.6550	3.6549	0.5835	5.96	-0.01	0.750			
0.6955	44513.87	3.6520	3.6520	0.5403	5.96	-0.01	0.750			
0.6971	44615.48	3.6490	3.6490	0.5115	5.97	-0.00	0.750			
0.6986	44710.60	3.6460	3.6457	0.4788	5.97	-0.00	0.750			
0.7000	44799.42	3.6430	3.6429	0.4458	5.97	0.00	0.750			
0.7013	44880.78	3.6400	3.6401	0.4142	5.97	0.00	0.750			
0.7025	44958.15	3.6370	3.6371	0.3854	5.98	0.01	0.750			
0.7036	45030.04	3.6340	3.6338	0.3561	5.98	0.01	0.750			
0.7046	45093.96	3.6310	3.6310	0.3213	5.98	0.01	0.750			
0.7055	45153.76	3.6280	3.6281	0.2905	5.98	0.01	0.750			
0.7064	45208.59	3.6250	3.6251	0.2584	5.98	0.01	0.750			
0.7071	45254.91	3.6220	3.6218	0.2215	5.98	0.01	0.750			
0.7077	45293.37	3.6190	3.6190	0.1814	5.98	0.01	0.750			
0.7082	45325.46	3.6160	3.6160	0.1445	5.98	0.01	0.750			
0.7086	45349.76	3.6130	3.6132	0.1047	5.99	0.02	0.750			
0.7088	45365.94	3.6100	3.6099	0.0638	5.99	0.02	0.750			
0.7090	45374.62	3.6070	3.6070	0.0220	5.99	0.02	0.750			
0.7090	45374.85	3.6040	3.6046	-0.0197	5.99	0.02	0.750			
