Ah_balance (normalized)	Ah_balance (mAh)	Voltage - fit (V)	Voltage -  interpolate (V)	dQ/dV (1/V)	Temperature (°C)	Temperature - diff (°C)	Current (C)	R_DC 0ms (mOhm)	R_DC 50ms (mOhm)	R_DC 50 ms PEC (mOhm)
0.1787	11439.34	4.0820	4.0820	0.7817	7.36	1.37	0.750			
0.1810	11585.60	4.0790	4.0790	0.7540	7.35	1.36	0.750			
0.1833	11728.25	4.0760	4.0761	0.7543	7.34	1.35	0.750			
0.1855	11874.66	4.0730	4.0731	0.7615	7.34	1.35	0.750			
0.1878	12020.88	4.0700	4.0700	0.7650	7.33	1.34	0.750			
0.1901	12169.36	4.0670	4.0671	0.7729	7.32	1.33	0.750			
0.1925	12319.18	4.0640	4.0641	0.7747	7.31	1.32	0.750			
0.1948	12467.95	4.0610	4.0610	0.7755	7.31	1.32	0.750			
0.1971	12615.84	4.0580	4.0580	0.7778	7.30	1.31	0.750			
0.1995	12765.35	4.0550	4.0547	0.7810	7.29	1.30	0.750			
0.2018	12916.64	4.0520	4.0520	0.7862	7.29	1.30	0.750			
0.2042	13069.54	4.0490	4.0490	0.7802	7.28	1.29	0.750			
0.2066	13219.73	4.0460	4.0461	0.7869	7.28	1.29	0.750			
0.2089	13370.26	4.0430	4.0431	0.7939	7.28	1.29	0.750			
0.2113	13520.25	4.0400	4.0399	0.7958	7.27	1.28	0.750			
0.2136	13672.99	4.0370	4.0371	0.8020	7.27	1.28	0.750			
0.2161	13831.35	4.0340	4.0340	0.7979	7.26	1.27	0.750			
0.2185	13983.64	4.0310	4.0309	0.8037	7.25	1.26	0.750			
0.2209	14140.74	4.0280	4.0281	0.8114	7.24	1.25	0.750			
0.2233	14292.64	4.0250	4.0251	0.8136	7.23	1.24	0.750			
0.2258	14448.38	4.0220	4.0220	0.8155	7.23	1.24	0.750			
0.2283	14608.87	4.0190	4.0190	0.8130	7.22	1.23	0.750			
0.2307	14764.49	4.0160	4.0162	0.8216	7.22	1.23	0.750			
0.2332	14922.89	4.0130	4.0131	0.8290	7.22	1.23	0.750			
0.2356	15080.21	4.0100	4.0100	0.8291	7.21	1.22	0.750			
0.2381	15240.04	4.0070	4.0069	0.8308	7.21	1.22	0.750			
0.2407	15403.68	4.0040	4.0040	0.8229	7.20	1.21	0.750			
0.2432	15563.04	4.0010	4.0010	0.8361	7.20	1.21	0.750			
0.2456	15721.32	3.9980	3.9982	0.8474	7.20	1.21	0.750			
0.2482	15882.59	3.9950	3.9951	0.8457	7.19	1.20	0.750			
0.2507	16043.38	3.9920	3.9921	0.8566	7.19	1.20	0.750			
0.2533	16213.10	3.9890	3.9892	0.8572	7.18	1.19	0.750			
0.2560	16381.41	3.9860	3.9860	0.8672	7.17	1.18	0.750			
0.2586	16547.84	3.9830	3.9830	0.8694	7.16	1.17	0.750			
0.2611	16712.20	3.9800	3.9804	0.8601	7.15	1.16	0.750			
0.2637	16876.60	3.9770	3.9770	0.8679	7.15	1.16	0.750			
0.2664	17047.09	3.9740	3.9741	0.8691	7.14	1.15	0.750			
0.2689	17212.66	3.9710	3.9710	0.8704	7.13	1.14	0.750			
0.2716	17381.60	3.9680	3.9680	0.8861	7.12	1.13	0.750			
0.2742	17547.76	3.9650	3.9649	0.8816	7.11	1.12	0.750			
0.2768	17716.79	3.9620	3.9620	0.8960	7.11	1.12	0.750			
0.2795	17890.60	3.9590	3.9590	0.8950	7.10	1.11	0.750			
0.2822	18062.72	3.9560	3.9561	0.9028	7.10	1.11	0.750			
0.2850	18239.58	3.9530	3.9531	0.9159	7.09	1.10	0.750			
0.2877	18414.43	3.9500	3.9496	0.9166	7.09	1.10	0.750			
0.2905	18592.10	3.9470	3.9470	0.9117	7.08	1.09	0.750			
0.2932	18766.34	3.9440	3.9441	0.9174	7.07	1.08	0.750			
0.2960	18943.34	3.9410	3.9412	0.9265	7.06	1.07	0.750			
0.2988	19121.33	3.9380	3.9378	0.9218	7.05	1.06	0.750			
0.3016	19300.81	3.9350	3.9350	0.9247	7.05	1.06	0.750			
0.3043	19476.26	3.9320	3.9322	0.9318	7.04	1.05	0.750			
0.3071	19655.01	3.9290	3.9291	0.9445	7.04	1.05	0.750			
0.3100	19839.23	3.9260	3.9259	0.9577	7.03	1.04	0.750			
0.3128	20021.12	3.9230	3.9229	0.9643	7.03	1.04	0.750			
0.3158	20208.49	3.9200	3.9201	0.9694	7.02	1.03	0.750			
0.3187	20397.09	3.9170	3.9171	0.9891	7.01	1.02	0.750			
0.3217	20587.49	3.9140	3.9140	0.9990	7.00	1.01	0.750			
0.3247	20778.94	3.9110	3.9106	1.0045	6.99	1.00	0.750			
0.3277	20973.43	3.9080	3.9079	1.0045	6.98	0.99	0.750			
0.3307	21166.92	3.9050	3.9051	1.0169	6.97	0.98	0.750			
0.3338	21362.61	3.9020	3.9022	1.0298	6.96	0.97	0.750			
0.3369	21559.04	3.8990	3.8987	1.0390	6.95	0.96	0.750			
0.3400	21760.43	3.8960	3.8961	1.0411	6.94	0.95	0.750			
0.3432	21962.05	3.8930	3.8931	1.0601	6.93	0.94	0.750			
0.3464	22166.95	3.8900	3.8901	1.0817	6.92	0.93	0.750			
0.3497	22381.27	3.8870	3.8866	1.0897	6.91	0.92	0.750			
0.3529	22586.55	3.8840	3.8839	1.0961	6.90	0.91	0.750			
0.3562	22798.87	3.8810	3.8811	1.1100	6.89	0.90	0.750			
0.3596	23012.90	3.8780	3.8782	1.1258	6.88	0.89	0.750			
0.3630	23233.10	3.8750	3.8748	1.1275	6.87	0.88	0.750			
0.3664	23447.57	3.8720	3.8720	1.1405	6.86	0.87	0.750			
0.3698	23665.22	3.8690	3.8690	1.1496	6.85	0.86	0.750			
0.3733	23891.16	3.8660	3.8661	1.1647	6.83	0.84	0.750			
0.3768	24114.66	3.8630	3.8630	1.1759	6.82	0.83	0.750			
0.3803	24342.07	3.8600	3.8601	1.1986	6.81	0.82	0.750			
0.3840	24573.86	3.8570	3.8571	1.2186	6.80	0.81	0.750			
0.3876	24809.48	3.8540	3.8537	1.2349	6.79	0.80	0.750			
0.3914	25052.39	3.8510	3.8510	1.2381	6.78	0.79	0.750			
0.3951	25286.05	3.8480	3.8481	1.2834	6.76	0.77	0.750			
0.3990	25533.68	3.8450	3.8450	1.3183	6.75	0.76	0.750			
0.4029	25788.57	3.8420	3.8419	1.3452	6.74	0.75	0.750	0.363	0.865	
0.4071	26051.97	3.8390	3.8393	1.3816	6.73	0.74	0.750			
0.4113	26323.10	3.8360	3.8360	1.4155	6.71	0.72	0.750			
0.4157	26602.42	3.8330	3.8328	1.4452	6.70	0.71	0.750			
0.4201	26884.98	3.8300	3.8301	1.4584	6.68	0.69	0.750			
0.4244	27159.36	3.8270	3.8269	1.4582	6.67	0.68	0.750			
0.4287	27439.54	3.8240	3.8241	1.4709	6.66	0.67	0.750			
0.4332	27723.52	3.8210	3.8210	1.4796	6.64	0.65	0.750			
0.4377	28012.01	3.8180	3.8178	1.5105	6.63	0.64	0.750			
0.4422	28302.34	3.8150	3.8148	1.5417	6.61	0.62	0.750			
0.4469	28599.98	3.8120	3.8123	1.6094	6.58	0.59	0.750			
0.4518	28914.80	3.8090	3.8090	1.6388	6.56	0.57	0.750			
0.4568	29234.38	3.8060	3.8057	1.6682	6.55	0.56	0.750			
0.4618	29553.85	3.8030	3.8027	1.7020	6.53	0.54	0.750			
0.4670	29885.11	3.8000	3.8000	1.7298	6.52	0.53	0.750			
0.4723	30225.00	3.7970	3.7970	1.7149	6.51	0.52	0.750			
0.4774	30552.72	3.7940	3.7946	1.7409	6.50	0.51	0.750			
0.4824	30874.87	3.7910	3.7906	1.7515	6.47	0.48	0.750			
0.4876	31207.43	3.7880	3.7877	1.7850	6.45	0.46	0.750			
0.4931	31556.44	3.7850	3.7848	1.8285	6.43	0.44	0.750			
0.4987	31915.10	3.7820	3.7822	1.8367	6.41	0.42	0.750			
0.5043	32276.59	3.7790	3.7792	1.8519	6.40	0.41	0.750			
0.5098	32628.74	3.7760	3.7762	1.8575	6.38	0.39	0.750			
0.5153	32978.83	3.7730	3.7728	1.8782	6.36	0.37	0.750			
0.5210	33343.40	3.7700	3.7698	1.8893	6.33	0.34	0.750			
0.5267	33710.76	3.7670	3.7670	1.8919	6.31	0.32	0.750			
0.5324	34076.37	3.7640	3.7642	1.9390	6.30	0.31	0.750			
0.5382	34442.34	3.7610	3.7612	1.9039	6.29	0.30	0.750			
0.5440	34813.39	3.7580	3.7581	1.9199	6.26	0.27	0.750			
0.5497	35183.63	3.7550	3.7547	1.9454	6.23	0.24	0.750			
0.5557	35561.69	3.7520	3.7517	1.9955	6.22	0.23	0.750			
0.5616	35939.46	3.7490	3.7493	2.0321	6.21	0.22	0.750			
0.5678	36338.70	3.7460	3.7463	2.1035	6.19	0.20	0.750			
0.5743	36757.04	3.7430	3.7430	2.1736	6.16	0.17	0.750			
0.5810	37185.53	3.7400	3.7401	2.2114	6.14	0.15	0.750			
0.5879	37622.45	3.7370	3.7370	2.3377	6.13	0.14	0.750			
0.5948	38067.05	3.7340	3.7340	2.3647	6.11	0.12	0.750			
0.6019	38523.31	3.7310	3.7311	2.3174	6.08	0.09	0.750			
0.6088	38962.61	3.7280	3.7285	2.4025	6.07	0.08	0.750			
0.6160	39425.85	3.7250	3.7250	2.3650	6.05	0.06	0.750			
0.6234	39897.43	3.7220	3.7222	2.2359	6.03	0.04	0.750			
0.6301	40326.30	3.7190	3.7191	2.1297	6.02	0.03	0.750			
0.6362	40715.42	3.7160	3.7159	1.9740	6.01	0.02	0.750			
0.6420	41086.03	3.7130	3.7133	1.8493	6.00	0.01	0.750			
0.6474	41432.96	3.7100	3.7103	1.7115	5.99	0.00	0.750			
0.6520	41729.84	3.7070	3.7071	1.5218	5.99	-0.00	0.750			
0.6563	42003.97	3.7040	3.7041	1.3740	5.98	-0.01	0.750			
0.6601	42245.23	3.7010	3.7012	1.2357	5.97	-0.02	0.750			
0.6636	42467.68	3.6980	3.6980	1.1357	5.97	-0.02	0.750			
0.6667	42666.55	3.6950	3.6951	1.0457	5.97	-0.02	0.750			
0.6696	42854.77	3.6920	3.6920	0.9885	5.96	-0.03	0.750			
0.6725	43037.26	3.6890	3.6890	0.9511	5.96	-0.03	0.750			
0.6752	43213.32	3.6860	3.6859	0.9085	5.96	-0.03	0.750			
0.6779	43386.37	3.6830	3.6830	0.8826	5.96	-0.03	0.750			
0.6806	43555.45	3.6800	3.6799	0.8589	5.96	-0.03	0.750			
0.6831	43717.76	3.6770	3.6771	0.8322	5.95	-0.04	0.750			
0.6855	43873.79	3.6740	3.6741	0.7945	5.95	-0.04	0.750			
0.6879	44024.22	3.6710	3.6710	0.7679	5.95	-0.04	0.750			
0.6902	44170.05	3.6680	3.6681	0.7401	5.95	-0.04	0.750			
0.6924	44310.41	3.6650	3.6650	0.7072	5.95	-0.04	0.750			
0.6944	44441.91	3.6620	3.6620	0.6766	5.96	-0.03	0.750			
0.6964	44568.43	3.6590	3.6591	0.6469	5.96	-0.03	0.750			
0.6983	44689.26	3.6560	3.6560	0.6183	5.96	-0.03	0.750			
0.7001	44806.84	3.6530	3.6528	0.5868	5.96	-0.03	0.750			
0.7018	44915.51	3.6500	3.6500	0.5527	5.97	-0.02	0.750			
0.7034	45018.93	3.6470	3.6471	0.5247	5.97	-0.02	0.750			
0.7049	45116.75	3.6440	3.6439	0.4943	5.97	-0.02	0.750			
0.7064	45207.66	3.6410	3.6409	0.4589	5.98	-0.01	0.750			
0.7077	45293.39	3.6380	3.6380	0.4293	5.98	-0.01	0.750			
0.7090	45373.65	3.6350	3.6350	0.3965	5.98	-0.01	0.750			
0.7101	45447.52	3.6320	3.6318	0.3646	5.99	-0.00	0.750			
0.7112	45513.78	3.6290	3.6291	0.3286	5.99	-0.00	0.750			
0.7121	45573.09	3.6260	3.6259	0.2929	5.99	-0.00	0.750			
0.7129	45627.80	3.6230	3.6228	0.2527	5.99	0.00	0.750			
0.7136	45673.25	3.6200	3.6200	0.2135	5.99	0.00	0.750			
0.7142	45710.98	3.6170	3.6171	0.1724	5.99	0.00	0.750			
0.7147	45741.53	3.6140	3.6142	0.1291	6.00	0.01	0.750			
0.7150	45762.78	3.6110	3.6110	0.0814	6.00	0.01	0.750			
0.7152	45773.98	3.6080	3.6068	0.0315	6.00	0.01	0.750			
0.7152	45775.26	3.6050	3.6053	-0.0183	6.00	0.01	0.750			
