Ah_balance (normalized)	Ah_balance (mAh)	Voltage - fit (V)	Voltage -  interpolate (V)	dQ/dV (1/V)	Temperature (°C)	Temperature - diff (°C)	Current (C)	R_DC 0ms (mOhm)	R_DC 50ms (mOhm)	R_DC 50 ms PEC (mOhm)
0.1764	11286.94	4.0800	4.0800	0.7788	7.98	1.99	0.750			
0.1787	11434.91	4.0770	4.0770	0.7713	7.97	1.98	0.750			
0.1810	11581.93	4.0740	4.0741	0.7726	7.96	1.97	0.750			
0.1833	11730.60	4.0710	4.0709	0.7749	7.96	1.97	0.750			
0.1856	11879.16	4.0680	4.0680	0.7780	7.95	1.96	0.750			
0.1879	12028.05	4.0650	4.0651	0.7805	7.94	1.95	0.750			
0.1903	12178.22	4.0620	4.0620	0.7850	7.93	1.94	0.750			
0.1927	12331.24	4.0590	4.0589	0.7868	7.93	1.94	0.750			
0.1950	12481.57	4.0560	4.0561	0.7864	7.92	1.93	0.750			
0.1974	12632.16	4.0530	4.0527	0.7883	7.91	1.92	0.750			
0.1998	12784.11	4.0500	4.0500	0.7935	7.90	1.91	0.750			
0.2022	12937.66	4.0470	4.0469	0.7896	7.90	1.91	0.750			
0.2045	13087.88	4.0440	4.0440	0.7969	7.89	1.90	0.750			
0.2069	13241.61	4.0410	4.0411	0.8004	7.88	1.89	0.750			
0.2093	13396.21	4.0380	4.0379	0.8050	7.87	1.88	0.750			
0.2117	13550.36	4.0350	4.0351	0.8088	7.86	1.87	0.750			
0.2142	13706.47	4.0320	4.0320	0.8088	7.86	1.87	0.750			
0.2166	13862.11	4.0290	4.0290	0.8152	7.85	1.86	0.750			
0.2191	14020.28	4.0260	4.0261	0.8237	7.84	1.85	0.750			
0.2215	14176.51	4.0230	4.0229	0.8243	7.83	1.84	0.750			
0.2240	14336.39	4.0200	4.0201	0.8307	7.83	1.84	0.750			
0.2265	14497.29	4.0170	4.0171	0.8299	7.82	1.83	0.750			
0.2290	14655.72	4.0140	4.0140	0.8407	7.81	1.82	0.750			
0.2316	14819.60	4.0110	4.0109	0.8454	7.81	1.82	0.750			
0.2341	14982.13	4.0080	4.0079	0.8456	7.80	1.81	0.750			
0.2366	15144.85	4.0050	4.0052	0.8441	7.79	1.80	0.750			
0.2392	15308.88	4.0020	4.0021	0.8426	7.78	1.79	0.750			
0.2417	15469.60	3.9990	3.9990	0.8458	7.77	1.78	0.750			
0.2442	15630.62	3.9960	3.9961	0.8478	7.76	1.77	0.750			
0.2467	15791.63	3.9930	3.9928	0.8466	7.75	1.76	0.750			
0.2493	15955.08	3.9900	3.9900	0.8533	7.74	1.75	0.750			
0.2519	16119.51	3.9870	3.9871	0.8608	7.73	1.74	0.750			
0.2545	16285.68	3.9840	3.9840	0.8659	7.72	1.73	0.750			
0.2571	16453.60	3.9810	3.9810	0.8717	7.71	1.72	0.750			
0.2597	16620.42	3.9780	3.9779	0.8725	7.70	1.71	0.750			
0.2623	16789.36	3.9750	3.9751	0.8764	7.69	1.70	0.750			
0.2650	16958.59	3.9720	3.9720	0.8812	7.69	1.70	0.750			
0.2676	17126.97	3.9690	3.9690	0.8860	7.68	1.69	0.750			
0.2703	17297.14	3.9660	3.9661	0.8906	7.68	1.69	0.750			
0.2729	17468.53	3.9630	3.9629	0.8956	7.67	1.68	0.750			
0.2756	17641.21	3.9600	3.9600	0.8984	7.65	1.66	0.750			
0.2783	17814.39	3.9570	3.9570	0.9062	7.64	1.65	0.750			
0.2811	17988.31	3.9540	3.9540	0.9124	7.63	1.64	0.750			
0.2838	18164.22	3.9510	3.9509	0.9173	7.62	1.63	0.750			
0.2866	18341.65	3.9480	3.9480	0.9210	7.60	1.61	0.750			
0.2894	18519.18	3.9450	3.9450	0.9277	7.60	1.61	0.750			
0.2922	18698.63	3.9420	3.9420	0.9301	7.59	1.60	0.750			
0.2950	18877.92	3.9390	3.9390	0.9354	7.58	1.59	0.750			
0.2978	19056.80	3.9360	3.9359	0.9372	7.57	1.58	0.750			
0.3006	19237.17	3.9330	3.9330	0.9384	7.56	1.57	0.750			
0.3034	19415.82	3.9300	3.9300	0.9498	7.55	1.56	0.750			
0.3062	19599.03	3.9270	3.9270	0.9596	7.54	1.55	0.750			
0.3091	19783.78	3.9240	3.9239	0.9692	7.53	1.54	0.750			
0.3121	19971.35	3.9210	3.9210	0.9849	7.52	1.53	0.750			
0.3150	20160.96	3.9180	3.9181	0.9866	7.51	1.52	0.750			
0.3180	20352.03	3.9150	3.9150	0.9983	7.49	1.50	0.750			
0.3210	20544.94	3.9120	3.9121	1.0012	7.48	1.49	0.750			
0.3240	20737.53	3.9090	3.9091	1.0069	7.47	1.48	0.750			
0.3270	20931.00	3.9060	3.9060	1.0208	7.46	1.47	0.750			
0.3301	21128.06	3.9030	3.9030	1.0297	7.45	1.46	0.750			
0.3333	21328.79	3.9000	3.8999	1.0449	7.44	1.45	0.750			
0.3364	21529.10	3.8970	3.8971	1.0342	7.42	1.43	0.750			
0.3395	21726.48	3.8940	3.8941	1.0481	7.41	1.42	0.750			
0.3426	21927.89	3.8910	3.8910	1.0632	7.40	1.41	0.750			
0.3458	22130.14	3.8880	3.8881	1.0770	7.39	1.40	0.750			
0.3491	22339.78	3.8850	3.8850	1.0827	7.37	1.38	0.750			
0.3524	22553.28	3.8820	3.8820	1.0931	7.36	1.37	0.750			
0.3557	22765.24	3.8790	3.8790	1.0926	7.35	1.36	0.750			
0.3590	22976.47	3.8760	3.8761	1.0999	7.33	1.34	0.750			
0.3622	23181.38	3.8730	3.8730	1.0899	7.32	1.33	0.750			
0.3654	23386.71	3.8700	3.8699	1.1116	7.30	1.31	0.750			
0.3687	23595.84	3.8670	3.8671	1.1364	7.29	1.30	0.750			
0.3722	23823.93	3.8640	3.8637	1.1610	7.27	1.28	0.750			
0.3758	24051.14	3.8610	3.8610	1.1947	7.25	1.26	0.750			
0.3794	24282.99	3.8580	3.8582	1.2179	7.24	1.25	0.750			
0.3832	24523.12	3.8550	3.8550	1.2300	7.22	1.23	0.750			
0.3868	24757.50	3.8520	3.8521	1.2485	7.20	1.21	0.750			
0.3906	24997.61	3.8490	3.8490	1.2762	7.19	1.20	0.750			
0.3944	25243.58	3.8460	3.8461	1.3009	7.18	1.19	0.750			
0.3984	25498.68	3.8430	3.8430	1.3437	7.17	1.18	0.750			
0.4024	25756.11	3.8400	3.8401	1.3781	7.15	1.16	0.750			
0.4067	26027.56	3.8370	3.8371	1.4144	7.13	1.14	0.750	0.389	0.876	
0.4111	26312.59	3.8340	3.8340	1.4393	7.10	1.11	0.750			
0.4154	26584.33	3.8310	3.8310	1.4431	7.08	1.09	0.750			
0.4198	26866.07	3.8280	3.8280	1.4675	7.06	1.07	0.750			
0.4242	27148.47	3.8250	3.8250	1.4608	7.04	1.05	0.750			
0.4285	27421.97	3.8220	3.8219	1.4918	7.02	1.03	0.750			
0.4330	27709.12	3.8190	3.8193	1.5418	7.00	1.01	0.750			
0.4377	28014.28	3.8160	3.8160	1.5741	6.98	0.99	0.750			
0.4426	28324.02	3.8130	3.8132	1.5998	6.96	0.97	0.750			
0.4475	28637.89	3.8100	3.8097	1.5987	6.94	0.95	0.750			
0.4524	28952.68	3.8070	3.8069	1.6374	6.92	0.93	0.750			
0.4570	29248.87	3.8040	3.8040	1.6263	6.90	0.91	0.750			
0.4619	29562.90	3.8010	3.8005	1.6897	6.88	0.89	0.750			
0.4670	29889.46	3.7980	3.7976	1.7467	6.86	0.87	0.750			
0.4725	30237.38	3.7950	3.7947	1.7718	6.83	0.84	0.750			
0.4780	30589.33	3.7920	3.7918	1.8085	6.80	0.81	0.750			
0.4833	30930.65	3.7890	3.7892	1.8101	6.78	0.79	0.750			
0.4889	31288.52	3.7860	3.7856	1.8317	6.74	0.75	0.750			
0.4943	31634.54	3.7830	3.7828	1.8419	6.71	0.72	0.750			
0.4997	31980.28	3.7800	3.7803	1.8898	6.68	0.69	0.750			
0.5056	32358.09	3.7770	3.7768	1.9221	6.65	0.66	0.750			
0.5115	32736.43	3.7740	3.7740	1.9260	6.62	0.63	0.750			
0.5172	33098.39	3.7710	3.7713	1.9449	6.60	0.61	0.750			
0.5231	33476.62	3.7680	3.7683	1.9739	6.58	0.59	0.750			
0.5289	33849.20	3.7650	3.7650	1.9700	6.55	0.56	0.750			
0.5350	34241.49	3.7620	3.7618	1.9875	6.52	0.53	0.750			
0.5411	34629.10	3.7590	3.7587	2.0090	6.50	0.51	0.750			
0.5470	35006.24	3.7560	3.7557	1.9781	6.47	0.48	0.750			
0.5529	35386.54	3.7530	3.7531	2.0096	6.44	0.45	0.750			
0.5589	35772.63	3.7500	3.7499	2.0797	6.41	0.42	0.750			
0.5654	36184.53	3.7470	3.7471	2.1628	6.38	0.39	0.750			
0.5720	36610.92	3.7440	3.7441	2.2095	6.35	0.36	0.750			
0.5788	37042.40	3.7410	3.7411	2.2434	6.32	0.33	0.750			
0.5855	37470.45	3.7380	3.7379	2.2916	6.29	0.30	0.750			
0.5923	37904.97	3.7350	3.7350	2.3619	6.27	0.28	0.750			
0.5995	38370.61	3.7320	3.7320	2.4178	6.24	0.25	0.750			
0.6069	38843.86	3.7290	3.7291	2.4282	6.20	0.21	0.750			
0.6141	39304.92	3.7260	3.7260	2.4307	6.18	0.19	0.750			
0.6214	39769.36	3.7230	3.7230	2.4286	6.15	0.16	0.750			
0.6289	40247.95	3.7200	3.7200	2.3869	6.13	0.14	0.750			
0.6360	40706.76	3.7170	3.7171	2.2404	6.11	0.12	0.750			
0.6426	41127.27	3.7140	3.7138	2.0700	6.09	0.10	0.750			
0.6484	41500.40	3.7110	3.7112	1.8429	6.07	0.08	0.750			
0.6536	41827.75	3.7080	3.7081	1.6524	6.06	0.07	0.750			
0.6584	42136.64	3.7050	3.7049	1.5074	6.04	0.05	0.750			
0.6625	42402.16	3.7020	3.7021	1.3399	6.03	0.04	0.750			
0.6663	42645.61	3.6990	3.6990	1.2302	6.02	0.03	0.750			
0.6697	42861.31	3.6960	3.6961	1.1171	6.02	0.03	0.750			
0.6728	43058.12	3.6930	3.6928	1.0331	6.01	0.02	0.750			
0.6758	43248.77	3.6900	3.6900	0.9704	6.00	0.01	0.750			
0.6785	43422.85	3.6870	3.6870	0.9286	6.00	0.01	0.750			
0.6813	43602.36	3.6840	3.6841	0.9113	6.00	0.01	0.750			
0.6839	43772.43	3.6810	3.6809	0.8786	5.99	0.00	0.750			
0.6865	43937.92	3.6780	3.6780	0.8501	5.99	-0.00	0.750			
0.6891	44101.23	3.6750	3.6751	0.8214	5.99	-0.00	0.750			
0.6915	44256.63	3.6720	3.6721	0.7928	5.98	-0.01	0.750			
0.6939	44408.53	3.6690	3.6689	0.7653	5.98	-0.01	0.750			
0.6961	44548.85	3.6660	3.6661	0.7281	5.98	-0.01	0.750			
0.6982	44685.42	3.6630	3.6630	0.6973	5.98	-0.01	0.750			
0.7003	44816.72	3.6600	3.6600	0.6674	5.98	-0.01	0.750			
0.7022	44942.90	3.6570	3.6570	0.6366	5.98	-0.01	0.750			
0.7041	45062.24	3.6540	3.6541	0.6030	5.99	-0.00	0.750			
0.7059	45174.82	3.6510	3.6510	0.5719	5.99	-0.00	0.750			
0.7075	45281.58	3.6480	3.6480	0.5405	5.99	-0.00	0.750			
0.7091	45381.13	3.6450	3.6450	0.5105	5.99	-0.00	0.750			
0.7106	45477.42	3.6420	3.6419	0.4806	5.99	0.00	0.750			
0.7120	45568.49	3.6390	3.6390	0.4467	5.99	0.00	0.750			
0.7133	45651.40	3.6360	3.6363	0.4108	5.99	0.00	0.750			
0.7145	45727.35	3.6330	3.6329	0.3761	5.99	0.00	0.750			
0.7155	45795.18	3.6300	3.6298	0.3368	5.99	0.00	0.750			
0.7165	45855.25	3.6270	3.6270	0.2980	6.00	0.01	0.750			
0.7173	45909.47	3.6240	3.6241	0.2547	6.00	0.01	0.750			
0.7181	45957.16	3.6210	3.6209	0.2216	6.00	0.01	0.750			
0.7187	45996.46	3.6180	3.6181	0.1803	6.00	0.01	0.750			
0.7192	46026.97	3.6150	3.6151	0.1366	6.00	0.01	0.750			
0.7195	46048.48	3.6120	3.6126	0.0929	6.00	0.01	0.750			
0.7197	46063.77	3.6090	3.6098	0.0461	6.00	0.01	0.750			
0.7198	46068.08	3.6060	3.6079	-0.0011	6.00	0.01	0.750			
