Ah_balance (normalized)	Ah_balance (mAh)	Voltage - fit (V)	Voltage -  interpolate (V)	dQ/dV (1/V)	Temperature (°C)	Temperature - diff (°C)	Current (C)	R_DC 0ms (mOhm)	R_DC 50ms (mOhm)	R_DC 50 ms PEC (mOhm)
0.1821	11656.27	4.0790	4.0792	0.7685	7.21	1.24	0.750			
0.1845	11804.85	4.0760	4.0760	0.7738	7.21	1.24	0.750			
0.1866	11945.59	4.0730	4.0733	0.7996	7.21	1.24	0.750			
0.1891	12104.70	4.0700	4.0700	0.8344	7.21	1.24	0.750			
0.1917	12271.47	4.0670	4.0666	0.8467	7.21	1.24	0.750			
0.1944	12439.75	4.0640	4.0641	0.8556	7.20	1.23	0.750			
0.1971	12611.41	4.0610	4.0612	0.8590	7.20	1.23	0.750			
0.1996	12776.24	4.0580	4.0580	0.8431	7.20	1.23	0.750			
0.2021	12936.50	4.0550	4.0549	0.8206	7.19	1.22	0.750			
0.2044	13082.80	4.0520	4.0521	0.7956	7.19	1.22	0.750			
0.2068	13236.22	4.0490	4.0491	0.7996	7.19	1.22	0.750			
0.2092	13389.55	4.0460	4.0460	0.8027	7.18	1.21	0.750			
0.2116	13543.40	4.0430	4.0428	0.8038	7.18	1.21	0.750			
0.2140	13697.66	4.0400	4.0401	0.8074	7.18	1.21	0.750			
0.2165	13854.23	4.0370	4.0370	0.8112	7.17	1.20	0.750			
0.2189	14011.07	4.0340	4.0341	0.8154	7.17	1.20	0.750			
0.2213	14166.34	4.0310	4.0310	0.8153	7.16	1.19	0.750			
0.2238	14322.91	4.0280	4.0278	0.8205	7.16	1.19	0.750			
0.2263	14480.29	4.0250	4.0251	0.8270	7.16	1.19	0.750			
0.2288	14640.85	4.0220	4.0220	0.8250	7.16	1.19	0.750			
0.2313	14800.26	4.0190	4.0190	0.8299	7.15	1.18	0.750			
0.2337	14958.59	4.0160	4.0161	0.8307	7.15	1.18	0.750			
0.2362	15118.95	4.0130	4.0128	0.8360	7.15	1.18	0.750			
0.2387	15279.80	4.0100	4.0099	0.8350	7.15	1.18	0.750			
0.2412	15439.85	4.0070	4.0071	0.8383	7.14	1.17	0.750			
0.2438	15601.15	4.0040	4.0041	0.8425	7.14	1.17	0.750			
0.2463	15763.51	4.0010	4.0010	0.8464	7.13	1.16	0.750			
0.2488	15926.13	3.9980	3.9978	0.8461	7.13	1.16	0.750			
0.2514	16090.32	3.9950	3.9950	0.8474	7.13	1.16	0.750			
0.2540	16252.99	3.9920	3.9921	0.8523	7.12	1.15	0.750			
0.2565	16417.31	3.9890	3.9890	0.8623	7.12	1.15	0.750			
0.2591	16581.38	3.9860	3.9860	0.8594	7.11	1.14	0.750			
0.2617	16748.35	3.9830	3.9830	0.8632	7.11	1.14	0.750			
0.2643	16914.87	3.9800	3.9801	0.8645	7.10	1.13	0.750			
0.2669	17082.37	3.9770	3.9771	0.8718	7.09	1.12	0.750			
0.2695	17248.95	3.9740	3.9740	0.8751	7.08	1.11	0.750			
0.2721	17414.35	3.9710	3.9710	0.8782	7.08	1.11	0.750			
0.2747	17583.77	3.9680	3.9680	0.8880	7.07	1.10	0.750			
0.2775	17757.59	3.9650	3.9650	0.8961	7.07	1.10	0.750			
0.2802	17930.02	3.9620	3.9620	0.9043	7.06	1.09	0.750			
0.2829	18105.95	3.9590	3.9591	0.9077	7.06	1.09	0.750			
0.2856	18280.11	3.9560	3.9559	0.9053	7.06	1.09	0.750			
0.2883	18454.20	3.9530	3.9530	0.9041	7.05	1.08	0.750			
0.2910	18626.55	3.9500	3.9500	0.9059	7.05	1.08	0.750			
0.2938	18800.55	3.9470	3.9470	0.9109	7.04	1.07	0.750			
0.2965	18975.09	3.9440	3.9441	0.9201	7.04	1.07	0.750			
0.2992	19150.58	3.9410	3.9409	0.9212	7.03	1.06	0.750			
0.3020	19330.74	3.9380	3.9380	0.9245	7.02	1.05	0.750			
0.3048	19508.47	3.9350	3.9351	0.9327	7.02	1.05	0.750			
0.3076	19687.30	3.9320	3.9321	0.9380	7.02	1.05	0.750			
0.3104	19867.49	3.9290	3.9289	0.9459	7.01	1.04	0.750			
0.3133	20048.78	3.9260	3.9260	0.9489	7.01	1.04	0.750			
0.3161	20231.41	3.9230	3.9230	0.9570	7.00	1.03	0.750			
0.3190	20417.27	3.9200	3.9201	0.9707	6.99	1.02	0.750			
0.3220	20608.17	3.9170	3.9170	0.9706	6.98	1.01	0.750			
0.3249	20794.84	3.9140	3.9140	0.9662	6.98	1.01	0.750			
0.3278	20979.92	3.9110	3.9111	0.9669	6.97	1.00	0.750			
0.3307	21163.44	3.9080	3.9082	0.9719	6.96	0.99	0.750			
0.3336	21348.82	3.9050	3.9049	0.9793	6.96	0.99	0.750			
0.3365	21536.29	3.9020	3.9020	0.9910	6.95	0.98	0.750			
0.3394	21724.68	3.8990	3.8991	1.0067	6.94	0.97	0.750			
0.3425	21921.20	3.8960	3.8960	1.0321	6.94	0.97	0.750			
0.3457	22123.65	3.8930	3.8930	1.0583	6.93	0.96	0.750			
0.3489	22330.65	3.8900	3.8899	1.0638	6.93	0.96	0.750			
0.3521	22536.62	3.8870	3.8870	1.0835	6.92	0.95	0.750			
0.3554	22746.35	3.8840	3.8841	1.0990	6.91	0.94	0.750			
0.3587	22958.18	3.8810	3.8811	1.1144	6.90	0.93	0.750			
0.3621	23176.67	3.8780	3.8779	1.1098	6.89	0.92	0.750			
0.3654	23388.76	3.8750	3.8750	1.1255	6.88	0.91	0.750			
0.3688	23603.98	3.8720	3.8722	1.1427	6.87	0.90	0.750			
0.3723	23826.74	3.8690	3.8690	1.1578	6.85	0.88	0.750			
0.3757	24047.50	3.8660	3.8661	1.1678	6.85	0.88	0.750			
0.3793	24272.65	3.8630	3.8631	1.1873	6.84	0.87	0.750			
0.3829	24503.63	3.8600	3.8601	1.2080	6.84	0.87	0.750			
0.3866	24744.61	3.8570	3.8570	1.2208	6.83	0.86	0.750			
0.3902	24974.10	3.8540	3.8542	1.2414	6.82	0.85	0.750			
0.3940	25215.03	3.8510	3.8510	1.2611	6.81	0.84	0.750			
0.3979	25462.49	3.8480	3.8477	1.2780	6.79	0.82	0.750			
0.4016	25702.39	3.8450	3.8453	1.2996	6.78	0.81	0.750			
0.4055	25954.11	3.8420	3.8421	1.3428	6.77	0.80	0.750			
0.4097	26220.28	3.8390	3.8388	1.3672	6.75	0.78	0.750			
0.4138	26486.34	3.8360	3.8362	1.4049	6.75	0.78	0.750	0.376	0.919	
0.4181	26757.58	3.8330	3.8332	1.4334	6.74	0.77	0.750			
0.4225	27037.98	3.8300	3.8299	1.4593	6.73	0.76	0.750			
0.4269	27321.10	3.8270	3.8271	1.4784	6.72	0.75	0.750			
0.4312	27599.61	3.8240	3.8241	1.4957	6.71	0.74	0.750			
0.4359	27896.95	3.8210	3.8210	1.4916	6.69	0.72	0.750			
0.4404	28182.83	3.8180	3.8177	1.5139	6.68	0.71	0.750			
0.4447	28463.49	3.8150	3.8154	1.5918	6.66	0.69	0.750			
0.4496	28773.51	3.8120	3.8116	1.6494	6.65	0.68	0.750			
0.4547	29100.70	3.8090	3.8089	1.6692	6.63	0.66	0.750			
0.4599	29431.68	3.8060	3.8061	1.7076	6.61	0.64	0.750			
0.4650	29762.32	3.8030	3.8033	1.7262	6.59	0.62	0.750			
0.4701	30089.41	3.8000	3.8000	1.7271	6.58	0.61	0.750			
0.4752	30415.23	3.7970	3.7968	1.7371	6.56	0.59	0.750			
0.4805	30750.12	3.7940	3.7943	1.8222	6.54	0.57	0.750			
0.4861	31107.28	3.7910	3.7910	1.8856	6.52	0.55	0.750			
0.4919	31482.63	3.7880	3.7878	1.8813	6.50	0.53	0.750			
0.4977	31852.03	3.7850	3.7850	1.9203	6.47	0.50	0.750			
0.5033	32213.15	3.7820	3.7818	1.9224	6.46	0.49	0.750			
0.5090	32575.89	3.7790	3.7788	1.9357	6.44	0.47	0.750			
0.5147	32943.70	3.7760	3.7760	1.9624	6.42	0.45	0.750			
0.5209	33336.30	3.7730	3.7727	2.0278	6.39	0.42	0.750			
0.5272	33739.77	3.7700	3.7698	2.0169	6.37	0.40	0.750			
0.5332	34122.53	3.7670	3.7674	2.0505	6.34	0.37	0.750			
0.5393	34515.52	3.7640	3.7637	2.0796	6.32	0.35	0.750			
0.5455	34912.32	3.7610	3.7610	2.1083	6.29	0.32	0.750			
0.5521	35337.29	3.7580	3.7578	2.1861	6.27	0.30	0.750			
0.5588	35765.32	3.7550	3.7550	2.1683	6.24	0.27	0.750			
0.5653	36176.59	3.7520	3.7521	2.1608	6.22	0.25	0.750			
0.5718	36592.52	3.7490	3.7489	2.1435	6.20	0.23	0.750			
0.5781	36998.38	3.7460	3.7462	2.2023	6.18	0.21	0.750			
0.5849	37433.79	3.7430	3.7428	2.3126	6.15	0.18	0.750			
0.5919	37880.11	3.7400	3.7402	2.3884	6.13	0.16	0.750			
0.5995	38365.80	3.7370	3.7370	2.5448	6.11	0.14	0.750			
0.6071	38856.49	3.7340	3.7339	2.6446	6.08	0.11	0.750			
0.6153	39381.99	3.7310	3.7310	2.6965	6.06	0.09	0.750			
0.6236	39908.44	3.7280	3.7280	2.7325	6.05	0.08	0.750			
0.6317	40427.03	3.7250	3.7251	2.6935	6.01	0.04	0.750			
0.6399	40951.51	3.7220	3.7221	2.6714	5.99	0.02	0.750			
0.6477	41455.48	3.7190	3.7190	2.5957	5.99	0.02	0.750			
0.6556	41958.63	3.7160	3.7158	2.4493	5.98	0.01	0.750			
0.6627	42413.46	3.7130	3.7131	2.2552	5.97	-0.00	0.750			
0.6692	42827.32	3.7100	3.7100	2.0666	5.96	-0.01	0.750			
0.6750	43202.94	3.7070	3.7069	1.8388	5.95	-0.02	0.750			
0.6802	43531.26	3.7040	3.7042	1.6399	5.95	-0.02	0.750			
0.6848	43829.52	3.7010	3.7010	1.4660	5.95	-0.02	0.750			
0.6891	44100.22	3.6980	3.6979	1.3051	5.95	-0.02	0.750			
0.6924	44312.70	3.6950	3.6953	1.1453	5.95	-0.02	0.750			
0.6955	44514.96	3.6920	3.6920	1.0357	5.95	-0.02	0.750			
0.6984	44695.66	3.6890	3.6887	0.9624	5.95	-0.02	0.750			
0.7010	44864.20	3.6860	3.6859	0.8906	5.95	-0.02	0.750			
0.7036	45029.84	3.6830	3.6833	0.8453	5.95	-0.02	0.750			
0.7061	45192.85	3.6800	3.6800	0.8197	5.95	-0.02	0.750			
0.7086	45347.38	3.6770	3.6771	0.7819	5.95	-0.02	0.750			
0.7108	45493.45	3.6740	3.6737	0.7425	5.95	-0.02	0.750			
0.7130	45632.90	3.6710	3.6710	0.7027	5.95	-0.02	0.750			
0.7150	45763.18	3.6680	3.6681	0.6576	5.96	-0.01	0.750			
0.7170	45887.42	3.6650	3.6651	0.6200	5.96	-0.01	0.750			
0.7188	46001.29	3.6620	3.6620	0.5715	5.96	-0.01	0.750			
0.7204	46107.16	3.6590	3.6589	0.5301	5.96	-0.01	0.750			
0.7219	46204.37	3.6560	3.6560	0.4877	5.97	-0.00	0.750			
0.7233	46294.32	3.6530	3.6530	0.4464	5.97	-0.00	0.750			
0.7246	46376.88	3.6500	3.6501	0.4082	5.97	0.00	0.750			
0.7258	46450.51	3.6470	3.6469	0.3672	5.97	0.00	0.750			
0.7268	46515.85	3.6440	3.6440	0.3281	5.98	0.01	0.750			
0.7277	46574.75	3.6410	3.6410	0.2907	5.98	0.01	0.750			
0.7286	46627.23	3.6380	3.6380	0.2569	5.98	0.01	0.750			
0.7293	46674.21	3.6350	3.6349	0.2210	5.98	0.01	0.750			
0.7299	46713.71	3.6320	3.6320	0.1855	5.98	0.01	0.750			
0.7304	46745.73	3.6290	3.6290	0.1479	5.98	0.01	0.750			
0.7308	46770.87	3.6260	3.6263	0.1100	5.98	0.01	0.750			
0.7311	46788.59	3.6230	3.6237	0.0701	5.98	0.01	0.750			
0.7312	46798.22	3.6200	3.6209	0.0279	5.98	0.01	0.750			
