Ah_balance (normalized)	Ah_balance (mAh)	Voltage - fit (V)	Voltage -  interpolate (V)	dQ/dV (1/V)	Temperature (°C)	Temperature - diff (°C)	Current (C)	R_DC 0ms (mOhm)	R_DC 50ms (mOhm)	R_DC 50 ms PEC (mOhm)
0.1798	11506.91	4.0800	4.0800	0.7822	7.31	1.32	0.750			
0.1821	11653.55	4.0770	4.0772	0.7716	7.30	1.31	0.750			
0.1844	11801.84	4.0740	4.0742	0.7794	7.29	1.30	0.750			
0.1868	11952.78	4.0710	4.0710	0.7868	7.29	1.30	0.750			
0.1891	12104.54	4.0680	4.0680	0.7872	7.28	1.29	0.750			
0.1915	12256.16	4.0650	4.0650	0.7921	7.27	1.28	0.750			
0.1940	12412.94	4.0620	4.0620	0.8053	7.26	1.27	0.750			
0.1963	12564.10	4.0590	4.0591	0.8012	7.26	1.27	0.750			
0.1987	12717.77	4.0560	4.0559	0.8031	7.25	1.26	0.750			
0.2012	12874.70	4.0530	4.0530	0.8013	7.25	1.26	0.750			
0.2036	13028.92	4.0500	4.0501	0.8037	7.25	1.26	0.750			
0.2060	13182.09	4.0470	4.0471	0.8106	7.25	1.26	0.750			
0.2084	13337.69	4.0440	4.0440	0.8131	7.25	1.26	0.750			
0.2108	13492.77	4.0410	4.0408	0.8147	7.25	1.26	0.750			
0.2133	13649.95	4.0380	4.0381	0.8224	7.24	1.25	0.750			
0.2158	13810.11	4.0350	4.0350	0.8231	7.23	1.24	0.750			
0.2183	13969.28	4.0320	4.0320	0.8237	7.22	1.23	0.750			
0.2207	14125.46	4.0290	4.0291	0.8214	7.22	1.23	0.750			
0.2232	14282.19	4.0260	4.0257	0.8254	7.21	1.22	0.750			
0.2257	14441.83	4.0230	4.0230	0.8297	7.21	1.22	0.750			
0.2281	14600.97	4.0200	4.0200	0.8394	7.20	1.21	0.750			
0.2307	14764.08	4.0170	4.0170	0.8453	7.20	1.21	0.750			
0.2332	14927.48	4.0140	4.0141	0.8412	7.19	1.20	0.750			
0.2358	15091.63	4.0110	4.0109	0.8469	7.19	1.20	0.750			
0.2384	15255.19	4.0080	4.0081	0.8401	7.19	1.20	0.750			
0.2408	15413.99	4.0050	4.0050	0.8401	7.18	1.19	0.750			
0.2433	15573.80	4.0020	4.0020	0.8441	7.18	1.19	0.750			
0.2458	15734.24	3.9990	3.9991	0.8481	7.17	1.18	0.750			
0.2484	15898.56	3.9960	3.9960	0.8613	7.17	1.18	0.750			
0.2511	16067.43	3.9930	3.9930	0.8601	7.16	1.17	0.750			
0.2537	16234.02	3.9900	3.9899	0.8655	7.15	1.16	0.750			
0.2563	16400.91	3.9870	3.9871	0.8667	7.14	1.15	0.750			
0.2589	16566.89	3.9840	3.9841	0.8603	7.14	1.15	0.750			
0.2614	16731.44	3.9810	3.9811	0.8586	7.13	1.14	0.750			
0.2640	16896.60	3.9780	3.9780	0.8544	7.12	1.13	0.750			
0.2665	17059.06	3.9750	3.9750	0.8599	7.12	1.13	0.750			
0.2691	17225.43	3.9720	3.9720	0.8645	7.12	1.13	0.750			
0.2717	17390.64	3.9690	3.9690	0.8676	7.11	1.12	0.750			
0.2743	17557.36	3.9660	3.9661	0.8768	7.11	1.12	0.750			
0.2770	17727.36	3.9630	3.9630	0.8807	7.10	1.11	0.750			
0.2796	17895.41	3.9600	3.9600	0.8938	7.09	1.10	0.750			
0.2823	18064.79	3.9570	3.9571	0.9082	7.08	1.09	0.750			
0.2851	18243.77	3.9540	3.9537	0.9278	7.07	1.08	0.750			
0.2879	18428.29	3.9510	3.9510	0.9271	7.07	1.08	0.750			
0.2907	18606.05	3.9480	3.9482	0.9323	7.06	1.07	0.750			
0.2935	18786.36	3.9450	3.9451	0.9403	7.06	1.07	0.750			
0.2964	18966.98	3.9420	3.9420	0.9443	7.05	1.06	0.750			
0.2991	19142.75	3.9390	3.9390	0.9390	7.05	1.06	0.750			
0.3019	19324.00	3.9360	3.9361	0.9468	7.04	1.05	0.750			
0.3048	19510.25	3.9330	3.9330	0.9592	7.04	1.05	0.750			
0.3077	19695.67	3.9300	3.9301	0.9687	7.03	1.04	0.750			
0.3107	19881.92	3.9270	3.9270	0.9652	7.03	1.04	0.750			
0.3136	20067.39	3.9240	3.9239	0.9716	7.02	1.03	0.750			
0.3165	20252.84	3.9210	3.9211	0.9784	7.01	1.02	0.750			
0.3194	20442.27	3.9180	3.9180	0.9850	7.00	1.01	0.750			
0.3224	20632.24	3.9150	3.9149	0.9946	6.99	1.00	0.750			
0.3254	20824.97	3.9120	3.9120	0.9970	6.98	0.99	0.750			
0.3284	21015.53	3.9090	3.9090	1.0047	6.97	0.98	0.750			
0.3314	21209.90	3.9060	3.9060	1.0195	6.96	0.97	0.750			
0.3344	21404.32	3.9030	3.9030	1.0261	6.95	0.96	0.750			
0.3375	21602.20	3.9000	3.9000	1.0430	6.94	0.95	0.750			
0.3407	21804.43	3.8970	3.8970	1.0590	6.93	0.94	0.750			
0.3439	22008.48	3.8940	3.8940	1.0723	6.92	0.93	0.750			
0.3472	22220.09	3.8910	3.8909	1.0792	6.91	0.92	0.750			
0.3504	22426.74	3.8880	3.8881	1.0830	6.91	0.92	0.750			
0.3537	22633.75	3.8850	3.8850	1.0957	6.90	0.91	0.750			
0.3569	22843.60	3.8820	3.8821	1.1090	6.90	0.91	0.750			
0.3603	23059.20	3.8790	3.8788	1.1272	6.89	0.90	0.750			
0.3637	23277.26	3.8760	3.8761	1.1444	6.88	0.89	0.750			
0.3672	23500.17	3.8730	3.8729	1.1570	6.86	0.87	0.750			
0.3708	23728.59	3.8700	3.8703	1.1737	6.85	0.86	0.750			
0.3742	23951.14	3.8670	3.8668	1.1737	6.84	0.85	0.750			
0.3777	24175.00	3.8640	3.8641	1.1850	6.83	0.84	0.750			
0.3813	24401.14	3.8610	3.8610	1.1942	6.82	0.83	0.750			
0.3849	24632.00	3.8580	3.8579	1.2039	6.81	0.82	0.750			
0.3885	24866.25	3.8550	3.8550	1.2322	6.80	0.81	0.750			
0.3923	25104.38	3.8520	3.8521	1.2584	6.79	0.80	0.750			
0.3961	25350.93	3.8490	3.8489	1.2779	6.78	0.79	0.750			
0.4000	25597.04	3.8460	3.8461	1.3098	6.78	0.79	0.750			
0.4039	25848.55	3.8430	3.8431	1.3462	6.77	0.78	0.750			
0.4079	26106.59	3.8400	3.8401	1.3669	6.76	0.77	0.750			
0.4120	26371.16	3.8370	3.8371	1.3963	6.74	0.75	0.750			
0.4162	26638.45	3.8340	3.8329	1.4316	6.73	0.74	0.750	0.364	0.911	
0.4206	26920.54	3.8310	3.8312	1.4531	6.72	0.73	0.750			
0.4251	27205.73	3.8280	3.8277	1.4804	6.70	0.71	0.750			
0.4296	27492.90	3.8250	3.8252	1.5335	6.69	0.70	0.750			
0.4343	27797.49	3.8220	3.8218	1.5539	6.67	0.68	0.750			
0.4390	28094.93	3.8190	3.8186	1.5657	6.66	0.67	0.750			
0.4436	28387.87	3.8160	3.8164	1.5930	6.64	0.65	0.750			
0.4484	28696.92	3.8130	3.8128	1.6277	6.63	0.64	0.750			
0.4533	29013.03	3.8100	3.8100	1.6494	6.61	0.62	0.750			
0.4582	29327.22	3.8070	3.8074	1.7254	6.60	0.61	0.750			
0.4636	29669.96	3.8040	3.8041	1.7633	6.57	0.58	0.750			
0.4690	30014.44	3.8010	3.8010	1.7877	6.55	0.56	0.750			
0.4743	30353.69	3.7980	3.7983	1.8056	6.53	0.54	0.750			
0.4798	30705.40	3.7950	3.7952	1.8158	6.51	0.52	0.750			
0.4853	31056.60	3.7920	3.7920	1.8596	6.49	0.50	0.750			
0.4909	31418.68	3.7890	3.7890	1.9214	6.47	0.48	0.750			
0.4969	31801.04	3.7860	3.7860	1.9784	6.45	0.46	0.750			
0.5028	32178.00	3.7830	3.7829	2.0347	6.43	0.44	0.750			
0.5090	32578.99	3.7800	3.7799	2.0347	6.41	0.42	0.750			
0.5151	32965.32	3.7770	3.7770	2.0239	6.40	0.41	0.750			
0.5212	33355.80	3.7740	3.7739	2.0474	6.38	0.39	0.750			
0.5274	33755.02	3.7710	3.7709	2.0953	6.35	0.36	0.750			
0.5336	34150.21	3.7680	3.7681	2.1205	6.33	0.34	0.750			
0.5402	34571.15	3.7650	3.7651	2.1710	6.30	0.31	0.750			
0.5466	34983.81	3.7620	3.7621	2.2237	6.28	0.29	0.750			
0.5534	35420.54	3.7590	3.7590	2.2173	6.26	0.27	0.750			
0.5602	35853.71	3.7560	3.7560	2.3005	6.23	0.24	0.750			
0.5672	36299.39	3.7530	3.7527	2.3280	6.21	0.22	0.750			
0.5742	36751.68	3.7500	3.7498	2.2681	6.19	0.20	0.750			
0.5809	37180.70	3.7470	3.7469	2.2700	6.16	0.17	0.750			
0.5877	37612.67	3.7440	3.7439	2.3108	6.14	0.15	0.750			
0.5947	38062.25	3.7410	3.7410	2.4819	6.12	0.13	0.750			
0.6026	38569.16	3.7380	3.7379	2.6020	6.09	0.10	0.750			
0.6105	39073.97	3.7350	3.7351	2.6737	6.07	0.08	0.750			
0.6189	39607.22	3.7320	3.7319	2.7385	6.06	0.07	0.750			
0.6270	40126.34	3.7290	3.7290	2.7872	6.04	0.05	0.750			
0.6354	40666.61	3.7260	3.7255	2.8489	6.01	0.02	0.750			
0.6441	41220.80	3.7230	3.7228	2.8381	6.00	0.01	0.750			
0.6528	41780.99	3.7200	3.7201	2.8220	5.97	-0.02	0.750			
0.6612	42317.15	3.7170	3.7169	2.7414	5.95	-0.04	0.750			
0.6693	42835.22	3.7140	3.7140	2.5449	5.95	-0.04	0.750			
0.6767	43306.81	3.7110	3.7111	2.3470	5.95	-0.04	0.750			
0.6833	43730.37	3.7080	3.7082	2.0696	5.95	-0.04	0.750			
0.6890	44096.01	3.7050	3.7051	1.8167	5.95	-0.04	0.750			
0.6941	44422.04	3.7020	3.7020	1.6118	5.94	-0.05	0.750			
0.6986	44711.81	3.6990	3.6987	1.4176	5.94	-0.05	0.750			
0.7025	44957.78	3.6960	3.6961	1.2578	5.94	-0.05	0.750			
0.7057	45167.13	3.6930	3.6931	1.1024	5.95	-0.04	0.750			
0.7088	45361.14	3.6900	3.6900	1.0025	5.95	-0.04	0.750			
0.7116	45541.93	3.6870	3.6869	0.9206	5.95	-0.04	0.750			
0.7142	45707.79	3.6840	3.6841	0.8608	5.96	-0.03	0.750			
0.7166	45865.07	3.6810	3.6810	0.8155	5.96	-0.03	0.750			
0.7191	46020.44	3.6780	3.6779	0.7752	5.96	-0.03	0.750			
0.7213	46163.51	3.6750	3.6750	0.7251	5.97	-0.02	0.750			
0.7235	46300.84	3.6720	3.6721	0.6794	5.97	-0.02	0.750			
0.7254	46427.78	3.6690	3.6691	0.6320	5.97	-0.02	0.750			
0.7273	46545.26	3.6660	3.6660	0.5783	5.98	-0.01	0.750			
0.7289	46650.47	3.6630	3.6629	0.5258	5.98	-0.01	0.750			
0.7304	46743.64	3.6600	3.6601	0.4760	5.98	-0.01	0.750			
0.7317	46830.84	3.6570	3.6570	0.4331	5.98	-0.01	0.750			
0.7329	46908.64	3.6540	3.6539	0.3919	5.99	-0.00	0.750			
0.7341	46979.75	3.6510	3.6510	0.3549	5.99	-0.00	0.750			
0.7351	47043.59	3.6480	3.6480	0.3171	5.99	-0.00	0.750			
0.7360	47101.80	3.6450	3.6451	0.2831	5.99	0.00	0.750			
0.7368	47153.39	3.6420	3.6420	0.2433	5.99	0.00	0.750			
0.7374	47196.65	3.6390	3.6390	0.2050	5.99	0.00	0.750			
0.7380	47232.67	3.6360	3.6360	0.1661	5.99	0.00	0.750			
0.7385	47261.65	3.6330	3.6333	0.1257	5.99	0.00	0.750			
0.7388	47281.99	3.6300	3.6304	0.0841	6.00	0.01	0.750			
0.7390	47295.00	3.6270	3.6277	0.0393	6.00	0.01	0.750			
0.7390	47298.24	3.6240	3.6264	-0.0056	6.00	0.01	0.750			
