Ah_balance (normalized)	Ah_balance (mAh)	Voltage - fit (V)	Voltage -  interpolate (V)	dQ/dV (1/V)	Temperature (°C)	Temperature - diff (°C)	Current (C)	R_DC 0ms (mOhm)	R_DC 50ms (mOhm)	R_DC 50 ms PEC (mOhm)
0.1806	11555.95	4.0810	4.0811	0.7363	7.35	1.38	0.750			
0.1829	11702.94	4.0780	4.0779	0.7694	7.35	1.38	0.750			
0.1852	11852.84	4.0750	4.0750	0.7773	7.34	1.37	0.750			
0.1876	12003.30	4.0720	4.0720	0.7733	7.33	1.36	0.750			
0.1899	12150.94	4.0690	4.0692	0.7823	7.32	1.35	0.750			
0.1922	12301.59	4.0660	4.0660	0.7821	7.32	1.35	0.750			
0.1945	12451.18	4.0630	4.0627	0.7838	7.31	1.34	0.750			
0.1969	12601.29	4.0600	4.0601	0.7877	7.31	1.34	0.750			
0.1993	12753.41	4.0570	4.0571	0.7906	7.30	1.33	0.750			
0.2017	12906.25	4.0540	4.0540	0.8047	7.30	1.33	0.750			
0.2041	13061.40	4.0510	4.0510	0.8009	7.29	1.32	0.750			
0.2065	13214.41	4.0480	4.0479	0.8070	7.29	1.32	0.750			
0.2090	13373.30	4.0450	4.0451	0.8115	7.28	1.31	0.750			
0.2114	13530.95	4.0420	4.0420	0.8017	7.28	1.31	0.750			
0.2138	13684.57	4.0390	4.0390	0.8067	7.27	1.30	0.750			
0.2162	13836.73	4.0360	4.0361	0.8116	7.26	1.29	0.750			
0.2186	13987.88	4.0330	4.0329	0.8126	7.25	1.28	0.750			
0.2211	14148.40	4.0300	4.0301	0.8163	7.24	1.27	0.750			
0.2235	14307.07	4.0270	4.0269	0.8112	7.24	1.27	0.750			
0.2260	14464.36	4.0240	4.0242	0.8160	7.23	1.26	0.750			
0.2285	14621.14	4.0210	4.0210	0.8226	7.22	1.25	0.750			
0.2309	14775.82	4.0180	4.0179	0.8198	7.21	1.24	0.750			
0.2333	14932.55	4.0150	4.0150	0.8246	7.21	1.24	0.750			
0.2358	15092.34	4.0120	4.0120	0.8244	7.20	1.23	0.750			
0.2383	15253.57	4.0090	4.0090	0.8390	7.19	1.22	0.750			
0.2409	15415.22	4.0060	4.0060	0.8467	7.18	1.21	0.750			
0.2434	15576.06	4.0030	4.0030	0.8483	7.17	1.20	0.750			
0.2459	15739.60	4.0000	4.0002	0.8509	7.17	1.20	0.750			
0.2485	15905.37	3.9970	3.9970	0.8504	7.16	1.19	0.750			
0.2511	16068.16	3.9940	3.9941	0.8554	7.15	1.18	0.750			
0.2536	16233.00	3.9910	3.9910	0.8648	7.14	1.17	0.750			
0.2562	16397.93	3.9880	3.9878	0.8644	7.13	1.16	0.750			
0.2588	16564.08	3.9850	3.9850	0.8684	7.12	1.15	0.750			
0.2614	16731.47	3.9820	3.9821	0.8697	7.12	1.15	0.750			
0.2640	16898.93	3.9790	3.9791	0.8790	7.11	1.14	0.750			
0.2667	17069.82	3.9760	3.9760	0.8845	7.10	1.13	0.750			
0.2693	17237.51	3.9730	3.9727	0.8828	7.09	1.12	0.750			
0.2720	17406.94	3.9700	3.9701	0.8841	7.08	1.11	0.750			
0.2747	17578.44	3.9670	3.9670	0.8927	7.07	1.10	0.750			
0.2774	17751.00	3.9640	3.9640	0.8974	7.06	1.09	0.750			
0.2801	17923.65	3.9610	3.9611	0.9023	7.05	1.08	0.750			
0.2827	18094.14	3.9580	3.9581	0.9032	7.04	1.07	0.750			
0.2855	18271.53	3.9550	3.9549	0.8996	7.03	1.06	0.750			
0.2882	18442.74	3.9520	3.9521	0.9113	7.02	1.05	0.750			
0.2909	18617.73	3.9490	3.9489	0.9208	7.00	1.03	0.750			
0.2937	18795.42	3.9460	3.9459	0.9267	6.99	1.02	0.750			
0.2965	18975.67	3.9430	3.9431	0.9302	6.98	1.01	0.750			
0.2993	19154.08	3.9400	3.9401	0.9383	6.97	1.00	0.750			
0.3021	19335.69	3.9370	3.9370	0.9473	6.96	0.99	0.750			
0.3050	19519.21	3.9340	3.9340	0.9562	6.95	0.98	0.750			
0.3078	19700.31	3.9310	3.9310	0.9521	6.94	0.97	0.750			
0.3107	19884.10	3.9280	3.9281	0.9568	6.92	0.95	0.750			
0.3136	20069.42	3.9250	3.9250	0.9659	6.91	0.94	0.750			
0.3165	20254.97	3.9220	3.9220	0.9730	6.90	0.93	0.750			
0.3194	20440.47	3.9190	3.9189	0.9850	6.89	0.92	0.750			
0.3224	20630.98	3.9160	3.9160	0.9861	6.88	0.91	0.750			
0.3253	20821.94	3.9130	3.9130	0.9956	6.86	0.89	0.750			
0.3284	21015.51	3.9100	3.9100	1.0075	6.85	0.88	0.750			
0.3314	21208.68	3.9070	3.9068	1.0136	6.83	0.86	0.750			
0.3345	21405.67	3.9040	3.9040	1.0082	6.82	0.85	0.750			
0.3375	21597.38	3.9010	3.9010	1.0245	6.81	0.84	0.750			
0.3405	21794.19	3.8980	3.8981	1.0405	6.80	0.83	0.750			
0.3437	21997.30	3.8950	3.8947	1.0582	6.79	0.82	0.750			
0.3469	22199.63	3.8920	3.8921	1.0624	6.78	0.81	0.750			
0.3501	22404.77	3.8890	3.8892	1.0760	6.76	0.79	0.750			
0.3533	22612.50	3.8860	3.8860	1.0968	6.75	0.78	0.750			
0.3567	22829.35	3.8830	3.8828	1.1085	6.73	0.76	0.750			
0.3600	23038.03	3.8800	3.8800	1.1169	6.73	0.76	0.750			
0.3634	23254.95	3.8770	3.8770	1.1305	6.72	0.75	0.750			
0.3668	23474.65	3.8740	3.8742	1.1504	6.71	0.74	0.750			
0.3703	23697.64	3.8710	3.8710	1.1542	6.71	0.74	0.750			
0.3737	23919.30	3.8680	3.8680	1.1705	6.70	0.73	0.750			
0.3773	24144.06	3.8650	3.8650	1.1793	6.68	0.71	0.750			
0.3809	24374.50	3.8620	3.8619	1.1945	6.67	0.70	0.750			
0.3844	24603.40	3.8590	3.8591	1.2095	6.66	0.69	0.750			
0.3881	24837.12	3.8560	3.8560	1.2357	6.65	0.68	0.750			
0.3918	25075.62	3.8530	3.8530	1.2521	6.64	0.67	0.750			
0.3956	25321.10	3.8500	3.8500	1.2590	6.62	0.65	0.750			
0.3993	25556.34	3.8470	3.8472	1.2903	6.61	0.64	0.750			
0.4032	25806.09	3.8440	3.8442	1.3282	6.59	0.62	0.750			
0.4072	26063.69	3.8410	3.8405	1.3624	6.57	0.60	0.750			
0.4114	26332.44	3.8380	3.8380	1.3755	6.56	0.59	0.750	0.378	0.907	
0.4157	26605.25	3.8350	3.8352	1.4142	6.56	0.59	0.750			
0.4200	26880.86	3.8320	3.8320	1.4451	6.55	0.58	0.750			
0.4244	27159.68	3.8290	3.8291	1.4478	6.53	0.56	0.750			
0.4286	27432.46	3.8260	3.8260	1.4703	6.52	0.55	0.750			
0.4331	27718.64	3.8230	3.8231	1.5043	6.51	0.54	0.750			
0.4377	28011.19	3.8200	3.8200	1.5280	6.49	0.52	0.750			
0.4424	28312.11	3.8170	3.8171	1.5679	6.48	0.51	0.750			
0.4471	28612.02	3.8140	3.8142	1.5717	6.46	0.49	0.750			
0.4519	28918.47	3.8110	3.8110	1.6236	6.45	0.48	0.750			
0.4568	29232.14	3.8080	3.8079	1.6434	6.43	0.46	0.750			
0.4618	29555.23	3.8050	3.8051	1.6765	6.41	0.44	0.750			
0.4667	29871.96	3.8020	3.8023	1.7413	6.40	0.43	0.750			
0.4720	30208.54	3.7990	3.7990	1.7454	6.38	0.41	0.750			
0.4774	30550.56	3.7960	3.7960	1.7871	6.36	0.39	0.750			
0.4828	30902.30	3.7930	3.7933	1.8107	6.35	0.38	0.750			
0.4883	31252.66	3.7900	3.7903	1.8385	6.34	0.37	0.750			
0.4939	31609.87	3.7870	3.7870	1.8680	6.33	0.36	0.750			
0.4996	31972.89	3.7840	3.7842	1.9133	6.31	0.34	0.750			
0.5054	32342.59	3.7810	3.7809	1.9181	6.28	0.31	0.750			
0.5112	32719.86	3.7780	3.7782	1.9491	6.26	0.29	0.750			
0.5171	33094.41	3.7750	3.7756	1.9372	6.24	0.27	0.750			
0.5231	33477.77	3.7720	3.7715	1.9547	6.22	0.25	0.750			
0.5288	33843.16	3.7690	3.7687	1.9766	6.21	0.24	0.750			
0.5347	34219.25	3.7660	3.7663	2.0042	6.19	0.22	0.750			
0.5409	34615.34	3.7630	3.7628	2.0307	6.18	0.21	0.750			
0.5471	35015.35	3.7600	3.7599	2.0692	6.16	0.19	0.750			
0.5535	35424.69	3.7570	3.7569	2.1149	6.14	0.17	0.750			
0.5598	35825.34	3.7540	3.7541	2.0924	6.12	0.15	0.750			
0.5661	36227.28	3.7510	3.7509	2.1367	6.10	0.13	0.750			
0.5726	36644.39	3.7480	3.7483	2.1770	6.08	0.11	0.750			
0.5791	37065.51	3.7450	3.7449	2.2349	6.06	0.09	0.750			
0.5859	37498.51	3.7420	3.7420	2.2826	6.04	0.07	0.750			
0.5929	37947.23	3.7390	3.7390	2.3618	6.03	0.06	0.750			
0.6001	38405.27	3.7360	3.7359	2.4472	6.01	0.04	0.750			
0.6075	38880.91	3.7330	3.7331	2.4894	5.99	0.02	0.750			
0.6153	39381.59	3.7300	3.7300	2.5946	5.98	0.01	0.750			
0.6232	39885.91	3.7270	3.7269	2.5689	5.96	-0.01	0.750			
0.6309	40375.36	3.7240	3.7239	2.5436	5.95	-0.02	0.750			
0.6384	40855.81	3.7210	3.7207	2.4515	5.94	-0.03	0.750			
0.6455	41310.80	3.7180	3.7182	2.2913	5.93	-0.04	0.750			
0.6526	41765.14	3.7150	3.7151	2.2255	5.92	-0.05	0.750			
0.6588	42163.61	3.7120	3.7119	2.0076	5.91	-0.06	0.750			
0.6644	42522.34	3.7090	3.7090	1.8360	5.91	-0.06	0.750			
0.6697	42863.48	3.7060	3.7058	1.6351	5.91	-0.06	0.750			
0.6745	43166.24	3.7030	3.7031	1.4894	5.91	-0.06	0.750			
0.6785	43427.08	3.7000	3.7001	1.3140	5.91	-0.06	0.750			
0.6822	43658.87	3.6970	3.6969	1.1723	5.91	-0.06	0.750			
0.6853	43862.09	3.6940	3.6941	1.0619	5.92	-0.05	0.750			
0.6882	44047.10	3.6910	3.6910	0.9812	5.92	-0.05	0.750			
0.6911	44229.87	3.6880	3.6879	0.9429	5.92	-0.05	0.750			
0.6938	44402.49	3.6850	3.6849	0.8973	5.93	-0.04	0.750			
0.6965	44573.89	3.6820	3.6820	0.8669	5.93	-0.04	0.750			
0.6990	44738.57	3.6790	3.6790	0.8262	5.94	-0.03	0.750			
0.7015	44893.46	3.6760	3.6761	0.7988	5.94	-0.03	0.750			
0.7038	45042.35	3.6730	3.6730	0.7665	5.95	-0.02	0.750			
0.7060	45184.98	3.6700	3.6699	0.7279	5.95	-0.02	0.750			
0.7082	45323.09	3.6670	3.6672	0.6928	5.95	-0.02	0.750			
0.7102	45454.48	3.6640	3.6641	0.6582	5.96	-0.01	0.750			
0.7121	45577.42	3.6610	3.6611	0.6199	5.96	-0.01	0.750			
0.7140	45693.76	3.6580	3.6579	0.5799	5.96	-0.01	0.750			
0.7156	45797.88	3.6550	3.6550	0.5352	5.96	-0.01	0.750			
0.7171	45897.12	3.6520	3.6520	0.4977	5.97	-0.00	0.750			
0.7186	45989.60	3.6490	3.6491	0.4645	5.97	-0.00	0.750			
0.7199	46075.37	3.6460	3.6461	0.4265	5.97	0.00	0.750			
0.7211	46153.57	3.6430	3.6430	0.3898	5.97	0.00	0.750			
0.7223	46224.56	3.6400	3.6399	0.3525	5.97	0.00	0.750			
0.7233	46288.12	3.6370	3.6370	0.3166	5.98	0.01	0.750			
0.7241	46345.25	3.6340	3.6341	0.2809	5.98	0.01	0.750			
0.7250	46396.85	3.6310	3.6309	0.2442	5.98	0.01	0.750			
0.7256	46440.25	3.6280	3.6279	0.2071	5.98	0.01	0.750			
0.7262	46477.56	3.6250	3.6250	0.1726	5.98	0.01	0.750			
0.7267	46507.53	3.6220	3.6223	0.1344	5.98	0.01	0.750			
0.7270	46530.52	3.6190	3.6193	0.0943	5.98	0.01	0.750			
0.7273	46546.02	3.6160	3.6167	0.0489	5.98	0.01	0.750			
0.7274	46551.01	3.6130	3.6152	0.0030	5.98	0.01	0.750			
