Ah_balance (normalized)	Ah_balance (mAh)	Voltage - fit (V)	Voltage -  interpolate (V)	dQ/dV (1/V)	Temperature (°C)	Temperature - diff (°C)	Current (C)	R_DC 0ms (mOhm)	R_DC 50ms (mOhm)	R_DC 50 ms PEC (mOhm)
0.1833	11731.44	4.0810	4.0810	0.7221	7.23	1.24	0.750			
0.1855	11870.89	4.0780	4.0780	0.7364	7.22	1.23	0.750			
0.1877	12014.96	4.0750	4.0751	0.7588	7.22	1.23	0.750			
0.1901	12164.26	4.0720	4.0721	0.7744	7.21	1.22	0.750			
0.1924	12314.78	4.0690	4.0691	0.7846	7.20	1.21	0.750			
0.1948	12468.04	4.0660	4.0660	0.7890	7.19	1.20	0.750			
0.1972	12621.14	4.0630	4.0631	0.7947	7.19	1.20	0.750			
0.1996	12771.93	4.0600	4.0600	0.7926	7.18	1.19	0.750			
0.2019	12924.43	4.0570	4.0567	0.7975	7.17	1.18	0.750			
0.2043	13077.69	4.0540	4.0542	0.8015	7.17	1.18	0.750			
0.2068	13236.32	4.0510	4.0509	0.7972	7.16	1.17	0.750			
0.2092	13390.13	4.0480	4.0480	0.8045	7.16	1.17	0.750			
0.2117	13545.65	4.0450	4.0450	0.7845	7.15	1.16	0.750			
0.2141	13699.57	4.0420	4.0419	0.7620	7.15	1.16	0.750			
0.2162	13837.44	4.0390	4.0394	0.7543	7.15	1.16	0.750			
0.2184	13977.01	4.0360	4.0368	0.7535	7.14	1.15	0.750			
0.2205	14112.74	4.0330	4.0335	0.7713	7.13	1.14	0.750			
0.2229	14263.93	4.0300	4.0298	0.8096	7.12	1.13	0.750			
0.2253	14422.34	4.0270	4.0262	0.8383	7.12	1.13	0.750			
0.2281	14598.44	4.0240	4.0245	0.8722	7.11	1.12	0.750			
0.2308	14772.27	4.0210	4.0215	0.8688	7.10	1.11	0.750			
0.2335	14946.87	4.0180	4.0179	0.8714	7.10	1.11	0.750			
0.2361	15110.82	4.0150	4.0150	0.8618	7.10	1.11	0.750			
0.2385	15263.07	4.0120	4.0119	0.8263	7.09	1.10	0.750			
0.2410	15422.82	4.0090	4.0091	0.8314	7.08	1.09	0.750			
0.2435	15585.66	4.0060	4.0060	0.8311	7.07	1.08	0.750			
0.2460	15744.50	4.0030	4.0031	0.8329	7.06	1.07	0.750			
0.2485	15906.26	4.0000	4.0001	0.8427	7.05	1.06	0.750			
0.2510	16065.49	3.9970	3.9970	0.8417	7.04	1.05	0.750			
0.2536	16227.20	3.9940	3.9940	0.8476	7.03	1.04	0.750			
0.2561	16393.10	3.9910	3.9910	0.8452	7.02	1.03	0.750			
0.2587	16554.14	3.9880	3.9881	0.8540	7.02	1.03	0.750			
0.2613	16720.83	3.9850	3.9851	0.8616	7.02	1.03	0.750			
0.2638	16883.58	3.9820	3.9820	0.8650	7.01	1.02	0.750			
0.2664	17049.95	3.9790	3.9790	0.8692	7.00	1.01	0.750			
0.2690	17218.11	3.9760	3.9761	0.8750	7.00	1.01	0.750			
0.2717	17387.83	3.9730	3.9731	0.8803	6.99	1.00	0.750			
0.2744	17559.90	3.9700	3.9700	0.8914	6.98	0.99	0.750			
0.2770	17727.55	3.9670	3.9670	0.8863	6.97	0.98	0.750			
0.2797	17899.29	3.9640	3.9640	0.8883	6.96	0.97	0.750			
0.2823	18069.37	3.9610	3.9610	0.8913	6.95	0.96	0.750			
0.2850	18240.93	3.9580	3.9581	0.9014	6.95	0.96	0.750			
0.2877	18413.63	3.9550	3.9551	0.9068	6.94	0.95	0.750			
0.2904	18588.66	3.9520	3.9519	0.9114	6.93	0.94	0.750			
0.2932	18763.41	3.9490	3.9490	0.9169	6.92	0.93	0.750			
0.2959	18940.40	3.9460	3.9460	0.9252	6.91	0.92	0.750			
0.2988	19120.10	3.9430	3.9431	0.9300	6.90	0.91	0.750			
0.3016	19299.63	3.9400	3.9399	0.9325	6.89	0.90	0.750			
0.3044	19478.71	3.9370	3.9371	0.9320	6.88	0.89	0.750			
0.3072	19658.55	3.9340	3.9341	0.9407	6.87	0.88	0.750			
0.3100	19837.59	3.9310	3.9309	0.9522	6.87	0.88	0.750			
0.3128	20021.63	3.9280	3.9280	0.9557	6.86	0.87	0.750			
0.3157	20205.17	3.9250	3.9250	0.9620	6.85	0.86	0.750			
0.3186	20390.11	3.9220	3.9221	0.9677	6.84	0.85	0.750			
0.3215	20576.55	3.9190	3.9191	0.9807	6.83	0.84	0.750			
0.3245	20766.15	3.9160	3.9160	0.9883	6.83	0.84	0.750			
0.3274	20955.41	3.9130	3.9128	0.9958	6.82	0.83	0.750			
0.3304	21145.98	3.9100	3.9101	1.0042	6.81	0.82	0.750			
0.3335	21342.40	3.9070	3.9070	1.0205	6.80	0.81	0.750			
0.3366	21541.11	3.9040	3.9040	1.0272	6.78	0.79	0.750			
0.3396	21737.16	3.9010	3.9006	1.0300	6.77	0.78	0.750			
0.3427	21935.33	3.8980	3.8981	1.0396	6.76	0.77	0.750			
0.3459	22138.02	3.8950	3.8949	1.0527	6.75	0.76	0.750			
0.3491	22340.30	3.8920	3.8920	1.0613	6.74	0.75	0.750			
0.3523	22547.20	3.8890	3.8889	1.0653	6.73	0.74	0.750			
0.3555	22750.61	3.8860	3.8861	1.0794	6.72	0.73	0.750			
0.3587	22958.46	3.8830	3.8829	1.0937	6.71	0.72	0.750			
0.3620	23167.74	3.8800	3.8801	1.1093	6.71	0.72	0.750			
0.3654	23382.85	3.8770	3.8768	1.1160	6.70	0.71	0.750			
0.3687	23594.11	3.8740	3.8741	1.1490	6.68	0.69	0.750			
0.3721	23814.28	3.8710	3.8712	1.1864	6.67	0.68	0.750			
0.3758	24048.42	3.8680	3.8679	1.2201	6.66	0.67	0.750			
0.3795	24289.01	3.8650	3.8646	1.2343	6.65	0.66	0.750			
0.3833	24532.94	3.8620	3.8623	1.2583	6.64	0.65	0.750			
0.3872	24779.48	3.8590	3.8591	1.2666	6.63	0.64	0.750			
0.3911	25029.23	3.8560	3.8559	1.2772	6.63	0.64	0.750			
0.3948	25266.57	3.8530	3.8529	1.2750	6.61	0.62	0.750			
0.3986	25507.73	3.8500	3.8500	1.2683	6.60	0.61	0.750			
0.4023	25750.30	3.8470	3.8469	1.3018	6.59	0.60	0.750			
0.4063	26000.04	3.8440	3.8441	1.3438	6.58	0.59	0.750			
0.4104	26263.78	3.8410	3.8410	1.3701	6.56	0.57	0.750			
0.4145	26530.03	3.8380	3.8378	1.4084	6.55	0.56	0.750	0.414	0.968	
0.4188	26805.74	3.8350	3.8353	1.4388	6.54	0.55	0.750			
0.4232	27087.29	3.8320	3.8321	1.4756	6.52	0.53	0.750			
0.4277	27375.39	3.8290	3.8289	1.4838	6.51	0.52	0.750			
0.4321	27653.82	3.8260	3.8261	1.4764	6.49	0.50	0.750			
0.4366	27940.97	3.8230	3.8231	1.5102	6.48	0.49	0.750			
0.4411	28232.63	3.8200	3.8202	1.5391	6.47	0.48	0.750			
0.4458	28529.59	3.8170	3.8169	1.5455	6.45	0.46	0.750			
0.4504	28826.99	3.8140	3.8141	1.5820	6.44	0.45	0.750			
0.4553	29137.77	3.8110	3.8107	1.6235	6.42	0.43	0.750			
0.4601	29444.22	3.8080	3.8081	1.6587	6.40	0.41	0.750			
0.4651	29768.87	3.8050	3.8050	1.6742	6.39	0.40	0.750			
0.4702	30095.52	3.8020	3.8020	1.7377	6.37	0.38	0.750			
0.4754	30426.85	3.7990	3.7992	1.7677	6.36	0.37	0.750			
0.4808	30770.51	3.7960	3.7956	1.8067	6.34	0.35	0.750			
0.4863	31124.01	3.7930	3.7932	1.8266	6.32	0.33	0.750			
0.4919	31479.21	3.7900	3.7899	1.8495	6.30	0.31	0.750			
0.4975	31842.19	3.7870	3.7870	1.8806	6.28	0.29	0.750			
0.5031	32196.51	3.7840	3.7838	1.8747	6.27	0.28	0.750			
0.5088	32562.82	3.7810	3.7808	1.9232	6.25	0.26	0.750			
0.5147	32937.74	3.7780	3.7780	1.9406	6.23	0.24	0.750			
0.5204	33305.40	3.7750	3.7750	1.9440	6.21	0.22	0.750			
0.5262	33678.79	3.7720	3.7720	2.0038	6.19	0.20	0.750			
0.5324	34076.68	3.7690	3.7689	2.0425	6.18	0.19	0.750			
0.5386	34467.66	3.7660	3.7659	2.0425	6.17	0.18	0.750			
0.5448	34866.42	3.7630	3.7630	2.0922	6.15	0.16	0.750			
0.5509	35257.81	3.7600	3.7600	2.1094	6.13	0.14	0.750			
0.5573	35667.87	3.7570	3.7569	2.1029	6.11	0.12	0.750			
0.5638	36084.36	3.7540	3.7539	2.1632	6.09	0.10	0.750			
0.5703	36499.78	3.7510	3.7509	2.2211	6.07	0.08	0.750			
0.5770	36929.53	3.7480	3.7480	2.2397	6.05	0.06	0.750			
0.5838	37365.02	3.7450	3.7450	2.2959	6.04	0.05	0.750			
0.5909	37818.32	3.7420	3.7420	2.3775	6.03	0.04	0.750			
0.5981	38278.56	3.7390	3.7390	2.4441	6.00	0.01	0.750			
0.6056	38759.16	3.7360	3.7362	2.5290	5.98	-0.01	0.750			
0.6135	39265.10	3.7330	3.7329	2.5983	5.97	-0.02	0.750			
0.6211	39752.16	3.7300	3.7300	2.5678	5.95	-0.04	0.750			
0.6289	40248.02	3.7270	3.7270	2.5403	5.94	-0.05	0.750			
0.6365	40735.53	3.7240	3.7241	2.4989	5.93	-0.06	0.750			
0.6439	41210.73	3.7210	3.7211	2.4380	5.92	-0.07	0.750			
0.6513	41683.25	3.7180	3.7180	2.3328	5.91	-0.08	0.750			
0.6582	42126.13	3.7150	3.7149	2.1771	5.91	-0.08	0.750			
0.6646	42531.77	3.7120	3.7120	1.9921	5.90	-0.09	0.750			
0.6701	42886.66	3.7090	3.7093	1.7690	5.90	-0.09	0.750			
0.6751	43206.19	3.7060	3.7061	1.5806	5.90	-0.09	0.750			
0.6795	43487.37	3.7030	3.7032	1.4069	5.90	-0.09	0.750			
0.6833	43732.01	3.7000	3.7000	1.2608	5.90	-0.09	0.750			
0.6868	43956.92	3.6970	3.6970	1.1426	5.91	-0.08	0.750			
0.6899	44154.64	3.6940	3.6941	1.0462	5.91	-0.08	0.750			
0.6928	44341.18	3.6910	3.6910	0.9612	5.92	-0.07	0.750			
0.6956	44518.66	3.6880	3.6880	0.9068	5.92	-0.07	0.750			
0.6982	44684.96	3.6850	3.6850	0.8646	5.92	-0.07	0.750			
0.7007	44843.84	3.6820	3.6821	0.8240	5.93	-0.06	0.750			
0.7031	44997.95	3.6790	3.6789	0.7921	5.93	-0.06	0.750			
0.7054	45147.79	3.6760	3.6759	0.7596	5.94	-0.05	0.750			
0.7077	45293.09	3.6730	3.6730	0.7165	5.94	-0.05	0.750			
0.7098	45427.53	3.6700	3.6701	0.6801	5.94	-0.05	0.750			
0.7118	45555.44	3.6670	3.6671	0.6372	5.95	-0.04	0.750			
0.7136	45672.48	3.6640	3.6640	0.5970	5.95	-0.04	0.750			
0.7153	45781.10	3.6610	3.6610	0.5548	5.95	-0.04	0.750			
0.7169	45883.90	3.6580	3.6581	0.5155	5.96	-0.03	0.750			
0.7184	45979.95	3.6550	3.6550	0.4795	5.96	-0.03	0.750			
0.7198	46068.79	3.6520	3.6520	0.4436	5.97	-0.02	0.750			
0.7211	46149.34	3.6490	3.6489	0.4046	5.97	-0.02	0.750			
0.7222	46223.50	3.6460	3.6459	0.3707	5.97	-0.02	0.750			
0.7233	46291.64	3.6430	3.6430	0.3290	5.98	-0.01	0.750			
0.7242	46350.98	3.6400	3.6400	0.2966	5.98	-0.01	0.750			
0.7251	46404.84	3.6370	3.6372	0.2612	5.98	-0.01	0.750			
0.7258	46450.99	3.6340	3.6343	0.2244	5.99	-0.00	0.750			
0.7264	46490.27	3.6310	3.6291	0.1883	5.99	-0.00	0.750			
0.7269	46522.42	3.6280	3.6287	0.1525	5.99	-0.00	0.750			
0.7273	46548.34	3.6250	3.6258	0.1189	5.99	0.00	0.750			
0.7276	46567.98	3.6220	3.6234	0.0857	5.99	0.00	0.750			
0.7279	46588.72	3.6160	3.6174	-0.0358	5.99	0.00	0.750			
0.7280	46589.90	3.6190	3.6147	0.0234	5.99	0.00	0.749			
