Ah_balance (normalized)	Ah_balance (mAh)	Voltage - fit (V)	Voltage -  interpolate (V)	dQ/dV (1/V)	Temperature (°C)	Temperature - diff (°C)	Current (C)	R_DC 0ms (mOhm)	R_DC 50ms (mOhm)	R_DC 50 ms PEC (mOhm)
0.0941	6020.57	4.0060	4.0057	-0.0778	5.99	0.03	-0.750			
0.0944	6039.39	4.0030	4.0027	-0.1106	5.98	0.02	-0.750			
0.0948	6064.01	4.0000	3.9999	-0.1386	5.98	0.02	-0.750			
0.0952	6093.28	3.9970	3.9971	-0.1650	5.98	0.02	-0.750			
0.0957	6127.90	3.9940	3.9939	-0.1894	5.98	0.02	-0.750			
0.0964	6166.64	3.9910	3.9911	-0.2146	5.98	0.02	-0.750			
0.0970	6211.13	3.9880	3.9880	-0.2381	5.98	0.02	-0.750			
0.0978	6258.98	3.9850	3.9850	-0.2606	5.98	0.02	-0.750			
0.0986	6311.16	3.9820	3.9820	-0.2840	5.97	0.01	-0.750			
0.0995	6368.00	3.9790	3.9790	-0.3061	5.97	0.01	-0.750			
0.1004	6428.27	3.9760	3.9760	-0.3312	5.97	0.01	-0.750			
0.1015	6494.20	3.9730	3.9731	-0.3557	5.97	0.01	-0.750			
0.1026	6564.63	3.9700	3.9700	-0.3797	5.96	0.00	-0.750			
0.1038	6640.35	3.9670	3.9669	-0.4052	5.96	0.00	-0.750			
0.1050	6720.88	3.9640	3.9641	-0.4292	5.96	-0.00	-0.750			
0.1063	6805.56	3.9610	3.9610	-0.4535	5.96	-0.00	-0.750			
0.1077	6895.62	3.9580	3.9580	-0.4757	5.95	-0.01	-0.750			
0.1092	6988.14	3.9550	3.9550	-0.4958	5.95	-0.01	-0.750			
0.1107	7085.49	3.9520	3.9520	-0.5224	5.95	-0.01	-0.750			
0.1123	7187.70	3.9490	3.9489	-0.5453	5.94	-0.02	-0.750			
0.1140	7294.87	3.9460	3.9460	-0.5701	5.94	-0.02	-0.750			
0.1157	7407.46	3.9430	3.9430	-0.5937	5.93	-0.03	-0.750			
0.1176	7525.44	3.9400	3.9401	-0.6088	5.93	-0.03	-0.750			
0.1195	7646.01	3.9370	3.9371	-0.6179	5.93	-0.03	-0.750			
0.1214	7767.01	3.9340	3.9340	-0.6245	5.92	-0.04	-0.750			
0.1232	7885.94	3.9310	3.9311	-0.6350	5.92	-0.04	-0.750			
0.1251	8007.48	3.9280	3.9279	-0.6426	5.92	-0.04	-0.750			
0.1271	8131.33	3.9250	3.9249	-0.6480	5.91	-0.05	-0.750			
0.1290	8256.75	3.9220	3.9221	-0.6574	5.91	-0.05	-0.750			
0.1310	8383.95	3.9190	3.9191	-0.6714	5.91	-0.05	-0.750			
0.1330	8514.63	3.9160	3.9160	-0.6861	5.91	-0.05	-0.750			
0.1351	8646.89	3.9130	3.9129	-0.6969	5.91	-0.05	-0.750			
0.1372	8780.53	3.9100	3.9100	-0.7046	5.91	-0.05	-0.750			
0.1394	8920.30	3.9070	3.9070	-0.7145	5.91	-0.05	-0.750			
0.1415	9059.19	3.9040	3.9041	-0.7210	5.91	-0.05	-0.750			
0.1437	9198.52	3.9010	3.9010	-0.7246	5.91	-0.05	-0.750			
0.1459	9336.94	3.8980	3.8980	-0.7243	5.91	-0.05	-0.750			
0.1480	9474.68	3.8950	3.8950	-0.7258	5.91	-0.05	-0.750			
0.1502	9614.37	3.8920	3.8921	-0.7308	5.92	-0.04	-0.750			
0.1524	9755.83	3.8890	3.8889	-0.7380	5.92	-0.04	-0.750			
0.1547	9898.49	3.8860	3.8859	-0.7425	5.92	-0.04	-0.750			
0.1569	10040.26	3.8830	3.8831	-0.7479	5.92	-0.04	-0.750			
0.1591	10184.59	3.8800	3.8801	-0.7550	5.92	-0.04	-0.750			
0.1614	10331.99	3.8770	3.8770	-0.7576	5.92	-0.04	-0.750			
0.1637	10478.18	3.8740	3.8740	-0.7569	5.92	-0.04	-0.750			
0.1660	10623.47	3.8710	3.8710	-0.7604	5.92	-0.04	-0.750			
0.1683	10769.17	3.8680	3.8680	-0.7617	5.92	-0.04	-0.750			
0.1706	10915.66	3.8650	3.8649	-0.7633	5.93	-0.03	-0.750			
0.1728	11061.73	3.8620	3.8620	-0.7632	5.93	-0.03	-0.750			
0.1751	11208.70	3.8590	3.8590	-0.7658	5.94	-0.02	-0.750			
0.1774	11356.27	3.8560	3.8560	-0.7700	5.94	-0.02	-0.750			
0.1798	11504.54	3.8530	3.8532	-0.7716	5.95	-0.01	-0.750			
0.1821	11652.03	3.8500	3.8500	-0.7715	5.95	-0.01	-0.750			
0.1844	11801.13	3.8470	3.8469	-0.7738	5.96	-0.00	-0.750			
0.1867	11950.19	3.8440	3.8440	-0.7754	5.96	0.00	-0.750			
0.1891	12099.63	3.8410	3.8410	-0.7746	5.97	0.01	-0.750			
0.1914	12247.89	3.8380	3.8379	-0.7729	5.97	0.01	-0.750			
0.1937	12396.14	3.8350	3.8350	-0.7709	5.97	0.01	-0.750			
0.1960	12542.94	3.8320	3.8320	-0.7766	5.98	0.02	-0.750			
0.1983	12692.56	3.8290	3.8290	-0.7753	5.98	0.02	-0.750			
0.2006	12841.60	3.8260	3.8260	-0.7766	5.99	0.03	-0.750			
0.2030	12992.15	3.8230	3.8229	-0.7783	6.00	0.04	-0.750			
0.2053	13142.00	3.8200	3.8202	-0.7793	6.00	0.04	-0.750			
0.2077	13290.30	3.8170	3.8170	-0.7820	6.01	0.05	-0.750			
0.2100	13440.47	3.8140	3.8140	-0.7839	6.01	0.05	-0.750			
0.2124	13590.53	3.8110	3.8110	-0.7810	6.02	0.06	-0.750			
0.2147	13742.65	3.8080	3.8080	-0.7875	6.02	0.06	-0.750			
0.2171	13893.94	3.8050	3.8052	-0.7889	6.03	0.07	-0.750			
0.2195	14045.76	3.8020	3.8020	-0.7886	6.03	0.07	-0.750			
0.2218	14196.82	3.7990	3.7990	-0.7895	6.04	0.08	-0.750			
0.2242	14348.68	3.7960	3.7960	-0.7874	6.04	0.08	-0.750			
0.2266	14501.23	3.7930	3.7930	-0.7872	6.05	0.09	-0.750			
0.2289	14651.78	3.7900	3.7901	-0.7869	6.05	0.09	-0.750			
0.2313	14802.39	3.7870	3.7870	-0.7855	6.05	0.09	-0.750			
0.2336	14952.25	3.7840	3.7840	-0.7874	6.06	0.10	-0.750			
0.2360	15103.29	3.7810	3.7809	-0.7876	6.06	0.10	-0.750			
0.2383	15253.84	3.7780	3.7781	-0.7905	6.06	0.10	-0.750			
0.2408	15408.27	3.7750	3.7749	-0.7934	6.07	0.11	-0.750			
0.2431	15560.34	3.7720	3.7721	-0.7923	6.07	0.11	-0.750			
0.2455	15710.80	3.7690	3.7690	-0.7936	6.08	0.12	-0.750			
0.2479	15864.51	3.7660	3.7660	-0.7934	6.08	0.12	-0.750			
0.2503	16016.18	3.7630	3.7630	-0.7932	6.09	0.13	-0.750			
0.2526	16169.54	3.7600	3.7599	-0.7953	6.10	0.14	-0.750			
0.2550	16322.83	3.7570	3.7571	-0.7927	6.10	0.14	-0.750			
0.2574	16476.02	3.7540	3.7540	-0.7912	6.10	0.14	-0.750			
0.2598	16626.16	3.7510	3.7510	-0.7910	6.11	0.15	-0.750			
0.2621	16777.15	3.7480	3.7480	-0.7926	6.11	0.15	-0.750			
0.2645	16929.08	3.7450	3.7450	-0.7966	6.12	0.16	-0.750			
0.2669	17080.98	3.7420	3.7420	-0.7996	6.12	0.16	-0.750			
0.2693	17236.03	3.7390	3.7391	-0.8059	6.12	0.16	-0.750			
0.2717	17392.00	3.7360	3.7359	-0.8158	6.13	0.17	-0.750			
0.2742	17549.58	3.7330	3.7330	-0.8218	6.13	0.17	-0.750			
0.2767	17707.95	3.7300	3.7300	-0.8239	6.14	0.18	-0.750			
0.2792	17866.96	3.7270	3.7271	-0.8293	6.14	0.18	-0.750			
0.2817	18027.21	3.7240	3.7239	-0.8323	6.14	0.18	-0.750			
0.2842	18186.62	3.7210	3.7210	-0.8355	6.15	0.19	-0.750			
0.2867	18346.80	3.7180	3.7180	-0.8384	6.16	0.20	-0.750			
0.2892	18506.62	3.7150	3.7150	-0.8428	6.16	0.20	-0.750			
0.2917	18671.05	3.7120	3.7121	-0.8507	6.17	0.21	-0.750			
0.2943	18834.41	3.7090	3.7089	-0.8572	6.17	0.21	-0.750			
0.2969	18998.47	3.7060	3.7061	-0.8642	6.18	0.22	-0.750			
0.2995	19165.32	3.7030	3.7030	-0.8709	6.18	0.22	-0.750			
0.3021	19332.76	3.7000	3.6999	-0.8777	6.19	0.23	-0.750			
0.3047	19502.34	3.6970	3.6972	-0.8845	6.19	0.23	-0.750			
0.3074	19671.03	3.6940	3.6940	-0.8999	6.19	0.23	-0.750			
0.3101	19846.23	3.6910	3.6910	-0.9094	6.20	0.24	-0.750			
0.3129	20022.65	3.6880	3.6878	-0.9159	6.20	0.24	-0.750			
0.3156	20198.48	3.6850	3.6851	-0.9245	6.21	0.25	-0.750			
0.3184	20377.33	3.6820	3.6820	-0.9368	6.21	0.25	-0.750			
0.3212	20558.31	3.6790	3.6790	-0.9478	6.22	0.26	-0.750			
0.3241	20741.22	3.6760	3.6759	-0.9551	6.23	0.27	-0.750			
0.3269	20922.32	3.6730	3.6731	-0.9595	6.24	0.28	-0.750			
0.3298	21108.90	3.6700	3.6701	-0.9792	6.25	0.29	-0.750			
0.3328	21298.66	3.6670	3.6669	-0.9911	6.26	0.30	-0.750			
0.3358	21489.10	3.6640	3.6640	-1.0012	6.27	0.31	-0.750			
0.3388	21680.87	3.6610	3.6610	-1.0121	6.28	0.32	-0.750			
0.3419	21878.93	3.6580	3.6581	-1.0285	6.29	0.33	-0.750			
0.3450	22078.02	3.6550	3.6550	-1.0430	6.30	0.34	-0.750			
0.3481	22281.38	3.6520	3.6519	-1.0463	6.31	0.35	-0.750			
0.3513	22482.79	3.6490	3.6490	-1.0490	6.32	0.36	-0.750			
0.3544	22680.45	3.6460	3.6461	-1.0693	6.33	0.37	-0.750			
0.3576	22886.80	3.6430	3.6430	-1.0843	6.33	0.37	-0.750			
0.3609	23096.70	3.6400	3.6398	-1.0958	6.34	0.38	-0.750			
0.3642	23307.20	3.6370	3.6369	-1.1110	6.35	0.39	-0.750			
0.3675	23522.97	3.6340	3.6343	-1.1380	6.35	0.39	-0.750			
0.3710	23745.04	3.6310	3.6309	-1.1486	6.36	0.40	-0.750			
0.3745	23967.78	3.6280	3.6279	-1.1562	6.37	0.41	-0.750			
0.3780	24189.20	3.6250	3.6250	-1.1584	6.38	0.42	-0.750			
0.3815	24413.62	3.6220	3.6218	-1.1801	6.38	0.42	-0.750			
0.3850	24640.49	3.6190	3.6190	-1.1954	6.39	0.43	-0.750			
0.3886	24869.43	3.6160	3.6160	-1.2062	6.40	0.44	-0.750			
0.3922	25101.40	3.6130	3.6133	-1.2212	6.41	0.45	-0.750			
0.3959	25338.92	3.6100	3.6100	-1.2573	6.41	0.45	-0.750			
0.3998	25584.83	3.6070	3.6070	-1.2615	6.42	0.46	-0.750			
0.4036	25828.56	3.6040	3.6039	-1.2726	6.42	0.46	-0.750			
0.4074	26075.28	3.6010	3.6010	-1.2862	6.42	0.46	-0.750			
0.4113	26322.09	3.5980	3.5980	-1.2931	6.43	0.47	-0.750	0.457	1.107	
0.4151	26567.38	3.5950	3.5949	-1.3113	6.44	0.48	-0.750			
0.4191	26821.29	3.5920	3.5920	-1.3168	6.44	0.48	-0.750			
0.4230	27072.55	3.5890	3.5890	-1.3266	6.45	0.49	-0.750			
0.4271	27332.44	3.5860	3.5858	-1.3619	6.46	0.50	-0.750			
0.4312	27595.63	3.5830	3.5830	-1.3690	6.47	0.51	-0.750			
0.4353	27860.85	3.5800	3.5799	-1.3826	6.48	0.52	-0.750			
0.4395	28126.11	3.5770	3.5770	-1.3988	6.49	0.53	-0.750			
0.4436	28393.06	3.5740	3.5740	-1.4090	6.49	0.53	-0.750			
0.4480	28671.95	3.5710	3.5710	-1.4362	6.50	0.54	-0.750			
0.4523	28946.80	3.5680	3.5679	-1.4549	6.51	0.55	-0.750			
0.4567	29228.65	3.5650	3.5651	-1.4671	6.51	0.55	-0.750			
0.4612	29515.34	3.5620	3.5619	-1.4919	6.52	0.56	-0.750			
0.4657	29802.92	3.5590	3.5590	-1.5116	6.52	0.56	-0.750			
0.4702	30093.54	3.5560	3.5559	-1.5208	6.52	0.56	-0.750			
0.4748	30388.79	3.5530	3.5529	-1.5424	6.53	0.57	-0.750			
0.4795	30688.28	3.5500	3.5502	-1.5559	6.53	0.57	-0.750			
0.4841	30984.32	3.5470	3.5471	-1.5748	6.54	0.58	-0.750			
0.4890	31295.04	3.5440	3.5439	-1.5908	6.55	0.59	-0.750			
0.4938	31601.12	3.5410	3.5410	-1.5858	6.55	0.59	-0.750			
0.4986	31908.25	3.5380	3.5379	-1.6025	6.56	0.60	-0.750			
0.5034	32214.89	3.5350	3.5350	-1.6098	6.57	0.61	-0.750			
0.5082	32524.05	3.5320	3.5318	-1.6281	6.57	0.61	-0.750			
0.5131	32835.82	3.5290	3.5292	-1.6391	6.57	0.61	-0.750			
0.5179	33147.43	3.5260	3.5261	-1.6540	6.57	0.61	-0.750			
0.5230	33474.91	3.5230	3.5231	-1.6713	6.58	0.62	-0.750			
0.5281	33797.29	3.5200	3.5200	-1.6692	6.59	0.63	-0.750			
0.5331	34119.05	3.5170	3.5169	-1.6740	6.60	0.64	-0.750			
0.5381	34437.60	3.5140	3.5137	-1.6770	6.60	0.64	-0.750			
0.5431	34758.69	3.5110	3.5110	-1.6655	6.61	0.65	-0.750			
0.5480	35072.76	3.5080	3.5082	-1.6636	6.61	0.65	-0.750			
0.5530	35391.48	3.5050	3.5048	-1.6544	6.60	0.64	-0.750			
0.5580	35710.46	3.5020	3.5019	-1.6651	6.61	0.65	-0.750			
0.5630	36033.96	3.4990	3.4989	-1.6635	6.62	0.66	-0.750			
0.5680	36353.95	3.4960	3.4960	-1.6612	6.63	0.67	-0.750			
0.5730	36672.99	3.4930	3.4931	-1.6462	6.63	0.67	-0.750			
0.5779	36986.70	3.4900	3.4898	-1.6299	6.63	0.67	-0.750			
0.5828	37298.27	3.4870	3.4869	-1.6165	6.64	0.68	-0.750			
0.5876	37608.98	3.4840	3.4839	-1.6268	6.64	0.68	-0.750			
0.5925	37922.78	3.4810	3.4811	-1.6145	6.65	0.69	-0.750			
0.5974	38231.71	3.4780	3.4781	-1.5958	6.66	0.70	-0.750			
0.6021	38535.51	3.4750	3.4751	-1.5887	6.67	0.71	-0.750			
0.6069	38843.62	3.4720	3.4720	-1.5767	6.67	0.71	-0.750			
0.6117	39146.13	3.4690	3.4688	-1.5728	6.68	0.72	-0.750			
0.6163	39444.81	3.4660	3.4661	-1.5503	6.69	0.73	-0.750			
0.6210	39744.64	3.4630	3.4629	-1.5388	6.70	0.74	-0.750			
0.6256	40040.17	3.4600	3.4602	-1.5167	6.72	0.76	-0.750			
0.6302	40329.90	3.4570	3.4571	-1.4912	6.73	0.77	-0.750			
0.6345	40610.62	3.4540	3.4541	-1.4610	6.74	0.78	-0.750			
0.6389	40890.54	3.4510	3.4509	-1.4391	6.74	0.78	-0.750			
0.6432	41163.28	3.4480	3.4480	-1.4234	6.75	0.79	-0.750			
0.6474	41436.04	3.4450	3.4450	-1.4034	6.77	0.81	-0.750			
0.6516	41701.15	3.4420	3.4420	-1.3754	6.79	0.83	-0.750			
0.6557	41966.36	3.4390	3.4391	-1.3586	6.80	0.84	-0.750			
0.6598	42228.24	3.4360	3.4360	-1.3322	6.81	0.85	-0.750			
0.6638	42481.79	3.4330	3.4329	-1.2912	6.82	0.86	-0.750			
0.6676	42725.65	3.4300	3.4302	-1.2564	6.83	0.87	-0.750			
0.6713	42961.17	3.4270	3.4270	-1.2245	6.85	0.89	-0.750			
0.6749	43191.77	3.4240	3.4240	-1.1944	6.86	0.90	-0.750			
0.6784	43416.06	3.4210	3.4209	-1.1646	6.88	0.92	-0.750			
0.6819	43638.97	3.4180	3.4180	-1.1597	6.89	0.93	-0.750			
0.6853	43861.23	3.4150	3.4150	-1.1352	6.90	0.94	-0.750			
0.6888	44080.41	3.4120	3.4119	-1.1141	6.92	0.96	-0.750			
0.6920	44290.54	3.4090	3.4095	-1.0803	6.93	0.97	-0.750			
0.6952	44495.36	3.4060	3.4060	-1.0557	6.94	0.98	-0.750			
0.6984	44696.26	3.4030	3.4029	-1.0285	6.95	0.99	-0.750			
0.7014	44889.52	3.4000	3.3999	-0.9964	6.96	1.00	-0.750			
0.7043	45077.79	3.3970	3.3971	-0.9748	6.97	1.01	-0.750			
0.7072	45260.45	3.3940	3.3941	-0.9552	6.98	1.02	-0.750			
0.7101	45443.80	3.3910	3.3908	-0.9278	7.00	1.04	-0.750			
0.7128	45619.86	3.3880	3.3879	-0.9005	7.01	1.05	-0.750			
0.7155	45789.02	3.3850	3.3850	-0.8727	7.02	1.06	-0.750			
0.7181	45956.11	3.3820	3.3821	-0.8507	7.03	1.07	-0.750			
0.7206	46117.18	3.3790	3.3788	-0.8236	7.05	1.09	-0.750			
0.7230	46270.45	3.3760	3.3760	-0.7950	7.06	1.10	-0.750			
0.7253	46417.84	3.3730	3.3730	-0.7870	7.07	1.11	-0.750			
0.7276	46567.65	3.3700	3.3700	-0.7571	7.08	1.12	-0.750			
