Ah_balance (normalized)	Ah_balance (mAh)	Voltage - fit (V)	Voltage -  interpolate (V)	dQ/dV (1/V)	Temperature (°C)	Temperature - diff (°C)	Current (C)	R_DC 0ms (mOhm)	R_DC 50ms (mOhm)	R_DC 50 ms PEC (mOhm)
0.0960	6146.25	4.0040	4.0036	-0.0795	5.99	0.00	-0.750			
0.0963	6165.20	4.0010	4.0008	-0.1109	5.99	0.00	-0.750			
0.0967	6189.09	3.9980	3.9980	-0.1380	5.99	-0.00	-0.750			
0.0972	6218.57	3.9950	3.9949	-0.1632	5.99	-0.00	-0.750			
0.0977	6252.63	3.9920	3.9921	-0.1871	5.99	-0.00	-0.750			
0.0983	6291.49	3.9890	3.9891	-0.2127	5.99	-0.00	-0.750			
0.0990	6334.70	3.9860	3.9860	-0.2355	5.99	-0.00	-0.750			
0.0997	6381.99	3.9830	3.9830	-0.2594	5.98	-0.01	-0.750			
0.1005	6433.60	3.9800	3.9800	-0.2820	5.98	-0.01	-0.750			
0.1014	6489.93	3.9770	3.9771	-0.3068	5.98	-0.01	-0.750			
0.1024	6551.59	3.9740	3.9740	-0.3300	5.98	-0.01	-0.750			
0.1034	6616.98	3.9710	3.9709	-0.3541	5.98	-0.01	-0.750			
0.1045	6687.07	3.9680	3.9681	-0.3777	5.98	-0.01	-0.750			
0.1057	6762.25	3.9650	3.9650	-0.4019	5.98	-0.01	-0.750			
0.1069	6842.19	3.9620	3.9619	-0.4237	5.97	-0.02	-0.750			
0.1082	6926.12	3.9590	3.9589	-0.4468	5.97	-0.02	-0.750			
0.1096	7013.75	3.9560	3.9561	-0.4680	5.97	-0.02	-0.750			
0.1110	7105.49	3.9530	3.9530	-0.4925	5.97	-0.02	-0.750			
0.1125	7201.80	3.9500	3.9501	-0.5131	5.97	-0.02	-0.750			
0.1141	7303.42	3.9470	3.9469	-0.5324	5.97	-0.02	-0.750			
0.1158	7408.60	3.9440	3.9440	-0.5488	5.96	-0.03	-0.750			
0.1174	7516.36	3.9410	3.9411	-0.5681	5.96	-0.03	-0.750			
0.1192	7626.76	3.9380	3.9380	-0.5817	5.96	-0.03	-0.750			
0.1209	7740.03	3.9350	3.9350	-0.5959	5.96	-0.03	-0.750			
0.1228	7856.07	3.9320	3.9319	-0.6055	5.96	-0.03	-0.750			
0.1246	7974.35	3.9290	3.9291	-0.6175	5.97	-0.02	-0.750			
0.1265	8093.28	3.9260	3.9260	-0.6323	5.97	-0.02	-0.750			
0.1284	8216.00	3.9230	3.9230	-0.6434	5.97	-0.02	-0.750			
0.1303	8340.83	3.9200	3.9199	-0.6501	5.97	-0.02	-0.750			
0.1323	8466.81	3.9170	3.9170	-0.6634	5.98	-0.01	-0.750			
0.1343	8595.79	3.9140	3.9141	-0.6734	5.98	-0.01	-0.750			
0.1364	8726.53	3.9110	3.9111	-0.6837	5.98	-0.01	-0.750			
0.1384	8858.80	3.9080	3.9079	-0.6901	5.98	-0.01	-0.750			
0.1405	8991.05	3.9050	3.9050	-0.6962	5.99	-0.00	-0.750			
0.1426	9126.98	3.9020	3.9020	-0.7024	5.99	-0.00	-0.750			
0.1447	9262.74	3.8990	3.8990	-0.7044	5.99	-0.00	-0.750			
0.1469	9398.75	3.8960	3.8961	-0.7014	5.99	0.00	-0.750			
0.1490	9533.06	3.8930	3.8931	-0.7055	6.00	0.01	-0.750			
0.1510	9666.03	3.8900	3.8900	-0.7151	6.00	0.01	-0.750			
0.1532	9805.28	3.8870	3.8867	-0.7196	6.01	0.02	-0.750			
0.1554	9944.59	3.8840	3.8839	-0.7224	6.02	0.03	-0.750			
0.1576	10084.50	3.8810	3.8811	-0.7262	6.03	0.04	-0.750			
0.1598	10226.10	3.8780	3.8781	-0.7328	6.03	0.04	-0.750			
0.1620	10367.07	3.8750	3.8749	-0.7355	6.04	0.05	-0.750			
0.1642	10505.82	3.8720	3.8719	-0.7315	6.04	0.05	-0.750			
0.1663	10645.49	3.8690	3.8691	-0.7355	6.04	0.05	-0.750			
0.1686	10789.67	3.8660	3.8660	-0.7394	6.05	0.06	-0.750			
0.1708	10933.12	3.8630	3.8630	-0.7429	6.05	0.06	-0.750			
0.1730	11074.88	3.8600	3.8599	-0.7423	6.06	0.07	-0.750			
0.1753	11216.01	3.8570	3.8570	-0.7413	6.06	0.07	-0.750			
0.1775	11358.71	3.8540	3.8540	-0.7455	6.07	0.08	-0.750			
0.1797	11502.32	3.8510	3.8510	-0.7453	6.08	0.09	-0.750			
0.1820	11646.54	3.8480	3.8480	-0.7464	6.08	0.09	-0.750			
0.1842	11790.42	3.8450	3.8451	-0.7487	6.09	0.10	-0.750			
0.1865	11933.73	3.8420	3.8419	-0.7473	6.10	0.11	-0.750			
0.1887	12076.83	3.8390	3.8390	-0.7493	6.11	0.12	-0.750			
0.1909	12220.64	3.8360	3.8360	-0.7484	6.11	0.12	-0.750			
0.1932	12366.02	3.8330	3.8330	-0.7497	6.12	0.13	-0.750			
0.1955	12509.30	3.8300	3.8299	-0.7517	6.13	0.14	-0.750			
0.1977	12653.49	3.8270	3.8270	-0.7506	6.13	0.14	-0.750			
0.2000	12796.87	3.8240	3.8239	-0.7525	6.14	0.15	-0.750			
0.2022	12940.94	3.8210	3.8210	-0.7549	6.15	0.16	-0.750			
0.2045	13084.99	3.8180	3.8180	-0.7562	6.16	0.17	-0.750			
0.2067	13231.81	3.8150	3.8150	-0.7623	6.16	0.17	-0.750			
0.2091	13379.85	3.8120	3.8121	-0.7630	6.17	0.18	-0.750			
0.2113	13526.33	3.8090	3.8089	-0.7601	6.18	0.19	-0.750			
0.2136	13673.07	3.8060	3.8061	-0.7637	6.19	0.20	-0.750			
0.2159	13819.28	3.8030	3.8030	-0.7617	6.19	0.20	-0.750			
0.2182	13964.77	3.8000	3.7999	-0.7599	6.20	0.21	-0.750			
0.2205	14110.17	3.7970	3.7970	-0.7611	6.21	0.22	-0.750			
0.2227	14255.75	3.7940	3.7940	-0.7623	6.21	0.22	-0.750			
0.2250	14402.46	3.7910	3.7909	-0.7654	6.22	0.23	-0.750			
0.2274	14550.63	3.7880	3.7880	-0.7644	6.23	0.24	-0.750			
0.2296	14696.76	3.7850	3.7851	-0.7583	6.24	0.25	-0.750			
0.2319	14843.25	3.7820	3.7820	-0.7597	6.24	0.25	-0.750			
0.2342	14987.99	3.7790	3.7792	-0.7625	6.25	0.26	-0.750			
0.2364	15131.64	3.7760	3.7758	-0.7623	6.26	0.27	-0.750			
0.2387	15279.12	3.7730	3.7730	-0.7661	6.27	0.28	-0.750			
0.2411	15427.93	3.7700	3.7701	-0.7692	6.27	0.28	-0.750			
0.2434	15577.98	3.7670	3.7670	-0.7713	6.28	0.29	-0.750			
0.2457	15725.46	3.7640	3.7638	-0.7730	6.29	0.30	-0.750			
0.2480	15871.25	3.7610	3.7610	-0.7737	6.29	0.30	-0.750			
0.2503	16019.34	3.7580	3.7579	-0.7777	6.30	0.31	-0.750			
0.2527	16169.71	3.7550	3.7549	-0.7799	6.30	0.31	-0.750			
0.2550	16320.79	3.7520	3.7521	-0.7846	6.30	0.31	-0.750			
0.2574	16472.74	3.7490	3.7490	-0.7939	6.31	0.32	-0.750			
0.2598	16625.58	3.7460	3.7460	-0.7963	6.31	0.32	-0.750			
0.2621	16776.33	3.7430	3.7429	-0.7949	6.32	0.33	-0.750			
0.2645	16930.80	3.7400	3.7400	-0.7962	6.33	0.34	-0.750			
0.2670	17085.45	3.7370	3.7370	-0.7970	6.34	0.35	-0.750			
0.2694	17239.09	3.7340	3.7339	-0.7939	6.34	0.35	-0.750			
0.2717	17390.93	3.7310	3.7311	-0.7915	6.35	0.36	-0.750			
0.2741	17540.30	3.7280	3.7280	-0.7929	6.35	0.36	-0.750			
0.2764	17690.08	3.7250	3.7250	-0.8064	6.35	0.36	-0.750			
0.2789	17846.60	3.7220	3.7220	-0.8188	6.36	0.37	-0.750			
0.2814	18006.76	3.7190	3.7189	-0.8314	6.36	0.37	-0.750			
0.2839	18167.57	3.7160	3.7162	-0.8388	6.36	0.37	-0.750			
0.2864	18332.23	3.7130	3.7130	-0.8485	6.37	0.38	-0.750			
0.2890	18495.33	3.7100	3.7100	-0.8590	6.37	0.38	-0.750			
0.2916	18659.64	3.7070	3.7069	-0.8591	6.38	0.39	-0.750			
0.2941	18824.98	3.7040	3.7040	-0.8663	6.38	0.39	-0.750			
0.2968	18993.12	3.7010	3.7012	-0.8709	6.39	0.40	-0.750			
0.2994	19161.03	3.6980	3.6979	-0.8824	6.39	0.40	-0.750			
0.3020	19329.36	3.6950	3.6950	-0.8888	6.40	0.41	-0.750			
0.3047	19499.79	3.6920	3.6919	-0.8943	6.40	0.41	-0.750			
0.3074	19672.37	3.6890	3.6890	-0.9056	6.41	0.42	-0.750			
0.3101	19848.09	3.6860	3.6860	-0.9161	6.41	0.42	-0.750			
0.3129	20024.80	3.6830	3.6831	-0.9292	6.41	0.42	-0.750			
0.3157	20206.45	3.6800	3.6799	-0.9343	6.41	0.42	-0.750			
0.3185	20384.59	3.6770	3.6770	-0.9390	6.41	0.42	-0.750			
0.3214	20566.79	3.6740	3.6742	-0.9491	6.41	0.42	-0.750			
0.3242	20749.78	3.6710	3.6710	-0.9594	6.41	0.42	-0.750			
0.3271	20934.05	3.6680	3.6678	-0.9635	6.42	0.43	-0.750			
0.3300	21119.19	3.6650	3.6650	-0.9704	6.42	0.43	-0.750			
0.3329	21306.55	3.6620	3.6620	-0.9821	6.43	0.44	-0.750			
0.3359	21495.97	3.6590	3.6590	-0.9945	6.43	0.44	-0.750			
0.3389	21687.17	3.6560	3.6560	-0.9992	6.43	0.44	-0.750			
0.3419	21880.00	3.6530	3.6530	-1.0110	6.43	0.44	-0.750			
0.3449	22075.32	3.6500	3.6500	-1.0172	6.43	0.44	-0.750			
0.3480	22272.90	3.6470	3.6470	-1.0350	6.43	0.44	-0.750			
0.3511	22473.51	3.6440	3.6439	-1.0397	6.44	0.45	-0.750			
0.3543	22673.58	3.6410	3.6409	-1.0475	6.44	0.45	-0.750			
0.3574	22874.45	3.6380	3.6381	-1.0602	6.45	0.46	-0.750			
0.3606	23079.77	3.6350	3.6349	-1.0733	6.45	0.46	-0.750			
0.3639	23286.81	3.6320	3.6319	-1.0829	6.45	0.46	-0.750			
0.3671	23496.07	3.6290	3.6290	-1.0940	6.45	0.46	-0.750			
0.3704	23705.37	3.6260	3.6261	-1.0989	6.45	0.46	-0.750			
0.3738	23921.75	3.6230	3.6230	-1.1193	6.45	0.46	-0.750			
0.3772	24137.63	3.6200	3.6200	-1.1236	6.45	0.46	-0.750			
0.3805	24353.57	3.6170	3.6170	-1.1317	6.45	0.46	-0.750			
0.3839	24570.53	3.6140	3.6143	-1.1489	6.45	0.46	-0.750			
0.3874	24792.70	3.6110	3.6110	-1.1603	6.45	0.46	-0.750			
0.3909	25018.36	3.6080	3.6078	-1.1641	6.45	0.46	-0.750			
0.3944	25241.51	3.6050	3.6049	-1.1762	6.45	0.46	-0.750			
0.3979	25468.60	3.6020	3.6021	-1.1968	6.45	0.46	-0.750			
0.4016	25699.99	3.5990	3.5989	-1.2035	6.45	0.46	-0.750			
0.4052	25931.67	3.5960	3.5960	-1.2127	6.46	0.47	-0.750			
0.4088	26164.29	3.5930	3.5932	-1.2173	6.46	0.47	-0.750			
0.4125	26402.26	3.5900	3.5897	-1.2401	6.46	0.47	-0.750	0.465	1.072	
0.4163	26645.21	3.5870	3.5870	-1.2474	6.46	0.47	-0.750			
0.4200	26879.31	3.5840	3.5840	-1.2661	6.46	0.47	-0.750			
0.4238	27123.74	3.5810	3.5809	-1.2779	6.46	0.47	-0.750			
0.4277	27373.61	3.5780	3.5779	-1.2924	6.46	0.47	-0.750			
0.4316	27621.14	3.5750	3.5750	-1.3068	6.46	0.47	-0.750			
0.4356	27875.42	3.5720	3.5720	-1.3143	6.46	0.47	-0.750			
0.4395	28130.41	3.5690	3.5690	-1.3229	6.46	0.47	-0.750			
0.4435	28384.78	3.5660	3.5660	-1.3352	6.47	0.48	-0.750			
0.4474	28636.26	3.5630	3.5631	-1.3457	6.47	0.48	-0.750			
0.4516	28900.33	3.5600	3.5599	-1.3682	6.47	0.48	-0.750			
0.4557	29165.43	3.5570	3.5569	-1.3809	6.47	0.48	-0.750			
0.4599	29432.91	3.5540	3.5541	-1.3996	6.47	0.48	-0.750			
0.4641	29705.56	3.5510	3.5510	-1.4173	6.47	0.48	-0.750			
0.4684	29976.59	3.5480	3.5479	-1.4345	6.47	0.48	-0.750			
0.4727	30253.49	3.5450	3.5450	-1.4355	6.47	0.48	-0.750			
0.4771	30533.25	3.5420	3.5419	-1.4421	6.48	0.49	-0.750			
0.4814	30811.73	3.5390	3.5388	-1.4562	6.49	0.50	-0.750			
0.4858	31093.77	3.5360	3.5360	-1.4633	6.49	0.50	-0.750			
0.4903	31381.25	3.5330	3.5327	-1.4773	6.49	0.50	-0.750			
0.4947	31661.03	3.5300	3.5298	-1.5024	6.49	0.50	-0.750			
0.4992	31951.62	3.5270	3.5271	-1.5095	6.49	0.50	-0.750			
0.5038	32245.18	3.5240	3.5231	-1.5570	6.50	0.51	-0.750			
0.5085	32544.44	3.5210	3.5213	-1.5753	6.50	0.51	-0.750			
0.5133	32852.88	3.5180	3.5182	-1.5907	6.50	0.51	-0.750			
0.5183	33170.01	3.5150	3.5149	-1.6000	6.51	0.52	-0.750			
0.5230	33470.69	3.5120	3.5118	-1.5781	6.51	0.52	-0.750			
0.5277	33775.76	3.5090	3.5090	-1.5650	6.51	0.52	-0.750			
0.5324	34072.68	3.5060	3.5062	-1.5549	6.51	0.52	-0.750			
0.5369	34358.55	3.5030	3.5028	-1.5443	6.51	0.52	-0.750			
0.5415	34653.35	3.5000	3.4999	-1.5398	6.52	0.53	-0.750			
0.5463	34961.18	3.4970	3.4972	-1.5602	6.53	0.54	-0.750			
0.5509	35258.05	3.4940	3.4942	-1.5682	6.54	0.55	-0.750			
0.5557	35564.35	3.4910	3.4909	-1.5609	6.55	0.56	-0.750			
0.5603	35861.55	3.4880	3.4882	-1.5670	6.55	0.56	-0.750			
0.5650	36159.18	3.4850	3.4849	-1.5647	6.56	0.57	-0.750			
0.5697	36460.15	3.4820	3.4818	-1.5460	6.57	0.58	-0.750			
0.5744	36760.78	3.4790	3.4788	-1.5433	6.57	0.58	-0.750			
0.5791	37059.65	3.4760	3.4760	-1.5520	6.58	0.59	-0.750			
0.5837	37357.46	3.4730	3.4730	-1.5402	6.58	0.59	-0.750			
0.5884	37656.19	3.4700	3.4700	-1.5151	6.58	0.59	-0.750			
0.5928	37940.84	3.4670	3.4669	-1.4873	6.59	0.60	-0.750			
0.5973	38228.96	3.4640	3.4642	-1.4884	6.59	0.60	-0.750			
0.6018	38513.14	3.4610	3.4609	-1.4755	6.61	0.62	-0.750			
0.6061	38788.31	3.4580	3.4580	-1.4669	6.62	0.63	-0.750			
0.6105	39070.71	3.4550	3.4550	-1.4478	6.63	0.64	-0.750			
0.6149	39354.50	3.4520	3.4520	-1.4516	6.64	0.65	-0.750			
0.6193	39632.38	3.4490	3.4490	-1.4387	6.66	0.67	-0.750			
0.6236	39908.05	3.4460	3.4459	-1.4112	6.67	0.68	-0.750			
0.6278	40176.73	3.4430	3.4429	-1.3880	6.68	0.69	-0.750			
0.6319	40439.22	3.4400	3.4400	-1.3679	6.69	0.70	-0.750			
0.6359	40699.83	3.4370	3.4369	-1.3361	6.70	0.71	-0.750			
0.6400	40959.44	3.4340	3.4339	-1.3177	6.71	0.72	-0.750			
0.6439	41206.46	3.4310	3.4311	-1.2901	6.72	0.73	-0.750			
0.6477	41450.81	3.4280	3.4281	-1.2654	6.73	0.74	-0.750			
0.6515	41693.48	3.4250	3.4249	-1.2475	6.75	0.76	-0.750			
0.6551	41929.14	3.4220	3.4219	-1.2157	6.76	0.77	-0.750			
0.6587	42157.88	3.4190	3.4192	-1.1999	6.77	0.78	-0.750			
0.6624	42390.70	3.4160	3.4160	-1.1783	6.78	0.79	-0.750			
0.6659	42616.41	3.4130	3.4130	-1.1536	6.79	0.80	-0.750			
0.6693	42834.77	3.4100	3.4099	-1.1198	6.80	0.81	-0.750			
0.6726	43046.79	3.4070	3.4071	-1.0922	6.82	0.83	-0.750			
0.6758	43253.47	3.4040	3.4039	-1.0634	6.83	0.84	-0.750			
0.6790	43454.05	3.4010	3.4009	-1.0348	6.85	0.86	-0.750			
0.6820	43646.20	3.3980	3.3980	-1.0023	6.86	0.87	-0.750			
0.6850	43839.97	3.3950	3.3950	-0.9843	6.88	0.89	-0.750			
0.6879	44026.93	3.3920	3.3920	-0.9624	6.89	0.90	-0.750			
0.6908	44210.23	3.3890	3.3890	-0.9397	6.90	0.91	-0.750			
0.6936	44387.32	3.3860	3.3860	-0.9145	6.92	0.93	-0.750			
0.6963	44561.27	3.3830	3.3832	-0.8902	6.93	0.94	-0.750			
0.6989	44729.92	3.3800	3.3800	-0.8647	6.94	0.95	-0.750			
0.7015	44892.98	3.3770	3.3770	-0.8451	6.95	0.96	-0.750			
0.7040	45053.32	3.3740	3.3740	-0.8230	6.97	0.98	-0.750			
0.7064	45210.30	3.3710	3.3709	-0.8019	6.98	0.99	-0.750			
0.7088	45361.46	3.3680	3.3682	-0.7772	6.99	1.00	-0.750			
0.7111	45508.21	3.3650	3.3650	-0.7559	7.00	1.01	-0.750			
0.7133	45650.98	3.3620	3.3620	-0.7366	7.01	1.02	-0.750			
0.7155	45788.89	3.3590	3.3590	-0.7145	7.02	1.03	-0.750			
0.7176	45924.05	3.3560	3.3559	-0.6990	7.03	1.04	-0.750			
0.7196	46056.29	3.3530	3.3530	-0.6844	7.04	1.05	-0.750			
0.7217	46186.97	3.3500	3.3500	-0.6669	7.05	1.06	-0.750			
0.7236	46313.55	3.3470	3.3470	-0.6538	7.06	1.07	-0.750			
