Ah_balance (normalized)	Ah_balance (mAh)	Voltage - fit (V)	Voltage -  interpolate (V)	dQ/dV (1/V)	Temperature (°C)	Temperature - diff (°C)	Current (C)	R_DC 0ms (mOhm)	R_DC 50ms (mOhm)	R_DC 50 ms PEC (mOhm)
0.0962	6154.79	4.0030	4.0030	-0.0856	5.99	0.00	-0.750			
0.0965	6173.86	4.0000	4.0001	-0.1130	5.99	0.00	-0.750			
0.0968	6198.14	3.9970	3.9971	-0.1405	5.99	0.00	-0.750			
0.0973	6228.35	3.9940	3.9939	-0.1658	5.99	0.00	-0.750			
0.0979	6262.83	3.9910	3.9909	-0.1896	5.99	0.00	-0.750			
0.0985	6301.72	3.9880	3.9882	-0.2128	5.99	0.00	-0.750			
0.0991	6345.52	3.9850	3.9850	-0.2357	5.99	0.00	-0.750			
0.0999	6392.99	3.9820	3.9820	-0.2586	5.99	0.00	-0.750			
0.1007	6444.15	3.9790	3.9791	-0.2822	5.99	0.00	-0.750			
0.1016	6500.21	3.9760	3.9759	-0.3064	5.99	0.00	-0.750			
0.1025	6562.27	3.9730	3.9730	-0.3292	5.99	0.00	-0.750			
0.1036	6627.76	3.9700	3.9701	-0.3523	5.99	0.00	-0.750			
0.1046	6697.36	3.9670	3.9671	-0.3777	5.99	0.00	-0.750			
0.1058	6771.64	3.9640	3.9640	-0.4037	5.99	0.00	-0.750			
0.1070	6850.89	3.9610	3.9609	-0.4279	5.99	0.00	-0.750			
0.1084	6935.94	3.9580	3.9580	-0.4505	5.99	0.00	-0.750			
0.1098	7025.98	3.9550	3.9550	-0.4738	5.99	0.00	-0.750			
0.1113	7120.12	3.9520	3.9522	-0.4965	5.99	0.00	-0.750			
0.1128	7217.79	3.9490	3.9490	-0.5153	5.99	0.00	-0.750			
0.1143	7318.32	3.9460	3.9459	-0.5315	5.99	0.00	-0.750			
0.1160	7421.43	3.9430	3.9431	-0.5490	5.99	0.00	-0.750			
0.1176	7529.09	3.9400	3.9400	-0.5675	5.99	0.00	-0.750			
0.1194	7640.15	3.9370	3.9369	-0.5841	5.99	0.00	-0.750			
0.1212	7754.12	3.9340	3.9340	-0.5992	5.99	0.00	-0.750			
0.1230	7870.69	3.9310	3.9310	-0.6110	5.99	0.00	-0.750			
0.1248	7990.08	3.9280	3.9279	-0.6258	5.99	0.00	-0.750			
0.1268	8112.03	3.9250	3.9250	-0.6358	6.00	0.01	-0.750			
0.1286	8233.54	3.9220	3.9221	-0.6478	6.00	0.01	-0.750			
0.1306	8359.99	3.9190	3.9190	-0.6566	6.00	0.01	-0.750			
0.1326	8488.37	3.9160	3.9160	-0.6665	6.00	0.01	-0.750			
0.1346	8617.10	3.9130	3.9130	-0.6748	6.01	0.02	-0.750			
0.1367	8748.15	3.9100	3.9100	-0.6828	6.01	0.02	-0.750			
0.1387	8879.42	3.9070	3.9070	-0.6869	6.01	0.02	-0.750			
0.1408	9011.57	3.9040	3.9040	-0.6958	6.02	0.03	-0.750			
0.1429	9146.35	3.9010	3.9011	-0.6980	6.02	0.03	-0.750			
0.1450	9282.48	3.8980	3.8979	-0.7064	6.02	0.03	-0.750			
0.1471	9417.54	3.8950	3.8950	-0.7082	6.03	0.04	-0.750			
0.1493	9553.67	3.8920	3.8921	-0.7085	6.03	0.04	-0.750			
0.1514	9689.38	3.8890	3.8889	-0.7149	6.04	0.05	-0.750			
0.1535	9825.75	3.8860	3.8861	-0.7230	6.05	0.06	-0.750			
0.1557	9966.21	3.8830	3.8828	-0.7229	6.05	0.06	-0.750			
0.1579	10106.18	3.8800	3.8800	-0.7298	6.06	0.07	-0.750			
0.1601	10248.60	3.8770	3.8769	-0.7294	6.07	0.08	-0.750			
0.1623	10388.95	3.8740	3.8740	-0.7288	6.07	0.08	-0.750			
0.1645	10528.19	3.8710	3.8710	-0.7373	6.08	0.09	-0.750			
0.1667	10667.28	3.8680	3.8680	-0.7390	6.09	0.10	-0.750			
0.1689	10809.44	3.8650	3.8649	-0.7418	6.09	0.10	-0.750			
0.1712	10956.07	3.8620	3.8621	-0.7436	6.10	0.11	-0.750			
0.1734	11100.22	3.8590	3.8592	-0.7403	6.11	0.12	-0.750			
0.1757	11242.38	3.8560	3.8559	-0.7451	6.12	0.13	-0.750			
0.1779	11383.89	3.8530	3.8530	-0.7416	6.12	0.13	-0.750			
0.1801	11525.63	3.8500	3.8499	-0.7445	6.13	0.14	-0.750			
0.1823	11669.00	3.8470	3.8471	-0.7464	6.14	0.15	-0.750			
0.1846	11815.33	3.8440	3.8439	-0.7498	6.15	0.16	-0.750			
0.1869	11959.34	3.8410	3.8411	-0.7507	6.15	0.16	-0.750			
0.1891	12103.62	3.8380	3.8379	-0.7496	6.16	0.17	-0.750			
0.1913	12245.67	3.8350	3.8350	-0.7473	6.17	0.18	-0.750			
0.1936	12387.99	3.8320	3.8320	-0.7455	6.17	0.18	-0.750			
0.1958	12533.60	3.8290	3.8290	-0.7516	6.18	0.19	-0.750			
0.1981	12678.44	3.8260	3.8260	-0.7513	6.19	0.20	-0.750			
0.2003	12821.96	3.8230	3.8230	-0.7517	6.20	0.21	-0.750			
0.2026	12965.07	3.8200	3.8200	-0.7527	6.20	0.21	-0.750			
0.2049	13110.92	3.8170	3.8170	-0.7556	6.21	0.22	-0.750			
0.2071	13256.57	3.8140	3.8139	-0.7553	6.22	0.23	-0.750			
0.2094	13402.43	3.8110	3.8110	-0.7576	6.22	0.23	-0.750			
0.2117	13548.13	3.8080	3.8082	-0.7563	6.23	0.24	-0.750			
0.2140	13693.61	3.8050	3.8049	-0.7554	6.24	0.25	-0.750			
0.2162	13837.51	3.8020	3.8020	-0.7565	6.25	0.26	-0.750			
0.2185	13982.06	3.7990	3.7990	-0.7538	6.25	0.26	-0.750			
0.2207	14126.88	3.7960	3.7960	-0.7594	6.26	0.27	-0.750			
0.2230	14273.60	3.7930	3.7930	-0.7649	6.27	0.28	-0.750			
0.2253	14421.18	3.7900	3.7899	-0.7638	6.28	0.29	-0.750			
0.2276	14568.15	3.7870	3.7870	-0.7675	6.29	0.30	-0.750			
0.2299	14715.84	3.7840	3.7840	-0.7677	6.30	0.31	-0.750			
0.2322	14863.50	3.7810	3.7810	-0.7652	6.31	0.32	-0.750			
0.2346	15011.66	3.7780	3.7779	-0.7660	6.32	0.33	-0.750			
0.2368	15157.28	3.7750	3.7751	-0.7613	6.33	0.34	-0.750			
0.2391	15302.19	3.7720	3.7720	-0.7657	6.34	0.35	-0.750			
0.2414	15449.69	3.7690	3.7690	-0.7702	6.35	0.36	-0.750			
0.2437	15597.14	3.7660	3.7659	-0.7684	6.35	0.36	-0.750			
0.2460	15744.90	3.7630	3.7630	-0.7771	6.36	0.37	-0.750			
0.2484	15895.72	3.7600	3.7600	-0.7841	6.37	0.38	-0.750			
0.2507	16046.59	3.7570	3.7569	-0.7843	6.38	0.39	-0.750			
0.2531	16197.21	3.7540	3.7540	-0.7905	6.38	0.39	-0.750			
0.2554	16348.69	3.7510	3.7511	-0.7936	6.39	0.40	-0.750			
0.2579	16503.59	3.7480	3.7478	-0.7945	6.40	0.41	-0.750			
0.2603	16658.01	3.7450	3.7451	-0.7978	6.41	0.42	-0.750			
0.2626	16808.92	3.7420	3.7420	-0.8016	6.41	0.42	-0.750			
0.2651	16963.93	3.7390	3.7390	-0.8038	6.42	0.43	-0.750			
0.2675	17117.80	3.7360	3.7358	-0.8103	6.43	0.44	-0.750			
0.2699	17271.04	3.7330	3.7331	-0.8125	6.44	0.45	-0.750			
0.2723	17429.39	3.7300	3.7301	-0.8229	6.45	0.46	-0.750			
0.2748	17589.27	3.7270	3.7270	-0.8301	6.45	0.46	-0.750			
0.2773	17748.49	3.7240	3.7240	-0.8368	6.46	0.47	-0.750			
0.2798	17909.95	3.7210	3.7210	-0.8388	6.47	0.48	-0.750			
0.2824	18073.93	3.7180	3.7179	-0.8450	6.49	0.50	-0.750			
0.2849	18234.26	3.7150	3.7150	-0.8496	6.50	0.51	-0.750			
0.2875	18397.83	3.7120	3.7119	-0.8541	6.50	0.51	-0.750			
0.2900	18561.66	3.7090	3.7090	-0.8603	6.50	0.51	-0.750			
0.2926	18727.36	3.7060	3.7060	-0.8683	6.51	0.52	-0.750			
0.2952	18894.38	3.7030	3.7031	-0.8738	6.51	0.52	-0.750			
0.2979	19065.78	3.7000	3.6999	-0.8808	6.51	0.52	-0.750			
0.3005	19233.32	3.6970	3.6971	-0.8923	6.52	0.53	-0.750			
0.3032	19404.38	3.6940	3.6941	-0.9004	6.53	0.54	-0.750			
0.3059	19579.28	3.6910	3.6910	-0.9105	6.55	0.56	-0.750			
0.3087	19754.66	3.6880	3.6879	-0.9195	6.56	0.57	-0.750			
0.3114	19931.84	3.6850	3.6852	-0.9286	6.57	0.58	-0.750			
0.3143	20112.59	3.6820	3.6820	-0.9397	6.58	0.59	-0.750			
0.3171	20296.28	3.6790	3.6789	-0.9472	6.58	0.59	-0.750			
0.3199	20476.03	3.6760	3.6759	-0.9491	6.58	0.59	-0.750			
0.3228	20658.27	3.6730	3.6731	-0.9606	6.59	0.60	-0.750			
0.3258	20848.85	3.6700	3.6698	-0.9493	6.59	0.60	-0.750			
0.3287	21036.27	3.6670	3.6669	-0.9297	6.60	0.61	-0.750			
0.3314	21210.38	3.6640	3.6641	-0.9137	6.60	0.61	-0.750			
0.3341	21379.69	3.6610	3.6615	-0.9053	6.61	0.62	-0.750			
0.3367	21546.67	3.6580	3.6577	-0.9111	6.61	0.62	-0.750			
0.3393	21716.77	3.6550	3.6547	-0.9370	6.62	0.63	-0.750			
0.3421	21895.66	3.6520	3.6520	-0.9601	6.62	0.63	-0.750			
0.3451	22089.19	3.6490	3.6490	-1.0058	6.62	0.63	-0.750			
0.3484	22296.01	3.6460	3.6461	-1.0423	6.63	0.64	-0.750			
0.3515	22497.33	3.6430	3.6430	-1.0553	6.63	0.64	-0.750			
0.3547	22701.16	3.6400	3.6400	-1.0608	6.64	0.65	-0.750			
0.3579	22905.05	3.6370	3.6369	-1.0704	6.64	0.65	-0.750			
0.3610	23106.53	3.6340	3.6340	-1.0914	6.65	0.66	-0.750			
0.3644	23320.61	3.6310	3.6309	-1.1004	6.66	0.67	-0.750			
0.3677	23534.06	3.6280	3.6279	-1.1120	6.66	0.67	-0.750			
0.3711	23749.56	3.6250	3.6249	-1.1241	6.67	0.68	-0.750			
0.3745	23967.45	3.6220	3.6221	-1.1360	6.67	0.68	-0.750			
0.3779	24186.88	3.6190	3.6189	-1.1416	6.67	0.68	-0.750			
0.3813	24404.43	3.6160	3.6159	-1.1420	6.67	0.68	-0.750			
0.3847	24621.47	3.6130	3.6131	-1.1423	6.67	0.68	-0.750			
0.3882	24847.80	3.6100	3.6100	-1.1736	6.68	0.69	-0.750			
0.3918	25074.18	3.6070	3.6069	-1.1782	6.68	0.69	-0.750			
0.3953	25301.36	3.6040	3.6040	-1.1838	6.69	0.70	-0.750			
0.3989	25528.07	3.6010	3.6013	-1.2233	6.70	0.71	-0.750			
0.4026	25768.39	3.5980	3.5978	-1.2350	6.71	0.72	-0.750			
0.4064	26010.21	3.5950	3.5947	-1.2398	6.72	0.73	-0.750			
0.4101	26248.75	3.5920	3.5916	-1.2417	6.73	0.74	-0.750	0.481	1.078	
0.4139	26490.23	3.5890	3.5888	-1.2569	6.73	0.74	-0.750			
0.4177	26730.96	3.5860	3.5859	-1.2553	6.73	0.74	-0.750			
0.4213	26962.34	3.5830	3.5830	-1.2649	6.73	0.74	-0.750			
0.4251	27208.90	3.5800	3.5800	-1.2777	6.74	0.75	-0.750			
0.4291	27459.35	3.5770	3.5769	-1.3129	6.75	0.76	-0.750			
0.4330	27710.67	3.5740	3.5739	-1.3325	6.76	0.77	-0.750			
0.4370	27969.32	3.5710	3.5712	-1.3442	6.77	0.78	-0.750			
0.4411	28231.61	3.5680	3.5677	-1.3596	6.77	0.78	-0.750			
0.4452	28494.60	3.5650	3.5650	-1.3735	6.78	0.79	-0.750			
0.4493	28755.24	3.5620	3.5621	-1.3844	6.78	0.79	-0.750			
0.4536	29028.92	3.5590	3.5589	-1.4001	6.79	0.80	-0.750			
0.4577	29295.76	3.5560	3.5560	-1.3983	6.79	0.80	-0.750			
0.4620	29569.16	3.5530	3.5531	-1.4226	6.80	0.81	-0.750			
0.4663	29843.41	3.5500	3.5500	-1.4486	6.80	0.81	-0.750			
0.4706	30120.71	3.5470	3.5469	-1.4649	6.81	0.82	-0.750			
0.4750	30400.37	3.5440	3.5441	-1.4812	6.81	0.82	-0.750			
0.4795	30688.51	3.5410	3.5409	-1.5021	6.82	0.83	-0.750			
0.4841	30982.89	3.5380	3.5380	-1.5150	6.83	0.84	-0.750			
0.4887	31275.51	3.5350	3.5347	-1.5205	6.83	0.84	-0.750			
0.4933	31571.73	3.5320	3.5320	-1.5381	6.84	0.85	-0.750			
0.4979	31867.56	3.5290	3.5291	-1.5352	6.85	0.86	-0.750			
0.5026	32164.35	3.5260	3.5260	-1.5427	6.86	0.87	-0.750			
0.5071	32455.84	3.5230	3.5229	-1.5539	6.86	0.87	-0.750			
0.5119	32761.04	3.5200	3.5200	-1.5634	6.87	0.88	-0.750			
0.5166	33061.92	3.5170	3.5171	-1.5598	6.88	0.89	-0.750			
0.5213	33361.72	3.5140	3.5141	-1.5550	6.89	0.90	-0.750			
0.5259	33658.97	3.5110	3.5109	-1.5675	6.89	0.90	-0.750			
0.5306	33960.95	3.5080	3.5080	-1.5857	6.90	0.91	-0.750			
0.5354	34263.98	3.5050	3.5049	-1.5896	6.91	0.92	-0.750			
0.5402	34573.51	3.5020	3.5020	-1.5888	6.92	0.93	-0.750			
0.5450	34882.57	3.4990	3.4989	-1.6056	6.92	0.93	-0.750			
0.5500	35197.09	3.4960	3.4959	-1.5855	6.93	0.94	-0.750			
0.5546	35496.37	3.4930	3.4930	-1.5717	6.94	0.95	-0.750			
0.5593	35794.82	3.4900	3.4901	-1.5594	6.95	0.96	-0.750			
0.5640	36097.29	3.4870	3.4868	-1.5361	6.95	0.96	-0.750			
0.5686	36388.87	3.4840	3.4841	-1.5526	6.96	0.97	-0.750			
0.5733	36691.28	3.4810	3.4812	-1.5083	6.97	0.98	-0.750			
0.5776	36969.04	3.4780	3.4778	-1.5106	6.98	0.99	-0.750			
0.5821	37255.06	3.4750	3.4748	-1.5204	7.00	1.01	-0.750			
0.5866	37541.80	3.4720	3.4721	-1.5277	7.01	1.02	-0.750			
0.5914	37847.40	3.4690	3.4689	-1.5415	7.02	1.03	-0.750			
0.5960	38144.25	3.4660	3.4658	-1.5502	7.03	1.04	-0.750			
0.6008	38448.42	3.4630	3.4628	-1.5445	7.04	1.05	-0.750			
0.6053	38742.04	3.4600	3.4601	-1.5257	7.05	1.06	-0.750			
0.6097	39019.38	3.4570	3.4570	-1.4773	7.07	1.08	-0.750			
0.6143	39312.39	3.4540	3.4537	-1.4747	7.08	1.09	-0.750			
0.6185	39587.06	3.4510	3.4512	-1.4334	7.08	1.09	-0.750			
0.6229	39865.94	3.4480	3.4481	-1.4355	7.09	1.10	-0.750			
0.6271	40136.09	3.4450	3.4449	-1.4091	7.10	1.11	-0.750			
0.6314	40410.84	3.4420	3.4418	-1.3821	7.12	1.13	-0.750			
0.6355	40669.02	3.4390	3.4391	-1.3628	7.13	1.14	-0.750			
0.6396	40931.50	3.4360	3.4361	-1.3460	7.14	1.15	-0.750			
0.6436	41191.41	3.4330	3.4328	-1.3266	7.15	1.16	-0.750			
0.6475	41442.38	3.4300	3.4301	-1.3083	7.17	1.18	-0.750			
0.6514	41689.26	3.4270	3.4270	-1.2761	7.18	1.19	-0.750			
0.6552	41935.86	3.4240	3.4239	-1.2572	7.20	1.21	-0.750			
0.6590	42176.04	3.4210	3.4210	-1.2319	7.22	1.23	-0.750			
0.6626	42405.83	3.4180	3.4180	-1.1987	7.23	1.24	-0.750			
0.6662	42638.84	3.4150	3.4150	-1.1784	7.25	1.26	-0.750			
0.6697	42862.13	3.4120	3.4120	-1.1491	7.26	1.27	-0.750			
0.6731	43078.15	3.4090	3.4091	-1.1190	7.27	1.28	-0.750			
0.6764	43292.29	3.4060	3.4059	-1.1032	7.28	1.29	-0.750			
0.6797	43502.23	3.4030	3.4030	-1.0686	7.29	1.30	-0.750			
0.6829	43704.15	3.4000	3.3999	-1.0368	7.31	1.32	-0.750			
0.6859	43899.04	3.3970	3.3972	-1.0096	7.32	1.33	-0.750			
0.6889	44092.05	3.3940	3.3940	-0.9930	7.34	1.35	-0.750			
0.6919	44280.66	3.3910	3.3908	-0.9638	7.35	1.36	-0.750			
0.6947	44462.81	3.3880	3.3879	-0.9337	7.37	1.38	-0.750			
0.6975	44640.93	3.3850	3.3850	-0.9098	7.38	1.39	-0.750			
0.7002	44814.31	3.3820	3.3819	-0.8844	7.40	1.41	-0.750			
0.7028	44979.23	3.3790	3.3789	-0.8608	7.40	1.41	-0.750			
0.7053	45137.66	3.3760	3.3760	-0.8334	7.41	1.42	-0.750			
0.7077	45294.78	3.3730	3.3729	-0.8121	7.42	1.43	-0.750			
0.7102	45452.65	3.3700	3.3699	-0.7998	7.43	1.44	-0.750			
0.7126	45604.42	3.3670	3.3670	-0.7772	7.44	1.45	-0.750			
0.7149	45752.33	3.3640	3.3640	-0.7580	7.45	1.46	-0.750			
0.7171	45895.24	3.3610	3.3611	-0.7354	7.47	1.48	-0.750			
0.7192	46031.51	3.3580	3.3580	-0.7114	7.48	1.49	-0.750			
0.7214	46167.71	3.3550	3.3550	-0.6955	7.50	1.51	-0.750			
0.7234	46299.87	3.3520	3.3520	-0.6780	7.51	1.52	-0.750			
0.7254	46428.47	3.3490	3.3490	-0.6598	7.52	1.53	-0.750			
0.7274	46553.11	3.3460	3.3460	-0.6379	7.53	1.54	-0.750			
