Ah_balance (normalized)	Ah_balance (mAh)	Voltage - fit (V)	Voltage -  interpolate (V)	dQ/dV (1/V)	Temperature (°C)	Temperature - diff (°C)	Current (C)	R_DC 0ms (mOhm)	R_DC 50ms (mOhm)	R_DC 50 ms PEC (mOhm)
0.0940	6018.93	4.0040	4.0036	-0.0741	5.99	0.00	-0.750			
0.0943	6037.72	4.0010	4.0006	-0.1101	5.99	0.00	-0.750			
0.0947	6062.31	3.9980	3.9978	-0.1388	5.99	0.00	-0.750			
0.0952	6091.85	3.9950	3.9950	-0.1655	5.99	0.00	-0.750			
0.0957	6126.66	3.9920	3.9920	-0.1903	5.99	0.00	-0.750			
0.0963	6165.38	3.9890	3.9890	-0.2184	5.99	0.00	-0.750			
0.0971	6211.21	3.9860	3.9860	-0.2422	5.99	0.00	-0.750			
0.0978	6259.69	3.9830	3.9830	-0.2660	5.99	0.00	-0.750			
0.0986	6313.21	3.9800	3.9799	-0.2886	5.99	0.00	-0.750			
0.0995	6370.89	3.9770	3.9771	-0.3126	5.99	-0.00	-0.750			
0.1005	6432.63	3.9740	3.9739	-0.3392	5.99	-0.00	-0.750			
0.1016	6499.82	3.9710	3.9710	-0.3649	5.99	-0.00	-0.750			
0.1027	6571.39	3.9680	3.9680	-0.3901	5.99	-0.00	-0.750			
0.1039	6649.89	3.9650	3.9650	-0.4200	5.99	-0.00	-0.750			
0.1052	6733.84	3.9620	3.9620	-0.4456	5.99	-0.00	-0.750			
0.1066	6822.73	3.9590	3.9590	-0.4704	5.98	-0.01	-0.750			
0.1081	6915.71	3.9560	3.9561	-0.4928	5.98	-0.01	-0.750			
0.1096	7012.29	3.9530	3.9530	-0.5138	5.98	-0.01	-0.750			
0.1111	7112.66	3.9500	3.9500	-0.5370	5.98	-0.01	-0.750			
0.1128	7217.66	3.9470	3.9470	-0.5590	5.98	-0.01	-0.750			
0.1145	7327.57	3.9440	3.9440	-0.5772	5.98	-0.01	-0.750			
0.1163	7440.66	3.9410	3.9409	-0.5970	5.98	-0.01	-0.750			
0.1181	7557.53	3.9380	3.9381	-0.6181	5.99	-0.00	-0.750			
0.1200	7678.09	3.9350	3.9350	-0.6358	5.99	-0.00	-0.750			
0.1219	7803.13	3.9320	3.9319	-0.6463	5.99	-0.00	-0.750			
0.1239	7928.90	3.9290	3.9289	-0.6555	5.99	-0.00	-0.750			
0.1259	8055.42	3.9260	3.9261	-0.6679	5.99	0.00	-0.750			
0.1279	8184.83	3.9230	3.9229	-0.6792	6.00	0.01	-0.750			
0.1299	8315.72	3.9200	3.9200	-0.6868	6.00	0.01	-0.750			
0.1320	8447.89	3.9170	3.9170	-0.6972	6.00	0.01	-0.750			
0.1341	8585.04	3.9140	3.9140	-0.7054	6.01	0.02	-0.750			
0.1363	8721.91	3.9110	3.9109	-0.7166	6.01	0.02	-0.750			
0.1384	8860.45	3.9080	3.9079	-0.7235	6.01	0.02	-0.750			
0.1406	8998.95	3.9050	3.9051	-0.7299	6.02	0.03	-0.750			
0.1428	9139.21	3.9020	3.9019	-0.7371	6.02	0.03	-0.750			
0.1450	9282.58	3.8990	3.8991	-0.7419	6.02	0.03	-0.750			
0.1473	9426.49	3.8960	3.8959	-0.7471	6.03	0.04	-0.750			
0.1496	9571.21	3.8930	3.8931	-0.7475	6.03	0.04	-0.750			
0.1518	9713.98	3.8900	3.8900	-0.7486	6.03	0.04	-0.750			
0.1540	9857.71	3.8870	3.8870	-0.7563	6.04	0.05	-0.750			
0.1563	10002.41	3.8840	3.8840	-0.7603	6.04	0.05	-0.750			
0.1586	10150.53	3.8810	3.8809	-0.7633	6.05	0.06	-0.750			
0.1609	10297.61	3.8780	3.8779	-0.7670	6.05	0.06	-0.750			
0.1632	10446.23	3.8750	3.8750	-0.7704	6.05	0.06	-0.750			
0.1655	10594.04	3.8720	3.8720	-0.7754	6.06	0.07	-0.750			
0.1678	10742.13	3.8690	3.8689	-0.7713	6.07	0.08	-0.750			
0.1702	10890.25	3.8660	3.8660	-0.7725	6.08	0.09	-0.750			
0.1725	11039.50	3.8630	3.8630	-0.7767	6.08	0.09	-0.750			
0.1748	11189.68	3.8600	3.8601	-0.7796	6.09	0.10	-0.750			
0.1772	11338.41	3.8570	3.8570	-0.7799	6.10	0.11	-0.750			
0.1795	11488.36	3.8540	3.8540	-0.7824	6.11	0.12	-0.750			
0.1818	11638.39	3.8510	3.8510	-0.7823	6.11	0.12	-0.750			
0.1842	11790.37	3.8480	3.8480	-0.7880	6.12	0.13	-0.750			
0.1866	11941.26	3.8450	3.8448	-0.7875	6.13	0.14	-0.750			
0.1890	12093.42	3.8420	3.8419	-0.7823	6.14	0.15	-0.750			
0.1913	12242.18	3.8390	3.8391	-0.7886	6.14	0.15	-0.750			
0.1936	12393.05	3.8360	3.8361	-0.7906	6.15	0.16	-0.750			
0.1960	12545.60	3.8330	3.8329	-0.7940	6.16	0.17	-0.750			
0.1984	12699.19	3.8300	3.8300	-0.7951	6.17	0.18	-0.750			
0.2008	12851.24	3.8270	3.8271	-0.7962	6.17	0.18	-0.750			
0.2032	13004.60	3.8240	3.8240	-0.8056	6.18	0.19	-0.750			
0.2057	13161.92	3.8210	3.8210	-0.8013	6.18	0.19	-0.750			
0.2080	13313.57	3.8180	3.8179	-0.7966	6.18	0.19	-0.750			
0.2104	13468.12	3.8150	3.8150	-0.7988	6.19	0.20	-0.750			
0.2128	13621.94	3.8120	3.8120	-0.7951	6.20	0.21	-0.750			
0.2152	13773.02	3.8090	3.8089	-0.7964	6.21	0.22	-0.750			
0.2176	13924.46	3.8060	3.8061	-0.7939	6.22	0.23	-0.750			
0.2199	14076.02	3.8030	3.8030	-0.7890	6.23	0.24	-0.750			
0.2223	14229.74	3.8000	3.7998	-0.7956	6.24	0.25	-0.750			
0.2247	14381.57	3.7970	3.7972	-0.7947	6.25	0.26	-0.750			
0.2271	14534.92	3.7940	3.7939	-0.7954	6.26	0.27	-0.750			
0.2295	14687.88	3.7910	3.7910	-0.8072	6.27	0.28	-0.750			
0.2319	14843.70	3.7880	3.7880	-0.8071	6.27	0.28	-0.750			
0.2344	15000.03	3.7850	3.7849	-0.8099	6.28	0.29	-0.750			
0.2368	15156.53	3.7820	3.7823	-0.8084	6.29	0.30	-0.750			
0.2392	15311.81	3.7790	3.7790	-0.8033	6.30	0.31	-0.750			
0.2416	15465.42	3.7760	3.7760	-0.8080	6.31	0.32	-0.750			
0.2440	15618.46	3.7730	3.7730	-0.8097	6.31	0.32	-0.750			
0.2465	15775.21	3.7700	3.7699	-0.8088	6.32	0.33	-0.750			
0.2489	15931.48	3.7670	3.7673	-0.8078	6.33	0.34	-0.750			
0.2514	16087.05	3.7640	3.7640	-0.8114	6.33	0.34	-0.750			
0.2538	16242.31	3.7610	3.7610	-0.8138	6.34	0.35	-0.750			
0.2562	16397.08	3.7580	3.7579	-0.8134	6.34	0.35	-0.750			
0.2586	16553.45	3.7550	3.7550	-0.8074	6.35	0.36	-0.750			
0.2611	16710.51	3.7520	3.7521	-0.8105	6.35	0.36	-0.750			
0.2636	16867.21	3.7490	3.7490	-0.8155	6.36	0.37	-0.750			
0.2660	17024.60	3.7460	3.7460	-0.8152	6.36	0.37	-0.750			
0.2684	17179.21	3.7430	3.7428	-0.8153	6.37	0.38	-0.750			
0.2709	17334.87	3.7400	3.7401	-0.8179	6.38	0.39	-0.750			
0.2733	17492.59	3.7370	3.7370	-0.8264	6.39	0.40	-0.750			
0.2758	17652.94	3.7340	3.7338	-0.8326	6.40	0.41	-0.750			
0.2783	17812.64	3.7310	3.7310	-0.8367	6.40	0.41	-0.750			
0.2808	17973.38	3.7280	3.7280	-0.8424	6.41	0.42	-0.750			
0.2834	18137.37	3.7250	3.7250	-0.8459	6.42	0.43	-0.750			
0.2860	18301.20	3.7220	3.7219	-0.8487	6.43	0.44	-0.750			
0.2884	18459.47	3.7190	3.7190	-0.8721	6.44	0.45	-0.750			
0.2910	18623.51	3.7160	3.7161	-0.8948	6.44	0.45	-0.750			
0.2938	18800.90	3.7130	3.7128	-0.9171	6.45	0.46	-0.750			
0.2966	18979.95	3.7100	3.7096	-0.9311	6.46	0.47	-0.750			
0.2995	19168.60	3.7070	3.7075	-0.9400	6.47	0.48	-0.750			
0.3024	19351.92	3.7040	3.7040	-0.9399	6.48	0.49	-0.750			
0.3052	19534.44	3.7010	3.7009	-0.9329	6.48	0.49	-0.750			
0.3079	19708.03	3.6980	3.6979	-0.9166	6.48	0.49	-0.750			
0.3106	19878.27	3.6950	3.6950	-0.9104	6.49	0.50	-0.750			
0.3133	20053.46	3.6920	3.6921	-0.9181	6.50	0.51	-0.750			
0.3161	20229.10	3.6890	3.6890	-0.9310	6.50	0.51	-0.750			
0.3189	20408.72	3.6860	3.6858	-0.9369	6.51	0.52	-0.750			
0.3217	20588.43	3.6830	3.6830	-0.9435	6.52	0.53	-0.750			
0.3246	20773.22	3.6800	3.6801	-0.9571	6.53	0.54	-0.750			
0.3275	20957.51	3.6770	3.6768	-0.9665	6.54	0.55	-0.750			
0.3304	21144.21	3.6740	3.6740	-0.9740	6.55	0.56	-0.750			
0.3333	21330.06	3.6710	3.6710	-0.9802	6.56	0.57	-0.750			
0.3362	21519.91	3.6680	3.6681	-0.9923	6.57	0.58	-0.750			
0.3392	21711.47	3.6650	3.6649	-1.0078	6.57	0.58	-0.750			
0.3423	21904.17	3.6620	3.6620	-1.0186	6.58	0.59	-0.750			
0.3453	22101.06	3.6590	3.6590	-1.0291	6.58	0.59	-0.750			
0.3484	22298.93	3.6560	3.6560	-1.0423	6.59	0.60	-0.750			
0.3516	22502.83	3.6530	3.6530	-1.0611	6.60	0.61	-0.750			
0.3548	22708.86	3.6500	3.6499	-1.0703	6.60	0.61	-0.750			
0.3581	22915.40	3.6470	3.6469	-1.0843	6.61	0.62	-0.750			
0.3613	23124.24	3.6440	3.6442	-1.0943	6.62	0.63	-0.750			
0.3646	23337.34	3.6410	3.6409	-1.1088	6.62	0.63	-0.750			
0.3680	23552.08	3.6380	3.6380	-1.1193	6.63	0.64	-0.750			
0.3714	23767.66	3.6350	3.6350	-1.1216	6.63	0.64	-0.750			
0.3747	23981.88	3.6320	3.6322	-1.1416	6.63	0.64	-0.750			
0.3782	24204.22	3.6290	3.6290	-1.1536	6.64	0.65	-0.750			
0.3816	24425.24	3.6260	3.6259	-1.1630	6.64	0.65	-0.750			
0.3851	24646.08	3.6230	3.6231	-1.1873	6.65	0.66	-0.750			
0.3887	24878.80	3.6200	3.6198	-1.2059	6.65	0.66	-0.750			
0.3924	25111.49	3.6170	3.6170	-1.2159	6.66	0.67	-0.750			
0.3961	25348.68	3.6140	3.6139	-1.2283	6.67	0.68	-0.750			
0.3997	25582.77	3.6110	3.6113	-1.2463	6.67	0.68	-0.750			
0.4035	25826.58	3.6080	3.6080	-1.2635	6.67	0.68	-0.750			
0.4073	26070.10	3.6050	3.6049	-1.2714	6.67	0.68	-0.750			
0.4112	26313.69	3.6020	3.6019	-1.2828	6.67	0.68	-0.750			
0.4150	26561.41	3.5990	3.5994	-1.3008	6.67	0.68	-0.750	0.462	1.074	
0.4189	26811.80	3.5960	3.5960	-1.3169	6.68	0.69	-0.750			
0.4229	27064.97	3.5930	3.5929	-1.3363	6.68	0.69	-0.750			
0.4269	27323.07	3.5900	3.5900	-1.3483	6.68	0.69	-0.750			
0.4310	27586.93	3.5870	3.5870	-1.3643	6.69	0.70	-0.750			
0.4352	27850.80	3.5840	3.5839	-1.3845	6.69	0.70	-0.750			
0.4393	28117.28	3.5810	3.5810	-1.3931	6.69	0.70	-0.750			
0.4435	28385.32	3.5780	3.5779	-1.4032	6.69	0.70	-0.750			
0.4477	28654.48	3.5750	3.5750	-1.4190	6.69	0.70	-0.750			
0.4519	28924.49	3.5720	3.5720	-1.4408	6.69	0.70	-0.750			
0.4564	29209.39	3.5690	3.5689	-1.4649	6.69	0.70	-0.750			
0.4608	29492.29	3.5660	3.5660	-1.4827	6.69	0.70	-0.750			
0.4653	29776.97	3.5630	3.5630	-1.4999	6.69	0.70	-0.750			
0.4699	30071.45	3.5600	3.5599	-1.5195	6.69	0.70	-0.750			
0.4745	30366.17	3.5570	3.5571	-1.5274	6.69	0.70	-0.750			
0.4790	30657.22	3.5540	3.5541	-1.5399	6.69	0.70	-0.750			
0.4837	30956.30	3.5510	3.5509	-1.5533	6.69	0.70	-0.750			
0.4884	31254.87	3.5480	3.5480	-1.5808	6.69	0.70	-0.750			
0.4931	31558.65	3.5450	3.5448	-1.5961	6.70	0.71	-0.750			
0.4979	31867.52	3.5420	3.5420	-1.6036	6.70	0.71	-0.750			
0.5028	32181.87	3.5390	3.5389	-1.6184	6.70	0.71	-0.750			
0.5077	32493.92	3.5360	3.5359	-1.6363	6.71	0.72	-0.750			
0.5126	32806.62	3.5330	3.5330	-1.6308	6.71	0.72	-0.750			
0.5175	33118.16	3.5300	3.5302	-1.6429	6.71	0.72	-0.750			
0.5224	33434.67	3.5270	3.5271	-1.6525	6.71	0.72	-0.750			
0.5274	33754.55	3.5240	3.5238	-1.6633	6.71	0.72	-0.750			
0.5325	34080.32	3.5210	3.5208	-1.6858	6.71	0.72	-0.750			
0.5375	34403.19	3.5180	3.5181	-1.7006	6.71	0.72	-0.750			
0.5427	34730.08	3.5150	3.5151	-1.7065	6.71	0.72	-0.750			
0.5479	35062.86	3.5120	3.5121	-1.7004	6.71	0.72	-0.750			
0.5530	35389.88	3.5090	3.5089	-1.7001	6.72	0.73	-0.750			
0.5580	35714.06	3.5060	3.5059	-1.7108	6.72	0.73	-0.750			
0.5631	36040.89	3.5030	3.5029	-1.7147	6.73	0.74	-0.750			
0.5683	36369.32	3.5000	3.5001	-1.6925	6.74	0.75	-0.750			
0.5734	36696.62	3.4970	3.4971	-1.7031	6.74	0.75	-0.750			
0.5786	37028.97	3.4940	3.4940	-1.6833	6.74	0.75	-0.750			
0.5836	37350.51	3.4910	3.4908	-1.6645	6.75	0.76	-0.750			
0.5885	37665.28	3.4880	3.4879	-1.6474	6.75	0.76	-0.750			
0.5934	37975.80	3.4850	3.4852	-1.6352	6.76	0.77	-0.750			
0.5982	38286.08	3.4820	3.4819	-1.6171	6.77	0.78	-0.750			
0.6031	38597.15	3.4790	3.4790	-1.6032	6.78	0.79	-0.750			
0.6079	38903.73	3.4760	3.4760	-1.5992	6.78	0.79	-0.750			
0.6129	39223.08	3.4730	3.4730	-1.5883	6.79	0.80	-0.750			
0.6176	39524.13	3.4700	3.4702	-1.5511	6.80	0.81	-0.750			
0.6222	39819.08	3.4670	3.4670	-1.5296	6.81	0.82	-0.750			
0.6267	40110.29	3.4640	3.4640	-1.5039	6.81	0.82	-0.750			
0.6311	40393.06	3.4610	3.4609	-1.4853	6.82	0.83	-0.750			
0.6355	40673.40	3.4580	3.4578	-1.4800	6.83	0.84	-0.750			
0.6400	40957.97	3.4550	3.4550	-1.4637	6.84	0.85	-0.750			
0.6444	41242.52	3.4520	3.4519	-1.4560	6.84	0.85	-0.750			
0.6488	41523.79	3.4490	3.4492	-1.4379	6.85	0.86	-0.750			
0.6531	41797.10	3.4460	3.4460	-1.3988	6.86	0.87	-0.750			
0.6573	42067.80	3.4430	3.4429	-1.3800	6.88	0.89	-0.750			
0.6614	42326.87	3.4400	3.4402	-1.3571	6.89	0.90	-0.750			
0.6654	42584.15	3.4370	3.4369	-1.3301	6.90	0.91	-0.750			
0.6693	42838.33	3.4340	3.4338	-1.2995	6.91	0.92	-0.750			
0.6732	43083.56	3.4310	3.4312	-1.2700	6.93	0.94	-0.750			
0.6770	43329.94	3.4280	3.4279	-1.2497	6.94	0.95	-0.750			
0.6807	43565.41	3.4250	3.4249	-1.2135	6.95	0.96	-0.750			
0.6843	43792.82	3.4220	3.4220	-1.1835	6.96	0.97	-0.750			
0.6877	44012.27	3.4190	3.4191	-1.1536	6.97	0.98	-0.750			
0.6912	44235.40	3.4160	3.4159	-1.1326	6.98	0.99	-0.750			
0.6945	44450.23	3.4130	3.4129	-1.1041	7.00	1.01	-0.750			
0.6978	44657.95	3.4100	3.4101	-1.0719	7.01	1.02	-0.750			
0.7010	44865.30	3.4070	3.4069	-1.0504	7.02	1.03	-0.750			
0.7041	45062.10	3.4040	3.4040	-1.0161	7.03	1.04	-0.750			
0.7071	45253.64	3.4010	3.4009	-0.9860	7.04	1.05	-0.750			
0.7100	45438.46	3.3980	3.3980	-0.9575	7.04	1.05	-0.750			
0.7128	45620.41	3.3950	3.3950	-0.9369	7.06	1.07	-0.750			
0.7156	45798.04	3.3920	3.3920	-0.9116	7.07	1.08	-0.750			
0.7183	45970.76	3.3890	3.3890	-0.8883	7.08	1.09	-0.750			
0.7209	46139.92	3.3860	3.3859	-0.8625	7.09	1.10	-0.750			
0.7235	46303.48	3.3830	3.3831	-0.8351	7.11	1.12	-0.750			
0.7260	46461.99	3.3800	3.3799	-0.8043	7.12	1.13	-0.750			
0.7283	46613.35	3.3770	3.3770	-0.7707	7.13	1.14	-0.750			
0.7306	46757.62	3.3740	3.3740	-0.7380	7.14	1.15	-0.750			
0.7328	46896.26	3.3710	3.3710	-0.7045	7.15	1.16	-0.750			
