Ah_balance (normalized)	Ah_balance (mAh)	Voltage - fit (V)	Voltage -  interpolate (V)	dQ/dV (1/V)	Temperature (°C)	Temperature - diff (°C)	Current (C)	R_DC 0ms (mOhm)	R_DC 50ms (mOhm)	R_DC 50 ms PEC (mOhm)
0.1793	11472.88	4.0800	4.0801	0.7676	7.39	1.40	0.750			
0.1816	11620.47	4.0770	4.0769	0.7718	7.39	1.40	0.750			
0.1839	11769.12	4.0740	4.0742	0.7760	7.38	1.39	0.750			
0.1862	11918.15	4.0710	4.0710	0.7827	7.38	1.39	0.750			
0.1886	12069.43	4.0680	4.0680	0.7896	7.37	1.38	0.750			
0.1909	12220.73	4.0650	4.0649	0.7959	7.37	1.38	0.750			
0.1934	12374.77	4.0620	4.0620	0.8018	7.36	1.37	0.750			
0.1958	12531.54	4.0590	4.0590	0.7953	7.36	1.37	0.750			
0.1982	12684.36	4.0560	4.0560	0.7994	7.35	1.36	0.750			
0.2006	12835.78	4.0530	4.0530	0.8051	7.34	1.35	0.750			
0.2029	12988.63	4.0500	4.0501	0.8046	7.33	1.34	0.750			
0.2054	13143.24	4.0470	4.0470	0.8140	7.33	1.34	0.750			
0.2078	13301.41	4.0440	4.0440	0.8147	7.32	1.33	0.750			
0.2103	13459.95	4.0410	4.0411	0.8207	7.32	1.33	0.750			
0.2128	13621.00	4.0380	4.0380	0.8257	7.32	1.33	0.750			
0.2152	13775.86	4.0350	4.0351	0.8222	7.31	1.32	0.750			
0.2177	13933.25	4.0320	4.0320	0.8233	7.31	1.32	0.750			
0.2202	14094.89	4.0290	4.0289	0.8146	7.30	1.31	0.750			
0.2226	14248.03	4.0260	4.0260	0.8191	7.29	1.30	0.750			
0.2251	14406.76	4.0230	4.0231	0.8292	7.28	1.29	0.750			
0.2275	14563.13	4.0200	4.0201	0.8380	7.27	1.28	0.750			
0.2301	14724.03	4.0170	4.0171	0.8458	7.27	1.28	0.750			
0.2327	14891.59	4.0140	4.0140	0.8341	7.26	1.27	0.750			
0.2352	15053.50	4.0110	4.0111	0.8454	7.26	1.27	0.750			
0.2377	15215.92	4.0080	4.0082	0.8504	7.26	1.27	0.750			
0.2403	15376.64	4.0050	4.0051	0.8469	7.25	1.26	0.750			
0.2428	15538.94	4.0020	4.0022	0.8489	7.25	1.26	0.750			
0.2454	15704.06	3.9990	3.9991	0.8411	7.24	1.25	0.750			
0.2479	15866.35	3.9960	3.9961	0.8547	7.24	1.25	0.750			
0.2505	16031.49	3.9930	3.9931	0.8615	7.24	1.25	0.750			
0.2531	16195.56	3.9900	3.9899	0.8552	7.23	1.24	0.750			
0.2556	16359.80	3.9870	3.9871	0.8604	7.23	1.24	0.750			
0.2582	16526.16	3.9840	3.9841	0.8578	7.22	1.23	0.750			
0.2608	16691.26	3.9810	3.9810	0.8672	7.22	1.23	0.750			
0.2634	16856.78	3.9780	3.9781	0.8713	7.21	1.22	0.750			
0.2659	17020.73	3.9750	3.9749	0.9152	7.21	1.22	0.750			
0.2687	17199.04	3.9720	3.9720	0.9352	7.20	1.21	0.750			
0.2717	17385.89	3.9690	3.9688	0.9576	7.20	1.21	0.750			
0.2747	17578.62	3.9660	3.9662	0.9707	7.19	1.20	0.750			
0.2777	17770.40	3.9630	3.9633	0.9598	7.18	1.19	0.750			
0.2805	17954.25	3.9600	3.9600	0.9413	7.18	1.19	0.750			
0.2833	18129.91	3.9570	3.9570	0.9226	7.17	1.18	0.750			
0.2859	18299.20	3.9540	3.9540	0.9086	7.16	1.17	0.750			
0.2887	18475.29	3.9510	3.9510	0.9175	7.16	1.17	0.750			
0.2914	18649.62	3.9480	3.9479	0.9161	7.15	1.16	0.750			
0.2942	18827.37	3.9450	3.9450	0.9198	7.15	1.16	0.750			
0.2969	19003.85	3.9420	3.9420	0.9284	7.14	1.15	0.750			
0.2997	19182.95	3.9390	3.9390	0.9332	7.14	1.15	0.750			
0.3025	19362.18	3.9360	3.9360	0.9357	7.13	1.14	0.750			
0.3054	19544.04	3.9330	3.9330	0.9386	7.13	1.14	0.750			
0.3082	19723.37	3.9300	3.9301	0.9458	7.12	1.13	0.750			
0.3110	19905.11	3.9270	3.9270	0.9567	7.11	1.12	0.750			
0.3139	20088.25	3.9240	3.9240	0.9693	7.10	1.11	0.750			
0.3168	20273.48	3.9210	3.9209	0.9806	7.09	1.10	0.750			
0.3198	20464.66	3.9180	3.9180	0.9934	7.08	1.09	0.750			
0.3228	20657.82	3.9150	3.9150	1.0090	7.08	1.09	0.750			
0.3258	20854.16	3.9120	3.9121	1.0174	7.07	1.08	0.750			
0.3289	21050.07	3.9090	3.9087	1.0225	7.07	1.08	0.750			
0.3320	21247.68	3.9060	3.9060	1.0244	7.06	1.07	0.750			
0.3351	21444.48	3.9030	3.9031	1.0318	7.05	1.06	0.750			
0.3382	21641.82	3.9000	3.9000	1.0410	7.04	1.05	0.750			
0.3413	21842.57	3.8970	3.8968	1.0529	7.03	1.04	0.750			
0.3444	22044.12	3.8940	3.8941	1.0556	7.02	1.03	0.750			
0.3476	22247.47	3.8910	3.8911	1.0733	7.01	1.02	0.750			
0.3509	22455.00	3.8880	3.8881	1.0903	7.00	1.01	0.750			
0.3542	22668.07	3.8850	3.8847	1.0996	6.99	1.00	0.750			
0.3575	22877.42	3.8820	3.8821	1.1128	6.98	0.99	0.750			
0.3608	23091.94	3.8790	3.8791	1.1331	6.97	0.98	0.750			
0.3643	23312.19	3.8760	3.8760	1.1507	6.96	0.97	0.750			
0.3677	23534.92	3.8730	3.8730	1.1566	6.95	0.96	0.750			
0.3712	23758.12	3.8700	3.8701	1.1716	6.94	0.95	0.750			
0.3748	23984.76	3.8670	3.8671	1.1917	6.94	0.95	0.750			
0.3784	24218.47	3.8640	3.8638	1.1967	6.93	0.94	0.750			
0.3820	24446.12	3.8610	3.8610	1.2116	6.92	0.93	0.750			
0.3856	24678.93	3.8580	3.8581	1.2303	6.90	0.91	0.750			
0.3894	24918.54	3.8550	3.8551	1.2500	6.89	0.90	0.750			
0.3931	25159.87	3.8520	3.8519	1.2626	6.87	0.88	0.750			
0.3969	25403.30	3.8490	3.8491	1.2841	6.86	0.87	0.750			
0.4008	25654.31	3.8460	3.8461	1.2941	6.84	0.85	0.750			
0.4047	25901.69	3.8430	3.8430	1.3520	6.83	0.84	0.750			
0.4087	26159.55	3.8400	3.8401	1.3895	6.81	0.82	0.750			
0.4131	26435.24	3.8370	3.8366	1.4116	6.80	0.81	0.750	0.395	0.949	
0.4174	26710.77	3.8340	3.8342	1.4489	6.79	0.80	0.750			
0.4219	27000.99	3.8310	3.8312	1.4574	6.77	0.78	0.750			
0.4264	27286.91	3.8280	3.8281	1.4628	6.76	0.77	0.750			
0.4306	27556.32	3.8250	3.8252	1.4471	6.74	0.75	0.750			
0.4348	27826.16	3.8220	3.8219	1.4665	6.73	0.74	0.750			
0.4392	28109.32	3.8190	3.8190	1.5075	6.72	0.73	0.750			
0.4438	28401.53	3.8160	3.8160	1.5778	6.70	0.71	0.750			
0.4485	28706.53	3.8130	3.8128	1.6334	6.68	0.69	0.750			
0.4536	29030.47	3.8100	3.8099	1.6798	6.65	0.66	0.750			
0.4588	29361.75	3.8070	3.8070	1.7075	6.63	0.64	0.750			
0.4640	29697.00	3.8040	3.8042	1.7481	6.61	0.62	0.750			
0.4692	30028.92	3.8010	3.8011	1.7764	6.59	0.60	0.750			
0.4746	30375.13	3.7980	3.7980	1.8072	6.57	0.58	0.750			
0.4801	30724.41	3.7950	3.7949	1.8370	6.55	0.56	0.750			
0.4857	31083.83	3.7920	3.7922	1.8775	6.53	0.54	0.750			
0.4914	31449.55	3.7890	3.7891	1.9118	6.51	0.52	0.750			
0.4973	31824.85	3.7860	3.7861	1.9459	6.49	0.50	0.750			
0.5031	32196.46	3.7830	3.7830	1.9949	6.47	0.48	0.750			
0.5092	32588.75	3.7800	3.7801	2.0212	6.45	0.46	0.750			
0.5152	32972.80	3.7770	3.7770	2.0356	6.42	0.43	0.750			
0.5212	33356.92	3.7740	3.7741	2.0646	6.40	0.41	0.750			
0.5276	33764.04	3.7710	3.7709	2.0871	6.38	0.39	0.750			
0.5337	34156.25	3.7680	3.7680	2.1617	6.35	0.36	0.750			
0.5402	34575.29	3.7650	3.7649	2.1987	6.33	0.34	0.750			
0.5470	35008.25	3.7620	3.7622	2.2049	6.30	0.31	0.750			
0.5536	35430.97	3.7590	3.7591	2.2263	6.27	0.28	0.750			
0.5604	35868.48	3.7560	3.7557	2.2161	6.25	0.26	0.750			
0.5672	36297.99	3.7530	3.7530	2.3016	6.23	0.24	0.750			
0.5740	36735.64	3.7500	3.7501	2.2776	6.19	0.20	0.750			
0.5810	37186.22	3.7470	3.7472	2.2922	6.16	0.17	0.750			
0.5878	37619.51	3.7440	3.7439	2.3303	6.14	0.15	0.750			
0.5949	38070.75	3.7410	3.7415	2.4038	6.12	0.13	0.750			
0.6023	38545.90	3.7380	3.7381	2.5007	6.10	0.11	0.750			
0.6099	39032.08	3.7350	3.7352	2.6262	6.07	0.08	0.750			
0.6181	39557.44	3.7320	3.7319	2.7251	6.05	0.06	0.750			
0.6265	40092.90	3.7290	3.7289	2.8136	6.03	0.04	0.750			
0.6351	40644.60	3.7260	3.7260	2.8371	6.02	0.03	0.750			
0.6438	41202.91	3.7230	3.7230	2.8051	6.00	0.01	0.750			
0.6519	41719.97	3.7200	3.7200	2.6480	5.98	-0.01	0.750			
0.6597	42217.66	3.7170	3.7170	2.5075	5.96	-0.03	0.750			
0.6670	42689.12	3.7140	3.7140	2.3466	5.95	-0.04	0.750			
0.6739	43126.71	3.7110	3.7110	2.1483	5.95	-0.04	0.750			
0.6800	43522.10	3.7080	3.7080	1.9221	5.95	-0.04	0.750			
0.6854	43866.48	3.7050	3.7049	1.7064	5.94	-0.05	0.750			
0.6902	44172.54	3.7020	3.7021	1.5064	5.94	-0.05	0.750			
0.6943	44436.16	3.6990	3.6990	1.3228	5.94	-0.05	0.750			
0.6978	44659.80	3.6960	3.6962	1.1687	5.95	-0.04	0.750			
0.7011	44871.57	3.6930	3.6929	1.0659	5.95	-0.04	0.750			
0.7040	45056.33	3.6900	3.6897	0.9818	5.95	-0.04	0.750			
0.7067	45228.88	3.6870	3.6871	0.9061	5.95	-0.04	0.750			
0.7093	45397.69	3.6840	3.6840	0.8560	5.95	-0.04	0.750			
0.7118	45558.21	3.6810	3.6810	0.8125	5.95	-0.04	0.750			
0.7142	45709.36	3.6780	3.6780	0.7647	5.95	-0.04	0.750			
0.7164	45852.23	3.6750	3.6748	0.7221	5.95	-0.04	0.750			
0.7185	45986.79	3.6720	3.6719	0.6753	5.96	-0.03	0.750			
0.7205	46112.69	3.6690	3.6690	0.6297	5.96	-0.03	0.750			
0.7223	46229.76	3.6660	3.6660	0.5833	5.97	-0.02	0.750			
0.7240	46337.27	3.6630	3.6630	0.5339	5.97	-0.02	0.750			
0.7255	46434.43	3.6600	3.6600	0.4883	5.98	-0.01	0.750			
0.7269	46523.31	3.6570	3.6570	0.4445	5.98	-0.01	0.750			
0.7282	46603.50	3.6540	3.6541	0.4031	5.99	-0.00	0.750			
0.7293	46677.31	3.6510	3.6510	0.3643	5.99	0.00	0.750			
0.7304	46743.34	3.6480	3.6480	0.3267	5.99	0.00	0.750			
0.7313	46802.31	3.6450	3.6450	0.2902	6.00	0.01	0.750			
0.7321	46855.26	3.6420	3.6420	0.2526	6.00	0.01	0.750			
0.7328	46900.33	3.6390	3.6388	0.2146	6.00	0.01	0.750			
0.7334	46937.86	3.6360	3.6360	0.1762	6.00	0.01	0.750			
0.7339	46968.27	3.6330	3.6332	0.1378	6.01	0.02	0.750			
0.7343	46992.48	3.6300	3.6304	0.0985	6.01	0.02	0.750			
0.7345	47007.34	3.6270	3.6279	0.0563	6.01	0.02	0.750			
0.7346	47014.20	3.6240	3.6263	0.0094	6.01	0.02	0.751			
