Ah_balance (normalized)	Ah_balance (mAh)	Voltage - fit (V)	Voltage -  interpolate (V)	dQ/dV (1/V)	Temperature (°C)	Temperature - diff (°C)	Current (C)	R_DC 0ms (mOhm)	R_DC 50ms (mOhm)	R_DC 50 ms PEC (mOhm)
0.1774	11351.69	4.0830	4.0830	0.6927	7.71	1.72	0.750			
0.1795	11489.56	4.0800	4.0800	0.7372	7.71	1.72	0.750			
0.1818	11634.56	4.0770	4.0769	0.7552	7.70	1.71	0.750			
0.1841	11780.18	4.0740	4.0738	0.7632	7.69	1.70	0.750			
0.1864	11928.80	4.0710	4.0712	0.7709	7.68	1.69	0.750			
0.1887	12078.68	4.0680	4.0680	0.7708	7.68	1.69	0.750			
0.1910	12226.62	4.0650	4.0649	0.7749	7.67	1.68	0.750			
0.1934	12374.60	4.0620	4.0620	0.7802	7.66	1.67	0.750			
0.1957	12523.62	4.0590	4.0590	0.7816	7.65	1.66	0.750			
0.1980	12672.82	4.0560	4.0560	0.7877	7.65	1.66	0.750			
0.2004	12825.39	4.0530	4.0530	0.7905	7.64	1.65	0.750			
0.2028	12978.29	4.0500	4.0499	0.7973	7.63	1.64	0.750			
0.2052	13133.35	4.0470	4.0470	0.8030	7.62	1.63	0.750			
0.2076	13286.53	4.0440	4.0439	0.8009	7.62	1.63	0.750			
0.2100	13441.16	4.0410	4.0410	0.8012	7.61	1.62	0.750			
0.2124	13596.05	4.0380	4.0380	0.8039	7.60	1.61	0.750			
0.2148	13749.29	4.0350	4.0350	0.7990	7.60	1.61	0.750			
0.2172	13902.22	4.0320	4.0320	0.8069	7.59	1.60	0.750			
0.2196	14056.00	4.0290	4.0290	0.8078	7.59	1.60	0.750			
0.2221	14211.28	4.0260	4.0257	0.8171	7.58	1.59	0.750			
0.2245	14369.93	4.0230	4.0231	0.8221	7.57	1.58	0.750			
0.2270	14528.92	4.0200	4.0200	0.8228	7.56	1.57	0.750			
0.2295	14687.90	4.0170	4.0171	0.8282	7.56	1.57	0.750			
0.2320	14845.71	4.0140	4.0141	0.8260	7.55	1.56	0.750			
0.2344	15004.00	4.0110	4.0107	0.8332	7.54	1.55	0.750			
0.2370	15165.07	4.0080	4.0081	0.8386	7.53	1.54	0.750			
0.2395	15325.96	4.0050	4.0050	0.8361	7.52	1.53	0.750			
0.2420	15488.78	4.0020	4.0020	0.8445	7.52	1.53	0.750			
0.2445	15649.07	3.9990	3.9991	0.8425	7.51	1.52	0.750			
0.2471	15811.94	3.9960	3.9957	0.8487	7.50	1.51	0.750			
0.2496	15975.91	3.9930	3.9930	0.8494	7.49	1.50	0.750			
0.2522	16139.07	3.9900	3.9900	0.8522	7.49	1.50	0.750			
0.2547	16303.50	3.9870	3.9871	0.8607	7.48	1.49	0.750			
0.2573	16467.70	3.9840	3.9840	0.8648	7.48	1.49	0.750			
0.2599	16633.75	3.9810	3.9810	0.8683	7.47	1.48	0.750			
0.2625	16801.90	3.9780	3.9780	0.8755	7.46	1.47	0.750			
0.2652	16970.59	3.9750	3.9751	0.8863	7.45	1.46	0.750			
0.2679	17142.86	3.9720	3.9720	0.8926	7.44	1.45	0.750			
0.2706	17315.81	3.9690	3.9690	0.8938	7.43	1.44	0.750			
0.2732	17487.48	3.9660	3.9661	0.8933	7.42	1.43	0.750			
0.2759	17660.48	3.9630	3.9630	0.8852	7.41	1.42	0.750			
0.2786	17829.50	3.9600	3.9600	0.8913	7.40	1.41	0.750			
0.2812	17997.65	3.9570	3.9571	0.8949	7.39	1.40	0.750			
0.2839	18168.50	3.9540	3.9539	0.9002	7.37	1.38	0.750			
0.2866	18345.40	3.9510	3.9510	0.9058	7.36	1.37	0.750			
0.2894	18518.88	3.9480	3.9481	0.9160	7.35	1.36	0.750			
0.2921	18694.83	3.9450	3.9451	0.9256	7.35	1.36	0.750			
0.2949	18875.34	3.9420	3.9420	0.9352	7.34	1.35	0.750			
0.2977	19053.25	3.9390	3.9389	0.9353	7.33	1.34	0.750			
0.3005	19233.50	3.9360	3.9361	0.9377	7.32	1.33	0.750			
0.3033	19413.91	3.9330	3.9331	0.9505	7.31	1.32	0.750			
0.3062	19598.06	3.9300	3.9300	0.9574	7.30	1.31	0.750			
0.3091	19781.58	3.9270	3.9268	0.9596	7.29	1.30	0.750			
0.3120	19966.91	3.9240	3.9241	0.9651	7.28	1.29	0.750			
0.3149	20152.96	3.9210	3.9211	0.9775	7.27	1.28	0.750			
0.3178	20342.31	3.9180	3.9180	0.9872	7.26	1.27	0.750			
0.3208	20530.58	3.9150	3.9149	0.9919	7.24	1.25	0.750			
0.3238	20722.60	3.9120	3.9120	1.0007	7.23	1.24	0.750			
0.3268	20916.57	3.9090	3.9091	1.0145	7.22	1.23	0.750			
0.3299	21112.65	3.9060	3.9060	1.0220	7.20	1.21	0.750			
0.3330	21309.75	3.9030	3.9030	1.0338	7.19	1.20	0.750			
0.3361	21509.26	3.9000	3.9000	1.0338	7.18	1.19	0.750			
0.3392	21707.09	3.8970	3.8970	1.0479	7.17	1.18	0.750			
0.3423	21908.60	3.8940	3.8940	1.0597	7.16	1.17	0.750			
0.3455	22113.38	3.8910	3.8911	1.0779	7.15	1.16	0.750			
0.3488	22323.74	3.8880	3.8880	1.0753	7.14	1.15	0.750			
0.3521	22532.48	3.8850	3.8850	1.0901	7.13	1.14	0.750			
0.3553	22740.68	3.8820	3.8822	1.1040	7.11	1.12	0.750			
0.3587	22953.68	3.8790	3.8789	1.1185	7.09	1.10	0.750			
0.3620	23166.37	3.8760	3.8760	1.1205	7.08	1.09	0.750			
0.3653	23380.43	3.8730	3.8731	1.1393	7.07	1.08	0.750			
0.3688	23601.12	3.8700	3.8701	1.1592	7.06	1.07	0.750			
0.3724	23830.55	3.8670	3.8667	1.1786	7.05	1.06	0.750			
0.3759	24055.43	3.8640	3.8641	1.1893	7.03	1.04	0.750			
0.3795	24284.81	3.8610	3.8611	1.2041	7.01	1.02	0.750			
0.3831	24520.80	3.8580	3.8579	1.2189	7.00	1.01	0.750			
0.3868	24752.85	3.8550	3.8550	1.2319	6.99	1.00	0.750			
0.3905	24988.96	3.8520	3.8521	1.2500	6.98	0.99	0.750			
0.3942	25229.17	3.8490	3.8490	1.3062	6.97	0.98	0.750			
0.3981	25480.28	3.8460	3.8460	1.3746	6.96	0.97	0.750			
0.4023	25749.96	3.8430	3.8428	1.4324	6.94	0.95	0.750			
0.4068	26037.82	3.8400	3.8402	1.4542	6.92	0.93	0.750	0.380	0.883	
0.4114	26328.30	3.8370	3.8373	1.4902	6.90	0.91	0.750			
0.4159	26618.70	3.8340	3.8341	1.4920	6.88	0.89	0.750			
0.4203	26899.23	3.8310	3.8309	1.4673	6.86	0.87	0.750			
0.4246	27176.78	3.8280	3.8281	1.4638	6.84	0.85	0.750			
0.4289	27451.74	3.8250	3.8246	1.4941	6.82	0.83	0.750			
0.4334	27740.04	3.8220	3.8221	1.5307	6.80	0.81	0.750			
0.4380	28035.14	3.8190	3.8188	1.5639	6.78	0.79	0.750			
0.4429	28348.76	3.8160	3.8160	1.6005	6.76	0.77	0.750			
0.4477	28652.38	3.8130	3.8128	1.6114	6.74	0.75	0.750			
0.4527	28971.65	3.8100	3.8101	1.6461	6.71	0.72	0.750			
0.4576	29283.74	3.8070	3.8068	1.6583	6.69	0.70	0.750			
0.4626	29607.03	3.8040	3.8039	1.7049	6.67	0.68	0.750			
0.4679	29942.51	3.8010	3.8009	1.7345	6.64	0.65	0.750			
0.4731	30279.96	3.7980	3.7979	1.7613	6.61	0.62	0.750			
0.4785	30622.25	3.7950	3.7949	1.7866	6.59	0.60	0.750			
0.4839	30967.96	3.7920	3.7918	1.8134	6.56	0.57	0.750			
0.4892	31310.47	3.7890	3.7891	1.8102	6.53	0.54	0.750			
0.4947	31662.68	3.7860	3.7858	1.8508	6.50	0.51	0.750			
0.5004	32023.87	3.7830	3.7830	1.8873	6.47	0.48	0.750			
0.5060	32381.26	3.7800	3.7802	1.8776	6.45	0.46	0.750			
0.5117	32746.15	3.7770	3.7769	1.9144	6.42	0.43	0.750			
0.5174	33112.96	3.7740	3.7739	1.9344	6.40	0.41	0.750			
0.5232	33483.61	3.7710	3.7711	1.9331	6.37	0.38	0.750			
0.5290	33856.51	3.7680	3.7679	1.9446	6.35	0.36	0.750			
0.5349	34234.67	3.7650	3.7649	1.9468	6.32	0.33	0.750			
0.5408	34608.83	3.7620	3.7620	2.0133	6.29	0.30	0.750			
0.5469	35001.96	3.7590	3.7589	2.0260	6.27	0.28	0.750			
0.5532	35406.06	3.7560	3.7560	2.0710	6.25	0.26	0.750			
0.5594	35804.00	3.7530	3.7528	2.1002	6.22	0.23	0.750			
0.5658	36210.74	3.7500	3.7503	2.1584	6.18	0.19	0.750			
0.5722	36622.34	3.7470	3.7470	2.1627	6.15	0.16	0.750			
0.5789	37047.00	3.7440	3.7440	2.2589	6.13	0.14	0.750			
0.5858	37491.66	3.7410	3.7408	2.3220	6.11	0.12	0.750			
0.5927	37933.51	3.7380	3.7381	2.3400	6.08	0.09	0.750			
0.5998	38387.67	3.7350	3.7352	2.3908	6.06	0.07	0.750			
0.6071	38852.31	3.7320	3.7320	2.3778	6.04	0.05	0.750			
0.6142	39310.43	3.7290	3.7290	2.3926	6.02	0.03	0.750			
0.6216	39779.81	3.7260	3.7257	2.3684	6.01	0.02	0.750			
0.6287	40238.48	3.7230	3.7230	2.3065	5.99	-0.00	0.750			
0.6356	40679.20	3.7200	3.7200	2.1747	5.97	-0.02	0.750			
0.6421	41096.94	3.7170	3.7170	2.0329	5.96	-0.03	0.750			
0.6479	41465.40	3.7140	3.7141	1.8237	5.95	-0.04	0.750			
0.6531	41797.49	3.7110	3.7113	1.6651	5.95	-0.04	0.750			
0.6578	42101.34	3.7080	3.7084	1.5069	5.95	-0.04	0.750			
0.6621	42374.78	3.7050	3.7051	1.3596	5.95	-0.04	0.750			
0.6658	42613.42	3.7020	3.7021	1.2322	5.95	-0.04	0.750			
0.6692	42827.59	3.6990	3.6991	1.1146	5.95	-0.04	0.750			
0.6723	43025.08	3.6960	3.6958	1.0247	5.95	-0.04	0.750			
0.6752	43214.24	3.6930	3.6930	0.9676	5.95	-0.04	0.750			
0.6780	43392.82	3.6900	3.6900	0.9270	5.95	-0.04	0.750			
0.6807	43566.70	3.6870	3.6870	0.8911	5.95	-0.04	0.750			
0.6833	43733.08	3.6840	3.6841	0.8544	5.95	-0.04	0.750			
0.6859	43894.73	3.6810	3.6809	0.8260	5.95	-0.04	0.750			
0.6883	44051.29	3.6780	3.6781	0.7946	5.95	-0.04	0.750			
0.6906	44200.41	3.6750	3.6750	0.7600	5.95	-0.04	0.750			
0.6929	44344.74	3.6720	3.6720	0.7305	5.96	-0.03	0.750			
0.6950	44480.37	3.6690	3.6690	0.6943	5.96	-0.03	0.750			
0.6970	44610.34	3.6660	3.6660	0.6587	5.96	-0.03	0.750			
0.6990	44733.14	3.6630	3.6630	0.6221	5.96	-0.03	0.750			
0.7008	44848.94	3.6600	3.6600	0.5904	5.97	-0.02	0.750			
0.7025	44959.73	3.6570	3.6570	0.5566	5.97	-0.02	0.750			
0.7041	45062.83	3.6540	3.6540	0.5217	5.98	-0.01	0.750			
0.7056	45159.76	3.6510	3.6510	0.4858	5.98	-0.01	0.750			
0.7070	45249.56	3.6480	3.6480	0.4534	5.98	-0.01	0.750			
0.7083	45333.59	3.6450	3.6450	0.4207	5.99	-0.00	0.750			
0.7095	45410.90	3.6420	3.6416	0.3858	5.99	0.00	0.750			
0.7106	45480.91	3.6390	3.6390	0.3506	5.99	0.00	0.750			
0.7117	45545.92	3.6360	3.6360	0.3190	6.00	0.01	0.750			
0.7126	45604.08	3.6330	3.6330	0.2855	6.00	0.01	0.750			
0.7134	45656.97	3.6300	3.6299	0.2499	6.00	0.01	0.750			
0.7141	45701.11	3.6270	3.6270	0.2117	6.00	0.01	0.750			
0.7147	45739.03	3.6240	3.6240	0.1755	6.00	0.01	0.750			
0.7152	45770.22	3.6210	3.6211	0.1377	6.00	0.01	0.750			
0.7155	45793.32	3.6180	3.6183	0.0960	6.00	0.01	0.750			
0.7157	45807.60	3.6150	3.6157	0.0528	6.01	0.02	0.750			
0.7158	45813.67	3.6120	3.6134	0.0053	6.01	0.02	0.750			
