Ah_balance (normalized)	Ah_balance (mAh)	Voltage - fit (V)	Voltage -  interpolate (V)	dQ/dV (1/V)	Temperature (°C)	Temperature - diff (°C)	Current (C)	R_DC 0ms (mOhm)	R_DC 50ms (mOhm)	R_DC 50 ms PEC (mOhm)
0.0941	6022.22	4.0000	3.9998	-0.0790	5.99	0.00	-0.750			
0.0944	6042.42	3.9970	3.9968	-0.1138	5.99	0.00	-0.750			
0.0948	6067.68	3.9940	3.9937	-0.1417	5.99	0.00	-0.750			
0.0953	6097.49	3.9910	3.9912	-0.1687	5.99	-0.00	-0.750			
0.0958	6132.57	3.9880	3.9882	-0.1938	5.99	-0.00	-0.750			
0.0965	6174.05	3.9850	3.9850	-0.2191	5.99	-0.00	-0.750			
0.0972	6218.01	3.9820	3.9820	-0.2414	5.99	-0.00	-0.750			
0.0979	6266.29	3.9790	3.9790	-0.2635	5.99	-0.00	-0.750			
0.0987	6318.74	3.9760	3.9760	-0.2863	5.98	-0.01	-0.750			
0.0996	6376.09	3.9730	3.9730	-0.3103	5.98	-0.01	-0.750			
0.1006	6437.39	3.9700	3.9700	-0.3348	5.98	-0.01	-0.750			
0.1016	6504.13	3.9670	3.9670	-0.3585	5.98	-0.01	-0.750			
0.1027	6575.23	3.9640	3.9641	-0.3837	5.98	-0.01	-0.750			
0.1039	6651.63	3.9610	3.9610	-0.4067	5.98	-0.01	-0.750			
0.1052	6732.60	3.9580	3.9579	-0.4281	5.97	-0.02	-0.750			
0.1065	6817.17	3.9550	3.9550	-0.4486	5.97	-0.02	-0.750			
0.1079	6905.10	3.9520	3.9522	-0.4677	5.97	-0.02	-0.750			
0.1093	6996.95	3.9490	3.9490	-0.4858	5.97	-0.02	-0.750			
0.1108	7092.05	3.9460	3.9460	-0.5060	5.97	-0.02	-0.750			
0.1123	7189.87	3.9430	3.9430	-0.5246	5.97	-0.02	-0.750			
0.1140	7293.41	3.9400	3.9401	-0.5441	5.97	-0.02	-0.750			
0.1156	7400.15	3.9370	3.9370	-0.5612	5.97	-0.02	-0.750			
0.1174	7510.60	3.9340	3.9340	-0.5777	5.97	-0.02	-0.750			
0.1191	7623.22	3.9310	3.9310	-0.5927	5.97	-0.02	-0.750			
0.1209	7738.89	3.9280	3.9280	-0.6050	5.97	-0.02	-0.750			
0.1227	7855.82	3.9250	3.9250	-0.6162	5.97	-0.02	-0.750			
0.1246	7975.38	3.9220	3.9220	-0.6257	5.96	-0.03	-0.750			
0.1265	8096.84	3.9190	3.9190	-0.6383	5.96	-0.03	-0.750			
0.1285	8221.14	3.9160	3.9160	-0.6452	5.96	-0.03	-0.750			
0.1304	8346.16	3.9130	3.9130	-0.6533	5.95	-0.04	-0.750			
0.1324	8472.16	3.9100	3.9101	-0.6582	5.95	-0.04	-0.750			
0.1344	8599.49	3.9070	3.9070	-0.6676	5.95	-0.04	-0.750			
0.1364	8727.37	3.9040	3.9040	-0.6750	5.96	-0.03	-0.750			
0.1384	8858.55	3.9010	3.9009	-0.6805	5.96	-0.03	-0.750			
0.1405	8989.72	3.8980	3.8981	-0.6834	5.97	-0.02	-0.750			
0.1425	9122.76	3.8950	3.8950	-0.6926	5.97	-0.02	-0.750			
0.1446	9255.98	3.8920	3.8920	-0.6932	5.98	-0.01	-0.750			
0.1467	9389.96	3.8890	3.8889	-0.6957	5.98	-0.01	-0.750			
0.1488	9523.09	3.8860	3.8860	-0.6947	5.99	-0.00	-0.750			
0.1509	9656.79	3.8830	3.8831	-0.6980	5.99	0.00	-0.750			
0.1530	9790.97	3.8800	3.8800	-0.7049	6.00	0.01	-0.750			
0.1551	9927.99	3.8770	3.8769	-0.7067	6.00	0.01	-0.750			
0.1572	10063.04	3.8740	3.8741	-0.7083	6.01	0.02	-0.750			
0.1594	10200.34	3.8710	3.8709	-0.7143	6.01	0.02	-0.750			
0.1615	10337.69	3.8680	3.8681	-0.7150	6.02	0.03	-0.750			
0.1637	10475.75	3.8650	3.8649	-0.7207	6.02	0.03	-0.750			
0.1658	10614.12	3.8620	3.8621	-0.7205	6.02	0.03	-0.750			
0.1680	10753.43	3.8590	3.8589	-0.7218	6.03	0.04	-0.750			
0.1702	10893.72	3.8560	3.8563	-0.7201	6.03	0.04	-0.750			
0.1724	11031.41	3.8530	3.8530	-0.7193	6.04	0.05	-0.750			
0.1745	11167.86	3.8500	3.8500	-0.7221	6.04	0.05	-0.750			
0.1767	11305.83	3.8470	3.8470	-0.7247	6.05	0.06	-0.750			
0.1788	11445.65	3.8440	3.8439	-0.7327	6.06	0.07	-0.750			
0.1811	11587.86	3.8410	3.8409	-0.7307	6.06	0.07	-0.750			
0.1833	11729.86	3.8380	3.8381	-0.7308	6.07	0.08	-0.750			
0.1855	11870.65	3.8350	3.8351	-0.7294	6.07	0.08	-0.750			
0.1876	12008.45	3.8320	3.8320	-0.7296	6.08	0.09	-0.750			
0.1898	12148.86	3.8290	3.8288	-0.7295	6.08	0.09	-0.750			
0.1920	12288.01	3.8260	3.8260	-0.7305	6.08	0.09	-0.750			
0.1942	12428.35	3.8230	3.8230	-0.7297	6.09	0.10	-0.750			
0.1964	12571.87	3.8200	3.8199	-0.7336	6.09	0.10	-0.750			
0.1986	12711.06	3.8170	3.8170	-0.7342	6.10	0.11	-0.750			
0.2008	12849.92	3.8140	3.8138	-0.7353	6.11	0.12	-0.750			
0.2030	12990.52	3.8110	3.8110	-0.7355	6.11	0.12	-0.750			
0.2052	13134.84	3.8080	3.8080	-0.7420	6.12	0.13	-0.750			
0.2075	13277.61	3.8050	3.8052	-0.7451	6.13	0.14	-0.750			
0.2097	13421.67	3.8020	3.8019	-0.7462	6.14	0.15	-0.750			
0.2119	13564.78	3.7990	3.7991	-0.7447	6.14	0.15	-0.750			
0.2142	13707.07	3.7960	3.7960	-0.7459	6.15	0.16	-0.750			
0.2164	13849.42	3.7930	3.7930	-0.7477	6.16	0.17	-0.750			
0.2187	13994.87	3.7900	3.7899	-0.7502	6.17	0.18	-0.750			
0.2209	14138.72	3.7870	3.7870	-0.7474	6.17	0.18	-0.750			
0.2232	14282.11	3.7840	3.7840	-0.7485	6.18	0.19	-0.750			
0.2254	14426.13	3.7810	3.7811	-0.7525	6.18	0.19	-0.750			
0.2277	14570.37	3.7780	3.7779	-0.7491	6.19	0.20	-0.750			
0.2299	14715.07	3.7750	3.7749	-0.7561	6.19	0.20	-0.750			
0.2322	14859.00	3.7720	3.7720	-0.7571	6.20	0.21	-0.750			
0.2345	15005.71	3.7690	3.7690	-0.7607	6.20	0.21	-0.750			
0.2368	15152.42	3.7660	3.7660	-0.7662	6.21	0.22	-0.750			
0.2391	15299.46	3.7630	3.7630	-0.7658	6.22	0.23	-0.750			
0.2413	15445.93	3.7600	3.7600	-0.7690	6.22	0.23	-0.750			
0.2437	15595.64	3.7570	3.7570	-0.7752	6.23	0.24	-0.750			
0.2460	15744.20	3.7540	3.7540	-0.7732	6.23	0.24	-0.750			
0.2483	15893.09	3.7510	3.7509	-0.7759	6.24	0.25	-0.750			
0.2507	16041.95	3.7480	3.7481	-0.7864	6.25	0.26	-0.750			
0.2530	16194.41	3.7450	3.7450	-0.7862	6.26	0.27	-0.750			
0.2554	16347.02	3.7420	3.7418	-0.7883	6.26	0.27	-0.750			
0.2578	16497.72	3.7390	3.7393	-0.7924	6.27	0.28	-0.750			
0.2602	16649.75	3.7360	3.7361	-0.7988	6.27	0.28	-0.750			
0.2626	16803.21	3.7330	3.7329	-0.8128	6.28	0.29	-0.750			
0.2650	16959.79	3.7300	3.7300	-0.8152	6.28	0.29	-0.750			
0.2675	17117.84	3.7270	3.7269	-0.8260	6.29	0.30	-0.750			
0.2700	17278.65	3.7240	3.7243	-0.8313	6.29	0.30	-0.750			
0.2725	17440.05	3.7210	3.7209	-0.8356	6.30	0.31	-0.750			
0.2750	17599.57	3.7180	3.7180	-0.8373	6.31	0.32	-0.750			
0.2775	17759.02	3.7150	3.7150	-0.8391	6.31	0.32	-0.750			
0.2800	17921.53	3.7120	3.7120	-0.8491	6.32	0.33	-0.750			
0.2826	18085.53	3.7090	3.7093	-0.8552	6.33	0.34	-0.750			
0.2851	18248.76	3.7060	3.7059	-0.8621	6.33	0.34	-0.750			
0.2878	18416.04	3.7030	3.7031	-0.8676	6.34	0.35	-0.750			
0.2903	18582.06	3.7000	3.7000	-0.8725	6.34	0.35	-0.750			
0.2930	18752.67	3.6970	3.6969	-0.8831	6.35	0.36	-0.750			
0.2957	18921.86	3.6940	3.6941	-0.8837	6.35	0.36	-0.750			
0.2983	19089.81	3.6910	3.6910	-0.8943	6.35	0.36	-0.750			
0.3010	19262.35	3.6880	3.6880	-0.9004	6.36	0.37	-0.750			
0.3037	19436.13	3.6850	3.6850	-0.9094	6.36	0.37	-0.750			
0.3064	19612.43	3.6820	3.6819	-0.9182	6.37	0.38	-0.750			
0.3092	19787.41	3.6790	3.6789	-0.9313	6.37	0.38	-0.750			
0.3120	19968.94	3.6760	3.6760	-0.9389	6.38	0.39	-0.750			
0.3148	20149.94	3.6730	3.6729	-0.9466	6.38	0.39	-0.750			
0.3177	20331.51	3.6700	3.6700	-0.9509	6.39	0.40	-0.750			
0.3206	20516.20	3.6670	3.6672	-0.9581	6.39	0.40	-0.750			
0.3234	20700.00	3.6640	3.6640	-0.9678	6.40	0.41	-0.750			
0.3264	20887.10	3.6610	3.6610	-0.9751	6.40	0.41	-0.750			
0.3293	21074.19	3.6580	3.6579	-0.9775	6.40	0.41	-0.750			
0.3323	21264.45	3.6550	3.6551	-0.9882	6.41	0.42	-0.750			
0.3352	21453.86	3.6520	3.6520	-0.9929	6.41	0.42	-0.750			
0.3382	21645.45	3.6490	3.6489	-1.0013	6.42	0.43	-0.750			
0.3412	21837.57	3.6460	3.6460	-1.0106	6.42	0.43	-0.750			
0.3442	22030.68	3.6430	3.6430	-1.0171	6.43	0.44	-0.750			
0.3473	22229.41	3.6400	3.6399	-1.0284	6.43	0.44	-0.750			
0.3504	22428.41	3.6370	3.6370	-1.0357	6.43	0.44	-0.750			
0.3535	22627.13	3.6340	3.6340	-1.0430	6.44	0.45	-0.750			
0.3567	22827.35	3.6310	3.6310	-1.0469	6.44	0.45	-0.750			
0.3598	23028.83	3.6280	3.6279	-1.0630	6.44	0.45	-0.750			
0.3630	23234.23	3.6250	3.6249	-1.0736	6.44	0.45	-0.750			
0.3663	23442.17	3.6220	3.6220	-1.0843	6.45	0.46	-0.750			
0.3696	23651.99	3.6190	3.6192	-1.0942	6.45	0.46	-0.750			
0.3729	23866.18	3.6160	3.6159	-1.1057	6.45	0.46	-0.750			
0.3762	24079.18	3.6130	3.6130	-1.1088	6.45	0.46	-0.750			
0.3796	24291.47	3.6100	3.6099	-1.1126	6.45	0.46	-0.750			
0.3828	24502.16	3.6070	3.6072	-1.1227	6.45	0.46	-0.750			
0.3863	24721.19	3.6040	3.6039	-1.1336	6.46	0.47	-0.750			
0.3897	24939.36	3.6010	3.6010	-1.1407	6.46	0.47	-0.750			
0.3931	25157.61	3.5980	3.5980	-1.1560	6.47	0.48	-0.750			
0.3966	25383.70	3.5950	3.5950	-1.1755	6.47	0.48	-0.750			
0.4002	25610.94	3.5920	3.5919	-1.1829	6.47	0.48	-0.750			
0.4037	25838.55	3.5890	3.5888	-1.1887	6.47	0.48	-0.750			
0.4073	26066.40	3.5860	3.5862	-1.1933	6.47	0.48	-0.750	0.465	1.056	
0.4109	26298.69	3.5830	3.5829	-1.2091	6.47	0.48	-0.750			
0.4145	26530.88	3.5800	3.5799	-1.2162	6.48	0.49	-0.750			
0.4182	26762.46	3.5770	3.5770	-1.2271	6.48	0.49	-0.750			
0.4219	26998.62	3.5740	3.5740	-1.2367	6.48	0.49	-0.750			
0.4256	27239.52	3.5710	3.5710	-1.2529	6.48	0.49	-0.750			
0.4294	27481.26	3.5680	3.5679	-1.2642	6.49	0.50	-0.750			
0.4332	27724.53	3.5650	3.5651	-1.2776	6.49	0.50	-0.750			
0.4371	27971.59	3.5620	3.5620	-1.2906	6.50	0.51	-0.750			
0.4410	28221.21	3.5590	3.5590	-1.3010	6.50	0.51	-0.750			
0.4449	28472.26	3.5560	3.5561	-1.3171	6.51	0.52	-0.750			
0.4489	28727.77	3.5530	3.5530	-1.3310	6.51	0.52	-0.750			
0.4529	28982.64	3.5500	3.5500	-1.3414	6.51	0.52	-0.750			
0.4569	29241.55	3.5470	3.5471	-1.3549	6.51	0.52	-0.750			
0.4610	29502.22	3.5440	3.5439	-1.3689	6.52	0.53	-0.750			
0.4651	29769.02	3.5410	3.5410	-1.3961	6.52	0.53	-0.750			
0.4694	30043.68	3.5380	3.5380	-1.3910	6.53	0.54	-0.750			
0.4736	30309.92	3.5350	3.5349	-1.3993	6.53	0.54	-0.750			
0.4779	30582.45	3.5320	3.5325	-1.4106	6.54	0.55	-0.750			
0.4821	30851.73	3.5290	3.5289	-1.4178	6.54	0.55	-0.750			
0.4863	31121.90	3.5260	3.5258	-1.4225	6.54	0.55	-0.750			
0.4905	31389.31	3.5230	3.5231	-1.4358	6.55	0.56	-0.750			
0.4949	31674.45	3.5200	3.5201	-1.4724	6.55	0.56	-0.750			
0.4994	31959.32	3.5170	3.5169	-1.4758	6.56	0.57	-0.750			
0.5038	32243.65	3.5140	3.5138	-1.4679	6.56	0.57	-0.750			
0.5082	32526.87	3.5110	3.5111	-1.4916	6.57	0.58	-0.750			
0.5127	32814.68	3.5080	3.5079	-1.4921	6.57	0.58	-0.750			
0.5172	33102.25	3.5050	3.5049	-1.4983	6.58	0.59	-0.750			
0.5217	33389.78	3.5020	3.5019	-1.4806	6.58	0.59	-0.750			
0.5262	33678.63	3.4990	3.4991	-1.4845	6.59	0.60	-0.750			
0.5307	33962.01	3.4960	3.4959	-1.4975	6.61	0.62	-0.750			
0.5351	34243.56	3.4930	3.4929	-1.4918	6.61	0.62	-0.750			
0.5396	34535.90	3.4900	3.4898	-1.5039	6.62	0.63	-0.750			
0.5442	34826.23	3.4870	3.4872	-1.5072	6.63	0.64	-0.750			
0.5487	35115.92	3.4840	3.4839	-1.5001	6.64	0.65	-0.750			
0.5533	35408.92	3.4810	3.4808	-1.5010	6.64	0.65	-0.750			
0.5577	35694.41	3.4780	3.4780	-1.4892	6.65	0.66	-0.750			
0.5621	35973.69	3.4750	3.4751	-1.4933	6.66	0.67	-0.750			
0.5666	36260.22	3.4720	3.4719	-1.5021	6.66	0.67	-0.750			
0.5711	36551.61	3.4690	3.4690	-1.4935	6.67	0.68	-0.750			
0.5756	36841.34	3.4660	3.4657	-1.5002	6.69	0.70	-0.750			
0.5802	37130.02	3.4630	3.4631	-1.4967	6.70	0.71	-0.750			
0.5847	37419.79	3.4600	3.4599	-1.4885	6.72	0.73	-0.750			
0.5892	37706.12	3.4570	3.4569	-1.4792	6.73	0.74	-0.750			
0.5935	37983.54	3.4540	3.4539	-1.4528	6.74	0.75	-0.750			
0.5979	38264.54	3.4510	3.4510	-1.4416	6.76	0.77	-0.750			
0.6023	38546.41	3.4480	3.4479	-1.4293	6.77	0.78	-0.750			
0.6065	38816.90	3.4450	3.4450	-1.4087	6.79	0.80	-0.750			
0.6107	39083.57	3.4420	3.4419	-1.3862	6.80	0.81	-0.750			
0.6149	39351.43	3.4390	3.4390	-1.3672	6.81	0.82	-0.750			
0.6189	39607.98	3.4360	3.4360	-1.3536	6.83	0.84	-0.750			
0.6229	39865.11	3.4330	3.4330	-1.3271	6.84	0.85	-0.750			
0.6269	40124.57	3.4300	3.4299	-1.3071	6.85	0.86	-0.750			
0.6308	40372.72	3.4270	3.4269	-1.2832	6.86	0.87	-0.750			
0.6346	40615.69	3.4240	3.4239	-1.2598	6.88	0.89	-0.750			
0.6384	40857.69	3.4210	3.4209	-1.2385	6.89	0.90	-0.750			
0.6421	41094.27	3.4180	3.4180	-1.2115	6.90	0.91	-0.750			
0.6456	41319.71	3.4150	3.4152	-1.1901	6.91	0.92	-0.750			
0.6493	41552.16	3.4120	3.4120	-1.1677	6.93	0.94	-0.750			
0.6527	41774.74	3.4090	3.4089	-1.1395	6.95	0.96	-0.750			
0.6561	41987.98	3.4060	3.4060	-1.1097	6.96	0.97	-0.750			
0.6594	42200.09	3.4030	3.4029	-1.0895	6.98	0.99	-0.750			
0.6626	42405.72	3.4000	3.3999	-1.0590	6.99	1.00	-0.750			
0.6657	42606.42	3.3970	3.3969	-1.0299	7.01	1.02	-0.750			
0.6687	42799.02	3.3940	3.3940	-1.0003	7.02	1.03	-0.750			
0.6718	42993.13	3.3910	3.3910	-0.9813	7.04	1.05	-0.750			
0.6747	43178.40	3.3880	3.3879	-0.9640	7.05	1.06	-0.750			
0.6775	43361.47	3.3850	3.3850	-0.9362	7.07	1.08	-0.750			
0.6803	43538.63	3.3820	3.3819	-0.9111	7.08	1.09	-0.750			
0.6830	43711.94	3.3790	3.3793	-0.8900	7.09	1.10	-0.750			
0.6856	43881.13	3.3760	3.3758	-0.8645	7.11	1.12	-0.750			
0.6882	44043.39	3.3730	3.3730	-0.8452	7.13	1.14	-0.750			
0.6907	44202.92	3.3700	3.3700	-0.8206	7.14	1.15	-0.750			
0.6931	44360.18	3.3670	3.3670	-0.8040	7.16	1.17	-0.750			
0.6955	44512.81	3.3640	3.3642	-0.7820	7.17	1.18	-0.750			
0.6978	44659.90	3.3610	3.3609	-0.7599	7.18	1.19	-0.750			
0.7000	44802.76	3.3580	3.3580	-0.7414	7.19	1.20	-0.750			
0.7022	44942.13	3.3550	3.3550	-0.7220	7.20	1.21	-0.750			
0.7044	45078.83	3.3520	3.3520	-0.7073	7.21	1.22	-0.750			
0.7065	45213.23	3.3490	3.3490	-0.6928	7.22	1.23	-0.750			
0.7085	45344.66	3.3460	3.3459	-0.6784	7.22	1.23	-0.750			
0.7105	45473.51	3.3430	3.3430	-0.6644	7.23	1.24	-0.750			
0.7125	45599.91	3.3400	3.3400	-0.6566	7.24	1.25	-0.750			
