Ah_balance (normalized)	Ah_balance (mAh)	Voltage - fit (V)	Voltage -  interpolate (V)	dQ/dV (1/V)	Temperature (°C)	Temperature - diff (°C)	Current (C)	R_DC 0ms (mOhm)	R_DC 50ms (mOhm)	R_DC 50 ms PEC (mOhm)
0.1804	11543.74	4.0810	4.0810	0.7803	7.07	1.09	0.750			
0.1827	11695.23	4.0780	4.0780	0.7868	7.07	1.09	0.750			
0.1851	11845.27	4.0750	4.0751	0.7864	7.06	1.08	0.750			
0.1874	11996.30	4.0720	4.0720	0.7890	7.06	1.08	0.750			
0.1898	12147.98	4.0690	4.0689	0.7923	7.06	1.08	0.750			
0.1922	12299.58	4.0660	4.0660	0.7944	7.06	1.08	0.750			
0.1946	12452.70	4.0630	4.0630	0.7968	7.06	1.08	0.750			
0.1970	12606.60	4.0600	4.0600	0.7994	7.05	1.07	0.750			
0.1994	12760.61	4.0570	4.0570	0.8026	7.05	1.07	0.750			
0.2018	12914.83	4.0540	4.0540	0.8054	7.05	1.07	0.750			
0.2042	13069.94	4.0510	4.0510	0.8072	7.05	1.07	0.750			
0.2067	13225.67	4.0480	4.0480	0.8073	7.04	1.06	0.750			
0.2091	13380.03	4.0450	4.0450	0.8151	7.04	1.06	0.750			
0.2115	13537.30	4.0420	4.0420	0.8192	7.04	1.06	0.750			
0.2140	13694.50	4.0390	4.0389	0.8226	7.03	1.05	0.750			
0.2165	13852.99	4.0360	4.0361	0.8215	7.03	1.05	0.750			
0.2189	14011.84	4.0330	4.0330	0.8240	7.02	1.04	0.750			
0.2214	14170.04	4.0300	4.0301	0.8276	7.02	1.04	0.750			
0.2239	14328.76	4.0270	4.0269	0.8292	7.02	1.04	0.750			
0.2264	14486.88	4.0240	4.0240	0.8327	7.01	1.03	0.750			
0.2289	14647.65	4.0210	4.0210	0.8363	7.01	1.03	0.750			
0.2314	14809.49	4.0180	4.0180	0.8363	7.00	1.02	0.750			
0.2339	14970.84	4.0150	4.0150	0.8406	6.99	1.01	0.750			
0.2364	15131.64	4.0120	4.0119	0.8420	6.99	1.01	0.750			
0.2389	15292.54	4.0090	4.0090	0.8447	6.98	1.00	0.750			
0.2415	15455.39	4.0060	4.0060	0.8480	6.98	1.00	0.750			
0.2441	15620.19	4.0030	4.0030	0.8417	6.98	1.00	0.750			
0.2466	15781.58	4.0000	4.0000	0.8524	6.97	0.99	0.750			
0.2491	15944.93	3.9970	3.9970	0.8577	6.97	0.99	0.750			
0.2517	16108.67	3.9940	3.9939	0.8597	6.97	0.99	0.750			
0.2543	16274.16	3.9910	3.9911	0.8662	6.96	0.98	0.750			
0.2569	16441.50	3.9880	3.9880	0.8695	6.96	0.98	0.750			
0.2595	16609.79	3.9850	3.9850	0.8761	6.95	0.97	0.750			
0.2622	16778.26	3.9820	3.9820	0.8763	6.94	0.96	0.750			
0.2648	16948.37	3.9790	3.9788	0.8788	6.93	0.95	0.750			
0.2675	17119.26	3.9760	3.9760	0.8776	6.93	0.95	0.750			
0.2701	17287.58	3.9730	3.9731	0.8790	6.92	0.94	0.750			
0.2727	17454.80	3.9700	3.9700	0.8836	6.92	0.94	0.750			
0.2754	17624.67	3.9670	3.9670	0.8871	6.91	0.93	0.750			
0.2780	17792.89	3.9640	3.9639	0.8924	6.91	0.93	0.750			
0.2807	17966.24	3.9610	3.9610	0.8954	6.90	0.92	0.750			
0.2835	18141.42	3.9580	3.9580	0.9044	6.90	0.92	0.750			
0.2862	18314.30	3.9550	3.9551	0.9107	6.90	0.92	0.750			
0.2889	18488.43	3.9520	3.9520	0.9145	6.89	0.91	0.750			
0.2917	18665.67	3.9490	3.9489	0.9179	6.88	0.90	0.750			
0.2944	18841.61	3.9460	3.9460	0.9258	6.88	0.90	0.750			
0.2972	19019.52	3.9430	3.9430	0.9323	6.87	0.89	0.750			
0.3000	19202.10	3.9400	3.9400	0.9437	6.86	0.88	0.750			
0.3028	19381.82	3.9370	3.9369	0.9452	6.85	0.87	0.750			
0.3057	19565.18	3.9340	3.9340	0.9389	6.84	0.86	0.750			
0.3085	19744.74	3.9310	3.9311	0.9516	6.84	0.86	0.750			
0.3114	19928.12	3.9280	3.9280	0.9601	6.84	0.86	0.750			
0.3143	20112.06	3.9250	3.9249	0.9676	6.83	0.85	0.750			
0.3172	20299.31	3.9220	3.9221	0.9779	6.82	0.84	0.750			
0.3201	20488.22	3.9190	3.9190	0.9871	6.82	0.84	0.750			
0.3231	20679.76	3.9160	3.9161	0.9975	6.81	0.83	0.750			
0.3261	20871.90	3.9130	3.9130	1.0063	6.80	0.82	0.750			
0.3292	21068.53	3.9100	3.9100	1.0091	6.80	0.82	0.750			
0.3322	21262.77	3.9070	3.9070	1.0193	6.79	0.81	0.750			
0.3353	21458.25	3.9040	3.9041	1.0282	6.78	0.80	0.750			
0.3384	21657.13	3.9010	3.9010	1.0384	6.77	0.79	0.750			
0.3415	21857.62	3.8980	3.8979	1.0416	6.77	0.79	0.750			
0.3446	22057.24	3.8950	3.8950	1.0532	6.76	0.78	0.750			
0.3478	22258.63	3.8920	3.8921	1.0694	6.76	0.78	0.750			
0.3511	22469.54	3.8890	3.8889	1.0899	6.75	0.77	0.750			
0.3543	22677.56	3.8860	3.8861	1.0963	6.74	0.76	0.750			
0.3576	22888.77	3.8830	3.8830	1.1116	6.73	0.75	0.750			
0.3610	23104.69	3.8800	3.8801	1.1268	6.72	0.74	0.750			
0.3644	23323.92	3.8770	3.8769	1.1385	6.71	0.73	0.750			
0.3679	23542.54	3.8740	3.8740	1.1537	6.71	0.73	0.750			
0.3713	23763.62	3.8710	3.8711	1.1639	6.70	0.72	0.750			
0.3748	23989.92	3.8680	3.8680	1.1813	6.69	0.71	0.750			
0.3784	24215.19	3.8650	3.8651	1.1944	6.69	0.71	0.750			
0.3820	24446.20	3.8620	3.8620	1.2174	6.68	0.70	0.750			
0.3857	24683.07	3.8590	3.8590	1.2343	6.66	0.68	0.750			
0.3894	24924.74	3.8560	3.8558	1.2391	6.65	0.67	0.750			
0.3931	25161.57	3.8530	3.8531	1.2614	6.64	0.66	0.750			
0.3970	25405.59	3.8500	3.8501	1.2846	6.63	0.65	0.750			
0.4008	25652.86	3.8470	3.8469	1.3035	6.62	0.64	0.750			
0.4047	25901.48	3.8440	3.8441	1.3461	6.61	0.63	0.750			
0.4088	26161.85	3.8410	3.8411	1.3846	6.60	0.62	0.750			
0.4131	26437.81	3.8380	3.8373	1.4064	6.59	0.61	0.750	0.412	0.984	
0.4174	26715.39	3.8350	3.8352	1.4387	6.58	0.60	0.750			
0.4217	26990.69	3.8320	3.8322	1.4489	6.56	0.58	0.750			
0.4261	27272.95	3.8290	3.8289	1.4620	6.54	0.56	0.750			
0.4304	27547.20	3.8260	3.8261	1.4684	6.53	0.55	0.750			
0.4348	27829.99	3.8230	3.8229	1.5199	6.52	0.54	0.750			
0.4395	28130.30	3.8200	3.8199	1.5513	6.51	0.53	0.750			
0.4443	28433.91	3.8170	3.8173	1.5775	6.50	0.52	0.750			
0.4492	28746.25	3.8140	3.8142	1.6396	6.48	0.50	0.750			
0.4541	29062.49	3.8110	3.8107	1.6764	6.46	0.48	0.750			
0.4591	29380.19	3.8080	3.8078	1.6997	6.45	0.47	0.750			
0.4643	29712.47	3.8050	3.8051	1.7393	6.43	0.45	0.750			
0.4697	30061.62	3.8020	3.8020	1.7611	6.41	0.43	0.750			
0.4749	30396.51	3.7990	3.7993	1.7771	6.40	0.42	0.750			
0.4803	30741.65	3.7960	3.7962	1.8079	6.38	0.40	0.750			
0.4858	31089.36	3.7930	3.7929	1.8288	6.37	0.39	0.750			
0.4912	31435.45	3.7900	3.7901	1.8556	6.36	0.38	0.750			
0.4969	31799.16	3.7870	3.7869	1.9201	6.34	0.36	0.750			
0.5027	32175.05	3.7840	3.7839	1.9557	6.33	0.35	0.750			
0.5086	32553.44	3.7810	3.7813	2.0080	6.31	0.33	0.750			
0.5149	32956.57	3.7780	3.7778	2.0437	6.29	0.31	0.750			
0.5210	33346.16	3.7750	3.7751	2.0658	6.27	0.29	0.750			
0.5274	33751.82	3.7720	3.7721	2.0884	6.25	0.27	0.750			
0.5335	34147.19	3.7690	3.7691	2.1243	6.23	0.25	0.750			
0.5400	34558.24	3.7660	3.7660	2.1675	6.21	0.23	0.750			
0.5467	34987.72	3.7630	3.7631	2.1677	6.18	0.20	0.750			
0.5531	35398.81	3.7600	3.7601	2.1838	6.16	0.18	0.750			
0.5598	35828.69	3.7570	3.7567	2.1714	6.14	0.16	0.750			
0.5663	36241.57	3.7540	3.7539	2.1270	6.12	0.14	0.750			
0.5727	36650.31	3.7510	3.7512	2.1364	6.10	0.12	0.750			
0.5789	37051.93	3.7480	3.7479	2.2267	6.09	0.11	0.750			
0.5855	37472.59	3.7450	3.7450	2.3134	6.06	0.08	0.750			
0.5929	37944.35	3.7420	3.7422	2.4864	6.05	0.07	0.750			
0.6006	38436.96	3.7390	3.7390	2.5760	6.03	0.05	0.750			
0.6084	38939.47	3.7360	3.7361	2.6699	6.02	0.04	0.750			
0.6166	39464.00	3.7330	3.7330	2.7818	6.00	0.02	0.750			
0.6251	40007.71	3.7300	3.7300	2.9026	5.98	-0.00	0.750			
0.6341	40580.57	3.7270	3.7270	2.9194	5.96	-0.02	0.750			
0.6430	41149.95	3.7240	3.7240	2.8581	5.95	-0.03	0.750			
0.6513	41683.97	3.7210	3.7210	2.7132	5.93	-0.05	0.750			
0.6592	42189.20	3.7180	3.7180	2.5640	5.93	-0.05	0.750			
0.6666	42660.13	3.7150	3.7150	2.4067	5.93	-0.05	0.750			
0.6739	43127.57	3.7120	3.7119	2.2028	5.92	-0.06	0.750			
0.6800	43519.24	3.7090	3.7092	1.9345	5.91	-0.07	0.750			
0.6853	43860.61	3.7060	3.7060	1.6943	5.92	-0.06	0.750			
0.6900	44158.41	3.7030	3.7026	1.4861	5.92	-0.06	0.750			
0.6940	44414.80	3.7000	3.6999	1.3045	5.92	-0.06	0.750			
0.6974	44634.47	3.6970	3.6972	1.1592	5.93	-0.05	0.750			
0.7007	44844.83	3.6940	3.6941	1.0619	5.93	-0.05	0.750			
0.7037	45035.44	3.6910	3.6909	0.9721	5.93	-0.05	0.750			
0.7064	45210.23	3.6880	3.6881	0.8987	5.94	-0.04	0.750			
0.7090	45373.92	3.6850	3.6850	0.8491	5.94	-0.04	0.750			
0.7115	45533.99	3.6820	3.6820	0.8085	5.94	-0.04	0.750			
0.7138	45682.95	3.6790	3.6789	0.7566	5.95	-0.03	0.750			
0.7160	45824.67	3.6760	3.6761	0.7123	5.95	-0.03	0.750			
0.7181	45958.55	3.6730	3.6729	0.6680	5.96	-0.02	0.750			
0.7201	46083.64	3.6700	3.6700	0.6219	5.96	-0.02	0.750			
0.7218	46197.60	3.6670	3.6670	0.5715	5.97	-0.01	0.750			
0.7235	46301.74	3.6640	3.6640	0.5187	5.97	-0.01	0.750			
0.7250	46396.96	3.6610	3.6610	0.4747	5.97	-0.01	0.750			
0.7263	46482.08	3.6580	3.6581	0.4348	5.98	-0.00	0.750			
0.7275	46560.19	3.6550	3.6546	0.3940	5.98	0.00	0.750			
0.7286	46631.29	3.6520	3.6519	0.3566	5.98	0.00	0.750			
0.7296	46696.52	3.6490	3.6490	0.3198	5.99	0.01	0.750			
0.7305	46755.20	3.6460	3.6461	0.2854	5.99	0.01	0.750			
0.7314	46807.79	3.6430	3.6430	0.2512	5.99	0.01	0.750			
0.7321	46851.54	3.6400	3.6400	0.2101	5.99	0.01	0.750			
0.7326	46888.07	3.6370	3.6369	0.1718	5.99	0.01	0.750			
0.7331	46917.59	3.6340	3.6342	0.1344	5.99	0.01	0.750			
0.7334	46939.83	3.6310	3.6313	0.0961	5.99	0.01	0.750			
0.7337	46954.57	3.6280	3.6288	0.0574	5.99	0.01	0.750			
0.7338	46962.26	3.6250	3.6267	0.0097	6.00	0.02	0.751			
