Ah_balance (normalized)	Ah_balance (mAh)	Voltage - fit (V)	Voltage -  interpolate (V)	dQ/dV (1/V)	Temperature (°C)	Temperature - diff (°C)	Current (C)	R_DC 0ms (mOhm)	R_DC 50ms (mOhm)	R_DC 50 ms PEC (mOhm)
0.1791	11462.35	4.0820	4.0820	0.8914	7.69	1.70	0.750			
0.1816	11623.44	4.0790	4.0792	0.8230	7.68	1.69	0.750			
0.1840	11778.87	4.0760	4.0760	0.8025	7.68	1.69	0.750			
0.1864	11928.41	4.0730	4.0730	0.7929	7.67	1.68	0.750			
0.1887	12076.31	4.0700	4.0701	0.7812	7.66	1.67	0.750			
0.1911	12228.47	4.0670	4.0670	0.7783	7.65	1.66	0.750			
0.1934	12377.12	4.0640	4.0640	0.7829	7.65	1.66	0.750			
0.1957	12526.99	4.0610	4.0611	0.7838	7.64	1.65	0.750			
0.1981	12676.76	4.0580	4.0579	0.7864	7.63	1.64	0.750			
0.2004	12828.47	4.0550	4.0551	0.7944	7.63	1.64	0.750			
0.2028	12982.33	4.0520	4.0520	0.7920	7.62	1.63	0.750			
0.2052	13134.70	4.0490	4.0490	0.7966	7.61	1.62	0.750			
0.2077	13289.79	4.0460	4.0461	0.8042	7.61	1.62	0.750			
0.2100	13443.06	4.0430	4.0430	0.8031	7.60	1.61	0.750			
0.2124	13596.72	4.0400	4.0400	0.8081	7.60	1.61	0.750			
0.2149	13753.18	4.0370	4.0370	0.8069	7.59	1.60	0.750			
0.2173	13907.70	4.0340	4.0340	0.8129	7.58	1.59	0.750			
0.2198	14066.76	4.0310	4.0310	0.8199	7.57	1.58	0.750			
0.2222	14222.41	4.0280	4.0281	0.8178	7.56	1.57	0.750			
0.2247	14379.23	4.0250	4.0250	0.8199	7.56	1.57	0.750			
0.2272	14539.39	4.0220	4.0220	0.8174	7.55	1.56	0.750			
0.2296	14694.42	4.0190	4.0190	0.8196	7.54	1.55	0.750			
0.2320	14850.98	4.0160	4.0161	0.8299	7.53	1.54	0.750			
0.2345	15009.68	4.0130	4.0131	0.8354	7.53	1.54	0.750			
0.2371	15172.14	4.0100	4.0100	0.8403	7.52	1.53	0.750			
0.2396	15335.35	4.0070	4.0071	0.8417	7.51	1.52	0.750			
0.2422	15498.15	4.0040	4.0041	0.8469	7.50	1.51	0.750			
0.2447	15661.40	4.0010	4.0011	0.8499	7.49	1.50	0.750			
0.2472	15822.95	3.9980	3.9980	0.8464	7.48	1.49	0.750			
0.2498	15986.19	3.9950	3.9950	0.8468	7.47	1.48	0.750			
0.2523	16149.53	3.9920	3.9921	0.8500	7.46	1.47	0.750			
0.2549	16312.89	3.9890	3.9890	0.8573	7.46	1.47	0.750			
0.2575	16478.16	3.9860	3.9861	0.8641	7.45	1.46	0.750			
0.2600	16642.80	3.9830	3.9828	0.8652	7.44	1.45	0.750			
0.2626	16809.40	3.9800	3.9800	0.8760	7.44	1.45	0.750			
0.2653	16979.28	3.9770	3.9771	0.8800	7.43	1.44	0.750			
0.2679	17148.76	3.9740	3.9741	0.8911	7.42	1.43	0.750			
0.2707	17322.88	3.9710	3.9709	0.8917	7.42	1.43	0.750			
0.2733	17494.00	3.9680	3.9678	0.8901	7.41	1.42	0.750			
0.2760	17665.97	3.9650	3.9650	0.8861	7.40	1.41	0.750			
0.2787	17835.19	3.9620	3.9620	0.8868	7.39	1.40	0.750			
0.2813	18003.70	3.9590	3.9590	0.8909	7.37	1.38	0.750			
0.2840	18175.35	3.9560	3.9560	0.8983	7.36	1.37	0.750			
0.2866	18345.10	3.9530	3.9529	0.9027	7.35	1.36	0.750			
0.2894	18523.33	3.9500	3.9501	0.9081	7.34	1.35	0.750			
0.2921	18696.31	3.9470	3.9470	0.9265	7.33	1.34	0.750			
0.2949	18876.18	3.9440	3.9440	0.9365	7.32	1.33	0.750			
0.2978	19056.60	3.9410	3.9409	0.9398	7.31	1.32	0.750			
0.3006	19240.41	3.9380	3.9381	0.9395	7.30	1.31	0.750			
0.3035	19423.22	3.9350	3.9350	0.9452	7.29	1.30	0.750			
0.3063	19605.03	3.9320	3.9320	0.9440	7.28	1.29	0.750			
0.3092	19786.15	3.9290	3.9291	0.9507	7.27	1.28	0.750			
0.3119	19963.85	3.9260	3.9260	0.9452	7.26	1.27	0.750			
0.3148	20146.72	3.9230	3.9230	0.9539	7.25	1.26	0.750			
0.3177	20329.70	3.9200	3.9201	0.9626	7.23	1.24	0.750			
0.3205	20514.86	3.9170	3.9170	0.9751	7.22	1.23	0.750			
0.3235	20702.97	3.9140	3.9138	0.9854	7.21	1.22	0.750			
0.3265	20893.45	3.9110	3.9111	0.9971	7.20	1.21	0.750			
0.3295	21086.10	3.9080	3.9080	1.0081	7.19	1.20	0.750			
0.3325	21282.42	3.9050	3.9050	1.0254	7.18	1.19	0.750			
0.3356	21479.39	3.9020	3.9018	1.0380	7.17	1.18	0.750			
0.3388	21682.09	3.8990	3.8990	1.0408	7.16	1.17	0.750			
0.3419	21880.73	3.8960	3.8960	1.0548	7.14	1.15	0.750			
0.3451	22083.60	3.8930	3.8931	1.0698	7.13	1.14	0.750			
0.3483	22292.87	3.8900	3.8897	1.0785	7.11	1.12	0.750			
0.3516	22499.63	3.8870	3.8870	1.0928	7.10	1.11	0.750			
0.3548	22709.64	3.8840	3.8840	1.1044	7.09	1.10	0.750			
0.3582	22924.31	3.8810	3.8811	1.1221	7.08	1.09	0.750			
0.3616	23144.56	3.8780	3.8778	1.1224	7.07	1.08	0.750			
0.3650	23358.45	3.8750	3.8750	1.1298	7.05	1.06	0.750			
0.3684	23574.66	3.8720	3.8721	1.1480	7.04	1.05	0.750			
0.3718	23796.67	3.8690	3.8691	1.1680	7.02	1.03	0.750			
0.3753	24021.81	3.8660	3.8660	1.1729	7.00	1.01	0.750			
0.3789	24248.29	3.8630	3.8631	1.1930	6.98	0.99	0.750			
0.3825	24479.03	3.8600	3.8601	1.2146	6.97	0.98	0.750			
0.3862	24718.43	3.8570	3.8567	1.2366	6.95	0.96	0.750			
0.3899	24954.14	3.8540	3.8541	1.2482	6.93	0.94	0.750			
0.3937	25194.93	3.8510	3.8510	1.2658	6.91	0.92	0.750			
0.3976	25444.37	3.8480	3.8479	1.2753	6.90	0.91	0.750			
0.4013	25683.26	3.8450	3.8451	1.3170	6.88	0.89	0.750			
0.4053	25939.42	3.8420	3.8420	1.3552	6.86	0.87	0.750			
0.4095	26205.63	3.8390	3.8386	1.3809	6.85	0.86	0.750	0.400	0.930	
0.4137	26474.97	3.8360	3.8363	1.4271	6.83	0.84	0.750			
0.4181	26756.27	3.8330	3.8331	1.4499	6.81	0.82	0.750			
0.4225	27039.63	3.8300	3.8298	1.4612	6.79	0.80	0.750			
0.4269	27319.83	3.8270	3.8272	1.4491	6.77	0.78	0.750			
0.4312	27597.71	3.8240	3.8238	1.4813	6.75	0.76	0.750			
0.4357	27887.96	3.8210	3.8210	1.4943	6.73	0.74	0.750			
0.4402	28171.82	3.8180	3.8181	1.5240	6.71	0.72	0.750			
0.4448	28467.23	3.8150	3.8150	1.5957	6.69	0.70	0.750			
0.4496	28772.44	3.8120	3.8119	1.6220	6.67	0.68	0.750			
0.4546	29093.02	3.8090	3.8090	1.6638	6.64	0.65	0.750			
0.4596	29416.78	3.8060	3.8062	1.7485	6.62	0.63	0.750			
0.4649	29755.43	3.8030	3.8033	1.6976	6.59	0.60	0.750			
0.4700	30080.62	3.8000	3.8004	1.6783	6.57	0.58	0.750			
0.4749	30391.47	3.7970	3.7969	1.7397	6.55	0.56	0.750			
0.4801	30726.90	3.7940	3.7930	1.8128	6.53	0.54	0.750			
0.4857	31082.50	3.7910	3.7913	1.8521	6.51	0.52	0.750			
0.4918	31476.87	3.7880	3.7882	1.9370	6.47	0.48	0.750			
0.4972	31822.92	3.7850	3.7851	1.8564	6.44	0.45	0.750			
0.5031	32195.49	3.7820	3.7817	1.9237	6.41	0.42	0.750			
0.5088	32561.28	3.7790	3.7790	1.9166	6.38	0.39	0.750			
0.5146	32936.84	3.7760	3.7762	1.9570	6.36	0.37	0.750			
0.5206	33319.41	3.7730	3.7732	1.9891	6.34	0.35	0.750			
0.5266	33700.15	3.7700	3.7699	2.0066	6.31	0.32	0.750			
0.5327	34092.06	3.7670	3.7670	2.0328	6.27	0.28	0.750			
0.5390	34495.69	3.7640	3.7641	2.0686	6.24	0.25	0.750			
0.5451	34885.58	3.7610	3.7610	2.0453	6.22	0.23	0.750			
0.5512	35275.98	3.7580	3.7582	2.0627	6.20	0.21	0.750			
0.5574	35675.90	3.7550	3.7550	2.1037	6.18	0.19	0.750			
0.5638	36081.56	3.7520	3.7522	2.1401	6.16	0.17	0.750			
0.5703	36500.71	3.7490	3.7490	2.2194	6.13	0.14	0.750			
0.5770	36926.66	3.7460	3.7462	2.2764	6.10	0.11	0.750			
0.5840	37374.75	3.7430	3.7430	2.2970	6.08	0.09	0.750			
0.5909	37819.73	3.7400	3.7401	2.3476	6.05	0.06	0.750			
0.5980	38275.03	3.7370	3.7368	2.3888	6.03	0.04	0.750			
0.6052	38735.97	3.7340	3.7340	2.4503	6.01	0.02	0.750			
0.6127	39215.50	3.7310	3.7310	2.5252	5.98	-0.01	0.750			
0.6204	39708.76	3.7280	3.7281	2.5489	5.96	-0.03	0.750			
0.6282	40202.99	3.7250	3.7250	2.5247	5.94	-0.05	0.750			
0.6357	40681.62	3.7220	3.7220	2.4212	5.92	-0.07	0.750			
0.6428	41137.03	3.7190	3.7190	2.3438	5.91	-0.08	0.750			
0.6497	41580.56	3.7160	3.7160	2.2063	5.90	-0.09	0.750			
0.6560	41985.90	3.7130	3.7131	2.0556	5.90	-0.09	0.750			
0.6621	42375.30	3.7100	3.7099	1.8410	5.90	-0.09	0.750			
0.6672	42702.30	3.7070	3.7070	1.6263	5.90	-0.09	0.750			
0.6717	42988.13	3.7040	3.7039	1.4487	5.91	-0.08	0.750			
0.6756	43236.99	3.7010	3.7011	1.2838	5.91	-0.08	0.750			
0.6791	43460.98	3.6980	3.6980	1.1618	5.91	-0.08	0.750			
0.6822	43662.16	3.6950	3.6951	1.0551	5.91	-0.08	0.750			
0.6853	43858.03	3.6920	3.6920	1.0032	5.91	-0.08	0.750			
0.6881	44039.95	3.6890	3.6890	0.9418	5.91	-0.08	0.750			
0.6909	44215.52	3.6860	3.6859	0.9000	5.91	-0.08	0.750			
0.6935	44382.51	3.6830	3.6829	0.8603	5.91	-0.08	0.750			
0.6960	44544.14	3.6800	3.6802	0.8274	5.91	-0.08	0.750			
0.6984	44699.59	3.6770	3.6767	0.7988	5.91	-0.08	0.750			
0.7008	44850.92	3.6740	3.6740	0.7678	5.92	-0.07	0.750			
0.7030	44994.34	3.6710	3.6710	0.7344	5.92	-0.07	0.750			
0.7052	45133.18	3.6680	3.6680	0.7027	5.93	-0.06	0.750			
0.7073	45265.56	3.6650	3.6649	0.6688	5.94	-0.05	0.750			
0.7092	45389.72	3.6620	3.6621	0.6329	5.94	-0.05	0.750			
0.7111	45507.25	3.6590	3.6586	0.5982	5.95	-0.04	0.750			
0.7128	45618.50	3.6560	3.6561	0.5615	5.96	-0.03	0.750			
0.7144	45724.56	3.6530	3.6528	0.5249	5.96	-0.03	0.750			
0.7160	45822.22	3.6500	3.6501	0.4871	5.97	-0.02	0.750			
0.7174	45912.70	3.6470	3.6471	0.4480	5.97	-0.02	0.750			
0.7187	45993.84	3.6440	3.6439	0.4098	5.97	-0.02	0.750			
0.7198	46068.21	3.6410	3.6410	0.3736	5.98	-0.01	0.750			
0.7208	46134.21	3.6380	3.6379	0.3372	5.98	-0.01	0.750			
0.7218	46195.80	3.6350	3.6350	0.3067	5.98	-0.01	0.750			
0.7227	46252.88	3.6320	3.6319	0.2742	5.99	-0.00	0.750			
0.7235	46302.88	3.6290	3.6290	0.2378	5.99	-0.00	0.750			
0.7242	46346.18	3.6260	3.6261	0.2050	5.99	0.00	0.750			
0.7247	46382.11	3.6230	3.6233	0.1679	5.99	0.00	0.750			
0.7252	46410.56	3.6200	3.6201	0.1296	5.99	0.00	0.750			
0.7255	46432.31	3.6170	3.6178	0.0925	6.00	0.01	0.750			
0.7257	46445.18	3.6140	3.6155	0.0550	6.00	0.01	0.750			
0.7258	46452.31	3.6110	3.6122	0.0193	6.00	0.01	0.750			
0.7258	46452.58	3.6080	3.6121	-0.0165	6.00	0.01	0.750			
