Ah_balance (normalized)	Ah_balance (mAh)	Voltage - fit (V)	Voltage -  interpolate (V)	dQ/dV (1/V)	Temperature (°C)	Temperature - diff (°C)	Current (C)	R_DC 0ms (mOhm)	R_DC 50ms (mOhm)	R_DC 50 ms PEC (mOhm)
0.0698	4470.03	3.9970	3.9964	-0.0765	6.00	0.01	-0.750			
0.0701	4488.72	3.9940	3.9936	-0.1117	6.00	0.01	-0.750			
0.0705	4513.61	3.9910	3.9909	-0.1414	5.99	0.00	-0.750			
0.0710	4543.62	3.9880	3.9880	-0.1693	5.99	0.00	-0.750			
0.0716	4579.35	3.9850	3.9850	-0.1948	5.99	0.00	-0.750			
0.0722	4619.49	3.9820	3.9820	-0.2192	5.99	0.00	-0.750			
0.0729	4664.61	3.9790	3.9790	-0.2461	5.99	-0.00	-0.750			
0.0737	4714.06	3.9760	3.9760	-0.2699	5.99	-0.00	-0.750			
0.0745	4767.85	3.9730	3.9730	-0.2974	5.98	-0.01	-0.750			
0.0754	4827.00	3.9700	3.9701	-0.3238	5.98	-0.01	-0.750			
0.0764	4891.43	3.9670	3.9670	-0.3506	5.98	-0.01	-0.750			
0.0775	4961.63	3.9640	3.9640	-0.3789	5.98	-0.01	-0.750			
0.0787	5037.06	3.9610	3.9611	-0.4079	5.97	-0.02	-0.750			
0.0800	5117.91	3.9580	3.9579	-0.4352	5.97	-0.02	-0.750			
0.0813	5204.83	3.9550	3.9550	-0.4629	5.97	-0.02	-0.750			
0.0828	5296.35	3.9520	3.9520	-0.4876	5.96	-0.03	-0.750			
0.0843	5392.83	3.9490	3.9490	-0.5153	5.96	-0.03	-0.750			
0.0858	5494.30	3.9460	3.9460	-0.5408	5.96	-0.03	-0.750			
0.0875	5600.20	3.9430	3.9430	-0.5657	5.96	-0.03	-0.750			
0.0892	5711.03	3.9400	3.9400	-0.5907	5.96	-0.03	-0.750			
0.0911	5827.95	3.9370	3.9370	-0.6138	5.95	-0.04	-0.750			
0.0929	5948.59	3.9340	3.9340	-0.6335	5.95	-0.04	-0.750			
0.0949	6073.34	3.9310	3.9310	-0.6523	5.95	-0.04	-0.750			
0.0969	6200.15	3.9280	3.9280	-0.6668	5.95	-0.04	-0.750			
0.0989	6329.34	3.9250	3.9250	-0.6825	5.95	-0.04	-0.750			
0.1010	6461.26	3.9220	3.9220	-0.6993	5.95	-0.04	-0.750			
0.1031	6597.16	3.9190	3.9190	-0.7135	5.95	-0.04	-0.750			
0.1053	6736.49	3.9160	3.9159	-0.7257	5.95	-0.04	-0.750			
0.1075	6879.95	3.9130	3.9130	-0.7298	5.95	-0.04	-0.750			
0.1097	7020.90	3.9100	3.9101	-0.7313	5.95	-0.04	-0.750			
0.1119	7161.35	3.9070	3.9070	-0.7372	5.95	-0.04	-0.750			
0.1141	7301.91	3.9040	3.9039	-0.7412	5.95	-0.04	-0.750			
0.1163	7442.33	3.9010	3.9010	-0.7452	5.96	-0.03	-0.750			
0.1185	7586.64	3.8980	3.8980	-0.7552	5.96	-0.03	-0.750			
0.1208	7734.13	3.8950	3.8950	-0.7651	5.96	-0.03	-0.750			
0.1232	7882.77	3.8920	3.8920	-0.7720	5.96	-0.03	-0.750			
0.1255	8031.23	3.8890	3.8890	-0.7781	5.97	-0.02	-0.750			
0.1278	8180.94	3.8860	3.8860	-0.7818	5.97	-0.02	-0.750			
0.1302	8331.27	3.8830	3.8830	-0.7845	5.98	-0.01	-0.750			
0.1326	8483.54	3.8800	3.8800	-0.7896	5.98	-0.01	-0.750			
0.1349	8635.24	3.8770	3.8771	-0.7919	5.99	0.00	-0.750			
0.1373	8787.55	3.8740	3.8740	-0.7931	6.00	0.01	-0.750			
0.1397	8939.68	3.8710	3.8710	-0.7971	6.01	0.02	-0.750			
0.1421	9092.59	3.8680	3.8680	-0.7994	6.01	0.02	-0.750			
0.1445	9247.19	3.8650	3.8649	-0.8038	6.02	0.03	-0.750			
0.1469	9401.70	3.8620	3.8621	-0.8075	6.03	0.04	-0.750			
0.1493	9557.14	3.8590	3.8590	-0.8100	6.03	0.04	-0.750			
0.1517	9711.55	3.8560	3.8560	-0.8176	6.04	0.05	-0.750			
0.1542	9869.58	3.8530	3.8530	-0.8217	6.04	0.05	-0.750			
0.1567	10028.03	3.8500	3.8500	-0.8217	6.05	0.06	-0.750			
0.1592	10187.48	3.8470	3.8470	-0.8259	6.05	0.06	-0.750			
0.1617	10346.46	3.8440	3.8441	-0.8246	6.05	0.06	-0.750			
0.1641	10504.70	3.8410	3.8409	-0.8269	6.06	0.07	-0.750			
0.1666	10663.53	3.8380	3.8380	-0.8269	6.07	0.08	-0.750			
0.1691	10821.45	3.8350	3.8349	-0.8232	6.07	0.08	-0.750			
0.1716	10981.00	3.8320	3.8320	-0.8279	6.08	0.09	-0.750			
0.1741	11139.62	3.8290	3.8290	-0.8275	6.08	0.09	-0.750			
0.1765	11296.73	3.8260	3.8260	-0.8294	6.09	0.10	-0.750			
0.1790	11456.69	3.8230	3.8230	-0.8313	6.10	0.11	-0.750			
0.1815	11615.91	3.8200	3.8199	-0.8287	6.10	0.11	-0.750			
0.1840	11776.78	3.8170	3.8171	-0.8331	6.11	0.12	-0.750			
0.1865	11936.72	3.8140	3.8140	-0.8353	6.12	0.13	-0.750			
0.1890	12097.45	3.8110	3.8110	-0.8341	6.12	0.13	-0.750			
0.1915	12257.54	3.8080	3.8079	-0.8330	6.13	0.14	-0.750			
0.1940	12415.58	3.8050	3.8050	-0.8301	6.14	0.15	-0.750			
0.1965	12576.35	3.8020	3.8021	-0.8335	6.15	0.16	-0.750			
0.1990	12735.80	3.7990	3.7990	-0.8357	6.16	0.17	-0.750			
0.2015	12895.30	3.7960	3.7960	-0.8421	6.16	0.17	-0.750			
0.2040	13058.27	3.7930	3.7930	-0.8465	6.17	0.18	-0.750			
0.2066	13223.36	3.7900	3.7899	-0.8459	6.18	0.19	-0.750			
0.2092	13387.00	3.7870	3.7870	-0.8450	6.19	0.20	-0.750			
0.2117	13548.51	3.7840	3.7840	-0.8431	6.19	0.20	-0.750			
0.2142	13709.35	3.7810	3.7809	-0.8427	6.20	0.21	-0.750			
0.2167	13868.12	3.7780	3.7780	-0.8413	6.20	0.21	-0.750			
0.2192	14029.25	3.7750	3.7750	-0.8434	6.21	0.22	-0.750			
0.2218	14193.93	3.7720	3.7720	-0.8490	6.21	0.22	-0.750			
0.2243	14357.37	3.7690	3.7690	-0.8537	6.22	0.23	-0.750			
0.2269	14521.53	3.7660	3.7660	-0.8548	6.22	0.23	-0.750			
0.2295	14685.50	3.7630	3.7630	-0.8544	6.23	0.24	-0.750			
0.2320	14848.62	3.7600	3.7600	-0.8564	6.24	0.25	-0.750			
0.2346	15013.88	3.7570	3.7570	-0.8590	6.25	0.26	-0.750			
0.2372	15179.33	3.7540	3.7540	-0.8611	6.26	0.27	-0.750			
0.2398	15345.27	3.7510	3.7510	-0.8628	6.27	0.28	-0.750			
0.2423	15510.06	3.7480	3.7480	-0.8627	6.27	0.28	-0.750			
0.2449	15676.19	3.7450	3.7449	-0.8648	6.28	0.29	-0.750			
0.2475	15842.32	3.7420	3.7421	-0.8676	6.29	0.30	-0.750			
0.2501	16008.57	3.7390	3.7390	-0.8694	6.30	0.31	-0.750			
0.2528	16176.61	3.7360	3.7360	-0.8695	6.31	0.32	-0.750			
0.2554	16343.86	3.7330	3.7330	-0.8692	6.32	0.33	-0.750			
0.2580	16510.20	3.7300	3.7301	-0.8697	6.32	0.33	-0.750			
0.2606	16677.01	3.7270	3.7270	-0.8694	6.33	0.34	-0.750			
0.2632	16842.97	3.7240	3.7241	-0.8739	6.34	0.35	-0.750			
0.2658	17011.25	3.7210	3.7210	-0.8764	6.34	0.35	-0.750			
0.2684	17179.96	3.7180	3.7180	-0.8817	6.35	0.36	-0.750			
0.2711	17350.56	3.7150	3.7150	-0.8873	6.36	0.37	-0.750			
0.2738	17520.20	3.7120	3.7121	-0.8919	6.36	0.37	-0.750			
0.2764	17692.03	3.7090	3.7090	-0.8971	6.37	0.38	-0.750			
0.2791	17864.78	3.7060	3.7060	-0.9025	6.38	0.39	-0.750			
0.2818	18038.28	3.7030	3.7030	-0.9058	6.39	0.40	-0.750			
0.2846	18213.68	3.7000	3.7000	-0.9125	6.40	0.41	-0.750			
0.2873	18388.68	3.6970	3.6970	-0.9220	6.41	0.42	-0.750			
0.2901	18566.67	3.6940	3.6940	-0.9268	6.41	0.42	-0.750			
0.2929	18744.58	3.6910	3.6909	-0.9307	6.42	0.43	-0.750			
0.2957	18923.72	3.6880	3.6880	-0.9399	6.43	0.44	-0.750			
0.2985	19105.33	3.6850	3.6850	-0.9473	6.43	0.44	-0.750			
0.3014	19287.96	3.6820	3.6820	-0.9564	6.44	0.45	-0.750			
0.3043	19472.43	3.6790	3.6790	-0.9638	6.45	0.46	-0.750			
0.3071	19656.88	3.6760	3.6760	-0.9711	6.45	0.46	-0.750			
0.3101	19846.29	3.6730	3.6730	-0.9844	6.46	0.47	-0.750			
0.3131	20036.17	3.6700	3.6700	-0.9972	6.46	0.47	-0.750			
0.3161	20228.22	3.6670	3.6670	-1.0057	6.47	0.48	-0.750			
0.3191	20422.24	3.6640	3.6640	-1.0186	6.47	0.48	-0.750			
0.3222	20617.77	3.6610	3.6612	-1.0350	6.47	0.48	-0.750			
0.3253	20818.05	3.6580	3.6579	-1.0503	6.48	0.49	-0.750			
0.3284	21020.79	3.6550	3.6550	-1.0614	6.49	0.50	-0.750			
0.3317	21226.62	3.6520	3.6520	-1.0738	6.50	0.51	-0.750			
0.3349	21435.33	3.6490	3.6492	-1.0956	6.51	0.52	-0.750			
0.3382	21646.48	3.6460	3.6460	-1.1069	6.52	0.53	-0.750			
0.3415	21858.17	3.6430	3.6430	-1.1195	6.52	0.53	-0.750			
0.3449	22074.23	3.6400	3.6400	-1.1352	6.53	0.54	-0.750			
0.3484	22295.10	3.6370	3.6370	-1.1534	6.53	0.54	-0.750			
0.3519	22519.03	3.6340	3.6340	-1.1680	6.54	0.55	-0.750			
0.3554	22743.67	3.6310	3.6310	-1.1848	6.54	0.55	-0.750			
0.3589	22971.28	3.6280	3.6280	-1.2001	6.55	0.56	-0.750			
0.3626	23204.14	3.6250	3.6249	-1.2162	6.55	0.56	-0.750			
0.3662	23439.03	3.6220	3.6219	-1.2325	6.56	0.57	-0.750			
0.3699	23676.51	3.6190	3.6191	-1.2519	6.57	0.58	-0.750			
0.3737	23918.38	3.6160	3.6161	-1.2701	6.57	0.58	-0.750			
0.3776	24165.38	3.6130	3.6129	-1.2915	6.58	0.59	-0.750			
0.3815	24414.52	3.6100	3.6100	-1.3137	6.58	0.59	-0.750			
0.3855	24669.28	3.6070	3.6070	-1.3353	6.59	0.60	-0.750			
0.3895	24929.56	3.6040	3.6040	-1.3530	6.59	0.60	-0.750			
0.3936	25192.66	3.6010	3.6011	-1.3662	6.59	0.60	-0.750	0.469	1.136	
0.3977	25455.81	3.5980	3.5981	-1.3898	6.59	0.60	-0.750			
0.4019	25724.78	3.5950	3.5949	-1.4043	6.60	0.61	-0.750			
0.4062	25995.34	3.5920	3.5919	-1.4167	6.60	0.61	-0.750			
0.4104	26267.88	3.5890	3.5892	-1.4382	6.61	0.62	-0.750			
0.4148	26546.97	3.5860	3.5860	-1.4628	6.61	0.62	-0.750			
0.4192	26827.85	3.5830	3.5830	-1.4843	6.62	0.63	-0.750			
0.4236	27111.39	3.5800	3.5801	-1.5121	6.62	0.63	-0.750			
0.4282	27407.87	3.5770	3.5770	-1.5314	6.62	0.63	-0.750			
0.4329	27705.65	3.5740	3.5740	-1.5563	6.63	0.64	-0.750			
0.4376	28008.70	3.5710	3.5709	-1.5733	6.63	0.64	-0.750			
0.4424	28311.79	3.5680	3.5680	-1.5914	6.64	0.65	-0.750			
0.4472	28618.74	3.5650	3.5652	-1.6157	6.65	0.66	-0.750			
0.4520	28928.68	3.5620	3.5620	-1.6355	6.65	0.66	-0.750			
0.4569	29244.20	3.5590	3.5589	-1.6440	6.65	0.66	-0.750			
0.4619	29563.54	3.5560	3.5562	-1.6776	6.65	0.66	-0.750			
0.4670	29890.64	3.5530	3.5530	-1.6981	6.66	0.67	-0.750			
0.4722	30218.48	3.5500	3.5500	-1.7056	6.67	0.68	-0.750			
0.4773	30546.23	3.5470	3.5470	-1.7157	6.68	0.69	-0.750			
0.4824	30875.11	3.5440	3.5441	-1.7337	6.69	0.70	-0.750			
0.4877	31212.61	3.5410	3.5409	-1.7464	6.69	0.70	-0.750			
0.4930	31549.84	3.5380	3.5380	-1.7631	6.70	0.71	-0.750			
0.4982	31887.65	3.5350	3.5350	-1.7669	6.71	0.72	-0.750			
0.5036	32228.60	3.5320	3.5320	-1.7978	6.71	0.72	-0.750			
0.5090	32574.08	3.5290	3.5290	-1.8109	6.71	0.72	-0.750			
0.5144	32924.58	3.5260	3.5259	-1.8137	6.72	0.73	-0.750			
0.5199	33274.58	3.5230	3.5231	-1.8306	6.73	0.74	-0.750			
0.5255	33632.94	3.5200	3.5199	-1.8243	6.73	0.74	-0.750			
0.5310	33985.64	3.5170	3.5168	-1.8051	6.74	0.75	-0.750			
0.5363	34323.98	3.5140	3.5142	-1.7937	6.74	0.75	-0.750			
0.5417	34667.55	3.5110	3.5109	-1.7912	6.75	0.76	-0.750			
0.5470	35007.80	3.5080	3.5080	-1.7903	6.75	0.76	-0.750			
0.5524	35352.55	3.5050	3.5050	-1.7826	6.76	0.77	-0.750			
0.5577	35694.91	3.5020	3.5021	-1.7986	6.77	0.78	-0.750			
0.5632	36046.52	3.4990	3.4989	-1.7918	6.78	0.79	-0.750			
0.5687	36394.59	3.4960	3.4959	-1.7866	6.78	0.79	-0.750			
0.5739	36729.76	3.4930	3.4930	-1.7684	6.79	0.80	-0.750			
0.5792	37071.91	3.4900	3.4899	-1.7610	6.80	0.81	-0.750			
0.5845	37407.32	3.4870	3.4872	-1.7366	6.81	0.82	-0.750			
0.5897	37742.82	3.4840	3.4839	-1.7202	6.82	0.83	-0.750			
0.5948	38066.73	3.4810	3.4811	-1.7049	6.83	0.84	-0.750			
0.5999	38395.27	3.4780	3.4779	-1.6802	6.84	0.85	-0.750			
0.6049	38716.39	3.4750	3.4750	-1.6530	6.85	0.86	-0.750			
0.6099	39034.24	3.4720	3.4719	-1.6251	6.87	0.88	-0.750			
0.6148	39344.33	3.4690	3.4690	-1.6098	6.88	0.89	-0.750			
0.6196	39651.38	3.4660	3.4660	-1.5833	6.89	0.90	-0.750			
0.6243	39952.19	3.4630	3.4630	-1.5520	6.90	0.91	-0.750			
0.6288	40245.34	3.4600	3.4599	-1.5191	6.91	0.92	-0.750			
0.6334	40538.66	3.4570	3.4569	-1.4957	6.93	0.94	-0.750			
0.6378	40820.76	3.4540	3.4539	-1.4616	6.94	0.95	-0.750			
0.6422	41100.24	3.4510	3.4510	-1.4368	6.95	0.96	-0.750			
0.6464	41369.65	3.4480	3.4480	-1.4043	6.97	0.98	-0.750			
0.6506	41637.91	3.4450	3.4449	-1.3780	6.98	0.99	-0.750			
0.6548	41904.13	3.4420	3.4420	-1.3510	6.99	1.00	-0.750			
0.6587	42159.45	3.4390	3.4391	-1.3212	7.01	1.02	-0.750			
0.6627	42411.12	3.4360	3.4359	-1.2890	7.02	1.03	-0.750			
0.6665	42654.51	3.4330	3.4329	-1.2550	7.03	1.04	-0.750			
0.6702	42891.94	3.4300	3.4300	-1.2249	7.04	1.05	-0.750			
0.6738	43122.62	3.4270	3.4271	-1.1933	7.06	1.07	-0.750			
0.6774	43352.37	3.4240	3.4239	-1.1683	7.07	1.08	-0.750			
0.6809	43574.60	3.4210	3.4210	-1.1324	7.09	1.10	-0.750			
0.6842	43786.96	3.4180	3.4181	-1.0989	7.11	1.12	-0.750			
0.6874	43995.63	3.4150	3.4150	-1.0719	7.12	1.13	-0.750			
0.6906	44198.13	3.4120	3.4119	-1.0377	7.13	1.14	-0.750			
0.6937	44393.97	3.4090	3.4090	-1.0075	7.14	1.15	-0.750			
0.6966	44583.94	3.4060	3.4060	-0.9769	7.15	1.16	-0.750			
0.6995	44768.83	3.4030	3.4030	-0.9534	7.16	1.17	-0.750			
0.7023	44950.00	3.4000	3.3999	-0.9255	7.17	1.18	-0.750			
0.7051	45123.41	3.3970	3.3970	-0.8938	7.19	1.20	-0.750			
0.7077	45292.91	3.3940	3.3940	-0.8684	7.20	1.21	-0.750			
0.7103	45458.49	3.3910	3.3911	-0.8435	7.21	1.22	-0.750			
0.7128	45617.56	3.3880	3.3880	-0.8136	7.22	1.23	-0.750			
0.7152	45771.08	3.3850	3.3850	-0.7828	7.24	1.25	-0.750			
0.7175	45919.09	3.3820	3.3820	-0.7633	7.25	1.26	-0.750			
