Ah_balance (normalized)	Ah_balance (mAh)	Voltage - fit (V)	Voltage -  interpolate (V)	dQ/dV (1/V)	Temperature (°C)	Temperature - diff (°C)	Current (C)	R_DC 0ms (mOhm)	R_DC 50ms (mOhm)	R_DC 50 ms PEC (mOhm)
0.1786	11431.81	4.0820	4.0820	0.7425	7.49	1.52	0.750			
0.1809	11575.13	4.0790	4.0790	0.7530	7.48	1.51	0.750			
0.1831	11720.53	4.0760	4.0760	0.7665	7.48	1.51	0.750			
0.1855	11871.02	4.0730	4.0733	0.7757	7.47	1.50	0.750			
0.1878	12020.91	4.0700	4.0700	0.7826	7.46	1.49	0.750			
0.1902	12172.81	4.0670	4.0670	0.7845	7.45	1.48	0.750			
0.1926	12324.37	4.0640	4.0641	0.7872	7.45	1.48	0.750			
0.1949	12474.06	4.0610	4.0610	0.7913	7.44	1.47	0.750			
0.1973	12625.87	4.0580	4.0578	0.7950	7.43	1.46	0.750			
0.1997	12779.12	4.0550	4.0550	0.7944	7.43	1.46	0.750			
0.2021	12934.51	4.0520	4.0520	0.7921	7.43	1.46	0.750			
0.2045	13086.84	4.0490	4.0491	0.7971	7.42	1.45	0.750			
0.2069	13239.11	4.0460	4.0460	0.8034	7.42	1.45	0.750			
0.2092	13391.04	4.0430	4.0429	0.8043	7.42	1.45	0.750			
0.2117	13545.70	4.0400	4.0400	0.8087	7.42	1.45	0.750			
0.2141	13703.17	4.0370	4.0371	0.8112	7.41	1.44	0.750			
0.2166	13860.06	4.0340	4.0341	0.8173	7.40	1.43	0.750			
0.2190	14018.16	4.0310	4.0310	0.8251	7.40	1.43	0.750			
0.2215	14174.42	4.0280	4.0280	0.8216	7.39	1.42	0.750			
0.2239	14332.32	4.0250	4.0250	0.8252	7.39	1.42	0.750			
0.2264	14492.20	4.0220	4.0220	0.8264	7.38	1.41	0.750			
0.2289	14651.33	4.0190	4.0191	0.8300	7.38	1.41	0.750			
0.2314	14811.71	4.0160	4.0160	0.8358	7.38	1.41	0.750			
0.2339	14970.82	4.0130	4.0131	0.8337	7.37	1.40	0.750			
0.2364	15131.36	4.0100	4.0100	0.8353	7.37	1.40	0.750			
0.2390	15294.44	4.0070	4.0070	0.8325	7.36	1.39	0.750			
0.2414	15452.45	4.0040	4.0041	0.8401	7.36	1.39	0.750			
0.2440	15613.04	4.0010	4.0011	0.8482	7.36	1.39	0.750			
0.2465	15774.82	3.9980	3.9979	0.8509	7.35	1.38	0.750			
0.2491	15939.58	3.9950	3.9951	0.8537	7.35	1.38	0.750			
0.2517	16106.37	3.9920	3.9920	0.8540	7.34	1.37	0.750			
0.2542	16270.65	3.9890	3.9891	0.8566	7.34	1.37	0.750			
0.2568	16437.01	3.9860	3.9859	0.8584	7.34	1.37	0.750			
0.2593	16596.90	3.9830	3.9829	0.8570	7.33	1.36	0.750			
0.2619	16762.25	3.9800	3.9801	0.8664	7.32	1.35	0.750			
0.2645	16929.91	3.9770	3.9769	0.8698	7.32	1.35	0.750			
0.2672	17098.19	3.9740	3.9741	0.8770	7.31	1.34	0.750			
0.2698	17267.33	3.9710	3.9710	0.8883	7.30	1.33	0.750			
0.2724	17436.75	3.9680	3.9679	0.8903	7.29	1.32	0.750			
0.2752	17610.94	3.9650	3.9649	0.8864	7.29	1.32	0.750			
0.2778	17779.84	3.9620	3.9620	0.8900	7.28	1.31	0.750			
0.2805	17950.70	3.9590	3.9592	0.8973	7.28	1.31	0.750			
0.2832	18123.97	3.9560	3.9560	0.9028	7.27	1.30	0.750			
0.2859	18296.40	3.9530	3.9529	0.9039	7.27	1.30	0.750			
0.2886	18470.09	3.9500	3.9500	0.9081	7.26	1.29	0.750			
0.2913	18644.95	3.9470	3.9471	0.9204	7.26	1.29	0.750			
0.2941	18823.34	3.9440	3.9440	0.9314	7.26	1.29	0.750			
0.2969	19002.03	3.9410	3.9409	0.9325	7.25	1.28	0.750			
0.2998	19184.65	3.9380	3.9380	0.9295	7.25	1.28	0.750			
0.3025	19362.77	3.9350	3.9351	0.9390	7.24	1.27	0.750			
0.3054	19543.42	3.9320	3.9321	0.9456	7.24	1.27	0.750			
0.3082	19723.78	3.9290	3.9290	0.9556	7.23	1.26	0.750			
0.3110	19905.99	3.9260	3.9260	0.9574	7.23	1.26	0.750			
0.3139	20091.80	3.9230	3.9231	0.9594	7.22	1.25	0.750			
0.3168	20277.84	3.9200	3.9201	0.9716	7.21	1.24	0.750			
0.3198	20464.50	3.9170	3.9171	0.9804	7.20	1.23	0.750			
0.3227	20650.94	3.9140	3.9138	0.9863	7.19	1.22	0.750			
0.3256	20840.35	3.9110	3.9110	0.9926	7.18	1.21	0.750			
0.3286	21032.32	3.9080	3.9080	1.0040	7.18	1.21	0.750			
0.3317	21229.30	3.9050	3.9051	1.0179	7.17	1.20	0.750			
0.3348	21424.34	3.9020	3.9016	1.0262	7.16	1.19	0.750			
0.3378	21621.85	3.8990	3.8991	1.0315	7.15	1.18	0.750			
0.3410	21820.80	3.8960	3.8960	1.0446	7.15	1.18	0.750			
0.3441	22021.81	3.8930	3.8930	1.0564	7.14	1.17	0.750			
0.3473	22228.01	3.8900	3.8899	1.0689	7.13	1.16	0.750			
0.3505	22431.73	3.8870	3.8870	1.0743	7.12	1.15	0.750			
0.3537	22637.15	3.8840	3.8841	1.0876	7.12	1.15	0.750			
0.3570	22845.35	3.8810	3.8811	1.1030	7.11	1.14	0.750			
0.3603	23061.67	3.8780	3.8776	1.1151	7.10	1.13	0.750			
0.3637	23274.43	3.8750	3.8751	1.1324	7.09	1.12	0.750			
0.3671	23494.53	3.8720	3.8721	1.1512	7.08	1.11	0.750			
0.3706	23721.20	3.8690	3.8691	1.1676	7.07	1.10	0.750			
0.3741	23944.45	3.8660	3.8660	1.1702	7.07	1.10	0.750			
0.3776	24169.34	3.8630	3.8631	1.1829	7.05	1.08	0.750			
0.3812	24397.29	3.8600	3.8601	1.2011	7.04	1.07	0.750			
0.3849	24632.02	3.8570	3.8566	1.2154	7.03	1.06	0.750			
0.3885	24861.98	3.8540	3.8541	1.2305	7.02	1.05	0.750			
0.3922	25099.83	3.8510	3.8510	1.2615	7.01	1.04	0.750			
0.3961	25350.81	3.8480	3.8479	1.2771	6.99	1.02	0.750			
0.3999	25595.95	3.8450	3.8450	1.3037	6.98	1.01	0.750			
0.4038	25841.63	3.8420	3.8421	1.3400	6.97	1.00	0.750			
0.4079	26104.89	3.8390	3.8392	1.3659	6.96	0.99	0.750			
0.4120	26370.27	3.8360	3.8361	1.4048	6.94	0.97	0.750	0.392	0.916	
0.4163	26641.53	3.8330	3.8333	1.4266	6.93	0.96	0.750			
0.4206	26920.34	3.8300	3.8301	1.4490	6.91	0.94	0.750			
0.4250	27203.15	3.8270	3.8271	1.4808	6.89	0.92	0.750			
0.4295	27487.20	3.8240	3.8238	1.5006	6.88	0.91	0.750			
0.4340	27773.47	3.8210	3.8210	1.5277	6.86	0.89	0.750			
0.4387	28075.75	3.8180	3.8181	1.5441	6.85	0.88	0.750			
0.4433	28374.39	3.8150	3.8150	1.5918	6.83	0.86	0.750			
0.4481	28680.55	3.8120	3.8120	1.6214	6.81	0.84	0.750			
0.4531	28997.81	3.8090	3.8088	1.6424	6.79	0.82	0.750			
0.4581	29318.05	3.8060	3.8062	1.6995	6.78	0.81	0.750			
0.4632	29647.69	3.8030	3.8032	1.7206	6.75	0.78	0.750			
0.4685	29982.88	3.8000	3.8001	1.7951	6.73	0.76	0.750			
0.4739	30326.75	3.7970	3.7969	1.7945	6.71	0.74	0.750			
0.4794	30679.25	3.7940	3.7937	1.8398	6.69	0.72	0.750			
0.4849	31034.85	3.7910	3.7907	1.8907	6.67	0.70	0.750			
0.4908	31409.60	3.7880	3.7882	1.8981	6.64	0.67	0.750			
0.4965	31777.97	3.7850	3.7849	1.9039	6.61	0.64	0.750			
0.5023	32148.70	3.7820	3.7820	1.9371	6.59	0.62	0.750			
0.5079	32504.79	3.7790	3.7790	1.9462	6.56	0.59	0.750			
0.5138	32885.91	3.7760	3.7760	2.0360	6.54	0.57	0.750			
0.5202	33292.51	3.7730	3.7729	2.0786	6.52	0.55	0.750			
0.5265	33696.44	3.7700	3.7701	2.0715	6.49	0.52	0.750			
0.5327	34091.32	3.7670	3.7670	2.0999	6.46	0.49	0.750			
0.5390	34494.75	3.7640	3.7639	2.0728	6.43	0.46	0.750			
0.5451	34887.28	3.7610	3.7611	2.1191	6.40	0.43	0.750			
0.5516	35304.33	3.7580	3.7577	2.1774	6.37	0.40	0.750			
0.5582	35725.88	3.7550	3.7551	2.2118	6.35	0.38	0.750			
0.5651	36165.75	3.7520	3.7520	2.3044	6.32	0.35	0.750			
0.5718	36597.44	3.7490	3.7490	2.3324	6.29	0.32	0.750			
0.5790	37056.63	3.7460	3.7457	2.3493	6.27	0.30	0.750			
0.5862	37515.81	3.7430	3.7432	2.3292	6.25	0.28	0.750			
0.5930	37950.13	3.7400	3.7400	2.4505	6.22	0.25	0.750			
0.6004	38424.55	3.7370	3.7369	2.5016	6.19	0.22	0.750			
0.6084	38935.69	3.7340	3.7341	2.6517	6.16	0.19	0.750			
0.6164	39448.55	3.7310	3.7308	2.6582	6.13	0.16	0.750			
0.6242	39947.74	3.7280	3.7281	2.7174	6.10	0.13	0.750			
0.6327	40495.65	3.7250	3.7248	2.7442	6.08	0.11	0.750			
0.6413	41042.12	3.7220	3.7221	2.7920	6.05	0.08	0.750			
0.6497	41578.02	3.7190	3.7193	2.6822	6.03	0.06	0.750			
0.6574	42076.22	3.7160	3.7159	2.5053	6.01	0.04	0.750			
0.6647	42539.73	3.7130	3.7128	2.2600	6.00	0.03	0.750			
0.6712	42955.58	3.7100	3.7101	2.0777	5.99	0.02	0.750			
0.6772	43340.22	3.7070	3.7071	1.8888	5.98	0.01	0.750			
0.6824	43672.97	3.7040	3.7043	1.6372	5.97	0.00	0.750			
0.6870	43967.71	3.7010	3.7012	1.4588	5.97	-0.00	0.750			
0.6911	44233.53	3.6980	3.6978	1.2961	5.97	-0.00	0.750			
0.6946	44453.42	3.6950	3.6949	1.1566	5.96	-0.01	0.750			
0.6976	44647.79	3.6920	3.6918	1.0352	5.96	-0.01	0.750			
0.7005	44834.11	3.6890	3.6890	0.9611	5.96	-0.01	0.750			
0.7033	45009.39	3.6860	3.6860	0.9071	5.96	-0.01	0.750			
0.7058	45173.54	3.6830	3.6830	0.8605	5.96	-0.01	0.750			
0.7083	45334.36	3.6800	3.6800	0.8217	5.96	-0.01	0.750			
0.7108	45488.43	3.6770	3.6771	0.7820	5.96	-0.01	0.750			
0.7131	45636.02	3.6740	3.6740	0.7424	5.96	-0.01	0.750			
0.7153	45776.69	3.6710	3.6712	0.7003	5.96	-0.01	0.750			
0.7173	45907.39	3.6680	3.6680	0.6547	5.97	-0.00	0.750			
0.7192	46028.27	3.6650	3.6651	0.6084	5.97	-0.00	0.750			
0.7209	46140.29	3.6620	3.6619	0.5627	5.97	-0.00	0.750			
0.7225	46242.97	3.6590	3.6591	0.5192	5.97	-0.00	0.750			
0.7240	46338.70	3.6560	3.6561	0.4766	5.97	0.00	0.750			
0.7254	46426.08	3.6530	3.6529	0.4376	5.97	0.00	0.750			
0.7267	46506.03	3.6500	3.6499	0.3961	5.97	0.00	0.750			
0.7278	46577.11	3.6470	3.6472	0.3557	5.97	0.00	0.750			
0.7288	46641.17	3.6440	3.6441	0.3181	5.97	0.00	0.750			
0.7297	46699.14	3.6410	3.6409	0.2822	5.98	0.01	0.750			
0.7305	46750.03	3.6380	3.6378	0.2449	5.98	0.01	0.750			
0.7311	46793.29	3.6350	3.6350	0.2078	5.98	0.01	0.750			
0.7317	46829.11	3.6320	3.6320	0.1693	5.98	0.01	0.750			
0.7322	46859.46	3.6290	3.6293	0.1344	5.98	0.01	0.750			
0.7325	46882.93	3.6260	3.6264	0.0963	5.98	0.01	0.750			
0.7328	46898.20	3.6230	3.6235	0.0556	5.98	0.01	0.750			
0.7329	46903.63	3.6170	3.6210	-0.0272	5.98	0.01	0.750			
0.7329	46904.89	3.6200	3.6189	0.0142	5.98	0.01	0.750			
