Ah_balance (normalized)	Ah_balance (mAh)	Voltage - fit (V)	Voltage -  interpolate (V)	dQ/dV (1/V)	Temperature (°C)	Temperature - diff (°C)	Current (C)	R_DC 0ms (mOhm)	R_DC 50ms (mOhm)	R_DC 50 ms PEC (mOhm)
0.0915	5857.21	4.0030	4.0025	-0.0441	5.99	0.01	-0.750			
0.0917	5870.64	4.0000	3.9994	-0.0815	5.99	0.01	-0.750			
0.0920	5889.13	3.9970	3.9967	-0.1112	5.99	0.01	-0.750			
0.0924	5913.63	3.9940	3.9940	-0.1399	5.99	0.01	-0.750			
0.0929	5943.92	3.9910	3.9911	-0.1653	5.99	0.01	-0.750			
0.0934	5978.30	3.9880	3.9882	-0.1908	5.99	0.01	-0.750			
0.0940	6017.39	3.9850	3.9851	-0.2151	5.99	0.01	-0.750			
0.0947	6062.26	3.9820	3.9821	-0.2406	5.99	0.01	-0.750			
0.0955	6110.50	3.9790	3.9790	-0.2628	5.98	0.00	-0.750			
0.0963	6163.73	3.9760	3.9759	-0.2841	5.98	0.00	-0.750			
0.0972	6219.98	3.9730	3.9731	-0.3072	5.98	0.00	-0.750			
0.0981	6280.83	3.9700	3.9700	-0.3305	5.98	0.00	-0.750			
0.0992	6346.44	3.9670	3.9670	-0.3544	5.98	0.00	-0.750			
0.1003	6416.59	3.9640	3.9639	-0.3784	5.98	0.00	-0.750			
0.1014	6492.09	3.9610	3.9611	-0.3985	5.98	0.00	-0.750			
0.1027	6571.27	3.9580	3.9580	-0.4204	5.98	-0.00	-0.750			
0.1040	6654.50	3.9550	3.9550	-0.4433	5.98	-0.00	-0.750			
0.1053	6740.73	3.9520	3.9520	-0.4639	5.98	-0.00	-0.750			
0.1067	6831.72	3.9490	3.9489	-0.4820	5.98	-0.00	-0.750			
0.1082	6925.92	3.9460	3.9460	-0.5027	5.97	-0.01	-0.750			
0.1098	7025.25	3.9430	3.9431	-0.5195	5.97	-0.01	-0.750			
0.1114	7128.03	3.9400	3.9400	-0.5392	5.97	-0.01	-0.750			
0.1130	7232.88	3.9370	3.9369	-0.5514	5.97	-0.01	-0.750			
0.1147	7340.29	3.9340	3.9339	-0.5623	5.97	-0.01	-0.750			
0.1164	7449.50	3.9310	3.9311	-0.5738	5.97	-0.01	-0.750			
0.1181	7560.66	3.9280	3.9281	-0.5897	5.97	-0.01	-0.750			
0.1199	7673.37	3.9250	3.9250	-0.6027	5.97	-0.01	-0.750			
0.1218	7792.63	3.9220	3.9219	-0.6130	5.97	-0.01	-0.750			
0.1236	7911.40	3.9190	3.9190	-0.6192	5.97	-0.01	-0.750			
0.1255	8031.54	3.9160	3.9161	-0.6288	5.97	-0.01	-0.750			
0.1274	8154.57	3.9130	3.9130	-0.6370	5.97	-0.01	-0.750			
0.1293	8276.05	3.9100	3.9100	-0.6422	5.97	-0.01	-0.750			
0.1312	8397.92	3.9070	3.9070	-0.6436	5.97	-0.01	-0.750			
0.1332	8522.84	3.9040	3.9041	-0.6569	5.97	-0.01	-0.750			
0.1352	8652.42	3.9010	3.9009	-0.6630	5.97	-0.01	-0.750			
0.1372	8781.20	3.8980	3.8980	-0.6673	5.97	-0.01	-0.750			
0.1392	8909.02	3.8950	3.8952	-0.6696	5.97	-0.01	-0.750			
0.1412	9038.51	3.8920	3.8920	-0.6728	5.98	-0.00	-0.750			
0.1432	9166.58	3.8890	3.8889	-0.6781	5.98	0.00	-0.750			
0.1453	9296.44	3.8860	3.8861	-0.6797	5.99	0.01	-0.750			
0.1473	9427.60	3.8830	3.8829	-0.6870	6.00	0.02	-0.750			
0.1494	9560.78	3.8800	3.8800	-0.6915	6.00	0.02	-0.750			
0.1515	9694.17	3.8770	3.8771	-0.6943	6.01	0.03	-0.750			
0.1536	9827.67	3.8740	3.8740	-0.6942	6.01	0.03	-0.750			
0.1557	9961.65	3.8710	3.8710	-0.6962	6.02	0.04	-0.750			
0.1577	10095.70	3.8680	3.8680	-0.7005	6.02	0.04	-0.750			
0.1599	10231.30	3.8650	3.8649	-0.6973	6.02	0.04	-0.750			
0.1620	10365.83	3.8620	3.8619	-0.6959	6.03	0.05	-0.750			
0.1640	10499.06	3.8590	3.8596	-0.6960	6.03	0.05	-0.750			
0.1661	10632.36	3.8560	3.8558	-0.6965	6.04	0.06	-0.750			
0.1682	10765.60	3.8530	3.8530	-0.6979	6.04	0.06	-0.750			
0.1703	10897.12	3.8500	3.8500	-0.6976	6.04	0.06	-0.750			
0.1724	11034.13	3.8470	3.8470	-0.7089	6.05	0.07	-0.750			
0.1745	11170.20	3.8440	3.8440	-0.7083	6.06	0.08	-0.750			
0.1767	11307.80	3.8410	3.8409	-0.7014	6.06	0.08	-0.750			
0.1788	11441.02	3.8380	3.8380	-0.7042	6.07	0.09	-0.750			
0.1809	11575.43	3.8350	3.8351	-0.7037	6.07	0.09	-0.750			
0.1830	11710.30	3.8320	3.8318	-0.7091	6.08	0.10	-0.750			
0.1851	11846.40	3.8290	3.8291	-0.7106	6.08	0.10	-0.750			
0.1872	11983.63	3.8260	3.8260	-0.7144	6.09	0.11	-0.750			
0.1894	12122.04	3.8230	3.8231	-0.7163	6.09	0.11	-0.750			
0.1916	12262.68	3.8200	3.8200	-0.7184	6.10	0.12	-0.750			
0.1937	12397.26	3.8170	3.8170	-0.7163	6.10	0.12	-0.750			
0.1959	12534.90	3.8140	3.8140	-0.7164	6.11	0.13	-0.750			
0.1980	12672.86	3.8110	3.8110	-0.7160	6.12	0.14	-0.750			
0.2002	12809.72	3.8080	3.8079	-0.7142	6.13	0.15	-0.750			
0.2023	12946.02	3.8050	3.8051	-0.7191	6.13	0.15	-0.750			
0.2044	13084.69	3.8020	3.8020	-0.7204	6.14	0.16	-0.750			
0.2066	13222.48	3.7990	3.7988	-0.7259	6.14	0.16	-0.750			
0.2088	13361.69	3.7960	3.7961	-0.7233	6.15	0.17	-0.750			
0.2110	13502.25	3.7930	3.7931	-0.7296	6.15	0.17	-0.750			
0.2132	13643.46	3.7900	3.7900	-0.7361	6.16	0.18	-0.750			
0.2154	13785.32	3.7870	3.7868	-0.7353	6.16	0.18	-0.750			
0.2176	13923.35	3.7840	3.7840	-0.7336	6.17	0.19	-0.750			
0.2198	14066.76	3.7810	3.7810	-0.7391	6.18	0.20	-0.750			
0.2220	14208.19	3.7780	3.7780	-0.7412	6.19	0.21	-0.750			
0.2243	14352.05	3.7750	3.7749	-0.7471	6.19	0.21	-0.750			
0.2265	14494.77	3.7720	3.7721	-0.7480	6.20	0.22	-0.750			
0.2287	14639.00	3.7690	3.7689	-0.7491	6.21	0.23	-0.750			
0.2310	14782.67	3.7660	3.7660	-0.7579	6.21	0.23	-0.750			
0.2333	14928.45	3.7630	3.7630	-0.7601	6.22	0.24	-0.750			
0.2355	15074.36	3.7600	3.7600	-0.7645	6.22	0.24	-0.750			
0.2379	15223.21	3.7570	3.7569	-0.7641	6.23	0.25	-0.750			
0.2402	15369.91	3.7540	3.7541	-0.7674	6.23	0.25	-0.750			
0.2425	15516.80	3.7510	3.7510	-0.7762	6.24	0.26	-0.750			
0.2448	15666.42	3.7480	3.7480	-0.7800	6.25	0.27	-0.750			
0.2471	15814.85	3.7450	3.7449	-0.7827	6.26	0.28	-0.750			
0.2495	15967.17	3.7420	3.7420	-0.7932	6.26	0.28	-0.750			
0.2519	16122.19	3.7390	3.7391	-0.7936	6.27	0.29	-0.750			
0.2543	16275.19	3.7360	3.7360	-0.7969	6.28	0.30	-0.750			
0.2567	16427.96	3.7330	3.7330	-0.8051	6.29	0.31	-0.750			
0.2591	16583.16	3.7300	3.7300	-0.8080	6.29	0.31	-0.750			
0.2615	16739.01	3.7270	3.7268	-0.8147	6.30	0.32	-0.750			
0.2640	16895.47	3.7240	3.7244	-0.8168	6.31	0.33	-0.750			
0.2665	17053.82	3.7210	3.7210	-0.8205	6.31	0.33	-0.750			
0.2689	17211.96	3.7180	3.7180	-0.8305	6.32	0.34	-0.750			
0.2714	17369.86	3.7150	3.7150	-0.8321	6.32	0.34	-0.750			
0.2739	17531.87	3.7120	3.7120	-0.8434	6.33	0.35	-0.750			
0.2765	17694.26	3.7090	3.7092	-0.8466	6.33	0.35	-0.750			
0.2790	17857.96	3.7060	3.7060	-0.8505	6.33	0.35	-0.750			
0.2816	18021.53	3.7030	3.7030	-0.8614	6.34	0.36	-0.750			
0.2842	18187.10	3.7000	3.6999	-0.8629	6.34	0.36	-0.750			
0.2868	18352.94	3.6970	3.6970	-0.8700	6.35	0.37	-0.750			
0.2894	18519.86	3.6940	3.6942	-0.8775	6.35	0.37	-0.750			
0.2920	18689.39	3.6910	3.6909	-0.8875	6.35	0.37	-0.750			
0.2947	18861.03	3.6880	3.6880	-0.8950	6.36	0.38	-0.750			
0.2974	19032.81	3.6850	3.6850	-0.9010	6.36	0.38	-0.750			
0.3001	19208.29	3.6820	3.6820	-0.9060	6.37	0.39	-0.750			
0.3029	19383.73	3.6790	3.6791	-0.9127	6.37	0.39	-0.750			
0.3056	19557.94	3.6760	3.6760	-0.9226	6.38	0.40	-0.750			
0.3084	19736.47	3.6730	3.6730	-0.9262	6.38	0.40	-0.750			
0.3112	19914.42	3.6700	3.6699	-0.9315	6.39	0.41	-0.750			
0.3140	20094.26	3.6670	3.6673	-0.9358	6.39	0.41	-0.750			
0.3168	20274.34	3.6640	3.6640	-0.9459	6.39	0.41	-0.750			
0.3197	20457.65	3.6610	3.6609	-0.9488	6.40	0.42	-0.750			
0.3225	20638.09	3.6580	3.6579	-0.9514	6.40	0.42	-0.750			
0.3254	20823.36	3.6550	3.6550	-0.9600	6.41	0.43	-0.750			
0.3282	21007.46	3.6520	3.6520	-0.9681	6.41	0.43	-0.750			
0.3311	21192.73	3.6490	3.6490	-0.9810	6.42	0.44	-0.750			
0.3341	21383.78	3.6460	3.6460	-0.9884	6.42	0.44	-0.750			
0.3371	21574.46	3.6430	3.6429	-0.9904	6.43	0.45	-0.750			
0.3401	21765.70	3.6400	3.6401	-1.0076	6.43	0.45	-0.750			
0.3431	21960.35	3.6370	3.6371	-1.0144	6.44	0.46	-0.750			
0.3462	22156.25	3.6340	3.6339	-1.0227	6.44	0.46	-0.750			
0.3492	22351.57	3.6310	3.6308	-1.0231	6.45	0.47	-0.750			
0.3523	22549.33	3.6280	3.6282	-1.0352	6.45	0.47	-0.750			
0.3555	22752.87	3.6250	3.6249	-1.0410	6.46	0.48	-0.750			
0.3586	22951.04	3.6220	3.6220	-1.0430	6.46	0.48	-0.750			
0.3617	23148.66	3.6190	3.6190	-1.0409	6.47	0.49	-0.750			
0.3648	23349.70	3.6160	3.6160	-1.0597	6.47	0.49	-0.750			
0.3680	23553.95	3.6130	3.6130	-1.0689	6.47	0.49	-0.750			
0.3713	23761.68	3.6100	3.6100	-1.0792	6.48	0.50	-0.750			
0.3746	23976.15	3.6070	3.6070	-1.0427	6.48	0.50	-0.750			
0.3778	24178.37	3.6040	3.6041	-1.0393	6.48	0.50	-0.750			
0.3808	24368.14	3.6010	3.6014	-1.0471	6.48	0.50	-0.750			
0.3838	24560.94	3.5980	3.5974	-1.0534	6.48	0.50	-0.750			
0.3869	24758.52	3.5950	3.5946	-1.0657	6.48	0.50	-0.750			
0.3901	24964.78	3.5920	3.5922	-1.1098	6.48	0.50	-0.750			
0.3936	25191.05	3.5890	3.5891	-1.1505	6.48	0.50	-0.750			
0.3973	25424.74	3.5860	3.5860	-1.1772	6.49	0.51	-0.750			
0.4007	25647.34	3.5830	3.5829	-1.1700	6.49	0.51	-0.750	0.472	1.039	
0.4042	25871.48	3.5800	3.5800	-1.1706	6.49	0.51	-0.750			
0.4077	26095.49	3.5770	3.5770	-1.1736	6.50	0.52	-0.750			
0.4113	26320.83	3.5740	3.5739	-1.1801	6.51	0.53	-0.750			
0.4148	26546.25	3.5710	3.5712	-1.1928	6.51	0.53	-0.750			
0.4184	26780.28	3.5680	3.5679	-1.2039	6.51	0.53	-0.750			
0.4221	27011.61	3.5650	3.5650	-1.2134	6.51	0.53	-0.750			
0.4257	27246.31	3.5620	3.5618	-1.2205	6.51	0.53	-0.750			
0.4294	27482.08	3.5590	3.5589	-1.2359	6.51	0.53	-0.750			
0.4331	27720.78	3.5560	3.5559	-1.2420	6.51	0.53	-0.750			
0.4368	27956.17	3.5530	3.5530	-1.2579	6.51	0.53	-0.750			
0.4407	28202.07	3.5500	3.5500	-1.2754	6.51	0.53	-0.750			
0.4445	28447.80	3.5470	3.5469	-1.2841	6.52	0.54	-0.750			
0.4483	28693.38	3.5440	3.5440	-1.2928	6.53	0.55	-0.750			
0.4522	28942.11	3.5410	3.5411	-1.3073	6.54	0.56	-0.750			
0.4562	29198.57	3.5380	3.5380	-1.3237	6.54	0.56	-0.750			
0.4602	29454.88	3.5350	3.5349	-1.3314	6.55	0.57	-0.750			
0.4642	29709.39	3.5320	3.5323	-1.3468	6.55	0.57	-0.750			
0.4683	29974.23	3.5290	3.5289	-1.3544	6.56	0.58	-0.750			
0.4724	30233.26	3.5260	3.5259	-1.3537	6.56	0.58	-0.750			
0.4764	30490.47	3.5230	3.5233	-1.3618	6.57	0.59	-0.750			
0.4805	30754.33	3.5200	3.5200	-1.3811	6.58	0.60	-0.750			
0.4847	31018.76	3.5170	3.5168	-1.3896	6.60	0.62	-0.750			
0.4888	31285.37	3.5140	3.5140	-1.4009	6.61	0.63	-0.750			
0.4931	31559.55	3.5110	3.5110	-1.4170	6.62	0.64	-0.750			
0.4974	31834.64	3.5080	3.5080	-1.4231	6.62	0.64	-0.750			
0.5017	32108.84	3.5050	3.5052	-1.4291	6.63	0.65	-0.750			
0.5059	32379.84	3.5020	3.5020	-1.4352	6.64	0.66	-0.750			
0.5102	32653.18	3.4990	3.4990	-1.4429	6.66	0.68	-0.750			
0.5146	32933.28	3.4960	3.4961	-1.4472	6.67	0.69	-0.750			
0.5190	33214.76	3.4930	3.4926	-1.4595	6.69	0.71	-0.750			
0.5234	33494.55	3.4900	3.4902	-1.4646	6.70	0.72	-0.750			
0.5278	33777.88	3.4870	3.4870	-1.4672	6.71	0.73	-0.750			
0.5322	34061.91	3.4840	3.4839	-1.4691	6.73	0.75	-0.750			
0.5365	34337.05	3.4810	3.4810	-1.4555	6.74	0.76	-0.750			
0.5410	34621.84	3.4780	3.4780	-1.4667	6.76	0.78	-0.750			
0.5454	34906.45	3.4750	3.4749	-1.4712	6.77	0.79	-0.750			
0.5498	35187.10	3.4720	3.4720	-1.4672	6.78	0.80	-0.750			
0.5542	35468.20	3.4690	3.4690	-1.4656	6.80	0.82	-0.750			
0.5586	35752.01	3.4660	3.4660	-1.4649	6.81	0.83	-0.750			
0.5630	36032.68	3.4630	3.4629	-1.4632	6.83	0.85	-0.750			
0.5674	36312.67	3.4600	3.4600	-1.4554	6.85	0.87	-0.750			
0.5718	36593.66	3.4570	3.4569	-1.4471	6.87	0.89	-0.750			
0.5761	36871.99	3.4540	3.4541	-1.4407	6.89	0.91	-0.750			
0.5804	37146.39	3.4510	3.4510	-1.4220	6.91	0.93	-0.750			
0.5847	37421.44	3.4480	3.4480	-1.4147	6.92	0.94	-0.750			
0.5889	37691.85	3.4450	3.4452	-1.4036	6.94	0.96	-0.750			
0.5931	37958.54	3.4420	3.4419	-1.3854	6.96	0.98	-0.750			
0.5973	38225.12	3.4390	3.4390	-1.3751	6.97	0.99	-0.750			
0.6015	38499.18	3.4360	3.4361	-1.3258	6.99	1.01	-0.750			
0.6057	38762.81	3.4330	3.4328	-1.2784	7.01	1.03	-0.750			
0.6094	39000.14	3.4300	3.4301	-1.2031	7.03	1.05	-0.750			
0.6128	39219.11	3.4270	3.4275	-1.1465	7.04	1.06	-0.750			
0.6159	39420.44	3.4240	3.4225	-1.1384	7.06	1.08	-0.750			
0.6192	39630.10	3.4210	3.4203	-1.1255	7.08	1.10	-0.750			
0.6225	39838.39	3.4180	3.4179	-1.1258	7.09	1.11	-0.750			
0.6260	40062.92	3.4150	3.4158	-1.1510	7.11	1.13	-0.750			
0.6297	40303.85	3.4120	3.4117	-1.1832	7.13	1.15	-0.750			
0.6333	40531.08	3.4090	3.4090	-1.1677	7.14	1.16	-0.750			
0.6366	40744.71	3.4060	3.4059	-1.1335	7.16	1.18	-0.750			
0.6401	40967.60	3.4030	3.4030	-1.1367	7.18	1.20	-0.750			
0.6435	41187.05	3.4000	3.3999	-1.1159	7.19	1.21	-0.750			
0.6469	41398.83	3.3970	3.3970	-1.0858	7.21	1.23	-0.750			
0.6501	41605.12	3.3940	3.3940	-1.0465	7.22	1.24	-0.750			
0.6532	41803.59	3.3910	3.3908	-1.0166	7.24	1.26	-0.750			
0.6561	41992.82	3.3880	3.3880	-0.9893	7.25	1.27	-0.750			
0.6591	42180.21	3.3850	3.3848	-0.9612	7.27	1.29	-0.750			
0.6619	42360.59	3.3820	3.3819	-0.9318	7.28	1.30	-0.750			
0.6647	42539.57	3.3790	3.3792	-0.9151	7.29	1.31	-0.750			
0.6674	42713.90	3.3760	3.3760	-0.8886	7.31	1.33	-0.750			
0.6701	42884.24	3.3730	3.3728	-0.8747	7.33	1.35	-0.750			
0.6726	43045.88	3.3700	3.3699	-0.8458	7.35	1.37	-0.750			
0.6752	43210.17	3.3670	3.3669	-0.8348	7.36	1.38	-0.750			
0.6777	43370.05	3.3640	3.3641	-0.8147	7.38	1.40	-0.750			
0.6800	43522.77	3.3610	3.3609	-0.7949	7.39	1.41	-0.750			
0.6824	43672.37	3.3580	3.3580	-0.7725	7.40	1.42	-0.750			
0.6846	43815.62	3.3550	3.3550	-0.7469	7.42	1.44	-0.750			
0.6869	43961.66	3.3520	3.3520	-0.7348	7.43	1.45	-0.750			
0.6891	44100.62	3.3490	3.3494	-0.7153	7.44	1.46	-0.750			
0.6912	44237.03	3.3460	3.3461	-0.6901	7.46	1.48	-0.750			
0.6932	44366.26	3.3430	3.3430	-0.6752	7.47	1.49	-0.750			
0.6952	44492.56	3.3400	3.3399	-0.6655	7.48	1.50	-0.750			
0.6972	44618.95	3.3370	3.3371	-0.6522	7.50	1.52	-0.750			
0.6991	44744.27	3.3340	3.3338	-0.6343	7.51	1.53	-0.750			
0.7011	44867.32	3.3310	3.3311	-0.6206	7.53	1.55	-0.750			
0.7029	44984.30	3.3280	3.3279	-0.6026	7.54	1.56	-0.750			
0.7047	45098.88	3.3250	3.3249	-0.5883	7.55	1.57	-0.750			
0.7064	45206.60	3.3220	3.3219	-0.5658	7.57	1.59	-0.750			
0.7080	45309.64	3.3190	3.3191	-0.5588	7.58	1.60	-0.750			
0.7097	45418.71	3.3160	3.3161	-0.5447	7.59	1.61	-0.750			
0.7113	45522.01	3.3130	3.3129	-0.5305	7.60	1.62	-0.750			
