Ah_balance (normalized)	Ah_balance (mAh)	Voltage - fit (V)	Voltage -  interpolate (V)	dQ/dV (1/V)	Temperature (°C)	Temperature - diff (°C)	Current (C)	R_DC 0ms (mOhm)	R_DC 50ms (mOhm)	R_DC 50 ms PEC (mOhm)
0.0924	5913.71	4.0040	4.0032	-0.0550	5.98	-0.01	-0.750			
0.0926	5927.53	4.0010	4.0004	-0.0870	5.98	-0.01	-0.750			
0.0929	5947.85	3.9980	3.9977	-0.1172	5.98	-0.01	-0.750			
0.0933	5973.03	3.9950	3.9950	-0.1451	5.98	-0.01	-0.750			
0.0938	6003.92	3.9920	3.9920	-0.1705	5.98	-0.01	-0.750			
0.0944	6039.42	3.9890	3.9891	-0.1953	5.98	-0.01	-0.750			
0.0950	6080.47	3.9860	3.9861	-0.2209	5.98	-0.01	-0.750			
0.0957	6124.96	3.9830	3.9830	-0.2443	5.98	-0.01	-0.750			
0.0965	6174.17	3.9800	3.9800	-0.2671	5.98	-0.01	-0.750			
0.0973	6227.59	3.9770	3.9770	-0.2900	5.98	-0.01	-0.750			
0.0982	6285.54	3.9740	3.9740	-0.3131	5.98	-0.01	-0.750			
0.0992	6347.71	3.9710	3.9710	-0.3385	5.99	-0.00	-0.750			
0.1002	6414.79	3.9680	3.9680	-0.3631	5.99	-0.00	-0.750			
0.1014	6487.17	3.9650	3.9649	-0.3865	5.99	-0.00	-0.750			
0.1026	6564.10	3.9620	3.9621	-0.4086	5.99	-0.00	-0.750			
0.1038	6645.12	3.9590	3.9590	-0.4313	5.99	-0.00	-0.750			
0.1052	6730.02	3.9560	3.9560	-0.4524	5.99	0.00	-0.750			
0.1066	6819.27	3.9530	3.9530	-0.4716	5.99	0.00	-0.750			
0.1080	6911.24	3.9500	3.9500	-0.4909	5.99	0.00	-0.750			
0.1095	7007.71	3.9470	3.9471	-0.5107	5.99	0.00	-0.750			
0.1111	7107.35	3.9440	3.9440	-0.5335	6.00	0.01	-0.750			
0.1127	7212.56	3.9410	3.9409	-0.5523	6.00	0.01	-0.750			
0.1144	7320.66	3.9380	3.9380	-0.5682	6.00	0.01	-0.750			
0.1161	7431.66	3.9350	3.9350	-0.5853	6.00	0.01	-0.750			
0.1179	7546.48	3.9320	3.9320	-0.5981	6.00	0.01	-0.750			
0.1197	7663.36	3.9290	3.9290	-0.6081	6.01	0.02	-0.750			
0.1216	7781.01	3.9260	3.9260	-0.6170	6.01	0.02	-0.750			
0.1234	7899.02	3.9230	3.9231	-0.6273	6.02	0.03	-0.750			
0.1253	8021.30	3.9200	3.9199	-0.6399	6.02	0.03	-0.750			
0.1273	8145.22	3.9170	3.9170	-0.6477	6.02	0.03	-0.750			
0.1292	8270.08	3.9140	3.9140	-0.6567	6.03	0.04	-0.750			
0.1312	8398.70	3.9110	3.9110	-0.6649	6.04	0.05	-0.750			
0.1332	8527.24	3.9080	3.9078	-0.6692	6.04	0.05	-0.750			
0.1352	8655.64	3.9050	3.9051	-0.6749	6.05	0.06	-0.750			
0.1373	8784.96	3.9020	3.9020	-0.6814	6.05	0.06	-0.750			
0.1393	8917.31	3.8990	3.8989	-0.6866	6.06	0.07	-0.750			
0.1414	9049.94	3.8960	3.8960	-0.6922	6.07	0.08	-0.750			
0.1435	9182.90	3.8930	3.8930	-0.6949	6.07	0.08	-0.750			
0.1456	9317.55	3.8900	3.8900	-0.6979	6.08	0.09	-0.750			
0.1477	9451.85	3.8870	3.8870	-0.7046	6.09	0.10	-0.750			
0.1498	9587.09	3.8840	3.8840	-0.7072	6.09	0.10	-0.750			
0.1519	9723.92	3.8810	3.8809	-0.7089	6.10	0.11	-0.750			
0.1541	9861.04	3.8780	3.8781	-0.7124	6.11	0.12	-0.750			
0.1562	9997.76	3.8750	3.8750	-0.7108	6.12	0.13	-0.750			
0.1583	10133.92	3.8720	3.8720	-0.7130	6.13	0.14	-0.750			
0.1605	10269.85	3.8690	3.8690	-0.7165	6.13	0.14	-0.750			
0.1626	10407.33	3.8660	3.8658	-0.7164	6.14	0.15	-0.750			
0.1648	10547.31	3.8630	3.8630	-0.7204	6.15	0.16	-0.750			
0.1670	10685.76	3.8600	3.8603	-0.7222	6.16	0.17	-0.750			
0.1691	10825.29	3.8570	3.8569	-0.7235	6.17	0.18	-0.750			
0.1713	10963.56	3.8540	3.8540	-0.7286	6.18	0.19	-0.750			
0.1735	11101.76	3.8510	3.8509	-0.7247	6.19	0.20	-0.750			
0.1757	11242.77	3.8480	3.8480	-0.7287	6.19	0.20	-0.750			
0.1779	11383.20	3.8450	3.8450	-0.7268	6.20	0.21	-0.750			
0.1800	11522.40	3.8420	3.8421	-0.7310	6.21	0.22	-0.750			
0.1822	11662.60	3.8390	3.8390	-0.7286	6.22	0.23	-0.750			
0.1844	11800.75	3.8360	3.8360	-0.7300	6.23	0.24	-0.750			
0.1866	11940.77	3.8330	3.8331	-0.7286	6.24	0.25	-0.750			
0.1888	12082.65	3.8300	3.8300	-0.7360	6.25	0.26	-0.750			
0.1910	12223.93	3.8270	3.8268	-0.7328	6.26	0.27	-0.750			
0.1932	12364.87	3.8240	3.8240	-0.7339	6.27	0.28	-0.750			
0.1954	12504.54	3.8210	3.8210	-0.7330	6.28	0.29	-0.750			
0.1976	12646.08	3.8180	3.8179	-0.7367	6.29	0.30	-0.750			
0.1998	12785.83	3.8150	3.8150	-0.7337	6.30	0.31	-0.750			
0.2020	12928.79	3.8120	3.8118	-0.7380	6.31	0.32	-0.750			
0.2042	13069.98	3.8090	3.8091	-0.7410	6.32	0.33	-0.750			
0.2065	13213.96	3.8060	3.8059	-0.7403	6.33	0.34	-0.750			
0.2087	13355.47	3.8030	3.8029	-0.7402	6.34	0.35	-0.750			
0.2109	13498.33	3.8000	3.8000	-0.7445	6.35	0.36	-0.750			
0.2131	13640.80	3.7970	3.7970	-0.7433	6.35	0.36	-0.750			
0.2154	13784.96	3.7940	3.7939	-0.7452	6.36	0.37	-0.750			
0.2176	13927.78	3.7910	3.7911	-0.7449	6.37	0.38	-0.750			
0.2198	14069.97	3.7880	3.7880	-0.7449	6.38	0.39	-0.750			
0.2221	14213.57	3.7850	3.7850	-0.7514	6.39	0.40	-0.750			
0.2243	14355.59	3.7820	3.7819	-0.7502	6.41	0.42	-0.750			
0.2266	14502.47	3.7790	3.7790	-0.7580	6.42	0.43	-0.750			
0.2289	14648.41	3.7760	3.7760	-0.7619	6.43	0.44	-0.750			
0.2312	14795.60	3.7730	3.7730	-0.7611	6.44	0.45	-0.750			
0.2335	14941.33	3.7700	3.7699	-0.7643	6.45	0.46	-0.750			
0.2357	15087.75	3.7670	3.7671	-0.7674	6.46	0.47	-0.750			
0.2380	15234.92	3.7640	3.7640	-0.7686	6.47	0.48	-0.750			
0.2404	15383.81	3.7610	3.7608	-0.7732	6.48	0.49	-0.750			
0.2427	15532.60	3.7580	3.7582	-0.7775	6.49	0.50	-0.750			
0.2450	15681.20	3.7550	3.7550	-0.7811	6.50	0.51	-0.750			
0.2474	15831.72	3.7520	3.7520	-0.7877	6.51	0.52	-0.750			
0.2497	15983.09	3.7490	3.7490	-0.7869	6.51	0.52	-0.750			
0.2521	16135.39	3.7460	3.7460	-0.7927	6.52	0.53	-0.750			
0.2545	16288.85	3.7430	3.7431	-0.7998	6.53	0.54	-0.750			
0.2569	16442.37	3.7400	3.7400	-0.8031	6.54	0.55	-0.750			
0.2593	16596.69	3.7370	3.7370	-0.8075	6.55	0.56	-0.750			
0.2618	16752.11	3.7340	3.7340	-0.8136	6.56	0.57	-0.750			
0.2642	16908.83	3.7310	3.7309	-0.8195	6.58	0.59	-0.750			
0.2667	17067.79	3.7280	3.7281	-0.8253	6.59	0.60	-0.750			
0.2692	17226.61	3.7250	3.7249	-0.8279	6.60	0.61	-0.750			
0.2717	17385.63	3.7220	3.7221	-0.8328	6.61	0.62	-0.750			
0.2742	17545.60	3.7190	3.7190	-0.8379	6.62	0.63	-0.750			
0.2767	17706.60	3.7160	3.7160	-0.8452	6.63	0.64	-0.750			
0.2792	17869.87	3.7130	3.7131	-0.8524	6.64	0.65	-0.750			
0.2818	18033.57	3.7100	3.7100	-0.8636	6.65	0.66	-0.750			
0.2844	18201.02	3.7070	3.7070	-0.8727	6.66	0.67	-0.750			
0.2870	18369.72	3.7040	3.7040	-0.8802	6.66	0.67	-0.750			
0.2897	18539.09	3.7010	3.7010	-0.8848	6.67	0.68	-0.750			
0.2924	18711.81	3.6980	3.6982	-0.8900	6.68	0.69	-0.750			
0.2950	18883.07	3.6950	3.6950	-0.8938	6.69	0.70	-0.750			
0.2977	19054.66	3.6920	3.6920	-0.9004	6.70	0.71	-0.750			
0.3004	19227.24	3.6890	3.6890	-0.9050	6.71	0.72	-0.750			
0.3031	19400.66	3.6860	3.6859	-0.9133	6.72	0.73	-0.750			
0.3059	19576.60	3.6830	3.6830	-0.9207	6.73	0.74	-0.750			
0.3087	19754.69	3.6800	3.6800	-0.9355	6.74	0.75	-0.750			
0.3115	19936.13	3.6770	3.6770	-0.9440	6.75	0.76	-0.750			
0.3143	20118.34	3.6740	3.6740	-0.9537	6.76	0.77	-0.750			
0.3172	20302.85	3.6710	3.6711	-0.9580	6.77	0.78	-0.750			
0.3201	20487.73	3.6680	3.6680	-0.9710	6.78	0.79	-0.750			
0.3230	20674.86	3.6650	3.6650	-0.9782	6.79	0.80	-0.750			
0.3260	20863.26	3.6620	3.6619	-0.9847	6.80	0.81	-0.750			
0.3290	21053.64	3.6590	3.6591	-0.9921	6.81	0.82	-0.750			
0.3319	21244.61	3.6560	3.6560	-0.9994	6.82	0.83	-0.750			
0.3350	21437.15	3.6530	3.6530	-1.0064	6.83	0.84	-0.750			
0.3380	21631.21	3.6500	3.6500	-1.0151	6.84	0.85	-0.750			
0.3410	21824.63	3.6470	3.6469	-1.0181	6.85	0.86	-0.750			
0.3441	22022.36	3.6440	3.6440	-1.0324	6.86	0.87	-0.750			
0.3472	22221.62	3.6410	3.6410	-1.0420	6.86	0.87	-0.750			
0.3504	22423.87	3.6380	3.6380	-1.0518	6.87	0.88	-0.750			
0.3535	22626.26	3.6350	3.6349	-1.0522	6.88	0.89	-0.750			
0.3567	22829.70	3.6320	3.6320	-1.0667	6.89	0.90	-0.750			
0.3599	23035.52	3.6290	3.6290	-1.0737	6.89	0.90	-0.750			
0.3632	23241.95	3.6260	3.6259	-1.0823	6.90	0.91	-0.750			
0.3664	23449.72	3.6230	3.6229	-1.0900	6.91	0.92	-0.750			
0.3697	23660.96	3.6200	3.6200	-1.1056	6.92	0.93	-0.750			
0.3731	23876.15	3.6170	3.6170	-1.1091	6.92	0.93	-0.750			
0.3764	24090.57	3.6140	3.6140	-1.1200	6.93	0.94	-0.750			
0.3797	24303.23	3.6110	3.6112	-1.1311	6.94	0.95	-0.750			
0.3832	24523.33	3.6080	3.6079	-1.1412	6.95	0.96	-0.750			
0.3866	24742.85	3.6050	3.6049	-1.1491	6.96	0.97	-0.750			
0.3901	24963.46	3.6020	3.6020	-1.1593	6.97	0.98	-0.750			
0.3935	25186.77	3.5990	3.5990	-1.1838	6.97	0.98	-0.750			
0.3972	25417.88	3.5960	3.5959	-1.1917	6.98	0.99	-0.750			
0.4007	25646.27	3.5930	3.5929	-1.1985	6.99	1.00	-0.750			
0.4043	25877.14	3.5900	3.5901	-1.2085	7.00	1.01	-0.750			
0.4080	26112.75	3.5870	3.5870	-1.2197	7.01	1.02	-0.750	0.457	1.013	
0.4117	26347.60	3.5840	3.5840	-1.2257	7.01	1.02	-0.750			
0.4153	26581.61	3.5810	3.5809	-1.2358	7.02	1.03	-0.750			
0.4190	26817.74	3.5780	3.5780	-1.2441	7.02	1.03	-0.750			
0.4228	27060.44	3.5750	3.5750	-1.2645	7.02	1.03	-0.750			
0.4266	27302.84	3.5720	3.5720	-1.2733	7.03	1.04	-0.750			
0.4304	27548.36	3.5690	3.5691	-1.2873	7.03	1.04	-0.750			
0.4344	27799.12	3.5660	3.5660	-1.3042	7.04	1.05	-0.750			
0.4383	28051.74	3.5630	3.5630	-1.3124	7.04	1.05	-0.750			
0.4423	28305.04	3.5600	3.5601	-1.3276	7.05	1.06	-0.750			
0.4463	28561.51	3.5570	3.5570	-1.3385	7.06	1.07	-0.750			
0.4503	28818.17	3.5540	3.5540	-1.3507	7.06	1.07	-0.750			
0.4543	29078.21	3.5510	3.5513	-1.3662	7.07	1.08	-0.750			
0.4585	29342.08	3.5480	3.5479	-1.3811	7.08	1.09	-0.750			
0.4626	29608.09	3.5450	3.5450	-1.3951	7.08	1.09	-0.750			
0.4668	29877.80	3.5420	3.5420	-1.4082	7.09	1.10	-0.750			
0.4711	30151.92	3.5390	3.5390	-1.4268	7.10	1.11	-0.750			
0.4754	30426.62	3.5360	3.5360	-1.4296	7.10	1.11	-0.750			
0.4797	30699.78	3.5330	3.5330	-1.4429	7.11	1.12	-0.750			
0.4840	30978.73	3.5300	3.5300	-1.4515	7.12	1.13	-0.750			
0.4884	31258.99	3.5270	3.5269	-1.4605	7.12	1.13	-0.750			
0.4928	31541.24	3.5240	3.5241	-1.4698	7.13	1.14	-0.750			
0.4973	31825.87	3.5210	3.5209	-1.4770	7.14	1.15	-0.750			
0.5017	32109.09	3.5180	3.5180	-1.4831	7.15	1.16	-0.750			
0.5062	32396.47	3.5150	3.5150	-1.4811	7.15	1.16	-0.750			
0.5106	32679.36	3.5120	3.5120	-1.4877	7.16	1.17	-0.750			
0.5151	32966.45	3.5090	3.5089	-1.4916	7.17	1.18	-0.750			
0.5196	33251.36	3.5060	3.5060	-1.4876	7.17	1.18	-0.750			
0.5240	33538.87	3.5030	3.5030	-1.5050	7.18	1.19	-0.750			
0.5286	33829.71	3.5000	3.4999	-1.5069	7.19	1.20	-0.750			
0.5331	34117.03	3.4970	3.4970	-1.5071	7.19	1.20	-0.750			
0.5377	34410.26	3.4940	3.4941	-1.5109	7.20	1.21	-0.750			
0.5422	34700.42	3.4910	3.4912	-1.5076	7.20	1.21	-0.750			
0.5467	34991.14	3.4880	3.4878	-1.5189	7.21	1.22	-0.750			
0.5513	35282.01	3.4850	3.4851	-1.5123	7.22	1.23	-0.750			
0.5558	35571.96	3.4820	3.4821	-1.5017	7.23	1.24	-0.750			
0.5604	35867.61	3.4790	3.4789	-1.5008	7.25	1.26	-0.750			
0.5649	36150.65	3.4760	3.4760	-1.4986	7.26	1.27	-0.750			
0.5693	36436.70	3.4730	3.4730	-1.4846	7.27	1.28	-0.750			
0.5738	36723.28	3.4700	3.4698	-1.4780	7.28	1.29	-0.750			
0.5782	37003.46	3.4670	3.4671	-1.4693	7.29	1.30	-0.750			
0.5826	37287.80	3.4640	3.4639	-1.4656	7.30	1.31	-0.750			
0.5870	37570.28	3.4610	3.4609	-1.4584	7.31	1.32	-0.750			
0.5914	37849.18	3.4580	3.4581	-1.4485	7.33	1.34	-0.750			
0.5957	38123.82	3.4550	3.4550	-1.4313	7.34	1.35	-0.750			
0.6001	38403.36	3.4520	3.4519	-1.4261	7.36	1.37	-0.750			
0.6043	38674.70	3.4490	3.4491	-1.4139	7.37	1.38	-0.750			
0.6085	38943.38	3.4460	3.4459	-1.3917	7.38	1.39	-0.750			
0.6127	39212.99	3.4430	3.4431	-1.3801	7.40	1.41	-0.750			
0.6168	39476.06	3.4400	3.4402	-1.3637	7.41	1.42	-0.750			
0.6209	39737.53	3.4370	3.4369	-1.3476	7.42	1.43	-0.750			
0.6249	39993.96	3.4340	3.4339	-1.3216	7.42	1.43	-0.750			
0.6288	40243.04	3.4310	3.4311	-1.3015	7.43	1.44	-0.750			
0.6327	40494.04	3.4280	3.4279	-1.2770	7.45	1.46	-0.750			
0.6365	40735.90	3.4250	3.4249	-1.2509	7.47	1.48	-0.750			
0.6402	40972.30	3.4220	3.4220	-1.2260	7.49	1.50	-0.750			
0.6438	41204.39	3.4190	3.4190	-1.2092	7.51	1.52	-0.750			
0.6475	41437.58	3.4160	3.4159	-1.1863	7.52	1.53	-0.750			
0.6510	41663.77	3.4130	3.4130	-1.1600	7.54	1.55	-0.750			
0.6544	41881.93	3.4100	3.4103	-1.1386	7.55	1.56	-0.750			
0.6578	42101.68	3.4070	3.4069	-1.1142	7.56	1.57	-0.750			
0.6611	42312.60	3.4040	3.4040	-1.0787	7.57	1.58	-0.750			
0.6643	42516.04	3.4010	3.4010	-1.0493	7.58	1.59	-0.750			
0.6674	42715.26	3.3980	3.3982	-1.0268	7.59	1.60	-0.750			
0.6705	42909.50	3.3950	3.3949	-1.0035	7.61	1.62	-0.750			
0.6734	43098.38	3.3920	3.3919	-0.9730	7.63	1.64	-0.750			
0.6763	43282.92	3.3890	3.3890	-0.9383	7.64	1.65	-0.750			
0.6791	43462.38	3.3860	3.3861	-0.9179	7.66	1.67	-0.750			
0.6818	43634.10	3.3830	3.3830	-0.8958	7.67	1.68	-0.750			
0.6844	43801.89	3.3800	3.3799	-0.8679	7.69	1.70	-0.750			
0.6870	43966.37	3.3770	3.3769	-0.8414	7.70	1.71	-0.750			
0.6894	44124.61	3.3740	3.3741	-0.8176	7.72	1.73	-0.750			
0.6919	44282.13	3.3710	3.3712	-0.8018	7.73	1.74	-0.750			
0.6943	44433.71	3.3680	3.3679	-0.7841	7.74	1.75	-0.750			
0.6966	44579.36	3.3650	3.3649	-0.7605	7.75	1.76	-0.750			
0.6988	44723.84	3.3620	3.3620	-0.7388	7.76	1.77	-0.750			
0.7010	44865.59	3.3590	3.3591	-0.7241	7.77	1.78	-0.750			
0.7032	45003.07	3.3560	3.3560	-0.7059	7.78	1.79	-0.750			
0.7053	45136.13	3.3530	3.3530	-0.6863	7.80	1.81	-0.750			
0.7073	45264.86	3.3500	3.3500	-0.6653	7.81	1.82	-0.750			
0.7092	45390.33	3.3470	3.3470	-0.6489	7.82	1.83	-0.750			
0.7112	45513.61	3.3440	3.3440	-0.6337	7.83	1.84	-0.750			
0.7130	45634.75	3.3410	3.3410	-0.6187	7.85	1.86	-0.750			
0.7149	45751.21	3.3380	3.3379	-0.6023	7.86	1.87	-0.750			
0.7166	45864.86	3.3350	3.3351	-0.5886	7.87	1.88	-0.750			
0.7184	45977.72	3.3320	3.3319	-0.5637	7.88	1.89	-0.750			
0.7201	46084.80	3.3290	3.3290	-0.5404	7.89	1.90	-0.750			
0.7217	46186.95	3.3260	3.3261	-0.5078	7.90	1.91	-0.750			
0.7231	46280.77	3.3230	3.3229	-0.4641	7.91	1.92	-0.750			
