Ah_balance (normalized)	Ah_balance (mAh)	Voltage - fit (V)	Voltage -  interpolate (V)	dQ/dV (1/V)	Temperature (°C)	Temperature - diff (°C)	Current (C)	R_DC 0ms (mOhm)	R_DC 50ms (mOhm)	R_DC 50 ms PEC (mOhm)
0.1806	11555.93	4.0800	4.0800	0.7613	7.67	1.68	0.750			
0.1828	11701.89	4.0770	4.0770	0.7640	7.66	1.67	0.750			
0.1851	11848.89	4.0740	4.0740	0.7700	7.66	1.67	0.750			
0.1875	11998.12	4.0710	4.0710	0.7713	7.65	1.66	0.750			
0.1898	12145.85	4.0680	4.0681	0.7767	7.64	1.65	0.750			
0.1921	12296.38	4.0650	4.0650	0.7789	7.64	1.65	0.750			
0.1945	12446.33	4.0620	4.0619	0.7792	7.63	1.64	0.750			
0.1968	12595.67	4.0590	4.0590	0.7773	7.63	1.64	0.750			
0.1991	12743.91	4.0560	4.0561	0.7789	7.62	1.63	0.750			
0.2014	12892.63	4.0530	4.0530	0.7855	7.62	1.63	0.750			
0.2038	13044.72	4.0500	4.0497	0.7908	7.61	1.62	0.750			
0.2062	13195.20	4.0470	4.0471	0.7951	7.60	1.61	0.750			
0.2086	13351.80	4.0440	4.0440	0.7932	7.60	1.61	0.750			
0.2110	13503.92	4.0410	4.0410	0.8065	7.59	1.60	0.750			
0.2134	13660.08	4.0380	4.0381	0.8088	7.59	1.60	0.750			
0.2158	13814.09	4.0350	4.0348	0.8071	7.58	1.59	0.750			
0.2183	13968.80	4.0320	4.0321	0.8111	7.58	1.59	0.750			
0.2207	14125.78	4.0290	4.0292	0.8144	7.57	1.58	0.750			
0.2232	14281.83	4.0260	4.0260	0.8203	7.56	1.57	0.750			
0.2256	14439.38	4.0230	4.0230	0.8233	7.56	1.57	0.750			
0.2281	14598.97	4.0200	4.0200	0.8281	7.55	1.56	0.750			
0.2306	14760.45	4.0170	4.0170	0.8378	7.55	1.56	0.750			
0.2332	14922.94	4.0140	4.0141	0.8335	7.54	1.55	0.750			
0.2357	15081.83	4.0110	4.0110	0.8369	7.53	1.54	0.750			
0.2382	15242.44	4.0080	4.0081	0.8369	7.53	1.54	0.750			
0.2407	15401.66	4.0050	4.0049	0.8395	7.52	1.53	0.750			
0.2432	15562.60	4.0020	4.0020	0.8435	7.52	1.53	0.750			
0.2457	15726.37	3.9990	3.9991	0.8476	7.51	1.52	0.750			
0.2483	15888.46	3.9960	3.9961	0.8513	7.50	1.51	0.750			
0.2508	16053.46	3.9930	3.9930	0.8545	7.50	1.51	0.750			
0.2534	16217.57	3.9900	3.9898	0.8578	7.49	1.50	0.750			
0.2560	16382.85	3.9870	3.9870	0.8617	7.48	1.49	0.750			
0.2586	16548.06	3.9840	3.9840	0.8641	7.48	1.49	0.750			
0.2612	16714.91	3.9810	3.9810	0.8721	7.47	1.48	0.750			
0.2638	16883.26	3.9780	3.9780	0.8779	7.46	1.47	0.750			
0.2664	17051.68	3.9750	3.9749	0.8775	7.45	1.46	0.750			
0.2691	17221.64	3.9720	3.9720	0.8789	7.44	1.45	0.750			
0.2717	17390.10	3.9690	3.9690	0.8829	7.43	1.44	0.750			
0.2744	17559.69	3.9660	3.9660	0.8877	7.42	1.43	0.750			
0.2770	17729.87	3.9630	3.9630	0.8916	7.42	1.43	0.750			
0.2797	17900.93	3.9600	3.9601	0.8945	7.41	1.42	0.750			
0.2824	18074.95	3.9570	3.9570	0.8943	7.40	1.41	0.750			
0.2851	18247.09	3.9540	3.9540	0.9112	7.39	1.40	0.750			
0.2879	18422.91	3.9510	3.9511	0.9152	7.38	1.39	0.750			
0.2906	18598.40	3.9480	3.9478	0.9185	7.37	1.38	0.750			
0.2934	18775.72	3.9450	3.9452	0.9265	7.36	1.37	0.750			
0.2962	18954.59	3.9420	3.9420	0.9312	7.35	1.36	0.750			
0.2990	19133.95	3.9390	3.9390	0.9373	7.35	1.36	0.750			
0.3018	19315.55	3.9360	3.9360	0.9447	7.34	1.35	0.750			
0.3046	19495.30	3.9330	3.9330	0.9469	7.33	1.34	0.750			
0.3075	19679.29	3.9300	3.9300	0.9508	7.32	1.33	0.750			
0.3103	19861.91	3.9270	3.9271	0.9562	7.30	1.31	0.750			
0.3132	20045.65	3.9240	3.9240	0.9604	7.29	1.30	0.750			
0.3161	20230.00	3.9210	3.9209	0.9719	7.28	1.29	0.750			
0.3190	20416.27	3.9180	3.9180	0.9767	7.27	1.28	0.750			
0.3219	20603.47	3.9150	3.9150	0.9970	7.26	1.27	0.750			
0.3250	20797.06	3.9120	3.9120	1.0135	7.25	1.26	0.750			
0.3280	20994.61	3.9090	3.9088	1.0241	7.24	1.25	0.750			
0.3312	21193.88	3.9060	3.9061	1.0336	7.23	1.24	0.750			
0.3343	21394.98	3.9030	3.9030	1.0424	7.22	1.23	0.750			
0.3374	21595.17	3.9000	3.9001	1.0461	7.21	1.22	0.750			
0.3406	21797.37	3.8970	3.8968	1.0498	7.19	1.20	0.750			
0.3437	21996.81	3.8940	3.8940	1.0476	7.18	1.19	0.750			
0.3468	22197.38	3.8910	3.8910	1.0588	7.17	1.18	0.750			
0.3500	22399.27	3.8880	3.8881	1.0766	7.16	1.17	0.750			
0.3532	22607.06	3.8850	3.8848	1.0911	7.15	1.16	0.750			
0.3565	22818.23	3.8820	3.8820	1.0962	7.14	1.15	0.750			
0.3598	23029.04	3.8790	3.8791	1.1135	7.13	1.14	0.750			
0.3632	23244.29	3.8760	3.8762	1.1350	7.12	1.13	0.750			
0.3666	23464.77	3.8730	3.8727	1.1484	7.11	1.12	0.750			
0.3701	23684.15	3.8700	3.8701	1.1624	7.09	1.10	0.750			
0.3736	23910.02	3.8670	3.8671	1.1820	7.08	1.09	0.750			
0.3772	24143.16	3.8640	3.8640	1.2013	7.06	1.07	0.750			
0.3808	24373.77	3.8610	3.8610	1.2115	7.04	1.05	0.750			
0.3845	24605.84	3.8580	3.8580	1.2296	7.03	1.04	0.750			
0.3882	24844.21	3.8550	3.8551	1.2483	7.02	1.03	0.750			
0.3920	25085.66	3.8520	3.8518	1.2576	7.01	1.02	0.750			
0.3957	25326.53	3.8490	3.8491	1.3005	6.99	1.00	0.750			
0.3996	25576.66	3.8460	3.8461	1.3336	6.97	0.98	0.750			
0.4037	25837.24	3.8430	3.8427	1.3627	6.95	0.96	0.750	0.391	0.916	
0.4079	26103.05	3.8400	3.8402	1.3920	6.94	0.95	0.750			
0.4121	26376.01	3.8370	3.8371	1.4170	6.92	0.93	0.750			
0.4165	26655.55	3.8340	3.8339	1.4411	6.91	0.92	0.750			
0.4208	26930.12	3.8310	3.8310	1.4450	6.89	0.90	0.750			
0.4251	27208.59	3.8280	3.8280	1.4624	6.87	0.88	0.750			
0.4296	27493.91	3.8250	3.8250	1.4798	6.85	0.86	0.750			
0.4340	27776.04	3.8220	3.8220	1.5109	6.83	0.84	0.750			
0.4386	28069.40	3.8190	3.8192	1.5381	6.82	0.83	0.750			
0.4433	28369.75	3.8160	3.8159	1.5617	6.80	0.81	0.750			
0.4480	28672.99	3.8130	3.8132	1.6046	6.78	0.79	0.750			
0.4529	28985.56	3.8100	3.8099	1.6145	6.75	0.76	0.750			
0.4578	29298.53	3.8070	3.8068	1.6280	6.73	0.74	0.750			
0.4627	29611.23	3.8040	3.8041	1.6284	6.71	0.72	0.750			
0.4676	29925.29	3.8010	3.8005	1.6720	6.69	0.70	0.750			
0.4726	30245.12	3.7980	3.7981	1.7183	6.67	0.68	0.750			
0.4777	30573.73	3.7950	3.7949	1.7634	6.64	0.65	0.750			
0.4833	30931.34	3.7920	3.7920	1.8062	6.62	0.63	0.750			
0.4887	31276.94	3.7890	3.7892	1.8302	6.60	0.61	0.750			
0.4943	31636.22	3.7860	3.7861	1.8566	6.57	0.58	0.750			
0.4998	31988.86	3.7830	3.7830	1.8691	6.54	0.55	0.750			
0.5054	32342.88	3.7800	3.7801	1.8944	6.51	0.52	0.750			
0.5112	32717.40	3.7770	3.7770	1.8932	6.49	0.50	0.750			
0.5170	33086.70	3.7740	3.7739	1.8942	6.47	0.48	0.750			
0.5226	33448.96	3.7710	3.7713	1.9577	6.44	0.45	0.750			
0.5286	33828.76	3.7680	3.7681	1.9614	6.41	0.42	0.750			
0.5346	34211.82	3.7650	3.7651	1.9937	6.39	0.40	0.750			
0.5408	34609.10	3.7620	3.7617	2.0393	6.37	0.38	0.750			
0.5467	34988.23	3.7590	3.7590	1.9877	6.34	0.35	0.750			
0.5526	35364.69	3.7560	3.7561	2.0010	6.32	0.33	0.750			
0.5587	35756.78	3.7530	3.7531	2.1088	6.29	0.30	0.750			
0.5651	36168.50	3.7500	3.7500	2.1644	6.27	0.28	0.750			
0.5719	36599.54	3.7470	3.7469	2.2264	6.24	0.25	0.750			
0.5787	37038.55	3.7440	3.7438	2.2588	6.21	0.22	0.750			
0.5854	37465.99	3.7410	3.7407	2.3034	6.19	0.20	0.750			
0.5923	37907.07	3.7380	3.7378	2.3188	6.17	0.18	0.750			
0.5997	38378.56	3.7350	3.7351	2.4392	6.14	0.15	0.750			
0.6070	38850.26	3.7320	3.7317	2.4959	6.11	0.12	0.750			
0.6145	39327.34	3.7290	3.7292	2.4450	6.08	0.09	0.750			
0.6220	39807.95	3.7260	3.7261	2.4034	6.06	0.07	0.750			
0.6288	40240.96	3.7230	3.7230	2.3263	6.05	0.06	0.750			
0.6359	40699.44	3.7200	3.7203	2.2489	6.04	0.05	0.750			
0.6427	41130.51	3.7170	3.7170	2.1051	6.03	0.04	0.750			
0.6487	41515.03	3.7140	3.7138	1.9238	6.01	0.02	0.750			
0.6542	41866.51	3.7110	3.7109	1.7440	5.99	0.00	0.750			
0.6590	42174.71	3.7080	3.7076	1.5516	5.99	0.00	0.750			
0.6633	42453.88	3.7050	3.7056	1.3924	5.99	0.00	0.750			
0.6672	42703.62	3.7020	3.7021	1.2525	5.99	-0.00	0.750			
0.6709	42934.42	3.6990	3.6988	1.1550	5.98	-0.01	0.750			
0.6738	43123.28	3.6960	3.6962	1.0255	5.98	-0.01	0.750			
0.6769	43320.16	3.6930	3.6930	0.9861	5.97	-0.02	0.750			
0.6797	43498.45	3.6900	3.6902	0.9390	5.97	-0.02	0.750			
0.6824	43675.22	3.6870	3.6870	0.8967	5.97	-0.02	0.750			
0.6851	43843.56	3.6840	3.6840	0.8648	5.97	-0.02	0.750			
0.6876	44005.65	3.6810	3.6809	0.8337	5.97	-0.02	0.750			
0.6901	44163.36	3.6780	3.6783	0.8013	5.97	-0.02	0.750			
0.6924	44314.75	3.6750	3.6751	0.7680	5.97	-0.02	0.750			
0.6947	44459.17	3.6720	3.6720	0.7342	5.98	-0.01	0.750			
0.6968	44597.44	3.6690	3.6690	0.6894	5.98	-0.01	0.750			
0.6989	44727.48	3.6660	3.6659	0.6553	5.98	-0.01	0.750			
0.7007	44846.66	3.6630	3.6631	0.6199	5.99	-0.00	0.750			
0.7025	44960.06	3.6600	3.6601	0.5869	5.99	-0.00	0.750			
0.7042	45069.87	3.6570	3.6567	0.5553	5.99	0.00	0.750			
0.7058	45173.97	3.6540	3.6540	0.5218	5.99	0.00	0.750			
0.7074	45272.42	3.6510	3.6511	0.4859	5.99	0.00	0.750			
0.7088	45364.42	3.6480	3.6478	0.4488	5.99	0.00	0.750			
0.7101	45445.76	3.6450	3.6451	0.4073	5.99	0.00	0.750			
0.7112	45519.22	3.6420	3.6419	0.3696	5.99	0.00	0.750			
0.7123	45584.99	3.6390	3.6390	0.3336	5.99	0.00	0.750			
0.7132	45646.02	3.6360	3.6359	0.3023	5.99	0.00	0.750			
0.7141	45700.61	3.6330	3.6331	0.2713	5.99	0.00	0.750			
0.7149	45751.40	3.6300	3.6298	0.2341	5.99	0.00	0.750			
0.7155	45794.28	3.6270	3.6269	0.2007	5.99	0.00	0.750			
0.7161	45829.49	3.6240	3.6245	0.1622	5.99	0.00	0.750			
0.7165	45857.38	3.6210	3.6214	0.1227	5.99	0.00	0.750			
0.7168	45878.30	3.6180	3.6186	0.0812	5.99	0.00	0.750			
0.7170	45890.78	3.6150	3.6151	0.0354	5.99	0.00	0.750			
0.7171	45893.18	3.6120	3.6140	-0.0104	5.99	0.00	0.750			
