Ah_balance (normalized)	Ah_balance (mAh)	Voltage - fit (V)	Voltage -  interpolate (V)	dQ/dV (1/V)	Temperature (°C)	Temperature - diff (°C)	Current (C)	R_DC 0ms (mOhm)	R_DC 50ms (mOhm)	R_DC 50 ms PEC (mOhm)
0.0953	6101.16	4.0070	4.0067	-0.0597	5.99	0.01	-0.750			
0.0956	6117.77	4.0040	4.0036	-0.0977	5.99	0.01	-0.750			
0.0959	6140.34	4.0010	4.0007	-0.1269	5.99	0.01	-0.750			
0.0964	6168.05	3.9980	3.9980	-0.1530	5.99	0.01	-0.750			
0.0969	6199.89	3.9950	3.9950	-0.1787	5.99	0.01	-0.750			
0.0974	6236.70	3.9920	3.9921	-0.2034	5.99	0.01	-0.750			
0.0981	6279.86	3.9890	3.9890	-0.2269	5.99	0.01	-0.750			
0.0988	6325.31	3.9860	3.9861	-0.2482	5.99	0.01	-0.750			
0.0996	6374.17	3.9830	3.9830	-0.2726	5.99	0.01	-0.750			
0.1004	6428.42	3.9800	3.9801	-0.2967	5.98	0.00	-0.750			
0.1014	6487.85	3.9770	3.9769	-0.3198	5.98	0.00	-0.750			
0.1024	6551.96	3.9740	3.9738	-0.3426	5.98	0.00	-0.750			
0.1034	6620.14	3.9710	3.9714	-0.3653	5.98	0.00	-0.750			
0.1046	6692.75	3.9680	3.9681	-0.3878	5.98	-0.00	-0.750			
0.1058	6769.33	3.9650	3.9650	-0.4108	5.98	-0.00	-0.750			
0.1070	6850.21	3.9620	3.9620	-0.4316	5.97	-0.01	-0.750			
0.1084	6934.87	3.9590	3.9590	-0.4533	5.97	-0.01	-0.750			
0.1097	7023.90	3.9560	3.9560	-0.4773	5.97	-0.01	-0.750			
0.1112	7118.43	3.9530	3.9530	-0.5004	5.97	-0.01	-0.750			
0.1128	7216.95	3.9500	3.9500	-0.5207	5.97	-0.01	-0.750			
0.1144	7318.91	3.9470	3.9469	-0.5426	5.96	-0.02	-0.750			
0.1160	7426.14	3.9440	3.9440	-0.5591	5.96	-0.02	-0.750			
0.1178	7536.07	3.9410	3.9410	-0.5768	5.96	-0.02	-0.750			
0.1195	7647.59	3.9380	3.9379	-0.5920	5.96	-0.02	-0.750			
0.1213	7763.20	3.9350	3.9351	-0.6100	5.96	-0.02	-0.750			
0.1231	7881.18	3.9320	3.9319	-0.6220	5.95	-0.03	-0.750			
0.1250	8002.87	3.9290	3.9290	-0.6302	5.95	-0.03	-0.750			
0.1270	8125.98	3.9260	3.9260	-0.6381	5.95	-0.03	-0.750			
0.1289	8249.62	3.9230	3.9232	-0.6487	5.95	-0.03	-0.750			
0.1309	8374.73	3.9200	3.9200	-0.6537	5.95	-0.03	-0.750			
0.1328	8500.37	3.9170	3.9169	-0.6575	5.95	-0.03	-0.750			
0.1348	8626.51	3.9140	3.9140	-0.6665	5.96	-0.02	-0.750			
0.1368	8755.30	3.9110	3.9111	-0.6805	5.96	-0.02	-0.750			
0.1389	8887.65	3.9080	3.9079	-0.6896	5.96	-0.02	-0.750			
0.1410	9021.13	3.9050	3.9053	-0.6984	5.96	-0.02	-0.750			
0.1431	9156.05	3.9020	3.9019	-0.7044	5.96	-0.02	-0.750			
0.1452	9293.56	3.8990	3.8991	-0.7108	5.96	-0.02	-0.750			
0.1474	9430.64	3.8960	3.8960	-0.7141	5.97	-0.01	-0.750			
0.1495	9568.70	3.8930	3.8931	-0.7147	5.97	-0.01	-0.750			
0.1516	9704.01	3.8900	3.8900	-0.7143	5.97	-0.01	-0.750			
0.1538	9841.23	3.8870	3.8871	-0.7178	5.97	-0.01	-0.750			
0.1559	9978.97	3.8840	3.8839	-0.7181	5.98	-0.00	-0.750			
0.1581	10115.80	3.8810	3.8810	-0.7261	5.98	0.00	-0.750			
0.1603	10256.22	3.8780	3.8780	-0.7309	5.99	0.01	-0.750			
0.1625	10398.07	3.8750	3.8750	-0.7342	5.99	0.01	-0.750			
0.1647	10539.99	3.8720	3.8719	-0.7395	6.00	0.02	-0.750			
0.1669	10681.31	3.8690	3.8690	-0.7389	6.00	0.02	-0.750			
0.1691	10824.49	3.8660	3.8660	-0.7404	6.01	0.03	-0.750			
0.1714	10966.76	3.8630	3.8629	-0.7476	6.01	0.03	-0.750			
0.1736	11109.92	3.8600	3.8600	-0.7445	6.02	0.04	-0.750			
0.1759	11254.85	3.8570	3.8569	-0.7494	6.02	0.04	-0.750			
0.1781	11399.22	3.8540	3.8542	-0.7523	6.03	0.05	-0.750			
0.1804	11543.11	3.8510	3.8509	-0.7503	6.04	0.06	-0.750			
0.1826	11686.51	3.8480	3.8480	-0.7521	6.04	0.06	-0.750			
0.1849	11831.62	3.8450	3.8450	-0.7490	6.05	0.07	-0.750			
0.1871	11976.25	3.8420	3.8420	-0.7533	6.06	0.08	-0.750			
0.1894	12120.35	3.8390	3.8390	-0.7494	6.07	0.09	-0.750			
0.1916	12262.49	3.8360	3.8361	-0.7522	6.07	0.09	-0.750			
0.1939	12406.69	3.8330	3.8329	-0.7533	6.07	0.09	-0.750			
0.1961	12551.97	3.8300	3.8299	-0.7542	6.07	0.09	-0.750			
0.1984	12696.56	3.8270	3.8271	-0.7552	6.08	0.10	-0.750			
0.2006	12838.71	3.8240	3.8241	-0.7867	6.08	0.10	-0.750			
0.2030	12991.47	3.8210	3.8209	-0.8077	6.08	0.10	-0.750			
0.2055	13150.78	3.8180	3.8176	-0.8082	6.09	0.11	-0.750			
0.2080	13309.10	3.8150	3.8151	-0.8104	6.10	0.12	-0.750			
0.2105	13470.93	3.8120	3.8123	-0.8127	6.11	0.13	-0.750			
0.2129	13627.73	3.8090	3.8089	-0.7999	6.12	0.14	-0.750			
0.2153	13779.43	3.8060	3.8059	-0.7810	6.13	0.15	-0.750			
0.2175	13922.07	3.8030	3.8031	-0.7625	6.14	0.16	-0.750			
0.2198	14067.09	3.8000	3.8000	-0.7632	6.14	0.16	-0.750			
0.2221	14214.80	3.7970	3.7969	-0.7639	6.15	0.17	-0.750			
0.2244	14359.84	3.7940	3.7940	-0.7590	6.16	0.18	-0.750			
0.2267	14506.01	3.7910	3.7909	-0.7643	6.16	0.18	-0.750			
0.2290	14652.80	3.7880	3.7881	-0.7640	6.17	0.19	-0.750			
0.2313	14800.32	3.7850	3.7850	-0.7612	6.18	0.20	-0.750			
0.2335	14945.02	3.7820	3.7820	-0.7656	6.19	0.21	-0.750			
0.2358	15093.09	3.7790	3.7789	-0.7680	6.19	0.21	-0.750			
0.2381	15240.89	3.7760	3.7760	-0.7685	6.20	0.22	-0.750			
0.2404	15388.00	3.7730	3.7729	-0.7725	6.21	0.23	-0.750			
0.2428	15536.55	3.7700	3.7700	-0.7725	6.22	0.24	-0.750			
0.2451	15685.74	3.7670	3.7670	-0.7783	6.22	0.24	-0.750			
0.2474	15835.99	3.7640	3.7639	-0.7777	6.23	0.25	-0.750			
0.2497	15983.52	3.7610	3.7611	-0.7774	6.24	0.26	-0.750			
0.2521	16134.94	3.7580	3.7579	-0.7801	6.25	0.27	-0.750			
0.2544	16284.54	3.7550	3.7550	-0.7790	6.25	0.27	-0.750			
0.2568	16432.47	3.7520	3.7520	-0.7791	6.26	0.28	-0.750			
0.2591	16582.78	3.7490	3.7491	-0.7830	6.27	0.29	-0.750			
0.2614	16732.72	3.7460	3.7459	-0.7871	6.28	0.30	-0.750			
0.2638	16884.91	3.7430	3.7430	-0.7950	6.28	0.30	-0.750			
0.2662	17038.18	3.7400	3.7400	-0.7942	6.29	0.31	-0.750			
0.2686	17191.13	3.7370	3.7370	-0.8016	6.30	0.32	-0.750			
0.2710	17346.46	3.7340	3.7340	-0.8069	6.31	0.33	-0.750			
0.2735	17501.04	3.7310	3.7310	-0.8122	6.31	0.33	-0.750			
0.2759	17658.09	3.7280	3.7279	-0.8165	6.32	0.34	-0.750			
0.2784	17814.94	3.7250	3.7252	-0.8173	6.33	0.35	-0.750			
0.2808	17972.48	3.7220	3.7220	-0.8225	6.34	0.36	-0.750			
0.2833	18130.68	3.7190	3.7191	-0.8338	6.35	0.37	-0.750			
0.2858	18289.48	3.7160	3.7159	-0.8358	6.35	0.37	-0.750			
0.2883	18452.52	3.7130	3.7130	-0.8487	6.36	0.38	-0.750			
0.2909	18614.99	3.7100	3.7102	-0.8547	6.37	0.39	-0.750			
0.2935	18781.13	3.7070	3.7070	-0.8687	6.37	0.39	-0.750			
0.2961	18949.96	3.7040	3.7039	-0.8731	6.38	0.40	-0.750			
0.2987	19116.08	3.7010	3.7010	-0.8775	6.38	0.40	-0.750			
0.3013	19285.66	3.6980	3.6980	-0.8857	6.39	0.41	-0.750			
0.3040	19457.71	3.6950	3.6951	-0.8905	6.39	0.41	-0.750			
0.3067	19628.35	3.6920	3.6920	-0.9024	6.40	0.42	-0.750			
0.3094	19802.50	3.6890	3.6890	-0.9067	6.40	0.42	-0.750			
0.3121	19976.78	3.6860	3.6860	-0.9152	6.41	0.43	-0.750			
0.3149	20154.27	3.6830	3.6830	-0.9257	6.42	0.44	-0.750			
0.3177	20330.96	3.6800	3.6800	-0.9369	6.42	0.44	-0.750			
0.3205	20512.64	3.6770	3.6769	-0.9449	6.43	0.45	-0.750			
0.3234	20695.45	3.6740	3.6740	-0.9503	6.44	0.46	-0.750			
0.3262	20877.20	3.6710	3.6711	-0.9543	6.44	0.46	-0.750			
0.3291	21063.87	3.6680	3.6680	-0.9692	6.45	0.47	-0.750			
0.3320	21249.78	3.6650	3.6650	-0.9762	6.46	0.48	-0.750			
0.3350	21436.96	3.6620	3.6620	-0.9857	6.46	0.48	-0.750			
0.3379	21626.38	3.6590	3.6590	-0.9980	6.47	0.49	-0.750			
0.3410	21821.06	3.6560	3.6561	-1.0144	6.47	0.49	-0.750			
0.3440	22017.03	3.6530	3.6530	-1.0244	6.47	0.49	-0.750			
0.3471	22215.98	3.6500	3.6499	-1.0323	6.48	0.50	-0.750			
0.3502	22414.17	3.6470	3.6470	-1.0420	6.48	0.50	-0.750			
0.3534	22616.05	3.6440	3.6441	-1.0519	6.49	0.51	-0.750			
0.3565	22817.95	3.6410	3.6410	-1.0570	6.49	0.51	-0.750			
0.3597	23022.48	3.6380	3.6379	-1.0631	6.50	0.52	-0.750			
0.3629	23227.15	3.6350	3.6350	-1.0705	6.51	0.53	-0.750			
0.3661	23431.47	3.6320	3.6321	-1.0829	6.51	0.53	-0.750			
0.3694	23639.58	3.6290	3.6290	-1.0985	6.52	0.54	-0.750			
0.3727	23852.71	3.6260	3.6259	-1.1129	6.52	0.54	-0.750			
0.3760	24066.47	3.6230	3.6229	-1.1281	6.53	0.55	-0.750			
0.3795	24286.15	3.6200	3.6201	-1.1521	6.53	0.55	-0.750			
0.3830	24509.37	3.6170	3.6170	-1.1667	6.53	0.55	-0.750			
0.3865	24737.03	3.6140	3.6139	-1.1770	6.53	0.55	-0.750			
0.3900	24962.78	3.6110	3.6109	-1.1795	6.53	0.55	-0.750			
0.3936	25191.64	3.6080	3.6080	-1.1959	6.53	0.55	-0.750			
0.3972	25422.70	3.6050	3.6050	-1.2068	6.54	0.56	-0.750			
0.4008	25654.35	3.6020	3.6019	-1.2221	6.55	0.57	-0.750			
0.4045	25889.03	3.5990	3.5991	-1.2321	6.55	0.57	-0.750			
0.4083	26130.52	3.5960	3.5959	-1.2494	6.56	0.58	-0.750			
0.4121	26372.41	3.5930	3.5933	-1.2546	6.56	0.58	-0.750	0.468	1.069	
0.4158	26613.06	3.5900	3.5901	-1.2654	6.57	0.59	-0.750			
0.4197	26858.22	3.5870	3.5870	-1.2790	6.57	0.59	-0.750			
0.4235	27104.74	3.5840	3.5838	-1.2825	6.58	0.60	-0.750			
0.4274	27350.58	3.5810	3.5812	-1.3045	6.58	0.60	-0.750			
0.4313	27602.10	3.5780	3.5779	-1.3156	6.58	0.60	-0.750			
0.4353	27856.84	3.5750	3.5749	-1.3329	6.59	0.61	-0.750			
0.4393	28113.97	3.5720	3.5720	-1.3500	6.59	0.61	-0.750			
0.4433	28371.49	3.5690	3.5690	-1.3591	6.59	0.61	-0.750			
0.4475	28637.99	3.5660	3.5660	-1.3798	6.60	0.62	-0.750			
0.4516	28904.41	3.5630	3.5630	-1.3985	6.61	0.63	-0.750			
0.4558	29170.65	3.5600	3.5600	-1.4079	6.61	0.63	-0.750			
0.4601	29445.94	3.5570	3.5570	-1.4323	6.61	0.63	-0.750			
0.4644	29722.65	3.5540	3.5540	-1.4466	6.61	0.63	-0.750			
0.4688	30001.07	3.5510	3.5510	-1.4682	6.61	0.63	-0.750			
0.4732	30287.58	3.5480	3.5480	-1.4810	6.62	0.64	-0.750			
0.4777	30574.76	3.5450	3.5449	-1.4932	6.63	0.65	-0.750			
0.4822	30862.45	3.5420	3.5420	-1.5033	6.63	0.65	-0.750			
0.4867	31150.71	3.5390	3.5390	-1.5257	6.64	0.66	-0.750			
0.4913	31443.80	3.5360	3.5361	-1.5336	6.64	0.66	-0.750			
0.4959	31739.27	3.5330	3.5330	-1.5392	6.65	0.67	-0.750			
0.5006	32037.23	3.5300	3.5300	-1.5517	6.66	0.68	-0.750			
0.5053	32336.84	3.5270	3.5269	-1.5740	6.67	0.69	-0.750			
0.5100	32640.21	3.5240	3.5241	-1.5894	6.68	0.70	-0.750			
0.5148	32946.77	3.5210	3.5208	-1.5916	6.69	0.71	-0.750			
0.5196	33255.14	3.5180	3.5180	-1.5997	6.70	0.72	-0.750			
0.5244	33564.79	3.5150	3.5148	-1.5934	6.70	0.72	-0.750			
0.5292	33868.09	3.5120	3.5120	-1.6027	6.71	0.73	-0.750			
0.5339	34171.95	3.5090	3.5088	-1.5913	6.72	0.74	-0.750			
0.5387	34479.35	3.5060	3.5060	-1.5917	6.73	0.75	-0.750			
0.5435	34786.95	3.5030	3.5028	-1.5885	6.73	0.75	-0.750			
0.5484	35099.49	3.5000	3.4999	-1.5921	6.74	0.76	-0.750			
0.5532	35403.90	3.4970	3.4971	-1.5827	6.75	0.77	-0.750			
0.5579	35704.59	3.4940	3.4940	-1.5673	6.76	0.78	-0.750			
0.5625	36001.75	3.4910	3.4909	-1.5602	6.77	0.79	-0.750			
0.5672	36303.47	3.4880	3.4881	-1.5759	6.78	0.80	-0.750			
0.5719	36602.57	3.4850	3.4850	-1.5775	6.79	0.81	-0.750			
0.5767	36907.10	3.4820	3.4821	-1.5804	6.81	0.83	-0.750			
0.5815	37216.24	3.4790	3.4789	-1.5801	6.82	0.84	-0.750			
0.5863	37522.57	3.4760	3.4759	-1.5647	6.84	0.86	-0.750			
0.5910	37823.87	3.4730	3.4732	-1.5544	6.85	0.87	-0.750			
0.5956	38117.94	3.4700	3.4699	-1.5292	6.86	0.88	-0.750			
0.6001	38408.61	3.4670	3.4671	-1.5126	6.87	0.89	-0.750			
0.6047	38698.69	3.4640	3.4641	-1.4973	6.88	0.90	-0.750			
0.6091	38984.58	3.4610	3.4609	-1.4887	6.90	0.92	-0.750			
0.6135	39266.72	3.4580	3.4580	-1.4767	6.91	0.93	-0.750			
0.6180	39549.31	3.4550	3.4549	-1.4524	6.93	0.95	-0.750			
0.6223	39830.32	3.4520	3.4520	-1.4446	6.94	0.96	-0.750			
0.6267	40106.60	3.4490	3.4490	-1.4278	6.95	0.97	-0.750			
0.6309	40378.89	3.4460	3.4460	-1.4036	6.97	0.99	-0.750			
0.6351	40648.51	3.4430	3.4429	-1.3907	6.99	1.01	-0.750			
0.6392	40909.22	3.4400	3.4400	-1.3778	7.00	1.02	-0.750			
0.6434	41174.93	3.4370	3.4368	-1.3523	7.02	1.04	-0.750			
0.6474	41436.17	3.4340	3.4339	-1.3270	7.03	1.05	-0.750			
0.6514	41687.05	3.4310	3.4310	-1.3030	7.04	1.06	-0.750			
0.6552	41935.25	3.4280	3.4280	-1.2714	7.05	1.07	-0.750			
0.6590	42178.84	3.4250	3.4249	-1.2473	7.06	1.08	-0.750			
0.6627	42410.45	3.4220	3.4220	-1.2113	7.08	1.10	-0.750			
0.6662	42636.38	3.4190	3.4193	-1.1913	7.09	1.11	-0.750			
0.6698	42868.57	3.4160	3.4159	-1.1749	7.11	1.13	-0.750			
0.6733	43093.15	3.4130	3.4130	-1.1499	7.13	1.15	-0.750			
0.6767	43310.99	3.4100	3.4100	-1.1178	7.14	1.16	-0.750			
0.6801	43525.89	3.4070	3.4069	-1.0958	7.16	1.18	-0.750			
0.6833	43733.03	3.4040	3.4040	-1.0588	7.17	1.19	-0.750			
0.6864	43930.69	3.4010	3.4010	-1.0262	7.19	1.21	-0.750			
0.6894	44122.18	3.3980	3.3980	-0.9936	7.20	1.22	-0.750			
0.6924	44312.40	3.3950	3.3949	-0.9745	7.22	1.24	-0.750			
0.6953	44496.18	3.3920	3.3920	-0.9525	7.23	1.25	-0.750			
0.6981	44678.47	3.3890	3.3890	-0.9247	7.24	1.26	-0.750			
0.7008	44854.21	3.3860	3.3859	-0.9005	7.26	1.28	-0.750			
0.7035	45025.71	3.3830	3.3832	-0.8755	7.27	1.29	-0.750			
0.7061	45189.48	3.3800	3.3800	-0.8461	7.28	1.30	-0.750			
0.7086	45349.10	3.3770	3.3769	-0.8253	7.29	1.31	-0.750			
0.7110	45503.19	3.3740	3.3740	-0.8008	7.31	1.33	-0.750			
0.7134	45656.55	3.3710	3.3709	-0.7859	7.32	1.34	-0.750			
0.7157	45806.13	3.3680	3.3681	-0.7607	7.33	1.35	-0.750			
0.7180	45949.55	3.3650	3.3650	-0.7399	7.34	1.36	-0.750			
0.7202	46089.69	3.3620	3.3621	-0.7199	7.35	1.37	-0.750			
0.7223	46224.81	3.3590	3.3590	-0.7006	7.36	1.38	-0.750			
0.7243	46357.45	3.3560	3.3560	-0.6807	7.37	1.39	-0.750			
0.7264	46487.21	3.3530	3.3530	-0.6634	7.38	1.40	-0.750			
0.7283	46612.73	3.3500	3.3501	-0.6459	7.39	1.41	-0.750			
0.7302	46734.15	3.3470	3.3470	-0.5981	7.40	1.42	-0.750			
