Ah_balance (normalized)	Ah_balance (mAh)	Voltage - fit (V)	Voltage -  interpolate (V)	dQ/dV (1/V)	Temperature (°C)	Temperature - diff (°C)	Current (C)	R_DC 0ms (mOhm)	R_DC 50ms (mOhm)	R_DC 50 ms PEC (mOhm)
0.1840	11777.17	4.0810	4.0811	0.7755	7.41	1.44	0.750			
0.1864	11926.99	4.0780	4.0780	0.7810	7.41	1.44	0.750			
0.1887	12076.96	4.0750	4.0750	0.7770	7.40	1.43	0.750			
0.1910	12225.01	4.0720	4.0720	0.7752	7.40	1.43	0.750			
0.1933	12373.11	4.0690	4.0691	0.7789	7.39	1.42	0.750			
0.1957	12522.26	4.0660	4.0658	0.7784	7.39	1.42	0.750			
0.1980	12671.67	4.0630	4.0630	0.7840	7.39	1.42	0.750			
0.2004	12823.07	4.0600	4.0600	0.7844	7.38	1.41	0.750			
0.2027	12974.67	4.0570	4.0570	0.7939	7.38	1.41	0.750			
0.2051	13128.36	4.0540	4.0541	0.7972	7.38	1.41	0.750			
0.2075	13280.56	4.0510	4.0509	0.7962	7.37	1.40	0.750			
0.2099	13433.79	4.0480	4.0481	0.8001	7.37	1.40	0.750			
0.2123	13589.01	4.0450	4.0450	0.8013	7.36	1.39	0.750			
0.2147	13741.59	4.0420	4.0420	0.8035	7.36	1.39	0.750			
0.2171	13896.98	4.0390	4.0391	0.8083	7.36	1.39	0.750			
0.2195	14050.41	4.0360	4.0360	0.8104	7.35	1.38	0.750			
0.2220	14207.59	4.0330	4.0330	0.8146	7.35	1.38	0.750			
0.2245	14366.47	4.0300	4.0300	0.8130	7.34	1.37	0.750			
0.2269	14521.73	4.0270	4.0271	0.8151	7.33	1.36	0.750			
0.2293	14678.02	4.0240	4.0240	0.8214	7.32	1.35	0.750			
0.2318	14834.72	4.0210	4.0211	0.8234	7.31	1.34	0.750			
0.2342	14991.88	4.0180	4.0181	0.8289	7.31	1.34	0.750			
0.2368	15153.03	4.0150	4.0149	0.8273	7.30	1.33	0.750			
0.2393	15313.86	4.0120	4.0121	0.8329	7.30	1.33	0.750			
0.2418	15473.25	4.0090	4.0091	0.8357	7.29	1.32	0.750			
0.2443	15633.63	4.0060	4.0061	0.8370	7.28	1.31	0.750			
0.2468	15793.81	4.0030	4.0030	0.8399	7.28	1.31	0.750			
0.2493	15954.74	4.0000	4.0000	0.8415	7.27	1.30	0.750			
0.2518	16116.82	3.9970	3.9971	0.8494	7.27	1.30	0.750			
0.2544	16282.25	3.9940	3.9941	0.8544	7.26	1.29	0.750			
0.2570	16446.53	3.9910	3.9909	0.8561	7.25	1.28	0.750			
0.2596	16611.25	3.9880	3.9881	0.8589	7.25	1.28	0.750			
0.2621	16776.18	3.9850	3.9851	0.8604	7.24	1.27	0.750			
0.2647	16940.54	3.9820	3.9820	0.8652	7.23	1.26	0.750			
0.2673	17108.03	3.9790	3.9790	0.8714	7.22	1.25	0.750			
0.2699	17275.47	3.9760	3.9760	0.8732	7.21	1.24	0.750			
0.2725	17442.77	3.9730	3.9730	0.8791	7.21	1.24	0.750			
0.2752	17613.31	3.9700	3.9701	0.8828	7.20	1.23	0.750			
0.2779	17783.28	3.9670	3.9670	0.8886	7.20	1.23	0.750			
0.2805	17955.03	3.9640	3.9640	0.8901	7.19	1.22	0.750			
0.2832	18125.85	3.9610	3.9608	0.8896	7.19	1.22	0.750			
0.2859	18296.26	3.9580	3.9581	0.8937	7.18	1.21	0.750			
0.2886	18467.73	3.9550	3.9550	0.8981	7.17	1.20	0.750			
0.2912	18639.67	3.9520	3.9520	0.9030	7.16	1.19	0.750			
0.2940	18813.87	3.9490	3.9490	0.9132	7.16	1.19	0.750			
0.2967	18988.70	3.9460	3.9461	0.9198	7.15	1.18	0.750			
0.2995	19168.47	3.9430	3.9430	0.9197	7.14	1.17	0.750			
0.3023	19344.07	3.9400	3.9401	0.9318	7.13	1.16	0.750			
0.3050	19523.13	3.9370	3.9371	0.9387	7.13	1.16	0.750			
0.3079	19703.88	3.9340	3.9337	0.9477	7.12	1.15	0.750			
0.3107	19886.82	3.9310	3.9311	0.9512	7.11	1.14	0.750			
0.3136	20070.38	3.9280	3.9281	0.9588	7.10	1.13	0.750			
0.3165	20257.15	3.9250	3.9251	0.9727	7.09	1.12	0.750			
0.3194	20444.30	3.9220	3.9220	0.9686	7.08	1.11	0.750			
0.3223	20629.47	3.9190	3.9190	0.9758	7.08	1.11	0.750			
0.3253	20817.95	3.9160	3.9160	0.9872	7.07	1.10	0.750			
0.3283	21008.02	3.9130	3.9131	0.9959	7.06	1.09	0.750			
0.3313	21201.51	3.9100	3.9099	1.0110	7.05	1.08	0.750			
0.3343	21395.82	3.9070	3.9070	1.0189	7.05	1.08	0.750			
0.3374	21591.50	3.9040	3.9040	1.0303	7.04	1.07	0.750			
0.3405	21792.37	3.9010	3.9010	1.0433	7.03	1.06	0.750			
0.3437	21994.02	3.8980	3.8980	1.0515	7.03	1.06	0.750			
0.3469	22199.56	3.8950	3.8950	1.0489	7.02	1.05	0.750			
0.3500	22399.17	3.8920	3.8920	1.0640	7.00	1.03	0.750			
0.3532	22602.11	3.8890	3.8891	1.0727	6.99	1.02	0.750			
0.3564	22808.57	3.8860	3.8861	1.0897	6.98	1.01	0.750			
0.3597	23020.33	3.8830	3.8830	1.0929	6.97	1.00	0.750			
0.3630	23230.34	3.8800	3.8801	1.1166	6.96	0.99	0.750			
0.3663	23446.12	3.8770	3.8771	1.1375	6.94	0.97	0.750			
0.3699	23670.56	3.8740	3.8738	1.1443	6.93	0.96	0.750			
0.3733	23888.80	3.8710	3.8711	1.1518	6.92	0.95	0.750			
0.3767	24111.79	3.8680	3.8681	1.1734	6.91	0.94	0.750			
0.3803	24338.37	3.8650	3.8651	1.1902	6.90	0.93	0.750			
0.3839	24568.10	3.8620	3.8620	1.1967	6.89	0.92	0.750			
0.3875	24799.17	3.8590	3.8591	1.2160	6.87	0.90	0.750			
0.3912	25034.13	3.8560	3.8561	1.2366	6.85	0.88	0.750			
0.3950	25277.90	3.8530	3.8528	1.2508	6.83	0.86	0.750			
0.3987	25516.22	3.8500	3.8502	1.2721	6.82	0.85	0.750			
0.4025	25759.46	3.8470	3.8471	1.3100	6.81	0.84	0.750			
0.4065	26016.35	3.8440	3.8439	1.3414	6.80	0.83	0.750			
0.4106	26277.43	3.8410	3.8410	1.3824	6.78	0.81	0.750	0.404	0.957	
0.4148	26546.03	3.8380	3.8382	1.4088	6.76	0.79	0.750			
0.4191	26822.77	3.8350	3.8350	1.4267	6.74	0.77	0.750			
0.4235	27102.73	3.8320	3.8321	1.4390	6.72	0.75	0.750			
0.4278	27376.54	3.8290	3.8291	1.4572	6.71	0.74	0.750			
0.4321	27654.39	3.8260	3.8260	1.4776	6.69	0.72	0.750			
0.4365	27938.94	3.8230	3.8231	1.4999	6.68	0.71	0.750			
0.4411	28227.81	3.8200	3.8199	1.5445	6.66	0.69	0.750			
0.4458	28528.21	3.8170	3.8169	1.5838	6.64	0.67	0.750			
0.4506	28838.92	3.8140	3.8141	1.6117	6.62	0.65	0.750			
0.4556	29156.19	3.8110	3.8111	1.6491	6.60	0.63	0.750			
0.4606	29475.92	3.8080	3.8080	1.6718	6.58	0.61	0.750			
0.4656	29795.37	3.8050	3.8049	1.6724	6.56	0.59	0.750			
0.4705	30114.94	3.8020	3.8020	1.7331	6.54	0.57	0.750			
0.4759	30455.62	3.7990	3.7989	1.7652	6.52	0.55	0.750			
0.4812	30799.35	3.7960	3.7959	1.8252	6.50	0.53	0.750			
0.4868	31156.45	3.7930	3.7933	1.8362	6.47	0.50	0.750			
0.4924	31516.03	3.7900	3.7903	1.8575	6.45	0.48	0.750			
0.4981	31876.78	3.7870	3.7869	1.8877	6.42	0.45	0.750			
0.5036	32230.83	3.7840	3.7840	1.9390	6.40	0.43	0.750			
0.5092	32591.79	3.7810	3.7811	1.9243	6.39	0.42	0.750			
0.5151	32964.52	3.7780	3.7785	1.9058	6.36	0.39	0.750			
0.5209	33338.02	3.7750	3.7755	1.9962	6.33	0.36	0.750			
0.5270	33729.06	3.7720	3.7716	2.0375	6.31	0.34	0.750			
0.5332	34124.67	3.7690	3.7688	2.0453	6.29	0.32	0.750			
0.5392	34511.79	3.7660	3.7658	2.0266	6.26	0.29	0.750			
0.5454	34902.72	3.7630	3.7629	2.0554	6.23	0.26	0.750			
0.5516	35301.81	3.7600	3.7599	2.1031	6.21	0.24	0.750			
0.5580	35712.64	3.7570	3.7569	2.1097	6.18	0.21	0.750			
0.5645	36126.94	3.7540	3.7539	2.1411	6.16	0.19	0.750			
0.5710	36545.41	3.7510	3.7507	2.1587	6.13	0.16	0.750			
0.5774	36953.30	3.7480	3.7482	2.2155	6.11	0.14	0.750			
0.5840	37378.21	3.7450	3.7450	2.3339	6.09	0.12	0.750			
0.5913	37845.68	3.7420	3.7420	2.4041	6.06	0.09	0.750			
0.5989	38327.27	3.7390	3.7391	2.4985	6.04	0.07	0.750			
0.6064	38810.22	3.7360	3.7359	2.5247	6.01	0.04	0.750			
0.6143	39318.29	3.7330	3.7328	2.3969	5.99	0.02	0.750			
0.6212	39756.93	3.7300	3.7301	2.2690	5.97	-0.00	0.750			
0.6275	40158.81	3.7270	3.7262	2.2093	5.96	-0.01	0.750			
0.6338	40564.79	3.7240	3.7239	2.3027	5.95	-0.02	0.750			
0.6415	41055.12	3.7210	3.7209	2.4862	5.93	-0.04	0.750			
0.6487	41515.64	3.7180	3.7181	2.2972	5.92	-0.05	0.750			
0.6553	41937.35	3.7150	3.7153	2.1309	5.91	-0.06	0.750			
0.6614	42327.29	3.7120	3.7122	1.9636	5.91	-0.06	0.750			
0.6672	42698.16	3.7090	3.7090	1.7935	5.91	-0.06	0.750			
0.6721	43016.88	3.7060	3.7060	1.5840	5.91	-0.06	0.750			
0.6766	43301.54	3.7030	3.7032	1.4216	5.91	-0.06	0.750			
0.6805	43551.89	3.7000	3.7001	1.2825	5.91	-0.06	0.750			
0.6840	43775.84	3.6970	3.6967	1.1497	5.91	-0.06	0.750			
0.6871	43977.07	3.6940	3.6942	1.0450	5.91	-0.06	0.750			
0.6901	44166.30	3.6910	3.6910	0.9710	5.91	-0.06	0.750			
0.6929	44344.15	3.6880	3.6881	0.9280	5.91	-0.06	0.750			
0.6955	44514.41	3.6850	3.6846	0.8711	5.91	-0.06	0.750			
0.6981	44678.14	3.6820	3.6820	0.8329	5.92	-0.05	0.750			
0.7005	44835.04	3.6790	3.6790	0.7895	5.93	-0.04	0.750			
0.7029	44983.34	3.6760	3.6762	0.7542	5.93	-0.04	0.750			
0.7051	45125.88	3.6730	3.6729	0.7272	5.94	-0.03	0.750			
0.7072	45257.95	3.6700	3.6700	0.6823	5.95	-0.02	0.750			
0.7091	45384.10	3.6670	3.6671	0.6419	5.95	-0.02	0.750			
0.7110	45506.33	3.6640	3.6642	0.6118	5.95	-0.02	0.750			
0.7128	45620.27	3.6610	3.6610	0.5746	5.96	-0.01	0.750			
0.7145	45727.53	3.6580	3.6578	0.5376	5.96	-0.01	0.750			
0.7160	45826.16	3.6550	3.6550	0.4931	5.96	-0.01	0.750			
0.7174	45916.25	3.6520	3.6520	0.4531	5.96	-0.01	0.750			
0.7188	46001.30	3.6490	3.6491	0.4171	5.97	-0.00	0.750			
0.7200	46077.43	3.6460	3.6460	0.3800	5.97	-0.00	0.750			
0.7210	46145.36	3.6430	3.6430	0.3436	5.97	0.00	0.750			
0.7220	46207.38	3.6400	3.6400	0.3089	5.97	0.00	0.750			
0.7229	46263.02	3.6370	3.6371	0.2756	5.97	0.00	0.750			
0.7237	46314.41	3.6340	3.6339	0.2418	5.97	0.00	0.750			
0.7243	46357.98	3.6310	3.6310	0.2071	5.98	0.01	0.750			
0.7249	46394.38	3.6280	3.6279	0.1706	5.98	0.01	0.750			
0.7254	46423.70	3.6250	3.6252	0.1333	5.98	0.01	0.750			
0.7257	46446.13	3.6220	3.6225	0.0954	5.98	0.01	0.750			
0.7260	46461.68	3.6190	3.6196	0.0537	5.98	0.01	0.750			
0.7261	46467.96	3.6160	3.6177	0.0118	5.98	0.01	0.750			
