Ah_balance (normalized)	Ah_balance (mAh)	Voltage - fit (V)	Voltage -  interpolate (V)	dQ/dV (1/V)	Temperature (°C)	Temperature - diff (°C)	Current (C)	R_DC 0ms (mOhm)	R_DC 50ms (mOhm)	R_DC 50 ms PEC (mOhm)
0.1766	11303.99	4.0820	4.0820	0.7663	7.14	1.17	0.750			
0.1789	11450.43	4.0790	4.0789	0.7646	7.14	1.17	0.750			
0.1812	11597.14	4.0760	4.0760	0.7739	7.14	1.17	0.750			
0.1836	11747.89	4.0730	4.0731	0.7834	7.13	1.16	0.750			
0.1859	11900.55	4.0700	4.0699	0.7892	7.13	1.16	0.750			
0.1883	12052.67	4.0670	4.0670	0.7918	7.13	1.16	0.750			
0.1907	12204.95	4.0640	4.0641	0.7897	7.12	1.15	0.750			
0.1931	12356.43	4.0610	4.0610	0.7932	7.12	1.15	0.750			
0.1954	12508.28	4.0580	4.0580	0.7934	7.11	1.14	0.750			
0.1978	12660.32	4.0550	4.0548	0.7956	7.11	1.14	0.750			
0.2002	12813.76	4.0520	4.0521	0.8008	7.10	1.13	0.750			
0.2026	12967.61	4.0490	4.0490	0.8034	7.09	1.12	0.750			
0.2050	13122.53	4.0460	4.0460	0.8090	7.09	1.12	0.750			
0.2075	13277.80	4.0430	4.0430	0.8104	7.08	1.11	0.750			
0.2099	13433.72	4.0400	4.0399	0.8148	7.07	1.10	0.750			
0.2124	13591.55	4.0370	4.0371	0.8188	7.07	1.10	0.750			
0.2148	13749.84	4.0340	4.0340	0.8181	7.06	1.09	0.750			
0.2173	13906.81	4.0310	4.0310	0.8205	7.06	1.09	0.750			
0.2197	14062.77	4.0280	4.0281	0.8194	7.05	1.08	0.750			
0.2222	14220.73	4.0250	4.0249	0.8238	7.05	1.08	0.750			
0.2247	14378.93	4.0220	4.0220	0.8290	7.05	1.08	0.750			
0.2272	14539.43	4.0190	4.0190	0.8288	7.04	1.07	0.750			
0.2297	14699.01	4.0160	4.0160	0.8355	7.03	1.06	0.750			
0.2322	14859.50	4.0130	4.0130	0.8354	7.03	1.06	0.750			
0.2347	15019.45	4.0100	4.0099	0.8396	7.02	1.05	0.750			
0.2372	15180.37	4.0070	4.0070	0.8432	7.02	1.05	0.750			
0.2397	15343.25	4.0040	4.0040	0.8487	7.02	1.05	0.750			
0.2423	15507.14	4.0010	4.0010	0.8536	7.01	1.04	0.750			
0.2449	15672.16	3.9980	3.9980	0.8542	7.01	1.04	0.750			
0.2475	15836.81	3.9950	3.9949	0.8558	7.01	1.04	0.750			
0.2500	16001.96	3.9920	3.9920	0.8588	7.00	1.03	0.750			
0.2526	16165.67	3.9890	3.9890	0.8577	6.99	1.02	0.750			
0.2551	16328.66	3.9860	3.9860	0.8635	6.99	1.02	0.750			
0.2577	16493.49	3.9830	3.9830	0.8734	6.98	1.01	0.750			
0.2604	16662.60	3.9800	3.9794	0.8859	6.97	1.00	0.750			
0.2631	16837.23	3.9770	3.9770	0.8887	6.97	1.00	0.750			
0.2658	17008.28	3.9740	3.9741	0.8952	6.96	0.99	0.750			
0.2685	17182.52	3.9710	3.9710	0.8998	6.96	0.99	0.750			
0.2712	17355.60	3.9680	3.9680	0.8987	6.95	0.98	0.750			
0.2738	17524.49	3.9650	3.9649	0.8932	6.95	0.98	0.750			
0.2765	17695.24	3.9620	3.9621	0.8958	6.94	0.97	0.750			
0.2792	17868.44	3.9590	3.9590	0.8991	6.93	0.96	0.750			
0.2819	18041.77	3.9560	3.9559	0.9036	6.92	0.95	0.750			
0.2846	18213.86	3.9530	3.9529	0.9056	6.91	0.94	0.750			
0.2874	18391.37	3.9500	3.9500	0.9083	6.90	0.93	0.750			
0.2901	18564.43	3.9470	3.9470	0.9165	6.89	0.92	0.750			
0.2928	18740.15	3.9440	3.9440	0.9228	6.89	0.92	0.750			
0.2956	18917.85	3.9410	3.9411	0.9319	6.88	0.91	0.750			
0.2984	19097.08	3.9380	3.9379	0.9431	6.87	0.90	0.750			
0.3012	19278.59	3.9350	3.9351	0.9511	6.86	0.89	0.750			
0.3041	19461.96	3.9320	3.9320	0.9611	6.86	0.89	0.750			
0.3070	19649.54	3.9290	3.9290	0.9703	6.86	0.89	0.750			
0.3100	19837.17	3.9260	3.9259	0.9716	6.85	0.88	0.750			
0.3129	20027.94	3.9230	3.9230	0.9668	6.84	0.87	0.750			
0.3158	20211.65	3.9200	3.9201	0.9754	6.83	0.86	0.750			
0.3187	20396.17	3.9170	3.9171	0.9849	6.82	0.85	0.750			
0.3216	20584.71	3.9140	3.9139	0.9912	6.81	0.84	0.750			
0.3248	20784.64	3.9110	3.9110	0.9651	6.80	0.83	0.750			
0.3277	20972.33	3.9080	3.9081	0.9578	6.79	0.82	0.750			
0.3305	21149.99	3.9050	3.9054	0.9559	6.77	0.80	0.750			
0.3333	21331.43	3.9020	3.9020	0.9574	6.76	0.79	0.750			
0.3360	21503.43	3.8990	3.8986	0.9601	6.75	0.78	0.750			
0.3389	21687.99	3.8960	3.8960	0.9889	6.74	0.77	0.750			
0.3419	21883.17	3.8930	3.8931	1.0325	6.74	0.77	0.750			
0.3452	22094.12	3.8900	3.8900	1.0744	6.73	0.76	0.750			
0.3485	22304.18	3.8870	3.8870	1.0799	6.73	0.76	0.750			
0.3518	22513.34	3.8840	3.8840	1.1003	6.72	0.75	0.750			
0.3551	22727.92	3.8810	3.8810	1.1103	6.71	0.74	0.750			
0.3585	22941.29	3.8780	3.8780	1.1192	6.70	0.73	0.750			
0.3619	23159.61	3.8750	3.8752	1.1118	6.69	0.72	0.750			
0.3652	23370.75	3.8720	3.8720	1.1312	6.68	0.71	0.750			
0.3686	23588.00	3.8690	3.8691	1.1454	6.67	0.70	0.750			
0.3720	23810.44	3.8660	3.8657	1.1585	6.66	0.69	0.750			
0.3755	24030.70	3.8630	3.8632	1.1779	6.65	0.68	0.750			
0.3791	24261.06	3.8600	3.8601	1.2052	6.64	0.67	0.750			
0.3827	24494.62	3.8570	3.8571	1.2256	6.64	0.67	0.750			
0.3865	24733.66	3.8540	3.8541	1.2288	6.63	0.66	0.750			
0.3902	24971.20	3.8510	3.8510	1.2514	6.61	0.64	0.750			
0.3940	25213.01	3.8480	3.8482	1.2756	6.60	0.63	0.750			
0.3978	25459.28	3.8450	3.8446	1.3001	6.58	0.61	0.750			
0.4016	25701.94	3.8420	3.8421	1.3196	6.57	0.60	0.750			
0.4056	25957.01	3.8390	3.8392	1.3665	6.56	0.59	0.750			
0.4097	26222.98	3.8360	3.8354	1.3957	6.55	0.58	0.750	0.393	0.920	
0.4140	26497.05	3.8330	3.8334	1.4274	6.54	0.57	0.750			
0.4184	26774.80	3.8300	3.8303	1.4620	6.52	0.55	0.750			
0.4229	27065.31	3.8270	3.8268	1.4947	6.51	0.54	0.750			
0.4275	27358.70	3.8240	3.8237	1.5128	6.49	0.52	0.750			
0.4319	27641.52	3.8210	3.8211	1.5111	6.48	0.51	0.750			
0.4365	27935.75	3.8180	3.8180	1.5497	6.46	0.49	0.750			
0.4411	28233.36	3.8150	3.8150	1.5556	6.44	0.47	0.750			
0.4458	28532.69	3.8120	3.8124	1.5963	6.42	0.45	0.750			
0.4507	28842.62	3.8090	3.8091	1.6349	6.40	0.43	0.750			
0.4557	29162.59	3.8060	3.8060	1.6851	6.39	0.42	0.750			
0.4608	29490.95	3.8030	3.8030	1.6968	6.38	0.41	0.750			
0.4659	29818.62	3.8000	3.8002	1.7123	6.37	0.40	0.750			
0.4712	30155.32	3.7970	3.7970	1.7286	6.35	0.38	0.750			
0.4763	30483.50	3.7940	3.7941	1.7671	6.34	0.37	0.750			
0.4817	30828.87	3.7910	3.7911	1.7677	6.32	0.35	0.750			
0.4870	31170.97	3.7880	3.7883	1.8519	6.30	0.33	0.750			
0.4927	31530.78	3.7850	3.7853	1.8871	6.29	0.32	0.750			
0.4984	31894.75	3.7820	3.7823	1.8996	6.27	0.30	0.750			
0.5041	32261.87	3.7790	3.7791	1.9407	6.25	0.28	0.750			
0.5101	32648.87	3.7760	3.7757	2.0001	6.23	0.26	0.750			
0.5160	33021.62	3.7730	3.7731	1.9851	6.20	0.23	0.750			
0.5220	33405.80	3.7700	3.7699	1.9903	6.17	0.20	0.750			
0.5282	33802.62	3.7670	3.7669	1.9713	6.15	0.18	0.750			
0.5340	34177.08	3.7640	3.7641	2.0256	6.13	0.16	0.750			
0.5403	34577.75	3.7610	3.7610	2.0488	6.12	0.15	0.750			
0.5465	34974.49	3.7580	3.7580	2.0975	6.11	0.14	0.750			
0.5529	35385.92	3.7550	3.7548	2.1859	6.10	0.13	0.750			
0.5596	35813.42	3.7520	3.7518	2.1666	6.08	0.11	0.750			
0.5661	36233.34	3.7490	3.7493	2.2319	6.07	0.10	0.750			
0.5726	36649.28	3.7460	3.7459	2.2135	6.05	0.08	0.750			
0.5794	37081.45	3.7430	3.7429	2.3048	6.03	0.06	0.750			
0.5866	37541.42	3.7400	3.7400	2.3112	6.01	0.04	0.750			
0.5934	37976.82	3.7370	3.7372	2.3389	6.00	0.03	0.750			
0.6004	38423.29	3.7340	3.7339	2.4303	5.98	0.01	0.750			
0.6078	38899.84	3.7310	3.7310	2.6135	5.97	-0.00	0.750			
0.6161	39428.01	3.7280	3.7279	2.6396	5.95	-0.02	0.750			
0.6240	39935.72	3.7250	3.7251	2.6053	5.93	-0.04	0.750			
0.6317	40430.96	3.7220	3.7220	2.5580	5.92	-0.05	0.750			
0.6394	40919.28	3.7190	3.7192	2.4955	5.91	-0.06	0.750			
0.6467	41390.61	3.7160	3.7160	2.4004	5.91	-0.06	0.750			
0.6537	41839.63	3.7130	3.7130	2.2455	5.90	-0.07	0.750			
0.6605	42272.76	3.7100	3.7099	2.1188	5.89	-0.08	0.750			
0.6666	42659.32	3.7070	3.7069	1.9149	5.89	-0.08	0.750			
0.6719	43002.34	3.7040	3.7040	1.7051	5.89	-0.08	0.750			
0.6765	43297.90	3.7010	3.7011	1.4794	5.90	-0.07	0.750			
0.6808	43568.32	3.6980	3.6981	1.3376	5.90	-0.07	0.750			
0.6844	43803.72	3.6950	3.6948	1.2049	5.91	-0.06	0.750			
0.6878	44021.59	3.6920	3.6922	1.0856	5.91	-0.06	0.750			
0.6908	44213.76	3.6890	3.6890	1.0068	5.91	-0.06	0.750			
0.6937	44396.78	3.6860	3.6860	0.9459	5.92	-0.05	0.750			
0.6963	44562.48	3.6830	3.6832	0.8903	5.92	-0.05	0.750			
0.6989	44732.78	3.6800	3.6799	0.8717	5.92	-0.05	0.750			
0.7016	44899.80	3.6770	3.6770	0.8408	5.93	-0.04	0.750			
0.7041	45060.15	3.6740	3.6740	0.8119	5.93	-0.04	0.750			
0.7065	45214.76	3.6710	3.6712	0.7776	5.93	-0.04	0.750			
0.7088	45362.42	3.6680	3.6680	0.7361	5.94	-0.03	0.750			
0.7109	45500.05	3.6650	3.6651	0.6954	5.94	-0.03	0.750			
0.7129	45628.42	3.6620	3.6620	0.6525	5.95	-0.02	0.750			
0.7148	45748.89	3.6590	3.6590	0.6170	5.95	-0.02	0.750			
0.7166	45863.88	3.6560	3.6559	0.5809	5.96	-0.01	0.750			
0.7183	45971.14	3.6530	3.6530	0.5401	5.96	-0.01	0.750			
0.7199	46072.43	3.6500	3.6502	0.5046	5.96	-0.01	0.750			
0.7214	46166.62	3.6470	3.6470	0.4666	5.97	-0.00	0.750			
0.7227	46252.39	3.6440	3.6439	0.4273	5.97	-0.00	0.750			
0.7239	46329.51	3.6410	3.6410	0.3891	5.97	0.00	0.750			
0.7250	46399.92	3.6380	3.6380	0.3513	5.98	0.01	0.750			
0.7260	46464.40	3.6350	3.6350	0.3168	5.98	0.01	0.750			
0.7269	46522.11	3.6320	3.6320	0.2822	5.98	0.01	0.750			
0.7277	46573.21	3.6290	3.6290	0.2454	5.98	0.01	0.750			
0.7284	46617.10	3.6260	3.6259	0.2091	5.98	0.01	0.750			
0.7290	46653.89	3.6230	3.6231	0.1719	5.98	0.01	0.750			
0.7294	46683.36	3.6200	3.6201	0.1341	5.99	0.02	0.750			
0.7298	46705.73	3.6170	3.6177	0.0959	5.99	0.02	0.750			
0.7300	46721.47	3.6140	3.6151	0.0547	5.99	0.02	0.750			
0.7301	46727.96	3.6110	3.6129	0.0129	5.99	0.02	0.750			
