Ah_balance (normalized)	Ah_balance (mAh)	Voltage - fit (V)	Voltage -  interpolate (V)	dQ/dV (1/V)	Temperature (°C)	Temperature - diff (°C)	Current (C)	R_DC 0ms (mOhm)	R_DC 50ms (mOhm)	R_DC 50 ms PEC (mOhm)
0.1805	11552.40	4.0820	4.0819	0.7222	7.28	1.31	0.750			
0.1827	11695.54	4.0790	4.0790	0.7503	7.27	1.30	0.750			
0.1850	11840.17	4.0760	4.0758	0.7567	7.27	1.30	0.750			
0.1873	11986.66	4.0730	4.0731	0.7604	7.27	1.30	0.750			
0.1896	12134.24	4.0700	4.0700	0.7673	7.26	1.29	0.750			
0.1919	12280.75	4.0670	4.0670	0.7693	7.26	1.29	0.750			
0.1942	12428.99	4.0640	4.0640	0.7689	7.26	1.29	0.750			
0.1965	12576.30	4.0610	4.0610	0.7721	7.25	1.28	0.750			
0.1988	12725.08	4.0580	4.0581	0.7752	7.25	1.28	0.750			
0.2012	12874.16	4.0550	4.0551	0.7782	7.24	1.27	0.750			
0.2035	13024.27	4.0520	4.0519	0.7819	7.23	1.26	0.750			
0.2058	13173.75	4.0490	4.0490	0.7842	7.22	1.25	0.750			
0.2082	13324.58	4.0460	4.0461	0.7913	7.22	1.25	0.750			
0.2106	13478.66	4.0430	4.0429	0.7958	7.21	1.24	0.750			
0.2130	13630.99	4.0400	4.0400	0.7962	7.21	1.24	0.750			
0.2154	13784.64	4.0370	4.0370	0.7951	7.20	1.23	0.750			
0.2177	13934.68	4.0340	4.0341	0.8009	7.20	1.23	0.750			
0.2201	14088.66	4.0310	4.0310	0.8056	7.19	1.22	0.750			
0.2226	14244.81	4.0280	4.0278	0.8049	7.19	1.22	0.750			
0.2250	14399.51	4.0250	4.0250	0.8077	7.19	1.22	0.750			
0.2274	14556.02	4.0220	4.0222	0.8114	7.18	1.21	0.750			
0.2299	14712.12	4.0190	4.0190	0.8164	7.18	1.21	0.750			
0.2323	14867.49	4.0160	4.0160	0.8162	7.17	1.20	0.750			
0.2348	15024.78	4.0130	4.0129	0.8181	7.17	1.20	0.750			
0.2372	15182.56	4.0100	4.0101	0.8263	7.16	1.19	0.750			
0.2397	15343.95	4.0070	4.0070	0.8278	7.16	1.19	0.750			
0.2422	15501.23	4.0040	4.0040	0.8344	7.15	1.18	0.750			
0.2447	15660.10	4.0010	4.0010	0.8387	7.14	1.17	0.750			
0.2472	15823.11	3.9980	3.9979	0.8440	7.13	1.16	0.750			
0.2498	15986.56	3.9950	3.9949	0.8472	7.13	1.16	0.750			
0.2524	16151.09	3.9920	3.9921	0.8487	7.12	1.15	0.750			
0.2549	16314.80	3.9890	3.9890	0.8484	7.11	1.14	0.750			
0.2574	16476.69	3.9860	3.9860	0.8440	7.11	1.14	0.750			
0.2600	16637.97	3.9830	3.9828	0.8488	7.10	1.13	0.750			
0.2625	16798.73	3.9800	3.9801	0.8496	7.10	1.13	0.750			
0.2651	16964.53	3.9770	3.9770	0.8552	7.09	1.12	0.750			
0.2677	17130.39	3.9740	3.9741	0.8607	7.08	1.11	0.750			
0.2702	17295.30	3.9710	3.9710	0.8635	7.08	1.11	0.750			
0.2728	17460.20	3.9680	3.9680	0.8637	7.07	1.10	0.750			
0.2754	17628.36	3.9650	3.9649	0.8620	7.06	1.09	0.750			
0.2780	17792.65	3.9620	3.9620	0.8658	7.05	1.08	0.750			
0.2806	17958.49	3.9590	3.9591	0.8744	7.05	1.08	0.750			
0.2832	18125.61	3.9560	3.9562	0.8833	7.04	1.07	0.750			
0.2859	18296.10	3.9530	3.9530	0.8927	7.03	1.06	0.750			
0.2886	18472.40	3.9500	3.9500	0.8866	7.02	1.05	0.750			
0.2913	18641.10	3.9470	3.9470	0.9019	7.01	1.04	0.750			
0.2940	18814.88	3.9440	3.9441	0.9104	7.00	1.03	0.750			
0.2967	18990.76	3.9410	3.9412	0.9123	6.99	1.02	0.750			
0.2995	19164.80	3.9380	3.9380	0.9194	6.99	1.02	0.750			
0.3022	19342.73	3.9350	3.9352	0.9205	6.98	1.01	0.750			
0.3050	19519.88	3.9320	3.9320	0.9302	6.98	1.01	0.750			
0.3078	19700.05	3.9290	3.9291	0.9388	6.97	1.00	0.750			
0.3106	19878.07	3.9260	3.9256	0.9434	6.97	1.00	0.750			
0.3135	20066.04	3.9230	3.9230	0.9371	6.96	0.99	0.750			
0.3163	20245.57	3.9200	3.9200	0.9460	6.95	0.98	0.750			
0.3192	20426.05	3.9170	3.9172	0.9562	6.94	0.97	0.750			
0.3220	20609.42	3.9140	3.9142	0.9492	6.93	0.96	0.750			
0.3249	20791.13	3.9110	3.9111	0.9707	6.92	0.95	0.750			
0.3278	20979.72	3.9080	3.9081	0.9739	6.91	0.94	0.750			
0.3308	21168.44	3.9050	3.9050	0.9823	6.90	0.93	0.750			
0.3338	21362.17	3.9020	3.9018	1.0062	6.90	0.93	0.750			
0.3367	21551.54	3.8990	3.8989	0.9982	6.88	0.91	0.750			
0.3398	21744.23	3.8960	3.8959	1.0109	6.87	0.90	0.750			
0.3428	21937.60	3.8930	3.8931	1.0287	6.86	0.89	0.750			
0.3459	22135.05	3.8900	3.8900	1.0437	6.85	0.88	0.750			
0.3491	22344.54	3.8870	3.8871	1.0538	6.84	0.87	0.750			
0.3522	22543.22	3.8840	3.8839	1.0659	6.83	0.86	0.750			
0.3554	22746.04	3.8810	3.8812	1.0811	6.82	0.85	0.750			
0.3587	22956.50	3.8780	3.8782	1.1037	6.81	0.84	0.750			
0.3620	23167.76	3.8750	3.8749	1.1169	6.81	0.84	0.750			
0.3653	23378.56	3.8720	3.8722	1.1188	6.80	0.83	0.750			
0.3688	23600.14	3.8690	3.8691	1.1339	6.79	0.82	0.750			
0.3722	23819.23	3.8660	3.8659	1.1570	6.78	0.81	0.750			
0.3756	24040.12	3.8630	3.8632	1.1787	6.77	0.80	0.750			
0.3792	24266.56	3.8600	3.8603	1.2054	6.76	0.79	0.750			
0.3829	24504.55	3.8570	3.8573	1.2326	6.76	0.79	0.750			
0.3868	24753.20	3.8540	3.8539	1.2380	6.75	0.78	0.750			
0.3903	24976.57	3.8510	3.8512	1.2364	6.73	0.76	0.750			
0.3939	25210.43	3.8480	3.8485	1.2363	6.72	0.75	0.750			
0.3975	25438.25	3.8450	3.8447	1.2717	6.71	0.74	0.750			
0.4012	25674.89	3.8420	3.8422	1.3205	6.69	0.72	0.750	0.314	0.825	
0.4053	25938.32	3.8390	3.8393	1.3949	6.67	0.70	0.750			
0.4098	26225.77	3.8360	3.8362	1.4342	6.65	0.68	0.750			
0.4143	26514.40	3.8330	3.8333	1.4608	6.64	0.67	0.750			
0.4191	26821.19	3.8300	3.8299	1.4800	6.62	0.65	0.750			
0.4228	27061.91	3.8270	3.8270	1.3941	6.61	0.64	0.750			
0.4270	27324.86	3.8240	3.8241	1.4188	6.60	0.63	0.750			
0.4312	27598.85	3.8210	3.8205	1.4702	6.58	0.61	0.750			
0.4358	27888.85	3.8180	3.8177	1.4546	6.57	0.60	0.750			
0.4403	28176.60	3.8150	3.8153	1.5157	6.55	0.58	0.750			
0.4450	28478.56	3.8120	3.8122	1.5700	6.54	0.57	0.750			
0.4495	28770.43	3.8090	3.8084	1.5806	6.52	0.55	0.750			
0.4543	29074.20	3.8060	3.8060	1.6367	6.51	0.54	0.750			
0.4594	29400.08	3.8030	3.8032	1.7261	6.49	0.52	0.750			
0.4648	29748.49	3.8000	3.8005	1.7111	6.47	0.50	0.750			
0.4699	30075.51	3.7970	3.7969	1.7280	6.44	0.47	0.750			
0.4752	30410.73	3.7940	3.7944	1.7188	6.42	0.45	0.750			
0.4801	30728.94	3.7910	3.7911	1.7194	6.41	0.44	0.750			
0.4853	31056.76	3.7880	3.7873	1.7240	6.39	0.42	0.750			
0.4905	31394.35	3.7850	3.7847	1.7908	6.37	0.40	0.750			
0.4959	31737.02	3.7820	3.7817	1.7921	6.34	0.37	0.750			
0.5013	32083.39	3.7790	3.7788	1.8298	6.32	0.35	0.750			
0.5066	32421.14	3.7760	3.7761	1.8323	6.30	0.33	0.750			
0.5125	32801.53	3.7730	3.7728	1.8531	6.28	0.31	0.750			
0.5179	33143.27	3.7700	3.7699	1.8886	6.27	0.30	0.750			
0.5238	33523.94	3.7670	3.7672	1.8493	6.25	0.28	0.750			
0.5294	33884.13	3.7640	3.7635	1.8635	6.23	0.26	0.750			
0.5351	34247.91	3.7610	3.7609	1.8458	6.21	0.24	0.750			
0.5407	34604.87	3.7580	3.7582	1.8944	6.19	0.22	0.750			
0.5463	34961.97	3.7550	3.7552	1.8830	6.18	0.21	0.750			
0.5521	35332.41	3.7520	3.7520	1.9899	6.16	0.19	0.750			
0.5579	35707.51	3.7490	3.7495	2.0135	6.15	0.18	0.750			
0.5642	36107.05	3.7460	3.7460	2.0806	6.13	0.16	0.750			
0.5704	36508.15	3.7430	3.7428	2.1522	6.12	0.15	0.750			
0.5770	36925.10	3.7400	3.7404	2.1694	6.10	0.13	0.750			
0.5833	37333.54	3.7370	3.7373	2.2585	6.08	0.11	0.750			
0.5900	37762.99	3.7340	3.7344	2.2012	6.06	0.09	0.750			
0.5969	38204.18	3.7310	3.7310	2.2765	6.03	0.06	0.750			
0.6038	38646.16	3.7280	3.7280	2.2257	6.02	0.05	0.750			
0.6104	39066.71	3.7250	3.7256	2.3962	6.01	0.04	0.750			
0.6176	39524.40	3.7220	3.7217	2.3427	5.99	0.02	0.750			
0.6249	39992.80	3.7190	3.7192	2.3400	5.98	0.01	0.750			
0.6312	40396.23	3.7160	3.7172	2.0474	5.96	-0.01	0.750			
0.6368	40754.94	3.7130	3.7134	1.8508	5.95	-0.02	0.750			
0.6422	41102.91	3.7100	3.7097	1.7140	5.95	-0.02	0.750			
0.6472	41419.20	3.7070	3.7071	1.5497	5.95	-0.02	0.750			
0.6516	41703.97	3.7040	3.7043	1.4344	5.95	-0.02	0.750			
0.6555	41952.71	3.7010	3.7011	1.2409	5.95	-0.02	0.750			
0.6589	42168.67	3.6980	3.6982	1.1259	5.95	-0.02	0.750			
0.6621	42371.96	3.6950	3.6949	1.0487	5.95	-0.02	0.750			
0.6651	42564.11	3.6920	3.6920	0.9765	5.94	-0.03	0.750			
0.6679	42744.98	3.6890	3.6892	0.9387	5.94	-0.03	0.750			
0.6707	42922.06	3.6860	3.6862	0.9076	5.93	-0.04	0.750			
0.6732	43086.40	3.6830	3.6823	0.8734	5.93	-0.04	0.750			
0.6758	43249.15	3.6800	3.6800	0.8459	5.93	-0.04	0.750			
0.6783	43412.04	3.6770	3.6771	0.8210	5.94	-0.03	0.750			
0.6808	43571.33	3.6740	3.6740	0.7989	5.94	-0.03	0.750			
0.6831	43721.18	3.6710	3.6711	0.7552	5.95	-0.02	0.750			
0.6853	43860.92	3.6680	3.6680	0.7225	5.95	-0.02	0.750			
0.6875	43997.39	3.6650	3.6650	0.6936	5.95	-0.02	0.750			
0.6895	44126.62	3.6620	3.6618	0.6640	5.96	-0.01	0.750			
0.6915	44252.86	3.6590	3.6591	0.6366	5.96	-0.01	0.750			
0.6933	44371.76	3.6560	3.6560	0.6089	5.96	-0.01	0.750			
0.6951	44485.95	3.6530	3.6530	0.5793	5.97	-0.00	0.750			
0.6968	44595.10	3.6500	3.6500	0.5514	5.97	-0.00	0.750			
0.6984	44696.61	3.6470	3.6473	0.5204	5.97	0.00	0.750			
0.6999	44795.21	3.6440	3.6440	0.4927	5.97	0.00	0.750			
0.7014	44887.82	3.6410	3.6410	0.4601	5.98	0.01	0.750			
0.7027	44973.66	3.6380	3.6381	0.4265	5.98	0.01	0.750			
0.7039	45052.05	3.6350	3.6350	0.3907	5.98	0.01	0.750			
0.7051	45124.20	3.6320	3.6320	0.3565	5.98	0.01	0.750			
0.7061	45188.68	3.6290	3.6288	0.3185	5.98	0.01	0.750			
0.7070	45245.93	3.6260	3.6260	0.2820	5.98	0.01	0.750			
0.7078	45298.02	3.6230	3.6230	0.2457	5.99	0.02	0.750			
0.7085	45341.67	3.6200	3.6200	0.2077	5.99	0.02	0.750			
0.7090	45378.91	3.6170	3.6172	0.1706	5.99	0.02	0.750			
0.7095	45407.07	3.6140	3.6144	0.1297	5.99	0.02	0.750			
0.7098	45428.36	3.6110	3.6113	0.0904	5.99	0.02	0.750			
0.7100	45442.30	3.6080	3.6074	0.0506	5.99	0.02	0.750			
0.7101	45446.29	3.6020	3.6062	-0.0298	5.99	0.02	0.750			
0.7101	45448.16	3.6050	3.6313	0.0104	5.99	0.02	0.748			
