Ah_balance (normalized)	Ah_balance (mAh)	Voltage - fit (V)	Voltage -  interpolate (V)	dQ/dV (1/V)	Temperature (°C)	Temperature - diff (°C)	Current (C)	R_DC 0ms (mOhm)	R_DC 50ms (mOhm)	R_DC 50 ms PEC (mOhm)
0.1786	11432.07	4.0810	4.0810	0.7926	7.43	1.44	0.750			
0.1810	11584.92	4.0780	4.0780	0.7923	7.42	1.43	0.750			
0.1833	11734.34	4.0750	4.0750	0.7886	7.42	1.43	0.750			
0.1857	11885.55	4.0720	4.0720	0.7946	7.41	1.42	0.750			
0.1881	12038.84	4.0690	4.0688	0.7951	7.41	1.42	0.750			
0.1905	12191.43	4.0660	4.0661	0.7989	7.41	1.42	0.750			
0.1929	12346.69	4.0630	4.0630	0.8024	7.40	1.41	0.750			
0.1953	12500.43	4.0600	4.0600	0.8088	7.40	1.41	0.750			
0.1978	12657.81	4.0570	4.0569	0.8125	7.40	1.41	0.750			
0.2002	12811.54	4.0540	4.0540	0.8104	7.39	1.40	0.750			
0.2026	12968.31	4.0510	4.0511	0.8153	7.39	1.40	0.750			
0.2051	13127.12	4.0480	4.0480	0.8185	7.38	1.39	0.750			
0.2076	13283.21	4.0450	4.0449	0.8189	7.38	1.39	0.750			
0.2100	13439.87	4.0420	4.0420	0.8207	7.38	1.39	0.750			
0.2124	13593.10	4.0390	4.0390	0.8331	7.37	1.38	0.750			
0.2149	13753.44	4.0360	4.0361	0.8505	7.37	1.38	0.750			
0.2175	13918.26	4.0330	4.0329	0.8584	7.36	1.37	0.750			
0.2201	14086.36	4.0300	4.0298	0.8687	7.36	1.37	0.750			
0.2228	14257.85	4.0270	4.0273	0.8788	7.36	1.37	0.750			
0.2254	14428.20	4.0240	4.0239	0.8750	7.35	1.36	0.750			
0.2281	14597.87	4.0210	4.0210	0.8710	7.34	1.35	0.750			
0.2307	14761.74	4.0180	4.0180	0.8593	7.34	1.35	0.750			
0.2332	14923.50	4.0150	4.0150	0.8516	7.33	1.34	0.750			
0.2357	15085.58	4.0120	4.0120	0.8488	7.32	1.33	0.750			
0.2383	15248.54	4.0090	4.0088	0.8494	7.31	1.32	0.750			
0.2408	15411.31	4.0060	4.0061	0.8503	7.31	1.32	0.750			
0.2434	15574.52	4.0030	4.0030	0.8548	7.30	1.31	0.750			
0.2459	15739.63	4.0000	4.0001	0.8598	7.30	1.31	0.750			
0.2485	15904.31	3.9970	3.9970	0.8616	7.29	1.30	0.750			
0.2511	16070.50	3.9940	3.9939	0.8724	7.29	1.30	0.750			
0.2538	16240.67	3.9910	3.9910	0.8701	7.29	1.30	0.750			
0.2564	16409.36	3.9880	3.9880	0.8735	7.28	1.29	0.750			
0.2590	16575.95	3.9850	3.9850	0.8762	7.28	1.29	0.750			
0.2616	16743.48	3.9820	3.9821	0.8740	7.27	1.28	0.750			
0.2642	16908.89	3.9790	3.9790	0.8827	7.27	1.28	0.750			
0.2669	17078.79	3.9760	3.9761	0.8880	7.26	1.27	0.750			
0.2695	17250.17	3.9730	3.9730	0.8934	7.25	1.26	0.750			
0.2723	17425.04	3.9700	3.9699	0.9020	7.24	1.25	0.750			
0.2750	17599.44	3.9670	3.9671	0.9006	7.23	1.24	0.750			
0.2777	17771.63	3.9640	3.9640	0.9041	7.22	1.23	0.750			
0.2804	17946.91	3.9610	3.9611	0.8983	7.22	1.23	0.750			
0.2831	18115.61	3.9580	3.9580	0.9015	7.21	1.22	0.750			
0.2857	18287.85	3.9550	3.9551	0.9091	7.20	1.21	0.750			
0.2885	18462.35	3.9520	3.9515	0.9165	7.19	1.20	0.750			
0.2913	18642.11	3.9490	3.9490	0.9147	7.18	1.19	0.750			
0.2940	18816.67	3.9460	3.9461	0.9277	7.17	1.18	0.750			
0.2968	18994.89	3.9430	3.9431	0.9392	7.16	1.17	0.750			
0.2996	19175.62	3.9400	3.9401	0.9410	7.15	1.16	0.750			
0.3025	19359.05	3.9370	3.9371	0.9450	7.15	1.16	0.750			
0.3053	19540.95	3.9340	3.9341	0.9541	7.14	1.15	0.750			
0.3082	19725.01	3.9310	3.9311	0.9646	7.13	1.14	0.750			
0.3111	19912.40	3.9280	3.9280	0.9707	7.13	1.14	0.750			
0.3140	20097.36	3.9250	3.9249	0.9668	7.12	1.13	0.750			
0.3169	20283.84	3.9220	3.9221	0.9768	7.11	1.12	0.750			
0.3199	20472.24	3.9190	3.9191	0.9894	7.10	1.11	0.750			
0.3229	20663.23	3.9160	3.9159	1.0002	7.10	1.11	0.750			
0.3259	20855.40	3.9130	3.9129	1.0073	7.09	1.10	0.750			
0.3289	21049.69	3.9100	3.9100	1.0087	7.08	1.09	0.750			
0.3320	21245.01	3.9070	3.9070	1.0186	7.07	1.08	0.750			
0.3350	21441.19	3.9040	3.9041	1.0321	7.06	1.07	0.750			
0.3381	21637.84	3.9010	3.9008	1.0437	7.05	1.06	0.750			
0.3412	21837.79	3.8980	3.8980	1.0538	7.04	1.05	0.750			
0.3444	22043.35	3.8950	3.8950	1.0679	7.03	1.04	0.750			
0.3477	22251.38	3.8920	3.8921	1.0841	7.02	1.03	0.750			
0.3510	22463.25	3.8890	3.8888	1.0935	7.01	1.02	0.750			
0.3542	22671.58	3.8860	3.8860	1.0990	7.00	1.01	0.750			
0.3575	22882.18	3.8830	3.8830	1.1097	6.99	1.00	0.750			
0.3609	23094.53	3.8800	3.8801	1.1240	6.98	0.99	0.750			
0.3642	23311.69	3.8770	3.8770	1.1335	6.97	0.98	0.750			
0.3677	23532.14	3.8740	3.8740	1.1565	6.96	0.97	0.750			
0.3712	23754.90	3.8710	3.8710	1.1747	6.95	0.96	0.750			
0.3747	23983.49	3.8680	3.8679	1.1918	6.93	0.94	0.750			
0.3783	24213.95	3.8650	3.8651	1.2088	6.92	0.93	0.750			
0.3820	24447.55	3.8620	3.8620	1.2247	6.91	0.92	0.750			
0.3857	24684.49	3.8590	3.8590	1.2431	6.90	0.91	0.750			
0.3894	24924.66	3.8560	3.8561	1.2594	6.89	0.90	0.750			
0.3932	25166.23	3.8530	3.8530	1.2750	6.87	0.88	0.750			
0.3971	25412.40	3.8500	3.8501	1.2955	6.85	0.86	0.750			
0.4010	25665.36	3.8470	3.8467	1.3038	6.83	0.84	0.750			
0.4049	25910.75	3.8440	3.8442	1.3457	6.82	0.83	0.750			
0.4089	26171.08	3.8410	3.8410	1.3891	6.81	0.82	0.750			
0.4131	26441.24	3.8380	3.8376	1.4233	6.80	0.81	0.750			
0.4175	26717.44	3.8350	3.8353	1.4574	6.78	0.79	0.750	0.422	0.973	
0.4220	27010.88	3.8320	3.8321	1.4978	6.77	0.78	0.750			
0.4266	27303.98	3.8290	3.8290	1.5158	6.75	0.76	0.750			
0.4311	27588.29	3.8260	3.8261	1.5150	6.73	0.74	0.750			
0.4357	27886.41	3.8230	3.8230	1.5376	6.71	0.72	0.750			
0.4404	28183.17	3.8200	3.8200	1.5672	6.69	0.70	0.750			
0.4450	28482.46	3.8170	3.8172	1.5984	6.67	0.68	0.750			
0.4499	28792.75	3.8140	3.8139	1.6262	6.65	0.66	0.750			
0.4548	29105.34	3.8110	3.8113	1.6747	6.63	0.64	0.750			
0.4599	29431.39	3.8080	3.8082	1.7047	6.61	0.62	0.750			
0.4651	29765.41	3.8050	3.8048	1.7784	6.58	0.59	0.750			
0.4705	30110.05	3.8020	3.8022	1.7899	6.56	0.57	0.750			
0.4760	30461.25	3.7990	3.7991	1.8242	6.53	0.54	0.750			
0.4816	30821.04	3.7960	3.7959	1.8555	6.51	0.52	0.750			
0.4871	31176.00	3.7930	3.7930	1.9029	6.49	0.50	0.750			
0.4929	31546.20	3.7900	3.7900	1.9092	6.47	0.48	0.750			
0.4987	31917.73	3.7870	3.7868	1.9639	6.44	0.45	0.750			
0.5046	32291.97	3.7840	3.7843	2.0103	6.42	0.43	0.750			
0.5106	32676.92	3.7810	3.7812	2.0974	6.40	0.41	0.750			
0.5171	33092.66	3.7780	3.7779	2.1162	6.37	0.38	0.750			
0.5236	33511.38	3.7750	3.7750	2.1260	6.34	0.35	0.750			
0.5299	33916.79	3.7720	3.7717	2.0999	6.32	0.33	0.750			
0.5360	34306.26	3.7690	3.7688	2.1171	6.30	0.31	0.750			
0.5424	34712.65	3.7660	3.7660	2.1985	6.27	0.28	0.750			
0.5490	35135.92	3.7630	3.7631	2.2537	6.24	0.25	0.750			
0.5561	35589.62	3.7600	3.7600	2.2965	6.21	0.22	0.750			
0.5630	36030.69	3.7570	3.7571	2.3182	6.17	0.18	0.750			
0.5699	36475.83	3.7540	3.7540	2.3536	6.16	0.17	0.750			
0.5770	36928.58	3.7510	3.7511	2.3939	6.15	0.16	0.750			
0.5843	37392.14	3.7480	3.7480	2.4163	6.12	0.13	0.750			
0.5914	37852.60	3.7450	3.7451	2.4746	6.10	0.11	0.750			
0.5990	38337.63	3.7420	3.7420	2.5362	6.08	0.09	0.750			
0.6067	38828.31	3.7390	3.7391	2.5976	6.05	0.06	0.750			
0.6146	39337.24	3.7360	3.7361	2.6896	6.03	0.04	0.750			
0.6229	39866.05	3.7330	3.7330	2.8355	6.01	0.02	0.750			
0.6318	40436.58	3.7300	3.7300	2.9725	6.00	0.01	0.750			
0.6410	41023.39	3.7270	3.7270	2.9864	5.98	-0.01	0.750			
0.6500	41601.03	3.7240	3.7240	2.9403	5.96	-0.03	0.750			
0.6586	42152.06	3.7210	3.7209	2.7497	5.95	-0.04	0.750			
0.6664	42652.62	3.7180	3.7181	2.5361	5.94	-0.05	0.750			
0.6739	43132.16	3.7150	3.7149	2.3372	5.93	-0.06	0.750			
0.6806	43555.76	3.7120	3.7123	2.1226	5.93	-0.06	0.750			
0.6867	43947.51	3.7090	3.7088	1.9040	5.93	-0.06	0.750			
0.6920	44287.35	3.7060	3.7061	1.6853	5.93	-0.06	0.750			
0.6967	44588.22	3.7030	3.7031	1.4864	5.93	-0.06	0.750			
0.7007	44843.29	3.7000	3.6998	1.3063	5.93	-0.06	0.750			
0.7043	45074.63	3.6970	3.6969	1.1473	5.93	-0.06	0.750			
0.7074	45275.31	3.6940	3.6940	1.0005	5.93	-0.06	0.750			
0.7101	45444.30	3.6910	3.6912	0.9164	5.93	-0.06	0.750			
0.7126	45609.33	3.6880	3.6883	0.8565	5.93	-0.06	0.750			
0.7150	45758.92	3.6850	3.6849	0.8022	5.93	-0.06	0.750			
0.7173	45906.80	3.6820	3.6821	0.7738	5.94	-0.05	0.750			
0.7196	46052.07	3.6790	3.6792	0.7402	5.94	-0.05	0.750			
0.7219	46198.59	3.6760	3.6760	0.7105	5.94	-0.05	0.750			
0.7240	46335.06	3.6730	3.6730	0.6643	5.95	-0.04	0.750			
0.7259	46457.80	3.6700	3.6700	0.6131	5.95	-0.04	0.750			
0.7277	46570.31	3.6670	3.6670	0.5656	5.96	-0.03	0.750			
0.7293	46674.81	3.6640	3.6641	0.5172	5.96	-0.03	0.750			
0.7308	46768.01	3.6610	3.6609	0.4678	5.97	-0.02	0.750			
0.7321	46853.60	3.6580	3.6580	0.4257	5.97	-0.02	0.750			
0.7333	46930.09	3.6550	3.6550	0.3820	5.97	-0.02	0.750			
0.7344	46998.74	3.6520	3.6519	0.3425	5.98	-0.01	0.750			
0.7353	47060.04	3.6490	3.6490	0.3049	5.98	-0.01	0.750			
0.7362	47113.63	3.6460	3.6461	0.2661	5.98	-0.01	0.750			
0.7369	47162.75	3.6430	3.6428	0.2304	5.98	-0.01	0.750			
0.7376	47203.66	3.6400	3.6399	0.1934	5.99	-0.00	0.750			
0.7381	47237.22	3.6370	3.6370	0.1558	5.99	-0.00	0.750			
0.7385	47264.09	3.6340	3.6344	0.1184	5.99	-0.00	0.750			
0.7388	47284.04	3.6310	3.6315	0.0789	5.99	0.00	0.750			
0.7390	47296.30	3.6280	3.6288	0.0346	5.99	0.00	0.750			
0.7390	47298.70	3.6250	3.6282	-0.0096	5.99	0.00	0.750			
