Ah_balance (normalized)	Ah_balance (mAh)	Voltage - fit (V)	Voltage -  interpolate (V)	dQ/dV (1/V)	Temperature (°C)	Temperature - diff (°C)	Current (C)	R_DC 0ms (mOhm)	R_DC 50ms (mOhm)	R_DC 50 ms PEC (mOhm)
0.1741	11142.21	4.0820	4.0820	0.7912	7.95	1.96	0.750			
0.1763	11286.30	4.0790	4.0791	0.7511	7.94	1.95	0.750			
0.1786	11430.73	4.0760	4.0760	0.7590	7.93	1.94	0.750			
0.1809	11576.93	4.0730	4.0730	0.7698	7.92	1.93	0.750			
0.1832	11724.72	4.0700	4.0700	0.7788	7.92	1.93	0.750			
0.1856	11877.24	4.0670	4.0670	0.7842	7.91	1.92	0.750			
0.1880	12029.43	4.0640	4.0640	0.7922	7.90	1.91	0.750			
0.1904	12183.84	4.0610	4.0611	0.7971	7.89	1.90	0.750			
0.1927	12335.32	4.0580	4.0579	0.7902	7.89	1.90	0.750			
0.1951	12487.39	4.0550	4.0549	0.7913	7.88	1.89	0.750			
0.1975	12639.04	4.0520	4.0521	0.7899	7.87	1.88	0.750			
0.1998	12789.50	4.0490	4.0490	0.7919	7.86	1.87	0.750			
0.2022	12941.71	4.0460	4.0460	0.7973	7.85	1.86	0.750			
0.2046	13092.65	4.0430	4.0430	0.8006	7.84	1.85	0.750			
0.2070	13248.25	4.0400	4.0398	0.8072	7.83	1.84	0.750			
0.2095	13405.49	4.0370	4.0370	0.8126	7.82	1.83	0.750			
0.2119	13561.85	4.0340	4.0340	0.8119	7.81	1.82	0.750			
0.2144	13718.61	4.0310	4.0311	0.8176	7.81	1.82	0.750			
0.2168	13874.19	4.0280	4.0280	0.8134	7.80	1.81	0.750			
0.2192	14031.26	4.0250	4.0248	0.8186	7.79	1.80	0.750			
0.2217	14188.07	4.0220	4.0221	0.8182	7.78	1.79	0.750			
0.2242	14346.50	4.0190	4.0190	0.8191	7.77	1.78	0.750			
0.2266	14504.02	4.0160	4.0160	0.8252	7.76	1.77	0.750			
0.2291	14660.39	4.0130	4.0131	0.8239	7.75	1.76	0.750			
0.2315	14819.18	4.0100	4.0098	0.8306	7.74	1.75	0.750			
0.2341	14979.32	4.0070	4.0070	0.8399	7.73	1.74	0.750			
0.2366	15141.74	4.0040	4.0041	0.8433	7.72	1.73	0.750			
0.2391	15305.15	4.0010	4.0010	0.8557	7.71	1.72	0.750			
0.2417	15469.24	3.9980	3.9980	0.8589	7.70	1.71	0.750			
0.2443	15635.77	3.9950	3.9948	0.8637	7.69	1.70	0.750			
0.2469	15802.75	3.9920	3.9921	0.8674	7.68	1.69	0.750			
0.2495	15970.65	3.9890	3.9890	0.8629	7.68	1.69	0.750			
0.2521	16134.95	3.9860	3.9860	0.8661	7.67	1.68	0.750			
0.2547	16299.44	3.9830	3.9831	0.8644	7.67	1.68	0.750			
0.2573	16465.06	3.9800	3.9799	0.8705	7.66	1.67	0.750			
0.2599	16633.53	3.9770	3.9770	0.8738	7.65	1.66	0.750			
0.2625	16801.86	3.9740	3.9741	0.8811	7.64	1.65	0.750			
0.2652	16972.86	3.9710	3.9711	0.8898	7.63	1.64	0.750			
0.2679	17144.43	3.9680	3.9680	0.8921	7.62	1.63	0.750			
0.2706	17315.58	3.9650	3.9649	0.8953	7.61	1.62	0.750			
0.2733	17488.49	3.9620	3.9621	0.8938	7.59	1.60	0.750			
0.2759	17660.43	3.9590	3.9591	0.9012	7.58	1.59	0.750			
0.2787	17833.65	3.9560	3.9560	0.9071	7.57	1.58	0.750			
0.2814	18007.96	3.9530	3.9529	0.9105	7.55	1.56	0.750			
0.2841	18181.72	3.9500	3.9500	0.9159	7.55	1.56	0.750			
0.2869	18358.81	3.9470	3.9470	0.9242	7.54	1.55	0.750			
0.2897	18538.80	3.9440	3.9440	0.9337	7.53	1.54	0.750			
0.2925	18719.07	3.9410	3.9410	0.9413	7.53	1.54	0.750			
0.2953	18898.28	3.9380	3.9380	0.9439	7.52	1.53	0.750			
0.2981	19081.35	3.9350	3.9350	0.9472	7.51	1.52	0.750			
0.3010	19262.99	3.9320	3.9320	0.9553	7.49	1.50	0.750			
0.3038	19446.02	3.9290	3.9291	0.9640	7.48	1.49	0.750			
0.3068	19632.58	3.9260	3.9259	0.9658	7.47	1.48	0.750			
0.3097	19820.49	3.9230	3.9230	0.9647	7.46	1.47	0.750			
0.3126	20004.91	3.9200	3.9201	0.9716	7.45	1.46	0.750			
0.3155	20190.51	3.9170	3.9170	0.9788	7.44	1.45	0.750			
0.3184	20377.67	3.9140	3.9140	0.9896	7.43	1.44	0.750			
0.3214	20568.42	3.9110	3.9110	0.9962	7.42	1.43	0.750			
0.3244	20760.19	3.9080	3.9080	1.0110	7.40	1.41	0.750			
0.3275	20957.50	3.9050	3.9051	1.0297	7.39	1.40	0.750			
0.3306	21157.12	3.9020	3.9020	1.0359	7.37	1.38	0.750			
0.3337	21359.28	3.8990	3.8990	1.0380	7.35	1.36	0.750			
0.3368	21556.81	3.8960	3.8961	1.0523	7.34	1.35	0.750			
0.3400	21760.15	3.8930	3.8930	1.0622	7.33	1.34	0.750			
0.3432	21966.06	3.8900	3.8900	1.0750	7.32	1.33	0.750			
0.3464	22167.61	3.8870	3.8871	1.0959	7.32	1.33	0.750			
0.3496	22376.06	3.8840	3.8841	1.1274	7.31	1.32	0.750			
0.3531	22599.61	3.8810	3.8809	1.1576	7.30	1.31	0.750			
0.3567	22829.82	3.8780	3.8777	1.1787	7.29	1.30	0.750			
0.3603	23058.86	3.8750	3.8752	1.1909	7.27	1.28	0.750			
0.3640	23293.31	3.8720	3.8722	1.1983	7.26	1.27	0.750			
0.3676	23527.26	3.8690	3.8689	1.1977	7.24	1.25	0.750			
0.3711	23752.05	3.8660	3.8659	1.1937	7.22	1.23	0.750			
0.3746	23971.52	3.8630	3.8631	1.1911	7.21	1.22	0.750			
0.3782	24202.52	3.8600	3.8600	1.2153	7.19	1.20	0.750			
0.3819	24439.05	3.8570	3.8569	1.2392	7.17	1.18	0.750			
0.3856	24678.15	3.8540	3.8540	1.2566	7.15	1.16	0.750			
0.3894	24922.61	3.8510	3.8510	1.2771	7.13	1.14	0.750			
0.3933	25168.76	3.8480	3.8480	1.3090	7.12	1.13	0.750			
0.3972	25418.30	3.8450	3.8450	1.3171	7.10	1.11	0.750			
0.4011	25669.59	3.8420	3.8420	1.3545	7.08	1.09	0.750			
0.4052	25932.50	3.8390	3.8390	1.3819	7.07	1.08	0.750			
0.4094	26202.66	3.8360	3.8363	1.4133	7.05	1.06	0.750	0.397	0.893	
0.4138	26480.01	3.8330	3.8331	1.4499	7.02	1.03	0.750			
0.4182	26764.72	3.8300	3.8300	1.4659	7.00	1.01	0.750			
0.4226	27046.07	3.8270	3.8269	1.4887	6.98	0.99	0.750			
0.4270	27328.27	3.8240	3.8242	1.5142	6.96	0.97	0.750			
0.4317	27626.80	3.8210	3.8208	1.5288	6.94	0.95	0.750			
0.4363	27920.37	3.8180	3.8178	1.5695	6.92	0.93	0.750			
0.4410	28225.72	3.8150	3.8152	1.5970	6.90	0.91	0.750			
0.4460	28542.28	3.8120	3.8119	1.6110	6.88	0.89	0.750			
0.4509	28855.10	3.8090	3.8093	1.6390	6.85	0.86	0.750			
0.4557	29164.74	3.8060	3.8061	1.6784	6.82	0.83	0.750			
0.4609	29496.48	3.8030	3.8026	1.7089	6.79	0.80	0.750			
0.4659	29816.30	3.8000	3.8000	1.7239	6.77	0.78	0.750			
0.4712	30157.27	3.7970	3.7970	1.7786	6.74	0.75	0.750			
0.4767	30506.98	3.7940	3.7939	1.8356	6.72	0.73	0.750			
0.4822	30859.52	3.7910	3.7908	1.8367	6.69	0.70	0.750			
0.4877	31212.04	3.7880	3.7881	1.8421	6.67	0.68	0.750			
0.4933	31572.62	3.7850	3.7849	1.8542	6.64	0.65	0.750			
0.4989	31932.65	3.7820	3.7819	1.8691	6.62	0.63	0.750			
0.5045	32285.28	3.7790	3.7790	1.9193	6.60	0.61	0.750			
0.5104	32665.36	3.7760	3.7757	1.9320	6.57	0.58	0.750			
0.5162	33039.85	3.7730	3.7734	1.9492	6.55	0.56	0.750			
0.5220	33410.77	3.7700	3.7700	1.9724	6.52	0.53	0.750			
0.5279	33788.17	3.7670	3.7670	1.9672	6.49	0.50	0.750			
0.5338	34165.68	3.7640	3.7640	1.9869	6.46	0.47	0.750			
0.5400	34560.59	3.7610	3.7612	2.0135	6.43	0.44	0.750			
0.5460	34942.28	3.7580	3.7580	1.9973	6.40	0.41	0.750			
0.5519	35323.36	3.7550	3.7550	2.0618	6.37	0.38	0.750			
0.5582	35721.86	3.7520	3.7519	2.1259	6.34	0.35	0.750			
0.5646	36137.22	3.7490	3.7491	2.1948	6.31	0.32	0.750			
0.5714	36570.13	3.7460	3.7460	2.2222	6.28	0.29	0.750			
0.5780	36989.73	3.7430	3.7429	2.2726	6.26	0.27	0.750			
0.5849	37434.33	3.7400	3.7398	2.3497	6.23	0.24	0.750			
0.5921	37894.62	3.7370	3.7372	2.3935	6.20	0.21	0.750			
0.5995	38365.41	3.7340	3.7340	2.5210	6.17	0.18	0.750			
0.6070	38848.91	3.7310	3.7308	2.4937	6.15	0.16	0.750			
0.6149	39355.22	3.7280	3.7281	2.5594	6.12	0.13	0.750			
0.6226	39848.88	3.7250	3.7248	2.4736	6.09	0.10	0.750			
0.6297	40302.16	3.7220	3.7219	2.3235	6.08	0.09	0.750			
0.6365	40737.43	3.7190	3.7189	2.2149	6.05	0.06	0.750			
0.6429	41143.16	3.7160	3.7161	2.0294	6.03	0.04	0.750			
0.6491	41541.16	3.7130	3.7130	1.8975	6.01	0.02	0.750			
0.6545	41887.17	3.7100	3.7102	1.7010	6.00	0.01	0.750			
0.6591	42181.70	3.7070	3.7070	1.5163	5.99	-0.00	0.750			
0.6633	42450.86	3.7040	3.7041	1.3631	5.98	-0.01	0.750			
0.6671	42693.64	3.7010	3.7010	1.2382	5.97	-0.02	0.750			
0.6706	42920.15	3.6980	3.6979	1.1438	5.97	-0.02	0.750			
0.6738	43125.45	3.6950	3.6951	1.0658	5.96	-0.03	0.750			
0.6769	43319.07	3.6920	3.6921	1.0079	5.96	-0.03	0.750			
0.6798	43505.26	3.6890	3.6890	0.9718	5.95	-0.04	0.750			
0.6825	43682.66	3.6860	3.6860	0.9266	5.95	-0.04	0.750			
0.6853	43859.37	3.6830	3.6831	0.8971	5.95	-0.04	0.750			
0.6880	44031.10	3.6800	3.6800	0.8761	5.95	-0.04	0.750			
0.6906	44197.83	3.6770	3.6771	0.8473	5.95	-0.04	0.750			
0.6931	44356.34	3.6740	3.6740	0.8148	5.95	-0.04	0.750			
0.6955	44510.03	3.6710	3.6710	0.7851	5.95	-0.04	0.750			
0.6978	44658.33	3.6680	3.6680	0.7563	5.96	-0.03	0.750			
0.7000	44802.37	3.6650	3.6650	0.7233	5.96	-0.03	0.750			
0.7022	44938.00	3.6620	3.6621	0.6956	5.96	-0.03	0.750			
0.7042	45067.17	3.6590	3.6590	0.6640	5.97	-0.02	0.750			
0.7061	45191.88	3.6560	3.6560	0.6369	5.97	-0.02	0.750			
0.7080	45311.26	3.6530	3.6531	0.6064	5.97	-0.02	0.750			
0.7098	45425.79	3.6500	3.6500	0.5781	5.97	-0.02	0.750			
0.7115	45534.54	3.6470	3.6471	0.5463	5.98	-0.01	0.750			
0.7131	45638.03	3.6440	3.6439	0.5164	5.98	-0.01	0.750			
0.7146	45732.07	3.6410	3.6411	0.4827	5.98	-0.01	0.750			
0.7160	45821.59	3.6380	3.6380	0.4522	5.98	-0.01	0.750			
0.7173	45905.64	3.6350	3.6349	0.4167	5.99	-0.00	0.750			
0.7185	45983.77	3.6320	3.6319	0.3798	5.99	-0.00	0.750			
0.7196	46053.78	3.6290	3.6292	0.3433	5.99	0.00	0.750			
0.7206	46116.10	3.6260	3.6259	0.3029	5.99	0.00	0.750			
0.7214	46170.36	3.6230	3.6228	0.2609	5.99	0.00	0.750			
0.7221	46216.07	3.6200	3.6201	0.2179	5.99	0.00	0.750			
0.7227	46253.33	3.6170	3.6171	0.1759	6.00	0.01	0.750			
0.7232	46285.72	3.6140	3.6141	0.1385	6.00	0.01	0.750			
0.7236	46309.18	3.6110	3.6111	0.0952	6.00	0.01	0.750			
0.7238	46322.93	3.6080	3.6074	0.0503	6.00	0.01	0.750			
0.7238	46325.04	3.6020	3.6060	-0.0393	6.00	0.01	0.750			
0.7239	46328.29	3.6050	3.5990	0.0055	6.00	0.01	0.749			
