Ah_balance (normalized)	Ah_balance (mAh)	Voltage - fit (V)	Voltage -  interpolate (V)	dQ/dV (1/V)	Temperature (°C)	Temperature - diff (°C)	Current (C)	R_DC 0ms (mOhm)	R_DC 50ms (mOhm)	R_DC 50 ms PEC (mOhm)
0.0955	6114.32	4.0040	4.0034	-0.0787	5.97	0.02	-0.750			
0.0958	6132.29	4.0010	4.0007	-0.1085	5.97	0.02	-0.750			
0.0962	6156.90	3.9980	3.9980	-0.1365	5.97	0.02	-0.750			
0.0967	6185.67	3.9950	3.9949	-0.1640	5.96	0.01	-0.750			
0.0972	6220.01	3.9920	3.9921	-0.1903	5.96	0.01	-0.750			
0.0978	6259.59	3.9890	3.9891	-0.2131	5.96	0.01	-0.750			
0.0985	6304.16	3.9860	3.9860	-0.2372	5.96	0.01	-0.750			
0.0993	6352.01	3.9830	3.9831	-0.2603	5.96	0.01	-0.750			
0.1001	6404.26	3.9800	3.9800	-0.2814	5.96	0.01	-0.750			
0.1009	6459.95	3.9770	3.9769	-0.3050	5.96	0.01	-0.750			
0.1019	6520.24	3.9740	3.9740	-0.3282	5.96	0.01	-0.750			
0.1029	6585.51	3.9710	3.9711	-0.3529	5.95	0.00	-0.750			
0.1040	6655.81	3.9680	3.9680	-0.3794	5.95	0.00	-0.750			
0.1052	6731.20	3.9650	3.9649	-0.4049	5.95	0.00	-0.750			
0.1064	6811.69	3.9620	3.9619	-0.4276	5.95	-0.00	-0.750			
0.1078	6896.80	3.9590	3.9590	-0.4503	5.95	-0.00	-0.750			
0.1091	6985.10	3.9560	3.9560	-0.4730	5.94	-0.01	-0.750			
0.1106	7078.58	3.9530	3.9530	-0.4935	5.94	-0.01	-0.750			
0.1121	7175.05	3.9500	3.9501	-0.5152	5.94	-0.01	-0.750			
0.1137	7276.40	3.9470	3.9470	-0.5307	5.94	-0.01	-0.750			
0.1153	7379.92	3.9440	3.9439	-0.5527	5.93	-0.02	-0.750			
0.1170	7488.90	3.9410	3.9410	-0.5704	5.93	-0.02	-0.750			
0.1187	7599.98	3.9380	3.9380	-0.5857	5.93	-0.02	-0.750			
0.1205	7715.13	3.9350	3.9350	-0.5974	5.93	-0.02	-0.750			
0.1224	7831.93	3.9320	3.9321	-0.6102	5.92	-0.03	-0.750			
0.1242	7949.41	3.9290	3.9290	-0.6241	5.92	-0.03	-0.750			
0.1261	8072.40	3.9260	3.9259	-0.6335	5.92	-0.03	-0.750			
0.1280	8192.77	3.9230	3.9230	-0.6403	5.91	-0.04	-0.750			
0.1300	8317.60	3.9200	3.9200	-0.6534	5.91	-0.04	-0.750			
0.1319	8444.73	3.9170	3.9170	-0.6635	5.91	-0.04	-0.750			
0.1340	8573.47	3.9140	3.9139	-0.6725	5.91	-0.04	-0.750			
0.1360	8702.28	3.9110	3.9110	-0.6807	5.91	-0.04	-0.750			
0.1380	8833.83	3.9080	3.9081	-0.6848	5.92	-0.03	-0.750			
0.1401	8968.33	3.9050	3.9049	-0.6958	5.92	-0.03	-0.750			
0.1422	9101.22	3.9020	3.9020	-0.6985	5.92	-0.03	-0.750			
0.1443	9235.81	3.8990	3.8989	-0.7037	5.92	-0.03	-0.750			
0.1464	9371.60	3.8960	3.8960	-0.7090	5.92	-0.03	-0.750			
0.1486	9508.77	3.8930	3.8930	-0.7173	5.92	-0.03	-0.750			
0.1508	9648.00	3.8900	3.8899	-0.7197	5.91	-0.04	-0.750			
0.1529	9787.62	3.8870	3.8870	-0.7239	5.91	-0.04	-0.750			
0.1551	9926.86	3.8840	3.8842	-0.7234	5.91	-0.04	-0.750			
0.1573	10065.67	3.8810	3.8809	-0.7239	5.91	-0.04	-0.750			
0.1594	10203.71	3.8780	3.8780	-0.7266	5.92	-0.03	-0.750			
0.1616	10343.32	3.8750	3.8750	-0.7293	5.92	-0.03	-0.750			
0.1638	10482.69	3.8720	3.8720	-0.7287	5.92	-0.03	-0.750			
0.1660	10625.88	3.8690	3.8690	-0.7352	5.93	-0.02	-0.750			
0.1682	10766.74	3.8660	3.8662	-0.7329	5.93	-0.02	-0.750			
0.1704	10908.77	3.8630	3.8629	-0.7326	5.93	-0.02	-0.750			
0.1726	11047.13	3.8600	3.8601	-0.7380	5.94	-0.01	-0.750			
0.1748	11188.07	3.8570	3.8570	-0.7355	5.94	-0.01	-0.750			
0.1771	11331.45	3.8540	3.8540	-0.7443	5.94	-0.01	-0.750			
0.1793	11473.97	3.8510	3.8509	-0.7444	5.95	-0.00	-0.750			
0.1815	11617.47	3.8480	3.8481	-0.7482	5.95	0.00	-0.750			
0.1838	11761.97	3.8450	3.8449	-0.7478	5.96	0.01	-0.750			
0.1860	11905.03	3.8420	3.8419	-0.7514	5.96	0.01	-0.750			
0.1883	12048.06	3.8390	3.8391	-0.7492	5.96	0.01	-0.750			
0.1905	12194.63	3.8360	3.8359	-0.7517	5.97	0.02	-0.750			
0.1928	12339.16	3.8330	3.8331	-0.7504	5.97	0.02	-0.750			
0.1950	12483.01	3.8300	3.8299	-0.7505	5.97	0.02	-0.750			
0.1973	12625.52	3.8270	3.8270	-0.7516	5.98	0.03	-0.750			
0.1995	12771.16	3.8240	3.8239	-0.7566	5.98	0.03	-0.750			
0.2018	12915.47	3.8210	3.8209	-0.7540	5.98	0.03	-0.750			
0.2041	13063.76	3.8180	3.8180	-0.7578	5.99	0.04	-0.750			
0.2064	13209.69	3.8150	3.8152	-0.7540	5.99	0.04	-0.750			
0.2087	13354.19	3.8120	3.8119	-0.7539	5.99	0.04	-0.750			
0.2109	13497.55	3.8090	3.8089	-0.7549	6.00	0.05	-0.750			
0.2131	13639.63	3.8060	3.8061	-0.7507	6.00	0.05	-0.750			
0.2154	13786.47	3.8030	3.8030	-0.7565	6.01	0.06	-0.750			
0.2177	13933.59	3.8000	3.7999	-0.7585	6.01	0.06	-0.750			
0.2200	14078.60	3.7970	3.7970	-0.7579	6.01	0.06	-0.750			
0.2222	14223.12	3.7940	3.7941	-0.7591	6.02	0.07	-0.750			
0.2245	14367.72	3.7910	3.7909	-0.7599	6.02	0.07	-0.750			
0.2268	14514.14	3.7880	3.7879	-0.7606	6.02	0.07	-0.750			
0.2291	14662.19	3.7850	3.7850	-0.7626	6.03	0.08	-0.750			
0.2314	14809.43	3.7820	3.7822	-0.7572	6.03	0.08	-0.750			
0.2337	14955.55	3.7790	3.7790	-0.7604	6.04	0.09	-0.750			
0.2359	15100.28	3.7760	3.7760	-0.7641	6.04	0.09	-0.750			
0.2382	15245.89	3.7730	3.7729	-0.7596	6.05	0.10	-0.750			
0.2405	15392.02	3.7700	3.7699	-0.7634	6.05	0.10	-0.750			
0.2428	15539.47	3.7670	3.7672	-0.7707	6.06	0.11	-0.750			
0.2451	15688.89	3.7640	3.7639	-0.7684	6.06	0.11	-0.750			
0.2475	15836.86	3.7610	3.7610	-0.7732	6.07	0.12	-0.750			
0.2497	15982.81	3.7580	3.7581	-0.7728	6.07	0.12	-0.750			
0.2521	16132.03	3.7550	3.7550	-0.7830	6.07	0.12	-0.750			
0.2544	16283.35	3.7520	3.7519	-0.7852	6.08	0.13	-0.750			
0.2568	16433.10	3.7490	3.7491	-0.7882	6.08	0.13	-0.750			
0.2591	16583.54	3.7460	3.7461	-0.7957	6.09	0.14	-0.750			
0.2616	16739.60	3.7430	3.7429	-0.7984	6.09	0.14	-0.750			
0.2639	16892.22	3.7400	3.7400	-0.7985	6.10	0.15	-0.750			
0.2664	17046.94	3.7370	3.7369	-0.8017	6.11	0.16	-0.750			
0.2688	17202.42	3.7340	3.7341	-0.7982	6.11	0.16	-0.750			
0.2712	17355.81	3.7310	3.7309	-0.8005	6.11	0.16	-0.750			
0.2735	17506.48	3.7280	3.7281	-0.8118	6.12	0.17	-0.750			
0.2760	17663.08	3.7250	3.7250	-0.8127	6.12	0.17	-0.750			
0.2785	17822.49	3.7220	3.7218	-0.8244	6.13	0.18	-0.750			
0.2810	17981.79	3.7190	3.7193	-0.8267	6.13	0.18	-0.750			
0.2835	18141.08	3.7160	3.7160	-0.8333	6.13	0.18	-0.750			
0.2860	18302.69	3.7130	3.7129	-0.8413	6.13	0.18	-0.750			
0.2885	18461.50	3.7100	3.7100	-0.8400	6.14	0.19	-0.750			
0.2910	18623.58	3.7070	3.7069	-0.8505	6.14	0.19	-0.750			
0.2936	18788.27	3.7040	3.7041	-0.8594	6.14	0.19	-0.750			
0.2961	18953.07	3.7010	3.7010	-0.8692	6.14	0.19	-0.750			
0.2988	19121.07	3.6980	3.6980	-0.8782	6.15	0.20	-0.750			
0.3014	19291.14	3.6950	3.6950	-0.8813	6.15	0.20	-0.750			
0.3041	19461.65	3.6920	3.6919	-0.8933	6.16	0.21	-0.750			
0.3068	19634.55	3.6890	3.6891	-0.8981	6.16	0.21	-0.750			
0.3095	19806.58	3.6860	3.6860	-0.9122	6.16	0.21	-0.750			
0.3122	19983.05	3.6830	3.6830	-0.9209	6.17	0.22	-0.750			
0.3150	20160.43	3.6800	3.6799	-0.9264	6.17	0.22	-0.750			
0.3178	20341.72	3.6770	3.6772	-0.9271	6.17	0.22	-0.750			
0.3206	20520.60	3.6740	3.6740	-0.9473	6.17	0.22	-0.750			
0.3234	20700.43	3.6710	3.6710	-0.9560	6.18	0.23	-0.750			
0.3263	20884.81	3.6680	3.6678	-0.9641	6.18	0.23	-0.750			
0.3292	21070.01	3.6650	3.6649	-0.9703	6.19	0.24	-0.750			
0.3322	21260.42	3.6620	3.6619	-0.9865	6.19	0.24	-0.750			
0.3352	21451.77	3.6590	3.6590	-0.9983	6.19	0.24	-0.750			
0.3382	21646.76	3.6560	3.6559	-1.0067	6.20	0.25	-0.750			
0.3411	21829.53	3.6530	3.6531	-1.0298	6.20	0.25	-0.750			
0.3442	22029.69	3.6500	3.6500	-1.0720	6.20	0.25	-0.750			
0.3475	22242.38	3.6470	3.6468	-1.1145	6.20	0.25	-0.750			
0.3510	22465.64	3.6440	3.6437	-1.1261	6.21	0.26	-0.750			
0.3546	22691.74	3.6410	3.6412	-1.1353	6.21	0.26	-0.750			
0.3580	22914.47	3.6380	3.6380	-1.1376	6.21	0.26	-0.750			
0.3615	23133.94	3.6350	3.6350	-1.1238	6.21	0.26	-0.750			
0.3647	23339.24	3.6320	3.6319	-1.1094	6.21	0.26	-0.750			
0.3679	23544.53	3.6290	3.6291	-1.1066	6.21	0.26	-0.750			
0.3713	23761.64	3.6260	3.6260	-1.1198	6.22	0.27	-0.750			
0.3747	23979.77	3.6230	3.6230	-1.1288	6.22	0.27	-0.750			
0.3781	24198.89	3.6200	3.6200	-1.1411	6.23	0.28	-0.750			
0.3815	24416.01	3.6170	3.6171	-1.1466	6.23	0.28	-0.750			
0.3850	24636.94	3.6140	3.6139	-1.1549	6.24	0.29	-0.750			
0.3884	24859.20	3.6110	3.6109	-1.1632	6.24	0.29	-0.750			
0.3919	25081.90	3.6080	3.6080	-1.1707	6.25	0.30	-0.750			
0.3955	25312.23	3.6050	3.6050	-1.1973	6.25	0.30	-0.750			
0.3991	25541.50	3.6020	3.6020	-1.2128	6.25	0.30	-0.750			
0.4028	25778.00	3.5990	3.5988	-1.2120	6.25	0.30	-0.750			
0.4064	26009.56	3.5960	3.5962	-1.2226	6.25	0.30	-0.750			
0.4101	26247.39	3.5930	3.5929	-1.2339	6.26	0.31	-0.750			
0.4138	26483.75	3.5900	3.5899	-1.2434	6.26	0.31	-0.750	0.469	1.080	
0.4175	26721.72	3.5870	3.5870	-1.2540	6.27	0.32	-0.750			
0.4213	26965.93	3.5840	3.5840	-1.2687	6.27	0.32	-0.750			
0.4251	27208.54	3.5810	3.5810	-1.2768	6.27	0.32	-0.750			
0.4290	27457.81	3.5780	3.5781	-1.3063	6.27	0.32	-0.750			
0.4329	27708.53	3.5750	3.5749	-1.3120	6.27	0.32	-0.750			
0.4369	27963.87	3.5720	3.5719	-1.3260	6.27	0.32	-0.750			
0.4409	28216.54	3.5690	3.5690	-1.3478	6.27	0.32	-0.750			
0.4450	28476.82	3.5660	3.5661	-1.3582	6.27	0.32	-0.750			
0.4491	28743.04	3.5630	3.5629	-1.3758	6.28	0.33	-0.750			
0.4532	29006.86	3.5600	3.5599	-1.3871	6.29	0.34	-0.750			
0.4574	29272.68	3.5570	3.5570	-1.3960	6.29	0.34	-0.750			
0.4616	29544.34	3.5540	3.5540	-1.4169	6.29	0.34	-0.750			
0.4659	29817.55	3.5510	3.5509	-1.4345	6.30	0.35	-0.750			
0.4702	30092.91	3.5480	3.5480	-1.4401	6.30	0.35	-0.750			
0.4746	30375.39	3.5450	3.5450	-1.4622	6.31	0.36	-0.750			
0.4790	30657.78	3.5420	3.5420	-1.4790	6.31	0.36	-0.750			
0.4835	30941.98	3.5390	3.5389	-1.4834	6.31	0.36	-0.750			
0.4880	31230.12	3.5360	3.5359	-1.5026	6.32	0.37	-0.750			
0.4925	31518.68	3.5330	3.5330	-1.5178	6.32	0.37	-0.750			
0.4971	31813.35	3.5300	3.5299	-1.5183	6.32	0.37	-0.750			
0.5017	32110.14	3.5270	3.5272	-1.5387	6.33	0.38	-0.750			
0.5063	32404.52	3.5240	3.5242	-1.5415	6.33	0.38	-0.750			
0.5109	32696.96	3.5210	3.5210	-1.5548	6.34	0.39	-0.750			
0.5156	32998.00	3.5180	3.5179	-1.5812	6.35	0.40	-0.750			
0.5204	33302.69	3.5150	3.5149	-1.5674	6.35	0.40	-0.750			
0.5251	33605.34	3.5120	3.5120	-1.5738	6.36	0.41	-0.750			
0.5298	33908.85	3.5090	3.5088	-1.5806	6.36	0.41	-0.750			
0.5346	34211.65	3.5060	3.5059	-1.5835	6.36	0.41	-0.750			
0.5393	34516.54	3.5030	3.5028	-1.5781	6.37	0.42	-0.750			
0.5440	34818.17	3.5000	3.5001	-1.5655	6.37	0.42	-0.750			
0.5488	35124.42	3.4970	3.4972	-1.5692	6.38	0.43	-0.750			
0.5534	35420.78	3.4940	3.4940	-1.5658	6.39	0.44	-0.750			
0.5581	35718.39	3.4910	3.4910	-1.5659	6.40	0.45	-0.750			
0.5628	36020.05	3.4880	3.4879	-1.5783	6.41	0.46	-0.750			
0.5676	36328.02	3.4850	3.4852	-1.5740	6.42	0.47	-0.750			
0.5724	36632.07	3.4820	3.4821	-1.5669	6.43	0.48	-0.750			
0.5771	36934.26	3.4790	3.4789	-1.5519	6.44	0.49	-0.750			
0.5817	37231.46	3.4760	3.4759	-1.5306	6.45	0.50	-0.750			
0.5863	37520.39	3.4730	3.4731	-1.5015	6.46	0.51	-0.750			
0.5907	37804.57	3.4700	3.4700	-1.5024	6.47	0.52	-0.750			
0.5952	38091.38	3.4670	3.4670	-1.5055	6.48	0.53	-0.750			
0.5998	38386.36	3.4640	3.4638	-1.4978	6.49	0.54	-0.750			
0.6043	38674.44	3.4610	3.4610	-1.4911	6.50	0.55	-0.750			
0.6088	38960.92	3.4580	3.4579	-1.4764	6.51	0.56	-0.750			
0.6132	39245.37	3.4550	3.4550	-1.4579	6.53	0.58	-0.750			
0.6175	39521.44	3.4520	3.4522	-1.4382	6.55	0.60	-0.750			
0.6217	39790.54	3.4490	3.4489	-1.4143	6.56	0.61	-0.750			
0.6260	40062.75	3.4460	3.4459	-1.3951	6.56	0.61	-0.750			
0.6302	40331.59	3.4430	3.4432	-1.3857	6.57	0.62	-0.750			
0.6343	40594.67	3.4400	3.4400	-1.3606	6.58	0.63	-0.750			
0.6384	40859.09	3.4370	3.4369	-1.3428	6.60	0.65	-0.750			
0.6424	41113.73	3.4340	3.4341	-1.3245	6.61	0.66	-0.750			
0.6463	41363.85	3.4310	3.4309	-1.2899	6.62	0.67	-0.750			
0.6502	41611.91	3.4280	3.4280	-1.2697	6.64	0.69	-0.750			
0.6540	41853.05	3.4250	3.4250	-1.2434	6.65	0.70	-0.750			
0.6576	42087.09	3.4220	3.4218	-1.2165	6.67	0.72	-0.750			
0.6613	42322.34	3.4190	3.4190	-1.1927	6.68	0.73	-0.750			
0.6648	42548.01	3.4160	3.4159	-1.1622	6.70	0.75	-0.750			
0.6682	42767.09	3.4130	3.4132	-1.1366	6.71	0.76	-0.750			
0.6717	42985.81	3.4100	3.4100	-1.1134	6.73	0.78	-0.750			
0.6749	43194.09	3.4070	3.4069	-1.0884	6.74	0.79	-0.750			
0.6781	43401.12	3.4040	3.4040	-1.0653	6.76	0.81	-0.750			
0.6813	43604.44	3.4010	3.4010	-1.0397	6.77	0.82	-0.750			
0.6844	43801.98	3.3980	3.3981	-1.0122	6.79	0.84	-0.750			
0.6874	43993.49	3.3950	3.3950	-0.9857	6.80	0.85	-0.750			
0.6903	44179.59	3.3920	3.3918	-0.9559	6.82	0.87	-0.750			
0.6931	44360.16	3.3890	3.3892	-0.9295	6.83	0.88	-0.750			
0.6958	44534.17	3.3860	3.3859	-0.9038	6.84	0.89	-0.750			
0.6985	44706.92	3.3830	3.3831	-0.8814	6.86	0.91	-0.750			
0.7012	44873.89	3.3800	3.3800	-0.8596	6.87	0.92	-0.750			
0.7037	45036.75	3.3770	3.3769	-0.8383	6.88	0.93	-0.750			
0.7062	45194.53	3.3740	3.3741	-0.8114	6.89	0.94	-0.750			
0.7086	45348.21	3.3710	3.3710	-0.7900	6.90	0.95	-0.750			
0.7109	45497.24	3.3680	3.3680	-0.7682	6.92	0.97	-0.750			
0.7132	45642.80	3.3650	3.3649	-0.7437	6.93	0.98	-0.750			
0.7154	45782.85	3.3620	3.3620	-0.7272	6.94	0.99	-0.750			
0.7175	45920.05	3.3590	3.3590	-0.7077	6.95	1.00	-0.750			
0.7196	46053.53	3.3560	3.3559	-0.6929	6.96	1.01	-0.750			
0.7216	46185.09	3.3530	3.3529	-0.6786	6.97	1.02	-0.750			
0.7236	46312.86	3.3500	3.3501	-0.6717	6.98	1.03	-0.750			
0.7257	46441.76	3.3470	3.3470	-0.6781	6.99	1.04	-0.750			
