Ah_balance (normalized)	Ah_balance (mAh)	Voltage - fit (V)	Voltage -  interpolate (V)	dQ/dV (1/V)	Temperature (°C)	Temperature - diff (°C)	Current (C)	R_DC 0ms (mOhm)	R_DC 50ms (mOhm)	R_DC 50 ms PEC (mOhm)
0.0916	5863.88	4.0030	4.0026	-0.0535	5.98	0.01	-0.750			
0.0918	5877.96	4.0000	3.9996	-0.0857	5.98	0.01	-0.750			
0.0922	5898.43	3.9970	3.9967	-0.1127	5.98	0.01	-0.750			
0.0925	5922.63	3.9940	3.9940	-0.1363	5.98	0.01	-0.750			
0.0930	5950.27	3.9910	3.9911	-0.1627	5.98	0.01	-0.750			
0.0935	5983.76	3.9880	3.9882	-0.1894	5.98	0.01	-0.750			
0.0941	6023.00	3.9850	3.9850	-0.2132	5.98	0.01	-0.750			
0.0948	6065.55	3.9820	3.9818	-0.2387	5.98	0.01	-0.750			
0.0955	6115.17	3.9790	3.9792	-0.2606	5.97	0.00	-0.750			
0.0964	6167.30	3.9760	3.9761	-0.2869	5.97	0.00	-0.750			
0.0973	6224.60	3.9730	3.9729	-0.3155	5.97	0.00	-0.750			
0.0982	6287.61	3.9700	3.9701	-0.3399	5.97	-0.00	-0.750			
0.0993	6354.79	3.9670	3.9667	-0.3626	5.97	-0.00	-0.750			
0.1004	6427.83	3.9640	3.9641	-0.3864	5.97	-0.00	-0.750			
0.1017	6506.02	3.9610	3.9611	-0.4052	5.96	-0.01	-0.750			
0.1029	6586.90	3.9580	3.9580	-0.4230	5.96	-0.01	-0.750			
0.1042	6668.42	3.9550	3.9552	-0.4384	5.96	-0.01	-0.750			
0.1055	6754.18	3.9520	3.9519	-0.4536	5.96	-0.01	-0.750			
0.1070	6844.97	3.9490	3.9490	-0.4638	5.96	-0.01	-0.750			
0.1083	6934.06	3.9460	3.9460	-0.4787	5.95	-0.02	-0.750			
0.1098	7025.66	3.9430	3.9430	-0.5055	5.95	-0.02	-0.750			
0.1113	7124.07	3.9400	3.9401	-0.5308	5.95	-0.02	-0.750			
0.1129	7228.54	3.9370	3.9367	-0.5481	5.95	-0.02	-0.750			
0.1146	7336.46	3.9340	3.9343	-0.5664	5.95	-0.02	-0.750			
0.1164	7448.62	3.9310	3.9311	-0.5889	5.95	-0.02	-0.750			
0.1182	7563.57	3.9280	3.9280	-0.6026	5.94	-0.03	-0.750			
0.1200	7677.32	3.9250	3.9250	-0.6210	5.94	-0.03	-0.750			
0.1219	7802.00	3.9220	3.9217	-0.6178	5.94	-0.03	-0.750			
0.1238	7925.65	3.9190	3.9184	-0.6172	5.94	-0.03	-0.750			
0.1257	8045.42	3.9160	3.9165	-0.6130	5.94	-0.03	-0.750			
0.1276	8163.92	3.9130	3.9136	-0.6075	5.94	-0.03	-0.750			
0.1293	8274.86	3.9100	3.9096	-0.6011	5.95	-0.02	-0.750			
0.1311	8389.49	3.9070	3.9067	-0.6102	5.95	-0.02	-0.750			
0.1328	8497.76	3.9040	3.9042	-0.6087	5.95	-0.02	-0.750			
0.1347	8620.97	3.9010	3.9009	-0.6353	5.95	-0.02	-0.750			
0.1367	8749.02	3.8980	3.8979	-0.6517	5.95	-0.02	-0.750			
0.1387	8875.05	3.8950	3.8950	-0.6550	5.95	-0.02	-0.750			
0.1406	9000.41	3.8920	3.8922	-0.6666	5.95	-0.02	-0.750			
0.1427	9129.67	3.8890	3.8890	-0.6698	5.95	-0.02	-0.750			
0.1447	9257.67	3.8860	3.8859	-0.6754	5.95	-0.02	-0.750			
0.1467	9389.44	3.8830	3.8830	-0.6805	5.95	-0.02	-0.750			
0.1488	9520.24	3.8800	3.8800	-0.6821	5.95	-0.02	-0.750			
0.1508	9653.04	3.8770	3.8770	-0.6865	5.95	-0.02	-0.750			
0.1529	9784.06	3.8740	3.8740	-0.6948	5.96	-0.01	-0.750			
0.1550	9916.94	3.8710	3.8710	-0.6885	5.96	-0.01	-0.750			
0.1571	10051.50	3.8680	3.8679	-0.6914	5.96	-0.01	-0.750			
0.1591	10184.32	3.8650	3.8649	-0.6857	5.97	-0.00	-0.750			
0.1612	10316.65	3.8620	3.8619	-0.6830	5.97	0.00	-0.750			
0.1632	10446.18	3.8590	3.8590	-0.6863	5.98	0.01	-0.750			
0.1652	10575.08	3.8560	3.8560	-0.6956	5.99	0.02	-0.750			
0.1673	10707.35	3.8530	3.8529	-0.6904	5.99	0.02	-0.750			
0.1694	10844.59	3.8500	3.8500	-0.6983	6.00	0.03	-0.750			
0.1715	10978.80	3.8470	3.8470	-0.7006	6.01	0.04	-0.750			
0.1737	11114.36	3.8440	3.8437	-0.7017	6.01	0.04	-0.750			
0.1758	11248.83	3.8410	3.8409	-0.7002	6.01	0.04	-0.750			
0.1778	11380.54	3.8380	3.8381	-0.7044	6.02	0.05	-0.750			
0.1799	11515.57	3.8350	3.8350	-0.6984	6.02	0.05	-0.750			
0.1821	11653.69	3.8320	3.8320	-0.7027	6.02	0.05	-0.750			
0.1842	11786.41	3.8290	3.8290	-0.7028	6.03	0.06	-0.750			
0.1862	11919.80	3.8260	3.8258	-0.7032	6.03	0.06	-0.750			
0.1884	12054.92	3.8230	3.8230	-0.7052	6.04	0.07	-0.750			
0.1905	12190.40	3.8200	3.8197	-0.7109	6.05	0.08	-0.750			
0.1926	12326.09	3.8170	3.8172	-0.7155	6.05	0.08	-0.750			
0.1948	12467.56	3.8140	3.8140	-0.7225	6.06	0.09	-0.750			
0.1970	12607.17	3.8110	3.8108	-0.7220	6.07	0.10	-0.750			
0.1991	12745.07	3.8080	3.8079	-0.7208	6.07	0.10	-0.750			
0.2013	12882.78	3.8050	3.8050	-0.7168	6.08	0.11	-0.750			
0.2034	13020.29	3.8020	3.8020	-0.7176	6.09	0.12	-0.750			
0.2056	13157.53	3.7990	3.7989	-0.7113	6.09	0.12	-0.750			
0.2077	13294.07	3.7960	3.7961	-0.7120	6.10	0.13	-0.750			
0.2099	13430.84	3.7930	3.7928	-0.7144	6.11	0.14	-0.750			
0.2120	13566.35	3.7900	3.7899	-0.7246	6.12	0.15	-0.750			
0.2142	13706.05	3.7870	3.7869	-0.7287	6.12	0.15	-0.750			
0.2164	13848.34	3.7840	3.7839	-0.7288	6.13	0.16	-0.750			
0.2186	13991.25	3.7810	3.7811	-0.7322	6.14	0.17	-0.750			
0.2208	14131.48	3.7780	3.7781	-0.7272	6.14	0.17	-0.750			
0.2229	14268.51	3.7750	3.7751	-0.7307	6.15	0.18	-0.750			
0.2251	14405.93	3.7720	3.7720	-0.7290	6.16	0.19	-0.750			
0.2272	14542.95	3.7690	3.7688	-0.7437	6.17	0.20	-0.750			
0.2295	14690.04	3.7660	3.7661	-0.7481	6.18	0.21	-0.750			
0.2318	14836.95	3.7630	3.7628	-0.7585	6.19	0.22	-0.750			
0.2341	14982.07	3.7600	3.7600	-0.7624	6.19	0.22	-0.750			
0.2364	15129.17	3.7570	3.7570	-0.7633	6.20	0.23	-0.750			
0.2387	15275.75	3.7540	3.7539	-0.7589	6.21	0.24	-0.750			
0.2410	15423.49	3.7510	3.7510	-0.7711	6.22	0.25	-0.750			
0.2433	15568.82	3.7480	3.7481	-0.7706	6.23	0.26	-0.750			
0.2456	15719.49	3.7450	3.7450	-0.7827	6.23	0.26	-0.750			
0.2480	15870.54	3.7420	3.7425	-0.7820	6.24	0.27	-0.750			
0.2503	16020.69	3.7390	3.7388	-0.7858	6.25	0.28	-0.750			
0.2527	16172.55	3.7360	3.7361	-0.7929	6.26	0.29	-0.750			
0.2551	16325.30	3.7330	3.7330	-0.7952	6.26	0.29	-0.750			
0.2575	16479.98	3.7300	3.7299	-0.8031	6.27	0.30	-0.750			
0.2599	16633.31	3.7270	3.7272	-0.8054	6.28	0.31	-0.750			
0.2623	16787.19	3.7240	3.7239	-0.8112	6.28	0.31	-0.750			
0.2648	16944.85	3.7210	3.7210	-0.8211	6.29	0.32	-0.750			
0.2672	17102.25	3.7180	3.7179	-0.8246	6.30	0.33	-0.750			
0.2697	17261.59	3.7150	3.7151	-0.8269	6.30	0.33	-0.750			
0.2722	17422.96	3.7120	3.7120	-0.8360	6.31	0.34	-0.750			
0.2747	17582.43	3.7090	3.7089	-0.8403	6.32	0.35	-0.750			
0.2772	17742.54	3.7060	3.7059	-0.8534	6.32	0.35	-0.750			
0.2798	17909.76	3.7030	3.7029	-0.8559	6.33	0.36	-0.750			
0.2824	18076.16	3.7000	3.6999	-0.8598	6.34	0.37	-0.750			
0.2851	18245.23	3.6970	3.6973	-0.8628	6.35	0.38	-0.750			
0.2876	18407.51	3.6940	3.6940	-0.8779	6.35	0.38	-0.750			
0.2902	18574.09	3.6910	3.6910	-0.8738	6.36	0.39	-0.750			
0.2929	18742.79	3.6880	3.6878	-0.8781	6.36	0.39	-0.750			
0.2955	18911.93	3.6850	3.6848	-0.8932	6.37	0.40	-0.750			
0.2982	19085.32	3.6820	3.6825	-0.9052	6.37	0.40	-0.750			
0.3010	19260.82	3.6790	3.6790	-0.9176	6.37	0.40	-0.750			
0.3037	19439.19	3.6760	3.6758	-0.9199	6.38	0.41	-0.750			
0.3064	19612.35	3.6730	3.6731	-0.9148	6.38	0.41	-0.750			
0.3093	19792.25	3.6700	3.6699	-0.9265	6.39	0.42	-0.750			
0.3120	19968.72	3.6670	3.6670	-0.9384	6.39	0.42	-0.750			
0.3148	20148.93	3.6640	3.6639	-0.9342	6.40	0.43	-0.750			
0.3176	20327.55	3.6610	3.6610	-0.9421	6.41	0.44	-0.750			
0.3204	20508.35	3.6580	3.6580	-0.9479	6.41	0.44	-0.750			
0.3234	20694.76	3.6550	3.6551	-0.9611	6.42	0.45	-0.750			
0.3262	20878.40	3.6520	3.6519	-0.9735	6.43	0.46	-0.750			
0.3292	21065.76	3.6490	3.6490	-0.9823	6.44	0.47	-0.750			
0.3321	21256.41	3.6460	3.6460	-0.9795	6.44	0.47	-0.750			
0.3351	21447.91	3.6430	3.6431	-0.9932	6.45	0.48	-0.750			
0.3381	21636.59	3.6400	3.6401	-0.9992	6.45	0.48	-0.750			
0.3411	21828.64	3.6370	3.6368	-1.0070	6.46	0.49	-0.750			
0.3441	22021.92	3.6340	3.6339	-1.0140	6.46	0.49	-0.750			
0.3471	22215.29	3.6310	3.6311	-1.0223	6.47	0.50	-0.750			
0.3503	22417.06	3.6280	3.6279	-1.0348	6.47	0.50	-0.750			
0.3534	22618.38	3.6250	3.6250	-1.0412	6.48	0.51	-0.750			
0.3565	22817.50	3.6220	3.6219	-1.0410	6.48	0.51	-0.750			
0.3596	23016.81	3.6190	3.6190	-1.0450	6.49	0.52	-0.750			
0.3628	23218.14	3.6160	3.6160	-1.0658	6.49	0.52	-0.750			
0.3660	23425.94	3.6130	3.6130	-1.0691	6.50	0.53	-0.750			
0.3693	23634.19	3.6100	3.6097	-1.0714	6.50	0.53	-0.750			
0.3724	23836.78	3.6070	3.6075	-1.0936	6.51	0.54	-0.750			
0.3758	24050.25	3.6040	3.6039	-1.0925	6.51	0.54	-0.750			
0.3791	24259.79	3.6010	3.6009	-1.0903	6.52	0.55	-0.750			
0.3823	24466.52	3.5980	3.5978	-1.0925	6.53	0.56	-0.750			
0.3856	24677.15	3.5950	3.5957	-1.1208	6.53	0.56	-0.750			
0.3890	24894.25	3.5920	3.5918	-1.1373	6.53	0.56	-0.750			
0.3924	25116.21	3.5890	3.5889	-1.1424	6.53	0.56	-0.750			
0.3959	25334.66	3.5860	3.5859	-1.1306	6.53	0.56	-0.750			
0.3994	25560.99	3.5830	3.5830	-1.1611	6.53	0.56	-0.750	0.529	1.082	
0.4028	25781.69	3.5800	3.5800	-1.1583	6.54	0.57	-0.750			
0.4062	25999.52	3.5770	3.5768	-1.1616	6.55	0.58	-0.750			
0.4096	26215.48	3.5740	3.5741	-1.1794	6.56	0.59	-0.750			
0.4132	26447.25	3.5710	3.5709	-1.1947	6.56	0.59	-0.750			
0.4170	26687.34	3.5680	3.5679	-1.2200	6.57	0.60	-0.750			
0.4206	26920.78	3.5650	3.5650	-1.2281	6.57	0.60	-0.750			
0.4243	27155.15	3.5620	3.5622	-1.2319	6.57	0.60	-0.750			
0.4280	27393.68	3.5590	3.5589	-1.2452	6.59	0.62	-0.750			
0.4318	27634.33	3.5560	3.5558	-1.2503	6.60	0.63	-0.750			
0.4355	27869.91	3.5530	3.5533	-1.2572	6.61	0.64	-0.750			
0.4393	28117.65	3.5500	3.5500	-1.2779	6.62	0.65	-0.750			
0.4432	28366.62	3.5470	3.5471	-1.2907	6.62	0.65	-0.750			
0.4471	28613.68	3.5440	3.5438	-1.3169	6.63	0.66	-0.750			
0.4511	28869.47	3.5410	3.5410	-1.3286	6.64	0.67	-0.750			
0.4551	29123.83	3.5380	3.5380	-1.3462	6.64	0.67	-0.750			
0.4592	29388.61	3.5350	3.5352	-1.3606	6.65	0.68	-0.750			
0.4633	29650.04	3.5320	3.5318	-1.3607	6.65	0.68	-0.750			
0.4674	29914.36	3.5290	3.5287	-1.3634	6.66	0.69	-0.750			
0.4714	30171.71	3.5260	3.5261	-1.3772	6.67	0.70	-0.750			
0.4755	30433.79	3.5230	3.5229	-1.3695	6.68	0.71	-0.750			
0.4798	30704.91	3.5200	3.5199	-1.3988	6.69	0.72	-0.750			
0.4839	30970.50	3.5170	3.5170	-1.4020	6.71	0.74	-0.750			
0.4883	31248.52	3.5140	3.5139	-1.4188	6.71	0.74	-0.750			
0.4926	31525.59	3.5110	3.5110	-1.4259	6.72	0.75	-0.750			
0.4969	31798.65	3.5080	3.5083	-1.4331	6.73	0.76	-0.750			
0.5011	32069.01	3.5050	3.5048	-1.4285	6.74	0.77	-0.750			
0.5055	32349.63	3.5020	3.5019	-1.4399	6.75	0.78	-0.750			
0.5095	32607.47	3.4990	3.4993	-1.5038	6.77	0.80	-0.750			
0.5139	32891.70	3.4960	3.4961	-1.5516	6.78	0.81	-0.750			
0.5187	33197.93	3.4930	3.4928	-1.6297	6.80	0.83	-0.750			
0.5238	33525.68	3.4900	3.4895	-1.6373	6.81	0.84	-0.750			
0.5290	33859.01	3.4870	3.4878	-1.6615	6.83	0.86	-0.750			
0.5341	34183.84	3.4840	3.4843	-1.6399	6.85	0.88	-0.750			
0.5391	34500.10	3.4810	3.4808	-1.5950	6.86	0.89	-0.750			
0.5437	34794.00	3.4780	3.4776	-1.5496	6.87	0.90	-0.750			
0.5479	35068.73	3.4750	3.4753	-1.4876	6.88	0.91	-0.750			
0.5524	35355.32	3.4720	3.4720	-1.4776	6.90	0.93	-0.750			
0.5569	35639.56	3.4690	3.4689	-1.4661	6.92	0.95	-0.750			
0.5612	35917.42	3.4660	3.4661	-1.4540	6.93	0.96	-0.750			
0.5655	36193.91	3.4630	3.4630	-1.4538	6.95	0.98	-0.750			
0.5699	36472.53	3.4600	3.4599	-1.4491	6.98	1.01	-0.750			
0.5743	36752.17	3.4570	3.4570	-1.4352	6.99	1.02	-0.750			
0.5786	37028.71	3.4540	3.4541	-1.4308	7.01	1.04	-0.750			
0.5828	37300.16	3.4510	3.4510	-1.4293	7.02	1.05	-0.750			
0.5871	37574.81	3.4480	3.4479	-1.4130	7.04	1.07	-0.750			
0.5913	37844.42	3.4450	3.4449	-1.4010	7.06	1.09	-0.750			
0.5955	38111.03	3.4420	3.4420	-1.3882	7.08	1.11	-0.750			
0.5997	38378.89	3.4390	3.4389	-1.3705	7.10	1.13	-0.750			
0.6038	38644.23	3.4360	3.4360	-1.3539	7.12	1.15	-0.750			
0.6077	38892.93	3.4330	3.4330	-1.3609	7.14	1.17	-0.750			
0.6118	39156.83	3.4300	3.4300	-1.3489	7.16	1.19	-0.750			
0.6160	39421.66	3.4270	3.4267	-1.3466	7.17	1.20	-0.750			
0.6200	39682.52	3.4240	3.4242	-1.3251	7.19	1.22	-0.750			
0.6240	39938.11	3.4210	3.4212	-1.2978	7.21	1.24	-0.750			
0.6280	40189.60	3.4180	3.4178	-1.2597	7.23	1.26	-0.750			
0.6316	40423.10	3.4150	3.4150	-1.2102	7.25	1.28	-0.750			
0.6351	40643.95	3.4120	3.4120	-1.1661	7.27	1.30	-0.750			
0.6385	40866.81	3.4090	3.4090	-1.1479	7.29	1.32	-0.750			
0.6420	41084.89	3.4060	3.4059	-1.1156	7.31	1.34	-0.750			
0.6452	41295.85	3.4030	3.4030	-1.0873	7.33	1.36	-0.750			
0.6485	41502.17	3.4000	3.4001	-1.0697	7.34	1.37	-0.750			
0.6517	41707.17	3.3970	3.3970	-1.0473	7.36	1.39	-0.750			
0.6548	41905.65	3.3940	3.3938	-1.0183	7.38	1.41	-0.750			
0.6578	42096.61	3.3910	3.3911	-0.9913	7.40	1.43	-0.750			
0.6607	42285.89	3.3880	3.3882	-0.9679	7.41	1.44	-0.750			
0.6636	42468.86	3.3850	3.3850	-0.9469	7.43	1.46	-0.750			
0.6664	42648.26	3.3820	3.3820	-0.9178	7.45	1.48	-0.750			
0.6691	42820.76	3.3790	3.3790	-0.8919	7.47	1.50	-0.750			
0.6717	42991.34	3.3760	3.3760	-0.8701	7.48	1.51	-0.750			
0.6743	43155.82	3.3730	3.3729	-0.8461	7.50	1.53	-0.750			
0.6768	43314.21	3.3700	3.3700	-0.8243	7.52	1.55	-0.750			
0.6792	43470.87	3.3670	3.3669	-0.8048	7.53	1.56	-0.750			
0.6816	43621.82	3.3640	3.3640	-0.7838	7.55	1.58	-0.750			
0.6840	43772.80	3.3610	3.3609	-0.7654	7.56	1.59	-0.750			
0.6862	43918.01	3.3580	3.3581	-0.7448	7.58	1.61	-0.750			
0.6884	44059.06	3.3550	3.3550	-0.7262	7.59	1.62	-0.750			
0.6905	44195.20	3.3520	3.3520	-0.7083	7.60	1.63	-0.750			
0.6926	44328.23	3.3490	3.3490	-0.6887	7.62	1.65	-0.750			
0.6947	44459.75	3.3460	3.3460	-0.6759	7.63	1.66	-0.750			
0.6967	44588.92	3.3430	3.3429	-0.6586	7.64	1.67	-0.750			
0.6987	44714.68	3.3400	3.3400	-0.6431	7.66	1.69	-0.750			
0.7006	44835.44	3.3370	3.3370	-0.6284	7.67	1.70	-0.750			
0.7024	44954.42	3.3340	3.3340	-0.6114	7.69	1.72	-0.750			
0.7042	45068.82	3.3310	3.3310	-0.5991	7.70	1.73	-0.750			
0.7060	45184.06	3.3280	3.3280	-0.5870	7.72	1.75	-0.750			
0.7078	45296.42	3.3250	3.3250	-0.5741	7.73	1.76	-0.750			
0.7095	45405.96	3.3220	3.3221	-0.5597	7.75	1.78	-0.750			
0.7111	45512.19	3.3190	3.3190	-0.5419	7.75	1.78	-0.750			
0.7127	45614.15	3.3160	3.3160	-0.5247	7.75	1.78	-0.750			
0.7143	45712.85	3.3130	3.3130	-0.4983	7.75	1.78	-0.750			
