Ah_balance (normalized)	Ah_balance (mAh)	Voltage - fit (V)	Voltage -  interpolate (V)	dQ/dV (1/V)	Temperature (°C)	Temperature - diff (°C)	Current (C)	R_DC 0ms (mOhm)	R_DC 50ms (mOhm)	R_DC 50 ms PEC (mOhm)
0.1765	11297.51	4.0800	4.0799	0.7902	7.92	1.94	0.750			
0.1789	11446.67	4.0770	4.0770	0.7754	7.91	1.93	0.750			
0.1811	11593.57	4.0740	4.0741	0.7701	7.91	1.93	0.750			
0.1834	11740.64	4.0710	4.0709	0.7695	7.90	1.92	0.750			
0.1857	11886.63	4.0680	4.0680	0.7742	7.89	1.91	0.750			
0.1880	12034.41	4.0650	4.0650	0.7771	7.89	1.91	0.750			
0.1904	12185.56	4.0620	4.0620	0.7816	7.88	1.90	0.750			
0.1928	12336.73	4.0590	4.0590	0.7887	7.87	1.89	0.750			
0.1951	12488.62	4.0560	4.0560	0.7867	7.87	1.89	0.750			
0.1975	12638.45	4.0530	4.0530	0.7922	7.86	1.88	0.750			
0.1998	12789.94	4.0500	4.0500	0.7945	7.86	1.88	0.750			
0.2022	12942.41	4.0470	4.0467	0.7988	7.85	1.87	0.750			
0.2046	13097.02	4.0440	4.0440	0.8054	7.84	1.86	0.750			
0.2071	13253.40	4.0410	4.0411	0.8031	7.83	1.85	0.750			
0.2095	13406.84	4.0380	4.0380	0.8068	7.83	1.85	0.750			
0.2119	13560.72	4.0350	4.0352	0.8086	7.82	1.84	0.750			
0.2143	13716.58	4.0320	4.0318	0.8127	7.81	1.83	0.750			
0.2168	13872.70	4.0290	4.0290	0.8182	7.80	1.82	0.750			
0.2192	14031.43	4.0260	4.0261	0.8187	7.80	1.82	0.750			
0.2217	14190.67	4.0230	4.0230	0.8229	7.79	1.81	0.750			
0.2242	14347.43	4.0200	4.0200	0.8249	7.78	1.80	0.750			
0.2267	14506.03	4.0170	4.0169	0.8275	7.77	1.79	0.750			
0.2291	14663.47	4.0140	4.0140	0.8294	7.76	1.78	0.750			
0.2317	14825.90	4.0110	4.0111	0.8262	7.76	1.78	0.750			
0.2341	14983.89	4.0080	4.0080	0.8357	7.75	1.77	0.750			
0.2366	15144.38	4.0050	4.0050	0.8433	7.74	1.76	0.750			
0.2391	15304.97	4.0020	4.0019	0.8453	7.73	1.75	0.750			
0.2417	15467.38	3.9990	3.9991	0.8496	7.72	1.74	0.750			
0.2443	15632.28	3.9960	3.9960	0.8540	7.72	1.74	0.750			
0.2468	15797.14	3.9930	3.9930	0.8583	7.71	1.73	0.750			
0.2494	15962.53	3.9900	3.9901	0.8573	7.70	1.72	0.750			
0.2520	16127.17	3.9870	3.9866	0.8613	7.69	1.71	0.750			
0.2546	16293.64	3.9840	3.9841	0.8601	7.68	1.70	0.750			
0.2572	16458.84	3.9810	3.9810	0.8678	7.67	1.69	0.750			
0.2598	16626.16	3.9780	3.9780	0.8737	7.67	1.69	0.750			
0.2624	16794.25	3.9750	3.9750	0.8787	7.66	1.68	0.750			
0.2650	16961.28	3.9720	3.9719	0.8839	7.65	1.67	0.750			
0.2677	17132.89	3.9690	3.9691	0.8882	7.64	1.66	0.750			
0.2703	17301.40	3.9660	3.9660	0.9115	7.63	1.65	0.750			
0.2731	17480.60	3.9630	3.9630	0.9251	7.62	1.64	0.750			
0.2759	17659.01	3.9600	3.9599	0.9335	7.61	1.63	0.750			
0.2788	17843.01	3.9570	3.9573	0.9384	7.61	1.63	0.750			
0.2817	18026.57	3.9540	3.9541	0.9399	7.60	1.62	0.750			
0.2845	18206.61	3.9510	3.9509	0.9359	7.59	1.61	0.750			
0.2873	18385.87	3.9480	3.9480	0.9280	7.58	1.60	0.750			
0.2900	18558.59	3.9450	3.9449	0.9227	7.57	1.59	0.750			
0.2928	18738.08	3.9420	3.9420	0.9202	7.56	1.58	0.750			
0.2955	18912.71	3.9390	3.9390	0.9282	7.55	1.57	0.750			
0.2983	19092.12	3.9360	3.9360	0.9385	7.54	1.56	0.750			
0.3012	19273.65	3.9330	3.9330	0.9456	7.52	1.54	0.750			
0.3040	19456.88	3.9300	3.9301	0.9469	7.51	1.53	0.750			
0.3069	19639.33	3.9270	3.9271	0.9589	7.50	1.52	0.750			
0.3097	19823.17	3.9240	3.9240	0.9672	7.49	1.51	0.750			
0.3127	20010.27	3.9210	3.9210	0.9800	7.48	1.50	0.750			
0.3156	20197.54	3.9180	3.9181	0.9823	7.47	1.49	0.750			
0.3185	20386.65	3.9150	3.9151	0.9977	7.45	1.47	0.750			
0.3216	20581.86	3.9120	3.9120	1.0096	7.44	1.46	0.750			
0.3246	20777.22	3.9090	3.9090	1.0182	7.43	1.45	0.750			
0.3277	20974.90	3.9060	3.9060	1.0185	7.42	1.44	0.750			
0.3308	21170.66	3.9030	3.9031	1.0254	7.41	1.43	0.750			
0.3339	21366.62	3.9000	3.8999	1.0356	7.39	1.41	0.750			
0.3370	21565.74	3.8970	3.8970	1.0485	7.38	1.40	0.750			
0.3401	21767.71	3.8940	3.8938	1.0462	7.37	1.39	0.750			
0.3433	21969.26	3.8910	3.8911	1.0644	7.35	1.37	0.750			
0.3465	22176.01	3.8880	3.8881	1.0787	7.34	1.36	0.750			
0.3498	22385.02	3.8850	3.8850	1.0941	7.32	1.34	0.750			
0.3531	22595.61	3.8820	3.8819	1.0988	7.31	1.33	0.750			
0.3564	22807.14	3.8790	3.8790	1.1137	7.30	1.32	0.750			
0.3597	23022.85	3.8760	3.8761	1.1302	7.29	1.31	0.750			
0.3632	23242.29	3.8730	3.8729	1.1502	7.28	1.30	0.750			
0.3666	23462.56	3.8700	3.8700	1.1573	7.26	1.28	0.750			
0.3701	23687.50	3.8670	3.8671	1.1740	7.24	1.26	0.750			
0.3737	23914.46	3.8640	3.8640	1.1877	7.23	1.25	0.750			
0.3773	24147.55	3.8610	3.8609	1.1934	7.21	1.23	0.750			
0.3808	24373.73	3.8580	3.8581	1.2165	7.19	1.21	0.750			
0.3845	24607.73	3.8550	3.8550	1.2389	7.18	1.20	0.750			
0.3883	24848.96	3.8520	3.8519	1.2547	7.16	1.18	0.750			
0.3921	25092.40	3.8490	3.8491	1.2742	7.14	1.16	0.750			
0.3959	25335.03	3.8460	3.8462	1.3156	7.13	1.15	0.750			
0.3999	25592.83	3.8430	3.8432	1.3430	7.11	1.13	0.750			
0.4040	25854.15	3.8400	3.8398	1.3818	7.09	1.11	0.750			
0.4081	26119.89	3.8370	3.8373	1.4071	7.08	1.10	0.750	0.402	0.893	
0.4125	26398.14	3.8340	3.8342	1.4301	7.06	1.08	0.750			
0.4169	26682.50	3.8310	3.8310	1.4684	7.04	1.06	0.750			
0.4213	26961.25	3.8280	3.8280	1.4693	7.01	1.03	0.750			
0.4256	27240.93	3.8250	3.8250	1.4794	6.99	1.01	0.750			
0.4301	27529.59	3.8220	3.8221	1.5049	6.97	0.99	0.750			
0.4347	27819.99	3.8190	3.8188	1.5382	6.94	0.96	0.750			
0.4393	28116.74	3.8160	3.8160	1.5601	6.92	0.94	0.750			
0.4440	28418.57	3.8130	3.8132	1.5830	6.90	0.92	0.750			
0.4489	28732.32	3.8100	3.8100	1.6180	6.87	0.89	0.750			
0.4537	29037.97	3.8070	3.8069	1.6470	6.84	0.86	0.750			
0.4587	29355.82	3.8040	3.8040	1.6910	6.82	0.84	0.750			
0.4639	29689.84	3.8010	3.8008	1.7164	6.79	0.81	0.750			
0.4691	30021.37	3.7980	3.7982	1.7588	6.77	0.79	0.750			
0.4744	30363.86	3.7950	3.7952	1.7748	6.74	0.76	0.750			
0.4798	30710.28	3.7920	3.7919	1.7994	6.72	0.74	0.750			
0.4853	31059.58	3.7890	3.7890	1.8214	6.69	0.71	0.750			
0.4907	31403.83	3.7860	3.7858	1.8412	6.67	0.69	0.750			
0.4963	31760.81	3.7830	3.7829	1.8801	6.64	0.66	0.750			
0.5019	32124.66	3.7800	3.7798	1.9074	6.61	0.63	0.750			
0.5077	32491.66	3.7770	3.7770	1.8890	6.58	0.60	0.750			
0.5134	32857.23	3.7740	3.7741	1.8997	6.56	0.58	0.750			
0.5191	33224.43	3.7710	3.7710	1.9122	6.53	0.55	0.750			
0.5248	33589.32	3.7680	3.7680	1.9243	6.50	0.52	0.750			
0.5306	33959.55	3.7650	3.7650	1.9579	6.47	0.49	0.750			
0.5366	34343.40	3.7620	3.7620	1.9866	6.44	0.46	0.750			
0.5426	34727.09	3.7590	3.7590	1.9865	6.42	0.44	0.750			
0.5485	35104.59	3.7560	3.7559	2.0083	6.39	0.41	0.750			
0.5546	35491.79	3.7530	3.7532	2.0507	6.36	0.38	0.750			
0.5607	35886.78	3.7500	3.7500	2.0960	6.34	0.36	0.750			
0.5670	36289.11	3.7470	3.7470	2.1668	6.31	0.33	0.750			
0.5738	36723.45	3.7440	3.7439	2.2619	6.27	0.29	0.750			
0.5806	37160.44	3.7410	3.7412	2.3070	6.24	0.26	0.750			
0.5877	37609.80	3.7380	3.7379	2.3605	6.22	0.24	0.750			
0.5947	38063.84	3.7350	3.7350	2.3824	6.19	0.21	0.750			
0.6021	38532.45	3.7320	3.7319	2.4326	6.17	0.19	0.750			
0.6095	39004.89	3.7290	3.7290	2.4184	6.15	0.17	0.750			
0.6169	39480.81	3.7260	3.7259	2.4375	6.12	0.14	0.750			
0.6241	39944.05	3.7230	3.7226	2.3679	6.09	0.11	0.750			
0.6310	40385.51	3.7200	3.7200	2.3058	6.07	0.09	0.750			
0.6380	40829.20	3.7170	3.7170	2.1319	6.05	0.07	0.750			
0.6442	41230.47	3.7140	3.7141	1.9703	6.03	0.05	0.750			
0.6499	41592.79	3.7110	3.7112	1.8081	6.01	0.03	0.750			
0.6550	41916.95	3.7080	3.7080	1.5987	6.00	0.02	0.750			
0.6595	42205.10	3.7050	3.7048	1.4358	5.99	0.01	0.750			
0.6633	42452.95	3.7020	3.7026	1.2798	5.99	0.01	0.750			
0.6671	42691.56	3.6990	3.6989	1.1780	5.99	0.01	0.750			
0.6702	42892.21	3.6960	3.6960	1.0812	5.98	0.00	0.750			
0.6732	43084.12	3.6930	3.6930	1.0096	5.98	-0.00	0.750			
0.6761	43269.82	3.6900	3.6898	0.9750	5.97	-0.01	0.750			
0.6789	43449.47	3.6870	3.6870	0.9332	5.97	-0.01	0.750			
0.6817	43625.73	3.6840	3.6840	0.9003	5.97	-0.01	0.750			
0.6843	43796.37	3.6810	3.6811	0.8757	5.97	-0.01	0.750			
0.6869	43961.57	3.6780	3.6780	0.8488	5.97	-0.01	0.750			
0.6894	44121.15	3.6750	3.6748	0.8185	5.97	-0.01	0.750			
0.6918	44275.03	3.6720	3.6721	0.7910	5.97	-0.01	0.750			
0.6941	44424.50	3.6690	3.6691	0.7614	5.97	-0.01	0.750			
0.6964	44570.60	3.6660	3.6660	0.7383	5.97	-0.01	0.750			
0.6986	44709.49	3.6630	3.6630	0.7018	5.97	-0.01	0.750			
0.7007	44841.75	3.6600	3.6600	0.6709	5.97	-0.01	0.750			
0.7026	44967.46	3.6570	3.6570	0.6380	5.97	-0.01	0.750			
0.7045	45087.26	3.6540	3.6541	0.6070	5.97	-0.01	0.750			
0.7062	45199.99	3.6510	3.6509	0.5752	5.97	-0.01	0.750			
0.7079	45307.30	3.6480	3.6480	0.5444	5.97	-0.01	0.750			
0.7095	45408.65	3.6450	3.6450	0.5104	5.98	-0.00	0.750			
0.7110	45503.66	3.6420	3.6421	0.4834	5.98	-0.00	0.750			
0.7124	45594.40	3.6390	3.6390	0.4525	5.98	-0.00	0.750			
0.7137	45678.89	3.6360	3.6359	0.4191	5.98	-0.00	0.750			
0.7149	45756.28	3.6330	3.6329	0.3853	5.98	0.00	0.750			
0.7161	45827.26	3.6300	3.6302	0.3497	5.98	0.00	0.750			
0.7171	45891.89	3.6270	3.6269	0.3142	5.98	0.00	0.750			
0.7180	45949.64	3.6240	3.6239	0.2744	5.98	0.00	0.750			
0.7187	45998.10	3.6210	3.6210	0.2316	5.98	0.00	0.750			
0.7194	46040.05	3.6180	3.6179	0.1943	5.98	0.00	0.750			
0.7199	46073.72	3.6150	3.6151	0.1519	5.98	0.00	0.750			
0.7203	46098.86	3.6120	3.6125	0.1081	5.98	0.00	0.750			
0.7206	46117.03	3.6090	3.6087	0.0635	5.98	0.00	0.750			
0.7207	46123.37	3.6030	3.6046	-0.0304	5.98	0.00	0.750			
0.7207	46124.71	3.6060	3.5989	0.0165	5.98	0.00	0.750			
