Ah_balance (normalized)	Ah_balance (mAh)	Voltage - fit (V)	Voltage -  interpolate (V)	dQ/dV (1/V)	Temperature (°C)	Temperature - diff (°C)	Current (C)	R_DC 0ms (mOhm)	R_DC 50ms (mOhm)	R_DC 50 ms PEC (mOhm)
0.1824	11674.87	4.0810	4.0811	0.7875	7.21	1.22	0.750			
0.1848	11827.40	4.0780	4.0779	0.7971	7.21	1.22	0.750			
0.1872	11980.87	4.0750	4.0751	0.8020	7.21	1.22	0.750			
0.1896	12136.10	4.0720	4.0720	0.8044	7.21	1.22	0.750			
0.1920	12290.02	4.0690	4.0690	0.8077	7.20	1.21	0.750			
0.1945	12447.64	4.0660	4.0660	0.8110	7.20	1.21	0.750			
0.1969	12601.37	4.0630	4.0631	0.8111	7.20	1.21	0.750			
0.1993	12758.03	4.0600	4.0600	0.8133	7.20	1.21	0.750			
0.2018	12914.84	4.0570	4.0570	0.8142	7.20	1.21	0.750			
0.2042	13071.09	4.0540	4.0539	0.8156	7.20	1.21	0.750			
0.2067	13228.16	4.0510	4.0510	0.8188	7.19	1.20	0.750			
0.2091	13384.66	4.0480	4.0481	0.8227	7.19	1.20	0.750			
0.2116	13543.18	4.0450	4.0450	0.8280	7.19	1.20	0.750			
0.2141	13702.72	4.0420	4.0420	0.8276	7.18	1.19	0.750			
0.2166	13862.24	4.0390	4.0391	0.8322	7.18	1.19	0.750			
0.2191	14022.73	4.0360	4.0360	0.8303	7.18	1.19	0.750			
0.2216	14182.69	4.0330	4.0330	0.8305	7.17	1.18	0.750			
0.2241	14341.64	4.0300	4.0300	0.8302	7.17	1.18	0.750			
0.2266	14501.09	4.0270	4.0270	0.8282	7.16	1.17	0.750			
0.2291	14659.95	4.0240	4.0241	0.8338	7.16	1.17	0.750			
0.2316	14820.28	4.0210	4.0210	0.8389	7.16	1.17	0.750			
0.2341	14980.90	4.0180	4.0181	0.8426	7.15	1.16	0.750			
0.2366	15143.85	4.0150	4.0151	0.8482	7.15	1.16	0.750			
0.2392	15306.70	4.0120	4.0121	0.8500	7.14	1.15	0.750			
0.2417	15471.90	4.0090	4.0090	0.8567	7.14	1.15	0.750			
0.2443	15637.04	4.0060	4.0059	0.8604	7.14	1.15	0.750			
0.2469	15802.00	4.0030	4.0030	0.8640	7.13	1.14	0.750			
0.2495	15968.66	4.0000	4.0001	0.8686	7.13	1.14	0.750			
0.2521	16136.75	3.9970	3.9969	0.8698	7.13	1.14	0.750			
0.2548	16304.05	3.9940	3.9940	0.8710	7.13	1.14	0.750			
0.2573	16470.31	3.9910	3.9910	0.8681	7.13	1.14	0.750			
0.2600	16638.30	3.9880	3.9879	0.8752	7.13	1.14	0.750			
0.2626	16806.07	3.9850	3.9850	0.8730	7.13	1.14	0.750			
0.2652	16972.78	3.9820	3.9820	0.8742	7.12	1.13	0.750			
0.2678	17141.11	3.9790	3.9791	0.8803	7.11	1.12	0.750			
0.2705	17311.08	3.9760	3.9760	0.8848	7.11	1.12	0.750			
0.2731	17480.25	3.9730	3.9728	0.8902	7.10	1.11	0.750			
0.2758	17652.40	3.9700	3.9700	0.8904	7.10	1.11	0.750			
0.2785	17822.79	3.9670	3.9670	0.8956	7.10	1.11	0.750			
0.2812	17998.81	3.9640	3.9640	0.8969	7.09	1.10	0.750			
0.2839	18171.59	3.9610	3.9610	0.8885	7.09	1.10	0.750			
0.2866	18340.63	3.9580	3.9581	0.8828	7.09	1.10	0.750			
0.2892	18509.41	3.9550	3.9551	0.8780	7.08	1.09	0.750			
0.2918	18672.85	3.9520	3.9520	0.8853	7.08	1.09	0.750			
0.2944	18842.47	3.9490	3.9489	0.9028	7.08	1.09	0.750			
0.2971	19013.85	3.9460	3.9460	0.9179	7.07	1.08	0.750			
0.2999	19195.24	3.9430	3.9430	0.9351	7.06	1.07	0.750			
0.3028	19380.72	3.9400	3.9401	0.9523	7.06	1.07	0.750			
0.3057	19566.34	3.9370	3.9370	0.9553	7.05	1.06	0.750			
0.3086	19750.91	3.9340	3.9341	0.9578	7.04	1.05	0.750			
0.3114	19932.18	3.9310	3.9309	0.9549	7.03	1.04	0.750			
0.3143	20115.83	3.9280	3.9280	0.9603	7.02	1.03	0.750			
0.3172	20298.55	3.9250	3.9250	0.9665	7.02	1.03	0.750			
0.3201	20485.22	3.9220	3.9220	0.9799	7.02	1.03	0.750			
0.3230	20675.04	3.9190	3.9189	0.9906	7.01	1.02	0.750			
0.3260	20866.73	3.9160	3.9159	1.0011	7.00	1.01	0.750			
0.3291	21059.76	3.9130	3.9131	1.0084	6.99	1.00	0.750			
0.3321	21254.16	3.9100	3.9100	1.0217	6.98	0.99	0.750			
0.3352	21451.20	3.9070	3.9068	1.0303	6.97	0.98	0.750			
0.3383	21650.05	3.9040	3.9040	1.0342	6.97	0.98	0.750			
0.3414	21848.24	3.9010	3.9011	1.0477	6.97	0.98	0.750			
0.3446	22052.08	3.8980	3.8980	1.0610	6.96	0.97	0.750			
0.3478	22256.61	3.8950	3.8949	1.0725	6.96	0.97	0.750			
0.3510	22462.08	3.8920	3.8920	1.0819	6.95	0.96	0.750			
0.3542	22670.13	3.8890	3.8891	1.0935	6.95	0.96	0.750			
0.3575	22882.72	3.8860	3.8860	1.1137	6.94	0.95	0.750			
0.3609	23099.92	3.8830	3.8828	1.1219	6.93	0.94	0.750			
0.3643	23315.89	3.8800	3.8800	1.1352	6.92	0.93	0.750			
0.3677	23535.59	3.8770	3.8770	1.1483	6.91	0.92	0.750			
0.3712	23758.91	3.8740	3.8743	1.1586	6.90	0.91	0.750			
0.3747	23980.94	3.8710	3.8710	1.1673	6.90	0.91	0.750			
0.3782	24206.09	3.8680	3.8680	1.1824	6.89	0.90	0.750			
0.3817	24431.91	3.8650	3.8650	1.1960	6.88	0.89	0.750			
0.3854	24664.99	3.8620	3.8620	1.2077	6.87	0.88	0.750			
0.3890	24896.12	3.8590	3.8590	1.2359	6.86	0.87	0.750			
0.3928	25136.57	3.8560	3.8560	1.2581	6.85	0.86	0.750			
0.3966	25382.91	3.8530	3.8529	1.2732	6.84	0.85	0.750			
0.4004	25627.43	3.8500	3.8500	1.2993	6.83	0.84	0.750			
0.4044	25879.65	3.8470	3.8471	1.3215	6.83	0.84	0.750			
0.4083	26133.97	3.8440	3.8441	1.3608	6.82	0.83	0.750			
0.4125	26398.18	3.8410	3.8411	1.4025	6.80	0.81	0.750			
0.4167	26669.23	3.8380	3.8379	1.4280	6.79	0.80	0.750	0.423	0.984	
0.4211	26952.60	3.8350	3.8351	1.4597	6.78	0.79	0.750			
0.4256	27237.46	3.8320	3.8321	1.4792	6.77	0.78	0.750			
0.4300	27522.52	3.8290	3.8291	1.5077	6.76	0.77	0.750			
0.4345	27808.23	3.8260	3.8260	1.5191	6.75	0.76	0.750			
0.4391	28103.10	3.8230	3.8227	1.5508	6.74	0.75	0.750			
0.4439	28407.19	3.8200	3.8201	1.5931	6.72	0.73	0.750			
0.4487	28716.86	3.8170	3.8169	1.6385	6.71	0.72	0.750			
0.4537	29036.86	3.8140	3.8139	1.6762	6.69	0.70	0.750			
0.4587	29358.79	3.8110	3.8110	1.6934	6.68	0.69	0.750			
0.4639	29689.17	3.8080	3.8082	1.7273	6.66	0.67	0.750			
0.4691	30024.42	3.8050	3.8050	1.7625	6.64	0.65	0.750			
0.4744	30363.93	3.8020	3.8021	1.7889	6.63	0.64	0.750			
0.4798	30706.82	3.7990	3.7991	1.8447	6.61	0.62	0.750			
0.4854	31066.42	3.7960	3.7959	1.8848	6.59	0.60	0.750			
0.4912	31434.80	3.7930	3.7930	1.9381	6.57	0.58	0.750			
0.4971	31812.06	3.7900	3.7900	1.9584	6.55	0.56	0.750			
0.5031	32196.70	3.7870	3.7870	2.0307	6.53	0.54	0.750			
0.5091	32582.43	3.7840	3.7841	2.0426	6.52	0.53	0.750			
0.5154	32984.46	3.7810	3.7810	2.0603	6.50	0.51	0.750			
0.5215	33379.15	3.7780	3.7779	2.1152	6.48	0.49	0.750			
0.5279	33788.17	3.7750	3.7750	2.1357	6.45	0.46	0.750			
0.5345	34204.86	3.7720	3.7721	2.1780	6.43	0.44	0.750			
0.5409	34617.45	3.7690	3.7690	2.1973	6.41	0.42	0.750			
0.5475	35042.58	3.7660	3.7661	2.2268	6.39	0.40	0.750			
0.5543	35476.02	3.7630	3.7632	2.2790	6.36	0.37	0.750			
0.5613	35920.24	3.7600	3.7599	2.2984	6.33	0.34	0.750			
0.5681	36359.68	3.7570	3.7571	2.3473	6.31	0.32	0.750			
0.5752	36815.49	3.7540	3.7539	2.3721	6.29	0.30	0.750			
0.5824	37270.45	3.7510	3.7511	2.4043	6.26	0.27	0.750			
0.5897	37740.00	3.7480	3.7480	2.4985	6.24	0.25	0.750			
0.5972	38222.50	3.7450	3.7449	2.5934	6.21	0.22	0.750			
0.6053	38737.24	3.7420	3.7420	2.6894	6.19	0.20	0.750			
0.6134	39259.58	3.7390	3.7390	2.7899	6.16	0.17	0.750			
0.6219	39800.57	3.7360	3.7361	2.8901	6.13	0.14	0.750			
0.6309	40376.95	3.7330	3.7330	3.0007	6.11	0.12	0.750			
0.6400	40960.69	3.7300	3.7300	3.0816	6.09	0.10	0.750			
0.6494	41562.58	3.7270	3.7270	3.1660	6.07	0.08	0.750			
0.6595	42205.24	3.7240	3.7239	3.1690	6.04	0.05	0.750			
0.6687	42794.78	3.7210	3.7210	3.0155	6.02	0.03	0.750			
0.6773	43346.23	3.7180	3.7176	2.7767	6.00	0.01	0.750			
0.6853	43858.82	3.7150	3.7150	2.5022	5.99	0.00	0.750			
0.6925	44321.89	3.7120	3.7120	2.2156	5.98	-0.01	0.750			
0.6983	44689.19	3.7090	3.7090	1.8477	5.97	-0.02	0.750			
0.7031	44998.54	3.7060	3.7061	1.5583	5.97	-0.02	0.750			
0.7074	45274.60	3.7030	3.7030	1.3752	5.97	-0.02	0.750			
0.7111	45508.41	3.7000	3.6998	1.2008	5.97	-0.02	0.750			
0.7143	45715.01	3.6970	3.6970	1.0683	5.97	-0.02	0.750			
0.7172	45903.94	3.6940	3.6940	0.9711	5.97	-0.02	0.750			
0.7200	46079.87	3.6910	3.6910	0.9029	5.97	-0.02	0.750			
0.7226	46244.23	3.6880	3.6879	0.8372	5.97	-0.02	0.750			
0.7250	46397.86	3.6850	3.6850	0.7807	5.97	-0.02	0.750			
0.7272	46541.89	3.6820	3.6820	0.7316	5.98	-0.01	0.750			
0.7294	46682.81	3.6790	3.6790	0.6736	5.98	-0.01	0.750			
0.7314	46807.00	3.6760	3.6760	0.6146	5.98	-0.01	0.750			
0.7331	46917.53	3.6730	3.6731	0.5510	5.99	-0.00	0.750			
0.7346	47016.33	3.6700	3.6701	0.4964	5.99	-0.00	0.750			
0.7360	47103.51	3.6670	3.6668	0.4409	5.99	0.00	0.750			
0.7372	47181.39	3.6640	3.6640	0.3948	5.99	0.00	0.750			
0.7383	47251.37	3.6610	3.6611	0.3504	5.99	0.00	0.750			
0.7393	47316.88	3.6580	3.6579	0.3168	6.00	0.01	0.750			
0.7402	47373.64	3.6550	3.6549	0.2741	6.00	0.01	0.750			
0.7410	47422.80	3.6520	3.6522	0.2359	6.00	0.01	0.750			
0.7416	47464.49	3.6490	3.6489	0.1968	6.00	0.01	0.750			
0.7422	47498.90	3.6460	3.6460	0.1570	6.00	0.01	0.750			
0.7426	47525.69	3.6430	3.6435	0.1163	6.00	0.01	0.750			
0.7429	47543.19	3.6400	3.6410	0.0780	6.00	0.01	0.750			
0.7430	47554.47	3.6370	3.6384	0.0232	6.00	0.01	0.750			
