Ah_balance (normalized)	Ah_balance (mAh)	Voltage - fit (V)	Voltage -  interpolate (V)	dQ/dV (1/V)	Temperature (°C)	Temperature - diff (°C)	Current (C)	R_DC 0ms (mOhm)	R_DC 50ms (mOhm)	R_DC 50 ms PEC (mOhm)
0.1793	11474.68	4.0800	4.0800	0.7647	7.46	1.49	0.750			
0.1816	11623.26	4.0770	4.0770	0.7750	7.46	1.49	0.750			
0.1840	11772.92	4.0740	4.0740	0.7811	7.46	1.49	0.750			
0.1863	11923.41	4.0710	4.0710	0.7864	7.45	1.48	0.750			
0.1887	12075.45	4.0680	4.0678	0.7905	7.45	1.48	0.750			
0.1911	12227.88	4.0650	4.0650	0.7947	7.45	1.48	0.750			
0.1934	12380.13	4.0620	4.0620	0.7965	7.44	1.47	0.750			
0.1958	12533.90	4.0590	4.0590	0.7996	7.44	1.47	0.750			
0.1982	12687.16	4.0560	4.0560	0.8007	7.43	1.46	0.750			
0.2006	12841.37	4.0530	4.0529	0.8067	7.43	1.46	0.750			
0.2031	12996.89	4.0500	4.0500	0.8090	7.43	1.46	0.750			
0.2055	13153.72	4.0470	4.0470	0.8068	7.43	1.46	0.750			
0.2079	13308.80	4.0440	4.0440	0.8107	7.43	1.46	0.750			
0.2104	13463.79	4.0410	4.0411	0.8150	7.43	1.46	0.750			
0.2128	13619.52	4.0380	4.0379	0.8187	7.43	1.46	0.750			
0.2153	13777.40	4.0350	4.0350	0.8186	7.42	1.45	0.750			
0.2177	13935.10	4.0320	4.0320	0.8185	7.42	1.45	0.750			
0.2202	14092.98	4.0290	4.0291	0.8255	7.41	1.44	0.750			
0.2227	14253.01	4.0260	4.0260	0.8313	7.40	1.43	0.750			
0.2252	14411.43	4.0230	4.0229	0.8302	7.39	1.42	0.750			
0.2277	14571.10	4.0200	4.0201	0.8358	7.39	1.42	0.750			
0.2302	14732.61	4.0170	4.0171	0.8358	7.39	1.42	0.750			
0.2327	14893.44	4.0140	4.0140	0.8417	7.38	1.41	0.750			
0.2352	15055.14	4.0110	4.0111	0.8438	7.38	1.41	0.750			
0.2378	15216.60	4.0080	4.0079	0.8449	7.38	1.41	0.750			
0.2403	15378.66	4.0050	4.0050	0.8501	7.38	1.41	0.750			
0.2429	15543.26	4.0020	4.0021	0.8493	7.37	1.40	0.750			
0.2454	15705.59	3.9990	3.9990	0.8521	7.36	1.39	0.750			
0.2480	15869.10	3.9960	3.9961	0.8588	7.36	1.39	0.750			
0.2505	16035.03	3.9930	3.9929	0.8609	7.35	1.38	0.750			
0.2531	16200.62	3.9900	3.9900	0.8674	7.35	1.38	0.750			
0.2558	16368.30	3.9870	3.9871	0.8683	7.34	1.37	0.750			
0.2584	16535.51	3.9840	3.9841	0.8721	7.34	1.37	0.750			
0.2610	16703.17	3.9810	3.9810	0.8725	7.33	1.36	0.750			
0.2636	16870.95	3.9780	3.9777	0.8729	7.33	1.36	0.750			
0.2662	17037.37	3.9750	3.9751	0.8715	7.33	1.36	0.750			
0.2688	17205.89	3.9720	3.9720	0.8778	7.32	1.35	0.750			
0.2715	17374.21	3.9690	3.9691	0.8817	7.32	1.35	0.750			
0.2741	17544.49	3.9660	3.9660	0.8893	7.31	1.34	0.750			
0.2768	17714.54	3.9630	3.9630	0.8907	7.31	1.34	0.750			
0.2795	17888.48	3.9600	3.9600	0.8872	7.30	1.33	0.750			
0.2822	18058.82	3.9570	3.9570	0.8979	7.29	1.32	0.750			
0.2848	18229.94	3.9540	3.9541	0.9057	7.28	1.31	0.750			
0.2875	18402.54	3.9510	3.9509	0.9127	7.27	1.30	0.750			
0.2903	18579.72	3.9480	3.9481	0.9173	7.27	1.30	0.750			
0.2931	18756.61	3.9450	3.9450	0.9253	7.26	1.29	0.750			
0.2959	18939.32	3.9420	3.9420	0.9161	7.26	1.29	0.750			
0.2987	19118.21	3.9390	3.9390	0.9128	7.25	1.28	0.750			
0.3014	19286.69	3.9360	3.9362	0.9087	7.25	1.28	0.750			
0.3041	19460.91	3.9330	3.9329	0.8993	7.25	1.28	0.750			
0.3067	19627.54	3.9300	3.9299	0.9137	7.24	1.27	0.750			
0.3094	19804.31	3.9270	3.9270	0.9353	7.24	1.27	0.750			
0.3123	19985.28	3.9240	3.9241	0.9568	7.23	1.26	0.750			
0.3153	20176.58	3.9210	3.9211	0.9751	7.22	1.25	0.750			
0.3182	20365.15	3.9180	3.9181	0.9854	7.22	1.25	0.750			
0.3212	20554.13	3.9150	3.9151	0.9965	7.21	1.24	0.750			
0.3242	20748.39	3.9120	3.9120	1.0072	7.20	1.23	0.750			
0.3272	20940.46	3.9090	3.9090	1.0036	7.19	1.22	0.750			
0.3302	21133.35	3.9060	3.9059	1.0159	7.18	1.21	0.750			
0.3333	21328.57	3.9030	3.9032	1.0287	7.17	1.20	0.750			
0.3364	21527.57	3.9000	3.9000	1.0444	7.16	1.19	0.750			
0.3395	21730.90	3.8970	3.8969	1.0442	7.15	1.18	0.750			
0.3427	21931.56	3.8940	3.8940	1.0539	7.14	1.17	0.750			
0.3458	22134.09	3.8910	3.8911	1.0682	7.14	1.17	0.750			
0.3491	22340.12	3.8880	3.8880	1.0817	7.13	1.16	0.750			
0.3524	22550.42	3.8850	3.8848	1.0766	7.13	1.16	0.750			
0.3556	22755.67	3.8820	3.8820	1.0942	7.12	1.15	0.750			
0.3588	22966.20	3.8790	3.8792	1.1105	7.12	1.15	0.750			
0.3622	23182.26	3.8760	3.8760	1.1289	7.11	1.14	0.750			
0.3656	23399.03	3.8730	3.8731	1.1384	7.10	1.13	0.750			
0.3690	23616.16	3.8700	3.8701	1.1555	7.09	1.12	0.750			
0.3725	23842.04	3.8670	3.8670	1.1788	7.08	1.11	0.750			
0.3762	24076.73	3.8640	3.8637	1.1889	7.07	1.10	0.750			
0.3797	24301.22	3.8610	3.8611	1.1979	7.06	1.09	0.750			
0.3833	24533.28	3.8580	3.8582	1.2173	7.06	1.09	0.750			
0.3870	24769.62	3.8550	3.8549	1.2343	7.05	1.08	0.750			
0.3907	25004.31	3.8520	3.8520	1.2517	7.04	1.07	0.750			
0.3945	25245.39	3.8490	3.8491	1.2722	7.03	1.06	0.750			
0.3984	25497.28	3.8460	3.8461	1.2899	7.02	1.05	0.750			
0.4023	25749.31	3.8430	3.8429	1.3349	7.01	1.04	0.750			
0.4063	26000.44	3.8400	3.8402	1.3636	6.99	1.02	0.750			
0.4105	26270.68	3.8370	3.8370	1.3823	6.98	1.01	0.750			
0.4146	26537.16	3.8340	3.8339	1.4295	6.97	1.00	0.750	0.397	0.936	
0.4190	26815.55	3.8310	3.8310	1.4573	6.95	0.98	0.750			
0.4235	27104.07	3.8280	3.8281	1.4855	6.94	0.97	0.750			
0.4280	27391.18	3.8250	3.8252	1.5195	6.92	0.95	0.750			
0.4325	27680.60	3.8220	3.8220	1.5467	6.91	0.94	0.750			
0.4372	27980.79	3.8190	3.8190	1.5617	6.89	0.92	0.750			
0.4420	28286.15	3.8160	3.8161	1.5742	6.88	0.91	0.750			
0.4467	28590.12	3.8130	3.8131	1.6277	6.86	0.89	0.750			
0.4516	28904.73	3.8100	3.8098	1.6505	6.85	0.88	0.750			
0.4566	29223.25	3.8070	3.8072	1.6814	6.83	0.86	0.750			
0.4618	29555.37	3.8040	3.8042	1.7147	6.82	0.85	0.750			
0.4671	29892.40	3.8010	3.8012	1.7670	6.79	0.82	0.750			
0.4724	30233.23	3.7980	3.7981	1.8126	6.77	0.80	0.750			
0.4779	30583.21	3.7950	3.7949	1.8444	6.74	0.77	0.750			
0.4834	30938.79	3.7920	3.7919	1.8880	6.71	0.74	0.750			
0.4892	31307.07	3.7890	3.7893	1.9238	6.69	0.72	0.750			
0.4950	31680.60	3.7860	3.7859	1.9320	6.67	0.70	0.750			
0.5010	32062.65	3.7830	3.7826	1.9790	6.65	0.68	0.750			
0.5069	32439.52	3.7800	3.7799	2.0642	6.62	0.65	0.750			
0.5132	32843.26	3.7770	3.7770	2.0604	6.59	0.62	0.750			
0.5195	33249.93	3.7740	3.7738	2.0636	6.56	0.59	0.750			
0.5258	33650.88	3.7710	3.7708	2.0801	6.53	0.56	0.750			
0.5321	34054.94	3.7680	3.7677	2.0974	6.50	0.53	0.750			
0.5381	34439.31	3.7650	3.7649	2.0729	6.47	0.50	0.750			
0.5446	34856.77	3.7620	3.7623	2.1543	6.44	0.47	0.750			
0.5510	35261.32	3.7590	3.7590	2.2009	6.41	0.44	0.750			
0.5577	35695.50	3.7560	3.7561	2.2751	6.39	0.42	0.750			
0.5648	36147.14	3.7530	3.7529	2.3379	6.36	0.39	0.750			
0.5718	36594.94	3.7500	3.7499	2.3460	6.33	0.36	0.750			
0.5789	37047.89	3.7470	3.7473	2.3845	6.30	0.33	0.750			
0.5863	37522.71	3.7440	3.7438	2.4480	6.28	0.31	0.750			
0.5937	37999.93	3.7410	3.7409	2.5135	6.25	0.28	0.750			
0.6014	38492.71	3.7380	3.7375	2.6017	6.21	0.24	0.750			
0.6093	38992.09	3.7350	3.7351	2.6583	6.18	0.21	0.750			
0.6177	39532.89	3.7320	3.7320	2.7411	6.15	0.18	0.750			
0.6257	40045.29	3.7290	3.7290	2.7587	6.12	0.15	0.750			
0.6340	40578.85	3.7260	3.7259	2.8936	6.09	0.12	0.750			
0.6430	41155.02	3.7230	3.7231	2.9103	6.06	0.09	0.750			
0.6517	41710.81	3.7200	3.7199	2.7929	6.04	0.07	0.750			
0.6598	42228.02	3.7170	3.7170	2.6215	6.02	0.05	0.750			
0.6677	42733.35	3.7140	3.7141	2.5080	6.00	0.03	0.750			
0.6752	43209.90	3.7110	3.7108	2.3145	5.98	0.01	0.750			
0.6815	43618.41	3.7080	3.7080	2.0278	5.98	0.01	0.750			
0.6871	43973.06	3.7050	3.7052	1.7748	5.97	0.00	0.750			
0.6919	44284.34	3.7020	3.7018	1.5322	5.96	-0.01	0.750			
0.6962	44559.13	3.6990	3.6991	1.3586	5.96	-0.01	0.750			
0.6999	44792.53	3.6960	3.6959	1.1961	5.95	-0.02	0.750			
0.7032	45001.64	3.6930	3.6930	1.0840	5.95	-0.02	0.750			
0.7060	45185.43	3.6900	3.6902	0.9629	5.96	-0.01	0.750			
0.7088	45362.11	3.6870	3.6868	0.9061	5.96	-0.01	0.750			
0.7114	45526.68	3.6840	3.6840	0.8524	5.97	-0.00	0.750			
0.7138	45680.17	3.6810	3.6808	0.7937	5.97	0.00	0.750			
0.7161	45831.40	3.6780	3.6780	0.7568	5.97	0.00	0.750			
0.7184	45975.20	3.6750	3.6751	0.7092	5.97	0.00	0.750			
0.7204	46107.70	3.6720	3.6719	0.6569	5.97	0.00	0.750			
0.7223	46228.09	3.6690	3.6690	0.6074	5.97	0.00	0.750			
0.7241	46339.28	3.6660	3.6660	0.5574	5.97	0.00	0.750			
0.7256	46439.70	3.6630	3.6628	0.5071	5.97	0.00	0.750			
0.7271	46533.48	3.6600	3.6601	0.4636	5.97	0.00	0.750			
0.7284	46617.54	3.6570	3.6571	0.4185	5.97	0.00	0.750			
0.7296	46693.60	3.6540	3.6540	0.3762	5.97	0.00	0.750			
0.7306	46761.01	3.6510	3.6510	0.3362	5.97	0.00	0.750			
0.7316	46820.27	3.6480	3.6480	0.2976	5.97	0.00	0.750			
0.7324	46874.53	3.6450	3.6449	0.2601	5.97	0.00	0.750			
0.7331	46921.15	3.6420	3.6420	0.2238	5.97	0.00	0.750			
0.7338	46961.30	3.6390	3.6391	0.1877	5.97	0.00	0.750			
0.7343	46994.68	3.6360	3.6361	0.1497	5.97	0.00	0.750			
0.7347	47020.43	3.6330	3.6333	0.1085	5.97	0.00	0.750			
0.7350	47037.08	3.6300	3.6308	0.0666	5.97	0.00	0.750			
0.7351	47045.84	3.6270	3.6285	0.0247	5.97	0.00	0.750			
