Ah_balance (normalized)	Ah_balance (mAh)	Voltage - fit (V)	Voltage -  interpolate (V)	dQ/dV (1/V)	Temperature (°C)	Temperature - diff (°C)	Current (C)	R_DC 0ms (mOhm)	R_DC 50ms (mOhm)	R_DC 50 ms PEC (mOhm)
0.1770	11330.73	4.0800	4.0800	0.7767	7.73	1.74	0.750			
0.1794	11481.24	4.0770	4.0765	0.7777	7.73	1.74	0.750			
0.1817	11628.60	4.0740	4.0741	0.7750	7.73	1.74	0.750			
0.1840	11778.05	4.0710	4.0711	0.7710	7.72	1.73	0.750			
0.1863	11926.25	4.0680	4.0679	0.7709	7.72	1.73	0.750			
0.1887	12073.96	4.0650	4.0651	0.7702	7.72	1.73	0.750			
0.1909	12219.58	4.0620	4.0620	0.7727	7.71	1.72	0.750			
0.1932	12367.46	4.0590	4.0590	0.7737	7.71	1.72	0.750			
0.1956	12519.02	4.0560	4.0559	0.7751	7.70	1.71	0.750			
0.1979	12666.12	4.0530	4.0532	0.7761	7.70	1.71	0.750			
0.2003	12816.21	4.0500	4.0500	0.7870	7.69	1.70	0.750			
0.2026	12966.90	4.0470	4.0470	0.7894	7.68	1.69	0.750			
0.2050	13117.62	4.0440	4.0439	0.7944	7.68	1.69	0.750			
0.2073	13270.38	4.0410	4.0411	0.8030	7.68	1.69	0.750			
0.2098	13427.35	4.0380	4.0380	0.8055	7.67	1.68	0.750			
0.2122	13582.21	4.0350	4.0350	0.8095	7.67	1.68	0.750			
0.2146	13736.44	4.0320	4.0321	0.8115	7.66	1.67	0.750			
0.2171	13892.96	4.0290	4.0287	0.8149	7.66	1.67	0.750			
0.2195	14050.53	4.0260	4.0260	0.8182	7.65	1.66	0.750			
0.2220	14207.42	4.0230	4.0230	0.8217	7.65	1.66	0.750			
0.2245	14366.50	4.0200	4.0201	0.8268	7.64	1.65	0.750			
0.2270	14525.33	4.0170	4.0170	0.8235	7.64	1.65	0.750			
0.2294	14683.24	4.0140	4.0140	0.8297	7.63	1.64	0.750			
0.2319	14843.08	4.0110	4.0110	0.8350	7.63	1.64	0.750			
0.2344	15004.03	4.0080	4.0080	0.8354	7.63	1.64	0.750			
0.2369	15163.86	4.0050	4.0051	0.8374	7.62	1.63	0.750			
0.2394	15324.00	4.0020	4.0021	0.8402	7.62	1.63	0.750			
0.2420	15485.89	3.9990	3.9986	0.8457	7.62	1.63	0.750			
0.2445	15649.91	3.9960	3.9961	0.8453	7.61	1.62	0.750			
0.2471	15811.55	3.9930	3.9931	0.8455	7.61	1.62	0.750			
0.2496	15974.79	3.9900	3.9900	0.8541	7.60	1.61	0.750			
0.2522	16138.38	3.9870	3.9870	0.8508	7.60	1.61	0.750			
0.2547	16301.56	3.9840	3.9840	0.8546	7.59	1.60	0.750			
0.2573	16465.81	3.9810	3.9810	0.8603	7.58	1.59	0.750			
0.2599	16632.63	3.9780	3.9781	0.8640	7.57	1.58	0.750			
0.2625	16798.94	3.9750	3.9750	0.8735	7.56	1.57	0.750			
0.2651	16966.93	3.9720	3.9720	0.8741	7.56	1.57	0.750			
0.2677	17134.53	3.9690	3.9690	0.8785	7.55	1.56	0.750			
0.2704	17304.23	3.9660	3.9660	0.8873	7.54	1.55	0.750			
0.2731	17475.46	3.9630	3.9630	0.8882	7.54	1.55	0.750			
0.2757	17646.16	3.9600	3.9600	0.8910	7.54	1.55	0.750			
0.2784	17818.10	3.9570	3.9570	0.8969	7.53	1.54	0.750			
0.2811	17989.21	3.9540	3.9540	0.8996	7.52	1.53	0.750			
0.2838	18163.89	3.9510	3.9510	0.8971	7.52	1.53	0.750			
0.2865	18333.18	3.9480	3.9481	0.9089	7.51	1.52	0.750			
0.2892	18507.37	3.9450	3.9451	0.9159	7.50	1.51	0.750			
0.2920	18685.34	3.9420	3.9416	0.9234	7.49	1.50	0.750			
0.2947	18863.80	3.9390	3.9391	0.9251	7.48	1.49	0.750			
0.2975	19041.87	3.9360	3.9361	0.9390	7.48	1.49	0.750			
0.3004	19224.45	3.9330	3.9330	0.9515	7.47	1.48	0.750			
0.3032	19407.07	3.9300	3.9299	0.9516	7.46	1.47	0.750			
0.3061	19590.75	3.9270	3.9271	0.9512	7.46	1.47	0.750			
0.3090	19775.92	3.9240	3.9241	0.9606	7.45	1.46	0.750			
0.3119	19960.31	3.9210	3.9211	0.9657	7.45	1.46	0.750			
0.3148	20145.43	3.9180	3.9179	0.9701	7.44	1.45	0.750			
0.3177	20330.27	3.9150	3.9149	0.9753	7.44	1.45	0.750			
0.3206	20517.54	3.9120	3.9121	0.9815	7.43	1.44	0.750			
0.3236	20708.31	3.9090	3.9090	0.9933	7.42	1.43	0.750			
0.3266	20900.21	3.9060	3.9060	1.0105	7.42	1.43	0.750			
0.3296	21093.87	3.9030	3.9028	1.0232	7.41	1.42	0.750			
0.3327	21291.62	3.9000	3.9000	1.0220	7.40	1.41	0.750			
0.3358	21488.50	3.8970	3.8972	1.0380	7.40	1.41	0.750			
0.3389	21689.40	3.8940	3.8941	1.0495	7.39	1.40	0.750			
0.3421	21893.67	3.8910	3.8905	1.0569	7.39	1.40	0.750			
0.3452	22093.92	3.8880	3.8881	1.0694	7.37	1.38	0.750			
0.3484	22297.85	3.8850	3.8851	1.0889	7.36	1.37	0.750			
0.3518	22512.03	3.8820	3.8820	1.1086	7.34	1.35	0.750			
0.3551	22728.63	3.8790	3.8789	1.1094	7.33	1.34	0.750			
0.3585	22941.99	3.8760	3.8761	1.1240	7.32	1.33	0.750			
0.3619	23160.61	3.8730	3.8732	1.1406	7.32	1.33	0.750			
0.3653	23380.75	3.8700	3.8699	1.1503	7.31	1.32	0.750			
0.3688	23600.33	3.8670	3.8670	1.1573	7.30	1.31	0.750			
0.3722	23821.42	3.8640	3.8641	1.1727	7.29	1.30	0.750			
0.3758	24049.58	3.8610	3.8610	1.1993	7.28	1.29	0.750			
0.3795	24286.52	3.8580	3.8578	1.2169	7.27	1.28	0.750			
0.3831	24517.73	3.8550	3.8550	1.2311	7.26	1.27	0.750			
0.3868	24756.82	3.8520	3.8521	1.2545	7.24	1.25	0.750			
0.3906	25000.36	3.8490	3.8489	1.2743	7.22	1.23	0.750			
0.3944	25243.92	3.8460	3.8461	1.2920	7.21	1.22	0.750			
0.3982	25485.48	3.8430	3.8432	1.3342	7.20	1.21	0.750			
0.4023	25747.91	3.8400	3.8399	1.3657	7.19	1.20	0.750			
0.4065	26013.98	3.8370	3.8372	1.4099	7.18	1.19	0.750	0.400	0.889	
0.4108	26290.67	3.8340	3.8342	1.4417	7.16	1.17	0.750			
0.4153	26577.29	3.8310	3.8310	1.4518	7.14	1.15	0.750			
0.4197	26862.21	3.8280	3.8280	1.4953	7.12	1.13	0.750			
0.4240	27137.25	3.8250	3.8251	1.4757	7.11	1.12	0.750			
0.4285	27421.50	3.8220	3.8218	1.5047	7.09	1.10	0.750			
0.4329	27708.76	3.8190	3.8191	1.5008	7.08	1.09	0.750			
0.4375	27997.12	3.8160	3.8161	1.5275	7.06	1.07	0.750			
0.4420	28290.48	3.8130	3.8126	1.5795	7.05	1.06	0.750			
0.4468	28597.83	3.8100	3.8100	1.5985	7.02	1.03	0.750			
0.4517	28911.53	3.8070	3.8070	1.6501	6.99	1.00	0.750			
0.4569	29240.03	3.8040	3.8040	1.7195	6.97	0.98	0.750			
0.4619	29561.90	3.8010	3.8008	1.7748	6.94	0.95	0.750			
0.4673	29906.41	3.7980	3.7981	1.8212	6.91	0.92	0.750			
0.4730	30271.96	3.7950	3.7949	1.8618	6.89	0.90	0.750			
0.4787	30638.93	3.7920	3.7920	1.8889	6.87	0.88	0.750			
0.4844	31004.79	3.7890	3.7890	1.8874	6.85	0.86	0.750			
0.4899	31353.29	3.7860	3.7859	1.8791	6.82	0.83	0.750			
0.4956	31716.09	3.7830	3.7829	1.8711	6.79	0.80	0.750			
0.5011	32071.09	3.7800	3.7801	1.8783	6.76	0.77	0.750			
0.5068	32433.78	3.7770	3.7769	1.9076	6.73	0.74	0.750			
0.5127	32813.28	3.7740	3.7740	1.9183	6.70	0.71	0.750			
0.5184	33178.10	3.7710	3.7712	1.9608	6.67	0.68	0.750			
0.5243	33556.56	3.7680	3.7682	1.9505	6.64	0.65	0.750			
0.5300	33919.89	3.7650	3.7648	1.9536	6.62	0.63	0.750			
0.5360	34301.05	3.7620	3.7619	2.0119	6.59	0.60	0.750			
0.5422	34698.52	3.7590	3.7589	2.0349	6.56	0.57	0.750			
0.5482	35087.14	3.7560	3.7561	2.0170	6.52	0.53	0.750			
0.5544	35482.71	3.7530	3.7528	2.0504	6.49	0.50	0.750			
0.5605	35868.96	3.7500	3.7503	2.0944	6.46	0.47	0.750			
0.5667	36270.89	3.7470	3.7471	2.1603	6.43	0.44	0.750			
0.5734	36696.95	3.7440	3.7439	2.2613	6.40	0.41	0.750			
0.5805	37148.99	3.7410	3.7410	2.3418	6.38	0.39	0.750			
0.5874	37593.89	3.7380	3.7381	2.3778	6.35	0.36	0.750			
0.5946	38054.46	3.7350	3.7351	2.4109	6.32	0.33	0.750			
0.6019	38521.02	3.7320	3.7319	2.4614	6.28	0.29	0.750			
0.6094	39000.33	3.7290	3.7290	2.4766	6.25	0.26	0.750			
0.6170	39487.96	3.7260	3.7260	2.4823	6.21	0.22	0.750			
0.6246	39973.46	3.7230	3.7230	2.4592	6.19	0.20	0.750			
0.6321	40454.76	3.7200	3.7198	2.3844	6.16	0.17	0.750			
0.6391	40901.94	3.7170	3.7167	2.1845	6.14	0.15	0.750			
0.6453	41299.24	3.7140	3.7142	1.9832	6.12	0.13	0.750			
0.6507	41642.26	3.7110	3.7110	1.7230	6.10	0.11	0.750			
0.6556	41956.10	3.7080	3.7078	1.5559	6.09	0.10	0.750			
0.6599	42230.43	3.7050	3.7051	1.3935	6.07	0.08	0.750			
0.6638	42480.99	3.7020	3.7020	1.2773	6.06	0.07	0.750			
0.6673	42707.54	3.6990	3.6990	1.1610	6.05	0.06	0.750			
0.6705	42910.90	3.6960	3.6961	1.0711	6.04	0.05	0.750			
0.6736	43109.70	3.6930	3.6930	1.0160	6.04	0.05	0.750			
0.6765	43296.32	3.6900	3.6900	0.9719	6.03	0.04	0.750			
0.6793	43475.22	3.6870	3.6870	0.9271	6.03	0.04	0.750			
0.6820	43650.65	3.6840	3.6840	0.8962	6.03	0.04	0.750			
0.6847	43819.96	3.6810	3.6810	0.8613	6.02	0.03	0.750			
0.6872	43982.53	3.6780	3.6780	0.8314	6.02	0.03	0.750			
0.6897	44138.63	3.6750	3.6751	0.8021	6.01	0.02	0.750			
0.6920	44289.75	3.6720	3.6718	0.7715	6.01	0.02	0.750			
0.6943	44434.62	3.6690	3.6690	0.7384	6.01	0.02	0.750			
0.6965	44573.42	3.6660	3.6661	0.7079	6.01	0.02	0.750			
0.6986	44708.95	3.6630	3.6630	0.6748	6.00	0.01	0.750			
0.7005	44834.20	3.6600	3.6599	0.6348	6.00	0.01	0.750			
0.7024	44952.29	3.6570	3.6571	0.6007	6.00	0.01	0.750			
0.7041	45064.31	3.6540	3.6538	0.5656	6.00	0.01	0.750			
0.7058	45169.80	3.6510	3.6510	0.5315	6.00	0.01	0.750			
0.7073	45268.69	3.6480	3.6480	0.4980	6.00	0.01	0.750			
0.7088	45360.64	3.6450	3.6450	0.4653	6.00	0.01	0.750			
0.7101	45446.84	3.6420	3.6419	0.4289	6.00	0.01	0.750			
0.7114	45526.71	3.6390	3.6390	0.3965	5.99	0.00	0.750			
0.7125	45599.04	3.6360	3.6359	0.3614	5.99	0.00	0.750			
0.7135	45665.54	3.6330	3.6330	0.3287	5.99	0.00	0.750			
0.7145	45725.25	3.6300	3.6300	0.2943	5.99	0.00	0.750			
0.7153	45779.71	3.6270	3.6269	0.2536	5.99	0.00	0.750			
0.7160	45825.69	3.6240	3.6241	0.2167	5.99	0.00	0.750			
0.7166	45864.74	3.6210	3.6211	0.1781	5.99	0.00	0.750			
0.7171	45896.62	3.6180	3.6182	0.1366	5.99	-0.00	0.750			
0.7175	45919.64	3.6150	3.6152	0.0904	5.99	-0.00	0.750			
0.7177	45932.85	3.6120	3.6123	0.0410	5.99	-0.00	0.750			
0.7177	45935.97	3.6090	3.6105	-0.0085	5.99	-0.00	0.750			
