Ah_balance (normalized)	Ah_balance (mAh)	Voltage - fit (V)	Voltage -  interpolate (V)	dQ/dV (1/V)	Temperature (°C)	Temperature - diff (°C)	Current (C)	R_DC 0ms (mOhm)	R_DC 50ms (mOhm)	R_DC 50 ms PEC (mOhm)
0.0941	6019.65	4.0060	4.0054	-0.0748	5.98	0.01	-0.750			
0.0943	6037.00	4.0030	4.0027	-0.1047	5.98	0.01	-0.750			
0.0947	6060.36	4.0000	3.9999	-0.1336	5.98	0.01	-0.750			
0.0951	6089.09	3.9970	3.9969	-0.1605	5.98	0.01	-0.750			
0.0957	6122.76	3.9940	3.9940	-0.1859	5.98	0.01	-0.750			
0.0963	6161.14	3.9910	3.9910	-0.2093	5.98	0.01	-0.750			
0.0969	6204.34	3.9880	3.9881	-0.2354	5.98	0.01	-0.750			
0.0977	6251.93	3.9850	3.9850	-0.2586	5.98	0.01	-0.750			
0.0985	6303.82	3.9820	3.9819	-0.2817	5.97	0.00	-0.750			
0.0994	6360.09	3.9790	3.9789	-0.3034	5.97	0.00	-0.750			
0.1003	6420.54	3.9760	3.9761	-0.3261	5.97	-0.00	-0.750			
0.1013	6484.86	3.9730	3.9730	-0.3526	5.97	-0.00	-0.750			
0.1024	6554.82	3.9700	3.9699	-0.3779	5.96	-0.01	-0.750			
0.1036	6629.60	3.9670	3.9669	-0.4008	5.96	-0.01	-0.750			
0.1048	6709.15	3.9640	3.9640	-0.4260	5.96	-0.01	-0.750			
0.1062	6793.86	3.9610	3.9611	-0.4513	5.95	-0.02	-0.750			
0.1076	6883.42	3.9580	3.9580	-0.4742	5.95	-0.02	-0.750			
0.1090	6976.81	3.9550	3.9550	-0.4946	5.95	-0.02	-0.750			
0.1105	7073.20	3.9520	3.9520	-0.5145	5.94	-0.03	-0.750			
0.1121	7174.52	3.9490	3.9491	-0.5355	5.94	-0.03	-0.750			
0.1137	7279.84	3.9460	3.9460	-0.5530	5.94	-0.03	-0.750			
0.1154	7387.27	3.9430	3.9430	-0.5719	5.94	-0.03	-0.750			
0.1172	7498.37	3.9400	3.9401	-0.5913	5.94	-0.03	-0.750			
0.1190	7613.41	3.9370	3.9369	-0.6107	5.93	-0.04	-0.750			
0.1208	7733.55	3.9340	3.9340	-0.6276	5.93	-0.04	-0.750			
0.1228	7856.14	3.9310	3.9310	-0.6401	5.93	-0.04	-0.750			
0.1247	7981.77	3.9280	3.9281	-0.6529	5.93	-0.04	-0.750			
0.1267	8108.71	3.9250	3.9250	-0.6625	5.93	-0.04	-0.750			
0.1287	8236.83	3.9220	3.9219	-0.6660	5.92	-0.05	-0.750			
0.1307	8364.73	3.9190	3.9190	-0.6772	5.92	-0.05	-0.750			
0.1327	8494.95	3.9160	3.9160	-0.6839	5.92	-0.05	-0.750			
0.1348	8628.42	3.9130	3.9129	-0.6909	5.91	-0.06	-0.750			
0.1369	8761.09	3.9100	3.9101	-0.6989	5.91	-0.06	-0.750			
0.1390	8895.64	3.9070	3.9070	-0.7083	5.91	-0.06	-0.750			
0.1411	9032.81	3.9040	3.9040	-0.7141	5.92	-0.05	-0.750			
0.1433	9171.34	3.9010	3.9009	-0.7222	5.92	-0.05	-0.750			
0.1455	9309.84	3.8980	3.8981	-0.7240	5.92	-0.05	-0.750			
0.1477	9450.55	3.8950	3.8950	-0.7329	5.93	-0.04	-0.750			
0.1499	9592.17	3.8920	3.8921	-0.7347	5.93	-0.04	-0.750			
0.1521	9732.71	3.8890	3.8890	-0.7342	5.93	-0.04	-0.750			
0.1543	9872.54	3.8860	3.8860	-0.7457	5.93	-0.04	-0.750			
0.1565	10017.50	3.8830	3.8830	-0.7485	5.93	-0.04	-0.750			
0.1588	10163.10	3.8800	3.8799	-0.7495	5.93	-0.04	-0.750			
0.1610	10306.96	3.8770	3.8770	-0.7512	5.93	-0.04	-0.750			
0.1633	10451.30	3.8740	3.8738	-0.7507	5.93	-0.04	-0.750			
0.1656	10595.85	3.8710	3.8710	-0.7546	5.93	-0.04	-0.750			
0.1678	10739.58	3.8680	3.8680	-0.7548	5.93	-0.04	-0.750			
0.1701	10883.67	3.8650	3.8650	-0.7547	5.94	-0.03	-0.750			
0.1724	11031.68	3.8620	3.8620	-0.7642	5.94	-0.03	-0.750			
0.1747	11178.85	3.8590	3.8591	-0.7659	5.94	-0.03	-0.750			
0.1770	11325.03	3.8560	3.8559	-0.7610	5.95	-0.02	-0.750			
0.1792	11470.29	3.8530	3.8531	-0.7657	5.95	-0.02	-0.750			
0.1815	11616.91	3.8500	3.8500	-0.7670	5.96	-0.01	-0.750			
0.1838	11763.94	3.8470	3.8468	-0.7716	5.96	-0.01	-0.750			
0.1862	11913.75	3.8440	3.8440	-0.7754	5.97	-0.00	-0.750			
0.1885	12062.55	3.8410	3.8411	-0.7774	5.97	0.00	-0.750			
0.1908	12213.63	3.8380	3.8380	-0.7820	5.97	0.00	-0.750			
0.1932	12365.30	3.8350	3.8350	-0.7789	5.97	0.00	-0.750			
0.1955	12512.85	3.8320	3.8320	-0.7712	5.98	0.01	-0.750			
0.1978	12661.62	3.8290	3.8290	-0.7700	5.98	0.01	-0.750			
0.2001	12808.08	3.8260	3.8263	-0.7707	5.98	0.01	-0.750			
0.2024	12955.81	3.8230	3.8229	-0.7729	5.98	0.01	-0.750			
0.2048	13104.51	3.8200	3.8199	-0.7737	5.98	0.01	-0.750			
0.2071	13253.29	3.8170	3.8171	-0.7765	5.99	0.02	-0.750			
0.2094	13403.93	3.8140	3.8140	-0.7809	5.99	0.02	-0.750			
0.2118	13553.96	3.8110	3.8111	-0.7802	5.99	0.02	-0.750			
0.2141	13702.79	3.8080	3.8079	-0.7827	5.99	0.02	-0.750			
0.2164	13852.78	3.8050	3.8050	-0.7824	6.00	0.03	-0.750			
0.2188	14003.79	3.8020	3.8020	-0.7828	6.00	0.03	-0.750			
0.2212	14154.57	3.7990	3.7990	-0.7824	6.00	0.03	-0.750			
0.2235	14305.95	3.7960	3.7960	-0.7811	6.01	0.04	-0.750			
0.2259	14455.82	3.7930	3.7930	-0.7786	6.01	0.04	-0.750			
0.2282	14602.14	3.7900	3.7900	-0.7840	6.02	0.05	-0.750			
0.2305	14753.08	3.7870	3.7869	-0.7841	6.02	0.05	-0.750			
0.2329	14905.19	3.7840	3.7840	-0.7866	6.02	0.05	-0.750			
0.2353	15056.68	3.7810	3.7810	-0.7874	6.03	0.06	-0.750			
0.2376	15209.30	3.7780	3.7782	-0.7907	6.03	0.06	-0.750			
0.2400	15361.30	3.7750	3.7750	-0.7893	6.03	0.06	-0.750			
0.2424	15511.78	3.7720	3.7720	-0.7868	6.04	0.07	-0.750			
0.2447	15661.11	3.7690	3.7690	-0.7853	6.04	0.07	-0.750			
0.2471	15813.17	3.7660	3.7660	-0.7923	6.05	0.08	-0.750			
0.2494	15964.79	3.7630	3.7630	-0.7915	6.05	0.08	-0.750			
0.2518	16116.83	3.7600	3.7600	-0.7948	6.05	0.08	-0.750			
0.2542	16269.79	3.7570	3.7570	-0.7959	6.06	0.09	-0.750			
0.2566	16423.88	3.7540	3.7540	-0.7975	6.07	0.10	-0.750			
0.2590	16576.77	3.7510	3.7510	-0.7997	6.07	0.10	-0.750			
0.2614	16729.40	3.7480	3.7480	-0.8048	6.08	0.11	-0.750			
0.2638	16884.62	3.7450	3.7450	-0.8073	6.08	0.11	-0.750			
0.2662	17038.70	3.7420	3.7419	-0.8160	6.09	0.12	-0.750			
0.2687	17196.94	3.7390	3.7390	-0.8167	6.10	0.13	-0.750			
0.2712	17355.56	3.7360	3.7360	-0.8220	6.10	0.13	-0.750			
0.2737	17514.00	3.7330	3.7329	-0.8203	6.11	0.14	-0.750			
0.2761	17670.94	3.7300	3.7299	-0.8227	6.11	0.14	-0.750			
0.2786	17828.27	3.7270	3.7270	-0.8254	6.11	0.14	-0.750			
0.2810	17985.48	3.7240	3.7240	-0.8328	6.11	0.14	-0.750			
0.2835	18145.21	3.7210	3.7210	-0.8303	6.11	0.14	-0.750			
0.2861	18308.30	3.7180	3.7178	-0.8371	6.11	0.14	-0.750			
0.2886	18469.00	3.7150	3.7150	-0.8401	6.11	0.14	-0.750			
0.2911	18630.61	3.7120	3.7122	-0.8462	6.12	0.15	-0.750			
0.2936	18791.81	3.7090	3.7089	-0.8491	6.12	0.15	-0.750			
0.2962	18954.44	3.7060	3.7060	-0.8549	6.12	0.15	-0.750			
0.2988	19120.12	3.7030	3.7030	-0.8644	6.13	0.16	-0.750			
0.3014	19287.99	3.7000	3.7000	-0.8799	6.13	0.16	-0.750			
0.3040	19457.38	3.6970	3.6970	-0.8900	6.14	0.17	-0.750			
0.3067	19630.05	3.6940	3.6939	-0.8926	6.14	0.17	-0.750			
0.3094	19802.67	3.6910	3.6910	-0.8970	6.15	0.18	-0.750			
0.3121	19976.09	3.6880	3.6882	-0.9014	6.15	0.18	-0.750			
0.3148	20147.76	3.6850	3.6849	-0.9136	6.15	0.18	-0.750			
0.3176	20324.40	3.6820	3.6820	-0.9178	6.15	0.18	-0.750			
0.3203	20500.88	3.6790	3.6789	-0.9149	6.15	0.18	-0.750			
0.3231	20679.18	3.6760	3.6760	-0.9263	6.15	0.18	-0.750			
0.3259	20857.31	3.6730	3.6731	-0.9291	6.15	0.18	-0.750			
0.3287	21034.23	3.6700	3.6700	-0.9381	6.16	0.19	-0.750			
0.3314	21211.71	3.6670	3.6669	-0.9521	6.16	0.19	-0.750			
0.3343	21393.95	3.6640	3.6640	-0.9644	6.17	0.20	-0.750			
0.3372	21584.00	3.6610	3.6613	-0.9858	6.17	0.20	-0.750			
0.3403	21777.86	3.6580	3.6579	-1.0128	6.17	0.20	-0.750			
0.3434	21975.30	3.6550	3.6550	-1.0163	6.18	0.21	-0.750			
0.3464	22171.28	3.6520	3.6519	-1.0233	6.18	0.21	-0.750			
0.3495	22368.24	3.6490	3.6491	-1.0385	6.19	0.22	-0.750			
0.3526	22566.05	3.6460	3.6459	-1.0403	6.19	0.22	-0.750			
0.3557	22765.29	3.6430	3.6429	-1.0486	6.19	0.22	-0.750			
0.3588	22964.95	3.6400	3.6399	-1.0641	6.19	0.22	-0.750			
0.3620	23171.16	3.6370	3.6371	-1.0855	6.19	0.22	-0.750			
0.3654	23382.89	3.6340	3.6339	-1.1018	6.19	0.22	-0.750			
0.3687	23597.27	3.6310	3.6310	-1.1118	6.20	0.23	-0.750			
0.3721	23812.61	3.6280	3.6280	-1.1220	6.21	0.24	-0.750			
0.3754	24027.58	3.6250	3.6251	-1.1514	6.21	0.24	-0.750			
0.3789	24252.50	3.6220	3.6220	-1.1627	6.21	0.24	-0.750			
0.3824	24474.20	3.6190	3.6188	-1.1756	6.21	0.24	-0.750			
0.3860	24703.11	3.6160	3.6160	-1.1924	6.21	0.24	-0.750			
0.3896	24936.86	3.6130	3.6129	-1.2193	6.21	0.24	-0.750			
0.3933	25173.02	3.6100	3.6099	-1.2312	6.21	0.24	-0.750			
0.3970	25410.79	3.6070	3.6070	-1.2451	6.22	0.25	-0.750			
0.4008	25648.65	3.6040	3.6043	-1.2526	6.22	0.25	-0.750			
0.4047	25898.90	3.6010	3.6008	-1.2689	6.22	0.25	-0.750			
0.4084	26139.65	3.5980	3.5982	-1.2699	6.23	0.26	-0.750	0.500	1.135	
0.4122	26379.64	3.5950	3.5950	-1.2749	6.23	0.26	-0.750			
0.4161	26631.67	3.5920	3.5920	-1.2971	6.24	0.27	-0.750			
0.4200	26879.11	3.5890	3.5889	-1.3052	6.24	0.27	-0.750			
0.4239	27129.50	3.5860	3.5862	-1.3278	6.25	0.28	-0.750			
0.4280	27389.36	3.5830	3.5829	-1.3478	6.25	0.28	-0.750			
0.4321	27653.27	3.5800	3.5798	-1.3600	6.25	0.28	-0.750			
0.4361	27913.08	3.5770	3.5771	-1.3722	6.25	0.28	-0.750			
0.4402	28175.09	3.5740	3.5740	-1.3847	6.25	0.28	-0.750			
0.4444	28440.03	3.5710	3.5710	-1.4248	6.26	0.29	-0.750			
0.4487	28717.38	3.5680	3.5679	-1.4331	6.26	0.29	-0.750			
0.4531	28996.90	3.5650	3.5649	-1.4277	6.26	0.29	-0.750			
0.4575	29281.81	3.5620	3.5619	-1.4329	6.27	0.30	-0.750			
0.4617	29549.27	3.5590	3.5593	-1.4794	6.27	0.30	-0.750			
0.4661	29830.96	3.5560	3.5559	-1.4892	6.28	0.31	-0.750			
0.4705	30115.10	3.5530	3.5526	-1.5062	6.28	0.31	-0.750			
0.4751	30408.63	3.5500	3.5494	-1.5224	6.29	0.32	-0.750			
0.4799	30711.57	3.5470	3.5466	-1.5552	6.30	0.33	-0.750			
0.4846	31013.65	3.5440	3.5438	-1.5875	6.31	0.34	-0.750			
0.4893	31316.57	3.5410	3.5408	-1.6033	6.31	0.34	-0.750			
0.4940	31617.16	3.5380	3.5379	-1.6058	6.31	0.34	-0.750			
0.4989	31930.71	3.5350	3.5355	-1.6126	6.31	0.34	-0.750			
0.5039	32249.64	3.5320	3.5320	-1.6199	6.32	0.35	-0.750			
0.5088	32562.76	3.5290	3.5288	-1.6532	6.32	0.35	-0.750			
0.5137	32876.72	3.5260	3.5260	-1.6251	6.33	0.36	-0.750			
0.5187	33194.45	3.5230	3.5230	-1.6376	6.34	0.37	-0.750			
0.5237	33513.77	3.5200	3.5203	-1.6583	6.35	0.38	-0.750			
0.5287	33833.98	3.5170	3.5168	-1.6572	6.36	0.39	-0.750			
0.5334	34135.27	3.5140	3.5140	-1.6605	6.36	0.39	-0.750			
0.5384	34457.52	3.5110	3.5111	-1.6659	6.37	0.40	-0.750			
0.5435	34785.52	3.5080	3.5080	-1.6863	6.38	0.41	-0.750			
0.5488	35120.10	3.5050	3.5052	-1.6931	6.39	0.42	-0.750			
0.5538	35443.48	3.5020	3.5019	-1.6809	6.40	0.43	-0.750			
0.5589	35768.27	3.4990	3.4989	-1.6781	6.41	0.44	-0.750			
0.5638	36083.77	3.4960	3.4959	-1.6566	6.42	0.45	-0.750			
0.5688	36404.23	3.4930	3.4931	-1.6556	6.44	0.47	-0.750			
0.5738	36723.69	3.4900	3.4899	-1.6538	6.45	0.48	-0.750			
0.5788	37042.69	3.4870	3.4870	-1.6514	6.46	0.49	-0.750			
0.5837	37358.64	3.4840	3.4839	-1.6526	6.46	0.49	-0.750			
0.5888	37680.10	3.4810	3.4810	-1.6449	6.47	0.50	-0.750			
0.5936	37992.40	3.4780	3.4781	-1.6243	6.48	0.51	-0.750			
0.5985	38305.91	3.4750	3.4752	-1.6069	6.49	0.52	-0.750			
0.6033	38614.03	3.4720	3.4719	-1.5773	6.50	0.53	-0.750			
0.6080	38913.84	3.4690	3.4688	-1.5749	6.52	0.55	-0.750			
0.6127	39213.81	3.4660	3.4661	-1.5472	6.53	0.56	-0.750			
0.6173	39507.44	3.4630	3.4628	-1.5242	6.55	0.58	-0.750			
0.6218	39793.34	3.4600	3.4599	-1.5506	6.56	0.59	-0.750			
0.6265	40094.84	3.4570	3.4570	-1.5487	6.58	0.61	-0.750			
0.6314	40406.58	3.4540	3.4536	-1.5312	6.59	0.62	-0.750			
0.6359	40699.74	3.4510	3.4515	-1.5079	6.61	0.64	-0.750			
0.6405	40990.67	3.4480	3.4480	-1.4799	6.63	0.66	-0.750			
0.6448	41265.73	3.4450	3.4447	-1.4436	6.65	0.68	-0.750			
0.6489	41531.04	3.4420	3.4422	-1.3986	6.67	0.70	-0.750			
0.6530	41793.06	3.4390	3.4389	-1.3722	6.68	0.71	-0.750			
0.6573	42064.49	3.4360	3.4360	-1.3562	6.68	0.71	-0.750			
0.6613	42321.23	3.4330	3.4331	-1.3329	6.69	0.72	-0.750			
0.6651	42569.21	3.4300	3.4299	-1.2814	6.71	0.74	-0.750			
0.6690	42817.13	3.4270	3.4268	-1.2573	6.73	0.76	-0.750			
0.6727	43053.87	3.4240	3.4241	-1.2218	6.76	0.79	-0.750			
0.6763	43284.87	3.4210	3.4209	-1.1967	6.77	0.80	-0.750			
0.6799	43514.59	3.4180	3.4180	-1.1733	6.79	0.82	-0.750			
0.6834	43738.07	3.4150	3.4149	-1.1426	6.80	0.83	-0.750			
0.6867	43951.24	3.4120	3.4122	-1.1079	6.81	0.84	-0.750			
0.6901	44165.36	3.4090	3.4089	-1.0897	6.82	0.85	-0.750			
0.6933	44369.16	3.4060	3.4060	-1.0577	6.84	0.87	-0.750			
0.6964	44569.18	3.4030	3.4029	-1.0343	6.85	0.88	-0.750			
0.6994	44763.18	3.4000	3.4001	-1.0047	6.87	0.90	-0.750			
0.7024	44956.19	3.3970	3.3970	-0.9836	6.89	0.92	-0.750			
0.7054	45144.49	3.3940	3.3940	-0.9558	6.91	0.94	-0.750			
0.7082	45325.30	3.3910	3.3910	-0.9277	6.92	0.95	-0.750			
0.7109	45500.42	3.3880	3.3879	-0.9003	6.94	0.97	-0.750			
0.7136	45669.98	3.3850	3.3850	-0.8751	6.96	0.99	-0.750			
0.7162	45834.25	3.3820	3.3819	-0.8542	6.97	1.00	-0.750			
0.7187	45996.38	3.3790	3.3791	-0.8340	6.99	1.02	-0.750			
0.7211	46152.57	3.3760	3.3760	-0.8168	7.01	1.04	-0.750			
0.7236	46309.08	3.3730	3.3729	-0.7999	7.02	1.05	-0.750			
0.7260	46461.33	3.3700	3.3700	-0.7897	7.04	1.07	-0.750			
