Ah_balance (normalized)	Ah_balance (mAh)	Voltage - fit (V)	Voltage -  interpolate (V)	dQ/dV (1/V)	Temperature (°C)	Temperature - diff (°C)	Current (C)	R_DC 0ms (mOhm)	R_DC 50ms (mOhm)	R_DC 50 ms PEC (mOhm)
0.1778	11379.32	4.0800	4.0800	0.7537	7.47	1.49	0.750			
0.1800	11521.24	4.0770	4.0772	0.7508	7.47	1.49	0.750			
0.1823	11667.58	4.0740	4.0739	0.7654	7.46	1.48	0.750			
0.1846	11816.22	4.0710	4.0706	0.7756	7.45	1.47	0.750			
0.1870	11967.32	4.0680	4.0679	0.7753	7.44	1.46	0.750			
0.1894	12119.80	4.0650	4.0651	0.7646	7.44	1.46	0.750			
0.1917	12266.60	4.0620	4.0621	0.7741	7.43	1.45	0.750			
0.1940	12414.31	4.0590	4.0589	0.7742	7.42	1.44	0.750			
0.1962	12557.23	4.0560	4.0562	0.7698	7.41	1.43	0.750			
0.1985	12706.24	4.0530	4.0531	0.7787	7.41	1.43	0.750			
0.2009	12857.87	4.0500	4.0501	0.7897	7.40	1.42	0.750			
0.2033	13012.79	4.0470	4.0470	0.7993	7.40	1.42	0.750			
0.2057	13166.49	4.0440	4.0440	0.8001	7.40	1.42	0.750			
0.2081	13318.13	4.0410	4.0411	0.8065	7.39	1.41	0.750			
0.2106	13478.14	4.0380	4.0380	0.7989	7.39	1.41	0.750			
0.2130	13633.09	4.0350	4.0350	0.7873	7.38	1.40	0.750			
0.2154	13784.97	4.0320	4.0321	0.7813	7.37	1.39	0.750			
0.2178	13936.62	4.0290	4.0290	0.7447	7.36	1.38	0.750			
0.2198	14064.19	4.0260	4.0269	0.7614	7.36	1.38	0.750			
0.2220	14205.04	4.0230	4.0236	0.7655	7.35	1.37	0.750			
0.2243	14352.09	4.0200	4.0205	0.8067	7.35	1.37	0.750			
0.2268	14513.28	4.0170	4.0179	0.8367	7.34	1.36	0.750			
0.2294	14683.25	4.0140	4.0146	0.8620	7.34	1.36	0.750			
0.2321	14853.90	4.0110	4.0115	0.8700	7.33	1.35	0.750			
0.2348	15029.90	4.0080	4.0075	0.8714	7.33	1.35	0.750			
0.2373	15185.26	4.0050	4.0051	0.8424	7.32	1.34	0.750			
0.2399	15354.48	4.0020	4.0020	0.8427	7.31	1.33	0.750			
0.2424	15511.87	3.9990	3.9989	0.8457	7.31	1.33	0.750			
0.2449	15672.40	3.9960	3.9962	0.8448	7.30	1.32	0.750			
0.2474	15835.91	3.9930	3.9924	0.8531	7.29	1.31	0.750			
0.2500	16000.62	3.9900	3.9903	0.8564	7.28	1.30	0.750			
0.2526	16165.73	3.9870	3.9870	0.8488	7.27	1.29	0.750			
0.2551	16327.67	3.9840	3.9840	0.8563	7.26	1.28	0.750			
0.2576	16489.42	3.9810	3.9812	0.8535	7.26	1.28	0.750			
0.2602	16652.52	3.9780	3.9776	0.8642	7.25	1.27	0.750			
0.2629	16822.70	3.9750	3.9751	0.8633	7.25	1.27	0.750			
0.2655	16990.13	3.9720	3.9721	0.8695	7.24	1.26	0.750			
0.2681	17157.49	3.9690	3.9691	0.8894	7.24	1.26	0.750			
0.2707	17327.19	3.9660	3.9660	0.8836	7.23	1.25	0.750			
0.2734	17497.48	3.9630	3.9630	0.8862	7.23	1.25	0.750			
0.2761	17669.38	3.9600	3.9599	0.8941	7.22	1.24	0.750			
0.2788	17841.73	3.9570	3.9573	0.9037	7.21	1.23	0.750			
0.2815	18018.97	3.9540	3.9541	0.9077	7.20	1.22	0.750			
0.2843	18192.12	3.9510	3.9507	0.9060	7.19	1.21	0.750			
0.2869	18360.78	3.9480	3.9482	0.9091	7.18	1.20	0.750			
0.2897	18540.27	3.9450	3.9450	0.9142	7.17	1.19	0.750			
0.2925	18720.08	3.9420	3.9420	0.9117	7.17	1.19	0.750			
0.2952	18891.98	3.9390	3.9391	0.8978	7.16	1.18	0.750			
0.2978	19059.45	3.9360	3.9358	0.8917	7.15	1.17	0.750			
0.3005	19231.41	3.9330	3.9335	0.9011	7.14	1.16	0.750			
0.3031	19399.99	3.9300	3.9282	0.9261	7.14	1.16	0.750			
0.3059	19576.43	3.9270	3.9276	0.9489	7.14	1.16	0.750			
0.3088	19764.21	3.9240	3.9245	0.9386	7.13	1.15	0.750			
0.3117	19949.29	3.9210	3.9204	0.9453	7.13	1.15	0.750			
0.3144	20122.98	3.9180	3.9189	0.9566	7.12	1.14	0.750			
0.3174	20310.98	3.9150	3.9141	0.9992	7.11	1.13	0.750			
0.3205	20509.73	3.9120	3.9111	1.0133	7.10	1.12	0.750			
0.3235	20701.95	3.9090	3.9099	1.0168	7.10	1.12	0.750			
0.3265	20898.04	3.9060	3.9066	1.1578	7.09	1.11	0.750			
0.3302	21135.18	3.9030	3.9028	1.2366	7.08	1.10	0.750			
0.3342	21389.20	3.9000	3.8988	1.2747	7.07	1.09	0.750			
0.3382	21642.47	3.8970	3.8987	1.2658	7.06	1.08	0.750			
0.3423	21910.26	3.8940	3.8947	1.2904	7.05	1.07	0.750			
0.3463	22165.61	3.8910	3.8907	1.2385	7.03	1.05	0.750			
0.3498	22384.05	3.8880	3.8877	1.1551	7.02	1.04	0.750			
0.3526	22568.31	3.8850	3.8852	1.0875	7.01	1.03	0.750			
0.3559	22779.25	3.8820	3.8821	1.1040	7.00	1.02	0.750			
0.3593	22994.05	3.8790	3.8786	1.1224	6.98	1.00	0.750			
0.3626	23206.68	3.8760	3.8761	1.1357	6.97	0.99	0.750			
0.3660	23427.04	3.8730	3.8731	1.1562	6.96	0.98	0.750			
0.3696	23656.60	3.8700	3.8701	1.1799	6.95	0.97	0.750			
0.3732	23883.36	3.8670	3.8671	1.1800	6.94	0.96	0.750			
0.3767	24110.87	3.8640	3.8640	1.1936	6.92	0.94	0.750			
0.3803	24341.32	3.8610	3.8612	1.2117	6.91	0.93	0.750			
0.3840	24575.42	3.8580	3.8578	1.2198	6.89	0.91	0.750			
0.3876	24807.92	3.8550	3.8551	1.2390	6.88	0.90	0.750			
0.3914	25050.09	3.8520	3.8520	1.2587	6.87	0.89	0.750			
0.3952	25293.60	3.8490	3.8490	1.2927	6.86	0.88	0.750			
0.3991	25542.77	3.8460	3.8460	1.3242	6.84	0.86	0.750			
0.4031	25799.02	3.8430	3.8430	1.3490	6.83	0.85	0.750			
0.4072	26064.00	3.8400	3.8402	1.3682	6.82	0.84	0.750	0.387	0.885	
0.4114	26331.52	3.8370	3.8371	1.4022	6.80	0.82	0.750			
0.4156	26600.01	3.8340	3.8341	1.4247	6.79	0.81	0.750			
0.4200	26878.10	3.8310	3.8310	1.4497	6.77	0.79	0.750			
0.4244	27160.59	3.8280	3.8280	1.4638	6.75	0.77	0.750			
0.4288	27441.84	3.8250	3.8251	1.4927	6.73	0.75	0.750			
0.4333	27731.69	3.8220	3.8220	1.5222	6.72	0.74	0.750			
0.4380	28031.58	3.8190	3.8191	1.5385	6.70	0.72	0.750			
0.4426	28327.03	3.8160	3.8158	1.5734	6.68	0.70	0.750			
0.4474	28631.31	3.8130	3.8131	1.6036	6.67	0.69	0.750			
0.4522	28942.09	3.8100	3.8099	1.6250	6.65	0.67	0.750			
0.4572	29262.59	3.8070	3.8071	1.6593	6.62	0.64	0.750			
0.4622	29578.26	3.8040	3.8041	1.6699	6.60	0.62	0.750			
0.4673	29905.78	3.8010	3.8010	1.7053	6.58	0.60	0.750			
0.4724	30233.51	3.7980	3.7979	1.7080	6.56	0.58	0.750			
0.4776	30563.76	3.7950	3.7950	1.7267	6.54	0.56	0.750			
0.4828	30898.27	3.7920	3.7920	1.7718	6.52	0.54	0.750			
0.4881	31241.01	3.7890	3.7889	1.8081	6.50	0.52	0.750			
0.4936	31591.66	3.7860	3.7859	1.8359	6.48	0.50	0.750			
0.4992	31947.38	3.7830	3.7831	1.8630	6.46	0.48	0.750			
0.5048	32304.11	3.7800	3.7801	1.8868	6.44	0.46	0.750			
0.5105	32670.50	3.7770	3.7769	1.8870	6.42	0.44	0.750			
0.5161	33033.05	3.7740	3.7741	1.8654	6.39	0.41	0.750			
0.5216	33385.30	3.7710	3.7709	1.8737	6.37	0.39	0.750			
0.5272	33742.37	3.7680	3.7680	1.9204	6.35	0.37	0.750			
0.5329	34106.57	3.7650	3.7650	1.9298	6.34	0.36	0.750			
0.5389	34487.73	3.7620	3.7621	1.9485	6.31	0.33	0.750			
0.5449	34871.63	3.7590	3.7588	1.9713	6.29	0.31	0.750			
0.5506	35238.70	3.7560	3.7560	1.9685	6.27	0.29	0.750			
0.5564	35610.74	3.7530	3.7530	1.9953	6.24	0.26	0.750			
0.5625	36000.58	3.7500	3.7499	2.0483	6.22	0.24	0.750			
0.5688	36401.56	3.7470	3.7470	2.1349	6.21	0.23	0.750			
0.5753	36817.65	3.7440	3.7438	2.2146	6.19	0.21	0.750			
0.5820	37248.29	3.7410	3.7411	2.2915	6.16	0.18	0.750			
0.5891	37703.83	3.7380	3.7380	2.3281	6.14	0.16	0.750			
0.5962	38155.58	3.7350	3.7351	2.3404	6.11	0.13	0.750			
0.6033	38608.31	3.7320	3.7319	2.3599	6.10	0.12	0.750			
0.6103	39060.47	3.7290	3.7289	2.3726	6.09	0.11	0.750			
0.6175	39522.78	3.7260	3.7260	2.3742	6.07	0.09	0.750			
0.6246	39976.97	3.7230	3.7230	2.3107	6.05	0.07	0.750			
0.6314	40409.44	3.7200	3.7199	2.1988	6.04	0.06	0.750			
0.6380	40832.65	3.7170	3.7169	2.1117	6.02	0.04	0.750			
0.6444	41239.17	3.7140	3.7139	1.9239	6.00	0.02	0.750			
0.6498	41584.61	3.7110	3.7115	1.7099	5.99	0.01	0.750			
0.6544	41880.31	3.7080	3.7081	1.4999	5.99	0.01	0.750			
0.6586	42148.98	3.7050	3.7048	1.3521	5.99	0.01	0.750			
0.6622	42377.62	3.7020	3.7021	1.2197	5.99	0.01	0.750			
0.6656	42599.93	3.6990	3.6990	1.1332	5.98	0.00	0.750			
0.6688	42806.12	3.6960	3.6960	1.0628	5.98	-0.00	0.750			
0.6719	43001.82	3.6930	3.6928	1.0051	5.97	-0.01	0.750			
0.6748	43186.94	3.6900	3.6901	0.9499	5.97	-0.01	0.750			
0.6775	43361.73	3.6870	3.6870	0.9128	5.96	-0.02	0.750			
0.6802	43531.33	3.6840	3.6840	0.8805	5.96	-0.02	0.750			
0.6828	43696.83	3.6810	3.6810	0.8572	5.95	-0.03	0.750			
0.6853	43859.05	3.6780	3.6780	0.8325	5.95	-0.03	0.750			
0.6878	44017.20	3.6750	3.6751	0.8051	5.95	-0.03	0.750			
0.6902	44171.10	3.6720	3.6721	0.7744	5.96	-0.02	0.750			
0.6925	44317.89	3.6690	3.6690	0.7449	5.96	-0.02	0.750			
0.6946	44456.66	3.6660	3.6660	0.7093	5.97	-0.01	0.750			
0.6967	44588.79	3.6630	3.6628	0.6790	5.97	-0.01	0.750			
0.6987	44715.56	3.6600	3.6600	0.6502	5.97	-0.01	0.750			
0.7006	44838.40	3.6570	3.6570	0.6208	5.97	-0.01	0.750			
0.7024	44954.82	3.6540	3.6540	0.5905	5.97	-0.01	0.750			
0.7042	45066.94	3.6510	3.6510	0.5613	5.98	-0.00	0.750			
0.7058	45170.30	3.6480	3.6480	0.5289	5.98	-0.00	0.750			
0.7073	45268.87	3.6450	3.6450	0.4976	5.98	-0.00	0.750			
0.7088	45361.55	3.6420	3.6420	0.4668	5.98	-0.00	0.750			
0.7101	45448.10	3.6390	3.6390	0.4356	5.98	0.00	0.750			
0.7114	45529.65	3.6360	3.6360	0.4024	5.98	0.00	0.750			
0.7126	45604.33	3.6330	3.6330	0.3686	5.98	0.00	0.750			
0.7136	45671.90	3.6300	3.6300	0.3329	5.98	0.00	0.750			
0.7146	45732.39	3.6270	3.6270	0.2961	5.98	0.00	0.750			
0.7154	45787.49	3.6240	3.6239	0.2565	5.98	0.00	0.750			
0.7161	45832.93	3.6210	3.6209	0.2150	5.99	0.01	0.750			
0.7167	45871.19	3.6180	3.6180	0.1740	5.99	0.01	0.750			
0.7172	45901.29	3.6150	3.6152	0.1306	5.99	0.01	0.750			
0.7175	45923.17	3.6120	3.6121	0.0838	5.99	0.01	0.750			
0.7177	45935.62	3.6090	3.6090	0.0313	5.99	0.01	0.750			
0.7178	45936.57	3.6060	3.6086	-0.0214	5.99	0.01	0.750			
