Ah_balance (normalized)	Ah_balance (mAh)	Voltage - fit (V)	Voltage -  interpolate (V)	dQ/dV (1/V)	Temperature (°C)	Temperature - diff (°C)	Current (C)	R_DC 0ms (mOhm)	R_DC 50ms (mOhm)	R_DC 50 ms PEC (mOhm)
-0.3068	-19635.78	4.0820	4.0820	0.7550	7.33	1.34	0.750			
-0.3045	-19488.71	4.0790	4.0790	0.7747	7.33	1.34	0.750			
-0.3022	-19338.16	4.0760	4.0760	0.7885	7.32	1.33	0.750			
-0.2998	-19184.77	4.0730	4.0729	0.7970	7.31	1.32	0.750			
-0.2973	-19030.16	4.0700	4.0701	0.8015	7.30	1.31	0.750			
-0.2949	-18874.99	4.0670	4.0670	0.8024	7.30	1.31	0.750			
-0.2925	-18720.87	4.0640	4.0640	0.8070	7.29	1.30	0.750			
-0.2901	-18565.77	4.0610	4.0610	0.8103	7.28	1.29	0.750			
-0.2877	-18411.10	4.0580	4.0580	0.8114	7.27	1.28	0.750			
-0.2852	-18254.58	4.0550	4.0551	0.8119	7.27	1.28	0.750			
-0.2828	-18097.70	4.0520	4.0520	0.8165	7.27	1.28	0.750			
-0.2803	-17941.05	4.0490	4.0490	0.8190	7.27	1.28	0.750			
-0.2779	-17783.82	4.0460	4.0460	0.8206	7.27	1.28	0.750			
-0.2754	-17626.73	4.0430	4.0429	0.8224	7.27	1.28	0.750			
-0.2729	-17468.33	4.0400	4.0400	0.8243	7.27	1.28	0.750			
-0.2705	-17308.93	4.0370	4.0370	0.8235	7.26	1.27	0.750			
-0.2680	-17151.00	4.0340	4.0340	0.8282	7.26	1.27	0.750			
-0.2655	-16992.54	4.0310	4.0310	0.8317	7.26	1.27	0.750			
-0.2630	-16832.75	4.0280	4.0280	0.8347	7.25	1.26	0.750			
-0.2605	-16671.36	4.0250	4.0250	0.8388	7.25	1.26	0.750			
-0.2580	-16509.79	4.0220	4.0221	0.8413	7.24	1.25	0.750			
-0.2554	-16347.52	4.0190	4.0190	0.8446	7.24	1.25	0.750			
-0.2529	-16184.87	4.0160	4.0160	0.8488	7.24	1.25	0.750			
-0.2504	-16023.30	4.0130	4.0129	0.8495	7.23	1.24	0.750			
-0.2478	-15859.73	4.0100	4.0100	0.8527	7.23	1.24	0.750			
-0.2452	-15695.09	4.0070	4.0070	0.8566	7.22	1.23	0.750			
-0.2427	-15530.52	4.0040	4.0040	0.8599	7.21	1.22	0.750			
-0.2401	-15364.02	4.0010	4.0010	0.8611	7.20	1.21	0.750			
-0.2375	-15199.51	3.9980	3.9980	0.8639	7.19	1.20	0.750			
-0.2349	-15034.50	3.9950	3.9950	0.8674	7.19	1.20	0.750			
-0.2323	-14866.72	3.9920	3.9920	0.8694	7.19	1.20	0.750			
-0.2297	-14699.15	3.9890	3.9890	0.8723	7.18	1.19	0.750			
-0.2271	-14532.21	3.9860	3.9861	0.8777	7.18	1.19	0.750			
-0.2244	-14363.01	3.9830	3.9828	0.8807	7.18	1.19	0.750			
-0.2218	-14192.77	3.9800	3.9800	0.8835	7.17	1.18	0.750			
-0.2191	-14023.83	3.9770	3.9770	0.8841	7.17	1.18	0.750			
-0.2165	-13854.43	3.9740	3.9741	0.8892	7.16	1.17	0.750			
-0.2138	-13683.03	3.9710	3.9710	0.8974	7.15	1.16	0.750			
-0.2111	-13511.74	3.9680	3.9680	0.9027	7.15	1.16	0.750			
-0.2084	-13337.63	3.9650	3.9650	0.9071	7.14	1.15	0.750			
-0.2056	-13161.08	3.9620	3.9620	0.9139	7.14	1.15	0.750			
-0.2029	-12985.17	3.9590	3.9590	0.9196	7.14	1.15	0.750			
-0.2001	-12807.53	3.9560	3.9560	0.9223	7.13	1.14	0.750			
-0.1973	-12630.23	3.9530	3.9529	0.9232	7.13	1.14	0.750			
-0.1946	-12453.23	3.9500	3.9500	0.9282	7.12	1.13	0.750			
-0.1918	-12276.05	3.9470	3.9470	0.9346	7.12	1.13	0.750			
-0.1890	-12095.81	3.9440	3.9441	0.9445	7.11	1.12	0.750			
-0.1861	-11912.95	3.9410	3.9410	0.9506	7.11	1.12	0.750			
-0.1833	-11729.96	3.9380	3.9380	0.9524	7.10	1.11	0.750			
-0.1804	-11545.86	3.9350	3.9350	0.9598	7.09	1.10	0.750			
-0.1775	-11362.28	3.9320	3.9321	0.9679	7.08	1.09	0.750			
-0.1746	-11176.15	3.9290	3.9289	0.9744	7.07	1.08	0.750			
-0.1717	-10989.10	3.9260	3.9260	0.9809	7.06	1.07	0.750			
-0.1687	-10798.84	3.9230	3.9230	0.9893	7.05	1.06	0.750			
-0.1657	-10606.28	3.9200	3.9200	0.9992	7.04	1.05	0.750			
-0.1627	-10414.17	3.9170	3.9170	1.0042	7.03	1.04	0.750			
-0.1597	-10219.95	3.9140	3.9140	1.0062	7.03	1.04	0.750			
-0.1567	-10029.07	3.9110	3.9110	1.0198	7.03	1.04	0.750			
-0.1536	-9833.09	3.9080	3.9081	1.0334	7.02	1.03	0.750			
-0.1505	-9632.40	3.9050	3.9049	1.0468	7.02	1.03	0.750			
-0.1473	-9429.61	3.9020	3.9020	1.0560	7.02	1.03	0.750			
-0.1441	-9224.26	3.8990	3.8991	1.0674	7.01	1.02	0.750			
-0.1409	-9019.00	3.8960	3.8961	1.0796	7.00	1.01	0.750			
-0.1377	-8810.57	3.8930	3.8929	1.0926	6.99	1.00	0.750			
-0.1344	-8602.36	3.8900	3.8901	1.0964	6.98	0.99	0.750			
-0.1311	-8390.57	3.8870	3.8869	1.1141	6.97	0.98	0.750			
-0.1277	-8173.54	3.8840	3.8840	1.1326	6.95	0.96	0.750			
-0.1243	-7954.75	3.8810	3.8810	1.1410	6.94	0.95	0.750			
-0.1208	-7733.88	3.8780	3.8780	1.1576	6.93	0.94	0.750			
-0.1174	-7511.00	3.8750	3.8751	1.1718	6.92	0.93	0.750			
-0.1138	-7283.44	3.8720	3.8720	1.1878	6.91	0.92	0.750			
-0.1102	-7053.36	3.8690	3.8690	1.1975	6.90	0.91	0.750			
-0.1067	-6825.76	3.8660	3.8661	1.2151	6.89	0.90	0.750			
-0.1030	-6590.98	3.8630	3.8630	1.2376	6.88	0.89	0.750			
-0.0992	-6350.79	3.8600	3.8598	1.2545	6.87	0.88	0.750			
-0.0955	-6110.42	3.8570	3.8570	1.2779	6.86	0.87	0.750			
-0.0916	-5862.81	3.8540	3.8541	1.3058	6.85	0.86	0.750			
-0.0876	-5606.80	3.8510	3.8509	1.3286	6.83	0.84	0.750			
-0.0836	-5349.83	3.8480	3.8480	1.3491	6.82	0.83	0.750			
-0.0795	-5090.33	3.8450	3.8451	1.3761	6.81	0.82	0.750			
-0.0754	-4824.02	3.8420	3.8420	1.4090	6.79	0.80	0.750			
-0.0711	-4551.12	3.8390	3.8390	1.4375	6.77	0.78	0.750			
-0.0667	-4271.88	3.8360	3.8361	1.4655	6.75	0.76	0.750	0.439	1.038	
-0.0623	-3986.12	3.8330	3.8329	1.4901	6.73	0.74	0.750			
-0.0578	-3696.23	3.8300	3.8301	1.5108	6.72	0.73	0.750			
-0.0532	-3405.16	3.8270	3.8270	1.5318	6.72	0.73	0.750			
-0.0486	-3109.85	3.8240	3.8238	1.5718	6.71	0.72	0.750			
-0.0439	-2807.50	3.8210	3.8210	1.5993	6.69	0.70	0.750			
-0.0390	-2495.54	3.8180	3.8181	1.6330	6.68	0.69	0.750			
-0.0340	-2173.31	3.8150	3.8151	1.6710	6.66	0.67	0.750			
-0.0289	-1851.75	3.8120	3.8120	1.7016	6.64	0.65	0.750			
-0.0239	-1526.80	3.8090	3.8090	1.7452	6.62	0.63	0.750			
-0.0186	-1188.09	3.8060	3.8059	1.7729	6.60	0.61	0.750			
-0.0131	-840.72	3.8030	3.8030	1.8045	6.58	0.59	0.750			
-0.0077	-489.70	3.8000	3.8001	1.8440	6.56	0.57	0.750			
-0.0020	-131.17	3.7970	3.7970	1.8899	6.54	0.55	0.750			
0.0036	230.10	3.7940	3.7940	1.9221	6.52	0.53	0.750			
0.0094	603.89	3.7910	3.7909	1.9884	6.49	0.50	0.750			
0.0155	995.11	3.7880	3.7880	2.0174	6.47	0.48	0.750			
0.0216	1384.80	3.7850	3.7850	2.0394	6.45	0.46	0.750			
0.0277	1773.14	3.7820	3.7820	2.0649	6.43	0.44	0.750			
0.0340	2174.45	3.7790	3.7790	2.0979	6.41	0.42	0.750			
0.0403	2580.51	3.7760	3.7760	2.1295	6.39	0.40	0.750			
0.0468	2994.26	3.7730	3.7729	2.1821	6.37	0.38	0.750			
0.0534	3417.68	3.7700	3.7701	2.2074	6.34	0.35	0.750			
0.0600	3842.58	3.7670	3.7670	2.2394	6.32	0.33	0.750			
0.0668	4275.55	3.7640	3.7639	2.2671	6.30	0.31	0.750			
0.0737	4717.15	3.7610	3.7610	2.3023	6.28	0.29	0.750			
0.0806	5161.36	3.7580	3.7580	2.3391	6.25	0.26	0.750			
0.0876	5609.04	3.7550	3.7550	2.3640	6.21	0.22	0.750			
0.0948	6067.34	3.7520	3.7520	2.4360	6.19	0.20	0.750			
0.1022	6542.02	3.7490	3.7490	2.4957	6.16	0.17	0.750			
0.1098	7026.54	3.7460	3.7461	2.5774	6.14	0.15	0.750			
0.1176	7528.51	3.7430	3.7430	2.6403	6.12	0.13	0.750			
0.1257	8042.20	3.7400	3.7400	2.7381	6.09	0.10	0.750			
0.1341	8583.54	3.7370	3.7369	2.8752	6.06	0.07	0.750			
0.1430	9154.37	3.7340	3.7340	2.9462	6.04	0.05	0.750			
0.1519	9723.40	3.7310	3.7309	2.9573	6.03	0.04	0.750			
0.1607	10282.75	3.7280	3.7279	2.8970	6.01	0.02	0.750			
0.1694	10838.68	3.7250	3.7249	2.7859	5.99	-0.00	0.750			
0.1776	11363.62	3.7220	3.7220	2.6094	5.97	-0.02	0.750			
0.1852	11849.88	3.7190	3.7190	2.4038	5.97	-0.02	0.750			
0.1919	12284.56	3.7160	3.7160	2.1404	5.96	-0.03	0.750			
0.1980	12673.68	3.7130	3.7130	1.9061	5.95	-0.04	0.750			
0.2033	13012.84	3.7100	3.7100	1.6713	5.95	-0.04	0.750			
0.2079	13308.37	3.7070	3.7070	1.4790	5.95	-0.04	0.750			
0.2119	13562.85	3.7040	3.7040	1.3126	5.95	-0.04	0.750			
0.2155	13791.23	3.7010	3.7009	1.1689	5.95	-0.04	0.750			
0.2187	13996.30	3.6980	3.6980	1.0602	5.95	-0.04	0.750			
0.2217	14186.19	3.6950	3.6950	0.9833	5.95	-0.04	0.750			
0.2244	14363.52	3.6920	3.6920	0.9151	5.95	-0.04	0.750			
0.2271	14531.67	3.6890	3.6890	0.8613	5.95	-0.04	0.750			
0.2295	14691.18	3.6860	3.6859	0.8110	5.96	-0.03	0.750			
0.2319	14843.05	3.6830	3.6830	0.7592	5.96	-0.03	0.750			
0.2341	14984.68	3.6800	3.6800	0.7106	5.96	-0.03	0.750			
0.2362	15116.76	3.6770	3.6770	0.6600	5.97	-0.02	0.750			
0.2381	15238.12	3.6740	3.6739	0.6091	5.97	-0.02	0.750			
0.2398	15348.81	3.6710	3.6710	0.5577	5.97	-0.02	0.750			
0.2414	15450.82	3.6680	3.6680	0.5109	5.98	-0.01	0.750			
0.2429	15543.88	3.6650	3.6650	0.4671	5.98	-0.01	0.750			
0.2442	15628.89	3.6620	3.6619	0.4240	5.98	-0.01	0.750			
0.2454	15705.51	3.6590	3.6590	0.3824	5.98	-0.01	0.750			
0.2465	15774.97	3.6560	3.6559	0.3435	5.98	-0.01	0.750			
0.2474	15836.73	3.6530	3.6530	0.3060	5.98	-0.01	0.750			
0.2483	15891.77	3.6500	3.6500	0.2689	5.99	-0.00	0.750			
0.2491	15940.25	3.6470	3.6469	0.2307	5.99	-0.00	0.750			
0.2497	15980.86	3.6440	3.6439	0.1926	5.99	-0.00	0.750			
0.2502	16014.98	3.6410	3.6410	0.1556	5.99	-0.00	0.750			
0.2506	16041.09	3.6380	3.6384	0.1166	5.99	0.00	0.750			
0.2509	16060.24	3.6350	3.6356	0.0754	5.99	0.00	0.750			
0.2511	16070.77	3.6320	3.6332	0.0235	5.99	0.00	0.750			
