Ah_balance (normalized)	Ah_balance (mAh)	Voltage - fit (V)	Voltage -  interpolate (V)	dQ/dV (1/V)	Temperature (°C)	Temperature - diff (°C)	Current (C)	R_DC 0ms (mOhm)	R_DC 50ms (mOhm)	R_DC 50 ms PEC (mOhm)
0.0950	6077.93	4.0070	4.0064	-0.0708	6.00	0.01	-0.750			
0.0952	6094.34	4.0040	4.0035	-0.1002	6.00	0.01	-0.750			
0.0956	6116.99	4.0010	4.0008	-0.1286	6.00	0.01	-0.750			
0.0960	6144.70	3.9980	3.9980	-0.1551	6.00	0.01	-0.750			
0.0965	6177.25	3.9950	3.9951	-0.1801	6.00	0.01	-0.750			
0.0971	6214.35	3.9920	3.9920	-0.2052	6.00	0.01	-0.750			
0.0978	6256.98	3.9890	3.9890	-0.2310	6.00	0.01	-0.750			
0.0985	6303.35	3.9860	3.9860	-0.2539	6.00	0.01	-0.750			
0.0993	6354.65	3.9830	3.9830	-0.2777	6.00	0.01	-0.750			
0.1002	6410.19	3.9800	3.9800	-0.3016	6.00	0.01	-0.750			
0.1011	6470.30	3.9770	3.9770	-0.3271	5.99	0.00	-0.750			
0.1021	6535.51	3.9740	3.9740	-0.3522	5.99	0.00	-0.750			
0.1032	6605.82	3.9710	3.9710	-0.3731	5.99	0.00	-0.750			
0.1044	6679.77	3.9680	3.9681	-0.3966	5.99	-0.00	-0.750			
0.1056	6757.97	3.9650	3.9651	-0.4207	5.99	-0.00	-0.750			
0.1069	6840.82	3.9620	3.9619	-0.4431	5.98	-0.01	-0.750			
0.1082	6927.76	3.9590	3.9590	-0.4652	5.98	-0.01	-0.750			
0.1097	7019.28	3.9560	3.9560	-0.4869	5.98	-0.01	-0.750			
0.1112	7115.50	3.9530	3.9531	-0.5140	5.98	-0.01	-0.750			
0.1128	7218.09	3.9500	3.9500	-0.5346	5.98	-0.01	-0.750			
0.1144	7323.78	3.9470	3.9469	-0.5495	5.97	-0.02	-0.750			
0.1161	7430.77	3.9440	3.9443	-0.5669	5.97	-0.02	-0.750			
0.1178	7541.73	3.9410	3.9410	-0.5823	5.97	-0.02	-0.750			
0.1196	7654.43	3.9380	3.9380	-0.5964	5.97	-0.02	-0.750			
0.1214	7769.58	3.9350	3.9350	-0.6089	5.97	-0.02	-0.750			
0.1233	7888.01	3.9320	3.9320	-0.6237	5.98	-0.01	-0.750			
0.1251	8009.39	3.9290	3.9290	-0.6369	5.98	-0.01	-0.750			
0.1271	8134.05	3.9260	3.9260	-0.6507	5.98	-0.01	-0.750			
0.1290	8256.84	3.9230	3.9231	-0.6702	5.98	-0.01	-0.750			
0.1311	8387.57	3.9200	3.9199	-0.6883	5.98	-0.01	-0.750			
0.1332	8522.42	3.9170	3.9169	-0.7004	5.98	-0.01	-0.750			
0.1353	8660.76	3.9140	3.9141	-0.7077	5.99	-0.00	-0.750			
0.1375	8800.70	3.9110	3.9111	-0.7147	5.99	-0.00	-0.750			
0.1397	8939.04	3.9080	3.9078	-0.7119	5.99	-0.00	-0.750			
0.1418	9074.70	3.9050	3.9050	-0.7083	5.99	0.00	-0.750			
0.1439	9207.24	3.9020	3.9021	-0.7075	5.99	0.00	-0.750			
0.1460	9341.48	3.8990	3.8990	-0.7208	6.00	0.01	-0.750			
0.1481	9481.40	3.8960	3.8959	-0.7194	6.00	0.01	-0.750			
0.1503	9622.21	3.8930	3.8930	-0.7280	6.00	0.01	-0.750			
0.1525	9762.87	3.8900	3.8900	-0.7279	6.01	0.02	-0.750			
0.1548	9904.31	3.8870	3.8868	-0.7319	6.01	0.02	-0.750			
0.1570	10045.03	3.8840	3.8839	-0.7295	6.02	0.03	-0.750			
0.1591	10181.83	3.8810	3.8809	-0.7333	6.03	0.04	-0.750			
0.1613	10322.09	3.8780	3.8781	-0.7357	6.03	0.04	-0.750			
0.1636	10467.76	3.8750	3.8749	-0.7431	6.04	0.05	-0.750			
0.1658	10610.82	3.8720	3.8722	-0.7433	6.05	0.06	-0.750			
0.1680	10754.40	3.8690	3.8690	-0.7421	6.05	0.06	-0.750			
0.1703	10896.13	3.8660	3.8661	-0.7410	6.06	0.07	-0.750			
0.1725	11039.99	3.8630	3.8629	-0.7426	6.07	0.08	-0.750			
0.1747	11179.49	3.8600	3.8600	-0.7407	6.07	0.08	-0.750			
0.1769	11324.29	3.8570	3.8569	-0.7449	6.08	0.09	-0.750			
0.1792	11466.79	3.8540	3.8542	-0.7495	6.08	0.09	-0.750			
0.1814	11611.04	3.8510	3.8508	-0.7540	6.09	0.10	-0.750			
0.1837	11756.51	3.8480	3.8480	-0.7562	6.09	0.10	-0.750			
0.1859	11900.49	3.8450	3.8451	-0.7567	6.10	0.11	-0.750			
0.1883	12049.41	3.8420	3.8420	-0.7635	6.10	0.11	-0.750			
0.1906	12196.94	3.8390	3.8390	-0.7585	6.11	0.12	-0.750			
0.1928	12341.32	3.8360	3.8360	-0.7569	6.11	0.12	-0.750			
0.1951	12484.39	3.8330	3.8330	-0.7575	6.12	0.13	-0.750			
0.1973	12629.50	3.8300	3.8301	-0.7575	6.12	0.13	-0.750			
0.1996	12775.14	3.8270	3.8269	-0.7572	6.12	0.13	-0.750			
0.2019	12920.49	3.8240	3.8240	-0.7592	6.13	0.14	-0.750			
0.2042	13067.06	3.8210	3.8212	-0.7641	6.13	0.14	-0.750			
0.2065	13214.72	3.8180	3.8179	-0.7674	6.14	0.15	-0.750			
0.2088	13361.47	3.8150	3.8150	-0.7658	6.15	0.16	-0.750			
0.2111	13508.75	3.8120	3.8120	-0.7627	6.17	0.18	-0.750			
0.2134	13656.39	3.8090	3.8090	-0.7661	6.18	0.19	-0.750			
0.2157	13803.29	3.8060	3.8060	-0.7651	6.19	0.20	-0.750			
0.2180	13949.34	3.8030	3.8029	-0.7624	6.19	0.20	-0.750			
0.2202	14094.82	3.8000	3.7999	-0.7641	6.20	0.21	-0.750			
0.2225	14241.60	3.7970	3.7971	-0.7638	6.21	0.22	-0.750			
0.2248	14388.58	3.7940	3.7940	-0.7642	6.21	0.22	-0.750			
0.2271	14537.19	3.7910	3.7909	-0.7653	6.22	0.23	-0.750			
0.2294	14682.93	3.7880	3.7881	-0.7628	6.22	0.23	-0.750			
0.2317	14828.75	3.7850	3.7850	-0.7612	6.22	0.23	-0.750			
0.2340	14974.89	3.7820	3.7820	-0.7639	6.23	0.24	-0.750			
0.2363	15121.20	3.7790	3.7790	-0.7610	6.23	0.24	-0.750			
0.2386	15267.38	3.7760	3.7760	-0.7677	6.24	0.25	-0.750			
0.2409	15415.46	3.7730	3.7730	-0.7711	6.24	0.25	-0.750			
0.2432	15563.80	3.7700	3.7699	-0.7758	6.24	0.25	-0.750			
0.2455	15712.18	3.7670	3.7670	-0.7798	6.25	0.26	-0.750			
0.2479	15863.03	3.7640	3.7640	-0.7830	6.26	0.27	-0.750			
0.2502	16014.06	3.7610	3.7610	-0.7824	6.26	0.27	-0.750			
0.2526	16165.89	3.7580	3.7580	-0.7861	6.27	0.28	-0.750			
0.2549	16316.10	3.7550	3.7550	-0.7822	6.27	0.28	-0.750			
0.2573	16465.20	3.7520	3.7520	-0.7883	6.28	0.29	-0.750			
0.2596	16616.48	3.7490	3.7490	-0.7893	6.29	0.30	-0.750			
0.2620	16767.79	3.7460	3.7460	-0.7929	6.30	0.31	-0.750			
0.2644	16921.73	3.7430	3.7429	-0.7960	6.30	0.31	-0.750			
0.2668	17074.70	3.7400	3.7401	-0.8029	6.31	0.32	-0.750			
0.2692	17228.81	3.7370	3.7370	-0.8042	6.31	0.32	-0.750			
0.2716	17383.68	3.7340	3.7340	-0.8108	6.32	0.33	-0.750			
0.2741	17539.69	3.7310	3.7309	-0.8105	6.32	0.33	-0.750			
0.2765	17696.00	3.7280	3.7280	-0.8178	6.33	0.34	-0.750			
0.2790	17853.00	3.7250	3.7251	-0.8220	6.33	0.34	-0.750			
0.2814	18012.15	3.7220	3.7220	-0.8278	6.33	0.34	-0.750			
0.2839	18169.97	3.7190	3.7189	-0.8324	6.34	0.35	-0.750			
0.2864	18330.05	3.7160	3.7161	-0.8397	6.34	0.35	-0.750			
0.2889	18492.32	3.7130	3.7129	-0.8452	6.35	0.36	-0.750			
0.2915	18655.07	3.7100	3.7100	-0.8545	6.35	0.36	-0.750			
0.2940	18817.72	3.7070	3.7071	-0.8648	6.35	0.36	-0.750			
0.2967	18986.23	3.7040	3.7039	-0.8713	6.36	0.37	-0.750			
0.2993	19155.67	3.7010	3.7009	-0.8784	6.36	0.37	-0.750			
0.3019	19324.51	3.6980	3.6980	-0.8803	6.37	0.38	-0.750			
0.3046	19494.44	3.6950	3.6950	-0.8867	6.37	0.38	-0.750			
0.3073	19664.93	3.6920	3.6920	-0.9007	6.38	0.39	-0.750			
0.3100	19837.23	3.6890	3.6889	-0.9086	6.38	0.39	-0.750			
0.3127	20012.97	3.6860	3.6859	-0.9105	6.38	0.39	-0.750			
0.3155	20191.35	3.6830	3.6831	-0.9236	6.39	0.40	-0.750			
0.3182	20367.79	3.6800	3.6800	-0.9407	6.39	0.40	-0.750			
0.3211	20550.66	3.6770	3.6769	-0.9469	6.40	0.41	-0.750			
0.3239	20731.34	3.6740	3.6738	-0.9530	6.41	0.42	-0.750			
0.3268	20914.34	3.6710	3.6711	-0.9595	6.42	0.43	-0.750			
0.3297	21101.87	3.6680	3.6681	-0.9738	6.42	0.43	-0.750			
0.3327	21291.52	3.6650	3.6649	-0.9875	6.42	0.43	-0.750			
0.3356	21481.40	3.6620	3.6619	-0.9906	6.43	0.44	-0.750			
0.3386	21672.15	3.6590	3.6590	-0.9921	6.43	0.44	-0.750			
0.3416	21862.53	3.6560	3.6562	-1.0148	6.43	0.44	-0.750			
0.3446	22056.33	3.6530	3.6530	-1.0254	6.44	0.45	-0.750			
0.3477	22255.03	3.6500	3.6499	-1.0378	6.44	0.45	-0.750			
0.3508	22454.25	3.6470	3.6469	-1.0476	6.45	0.46	-0.750			
0.3541	22660.25	3.6440	3.6444	-1.0642	6.45	0.46	-0.750			
0.3573	22866.46	3.6410	3.6409	-1.0676	6.45	0.46	-0.750			
0.3605	23072.68	3.6380	3.6380	-1.0780	6.45	0.46	-0.750			
0.3637	23276.79	3.6350	3.6351	-1.0813	6.45	0.46	-0.750			
0.3669	23482.04	3.6320	3.6320	-1.1042	6.45	0.46	-0.750			
0.3703	23698.40	3.6290	3.6289	-1.1139	6.46	0.47	-0.750			
0.3737	23913.64	3.6260	3.6260	-1.1275	6.46	0.47	-0.750			
0.3771	24131.67	3.6230	3.6230	-1.1376	6.47	0.48	-0.750			
0.3805	24354.59	3.6200	3.6199	-1.1529	6.47	0.48	-0.750			
0.3841	24585.12	3.6170	3.6168	-1.1225	6.47	0.48	-0.750			
0.3875	24802.95	3.6140	3.6139	-1.0976	6.47	0.48	-0.750			
0.3908	25008.53	3.6110	3.6114	-1.0689	6.47	0.48	-0.750			
0.3939	25209.46	3.6080	3.6082	-1.0833	6.47	0.48	-0.750			
0.3969	25403.28	3.6050	3.6045	-1.0890	6.47	0.48	-0.750			
0.4001	25607.55	3.6020	3.6019	-1.1268	6.47	0.48	-0.750			
0.4035	25826.59	3.5990	3.5990	-1.1725	6.47	0.48	-0.750			
0.4073	26064.53	3.5960	3.5960	-1.2262	6.47	0.48	-0.750			
0.4111	26312.27	3.5930	3.5929	-1.2522	6.47	0.48	-0.750			
0.4149	26553.01	3.5900	3.5900	-1.2686	6.47	0.48	-0.750	0.489	1.087	
0.4187	26799.25	3.5870	3.5869	-1.2750	6.47	0.48	-0.750			
0.4226	27043.23	3.5840	3.5839	-1.2821	6.47	0.48	-0.750			
0.4263	27282.86	3.5810	3.5810	-1.2961	6.47	0.48	-0.750			
0.4302	27535.81	3.5780	3.5779	-1.3044	6.47	0.48	-0.750			
0.4343	27792.50	3.5750	3.5750	-1.3273	6.47	0.48	-0.750			
0.4383	28048.66	3.5720	3.5719	-1.3431	6.47	0.48	-0.750			
0.4424	28311.60	3.5690	3.5691	-1.3633	6.47	0.48	-0.750			
0.4465	28578.28	3.5660	3.5658	-1.3791	6.47	0.48	-0.750			
0.4506	28839.80	3.5630	3.5629	-1.3981	6.48	0.49	-0.750			
0.4548	29107.22	3.5600	3.5602	-1.4097	6.48	0.49	-0.750			
0.4591	29384.53	3.5570	3.5568	-1.4321	6.48	0.49	-0.750			
0.4634	29658.16	3.5540	3.5539	-1.4357	6.49	0.50	-0.750			
0.4677	29932.57	3.5510	3.5510	-1.4465	6.49	0.50	-0.750			
0.4722	30223.22	3.5480	3.5481	-1.4665	6.49	0.50	-0.750			
0.4766	30503.41	3.5450	3.5448	-1.4791	6.49	0.50	-0.750			
0.4810	30781.07	3.5420	3.5423	-1.4974	6.49	0.50	-0.750			
0.4855	31074.71	3.5390	3.5388	-1.5207	6.49	0.50	-0.750			
0.4901	31369.30	3.5360	3.5360	-1.5442	6.49	0.50	-0.750			
0.4948	31666.66	3.5330	3.5330	-1.5461	6.50	0.51	-0.750			
0.4995	31966.32	3.5300	3.5298	-1.5541	6.50	0.51	-0.750			
0.5043	32274.38	3.5270	3.5272	-1.5569	6.51	0.52	-0.750			
0.5089	32568.88	3.5240	3.5236	-1.5374	6.51	0.52	-0.750			
0.5134	32858.40	3.5210	3.5211	-1.5499	6.51	0.52	-0.750			
0.5181	33156.53	3.5180	3.5180	-1.5635	6.51	0.52	-0.750			
0.5228	33461.39	3.5150	3.5148	-1.6043	6.52	0.53	-0.750			
0.5277	33770.66	3.5120	3.5121	-1.5936	6.52	0.53	-0.750			
0.5326	34086.75	3.5090	3.5090	-1.6017	6.52	0.53	-0.750			
0.5375	34399.19	3.5060	3.5059	-1.5877	6.53	0.54	-0.750			
0.5422	34697.71	3.5030	3.5030	-1.5915	6.53	0.54	-0.750			
0.5468	34995.04	3.5000	3.5000	-1.5860	6.54	0.55	-0.750			
0.5516	35301.79	3.4970	3.4968	-1.5846	6.55	0.56	-0.750			
0.5564	35611.29	3.4940	3.4938	-1.5777	6.55	0.56	-0.750			
0.5613	35920.54	3.4910	3.4909	-1.5995	6.55	0.56	-0.750			
0.5661	36232.00	3.4880	3.4882	-1.5783	6.55	0.56	-0.750			
0.5707	36527.44	3.4850	3.4851	-1.5545	6.56	0.57	-0.750			
0.5753	36818.90	3.4820	3.4820	-1.5387	6.56	0.57	-0.750			
0.5800	37119.12	3.4790	3.4790	-1.5307	6.57	0.58	-0.750			
0.5846	37414.29	3.4760	3.4757	-1.5266	6.58	0.59	-0.750			
0.5891	37703.80	3.4730	3.4730	-1.5262	6.59	0.60	-0.750			
0.5937	37995.09	3.4700	3.4699	-1.5080	6.59	0.60	-0.750			
0.5982	38286.73	3.4670	3.4668	-1.5058	6.60	0.61	-0.750			
0.6027	38570.97	3.4640	3.4639	-1.4871	6.61	0.62	-0.750			
0.6072	38859.95	3.4610	3.4609	-1.4746	6.62	0.63	-0.750			
0.6116	39145.33	3.4580	3.4581	-1.4633	6.63	0.64	-0.750			
0.6160	39423.16	3.4550	3.4553	-1.4422	6.64	0.65	-0.750			
0.6202	39694.33	3.4520	3.4519	-1.4162	6.65	0.66	-0.750			
0.6245	39967.72	3.4490	3.4490	-1.4108	6.65	0.66	-0.750			
0.6287	40233.67	3.4460	3.4461	-1.4020	6.66	0.67	-0.750			
0.6329	40507.53	3.4430	3.4428	-1.3940	6.67	0.68	-0.750			
0.6371	40774.41	3.4400	3.4400	-1.3684	6.68	0.69	-0.750			
0.6412	41034.34	3.4370	3.4374	-1.3573	6.69	0.70	-0.750			
0.6453	41296.23	3.4340	3.4338	-1.3385	6.71	0.72	-0.750			
0.6492	41551.90	3.4310	3.4309	-1.3009	6.73	0.74	-0.750			
0.6530	41794.99	3.4280	3.4283	-1.2642	6.75	0.76	-0.750			
0.6569	42038.88	3.4250	3.4250	-1.2530	6.76	0.77	-0.750			
0.6606	42276.88	3.4220	3.4218	-1.2220	6.77	0.78	-0.750			
0.6642	42505.62	3.4190	3.4189	-1.1899	6.78	0.79	-0.750			
0.6676	42729.04	3.4160	3.4161	-1.1616	6.79	0.80	-0.750			
0.6712	42955.43	3.4130	3.4129	-1.1444	6.81	0.82	-0.750			
0.6746	43173.40	3.4100	3.4100	-1.1153	6.82	0.83	-0.750			
0.6778	43380.92	3.4070	3.4070	-1.0779	6.83	0.84	-0.750			
0.6811	43588.27	3.4040	3.4040	-1.0589	6.84	0.85	-0.750			
0.6842	43788.88	3.4010	3.4009	-1.0299	6.85	0.86	-0.750			
0.6872	43982.97	3.3980	3.3980	-1.0010	6.86	0.87	-0.750			
0.6902	44172.18	3.3950	3.3950	-0.9734	6.87	0.88	-0.750			
0.6931	44356.39	3.3920	3.3920	-0.9563	6.88	0.89	-0.750			
0.6959	44538.04	3.3890	3.3889	-0.9325	6.89	0.90	-0.750			
0.6987	44714.66	3.3860	3.3860	-0.9036	6.91	0.92	-0.750			
0.7013	44885.82	3.3830	3.3830	-0.8778	6.92	0.93	-0.750			
0.7040	45053.98	3.3800	3.3802	-0.8556	6.93	0.94	-0.750			
0.7065	45215.31	3.3770	3.3769	-0.8305	6.94	0.95	-0.750			
0.7089	45371.16	3.3740	3.3740	-0.8084	6.95	0.96	-0.750			
0.7113	45523.09	3.3710	3.3710	-0.7854	6.96	0.97	-0.750			
0.7136	45673.56	3.3680	3.3679	-0.7662	6.97	0.98	-0.750			
0.7159	45819.27	3.3650	3.3653	-0.7436	6.98	0.99	-0.750			
0.7181	45959.29	3.3620	3.3619	-0.7218	6.99	1.00	-0.750			
0.7202	46095.66	3.3590	3.3590	-0.6955	7.00	1.01	-0.750			
0.7223	46224.59	3.3560	3.3560	-0.6776	7.01	1.02	-0.750			
0.7243	46353.93	3.3530	3.3530	-0.6641	7.03	1.04	-0.750			
0.7262	46478.90	3.3500	3.3499	-0.6532	7.04	1.05	-0.750			
0.7282	46603.84	3.3470	3.3470	-0.6510	7.05	1.06	-0.750			
