Ah_balance (normalized)	Ah_balance (mAh)	Voltage - fit (V)	Voltage -  interpolate (V)	dQ/dV (1/V)	Temperature (°C)	Temperature - diff (°C)	Current (C)	R_DC 0ms (mOhm)	R_DC 50ms (mOhm)	R_DC 50 ms PEC (mOhm)
0.1584	10138.73	4.0750	4.0751	0.8516	7.71	1.74	0.750			
0.1609	10299.21	4.0720	4.0720	0.8275	7.70	1.73	0.750			
0.1633	10454.05	4.0690	4.0690	0.8151	7.70	1.73	0.750			
0.1658	10608.98	4.0660	4.0660	0.8158	7.69	1.72	0.750			
0.1682	10764.22	4.0630	4.0630	0.8138	7.68	1.71	0.750			
0.1706	10921.09	4.0600	4.0600	0.8192	7.68	1.71	0.750			
0.1731	11081.28	4.0570	4.0570	0.8152	7.68	1.71	0.750			
0.1756	11237.59	4.0540	4.0541	0.8224	7.68	1.71	0.750			
0.1780	11395.07	4.0510	4.0510	0.8270	7.67	1.70	0.750			
0.1805	11552.60	4.0480	4.0480	0.8282	7.67	1.70	0.750			
0.1830	11710.93	4.0450	4.0449	0.8321	7.67	1.70	0.750			
0.1855	11874.28	4.0420	4.0421	0.8320	7.66	1.69	0.750			
0.1880	12035.06	4.0390	4.0390	0.8370	7.66	1.69	0.750			
0.1906	12195.86	4.0360	4.0361	0.8432	7.65	1.68	0.750			
0.1931	12356.55	4.0330	4.0331	0.8393	7.64	1.67	0.750			
0.1956	12517.66	4.0300	4.0300	0.8419	7.64	1.67	0.750			
0.1981	12680.75	4.0270	4.0271	0.8451	7.63	1.66	0.750			
0.2007	12842.98	4.0240	4.0240	0.8508	7.63	1.66	0.750			
0.2032	13007.25	4.0210	4.0210	0.8578	7.63	1.66	0.750			
0.2058	13171.31	4.0180	4.0180	0.8585	7.62	1.65	0.750			
0.2084	13336.63	4.0150	4.0150	0.8604	7.62	1.65	0.750			
0.2110	13504.95	4.0120	4.0120	0.8641	7.61	1.64	0.750			
0.2136	13670.14	4.0090	4.0090	0.8664	7.61	1.64	0.750			
0.2162	13837.06	4.0060	4.0060	0.8665	7.60	1.63	0.750			
0.2188	14001.67	4.0030	4.0030	0.8671	7.59	1.62	0.750			
0.2214	14168.19	4.0000	4.0000	0.8699	7.59	1.62	0.750			
0.2240	14335.93	3.9970	3.9971	0.8746	7.58	1.61	0.750			
0.2266	14504.52	3.9940	3.9940	0.8815	7.57	1.60	0.750			
0.2293	14674.92	3.9910	3.9910	0.8867	7.57	1.60	0.750			
0.2319	14843.99	3.9880	3.9879	0.8900	7.56	1.59	0.750			
0.2346	15016.59	3.9850	3.9850	0.8933	7.55	1.58	0.750			
0.2373	15188.30	3.9820	3.9820	0.8938	7.55	1.58	0.750			
0.2400	15360.52	3.9790	3.9790	0.8976	7.54	1.57	0.750			
0.2427	15532.81	3.9760	3.9760	0.8975	7.54	1.57	0.750			
0.2454	15704.49	3.9730	3.9730	0.8994	7.53	1.56	0.750			
0.2481	15879.06	3.9700	3.9700	0.8963	7.52	1.55	0.750			
0.2508	16048.31	3.9670	3.9670	0.9046	7.51	1.54	0.750			
0.2535	16223.02	3.9640	3.9640	0.9143	7.50	1.53	0.750			
0.2562	16398.34	3.9610	3.9610	0.9224	7.48	1.51	0.750			
0.2590	16577.68	3.9580	3.9581	0.9258	7.48	1.51	0.750			
0.2618	16757.07	3.9550	3.9551	0.9349	7.47	1.50	0.750			
0.2646	16937.45	3.9520	3.9520	0.9394	7.46	1.49	0.750			
0.2675	17119.39	3.9490	3.9490	0.9464	7.46	1.49	0.750			
0.2703	17298.79	3.9460	3.9459	0.9435	7.45	1.48	0.750			
0.2731	17480.88	3.9430	3.9430	0.9483	7.44	1.47	0.750			
0.2760	17662.52	3.9400	3.9400	0.9554	7.43	1.46	0.750			
0.2789	17847.27	3.9370	3.9370	0.9644	7.42	1.45	0.750			
0.2818	18032.76	3.9340	3.9339	0.9710	7.41	1.44	0.750			
0.2847	18221.34	3.9310	3.9310	0.9752	7.41	1.44	0.750			
0.2876	18408.27	3.9280	3.9280	0.9853	7.40	1.43	0.750			
0.2906	18598.93	3.9250	3.9251	0.9946	7.40	1.43	0.750			
0.2936	18789.27	3.9220	3.9219	1.0011	7.39	1.42	0.750			
0.2966	18983.59	3.9190	3.9190	1.0042	7.38	1.41	0.750			
0.2996	19177.09	3.9160	3.9160	1.0153	7.37	1.40	0.750			
0.3027	19372.53	3.9130	3.9131	1.0244	7.35	1.38	0.750			
0.3058	19569.96	3.9100	3.9101	1.0426	7.34	1.37	0.750			
0.3089	19770.95	3.9070	3.9070	1.0431	7.33	1.36	0.750			
0.3121	19972.79	3.9040	3.9040	1.0545	7.32	1.35	0.750			
0.3153	20176.13	3.9010	3.9011	1.0659	7.30	1.33	0.750			
0.3185	20384.05	3.8980	3.8981	1.0795	7.29	1.32	0.750			
0.3217	20589.88	3.8950	3.8950	1.0808	7.28	1.31	0.750			
0.3249	20795.92	3.8920	3.8921	1.0955	7.27	1.30	0.750			
0.3282	21006.15	3.8890	3.8890	1.1129	7.26	1.29	0.750			
0.3316	21225.31	3.8860	3.8858	1.1320	7.25	1.28	0.750			
0.3350	21442.64	3.8830	3.8830	1.1436	7.24	1.27	0.750			
0.3385	21663.68	3.8800	3.8801	1.1594	7.23	1.26	0.750			
0.3420	21890.05	3.8770	3.8771	1.1780	7.22	1.25	0.750			
0.3456	22115.41	3.8740	3.8739	1.1879	7.21	1.24	0.750			
0.3491	22343.41	3.8710	3.8710	1.2064	7.20	1.23	0.750			
0.3528	22576.34	3.8680	3.8680	1.2247	7.18	1.21	0.750			
0.3565	22816.22	3.8650	3.8649	1.2396	7.17	1.20	0.750			
0.3602	23055.84	3.8620	3.8620	1.2590	7.16	1.19	0.750			
0.3640	23298.15	3.8590	3.8591	1.2795	7.14	1.17	0.750			
0.3679	23546.65	3.8560	3.8560	1.2966	7.13	1.16	0.750			
0.3718	23795.50	3.8530	3.8530	1.3255	7.11	1.14	0.750			
0.3758	24051.50	3.8500	3.8500	1.3480	7.10	1.13	0.750			
0.3799	24313.54	3.8470	3.8470	1.3807	7.08	1.11	0.750			
0.3841	24582.10	3.8440	3.8441	1.4071	7.06	1.09	0.750			
0.3883	24850.67	3.8410	3.8411	1.4315	7.05	1.08	0.750			
0.3927	25130.45	3.8380	3.8379	1.4547	7.04	1.07	0.750	0.443	1.037	
0.3971	25412.33	3.8350	3.8352	1.4839	7.02	1.05	0.750			
0.4015	25696.99	3.8320	3.8320	1.5182	7.01	1.04	0.750			
0.4062	25993.67	3.8290	3.8290	1.5546	6.99	1.02	0.750			
0.4108	26292.95	3.8260	3.8262	1.5761	6.98	1.01	0.750			
0.4156	26601.46	3.8230	3.8230	1.6289	6.96	0.99	0.750			
0.4206	26918.64	3.8200	3.8201	1.6555	6.95	0.98	0.750			
0.4256	27237.31	3.8170	3.8170	1.7012	6.93	0.96	0.750			
0.4308	27570.34	3.8140	3.8140	1.7340	6.91	0.94	0.750			
0.4361	27909.43	3.8110	3.8108	1.7818	6.89	0.92	0.750			
0.4415	28256.74	3.8080	3.8082	1.8157	6.86	0.89	0.750			
0.4470	28607.13	3.8050	3.8050	1.8527	6.84	0.87	0.750			
0.4527	28969.99	3.8020	3.8019	1.8919	6.81	0.84	0.750			
0.4583	29332.50	3.7990	3.7991	1.9294	6.79	0.82	0.750			
0.4642	29708.40	3.7960	3.7960	1.9898	6.76	0.79	0.750			
0.4703	30096.77	3.7930	3.7930	2.0310	6.74	0.77	0.750			
0.4764	30488.21	3.7900	3.7900	2.0639	6.71	0.74	0.750			
0.4827	30889.63	3.7870	3.7870	2.1164	6.69	0.72	0.750			
0.4891	31300.54	3.7840	3.7839	2.1589	6.66	0.69	0.750			
0.4956	31717.57	3.7810	3.7809	2.1874	6.63	0.66	0.750			
0.5023	32144.69	3.7780	3.7780	2.2419	6.59	0.62	0.750			
0.5090	32576.18	3.7750	3.7750	2.2863	6.56	0.59	0.750			
0.5159	33019.25	3.7720	3.7721	2.3207	6.53	0.56	0.750			
0.5230	33472.98	3.7690	3.7690	2.3582	6.50	0.53	0.750			
0.5301	33928.81	3.7660	3.7659	2.4003	6.48	0.51	0.750			
0.5373	34389.68	3.7630	3.7630	2.4020	6.45	0.48	0.750			
0.5446	34853.96	3.7600	3.7602	2.4376	6.41	0.44	0.750			
0.5519	35319.04	3.7570	3.7569	2.4831	6.38	0.41	0.750			
0.5594	35802.70	3.7540	3.7540	2.5352	6.34	0.37	0.750			
0.5672	36302.44	3.7510	3.7509	2.6079	6.32	0.35	0.750			
0.5750	36798.41	3.7480	3.7480	2.6633	6.29	0.32	0.750			
0.5832	37324.37	3.7450	3.7450	2.7443	6.25	0.28	0.750			
0.5916	37861.48	3.7420	3.7421	2.8820	6.21	0.24	0.750			
0.6004	38427.24	3.7390	3.7391	3.0033	6.18	0.21	0.750			
0.6097	39020.98	3.7360	3.7360	3.1781	6.14	0.17	0.750			
0.6193	39637.99	3.7330	3.7331	3.2934	6.11	0.14	0.750			
0.6295	40290.39	3.7300	3.7301	3.3365	6.08	0.11	0.750			
0.6395	40926.98	3.7270	3.7270	3.2524	6.05	0.08	0.750			
0.6491	41539.86	3.7240	3.7240	3.0013	6.02	0.05	0.750			
0.6576	42086.64	3.7210	3.7210	2.7039	6.01	0.04	0.750			
0.6652	42569.72	3.7180	3.7181	2.3527	6.00	0.03	0.750			
0.6717	42988.86	3.7150	3.7149	2.0466	5.99	0.02	0.750			
0.6773	43344.80	3.7120	3.7121	1.7634	5.98	0.01	0.750			
0.6818	43638.23	3.7090	3.7090	1.4995	5.97	0.00	0.750			
0.6861	43908.26	3.7060	3.7059	1.3134	5.97	0.00	0.750			
0.6895	44128.55	3.7030	3.7030	1.1544	5.97	0.00	0.750			
0.6926	44327.45	3.7000	3.7000	1.0306	5.97	0.00	0.750			
0.6954	44507.17	3.6970	3.6970	0.9382	5.97	0.00	0.750			
0.6981	44678.00	3.6940	3.6939	0.8688	5.97	0.00	0.750			
0.7006	44836.98	3.6910	3.6910	0.8050	5.97	0.00	0.750			
0.7029	44985.98	3.6880	3.6879	0.7501	5.97	0.00	0.750			
0.7051	45125.23	3.6850	3.6852	0.6948	5.97	0.00	0.750			
0.7071	45253.34	3.6820	3.6818	0.6383	5.97	0.00	0.750			
0.7089	45370.09	3.6790	3.6790	0.5802	5.97	0.00	0.750			
0.7106	45476.44	3.6760	3.6760	0.5227	5.97	0.00	0.750			
0.7120	45571.05	3.6730	3.6730	0.4689	5.97	0.00	0.750			
0.7133	45654.36	3.6700	3.6699	0.4134	5.97	0.00	0.750			
0.7145	45726.88	3.6670	3.6670	0.3676	5.97	0.00	0.750			
0.7155	45791.70	3.6640	3.6640	0.3237	5.97	0.00	0.750			
0.7164	45849.29	3.6610	3.6610	0.2847	5.97	0.00	0.750			
0.7172	45901.27	3.6580	3.6580	0.2462	5.97	0.00	0.750			
0.7179	45945.39	3.6550	3.6550	0.2088	5.97	0.00	0.750			
0.7185	45981.84	3.6520	3.6521	0.1694	5.97	0.00	0.750			
0.7189	46011.39	3.6490	3.6493	0.1287	5.97	0.00	0.750			
0.7193	46032.28	3.6460	3.6466	0.0864	5.97	0.00	0.750			
0.7195	46044.82	3.6430	3.6443	0.0420	5.97	0.00	0.750			
