Ah_balance (normalized)	Ah_balance (mAh)	Voltage - fit (V)	Voltage -  interpolate (V)	dQ/dV (1/V)	Temperature (°C)	Temperature - diff (°C)	Current (C)	R_DC 0ms (mOhm)	R_DC 50ms (mOhm)	R_DC 50 ms PEC (mOhm)
0.0973	6227.08	4.0030	4.0027	-0.0983	5.99	0.00	-0.750			
0.0976	6249.58	4.0000	3.9999	-0.1259	5.99	0.00	-0.750			
0.0981	6275.71	3.9970	3.9970	-0.1504	5.99	-0.00	-0.750			
0.0985	6306.68	3.9940	3.9940	-0.1765	5.99	-0.00	-0.750			
0.0991	6343.43	3.9910	3.9911	-0.2002	5.99	-0.00	-0.750			
0.0998	6384.72	3.9880	3.9879	-0.2245	5.99	-0.00	-0.750			
0.1005	6430.21	3.9850	3.9851	-0.2467	5.99	-0.00	-0.750			
0.1013	6480.09	3.9820	3.9820	-0.2684	5.98	-0.01	-0.750			
0.1021	6533.17	3.9790	3.9790	-0.2939	5.98	-0.01	-0.750			
0.1030	6591.97	3.9760	3.9760	-0.3181	5.98	-0.01	-0.750			
0.1040	6654.29	3.9730	3.9730	-0.3423	5.98	-0.01	-0.750			
0.1050	6722.87	3.9700	3.9700	-0.3690	5.98	-0.01	-0.750			
0.1062	6797.12	3.9670	3.9670	-0.3943	5.98	-0.01	-0.750			
0.1074	6875.65	3.9640	3.9640	-0.4182	5.97	-0.02	-0.750			
0.1087	6958.84	3.9610	3.9610	-0.4411	5.97	-0.02	-0.750			
0.1101	7044.57	3.9580	3.9581	-0.4633	5.97	-0.02	-0.750			
0.1115	7136.09	3.9550	3.9549	-0.4858	5.97	-0.02	-0.750			
0.1130	7232.45	3.9520	3.9519	-0.5018	5.97	-0.02	-0.750			
0.1145	7330.96	3.9490	3.9490	-0.5193	5.97	-0.02	-0.750			
0.1161	7431.91	3.9460	3.9461	-0.5368	5.97	-0.02	-0.750			
0.1178	7537.77	3.9430	3.9431	-0.5553	5.97	-0.02	-0.750			
0.1195	7644.96	3.9400	3.9399	-0.5726	5.97	-0.02	-0.750			
0.1212	7755.29	3.9370	3.9370	-0.5883	5.97	-0.02	-0.750			
0.1230	7871.06	3.9340	3.9342	-0.6077	5.97	-0.02	-0.750			
0.1249	7991.21	3.9310	3.9308	-0.6254	5.97	-0.02	-0.750			
0.1267	8111.81	3.9280	3.9282	-0.6361	5.97	-0.02	-0.750			
0.1287	8235.03	3.9250	3.9250	-0.6507	5.97	-0.02	-0.750			
0.1307	8364.39	3.9220	3.9218	-0.6643	5.98	-0.01	-0.750			
0.1327	8492.35	3.9190	3.9190	-0.6691	5.98	-0.01	-0.750			
0.1347	8621.07	3.9160	3.9160	-0.6773	5.98	-0.01	-0.750			
0.1367	8751.81	3.9130	3.9130	-0.6862	5.98	-0.01	-0.750			
0.1388	8884.72	3.9100	3.9099	-0.6898	5.99	-0.00	-0.750			
0.1409	9015.82	3.9070	3.9070	-0.7006	5.99	-0.00	-0.750			
0.1430	9151.35	3.9040	3.9041	-0.7056	5.99	0.00	-0.750			
0.1452	9291.68	3.9010	3.9009	-0.7146	6.00	0.01	-0.750			
0.1473	9428.88	3.8980	3.8981	-0.7117	6.00	0.01	-0.750			
0.1494	9564.19	3.8950	3.8950	-0.7142	6.00	0.01	-0.750			
0.1516	9701.56	3.8920	3.8919	-0.7147	6.01	0.02	-0.750			
0.1537	9838.49	3.8890	3.8889	-0.7272	6.01	0.02	-0.750			
0.1559	9976.33	3.8860	3.8861	-0.7300	6.02	0.03	-0.750			
0.1581	10121.29	3.8830	3.8829	-0.7431	6.02	0.03	-0.750			
0.1604	10264.92	3.8800	3.8803	-0.7457	6.03	0.04	-0.750			
0.1626	10409.54	3.8770	3.8770	-0.7494	6.03	0.04	-0.750			
0.1649	10552.23	3.8740	3.8741	-0.7503	6.04	0.05	-0.750			
0.1671	10696.22	3.8710	3.8709	-0.7531	6.04	0.05	-0.750			
0.1694	10840.84	3.8680	3.8680	-0.7582	6.04	0.05	-0.750			
0.1717	10986.91	3.8650	3.8650	-0.7609	6.05	0.06	-0.750			
0.1740	11134.63	3.8620	3.8620	-0.7661	6.05	0.06	-0.750			
0.1763	11281.17	3.8590	3.8590	-0.7699	6.06	0.07	-0.750			
0.1786	11429.76	3.8560	3.8560	-0.7696	6.06	0.07	-0.750			
0.1809	11577.25	3.8530	3.8529	-0.7670	6.06	0.07	-0.750			
0.1832	11724.42	3.8500	3.8500	-0.7694	6.07	0.08	-0.750			
0.1855	11873.31	3.8470	3.8474	-0.7663	6.07	0.08	-0.750			
0.1878	12019.41	3.8440	3.8439	-0.7676	6.08	0.09	-0.750			
0.1901	12167.07	3.8410	3.8410	-0.7685	6.09	0.10	-0.750			
0.1924	12313.95	3.8380	3.8380	-0.7695	6.10	0.11	-0.750			
0.1947	12463.23	3.8350	3.8349	-0.7703	6.11	0.12	-0.750			
0.1970	12610.62	3.8320	3.8320	-0.7682	6.12	0.13	-0.750			
0.1993	12757.19	3.8290	3.8290	-0.7671	6.13	0.14	-0.750			
0.2016	12904.26	3.8260	3.8260	-0.7730	6.13	0.14	-0.750			
0.2039	13051.40	3.8230	3.8230	-0.7706	6.14	0.15	-0.750			
0.2063	13201.46	3.8200	3.8200	-0.7667	6.15	0.16	-0.750			
0.2086	13349.03	3.8170	3.8170	-0.7685	6.16	0.17	-0.750			
0.2109	13496.74	3.8140	3.8142	-0.7713	6.17	0.18	-0.750			
0.2132	13643.44	3.8110	3.8108	-0.7705	6.18	0.19	-0.750			
0.2155	13790.39	3.8080	3.8080	-0.7743	6.18	0.19	-0.750			
0.2178	13939.07	3.8050	3.8050	-0.7787	6.19	0.20	-0.750			
0.2202	14090.93	3.8020	3.8020	-0.7811	6.19	0.20	-0.750			
0.2225	14242.25	3.7990	3.7989	-0.7835	6.20	0.21	-0.750			
0.2249	14391.15	3.7960	3.7960	-0.7809	6.21	0.22	-0.750			
0.2272	14541.21	3.7930	3.7929	-0.7815	6.22	0.23	-0.750			
0.2295	14690.67	3.7900	3.7900	-0.7792	6.23	0.24	-0.750			
0.2319	14839.69	3.7870	3.7869	-0.7797	6.24	0.25	-0.750			
0.2342	14990.05	3.7840	3.7841	-0.7846	6.25	0.26	-0.750			
0.2366	15141.81	3.7810	3.7810	-0.7851	6.25	0.26	-0.750			
0.2389	15290.74	3.7780	3.7779	-0.7881	6.26	0.27	-0.750			
0.2413	15442.96	3.7750	3.7750	-0.7918	6.26	0.27	-0.750			
0.2437	15597.14	3.7720	3.7720	-0.7811	6.27	0.28	-0.750			
0.2460	15745.93	3.7690	3.7689	-0.7817	6.28	0.29	-0.750			
0.2483	15893.84	3.7660	3.7663	-0.7862	6.28	0.29	-0.750			
0.2507	16044.13	3.7630	3.7627	-0.7911	6.29	0.30	-0.750			
0.2531	16197.20	3.7600	3.7599	-0.8005	6.30	0.31	-0.750			
0.2555	16353.54	3.7570	3.7569	-0.7970	6.31	0.32	-0.750			
0.2580	16510.22	3.7540	3.7540	-0.8000	6.32	0.33	-0.750			
0.2604	16664.37	3.7510	3.7515	-0.8047	6.33	0.34	-0.750			
0.2627	16814.72	3.7480	3.7479	-0.7969	6.34	0.35	-0.750			
0.2651	16967.25	3.7450	3.7449	-0.7996	6.34	0.35	-0.750			
0.2675	17117.81	3.7420	3.7420	-0.8020	6.35	0.36	-0.750			
0.2700	17276.83	3.7390	3.7390	-0.8156	6.36	0.37	-0.750			
0.2724	17434.21	3.7360	3.7359	-0.8104	6.37	0.38	-0.750			
0.2748	17588.47	3.7330	3.7329	-0.8172	6.37	0.38	-0.750			
0.2772	17743.98	3.7300	3.7301	-0.8243	6.38	0.39	-0.750			
0.2797	17902.58	3.7270	3.7269	-0.8314	6.38	0.39	-0.750			
0.2822	18063.96	3.7240	3.7240	-0.8372	6.38	0.39	-0.750			
0.2848	18227.04	3.7210	3.7212	-0.8425	6.39	0.40	-0.750			
0.2874	18390.56	3.7180	3.7179	-0.8422	6.39	0.40	-0.750			
0.2899	18553.49	3.7150	3.7149	-0.8533	6.40	0.41	-0.750			
0.2924	18714.78	3.7120	3.7120	-0.8519	6.40	0.41	-0.750			
0.2950	18877.68	3.7090	3.7089	-0.8543	6.41	0.42	-0.750			
0.2976	19044.85	3.7060	3.7062	-0.8646	6.41	0.42	-0.750			
0.3002	19211.04	3.7030	3.7030	-0.8721	6.42	0.43	-0.750			
0.3028	19378.06	3.7000	3.7000	-0.8828	6.42	0.43	-0.750			
0.3054	19547.90	3.6970	3.6970	-0.8920	6.43	0.44	-0.750			
0.3081	19719.88	3.6940	3.6939	-0.9047	6.43	0.44	-0.750			
0.3109	19894.97	3.6910	3.6911	-0.9149	6.44	0.45	-0.750			
0.3136	20071.84	3.6880	3.6880	-0.9308	6.45	0.46	-0.750			
0.3165	20253.31	3.6850	3.6849	-0.9405	6.45	0.46	-0.750			
0.3193	20435.12	3.6820	3.6820	-0.9488	6.45	0.46	-0.750			
0.3222	20618.26	3.6790	3.6791	-0.9514	6.46	0.47	-0.750			
0.3250	20801.36	3.6760	3.6759	-0.9600	6.46	0.47	-0.750			
0.3279	20985.79	3.6730	3.6730	-0.9612	6.46	0.47	-0.750			
0.3308	21169.44	3.6700	3.6700	-0.9647	6.47	0.48	-0.750			
0.3336	21353.57	3.6670	3.6668	-0.9649	6.47	0.48	-0.750			
0.3366	21541.44	3.6640	3.6639	-0.9781	6.47	0.48	-0.750			
0.3395	21730.39	3.6610	3.6611	-0.9963	6.48	0.49	-0.750			
0.3426	21923.39	3.6580	3.6579	-1.0123	6.48	0.49	-0.750			
0.3456	22117.76	3.6550	3.6549	-1.0177	6.49	0.50	-0.750			
0.3487	22317.64	3.6520	3.6522	-1.0395	6.49	0.50	-0.750			
0.3519	22518.57	3.6490	3.6489	-1.0492	6.50	0.51	-0.750			
0.3550	22720.89	3.6460	3.6459	-1.0604	6.50	0.51	-0.750			
0.3581	22921.41	3.6430	3.6431	-1.0594	6.51	0.52	-0.750			
0.3614	23129.51	3.6400	3.6402	-1.0905	6.51	0.52	-0.750			
0.3647	23342.06	3.6370	3.6369	-1.0977	6.51	0.52	-0.750			
0.3681	23555.23	3.6340	3.6339	-1.1060	6.51	0.52	-0.750			
0.3714	23767.36	3.6310	3.6310	-1.1172	6.51	0.52	-0.750			
0.3747	23983.07	3.6280	3.6280	-1.1254	6.51	0.52	-0.750			
0.3781	24197.81	3.6250	3.6249	-1.1340	6.51	0.52	-0.750			
0.3815	24416.76	3.6220	3.6220	-1.1459	6.52	0.53	-0.750			
0.3849	24631.90	3.6190	3.6190	-1.1648	6.52	0.53	-0.750			
0.3885	24864.49	3.6160	3.6160	-1.1784	6.52	0.53	-0.750			
0.3920	25090.84	3.6130	3.6131	-1.1962	6.52	0.53	-0.750			
0.3956	25318.19	3.6100	3.6099	-1.2219	6.52	0.53	-0.750			
0.3993	25554.23	3.6070	3.6071	-1.2408	6.52	0.53	-0.750			
0.4030	25788.99	3.6040	3.6039	-1.2743	6.52	0.53	-0.750			
0.4069	26042.33	3.6010	3.6007	-1.2930	6.53	0.54	-0.750			
0.4109	26297.12	3.5980	3.5983	-1.3199	6.53	0.54	-0.750			
0.4149	26553.52	3.5950	3.5951	-1.3243	6.53	0.54	-0.750	0.473	1.085	
0.4189	26809.86	3.5920	3.5919	-1.3220	6.53	0.54	-0.750			
0.4229	27064.36	3.5890	3.5890	-1.3294	6.53	0.54	-0.750			
0.4268	27314.09	3.5860	3.5860	-1.3182	6.53	0.54	-0.750			
0.4307	27566.31	3.5830	3.5829	-1.3215	6.53	0.54	-0.750			
0.4347	27823.92	3.5800	3.5802	-1.3450	6.53	0.54	-0.750			
0.4388	28082.03	3.5770	3.5769	-1.3519	6.53	0.54	-0.750			
0.4429	28343.35	3.5740	3.5739	-1.3604	6.54	0.55	-0.750			
0.4469	28603.58	3.5710	3.5711	-1.3794	6.54	0.55	-0.750			
0.4510	28866.70	3.5680	3.5680	-1.3904	6.54	0.55	-0.750			
0.4553	29140.14	3.5650	3.5648	-1.4118	6.54	0.55	-0.750			
0.4596	29411.93	3.5620	3.5620	-1.4249	6.54	0.55	-0.750			
0.4638	29683.77	3.5590	3.5591	-1.4429	6.54	0.55	-0.750			
0.4682	29967.37	3.5560	3.5560	-1.4625	6.55	0.56	-0.750			
0.4727	30250.15	3.5530	3.5530	-1.4744	6.55	0.56	-0.750			
0.4770	30530.58	3.5500	3.5500	-1.4835	6.55	0.56	-0.750			
0.4815	30818.69	3.5470	3.5470	-1.5052	6.55	0.56	-0.750			
0.4861	31110.90	3.5440	3.5440	-1.5192	6.55	0.56	-0.750			
0.4907	31402.64	3.5410	3.5408	-1.5371	6.56	0.57	-0.750			
0.4953	31701.21	3.5380	3.5381	-1.5420	6.57	0.58	-0.750			
0.5000	31998.21	3.5350	3.5350	-1.5671	6.57	0.58	-0.750			
0.5047	32301.15	3.5320	3.5320	-1.5773	6.57	0.58	-0.750			
0.5095	32605.14	3.5290	3.5289	-1.5820	6.57	0.58	-0.750			
0.5142	32907.92	3.5260	3.5259	-1.5861	6.57	0.58	-0.750			
0.5190	33215.82	3.5230	3.5228	-1.6057	6.57	0.58	-0.750			
0.5238	33524.36	3.5200	3.5200	-1.6075	6.57	0.58	-0.750			
0.5287	33837.77	3.5170	3.5170	-1.6151	6.58	0.59	-0.750			
0.5335	34146.22	3.5140	3.5140	-1.6123	6.59	0.60	-0.750			
0.5384	34458.88	3.5110	3.5111	-1.6258	6.59	0.60	-0.750			
0.5433	34771.94	3.5080	3.5081	-1.6446	6.59	0.60	-0.750			
0.5482	35087.93	3.5050	3.5050	-1.6404	6.59	0.60	-0.750			
0.5532	35402.69	3.5020	3.5022	-1.6349	6.60	0.61	-0.750			
0.5582	35721.60	3.4990	3.4990	-1.6382	6.61	0.62	-0.750			
0.5631	36036.42	3.4960	3.4957	-1.6371	6.61	0.62	-0.750			
0.5679	36347.39	3.4930	3.4930	-1.6100	6.62	0.63	-0.750			
0.5727	36653.48	3.4900	3.4902	-1.6103	6.63	0.64	-0.750			
0.5775	36961.00	3.4870	3.4868	-1.5973	6.64	0.65	-0.750			
0.5823	37266.53	3.4840	3.4842	-1.5898	6.65	0.66	-0.750			
0.5871	37573.72	3.4810	3.4809	-1.5823	6.65	0.66	-0.750			
0.5919	37880.20	3.4780	3.4781	-1.5815	6.66	0.67	-0.750			
0.5966	38182.35	3.4750	3.4750	-1.5628	6.67	0.68	-0.750			
0.6012	38477.97	3.4720	3.4720	-1.5464	6.68	0.69	-0.750			
0.6059	38777.68	3.4690	3.4688	-1.5349	6.70	0.71	-0.750			
0.6105	39069.91	3.4660	3.4662	-1.5266	6.71	0.72	-0.750			
0.6150	39360.13	3.4630	3.4630	-1.5132	6.72	0.73	-0.750			
0.6196	39653.78	3.4600	3.4599	-1.5019	6.73	0.74	-0.750			
0.6241	39940.59	3.4570	3.4571	-1.4859	6.74	0.75	-0.750			
0.6285	40224.10	3.4540	3.4539	-1.4735	6.75	0.76	-0.750			
0.6330	40512.88	3.4510	3.4509	-1.3882	6.76	0.77	-0.750			
0.6372	40780.58	3.4480	3.4480	-1.3277	6.78	0.79	-0.750			
0.6410	41026.41	3.4450	3.4453	-1.2668	6.79	0.80	-0.750			
0.6446	41251.86	3.4420	3.4419	-1.2491	6.80	0.81	-0.750			
0.6480	41473.95	3.4390	3.4389	-1.2249	6.81	0.82	-0.750			
0.6517	41708.59	3.4360	3.4359	-1.2408	6.82	0.83	-0.750			
0.6555	41950.49	3.4330	3.4331	-1.2545	6.83	0.84	-0.750			
0.6595	42206.27	3.4300	3.4302	-1.2860	6.85	0.86	-0.750			
0.6634	42458.16	3.4270	3.4269	-1.2719	6.86	0.87	-0.750			
0.6672	42697.82	3.4240	3.4239	-1.2437	6.87	0.88	-0.750			
0.6708	42933.46	3.4210	3.4210	-1.2186	6.88	0.89	-0.750			
0.6744	43164.24	3.4180	3.4180	-1.1921	6.89	0.90	-0.750			
0.6780	43394.75	3.4150	3.4149	-1.1692	6.91	0.92	-0.750			
0.6815	43615.42	3.4120	3.4120	-1.1392	6.92	0.93	-0.750			
0.6849	43830.55	3.4090	3.4090	-1.1106	6.93	0.94	-0.750			
0.6882	44043.63	3.4060	3.4059	-1.0894	6.94	0.95	-0.750			
0.6914	44248.18	3.4030	3.4030	-1.0541	6.95	0.96	-0.750			
0.6945	44448.60	3.4000	3.4000	-1.0245	6.96	0.97	-0.750			
0.6975	44642.10	3.3970	3.3972	-1.0000	6.97	0.98	-0.750			
0.7005	44831.33	3.3940	3.3939	-0.9785	6.98	0.99	-0.750			
0.7034	45016.98	3.3910	3.3909	-0.9481	7.00	1.01	-0.750			
0.7062	45195.39	3.3880	3.3880	-0.9211	7.01	1.02	-0.750			
0.7089	45369.92	3.3850	3.3850	-0.8951	7.02	1.03	-0.750			
0.7116	45541.79	3.3820	3.3820	-0.8741	7.04	1.05	-0.750			
0.7141	45705.57	3.3790	3.3789	-0.8516	7.05	1.06	-0.750			
0.7167	45865.65	3.3760	3.3760	-0.8205	7.06	1.07	-0.750			
0.7191	46020.64	3.3730	3.3730	-0.7991	7.07	1.08	-0.750			
0.7215	46173.55	3.3700	3.3700	-0.7807	7.08	1.09	-0.750			
0.7238	46320.77	3.3670	3.3669	-0.7569	7.09	1.10	-0.750			
0.7260	46464.16	3.3640	3.3639	-0.7333	7.10	1.11	-0.750			
0.7282	46603.19	3.3610	3.3610	-0.7251	7.12	1.13	-0.750			
