Ah_balance (normalized)	Ah_balance (mAh)	Voltage - fit (V)	Voltage -  interpolate (V)	dQ/dV (1/V)	Temperature (°C)	Temperature - diff (°C)	Current (C)	R_DC 0ms (mOhm)	R_DC 50ms (mOhm)	R_DC 50 ms PEC (mOhm)
0.1806	11559.56	4.0820	4.0820	0.7549	7.25	1.26	0.750			
0.1829	11707.39	4.0790	4.0791	0.7793	7.25	1.26	0.750			
0.1853	11859.71	4.0760	4.0759	0.7913	7.25	1.26	0.750			
0.1877	12011.58	4.0730	4.0731	0.7981	7.25	1.26	0.750			
0.1901	12167.56	4.0700	4.0700	0.7945	7.25	1.26	0.750			
0.1925	12320.54	4.0670	4.0671	0.8007	7.25	1.26	0.750			
0.1949	12474.83	4.0640	4.0640	0.8050	7.25	1.26	0.750			
0.1973	12626.68	4.0610	4.0611	0.8029	7.25	1.26	0.750			
0.1997	12782.03	4.0580	4.0579	0.8082	7.25	1.26	0.750			
0.2022	12938.80	4.0550	4.0550	0.8060	7.24	1.25	0.750			
0.2046	13092.69	4.0520	4.0521	0.8118	7.24	1.25	0.750			
0.2070	13249.95	4.0490	4.0490	0.8189	7.24	1.25	0.750			
0.2095	13406.60	4.0460	4.0460	0.8182	7.23	1.24	0.750			
0.2119	13563.96	4.0430	4.0429	0.8195	7.23	1.24	0.750			
0.2144	13723.86	4.0400	4.0401	0.8184	7.23	1.24	0.750			
0.2169	13881.30	4.0370	4.0370	0.8256	7.22	1.23	0.750			
0.2194	14039.65	4.0340	4.0341	0.8291	7.22	1.23	0.750			
0.2218	14197.88	4.0310	4.0310	0.8302	7.21	1.22	0.750			
0.2243	14357.46	4.0280	4.0279	0.8350	7.21	1.22	0.750			
0.2269	14520.88	4.0250	4.0250	0.8317	7.21	1.22	0.750			
0.2294	14681.41	4.0220	4.0221	0.8351	7.20	1.21	0.750			
0.2319	14840.05	4.0190	4.0190	0.8367	7.20	1.21	0.750			
0.2344	14998.59	4.0160	4.0160	0.8369	7.19	1.20	0.750			
0.2369	15159.04	4.0130	4.0129	0.8402	7.19	1.20	0.750			
0.2394	15322.46	4.0100	4.0101	0.8418	7.19	1.20	0.750			
0.2420	15485.83	4.0070	4.0071	0.8520	7.18	1.19	0.750			
0.2445	15650.36	4.0040	4.0040	0.8597	7.18	1.19	0.750			
0.2471	15814.15	4.0010	4.0011	0.8635	7.17	1.18	0.750			
0.2497	15980.09	3.9980	3.9980	0.8642	7.17	1.18	0.750			
0.2523	16148.61	3.9950	3.9950	0.8659	7.16	1.17	0.750			
0.2549	16316.57	3.9920	3.9920	0.8710	7.16	1.17	0.750			
0.2576	16484.06	3.9890	3.9891	0.8696	7.16	1.17	0.750			
0.2601	16648.99	3.9860	3.9860	0.8686	7.15	1.16	0.750			
0.2628	16816.14	3.9830	3.9831	0.8714	7.15	1.16	0.750			
0.2653	16982.30	3.9800	3.9800	0.8716	7.15	1.16	0.750			
0.2680	17150.66	3.9770	3.9771	0.8823	7.15	1.16	0.750			
0.2707	17323.06	3.9740	3.9740	0.8902	7.15	1.16	0.750			
0.2733	17493.21	3.9710	3.9708	0.8888	7.15	1.16	0.750			
0.2760	17666.09	3.9680	3.9680	0.8901	7.15	1.16	0.750			
0.2787	17836.11	3.9650	3.9651	0.8911	7.14	1.15	0.750			
0.2814	18006.91	3.9620	3.9620	0.9019	7.14	1.15	0.750			
0.2841	18180.07	3.9590	3.9590	0.9071	7.13	1.14	0.750			
0.2868	18352.64	3.9560	3.9558	0.9107	7.13	1.14	0.750			
0.2895	18530.90	3.9530	3.9530	0.9127	7.12	1.13	0.750			
0.2923	18707.93	3.9500	3.9501	0.9239	7.11	1.12	0.750			
0.2951	18884.87	3.9470	3.9470	0.9320	7.10	1.11	0.750			
0.2979	19063.62	3.9440	3.9439	0.9358	7.09	1.10	0.750			
0.3007	19244.81	3.9410	3.9411	0.9367	7.09	1.10	0.750			
0.3035	19425.30	3.9380	3.9380	0.9465	7.08	1.09	0.750			
0.3064	19607.39	3.9350	3.9351	0.9551	7.08	1.09	0.750			
0.3093	19793.57	3.9320	3.9320	0.9629	7.07	1.08	0.750			
0.3121	19976.86	3.9290	3.9290	0.9650	7.07	1.08	0.750			
0.3150	20162.40	3.9260	3.9261	0.9678	7.06	1.07	0.750			
0.3179	20348.05	3.9230	3.9231	0.9789	7.06	1.07	0.750			
0.3209	20537.24	3.9200	3.9200	0.9880	7.05	1.06	0.750			
0.3238	20726.32	3.9170	3.9168	0.9975	7.05	1.06	0.750			
0.3269	20918.89	3.9140	3.9140	0.9996	7.05	1.06	0.750			
0.3299	21111.77	3.9110	3.9111	1.0131	7.04	1.05	0.750			
0.3329	21306.90	3.9080	3.9081	1.0280	7.04	1.05	0.750			
0.3360	21504.62	3.9050	3.9048	1.0353	7.03	1.04	0.750			
0.3391	21705.08	3.9020	3.9020	1.0429	7.02	1.03	0.750			
0.3423	21907.81	3.8990	3.8990	1.0559	7.01	1.02	0.750			
0.3455	22111.38	3.8960	3.8961	1.0680	7.00	1.01	0.750			
0.3487	22319.24	3.8930	3.8929	1.0832	6.99	1.00	0.750			
0.3519	22524.16	3.8900	3.8900	1.0783	6.98	0.99	0.750			
0.3552	22730.77	3.8870	3.8870	1.0933	6.98	0.99	0.750			
0.3584	22940.40	3.8840	3.8842	1.1144	6.97	0.98	0.750			
0.3619	23158.45	3.8810	3.8807	1.1209	6.97	0.98	0.750			
0.3652	23372.60	3.8780	3.8781	1.1445	6.96	0.97	0.750			
0.3687	23594.84	3.8750	3.8751	1.1626	6.95	0.96	0.750			
0.3722	23822.19	3.8720	3.8721	1.1812	6.94	0.95	0.750			
0.3758	24050.62	3.8690	3.8691	1.1881	6.92	0.93	0.750			
0.3794	24279.63	3.8660	3.8661	1.2033	6.91	0.92	0.750			
0.3830	24511.99	3.8630	3.8631	1.2219	6.90	0.91	0.750			
0.3867	24751.99	3.8600	3.8600	1.2182	6.89	0.90	0.750			
0.3904	24983.24	3.8570	3.8570	1.2453	6.88	0.89	0.750			
0.3941	25224.68	3.8540	3.8541	1.2721	6.86	0.87	0.750			
0.3980	25470.50	3.8510	3.8508	1.2955	6.85	0.86	0.750			
0.4018	25717.11	3.8480	3.8482	1.3117	6.85	0.86	0.750			
0.4057	25967.69	3.8450	3.8453	1.3397	6.84	0.85	0.750			
0.4098	26226.77	3.8420	3.8419	1.3827	6.83	0.84	0.750			
0.4140	26497.12	3.8390	3.8388	1.4300	6.82	0.83	0.750			
0.4183	26772.98	3.8360	3.8363	1.4606	6.80	0.81	0.750	0.413	0.994	
0.4229	27063.40	3.8330	3.8331	1.4671	6.78	0.79	0.750			
0.4275	27358.49	3.8300	3.8301	1.5135	6.77	0.78	0.750			
0.4319	27643.09	3.8270	3.8271	1.5253	6.76	0.77	0.750			
0.4363	27926.17	3.8240	3.8238	1.5260	6.75	0.76	0.750			
0.4409	28219.68	3.8210	3.8213	1.5784	6.74	0.75	0.750			
0.4457	28527.39	3.8180	3.8182	1.6057	6.72	0.73	0.750			
0.4506	28841.20	3.8150	3.8149	1.6638	6.70	0.71	0.750			
0.4556	29159.41	3.8120	3.8123	1.6938	6.69	0.70	0.750			
0.4608	29492.09	3.8090	3.8090	1.7311	6.67	0.68	0.750			
0.4662	29835.45	3.8060	3.8060	1.7502	6.65	0.66	0.750			
0.4714	30171.56	3.8030	3.8032	1.7900	6.64	0.65	0.750			
0.4768	30512.47	3.8000	3.8001	1.8279	6.62	0.63	0.750			
0.4823	30868.15	3.7970	3.7970	1.8643	6.60	0.61	0.750			
0.4880	31230.98	3.7940	3.7940	1.9003	6.58	0.59	0.750			
0.4937	31598.82	3.7910	3.7912	1.9692	6.55	0.56	0.750			
0.4998	31987.29	3.7880	3.7882	1.9491	6.53	0.54	0.750			
0.5055	32354.54	3.7850	3.7852	2.0140	6.51	0.52	0.750			
0.5118	32753.79	3.7820	3.7816	2.0578	6.49	0.50	0.750			
0.5181	33158.36	3.7790	3.7789	2.1139	6.47	0.48	0.750			
0.5245	33571.10	3.7760	3.7764	2.1424	6.45	0.46	0.750			
0.5311	33987.73	3.7730	3.7731	2.1690	6.43	0.44	0.750			
0.5374	34395.99	3.7700	3.7703	2.1311	6.41	0.42	0.750			
0.5440	34817.87	3.7670	3.7670	2.2055	6.39	0.40	0.750			
0.5506	35240.82	3.7640	3.7638	2.2885	6.36	0.37	0.750			
0.5575	35681.66	3.7610	3.7611	2.3172	6.33	0.34	0.750			
0.5648	36147.95	3.7580	3.7581	2.3786	6.30	0.31	0.750			
0.5718	36595.17	3.7550	3.7550	2.4474	6.28	0.29	0.750			
0.5792	37070.69	3.7520	3.7518	2.4612	6.25	0.26	0.750			
0.5867	37550.65	3.7490	3.7492	2.4848	6.23	0.24	0.750			
0.5938	38001.59	3.7460	3.7461	2.7920	6.20	0.21	0.750			
0.6023	38548.44	3.7430	3.7430	3.1083	6.17	0.18	0.750			
0.6129	39224.02	3.7400	3.7403	3.3525	6.13	0.14	0.750			
0.6221	39814.57	3.7370	3.7372	3.1948	6.10	0.11	0.750			
0.6307	40362.92	3.7340	3.7340	2.9521	6.07	0.08	0.750			
0.6397	40942.25	3.7310	3.7310	3.1054	6.04	0.05	0.750			
0.6493	41554.62	3.7280	3.7280	3.0955	6.03	0.04	0.750			
0.6586	42150.10	3.7250	3.7251	3.0353	6.01	0.02	0.750			
0.6676	42724.73	3.7220	3.7221	2.8478	5.99	0.00	0.750			
0.6760	43263.27	3.7190	3.7190	2.6614	5.98	-0.01	0.750			
0.6834	43738.31	3.7160	3.7159	2.3336	5.97	-0.02	0.750			
0.6900	44161.01	3.7130	3.7130	2.0617	5.97	-0.02	0.750			
0.6957	44522.33	3.7100	3.7102	1.7928	5.96	-0.03	0.750			
0.7006	44836.98	3.7070	3.7070	1.5553	5.96	-0.03	0.750			
0.7048	45106.79	3.7040	3.7040	1.3495	5.96	-0.03	0.750			
0.7084	45336.60	3.7010	3.7010	1.1909	5.95	-0.04	0.750			
0.7116	45541.24	3.6980	3.6978	1.0608	5.95	-0.04	0.750			
0.7145	45727.99	3.6950	3.6950	0.9652	5.95	-0.04	0.750			
0.7172	45902.05	3.6920	3.6919	0.8893	5.95	-0.04	0.750			
0.7197	46062.05	3.6890	3.6890	0.8335	5.96	-0.03	0.750			
0.7222	46218.21	3.6860	3.6859	0.7809	5.96	-0.03	0.750			
0.7244	46361.95	3.6830	3.6829	0.7249	5.96	-0.03	0.750			
0.7265	46497.59	3.6800	3.6803	0.6711	5.97	-0.02	0.750			
0.7285	46621.85	3.6770	3.6769	0.6145	5.97	-0.02	0.750			
0.7302	46734.57	3.6740	3.6740	0.5572	5.98	-0.01	0.750			
0.7318	46833.80	3.6710	3.6710	0.5004	5.98	-0.01	0.750			
0.7332	46922.42	3.6680	3.6680	0.4487	5.98	-0.01	0.750			
0.7344	47004.53	3.6650	3.6650	0.4053	5.99	-0.00	0.750			
0.7356	47076.94	3.6620	3.6621	0.3616	5.99	-0.00	0.750			
0.7366	47141.92	3.6590	3.6590	0.3202	5.99	0.00	0.750			
0.7375	47199.24	3.6560	3.6559	0.2821	5.99	0.00	0.750			
0.7383	47249.58	3.6530	3.6530	0.2426	5.99	0.00	0.750			
0.7389	47292.44	3.6500	3.6499	0.2043	6.00	0.01	0.750			
0.7395	47328.58	3.6470	3.6470	0.1662	6.00	0.01	0.750			
0.7400	47357.19	3.6440	3.6442	0.1268	6.00	0.01	0.750			
0.7403	47377.73	3.6410	3.6417	0.0863	6.00	0.01	0.750			
0.7405	47390.59	3.6380	3.6389	0.0380	6.00	0.01	0.750			
