Ah_balance (normalized)	Ah_balance (mAh)	Voltage - fit (V)	Voltage -  interpolate (V)	dQ/dV (1/V)	Temperature (°C)	Temperature - diff (°C)	Current (C)	R_DC 0ms (mOhm)	R_DC 50ms (mOhm)	R_DC 50 ms PEC (mOhm)
0.1781	11397.71	4.0820	4.0821	0.7522	7.56	1.59	0.750			
0.1804	11542.46	4.0790	4.0791	0.7618	7.56	1.59	0.750			
0.1827	11691.54	4.0760	4.0760	0.7721	7.55	1.58	0.750			
0.1850	11841.22	4.0730	4.0729	0.7761	7.55	1.58	0.750			
0.1874	11991.39	4.0700	4.0701	0.7790	7.54	1.57	0.750			
0.1897	12141.45	4.0670	4.0670	0.7768	7.54	1.57	0.750			
0.1921	12291.54	4.0640	4.0641	0.7796	7.54	1.57	0.750			
0.1944	12438.93	4.0610	4.0610	0.7785	7.53	1.56	0.750			
0.1967	12586.75	4.0580	4.0581	0.7777	7.53	1.56	0.750			
0.1990	12737.32	4.0550	4.0550	0.7853	7.52	1.55	0.750			
0.2014	12889.26	4.0520	4.0519	0.7788	7.51	1.54	0.750			
0.2037	13038.75	4.0490	4.0491	0.7920	7.51	1.54	0.750			
0.2061	13191.41	4.0460	4.0461	0.7916	7.50	1.53	0.750			
0.2085	13343.42	4.0430	4.0428	0.7940	7.49	1.52	0.750			
0.2109	13495.50	4.0400	4.0402	0.7960	7.49	1.52	0.750			
0.2133	13650.58	4.0370	4.0369	0.7982	7.48	1.51	0.750			
0.2157	13803.31	4.0340	4.0340	0.8030	7.48	1.51	0.750			
0.2181	13958.18	4.0310	4.0310	0.8135	7.48	1.51	0.750			
0.2205	14111.76	4.0280	4.0280	0.8138	7.47	1.50	0.750			
0.2230	14271.76	4.0250	4.0250	0.8202	7.47	1.50	0.750			
0.2255	14432.27	4.0220	4.0220	0.8144	7.46	1.49	0.750			
0.2279	14587.47	4.0190	4.0191	0.8183	7.45	1.48	0.750			
0.2304	14743.07	4.0160	4.0161	0.8262	7.44	1.47	0.750			
0.2328	14900.24	4.0130	4.0130	0.8237	7.43	1.46	0.750			
0.2353	15058.82	4.0100	4.0100	0.8249	7.43	1.46	0.750			
0.2378	15218.87	4.0070	4.0071	0.8300	7.42	1.45	0.750			
0.2403	15378.66	4.0040	4.0042	0.8395	7.41	1.44	0.750			
0.2428	15541.27	4.0010	4.0010	0.8504	7.40	1.43	0.750			
0.2453	15701.22	3.9980	3.9979	0.8482	7.39	1.42	0.750			
0.2479	15866.21	3.9950	3.9950	0.8510	7.39	1.42	0.750			
0.2505	16033.05	3.9920	3.9920	0.8556	7.38	1.41	0.750			
0.2531	16196.30	3.9890	3.9891	0.8633	7.38	1.41	0.750			
0.2557	16361.65	3.9860	3.9859	0.8691	7.38	1.41	0.750			
0.2583	16529.03	3.9830	3.9829	0.8645	7.37	1.40	0.750			
0.2609	16695.05	3.9800	3.9800	0.8665	7.36	1.39	0.750			
0.2635	16862.30	3.9770	3.9771	0.8694	7.36	1.39	0.750			
0.2661	17029.31	3.9740	3.9741	0.8722	7.35	1.38	0.750			
0.2687	17196.21	3.9710	3.9709	0.8649	7.34	1.37	0.750			
0.2713	17363.32	3.9680	3.9677	0.8626	7.33	1.36	0.750			
0.2739	17528.56	3.9650	3.9652	0.8597	7.32	1.35	0.750			
0.2765	17693.56	3.9620	3.9621	0.8682	7.31	1.34	0.750			
0.2790	17858.82	3.9590	3.9590	0.8730	7.31	1.34	0.750			
0.2816	18025.07	3.9560	3.9559	0.8777	7.30	1.33	0.750			
0.2843	18193.48	3.9530	3.9530	0.8936	7.29	1.32	0.750			
0.2871	18374.06	3.9500	3.9500	0.8905	7.28	1.31	0.750			
0.2897	18543.92	3.9470	3.9472	0.9031	7.27	1.30	0.750			
0.2924	18716.64	3.9440	3.9441	0.9153	7.26	1.29	0.750			
0.2952	18891.33	3.9410	3.9411	0.9239	7.25	1.28	0.750			
0.2980	19069.49	3.9380	3.9380	0.9258	7.25	1.28	0.750			
0.3007	19247.59	3.9350	3.9352	0.9386	7.24	1.27	0.750			
0.3036	19429.85	3.9320	3.9321	0.9559	7.23	1.26	0.750			
0.3065	19617.73	3.9290	3.9291	0.9695	7.22	1.25	0.750			
0.3094	19802.53	3.9260	3.9258	0.9629	7.21	1.24	0.750			
0.3123	19989.60	3.9230	3.9231	0.9682	7.20	1.23	0.750			
0.3153	20177.01	3.9200	3.9202	0.9757	7.19	1.22	0.750			
0.3182	20365.35	3.9170	3.9170	0.9809	7.18	1.21	0.750			
0.3211	20552.75	3.9140	3.9138	0.9834	7.17	1.20	0.750			
0.3241	20743.64	3.9110	3.9110	0.9708	7.16	1.19	0.750			
0.3270	20928.36	3.9080	3.9081	0.9922	7.14	1.17	0.750			
0.3300	21119.22	3.9050	3.9051	1.0129	7.13	1.16	0.750			
0.3330	21312.98	3.9020	3.9020	1.0270	7.11	1.14	0.750			
0.3361	21513.60	3.8990	3.8992	1.0435	7.10	1.13	0.750			
0.3393	21716.31	3.8960	3.8961	1.0614	7.09	1.12	0.750			
0.3426	21923.78	3.8930	3.8931	1.0735	7.08	1.11	0.750			
0.3459	22135.38	3.8900	3.8900	1.0932	7.07	1.10	0.750			
0.3491	22342.58	3.8870	3.8870	1.0780	7.06	1.09	0.750			
0.3523	22547.59	3.8840	3.8840	1.0886	7.05	1.08	0.750			
0.3556	22755.68	3.8810	3.8811	1.0999	7.04	1.07	0.750			
0.3589	22971.53	3.8780	3.8776	1.1075	7.03	1.06	0.750			
0.3622	23183.25	3.8750	3.8751	1.1233	7.02	1.05	0.750			
0.3656	23399.58	3.8720	3.8720	1.1428	7.01	1.04	0.750			
0.3691	23620.46	3.8690	3.8692	1.1582	7.00	1.03	0.750			
0.3726	23847.83	3.8660	3.8660	1.1559	6.98	1.01	0.750			
0.3760	24066.08	3.8630	3.8632	1.1798	6.97	1.00	0.750			
0.3796	24292.38	3.8600	3.8601	1.2012	6.95	0.98	0.750			
0.3832	24527.98	3.8570	3.8568	1.2186	6.93	0.96	0.750			
0.3869	24763.15	3.8540	3.8541	1.2348	6.92	0.95	0.750			
0.3907	25004.37	3.8510	3.8512	1.2551	6.91	0.94	0.750			
0.3945	25250.17	3.8480	3.8482	1.2855	6.90	0.93	0.750			
0.3984	25496.82	3.8450	3.8450	1.3214	6.88	0.91	0.750			
0.4023	25750.32	3.8420	3.8419	1.3560	6.87	0.90	0.750	0.346	0.849	
0.4066	26020.60	3.8390	3.8393	1.3705	6.86	0.89	0.750			
0.4108	26288.85	3.8360	3.8362	1.4090	6.84	0.87	0.750			
0.4150	26558.04	3.8330	3.8332	1.4305	6.83	0.86	0.750			
0.4193	26838.08	3.8300	3.8301	1.4372	6.82	0.85	0.750			
0.4237	27117.16	3.8270	3.8268	1.4459	6.80	0.83	0.750			
0.4279	27387.76	3.8240	3.8244	1.4771	6.78	0.81	0.750			
0.4324	27673.69	3.8210	3.8210	1.5278	6.76	0.79	0.750			
0.4371	27973.37	3.8180	3.8177	1.5395	6.74	0.77	0.750			
0.4416	28264.78	3.8150	3.8153	1.5736	6.73	0.76	0.750			
0.4465	28578.38	3.8120	3.8118	1.6037	6.71	0.74	0.750			
0.4514	28892.28	3.8090	3.8090	1.6032	6.69	0.72	0.750			
0.4562	29199.20	3.8060	3.8063	1.6131	6.66	0.69	0.750			
0.4611	29512.14	3.8030	3.8028	1.6493	6.64	0.67	0.750			
0.4660	29822.11	3.8000	3.7998	1.6767	6.63	0.66	0.750			
0.4710	30143.78	3.7970	3.7970	1.6997	6.61	0.64	0.750			
0.4762	30479.38	3.7940	3.7943	1.7426	6.59	0.62	0.750			
0.4816	30822.49	3.7910	3.7912	1.7646	6.56	0.59	0.750			
0.4870	31164.92	3.7880	3.7882	1.7905	6.54	0.57	0.750			
0.4923	31508.81	3.7850	3.7851	1.8012	6.52	0.55	0.750			
0.4977	31849.72	3.7820	3.7819	1.8125	6.50	0.53	0.750			
0.5030	32193.60	3.7790	3.7790	1.8329	6.47	0.50	0.750			
0.5087	32557.50	3.7760	3.7758	1.8345	6.45	0.48	0.750			
0.5143	32913.83	3.7730	3.7731	1.8245	6.43	0.46	0.750			
0.5197	33261.31	3.7700	3.7704	1.8875	6.42	0.45	0.750			
0.5254	33626.22	3.7670	3.7672	1.8682	6.39	0.42	0.750			
0.5310	33986.99	3.7640	3.7643	1.8835	6.37	0.40	0.750			
0.5369	34359.50	3.7610	3.7608	1.9322	6.35	0.38	0.750			
0.5425	34722.73	3.7580	3.7581	1.9461	6.33	0.36	0.750			
0.5483	35091.98	3.7550	3.7551	2.0407	6.30	0.33	0.750			
0.5547	35498.67	3.7520	3.7520	2.0524	6.28	0.31	0.750			
0.5610	35904.63	3.7490	3.7501	2.0604	6.25	0.28	0.750			
0.5670	36286.47	3.7460	3.7459	2.1247	6.23	0.26	0.750			
0.5734	36696.95	3.7430	3.7429	2.1372	6.20	0.23	0.750			
0.5802	37131.54	3.7400	3.7403	2.2638	6.18	0.21	0.750			
0.5871	37575.31	3.7370	3.7367	2.2895	6.16	0.19	0.750			
0.5939	38009.25	3.7340	3.7340	2.3073	6.13	0.16	0.750			
0.6009	38456.22	3.7310	3.7312	2.4421	6.11	0.14	0.750			
0.6084	38934.60	3.7280	3.7280	2.3974	6.09	0.12	0.750			
0.6156	39397.24	3.7250	3.7254	2.3867	6.07	0.10	0.750			
0.6228	39861.71	3.7220	3.7221	2.3456	6.05	0.08	0.750			
0.6296	40296.05	3.7190	3.7192	2.1856	6.03	0.06	0.750			
0.6361	40709.40	3.7160	3.7159	2.0759	6.02	0.05	0.750			
0.6421	41092.89	3.7130	3.7132	1.8623	6.01	0.04	0.750			
0.6476	41448.04	3.7100	3.7101	1.7113	6.00	0.03	0.750			
0.6525	41757.42	3.7070	3.7071	1.5564	5.99	0.02	0.750			
0.6568	42033.74	3.7040	3.7040	1.3866	5.98	0.01	0.750			
0.6604	42267.27	3.7010	3.7011	1.2455	5.97	0.00	0.750			
0.6639	42487.07	3.6980	3.6980	1.1307	5.97	0.00	0.750			
0.6670	42688.54	3.6950	3.6951	1.0669	5.97	0.00	0.750			
0.6701	42886.84	3.6920	3.6920	1.0082	5.97	0.00	0.750			
0.6730	43072.09	3.6890	3.6892	0.9472	5.97	-0.00	0.750			
0.6758	43253.07	3.6860	3.6864	0.8988	5.96	-0.01	0.750			
0.6784	43420.58	3.6830	3.6830	0.8683	5.96	-0.01	0.750			
0.6810	43582.54	3.6800	3.6799	0.8414	5.95	-0.02	0.750			
0.6833	43733.83	3.6770	3.6768	0.8011	5.95	-0.02	0.750			
0.6857	43886.97	3.6740	3.6742	0.7794	5.95	-0.02	0.750			
0.6881	44039.57	3.6710	3.6712	0.7638	5.96	-0.01	0.750			
0.6904	44185.22	3.6680	3.6680	0.7283	5.96	-0.01	0.750			
0.6926	44323.65	3.6650	3.6650	0.6981	5.96	-0.01	0.750			
0.6945	44450.61	3.6620	3.6621	0.6592	5.97	-0.00	0.750			
0.6965	44573.63	3.6590	3.6588	0.6295	5.97	0.00	0.750			
0.6983	44691.36	3.6560	3.6560	0.5994	5.97	0.00	0.750			
0.7001	44804.13	3.6530	3.6530	0.5709	5.97	0.00	0.750			
0.7017	44911.88	3.6500	3.6500	0.5401	5.97	0.00	0.750			
0.7033	45013.03	3.6470	3.6470	0.5077	5.97	0.00	0.750			
0.7048	45108.09	3.6440	3.6441	0.4714	5.97	0.00	0.750			
0.7062	45195.25	3.6410	3.6410	0.4384	5.97	0.00	0.750			
0.7074	45275.37	3.6380	3.6380	0.4058	5.97	0.00	0.750			
0.7086	45349.54	3.6350	3.6350	0.3723	5.97	0.00	0.750			
0.7096	45417.57	3.6320	3.6321	0.3407	5.97	0.00	0.750			
0.7106	45480.88	3.6290	3.6289	0.3084	5.97	0.00	0.750			
0.7116	45539.23	3.6260	3.6261	0.2698	5.97	0.00	0.750			
0.7123	45589.08	3.6230	3.6228	0.2367	5.97	0.00	0.750			
0.7130	45630.99	3.6200	3.6201	0.1959	5.97	0.00	0.750			
0.7135	45665.05	3.6170	3.6169	0.1530	5.97	0.00	0.750			
0.7139	45689.35	3.6140	3.6142	0.1078	5.97	0.00	0.750			
0.7142	45707.37	3.6110	3.6107	0.0629	5.97	0.00	0.750			
0.7143	45712.83	3.6080	3.6083	0.0237	5.97	0.00	0.750			
0.7143	45713.51	3.6050	3.6078	-0.0166	5.97	0.00	0.750			
