Ah_balance (normalized)	Ah_balance (mAh)	Voltage - fit (V)	Voltage -  interpolate (V)	dQ/dV (1/V)	Temperature (°C)	Temperature - diff (°C)	Current (C)	R_DC 0ms (mOhm)	R_DC 50ms (mOhm)	R_DC 50 ms PEC (mOhm)
0.0990	6333.58	4.0050	4.0050	-0.0968	6.00	0.01	-0.750			
0.0993	6355.12	4.0020	4.0019	-0.1232	6.00	0.01	-0.750			
0.0997	6381.09	3.9990	3.9990	-0.1474	6.00	0.01	-0.750			
0.1002	6411.60	3.9960	3.9960	-0.1721	5.99	0.00	-0.750			
0.1007	6447.27	3.9930	3.9930	-0.1953	5.99	0.00	-0.750			
0.1014	6487.32	3.9900	3.9900	-0.2192	5.99	0.00	-0.750			
0.1021	6531.74	3.9870	3.9870	-0.2414	5.99	-0.00	-0.750			
0.1028	6580.60	3.9840	3.9841	-0.2632	5.99	-0.00	-0.750			
0.1036	6632.88	3.9810	3.9810	-0.2863	5.98	-0.01	-0.750			
0.1045	6690.34	3.9780	3.9781	-0.3082	5.98	-0.01	-0.750			
0.1055	6750.76	3.9750	3.9750	-0.3325	5.98	-0.01	-0.750			
0.1065	6816.86	3.9720	3.9719	-0.3566	5.97	-0.02	-0.750			
0.1076	6887.85	3.9690	3.9690	-0.3795	5.97	-0.02	-0.750			
0.1088	6963.41	3.9660	3.9659	-0.4027	5.97	-0.02	-0.750			
0.1101	7043.88	3.9630	3.9630	-0.4231	5.96	-0.03	-0.750			
0.1113	7125.99	3.9600	3.9601	-0.4466	5.96	-0.03	-0.750			
0.1127	7214.18	3.9570	3.9570	-0.4703	5.95	-0.04	-0.750			
0.1141	7305.39	3.9540	3.9540	-0.4916	5.95	-0.04	-0.750			
0.1157	7402.99	3.9510	3.9509	-0.5174	5.95	-0.04	-0.750			
0.1173	7505.33	3.9480	3.9481	-0.5374	5.95	-0.04	-0.750			
0.1189	7612.00	3.9450	3.9450	-0.5584	5.94	-0.05	-0.750			
0.1207	7723.67	3.9420	3.9420	-0.5781	5.94	-0.05	-0.750			
0.1224	7834.03	3.9390	3.9390	-0.5897	5.94	-0.05	-0.750			
0.1242	7948.55	3.9360	3.9360	-0.6043	5.93	-0.06	-0.750			
0.1260	8066.00	3.9330	3.9330	-0.6161	5.93	-0.06	-0.750			
0.1279	8185.92	3.9300	3.9298	-0.6277	5.93	-0.06	-0.750			
0.1298	8307.41	3.9270	3.9271	-0.6413	5.93	-0.06	-0.750			
0.1317	8431.98	3.9240	3.9241	-0.6519	5.94	-0.05	-0.750			
0.1337	8558.71	3.9210	3.9209	-0.6621	5.94	-0.05	-0.750			
0.1357	8687.92	3.9180	3.9180	-0.6664	5.94	-0.05	-0.750			
0.1378	8816.95	3.9150	3.9150	-0.6751	5.95	-0.04	-0.750			
0.1398	8946.54	3.9120	3.9121	-0.6831	5.95	-0.04	-0.750			
0.1419	9078.79	3.9090	3.9090	-0.6892	5.95	-0.04	-0.750			
0.1439	9209.46	3.9060	3.9060	-0.7027	5.96	-0.03	-0.750			
0.1461	9347.91	3.9030	3.9030	-0.7029	5.96	-0.03	-0.750			
0.1482	9484.71	3.9000	3.8999	-0.7101	5.96	-0.03	-0.750			
0.1503	9621.47	3.8970	3.8970	-0.7136	5.97	-0.02	-0.750			
0.1525	9758.20	3.8940	3.8940	-0.7158	5.97	-0.02	-0.750			
0.1546	9896.08	3.8910	3.8908	-0.7163	5.97	-0.02	-0.750			
0.1568	10032.66	3.8880	3.8881	-0.7229	5.98	-0.01	-0.750			
0.1589	10170.26	3.8850	3.8850	-0.7251	5.98	-0.01	-0.750			
0.1612	10314.17	3.8820	3.8819	-0.7337	5.99	-0.00	-0.750			
0.1634	10454.74	3.8790	3.8790	-0.7332	5.99	-0.00	-0.750			
0.1656	10595.56	3.8760	3.8760	-0.7365	5.99	0.00	-0.750			
0.1678	10737.18	3.8730	3.8730	-0.7388	6.00	0.01	-0.750			
0.1700	10879.50	3.8700	3.8700	-0.7457	6.00	0.01	-0.750			
0.1722	11022.79	3.8670	3.8670	-0.7393	6.00	0.01	-0.750			
0.1745	11166.69	3.8640	3.8639	-0.7455	6.01	0.02	-0.750			
0.1767	11310.63	3.8610	3.8613	-0.7444	6.01	0.02	-0.750			
0.1789	11452.63	3.8580	3.8579	-0.7413	6.01	0.02	-0.750			
0.1812	11593.64	3.8550	3.8550	-0.7426	6.02	0.03	-0.750			
0.1834	11735.89	3.8520	3.8521	-0.7459	6.02	0.03	-0.750			
0.1856	11879.27	3.8490	3.8489	-0.7500	6.02	0.03	-0.750			
0.1880	12030.77	3.8460	3.8459	-0.7246	6.03	0.04	-0.750			
0.1902	12170.08	3.8430	3.8430	-0.7040	6.03	0.04	-0.750			
0.1922	12299.54	3.8400	3.8403	-0.6924	6.04	0.05	-0.750			
0.1941	12423.67	3.8370	3.8374	-0.6884	6.05	0.06	-0.750			
0.1961	12550.81	3.8340	3.8335	-0.6874	6.05	0.06	-0.750			
0.1982	12682.35	3.8310	3.8308	-0.7050	6.06	0.07	-0.750			
0.2003	12820.76	3.8280	3.8280	-0.7274	6.07	0.08	-0.750			
0.2026	12968.84	3.8250	3.8249	-0.7551	6.07	0.08	-0.750			
0.2050	13117.90	3.8220	3.8219	-0.7620	6.08	0.09	-0.750			
0.2072	13263.42	3.8190	3.8190	-0.7639	6.08	0.09	-0.750			
0.2095	13408.46	3.8160	3.8161	-0.7568	6.08	0.09	-0.750			
0.2119	13558.93	3.8130	3.8130	-0.7658	6.09	0.10	-0.750			
0.2141	13704.72	3.8100	3.8102	-0.7656	6.09	0.10	-0.750			
0.2164	13850.98	3.8070	3.8069	-0.7634	6.10	0.11	-0.750			
0.2187	13996.79	3.8040	3.8040	-0.7661	6.10	0.11	-0.750			
0.2210	14144.06	3.8010	3.8010	-0.7665	6.11	0.12	-0.750			
0.2233	14292.15	3.7980	3.7980	-0.7726	6.11	0.12	-0.750			
0.2256	14440.84	3.7950	3.7949	-0.7757	6.12	0.13	-0.750			
0.2280	14590.89	3.7920	3.7919	-0.7741	6.12	0.13	-0.750			
0.2303	14737.41	3.7890	3.7890	-0.7764	6.13	0.14	-0.750			
0.2326	14887.25	3.7860	3.7860	-0.7758	6.13	0.14	-0.750			
0.2349	15035.91	3.7830	3.7830	-0.7749	6.14	0.15	-0.750			
0.2373	15186.35	3.7800	3.7799	-0.7788	6.15	0.16	-0.750			
0.2396	15334.97	3.7770	3.7774	-0.7768	6.15	0.16	-0.750			
0.2419	15484.32	3.7740	3.7739	-0.7780	6.15	0.16	-0.750			
0.2443	15634.37	3.7710	3.7710	-0.7795	6.16	0.17	-0.750			
0.2466	15782.66	3.7680	3.7680	-0.7780	6.16	0.17	-0.750			
0.2490	15933.00	3.7650	3.7650	-0.7775	6.17	0.18	-0.750			
0.2513	16081.26	3.7620	3.7619	-0.7789	6.17	0.18	-0.750			
0.2536	16230.85	3.7590	3.7591	-0.7778	6.18	0.19	-0.750			
0.2559	16379.05	3.7560	3.7560	-0.7874	6.18	0.19	-0.750			
0.2583	16531.11	3.7530	3.7529	-0.7872	6.19	0.20	-0.750			
0.2607	16683.23	3.7500	3.7500	-0.7895	6.20	0.21	-0.750			
0.2630	16835.20	3.7470	3.7470	-0.7928	6.21	0.22	-0.750			
0.2654	16988.54	3.7440	3.7439	-0.7946	6.21	0.22	-0.750			
0.2678	17139.48	3.7410	3.7410	-0.7943	6.22	0.23	-0.750			
0.2702	17292.04	3.7380	3.7380	-0.8010	6.23	0.24	-0.750			
0.2725	17443.08	3.7350	3.7350	-0.8035	6.24	0.25	-0.750			
0.2750	17601.43	3.7320	3.7319	-0.8124	6.24	0.25	-0.750			
0.2775	17758.40	3.7290	3.7291	-0.8153	6.25	0.26	-0.750			
0.2799	17915.38	3.7260	3.7260	-0.8170	6.26	0.27	-0.750			
0.2824	18073.88	3.7230	3.7230	-0.8302	6.26	0.27	-0.750			
0.2849	18233.67	3.7200	3.7199	-0.8345	6.26	0.27	-0.750			
0.2874	18394.48	3.7170	3.7168	-0.8360	6.27	0.28	-0.750			
0.2899	18555.20	3.7140	3.7142	-0.8426	6.27	0.28	-0.750			
0.2925	18717.05	3.7110	3.7110	-0.8586	6.28	0.29	-0.750			
0.2951	18883.80	3.7080	3.7080	-0.8593	6.29	0.30	-0.750			
0.2976	19046.44	3.7050	3.7048	-0.8617	6.30	0.31	-0.750			
0.3002	19215.82	3.7020	3.7020	-0.8742	6.31	0.32	-0.750			
0.3029	19384.50	3.6990	3.6989	-0.8808	6.31	0.32	-0.750			
0.3055	19554.47	3.6960	3.6959	-0.8885	6.32	0.33	-0.750			
0.3082	19723.89	3.6930	3.6930	-0.8915	6.32	0.33	-0.750			
0.3109	19895.33	3.6900	3.6900	-0.8987	6.32	0.33	-0.750			
0.3136	20072.19	3.6870	3.6869	-0.9104	6.33	0.34	-0.750			
0.3163	20244.49	3.6840	3.6840	-0.9203	6.33	0.34	-0.750			
0.3191	20423.22	3.6810	3.6810	-0.9311	6.34	0.35	-0.750			
0.3219	20602.37	3.6780	3.6779	-0.9384	6.34	0.35	-0.750			
0.3247	20783.63	3.6750	3.6750	-0.9464	6.35	0.36	-0.750			
0.3276	20967.94	3.6720	3.6721	-0.9549	6.35	0.36	-0.750			
0.3305	21151.53	3.6690	3.6691	-0.9723	6.36	0.37	-0.750			
0.3335	21341.47	3.6660	3.6659	-0.9764	6.36	0.37	-0.750			
0.3364	21528.38	3.6630	3.6630	-0.9770	6.37	0.38	-0.750			
0.3393	21715.96	3.6600	3.6604	-0.9980	6.37	0.38	-0.750			
0.3423	21908.23	3.6570	3.6569	-1.0078	6.37	0.38	-0.750			
0.3454	22102.54	3.6540	3.6539	-1.0172	6.38	0.39	-0.750			
0.3484	22298.36	3.6510	3.6510	-1.0265	6.38	0.39	-0.750			
0.3515	22496.05	3.6480	3.6482	-1.0459	6.39	0.40	-0.750			
0.3547	22701.60	3.6450	3.6449	-1.0563	6.39	0.40	-0.750			
0.3579	22904.74	3.6420	3.6420	-1.0633	6.40	0.41	-0.750			
0.3610	23107.15	3.6390	3.6390	-1.0698	6.40	0.41	-0.750			
0.3643	23313.12	3.6360	3.6361	-1.0892	6.41	0.42	-0.750			
0.3676	23523.85	3.6330	3.6329	-1.1016	6.42	0.43	-0.750			
0.3709	23735.89	3.6300	3.6300	-1.1118	6.42	0.43	-0.750			
0.3742	23949.96	3.6270	3.6270	-1.1226	6.43	0.44	-0.750			
0.3777	24170.00	3.6240	3.6241	-1.1465	6.43	0.44	-0.750			
0.3811	24390.87	3.6210	3.6209	-1.1525	6.43	0.44	-0.750			
0.3846	24613.03	3.6180	3.6180	-1.1575	6.43	0.44	-0.750			
0.3881	24835.45	3.6150	3.6149	-1.1620	6.43	0.44	-0.750			
0.3916	25061.12	3.6120	3.6120	-1.1863	6.43	0.44	-0.750			
0.3952	25290.65	3.6090	3.6089	-1.1946	6.44	0.45	-0.750			
0.3988	25521.60	3.6060	3.6059	-1.1969	6.45	0.46	-0.750			
0.4023	25750.40	3.6030	3.6033	-1.2070	6.45	0.46	-0.750			
0.4060	25986.94	3.6000	3.6000	-1.2239	6.45	0.46	-0.750			
0.4097	26221.22	3.5970	3.5969	-1.2346	6.45	0.46	-0.750			
0.4133	26453.61	3.5940	3.5941	-1.2483	6.45	0.46	-0.750	0.486	1.119	
0.4171	26697.31	3.5910	3.5910	-1.2682	6.45	0.46	-0.750			
0.4210	26943.73	3.5880	3.5879	-1.2825	6.45	0.46	-0.750			
0.4249	27192.46	3.5850	3.5850	-1.3025	6.45	0.46	-0.750			
0.4288	27441.99	3.5820	3.5821	-1.3101	6.45	0.46	-0.750			
0.4328	27698.87	3.5790	3.5789	-1.3183	6.46	0.47	-0.750			
0.4367	27948.98	3.5760	3.5759	-1.3412	6.47	0.48	-0.750			
0.4407	28207.48	3.5730	3.5730	-1.3452	6.47	0.48	-0.750			
0.4448	28468.29	3.5700	3.5701	-1.3637	6.47	0.48	-0.750			
0.4489	28732.78	3.5670	3.5668	-1.3785	6.48	0.49	-0.750			
0.4531	28997.72	3.5640	3.5641	-1.3826	6.48	0.49	-0.750			
0.4573	29266.56	3.5610	3.5609	-1.4007	6.48	0.49	-0.750			
0.4615	29534.26	3.5580	3.5580	-1.4211	6.49	0.50	-0.750			
0.4657	29804.36	3.5550	3.5550	-1.4193	6.49	0.50	-0.750			
0.4701	30084.19	3.5520	3.5519	-1.4596	6.49	0.50	-0.750			
0.4745	30366.94	3.5490	3.5489	-1.4807	6.49	0.50	-0.750			
0.4790	30652.87	3.5460	3.5460	-1.5081	6.49	0.50	-0.750			
0.4836	30947.22	3.5430	3.5430	-1.5230	6.49	0.50	-0.750			
0.4882	31244.01	3.5400	3.5400	-1.5302	6.49	0.50	-0.750			
0.4928	31538.38	3.5370	3.5369	-1.5278	6.50	0.51	-0.750			
0.4974	31834.47	3.5340	3.5337	-1.5479	6.50	0.51	-0.750			
0.5020	32126.37	3.5310	3.5312	-1.5451	6.51	0.52	-0.750			
0.5067	32426.79	3.5280	3.5281	-1.5440	6.51	0.52	-0.750			
0.5114	32728.51	3.5250	3.5250	-1.5599	6.52	0.53	-0.750			
0.5162	33033.85	3.5220	3.5217	-1.5496	6.52	0.53	-0.750			
0.5209	33336.02	3.5190	3.5190	-1.5702	6.53	0.54	-0.750			
0.5255	33631.87	3.5160	3.5162	-1.5654	6.53	0.54	-0.750			
0.5302	33931.99	3.5130	3.5130	-1.5887	6.53	0.54	-0.750			
0.5349	34235.81	3.5100	3.5093	-1.6226	6.54	0.55	-0.750			
0.5398	34548.93	3.5070	3.5071	-1.6160	6.54	0.55	-0.750			
0.5448	34869.13	3.5040	3.5045	-1.6481	6.54	0.55	-0.750			
0.5499	35191.68	3.5010	3.5012	-1.6526	6.55	0.56	-0.750			
0.5547	35500.30	3.4980	3.4981	-1.6305	6.55	0.56	-0.750			
0.5595	35808.69	3.4950	3.4951	-1.6054	6.56	0.57	-0.750			
0.5643	36117.03	3.4920	3.4923	-1.6229	6.57	0.58	-0.750			
0.5692	36429.40	3.4890	3.4887	-1.6146	6.58	0.59	-0.750			
0.5740	36737.38	3.4860	3.4860	-1.6023	6.59	0.60	-0.750			
0.5788	37043.55	3.4830	3.4828	-1.5770	6.59	0.60	-0.750			
0.5836	37352.12	3.4800	3.4799	-1.5806	6.60	0.61	-0.750			
0.5883	37652.99	3.4770	3.4772	-1.5587	6.61	0.62	-0.750			
0.5929	37944.87	3.4740	3.4738	-1.5394	6.62	0.63	-0.750			
0.5975	38242.54	3.4710	3.4710	-1.5238	6.62	0.63	-0.750			
0.6022	38537.68	3.4680	3.4682	-1.5299	6.63	0.64	-0.750			
0.6067	38828.02	3.4650	3.4652	-1.5151	6.64	0.65	-0.750			
0.6113	39124.55	3.4620	3.4618	-1.5011	6.65	0.66	-0.750			
0.6157	39404.72	3.4590	3.4591	-1.4817	6.66	0.67	-0.750			
0.6202	39691.90	3.4560	3.4560	-1.4701	6.67	0.68	-0.750			
0.6245	39969.37	3.4530	3.4529	-1.4722	6.68	0.69	-0.750			
0.6289	40252.31	3.4500	3.4499	-1.4461	6.69	0.70	-0.750			
0.6334	40534.50	3.4470	3.4470	-1.4305	6.70	0.71	-0.750			
0.6376	40809.59	3.4440	3.4441	-1.4192	6.71	0.72	-0.750			
0.6419	41081.18	3.4410	3.4409	-1.3905	6.72	0.73	-0.750			
0.6460	41343.83	3.4380	3.4378	-1.3537	6.73	0.74	-0.750			
0.6499	41595.78	3.4350	3.4349	-1.3337	6.74	0.75	-0.750			
0.6539	41848.62	3.4320	3.4320	-1.3031	6.76	0.77	-0.750			
0.6579	42102.97	3.4290	3.4289	-1.2955	6.77	0.78	-0.750			
0.6617	42345.93	3.4260	3.4260	-1.2668	6.78	0.79	-0.750			
0.6654	42585.59	3.4230	3.4231	-1.2351	6.79	0.80	-0.750			
0.6691	42823.94	3.4200	3.4199	-1.2142	6.80	0.81	-0.750			
0.6727	43054.86	3.4170	3.4169	-1.1834	6.80	0.81	-0.750			
0.6762	43275.61	3.4140	3.4141	-1.1500	6.81	0.82	-0.750			
0.6797	43498.50	3.4110	3.4109	-1.1311	6.82	0.83	-0.750			
0.6830	43712.04	3.4080	3.4078	-1.0947	6.84	0.85	-0.750			
0.6862	43918.79	3.4050	3.4050	-1.0713	6.86	0.87	-0.750			
0.6894	44121.10	3.4020	3.4023	-1.0495	6.87	0.88	-0.750			
0.6925	44319.88	3.3990	3.3988	-1.0255	6.88	0.89	-0.750			
0.6956	44515.86	3.3960	3.3959	-0.9967	6.89	0.90	-0.750			
0.6985	44703.17	3.3930	3.3930	-0.9673	6.90	0.91	-0.750			
0.7014	44889.94	3.3900	3.3901	-0.9505	6.91	0.92	-0.750			
0.7042	45067.63	3.3870	3.3869	-0.9231	6.92	0.93	-0.750			
0.7068	45238.19	3.3840	3.3840	-0.8915	6.93	0.94	-0.750			
0.7095	45407.41	3.3810	3.3810	-0.8734	6.95	0.96	-0.750			
0.7121	45573.07	3.3780	3.3779	-0.8514	6.96	0.97	-0.750			
0.7147	45738.36	3.3750	3.3752	-0.8294	6.97	0.98	-0.750			
0.7171	45894.57	3.3720	3.3721	-0.8002	6.98	0.99	-0.750			
0.7195	46044.86	3.3690	3.3690	-0.7800	7.00	1.01	-0.750			
0.7218	46192.14	3.3660	3.3660	-0.7570	7.01	1.02	-0.750			
0.7240	46334.24	3.3630	3.3629	-0.7446	7.02	1.03	-0.750			
0.7262	46477.83	3.3600	3.3600	-0.7621	7.03	1.04	-0.750			
