Ah_balance (normalized)	Ah_balance (mAh)	Voltage - fit (V)	Voltage -  interpolate (V)	dQ/dV (1/V)	Temperature (°C)	Temperature - diff (°C)	Current (C)	R_DC 0ms (mOhm)	R_DC 50ms (mOhm)	R_DC 50 ms PEC (mOhm)
0.1763	11282.37	4.0810	4.0810	0.7530	7.72	1.74	0.750			
0.1786	11427.38	4.0780	4.0780	0.7598	7.71	1.73	0.750			
0.1808	11574.24	4.0750	4.0750	0.7691	7.71	1.73	0.750			
0.1832	11724.28	4.0720	4.0720	0.7718	7.70	1.72	0.750			
0.1855	11873.17	4.0690	4.0690	0.7740	7.70	1.72	0.750			
0.1879	12022.77	4.0660	4.0661	0.7771	7.70	1.72	0.750			
0.1902	12170.69	4.0630	4.0630	0.7781	7.69	1.71	0.750			
0.1925	12320.06	4.0600	4.0599	0.7816	7.69	1.71	0.750			
0.1948	12469.52	4.0570	4.0570	0.7853	7.68	1.70	0.750			
0.1972	12620.97	4.0540	4.0540	0.7849	7.68	1.70	0.750			
0.1996	12772.13	4.0510	4.0510	0.7918	7.67	1.69	0.750			
0.2019	12924.46	4.0480	4.0480	0.7947	7.67	1.69	0.750			
0.2043	13077.68	4.0450	4.0448	0.7965	7.66	1.68	0.750			
0.2067	13229.55	4.0420	4.0421	0.8005	7.65	1.67	0.750			
0.2091	13384.17	4.0390	4.0391	0.8073	7.65	1.67	0.750			
0.2116	13540.01	4.0360	4.0360	0.8142	7.64	1.66	0.750			
0.2140	13697.80	4.0330	4.0329	0.8117	7.64	1.66	0.750			
0.2165	13854.64	4.0300	4.0301	0.8114	7.63	1.65	0.750			
0.2189	14010.76	4.0270	4.0270	0.8164	7.62	1.64	0.750			
0.2214	14168.57	4.0240	4.0239	0.8112	7.62	1.64	0.750			
0.2238	14321.29	4.0210	4.0210	0.8135	7.61	1.63	0.750			
0.2262	14477.44	4.0180	4.0181	0.8209	7.60	1.62	0.750			
0.2287	14635.43	4.0150	4.0149	0.8270	7.59	1.61	0.750			
0.2312	14796.67	4.0120	4.0120	0.8313	7.58	1.60	0.750			
0.2338	14960.10	4.0090	4.0090	0.8234	7.58	1.60	0.750			
0.2362	15116.88	4.0060	4.0060	0.8168	7.57	1.59	0.750			
0.2386	15272.80	4.0030	4.0031	0.8241	7.56	1.58	0.750			
0.2410	15426.34	4.0000	4.0001	0.8192	7.55	1.57	0.750			
0.2435	15583.16	3.9970	3.9970	0.8314	7.55	1.57	0.750			
0.2460	15743.43	3.9940	3.9941	0.8401	7.54	1.56	0.750			
0.2485	15907.17	3.9910	3.9911	0.8536	7.54	1.56	0.750			
0.2512	16077.63	3.9880	3.9880	0.8655	7.54	1.56	0.750			
0.2538	16241.60	3.9850	3.9849	0.8650	7.53	1.55	0.750			
0.2564	16408.01	3.9820	3.9820	0.8675	7.52	1.54	0.750			
0.2590	16575.56	3.9790	3.9790	0.8710	7.52	1.54	0.750			
0.2616	16742.08	3.9760	3.9760	0.8754	7.51	1.53	0.750			
0.2642	16910.99	3.9730	3.9730	0.8816	7.50	1.52	0.750			
0.2669	17079.15	3.9700	3.9698	0.8866	7.49	1.51	0.750			
0.2696	17251.65	3.9670	3.9670	0.8929	7.48	1.50	0.750			
0.2722	17422.95	3.9640	3.9640	0.8957	7.48	1.50	0.750			
0.2749	17595.86	3.9610	3.9610	0.9037	7.47	1.49	0.750			
0.2777	17770.01	3.9580	3.9581	0.9065	7.46	1.48	0.750			
0.2804	17943.20	3.9550	3.9551	0.9079	7.46	1.48	0.750			
0.2831	18120.93	3.9520	3.9519	0.8987	7.45	1.47	0.750			
0.2858	18291.14	3.9490	3.9492	0.9059	7.44	1.46	0.750			
0.2885	18463.43	3.9460	3.9460	0.9204	7.43	1.45	0.750			
0.2912	18639.51	3.9430	3.9430	0.9344	7.42	1.44	0.750			
0.2941	18823.57	3.9400	3.9400	0.9322	7.41	1.43	0.750			
0.2969	19003.95	3.9370	3.9371	0.9443	7.40	1.42	0.750			
0.2998	19186.32	3.9340	3.9342	0.9534	7.39	1.41	0.750			
0.3027	19372.99	3.9310	3.9310	0.9609	7.38	1.40	0.750			
0.3055	19552.81	3.9280	3.9280	0.9554	7.37	1.39	0.750			
0.3084	19735.83	3.9250	3.9251	0.9572	7.36	1.38	0.750			
0.3112	19919.56	3.9220	3.9220	0.9651	7.35	1.37	0.750			
0.3142	20107.67	3.9190	3.9190	0.9808	7.34	1.36	0.750			
0.3171	20295.26	3.9160	3.9158	0.9848	7.33	1.35	0.750			
0.3201	20484.68	3.9130	3.9130	0.9941	7.33	1.35	0.750			
0.3231	20678.10	3.9100	3.9100	1.0068	7.32	1.34	0.750			
0.3261	20871.80	3.9070	3.9070	1.0190	7.32	1.34	0.750			
0.3292	21069.89	3.9040	3.9039	1.0299	7.31	1.33	0.750			
0.3323	21268.49	3.9010	3.9010	1.0292	7.30	1.32	0.750			
0.3354	21465.12	3.8980	3.8980	1.0382	7.29	1.31	0.750			
0.3385	21664.54	3.8950	3.8951	1.0505	7.28	1.30	0.750			
0.3417	21866.82	3.8920	3.8918	1.0620	7.27	1.29	0.750			
0.3449	22071.20	3.8890	3.8891	1.0671	7.26	1.28	0.750			
0.3481	22275.79	3.8860	3.8860	1.0822	7.25	1.27	0.750			
0.3513	22486.05	3.8830	3.8831	1.1016	7.23	1.25	0.750			
0.3547	22701.44	3.8800	3.8797	1.1134	7.22	1.24	0.750			
0.3580	22913.00	3.8770	3.8770	1.1238	7.21	1.23	0.750			
0.3614	23130.79	3.8740	3.8741	1.1418	7.20	1.22	0.750			
0.3649	23352.61	3.8710	3.8711	1.1571	7.19	1.21	0.750			
0.3684	23574.66	3.8680	3.8681	1.1666	7.17	1.19	0.750			
0.3719	23799.88	3.8650	3.8650	1.1846	7.16	1.18	0.750			
0.3754	24027.92	3.8620	3.8621	1.2021	7.15	1.17	0.750			
0.3791	24261.74	3.8590	3.8589	1.2165	7.13	1.15	0.750			
0.3828	24496.26	3.8560	3.8561	1.2370	7.12	1.14	0.750			
0.3865	24737.04	3.8530	3.8530	1.2525	7.11	1.13	0.750			
0.3903	24978.93	3.8500	3.8500	1.2769	7.10	1.12	0.750			
0.3941	25224.39	3.8470	3.8470	1.3093	7.08	1.10	0.750			
0.3981	25475.43	3.8440	3.8440	1.3416	7.07	1.09	0.750			
0.4022	25738.34	3.8410	3.8412	1.3718	7.05	1.07	0.750	0.390	0.867	
0.4064	26007.37	3.8380	3.8381	1.3980	7.03	1.05	0.750			
0.4106	26278.58	3.8350	3.8351	1.4205	7.02	1.04	0.750			
0.4149	26556.68	3.8320	3.8320	1.4318	7.00	1.02	0.750			
0.4192	26829.30	3.8290	3.8290	1.4410	6.98	1.00	0.750			
0.4235	27103.87	3.8260	3.8261	1.4601	6.96	0.98	0.750			
0.4279	27384.73	3.8230	3.8231	1.4835	6.94	0.96	0.750			
0.4324	27672.86	3.8200	3.8200	1.5142	6.92	0.94	0.750			
0.4370	27967.03	3.8170	3.8169	1.5286	6.90	0.92	0.750			
0.4416	28261.37	3.8140	3.8140	1.5658	6.88	0.90	0.750			
0.4464	28568.75	3.8110	3.8110	1.5872	6.86	0.88	0.750			
0.4511	28870.49	3.8080	3.8078	1.6373	6.83	0.85	0.750			
0.4561	29188.14	3.8050	3.8049	1.6464	6.80	0.82	0.750			
0.4610	29505.71	3.8020	3.8019	1.7106	6.78	0.80	0.750			
0.4663	29842.73	3.7990	3.7989	1.7484	6.75	0.77	0.750			
0.4716	30179.26	3.7960	3.7958	1.7781	6.73	0.75	0.750			
0.4770	30526.73	3.7930	3.7932	1.7380	6.70	0.72	0.750			
0.4821	30857.54	3.7900	3.7901	1.7382	6.68	0.70	0.750			
0.4873	31185.21	3.7870	3.7867	1.7383	6.65	0.67	0.750			
0.4923	31510.16	3.7840	3.7839	1.7252	6.63	0.65	0.750			
0.4975	31839.61	3.7810	3.7811	1.7891	6.60	0.62	0.750			
0.5034	32220.16	3.7780	3.7777	1.7445	6.56	0.58	0.750			
0.5086	32550.22	3.7750	3.7747	1.6721	6.54	0.56	0.750			
0.5132	32847.69	3.7720	3.7729	1.6411	6.52	0.54	0.750			
0.5179	33146.44	3.7690	3.7685	1.6537	6.51	0.53	0.750			
0.5227	33453.44	3.7660	3.7657	1.7124	6.48	0.50	0.750			
0.5279	33784.74	3.7630	3.7633	1.8040	6.46	0.48	0.750			
0.5339	34167.98	3.7600	3.7602	1.9234	6.43	0.45	0.750			
0.5398	34547.81	3.7570	3.7571	1.9904	6.40	0.42	0.750			
0.5459	34938.08	3.7540	3.7542	1.9873	6.37	0.39	0.750			
0.5518	35315.82	3.7510	3.7511	2.0429	6.33	0.35	0.750			
0.5580	35708.87	3.7480	3.7477	2.0585	6.30	0.32	0.750			
0.5640	36094.38	3.7450	3.7454	2.0783	6.28	0.30	0.750			
0.5704	36508.07	3.7420	3.7421	2.1795	6.26	0.28	0.750			
0.5771	36931.83	3.7390	3.7391	2.3448	6.23	0.25	0.750			
0.5845	37405.39	3.7360	3.7359	2.3756	6.20	0.22	0.750			
0.5914	37852.11	3.7330	3.7329	2.3296	6.17	0.19	0.750			
0.5983	38293.37	3.7300	3.7302	2.2953	6.15	0.17	0.750			
0.6052	38729.74	3.7270	3.7268	2.3468	6.13	0.15	0.750			
0.6124	39195.06	3.7240	3.7239	2.3199	6.10	0.12	0.750			
0.6194	39643.02	3.7210	3.7213	2.2582	6.08	0.10	0.750			
0.6264	40087.61	3.7180	3.7177	2.1999	6.06	0.08	0.750			
0.6327	40490.38	3.7150	3.7152	2.0286	6.04	0.06	0.750			
0.6387	40874.37	3.7120	3.7121	1.8833	6.04	0.06	0.750			
0.6438	41204.13	3.7090	3.7091	1.6516	6.03	0.05	0.750			
0.6483	41492.77	3.7060	3.7062	1.4614	6.02	0.04	0.750			
0.6525	41759.17	3.7030	3.7030	1.3300	6.01	0.03	0.750			
0.6562	41995.80	3.7000	3.7001	1.2048	6.01	0.03	0.750			
0.6595	42205.42	3.6970	3.6970	1.1066	6.00	0.02	0.750			
0.6626	42407.58	3.6940	3.6941	1.0410	6.00	0.02	0.750			
0.6656	42599.89	3.6910	3.6908	0.9909	5.99	0.01	0.750			
0.6685	42782.63	3.6880	3.6881	0.9453	5.99	0.01	0.750			
0.6713	42960.33	3.6850	3.6851	0.9104	5.98	0.00	0.750			
0.6739	43130.51	3.6820	3.6821	0.8862	5.98	-0.00	0.750			
0.6765	43297.58	3.6790	3.6789	0.8595	5.97	-0.01	0.750			
0.6791	43459.67	3.6760	3.6758	0.8302	5.97	-0.01	0.750			
0.6815	43617.55	3.6730	3.6731	0.8083	5.97	-0.01	0.750			
0.6840	43774.05	3.6700	3.6701	0.7730	5.97	-0.01	0.750			
0.6863	43920.15	3.6670	3.6669	0.7477	5.97	-0.01	0.750			
0.6884	44057.54	3.6640	3.6641	0.7112	5.97	-0.01	0.750			
0.6905	44191.58	3.6610	3.6611	0.6814	5.97	-0.01	0.750			
0.6925	44319.05	3.6580	3.6577	0.6544	5.97	-0.01	0.750			
0.6944	44442.36	3.6550	3.6551	0.6289	5.97	-0.01	0.750			
0.6962	44559.91	3.6520	3.6521	0.6031	5.97	-0.01	0.750			
0.6980	44673.86	3.6490	3.6489	0.5831	5.97	-0.01	0.750			
0.6997	44783.86	3.6460	3.6460	0.5492	5.98	-0.00	0.750			
0.7014	44888.61	3.6430	3.6429	0.5203	5.98	-0.00	0.750			
0.7029	44988.08	3.6400	3.6400	0.4868	5.98	-0.00	0.750			
0.7043	45078.30	3.6370	3.6374	0.4516	5.98	-0.00	0.750			
0.7057	45161.62	3.6340	3.6340	0.4123	5.98	0.00	0.750			
0.7068	45236.12	3.6310	3.6308	0.3702	5.98	0.00	0.750			
0.7079	45302.58	3.6280	3.6280	0.3296	5.98	0.00	0.750			
0.7088	45361.76	3.6250	3.6253	0.2928	5.98	0.00	0.750			
0.7096	45417.26	3.6220	3.6219	0.2554	5.98	0.00	0.750			
0.7104	45463.08	3.6190	3.6189	0.2156	5.98	0.00	0.750			
0.7109	45499.50	3.6160	3.6160	0.1711	5.99	0.01	0.750			
0.7114	45527.59	3.6130	3.6134	0.1286	5.99	0.01	0.750			
0.7117	45550.75	3.6100	3.6101	0.0883	5.99	0.01	0.750			
0.7119	45563.75	3.6010	3.6038	-0.0515	5.99	0.01	0.750			
0.7120	45565.45	3.6070	3.5997	0.0427	5.99	0.01	0.749			
0.7120	45569.13	3.6040	4.0092	-0.0044	5.99	0.01	0.734			
