Ah_balance (normalized)	Ah_balance (mAh)	Voltage - fit (V)	Voltage -  interpolate (V)	dQ/dV (1/V)	Temperature (°C)	Temperature - diff (°C)	Current (C)	R_DC 0ms (mOhm)	R_DC 50ms (mOhm)	R_DC 50 ms PEC (mOhm)
0.1778	11379.70	4.0820	4.0820	0.7362	7.83	1.86	0.750			
0.1801	11523.90	4.0790	4.0789	0.7556	7.82	1.85	0.750			
0.1823	11669.88	4.0760	4.0760	0.7640	7.82	1.85	0.750			
0.1846	11817.48	4.0730	4.0730	0.7722	7.81	1.84	0.750			
0.1870	11967.74	4.0700	4.0701	0.7781	7.80	1.83	0.750			
0.1893	12118.19	4.0670	4.0669	0.7783	7.79	1.82	0.750			
0.1917	12267.80	4.0640	4.0640	0.7803	7.79	1.82	0.750			
0.1940	12416.53	4.0610	4.0611	0.7872	7.78	1.81	0.750			
0.1964	12568.02	4.0580	4.0578	0.7917	7.77	1.80	0.750			
0.1988	12721.07	4.0550	4.0549	0.7922	7.76	1.79	0.750			
0.2012	12875.02	4.0520	4.0521	0.7876	7.75	1.78	0.750			
0.2036	13027.34	4.0490	4.0491	0.7931	7.74	1.77	0.750			
0.2059	13178.01	4.0460	4.0460	0.7976	7.73	1.76	0.750			
0.2083	13329.19	4.0430	4.0429	0.7977	7.71	1.74	0.750			
0.2107	13482.24	4.0400	4.0400	0.8003	7.71	1.74	0.750			
0.2131	13637.78	4.0370	4.0370	0.8061	7.70	1.73	0.750			
0.2155	13793.28	4.0340	4.0341	0.8155	7.70	1.73	0.750			
0.2180	13952.53	4.0310	4.0310	0.8210	7.70	1.73	0.750			
0.2204	14108.22	4.0280	4.0279	0.8189	7.69	1.72	0.750			
0.2229	14265.69	4.0250	4.0251	0.8239	7.69	1.72	0.750			
0.2254	14425.71	4.0220	4.0220	0.8256	7.68	1.71	0.750			
0.2279	14584.90	4.0190	4.0190	0.8281	7.67	1.70	0.750			
0.2304	14743.46	4.0160	4.0161	0.8323	7.66	1.69	0.750			
0.2328	14902.04	4.0130	4.0130	0.8341	7.65	1.68	0.750			
0.2354	15063.33	4.0100	4.0100	0.8432	7.65	1.68	0.750			
0.2379	15227.21	4.0070	4.0070	0.8392	7.64	1.67	0.750			
0.2404	15387.21	4.0040	4.0040	0.8482	7.63	1.66	0.750			
0.2430	15552.10	4.0010	4.0011	0.8554	7.62	1.65	0.750			
0.2456	15715.98	3.9980	3.9979	0.8557	7.61	1.64	0.750			
0.2481	15879.51	3.9950	3.9951	0.8583	7.61	1.64	0.750			
0.2507	16044.79	3.9920	3.9922	0.8577	7.60	1.63	0.750			
0.2533	16209.22	3.9890	3.9889	0.8605	7.59	1.62	0.750			
0.2559	16375.90	3.9860	3.9861	0.8583	7.58	1.61	0.750			
0.2585	16541.67	3.9830	3.9829	0.8617	7.57	1.60	0.750			
0.2611	16707.31	3.9800	3.9799	0.8651	7.56	1.59	0.750			
0.2636	16872.82	3.9770	3.9771	0.8706	7.55	1.58	0.750			
0.2662	17038.24	3.9740	3.9740	0.8745	7.54	1.57	0.750			
0.2689	17208.02	3.9710	3.9710	0.8831	7.52	1.55	0.750			
0.2715	17377.50	3.9680	3.9678	0.8876	7.51	1.54	0.750			
0.2742	17550.67	3.9650	3.9651	0.8887	7.50	1.53	0.750			
0.2769	17720.86	3.9620	3.9620	0.8936	7.49	1.52	0.750			
0.2796	17891.93	3.9590	3.9591	0.8990	7.48	1.51	0.750			
0.2823	18064.44	3.9560	3.9560	0.9044	7.48	1.51	0.750			
0.2850	18236.84	3.9530	3.9529	0.9106	7.47	1.50	0.750			
0.2877	18413.32	3.9500	3.9500	0.9141	7.46	1.49	0.750			
0.2905	18589.27	3.9470	3.9471	0.9240	7.44	1.47	0.750			
0.2933	18768.65	3.9440	3.9440	0.9297	7.43	1.46	0.750			
0.2960	18946.35	3.9410	3.9409	0.9359	7.42	1.45	0.750			
0.2989	19127.40	3.9380	3.9381	0.9374	7.41	1.44	0.750			
0.3017	19307.86	3.9350	3.9350	0.9467	7.40	1.43	0.750			
0.3045	19490.85	3.9320	3.9320	0.9540	7.39	1.42	0.750			
0.3074	19673.40	3.9290	3.9291	0.9602	7.38	1.41	0.750			
0.3103	19858.91	3.9260	3.9260	0.9691	7.37	1.40	0.750			
0.3132	20046.59	3.9230	3.9230	0.9792	7.36	1.39	0.750			
0.3162	20235.36	3.9200	3.9200	0.9830	7.35	1.38	0.750			
0.3192	20427.10	3.9170	3.9171	0.9917	7.34	1.37	0.750			
0.3221	20616.26	3.9140	3.9140	0.9911	7.33	1.36	0.750			
0.3251	20806.31	3.9110	3.9110	0.9989	7.31	1.34	0.750			
0.3281	20996.18	3.9080	3.9080	1.0060	7.30	1.33	0.750			
0.3311	21190.74	3.9050	3.9050	1.0191	7.28	1.31	0.750			
0.3342	21387.76	3.9020	3.9019	1.0344	7.27	1.30	0.750			
0.3373	21589.02	3.8990	3.8990	1.0389	7.26	1.29	0.750			
0.3404	21788.48	3.8960	3.8960	1.0508	7.25	1.28	0.750			
0.3436	21991.32	3.8930	3.8931	1.0625	7.24	1.27	0.750			
0.3468	22197.14	3.8900	3.8897	1.0689	7.23	1.26	0.750			
0.3500	22400.91	3.8870	3.8871	1.0833	7.22	1.25	0.750			
0.3533	22610.70	3.8840	3.8840	1.0969	7.20	1.23	0.750			
0.3566	22822.20	3.8810	3.8811	1.1162	7.19	1.22	0.750			
0.3600	23037.95	3.8780	3.8781	1.1284	7.18	1.21	0.750			
0.3634	23255.61	3.8750	3.8750	1.1492	7.16	1.19	0.750			
0.3669	23479.50	3.8720	3.8720	1.1673	7.15	1.18	0.750			
0.3704	23707.64	3.8690	3.8690	1.1767	7.13	1.16	0.750			
0.3740	23934.01	3.8660	3.8661	1.1862	7.12	1.15	0.750			
0.3776	24163.35	3.8630	3.8631	1.2096	7.10	1.13	0.750			
0.3812	24395.79	3.8600	3.8600	1.2232	7.08	1.11	0.750			
0.3848	24628.12	3.8570	3.8571	1.2444	7.07	1.10	0.750			
0.3886	24868.40	3.8540	3.8541	1.2709	7.05	1.08	0.750			
0.3925	25120.39	3.8510	3.8510	1.2845	7.03	1.06	0.750			
0.3963	25364.74	3.8480	3.8477	1.3187	7.01	1.04	0.750			
0.4003	25620.02	3.8450	3.8453	1.3363	6.99	1.02	0.750			
0.4045	25885.92	3.8420	3.8416	1.3144	6.97	1.00	0.750			
0.4085	26145.70	3.8390	3.8390	1.3005	6.95	0.98	0.750	0.385	0.901	
0.4123	26385.58	3.8360	3.8366	1.3201	6.93	0.96	0.750			
0.4162	26638.00	3.8330	3.8326	1.3159	6.92	0.95	0.750			
0.4201	26883.91	3.8300	3.8297	1.3819	6.90	0.93	0.750			
0.4240	27135.90	3.8270	3.8272	1.4127	6.88	0.91	0.750			
0.4283	27411.35	3.8240	3.8241	1.4892	6.86	0.89	0.750			
0.4331	27716.10	3.8210	3.8211	1.5639	6.83	0.86	0.750			
0.4378	28016.79	3.8180	3.8183	1.5554	6.81	0.84	0.750			
0.4425	28323.17	3.8150	3.8151	1.5902	6.79	0.82	0.750			
0.4474	28630.53	3.8120	3.8122	1.5829	6.77	0.80	0.750			
0.4520	28931.15	3.8090	3.8091	1.6149	6.74	0.77	0.750			
0.4570	29250.04	3.8060	3.8060	1.6506	6.72	0.75	0.750			
0.4621	29577.46	3.8030	3.8031	1.7072	6.69	0.72	0.750			
0.4672	29900.23	3.8000	3.8000	1.7429	6.66	0.69	0.750			
0.4725	30237.09	3.7970	3.7969	1.7718	6.63	0.66	0.750			
0.4778	30577.03	3.7940	3.7938	1.7821	6.60	0.63	0.750			
0.4832	30923.36	3.7910	3.7911	1.8147	6.57	0.60	0.750			
0.4886	31273.52	3.7880	3.7881	1.8315	6.55	0.58	0.750			
0.4943	31635.58	3.7850	3.7851	1.8827	6.52	0.55	0.750			
0.5000	31998.63	3.7820	3.7823	1.9159	6.49	0.52	0.750			
0.5058	32369.77	3.7790	3.7791	1.9320	6.47	0.50	0.750			
0.5117	32748.45	3.7760	3.7758	1.9451	6.44	0.47	0.750			
0.5175	33118.62	3.7730	3.7729	1.9496	6.42	0.45	0.750			
0.5232	33486.40	3.7700	3.7701	1.9649	6.39	0.42	0.750			
0.5292	33866.74	3.7670	3.7670	1.9737	6.36	0.39	0.750			
0.5351	34248.78	3.7640	3.7638	1.9668	6.33	0.36	0.750			
0.5411	34630.10	3.7610	3.7606	2.0229	6.31	0.34	0.750			
0.5470	35010.06	3.7580	3.7583	2.0396	6.29	0.32	0.750			
0.5531	35397.98	3.7550	3.7549	2.0653	6.26	0.29	0.750			
0.5594	35803.61	3.7520	3.7519	2.0799	6.23	0.26	0.750			
0.5660	36224.25	3.7490	3.7489	2.1462	6.21	0.24	0.750			
0.5722	36622.00	3.7460	3.7460	2.1924	6.19	0.22	0.750			
0.5790	37053.66	3.7430	3.7430	2.2580	6.15	0.18	0.750			
0.5861	37512.01	3.7400	3.7400	2.3977	6.12	0.15	0.750			
0.5935	37983.69	3.7370	3.7368	2.4002	6.10	0.13	0.750			
0.6006	38440.56	3.7340	3.7344	2.3919	6.08	0.11	0.750			
0.6079	38908.30	3.7310	3.7308	2.3864	6.06	0.09	0.750			
0.6150	39361.89	3.7280	3.7281	2.4036	6.05	0.08	0.750			
0.6228	39861.48	3.7250	3.7247	2.4596	6.03	0.06	0.750			
0.6301	40324.17	3.7220	3.7218	2.3089	6.02	0.05	0.750			
0.6370	40770.05	3.7190	3.7187	2.2301	6.01	0.04	0.750			
0.6433	41169.56	3.7160	3.7162	2.0421	6.00	0.03	0.750			
0.6493	41555.73	3.7130	3.7132	1.9064	5.98	0.01	0.750			
0.6550	41917.31	3.7100	3.7103	1.7586	5.97	-0.00	0.750			
0.6598	42227.41	3.7070	3.7073	1.5541	5.96	-0.01	0.750			
0.6642	42510.92	3.7040	3.7040	1.4115	5.96	-0.01	0.750			
0.6681	42758.95	3.7010	3.7010	1.2700	5.95	-0.02	0.750			
0.6716	42981.04	3.6980	3.6977	1.1612	5.95	-0.02	0.750			
0.6749	43191.13	3.6950	3.6949	1.0591	5.95	-0.02	0.750			
0.6779	43383.01	3.6920	3.6921	1.0053	5.95	-0.02	0.750			
0.6807	43566.77	3.6890	3.6891	0.9584	5.95	-0.02	0.750			
0.6835	43744.22	3.6860	3.6857	0.9108	5.95	-0.02	0.750			
0.6862	43913.86	3.6830	3.6831	0.8794	5.95	-0.02	0.750			
0.6888	44082.66	3.6800	3.6800	0.8418	5.95	-0.02	0.750			
0.6913	44240.53	3.6770	3.6770	0.8222	5.95	-0.02	0.750			
0.6937	44396.64	3.6740	3.6742	0.7994	5.95	-0.02	0.750			
0.6960	44543.58	3.6710	3.6707	0.7655	5.95	-0.02	0.750			
0.6983	44690.70	3.6680	3.6680	0.7357	5.95	-0.02	0.750			
0.7005	44830.80	3.6650	3.6651	0.7008	5.96	-0.01	0.750			
0.7025	44961.88	3.6620	3.6622	0.6614	5.96	-0.01	0.750			
0.7045	45086.14	3.6590	3.6591	0.6243	5.96	-0.01	0.750			
0.7063	45202.44	3.6560	3.6559	0.5901	5.97	-0.00	0.750			
0.7080	45310.09	3.6530	3.6530	0.5539	5.97	-0.00	0.750			
0.7096	45414.92	3.6500	3.6500	0.5238	5.97	0.00	0.750			
0.7111	45513.27	3.6470	3.6472	0.4886	5.97	0.00	0.750			
0.7126	45605.42	3.6440	3.6439	0.4562	5.98	0.01	0.750			
0.7139	45688.67	3.6410	3.6411	0.4196	5.98	0.01	0.750			
0.7151	45764.85	3.6380	3.6378	0.3825	5.98	0.01	0.750			
0.7162	45835.15	3.6350	3.6350	0.3492	5.98	0.01	0.750			
0.7172	45898.67	3.6320	3.6321	0.3156	5.98	0.01	0.750			
0.7181	45956.56	3.6290	3.6289	0.2834	5.98	0.01	0.750			
0.7189	46008.56	3.6260	3.6259	0.2457	5.99	0.02	0.750			
0.7196	46051.84	3.6230	3.6229	0.2071	5.99	0.02	0.750			
0.7201	46088.41	3.6200	3.6202	0.1698	5.99	0.02	0.750			
0.7206	46118.72	3.6170	3.6173	0.1318	5.99	0.02	0.750			
0.7209	46140.75	3.6140	3.6147	0.0904	5.99	0.02	0.750			
0.7212	46156.19	3.6110	3.6114	0.0416	5.99	0.02	0.750			
0.7212	46159.50	3.6080	3.6098	-0.0071	5.99	0.02	0.750			
