Ah_balance (normalized)	Ah_balance (mAh)	Voltage - fit (V)	Voltage -  interpolate (V)	dQ/dV (1/V)	Temperature (°C)	Temperature - diff (°C)	Current (C)	R_DC 0ms (mOhm)	R_DC 50ms (mOhm)	R_DC 50 ms PEC (mOhm)
0.1792	11468.14	4.0810	4.0809	0.7860	7.60	1.61	0.750			
0.1815	11617.65	4.0780	4.0780	0.7763	7.60	1.61	0.750			
0.1839	11766.87	4.0750	4.0751	0.7697	7.59	1.60	0.750			
0.1861	11912.58	4.0720	4.0721	0.7667	7.59	1.60	0.750			
0.1884	12058.45	4.0690	4.0689	0.7717	7.59	1.60	0.750			
0.1907	12205.38	4.0660	4.0660	0.7737	7.58	1.59	0.750			
0.1930	12353.08	4.0630	4.0628	0.7776	7.58	1.59	0.750			
0.1954	12505.01	4.0600	4.0601	0.7847	7.58	1.59	0.750			
0.1978	12657.69	4.0570	4.0570	0.7849	7.58	1.59	0.750			
0.2001	12808.39	4.0540	4.0540	0.7880	7.57	1.58	0.750			
0.2025	12957.16	4.0510	4.0512	0.7916	7.57	1.58	0.750			
0.2048	13110.04	4.0480	4.0478	0.7952	7.57	1.58	0.750			
0.2073	13264.10	4.0450	4.0450	0.7984	7.56	1.57	0.750			
0.2097	13418.74	4.0420	4.0421	0.7988	7.56	1.57	0.750			
0.2121	13573.58	4.0390	4.0391	0.8053	7.55	1.56	0.750			
0.2145	13727.72	4.0360	4.0359	0.8079	7.54	1.55	0.750			
0.2169	13880.31	4.0330	4.0330	0.8063	7.53	1.54	0.750			
0.2193	14035.75	4.0300	4.0300	0.8083	7.53	1.54	0.750			
0.2218	14193.91	4.0270	4.0270	0.8106	7.53	1.54	0.750			
0.2242	14348.73	4.0240	4.0240	0.8142	7.52	1.53	0.750			
0.2266	14503.76	4.0210	4.0210	0.8230	7.52	1.53	0.750			
0.2291	14661.36	4.0180	4.0179	0.8249	7.52	1.53	0.750			
0.2316	14821.01	4.0150	4.0150	0.8267	7.52	1.53	0.750			
0.2341	14982.11	4.0120	4.0121	0.8278	7.51	1.52	0.750			
0.2366	15141.27	4.0090	4.0091	0.8312	7.50	1.51	0.750			
0.2391	15300.77	4.0060	4.0060	0.8369	7.50	1.51	0.750			
0.2415	15458.79	4.0030	4.0030	0.8359	7.49	1.50	0.750			
0.2441	15619.39	4.0000	4.0000	0.8430	7.49	1.50	0.750			
0.2467	15785.77	3.9970	3.9970	0.8428	7.48	1.49	0.750			
0.2492	15947.01	3.9940	3.9940	0.8550	7.48	1.49	0.750			
0.2518	16112.03	3.9910	3.9911	0.8631	7.48	1.49	0.750			
0.2543	16277.09	3.9880	3.9879	0.8617	7.47	1.48	0.750			
0.2569	16443.39	3.9850	3.9851	0.8663	7.46	1.47	0.750			
0.2596	16611.26	3.9820	3.9820	0.8637	7.46	1.47	0.750			
0.2621	16776.20	3.9790	3.9791	0.8682	7.45	1.46	0.750			
0.2647	16942.46	3.9760	3.9760	0.8647	7.44	1.45	0.750			
0.2673	17109.18	3.9730	3.9727	0.8721	7.43	1.44	0.750			
0.2700	17279.39	3.9700	3.9699	0.8695	7.43	1.44	0.750			
0.2726	17446.92	3.9670	3.9671	0.8754	7.42	1.43	0.750			
0.2752	17615.30	3.9640	3.9641	0.8854	7.42	1.43	0.750			
0.2779	17785.80	3.9610	3.9610	0.8939	7.41	1.42	0.750			
0.2805	17954.04	3.9580	3.9578	0.8931	7.41	1.42	0.750			
0.2832	18127.86	3.9550	3.9551	0.9038	7.40	1.41	0.750			
0.2860	18303.87	3.9520	3.9520	0.9129	7.39	1.40	0.750			
0.2888	18481.80	3.9490	3.9490	0.9189	7.38	1.39	0.750			
0.2915	18656.14	3.9460	3.9460	0.9214	7.37	1.38	0.750			
0.2943	18835.01	3.9430	3.9430	0.9206	7.36	1.37	0.750			
0.2970	19010.75	3.9400	3.9400	0.9266	7.36	1.37	0.750			
0.2998	19189.23	3.9370	3.9369	0.9347	7.35	1.36	0.750			
0.3026	19368.56	3.9340	3.9341	0.9456	7.34	1.35	0.750			
0.3055	19550.26	3.9310	3.9308	0.9527	7.33	1.34	0.750			
0.3084	19734.76	3.9280	3.9281	0.9595	7.32	1.33	0.750			
0.3112	19919.89	3.9250	3.9250	0.9654	7.32	1.33	0.750			
0.3142	20108.17	3.9220	3.9221	0.9778	7.32	1.33	0.750			
0.3171	20295.92	3.9190	3.9189	0.9810	7.31	1.32	0.750			
0.3201	20484.78	3.9160	3.9160	0.9864	7.30	1.31	0.750			
0.3230	20673.35	3.9130	3.9130	0.9981	7.29	1.30	0.750			
0.3260	20865.84	3.9100	3.9101	1.0101	7.28	1.29	0.750			
0.3291	21061.16	3.9070	3.9069	1.0200	7.26	1.27	0.750			
0.3322	21259.29	3.9040	3.9040	1.0249	7.25	1.26	0.750			
0.3353	21456.52	3.9010	3.9011	1.0360	7.24	1.25	0.750			
0.3384	21656.56	3.8980	3.8981	1.0491	7.23	1.24	0.750			
0.3415	21858.41	3.8950	3.8949	1.0628	7.22	1.23	0.750			
0.3447	22063.23	3.8920	3.8920	1.0681	7.21	1.22	0.750			
0.3480	22269.26	3.8890	3.8891	1.0816	7.20	1.21	0.750			
0.3512	22477.84	3.8860	3.8860	1.0963	7.19	1.20	0.750			
0.3546	22691.53	3.8830	3.8829	1.1093	7.17	1.18	0.750			
0.3579	22902.63	3.8800	3.8801	1.1184	7.16	1.17	0.750			
0.3612	23118.59	3.8770	3.8770	1.1315	7.14	1.15	0.750			
0.3646	23337.35	3.8740	3.8740	1.1460	7.12	1.13	0.750			
0.3681	23559.20	3.8710	3.8710	1.1601	7.11	1.12	0.750			
0.3716	23782.34	3.8680	3.8681	1.1811	7.09	1.10	0.750			
0.3752	24009.79	3.8650	3.8650	1.2057	7.07	1.08	0.750			
0.3789	24246.63	3.8620	3.8619	1.2258	7.06	1.07	0.750			
0.3826	24484.18	3.8590	3.8590	1.2438	7.04	1.05	0.750			
0.3863	24726.30	3.8560	3.8560	1.2664	7.02	1.03	0.750			
0.3902	24972.05	3.8530	3.8531	1.2820	7.00	1.01	0.750			
0.3940	25218.46	3.8500	3.8499	1.3019	6.98	0.99	0.750			
0.3979	25465.99	3.8470	3.8470	1.3358	6.96	0.97	0.750			
0.4020	25729.02	3.8440	3.8440	1.3357	6.94	0.95	0.750			
0.4061	25988.40	3.8410	3.8409	1.3344	6.91	0.92	0.750	0.413	0.911	
0.4101	26248.95	3.8380	3.8384	1.3288	6.89	0.90	0.750			
0.4140	26497.88	3.8350	3.8352	1.3494	6.87	0.88	0.750			
0.4180	26752.80	3.8320	3.8318	1.3821	6.85	0.86	0.750			
0.4221	27013.47	3.8290	3.8291	1.4060	6.83	0.84	0.750			
0.4264	27290.69	3.8260	3.8260	1.4594	6.81	0.82	0.750			
0.4310	27584.36	3.8230	3.8231	1.5118	6.79	0.80	0.750			
0.4356	27878.48	3.8200	3.8200	1.5207	6.76	0.77	0.750			
0.4403	28178.85	3.8170	3.8172	1.5558	6.73	0.74	0.750			
0.4449	28471.43	3.8140	3.8139	1.5843	6.71	0.72	0.750			
0.4496	28775.64	3.8110	3.8108	1.6227	6.68	0.69	0.750			
0.4545	29088.11	3.8080	3.8080	1.6529	6.65	0.66	0.750			
0.4597	29417.65	3.8050	3.8051	1.6896	6.63	0.64	0.750			
0.4648	29746.00	3.8020	3.8022	1.7338	6.60	0.61	0.750			
0.4700	30082.86	3.7990	3.7990	1.7534	6.58	0.59	0.750			
0.4752	30415.81	3.7960	3.7960	1.7814	6.55	0.56	0.750			
0.4807	30761.85	3.7930	3.7931	1.8016	6.53	0.54	0.750			
0.4861	31107.53	3.7900	3.7899	1.8324	6.50	0.51	0.750			
0.4916	31463.29	3.7870	3.7870	1.8455	6.47	0.48	0.750			
0.4973	31828.87	3.7840	3.7840	1.8546	6.45	0.46	0.750			
0.5029	32184.12	3.7810	3.7812	1.8828	6.42	0.43	0.750			
0.5085	32546.16	3.7780	3.7783	1.8970	6.40	0.41	0.750			
0.5142	32911.45	3.7750	3.7750	1.9164	6.38	0.39	0.750			
0.5200	33282.02	3.7720	3.7721	1.9662	6.36	0.37	0.750			
0.5261	33672.64	3.7690	3.7690	1.9907	6.34	0.35	0.750			
0.5320	34046.28	3.7660	3.7660	1.9982	6.32	0.33	0.750			
0.5379	34426.54	3.7630	3.7630	1.9765	6.30	0.31	0.750			
0.5438	34804.94	3.7600	3.7602	2.0509	6.28	0.29	0.750			
0.5500	35202.06	3.7570	3.7568	2.0581	6.25	0.26	0.750			
0.5563	35601.00	3.7540	3.7542	2.1064	6.23	0.24	0.750			
0.5627	36015.23	3.7510	3.7509	2.1350	6.21	0.22	0.750			
0.5693	36433.14	3.7480	3.7480	2.1819	6.18	0.19	0.750			
0.5759	36858.71	3.7450	3.7450	2.2401	6.16	0.17	0.750			
0.5825	37281.52	3.7420	3.7420	2.2821	6.14	0.15	0.750			
0.5894	37718.72	3.7390	3.7390	2.3628	6.12	0.13	0.750			
0.5967	38190.20	3.7360	3.7359	2.4511	6.10	0.11	0.750			
0.6043	38677.21	3.7330	3.7330	2.4610	6.07	0.08	0.750			
0.6116	39143.54	3.7300	3.7300	2.4247	6.05	0.06	0.750			
0.6187	39597.26	3.7270	3.7270	2.4265	6.04	0.05	0.750			
0.6262	40074.88	3.7240	3.7239	2.4351	6.02	0.03	0.750			
0.6336	40552.25	3.7210	3.7210	2.3748	6.00	0.01	0.750			
0.6407	41004.69	3.7180	3.7179	2.2523	5.99	0.00	0.750			
0.6472	41423.51	3.7150	3.7152	2.0813	5.99	-0.00	0.750			
0.6532	41805.06	3.7120	3.7123	1.8843	5.98	-0.01	0.750			
0.6585	42144.48	3.7090	3.7089	1.6931	5.97	-0.02	0.750			
0.6632	42446.41	3.7060	3.7061	1.5081	5.96	-0.03	0.750			
0.6676	42723.29	3.7030	3.7029	1.3666	5.95	-0.04	0.750			
0.6713	42963.19	3.7000	3.7000	1.2147	5.95	-0.04	0.750			
0.6747	43177.61	3.6970	3.6972	1.1283	5.95	-0.04	0.750			
0.6777	43375.04	3.6940	3.6941	1.0407	5.95	-0.04	0.750			
0.6807	43565.12	3.6910	3.6905	0.9893	5.95	-0.04	0.750			
0.6835	43743.90	3.6880	3.6881	0.9381	5.95	-0.04	0.750			
0.6863	43920.41	3.6850	3.6852	0.9065	5.95	-0.04	0.750			
0.6890	44095.05	3.6820	3.6818	0.8821	5.96	-0.03	0.750			
0.6916	44259.89	3.6790	3.6791	0.8395	5.96	-0.03	0.750			
0.6940	44418.86	3.6760	3.6760	0.8098	5.96	-0.03	0.750			
0.6965	44572.86	3.6730	3.6730	0.7816	5.96	-0.03	0.750			
0.6987	44719.83	3.6700	3.6700	0.7460	5.96	-0.03	0.750			
0.7009	44858.42	3.6670	3.6670	0.7125	5.97	-0.02	0.750			
0.7030	44990.99	3.6640	3.6640	0.6803	5.97	-0.02	0.750			
0.7050	45118.79	3.6610	3.6606	0.6456	5.97	-0.02	0.750			
0.7069	45240.95	3.6580	3.6580	0.6118	5.97	-0.02	0.750			
0.7087	45355.31	3.6550	3.6551	0.5742	5.98	-0.01	0.750			
0.7104	45463.57	3.6520	3.6521	0.5390	5.98	-0.01	0.750			
0.7119	45561.46	3.6490	3.6490	0.4977	5.98	-0.01	0.750			
0.7134	45655.11	3.6460	3.6459	0.4625	5.98	-0.01	0.750			
0.7147	45738.78	3.6430	3.6429	0.4260	5.99	-0.00	0.750			
0.7159	45817.64	3.6400	3.6401	0.3944	5.99	-0.00	0.750			
0.7170	45890.60	3.6370	3.6370	0.3627	5.99	-0.00	0.750			
0.7181	45956.42	3.6340	3.6340	0.3299	5.99	0.00	0.750			
0.7190	46016.72	3.6310	3.6310	0.2953	5.99	0.00	0.750			
0.7199	46071.75	3.6280	3.6279	0.2584	5.99	0.00	0.750			
0.7206	46119.92	3.6250	3.6249	0.2271	5.99	0.00	0.750			
0.7212	46159.07	3.6220	3.6223	0.1854	6.00	0.01	0.750			
0.7218	46192.45	3.6190	3.6190	0.1458	6.00	0.01	0.750			
0.7221	46217.13	3.6160	3.6161	0.1022	6.00	0.01	0.750			
0.7224	46232.56	3.6130	3.6137	0.0570	6.00	0.01	0.750			
0.7225	46239.23	3.6100	3.6113	0.0209	6.00	0.01	0.750			
