Ah_balance (normalized)	Ah_balance (mAh)	Voltage - fit (V)	Voltage -  interpolate (V)	dQ/dV (1/V)	Temperature (°C)	Temperature - diff (°C)	Current (C)	R_DC 0ms (mOhm)	R_DC 50ms (mOhm)	R_DC 50 ms PEC (mOhm)
0.1758	11250.90	4.0830	4.0830	0.7404	7.60	1.61	0.750			
0.1780	11393.61	4.0800	4.0801	0.7497	7.59	1.60	0.750			
0.1803	11540.81	4.0770	4.0770	0.7600	7.59	1.60	0.750			
0.1826	11687.64	4.0740	4.0740	0.7609	7.58	1.59	0.750			
0.1849	11833.06	4.0710	4.0711	0.7602	7.58	1.59	0.750			
0.1872	11978.83	4.0680	4.0680	0.7703	7.58	1.59	0.750			
0.1895	12125.59	4.0650	4.0650	0.7706	7.57	1.58	0.750			
0.1918	12273.91	4.0620	4.0617	0.7747	7.57	1.58	0.750			
0.1941	12423.40	4.0590	4.0591	0.7785	7.57	1.58	0.750			
0.1965	12575.34	4.0560	4.0561	0.7813	7.56	1.57	0.750			
0.1988	12725.98	4.0530	4.0529	0.7908	7.56	1.57	0.750			
0.2012	12876.48	4.0500	4.0501	0.7844	7.55	1.56	0.750			
0.2035	13027.05	4.0470	4.0469	0.7907	7.55	1.56	0.750			
0.2059	13180.74	4.0440	4.0440	0.7956	7.54	1.55	0.750			
0.2084	13335.49	4.0410	4.0410	0.7914	7.54	1.55	0.750			
0.2107	13486.72	4.0380	4.0380	0.7950	7.53	1.54	0.750			
0.2131	13637.83	4.0350	4.0351	0.7977	7.52	1.53	0.750			
0.2155	13789.26	4.0320	4.0320	0.8017	7.51	1.52	0.750			
0.2179	13944.06	4.0290	4.0291	0.8094	7.51	1.52	0.750			
0.2203	14102.32	4.0260	4.0260	0.8041	7.50	1.51	0.750			
0.2228	14258.29	4.0230	4.0230	0.8159	7.50	1.51	0.750			
0.2252	14415.94	4.0200	4.0200	0.8199	7.50	1.51	0.750			
0.2277	14570.43	4.0170	4.0172	0.8201	7.49	1.50	0.750			
0.2301	14727.06	4.0140	4.0142	0.8213	7.49	1.50	0.750			
0.2326	14886.12	4.0110	4.0110	0.8256	7.48	1.49	0.750			
0.2351	15045.70	4.0080	4.0080	0.8313	7.47	1.48	0.750			
0.2376	15205.21	4.0050	4.0051	0.8413	7.46	1.47	0.750			
0.2401	15367.89	4.0020	4.0020	0.8398	7.45	1.46	0.750			
0.2427	15530.64	3.9990	3.9990	0.8429	7.45	1.46	0.750			
0.2452	15694.23	3.9960	3.9960	0.8352	7.44	1.45	0.750			
0.2477	15854.25	3.9930	3.9928	0.8408	7.44	1.45	0.750			
0.2502	16013.47	3.9900	3.9901	0.8498	7.44	1.45	0.750			
0.2528	16176.92	3.9870	3.9872	0.8511	7.43	1.44	0.750			
0.2553	16339.26	3.9840	3.9841	0.8534	7.43	1.44	0.750			
0.2579	16506.84	3.9810	3.9811	0.8567	7.42	1.43	0.750			
0.2605	16671.33	3.9780	3.9782	0.8611	7.42	1.43	0.750			
0.2631	16837.14	3.9750	3.9749	0.8625	7.42	1.43	0.750			
0.2656	17000.91	3.9720	3.9722	0.8671	7.41	1.42	0.750			
0.2682	17167.57	3.9690	3.9689	0.8743	7.40	1.41	0.750			
0.2709	17337.71	3.9660	3.9660	0.8866	7.40	1.41	0.750			
0.2736	17509.63	3.9630	3.9632	0.8895	7.39	1.40	0.750			
0.2763	17683.24	3.9600	3.9599	0.8990	7.38	1.39	0.750			
0.2790	17853.49	3.9570	3.9570	0.9000	7.37	1.38	0.750			
0.2817	18026.14	3.9540	3.9540	0.9002	7.36	1.37	0.750			
0.2843	18196.50	3.9510	3.9510	0.9075	7.35	1.36	0.750			
0.2871	18372.44	3.9480	3.9480	0.9200	7.34	1.35	0.750			
0.2899	18551.29	3.9450	3.9450	0.9202	7.34	1.35	0.750			
0.2926	18729.48	3.9420	3.9419	0.9290	7.33	1.34	0.750			
0.2954	18907.23	3.9390	3.9392	0.9311	7.31	1.32	0.750			
0.2982	19085.47	3.9360	3.9360	0.9373	7.30	1.31	0.750			
0.3010	19264.48	3.9330	3.9330	0.9510	7.29	1.30	0.750			
0.3039	19447.41	3.9300	3.9298	0.9562	7.28	1.29	0.750			
0.3067	19631.95	3.9270	3.9270	0.9686	7.27	1.28	0.750			
0.3097	19821.48	3.9240	3.9241	0.9737	7.27	1.28	0.750			
0.3126	20008.15	3.9210	3.9210	0.9792	7.26	1.27	0.750			
0.3156	20195.45	3.9180	3.9181	0.9816	7.25	1.26	0.750			
0.3185	20386.53	3.9150	3.9149	0.9820	7.24	1.25	0.750			
0.3214	20572.04	3.9120	3.9120	0.9947	7.23	1.24	0.750			
0.3245	20765.27	3.9090	3.9091	1.0109	7.23	1.24	0.750			
0.3275	20960.46	3.9060	3.9061	1.0223	7.22	1.23	0.750			
0.3306	21160.72	3.9030	3.9030	1.0224	7.20	1.21	0.750			
0.3337	21356.83	3.9000	3.9001	1.0338	7.19	1.20	0.750			
0.3368	21555.75	3.8970	3.8971	1.0445	7.17	1.18	0.750			
0.3400	21756.99	3.8940	3.8942	1.0576	7.16	1.17	0.750			
0.3431	21957.44	3.8910	3.8911	1.0648	7.15	1.16	0.750			
0.3463	22163.99	3.8880	3.8881	1.0792	7.14	1.15	0.750			
0.3496	22375.48	3.8850	3.8850	1.0885	7.14	1.15	0.750			
0.3529	22586.53	3.8820	3.8821	1.0967	7.13	1.14	0.750			
0.3562	22798.82	3.8790	3.8790	1.0952	7.12	1.13	0.750			
0.3595	23005.61	3.8760	3.8760	1.1109	7.11	1.12	0.750			
0.3628	23218.51	3.8730	3.8730	1.1286	7.10	1.11	0.750			
0.3662	23438.18	3.8700	3.8697	1.1311	7.09	1.10	0.750			
0.3696	23654.83	3.8670	3.8671	1.1576	7.08	1.09	0.750			
0.3731	23881.31	3.8640	3.8641	1.1800	7.07	1.08	0.750			
0.3767	24110.59	3.8610	3.8611	1.1993	7.06	1.07	0.750			
0.3803	24340.13	3.8580	3.8581	1.2033	7.05	1.06	0.750			
0.3839	24570.26	3.8550	3.8552	1.2284	7.03	1.04	0.750			
0.3877	24810.34	3.8520	3.8520	1.2464	7.02	1.03	0.750			
0.3914	25050.79	3.8490	3.8486	1.2806	7.01	1.02	0.750			
0.3951	25286.97	3.8460	3.8463	1.2789	6.99	1.00	0.750			
0.3990	25534.58	3.8430	3.8433	1.3295	6.97	0.98	0.750			
0.4030	25793.70	3.8400	3.8398	1.3638	6.96	0.97	0.750			
0.4073	26066.31	3.8370	3.8373	1.3961	6.94	0.95	0.750	0.361	0.843	
0.4115	26333.99	3.8340	3.8343	1.4246	6.93	0.94	0.750			
0.4159	26620.15	3.8310	3.8309	1.4638	6.91	0.92	0.750			
0.4203	26898.95	3.8280	3.8282	1.4648	6.90	0.91	0.750			
0.4246	27173.62	3.8250	3.8248	1.4771	6.88	0.89	0.750			
0.4291	27464.15	3.8220	3.8220	1.4746	6.86	0.87	0.750			
0.4336	27750.33	3.8190	3.8192	1.4946	6.84	0.85	0.750			
0.4382	28041.76	3.8160	3.8162	1.5538	6.82	0.83	0.750			
0.4427	28332.96	3.8130	3.8125	1.5998	6.80	0.81	0.750			
0.4476	28643.22	3.8100	3.8097	1.6265	6.78	0.79	0.750			
0.4527	28972.19	3.8070	3.8071	1.6598	6.76	0.77	0.750			
0.4579	29302.94	3.8040	3.8042	1.6898	6.73	0.74	0.750			
0.4629	29623.67	3.8010	3.8010	1.6964	6.71	0.72	0.750			
0.4678	29938.73	3.7980	3.7978	1.6873	6.68	0.69	0.750			
0.4728	30256.67	3.7950	3.7950	1.7304	6.66	0.67	0.750			
0.4780	30592.61	3.7920	3.7921	1.7760	6.64	0.65	0.750			
0.4835	30946.25	3.7890	3.7892	1.7942	6.61	0.62	0.750			
0.4890	31295.22	3.7860	3.7864	1.8204	6.58	0.59	0.750			
0.4944	31642.96	3.7830	3.7828	1.8525	6.56	0.57	0.750			
0.4999	31990.50	3.7800	3.7801	1.8664	6.53	0.54	0.750			
0.5057	32361.70	3.7770	3.7767	1.8613	6.50	0.51	0.750			
0.5113	32721.28	3.7740	3.7739	1.9222	6.48	0.49	0.750			
0.5170	33086.13	3.7710	3.7707	1.9090	6.45	0.46	0.750			
0.5226	33449.57	3.7680	3.7680	1.8821	6.43	0.44	0.750			
0.5284	33819.07	3.7650	3.7651	1.9303	6.41	0.42	0.750			
0.5344	34201.77	3.7620	3.7621	1.9317	6.38	0.39	0.750			
0.5400	34560.22	3.7590	3.7587	1.9132	6.36	0.37	0.750			
0.5458	34929.94	3.7560	3.7555	1.9669	6.34	0.35	0.750			
0.5517	35310.20	3.7530	3.7528	1.9992	6.32	0.33	0.750			
0.5579	35704.53	3.7500	3.7505	2.0358	6.29	0.30	0.750			
0.5641	36103.75	3.7470	3.7473	2.1268	6.26	0.27	0.750			
0.5708	36529.81	3.7440	3.7441	2.1537	6.24	0.25	0.750			
0.5774	36951.97	3.7410	3.7411	2.1861	6.22	0.23	0.750			
0.5841	37381.33	3.7380	3.7378	2.2168	6.19	0.20	0.750			
0.5906	37799.94	3.7350	3.7350	2.2227	6.15	0.16	0.750			
0.5974	38232.38	3.7320	3.7320	2.3598	6.14	0.15	0.750			
0.6046	38693.35	3.7290	3.7291	2.3675	6.12	0.13	0.750			
0.6120	39168.96	3.7260	3.7260	2.3938	6.09	0.10	0.750			
0.6193	39634.53	3.7230	3.7231	2.3455	6.06	0.07	0.750			
0.6262	40079.57	3.7200	3.7201	2.2875	6.05	0.06	0.750			
0.6331	40516.70	3.7170	3.7167	2.1872	6.04	0.05	0.750			
0.6395	40927.65	3.7140	3.7139	2.0364	6.03	0.04	0.750			
0.6454	41306.59	3.7110	3.7111	1.8648	6.02	0.03	0.750			
0.6507	41645.33	3.7080	3.7081	1.6445	6.02	0.03	0.750			
0.6555	41952.21	3.7050	3.7051	1.5046	6.01	0.02	0.750			
0.6596	42214.48	3.7020	3.7021	1.3445	6.00	0.01	0.750			
0.6633	42449.92	3.6990	3.6991	1.2107	6.00	0.01	0.750			
0.6666	42662.31	3.6960	3.6956	1.1170	5.99	0.00	0.750			
0.6697	42863.87	3.6930	3.6930	1.0331	5.99	-0.00	0.750			
0.6727	43053.98	3.6900	3.6900	0.9781	5.98	-0.01	0.750			
0.6756	43235.20	3.6870	3.6870	0.9394	5.98	-0.01	0.750			
0.6783	43409.62	3.6840	3.6840	0.9020	5.97	-0.02	0.750			
0.6809	43579.88	3.6810	3.6809	0.8766	5.97	-0.02	0.750			
0.6835	43744.53	3.6780	3.6780	0.8455	5.96	-0.03	0.750			
0.6860	43904.83	3.6750	3.6750	0.8213	5.96	-0.03	0.750			
0.6885	44062.10	3.6720	3.6720	0.7955	5.96	-0.03	0.750			
0.6908	44211.66	3.6690	3.6690	0.7665	5.95	-0.04	0.750			
0.6930	44354.90	3.6660	3.6661	0.7345	5.95	-0.04	0.750			
0.6952	44492.41	3.6630	3.6629	0.7034	5.96	-0.03	0.750			
0.6973	44626.40	3.6600	3.6600	0.6717	5.96	-0.03	0.750			
0.6993	44753.31	3.6570	3.6569	0.6419	5.96	-0.03	0.750			
0.7011	44872.71	3.6540	3.6541	0.6130	5.97	-0.02	0.750			
0.7029	44987.03	3.6510	3.6511	0.5843	5.97	-0.02	0.750			
0.7046	45095.90	3.6480	3.6478	0.5492	5.97	-0.02	0.750			
0.7062	45199.01	3.6450	3.6450	0.5186	5.97	-0.02	0.750			
0.7078	45296.15	3.6420	3.6421	0.4845	5.98	-0.01	0.750			
0.7092	45386.32	3.6390	3.6390	0.4495	5.98	-0.01	0.750			
0.7104	45468.74	3.6360	3.6360	0.4143	5.98	-0.01	0.750			
0.7116	45544.47	3.6330	3.6330	0.3797	5.98	-0.01	0.750			
0.7127	45614.12	3.6300	3.6299	0.3439	5.98	-0.01	0.750			
0.7137	45678.07	3.6270	3.6269	0.3104	5.99	-0.00	0.750			
0.7146	45734.34	3.6240	3.6241	0.2741	5.99	-0.00	0.750			
0.7154	45784.53	3.6210	3.6210	0.2347	5.99	-0.00	0.750			
0.7160	45826.45	3.6180	3.6179	0.1956	5.99	-0.00	0.750			
0.7166	45859.98	3.6150	3.6149	0.1536	5.99	-0.00	0.750			
0.7170	45885.26	3.6120	3.6124	0.1118	5.99	0.00	0.750			
0.7172	45902.63	3.6090	3.6096	0.0699	5.99	0.00	0.750			
0.7174	45913.67	3.6060	3.6021	0.0238	5.99	0.00	0.750			
0.7174	45913.80	3.6030	3.5991	-0.0225	5.99	0.00	0.750			
