Ah_balance (normalized)	Ah_balance (mAh)	Voltage - fit (V)	Voltage -  interpolate (V)	dQ/dV (1/V)	Temperature (°C)	Temperature - diff (°C)	Current (C)	R_DC 0ms (mOhm)	R_DC 50ms (mOhm)	R_DC 50 ms PEC (mOhm)
0.1757	11247.39	4.0830	4.0829	0.7894	7.88	1.92	0.750			
0.1781	11399.40	4.0800	4.0800	0.7890	7.87	1.91	0.750			
0.1804	11545.86	4.0770	4.0770	0.7727	7.86	1.90	0.750			
0.1827	11692.24	4.0740	4.0741	0.7767	7.86	1.90	0.750			
0.1850	11842.43	4.0710	4.0709	0.7747	7.85	1.89	0.750			
0.1874	11992.66	4.0680	4.0681	0.7797	7.85	1.89	0.750			
0.1898	12145.21	4.0650	4.0649	0.7765	7.84	1.88	0.750			
0.1921	12293.38	4.0620	4.0621	0.7741	7.84	1.88	0.750			
0.1944	12440.92	4.0590	4.0590	0.7780	7.83	1.87	0.750			
0.1967	12586.80	4.0560	4.0561	0.7755	7.82	1.86	0.750			
0.1990	12735.38	4.0530	4.0528	0.7781	7.82	1.86	0.750			
0.2014	12886.94	4.0500	4.0501	0.7928	7.81	1.85	0.750			
0.2038	13040.76	4.0470	4.0470	0.7955	7.80	1.84	0.750			
0.2062	13194.53	4.0440	4.0440	0.8052	7.79	1.83	0.750			
0.2086	13349.56	4.0410	4.0410	0.8045	7.78	1.82	0.750			
0.2110	13504.63	4.0380	4.0377	0.8081	7.77	1.81	0.750			
0.2134	13660.04	4.0350	4.0351	0.8141	7.77	1.81	0.750			
0.2159	13819.27	4.0320	4.0320	0.8057	7.76	1.80	0.750			
0.2183	13972.61	4.0290	4.0290	0.8159	7.76	1.80	0.750			
0.2208	14130.56	4.0260	4.0261	0.8214	7.75	1.79	0.750			
0.2232	14285.93	4.0230	4.0228	0.8194	7.75	1.79	0.750			
0.2257	14444.57	4.0200	4.0202	0.8244	7.74	1.78	0.750			
0.2282	14605.60	4.0170	4.0171	0.8159	7.73	1.77	0.750			
0.2306	14759.67	4.0140	4.0140	0.8251	7.72	1.76	0.750			
0.2331	14919.51	4.0110	4.0110	0.8324	7.71	1.75	0.750			
0.2356	15076.00	4.0080	4.0079	0.8302	7.69	1.73	0.750			
0.2381	15236.87	4.0050	4.0051	0.8394	7.68	1.72	0.750			
0.2406	15399.96	4.0020	4.0021	0.8448	7.68	1.72	0.750			
0.2432	15563.09	3.9990	3.9990	0.8508	7.67	1.71	0.750			
0.2457	15727.26	3.9960	3.9960	0.8521	7.66	1.70	0.750			
0.2483	15890.53	3.9930	3.9928	0.8574	7.65	1.69	0.750			
0.2509	16056.78	3.9900	3.9900	0.8644	7.64	1.68	0.750			
0.2535	16223.97	3.9870	3.9870	0.8697	7.63	1.67	0.750			
0.2561	16393.50	3.9840	3.9840	0.8709	7.63	1.67	0.750			
0.2588	16561.15	3.9810	3.9810	0.8689	7.62	1.66	0.750			
0.2613	16725.88	3.9780	3.9780	0.8669	7.61	1.65	0.750			
0.2639	16892.06	3.9750	3.9750	0.8671	7.60	1.64	0.750			
0.2665	17056.58	3.9720	3.9720	0.8716	7.59	1.63	0.750			
0.2691	17224.61	3.9690	3.9690	0.8779	7.58	1.62	0.750			
0.2718	17394.31	3.9660	3.9661	0.8873	7.58	1.62	0.750			
0.2745	17567.24	3.9630	3.9629	0.8932	7.57	1.61	0.750			
0.2772	17739.41	3.9600	3.9600	0.8933	7.56	1.60	0.750			
0.2798	17910.15	3.9570	3.9570	0.8998	7.55	1.59	0.750			
0.2825	18082.66	3.9540	3.9540	0.9101	7.53	1.57	0.750			
0.2853	18257.83	3.9510	3.9509	0.9111	7.52	1.56	0.750			
0.2880	18435.14	3.9480	3.9481	0.9163	7.51	1.55	0.750			
0.2908	18611.44	3.9450	3.9450	0.9237	7.50	1.54	0.750			
0.2936	18789.28	3.9420	3.9421	0.9328	7.48	1.52	0.750			
0.2964	18968.98	3.9390	3.9390	0.9376	7.47	1.51	0.750			
0.2992	19148.88	3.9360	3.9359	0.9416	7.46	1.50	0.750			
0.3021	19331.47	3.9330	3.9330	0.9364	7.45	1.49	0.750			
0.3049	19511.40	3.9300	3.9301	0.9527	7.44	1.48	0.750			
0.3077	19692.86	3.9270	3.9271	0.9604	7.43	1.47	0.750			
0.3106	19876.91	3.9240	3.9238	0.9679	7.42	1.46	0.750			
0.3135	20064.94	3.9210	3.9210	0.9721	7.41	1.45	0.750			
0.3165	20253.77	3.9180	3.9181	0.9850	7.39	1.43	0.750			
0.3194	20443.31	3.9150	3.9151	0.9958	7.37	1.41	0.750			
0.3224	20636.75	3.9120	3.9120	0.9984	7.36	1.40	0.750			
0.3255	20830.51	3.9090	3.9090	0.9980	7.34	1.38	0.750			
0.3284	21020.39	3.9060	3.9060	1.0074	7.33	1.37	0.750			
0.3315	21213.97	3.9030	3.9031	1.0222	7.33	1.37	0.750			
0.3346	21411.76	3.9000	3.9000	1.0406	7.32	1.36	0.750			
0.3377	21613.04	3.8970	3.8969	1.0392	7.30	1.34	0.750			
0.3408	21809.64	3.8940	3.8941	1.0630	7.29	1.33	0.750			
0.3440	22018.82	3.8910	3.8911	1.0815	7.28	1.32	0.750			
0.3474	22231.65	3.8880	3.8879	1.0953	7.27	1.31	0.750			
0.3507	22443.15	3.8850	3.8849	1.0800	7.25	1.29	0.750			
0.3539	22646.82	3.8820	3.8823	1.0976	7.24	1.28	0.750			
0.3572	22858.59	3.8790	3.8791	1.1104	7.22	1.26	0.750			
0.3606	23076.72	3.8760	3.8757	1.1218	7.20	1.24	0.750			
0.3639	23287.52	3.8730	3.8731	1.1306	7.19	1.23	0.750			
0.3673	23508.07	3.8700	3.8701	1.1539	7.17	1.21	0.750			
0.3708	23731.76	3.8670	3.8671	1.1692	7.15	1.19	0.750			
0.3744	23958.61	3.8640	3.8641	1.1772	7.13	1.17	0.750			
0.3779	24184.31	3.8610	3.8611	1.1983	7.11	1.15	0.750			
0.3815	24415.86	3.8580	3.8580	1.2297	7.10	1.14	0.750			
0.3852	24654.90	3.8550	3.8549	1.2572	7.08	1.12	0.750			
0.3890	24897.88	3.8520	3.8520	1.2638	7.07	1.11	0.750			
0.3929	25143.51	3.8490	3.8491	1.2874	7.05	1.09	0.750			
0.3968	25392.01	3.8460	3.8462	1.3249	7.03	1.07	0.750			
0.4008	25650.93	3.8430	3.8431	1.3466	7.01	1.05	0.750			
0.4048	25909.32	3.8400	3.8399	1.3853	6.99	1.03	0.750			
0.4091	26180.82	3.8370	3.8372	1.4045	6.96	1.00	0.750	0.399	0.897	
0.4135	26460.88	3.8340	3.8340	1.4608	6.94	0.98	0.750			
0.4178	26738.51	3.8310	3.8311	1.4627	6.92	0.96	0.750			
0.4222	27022.21	3.8280	3.8280	1.4579	6.90	0.94	0.750			
0.4266	27300.68	3.8250	3.8252	1.4834	6.88	0.92	0.750			
0.4310	27583.32	3.8220	3.8217	1.5182	6.86	0.90	0.750			
0.4355	27873.70	3.8190	3.8189	1.5368	6.83	0.87	0.750			
0.4402	28175.75	3.8160	3.8164	1.5560	6.81	0.85	0.750			
0.4451	28486.37	3.8130	3.8132	1.6187	6.79	0.83	0.750			
0.4500	28798.78	3.8100	3.8098	1.6609	6.76	0.80	0.750			
0.4548	29107.26	3.8070	3.8068	1.6600	6.73	0.77	0.750			
0.4600	29440.67	3.8040	3.8040	1.6816	6.70	0.74	0.750			
0.4651	29769.04	3.8010	3.8012	1.7362	6.67	0.71	0.750			
0.4704	30105.76	3.7980	3.7982	1.7640	6.65	0.69	0.750			
0.4756	30436.93	3.7950	3.7950	1.7841	6.62	0.66	0.750			
0.4810	30781.26	3.7920	3.7923	1.7896	6.60	0.64	0.750			
0.4864	31129.36	3.7890	3.7891	1.8076	6.57	0.61	0.750			
0.4918	31475.46	3.7860	3.7859	1.9958	6.54	0.58	0.750			
0.4980	31869.90	3.7830	3.7827	2.1047	6.51	0.55	0.750			
0.5047	32298.14	3.7800	3.7804	2.1277	6.49	0.53	0.750			
0.5113	32722.75	3.7770	3.7770	2.1288	6.46	0.50	0.750			
0.5175	33120.20	3.7740	3.7738	2.0288	6.42	0.46	0.750			
0.5232	33485.22	3.7710	3.7712	1.9844	6.39	0.43	0.750			
0.5293	33872.39	3.7680	3.7679	2.0157	6.36	0.40	0.750			
0.5354	34267.97	3.7650	3.7649	2.0236	6.33	0.37	0.750			
0.5415	34655.13	3.7620	3.7620	2.0218	6.30	0.34	0.750			
0.5476	35048.62	3.7590	3.7589	2.0388	6.28	0.32	0.750			
0.5536	35432.73	3.7560	3.7561	2.0526	6.25	0.29	0.750			
0.5600	35838.21	3.7530	3.7530	2.0803	6.22	0.26	0.750			
0.5663	36242.36	3.7500	3.7500	2.1287	6.20	0.24	0.750			
0.5727	36652.81	3.7470	3.7471	2.1954	6.17	0.21	0.750			
0.5794	37080.49	3.7440	3.7439	2.2647	6.14	0.18	0.750			
0.5863	37522.74	3.7410	3.7410	2.3481	6.11	0.15	0.750			
0.5936	37992.63	3.7380	3.7379	2.4124	6.10	0.14	0.750			
0.6008	38450.34	3.7350	3.7350	2.4023	6.08	0.12	0.750			
0.6079	38907.14	3.7320	3.7321	2.4204	6.05	0.09	0.750			
0.6152	39370.96	3.7290	3.7289	2.4289	6.02	0.06	0.750			
0.6227	39851.43	3.7260	3.7260	2.4192	6.01	0.05	0.750			
0.6299	40314.47	3.7230	3.7229	2.3788	6.00	0.04	0.750			
0.6369	40762.29	3.7200	3.7201	2.3019	5.98	0.02	0.750			
0.6438	41203.32	3.7170	3.7170	2.1522	5.97	0.01	0.750			
0.6501	41608.41	3.7140	3.7141	1.9771	5.97	0.01	0.750			
0.6557	41967.75	3.7110	3.7108	1.7622	5.95	-0.01	0.750			
0.6605	42273.08	3.7080	3.7079	1.5464	5.94	-0.02	0.750			
0.6647	42541.41	3.7050	3.7053	1.3750	5.94	-0.02	0.750			
0.6686	42788.75	3.7020	3.7020	1.2359	5.94	-0.02	0.750			
0.6719	43003.79	3.6990	3.6990	1.1287	5.94	-0.02	0.750			
0.6751	43206.57	3.6960	3.6960	1.0478	5.94	-0.02	0.750			
0.6781	43399.10	3.6930	3.6931	0.9828	5.94	-0.02	0.750			
0.6810	43581.45	3.6900	3.6900	0.9451	5.93	-0.03	0.750			
0.6837	43755.24	3.6870	3.6871	0.9063	5.93	-0.03	0.750			
0.6863	43923.37	3.6840	3.6836	0.8730	5.93	-0.03	0.750			
0.6889	44087.36	3.6810	3.6810	0.8470	5.93	-0.03	0.750			
0.6914	44249.11	3.6780	3.6781	0.8186	5.93	-0.03	0.750			
0.6938	44405.45	3.6750	3.6751	0.7949	5.93	-0.03	0.750			
0.6962	44556.00	3.6720	3.6720	0.7581	5.93	-0.03	0.750			
0.6984	44698.88	3.6690	3.6689	0.7219	5.93	-0.03	0.750			
0.7005	44834.16	3.6660	3.6660	0.6845	5.93	-0.03	0.750			
0.7025	44962.47	3.6630	3.6632	0.6487	5.94	-0.02	0.750			
0.7044	45083.00	3.6600	3.6600	0.6152	5.94	-0.02	0.750			
0.7062	45197.20	3.6570	3.6569	0.5790	5.95	-0.01	0.750			
0.7079	45304.45	3.6540	3.6539	0.5429	5.95	-0.01	0.750			
0.7095	45406.08	3.6510	3.6510	0.5097	5.96	-0.00	0.750			
0.7109	45500.28	3.6480	3.6480	0.4770	5.96	-0.00	0.750			
0.7123	45589.13	3.6450	3.6451	0.4439	5.96	0.00	0.750			
0.7136	45670.99	3.6420	3.6419	0.4081	5.97	0.01	0.750			
0.7148	45744.91	3.6390	3.6390	0.3733	5.97	0.01	0.750			
0.7159	45814.55	3.6360	3.6360	0.3415	5.97	0.01	0.750			
0.7168	45876.92	3.6330	3.6330	0.3091	5.97	0.01	0.750			
0.7177	45933.98	3.6300	3.6300	0.2722	5.98	0.02	0.750			
0.7185	45982.51	3.6270	3.6269	0.2344	5.98	0.02	0.750			
0.7191	46024.91	3.6240	3.6240	0.1986	5.98	0.02	0.750			
0.7197	46060.88	3.6210	3.6211	0.1613	5.98	0.02	0.750			
0.7201	46087.85	3.6180	3.6185	0.1193	5.98	0.02	0.750			
0.7204	46106.73	3.6150	3.6159	0.0773	5.98	0.02	0.750			
0.7206	46118.12	3.6120	3.6137	0.0233	5.98	0.02	0.750			
