Ah_balance (normalized)	Ah_balance (mAh)	Voltage - fit (V)	Voltage -  interpolate (V)	dQ/dV (1/V)	Temperature (°C)	Temperature - diff (°C)	Current (C)	R_DC 0ms (mOhm)	R_DC 50ms (mOhm)	R_DC 50 ms PEC (mOhm)
0.0970	6209.52	4.0060	4.0057	-0.0833	6.00	0.03	-0.750			
0.0973	6228.29	4.0030	4.0027	-0.1123	6.00	0.03	-0.750			
0.0977	6253.25	4.0000	3.9999	-0.1400	6.00	0.03	-0.750			
0.0982	6283.19	3.9970	3.9970	-0.1654	5.99	0.02	-0.750			
0.0987	6317.17	3.9940	3.9940	-0.1927	5.99	0.02	-0.750			
0.0993	6356.78	3.9910	3.9912	-0.2171	5.99	0.02	-0.750			
0.1000	6402.00	3.9880	3.9880	-0.2400	5.99	0.02	-0.750			
0.1008	6450.16	3.9850	3.9848	-0.2632	5.99	0.02	-0.750			
0.1016	6503.04	3.9820	3.9821	-0.2862	5.98	0.01	-0.750			
0.1025	6560.31	3.9790	3.9790	-0.3112	5.98	0.01	-0.750			
0.1035	6622.48	3.9760	3.9759	-0.3332	5.98	0.01	-0.750			
0.1045	6688.50	3.9730	3.9730	-0.3578	5.97	0.00	-0.750			
0.1056	6759.93	3.9700	3.9701	-0.3797	5.97	0.00	-0.750			
0.1068	6834.75	3.9670	3.9669	-0.4036	5.97	-0.00	-0.750			
0.1080	6913.86	3.9640	3.9641	-0.4265	5.96	-0.01	-0.750			
0.1093	6998.28	3.9610	3.9610	-0.4488	5.96	-0.01	-0.750			
0.1107	7086.09	3.9580	3.9580	-0.4712	5.95	-0.02	-0.750			
0.1122	7179.54	3.9550	3.9551	-0.4968	5.95	-0.02	-0.750			
0.1137	7277.22	3.9520	3.9520	-0.5174	5.94	-0.03	-0.750			
0.1153	7379.79	3.9490	3.9489	-0.5393	5.94	-0.03	-0.750			
0.1169	7484.59	3.9460	3.9460	-0.5580	5.93	-0.04	-0.750			
0.1187	7594.33	3.9430	3.9431	-0.5754	5.93	-0.04	-0.750			
0.1204	7706.92	3.9400	3.9399	-0.5931	5.93	-0.04	-0.750			
0.1222	7823.27	3.9370	3.9370	-0.6056	5.93	-0.04	-0.750			
0.1241	7940.40	3.9340	3.9340	-0.6202	5.93	-0.04	-0.750			
0.1260	8062.15	3.9310	3.9310	-0.6300	5.93	-0.04	-0.750			
0.1279	8183.86	3.9280	3.9280	-0.6378	5.93	-0.04	-0.750			
0.1298	8305.82	3.9250	3.9250	-0.6477	5.93	-0.04	-0.750			
0.1317	8431.47	3.9220	3.9219	-0.6578	5.93	-0.04	-0.750			
0.1337	8558.18	3.9190	3.9190	-0.6680	5.93	-0.04	-0.750			
0.1357	8687.90	3.9160	3.9160	-0.6802	5.93	-0.04	-0.750			
0.1378	8819.92	3.9130	3.9131	-0.6869	5.94	-0.03	-0.750			
0.1399	8954.90	3.9100	3.9100	-0.6947	5.94	-0.03	-0.750			
0.1420	9088.19	3.9070	3.9070	-0.7016	5.94	-0.03	-0.750			
0.1441	9223.08	3.9040	3.9040	-0.7065	5.94	-0.03	-0.750			
0.1462	9358.67	3.9010	3.9010	-0.7136	5.94	-0.03	-0.750			
0.1484	9495.76	3.8980	3.8980	-0.7197	5.94	-0.03	-0.750			
0.1506	9635.69	3.8950	3.8950	-0.7254	5.95	-0.02	-0.750			
0.1528	9777.30	3.8920	3.8920	-0.7262	5.95	-0.02	-0.750			
0.1550	9917.26	3.8890	3.8889	-0.7298	5.95	-0.02	-0.750			
0.1571	10055.71	3.8860	3.8860	-0.7305	5.95	-0.02	-0.750			
0.1593	10195.56	3.8830	3.8829	-0.7335	5.96	-0.01	-0.750			
0.1615	10336.95	3.8800	3.8799	-0.7396	5.96	-0.01	-0.750			
0.1638	10480.03	3.8770	3.8770	-0.7382	5.96	-0.01	-0.750			
0.1660	10625.80	3.8740	3.8739	-0.7466	5.97	-0.00	-0.750			
0.1683	10769.20	3.8710	3.8713	-0.7451	5.97	-0.00	-0.750			
0.1705	10910.93	3.8680	3.8679	-0.7406	5.97	0.00	-0.750			
0.1727	11049.87	3.8650	3.8650	-0.7450	5.98	0.01	-0.750			
0.1749	11194.03	3.8620	3.8619	-0.7488	5.98	0.01	-0.750			
0.1772	11338.77	3.8590	3.8589	-0.7576	5.98	0.01	-0.750			
0.1794	11484.34	3.8560	3.8560	-0.7600	5.99	0.02	-0.750			
0.1818	11632.36	3.8530	3.8531	-0.7628	5.99	0.02	-0.750			
0.1840	11777.56	3.8500	3.8499	-0.7677	5.99	0.02	-0.750			
0.1863	11922.24	3.8470	3.8470	-0.7740	5.99	0.02	-0.750			
0.1886	12071.15	3.8440	3.8441	-0.7813	5.99	0.02	-0.750			
0.1910	12223.96	3.8410	3.8408	-0.7939	5.99	0.02	-0.750			
0.1934	12380.69	3.8380	3.8384	-0.7953	5.99	0.02	-0.750			
0.1959	12534.71	3.8350	3.8352	-0.7953	6.00	0.03	-0.750			
0.1983	12690.33	3.8320	3.8319	-0.7942	6.01	0.04	-0.750			
0.2006	12840.52	3.8290	3.8290	-0.7819	6.02	0.05	-0.750			
0.2029	12987.27	3.8260	3.8259	-0.7691	6.03	0.06	-0.750			
0.2052	13134.11	3.8230	3.8231	-0.7664	6.04	0.07	-0.750			
0.2075	13280.44	3.8200	3.8199	-0.7650	6.04	0.07	-0.750			
0.2098	13426.22	3.8170	3.8170	-0.7699	6.05	0.08	-0.750			
0.2121	13573.57	3.8140	3.8139	-0.7672	6.05	0.08	-0.750			
0.2144	13721.08	3.8110	3.8110	-0.7731	6.05	0.08	-0.750			
0.2168	13872.29	3.8080	3.8079	-0.7756	6.06	0.09	-0.750			
0.2191	14022.33	3.8050	3.8051	-0.7762	6.06	0.09	-0.750			
0.2214	14170.78	3.8020	3.8019	-0.7745	6.07	0.10	-0.750			
0.2237	14319.34	3.7990	3.7991	-0.7724	6.07	0.10	-0.750			
0.2260	14465.33	3.7960	3.7960	-0.7713	6.08	0.11	-0.750			
0.2284	14614.98	3.7930	3.7929	-0.7754	6.08	0.11	-0.750			
0.2307	14763.81	3.7900	3.7901	-0.7737	6.09	0.12	-0.750			
0.2330	14913.68	3.7870	3.7870	-0.7747	6.10	0.13	-0.750			
0.2354	15062.57	3.7840	3.7841	-0.7796	6.10	0.13	-0.750			
0.2377	15212.11	3.7810	3.7810	-0.7816	6.11	0.14	-0.750			
0.2400	15361.76	3.7780	3.7779	-0.7811	6.11	0.14	-0.750			
0.2424	15511.49	3.7750	3.7749	-0.7806	6.12	0.15	-0.750			
0.2447	15662.46	3.7720	3.7720	-0.7836	6.12	0.15	-0.750			
0.2471	15811.88	3.7690	3.7690	-0.7871	6.13	0.16	-0.750			
0.2494	15963.64	3.7660	3.7660	-0.7884	6.13	0.16	-0.750			
0.2518	16114.38	3.7630	3.7630	-0.7833	6.14	0.17	-0.750			
0.2542	16266.11	3.7600	3.7599	-0.7848	6.15	0.18	-0.750			
0.2565	16416.78	3.7570	3.7571	-0.7868	6.15	0.18	-0.750			
0.2589	16566.40	3.7540	3.7541	-0.7887	6.16	0.19	-0.750			
0.2612	16717.06	3.7510	3.7509	-0.7925	6.17	0.20	-0.750			
0.2636	16868.85	3.7480	3.7480	-0.7918	6.17	0.20	-0.750			
0.2660	17023.51	3.7450	3.7450	-0.7995	6.18	0.21	-0.750			
0.2684	17178.39	3.7420	3.7423	-0.8068	6.19	0.22	-0.750			
0.2708	17333.16	3.7390	3.7390	-0.8061	6.19	0.22	-0.750			
0.2732	17487.05	3.7360	3.7360	-0.8128	6.20	0.23	-0.750			
0.2757	17644.97	3.7330	3.7330	-0.8136	6.20	0.23	-0.750			
0.2781	17801.57	3.7300	3.7299	-0.8146	6.21	0.24	-0.750			
0.2806	17958.80	3.7270	3.7273	-0.8184	6.21	0.24	-0.750			
0.2831	18116.11	3.7240	3.7239	-0.8206	6.21	0.24	-0.750			
0.2855	18272.99	3.7210	3.7209	-0.8241	6.22	0.25	-0.750			
0.2880	18429.90	3.7180	3.7180	-0.8276	6.22	0.25	-0.750			
0.2905	18589.33	3.7150	3.7149	-0.8421	6.23	0.26	-0.750			
0.2930	18751.56	3.7120	3.7122	-0.8558	6.23	0.26	-0.750			
0.2956	18916.41	3.7090	3.7089	-0.8653	6.23	0.26	-0.750			
0.2982	19083.67	3.7060	3.7060	-0.8753	6.24	0.27	-0.750			
0.3009	19254.71	3.7030	3.7030	-0.8798	6.24	0.27	-0.750			
0.3035	19423.83	3.7000	3.7000	-0.8866	6.25	0.28	-0.750			
0.3062	19596.16	3.6970	3.6972	-0.8940	6.25	0.28	-0.750			
0.3089	19767.13	3.6940	3.6939	-0.9002	6.26	0.29	-0.750			
0.3116	19939.33	3.6910	3.6910	-0.9035	6.27	0.30	-0.750			
0.3143	20114.29	3.6880	3.6880	-0.9128	6.28	0.31	-0.750			
0.3170	20289.79	3.6850	3.6850	-0.9237	6.29	0.32	-0.750			
0.3198	20469.24	3.6820	3.6819	-0.9304	6.29	0.32	-0.750			
0.3226	20647.03	3.6790	3.6790	-0.9445	6.30	0.33	-0.750			
0.3255	20831.53	3.6760	3.6760	-0.9521	6.30	0.33	-0.750			
0.3284	21015.45	3.6730	3.6729	-0.9597	6.31	0.34	-0.750			
0.3313	21201.62	3.6700	3.6702	-0.9662	6.31	0.34	-0.750			
0.3342	21386.67	3.6670	3.6671	-0.9786	6.31	0.34	-0.750			
0.3371	21574.85	3.6640	3.6639	-0.9863	6.32	0.35	-0.750			
0.3401	21764.78	3.6610	3.6609	-0.9951	6.32	0.35	-0.750			
0.3431	21955.76	3.6580	3.6582	-1.0110	6.32	0.35	-0.750			
0.3461	22151.97	3.6550	3.6550	-1.0264	6.33	0.36	-0.750			
0.3492	22351.67	3.6520	3.6520	-1.0373	6.33	0.36	-0.750			
0.3524	22552.31	3.6490	3.6490	-1.0481	6.34	0.37	-0.750			
0.3555	22753.91	3.6460	3.6460	-1.0472	6.35	0.38	-0.750			
0.3587	22958.86	3.6430	3.6430	-1.0637	6.35	0.38	-0.750			
0.3619	23162.66	3.6400	3.6401	-1.0717	6.36	0.39	-0.750			
0.3651	23367.16	3.6370	3.6369	-1.0778	6.36	0.39	-0.750			
0.3683	23573.76	3.6340	3.6342	-1.0971	6.37	0.40	-0.750			
0.3717	23785.76	3.6310	3.6310	-1.1133	6.38	0.41	-0.750			
0.3750	24000.79	3.6280	3.6280	-1.1313	6.38	0.41	-0.750			
0.3785	24222.95	3.6250	3.6249	-1.1473	6.39	0.42	-0.750			
0.3819	24444.48	3.6220	3.6221	-1.1669	6.39	0.42	-0.750			
0.3855	24671.49	3.6190	3.6190	-1.1730	6.40	0.43	-0.750			
0.3890	24897.26	3.6160	3.6160	-1.1848	6.40	0.43	-0.750			
0.3925	25123.04	3.6130	3.6130	-1.1890	6.41	0.44	-0.750			
0.3962	25355.90	3.6100	3.6099	-1.2120	6.41	0.44	-0.750			
0.3998	25589.43	3.6070	3.6069	-1.2242	6.42	0.45	-0.750			
0.4035	25826.32	3.6040	3.6040	-1.2442	6.43	0.46	-0.750			
0.4073	26066.67	3.6010	3.6011	-1.2558	6.43	0.46	-0.750			
0.4114	26327.50	3.5980	3.5977	-1.2057	6.44	0.47	-0.750			
0.4149	26552.42	3.5950	3.5950	-1.1707	6.44	0.47	-0.750	0.463	1.089	
0.4182	26767.62	3.5920	3.5926	-1.1616	6.45	0.48	-0.750			
0.4216	26983.20	3.5890	3.5881	-1.1757	6.46	0.49	-0.750			
0.4249	27192.64	3.5860	3.5857	-1.1828	6.46	0.49	-0.750			
0.4284	27418.05	3.5830	3.5832	-1.2373	6.47	0.50	-0.750			
0.4324	27676.21	3.5800	3.5801	-1.2963	6.47	0.50	-0.750			
0.4366	27941.89	3.5770	3.5769	-1.3457	6.47	0.50	-0.750			
0.4405	28190.75	3.5740	3.5739	-1.3606	6.47	0.50	-0.750			
0.4447	28459.57	3.5710	3.5710	-1.3848	6.47	0.50	-0.750			
0.4489	28730.03	3.5680	3.5678	-1.4070	6.48	0.51	-0.750			
0.4531	29000.84	3.5650	3.5649	-1.4289	6.49	0.52	-0.750			
0.4574	29276.02	3.5620	3.5621	-1.4382	6.49	0.52	-0.750			
0.4619	29562.53	3.5590	3.5589	-1.4610	6.50	0.53	-0.750			
0.4663	29840.84	3.5560	3.5559	-1.4826	6.52	0.55	-0.750			
0.4707	30126.65	3.5530	3.5531	-1.4938	6.52	0.55	-0.750			
0.4753	30420.69	3.5500	3.5498	-1.5312	6.53	0.56	-0.750			
0.4800	30721.57	3.5470	3.5471	-1.5405	6.54	0.57	-0.750			
0.4847	31017.92	3.5440	3.5440	-1.5500	6.55	0.58	-0.750			
0.4894	31318.97	3.5410	3.5407	-1.5579	6.56	0.59	-0.750			
0.4940	31618.61	3.5380	3.5380	-1.5688	6.57	0.60	-0.750			
0.4987	31918.59	3.5350	3.5352	-1.5564	6.58	0.61	-0.750			
0.5034	32217.12	3.5320	3.5318	-1.5907	6.59	0.62	-0.750			
0.5083	32528.58	3.5290	3.5292	-1.6054	6.59	0.62	-0.750			
0.5132	32845.39	3.5260	3.5256	-1.6430	6.60	0.63	-0.750			
0.5182	33162.81	3.5230	3.5234	-1.6475	6.61	0.64	-0.750			
0.5231	33479.14	3.5200	3.5202	-1.6365	6.63	0.66	-0.750			
0.5282	33801.94	3.5170	3.5170	-1.6577	6.64	0.67	-0.750			
0.5330	34113.29	3.5140	3.5137	-1.6272	6.65	0.68	-0.750			
0.5380	34430.84	3.5110	3.5109	-1.6532	6.66	0.69	-0.750			
0.5429	34747.58	3.5080	3.5083	-1.6535	6.66	0.69	-0.750			
0.5478	35062.28	3.5050	3.5049	-1.6390	6.67	0.70	-0.750			
0.5528	35378.79	3.5020	3.5019	-1.6556	6.68	0.71	-0.750			
0.5577	35690.83	3.4990	3.4990	-1.6284	6.69	0.72	-0.750			
0.5627	36013.65	3.4960	3.4960	-1.6578	6.71	0.74	-0.750			
0.5676	36328.23	3.4930	3.4930	-1.6272	6.72	0.75	-0.750			
0.5725	36640.80	3.4900	3.4901	-1.6316	6.73	0.76	-0.750			
0.5774	36956.00	3.4870	3.4869	-1.6150	6.74	0.77	-0.750			
0.5823	37266.75	3.4840	3.4838	-1.6074	6.75	0.78	-0.750			
0.5871	37573.89	3.4810	3.4813	-1.6029	6.76	0.79	-0.750			
0.5919	37878.98	3.4780	3.4778	-1.5903	6.77	0.80	-0.750			
0.5966	38183.67	3.4750	3.4749	-1.5849	6.79	0.82	-0.750			
0.6014	38490.30	3.4720	3.4720	-1.5780	6.81	0.84	-0.750			
0.6062	38796.25	3.4690	3.4692	-1.5593	6.83	0.86	-0.750			
0.6108	39088.38	3.4660	3.4661	-1.5433	6.84	0.87	-0.750			
0.6154	39387.20	3.4630	3.4630	-1.5409	6.85	0.88	-0.750			
0.6200	39680.24	3.4600	3.4600	-1.5166	6.86	0.89	-0.750			
0.6246	39974.06	3.4570	3.4568	-1.5086	6.88	0.91	-0.750			
0.6291	40259.82	3.4540	3.4539	-1.4852	6.89	0.92	-0.750			
0.6336	40547.68	3.4510	3.4509	-1.4695	6.91	0.94	-0.750			
0.6380	40830.26	3.4480	3.4480	-1.4464	6.93	0.96	-0.750			
0.6422	41099.18	3.4450	3.4450	-1.4150	6.95	0.98	-0.750			
0.6464	41368.35	3.4420	3.4419	-1.3962	6.96	0.99	-0.750			
0.6506	41640.12	3.4390	3.4389	-1.3810	6.97	1.00	-0.750			
0.6547	41901.78	3.4360	3.4361	-1.3556	6.99	1.02	-0.750			
0.6588	42162.08	3.4330	3.4329	-1.3275	7.00	1.03	-0.750			
0.6628	42418.20	3.4300	3.4298	-1.3069	7.02	1.05	-0.750			
0.6667	42665.97	3.4270	3.4271	-1.2739	7.04	1.07	-0.750			
0.6704	42903.62	3.4240	3.4239	-1.2495	7.06	1.09	-0.750			
0.6742	43145.68	3.4210	3.4209	-1.2207	7.08	1.11	-0.750			
0.6778	43377.84	3.4180	3.4180	-1.1922	7.10	1.13	-0.750			
0.6813	43600.78	3.4150	3.4154	-1.1613	7.11	1.14	-0.750			
0.6848	43824.61	3.4120	3.4117	-1.1410	7.12	1.15	-0.750			
0.6881	44039.39	3.4090	3.4091	-1.1060	7.13	1.16	-0.750			
0.6914	44247.48	3.4060	3.4060	-1.0819	7.14	1.17	-0.750			
0.6946	44451.89	3.4030	3.4030	-1.0727	7.16	1.19	-0.750			
0.6978	44659.67	3.4000	3.4000	-1.0426	7.18	1.21	-0.750			
0.7009	44855.97	3.3970	3.3969	-1.0114	7.19	1.22	-0.750			
0.7039	45047.95	3.3940	3.3940	-0.9798	7.21	1.24	-0.750			
0.7068	45234.47	3.3910	3.3910	-0.9488	7.22	1.25	-0.750			
0.7096	45412.09	3.3880	3.3879	-0.9244	7.24	1.27	-0.750			
0.7123	45584.20	3.3850	3.3850	-0.8925	7.25	1.28	-0.750			
0.7148	45749.77	3.3820	3.3820	-0.8634	7.26	1.29	-0.750			
0.7175	45918.16	3.3790	3.3789	-0.8519	7.28	1.31	-0.750			
0.7200	46079.47	3.3760	3.3760	-0.8259	7.29	1.32	-0.750			
0.7224	46235.67	3.3730	3.3729	-0.8040	7.31	1.34	-0.750			
0.7248	46387.79	3.3700	3.3701	-0.7786	7.33	1.36	-0.750			
0.7271	46533.22	3.3670	3.3670	-0.7547	7.34	1.37	-0.750			
0.7293	46677.33	3.3640	3.3639	-0.7291	7.36	1.39	-0.750			
0.7315	46814.74	3.3610	3.3611	-0.7016	7.37	1.40	-0.750			
