Ah_balance (normalized)	Ah_balance (mAh)	Voltage - fit (V)	Voltage -  interpolate (V)	dQ/dV (1/V)	Temperature (°C)	Temperature - diff (°C)	Current (C)	R_DC 0ms (mOhm)	R_DC 50ms (mOhm)	R_DC 50 ms PEC (mOhm)
0.1764	11289.95	4.0820	4.0819	0.7315	7.51	1.51	0.750			
0.1787	11433.95	4.0790	4.0790	0.7559	7.51	1.51	0.750			
0.1810	11582.76	4.0760	4.0759	0.7630	7.50	1.50	0.750			
0.1833	11728.94	4.0730	4.0729	0.7621	7.49	1.49	0.750			
0.1856	11875.26	4.0700	4.0701	0.7698	7.49	1.49	0.750			
0.1879	12022.96	4.0670	4.0670	0.7729	7.48	1.48	0.750			
0.1902	12171.55	4.0640	4.0639	0.7758	7.48	1.48	0.750			
0.1925	12320.35	4.0610	4.0611	0.7794	7.47	1.47	0.750			
0.1948	12470.29	4.0580	4.0580	0.7826	7.47	1.47	0.750			
0.1972	12621.13	4.0550	4.0550	0.7872	7.46	1.46	0.750			
0.1996	12771.66	4.0520	4.0520	0.7889	7.46	1.46	0.750			
0.2019	12922.69	4.0490	4.0487	0.7929	7.45	1.45	0.750			
0.2043	13076.05	4.0460	4.0461	0.8009	7.45	1.45	0.750			
0.2067	13231.96	4.0430	4.0430	0.7970	7.44	1.44	0.750			
0.2091	13385.42	4.0400	4.0401	0.8037	7.44	1.44	0.750			
0.2115	13538.90	4.0370	4.0370	0.7978	7.43	1.43	0.750			
0.2140	13693.21	4.0340	4.0338	0.8040	7.43	1.43	0.750			
0.2164	13847.19	4.0310	4.0311	0.8027	7.42	1.42	0.750			
0.2188	14001.81	4.0280	4.0280	0.8009	7.42	1.42	0.750			
0.2212	14155.67	4.0250	4.0250	0.8129	7.41	1.41	0.750			
0.2236	14313.52	4.0220	4.0220	0.8211	7.40	1.40	0.750			
0.2261	14467.87	4.0190	4.0189	0.8228	7.39	1.39	0.750			
0.2286	14629.14	4.0160	4.0161	0.8294	7.39	1.39	0.750			
0.2311	14791.58	4.0130	4.0130	0.8234	7.38	1.38	0.750			
0.2336	14949.49	4.0100	4.0100	0.8330	7.38	1.38	0.750			
0.2361	15108.86	4.0070	4.0071	0.8361	7.38	1.38	0.750			
0.2386	15268.05	4.0040	4.0038	0.8363	7.37	1.37	0.750			
0.2411	15429.25	4.0010	4.0011	0.8405	7.37	1.37	0.750			
0.2436	15590.03	3.9980	3.9980	0.8441	7.36	1.36	0.750			
0.2462	15753.81	3.9950	3.9950	0.8515	7.35	1.35	0.750			
0.2487	15917.46	3.9920	3.9920	0.8514	7.35	1.35	0.750			
0.2513	16081.75	3.9890	3.9888	0.8575	7.34	1.34	0.750			
0.2539	16247.15	3.9860	3.9861	0.8640	7.34	1.34	0.750			
0.2565	16415.56	3.9830	3.9830	0.8648	7.33	1.33	0.750			
0.2591	16581.87	3.9800	3.9799	0.8703	7.32	1.32	0.750			
0.2617	16747.93	3.9770	3.9771	0.8782	7.32	1.32	0.750			
0.2643	16916.02	3.9740	3.9738	0.8800	7.31	1.31	0.750			
0.2670	17088.74	3.9710	3.9709	0.8770	7.30	1.30	0.750			
0.2696	17256.02	3.9680	3.9681	0.8830	7.29	1.29	0.750			
0.2723	17426.15	3.9650	3.9651	0.8854	7.28	1.28	0.750			
0.2749	17595.49	3.9620	3.9620	0.8941	7.28	1.28	0.750			
0.2776	17764.18	3.9590	3.9589	0.8950	7.27	1.27	0.750			
0.2803	17937.02	3.9560	3.9561	0.9020	7.26	1.26	0.750			
0.2830	18113.52	3.9530	3.9530	0.9141	7.25	1.25	0.750			
0.2858	18290.65	3.9500	3.9501	0.9208	7.24	1.24	0.750			
0.2885	18467.14	3.9470	3.9470	0.9241	7.23	1.23	0.750			
0.2914	18648.23	3.9440	3.9440	0.9272	7.23	1.23	0.750			
0.2941	18824.00	3.9410	3.9410	0.9336	7.22	1.22	0.750			
0.2969	19004.16	3.9380	3.9380	0.9402	7.22	1.22	0.750			
0.2998	19185.49	3.9350	3.9352	0.9464	7.21	1.21	0.750			
0.3026	19367.64	3.9320	3.9319	0.9496	7.21	1.21	0.750			
0.3055	19548.82	3.9290	3.9291	0.9512	7.20	1.20	0.750			
0.3083	19730.13	3.9260	3.9260	0.9567	7.19	1.19	0.750			
0.3112	19915.46	3.9230	3.9231	0.9650	7.18	1.18	0.750			
0.3141	20100.66	3.9200	3.9196	0.9690	7.17	1.17	0.750			
0.3170	20288.84	3.9170	3.9172	0.9814	7.16	1.16	0.750			
0.3200	20478.44	3.9140	3.9141	0.9915	7.15	1.15	0.750			
0.3230	20670.77	3.9110	3.9109	1.0036	7.14	1.14	0.750			
0.3260	20862.06	3.9080	3.9079	1.0065	7.13	1.13	0.750			
0.3290	21057.84	3.9050	3.9050	1.0163	7.12	1.12	0.750			
0.3321	21254.09	3.9020	3.9020	1.0297	7.11	1.11	0.750			
0.3352	21452.96	3.8990	3.8990	1.0412	7.10	1.10	0.750			
0.3383	21652.97	3.8960	3.8960	1.0556	7.09	1.09	0.750			
0.3415	21857.10	3.8930	3.8930	1.0599	7.08	1.08	0.750			
0.3447	22060.91	3.8900	3.8900	1.0722	7.08	1.08	0.750			
0.3479	22268.23	3.8870	3.8870	1.0843	7.07	1.07	0.750			
0.3512	22479.29	3.8840	3.8838	1.0951	7.06	1.06	0.750			
0.3545	22688.70	3.8810	3.8811	1.1056	7.05	1.05	0.750			
0.3578	22901.72	3.8780	3.8780	1.1176	7.05	1.05	0.750			
0.3612	23117.28	3.8750	3.8750	1.1316	7.04	1.04	0.750			
0.3646	23336.90	3.8720	3.8719	1.1365	7.03	1.03	0.750			
0.3680	23550.81	3.8690	3.8691	1.2051	7.02	1.02	0.750			
0.3717	23787.00	3.8660	3.8660	1.2439	7.01	1.01	0.750			
0.3755	24034.39	3.8630	3.8626	1.2791	6.99	0.99	0.750			
0.3795	24287.75	3.8600	3.8604	1.3021	6.98	0.98	0.750			
0.3836	24549.47	3.8570	3.8572	1.3221	6.97	0.97	0.750			
0.3876	24807.92	3.8540	3.8539	1.3078	6.96	0.96	0.750			
0.3915	25054.24	3.8510	3.8510	1.3015	6.94	0.94	0.750			
0.3952	25289.64	3.8480	3.8482	1.3087	6.93	0.93	0.750			
0.3991	25544.92	3.8450	3.8450	1.3398	6.91	0.91	0.750			
0.4032	25805.17	3.8420	3.8418	1.3711	6.90	0.90	0.750			
0.4074	26071.88	3.8390	3.8392	1.3869	6.88	0.88	0.750	0.408	0.899	
0.4117	26347.89	3.8360	3.8360	1.4143	6.87	0.87	0.750			
0.4160	26622.97	3.8330	3.8330	1.4382	6.85	0.85	0.750			
0.4202	26889.92	3.8300	3.8300	1.4401	6.83	0.83	0.750			
0.4245	27170.03	3.8270	3.8272	1.4730	6.81	0.81	0.750			
0.4290	27457.80	3.8240	3.8241	1.4981	6.79	0.79	0.750			
0.4335	27746.06	3.8210	3.8206	1.5557	6.77	0.77	0.750			
0.4383	28053.32	3.8180	3.8181	1.5684	6.75	0.75	0.750			
0.4431	28359.10	3.8150	3.8147	1.5900	6.74	0.74	0.750			
0.4480	28669.81	3.8120	3.8123	1.6274	6.72	0.72	0.750			
0.4528	28979.95	3.8090	3.8087	1.6285	6.71	0.71	0.750			
0.4578	29298.53	3.8060	3.8060	1.6599	6.69	0.69	0.750			
0.4627	29612.32	3.8030	3.8032	1.6828	6.68	0.68	0.750			
0.4680	29952.98	3.8000	3.7997	1.7156	6.65	0.65	0.750			
0.4731	30275.29	3.7970	3.7969	1.7373	6.63	0.63	0.750			
0.4783	30610.29	3.7940	3.7941	1.7618	6.61	0.61	0.750			
0.4837	30957.22	3.7910	3.7907	1.8149	6.59	0.59	0.750			
0.4891	31305.13	3.7880	3.7880	1.8398	6.57	0.57	0.750			
0.4948	31664.57	3.7850	3.7849	1.8497	6.54	0.54	0.750			
0.5004	32024.52	3.7820	3.7820	1.8714	6.52	0.52	0.750			
0.5060	32386.57	3.7790	3.7792	1.8741	6.50	0.50	0.750			
0.5116	32745.13	3.7760	3.7757	1.8973	6.48	0.48	0.750			
0.5173	33109.90	3.7730	3.7731	1.9104	6.46	0.46	0.750			
0.5231	33478.18	3.7700	3.7700	1.9285	6.43	0.43	0.750			
0.5289	33851.24	3.7670	3.7670	1.9608	6.41	0.41	0.750			
0.5349	34234.37	3.7640	3.7641	1.9736	6.39	0.39	0.750			
0.5408	34610.05	3.7610	3.7609	1.9828	6.37	0.37	0.750			
0.5468	34997.52	3.7580	3.7581	2.0149	6.35	0.35	0.750			
0.5529	35385.89	3.7550	3.7549	2.0493	6.32	0.32	0.750			
0.5591	35784.96	3.7520	3.7521	2.0890	6.29	0.29	0.750			
0.5655	36194.39	3.7490	3.7493	2.1280	6.26	0.26	0.750			
0.5718	36595.80	3.7460	3.7461	2.1822	6.24	0.24	0.750			
0.5784	37018.14	3.7430	3.7430	2.2244	6.22	0.22	0.750			
0.5853	37457.98	3.7400	3.7401	2.3152	6.20	0.20	0.750			
0.5924	37910.54	3.7370	3.7371	2.4239	6.18	0.18	0.750			
0.5998	38385.48	3.7340	3.7340	2.4473	6.16	0.16	0.750			
0.6073	38866.52	3.7310	3.7311	2.4657	6.13	0.13	0.750			
0.6147	39340.45	3.7280	3.7279	2.4682	6.11	0.11	0.750			
0.6221	39812.61	3.7250	3.7249	2.3795	6.08	0.08	0.750			
0.6292	40270.53	3.7220	3.7221	2.3270	6.06	0.06	0.750			
0.6361	40711.79	3.7190	3.7188	2.2128	6.05	0.05	0.750			
0.6424	41116.75	3.7160	3.7160	2.0494	6.03	0.03	0.750			
0.6487	41514.97	3.7130	3.7132	1.8812	6.02	0.02	0.750			
0.6539	41852.37	3.7100	3.7097	1.6542	6.01	0.01	0.750			
0.6584	42138.16	3.7070	3.7077	1.4588	6.00	-0.00	0.750			
0.6623	42384.07	3.7040	3.7038	1.3026	5.99	-0.01	0.750			
0.6658	42612.70	3.7010	3.7009	1.1789	5.99	-0.01	0.750			
0.6690	42817.53	3.6980	3.6980	1.0893	5.99	-0.01	0.750			
0.6721	43017.48	3.6950	3.6950	1.0345	5.98	-0.02	0.750			
0.6752	43210.78	3.6920	3.6921	0.9893	5.98	-0.02	0.750			
0.6780	43393.61	3.6890	3.6890	0.9448	5.98	-0.02	0.750			
0.6808	43569.59	3.6860	3.6860	0.9082	5.98	-0.02	0.750			
0.6834	43738.72	3.6830	3.6830	0.8810	5.97	-0.03	0.750			
0.6860	43907.13	3.6800	3.6799	0.8573	5.97	-0.03	0.750			
0.6886	44068.50	3.6770	3.6769	0.8250	5.97	-0.03	0.750			
0.6910	44225.07	3.6740	3.6740	0.7969	5.97	-0.03	0.750			
0.6934	44375.66	3.6710	3.6711	0.7653	5.97	-0.03	0.750			
0.6956	44520.50	3.6680	3.6680	0.7319	5.98	-0.02	0.750			
0.6978	44657.28	3.6650	3.6650	0.6954	5.98	-0.02	0.750			
0.6998	44786.62	3.6620	3.6620	0.6594	5.98	-0.02	0.750			
0.7017	44910.81	3.6590	3.6590	0.6292	5.98	-0.02	0.750			
0.7036	45027.90	3.6560	3.6560	0.5947	5.98	-0.02	0.750			
0.7053	45138.73	3.6530	3.6530	0.5618	5.99	-0.01	0.750			
0.7069	45244.00	3.6500	3.6499	0.5268	5.99	-0.01	0.750			
0.7085	45341.92	3.6470	3.6470	0.4930	5.99	-0.01	0.750			
0.7099	45434.08	3.6440	3.6440	0.4561	5.99	-0.01	0.750			
0.7112	45517.41	3.6410	3.6410	0.4248	6.00	-0.00	0.750			
0.7124	45594.95	3.6380	3.6380	0.3909	6.00	-0.00	0.750			
0.7136	45667.39	3.6350	3.6351	0.3579	6.00	-0.00	0.750			
0.7146	45733.42	3.6320	3.6319	0.3245	6.00	0.00	0.750			
0.7155	45793.21	3.6290	3.6290	0.2919	6.00	0.00	0.750			
0.7164	45847.48	3.6260	3.6260	0.2536	6.00	0.00	0.750			
0.7171	45893.43	3.6230	3.6228	0.2166	6.00	0.00	0.750			
0.7176	45929.13	3.6200	3.6201	0.1700	6.01	0.01	0.750			
0.7181	45959.62	3.6170	3.6174	0.1306	6.01	0.01	0.750			
0.7185	45980.90	3.6140	3.6144	0.0870	6.01	0.01	0.750			
0.7187	45995.26	3.6110	3.6109	0.0378	6.01	0.01	0.750			
0.7187	45997.77	3.6080	3.6097	-0.0117	6.01	0.01	0.750			
