Ah_balance (normalized)	Ah_balance (mAh)	Voltage - fit (V)	Voltage -  interpolate (V)	dQ/dV (1/V)	Temperature (°C)	Temperature - diff (°C)	Current (C)	R_DC 0ms (mOhm)	R_DC 50ms (mOhm)	R_DC 50 ms PEC (mOhm)
0.1762	11274.10	4.0820	4.0820	0.7636	7.19	1.20	0.750			
0.1785	11421.77	4.0790	4.0791	0.7741	7.18	1.19	0.750			
0.1808	11572.23	4.0760	4.0760	0.7814	7.18	1.19	0.750			
0.1832	11722.48	4.0730	4.0731	0.7858	7.17	1.18	0.750			
0.1855	11873.96	4.0700	4.0700	0.7839	7.17	1.18	0.750			
0.1879	12022.55	4.0670	4.0670	0.7922	7.16	1.17	0.750			
0.1902	12175.17	4.0640	4.0641	0.7944	7.16	1.17	0.750			
0.1926	12328.68	4.0610	4.0606	0.7955	7.15	1.16	0.750			
0.1950	12482.81	4.0580	4.0581	0.7974	7.15	1.16	0.750			
0.1974	12636.79	4.0550	4.0552	0.7964	7.15	1.16	0.750			
0.1998	12788.86	4.0520	4.0520	0.8010	7.14	1.15	0.750			
0.2022	12940.88	4.0490	4.0490	0.7944	7.14	1.15	0.750			
0.2046	13093.99	4.0460	4.0458	0.7995	7.14	1.15	0.750			
0.2070	13248.76	4.0430	4.0431	0.8077	7.13	1.14	0.750			
0.2095	13405.90	4.0400	4.0401	0.8041	7.13	1.14	0.750			
0.2119	13561.15	4.0370	4.0370	0.8116	7.12	1.13	0.750			
0.2143	13715.49	4.0340	4.0340	0.8097	7.12	1.13	0.750			
0.2167	13870.70	4.0310	4.0309	0.8168	7.11	1.12	0.750			
0.2192	14028.98	4.0280	4.0281	0.8209	7.11	1.12	0.750			
0.2217	14188.84	4.0250	4.0250	0.8130	7.10	1.11	0.750			
0.2241	14343.48	4.0220	4.0220	0.8267	7.10	1.11	0.750			
0.2266	14503.25	4.0190	4.0191	0.8331	7.10	1.11	0.750			
0.2291	14661.58	4.0160	4.0158	0.8345	7.09	1.10	0.750			
0.2316	14823.03	4.0130	4.0131	0.8383	7.09	1.10	0.750			
0.2341	14985.51	4.0100	4.0100	0.8372	7.08	1.09	0.750			
0.2367	15146.23	4.0070	4.0071	0.8478	7.07	1.08	0.750			
0.2392	15309.62	4.0040	4.0041	0.8422	7.07	1.08	0.750			
0.2417	15471.53	4.0010	4.0008	0.8473	7.06	1.07	0.750			
0.2443	15636.36	3.9980	3.9981	0.8542	7.06	1.07	0.750			
0.2469	15801.61	3.9950	3.9951	0.8531	7.05	1.06	0.750			
0.2495	15967.41	3.9920	3.9921	0.8587	7.05	1.06	0.750			
0.2520	16129.55	3.9890	3.9890	0.8547	7.04	1.05	0.750			
0.2546	16292.63	3.9860	3.9858	0.8584	7.04	1.05	0.750			
0.2572	16458.06	3.9830	3.9830	0.8670	7.04	1.05	0.750			
0.2597	16623.58	3.9800	3.9801	0.8660	7.04	1.05	0.750			
0.2624	16792.14	3.9770	3.9771	0.8764	7.03	1.04	0.750			
0.2650	16959.20	3.9740	3.9741	0.8878	7.03	1.04	0.750			
0.2677	17132.33	3.9710	3.9706	0.8918	7.03	1.04	0.750			
0.2704	17306.08	3.9680	3.9681	0.8877	7.02	1.03	0.750			
0.2731	17476.71	3.9650	3.9652	0.8929	7.01	1.02	0.750			
0.2758	17648.75	3.9620	3.9621	0.9008	7.00	1.01	0.750			
0.2785	17822.96	3.9590	3.9590	0.9096	6.99	1.00	0.750			
0.2811	17990.47	3.9560	3.9561	0.9010	6.99	1.00	0.750			
0.2838	18164.72	3.9530	3.9530	0.8954	6.98	0.99	0.750			
0.2865	18339.10	3.9500	3.9501	0.9142	6.97	0.98	0.750			
0.2893	18514.59	3.9470	3.9472	0.9170	6.97	0.98	0.750			
0.2920	18690.03	3.9440	3.9436	0.9156	6.96	0.97	0.750			
0.2948	18866.55	3.9410	3.9410	0.9140	6.95	0.96	0.750			
0.2975	19042.05	3.9380	3.9382	0.9314	6.95	0.96	0.750			
0.3004	19222.77	3.9350	3.9350	0.9422	6.94	0.95	0.750			
0.3032	19403.05	3.9320	3.9321	0.9461	6.93	0.94	0.750			
0.3060	19586.76	3.9290	3.9290	0.9503	6.93	0.94	0.750			
0.3089	19771.04	3.9260	3.9261	0.9664	6.92	0.93	0.750			
0.3118	19957.27	3.9230	3.9230	0.9790	6.92	0.93	0.750			
0.3148	20146.54	3.9200	3.9200	0.9891	6.91	0.92	0.750			
0.3177	20335.04	3.9170	3.9169	0.9955	6.91	0.92	0.750			
0.3208	20530.23	3.9140	3.9140	0.9985	6.90	0.91	0.750			
0.3238	20720.95	3.9110	3.9112	1.0062	6.89	0.90	0.750			
0.3268	20915.82	3.9080	3.9080	1.0166	6.88	0.89	0.750			
0.3298	21109.61	3.9050	3.9043	1.0231	6.87	0.88	0.750			
0.3329	21305.19	3.9020	3.9022	1.0224	6.86	0.87	0.750			
0.3360	21502.82	3.8990	3.8992	1.0335	6.85	0.86	0.750			
0.3391	21704.45	3.8960	3.8960	1.0484	6.84	0.85	0.750			
0.3423	21909.82	3.8930	3.8923	1.0631	6.83	0.84	0.750			
0.3454	22107.38	3.8900	3.8902	1.0581	6.83	0.84	0.750			
0.3486	22311.88	3.8870	3.8871	1.0779	6.82	0.83	0.750			
0.3519	22521.41	3.8840	3.8840	1.0954	6.81	0.82	0.750			
0.3553	22738.08	3.8810	3.8806	1.1025	6.81	0.82	0.750			
0.3585	22946.41	3.8780	3.8782	1.1163	6.80	0.81	0.750			
0.3619	23160.89	3.8750	3.8751	1.1338	6.79	0.80	0.750			
0.3653	23381.32	3.8720	3.8720	1.1514	6.78	0.79	0.750			
0.3688	23600.52	3.8690	3.8691	1.1587	6.77	0.78	0.750			
0.3723	23825.43	3.8660	3.8662	1.1842	6.76	0.77	0.750			
0.3759	24057.43	3.8630	3.8630	1.2029	6.75	0.76	0.750			
0.3796	24292.84	3.8600	3.8597	1.2120	6.74	0.75	0.750			
0.3832	24525.31	3.8570	3.8572	1.2208	6.73	0.74	0.750			
0.3869	24760.23	3.8540	3.8541	1.2384	6.72	0.73	0.750			
0.3907	25003.52	3.8510	3.8509	1.2449	6.71	0.72	0.750			
0.3943	25238.22	3.8480	3.8480	1.2561	6.70	0.71	0.750			
0.3981	25479.51	3.8450	3.8451	1.2791	6.69	0.70	0.750			
0.4021	25731.75	3.8420	3.8420	1.2801	6.68	0.69	0.750			
0.4058	25969.75	3.8390	3.8390	1.3281	6.67	0.68	0.750			
0.4097	26222.23	3.8360	3.8363	1.3807	6.65	0.66	0.750			
0.4139	26492.60	3.8330	3.8337	1.4155	6.63	0.64	0.750	0.388	0.899	
0.4183	26772.18	3.8300	3.8303	1.4724	6.61	0.62	0.750			
0.4229	27066.05	3.8270	3.8273	1.5064	6.60	0.61	0.750			
0.4279	27382.90	3.8240	3.8239	1.5773	6.58	0.59	0.750			
0.4321	27655.08	3.8210	3.8212	1.5274	6.57	0.58	0.750			
0.4366	27942.36	3.8180	3.8177	1.5303	6.56	0.57	0.750			
0.4412	28236.55	3.8150	3.8151	1.5781	6.55	0.56	0.750			
0.4460	28543.57	3.8120	3.8123	1.6040	6.54	0.55	0.750			
0.4510	28862.17	3.8090	3.8090	1.6495	6.52	0.53	0.750			
0.4559	29179.57	3.8060	3.8062	1.6654	6.51	0.52	0.750			
0.4608	29491.02	3.8030	3.8031	1.6907	6.49	0.50	0.750			
0.4660	29823.53	3.8000	3.8000	1.7224	6.47	0.48	0.750			
0.4712	30157.78	3.7970	3.7972	1.7762	6.46	0.47	0.750			
0.4768	30513.19	3.7940	3.7942	1.8086	6.44	0.45	0.750			
0.4824	30875.84	3.7910	3.7909	1.8633	6.42	0.43	0.750			
0.4879	31223.87	3.7880	3.7882	1.8459	6.39	0.40	0.750			
0.4933	31568.96	3.7850	3.7853	1.8887	6.37	0.38	0.750			
0.4990	31938.72	3.7820	3.7822	1.9375	6.35	0.36	0.750			
0.5049	32314.38	3.7790	3.7789	1.9718	6.34	0.35	0.750			
0.5110	32706.64	3.7760	3.7758	2.0575	6.32	0.33	0.750			
0.5173	33107.70	3.7730	3.7728	2.0309	6.29	0.30	0.750			
0.5232	33486.98	3.7700	3.7698	2.0526	6.27	0.28	0.750			
0.5293	33876.74	3.7670	3.7668	2.0277	6.25	0.26	0.750			
0.5355	34269.68	3.7640	3.7643	2.0494	6.23	0.24	0.750			
0.5415	34654.64	3.7610	3.7610	2.0521	6.21	0.22	0.750			
0.5479	35067.32	3.7580	3.7577	2.0967	6.19	0.20	0.750			
0.5544	35482.54	3.7550	3.7553	2.1442	6.17	0.18	0.750			
0.5607	35886.31	3.7520	3.7520	2.1544	6.16	0.17	0.750			
0.5672	36301.85	3.7490	3.7487	2.2149	6.15	0.16	0.750			
0.5741	36739.60	3.7460	3.7466	2.2928	6.13	0.14	0.750			
0.5812	37198.68	3.7430	3.7431	2.3203	6.11	0.12	0.750			
0.5882	37642.79	3.7400	3.7400	2.3166	6.08	0.09	0.750			
0.5953	38099.95	3.7370	3.7367	2.3648	6.07	0.08	0.750			
0.6025	38560.02	3.7340	3.7344	2.5170	6.05	0.06	0.750			
0.6101	39048.02	3.7310	3.7308	2.6209	6.03	0.04	0.750			
0.6180	39553.17	3.7280	3.7284	2.6634	6.01	0.02	0.750			
0.6264	40088.58	3.7250	3.7251	2.7049	6.00	0.01	0.750			
0.6343	40596.52	3.7220	3.7220	2.5949	5.98	-0.01	0.750			
0.6421	41095.65	3.7190	3.7190	2.5528	5.97	-0.02	0.750			
0.6497	41582.47	3.7160	3.7159	2.4763	5.96	-0.03	0.750			
0.6570	42050.80	3.7130	3.7130	2.2964	5.95	-0.04	0.750			
0.6640	42493.77	3.7100	3.7102	2.1369	5.95	-0.04	0.750			
0.6699	42875.62	3.7070	3.7070	1.8999	5.95	-0.04	0.750			
0.6751	43207.19	3.7040	3.7044	1.6804	5.94	-0.05	0.750			
0.6799	43513.25	3.7010	3.7006	1.4885	5.93	-0.06	0.750			
0.6841	43784.55	3.6980	3.6980	1.3458	5.94	-0.05	0.750			
0.6878	44020.36	3.6950	3.6952	1.2084	5.94	-0.05	0.750			
0.6911	44229.84	3.6920	3.6919	1.0988	5.95	-0.04	0.750			
0.6942	44426.91	3.6890	3.6889	1.0130	5.95	-0.04	0.750			
0.6970	44606.25	3.6860	3.6861	0.9470	5.95	-0.04	0.750			
0.6997	44779.82	3.6830	3.6829	0.9103	5.95	-0.04	0.750			
0.7024	44955.52	3.6800	3.6800	0.8839	5.95	-0.04	0.750			
0.7050	45119.88	3.6770	3.6767	0.8395	5.95	-0.04	0.750			
0.7075	45277.16	3.6740	3.6741	0.8044	5.95	-0.04	0.750			
0.7099	45433.80	3.6710	3.6710	0.7633	5.95	-0.04	0.750			
0.7121	45575.19	3.6680	3.6679	0.7241	5.96	-0.03	0.750			
0.7142	45707.50	3.6650	3.6651	0.6807	5.96	-0.03	0.750			
0.7162	45834.59	3.6620	3.6622	0.6432	5.96	-0.03	0.750			
0.7180	45954.96	3.6590	3.6590	0.6062	5.96	-0.03	0.750			
0.7198	46068.64	3.6560	3.6561	0.5660	5.97	-0.02	0.750			
0.7215	46173.37	3.6530	3.6531	0.5246	5.97	-0.02	0.750			
0.7230	46271.33	3.6500	3.6500	0.4846	5.97	-0.02	0.750			
0.7244	46359.80	3.6470	3.6469	0.4372	5.98	-0.01	0.750			
0.7256	46438.98	3.6440	3.6440	0.3967	5.98	-0.01	0.750			
0.7267	46511.78	3.6410	3.6411	0.3592	5.98	-0.01	0.750			
0.7278	46576.49	3.6380	3.6379	0.3219	5.99	-0.00	0.750			
0.7287	46634.30	3.6350	3.6350	0.2864	5.99	-0.00	0.750			
0.7295	46686.07	3.6320	3.6319	0.2481	5.99	-0.00	0.750			
0.7302	46730.16	3.6290	3.6290	0.2115	5.99	0.00	0.750			
0.7308	46768.98	3.6260	3.6259	0.1775	5.99	0.00	0.750			
0.7312	46799.20	3.6230	3.6233	0.1384	5.99	0.00	0.750			
0.7316	46823.76	3.6200	3.6202	0.0988	5.99	0.00	0.750			
0.7319	46838.61	3.6170	3.6176	0.0560	5.99	0.00	0.750			
0.7320	46845.43	3.6140	3.6154	0.0072	6.00	0.01	0.750			
