Ah_balance (normalized)	Ah_balance (mAh)	Voltage - fit (V)	Voltage -  interpolate (V)	dQ/dV (1/V)	Temperature (°C)	Temperature - diff (°C)	Current (C)	R_DC 0ms (mOhm)	R_DC 50ms (mOhm)	R_DC 50 ms PEC (mOhm)
0.1754	11228.25	4.0830	4.0827	0.7686	7.59	1.60	0.750			
0.1777	11375.13	4.0800	4.0801	0.7673	7.58	1.59	0.750			
0.1801	11523.98	4.0770	4.0770	0.7718	7.58	1.59	0.750			
0.1824	11671.60	4.0740	4.0740	0.7744	7.57	1.58	0.750			
0.1847	11821.59	4.0710	4.0710	0.7779	7.56	1.57	0.750			
0.1870	11970.34	4.0680	4.0680	0.7807	7.55	1.56	0.750			
0.1894	12120.18	4.0650	4.0650	0.7854	7.55	1.56	0.750			
0.1918	12272.99	4.0620	4.0620	0.7852	7.54	1.55	0.750			
0.1941	12423.03	4.0590	4.0590	0.7850	7.53	1.54	0.750			
0.1965	12574.52	4.0560	4.0560	0.7915	7.52	1.53	0.750			
0.1988	12725.65	4.0530	4.0531	0.7924	7.52	1.53	0.750			
0.2012	12877.41	4.0500	4.0498	0.7964	7.51	1.52	0.750			
0.2036	13030.32	4.0470	4.0471	0.7988	7.50	1.51	0.750			
0.2060	13184.94	4.0440	4.0440	0.7975	7.49	1.50	0.750			
0.2084	13338.32	4.0410	4.0411	0.8030	7.49	1.50	0.750			
0.2108	13491.69	4.0380	4.0381	0.8049	7.48	1.49	0.750			
0.2132	13646.07	4.0350	4.0347	0.8094	7.47	1.48	0.750			
0.2157	13801.91	4.0320	4.0320	0.8139	7.47	1.48	0.750			
0.2181	13959.55	4.0290	4.0291	0.8151	7.46	1.47	0.750			
0.2206	14117.93	4.0260	4.0260	0.8217	7.46	1.47	0.750			
0.2230	14274.57	4.0230	4.0231	0.8194	7.45	1.46	0.750			
0.2255	14432.97	4.0200	4.0200	0.8237	7.45	1.46	0.750			
0.2280	14590.28	4.0170	4.0170	0.8253	7.44	1.45	0.750			
0.2305	14749.36	4.0140	4.0141	0.8306	7.44	1.45	0.750			
0.2330	14909.98	4.0110	4.0110	0.8362	7.43	1.44	0.750			
0.2355	15071.57	4.0080	4.0080	0.8401	7.42	1.43	0.750			
0.2380	15232.52	4.0050	4.0050	0.8416	7.41	1.42	0.750			
0.2405	15393.93	4.0020	4.0021	0.8464	7.40	1.41	0.750			
0.2431	15557.09	3.9990	3.9990	0.8462	7.39	1.40	0.750			
0.2456	15718.79	3.9960	3.9960	0.8500	7.39	1.40	0.750			
0.2481	15881.22	3.9930	3.9930	0.8563	7.38	1.39	0.750			
0.2507	16045.53	3.9900	3.9897	0.8651	7.37	1.38	0.750			
0.2533	16214.06	3.9870	3.9870	0.8685	7.36	1.37	0.750			
0.2560	16381.92	3.9840	3.9840	0.8722	7.35	1.36	0.750			
0.2586	16551.57	3.9810	3.9810	0.8770	7.35	1.36	0.750			
0.2613	16720.17	3.9780	3.9781	0.8730	7.34	1.35	0.750			
0.2639	16886.78	3.9750	3.9751	0.8792	7.33	1.34	0.750			
0.2665	17056.21	3.9720	3.9720	0.8816	7.32	1.33	0.750			
0.2691	17225.02	3.9690	3.9689	0.8839	7.31	1.32	0.750			
0.2718	17395.75	3.9660	3.9661	0.8927	7.30	1.31	0.750			
0.2745	17567.69	3.9630	3.9630	0.9010	7.29	1.30	0.750			
0.2772	17741.79	3.9600	3.9599	0.9045	7.29	1.30	0.750			
0.2800	17917.42	3.9570	3.9570	0.9016	7.28	1.29	0.750			
0.2826	18088.26	3.9540	3.9542	0.9041	7.27	1.28	0.750			
0.2853	18262.22	3.9510	3.9511	0.9211	7.26	1.27	0.750			
0.2881	18438.55	3.9480	3.9477	0.9329	7.25	1.26	0.750			
0.2910	18620.96	3.9450	3.9450	0.9230	7.24	1.25	0.750			
0.2937	18798.03	3.9420	3.9421	0.9338	7.23	1.24	0.750			
0.2966	18981.50	3.9390	3.9392	0.9487	7.22	1.23	0.750			
0.2994	19164.18	3.9360	3.9360	0.9519	7.21	1.22	0.750			
0.3023	19345.04	3.9330	3.9332	0.9421	7.20	1.21	0.750			
0.3051	19523.92	3.9300	3.9301	0.9518	7.19	1.20	0.750			
0.3079	19706.94	3.9270	3.9271	0.9636	7.18	1.19	0.750			
0.3108	19894.31	3.9240	3.9241	0.9790	7.16	1.17	0.750			
0.3138	20081.43	3.9210	3.9209	0.9854	7.15	1.16	0.750			
0.3168	20272.54	3.9180	3.9181	0.9901	7.14	1.15	0.750			
0.3198	20464.63	3.9150	3.9150	1.0010	7.13	1.14	0.750			
0.3228	20658.12	3.9120	3.9121	1.0117	7.12	1.13	0.750			
0.3258	20852.18	3.9090	3.9086	1.0122	7.11	1.12	0.750			
0.3289	21048.49	3.9060	3.9060	1.0147	7.11	1.12	0.750			
0.3319	21242.19	3.9030	3.9031	1.0235	7.10	1.11	0.750			
0.3350	21438.46	3.9000	3.9001	1.0340	7.10	1.11	0.750			
0.3381	21639.07	3.8970	3.8967	1.0473	7.09	1.10	0.750			
0.3412	21838.11	3.8940	3.8940	1.0560	7.08	1.09	0.750			
0.3444	22042.06	3.8910	3.8911	1.0734	7.07	1.08	0.750			
0.3477	22252.04	3.8880	3.8881	1.0935	7.06	1.07	0.750			
0.3510	22465.55	3.8850	3.8848	1.0975	7.05	1.06	0.750			
0.3543	22676.17	3.8820	3.8821	1.1114	7.04	1.05	0.750			
0.3577	22889.98	3.8790	3.8790	1.1232	7.02	1.03	0.750			
0.3610	23105.79	3.8760	3.8761	1.1412	7.01	1.02	0.750			
0.3645	23328.20	3.8730	3.8730	1.1417	7.00	1.01	0.750			
0.3679	23547.11	3.8700	3.8701	1.1626	6.98	0.99	0.750			
0.3714	23770.55	3.8670	3.8671	1.1862	6.97	0.98	0.750			
0.3751	24003.67	3.8640	3.8638	1.1953	6.95	0.96	0.750			
0.3786	24232.48	3.8610	3.8611	1.2114	6.94	0.95	0.750			
0.3823	24467.23	3.8580	3.8581	1.2324	6.93	0.94	0.750			
0.3861	24707.69	3.8550	3.8551	1.2427	6.92	0.93	0.750			
0.3898	24948.85	3.8520	3.8519	1.2560	6.90	0.91	0.750			
0.3935	25187.06	3.8490	3.8492	1.2887	6.88	0.89	0.750			
0.3974	25435.86	3.8460	3.8461	1.3152	6.87	0.88	0.750			
0.4015	25693.03	3.8430	3.8428	1.3558	6.85	0.86	0.750			
0.4056	25955.23	3.8400	3.8399	1.3876	6.83	0.84	0.750	0.399	0.900	
0.4099	26230.43	3.8370	3.8372	1.4156	6.82	0.83	0.750			
0.4142	26508.91	3.8340	3.8340	1.4342	6.81	0.82	0.750			
0.4185	26785.13	3.8310	3.8310	1.4531	6.79	0.80	0.750			
0.4228	27057.69	3.8280	3.8281	1.4762	6.78	0.79	0.750			
0.4273	27346.22	3.8250	3.8251	1.5101	6.76	0.77	0.750			
0.4318	27637.10	3.8220	3.8220	1.5305	6.74	0.75	0.750			
0.4365	27935.28	3.8190	3.8189	1.5552	6.72	0.73	0.750			
0.4413	28241.25	3.8160	3.8162	1.5849	6.70	0.71	0.750			
0.4461	28548.89	3.8130	3.8130	1.6176	6.69	0.70	0.750			
0.4509	28860.42	3.8100	3.8098	1.6280	6.67	0.68	0.750			
0.4558	29173.38	3.8070	3.8070	1.6522	6.65	0.66	0.750			
0.4609	29496.64	3.8040	3.8041	1.6782	6.62	0.63	0.750			
0.4659	29820.50	3.8010	3.8009	1.7071	6.60	0.61	0.750			
0.4710	30147.18	3.7980	3.7982	1.7335	6.59	0.60	0.750			
0.4762	30478.75	3.7950	3.7950	1.7797	6.57	0.58	0.750			
0.4817	30826.51	3.7920	3.7920	1.8213	6.54	0.55	0.750			
0.4873	31188.01	3.7890	3.7889	1.8487	6.51	0.52	0.750			
0.4929	31543.23	3.7860	3.7860	1.8603	6.50	0.51	0.750			
0.4985	31901.49	3.7830	3.7831	1.8863	6.48	0.49	0.750			
0.5041	32262.61	3.7800	3.7798	1.8914	6.46	0.47	0.750			
0.5098	32627.50	3.7770	3.7771	1.9013	6.44	0.45	0.750			
0.5156	32996.62	3.7740	3.7739	1.9259	6.42	0.43	0.750			
0.5212	33356.61	3.7710	3.7710	1.9638	6.40	0.41	0.750			
0.5273	33744.76	3.7680	3.7680	1.9740	6.39	0.40	0.750			
0.5334	34135.23	3.7650	3.7648	2.0003	6.37	0.38	0.750			
0.5394	34523.78	3.7620	3.7623	1.9882	6.35	0.36	0.750			
0.5453	34899.77	3.7590	3.7592	2.0017	6.33	0.34	0.750			
0.5513	35280.90	3.7560	3.7562	2.0364	6.31	0.32	0.750			
0.5575	35680.69	3.7530	3.7532	2.1008	6.28	0.29	0.750			
0.5639	36091.17	3.7500	3.7501	2.1335	6.25	0.26	0.750			
0.5704	36506.05	3.7470	3.7470	2.1795	6.23	0.24	0.750			
0.5770	36926.40	3.7440	3.7439	2.2310	6.22	0.23	0.750			
0.5837	37359.17	3.7410	3.7410	2.3316	6.19	0.20	0.750			
0.5910	37823.08	3.7380	3.7378	2.3895	6.16	0.17	0.750			
0.5982	38283.59	3.7350	3.7352	2.4390	6.15	0.16	0.750			
0.6056	38756.30	3.7320	3.7319	2.4904	6.12	0.13	0.750			
0.6130	39234.88	3.7290	3.7291	2.4915	6.10	0.11	0.750			
0.6207	39725.70	3.7260	3.7260	2.4652	6.08	0.09	0.750			
0.6282	40204.22	3.7230	3.7230	2.3777	6.06	0.07	0.750			
0.6352	40655.18	3.7200	3.7199	2.2786	6.05	0.06	0.750			
0.6419	41083.96	3.7170	3.7167	2.1151	6.04	0.05	0.750			
0.6480	41472.79	3.7140	3.7145	1.9181	6.03	0.04	0.750			
0.6534	41815.46	3.7110	3.7110	1.7090	6.03	0.04	0.750			
0.6581	42119.58	3.7080	3.7080	1.5366	6.02	0.03	0.750			
0.6623	42388.61	3.7050	3.7050	1.3706	6.01	0.02	0.750			
0.6662	42637.02	3.7020	3.7019	1.2540	6.01	0.02	0.750			
0.6696	42855.22	3.6990	3.6991	1.1474	6.00	0.01	0.750			
0.6728	43061.93	3.6960	3.6961	1.0629	5.99	0.00	0.750			
0.6759	43256.63	3.6930	3.6928	1.0125	5.99	-0.00	0.750			
0.6788	43441.38	3.6900	3.6900	0.9557	5.99	-0.00	0.750			
0.6815	43618.16	3.6870	3.6870	0.9246	5.99	-0.00	0.750			
0.6842	43791.98	3.6840	3.6840	0.8981	5.98	-0.01	0.750			
0.6869	43962.51	3.6810	3.6810	0.8663	5.98	-0.01	0.750			
0.6895	44126.05	3.6780	3.6780	0.8394	5.98	-0.01	0.750			
0.6920	44287.09	3.6750	3.6751	0.8123	5.98	-0.01	0.750			
0.6944	44439.16	3.6720	3.6720	0.7784	5.98	-0.01	0.750			
0.6967	44586.66	3.6690	3.6690	0.7509	5.97	-0.02	0.750			
0.6988	44726.07	3.6660	3.6660	0.7128	5.97	-0.02	0.750			
0.7009	44860.25	3.6630	3.6630	0.6808	5.97	-0.02	0.750			
0.7029	44988.22	3.6600	3.6601	0.6497	5.97	-0.02	0.750			
0.7048	45109.51	3.6570	3.6570	0.6146	5.98	-0.01	0.750			
0.7066	45224.84	3.6540	3.6540	0.5816	5.98	-0.01	0.750			
0.7083	45332.95	3.6510	3.6509	0.5462	5.98	-0.01	0.750			
0.7099	45433.76	3.6480	3.6481	0.5104	5.98	-0.01	0.750			
0.7114	45529.09	3.6450	3.6450	0.4794	5.99	-0.00	0.750			
0.7128	45617.57	3.6420	3.6420	0.4462	5.99	-0.00	0.750			
0.7141	45700.08	3.6390	3.6389	0.4117	5.99	0.00	0.750			
0.7153	45776.05	3.6360	3.6360	0.3777	5.99	0.00	0.750			
0.7163	45845.42	3.6330	3.6330	0.3428	5.99	0.00	0.750			
0.7173	45908.76	3.6300	3.6300	0.3059	6.00	0.01	0.750			
0.7182	45964.12	3.6270	3.6269	0.2670	6.00	0.01	0.750			
0.7189	46011.48	3.6240	3.6240	0.2269	6.00	0.01	0.750			
0.7196	46051.65	3.6210	3.6212	0.1882	6.00	0.01	0.750			
0.7201	46084.69	3.6180	3.6178	0.1492	6.00	0.01	0.750			
0.7205	46109.12	3.6150	3.6151	0.1079	6.00	0.01	0.750			
0.7207	46124.74	3.6120	3.6126	0.0680	6.00	0.01	0.750			
0.7208	46132.96	3.6090	3.6108	0.0327	6.00	0.01	0.750			
0.7209	46135.79	3.6060	3.6092	-0.0032	6.00	0.01	0.750			
