Ah_balance (normalized)	Ah_balance (mAh)	Voltage - fit (V)	Voltage -  interpolate (V)	dQ/dV (1/V)	Temperature (°C)	Temperature - diff (°C)	Current (C)	R_DC 0ms (mOhm)	R_DC 50ms (mOhm)	R_DC 50 ms PEC (mOhm)
0.1807	11562.06	4.0800	4.0800	0.7623	7.40	1.43	0.750			
0.1830	11709.84	4.0770	4.0770	0.7682	7.40	1.43	0.750			
0.1853	11857.21	4.0740	4.0740	0.7682	7.39	1.42	0.750			
0.1876	12004.31	4.0710	4.0711	0.7694	7.39	1.42	0.750			
0.1899	12151.44	4.0680	4.0681	0.7744	7.38	1.41	0.750			
0.1922	12300.92	4.0650	4.0650	0.7694	7.38	1.41	0.750			
0.1945	12447.51	4.0620	4.0620	0.7755	7.37	1.40	0.750			
0.1968	12595.51	4.0590	4.0592	0.7803	7.37	1.40	0.750			
0.1992	12747.13	4.0560	4.0557	0.7861	7.36	1.39	0.750			
0.2015	12899.16	4.0530	4.0530	0.7895	7.35	1.38	0.750			
0.2039	13051.53	4.0500	4.0500	0.7905	7.35	1.38	0.750			
0.2063	13204.00	4.0470	4.0471	0.7931	7.34	1.37	0.750			
0.2087	13356.38	4.0440	4.0440	0.7923	7.34	1.37	0.750			
0.2111	13507.46	4.0410	4.0409	0.7931	7.33	1.36	0.750			
0.2134	13659.20	4.0380	4.0381	0.7960	7.33	1.36	0.750			
0.2158	13813.76	4.0350	4.0349	0.7963	7.32	1.35	0.750			
0.2182	13967.32	4.0320	4.0320	0.8035	7.32	1.35	0.750			
0.2206	14121.46	4.0290	4.0290	0.8087	7.32	1.35	0.750			
0.2231	14276.04	4.0260	4.0260	0.8134	7.31	1.34	0.750			
0.2255	14433.25	4.0230	4.0230	0.8186	7.31	1.34	0.750			
0.2280	14593.07	4.0200	4.0200	0.8143	7.30	1.33	0.750			
0.2304	14748.63	4.0170	4.0170	0.8244	7.29	1.32	0.750			
0.2329	14908.14	4.0140	4.0140	0.8310	7.28	1.31	0.750			
0.2354	15066.10	4.0110	4.0110	0.8317	7.27	1.30	0.750			
0.2379	15226.30	4.0080	4.0082	0.8353	7.27	1.30	0.750			
0.2404	15387.06	4.0050	4.0051	0.8392	7.26	1.29	0.750			
0.2430	15549.86	4.0020	4.0020	0.8462	7.25	1.28	0.750			
0.2455	15713.92	3.9990	3.9989	0.8522	7.24	1.27	0.750			
0.2480	15874.76	3.9960	3.9960	0.8516	7.23	1.26	0.750			
0.2506	16040.21	3.9930	3.9930	0.8580	7.23	1.26	0.750			
0.2533	16208.17	3.9900	3.9899	0.8497	7.22	1.25	0.750			
0.2558	16369.95	3.9870	3.9871	0.8577	7.22	1.25	0.750			
0.2583	16533.26	3.9840	3.9841	0.8606	7.22	1.25	0.750			
0.2609	16698.78	3.9810	3.9808	0.8662	7.21	1.24	0.750			
0.2635	16864.84	3.9780	3.9781	0.8700	7.20	1.23	0.750			
0.2661	17030.96	3.9750	3.9751	0.8716	7.20	1.23	0.750			
0.2687	17199.30	3.9720	3.9721	0.8812	7.19	1.22	0.750			
0.2714	17370.61	3.9690	3.9690	0.8794	7.18	1.21	0.750			
0.2740	17539.16	3.9660	3.9656	0.8867	7.17	1.20	0.750			
0.2767	17711.98	3.9630	3.9631	0.8869	7.16	1.19	0.750			
0.2794	17882.44	3.9600	3.9599	0.8936	7.15	1.18	0.750			
0.2821	18055.38	3.9570	3.9570	0.8993	7.14	1.17	0.750			
0.2848	18228.44	3.9540	3.9541	0.9035	7.14	1.17	0.750			
0.2875	18399.69	3.9510	3.9510	0.9045	7.13	1.16	0.750			
0.2902	18574.30	3.9480	3.9480	0.9107	7.12	1.15	0.750			
0.2929	18748.20	3.9450	3.9450	0.9142	7.12	1.15	0.750			
0.2957	18924.07	3.9420	3.9420	0.9273	7.12	1.15	0.750			
0.2985	19101.97	3.9390	3.9389	0.9341	7.11	1.14	0.750			
0.3014	19286.49	3.9360	3.9360	0.9337	7.10	1.13	0.750			
0.3041	19465.33	3.9330	3.9330	0.9430	7.09	1.12	0.750			
0.3070	19647.43	3.9300	3.9302	0.9491	7.08	1.11	0.750			
0.3098	19829.72	3.9270	3.9271	0.9546	7.08	1.11	0.750			
0.3127	20012.60	3.9240	3.9241	0.9563	7.07	1.10	0.750			
0.3155	20194.73	3.9210	3.9211	0.9657	7.06	1.09	0.750			
0.3184	20380.78	3.9180	3.9180	0.9774	7.05	1.08	0.750			
0.3214	20570.87	3.9150	3.9150	0.9887	7.05	1.08	0.750			
0.3244	20761.05	3.9120	3.9122	0.9953	7.04	1.07	0.750			
0.3274	20954.48	3.9090	3.9091	1.0062	7.03	1.06	0.750			
0.3304	21148.40	3.9060	3.9060	1.0164	7.01	1.04	0.750			
0.3335	21344.68	3.9030	3.9030	1.0272	7.00	1.03	0.750			
0.3366	21539.61	3.9000	3.9001	1.0336	6.99	1.02	0.750			
0.3397	21741.02	3.8970	3.8969	1.0392	6.98	1.01	0.750			
0.3428	21941.19	3.8940	3.8941	1.0530	6.98	1.01	0.750			
0.3460	22143.24	3.8910	3.8911	1.0666	6.97	1.00	0.750			
0.3492	22350.46	3.8880	3.8878	1.0813	6.97	1.00	0.750			
0.3525	22557.86	3.8850	3.8850	1.0996	6.96	0.99	0.750			
0.3558	22770.84	3.8820	3.8820	1.1119	6.95	0.98	0.750			
0.3592	22988.76	3.8790	3.8791	1.1227	6.94	0.97	0.750			
0.3626	23206.62	3.8760	3.8760	1.1258	6.92	0.95	0.750			
0.3660	23422.88	3.8730	3.8731	1.1360	6.91	0.94	0.750			
0.3694	23639.49	3.8700	3.8700	1.1444	6.89	0.92	0.750			
0.3728	23860.64	3.8670	3.8669	1.1562	6.88	0.91	0.750			
0.3763	24082.78	3.8640	3.8641	1.1672	6.86	0.89	0.750			
0.3798	24309.47	3.8610	3.8609	1.1912	6.85	0.88	0.750			
0.3834	24538.41	3.8580	3.8581	1.2137	6.84	0.87	0.750			
0.3872	24780.33	3.8550	3.8549	1.2087	6.83	0.86	0.750			
0.3908	25013.18	3.8520	3.8520	1.2051	6.81	0.84	0.750			
0.3943	25238.39	3.8490	3.8492	1.2127	6.79	0.82	0.750			
0.3980	25471.83	3.8460	3.8463	1.2173	6.77	0.80	0.750			
0.4015	25696.33	3.8430	3.8428	1.2534	6.76	0.79	0.750			
0.4053	25939.33	3.8400	3.8394	1.2884	6.75	0.78	0.750	0.373	0.857	
0.4092	26191.08	3.8370	3.8373	1.3328	6.74	0.77	0.750			
0.4134	26458.60	3.8340	3.8341	1.3944	6.72	0.75	0.750			
0.4178	26737.65	3.8310	3.8310	1.4340	6.71	0.74	0.750			
0.4221	27016.00	3.8280	3.8284	1.4194	6.70	0.73	0.750			
0.4266	27303.65	3.8250	3.8250	1.4304	6.68	0.71	0.750			
0.4307	27566.26	3.8220	3.8222	1.4590	6.66	0.69	0.750			
0.4351	27849.06	3.8190	3.8190	1.4899	6.64	0.67	0.750			
0.4396	28131.26	3.8160	3.8155	1.5290	6.62	0.65	0.750			
0.4443	28437.63	3.8130	3.8132	1.5311	6.60	0.63	0.750			
0.4490	28733.44	3.8100	3.8100	1.5617	6.59	0.62	0.750			
0.4537	29035.87	3.8070	3.8073	1.6044	6.57	0.60	0.750			
0.4583	29329.31	3.8040	3.8040	1.6533	6.55	0.58	0.750			
0.4634	29658.99	3.8010	3.8010	1.5725	6.53	0.56	0.750			
0.4682	29964.77	3.7980	3.7982	1.6224	6.51	0.54	0.750			
0.4729	30264.76	3.7950	3.7971	1.5951	6.49	0.52	0.750			
0.4774	30556.50	3.7920	3.7919	1.6378	6.48	0.51	0.750			
0.4821	30851.43	3.7890	3.7891	1.6810	6.46	0.49	0.750			
0.4878	31217.95	3.7860	3.7857	1.8324	6.45	0.48	0.750			
0.4931	31557.13	3.7830	3.7825	1.8108	6.43	0.46	0.750			
0.4987	31916.76	3.7800	3.7801	1.7931	6.41	0.44	0.750			
0.5043	32274.92	3.7770	3.7773	1.8184	6.39	0.42	0.750			
0.5097	32622.30	3.7740	3.7742	1.8636	6.38	0.41	0.750			
0.5154	32984.60	3.7710	3.7710	1.8582	6.36	0.39	0.750			
0.5209	33336.81	3.7680	3.7683	1.8773	6.34	0.37	0.750			
0.5266	33702.01	3.7650	3.7645	1.8724	6.32	0.35	0.750			
0.5321	34056.86	3.7620	3.7620	1.8929	6.30	0.33	0.750			
0.5379	34424.32	3.7590	3.7598	1.9338	6.28	0.31	0.750			
0.5436	34789.58	3.7560	3.7557	1.9438	6.26	0.29	0.750			
0.5495	35166.15	3.7530	3.7527	2.0119	6.24	0.27	0.750			
0.5559	35576.22	3.7500	3.7495	2.0222	6.22	0.25	0.750			
0.5619	35958.65	3.7470	3.7469	2.0199	6.20	0.23	0.750			
0.5681	36358.85	3.7440	3.7437	2.0568	6.17	0.20	0.750			
0.5745	36767.90	3.7410	3.7410	2.1116	6.15	0.18	0.750			
0.5813	37203.13	3.7380	3.7374	2.2777	6.14	0.17	0.750			
0.5880	37630.39	3.7350	3.7349	2.2415	6.13	0.16	0.750			
0.5949	38071.66	3.7320	3.7321	2.3799	6.10	0.13	0.750			
0.6022	38543.72	3.7290	3.7294	2.3490	6.08	0.11	0.750			
0.6096	39012.37	3.7260	3.7260	2.3926	6.06	0.09	0.750			
0.6167	39470.75	3.7230	3.7233	2.3326	6.05	0.08	0.750			
0.6239	39927.69	3.7200	3.7196	2.2835	6.03	0.06	0.750			
0.6306	40356.29	3.7170	3.7168	2.1926	6.02	0.05	0.750			
0.6371	40777.29	3.7140	3.7138	2.0456	6.01	0.04	0.750			
0.6433	41170.20	3.7110	3.7109	1.8477	5.99	0.02	0.750			
0.6486	41513.59	3.7080	3.7078	1.6940	5.98	0.01	0.750			
0.6534	41819.55	3.7050	3.7054	1.5168	5.98	0.01	0.750			
0.6577	42091.14	3.7020	3.7010	1.3566	5.97	0.00	0.750			
0.6615	42333.17	3.6990	3.6982	1.2447	5.97	-0.00	0.750			
0.6650	42557.04	3.6960	3.6962	1.1269	5.96	-0.01	0.750			
0.6682	42766.31	3.6930	3.6933	1.0603	5.96	-0.01	0.750			
0.6712	42959.20	3.6900	3.6901	1.0025	5.95	-0.02	0.750			
0.6742	43150.40	3.6870	3.6864	0.9731	5.95	-0.02	0.750			
0.6770	43324.85	3.6840	3.6843	0.9166	5.95	-0.02	0.750			
0.6797	43497.85	3.6810	3.6810	0.8886	5.95	-0.02	0.750			
0.6822	43662.60	3.6780	3.6780	0.8612	5.95	-0.02	0.750			
0.6849	43832.18	3.6750	3.6750	0.8465	5.95	-0.02	0.750			
0.6873	43987.38	3.6720	3.6721	0.8042	5.95	-0.02	0.750			
0.6897	44137.75	3.6690	3.6690	0.7697	5.96	-0.01	0.750			
0.6920	44287.79	3.6660	3.6661	0.7273	5.96	-0.01	0.750			
0.6941	44422.22	3.6630	3.6629	0.6979	5.96	-0.01	0.750			
0.6961	44548.81	3.6600	3.6601	0.6663	5.97	-0.00	0.750			
0.6980	44673.74	3.6570	3.6570	0.6353	5.97	-0.00	0.750			
0.6999	44792.38	3.6540	3.6543	0.6080	5.97	0.00	0.750			
0.7017	44907.97	3.6510	3.6512	0.5822	5.97	0.00	0.750			
0.7034	45018.90	3.6480	3.6481	0.5542	5.97	0.00	0.750			
0.7051	45123.98	3.6450	3.6450	0.5236	5.97	0.00	0.750			
0.7066	45220.24	3.6420	3.6419	0.4822	5.97	0.00	0.750			
0.7080	45309.59	3.6390	3.6392	0.4495	5.97	0.00	0.750			
0.7093	45393.95	3.6360	3.6358	0.4183	5.97	0.00	0.750			
0.7104	45468.80	3.6330	3.6330	0.3833	5.97	0.00	0.750			
0.7115	45538.60	3.6300	3.6300	0.3511	5.97	0.00	0.750			
0.7125	45602.79	3.6270	3.6271	0.3159	5.97	0.00	0.750			
0.7135	45664.11	3.6240	3.6238	0.2802	5.97	0.00	0.750			
0.7143	45715.06	3.6210	3.6214	0.2446	5.97	0.00	0.750			
0.7150	45758.75	3.6180	3.6178	0.2045	5.97	0.00	0.750			
0.7156	45795.78	3.6150	3.6151	0.1651	5.97	0.00	0.750			
0.7160	45823.02	3.6120	3.6121	0.1204	5.97	0.00	0.750			
0.7162	45837.09	3.6090	3.6094	0.0751	5.97	0.00	0.750			
0.7164	45846.82	3.6000	3.5969	-0.0414	5.97	0.00	0.750			
0.7164	45847.79	3.6060	3.5985	0.0363	5.97	0.00	0.750			
0.7164	45851.03	3.6030	3.4262	-0.0025	5.97	0.00	0.741			
