Ah_balance (normalized)	Ah_balance (mAh)	Voltage - fit (V)	Voltage -  interpolate (V)	dQ/dV (1/V)	Temperature (°C)	Temperature - diff (°C)	Current (C)	R_DC 0ms (mOhm)	R_DC 50ms (mOhm)	R_DC 50 ms PEC (mOhm)
0.1808	11569.22	4.0800	4.0800	0.7411	7.62	1.65	0.750			
0.1831	11718.42	4.0770	4.0768	0.7806	7.61	1.64	0.750			
0.1854	11867.83	4.0740	4.0741	0.7849	7.61	1.64	0.750			
0.1878	12021.81	4.0710	4.0710	0.7839	7.60	1.63	0.750			
0.1902	12172.53	4.0680	4.0680	0.7870	7.60	1.63	0.750			
0.1926	12323.73	4.0650	4.0649	0.7900	7.60	1.63	0.750			
0.1949	12473.31	4.0620	4.0621	0.7877	7.59	1.62	0.750			
0.1972	12617.80	4.0590	4.0591	0.8066	7.59	1.62	0.750			
0.1996	12774.51	4.0560	4.0561	0.8297	7.58	1.61	0.750			
0.2021	12934.56	4.0530	4.0529	0.8526	7.57	1.60	0.750			
0.2048	13107.64	4.0500	4.0496	0.8668	7.56	1.59	0.750			
0.2075	13280.49	4.0470	4.0474	0.8751	7.55	1.58	0.750			
0.2102	13452.15	4.0440	4.0442	0.8703	7.55	1.58	0.750			
0.2129	13624.00	4.0410	4.0409	0.8539	7.54	1.57	0.750			
0.2153	13781.64	4.0380	4.0379	0.8313	7.53	1.56	0.750			
0.2177	13931.89	4.0350	4.0351	0.8223	7.52	1.55	0.750			
0.2201	14087.20	4.0320	4.0321	0.8186	7.51	1.54	0.750			
0.2226	14244.88	4.0290	4.0290	0.8218	7.51	1.54	0.750			
0.2251	14403.94	4.0260	4.0260	0.8234	7.50	1.53	0.750			
0.2275	14562.65	4.0230	4.0231	0.8282	7.49	1.52	0.750			
0.2301	14724.36	4.0200	4.0200	0.8358	7.48	1.51	0.750			
0.2325	14881.86	4.0170	4.0170	0.8308	7.47	1.50	0.750			
0.2350	15040.97	4.0140	4.0140	0.8337	7.47	1.50	0.750			
0.2376	15203.87	4.0110	4.0110	0.8319	7.46	1.49	0.750			
0.2400	15362.18	4.0080	4.0080	0.8395	7.46	1.49	0.750			
0.2426	15523.85	4.0050	4.0050	0.8486	7.45	1.48	0.750			
0.2451	15686.21	4.0020	4.0021	0.8509	7.44	1.47	0.750			
0.2477	15851.62	3.9990	3.9991	0.8524	7.43	1.46	0.750			
0.2503	16017.55	3.9960	3.9961	0.8493	7.42	1.45	0.750			
0.2528	16179.96	3.9930	3.9931	0.8568	7.41	1.44	0.750			
0.2554	16345.06	3.9900	3.9900	0.8618	7.40	1.43	0.750			
0.2579	16507.71	3.9870	3.9869	0.8596	7.39	1.42	0.750			
0.2605	16673.87	3.9840	3.9841	0.8654	7.39	1.42	0.750			
0.2632	16842.00	3.9810	3.9810	0.8716	7.38	1.41	0.750			
0.2658	17010.70	3.9780	3.9781	0.8767	7.37	1.40	0.750			
0.2684	17178.52	3.9750	3.9749	0.8738	7.37	1.40	0.750			
0.2710	17346.55	3.9720	3.9718	0.8796	7.36	1.39	0.750			
0.2737	17515.68	3.9690	3.9690	0.8835	7.35	1.38	0.750			
0.2763	17685.20	3.9660	3.9660	0.8926	7.34	1.37	0.750			
0.2791	17860.19	3.9630	3.9630	0.8995	7.33	1.36	0.750			
0.2818	18033.12	3.9600	3.9601	0.9035	7.32	1.35	0.750			
0.2845	18206.89	3.9570	3.9569	0.9070	7.31	1.34	0.750			
0.2872	18383.05	3.9540	3.9540	0.9038	7.30	1.33	0.750			
0.2899	18554.77	3.9510	3.9510	0.9082	7.29	1.32	0.750			
0.2926	18728.08	3.9480	3.9481	0.9155	7.28	1.31	0.750			
0.2954	18903.64	3.9450	3.9450	0.9216	7.27	1.30	0.750			
0.2982	19083.42	3.9420	3.9420	0.9267	7.26	1.29	0.750			
0.3010	19260.89	3.9390	3.9391	0.9364	7.26	1.29	0.750			
0.3038	19442.64	3.9360	3.9361	0.9442	7.25	1.28	0.750			
0.3067	19626.45	3.9330	3.9330	0.9553	7.24	1.27	0.750			
0.3095	19808.87	3.9300	3.9299	0.9552	7.23	1.26	0.750			
0.3124	19992.62	3.9270	3.9271	0.9594	7.22	1.25	0.750			
0.3153	20177.16	3.9240	3.9241	0.9685	7.21	1.24	0.750			
0.3182	20363.70	3.9210	3.9210	0.9781	7.20	1.23	0.750			
0.3211	20551.64	3.9180	3.9178	0.9813	7.19	1.22	0.750			
0.3241	20740.08	3.9150	3.9151	0.9965	7.18	1.21	0.750			
0.3270	20930.10	3.9120	3.9121	0.9956	7.17	1.20	0.750			
0.3301	21123.56	3.9090	3.9091	1.0087	7.16	1.19	0.750			
0.3331	21316.50	3.9060	3.9058	1.0126	7.14	1.17	0.750			
0.3362	21513.85	3.9030	3.9031	1.0188	7.13	1.16	0.750			
0.3392	21710.02	3.9000	3.9001	1.0307	7.12	1.15	0.750			
0.3423	21908.69	3.8970	3.8971	1.0462	7.11	1.14	0.750			
0.3455	22113.30	3.8940	3.8939	1.0650	7.09	1.12	0.750			
0.3487	22313.64	3.8910	3.8910	1.0618	7.08	1.11	0.750			
0.3518	22516.22	3.8880	3.8881	1.0830	7.07	1.10	0.750			
0.3551	22726.53	3.8850	3.8851	1.1038	7.06	1.09	0.750			
0.3585	22945.39	3.8820	3.8817	1.1139	7.05	1.08	0.750			
0.3619	23158.68	3.8790	3.8790	1.1255	7.04	1.07	0.750			
0.3652	23374.74	3.8760	3.8762	1.1408	7.02	1.05	0.750			
0.3687	23596.53	3.8730	3.8731	1.1567	7.01	1.04	0.750			
0.3722	23818.05	3.8700	3.8700	1.1628	7.00	1.03	0.750			
0.3757	24042.55	3.8670	3.8671	1.1760	6.98	1.01	0.750			
0.3792	24269.87	3.8640	3.8640	1.1970	6.97	1.00	0.750			
0.3829	24503.48	3.8610	3.8609	1.2118	6.95	0.98	0.750			
0.3865	24735.91	3.8580	3.8580	1.2226	6.94	0.97	0.750			
0.3902	24971.13	3.8550	3.8550	1.2426	6.92	0.95	0.750			
0.3939	25211.05	3.8520	3.8521	1.2704	6.90	0.93	0.750			
0.3978	25457.64	3.8490	3.8490	1.2802	6.89	0.92	0.750			
0.4016	25704.34	3.8460	3.8460	1.3122	6.87	0.90	0.750			
0.4056	25955.84	3.8430	3.8432	1.3436	6.86	0.89	0.750			
0.4096	26217.40	3.8400	3.8401	1.3827	6.85	0.88	0.750			
0.4139	26487.11	3.8370	3.8352	1.4134	6.83	0.86	0.749	0.405	0.945	
0.4182	26766.00	3.8340	3.8340	1.4326	6.81	0.84	0.750			
0.4226	27045.89	3.8310	3.8310	1.4513	6.80	0.83	0.750			
0.4269	27324.50	3.8280	3.8281	1.4768	6.78	0.81	0.750			
0.4314	27609.92	3.8250	3.8251	1.4857	6.76	0.79	0.750			
0.4359	27897.77	3.8220	3.8220	1.5117	6.74	0.77	0.750			
0.4404	28185.87	3.8190	3.8192	1.5564	6.72	0.75	0.750			
0.4452	28491.48	3.8160	3.8159	1.5793	6.70	0.73	0.750			
0.4500	28797.15	3.8130	3.8128	1.6236	6.68	0.71	0.750			
0.4549	29110.56	3.8100	3.8102	1.6454	6.66	0.69	0.750			
0.4599	29432.70	3.8070	3.8068	1.7056	6.65	0.68	0.750			
0.4652	29771.77	3.8040	3.8041	1.6838	6.62	0.65	0.750			
0.4702	30090.53	3.8010	3.8010	1.6753	6.60	0.63	0.750			
0.4751	30409.03	3.7980	3.7981	1.7027	6.58	0.61	0.750			
0.4801	30724.71	3.7950	3.7949	1.7148	6.56	0.59	0.750			
0.4853	31056.46	3.7920	3.7922	1.8065	6.54	0.57	0.750			
0.4908	31409.61	3.7890	3.7893	1.9141	6.52	0.55	0.750			
0.4967	31786.45	3.7860	3.7859	1.9368	6.49	0.52	0.750			
0.5026	32167.74	3.7830	3.7830	1.9786	6.46	0.49	0.750			
0.5087	32553.60	3.7800	3.7798	1.9779	6.43	0.46	0.750			
0.5144	32921.16	3.7770	3.7770	1.9420	6.40	0.43	0.750			
0.5202	33290.87	3.7740	3.7741	1.9616	6.38	0.41	0.750			
0.5261	33673.51	3.7710	3.7712	2.0152	6.35	0.38	0.750			
0.5323	34069.26	3.7680	3.7681	2.0378	6.33	0.36	0.750			
0.5386	34472.90	3.7650	3.7651	2.0859	6.30	0.33	0.750			
0.5450	34877.92	3.7620	3.7620	2.1247	6.28	0.31	0.750			
0.5514	35287.31	3.7590	3.7589	2.1959	6.25	0.28	0.750			
0.5579	35706.05	3.7560	3.7559	2.1634	6.22	0.25	0.750			
0.5645	36130.12	3.7530	3.7532	2.2495	6.20	0.23	0.750			
0.5712	36555.38	3.7500	3.7500	2.2322	6.17	0.20	0.750			
0.5780	36988.98	3.7470	3.7467	2.3133	6.15	0.18	0.750			
0.5851	37448.97	3.7440	3.7438	2.3759	6.13	0.16	0.750			
0.5922	37899.23	3.7410	3.7410	2.3905	6.10	0.13	0.750			
0.5997	38381.99	3.7380	3.7379	2.4670	6.08	0.11	0.750			
0.6070	38847.52	3.7350	3.7348	2.4867	6.06	0.09	0.750			
0.6145	39329.60	3.7320	3.7318	2.5062	6.03	0.06	0.750			
0.6220	39810.82	3.7290	3.7294	2.5638	6.01	0.04	0.750			
0.6299	40313.72	3.7260	3.7259	2.7568	5.99	0.02	0.750			
0.6387	40875.13	3.7230	3.7231	2.7825	5.97	-0.00	0.750			
0.6470	41406.48	3.7200	3.7199	2.6482	5.95	-0.02	0.750			
0.6541	41863.85	3.7170	3.7167	2.3590	5.93	-0.04	0.750			
0.6609	42299.96	3.7140	3.7141	2.1751	5.92	-0.05	0.750			
0.6672	42698.65	3.7110	3.7113	1.9895	5.91	-0.06	0.750			
0.6730	43074.87	3.7080	3.7081	1.7909	5.91	-0.06	0.750			
0.6780	43394.60	3.7050	3.7052	1.6117	5.91	-0.06	0.750			
0.6825	43680.84	3.7020	3.7019	1.4259	5.91	-0.06	0.750			
0.6863	43924.39	3.6990	3.6989	1.2456	5.91	-0.06	0.750			
0.6897	44143.75	3.6960	3.6960	1.1212	5.91	-0.06	0.750			
0.6928	44338.16	3.6930	3.6931	1.0297	5.92	-0.05	0.750			
0.6957	44523.46	3.6900	3.6899	0.9577	5.92	-0.05	0.750			
0.6984	44697.47	3.6870	3.6870	0.9105	5.92	-0.05	0.750			
0.7010	44863.14	3.6840	3.6839	0.8620	5.92	-0.05	0.750			
0.7035	45025.32	3.6810	3.6810	0.8328	5.93	-0.04	0.750			
0.7060	45185.16	3.6780	3.6780	0.8009	5.93	-0.04	0.750			
0.7084	45335.96	3.6750	3.6748	0.7611	5.93	-0.04	0.750			
0.7106	45478.29	3.6720	3.6721	0.7190	5.94	-0.03	0.750			
0.7127	45612.33	3.6690	3.6690	0.6786	5.94	-0.03	0.750			
0.7147	45738.18	3.6660	3.6660	0.6367	5.95	-0.02	0.750			
0.7165	45856.83	3.6630	3.6629	0.5959	5.95	-0.02	0.750			
0.7182	45965.09	3.6600	3.6601	0.5539	5.96	-0.01	0.750			
0.7198	46068.51	3.6570	3.6570	0.5173	5.97	-0.00	0.750			
0.7213	46163.59	3.6540	3.6538	0.4806	5.97	-0.00	0.750			
0.7227	46251.95	3.6510	3.6510	0.4434	5.97	0.00	0.750			
0.7240	46333.39	3.6480	3.6481	0.4078	5.98	0.01	0.750			
0.7251	46408.98	3.6450	3.6450	0.3726	5.98	0.01	0.750			
0.7262	46476.88	3.6420	3.6421	0.3358	5.99	0.02	0.750			
0.7272	46537.97	3.6390	3.6390	0.3016	5.99	0.02	0.750			
0.7280	46592.40	3.6360	3.6361	0.2664	5.99	0.02	0.750			
0.7288	46640.56	3.6330	3.6328	0.2286	5.99	0.02	0.750			
0.7294	46681.41	3.6300	3.6299	0.1933	6.00	0.03	0.750			
0.7299	46715.03	3.6270	3.6271	0.1559	6.00	0.03	0.750			
0.7303	46741.45	3.6240	3.6243	0.1182	6.00	0.03	0.750			
0.7307	46762.30	3.6210	3.6213	0.0793	6.00	0.03	0.750			
0.7308	46774.29	3.6180	3.6175	0.0359	6.00	0.03	0.750			
0.7309	46776.98	3.6150	3.6143	-0.0078	6.00	0.03	0.750			
