Ah_balance (normalized)	Ah_balance (mAh)	Voltage - fit (V)	Voltage -  interpolate (V)	dQ/dV (1/V)	Temperature (°C)	Temperature - diff (°C)	Current (C)	R_DC 0ms (mOhm)	R_DC 50ms (mOhm)	R_DC 50 ms PEC (mOhm)
0.0936	5991.39	4.0020	4.0014	-0.0782	5.99	0.00	-0.750			
0.0939	6009.40	3.9990	3.9987	-0.1069	5.99	0.00	-0.750			
0.0943	6032.57	3.9960	3.9959	-0.1344	5.99	0.00	-0.750			
0.0947	6061.50	3.9930	3.9930	-0.1599	5.99	-0.00	-0.750			
0.0952	6094.76	3.9900	3.9899	-0.1848	5.99	-0.00	-0.750			
0.0958	6132.86	3.9870	3.9871	-0.2098	5.99	-0.00	-0.750			
0.0965	6176.47	3.9840	3.9840	-0.2339	5.99	-0.00	-0.750			
0.0972	6223.53	3.9810	3.9810	-0.2562	5.99	-0.00	-0.750			
0.0980	6274.81	3.9780	3.9781	-0.2801	5.98	-0.01	-0.750			
0.0989	6330.70	3.9750	3.9750	-0.3036	5.98	-0.01	-0.750			
0.0999	6391.32	3.9720	3.9719	-0.3278	5.98	-0.01	-0.750			
0.1009	6456.37	3.9690	3.9690	-0.3522	5.98	-0.01	-0.750			
0.1020	6526.12	3.9660	3.9661	-0.3769	5.98	-0.01	-0.750			
0.1032	6601.67	3.9630	3.9630	-0.4018	5.98	-0.01	-0.750			
0.1044	6681.57	3.9600	3.9600	-0.4237	5.97	-0.02	-0.750			
0.1057	6765.21	3.9570	3.9570	-0.4450	5.97	-0.02	-0.750			
0.1071	6852.83	3.9540	3.9541	-0.4658	5.97	-0.02	-0.750			
0.1085	6944.31	3.9510	3.9510	-0.4867	5.97	-0.02	-0.750			
0.1100	7039.59	3.9480	3.9480	-0.5057	5.97	-0.02	-0.750			
0.1115	7138.40	3.9450	3.9450	-0.5243	5.97	-0.02	-0.750			
0.1131	7241.58	3.9420	3.9420	-0.5446	5.97	-0.02	-0.750			
0.1148	7348.19	3.9390	3.9390	-0.5612	5.97	-0.02	-0.750			
0.1165	7457.94	3.9360	3.9360	-0.5764	5.97	-0.02	-0.750			
0.1183	7569.84	3.9330	3.9330	-0.5923	5.97	-0.02	-0.750			
0.1201	7684.94	3.9300	3.9300	-0.6055	5.97	-0.02	-0.750			
0.1219	7803.37	3.9270	3.9269	-0.6178	5.97	-0.02	-0.750			
0.1238	7923.37	3.9240	3.9240	-0.6287	5.97	-0.02	-0.750			
0.1257	8045.52	3.9210	3.9210	-0.6383	5.97	-0.02	-0.750			
0.1276	8169.17	3.9180	3.9180	-0.6483	5.97	-0.02	-0.750			
0.1296	8294.36	3.9150	3.9149	-0.6561	5.97	-0.02	-0.750			
0.1316	8420.46	3.9120	3.9121	-0.6633	5.97	-0.02	-0.750			
0.1336	8549.83	3.9090	3.9089	-0.6687	5.97	-0.02	-0.750			
0.1356	8679.58	3.9060	3.9060	-0.6752	5.98	-0.01	-0.750			
0.1376	8808.01	3.9030	3.9031	-0.6854	5.98	-0.01	-0.750			
0.1397	8940.19	3.9000	3.9000	-0.6903	5.98	-0.01	-0.750			
0.1418	9075.00	3.8970	3.8968	-0.6916	5.99	-0.00	-0.750			
0.1439	9208.03	3.8940	3.8939	-0.6969	5.99	-0.00	-0.750			
0.1460	9342.29	3.8910	3.8912	-0.7010	5.99	0.00	-0.750			
0.1481	9477.62	3.8880	3.8879	-0.7045	6.00	0.01	-0.750			
0.1502	9612.31	3.8850	3.8849	-0.7061	6.00	0.01	-0.750			
0.1523	9747.45	3.8820	3.8820	-0.7085	6.00	0.01	-0.750			
0.1545	9886.24	3.8790	3.8790	-0.7156	6.01	0.02	-0.750			
0.1566	10024.16	3.8760	3.8761	-0.7170	6.01	0.02	-0.750			
0.1588	10160.84	3.8730	3.8730	-0.7161	6.02	0.03	-0.750			
0.1609	10298.68	3.8700	3.8700	-0.7190	6.02	0.03	-0.750			
0.1631	10436.67	3.8670	3.8669	-0.7214	6.03	0.04	-0.750			
0.1652	10575.74	3.8640	3.8640	-0.7202	6.04	0.05	-0.750			
0.1674	10714.90	3.8610	3.8610	-0.7228	6.04	0.05	-0.750			
0.1696	10854.20	3.8580	3.8582	-0.7200	6.05	0.06	-0.750			
0.1718	10992.14	3.8550	3.8549	-0.7191	6.05	0.06	-0.750			
0.1739	11129.05	3.8520	3.8520	-0.7211	6.06	0.07	-0.750			
0.1760	11266.79	3.8490	3.8490	-0.7205	6.06	0.07	-0.750			
0.1782	11405.84	3.8460	3.8459	-0.7251	6.06	0.07	-0.750			
0.1804	11545.25	3.8430	3.8430	-0.7281	6.07	0.08	-0.750			
0.1826	11684.67	3.8400	3.8401	-0.7307	6.07	0.08	-0.750			
0.1848	11826.25	3.8370	3.8369	-0.7350	6.08	0.09	-0.750			
0.1870	11966.76	3.8340	3.8341	-0.7370	6.09	0.10	-0.750			
0.1892	12109.72	3.8310	3.8310	-0.7360	6.09	0.10	-0.750			
0.1914	12252.52	3.8280	3.8280	-0.7371	6.10	0.11	-0.750			
0.1936	12393.28	3.8250	3.8250	-0.7374	6.11	0.12	-0.750			
0.1958	12534.31	3.8220	3.8220	-0.7341	6.11	0.12	-0.750			
0.1980	12674.84	3.8190	3.8189	-0.7328	6.12	0.13	-0.750			
0.2002	12815.12	3.8160	3.8161	-0.7381	6.13	0.14	-0.750			
0.2025	12957.53	3.8130	3.8130	-0.7380	6.14	0.15	-0.750			
0.2047	13101.02	3.8100	3.8099	-0.7381	6.14	0.15	-0.750			
0.2069	13242.25	3.8070	3.8073	-0.7400	6.15	0.16	-0.750			
0.2091	13384.01	3.8040	3.8040	-0.7396	6.16	0.17	-0.750			
0.2113	13526.16	3.8010	3.8010	-0.7433	6.16	0.17	-0.750			
0.2136	13667.83	3.7980	3.7980	-0.7450	6.17	0.18	-0.750			
0.2158	13811.26	3.7950	3.7950	-0.7491	6.18	0.19	-0.750			
0.2181	13956.10	3.7920	3.7919	-0.7472	6.19	0.20	-0.750			
0.2203	14100.36	3.7890	3.7891	-0.7491	6.19	0.20	-0.750			
0.2225	14242.90	3.7860	3.7861	-0.7455	6.20	0.21	-0.750			
0.2248	14386.09	3.7830	3.7829	-0.7472	6.21	0.22	-0.750			
0.2270	14528.60	3.7800	3.7800	-0.7442	6.21	0.22	-0.750			
0.2292	14671.54	3.7770	3.7770	-0.7513	6.22	0.23	-0.750			
0.2315	14817.17	3.7740	3.7739	-0.7559	6.23	0.24	-0.750			
0.2338	14962.65	3.7710	3.7709	-0.7610	6.23	0.24	-0.750			
0.2361	15107.68	3.7680	3.7681	-0.7640	6.24	0.25	-0.750			
0.2384	15255.44	3.7650	3.7650	-0.7666	6.24	0.25	-0.750			
0.2407	15402.05	3.7620	3.7620	-0.7708	6.24	0.25	-0.750			
0.2430	15551.08	3.7590	3.7590	-0.7770	6.25	0.26	-0.750			
0.2453	15700.11	3.7560	3.7560	-0.7798	6.25	0.26	-0.750			
0.2477	15850.60	3.7530	3.7530	-0.7904	6.26	0.27	-0.750			
0.2500	16002.59	3.7500	3.7500	-0.7962	6.27	0.28	-0.750			
0.2525	16157.74	3.7470	3.7470	-0.7971	6.28	0.29	-0.750			
0.2549	16311.99	3.7440	3.7439	-0.8012	6.28	0.29	-0.750			
0.2573	16464.69	3.7410	3.7412	-0.8009	6.29	0.30	-0.750			
0.2597	16618.76	3.7380	3.7379	-0.8038	6.30	0.31	-0.750			
0.2621	16772.89	3.7350	3.7349	-0.8107	6.31	0.32	-0.750			
0.2645	16929.07	3.7320	3.7320	-0.8100	6.31	0.32	-0.750			
0.2670	17085.00	3.7290	3.7290	-0.8172	6.32	0.33	-0.750			
0.2694	17243.36	3.7260	3.7263	-0.8224	6.33	0.34	-0.750			
0.2719	17400.23	3.7230	3.7229	-0.8252	6.33	0.34	-0.750			
0.2744	17559.77	3.7200	3.7200	-0.8312	6.34	0.35	-0.750			
0.2769	17718.68	3.7170	3.7170	-0.8340	6.34	0.35	-0.750			
0.2794	17880.99	3.7140	3.7139	-0.8449	6.35	0.36	-0.750			
0.2819	18043.92	3.7110	3.7112	-0.8445	6.35	0.36	-0.750			
0.2844	18203.93	3.7080	3.7079	-0.8469	6.36	0.37	-0.750			
0.2870	18366.92	3.7050	3.7051	-0.8627	6.37	0.38	-0.750			
0.2896	18532.55	3.7020	3.7018	-0.8692	6.37	0.38	-0.750			
0.2922	18703.58	3.6990	3.6989	-0.8829	6.38	0.39	-0.750			
0.2949	18874.00	3.6960	3.6963	-0.8847	6.39	0.40	-0.750			
0.2976	19045.43	3.6930	3.6930	-0.8958	6.39	0.40	-0.750			
0.3003	19217.70	3.6900	3.6900	-0.9046	6.40	0.41	-0.750			
0.3029	19386.50	3.6870	3.6870	-0.9045	6.40	0.41	-0.750			
0.3057	19562.90	3.6840	3.6839	-0.9196	6.41	0.42	-0.750			
0.3084	19740.51	3.6810	3.6811	-0.9285	6.41	0.42	-0.750			
0.3113	19921.43	3.6780	3.6780	-0.9467	6.42	0.43	-0.750			
0.3141	20105.22	3.6750	3.6749	-0.9507	6.43	0.44	-0.750			
0.3170	20288.60	3.6720	3.6720	-0.9525	6.43	0.44	-0.750			
0.3199	20471.92	3.6690	3.6693	-0.9600	6.44	0.45	-0.750			
0.3228	20657.02	3.6660	3.6659	-0.9705	6.45	0.46	-0.750			
0.3257	20843.99	3.6630	3.6629	-0.9753	6.45	0.46	-0.750			
0.3286	21030.15	3.6600	3.6599	-0.9789	6.46	0.47	-0.750			
0.3316	21220.35	3.6570	3.6572	-0.9886	6.47	0.48	-0.750			
0.3345	21409.85	3.6540	3.6540	-1.0023	6.47	0.48	-0.750			
0.3375	21603.02	3.6510	3.6509	-1.0102	6.48	0.49	-0.750			
0.3406	21797.09	3.6480	3.6480	-1.0163	6.48	0.49	-0.750			
0.3436	21991.66	3.6450	3.6449	-1.0237	6.49	0.50	-0.750			
0.3467	22191.80	3.6420	3.6421	-1.0417	6.50	0.51	-0.750			
0.3499	22393.74	3.6390	3.6389	-1.0476	6.51	0.52	-0.750			
0.3530	22594.74	3.6360	3.6360	-1.0568	6.52	0.53	-0.750			
0.3562	22796.46	3.6330	3.6331	-1.0620	6.53	0.54	-0.750			
0.3594	23003.32	3.6300	3.6300	-1.0824	6.53	0.54	-0.750			
0.3627	23213.18	3.6270	3.6269	-1.0900	6.54	0.55	-0.750			
0.3660	23422.85	3.6240	3.6240	-1.0947	6.54	0.55	-0.750			
0.3693	23633.17	3.6210	3.6212	-1.1007	6.55	0.56	-0.750			
0.3726	23848.03	3.6180	3.6180	-1.1184	6.56	0.57	-0.750			
0.3760	24063.33	3.6150	3.6148	-1.1152	6.57	0.58	-0.750			
0.3793	24276.08	3.6120	3.6120	-1.1242	6.57	0.58	-0.750			
0.3827	24491.68	3.6090	3.6092	-1.1382	6.58	0.59	-0.750			
0.3862	24714.76	3.6060	3.6058	-1.1506	6.59	0.60	-0.750			
0.3896	24936.27	3.6030	3.6029	-1.1584	6.60	0.61	-0.750			
0.3931	25156.61	3.6000	3.6001	-1.1717	6.61	0.62	-0.750			
0.3966	25385.56	3.5970	3.5970	-1.1948	6.61	0.62	-0.750			
0.4003	25617.14	3.5940	3.5939	-1.2031	6.62	0.63	-0.750			
0.4039	25846.47	3.5910	3.5910	-1.2061	6.62	0.63	-0.750			
0.4075	26079.79	3.5880	3.5881	-1.2176	6.63	0.64	-0.750	0.471	1.064	
0.4112	26317.07	3.5850	3.5849	-1.2316	6.64	0.65	-0.750			
0.4149	26554.40	3.5820	3.5820	-1.2370	6.64	0.65	-0.750			
0.4186	26789.32	3.5790	3.5789	-1.2558	6.65	0.66	-0.750			
0.4224	27031.70	3.5760	3.5760	-1.2661	6.66	0.67	-0.750			
0.4262	27277.67	3.5730	3.5730	-1.2774	6.67	0.68	-0.750			
0.4300	27522.01	3.5700	3.5700	-1.2958	6.68	0.69	-0.750			
0.4340	27773.38	3.5670	3.5669	-1.3060	6.69	0.70	-0.750			
0.4379	28026.60	3.5640	3.5639	-1.3199	6.70	0.71	-0.750			
0.4419	28279.60	3.5610	3.5609	-1.3376	6.71	0.72	-0.750			
0.4459	28536.46	3.5580	3.5581	-1.3432	6.71	0.72	-0.750			
0.4500	28799.96	3.5550	3.5549	-1.3626	6.73	0.74	-0.750			
0.4541	29059.55	3.5520	3.5520	-1.3861	6.74	0.75	-0.750			
0.4582	29327.63	3.5490	3.5491	-1.3889	6.75	0.76	-0.750			
0.4625	29598.81	3.5460	3.5460	-1.4072	6.76	0.77	-0.750			
0.4667	29868.43	3.5430	3.5429	-1.4270	6.77	0.78	-0.750			
0.4710	30144.03	3.5400	3.5401	-1.4312	6.77	0.78	-0.750			
0.4754	30423.84	3.5370	3.5369	-1.4462	6.78	0.79	-0.750			
0.4796	30694.23	3.5340	3.5339	-1.4676	6.79	0.80	-0.750			
0.4840	30973.55	3.5310	3.5310	-1.4889	6.80	0.81	-0.750			
0.4886	31270.21	3.5280	3.5279	-1.5223	6.81	0.82	-0.750			
0.4932	31565.57	3.5250	3.5246	-1.5442	6.82	0.83	-0.750			
0.4979	31865.87	3.5220	3.5224	-1.5549	6.83	0.84	-0.750			
0.5027	32175.42	3.5190	3.5190	-1.5632	6.85	0.86	-0.750			
0.5075	32478.03	3.5160	3.5162	-1.5704	6.87	0.88	-0.750			
0.5121	32774.24	3.5130	3.5132	-1.5439	6.89	0.90	-0.750			
0.5167	33067.24	3.5100	3.5099	-1.5360	6.90	0.91	-0.750			
0.5213	33365.16	3.5070	3.5070	-1.5392	6.91	0.92	-0.750			
0.5259	33660.40	3.5040	3.5041	-1.5507	6.92	0.93	-0.750			
0.5306	33959.23	3.5010	3.5009	-1.5581	6.93	0.94	-0.750			
0.5353	34256.76	3.4980	3.4979	-1.5507	6.95	0.96	-0.750			
0.5400	34558.43	3.4950	3.4950	-1.5562	6.97	0.98	-0.750			
0.5447	34859.49	3.4920	3.4922	-1.5604	6.99	1.00	-0.750			
0.5493	35158.05	3.4890	3.4889	-1.5474	7.01	1.02	-0.750			
0.5540	35455.30	3.4860	3.4860	-1.5477	7.02	1.03	-0.750			
0.5586	35751.14	3.4830	3.4831	-1.5332	7.04	1.05	-0.750			
0.5633	36049.33	3.4800	3.4799	-1.5302	7.06	1.07	-0.750			
0.5678	36340.88	3.4770	3.4772	-1.5305	7.07	1.08	-0.750			
0.5724	36632.81	3.4740	3.4740	-1.5176	7.09	1.10	-0.750			
0.5770	36925.40	3.4710	3.4708	-1.5134	7.11	1.12	-0.750			
0.5815	37214.42	3.4680	3.4682	-1.5104	7.13	1.14	-0.750			
0.5860	37503.28	3.4650	3.4649	-1.4991	7.15	1.16	-0.750			
0.5905	37794.15	3.4620	3.4620	-1.4956	7.16	1.17	-0.750			
0.5950	38079.80	3.4590	3.4590	-1.4887	7.18	1.19	-0.750			
0.5994	38364.29	3.4560	3.4561	-1.4797	7.20	1.21	-0.750			
0.6039	38649.63	3.4530	3.4529	-1.4829	7.22	1.23	-0.750			
0.6084	38935.45	3.4500	3.4500	-1.4612	7.24	1.25	-0.750			
0.6127	39215.51	3.4470	3.4470	-1.4412	7.26	1.27	-0.750			
0.6170	39490.24	3.4440	3.4440	-1.4287	7.28	1.29	-0.750			
0.6213	39763.58	3.4410	3.4410	-1.3952	7.30	1.31	-0.750			
0.6255	40030.73	3.4380	3.4379	-1.3825	7.32	1.33	-0.750			
0.6295	40289.93	3.4350	3.4350	-1.3600	7.34	1.35	-0.750			
0.6336	40548.42	3.4320	3.4320	-1.3353	7.36	1.37	-0.750			
0.6376	40808.41	3.4290	3.4289	-1.3179	7.38	1.39	-0.750			
0.6416	41059.33	3.4260	3.4260	-1.2898	7.40	1.41	-0.750			
0.6454	41303.08	3.4230	3.4231	-1.2596	7.41	1.42	-0.750			
0.6492	41545.80	3.4200	3.4199	-1.2420	7.43	1.44	-0.750			
0.6528	41778.50	3.4170	3.4170	-1.2065	7.45	1.46	-0.750			
0.6564	42009.10	3.4140	3.4140	-1.1792	7.47	1.48	-0.750			
0.6599	42234.13	3.4110	3.4109	-1.1633	7.48	1.49	-0.750			
0.6634	42454.52	3.4080	3.4080	-1.1325	7.50	1.51	-0.750			
0.6667	42669.19	3.4050	3.4049	-1.1017	7.52	1.53	-0.750			
0.6700	42877.25	3.4020	3.4022	-1.0729	7.53	1.54	-0.750			
0.6731	43080.72	3.3990	3.3989	-1.0454	7.55	1.56	-0.750			
0.6762	43279.43	3.3960	3.3960	-1.0193	7.57	1.58	-0.750			
0.6793	43472.13	3.3930	3.3930	-0.9913	7.59	1.60	-0.750			
0.6822	43660.23	3.3900	3.3900	-0.9639	7.61	1.62	-0.750			
0.6850	43841.93	3.3870	3.3870	-0.9457	7.63	1.64	-0.750			
0.6878	44021.49	3.3840	3.3840	-0.9170	7.65	1.66	-0.750			
0.6905	44194.64	3.3810	3.3810	-0.8907	7.66	1.67	-0.750			
0.6932	44363.19	3.3780	3.3779	-0.8650	7.68	1.69	-0.750			
0.6957	44526.49	3.3750	3.3748	-0.8435	7.70	1.71	-0.750			
0.6982	44684.76	3.3720	3.3720	-0.8242	7.71	1.72	-0.750			
0.7006	44841.00	3.3690	3.3690	-0.8050	7.73	1.74	-0.750			
0.7030	44993.07	3.3660	3.3660	-0.7780	7.74	1.75	-0.750			
0.7054	45143.56	3.3630	3.3630	-0.7638	7.76	1.77	-0.750			
0.7076	45287.38	3.3600	3.3601	-0.7417	7.77	1.78	-0.750			
0.7098	45427.66	3.3570	3.3569	-0.7215	7.79	1.80	-0.750			
0.7119	45562.34	3.3540	3.3540	-0.7000	7.80	1.81	-0.750			
0.7140	45695.07	3.3510	3.3510	-0.6816	7.81	1.82	-0.750			
0.7160	45824.80	3.3480	3.3480	-0.6649	7.83	1.84	-0.750			
0.7180	45951.51	3.3450	3.3449	-0.6450	7.84	1.85	-0.750			
0.7199	46072.86	3.3420	3.3421	-0.6271	7.85	1.86	-0.750			
0.7217	46191.03	3.3390	3.3390	-0.6010	7.86	1.87	-0.750			
