Ah_balance (normalized)	Ah_balance (mAh)	Voltage - fit (V)	Voltage -  interpolate (V)	dQ/dV (1/V)	Temperature (°C)	Temperature - diff (°C)	Current (C)	R_DC 0ms (mOhm)	R_DC 50ms (mOhm)	R_DC 50 ms PEC (mOhm)
0.1791	11461.98	4.0810	4.0810	0.7885	7.27	1.30	0.750			
0.1815	11612.89	4.0780	4.0781	0.7861	7.27	1.30	0.750			
0.1838	11763.99	4.0750	4.0750	0.7862	7.27	1.30	0.750			
0.1862	11917.13	4.0720	4.0719	0.7790	7.26	1.29	0.750			
0.1885	12064.41	4.0690	4.0691	0.7814	7.26	1.29	0.750			
0.1908	12213.72	4.0660	4.0660	0.7877	7.26	1.29	0.750			
0.1932	12364.55	4.0630	4.0630	0.7880	7.25	1.28	0.750			
0.1956	12517.03	4.0600	4.0601	0.7955	7.25	1.28	0.750			
0.1980	12669.14	4.0570	4.0572	0.8022	7.24	1.27	0.750			
0.2004	12824.32	4.0540	4.0540	0.8155	7.24	1.27	0.750			
0.2029	12983.72	4.0510	4.0509	0.8245	7.24	1.27	0.750			
0.2053	13141.25	4.0480	4.0479	0.8243	7.23	1.26	0.750			
0.2078	13300.83	4.0450	4.0451	0.8265	7.23	1.26	0.750			
0.2104	13464.13	4.0420	4.0420	0.8273	7.22	1.25	0.750			
0.2128	13621.54	4.0390	4.0390	0.8224	7.21	1.24	0.750			
0.2153	13777.18	4.0360	4.0360	0.8170	7.20	1.23	0.750			
0.2177	13932.78	4.0330	4.0331	0.8157	7.19	1.22	0.750			
0.2201	14088.74	4.0300	4.0300	0.8198	7.19	1.22	0.750			
0.2226	14247.76	4.0270	4.0270	0.8196	7.19	1.22	0.750			
0.2251	14404.34	4.0240	4.0240	0.8243	7.19	1.22	0.750			
0.2276	14563.72	4.0210	4.0210	0.8321	7.19	1.22	0.750			
0.2300	14722.69	4.0180	4.0181	0.8331	7.19	1.22	0.750			
0.2325	14883.02	4.0150	4.0150	0.8367	7.19	1.22	0.750			
0.2351	15044.90	4.0120	4.0121	0.8384	7.18	1.21	0.750			
0.2376	15204.93	4.0090	4.0091	0.8427	7.17	1.20	0.750			
0.2401	15367.91	4.0060	4.0060	0.8490	7.16	1.19	0.750			
0.2427	15529.85	4.0030	4.0031	0.8515	7.15	1.18	0.750			
0.2452	15694.78	4.0000	4.0000	0.8568	7.15	1.18	0.750			
0.2478	15860.24	3.9970	3.9971	0.8637	7.14	1.17	0.750			
0.2504	16027.62	3.9940	3.9940	0.8669	7.14	1.17	0.750			
0.2531	16196.41	3.9910	3.9909	0.8665	7.14	1.17	0.750			
0.2556	16361.23	3.9880	3.9880	0.8615	7.13	1.16	0.750			
0.2582	16525.62	3.9850	3.9850	0.8609	7.12	1.15	0.750			
0.2608	16691.60	3.9820	3.9820	0.8554	7.12	1.15	0.750			
0.2634	16854.73	3.9790	3.9790	0.8597	7.11	1.14	0.750			
0.2659	17017.38	3.9760	3.9761	0.8631	7.10	1.13	0.750			
0.2685	17183.24	3.9730	3.9728	0.8726	7.09	1.12	0.750			
0.2711	17351.76	3.9700	3.9700	0.8821	7.09	1.12	0.750			
0.2738	17521.99	3.9670	3.9670	0.8843	7.08	1.11	0.750			
0.2764	17692.26	3.9640	3.9640	0.8940	7.08	1.11	0.750			
0.2792	17867.07	3.9610	3.9610	0.9022	7.07	1.10	0.750			
0.2819	18039.28	3.9580	3.9581	0.8998	7.07	1.10	0.750			
0.2846	18214.20	3.9550	3.9549	0.8972	7.07	1.10	0.750			
0.2873	18385.06	3.9520	3.9522	0.9034	7.06	1.09	0.750			
0.2900	18557.82	3.9490	3.9490	0.9110	7.06	1.09	0.750			
0.2927	18732.37	3.9460	3.9460	0.9172	7.05	1.08	0.750			
0.2954	18908.39	3.9430	3.9430	0.9261	7.05	1.08	0.750			
0.2982	19087.07	3.9400	3.9401	0.9337	7.04	1.07	0.750			
0.3011	19267.26	3.9370	3.9371	0.9456	7.04	1.07	0.750			
0.3039	19450.94	3.9340	3.9340	0.9591	7.03	1.06	0.750			
0.3068	19634.19	3.9310	3.9307	0.9625	7.03	1.06	0.750			
0.3097	19821.46	3.9280	3.9281	0.9599	7.03	1.06	0.750			
0.3126	20005.89	3.9250	3.9251	0.9734	7.02	1.05	0.750			
0.3155	20195.16	3.9220	3.9221	0.9783	7.02	1.05	0.750			
0.3185	20382.02	3.9190	3.9188	0.9777	7.01	1.04	0.750			
0.3214	20570.77	3.9160	3.9161	0.9769	7.00	1.03	0.750			
0.3243	20757.75	3.9130	3.9131	0.9918	6.99	1.02	0.750			
0.3273	20949.39	3.9100	3.9100	1.0042	6.98	1.01	0.750			
0.3304	21143.74	3.9070	3.9069	1.0072	6.97	1.00	0.750			
0.3334	21339.39	3.9040	3.9041	1.0083	6.97	1.00	0.750			
0.3365	21533.64	3.9010	3.9011	1.0304	6.96	0.99	0.750			
0.3395	21731.08	3.8980	3.8981	1.0453	6.96	0.99	0.750			
0.3427	21931.53	3.8950	3.8950	1.0536	6.95	0.98	0.750			
0.3459	22138.59	3.8920	3.8920	1.0626	6.94	0.97	0.750			
0.3491	22344.83	3.8890	3.8891	1.0786	6.93	0.96	0.750			
0.3524	22553.88	3.8860	3.8861	1.0942	6.92	0.95	0.750			
0.3557	22766.66	3.8830	3.8829	1.1057	6.91	0.94	0.750			
0.3590	22975.11	3.8800	3.8800	1.1063	6.91	0.94	0.750			
0.3623	23187.44	3.8770	3.8771	1.1219	6.90	0.93	0.750			
0.3657	23403.95	3.8740	3.8740	1.1458	6.90	0.93	0.750			
0.3692	23630.62	3.8710	3.8707	1.1555	6.89	0.92	0.750			
0.3727	23850.23	3.8680	3.8680	1.1722	6.88	0.91	0.750			
0.3762	24076.71	3.8650	3.8651	1.1908	6.87	0.90	0.750			
0.3799	24312.24	3.8620	3.8621	1.2027	6.86	0.89	0.750			
0.3835	24541.46	3.8590	3.8591	1.2144	6.84	0.87	0.750			
0.3871	24774.28	3.8560	3.8561	1.2371	6.83	0.86	0.750			
0.3908	25012.87	3.8530	3.8531	1.2619	6.82	0.85	0.750			
0.3947	25258.26	3.8500	3.8497	1.2750	6.81	0.84	0.750			
0.3986	25509.18	3.8470	3.8471	1.2909	6.80	0.83	0.750			
0.4024	25755.75	3.8440	3.8441	1.3362	6.78	0.81	0.750			
0.4065	26016.66	3.8410	3.8407	1.3753	6.77	0.80	0.750			
0.4107	26285.02	3.8380	3.8380	1.3926	6.76	0.79	0.750			
0.4150	26560.09	3.8350	3.8354	1.4259	6.74	0.77	0.750	0.410	0.948	
0.4193	26836.04	3.8320	3.8319	1.4533	6.73	0.76	0.750			
0.4237	27117.36	3.8290	3.8291	1.4693	6.72	0.75	0.750			
0.4282	27403.30	3.8260	3.8260	1.4920	6.70	0.73	0.750			
0.4326	27684.93	3.8230	3.8229	1.5081	6.69	0.72	0.750			
0.4371	27973.01	3.8200	3.8202	1.5488	6.67	0.70	0.750			
0.4419	28280.00	3.8170	3.8171	1.5776	6.66	0.69	0.750			
0.4466	28580.40	3.8140	3.8139	1.6354	6.64	0.67	0.750			
0.4515	28895.99	3.8110	3.8110	1.6766	6.63	0.66	0.750			
0.4567	29227.75	3.8080	3.8076	1.7057	6.61	0.64	0.750			
0.4618	29557.80	3.8050	3.8054	1.7202	6.58	0.61	0.750			
0.4671	29893.52	3.8020	3.8020	1.7630	6.56	0.59	0.750			
0.4724	30234.13	3.7990	3.7991	1.7753	6.54	0.57	0.750			
0.4777	30575.94	3.7960	3.7961	1.8277	6.54	0.57	0.750			
0.4834	30936.36	3.7930	3.7931	1.8840	6.52	0.55	0.750			
0.4890	31295.43	3.7900	3.7900	1.9057	6.50	0.53	0.750			
0.4947	31662.11	3.7870	3.7870	1.9476	6.48	0.51	0.750			
0.5007	32047.50	3.7840	3.7840	1.9824	6.45	0.48	0.750			
0.5067	32429.86	3.7810	3.7809	1.9901	6.43	0.46	0.750			
0.5128	32821.20	3.7780	3.7779	2.0464	6.41	0.44	0.750			
0.5191	33219.24	3.7750	3.7749	2.0488	6.39	0.42	0.750			
0.5252	33611.78	3.7720	3.7724	2.0922	6.37	0.40	0.750			
0.5315	34018.21	3.7690	3.7688	2.1308	6.35	0.38	0.750			
0.5380	34432.31	3.7660	3.7663	2.1570	6.33	0.36	0.750			
0.5446	34856.90	3.7630	3.7629	2.2040	6.31	0.34	0.750			
0.5513	35280.67	3.7600	3.7600	2.2323	6.28	0.31	0.750			
0.5580	35713.24	3.7570	3.7570	2.2164	6.25	0.28	0.750			
0.5646	36135.48	3.7540	3.7541	2.2279	6.22	0.25	0.750			
0.5712	36559.60	3.7510	3.7510	2.2672	6.20	0.23	0.750			
0.5782	37002.90	3.7480	3.7480	2.3397	6.18	0.21	0.750			
0.5853	37460.92	3.7450	3.7451	2.3847	6.16	0.19	0.750			
0.5928	37940.45	3.7420	3.7419	2.4567	6.14	0.17	0.750			
0.6001	38408.57	3.7390	3.7388	2.5198	6.13	0.16	0.750			
0.6078	38899.32	3.7360	3.7357	2.6316	6.11	0.14	0.750			
0.6157	39405.36	3.7330	3.7330	2.7138	6.08	0.11	0.750			
0.6241	39942.80	3.7300	3.7300	2.8369	6.05	0.08	0.750			
0.6328	40501.49	3.7270	3.7271	2.8580	6.02	0.05	0.750			
0.6416	41059.73	3.7240	3.7242	2.9109	6.00	0.03	0.750			
0.6502	41615.23	3.7210	3.7209	2.8161	5.99	0.02	0.750			
0.6586	42151.15	3.7180	3.7180	2.7338	5.97	-0.00	0.750			
0.6666	42659.58	3.7150	3.7148	2.5290	5.95	-0.02	0.750			
0.6739	43131.27	3.7120	3.7119	2.3158	5.94	-0.03	0.750			
0.6805	43554.00	3.7090	3.7092	2.0981	5.93	-0.04	0.750			
0.6863	43921.82	3.7060	3.7063	1.8225	5.93	-0.04	0.750			
0.6913	44242.45	3.7030	3.7032	1.5837	5.93	-0.04	0.750			
0.6957	44524.38	3.7000	3.7001	1.3985	5.93	-0.04	0.750			
0.6996	44777.21	3.6970	3.6972	1.2596	5.93	-0.04	0.750			
0.7031	44996.79	3.6940	3.6940	1.1239	5.93	-0.04	0.750			
0.7061	45192.26	3.6910	3.6908	1.0281	5.93	-0.04	0.750			
0.7089	45372.62	3.6880	3.6880	0.9338	5.93	-0.04	0.750			
0.7116	45544.22	3.6850	3.6851	0.8770	5.93	-0.04	0.750			
0.7142	45709.02	3.6820	3.6820	0.8323	5.94	-0.03	0.750			
0.7166	45862.10	3.6790	3.6790	0.7827	5.94	-0.03	0.750			
0.7189	46007.50	3.6760	3.6757	0.7387	5.94	-0.03	0.750			
0.7210	46146.82	3.6730	3.6730	0.6933	5.94	-0.03	0.750			
0.7231	46275.21	3.6700	3.6701	0.6471	5.95	-0.02	0.750			
0.7250	46397.15	3.6670	3.6670	0.6043	5.95	-0.02	0.750			
0.7267	46508.97	3.6640	3.6639	0.5509	5.96	-0.01	0.750			
0.7282	46607.31	3.6610	3.6609	0.5022	5.96	-0.01	0.750			
0.7297	46698.50	3.6580	3.6581	0.4579	5.97	-0.00	0.750			
0.7310	46781.49	3.6550	3.6550	0.4159	5.97	-0.00	0.750			
0.7321	46857.55	3.6520	3.6519	0.3767	5.97	0.00	0.750			
0.7332	46925.00	3.6490	3.6491	0.3364	5.97	0.00	0.750			
0.7342	46986.36	3.6460	3.6461	0.3002	5.98	0.01	0.750			
0.7350	47041.78	3.6430	3.6429	0.2656	5.98	0.01	0.750			
0.7358	47088.05	3.6400	3.6400	0.2232	5.98	0.01	0.750			
0.7364	47127.25	3.6370	3.6370	0.1851	5.98	0.01	0.750			
0.7369	47159.35	3.6340	3.6341	0.1468	5.98	0.01	0.750			
0.7373	47184.78	3.6310	3.6315	0.1070	5.98	0.01	0.750			
0.7375	47201.61	3.6280	3.6288	0.0651	5.98	0.01	0.750			
0.7377	47210.08	3.6250	3.6270	0.0231	5.98	0.01	0.750			
