Ah_balance (normalized)	Ah_balance (mAh)	Voltage - fit (V)	Voltage -  interpolate (V)	dQ/dV (1/V)	Temperature (°C)	Temperature - diff (°C)	Current (C)	R_DC 0ms (mOhm)	R_DC 50ms (mOhm)	R_DC 50 ms PEC (mOhm)
0.0939	6008.46	4.0030	4.0025	-0.0917	5.98	0.01	-0.750			
0.0942	6028.83	4.0000	3.9997	-0.1205	5.98	0.01	-0.750			
0.0946	6055.63	3.9970	3.9969	-0.1469	5.98	0.01	-0.750			
0.0951	6086.13	3.9940	3.9940	-0.1727	5.98	0.01	-0.750			
0.0957	6121.81	3.9910	3.9912	-0.1977	5.98	0.01	-0.750			
0.0963	6162.86	3.9880	3.9880	-0.2227	5.98	0.01	-0.750			
0.0970	6207.59	3.9850	3.9851	-0.2476	5.98	0.01	-0.750			
0.0978	6257.34	3.9820	3.9820	-0.2731	5.97	0.00	-0.750			
0.0986	6311.83	3.9790	3.9790	-0.2992	5.97	0.00	-0.750			
0.0996	6372.61	3.9760	3.9759	-0.3238	5.97	0.00	-0.750			
0.1006	6437.06	3.9730	3.9731	-0.3475	5.97	0.00	-0.750			
0.1017	6506.29	3.9700	3.9700	-0.3731	5.97	-0.00	-0.750			
0.1028	6579.98	3.9670	3.9670	-0.3992	5.97	-0.00	-0.750			
0.1040	6658.09	3.9640	3.9640	-0.4248	5.96	-0.01	-0.750			
0.1053	6742.15	3.9610	3.9611	-0.4521	5.96	-0.01	-0.750			
0.1067	6831.72	3.9580	3.9580	-0.4772	5.96	-0.01	-0.750			
0.1082	6926.51	3.9550	3.9550	-0.5039	5.96	-0.01	-0.750			
0.1098	7026.31	3.9520	3.9521	-0.5274	5.96	-0.01	-0.750			
0.1114	7129.91	3.9490	3.9489	-0.5498	5.95	-0.02	-0.750			
0.1131	7238.07	3.9460	3.9462	-0.5710	5.95	-0.02	-0.750			
0.1149	7350.90	3.9430	3.9430	-0.5890	5.95	-0.02	-0.750			
0.1167	7466.27	3.9400	3.9400	-0.6076	5.95	-0.02	-0.750			
0.1185	7583.78	3.9370	3.9371	-0.6290	5.95	-0.02	-0.750			
0.1204	7706.08	3.9340	3.9340	-0.6450	5.95	-0.02	-0.750			
0.1224	7832.68	3.9310	3.9309	-0.6595	5.95	-0.02	-0.750			
0.1244	7960.91	3.9280	3.9279	-0.6739	5.95	-0.02	-0.750			
0.1264	8092.20	3.9250	3.9251	-0.6858	5.95	-0.02	-0.750			
0.1285	8227.11	3.9220	3.9219	-0.6967	5.95	-0.02	-0.750			
0.1306	8360.06	3.9190	3.9190	-0.7032	5.96	-0.01	-0.750			
0.1327	8494.79	3.9160	3.9161	-0.7051	5.96	-0.01	-0.750			
0.1349	8632.17	3.9130	3.9130	-0.7159	5.96	-0.01	-0.750			
0.1370	8771.02	3.9100	3.9100	-0.7235	5.97	-0.00	-0.750			
0.1392	8909.39	3.9070	3.9070	-0.7293	5.97	0.00	-0.750			
0.1414	9050.34	3.9040	3.9040	-0.7362	5.97	0.00	-0.750			
0.1436	9192.56	3.9010	3.9010	-0.7461	5.97	0.00	-0.750			
0.1459	9336.90	3.8980	3.8980	-0.7486	5.98	0.01	-0.750			
0.1482	9482.32	3.8950	3.8949	-0.7563	5.98	0.01	-0.750			
0.1504	9627.72	3.8920	3.8922	-0.7616	5.98	0.01	-0.750			
0.1527	9774.42	3.8890	3.8889	-0.7658	5.99	0.02	-0.750			
0.1550	9920.59	3.8860	3.8860	-0.7713	5.99	0.02	-0.750			
0.1573	10070.02	3.8830	3.8830	-0.7743	6.00	0.03	-0.750			
0.1597	10218.28	3.8800	3.8800	-0.7756	6.01	0.04	-0.750			
0.1620	10370.55	3.8770	3.8770	-0.7822	6.02	0.05	-0.750			
0.1644	10520.58	3.8740	3.8740	-0.7772	6.02	0.05	-0.750			
0.1667	10668.58	3.8710	3.8710	-0.7831	6.03	0.06	-0.750			
0.1691	10819.30	3.8680	3.8681	-0.7863	6.03	0.06	-0.750			
0.1714	10969.35	3.8650	3.8649	-0.7874	6.04	0.07	-0.750			
0.1738	11122.59	3.8620	3.8620	-0.7903	6.05	0.08	-0.750			
0.1762	11275.13	3.8590	3.8592	-0.7917	6.05	0.08	-0.750			
0.1785	11426.92	3.8560	3.8561	-0.7925	6.05	0.08	-0.750			
0.1809	11579.94	3.8530	3.8530	-0.7991	6.06	0.09	-0.750			
0.1833	11731.63	3.8500	3.8499	-0.7968	6.06	0.09	-0.750			
0.1857	11885.12	3.8470	3.8470	-0.8018	6.07	0.10	-0.750			
0.1881	12039.26	3.8440	3.8441	-0.8054	6.07	0.10	-0.750			
0.1905	12194.99	3.8410	3.8409	-0.8078	6.08	0.11	-0.750			
0.1930	12351.39	3.8380	3.8380	-0.8135	6.09	0.12	-0.750			
0.1954	12507.73	3.8350	3.8350	-0.8114	6.11	0.14	-0.750			
0.1979	12664.53	3.8320	3.8320	-0.8114	6.12	0.15	-0.750			
0.2003	12820.43	3.8290	3.8292	-0.8113	6.13	0.16	-0.750			
0.2027	12974.29	3.8260	3.8259	-0.8080	6.14	0.17	-0.750			
0.2051	13128.33	3.8230	3.8229	-0.8160	6.14	0.17	-0.750			
0.2076	13285.27	3.8200	3.8200	-0.8159	6.15	0.18	-0.750			
0.2100	13442.71	3.8170	3.8168	-0.8137	6.16	0.19	-0.750			
0.2125	13602.87	3.8140	3.8142	-0.8168	6.17	0.20	-0.750			
0.2150	13759.42	3.8110	3.8110	-0.8130	6.18	0.21	-0.750			
0.2174	13913.98	3.8080	3.8080	-0.8118	6.18	0.21	-0.750			
0.2198	14069.57	3.8050	3.8049	-0.8109	6.19	0.22	-0.750			
0.2222	14222.37	3.8020	3.8020	-0.8019	6.20	0.23	-0.750			
0.2247	14378.96	3.7990	3.7990	-0.8135	6.21	0.24	-0.750			
0.2271	14535.08	3.7960	3.7961	-0.8128	6.21	0.24	-0.750			
0.2295	14688.59	3.7930	3.7929	-0.8301	6.22	0.25	-0.750			
0.2320	14848.61	3.7900	3.7901	-0.8436	6.23	0.26	-0.750			
0.2346	15012.99	3.7870	3.7868	-0.8476	6.23	0.26	-0.750			
0.2372	15179.67	3.7840	3.7838	-0.8527	6.24	0.27	-0.750			
0.2398	15347.64	3.7810	3.7811	-0.8566	6.25	0.28	-0.750			
0.2424	15510.54	3.7780	3.7781	-0.8504	6.26	0.29	-0.750			
0.2449	15675.82	3.7750	3.7749	-0.8419	6.27	0.30	-0.750			
0.2474	15831.85	3.7720	3.7719	-0.8244	6.28	0.31	-0.750			
0.2499	15991.24	3.7690	3.7691	-0.8259	6.29	0.32	-0.750			
0.2523	16148.57	3.7660	3.7660	-0.8299	6.30	0.33	-0.750			
0.2548	16307.81	3.7630	3.7629	-0.8320	6.30	0.33	-0.750			
0.2573	16466.71	3.7600	3.7600	-0.8319	6.31	0.34	-0.750			
0.2598	16626.51	3.7570	3.7570	-0.8322	6.32	0.35	-0.750			
0.2623	16790.12	3.7540	3.7541	-0.8410	6.33	0.36	-0.750			
0.2649	16950.67	3.7510	3.7510	-0.8420	6.34	0.37	-0.750			
0.2674	17111.66	3.7480	3.7480	-0.8406	6.34	0.37	-0.750			
0.2699	17273.84	3.7450	3.7449	-0.8354	6.35	0.38	-0.750			
0.2724	17432.99	3.7420	3.7420	-0.8400	6.36	0.39	-0.750			
0.2749	17594.22	3.7390	3.7391	-0.8440	6.37	0.40	-0.750			
0.2775	17756.86	3.7360	3.7360	-0.8442	6.38	0.41	-0.750			
0.2800	17918.39	3.7330	3.7329	-0.8477	6.39	0.42	-0.750			
0.2825	18080.84	3.7300	3.7301	-0.8527	6.40	0.43	-0.750			
0.2851	18247.76	3.7270	3.7270	-0.8516	6.42	0.45	-0.750			
0.2877	18412.55	3.7240	3.7239	-0.8574	6.43	0.46	-0.750			
0.2902	18573.73	3.7210	3.7211	-0.8578	6.44	0.47	-0.750			
0.2928	18737.16	3.7180	3.7180	-0.8640	6.44	0.47	-0.750			
0.2954	18904.68	3.7150	3.7149	-0.8725	6.45	0.48	-0.750			
0.2980	19072.13	3.7120	3.7120	-0.8779	6.46	0.49	-0.750			
0.3007	19243.26	3.7090	3.7090	-0.8864	6.47	0.50	-0.750			
0.3034	19415.14	3.7060	3.7061	-0.8969	6.48	0.51	-0.750			
0.3061	19587.59	3.7030	3.7030	-0.8957	6.49	0.52	-0.750			
0.3087	19759.32	3.7000	3.6999	-0.9022	6.50	0.53	-0.750			
0.3115	19932.88	3.6970	3.6970	-0.9056	6.50	0.53	-0.750			
0.3142	20108.01	3.6940	3.6940	-0.9110	6.51	0.54	-0.750			
0.3169	20283.45	3.6910	3.6909	-0.9222	6.52	0.55	-0.750			
0.3197	20461.72	3.6880	3.6880	-0.9269	6.52	0.55	-0.750			
0.3225	20639.08	3.6850	3.6849	-0.9316	6.52	0.55	-0.750			
0.3253	20819.21	3.6820	3.6822	-0.9439	6.53	0.56	-0.750			
0.3281	20999.33	3.6790	3.6790	-0.9565	6.54	0.57	-0.750			
0.3310	21185.70	3.6760	3.6759	-0.9706	6.55	0.58	-0.750			
0.3340	21374.57	3.6730	3.6729	-0.9776	6.56	0.59	-0.750			
0.3369	21561.50	3.6700	3.6701	-0.9920	6.57	0.60	-0.750			
0.3399	21755.62	3.6670	3.6670	-1.0096	6.58	0.61	-0.750			
0.3430	21950.66	3.6640	3.6639	-1.0170	6.59	0.62	-0.750			
0.3460	22144.77	3.6610	3.6610	-1.0274	6.60	0.63	-0.750			
0.3491	22342.16	3.6580	3.6581	-1.0400	6.61	0.64	-0.750			
0.3523	22545.25	3.6550	3.6550	-1.0659	6.61	0.64	-0.750			
0.3555	22753.76	3.6520	3.6519	-1.0769	6.62	0.65	-0.750			
0.3588	22960.64	3.6490	3.6489	-1.0820	6.63	0.66	-0.750			
0.3620	23169.99	3.6460	3.6461	-1.0979	6.64	0.67	-0.750			
0.3654	23382.51	3.6430	3.6429	-1.1135	6.65	0.68	-0.750			
0.3687	23595.97	3.6400	3.6399	-1.1241	6.65	0.68	-0.750			
0.3721	23812.98	3.6370	3.6370	-1.1325	6.66	0.69	-0.750			
0.3754	24028.34	3.6340	3.6342	-1.1430	6.67	0.70	-0.750			
0.3790	24253.17	3.6310	3.6310	-1.1765	6.67	0.70	-0.750			
0.3825	24480.08	3.6280	3.6278	-1.1928	6.67	0.70	-0.750			
0.3861	24708.36	3.6250	3.6250	-1.2091	6.67	0.70	-0.750			
0.3898	24945.01	3.6220	3.6220	-1.2332	6.68	0.71	-0.750			
0.3935	25185.69	3.6190	3.6190	-1.2450	6.69	0.72	-0.750			
0.3973	25427.88	3.6160	3.6159	-1.2577	6.70	0.73	-0.750			
0.4010	25667.15	3.6130	3.6133	-1.2653	6.71	0.74	-0.750			
0.4049	25910.42	3.6100	3.6100	-1.2869	6.72	0.75	-0.750			
0.4087	26158.12	3.6070	3.6069	-1.3046	6.72	0.75	-0.750			
0.4127	26410.90	3.6040	3.6039	-1.3260	6.73	0.76	-0.750			
0.4167	26668.22	3.6010	3.6012	-1.3492	6.73	0.76	-0.750	0.471	1.126	
0.4208	26930.81	3.5980	3.5981	-1.3652	6.73	0.76	-0.750			
0.4249	27196.54	3.5950	3.5951	-1.3803	6.73	0.76	-0.750			
0.4291	27461.67	3.5920	3.5919	-1.3981	6.74	0.77	-0.750			
0.4333	27730.37	3.5890	3.5890	-1.4157	6.74	0.77	-0.750			
0.4376	28003.79	3.5860	3.5860	-1.4313	6.75	0.78	-0.750			
0.4419	28278.89	3.5830	3.5830	-1.4581	6.76	0.79	-0.750			
0.4463	28563.91	3.5800	3.5800	-1.4780	6.76	0.79	-0.750			
0.4508	28852.45	3.5770	3.5770	-1.4996	6.77	0.80	-0.750			
0.4553	29142.17	3.5740	3.5741	-1.5203	6.78	0.81	-0.750			
0.4600	29437.35	3.5710	3.5710	-1.5380	6.78	0.81	-0.750			
0.4646	29734.64	3.5680	3.5681	-1.5604	6.79	0.82	-0.750			
0.4693	30035.54	3.5650	3.5649	-1.5799	6.80	0.83	-0.750			
0.4742	30349.61	3.5620	3.5619	-1.5276	6.81	0.84	-0.750			
0.4789	30647.85	3.5590	3.5589	-1.4990	6.82	0.85	-0.750			
0.4833	30929.12	3.5560	3.5562	-1.5002	6.82	0.85	-0.750			
0.4875	31202.17	3.5530	3.5528	-1.4951	6.83	0.86	-0.750			
0.4919	31479.83	3.5500	3.5496	-1.5337	6.83	0.86	-0.750			
0.4964	31772.62	3.5470	3.5471	-1.5817	6.83	0.86	-0.750			
0.5014	32088.17	3.5440	3.5441	-1.6495	6.83	0.86	-0.750			
0.5067	32428.42	3.5410	3.5412	-1.7248	6.84	0.87	-0.750			
0.5119	32764.31	3.5380	3.5380	-1.7359	6.85	0.88	-0.750			
0.5172	33100.84	3.5350	3.5350	-1.7337	6.86	0.89	-0.750			
0.5224	33431.71	3.5320	3.5322	-1.7429	6.86	0.89	-0.750			
0.5276	33767.23	3.5290	3.5290	-1.7488	6.87	0.90	-0.750			
0.5328	34099.37	3.5260	3.5260	-1.7604	6.88	0.91	-0.750			
0.5382	34442.07	3.5230	3.5231	-1.7694	6.89	0.92	-0.750			
0.5435	34781.92	3.5200	3.5201	-1.7911	6.90	0.93	-0.750			
0.5489	35130.98	3.5170	3.5170	-1.7869	6.91	0.94	-0.750			
0.5543	35477.12	3.5140	3.5140	-1.7908	6.92	0.95	-0.750			
0.5596	35817.15	3.5110	3.5113	-1.7991	6.92	0.95	-0.750			
0.5650	36161.24	3.5080	3.5079	-1.8071	6.93	0.96	-0.750			
0.5704	36507.33	3.5050	3.5050	-1.7899	6.94	0.97	-0.750			
0.5758	36853.65	3.5020	3.5020	-1.7924	6.95	0.98	-0.750			
0.5812	37197.48	3.4990	3.4989	-1.7884	6.96	0.99	-0.750			
0.5866	37540.03	3.4960	3.4960	-1.7699	6.97	1.00	-0.750			
0.5919	37883.42	3.4930	3.4928	-1.7475	6.98	1.01	-0.750			
0.5971	38213.19	3.4900	3.4899	-1.7377	6.98	1.01	-0.750			
0.6023	38544.23	3.4870	3.4869	-1.7103	7.00	1.03	-0.750			
0.6074	38872.03	3.4840	3.4840	-1.7152	7.01	1.04	-0.750			
0.6125	39199.56	3.4810	3.4811	-1.7011	7.03	1.06	-0.750			
0.6176	39528.12	3.4780	3.4780	-1.6791	7.04	1.07	-0.750			
0.6227	39853.54	3.4750	3.4750	-1.6601	7.05	1.08	-0.750			
0.6277	40172.89	3.4720	3.4717	-1.6221	7.05	1.08	-0.750			
0.6325	40478.63	3.4690	3.4688	-1.6073	7.06	1.09	-0.750			
0.6372	40778.54	3.4660	3.4661	-1.5818	7.07	1.10	-0.750			
0.6419	41079.79	3.4630	3.4628	-1.5576	7.08	1.11	-0.750			
0.6466	41379.93	3.4600	3.4603	-1.5358	7.10	1.13	-0.750			
0.6512	41679.04	3.4570	3.4573	-1.5258	7.11	1.14	-0.750			
0.6558	41968.49	3.4540	3.4538	-1.4953	7.13	1.16	-0.750			
0.6601	42247.22	3.4510	3.4510	-1.4857	7.14	1.17	-0.750			
0.6645	42529.74	3.4480	3.4480	-1.4547	7.15	1.18	-0.750			
0.6690	42817.14	3.4450	3.4448	-1.4409	7.17	1.20	-0.750			
0.6733	43091.63	3.4420	3.4421	-1.4034	7.18	1.21	-0.750			
0.6774	43356.13	3.4390	3.4390	-1.3642	7.20	1.23	-0.750			
0.6815	43618.00	3.4360	3.4359	-1.3376	7.21	1.24	-0.750			
0.6854	43864.61	3.4330	3.4329	-1.2955	7.23	1.26	-0.750			
0.6892	44109.51	3.4300	3.4300	-1.2593	7.24	1.27	-0.750			
0.6930	44351.60	3.4270	3.4270	-1.2377	7.26	1.29	-0.750			
0.6967	44587.22	3.4240	3.4240	-1.2111	7.27	1.30	-0.750			
0.7003	44816.49	3.4210	3.4209	-1.1738	7.29	1.32	-0.750			
0.7037	45038.00	3.4180	3.4179	-1.1426	7.31	1.34	-0.750			
0.7071	45253.93	3.4150	3.4151	-1.1118	7.32	1.35	-0.750			
0.7104	45464.22	3.4120	3.4120	-1.0782	7.34	1.37	-0.750			
0.7136	45668.96	3.4090	3.4091	-1.0512	7.35	1.38	-0.750			
0.7167	45867.10	3.4060	3.4059	-1.0211	7.37	1.40	-0.750			
0.7197	46061.54	3.4030	3.4030	-0.9909	7.38	1.41	-0.750			
0.7226	46249.27	3.4000	3.3999	-0.9659	7.40	1.43	-0.750			
0.7255	46434.36	3.3970	3.3972	-0.9338	7.41	1.44	-0.750			
0.7283	46610.06	3.3940	3.3939	-0.8986	7.42	1.45	-0.750			
0.7309	46778.33	3.3910	3.3909	-0.8685	7.44	1.47	-0.750			
0.7334	46939.70	3.3880	3.3881	-0.8392	7.45	1.48	-0.750			
0.7359	47098.13	3.3850	3.3848	-0.8153	7.46	1.49	-0.750			
0.7383	47251.13	3.3820	3.3820	-0.7954	7.47	1.50	-0.750			
0.7407	47403.82	3.3790	3.3790	-0.8213	7.48	1.51	-0.750			
