Ah_balance (normalized)	Ah_balance (mAh)	Voltage - fit (V)	Voltage -  interpolate (V)	dQ/dV (1/V)	Temperature (°C)	Temperature - diff (°C)	Current (C)	R_DC 0ms (mOhm)	R_DC 50ms (mOhm)	R_DC 50 ms PEC (mOhm)
0.0917	5867.70	4.0010	4.0005	-0.0740	5.99	0.00	-0.750			
0.0919	5884.73	3.9980	3.9978	-0.1034	5.99	0.00	-0.750			
0.0923	5908.00	3.9950	3.9948	-0.1314	5.99	0.00	-0.750			
0.0928	5936.44	3.9920	3.9921	-0.1563	5.99	-0.00	-0.750			
0.0933	5968.80	3.9890	3.9891	-0.1826	5.99	-0.00	-0.750			
0.0939	6007.19	3.9860	3.9861	-0.2083	5.99	-0.00	-0.750			
0.0945	6049.75	3.9830	3.9830	-0.2305	5.99	-0.00	-0.750			
0.0953	6096.17	3.9800	3.9800	-0.2520	5.99	-0.00	-0.750			
0.0960	6146.53	3.9770	3.9771	-0.2752	5.98	-0.01	-0.750			
0.0969	6201.58	3.9740	3.9741	-0.2974	5.98	-0.01	-0.750			
0.0978	6260.94	3.9710	3.9709	-0.3194	5.98	-0.01	-0.750			
0.0988	6323.54	3.9680	3.9681	-0.3435	5.98	-0.01	-0.750			
0.0999	6391.10	3.9650	3.9651	-0.3726	5.98	-0.01	-0.750			
0.1010	6465.16	3.9620	3.9620	-0.4026	5.98	-0.01	-0.750			
0.1023	6545.96	3.9590	3.9589	-0.4288	5.97	-0.02	-0.750			
0.1036	6631.99	3.9560	3.9559	-0.4507	5.97	-0.02	-0.750			
0.1050	6722.21	3.9530	3.9532	-0.4695	5.97	-0.02	-0.750			
0.1065	6815.29	3.9500	3.9500	-0.4879	5.97	-0.02	-0.750			
0.1080	6909.68	3.9470	3.9470	-0.5009	5.97	-0.02	-0.750			
0.1095	7005.40	3.9440	3.9440	-0.5134	5.97	-0.02	-0.750			
0.1110	7106.53	3.9410	3.9409	-0.5297	5.97	-0.02	-0.750			
0.1127	7210.06	3.9380	3.9380	-0.5471	5.97	-0.02	-0.750			
0.1143	7317.09	3.9350	3.9350	-0.5594	5.97	-0.02	-0.750			
0.1160	7426.65	3.9320	3.9319	-0.5731	5.97	-0.02	-0.750			
0.1178	7537.75	3.9290	3.9291	-0.5828	5.97	-0.02	-0.750			
0.1195	7650.34	3.9260	3.9260	-0.5946	5.97	-0.02	-0.750			
0.1214	7766.84	3.9230	3.9230	-0.5981	5.97	-0.02	-0.750			
0.1232	7881.74	3.9200	3.9201	-0.6089	5.97	-0.02	-0.750			
0.1250	7998.66	3.9170	3.9170	-0.6207	5.97	-0.02	-0.750			
0.1269	8118.46	3.9140	3.9139	-0.6326	5.97	-0.02	-0.750			
0.1288	8240.66	3.9110	3.9108	-0.6420	5.97	-0.02	-0.750			
0.1307	8365.53	3.9080	3.9082	-0.6533	5.97	-0.02	-0.750			
0.1327	8493.20	3.9050	3.9049	-0.6641	5.97	-0.02	-0.750			
0.1347	8623.72	3.9020	3.9020	-0.6702	5.98	-0.01	-0.750			
0.1367	8751.16	3.8990	3.8990	-0.6679	5.98	-0.01	-0.750			
0.1387	8879.92	3.8960	3.8960	-0.6722	5.98	-0.01	-0.750			
0.1408	9009.98	3.8930	3.8929	-0.6736	5.99	-0.00	-0.750			
0.1428	9139.35	3.8900	3.8901	-0.6765	5.99	0.00	-0.750			
0.1448	9269.11	3.8870	3.8870	-0.6785	5.99	0.00	-0.750			
0.1469	9399.18	3.8840	3.8840	-0.6838	6.00	0.01	-0.750			
0.1489	9531.17	3.8810	3.8810	-0.6897	6.00	0.01	-0.750			
0.1510	9663.96	3.8780	3.8780	-0.6925	6.00	0.01	-0.750			
0.1531	9797.85	3.8750	3.8750	-0.6948	6.01	0.02	-0.750			
0.1552	9933.80	3.8720	3.8720	-0.6963	6.01	0.02	-0.750			
0.1573	10066.74	3.8690	3.8691	-0.6940	6.02	0.03	-0.750			
0.1594	10198.57	3.8660	3.8660	-0.6954	6.02	0.03	-0.750			
0.1614	10331.40	3.8630	3.8630	-0.6953	6.03	0.04	-0.750			
0.1635	10464.87	3.8600	3.8599	-0.6955	6.04	0.05	-0.750			
0.1656	10598.43	3.8570	3.8570	-0.7002	6.04	0.05	-0.750			
0.1677	10734.93	3.8540	3.8541	-0.7023	6.05	0.06	-0.750			
0.1698	10869.88	3.8510	3.8510	-0.7034	6.06	0.07	-0.750			
0.1719	11003.56	3.8480	3.8480	-0.7039	6.06	0.07	-0.750			
0.1740	11138.59	3.8450	3.8450	-0.7065	6.07	0.08	-0.750			
0.1762	11275.59	3.8420	3.8420	-0.7069	6.08	0.09	-0.750			
0.1783	11411.39	3.8390	3.8390	-0.7079	6.08	0.09	-0.750			
0.1804	11548.37	3.8360	3.8361	-0.7074	6.09	0.10	-0.750			
0.1826	11684.61	3.8330	3.8330	-0.7099	6.10	0.11	-0.750			
0.1847	11819.63	3.8300	3.8299	-0.7081	6.10	0.11	-0.750			
0.1868	11955.02	3.8270	3.8271	-0.7104	6.11	0.12	-0.750			
0.1889	12092.03	3.8240	3.8239	-0.7102	6.12	0.13	-0.750			
0.1911	12228.71	3.8210	3.8210	-0.7127	6.13	0.14	-0.750			
0.1932	12365.02	3.8180	3.8180	-0.7128	6.13	0.14	-0.750			
0.1953	12502.13	3.8150	3.8150	-0.7143	6.14	0.15	-0.750			
0.1977	12650.49	3.8120	3.8118	-0.6894	6.15	0.16	-0.750			
0.1998	12788.55	3.8090	3.8087	-0.6396	6.15	0.16	-0.750			
0.2018	12914.27	3.8060	3.8061	-0.5871	6.16	0.17	-0.750			
0.2034	13018.11	3.8030	3.8038	-0.5522	6.16	0.17	-0.750			
0.2048	13107.86	3.8000	3.8013	-0.5171	6.17	0.18	-0.750			
0.2060	13186.50	3.7970	3.7958	-0.5453	6.17	0.18	-0.750			
0.2075	13278.01	3.7940	3.7937	-0.5649	6.18	0.19	-0.750			
0.2092	13390.45	3.7910	3.7912	-0.6391	6.18	0.19	-0.750			
0.2115	13537.37	3.7880	3.7881	-0.7001	6.19	0.20	-0.750			
0.2139	13687.60	3.7850	3.7848	-0.7370	6.20	0.21	-0.750			
0.2161	13830.98	3.7820	3.7818	-0.7321	6.21	0.22	-0.750			
0.2183	13972.13	3.7790	3.7790	-0.7324	6.21	0.22	-0.750			
0.2205	14110.19	3.7760	3.7759	-0.7292	6.22	0.23	-0.750			
0.2226	14247.69	3.7730	3.7728	-0.7346	6.23	0.24	-0.750			
0.2248	14384.16	3.7700	3.7700	-0.7329	6.23	0.24	-0.750			
0.2271	14534.01	3.7670	3.7671	-0.7490	6.24	0.25	-0.750			
0.2294	14680.17	3.7640	3.7640	-0.7521	6.25	0.26	-0.750			
0.2316	14824.10	3.7610	3.7610	-0.7598	6.25	0.26	-0.750			
0.2338	14966.18	3.7580	3.7581	-0.7658	6.26	0.27	-0.750			
0.2362	15116.02	3.7550	3.7548	-0.7642	6.26	0.27	-0.750			
0.2385	15261.98	3.7520	3.7520	-0.7656	6.27	0.28	-0.750			
0.2408	15411.99	3.7490	3.7490	-0.7722	6.28	0.29	-0.750			
0.2432	15562.24	3.7460	3.7461	-0.7697	6.28	0.29	-0.750			
0.2454	15705.50	3.7430	3.7430	-0.7913	6.29	0.30	-0.750			
0.2478	15860.70	3.7400	3.7399	-0.7857	6.29	0.30	-0.750			
0.2502	16013.51	3.7370	3.7368	-0.7860	6.30	0.31	-0.750			
0.2526	16166.55	3.7340	3.7352	-0.7978	6.30	0.31	-0.750			
0.2550	16318.81	3.7310	3.7314	-0.8031	6.31	0.32	-0.750			
0.2574	16473.97	3.7280	3.7277	-0.8047	6.32	0.33	-0.750			
0.2598	16625.04	3.7250	3.7249	-0.8173	6.32	0.33	-0.750			
0.2621	16777.47	3.7220	3.7223	-0.8381	6.33	0.34	-0.750			
0.2648	16948.28	3.7190	3.7188	-0.8666	6.33	0.34	-0.750			
0.2674	17116.80	3.7160	3.7163	-0.8823	6.34	0.35	-0.750			
0.2701	17287.08	3.7130	3.7129	-0.8932	6.34	0.35	-0.750			
0.2729	17464.19	3.7100	3.7103	-0.8901	6.34	0.35	-0.750			
0.2756	17640.00	3.7070	3.7069	-0.8873	6.35	0.36	-0.750			
0.2782	17806.41	3.7040	3.7041	-0.8818	6.35	0.36	-0.750			
0.2808	17972.08	3.7010	3.7010	-0.8655	6.35	0.36	-0.750			
0.2834	18137.71	3.6980	3.6980	-0.8713	6.36	0.37	-0.750			
0.2860	18302.21	3.6950	3.6948	-0.8682	6.37	0.38	-0.750			
0.2886	18468.67	3.6920	3.6922	-0.8843	6.38	0.39	-0.750			
0.2913	18642.18	3.6890	3.6889	-0.8993	6.39	0.40	-0.750			
0.2940	18814.46	3.6860	3.6856	-0.9075	6.39	0.40	-0.750			
0.2967	18989.71	3.6830	3.6830	-0.9129	6.40	0.41	-0.750			
0.2995	19165.23	3.6800	3.6801	-0.9160	6.40	0.41	-0.750			
0.3022	19343.93	3.6770	3.6769	-0.9282	6.41	0.42	-0.750			
0.3050	19519.42	3.6740	3.6741	-0.9274	6.41	0.42	-0.750			
0.3078	19697.49	3.6710	3.6710	-0.9320	6.41	0.42	-0.750			
0.3106	19877.77	3.6680	3.6679	-0.9437	6.42	0.43	-0.750			
0.3135	20061.98	3.6650	3.6649	-0.9394	6.42	0.43	-0.750			
0.3163	20242.86	3.6620	3.6620	-0.9469	6.43	0.44	-0.750			
0.3191	20425.16	3.6590	3.6588	-0.9440	6.43	0.44	-0.750			
0.3220	20605.41	3.6560	3.6559	-0.9553	6.44	0.45	-0.750			
0.3248	20788.09	3.6530	3.6530	-0.9513	6.44	0.45	-0.750			
0.3277	20969.64	3.6500	3.6499	-0.9540	6.45	0.46	-0.750			
0.3306	21156.40	3.6470	3.6474	-0.9628	6.45	0.46	-0.750			
0.3335	21343.05	3.6440	3.6437	-0.9849	6.46	0.47	-0.750			
0.3364	21530.97	3.6410	3.6410	-0.9872	6.46	0.47	-0.750			
0.3394	21720.43	3.6380	3.6379	-0.9974	6.46	0.47	-0.750			
0.3424	21913.67	3.6350	3.6354	-1.0220	6.47	0.48	-0.750			
0.3455	22114.62	3.6320	3.6319	-1.0246	6.47	0.48	-0.750			
0.3486	22311.88	3.6290	3.6289	-1.0251	6.48	0.49	-0.750			
0.3517	22507.94	3.6260	3.6260	-1.0252	6.48	0.49	-0.750			
0.3547	22698.81	3.6230	3.6231	-1.0489	6.49	0.50	-0.750			
0.3578	22902.33	3.6200	3.6198	-1.0557	6.49	0.50	-0.750			
0.3610	23106.72	3.6170	3.6169	-1.0595	6.50	0.51	-0.750			
0.3642	23311.50	3.6140	3.6139	-1.0703	6.50	0.51	-0.750			
0.3675	23522.99	3.6110	3.6115	-1.0883	6.51	0.52	-0.750			
0.3708	23731.79	3.6080	3.6080	-1.0796	6.51	0.52	-0.750			
0.3740	23935.40	3.6050	3.6049	-1.0786	6.52	0.53	-0.750			
0.3772	24139.33	3.6020	3.6020	-1.0816	6.52	0.53	-0.750			
0.3804	24343.91	3.5990	3.5994	-1.1053	6.52	0.53	-0.750			
0.3837	24559.76	3.5960	3.5958	-1.1174	6.52	0.53	-0.750			
0.3871	24777.48	3.5930	3.5931	-1.1292	6.53	0.54	-0.750			
0.3905	24994.17	3.5900	3.5898	-1.1598	6.53	0.54	-0.750			
0.3941	25225.24	3.5870	3.5870	-1.1702	6.53	0.54	-0.750			
0.3977	25452.69	3.5840	3.5837	-1.1625	6.54	0.55	-0.750			
0.4012	25675.16	3.5810	3.5808	-1.1611	6.54	0.55	-0.750			
0.4046	25892.65	3.5780	3.5783	-1.1540	6.55	0.56	-0.750	0.438	1.066	
0.4081	26121.29	3.5750	3.5747	-1.1849	6.55	0.56	-0.750			
0.4117	26347.92	3.5720	3.5718	-1.1859	6.56	0.57	-0.750			
0.4151	26566.47	3.5690	3.5690	-1.1997	6.57	0.58	-0.750			
0.4189	26806.73	3.5660	3.5661	-1.2185	6.57	0.58	-0.750			
0.4226	27048.48	3.5630	3.5629	-1.2299	6.58	0.59	-0.750			
0.4263	27283.24	3.5600	3.5598	-1.2287	6.58	0.59	-0.750			
0.4299	27513.02	3.5570	3.5576	-1.2338	6.59	0.60	-0.750			
0.4337	27758.47	3.5540	3.5539	-1.2609	6.59	0.60	-0.750			
0.4375	28001.85	3.5510	3.5509	-1.2664	6.60	0.61	-0.750			
0.4413	28245.88	3.5480	3.5479	-1.2794	6.60	0.61	-0.750			
0.4453	28499.72	3.5450	3.5450	-1.2861	6.60	0.61	-0.750			
0.4491	28744.32	3.5420	3.5419	-1.3078	6.61	0.62	-0.750			
0.4530	28991.71	3.5390	3.5390	-1.3300	6.62	0.63	-0.750			
0.4571	29253.30	3.5360	3.5354	-1.3186	6.62	0.63	-0.750			
0.4611	29511.56	3.5330	3.5333	-1.3367	6.63	0.64	-0.750			
0.4651	29765.50	3.5300	3.5298	-1.3560	6.64	0.65	-0.750			
0.4691	30024.71	3.5270	3.5269	-1.3511	6.64	0.65	-0.750			
0.4733	30291.50	3.5240	3.5238	-1.3613	6.64	0.65	-0.750			
0.4773	30550.37	3.5210	3.5207	-1.3800	6.65	0.66	-0.750			
0.4815	30815.33	3.5180	3.5178	-1.3691	6.65	0.66	-0.750			
0.4858	31089.85	3.5150	3.5148	-1.4092	6.67	0.68	-0.750			
0.4899	31355.51	3.5120	3.5118	-1.4150	6.68	0.69	-0.750			
0.4943	31634.92	3.5090	3.5086	-1.4339	6.69	0.70	-0.750			
0.4987	31918.27	3.5060	3.5061	-1.3807	6.70	0.71	-0.750			
0.5027	32172.67	3.5030	3.5029	-1.3547	6.71	0.72	-0.750			
0.5065	32418.02	3.5000	3.5005	-1.3048	6.71	0.72	-0.750			
0.5105	32671.64	3.4970	3.4967	-1.3152	6.72	0.73	-0.750			
0.5141	32901.25	3.4940	3.4934	-1.3471	6.72	0.73	-0.750			
0.5182	33165.14	3.4910	3.4914	-1.3536	6.73	0.74	-0.750			
0.5224	33436.68	3.4880	3.4879	-1.3922	6.73	0.74	-0.750			
0.5269	33722.02	3.4850	3.4854	-1.4545	6.73	0.74	-0.750			
0.5312	33995.43	3.4820	3.4821	-1.4375	6.73	0.74	-0.750			
0.5356	34280.94	3.4790	3.4788	-1.4446	6.75	0.76	-0.750			
0.5399	34553.13	3.4760	3.4757	-1.4552	6.76	0.77	-0.750			
0.5443	34838.06	3.4730	3.4729	-1.4620	6.77	0.78	-0.750			
0.5488	35123.52	3.4700	3.4697	-1.4844	6.78	0.79	-0.750			
0.5533	35409.28	3.4670	3.4667	-1.4785	6.80	0.81	-0.750			
0.5576	35686.45	3.4640	3.4638	-1.4458	6.81	0.82	-0.750			
0.5621	35976.32	3.4610	3.4615	-1.4432	6.82	0.83	-0.750			
0.5664	36250.05	3.4580	3.4578	-1.4374	6.83	0.84	-0.750			
0.5706	36516.36	3.4550	3.4551	-1.4134	6.84	0.85	-0.750			
0.5748	36789.97	3.4520	3.4518	-1.4210	6.85	0.86	-0.750			
0.5792	37068.81	3.4490	3.4491	-1.4373	6.87	0.88	-0.750			
0.5835	37340.83	3.4460	3.4459	-1.4314	6.88	0.89	-0.750			
0.5879	37624.91	3.4430	3.4429	-1.4224	6.89	0.90	-0.750			
0.5922	37898.13	3.4400	3.4405	-1.3980	6.91	0.92	-0.750			
0.5962	38159.17	3.4370	3.4366	-1.3607	6.93	0.94	-0.750			
0.6003	38421.53	3.4340	3.4343	-1.3465	6.95	0.96	-0.750			
0.6043	38675.56	3.4310	3.4310	-1.3391	6.97	0.98	-0.750			
0.6084	38940.26	3.4280	3.4277	-1.3336	6.98	0.99	-0.750			
0.6123	39186.36	3.4250	3.4249	-1.2904	6.99	1.00	-0.750			
0.6163	39443.21	3.4220	3.4223	-1.2755	7.01	1.02	-0.750			
0.6201	39685.82	3.4190	3.4187	-1.2438	7.02	1.03	-0.750			
0.6238	39921.03	3.4160	3.4158	-1.2106	7.04	1.05	-0.750			
0.6273	40147.22	3.4130	3.4129	-1.1724	7.06	1.07	-0.750			
0.6306	40358.42	3.4100	3.4103	-1.1700	7.07	1.08	-0.750			
0.6341	40585.51	3.4070	3.4070	-1.1829	7.08	1.09	-0.750			
0.6378	40817.47	3.4040	3.4037	-1.1755	7.09	1.10	-0.750			
0.6414	41052.64	3.4010	3.4004	-1.1516	7.11	1.12	-0.750			
0.6450	41279.86	3.3980	3.3990	-1.1280	7.12	1.13	-0.750			
0.6483	41492.15	3.3950	3.3941	-1.0777	7.14	1.15	-0.750			
0.6514	41691.23	3.3920	3.3906	-1.0439	7.15	1.16	-0.750			
0.6544	41881.54	3.3890	3.3886	-1.0025	7.17	1.18	-0.750			
0.6573	42068.48	3.3860	3.3864	-0.9795	7.18	1.19	-0.750			
0.6603	42256.70	3.3830	3.3817	-0.9601	7.19	1.20	-0.750			
0.6632	42441.76	3.3800	3.3790	-0.9358	7.21	1.22	-0.750			
0.6660	42621.88	3.3770	3.3767	-0.9013	7.22	1.23	-0.750			
0.6686	42789.58	3.3740	3.3733	-0.8668	7.24	1.25	-0.750			
0.6710	42947.18	3.3710	3.3705	-0.8446	7.25	1.26	-0.750			
0.6736	43110.26	3.3680	3.3672	-0.8123	7.27	1.28	-0.750			
0.6760	43266.56	3.3650	3.3644	-0.7977	7.28	1.29	-0.750			
0.6784	43414.77	3.3620	3.3614	-0.7814	7.30	1.31	-0.750			
0.6806	43561.59	3.3590	3.3585	-0.7614	7.31	1.32	-0.750			
0.6829	43706.10	3.3560	3.3558	-0.7447	7.32	1.33	-0.750			
0.6851	43843.80	3.3530	3.3527	-0.7302	7.33	1.34	-0.750			
0.6873	43984.82	3.3500	3.3499	-0.7228	7.34	1.35	-0.750			
0.6895	44130.08	3.3470	3.3468	-0.7096	7.36	1.37	-0.750			
0.6916	44259.73	3.3440	3.3438	-0.6769	7.37	1.38	-0.750			
0.6935	44387.05	3.3410	3.3409	-0.6587	7.38	1.39	-0.750			
0.6955	44514.37	3.3380	3.3379	-0.6493	7.39	1.40	-0.750			
0.6974	44632.07	3.3350	3.3349	-0.6370	7.40	1.41	-0.750			
0.6992	44749.62	3.3320	3.3322	-0.6218	7.41	1.42	-0.750			
0.7012	44874.30	3.3290	3.3288	-0.6173	7.42	1.43	-0.750			
0.7030	44993.37	3.3260	3.3257	-0.6088	7.44	1.45	-0.750			
0.7049	45110.49	3.3230	3.3234	-0.5908	7.45	1.46	-0.750			
0.7066	45222.51	3.3200	3.3199	-0.5701	7.46	1.47	-0.750			
0.7083	45331.10	3.3170	3.3169	-0.5372	7.47	1.48	-0.750			
0.7099	45430.45	3.3140	3.3140	-0.4911	7.48	1.49	-0.750			
