Ah_balance (normalized)	Ah_balance (mAh)	Voltage - fit (V)	Voltage -  interpolate (V)	dQ/dV (1/V)	Temperature (°C)	Temperature - diff (°C)	Current (C)	R_DC 0ms (mOhm)	R_DC 50ms (mOhm)	R_DC 50 ms PEC (mOhm)
0.1802	11532.78	4.0790	4.0789	0.7572	7.80	1.83	0.750			
0.1825	11676.83	4.0760	4.0760	0.7557	7.80	1.83	0.750			
0.1847	11822.77	4.0730	4.0730	0.7635	7.79	1.82	0.750			
0.1870	11969.93	4.0700	4.0701	0.7713	7.79	1.82	0.750			
0.1894	12118.96	4.0670	4.0668	0.7784	7.79	1.82	0.750			
0.1917	12270.10	4.0640	4.0640	0.7855	7.79	1.82	0.750			
0.1941	12421.19	4.0610	4.0610	0.7858	7.79	1.82	0.750			
0.1964	12572.32	4.0580	4.0581	0.7930	7.78	1.81	0.750			
0.1988	12725.76	4.0550	4.0550	0.7919	7.78	1.81	0.750			
0.2012	12878.69	4.0520	4.0518	0.7923	7.78	1.81	0.750			
0.2036	13029.77	4.0490	4.0490	0.7956	7.78	1.81	0.750			
0.2060	13184.46	4.0460	4.0461	0.7904	7.77	1.80	0.750			
0.2084	13335.35	4.0430	4.0429	0.7988	7.76	1.79	0.750			
0.2108	13488.32	4.0400	4.0400	0.8043	7.76	1.79	0.750			
0.2132	13642.07	4.0370	4.0371	0.8037	7.75	1.78	0.750			
0.2156	13798.87	4.0340	4.0341	0.8080	7.75	1.78	0.750			
0.2181	13956.42	4.0310	4.0310	0.8066	7.74	1.77	0.750			
0.2205	14109.01	4.0280	4.0281	0.8117	7.73	1.76	0.750			
0.2229	14265.62	4.0250	4.0250	0.8203	7.72	1.75	0.750			
0.2253	14420.76	4.0220	4.0219	0.8183	7.71	1.74	0.750			
0.2278	14579.63	4.0190	4.0191	0.8237	7.71	1.74	0.750			
0.2303	14741.77	4.0160	4.0161	0.8252	7.70	1.73	0.750			
0.2328	14898.96	4.0130	4.0130	0.8301	7.69	1.72	0.750			
0.2353	15058.00	4.0100	4.0100	0.8368	7.68	1.71	0.750			
0.2378	15216.04	4.0070	4.0070	0.8360	7.67	1.70	0.750			
0.2403	15377.96	4.0040	4.0041	0.8439	7.67	1.70	0.750			
0.2429	15543.21	4.0010	4.0010	0.8462	7.66	1.69	0.750			
0.2454	15705.12	3.9980	3.9981	0.8551	7.65	1.68	0.750			
0.2480	15871.35	3.9950	3.9950	0.8637	7.64	1.67	0.750			
0.2505	16035.00	3.9920	3.9920	0.8610	7.63	1.66	0.750			
0.2532	16201.92	3.9890	3.9890	0.8647	7.63	1.66	0.750			
0.2558	16370.63	3.9860	3.9861	0.8616	7.62	1.65	0.750			
0.2584	16535.78	3.9830	3.9830	0.8628	7.61	1.64	0.750			
0.2610	16702.29	3.9800	3.9801	0.8647	7.60	1.63	0.750			
0.2635	16863.63	3.9770	3.9768	0.8610	7.59	1.62	0.750			
0.2661	17029.81	3.9740	3.9740	0.8692	7.58	1.61	0.750			
0.2687	17197.32	3.9710	3.9710	0.8708	7.58	1.61	0.750			
0.2713	17364.89	3.9680	3.9681	0.8786	7.57	1.60	0.750			
0.2740	17535.59	3.9650	3.9650	0.8908	7.56	1.59	0.750			
0.2766	17705.39	3.9620	3.9617	0.8910	7.55	1.58	0.750			
0.2793	17876.78	3.9590	3.9591	0.8951	7.54	1.57	0.750			
0.2820	18049.44	3.9560	3.9560	0.9054	7.53	1.56	0.750			
0.2848	18226.80	3.9530	3.9530	0.9114	7.52	1.55	0.750			
0.2875	18401.20	3.9500	3.9500	0.9125	7.52	1.55	0.750			
0.2903	18577.58	3.9470	3.9471	0.9170	7.51	1.54	0.750			
0.2931	18755.66	3.9440	3.9440	0.9100	7.50	1.53	0.750			
0.2957	18926.73	3.9410	3.9410	0.9222	7.49	1.52	0.750			
0.2985	19102.38	3.9380	3.9381	0.9238	7.48	1.51	0.750			
0.3012	19279.13	3.9350	3.9346	0.9326	7.47	1.50	0.750			
0.3041	19463.24	3.9320	3.9320	0.9395	7.46	1.49	0.750			
0.3069	19642.87	3.9290	3.9293	0.9511	7.45	1.48	0.750			
0.3098	19829.87	3.9260	3.9260	0.9654	7.44	1.47	0.750			
0.3127	20013.33	3.9230	3.9230	0.9663	7.43	1.46	0.750			
0.3156	20200.52	3.9200	3.9201	0.9671	7.42	1.45	0.750			
0.3186	20388.06	3.9170	3.9170	0.9806	7.41	1.44	0.750			
0.3215	20575.68	3.9140	3.9140	0.9877	7.39	1.42	0.750			
0.3245	20767.01	3.9110	3.9110	1.0038	7.38	1.41	0.750			
0.3275	20959.84	3.9080	3.9079	1.0075	7.37	1.40	0.750			
0.3305	21154.70	3.9050	3.9050	1.0176	7.36	1.39	0.750			
0.3336	21350.80	3.9020	3.9020	1.0282	7.35	1.38	0.750			
0.3367	21551.39	3.8990	3.8992	1.0421	7.35	1.38	0.750			
0.3399	21755.34	3.8960	3.8960	1.0388	7.34	1.37	0.750			
0.3430	21952.22	3.8930	3.8930	1.0512	7.32	1.35	0.750			
0.3461	22150.74	3.8900	3.8901	1.0618	7.31	1.34	0.750			
0.3493	22357.58	3.8870	3.8871	1.0787	7.30	1.33	0.750			
0.3526	22569.05	3.8840	3.8838	1.0824	7.29	1.32	0.750			
0.3559	22776.29	3.8810	3.8811	1.1022	7.28	1.31	0.750			
0.3592	22989.80	3.8780	3.8781	1.1224	7.27	1.30	0.750			
0.3626	23207.08	3.8750	3.8749	1.1443	7.25	1.28	0.750			
0.3661	23427.60	3.8720	3.8721	1.1433	7.24	1.27	0.750			
0.3695	23648.92	3.8690	3.8691	1.1585	7.22	1.25	0.750			
0.3730	23873.99	3.8660	3.8661	1.1803	7.21	1.24	0.750			
0.3766	24105.09	3.8630	3.8626	1.1921	7.19	1.22	0.750			
0.3802	24331.59	3.8600	3.8600	1.2042	7.17	1.20	0.750			
0.3838	24563.42	3.8570	3.8571	1.2235	7.16	1.19	0.750			
0.3876	24804.31	3.8540	3.8539	1.2353	7.14	1.17	0.750			
0.3913	25041.46	3.8510	3.8511	1.2511	7.12	1.15	0.750			
0.3951	25283.54	3.8480	3.8480	1.2720	7.11	1.14	0.750			
0.3990	25538.57	3.8450	3.8451	1.2612	7.10	1.13	0.750			
0.4027	25773.60	3.8420	3.8420	1.2980	7.09	1.12	0.750			
0.4066	26021.97	3.8390	3.8392	1.3125	7.07	1.10	0.750			
0.4105	26272.00	3.8360	3.8355	1.3386	7.05	1.08	0.750	0.402	0.918	
0.4146	26531.54	3.8330	3.8330	1.3405	7.04	1.07	0.750			
0.4183	26771.16	3.8300	3.8311	1.3988	7.02	1.05	0.750			
0.4226	27043.28	3.8270	3.8285	1.5100	7.01	1.04	0.750			
0.4273	27349.74	3.8240	3.8224	1.5608	6.99	1.02	0.750			
0.4319	27642.53	3.8210	3.8221	1.5813	6.97	1.00	0.750			
0.4373	27986.57	3.8180	3.8184	1.6163	6.95	0.98	0.750			
0.4422	28302.51	3.8150	3.8146	1.6017	6.93	0.96	0.750			
0.4467	28588.77	3.8120	3.8119	1.5863	6.91	0.94	0.750			
0.4515	28894.19	3.8090	3.8085	1.7597	6.89	0.92	0.750			
0.4570	29247.12	3.8060	3.8057	1.9662	6.86	0.89	0.750			
0.4632	29641.88	3.8030	3.8031	1.8856	6.83	0.86	0.750			
0.4687	29999.27	3.8000	3.8006	1.9069	6.81	0.84	0.750			
0.4742	30351.12	3.7970	3.7978	1.8570	6.78	0.81	0.750			
0.4796	30697.12	3.7940	3.7945	1.8357	6.76	0.79	0.750			
0.4853	31057.84	3.7910	3.7913	1.8592	6.73	0.76	0.750			
0.4914	31452.01	3.7880	3.7880	1.8448	6.70	0.73	0.750			
0.4967	31791.26	3.7850	3.7849	1.8575	6.69	0.72	0.750			
0.5024	32154.53	3.7820	3.7819	1.8849	6.67	0.70	0.750			
0.5080	32514.66	3.7790	3.7786	1.9387	6.64	0.67	0.750			
0.5140	32897.36	3.7760	3.7759	1.9603	6.61	0.64	0.750			
0.5199	33274.09	3.7730	3.7731	1.9664	6.58	0.61	0.750			
0.5258	33648.12	3.7700	3.7700	2.0051	6.55	0.58	0.750			
0.5320	34048.85	3.7670	3.7670	2.0332	6.52	0.55	0.750			
0.5381	34437.25	3.7640	3.7640	2.0500	6.49	0.52	0.750			
0.5443	34835.61	3.7610	3.7610	2.0817	6.46	0.49	0.750			
0.5507	35242.53	3.7580	3.7578	2.1143	6.43	0.46	0.750			
0.5570	35645.36	3.7550	3.7550	2.1280	6.40	0.43	0.750			
0.5635	36065.98	3.7520	3.7523	2.1786	6.37	0.40	0.750			
0.5700	36477.99	3.7490	3.7490	2.2107	6.34	0.37	0.750			
0.5766	36903.81	3.7460	3.7459	2.2855	6.31	0.34	0.750			
0.5837	37358.95	3.7430	3.7429	2.3809	6.28	0.31	0.750			
0.5910	37825.62	3.7400	3.7400	2.4368	6.25	0.28	0.750			
0.5984	38294.53	3.7370	3.7371	2.4552	6.22	0.25	0.750			
0.6057	38763.78	3.7340	3.7339	2.5113	6.19	0.22	0.750			
0.6133	39251.30	3.7310	3.7309	2.5518	6.15	0.18	0.750			
0.6212	39756.25	3.7280	3.7280	2.5844	6.12	0.15	0.750			
0.6290	40253.29	3.7250	3.7250	2.5374	6.09	0.12	0.750			
0.6364	40730.22	3.7220	3.7220	2.4436	6.06	0.09	0.750			
0.6436	41189.76	3.7190	3.7190	2.3258	6.04	0.07	0.750			
0.6504	41627.43	3.7160	3.7160	2.1708	6.03	0.06	0.750			
0.6567	42031.21	3.7130	3.7131	1.9977	6.01	0.04	0.750			
0.6625	42399.50	3.7100	3.7099	1.8105	6.00	0.03	0.750			
0.6675	42721.44	3.7070	3.7071	1.6163	5.98	0.01	0.750			
0.6719	43004.18	3.7040	3.7042	1.4207	5.98	0.01	0.750			
0.6760	43263.79	3.7010	3.7007	1.2836	5.97	0.00	0.750			
0.6795	43489.11	3.6980	3.6980	1.1480	5.97	-0.00	0.750			
0.6827	43693.07	3.6950	3.6950	1.0619	5.96	-0.01	0.750			
0.6857	43882.85	3.6920	3.6920	0.9890	5.96	-0.01	0.750			
0.6885	44066.63	3.6890	3.6888	0.9531	5.95	-0.02	0.750			
0.6912	44237.54	3.6860	3.6860	0.8982	5.95	-0.02	0.750			
0.6939	44407.70	3.6830	3.6830	0.8691	5.95	-0.02	0.750			
0.6964	44571.81	3.6800	3.6800	0.8391	5.95	-0.02	0.750			
0.6989	44730.76	3.6770	3.6770	0.8065	5.95	-0.02	0.750			
0.7013	44882.15	3.6740	3.6740	0.7753	5.95	-0.02	0.750			
0.7036	45028.70	3.6710	3.6709	0.7451	5.95	-0.02	0.750			
0.7057	45167.75	3.6680	3.6681	0.7175	5.96	-0.01	0.750			
0.7079	45306.24	3.6650	3.6649	0.6770	5.96	-0.01	0.750			
0.7099	45434.41	3.6620	3.6619	0.6334	5.96	-0.01	0.750			
0.7117	45550.60	3.6590	3.6593	0.5924	5.97	-0.00	0.750			
0.7134	45660.05	3.6560	3.6563	0.5487	5.97	-0.00	0.750			
0.7150	45759.02	3.6530	3.6528	0.5097	5.97	0.00	0.750			
0.7164	45850.14	3.6500	3.6500	0.4681	5.97	0.00	0.750			
0.7177	45935.73	3.6470	3.6472	0.4333	5.98	0.01	0.750			
0.7191	46021.63	3.6440	3.6440	0.4098	5.98	0.01	0.750			
0.7202	46095.00	3.6410	3.6410	0.3709	5.98	0.01	0.750			
0.7213	46162.02	3.6380	3.6379	0.3358	5.98	0.01	0.750			
0.7222	46223.49	3.6350	3.6350	0.3032	5.98	0.01	0.750			
0.7231	46279.01	3.6320	3.6319	0.2658	5.98	0.01	0.750			
0.7239	46327.54	3.6290	3.6289	0.2330	5.99	0.02	0.750			
0.7245	46369.03	3.6260	3.6261	0.1962	5.99	0.02	0.750			
0.7251	46404.31	3.6230	3.6231	0.1591	5.99	0.02	0.750			
0.7255	46431.45	3.6200	3.6203	0.1182	5.99	0.02	0.750			
0.7258	46450.43	3.6170	3.6177	0.0753	5.99	0.02	0.750			
0.7259	46460.78	3.6140	3.6155	0.0311	5.99	0.02	0.750			
