Ah_balance (normalized)	Ah_balance (mAh)	Voltage - fit (V)	Voltage -  interpolate (V)	dQ/dV (1/V)	Temperature (°C)	Temperature - diff (°C)	Current (C)	R_DC 0ms (mOhm)	R_DC 50ms (mOhm)	R_DC 50 ms PEC (mOhm)
-0.0425	-2719.34	4.1990	4.1990	50.7615	25.47	1.26	0.091			
0.0057	365.89	4.1960	4.1979	1.3273	25.35	1.14	0.750			
0.0090	578.33	4.1930	4.1936	1.1077	25.33	1.12	0.750			
0.0120	767.62	4.1900	4.1900	0.9221	25.32	1.11	0.750			
0.0143	917.61	4.1870	4.1870	0.7948	25.31	1.10	0.750			
0.0167	1070.77	4.1840	4.1840	0.7934	25.30	1.09	0.750			
0.0191	1222.85	4.1810	4.1810	0.7908	25.29	1.08	0.750			
0.0215	1373.12	4.1780	4.1780	0.7924	25.29	1.08	0.750			
0.0238	1525.90	4.1750	4.1750	0.7918	25.28	1.07	0.750			
0.0262	1679.15	4.1720	4.1720	0.7901	25.27	1.06	0.750			
0.0286	1830.18	4.1690	4.1690	0.7908	25.26	1.05	0.750			
0.0310	1981.90	4.1660	4.1661	0.7929	25.25	1.04	0.750			
0.0333	2134.06	4.1630	4.1630	0.7946	25.24	1.03	0.750			
0.0357	2285.94	4.1600	4.1599	0.7944	25.23	1.02	0.750			
0.0381	2438.15	4.1570	4.1570	0.7948	25.22	1.01	0.750			
0.0405	2592.98	4.1540	4.1540	0.7964	25.21	1.00	0.750			
0.0429	2744.78	4.1510	4.1510	0.7969	25.21	1.00	0.750			
0.0453	2897.42	4.1480	4.1480	0.7941	25.20	0.99	0.750			
0.0477	3049.94	4.1450	4.1449	0.7966	25.19	0.98	0.750			
0.0500	3202.49	4.1420	4.1420	0.7979	25.18	0.97	0.750			
0.0524	3356.32	4.1390	4.1390	0.7998	25.17	0.96	0.750			
0.0549	3510.51	4.1360	4.1360	0.8041	25.16	0.95	0.750			
0.0573	3664.99	4.1330	4.1330	0.8039	25.14	0.93	0.750			
0.0597	3819.41	4.1300	4.1300	0.8050	25.13	0.92	0.750			
0.0621	3974.95	4.1270	4.1270	0.8074	25.12	0.91	0.750			
0.0645	4129.92	4.1240	4.1240	0.8057	25.12	0.91	0.750			
0.0669	4284.71	4.1210	4.1210	0.8067	25.11	0.90	0.750			
0.0694	4439.40	4.1180	4.1180	0.8078	25.10	0.89	0.750			
0.0718	4593.96	4.1150	4.1150	0.8065	25.09	0.88	0.750			
0.0742	4748.77	4.1120	4.1120	0.8105	25.09	0.88	0.750			
0.0766	4904.76	4.1090	4.1090	0.8109	25.08	0.87	0.750			
0.0791	5060.56	4.1060	4.1060	0.8140	25.07	0.86	0.750			
0.0815	5217.45	4.1030	4.1030	0.8167	25.06	0.85	0.750			
0.0840	5374.11	4.1000	4.1001	0.8177	25.05	0.84	0.750			
0.0864	5531.56	4.0970	4.0970	0.8199	25.05	0.84	0.750			
0.0889	5689.50	4.0940	4.0940	0.8228	25.04	0.83	0.750			
0.0914	5847.23	4.0910	4.0910	0.8244	25.03	0.82	0.750			
0.0938	6006.23	4.0880	4.0880	0.8273	25.02	0.81	0.750			
0.0963	6165.08	4.0850	4.0850	0.8280	25.01	0.80	0.750			
0.0988	6324.00	4.0820	4.0820	0.8300	25.01	0.80	0.750			
0.1013	6483.48	4.0790	4.0790	0.8310	25.00	0.79	0.750			
0.1038	6642.58	4.0760	4.0760	0.8338	24.99	0.78	0.750			
0.1063	6802.70	4.0730	4.0730	0.8367	24.98	0.77	0.750			
0.1088	6964.36	4.0700	4.0700	0.8398	24.97	0.76	0.750			
0.1113	7125.75	4.0670	4.0670	0.8431	24.96	0.75	0.750			
0.1139	7288.19	4.0640	4.0640	0.8455	24.95	0.74	0.750			
0.1164	7449.91	4.0610	4.0610	0.8506	24.94	0.73	0.750			
0.1190	7613.72	4.0580	4.0580	0.8546	24.93	0.72	0.750			
0.1215	7777.67	4.0550	4.0550	0.8559	24.92	0.71	0.750			
0.1241	7943.22	4.0520	4.0520	0.8597	24.91	0.70	0.750			
0.1267	8109.89	4.0490	4.0491	0.8622	24.90	0.69	0.750			
0.1293	8275.01	4.0460	4.0460	0.8626	24.89	0.68	0.750			
0.1319	8440.95	4.0430	4.0430	0.8629	24.88	0.67	0.750			
0.1345	8605.42	4.0400	4.0400	0.8626	24.87	0.66	0.750			
0.1371	8771.34	4.0370	4.0370	0.8655	24.87	0.66	0.750			
0.1397	8937.66	4.0340	4.0340	0.8674	24.86	0.65	0.750			
0.1422	9103.33	4.0310	4.0310	0.8737	24.85	0.64	0.750			
0.1449	9271.69	4.0280	4.0280	0.8795	24.85	0.64	0.750			
0.1475	9440.84	4.0250	4.0249	0.8857	24.84	0.63	0.750			
0.1502	9613.03	4.0220	4.0220	0.8892	24.83	0.62	0.750			
0.1529	9784.29	4.0190	4.0190	0.8919	24.82	0.61	0.750			
0.1556	9956.65	4.0160	4.0160	0.8949	24.82	0.61	0.750			
0.1583	10128.38	4.0130	4.0130	0.8963	24.81	0.60	0.750			
0.1609	10298.99	4.0100	4.0099	0.8959	24.80	0.59	0.750			
0.1636	10471.99	4.0070	4.0070	0.8984	24.79	0.58	0.750			
0.1663	10644.44	4.0040	4.0040	0.9015	24.79	0.58	0.750			
0.1690	10817.87	4.0010	4.0010	0.9064	24.78	0.57	0.750			
0.1718	10992.33	3.9980	3.9980	0.9096	24.77	0.56	0.750			
0.1745	11167.80	3.9950	3.9950	0.9116	24.76	0.55	0.750			
0.1772	11342.89	3.9920	3.9920	0.9138	24.76	0.55	0.750			
0.1800	11518.52	3.9890	3.9891	0.9181	24.75	0.54	0.750			
0.1827	11695.64	3.9860	3.9860	0.9214	24.74	0.53	0.750			
0.1855	11872.80	3.9830	3.9830	0.9216	24.73	0.52	0.750			
0.1883	12049.48	3.9800	3.9800	0.9226	24.72	0.51	0.750			
0.1910	12226.25	3.9770	3.9771	0.9286	24.71	0.50	0.750			
0.1938	12405.24	3.9740	3.9740	0.9335	24.70	0.49	0.750			
0.1966	12584.99	3.9710	3.9710	0.9358	24.69	0.48	0.750			
0.1995	12765.75	3.9680	3.9680	0.9355	24.69	0.48	0.750			
0.2023	12946.02	3.9650	3.9650	0.9398	24.68	0.47	0.750			
0.2051	13126.75	3.9620	3.9620	0.9412	24.68	0.47	0.750			
0.2079	13306.91	3.9590	3.9590	0.9406	24.67	0.46	0.750			
0.2107	13487.08	3.9560	3.9560	0.9404	24.67	0.46	0.750			
0.2136	13667.69	3.9530	3.9530	0.9431	24.66	0.45	0.750			
0.2164	13849.19	3.9500	3.9500	0.9468	24.65	0.44	0.750			
0.2192	14031.26	3.9470	3.9470	0.9492	24.64	0.43	0.750			
0.2221	14213.36	3.9440	3.9440	0.9488	24.63	0.42	0.750			
0.2249	14396.53	3.9410	3.9410	0.9495	24.62	0.41	0.750			
0.2278	14578.48	3.9380	3.9380	0.9557	24.61	0.40	0.750			
0.2307	14762.64	3.9350	3.9350	0.9590	24.60	0.39	0.750			
0.2335	14946.21	3.9320	3.9320	0.9617	24.60	0.39	0.750			
0.2364	15132.36	3.9290	3.9291	0.9638	24.59	0.38	0.750			
0.2393	15318.36	3.9260	3.9260	0.9671	24.58	0.37	0.750			
0.2423	15504.31	3.9230	3.9230	0.9691	24.57	0.36	0.750			
0.2452	15690.31	3.9200	3.9200	0.9703	24.57	0.36	0.750			
0.2481	15875.70	3.9170	3.9170	0.9696	24.56	0.35	0.750			
0.2510	16062.06	3.9140	3.9140	0.9736	24.55	0.34	0.750			
0.2539	16248.29	3.9110	3.9110	0.9776	24.55	0.34	0.750			
0.2568	16437.17	3.9080	3.9080	0.9839	24.54	0.33	0.750			
0.2598	16626.81	3.9050	3.9050	0.9842	24.53	0.32	0.750			
0.2628	16816.65	3.9020	3.9020	0.9854	24.52	0.31	0.750			
0.2657	17005.91	3.8990	3.8991	0.9906	24.51	0.30	0.750			
0.2687	17196.49	3.8960	3.8959	0.9922	24.50	0.29	0.750			
0.2717	17386.20	3.8930	3.8930	0.9941	24.49	0.28	0.750			
0.2746	17577.35	3.8900	3.8900	0.9994	24.48	0.27	0.750			
0.2777	17769.72	3.8870	3.8870	1.0048	24.47	0.26	0.750			
0.2807	17963.67	3.8840	3.8840	1.0109	24.46	0.25	0.750			
0.2837	18158.30	3.8810	3.8810	1.0134	24.45	0.24	0.750			
0.2868	18353.05	3.8780	3.8780	1.0132	24.45	0.24	0.750			
0.2898	18547.45	3.8750	3.8751	1.0220	24.44	0.23	0.750			
0.2929	18743.39	3.8720	3.8720	1.0277	24.43	0.22	0.750			
0.2960	18941.00	3.8690	3.8690	1.0336	24.42	0.21	0.750			
0.2991	19140.90	3.8660	3.8660	1.0392	24.41	0.20	0.750			
0.3022	19340.85	3.8630	3.8631	1.0479	24.40	0.19	0.750			
0.3054	19543.44	3.8600	3.8600	1.0558	24.39	0.18	0.750			
0.3085	19746.90	3.8570	3.8570	1.0635	24.38	0.17	0.750			
0.3117	19950.75	3.8540	3.8540	1.0655	24.37	0.16	0.750			
0.3149	20155.55	3.8510	3.8510	1.0741	24.36	0.15	0.750			
0.3182	20363.17	3.8480	3.8480	1.0811	24.35	0.14	0.750			
0.3214	20572.20	3.8450	3.8450	1.0887	24.34	0.13	0.750			
0.3247	20781.64	3.8420	3.8420	1.0870	24.34	0.13	0.750			
0.3280	20991.26	3.8390	3.8390	1.0902	24.33	0.12	0.750			
0.3313	21200.72	3.8360	3.8360	1.0913	24.32	0.11	0.750			
0.3346	21411.44	3.8330	3.8329	1.0903	24.31	0.10	0.750			
0.3378	21620.09	3.8300	3.8300	1.0828	24.30	0.09	0.750			
0.3411	21828.61	3.8270	3.8270	1.0770	24.29	0.08	0.750			
0.3443	22037.13	3.8240	3.8240	1.0650	24.28	0.07	0.750			
0.3475	22241.75	3.8210	3.8209	1.0479	24.27	0.06	0.750			
0.3506	22441.53	3.8180	3.8181	1.0222	24.26	0.05	0.750			
0.3537	22637.02	3.8150	3.8150	0.9853	24.25	0.04	0.750			
0.3567	22826.56	3.8120	3.8120	0.9456	24.24	0.03	0.750			
0.3595	23005.21	3.8090	3.8090	0.8900	24.23	0.02	0.750			
0.3621	23172.89	3.8060	3.8060	0.8337	24.23	0.02	0.750			
0.3645	23327.24	3.8030	3.8030	0.7706	24.22	0.01	0.750			
0.3667	23469.16	3.8000	3.8000	0.7043	24.22	0.01	0.750			
0.3687	23597.24	3.7970	3.7970	0.6430	24.22	0.01	0.750			
0.3705	23713.39	3.7940	3.7940	0.5868	24.21	0.00	0.750			
0.3722	23818.84	3.7910	3.7910	0.5338	24.21	0.00	0.750			
0.3737	23915.34	3.7880	3.7880	0.4894	24.21	-0.00	0.750			
0.3751	24003.41	3.7850	3.7850	0.4468	24.21	-0.00	0.750			
0.3763	24084.64	3.7820	3.7820	0.4117	24.20	-0.01	0.750			
0.3775	24159.97	3.7790	3.7790	0.3793	24.20	-0.01	0.750			
0.3786	24228.46	3.7760	3.7760	0.3493	24.20	-0.01	0.750			
0.3796	24292.56	3.7730	3.7730	0.3228	24.20	-0.01	0.750			
0.3805	24351.22	3.7700	3.7700	0.2969	24.20	-0.01	0.750			
0.3813	24405.87	3.7670	3.7670	0.2735	24.20	-0.01	0.750			
0.3821	24455.98	3.7640	3.7640	0.2501	24.20	-0.01	0.750			
0.3828	24501.97	3.7610	3.7610	0.2252	24.19	-0.02	0.750			
0.3835	24543.39	3.7580	3.7580	0.2011	24.19	-0.02	0.750			
0.3841	24579.71	3.7550	3.7551	0.1755	24.19	-0.02	0.750			
0.3845	24611.02	3.7520	3.7521	0.1491	24.19	-0.02	0.750			
0.3850	24637.01	3.7490	3.7492	0.1195	24.19	-0.02	0.750			
