Ah_balance (normalized)	Ah_balance (mAh)	Voltage - fit (V)	Voltage -  interpolate (V)	dQ/dV (1/V)	Temperature (°C)	Temperature - diff (°C)	Current (C)	R_DC 0ms (mOhm)	R_DC 50ms (mOhm)	R_DC 50 ms PEC (mOhm)
-0.0056	-358.60	4.1990	4.1991	0.8855	24.44	-0.11	0.050	0.243	0.524	
-0.0047	-302.18	4.1980	4.1979	0.8793	24.43	-0.12	0.050			
-0.0039	-246.97	4.1970	4.1969	0.8562	24.43	-0.12	0.050			
-0.0030	-193.22	4.1960	4.1959	0.8385	24.43	-0.12	0.050			
-0.0022	-140.85	4.1950	4.1950	0.8236	24.43	-0.12	0.050			
-0.0014	-90.47	4.1940	4.1941	0.8113	24.43	-0.12	0.050			
-0.0007	-42.92	4.1930	4.1931	0.8060	24.43	-0.12	0.050			
0.0001	6.72	4.1920	4.1922	0.8083	24.42	-0.13	0.050			
0.0009	56.30	4.1910	4.1914	0.8157	24.41	-0.14	0.050			
0.0017	108.27	4.1900	4.1905	0.8229	24.42	-0.13	0.050			
0.0025	159.97	4.1890	4.1888	0.8298	24.41	-0.14	0.050			
0.0033	212.58	4.1880	4.1875	0.8364	24.41	-0.14	0.050			
0.0042	265.72	4.1870	4.1869	0.8421	24.41	-0.14	0.050			
0.0050	319.48	4.1860	4.1859	0.8436	24.42	-0.13	0.050			
0.0058	373.98	4.1850	4.1846	0.8497	24.42	-0.13	0.050			
0.0067	429.74	4.1840	4.1837	0.8527	24.43	-0.12	0.050			
0.0076	486.05	4.1830	4.1830	0.8572	24.43	-0.12	0.050			
0.0085	542.04	4.1820	4.1824	0.8624	24.43	-0.12	0.050			
0.0094	598.73	4.1810	4.1812	0.8673	24.43	-0.12	0.050			
0.0103	656.95	4.1800	4.1800	0.8697	24.43	-0.12	0.050			
0.0112	716.70	4.1790	4.1791	0.8682	24.43	-0.12	0.050			
0.0121	774.30	4.1780	4.1780	0.8689	24.43	-0.12	0.050			
0.0130	830.01	4.1770	4.1770	0.8688	24.43	-0.12	0.050			
0.0138	885.01	4.1760	4.1760	0.8637	24.43	-0.12	0.050			
0.0147	939.26	4.1750	4.1749	0.8613	24.43	-0.12	0.050	0.445	0.535	
0.0155	992.55	4.1740	4.1736	0.8551	24.44	-0.11	0.050			
0.0163	1044.24	4.1730	4.1729	0.8466	24.43	-0.12	0.050			
0.0171	1097.11	4.1720	4.1721	0.8447	24.43	-0.12	0.050			
0.0180	1151.41	4.1710	4.1711	0.8456	24.43	-0.12	0.050			
0.0188	1205.47	4.1700	4.1700	0.8465	24.43	-0.12	0.050			
0.0197	1259.21	4.1690	4.1688	0.8462	24.43	-0.12	0.050			
0.0205	1313.30	4.1680	4.1681	0.8483	24.44	-0.11	0.050			
0.0214	1367.82	4.1670	4.1671	0.8492	24.45	-0.10	0.050			
0.0222	1422.59	4.1660	4.1661	0.8507	24.45	-0.10	0.050			
0.0231	1477.15	4.1650	4.1650	0.8523	24.45	-0.10	0.050			
0.0240	1534.19	4.1640	4.1640	0.8484	24.45	-0.10	0.050			
0.0248	1588.67	4.1630	4.1630	0.8468	24.45	-0.10	0.050			
0.0257	1644.12	4.1620	4.1620	0.8413	24.45	-0.10	0.050			
0.0265	1699.18	4.1610	4.1610	0.8358	24.44	-0.11	0.050			
0.0274	1754.23	4.1600	4.1600	0.8335	24.45	-0.10	0.050			
0.0282	1807.66	4.1590	4.1589	0.8281	24.45	-0.10	0.050			
0.0291	1859.75	4.1580	4.1581	0.8272	24.46	-0.09	0.050			
0.0298	1908.75	4.1570	4.1571	0.8269	24.45	-0.10	0.050			
0.0306	1960.31	4.1560	4.1562	0.8287	24.45	-0.10	0.050			
0.0314	2010.97	4.1550	4.1552	0.8318	24.45	-0.10	0.050			
0.0322	2063.04	4.1540	4.1544	0.8355	24.45	-0.10	0.050			
0.0331	2115.55	4.1530	4.1527	0.8401	24.44	-0.11	0.050			
0.0339	2168.09	4.1520	4.1516	0.8426	24.45	-0.10	0.050			
0.0347	2222.63	4.1510	4.1509	0.8458	24.45	-0.10	0.050	-0.071	0.293	
0.0356	2276.96	4.1500	4.1496	0.8504	24.44	-0.11	0.050			
0.0364	2330.88	4.1490	4.1486	0.8538	24.43	-0.12	0.050			
0.0373	2386.80	4.1480	4.1480	0.8568	24.45	-0.10	0.050			
0.0382	2442.98	4.1470	4.1468	0.8588	24.45	-0.10	0.050			
0.0391	2499.34	4.1460	4.1464	0.8637	24.45	-0.10	0.050			
0.0399	2555.76	4.1450	4.1452	0.8683	24.45	-0.10	0.050			
0.0409	2614.51	4.1440	4.1441	0.8781	24.45	-0.10	0.050			
0.0417	2671.90	4.1430	4.1431	0.8720	24.45	-0.10	0.050			
0.0427	2730.80	4.1420	4.1419	0.8729	24.45	-0.10	0.050			
0.0435	2786.01	4.1410	4.1404	0.8713	24.45	-0.10	0.050			
0.0444	2841.15	4.1400	4.1400	0.8675	24.46	-0.09	0.050			
0.0452	2895.42	4.1390	4.1390	0.8658	24.46	-0.09	0.050			
0.0461	2948.75	4.1380	4.1380	0.8607	24.45	-0.10	0.050			
0.0469	3001.70	4.1370	4.1369	0.8557	24.45	-0.10	0.050			
0.0477	3055.56	4.1360	4.1359	0.8545	24.45	-0.10	0.050			
0.0486	3110.72	4.1350	4.1352	0.8562	24.45	-0.10	0.050			
0.0495	3165.58	4.1340	4.1341	0.8567	24.45	-0.10	0.050			
0.0503	3220.18	4.1330	4.1330	0.8581	24.44	-0.11	0.050			
0.0512	3275.23	4.1320	4.1319	0.8601	24.44	-0.11	0.050			
0.0520	3330.65	4.1310	4.1310	0.8609	24.45	-0.10	0.050			
0.0529	3385.58	4.1300	4.1301	0.8609	24.45	-0.10	0.050			
0.0538	3441.17	4.1290	4.1290	0.8621	24.44	-0.11	0.050			
0.0546	3497.04	4.1280	4.1280	0.8623	24.45	-0.10	0.050	0.316	0.481	
0.0555	3552.48	4.1270	4.1270	0.8626	24.43	-0.12	0.050			
0.0564	3608.11	4.1260	4.1260	0.8623	24.44	-0.11	0.050			
0.0572	3663.46	4.1250	4.1251	0.8609	24.43	-0.12	0.050			
0.0581	3719.13	4.1240	4.1240	0.8603	24.43	-0.12	0.050			
0.0590	3774.25	4.1230	4.1230	0.8618	24.43	-0.12	0.050			
0.0598	3830.01	4.1220	4.1220	0.8619	24.43	-0.12	0.050			
0.0607	3883.62	4.1210	4.1210	0.8564	24.43	-0.12	0.050			
0.0615	3938.53	4.1200	4.1199	0.8554	24.43	-0.12	0.050			
0.0624	3992.90	4.1190	4.1190	0.8550	24.43	-0.12	0.050			
0.0632	4047.50	4.1180	4.1178	0.8539	24.43	-0.12	0.050			
0.0641	4102.05	4.1170	4.1171	0.8544	24.43	-0.12	0.050			
0.0650	4156.89	4.1160	4.1159	0.8544	24.43	-0.12	0.050			
0.0658	4211.24	4.1150	4.1148	0.8547	24.41	-0.14	0.050			
0.0667	4265.85	4.1140	4.1140	0.8551	24.42	-0.13	0.050			
0.0675	4319.90	4.1130	4.1131	0.8546	24.42	-0.13	0.050			
0.0684	4375.28	4.1120	4.1120	0.8536	24.41	-0.14	0.050			
0.0692	4430.10	4.1110	4.1110	0.8537	24.41	-0.14	0.050			
0.0701	4484.69	4.1100	4.1100	0.8542	24.41	-0.14	0.050			
0.0709	4539.38	4.1090	4.1089	0.8545	24.41	-0.14	0.050			
0.0718	4594.20	4.1080	4.1080	0.8552	24.40	-0.15	0.050			
0.0726	4648.26	4.1070	4.1070	0.8558	24.41	-0.14	0.050			
0.0735	4703.27	4.1060	4.1061	0.8568	24.41	-0.14	0.050			
0.0743	4758.35	4.1050	4.1051	0.8568	24.41	-0.14	0.050			
0.0752	4813.32	4.1040	4.1041	0.8563	24.40	-0.15	0.050	0.480	0.447	
0.0761	4867.89	4.1030	4.1031	0.8553	24.39	-0.16	0.050			
0.0769	4922.63	4.1020	4.1018	0.8563	24.39	-0.16	0.050			
0.0778	4977.97	4.1010	4.1009	0.8563	24.39	-0.16	0.050			
0.0786	5032.83	4.1000	4.1000	0.8563	24.39	-0.16	0.050			
0.0795	5087.63	4.0990	4.0990	0.8555	24.39	-0.16	0.050			
0.0803	5141.91	4.0980	4.0979	0.8566	24.39	-0.16	0.050			
0.0812	5196.41	4.0970	4.0972	0.8578	24.39	-0.16	0.050			
0.0820	5251.19	4.0960	4.0960	0.8591	24.39	-0.16	0.050			
0.0829	5305.78	4.0950	4.0950	0.8603	24.40	-0.15	0.050			
0.0838	5360.95	4.0940	4.0940	0.8621	24.39	-0.16	0.050			
0.0846	5416.27	4.0930	4.0930	0.8633	24.40	-0.15	0.050			
0.0855	5471.55	4.0920	4.0921	0.8655	24.41	-0.14	0.050			
0.0864	5526.76	4.0910	4.0909	0.8663	24.40	-0.15	0.050			
0.0872	5582.22	4.0900	4.0899	0.8673	24.40	-0.15	0.050			
0.0881	5637.96	4.0890	4.0890	0.8672	24.40	-0.15	0.050			
0.0890	5693.78	4.0880	4.0881	0.8679	24.39	-0.16	0.050			
0.0898	5749.63	4.0870	4.0871	0.8676	24.40	-0.15	0.050			
0.0907	5805.64	4.0860	4.0858	0.8681	24.40	-0.15	0.050			
0.0916	5861.57	4.0850	4.0850	0.8697	24.40	-0.15	0.050			
0.0925	5917.59	4.0840	4.0840	0.8703	24.41	-0.14	0.050			
0.0933	5973.43	4.0830	4.0830	0.8710	24.41	-0.14	0.050			
0.0942	6029.04	4.0820	4.0820	0.8703	24.40	-0.15	0.050			
0.0951	6084.79	4.0810	4.0809	0.8715	24.41	-0.14	0.050			
0.0959	6140.59	4.0800	4.0801	0.8704	24.41	-0.14	0.050			
0.0968	6196.26	4.0790	4.0789	0.8687	24.41	-0.14	0.050			
0.0977	6251.12	4.0780	4.0781	0.8679	24.41	-0.14	0.050			
0.0985	6306.63	4.0770	4.0770	0.8694	24.40	-0.15	0.050			
0.0994	6361.91	4.0760	4.0760	0.8695	24.41	-0.14	0.050			
0.1003	6417.20	4.0750	4.0749	0.8695	24.41	-0.14	0.050			
0.1011	6472.84	4.0740	4.0740	0.8706	24.42	-0.13	0.050			
0.1020	6528.69	4.0730	4.0731	0.8712	24.42	-0.13	0.050			
0.1029	6584.58	4.0720	4.0721	0.8718	24.43	-0.12	0.050			
0.1038	6640.33	4.0710	4.0711	0.8728	24.43	-0.12	0.050			
0.1046	6696.55	4.0700	4.0700	0.8738	24.43	-0.12	0.050			
0.1055	6752.77	4.0690	4.0689	0.8745	24.43	-0.12	0.050			
0.1064	6809.04	4.0680	4.0680	0.8741	24.43	-0.12	0.050			
0.1073	6865.23	4.0670	4.0671	0.8741	24.43	-0.12	0.050			
0.1081	6920.94	4.0660	4.0659	0.8741	24.43	-0.12	0.050			
0.1090	6977.00	4.0650	4.0651	0.8741	24.44	-0.11	0.050			
0.1099	7032.66	4.0640	4.0640	0.8738	24.43	-0.12	0.050			
0.1108	7088.41	4.0630	4.0629	0.8749	24.43	-0.12	0.050			
0.1116	7144.75	4.0620	4.0620	0.8751	24.45	-0.10	0.050			
0.1125	7200.52	4.0610	4.0610	0.8754	24.45	-0.10	0.050			
0.1134	7256.81	4.0600	4.0601	0.8766	24.45	-0.10	0.050			
0.1143	7312.86	4.0590	4.0590	0.8770	24.45	-0.10	0.050			
0.1151	7368.24	4.0580	4.0579	0.8765	24.45	-0.10	0.050	0.179	0.424	
0.1160	7424.41	4.0570	4.0571	0.8776	24.45	-0.10	0.050			
0.1169	7480.78	4.0560	4.0559	0.8777	24.45	-0.10	0.050			
0.1178	7536.75	4.0550	4.0550	0.8783	24.45	-0.10	0.050			
0.1186	7593.18	4.0540	4.0540	0.8793	24.45	-0.10	0.050			
0.1195	7649.64	4.0530	4.0529	0.8801	24.45	-0.10	0.050			
0.1204	7706.15	4.0520	4.0519	0.8811	24.45	-0.10	0.050			
0.1213	7762.49	4.0510	4.0510	0.8816	24.45	-0.10	0.050			
0.1222	7818.79	4.0500	4.0500	0.8828	24.45	-0.10	0.050			
0.1231	7875.67	4.0490	4.0491	0.8839	24.46	-0.09	0.050			
0.1239	7932.37	4.0480	4.0479	0.8844	24.46	-0.09	0.050			
0.1248	7989.00	4.0470	4.0471	0.8858	24.45	-0.10	0.050			
0.1257	8045.41	4.0460	4.0460	0.8853	24.47	-0.08	0.050			
0.1266	8102.16	4.0450	4.0451	0.8854	24.47	-0.08	0.050			
0.1275	8159.10	4.0440	4.0440	0.8856	24.46	-0.09	0.050			
0.1284	8215.68	4.0430	4.0430	0.8857	24.47	-0.08	0.050			
0.1293	8272.43	4.0420	4.0420	0.8863	24.47	-0.08	0.050			
0.1301	8329.02	4.0410	4.0410	0.8866	24.46	-0.09	0.050			
0.1310	8385.73	4.0400	4.0401	0.8874	24.47	-0.08	0.050			
0.1319	8442.61	4.0390	4.0389	0.8871	24.47	-0.08	0.050			
0.1328	8499.64	4.0380	4.0381	0.8882	24.46	-0.09	0.050			
0.1337	8556.19	4.0370	4.0370	0.8880	24.45	-0.10	0.050			
0.1346	8613.27	4.0360	4.0359	0.8891	24.46	-0.09	0.050	0.277	0.557	
0.1355	8669.95	4.0350	4.0349	0.8901	24.46	-0.09	0.050			
0.1364	8726.61	4.0340	4.0340	0.8906	24.45	-0.10	0.050			
0.1372	8783.59	4.0330	4.0330	0.8927	24.45	-0.10	0.050			
0.1381	8840.26	4.0320	4.0319	0.8942	24.46	-0.09	0.050			
0.1390	8897.20	4.0310	4.0310	0.8949	24.45	-0.10	0.050			
0.1399	8955.04	4.0300	4.0300	0.8963	24.45	-0.10	0.050			
0.1408	9012.54	4.0290	4.0289	0.8965	24.45	-0.10	0.050			
0.1417	9069.87	4.0280	4.0280	0.8977	24.45	-0.10	0.050			
0.1426	9127.42	4.0270	4.0269	0.8984	24.46	-0.09	0.050			
0.1435	9185.25	4.0260	4.0260	0.9001	24.46	-0.09	0.050			
0.1444	9242.98	4.0250	4.0249	0.9012	24.47	-0.08	0.050			
0.1453	9300.90	4.0240	4.0240	0.9021	24.47	-0.08	0.050			
0.1462	9358.81	4.0230	4.0231	0.9020	24.47	-0.08	0.050			
0.1471	9416.23	4.0220	4.0220	0.9038	24.47	-0.08	0.050			
0.1480	9474.17	4.0210	4.0211	0.9047	24.47	-0.08	0.050			
0.1489	9532.04	4.0200	4.0199	0.9055	24.45	-0.10	0.050			
0.1498	9590.24	4.0190	4.0190	0.9070	24.45	-0.10	0.050			
0.1508	9648.19	4.0180	4.0179	0.9073	24.47	-0.08	0.050			
0.1517	9706.18	4.0170	4.0170	0.9077	24.46	-0.09	0.050			
0.1526	9764.26	4.0160	4.0160	0.9078	24.46	-0.09	0.050			
0.1535	9822.18	4.0150	4.0151	0.9082	24.47	-0.08	0.050			
0.1544	9880.26	4.0140	4.0140	0.9086	24.47	-0.08	0.050			
0.1553	9938.21	4.0130	4.0131	0.9100	24.47	-0.08	0.050			
0.1562	9996.76	4.0120	4.0120	0.9113	24.47	-0.08	0.050			
0.1571	10055.09	4.0110	4.0110	0.9123	24.47	-0.08	0.050			
0.1580	10114.04	4.0100	4.0100	0.9142	24.47	-0.08	0.050			
0.1589	10172.43	4.0090	4.0087	0.9151	24.47	-0.08	0.050			
0.1599	10231.28	4.0080	4.0079	0.9146	24.47	-0.08	0.050			
0.1608	10289.89	4.0070	4.0072	0.9151	24.46	-0.09	0.050			
0.1617	10347.98	4.0060	4.0060	0.9181	24.46	-0.09	0.050			
0.1626	10406.66	4.0050	4.0049	0.9199	24.47	-0.08	0.050			
0.1635	10465.90	4.0040	4.0041	0.9200	24.45	-0.10	0.050			
0.1645	10524.83	4.0030	4.0030	0.9210	24.45	-0.10	0.050			
0.1654	10583.77	4.0020	4.0019	0.9198	24.45	-0.10	0.050			
0.1663	10642.93	4.0010	4.0010	0.9200	24.45	-0.10	0.050			
0.1672	10702.08	4.0000	4.0000	0.9212	24.45	-0.10	0.050			
0.1681	10761.32	3.9990	3.9991	0.9213	24.43	-0.12	0.050			
0.1691	10819.96	3.9980	3.9979	0.9219	24.44	-0.11	0.050			
0.1700	10879.02	3.9970	3.9970	0.9235	24.45	-0.10	0.050			
0.1709	10938.34	3.9960	3.9961	0.9242	24.45	-0.10	0.050			
0.1718	10997.20	3.9950	3.9950	0.9244	24.45	-0.10	0.050			
0.1728	11056.13	3.9940	3.9940	0.9264	24.45	-0.10	0.050			
0.1737	11115.20	3.9930	3.9931	0.9264	24.45	-0.10	0.050			
0.1746	11174.30	3.9920	3.9920	0.9279	24.45	-0.10	0.050			
0.1755	11233.64	3.9910	3.9909	0.9289	24.45	-0.10	0.050			
0.1765	11292.93	3.9900	3.9900	0.9317	24.45	-0.10	0.050			
0.1774	11352.59	3.9890	3.9890	0.9314	24.45	-0.10	0.050			
0.1783	11412.68	3.9880	3.9880	0.9342	24.45	-0.10	0.050			
0.1793	11472.30	3.9870	3.9872	0.9346	24.45	-0.10	0.050			
0.1802	11531.45	3.9860	3.9860	0.9347	24.45	-0.10	0.050			
0.1811	11592.18	3.9850	3.9850	0.9376	24.45	-0.10	0.050			
0.1821	11652.20	3.9840	3.9839	0.9402	24.44	-0.11	0.050			
0.1830	11712.51	3.9830	3.9830	0.9436	24.43	-0.12	0.050			
0.1840	11773.12	3.9820	3.9820	0.9446	24.43	-0.12	0.050			
0.1849	11833.80	3.9810	3.9809	0.9448	24.43	-0.12	0.050			
0.1858	11894.18	3.9800	3.9801	0.9454	24.43	-0.12	0.050			
0.1868	11954.80	3.9790	3.9788	0.9479	24.43	-0.12	0.050			
0.1877	12015.10	3.9780	3.9780	0.9481	24.43	-0.12	0.050			
0.1887	12075.67	3.9770	3.9770	0.9501	24.43	-0.12	0.050			
0.1896	12136.93	3.9760	3.9760	0.9521	24.43	-0.12	0.050			
0.1906	12198.01	3.9750	3.9749	0.9522	24.42	-0.13	0.050			
0.1915	12258.95	3.9740	3.9741	0.9526	24.43	-0.12	0.050			
0.1925	12319.68	3.9730	3.9729	0.9548	24.42	-0.13	0.050			
0.1935	12380.97	3.9720	3.9720	0.9561	24.42	-0.13	0.050			
0.1944	12442.22	3.9710	3.9709	0.9574	24.42	-0.13	0.050			
0.1954	12503.70	3.9700	3.9701	0.9583	24.43	-0.12	0.050			
0.1963	12565.27	3.9690	3.9691	0.9598	24.41	-0.14	0.050			
0.1973	12627.15	3.9680	3.9680	0.9592	24.42	-0.13	0.050			
0.1983	12688.84	3.9670	3.9670	0.9574	24.42	-0.13	0.050			
0.1992	12749.91	3.9660	3.9660	0.9592	24.43	-0.12	0.050			
0.2002	12811.14	3.9650	3.9649	0.9601	24.42	-0.13	0.050			
0.2011	12872.48	3.9640	3.9641	0.9609	24.41	-0.14	0.050			
0.2021	12933.81	3.9630	3.9630	0.9613	24.43	-0.12	0.050			
0.2031	12995.44	3.9620	3.9619	0.9627	24.43	-0.12	0.050			
0.2040	13057.09	3.9610	3.9610	0.9646	24.43	-0.12	0.050			
0.2050	13118.11	3.9600	3.9601	0.9655	24.42	-0.13	0.050			
0.2059	13179.47	3.9590	3.9590	0.9666	24.42	-0.13	0.050			
0.2069	13241.57	3.9580	3.9579	0.9680	24.43	-0.12	0.050			
0.2079	13303.80	3.9570	3.9570	0.9686	24.43	-0.12	0.050			
0.2088	13366.16	3.9560	3.9560	0.9699	24.42	-0.13	0.050			
0.2098	13428.74	3.9550	3.9551	0.9698	24.41	-0.14	0.050			
0.2108	13490.84	3.9540	3.9539	0.9710	24.42	-0.13	0.050			
0.2118	13552.71	3.9530	3.9530	0.9707	24.43	-0.12	0.050			
0.2127	13614.58	3.9520	3.9520	0.9736	24.41	-0.14	0.050			
0.2137	13677.31	3.9510	3.9510	0.9755	24.43	-0.12	0.050			
0.2147	13740.43	3.9500	3.9501	0.9761	24.42	-0.13	0.050	0.411	0.577	
0.2157	13803.07	3.9490	3.9489	0.9761	24.41	-0.14	0.050			
0.2167	13865.83	3.9480	3.9480	0.9765	24.42	-0.13	0.050			
0.2176	13928.33	3.9470	3.9469	0.9769	24.42	-0.13	0.050			
0.2186	13990.07	3.9460	3.9460	0.9758	24.41	-0.14	0.050			
0.2196	14052.39	3.9450	3.9448	0.9761	24.41	-0.14	0.050			
0.2206	14115.23	3.9440	3.9440	0.9770	24.41	-0.14	0.050			
0.2215	14177.80	3.9430	3.9430	0.9768	24.41	-0.14	0.050			
0.2225	14239.97	3.9420	3.9421	0.9776	24.40	-0.15	0.050			
0.2235	14302.54	3.9410	3.9411	0.9768	24.39	-0.16	0.050			
0.2245	14364.93	3.9400	3.9399	0.9773	24.40	-0.15	0.050			
0.2254	14427.78	3.9390	3.9389	0.9789	24.40	-0.15	0.050			
0.2264	14490.12	3.9380	3.9378	0.9812	24.40	-0.15	0.050			
0.2274	14553.12	3.9370	3.9370	0.9827	24.41	-0.14	0.050			
0.2284	14615.30	3.9360	3.9360	0.9873	24.41	-0.14	0.050			
0.2293	14677.58	3.9350	3.9350	0.9902	24.40	-0.15	0.050			
0.2303	14740.90	3.9340	3.9340	0.9931	24.41	-0.14	0.050			
0.2313	14804.21	3.9330	3.9329	0.9942	24.41	-0.14	0.050			
0.2323	14868.26	3.9320	3.9321	0.9945	24.40	-0.15	0.050			
0.2333	14932.91	3.9310	3.9309	0.9957	24.40	-0.15	0.050			
0.2343	14996.92	3.9300	3.9299	1.0004	24.39	-0.16	0.050			
0.2353	15061.12	3.9290	3.9289	1.0015	24.39	-0.16	0.050			
0.2363	15125.75	3.9280	3.9280	1.0018	24.41	-0.14	0.050			
0.2373	15189.59	3.9270	3.9269	1.0031	24.41	-0.14	0.050			
0.2383	15254.33	3.9260	3.9261	1.0053	24.39	-0.16	0.050			
0.2394	15319.74	3.9250	3.9250	1.0055	24.40	-0.15	0.050			
0.2404	15384.60	3.9240	3.9241	1.0051	24.41	-0.14	0.050			
0.2414	15448.59	3.9230	3.9231	1.0077	24.40	-0.15	0.050			
0.2424	15512.60	3.9220	3.9219	1.0086	24.39	-0.16	0.050			
0.2434	15577.51	3.9210	3.9209	1.0094	24.41	-0.14	0.050			
0.2444	15641.98	3.9200	3.9201	1.0092	24.41	-0.14	0.050			
0.2454	15706.38	3.9190	3.9189	1.0074	24.41	-0.14	0.050			
0.2464	15770.88	3.9180	3.9178	1.0037	24.41	-0.14	0.050			
0.2474	15834.85	3.9170	3.9170	1.0039	24.41	-0.14	0.050			
0.2484	15898.52	3.9160	3.9161	1.0026	24.41	-0.14	0.050			
0.2494	15962.45	3.9150	3.9149	1.0059	24.41	-0.14	0.050			
0.2504	16026.92	3.9140	3.9139	1.0079	24.41	-0.14	0.050			
0.2514	16092.21	3.9130	3.9131	1.0095	24.42	-0.13	0.050			
0.2525	16157.35	3.9120	3.9120	1.0099	24.41	-0.14	0.050			
0.2535	16221.84	3.9110	3.9110	1.0085	24.41	-0.14	0.050			
0.2545	16285.81	3.9100	3.9101	1.0069	24.43	-0.12	0.050			
0.2555	16350.16	3.9090	3.9090	1.0094	24.43	-0.12	0.050			
0.2565	16414.91	3.9080	3.9078	1.0107	24.41	-0.14	0.050			
0.2575	16479.35	3.9070	3.9069	1.0102	24.42	-0.13	0.050			
0.2585	16544.45	3.9060	3.9059	1.0102	24.43	-0.12	0.050			
0.2595	16609.97	3.9050	3.9048	1.0093	24.43	-0.12	0.050			
0.2605	16674.76	3.9040	3.9040	1.0076	24.43	-0.12	0.050			
0.2615	16738.30	3.9030	3.9030	1.0055	24.43	-0.12	0.050			
0.2626	16803.44	3.9020	3.9020	1.0057	24.43	-0.12	0.050			
0.2636	16868.20	3.9010	3.9009	1.0054	24.44	-0.11	0.050			
0.2646	16933.14	3.9000	3.9000	1.0048	24.45	-0.10	0.050			
0.2656	16997.75	3.8990	3.8991	1.0040	24.44	-0.11	0.050			
0.2666	17062.12	3.8980	3.8981	1.0019	24.45	-0.10	0.050			
0.2676	17125.81	3.8970	3.8970	0.9967	24.45	-0.10	0.050			
0.2686	17189.22	3.8960	3.8960	0.9944	24.46	-0.09	0.050			
0.2696	17252.62	3.8950	3.8950	0.9917	24.45	-0.10	0.050			
0.2706	17316.73	3.8940	3.8941	0.9899	24.45	-0.10	0.050			
0.2716	17380.43	3.8930	3.8931	0.9870	24.45	-0.10	0.050			
0.2726	17443.63	3.8920	3.8918	0.9836	24.46	-0.09	0.050			
0.2735	17506.54	3.8910	3.8910	0.9802	24.47	-0.08	0.050			
0.2745	17568.70	3.8900	3.8899	0.9760	24.47	-0.08	0.050			
0.2755	17630.73	3.8890	3.8891	0.9719	24.47	-0.08	0.050			
0.2764	17692.75	3.8880	3.8880	0.9700	24.47	-0.08	0.050			
0.2774	17755.60	3.8870	3.8869	0.9666	24.47	-0.08	0.050			
0.2784	17817.83	3.8860	3.8860	0.9625	24.48	-0.07	0.050			
0.2794	17879.43	3.8850	3.8850	0.9585	24.47	-0.08	0.050			
0.2803	17940.66	3.8840	3.8841	0.9526	24.48	-0.07	0.050			
0.2813	18002.01	3.8830	3.8829	0.9487	24.47	-0.08	0.050			
0.2822	18062.99	3.8820	3.8820	0.9416	24.49	-0.06	0.050			
0.2832	18122.83	3.8810	3.8811	0.9366	24.49	-0.06	0.050			
0.2841	18182.95	3.8800	3.8800	0.9301	24.49	-0.06	0.050			
0.2850	18242.37	3.8790	3.8790	0.9239	24.49	-0.06	0.050			
0.2860	18301.27	3.8780	3.8782	0.9193	24.49	-0.06	0.050			
0.2869	18360.43	3.8770	3.8770	0.9122	24.49	-0.06	0.050			
0.2878	18418.75	3.8760	3.8760	0.9041	24.49	-0.06	0.050			
0.2887	18476.57	3.8750	3.8750	0.8985	24.50	-0.05	0.050			
0.2896	18533.45	3.8740	3.8741	0.8932	24.50	-0.05	0.050			
0.2905	18590.56	3.8730	3.8730	0.8859	24.50	-0.05	0.050			
0.2914	18646.89	3.8720	3.8719	0.8788	24.49	-0.06	0.050			
0.2922	18702.87	3.8710	3.8711	0.8705	24.51	-0.04	0.050			
0.2931	18758.94	3.8700	3.8698	0.8626	24.51	-0.04	0.050			
0.2940	18813.93	3.8690	3.8689	0.8539	24.51	-0.04	0.050			
0.2948	18868.59	3.8680	3.8680	0.8462	24.51	-0.04	0.050			
0.2957	18923.01	3.8670	3.8670	0.8394	24.51	-0.04	0.050			
0.2965	18975.90	3.8660	3.8658	0.8324	24.51	-0.04	0.050			
0.2973	19028.65	3.8650	3.8651	0.8250	24.51	-0.04	0.050			
0.2981	19081.09	3.8640	3.8641	0.8189	24.51	-0.04	0.050			
0.2990	19133.52	3.8630	3.8631	0.8117	24.51	-0.04	0.050			
0.2998	19185.02	3.8620	3.8621	0.8047	24.51	-0.04	0.050			
0.3006	19235.99	3.8610	3.8609	0.7978	24.51	-0.04	0.050			
0.3013	19286.34	3.8600	3.8599	0.7903	24.52	-0.03	0.050			
0.3021	19336.45	3.8590	3.8590	0.7841	24.51	-0.04	0.050			
0.3029	19386.05	3.8580	3.8580	0.7774	24.51	-0.04	0.050			
0.3037	19435.78	3.8570	3.8569	0.7726	24.51	-0.04	0.050			
0.3045	19485.43	3.8560	3.8560	0.7667	24.51	-0.04	0.050			
0.3052	19533.82	3.8550	3.8550	0.7597	24.51	-0.04	0.050			
0.3060	19581.66	3.8540	3.8541	0.7536	24.51	-0.04	0.050			
0.3067	19629.70	3.8530	3.8530	0.7497	24.51	-0.04	0.050			
0.3075	19677.89	3.8520	3.8519	0.7461	24.51	-0.04	0.050			
0.3082	19725.58	3.8510	3.8510	0.7407	24.52	-0.03	0.050			
0.3090	19772.84	3.8500	3.8500	0.7374	24.51	-0.04	0.050			
0.3097	19819.35	3.8490	3.8491	0.7344	24.51	-0.04	0.050			
0.3104	19865.59	3.8480	3.8481	0.7312	24.51	-0.04	0.050			
0.3111	19911.70	3.8470	3.8470	0.7277	24.51	-0.04	0.050			
0.3118	19957.07	3.8460	3.8459	0.7242	24.52	-0.03	0.050			
0.3125	20003.11	3.8450	3.8449	0.7223	24.52	-0.03	0.050			
0.3133	20049.04	3.8440	3.8438	0.7214	24.52	-0.03	0.050			
0.3140	20095.10	3.8430	3.8430	0.7202	24.52	-0.03	0.050			
0.3147	20141.33	3.8420	3.8420	0.7176	24.53	-0.02	0.050	0.362	0.441	
0.3154	20187.66	3.8410	3.8409	0.7146	24.53	-0.02	0.050			
0.3161	20233.33	3.8400	3.8400	0.7128	24.52	-0.03	0.050			
0.3169	20278.86	3.8390	3.8390	0.7122	24.52	-0.03	0.050			
0.3176	20324.16	3.8380	3.8380	0.7120	24.53	-0.02	0.050			
0.3183	20369.69	3.8370	3.8371	0.7123	24.52	-0.03	0.050			
0.3190	20414.70	3.8360	3.8361	0.7146	24.53	-0.02	0.050			
0.3197	20459.81	3.8350	3.8350	0.7157	24.53	-0.02	0.050			
0.3204	20504.91	3.8340	3.8341	0.7173	24.53	-0.02	0.050			
0.3211	20550.10	3.8330	3.8331	0.7198	24.54	-0.01	0.050			
0.3218	20595.90	3.8320	3.8319	0.7222	24.53	-0.02	0.050			
0.3225	20641.60	3.8310	3.8309	0.7265	24.53	-0.02	0.050			
0.3232	20687.71	3.8300	3.8297	0.7303	24.53	-0.02	0.050			
0.3240	20733.58	3.8290	3.8289	0.7327	24.53	-0.02	0.050			
0.3247	20780.00	3.8280	3.8280	0.7382	24.52	-0.03	0.050			
0.3254	20827.12	3.8270	3.8270	0.7441	24.52	-0.03	0.050			
0.3262	20874.66	3.8260	3.8259	0.7519	24.53	-0.02	0.050			
0.3269	20922.91	3.8250	3.8250	0.7588	24.53	-0.02	0.050			
0.3277	20971.93	3.8240	3.8241	0.7663	24.52	-0.03	0.050			
0.3285	21021.11	3.8230	3.8230	0.7745	24.52	-0.03	0.050			
0.3292	21071.55	3.8220	3.8219	0.7818	24.52	-0.03	0.050			
0.3300	21122.35	3.8210	3.8209	0.7893	24.51	-0.04	0.050			
0.3308	21172.80	3.8200	3.8200	0.7963	24.51	-0.04	0.050			
0.3316	21224.10	3.8190	3.8189	0.8018	24.51	-0.04	0.050			
0.3324	21276.12	3.8180	3.8181	0.8061	24.50	-0.05	0.050			
0.3333	21328.04	3.8170	3.8169	0.8115	24.51	-0.04	0.050			
0.3341	21380.39	3.8160	3.8162	0.8167	24.50	-0.05	0.050			
0.3349	21432.84	3.8150	3.8150	0.8229	24.51	-0.04	0.050			
0.3357	21485.18	3.8140	3.8139	0.8298	24.51	-0.04	0.050			
0.3365	21538.53	3.8130	3.8131	0.8363	24.50	-0.05	0.050			
0.3374	21592.43	3.8120	3.8120	0.8423	24.51	-0.04	0.050			
0.3382	21646.49	3.8110	3.8108	0.8488	24.51	-0.04	0.050			
0.3391	21700.56	3.8100	3.8102	0.8552	24.51	-0.04	0.050			
0.3399	21754.88	3.8090	3.8090	0.8639	24.51	-0.04	0.050			
0.3408	21810.26	3.8080	3.8079	0.8686	24.50	-0.05	0.050			
0.3417	21866.86	3.8070	3.8070	0.8729	24.50	-0.05	0.050			
0.3425	21922.66	3.8060	3.8058	0.8795	24.49	-0.06	0.050			
0.3434	21978.38	3.8050	3.8051	0.8882	24.49	-0.06	0.050			
0.3443	22034.82	3.8040	3.8041	0.8976	24.49	-0.06	0.050			
0.3452	22093.02	3.8030	3.8030	0.9032	24.49	-0.06	0.050			
0.3461	22151.27	3.8020	3.8019	0.9106	24.49	-0.06	0.050			
0.3470	22209.89	3.8010	3.8008	0.9187	24.49	-0.06	0.050			
0.3479	22268.52	3.8000	3.8001	0.9268	24.49	-0.06	0.050			
0.3489	22328.84	3.7990	3.7991	0.9361	24.49	-0.06	0.050			
0.3498	22388.85	3.7980	3.7979	0.9458	24.49	-0.06	0.050			
0.3508	22449.99	3.7970	3.7967	0.9528	24.49	-0.06	0.050			
0.3517	22510.59	3.7960	3.7960	0.9595	24.48	-0.07	0.050			
0.3527	22571.91	3.7950	3.7950	0.9665	24.49	-0.06	0.050			
0.3537	22634.01	3.7940	3.7941	0.9737	24.49	-0.06	0.050			
0.3546	22697.33	3.7930	3.7931	0.9802	24.49	-0.06	0.050	0.320	0.374	
0.3556	22760.44	3.7920	3.7920	0.9881	24.49	-0.06	0.050			
0.3566	22823.87	3.7910	3.7910	0.9952	24.49	-0.06	0.050			
0.3576	22887.38	3.7900	3.7901	1.0024	24.49	-0.06	0.050			
0.3586	22952.32	3.7890	3.7890	1.0100	24.49	-0.06	0.050			
0.3597	23017.76	3.7880	3.7881	1.0178	24.48	-0.07	0.050			
0.3607	23084.08	3.7870	3.7869	1.0238	24.49	-0.06	0.050			
0.3617	23149.28	3.7860	3.7860	1.0284	24.48	-0.07	0.050			
0.3627	23215.12	3.7850	3.7850	1.0322	24.49	-0.06	0.050			
0.3638	23281.94	3.7840	3.7840	1.0383	24.49	-0.06	0.050			
0.3648	23349.29	3.7830	3.7830	1.0428	24.49	-0.06	0.050			
0.3659	23415.85	3.7820	3.7821	1.0490	24.48	-0.07	0.050			
0.3669	23482.58	3.7810	3.7810	1.0542	24.48	-0.07	0.050			
0.3680	23549.96	3.7800	3.7800	1.0602	24.49	-0.06	0.050			
0.3690	23617.17	3.7790	3.7791	1.0685	24.48	-0.07	0.050			
0.3701	23685.06	3.7780	3.7780	1.0749	24.47	-0.08	0.050			
0.3712	23754.76	3.7770	3.7770	1.0817	24.47	-0.08	0.050			
0.3723	23824.02	3.7760	3.7762	1.0877	24.47	-0.08	0.050			
0.3733	23894.09	3.7750	3.7749	1.0935	24.47	-0.08	0.050			
0.3745	23965.13	3.7740	3.7739	1.0984	24.47	-0.08	0.050			
0.3756	24035.88	3.7730	3.7731	1.1042	24.47	-0.08	0.050	0.019	0.249	
0.3767	24106.78	3.7720	3.7721	1.1089	24.47	-0.08	0.050			
0.3778	24177.55	3.7710	3.7711	1.1142	24.47	-0.08	0.050			
0.3789	24248.34	3.7700	3.7699	1.1229	24.47	-0.08	0.050			
0.3800	24320.45	3.7690	3.7692	1.1316	24.47	-0.08	0.050			
0.3811	24393.06	3.7680	3.7682	1.1404	24.46	-0.09	0.050			
0.3823	24466.07	3.7670	3.7671	1.1481	24.47	-0.08	0.050			
0.3834	24540.00	3.7660	3.7662	1.1538	24.47	-0.08	0.050			
0.3846	24613.99	3.7650	3.7650	1.1622	24.46	-0.09	0.050			
0.3858	24688.17	3.7640	3.7638	1.1699	24.47	-0.08	0.050			
0.3869	24763.36	3.7630	3.7629	1.1756	24.46	-0.09	0.050			
0.3881	24837.74	3.7620	3.7620	1.1809	24.47	-0.08	0.050			
0.3893	24912.85	3.7610	3.7610	1.1905	24.47	-0.08	0.050			
0.3905	24989.28	3.7600	3.7601	1.2006	24.47	-0.08	0.050			
0.3917	25066.47	3.7590	3.7591	1.2075	24.47	-0.08	0.050			
0.3929	25144.99	3.7580	3.7582	1.2168	24.46	-0.09	0.050			
0.3941	25224.41	3.7570	3.7571	1.2254	24.46	-0.09	0.050			
0.3954	25304.33	3.7560	3.7561	1.2299	24.47	-0.08	0.050	0.192	0.561	
0.3966	25383.41	3.7550	3.7550	1.2381	24.47	-0.08	0.050			
0.3979	25462.66	3.7540	3.7541	1.2460	24.47	-0.08	0.050			
0.3991	25542.19	3.7530	3.7529	1.2517	24.46	-0.09	0.050			
0.4003	25622.23	3.7520	3.7521	1.2580	24.47	-0.08	0.050			
0.4016	25702.66	3.7510	3.7511	1.2622	24.46	-0.09	0.050			
0.4029	25783.16	3.7500	3.7502	1.2677	24.47	-0.08	0.050			
0.4041	25865.07	3.7490	3.7489	1.2747	24.47	-0.08	0.050			
0.4054	25945.99	3.7480	3.7481	1.2841	24.47	-0.08	0.050			
0.4067	26028.85	3.7470	3.7468	1.2910	24.47	-0.08	0.050			
0.4080	26111.60	3.7460	3.7458	1.2987	24.47	-0.08	0.050			
0.4093	26194.26	3.7450	3.7450	1.3048	24.49	-0.06	0.050			
0.4106	26277.72	3.7440	3.7441	1.3134	24.49	-0.06	0.050			
0.4119	26361.75	3.7430	3.7430	1.3243	24.49	-0.06	0.050			
0.4132	26445.31	3.7420	3.7420	1.3325	24.49	-0.06	0.050			
0.4145	26531.19	3.7410	3.7409	1.3414	24.49	-0.06	0.050	0.236	0.466	
0.4159	26617.83	3.7400	3.7400	1.3533	24.49	-0.06	0.050			
0.4173	26705.07	3.7390	3.7389	1.3642	24.49	-0.06	0.050			
0.4186	26792.51	3.7380	3.7379	1.3745	24.51	-0.04	0.050			
0.4200	26881.19	3.7370	3.7369	1.3849	24.51	-0.04	0.050			
0.4214	26970.33	3.7360	3.7360	1.3952	24.49	-0.06	0.050			
0.4228	27058.91	3.7350	3.7349	1.4023	24.50	-0.05	0.050			
0.4242	27149.33	3.7340	3.7340	1.4126	24.51	-0.04	0.050			
0.4256	27240.12	3.7330	3.7331	1.4256	24.51	-0.04	0.050			
0.4271	27331.65	3.7320	3.7321	1.4375	24.51	-0.04	0.050			
0.4285	27424.38	3.7310	3.7310	1.4483	24.51	-0.04	0.050			
0.4300	27517.13	3.7300	3.7299	1.4589	24.51	-0.04	0.050			
0.4314	27611.03	3.7290	3.7289	1.4694	24.51	-0.04	0.050			
0.4329	27704.55	3.7280	3.7281	1.4805	24.51	-0.04	0.050			
0.4344	27800.61	3.7270	3.7269	1.4925	24.51	-0.04	0.050			
0.4359	27895.62	3.7260	3.7259	1.5035	24.51	-0.04	0.050	0.365	0.593	
0.4374	27992.02	3.7250	3.7251	1.5145	24.51	-0.04	0.050			
0.4389	28088.42	3.7240	3.7238	1.5279	24.51	-0.04	0.050			
0.4404	28186.69	3.7230	3.7230	1.5377	24.51	-0.04	0.050			
0.4420	28285.90	3.7220	3.7220	1.5502	24.50	-0.05	0.050			
0.4435	28385.38	3.7210	3.7211	1.5651	24.51	-0.04	0.050			
0.4451	28485.16	3.7200	3.7198	1.5792	24.50	-0.05	0.050			
0.4467	28586.01	3.7190	3.7190	1.5950	24.51	-0.04	0.050			
0.4483	28688.44	3.7180	3.7181	1.6090	24.51	-0.04	0.050			
0.4499	28791.95	3.7170	3.7170	1.6242	24.51	-0.04	0.050			
0.4515	28895.90	3.7160	3.7161	1.6395	24.51	-0.04	0.050			
0.4531	29001.53	3.7150	3.7149	1.6527	24.51	-0.04	0.050			
0.4548	29107.69	3.7140	3.7142	1.6703	24.51	-0.04	0.050	0.487	0.452	
0.4565	29214.56	3.7130	3.7129	1.6862	24.51	-0.04	0.050			
0.4582	29322.99	3.7120	3.7118	1.7029	24.51	-0.04	0.050			
0.4599	29433.10	3.7110	3.7110	1.7187	24.51	-0.04	0.050			
0.4616	29543.54	3.7100	3.7101	1.7359	24.51	-0.04	0.050			
0.4633	29654.06	3.7090	3.7090	1.7550	24.51	-0.04	0.050			
0.4651	29766.45	3.7080	3.7080	1.7733	24.51	-0.04	0.050			
0.4669	29881.02	3.7070	3.7069	1.7918	24.51	-0.04	0.050			
0.4687	29996.24	3.7060	3.7060	1.8064	24.51	-0.04	0.050			
0.4705	30112.90	3.7050	3.7049	1.8246	24.51	-0.04	0.050			
0.4723	30229.11	3.7040	3.7041	1.8445	24.50	-0.05	0.050			
0.4742	30348.13	3.7030	3.7030	1.8664	24.51	-0.04	0.050			
0.4760	30467.10	3.7020	3.7021	1.8851	24.51	-0.04	0.050			
0.4779	30588.32	3.7010	3.7009	1.9021	24.51	-0.04	0.050			
0.4799	30711.15	3.7000	3.6999	1.9198	24.51	-0.04	0.050			
0.4818	30835.19	3.6990	3.6991	1.9374	24.49	-0.06	0.050			
0.4837	30959.86	3.6980	3.6980	1.9594	24.49	-0.06	0.050			
0.4857	31085.21	3.6970	3.6968	1.9823	24.49	-0.06	0.050			
0.4877	31212.33	3.6960	3.6960	2.0023	24.49	-0.06	0.050			
0.4897	31341.41	3.6950	3.6950	2.0223	24.49	-0.06	0.050			
0.4917	31471.53	3.6940	3.6940	2.0414	24.48	-0.07	0.050			
0.4938	31602.10	3.6930	3.6929	2.0639	24.47	-0.08	0.050			
0.4959	31734.60	3.6920	3.6920	2.0851	24.48	-0.07	0.050			
0.4979	31868.42	3.6910	3.6910	2.1081	24.47	-0.08	0.050			
0.5000	32002.26	3.6900	3.6898	2.1318	24.47	-0.08	0.050			
0.5022	32138.01	3.6890	3.6889	2.1587	24.47	-0.08	0.050			
0.5043	32276.47	3.6880	3.6880	2.1875	24.47	-0.08	0.050			
0.5065	32417.02	3.6870	3.6871	2.2165	24.46	-0.09	0.050			
0.5087	32558.99	3.6860	3.6859	2.2444	24.45	-0.10	0.050			
0.5110	32703.47	3.6850	3.6850	2.2680	24.45	-0.10	0.050			
0.5133	32848.99	3.6840	3.6840	2.2964	24.45	-0.10	0.050			
0.5156	32995.94	3.6830	3.6830	2.3308	24.45	-0.10	0.050	0.381	0.477	
0.5179	33145.66	3.6820	3.6820	2.3669	24.45	-0.10	0.050			
0.5203	33297.89	3.6810	3.6809	2.4029	24.44	-0.11	0.050			
0.5227	33453.13	3.6800	3.6800	2.4321	24.44	-0.11	0.050			
0.5251	33609.03	3.6790	3.6791	2.4633	24.43	-0.12	0.050			
0.5276	33768.65	3.6780	3.6780	2.4914	24.43	-0.12	0.050			
0.5302	33929.86	3.6770	3.6769	2.5202	24.45	-0.10	0.050			
0.5327	34093.88	3.6760	3.6758	2.5531	24.44	-0.11	0.050			
0.5353	34258.23	3.6750	3.6749	2.5832	24.43	-0.12	0.050	0.084	0.357	
0.5379	34423.24	3.6740	3.6739	2.6153	24.43	-0.12	0.050			
0.5405	34592.45	3.6730	3.6729	2.6452	24.43	-0.12	0.050			
0.5432	34761.73	3.6720	3.6719	2.6781	24.43	-0.12	0.050			
0.5458	34934.35	3.6710	3.6711	2.7044	24.42	-0.13	0.050			
0.5486	35107.99	3.6700	3.6702	2.7392	24.42	-0.13	0.050			
0.5513	35285.28	3.6690	3.6688	2.7654	24.43	-0.12	0.050			
0.5541	35462.75	3.6680	3.6681	2.8019	24.45	-0.10	0.050			
0.5569	35642.42	3.6670	3.6670	2.8434	24.45	-0.10	0.050			
0.5597	35822.96	3.6660	3.6662	2.8736	24.45	-0.10	0.050			
0.5626	36006.42	3.6650	3.6650	2.9110	24.45	-0.10	0.050			
0.5655	36193.74	3.6640	3.6641	2.9489	24.46	-0.09	0.050			
0.5685	36384.46	3.6630	3.6629	2.9907	24.47	-0.08	0.050			
0.5715	36578.27	3.6620	3.6622	3.0288	24.47	-0.08	0.050			
0.5746	36774.77	3.6610	3.6608	3.0645	24.49	-0.06	0.050			
0.5777	36971.48	3.6600	3.6600	3.0967	24.48	-0.07	0.050			
0.5808	37171.92	3.6590	3.6591	3.1251	24.47	-0.08	0.050			
0.5840	37374.49	3.6580	3.6580	3.1520	24.48	-0.07	0.050			
0.5872	37580.29	3.6570	3.6571	3.1788	24.47	-0.08	0.050			
0.5904	37786.53	3.6560	3.6560	3.1932	24.47	-0.08	0.050			
0.5937	37994.10	3.6550	3.6550	3.2073	24.45	-0.10	0.050	0.274	0.415	
0.5969	38201.65	3.6540	3.6540	3.2140	24.44	-0.11	0.050			
0.6001	38407.30	3.6530	3.6529	3.2062	24.44	-0.11	0.050			
0.6034	38614.47	3.6520	3.6522	3.2100	24.43	-0.12	0.050			
0.6066	38823.33	3.6510	3.6510	3.2015	24.43	-0.12	0.050			
0.6098	39030.11	3.6500	3.6501	3.1840	24.41	-0.14	0.050			
0.6131	39236.93	3.6490	3.6491	3.1524	24.41	-0.14	0.050			
0.6162	39439.02	3.6480	3.6479	3.1256	24.41	-0.14	0.050	0.421	0.640	
0.6194	39641.65	3.6470	3.6469	3.0842	24.41	-0.14	0.050			
0.6225	39841.39	3.6460	3.6459	3.0338	24.39	-0.16	0.050			
0.6256	40036.36	3.6450	3.6450	2.9899	24.39	-0.16	0.050			
0.6285	40226.87	3.6440	3.6441	2.9405	24.38	-0.17	0.050			
0.6314	40411.70	3.6430	3.6430	2.8871	24.37	-0.18	0.050			
0.6343	40593.40	3.6420	3.6419	2.8338	24.38	-0.17	0.050	0.403	0.456	
0.6371	40771.89	3.6410	3.6411	2.7831	24.37	-0.18	0.050			
0.6398	40945.93	3.6400	3.6402	2.7337	24.37	-0.18	0.050			
0.6425	41116.90	3.6390	3.6390	2.6848	24.37	-0.18	0.050			
0.6451	41284.49	3.6380	3.6379	2.6434	24.37	-0.18	0.050			
0.6477	41450.55	3.6370	3.6370	2.6030	24.37	-0.18	0.050			
0.6502	41615.79	3.6360	3.6361	2.5624	24.37	-0.18	0.050			
0.6528	41781.83	3.6350	3.6351	2.5209	24.35	-0.20	0.050			
0.6554	41945.67	3.6340	3.6339	2.4724	24.36	-0.19	0.050	0.401	0.620	
0.6580	42109.58	3.6330	3.6330	2.4203	24.37	-0.18	0.050			
0.6603	42261.06	3.6320	3.6320	2.3696	24.35	-0.20	0.050			
0.6627	42414.41	3.6310	3.6310	2.3065	24.36	-0.19	0.050			
0.6651	42566.48	3.6300	3.6300	2.2458	24.36	-0.19	0.050			
0.6674	42713.53	3.6290	3.6290	2.1719	24.36	-0.19	0.050			
0.6696	42854.33	3.6280	3.6281	2.0974	24.37	-0.18	0.050			
0.6717	42989.45	3.6270	3.6272	2.0153	24.37	-0.18	0.050			
0.6737	43118.23	3.6260	3.6262	1.9324	24.35	-0.20	0.050			
0.6756	43241.13	3.6250	3.6251	1.8478	24.33	-0.22	0.050	0.321	0.524	
0.6775	43357.10	3.6240	3.6240	1.7673	24.35	-0.20	0.050			
0.6792	43466.11	3.6230	3.6230	1.6894	24.33	-0.22	0.050			
0.6807	43567.80	3.6220	3.6219	1.6138	24.33	-0.22	0.050			
0.6822	43662.58	3.6210	3.6208	1.5428	24.34	-0.21	0.050			
0.6836	43750.01	3.6200	3.6200	1.4850	24.33	-0.22	0.050			
0.6849	43833.94	3.6190	3.6190	1.4287	24.35	-0.20	0.050			
0.6862	43914.93	3.6180	3.6180	1.3828	24.33	-0.22	0.050			
0.6874	43995.27	3.6170	3.6169	1.3481	24.33	-0.22	0.050			
0.6887	44073.70	3.6160	3.6160	1.3219	24.33	-0.22	0.050			
0.6899	44152.35	3.6150	3.6150	1.3048	24.33	-0.22	0.050			
0.6911	44229.87	3.6140	3.6139	1.2913	24.33	-0.22	0.050			
0.6923	44308.40	3.6130	3.6130	1.2853	24.33	-0.22	0.050			
0.6936	44387.69	3.6120	3.6120	1.2884	24.33	-0.22	0.050			
0.6948	44468.31	3.6110	3.6109	1.2930	24.35	-0.20	0.050	0.292	0.497	
0.6961	44549.15	3.6100	3.6101	1.3014	24.35	-0.20	0.050			
0.6974	44631.44	3.6090	3.6090	1.3117	24.35	-0.20	0.050			
0.6987	44716.14	3.6080	3.6080	1.3252	24.35	-0.20	0.050			
0.7000	44801.09	3.6070	3.6070	1.3379	24.35	-0.20	0.050			
0.7014	44887.52	3.6060	3.6060	1.3487	24.37	-0.18	0.050			
0.7027	44975.66	3.6050	3.6051	1.3592	24.35	-0.20	0.050			
0.7041	45064.06	3.6040	3.6039	1.3682	24.37	-0.18	0.050			
0.7055	45153.59	3.6030	3.6029	1.3770	24.36	-0.19	0.050			
0.7069	45244.29	3.6020	3.6019	1.3834	24.37	-0.18	0.050			
0.7084	45335.04	3.6010	3.6010	1.3850	24.37	-0.18	0.050			
0.7098	45425.74	3.6000	3.6001	1.3843	24.37	-0.18	0.050			
0.7112	45517.12	3.5990	3.5989	1.3780	24.37	-0.18	0.050			
0.7126	45608.03	3.5980	3.5978	1.3690	24.38	-0.17	0.050			
0.7140	45697.70	3.5970	3.5972	1.3601	24.38	-0.17	0.050			
0.7154	45786.24	3.5960	3.5960	1.3455	24.37	-0.18	0.050	0.324	0.655	
0.7168	45874.21	3.5950	3.5950	1.3295	24.38	-0.17	0.050			
0.7181	45960.31	3.5940	3.5941	1.3102	24.39	-0.16	0.050			
0.7194	46044.43	3.5930	3.5931	1.2907	24.39	-0.16	0.050			
0.7207	46127.40	3.5920	3.5920	1.2683	24.38	-0.17	0.050			
0.7220	46207.74	3.5910	3.5910	1.2473	24.39	-0.16	0.050			
0.7232	46285.55	3.5900	3.5900	1.2259	24.39	-0.16	0.050			
0.7244	46363.45	3.5890	3.5890	1.2037	24.39	-0.16	0.050			
0.7256	46438.36	3.5880	3.5879	1.1860	24.39	-0.16	0.050			
0.7267	46511.46	3.5870	3.5868	1.1697	24.40	-0.15	0.050			
0.7279	46583.51	3.5860	3.5861	1.1546	24.39	-0.16	0.050			
0.7290	46654.92	3.5850	3.5851	1.1418	24.39	-0.16	0.050			
0.7301	46725.18	3.5840	3.5838	1.1314	24.40	-0.15	0.050			
0.7312	46795.74	3.5830	3.5830	1.1226	24.40	-0.15	0.050			
0.7323	46865.29	3.5820	3.5819	1.1196	24.39	-0.16	0.050			
0.7334	46935.17	3.5810	3.5811	1.1176	24.40	-0.15	0.050			
0.7345	47005.45	3.5800	3.5801	1.1166	24.40	-0.15	0.050			
0.7356	47076.48	3.5790	3.5790	1.1179	24.39	-0.16	0.050	0.397	0.591	
0.7367	47147.29	3.5780	3.5780	1.1192	24.39	-0.16	0.050			
0.7378	47218.73	3.5770	3.5772	1.1218	24.39	-0.16	0.050			
0.7389	47290.24	3.5760	3.5759	1.1236	24.37	-0.18	0.050			
0.7400	47363.19	3.5750	3.5751	1.1249	24.39	-0.16	0.050			
0.7412	47435.76	3.5740	3.5740	1.1270	24.39	-0.16	0.050			
0.7423	47508.46	3.5730	3.5730	1.1285	24.39	-0.16	0.050			
0.7435	47581.25	3.5720	3.5721	1.1310	24.39	-0.16	0.050			
0.7446	47653.82	3.5710	3.5711	1.1320	24.39	-0.16	0.050			
0.7457	47727.24	3.5700	3.5700	1.1321	24.39	-0.16	0.050			
0.7469	47800.33	3.5690	3.5689	1.1323	24.39	-0.16	0.050			
0.7480	47873.01	3.5680	3.5680	1.1298	24.39	-0.16	0.050			
0.7492	47945.89	3.5670	3.5671	1.1280	24.39	-0.16	0.050			
0.7503	48018.33	3.5660	3.5661	1.1272	24.39	-0.16	0.050			
0.7514	48090.37	3.5650	3.5649	1.1250	24.39	-0.16	0.050			
0.7525	48162.01	3.5640	3.5640	1.1210	24.41	-0.14	0.050			
0.7537	48234.02	3.5630	3.5631	1.1175	24.39	-0.16	0.050			
0.7548	48304.99	3.5620	3.5619	1.1135	24.40	-0.15	0.050			
0.7559	48376.50	3.5610	3.5612	1.1111	24.39	-0.16	0.050	0.241	0.488	
0.7570	48447.79	3.5600	3.5598	1.1076	24.39	-0.16	0.050			
0.7581	48518.72	3.5590	3.5590	1.1031	24.39	-0.16	0.050			
0.7592	48588.37	3.5580	3.5580	1.1018	24.38	-0.17	0.050			
0.7603	48658.52	3.5570	3.5570	1.1012	24.37	-0.18	0.050			
0.7614	48729.05	3.5560	3.5560	1.0990	24.37	-0.18	0.050			
0.7625	48798.59	3.5550	3.5551	1.1007	24.37	-0.18	0.050			
0.7636	48867.86	3.5540	3.5541	1.1002	24.37	-0.18	0.050			
0.7646	48937.59	3.5530	3.5529	1.1004	24.37	-0.18	0.050			
0.7657	49007.67	3.5520	3.5519	1.1033	24.37	-0.18	0.050			
0.7668	49076.96	3.5510	3.5509	1.1073	24.37	-0.18	0.050			
0.7679	49146.94	3.5500	3.5499	1.1133	24.37	-0.18	0.050			
0.7690	49216.81	3.5490	3.5489	1.1199	24.37	-0.18	0.050			
0.7701	49287.74	3.5480	3.5481	1.1291	24.37	-0.18	0.050			
0.7712	49358.76	3.5470	3.5470	1.1401	24.37	-0.18	0.050			
0.7723	49430.19	3.5460	3.5459	1.1528	24.37	-0.18	0.050			
0.7735	49503.54	3.5450	3.5451	1.1668	24.37	-0.18	0.050			
0.7747	49578.22	3.5440	3.5442	1.1831	24.37	-0.18	0.050			
0.7758	49653.38	3.5430	3.5431	1.2007	24.36	-0.19	0.050	0.252	0.532	
0.7770	49729.85	3.5420	3.5418	1.2180	24.37	-0.18	0.050			
0.7782	49807.85	3.5410	3.5411	1.2368	24.35	-0.20	0.050			
0.7795	49886.76	3.5400	3.5401	1.2591	24.35	-0.20	0.050			
0.7807	49966.80	3.5390	3.5389	1.2814	24.35	-0.20	0.050			
0.7820	50047.57	3.5380	3.5378	1.3051	24.35	-0.20	0.050			
0.7833	50131.14	3.5370	3.5371	1.3319	24.35	-0.20	0.050			
0.7846	50215.83	3.5360	3.5362	1.3628	24.35	-0.20	0.050			
0.7860	50301.81	3.5350	3.5350	1.3945	24.35	-0.20	0.050			
0.7874	50390.96	3.5340	3.5340	1.4286	24.34	-0.21	0.050			
0.7888	50481.62	3.5330	3.5330	1.4651	24.34	-0.21	0.050			
0.7902	50575.25	3.5320	3.5320	1.4998	24.35	-0.20	0.050			
0.7917	50669.45	3.5310	3.5311	1.5423	24.35	-0.20	0.050			
0.7933	50768.80	3.5300	3.5299	1.5821	24.35	-0.20	0.050			
0.7948	50870.35	3.5290	3.5291	1.6240	24.34	-0.21	0.050	0.186	0.371	
0.7965	50974.40	3.5280	3.5280	1.6695	24.33	-0.22	0.050			
0.7981	51081.36	3.5270	3.5268	1.7172	24.35	-0.20	0.050			
0.7999	51191.68	3.5260	3.5260	1.7660	24.33	-0.22	0.050			
0.8017	51306.26	3.5250	3.5250	1.8165	24.33	-0.22	0.050			
0.8035	51423.53	3.5240	3.5241	1.8684	24.33	-0.22	0.050			
0.8054	51545.81	3.5230	3.5231	1.9163	24.33	-0.22	0.050			
0.8074	51671.00	3.5220	3.5219	1.9661	24.33	-0.22	0.050			
0.8093	51798.36	3.5210	3.5211	2.0145	24.33	-0.22	0.050			
0.8114	51929.25	3.5200	3.5198	2.0642	24.33	-0.22	0.050			
0.8135	52064.84	3.5190	3.5190	2.1095	24.33	-0.22	0.050			
0.8157	52203.07	3.5180	3.5180	2.1524	24.31	-0.24	0.050	0.487	0.614	
0.8179	52343.92	3.5170	3.5170	2.1937	24.31	-0.24	0.050			
0.8201	52486.98	3.5160	3.5161	2.2337	24.31	-0.24	0.050			
0.8224	52634.20	3.5150	3.5149	2.2679	24.29	-0.26	0.050			
0.8247	52783.77	3.5140	3.5141	2.2979	24.29	-0.26	0.050			
0.8271	52935.79	3.5130	3.5130	2.3205	24.29	-0.26	0.050			
0.8295	53090.46	3.5120	3.5120	2.3343	24.29	-0.26	0.050			
0.8320	53247.94	3.5110	3.5110	2.3376	24.29	-0.26	0.050			
0.8345	53405.10	3.5100	3.5100	2.3262	24.29	-0.26	0.050	0.443	0.750	
0.8369	53560.32	3.5090	3.5087	2.3097	24.29	-0.26	0.050			
0.8393	53717.33	3.5080	3.5080	2.2760	24.29	-0.26	0.050			
0.8417	53868.94	3.5070	3.5071	2.2312	24.29	-0.26	0.050			
0.8440	54017.44	3.5060	3.5062	2.1841	24.29	-0.26	0.050			
0.8463	54163.95	3.5050	3.5050	2.1115	24.29	-0.26	0.050			
0.8485	54304.85	3.5040	3.5042	2.0380	24.27	-0.28	0.050			
0.8506	54440.62	3.5030	3.5031	1.9425	24.28	-0.27	0.050			
0.8526	54567.14	3.5020	3.5022	1.8417	24.27	-0.28	0.050			
0.8545	54687.71	3.5010	3.5009	1.7381	24.27	-0.28	0.050			
0.8562	54799.38	3.5000	3.5000	1.6296	24.27	-0.28	0.050	0.315	0.519	
0.8579	54902.70	3.4990	3.4991	1.5195	24.28	-0.27	0.050			
0.8593	54994.56	3.4980	3.4982	1.4068	24.28	-0.27	0.050			
0.8606	55079.73	3.4970	3.4971	1.3028	24.29	-0.26	0.050			
0.8618	55154.33	3.4960	3.4960	1.2008	24.28	-0.27	0.050			
0.8629	55224.28	3.4950	3.4950	1.0905	24.28	-0.27	0.050			
0.8638	55284.45	3.4940	3.4939	1.0035	24.27	-0.28	0.050			
0.8647	55339.30	3.4930	3.4930	0.9266	24.27	-0.28	0.050			
0.8654	55388.06	3.4920	3.4915	0.8563	24.29	-0.26	0.050			
0.8662	55435.45	3.4910	3.4904	0.7790	24.29	-0.26	0.050			
0.8668	55472.97	3.4900	3.4898	0.7202	24.29	-0.26	0.050			
0.8673	55510.31	3.4890	3.4889	0.6734	24.29	-0.26	0.050			
0.8679	55545.44	3.4880	3.4879	0.6196	24.29	-0.26	0.050			
0.8684	55578.36	3.4870	3.4870	0.5845	24.29	-0.26	0.050			
0.8689	55611.62	3.4860	3.4860	0.5578	24.29	-0.26	0.050			
0.8694	55643.44	3.4850	3.4849	0.5266	24.29	-0.26	0.050			
0.8699	55674.07	3.4840	3.4840	0.5069	24.29	-0.26	0.050			
0.8704	55702.51	3.4830	3.4829	0.4860	24.29	-0.26	0.050			
0.8708	55732.58	3.4820	3.4820	0.4684	24.29	-0.26	0.050			
0.8713	55760.60	3.4810	3.4810	0.4535	24.29	-0.26	0.050			
0.8717	55788.02	3.4800	3.4801	0.4372	24.29	-0.26	0.050			
0.8721	55813.56	3.4790	3.4790	0.4252	24.30	-0.25	0.050			
0.8725	55839.72	3.4780	3.4779	0.4133	24.30	-0.25	0.050			
0.8729	55864.81	3.4770	3.4770	0.4039	24.29	-0.26	0.050			
0.8733	55889.93	3.4760	3.4760	0.3944	24.29	-0.26	0.050			
0.8737	55914.62	3.4750	3.4750	0.3876	24.30	-0.25	0.050			
0.8740	55938.71	3.4740	3.4739	0.3793	24.30	-0.25	0.050			
0.8744	55962.13	3.4730	3.4730	0.3726	24.30	-0.25	0.050			
0.8748	55985.62	3.4720	3.4720	0.3659	24.30	-0.25	0.050			
0.8751	56008.63	3.4710	3.4710	0.3606	24.29	-0.26	0.050			
0.8755	56031.06	3.4700	3.4702	0.3540	24.29	-0.26	0.050	0.275	0.480	
0.8758	56053.08	3.4690	3.4691	0.3495	24.29	-0.26	0.050			
0.8762	56075.29	3.4680	3.4680	0.3446	24.29	-0.26	0.050			
0.8765	56097.01	3.4670	3.4671	0.3397	24.29	-0.26	0.050			
0.8768	56118.21	3.4660	3.4660	0.3342	24.30	-0.25	0.050			
0.8772	56139.31	3.4650	3.4650	0.3306	24.30	-0.25	0.050			
0.8775	56160.32	3.4640	3.4640	0.3265	24.30	-0.25	0.050			
0.8778	56180.55	3.4630	3.4630	0.3227	24.31	-0.24	0.050			
0.8781	56201.09	3.4620	3.4619	0.3193	24.31	-0.24	0.050			
0.8785	56221.35	3.4610	3.4609	0.3157	24.30	-0.25	0.050			
0.8788	56241.45	3.4600	3.4599	0.3124	24.29	-0.26	0.050			
0.8791	56261.20	3.4590	3.4591	0.3093	24.30	-0.25	0.050			
0.8794	56280.89	3.4580	3.4580	0.3061	24.30	-0.25	0.050			
0.8797	56300.05	3.4570	3.4571	0.3026	24.31	-0.24	0.050			
0.8800	56319.32	3.4560	3.4559	0.2998	24.31	-0.24	0.050			
0.8803	56338.46	3.4550	3.4549	0.2970	24.31	-0.24	0.050			
0.8806	56357.37	3.4540	3.4539	0.2941	24.31	-0.24	0.050			
0.8809	56376.05	3.4530	3.4530	0.2911	24.31	-0.24	0.050			
0.8812	56394.47	3.4520	3.4521	0.2887	24.31	-0.24	0.050			
0.8814	56412.79	3.4510	3.4510	0.2858	24.31	-0.24	0.050			
0.8817	56430.90	3.4500	3.4500	0.2835	24.31	-0.24	0.050			
0.8820	56448.89	3.4490	3.4490	0.2809	24.31	-0.24	0.050			
0.8823	56466.79	3.4480	3.4480	0.2784	24.31	-0.24	0.050			
0.8826	56484.33	3.4470	3.4471	0.2759	24.31	-0.24	0.050			
0.8828	56501.91	3.4460	3.4461	0.2736	24.31	-0.24	0.050			
0.8831	56519.21	3.4450	3.4449	0.2724	24.31	-0.24	0.050			
0.8834	56536.58	3.4440	3.4441	0.2703	24.31	-0.24	0.050			
0.8836	56553.49	3.4430	3.4430	0.2678	24.31	-0.24	0.050			
0.8839	56570.28	3.4420	3.4420	0.2672	24.31	-0.24	0.050			
0.8842	56587.00	3.4410	3.4411	0.2652	24.31	-0.24	0.050			
0.8844	56604.03	3.4400	3.4399	0.2638	24.31	-0.24	0.050			
0.8847	56620.84	3.4390	3.4391	0.2626	24.31	-0.24	0.050			
0.8850	56637.61	3.4380	3.4380	0.2614	24.32	-0.23	0.050			
0.8852	56654.24	3.4370	3.4370	0.2596	24.32	-0.23	0.050			
0.8855	56670.81	3.4360	3.4357	0.2585	24.33	-0.22	0.050			
0.8857	56687.39	3.4350	3.4350	0.2572	24.33	-0.22	0.050			
0.8860	56703.84	3.4340	3.4340	0.2561	24.33	-0.22	0.050			
0.8863	56720.19	3.4330	3.4329	0.2549	24.33	-0.22	0.050			
0.8865	56736.78	3.4320	3.4321	0.2533	24.33	-0.22	0.050			
0.8868	56752.94	3.4310	3.4310	0.2517	24.32	-0.23	0.050			
0.8870	56768.92	3.4300	3.4302	0.2508	24.32	-0.23	0.050			
0.8873	56784.92	3.4290	3.4290	0.2493	24.32	-0.23	0.050			
0.8875	56800.83	3.4280	3.4280	0.2479	24.32	-0.23	0.050			
0.8878	56816.95	3.4270	3.4270	0.2463	24.33	-0.22	0.050			
0.8880	56832.66	3.4260	3.4260	0.2446	24.33	-0.22	0.050			
0.8883	56848.40	3.4250	3.4249	0.2431	24.33	-0.22	0.050			
0.8885	56863.61	3.4240	3.4240	0.2421	24.33	-0.22	0.050			
0.8887	56879.05	3.4230	3.4230	0.2406	24.33	-0.22	0.050			
0.8890	56893.89	3.4220	3.4221	0.2391	24.33	-0.22	0.050			
0.8892	56909.17	3.4210	3.4210	0.2381	24.33	-0.22	0.050			
0.8894	56924.06	3.4200	3.4199	0.2364	24.33	-0.22	0.050			
0.8897	56939.33	3.4190	3.4190	0.2352	24.33	-0.22	0.050			
0.8899	56954.35	3.4180	3.4181	0.2342	24.33	-0.22	0.050			
0.8901	56969.41	3.4170	3.4171	0.2334	24.33	-0.22	0.050			
0.8904	56984.41	3.4160	3.4160	0.2320	24.33	-0.22	0.050			
0.8906	56999.20	3.4150	3.4149	0.2308	24.33	-0.22	0.050			
0.8908	57013.93	3.4140	3.4139	0.2297	24.33	-0.22	0.050			
0.8911	57028.55	3.4130	3.4129	0.2287	24.33	-0.22	0.050			
0.8913	57043.15	3.4120	3.4120	0.2276	24.33	-0.22	0.050			
0.8915	57057.69	3.4110	3.4112	0.2265	24.33	-0.22	0.050			
0.8918	57072.24	3.4100	3.4101	0.2259	24.33	-0.22	0.050			
0.8920	57086.66	3.4090	3.4091	0.2248	24.33	-0.22	0.050			
0.8922	57101.01	3.4080	3.4080	0.2236	24.33	-0.22	0.050			
0.8924	57115.14	3.4070	3.4069	0.2222	24.34	-0.21	0.050			
0.8926	57129.33	3.4060	3.4060	0.2212	24.34	-0.21	0.050			
0.8929	57143.45	3.4050	3.4050	0.2202	24.35	-0.20	0.050			
0.8931	57157.52	3.4040	3.4039	0.2203	24.35	-0.20	0.050			
0.8933	57171.59	3.4030	3.4030	0.2194	24.35	-0.20	0.050			
0.8935	57185.48	3.4020	3.4020	0.2173	24.35	-0.20	0.050			
0.8937	57199.36	3.4010	3.4011	0.2165	24.35	-0.20	0.050			
0.8940	57213.19	3.4000	3.3999	0.2156	24.35	-0.20	0.050			
0.8942	57226.88	3.3990	3.3990	0.2147	24.35	-0.20	0.050			
0.8944	57240.82	3.3980	3.3979	0.2131	24.35	-0.20	0.050			
0.8946	57254.43	3.3970	3.3971	0.2121	24.35	-0.20	0.050			
0.8948	57268.28	3.3960	3.3960	0.2116	24.35	-0.20	0.050			
0.8950	57281.77	3.3950	3.3950	0.2104	24.35	-0.20	0.050			
0.8952	57295.19	3.3940	3.3938	0.2091	24.35	-0.20	0.050			
0.8954	57308.71	3.3930	3.3929	0.2081	24.35	-0.20	0.050	0.421	0.791	
0.8957	57321.88	3.3920	3.3919	0.2070	24.35	-0.20	0.050			
0.8959	57335.09	3.3910	3.3909	0.2057	24.35	-0.20	0.050			
0.8961	57348.19	3.3900	3.3898	0.2044	24.35	-0.20	0.050			
0.8963	57361.17	3.3890	3.3890	0.2033	24.35	-0.20	0.050			
0.8965	57374.14	3.3880	3.3881	0.2020	24.35	-0.20	0.050			
0.8967	57387.02	3.3870	3.3871	0.2008	24.35	-0.20	0.050			
0.8969	57399.41	3.3860	3.3859	0.2007	24.35	-0.20	0.050			
0.8971	57412.23	3.3850	3.3849	0.1999	24.35	-0.20	0.050			
0.8973	57424.74	3.3840	3.3840	0.1987	24.35	-0.20	0.050			
0.8975	57437.43	3.3830	3.3830	0.1981	24.35	-0.20	0.050			
0.8977	57449.79	3.3820	3.3821	0.1966	24.36	-0.19	0.050			
0.8978	57462.36	3.3810	3.3811	0.1963	24.36	-0.19	0.050			
0.8980	57474.91	3.3800	3.3800	0.1960	24.36	-0.19	0.050			
0.8982	57487.48	3.3790	3.3789	0.1955	24.36	-0.19	0.050			
0.8984	57500.03	3.3780	3.3780	0.1952	24.37	-0.18	0.050			
0.8986	57512.51	3.3770	3.3768	0.1948	24.37	-0.18	0.050			
0.8988	57525.14	3.3760	3.3759	0.1937	24.37	-0.18	0.050			
0.8990	57537.62	3.3750	3.3750	0.1934	24.37	-0.18	0.050			
0.8992	57549.97	3.3740	3.3741	0.1927	24.37	-0.18	0.050			
0.8994	57562.40	3.3730	3.3730	0.1917	24.37	-0.18	0.050			
0.8996	57574.75	3.3720	3.3721	0.1912	24.37	-0.18	0.050			
0.8998	57586.96	3.3710	3.3711	0.1903	24.37	-0.18	0.050			
0.9000	57599.11	3.3700	3.3700	0.1895	24.37	-0.18	0.050			
0.9002	57611.45	3.3690	3.3689	0.1889	24.37	-0.18	0.050			
0.9004	57623.51	3.3680	3.3679	0.1878	24.37	-0.18	0.050			
0.9006	57635.49	3.3670	3.3670	0.1868	24.37	-0.18	0.050			
0.9007	57647.33	3.3660	3.3661	0.1866	24.37	-0.18	0.050			
0.9009	57659.24	3.3650	3.3651	0.1856	24.38	-0.17	0.050			
0.9011	57671.09	3.3640	3.3639	0.1846	24.38	-0.17	0.050			
0.9013	57682.51	3.3630	3.3629	0.1830	24.38	-0.17	0.050			
0.9015	57694.42	3.3620	3.3622	0.1818	24.38	-0.17	0.050			
0.9017	57706.03	3.3610	3.3610	0.1810	24.38	-0.17	0.050			
0.9018	57717.58	3.3600	3.3600	0.1801	24.38	-0.17	0.050			
0.9020	57729.20	3.3590	3.3590	0.1794	24.38	-0.17	0.050			
0.9022	57740.50	3.3580	3.3580	0.1789	24.38	-0.17	0.050			
0.9024	57751.92	3.3570	3.3570	0.1781	24.38	-0.17	0.050			
0.9025	57763.14	3.3560	3.3559	0.1771	24.39	-0.16	0.050			
0.9027	57774.29	3.3550	3.3550	0.1769	24.39	-0.16	0.050			
0.9029	57785.59	3.3540	3.3540	0.1764	24.39	-0.16	0.050			
0.9031	57796.84	3.3530	3.3531	0.1758	24.39	-0.16	0.050			
0.9033	57808.08	3.3520	3.3521	0.1753	24.39	-0.16	0.050			
0.9034	57819.44	3.3510	3.3511	0.1744	24.39	-0.16	0.050			
0.9036	57830.58	3.3500	3.3499	0.1738	24.39	-0.16	0.050			
0.9038	57841.67	3.3490	3.3488	0.1731	24.39	-0.16	0.050			
0.9039	57852.73	3.3480	3.3479	0.1725	24.39	-0.16	0.050			
0.9041	57863.71	3.3470	3.3469	0.1720	24.39	-0.16	0.050			
0.9043	57874.70	3.3460	3.3459	0.1714	24.39	-0.16	0.050			
0.9045	57885.65	3.3450	3.3450	0.1708	24.39	-0.16	0.050			
0.9046	57896.57	3.3440	3.3441	0.1702	24.39	-0.16	0.050			
0.9048	57907.45	3.3430	3.3429	0.1696	24.39	-0.16	0.050			
0.9050	57918.19	3.3420	3.3421	0.1688	24.39	-0.16	0.050			
0.9051	57928.98	3.3410	3.3412	0.1683	24.39	-0.16	0.050			
0.9053	57939.98	3.3400	3.3401	0.1671	24.39	-0.16	0.050			
0.9055	57950.65	3.3390	3.3389	0.1663	24.39	-0.16	0.050			
0.9057	57961.66	3.3380	3.3380	0.1663	24.39	-0.16	0.050			
0.9058	57972.27	3.3370	3.3369	0.1652	24.39	-0.16	0.050			
0.9060	57982.69	3.3360	3.3359	0.1646	24.39	-0.16	0.050			
0.9061	57993.11	3.3350	3.3350	0.1634	24.39	-0.16	0.050			
0.9063	58003.54	3.3340	3.3340	0.1626	24.39	-0.16	0.050			
0.9065	58013.92	3.3330	3.3331	0.1617	24.39	-0.16	0.050			
0.9066	58024.02	3.3320	3.3321	0.1616	24.39	-0.16	0.050			
0.9068	58034.17	3.3310	3.3311	0.1606	24.39	-0.16	0.050			
0.9069	58044.43	3.3300	3.3301	0.1600	24.39	-0.16	0.050			
0.9071	58054.65	3.3290	3.3291	0.1595	24.39	-0.16	0.050			
0.9073	58065.06	3.3280	3.3279	0.1583	24.39	-0.16	0.050			
0.9074	58075.32	3.3270	3.3269	0.1579	24.39	-0.16	0.050			
0.9076	58085.40	3.3260	3.3260	0.1571	24.39	-0.16	0.050			
0.9077	58095.42	3.3250	3.3249	0.1562	24.39	-0.16	0.050			
0.9079	58105.25	3.3240	3.3239	0.1552	24.39	-0.16	0.050			
0.9080	58115.00	3.3230	3.3230	0.1550	24.39	-0.16	0.050			
0.9082	58124.90	3.3220	3.3220	0.1544	24.39	-0.16	0.050			
0.9084	58134.77	3.3210	3.3210	0.1539	24.39	-0.16	0.050			
0.9085	58144.53	3.3200	3.3201	0.1533	24.39	-0.16	0.050			
0.9087	58154.19	3.3190	3.3191	0.1532	24.39	-0.16	0.050			
0.9088	58163.98	3.3180	3.3182	0.1528	24.39	-0.16	0.050			
0.9090	58173.75	3.3170	3.3171	0.1525	24.39	-0.16	0.050			
0.9091	58183.61	3.3160	3.3160	0.1523	24.40	-0.15	0.050			
0.9093	58193.49	3.3150	3.3149	0.1515	24.40	-0.15	0.050			
0.9094	58203.16	3.3140	3.3138	0.1509	24.41	-0.14	0.050			
0.9096	58212.80	3.3130	3.3129	0.1504	24.41	-0.14	0.050			
0.9097	58222.29	3.3120	3.3119	0.1496	24.41	-0.14	0.050			
0.9099	58231.77	3.3110	3.3110	0.1493	24.41	-0.14	0.050			
0.9100	58241.31	3.3100	3.3100	0.1489	24.41	-0.14	0.050			
0.9102	58250.83	3.3090	3.3090	0.1485	24.41	-0.14	0.050			
0.9103	58260.13	3.3080	3.3081	0.1478	24.41	-0.14	0.050			
0.9105	58270.01	3.3070	3.3071	0.1468	24.41	-0.14	0.050			
0.9106	58279.39	3.3060	3.3060	0.1462	24.41	-0.14	0.050			
0.9108	58288.72	3.3050	3.3051	0.1456	24.41	-0.14	0.050			
0.9109	58298.02	3.3040	3.3041	0.1450	24.41	-0.14	0.050			
0.9111	58307.87	3.3030	3.3028	0.1450	24.41	-0.14	0.050			
0.9112	58317.10	3.3020	3.3018	0.1440	24.41	-0.14	0.050			
0.9113	58326.29	3.3010	3.3009	0.1430	24.41	-0.14	0.050			
0.9115	58335.41	3.3000	3.3001	0.1420	24.41	-0.14	0.050			
0.9116	58344.44	3.2990	3.2991	0.1409	24.41	-0.14	0.050			
0.9118	58353.43	3.2980	3.2981	0.1399	24.42	-0.13	0.050			
0.9119	58362.01	3.2970	3.2971	0.1401	24.42	-0.13	0.050			
0.9120	58370.96	3.2960	3.2961	0.1394	24.42	-0.13	0.050			
0.9122	58379.66	3.2950	3.2951	0.1384	24.42	-0.13	0.050			
0.9123	58388.50	3.2940	3.2940	0.1379	24.42	-0.13	0.050			
0.9125	58397.08	3.2930	3.2930	0.1379	24.42	-0.13	0.050			
0.9126	58405.90	3.2920	3.2920	0.1375	24.42	-0.13	0.050			
0.9127	58414.53	3.2910	3.2909	0.1369	24.42	-0.13	0.050			
0.9129	58423.28	3.2900	3.2899	0.1366	24.42	-0.13	0.050			
0.9130	58432.02	3.2890	3.2888	0.1364	24.42	-0.13	0.050			
0.9131	58440.88	3.2880	3.2879	0.1357	24.42	-0.13	0.050			
0.9133	58449.26	3.2870	3.2869	0.1345	24.42	-0.13	0.050			
0.9134	58457.87	3.2860	3.2860	0.1344	24.43	-0.12	0.050			
0.9135	58466.46	3.2850	3.2850	0.1343	24.43	-0.12	0.050			
0.9137	58475.05	3.2840	3.2840	0.1342	24.43	-0.12	0.050			
0.9138	58483.76	3.2830	3.2830	0.1334	24.43	-0.12	0.050			
0.9139	58492.62	3.2820	3.2820	0.1338	24.43	-0.12	0.050			
0.9141	58501.17	3.2810	3.2811	0.1333	24.43	-0.12	0.050			
0.9142	58509.68	3.2800	3.2801	0.1328	24.43	-0.12	0.050			
0.9143	58518.27	3.2790	3.2791	0.1320	24.43	-0.12	0.050			
0.9145	58526.70	3.2780	3.2781	0.1315	24.43	-0.12	0.050			
0.9146	58535.37	3.2770	3.2770	0.1315	24.43	-0.12	0.050			
0.9147	58543.76	3.2760	3.2760	0.1307	24.43	-0.12	0.050			
0.9149	58552.11	3.2750	3.2749	0.1300	24.43	-0.12	0.050			
0.9150	58560.40	3.2740	3.2738	0.1292	24.43	-0.12	0.050			
0.9151	58568.40	3.2730	3.2730	0.1285	24.43	-0.12	0.050			
0.9153	58576.61	3.2720	3.2721	0.1280	24.43	-0.12	0.050			
0.9154	58584.78	3.2710	3.2710	0.1274	24.43	-0.12	0.050			
0.9155	58592.92	3.2700	3.2697	0.1269	24.43	-0.12	0.050	0.529	0.674	
0.9156	58601.02	3.2690	3.2689	0.1263	24.43	-0.12	0.050			
0.9158	58608.82	3.2680	3.2680	0.1257	24.43	-0.12	0.050			
0.9159	58616.85	3.2670	3.2670	0.1254	24.43	-0.12	0.050			
0.9160	58624.87	3.2660	3.2660	0.1250	24.43	-0.12	0.050			
0.9161	58632.86	3.2650	3.2650	0.1247	24.43	-0.12	0.050			
0.9163	58640.83	3.2640	3.2640	0.1244	24.43	-0.12	0.050			
0.9164	58648.80	3.2630	3.2630	0.1239	24.43	-0.12	0.050			
0.9165	58656.72	3.2620	3.2620	0.1236	24.43	-0.12	0.050			
0.9166	58664.62	3.2610	3.2610	0.1232	24.43	-0.12	0.050			
0.9168	58672.49	3.2600	3.2600	0.1228	24.44	-0.11	0.050			
0.9169	58680.26	3.2590	3.2589	0.1224	24.44	-0.11	0.050			
0.9170	58688.24	3.2580	3.2580	0.1217	24.44	-0.11	0.050			
0.9171	58696.01	3.2570	3.2570	0.1213	24.44	-0.11	0.050			
0.9172	58703.76	3.2560	3.2560	0.1209	24.44	-0.11	0.050			
0.9174	58711.48	3.2550	3.2550	0.1204	24.44	-0.11	0.050			
0.9175	58719.18	3.2540	3.2540	0.1200	24.44	-0.11	0.050			
0.9176	58727.03	3.2530	3.2530	0.1197	24.45	-0.10	0.050			
0.9177	58734.65	3.2520	3.2521	0.1192	24.45	-0.10	0.050			
0.9178	58742.26	3.2510	3.2510	0.1187	24.45	-0.10	0.050			
0.9180	58749.84	3.2500	3.2501	0.1182	24.45	-0.10	0.050			
0.9181	58757.39	3.2490	3.2491	0.1176	24.45	-0.10	0.050			
0.9182	58764.95	3.2480	3.2481	0.1172	24.45	-0.10	0.050			
0.9183	58772.43	3.2470	3.2469	0.1166	24.45	-0.10	0.050			
0.9184	58779.67	3.2460	3.2459	0.1166	24.44	-0.11	0.050			
0.9185	58787.13	3.2450	3.2451	0.1162	24.44	-0.11	0.050			
0.9187	58794.55	3.2440	3.2440	0.1158	24.44	-0.11	0.050			
0.9188	58801.74	3.2430	3.2428	0.1152	24.44	-0.11	0.050			
0.9189	58809.11	3.2420	3.2420	0.1149	24.44	-0.11	0.050			
0.9190	58816.64	3.2410	3.2410	0.1142	24.44	-0.11	0.050			
0.9191	58823.94	3.2400	3.2401	0.1138	24.44	-0.11	0.050			
0.9192	58831.21	3.2390	3.2390	0.1134	24.45	-0.10	0.050			
0.9194	58838.44	3.2380	3.2378	0.1130	24.45	-0.10	0.050			
0.9195	58845.66	3.2370	3.2369	0.1126	24.45	-0.10	0.050			
0.9196	58852.83	3.2360	3.2360	0.1123	24.45	-0.10	0.050			
0.9197	58860.01	3.2350	3.2349	0.1119	24.45	-0.10	0.050			
0.9198	58867.16	3.2340	3.2341	0.1115	24.45	-0.10	0.050			
0.9199	58874.28	3.2330	3.2331	0.1111	24.45	-0.10	0.050			
0.9200	58881.47	3.2320	3.2320	0.1109	24.45	-0.10	0.050			
0.9201	58888.55	3.2310	3.2310	0.1104	24.46	-0.09	0.050			
0.9202	58895.57	3.2300	3.2301	0.1101	24.46	-0.09	0.050			
0.9204	58902.60	3.2290	3.2290	0.1097	24.46	-0.09	0.050			
0.9205	58909.61	3.2280	3.2279	0.1093	24.46	-0.09	0.050			
0.9206	58916.59	3.2270	3.2270	0.1089	24.46	-0.09	0.050			
0.9207	58923.57	3.2260	3.2261	0.1085	24.46	-0.09	0.050			
0.9208	58930.50	3.2250	3.2250	0.1081	24.46	-0.09	0.050			
0.9209	58937.40	3.2240	3.2239	0.1076	24.47	-0.08	0.050			
0.9210	58944.28	3.2230	3.2230	0.1072	24.47	-0.08	0.050			
0.9211	58951.13	3.2220	3.2220	0.1068	24.47	-0.08	0.050			
0.9212	58957.78	3.2210	3.2209	0.1061	24.47	-0.08	0.050			
0.9213	58964.56	3.2200	3.2200	0.1057	24.47	-0.08	0.050			
0.9214	58971.32	3.2190	3.2191	0.1054	24.47	-0.08	0.050			
0.9215	58978.16	3.2180	3.2181	0.1048	24.47	-0.08	0.050			
0.9216	58984.86	3.2170	3.2170	0.1044	24.47	-0.08	0.050			
0.9217	58991.71	3.2160	3.2160	0.1045	24.47	-0.08	0.050			
0.9218	58998.38	3.2150	3.2150	0.1039	24.47	-0.08	0.050			
0.9220	59005.01	3.2140	3.2141	0.1034	24.47	-0.08	0.050			
0.9221	59011.61	3.2130	3.2130	0.1029	24.47	-0.08	0.050			
0.9222	59018.09	3.2120	3.2120	0.1026	24.47	-0.08	0.050			
0.9223	59024.64	3.2110	3.2110	0.1022	24.47	-0.08	0.050			
0.9224	59031.11	3.2100	3.2101	0.1016	24.47	-0.08	0.050			
0.9225	59037.60	3.2090	3.2090	0.1011	24.47	-0.08	0.050			
0.9226	59044.06	3.2080	3.2080	0.1007	24.48	-0.07	0.050			
0.9227	59050.49	3.2070	3.2070	0.1003	24.48	-0.07	0.050			
0.9228	59056.90	3.2060	3.2060	0.0999	24.48	-0.07	0.050			
0.9229	59063.13	3.2050	3.2049	0.1000	24.48	-0.07	0.050			
0.9230	59069.52	3.2040	3.2039	0.0996	24.48	-0.07	0.050			
0.9231	59075.73	3.2030	3.2030	0.0990	24.48	-0.07	0.050			
0.9232	59082.06	3.2020	3.2021	0.0988	24.48	-0.07	0.050			
0.9233	59088.37	3.2010	3.2011	0.0985	24.48	-0.07	0.050			
0.9234	59094.67	3.2000	3.2001	0.0983	24.48	-0.07	0.050			
0.9235	59100.96	3.1990	3.1990	0.0981	24.49	-0.06	0.050			
0.9236	59107.34	3.1980	3.1979	0.0975	24.49	-0.06	0.050			
0.9236	59113.57	3.1970	3.1969	0.0971	24.49	-0.06	0.050			
0.9237	59119.78	3.1960	3.1959	0.0968	24.49	-0.06	0.050			
0.9238	59125.96	3.1950	3.1951	0.0965	24.49	-0.06	0.050			
0.9239	59132.13	3.1940	3.1941	0.0962	24.49	-0.06	0.050			
0.9240	59138.28	3.1930	3.1930	0.0959	24.49	-0.06	0.050			
0.9241	59144.56	3.1920	3.1920	0.0957	24.49	-0.06	0.050			
0.9242	59150.67	3.1910	3.1911	0.0953	24.49	-0.06	0.050			
0.9243	59156.76	3.1900	3.1901	0.0949	24.49	-0.06	0.050			
0.9244	59162.82	3.1890	3.1891	0.0945	24.49	-0.06	0.050			
0.9245	59168.86	3.1880	3.1881	0.0941	24.49	-0.06	0.050			
0.9246	59174.87	3.1870	3.1871	0.0937	24.49	-0.06	0.050			
0.9247	59180.86	3.1860	3.1860	0.0933	24.49	-0.06	0.050			
0.9248	59186.90	3.1850	3.1850	0.0931	24.49	-0.06	0.050			
0.9249	59192.84	3.1840	3.1840	0.0926	24.50	-0.05	0.050			
0.9250	59198.76	3.1830	3.1830	0.0921	24.50	-0.05	0.050			
0.9251	59204.64	3.1820	3.1820	0.0917	24.50	-0.05	0.050			
0.9252	59210.49	3.1810	3.1810	0.0912	24.50	-0.05	0.050			
0.9253	59216.31	3.1800	3.1799	0.0908	24.51	-0.04	0.050			
0.9253	59221.99	3.1790	3.1789	0.0907	24.51	-0.04	0.050			
0.9254	59227.63	3.1780	3.1780	0.0898	24.51	-0.04	0.050			
0.9255	59233.37	3.1770	3.1770	0.0895	24.51	-0.04	0.050			
0.9256	59239.09	3.1760	3.1761	0.0892	24.51	-0.04	0.050			
0.9257	59244.80	3.1750	3.1751	0.0890	24.51	-0.04	0.050			
0.9258	59250.48	3.1740	3.1741	0.0887	24.51	-0.04	0.050			
0.9259	59256.14	3.1730	3.1731	0.0884	24.51	-0.04	0.050			
0.9260	59261.79	3.1720	3.1721	0.0881	24.51	-0.04	0.050			
0.9261	59267.32	3.1710	3.1711	0.0879	24.51	-0.04	0.050			
0.9261	59272.94	3.1700	3.1701	0.0877	24.51	-0.04	0.050			
0.9262	59278.55	3.1690	3.1688	0.0875	24.51	-0.04	0.050			
0.9263	59284.14	3.1680	3.1681	0.0873	24.51	-0.04	0.050			
0.9264	59289.71	3.1670	3.1670	0.0870	24.51	-0.04	0.050			
0.9265	59295.28	3.1660	3.1660	0.0868	24.51	-0.04	0.050			
0.9266	59300.89	3.1650	3.1650	0.0862	24.51	-0.04	0.050			
0.9267	59306.40	3.1640	3.1640	0.0860	24.51	-0.04	0.050			
0.9267	59311.89	3.1630	3.1631	0.0857	24.52	-0.03	0.050			
0.9268	59317.37	3.1620	3.1621	0.0854	24.52	-0.03	0.050			
0.9269	59322.83	3.1610	3.1611	0.0852	24.52	-0.03	0.050			
0.9270	59328.27	3.1600	3.1600	0.0849	24.52	-0.03	0.050			
0.9271	59333.84	3.1590	3.1588	0.0848	24.52	-0.03	0.050			
0.9272	59339.29	3.1580	3.1581	0.0844	24.52	-0.03	0.050			
0.9273	59344.68	3.1570	3.1570	0.0840	24.52	-0.03	0.050			
0.9273	59350.04	3.1560	3.1560	0.0837	24.52	-0.03	0.050			
0.9274	59355.39	3.1550	3.1550	0.0833	24.52	-0.03	0.050			
0.9275	59360.70	3.1540	3.1540	0.0829	24.52	-0.03	0.050			
0.9276	59366.00	3.1530	3.1530	0.0825	24.52	-0.03	0.050			
0.9277	59371.27	3.1520	3.1520	0.0821	24.52	-0.03	0.050			
0.9278	59376.63	3.1510	3.1510	0.0818	24.52	-0.03	0.050			
0.9278	59381.68	3.1500	3.1500	0.0817	24.52	-0.03	0.050			
0.9279	59386.89	3.1490	3.1489	0.0814	24.52	-0.03	0.050			
0.9280	59392.09	3.1480	3.1481	0.0811	24.52	-0.03	0.050			
0.9281	59397.27	3.1470	3.1471	0.0807	24.52	-0.03	0.050			
0.9282	59402.43	3.1460	3.1460	0.0804	24.52	-0.03	0.050			
0.9282	59407.37	3.1450	3.1450	0.0799	24.52	-0.03	0.050			
0.9283	59412.51	3.1440	3.1441	0.0797	24.52	-0.03	0.050			
0.9284	59417.61	3.1430	3.1430	0.0794	24.53	-0.02	0.050			
0.9285	59422.68	3.1420	3.1420	0.0792	24.53	-0.02	0.050			
0.9286	59427.74	3.1410	3.1411	0.0790	24.53	-0.02	0.050			
0.9286	59432.79	3.1400	3.1401	0.0788	24.53	-0.02	0.050			
0.9287	59437.82	3.1390	3.1389	0.0785	24.53	-0.02	0.050			
0.9288	59442.82	3.1380	3.1378	0.0783	24.53	-0.02	0.050			
0.9289	59447.82	3.1370	3.1370	0.0781	24.53	-0.02	0.050			
0.9290	59452.92	3.1360	3.1360	0.0776	24.53	-0.02	0.050			
0.9290	59457.88	3.1350	3.1350	0.0773	24.53	-0.02	0.050			
0.9291	59462.82	3.1340	3.1340	0.0770	24.53	-0.02	0.050			
0.9292	59467.74	3.1330	3.1330	0.0768	24.53	-0.02	0.050			
0.9293	59472.65	3.1320	3.1321	0.0765	24.53	-0.02	0.050			
0.9293	59477.53	3.1310	3.1311	0.0762	24.53	-0.02	0.050			
0.9294	59482.56	3.1300	3.1300	0.0760	24.53	-0.02	0.050			
0.9295	59487.42	3.1290	3.1290	0.0756	24.53	-0.02	0.050			
0.9296	59492.14	3.1280	3.1280	0.0755	24.53	-0.02	0.050			
0.9296	59496.96	3.1270	3.1271	0.0752	24.53	-0.02	0.050			
0.9297	59501.76	3.1260	3.1261	0.0749	24.53	-0.02	0.050			
0.9298	59506.54	3.1250	3.1250	0.0746	24.53	-0.02	0.050			
0.9299	59511.24	3.1240	3.1240	0.0741	24.53	-0.02	0.050			
0.9299	59515.98	3.1230	3.1230	0.0739	24.53	-0.02	0.050			
0.9300	59520.70	3.1220	3.1219	0.0736	24.53	-0.02	0.050			
0.9301	59525.39	3.1210	3.1210	0.0733	24.53	-0.02	0.050			
0.9302	59530.07	3.1200	3.1200	0.0731	24.53	-0.02	0.050			
0.9302	59534.74	3.1190	3.1190	0.0728	24.53	-0.02	0.050			
0.9303	59539.39	3.1180	3.1180	0.0725	24.53	-0.02	0.050			
0.9304	59544.03	3.1170	3.1170	0.0723	24.53	-0.02	0.050			
0.9304	59548.58	3.1160	3.1160	0.0719	24.53	-0.02	0.050			
0.9305	59553.17	3.1150	3.1150	0.0717	24.53	-0.02	0.050			
0.9306	59557.75	3.1140	3.1140	0.0714	24.53	-0.02	0.050			
0.9307	59562.33	3.1130	3.1130	0.0712	24.53	-0.02	0.050			
0.9307	59566.88	3.1120	3.1120	0.0709	24.53	-0.02	0.050			
0.9308	59571.41	3.1110	3.1110	0.0707	24.53	-0.02	0.050			
0.9309	59575.93	3.1100	3.1100	0.0705	24.53	-0.02	0.050			
0.9309	59580.43	3.1090	3.1090	0.0702	24.53	-0.02	0.050			
0.9310	59584.96	3.1080	3.1081	0.0701	24.53	-0.02	0.050			
0.9311	59589.44	3.1070	3.1070	0.0698	24.53	-0.02	0.050			
0.9312	59593.90	3.1060	3.1060	0.0695	24.53	-0.02	0.050			
0.9312	59598.34	3.1050	3.1050	0.0693	24.53	-0.02	0.050			
0.9313	59602.70	3.1040	3.1040	0.0691	24.53	-0.02	0.050			
0.9314	59607.12	3.1030	3.1030	0.0689	24.53	-0.02	0.050			
0.9314	59611.52	3.1020	3.1019	0.0687	24.53	-0.02	0.050			
0.9315	59615.84	3.1010	3.1010	0.0683	24.54	-0.01	0.050			
0.9316	59620.21	3.1000	3.1001	0.0681	24.54	-0.01	0.050			
0.9316	59624.56	3.0990	3.0991	0.0679	24.54	-0.01	0.050			
0.9317	59628.90	3.0980	3.0980	0.0677	24.54	-0.01	0.050			
0.9318	59633.23	3.0970	3.0970	0.0675	24.54	-0.01	0.050			
0.9318	59637.54	3.0960	3.0961	0.0673	24.54	-0.01	0.050			
0.9319	59641.92	3.0950	3.0950	0.0669	24.55	-0.00	0.050			
0.9320	59646.20	3.0940	3.0940	0.0667	24.55	-0.00	0.050			
0.9320	59650.50	3.0930	3.0929	0.0665	24.55	-0.00	0.050			
0.9321	59654.75	3.0920	3.0919	0.0663	24.55	-0.00	0.050			
0.9322	59658.98	3.0910	3.0910	0.0660	24.55	0.00	0.050			
0.9322	59663.20	3.0900	3.0900	0.0658	24.55	0.00	0.050			
0.9323	59667.40	3.0890	3.0890	0.0655	24.55	0.00	0.050			
0.9324	59671.58	3.0880	3.0880	0.0652	24.55	0.00	0.050			
0.9324	59675.72	3.0870	3.0870	0.0651	24.55	0.00	0.050			
0.9325	59679.88	3.0860	3.0861	0.0648	24.55	0.00	0.050			
0.9326	59684.02	3.0850	3.0851	0.0646	24.55	0.00	0.050			
0.9326	59688.16	3.0840	3.0841	0.0644	24.55	0.00	0.050			
0.9327	59692.27	3.0830	3.0830	0.0641	24.55	0.00	0.050			
0.9328	59696.37	3.0820	3.0820	0.0639	24.55	0.00	0.050			
0.9328	59700.45	3.0810	3.0810	0.0636	24.55	0.00	0.050			
0.9329	59704.51	3.0800	3.0799	0.0634	24.55	0.00	0.050			
0.9329	59708.56	3.0790	3.0788	0.0631	24.55	-0.00	0.050			
0.9330	59712.59	3.0780	3.0779	0.0629	24.55	-0.00	0.050			
0.9331	59716.61	3.0770	3.0770	0.0626	24.55	-0.00	0.050			
0.9331	59720.60	3.0760	3.0761	0.0624	24.55	-0.00	0.050			
0.9332	59724.54	3.0750	3.0751	0.0620	24.55	-0.00	0.050			
0.9333	59728.50	3.0740	3.0741	0.0618	24.55	-0.00	0.050			
0.9333	59732.44	3.0730	3.0730	0.0615	24.55	-0.00	0.050			
0.9334	59736.37	3.0720	3.0720	0.0613	24.54	-0.01	0.050			
0.9334	59740.29	3.0710	3.0711	0.0611	24.54	-0.01	0.050			
0.9335	59744.19	3.0700	3.0701	0.0609	24.54	-0.01	0.050			
0.9336	59748.09	3.0690	3.0691	0.0606	24.54	-0.01	0.050			
0.9336	59751.96	3.0680	3.0681	0.0604	24.54	-0.01	0.050			
0.9337	59755.85	3.0670	3.0670	0.0602	24.54	-0.01	0.050			
0.9337	59759.70	3.0660	3.0659	0.0600	24.54	-0.01	0.050			
0.9338	59763.53	3.0650	3.0651	0.0597	24.54	-0.01	0.050			
0.9339	59767.34	3.0640	3.0641	0.0595	24.54	-0.01	0.050			
0.9339	59771.14	3.0630	3.0631	0.0592	24.54	-0.01	0.050			
0.9340	59774.92	3.0620	3.0620	0.0590	24.54	-0.01	0.050			
0.9340	59778.69	3.0610	3.0610	0.0587	24.55	-0.00	0.050			
0.9341	59782.44	3.0600	3.0599	0.0584	24.55	-0.00	0.050			
0.9342	59786.60	3.0590	3.0587	0.0571	24.55	-0.00	0.050			
0.9342	59790.24	3.0580	3.0579	0.0566	24.55	0.00	0.050			
0.9343	59794.06	3.0570	3.0569	0.0570	24.55	0.00	0.050			
0.9343	59797.70	3.0560	3.0559	0.0565	24.55	0.00	0.050			
0.9344	59801.29	3.0550	3.0550	0.0559	24.55	0.00	0.050			
0.9345	59804.86	3.0540	3.0540	0.0554	24.56	0.01	0.050			
0.9345	59808.39	3.0530	3.0530	0.0548	24.56	0.01	0.050			
0.9346	59811.88	3.0520	3.0520	0.0543	24.56	0.01	0.050			
0.9346	59815.33	3.0510	3.0510	0.0537	24.56	0.01	0.050			
0.9347	59818.76	3.0500	3.0501	0.0532	24.56	0.01	0.050			
0.9347	59822.59	3.0490	3.0490	0.0534	24.56	0.01	0.050			
0.9348	59825.99	3.0480	3.0481	0.0527	24.56	0.01	0.050			
0.9348	59829.33	3.0470	3.0471	0.0519	24.56	0.01	0.050			
0.9349	59832.63	3.0460	3.0462	0.0512	24.56	0.01	0.050			
0.9349	59835.89	3.0450	3.0452	0.0505	24.56	0.01	0.050			
0.9350	59839.10	3.0440	3.0443	0.0498	24.56	0.01	0.050			
0.9350	59842.26	3.0430	3.0434	0.0491	24.55	0.00	0.050			
0.9351	59845.38	3.0420	3.0424	0.0483	24.55	0.00	0.050			
0.9351	59848.45	3.0410	3.0415	0.0476	24.55	0.00	0.050			
0.9352	59851.47	3.0400	3.0405	0.0469	24.55	0.00	0.050			
0.9352	59854.45	3.0390	3.0396	0.0462	24.55	0.00	0.050			
0.9353	59857.38	3.0380	3.0386	0.0454	24.55	0.00	0.050			
0.9353	59860.27	3.0370	3.0377	0.0447	24.55	0.00	0.050			
0.9354	59863.10	3.0360	3.0367	0.0440	24.55	0.00	0.050			
0.9354	59865.90	3.0350	3.0356	0.0433	24.55	0.00	0.050			
0.9354	59868.65	3.0340	3.0346	0.0426	24.55	-0.00	0.050			
