Ah_balance (normalized)	Ah_balance (mAh)	Voltage - fit (V)	Voltage -  interpolate (V)	dQ/dV (1/V)	Temperature (°C)	Temperature - diff (°C)	Current (C)	R_DC 0ms (mOhm)	R_DC 50ms (mOhm)	R_DC 50 ms PEC (mOhm)
0.0970	6207.71	4.0090	4.0085	-0.0851	5.93	0.00	-0.750			
0.0973	6225.75	4.0060	4.0057	-0.1087	5.93	0.00	-0.750			
0.0976	6249.21	4.0030	4.0031	-0.1357	5.93	-0.00	-0.750			
0.0981	6278.18	4.0000	4.0000	-0.1610	5.93	-0.00	-0.750			
0.0986	6311.76	3.9970	3.9968	-0.1864	5.93	-0.00	-0.750			
0.0992	6350.72	3.9940	3.9941	-0.2108	5.93	-0.00	-0.750			
0.0999	6393.43	3.9910	3.9910	-0.2337	5.92	-0.01	-0.750			
0.1006	6440.53	3.9880	3.9881	-0.2570	5.92	-0.01	-0.750			
0.1014	6492.47	3.9850	3.9850	-0.2801	5.92	-0.01	-0.750			
0.1023	6548.11	3.9820	3.9820	-0.3012	5.92	-0.01	-0.750			
0.1033	6608.21	3.9790	3.9790	-0.3234	5.92	-0.01	-0.750			
0.1043	6672.30	3.9760	3.9761	-0.3445	5.91	-0.02	-0.750			
0.1053	6740.52	3.9730	3.9730	-0.3679	5.91	-0.02	-0.750			
0.1065	6813.33	3.9700	3.9699	-0.3898	5.91	-0.02	-0.750			
0.1077	6890.01	3.9670	3.9670	-0.4121	5.91	-0.02	-0.750			
0.1089	6971.61	3.9640	3.9639	-0.4335	5.90	-0.03	-0.750			
0.1103	7057.06	3.9610	3.9611	-0.4569	5.90	-0.03	-0.750			
0.1117	7146.97	3.9580	3.9580	-0.4776	5.90	-0.03	-0.750			
0.1131	7240.81	3.9550	3.9549	-0.4979	5.89	-0.04	-0.750			
0.1147	7337.65	3.9520	3.9520	-0.5170	5.89	-0.04	-0.750			
0.1162	7438.43	3.9490	3.9490	-0.5439	5.88	-0.05	-0.750			
0.1179	7547.24	3.9460	3.9460	-0.5607	5.88	-0.05	-0.750			
0.1196	7657.38	3.9430	3.9429	-0.5780	5.88	-0.05	-0.750			
0.1214	7770.14	3.9400	3.9400	-0.5938	5.87	-0.06	-0.750			
0.1232	7886.37	3.9370	3.9370	-0.6086	5.87	-0.06	-0.750			
0.1251	8004.53	3.9340	3.9339	-0.6208	5.87	-0.06	-0.750			
0.1269	8124.10	3.9310	3.9310	-0.6315	5.86	-0.07	-0.750			
0.1288	8245.26	3.9280	3.9280	-0.6427	5.86	-0.07	-0.750			
0.1308	8372.49	3.9250	3.9250	-0.6554	5.86	-0.07	-0.750			
0.1328	8499.40	3.9220	3.9220	-0.6637	5.85	-0.08	-0.750			
0.1348	8627.62	3.9190	3.9191	-0.6716	5.85	-0.08	-0.750			
0.1368	8757.60	3.9160	3.9160	-0.6799	5.85	-0.08	-0.750			
0.1389	8888.82	3.9130	3.9130	-0.6871	5.85	-0.08	-0.750			
0.1410	9021.51	3.9100	3.9100	-0.6974	5.85	-0.08	-0.750			
0.1431	9157.87	3.9070	3.9069	-0.7025	5.86	-0.07	-0.750			
0.1452	9294.04	3.9040	3.9039	-0.7073	5.86	-0.07	-0.750			
0.1473	9429.83	3.9010	3.9013	-0.7093	5.86	-0.07	-0.750			
0.1495	9565.47	3.8980	3.8980	-0.7140	5.86	-0.07	-0.750			
0.1516	9701.89	3.8950	3.8950	-0.7171	5.86	-0.07	-0.750			
0.1537	9839.21	3.8920	3.8919	-0.7236	5.87	-0.06	-0.750			
0.1560	9981.00	3.8890	3.8890	-0.7285	5.87	-0.06	-0.750			
0.1582	10121.72	3.8860	3.8860	-0.7307	5.87	-0.06	-0.750			
0.1603	10262.19	3.8830	3.8830	-0.7361	5.87	-0.06	-0.750			
0.1626	10403.47	3.8800	3.8801	-0.7406	5.87	-0.06	-0.750			
0.1648	10544.37	3.8770	3.8769	-0.7424	5.87	-0.06	-0.750			
0.1670	10688.84	3.8740	3.8740	-0.7452	5.88	-0.05	-0.750			
0.1693	10832.94	3.8710	3.8710	-0.7458	5.88	-0.05	-0.750			
0.1715	10976.62	3.8680	3.8681	-0.7497	5.88	-0.05	-0.750			
0.1738	11120.76	3.8650	3.8651	-0.7505	5.88	-0.05	-0.750			
0.1760	11264.21	3.8620	3.8619	-0.7496	5.89	-0.04	-0.750			
0.1782	11407.01	3.8590	3.8589	-0.7529	5.89	-0.04	-0.750			
0.1805	11552.53	3.8560	3.8561	-0.7560	5.89	-0.04	-0.750			
0.1828	11699.91	3.8530	3.8530	-0.7616	5.90	-0.03	-0.750			
0.1851	11845.36	3.8500	3.8501	-0.7617	5.90	-0.03	-0.750			
0.1873	11990.36	3.8470	3.8470	-0.7623	5.90	-0.03	-0.750			
0.1897	12138.16	3.8440	3.8440	-0.7661	5.90	-0.03	-0.750			
0.1920	12286.01	3.8410	3.8409	-0.7669	5.91	-0.02	-0.750			
0.1943	12433.86	3.8380	3.8380	-0.7674	5.91	-0.02	-0.750			
0.1966	12582.30	3.8350	3.8350	-0.7643	5.91	-0.02	-0.750			
0.1989	12727.43	3.8320	3.8320	-0.7674	5.92	-0.01	-0.750			
0.2012	12873.85	3.8290	3.8290	-0.7686	5.92	-0.01	-0.750			
0.2034	13019.62	3.8260	3.8260	-0.7694	5.93	-0.00	-0.750			
0.2058	13168.96	3.8230	3.8230	-0.7699	5.94	0.01	-0.750			
0.2081	13318.93	3.8200	3.8200	-0.7725	5.94	0.01	-0.750			
0.2104	13467.02	3.8170	3.8171	-0.7733	5.95	0.02	-0.750			
0.2128	13616.48	3.8140	3.8140	-0.7710	5.95	0.02	-0.750			
0.2150	13762.08	3.8110	3.8110	-0.7702	5.96	0.03	-0.750			
0.2173	13909.70	3.8080	3.8080	-0.7713	5.96	0.03	-0.750			
0.2197	14059.23	3.8050	3.8050	-0.7694	5.97	0.04	-0.750			
0.2220	14207.17	3.8020	3.8020	-0.7704	5.97	0.04	-0.750			
0.2243	14354.94	3.7990	3.7990	-0.7711	5.98	0.05	-0.750			
0.2266	14501.91	3.7960	3.7959	-0.7753	5.98	0.05	-0.750			
0.2289	14650.97	3.7930	3.7930	-0.7765	5.99	0.06	-0.750			
0.2312	14799.54	3.7900	3.7901	-0.7759	6.00	0.07	-0.750			
0.2336	14950.49	3.7870	3.7869	-0.7762	6.01	0.08	-0.750			
0.2359	15099.92	3.7840	3.7840	-0.7772	6.01	0.08	-0.750			
0.2382	15247.79	3.7810	3.7810	-0.7767	6.02	0.09	-0.750			
0.2406	15396.93	3.7780	3.7778	-0.7768	6.02	0.09	-0.750			
0.2429	15545.67	3.7750	3.7750	-0.7756	6.03	0.10	-0.750			
0.2452	15695.35	3.7720	3.7721	-0.7823	6.04	0.11	-0.750			
0.2476	15846.40	3.7690	3.7689	-0.7852	6.04	0.11	-0.750			
0.2500	15997.57	3.7660	3.7660	-0.7864	6.05	0.12	-0.750			
0.2523	16147.31	3.7630	3.7629	-0.7929	6.05	0.12	-0.750			
0.2547	16301.93	3.7600	3.7600	-0.7914	6.06	0.13	-0.750			
0.2571	16456.29	3.7570	3.7569	-0.7925	6.06	0.13	-0.750			
0.2595	16608.17	3.7540	3.7544	-0.7881	6.07	0.14	-0.750			
0.2618	16757.77	3.7510	3.7509	-0.7898	6.08	0.15	-0.750			
0.2642	16909.50	3.7480	3.7479	-0.7932	6.08	0.15	-0.750			
0.2666	17059.42	3.7450	3.7449	-0.7916	6.09	0.16	-0.750			
0.2690	17213.12	3.7420	3.7421	-0.8052	6.10	0.17	-0.750			
0.2714	17369.07	3.7390	3.7390	-0.8091	6.11	0.18	-0.750			
0.2738	17525.13	3.7360	3.7359	-0.8111	6.11	0.18	-0.750			
0.2762	17679.90	3.7330	3.7330	-0.8136	6.12	0.19	-0.750			
0.2787	17836.70	3.7300	3.7301	-0.8107	6.12	0.19	-0.750			
0.2811	17992.93	3.7270	3.7269	-0.8124	6.12	0.19	-0.750			
0.2836	18148.51	3.7240	3.7241	-0.8181	6.13	0.20	-0.750			
0.2860	18304.73	3.7210	3.7210	-0.8231	6.13	0.20	-0.750			
0.2885	18463.15	3.7180	3.7179	-0.8366	6.14	0.21	-0.750			
0.2910	18625.69	3.7150	3.7150	-0.8452	6.15	0.22	-0.750			
0.2936	18789.38	3.7120	3.7119	-0.8492	6.16	0.23	-0.750			
0.2962	18954.24	3.7090	3.7089	-0.8601	6.17	0.24	-0.750			
0.2988	19120.46	3.7060	3.7059	-0.8634	6.17	0.24	-0.750			
0.3013	19285.38	3.7030	3.7029	-0.8717	6.18	0.25	-0.750			
0.3040	19453.47	3.7000	3.6999	-0.8711	6.18	0.25	-0.750			
0.3065	19618.81	3.6970	3.6971	-0.8792	6.18	0.25	-0.750			
0.3092	19791.88	3.6940	3.6941	-0.8957	6.19	0.26	-0.750			
0.3119	19963.37	3.6910	3.6910	-0.9078	6.20	0.27	-0.750			
0.3147	20138.31	3.6880	3.6880	-0.9127	6.20	0.27	-0.750			
0.3174	20315.27	3.6850	3.6850	-0.9250	6.21	0.28	-0.750			
0.3202	20493.98	3.6820	3.6820	-0.9305	6.22	0.29	-0.750			
0.3231	20676.91	3.6790	3.6790	-0.9391	6.22	0.29	-0.750			
0.3259	20855.46	3.6760	3.6760	-0.9457	6.22	0.29	-0.750			
0.3287	21037.31	3.6730	3.6730	-0.9568	6.23	0.30	-0.750			
0.3316	21220.54	3.6700	3.6699	-0.9640	6.23	0.30	-0.750			
0.3345	21408.47	3.6670	3.6674	-0.9804	6.23	0.30	-0.750			
0.3375	21598.66	3.6640	3.6639	-0.9929	6.24	0.31	-0.750			
0.3405	21792.12	3.6610	3.6610	-1.0019	6.25	0.32	-0.750			
0.3435	21984.45	3.6580	3.6580	-1.0074	6.26	0.33	-0.750			
0.3465	22178.36	3.6550	3.6550	-1.0248	6.27	0.34	-0.750			
0.3496	22373.63	3.6520	3.6519	-1.0391	6.27	0.34	-0.750			
0.3527	22574.68	3.6490	3.6488	-1.0507	6.27	0.34	-0.750			
0.3559	22779.31	3.6460	3.6459	-1.0550	6.28	0.35	-0.750			
0.3591	22983.20	3.6430	3.6433	-1.0633	6.28	0.35	-0.750			
0.3624	23190.64	3.6400	3.6400	-1.0798	6.29	0.36	-0.750			
0.3656	23397.12	3.6370	3.6369	-1.0876	6.29	0.36	-0.750			
0.3688	23601.92	3.6340	3.6340	-1.0908	6.30	0.37	-0.750			
0.3721	23811.66	3.6310	3.6311	-1.1115	6.31	0.38	-0.750			
0.3755	24034.12	3.6280	3.6280	-1.1376	6.31	0.38	-0.750			
0.3790	24255.64	3.6250	3.6249	-1.1497	6.31	0.38	-0.750			
0.3825	24477.18	3.6220	3.6219	-1.1621	6.31	0.38	-0.750			
0.3860	24701.70	3.6190	3.6190	-1.1687	6.31	0.38	-0.750			
0.3895	24927.08	3.6160	3.6159	-1.1783	6.32	0.39	-0.750			
0.3930	25152.57	3.6130	3.6130	-1.1948	6.32	0.39	-0.750			
0.3965	25376.49	3.6100	3.6101	-1.2119	6.33	0.40	-0.750			
0.4003	25618.06	3.6070	3.6069	-1.2384	6.33	0.40	-0.750			
0.4040	25856.74	3.6040	3.6040	-1.2528	6.34	0.41	-0.750			
0.4078	26099.83	3.6010	3.6010	-1.2651	6.34	0.41	-0.750			
0.4117	26348.98	3.5980	3.5979	-1.2834	6.34	0.41	-0.750	0.481	1.096	
0.4156	26597.89	3.5950	3.5949	-1.2900	6.34	0.41	-0.750			
0.4194	26843.61	3.5920	3.5919	-1.2978	6.35	0.42	-0.750			
0.4233	27091.78	3.5890	3.5892	-1.3029	6.35	0.42	-0.750			
0.4273	27344.63	3.5860	3.5859	-1.3135	6.36	0.43	-0.750			
0.4312	27596.40	3.5830	3.5830	-1.3220	6.36	0.43	-0.750			
0.4351	27846.09	3.5800	3.5802	-1.3395	6.37	0.44	-0.750			
0.4393	28112.79	3.5770	3.5769	-1.3633	6.37	0.44	-0.750			
0.4434	28374.96	3.5740	3.5740	-1.3785	6.37	0.44	-0.750			
0.4475	28640.83	3.5710	3.5712	-1.4048	6.37	0.44	-0.750			
0.4518	28915.15	3.5680	3.5679	-1.4242	6.37	0.44	-0.750			
0.4561	29191.12	3.5650	3.5649	-1.4388	6.37	0.44	-0.750			
0.4605	29468.88	3.5620	3.5622	-1.4464	6.37	0.44	-0.750			
0.4648	29749.30	3.5590	3.5590	-1.4591	6.38	0.45	-0.750			
0.4692	30029.86	3.5560	3.5560	-1.4756	6.39	0.46	-0.750			
0.4736	30308.81	3.5530	3.5530	-1.4807	6.39	0.46	-0.750			
0.4780	30594.33	3.5500	3.5500	-1.5041	6.40	0.47	-0.750			
0.4826	30885.46	3.5470	3.5469	-1.5247	6.41	0.48	-0.750			
0.4872	31181.30	3.5440	3.5439	-1.5377	6.41	0.48	-0.750			
0.4919	31482.58	3.5410	3.5409	-1.5603	6.41	0.48	-0.750			
0.4966	31785.07	3.5380	3.5382	-1.5673	6.41	0.48	-0.750			
0.5013	32085.99	3.5350	3.5349	-1.5651	6.42	0.49	-0.750			
0.5061	32393.45	3.5320	3.5322	-1.5467	6.44	0.51	-0.750			
0.5108	32688.45	3.5290	3.5291	-1.5282	6.45	0.52	-0.750			
0.5152	32973.75	3.5260	3.5263	-1.5288	6.45	0.52	-0.750			
0.5197	33262.47	3.5230	3.5229	-1.5470	6.45	0.52	-0.750			
0.5243	33556.24	3.5200	3.5199	-1.5723	6.45	0.52	-0.750			
0.5291	33863.49	3.5170	3.5168	-1.5952	6.46	0.53	-0.750			
0.5340	34178.41	3.5140	3.5138	-1.6319	6.47	0.54	-0.750			
0.5391	34499.51	3.5110	3.5111	-1.6406	6.48	0.55	-0.750			
0.5440	34814.06	3.5080	3.5079	-1.6514	6.48	0.55	-0.750			
0.5489	35129.25	3.5050	3.5050	-1.6518	6.49	0.56	-0.750			
0.5538	35442.86	3.5020	3.5021	-1.6434	6.50	0.57	-0.750			
0.5587	35757.83	3.4990	3.4992	-1.6364	6.51	0.58	-0.750			
0.5637	36075.01	3.4960	3.4960	-1.6376	6.52	0.59	-0.750			
0.5686	36390.01	3.4930	3.4929	-1.6362	6.52	0.59	-0.750			
0.5735	36703.35	3.4900	3.4900	-1.6290	6.53	0.60	-0.750			
0.5783	37011.66	3.4870	3.4868	-1.6173	6.54	0.61	-0.750			
0.5832	37326.77	3.4840	3.4840	-1.6094	6.56	0.63	-0.750			
0.5880	37635.00	3.4810	3.4810	-1.5925	6.57	0.64	-0.750			
0.5929	37942.99	3.4780	3.4779	-1.5800	6.58	0.65	-0.750			
0.5975	38238.72	3.4750	3.4753	-1.5602	6.59	0.66	-0.750			
0.6022	38540.31	3.4720	3.4718	-1.5479	6.61	0.68	-0.750			
0.6068	38837.02	3.4690	3.4691	-1.5513	6.62	0.69	-0.750			
0.6115	39136.36	3.4660	3.4660	-1.5416	6.63	0.70	-0.750			
0.6162	39436.75	3.4630	3.4629	-1.5308	6.64	0.71	-0.750			
0.6208	39728.28	3.4600	3.4601	-1.5127	6.65	0.72	-0.750			
0.6252	40014.13	3.4570	3.4569	-1.4848	6.66	0.73	-0.750			
0.6297	40300.09	3.4540	3.4539	-1.4628	6.67	0.74	-0.750			
0.6340	40576.79	3.4510	3.4510	-1.4428	6.69	0.76	-0.750			
0.6383	40850.45	3.4480	3.4480	-1.4193	6.70	0.77	-0.750			
0.6426	41124.81	3.4450	3.4448	-1.3961	6.72	0.79	-0.750			
0.6467	41388.67	3.4420	3.4422	-1.3771	6.74	0.81	-0.750			
0.6508	41648.67	3.4390	3.4390	-1.3466	6.75	0.82	-0.750			
0.6548	41909.18	3.4360	3.4359	-1.3275	6.77	0.84	-0.750			
0.6588	42160.94	3.4330	3.4331	-1.3066	6.79	0.86	-0.750			
0.6626	42406.95	3.4300	3.4300	-1.2749	6.80	0.87	-0.750			
0.6665	42653.00	3.4270	3.4269	-1.2605	6.81	0.88	-0.750			
0.6702	42892.73	3.4240	3.4240	-1.2331	6.82	0.89	-0.750			
0.6738	43124.15	3.4210	3.4211	-1.2076	6.84	0.91	-0.750			
0.6775	43360.31	3.4180	3.4179	-1.1870	6.86	0.93	-0.750			
0.6810	43585.07	3.4150	3.4149	-1.1566	6.87	0.94	-0.750			
0.6844	43802.63	3.4120	3.4121	-1.1264	6.89	0.96	-0.750			
0.6878	44017.70	3.4090	3.4089	-1.1006	6.90	0.97	-0.750			
0.6910	44224.21	3.4060	3.4060	-1.0706	6.91	0.98	-0.750			
0.6942	44428.09	3.4030	3.4030	-1.0450	6.92	0.99	-0.750			
0.6973	44624.54	3.4000	3.4001	-1.0153	6.93	1.00	-0.750			
0.7003	44820.97	3.3970	3.3969	-0.9972	6.95	1.02	-0.750			
0.7033	45009.17	3.3940	3.3941	-0.9670	6.97	1.04	-0.750			
0.7061	45192.10	3.3910	3.3909	-0.9389	6.99	1.06	-0.750			
0.7089	45370.52	3.3880	3.3880	-0.9155	7.00	1.07	-0.750			
0.7116	45542.19	3.3850	3.3848	-0.8873	7.02	1.09	-0.750			
0.7142	45709.83	3.3820	3.3820	-0.8627	7.03	1.10	-0.750			
0.7168	45872.46	3.3790	3.3790	-0.8367	7.04	1.11	-0.750			
0.7192	46029.23	3.3760	3.3760	-0.8116	7.06	1.13	-0.750			
0.7217	46185.67	3.3730	3.3731	-0.7927	7.07	1.14	-0.750			
0.7240	46335.74	3.3700	3.3699	-0.7670	7.08	1.15	-0.750			
0.7263	46480.45	3.3670	3.3670	-0.7416	7.09	1.16	-0.750			
0.7285	46620.84	3.3640	3.3640	-0.7138	7.10	1.17	-0.750			
0.7306	46755.78	3.3610	3.3610	-0.6968	7.11	1.18	-0.750			
