Ah_balance (normalized)	Ah_balance (mAh)	Voltage - fit (V)	Voltage -  interpolate (V)	dQ/dV (1/V)	Temperature (°C)	Temperature - diff (°C)	Current (C)	R_DC 0ms (mOhm)	R_DC 50ms (mOhm)	R_DC 50 ms PEC (mOhm)
0.0936	5993.16	4.0020	4.0014	-0.0656	5.99	0.00	-0.750			
0.0939	6008.69	3.9990	3.9988	-0.0963	5.99	0.00	-0.750			
0.0942	6030.92	3.9960	3.9958	-0.1259	5.99	0.00	-0.750			
0.0947	6058.88	3.9930	3.9930	-0.1516	5.99	0.00	-0.750			
0.0952	6090.43	3.9900	3.9900	-0.1770	5.99	0.00	-0.750			
0.0957	6126.85	3.9870	3.9870	-0.2007	5.99	-0.00	-0.750			
0.0964	6169.26	3.9840	3.9841	-0.2244	5.99	-0.00	-0.750			
0.0971	6213.63	3.9810	3.9811	-0.2471	5.99	-0.00	-0.750			
0.0979	6263.47	3.9780	3.9779	-0.2693	5.99	-0.00	-0.750			
0.0987	6317.32	3.9750	3.9749	-0.2927	5.98	-0.01	-0.750			
0.0996	6375.13	3.9720	3.9721	-0.3180	5.98	-0.01	-0.750			
0.1006	6438.78	3.9690	3.9690	-0.3436	5.98	-0.01	-0.750			
0.1017	6507.27	3.9660	3.9659	-0.3665	5.98	-0.01	-0.750			
0.1028	6580.52	3.9630	3.9630	-0.3879	5.98	-0.01	-0.750			
0.1040	6657.71	3.9600	3.9601	-0.4101	5.98	-0.01	-0.750			
0.1053	6739.19	3.9570	3.9569	-0.4297	5.97	-0.02	-0.750			
0.1066	6823.96	3.9540	3.9540	-0.4471	5.97	-0.02	-0.750			
0.1080	6910.43	3.9510	3.9513	-0.4681	5.97	-0.02	-0.750			
0.1094	7001.80	3.9480	3.9480	-0.4884	5.97	-0.02	-0.750			
0.1109	7098.49	3.9450	3.9449	-0.5066	5.97	-0.02	-0.750			
0.1125	7197.39	3.9420	3.9420	-0.5258	5.96	-0.03	-0.750			
0.1141	7301.11	3.9390	3.9391	-0.5448	5.96	-0.03	-0.750			
0.1157	7406.85	3.9360	3.9360	-0.5614	5.96	-0.03	-0.750			
0.1175	7516.91	3.9330	3.9329	-0.5740	5.95	-0.04	-0.750			
0.1192	7628.03	3.9300	3.9299	-0.5837	5.95	-0.04	-0.750			
0.1210	7742.21	3.9270	3.9271	-0.5963	5.95	-0.04	-0.750			
0.1228	7858.61	3.9240	3.9240	-0.6041	5.95	-0.04	-0.750			
0.1246	7975.30	3.9210	3.9210	-0.6128	5.96	-0.03	-0.750			
0.1265	8093.46	3.9180	3.9181	-0.6240	5.96	-0.03	-0.750			
0.1283	8213.29	3.9150	3.9149	-0.6315	5.96	-0.03	-0.750			
0.1303	8336.31	3.9120	3.9120	-0.6422	5.97	-0.02	-0.750			
0.1322	8461.14	3.9090	3.9090	-0.6477	5.97	-0.02	-0.750			
0.1342	8586.00	3.9060	3.9060	-0.6530	5.97	-0.02	-0.750			
0.1361	8712.80	3.9030	3.9030	-0.6616	5.98	-0.01	-0.750			
0.1381	8839.65	3.9000	3.9000	-0.6638	5.98	-0.01	-0.750			
0.1401	8967.72	3.8970	3.8970	-0.6691	5.98	-0.01	-0.750			
0.1422	9097.86	3.8940	3.8940	-0.6760	5.98	-0.01	-0.750			
0.1442	9228.27	3.8910	3.8910	-0.6791	5.99	-0.00	-0.750			
0.1462	9359.36	3.8880	3.8880	-0.6830	5.99	0.00	-0.750			
0.1483	9490.66	3.8850	3.8850	-0.6847	5.99	0.00	-0.750			
0.1503	9621.65	3.8820	3.8820	-0.6881	6.00	0.01	-0.750			
0.1524	9754.21	3.8790	3.8790	-0.6865	6.00	0.01	-0.750			
0.1545	9887.47	3.8760	3.8760	-0.6940	6.00	0.01	-0.750			
0.1566	10020.96	3.8730	3.8730	-0.6925	6.01	0.02	-0.750			
0.1587	10154.15	3.8700	3.8700	-0.6923	6.01	0.02	-0.750			
0.1607	10286.40	3.8670	3.8670	-0.6928	6.02	0.03	-0.750			
0.1628	10418.21	3.8640	3.8641	-0.7018	6.03	0.04	-0.750			
0.1649	10554.62	3.8610	3.8609	-0.7015	6.03	0.04	-0.750			
0.1670	10690.67	3.8580	3.8579	-0.7053	6.04	0.05	-0.750			
0.1692	10825.82	3.8550	3.8551	-0.7065	6.05	0.06	-0.750			
0.1713	10962.78	3.8520	3.8521	-0.7102	6.05	0.06	-0.750			
0.1734	11099.20	3.8490	3.8488	-0.7077	6.05	0.06	-0.750			
0.1755	11233.61	3.8460	3.8460	-0.7062	6.06	0.07	-0.750			
0.1776	11368.06	3.8430	3.8431	-0.7059	6.06	0.07	-0.750			
0.1798	11505.43	3.8400	3.8399	-0.7106	6.06	0.07	-0.750			
0.1819	11642.16	3.8370	3.8370	-0.7093	6.07	0.08	-0.750			
0.1840	11777.91	3.8340	3.8340	-0.7104	6.07	0.08	-0.750			
0.1862	11914.74	3.8310	3.8310	-0.7135	6.08	0.09	-0.750			
0.1883	12052.69	3.8280	3.8280	-0.7178	6.09	0.10	-0.750			
0.1905	12189.38	3.8250	3.8250	-0.7178	6.09	0.10	-0.750			
0.1926	12329.04	3.8220	3.8220	-0.7157	6.10	0.11	-0.750			
0.1948	12467.24	3.8190	3.8191	-0.7161	6.11	0.12	-0.750			
0.1969	12603.49	3.8160	3.8159	-0.7181	6.11	0.12	-0.750			
0.1991	12740.09	3.8130	3.8130	-0.7173	6.12	0.13	-0.750			
0.2012	12877.48	3.8100	3.8099	-0.7241	6.13	0.14	-0.750			
0.2034	13017.60	3.8070	3.8070	-0.7217	6.14	0.15	-0.750			
0.2056	13157.87	3.8040	3.8040	-0.7288	6.14	0.15	-0.750			
0.2078	13299.28	3.8010	3.8012	-0.7305	6.15	0.16	-0.750			
0.2100	13439.27	3.7980	3.7979	-0.7290	6.15	0.16	-0.750			
0.2122	13578.49	3.7950	3.7949	-0.7271	6.16	0.17	-0.750			
0.2143	13716.51	3.7920	3.7921	-0.7293	6.17	0.18	-0.750			
0.2165	13858.77	3.7890	3.7889	-0.7331	6.17	0.18	-0.750			
0.2187	13999.35	3.7860	3.7860	-0.7368	6.18	0.19	-0.750			
0.2209	14139.03	3.7830	3.7831	-0.7375	6.18	0.19	-0.750			
0.2232	14282.26	3.7800	3.7800	-0.7420	6.19	0.20	-0.750			
0.2254	14425.22	3.7770	3.7769	-0.7463	6.19	0.20	-0.750			
0.2277	14572.56	3.7740	3.7739	-0.7356	6.20	0.21	-0.750			
0.2300	14719.25	3.7710	3.7709	-0.7116	6.20	0.21	-0.750			
0.2321	14855.14	3.7680	3.7681	-0.6833	6.21	0.22	-0.750			
0.2340	14978.20	3.7650	3.7655	-0.6699	6.21	0.22	-0.750			
0.2359	15098.57	3.7620	3.7623	-0.6674	6.22	0.23	-0.750			
0.2377	15214.95	3.7590	3.7586	-0.6772	6.23	0.24	-0.750			
0.2398	15347.21	3.7560	3.7558	-0.6920	6.23	0.24	-0.750			
0.2419	15484.37	3.7530	3.7530	-0.7199	6.24	0.25	-0.750			
0.2442	15630.44	3.7500	3.7503	-0.7550	6.25	0.26	-0.750			
0.2466	15782.77	3.7470	3.7471	-0.7769	6.25	0.26	-0.750			
0.2489	15931.04	3.7440	3.7437	-0.7868	6.26	0.27	-0.750			
0.2513	16084.71	3.7410	3.7410	-0.7882	6.26	0.27	-0.750			
0.2537	16236.09	3.7380	3.7381	-0.7950	6.26	0.27	-0.750			
0.2561	16392.19	3.7350	3.7350	-0.8030	6.27	0.28	-0.750			
0.2585	16547.17	3.7320	3.7322	-0.8057	6.27	0.28	-0.750			
0.2609	16699.57	3.7290	3.7288	-0.8046	6.27	0.28	-0.750			
0.2634	16857.06	3.7260	3.7259	-0.8040	6.28	0.29	-0.750			
0.2658	17009.23	3.7230	3.7230	-0.8078	6.28	0.29	-0.750			
0.2682	17166.47	3.7200	3.7201	-0.8179	6.29	0.30	-0.750			
0.2706	17321.26	3.7170	3.7173	-0.8257	6.29	0.30	-0.750			
0.2731	17481.28	3.7140	3.7138	-0.8357	6.29	0.30	-0.750			
0.2757	17643.95	3.7110	3.7110	-0.8483	6.30	0.31	-0.750			
0.2783	17808.87	3.7080	3.7080	-0.8592	6.30	0.31	-0.750			
0.2809	17980.73	3.7050	3.7050	-0.8740	6.31	0.32	-0.750			
0.2835	18145.46	3.7020	3.7021	-0.8650	6.31	0.32	-0.750			
0.2861	18311.85	3.6990	3.6990	-0.8616	6.32	0.33	-0.750			
0.2887	18476.67	3.6960	3.6960	-0.8718	6.32	0.33	-0.750			
0.2913	18641.68	3.6930	3.6929	-0.8720	6.32	0.33	-0.750			
0.2940	18815.28	3.6900	3.6898	-0.8815	6.33	0.34	-0.750			
0.2966	18984.85	3.6870	3.6869	-0.8761	6.33	0.34	-0.750			
0.2993	19152.16	3.6840	3.6841	-0.8838	6.34	0.35	-0.750			
0.3019	19319.10	3.6810	3.6810	-0.8852	6.34	0.35	-0.750			
0.3045	19486.66	3.6780	3.6779	-0.8848	6.34	0.35	-0.750			
0.3072	19660.85	3.6750	3.6750	-0.9094	6.35	0.36	-0.750			
0.3099	19834.07	3.6720	3.6720	-0.9260	6.35	0.36	-0.750			
0.3128	20017.07	3.6690	3.6688	-0.9380	6.36	0.37	-0.750			
0.3156	20200.81	3.6660	3.6660	-0.9473	6.37	0.38	-0.750			
0.3185	20382.25	3.6630	3.6631	-0.9464	6.38	0.39	-0.750			
0.3213	20565.98	3.6600	3.6601	-0.9567	6.38	0.39	-0.750			
0.3242	20750.60	3.6570	3.6570	-0.9629	6.38	0.39	-0.750			
0.3271	20933.17	3.6540	3.6539	-0.9588	6.39	0.40	-0.750			
0.3300	21118.88	3.6510	3.6509	-0.9605	6.39	0.40	-0.750			
0.3328	21300.70	3.6480	3.6482	-0.9837	6.39	0.40	-0.750			
0.3358	21490.86	3.6450	3.6450	-0.9897	6.39	0.40	-0.750			
0.3388	21681.62	3.6420	3.6419	-0.9998	6.40	0.41	-0.750			
0.3418	21875.57	3.6390	3.6389	-0.9974	6.40	0.41	-0.750			
0.3448	22070.22	3.6360	3.6359	-1.0103	6.41	0.42	-0.750			
0.3479	22264.68	3.6330	3.6330	-1.0276	6.41	0.42	-0.750			
0.3510	22462.85	3.6300	3.6299	-1.0358	6.41	0.42	-0.750			
0.3541	22659.57	3.6270	3.6268	-1.0403	6.42	0.43	-0.750			
0.3572	22862.17	3.6240	3.6238	-1.0562	6.42	0.43	-0.750			
0.3604	23065.36	3.6210	3.6210	-1.0735	6.42	0.43	-0.750			
0.3637	23276.81	3.6180	3.6180	-1.0744	6.43	0.44	-0.750			
0.3669	23482.37	3.6150	3.6149	-1.0721	6.43	0.44	-0.750			
0.3701	23685.97	3.6120	3.6119	-1.1007	6.44	0.45	-0.750			
0.3734	23897.79	3.6090	3.6090	-1.0942	6.44	0.45	-0.750			
0.3767	24108.52	3.6060	3.6057	-1.0996	6.45	0.46	-0.750			
0.3800	24319.49	3.6030	3.6028	-1.1073	6.46	0.47	-0.750			
0.3833	24530.56	3.6000	3.6005	-1.1271	6.46	0.47	-0.750			
0.3868	24754.95	3.5970	3.5968	-1.1242	6.46	0.47	-0.750			
0.3901	24969.28	3.5940	3.5939	-1.1220	6.47	0.48	-0.750			
0.3934	25179.90	3.5910	3.5910	-1.1117	6.47	0.48	-0.750			
0.3969	25400.72	3.5880	3.5878	-1.1423	6.47	0.48	-0.750			
0.4003	25618.57	3.5850	3.5848	-1.1418	6.47	0.48	-0.750			
0.4037	25834.99	3.5820	3.5820	-1.1473	6.48	0.49	-0.750			
0.4070	26049.80	3.5790	3.5792	-1.1787	6.48	0.49	-0.750	0.497	1.079	
0.4108	26288.12	3.5760	3.5759	-1.1905	6.48	0.49	-0.750			
0.4143	26517.65	3.5730	3.5729	-1.1913	6.49	0.50	-0.750			
0.4178	26742.34	3.5700	3.5700	-1.2095	6.49	0.50	-0.750			
0.4215	26975.68	3.5670	3.5669	-1.2156	6.49	0.50	-0.750			
0.4252	27211.59	3.5640	3.5639	-1.2299	6.50	0.51	-0.750			
0.4289	27447.87	3.5610	3.5606	-1.2367	6.50	0.51	-0.750			
0.4326	27688.36	3.5580	3.5584	-1.2599	6.51	0.52	-0.750			
0.4365	27935.14	3.5550	3.5548	-1.2579	6.52	0.53	-0.750			
0.4402	28175.42	3.5520	3.5521	-1.2605	6.52	0.53	-0.750			
0.4439	28411.69	3.5490	3.5489	-1.2835	6.53	0.54	-0.750			
0.4478	28657.09	3.5460	3.5458	-1.2967	6.53	0.54	-0.750			
0.4517	28907.27	3.5430	3.5427	-1.3161	6.54	0.55	-0.750			
0.4556	29156.54	3.5400	3.5400	-1.3529	6.54	0.55	-0.750			
0.4598	29427.69	3.5370	3.5370	-1.3755	6.54	0.55	-0.750			
0.4641	29701.39	3.5340	3.5338	-1.3818	6.54	0.55	-0.750			
0.4682	29963.68	3.5310	3.5309	-1.3929	6.55	0.56	-0.750			
0.4723	30227.56	3.5280	3.5280	-1.3757	6.55	0.56	-0.750			
0.4765	30499.06	3.5250	3.5247	-1.3895	6.56	0.57	-0.750			
0.4807	30761.60	3.5220	3.5226	-1.3928	6.57	0.58	-0.750			
0.4847	31023.89	3.5190	3.5189	-1.3882	6.57	0.58	-0.750			
0.4890	31298.25	3.5160	3.5159	-1.4090	6.58	0.59	-0.750			
0.4932	31567.14	3.5130	3.5128	-1.4107	6.59	0.60	-0.750			
0.4975	31841.39	3.5100	3.5099	-1.4308	6.59	0.60	-0.750			
0.5017	32111.27	3.5070	3.5071	-1.4550	6.60	0.61	-0.750			
0.5061	32391.54	3.5040	3.5036	-1.4697	6.61	0.62	-0.750			
0.5106	32676.03	3.5010	3.5008	-1.4665	6.61	0.62	-0.750			
0.5151	32964.60	3.4980	3.4977	-1.4845	6.62	0.63	-0.750			
0.5196	33255.21	3.4950	3.4955	-1.4951	6.63	0.64	-0.750			
0.5240	33538.65	3.4920	3.4918	-1.4778	6.64	0.65	-0.750			
0.5286	33827.74	3.4890	3.4886	-1.4743	6.65	0.66	-0.750			
0.5328	34100.33	3.4860	3.4866	-1.4638	6.66	0.67	-0.750			
0.5373	34389.56	3.4830	3.4827	-1.4883	6.67	0.68	-0.750			
0.5419	34682.06	3.4800	3.4800	-1.4945	6.68	0.69	-0.750			
0.5462	34958.62	3.4770	3.4772	-1.4838	6.69	0.70	-0.750			
0.5509	35256.16	3.4740	3.4742	-1.5014	6.71	0.72	-0.750			
0.5554	35543.22	3.4710	3.4708	-1.4938	6.72	0.73	-0.750			
0.5597	35820.18	3.4680	3.4680	-1.4914	6.74	0.75	-0.750			
0.5643	36117.55	3.4650	3.4652	-1.4915	6.76	0.77	-0.750			
0.5688	36404.14	3.4620	3.4617	-1.4941	6.77	0.78	-0.750			
0.5733	36690.48	3.4590	3.4589	-1.4729	6.79	0.80	-0.750			
0.5777	36974.38	3.4560	3.4559	-1.4535	6.81	0.82	-0.750			
0.5821	37253.66	3.4530	3.4532	-1.4477	6.83	0.84	-0.750			
0.5863	37522.40	3.4500	3.4499	-1.4150	6.84	0.85	-0.750			
0.5905	37791.77	3.4470	3.4470	-1.4002	6.85	0.86	-0.750			
0.5948	38064.05	3.4440	3.4441	-1.4161	6.87	0.88	-0.750			
0.5989	38328.02	3.4410	3.4410	-1.4407	6.89	0.90	-0.750			
0.6034	38617.42	3.4380	3.4378	-1.4448	6.91	0.92	-0.750			
0.6078	38898.96	3.4350	3.4351	-1.4298	6.93	0.94	-0.750			
0.6121	39176.71	3.4320	3.4325	-1.3992	6.95	0.96	-0.750			
0.6164	39452.60	3.4290	3.4289	-1.3717	6.97	0.98	-0.750			
0.6204	39706.82	3.4260	3.4264	-1.3364	6.99	1.00	-0.750			
0.6242	39949.64	3.4230	3.4230	-1.2807	7.01	1.02	-0.750			
0.6280	40193.41	3.4200	3.4199	-1.2567	7.03	1.04	-0.750			
0.6318	40432.93	3.4170	3.4170	-1.2340	7.04	1.05	-0.750			
0.6355	40668.85	3.4140	3.4142	-1.2187	7.06	1.07	-0.750			
0.6391	40901.46	3.4110	3.4108	-1.1870	7.08	1.09	-0.750			
0.6426	41127.79	3.4080	3.4079	-1.1561	7.10	1.11	-0.750			
0.6460	41342.37	3.4050	3.4053	-1.1347	7.11	1.12	-0.750			
0.6494	41561.94	3.4020	3.4020	-1.1119	7.13	1.14	-0.750			
0.6527	41772.66	3.3990	3.3988	-1.0817	7.15	1.16	-0.750			
0.6559	41974.50	3.3960	3.3958	-1.0437	7.17	1.18	-0.750			
0.6590	42174.10	3.3930	3.3931	-1.0241	7.19	1.20	-0.750			
0.6620	42367.02	3.3900	3.3900	-1.0028	7.20	1.21	-0.750			
0.6650	42559.80	3.3870	3.3868	-0.9676	7.22	1.23	-0.750			
0.6678	42738.13	3.3840	3.3840	-0.9295	7.24	1.25	-0.750			
0.6706	42918.07	3.3810	3.3812	-0.9180	7.25	1.26	-0.750			
0.6733	43090.87	3.3780	3.3781	-0.8952	7.26	1.27	-0.750			
0.6759	43259.66	3.3750	3.3747	-0.8761	7.28	1.29	-0.750			
0.6785	43421.86	3.3720	3.3720	-0.8506	7.29	1.30	-0.750			
0.6810	43584.84	3.3690	3.3690	-0.8370	7.30	1.31	-0.750			
0.6835	43746.46	3.3660	3.3661	-0.8251	7.31	1.32	-0.750			
0.6860	43903.94	3.3630	3.3631	-0.8017	7.33	1.34	-0.750			
0.6884	44055.54	3.3600	3.3599	-0.7853	7.35	1.36	-0.750			
0.6907	44205.49	3.3570	3.3570	-0.7589	7.36	1.37	-0.750			
0.6930	44349.33	3.3540	3.3539	-0.7379	7.37	1.38	-0.750			
0.6951	44487.63	3.3510	3.3508	-0.7199	7.39	1.40	-0.750			
0.6973	44624.06	3.3480	3.3479	-0.6957	7.40	1.41	-0.750			
0.6993	44754.63	3.3450	3.3449	-0.6755	7.41	1.42	-0.750			
0.7013	44881.49	3.3420	3.3421	-0.6611	7.42	1.43	-0.750			
0.7032	45007.98	3.3390	3.3391	-0.6440	7.43	1.44	-0.750			
0.7052	45130.08	3.3360	3.3359	-0.6313	7.44	1.45	-0.750			
0.7070	45247.70	3.3330	3.3331	-0.6144	7.45	1.46	-0.750			
0.7088	45363.86	3.3300	3.3300	-0.6045	7.47	1.48	-0.750			
0.7106	45480.37	3.3270	3.3269	-0.5897	7.48	1.49	-0.750			
0.7124	45592.99	3.3240	3.3240	-0.5945	7.49	1.50	-0.750			
