Ah_balance (normalized)	Ah_balance (mAh)	Voltage - fit (V)	Voltage -  interpolate (V)	dQ/dV (1/V)	Temperature (°C)	Temperature - diff (°C)	Current (C)	R_DC 0ms (mOhm)	R_DC 50ms (mOhm)	R_DC 50 ms PEC (mOhm)
0.1754	11223.82	4.0810	4.0810	0.7316	7.46	1.47	0.750			
0.1776	11368.22	4.0780	4.0780	0.7556	7.45	1.46	0.750			
0.1799	11515.02	4.0750	4.0750	0.7626	7.44	1.45	0.750			
0.1822	11661.51	4.0720	4.0720	0.7692	7.44	1.45	0.750			
0.1845	11810.17	4.0690	4.0691	0.7737	7.43	1.44	0.750			
0.1869	11964.06	4.0660	4.0658	0.7600	7.43	1.44	0.750			
0.1892	12107.61	4.0630	4.0630	0.7654	7.42	1.43	0.750			
0.1914	12251.68	4.0600	4.0602	0.7731	7.42	1.43	0.750			
0.1937	12399.80	4.0570	4.0567	0.7784	7.41	1.42	0.750			
0.1961	12549.51	4.0540	4.0542	0.7835	7.41	1.42	0.750			
0.1984	12700.44	4.0510	4.0511	0.7846	7.40	1.41	0.750			
0.2008	12852.95	4.0480	4.0481	0.7979	7.39	1.40	0.750			
0.2033	13011.71	4.0450	4.0449	0.8081	7.39	1.40	0.750			
0.2057	13163.04	4.0420	4.0419	0.7995	7.38	1.39	0.750			
0.2081	13316.58	4.0390	4.0392	0.8008	7.38	1.39	0.750			
0.2105	13471.28	4.0360	4.0360	0.8065	7.37	1.38	0.750			
0.2129	13625.72	4.0330	4.0330	0.8117	7.36	1.37	0.750			
0.2153	13782.16	4.0300	4.0300	0.8154	7.36	1.37	0.750			
0.2178	13938.09	4.0270	4.0269	0.8156	7.35	1.36	0.750			
0.2202	14095.20	4.0240	4.0241	0.8222	7.35	1.36	0.750			
0.2227	14252.32	4.0210	4.0211	0.8313	7.34	1.35	0.750			
0.2252	14413.51	4.0180	4.0179	0.8195	7.34	1.35	0.750			
0.2276	14567.83	4.0150	4.0151	0.8254	7.33	1.34	0.750			
0.2301	14725.41	4.0120	4.0122	0.8359	7.32	1.33	0.750			
0.2326	14888.69	4.0090	4.0094	0.8388	7.32	1.33	0.750			
0.2352	15051.23	4.0060	4.0061	0.8413	7.31	1.32	0.750			
0.2377	15212.81	4.0030	4.0031	0.8458	7.31	1.32	0.750			
0.2403	15377.12	4.0000	4.0001	0.8500	7.30	1.31	0.750			
0.2428	15538.29	3.9970	3.9969	0.8492	7.29	1.30	0.750			
0.2454	15702.56	3.9940	3.9940	0.8497	7.29	1.30	0.750			
0.2479	15868.63	3.9910	3.9910	0.8440	7.28	1.29	0.750			
0.2505	16029.92	3.9880	3.9880	0.8577	7.27	1.28	0.750			
0.2530	16193.57	3.9850	3.9852	0.8624	7.27	1.28	0.750			
0.2556	16357.45	3.9820	3.9819	0.8687	7.26	1.27	0.750			
0.2582	16526.07	3.9790	3.9791	0.8756	7.26	1.27	0.750			
0.2609	16694.71	3.9760	3.9761	0.8757	7.25	1.26	0.750			
0.2635	16866.46	3.9730	3.9731	0.8847	7.24	1.25	0.750			
0.2662	17038.22	3.9700	3.9702	0.8764	7.24	1.25	0.750			
0.2688	17203.94	3.9670	3.9666	0.8839	7.23	1.24	0.750			
0.2715	17374.43	3.9640	3.9641	0.8853	7.22	1.23	0.750			
0.2741	17543.41	3.9610	3.9609	0.8983	7.21	1.22	0.750			
0.2769	17719.55	3.9580	3.9579	0.9124	7.21	1.22	0.750			
0.2796	17896.61	3.9550	3.9552	0.9174	7.20	1.21	0.750			
0.2824	18072.15	3.9520	3.9519	0.9249	7.19	1.20	0.750			
0.2852	18251.97	3.9490	3.9491	0.9269	7.18	1.19	0.750			
0.2879	18425.72	3.9460	3.9460	0.9283	7.17	1.18	0.750			
0.2907	18607.34	3.9430	3.9429	0.9335	7.16	1.17	0.750			
0.2935	18786.56	3.9400	3.9399	0.9320	7.15	1.16	0.750			
0.2964	18971.94	3.9370	3.9369	0.9311	7.14	1.15	0.750			
0.2992	19146.85	3.9340	3.9341	0.9368	7.13	1.14	0.750			
0.3019	19323.85	3.9310	3.9310	0.9413	7.13	1.14	0.750			
0.3048	19505.75	3.9280	3.9281	0.9552	7.12	1.13	0.750			
0.3076	19687.45	3.9250	3.9249	0.9604	7.11	1.12	0.750			
0.3106	19876.06	3.9220	3.9221	0.9696	7.10	1.11	0.750			
0.3135	20062.59	3.9190	3.9191	0.9830	7.09	1.10	0.750			
0.3164	20252.37	3.9160	3.9161	0.9960	7.09	1.10	0.750			
0.3194	20443.28	3.9130	3.9128	0.9994	7.08	1.09	0.750			
0.3225	20637.09	3.9100	3.9101	1.0071	7.07	1.08	0.750			
0.3255	20831.87	3.9070	3.9071	1.0208	7.06	1.07	0.750			
0.3286	21032.43	3.9040	3.9040	1.0293	7.05	1.06	0.750			
0.3317	21229.90	3.9010	3.9009	1.0261	7.04	1.05	0.750			
0.3348	21427.55	3.8980	3.8980	1.0222	7.03	1.04	0.750			
0.3378	21621.57	3.8950	3.8952	1.0390	7.02	1.03	0.750			
0.3409	21820.46	3.8920	3.8920	1.0516	7.00	1.01	0.750			
0.3441	22024.02	3.8890	3.8884	1.0609	6.99	1.00	0.750			
0.3473	22227.86	3.8860	3.8862	1.0776	6.98	0.99	0.750			
0.3506	22436.15	3.8830	3.8831	1.1084	6.97	0.98	0.750			
0.3540	22653.93	3.8800	3.8800	1.1312	6.96	0.97	0.750			
0.3574	22874.59	3.8770	3.8769	1.1227	6.95	0.96	0.750			
0.3608	23091.19	3.8740	3.8740	1.1388	6.94	0.95	0.750			
0.3643	23312.73	3.8710	3.8711	1.1539	6.94	0.95	0.750			
0.3677	23534.94	3.8680	3.8682	1.1640	6.93	0.94	0.750			
0.3712	23757.48	3.8650	3.8650	1.1616	6.92	0.93	0.750			
0.3746	23976.99	3.8620	3.8621	1.1757	6.91	0.92	0.750			
0.3782	24206.33	3.8590	3.8591	1.2049	6.90	0.91	0.750			
0.3819	24440.89	3.8560	3.8556	1.2332	6.89	0.90	0.750			
0.3856	24677.08	3.8530	3.8531	1.2506	6.87	0.88	0.750			
0.3895	24925.47	3.8500	3.8500	1.2560	6.86	0.87	0.750			
0.3932	25163.97	3.8470	3.8471	1.3157	6.84	0.85	0.750			
0.3971	25414.60	3.8440	3.8442	1.3565	6.83	0.84	0.750			
0.4013	25680.27	3.8410	3.8405	1.4092	6.82	0.83	0.750	0.334	0.831	
0.4056	25959.32	3.8380	3.8379	1.4331	6.81	0.82	0.750			
0.4100	26241.78	3.8350	3.8353	1.4631	6.80	0.81	0.750			
0.4145	26528.20	3.8320	3.8322	1.4824	6.78	0.79	0.750			
0.4190	26817.78	3.8290	3.8286	1.4518	6.76	0.77	0.750			
0.4233	27091.90	3.8260	3.8259	1.4500	6.75	0.76	0.750			
0.4277	27373.31	3.8230	3.8232	1.4735	6.73	0.74	0.750			
0.4321	27656.26	3.8200	3.8197	1.4953	6.72	0.73	0.750			
0.4366	27942.39	3.8170	3.8174	1.5221	6.70	0.71	0.750			
0.4412	28235.21	3.8140	3.8142	1.5640	6.67	0.68	0.750			
0.4460	28541.90	3.8110	3.8108	1.6216	6.65	0.66	0.750			
0.4509	28854.51	3.8080	3.8081	1.6489	6.63	0.64	0.750			
0.4560	29185.39	3.8050	3.8051	1.6792	6.61	0.62	0.750			
0.4612	29515.58	3.8020	3.8019	1.7084	6.60	0.61	0.750			
0.4662	29837.96	3.7990	3.7992	1.7122	6.58	0.59	0.750			
0.4714	30168.06	3.7960	3.7960	1.7384	6.56	0.57	0.750			
0.4766	30499.60	3.7930	3.7931	1.7465	6.53	0.54	0.750			
0.4818	30833.00	3.7900	3.7901	1.7514	6.51	0.52	0.750			
0.4871	31176.22	3.7870	3.7872	1.7702	6.49	0.50	0.750			
0.4924	31513.67	3.7840	3.7842	1.8342	6.47	0.48	0.750			
0.4979	31868.14	3.7810	3.7813	1.8514	6.44	0.45	0.750			
0.5036	32232.84	3.7780	3.7782	1.8517	6.42	0.43	0.750			
0.5091	32583.40	3.7750	3.7750	1.8572	6.40	0.41	0.750			
0.5146	32934.07	3.7720	3.7721	1.8434	6.38	0.39	0.750			
0.5201	33284.77	3.7690	3.7689	1.8849	6.37	0.38	0.750			
0.5258	33652.61	3.7660	3.7656	1.8596	6.34	0.35	0.750			
0.5313	34005.85	3.7630	3.7627	1.9000	6.31	0.32	0.750			
0.5370	34366.82	3.7600	3.7602	1.9228	6.29	0.30	0.750			
0.5430	34751.94	3.7570	3.7568	1.9999	6.27	0.28	0.750			
0.5489	35132.76	3.7540	3.7541	2.0377	6.25	0.26	0.750			
0.5552	35535.69	3.7510	3.7509	2.1071	6.23	0.24	0.750			
0.5615	35938.83	3.7480	3.7481	2.0561	6.21	0.22	0.750			
0.5678	36339.98	3.7450	3.7449	2.1008	6.19	0.20	0.750			
0.5742	36749.17	3.7420	3.7420	2.1452	6.17	0.18	0.750			
0.5804	37146.96	3.7390	3.7392	2.2755	6.14	0.15	0.750			
0.5876	37607.18	3.7360	3.7359	2.3575	6.11	0.12	0.750			
0.5950	38078.18	3.7330	3.7331	2.3388	6.09	0.10	0.750			
0.6024	38551.37	3.7300	3.7299	2.3422	6.08	0.09	0.750			
0.6092	38988.82	3.7270	3.7269	2.3375	6.06	0.07	0.750			
0.6164	39451.75	3.7240	3.7236	2.3688	6.04	0.05	0.750			
0.6236	39908.44	3.7210	3.7212	2.2753	6.02	0.03	0.750			
0.6301	40326.77	3.7180	3.7181	2.1439	6.01	0.02	0.750			
0.6362	40715.15	3.7150	3.7154	1.9389	6.00	0.01	0.750			
0.6419	41083.27	3.7120	3.7122	1.7812	5.99	0.00	0.750			
0.6469	41399.32	3.7090	3.7094	1.6014	5.99	-0.00	0.750			
0.6513	41685.77	3.7060	3.7058	1.4307	5.98	-0.01	0.750			
0.6552	41930.34	3.7030	3.7031	1.2871	5.97	-0.02	0.750			
0.6588	42160.91	3.7000	3.7000	1.1663	5.97	-0.02	0.750			
0.6619	42364.64	3.6970	3.6970	1.0875	5.96	-0.03	0.750			
0.6650	42562.21	3.6940	3.6940	1.0306	5.96	-0.03	0.750			
0.6680	42751.75	3.6910	3.6910	0.9841	5.95	-0.04	0.750			
0.6708	42934.09	3.6880	3.6880	0.9399	5.95	-0.04	0.750			
0.6737	43113.62	3.6850	3.6850	0.9001	5.95	-0.04	0.750			
0.6763	43280.67	3.6820	3.6821	0.8739	5.95	-0.04	0.750			
0.6788	43443.08	3.6790	3.6792	0.8432	5.95	-0.04	0.750			
0.6813	43603.11	3.6760	3.6756	0.8242	5.95	-0.04	0.750			
0.6837	43757.80	3.6730	3.6730	0.7983	5.95	-0.04	0.750			
0.6861	43913.51	3.6700	3.6701	0.7708	5.96	-0.03	0.750			
0.6885	44062.84	3.6670	3.6672	0.7470	5.96	-0.03	0.750			
0.6907	44201.74	3.6640	3.6640	0.7038	5.96	-0.03	0.750			
0.6927	44331.62	3.6610	3.6609	0.6703	5.97	-0.02	0.750			
0.6946	44454.39	3.6580	3.6580	0.6382	5.97	-0.02	0.750			
0.6965	44574.32	3.6550	3.6550	0.6129	5.97	-0.02	0.750			
0.6983	44691.11	3.6520	3.6519	0.5886	5.98	-0.01	0.750			
0.7001	44803.53	3.6490	3.6490	0.5585	5.98	-0.01	0.750			
0.7017	44908.08	3.6460	3.6461	0.5236	5.98	-0.01	0.750			
0.7032	45006.60	3.6430	3.6429	0.4942	5.98	-0.01	0.750			
0.7046	45097.49	3.6400	3.6401	0.4607	5.99	-0.00	0.750			
0.7060	45181.66	3.6370	3.6368	0.4228	5.99	-0.00	0.750			
0.7072	45259.61	3.6340	3.6342	0.3882	5.99	0.00	0.750			
0.7083	45332.10	3.6310	3.6310	0.3554	5.99	0.00	0.750			
0.7093	45397.67	3.6280	3.6284	0.3188	5.99	0.00	0.750			
0.7103	45457.45	3.6250	3.6248	0.2797	6.00	0.01	0.750			
0.7110	45507.17	3.6220	3.6219	0.2383	6.00	0.01	0.750			
0.7117	45549.06	3.6190	3.6191	0.1958	6.00	0.01	0.750			
0.7122	45582.41	3.6160	3.6163	0.1518	6.00	0.01	0.750			
0.7126	45609.36	3.6130	3.6129	0.1089	6.00	0.01	0.750			
0.7129	45626.26	3.6100	3.6089	0.0616	6.00	0.01	0.750			
0.7130	45631.38	3.6040	3.6044	-0.0311	6.00	0.01	0.750			
0.7130	45632.91	3.6070	3.5966	0.0153	6.00	0.01	0.749			
