Ah_balance (normalized)	Ah_balance (mAh)	Voltage - fit (V)	Voltage -  interpolate (V)	dQ/dV (1/V)	Temperature (°C)	Temperature - diff (°C)	Current (C)	R_DC 0ms (mOhm)	R_DC 50ms (mOhm)	R_DC 50 ms PEC (mOhm)
0.0934	5980.69	4.0020	4.0016	-0.0766	5.98	0.00	-0.750			
0.0937	5998.12	3.9990	3.9987	-0.1049	5.98	0.00	-0.750			
0.0941	6021.66	3.9960	3.9959	-0.1318	5.98	0.00	-0.750			
0.0945	6049.54	3.9930	3.9930	-0.1580	5.98	0.00	-0.750			
0.0950	6082.45	3.9900	3.9901	-0.1837	5.98	0.00	-0.750			
0.0956	6120.18	3.9870	3.9870	-0.2094	5.98	0.00	-0.750			
0.0963	6163.54	3.9840	3.9840	-0.2315	5.98	0.00	-0.750			
0.0970	6209.95	3.9810	3.9811	-0.2555	5.98	0.00	-0.750			
0.0978	6261.60	3.9780	3.9779	-0.2784	5.98	0.00	-0.750			
0.0987	6317.93	3.9750	3.9750	-0.2996	5.98	-0.00	-0.750			
0.0996	6376.42	3.9720	3.9720	-0.3246	5.98	-0.00	-0.750			
0.1006	6441.02	3.9690	3.9691	-0.3487	5.98	-0.00	-0.750			
0.1017	6510.49	3.9660	3.9659	-0.3728	5.98	-0.00	-0.750			
0.1029	6584.59	3.9630	3.9630	-0.3989	5.98	-0.00	-0.750			
0.1041	6663.28	3.9600	3.9600	-0.4218	5.98	-0.00	-0.750			
0.1054	6747.00	3.9570	3.9570	-0.4476	5.97	-0.01	-0.750			
0.1068	6836.26	3.9540	3.9539	-0.4696	5.97	-0.01	-0.750			
0.1082	6927.59	3.9510	3.9510	-0.4884	5.97	-0.01	-0.750			
0.1098	7025.43	3.9480	3.9480	-0.5062	5.97	-0.01	-0.750			
0.1113	7123.80	3.9450	3.9451	-0.5232	5.97	-0.01	-0.750			
0.1129	7225.25	3.9420	3.9420	-0.5408	5.97	-0.01	-0.750			
0.1145	7331.08	3.9390	3.9390	-0.5582	5.97	-0.01	-0.750			
0.1162	7439.43	3.9360	3.9360	-0.5737	5.97	-0.01	-0.750			
0.1180	7552.11	3.9330	3.9331	-0.5939	5.97	-0.01	-0.750			
0.1198	7668.86	3.9300	3.9300	-0.6054	5.97	-0.01	-0.750			
0.1217	7789.06	3.9270	3.9269	-0.6171	5.97	-0.01	-0.750			
0.1235	7906.81	3.9240	3.9242	-0.6276	5.97	-0.01	-0.750			
0.1254	8027.95	3.9210	3.9210	-0.6353	5.97	-0.01	-0.750			
0.1274	8151.07	3.9180	3.9179	-0.6448	5.97	-0.01	-0.750			
0.1293	8274.41	3.9150	3.9150	-0.6574	5.97	-0.01	-0.750			
0.1313	8403.24	3.9120	3.9121	-0.6673	5.97	-0.01	-0.750			
0.1333	8533.20	3.9090	3.9089	-0.6745	5.97	-0.01	-0.750			
0.1354	8664.44	3.9060	3.9060	-0.6820	5.97	-0.01	-0.750			
0.1374	8795.39	3.9030	3.9030	-0.6796	5.97	-0.01	-0.750			
0.1395	8926.66	3.9000	3.9000	-0.6857	5.98	-0.00	-0.750			
0.1415	9056.86	3.8970	3.8971	-0.6920	5.98	-0.00	-0.750			
0.1436	9188.37	3.8940	3.8940	-0.6952	5.98	0.00	-0.750			
0.1457	9325.43	3.8910	3.8909	-0.7021	5.99	0.01	-0.750			
0.1478	9460.31	3.8880	3.8880	-0.7034	5.99	0.01	-0.750			
0.1499	9595.79	3.8850	3.8851	-0.7090	5.99	0.01	-0.750			
0.1521	9733.31	3.8820	3.8819	-0.7114	6.00	0.02	-0.750			
0.1542	9867.88	3.8790	3.8790	-0.7148	6.01	0.03	-0.750			
0.1563	10006.02	3.8760	3.8760	-0.7179	6.02	0.04	-0.750			
0.1585	10146.48	3.8730	3.8730	-0.7210	6.02	0.04	-0.750			
0.1607	10286.08	3.8700	3.8702	-0.7195	6.03	0.05	-0.750			
0.1629	10422.97	3.8670	3.8670	-0.7232	6.03	0.05	-0.750			
0.1650	10562.20	3.8640	3.8640	-0.7176	6.04	0.06	-0.750			
0.1672	10699.39	3.8610	3.8609	-0.7250	6.04	0.06	-0.750			
0.1694	10838.47	3.8580	3.8581	-0.7244	6.04	0.06	-0.750			
0.1716	10979.34	3.8550	3.8549	-0.7325	6.05	0.07	-0.750			
0.1738	11120.76	3.8520	3.8522	-0.7322	6.05	0.07	-0.750			
0.1760	11262.47	3.8490	3.8489	-0.7303	6.06	0.08	-0.750			
0.1781	11400.04	3.8460	3.8460	-0.7352	6.07	0.09	-0.750			
0.1804	11543.49	3.8430	3.8431	-0.7332	6.07	0.09	-0.750			
0.1826	11684.19	3.8400	3.8398	-0.7334	6.08	0.10	-0.750			
0.1848	11824.90	3.8370	3.8368	-0.7323	6.09	0.11	-0.750			
0.1870	11964.83	3.8340	3.8339	-0.7289	6.09	0.11	-0.750			
0.1891	12105.14	3.8310	3.8309	-0.7315	6.10	0.12	-0.750			
0.1913	12246.35	3.8280	3.8281	-0.7361	6.10	0.12	-0.750			
0.1935	12385.48	3.8250	3.8249	-0.7309	6.10	0.12	-0.750			
0.1958	12529.43	3.8220	3.8220	-0.7415	6.11	0.13	-0.750			
0.1980	12671.57	3.8190	3.8193	-0.7406	6.11	0.13	-0.750			
0.2002	12813.66	3.8160	3.8158	-0.7421	6.12	0.14	-0.750			
0.2025	12957.26	3.8130	3.8131	-0.7423	6.12	0.14	-0.750			
0.2047	13098.67	3.8100	3.8100	-0.7439	6.13	0.15	-0.750			
0.2069	13240.71	3.8070	3.8070	-0.7418	6.14	0.16	-0.750			
0.2092	13386.11	3.8040	3.8040	-0.7453	6.14	0.16	-0.750			
0.2114	13528.31	3.8010	3.8011	-0.7407	6.15	0.17	-0.750			
0.2136	13671.20	3.7980	3.7980	-0.7420	6.15	0.17	-0.750			
0.2158	13812.76	3.7950	3.7950	-0.7452	6.16	0.18	-0.750			
0.2181	13955.33	3.7920	3.7919	-0.7459	6.16	0.18	-0.750			
0.2203	14099.55	3.7890	3.7890	-0.7468	6.17	0.19	-0.750			
0.2225	14242.97	3.7860	3.7859	-0.7503	6.17	0.19	-0.750			
0.2248	14388.64	3.7830	3.7830	-0.7476	6.18	0.20	-0.750			
0.2270	14531.13	3.7800	3.7800	-0.7565	6.18	0.20	-0.750			
0.2293	14674.59	3.7770	3.7769	-0.7564	6.19	0.21	-0.750			
0.2315	14819.18	3.7740	3.7739	-0.7562	6.20	0.22	-0.750			
0.2338	14966.36	3.7710	3.7711	-0.7702	6.21	0.23	-0.750			
0.2362	15116.94	3.7680	3.7682	-0.7699	6.22	0.24	-0.750			
0.2385	15265.71	3.7650	3.7649	-0.7732	6.23	0.25	-0.750			
0.2409	15415.21	3.7620	3.7620	-0.7789	6.23	0.25	-0.750			
0.2432	15562.69	3.7590	3.7591	-0.7760	6.24	0.26	-0.750			
0.2455	15713.42	3.7560	3.7558	-0.7807	6.24	0.26	-0.750			
0.2479	15862.74	3.7530	3.7530	-0.7824	6.25	0.27	-0.750			
0.2502	16011.71	3.7500	3.7500	-0.7831	6.26	0.28	-0.750			
0.2525	16163.14	3.7470	3.7471	-0.7958	6.26	0.28	-0.750			
0.2549	16315.89	3.7440	3.7439	-0.7943	6.27	0.29	-0.750			
0.2573	16469.04	3.7410	3.7410	-0.7974	6.28	0.30	-0.750			
0.2598	16624.31	3.7380	3.7380	-0.7988	6.29	0.31	-0.750			
0.2621	16776.67	3.7350	3.7350	-0.8046	6.29	0.31	-0.750			
0.2645	16929.60	3.7320	3.7320	-0.8127	6.30	0.32	-0.750			
0.2670	17087.57	3.7290	3.7288	-0.8160	6.30	0.32	-0.750			
0.2694	17243.48	3.7260	3.7260	-0.8198	6.31	0.33	-0.750			
0.2719	17403.19	3.7230	3.7229	-0.8328	6.32	0.34	-0.750			
0.2744	17564.75	3.7200	3.7200	-0.8407	6.32	0.34	-0.750			
0.2770	17726.25	3.7170	3.7169	-0.8515	6.33	0.35	-0.750			
0.2795	17889.22	3.7140	3.7140	-0.8501	6.33	0.35	-0.750			
0.2821	18053.48	3.7110	3.7110	-0.8507	6.34	0.36	-0.750			
0.2847	18220.12	3.7080	3.7079	-0.8583	6.35	0.37	-0.750			
0.2873	18384.43	3.7050	3.7050	-0.8612	6.35	0.37	-0.750			
0.2898	18548.52	3.7020	3.7019	-0.8691	6.36	0.38	-0.750			
0.2924	18716.65	3.6990	3.6988	-0.8685	6.37	0.39	-0.750			
0.2950	18881.39	3.6960	3.6960	-0.8776	6.38	0.40	-0.750			
0.2977	19053.08	3.6930	3.6929	-0.8935	6.39	0.41	-0.750			
0.3004	19225.84	3.6900	3.6899	-0.9039	6.39	0.41	-0.750			
0.3031	19400.00	3.6870	3.6870	-0.9101	6.40	0.42	-0.750			
0.3058	19568.42	3.6840	3.6842	-0.9455	6.40	0.42	-0.750			
0.3086	19751.38	3.6810	3.6809	-0.9781	6.41	0.43	-0.750			
0.3117	19949.48	3.6780	3.6778	-1.0029	6.41	0.43	-0.750			
0.3148	20144.34	3.6750	3.6751	-1.0105	6.42	0.44	-0.750			
0.3179	20348.45	3.6720	3.6721	-1.0158	6.42	0.44	-0.750			
0.3210	20545.58	3.6690	3.6690	-1.0027	6.43	0.45	-0.750			
0.3240	20734.16	3.6660	3.6661	-0.9925	6.43	0.45	-0.750			
0.3268	20916.06	3.6630	3.6630	-0.9805	6.44	0.46	-0.750			
0.3297	21102.54	3.6600	3.6600	-0.9851	6.45	0.47	-0.750			
0.3327	21293.59	3.6570	3.6569	-0.9930	6.45	0.47	-0.750			
0.3357	21486.07	3.6540	3.6541	-1.0000	6.46	0.48	-0.750			
0.3387	21678.79	3.6510	3.6510	-1.0113	6.47	0.49	-0.750			
0.3418	21874.52	3.6480	3.6480	-1.0183	6.47	0.49	-0.750			
0.3448	22069.34	3.6450	3.6449	-1.0253	6.48	0.50	-0.750			
0.3479	22265.55	3.6420	3.6421	-1.0308	6.49	0.51	-0.750			
0.3510	22466.11	3.6390	3.6390	-1.0436	6.49	0.51	-0.750			
0.3542	22668.38	3.6360	3.6360	-1.0490	6.50	0.52	-0.750			
0.3574	22871.51	3.6330	3.6330	-1.0587	6.50	0.52	-0.750			
0.3605	23073.98	3.6300	3.6302	-1.0652	6.51	0.53	-0.750			
0.3637	23279.54	3.6270	3.6269	-1.0779	6.51	0.53	-0.750			
0.3670	23487.24	3.6240	3.6241	-1.0841	6.51	0.53	-0.750			
0.3702	23695.08	3.6210	3.6210	-1.0957	6.51	0.53	-0.750			
0.3735	23905.34	3.6180	3.6181	-1.1091	6.51	0.53	-0.750			
0.3769	24123.06	3.6150	3.6149	-1.1212	6.52	0.54	-0.750			
0.3803	24338.76	3.6120	3.6120	-1.1271	6.52	0.54	-0.750			
0.3837	24557.15	3.6090	3.6090	-1.1319	6.53	0.55	-0.750			
0.3871	24775.26	3.6060	3.6061	-1.1466	6.53	0.55	-0.750			
0.3906	24995.99	3.6030	3.6030	-1.1567	6.53	0.55	-0.750			
0.3940	25216.33	3.6000	3.5999	-1.1620	6.53	0.55	-0.750			
0.3975	25440.01	3.5970	3.5970	-1.1804	6.53	0.55	-0.750			
0.4011	25671.62	3.5940	3.5939	-1.1928	6.54	0.56	-0.750			
0.4047	25903.58	3.5910	3.5909	-1.2027	6.55	0.57	-0.750			
0.4084	26135.58	3.5880	3.5886	-1.2054	6.55	0.57	-0.749	0.458	1.046	
0.4120	26365.08	3.5850	3.5850	-1.2145	6.56	0.58	-0.750			
0.4156	26599.68	3.5820	3.5820	-1.2271	6.56	0.58	-0.750			
0.4193	26836.06	3.5790	3.5789	-1.2386	6.57	0.59	-0.750			
0.4231	27075.22	3.5760	3.5761	-1.2535	6.57	0.59	-0.750			
0.4269	27319.36	3.5730	3.5730	-1.2682	6.57	0.59	-0.750			
0.4307	27562.56	3.5700	3.5700	-1.2769	6.57	0.59	-0.750			
0.4345	27808.31	3.5670	3.5670	-1.2905	6.57	0.59	-0.750			
0.4384	28057.77	3.5640	3.5639	-1.3024	6.57	0.59	-0.750			
0.4423	28308.01	3.5610	3.5610	-1.3135	6.57	0.59	-0.750			
0.4462	28559.31	3.5580	3.5580	-1.3318	6.57	0.59	-0.750			
0.4503	28817.73	3.5550	3.5551	-1.3432	6.57	0.59	-0.750			
0.4544	29079.24	3.5520	3.5519	-1.3572	6.58	0.60	-0.750			
0.4584	29338.62	3.5490	3.5489	-1.3773	6.59	0.61	-0.750			
0.4626	29603.55	3.5460	3.5461	-1.3909	6.59	0.61	-0.750			
0.4668	29873.92	3.5430	3.5429	-1.4076	6.60	0.62	-0.750			
0.4710	30146.28	3.5400	3.5398	-1.4167	6.61	0.63	-0.750			
0.4753	30419.09	3.5370	3.5370	-1.4207	6.61	0.63	-0.750			
0.4796	30696.46	3.5340	3.5341	-1.4354	6.62	0.64	-0.750			
0.4839	30972.55	3.5310	3.5309	-1.4469	6.62	0.64	-0.750			
0.4882	31247.68	3.5280	3.5280	-1.4425	6.62	0.64	-0.750			
0.4927	31530.56	3.5250	3.5249	-1.4579	6.63	0.65	-0.750			
0.4971	31811.39	3.5220	3.5220	-1.4710	6.63	0.65	-0.750			
0.5015	32095.20	3.5190	3.5189	-1.4765	6.64	0.66	-0.750			
0.5059	32378.62	3.5160	3.5159	-1.4909	6.64	0.66	-0.750			
0.5104	32664.48	3.5130	3.5131	-1.5054	6.65	0.67	-0.750			
0.5149	32953.03	3.5100	3.5100	-1.5159	6.66	0.68	-0.750			
0.5195	33250.44	3.5070	3.5068	-1.5277	6.66	0.68	-0.750			
0.5242	33546.51	3.5040	3.5041	-1.5222	6.67	0.69	-0.750			
0.5287	33835.40	3.5010	3.5008	-1.5316	6.68	0.70	-0.750			
0.5333	34132.83	3.4980	3.4980	-1.5321	6.69	0.71	-0.750			
0.5379	34426.35	3.4950	3.4950	-1.5229	6.69	0.71	-0.750			
0.5425	34722.86	3.4920	3.4919	-1.5341	6.70	0.72	-0.750			
0.5471	35014.50	3.4890	3.4889	-1.5252	6.71	0.73	-0.750			
0.5517	35311.89	3.4860	3.4859	-1.5225	6.72	0.74	-0.750			
0.5563	35605.37	3.4830	3.4831	-1.5171	6.72	0.74	-0.750			
0.5608	35891.11	3.4800	3.4803	-1.5113	6.73	0.75	-0.750			
0.5654	36184.21	3.4770	3.4769	-1.5144	6.74	0.76	-0.750			
0.5699	36476.56	3.4740	3.4739	-1.5110	6.74	0.76	-0.750			
0.5745	36765.19	3.4710	3.4711	-1.5017	6.75	0.77	-0.750			
0.5790	37057.79	3.4680	3.4681	-1.5043	6.77	0.79	-0.750			
0.5835	37344.32	3.4650	3.4649	-1.4983	6.78	0.80	-0.750			
0.5880	37629.74	3.4620	3.4620	-1.4844	6.80	0.82	-0.750			
0.5924	37915.57	3.4590	3.4589	-1.4704	6.81	0.83	-0.750			
0.5968	38197.51	3.4560	3.4559	-1.4571	6.83	0.85	-0.750			
0.6012	38478.26	3.4530	3.4530	-1.4429	6.84	0.86	-0.750			
0.6056	38755.40	3.4500	3.4499	-1.4264	6.85	0.87	-0.750			
0.6098	39024.86	3.4470	3.4470	-1.4112	6.86	0.88	-0.750			
0.6139	39292.78	3.4440	3.4439	-1.3848	6.87	0.89	-0.750			
0.6181	39561.21	3.4410	3.4409	-1.3716	6.89	0.91	-0.750			
0.6222	39821.53	3.4380	3.4381	-1.3584	6.91	0.93	-0.750			
0.6262	40079.73	3.4350	3.4350	-1.3353	6.92	0.94	-0.750			
0.6303	40337.64	3.4320	3.4318	-1.3135	6.94	0.96	-0.750			
0.6342	40586.66	3.4290	3.4290	-1.2939	6.95	0.97	-0.750			
0.6380	40831.11	3.4260	3.4261	-1.2653	6.97	0.99	-0.750			
0.6418	41077.23	3.4230	3.4229	-1.2500	6.98	1.00	-0.750			
0.6455	41313.59	3.4200	3.4200	-1.2198	7.00	1.02	-0.750			
0.6491	41541.29	3.4170	3.4171	-1.1912	7.01	1.03	-0.750			
0.6527	41771.47	3.4140	3.4140	-1.1660	7.03	1.05	-0.750			
0.6561	41993.14	3.4110	3.4110	-1.1437	7.05	1.07	-0.750			
0.6595	42208.35	3.4080	3.4080	-1.1184	7.06	1.08	-0.750			
0.6628	42421.90	3.4050	3.4050	-1.0976	7.08	1.10	-0.750			
0.6661	42630.08	3.4020	3.4019	-1.0700	7.10	1.12	-0.750			
0.6693	42834.07	3.3990	3.3990	-1.0444	7.11	1.13	-0.750			
0.6724	43031.76	3.3960	3.3961	-1.0197	7.13	1.15	-0.750			
0.6754	43225.58	3.3930	3.3929	-0.9970	7.14	1.16	-0.750			
0.6783	43413.69	3.3900	3.3900	-0.9636	7.16	1.18	-0.750			
0.6812	43597.10	3.3870	3.3869	-0.9347	7.18	1.20	-0.750			
0.6840	43772.81	3.3840	3.3840	-0.9083	7.20	1.22	-0.750			
0.6866	43944.58	3.3810	3.3811	-0.8865	7.22	1.24	-0.750			
0.6892	44110.30	3.3780	3.3780	-0.8678	7.23	1.25	-0.750			
0.6918	44274.97	3.3750	3.3749	-0.8418	7.25	1.27	-0.750			
0.6943	44434.46	3.3720	3.3720	-0.8212	7.26	1.28	-0.750			
0.6968	44592.89	3.3690	3.3691	-0.8093	7.28	1.30	-0.750			
0.6992	44747.21	3.3660	3.3659	-0.7918	7.30	1.32	-0.750			
0.7015	44896.47	3.3630	3.3630	-0.7664	7.31	1.33	-0.750			
0.7037	45039.70	3.3600	3.3600	-0.7440	7.32	1.34	-0.750			
0.7060	45181.12	3.3570	3.3570	-0.7253	7.34	1.36	-0.750			
0.7081	45320.59	3.3540	3.3539	-0.7108	7.35	1.37	-0.750			
0.7102	45453.47	3.3510	3.3510	-0.6871	7.37	1.39	-0.750			
0.7122	45582.94	3.3480	3.3480	-0.6694	7.38	1.40	-0.750			
0.7142	45709.87	3.3450	3.3450	-0.6527	7.39	1.41	-0.750			
0.7162	45834.38	3.3420	3.3419	-0.6314	7.40	1.42	-0.750			
0.7180	45954.66	3.3390	3.3390	-0.6385	7.42	1.44	-0.750			
