Ah_balance (normalized)	Ah_balance (mAh)	Voltage - fit (V)	Voltage -  interpolate (V)	dQ/dV (1/V)	Temperature (°C)	Temperature - diff (°C)	Current (C)	R_DC 0ms (mOhm)	R_DC 50ms (mOhm)	R_DC 50 ms PEC (mOhm)
0.1763	11285.14	4.0820	4.0821	0.7794	7.96	1.96	0.750			
0.1787	11434.69	4.0790	4.0790	0.7772	7.96	1.96	0.750			
0.1810	11584.28	4.0760	4.0761	0.7752	7.95	1.95	0.750			
0.1833	11731.45	4.0730	4.0730	0.7745	7.95	1.95	0.750			
0.1856	11879.65	4.0700	4.0699	0.7751	7.94	1.94	0.750			
0.1879	12027.95	4.0670	4.0671	0.7745	7.94	1.94	0.750			
0.1903	12176.09	4.0640	4.0638	0.7773	7.93	1.93	0.750			
0.1926	12327.02	4.0610	4.0611	0.7828	7.93	1.93	0.750			
0.1950	12480.48	4.0580	4.0579	0.7781	7.92	1.92	0.750			
0.1973	12628.73	4.0550	4.0550	0.7853	7.92	1.92	0.750			
0.1997	12778.87	4.0520	4.0521	0.7884	7.92	1.92	0.750			
0.2020	12929.34	4.0490	4.0489	0.7916	7.91	1.91	0.750			
0.2044	13081.20	4.0460	4.0460	0.7999	7.91	1.91	0.750			
0.2068	13236.05	4.0430	4.0431	0.8001	7.90	1.90	0.750			
0.2092	13390.64	4.0400	4.0399	0.8047	7.90	1.90	0.750			
0.2117	13547.76	4.0370	4.0370	0.8158	7.90	1.90	0.750			
0.2141	13701.80	4.0340	4.0342	0.8102	7.89	1.89	0.750			
0.2165	13858.26	4.0310	4.0310	0.8148	7.89	1.89	0.750			
0.2190	14016.14	4.0280	4.0281	0.8139	7.88	1.88	0.750			
0.2214	14171.11	4.0250	4.0250	0.8168	7.87	1.87	0.750			
0.2239	14329.84	4.0220	4.0220	0.8232	7.86	1.86	0.750			
0.2263	14485.80	4.0190	4.0190	0.8227	7.86	1.86	0.750			
0.2288	14643.30	4.0160	4.0160	0.8258	7.85	1.85	0.750			
0.2313	14804.86	4.0130	4.0131	0.8282	7.84	1.84	0.750			
0.2338	14964.50	4.0100	4.0100	0.8309	7.84	1.84	0.750			
0.2363	15124.20	4.0070	4.0070	0.8341	7.84	1.84	0.750			
0.2388	15283.32	4.0040	4.0041	0.8382	7.83	1.83	0.750			
0.2413	15444.27	4.0010	4.0009	0.8394	7.83	1.83	0.750			
0.2439	15606.61	3.9980	3.9980	0.8377	7.82	1.82	0.750			
0.2464	15767.39	3.9950	3.9951	0.8448	7.81	1.81	0.750			
0.2489	15930.03	3.9920	3.9920	0.8519	7.80	1.80	0.750			
0.2515	16094.14	3.9890	3.9889	0.8548	7.79	1.79	0.750			
0.2540	16256.98	3.9860	3.9860	0.8615	7.79	1.79	0.750			
0.2566	16424.26	3.9830	3.9831	0.8651	7.78	1.78	0.750			
0.2593	16593.13	3.9800	3.9799	0.8743	7.78	1.78	0.750			
0.2619	16761.76	3.9770	3.9771	0.8742	7.78	1.78	0.750			
0.2645	16928.10	3.9740	3.9739	0.8735	7.77	1.77	0.750			
0.2671	17096.45	3.9710	3.9710	0.8773	7.76	1.76	0.750			
0.2698	17265.03	3.9680	3.9680	0.8747	7.76	1.76	0.750			
0.2724	17431.17	3.9650	3.9651	0.8786	7.75	1.75	0.750			
0.2750	17600.52	3.9620	3.9621	0.8865	7.74	1.74	0.750			
0.2777	17770.75	3.9590	3.9586	0.8948	7.73	1.73	0.750			
0.2804	17946.04	3.9560	3.9561	0.8992	7.72	1.72	0.750			
0.2831	18118.47	3.9530	3.9531	0.9051	7.71	1.71	0.750			
0.2859	18295.74	3.9500	3.9500	0.9139	7.70	1.70	0.750			
0.2886	18471.25	3.9470	3.9471	0.9237	7.70	1.70	0.750			
0.2913	18645.46	3.9440	3.9439	0.9214	7.69	1.69	0.750			
0.2941	18822.79	3.9410	3.9410	0.9272	7.67	1.67	0.750			
0.2969	19002.38	3.9380	3.9381	0.9350	7.66	1.66	0.750			
0.2997	19182.67	3.9350	3.9350	0.9444	7.65	1.65	0.750			
0.3026	19364.88	3.9320	3.9319	0.9464	7.63	1.63	0.750			
0.3054	19548.18	3.9290	3.9290	0.9464	7.62	1.62	0.750			
0.3083	19728.16	3.9260	3.9261	0.9540	7.61	1.61	0.750			
0.3111	19913.05	3.9230	3.9230	0.9665	7.60	1.60	0.750			
0.3140	20098.47	3.9200	3.9200	0.9712	7.59	1.59	0.750			
0.3170	20287.05	3.9170	3.9170	0.9780	7.58	1.58	0.750			
0.3199	20474.25	3.9140	3.9141	0.9914	7.57	1.57	0.750			
0.3229	20667.03	3.9110	3.9110	1.0062	7.55	1.55	0.750			
0.3260	20861.23	3.9080	3.9080	1.0188	7.54	1.54	0.750			
0.3290	21056.50	3.9050	3.9051	1.0194	7.53	1.53	0.750			
0.3321	21253.27	3.9020	3.9021	1.0320	7.52	1.52	0.750			
0.3352	21454.07	3.8990	3.8991	1.0444	7.51	1.51	0.750			
0.3383	21654.25	3.8960	3.8959	1.0574	7.50	1.50	0.750			
0.3415	21858.71	3.8930	3.8930	1.0553	7.48	1.48	0.750			
0.3447	22061.32	3.8900	3.8900	1.0744	7.47	1.47	0.750			
0.3479	22267.99	3.8870	3.8871	1.0937	7.45	1.45	0.750			
0.3513	22481.09	3.8840	3.8841	1.1091	7.44	1.44	0.750			
0.3546	22697.22	3.8810	3.8810	1.1021	7.42	1.42	0.750			
0.3580	22909.50	3.8780	3.8781	1.1220	7.41	1.41	0.750			
0.3613	23125.32	3.8750	3.8751	1.1310	7.40	1.40	0.750			
0.3648	23344.89	3.8720	3.8717	1.1490	7.39	1.39	0.750			
0.3682	23562.81	3.8690	3.8690	1.1541	7.37	1.37	0.750			
0.3716	23784.87	3.8660	3.8661	1.1682	7.36	1.36	0.750			
0.3752	24012.33	3.8630	3.8631	1.1899	7.34	1.34	0.750			
0.3788	24242.71	3.8600	3.8600	1.1968	7.32	1.32	0.750			
0.3824	24474.45	3.8570	3.8571	1.2206	7.30	1.30	0.750			
0.3861	24708.44	3.8540	3.8540	1.2426	7.29	1.29	0.750			
0.3899	24951.00	3.8510	3.8508	1.2526	7.27	1.27	0.750			
0.3936	25192.90	3.8480	3.8481	1.2715	7.25	1.25	0.750			
0.3974	25433.10	3.8450	3.8451	1.3133	7.24	1.24	0.750			
0.4014	25689.93	3.8420	3.8421	1.3386	7.22	1.22	0.750			
0.4055	25949.88	3.8390	3.8389	1.3858	7.20	1.20	0.750	0.387	0.891	
0.4097	26218.23	3.8360	3.8363	1.4153	7.18	1.18	0.750			
0.4140	26498.93	3.8330	3.8330	1.4306	7.16	1.16	0.750			
0.4185	26786.77	3.8300	3.8300	1.4607	7.14	1.14	0.750			
0.4228	27057.90	3.8270	3.8271	1.4579	7.11	1.11	0.750			
0.4272	27338.28	3.8240	3.8238	1.4953	7.09	1.09	0.750			
0.4317	27626.91	3.8210	3.8212	1.5121	7.07	1.07	0.750			
0.4363	27922.32	3.8180	3.8179	1.5245	7.05	1.05	0.750			
0.4409	28218.10	3.8150	3.8150	1.5677	7.03	1.03	0.750			
0.4456	28519.60	3.8120	3.8120	1.6031	7.01	1.01	0.750			
0.4505	28834.09	3.8090	3.8087	1.6389	6.98	0.98	0.750			
0.4554	29143.87	3.8060	3.8061	1.6534	6.96	0.96	0.750			
0.4605	29473.55	3.8030	3.8031	1.7235	6.93	0.93	0.750			
0.4658	29813.57	3.8000	3.7998	1.7425	6.91	0.91	0.750			
0.4709	30139.33	3.7970	3.7971	1.7612	6.88	0.88	0.750			
0.4763	30484.80	3.7940	3.7940	1.7908	6.86	0.86	0.750			
0.4819	30838.42	3.7910	3.7908	1.8007	6.83	0.83	0.750			
0.4873	31184.64	3.7880	3.7882	1.8293	6.81	0.81	0.750			
0.4928	31540.33	3.7850	3.7851	1.8609	6.78	0.78	0.750			
0.4984	31895.77	3.7820	3.7819	1.8846	6.75	0.75	0.750			
0.5040	32254.19	3.7790	3.7790	1.8764	6.71	0.71	0.750			
0.5097	32620.83	3.7760	3.7759	1.8980	6.69	0.69	0.750			
0.5154	32982.71	3.7730	3.7728	1.9126	6.66	0.66	0.750			
0.5211	33351.29	3.7700	3.7703	1.9332	6.63	0.63	0.750			
0.5270	33726.89	3.7670	3.7669	1.9583	6.60	0.60	0.750			
0.5329	34107.02	3.7640	3.7640	1.9748	6.57	0.57	0.750			
0.5389	34489.77	3.7610	3.7610	1.9983	6.54	0.54	0.750			
0.5450	34877.58	3.7580	3.7580	2.0591	6.52	0.52	0.750			
0.5512	35276.44	3.7550	3.7550	2.0637	6.50	0.50	0.750			
0.5574	35676.20	3.7520	3.7521	2.0864	6.46	0.46	0.750			
0.5638	36084.33	3.7490	3.7489	2.1464	6.42	0.42	0.750			
0.5702	36495.73	3.7460	3.7459	2.2026	6.39	0.39	0.750			
0.5771	36933.88	3.7430	3.7429	2.2899	6.35	0.35	0.750			
0.5839	37369.17	3.7400	3.7400	2.3319	6.32	0.32	0.750			
0.5909	37816.63	3.7370	3.7374	2.3953	6.29	0.29	0.750			
0.5984	38294.80	3.7340	3.7340	2.4340	6.26	0.26	0.750			
0.6056	38759.39	3.7310	3.7311	2.5469	6.24	0.24	0.750			
0.6136	39267.79	3.7280	3.7278	2.5113	6.20	0.20	0.750			
0.6212	39757.68	3.7250	3.7255	2.4787	6.17	0.17	0.750			
0.6284	40215.35	3.7220	3.7218	2.4105	6.15	0.15	0.750			
0.6354	40665.55	3.7190	3.7189	2.2658	6.13	0.13	0.750			
0.6423	41105.37	3.7160	3.7161	2.1538	6.10	0.10	0.750			
0.6483	41494.14	3.7130	3.7130	1.9309	6.08	0.08	0.750			
0.6538	41842.39	3.7100	3.7098	1.7224	6.07	0.07	0.750			
0.6585	42145.60	3.7070	3.7073	1.5183	6.06	0.06	0.750			
0.6628	42420.16	3.7040	3.7042	1.3805	6.05	0.05	0.750			
0.6667	42668.89	3.7010	3.7009	1.2468	6.05	0.05	0.750			
0.6702	42893.13	3.6980	3.6979	1.1340	6.03	0.03	0.750			
0.6733	43088.89	3.6950	3.6950	1.0468	6.02	0.02	0.750			
0.6762	43279.75	3.6920	3.6920	0.9882	6.02	0.02	0.750			
0.6790	43456.99	3.6890	3.6890	0.9437	6.01	0.01	0.750			
0.6818	43636.29	3.6860	3.6859	0.9033	6.00	0.00	0.750			
0.6845	43808.32	3.6830	3.6830	0.8741	6.00	-0.00	0.750			
0.6871	43973.74	3.6800	3.6799	0.8393	6.00	-0.00	0.750			
0.6896	44133.71	3.6770	3.6772	0.8069	5.99	-0.01	0.750			
0.6919	44284.52	3.6740	3.6740	0.7662	5.99	-0.01	0.750			
0.6942	44426.36	3.6710	3.6710	0.7289	5.99	-0.01	0.750			
0.6963	44562.29	3.6680	3.6680	0.6921	5.99	-0.01	0.750			
0.6983	44690.23	3.6650	3.6651	0.6536	5.99	-0.01	0.750			
0.7002	44815.64	3.6620	3.6620	0.6300	5.99	-0.01	0.750			
0.7021	44933.54	3.6590	3.6590	0.5925	5.99	-0.01	0.750			
0.7038	45043.79	3.6560	3.6560	0.5559	5.99	-0.01	0.750			
0.7054	45147.26	3.6530	3.6530	0.5207	5.99	-0.01	0.750			
0.7069	45243.53	3.6500	3.6500	0.4822	5.99	-0.01	0.750			
0.7083	45333.21	3.6470	3.6469	0.4462	5.99	-0.01	0.750			
0.7096	45414.22	3.6440	3.6441	0.4094	6.00	-0.00	0.750			
0.7108	45488.83	3.6410	3.6410	0.3744	6.00	-0.00	0.750			
0.7118	45558.07	3.6380	3.6379	0.3434	6.00	-0.00	0.750			
0.7128	45620.27	3.6350	3.6350	0.3088	6.00	-0.00	0.750			
0.7137	45675.85	3.6320	3.6320	0.2757	6.00	-0.00	0.750			
0.7145	45727.46	3.6290	3.6289	0.2389	6.00	-0.00	0.750			
0.7152	45770.76	3.6260	3.6260	0.2036	6.00	-0.00	0.750			
0.7157	45806.40	3.6230	3.6231	0.1650	6.00	0.00	0.750			
0.7162	45835.04	3.6200	3.6203	0.1260	6.00	0.00	0.750			
0.7165	45855.96	3.6170	3.6181	0.0850	6.00	0.00	0.750			
0.7167	45868.66	3.6140	3.6147	0.0423	6.00	0.00	0.750			
0.7168	45872.67	3.6110	3.6129	-0.0005	6.00	0.00	0.750			
