Ah_balance (normalized)	Ah_balance (mAh)	Voltage - fit (V)	Voltage -  interpolate (V)	dQ/dV (1/V)	Temperature (°C)	Temperature - diff (°C)	Current (C)	R_DC 0ms (mOhm)	R_DC 50ms (mOhm)	R_DC 50 ms PEC (mOhm)
0.1772	11340.80	4.0810	4.0809	0.6341	7.90	1.91	0.750			
0.1792	11469.29	4.0780	4.0780	0.6902	7.89	1.90	0.750			
0.1814	11607.48	4.0750	4.0749	0.7262	7.89	1.90	0.750			
0.1836	11750.41	4.0720	4.0720	0.7534	7.88	1.89	0.750			
0.1860	11902.17	4.0690	4.0690	0.7693	7.88	1.89	0.750			
0.1883	12050.81	4.0660	4.0660	0.7757	7.87	1.88	0.750			
0.1906	12200.77	4.0630	4.0631	0.7793	7.87	1.88	0.750			
0.1930	12352.34	4.0600	4.0596	0.7873	7.86	1.87	0.750			
0.1954	12503.23	4.0570	4.0570	0.7886	7.85	1.86	0.750			
0.1978	12657.12	4.0540	4.0540	0.7770	7.85	1.86	0.750			
0.2001	12804.48	4.0510	4.0510	0.7861	7.84	1.85	0.750			
0.2024	12956.12	4.0480	4.0481	0.7949	7.84	1.85	0.750			
0.2048	13106.82	4.0450	4.0448	0.7952	7.83	1.84	0.750			
0.2072	13259.88	4.0420	4.0421	0.8025	7.82	1.83	0.750			
0.2096	13416.38	4.0390	4.0391	0.8020	7.82	1.83	0.750			
0.2121	13571.64	4.0360	4.0360	0.8096	7.81	1.82	0.750			
0.2145	13729.62	4.0330	4.0331	0.8175	7.80	1.81	0.750			
0.2169	13882.28	4.0300	4.0300	0.8090	7.79	1.80	0.750			
0.2193	14038.27	4.0270	4.0271	0.8134	7.79	1.80	0.750			
0.2218	14197.53	4.0240	4.0240	0.8099	7.78	1.79	0.750			
0.2242	14351.73	4.0210	4.0211	0.8172	7.77	1.78	0.750			
0.2267	14510.26	4.0180	4.0180	0.8267	7.76	1.77	0.750			
0.2292	14667.43	4.0150	4.0150	0.8272	7.75	1.76	0.750			
0.2317	14827.29	4.0120	4.0122	0.8302	7.75	1.76	0.750			
0.2342	14987.39	4.0090	4.0090	0.8348	7.74	1.75	0.750			
0.2367	15148.02	4.0060	4.0061	0.8400	7.74	1.75	0.750			
0.2392	15311.01	4.0030	4.0030	0.8449	7.74	1.75	0.750			
0.2418	15472.12	4.0000	3.9999	0.8439	7.73	1.74	0.750			
0.2443	15634.15	3.9970	3.9970	0.8458	7.72	1.73	0.750			
0.2468	15798.10	3.9940	3.9940	0.8461	7.71	1.72	0.750			
0.2494	15959.86	3.9910	3.9910	0.8542	7.70	1.71	0.750			
0.2519	16123.33	3.9880	3.9880	0.8587	7.69	1.70	0.750			
0.2545	16288.27	3.9850	3.9849	0.8629	7.68	1.69	0.750			
0.2571	16455.24	3.9820	3.9820	0.8688	7.67	1.68	0.750			
0.2597	16623.39	3.9790	3.9791	0.8695	7.66	1.67	0.750			
0.2624	16790.40	3.9760	3.9760	0.8733	7.65	1.66	0.750			
0.2650	16957.10	3.9730	3.9731	0.8764	7.64	1.65	0.750			
0.2676	17125.93	3.9700	3.9697	0.8853	7.63	1.64	0.750			
0.2703	17296.65	3.9670	3.9671	0.8893	7.62	1.63	0.750			
0.2729	17468.71	3.9640	3.9641	0.8966	7.61	1.62	0.750			
0.2757	17643.85	3.9610	3.9610	0.9022	7.61	1.62	0.750			
0.2784	17817.57	3.9580	3.9579	0.9050	7.60	1.61	0.750			
0.2811	17988.64	3.9550	3.9551	0.9052	7.59	1.60	0.750			
0.2838	18165.76	3.9520	3.9519	0.8937	7.58	1.59	0.750			
0.2865	18336.69	3.9490	3.9490	0.9055	7.57	1.58	0.750			
0.2892	18509.47	3.9460	3.9462	0.9175	7.56	1.57	0.750			
0.2920	18684.94	3.9430	3.9428	0.9245	7.55	1.56	0.750			
0.2948	18864.53	3.9400	3.9401	0.9337	7.54	1.55	0.750			
0.2976	19043.86	3.9370	3.9371	0.9387	7.53	1.54	0.750			
0.3004	19225.06	3.9340	3.9341	0.9524	7.51	1.52	0.750			
0.3033	19413.99	3.9310	3.9311	0.9639	7.50	1.51	0.750			
0.3062	19596.11	3.9280	3.9279	0.9581	7.49	1.50	0.750			
0.3091	19780.42	3.9250	3.9251	0.9606	7.48	1.49	0.750			
0.3120	19966.11	3.9220	3.9221	0.9674	7.47	1.48	0.750			
0.3149	20151.89	3.9190	3.9190	0.9723	7.47	1.48	0.750			
0.3178	20339.40	3.9160	3.9158	0.9796	7.46	1.47	0.750			
0.3207	20525.26	3.9130	3.9131	0.9823	7.45	1.46	0.750			
0.3237	20715.33	3.9100	3.9100	0.9958	7.44	1.45	0.750			
0.3267	20907.68	3.9070	3.9071	1.0120	7.42	1.43	0.750			
0.3297	21102.26	3.9040	3.9037	1.0215	7.41	1.42	0.750			
0.3328	21301.02	3.9010	3.9011	1.0297	7.40	1.41	0.750			
0.3359	21500.59	3.8980	3.8981	1.0424	7.38	1.39	0.750			
0.3391	21701.38	3.8950	3.8951	1.0548	7.37	1.38	0.750			
0.3423	21905.70	3.8920	3.8918	1.0676	7.35	1.36	0.750			
0.3454	22108.28	3.8890	3.8891	1.0786	7.34	1.35	0.750			
0.3487	22317.68	3.8860	3.8860	1.0908	7.33	1.34	0.750			
0.3520	22530.51	3.8830	3.8830	1.1114	7.32	1.33	0.750			
0.3555	22752.29	3.8800	3.8798	1.1049	7.31	1.32	0.750			
0.3588	22961.12	3.8770	3.8771	1.1123	7.29	1.30	0.750			
0.3621	23173.50	3.8740	3.8740	1.1212	7.28	1.29	0.750			
0.3654	23385.71	3.8710	3.8712	1.1372	7.26	1.27	0.750			
0.3688	23602.16	3.8680	3.8680	1.1458	7.25	1.26	0.750			
0.3723	23825.09	3.8650	3.8652	1.1743	7.23	1.24	0.750			
0.3758	24054.00	3.8620	3.8620	1.1977	7.21	1.22	0.750			
0.3795	24290.25	3.8590	3.8588	1.2251	7.19	1.20	0.750			
0.3832	24525.37	3.8560	3.8561	1.2375	7.18	1.19	0.750			
0.3870	24765.17	3.8530	3.8530	1.2615	7.16	1.17	0.750			
0.3908	25014.08	3.8500	3.8499	1.2665	7.14	1.15	0.750			
0.3947	25261.00	3.8470	3.8470	1.2817	7.12	1.13	0.750			
0.3984	25500.36	3.8440	3.8441	1.3115	7.10	1.11	0.750			
0.4024	25754.54	3.8410	3.8411	1.3410	7.08	1.09	0.750			
0.4064	26011.67	3.8380	3.8378	1.3805	7.07	1.08	0.750	0.361	0.867	
0.4106	26280.28	3.8350	3.8352	1.4249	7.05	1.06	0.750			
0.4151	26563.43	3.8320	3.8321	1.4499	7.04	1.05	0.750			
0.4195	26848.17	3.8290	3.8291	1.4756	7.02	1.03	0.750			
0.4239	27129.37	3.8260	3.8261	1.4734	6.99	1.00	0.750			
0.4283	27413.01	3.8230	3.8231	1.5058	6.96	0.97	0.750			
0.4329	27706.34	3.8200	3.8200	1.5203	6.94	0.95	0.750			
0.4374	27996.30	3.8170	3.8168	1.5602	6.92	0.93	0.750			
0.4423	28307.10	3.8140	3.8140	1.5820	6.89	0.90	0.750			
0.4470	28610.90	3.8110	3.8111	1.6113	6.87	0.88	0.750			
0.4519	28923.07	3.8080	3.8080	1.6404	6.85	0.86	0.750			
0.4569	29242.35	3.8050	3.8051	1.6711	6.82	0.83	0.750			
0.4621	29571.21	3.8020	3.8023	1.7198	6.80	0.81	0.750			
0.4672	29903.10	3.7990	3.7991	1.7165	6.77	0.78	0.750			
0.4725	30239.70	3.7960	3.7959	1.7654	6.75	0.76	0.750			
0.4778	30581.52	3.7930	3.7930	1.7702	6.72	0.73	0.750			
0.4832	30922.20	3.7900	3.7900	1.8242	6.70	0.71	0.750			
0.4887	31279.54	3.7870	3.7870	1.8648	6.67	0.68	0.750			
0.4943	31637.93	3.7840	3.7839	1.9011	6.64	0.65	0.750			
0.5000	31998.81	3.7810	3.7807	1.9163	6.61	0.62	0.750			
0.5059	32375.56	3.7780	3.7777	1.9332	6.58	0.59	0.750			
0.5118	32755.95	3.7750	3.7747	1.9270	6.55	0.56	0.750			
0.5176	33123.65	3.7720	3.7719	1.9412	6.53	0.54	0.750			
0.5235	33500.86	3.7690	3.7691	1.9464	6.50	0.51	0.750			
0.5293	33877.37	3.7660	3.7660	1.9640	6.48	0.49	0.750			
0.5353	34261.63	3.7630	3.7630	2.0229	6.44	0.45	0.750			
0.5415	34655.62	3.7600	3.7601	2.0794	6.40	0.41	0.750			
0.5477	35054.59	3.7570	3.7569	2.0597	6.37	0.38	0.750			
0.5540	35455.41	3.7540	3.7540	2.0719	6.35	0.36	0.750			
0.5602	35853.51	3.7510	3.7507	2.0887	6.33	0.34	0.750			
0.5665	36253.77	3.7480	3.7480	2.1856	6.30	0.31	0.750			
0.5732	36682.64	3.7450	3.7449	2.2551	6.26	0.27	0.750			
0.5799	37112.76	3.7420	3.7424	2.2957	6.23	0.24	0.750			
0.5869	37564.63	3.7390	3.7389	2.3801	6.21	0.22	0.750			
0.5942	38025.71	3.7360	3.7360	2.3770	6.19	0.20	0.750			
0.6014	38488.31	3.7330	3.7332	2.4679	6.16	0.17	0.750			
0.6089	38968.42	3.7300	3.7301	2.4687	6.14	0.15	0.750			
0.6163	39446.35	3.7270	3.7271	2.4440	6.11	0.12	0.750			
0.6237	39914.14	3.7240	3.7239	2.4633	6.09	0.10	0.750			
0.6310	40386.20	3.7210	3.7209	2.4653	6.06	0.07	0.750			
0.6389	40887.82	3.7180	3.7180	2.4567	6.04	0.05	0.750			
0.6460	41345.91	3.7150	3.7151	2.2705	6.02	0.03	0.750			
0.6523	41749.47	3.7120	3.7118	1.9973	6.00	0.01	0.750			
0.6580	42111.15	3.7090	3.7088	1.7653	5.99	-0.00	0.750			
0.6627	42412.06	3.7060	3.7062	1.5246	5.98	-0.01	0.750			
0.6669	42681.03	3.7030	3.7031	1.3855	5.97	-0.02	0.750			
0.6709	42937.68	3.7000	3.6999	1.2604	5.97	-0.02	0.750			
0.6744	43158.53	3.6970	3.6967	1.1366	5.97	-0.02	0.750			
0.6775	43358.38	3.6940	3.6942	1.0541	5.97	-0.02	0.750			
0.6806	43556.81	3.6910	3.6909	0.9982	5.97	-0.02	0.750			
0.6834	43739.07	3.6880	3.6878	0.9449	5.97	-0.02	0.750			
0.6861	43912.70	3.6850	3.6849	0.9012	5.96	-0.03	0.750			
0.6887	44074.13	3.6820	3.6821	0.8586	5.96	-0.03	0.750			
0.6913	44241.35	3.6790	3.6790	0.8421	5.95	-0.04	0.750			
0.6937	44398.88	3.6760	3.6760	0.8125	5.95	-0.04	0.750			
0.6961	44552.40	3.6730	3.6730	0.7786	5.96	-0.03	0.750			
0.6985	44701.01	3.6700	3.6701	0.7462	5.96	-0.03	0.750			
0.7006	44840.92	3.6670	3.6670	0.7162	5.96	-0.03	0.750			
0.7027	44974.69	3.6640	3.6639	0.6850	5.97	-0.02	0.750			
0.7047	45102.83	3.6610	3.6609	0.6505	5.97	-0.02	0.750			
0.7066	45224.75	3.6580	3.6582	0.6146	5.97	-0.02	0.750			
0.7084	45340.78	3.6550	3.6550	0.5803	5.97	-0.02	0.750			
0.7102	45449.98	3.6520	3.6521	0.5452	5.98	-0.01	0.750			
0.7117	45550.81	3.6490	3.6489	0.5082	5.98	-0.01	0.750			
0.7132	45643.38	3.6460	3.6461	0.4701	5.98	-0.01	0.750			
0.7145	45729.43	3.6430	3.6429	0.4331	5.98	-0.01	0.750			
0.7158	45809.78	3.6400	3.6400	0.4012	5.99	-0.00	0.750			
0.7169	45883.74	3.6370	3.6370	0.3674	5.99	-0.00	0.750			
0.7180	45950.52	3.6340	3.6338	0.3340	5.99	0.00	0.750			
0.7189	46011.15	3.6310	3.6310	0.2999	5.99	0.00	0.750			
0.7198	46067.09	3.6280	3.6279	0.2632	5.99	0.00	0.750			
0.7205	46114.74	3.6250	3.6249	0.2288	5.99	0.00	0.750			
0.7212	46155.80	3.6220	3.6220	0.1922	6.00	0.01	0.750			
0.7217	46189.75	3.6190	3.6191	0.1540	6.00	0.01	0.750			
0.7221	46216.49	3.6160	3.6162	0.1139	6.00	0.01	0.750			
0.7224	46234.22	3.6130	3.6134	0.0707	6.00	0.01	0.750			
0.7226	46244.39	3.6100	3.6100	0.0252	6.00	0.01	0.750			
0.7226	46244.88	3.6070	3.6098	-0.0201	6.00	0.01	0.750			
