Ah_balance (normalized)	Ah_balance (mAh)	Voltage - fit (V)	Voltage -  interpolate (V)	dQ/dV (1/V)	Temperature (°C)	Temperature - diff (°C)	Current (C)	R_DC 0ms (mOhm)	R_DC 50ms (mOhm)	R_DC 50 ms PEC (mOhm)
0.1769	11322.49	4.0820	4.0820	0.7553	7.54	1.55	0.750			
0.1792	11469.20	4.0790	4.0790	0.7695	7.54	1.55	0.750			
0.1815	11617.95	4.0760	4.0761	0.7749	7.53	1.54	0.750			
0.1839	11767.99	4.0730	4.0730	0.7698	7.53	1.54	0.750			
0.1862	11916.30	4.0700	4.0700	0.7719	7.52	1.53	0.750			
0.1885	12061.95	4.0670	4.0671	0.7640	7.51	1.52	0.750			
0.1907	12206.84	4.0640	4.0641	0.7690	7.51	1.52	0.750			
0.1930	12352.90	4.0610	4.0610	0.7731	7.50	1.51	0.750			
0.1954	12503.59	4.0580	4.0580	0.7759	7.49	1.50	0.750			
0.1977	12653.43	4.0550	4.0551	0.7845	7.49	1.50	0.750			
0.2001	12803.97	4.0520	4.0521	0.7905	7.48	1.49	0.750			
0.2024	12956.79	4.0490	4.0488	0.8000	7.47	1.48	0.750			
0.2049	13110.87	4.0460	4.0460	0.8050	7.47	1.48	0.750			
0.2073	13267.01	4.0430	4.0429	0.8004	7.46	1.47	0.750			
0.2097	13423.25	4.0400	4.0401	0.8051	7.46	1.47	0.750			
0.2122	13577.84	4.0370	4.0371	0.8082	7.45	1.46	0.750			
0.2145	13729.67	4.0340	4.0339	0.8063	7.45	1.46	0.750			
0.2169	13884.66	4.0310	4.0310	0.8089	7.45	1.46	0.750			
0.2194	14039.38	4.0280	4.0280	0.8077	7.44	1.45	0.750			
0.2218	14195.23	4.0250	4.0251	0.8117	7.44	1.45	0.750			
0.2243	14353.79	4.0220	4.0220	0.8213	7.44	1.45	0.750			
0.2267	14509.27	4.0190	4.0190	0.8194	7.43	1.44	0.750			
0.2292	14666.62	4.0160	4.0159	0.8249	7.43	1.44	0.750			
0.2317	14826.28	4.0130	4.0130	0.8212	7.42	1.43	0.750			
0.2341	14984.78	4.0100	4.0100	0.8310	7.41	1.42	0.750			
0.2367	15146.19	4.0070	4.0070	0.8373	7.41	1.42	0.750			
0.2392	15305.80	4.0040	4.0040	0.8366	7.40	1.41	0.750			
0.2417	15466.33	4.0010	4.0011	0.8401	7.40	1.41	0.750			
0.2442	15629.03	3.9980	3.9981	0.8402	7.39	1.40	0.750			
0.2467	15790.00	3.9950	3.9950	0.8462	7.38	1.39	0.750			
0.2493	15952.67	3.9920	3.9920	0.8559	7.38	1.39	0.750			
0.2518	16116.08	3.9890	3.9890	0.8583	7.37	1.38	0.750			
0.2544	16282.01	3.9860	3.9860	0.8617	7.37	1.38	0.750			
0.2570	16448.15	3.9830	3.9830	0.8674	7.36	1.37	0.750			
0.2596	16615.39	3.9800	3.9801	0.8729	7.36	1.37	0.750			
0.2623	16784.58	3.9770	3.9770	0.8697	7.35	1.36	0.750			
0.2649	16950.94	3.9740	3.9736	0.8711	7.35	1.36	0.750			
0.2675	17118.13	3.9710	3.9713	0.8753	7.34	1.35	0.750			
0.2701	17286.79	3.9680	3.9680	0.8805	7.33	1.34	0.750			
0.2727	17455.86	3.9650	3.9649	0.8862	7.33	1.34	0.750			
0.2754	17626.36	3.9620	3.9620	0.8913	7.32	1.33	0.750			
0.2781	17797.73	3.9590	3.9590	0.8956	7.31	1.32	0.750			
0.2808	17973.08	3.9560	3.9559	0.8950	7.31	1.32	0.750			
0.2835	18142.24	3.9530	3.9531	0.9032	7.30	1.31	0.750			
0.2862	18315.35	3.9500	3.9501	0.9122	7.30	1.31	0.750			
0.2889	18491.78	3.9470	3.9469	0.9151	7.29	1.30	0.750			
0.2917	18667.02	3.9440	3.9441	0.9257	7.29	1.30	0.750			
0.2945	18847.25	3.9410	3.9411	0.9235	7.28	1.29	0.750			
0.2973	19024.37	3.9380	3.9380	0.9293	7.27	1.28	0.750			
0.3001	19204.41	3.9350	3.9350	0.9351	7.26	1.27	0.750			
0.3028	19380.76	3.9320	3.9317	0.9375	7.25	1.26	0.750			
0.3057	19562.26	3.9290	3.9290	0.9407	7.24	1.25	0.750			
0.3085	19743.81	3.9260	3.9261	0.9598	7.23	1.24	0.750			
0.3114	19928.10	3.9230	3.9231	0.9717	7.22	1.23	0.750			
0.3143	20118.32	3.9200	3.9198	0.9813	7.21	1.22	0.750			
0.3173	20308.97	3.9170	3.9171	0.9834	7.21	1.22	0.750			
0.3203	20498.60	3.9140	3.9141	0.9925	7.20	1.21	0.750			
0.3233	20689.59	3.9110	3.9111	1.0002	7.20	1.21	0.750			
0.3263	20881.34	3.9080	3.9080	1.0007	7.19	1.20	0.750			
0.3293	21077.63	3.9050	3.9049	1.0034	7.18	1.19	0.750			
0.3323	21266.74	3.9020	3.9021	1.0242	7.18	1.19	0.750			
0.3354	21464.30	3.8990	3.8990	1.0472	7.17	1.18	0.750			
0.3386	21668.51	3.8960	3.8961	1.0677	7.16	1.17	0.750			
0.3418	21877.06	3.8930	3.8930	1.0654	7.14	1.15	0.750			
0.3451	22083.20	3.8900	3.8901	1.0819	7.13	1.14	0.750			
0.3483	22293.72	3.8870	3.8871	1.0930	7.12	1.13	0.750			
0.3516	22503.17	3.8840	3.8840	1.1052	7.11	1.12	0.750			
0.3549	22712.27	3.8810	3.8811	1.1003	7.10	1.11	0.750			
0.3582	22923.13	3.8780	3.8780	1.1235	7.09	1.10	0.750			
0.3616	23142.03	3.8750	3.8751	1.1475	7.08	1.09	0.750			
0.3652	23372.05	3.8720	3.8715	1.1552	7.07	1.08	0.750			
0.3686	23591.33	3.8690	3.8692	1.1663	7.06	1.07	0.750			
0.3721	23815.50	3.8660	3.8661	1.1901	7.06	1.07	0.750			
0.3757	24044.70	3.8630	3.8630	1.1997	7.05	1.06	0.750			
0.3793	24275.76	3.8600	3.8600	1.1988	7.04	1.05	0.750			
0.3829	24507.11	3.8570	3.8573	1.2151	7.03	1.04	0.750			
0.3866	24743.91	3.8540	3.8541	1.2388	7.01	1.02	0.750			
0.3904	24984.57	3.8510	3.8506	1.2563	6.99	1.00	0.750			
0.3940	25213.99	3.8480	3.8481	1.2644	6.98	0.99	0.750			
0.3978	25457.96	3.8450	3.8452	1.3033	6.97	0.98	0.750			
0.4018	25717.76	3.8420	3.8416	1.3316	6.95	0.96	0.750			
0.4059	25977.07	3.8390	3.8391	1.3750	6.94	0.95	0.750	0.394	0.898	
0.4101	26244.13	3.8360	3.8363	1.4035	6.93	0.94	0.750			
0.4144	26518.96	3.8330	3.8328	1.4237	6.91	0.92	0.750			
0.4189	26806.77	3.8300	3.8301	1.4380	6.90	0.91	0.750			
0.4230	27069.95	3.8270	3.8271	1.4334	6.89	0.90	0.750			
0.4273	27344.43	3.8240	3.8240	1.4802	6.87	0.88	0.750			
0.4317	27629.76	3.8210	3.8212	1.5041	6.86	0.87	0.750			
0.4363	27921.52	3.8180	3.8178	1.5536	6.84	0.85	0.750			
0.4410	28224.82	3.8150	3.8154	1.5837	6.83	0.84	0.750			
0.4459	28534.42	3.8120	3.8120	1.6153	6.80	0.81	0.750			
0.4509	28854.96	3.8090	3.8090	1.6402	6.78	0.79	0.750			
0.4557	29163.61	3.8060	3.8061	1.6726	6.76	0.77	0.750			
0.4607	29486.47	3.8030	3.8030	1.6748	6.74	0.75	0.750			
0.4658	29810.73	3.8000	3.8001	1.7358	6.73	0.74	0.750			
0.4711	30147.91	3.7970	3.7971	1.7503	6.71	0.72	0.750			
0.4764	30486.54	3.7940	3.7940	1.7706	6.69	0.70	0.750			
0.4818	30834.18	3.7910	3.7912	1.7764	6.67	0.68	0.750			
0.4871	31172.71	3.7880	3.7882	1.8134	6.65	0.66	0.750			
0.4925	31521.13	3.7850	3.7852	1.8533	6.62	0.63	0.750			
0.4982	31884.00	3.7820	3.7819	1.8782	6.60	0.61	0.750			
0.5039	32251.43	3.7790	3.7792	1.8913	6.59	0.60	0.750			
0.5096	32615.97	3.7760	3.7762	1.9336	6.57	0.58	0.750			
0.5155	32991.75	3.7730	3.7733	1.9298	6.55	0.56	0.750			
0.5212	33359.87	3.7700	3.7701	1.9660	6.52	0.53	0.750			
0.5273	33747.42	3.7670	3.7670	1.9918	6.49	0.50	0.750			
0.5333	34128.01	3.7640	3.7640	2.0185	6.47	0.48	0.750			
0.5392	34508.23	3.7610	3.7611	2.0518	6.45	0.46	0.750			
0.5455	34911.12	3.7580	3.7579	2.0575	6.43	0.44	0.750			
0.5519	35320.53	3.7550	3.7549	2.0549	6.41	0.42	0.750			
0.5583	35730.26	3.7520	3.7519	2.1392	6.38	0.39	0.750			
0.5646	36131.64	3.7490	3.7488	2.1304	6.35	0.36	0.750			
0.5709	36534.76	3.7460	3.7463	2.1673	6.33	0.34	0.750			
0.5775	36958.45	3.7430	3.7430	2.2322	6.30	0.31	0.750			
0.5845	37407.35	3.7400	3.7399	2.3036	6.27	0.28	0.750			
0.5915	37854.45	3.7370	3.7370	2.3884	6.25	0.26	0.750			
0.5987	38315.50	3.7340	3.7339	2.4674	6.22	0.23	0.750			
0.6064	38807.43	3.7310	3.7311	2.5367	6.19	0.20	0.750			
0.6143	39313.96	3.7280	3.7279	2.5774	6.15	0.16	0.750			
0.6217	39790.06	3.7250	3.7247	2.5035	6.13	0.14	0.750			
0.6291	40263.03	3.7220	3.7219	2.5096	6.11	0.12	0.750			
0.6367	40749.59	3.7190	3.7191	2.4338	6.08	0.09	0.750			
0.6439	41208.02	3.7160	3.7164	2.2853	6.06	0.07	0.750			
0.6504	41622.65	3.7130	3.7131	2.0691	6.04	0.05	0.750			
0.6562	41999.16	3.7100	3.7099	1.8324	6.02	0.03	0.750			
0.6614	42327.29	3.7070	3.7070	1.6637	6.02	0.03	0.750			
0.6661	42628.02	3.7040	3.7036	1.4632	6.01	0.02	0.750			
0.6699	42874.42	3.7010	3.7012	1.3010	6.00	0.01	0.750			
0.6734	43100.72	3.6980	3.6981	1.1783	6.00	0.01	0.750			
0.6768	43313.29	3.6950	3.6949	1.0864	5.99	0.00	0.750			
0.6800	43519.34	3.6920	3.6920	1.0334	5.99	-0.00	0.750			
0.6827	43695.68	3.6890	3.6891	0.9555	5.98	-0.01	0.750			
0.6855	43873.87	3.6860	3.6860	0.9127	5.98	-0.01	0.750			
0.6882	44045.31	3.6830	3.6830	0.8833	5.97	-0.02	0.750			
0.6907	44206.26	3.6800	3.6799	0.8397	5.97	-0.02	0.750			
0.6932	44366.38	3.6770	3.6771	0.8101	5.97	-0.02	0.750			
0.6957	44522.25	3.6740	3.6739	0.7724	5.97	-0.02	0.750			
0.6979	44666.63	3.6710	3.6711	0.7366	5.97	-0.02	0.750			
0.7001	44803.39	3.6680	3.6680	0.6976	5.97	-0.02	0.750			
0.7021	44933.59	3.6650	3.6650	0.6634	5.97	-0.02	0.750			
0.7040	45056.97	3.6620	3.6620	0.6252	5.97	-0.02	0.750			
0.7058	45173.42	3.6590	3.6590	0.5910	5.97	-0.02	0.750			
0.7076	45284.74	3.6560	3.6560	0.5533	5.98	-0.01	0.750			
0.7092	45389.78	3.6530	3.6529	0.5174	5.98	-0.01	0.750			
0.7107	45483.85	3.6500	3.6500	0.4721	5.98	-0.01	0.750			
0.7120	45570.15	3.6470	3.6470	0.4324	5.98	-0.01	0.750			
0.7132	45647.44	3.6440	3.6441	0.3968	5.99	-0.00	0.750			
0.7144	45720.10	3.6410	3.6410	0.3650	5.99	-0.00	0.750			
0.7154	45785.13	3.6380	3.6378	0.3377	5.99	0.00	0.750			
0.7164	45848.29	3.6350	3.6353	0.3093	5.99	0.00	0.750			
0.7173	45910.19	3.6320	3.6316	0.2730	5.99	0.00	0.750			
0.7181	45960.17	3.6290	3.6293	0.2345	5.99	0.00	0.750			
0.7188	46003.29	3.6260	3.6262	0.1918	6.00	0.01	0.750			
0.7193	46037.63	3.6230	3.6226	0.1435	6.00	0.01	0.750			
0.7197	46063.73	3.6200	3.6190	0.0872	6.00	0.01	0.750			
0.7199	46071.91	3.6170	3.6167	0.0331	6.00	0.01	0.750			
0.7199	46073.14	3.6140	3.6162	-0.0203	6.00	0.01	0.750			
