Ah_balance (normalized)	Ah_balance (mAh)	Voltage - fit (V)	Voltage -  interpolate (V)	dQ/dV (1/V)	Temperature (°C)	Temperature - diff (°C)	Current (C)	R_DC 0ms (mOhm)	R_DC 50ms (mOhm)	R_DC 50 ms PEC (mOhm)
0.1861	11912.30	4.0790	4.0789	0.7660	7.07	1.08	0.750			
0.1885	12062.04	4.0760	4.0760	0.7790	7.07	1.08	0.750			
0.1908	12213.51	4.0730	4.0730	0.7797	7.06	1.07	0.750			
0.1932	12362.57	4.0700	4.0700	0.7778	7.06	1.07	0.750			
0.1955	12512.09	4.0670	4.0671	0.7796	7.06	1.07	0.750			
0.1978	12660.76	4.0640	4.0640	0.7801	7.05	1.06	0.750			
0.2001	12809.37	4.0610	4.0609	0.7812	7.05	1.06	0.750			
0.2025	12959.70	4.0580	4.0579	0.7879	7.05	1.06	0.750			
0.2049	13111.89	4.0550	4.0550	0.7917	7.04	1.05	0.750			
0.2073	13264.46	4.0520	4.0520	0.7949	7.04	1.05	0.750			
0.2097	13418.39	4.0490	4.0490	0.7956	7.03	1.04	0.750			
0.2120	13570.54	4.0460	4.0460	0.8006	7.03	1.04	0.750			
0.2144	13723.60	4.0430	4.0430	0.8032	7.03	1.04	0.750			
0.2169	13879.64	4.0400	4.0400	0.7981	7.02	1.03	0.750			
0.2193	14032.75	4.0370	4.0370	0.8029	7.02	1.03	0.750			
0.2217	14186.51	4.0340	4.0342	0.8094	7.01	1.02	0.750			
0.2241	14342.16	4.0310	4.0308	0.8142	7.01	1.02	0.750			
0.2266	14499.52	4.0280	4.0280	0.8165	7.01	1.02	0.750			
0.2290	14657.17	4.0250	4.0250	0.8109	7.00	1.01	0.750			
0.2314	14811.79	4.0220	4.0221	0.8180	7.00	1.01	0.750			
0.2339	14970.83	4.0190	4.0190	0.8258	7.00	1.01	0.750			
0.2364	15127.11	4.0160	4.0159	0.8290	6.99	1.00	0.750			
0.2389	15286.75	4.0130	4.0131	0.8303	6.99	1.00	0.750			
0.2414	15448.32	4.0100	4.0100	0.8319	6.98	0.99	0.750			
0.2439	15608.21	4.0070	4.0071	0.8399	6.97	0.98	0.750			
0.2464	15770.18	4.0040	4.0041	0.8374	6.97	0.98	0.750			
0.2489	15930.23	4.0010	4.0009	0.8405	6.96	0.97	0.750			
0.2514	16092.10	3.9980	3.9980	0.8456	6.96	0.97	0.750			
0.2540	16254.65	3.9950	3.9951	0.8450	6.95	0.96	0.750			
0.2565	16417.24	3.9920	3.9920	0.8541	6.94	0.95	0.750			
0.2591	16581.79	3.9890	3.9891	0.8557	6.94	0.95	0.750			
0.2617	16746.43	3.9860	3.9858	0.8606	6.93	0.94	0.750			
0.2643	16913.44	3.9830	3.9830	0.8667	6.93	0.94	0.750			
0.2669	17079.57	3.9800	3.9801	0.8693	6.92	0.93	0.750			
0.2695	17247.14	3.9770	3.9770	0.8768	6.92	0.93	0.750			
0.2721	17414.69	3.9740	3.9740	0.8771	6.91	0.92	0.750			
0.2748	17584.43	3.9710	3.9710	0.8844	6.91	0.92	0.750			
0.2775	17756.87	3.9680	3.9681	0.8865	6.91	0.92	0.750			
0.2801	17926.94	3.9650	3.9649	0.8905	6.90	0.91	0.750			
0.2828	18098.59	3.9620	3.9620	0.8932	6.90	0.91	0.750			
0.2855	18268.92	3.9590	3.9591	0.8889	6.89	0.90	0.750			
0.2881	18438.29	3.9560	3.9560	0.8947	6.89	0.90	0.750			
0.2908	18613.35	3.9530	3.9529	0.8919	6.88	0.89	0.750			
0.2935	18782.26	3.9500	3.9501	0.9051	6.88	0.89	0.750			
0.2962	18956.73	3.9470	3.9470	0.9157	6.88	0.89	0.750			
0.2990	19133.57	3.9440	3.9439	0.9190	6.87	0.88	0.750			
0.3018	19313.74	3.9410	3.9410	0.9202	6.86	0.87	0.750			
0.3045	19489.78	3.9380	3.9382	0.9324	6.86	0.87	0.750			
0.3073	19668.01	3.9350	3.9351	0.9407	6.85	0.86	0.750			
0.3102	19850.21	3.9320	3.9320	0.9536	6.84	0.85	0.750			
0.3130	20030.21	3.9290	3.9290	0.9535	6.84	0.85	0.750			
0.3159	20215.27	3.9260	3.9261	0.9621	6.83	0.84	0.750			
0.3188	20404.55	3.9230	3.9230	0.9734	6.82	0.83	0.750			
0.3217	20591.50	3.9200	3.9200	0.9763	6.82	0.83	0.750			
0.3246	20777.06	3.9170	3.9168	0.9790	6.81	0.82	0.750			
0.3276	20965.00	3.9140	3.9142	0.9839	6.80	0.81	0.750			
0.3305	21154.53	3.9110	3.9110	0.9954	6.79	0.80	0.750			
0.3335	21345.88	3.9080	3.9080	1.0125	6.78	0.79	0.750			
0.3366	21540.91	3.9050	3.9048	1.0199	6.77	0.78	0.750			
0.3397	21741.29	3.9020	3.9020	1.0277	6.77	0.78	0.750			
0.3428	21938.21	3.8990	3.8990	1.0360	6.76	0.77	0.750			
0.3459	22136.80	3.8960	3.8962	1.0486	6.76	0.77	0.750			
0.3491	22339.95	3.8930	3.8927	1.0644	6.75	0.76	0.750			
0.3522	22541.97	3.8900	3.8900	1.0751	6.75	0.76	0.750			
0.3555	22751.73	3.8870	3.8871	1.0846	6.74	0.75	0.750			
0.3588	22964.55	3.8840	3.8840	1.1034	6.74	0.75	0.750			
0.3622	23179.63	3.8810	3.8809	1.1086	6.73	0.74	0.750			
0.3654	23387.66	3.8780	3.8780	1.1221	6.72	0.73	0.750			
0.3688	23603.90	3.8750	3.8749	1.1381	6.71	0.72	0.750			
0.3723	23824.36	3.8720	3.8720	1.1517	6.70	0.71	0.750			
0.3757	24046.48	3.8690	3.8693	1.1653	6.69	0.70	0.750			
0.3793	24273.39	3.8660	3.8661	1.1914	6.68	0.69	0.750			
0.3829	24504.63	3.8630	3.8630	1.2030	6.66	0.67	0.750			
0.3865	24736.81	3.8600	3.8598	1.2185	6.65	0.66	0.750			
0.3902	24971.02	3.8570	3.8571	1.2297	6.64	0.65	0.750			
0.3939	25209.25	3.8540	3.8541	1.2519	6.63	0.64	0.750			
0.3977	25455.36	3.8510	3.8509	1.2637	6.62	0.63	0.750			
0.4015	25693.42	3.8480	3.8480	1.2906	6.61	0.62	0.750			
0.4053	25937.57	3.8450	3.8451	1.3189	6.60	0.61	0.750			
0.4094	26199.80	3.8420	3.8420	1.3452	6.58	0.59	0.750			
0.4135	26462.59	3.8390	3.8390	1.3701	6.57	0.58	0.750	0.410	0.957	
0.4176	26727.77	3.8360	3.8362	1.4049	6.55	0.56	0.750			
0.4219	27003.34	3.8330	3.8332	1.4268	6.54	0.55	0.750			
0.4263	27282.09	3.8300	3.8301	1.4588	6.53	0.54	0.750			
0.4305	27554.43	3.8270	3.8271	1.4733	6.52	0.53	0.750			
0.4351	27844.87	3.8240	3.8241	1.4997	6.51	0.52	0.750			
0.4396	28135.42	3.8210	3.8211	1.5201	6.50	0.51	0.750			
0.4442	28430.00	3.8180	3.8181	1.5630	6.48	0.49	0.750			
0.4489	28728.01	3.8150	3.8150	1.5868	6.46	0.47	0.750			
0.4537	29038.32	3.8120	3.8122	1.6087	6.45	0.46	0.750			
0.4586	29348.65	3.8090	3.8092	1.6615	6.44	0.45	0.750			
0.4637	29675.08	3.8060	3.8061	1.6699	6.43	0.44	0.750			
0.4687	29994.53	3.8030	3.8028	1.7006	6.41	0.42	0.750			
0.4739	30327.28	3.8000	3.7998	1.7308	6.39	0.40	0.750			
0.4791	30661.09	3.7970	3.7969	1.7845	6.37	0.38	0.750			
0.4846	31011.38	3.7940	3.7942	1.8141	6.34	0.35	0.750			
0.4902	31374.46	3.7910	3.7908	1.8740	6.33	0.34	0.750			
0.4957	31727.45	3.7880	3.7878	1.8111	6.32	0.33	0.750			
0.5009	32059.64	3.7850	3.7858	1.8234	6.31	0.32	0.750			
0.5064	32407.73	3.7820	3.7822	1.8692	6.29	0.30	0.750			
0.5119	32763.75	3.7790	3.7804	1.9096	6.27	0.28	0.750			
0.5176	33129.32	3.7760	3.7772	2.0260	6.26	0.27	0.750			
0.5241	33541.83	3.7730	3.7736	2.1623	6.24	0.25	0.750			
0.5307	33966.57	3.7700	3.7715	2.2635	6.22	0.23	0.750			
0.5378	34421.52	3.7670	3.7680	2.3347	6.19	0.20	0.750			
0.5448	34870.26	3.7640	3.7643	2.2435	6.17	0.18	0.750			
0.5513	35283.03	3.7610	3.7611	2.1019	6.15	0.16	0.750			
0.5571	35657.27	3.7580	3.7577	2.0436	6.14	0.15	0.750			
0.5634	36054.78	3.7550	3.7551	2.1152	6.13	0.14	0.750			
0.5698	36466.05	3.7520	3.7520	2.1918	6.11	0.12	0.750			
0.5765	36895.89	3.7490	3.7491	2.2439	6.08	0.09	0.750			
0.5834	37336.57	3.7460	3.7460	2.3090	6.05	0.06	0.750			
0.5904	37785.09	3.7430	3.7429	2.3355	6.03	0.04	0.750			
0.5975	38237.05	3.7400	3.7400	2.4232	6.02	0.03	0.750			
0.6049	38710.81	3.7370	3.7369	2.4877	6.00	0.01	0.750			
0.6124	39194.08	3.7340	3.7342	2.5546	5.99	-0.00	0.750			
0.6203	39700.08	3.7310	3.7310	2.6057	5.96	-0.03	0.750			
0.6280	40194.86	3.7280	3.7280	2.5499	5.95	-0.04	0.750			
0.6358	40690.04	3.7250	3.7250	2.5150	5.95	-0.04	0.750			
0.6431	41159.24	3.7220	3.7219	2.3990	5.94	-0.05	0.750			
0.6502	41611.93	3.7190	3.7190	2.3060	5.93	-0.06	0.750			
0.6570	42047.17	3.7160	3.7160	2.1826	5.92	-0.07	0.750			
0.6634	42454.53	3.7130	3.7132	2.0020	5.91	-0.08	0.750			
0.6692	42827.78	3.7100	3.7101	1.8185	5.91	-0.08	0.750			
0.6743	43154.04	3.7070	3.7069	1.6072	5.91	-0.08	0.750			
0.6788	43440.81	3.7040	3.7044	1.4272	5.91	-0.08	0.750			
0.6826	43687.63	3.7010	3.7011	1.2775	5.91	-0.08	0.750			
0.6861	43909.40	3.6980	3.6978	1.1463	5.91	-0.08	0.750			
0.6893	44114.25	3.6950	3.6950	1.0496	5.91	-0.08	0.750			
0.6922	44299.57	3.6920	3.6920	0.9715	5.92	-0.07	0.750			
0.6950	44478.60	3.6890	3.6890	0.9153	5.92	-0.07	0.750			
0.6976	44647.74	3.6860	3.6860	0.8756	5.93	-0.06	0.750			
0.7001	44806.31	3.6830	3.6830	0.8334	5.93	-0.06	0.750			
0.7026	44964.22	3.6800	3.6800	0.8006	5.93	-0.06	0.750			
0.7049	45116.03	3.6770	3.6770	0.7673	5.93	-0.06	0.750			
0.7072	45261.36	3.6740	3.6741	0.7347	5.94	-0.05	0.750			
0.7094	45399.87	3.6710	3.6711	0.6962	5.94	-0.05	0.750			
0.7114	45531.69	3.6680	3.6678	0.6539	5.94	-0.05	0.750			
0.7133	45652.22	3.6650	3.6650	0.6101	5.94	-0.05	0.750			
0.7151	45764.01	3.6620	3.6621	0.5667	5.95	-0.04	0.750			
0.7167	45869.60	3.6590	3.6591	0.5290	5.96	-0.03	0.750			
0.7182	45967.02	3.6560	3.6559	0.4891	5.96	-0.03	0.750			
0.7196	46055.31	3.6530	3.6530	0.4485	5.97	-0.02	0.750			
0.7209	46138.86	3.6500	3.6500	0.4115	5.98	-0.01	0.750			
0.7221	46215.53	3.6470	3.6469	0.3780	5.98	-0.01	0.750			
0.7232	46283.00	3.6440	3.6440	0.3407	5.98	-0.01	0.750			
0.7241	46344.36	3.6410	3.6411	0.3048	5.99	-0.00	0.750			
0.7250	46399.34	3.6380	3.6380	0.2709	5.99	0.00	0.750			
0.7258	46449.23	3.6350	3.6350	0.2346	5.99	0.00	0.750			
0.7264	46491.10	3.6320	3.6320	0.1991	6.00	0.01	0.750			
0.7270	46526.52	3.6290	3.6291	0.1631	6.00	0.01	0.750			
0.7274	46555.32	3.6260	3.6262	0.1249	6.00	0.01	0.750			
0.7277	46575.55	3.6230	3.6235	0.0852	6.00	0.01	0.750			
0.7280	46589.03	3.6200	3.6208	0.0427	6.00	0.01	0.750			
0.7280	46593.15	3.6170	3.6196	0.0002	6.00	0.01	0.750			
