Ah_balance (normalized)	Ah_balance (mAh)	Voltage - fit (V)	Voltage -  interpolate (V)	dQ/dV (1/V)	Temperature (°C)	Temperature - diff (°C)	Current (C)	R_DC 0ms (mOhm)	R_DC 50ms (mOhm)	R_DC 50 ms PEC (mOhm)
0.0940	6012.81	4.0070	4.0068	-0.0449	5.98	0.02	-0.750			
0.0942	6026.96	4.0040	4.0039	-0.0906	5.98	0.02	-0.750			
0.0945	6048.91	4.0010	4.0007	-0.1247	5.98	0.02	-0.750			
0.0949	6076.29	3.9980	3.9981	-0.1541	5.98	0.02	-0.750			
0.0955	6109.07	3.9950	3.9950	-0.1815	5.98	0.02	-0.750			
0.0960	6146.83	3.9920	3.9921	-0.2068	5.98	0.02	-0.750			
0.0967	6190.92	3.9890	3.9890	-0.2318	5.97	0.01	-0.750			
0.0975	6237.58	3.9860	3.9860	-0.2529	5.97	0.01	-0.750			
0.0982	6287.56	3.9830	3.9831	-0.2766	5.97	0.01	-0.750			
0.0991	6342.92	3.9800	3.9800	-0.2982	5.97	0.01	-0.750			
0.1000	6401.89	3.9770	3.9770	-0.3239	5.97	0.01	-0.750			
0.1010	6465.58	3.9740	3.9740	-0.3501	5.97	0.01	-0.750			
0.1021	6535.25	3.9710	3.9711	-0.3764	5.97	0.01	-0.750			
0.1033	6610.33	3.9680	3.9680	-0.4029	5.96	0.00	-0.750			
0.1045	6690.60	3.9650	3.9650	-0.4301	5.96	0.00	-0.750			
0.1059	6776.91	3.9620	3.9621	-0.4503	5.96	-0.00	-0.750			
0.1073	6869.68	3.9590	3.9588	-0.4645	5.96	-0.00	-0.750			
0.1088	6960.44	3.9560	3.9560	-0.4681	5.96	-0.00	-0.750			
0.1102	7049.77	3.9530	3.9532	-0.4808	5.95	-0.01	-0.750			
0.1116	7140.46	3.9500	3.9503	-0.4961	5.95	-0.01	-0.750			
0.1130	7234.85	3.9470	3.9467	-0.5190	5.95	-0.01	-0.750			
0.1146	7333.90	3.9440	3.9439	-0.5405	5.95	-0.01	-0.750			
0.1163	7442.75	3.9410	3.9411	-0.5694	5.94	-0.02	-0.750			
0.1181	7556.29	3.9380	3.9380	-0.5966	5.94	-0.02	-0.750			
0.1200	7677.18	3.9350	3.9349	-0.6204	5.94	-0.02	-0.750			
0.1218	7797.04	3.9320	3.9320	-0.6383	5.94	-0.02	-0.750			
0.1237	7919.03	3.9290	3.9290	-0.6569	5.94	-0.02	-0.750			
0.1258	8049.22	3.9260	3.9260	-0.6683	5.93	-0.03	-0.750			
0.1278	8181.28	3.9230	3.9229	-0.6800	5.93	-0.03	-0.750			
0.1299	8312.83	3.9200	3.9200	-0.6851	5.93	-0.03	-0.750			
0.1320	8445.91	3.9170	3.9168	-0.6900	5.93	-0.03	-0.750			
0.1340	8577.87	3.9140	3.9140	-0.6954	5.93	-0.03	-0.750			
0.1361	8709.42	3.9110	3.9109	-0.7002	5.93	-0.03	-0.750			
0.1382	8844.38	3.9080	3.9081	-0.7093	5.93	-0.03	-0.750			
0.1404	8984.07	3.9050	3.9050	-0.7217	5.93	-0.03	-0.750			
0.1426	9123.34	3.9020	3.9020	-0.7286	5.93	-0.03	-0.750			
0.1448	9264.29	3.8990	3.8990	-0.7345	5.93	-0.03	-0.750			
0.1470	9406.48	3.8960	3.8960	-0.7371	5.93	-0.03	-0.750			
0.1492	9548.29	3.8930	3.8930	-0.7400	5.93	-0.03	-0.750			
0.1514	9690.34	3.8900	3.8900	-0.7414	5.93	-0.03	-0.750			
0.1536	9833.20	3.8870	3.8869	-0.7428	5.93	-0.03	-0.750			
0.1559	9975.99	3.8840	3.8842	-0.7455	5.93	-0.03	-0.750			
0.1581	10118.92	3.8810	3.8810	-0.7473	5.93	-0.03	-0.750			
0.1603	10261.46	3.8780	3.8780	-0.7541	5.94	-0.02	-0.750			
0.1626	10407.61	3.8750	3.8749	-0.7564	5.94	-0.02	-0.750			
0.1649	10553.56	3.8720	3.8720	-0.7615	5.94	-0.02	-0.750			
0.1672	10699.68	3.8690	3.8689	-0.7658	5.95	-0.01	-0.750			
0.1695	10847.52	3.8660	3.8660	-0.7714	5.95	-0.01	-0.750			
0.1718	10995.64	3.8630	3.8629	-0.7746	5.96	-0.00	-0.750			
0.1741	11144.52	3.8600	3.8600	-0.7754	5.96	-0.00	-0.750			
0.1765	11294.27	3.8570	3.8570	-0.7727	5.96	0.00	-0.750			
0.1788	11443.41	3.8540	3.8540	-0.7771	5.97	0.01	-0.750			
0.1811	11592.46	3.8510	3.8512	-0.7770	5.97	0.01	-0.750			
0.1835	11741.01	3.8480	3.8480	-0.7768	5.97	0.01	-0.750			
0.1858	11889.45	3.8450	3.8449	-0.7806	5.98	0.02	-0.750			
0.1881	12039.55	3.8420	3.8421	-0.7864	5.98	0.02	-0.750			
0.1905	12192.97	3.8390	3.8389	-0.7858	5.99	0.03	-0.750			
0.1929	12344.24	3.8360	3.8359	-0.7855	5.99	0.03	-0.750			
0.1952	12492.92	3.8330	3.8331	-0.7884	5.99	0.03	-0.750			
0.1976	12644.70	3.8300	3.8299	-0.7949	6.00	0.04	-0.750			
0.2000	12798.05	3.8270	3.8269	-0.7929	6.00	0.04	-0.750			
0.2024	12950.49	3.8240	3.8240	-0.7916	6.00	0.04	-0.750			
0.2047	13103.97	3.8210	3.8211	-0.7907	6.01	0.05	-0.750			
0.2071	13257.03	3.8180	3.8180	-0.7889	6.01	0.05	-0.750			
0.2095	13405.67	3.8150	3.8150	-0.7859	6.02	0.06	-0.750			
0.2118	13555.45	3.8120	3.8119	-0.7830	6.03	0.07	-0.750			
0.2141	13705.40	3.8090	3.8090	-0.7828	6.04	0.08	-0.750			
0.2165	13856.89	3.8060	3.8059	-0.7872	6.04	0.08	-0.750			
0.2189	14007.91	3.8030	3.8033	-0.7929	6.05	0.09	-0.750			
0.2213	14160.30	3.8000	3.7999	-0.7961	6.06	0.10	-0.750			
0.2237	14313.67	3.7970	3.7970	-0.7962	6.07	0.11	-0.750			
0.2260	14466.29	3.7940	3.7939	-0.8010	6.07	0.11	-0.750			
0.2285	14621.41	3.7910	3.7910	-0.8020	6.08	0.12	-0.750			
0.2309	14775.80	3.7880	3.7882	-0.8062	6.09	0.13	-0.750			
0.2333	14930.37	3.7850	3.7850	-0.8041	6.09	0.13	-0.750			
0.2357	15086.00	3.7820	3.7820	-0.8040	6.10	0.14	-0.750			
0.2382	15241.91	3.7790	3.7790	-0.8027	6.10	0.14	-0.750			
0.2406	15395.68	3.7760	3.7760	-0.8027	6.11	0.15	-0.750			
0.2429	15547.69	3.7730	3.7733	-0.7988	6.11	0.15	-0.750			
0.2454	15702.65	3.7700	3.7698	-0.7979	6.11	0.15	-0.750			
0.2477	15852.79	3.7670	3.7670	-0.7966	6.12	0.16	-0.750			
0.2501	16005.85	3.7640	3.7641	-0.7968	6.12	0.16	-0.750			
0.2525	16157.87	3.7610	3.7611	-0.8022	6.12	0.16	-0.750			
0.2549	16315.05	3.7580	3.7579	-0.8037	6.13	0.17	-0.750			
0.2573	16468.85	3.7550	3.7549	-0.8046	6.13	0.17	-0.750			
0.2597	16622.15	3.7520	3.7521	-0.8116	6.14	0.18	-0.750			
0.2622	16779.86	3.7490	3.7489	-0.8139	6.15	0.19	-0.750			
0.2647	16937.75	3.7460	3.7459	-0.8066	6.16	0.20	-0.750			
0.2671	17092.21	3.7430	3.7429	-0.8130	6.17	0.21	-0.750			
0.2695	17246.36	3.7400	3.7401	-0.8161	6.17	0.21	-0.750			
0.2719	17403.29	3.7370	3.7369	-0.8298	6.18	0.22	-0.750			
0.2744	17563.36	3.7340	3.7339	-0.8261	6.18	0.22	-0.750			
0.2769	17721.75	3.7310	3.7311	-0.8276	6.18	0.22	-0.750			
0.2794	17884.56	3.7280	3.7281	-0.8298	6.19	0.23	-0.750			
0.2820	18046.07	3.7250	3.7247	-0.8336	6.19	0.23	-0.750			
0.2844	18200.86	3.7220	3.7220	-0.8377	6.20	0.24	-0.750			
0.2869	18361.77	3.7190	3.7188	-0.8288	6.20	0.24	-0.750			
0.2894	18521.60	3.7160	3.7159	-0.8312	6.20	0.24	-0.750			
0.2919	18683.82	3.7130	3.7131	-0.8397	6.21	0.25	-0.750			
0.2945	18844.96	3.7100	3.7098	-0.8359	6.21	0.25	-0.750			
0.2969	19003.18	3.7070	3.7069	-0.8566	6.22	0.26	-0.750			
0.2994	19164.40	3.7040	3.7041	-0.8609	6.23	0.27	-0.750			
0.3021	19332.10	3.7010	3.7008	-0.8737	6.24	0.28	-0.750			
0.3048	19505.79	3.6980	3.6978	-0.8937	6.25	0.29	-0.750			
0.3075	19677.45	3.6950	3.6950	-0.9034	6.25	0.29	-0.750			
0.3102	19852.10	3.6920	3.6920	-0.9100	6.26	0.30	-0.750			
0.3129	20028.10	3.6890	3.6889	-0.9147	6.26	0.30	-0.750			
0.3156	20199.19	3.6860	3.6860	-0.9117	6.27	0.31	-0.750			
0.3184	20380.19	3.6830	3.6834	-0.9291	6.27	0.31	-0.750			
0.3212	20558.27	3.6800	3.6798	-0.9409	6.27	0.31	-0.750			
0.3241	20740.36	3.6770	3.6771	-0.9503	6.28	0.32	-0.750			
0.3269	20922.63	3.6740	3.6740	-0.9631	6.28	0.32	-0.750			
0.3298	21109.28	3.6710	3.6710	-0.9787	6.29	0.33	-0.750			
0.3328	21301.23	3.6680	3.6679	-0.9909	6.29	0.33	-0.750			
0.3359	21494.52	3.6650	3.6649	-0.9946	6.29	0.33	-0.750			
0.3388	21683.33	3.6620	3.6621	-1.0056	6.29	0.33	-0.750			
0.3418	21875.72	3.6590	3.6590	-1.0121	6.29	0.33	-0.750			
0.3449	22071.62	3.6560	3.6556	-1.0303	6.29	0.33	-0.750			
0.3480	22270.71	3.6530	3.6529	-1.0355	6.29	0.33	-0.750			
0.3511	22470.06	3.6500	3.6500	-1.0427	6.29	0.33	-0.750			
0.3543	22673.49	3.6470	3.6470	-1.0679	6.29	0.33	-0.750			
0.3575	22878.15	3.6440	3.6441	-1.0816	6.29	0.33	-0.750			
0.3607	23084.32	3.6410	3.6408	-1.0876	6.30	0.34	-0.750			
0.3640	23296.97	3.6380	3.6379	-1.0942	6.30	0.34	-0.750			
0.3673	23506.76	3.6350	3.6352	-1.1070	6.31	0.35	-0.750			
0.3707	23723.47	3.6320	3.6320	-1.1325	6.31	0.35	-0.750			
0.3741	23943.58	3.6290	3.6288	-1.1434	6.31	0.35	-0.750			
0.3775	24162.65	3.6260	3.6258	-1.1510	6.32	0.36	-0.750			
0.3810	24381.08	3.6230	3.6235	-1.1702	6.32	0.36	-0.750			
0.3846	24614.08	3.6200	3.6199	-1.1857	6.32	0.36	-0.750			
0.3882	24844.10	3.6170	3.6169	-1.1926	6.33	0.37	-0.750			
0.3917	25070.03	3.6140	3.6140	-1.1970	6.33	0.37	-0.750			
0.3954	25304.02	3.6110	3.6110	-1.2268	6.33	0.37	-0.750			
0.3991	25539.98	3.6080	3.6079	-1.2365	6.33	0.37	-0.750			
0.4028	25777.28	3.6050	3.6051	-1.2486	6.34	0.38	-0.750			
0.4065	26017.01	3.6020	3.6022	-1.2667	6.34	0.38	-0.750			
0.4104	26267.46	3.5990	3.5990	-1.2819	6.34	0.38	-0.750	0.471	1.108	
0.4143	26514.99	3.5960	3.5959	-1.2910	6.34	0.38	-0.750			
0.4182	26763.37	3.5930	3.5932	-1.3123	6.34	0.38	-0.750			
0.4222	27019.03	3.5900	3.5898	-1.3184	6.34	0.38	-0.750			
0.4262	27274.51	3.5870	3.5869	-1.3302	6.35	0.39	-0.750			
0.4301	27527.86	3.5840	3.5844	-1.3463	6.35	0.39	-0.750			
0.4342	27789.58	3.5810	3.5808	-1.3668	6.35	0.39	-0.750			
0.4383	28050.97	3.5780	3.5778	-1.3830	6.35	0.39	-0.750			
0.4424	28313.00	3.5750	3.5752	-1.3927	6.35	0.39	-0.750			
0.4467	28590.27	3.5720	3.5719	-1.4243	6.36	0.40	-0.750			
0.4510	28863.87	3.5690	3.5686	-1.4420	6.36	0.40	-0.750			
0.4553	29141.73	3.5660	3.5663	-1.4580	6.37	0.41	-0.750			
0.4598	29424.86	3.5630	3.5628	-1.4606	6.37	0.41	-0.750			
0.4642	29710.25	3.5600	3.5602	-1.4853	6.37	0.41	-0.750			
0.4686	29990.35	3.5570	3.5574	-1.4919	6.37	0.41	-0.750			
0.4732	30282.39	3.5540	3.5539	-1.5192	6.37	0.41	-0.750			
0.4778	30577.96	3.5510	3.5509	-1.5291	6.37	0.41	-0.750			
0.4824	30871.83	3.5480	3.5479	-1.5387	6.37	0.41	-0.750			
0.4870	31166.55	3.5450	3.5453	-1.5786	6.38	0.42	-0.750			
0.4918	31473.05	3.5420	3.5417	-1.5777	6.39	0.43	-0.750			
0.4965	31773.98	3.5390	3.5390	-1.5879	6.39	0.43	-0.750			
0.5013	32081.89	3.5360	3.5360	-1.6203	6.39	0.43	-0.750			
0.5062	32396.78	3.5330	3.5333	-1.6297	6.39	0.43	-0.750			
0.5111	32708.73	3.5300	3.5302	-1.6364	6.40	0.44	-0.750			
0.5160	33026.64	3.5270	3.5270	-1.6556	6.41	0.45	-0.750			
0.5210	33346.26	3.5240	3.5237	-1.6570	6.41	0.45	-0.750			
0.5260	33665.83	3.5210	3.5209	-1.6856	6.42	0.46	-0.750			
0.5311	33992.40	3.5180	3.5182	-1.6829	6.43	0.47	-0.750			
0.5361	34313.27	3.5150	3.5151	-1.6824	6.44	0.48	-0.750			
0.5412	34637.89	3.5120	3.5120	-1.6860	6.45	0.49	-0.750			
0.5463	34960.96	3.5090	3.5087	-1.6977	6.45	0.49	-0.750			
0.5514	35286.83	3.5060	3.5056	-1.7055	6.46	0.50	-0.750			
0.5565	35618.65	3.5030	3.5031	-1.6876	6.47	0.51	-0.750			
0.5617	35946.54	3.5000	3.5001	-1.7105	6.48	0.52	-0.750			
0.5667	36267.99	3.4970	3.4970	-1.7020	6.50	0.54	-0.750			
0.5718	36592.96	3.4940	3.4938	-1.6754	6.51	0.55	-0.750			
0.5768	36917.51	3.4910	3.4913	-1.6888	6.52	0.56	-0.750			
0.5819	37240.52	3.4880	3.4881	-1.6850	6.53	0.57	-0.750			
0.5869	37561.59	3.4850	3.4851	-1.6707	6.55	0.59	-0.750			
0.5920	37886.13	3.4820	3.4821	-1.6625	6.57	0.61	-0.750			
0.5969	38203.91	3.4790	3.4789	-1.6366	6.58	0.62	-0.750			
0.6019	38520.30	3.4760	3.4759	-1.6461	6.59	0.63	-0.750			
0.6069	38839.69	3.4730	3.4730	-1.6136	6.60	0.64	-0.750			
0.6116	39145.17	3.4700	3.4701	-1.5750	6.61	0.65	-0.750			
0.6163	39443.17	3.4670	3.4671	-1.5614	6.63	0.67	-0.750			
0.6210	39744.56	3.4640	3.4638	-1.5389	6.64	0.68	-0.750			
0.6256	40037.78	3.4610	3.4607	-1.5184	6.65	0.69	-0.750			
0.6301	40326.99	3.4580	3.4584	-1.4984	6.67	0.71	-0.750			
0.6345	40610.28	3.4550	3.4549	-1.4834	6.68	0.72	-0.750			
0.6390	40898.72	3.4520	3.4518	-1.4651	6.70	0.74	-0.750			
0.6433	41174.10	3.4490	3.4492	-1.4547	6.71	0.75	-0.750			
0.6477	41453.96	3.4460	3.4462	-1.4377	6.72	0.76	-0.750			
0.6521	41732.95	3.4430	3.4427	-1.4175	6.74	0.78	-0.750			
0.6563	42001.88	3.4400	3.4404	-1.3987	6.75	0.79	-0.750			
0.6605	42269.74	3.4370	3.4368	-1.3689	6.77	0.81	-0.750			
0.6645	42526.67	3.4340	3.4339	-1.3253	6.79	0.83	-0.750			
0.6685	42781.97	3.4310	3.4314	-1.3059	6.81	0.85	-0.750			
0.6724	43032.62	3.4280	3.4279	-1.2791	6.82	0.86	-0.750			
0.6761	43273.55	3.4250	3.4249	-1.2438	6.84	0.88	-0.750			
0.6798	43506.58	3.4220	3.4219	-1.2054	6.85	0.89	-0.750			
0.6834	43738.11	3.4190	3.4189	-1.1946	6.86	0.90	-0.750			
0.6870	43965.81	3.4160	3.4159	-1.1554	6.87	0.91	-0.750			
0.6904	44184.33	3.4130	3.4129	-1.1212	6.89	0.93	-0.750			
0.6937	44393.66	3.4100	3.4105	-1.1078	6.90	0.94	-0.750			
0.6969	44603.37	3.4070	3.4069	-1.0671	6.92	0.96	-0.750			
0.7001	44804.14	3.4040	3.4039	-1.0357	6.94	0.98	-0.750			
0.7031	44996.91	3.4010	3.4009	-1.0093	6.95	0.99	-0.750			
0.7061	45191.67	3.3980	3.3984	-0.9887	6.97	1.01	-0.750			
0.7091	45380.09	3.3950	3.3949	-0.9714	6.99	1.03	-0.750			
0.7120	45565.06	3.3920	3.3919	-0.9360	7.01	1.05	-0.750			
0.7147	45743.20	3.3890	3.3887	-0.8959	7.03	1.07	-0.750			
0.7174	45914.75	3.3860	3.3863	-0.8686	7.04	1.08	-0.750			
0.7199	46075.65	3.3830	3.3828	-0.8476	7.06	1.10	-0.750			
0.7223	46229.15	3.3800	3.3799	-0.8296	7.07	1.11	-0.750			
0.7248	46385.62	3.3770	3.3768	-0.8265	7.08	1.12	-0.750			
0.7272	46538.12	3.3740	3.3751	-0.8757	7.09	1.13	-0.750			
0.7298	46707.55	3.3710	3.3706	-0.8647	7.11	1.15	-0.750			
