Ah_balance (normalized)	Ah_balance (mAh)	Voltage - fit (V)	Voltage -  interpolate (V)	dQ/dV (1/V)	Temperature (°C)	Temperature - diff (°C)	Current (C)	R_DC 0ms (mOhm)	R_DC 50ms (mOhm)	R_DC 50 ms PEC (mOhm)
0.0955	6113.27	4.0080	4.0075	-0.0721	5.99	0.01	-0.750			
0.0958	6129.54	4.0050	4.0047	-0.0987	5.99	0.01	-0.750			
0.0961	6151.89	4.0020	4.0019	-0.1257	5.99	0.01	-0.750			
0.0965	6178.78	3.9990	3.9989	-0.1499	5.99	0.01	-0.750			
0.0970	6209.77	3.9960	3.9960	-0.1744	5.99	0.01	-0.750			
0.0976	6245.65	3.9930	3.9932	-0.1982	5.99	0.01	-0.750			
0.0982	6286.35	3.9900	3.9900	-0.2228	5.98	0.00	-0.750			
0.0989	6331.65	3.9870	3.9869	-0.2454	5.98	0.00	-0.750			
0.0997	6380.78	3.9840	3.9842	-0.2695	5.98	0.00	-0.750			
0.1005	6434.80	3.9810	3.9810	-0.2917	5.98	-0.00	-0.750			
0.1015	6493.12	3.9780	3.9780	-0.3163	5.98	-0.00	-0.750			
0.1024	6556.21	3.9750	3.9750	-0.3392	5.97	-0.01	-0.750			
0.1035	6623.39	3.9720	3.9720	-0.3623	5.97	-0.01	-0.750			
0.1046	6695.15	3.9690	3.9690	-0.3843	5.97	-0.01	-0.750			
0.1058	6771.60	3.9660	3.9660	-0.4071	5.97	-0.01	-0.750			
0.1070	6850.74	3.9630	3.9631	-0.4324	5.96	-0.02	-0.750			
0.1084	6936.70	3.9600	3.9599	-0.4561	5.96	-0.02	-0.750			
0.1098	7026.90	3.9570	3.9569	-0.4767	5.96	-0.02	-0.750			
0.1113	7121.27	3.9540	3.9540	-0.4973	5.95	-0.03	-0.750			
0.1128	7219.82	3.9510	3.9511	-0.5159	5.95	-0.03	-0.750			
0.1144	7320.82	3.9480	3.9480	-0.5337	5.95	-0.03	-0.750			
0.1160	7424.37	3.9450	3.9450	-0.5504	5.94	-0.04	-0.750			
0.1177	7530.27	3.9420	3.9421	-0.5653	5.94	-0.04	-0.750			
0.1194	7641.87	3.9390	3.9390	-0.5823	5.94	-0.04	-0.750			
0.1212	7757.67	3.9360	3.9359	-0.5929	5.94	-0.04	-0.750			
0.1230	7871.75	3.9330	3.9330	-0.6034	5.93	-0.05	-0.750			
0.1248	7988.90	3.9300	3.9302	-0.6143	5.93	-0.05	-0.750			
0.1267	8106.85	3.9270	3.9269	-0.6225	5.93	-0.05	-0.750			
0.1285	8225.89	3.9240	3.9239	-0.6330	5.93	-0.05	-0.750			
0.1305	8349.25	3.9210	3.9211	-0.6482	5.93	-0.05	-0.750			
0.1324	8476.01	3.9180	3.9179	-0.6638	5.93	-0.05	-0.750			
0.1345	8607.08	3.9150	3.9149	-0.6697	5.93	-0.05	-0.750			
0.1365	8735.92	3.9120	3.9120	-0.6751	5.93	-0.05	-0.750			
0.1385	8866.16	3.9090	3.9089	-0.6835	5.93	-0.05	-0.750			
0.1406	8998.27	3.9060	3.9060	-0.6854	5.93	-0.05	-0.750			
0.1426	9128.76	3.9030	3.9028	-0.6909	5.93	-0.05	-0.750			
0.1447	9260.95	3.9000	3.9001	-0.6958	5.93	-0.05	-0.750			
0.1468	9396.78	3.8970	3.8971	-0.7032	5.93	-0.05	-0.750			
0.1490	9533.08	3.8940	3.8938	-0.7108	5.93	-0.05	-0.750			
0.1511	9670.26	3.8910	3.8910	-0.7129	5.93	-0.05	-0.750			
0.1533	9808.28	3.8880	3.8880	-0.7164	5.93	-0.05	-0.750			
0.1554	9946.46	3.8850	3.8850	-0.7278	5.93	-0.05	-0.750			
0.1576	10086.91	3.8820	3.8820	-0.7271	5.93	-0.05	-0.750			
0.1598	10228.06	3.8790	3.8788	-0.7305	5.93	-0.05	-0.750			
0.1620	10368.33	3.8760	3.8763	-0.7320	5.93	-0.05	-0.750			
0.1642	10509.32	3.8730	3.8730	-0.7301	5.93	-0.05	-0.750			
0.1664	10649.68	3.8700	3.8699	-0.7267	5.93	-0.05	-0.750			
0.1686	10787.85	3.8670	3.8670	-0.7272	5.93	-0.05	-0.750			
0.1708	10928.29	3.8640	3.8640	-0.7297	5.93	-0.05	-0.750			
0.1729	11068.34	3.8610	3.8609	-0.7298	5.93	-0.05	-0.750			
0.1751	11207.29	3.8580	3.8581	-0.7319	5.93	-0.05	-0.750			
0.1773	11346.98	3.8550	3.8551	-0.7377	5.94	-0.04	-0.750			
0.1795	11489.62	3.8520	3.8519	-0.7471	5.94	-0.04	-0.750			
0.1818	11634.73	3.8490	3.8488	-0.7503	5.95	-0.03	-0.750			
0.1841	11780.07	3.8460	3.8460	-0.7526	5.95	-0.03	-0.750			
0.1863	11925.70	3.8430	3.8429	-0.7510	5.96	-0.02	-0.750			
0.1886	12070.83	3.8400	3.8400	-0.7515	5.96	-0.02	-0.750			
0.1909	12214.50	3.8370	3.8368	-0.7464	5.97	-0.01	-0.750			
0.1930	12354.29	3.8340	3.8342	-0.7473	5.97	-0.01	-0.750			
0.1953	12497.71	3.8310	3.8310	-0.7455	5.97	-0.01	-0.750			
0.1976	12644.79	3.8280	3.8279	-0.7533	5.98	-0.00	-0.750			
0.1998	12789.47	3.8250	3.8252	-0.7518	5.98	0.00	-0.750			
0.2021	12933.78	3.8220	3.8220	-0.7508	5.98	0.00	-0.750			
0.2043	13075.91	3.8190	3.8190	-0.7526	5.98	0.00	-0.750			
0.2066	13220.60	3.8160	3.8160	-0.7511	5.99	0.01	-0.750			
0.2088	13365.03	3.8130	3.8129	-0.7533	5.99	0.01	-0.750			
0.2111	13510.15	3.8100	3.8099	-0.7511	5.99	0.01	-0.750			
0.2133	13654.15	3.8070	3.8070	-0.7532	5.99	0.01	-0.750			
0.2156	13798.69	3.8040	3.8040	-0.7522	6.00	0.02	-0.750			
0.2179	13942.47	3.8010	3.8008	-0.7557	6.00	0.02	-0.750			
0.2201	14087.02	3.7980	3.7981	-0.7558	6.00	0.02	-0.750			
0.2224	14234.94	3.7950	3.7950	-0.7598	6.01	0.03	-0.750			
0.2247	14381.42	3.7920	3.7922	-0.7634	6.01	0.03	-0.750			
0.2270	14529.21	3.7890	3.7890	-0.7620	6.02	0.04	-0.750			
0.2293	14673.21	3.7860	3.7860	-0.7606	6.02	0.04	-0.750			
0.2316	14819.73	3.7830	3.7830	-0.7607	6.03	0.05	-0.750			
0.2339	14966.71	3.7800	3.7800	-0.7578	6.03	0.05	-0.750			
0.2361	15110.70	3.7770	3.7770	-0.7592	6.04	0.06	-0.750			
0.2384	15257.33	3.7740	3.7741	-0.7589	6.04	0.06	-0.750			
0.2406	15400.66	3.7710	3.7710	-0.7583	6.05	0.07	-0.750			
0.2429	15547.34	3.7680	3.7680	-0.7593	6.05	0.07	-0.750			
0.2452	15691.44	3.7650	3.7651	-0.7610	6.06	0.08	-0.750			
0.2475	15838.71	3.7620	3.7619	-0.7656	6.06	0.08	-0.750			
0.2498	15986.72	3.7590	3.7593	-0.7720	6.07	0.09	-0.750			
0.2521	16134.49	3.7560	3.7559	-0.7719	6.07	0.09	-0.750			
0.2544	16284.67	3.7530	3.7531	-0.7781	6.08	0.10	-0.750			
0.2568	16434.29	3.7500	3.7500	-0.7787	6.08	0.10	-0.750			
0.2591	16583.60	3.7470	3.7470	-0.7846	6.09	0.11	-0.750			
0.2615	16733.26	3.7440	3.7439	-0.7870	6.09	0.11	-0.750			
0.2638	16884.55	3.7410	3.7409	-0.7903	6.09	0.11	-0.750			
0.2662	17035.37	3.7380	3.7380	-0.7977	6.10	0.12	-0.750			
0.2686	17190.58	3.7350	3.7350	-0.8037	6.10	0.12	-0.750			
0.2710	17345.78	3.7320	3.7320	-0.8051	6.10	0.12	-0.750			
0.2735	17501.77	3.7290	3.7290	-0.8074	6.11	0.13	-0.750			
0.2759	17656.49	3.7260	3.7260	-0.8064	6.11	0.13	-0.750			
0.2783	17808.86	3.7230	3.7231	-0.8177	6.12	0.14	-0.750			
0.2807	17967.76	3.7200	3.7199	-0.8219	6.12	0.14	-0.750			
0.2832	18124.72	3.7170	3.7169	-0.8259	6.12	0.14	-0.750			
0.2857	18285.33	3.7140	3.7141	-0.8381	6.13	0.15	-0.750			
0.2883	18448.42	3.7110	3.7109	-0.8478	6.13	0.15	-0.750			
0.2908	18611.42	3.7080	3.7080	-0.8557	6.14	0.16	-0.750			
0.2934	18776.19	3.7050	3.7050	-0.8589	6.14	0.16	-0.750			
0.2959	18935.01	3.7020	3.7021	-0.8864	6.14	0.16	-0.750			
0.2986	19109.85	3.6990	3.6989	-0.9158	6.15	0.17	-0.750			
0.3014	19287.08	3.6960	3.6958	-0.9345	6.15	0.17	-0.750			
0.3043	19474.21	3.6930	3.6930	-0.9480	6.16	0.18	-0.750			
0.3073	19664.28	3.6900	3.6901	-0.9594	6.17	0.19	-0.750			
0.3101	19849.28	3.6870	3.6869	-0.9532	6.18	0.20	-0.750			
0.3130	20033.74	3.6840	3.6840	-0.9418	6.18	0.20	-0.750			
0.3157	20204.99	3.6810	3.6810	-0.9283	6.19	0.21	-0.750			
0.3185	20384.65	3.6780	3.6780	-0.9358	6.20	0.22	-0.750			
0.3213	20560.34	3.6750	3.6750	-0.9362	6.20	0.22	-0.750			
0.3241	20745.34	3.6720	3.6721	-0.9580	6.21	0.23	-0.750			
0.3270	20928.67	3.6690	3.6690	-0.9670	6.21	0.23	-0.750			
0.3300	21116.89	3.6660	3.6660	-0.9747	6.21	0.23	-0.750			
0.3329	21305.73	3.6630	3.6630	-0.9843	6.22	0.24	-0.750			
0.3358	21493.62	3.6600	3.6599	-0.9871	6.22	0.24	-0.750			
0.3388	21684.05	3.6570	3.6570	-1.0046	6.22	0.24	-0.750			
0.3418	21878.08	3.6540	3.6540	-1.0117	6.23	0.25	-0.750			
0.3449	22072.36	3.6510	3.6509	-1.0224	6.24	0.26	-0.750			
0.3480	22270.44	3.6480	3.6480	-1.0275	6.25	0.27	-0.750			
0.3511	22470.19	3.6450	3.6450	-1.0430	6.25	0.27	-0.750			
0.3542	22671.38	3.6420	3.6420	-1.0504	6.25	0.27	-0.750			
0.3574	22873.67	3.6390	3.6390	-1.0599	6.26	0.28	-0.750			
0.3606	23075.33	3.6360	3.6360	-1.0659	6.26	0.28	-0.750			
0.3638	23282.84	3.6330	3.6330	-1.0843	6.26	0.28	-0.750			
0.3671	23491.38	3.6300	3.6300	-1.0972	6.26	0.28	-0.750			
0.3704	23705.38	3.6270	3.6269	-1.1058	6.27	0.29	-0.750			
0.3737	23917.69	3.6240	3.6240	-1.1153	6.27	0.29	-0.750			
0.3771	24133.39	3.6210	3.6210	-1.1338	6.27	0.29	-0.750			
0.3805	24352.59	3.6180	3.6180	-1.1405	6.28	0.30	-0.750			
0.3839	24571.52	3.6150	3.6149	-1.1560	6.28	0.30	-0.750			
0.3874	24792.44	3.6120	3.6122	-1.1745	6.29	0.31	-0.750			
0.3910	25022.52	3.6090	3.6088	-1.1835	6.29	0.31	-0.750			
0.3946	25252.52	3.6060	3.6060	-1.1958	6.30	0.32	-0.750			
0.3981	25480.40	3.6030	3.6031	-1.2066	6.30	0.32	-0.750			
0.4018	25714.50	3.6000	3.5998	-1.2226	6.31	0.33	-0.750			
0.4055	25952.20	3.5970	3.5969	-1.2277	6.31	0.33	-0.750			
0.4091	26184.19	3.5940	3.5939	-1.2329	6.32	0.34	-0.750			
0.4128	26422.18	3.5910	3.5911	-1.2586	6.33	0.35	-0.750	0.467	1.082	
0.4167	26669.96	3.5880	3.5877	-1.2734	6.33	0.35	-0.750			
0.4206	26915.20	3.5850	3.5849	-1.2787	6.34	0.36	-0.750			
0.4244	27158.80	3.5820	3.5824	-1.2943	6.34	0.36	-0.750			
0.4283	27412.72	3.5790	3.5789	-1.3130	6.34	0.36	-0.750			
0.4323	27666.40	3.5760	3.5759	-1.3272	6.35	0.37	-0.750			
0.4362	27917.60	3.5730	3.5731	-1.3359	6.35	0.37	-0.750			
0.4403	28179.54	3.5700	3.5700	-1.3592	6.36	0.38	-0.750			
0.4444	28441.95	3.5670	3.5669	-1.3749	6.36	0.38	-0.750			
0.4485	28705.79	3.5640	3.5641	-1.3940	6.37	0.39	-0.750			
0.4527	28974.23	3.5610	3.5609	-1.4037	6.37	0.39	-0.750			
0.4570	29248.14	3.5580	3.5579	-1.4242	6.38	0.40	-0.750			
0.4613	29523.37	3.5550	3.5551	-1.4353	6.39	0.41	-0.750			
0.4656	29798.74	3.5520	3.5519	-1.4524	6.40	0.42	-0.750			
0.4700	30083.01	3.5490	3.5489	-1.4701	6.40	0.42	-0.750			
0.4745	30365.63	3.5460	3.5462	-1.4791	6.41	0.43	-0.750			
0.4789	30649.83	3.5430	3.5431	-1.4873	6.41	0.43	-0.750			
0.4835	30942.46	3.5400	3.5399	-1.5003	6.42	0.44	-0.750			
0.4880	31230.69	3.5370	3.5370	-1.5111	6.42	0.44	-0.750			
0.4925	31520.80	3.5340	3.5341	-1.5290	6.43	0.45	-0.750			
0.4971	31813.97	3.5310	3.5309	-1.5253	6.44	0.46	-0.750			
0.5018	32112.07	3.5280	3.5280	-1.5300	6.45	0.47	-0.750			
0.5063	32405.82	3.5250	3.5250	-1.5507	6.46	0.48	-0.750			
0.5110	32702.36	3.5220	3.5220	-1.5643	6.47	0.49	-0.750			
0.5157	33006.73	3.5190	3.5188	-1.5645	6.48	0.50	-0.750			
0.5205	33310.03	3.5160	3.5161	-1.5866	6.48	0.50	-0.750			
0.5253	33616.44	3.5130	3.5131	-1.5761	6.49	0.51	-0.750			
0.5300	33920.07	3.5100	3.5103	-1.5836	6.50	0.52	-0.750			
0.5348	34224.28	3.5070	3.5069	-1.5780	6.51	0.53	-0.750			
0.5394	34520.11	3.5040	3.5037	-1.5807	6.52	0.54	-0.750			
0.5442	34828.11	3.5010	3.5009	-1.5733	6.53	0.55	-0.750			
0.5489	35130.25	3.4980	3.4981	-1.5804	6.55	0.57	-0.750			
0.5537	35434.18	3.4950	3.4950	-1.5879	6.56	0.58	-0.750			
0.5585	35741.04	3.4920	3.4919	-1.5881	6.56	0.58	-0.750			
0.5632	36047.98	3.4890	3.4891	-1.5835	6.57	0.59	-0.750			
0.5680	36352.57	3.4860	3.4858	-1.5716	6.59	0.61	-0.750			
0.5727	36653.37	3.4830	3.4830	-1.5683	6.60	0.62	-0.750			
0.5775	36958.68	3.4800	3.4800	-1.5612	6.62	0.64	-0.750			
0.5822	37258.89	3.4770	3.4768	-1.5448	6.63	0.65	-0.750			
0.5867	37548.53	3.4740	3.4742	-1.5252	6.64	0.66	-0.750			
0.5913	37843.62	3.4710	3.4709	-1.5142	6.65	0.67	-0.750			
0.5958	38133.23	3.4680	3.4680	-1.5194	6.66	0.68	-0.750			
0.6004	38423.67	3.4650	3.4652	-1.5121	6.67	0.69	-0.750			
0.6049	38713.72	3.4620	3.4619	-1.5023	6.69	0.71	-0.750			
0.6094	39004.36	3.4590	3.4590	-1.4905	6.70	0.72	-0.750			
0.6139	39289.69	3.4560	3.4559	-1.4693	6.72	0.74	-0.750			
0.6183	39571.41	3.4530	3.4531	-1.4546	6.73	0.75	-0.750			
0.6226	39846.96	3.4500	3.4499	-1.4397	6.74	0.76	-0.750			
0.6269	40119.35	3.4470	3.4469	-1.4116	6.76	0.78	-0.750			
0.6311	40390.94	3.4440	3.4440	-1.3997	6.78	0.80	-0.750			
0.6353	40656.49	3.4410	3.4411	-1.3895	6.80	0.82	-0.750			
0.6394	40923.15	3.4380	3.4378	-1.3592	6.82	0.84	-0.750			
0.6435	41185.01	3.4350	3.4349	-1.3334	6.83	0.85	-0.750			
0.6474	41435.82	3.4320	3.4321	-1.3080	6.84	0.86	-0.750			
0.6513	41684.80	3.4290	3.4290	-1.2844	6.86	0.88	-0.750			
0.6552	41930.56	3.4260	3.4259	-1.2619	6.88	0.90	-0.750			
0.6588	42165.97	3.4230	3.4229	-1.2304	6.89	0.91	-0.750			
0.6625	42399.37	3.4200	3.4202	-1.2093	6.91	0.93	-0.750			
0.6661	42633.44	3.4170	3.4170	-1.1886	6.93	0.95	-0.750			
0.6697	42860.09	3.4140	3.4140	-1.1619	6.95	0.97	-0.750			
0.6731	43079.26	3.4110	3.4110	-1.1291	6.96	0.98	-0.750			
0.6765	43293.78	3.4080	3.4079	-1.1056	6.98	1.00	-0.750			
0.6797	43503.49	3.4050	3.4050	-1.0778	6.99	1.01	-0.750			
0.6829	43707.82	3.4020	3.4019	-1.0461	7.01	1.03	-0.750			
0.6860	43905.41	3.3990	3.3991	-1.0193	7.02	1.04	-0.750			
0.6890	44098.61	3.3960	3.3959	-0.9955	7.04	1.06	-0.750			
0.6920	44286.21	3.3930	3.3929	-0.9657	7.06	1.08	-0.750			
0.6948	44468.84	3.3900	3.3900	-0.9381	7.08	1.10	-0.750			
0.6976	44644.15	3.3870	3.3871	-0.9108	7.10	1.12	-0.750			
0.7003	44820.07	3.3840	3.3840	-0.8887	7.11	1.13	-0.750			
0.7029	44988.24	3.3810	3.3809	-0.8658	7.13	1.15	-0.750			
0.7055	45150.24	3.3780	3.3780	-0.8446	7.14	1.16	-0.750			
0.7080	45311.75	3.3750	3.3750	-0.8237	7.15	1.17	-0.750			
0.7105	45469.15	3.3720	3.3718	-0.8048	7.16	1.18	-0.750			
0.7128	45621.64	3.3690	3.3691	-0.7818	7.17	1.19	-0.750			
0.7151	45769.41	3.3660	3.3660	-0.7560	7.19	1.21	-0.750			
0.7174	45912.02	3.3630	3.3629	-0.7388	7.20	1.22	-0.750			
0.7195	46050.19	3.3600	3.3600	-0.7116	7.22	1.24	-0.750			
0.7217	46187.16	3.3570	3.3569	-0.6939	7.23	1.25	-0.750			
0.7237	46319.78	3.3540	3.3539	-0.6709	7.24	1.26	-0.750			
0.7257	46445.75	3.3510	3.3509	-0.6424	7.26	1.28	-0.750			
0.7276	46565.99	3.3480	3.3480	-0.6047	7.27	1.29	-0.750			
