Ah_balance (normalized)	Ah_balance (mAh)	Voltage - fit (V)	Voltage -  interpolate (V)	dQ/dV (1/V)	Temperature (°C)	Temperature - diff (°C)	Current (C)	R_DC 0ms (mOhm)	R_DC 50ms (mOhm)	R_DC 50 ms PEC (mOhm)
-0.1267	-8110.49	4.0800	4.0800	0.7886	7.55	1.56	0.750			
-0.1243	-7956.81	4.0770	4.0769	0.8016	7.55	1.56	0.750			
-0.1219	-7803.33	4.0740	4.0740	0.8026	7.55	1.56	0.750			
-0.1195	-7648.53	4.0710	4.0710	0.8025	7.54	1.55	0.750			
-0.1171	-7494.76	4.0680	4.0680	0.8049	7.54	1.55	0.750			
-0.1147	-7340.96	4.0650	4.0650	0.8069	7.53	1.54	0.750			
-0.1123	-7184.96	4.0620	4.0619	0.8083	7.53	1.54	0.750			
-0.1098	-7029.99	4.0590	4.0590	0.8110	7.53	1.54	0.750			
-0.1074	-6873.23	4.0560	4.0560	0.8147	7.53	1.54	0.750			
-0.1050	-6716.92	4.0530	4.0530	0.8182	7.53	1.54	0.750			
-0.1025	-6559.05	4.0500	4.0500	0.8208	7.53	1.54	0.750			
-0.1000	-6401.72	4.0470	4.0470	0.8230	7.53	1.54	0.750			
-0.0976	-6243.70	4.0440	4.0440	0.8265	7.53	1.54	0.750			
-0.0950	-6082.79	4.0410	4.0410	0.8238	7.52	1.53	0.750			
-0.0926	-5926.37	4.0380	4.0380	0.8266	7.52	1.53	0.750			
-0.0901	-5768.01	4.0350	4.0351	0.8292	7.51	1.52	0.750			
-0.0877	-5609.78	4.0320	4.0319	0.8365	7.51	1.52	0.750			
-0.0851	-5447.96	4.0290	4.0290	0.8429	7.50	1.51	0.750			
-0.0826	-5284.78	4.0260	4.0260	0.8459	7.50	1.51	0.750			
-0.0800	-5120.13	4.0230	4.0230	0.8508	7.49	1.50	0.750			
-0.0774	-4956.43	4.0200	4.0201	0.8500	7.48	1.49	0.750			
-0.0749	-4793.72	4.0170	4.0169	0.8497	7.47	1.48	0.750			
-0.0724	-4631.01	4.0140	4.0140	0.8533	7.47	1.48	0.750			
-0.0698	-4467.72	4.0110	4.0110	0.8527	7.47	1.48	0.750			
-0.0672	-4303.26	4.0080	4.0080	0.8576	7.47	1.48	0.750			
-0.0647	-4138.75	4.0050	4.0050	0.8607	7.47	1.48	0.750			
-0.0621	-3973.31	4.0020	4.0019	0.8663	7.47	1.48	0.750			
-0.0595	-3805.52	3.9990	3.9990	0.8668	7.46	1.47	0.750			
-0.0568	-3638.35	3.9960	3.9960	0.8687	7.45	1.46	0.750			
-0.0542	-3471.46	3.9930	3.9930	0.8713	7.44	1.45	0.750			
-0.0516	-3304.24	3.9900	3.9901	0.8742	7.44	1.45	0.750			
-0.0490	-3136.94	3.9870	3.9871	0.8779	7.43	1.44	0.750			
-0.0464	-2967.72	3.9840	3.9840	0.8795	7.42	1.43	0.750			
-0.0437	-2798.77	3.9810	3.9810	0.8837	7.41	1.42	0.750			
-0.0411	-2627.80	3.9780	3.9781	0.8896	7.40	1.41	0.750			
-0.0384	-2456.38	3.9750	3.9750	0.8938	7.39	1.40	0.750			
-0.0357	-2285.00	3.9720	3.9720	0.8984	7.39	1.40	0.750			
-0.0330	-2112.49	3.9690	3.9690	0.9008	7.38	1.39	0.750			
-0.0303	-1938.76	3.9660	3.9660	0.9069	7.37	1.38	0.750			
-0.0275	-1762.64	3.9630	3.9630	0.9127	7.37	1.38	0.750			
-0.0248	-1588.46	3.9600	3.9600	0.9173	7.36	1.37	0.750			
-0.0221	-1411.21	3.9570	3.9570	0.9182	7.35	1.36	0.750			
-0.0193	-1235.28	3.9540	3.9540	0.9234	7.35	1.36	0.750			
-0.0165	-1058.13	3.9510	3.9510	0.9298	7.34	1.35	0.750			
-0.0137	-878.43	3.9480	3.9481	0.9351	7.33	1.34	0.750			
-0.0109	-698.54	3.9450	3.9450	0.9425	7.33	1.34	0.750			
-0.0081	-516.65	3.9420	3.9420	0.9486	7.32	1.33	0.750			
-0.0052	-334.43	3.9390	3.9390	0.9538	7.31	1.32	0.750			
-0.0023	-149.35	3.9360	3.9360	0.9624	7.30	1.31	0.750			
0.0005	33.60	3.9330	3.9330	0.9666	7.29	1.30	0.750			
0.0034	220.74	3.9300	3.9300	0.9696	7.28	1.29	0.750			
0.0064	407.41	3.9270	3.9270	0.9784	7.27	1.28	0.750			
0.0093	594.96	3.9240	3.9240	0.9848	7.26	1.27	0.750			
0.0123	785.68	3.9210	3.9210	0.9956	7.25	1.26	0.750			
0.0153	978.70	3.9180	3.9180	0.9954	7.24	1.25	0.750			
0.0183	1168.98	3.9150	3.9150	1.0098	7.23	1.24	0.750			
0.0213	1362.25	3.9120	3.9121	1.0201	7.22	1.23	0.750			
0.0244	1560.18	3.9090	3.9089	1.0323	7.21	1.22	0.750			
0.0275	1759.12	3.9060	3.9061	1.0426	7.20	1.21	0.750			
0.0306	1960.79	3.9030	3.9030	1.0554	7.19	1.20	0.750			
0.0338	2165.37	3.9000	3.9001	1.0656	7.18	1.19	0.750			
0.0371	2372.84	3.8970	3.8970	1.0818	7.17	1.18	0.750			
0.0403	2579.12	3.8940	3.8940	1.0826	7.16	1.17	0.750			
0.0436	2787.53	3.8910	3.8910	1.0969	7.16	1.17	0.750			
0.0469	2998.78	3.8880	3.8880	1.1103	7.15	1.16	0.750			
0.0502	3213.98	3.8850	3.8849	1.1210	7.14	1.15	0.750			
0.0536	3429.49	3.8820	3.8820	1.1395	7.13	1.14	0.750			
0.0570	3649.73	3.8790	3.8790	1.1567	7.11	1.12	0.750			
0.0605	3873.18	3.8760	3.8760	1.1731	7.10	1.11	0.750			
0.0641	4100.65	3.8730	3.8731	1.1881	7.09	1.10	0.750			
0.0677	4329.89	3.8700	3.8700	1.2065	7.08	1.09	0.750			
0.0713	4563.13	3.8670	3.8670	1.2256	7.07	1.08	0.750			
0.0750	4801.01	3.8640	3.8639	1.2405	7.06	1.07	0.750			
0.0788	5040.75	3.8610	3.8610	1.2540	7.05	1.06	0.750			
0.0825	5281.77	3.8580	3.8581	1.2781	7.03	1.04	0.750			
0.0864	5530.57	3.8550	3.8550	1.2912	7.02	1.03	0.750			
0.0903	5778.71	3.8520	3.8519	1.3192	7.00	1.01	0.750			
0.0942	6031.61	3.8490	3.8490	1.3422	6.98	0.99	0.750			
0.0983	6293.30	3.8460	3.8461	1.3648	6.97	0.98	0.750			
0.1025	6558.53	3.8430	3.8431	1.3971	6.95	0.96	0.750			
0.1067	6828.30	3.8400	3.8400	1.4209	6.93	0.94	0.750			
0.1110	7104.77	3.8370	3.8370	1.4374	6.92	0.93	0.750	0.452	1.042	
0.1154	7385.58	3.8340	3.8340	1.4686	6.90	0.91	0.750			
0.1198	7664.57	3.8310	3.8311	1.4942	6.89	0.90	0.750			
0.1243	7956.47	3.8280	3.8280	1.5234	6.87	0.88	0.750			
0.1289	8249.89	3.8250	3.8252	1.5576	6.85	0.86	0.750			
0.1336	8551.60	3.8220	3.8220	1.5918	6.83	0.84	0.750			
0.1385	8860.83	3.8190	3.8192	1.6425	6.81	0.82	0.750			
0.1434	9178.57	3.8160	3.8160	1.6684	6.78	0.79	0.750			
0.1486	9507.53	3.8130	3.8129	1.7089	6.76	0.77	0.750			
0.1537	9835.55	3.8100	3.8102	1.7464	6.74	0.75	0.750			
0.1590	10176.76	3.8070	3.8070	1.7770	6.72	0.73	0.750			
0.1644	10522.68	3.8040	3.8039	1.8251	6.70	0.71	0.750			
0.1699	10874.54	3.8010	3.8011	1.8459	6.68	0.69	0.750			
0.1756	11236.40	3.7980	3.7979	1.8899	6.65	0.66	0.750			
0.1813	11601.19	3.7950	3.7950	1.9292	6.62	0.63	0.750			
0.1871	11977.06	3.7920	3.7921	1.9548	6.59	0.60	0.750			
0.1930	12353.19	3.7890	3.7889	1.9794	6.57	0.58	0.750			
0.1990	12738.52	3.7860	3.7861	2.0191	6.54	0.55	0.750			
0.2051	13124.63	3.7830	3.7830	2.0548	6.51	0.52	0.750			
0.2113	13521.37	3.7800	3.7801	2.0776	6.50	0.51	0.750			
0.2177	13930.90	3.7770	3.7770	2.1306	6.47	0.48	0.750			
0.2241	14341.62	3.7740	3.7740	2.1433	6.44	0.45	0.750			
0.2305	14755.14	3.7710	3.7709	2.1812	6.41	0.42	0.750			
0.2371	15175.65	3.7680	3.7680	2.2186	6.37	0.38	0.750			
0.2438	15605.21	3.7650	3.7651	2.2372	6.35	0.36	0.750			
0.2506	16037.32	3.7620	3.7619	2.2954	6.33	0.34	0.750			
0.2576	16484.39	3.7590	3.7590	2.3270	6.30	0.31	0.750			
0.2646	16933.67	3.7560	3.7561	2.3671	6.27	0.28	0.750			
0.2717	17391.04	3.7530	3.7531	2.3916	6.24	0.25	0.750			
0.2789	17848.53	3.7500	3.7499	2.4617	6.22	0.23	0.750			
0.2865	18333.03	3.7470	3.7469	2.5888	6.19	0.20	0.750			
0.2944	18840.11	3.7440	3.7440	2.6842	6.16	0.17	0.750			
0.3026	19365.82	3.7410	3.7411	2.7658	6.14	0.15	0.750			
0.3109	19899.77	3.7380	3.7380	2.8392	6.12	0.13	0.750			
0.3196	20452.42	3.7350	3.7351	2.9276	6.09	0.10	0.750			
0.3287	21034.45	3.7320	3.7320	2.9858	6.06	0.07	0.750			
0.3377	21612.33	3.7290	3.7291	2.9879	6.03	0.04	0.750			
0.3467	22189.39	3.7260	3.7261	2.9132	6.02	0.03	0.750			
0.3553	22742.06	3.7230	3.7230	2.7634	6.00	0.01	0.750			
0.3632	23243.30	3.7200	3.7199	2.4876	5.99	-0.00	0.750			
0.3703	23701.40	3.7170	3.7170	2.2479	5.98	-0.01	0.750			
0.3766	24105.39	3.7140	3.7140	1.9906	5.97	-0.02	0.750			
0.3822	24460.19	3.7110	3.7110	1.7484	5.97	-0.02	0.750			
0.3869	24764.07	3.7080	3.7080	1.5448	5.97	-0.02	0.750			
0.3913	25043.65	3.7050	3.7050	1.3676	5.97	-0.02	0.750			
0.3949	25276.37	3.7020	3.7020	1.2141	5.97	-0.02	0.750			
0.3983	25488.14	3.6990	3.6990	1.0900	5.97	-0.02	0.750			
0.4013	25681.19	3.6960	3.6960	1.0008	5.97	-0.02	0.750			
0.4041	25863.20	3.6930	3.6930	0.9315	5.97	-0.02	0.750			
0.4068	26032.92	3.6900	3.6900	0.8754	5.97	-0.02	0.750			
0.4093	26195.72	3.6870	3.6870	0.8259	5.97	-0.02	0.750			
0.4117	26348.31	3.6840	3.6840	0.7749	5.97	-0.02	0.750			
0.4140	26494.01	3.6810	3.6810	0.7287	5.97	-0.02	0.750			
0.4161	26630.42	3.6780	3.6780	0.6799	5.98	-0.01	0.750			
0.4181	26755.73	3.6750	3.6750	0.6287	5.98	-0.01	0.750			
0.4199	26871.53	3.6720	3.6720	0.5776	5.98	-0.01	0.750			
0.4215	26976.70	3.6690	3.6690	0.5272	5.98	-0.01	0.750			
0.4230	27072.86	3.6660	3.6660	0.4796	5.99	-0.00	0.750			
0.4244	27159.89	3.6630	3.6630	0.4339	5.99	-0.00	0.750			
0.4256	27238.18	3.6600	3.6599	0.3904	5.99	0.00	0.750			
0.4267	27308.11	3.6570	3.6570	0.3498	5.99	0.00	0.750			
0.4277	27370.33	3.6540	3.6540	0.3101	5.99	0.00	0.750			
0.4285	27426.25	3.6510	3.6510	0.2740	6.00	0.01	0.750			
0.4293	27475.94	3.6480	3.6479	0.2361	6.00	0.01	0.750			
0.4300	27517.96	3.6450	3.6450	0.1994	6.00	0.01	0.750			
0.4305	27553.34	3.6420	3.6420	0.1619	6.00	0.01	0.750			
0.4310	27580.86	3.6390	3.6393	0.1221	6.00	0.01	0.750			
0.4313	27600.97	3.6360	3.6366	0.0797	6.00	0.01	0.750			
0.4314	27612.26	3.6330	3.6340	0.0333	6.00	0.01	0.750			
