Ah_balance (normalized)	Ah_balance (mAh)	Voltage - fit (V)	Voltage -  interpolate (V)	dQ/dV (1/V)	Temperature (°C)	Temperature - diff (°C)	Current (C)	R_DC 0ms (mOhm)	R_DC 50ms (mOhm)	R_DC 50 ms PEC (mOhm)
0.1817	11628.76	4.0810	4.0811	0.7765	7.06	1.09	0.750			
0.1840	11778.13	4.0780	4.0776	0.7797	7.05	1.08	0.750			
0.1864	11929.19	4.0750	4.0752	0.7837	7.04	1.07	0.750			
0.1888	12080.94	4.0720	4.0720	0.7793	7.04	1.07	0.750			
0.1911	12230.57	4.0690	4.0690	0.7831	7.03	1.06	0.750			
0.1934	12378.87	4.0660	4.0661	0.7814	7.03	1.06	0.750			
0.1957	12527.66	4.0630	4.0629	0.7838	7.02	1.05	0.750			
0.1981	12677.99	4.0600	4.0601	0.7894	7.02	1.05	0.750			
0.2005	12832.09	4.0570	4.0570	0.7899	7.02	1.05	0.750			
0.2029	12984.19	4.0540	4.0541	0.7930	7.02	1.05	0.750			
0.2053	13137.18	4.0510	4.0510	0.8003	7.01	1.04	0.750			
0.2076	13289.53	4.0480	4.0483	0.7965	7.01	1.04	0.750			
0.2100	13441.11	4.0450	4.0448	0.8018	7.01	1.04	0.750			
0.2124	13596.46	4.0420	4.0421	0.8063	7.01	1.04	0.750			
0.2149	13751.73	4.0390	4.0389	0.8094	7.01	1.04	0.750			
0.2173	13908.73	4.0360	4.0360	0.8119	7.01	1.04	0.750			
0.2198	14066.52	4.0330	4.0332	0.8142	7.01	1.04	0.750			
0.2222	14221.57	4.0300	4.0299	0.8136	7.01	1.04	0.750			
0.2247	14378.76	4.0270	4.0269	0.8202	7.01	1.04	0.750			
0.2271	14534.32	4.0240	4.0240	0.8084	7.00	1.03	0.750			
0.2295	14688.37	4.0210	4.0211	0.8161	7.00	1.03	0.750			
0.2320	14846.35	4.0180	4.0181	0.8217	6.99	1.02	0.750			
0.2344	15004.38	4.0150	4.0146	0.8258	6.99	1.02	0.750			
0.2369	15164.01	4.0120	4.0120	0.8238	6.99	1.02	0.750			
0.2394	15321.63	4.0090	4.0092	0.8353	6.98	1.01	0.750			
0.2419	15483.11	4.0060	4.0060	0.8442	6.98	1.01	0.750			
0.2445	15645.10	4.0030	4.0030	0.8494	6.97	1.00	0.750			
0.2470	15808.30	4.0000	3.9999	0.8550	6.97	1.00	0.750			
0.2496	15976.94	3.9970	3.9971	0.8564	6.96	0.99	0.750			
0.2523	16144.04	3.9940	3.9941	0.8642	6.96	0.99	0.750			
0.2548	16309.30	3.9910	3.9911	0.8648	6.95	0.98	0.750			
0.2574	16473.14	3.9880	3.9880	0.8600	6.94	0.97	0.750			
0.2600	16637.49	3.9850	3.9851	0.8644	6.94	0.97	0.750			
0.2626	16804.40	3.9820	3.9820	0.8631	6.94	0.97	0.750			
0.2652	16970.81	3.9790	3.9791	0.8732	6.94	0.97	0.750			
0.2678	17140.21	3.9760	3.9760	0.8764	6.93	0.96	0.750			
0.2704	17308.25	3.9730	3.9731	0.8771	6.93	0.96	0.750			
0.2731	17477.12	3.9700	3.9700	0.8809	6.93	0.96	0.750			
0.2758	17648.80	3.9670	3.9670	0.8720	6.92	0.95	0.750			
0.2783	17814.09	3.9640	3.9640	0.8790	6.92	0.95	0.750			
0.2810	17982.10	3.9610	3.9611	0.8876	6.92	0.95	0.750			
0.2836	18150.73	3.9580	3.9578	0.8865	6.91	0.94	0.750			
0.2863	18322.24	3.9550	3.9551	0.8945	6.91	0.94	0.750			
0.2890	18494.39	3.9520	3.9520	0.9046	6.90	0.93	0.750			
0.2917	18669.68	3.9490	3.9491	0.9126	6.90	0.93	0.750			
0.2945	18848.95	3.9460	3.9460	0.9255	6.89	0.92	0.750			
0.2972	19023.87	3.9430	3.9430	0.9270	6.89	0.92	0.750			
0.3001	19207.18	3.9400	3.9399	0.9165	6.88	0.91	0.750			
0.3028	19381.36	3.9370	3.9370	0.9316	6.87	0.90	0.750			
0.3056	19559.42	3.9340	3.9342	0.9337	6.86	0.89	0.750			
0.3084	19737.14	3.9310	3.9309	0.9382	6.85	0.88	0.750			
0.3112	19917.92	3.9280	3.9281	0.9486	6.85	0.88	0.750			
0.3140	20098.85	3.9250	3.9251	0.9574	6.84	0.87	0.750			
0.3170	20285.31	3.9220	3.9220	0.9715	6.84	0.87	0.750			
0.3199	20475.57	3.9190	3.9190	0.9766	6.83	0.86	0.750			
0.3229	20665.69	3.9160	3.9159	0.9767	6.83	0.86	0.750			
0.3259	20854.65	3.9130	3.9131	0.9951	6.82	0.85	0.750			
0.3288	21045.84	3.9100	3.9100	1.0049	6.81	0.84	0.750			
0.3318	21238.37	3.9070	3.9069	1.0155	6.81	0.84	0.750			
0.3350	21436.97	3.9040	3.9041	1.0134	6.80	0.83	0.750			
0.3380	21631.74	3.9010	3.9012	1.0249	6.79	0.82	0.750			
0.3411	21828.05	3.8980	3.8980	1.0467	6.78	0.81	0.750			
0.3442	22030.39	3.8950	3.8951	1.0632	6.78	0.81	0.750			
0.3474	22235.87	3.8920	3.8917	1.0585	6.77	0.80	0.750			
0.3506	22441.20	3.8890	3.8891	1.0716	6.76	0.79	0.750			
0.3539	22650.10	3.8860	3.8862	1.0846	6.76	0.79	0.750			
0.3572	22859.24	3.8830	3.8831	1.1024	6.75	0.78	0.750			
0.3605	23070.94	3.8800	3.8800	1.0927	6.75	0.78	0.750			
0.3637	23279.30	3.8770	3.8770	1.1160	6.74	0.77	0.750			
0.3671	23495.77	3.8740	3.8741	1.1327	6.72	0.75	0.750			
0.3706	23715.80	3.8710	3.8709	1.1565	6.71	0.74	0.750			
0.3741	23939.68	3.8680	3.8681	1.1576	6.71	0.74	0.750			
0.3775	24162.54	3.8650	3.8651	1.1735	6.70	0.73	0.750			
0.3811	24387.84	3.8620	3.8621	1.1910	6.69	0.72	0.750			
0.3847	24620.01	3.8590	3.8590	1.1898	6.69	0.72	0.750			
0.3883	24848.71	3.8560	3.8561	1.2144	6.68	0.71	0.750			
0.3919	25082.37	3.8530	3.8530	1.2428	6.67	0.70	0.750			
0.3957	25325.08	3.8500	3.8499	1.2569	6.65	0.68	0.750			
0.3995	25567.24	3.8470	3.8471	1.2830	6.64	0.67	0.750			
0.4033	25812.69	3.8440	3.8441	1.3269	6.63	0.66	0.750			
0.4074	26074.74	3.8410	3.8411	1.3597	6.62	0.65	0.750			
0.4116	26340.07	3.8380	3.8380	1.4130	6.60	0.63	0.750			
0.4159	26615.21	3.8350	3.8350	1.4364	6.59	0.62	0.750	0.402	0.942	
0.4203	26897.85	3.8320	3.8319	1.4467	6.58	0.61	0.750			
0.4248	27185.04	3.8290	3.8291	1.4661	6.57	0.60	0.750			
0.4291	27461.68	3.8260	3.8261	1.4768	6.56	0.59	0.750			
0.4336	27750.17	3.8230	3.8227	1.4723	6.55	0.58	0.750			
0.4380	28029.49	3.8200	3.8202	1.4804	6.54	0.57	0.750			
0.4424	28311.22	3.8170	3.8170	1.5273	6.52	0.55	0.750			
0.4470	28605.83	3.8140	3.8138	1.5890	6.51	0.54	0.750			
0.4518	28916.15	3.8110	3.8111	1.6131	6.49	0.52	0.750			
0.4568	29237.88	3.8080	3.8083	1.6676	6.47	0.50	0.750			
0.4620	29570.16	3.8050	3.8053	1.7070	6.45	0.48	0.750			
0.4670	29889.50	3.8020	3.8019	1.7173	6.44	0.47	0.750			
0.4721	30215.36	3.7990	3.7989	1.7753	6.43	0.46	0.750			
0.4775	30559.20	3.7960	3.7958	1.7910	6.41	0.44	0.750			
0.4829	30908.58	3.7930	3.7931	1.8158	6.39	0.42	0.750			
0.4886	31269.43	3.7900	3.7896	1.8319	6.38	0.41	0.750			
0.4941	31619.52	3.7870	3.7873	1.9261	6.36	0.39	0.750			
0.4998	31985.04	3.7840	3.7841	1.9409	6.34	0.37	0.750			
0.5058	32369.43	3.7810	3.7813	1.9684	6.32	0.35	0.750			
0.5118	32754.02	3.7780	3.7778	2.0037	6.30	0.33	0.750			
0.5178	33140.82	3.7750	3.7749	1.9979	6.28	0.31	0.750			
0.5238	33521.79	3.7720	3.7720	2.0371	6.26	0.29	0.750			
0.5297	33903.26	3.7690	3.7691	2.0163	6.24	0.27	0.750			
0.5360	34306.11	3.7660	3.7660	2.0688	6.22	0.25	0.750			
0.5423	34705.72	3.7630	3.7629	2.0867	6.20	0.23	0.750			
0.5487	35117.87	3.7600	3.7603	2.1047	6.18	0.21	0.750			
0.5551	35523.66	3.7570	3.7569	2.1328	6.16	0.19	0.750			
0.5614	35927.68	3.7540	3.7539	2.1395	6.15	0.18	0.750			
0.5680	36352.72	3.7510	3.7513	2.2018	6.14	0.17	0.750			
0.5745	36770.09	3.7480	3.7480	2.2191	6.12	0.15	0.750			
0.5812	37193.80	3.7450	3.7450	2.2529	6.08	0.11	0.750			
0.5881	37635.54	3.7420	3.7421	2.3685	6.06	0.09	0.750			
0.5952	38094.71	3.7390	3.7390	2.4191	6.05	0.08	0.750			
0.6027	38572.31	3.7360	3.7362	2.5119	6.04	0.07	0.750			
0.6105	39072.07	3.7330	3.7329	2.5763	6.02	0.05	0.750			
0.6183	39568.56	3.7300	3.7298	2.5960	6.01	0.04	0.750			
0.6260	40065.86	3.7270	3.7268	2.6227	5.99	0.02	0.750			
0.6341	40582.56	3.7240	3.7239	2.6720	5.96	-0.01	0.750			
0.6423	41107.69	3.7210	3.7211	2.6875	5.95	-0.02	0.750			
0.6503	41620.28	3.7180	3.7178	2.5568	5.94	-0.03	0.750			
0.6577	42091.98	3.7150	3.7150	2.3555	5.93	-0.04	0.750			
0.6645	42530.26	3.7120	3.7119	2.2114	5.93	-0.04	0.750			
0.6710	42943.25	3.7090	3.7087	2.0268	5.93	-0.04	0.750			
0.6767	43307.98	3.7060	3.7063	1.8106	5.93	-0.04	0.750			
0.6817	43627.69	3.7030	3.7033	1.5977	5.93	-0.04	0.750			
0.6861	43909.41	3.7000	3.7001	1.4160	5.93	-0.04	0.750			
0.6900	44160.41	3.6970	3.6970	1.2540	5.93	-0.04	0.750			
0.6934	44376.97	3.6940	3.6941	1.1308	5.93	-0.04	0.750			
0.6965	44579.06	3.6910	3.6906	1.0346	5.93	-0.04	0.750			
0.6994	44763.47	3.6880	3.6880	0.9515	5.93	-0.04	0.750			
0.7021	44934.54	3.6850	3.6850	0.8929	5.93	-0.04	0.750			
0.7047	45097.74	3.6820	3.6820	0.8494	5.93	-0.04	0.750			
0.7071	45255.66	3.6790	3.6791	0.8106	5.93	-0.04	0.750			
0.7095	45409.73	3.6760	3.6758	0.7818	5.93	-0.04	0.750			
0.7118	45558.12	3.6730	3.6731	0.7470	5.94	-0.03	0.750			
0.7140	45698.63	3.6700	3.6700	0.7088	5.95	-0.02	0.750			
0.7161	45833.35	3.6670	3.6671	0.6674	5.95	-0.02	0.750			
0.7181	45956.52	3.6640	3.6640	0.6164	5.96	-0.01	0.750			
0.7199	46071.52	3.6610	3.6611	0.5749	5.96	-0.01	0.750			
0.7215	46177.16	3.6580	3.6576	0.5316	5.97	-0.00	0.750			
0.7230	46273.87	3.6550	3.6550	0.4894	5.97	0.00	0.750			
0.7244	46363.40	3.6520	3.6519	0.4518	5.98	0.01	0.750			
0.7257	46446.52	3.6490	3.6491	0.4135	5.98	0.01	0.750			
0.7269	46522.74	3.6460	3.6460	0.3765	5.99	0.02	0.750			
0.7280	46591.53	3.6430	3.6430	0.3395	5.99	0.02	0.750			
0.7289	46652.76	3.6400	3.6401	0.3020	5.99	0.02	0.750			
0.7298	46706.34	3.6370	3.6369	0.2639	6.00	0.03	0.750			
0.7305	46753.82	3.6340	3.6339	0.2262	6.00	0.03	0.750			
0.7311	46793.35	3.6310	3.6309	0.1873	6.00	0.03	0.750			
0.7317	46826.72	3.6280	3.6280	0.1525	6.00	0.03	0.750			
0.7321	46852.28	3.6250	3.6252	0.1137	6.00	0.03	0.750			
0.7324	46870.60	3.6220	3.6224	0.0749	6.00	0.03	0.750			
0.7325	46882.10	3.6190	3.6196	0.0333	6.00	0.03	0.750			
0.7326	46884.50	3.6160	3.6179	-0.0083	6.01	0.04	0.750			
