Ah_balance (normalized)	Ah_balance (mAh)	Voltage - fit (V)	Voltage -  interpolate (V)	dQ/dV (1/V)	Temperature (°C)	Temperature - diff (°C)	Current (C)	R_DC 0ms (mOhm)	R_DC 50ms (mOhm)	R_DC 50 ms PEC (mOhm)
0.0983	6289.66	4.0020	4.0052	-0.2020	5.98	0.02	-0.750			
0.0989	6327.99	3.9990	3.9996	-0.1972	5.98	0.02	-0.750			
0.0994	6362.63	3.9960	3.9959	-0.1936	5.98	0.02	-0.750			
0.1000	6398.76	3.9930	3.9929	-0.2044	5.98	0.02	-0.750			
0.1006	6436.15	3.9900	3.9899	-0.2121	5.98	0.02	-0.750			
0.1012	6479.31	3.9870	3.9870	-0.2330	5.98	0.02	-0.750			
0.1020	6525.94	3.9840	3.9840	-0.2561	5.97	0.01	-0.750			
0.1028	6577.07	3.9810	3.9811	-0.2786	5.97	0.01	-0.750			
0.1036	6633.01	3.9780	3.9779	-0.3006	5.97	0.01	-0.750			
0.1046	6692.84	3.9750	3.9749	-0.3262	5.97	0.01	-0.750			
0.1056	6757.81	3.9720	3.9721	-0.3485	5.97	0.01	-0.750			
0.1067	6827.75	3.9690	3.9689	-0.3724	5.96	0.00	-0.750			
0.1078	6901.47	3.9660	3.9662	-0.3945	5.96	0.00	-0.750			
0.1090	6978.22	3.9630	3.9629	-0.4178	5.96	-0.00	-0.750			
0.1103	7061.21	3.9600	3.9601	-0.4398	5.95	-0.01	-0.750			
0.1117	7147.40	3.9570	3.9569	-0.4639	5.95	-0.01	-0.750			
0.1131	7238.68	3.9540	3.9540	-0.4839	5.95	-0.01	-0.750			
0.1146	7334.19	3.9510	3.9511	-0.5134	5.94	-0.02	-0.750			
0.1162	7436.79	3.9480	3.9480	-0.5302	5.94	-0.02	-0.750			
0.1178	7541.46	3.9450	3.9449	-0.5512	5.94	-0.02	-0.750			
0.1195	7649.55	3.9420	3.9420	-0.5671	5.93	-0.03	-0.750			
0.1213	7760.68	3.9390	3.9390	-0.5851	5.93	-0.03	-0.750			
0.1230	7873.38	3.9360	3.9359	-0.5989	5.93	-0.03	-0.750			
0.1249	7990.73	3.9330	3.9330	-0.6125	5.92	-0.04	-0.750			
0.1267	8108.61	3.9300	3.9300	-0.6233	5.92	-0.04	-0.750			
0.1286	8231.85	3.9270	3.9270	-0.6374	5.92	-0.04	-0.750			
0.1306	8355.30	3.9240	3.9240	-0.6415	5.91	-0.05	-0.750			
0.1325	8479.14	3.9210	3.9210	-0.6512	5.91	-0.05	-0.750			
0.1344	8603.60	3.9180	3.9180	-0.6589	5.91	-0.05	-0.750			
0.1364	8730.70	3.9150	3.9149	-0.6690	5.91	-0.05	-0.750			
0.1384	8860.16	3.9120	3.9120	-0.6800	5.91	-0.05	-0.750			
0.1405	8992.29	3.9090	3.9089	-0.6866	5.92	-0.04	-0.750			
0.1426	9127.19	3.9060	3.9061	-0.6969	5.92	-0.04	-0.750			
0.1447	9262.39	3.9030	3.9029	-0.7013	5.92	-0.04	-0.750			
0.1468	9396.09	3.9000	3.9000	-0.7042	5.92	-0.04	-0.750			
0.1489	9531.99	3.8970	3.8970	-0.7082	5.92	-0.04	-0.750			
0.1510	9666.69	3.8940	3.8940	-0.7149	5.92	-0.04	-0.750			
0.1532	9805.40	3.8910	3.8910	-0.7183	5.91	-0.05	-0.750			
0.1554	9945.90	3.8880	3.8880	-0.7237	5.91	-0.05	-0.750			
0.1576	10084.42	3.8850	3.8852	-0.7236	5.91	-0.05	-0.750			
0.1597	10223.27	3.8820	3.8820	-0.7285	5.91	-0.05	-0.750			
0.1619	10362.75	3.8790	3.8789	-0.7308	5.92	-0.04	-0.750			
0.1641	10502.90	3.8760	3.8760	-0.7348	5.92	-0.04	-0.750			
0.1663	10644.18	3.8730	3.8731	-0.7393	5.92	-0.04	-0.750			
0.1686	10789.97	3.8700	3.8700	-0.7471	5.93	-0.03	-0.750			
0.1708	10933.25	3.8670	3.8671	-0.7471	5.93	-0.03	-0.750			
0.1731	11076.38	3.8640	3.8640	-0.7484	5.93	-0.03	-0.750			
0.1753	11219.66	3.8610	3.8610	-0.7495	5.93	-0.03	-0.750			
0.1776	11366.31	3.8580	3.8579	-0.7433	5.94	-0.02	-0.750			
0.1798	11509.17	3.8550	3.8550	-0.7446	5.94	-0.02	-0.750			
0.1820	11649.63	3.8520	3.8519	-0.7473	5.94	-0.02	-0.750			
0.1843	11793.22	3.8490	3.8491	-0.7510	5.94	-0.02	-0.750			
0.1865	11937.05	3.8460	3.8458	-0.7543	5.95	-0.01	-0.750			
0.1888	12081.71	3.8430	3.8430	-0.7569	5.95	-0.01	-0.750			
0.1911	12229.17	3.8400	3.8401	-0.7548	5.96	-0.00	-0.750			
0.1934	12377.23	3.8370	3.8370	-0.7617	5.96	0.00	-0.750			
0.1957	12522.36	3.8340	3.8342	-0.7604	5.97	0.01	-0.750			
0.1979	12667.91	3.8310	3.8310	-0.7610	5.97	0.01	-0.750			
0.2002	12814.97	3.8280	3.8278	-0.7585	5.98	0.02	-0.750			
0.2025	12960.11	3.8250	3.8250	-0.7590	5.98	0.02	-0.750			
0.2048	13108.02	3.8220	3.8221	-0.7594	5.98	0.02	-0.750			
0.2071	13252.42	3.8190	3.8190	-0.7583	5.99	0.03	-0.750			
0.2093	13397.71	3.8160	3.8158	-0.7539	5.99	0.03	-0.750			
0.2116	13540.26	3.8130	3.8130	-0.7610	6.00	0.04	-0.750			
0.2138	13686.21	3.8100	3.8101	-0.7632	6.00	0.04	-0.750			
0.2162	13835.26	3.8070	3.8069	-0.7631	6.00	0.04	-0.750			
0.2185	13984.13	3.8040	3.8040	-0.7635	6.01	0.05	-0.750			
0.2208	14129.50	3.8010	3.8013	-0.7657	6.01	0.05	-0.750			
0.2230	14274.76	3.7980	3.7981	-0.7676	6.01	0.05	-0.750			
0.2254	14422.58	3.7950	3.7949	-0.7719	6.02	0.06	-0.750			
0.2277	14570.92	3.7920	3.7920	-0.7684	6.02	0.06	-0.750			
0.2300	14721.39	3.7890	3.7890	-0.7682	6.03	0.07	-0.750			
0.2323	14868.63	3.7860	3.7861	-0.7660	6.03	0.07	-0.750			
0.2346	15015.36	3.7830	3.7830	-0.7633	6.04	0.08	-0.750			
0.2369	15160.02	3.7800	3.7799	-0.7577	6.04	0.08	-0.750			
0.2391	15302.69	3.7770	3.7770	-0.7599	6.05	0.09	-0.750			
0.2414	15450.54	3.7740	3.7740	-0.7589	6.06	0.10	-0.750			
0.2437	15598.72	3.7710	3.7710	-0.7674	6.06	0.10	-0.750			
0.2460	15745.41	3.7680	3.7682	-0.7705	6.07	0.11	-0.750			
0.2483	15892.44	3.7650	3.7649	-0.7705	6.07	0.11	-0.750			
0.2506	16041.54	3.7620	3.7619	-0.7778	6.07	0.11	-0.750			
0.2530	16191.14	3.7590	3.7590	-0.7749	6.08	0.12	-0.750			
0.2554	16343.02	3.7560	3.7559	-0.7829	6.08	0.12	-0.750			
0.2577	16493.79	3.7530	3.7531	-0.7841	6.08	0.12	-0.750			
0.2600	16641.84	3.7500	3.7500	-0.7853	6.08	0.12	-0.750			
0.2624	16792.63	3.7470	3.7469	-0.7916	6.09	0.13	-0.750			
0.2648	16944.21	3.7440	3.7440	-0.7965	6.10	0.14	-0.750			
0.2672	17098.92	3.7410	3.7409	-0.8079	6.10	0.14	-0.750			
0.2696	17255.68	3.7380	3.7380	-0.8082	6.11	0.15	-0.750			
0.2721	17412.06	3.7350	3.7349	-0.8108	6.11	0.15	-0.750			
0.2745	17566.29	3.7320	3.7320	-0.8151	6.12	0.16	-0.750			
0.2769	17723.44	3.7290	3.7291	-0.8140	6.12	0.16	-0.750			
0.2794	17879.00	3.7260	3.7259	-0.8130	6.12	0.16	-0.750			
0.2818	18034.90	3.7230	3.7230	-0.8185	6.13	0.17	-0.750			
0.2843	18192.04	3.7200	3.7199	-0.8245	6.13	0.17	-0.750			
0.2867	18351.29	3.7170	3.7170	-0.8384	6.14	0.18	-0.750			
0.2893	18512.04	3.7140	3.7140	-0.8452	6.14	0.18	-0.750			
0.2918	18675.02	3.7110	3.7110	-0.8515	6.14	0.18	-0.750			
0.2944	18842.69	3.7080	3.7079	-0.8564	6.15	0.19	-0.750			
0.2970	19007.94	3.7050	3.7049	-0.8612	6.15	0.19	-0.750			
0.2996	19172.00	3.7020	3.7020	-0.8680	6.15	0.19	-0.750			
0.3022	19338.42	3.6990	3.6988	-0.8679	6.16	0.20	-0.750			
0.3048	19504.08	3.6960	3.6960	-0.8707	6.16	0.20	-0.750			
0.3074	19673.54	3.6930	3.6930	-0.8872	6.16	0.20	-0.750			
0.3101	19844.31	3.6900	3.6900	-0.8988	6.16	0.20	-0.750			
0.3128	20018.18	3.6870	3.6870	-0.9101	6.16	0.20	-0.750			
0.3155	20193.02	3.6840	3.6839	-0.9107	6.17	0.21	-0.750			
0.3183	20368.67	3.6810	3.6811	-0.9193	6.17	0.21	-0.750			
0.3211	20547.64	3.6780	3.6782	-0.9362	6.17	0.21	-0.750			
0.3239	20727.53	3.6750	3.6748	-0.9476	6.17	0.21	-0.750			
0.3267	20911.02	3.6720	3.6719	-0.9495	6.17	0.21	-0.750			
0.3296	21095.50	3.6690	3.6690	-0.9549	6.17	0.21	-0.750			
0.3325	21280.54	3.6660	3.6663	-0.9619	6.17	0.21	-0.750			
0.3354	21465.46	3.6630	3.6629	-0.9777	6.17	0.21	-0.750			
0.3383	21650.79	3.6600	3.6599	-0.9820	6.18	0.22	-0.750			
0.3412	21838.74	3.6570	3.6569	-0.9930	6.18	0.22	-0.750			
0.3442	22029.77	3.6540	3.6540	-1.0028	6.19	0.23	-0.750			
0.3473	22228.18	3.6510	3.6510	-1.0276	6.19	0.23	-0.750			
0.3504	22425.97	3.6480	3.6480	-1.0377	6.19	0.23	-0.750			
0.3535	22625.93	3.6450	3.6449	-1.0465	6.19	0.23	-0.750			
0.3567	22827.07	3.6420	3.6420	-1.0507	6.19	0.23	-0.750			
0.3599	23032.15	3.6390	3.6390	-1.0751	6.19	0.23	-0.750			
0.3631	23241.19	3.6360	3.6360	-1.0850	6.20	0.24	-0.750			
0.3664	23450.92	3.6330	3.6329	-1.0863	6.20	0.24	-0.750			
0.3697	23658.63	3.6300	3.6302	-1.0888	6.21	0.25	-0.750			
0.3730	23869.12	3.6270	3.6270	-1.1119	6.21	0.25	-0.750			
0.3763	24084.99	3.6240	3.6237	-1.1195	6.21	0.25	-0.750			
0.3797	24301.25	3.6210	3.6209	-1.1219	6.22	0.26	-0.750			
0.3830	24512.23	3.6180	3.6186	-1.1429	6.22	0.26	-0.750			
0.3866	24740.14	3.6150	3.6149	-1.1595	6.22	0.26	-0.750			
0.3901	24965.11	3.6120	3.6118	-1.1651	6.23	0.27	-0.750			
0.3935	25184.82	3.6090	3.6089	-1.1734	6.23	0.27	-0.750			
0.3971	25412.76	3.6060	3.6061	-1.2045	6.23	0.27	-0.750			
0.4007	25647.04	3.6030	3.6028	-1.2224	6.23	0.27	-0.750			
0.4044	25884.76	3.6000	3.5998	-1.2322	6.23	0.27	-0.750			
0.4081	26121.03	3.5970	3.5973	-1.2254	6.23	0.27	-0.750			
0.4119	26363.71	3.5940	3.5940	-1.2414	6.23	0.27	-0.750	0.523	1.149	
0.4157	26602.10	3.5910	3.5909	-1.2498	6.23	0.27	-0.750			
0.4193	26838.06	3.5880	3.5878	-1.2699	6.23	0.27	-0.750			
0.4232	27085.29	3.5850	3.5848	-1.2659	6.23	0.27	-0.750			
0.4269	27323.52	3.5820	3.5820	-1.2876	6.23	0.27	-0.750			
0.4309	27575.17	3.5790	3.5791	-1.3264	6.23	0.27	-0.750			
0.4350	27837.95	3.5760	3.5757	-1.3251	6.23	0.27	-0.750			
0.4389	28091.59	3.5730	3.5724	-1.3497	6.24	0.28	-0.750			
0.4429	28347.27	3.5700	3.5701	-1.3843	6.25	0.29	-0.750			
0.4471	28616.18	3.5670	3.5666	-1.3913	6.25	0.29	-0.750			
0.4516	28900.87	3.5640	3.5643	-1.4300	6.25	0.29	-0.750			
0.4558	29170.63	3.5610	3.5611	-1.4243	6.25	0.29	-0.750			
0.4602	29452.59	3.5580	3.5579	-1.4558	6.25	0.29	-0.750			
0.4645	29724.88	3.5550	3.5549	-1.4332	6.25	0.29	-0.750			
0.4687	29995.82	3.5520	3.5519	-1.4536	6.25	0.29	-0.750			
0.4730	30272.84	3.5490	3.5488	-1.4675	6.25	0.29	-0.750			
0.4775	30562.81	3.5460	3.5458	-1.4810	6.26	0.30	-0.750			
0.4820	30848.63	3.5430	3.5430	-1.4948	6.26	0.30	-0.750			
0.4865	31132.89	3.5400	3.5401	-1.5049	6.26	0.30	-0.750			
0.4911	31428.30	3.5370	3.5369	-1.5176	6.27	0.31	-0.750			
0.4956	31719.47	3.5340	3.5342	-1.5380	6.27	0.31	-0.750			
0.5002	32013.06	3.5310	3.5307	-1.5383	6.27	0.31	-0.750			
0.5050	32316.92	3.5280	3.5281	-1.5607	6.27	0.31	-0.750			
0.5097	32621.17	3.5250	3.5250	-1.5902	6.27	0.31	-0.750			
0.5145	32928.19	3.5220	3.5219	-1.5937	6.28	0.32	-0.750			
0.5192	33230.31	3.5190	3.5191	-1.5830	6.29	0.33	-0.750			
0.5240	33539.11	3.5160	3.5159	-1.5855	6.29	0.33	-0.750			
0.5289	33848.90	3.5130	3.5128	-1.6108	6.30	0.34	-0.750			
0.5337	34158.02	3.5100	3.5101	-1.6173	6.30	0.34	-0.750			
0.5385	34467.11	3.5070	3.5070	-1.6265	6.30	0.34	-0.750			
0.5435	34782.27	3.5040	3.5040	-1.6273	6.31	0.35	-0.750			
0.5484	35096.17	3.5010	3.5008	-1.6107	6.31	0.35	-0.750			
0.5533	35408.38	3.4980	3.4977	-1.6140	6.32	0.36	-0.750			
0.5580	35711.69	3.4950	3.4952	-1.6090	6.33	0.37	-0.750			
0.5628	36020.22	3.4920	3.4920	-1.5868	6.34	0.38	-0.750			
0.5676	36325.83	3.4890	3.4888	-1.5886	6.35	0.39	-0.750			
0.5723	36626.86	3.4860	3.4860	-1.5782	6.35	0.39	-0.750			
0.5771	36935.04	3.4830	3.4831	-1.6003	6.35	0.39	-0.750			
0.5819	37240.81	3.4800	3.4802	-1.5793	6.35	0.39	-0.750			
0.5866	37541.22	3.4770	3.4769	-1.5687	6.36	0.40	-0.750			
0.5913	37843.79	3.4740	3.4739	-1.5585	6.38	0.42	-0.750			
0.5960	38144.23	3.4710	3.4713	-1.5514	6.39	0.43	-0.750			
0.6006	38438.39	3.4680	3.4679	-1.5268	6.40	0.44	-0.750			
0.6051	38729.31	3.4650	3.4651	-1.5307	6.41	0.45	-0.750			
0.6098	39024.79	3.4620	3.4620	-1.5304	6.42	0.46	-0.750			
0.6143	39316.66	3.4590	3.4588	-1.5043	6.43	0.47	-0.750			
0.6188	39604.16	3.4560	3.4562	-1.4900	6.44	0.48	-0.750			
0.6233	39894.39	3.4530	3.4527	-1.4707	6.46	0.50	-0.750			
0.6278	40176.01	3.4500	3.4500	-1.4478	6.48	0.52	-0.750			
0.6320	40447.97	3.4470	3.4471	-1.4260	6.51	0.55	-0.750			
0.6362	40719.33	3.4440	3.4438	-1.4032	6.52	0.56	-0.750			
0.6404	40983.36	3.4410	3.4410	-1.3628	6.53	0.57	-0.750			
0.6445	41247.42	3.4380	3.4381	-1.3610	6.54	0.58	-0.750			
0.6485	41504.38	3.4350	3.4351	-1.3338	6.55	0.59	-0.750			
0.6526	41766.37	3.4320	3.4318	-1.3177	6.57	0.61	-0.750			
0.6564	42011.30	3.4290	3.4291	-1.3003	6.58	0.62	-0.750			
0.6603	42257.07	3.4260	3.4259	-1.2661	6.60	0.64	-0.750			
0.6641	42501.39	3.4230	3.4229	-1.2533	6.62	0.66	-0.750			
0.6678	42740.42	3.4200	3.4199	-1.2243	6.64	0.68	-0.750			
0.6714	42970.68	3.4170	3.4173	-1.1914	6.65	0.69	-0.750			
0.6751	43204.10	3.4140	3.4139	-1.1752	6.67	0.71	-0.750			
0.6785	43426.09	3.4110	3.4110	-1.1447	6.69	0.73	-0.750			
0.6819	43640.63	3.4080	3.4080	-1.1223	6.70	0.74	-0.750			
0.6852	43850.91	3.4050	3.4049	-1.0907	6.72	0.76	-0.750			
0.6884	44057.66	3.4020	3.4019	-1.0633	6.74	0.78	-0.750			
0.6916	44260.74	3.3990	3.3990	-1.0381	6.75	0.79	-0.750			
0.6946	44456.89	3.3960	3.3962	-1.0089	6.77	0.81	-0.750			
0.6976	44648.55	3.3930	3.3929	-0.9936	6.78	0.82	-0.750			
0.7006	44838.84	3.3900	3.3899	-0.9605	6.79	0.83	-0.750			
0.7034	45019.22	3.3870	3.3869	-0.9290	6.81	0.85	-0.750			
0.7062	45195.37	3.3840	3.3839	-0.9024	6.82	0.86	-0.750			
0.7089	45367.59	3.3810	3.3811	-0.8801	6.84	0.88	-0.750			
0.7114	45532.53	3.3780	3.3778	-0.8564	6.85	0.89	-0.750			
0.7139	45692.45	3.3750	3.3750	-0.8307	6.87	0.91	-0.750			
0.7164	45848.42	3.3720	3.3720	-0.8036	6.88	0.92	-0.750			
0.7188	46005.07	3.3690	3.3690	-0.7921	6.90	0.94	-0.750			
0.7212	46155.29	3.3660	3.3660	-0.7673	6.91	0.95	-0.750			
0.7234	46300.51	3.3630	3.3631	-0.7410	6.93	0.97	-0.750			
0.7256	46440.08	3.3600	3.3600	-0.7148	6.94	0.98	-0.750			
