Ah_balance (normalized)	Ah_balance (mAh)	Voltage - fit (V)	Voltage -  interpolate (V)	dQ/dV (1/V)	Temperature (°C)	Temperature - diff (°C)	Current (C)	R_DC 0ms (mOhm)	R_DC 50ms (mOhm)	R_DC 50 ms PEC (mOhm)
0.1794	11481.68	4.0810	4.0810	0.7601	7.62	1.63	0.750			
0.1817	11628.33	4.0780	4.0781	0.7642	7.61	1.62	0.750			
0.1840	11775.55	4.0750	4.0749	0.7649	7.61	1.62	0.750			
0.1863	11921.83	4.0720	4.0720	0.7686	7.61	1.62	0.750			
0.1886	12069.95	4.0690	4.0691	0.7665	7.60	1.61	0.750			
0.1909	12216.43	4.0660	4.0659	0.7703	7.60	1.61	0.750			
0.1932	12364.76	4.0630	4.0630	0.7745	7.59	1.60	0.750			
0.1955	12513.86	4.0600	4.0598	0.7782	7.59	1.60	0.750			
0.1979	12663.62	4.0570	4.0570	0.7819	7.58	1.59	0.750			
0.2002	12815.06	4.0540	4.0540	0.7822	7.58	1.59	0.750			
0.2026	12964.15	4.0510	4.0511	0.7850	7.57	1.58	0.750			
0.2049	13116.00	4.0480	4.0479	0.7913	7.56	1.57	0.750			
0.2073	13266.90	4.0450	4.0450	0.7922	7.55	1.56	0.750			
0.2097	13419.81	4.0420	4.0420	0.7979	7.55	1.56	0.750			
0.2121	13575.64	4.0390	4.0390	0.7951	7.54	1.55	0.750			
0.2145	13727.58	4.0360	4.0360	0.8005	7.54	1.55	0.750			
0.2169	13881.75	4.0330	4.0330	0.8037	7.54	1.55	0.750			
0.2193	14034.95	4.0300	4.0300	0.8050	7.53	1.54	0.750			
0.2217	14188.41	4.0270	4.0271	0.8103	7.53	1.54	0.750			
0.2241	14344.97	4.0240	4.0241	0.8161	7.52	1.53	0.750			
0.2266	14502.55	4.0210	4.0210	0.8241	7.52	1.53	0.750			
0.2291	14662.45	4.0180	4.0180	0.8310	7.52	1.53	0.750			
0.2316	14821.97	4.0150	4.0150	0.8291	7.51	1.52	0.750			
0.2341	14983.09	4.0120	4.0120	0.8329	7.51	1.52	0.750			
0.2366	15144.64	4.0090	4.0090	0.8263	7.50	1.51	0.750			
0.2391	15301.54	4.0060	4.0060	0.8297	7.49	1.50	0.750			
0.2416	15459.74	4.0030	4.0030	0.8349	7.48	1.49	0.750			
0.2440	15619.06	4.0000	4.0000	0.8384	7.48	1.49	0.750			
0.2466	15779.96	3.9970	3.9971	0.8449	7.47	1.48	0.750			
0.2491	15944.64	3.9940	3.9941	0.8457	7.46	1.47	0.750			
0.2517	16108.36	3.9910	3.9911	0.8534	7.46	1.47	0.750			
0.2543	16272.75	3.9880	3.9880	0.8592	7.46	1.47	0.750			
0.2568	16435.26	3.9850	3.9850	0.8599	7.45	1.46	0.750			
0.2594	16602.06	3.9820	3.9820	0.8645	7.45	1.46	0.750			
0.2620	16768.92	3.9790	3.9790	0.8676	7.44	1.45	0.750			
0.2646	16936.52	3.9760	3.9761	0.8752	7.43	1.44	0.750			
0.2673	17105.82	3.9730	3.9729	0.8798	7.42	1.43	0.750			
0.2699	17273.90	3.9700	3.9699	0.8779	7.41	1.42	0.750			
0.2726	17443.23	3.9670	3.9670	0.8804	7.41	1.42	0.750			
0.2752	17612.21	3.9640	3.9641	0.8802	7.40	1.41	0.750			
0.2778	17780.53	3.9610	3.9610	0.8898	7.39	1.40	0.750			
0.2805	17950.30	3.9580	3.9580	0.8964	7.39	1.40	0.750			
0.2832	18122.05	3.9550	3.9548	0.9038	7.38	1.39	0.750			
0.2859	18297.75	3.9520	3.9520	0.9100	7.37	1.38	0.750			
0.2887	18473.63	3.9490	3.9491	0.9213	7.36	1.37	0.750			
0.2915	18653.38	3.9460	3.9460	0.9290	7.35	1.36	0.750			
0.2942	18831.12	3.9430	3.9431	0.9298	7.34	1.35	0.750			
0.2970	19010.61	3.9400	3.9400	0.9329	7.34	1.35	0.750			
0.2998	19188.61	3.9370	3.9371	0.9415	7.33	1.34	0.750			
0.3027	19370.63	3.9340	3.9340	0.9502	7.32	1.33	0.750			
0.3055	19554.40	3.9310	3.9310	0.9587	7.32	1.33	0.750			
0.3084	19737.42	3.9280	3.9279	0.9634	7.31	1.32	0.750			
0.3113	19924.98	3.9250	3.9251	0.9683	7.30	1.31	0.750			
0.3142	20110.37	3.9220	3.9220	0.9773	7.28	1.29	0.750			
0.3172	20299.82	3.9190	3.9190	0.9822	7.27	1.28	0.750			
0.3201	20487.69	3.9160	3.9159	0.9835	7.25	1.26	0.750			
0.3231	20678.28	3.9130	3.9130	0.9889	7.25	1.26	0.750			
0.3261	20867.60	3.9100	3.9101	1.0021	7.24	1.25	0.750			
0.3291	21059.65	3.9070	3.9070	1.0150	7.24	1.25	0.750			
0.3321	21256.18	3.9040	3.9038	1.0245	7.23	1.24	0.750			
0.3352	21454.79	3.9010	3.9011	1.0299	7.22	1.23	0.750			
0.3384	21655.05	3.8980	3.8980	1.0471	7.21	1.22	0.750			
0.3415	21856.15	3.8950	3.8950	1.0586	7.20	1.21	0.750			
0.3447	22059.81	3.8920	3.8919	1.0701	7.19	1.20	0.750			
0.3479	22264.74	3.8890	3.8890	1.0724	7.18	1.19	0.750			
0.3511	22471.93	3.8860	3.8861	1.0875	7.16	1.17	0.750			
0.3544	22682.50	3.8830	3.8831	1.1054	7.15	1.16	0.750			
0.3578	22898.43	3.8800	3.8797	1.1164	7.13	1.14	0.750			
0.3611	23111.09	3.8770	3.8771	1.1254	7.12	1.13	0.750			
0.3645	23328.39	3.8740	3.8740	1.1421	7.11	1.12	0.750			
0.3680	23550.51	3.8710	3.8710	1.1575	7.10	1.11	0.750			
0.3715	23773.05	3.8680	3.8681	1.1632	7.09	1.10	0.750			
0.3750	23998.52	3.8650	3.8650	1.1857	7.08	1.09	0.750			
0.3786	24228.43	3.8620	3.8620	1.2001	7.06	1.07	0.750			
0.3822	24462.23	3.8590	3.8589	1.2126	7.05	1.06	0.750			
0.3859	24694.42	3.8560	3.8561	1.2290	7.04	1.05	0.750			
0.3895	24929.81	3.8530	3.8530	1.2422	7.03	1.04	0.750			
0.3932	25167.91	3.8500	3.8500	1.2769	7.02	1.03	0.750			
0.3971	25412.94	3.8470	3.8471	1.3097	7.01	1.02	0.750			
0.4010	25666.86	3.8440	3.8437	1.3463	6.99	1.00	0.750			
0.4052	25933.74	3.8410	3.8411	1.3744	6.98	0.99	0.750	0.388	0.888	
0.4094	26204.79	3.8380	3.8381	1.4018	6.97	0.98	0.750			
0.4137	26476.55	3.8350	3.8350	1.4284	6.95	0.96	0.750			
0.4179	26745.48	3.8320	3.8320	1.4221	6.93	0.94	0.750			
0.4222	27018.67	3.8290	3.8290	1.4527	6.91	0.92	0.750			
0.4266	27300.44	3.8260	3.8259	1.4737	6.90	0.91	0.750			
0.4311	27588.02	3.8230	3.8231	1.4863	6.88	0.89	0.750			
0.4355	27873.80	3.8200	3.8201	1.5239	6.86	0.87	0.750			
0.4402	28172.24	3.8170	3.8169	1.5405	6.84	0.85	0.750			
0.4447	28463.46	3.8140	3.8139	1.5684	6.81	0.82	0.750			
0.4495	28768.74	3.8110	3.8112	1.5984	6.80	0.81	0.750			
0.4544	29083.97	3.8080	3.8078	1.6400	6.78	0.79	0.750			
0.4594	29400.72	3.8050	3.8049	1.6743	6.77	0.78	0.750			
0.4644	29721.20	3.8020	3.8020	1.6924	6.75	0.76	0.750			
0.4696	30056.72	3.7990	3.7989	1.7334	6.73	0.74	0.750			
0.4748	30384.26	3.7960	3.7961	1.7585	6.71	0.72	0.750			
0.4801	30725.83	3.7930	3.7932	1.7783	6.69	0.70	0.750			
0.4855	31073.04	3.7900	3.7899	1.7929	6.66	0.67	0.750			
0.4908	31412.95	3.7870	3.7871	1.8139	6.65	0.66	0.750			
0.4963	31762.95	3.7840	3.7841	1.8121	6.63	0.64	0.750			
0.5017	32110.21	3.7810	3.7809	1.8347	6.60	0.61	0.750			
0.5074	32470.92	3.7780	3.7779	1.8608	6.57	0.58	0.750			
0.5129	32825.53	3.7750	3.7750	1.8639	6.56	0.57	0.750			
0.5185	33185.33	3.7720	3.7721	1.8813	6.54	0.55	0.750			
0.5242	33551.35	3.7690	3.7689	1.9065	6.51	0.52	0.750			
0.5299	33914.74	3.7660	3.7660	1.9259	6.47	0.48	0.750			
0.5357	34287.66	3.7630	3.7630	1.9592	6.44	0.45	0.750			
0.5417	34669.88	3.7600	3.7600	1.9577	6.42	0.43	0.750			
0.5476	35044.30	3.7570	3.7570	1.9814	6.40	0.41	0.750			
0.5535	35424.88	3.7540	3.7541	1.9957	6.39	0.40	0.750			
0.5595	35804.81	3.7510	3.7510	2.0352	6.36	0.37	0.750			
0.5657	36201.70	3.7480	3.7480	2.0920	6.33	0.34	0.750			
0.5720	36608.51	3.7450	3.7450	2.1858	6.31	0.32	0.750			
0.5786	37031.38	3.7420	3.7420	2.2776	6.28	0.29	0.750			
0.5857	37484.69	3.7390	3.7390	2.3216	6.26	0.27	0.750			
0.5928	37937.77	3.7360	3.7360	2.3380	6.22	0.23	0.750			
0.5997	38380.16	3.7330	3.7330	2.3461	6.20	0.21	0.750			
0.6068	38837.38	3.7300	3.7299	2.3716	6.17	0.18	0.750			
0.6139	39289.49	3.7270	3.7271	2.4095	6.15	0.16	0.750			
0.6213	39760.56	3.7240	3.7241	2.3566	6.13	0.14	0.750			
0.6284	40217.22	3.7210	3.7211	2.2419	6.11	0.12	0.750			
0.6349	40633.07	3.7180	3.7180	2.0776	6.08	0.09	0.750			
0.6409	41020.23	3.7150	3.7149	1.9129	6.07	0.08	0.750			
0.6463	41361.32	3.7120	3.7119	1.7021	6.05	0.06	0.750			
0.6511	41668.80	3.7090	3.7092	1.5266	6.04	0.05	0.750			
0.6554	41946.81	3.7060	3.7060	1.3980	6.03	0.04	0.750			
0.6594	42198.77	3.7030	3.7029	1.2673	6.03	0.04	0.750			
0.6630	42429.58	3.7000	3.7000	1.1520	6.01	0.02	0.750			
0.6663	42640.93	3.6970	3.6969	1.0442	6.00	0.01	0.750			
0.6692	42829.47	3.6940	3.6941	0.9546	5.99	0.00	0.750			
0.6718	42997.21	3.6910	3.6912	0.8697	5.99	0.00	0.750			
0.6741	43145.17	3.6880	3.6887	0.8194	5.99	0.00	0.750			
0.6764	43290.80	3.6850	3.6844	0.8042	5.99	0.00	0.750			
0.6787	43436.73	3.6820	3.6821	0.7930	5.99	0.00	0.750			
0.6812	43593.81	3.6790	3.6791	0.7947	5.99	0.00	0.750			
0.6836	43752.91	3.6760	3.6759	0.8030	5.99	-0.00	0.750			
0.6861	43912.85	3.6730	3.6731	0.7891	5.99	-0.00	0.750			
0.6885	44065.20	3.6700	3.6700	0.7532	5.99	-0.00	0.750			
0.6907	44204.57	3.6670	3.6670	0.7182	5.98	-0.01	0.750			
0.6928	44337.28	3.6640	3.6641	0.6806	5.98	-0.01	0.750			
0.6947	44462.83	3.6610	3.6611	0.6534	5.98	-0.01	0.750			
0.6967	44585.86	3.6580	3.6579	0.6247	5.98	-0.01	0.750			
0.6985	44702.97	3.6550	3.6551	0.5959	5.98	-0.01	0.750			
0.7003	44816.63	3.6520	3.6522	0.5680	5.98	-0.01	0.750			
0.7019	44924.46	3.6490	3.6490	0.5367	5.98	-0.01	0.750			
0.7035	45025.43	3.6460	3.6459	0.4934	5.99	-0.00	0.750			
0.7049	45115.04	3.6430	3.6431	0.4614	5.99	-0.00	0.750			
0.7062	45199.64	3.6400	3.6400	0.4266	5.99	-0.00	0.750			
0.7075	45279.33	3.6370	3.6372	0.3955	5.99	-0.00	0.750			
0.7086	45351.83	3.6340	3.6336	0.3598	5.99	0.00	0.750			
0.7097	45417.91	3.6310	3.6312	0.3272	5.99	0.00	0.750			
0.7106	45477.66	3.6280	3.6280	0.2898	5.99	0.00	0.750			
0.7114	45531.20	3.6250	3.6250	0.2505	5.99	0.00	0.750			
0.7121	45575.89	3.6220	3.6219	0.2085	5.99	0.00	0.750			
0.7127	45613.52	3.6190	3.6192	0.1707	5.99	0.00	0.750			
0.7132	45641.82	3.6160	3.6160	0.1275	5.99	0.00	0.750			
0.7135	45662.48	3.6130	3.6135	0.0851	5.99	0.00	0.750			
0.7137	45674.68	3.6100	3.6107	0.0424	5.99	0.00	0.750			
0.7137	45678.73	3.6070	3.6084	-0.0003	5.99	0.00	0.750			
