Ah_balance (normalized)	Ah_balance (mAh)	Voltage - fit (V)	Voltage -  interpolate (V)	dQ/dV (1/V)	Temperature (°C)	Temperature - diff (°C)	Current (C)	R_DC 0ms (mOhm)	R_DC 50ms (mOhm)	R_DC 50 ms PEC (mOhm)
0.0048	305.26	4.1970	4.1941	1.1701	24.81	-0.30	0.082			
0.0089	566.41	4.1940	4.1908	1.4356	24.84	-0.27	0.082			
0.0136	869.32	4.1910	4.1995	1.5234	24.84	-0.27	0.250	0.355	0.434	
0.0174	1113.10	4.1880	4.1946	1.3554	24.84	-0.27	0.250			
0.0228	1459.88	4.1850	4.1880	1.3418	24.84	-0.27	0.250			
0.0285	1826.88	4.1820	4.1810	1.2301	24.84	-0.27	0.250			
0.0299	1912.74	4.1790	4.1789	0.8042	24.83	-0.28	0.250			
0.0323	2067.90	4.1760	4.1762	0.8127	24.82	-0.29	0.250	0.361	0.382	
0.0348	2224.59	4.1730	4.1732	0.8199	24.83	-0.28	0.250			
0.0373	2386.98	4.1700	4.1701	0.8258	24.84	-0.27	0.250			
0.0398	2549.26	4.1670	4.1670	0.8256	24.84	-0.27	0.250			
0.0422	2702.63	4.1640	4.1639	0.8116	24.84	-0.27	0.250			
0.0447	2857.81	4.1610	4.1610	0.8115	24.84	-0.27	0.250			
0.0471	3013.49	4.1580	4.1580	0.8148	24.84	-0.27	0.250			
0.0495	3170.27	4.1550	4.1551	0.8121	24.84	-0.27	0.250			
0.0520	3325.66	4.1520	4.1520	0.8090	24.84	-0.27	0.250	0.300	0.403	
0.0544	3483.13	4.1490	4.1491	0.8163	24.84	-0.27	0.250			
0.0568	3636.00	4.1460	4.1461	0.8363	24.84	-0.27	0.250			
0.0594	3798.59	4.1430	4.1429	0.8495	24.84	-0.27	0.250			
0.0619	3964.35	4.1400	4.1399	0.8525	24.85	-0.26	0.250			
0.0646	4131.86	4.1370	4.1373	0.8574	24.85	-0.26	0.250			
0.0672	4300.75	4.1340	4.1341	0.8556	24.85	-0.26	0.250			
0.0697	4463.71	4.1310	4.1309	0.8424	24.85	-0.26	0.250			
0.0722	4621.71	4.1280	4.1280	0.8255	24.85	-0.26	0.250	0.281	0.445	
0.0746	4776.08	4.1250	4.1251	0.8229	24.85	-0.26	0.250			
0.0771	4935.23	4.1220	4.1220	0.8238	24.86	-0.25	0.250			
0.0796	5092.73	4.1190	4.1190	0.8194	24.87	-0.24	0.250			
0.0820	5250.12	4.1160	4.1160	0.8219	24.87	-0.24	0.250			
0.0845	5408.05	4.1130	4.1131	0.8243	24.87	-0.24	0.250			
0.0870	5566.33	4.1100	4.1100	0.8244	24.87	-0.24	0.250			
0.0894	5724.43	4.1070	4.1070	0.8269	24.87	-0.24	0.250			
0.0919	5882.36	4.1040	4.1040	0.8255	24.87	-0.24	0.250	0.351	0.454	
0.0944	6042.50	4.1010	4.1010	0.8358	24.87	-0.24	0.250			
0.0969	6203.26	4.0980	4.0980	0.8357	24.88	-0.23	0.250			
0.0994	6363.74	4.0950	4.0949	0.8318	24.89	-0.22	0.250			
0.1019	6524.34	4.0920	4.0921	0.8295	24.88	-0.23	0.250			
0.1044	6683.36	4.0890	4.0890	0.8279	24.88	-0.23	0.250			
0.1069	6841.39	4.0860	4.0859	0.8284	24.89	-0.22	0.250			
0.1094	6999.06	4.0830	4.0830	0.8293	24.90	-0.21	0.250			
0.1118	7157.94	4.0800	4.0801	0.8324	24.89	-0.22	0.250	0.302	0.435	
0.1144	7319.79	4.0770	4.0770	0.8348	24.91	-0.20	0.250			
0.1169	7480.71	4.0740	4.0740	0.8397	24.92	-0.19	0.250			
0.1194	7643.67	4.0710	4.0710	0.8333	24.91	-0.20	0.250			
0.1219	7803.28	4.0680	4.0680	0.8259	24.91	-0.20	0.250			
0.1244	7961.79	4.0650	4.0651	0.8244	24.92	-0.19	0.250			
0.1269	8118.63	4.0620	4.0619	0.8199	24.93	-0.18	0.250			
0.1293	8274.76	4.0590	4.0590	0.8273	24.93	-0.18	0.250			
0.1317	8431.84	4.0560	4.0561	0.8329	24.94	-0.17	0.250	0.336	0.453	
0.1343	8592.65	4.0530	4.0530	0.8415	24.94	-0.17	0.250			
0.1368	8756.00	4.0500	4.0502	0.8528	24.94	-0.17	0.250			
0.1394	8923.18	4.0470	4.0470	0.8591	24.94	-0.17	0.250			
0.1420	9088.37	4.0440	4.0440	0.8654	24.94	-0.17	0.250			
0.1446	9255.19	4.0410	4.0411	0.8666	24.95	-0.16	0.250			
0.1472	9420.70	4.0380	4.0379	0.8660	24.95	-0.16	0.250			
0.1498	9586.75	4.0350	4.0350	0.8684	24.95	-0.16	0.250			
0.1524	9754.18	4.0320	4.0319	0.8689	24.95	-0.16	0.250	0.336	0.447	
0.1550	9921.42	4.0290	4.0290	0.8728	24.96	-0.15	0.250			
0.1576	10088.32	4.0260	4.0259	0.8751	24.97	-0.14	0.250			
0.1602	10255.82	4.0230	4.0229	0.8730	24.97	-0.14	0.250			
0.1629	10423.96	4.0200	4.0200	0.8794	24.97	-0.14	0.250			
0.1655	10592.97	4.0170	4.0171	0.8879	24.98	-0.13	0.250			
0.1682	10764.44	4.0140	4.0138	0.8885	24.98	-0.13	0.250			
0.1709	10936.07	4.0110	4.0109	0.8908	24.98	-0.13	0.250	0.170	0.390	
0.1736	11108.58	4.0080	4.0081	0.8944	24.99	-0.12	0.250			
0.1763	11283.64	4.0050	4.0048	0.8914	24.99	-0.12	0.250			
0.1790	11453.28	4.0020	4.0021	0.8858	25.00	-0.11	0.250			
0.1816	11620.29	3.9990	3.9991	0.8823	25.00	-0.11	0.250			
0.1842	11788.62	3.9960	3.9961	0.8910	25.00	-0.11	0.250			
0.1869	11960.00	3.9930	3.9930	0.8962	25.00	-0.11	0.250			
0.1896	12132.22	3.9900	3.9900	0.9050	25.00	-0.11	0.250			
0.1923	12308.36	3.9870	3.9871	0.9134	25.01	-0.10	0.250	0.303	0.400	
0.1951	12486.49	3.9840	3.9839	0.9268	25.02	-0.09	0.250			
0.1979	12664.44	3.9810	3.9810	0.9262	25.02	-0.09	0.250			
0.2007	12842.23	3.9780	3.9780	0.9297	25.02	-0.09	0.250			
0.2035	13021.86	3.9750	3.9751	0.9330	25.02	-0.09	0.250			
0.2062	13199.75	3.9720	3.9720	0.9386	25.03	-0.08	0.250			
0.2091	13380.71	3.9690	3.9689	0.9379	25.03	-0.08	0.250			
0.2119	13561.14	3.9660	3.9661	0.9411	25.03	-0.08	0.250	0.297	0.427	
0.2147	13742.14	3.9630	3.9631	0.9419	25.03	-0.08	0.250			
0.2176	13924.21	3.9600	3.9599	0.9473	25.03	-0.08	0.250			
0.2204	14105.83	3.9570	3.9569	0.9482	25.03	-0.08	0.250			
0.2233	14288.24	3.9540	3.9538	0.9526	25.03	-0.08	0.250			
0.2261	14471.54	3.9510	3.9511	0.9559	25.04	-0.07	0.250			
0.2290	14656.67	3.9480	3.9480	0.9600	25.05	-0.06	0.250			
0.2319	14839.94	3.9450	3.9451	0.9653	25.05	-0.06	0.250	0.297	0.397	
0.2348	15025.27	3.9420	3.9420	0.9673	25.06	-0.05	0.250			
0.2377	15213.71	3.9390	3.9391	0.9689	25.06	-0.05	0.250			
0.2406	15401.17	3.9360	3.9360	0.9671	25.06	-0.05	0.250			
0.2435	15585.71	3.9330	3.9330	0.9636	25.07	-0.04	0.250			
0.2464	15769.86	3.9300	3.9300	0.9631	25.07	-0.04	0.250			
0.2493	15954.04	3.9270	3.9270	0.9602	25.07	-0.04	0.250			
0.2521	16136.81	3.9240	3.9240	0.9589	25.07	-0.04	0.250	0.252	0.410	
0.2550	16322.40	3.9210	3.9210	0.9597	25.08	-0.03	0.250			
0.2579	16507.55	3.9180	3.9179	0.9548	25.10	-0.01	0.250			
0.2608	16691.09	3.9150	3.9151	0.9490	25.10	-0.01	0.250			
0.2636	16872.72	3.9120	3.9120	0.9374	25.10	-0.01	0.250			
0.2664	17051.24	3.9090	3.9090	0.9322	25.10	-0.01	0.250			
0.2692	17227.91	3.9060	3.9061	0.9238	25.10	-0.01	0.250			
0.2720	17405.85	3.9030	3.9029	0.9163	25.10	-0.01	0.250	0.370	0.412	
0.2747	17582.02	3.9000	3.9001	0.9021	25.11	0.00	0.250			
0.2774	17754.33	3.8970	3.8970	0.8920	25.12	0.01	0.250			
0.2801	17925.30	3.8940	3.8940	0.8807	25.12	0.01	0.250			
0.2827	18091.18	3.8910	3.8908	0.8668	25.12	0.01	0.250			
0.2853	18257.09	3.8880	3.8880	0.8589	25.13	0.02	0.250			
0.2878	18420.22	3.8850	3.8850	0.8459	25.13	0.02	0.250			
0.2904	18583.15	3.8820	3.8820	0.8391	25.13	0.02	0.250	0.291	0.415	
0.2929	18742.57	3.8790	3.8791	0.8311	25.13	0.02	0.250			
0.2953	18901.53	3.8760	3.8759	0.8232	25.13	0.02	0.250			
0.2978	19059.29	3.8730	3.8730	0.8163	25.13	0.02	0.250			
0.3002	19215.23	3.8700	3.8701	0.8095	25.13	0.02	0.250			
0.3027	19370.34	3.8670	3.8670	0.8067	25.13	0.02	0.250			
0.3051	19523.25	3.8640	3.8639	0.8007	25.13	0.02	0.250			
0.3074	19675.76	3.8610	3.8610	0.7979	25.13	0.02	0.250			
0.3098	19828.07	3.8580	3.8581	0.8001	25.13	0.02	0.250			
0.3122	19981.09	3.8550	3.8551	0.8068	25.13	0.02	0.250	0.358	0.455	
0.3146	20137.39	3.8520	3.8520	0.8143	25.12	0.01	0.250			
0.3171	20293.98	3.8490	3.8490	0.8230	25.12	0.01	0.250			
0.3196	20452.44	3.8460	3.8460	0.8362	25.12	0.01	0.250			
0.3221	20614.38	3.8430	3.8431	0.8473	25.12	0.01	0.250			
0.3247	20778.30	3.8400	3.8400	0.8570	25.12	0.01	0.250			
0.3273	20944.05	3.8370	3.8371	0.8668	25.12	0.01	0.250			
0.3299	21111.27	3.8340	3.8340	0.8741	25.12	0.01	0.250			
0.3325	21281.35	3.8310	3.8309	0.8886	25.11	0.00	0.250	0.317	0.422	
0.3352	21451.39	3.8280	3.8280	0.9020	25.11	0.00	0.250			
0.3379	21626.55	3.8250	3.8250	0.9167	25.11	-0.00	0.250			
0.3407	21803.92	3.8220	3.8220	0.9319	25.10	-0.01	0.250			
0.3435	21983.65	3.8190	3.8191	0.9469	25.10	-0.01	0.250			
0.3464	22166.99	3.8160	3.8161	0.9655	25.09	-0.02	0.250			
0.3493	22354.11	3.8130	3.8130	0.9787	25.08	-0.03	0.250			
0.3522	22543.24	3.8100	3.8100	0.9926	25.09	-0.02	0.250	0.329	0.430	
0.3553	22736.04	3.8070	3.8070	1.0051	25.10	-0.01	0.250			
0.3583	22931.00	3.8040	3.8039	1.0157	25.09	-0.02	0.250			
0.3613	23126.39	3.8010	3.8011	1.0281	25.07	-0.04	0.250			
0.3644	23322.53	3.7980	3.7979	1.0421	25.07	-0.04	0.250			
0.3676	23524.05	3.7950	3.7950	1.0576	25.07	-0.04	0.250			
0.3708	23728.87	3.7920	3.7921	1.0749	25.07	-0.04	0.250	0.268	0.421	
0.3740	23938.59	3.7890	3.7890	1.0917	25.05	-0.06	0.250			
0.3773	24149.68	3.7860	3.7859	1.1046	25.05	-0.06	0.250			
0.3807	24364.01	3.7830	3.7830	1.1184	25.04	-0.07	0.250			
0.3840	24577.85	3.7800	3.7800	1.1318	25.03	-0.08	0.250			
0.3874	24795.40	3.7770	3.7771	1.1556	25.03	-0.08	0.250			
0.3909	25019.02	3.7740	3.7741	1.1703	25.02	-0.09	0.250	0.353	0.441	
0.3945	25247.45	3.7710	3.7710	1.1911	25.00	-0.11	0.250			
0.3981	25477.88	3.7680	3.7681	1.2081	25.01	-0.10	0.250			
0.4018	25712.70	3.7650	3.7649	1.2305	25.00	-0.11	0.250			
0.4054	25948.65	3.7620	3.7620	1.2447	25.00	-0.11	0.250			
0.4092	26188.56	3.7590	3.7590	1.2715	24.99	-0.12	0.250			
0.4131	26436.72	3.7560	3.7561	1.2949	24.98	-0.13	0.250	0.308	0.414	
0.4170	26687.69	3.7530	3.7528	1.3198	24.97	-0.14	0.250			
0.4210	26943.64	3.7500	3.7501	1.3459	24.97	-0.14	0.250			
0.4251	27203.68	3.7470	3.7469	1.3711	24.95	-0.16	0.250			
0.4292	27468.96	3.7440	3.7441	1.4002	24.95	-0.16	0.250			
0.4334	27740.12	3.7410	3.7411	1.4299	24.94	-0.17	0.250	0.232	0.447	
0.4378	28017.90	3.7380	3.7380	1.4668	24.94	-0.17	0.250			
0.4422	28300.58	3.7350	3.7350	1.5020	24.93	-0.18	0.250			
0.4468	28595.04	3.7320	3.7321	1.5376	24.92	-0.19	0.250			
0.4515	28893.65	3.7290	3.7291	1.5773	24.91	-0.20	0.250	0.301	0.457	
0.4562	29199.71	3.7260	3.7261	1.6212	24.90	-0.21	0.250			
0.4612	29514.54	3.7230	3.7229	1.6633	24.89	-0.22	0.250			
0.4662	29837.78	3.7200	3.7200	1.7094	24.88	-0.23	0.250			
0.4714	30168.92	3.7170	3.7169	1.7543	24.87	-0.24	0.250	0.302	0.442	
0.4767	30509.86	3.7140	3.7140	1.8155	24.85	-0.26	0.250			
0.4822	30862.37	3.7110	3.7109	1.8700	24.84	-0.27	0.250			
0.4879	31228.47	3.7080	3.7079	1.9295	24.82	-0.29	0.250			
0.4938	31604.86	3.7050	3.7051	1.9978	24.81	-0.30	0.250	0.349	0.455	
0.4999	31995.50	3.7020	3.7021	2.0629	24.80	-0.31	0.250			
0.5062	32396.23	3.6990	3.6990	2.1303	24.79	-0.32	0.250			
0.5126	32808.95	3.6960	3.6961	2.2018	24.77	-0.34	0.250	0.354	0.464	
0.5194	33239.32	3.6930	3.6930	2.2872	24.76	-0.35	0.250			
0.5263	33685.35	3.6900	3.6899	2.3873	24.73	-0.38	0.250			
0.5336	34151.34	3.6870	3.6870	2.4728	24.72	-0.39	0.250	0.323	0.437	
0.5412	34637.28	3.6840	3.6840	2.5617	24.71	-0.40	0.250			
0.5490	35138.64	3.6810	3.6811	2.6598	24.69	-0.42	0.250	0.264	0.415	
0.5572	35658.65	3.6780	3.6780	2.7599	24.67	-0.44	0.250			
0.5656	36195.44	3.6750	3.6751	2.8635	24.65	-0.46	0.250			
0.5744	36760.15	3.6720	3.6721	2.9668	24.62	-0.49	0.250	0.263	0.433	
0.5835	37341.47	3.6690	3.6691	3.0311	24.59	-0.52	0.250			
0.5927	37930.89	3.6660	3.6660	3.0706	24.57	-0.54	0.250	0.335	0.482	
0.6020	38527.39	3.6630	3.6630	3.0619	24.55	-0.56	0.250			
0.6112	39119.18	3.6600	3.6601	2.9804	24.53	-0.58	0.250	0.234	0.452	
0.6202	39689.76	3.6570	3.6570	2.8510	24.53	-0.58	0.250			
0.6285	40225.84	3.6540	3.6542	2.6607	24.53	-0.58	0.250	0.344	0.475	
0.6362	40715.31	3.6510	3.6510	2.4443	24.53	-0.58	0.250			
0.6432	41163.09	3.6480	3.6480	2.2281	24.53	-0.58	0.250			
0.6495	41568.69	3.6450	3.6450	2.0197	24.53	-0.58	0.250	0.315	0.467	
0.6552	41931.95	3.6420	3.6421	1.8265	24.52	-0.59	0.250			
0.6603	42259.64	3.6390	3.6390	1.6624	24.53	-0.58	0.250			
0.6650	42558.68	3.6360	3.6361	1.5232	24.53	-0.58	0.250			
0.6693	42832.25	3.6330	3.6330	1.4155	24.53	-0.58	0.250			
0.6733	43088.54	3.6300	3.6300	1.3485	24.53	-0.58	0.250	0.418	0.535	
0.6771	43332.89	3.6270	3.6271	1.3066	24.53	-0.58	0.250			
0.6809	43576.95	3.6240	3.6240	1.2939	24.53	-0.58	0.250			
0.6847	43820.73	3.6210	3.6210	1.2960	24.54	-0.57	0.250			
0.6886	44069.68	3.6180	3.6181	1.3082	24.55	-0.56	0.250			
0.6926	44326.71	3.6150	3.6149	1.3119	24.54	-0.57	0.250	0.357	0.503	
0.6966	44581.73	3.6120	3.6121	1.2977	24.55	-0.56	0.250			
0.7005	44833.32	3.6090	3.6091	1.2719	24.55	-0.56	0.250			
0.7043	45076.86	3.6060	3.6060	1.2375	24.56	-0.55	0.250			
0.7079	45306.85	3.6030	3.6030	1.1943	24.57	-0.54	0.250			
0.7114	45530.08	3.6000	3.5999	1.1624	24.57	-0.54	0.250	0.361	0.483	
0.7148	45748.77	3.5970	3.5969	1.1405	24.57	-0.54	0.250			
0.7182	45965.01	3.5940	3.5940	1.1264	24.58	-0.53	0.250			
0.7216	46180.01	3.5910	3.5911	1.1208	24.59	-0.52	0.250			
0.7249	46394.40	3.5880	3.5881	1.1165	24.59	-0.52	0.250			
0.7282	46607.25	3.5850	3.5850	1.1154	24.59	-0.52	0.250			
0.7316	46820.51	3.5820	3.5819	1.1191	24.59	-0.52	0.250	0.305	0.481	
0.7349	47036.36	3.5790	3.5790	1.1222	24.60	-0.51	0.250			
0.7383	47251.91	3.5760	3.5760	1.1253	24.60	-0.51	0.250			
0.7417	47466.98	3.5730	3.5730	1.1282	24.61	-0.50	0.250			
0.7450	47682.32	3.5700	3.5700	1.1444	24.61	-0.50	0.250			
0.7485	47901.39	3.5670	3.5669	1.1683	24.61	-0.50	0.250			
0.7520	48126.38	3.5640	3.5641	1.1967	24.61	-0.50	0.250	0.343	0.477	
0.7556	48357.47	3.5610	3.5611	1.2419	24.61	-0.50	0.250			
0.7594	48599.41	3.5580	3.5580	1.2943	24.61	-0.50	0.250			
0.7633	48848.78	3.5550	3.5549	1.3596	24.61	-0.50	0.250			
0.7674	49112.63	3.5520	3.5520	1.4467	24.61	-0.50	0.250			
0.7718	49397.80	3.5490	3.5488	1.5351	24.62	-0.49	0.250	0.338	0.511	
0.7765	49697.01	3.5460	3.5461	1.6525	24.61	-0.50	0.250			
0.7817	50026.52	3.5430	3.5430	1.7644	24.62	-0.49	0.250			
0.7872	50382.20	3.5400	3.5398	1.8685	24.61	-0.50	0.250			
0.7930	50752.49	3.5370	3.5372	1.9601	24.61	-0.50	0.250	0.289	0.501	
0.7990	51137.54	3.5340	3.5339	2.0509	24.61	-0.50	0.250			
0.8053	51542.35	3.5310	3.5308	2.1260	24.61	-0.50	0.250			
0.8119	51961.30	3.5280	3.5279	2.1550	24.61	-0.50	0.250	0.381	0.551	
0.8186	52390.73	3.5250	3.5250	2.1590	24.59	-0.52	0.250			
0.8254	52822.76	3.5220	3.5219	2.0680	24.61	-0.50	0.250			
0.8316	53225.08	3.5190	3.5191	1.8465	24.62	-0.49	0.250	0.265	0.494	
0.8370	53570.42	3.5160	3.5163	1.5763	24.62	-0.49	0.250			
0.8414	53852.02	3.5130	3.5131	1.2787	24.63	-0.48	0.250			
0.8447	54061.97	3.5100	3.5097	0.9848	24.65	-0.46	0.250			
0.8468	54196.47	3.5070	3.5068	0.7588	24.65	-0.46	0.250			
0.8484	54297.51	3.5040	3.5038	0.5752	24.65	-0.46	0.250			
0.8497	54383.78	3.5010	3.5008	0.4732	24.65	-0.46	0.250			
0.8509	54457.86	3.4980	3.4979	0.4183	24.66	-0.45	0.250			
0.8520	54527.79	3.4950	3.4948	0.3761	24.67	-0.44	0.250	0.356	0.542	
0.8531	54596.41	3.4920	3.4919	0.3549	24.68	-0.43	0.250			
0.8541	54661.21	3.4890	3.4890	0.3350	24.69	-0.42	0.250			
0.8551	54724.00	3.4860	3.4860	0.3223	24.69	-0.42	0.250			
0.8560	54783.61	3.4830	3.4831	0.3109	24.70	-0.41	0.250			
0.8569	54842.50	3.4800	3.4799	0.3024	24.71	-0.40	0.250			
0.8578	54899.11	3.4770	3.4769	0.2938	24.71	-0.40	0.250			
0.8587	54954.53	3.4740	3.4741	0.2858	24.72	-0.39	0.250			
0.8595	55008.96	3.4710	3.4710	0.2805	24.72	-0.39	0.250			
0.8603	55062.17	3.4680	3.4680	0.2752	24.72	-0.39	0.250			
0.8612	55114.03	3.4650	3.4650	0.2687	24.73	-0.38	0.250			
0.8619	55164.73	3.4620	3.4620	0.2641	24.73	-0.38	0.250			
0.8627	55215.18	3.4590	3.4590	0.2610	24.74	-0.37	0.250			
0.8635	55265.06	3.4560	3.4560	0.2558	24.74	-0.37	0.250			
0.8643	55314.09	3.4530	3.4530	0.2519	24.75	-0.36	0.250			
0.8650	55361.44	3.4500	3.4501	0.2477	24.75	-0.36	0.250			
0.8658	55408.70	3.4470	3.4468	0.2440	24.76	-0.35	0.250			
0.8665	55455.06	3.4440	3.4440	0.2402	24.77	-0.34	0.250			
0.8672	55500.72	3.4410	3.4409	0.2356	24.77	-0.34	0.250			
0.8679	55545.52	3.4380	3.4381	0.2325	24.78	-0.33	0.250			
0.8686	55589.96	3.4350	3.4351	0.2309	24.78	-0.33	0.250			
0.8693	55634.24	3.4320	3.4319	0.2263	24.79	-0.32	0.250			
0.8699	55676.41	3.4290	3.4289	0.2232	24.79	-0.32	0.250			
0.8706	55718.56	3.4260	3.4260	0.2200	24.79	-0.32	0.250			
0.8713	55760.77	3.4230	3.4232	0.2176	24.80	-0.31	0.250			
0.8719	55802.28	3.4200	3.4199	0.2161	24.80	-0.31	0.250	0.306	0.534	
0.8726	55843.53	3.4170	3.4171	0.2130	24.80	-0.31	0.250			
0.8732	55884.27	3.4140	3.4142	0.2113	24.81	-0.30	0.250			
0.8738	55924.77	3.4110	3.4110	0.2089	24.81	-0.30	0.250			
0.8745	55965.43	3.4080	3.4080	0.2073	24.81	-0.30	0.250			
0.8751	56004.78	3.4050	3.4050	0.2041	24.82	-0.29	0.250			
0.8757	56042.95	3.4020	3.4020	0.2005	24.82	-0.29	0.250			
0.8763	56081.73	3.3990	3.3990	0.1977	24.83	-0.28	0.250			
0.8769	56119.01	3.3960	3.3960	0.1948	24.83	-0.28	0.250			
0.8774	56156.31	3.3930	3.3930	0.1928	24.83	-0.28	0.250			
0.8780	56193.01	3.3900	3.3900	0.1903	24.84	-0.27	0.250			
0.8786	56229.14	3.3870	3.3870	0.1877	24.84	-0.27	0.250			
0.8791	56264.82	3.3840	3.3840	0.1856	24.85	-0.26	0.250			
0.8797	56300.44	3.3810	3.3810	0.1834	24.85	-0.26	0.250			
0.8802	56335.82	3.3780	3.3780	0.1812	24.85	-0.26	0.250			
0.8808	56370.28	3.3750	3.3750	0.1778	24.86	-0.25	0.250			
0.8813	56403.80	3.3720	3.3721	0.1765	24.86	-0.25	0.250			
0.8818	56437.35	3.3690	3.3690	0.1748	24.87	-0.24	0.250			
0.8824	56470.72	3.3660	3.3658	0.1728	24.87	-0.24	0.250			
0.8829	56503.87	3.3630	3.3630	0.1711	24.87	-0.24	0.250			
0.8834	56536.50	3.3600	3.3601	0.1694	24.87	-0.24	0.250			
0.8839	56569.19	3.3570	3.3570	0.1680	24.88	-0.23	0.250			
0.8844	56601.44	3.3540	3.3540	0.1662	24.88	-0.23	0.250			
0.8849	56632.74	3.3510	3.3510	0.1630	24.88	-0.23	0.250			
0.8854	56663.89	3.3480	3.3480	0.1610	24.88	-0.23	0.250			
0.8859	56694.63	3.3450	3.3450	0.1593	24.89	-0.22	0.250			
0.8863	56725.04	3.3420	3.3420	0.1575	24.89	-0.22	0.250			
0.8868	56754.98	3.3390	3.3390	0.1558	24.89	-0.22	0.250			
0.8873	56784.74	3.3360	3.3360	0.1543	24.90	-0.21	0.250			
0.8877	56814.16	3.3330	3.3330	0.1524	24.90	-0.21	0.250			
0.8882	56843.36	3.3300	3.3300	0.1508	24.91	-0.20	0.250			
0.8886	56872.24	3.3270	3.3270	0.1491	24.91	-0.20	0.250			
0.8891	56900.68	3.3240	3.3241	0.1471	24.92	-0.19	0.250			
0.8895	56928.67	3.3210	3.3210	0.1456	24.93	-0.18	0.250			
0.8899	56956.45	3.3180	3.3180	0.1439	24.93	-0.18	0.250			
0.8904	56983.82	3.3150	3.3150	0.1420	24.94	-0.17	0.250			
0.8908	57010.90	3.3120	3.3119	0.1409	24.94	-0.17	0.250			
0.8912	57037.84	3.3090	3.3091	0.1398	24.94	-0.17	0.250			
0.8916	57064.58	3.3060	3.3060	0.1385	24.95	-0.16	0.250			
0.8920	57091.08	3.3030	3.3029	0.1374	24.95	-0.16	0.250	0.299	0.570	
0.8925	57117.41	3.3000	3.3000	0.1356	24.95	-0.16	0.250			
0.8929	57143.37	3.2970	3.2971	0.1338	24.96	-0.15	0.250			
0.8933	57168.85	3.2940	3.2940	0.1322	24.96	-0.15	0.250			
0.8937	57194.25	3.2910	3.2910	0.1306	24.96	-0.15	0.250			
0.8940	57218.88	3.2880	3.2880	0.1290	24.96	-0.15	0.250			
0.8944	57243.39	3.2850	3.2850	0.1275	24.97	-0.14	0.250			
0.8948	57267.73	3.2820	3.2820	0.1260	24.97	-0.14	0.250			
0.8952	57291.83	3.2790	3.2790	0.1250	24.97	-0.14	0.250			
0.8956	57315.85	3.2760	3.2761	0.1238	24.98	-0.13	0.250			
0.8959	57339.63	3.2730	3.2730	0.1226	24.98	-0.13	0.250			
0.8963	57362.99	3.2700	3.2700	0.1212	24.98	-0.13	0.250			
0.8967	57386.10	3.2670	3.2670	0.1197	24.99	-0.12	0.250			
0.8970	57408.87	3.2640	3.2640	0.1187	24.99	-0.12	0.250			
0.8974	57431.42	3.2610	3.2610	0.1174	24.99	-0.12	0.250			
0.8977	57453.96	3.2580	3.2579	0.1159	25.00	-0.11	0.250			
0.8981	57476.16	3.2550	3.2550	0.1146	25.00	-0.11	0.250			
0.8984	57497.94	3.2520	3.2521	0.1138	25.00	-0.11	0.250			
0.8987	57519.64	3.2490	3.2490	0.1127	25.01	-0.10	0.250			
0.8991	57541.24	3.2460	3.2458	0.1112	25.01	-0.10	0.250			
0.8994	57562.52	3.2430	3.2429	0.1100	25.01	-0.10	0.250			
0.8997	57583.51	3.2400	3.2400	0.1086	25.01	-0.10	0.250			
0.9001	57604.19	3.2370	3.2371	0.1073	25.01	-0.10	0.250			
0.9004	57624.73	3.2340	3.2340	0.1065	25.02	-0.09	0.250			
0.9007	57645.05	3.2310	3.2310	0.1051	25.02	-0.09	0.250			
0.9010	57665.06	3.2280	3.2280	0.1040	25.02	-0.09	0.250			
0.9013	57684.64	3.2250	3.2250	0.1026	25.02	-0.09	0.250			
0.9016	57704.33	3.2220	3.2220	0.1015	25.02	-0.09	0.250			
0.9019	57723.85	3.2190	3.2190	0.1007	25.02	-0.09	0.250			
0.9022	57742.98	3.2160	3.2161	0.0999	25.03	-0.08	0.250			
0.9025	57762.02	3.2130	3.2130	0.0990	25.03	-0.08	0.250			
0.9028	57781.01	3.2100	3.2100	0.0979	25.03	-0.08	0.250			
0.9031	57799.66	3.2070	3.2070	0.0968	25.03	-0.08	0.250			
0.9034	57818.26	3.2040	3.2041	0.0956	25.03	-0.08	0.250			
0.9037	57836.62	3.2010	3.2010	0.0946	25.03	-0.08	0.250			
0.9040	57854.63	3.1980	3.1982	0.0933	25.04	-0.07	0.250			
0.9043	57872.54	3.1950	3.1951	0.0922	25.04	-0.07	0.250			
0.9045	57889.96	3.1920	3.1919	0.0911	25.04	-0.07	0.250			
0.9048	57907.12	3.1890	3.1890	0.0896	25.04	-0.07	0.250			
0.9051	57924.30	3.1860	3.1860	0.0886	25.05	-0.06	0.250			
0.9053	57941.22	3.1830	3.1830	0.0877	25.05	-0.06	0.250			
0.9056	57957.96	3.1800	3.1800	0.0867	25.05	-0.06	0.250			
0.9059	57974.52	3.1770	3.1770	0.0859	25.06	-0.05	0.250			
0.9061	57990.94	3.1740	3.1741	0.0850	25.06	-0.05	0.250			
0.9064	58007.18	3.1710	3.1710	0.0841	25.06	-0.05	0.250			
0.9066	58023.24	3.1680	3.1680	0.0832	25.06	-0.05	0.250			
0.9069	58039.05	3.1650	3.1650	0.0822	25.06	-0.05	0.250			
0.9071	58054.87	3.1620	3.1620	0.0810	25.07	-0.04	0.250			
0.9074	58070.47	3.1590	3.1590	0.0802	25.07	-0.04	0.250			
0.9076	58085.75	3.1560	3.1560	0.0789	25.07	-0.04	0.250			
0.9078	58100.71	3.1530	3.1531	0.0779	25.07	-0.04	0.250			
0.9081	58115.49	3.1500	3.1500	0.0767	25.08	-0.03	0.250			
0.9083	58130.13	3.1470	3.1470	0.0757	25.08	-0.03	0.250			
0.9085	58144.56	3.1440	3.1440	0.0746	25.08	-0.03	0.250			
0.9087	58158.72	3.1410	3.1411	0.0735	25.08	-0.03	0.250			
0.9090	58172.80	3.1380	3.1380	0.0724	25.08	-0.03	0.250			
0.9092	58186.70	3.1350	3.1350	0.0715	25.09	-0.02	0.250			
0.9094	58200.31	3.1320	3.1320	0.0702	25.09	-0.02	0.250			
0.9096	58213.67	3.1290	3.1289	0.0690	25.09	-0.02	0.250			
0.9098	58226.79	3.1260	3.1261	0.0677	25.09	-0.02	0.250			
0.9100	58239.67	3.1230	3.1230	0.0665	25.09	-0.02	0.250			
0.9102	58252.38	3.1200	3.1200	0.0649	25.10	-0.01	0.250			
0.9104	58264.79	3.1170	3.1170	0.0636	25.10	-0.01	0.250			
0.9106	58276.86	3.1140	3.1141	0.0621	25.10	-0.01	0.250			
0.9108	58289.37	3.1110	3.1109	0.0601	25.10	-0.01	0.250			
0.9109	58300.64	3.1080	3.1079	0.0573	25.10	-0.01	0.250			
0.9111	58311.38	3.1050	3.1051	0.0546	25.11	-0.00	0.250			
0.9113	58322.13	3.1020	3.1021	0.0527	25.11	-0.00	0.250			
0.9114	58331.92	3.0990	3.0992	0.0494	25.11	-0.00	0.250			
0.9116	58341.09	3.0960	3.0963	0.0461	25.11	0.00	0.250			
0.9117	58349.62	3.0930	3.0938	0.0428	25.11	0.00	0.250			
0.9118	58357.52	3.0900	3.0910	0.0395	25.11	0.00	0.250			
0.9119	58364.79	3.0870	3.0880	0.0362	25.11	0.00	0.250			
