Ah_balance (normalized)	Ah_balance (mAh)	Voltage - fit (V)	Voltage -  interpolate (V)	dQ/dV (1/V)	Temperature (°C)	Temperature - diff (°C)	Current (C)	R_DC 0ms (mOhm)	R_DC 50ms (mOhm)	R_DC 50 ms PEC (mOhm)
0.1809	11575.12	4.0800	4.0801	0.7238	7.62	1.65	0.750			
0.1830	11709.38	4.0770	4.0772	0.6992	7.62	1.65	0.750			
0.1850	11839.47	4.0740	4.0743	0.7041	7.61	1.64	0.750			
0.1871	11975.96	4.0710	4.0708	0.7213	7.61	1.64	0.750			
0.1893	12112.44	4.0680	4.0680	0.7389	7.60	1.63	0.750			
0.1915	12255.99	4.0650	4.0651	0.7606	7.60	1.63	0.750			
0.1939	12411.15	4.0620	4.0620	0.7887	7.59	1.62	0.750			
0.1963	12562.99	4.0590	4.0590	0.7910	7.59	1.62	0.750			
0.1988	12721.27	4.0560	4.0560	0.7860	7.59	1.62	0.750			
0.2011	12869.06	4.0530	4.0530	0.7892	7.59	1.62	0.750			
0.2034	13018.91	4.0500	4.0502	0.7928	7.58	1.61	0.750			
0.2058	13169.59	4.0470	4.0471	0.7969	7.58	1.61	0.750			
0.2081	13321.39	4.0440	4.0438	0.8036	7.58	1.61	0.750			
0.2106	13478.43	4.0410	4.0411	0.8061	7.58	1.61	0.750			
0.2131	13636.94	4.0380	4.0380	0.8130	7.58	1.61	0.750			
0.2155	13793.67	4.0350	4.0350	0.8150	7.57	1.60	0.750			
0.2179	13946.66	4.0320	4.0321	0.8130	7.57	1.60	0.750			
0.2203	14101.65	4.0290	4.0289	0.8181	7.57	1.60	0.750			
0.2229	14262.87	4.0260	4.0259	0.8159	7.56	1.59	0.750			
0.2253	14419.55	4.0230	4.0230	0.8210	7.56	1.59	0.750			
0.2278	14577.96	4.0200	4.0202	0.8288	7.55	1.58	0.750			
0.2303	14737.53	4.0170	4.0171	0.8344	7.55	1.58	0.750			
0.2328	14897.15	4.0140	4.0137	0.8289	7.54	1.57	0.750			
0.2353	15056.11	4.0110	4.0110	0.8319	7.54	1.57	0.750			
0.2377	15215.68	4.0080	4.0081	0.8302	7.54	1.57	0.750			
0.2403	15376.37	4.0050	4.0049	0.8335	7.53	1.56	0.750			
0.2427	15533.24	4.0020	4.0021	0.8349	7.53	1.56	0.750			
0.2452	15694.19	3.9990	3.9987	0.8423	7.53	1.56	0.750			
0.2478	15857.73	3.9960	3.9961	0.8457	7.52	1.55	0.750			
0.2503	16022.08	3.9930	3.9931	0.8573	7.51	1.54	0.750			
0.2529	16187.46	3.9900	3.9900	0.8663	7.50	1.53	0.750			
0.2555	16354.03	3.9870	3.9871	0.8636	7.50	1.53	0.750			
0.2581	16520.93	3.9840	3.9840	0.8690	7.49	1.52	0.750			
0.2608	16689.04	3.9810	3.9810	0.8622	7.48	1.51	0.750			
0.2634	16856.33	3.9780	3.9781	0.8681	7.48	1.51	0.750			
0.2659	17020.57	3.9750	3.9750	0.8742	7.48	1.51	0.750			
0.2686	17187.20	3.9720	3.9721	0.8751	7.47	1.50	0.750			
0.2712	17357.08	3.9690	3.9690	0.8802	7.47	1.50	0.750			
0.2739	17527.40	3.9660	3.9660	0.8855	7.46	1.49	0.750			
0.2765	17697.59	3.9630	3.9631	0.8914	7.45	1.48	0.750			
0.2792	17870.97	3.9600	3.9601	0.8988	7.45	1.48	0.750			
0.2819	18041.23	3.9570	3.9566	0.8968	7.44	1.47	0.750			
0.2846	18215.22	3.9540	3.9541	0.8938	7.43	1.46	0.750			
0.2873	18386.89	3.9510	3.9510	0.9000	7.43	1.46	0.750			
0.2900	18559.50	3.9480	3.9481	0.9095	7.42	1.45	0.750			
0.2927	18735.52	3.9450	3.9450	0.9186	7.42	1.45	0.750			
0.2955	18909.53	3.9420	3.9418	0.9207	7.41	1.44	0.750			
0.2983	19089.92	3.9390	3.9390	0.9193	7.40	1.43	0.750			
0.3010	19266.04	3.9360	3.9361	0.9325	7.39	1.42	0.750			
0.3038	19445.66	3.9330	3.9330	0.9446	7.38	1.41	0.750			
0.3067	19626.37	3.9300	3.9298	0.9492	7.37	1.40	0.750			
0.3095	19809.02	3.9270	3.9271	0.9628	7.36	1.39	0.750			
0.3124	19994.42	3.9240	3.9241	0.9616	7.35	1.38	0.750			
0.3153	20179.65	3.9210	3.9211	0.9768	7.34	1.37	0.750			
0.3183	20370.20	3.9180	3.9181	0.9873	7.34	1.37	0.750			
0.3212	20558.13	3.9150	3.9152	0.9828	7.33	1.36	0.750			
0.3242	20747.62	3.9120	3.9121	0.9929	7.32	1.35	0.750			
0.3272	20938.76	3.9090	3.9092	1.0052	7.31	1.34	0.750			
0.3302	21133.03	3.9060	3.9060	1.0175	7.30	1.33	0.750			
0.3333	21329.13	3.9030	3.9030	1.0189	7.29	1.32	0.750			
0.3363	21525.83	3.9000	3.9000	1.0282	7.28	1.31	0.750			
0.3394	21724.71	3.8970	3.8971	1.0441	7.27	1.30	0.750			
0.3426	21927.28	3.8940	3.8941	1.0522	7.26	1.29	0.750			
0.3458	22132.20	3.8910	3.8910	1.0486	7.25	1.28	0.750			
0.3489	22330.55	3.8880	3.8880	1.0626	7.24	1.27	0.750			
0.3521	22531.98	3.8850	3.8852	1.0787	7.23	1.26	0.750			
0.3553	22741.54	3.8820	3.8821	1.0950	7.22	1.25	0.750			
0.3587	22956.22	3.8790	3.8789	1.0965	7.21	1.24	0.750			
0.3620	23165.70	3.8760	3.8762	1.1273	7.20	1.23	0.750			
0.3654	23385.10	3.8730	3.8730	1.1495	7.18	1.21	0.750			
0.3689	23612.05	3.8700	3.8698	1.1536	7.17	1.20	0.750			
0.3724	23833.79	3.8670	3.8672	1.1584	7.16	1.19	0.750			
0.3759	24055.82	3.8640	3.8642	1.1734	7.15	1.18	0.750			
0.3794	24283.31	3.8610	3.8611	1.1910	7.14	1.17	0.750			
0.3830	24509.37	3.8580	3.8581	1.1857	7.13	1.16	0.750			
0.3865	24738.31	3.8550	3.8550	1.2129	7.11	1.14	0.750			
0.3902	24974.05	3.8520	3.8521	1.2398	7.09	1.12	0.750			
0.3940	25218.48	3.8490	3.8489	1.2561	7.07	1.10	0.750			
0.3978	25460.53	3.8460	3.8461	1.2831	7.06	1.09	0.750			
0.4016	25704.02	3.8430	3.8431	1.3176	7.05	1.08	0.750			
0.4057	25963.50	3.8400	3.8400	1.3417	7.04	1.07	0.750			
0.4097	26223.64	3.8370	3.8371	1.3805	7.02	1.05	0.750			
0.4139	26489.62	3.8340	3.8339	1.4117	7.01	1.04	0.750	0.393	0.915	
0.4183	26769.00	3.8310	3.8311	1.4247	7.00	1.03	0.750			
0.4226	27048.72	3.8280	3.8280	1.4643	6.98	1.01	0.750			
0.4270	27327.97	3.8250	3.8252	1.4753	6.96	0.99	0.750			
0.4314	27608.83	3.8220	3.8218	1.4995	6.94	0.97	0.750			
0.4360	27903.34	3.8190	3.8192	1.5136	6.93	0.96	0.750			
0.4405	28192.61	3.8160	3.8160	1.5591	6.91	0.94	0.750			
0.4453	28496.25	3.8130	3.8130	1.5938	6.89	0.92	0.750			
0.4501	28804.49	3.8100	3.8101	1.6203	6.87	0.90	0.750			
0.4551	29128.66	3.8070	3.8072	1.6609	6.84	0.87	0.750			
0.4600	29441.25	3.8040	3.8040	1.6971	6.82	0.85	0.750			
0.4651	29769.59	3.8010	3.8011	1.7363	6.81	0.84	0.750			
0.4705	30113.16	3.7980	3.7976	1.7403	6.79	0.82	0.750			
0.4757	30445.72	3.7950	3.7951	1.7798	6.76	0.79	0.750			
0.4813	30800.38	3.7920	3.7921	1.8185	6.73	0.76	0.750			
0.4868	31156.85	3.7890	3.7887	1.8504	6.70	0.73	0.750			
0.4923	31509.96	3.7860	3.7863	1.9379	6.68	0.71	0.750			
0.4982	31887.84	3.7830	3.7827	1.9798	6.65	0.68	0.750			
0.5041	32260.32	3.7800	3.7803	1.9786	6.63	0.66	0.750			
0.5101	32646.67	3.7770	3.7770	1.9911	6.60	0.63	0.750			
0.5163	33040.47	3.7740	3.7737	2.0016	6.57	0.60	0.750			
0.5224	33432.49	3.7710	3.7708	2.0633	6.54	0.57	0.750			
0.5284	33818.86	3.7680	3.7682	2.0322	6.52	0.55	0.750			
0.5346	34215.76	3.7650	3.7650	2.0844	6.49	0.52	0.750			
0.5408	34610.28	3.7620	3.7621	2.0744	6.47	0.50	0.750			
0.5472	35019.53	3.7590	3.7591	2.1248	6.44	0.47	0.750			
0.5534	35418.67	3.7560	3.7559	2.1793	6.41	0.44	0.750			
0.5601	35843.68	3.7530	3.7530	2.2241	6.38	0.41	0.750			
0.5668	36275.21	3.7500	3.7500	2.2482	6.35	0.38	0.750			
0.5735	36702.37	3.7470	3.7467	2.2897	6.33	0.36	0.750			
0.5805	37149.68	3.7440	3.7437	2.3138	6.30	0.33	0.750			
0.5876	37603.65	3.7410	3.7411	2.3959	6.27	0.30	0.750			
0.5947	38061.57	3.7380	3.7382	2.5068	6.24	0.27	0.750			
0.6022	38543.12	3.7350	3.7347	2.5794	6.20	0.23	0.750			
0.6101	39044.16	3.7320	3.7324	2.6032	6.17	0.20	0.750			
0.6182	39565.67	3.7290	3.7289	2.6523	6.15	0.18	0.750			
0.6258	40048.68	3.7260	3.7264	2.6303	6.13	0.16	0.750			
0.6341	40584.89	3.7230	3.7230	2.6910	6.10	0.13	0.750			
0.6421	41092.70	3.7200	3.7201	2.5652	6.08	0.11	0.750			
0.6499	41594.74	3.7170	3.7168	2.5653	6.06	0.09	0.750			
0.6576	42089.37	3.7140	3.7136	2.4116	6.05	0.08	0.750			
0.6648	42547.30	3.7110	3.7110	2.2533	6.03	0.06	0.750			
0.6711	42948.07	3.7080	3.7083	1.9716	6.01	0.04	0.750			
0.6766	43303.59	3.7050	3.7054	1.7417	6.01	0.04	0.750			
0.6815	43615.16	3.7020	3.7020	1.5507	6.01	0.04	0.750			
0.6859	43895.77	3.6990	3.6989	1.3723	6.00	0.03	0.750			
0.6896	44136.04	3.6960	3.6960	1.2243	5.99	0.02	0.750			
0.6928	44341.35	3.6930	3.6931	1.0796	5.98	0.01	0.750			
0.6958	44532.13	3.6900	3.6900	0.9971	5.97	0.00	0.750			
0.6986	44712.96	3.6870	3.6868	0.9267	5.97	0.00	0.750			
0.7012	44877.73	3.6840	3.6840	0.8787	5.97	0.00	0.750			
0.7038	45042.85	3.6810	3.6811	0.8459	5.97	0.00	0.750			
0.7063	45203.63	3.6780	3.6779	0.8115	5.97	0.00	0.750			
0.7087	45357.45	3.6750	3.6750	0.7757	5.97	0.00	0.750			
0.7110	45503.42	3.6720	3.6721	0.7328	5.97	0.00	0.750			
0.7132	45641.92	3.6690	3.6689	0.6843	5.97	0.00	0.750			
0.7152	45769.82	3.6660	3.6660	0.6414	5.97	0.00	0.750			
0.7170	45885.16	3.6630	3.6631	0.5907	5.97	0.00	0.750			
0.7186	45993.40	3.6600	3.6600	0.5465	5.97	0.00	0.750			
0.7202	46094.27	3.6570	3.6569	0.5052	5.97	0.00	0.750			
0.7217	46185.93	3.6540	3.6542	0.4669	5.97	0.00	0.750			
0.7230	46273.25	3.6510	3.6510	0.4325	5.97	0.00	0.750			
0.7243	46353.09	3.6480	3.6479	0.3960	5.97	0.00	0.750			
0.7254	46425.62	3.6450	3.6450	0.3590	5.97	0.00	0.750			
0.7264	46490.00	3.6420	3.6420	0.3209	5.97	0.00	0.750			
0.7273	46548.65	3.6390	3.6391	0.2863	5.97	0.00	0.750			
0.7281	46600.19	3.6360	3.6359	0.2488	5.97	0.00	0.750			
0.7288	46644.02	3.6330	3.6329	0.2105	5.97	0.00	0.750			
0.7294	46681.25	3.6300	3.6300	0.1743	5.97	0.00	0.750			
0.7299	46710.89	3.6270	3.6272	0.1365	5.97	0.00	0.750			
0.7302	46735.06	3.6240	3.6244	0.0986	5.97	0.00	0.750			
0.7305	46750.98	3.6210	3.6217	0.0560	5.97	0.00	0.750			
0.7306	46757.60	3.6180	3.6189	0.0129	5.97	0.00	0.750			
