Ah_balance (normalized)	Ah_balance (mAh)	Voltage - fit (V)	Voltage -  interpolate (V)	dQ/dV (1/V)	Temperature (°C)	Temperature - diff (°C)	Current (C)	R_DC 0ms (mOhm)	R_DC 50ms (mOhm)	R_DC 50 ms PEC (mOhm)
0.0966	6181.61	4.0090	4.0084	-0.0574	5.98	0.01	-0.750			
0.0968	6196.70	4.0060	4.0057	-0.0922	5.98	0.01	-0.750			
0.0971	6217.35	4.0030	4.0028	-0.1202	5.98	0.01	-0.750			
0.0976	6243.49	4.0000	4.0000	-0.1468	5.98	0.01	-0.750			
0.0980	6274.51	3.9970	3.9970	-0.1718	5.98	0.01	-0.750			
0.0986	6310.06	3.9940	3.9940	-0.1961	5.98	0.01	-0.750			
0.0992	6350.97	3.9910	3.9911	-0.2213	5.98	0.01	-0.750			
0.0999	6395.84	3.9880	3.9880	-0.2429	5.98	0.01	-0.750			
0.1007	6444.42	3.9850	3.9850	-0.2657	5.98	0.01	-0.750			
0.1015	6497.71	3.9820	3.9820	-0.2879	5.98	0.01	-0.750			
0.1024	6555.13	3.9790	3.9789	-0.3089	5.97	0.00	-0.750			
0.1034	6616.42	3.9760	3.9760	-0.3323	5.97	0.00	-0.750			
0.1044	6682.60	3.9730	3.9730	-0.3538	5.97	0.00	-0.750			
0.1055	6752.51	3.9700	3.9702	-0.3755	5.97	-0.00	-0.750			
0.1067	6827.75	3.9670	3.9670	-0.3932	5.97	-0.00	-0.750			
0.1079	6903.59	3.9640	3.9641	-0.4123	5.97	-0.00	-0.750			
0.1091	6983.71	3.9610	3.9612	-0.4384	5.96	-0.01	-0.750			
0.1105	7069.03	3.9580	3.9581	-0.4646	5.96	-0.01	-0.750			
0.1119	7159.97	3.9550	3.9545	-0.4935	5.96	-0.01	-0.750			
0.1134	7259.64	3.9520	3.9522	-0.5140	5.96	-0.01	-0.750			
0.1150	7362.13	3.9490	3.9491	-0.5333	5.95	-0.02	-0.750			
0.1167	7470.34	3.9460	3.9460	-0.5553	5.95	-0.02	-0.750			
0.1184	7577.65	3.9430	3.9430	-0.5654	5.95	-0.02	-0.750			
0.1201	7683.25	3.9400	3.9400	-0.5746	5.95	-0.02	-0.750			
0.1218	7795.04	3.9370	3.9369	-0.5901	5.94	-0.03	-0.750			
0.1236	7909.35	3.9340	3.9340	-0.6051	5.94	-0.03	-0.750			
0.1255	8029.33	3.9310	3.9311	-0.6200	5.94	-0.03	-0.750			
0.1274	8151.13	3.9280	3.9280	-0.6304	5.93	-0.04	-0.750			
0.1293	8272.22	3.9250	3.9250	-0.6394	5.93	-0.04	-0.750			
0.1312	8395.41	3.9220	3.9221	-0.6462	5.93	-0.04	-0.750			
0.1331	8519.99	3.9190	3.9190	-0.6548	5.93	-0.04	-0.750			
0.1351	8646.06	3.9160	3.9160	-0.6661	5.93	-0.04	-0.750			
0.1371	8775.22	3.9130	3.9130	-0.6741	5.94	-0.03	-0.750			
0.1392	8906.67	3.9100	3.9100	-0.6781	5.94	-0.03	-0.750			
0.1412	9038.31	3.9070	3.9070	-0.6858	5.94	-0.03	-0.750			
0.1433	9169.65	3.9040	3.9042	-0.6881	5.94	-0.03	-0.750			
0.1453	9302.28	3.9010	3.9009	-0.6931	5.94	-0.03	-0.750			
0.1474	9434.76	3.8980	3.8980	-0.6977	5.94	-0.03	-0.750			
0.1495	9568.46	3.8950	3.8950	-0.7006	5.95	-0.02	-0.750			
0.1516	9704.79	3.8920	3.8920	-0.7100	5.95	-0.02	-0.750			
0.1538	9842.06	3.8890	3.8889	-0.7149	5.95	-0.02	-0.750			
0.1559	9978.80	3.8860	3.8861	-0.7182	5.95	-0.02	-0.750			
0.1581	10118.22	3.8830	3.8830	-0.7215	5.95	-0.02	-0.750			
0.1603	10256.56	3.8800	3.8800	-0.7258	5.96	-0.01	-0.750			
0.1625	10397.05	3.8770	3.8769	-0.7261	5.96	-0.01	-0.750			
0.1646	10537.59	3.8740	3.8740	-0.7241	5.96	-0.01	-0.750			
0.1668	10675.83	3.8710	3.8709	-0.7251	5.97	-0.00	-0.750			
0.1690	10814.86	3.8680	3.8680	-0.7260	5.97	0.00	-0.750			
0.1712	10953.83	3.8650	3.8649	-0.7294	5.98	0.01	-0.750			
0.1733	11093.54	3.8620	3.8621	-0.7364	5.98	0.01	-0.750			
0.1755	11234.45	3.8590	3.8590	-0.7371	5.98	0.01	-0.750			
0.1778	11378.51	3.8560	3.8560	-0.7435	5.99	0.02	-0.750			
0.1800	11522.95	3.8530	3.8532	-0.7473	5.99	0.02	-0.750			
0.1823	11666.23	3.8500	3.8499	-0.7401	5.99	0.02	-0.750			
0.1845	11808.41	3.8470	3.8470	-0.7395	6.00	0.03	-0.750			
0.1867	11949.30	3.8440	3.8441	-0.7423	6.01	0.04	-0.750			
0.1889	12090.62	3.8410	3.8409	-0.7410	6.01	0.04	-0.750			
0.1912	12234.28	3.8380	3.8379	-0.7464	6.02	0.05	-0.750			
0.1934	12378.02	3.8350	3.8351	-0.7455	6.02	0.05	-0.750			
0.1957	12521.98	3.8320	3.8319	-0.7495	6.03	0.06	-0.750			
0.1979	12667.88	3.8290	3.8290	-0.7506	6.03	0.06	-0.750			
0.2002	12809.94	3.8260	3.8261	-0.7482	6.04	0.07	-0.750			
0.2024	12954.16	3.8230	3.8229	-0.7501	6.04	0.07	-0.750			
0.2047	13098.25	3.8200	3.8200	-0.7498	6.05	0.08	-0.750			
0.2069	13241.42	3.8170	3.8169	-0.7499	6.06	0.09	-0.750			
0.2092	13385.70	3.8140	3.8140	-0.7519	6.06	0.09	-0.750			
0.2114	13529.89	3.8110	3.8110	-0.7540	6.07	0.10	-0.750			
0.2137	13675.62	3.8080	3.8080	-0.7514	6.08	0.11	-0.750			
0.2160	13820.99	3.8050	3.8049	-0.7498	6.08	0.11	-0.750			
0.2182	13964.50	3.8020	3.8022	-0.7519	6.09	0.12	-0.750			
0.2204	14107.65	3.7990	3.7988	-0.7524	6.10	0.13	-0.750			
0.2227	14252.18	3.7960	3.7960	-0.7554	6.11	0.14	-0.750			
0.2250	14397.51	3.7930	3.7930	-0.7583	6.11	0.14	-0.750			
0.2273	14546.23	3.7900	3.7900	-0.7615	6.12	0.15	-0.750			
0.2296	14693.02	3.7870	3.7870	-0.7606	6.13	0.16	-0.750			
0.2319	14838.82	3.7840	3.7839	-0.7585	6.13	0.16	-0.750			
0.2341	14982.20	3.7810	3.7810	-0.7600	6.14	0.17	-0.750			
0.2364	15126.66	3.7780	3.7779	-0.7584	6.15	0.18	-0.750			
0.2386	15271.69	3.7750	3.7751	-0.7600	6.16	0.19	-0.750			
0.2409	15419.51	3.7720	3.7719	-0.7658	6.16	0.19	-0.750			
0.2432	15566.94	3.7690	3.7692	-0.7695	6.17	0.20	-0.750			
0.2455	15714.73	3.7660	3.7660	-0.7719	6.18	0.21	-0.750			
0.2479	15863.82	3.7630	3.7630	-0.7749	6.19	0.22	-0.750			
0.2502	16015.50	3.7600	3.7598	-0.7652	6.19	0.22	-0.750			
0.2526	16167.72	3.7570	3.7570	-0.7457	6.20	0.23	-0.750			
0.2548	16309.47	3.7540	3.7541	-0.7217	6.21	0.24	-0.750			
0.2569	16442.65	3.7510	3.7513	-0.7165	6.21	0.24	-0.750			
0.2590	16573.94	3.7480	3.7474	-0.7156	6.22	0.25	-0.750			
0.2610	16701.78	3.7450	3.7447	-0.7250	6.22	0.25	-0.750			
0.2632	16843.17	3.7420	3.7419	-0.7426	6.23	0.26	-0.750			
0.2655	16989.84	3.7390	3.7390	-0.7696	6.23	0.26	-0.750			
0.2679	17144.15	3.7360	3.7362	-0.7889	6.24	0.27	-0.750			
0.2704	17302.49	3.7330	3.7329	-0.8018	6.25	0.28	-0.750			
0.2727	17455.95	3.7300	3.7300	-0.8091	6.25	0.28	-0.750			
0.2752	17610.59	3.7270	3.7270	-0.8116	6.26	0.29	-0.750			
0.2776	17768.75	3.7240	3.7240	-0.8179	6.26	0.29	-0.750			
0.2801	17926.67	3.7210	3.7212	-0.8196	6.27	0.30	-0.750			
0.2825	18082.57	3.7180	3.7180	-0.8271	6.28	0.31	-0.750			
0.2850	18241.79	3.7150	3.7150	-0.8377	6.29	0.32	-0.750			
0.2876	18405.11	3.7120	3.7119	-0.8400	6.29	0.32	-0.750			
0.2901	18566.21	3.7090	3.7090	-0.8413	6.30	0.33	-0.750			
0.2927	18730.02	3.7060	3.7062	-0.8550	6.31	0.34	-0.750			
0.2952	18894.06	3.7030	3.7030	-0.8677	6.31	0.34	-0.750			
0.2978	19060.60	3.7000	3.6998	-0.8744	6.31	0.34	-0.750			
0.3005	19229.12	3.6970	3.6970	-0.8789	6.32	0.35	-0.750			
0.3031	19401.30	3.6940	3.6940	-0.8893	6.32	0.35	-0.750			
0.3058	19572.99	3.6910	3.6912	-0.8994	6.32	0.35	-0.750			
0.3085	19746.17	3.6880	3.6881	-0.9066	6.33	0.36	-0.750			
0.3112	19919.75	3.6850	3.6848	-0.9062	6.33	0.36	-0.750			
0.3140	20093.15	3.6820	3.6821	-0.9194	6.34	0.37	-0.750			
0.3167	20270.59	3.6790	3.6791	-0.9318	6.35	0.38	-0.750			
0.3195	20450.40	3.6760	3.6759	-0.9444	6.36	0.39	-0.750			
0.3224	20635.81	3.6730	3.6729	-0.9516	6.36	0.39	-0.750			
0.3253	20818.08	3.6700	3.6701	-0.9558	6.37	0.40	-0.750			
0.3282	21002.88	3.6670	3.6670	-0.9634	6.38	0.41	-0.750			
0.3311	21189.36	3.6640	3.6640	-0.9833	6.39	0.42	-0.750			
0.3340	21377.62	3.6610	3.6609	-0.9881	6.40	0.43	-0.750			
0.3370	21568.68	3.6580	3.6579	-0.9940	6.40	0.43	-0.750			
0.3400	21760.92	3.6550	3.6551	-1.0068	6.41	0.44	-0.750			
0.3431	21955.65	3.6520	3.6521	-1.0320	6.41	0.44	-0.750			
0.3461	22153.38	3.6490	3.6490	-1.0404	6.42	0.45	-0.750			
0.3493	22355.02	3.6460	3.6458	-1.0446	6.42	0.45	-0.750			
0.3524	22555.75	3.6430	3.6430	-1.0520	6.43	0.46	-0.750			
0.3556	22759.62	3.6400	3.6403	-1.0748	6.43	0.46	-0.750			
0.3589	22970.59	3.6370	3.6369	-1.0759	6.44	0.47	-0.750			
0.3621	23175.91	3.6340	3.6339	-1.0805	6.44	0.47	-0.750			
0.3654	23382.96	3.6310	3.6309	-1.0882	6.45	0.48	-0.750			
0.3686	23592.68	3.6280	3.6282	-1.1105	6.45	0.48	-0.750			
0.3720	23809.05	3.6250	3.6247	-1.1207	6.46	0.49	-0.750			
0.3754	24026.25	3.6220	3.6220	-1.1249	6.46	0.49	-0.750			
0.3788	24240.04	3.6190	3.6189	-1.1306	6.47	0.50	-0.750			
0.3822	24463.42	3.6160	3.6159	-1.1506	6.47	0.50	-0.750			
0.3857	24682.37	3.6130	3.6129	-1.1527	6.48	0.51	-0.750			
0.3891	24904.30	3.6100	3.6099	-1.1620	6.48	0.51	-0.750			
0.3926	25124.27	3.6070	3.6073	-1.1808	6.49	0.52	-0.750			
0.3962	25358.83	3.6040	3.6039	-1.2059	6.50	0.53	-0.750			
0.3999	25591.59	3.6010	3.6009	-1.2234	6.51	0.54	-0.750			
0.4035	25823.86	3.5980	3.5980	-1.2455	6.52	0.55	-0.750			
0.4074	26073.45	3.5950	3.5949	-1.2626	6.52	0.55	-0.750			
0.4112	26315.63	3.5920	3.5921	-1.2645	6.52	0.55	-0.750	0.482	1.091	
0.4150	26559.09	3.5890	3.5890	-1.2749	6.53	0.56	-0.750			
0.4188	26801.95	3.5860	3.5862	-1.2740	6.53	0.56	-0.750			
0.4226	27049.16	3.5830	3.5828	-1.2837	6.54	0.57	-0.750			
0.4265	27294.74	3.5800	3.5800	-1.2879	6.54	0.57	-0.750			
0.4303	27537.19	3.5770	3.5772	-1.2961	6.55	0.58	-0.750			
0.4343	27792.05	3.5740	3.5739	-1.3296	6.56	0.59	-0.750			
0.4382	28046.72	3.5710	3.5710	-1.3399	6.56	0.59	-0.750			
0.4423	28306.57	3.5680	3.5680	-1.3656	6.57	0.60	-0.750			
0.4465	28574.98	3.5650	3.5650	-1.3874	6.58	0.61	-0.750			
0.4507	28844.89	3.5620	3.5619	-1.3954	6.58	0.61	-0.750			
0.4549	29114.74	3.5590	3.5592	-1.4062	6.59	0.62	-0.750			
0.4591	29383.64	3.5560	3.5559	-1.4077	6.60	0.63	-0.750			
0.4634	29655.87	3.5530	3.5529	-1.4006	6.60	0.63	-0.750			
0.4676	29925.65	3.5500	3.5502	-1.4087	6.61	0.64	-0.750			
0.4718	30195.12	3.5470	3.5470	-1.4285	6.62	0.65	-0.750			
0.4760	30466.38	3.5440	3.5438	-1.4504	6.62	0.65	-0.750			
0.4804	30746.67	3.5410	3.5413	-1.4663	6.63	0.66	-0.750			
0.4848	31029.68	3.5380	3.5382	-1.4884	6.64	0.67	-0.750			
0.4894	31320.01	3.5350	3.5350	-1.5375	6.64	0.67	-0.750			
0.4941	31625.51	3.5320	3.5319	-1.5379	6.65	0.68	-0.750			
0.4989	31926.65	3.5290	3.5291	-1.5568	6.66	0.69	-0.750			
0.5036	32228.23	3.5260	3.5262	-1.5615	6.67	0.70	-0.750			
0.5082	32524.74	3.5230	3.5228	-1.5514	6.67	0.70	-0.750			
0.5128	32820.06	3.5200	3.5202	-1.5678	6.68	0.71	-0.750			
0.5175	33121.49	3.5170	3.5172	-1.5606	6.68	0.71	-0.750			
0.5222	33422.00	3.5140	3.5141	-1.5541	6.69	0.72	-0.750			
0.5269	33723.77	3.5110	3.5109	-1.5703	6.70	0.73	-0.750			
0.5315	34018.75	3.5080	3.5082	-1.5849	6.71	0.74	-0.750			
0.5364	34328.25	3.5050	3.5048	-1.6021	6.72	0.75	-0.750			
0.5413	34640.93	3.5020	3.5020	-1.5911	6.73	0.76	-0.750			
0.5460	34944.45	3.4990	3.4989	-1.5797	6.74	0.77	-0.750			
0.5508	35251.80	3.4960	3.4958	-1.5866	6.74	0.77	-0.750			
0.5555	35551.40	3.4930	3.4929	-1.5863	6.75	0.78	-0.750			
0.5602	35853.36	3.4900	3.4900	-1.5645	6.76	0.79	-0.750			
0.5650	36157.10	3.4870	3.4868	-1.5650	6.77	0.80	-0.750			
0.5697	36463.39	3.4840	3.4838	-1.5460	6.78	0.81	-0.750			
0.5745	36765.10	3.4810	3.4810	-1.5270	6.80	0.83	-0.750			
0.5789	37051.26	3.4780	3.4785	-1.5020	6.81	0.84	-0.750			
0.5833	37333.68	3.4750	3.4748	-1.4962	6.82	0.85	-0.750			
0.5877	37615.07	3.4720	3.4718	-1.5218	6.83	0.86	-0.750			
0.5923	37908.69	3.4690	3.4687	-1.5143	6.85	0.88	-0.750			
0.5968	38198.28	3.4660	3.4661	-1.5339	6.86	0.89	-0.750			
0.6016	38505.03	3.4630	3.4631	-1.5486	6.86	0.89	-0.750			
0.6063	38803.28	3.4600	3.4600	-1.5215	6.87	0.90	-0.750			
0.6107	39086.22	3.4570	3.4568	-1.4824	6.89	0.92	-0.750			
0.6151	39366.97	3.4540	3.4542	-1.4684	6.90	0.93	-0.750			
0.6197	39660.94	3.4510	3.4509	-1.4782	6.92	0.95	-0.750			
0.6240	39936.68	3.4480	3.4479	-1.4354	6.93	0.96	-0.750			
0.6281	40200.99	3.4450	3.4450	-1.4007	6.94	0.97	-0.750			
0.6324	40474.80	3.4420	3.4418	-1.3894	6.96	0.99	-0.750			
0.6366	40741.98	3.4390	3.4390	-1.3762	6.97	1.00	-0.750			
0.6406	41000.07	3.4360	3.4360	-1.3547	6.98	1.01	-0.750			
0.6447	41259.88	3.4330	3.4330	-1.3256	7.00	1.03	-0.750			
0.6486	41512.86	3.4300	3.4300	-1.2986	7.01	1.04	-0.750			
0.6526	41764.72	3.4270	3.4269	-1.2857	7.03	1.06	-0.750			
0.6563	42006.05	3.4240	3.4241	-1.2560	7.04	1.07	-0.750			
0.6601	42247.52	3.4210	3.4209	-1.2313	7.06	1.09	-0.750			
0.6638	42480.53	3.4180	3.4179	-1.1959	7.07	1.10	-0.750			
0.6673	42706.40	3.4150	3.4151	-1.1583	7.09	1.12	-0.750			
0.6708	42929.95	3.4120	3.4119	-1.1438	7.10	1.13	-0.750			
0.6741	43143.68	3.4090	3.4089	-1.1132	7.12	1.15	-0.750			
0.6774	43353.11	3.4060	3.4059	-1.0880	7.14	1.17	-0.750			
0.6806	43558.22	3.4030	3.4032	-1.0616	7.15	1.18	-0.750			
0.6838	43764.17	3.4000	3.3999	-1.0448	7.17	1.20	-0.750			
0.6869	43963.88	3.3970	3.3970	-1.0157	7.18	1.21	-0.750			
0.6899	44155.73	3.3940	3.3939	-0.9877	7.20	1.23	-0.750			
0.6929	44342.42	3.3910	3.3912	-0.9623	7.21	1.24	-0.750			
0.6957	44523.18	3.3880	3.3880	-0.9344	7.22	1.25	-0.750			
0.6984	44698.82	3.3850	3.3849	-0.9064	7.24	1.27	-0.750			
0.7011	44870.11	3.3820	3.3820	-0.8849	7.25	1.28	-0.750			
0.7037	45037.83	3.3790	3.3791	-0.8609	7.26	1.29	-0.750			
0.7063	45201.26	3.3760	3.3760	-0.8396	7.27	1.30	-0.750			
0.7087	45358.41	3.3730	3.3730	-0.8206	7.29	1.32	-0.750			
0.7112	45515.41	3.3700	3.3700	-0.8002	7.30	1.33	-0.750			
0.7136	45667.32	3.3670	3.3669	-0.7767	7.31	1.34	-0.750			
0.7159	45815.66	3.3640	3.3639	-0.7527	7.32	1.35	-0.750			
0.7181	45956.82	3.3610	3.3612	-0.7301	7.33	1.36	-0.750			
0.7202	46095.28	3.3580	3.3580	-0.7086	7.34	1.37	-0.750			
0.7223	46227.46	3.3550	3.3549	-0.6866	7.35	1.38	-0.750			
0.7243	46356.19	3.3520	3.3520	-0.6700	7.36	1.39	-0.750			
0.7263	46483.71	3.3490	3.3490	-0.6580	7.37	1.40	-0.750			
0.7283	46609.09	3.3460	3.3460	-0.6520	7.38	1.41	-0.750			
