Ah_balance (normalized)	Ah_balance (mAh)	Voltage - fit (V)	Voltage -  interpolate (V)	dQ/dV (1/V)	Temperature (°C)	Temperature - diff (°C)	Current (C)	R_DC 0ms (mOhm)	R_DC 50ms (mOhm)	R_DC 50 ms PEC (mOhm)
0.1778	11379.75	4.0810	4.0810	0.7802	7.53	1.55	0.750			
0.1801	11529.10	4.0780	4.0779	0.7725	7.53	1.55	0.750			
0.1824	11673.66	4.0750	4.0750	0.7653	7.52	1.54	0.750			
0.1847	11820.40	4.0720	4.0720	0.7695	7.52	1.54	0.750			
0.1870	11967.53	4.0690	4.0688	0.7714	7.51	1.53	0.750			
0.1893	12116.56	4.0660	4.0660	0.7784	7.51	1.53	0.750			
0.1917	12270.09	4.0630	4.0630	0.7722	7.50	1.52	0.750			
0.1940	12416.61	4.0600	4.0601	0.7785	7.49	1.51	0.750			
0.1963	12565.40	4.0570	4.0571	0.7817	7.49	1.51	0.750			
0.1986	12712.96	4.0540	4.0541	0.7889	7.48	1.50	0.750			
0.2010	12864.12	4.0510	4.0507	0.7930	7.48	1.50	0.750			
0.2035	13021.07	4.0480	4.0482	0.7909	7.47	1.49	0.750			
0.2058	13174.02	4.0450	4.0451	0.8023	7.47	1.49	0.750			
0.2083	13329.57	4.0420	4.0422	0.8098	7.46	1.48	0.750			
0.2107	13484.16	4.0390	4.0391	0.8105	7.45	1.47	0.750			
0.2131	13637.79	4.0360	4.0358	0.8149	7.45	1.47	0.750			
0.2156	13796.78	4.0330	4.0330	0.8142	7.44	1.46	0.750			
0.2180	13954.81	4.0300	4.0301	0.8246	7.43	1.45	0.750			
0.2205	14114.86	4.0270	4.0270	0.8223	7.42	1.44	0.750			
0.2230	14270.19	4.0240	4.0241	0.8207	7.42	1.44	0.750			
0.2254	14427.55	4.0210	4.0209	0.8240	7.41	1.43	0.750			
0.2279	14586.14	4.0180	4.0182	0.8307	7.41	1.43	0.750			
0.2304	14747.36	4.0150	4.0149	0.8233	7.40	1.42	0.750			
0.2329	14906.87	4.0120	4.0121	0.8240	7.40	1.42	0.750			
0.2354	15062.55	4.0090	4.0092	0.8254	7.39	1.41	0.750			
0.2378	15220.08	4.0060	4.0058	0.8315	7.39	1.41	0.750			
0.2403	15379.60	4.0030	4.0029	0.8295	7.38	1.40	0.750			
0.2428	15539.84	4.0000	4.0000	0.8394	7.37	1.39	0.750			
0.2454	15702.45	3.9970	3.9971	0.8507	7.36	1.38	0.750			
0.2479	15867.41	3.9940	3.9941	0.8554	7.36	1.38	0.750			
0.2505	16033.93	3.9910	3.9910	0.8572	7.35	1.37	0.750			
0.2531	16197.95	3.9880	3.9880	0.8589	7.34	1.36	0.750			
0.2557	16361.92	3.9850	3.9851	0.8639	7.33	1.35	0.750			
0.2583	16529.06	3.9820	3.9820	0.8703	7.32	1.34	0.750			
0.2609	16695.73	3.9790	3.9790	0.8749	7.32	1.34	0.750			
0.2635	16864.41	3.9760	3.9762	0.8803	7.31	1.33	0.750			
0.2662	17035.56	3.9730	3.9730	0.8847	7.30	1.32	0.750			
0.2689	17207.86	3.9700	3.9700	0.8908	7.29	1.31	0.750			
0.2715	17378.08	3.9670	3.9671	0.8890	7.29	1.31	0.750			
0.2742	17547.80	3.9640	3.9639	0.8911	7.28	1.30	0.750			
0.2769	17719.15	3.9610	3.9609	0.8963	7.28	1.30	0.750			
0.2795	17890.70	3.9580	3.9580	0.8894	7.27	1.29	0.750			
0.2822	18059.35	3.9550	3.9551	0.9020	7.26	1.28	0.750			
0.2849	18234.49	3.9520	3.9521	0.9102	7.26	1.28	0.750			
0.2876	18409.54	3.9490	3.9485	0.9184	7.25	1.27	0.750			
0.2904	18588.29	3.9460	3.9461	0.9191	7.24	1.26	0.750			
0.2932	18764.23	3.9430	3.9432	0.9282	7.23	1.25	0.750			
0.2960	18945.73	3.9400	3.9401	0.9336	7.22	1.24	0.750			
0.2988	19123.70	3.9370	3.9370	0.9275	7.21	1.23	0.750			
0.3016	19301.46	3.9340	3.9340	0.9330	7.20	1.22	0.750			
0.3044	19479.62	3.9310	3.9311	0.9389	7.19	1.21	0.750			
0.3072	19658.15	3.9280	3.9280	0.9511	7.18	1.20	0.750			
0.3100	19843.05	3.9250	3.9250	0.9665	7.16	1.18	0.750			
0.3129	20026.89	3.9220	3.9218	0.9732	7.15	1.17	0.750			
0.3159	20217.69	3.9190	3.9192	0.9864	7.14	1.16	0.750			
0.3189	20409.76	3.9160	3.9160	0.9985	7.14	1.16	0.750			
0.3219	20603.36	3.9130	3.9131	1.0061	7.13	1.15	0.750			
0.3249	20795.86	3.9100	3.9097	1.0059	7.13	1.15	0.750			
0.3280	20989.30	3.9070	3.9071	1.0082	7.12	1.14	0.750			
0.3310	21183.67	3.9040	3.9041	1.0188	7.11	1.13	0.750			
0.3340	21378.79	3.9010	3.9010	1.0292	7.10	1.12	0.750			
0.3371	21575.17	3.8980	3.8977	1.0402	7.09	1.11	0.750			
0.3403	21777.00	3.8950	3.8951	1.0476	7.08	1.10	0.750			
0.3434	21979.11	3.8920	3.8920	1.0615	7.06	1.08	0.750			
0.3466	22185.45	3.8890	3.8891	1.0788	7.05	1.07	0.750			
0.3499	22394.90	3.8860	3.8858	1.0931	7.03	1.05	0.750			
0.3531	22601.29	3.8830	3.8830	1.0942	7.02	1.04	0.750			
0.3564	22812.28	3.8800	3.8801	1.1106	7.01	1.03	0.750			
0.3598	23026.17	3.8770	3.8771	1.1283	7.00	1.02	0.750			
0.3633	23248.04	3.8740	3.8738	1.1339	6.99	1.01	0.750			
0.3666	23464.67	3.8710	3.8711	1.1570	6.98	1.00	0.750			
0.3701	23687.55	3.8680	3.8682	1.1768	6.97	0.99	0.750			
0.3737	23918.11	3.8650	3.8649	1.1926	6.95	0.97	0.750			
0.3773	24145.71	3.8620	3.8621	1.2012	6.94	0.96	0.750			
0.3809	24378.06	3.8590	3.8591	1.2338	6.93	0.95	0.750			
0.3847	24618.48	3.8560	3.8560	1.2552	6.92	0.94	0.750			
0.3885	24866.00	3.8530	3.8530	1.2566	6.91	0.93	0.750			
0.3923	25106.82	3.8500	3.8501	1.2727	6.89	0.91	0.750			
0.3961	25352.85	3.8470	3.8472	1.2935	6.87	0.89	0.750			
0.4000	25601.81	3.8440	3.8436	1.3157	6.85	0.87	0.750			
0.4039	25848.64	3.8410	3.8410	1.3457	6.84	0.86	0.750			
0.4080	26109.39	3.8380	3.8380	1.3854	6.82	0.84	0.750	0.368	0.880	
0.4123	26386.00	3.8350	3.8347	1.4052	6.81	0.83	0.750			
0.4165	26659.06	3.8320	3.8322	1.4383	6.79	0.81	0.750			
0.4209	26935.01	3.8290	3.8292	1.4693	6.77	0.79	0.750			
0.4253	27218.81	3.8260	3.8255	1.4814	6.75	0.77	0.750			
0.4298	27505.79	3.8230	3.8231	1.4842	6.73	0.75	0.750			
0.4343	27792.73	3.8200	3.8202	1.5285	6.72	0.74	0.750			
0.4389	28091.35	3.8170	3.8172	1.5808	6.70	0.72	0.750			
0.4437	28395.96	3.8140	3.8137	1.5958	6.68	0.70	0.750			
0.4486	28709.22	3.8110	3.8111	1.6209	6.66	0.68	0.750			
0.4537	29033.99	3.8080	3.8081	1.6632	6.63	0.65	0.750			
0.4586	29348.13	3.8050	3.8050	1.6885	6.61	0.63	0.750			
0.4635	29664.76	3.8020	3.8019	1.7079	6.59	0.61	0.750			
0.4687	29996.34	3.7990	3.7987	1.7527	6.57	0.59	0.750			
0.4740	30336.69	3.7960	3.7961	1.7705	6.54	0.56	0.750			
0.4794	30681.56	3.7930	3.7933	1.8169	6.52	0.54	0.750			
0.4850	31042.35	3.7900	3.7902	1.8319	6.50	0.52	0.750			
0.4904	31385.50	3.7870	3.7871	1.8781	6.48	0.50	0.750			
0.4960	31744.31	3.7840	3.7839	1.9309	6.46	0.48	0.750			
0.5019	32124.18	3.7810	3.7809	1.9429	6.43	0.45	0.750			
0.5078	32501.98	3.7780	3.7776	1.9340	6.41	0.43	0.750			
0.5137	32877.51	3.7750	3.7751	1.9267	6.39	0.41	0.750			
0.5192	33231.91	3.7720	3.7722	1.9478	6.36	0.38	0.750			
0.5250	33596.85	3.7690	3.7689	1.9579	6.34	0.36	0.750			
0.5311	33990.90	3.7660	3.7662	2.0178	6.32	0.34	0.750			
0.5372	34382.21	3.7630	3.7630	2.0748	6.29	0.31	0.750			
0.5435	34783.45	3.7600	3.7596	2.0357	6.27	0.29	0.750			
0.5496	35171.93	3.7570	3.7571	2.0479	6.25	0.27	0.750			
0.5557	35563.40	3.7540	3.7539	2.0688	6.22	0.24	0.750			
0.5620	35965.67	3.7510	3.7509	2.0799	6.19	0.21	0.750			
0.5682	36367.28	3.7480	3.7485	2.1685	6.17	0.19	0.750			
0.5751	36805.21	3.7450	3.7447	2.2508	6.15	0.17	0.750			
0.5818	37232.21	3.7420	3.7422	2.2756	6.13	0.15	0.750			
0.5889	37687.55	3.7390	3.7390	2.3634	6.11	0.13	0.750			
0.5960	38141.48	3.7360	3.7360	2.4272	6.08	0.10	0.750			
0.6035	38621.94	3.7330	3.7330	2.5051	6.06	0.08	0.750			
0.6111	39110.01	3.7300	3.7300	2.5293	6.05	0.07	0.750			
0.6187	39599.07	3.7270	3.7270	2.5227	6.04	0.06	0.750			
0.6264	40091.04	3.7240	3.7241	2.5109	6.03	0.05	0.750			
0.6338	40564.64	3.7210	3.7210	2.4197	6.00	0.02	0.750			
0.6409	41017.26	3.7180	3.7178	2.3055	5.99	0.01	0.750			
0.6478	41456.19	3.7150	3.7151	2.2098	5.99	0.01	0.750			
0.6542	41870.61	3.7120	3.7118	2.1172	5.98	0.00	0.750			
0.6605	42270.86	3.7090	3.7087	1.8962	5.97	-0.01	0.750			
0.6659	42618.49	3.7060	3.7064	1.6778	5.96	-0.02	0.750			
0.6705	42910.92	3.7030	3.7031	1.4474	5.96	-0.02	0.750			
0.6742	43149.45	3.7000	3.6998	1.2651	5.95	-0.03	0.750			
0.6775	43359.98	3.6970	3.6970	1.0933	5.95	-0.03	0.750			
0.6805	43551.87	3.6940	3.6940	1.0131	5.95	-0.03	0.750			
0.6834	43735.68	3.6910	3.6910	0.9667	5.95	-0.03	0.750			
0.6861	43912.49	3.6880	3.6880	0.9237	5.95	-0.03	0.750			
0.6888	44085.85	3.6850	3.6851	0.9041	5.95	-0.03	0.750			
0.6916	44260.85	3.6820	3.6819	0.8726	5.95	-0.03	0.750			
0.6942	44426.35	3.6790	3.6789	0.8409	5.95	-0.03	0.750			
0.6967	44588.97	3.6760	3.6762	0.8105	5.95	-0.03	0.750			
0.6991	44739.89	3.6730	3.6730	0.7697	5.95	-0.03	0.750			
0.7013	44881.25	3.6700	3.6700	0.7300	5.95	-0.03	0.750			
0.7034	45014.93	3.6670	3.6671	0.6874	5.96	-0.02	0.750			
0.7053	45142.31	3.6640	3.6640	0.6557	5.96	-0.02	0.750			
0.7074	45271.15	3.6610	3.6610	0.6315	5.97	-0.01	0.750			
0.7092	45386.37	3.6580	3.6580	0.5914	5.97	-0.01	0.750			
0.7109	45497.60	3.6550	3.6550	0.5572	5.98	-0.00	0.750			
0.7125	45601.20	3.6520	3.6519	0.5189	5.98	0.00	0.750			
0.7140	45697.05	3.6490	3.6491	0.4825	5.98	0.00	0.750			
0.7154	45786.47	3.6460	3.6460	0.4480	5.99	0.01	0.750			
0.7167	45868.58	3.6430	3.6429	0.4120	5.99	0.01	0.750			
0.7179	45943.73	3.6400	3.6400	0.3757	5.99	0.01	0.750			
0.7189	46012.78	3.6370	3.6370	0.3430	6.00	0.02	0.750			
0.7199	46075.84	3.6340	3.6340	0.3106	6.00	0.02	0.750			
0.7208	46132.35	3.6310	3.6310	0.2766	6.00	0.02	0.750			
0.7216	46183.36	3.6280	3.6279	0.2387	6.00	0.02	0.750			
0.7223	46226.00	3.6250	3.6250	0.2014	6.00	0.02	0.750			
0.7228	46261.94	3.6220	3.6221	0.1639	6.00	0.02	0.750			
0.7233	46290.31	3.6190	3.6192	0.1236	6.01	0.03	0.750			
0.7236	46310.95	3.6160	3.6166	0.0804	6.01	0.03	0.750			
0.7238	46322.51	3.6130	3.6133	0.0344	6.01	0.03	0.750			
0.7238	46324.69	3.6100	3.6125	-0.0116	6.01	0.03	0.750			
