Ah_balance (normalized)	Ah_balance (mAh)	Voltage - fit (V)	Voltage -  interpolate (V)	dQ/dV (1/V)	Temperature (°C)	Temperature - diff (°C)	Current (C)	R_DC 0ms (mOhm)	R_DC 50ms (mOhm)	R_DC 50 ms PEC (mOhm)
0.0978	6260.81	4.0070	4.0065	-0.0568	5.99	0.00	-0.750			
0.0981	6276.30	4.0040	4.0037	-0.0934	5.99	0.00	-0.750			
0.0984	6298.44	4.0010	4.0007	-0.1233	5.99	0.00	-0.750			
0.0988	6325.46	3.9980	3.9978	-0.1495	5.99	0.00	-0.750			
0.0993	6356.86	3.9950	3.9952	-0.1743	5.99	-0.00	-0.750			
0.0999	6392.90	3.9920	3.9921	-0.1981	5.99	-0.00	-0.750			
0.1005	6434.08	3.9890	3.9890	-0.2239	5.99	-0.00	-0.750			
0.1012	6478.47	3.9860	3.9861	-0.2467	5.98	-0.01	-0.750			
0.1020	6528.56	3.9830	3.9830	-0.2686	5.98	-0.01	-0.750			
0.1028	6582.04	3.9800	3.9799	-0.2925	5.98	-0.01	-0.750			
0.1038	6640.56	3.9770	3.9772	-0.3168	5.98	-0.01	-0.750			
0.1048	6704.05	3.9740	3.9739	-0.3403	5.97	-0.02	-0.750			
0.1058	6771.87	3.9710	3.9710	-0.3638	5.97	-0.02	-0.750			
0.1069	6843.57	3.9680	3.9681	-0.3886	5.97	-0.02	-0.750			
0.1081	6921.03	3.9650	3.9650	-0.4108	5.96	-0.03	-0.750			
0.1094	7002.64	3.9620	3.9619	-0.4356	5.96	-0.03	-0.750			
0.1107	7087.78	3.9590	3.9591	-0.4546	5.95	-0.04	-0.750			
0.1121	7176.95	3.9560	3.9561	-0.4778	5.95	-0.04	-0.750			
0.1136	7271.15	3.9530	3.9531	-0.5003	5.95	-0.04	-0.750			
0.1151	7368.74	3.9500	3.9500	-0.5220	5.94	-0.05	-0.750			
0.1167	7471.11	3.9470	3.9470	-0.5425	5.94	-0.05	-0.750			
0.1184	7579.31	3.9440	3.9440	-0.5632	5.94	-0.05	-0.750			
0.1201	7689.50	3.9410	3.9410	-0.5767	5.94	-0.05	-0.750			
0.1219	7803.52	3.9380	3.9380	-0.5926	5.93	-0.06	-0.750			
0.1237	7917.96	3.9350	3.9351	-0.6036	5.93	-0.06	-0.750			
0.1255	8034.67	3.9320	3.9319	-0.6172	5.93	-0.06	-0.750			
0.1274	8154.44	3.9290	3.9290	-0.6274	5.92	-0.07	-0.750			
0.1293	8273.95	3.9260	3.9260	-0.6461	5.92	-0.07	-0.750			
0.1313	8402.14	3.9230	3.9230	-0.6510	5.92	-0.07	-0.750			
0.1333	8530.53	3.9200	3.9199	-0.6614	5.92	-0.07	-0.750			
0.1353	8656.80	3.9170	3.9169	-0.6671	5.91	-0.08	-0.750			
0.1373	8784.99	3.9140	3.9142	-0.6734	5.91	-0.08	-0.750			
0.1393	8914.44	3.9110	3.9109	-0.6778	5.91	-0.08	-0.750			
0.1413	9044.12	3.9080	3.9079	-0.6866	5.91	-0.08	-0.750			
0.1434	9175.49	3.9050	3.9052	-0.6856	5.91	-0.08	-0.750			
0.1455	9311.90	3.9020	3.9019	-0.7082	5.91	-0.08	-0.750			
0.1476	9447.91	3.8990	3.8990	-0.7133	5.91	-0.08	-0.750			
0.1497	9581.81	3.8960	3.8962	-0.7358	5.91	-0.08	-0.750			
0.1519	9721.45	3.8930	3.8930	-0.7601	5.91	-0.08	-0.750			
0.1543	9872.76	3.8900	3.8899	-0.7822	5.92	-0.07	-0.750			
0.1567	10030.61	3.8870	3.8867	-0.7887	5.92	-0.07	-0.750			
0.1592	10186.93	3.8840	3.8843	-0.7924	5.93	-0.06	-0.750			
0.1616	10340.14	3.8810	3.8810	-0.7797	5.93	-0.06	-0.750			
0.1639	10490.84	3.8780	3.8779	-0.7702	5.93	-0.06	-0.750			
0.1662	10634.20	3.8750	3.8749	-0.7521	5.94	-0.05	-0.750			
0.1683	10772.35	3.8720	3.8720	-0.7431	5.94	-0.05	-0.750			
0.1706	10915.43	3.8690	3.8689	-0.7444	5.94	-0.05	-0.750			
0.1728	11058.90	3.8660	3.8660	-0.7459	5.95	-0.04	-0.750			
0.1750	11201.58	3.8630	3.8630	-0.7466	5.95	-0.04	-0.750			
0.1773	11344.84	3.8600	3.8599	-0.7491	5.95	-0.04	-0.750			
0.1795	11488.54	3.8570	3.8570	-0.7503	5.95	-0.04	-0.750			
0.1817	11631.66	3.8540	3.8540	-0.7487	5.96	-0.03	-0.750			
0.1840	11777.92	3.8510	3.8510	-0.7557	5.96	-0.03	-0.750			
0.1863	11923.01	3.8480	3.8481	-0.7537	5.96	-0.03	-0.750			
0.1885	12066.84	3.8450	3.8449	-0.7570	5.96	-0.03	-0.750			
0.1908	12210.34	3.8420	3.8420	-0.7604	5.97	-0.02	-0.750			
0.1931	12358.59	3.8390	3.8390	-0.7572	5.98	-0.01	-0.750			
0.1954	12503.22	3.8360	3.8360	-0.7599	5.98	-0.01	-0.750			
0.1977	12651.55	3.8330	3.8330	-0.7649	5.99	-0.00	-0.750			
0.2000	12798.70	3.8300	3.8299	-0.7615	5.99	0.00	-0.750			
0.2023	12944.79	3.8270	3.8269	-0.7601	6.00	0.01	-0.750			
0.2045	13089.08	3.8240	3.8242	-0.7605	6.00	0.01	-0.750			
0.2068	13235.38	3.8210	3.8209	-0.7618	6.01	0.02	-0.750			
0.2091	13383.74	3.8180	3.8179	-0.7655	6.01	0.02	-0.750			
0.2114	13528.30	3.8150	3.8150	-0.7592	6.02	0.03	-0.750			
0.2137	13674.27	3.8120	3.8120	-0.7625	6.02	0.03	-0.750			
0.2160	13822.15	3.8090	3.8090	-0.7677	6.03	0.04	-0.750			
0.2183	13969.62	3.8060	3.8060	-0.7655	6.03	0.04	-0.750			
0.2206	14115.46	3.8030	3.8030	-0.7652	6.03	0.04	-0.750			
0.2229	14265.97	3.8000	3.8000	-0.7655	6.04	0.05	-0.750			
0.2252	14412.24	3.7970	3.7971	-0.7651	6.04	0.05	-0.750			
0.2275	14557.56	3.7940	3.7939	-0.7677	6.05	0.06	-0.750			
0.2298	14704.20	3.7910	3.7911	-0.7696	6.05	0.06	-0.750			
0.2321	14852.41	3.7880	3.7878	-0.7672	6.06	0.07	-0.750			
0.2344	15001.57	3.7850	3.7850	-0.7656	6.06	0.07	-0.750			
0.2367	15148.41	3.7820	3.7821	-0.7666	6.07	0.08	-0.750			
0.2390	15295.70	3.7790	3.7790	-0.7697	6.07	0.08	-0.750			
0.2413	15442.63	3.7760	3.7760	-0.7699	6.08	0.09	-0.750			
0.2436	15590.74	3.7730	3.7729	-0.7730	6.08	0.09	-0.750			
0.2459	15740.10	3.7700	3.7700	-0.7769	6.08	0.09	-0.750			
0.2483	15891.35	3.7670	3.7670	-0.7800	6.09	0.10	-0.750			
0.2506	16040.33	3.7640	3.7639	-0.7828	6.09	0.10	-0.750			
0.2530	16189.62	3.7610	3.7610	-0.7827	6.10	0.11	-0.750			
0.2553	16340.05	3.7580	3.7580	-0.7864	6.10	0.11	-0.750			
0.2577	16491.09	3.7550	3.7550	-0.7817	6.11	0.12	-0.750			
0.2601	16643.76	3.7520	3.7521	-0.7823	6.12	0.13	-0.750			
0.2624	16792.84	3.7490	3.7491	-0.7865	6.12	0.13	-0.750			
0.2647	16943.84	3.7460	3.7459	-0.7886	6.12	0.13	-0.750			
0.2671	17094.67	3.7430	3.7429	-0.7892	6.13	0.14	-0.750			
0.2695	17246.09	3.7400	3.7401	-0.7920	6.13	0.14	-0.750			
0.2719	17399.69	3.7370	3.7370	-0.7962	6.14	0.15	-0.750			
0.2743	17552.67	3.7340	3.7341	-0.8053	6.14	0.15	-0.750			
0.2767	17706.60	3.7310	3.7309	-0.8089	6.14	0.15	-0.750			
0.2791	17861.15	3.7280	3.7281	-0.8153	6.15	0.16	-0.750			
0.2816	18019.69	3.7250	3.7249	-0.8225	6.15	0.16	-0.750			
0.2841	18180.15	3.7220	3.7221	-0.8323	6.16	0.17	-0.750			
0.2866	18340.57	3.7190	3.7191	-0.8340	6.16	0.17	-0.750			
0.2891	18500.73	3.7160	3.7159	-0.8398	6.16	0.17	-0.750			
0.2916	18660.57	3.7130	3.7130	-0.8440	6.17	0.18	-0.750			
0.2941	18823.64	3.7100	3.7100	-0.8461	6.17	0.18	-0.750			
0.2967	18986.23	3.7070	3.7070	-0.8507	6.18	0.19	-0.750			
0.2992	19151.14	3.7040	3.7041	-0.8617	6.18	0.19	-0.750			
0.3018	19315.77	3.7010	3.7010	-0.8746	6.18	0.19	-0.750			
0.3045	19485.05	3.6980	3.6979	-0.8803	6.19	0.20	-0.750			
0.3071	19654.30	3.6950	3.6950	-0.8892	6.19	0.20	-0.750			
0.3098	19827.00	3.6920	3.6921	-0.9007	6.20	0.21	-0.750			
0.3125	20001.76	3.6890	3.6891	-0.9104	6.20	0.21	-0.750			
0.3152	20175.85	3.6860	3.6860	-0.9214	6.21	0.22	-0.750			
0.3180	20353.61	3.6830	3.6830	-0.9276	6.21	0.22	-0.750			
0.3208	20532.62	3.6800	3.6800	-0.9382	6.21	0.22	-0.750			
0.3237	20715.91	3.6770	3.6772	-0.9499	6.22	0.23	-0.750			
0.3265	20897.89	3.6740	3.6739	-0.9568	6.22	0.23	-0.750			
0.3294	21083.21	3.6710	3.6709	-0.9593	6.22	0.23	-0.750			
0.3323	21266.52	3.6680	3.6681	-0.9614	6.23	0.24	-0.750			
0.3352	21449.71	3.6650	3.6649	-0.9730	6.23	0.24	-0.750			
0.3381	21639.80	3.6620	3.6619	-0.9872	6.23	0.24	-0.750			
0.3411	21831.52	3.6590	3.6589	-1.0002	6.23	0.24	-0.750			
0.3442	22026.41	3.6560	3.6560	-1.0087	6.23	0.24	-0.750			
0.3472	22219.57	3.6530	3.6530	-1.0188	6.23	0.24	-0.750			
0.3503	22417.49	3.6500	3.6501	-1.0388	6.23	0.24	-0.750			
0.3534	22617.45	3.6470	3.6469	-1.0438	6.23	0.24	-0.750			
0.3565	22816.81	3.6440	3.6439	-1.0541	6.24	0.25	-0.750			
0.3597	23020.18	3.6410	3.6410	-1.0591	6.24	0.25	-0.750			
0.3629	23228.67	3.6380	3.6382	-1.0821	6.24	0.25	-0.750			
0.3662	23437.75	3.6350	3.6349	-1.0919	6.24	0.25	-0.750			
0.3695	23646.41	3.6320	3.6320	-1.0971	6.25	0.26	-0.750			
0.3727	23855.61	3.6290	3.6290	-1.1081	6.25	0.26	-0.750			
0.3761	24072.18	3.6260	3.6260	-1.1277	6.25	0.26	-0.750			
0.3795	24290.08	3.6230	3.6230	-1.1406	6.25	0.26	-0.750			
0.3830	24511.46	3.6200	3.6200	-1.1541	6.26	0.27	-0.750			
0.3865	24733.80	3.6170	3.6172	-1.1624	6.26	0.27	-0.750			
0.3900	24960.46	3.6140	3.6139	-1.1794	6.26	0.27	-0.750			
0.3936	25188.81	3.6110	3.6110	-1.1893	6.27	0.28	-0.750			
0.3971	25417.40	3.6080	3.6079	-1.1963	6.27	0.28	-0.750			
0.4007	25646.94	3.6050	3.6050	-1.2072	6.27	0.28	-0.750			
0.4044	25880.16	3.6020	3.6020	-1.2221	6.27	0.28	-0.750			
0.4081	26116.51	3.5990	3.5989	-1.2319	6.27	0.28	-0.750			
0.4118	26352.01	3.5960	3.5963	-1.2454	6.27	0.28	-0.750	0.463	1.099	
0.4156	26596.82	3.5930	3.5930	-1.2663	6.27	0.28	-0.750			
0.4194	26841.08	3.5900	3.5900	-1.2791	6.27	0.28	-0.750			
0.4232	27087.46	3.5870	3.5871	-1.2944	6.27	0.28	-0.750			
0.4271	27337.41	3.5840	3.5839	-1.3027	6.27	0.28	-0.750			
0.4311	27588.11	3.5810	3.5810	-1.3125	6.27	0.28	-0.750			
0.4350	27840.31	3.5780	3.5780	-1.3339	6.27	0.28	-0.750			
0.4390	28097.10	3.5750	3.5750	-1.3445	6.27	0.28	-0.750			
0.4431	28360.53	3.5720	3.5719	-1.3622	6.28	0.29	-0.750			
0.4472	28621.45	3.5690	3.5690	-1.3799	6.29	0.30	-0.750			
0.4514	28888.42	3.5660	3.5660	-1.3892	6.29	0.30	-0.750			
0.4556	29157.40	3.5630	3.5629	-1.4082	6.29	0.30	-0.750			
0.4598	29428.17	3.5600	3.5599	-1.4299	6.29	0.30	-0.750			
0.4641	29703.74	3.5570	3.5569	-1.4433	6.29	0.30	-0.750			
0.4685	29983.97	3.5540	3.5540	-1.4635	6.30	0.31	-0.750			
0.4730	30269.55	3.5510	3.5509	-1.4741	6.31	0.32	-0.750			
0.4774	30550.55	3.5480	3.5479	-1.4893	6.31	0.32	-0.750			
0.4819	30841.59	3.5450	3.5447	-1.5024	6.31	0.32	-0.750			
0.4864	31128.70	3.5420	3.5420	-1.5114	6.31	0.32	-0.750			
0.4909	31417.94	3.5390	3.5390	-1.5203	6.32	0.33	-0.750			
0.4956	31715.68	3.5360	3.5360	-1.5481	6.32	0.33	-0.750			
0.5002	32012.98	3.5330	3.5331	-1.5609	6.33	0.34	-0.750			
0.5049	32312.58	3.5300	3.5298	-1.5769	6.35	0.36	-0.750			
0.5096	32616.07	3.5270	3.5270	-1.5812	6.36	0.37	-0.750			
0.5144	32922.37	3.5240	3.5238	-1.6069	6.37	0.38	-0.750			
0.5193	33238.13	3.5210	3.5210	-1.6111	6.38	0.39	-0.750			
0.5241	33543.83	3.5180	3.5180	-1.6150	6.39	0.40	-0.750			
0.5290	33856.54	3.5150	3.5150	-1.6155	6.40	0.41	-0.750			
0.5339	34169.61	3.5120	3.5119	-1.5980	6.41	0.42	-0.750			
0.5387	34475.73	3.5090	3.5090	-1.6025	6.41	0.42	-0.750			
0.5434	34779.90	3.5060	3.5062	-1.6121	6.42	0.43	-0.750			
0.5482	35087.27	3.5030	3.5029	-1.6041	6.43	0.44	-0.750			
0.5531	35396.24	3.5000	3.4999	-1.6076	6.44	0.45	-0.750			
0.5579	35707.97	3.4970	3.4970	-1.6186	6.44	0.45	-0.750			
0.5629	36023.31	3.4940	3.4939	-1.6229	6.45	0.46	-0.750			
0.5677	36335.50	3.4910	3.4912	-1.6194	6.47	0.48	-0.750			
0.5725	36640.85	3.4880	3.4879	-1.6063	6.48	0.49	-0.750			
0.5773	36950.23	3.4850	3.4849	-1.5990	6.49	0.50	-0.750			
0.5822	37260.65	3.4820	3.4819	-1.5939	6.50	0.51	-0.750			
0.5870	37567.07	3.4790	3.4792	-1.5840	6.51	0.52	-0.750			
0.5917	37866.55	3.4760	3.4759	-1.5765	6.52	0.53	-0.750			
0.5964	38167.88	3.4730	3.4731	-1.5625	6.53	0.54	-0.750			
0.6011	38468.99	3.4700	3.4699	-1.5505	6.54	0.55	-0.750			
0.6057	38767.69	3.4670	3.4669	-1.5385	6.56	0.57	-0.750			
0.6103	39062.04	3.4640	3.4639	-1.5261	6.57	0.58	-0.750			
0.6149	39353.00	3.4610	3.4609	-1.5056	6.58	0.59	-0.750			
0.6194	39639.90	3.4580	3.4579	-1.4892	6.59	0.60	-0.750			
0.6238	39920.04	3.4550	3.4551	-1.4674	6.61	0.62	-0.750			
0.6282	40203.42	3.4520	3.4520	-1.4510	6.63	0.64	-0.750			
0.6326	40485.96	3.4490	3.4489	-1.4399	6.64	0.65	-0.750			
0.6369	40759.16	3.4460	3.4462	-1.4204	6.66	0.67	-0.750			
0.6411	41028.54	3.4430	3.4430	-1.3919	6.67	0.68	-0.750			
0.6453	41296.72	3.4400	3.4399	-1.3716	6.69	0.70	-0.750			
0.6493	41557.15	3.4370	3.4371	-1.3498	6.70	0.71	-0.750			
0.6534	41816.22	3.4340	3.4339	-1.3282	6.72	0.73	-0.750			
0.6573	42067.29	3.4310	3.4310	-1.3007	6.73	0.74	-0.750			
0.6611	42313.09	3.4280	3.4282	-1.2758	6.75	0.76	-0.750			
0.6650	42557.12	3.4250	3.4249	-1.2489	6.77	0.78	-0.750			
0.6687	42794.45	3.4220	3.4220	-1.2225	6.78	0.79	-0.750			
0.6723	43025.72	3.4190	3.4190	-1.1917	6.80	0.81	-0.750			
0.6758	43250.57	3.4160	3.4160	-1.1701	6.81	0.82	-0.750			
0.6793	43476.08	3.4130	3.4129	-1.1463	6.83	0.84	-0.750			
0.6827	43693.50	3.4100	3.4099	-1.1139	6.84	0.85	-0.750			
0.6860	43905.20	3.4070	3.4071	-1.0850	6.85	0.86	-0.750			
0.6892	44111.72	3.4040	3.4039	-1.0613	6.86	0.87	-0.750			
0.6924	44311.68	3.4010	3.4010	-1.0293	6.88	0.89	-0.750			
0.6954	44505.69	3.3980	3.3979	-1.0031	6.89	0.90	-0.750			
0.6983	44692.98	3.3950	3.3950	-0.9747	6.91	0.92	-0.750			
0.7013	44880.32	3.3920	3.3920	-0.9572	6.92	0.93	-0.750			
0.7041	45062.27	3.3890	3.3890	-0.9307	6.93	0.94	-0.750			
0.7069	45238.76	3.3860	3.3860	-0.9044	6.95	0.96	-0.750			
0.7095	45408.96	3.3830	3.3830	-0.8766	6.96	0.97	-0.750			
0.7121	45576.72	3.3800	3.3801	-0.8546	6.97	0.98	-0.750			
0.7147	45737.91	3.3770	3.3770	-0.8271	6.99	1.00	-0.750			
0.7171	45892.87	3.3740	3.3740	-0.8079	7.00	1.01	-0.750			
0.7195	46049.11	3.3710	3.3709	-0.7724	7.02	1.03	-0.750			
0.7218	46196.51	3.3680	3.3679	-0.7391	7.03	1.04	-0.750			
0.7240	46335.10	3.3650	3.3653	-0.6961	7.05	1.06	-0.750			
0.7260	46466.11	3.3620	3.3619	-0.6330	7.06	1.07	-0.750			
0.7278	46580.01	3.3590	3.3591	-0.5480	7.07	1.08	-0.750			
