Ah_balance (normalized)	Ah_balance (mAh)	Voltage - fit (V)	Voltage -  interpolate (V)	dQ/dV (1/V)	Temperature (°C)	Temperature - diff (°C)	Current (C)	R_DC 0ms (mOhm)	R_DC 50ms (mOhm)	R_DC 50 ms PEC (mOhm)
0.1805	11551.82	4.0810	4.0810	0.8366	7.35	1.36	0.750			
0.1830	11712.86	4.0780	4.0780	0.8266	7.35	1.36	0.750			
0.1854	11866.78	4.0750	4.0750	0.7961	7.35	1.36	0.750			
0.1877	12013.58	4.0720	4.0719	0.7895	7.35	1.36	0.750			
0.1900	12163.02	4.0690	4.0692	0.7856	7.35	1.36	0.750			
0.1924	12310.62	4.0660	4.0657	0.7876	7.35	1.36	0.750			
0.1947	12462.59	4.0630	4.0632	0.7973	7.35	1.36	0.750			
0.1971	12617.10	4.0600	4.0600	0.7986	7.35	1.36	0.750			
0.1996	12772.20	4.0570	4.0570	0.8077	7.35	1.36	0.750			
0.2020	12928.22	4.0540	4.0541	0.8095	7.35	1.36	0.750			
0.2044	13082.53	4.0510	4.0507	0.8177	7.35	1.36	0.750			
0.2069	13241.67	4.0480	4.0480	0.8255	7.35	1.36	0.750			
0.2094	13401.53	4.0450	4.0450	0.8209	7.35	1.36	0.750			
0.2119	13560.80	4.0420	4.0422	0.8257	7.35	1.36	0.750			
0.2144	13719.23	4.0390	4.0390	0.8201	7.35	1.36	0.750			
0.2168	13876.15	4.0360	4.0358	0.8235	7.35	1.36	0.750			
0.2193	14033.41	4.0330	4.0331	0.8197	7.35	1.36	0.750			
0.2217	14188.22	4.0300	4.0300	0.8255	7.35	1.36	0.750			
0.2241	14345.55	4.0270	4.0271	0.8500	7.35	1.36	0.750			
0.2267	14510.19	4.0240	4.0240	0.8635	7.35	1.36	0.750			
0.2294	14681.61	4.0210	4.0204	0.8553	7.35	1.36	0.750			
0.2320	14850.17	4.0180	4.0183	0.8589	7.35	1.36	0.750			
0.2346	15014.30	4.0150	4.0153	0.8464	7.35	1.36	0.750			
0.2371	15176.65	4.0120	4.0118	0.8418	7.35	1.36	0.750			
0.2395	15328.59	4.0090	4.0090	0.8256	7.35	1.36	0.750			
0.2420	15487.37	4.0060	4.0057	0.8369	7.35	1.36	0.750			
0.2446	15652.56	4.0030	4.0031	0.8477	7.35	1.36	0.750			
0.2472	15818.84	4.0000	4.0001	0.8637	7.35	1.36	0.750			
0.2498	15986.16	3.9970	3.9970	0.8706	7.34	1.35	0.750			
0.2524	16154.29	3.9940	3.9941	0.8687	7.34	1.35	0.750			
0.2550	16321.08	3.9910	3.9911	0.8688	7.34	1.35	0.750			
0.2576	16488.55	3.9880	3.9881	0.8671	7.34	1.35	0.750			
0.2602	16655.15	3.9850	3.9850	0.8723	7.34	1.35	0.750			
0.2628	16821.23	3.9820	3.9820	0.8775	7.33	1.34	0.750			
0.2655	16988.92	3.9790	3.9790	0.8827	7.33	1.34	0.750			
0.2681	17159.09	3.9760	3.9760	0.8916	7.33	1.34	0.750			
0.2709	17336.57	3.9730	3.9729	0.8870	7.33	1.34	0.750			
0.2735	17505.78	3.9700	3.9701	0.8938	7.33	1.34	0.750			
0.2762	17678.15	3.9670	3.9670	0.8992	7.33	1.34	0.750			
0.2789	17847.30	3.9640	3.9638	0.9041	7.33	1.34	0.750			
0.2816	18022.89	3.9610	3.9611	0.9022	7.33	1.34	0.750			
0.2843	18194.91	3.9580	3.9581	0.9093	7.32	1.33	0.750			
0.2871	18372.06	3.9550	3.9551	0.9131	7.32	1.33	0.750			
0.2899	18551.48	3.9520	3.9518	0.9206	7.31	1.32	0.750			
0.2926	18724.18	3.9490	3.9490	0.9184	7.31	1.32	0.750			
0.2953	18902.08	3.9460	3.9460	0.9110	7.30	1.31	0.750			
0.2980	19073.55	3.9430	3.9430	0.9250	7.30	1.31	0.750			
0.3009	19254.91	3.9400	3.9400	0.9414	7.30	1.31	0.750			
0.3037	19433.80	3.9370	3.9368	0.9469	7.29	1.30	0.750			
0.3065	19618.55	3.9340	3.9341	0.9588	7.29	1.30	0.750			
0.3094	19803.77	3.9310	3.9313	0.9597	7.28	1.29	0.750			
0.3123	19988.61	3.9280	3.9280	0.9683	7.28	1.29	0.750			
0.3152	20175.92	3.9250	3.9251	0.9775	7.27	1.28	0.750			
0.3181	20360.13	3.9220	3.9221	0.9740	7.27	1.28	0.750			
0.3211	20548.59	3.9190	3.9191	0.9870	7.26	1.27	0.750			
0.3241	20740.13	3.9160	3.9160	1.0017	7.25	1.26	0.750			
0.3271	20934.42	3.9130	3.9130	1.0146	7.25	1.26	0.750			
0.3302	21130.59	3.9100	3.9099	1.0136	7.24	1.25	0.750			
0.3332	21326.63	3.9070	3.9070	1.0276	7.23	1.24	0.750			
0.3363	21524.41	3.9040	3.9041	1.0396	7.22	1.23	0.750			
0.3395	21725.74	3.9010	3.9011	1.0512	7.22	1.23	0.750			
0.3427	21932.70	3.8980	3.8979	1.0478	7.21	1.22	0.750			
0.3458	22130.94	3.8950	3.8950	1.0599	7.20	1.21	0.750			
0.3489	22332.57	3.8920	3.8922	1.0766	7.19	1.20	0.750			
0.3522	22540.04	3.8890	3.8891	1.0981	7.18	1.19	0.750			
0.3555	22752.55	3.8860	3.8860	1.1071	7.17	1.18	0.750			
0.3589	22969.16	3.8830	3.8831	1.1302	7.16	1.17	0.750			
0.3623	23189.06	3.8800	3.8800	1.1523	7.14	1.15	0.750			
0.3659	23416.40	3.8770	3.8769	1.1614	7.13	1.14	0.750			
0.3693	23638.10	3.8740	3.8741	1.1677	7.12	1.13	0.750			
0.3729	23862.60	3.8710	3.8710	1.1808	7.11	1.12	0.750			
0.3764	24090.39	3.8680	3.8681	1.1992	7.10	1.11	0.750			
0.3801	24323.73	3.8650	3.8647	1.1889	7.09	1.10	0.750			
0.3836	24553.04	3.8620	3.8621	1.2211	7.07	1.08	0.750			
0.3872	24783.51	3.8590	3.8591	1.2406	7.05	1.06	0.750			
0.3910	25025.04	3.8560	3.8559	1.2681	7.03	1.04	0.750			
0.3949	25273.57	3.8530	3.8531	1.2885	7.02	1.03	0.750			
0.3988	25520.44	3.8500	3.8499	1.3054	7.01	1.02	0.750			
0.4028	25778.83	3.8470	3.8471	1.3065	6.99	1.00	0.750			
0.4068	26034.02	3.8440	3.8439	1.3322	6.98	0.99	0.750			
0.4106	26275.48	3.8410	3.8412	1.3677	6.96	0.97	0.750			
0.4147	26543.23	3.8380	3.8381	1.4041	6.94	0.95	0.750			
0.4190	26819.14	3.8350	3.8352	1.4408	6.92	0.93	0.750	0.417	0.989	
0.4235	27101.18	3.8320	3.8324	1.4875	6.91	0.92	0.750			
0.4280	27394.34	3.8290	3.8290	1.5184	6.89	0.90	0.750			
0.4327	27694.78	3.8260	3.8260	1.5310	6.88	0.89	0.750			
0.4372	27981.08	3.8230	3.8230	1.5464	6.86	0.87	0.750			
0.4418	28277.34	3.8200	3.8200	1.5799	6.85	0.86	0.750			
0.4466	28584.35	3.8170	3.8172	1.6057	6.83	0.84	0.750			
0.4516	28902.13	3.8140	3.8142	1.6498	6.80	0.81	0.750			
0.4565	29216.73	3.8110	3.8110	1.6846	6.79	0.80	0.750			
0.4616	29540.90	3.8080	3.8080	1.7225	6.78	0.79	0.750			
0.4669	29879.73	3.8050	3.8048	1.7600	6.77	0.78	0.750			
0.4722	30222.68	3.8020	3.8019	1.8081	6.75	0.76	0.750			
0.4777	30572.18	3.7990	3.7992	1.9317	6.74	0.75	0.750			
0.4837	30957.33	3.7960	3.7957	2.0646	6.72	0.73	0.750			
0.4902	31372.65	3.7930	3.7928	2.1316	6.70	0.71	0.750			
0.4970	31807.99	3.7900	3.7899	2.1835	6.68	0.69	0.750			
0.5031	32200.88	3.7870	3.7870	2.0955	6.66	0.67	0.750			
0.5093	32596.93	3.7840	3.7841	2.0773	6.64	0.65	0.750			
0.5154	32984.75	3.7810	3.7809	2.0856	6.62	0.63	0.750			
0.5218	33392.16	3.7780	3.7779	2.1194	6.60	0.61	0.750			
0.5283	33812.61	3.7750	3.7749	2.1886	6.57	0.58	0.750			
0.5347	34223.31	3.7720	3.7719	2.1822	6.55	0.56	0.750			
0.5414	34647.49	3.7690	3.7688	2.2312	6.53	0.54	0.750			
0.5482	35085.00	3.7660	3.7660	2.2792	6.50	0.51	0.750			
0.5551	35526.61	3.7630	3.7632	2.2712	6.47	0.48	0.750			
0.5620	35971.01	3.7600	3.7600	2.2962	6.45	0.46	0.750			
0.5689	36407.28	3.7570	3.7569	2.3327	6.42	0.43	0.750			
0.5760	36866.14	3.7540	3.7540	2.3849	6.39	0.40	0.750			
0.5832	37326.25	3.7510	3.7511	2.4463	6.36	0.37	0.750			
0.5906	37800.94	3.7480	3.7479	2.5065	6.33	0.34	0.750			
0.5983	38290.78	3.7450	3.7451	2.6398	6.30	0.31	0.750			
0.6065	38815.98	3.7420	3.7419	2.7062	6.26	0.27	0.750			
0.6146	39331.85	3.7390	3.7390	2.7981	6.24	0.25	0.750			
0.6231	39881.31	3.7360	3.7359	2.9551	6.21	0.22	0.750			
0.6325	40479.90	3.7330	3.7330	3.0778	6.18	0.19	0.750			
0.6417	41067.21	3.7300	3.7300	3.1915	6.15	0.16	0.750			
0.6517	41711.25	3.7270	3.7271	3.1207	6.12	0.13	0.750			
0.6608	42293.33	3.7240	3.7245	2.9931	6.09	0.10	0.750			
0.6693	42832.77	3.7210	3.7210	2.8032	6.06	0.07	0.750			
0.6780	43390.79	3.7180	3.7182	2.7862	6.03	0.04	0.750			
0.6855	43875.08	3.7150	3.7152	2.3858	6.02	0.03	0.750			
0.6921	44293.84	3.7120	3.7119	2.0315	6.00	0.01	0.750			
0.6978	44660.86	3.7090	3.7091	1.8026	6.00	0.01	0.750			
0.7028	44981.23	3.7060	3.7059	1.5668	5.99	0.00	0.750			
0.7070	45249.70	3.7030	3.7031	1.3686	5.99	-0.00	0.750			
0.7106	45478.55	3.7000	3.7000	1.1729	5.98	-0.01	0.750			
0.7138	45683.73	3.6970	3.6970	1.0617	5.98	-0.01	0.750			
0.7167	45867.19	3.6940	3.6937	0.9539	5.98	-0.01	0.750			
0.7193	46033.59	3.6910	3.6911	0.8742	5.98	-0.01	0.750			
0.7218	46195.63	3.6880	3.6880	0.8124	5.98	-0.01	0.750			
0.7241	46345.57	3.6850	3.6850	0.7634	5.99	-0.00	0.750			
0.7264	46487.84	3.6820	3.6820	0.7105	5.99	-0.00	0.750			
0.7284	46619.13	3.6790	3.6790	0.6562	5.99	-0.00	0.750			
0.7303	46739.74	3.6760	3.6760	0.5953	5.99	0.00	0.750			
0.7320	46850.41	3.6730	3.6731	0.5400	5.99	0.00	0.750			
0.7335	46946.97	3.6700	3.6700	0.4834	5.99	0.00	0.750			
0.7349	47033.97	3.6670	3.6670	0.4310	5.99	0.00	0.750			
0.7361	47107.72	3.6640	3.6639	0.3797	6.00	0.01	0.750			
0.7371	47176.46	3.6610	3.6610	0.3388	6.00	0.01	0.750			
0.7381	47237.12	3.6580	3.6580	0.2989	6.00	0.01	0.750			
0.7389	47291.55	3.6550	3.6549	0.2604	6.00	0.01	0.750			
0.7397	47338.15	3.6520	3.6520	0.2220	6.00	0.01	0.750			
0.7403	47377.12	3.6490	3.6489	0.1825	6.00	0.01	0.750			
0.7408	47408.53	3.6460	3.6460	0.1425	6.00	0.01	0.750			
0.7411	47432.26	3.6430	3.6434	0.1019	6.00	0.01	0.750			
0.7414	47447.15	3.6400	3.6410	0.0631	6.00	0.01	0.750			
0.7415	47456.01	3.6370	3.6392	0.0130	6.00	0.01	0.750			
